space_bar.keys,space_bar.rt,participant,session,date,expName,psychopyVersion,OS,frameRate,resp.keys,state,q_prob,eps_prob,score,price,resp.rt,steps.thisRepN,steps.thisTrialN,steps.thisN,steps.thisIndex,steps.ran,blocks.thisRepN,blocks.thisTrialN,blocks.thisN,blocks.thisIndex,blocks.ran
space,77.6,921090,001,2023-07-06_15h46.32.724,arm3_ET_builderv2,2022.2.5,MacIntel,29.41176471,,,,,,,,,,,,,,,,,
space,46.982,921090,001,2023-07-06_15h46.32.724,arm3_ET_builderv2,2022.2.5,MacIntel,29.41176471,,,,,,,,,,,,,,,,,
space,21.512,921090,001,2023-07-06_15h46.32.724,arm3_ET_builderv2,2022.2.5,MacIntel,29.41176471,,,,,,,,,,,,,,,,,
space,71.151,921090,001,2023-07-06_15h46.32.724,arm3_ET_builderv2,2022.2.5,MacIntel,29.41176471,,,,,,,,,,,,,,,,,
space,73.183,921090,001,2023-07-06_15h46.32.724,arm3_ET_builderv2,2022.2.5,MacIntel,29.41176471,,,,,,,,,,,,,,,,,
,,921090,001,2023-07-06_15h46.32.724,arm3_ET_builderv2,2022.2.5,MacIntel,29.41176471,right,1,0.55,0.25,0,0.010984955,7.434,0,0,0,0,1,,,,,
,,921090,001,2023-07-06_15h46.32.724,arm3_ET_builderv2,2022.2.5,MacIntel,29.41176471,right,1,0.55,0.25,0,0.012738499,2.318,1,0,1,0,1,,,,,
,,921090,001,2023-07-06_15h46.32.724,arm3_ET_builderv2,2022.2.5,MacIntel,29.41176471,right,1,0.55,0.25,0,0.045936247,1.609,2,0,2,0,1,,,,,
,,921090,001,2023-07-06_15h46.32.724,arm3_ET_builderv2,2022.2.5,MacIntel,29.41176471,up,-1,0.55,0.25,1,0,2.458,3,0,3,0,1,,,,,
,,921090,001,2023-07-06_15h46.32.724,arm3_ET_builderv2,2022.2.5,MacIntel,29.41176471,right,-1,0.55,0.25,1,-0.0031316,6.42,4,0,4,0,1,,,,,
,,921090,001,2023-07-06_15h46.32.724,arm3_ET_builderv2,2022.2.5,MacIntel,29.41176471,right,-1,0.55,0.25,1,-0.023899673,2.508,5,0,5,0,1,,,,,
,,921090,001,2023-07-06_15h46.32.724,arm3_ET_builderv2,2022.2.5,MacIntel,29.41176471,right,-1,0.55,0.25,1,-0.009581273,0.974,6,0,6,0,1,,,,,
,,921090,001,2023-07-06_15h46.32.724,arm3_ET_builderv2,2022.2.5,MacIntel,29.41176471,right,-1,0.55,0.25,1,0.003391742,0.684,7,0,7,0,1,,,,,
,,921090,001,2023-07-06_15h46.32.724,arm3_ET_builderv2,2022.2.5,MacIntel,29.41176471,right,-1,0.55,0.25,1,-0.001148351,0.592,8,0,8,0,1,,,,,
,,921090,001,2023-07-06_15h46.32.724,arm3_ET_builderv2,2022.2.5,MacIntel,29.41176471,down,1,0.55,0.25,1,0,1.159,9,0,9,0,1,,,,,
,,921090,001,2023-07-06_15h46.32.724,arm3_ET_builderv2,2022.2.5,MacIntel,29.41176471,right,1,0.55,0.25,1,0.003250647,6.004,10,0,10,0,1,,,,,
,,921090,001,2023-07-06_15h46.32.724,arm3_ET_builderv2,2022.2.5,MacIntel,29.41176471,right,1,0.55,0.25,1,0.002851945,0.416,11,0,11,0,1,,,,,
,,921090,001,2023-07-06_15h46.32.724,arm3_ET_builderv2,2022.2.5,MacIntel,29.41176471,right,1,0.55,0.25,1,0.004884977,0.41,12,0,12,0,1,,,,,
,,921090,001,2023-07-06_15h46.32.724,arm3_ET_builderv2,2022.2.5,MacIntel,29.41176471,right,1,0.55,0.25,1,0.004140572,0.911,13,0,13,0,1,,,,,
,,921090,001,2023-07-06_15h46.32.724,arm3_ET_builderv2,2022.2.5,MacIntel,29.41176471,right,1,0.55,0.25,1,0.022942761,1.64,14,0,14,0,1,,,,,
,,921090,001,2023-07-06_15h46.32.724,arm3_ET_builderv2,2022.2.5,MacIntel,29.41176471,right,1,0.55,0.25,1,0.030563635,1.274,15,0,15,0,1,,,,,
,,921090,001,2023-07-06_15h46.32.724,arm3_ET_builderv2,2022.2.5,MacIntel,29.41176471,right,1,0.55,0.25,1,0.019451555,1.465,16,0,16,0,1,,,,,
,,921090,001,2023-07-06_15h46.32.724,arm3_ET_builderv2,2022.2.5,MacIntel,29.41176471,up,-1,0.55,0.25,2,0,0.476,17,0,17,0,1,,,,,
,,921090,001,2023-07-06_15h46.32.724,arm3_ET_builderv2,2022.2.5,MacIntel,29.41176471,right,-1,0.55,0.25,2,-0.00815729,4.624,18,0,18,0,1,,,,,
,,921090,001,2023-07-06_15h46.32.724,arm3_ET_builderv2,2022.2.5,MacIntel,29.41176471,right,-1,0.55,0.25,2,-0.015382292,0.34,19,0,19,0,1,,,,,
,,921090,001,2023-07-06_15h46.32.724,arm3_ET_builderv2,2022.2.5,MacIntel,29.41176471,right,-1,0.55,0.25,2,-0.023310815,0.428,20,0,20,0,1,,,,,
,,921090,001,2023-07-06_15h46.32.724,arm3_ET_builderv2,2022.2.5,MacIntel,29.41176471,down,-1,0.55,0.25,3,0,1.024,21,0,21,0,1,,,,,
,,921090,001,2023-07-06_15h46.32.724,arm3_ET_builderv2,2022.2.5,MacIntel,29.41176471,right,-1,0.55,0.25,3,0.006721036,1.696,22,0,22,0,1,,,,,
,,921090,001,2023-07-06_15h46.32.724,arm3_ET_builderv2,2022.2.5,MacIntel,29.41176471,right,-1,0.55,0.25,3,0.003305159,0.467,23,0,23,0,1,,,,,
,,921090,001,2023-07-06_15h46.32.724,arm3_ET_builderv2,2022.2.5,MacIntel,29.41176471,right,-1,0.55,0.25,3,-0.009247988,0.637,24,0,24,0,1,,,,,
,,921090,001,2023-07-06_15h46.32.724,arm3_ET_builderv2,2022.2.5,MacIntel,29.41176471,right,-1,0.55,0.25,3,-0.024200178,0.512,25,0,25,0,1,,,,,
,,921090,001,2023-07-06_15h46.32.724,arm3_ET_builderv2,2022.2.5,MacIntel,29.41176471,right,-1,0.55,0.25,3,-0.006952401,0.746,26,0,26,0,1,,,,,
,,921090,001,2023-07-06_15h46.32.724,arm3_ET_builderv2,2022.2.5,MacIntel,29.41176471,right,-1,0.55,0.25,3,-0.017782398,0.83,27,0,27,0,1,,,,,
,,921090,001,2023-07-06_15h46.32.724,arm3_ET_builderv2,2022.2.5,MacIntel,29.41176471,down,-1,0.55,0.25,4,0,0.612,28,0,28,0,1,,,,,
,,921090,001,2023-07-06_15h46.32.724,arm3_ET_builderv2,2022.2.5,MacIntel,29.41176471,right,-1,0.55,0.25,4,0.0056488,1.355,29,0,29,0,1,,,,,
,,921090,001,2023-07-06_15h46.32.724,arm3_ET_builderv2,2022.2.5,MacIntel,29.41176471,right,-1,0.55,0.25,4,-0.004173127,0.421,30,0,30,0,1,,,,,
,,921090,001,2023-07-06_15h46.32.724,arm3_ET_builderv2,2022.2.5,MacIntel,29.41176471,right,-1,0.55,0.25,4,-0.013845345,0.419,31,0,31,0,1,,,,,
,,921090,001,2023-07-06_15h46.32.724,arm3_ET_builderv2,2022.2.5,MacIntel,29.41176471,right,-1,0.55,0.25,4,-0.032692493,0.467,32,0,32,0,1,,,,,
,,921090,001,2023-07-06_15h46.32.724,arm3_ET_builderv2,2022.2.5,MacIntel,29.41176471,right,-1,0.55,0.25,4,-0.002500051,0.646,33,0,33,0,1,,,,,
,,921090,001,2023-07-06_15h46.32.724,arm3_ET_builderv2,2022.2.5,MacIntel,29.41176471,right,-1,0.55,0.25,4,-0.020922585,0.691,34,0,34,0,1,,,,,
,,921090,001,2023-07-06_15h46.32.724,arm3_ET_builderv2,2022.2.5,MacIntel,29.41176471,down,-1,0.55,0.25,4,0,1.015,35,0,35,0,1,,,,,
,,921090,001,2023-07-06_15h46.32.724,arm3_ET_builderv2,2022.2.5,MacIntel,29.41176471,right,-1,0.55,0.25,4,-0.036228944,2.163,36,0,36,0,1,,,,,
,,921090,001,2023-07-06_15h46.32.724,arm3_ET_builderv2,2022.2.5,MacIntel,29.41176471,right,-1,0.55,0.25,4,-0.024447237,0.548,37,0,37,0,1,,,,,
,,921090,001,2023-07-06_15h46.32.724,arm3_ET_builderv2,2022.2.5,MacIntel,29.41176471,right,-1,0.55,0.25,4,-0.025539068,0.51,38,0,38,0,1,,,,,
,,921090,001,2023-07-06_15h46.32.724,arm3_ET_builderv2,2022.2.5,MacIntel,29.41176471,right,-1,0.55,0.25,4,-0.02091417,0.478,39,0,39,0,1,,,,,
,,921090,001,2023-07-06_15h46.32.724,arm3_ET_builderv2,2022.2.5,MacIntel,29.41176471,down,-1,0.55,0.25,5,0,1.012,40,0,40,0,1,,,,,
,,921090,001,2023-07-06_15h46.32.724,arm3_ET_builderv2,2022.2.5,MacIntel,29.41176471,right,-1,0.55,0.25,5,-0.019879448,1.077,41,0,41,0,1,,,,,
,,921090,001,2023-07-06_15h46.32.724,arm3_ET_builderv2,2022.2.5,MacIntel,29.41176471,right,-1,0.55,0.25,5,-0.00527398,0.649,42,0,42,0,1,,,,,
,,921090,001,2023-07-06_15h46.32.724,arm3_ET_builderv2,2022.2.5,MacIntel,29.41176471,right,-1,0.55,0.25,5,-0.025118656,1.729,43,0,43,0,1,,,,,
,,921090,001,2023-07-06_15h46.32.724,arm3_ET_builderv2,2022.2.5,MacIntel,29.41176471,down,1,0.55,0.25,5,0,3.002,44,0,44,0,1,,,,,
,,921090,001,2023-07-06_15h46.32.724,arm3_ET_builderv2,2022.2.5,MacIntel,29.41176471,right,1,0.55,0.25,5,0.011496497,1.16,45,0,45,0,1,,,,,
,,921090,001,2023-07-06_15h46.32.724,arm3_ET_builderv2,2022.2.5,MacIntel,29.41176471,right,1,0.55,0.25,5,0.013050093,0.511,46,0,46,0,1,,,,,
,,921090,001,2023-07-06_15h46.32.724,arm3_ET_builderv2,2022.2.5,MacIntel,29.41176471,right,1,0.55,0.25,5,0.04004598,0.576,47,0,47,0,1,,,,,
,,921090,001,2023-07-06_15h46.32.724,arm3_ET_builderv2,2022.2.5,MacIntel,29.41176471,up,-1,0.55,0.25,5,0,1.646,48,0,48,0,1,,,,,
,,921090,001,2023-07-06_15h46.32.724,arm3_ET_builderv2,2022.2.5,MacIntel,29.41176471,right,-1,0.55,0.25,5,-0.02803447,1.313,49,0,49,0,1,,,,,
,,921090,001,2023-07-06_15h46.32.724,arm3_ET_builderv2,2022.2.5,MacIntel,29.41176471,right,-1,0.55,0.25,5,-0.047681327,1.499,50,0,50,0,1,,,,,
,,921090,001,2023-07-06_15h46.32.724,arm3_ET_builderv2,2022.2.5,MacIntel,29.41176471,down,-1,0.55,0.25,5,0,2.468,51,0,51,0,1,,,,,
,,921090,001,2023-07-06_15h46.32.724,arm3_ET_builderv2,2022.2.5,MacIntel,29.41176471,right,-1,0.55,0.25,5,-0.009544656,1.019,52,0,52,0,1,,,,,
,,921090,001,2023-07-06_15h46.32.724,arm3_ET_builderv2,2022.2.5,MacIntel,29.41176471,right,-1,0.55,0.25,5,-0.023006854,0.318,53,0,53,0,1,,,,,
,,921090,001,2023-07-06_15h46.32.724,arm3_ET_builderv2,2022.2.5,MacIntel,29.41176471,right,-1,0.55,0.25,5,-0.014250379,0.798,54,0,54,0,1,,,,,
,,921090,001,2023-07-06_15h46.32.724,arm3_ET_builderv2,2022.2.5,MacIntel,29.41176471,right,-1,0.55,0.25,5,-0.052670708,0.542,55,0,55,0,1,,,,,
,,921090,001,2023-07-06_15h46.32.724,arm3_ET_builderv2,2022.2.5,MacIntel,29.41176471,down,-1,0.55,0.25,6,0,1.444,56,0,56,0,1,,,,,
,,921090,001,2023-07-06_15h46.32.724,arm3_ET_builderv2,2022.2.5,MacIntel,29.41176471,right,-1,0.55,0.25,6,-0.017346336,1.302,57,0,57,0,1,,,,,
,,921090,001,2023-07-06_15h46.32.724,arm3_ET_builderv2,2022.2.5,MacIntel,29.41176471,right,-1,0.55,0.25,6,-0.007521304,0.927,58,0,58,0,1,,,,,
,,921090,001,2023-07-06_15h46.32.724,arm3_ET_builderv2,2022.2.5,MacIntel,29.41176471,right,-1,0.55,0.25,6,-0.026371038,1.463,59,0,59,0,1,,,,,
,,921090,001,2023-07-06_15h46.32.724,arm3_ET_builderv2,2022.2.5,MacIntel,29.41176471,down,-1,0.55,0.25,6,0,0.479,60,0,60,0,1,,,,,
,,921090,001,2023-07-06_15h46.32.724,arm3_ET_builderv2,2022.2.5,MacIntel,29.41176471,right,-1,0.55,0.25,6,-0.026699154,1.071,61,0,61,0,1,,,,,
,,921090,001,2023-07-06_15h46.32.724,arm3_ET_builderv2,2022.2.5,MacIntel,29.41176471,right,-1,0.55,0.25,6,-0.036570167,0.29,62,0,62,0,1,,,,,
,,921090,001,2023-07-06_15h46.32.724,arm3_ET_builderv2,2022.2.5,MacIntel,29.41176471,right,-1,0.55,0.25,6,-0.097947955,0.61,63,0,63,0,1,,,,,
,,921090,001,2023-07-06_15h46.32.724,arm3_ET_builderv2,2022.2.5,MacIntel,29.41176471,down,-1,0.55,0.25,6,0,0.543,64,0,64,0,1,,,,,
,,921090,001,2023-07-06_15h46.32.724,arm3_ET_builderv2,2022.2.5,MacIntel,29.41176471,right,-1,0.55,0.25,6,0.014284954,1.188,65,0,65,0,1,,,,,
,,921090,001,2023-07-06_15h46.32.724,arm3_ET_builderv2,2022.2.5,MacIntel,29.41176471,right,-1,0.55,0.25,6,0.011934243,0.46,66,0,66,0,1,,,,,
,,921090,001,2023-07-06_15h46.32.724,arm3_ET_builderv2,2022.2.5,MacIntel,29.41176471,right,-1,0.55,0.25,6,0.00289992,1.577,67,0,67,0,1,,,,,
,,921090,001,2023-07-06_15h46.32.724,arm3_ET_builderv2,2022.2.5,MacIntel,29.41176471,right,-1,0.55,0.25,6,-0.026520312,1.525,68,0,68,0,1,,,,,
,,921090,001,2023-07-06_15h46.32.724,arm3_ET_builderv2,2022.2.5,MacIntel,29.41176471,right,-1,0.55,0.25,6,-0.038575872,0.308,69,0,69,0,1,,,,,
,,921090,001,2023-07-06_15h46.32.724,arm3_ET_builderv2,2022.2.5,MacIntel,29.41176471,down,-1,0.55,0.25,6,0,0.46,70,0,70,0,1,,,,,
,,921090,001,2023-07-06_15h46.32.724,arm3_ET_builderv2,2022.2.5,MacIntel,29.41176471,right,-1,0.55,0.25,6,-0.002075826,0.878,71,0,71,0,1,,,,,
,,921090,001,2023-07-06_15h46.32.724,arm3_ET_builderv2,2022.2.5,MacIntel,29.41176471,right,-1,0.55,0.25,6,-0.010958738,0.325,72,0,72,0,1,,,,,
,,921090,001,2023-07-06_15h46.32.724,arm3_ET_builderv2,2022.2.5,MacIntel,29.41176471,right,-1,0.55,0.25,6,-0.021720144,0.276,73,0,73,0,1,,,,,
,,921090,001,2023-07-06_15h46.32.724,arm3_ET_builderv2,2022.2.5,MacIntel,29.41176471,right,-1,0.55,0.25,6,-0.016442032,0.426,74,0,74,0,1,,,,,
,,921090,001,2023-07-06_15h46.32.724,arm3_ET_builderv2,2022.2.5,MacIntel,29.41176471,right,-1,0.55,0.25,6,-0.038883625,0.395,75,0,75,0,1,,,,,
,,921090,001,2023-07-06_15h46.32.724,arm3_ET_builderv2,2022.2.5,MacIntel,29.41176471,right,-1,0.55,0.25,6,-0.034592746,0.388,76,0,76,0,1,,,,,
,,921090,001,2023-07-06_15h46.32.724,arm3_ET_builderv2,2022.2.5,MacIntel,29.41176471,down,-1,0.55,0.25,6,0,0.77,77,0,77,0,1,,,,,
,,921090,001,2023-07-06_15h46.32.724,arm3_ET_builderv2,2022.2.5,MacIntel,29.41176471,right,-1,0.55,0.25,6,0.018165331,0.853,78,0,78,0,1,,,,,
,,921090,001,2023-07-06_15h46.32.724,arm3_ET_builderv2,2022.2.5,MacIntel,29.41176471,right,-1,0.55,0.25,6,0.026784103,0.409,79,0,79,0,1,,,,,
,,921090,001,2023-07-06_15h46.32.724,arm3_ET_builderv2,2022.2.5,MacIntel,29.41176471,right,-1,0.55,0.25,6,0.014303898,0.323,80,0,80,0,1,,,,,
,,921090,001,2023-07-06_15h46.32.724,arm3_ET_builderv2,2022.2.5,MacIntel,29.41176471,right,-1,0.55,0.25,6,-0.005221651,0.562,81,0,81,0,1,,,,,
,,921090,001,2023-07-06_15h46.32.724,arm3_ET_builderv2,2022.2.5,MacIntel,29.41176471,right,-1,0.55,0.25,6,-0.009747357,0.311,82,0,82,0,1,,,,,
,,921090,001,2023-07-06_15h46.32.724,arm3_ET_builderv2,2022.2.5,MacIntel,29.41176471,right,-1,0.55,0.25,6,0.001289548,0.448,83,0,83,0,1,,,,,
,,921090,001,2023-07-06_15h46.32.724,arm3_ET_builderv2,2022.2.5,MacIntel,29.41176471,right,-1,0.55,0.25,6,0.027567585,0.966,84,0,84,0,1,,,,,
,,921090,001,2023-07-06_15h46.32.724,arm3_ET_builderv2,2022.2.5,MacIntel,29.41176471,right,-1,0.55,0.25,6,0.010311558,0.473,85,0,85,0,1,,,,,
,,921090,001,2023-07-06_15h46.32.724,arm3_ET_builderv2,2022.2.5,MacIntel,29.41176471,right,-1,0.55,0.25,6,-0.025074325,0.429,86,0,86,0,1,,,,,
,,921090,001,2023-07-06_15h46.32.724,arm3_ET_builderv2,2022.2.5,MacIntel,29.41176471,right,-1,0.55,0.25,6,-0.025981922,0.53,87,0,87,0,1,,,,,
,,921090,001,2023-07-06_15h46.32.724,arm3_ET_builderv2,2022.2.5,MacIntel,29.41176471,right,-1,0.55,0.25,6,-0.051441822,0.46,88,0,88,0,1,,,,,
,,921090,001,2023-07-06_15h46.32.724,arm3_ET_builderv2,2022.2.5,MacIntel,29.41176471,right,-1,0.55,0.25,6,-0.035838863,0.698,89,0,89,0,1,,,,,
,,921090,001,2023-07-06_15h46.32.724,arm3_ET_builderv2,2022.2.5,MacIntel,29.41176471,up,-1,0.55,0.25,6,0,4.714,90,0,90,0,1,,,,,
,,921090,001,2023-07-06_15h46.32.724,arm3_ET_builderv2,2022.2.5,MacIntel,29.41176471,right,-1,0.55,0.25,6,0.002900882,0.937,91,0,91,0,1,,,,,
,,921090,001,2023-07-06_15h46.32.724,arm3_ET_builderv2,2022.2.5,MacIntel,29.41176471,right,-1,0.55,0.25,6,0.003005927,0.412,92,0,92,0,1,,,,,
,,921090,001,2023-07-06_15h46.32.724,arm3_ET_builderv2,2022.2.5,MacIntel,29.41176471,right,-1,0.55,0.25,6,-0.002465931,0.541,93,0,93,0,1,,,,,
,,921090,001,2023-07-06_15h46.32.724,arm3_ET_builderv2,2022.2.5,MacIntel,29.41176471,right,-1,0.55,0.25,6,0.008928487,0.761,94,0,94,0,1,,,,,
,,921090,001,2023-07-06_15h46.32.724,arm3_ET_builderv2,2022.2.5,MacIntel,29.41176471,right,-1,0.55,0.25,6,-0.018266063,0.507,95,0,95,0,1,,,,,
,,921090,001,2023-07-06_15h46.32.724,arm3_ET_builderv2,2022.2.5,MacIntel,29.41176471,right,-1,0.55,0.25,6,-0.029532161,0.387,96,0,96,0,1,,,,,
,,921090,001,2023-07-06_15h46.32.724,arm3_ET_builderv2,2022.2.5,MacIntel,29.41176471,right,-1,0.55,0.25,6,-0.06697356,0.498,97,0,97,0,1,,,,,
,,921090,001,2023-07-06_15h46.32.724,arm3_ET_builderv2,2022.2.5,MacIntel,29.41176471,down,-1,0.55,0.25,7,0,0.862,98,0,98,0,1,,,,,
,,921090,001,2023-07-06_15h46.32.724,arm3_ET_builderv2,2022.2.5,MacIntel,29.41176471,right,-1,0.55,0.25,7,0.010392663,0.994,99,0,99,0,1,,,,,
,,921090,001,2023-07-06_15h46.32.724,arm3_ET_builderv2,2022.2.5,MacIntel,29.41176471,right,-1,0.55,0.25,7,-0.005878005,0.495,100,0,100,0,1,,,,,
,,921090,001,2023-07-06_15h46.32.724,arm3_ET_builderv2,2022.2.5,MacIntel,29.41176471,right,-1,0.55,0.25,7,-0.007285343,0.345,101,0,101,0,1,,,,,
,,921090,001,2023-07-06_15h46.32.724,arm3_ET_builderv2,2022.2.5,MacIntel,29.41176471,right,-1,0.55,0.25,7,-0.006822079,0.401,102,0,102,0,1,,,,,
,,921090,001,2023-07-06_15h46.32.724,arm3_ET_builderv2,2022.2.5,MacIntel,29.41176471,down,1,0.55,0.25,8,0,0.622,103,0,103,0,1,,,,,
,,921090,001,2023-07-06_15h46.32.724,arm3_ET_builderv2,2022.2.5,MacIntel,29.41176471,right,1,0.55,0.25,8,-0.000186283,0.846,104,0,104,0,1,,,,,
,,921090,001,2023-07-06_15h46.32.724,arm3_ET_builderv2,2022.2.5,MacIntel,29.41176471,right,1,0.55,0.25,8,0.006433388,0.366,105,0,105,0,1,,,,,
,,921090,001,2023-07-06_15h46.32.724,arm3_ET_builderv2,2022.2.5,MacIntel,29.41176471,right,1,0.55,0.25,8,-0.000222862,0.424,106,0,106,0,1,,,,,
,,921090,001,2023-07-06_15h46.32.724,arm3_ET_builderv2,2022.2.5,MacIntel,29.41176471,right,1,0.55,0.25,8,0.029185711,0.822,107,0,107,0,1,,,,,
,,921090,001,2023-07-06_15h46.32.724,arm3_ET_builderv2,2022.2.5,MacIntel,29.41176471,up,1,0.55,0.25,9,0,0.229,108,0,108,0,1,,,,,
,,921090,001,2023-07-06_15h46.32.724,arm3_ET_builderv2,2022.2.5,MacIntel,29.41176471,right,1,0.55,0.25,9,0.01842396,0.763,109,0,109,0,1,,,,,
,,921090,001,2023-07-06_15h46.32.724,arm3_ET_builderv2,2022.2.5,MacIntel,29.41176471,right,1,0.55,0.25,9,0.022458762,0.516,110,0,110,0,1,,,,,
,,921090,001,2023-07-06_15h46.32.724,arm3_ET_builderv2,2022.2.5,MacIntel,29.41176471,right,1,0.55,0.25,9,0.010427422,0.376,111,0,111,0,1,,,,,
,,921090,001,2023-07-06_15h46.32.724,arm3_ET_builderv2,2022.2.5,MacIntel,29.41176471,right,1,0.55,0.25,9,0.007246967,0.326,112,0,112,0,1,,,,,
,,921090,001,2023-07-06_15h46.32.724,arm3_ET_builderv2,2022.2.5,MacIntel,29.41176471,right,1,0.55,0.25,9,0.021272568,1.331,113,0,113,0,1,,,,,
,,921090,001,2023-07-06_15h46.32.724,arm3_ET_builderv2,2022.2.5,MacIntel,29.41176471,right,1,0.55,0.25,9,0.015808118,0.483,114,0,114,0,1,,,,,
,,921090,001,2023-07-06_15h46.32.724,arm3_ET_builderv2,2022.2.5,MacIntel,29.41176471,right,1,0.55,0.25,9,-0.000534231,0.543,115,0,115,0,1,,,,,
,,921090,001,2023-07-06_15h46.32.724,arm3_ET_builderv2,2022.2.5,MacIntel,29.41176471,right,1,0.55,0.25,9,-0.009360515,0.943,116,0,116,0,1,,,,,
,,921090,001,2023-07-06_15h46.32.724,arm3_ET_builderv2,2022.2.5,MacIntel,29.41176471,right,1,0.55,0.25,9,0.009949579,0.727,117,0,117,0,1,,,,,
,,921090,001,2023-07-06_15h46.32.724,arm3_ET_builderv2,2022.2.5,MacIntel,29.41176471,up,1,0.55,0.25,9,0,0.511,118,0,118,0,1,,,,,
,,921090,001,2023-07-06_15h46.32.724,arm3_ET_builderv2,2022.2.5,MacIntel,29.41176471,right,1,0.55,0.25,9,0.006320542,0.952,119,0,119,0,1,,,,,
,,921090,001,2023-07-06_15h46.32.724,arm3_ET_builderv2,2022.2.5,MacIntel,29.41176471,right,1,0.55,0.25,9,0.013855167,0.401,120,0,120,0,1,,,,,
,,921090,001,2023-07-06_15h46.32.724,arm3_ET_builderv2,2022.2.5,MacIntel,29.41176471,right,1,0.55,0.25,9,0.049539989,0.347,121,0,121,0,1,,,,,
,,921090,001,2023-07-06_15h46.32.724,arm3_ET_builderv2,2022.2.5,MacIntel,29.41176471,right,1,0.55,0.25,9,0.055294699,0.41,122,0,122,0,1,,,,,
,,921090,001,2023-07-06_15h46.32.724,arm3_ET_builderv2,2022.2.5,MacIntel,29.41176471,up,1,0.55,0.25,9,0,0.319,123,0,123,0,1,,,,,
,,921090,001,2023-07-06_15h46.32.724,arm3_ET_builderv2,2022.2.5,MacIntel,29.41176471,right,1,0.55,0.25,9,0.030750736,0.8,124,0,124,0,1,,,,,
,,921090,001,2023-07-06_15h46.32.724,arm3_ET_builderv2,2022.2.5,MacIntel,29.41176471,right,1,0.55,0.25,9,0.042039198,0.543,125,0,125,0,1,,,,,
,,921090,001,2023-07-06_15h46.32.724,arm3_ET_builderv2,2022.2.5,MacIntel,29.41176471,up,-1,0.55,0.25,10,0,0.982,126,0,126,0,1,,,,,
,,921090,001,2023-07-06_15h46.32.724,arm3_ET_builderv2,2022.2.5,MacIntel,29.41176471,right,-1,0.55,0.25,10,0.006425777,0.863,127,0,127,0,1,,,,,
,,921090,001,2023-07-06_15h46.32.724,arm3_ET_builderv2,2022.2.5,MacIntel,29.41176471,right,-1,0.55,0.25,10,0.011344557,0.348,128,0,128,0,1,,,,,
,,921090,001,2023-07-06_15h46.32.724,arm3_ET_builderv2,2022.2.5,MacIntel,29.41176471,right,-1,0.55,0.25,10,0.0124657,0.446,129,0,129,0,1,,,,,
,,921090,001,2023-07-06_15h46.32.724,arm3_ET_builderv2,2022.2.5,MacIntel,29.41176471,right,-1,0.55,0.25,10,-0.019096058,0.531,130,0,130,0,1,,,,,
,,921090,001,2023-07-06_15h46.32.724,arm3_ET_builderv2,2022.2.5,MacIntel,29.41176471,right,-1,0.55,0.25,10,-0.04320702,0.362,131,0,131,0,1,,,,,
,,921090,001,2023-07-06_15h46.32.724,arm3_ET_builderv2,2022.2.5,MacIntel,29.41176471,right,-1,0.55,0.25,10,-0.078387,0.892,132,0,132,0,1,,,,,
,,921090,001,2023-07-06_15h46.32.724,arm3_ET_builderv2,2022.2.5,MacIntel,29.41176471,right,-1,0.55,0.25,10,-0.073073294,0.444,133,0,133,0,1,,,,,
,,921090,001,2023-07-06_15h46.32.724,arm3_ET_builderv2,2022.2.5,MacIntel,29.41176471,down,-1,0.55,0.25,11,0,0.611,134,0,134,0,1,,,,,
,,921090,001,2023-07-06_15h46.32.724,arm3_ET_builderv2,2022.2.5,MacIntel,29.41176471,right,-1,0.55,0.25,11,-0.006225584,0.827,135,0,135,0,1,,,,,
,,921090,001,2023-07-06_15h46.32.724,arm3_ET_builderv2,2022.2.5,MacIntel,29.41176471,right,-1,0.55,0.25,11,-0.002705706,0.217,136,0,136,0,1,,,,,
,,921090,001,2023-07-06_15h46.32.724,arm3_ET_builderv2,2022.2.5,MacIntel,29.41176471,right,-1,0.55,0.25,11,-0.016809629,0.327,137,0,137,0,1,,,,,
,,921090,001,2023-07-06_15h46.32.724,arm3_ET_builderv2,2022.2.5,MacIntel,29.41176471,right,-1,0.55,0.25,11,-0.046702652,0.211,138,0,138,0,1,,,,,
,,921090,001,2023-07-06_15h46.32.724,arm3_ET_builderv2,2022.2.5,MacIntel,29.41176471,right,-1,0.55,0.25,11,-0.078479037,0.363,139,0,139,0,1,,,,,
,,921090,001,2023-07-06_15h46.32.724,arm3_ET_builderv2,2022.2.5,MacIntel,29.41176471,down,-1,0.55,0.25,11,0,0.4,140,0,140,0,1,,,,,
,,921090,001,2023-07-06_15h46.32.724,arm3_ET_builderv2,2022.2.5,MacIntel,29.41176471,right,-1,0.55,0.25,11,-0.006697625,0.763,141,0,141,0,1,,,,,
,,921090,001,2023-07-06_15h46.32.724,arm3_ET_builderv2,2022.2.5,MacIntel,29.41176471,right,-1,0.55,0.25,11,-0.024168122,0.312,142,0,142,0,1,,,,,
,,921090,001,2023-07-06_15h46.32.724,arm3_ET_builderv2,2022.2.5,MacIntel,29.41176471,right,-1,0.55,0.25,11,-0.035498246,0.403,143,0,143,0,1,,,,,
,,921090,001,2023-07-06_15h46.32.724,arm3_ET_builderv2,2022.2.5,MacIntel,29.41176471,down,-1,0.55,0.25,11,0,0.438,144,0,144,0,1,,,,,
,,921090,001,2023-07-06_15h46.32.724,arm3_ET_builderv2,2022.2.5,MacIntel,29.41176471,right,-1,0.55,0.25,11,0.021424685,0.565,145,0,145,0,1,,,,,
,,921090,001,2023-07-06_15h46.32.724,arm3_ET_builderv2,2022.2.5,MacIntel,29.41176471,right,-1,0.55,0.25,11,0.034712689,0.314,146,0,146,0,1,,,,,
,,921090,001,2023-07-06_15h46.32.724,arm3_ET_builderv2,2022.2.5,MacIntel,29.41176471,right,-1,0.55,0.25,11,0.044555512,0.33,147,0,147,0,1,,,,,
,,921090,001,2023-07-06_15h46.32.724,arm3_ET_builderv2,2022.2.5,MacIntel,29.41176471,up,-1,0.55,0.25,10,0,0.877,148,0,148,0,1,,,,,
,,921090,001,2023-07-06_15h46.32.724,arm3_ET_builderv2,2022.2.5,MacIntel,29.41176471,right,-1,0.55,0.25,10,0.000363376,1.893,149,0,149,0,1,,,,,
,,921090,001,2023-07-06_15h46.32.724,arm3_ET_builderv2,2022.2.5,MacIntel,29.41176471,right,-1,0.55,0.25,10,-0.025150716,1.045,150,0,150,0,1,,,,,
,,921090,001,2023-07-06_15h46.32.724,arm3_ET_builderv2,2022.2.5,MacIntel,29.41176471,right,-1,0.55,0.25,10,-0.05153704,0.712,151,0,151,0,1,,,,,
,,921090,001,2023-07-06_15h46.32.724,arm3_ET_builderv2,2022.2.5,MacIntel,29.41176471,right,-1,0.55,0.25,10,-0.065336301,0.661,152,0,152,0,1,,,,,
,,921090,001,2023-07-06_15h46.32.724,arm3_ET_builderv2,2022.2.5,MacIntel,29.41176471,right,-1,0.55,0.25,10,-0.043213059,0.655,153,0,153,0,1,,,,,
,,921090,001,2023-07-06_15h46.32.724,arm3_ET_builderv2,2022.2.5,MacIntel,29.41176471,down,-1,0.55,0.25,11,0,0.803,154,0,154,0,1,,,,,
,,921090,001,2023-07-06_15h46.32.724,arm3_ET_builderv2,2022.2.5,MacIntel,29.41176471,right,-1,0.55,0.25,11,-0.050403585,0.775,155,0,155,0,1,,,,,
,,921090,001,2023-07-06_15h46.32.724,arm3_ET_builderv2,2022.2.5,MacIntel,29.41176471,right,-1,0.55,0.25,11,-0.097065465,0.343,156,0,156,0,1,,,,,
,,921090,001,2023-07-06_15h46.32.724,arm3_ET_builderv2,2022.2.5,MacIntel,29.41176471,right,-1,0.55,0.25,11,-0.111654522,0.366,157,0,157,0,1,,,,,
,,921090,001,2023-07-06_15h46.32.724,arm3_ET_builderv2,2022.2.5,MacIntel,29.41176471,right,-1,0.55,0.25,11,-0.130696944,0.417,158,0,158,0,1,,,,,
,,921090,001,2023-07-06_15h46.32.724,arm3_ET_builderv2,2022.2.5,MacIntel,29.41176471,down,1,0.55,0.25,12,0,1.026,159,0,159,0,1,,,,,
,,921090,001,2023-07-06_15h46.32.724,arm3_ET_builderv2,2022.2.5,MacIntel,29.41176471,right,1,0.55,0.25,12,0.005259935,0.867,160,0,160,0,1,,,,,
,,921090,001,2023-07-06_15h46.32.724,arm3_ET_builderv2,2022.2.5,MacIntel,29.41176471,right,1,0.55,0.25,12,0.0432065,0.317,161,0,161,0,1,,,,,
,,921090,001,2023-07-06_15h46.32.724,arm3_ET_builderv2,2022.2.5,MacIntel,29.41176471,right,1,0.55,0.25,12,0.070539976,0.293,162,0,162,0,1,,,,,
,,921090,001,2023-07-06_15h46.32.724,arm3_ET_builderv2,2022.2.5,MacIntel,29.41176471,right,1,0.55,0.25,12,0.083811974,0.361,163,0,163,0,1,,,,,
,,921090,001,2023-07-06_15h46.32.724,arm3_ET_builderv2,2022.2.5,MacIntel,29.41176471,up,1,0.55,0.25,13,0,0.544,164,0,164,0,1,,,,,
,,921090,001,2023-07-06_15h46.32.724,arm3_ET_builderv2,2022.2.5,MacIntel,29.41176471,right,1,0.55,0.25,13,-0.000495665,0.759,165,0,165,0,1,,,,,
,,921090,001,2023-07-06_15h46.32.724,arm3_ET_builderv2,2022.2.5,MacIntel,29.41176471,right,1,0.55,0.25,13,0.022102955,0.261,166,0,166,0,1,,,,,
,,921090,001,2023-07-06_15h46.32.724,arm3_ET_builderv2,2022.2.5,MacIntel,29.41176471,right,1,0.55,0.25,13,0.03579168,0.213,167,0,167,0,1,,,,,
,,921090,001,2023-07-06_15h46.32.724,arm3_ET_builderv2,2022.2.5,MacIntel,29.41176471,right,1,0.55,0.25,13,0.060374762,0.263,168,0,168,0,1,,,,,
,,921090,001,2023-07-06_15h46.32.724,arm3_ET_builderv2,2022.2.5,MacIntel,29.41176471,up,-1,0.55,0.25,14,0,1.017,169,0,169,0,1,,,,,
,,921090,001,2023-07-06_15h46.32.724,arm3_ET_builderv2,2022.2.5,MacIntel,29.41176471,right,-1,0.55,0.25,14,-0.012036718,0.822,170,0,170,0,1,,,,,
,,921090,001,2023-07-06_15h46.32.724,arm3_ET_builderv2,2022.2.5,MacIntel,29.41176471,right,-1,0.55,0.25,14,-0.040077238,0.227,171,0,171,0,1,,,,,
,,921090,001,2023-07-06_15h46.32.724,arm3_ET_builderv2,2022.2.5,MacIntel,29.41176471,right,-1,0.55,0.25,14,-0.054357086,0.244,172,0,172,0,1,,,,,
,,921090,001,2023-07-06_15h46.32.724,arm3_ET_builderv2,2022.2.5,MacIntel,29.41176471,right,-1,0.55,0.25,14,-0.11049022,0.447,173,0,173,0,1,,,,,
,,921090,001,2023-07-06_15h46.32.724,arm3_ET_builderv2,2022.2.5,MacIntel,29.41176471,down,-1,0.55,0.25,15,0,1.583,174,0,174,0,1,,,,,
,,921090,001,2023-07-06_15h46.32.724,arm3_ET_builderv2,2022.2.5,MacIntel,29.41176471,right,-1,0.55,0.25,15,0.022737001,0.536,175,0,175,0,1,,,,,
,,921090,001,2023-07-06_15h46.32.724,arm3_ET_builderv2,2022.2.5,MacIntel,29.41176471,right,-1,0.55,0.25,15,0.026758669,0.438,176,0,176,0,1,,,,,
,,921090,001,2023-07-06_15h46.32.724,arm3_ET_builderv2,2022.2.5,MacIntel,29.41176471,right,-1,0.55,0.25,15,0.046756186,0.414,177,0,177,0,1,,,,,
,,921090,001,2023-07-06_15h46.32.724,arm3_ET_builderv2,2022.2.5,MacIntel,29.41176471,right,-1,0.55,0.25,15,0.040400213,0.376,178,0,178,0,1,,,,,
,,921090,001,2023-07-06_15h46.32.724,arm3_ET_builderv2,2022.2.5,MacIntel,29.41176471,up,-1,0.55,0.25,15,0,1.378,179,0,179,0,1,,,,,
,,921090,001,2023-07-06_15h46.32.724,arm3_ET_builderv2,2022.2.5,MacIntel,29.41176471,right,-1,0.55,0.25,15,-0.040724652,0.823,180,0,180,0,1,,,,,
,,921090,001,2023-07-06_15h46.32.724,arm3_ET_builderv2,2022.2.5,MacIntel,29.41176471,right,-1,0.55,0.25,15,-0.062840538,0.293,181,0,181,0,1,,,,,
,,921090,001,2023-07-06_15h46.32.724,arm3_ET_builderv2,2022.2.5,MacIntel,29.41176471,right,-1,0.55,0.25,15,-0.065284703,0.328,182,0,182,0,1,,,,,
,,921090,001,2023-07-06_15h46.32.724,arm3_ET_builderv2,2022.2.5,MacIntel,29.41176471,down,-1,0.55,0.25,16,0,1.353,183,0,183,0,1,,,,,
,,921090,001,2023-07-06_15h46.32.724,arm3_ET_builderv2,2022.2.5,MacIntel,29.41176471,right,-1,0.55,0.25,16,-0.012839577,0.643,184,0,184,0,1,,,,,
,,921090,001,2023-07-06_15h46.32.724,arm3_ET_builderv2,2022.2.5,MacIntel,29.41176471,right,-1,0.55,0.25,16,-0.017264781,0.274,185,0,185,0,1,,,,,
,,921090,001,2023-07-06_15h46.32.724,arm3_ET_builderv2,2022.2.5,MacIntel,29.41176471,right,-1,0.55,0.25,16,0.001177375,0.539,186,0,186,0,1,,,,,
,,921090,001,2023-07-06_15h46.32.724,arm3_ET_builderv2,2022.2.5,MacIntel,29.41176471,right,-1,0.55,0.25,16,-0.040038831,0.384,187,0,187,0,1,,,,,
,,921090,001,2023-07-06_15h46.32.724,arm3_ET_builderv2,2022.2.5,MacIntel,29.41176471,right,-1,0.55,0.25,16,-0.031862012,0.561,188,0,188,0,1,,,,,
,,921090,001,2023-07-06_15h46.32.724,arm3_ET_builderv2,2022.2.5,MacIntel,29.41176471,down,-1,0.55,0.25,17,0,0.653,189,0,189,0,1,,,,,
,,921090,001,2023-07-06_15h46.32.724,arm3_ET_builderv2,2022.2.5,MacIntel,29.41176471,right,-1,0.55,0.25,17,0.007951926,0.688,190,0,190,0,1,,,,,
,,921090,001,2023-07-06_15h46.32.724,arm3_ET_builderv2,2022.2.5,MacIntel,29.41176471,right,-1,0.55,0.25,17,-0.006056568,0.23,191,0,191,0,1,,,,,
,,921090,001,2023-07-06_15h46.32.724,arm3_ET_builderv2,2022.2.5,MacIntel,29.41176471,right,-1,0.55,0.25,17,-0.013732534,0.178,192,0,192,0,1,,,,,
,,921090,001,2023-07-06_15h46.32.724,arm3_ET_builderv2,2022.2.5,MacIntel,29.41176471,right,-1,0.55,0.25,17,-0.013603214,0.262,193,0,193,0,1,,,,,
,,921090,001,2023-07-06_15h46.32.724,arm3_ET_builderv2,2022.2.5,MacIntel,29.41176471,right,-1,0.55,0.25,17,-0.003820002,0.612,194,0,194,0,1,,,,,
,,921090,001,2023-07-06_15h46.32.724,arm3_ET_builderv2,2022.2.5,MacIntel,29.41176471,right,-1,0.55,0.25,17,-0.002899264,0.347,195,0,195,0,1,,,,,
,,921090,001,2023-07-06_15h46.32.724,arm3_ET_builderv2,2022.2.5,MacIntel,29.41176471,right,-1,0.55,0.25,17,-0.021065433,0.479,196,0,196,0,1,,,,,
,,921090,001,2023-07-06_15h46.32.724,arm3_ET_builderv2,2022.2.5,MacIntel,29.41176471,down,-1,0.55,0.25,18,0,0.444,197,0,197,0,1,,,,,
,,921090,001,2023-07-06_15h46.32.724,arm3_ET_builderv2,2022.2.5,MacIntel,29.41176471,right,-1,0.55,0.25,18,-0.017598252,0.578,198,0,198,0,1,,,,,
,,921090,001,2023-07-06_15h46.32.724,arm3_ET_builderv2,2022.2.5,MacIntel,29.41176471,right,-1,0.55,0.25,18,-0.04725117,0.242,199,0,199,0,1,,,,,
,,921090,001,2023-07-06_15h46.32.724,arm3_ET_builderv2,2022.2.5,MacIntel,29.41176471,right,-1,0.55,0.25,18,-0.05791467,0.211,200,0,200,0,1,,,,,
,,921090,001,2023-07-06_15h46.32.724,arm3_ET_builderv2,2022.2.5,MacIntel,29.41176471,down,-1,0.55,0.25,18,0,0.443,201,0,201,0,1,,,,,
,,921090,001,2023-07-06_15h46.32.724,arm3_ET_builderv2,2022.2.5,MacIntel,29.41176471,right,-1,0.55,0.25,18,-0.035173334,0.726,202,0,202,0,1,,,,,
,,921090,001,2023-07-06_15h46.32.724,arm3_ET_builderv2,2022.2.5,MacIntel,29.41176471,right,-1,0.55,0.25,18,-0.066500994,0.244,203,0,203,0,1,,,,,
,,921090,001,2023-07-06_15h46.32.724,arm3_ET_builderv2,2022.2.5,MacIntel,29.41176471,down,-1,0.55,0.25,19,0,0.347,204,0,204,0,1,,,,,
,,921090,001,2023-07-06_15h46.32.724,arm3_ET_builderv2,2022.2.5,MacIntel,29.41176471,right,-1,0.55,0.25,19,-0.015984132,0.777,205,0,205,0,1,,,,,
,,921090,001,2023-07-06_15h46.32.724,arm3_ET_builderv2,2022.2.5,MacIntel,29.41176471,right,-1,0.55,0.25,19,-0.066344994,0.315,206,0,206,0,1,,,,,
,,921090,001,2023-07-06_15h46.32.724,arm3_ET_builderv2,2022.2.5,MacIntel,29.41176471,right,-1,0.55,0.25,19,-0.064752187,0.427,207,0,207,0,1,,,,,
,,921090,001,2023-07-06_15h46.32.724,arm3_ET_builderv2,2022.2.5,MacIntel,29.41176471,right,-1,0.55,0.25,19,-0.071686772,0.353,208,0,208,0,1,,,,,
,,921090,001,2023-07-06_15h46.32.724,arm3_ET_builderv2,2022.2.5,MacIntel,29.41176471,down,-1,0.55,0.25,19,0,0.563,209,0,209,0,1,,,,,
,,921090,001,2023-07-06_15h46.32.724,arm3_ET_builderv2,2022.2.5,MacIntel,29.41176471,right,-1,0.55,0.25,19,-0.055351399,0.533,210,0,210,0,1,,,,,
,,921090,001,2023-07-06_15h46.32.724,arm3_ET_builderv2,2022.2.5,MacIntel,29.41176471,right,-1,0.55,0.25,19,-0.080146754,0.298,211,0,211,0,1,,,,,
,,921090,001,2023-07-06_15h46.32.724,arm3_ET_builderv2,2022.2.5,MacIntel,29.41176471,right,-1,0.55,0.25,19,-0.098006345,0.467,212,0,212,0,1,,,,,
,,921090,001,2023-07-06_15h46.32.724,arm3_ET_builderv2,2022.2.5,MacIntel,29.41176471,down,-1,0.55,0.25,20,0,0.32,213,0,213,0,1,,,,,
,,921090,001,2023-07-06_15h46.32.724,arm3_ET_builderv2,2022.2.5,MacIntel,29.41176471,right,-1,0.55,0.25,20,-0.031343678,0.787,214,0,214,0,1,,,,,
,,921090,001,2023-07-06_15h46.32.724,arm3_ET_builderv2,2022.2.5,MacIntel,29.41176471,right,-1,0.55,0.25,20,-0.024620455,0.311,215,0,215,0,1,,,,,
,,921090,001,2023-07-06_15h46.32.724,arm3_ET_builderv2,2022.2.5,MacIntel,29.41176471,right,-1,0.55,0.25,20,-0.036190729,0.38,216,0,216,0,1,,,,,
,,921090,001,2023-07-06_15h46.32.724,arm3_ET_builderv2,2022.2.5,MacIntel,29.41176471,right,-1,0.55,0.25,20,-0.05053366,0.294,217,0,217,0,1,,,,,
,,921090,001,2023-07-06_15h46.32.724,arm3_ET_builderv2,2022.2.5,MacIntel,29.41176471,down,-1,0.55,0.25,20,0,0.914,218,0,218,0,1,,,,,
,,921090,001,2023-07-06_15h46.32.724,arm3_ET_builderv2,2022.2.5,MacIntel,29.41176471,right,-1,0.55,0.25,20,0.014334209,0.666,219,0,219,0,1,,,,,
,,921090,001,2023-07-06_15h46.32.724,arm3_ET_builderv2,2022.2.5,MacIntel,29.41176471,right,-1,0.55,0.25,20,-0.015023339,0.355,220,0,220,0,1,,,,,
,,921090,001,2023-07-06_15h46.32.724,arm3_ET_builderv2,2022.2.5,MacIntel,29.41176471,right,-1,0.55,0.25,20,-0.029587516,0.294,221,0,221,0,1,,,,,
,,921090,001,2023-07-06_15h46.32.724,arm3_ET_builderv2,2022.2.5,MacIntel,29.41176471,right,-1,0.55,0.25,20,-0.036652918,0.28,222,0,222,0,1,,,,,
,,921090,001,2023-07-06_15h46.32.724,arm3_ET_builderv2,2022.2.5,MacIntel,29.41176471,right,-1,0.55,0.25,20,-0.052701206,0.263,223,0,223,0,1,,,,,
,,921090,001,2023-07-06_15h46.32.724,arm3_ET_builderv2,2022.2.5,MacIntel,29.41176471,down,-1,0.55,0.25,20,0,0.545,224,0,224,0,1,,,,,
,,921090,001,2023-07-06_15h46.32.724,arm3_ET_builderv2,2022.2.5,MacIntel,29.41176471,right,-1,0.55,0.25,20,0.05143604,0.605,225,0,225,0,1,,,,,
,,921090,001,2023-07-06_15h46.32.724,arm3_ET_builderv2,2022.2.5,MacIntel,29.41176471,right,-1,0.55,0.25,20,0.030408124,0.215,226,0,226,0,1,,,,,
,,921090,001,2023-07-06_15h46.32.724,arm3_ET_builderv2,2022.2.5,MacIntel,29.41176471,right,-1,0.55,0.25,20,-0.01489085,0.328,227,0,227,0,1,,,,,
,,921090,001,2023-07-06_15h46.32.724,arm3_ET_builderv2,2022.2.5,MacIntel,29.41176471,right,-1,0.55,0.25,20,-0.029466301,0.184,228,0,228,0,1,,,,,
,,921090,001,2023-07-06_15h46.32.724,arm3_ET_builderv2,2022.2.5,MacIntel,29.41176471,right,-1,0.55,0.25,20,-0.02845586,0.228,229,0,229,0,1,,,,,
,,921090,001,2023-07-06_15h46.32.724,arm3_ET_builderv2,2022.2.5,MacIntel,29.41176471,right,-1,0.55,0.25,20,-0.017381164,0.293,230,0,230,0,1,,,,,
,,921090,001,2023-07-06_15h46.32.724,arm3_ET_builderv2,2022.2.5,MacIntel,29.41176471,right,-1,0.55,0.25,20,-0.003940877,0.283,231,0,231,0,1,,,,,
,,921090,001,2023-07-06_15h46.32.724,arm3_ET_builderv2,2022.2.5,MacIntel,29.41176471,right,-1,0.55,0.25,20,0.00723892,0.318,232,0,232,0,1,,,,,
,,921090,001,2023-07-06_15h46.32.724,arm3_ET_builderv2,2022.2.5,MacIntel,29.41176471,right,-1,0.55,0.25,20,-0.044975747,0.577,233,0,233,0,1,,,,,
,,921090,001,2023-07-06_15h46.32.724,arm3_ET_builderv2,2022.2.5,MacIntel,29.41176471,right,-1,0.55,0.25,20,-0.054339416,0.293,234,0,234,0,1,,,,,
,,921090,001,2023-07-06_15h46.32.724,arm3_ET_builderv2,2022.2.5,MacIntel,29.41176471,down,-1,0.55,0.25,20,0,0.367,235,0,235,0,1,,,,,
,,921090,001,2023-07-06_15h46.32.724,arm3_ET_builderv2,2022.2.5,MacIntel,29.41176471,right,-1,0.55,0.25,20,0.018685674,0.561,236,0,236,0,1,,,,,
,,921090,001,2023-07-06_15h46.32.724,arm3_ET_builderv2,2022.2.5,MacIntel,29.41176471,right,-1,0.55,0.25,20,0.02676578,0.217,237,0,237,0,1,,,,,
,,921090,001,2023-07-06_15h46.32.724,arm3_ET_builderv2,2022.2.5,MacIntel,29.41176471,right,-1,0.55,0.25,20,0.006858554,0.211,238,0,238,0,1,,,,,
,,921090,001,2023-07-06_15h46.32.724,arm3_ET_builderv2,2022.2.5,MacIntel,29.41176471,right,-1,0.55,0.25,20,-0.02070866,0.234,239,0,239,0,1,,,,,
,,921090,001,2023-07-06_15h46.32.724,arm3_ET_builderv2,2022.2.5,MacIntel,29.41176471,right,-1,0.55,0.25,20,-0.056301025,0.24,240,0,240,0,1,,,,,
,,921090,001,2023-07-06_15h46.32.724,arm3_ET_builderv2,2022.2.5,MacIntel,29.41176471,right,-1,0.55,0.25,20,-0.095065693,0.295,241,0,241,0,1,,,,,
,,921090,001,2023-07-06_15h46.32.724,arm3_ET_builderv2,2022.2.5,MacIntel,29.41176471,down,-1,0.55,0.25,21,0,0.344,242,0,242,0,1,,,,,
,,921090,001,2023-07-06_15h46.32.724,arm3_ET_builderv2,2022.2.5,MacIntel,29.41176471,right,-1,0.55,0.25,21,-0.019623537,0.757,243,0,243,0,1,,,,,
,,921090,001,2023-07-06_15h46.32.724,arm3_ET_builderv2,2022.2.5,MacIntel,29.41176471,right,-1,0.55,0.25,21,-0.013545175,0.209,244,0,244,0,1,,,,,
,,921090,001,2023-07-06_15h46.32.724,arm3_ET_builderv2,2022.2.5,MacIntel,29.41176471,right,-1,0.55,0.25,21,-0.024233537,0.26,245,0,245,0,1,,,,,
,,921090,001,2023-07-06_15h46.32.724,arm3_ET_builderv2,2022.2.5,MacIntel,29.41176471,right,-1,0.55,0.25,21,-0.033571288,0.226,246,0,246,0,1,,,,,
,,921090,001,2023-07-06_15h46.32.724,arm3_ET_builderv2,2022.2.5,MacIntel,29.41176471,right,-1,0.55,0.25,21,-0.032083166,0.344,247,0,247,0,1,,,,,
,,921090,001,2023-07-06_15h46.32.724,arm3_ET_builderv2,2022.2.5,MacIntel,29.41176471,right,-1,0.55,0.25,21,-0.071322431,0.293,248,0,248,0,1,,,,,
,,921090,001,2023-07-06_15h46.32.724,arm3_ET_builderv2,2022.2.5,MacIntel,29.41176471,right,-1,0.55,0.25,21,-0.063667327,0.292,249,0,249,0,1,,,,,
,,921090,001,2023-07-06_15h46.32.724,arm3_ET_builderv2,2022.2.5,MacIntel,29.41176471,right,-1,0.55,0.25,21,-0.031368017,0.495,250,0,250,0,1,,,,,
,,921090,001,2023-07-06_15h46.32.724,arm3_ET_builderv2,2022.2.5,MacIntel,29.41176471,right,-1,0.55,0.25,21,-0.075443675,0.448,251,0,251,0,1,,,,,
,,921090,001,2023-07-06_15h46.32.724,arm3_ET_builderv2,2022.2.5,MacIntel,29.41176471,right,-1,0.55,0.25,21,-0.063080019,0.404,252,0,252,0,1,,,,,
,,921090,001,2023-07-06_15h46.32.724,arm3_ET_builderv2,2022.2.5,MacIntel,29.41176471,down,1,0.55,0.25,21,0,0.351,253,0,253,0,1,,,,,
,,921090,001,2023-07-06_15h46.32.724,arm3_ET_builderv2,2022.2.5,MacIntel,29.41176471,right,1,0.55,0.25,21,-0.025292545,0.566,254,0,254,0,1,,,,,
,,921090,001,2023-07-06_15h46.32.724,arm3_ET_builderv2,2022.2.5,MacIntel,29.41176471,right,1,0.55,0.25,21,-0.027722466,0.182,255,0,255,0,1,,,,,
,,921090,001,2023-07-06_15h46.32.724,arm3_ET_builderv2,2022.2.5,MacIntel,29.41176471,right,1,0.55,0.25,21,-0.020709535,0.195,256,0,256,0,1,,,,,
,,921090,001,2023-07-06_15h46.32.724,arm3_ET_builderv2,2022.2.5,MacIntel,29.41176471,right,1,0.55,0.25,21,-0.044691588,0.31,257,0,257,0,1,,,,,
,,921090,001,2023-07-06_15h46.32.724,arm3_ET_builderv2,2022.2.5,MacIntel,29.41176471,right,1,0.55,0.25,21,-0.013115664,0.308,258,0,258,0,1,,,,,
,,921090,001,2023-07-06_15h46.32.724,arm3_ET_builderv2,2022.2.5,MacIntel,29.41176471,right,1,0.55,0.25,21,-0.006587793,0.444,259,0,259,0,1,,,,,
,,921090,001,2023-07-06_15h46.32.724,arm3_ET_builderv2,2022.2.5,MacIntel,29.41176471,right,1,0.55,0.25,21,0.017958933,0.43,260,0,260,0,1,,,,,
,,921090,001,2023-07-06_15h46.32.724,arm3_ET_builderv2,2022.2.5,MacIntel,29.41176471,right,1,0.55,0.25,21,0.053567596,0.276,261,0,261,0,1,,,,,
,,921090,001,2023-07-06_15h46.32.724,arm3_ET_builderv2,2022.2.5,MacIntel,29.41176471,up,1,0.55,0.25,22,0,0.634,262,0,262,0,1,,,,,
,,921090,001,2023-07-06_15h46.32.724,arm3_ET_builderv2,2022.2.5,MacIntel,29.41176471,right,1,0.55,0.25,22,0.067235925,0.695,263,0,263,0,1,,,,,
,,921090,001,2023-07-06_15h46.32.724,arm3_ET_builderv2,2022.2.5,MacIntel,29.41176471,right,1,0.55,0.25,22,0.070048815,0.31,264,0,264,0,1,,,,,
,,921090,001,2023-07-06_15h46.32.724,arm3_ET_builderv2,2022.2.5,MacIntel,29.41176471,right,1,0.55,0.25,22,0.063846034,0.443,265,0,265,0,1,,,,,
,,921090,001,2023-07-06_15h46.32.724,arm3_ET_builderv2,2022.2.5,MacIntel,29.41176471,right,1,0.55,0.25,22,0.075743885,0.387,266,0,266,0,1,,,,,
,,921090,001,2023-07-06_15h46.32.724,arm3_ET_builderv2,2022.2.5,MacIntel,29.41176471,up,-1,0.55,0.25,22,0,0.414,267,0,267,0,1,,,,,
,,921090,001,2023-07-06_15h46.32.724,arm3_ET_builderv2,2022.2.5,MacIntel,29.41176471,right,-1,0.55,0.25,22,0.016326981,0.708,268,0,268,0,1,,,,,
,,921090,001,2023-07-06_15h46.32.724,arm3_ET_builderv2,2022.2.5,MacIntel,29.41176471,right,-1,0.55,0.25,22,-0.002741072,0.408,269,0,269,0,1,,,,,
,,921090,001,2023-07-06_15h46.32.724,arm3_ET_builderv2,2022.2.5,MacIntel,29.41176471,right,-1,0.55,0.25,22,0.004185251,0.28,270,0,270,0,1,,,,,
,,921090,001,2023-07-06_15h46.32.724,arm3_ET_builderv2,2022.2.5,MacIntel,29.41176471,right,-1,0.55,0.25,22,-0.029498459,0.434,271,0,271,0,1,,,,,
,,921090,001,2023-07-06_15h46.32.724,arm3_ET_builderv2,2022.2.5,MacIntel,29.41176471,right,-1,0.55,0.25,22,-0.050548188,0.316,272,0,272,0,1,,,,,
,,921090,001,2023-07-06_15h46.32.724,arm3_ET_builderv2,2022.2.5,MacIntel,29.41176471,right,-1,0.55,0.25,22,-0.067054938,0.261,273,0,273,0,1,,,,,
,,921090,001,2023-07-06_15h46.32.724,arm3_ET_builderv2,2022.2.5,MacIntel,29.41176471,right,-1,0.55,0.25,22,-0.070672556,0.311,274,0,274,0,1,,,,,
,,921090,001,2023-07-06_15h46.32.724,arm3_ET_builderv2,2022.2.5,MacIntel,29.41176471,down,-1,0.55,0.25,22,0,0.427,275,0,275,0,1,,,,,
,,921090,001,2023-07-06_15h46.32.724,arm3_ET_builderv2,2022.2.5,MacIntel,29.41176471,right,-1,0.55,0.25,22,0.004076628,0.533,276,0,276,0,1,,,,,
,,921090,001,2023-07-06_15h46.32.724,arm3_ET_builderv2,2022.2.5,MacIntel,29.41176471,right,-1,0.55,0.25,22,-0.009012016,0.346,277,0,277,0,1,,,,,
,,921090,001,2023-07-06_15h46.32.724,arm3_ET_builderv2,2022.2.5,MacIntel,29.41176471,right,-1,0.55,0.25,22,-0.029675687,0.241,278,0,278,0,1,,,,,
,,921090,001,2023-07-06_15h46.32.724,arm3_ET_builderv2,2022.2.5,MacIntel,29.41176471,down,1,0.55,0.25,23,0,0.762,279,0,279,0,1,,,,,
,,921090,001,2023-07-06_15h46.32.724,arm3_ET_builderv2,2022.2.5,MacIntel,29.41176471,right,1,0.55,0.25,23,0.024629058,0.724,280,0,280,0,1,,,,,
,,921090,001,2023-07-06_15h46.32.724,arm3_ET_builderv2,2022.2.5,MacIntel,29.41176471,right,1,0.55,0.25,23,0.001230444,0.359,281,0,281,0,1,,,,,
,,921090,001,2023-07-06_15h46.32.724,arm3_ET_builderv2,2022.2.5,MacIntel,29.41176471,right,1,0.55,0.25,23,-0.007865946,0.182,282,0,282,0,1,,,,,
,,921090,001,2023-07-06_15h46.32.724,arm3_ET_builderv2,2022.2.5,MacIntel,29.41176471,right,1,0.55,0.25,23,0.027286604,0.418,283,0,283,0,1,,,,,
,,921090,001,2023-07-06_15h46.32.724,arm3_ET_builderv2,2022.2.5,MacIntel,29.41176471,right,1,0.55,0.25,23,0.023987871,0.266,284,0,284,0,1,,,,,
,,921090,001,2023-07-06_15h46.32.724,arm3_ET_builderv2,2022.2.5,MacIntel,29.41176471,right,1,0.55,0.25,23,0.014814918,0.397,285,0,285,0,1,,,,,
,,921090,001,2023-07-06_15h46.32.724,arm3_ET_builderv2,2022.2.5,MacIntel,29.41176471,right,1,0.55,0.25,23,0.007705312,0.385,286,0,286,0,1,,,,,
,,921090,001,2023-07-06_15h46.32.724,arm3_ET_builderv2,2022.2.5,MacIntel,29.41176471,right,1,0.55,0.25,23,-0.000883559,1.142,287,0,287,0,1,,,,,
,,921090,001,2023-07-06_15h46.32.724,arm3_ET_builderv2,2022.2.5,MacIntel,29.41176471,right,1,0.55,0.25,23,0.010300546,0.474,288,0,288,0,1,,,,,
,,921090,001,2023-07-06_15h46.32.724,arm3_ET_builderv2,2022.2.5,MacIntel,29.41176471,right,1,0.55,0.25,23,0.001047163,0.384,289,0,289,0,1,,,,,
,,921090,001,2023-07-06_15h46.32.724,arm3_ET_builderv2,2022.2.5,MacIntel,29.41176471,up,-1,0.55,0.25,24,0,0.478,290,0,290,0,1,,,,,
,,921090,001,2023-07-06_15h46.32.724,arm3_ET_builderv2,2022.2.5,MacIntel,29.41176471,right,-1,0.55,0.25,24,-0.014014041,0.868,291,0,291,0,1,,,,,
,,921090,001,2023-07-06_15h46.32.724,arm3_ET_builderv2,2022.2.5,MacIntel,29.41176471,right,-1,0.55,0.25,24,-0.036362904,0.26,292,0,292,0,1,,,,,
,,921090,001,2023-07-06_15h46.32.724,arm3_ET_builderv2,2022.2.5,MacIntel,29.41176471,right,-1,0.55,0.25,24,-0.04997698,0.242,293,0,293,0,1,,,,,
,,921090,001,2023-07-06_15h46.32.724,arm3_ET_builderv2,2022.2.5,MacIntel,29.41176471,right,-1,0.55,0.25,24,-0.048342058,0.748,294,0,294,0,1,,,,,
,,921090,001,2023-07-06_15h46.32.724,arm3_ET_builderv2,2022.2.5,MacIntel,29.41176471,right,-1,0.55,0.25,24,-0.076426806,0.475,295,0,295,0,1,,,,,
,,921090,001,2023-07-06_15h46.32.724,arm3_ET_builderv2,2022.2.5,MacIntel,29.41176471,down,-1,0.55,0.25,25,0,0.921,296,0,296,0,1,,,,,
,,921090,001,2023-07-06_15h46.32.724,arm3_ET_builderv2,2022.2.5,MacIntel,29.41176471,right,-1,0.55,0.25,25,-0.003674801,0.644,297,0,297,0,1,,,,,
,,921090,001,2023-07-06_15h46.32.724,arm3_ET_builderv2,2022.2.5,MacIntel,29.41176471,right,-1,0.55,0.25,25,-0.028165352,0.318,298,0,298,0,1,,,,,
,,921090,001,2023-07-06_15h46.32.724,arm3_ET_builderv2,2022.2.5,MacIntel,29.41176471,right,-1,0.55,0.25,25,-0.018837728,0.513,299,0,299,0,1,,,,,
,,921090,001,2023-07-06_15h46.32.724,arm3_ET_builderv2,2022.2.5,MacIntel,29.41176471,right,-1,0.55,0.25,25,-0.026644691,1.252,300,0,300,0,1,,,,,
,,921090,001,2023-07-06_15h46.32.724,arm3_ET_builderv2,2022.2.5,MacIntel,29.41176471,right,-1,0.55,0.25,25,-0.028238765,0.377,301,0,301,0,1,,,,,
,,921090,001,2023-07-06_15h46.32.724,arm3_ET_builderv2,2022.2.5,MacIntel,29.41176471,down,-1,0.55,0.25,26,0,0.5,302,0,302,0,1,,,,,
,,921090,001,2023-07-06_15h46.32.724,arm3_ET_builderv2,2022.2.5,MacIntel,29.41176471,right,-1,0.55,0.25,26,-0.016289573,0.744,303,0,303,0,1,,,,,
,,921090,001,2023-07-06_15h46.32.724,arm3_ET_builderv2,2022.2.5,MacIntel,29.41176471,right,-1,0.55,0.25,26,-0.037134402,0.243,304,0,304,0,1,,,,,
,,921090,001,2023-07-06_15h46.32.724,arm3_ET_builderv2,2022.2.5,MacIntel,29.41176471,right,-1,0.55,0.25,26,-0.051804993,0.228,305,0,305,0,1,,,,,
,,921090,001,2023-07-06_15h46.32.724,arm3_ET_builderv2,2022.2.5,MacIntel,29.41176471,right,-1,0.55,0.25,26,-0.051259201,0.549,306,0,306,0,1,,,,,
,,921090,001,2023-07-06_15h46.32.724,arm3_ET_builderv2,2022.2.5,MacIntel,29.41176471,right,-1,0.55,0.25,26,-0.025890526,0.618,307,0,307,0,1,,,,,
,,921090,001,2023-07-06_15h46.32.724,arm3_ET_builderv2,2022.2.5,MacIntel,29.41176471,right,-1,0.55,0.25,26,-0.040888711,0.614,308,0,308,0,1,,,,,
,,921090,001,2023-07-06_15h46.32.724,arm3_ET_builderv2,2022.2.5,MacIntel,29.41176471,down,1,0.55,0.25,26,0,0.22,309,0,309,0,1,,,,,
,,921090,001,2023-07-06_15h46.32.724,arm3_ET_builderv2,2022.2.5,MacIntel,29.41176471,right,1,0.55,0.25,26,0.021787418,0.599,310,0,310,0,1,,,,,
,,921090,001,2023-07-06_15h46.32.724,arm3_ET_builderv2,2022.2.5,MacIntel,29.41176471,right,1,0.55,0.25,26,0.040545912,0.231,311,0,311,0,1,,,,,
,,921090,001,2023-07-06_15h46.32.724,arm3_ET_builderv2,2022.2.5,MacIntel,29.41176471,up,-1,0.55,0.25,27,0,0.595,312,0,312,0,1,,,,,
,,921090,001,2023-07-06_15h46.32.724,arm3_ET_builderv2,2022.2.5,MacIntel,29.41176471,right,-1,0.55,0.25,27,-0.020383955,0.784,313,0,313,0,1,,,,,
,,921090,001,2023-07-06_15h46.32.724,arm3_ET_builderv2,2022.2.5,MacIntel,29.41176471,right,-1,0.55,0.25,27,-0.021446782,0.429,314,0,314,0,1,,,,,
,,921090,001,2023-07-06_15h46.32.724,arm3_ET_builderv2,2022.2.5,MacIntel,29.41176471,right,-1,0.55,0.25,27,-0.008231269,0.683,315,0,315,0,1,,,,,
,,921090,001,2023-07-06_15h46.32.724,arm3_ET_builderv2,2022.2.5,MacIntel,29.41176471,right,-1,0.55,0.25,27,-0.043146866,1.521,316,0,316,0,1,,,,,
,,921090,001,2023-07-06_15h46.32.724,arm3_ET_builderv2,2022.2.5,MacIntel,29.41176471,down,-1,0.55,0.25,28,0,0.395,317,0,317,0,1,,,,,
,,921090,001,2023-07-06_15h46.32.724,arm3_ET_builderv2,2022.2.5,MacIntel,29.41176471,right,-1,0.55,0.25,28,-0.001125777,0.679,318,0,318,0,1,,,,,
,,921090,001,2023-07-06_15h46.32.724,arm3_ET_builderv2,2022.2.5,MacIntel,29.41176471,right,-1,0.55,0.25,28,0.005632031,0.248,319,0,319,0,1,,,,,
,,921090,001,2023-07-06_15h46.32.724,arm3_ET_builderv2,2022.2.5,MacIntel,29.41176471,right,-1,0.55,0.25,28,-0.026512112,0.309,320,0,320,0,1,,,,,
,,921090,001,2023-07-06_15h46.32.724,arm3_ET_builderv2,2022.2.5,MacIntel,29.41176471,right,-1,0.55,0.25,28,-0.040727764,0.246,321,0,321,0,1,,,,,
,,921090,001,2023-07-06_15h46.32.724,arm3_ET_builderv2,2022.2.5,MacIntel,29.41176471,down,-1,0.55,0.25,28,0,1.244,322,0,322,0,1,,,,,
,,921090,001,2023-07-06_15h46.32.724,arm3_ET_builderv2,2022.2.5,MacIntel,29.41176471,right,-1,0.55,0.25,28,-0.003254705,0.767,323,0,323,0,1,,,,,
,,921090,001,2023-07-06_15h46.32.724,arm3_ET_builderv2,2022.2.5,MacIntel,29.41176471,right,-1,0.55,0.25,28,-0.025660563,0.262,324,0,324,0,1,,,,,
,,921090,001,2023-07-06_15h46.32.724,arm3_ET_builderv2,2022.2.5,MacIntel,29.41176471,right,-1,0.55,0.25,28,-0.029772279,0.201,325,0,325,0,1,,,,,
,,921090,001,2023-07-06_15h46.32.724,arm3_ET_builderv2,2022.2.5,MacIntel,29.41176471,right,-1,0.55,0.25,28,-0.025568868,0.243,326,0,326,0,1,,,,,
,,921090,001,2023-07-06_15h46.32.724,arm3_ET_builderv2,2022.2.5,MacIntel,29.41176471,right,-1,0.55,0.25,28,-0.036529012,0.343,327,0,327,0,1,,,,,
,,921090,001,2023-07-06_15h46.32.724,arm3_ET_builderv2,2022.2.5,MacIntel,29.41176471,right,-1,0.55,0.25,28,-0.023619024,0.509,328,0,328,0,1,,,,,
,,921090,001,2023-07-06_15h46.32.724,arm3_ET_builderv2,2022.2.5,MacIntel,29.41176471,right,-1,0.55,0.25,28,-0.050092536,0.363,329,0,329,0,1,,,,,
,,921090,001,2023-07-06_15h46.32.724,arm3_ET_builderv2,2022.2.5,MacIntel,29.41176471,down,-1,0.55,0.25,28,0,0.778,330,0,330,0,1,,,,,
,,921090,001,2023-07-06_15h46.32.724,arm3_ET_builderv2,2022.2.5,MacIntel,29.41176471,right,-1,0.55,0.25,28,0.007663107,0.581,331,0,331,0,1,,,,,
,,921090,001,2023-07-06_15h46.32.724,arm3_ET_builderv2,2022.2.5,MacIntel,29.41176471,right,-1,0.55,0.25,28,0.002548806,0.261,332,0,332,0,1,,,,,
,,921090,001,2023-07-06_15h46.32.724,arm3_ET_builderv2,2022.2.5,MacIntel,29.41176471,right,-1,0.55,0.25,28,0.014128498,0.284,333,0,333,0,1,,,,,
,,921090,001,2023-07-06_15h46.32.724,arm3_ET_builderv2,2022.2.5,MacIntel,29.41176471,right,-1,0.55,0.25,28,0.004676159,0.299,334,0,334,0,1,,,,,
,,921090,001,2023-07-06_15h46.32.724,arm3_ET_builderv2,2022.2.5,MacIntel,29.41176471,right,-1,0.55,0.25,28,0.026538383,0.517,335,0,335,0,1,,,,,
,,921090,001,2023-07-06_15h46.32.724,arm3_ET_builderv2,2022.2.5,MacIntel,29.41176471,up,-1,0.55,0.25,28,0,0.381,336,0,336,0,1,,,,,
,,921090,001,2023-07-06_15h46.32.724,arm3_ET_builderv2,2022.2.5,MacIntel,29.41176471,right,-1,0.55,0.25,28,-0.006918976,0.778,337,0,337,0,1,,,,,
,,921090,001,2023-07-06_15h46.32.724,arm3_ET_builderv2,2022.2.5,MacIntel,29.41176471,right,-1,0.55,0.25,28,0.001545361,0.274,338,0,338,0,1,,,,,
,,921090,001,2023-07-06_15h46.32.724,arm3_ET_builderv2,2022.2.5,MacIntel,29.41176471,right,-1,0.55,0.25,28,-0.045763711,0.251,339,0,339,0,1,,,,,
,,921090,001,2023-07-06_15h46.32.724,arm3_ET_builderv2,2022.2.5,MacIntel,29.41176471,right,-1,0.55,0.25,28,-0.066576976,0.4,340,0,340,0,1,,,,,
,,921090,001,2023-07-06_15h46.32.724,arm3_ET_builderv2,2022.2.5,MacIntel,29.41176471,right,-1,0.55,0.25,28,-0.080721031,0.675,341,0,341,0,1,,,,,
,,921090,001,2023-07-06_15h46.32.724,arm3_ET_builderv2,2022.2.5,MacIntel,29.41176471,down,-1,0.55,0.25,28,0,0.811,342,0,342,0,1,,,,,
,,921090,001,2023-07-06_15h46.32.724,arm3_ET_builderv2,2022.2.5,MacIntel,29.41176471,right,-1,0.55,0.25,28,0.013386962,0.644,343,0,343,0,1,,,,,
,,921090,001,2023-07-06_15h46.32.724,arm3_ET_builderv2,2022.2.5,MacIntel,29.41176471,right,-1,0.55,0.25,28,-0.002620802,0.242,344,0,344,0,1,,,,,
,,921090,001,2023-07-06_15h46.32.724,arm3_ET_builderv2,2022.2.5,MacIntel,29.41176471,right,-1,0.55,0.25,28,-0.027223094,0.261,345,0,345,0,1,,,,,
,,921090,001,2023-07-06_15h46.32.724,arm3_ET_builderv2,2022.2.5,MacIntel,29.41176471,right,-1,0.55,0.25,28,-0.043943157,0.454,346,0,346,0,1,,,,,
,,921090,001,2023-07-06_15h46.32.724,arm3_ET_builderv2,2022.2.5,MacIntel,29.41176471,down,1,0.55,0.25,28,0,0.327,347,0,347,0,1,,,,,
,,921090,001,2023-07-06_15h46.32.724,arm3_ET_builderv2,2022.2.5,MacIntel,29.41176471,right,1,0.55,0.25,28,0.023652796,0.534,348,0,348,0,1,,,,,
,,921090,001,2023-07-06_15h46.32.724,arm3_ET_builderv2,2022.2.5,MacIntel,29.41176471,right,1,0.55,0.25,28,0.030587079,0.245,349,0,349,0,1,,,,,
,,921090,001,2023-07-06_15h46.32.724,arm3_ET_builderv2,2022.2.5,MacIntel,29.41176471,right,1,0.55,0.25,28,0.058894737,0.383,350,0,350,0,1,,,,,
,,921090,001,2023-07-06_15h46.32.724,arm3_ET_builderv2,2022.2.5,MacIntel,29.41176471,right,1,0.55,0.25,28,0.051475578,0.396,351,0,351,0,1,,,,,
,,921090,001,2023-07-06_15h46.32.724,arm3_ET_builderv2,2022.2.5,MacIntel,29.41176471,up,-1,0.55,0.25,29,0,0.311,352,0,352,0,1,,,,,
,,921090,001,2023-07-06_15h46.32.724,arm3_ET_builderv2,2022.2.5,MacIntel,29.41176471,right,-1,0.55,0.25,29,-0.029516277,0.725,353,0,353,0,1,,,,,
,,921090,001,2023-07-06_15h46.32.724,arm3_ET_builderv2,2022.2.5,MacIntel,29.41176471,right,-1,0.55,0.25,29,-0.051503267,0.322,354,0,354,0,1,,,,,
,,921090,001,2023-07-06_15h46.32.724,arm3_ET_builderv2,2022.2.5,MacIntel,29.41176471,down,1,0.55,0.25,29,0,0.827,355,0,355,0,1,,,,,
,,921090,001,2023-07-06_15h46.32.724,arm3_ET_builderv2,2022.2.5,MacIntel,29.41176471,right,1,0.55,0.25,29,-0.00697802,0.583,356,0,356,0,1,,,,,
,,921090,001,2023-07-06_15h46.32.724,arm3_ET_builderv2,2022.2.5,MacIntel,29.41176471,right,1,0.55,0.25,29,-0.009934478,0.279,357,0,357,0,1,,,,,
,,921090,001,2023-07-06_15h46.32.724,arm3_ET_builderv2,2022.2.5,MacIntel,29.41176471,right,1,0.55,0.25,29,0.004486915,0.684,358,0,358,0,1,,,,,
,,921090,001,2023-07-06_15h46.32.724,arm3_ET_builderv2,2022.2.5,MacIntel,29.41176471,right,1,0.55,0.25,29,0.020555725,0.48,359,0,359,0,1,,,,,
,,921090,001,2023-07-06_15h46.32.724,arm3_ET_builderv2,2022.2.5,MacIntel,29.41176471,right,1,0.55,0.25,29,0.01939948,0.515,360,0,360,0,1,,,,,
,,921090,001,2023-07-06_15h46.32.724,arm3_ET_builderv2,2022.2.5,MacIntel,29.41176471,right,1,0.55,0.25,29,0.027055386,0.517,361,0,361,0,1,,,,,
,,921090,001,2023-07-06_15h46.32.724,arm3_ET_builderv2,2022.2.5,MacIntel,29.41176471,right,1,0.55,0.25,29,0.02239693,0.663,362,0,362,0,1,,,,,
,,921090,001,2023-07-06_15h46.32.724,arm3_ET_builderv2,2022.2.5,MacIntel,29.41176471,up,1,0.55,0.25,29,0,0.579,363,0,363,0,1,,,,,
,,921090,001,2023-07-06_15h46.32.724,arm3_ET_builderv2,2022.2.5,MacIntel,29.41176471,right,1,0.55,0.25,29,-0.024384506,0.657,364,0,364,0,1,,,,,
,,921090,001,2023-07-06_15h46.32.724,arm3_ET_builderv2,2022.2.5,MacIntel,29.41176471,right,1,0.55,0.25,29,-0.015592652,0.253,365,0,365,0,1,,,,,
,,921090,001,2023-07-06_15h46.32.724,arm3_ET_builderv2,2022.2.5,MacIntel,29.41176471,right,1,0.55,0.25,29,0.009268634,0.235,366,0,366,0,1,,,,,
,,921090,001,2023-07-06_15h46.32.724,arm3_ET_builderv2,2022.2.5,MacIntel,29.41176471,right,1,0.55,0.25,29,-0.011545706,0.253,367,0,367,0,1,,,,,
,,921090,001,2023-07-06_15h46.32.724,arm3_ET_builderv2,2022.2.5,MacIntel,29.41176471,right,1,0.55,0.25,29,0.000109228,0.336,368,0,368,0,1,,,,,
,,921090,001,2023-07-06_15h46.32.724,arm3_ET_builderv2,2022.2.5,MacIntel,29.41176471,right,1,0.55,0.25,29,0.017138013,0.269,369,0,369,0,1,,,,,
,,921090,001,2023-07-06_15h46.32.724,arm3_ET_builderv2,2022.2.5,MacIntel,29.41176471,right,1,0.55,0.25,29,0.025801595,0.43,370,0,370,0,1,,,,,
,,921090,001,2023-07-06_15h46.32.724,arm3_ET_builderv2,2022.2.5,MacIntel,29.41176471,right,1,0.55,0.25,29,0.020341753,0.476,371,0,371,0,1,,,,,
,,921090,001,2023-07-06_15h46.32.724,arm3_ET_builderv2,2022.2.5,MacIntel,29.41176471,up,1,0.55,0.25,29,0,2.309,372,0,372,0,1,,,,,
,,921090,001,2023-07-06_15h46.32.724,arm3_ET_builderv2,2022.2.5,MacIntel,29.41176471,right,1,0.55,0.25,29,0.030875387,0.593,373,0,373,0,1,,,,,
,,921090,001,2023-07-06_15h46.32.724,arm3_ET_builderv2,2022.2.5,MacIntel,29.41176471,right,1,0.55,0.25,29,0.033818419,0.202,374,0,374,0,1,,,,,
,,921090,001,2023-07-06_15h46.32.724,arm3_ET_builderv2,2022.2.5,MacIntel,29.41176471,right,1,0.55,0.25,29,0.018792835,0.228,375,0,375,0,1,,,,,
,,921090,001,2023-07-06_15h46.32.724,arm3_ET_builderv2,2022.2.5,MacIntel,29.41176471,right,1,0.55,0.25,29,0.055815467,0.25,376,0,376,0,1,,,,,
,,921090,001,2023-07-06_15h46.32.724,arm3_ET_builderv2,2022.2.5,MacIntel,29.41176471,right,1,0.55,0.25,29,0.097691954,0.366,377,0,377,0,1,,,,,
,,921090,001,2023-07-06_15h46.32.724,arm3_ET_builderv2,2022.2.5,MacIntel,29.41176471,up,-1,0.55,0.25,29,0,2.8,378,0,378,0,1,,,,,
,,921090,001,2023-07-06_15h46.32.724,arm3_ET_builderv2,2022.2.5,MacIntel,29.41176471,right,-1,0.55,0.25,29,0.00860111,0.627,379,0,379,0,1,,,,,
,,921090,001,2023-07-06_15h46.32.724,arm3_ET_builderv2,2022.2.5,MacIntel,29.41176471,right,-1,0.55,0.25,29,-0.021406045,0.26,380,0,380,0,1,,,,,
,,921090,001,2023-07-06_15h46.32.724,arm3_ET_builderv2,2022.2.5,MacIntel,29.41176471,right,-1,0.55,0.25,29,-0.019167662,0.311,381,0,381,0,1,,,,,
,,921090,001,2023-07-06_15h46.32.724,arm3_ET_builderv2,2022.2.5,MacIntel,29.41176471,right,-1,0.55,0.25,29,-0.018748886,0.334,382,0,382,0,1,,,,,
,,921090,001,2023-07-06_15h46.32.724,arm3_ET_builderv2,2022.2.5,MacIntel,29.41176471,right,-1,0.55,0.25,29,-0.046826721,0.6,383,0,383,0,1,,,,,
,,921090,001,2023-07-06_15h46.32.724,arm3_ET_builderv2,2022.2.5,MacIntel,29.41176471,down,-1,0.55,0.25,29,0,1.444,384,0,384,0,1,,,,,
,,921090,001,2023-07-06_15h46.32.724,arm3_ET_builderv2,2022.2.5,MacIntel,29.41176471,right,-1,0.55,0.25,29,-0.01819455,0.65,385,0,385,0,1,,,,,
,,921090,001,2023-07-06_15h46.32.724,arm3_ET_builderv2,2022.2.5,MacIntel,29.41176471,right,-1,0.55,0.25,29,-0.040618888,0.264,386,0,386,0,1,,,,,
,,921090,001,2023-07-06_15h46.32.724,arm3_ET_builderv2,2022.2.5,MacIntel,29.41176471,right,-1,0.55,0.25,29,-0.056866384,0.206,387,0,387,0,1,,,,,
,,921090,001,2023-07-06_15h46.32.724,arm3_ET_builderv2,2022.2.5,MacIntel,29.41176471,right,-1,0.55,0.25,29,-0.08719833,0.443,388,0,388,0,1,,,,,
,,921090,001,2023-07-06_15h46.32.724,arm3_ET_builderv2,2022.2.5,MacIntel,29.41176471,down,1,0.55,0.25,29,0,0.278,389,0,389,0,1,,,,,
,,921090,001,2023-07-06_15h46.32.724,arm3_ET_builderv2,2022.2.5,MacIntel,29.41176471,right,1,0.55,0.25,29,0.019054902,0.678,390,0,390,0,1,,,,,
,,921090,001,2023-07-06_15h46.32.724,arm3_ET_builderv2,2022.2.5,MacIntel,29.41176471,right,1,0.55,0.25,29,0.048318964,0.295,391,0,391,0,1,,,,,
,,921090,001,2023-07-06_15h46.32.724,arm3_ET_builderv2,2022.2.5,MacIntel,29.41176471,right,1,0.55,0.25,29,0.058351171,0.282,392,0,392,0,1,,,,,
,,921090,001,2023-07-06_15h46.32.724,arm3_ET_builderv2,2022.2.5,MacIntel,29.41176471,right,1,0.55,0.25,29,0.041113282,0.608,393,0,393,0,1,,,,,
,,921090,001,2023-07-06_15h46.32.724,arm3_ET_builderv2,2022.2.5,MacIntel,29.41176471,right,1,0.55,0.25,29,0.048670608,0.379,394,0,394,0,1,,,,,
,,921090,001,2023-07-06_15h46.32.724,arm3_ET_builderv2,2022.2.5,MacIntel,29.41176471,right,1,0.55,0.25,29,0.055633718,0.782,395,0,395,0,1,,,,,
,,921090,001,2023-07-06_15h46.32.724,arm3_ET_builderv2,2022.2.5,MacIntel,29.41176471,up,1,0.55,0.25,29,0,0.397,396,0,396,0,1,,,,,
,,921090,001,2023-07-06_15h46.32.724,arm3_ET_builderv2,2022.2.5,MacIntel,29.41176471,right,1,0.55,0.25,29,0.001019952,0.612,397,0,397,0,1,,,,,
,,921090,001,2023-07-06_15h46.32.724,arm3_ET_builderv2,2022.2.5,MacIntel,29.41176471,right,1,0.55,0.25,29,-0.023253471,0.21,398,0,398,0,1,,,,,
,,921090,001,2023-07-06_15h46.32.724,arm3_ET_builderv2,2022.2.5,MacIntel,29.41176471,right,1,0.55,0.25,29,-0.027162414,0.227,399,0,399,0,1,,,,,
,,921090,001,2023-07-06_15h46.32.724,arm3_ET_builderv2,2022.2.5,MacIntel,29.41176471,right,1,0.55,0.25,29,-0.047972561,0.248,400,0,400,0,1,,,,,
,,921090,001,2023-07-06_15h46.32.724,arm3_ET_builderv2,2022.2.5,MacIntel,29.41176471,right,1,0.55,0.25,29,-0.023994585,0.488,401,0,401,0,1,,,,,
,,921090,001,2023-07-06_15h46.32.724,arm3_ET_builderv2,2022.2.5,MacIntel,29.41176471,right,1,0.55,0.25,29,-0.019635763,0.441,402,0,402,0,1,,,,,
,,921090,001,2023-07-06_15h46.32.724,arm3_ET_builderv2,2022.2.5,MacIntel,29.41176471,right,1,0.55,0.25,29,0.008072188,0.56,403,0,403,0,1,,,,,
,,921090,001,2023-07-06_15h46.32.724,arm3_ET_builderv2,2022.2.5,MacIntel,29.41176471,right,1,0.55,0.25,29,0.005652128,0.43,404,0,404,0,1,,,,,
,,921090,001,2023-07-06_15h46.32.724,arm3_ET_builderv2,2022.2.5,MacIntel,29.41176471,right,1,0.55,0.25,29,0.015763061,0.32,405,0,405,0,1,,,,,
,,921090,001,2023-07-06_15h46.32.724,arm3_ET_builderv2,2022.2.5,MacIntel,29.41176471,right,1,0.55,0.25,29,-0.006427626,0.394,406,0,406,0,1,,,,,
,,921090,001,2023-07-06_15h46.32.724,arm3_ET_builderv2,2022.2.5,MacIntel,29.41176471,right,1,0.55,0.25,29,-0.013337893,0.433,407,0,407,0,1,,,,,
,,921090,001,2023-07-06_15h46.32.724,arm3_ET_builderv2,2022.2.5,MacIntel,29.41176471,right,1,0.55,0.25,29,0.013900818,1.363,408,0,408,0,1,,,,,
,,921090,001,2023-07-06_15h46.32.724,arm3_ET_builderv2,2022.2.5,MacIntel,29.41176471,up,1,0.55,0.25,30,0,0.492,409,0,409,0,1,,,,,
,,921090,001,2023-07-06_15h46.32.724,arm3_ET_builderv2,2022.2.5,MacIntel,29.41176471,right,1,0.55,0.25,30,-0.000556388,0.932,410,0,410,0,1,,,,,
,,921090,001,2023-07-06_15h46.32.724,arm3_ET_builderv2,2022.2.5,MacIntel,29.41176471,right,1,0.55,0.25,30,0.012219506,0.216,411,0,411,0,1,,,,,
,,921090,001,2023-07-06_15h46.32.724,arm3_ET_builderv2,2022.2.5,MacIntel,29.41176471,right,1,0.55,0.25,30,0.005302416,0.212,412,0,412,0,1,,,,,
,,921090,001,2023-07-06_15h46.32.724,arm3_ET_builderv2,2022.2.5,MacIntel,29.41176471,right,1,0.55,0.25,30,0.032683361,0.415,413,0,413,0,1,,,,,
,,921090,001,2023-07-06_15h46.32.724,arm3_ET_builderv2,2022.2.5,MacIntel,29.41176471,right,1,0.55,0.25,30,-0.002782198,0.429,414,0,414,0,1,,,,,
,,921090,001,2023-07-06_15h46.32.724,arm3_ET_builderv2,2022.2.5,MacIntel,29.41176471,right,1,0.55,0.25,30,0.005558084,0.353,415,0,415,0,1,,,,,
,,921090,001,2023-07-06_15h46.32.724,arm3_ET_builderv2,2022.2.5,MacIntel,29.41176471,right,1,0.55,0.25,30,0.034193361,0.518,416,0,416,0,1,,,,,
,,921090,001,2023-07-06_15h46.32.724,arm3_ET_builderv2,2022.2.5,MacIntel,29.41176471,up,1,0.55,0.25,30,0,0.443,417,0,417,0,1,,,,,
,,921090,001,2023-07-06_15h46.32.724,arm3_ET_builderv2,2022.2.5,MacIntel,29.41176471,right,1,0.55,0.25,30,0.017954513,0.653,418,0,418,0,1,,,,,
,,921090,001,2023-07-06_15h46.32.724,arm3_ET_builderv2,2022.2.5,MacIntel,29.41176471,right,1,0.55,0.25,30,0.015955185,0.39,419,0,419,0,1,,,,,
,,921090,001,2023-07-06_15h46.32.724,arm3_ET_builderv2,2022.2.5,MacIntel,29.41176471,right,1,0.55,0.25,30,0.06996157,0.284,420,0,420,0,1,,,,,
,,921090,001,2023-07-06_15h46.32.724,arm3_ET_builderv2,2022.2.5,MacIntel,29.41176471,right,1,0.55,0.25,30,0.056367288,0.322,421,0,421,0,1,,,,,
,,921090,001,2023-07-06_15h46.32.724,arm3_ET_builderv2,2022.2.5,MacIntel,29.41176471,right,1,0.55,0.25,30,0.077187912,0.343,422,0,422,0,1,,,,,
,,921090,001,2023-07-06_15h46.32.724,arm3_ET_builderv2,2022.2.5,MacIntel,29.41176471,up,1,0.55,0.25,31,0,0.411,423,0,423,0,1,,,,,
,,921090,001,2023-07-06_15h46.32.724,arm3_ET_builderv2,2022.2.5,MacIntel,29.41176471,right,1,0.55,0.25,31,0.043081393,0.579,424,0,424,0,1,,,,,
,,921090,001,2023-07-06_15h46.32.724,arm3_ET_builderv2,2022.2.5,MacIntel,29.41176471,right,1,0.55,0.25,31,0.026623387,0.312,425,0,425,0,1,,,,,
,,921090,001,2023-07-06_15h46.32.724,arm3_ET_builderv2,2022.2.5,MacIntel,29.41176471,right,1,0.55,0.25,31,0.027825543,0.307,426,0,426,0,1,,,,,
,,921090,001,2023-07-06_15h46.32.724,arm3_ET_builderv2,2022.2.5,MacIntel,29.41176471,right,1,0.55,0.25,31,0.0542901,0.226,427,0,427,0,1,,,,,
,,921090,001,2023-07-06_15h46.32.724,arm3_ET_builderv2,2022.2.5,MacIntel,29.41176471,up,1,0.55,0.25,31,0,0.563,428,0,428,0,1,,,,,
,,921090,001,2023-07-06_15h46.32.724,arm3_ET_builderv2,2022.2.5,MacIntel,29.41176471,right,1,0.55,0.25,31,-0.01266858,0.643,429,0,429,0,1,,,,,
,,921090,001,2023-07-06_15h46.32.724,arm3_ET_builderv2,2022.2.5,MacIntel,29.41176471,right,1,0.55,0.25,31,-0.001277459,0.26,430,0,430,0,1,,,,,
,,921090,001,2023-07-06_15h46.32.724,arm3_ET_builderv2,2022.2.5,MacIntel,29.41176471,right,1,0.55,0.25,31,0.02029143,0.287,431,0,431,0,1,,,,,
,,921090,001,2023-07-06_15h46.32.724,arm3_ET_builderv2,2022.2.5,MacIntel,29.41176471,right,1,0.55,0.25,31,0.029194666,0.328,432,0,432,0,1,,,,,
,,921090,001,2023-07-06_15h46.32.724,arm3_ET_builderv2,2022.2.5,MacIntel,29.41176471,right,1,0.55,0.25,31,0.011939844,1.041,433,0,433,0,1,,,,,
,,921090,001,2023-07-06_15h46.32.724,arm3_ET_builderv2,2022.2.5,MacIntel,29.41176471,right,1,0.55,0.25,31,0.020105058,0.519,434,0,434,0,1,,,,,
,,921090,001,2023-07-06_15h46.32.724,arm3_ET_builderv2,2022.2.5,MacIntel,29.41176471,up,-1,0.55,0.25,31,0,0.564,435,0,435,0,1,,,,,
,,921090,001,2023-07-06_15h46.32.724,arm3_ET_builderv2,2022.2.5,MacIntel,29.41176471,right,-1,0.55,0.25,31,-0.023583648,0.901,436,0,436,0,1,,,,,
,,921090,001,2023-07-06_15h46.32.724,arm3_ET_builderv2,2022.2.5,MacIntel,29.41176471,right,-1,0.55,0.25,31,-0.019795476,0.332,437,0,437,0,1,,,,,
,,921090,001,2023-07-06_15h46.32.724,arm3_ET_builderv2,2022.2.5,MacIntel,29.41176471,right,-1,0.55,0.25,31,-0.028176157,0.369,438,0,438,0,1,,,,,
,,921090,001,2023-07-06_15h46.32.724,arm3_ET_builderv2,2022.2.5,MacIntel,29.41176471,down,-1,0.55,0.25,31,0,0.685,439,0,439,0,1,,,,,
,,921090,001,2023-07-06_15h46.32.724,arm3_ET_builderv2,2022.2.5,MacIntel,29.41176471,right,-1,0.55,0.25,31,-0.046297161,0.663,440,0,440,0,1,,,,,
,,921090,001,2023-07-06_15h46.32.724,arm3_ET_builderv2,2022.2.5,MacIntel,29.41176471,down,-1,0.55,0.25,31,0,1.01,441,0,441,0,1,,,,,
,,921090,001,2023-07-06_15h46.32.724,arm3_ET_builderv2,2022.2.5,MacIntel,29.41176471,right,-1,0.55,0.25,31,-0.022803903,0.794,442,0,442,0,1,,,,,
,,921090,001,2023-07-06_15h46.32.724,arm3_ET_builderv2,2022.2.5,MacIntel,29.41176471,right,-1,0.55,0.25,31,-0.034273797,0.362,443,0,443,0,1,,,,,
,,921090,001,2023-07-06_15h46.32.724,arm3_ET_builderv2,2022.2.5,MacIntel,29.41176471,right,-1,0.55,0.25,31,-0.021736217,0.53,444,0,444,0,1,,,,,
,,921090,001,2023-07-06_15h46.32.724,arm3_ET_builderv2,2022.2.5,MacIntel,29.41176471,down,-1,0.55,0.25,32,0,0.596,445,0,445,0,1,,,,,
,,921090,001,2023-07-06_15h46.32.724,arm3_ET_builderv2,2022.2.5,MacIntel,29.41176471,right,-1,0.55,0.25,32,-0.014907795,0.84,446,0,446,0,1,,,,,
,,921090,001,2023-07-06_15h46.32.724,arm3_ET_builderv2,2022.2.5,MacIntel,29.41176471,right,-1,0.55,0.25,32,-0.006900532,0.543,447,0,447,0,1,,,,,
,,921090,001,2023-07-06_15h46.32.724,arm3_ET_builderv2,2022.2.5,MacIntel,29.41176471,down,1,0.55,0.25,33,0,2.143,448,0,448,0,1,,,,,
,,921090,001,2023-07-06_15h46.32.724,arm3_ET_builderv2,2022.2.5,MacIntel,29.41176471,down,1,0.55,0.25,32,0,1.913,449,0,449,0,1,,,,,
,,921090,001,2023-07-06_15h46.32.724,arm3_ET_builderv2,2022.2.5,MacIntel,29.41176471,,,,,,,,,,,,,0,0,0,0,1
,,921090,001,2023-07-06_15h46.32.724,arm3_ET_builderv2,2022.2.5,MacIntel,29.41176471,right,1,0.55,0.45,32,0.015884078,5.157,0,0,0,0,1,,,,,
,,921090,001,2023-07-06_15h46.32.724,arm3_ET_builderv2,2022.2.5,MacIntel,29.41176471,right,1,0.55,0.45,32,0.026631688,0.387,1,0,1,0,1,,,,,
,,921090,001,2023-07-06_15h46.32.724,arm3_ET_builderv2,2022.2.5,MacIntel,29.41176471,right,1,0.55,0.45,32,0.038928323,0.335,2,0,2,0,1,,,,,
,,921090,001,2023-07-06_15h46.32.724,arm3_ET_builderv2,2022.2.5,MacIntel,29.41176471,right,1,0.55,0.45,32,0.04668884,0.347,3,0,3,0,1,,,,,
,,921090,001,2023-07-06_15h46.32.724,arm3_ET_builderv2,2022.2.5,MacIntel,29.41176471,right,1,0.55,0.45,32,0.032185616,0.403,4,0,4,0,1,,,,,
,,921090,001,2023-07-06_15h46.32.724,arm3_ET_builderv2,2022.2.5,MacIntel,29.41176471,up,1,0.55,0.45,32,0,0.781,5,0,5,0,1,,,,,
,,921090,001,2023-07-06_15h46.32.724,arm3_ET_builderv2,2022.2.5,MacIntel,29.41176471,right,1,0.55,0.45,32,0.037918448,0.841,6,0,6,0,1,,,,,
,,921090,001,2023-07-06_15h46.32.724,arm3_ET_builderv2,2022.2.5,MacIntel,29.41176471,right,1,0.55,0.45,32,0.03374838,0.41,7,0,7,0,1,,,,,
,,921090,001,2023-07-06_15h46.32.724,arm3_ET_builderv2,2022.2.5,MacIntel,29.41176471,right,1,0.55,0.45,32,0.046257195,0.381,8,0,8,0,1,,,,,
,,921090,001,2023-07-06_15h46.32.724,arm3_ET_builderv2,2022.2.5,MacIntel,29.41176471,right,1,0.55,0.45,32,0.080110617,0.311,9,0,9,0,1,,,,,
,,921090,001,2023-07-06_15h46.32.724,arm3_ET_builderv2,2022.2.5,MacIntel,29.41176471,right,1,0.55,0.45,32,0.085596448,0.331,10,0,10,0,1,,,,,
,,921090,001,2023-07-06_15h46.32.724,arm3_ET_builderv2,2022.2.5,MacIntel,29.41176471,right,1,0.55,0.45,32,0.062632237,0.4,11,0,11,0,1,,,,,
,,921090,001,2023-07-06_15h46.32.724,arm3_ET_builderv2,2022.2.5,MacIntel,29.41176471,right,1,0.55,0.45,32,0.059155971,0.333,12,0,12,0,1,,,,,
,,921090,001,2023-07-06_15h46.32.724,arm3_ET_builderv2,2022.2.5,MacIntel,29.41176471,right,1,0.55,0.45,32,0.057945086,3.211,13,0,13,0,1,,,,,
,,921090,001,2023-07-06_15h46.32.724,arm3_ET_builderv2,2022.2.5,MacIntel,29.41176471,up,1,0.55,0.45,33,0,0.479,14,0,14,0,1,,,,,
,,921090,001,2023-07-06_15h46.32.724,arm3_ET_builderv2,2022.2.5,MacIntel,29.41176471,right,1,0.55,0.45,33,0.016982378,0.618,15,0,15,0,1,,,,,
,,921090,001,2023-07-06_15h46.32.724,arm3_ET_builderv2,2022.2.5,MacIntel,29.41176471,right,1,0.55,0.45,33,0.023605858,0.329,16,0,16,0,1,,,,,
,,921090,001,2023-07-06_15h46.32.724,arm3_ET_builderv2,2022.2.5,MacIntel,29.41176471,right,1,0.55,0.45,33,0.031088115,0.243,17,0,17,0,1,,,,,
,,921090,001,2023-07-06_15h46.32.724,arm3_ET_builderv2,2022.2.5,MacIntel,29.41176471,right,1,0.55,0.45,33,0.018040287,0.512,18,0,18,0,1,,,,,
,,921090,001,2023-07-06_15h46.32.724,arm3_ET_builderv2,2022.2.5,MacIntel,29.41176471,right,1,0.55,0.45,33,0.057945148,0.54,19,0,19,0,1,,,,,
,,921090,001,2023-07-06_15h46.32.724,arm3_ET_builderv2,2022.2.5,MacIntel,29.41176471,right,1,0.55,0.45,33,0.070434032,0.386,20,0,20,0,1,,,,,
,,921090,001,2023-07-06_15h46.32.724,arm3_ET_builderv2,2022.2.5,MacIntel,29.41176471,right,1,0.55,0.45,33,0.077885949,0.394,21,0,21,0,1,,,,,
,,921090,001,2023-07-06_15h46.32.724,arm3_ET_builderv2,2022.2.5,MacIntel,29.41176471,up,1,0.55,0.45,34,0,0.586,22,0,22,0,1,,,,,
,,921090,001,2023-07-06_15h46.32.724,arm3_ET_builderv2,2022.2.5,MacIntel,29.41176471,right,1,0.55,0.45,34,-0.037746606,0.722,23,0,23,0,1,,,,,
,,921090,001,2023-07-06_15h46.32.724,arm3_ET_builderv2,2022.2.5,MacIntel,29.41176471,right,1,0.55,0.45,34,-0.02110007,0.565,24,0,24,0,1,,,,,
,,921090,001,2023-07-06_15h46.32.724,arm3_ET_builderv2,2022.2.5,MacIntel,29.41176471,right,1,0.55,0.45,34,-0.005607475,0.493,25,0,25,0,1,,,,,
,,921090,001,2023-07-06_15h46.32.724,arm3_ET_builderv2,2022.2.5,MacIntel,29.41176471,right,1,0.55,0.45,34,0.005509514,0.399,26,0,26,0,1,,,,,
,,921090,001,2023-07-06_15h46.32.724,arm3_ET_builderv2,2022.2.5,MacIntel,29.41176471,right,1,0.55,0.45,34,0.01851292,0.362,27,0,27,0,1,,,,,
,,921090,001,2023-07-06_15h46.32.724,arm3_ET_builderv2,2022.2.5,MacIntel,29.41176471,right,1,0.55,0.45,34,0.053326874,0.851,28,0,28,0,1,,,,,
,,921090,001,2023-07-06_15h46.32.724,arm3_ET_builderv2,2022.2.5,MacIntel,29.41176471,right,1,0.55,0.45,34,0.051664745,0.43,29,0,29,0,1,,,,,
,,921090,001,2023-07-06_15h46.32.724,arm3_ET_builderv2,2022.2.5,MacIntel,29.41176471,right,1,0.55,0.45,34,0.044888515,0.526,30,0,30,0,1,,,,,
,,921090,001,2023-07-06_15h46.32.724,arm3_ET_builderv2,2022.2.5,MacIntel,29.41176471,right,1,0.55,0.45,34,0.0291949,0.46,31,0,31,0,1,,,,,
,,921090,001,2023-07-06_15h46.32.724,arm3_ET_builderv2,2022.2.5,MacIntel,29.41176471,right,1,0.55,0.45,34,0.016857002,0.35,32,0,32,0,1,,,,,
,,921090,001,2023-07-06_15h46.32.724,arm3_ET_builderv2,2022.2.5,MacIntel,29.41176471,right,1,0.55,0.45,34,0.007238842,1.11,33,0,33,0,1,,,,,
,,921090,001,2023-07-06_15h46.32.724,arm3_ET_builderv2,2022.2.5,MacIntel,29.41176471,right,1,0.55,0.45,34,0.007998825,0.912,34,0,34,0,1,,,,,
,,921090,001,2023-07-06_15h46.32.724,arm3_ET_builderv2,2022.2.5,MacIntel,29.41176471,up,-1,0.55,0.45,35,0,1.779,35,0,35,0,1,,,,,
,,921090,001,2023-07-06_15h46.32.724,arm3_ET_builderv2,2022.2.5,MacIntel,29.41176471,right,-1,0.55,0.45,35,0.011472608,0.912,36,0,36,0,1,,,,,
,,921090,001,2023-07-06_15h46.32.724,arm3_ET_builderv2,2022.2.5,MacIntel,29.41176471,right,-1,0.55,0.45,35,0.040700143,0.447,37,0,37,0,1,,,,,
,,921090,001,2023-07-06_15h46.32.724,arm3_ET_builderv2,2022.2.5,MacIntel,29.41176471,right,-1,0.55,0.45,35,0.033927174,0.484,38,0,38,0,1,,,,,
,,921090,001,2023-07-06_15h46.32.724,arm3_ET_builderv2,2022.2.5,MacIntel,29.41176471,right,-1,0.55,0.45,35,0.012714161,0.834,39,0,39,0,1,,,,,
,,921090,001,2023-07-06_15h46.32.724,arm3_ET_builderv2,2022.2.5,MacIntel,29.41176471,right,-1,0.55,0.45,35,0.028372145,0.329,40,0,40,0,1,,,,,
,,921090,001,2023-07-06_15h46.32.724,arm3_ET_builderv2,2022.2.5,MacIntel,29.41176471,right,-1,0.55,0.45,35,-0.007234302,0.543,41,0,41,0,1,,,,,
,,921090,001,2023-07-06_15h46.32.724,arm3_ET_builderv2,2022.2.5,MacIntel,29.41176471,right,-1,0.55,0.45,35,-0.007424803,0.474,42,0,42,0,1,,,,,
,,921090,001,2023-07-06_15h46.32.724,arm3_ET_builderv2,2022.2.5,MacIntel,29.41176471,right,-1,0.55,0.45,35,-0.012099095,0.664,43,0,43,0,1,,,,,
,,921090,001,2023-07-06_15h46.32.724,arm3_ET_builderv2,2022.2.5,MacIntel,29.41176471,right,-1,0.55,0.45,35,-0.008239905,0.595,44,0,44,0,1,,,,,
,,921090,001,2023-07-06_15h46.32.724,arm3_ET_builderv2,2022.2.5,MacIntel,29.41176471,right,-1,0.55,0.45,35,-0.002644808,0.582,45,0,45,0,1,,,,,
,,921090,001,2023-07-06_15h46.32.724,arm3_ET_builderv2,2022.2.5,MacIntel,29.41176471,up,1,0.55,0.45,35,0,1.299,46,0,46,0,1,,,,,
,,921090,001,2023-07-06_15h46.32.724,arm3_ET_builderv2,2022.2.5,MacIntel,29.41176471,right,1,0.55,0.45,35,0.00281176,0.842,47,0,47,0,1,,,,,
,,921090,001,2023-07-06_15h46.32.724,arm3_ET_builderv2,2022.2.5,MacIntel,29.41176471,right,1,0.55,0.45,35,0.032615318,0.343,48,0,48,0,1,,,,,
,,921090,001,2023-07-06_15h46.32.724,arm3_ET_builderv2,2022.2.5,MacIntel,29.41176471,right,1,0.55,0.45,35,0.045651388,0.345,49,0,49,0,1,,,,,
,,921090,001,2023-07-06_15h46.32.724,arm3_ET_builderv2,2022.2.5,MacIntel,29.41176471,right,1,0.55,0.45,35,0.090610928,1.026,50,0,50,0,1,,,,,
,,921090,001,2023-07-06_15h46.32.724,arm3_ET_builderv2,2022.2.5,MacIntel,29.41176471,right,1,0.55,0.45,35,0.083916147,0.551,51,0,51,0,1,,,,,
,,921090,001,2023-07-06_15h46.32.724,arm3_ET_builderv2,2022.2.5,MacIntel,29.41176471,up,-1,0.55,0.45,35,0,1.247,52,0,52,0,1,,,,,
,,921090,001,2023-07-06_15h46.32.724,arm3_ET_builderv2,2022.2.5,MacIntel,29.41176471,right,-1,0.55,0.45,35,0.030256822,0.59,53,0,53,0,1,,,,,
,,921090,001,2023-07-06_15h46.32.724,arm3_ET_builderv2,2022.2.5,MacIntel,29.41176471,right,-1,0.55,0.45,35,0.007889487,0.275,54,0,54,0,1,,,,,
,,921090,001,2023-07-06_15h46.32.724,arm3_ET_builderv2,2022.2.5,MacIntel,29.41176471,right,-1,0.55,0.45,35,0.022244732,0.21,55,0,55,0,1,,,,,
,,921090,001,2023-07-06_15h46.32.724,arm3_ET_builderv2,2022.2.5,MacIntel,29.41176471,right,-1,0.55,0.45,35,0.027934103,0.222,56,0,56,0,1,,,,,
,,921090,001,2023-07-06_15h46.32.724,arm3_ET_builderv2,2022.2.5,MacIntel,29.41176471,right,-1,0.55,0.45,35,0.036253488,0.255,57,0,57,0,1,,,,,
,,921090,001,2023-07-06_15h46.32.724,arm3_ET_builderv2,2022.2.5,MacIntel,29.41176471,right,-1,0.55,0.45,35,0.048648092,0.294,58,0,58,0,1,,,,,
,,921090,001,2023-07-06_15h46.32.724,arm3_ET_builderv2,2022.2.5,MacIntel,29.41176471,right,-1,0.55,0.45,35,0.049498099,0.317,59,0,59,0,1,,,,,
,,921090,001,2023-07-06_15h46.32.724,arm3_ET_builderv2,2022.2.5,MacIntel,29.41176471,right,-1,0.55,0.45,35,0.061747253,0.387,60,0,60,0,1,,,,,
,,921090,001,2023-07-06_15h46.32.724,arm3_ET_builderv2,2022.2.5,MacIntel,29.41176471,right,-1,0.55,0.45,35,0.025202761,0.661,61,0,61,0,1,,,,,
,,921090,001,2023-07-06_15h46.32.724,arm3_ET_builderv2,2022.2.5,MacIntel,29.41176471,right,-1,0.55,0.45,35,-0.009818113,0.396,62,0,62,0,1,,,,,
,,921090,001,2023-07-06_15h46.32.724,arm3_ET_builderv2,2022.2.5,MacIntel,29.41176471,right,-1,0.55,0.45,35,-0.022390963,0.378,63,0,63,0,1,,,,,
,,921090,001,2023-07-06_15h46.32.724,arm3_ET_builderv2,2022.2.5,MacIntel,29.41176471,right,-1,0.55,0.45,35,-0.023947274,1.132,64,0,64,0,1,,,,,
,,921090,001,2023-07-06_15h46.32.724,arm3_ET_builderv2,2022.2.5,MacIntel,29.41176471,down,-1,0.55,0.45,35,0,0.369,65,0,65,0,1,,,,,
,,921090,001,2023-07-06_15h46.32.724,arm3_ET_builderv2,2022.2.5,MacIntel,29.41176471,right,-1,0.55,0.45,35,0.002427708,0.848,66,0,66,0,1,,,,,
,,921090,001,2023-07-06_15h46.32.724,arm3_ET_builderv2,2022.2.5,MacIntel,29.41176471,right,-1,0.55,0.45,35,-0.020149374,0.323,67,0,67,0,1,,,,,
,,921090,001,2023-07-06_15h46.32.724,arm3_ET_builderv2,2022.2.5,MacIntel,29.41176471,right,-1,0.55,0.45,35,-0.046911294,0.227,68,0,68,0,1,,,,,
,,921090,001,2023-07-06_15h46.32.724,arm3_ET_builderv2,2022.2.5,MacIntel,29.41176471,right,-1,0.55,0.45,35,-0.06033081,0.341,69,0,69,0,1,,,,,
,,921090,001,2023-07-06_15h46.32.724,arm3_ET_builderv2,2022.2.5,MacIntel,29.41176471,right,-1,0.55,0.45,35,-0.063147762,0.341,70,0,70,0,1,,,,,
,,921090,001,2023-07-06_15h46.32.724,arm3_ET_builderv2,2022.2.5,MacIntel,29.41176471,right,-1,0.55,0.45,35,-0.056002243,0.447,71,0,71,0,1,,,,,
,,921090,001,2023-07-06_15h46.32.724,arm3_ET_builderv2,2022.2.5,MacIntel,29.41176471,right,-1,0.55,0.45,35,-0.071010439,0.329,72,0,72,0,1,,,,,
,,921090,001,2023-07-06_15h46.32.724,arm3_ET_builderv2,2022.2.5,MacIntel,29.41176471,right,-1,0.55,0.45,35,-0.092541977,0.387,73,0,73,0,1,,,,,
,,921090,001,2023-07-06_15h46.32.724,arm3_ET_builderv2,2022.2.5,MacIntel,29.41176471,down,1,0.55,0.45,36,0,0.509,74,0,74,0,1,,,,,
,,921090,001,2023-07-06_15h46.32.724,arm3_ET_builderv2,2022.2.5,MacIntel,29.41176471,right,1,0.55,0.45,36,0.01125398,0.626,75,0,75,0,1,,,,,
,,921090,001,2023-07-06_15h46.32.724,arm3_ET_builderv2,2022.2.5,MacIntel,29.41176471,right,1,0.55,0.45,36,0.007293997,0.277,76,0,76,0,1,,,,,
,,921090,001,2023-07-06_15h46.32.724,arm3_ET_builderv2,2022.2.5,MacIntel,29.41176471,right,1,0.55,0.45,36,-0.002631327,0.29,77,0,77,0,1,,,,,
,,921090,001,2023-07-06_15h46.32.724,arm3_ET_builderv2,2022.2.5,MacIntel,29.41176471,right,1,0.55,0.45,36,0.019257518,0.396,78,0,78,0,1,,,,,
,,921090,001,2023-07-06_15h46.32.724,arm3_ET_builderv2,2022.2.5,MacIntel,29.41176471,right,1,0.55,0.45,36,0.016948,0.291,79,0,79,0,1,,,,,
,,921090,001,2023-07-06_15h46.32.724,arm3_ET_builderv2,2022.2.5,MacIntel,29.41176471,right,1,0.55,0.45,36,0.033285945,0.431,80,0,80,0,1,,,,,
,,921090,001,2023-07-06_15h46.32.724,arm3_ET_builderv2,2022.2.5,MacIntel,29.41176471,right,1,0.55,0.45,36,0.041951323,0.496,81,0,81,0,1,,,,,
,,921090,001,2023-07-06_15h46.32.724,arm3_ET_builderv2,2022.2.5,MacIntel,29.41176471,right,1,0.55,0.45,36,0.042199411,1.425,82,0,82,0,1,,,,,
,,921090,001,2023-07-06_15h46.32.724,arm3_ET_builderv2,2022.2.5,MacIntel,29.41176471,right,1,0.55,0.45,36,0.024831588,0.526,83,0,83,0,1,,,,,
,,921090,001,2023-07-06_15h46.32.724,arm3_ET_builderv2,2022.2.5,MacIntel,29.41176471,right,1,0.55,0.45,36,0.026119938,0.325,84,0,84,0,1,,,,,
,,921090,001,2023-07-06_15h46.32.724,arm3_ET_builderv2,2022.2.5,MacIntel,29.41176471,up,-1,0.55,0.45,36,0,0.561,85,0,85,0,1,,,,,
,,921090,001,2023-07-06_15h46.32.724,arm3_ET_builderv2,2022.2.5,MacIntel,29.41176471,right,-1,0.55,0.45,36,0.029053953,0.565,86,0,86,0,1,,,,,
,,921090,001,2023-07-06_15h46.32.724,arm3_ET_builderv2,2022.2.5,MacIntel,29.41176471,right,-1,0.55,0.45,36,0.027581378,0.251,87,0,87,0,1,,,,,
,,921090,001,2023-07-06_15h46.32.724,arm3_ET_builderv2,2022.2.5,MacIntel,29.41176471,right,-1,0.55,0.45,36,0.014934613,0.279,88,0,88,0,1,,,,,
,,921090,001,2023-07-06_15h46.32.724,arm3_ET_builderv2,2022.2.5,MacIntel,29.41176471,right,-1,0.55,0.45,36,0.002449633,0.345,89,0,89,0,1,,,,,
,,921090,001,2023-07-06_15h46.32.724,arm3_ET_builderv2,2022.2.5,MacIntel,29.41176471,right,-1,0.55,0.45,36,-0.042180216,0.513,90,0,90,0,1,,,,,
,,921090,001,2023-07-06_15h46.32.724,arm3_ET_builderv2,2022.2.5,MacIntel,29.41176471,right,-1,0.55,0.45,36,-0.077942792,2.643,91,0,91,0,1,,,,,
,,921090,001,2023-07-06_15h46.32.724,arm3_ET_builderv2,2022.2.5,MacIntel,29.41176471,down,1,0.55,0.45,37,0,0.449,92,0,92,0,1,,,,,
,,921090,001,2023-07-06_15h46.32.724,arm3_ET_builderv2,2022.2.5,MacIntel,29.41176471,right,1,0.55,0.45,37,0.029688697,0.674,93,0,93,0,1,,,,,
,,921090,001,2023-07-06_15h46.32.724,arm3_ET_builderv2,2022.2.5,MacIntel,29.41176471,right,1,0.55,0.45,37,0.055530722,0.226,94,0,94,0,1,,,,,
,,921090,001,2023-07-06_15h46.32.724,arm3_ET_builderv2,2022.2.5,MacIntel,29.41176471,right,1,0.55,0.45,37,0.059472111,0.244,95,0,95,0,1,,,,,
,,921090,001,2023-07-06_15h46.32.724,arm3_ET_builderv2,2022.2.5,MacIntel,29.41176471,right,1,0.55,0.45,37,0.026983778,0.442,96,0,96,0,1,,,,,
,,921090,001,2023-07-06_15h46.32.724,arm3_ET_builderv2,2022.2.5,MacIntel,29.41176471,right,1,0.55,0.45,37,-0.000598899,0.327,97,0,97,0,1,,,,,
,,921090,001,2023-07-06_15h46.32.724,arm3_ET_builderv2,2022.2.5,MacIntel,29.41176471,right,1,0.55,0.45,37,-0.00498554,0.254,98,0,98,0,1,,,,,
,,921090,001,2023-07-06_15h46.32.724,arm3_ET_builderv2,2022.2.5,MacIntel,29.41176471,right,1,0.55,0.45,37,0.000673291,0.394,99,0,99,0,1,,,,,
,,921090,001,2023-07-06_15h46.32.724,arm3_ET_builderv2,2022.2.5,MacIntel,29.41176471,right,1,0.55,0.45,37,0.027533846,0.315,100,0,100,0,1,,,,,
,,921090,001,2023-07-06_15h46.32.724,arm3_ET_builderv2,2022.2.5,MacIntel,29.41176471,up,1,0.55,0.45,37,0,0.528,101,0,101,0,1,,,,,
,,921090,001,2023-07-06_15h46.32.724,arm3_ET_builderv2,2022.2.5,MacIntel,29.41176471,right,1,0.55,0.45,37,0.028179229,0.838,102,0,102,0,1,,,,,
,,921090,001,2023-07-06_15h46.32.724,arm3_ET_builderv2,2022.2.5,MacIntel,29.41176471,right,1,0.55,0.45,37,0.024277168,0.267,103,0,103,0,1,,,,,
,,921090,001,2023-07-06_15h46.32.724,arm3_ET_builderv2,2022.2.5,MacIntel,29.41176471,right,1,0.55,0.45,37,0.051365228,0.206,104,0,104,0,1,,,,,
,,921090,001,2023-07-06_15h46.32.724,arm3_ET_builderv2,2022.2.5,MacIntel,29.41176471,right,1,0.55,0.45,37,0.065588335,0.33,105,0,105,0,1,,,,,
,,921090,001,2023-07-06_15h46.32.724,arm3_ET_builderv2,2022.2.5,MacIntel,29.41176471,right,1,0.55,0.45,37,0.073725606,0.28,106,0,106,0,1,,,,,
,,921090,001,2023-07-06_15h46.32.724,arm3_ET_builderv2,2022.2.5,MacIntel,29.41176471,right,1,0.55,0.45,37,0.08733994,0.422,107,0,107,0,1,,,,,
,,921090,001,2023-07-06_15h46.32.724,arm3_ET_builderv2,2022.2.5,MacIntel,29.41176471,up,-1,0.55,0.45,38,0,0.587,108,0,108,0,1,,,,,
,,921090,001,2023-07-06_15h46.32.724,arm3_ET_builderv2,2022.2.5,MacIntel,29.41176471,right,-1,0.55,0.45,38,0.019660373,0.646,109,0,109,0,1,,,,,
,,921090,001,2023-07-06_15h46.32.724,arm3_ET_builderv2,2022.2.5,MacIntel,29.41176471,right,-1,0.55,0.45,38,0.004065294,0.227,110,0,110,0,1,,,,,
,,921090,001,2023-07-06_15h46.32.724,arm3_ET_builderv2,2022.2.5,MacIntel,29.41176471,right,-1,0.55,0.45,38,-0.012733803,0.259,111,0,111,0,1,,,,,
,,921090,001,2023-07-06_15h46.32.724,arm3_ET_builderv2,2022.2.5,MacIntel,29.41176471,right,-1,0.55,0.45,38,-0.017702574,0.308,112,0,112,0,1,,,,,
,,921090,001,2023-07-06_15h46.32.724,arm3_ET_builderv2,2022.2.5,MacIntel,29.41176471,right,-1,0.55,0.45,38,0.021600645,0.495,113,0,113,0,1,,,,,
,,921090,001,2023-07-06_15h46.32.724,arm3_ET_builderv2,2022.2.5,MacIntel,29.41176471,right,-1,0.55,0.45,38,0.02461875,0.376,114,0,114,0,1,,,,,
,,921090,001,2023-07-06_15h46.32.724,arm3_ET_builderv2,2022.2.5,MacIntel,29.41176471,right,-1,0.55,0.45,38,0.019228335,1.646,115,0,115,0,1,,,,,
,,921090,001,2023-07-06_15h46.32.724,arm3_ET_builderv2,2022.2.5,MacIntel,29.41176471,right,-1,0.55,0.45,38,-0.015142781,0.663,116,0,116,0,1,,,,,
,,921090,001,2023-07-06_15h46.32.724,arm3_ET_builderv2,2022.2.5,MacIntel,29.41176471,right,-1,0.55,0.45,38,-0.019755502,1.764,117,0,117,0,1,,,,,
,,921090,001,2023-07-06_15h46.32.724,arm3_ET_builderv2,2022.2.5,MacIntel,29.41176471,right,-1,0.55,0.45,38,-0.021530081,0.759,118,0,118,0,1,,,,,
,,921090,001,2023-07-06_15h46.32.724,arm3_ET_builderv2,2022.2.5,MacIntel,29.41176471,down,1,0.55,0.45,39,0,0.701,119,0,119,0,1,,,,,
,,921090,001,2023-07-06_15h46.32.724,arm3_ET_builderv2,2022.2.5,MacIntel,29.41176471,right,1,0.55,0.45,39,0.019084613,0.832,120,0,120,0,1,,,,,
,,921090,001,2023-07-06_15h46.32.724,arm3_ET_builderv2,2022.2.5,MacIntel,29.41176471,right,1,0.55,0.45,39,0.064870142,0.345,121,0,121,0,1,,,,,
,,921090,001,2023-07-06_15h46.32.724,arm3_ET_builderv2,2022.2.5,MacIntel,29.41176471,right,1,0.55,0.45,39,0.072541541,0.394,122,0,122,0,1,,,,,
,,921090,001,2023-07-06_15h46.32.724,arm3_ET_builderv2,2022.2.5,MacIntel,29.41176471,right,1,0.55,0.45,39,0.103480759,0.326,123,0,123,0,1,,,,,
,,921090,001,2023-07-06_15h46.32.724,arm3_ET_builderv2,2022.2.5,MacIntel,29.41176471,up,1,0.55,0.45,39,0,0.509,124,0,124,0,1,,,,,
,,921090,001,2023-07-06_15h46.32.724,arm3_ET_builderv2,2022.2.5,MacIntel,29.41176471,right,1,0.55,0.45,39,0.027224476,0.741,125,0,125,0,1,,,,,
,,921090,001,2023-07-06_15h46.32.724,arm3_ET_builderv2,2022.2.5,MacIntel,29.41176471,right,1,0.55,0.45,39,0.047818918,0.241,126,0,126,0,1,,,,,
,,921090,001,2023-07-06_15h46.32.724,arm3_ET_builderv2,2022.2.5,MacIntel,29.41176471,right,1,0.55,0.45,39,0.069518681,0.236,127,0,127,0,1,,,,,
,,921090,001,2023-07-06_15h46.32.724,arm3_ET_builderv2,2022.2.5,MacIntel,29.41176471,right,1,0.55,0.45,39,0.064829148,0.528,128,0,128,0,1,,,,,
,,921090,001,2023-07-06_15h46.32.724,arm3_ET_builderv2,2022.2.5,MacIntel,29.41176471,right,1,0.55,0.45,39,0.098877583,0.364,129,0,129,0,1,,,,,
,,921090,001,2023-07-06_15h46.32.724,arm3_ET_builderv2,2022.2.5,MacIntel,29.41176471,right,1,0.55,0.45,39,0.088746311,1.164,130,0,130,0,1,,,,,
,,921090,001,2023-07-06_15h46.32.724,arm3_ET_builderv2,2022.2.5,MacIntel,29.41176471,up,1,0.55,0.45,39,0,0.793,131,0,131,0,1,,,,,
,,921090,001,2023-07-06_15h46.32.724,arm3_ET_builderv2,2022.2.5,MacIntel,29.41176471,right,1,0.55,0.45,39,0.009354815,0.819,132,0,132,0,1,,,,,
,,921090,001,2023-07-06_15h46.32.724,arm3_ET_builderv2,2022.2.5,MacIntel,29.41176471,right,1,0.55,0.45,39,0.030617742,0.278,133,0,133,0,1,,,,,
,,921090,001,2023-07-06_15h46.32.724,arm3_ET_builderv2,2022.2.5,MacIntel,29.41176471,right,1,0.55,0.45,39,0.046144748,0.243,134,0,134,0,1,,,,,
,,921090,001,2023-07-06_15h46.32.724,arm3_ET_builderv2,2022.2.5,MacIntel,29.41176471,right,1,0.55,0.45,39,0.035867059,0.244,135,0,135,0,1,,,,,
,,921090,001,2023-07-06_15h46.32.724,arm3_ET_builderv2,2022.2.5,MacIntel,29.41176471,right,1,0.55,0.45,39,0.055517724,0.398,136,0,136,0,1,,,,,
,,921090,001,2023-07-06_15h46.32.724,arm3_ET_builderv2,2022.2.5,MacIntel,29.41176471,right,1,0.55,0.45,39,0.032863244,0.317,137,0,137,0,1,,,,,
,,921090,001,2023-07-06_15h46.32.724,arm3_ET_builderv2,2022.2.5,MacIntel,29.41176471,right,1,0.55,0.45,39,0.059952638,1.494,138,0,138,0,1,,,,,
,,921090,001,2023-07-06_15h46.32.724,arm3_ET_builderv2,2022.2.5,MacIntel,29.41176471,up,-1,0.55,0.45,40,0,0.816,139,0,139,0,1,,,,,
,,921090,001,2023-07-06_15h46.32.724,arm3_ET_builderv2,2022.2.5,MacIntel,29.41176471,right,-1,0.55,0.45,40,-0.0011659,0.844,140,0,140,0,1,,,,,
,,921090,001,2023-07-06_15h46.32.724,arm3_ET_builderv2,2022.2.5,MacIntel,29.41176471,right,-1,0.55,0.45,40,0.00295602,0.31,141,0,141,0,1,,,,,
,,921090,001,2023-07-06_15h46.32.724,arm3_ET_builderv2,2022.2.5,MacIntel,29.41176471,right,-1,0.55,0.45,40,-0.023496648,0.36,142,0,142,0,1,,,,,
,,921090,001,2023-07-06_15h46.32.724,arm3_ET_builderv2,2022.2.5,MacIntel,29.41176471,right,-1,0.55,0.45,40,-0.024508488,0.349,143,0,143,0,1,,,,,
,,921090,001,2023-07-06_15h46.32.724,arm3_ET_builderv2,2022.2.5,MacIntel,29.41176471,right,-1,0.55,0.45,40,-0.042865353,0.376,144,0,144,0,1,,,,,
,,921090,001,2023-07-06_15h46.32.724,arm3_ET_builderv2,2022.2.5,MacIntel,29.41176471,right,-1,0.55,0.45,40,-0.092089566,0.715,145,0,145,0,1,,,,,
,,921090,001,2023-07-06_15h46.32.724,arm3_ET_builderv2,2022.2.5,MacIntel,29.41176471,down,-1,0.55,0.45,40,0,0.744,146,0,146,0,1,,,,,
,,921090,001,2023-07-06_15h46.32.724,arm3_ET_builderv2,2022.2.5,MacIntel,29.41176471,right,-1,0.55,0.45,40,-0.013681973,0.609,147,0,147,0,1,,,,,
,,921090,001,2023-07-06_15h46.32.724,arm3_ET_builderv2,2022.2.5,MacIntel,29.41176471,right,-1,0.55,0.45,40,-0.017965045,0.261,148,0,148,0,1,,,,,
,,921090,001,2023-07-06_15h46.32.724,arm3_ET_builderv2,2022.2.5,MacIntel,29.41176471,right,-1,0.55,0.45,40,-0.025285438,0.185,149,0,149,0,1,,,,,
,,921090,001,2023-07-06_15h46.32.724,arm3_ET_builderv2,2022.2.5,MacIntel,29.41176471,right,-1,0.55,0.45,40,-0.043098199,0.256,150,0,150,0,1,,,,,
,,921090,001,2023-07-06_15h46.32.724,arm3_ET_builderv2,2022.2.5,MacIntel,29.41176471,right,-1,0.55,0.45,40,-0.056281802,0.349,151,0,151,0,1,,,,,
,,921090,001,2023-07-06_15h46.32.724,arm3_ET_builderv2,2022.2.5,MacIntel,29.41176471,right,-1,0.55,0.45,40,-0.102494919,0.534,152,0,152,0,1,,,,,
,,921090,001,2023-07-06_15h46.32.724,arm3_ET_builderv2,2022.2.5,MacIntel,29.41176471,down,1,0.55,0.45,41,0,0.333,153,0,153,0,1,,,,,
,,921090,001,2023-07-06_15h46.32.724,arm3_ET_builderv2,2022.2.5,MacIntel,29.41176471,right,1,0.55,0.45,41,0.025685387,0.394,154,0,154,0,1,,,,,
,,921090,001,2023-07-06_15h46.32.724,arm3_ET_builderv2,2022.2.5,MacIntel,29.41176471,right,1,0.55,0.45,41,0.032361087,0.276,155,0,155,0,1,,,,,
,,921090,001,2023-07-06_15h46.32.724,arm3_ET_builderv2,2022.2.5,MacIntel,29.41176471,right,1,0.55,0.45,41,0.051572921,0.23,156,0,156,0,1,,,,,
,,921090,001,2023-07-06_15h46.32.724,arm3_ET_builderv2,2022.2.5,MacIntel,29.41176471,right,1,0.55,0.45,41,0.062474515,0.422,157,0,157,0,1,,,,,
,,921090,001,2023-07-06_15h46.32.724,arm3_ET_builderv2,2022.2.5,MacIntel,29.41176471,up,-1,0.55,0.45,41,0,0.344,158,0,158,0,1,,,,,
,,921090,001,2023-07-06_15h46.32.724,arm3_ET_builderv2,2022.2.5,MacIntel,29.41176471,right,-1,0.55,0.45,41,-0.020142013,0.577,159,0,159,0,1,,,,,
,,921090,001,2023-07-06_15h46.32.724,arm3_ET_builderv2,2022.2.5,MacIntel,29.41176471,right,-1,0.55,0.45,41,-0.054494625,0.293,160,0,160,0,1,,,,,
,,921090,001,2023-07-06_15h46.32.724,arm3_ET_builderv2,2022.2.5,MacIntel,29.41176471,right,-1,0.55,0.45,41,-0.0840652,0.159,161,0,161,0,1,,,,,
,,921090,001,2023-07-06_15h46.32.724,arm3_ET_builderv2,2022.2.5,MacIntel,29.41176471,down,-1,0.55,0.45,42,0,0.745,162,0,162,0,1,,,,,
,,921090,001,2023-07-06_15h46.32.724,arm3_ET_builderv2,2022.2.5,MacIntel,29.41176471,right,-1,0.55,0.45,42,-0.001269371,0.675,163,0,163,0,1,,,,,
,,921090,001,2023-07-06_15h46.32.724,arm3_ET_builderv2,2022.2.5,MacIntel,29.41176471,right,-1,0.55,0.45,42,-0.014415812,0.212,164,0,164,0,1,,,,,
,,921090,001,2023-07-06_15h46.32.724,arm3_ET_builderv2,2022.2.5,MacIntel,29.41176471,right,-1,0.55,0.45,42,-0.008669706,0.243,165,0,165,0,1,,,,,
,,921090,001,2023-07-06_15h46.32.724,arm3_ET_builderv2,2022.2.5,MacIntel,29.41176471,right,-1,0.55,0.45,42,-0.013118851,0.352,166,0,166,0,1,,,,,
,,921090,001,2023-07-06_15h46.32.724,arm3_ET_builderv2,2022.2.5,MacIntel,29.41176471,right,-1,0.55,0.45,42,-0.015522492,0.368,167,0,167,0,1,,,,,
,,921090,001,2023-07-06_15h46.32.724,arm3_ET_builderv2,2022.2.5,MacIntel,29.41176471,right,-1,0.55,0.45,42,-0.036766717,0.427,168,0,168,0,1,,,,,
,,921090,001,2023-07-06_15h46.32.724,arm3_ET_builderv2,2022.2.5,MacIntel,29.41176471,right,-1,0.55,0.45,42,-0.044340259,1.245,169,0,169,0,1,,,,,
,,921090,001,2023-07-06_15h46.32.724,arm3_ET_builderv2,2022.2.5,MacIntel,29.41176471,down,-1,0.55,0.45,43,0,0.627,170,0,170,0,1,,,,,
,,921090,001,2023-07-06_15h46.32.724,arm3_ET_builderv2,2022.2.5,MacIntel,29.41176471,right,-1,0.55,0.45,43,-0.01681772,0.535,171,0,171,0,1,,,,,
,,921090,001,2023-07-06_15h46.32.724,arm3_ET_builderv2,2022.2.5,MacIntel,29.41176471,right,-1,0.55,0.45,43,-0.017193039,0.216,172,0,172,0,1,,,,,
,,921090,001,2023-07-06_15h46.32.724,arm3_ET_builderv2,2022.2.5,MacIntel,29.41176471,right,-1,0.55,0.45,43,-0.021161201,0.178,173,0,173,0,1,,,,,
,,921090,001,2023-07-06_15h46.32.724,arm3_ET_builderv2,2022.2.5,MacIntel,29.41176471,right,-1,0.55,0.45,43,-0.01052531,0.164,174,0,174,0,1,,,,,
,,921090,001,2023-07-06_15h46.32.724,arm3_ET_builderv2,2022.2.5,MacIntel,29.41176471,right,-1,0.55,0.45,43,-0.019589738,0.411,175,0,175,0,1,,,,,
,,921090,001,2023-07-06_15h46.32.724,arm3_ET_builderv2,2022.2.5,MacIntel,29.41176471,right,-1,0.55,0.45,43,-0.04353428,0.329,176,0,176,0,1,,,,,
,,921090,001,2023-07-06_15h46.32.724,arm3_ET_builderv2,2022.2.5,MacIntel,29.41176471,right,-1,0.55,0.45,43,-0.034178499,0.578,177,0,177,0,1,,,,,
,,921090,001,2023-07-06_15h46.32.724,arm3_ET_builderv2,2022.2.5,MacIntel,29.41176471,down,1,0.55,0.45,44,0,0.245,178,0,178,0,1,,,,,
,,921090,001,2023-07-06_15h46.32.724,arm3_ET_builderv2,2022.2.5,MacIntel,29.41176471,right,1,0.55,0.45,44,-0.021220956,0.535,179,0,179,0,1,,,,,
,,921090,001,2023-07-06_15h46.32.724,arm3_ET_builderv2,2022.2.5,MacIntel,29.41176471,right,1,0.55,0.45,44,-0.006829334,0.248,180,0,180,0,1,,,,,
,,921090,001,2023-07-06_15h46.32.724,arm3_ET_builderv2,2022.2.5,MacIntel,29.41176471,right,1,0.55,0.45,44,0.011623372,0.195,181,0,181,0,1,,,,,
,,921090,001,2023-07-06_15h46.32.724,arm3_ET_builderv2,2022.2.5,MacIntel,29.41176471,right,1,0.55,0.45,44,0.036146573,0.303,182,0,182,0,1,,,,,
,,921090,001,2023-07-06_15h46.32.724,arm3_ET_builderv2,2022.2.5,MacIntel,29.41176471,right,1,0.55,0.45,44,0.014032952,0.347,183,0,183,0,1,,,,,
,,921090,001,2023-07-06_15h46.32.724,arm3_ET_builderv2,2022.2.5,MacIntel,29.41176471,right,1,0.55,0.45,44,0.011299748,0.303,184,0,184,0,1,,,,,
,,921090,001,2023-07-06_15h46.32.724,arm3_ET_builderv2,2022.2.5,MacIntel,29.41176471,up,1,0.55,0.45,44,0,0.704,185,0,185,0,1,,,,,
,,921090,001,2023-07-06_15h46.32.724,arm3_ET_builderv2,2022.2.5,MacIntel,29.41176471,right,1,0.55,0.45,44,-7.8284E-05,0.675,186,0,186,0,1,,,,,
,,921090,001,2023-07-06_15h46.32.724,arm3_ET_builderv2,2022.2.5,MacIntel,29.41176471,right,1,0.55,0.45,44,0.045034123,0.277,187,0,187,0,1,,,,,
,,921090,001,2023-07-06_15h46.32.724,arm3_ET_builderv2,2022.2.5,MacIntel,29.41176471,right,1,0.55,0.45,44,0.050296738,0.352,188,0,188,0,1,,,,,
,,921090,001,2023-07-06_15h46.32.724,arm3_ET_builderv2,2022.2.5,MacIntel,29.41176471,up,1,0.55,0.45,45,0,0.379,189,0,189,0,1,,,,,
,,921090,001,2023-07-06_15h46.32.724,arm3_ET_builderv2,2022.2.5,MacIntel,29.41176471,right,1,0.55,0.45,45,-0.00350293,0.532,190,0,190,0,1,,,,,
,,921090,001,2023-07-06_15h46.32.724,arm3_ET_builderv2,2022.2.5,MacIntel,29.41176471,right,1,0.55,0.45,45,0.006193759,0.245,191,0,191,0,1,,,,,
,,921090,001,2023-07-06_15h46.32.724,arm3_ET_builderv2,2022.2.5,MacIntel,29.41176471,right,1,0.55,0.45,45,0.006225053,0.232,192,0,192,0,1,,,,,
,,921090,001,2023-07-06_15h46.32.724,arm3_ET_builderv2,2022.2.5,MacIntel,29.41176471,right,1,0.55,0.45,45,-0.006580812,0.416,193,0,193,0,1,,,,,
,,921090,001,2023-07-06_15h46.32.724,arm3_ET_builderv2,2022.2.5,MacIntel,29.41176471,right,1,0.55,0.45,45,0.02048298,0.502,194,0,194,0,1,,,,,
,,921090,001,2023-07-06_15h46.32.724,arm3_ET_builderv2,2022.2.5,MacIntel,29.41176471,right,1,0.55,0.45,45,0.041011747,1.058,195,0,195,0,1,,,,,
,,921090,001,2023-07-06_15h46.32.724,arm3_ET_builderv2,2022.2.5,MacIntel,29.41176471,up,1,0.55,0.45,45,0,0.983,196,0,196,0,1,,,,,
,,921090,001,2023-07-06_15h46.32.724,arm3_ET_builderv2,2022.2.5,MacIntel,29.41176471,right,1,0.55,0.45,45,-0.010996487,0.577,197,0,197,0,1,,,,,
,,921090,001,2023-07-06_15h46.32.724,arm3_ET_builderv2,2022.2.5,MacIntel,29.41176471,right,1,0.55,0.45,45,-0.016372724,0.265,198,0,198,0,1,,,,,
,,921090,001,2023-07-06_15h46.32.724,arm3_ET_builderv2,2022.2.5,MacIntel,29.41176471,right,1,0.55,0.45,45,-0.033006032,0.361,199,0,199,0,1,,,,,
,,921090,001,2023-07-06_15h46.32.724,arm3_ET_builderv2,2022.2.5,MacIntel,29.41176471,down,1,0.55,0.45,44,0,1.695,200,0,200,0,1,,,,,
,,921090,001,2023-07-06_15h46.32.724,arm3_ET_builderv2,2022.2.5,MacIntel,29.41176471,right,1,0.55,0.45,44,0.008261659,1.041,201,0,201,0,1,,,,,
,,921090,001,2023-07-06_15h46.32.724,arm3_ET_builderv2,2022.2.5,MacIntel,29.41176471,right,1,0.55,0.45,44,0.05426836,0.209,202,0,202,0,1,,,,,
,,921090,001,2023-07-06_15h46.32.724,arm3_ET_builderv2,2022.2.5,MacIntel,29.41176471,right,1,0.55,0.45,44,0.017240637,0.426,203,0,203,0,1,,,,,
,,921090,001,2023-07-06_15h46.32.724,arm3_ET_builderv2,2022.2.5,MacIntel,29.41176471,right,1,0.55,0.45,44,0.006034883,0.318,204,0,204,0,1,,,,,
,,921090,001,2023-07-06_15h46.32.724,arm3_ET_builderv2,2022.2.5,MacIntel,29.41176471,right,1,0.55,0.45,44,0.030023218,0.312,205,0,205,0,1,,,,,
,,921090,001,2023-07-06_15h46.32.724,arm3_ET_builderv2,2022.2.5,MacIntel,29.41176471,right,1,0.55,0.45,44,0.044257975,0.314,206,0,206,0,1,,,,,
,,921090,001,2023-07-06_15h46.32.724,arm3_ET_builderv2,2022.2.5,MacIntel,29.41176471,right,1,0.55,0.45,44,0.047894142,0.411,207,0,207,0,1,,,,,
,,921090,001,2023-07-06_15h46.32.724,arm3_ET_builderv2,2022.2.5,MacIntel,29.41176471,up,1,0.55,0.45,45,0,0.765,208,0,208,0,1,,,,,
,,921090,001,2023-07-06_15h46.32.724,arm3_ET_builderv2,2022.2.5,MacIntel,29.41176471,right,1,0.55,0.45,45,0.007196308,0.544,209,0,209,0,1,,,,,
,,921090,001,2023-07-06_15h46.32.724,arm3_ET_builderv2,2022.2.5,MacIntel,29.41176471,right,1,0.55,0.45,45,0.013039522,0.253,210,0,210,0,1,,,,,
,,921090,001,2023-07-06_15h46.32.724,arm3_ET_builderv2,2022.2.5,MacIntel,29.41176471,right,1,0.55,0.45,45,-0.027397521,0.195,211,0,211,0,1,,,,,
,,921090,001,2023-07-06_15h46.32.724,arm3_ET_builderv2,2022.2.5,MacIntel,29.41176471,right,1,0.55,0.45,45,-0.019187539,0.356,212,0,212,0,1,,,,,
,,921090,001,2023-07-06_15h46.32.724,arm3_ET_builderv2,2022.2.5,MacIntel,29.41176471,right,1,0.55,0.45,45,-5.53377E-05,0.403,213,0,213,0,1,,,,,
,,921090,001,2023-07-06_15h46.32.724,arm3_ET_builderv2,2022.2.5,MacIntel,29.41176471,right,1,0.55,0.45,45,0.027668154,0.362,214,0,214,0,1,,,,,
,,921090,001,2023-07-06_15h46.32.724,arm3_ET_builderv2,2022.2.5,MacIntel,29.41176471,right,1,0.55,0.45,45,0.014306564,0.527,215,0,215,0,1,,,,,
,,921090,001,2023-07-06_15h46.32.724,arm3_ET_builderv2,2022.2.5,MacIntel,29.41176471,right,1,0.55,0.45,45,-0.005307067,0.416,216,0,216,0,1,,,,,
,,921090,001,2023-07-06_15h46.32.724,arm3_ET_builderv2,2022.2.5,MacIntel,29.41176471,right,1,0.55,0.45,45,-0.009585625,0.415,217,0,217,0,1,,,,,
,,921090,001,2023-07-06_15h46.32.724,arm3_ET_builderv2,2022.2.5,MacIntel,29.41176471,right,1,0.55,0.45,45,0.030628316,0.479,218,0,218,0,1,,,,,
,,921090,001,2023-07-06_15h46.32.724,arm3_ET_builderv2,2022.2.5,MacIntel,29.41176471,right,1,0.55,0.45,45,0.025805062,0.384,219,0,219,0,1,,,,,
,,921090,001,2023-07-06_15h46.32.724,arm3_ET_builderv2,2022.2.5,MacIntel,29.41176471,right,1,0.55,0.45,45,0.036678452,0.968,220,0,220,0,1,,,,,
,,921090,001,2023-07-06_15h46.32.724,arm3_ET_builderv2,2022.2.5,MacIntel,29.41176471,up,-1,0.55,0.45,46,0,0.64,221,0,221,0,1,,,,,
,,921090,001,2023-07-06_15h46.32.724,arm3_ET_builderv2,2022.2.5,MacIntel,29.41176471,right,-1,0.55,0.45,46,-0.021131802,0.504,222,0,222,0,1,,,,,
,,921090,001,2023-07-06_15h46.32.724,arm3_ET_builderv2,2022.2.5,MacIntel,29.41176471,right,-1,0.55,0.45,46,-0.047545189,0.206,223,0,223,0,1,,,,,
,,921090,001,2023-07-06_15h46.32.724,arm3_ET_builderv2,2022.2.5,MacIntel,29.41176471,right,-1,0.55,0.45,46,-0.096579521,0.234,224,0,224,0,1,,,,,
,,921090,001,2023-07-06_15h46.32.724,arm3_ET_builderv2,2022.2.5,MacIntel,29.41176471,up,-1,0.55,0.45,45,0,0.497,225,0,225,0,1,,,,,
,,921090,001,2023-07-06_15h46.32.724,arm3_ET_builderv2,2022.2.5,MacIntel,29.41176471,right,-1,0.55,0.45,45,-0.014129333,3.44,226,0,226,0,1,,,,,
,,921090,001,2023-07-06_15h46.32.724,arm3_ET_builderv2,2022.2.5,MacIntel,29.41176471,right,-1,0.55,0.45,45,-0.010355487,0.375,227,0,227,0,1,,,,,
,,921090,001,2023-07-06_15h46.32.724,arm3_ET_builderv2,2022.2.5,MacIntel,29.41176471,right,-1,0.55,0.45,45,0.009845533,0.399,228,0,228,0,1,,,,,
,,921090,001,2023-07-06_15h46.32.724,arm3_ET_builderv2,2022.2.5,MacIntel,29.41176471,right,-1,0.55,0.45,45,-0.010816136,0.543,229,0,229,0,1,,,,,
,,921090,001,2023-07-06_15h46.32.724,arm3_ET_builderv2,2022.2.5,MacIntel,29.41176471,right,-1,0.55,0.45,45,-0.016385422,1.46,230,0,230,0,1,,,,,
,,921090,001,2023-07-06_15h46.32.724,arm3_ET_builderv2,2022.2.5,MacIntel,29.41176471,right,-1,0.55,0.45,45,-0.027420726,0.36,231,0,231,0,1,,,,,
,,921090,001,2023-07-06_15h46.32.724,arm3_ET_builderv2,2022.2.5,MacIntel,29.41176471,down,1,0.55,0.45,46,0,0.462,232,0,232,0,1,,,,,
,,921090,001,2023-07-06_15h46.32.724,arm3_ET_builderv2,2022.2.5,MacIntel,29.41176471,right,1,0.55,0.45,46,0.019397397,0.708,233,0,233,0,1,,,,,
,,921090,001,2023-07-06_15h46.32.724,arm3_ET_builderv2,2022.2.5,MacIntel,29.41176471,right,1,0.55,0.45,46,0.031066896,0.343,234,0,234,0,1,,,,,
,,921090,001,2023-07-06_15h46.32.724,arm3_ET_builderv2,2022.2.5,MacIntel,29.41176471,right,1,0.55,0.45,46,0.061092062,0.262,235,0,235,0,1,,,,,
,,921090,001,2023-07-06_15h46.32.724,arm3_ET_builderv2,2022.2.5,MacIntel,29.41176471,up,-1,0.55,0.45,47,0,0.549,236,0,236,0,1,,,,,
,,921090,001,2023-07-06_15h46.32.724,arm3_ET_builderv2,2022.2.5,MacIntel,29.41176471,right,-1,0.55,0.45,47,0.011805698,0.577,237,0,237,0,1,,,,,
,,921090,001,2023-07-06_15h46.32.724,arm3_ET_builderv2,2022.2.5,MacIntel,29.41176471,right,-1,0.55,0.45,47,0.020939143,0.256,238,0,238,0,1,,,,,
,,921090,001,2023-07-06_15h46.32.724,arm3_ET_builderv2,2022.2.5,MacIntel,29.41176471,right,-1,0.55,0.45,47,0.015965358,0.388,239,0,239,0,1,,,,,
,,921090,001,2023-07-06_15h46.32.724,arm3_ET_builderv2,2022.2.5,MacIntel,29.41176471,right,-1,0.55,0.45,47,0.020698945,0.376,240,0,240,0,1,,,,,
,,921090,001,2023-07-06_15h46.32.724,arm3_ET_builderv2,2022.2.5,MacIntel,29.41176471,right,-1,0.55,0.45,47,-0.01966267,0.536,241,0,241,0,1,,,,,
,,921090,001,2023-07-06_15h46.32.724,arm3_ET_builderv2,2022.2.5,MacIntel,29.41176471,right,-1,0.55,0.45,47,-0.055336982,0.365,242,0,242,0,1,,,,,
,,921090,001,2023-07-06_15h46.32.724,arm3_ET_builderv2,2022.2.5,MacIntel,29.41176471,down,-1,0.55,0.45,47,0,0.277,243,0,243,0,1,,,,,
,,921090,001,2023-07-06_15h46.32.724,arm3_ET_builderv2,2022.2.5,MacIntel,29.41176471,right,-1,0.55,0.45,47,0.018406594,0.734,244,0,244,0,1,,,,,
,,921090,001,2023-07-06_15h46.32.724,arm3_ET_builderv2,2022.2.5,MacIntel,29.41176471,right,-1,0.55,0.45,47,0.012651014,0.261,245,0,245,0,1,,,,,
,,921090,001,2023-07-06_15h46.32.724,arm3_ET_builderv2,2022.2.5,MacIntel,29.41176471,right,-1,0.55,0.45,47,-0.011488937,0.203,246,0,246,0,1,,,,,
,,921090,001,2023-07-06_15h46.32.724,arm3_ET_builderv2,2022.2.5,MacIntel,29.41176471,right,-1,0.55,0.45,47,0.002935713,0.219,247,0,247,0,1,,,,,
,,921090,001,2023-07-06_15h46.32.724,arm3_ET_builderv2,2022.2.5,MacIntel,29.41176471,right,-1,0.55,0.45,47,-0.04639694,0.264,248,0,248,0,1,,,,,
,,921090,001,2023-07-06_15h46.32.724,arm3_ET_builderv2,2022.2.5,MacIntel,29.41176471,right,-1,0.55,0.45,47,-0.0861162,0.261,249,0,249,0,1,,,,,
,,921090,001,2023-07-06_15h46.32.724,arm3_ET_builderv2,2022.2.5,MacIntel,29.41176471,right,-1,0.55,0.45,47,-0.114894246,0.447,250,0,250,0,1,,,,,
