space_bar.keys,space_bar.rt,participant,session,date,expName,psychopyVersion,OS,frameRate,PROLIFIC_PID,STUDY_ID,SESSION_ID,resp.keys,state,q_prob,eps_prob,score,price,resp.rt,train.thisRepN,train.thisTrialN,train.thisN,train.thisIndex,train.ran,steps.thisRepN,steps.thisTrialN,steps.thisN,steps.thisIndex,steps.ran,blocks.thisRepN,blocks.thisTrialN,blocks.thisN,blocks.thisIndex,blocks.ran
space,168.5171,184701,001,2023-07-24_21h21.59.862,arm3_eps,2022.2.5,Win32,60.87168249,60b29948c3753b3707dffe90,64aea9d0f615b6559c281482,64beceffd80eacbe3c775853,,,,,,,,,,,,,,,,,,,,,,
space,52.4714,184701,001,2023-07-24_21h21.59.862,arm3_eps,2022.2.5,Win32,60.87168249,60b29948c3753b3707dffe90,64aea9d0f615b6559c281482,64beceffd80eacbe3c775853,,,,,,,,,,,,,,,,,,,,,,
space,48.5497,184701,001,2023-07-24_21h21.59.862,arm3_eps,2022.2.5,Win32,60.87168249,60b29948c3753b3707dffe90,64aea9d0f615b6559c281482,64beceffd80eacbe3c775853,,,,,,,,,,,,,,,,,,,,,,
space,116.1773,184701,001,2023-07-24_21h21.59.862,arm3_eps,2022.2.5,Win32,60.87168249,60b29948c3753b3707dffe90,64aea9d0f615b6559c281482,64beceffd80eacbe3c775853,,,,,,,,,,,,,,,,,,,,,,
space,42.4586,184701,001,2023-07-24_21h21.59.862,arm3_eps,2022.2.5,Win32,60.87168249,60b29948c3753b3707dffe90,64aea9d0f615b6559c281482,64beceffd80eacbe3c775853,,,,,,,,,,,,,,,,,,,,,,
space,110.9222,184701,001,2023-07-24_21h21.59.862,arm3_eps,2022.2.5,Win32,60.87168249,60b29948c3753b3707dffe90,64aea9d0f615b6559c281482,64beceffd80eacbe3c775853,,,,,,,,,,,,,,,,,,,,,,
space,11.222,184701,001,2023-07-24_21h21.59.862,arm3_eps,2022.2.5,Win32,60.87168249,60b29948c3753b3707dffe90,64aea9d0f615b6559c281482,64beceffd80eacbe3c775853,,,,,,,,,,,,,,,,,,,,,,
space,42.846,184701,001,2023-07-24_21h21.59.862,arm3_eps,2022.2.5,Win32,60.87168249,60b29948c3753b3707dffe90,64aea9d0f615b6559c281482,64beceffd80eacbe3c775853,,,,,,,,,,,,,,,,,,,,,,
space,30.1762,184701,001,2023-07-24_21h21.59.862,arm3_eps,2022.2.5,Win32,60.87168249,60b29948c3753b3707dffe90,64aea9d0f615b6559c281482,64beceffd80eacbe3c775853,,,,,,,,,,,,,,,,,,,,,,
space,24.5229,184701,001,2023-07-24_21h21.59.862,arm3_eps,2022.2.5,Win32,60.87168249,60b29948c3753b3707dffe90,64aea9d0f615b6559c281482,64beceffd80eacbe3c775853,,,,,,,,,,,,,,,,,,,,,,
,,184701,001,2023-07-24_21h21.59.862,arm3_eps,2022.2.5,Win32,60.87168249,60b29948c3753b3707dffe90,64aea9d0f615b6559c281482,64beceffd80eacbe3c775853,up,1,0.3,0.2429,0,0,9.1719,0,0,0,0,1,,,,,,,,,,
,,184701,001,2023-07-24_21h21.59.862,arm3_eps,2022.2.5,Win32,60.87168249,60b29948c3753b3707dffe90,64aea9d0f615b6559c281482,64beceffd80eacbe3c775853,down,1,0.3,0.2429,0,0,5.9384,1,0,1,0,1,,,,,,,,,,
,,184701,001,2023-07-24_21h21.59.862,arm3_eps,2022.2.5,Win32,60.87168249,60b29948c3753b3707dffe90,64aea9d0f615b6559c281482,64beceffd80eacbe3c775853,down,1,0.3,0.2429,0,0,4.6228,2,0,2,0,1,,,,,,,,,,
,,184701,001,2023-07-24_21h21.59.862,arm3_eps,2022.2.5,Win32,60.87168249,60b29948c3753b3707dffe90,64aea9d0f615b6559c281482,64beceffd80eacbe3c775853,down,1,0.3,0.2429,-1,0,4.6558,3,0,3,0,1,,,,,,,,,,
,,184701,001,2023-07-24_21h21.59.862,arm3_eps,2022.2.5,Win32,60.87168249,60b29948c3753b3707dffe90,64aea9d0f615b6559c281482,64beceffd80eacbe3c775853,up,1,0.3,0.2429,-1,0,3.7704,4,0,4,0,1,,,,,,,,,,
,,184701,001,2023-07-24_21h21.59.862,arm3_eps,2022.2.5,Win32,60.87168249,60b29948c3753b3707dffe90,64aea9d0f615b6559c281482,64beceffd80eacbe3c775853,up,1,0.3,0.2429,-1,0,2.1309,5,0,5,0,1,,,,,,,,,,
,,184701,001,2023-07-24_21h21.59.862,arm3_eps,2022.2.5,Win32,60.87168249,60b29948c3753b3707dffe90,64aea9d0f615b6559c281482,64beceffd80eacbe3c775853,up,1,0.3,0.2429,-1,0,4.6492,6,0,6,0,1,,,,,,,,,,
,,184701,001,2023-07-24_21h21.59.862,arm3_eps,2022.2.5,Win32,60.87168249,60b29948c3753b3707dffe90,64aea9d0f615b6559c281482,64beceffd80eacbe3c775853,up,1,0.3,0.2429,0,0,3.3688,7,0,7,0,1,,,,,,,,,,
,,184701,001,2023-07-24_21h21.59.862,arm3_eps,2022.2.5,Win32,60.87168249,60b29948c3753b3707dffe90,64aea9d0f615b6559c281482,64beceffd80eacbe3c775853,right,1,0.3,0.2429,0,-0.000308236,7.8924,8,0,8,0,1,,,,,,,,,,
,,184701,001,2023-07-24_21h21.59.862,arm3_eps,2022.2.5,Win32,60.87168249,60b29948c3753b3707dffe90,64aea9d0f615b6559c281482,64beceffd80eacbe3c775853,right,1,0.3,0.2429,0,-0.003644332,0.9049,9,0,9,0,1,,,,,,,,,,
,,184701,001,2023-07-24_21h21.59.862,arm3_eps,2022.2.5,Win32,60.87168249,60b29948c3753b3707dffe90,64aea9d0f615b6559c281482,64beceffd80eacbe3c775853,right,1,0.3,0.2429,0,0.006043591,0.6577,10,0,10,0,1,,,,,,,,,,
,,184701,001,2023-07-24_21h21.59.862,arm3_eps,2022.2.5,Win32,60.87168249,60b29948c3753b3707dffe90,64aea9d0f615b6559c281482,64beceffd80eacbe3c775853,right,1,0.3,0.2429,0,0.032433415,1.3064,11,0,11,0,1,,,,,,,,,,
,,184701,001,2023-07-24_21h21.59.862,arm3_eps,2022.2.5,Win32,60.87168249,60b29948c3753b3707dffe90,64aea9d0f615b6559c281482,64beceffd80eacbe3c775853,right,1,0.3,0.2429,0,0.020614584,0.5745,12,0,12,0,1,,,,,,,,,,
,,184701,001,2023-07-24_21h21.59.862,arm3_eps,2022.2.5,Win32,60.87168249,60b29948c3753b3707dffe90,64aea9d0f615b6559c281482,64beceffd80eacbe3c775853,right,1,0.3,0.2429,0,0.015501274,0.5915,13,0,13,0,1,,,,,,,,,,
,,184701,001,2023-07-24_21h21.59.862,arm3_eps,2022.2.5,Win32,60.87168249,60b29948c3753b3707dffe90,64aea9d0f615b6559c281482,64beceffd80eacbe3c775853,right,1,0.3,0.2429,0,0.041650722,0.5411,14,0,14,0,1,,,,,,,,,,
,,184701,001,2023-07-24_21h21.59.862,arm3_eps,2022.2.5,Win32,60.87168249,60b29948c3753b3707dffe90,64aea9d0f615b6559c281482,64beceffd80eacbe3c775853,right,1,0.3,0.2429,0,0.017324954,0.5582,15,0,15,0,1,,,,,,,,,,
,,184701,001,2023-07-24_21h21.59.862,arm3_eps,2022.2.5,Win32,60.87168249,60b29948c3753b3707dffe90,64aea9d0f615b6559c281482,64beceffd80eacbe3c775853,right,1,0.3,0.2429,0,0.016773723,0.4417,16,0,16,0,1,,,,,,,,,,
,,184701,001,2023-07-24_21h21.59.862,arm3_eps,2022.2.5,Win32,60.87168249,60b29948c3753b3707dffe90,64aea9d0f615b6559c281482,64beceffd80eacbe3c775853,right,1,0.3,0.2429,0,0.034798678,0.3754,17,0,17,0,1,,,,,,,,,,
,,184701,001,2023-07-24_21h21.59.862,arm3_eps,2022.2.5,Win32,60.87168249,60b29948c3753b3707dffe90,64aea9d0f615b6559c281482,64beceffd80eacbe3c775853,right,1,0.3,0.2429,0,0.066815056,0.4237,18,0,18,0,1,,,,,,,,,,
,,184701,001,2023-07-24_21h21.59.862,arm3_eps,2022.2.5,Win32,60.87168249,60b29948c3753b3707dffe90,64aea9d0f615b6559c281482,64beceffd80eacbe3c775853,right,1,0.3,0.2429,0,0.04304058,0.4248,19,0,19,0,1,,,,,,,,,,
,,184701,001,2023-07-24_21h21.59.862,arm3_eps,2022.2.5,Win32,60.87168249,60b29948c3753b3707dffe90,64aea9d0f615b6559c281482,64beceffd80eacbe3c775853,up,-1,0.3,0.2429,1,0,3.2578,20,0,20,0,1,,,,,,,,,,
,,184701,001,2023-07-24_21h21.59.862,arm3_eps,2022.2.5,Win32,60.87168249,60b29948c3753b3707dffe90,64aea9d0f615b6559c281482,64beceffd80eacbe3c775853,right,-1,0.3,0.2429,1,0.001073441,2.7966,21,0,21,0,1,,,,,,,,,,
,,184701,001,2023-07-24_21h21.59.862,arm3_eps,2022.2.5,Win32,60.87168249,60b29948c3753b3707dffe90,64aea9d0f615b6559c281482,64beceffd80eacbe3c775853,right,-1,0.3,0.2429,1,0.002623872,0.328,22,0,22,0,1,,,,,,,,,,
,,184701,001,2023-07-24_21h21.59.862,arm3_eps,2022.2.5,Win32,60.87168249,60b29948c3753b3707dffe90,64aea9d0f615b6559c281482,64beceffd80eacbe3c775853,right,-1,0.3,0.2429,1,0.001632385,0.3368,23,0,23,0,1,,,,,,,,,,
,,184701,001,2023-07-24_21h21.59.862,arm3_eps,2022.2.5,Win32,60.87168249,60b29948c3753b3707dffe90,64aea9d0f615b6559c281482,64beceffd80eacbe3c775853,right,-1,0.3,0.2429,1,-0.02105764,0.948,24,0,24,0,1,,,,,,,,,,
,,184701,001,2023-07-24_21h21.59.862,arm3_eps,2022.2.5,Win32,60.87168249,60b29948c3753b3707dffe90,64aea9d0f615b6559c281482,64beceffd80eacbe3c775853,right,-1,0.3,0.2429,1,-0.045731748,0.6382,25,0,25,0,1,,,,,,,,,,
,,184701,001,2023-07-24_21h21.59.862,arm3_eps,2022.2.5,Win32,60.87168249,60b29948c3753b3707dffe90,64aea9d0f615b6559c281482,64beceffd80eacbe3c775853,right,-1,0.3,0.2429,1,-0.059829784,0.2036,26,0,26,0,1,,,,,,,,,,
,,184701,001,2023-07-24_21h21.59.862,arm3_eps,2022.2.5,Win32,60.87168249,60b29948c3753b3707dffe90,64aea9d0f615b6559c281482,64beceffd80eacbe3c775853,right,-1,0.3,0.2429,1,-0.090516848,0.2561,27,0,27,0,1,,,,,,,,,,
,,184701,001,2023-07-24_21h21.59.862,arm3_eps,2022.2.5,Win32,60.87168249,60b29948c3753b3707dffe90,64aea9d0f615b6559c281482,64beceffd80eacbe3c775853,down,-1,0.3,0.2429,1,0,1.1921,28,0,28,0,1,,,,,,,,,,
,,184701,001,2023-07-24_21h21.59.862,arm3_eps,2022.2.5,Win32,60.87168249,60b29948c3753b3707dffe90,64aea9d0f615b6559c281482,64beceffd80eacbe3c775853,right,-1,0.3,0.2429,1,0.014613224,1.6924,29,0,29,0,1,,,,,,,,,,
,,184701,001,2023-07-24_21h21.59.862,arm3_eps,2022.2.5,Win32,60.87168249,60b29948c3753b3707dffe90,64aea9d0f615b6559c281482,64beceffd80eacbe3c775853,right,-1,0.3,0.2429,1,-0.006196824,0.3248,30,0,30,0,1,,,,,,,,,,
,,184701,001,2023-07-24_21h21.59.862,arm3_eps,2022.2.5,Win32,60.87168249,60b29948c3753b3707dffe90,64aea9d0f615b6559c281482,64beceffd80eacbe3c775853,right,-1,0.3,0.2429,1,-0.012293293,0.3712,31,0,31,0,1,,,,,,,,,,
,,184701,001,2023-07-24_21h21.59.862,arm3_eps,2022.2.5,Win32,60.87168249,60b29948c3753b3707dffe90,64aea9d0f615b6559c281482,64beceffd80eacbe3c775853,right,-1,0.3,0.2429,1,-0.026582221,0.3796,32,0,32,0,1,,,,,,,,,,
,,184701,001,2023-07-24_21h21.59.862,arm3_eps,2022.2.5,Win32,60.87168249,60b29948c3753b3707dffe90,64aea9d0f615b6559c281482,64beceffd80eacbe3c775853,down,-1,0.3,0.2429,1,0,0.5747,33,0,33,0,1,,,,,,,,,,
,,184701,001,2023-07-24_21h21.59.862,arm3_eps,2022.2.5,Win32,60.87168249,60b29948c3753b3707dffe90,64aea9d0f615b6559c281482,64beceffd80eacbe3c775853,right,-1,0.3,0.2429,1,-0.000909854,3.4459,34,0,34,0,1,,,,,,,,,,
,,184701,001,2023-07-24_21h21.59.862,arm3_eps,2022.2.5,Win32,60.87168249,60b29948c3753b3707dffe90,64aea9d0f615b6559c281482,64beceffd80eacbe3c775853,right,-1,0.3,0.2429,1,-0.01007996,0.2484,35,0,35,0,1,,,,,,,,,,
,,184701,001,2023-07-24_21h21.59.862,arm3_eps,2022.2.5,Win32,60.87168249,60b29948c3753b3707dffe90,64aea9d0f615b6559c281482,64beceffd80eacbe3c775853,right,-1,0.3,0.2429,1,-0.023822055,0.2961,36,0,36,0,1,,,,,,,,,,
,,184701,001,2023-07-24_21h21.59.862,arm3_eps,2022.2.5,Win32,60.87168249,60b29948c3753b3707dffe90,64aea9d0f615b6559c281482,64beceffd80eacbe3c775853,right,-1,0.3,0.2429,1,-0.034170244,0.2406,37,0,37,0,1,,,,,,,,,,
,,184701,001,2023-07-24_21h21.59.862,arm3_eps,2022.2.5,Win32,60.87168249,60b29948c3753b3707dffe90,64aea9d0f615b6559c281482,64beceffd80eacbe3c775853,down,-1,0.3,0.2429,1,0,0.4313,38,0,38,0,1,,,,,,,,,,
,,184701,001,2023-07-24_21h21.59.862,arm3_eps,2022.2.5,Win32,60.87168249,60b29948c3753b3707dffe90,64aea9d0f615b6559c281482,64beceffd80eacbe3c775853,right,-1,0.3,0.2429,1,0.001344162,3.9591,39,0,39,0,1,,,,,,,,,,
,,184701,001,2023-07-24_21h21.59.862,arm3_eps,2022.2.5,Win32,60.87168249,60b29948c3753b3707dffe90,64aea9d0f615b6559c281482,64beceffd80eacbe3c775853,right,-1,0.3,0.2429,1,0.007143274,0.3477,40,0,40,0,1,,,,,,,,,,
,,184701,001,2023-07-24_21h21.59.862,arm3_eps,2022.2.5,Win32,60.87168249,60b29948c3753b3707dffe90,64aea9d0f615b6559c281482,64beceffd80eacbe3c775853,right,-1,0.3,0.2429,1,-0.006960575,0.7478,41,0,41,0,1,,,,,,,,,,
,,184701,001,2023-07-24_21h21.59.862,arm3_eps,2022.2.5,Win32,60.87168249,60b29948c3753b3707dffe90,64aea9d0f615b6559c281482,64beceffd80eacbe3c775853,right,-1,0.3,0.2429,1,-0.003947429,0.57,42,0,42,0,1,,,,,,,,,,
,,184701,001,2023-07-24_21h21.59.862,arm3_eps,2022.2.5,Win32,60.87168249,60b29948c3753b3707dffe90,64aea9d0f615b6559c281482,64beceffd80eacbe3c775853,right,-1,0.3,0.2429,1,-0.017809083,0.4987,43,0,43,0,1,,,,,,,,,,
,,184701,001,2023-07-24_21h21.59.862,arm3_eps,2022.2.5,Win32,60.87168249,60b29948c3753b3707dffe90,64aea9d0f615b6559c281482,64beceffd80eacbe3c775853,right,-1,0.3,0.2429,1,-0.027861793,0.4377,44,0,44,0,1,,,,,,,,,,
,,184701,001,2023-07-24_21h21.59.862,arm3_eps,2022.2.5,Win32,60.87168249,60b29948c3753b3707dffe90,64aea9d0f615b6559c281482,64beceffd80eacbe3c775853,right,-1,0.3,0.2429,1,-0.008468404,0.5563,45,0,45,0,1,,,,,,,,,,
,,184701,001,2023-07-24_21h21.59.862,arm3_eps,2022.2.5,Win32,60.87168249,60b29948c3753b3707dffe90,64aea9d0f615b6559c281482,64beceffd80eacbe3c775853,right,-1,0.3,0.2429,1,-0.035487635,0.4057,46,0,46,0,1,,,,,,,,,,
,,184701,001,2023-07-24_21h21.59.862,arm3_eps,2022.2.5,Win32,60.87168249,60b29948c3753b3707dffe90,64aea9d0f615b6559c281482,64beceffd80eacbe3c775853,right,-1,0.3,0.2429,1,-0.007500185,0.2772,47,0,47,0,1,,,,,,,,,,
,,184701,001,2023-07-24_21h21.59.862,arm3_eps,2022.2.5,Win32,60.87168249,60b29948c3753b3707dffe90,64aea9d0f615b6559c281482,64beceffd80eacbe3c775853,right,-1,0.3,0.2429,1,-0.006549085,0.2753,48,0,48,0,1,,,,,,,,,,
,,184701,001,2023-07-24_21h21.59.862,arm3_eps,2022.2.5,Win32,60.87168249,60b29948c3753b3707dffe90,64aea9d0f615b6559c281482,64beceffd80eacbe3c775853,right,-1,0.3,0.2429,1,-0.021599126,0.2601,49,0,49,0,1,,,,,,,,,,
space,5.0426,184701,001,2023-07-24_21h21.59.862,arm3_eps,2022.2.5,Win32,60.87168249,60b29948c3753b3707dffe90,64aea9d0f615b6559c281482,64beceffd80eacbe3c775853,,,,,,,,,,,,,,,,,,,,,,
space,27.1171,184701,001,2023-07-24_21h21.59.862,arm3_eps,2022.2.5,Win32,60.87168249,60b29948c3753b3707dffe90,64aea9d0f615b6559c281482,64beceffd80eacbe3c775853,right,-1,0.3,0.1786,0,-0.036461821,2.2024,,,,,,0,0,0,0,1,,,,,
,,184701,001,2023-07-24_21h21.59.862,arm3_eps,2022.2.5,Win32,60.87168249,60b29948c3753b3707dffe90,64aea9d0f615b6559c281482,64beceffd80eacbe3c775853,right,-1,0.3,0.1786,0,-0.029526835,0.3308,,,,,,1,0,1,0,1,,,,,
,,184701,001,2023-07-24_21h21.59.862,arm3_eps,2022.2.5,Win32,60.87168249,60b29948c3753b3707dffe90,64aea9d0f615b6559c281482,64beceffd80eacbe3c775853,right,-1,0.3,0.1786,0,-0.064779163,0.2901,,,,,,2,0,2,0,1,,,,,
,,184701,001,2023-07-24_21h21.59.862,arm3_eps,2022.2.5,Win32,60.87168249,60b29948c3753b3707dffe90,64aea9d0f615b6559c281482,64beceffd80eacbe3c775853,right,-1,0.3,0.1786,0,-0.102028179,0.2752,,,,,,3,0,3,0,1,,,,,
,,184701,001,2023-07-24_21h21.59.862,arm3_eps,2022.2.5,Win32,60.87168249,60b29948c3753b3707dffe90,64aea9d0f615b6559c281482,64beceffd80eacbe3c775853,right,-1,0.3,0.1786,0,-0.087803777,0.3417,,,,,,4,0,4,0,1,,,,,
,,184701,001,2023-07-24_21h21.59.862,arm3_eps,2022.2.5,Win32,60.87168249,60b29948c3753b3707dffe90,64aea9d0f615b6559c281482,64beceffd80eacbe3c775853,down,1,0.3,0.1786,1,0,1.0559,,,,,,5,0,5,0,1,,,,,
,,184701,001,2023-07-24_21h21.59.862,arm3_eps,2022.2.5,Win32,60.87168249,60b29948c3753b3707dffe90,64aea9d0f615b6559c281482,64beceffd80eacbe3c775853,right,1,0.3,0.1786,1,0.031755063,2.6155,,,,,,6,0,6,0,1,,,,,
,,184701,001,2023-07-24_21h21.59.862,arm3_eps,2022.2.5,Win32,60.87168249,60b29948c3753b3707dffe90,64aea9d0f615b6559c281482,64beceffd80eacbe3c775853,right,1,0.3,0.1786,1,0.052810871,0.3571,,,,,,7,0,7,0,1,,,,,
,,184701,001,2023-07-24_21h21.59.862,arm3_eps,2022.2.5,Win32,60.87168249,60b29948c3753b3707dffe90,64aea9d0f615b6559c281482,64beceffd80eacbe3c775853,right,1,0.3,0.1786,1,0.044705832,0.5563,,,,,,8,0,8,0,1,,,,,
,,184701,001,2023-07-24_21h21.59.862,arm3_eps,2022.2.5,Win32,60.87168249,60b29948c3753b3707dffe90,64aea9d0f615b6559c281482,64beceffd80eacbe3c775853,right,1,0.3,0.1786,1,0.061308821,0.4673,,,,,,9,0,9,0,1,,,,,
,,184701,001,2023-07-24_21h21.59.862,arm3_eps,2022.2.5,Win32,60.87168249,60b29948c3753b3707dffe90,64aea9d0f615b6559c281482,64beceffd80eacbe3c775853,up,1,0.3,0.1786,1,0,0.3923,,,,,,10,0,10,0,1,,,,,
,,184701,001,2023-07-24_21h21.59.862,arm3_eps,2022.2.5,Win32,60.87168249,60b29948c3753b3707dffe90,64aea9d0f615b6559c281482,64beceffd80eacbe3c775853,right,1,0.3,0.1786,1,0.012971929,1.9783,,,,,,11,0,11,0,1,,,,,
,,184701,001,2023-07-24_21h21.59.862,arm3_eps,2022.2.5,Win32,60.87168249,60b29948c3753b3707dffe90,64aea9d0f615b6559c281482,64beceffd80eacbe3c775853,right,1,0.3,0.1786,1,0.024605003,0.3097,,,,,,12,0,12,0,1,,,,,
,,184701,001,2023-07-24_21h21.59.862,arm3_eps,2022.2.5,Win32,60.87168249,60b29948c3753b3707dffe90,64aea9d0f615b6559c281482,64beceffd80eacbe3c775853,right,1,0.3,0.1786,1,0.026201309,0.2588,,,,,,13,0,13,0,1,,,,,
,,184701,001,2023-07-24_21h21.59.862,arm3_eps,2022.2.5,Win32,60.87168249,60b29948c3753b3707dffe90,64aea9d0f615b6559c281482,64beceffd80eacbe3c775853,right,1,0.3,0.1786,1,0.029135209,0.2263,,,,,,14,0,14,0,1,,,,,
,,184701,001,2023-07-24_21h21.59.862,arm3_eps,2022.2.5,Win32,60.87168249,60b29948c3753b3707dffe90,64aea9d0f615b6559c281482,64beceffd80eacbe3c775853,right,1,0.3,0.1786,1,0.012966291,0.2444,,,,,,15,0,15,0,1,,,,,
,,184701,001,2023-07-24_21h21.59.862,arm3_eps,2022.2.5,Win32,60.87168249,60b29948c3753b3707dffe90,64aea9d0f615b6559c281482,64beceffd80eacbe3c775853,right,1,0.3,0.1786,1,0.000909616,0.2591,,,,,,16,0,16,0,1,,,,,
,,184701,001,2023-07-24_21h21.59.862,arm3_eps,2022.2.5,Win32,60.87168249,60b29948c3753b3707dffe90,64aea9d0f615b6559c281482,64beceffd80eacbe3c775853,right,1,0.3,0.1786,1,0.024411869,0.2915,,,,,,17,0,17,0,1,,,,,
,,184701,001,2023-07-24_21h21.59.862,arm3_eps,2022.2.5,Win32,60.87168249,60b29948c3753b3707dffe90,64aea9d0f615b6559c281482,64beceffd80eacbe3c775853,right,1,0.3,0.1786,1,0.047315602,0.41,,,,,,18,0,18,0,1,,,,,
,,184701,001,2023-07-24_21h21.59.862,arm3_eps,2022.2.5,Win32,60.87168249,60b29948c3753b3707dffe90,64aea9d0f615b6559c281482,64beceffd80eacbe3c775853,up,1,0.3,0.1786,1,0,0.5578,,,,,,19,0,19,0,1,,,,,
,,184701,001,2023-07-24_21h21.59.862,arm3_eps,2022.2.5,Win32,60.87168249,60b29948c3753b3707dffe90,64aea9d0f615b6559c281482,64beceffd80eacbe3c775853,right,1,0.3,0.1786,1,0.005932673,1.831,,,,,,20,0,20,0,1,,,,,
,,184701,001,2023-07-24_21h21.59.862,arm3_eps,2022.2.5,Win32,60.87168249,60b29948c3753b3707dffe90,64aea9d0f615b6559c281482,64beceffd80eacbe3c775853,right,1,0.3,0.1786,1,0.029108975,0.3472,,,,,,21,0,21,0,1,,,,,
,,184701,001,2023-07-24_21h21.59.862,arm3_eps,2022.2.5,Win32,60.87168249,60b29948c3753b3707dffe90,64aea9d0f615b6559c281482,64beceffd80eacbe3c775853,right,1,0.3,0.1786,1,0.002780304,0.8798,,,,,,22,0,22,0,1,,,,,
,,184701,001,2023-07-24_21h21.59.862,arm3_eps,2022.2.5,Win32,60.87168249,60b29948c3753b3707dffe90,64aea9d0f615b6559c281482,64beceffd80eacbe3c775853,right,1,0.3,0.1786,1,0.024734047,0.4307,,,,,,23,0,23,0,1,,,,,
,,184701,001,2023-07-24_21h21.59.862,arm3_eps,2022.2.5,Win32,60.87168249,60b29948c3753b3707dffe90,64aea9d0f615b6559c281482,64beceffd80eacbe3c775853,right,1,0.3,0.1786,1,0.00826784,0.326,,,,,,24,0,24,0,1,,,,,
,,184701,001,2023-07-24_21h21.59.862,arm3_eps,2022.2.5,Win32,60.87168249,60b29948c3753b3707dffe90,64aea9d0f615b6559c281482,64beceffd80eacbe3c775853,right,1,0.3,0.1786,1,0.010119239,0.2923,,,,,,25,0,25,0,1,,,,,
,,184701,001,2023-07-24_21h21.59.862,arm3_eps,2022.2.5,Win32,60.87168249,60b29948c3753b3707dffe90,64aea9d0f615b6559c281482,64beceffd80eacbe3c775853,right,1,0.3,0.1786,1,0.035125736,0.3505,,,,,,26,0,26,0,1,,,,,
,,184701,001,2023-07-24_21h21.59.862,arm3_eps,2022.2.5,Win32,60.87168249,60b29948c3753b3707dffe90,64aea9d0f615b6559c281482,64beceffd80eacbe3c775853,up,1,0.3,0.1786,1,0,0.5883,,,,,,27,0,27,0,1,,,,,
,,184701,001,2023-07-24_21h21.59.862,arm3_eps,2022.2.5,Win32,60.87168249,60b29948c3753b3707dffe90,64aea9d0f615b6559c281482,64beceffd80eacbe3c775853,right,1,0.3,0.1786,1,0.027074118,1.5819,,,,,,28,0,28,0,1,,,,,
,,184701,001,2023-07-24_21h21.59.862,arm3_eps,2022.2.5,Win32,60.87168249,60b29948c3753b3707dffe90,64aea9d0f615b6559c281482,64beceffd80eacbe3c775853,right,1,0.3,0.1786,1,0.020174099,0.2304,,,,,,29,0,29,0,1,,,,,
,,184701,001,2023-07-24_21h21.59.862,arm3_eps,2022.2.5,Win32,60.87168249,60b29948c3753b3707dffe90,64aea9d0f615b6559c281482,64beceffd80eacbe3c775853,right,1,0.3,0.1786,1,0.025479267,0.2561,,,,,,30,0,30,0,1,,,,,
,,184701,001,2023-07-24_21h21.59.862,arm3_eps,2022.2.5,Win32,60.87168249,60b29948c3753b3707dffe90,64aea9d0f615b6559c281482,64beceffd80eacbe3c775853,right,1,0.3,0.1786,1,0.033499333,0.2367,,,,,,31,0,31,0,1,,,,,
,,184701,001,2023-07-24_21h21.59.862,arm3_eps,2022.2.5,Win32,60.87168249,60b29948c3753b3707dffe90,64aea9d0f615b6559c281482,64beceffd80eacbe3c775853,right,1,0.3,0.1786,1,0.052944155,0.265,,,,,,32,0,32,0,1,,,,,
,,184701,001,2023-07-24_21h21.59.862,arm3_eps,2022.2.5,Win32,60.87168249,60b29948c3753b3707dffe90,64aea9d0f615b6559c281482,64beceffd80eacbe3c775853,up,1,0.3,0.1786,1,0,0.7745,,,,,,33,0,33,0,1,,,,,
,,184701,001,2023-07-24_21h21.59.862,arm3_eps,2022.2.5,Win32,60.87168249,60b29948c3753b3707dffe90,64aea9d0f615b6559c281482,64beceffd80eacbe3c775853,right,1,0.3,0.1786,1,0.015877056,2.2977,,,,,,34,0,34,0,1,,,,,
,,184701,001,2023-07-24_21h21.59.862,arm3_eps,2022.2.5,Win32,60.87168249,60b29948c3753b3707dffe90,64aea9d0f615b6559c281482,64beceffd80eacbe3c775853,right,1,0.3,0.1786,1,0.023071691,0.3762,,,,,,35,0,35,0,1,,,,,
,,184701,001,2023-07-24_21h21.59.862,arm3_eps,2022.2.5,Win32,60.87168249,60b29948c3753b3707dffe90,64aea9d0f615b6559c281482,64beceffd80eacbe3c775853,right,1,0.3,0.1786,1,0.054750292,0.2512,,,,,,36,0,36,0,1,,,,,
,,184701,001,2023-07-24_21h21.59.862,arm3_eps,2022.2.5,Win32,60.87168249,60b29948c3753b3707dffe90,64aea9d0f615b6559c281482,64beceffd80eacbe3c775853,right,1,0.3,0.1786,1,0.05969552,0.266,,,,,,37,0,37,0,1,,,,,
,,184701,001,2023-07-24_21h21.59.862,arm3_eps,2022.2.5,Win32,60.87168249,60b29948c3753b3707dffe90,64aea9d0f615b6559c281482,64beceffd80eacbe3c775853,right,1,0.3,0.1786,1,0.065800998,0.2304,,,,,,38,0,38,0,1,,,,,
,,184701,001,2023-07-24_21h21.59.862,arm3_eps,2022.2.5,Win32,60.87168249,60b29948c3753b3707dffe90,64aea9d0f615b6559c281482,64beceffd80eacbe3c775853,right,1,0.3,0.1786,1,0.0672748,0.2145,,,,,,39,0,39,0,1,,,,,
,,184701,001,2023-07-24_21h21.59.862,arm3_eps,2022.2.5,Win32,60.87168249,60b29948c3753b3707dffe90,64aea9d0f615b6559c281482,64beceffd80eacbe3c775853,right,1,0.3,0.1786,1,0.080602897,0.2978,,,,,,40,0,40,0,1,,,,,
,,184701,001,2023-07-24_21h21.59.862,arm3_eps,2022.2.5,Win32,60.87168249,60b29948c3753b3707dffe90,64aea9d0f615b6559c281482,64beceffd80eacbe3c775853,right,1,0.3,0.1786,1,0.054016963,0.2403,,,,,,41,0,41,0,1,,,,,
,,184701,001,2023-07-24_21h21.59.862,arm3_eps,2022.2.5,Win32,60.87168249,60b29948c3753b3707dffe90,64aea9d0f615b6559c281482,64beceffd80eacbe3c775853,down,1,0.3,0.1786,1,0,0.957,,,,,,42,0,42,0,1,,,,,
,,184701,001,2023-07-24_21h21.59.862,arm3_eps,2022.2.5,Win32,60.87168249,60b29948c3753b3707dffe90,64aea9d0f615b6559c281482,64beceffd80eacbe3c775853,right,1,0.3,0.1786,1,0.00994178,1.863,,,,,,43,0,43,0,1,,,,,
,,184701,001,2023-07-24_21h21.59.862,arm3_eps,2022.2.5,Win32,60.87168249,60b29948c3753b3707dffe90,64aea9d0f615b6559c281482,64beceffd80eacbe3c775853,right,1,0.3,0.1786,1,0.041430731,0.2561,,,,,,44,0,44,0,1,,,,,
,,184701,001,2023-07-24_21h21.59.862,arm3_eps,2022.2.5,Win32,60.87168249,60b29948c3753b3707dffe90,64aea9d0f615b6559c281482,64beceffd80eacbe3c775853,right,1,0.3,0.1786,1,0.036453561,0.2577,,,,,,45,0,45,0,1,,,,,
,,184701,001,2023-07-24_21h21.59.862,arm3_eps,2022.2.5,Win32,60.87168249,60b29948c3753b3707dffe90,64aea9d0f615b6559c281482,64beceffd80eacbe3c775853,right,1,0.3,0.1786,1,0.031722993,0.2397,,,,,,46,0,46,0,1,,,,,
,,184701,001,2023-07-24_21h21.59.862,arm3_eps,2022.2.5,Win32,60.87168249,60b29948c3753b3707dffe90,64aea9d0f615b6559c281482,64beceffd80eacbe3c775853,right,1,0.3,0.1786,1,0.044882522,0.2449,,,,,,47,0,47,0,1,,,,,
,,184701,001,2023-07-24_21h21.59.862,arm3_eps,2022.2.5,Win32,60.87168249,60b29948c3753b3707dffe90,64aea9d0f615b6559c281482,64beceffd80eacbe3c775853,right,1,0.3,0.1786,1,0.064964871,0.3711,,,,,,48,0,48,0,1,,,,,
,,184701,001,2023-07-24_21h21.59.862,arm3_eps,2022.2.5,Win32,60.87168249,60b29948c3753b3707dffe90,64aea9d0f615b6559c281482,64beceffd80eacbe3c775853,up,1,0.3,0.1786,1,0,0.8895,,,,,,49,0,49,0,1,,,,,
,,184701,001,2023-07-24_21h21.59.862,arm3_eps,2022.2.5,Win32,60.87168249,60b29948c3753b3707dffe90,64aea9d0f615b6559c281482,64beceffd80eacbe3c775853,right,1,0.3,0.1786,1,0.03710527,1.4607,,,,,,50,0,50,0,1,,,,,
,,184701,001,2023-07-24_21h21.59.862,arm3_eps,2022.2.5,Win32,60.87168249,60b29948c3753b3707dffe90,64aea9d0f615b6559c281482,64beceffd80eacbe3c775853,right,1,0.3,0.1786,1,0.080352369,0.2395,,,,,,51,0,51,0,1,,,,,
,,184701,001,2023-07-24_21h21.59.862,arm3_eps,2022.2.5,Win32,60.87168249,60b29948c3753b3707dffe90,64aea9d0f615b6559c281482,64beceffd80eacbe3c775853,right,1,0.3,0.1786,1,0.087187403,0.206,,,,,,52,0,52,0,1,,,,,
,,184701,001,2023-07-24_21h21.59.862,arm3_eps,2022.2.5,Win32,60.87168249,60b29948c3753b3707dffe90,64aea9d0f615b6559c281482,64beceffd80eacbe3c775853,right,1,0.3,0.1786,1,0.095246489,0.192,,,,,,53,0,53,0,1,,,,,
,,184701,001,2023-07-24_21h21.59.862,arm3_eps,2022.2.5,Win32,60.87168249,60b29948c3753b3707dffe90,64aea9d0f615b6559c281482,64beceffd80eacbe3c775853,right,1,0.3,0.1786,1,0.102227409,0.1906,,,,,,54,0,54,0,1,,,,,
,,184701,001,2023-07-24_21h21.59.862,arm3_eps,2022.2.5,Win32,60.87168249,60b29948c3753b3707dffe90,64aea9d0f615b6559c281482,64beceffd80eacbe3c775853,up,1,0.3,0.1786,2,0,0.3918,,,,,,55,0,55,0,1,,,,,
,,184701,001,2023-07-24_21h21.59.862,arm3_eps,2022.2.5,Win32,60.87168249,60b29948c3753b3707dffe90,64aea9d0f615b6559c281482,64beceffd80eacbe3c775853,right,1,0.3,0.1786,2,-0.014788991,3.2104,,,,,,56,0,56,0,1,,,,,
,,184701,001,2023-07-24_21h21.59.862,arm3_eps,2022.2.5,Win32,60.87168249,60b29948c3753b3707dffe90,64aea9d0f615b6559c281482,64beceffd80eacbe3c775853,right,1,0.3,0.1786,2,-0.029768879,0.2463,,,,,,57,0,57,0,1,,,,,
,,184701,001,2023-07-24_21h21.59.862,arm3_eps,2022.2.5,Win32,60.87168249,60b29948c3753b3707dffe90,64aea9d0f615b6559c281482,64beceffd80eacbe3c775853,right,1,0.3,0.1786,2,-0.002605778,0.2476,,,,,,58,0,58,0,1,,,,,
,,184701,001,2023-07-24_21h21.59.862,arm3_eps,2022.2.5,Win32,60.87168249,60b29948c3753b3707dffe90,64aea9d0f615b6559c281482,64beceffd80eacbe3c775853,right,1,0.3,0.1786,2,0.003440369,0.3641,,,,,,59,0,59,0,1,,,,,
,,184701,001,2023-07-24_21h21.59.862,arm3_eps,2022.2.5,Win32,60.87168249,60b29948c3753b3707dffe90,64aea9d0f615b6559c281482,64beceffd80eacbe3c775853,right,1,0.3,0.1786,2,-0.002099493,0.231,,,,,,60,0,60,0,1,,,,,
,,184701,001,2023-07-24_21h21.59.862,arm3_eps,2022.2.5,Win32,60.87168249,60b29948c3753b3707dffe90,64aea9d0f615b6559c281482,64beceffd80eacbe3c775853,right,1,0.3,0.1786,2,0.007040286,0.2645,,,,,,61,0,61,0,1,,,,,
,,184701,001,2023-07-24_21h21.59.862,arm3_eps,2022.2.5,Win32,60.87168249,60b29948c3753b3707dffe90,64aea9d0f615b6559c281482,64beceffd80eacbe3c775853,right,1,0.3,0.1786,2,0.009731022,0.2793,,,,,,62,0,62,0,1,,,,,
,,184701,001,2023-07-24_21h21.59.862,arm3_eps,2022.2.5,Win32,60.87168249,60b29948c3753b3707dffe90,64aea9d0f615b6559c281482,64beceffd80eacbe3c775853,right,1,0.3,0.1786,2,0.013618696,0.2572,,,,,,63,0,63,0,1,,,,,
,,184701,001,2023-07-24_21h21.59.862,arm3_eps,2022.2.5,Win32,60.87168249,60b29948c3753b3707dffe90,64aea9d0f615b6559c281482,64beceffd80eacbe3c775853,up,1,0.3,0.1786,2,0,0.6395,,,,,,64,0,64,0,1,,,,,
,,184701,001,2023-07-24_21h21.59.862,arm3_eps,2022.2.5,Win32,60.87168249,60b29948c3753b3707dffe90,64aea9d0f615b6559c281482,64beceffd80eacbe3c775853,right,1,0.3,0.1786,2,0.030393873,1.8571,,,,,,65,0,65,0,1,,,,,
,,184701,001,2023-07-24_21h21.59.862,arm3_eps,2022.2.5,Win32,60.87168249,60b29948c3753b3707dffe90,64aea9d0f615b6559c281482,64beceffd80eacbe3c775853,right,1,0.3,0.1786,2,0.061200529,0.258,,,,,,66,0,66,0,1,,,,,
,,184701,001,2023-07-24_21h21.59.862,arm3_eps,2022.2.5,Win32,60.87168249,60b29948c3753b3707dffe90,64aea9d0f615b6559c281482,64beceffd80eacbe3c775853,right,1,0.3,0.1786,2,0.060943741,0.2207,,,,,,67,0,67,0,1,,,,,
,,184701,001,2023-07-24_21h21.59.862,arm3_eps,2022.2.5,Win32,60.87168249,60b29948c3753b3707dffe90,64aea9d0f615b6559c281482,64beceffd80eacbe3c775853,right,1,0.3,0.1786,2,0.062163155,0.2175,,,,,,68,0,68,0,1,,,,,
,,184701,001,2023-07-24_21h21.59.862,arm3_eps,2022.2.5,Win32,60.87168249,60b29948c3753b3707dffe90,64aea9d0f615b6559c281482,64beceffd80eacbe3c775853,right,1,0.3,0.1786,2,0.046591611,0.2461,,,,,,69,0,69,0,1,,,,,
,,184701,001,2023-07-24_21h21.59.862,arm3_eps,2022.2.5,Win32,60.87168249,60b29948c3753b3707dffe90,64aea9d0f615b6559c281482,64beceffd80eacbe3c775853,right,1,0.3,0.1786,2,0.050867166,0.4237,,,,,,70,0,70,0,1,,,,,
,,184701,001,2023-07-24_21h21.59.862,arm3_eps,2022.2.5,Win32,60.87168249,60b29948c3753b3707dffe90,64aea9d0f615b6559c281482,64beceffd80eacbe3c775853,right,1,0.3,0.1786,2,0.067657916,0.2817,,,,,,71,0,71,0,1,,,,,
,,184701,001,2023-07-24_21h21.59.862,arm3_eps,2022.2.5,Win32,60.87168249,60b29948c3753b3707dffe90,64aea9d0f615b6559c281482,64beceffd80eacbe3c775853,up,1,0.3,0.1786,3,0,0.4894,,,,,,72,0,72,0,1,,,,,
,,184701,001,2023-07-24_21h21.59.862,arm3_eps,2022.2.5,Win32,60.87168249,60b29948c3753b3707dffe90,64aea9d0f615b6559c281482,64beceffd80eacbe3c775853,right,1,0.3,0.1786,3,0.012811427,1.6895,,,,,,73,0,73,0,1,,,,,
,,184701,001,2023-07-24_21h21.59.862,arm3_eps,2022.2.5,Win32,60.87168249,60b29948c3753b3707dffe90,64aea9d0f615b6559c281482,64beceffd80eacbe3c775853,right,1,0.3,0.1786,3,0.006123245,0.2223,,,,,,74,0,74,0,1,,,,,
,,184701,001,2023-07-24_21h21.59.862,arm3_eps,2022.2.5,Win32,60.87168249,60b29948c3753b3707dffe90,64aea9d0f615b6559c281482,64beceffd80eacbe3c775853,right,1,0.3,0.1786,3,0.02285206,0.2424,,,,,,75,0,75,0,1,,,,,
,,184701,001,2023-07-24_21h21.59.862,arm3_eps,2022.2.5,Win32,60.87168249,60b29948c3753b3707dffe90,64aea9d0f615b6559c281482,64beceffd80eacbe3c775853,right,1,0.3,0.1786,3,0.048137784,0.2106,,,,,,76,0,76,0,1,,,,,
,,184701,001,2023-07-24_21h21.59.862,arm3_eps,2022.2.5,Win32,60.87168249,60b29948c3753b3707dffe90,64aea9d0f615b6559c281482,64beceffd80eacbe3c775853,right,1,0.3,0.1786,3,0.070398179,0.2258,,,,,,77,0,77,0,1,,,,,
,,184701,001,2023-07-24_21h21.59.862,arm3_eps,2022.2.5,Win32,60.87168249,60b29948c3753b3707dffe90,64aea9d0f615b6559c281482,64beceffd80eacbe3c775853,right,1,0.3,0.1786,3,0.074180292,0.2241,,,,,,78,0,78,0,1,,,,,
,,184701,001,2023-07-24_21h21.59.862,arm3_eps,2022.2.5,Win32,60.87168249,60b29948c3753b3707dffe90,64aea9d0f615b6559c281482,64beceffd80eacbe3c775853,right,1,0.3,0.1786,3,0.059302754,0.4602,,,,,,79,0,79,0,1,,,,,
,,184701,001,2023-07-24_21h21.59.862,arm3_eps,2022.2.5,Win32,60.87168249,60b29948c3753b3707dffe90,64aea9d0f615b6559c281482,64beceffd80eacbe3c775853,right,1,0.3,0.1786,3,0.041844338,0.3795,,,,,,80,0,80,0,1,,,,,
,,184701,001,2023-07-24_21h21.59.862,arm3_eps,2022.2.5,Win32,60.87168249,60b29948c3753b3707dffe90,64aea9d0f615b6559c281482,64beceffd80eacbe3c775853,right,1,0.3,0.1786,3,0.059072092,0.3372,,,,,,81,0,81,0,1,,,,,
,,184701,001,2023-07-24_21h21.59.862,arm3_eps,2022.2.5,Win32,60.87168249,60b29948c3753b3707dffe90,64aea9d0f615b6559c281482,64beceffd80eacbe3c775853,up,-1,0.3,0.1786,3,0,0.4605,,,,,,82,0,82,0,1,,,,,
,,184701,001,2023-07-24_21h21.59.862,arm3_eps,2022.2.5,Win32,60.87168249,60b29948c3753b3707dffe90,64aea9d0f615b6559c281482,64beceffd80eacbe3c775853,right,-1,0.3,0.1786,3,0.004232811,1.6219,,,,,,83,0,83,0,1,,,,,
,,184701,001,2023-07-24_21h21.59.862,arm3_eps,2022.2.5,Win32,60.87168249,60b29948c3753b3707dffe90,64aea9d0f615b6559c281482,64beceffd80eacbe3c775853,right,-1,0.3,0.1786,3,-0.000936197,0.2421,,,,,,84,0,84,0,1,,,,,
,,184701,001,2023-07-24_21h21.59.862,arm3_eps,2022.2.5,Win32,60.87168249,60b29948c3753b3707dffe90,64aea9d0f615b6559c281482,64beceffd80eacbe3c775853,right,-1,0.3,0.1786,3,0.020688561,0.2086,,,,,,85,0,85,0,1,,,,,
,,184701,001,2023-07-24_21h21.59.862,arm3_eps,2022.2.5,Win32,60.87168249,60b29948c3753b3707dffe90,64aea9d0f615b6559c281482,64beceffd80eacbe3c775853,right,-1,0.3,0.1786,3,-0.018494507,0.2146,,,,,,86,0,86,0,1,,,,,
,,184701,001,2023-07-24_21h21.59.862,arm3_eps,2022.2.5,Win32,60.87168249,60b29948c3753b3707dffe90,64aea9d0f615b6559c281482,64beceffd80eacbe3c775853,right,-1,0.3,0.1786,3,-0.023884072,0.2248,,,,,,87,0,87,0,1,,,,,
,,184701,001,2023-07-24_21h21.59.862,arm3_eps,2022.2.5,Win32,60.87168249,60b29948c3753b3707dffe90,64aea9d0f615b6559c281482,64beceffd80eacbe3c775853,down,1,0.3,0.1786,3,0,0.8299,,,,,,88,0,88,0,1,,,,,
,,184701,001,2023-07-24_21h21.59.862,arm3_eps,2022.2.5,Win32,60.87168249,60b29948c3753b3707dffe90,64aea9d0f615b6559c281482,64beceffd80eacbe3c775853,right,1,0.3,0.1786,3,-0.001248559,1.712,,,,,,89,0,89,0,1,,,,,
,,184701,001,2023-07-24_21h21.59.862,arm3_eps,2022.2.5,Win32,60.87168249,60b29948c3753b3707dffe90,64aea9d0f615b6559c281482,64beceffd80eacbe3c775853,right,1,0.3,0.1786,3,-0.009121851,0.2433,,,,,,90,0,90,0,1,,,,,
,,184701,001,2023-07-24_21h21.59.862,arm3_eps,2022.2.5,Win32,60.87168249,60b29948c3753b3707dffe90,64aea9d0f615b6559c281482,64beceffd80eacbe3c775853,right,1,0.3,0.1786,3,-0.022653593,0.2418,,,,,,91,0,91,0,1,,,,,
,,184701,001,2023-07-24_21h21.59.862,arm3_eps,2022.2.5,Win32,60.87168249,60b29948c3753b3707dffe90,64aea9d0f615b6559c281482,64beceffd80eacbe3c775853,right,1,0.3,0.1786,3,-0.014534045,0.2246,,,,,,92,0,92,0,1,,,,,
,,184701,001,2023-07-24_21h21.59.862,arm3_eps,2022.2.5,Win32,60.87168249,60b29948c3753b3707dffe90,64aea9d0f615b6559c281482,64beceffd80eacbe3c775853,right,1,0.3,0.1786,3,0.004739455,0.21,,,,,,93,0,93,0,1,,,,,
,,184701,001,2023-07-24_21h21.59.862,arm3_eps,2022.2.5,Win32,60.87168249,60b29948c3753b3707dffe90,64aea9d0f615b6559c281482,64beceffd80eacbe3c775853,right,1,0.3,0.1786,3,-0.008773032,0.2247,,,,,,94,0,94,0,1,,,,,
,,184701,001,2023-07-24_21h21.59.862,arm3_eps,2022.2.5,Win32,60.87168249,60b29948c3753b3707dffe90,64aea9d0f615b6559c281482,64beceffd80eacbe3c775853,right,1,0.3,0.1786,3,0.003098683,0.2092,,,,,,95,0,95,0,1,,,,,
,,184701,001,2023-07-24_21h21.59.862,arm3_eps,2022.2.5,Win32,60.87168249,60b29948c3753b3707dffe90,64aea9d0f615b6559c281482,64beceffd80eacbe3c775853,right,1,0.3,0.1786,3,0.020209588,0.3423,,,,,,96,0,96,0,1,,,,,
,,184701,001,2023-07-24_21h21.59.862,arm3_eps,2022.2.5,Win32,60.87168249,60b29948c3753b3707dffe90,64aea9d0f615b6559c281482,64beceffd80eacbe3c775853,right,1,0.3,0.1786,3,0.000909958,0.2763,,,,,,97,0,97,0,1,,,,,
,,184701,001,2023-07-24_21h21.59.862,arm3_eps,2022.2.5,Win32,60.87168249,60b29948c3753b3707dffe90,64aea9d0f615b6559c281482,64beceffd80eacbe3c775853,right,1,0.3,0.1786,3,0.005009218,0.2412,,,,,,98,0,98,0,1,,,,,
,,184701,001,2023-07-24_21h21.59.862,arm3_eps,2022.2.5,Win32,60.87168249,60b29948c3753b3707dffe90,64aea9d0f615b6559c281482,64beceffd80eacbe3c775853,right,1,0.3,0.1786,3,0.032200259,0.1937,,,,,,99,0,99,0,1,,,,,
,,184701,001,2023-07-24_21h21.59.862,arm3_eps,2022.2.5,Win32,60.87168249,60b29948c3753b3707dffe90,64aea9d0f615b6559c281482,64beceffd80eacbe3c775853,up,-1,0.3,0.1786,3,0,1.4911,,,,,,100,0,100,0,1,,,,,
,,184701,001,2023-07-24_21h21.59.862,arm3_eps,2022.2.5,Win32,60.87168249,60b29948c3753b3707dffe90,64aea9d0f615b6559c281482,64beceffd80eacbe3c775853,right,-1,0.3,0.1786,3,0.020341222,1.9668,,,,,,101,0,101,0,1,,,,,
,,184701,001,2023-07-24_21h21.59.862,arm3_eps,2022.2.5,Win32,60.87168249,60b29948c3753b3707dffe90,64aea9d0f615b6559c281482,64beceffd80eacbe3c775853,right,-1,0.3,0.1786,3,0.016825787,0.3154,,,,,,102,0,102,0,1,,,,,
,,184701,001,2023-07-24_21h21.59.862,arm3_eps,2022.2.5,Win32,60.87168249,60b29948c3753b3707dffe90,64aea9d0f615b6559c281482,64beceffd80eacbe3c775853,right,-1,0.3,0.1786,3,0.018748472,0.23,,,,,,103,0,103,0,1,,,,,
,,184701,001,2023-07-24_21h21.59.862,arm3_eps,2022.2.5,Win32,60.87168249,60b29948c3753b3707dffe90,64aea9d0f615b6559c281482,64beceffd80eacbe3c775853,right,-1,0.3,0.1786,3,-0.001061072,0.2554,,,,,,104,0,104,0,1,,,,,
,,184701,001,2023-07-24_21h21.59.862,arm3_eps,2022.2.5,Win32,60.87168249,60b29948c3753b3707dffe90,64aea9d0f615b6559c281482,64beceffd80eacbe3c775853,right,-1,0.3,0.1786,3,0.00464025,0.228,,,,,,105,0,105,0,1,,,,,
,,184701,001,2023-07-24_21h21.59.862,arm3_eps,2022.2.5,Win32,60.87168249,60b29948c3753b3707dffe90,64aea9d0f615b6559c281482,64beceffd80eacbe3c775853,right,-1,0.3,0.1786,3,0.017489245,0.254,,,,,,106,0,106,0,1,,,,,
,,184701,001,2023-07-24_21h21.59.862,arm3_eps,2022.2.5,Win32,60.87168249,60b29948c3753b3707dffe90,64aea9d0f615b6559c281482,64beceffd80eacbe3c775853,right,-1,0.3,0.1786,3,-0.016199281,0.2327,,,,,,107,0,107,0,1,,,,,
,,184701,001,2023-07-24_21h21.59.862,arm3_eps,2022.2.5,Win32,60.87168249,60b29948c3753b3707dffe90,64aea9d0f615b6559c281482,64beceffd80eacbe3c775853,right,-1,0.3,0.1786,3,-0.003809534,0.4092,,,,,,108,0,108,0,1,,,,,
,,184701,001,2023-07-24_21h21.59.862,arm3_eps,2022.2.5,Win32,60.87168249,60b29948c3753b3707dffe90,64aea9d0f615b6559c281482,64beceffd80eacbe3c775853,right,-1,0.3,0.1786,3,0.010563932,0.2406,,,,,,109,0,109,0,1,,,,,
,,184701,001,2023-07-24_21h21.59.862,arm3_eps,2022.2.5,Win32,60.87168249,60b29948c3753b3707dffe90,64aea9d0f615b6559c281482,64beceffd80eacbe3c775853,right,-1,0.3,0.1786,3,0.01176423,1.1072,,,,,,110,0,110,0,1,,,,,
,,184701,001,2023-07-24_21h21.59.862,arm3_eps,2022.2.5,Win32,60.87168249,60b29948c3753b3707dffe90,64aea9d0f615b6559c281482,64beceffd80eacbe3c775853,down,-1,0.3,0.1786,4,0,1.5823,,,,,,111,0,111,0,1,,,,,
,,184701,001,2023-07-24_21h21.59.862,arm3_eps,2022.2.5,Win32,60.87168249,60b29948c3753b3707dffe90,64aea9d0f615b6559c281482,64beceffd80eacbe3c775853,right,-1,0.3,0.1786,4,-0.013992934,1.991,,,,,,112,0,112,0,1,,,,,
,,184701,001,2023-07-24_21h21.59.862,arm3_eps,2022.2.5,Win32,60.87168249,60b29948c3753b3707dffe90,64aea9d0f615b6559c281482,64beceffd80eacbe3c775853,right,-1,0.3,0.1786,4,-0.00767577,0.2661,,,,,,113,0,113,0,1,,,,,
,,184701,001,2023-07-24_21h21.59.862,arm3_eps,2022.2.5,Win32,60.87168249,60b29948c3753b3707dffe90,64aea9d0f615b6559c281482,64beceffd80eacbe3c775853,right,-1,0.3,0.1786,4,-0.0539669,0.2398,,,,,,114,0,114,0,1,,,,,
,,184701,001,2023-07-24_21h21.59.862,arm3_eps,2022.2.5,Win32,60.87168249,60b29948c3753b3707dffe90,64aea9d0f615b6559c281482,64beceffd80eacbe3c775853,right,-1,0.3,0.1786,4,-0.085462929,1.759,,,,,,115,0,115,0,1,,,,,
,,184701,001,2023-07-24_21h21.59.862,arm3_eps,2022.2.5,Win32,60.87168249,60b29948c3753b3707dffe90,64aea9d0f615b6559c281482,64beceffd80eacbe3c775853,right,-1,0.3,0.1786,4,-0.092118048,0.4593,,,,,,116,0,116,0,1,,,,,
,,184701,001,2023-07-24_21h21.59.862,arm3_eps,2022.2.5,Win32,60.87168249,60b29948c3753b3707dffe90,64aea9d0f615b6559c281482,64beceffd80eacbe3c775853,right,-1,0.3,0.1786,4,-0.055331391,0.3263,,,,,,117,0,117,0,1,,,,,
,,184701,001,2023-07-24_21h21.59.862,arm3_eps,2022.2.5,Win32,60.87168249,60b29948c3753b3707dffe90,64aea9d0f615b6559c281482,64beceffd80eacbe3c775853,right,-1,0.3,0.1786,4,-0.064933452,0.4254,,,,,,118,0,118,0,1,,,,,
,,184701,001,2023-07-24_21h21.59.862,arm3_eps,2022.2.5,Win32,60.87168249,60b29948c3753b3707dffe90,64aea9d0f615b6559c281482,64beceffd80eacbe3c775853,down,-1,0.3,0.1786,4,0,0.4259,,,,,,119,0,119,0,1,,,,,
,,184701,001,2023-07-24_21h21.59.862,arm3_eps,2022.2.5,Win32,60.87168249,60b29948c3753b3707dffe90,64aea9d0f615b6559c281482,64beceffd80eacbe3c775853,right,-1,0.3,0.1786,4,-0.01331468,2.2584,,,,,,120,0,120,0,1,,,,,
,,184701,001,2023-07-24_21h21.59.862,arm3_eps,2022.2.5,Win32,60.87168249,60b29948c3753b3707dffe90,64aea9d0f615b6559c281482,64beceffd80eacbe3c775853,right,-1,0.3,0.1786,4,-0.041926994,0.2081,,,,,,121,0,121,0,1,,,,,
,,184701,001,2023-07-24_21h21.59.862,arm3_eps,2022.2.5,Win32,60.87168249,60b29948c3753b3707dffe90,64aea9d0f615b6559c281482,64beceffd80eacbe3c775853,right,-1,0.3,0.1786,4,-0.016091296,0.3921,,,,,,122,0,122,0,1,,,,,
,,184701,001,2023-07-24_21h21.59.862,arm3_eps,2022.2.5,Win32,60.87168249,60b29948c3753b3707dffe90,64aea9d0f615b6559c281482,64beceffd80eacbe3c775853,right,-1,0.3,0.1786,4,-0.036650382,0.2583,,,,,,123,0,123,0,1,,,,,
,,184701,001,2023-07-24_21h21.59.862,arm3_eps,2022.2.5,Win32,60.87168249,60b29948c3753b3707dffe90,64aea9d0f615b6559c281482,64beceffd80eacbe3c775853,right,-1,0.3,0.1786,4,-0.032533613,0.2754,,,,,,124,0,124,0,1,,,,,
,,184701,001,2023-07-24_21h21.59.862,arm3_eps,2022.2.5,Win32,60.87168249,60b29948c3753b3707dffe90,64aea9d0f615b6559c281482,64beceffd80eacbe3c775853,right,-1,0.3,0.1786,4,-0.024783976,1.0452,,,,,,125,0,125,0,1,,,,,
,,184701,001,2023-07-24_21h21.59.862,arm3_eps,2022.2.5,Win32,60.87168249,60b29948c3753b3707dffe90,64aea9d0f615b6559c281482,64beceffd80eacbe3c775853,right,-1,0.3,0.1786,4,-0.044157715,0.6861,,,,,,126,0,126,0,1,,,,,
,,184701,001,2023-07-24_21h21.59.862,arm3_eps,2022.2.5,Win32,60.87168249,60b29948c3753b3707dffe90,64aea9d0f615b6559c281482,64beceffd80eacbe3c775853,right,-1,0.3,0.1786,4,-0.026301083,0.2086,,,,,,127,0,127,0,1,,,,,
,,184701,001,2023-07-24_21h21.59.862,arm3_eps,2022.2.5,Win32,60.87168249,60b29948c3753b3707dffe90,64aea9d0f615b6559c281482,64beceffd80eacbe3c775853,up,1,0.3,0.1786,4,0,0.7228,,,,,,128,0,128,0,1,,,,,
,,184701,001,2023-07-24_21h21.59.862,arm3_eps,2022.2.5,Win32,60.87168249,60b29948c3753b3707dffe90,64aea9d0f615b6559c281482,64beceffd80eacbe3c775853,right,1,0.3,0.1786,4,0.004367683,1.299,,,,,,129,0,129,0,1,,,,,
,,184701,001,2023-07-24_21h21.59.862,arm3_eps,2022.2.5,Win32,60.87168249,60b29948c3753b3707dffe90,64aea9d0f615b6559c281482,64beceffd80eacbe3c775853,right,1,0.3,0.1786,4,0.021108811,0.1833,,,,,,130,0,130,0,1,,,,,
,,184701,001,2023-07-24_21h21.59.862,arm3_eps,2022.2.5,Win32,60.87168249,60b29948c3753b3707dffe90,64aea9d0f615b6559c281482,64beceffd80eacbe3c775853,right,1,0.3,0.1786,4,0.037254941,0.3971,,,,,,131,0,131,0,1,,,,,
,,184701,001,2023-07-24_21h21.59.862,arm3_eps,2022.2.5,Win32,60.87168249,60b29948c3753b3707dffe90,64aea9d0f615b6559c281482,64beceffd80eacbe3c775853,right,1,0.3,0.1786,4,0.063982139,0.2736,,,,,,132,0,132,0,1,,,,,
,,184701,001,2023-07-24_21h21.59.862,arm3_eps,2022.2.5,Win32,60.87168249,60b29948c3753b3707dffe90,64aea9d0f615b6559c281482,64beceffd80eacbe3c775853,right,1,0.3,0.1786,4,0.067471283,0.5067,,,,,,133,0,133,0,1,,,,,
,,184701,001,2023-07-24_21h21.59.862,arm3_eps,2022.2.5,Win32,60.87168249,60b29948c3753b3707dffe90,64aea9d0f615b6559c281482,64beceffd80eacbe3c775853,right,1,0.3,0.1786,4,0.037550347,0.824,,,,,,134,0,134,0,1,,,,,
,,184701,001,2023-07-24_21h21.59.862,arm3_eps,2022.2.5,Win32,60.87168249,60b29948c3753b3707dffe90,64aea9d0f615b6559c281482,64beceffd80eacbe3c775853,right,1,0.3,0.1786,4,0.061212381,0.224,,,,,,135,0,135,0,1,,,,,
,,184701,001,2023-07-24_21h21.59.862,arm3_eps,2022.2.5,Win32,60.87168249,60b29948c3753b3707dffe90,64aea9d0f615b6559c281482,64beceffd80eacbe3c775853,up,1,0.3,0.1786,4,0,0.9655,,,,,,136,0,136,0,1,,,,,
,,184701,001,2023-07-24_21h21.59.862,arm3_eps,2022.2.5,Win32,60.87168249,60b29948c3753b3707dffe90,64aea9d0f615b6559c281482,64beceffd80eacbe3c775853,right,1,0.3,0.1786,4,0.006191735,1.6787,,,,,,137,0,137,0,1,,,,,
,,184701,001,2023-07-24_21h21.59.862,arm3_eps,2022.2.5,Win32,60.87168249,60b29948c3753b3707dffe90,64aea9d0f615b6559c281482,64beceffd80eacbe3c775853,right,1,0.3,0.1786,4,0.019806273,0.227,,,,,,138,0,138,0,1,,,,,
,,184701,001,2023-07-24_21h21.59.862,arm3_eps,2022.2.5,Win32,60.87168249,60b29948c3753b3707dffe90,64aea9d0f615b6559c281482,64beceffd80eacbe3c775853,right,1,0.3,0.1786,4,0.033280787,0.2085,,,,,,139,0,139,0,1,,,,,
,,184701,001,2023-07-24_21h21.59.862,arm3_eps,2022.2.5,Win32,60.87168249,60b29948c3753b3707dffe90,64aea9d0f615b6559c281482,64beceffd80eacbe3c775853,right,1,0.3,0.1786,4,0.000469218,0.241,,,,,,140,0,140,0,1,,,,,
,,184701,001,2023-07-24_21h21.59.862,arm3_eps,2022.2.5,Win32,60.87168249,60b29948c3753b3707dffe90,64aea9d0f615b6559c281482,64beceffd80eacbe3c775853,right,1,0.3,0.1786,4,0.02990677,0.2249,,,,,,141,0,141,0,1,,,,,
,,184701,001,2023-07-24_21h21.59.862,arm3_eps,2022.2.5,Win32,60.87168249,60b29948c3753b3707dffe90,64aea9d0f615b6559c281482,64beceffd80eacbe3c775853,right,1,0.3,0.1786,4,0.051967144,0.2643,,,,,,142,0,142,0,1,,,,,
,,184701,001,2023-07-24_21h21.59.862,arm3_eps,2022.2.5,Win32,60.87168249,60b29948c3753b3707dffe90,64aea9d0f615b6559c281482,64beceffd80eacbe3c775853,right,1,0.3,0.1786,4,0.086176944,0.2411,,,,,,143,0,143,0,1,,,,,
,,184701,001,2023-07-24_21h21.59.862,arm3_eps,2022.2.5,Win32,60.87168249,60b29948c3753b3707dffe90,64aea9d0f615b6559c281482,64beceffd80eacbe3c775853,up,1,0.3,0.1786,5,0,0.5613,,,,,,144,0,144,0,1,,,,,
,,184701,001,2023-07-24_21h21.59.862,arm3_eps,2022.2.5,Win32,60.87168249,60b29948c3753b3707dffe90,64aea9d0f615b6559c281482,64beceffd80eacbe3c775853,right,1,0.3,0.1786,5,0.032874063,1.6454,,,,,,145,0,145,0,1,,,,,
,,184701,001,2023-07-24_21h21.59.862,arm3_eps,2022.2.5,Win32,60.87168249,60b29948c3753b3707dffe90,64aea9d0f615b6559c281482,64beceffd80eacbe3c775853,right,1,0.3,0.1786,5,0.034385587,0.2926,,,,,,146,0,146,0,1,,,,,
,,184701,001,2023-07-24_21h21.59.862,arm3_eps,2022.2.5,Win32,60.87168249,60b29948c3753b3707dffe90,64aea9d0f615b6559c281482,64beceffd80eacbe3c775853,right,1,0.3,0.1786,5,0.066177734,0.1767,,,,,,147,0,147,0,1,,,,,
,,184701,001,2023-07-24_21h21.59.862,arm3_eps,2022.2.5,Win32,60.87168249,60b29948c3753b3707dffe90,64aea9d0f615b6559c281482,64beceffd80eacbe3c775853,right,1,0.3,0.1786,5,0.100431114,0.2747,,,,,,148,0,148,0,1,,,,,
,,184701,001,2023-07-24_21h21.59.862,arm3_eps,2022.2.5,Win32,60.87168249,60b29948c3753b3707dffe90,64aea9d0f615b6559c281482,64beceffd80eacbe3c775853,right,1,0.3,0.1786,5,0.111197109,0.2615,,,,,,149,0,149,0,1,,,,,
,,184701,001,2023-07-24_21h21.59.862,arm3_eps,2022.2.5,Win32,60.87168249,60b29948c3753b3707dffe90,64aea9d0f615b6559c281482,64beceffd80eacbe3c775853,right,1,0.3,0.1786,5,0.113348601,0.2264,,,,,,150,0,150,0,1,,,,,
,,184701,001,2023-07-24_21h21.59.862,arm3_eps,2022.2.5,Win32,60.87168249,60b29948c3753b3707dffe90,64aea9d0f615b6559c281482,64beceffd80eacbe3c775853,right,1,0.3,0.1786,5,0.149386241,0.2422,,,,,,151,0,151,0,1,,,,,
,,184701,001,2023-07-24_21h21.59.862,arm3_eps,2022.2.5,Win32,60.87168249,60b29948c3753b3707dffe90,64aea9d0f615b6559c281482,64beceffd80eacbe3c775853,right,1,0.3,0.1786,5,0.11975437,0.2587,,,,,,152,0,152,0,1,,,,,
,,184701,001,2023-07-24_21h21.59.862,arm3_eps,2022.2.5,Win32,60.87168249,60b29948c3753b3707dffe90,64aea9d0f615b6559c281482,64beceffd80eacbe3c775853,right,1,0.3,0.1786,5,0.122353776,0.7732,,,,,,153,0,153,0,1,,,,,
,,184701,001,2023-07-24_21h21.59.862,arm3_eps,2022.2.5,Win32,60.87168249,60b29948c3753b3707dffe90,64aea9d0f615b6559c281482,64beceffd80eacbe3c775853,up,1,0.3,0.1786,6,0,0.3928,,,,,,154,0,154,0,1,,,,,
,,184701,001,2023-07-24_21h21.59.862,arm3_eps,2022.2.5,Win32,60.87168249,60b29948c3753b3707dffe90,64aea9d0f615b6559c281482,64beceffd80eacbe3c775853,right,1,0.3,0.1786,6,0.012806869,1.8786,,,,,,155,0,155,0,1,,,,,
,,184701,001,2023-07-24_21h21.59.862,arm3_eps,2022.2.5,Win32,60.87168249,60b29948c3753b3707dffe90,64aea9d0f615b6559c281482,64beceffd80eacbe3c775853,right,1,0.3,0.1786,6,0.043539392,0.1982,,,,,,156,0,156,0,1,,,,,
,,184701,001,2023-07-24_21h21.59.862,arm3_eps,2022.2.5,Win32,60.87168249,60b29948c3753b3707dffe90,64aea9d0f615b6559c281482,64beceffd80eacbe3c775853,right,1,0.3,0.1786,6,0.049946147,0.2398,,,,,,157,0,157,0,1,,,,,
,,184701,001,2023-07-24_21h21.59.862,arm3_eps,2022.2.5,Win32,60.87168249,60b29948c3753b3707dffe90,64aea9d0f615b6559c281482,64beceffd80eacbe3c775853,right,1,0.3,0.1786,6,0.040098935,0.1911,,,,,,158,0,158,0,1,,,,,
,,184701,001,2023-07-24_21h21.59.862,arm3_eps,2022.2.5,Win32,60.87168249,60b29948c3753b3707dffe90,64aea9d0f615b6559c281482,64beceffd80eacbe3c775853,right,1,0.3,0.1786,6,0.058834026,0.2244,,,,,,159,0,159,0,1,,,,,
,,184701,001,2023-07-24_21h21.59.862,arm3_eps,2022.2.5,Win32,60.87168249,60b29948c3753b3707dffe90,64aea9d0f615b6559c281482,64beceffd80eacbe3c775853,right,1,0.3,0.1786,6,0.053904889,0.2161,,,,,,160,0,160,0,1,,,,,
,,184701,001,2023-07-24_21h21.59.862,arm3_eps,2022.2.5,Win32,60.87168249,60b29948c3753b3707dffe90,64aea9d0f615b6559c281482,64beceffd80eacbe3c775853,right,1,0.3,0.1786,6,0.044454579,0.2474,,,,,,161,0,161,0,1,,,,,
,,184701,001,2023-07-24_21h21.59.862,arm3_eps,2022.2.5,Win32,60.87168249,60b29948c3753b3707dffe90,64aea9d0f615b6559c281482,64beceffd80eacbe3c775853,right,1,0.3,0.1786,6,0.028572004,0.273,,,,,,162,0,162,0,1,,,,,
,,184701,001,2023-07-24_21h21.59.862,arm3_eps,2022.2.5,Win32,60.87168249,60b29948c3753b3707dffe90,64aea9d0f615b6559c281482,64beceffd80eacbe3c775853,right,1,0.3,0.1786,6,0.031086346,0.2752,,,,,,163,0,163,0,1,,,,,
,,184701,001,2023-07-24_21h21.59.862,arm3_eps,2022.2.5,Win32,60.87168249,60b29948c3753b3707dffe90,64aea9d0f615b6559c281482,64beceffd80eacbe3c775853,right,1,0.3,0.1786,6,0.054056618,0.2746,,,,,,164,0,164,0,1,,,,,
,,184701,001,2023-07-24_21h21.59.862,arm3_eps,2022.2.5,Win32,60.87168249,60b29948c3753b3707dffe90,64aea9d0f615b6559c281482,64beceffd80eacbe3c775853,up,1,0.3,0.1786,6,0,0.5758,,,,,,165,0,165,0,1,,,,,
,,184701,001,2023-07-24_21h21.59.862,arm3_eps,2022.2.5,Win32,60.87168249,60b29948c3753b3707dffe90,64aea9d0f615b6559c281482,64beceffd80eacbe3c775853,right,1,0.3,0.1786,6,3.94903E-05,1.1038,,,,,,166,0,166,0,1,,,,,
,,184701,001,2023-07-24_21h21.59.862,arm3_eps,2022.2.5,Win32,60.87168249,60b29948c3753b3707dffe90,64aea9d0f615b6559c281482,64beceffd80eacbe3c775853,right,1,0.3,0.1786,6,0.03878575,0.2411,,,,,,167,0,167,0,1,,,,,
,,184701,001,2023-07-24_21h21.59.862,arm3_eps,2022.2.5,Win32,60.87168249,60b29948c3753b3707dffe90,64aea9d0f615b6559c281482,64beceffd80eacbe3c775853,right,1,0.3,0.1786,6,0.067140169,0.2074,,,,,,168,0,168,0,1,,,,,
,,184701,001,2023-07-24_21h21.59.862,arm3_eps,2022.2.5,Win32,60.87168249,60b29948c3753b3707dffe90,64aea9d0f615b6559c281482,64beceffd80eacbe3c775853,right,1,0.3,0.1786,6,0.101817865,0.2329,,,,,,169,0,169,0,1,,,,,
,,184701,001,2023-07-24_21h21.59.862,arm3_eps,2022.2.5,Win32,60.87168249,60b29948c3753b3707dffe90,64aea9d0f615b6559c281482,64beceffd80eacbe3c775853,right,1,0.3,0.1786,6,0.097857441,0.2055,,,,,,170,0,170,0,1,,,,,
,,184701,001,2023-07-24_21h21.59.862,arm3_eps,2022.2.5,Win32,60.87168249,60b29948c3753b3707dffe90,64aea9d0f615b6559c281482,64beceffd80eacbe3c775853,right,1,0.3,0.1786,6,0.116566143,0.2398,,,,,,171,0,171,0,1,,,,,
,,184701,001,2023-07-24_21h21.59.862,arm3_eps,2022.2.5,Win32,60.87168249,60b29948c3753b3707dffe90,64aea9d0f615b6559c281482,64beceffd80eacbe3c775853,right,1,0.3,0.1786,6,0.134113535,0.2267,,,,,,172,0,172,0,1,,,,,
,,184701,001,2023-07-24_21h21.59.862,arm3_eps,2022.2.5,Win32,60.87168249,60b29948c3753b3707dffe90,64aea9d0f615b6559c281482,64beceffd80eacbe3c775853,up,-1,0.3,0.1786,6,0,0.3898,,,,,,173,0,173,0,1,,,,,
,,184701,001,2023-07-24_21h21.59.862,arm3_eps,2022.2.5,Win32,60.87168249,60b29948c3753b3707dffe90,64aea9d0f615b6559c281482,64beceffd80eacbe3c775853,right,-1,0.3,0.1786,6,0.014401314,0.9969,,,,,,174,0,174,0,1,,,,,
,,184701,001,2023-07-24_21h21.59.862,arm3_eps,2022.2.5,Win32,60.87168249,60b29948c3753b3707dffe90,64aea9d0f615b6559c281482,64beceffd80eacbe3c775853,right,-1,0.3,0.1786,6,0.020086469,0.2576,,,,,,175,0,175,0,1,,,,,
,,184701,001,2023-07-24_21h21.59.862,arm3_eps,2022.2.5,Win32,60.87168249,60b29948c3753b3707dffe90,64aea9d0f615b6559c281482,64beceffd80eacbe3c775853,right,-1,0.3,0.1786,6,0.015918778,0.2243,,,,,,176,0,176,0,1,,,,,
,,184701,001,2023-07-24_21h21.59.862,arm3_eps,2022.2.5,Win32,60.87168249,60b29948c3753b3707dffe90,64aea9d0f615b6559c281482,64beceffd80eacbe3c775853,right,-1,0.3,0.1786,6,-0.008071165,0.2242,,,,,,177,0,177,0,1,,,,,
,,184701,001,2023-07-24_21h21.59.862,arm3_eps,2022.2.5,Win32,60.87168249,60b29948c3753b3707dffe90,64aea9d0f615b6559c281482,64beceffd80eacbe3c775853,right,-1,0.3,0.1786,6,-0.017250631,0.257,,,,,,178,0,178,0,1,,,,,
,,184701,001,2023-07-24_21h21.59.862,arm3_eps,2022.2.5,Win32,60.87168249,60b29948c3753b3707dffe90,64aea9d0f615b6559c281482,64beceffd80eacbe3c775853,down,-1,0.3,0.1786,7,0,0.8259,,,,,,179,0,179,0,1,,,,,
,,184701,001,2023-07-24_21h21.59.862,arm3_eps,2022.2.5,Win32,60.87168249,60b29948c3753b3707dffe90,64aea9d0f615b6559c281482,64beceffd80eacbe3c775853,right,-1,0.3,0.1786,7,-0.031834319,1.6584,,,,,,180,0,180,0,1,,,,,
,,184701,001,2023-07-24_21h21.59.862,arm3_eps,2022.2.5,Win32,60.87168249,60b29948c3753b3707dffe90,64aea9d0f615b6559c281482,64beceffd80eacbe3c775853,right,-1,0.3,0.1786,7,-0.028285713,0.2599,,,,,,181,0,181,0,1,,,,,
,,184701,001,2023-07-24_21h21.59.862,arm3_eps,2022.2.5,Win32,60.87168249,60b29948c3753b3707dffe90,64aea9d0f615b6559c281482,64beceffd80eacbe3c775853,right,-1,0.3,0.1786,7,-0.045167665,0.2422,,,,,,182,0,182,0,1,,,,,
,,184701,001,2023-07-24_21h21.59.862,arm3_eps,2022.2.5,Win32,60.87168249,60b29948c3753b3707dffe90,64aea9d0f615b6559c281482,64beceffd80eacbe3c775853,right,-1,0.3,0.1786,7,-0.034834343,0.2092,,,,,,183,0,183,0,1,,,,,
,,184701,001,2023-07-24_21h21.59.862,arm3_eps,2022.2.5,Win32,60.87168249,60b29948c3753b3707dffe90,64aea9d0f615b6559c281482,64beceffd80eacbe3c775853,right,-1,0.3,0.1786,7,-0.039237723,0.4411,,,,,,184,0,184,0,1,,,,,
,,184701,001,2023-07-24_21h21.59.862,arm3_eps,2022.2.5,Win32,60.87168249,60b29948c3753b3707dffe90,64aea9d0f615b6559c281482,64beceffd80eacbe3c775853,right,-1,0.3,0.1786,7,-0.043393322,0.2257,,,,,,185,0,185,0,1,,,,,
,,184701,001,2023-07-24_21h21.59.862,arm3_eps,2022.2.5,Win32,60.87168249,60b29948c3753b3707dffe90,64aea9d0f615b6559c281482,64beceffd80eacbe3c775853,right,-1,0.3,0.1786,7,-0.02975821,0.2089,,,,,,186,0,186,0,1,,,,,
,,184701,001,2023-07-24_21h21.59.862,arm3_eps,2022.2.5,Win32,60.87168249,60b29948c3753b3707dffe90,64aea9d0f615b6559c281482,64beceffd80eacbe3c775853,right,-1,0.3,0.1786,7,-0.037062919,0.2577,,,,,,187,0,187,0,1,,,,,
,,184701,001,2023-07-24_21h21.59.862,arm3_eps,2022.2.5,Win32,60.87168249,60b29948c3753b3707dffe90,64aea9d0f615b6559c281482,64beceffd80eacbe3c775853,down,-1,0.3,0.1786,7,0,0.6084,,,,,,188,0,188,0,1,,,,,
,,184701,001,2023-07-24_21h21.59.862,arm3_eps,2022.2.5,Win32,60.87168249,60b29948c3753b3707dffe90,64aea9d0f615b6559c281482,64beceffd80eacbe3c775853,right,-1,0.3,0.1786,7,0.023942813,1.1792,,,,,,189,0,189,0,1,,,,,
,,184701,001,2023-07-24_21h21.59.862,arm3_eps,2022.2.5,Win32,60.87168249,60b29948c3753b3707dffe90,64aea9d0f615b6559c281482,64beceffd80eacbe3c775853,right,-1,0.3,0.1786,7,0.040417491,0.2259,,,,,,190,0,190,0,1,,,,,
,,184701,001,2023-07-24_21h21.59.862,arm3_eps,2022.2.5,Win32,60.87168249,60b29948c3753b3707dffe90,64aea9d0f615b6559c281482,64beceffd80eacbe3c775853,right,-1,0.3,0.1786,7,0.004080842,0.2427,,,,,,191,0,191,0,1,,,,,
,,184701,001,2023-07-24_21h21.59.862,arm3_eps,2022.2.5,Win32,60.87168249,60b29948c3753b3707dffe90,64aea9d0f615b6559c281482,64beceffd80eacbe3c775853,right,-1,0.3,0.1786,7,0.015091153,0.1941,,,,,,192,0,192,0,1,,,,,
,,184701,001,2023-07-24_21h21.59.862,arm3_eps,2022.2.5,Win32,60.87168249,60b29948c3753b3707dffe90,64aea9d0f615b6559c281482,64beceffd80eacbe3c775853,right,-1,0.3,0.1786,7,-0.008223785,0.2422,,,,,,193,0,193,0,1,,,,,
,,184701,001,2023-07-24_21h21.59.862,arm3_eps,2022.2.5,Win32,60.87168249,60b29948c3753b3707dffe90,64aea9d0f615b6559c281482,64beceffd80eacbe3c775853,right,-1,0.3,0.1786,7,-0.027235411,0.2265,,,,,,194,0,194,0,1,,,,,
,,184701,001,2023-07-24_21h21.59.862,arm3_eps,2022.2.5,Win32,60.87168249,60b29948c3753b3707dffe90,64aea9d0f615b6559c281482,64beceffd80eacbe3c775853,right,-1,0.3,0.1786,7,-0.013677119,0.2415,,,,,,195,0,195,0,1,,,,,
,,184701,001,2023-07-24_21h21.59.862,arm3_eps,2022.2.5,Win32,60.87168249,60b29948c3753b3707dffe90,64aea9d0f615b6559c281482,64beceffd80eacbe3c775853,right,-1,0.3,0.1786,7,-0.048500311,0.2924,,,,,,196,0,196,0,1,,,,,
,,184701,001,2023-07-24_21h21.59.862,arm3_eps,2022.2.5,Win32,60.87168249,60b29948c3753b3707dffe90,64aea9d0f615b6559c281482,64beceffd80eacbe3c775853,down,-1,0.3,0.1786,7,0,0.3937,,,,,,197,0,197,0,1,,,,,
,,184701,001,2023-07-24_21h21.59.862,arm3_eps,2022.2.5,Win32,60.87168249,60b29948c3753b3707dffe90,64aea9d0f615b6559c281482,64beceffd80eacbe3c775853,right,-1,0.3,0.1786,7,-0.01183978,1.3497,,,,,,198,0,198,0,1,,,,,
,,184701,001,2023-07-24_21h21.59.862,arm3_eps,2022.2.5,Win32,60.87168249,60b29948c3753b3707dffe90,64aea9d0f615b6559c281482,64beceffd80eacbe3c775853,right,-1,0.3,0.1786,7,-0.010781936,0.2303,,,,,,199,0,199,0,1,,,,,
,,184701,001,2023-07-24_21h21.59.862,arm3_eps,2022.2.5,Win32,60.87168249,60b29948c3753b3707dffe90,64aea9d0f615b6559c281482,64beceffd80eacbe3c775853,right,-1,0.3,0.1786,7,-0.014531522,0.2283,,,,,,200,0,200,0,1,,,,,
,,184701,001,2023-07-24_21h21.59.862,arm3_eps,2022.2.5,Win32,60.87168249,60b29948c3753b3707dffe90,64aea9d0f615b6559c281482,64beceffd80eacbe3c775853,right,-1,0.3,0.1786,7,-0.037090922,0.2409,,,,,,201,0,201,0,1,,,,,
,,184701,001,2023-07-24_21h21.59.862,arm3_eps,2022.2.5,Win32,60.87168249,60b29948c3753b3707dffe90,64aea9d0f615b6559c281482,64beceffd80eacbe3c775853,right,-1,0.3,0.1786,7,-0.036721875,0.2429,,,,,,202,0,202,0,1,,,,,
,,184701,001,2023-07-24_21h21.59.862,arm3_eps,2022.2.5,Win32,60.87168249,60b29948c3753b3707dffe90,64aea9d0f615b6559c281482,64beceffd80eacbe3c775853,right,-1,0.3,0.1786,7,-0.042832917,0.3925,,,,,,203,0,203,0,1,,,,,
,,184701,001,2023-07-24_21h21.59.862,arm3_eps,2022.2.5,Win32,60.87168249,60b29948c3753b3707dffe90,64aea9d0f615b6559c281482,64beceffd80eacbe3c775853,down,-1,0.3,0.1786,7,0,0.5255,,,,,,204,0,204,0,1,,,,,
,,184701,001,2023-07-24_21h21.59.862,arm3_eps,2022.2.5,Win32,60.87168249,60b29948c3753b3707dffe90,64aea9d0f615b6559c281482,64beceffd80eacbe3c775853,right,-1,0.3,0.1786,7,-0.034836249,1.3628,,,,,,205,0,205,0,1,,,,,
,,184701,001,2023-07-24_21h21.59.862,arm3_eps,2022.2.5,Win32,60.87168249,60b29948c3753b3707dffe90,64aea9d0f615b6559c281482,64beceffd80eacbe3c775853,right,-1,0.3,0.1786,7,-0.054031152,0.2668,,,,,,206,0,206,0,1,,,,,
,,184701,001,2023-07-24_21h21.59.862,arm3_eps,2022.2.5,Win32,60.87168249,60b29948c3753b3707dffe90,64aea9d0f615b6559c281482,64beceffd80eacbe3c775853,right,-1,0.3,0.1786,7,-0.053140815,0.2568,,,,,,207,0,207,0,1,,,,,
,,184701,001,2023-07-24_21h21.59.862,arm3_eps,2022.2.5,Win32,60.87168249,60b29948c3753b3707dffe90,64aea9d0f615b6559c281482,64beceffd80eacbe3c775853,right,-1,0.3,0.1786,7,-0.059812121,0.2419,,,,,,208,0,208,0,1,,,,,
,,184701,001,2023-07-24_21h21.59.862,arm3_eps,2022.2.5,Win32,60.87168249,60b29948c3753b3707dffe90,64aea9d0f615b6559c281482,64beceffd80eacbe3c775853,right,-1,0.3,0.1786,7,-0.07862428,0.1673,,,,,,209,0,209,0,1,,,,,
,,184701,001,2023-07-24_21h21.59.862,arm3_eps,2022.2.5,Win32,60.87168249,60b29948c3753b3707dffe90,64aea9d0f615b6559c281482,64beceffd80eacbe3c775853,right,-1,0.3,0.1786,7,-0.103518265,0.2713,,,,,,210,0,210,0,1,,,,,
,,184701,001,2023-07-24_21h21.59.862,arm3_eps,2022.2.5,Win32,60.87168249,60b29948c3753b3707dffe90,64aea9d0f615b6559c281482,64beceffd80eacbe3c775853,right,-1,0.3,0.1786,7,-0.11428324,0.308,,,,,,211,0,211,0,1,,,,,
,,184701,001,2023-07-24_21h21.59.862,arm3_eps,2022.2.5,Win32,60.87168249,60b29948c3753b3707dffe90,64aea9d0f615b6559c281482,64beceffd80eacbe3c775853,down,-1,0.3,0.1786,7,0,0.5228,,,,,,212,0,212,0,1,,,,,
,,184701,001,2023-07-24_21h21.59.862,arm3_eps,2022.2.5,Win32,60.87168249,60b29948c3753b3707dffe90,64aea9d0f615b6559c281482,64beceffd80eacbe3c775853,right,-1,0.3,0.1786,7,0.0061089,1.1633,,,,,,213,0,213,0,1,,,,,
,,184701,001,2023-07-24_21h21.59.862,arm3_eps,2022.2.5,Win32,60.87168249,60b29948c3753b3707dffe90,64aea9d0f615b6559c281482,64beceffd80eacbe3c775853,right,-1,0.3,0.1786,7,0.001485478,0.2249,,,,,,214,0,214,0,1,,,,,
,,184701,001,2023-07-24_21h21.59.862,arm3_eps,2022.2.5,Win32,60.87168249,60b29948c3753b3707dffe90,64aea9d0f615b6559c281482,64beceffd80eacbe3c775853,right,-1,0.3,0.1786,7,0.009644546,0.2222,,,,,,215,0,215,0,1,,,,,
,,184701,001,2023-07-24_21h21.59.862,arm3_eps,2022.2.5,Win32,60.87168249,60b29948c3753b3707dffe90,64aea9d0f615b6559c281482,64beceffd80eacbe3c775853,right,-1,0.3,0.1786,7,0.007863183,0.2917,,,,,,216,0,216,0,1,,,,,
,,184701,001,2023-07-24_21h21.59.862,arm3_eps,2022.2.5,Win32,60.87168249,60b29948c3753b3707dffe90,64aea9d0f615b6559c281482,64beceffd80eacbe3c775853,right,-1,0.3,0.1786,7,-0.0123134,0.2008,,,,,,217,0,217,0,1,,,,,
,,184701,001,2023-07-24_21h21.59.862,arm3_eps,2022.2.5,Win32,60.87168249,60b29948c3753b3707dffe90,64aea9d0f615b6559c281482,64beceffd80eacbe3c775853,right,-1,0.3,0.1786,7,0.002637744,0.2466,,,,,,218,0,218,0,1,,,,,
,,184701,001,2023-07-24_21h21.59.862,arm3_eps,2022.2.5,Win32,60.87168249,60b29948c3753b3707dffe90,64aea9d0f615b6559c281482,64beceffd80eacbe3c775853,right,-1,0.3,0.1786,7,-0.012645763,0.215,,,,,,219,0,219,0,1,,,,,
,,184701,001,2023-07-24_21h21.59.862,arm3_eps,2022.2.5,Win32,60.87168249,60b29948c3753b3707dffe90,64aea9d0f615b6559c281482,64beceffd80eacbe3c775853,right,-1,0.3,0.1786,7,0.000694982,0.2553,,,,,,220,0,220,0,1,,,,,
,,184701,001,2023-07-24_21h21.59.862,arm3_eps,2022.2.5,Win32,60.87168249,60b29948c3753b3707dffe90,64aea9d0f615b6559c281482,64beceffd80eacbe3c775853,right,-1,0.3,0.1786,7,-0.012734844,0.2439,,,,,,221,0,221,0,1,,,,,
,,184701,001,2023-07-24_21h21.59.862,arm3_eps,2022.2.5,Win32,60.87168249,60b29948c3753b3707dffe90,64aea9d0f615b6559c281482,64beceffd80eacbe3c775853,down,-1,0.3,0.1786,7,0,0.5916,,,,,,222,0,222,0,1,,,,,
,,184701,001,2023-07-24_21h21.59.862,arm3_eps,2022.2.5,Win32,60.87168249,60b29948c3753b3707dffe90,64aea9d0f615b6559c281482,64beceffd80eacbe3c775853,right,-1,0.3,0.1786,7,0.004562998,1.3689,,,,,,223,0,223,0,1,,,,,
,,184701,001,2023-07-24_21h21.59.862,arm3_eps,2022.2.5,Win32,60.87168249,60b29948c3753b3707dffe90,64aea9d0f615b6559c281482,64beceffd80eacbe3c775853,right,-1,0.3,0.1786,7,0.004121615,0.2582,,,,,,224,0,224,0,1,,,,,
,,184701,001,2023-07-24_21h21.59.862,arm3_eps,2022.2.5,Win32,60.87168249,60b29948c3753b3707dffe90,64aea9d0f615b6559c281482,64beceffd80eacbe3c775853,right,-1,0.3,0.1786,7,0.032973385,0.24,,,,,,225,0,225,0,1,,,,,
,,184701,001,2023-07-24_21h21.59.862,arm3_eps,2022.2.5,Win32,60.87168249,60b29948c3753b3707dffe90,64aea9d0f615b6559c281482,64beceffd80eacbe3c775853,right,-1,0.3,0.1786,7,0.027627003,0.1934,,,,,,226,0,226,0,1,,,,,
,,184701,001,2023-07-24_21h21.59.862,arm3_eps,2022.2.5,Win32,60.87168249,60b29948c3753b3707dffe90,64aea9d0f615b6559c281482,64beceffd80eacbe3c775853,right,-1,0.3,0.1786,7,0.033881437,0.2611,,,,,,227,0,227,0,1,,,,,
,,184701,001,2023-07-24_21h21.59.862,arm3_eps,2022.2.5,Win32,60.87168249,60b29948c3753b3707dffe90,64aea9d0f615b6559c281482,64beceffd80eacbe3c775853,right,-1,0.3,0.1786,7,0.02044301,0.2393,,,,,,228,0,228,0,1,,,,,
,,184701,001,2023-07-24_21h21.59.862,arm3_eps,2022.2.5,Win32,60.87168249,60b29948c3753b3707dffe90,64aea9d0f615b6559c281482,64beceffd80eacbe3c775853,right,-1,0.3,0.1786,7,0.012135371,0.2073,,,,,,229,0,229,0,1,,,,,
,,184701,001,2023-07-24_21h21.59.862,arm3_eps,2022.2.5,Win32,60.87168249,60b29948c3753b3707dffe90,64aea9d0f615b6559c281482,64beceffd80eacbe3c775853,right,-1,0.3,0.1786,7,0.010590039,0.2433,,,,,,230,0,230,0,1,,,,,
,,184701,001,2023-07-24_21h21.59.862,arm3_eps,2022.2.5,Win32,60.87168249,60b29948c3753b3707dffe90,64aea9d0f615b6559c281482,64beceffd80eacbe3c775853,right,-1,0.3,0.1786,7,-0.010315197,0.2414,,,,,,231,0,231,0,1,,,,,
,,184701,001,2023-07-24_21h21.59.862,arm3_eps,2022.2.5,Win32,60.87168249,60b29948c3753b3707dffe90,64aea9d0f615b6559c281482,64beceffd80eacbe3c775853,down,-1,0.3,0.1786,8,0,0.4827,,,,,,232,0,232,0,1,,,,,
,,184701,001,2023-07-24_21h21.59.862,arm3_eps,2022.2.5,Win32,60.87168249,60b29948c3753b3707dffe90,64aea9d0f615b6559c281482,64beceffd80eacbe3c775853,right,-1,0.3,0.1786,8,0.002293134,1.8909,,,,,,233,0,233,0,1,,,,,
,,184701,001,2023-07-24_21h21.59.862,arm3_eps,2022.2.5,Win32,60.87168249,60b29948c3753b3707dffe90,64aea9d0f615b6559c281482,64beceffd80eacbe3c775853,right,-1,0.3,0.1786,8,-0.003997033,0.2741,,,,,,234,0,234,0,1,,,,,
,,184701,001,2023-07-24_21h21.59.862,arm3_eps,2022.2.5,Win32,60.87168249,60b29948c3753b3707dffe90,64aea9d0f615b6559c281482,64beceffd80eacbe3c775853,right,-1,0.3,0.1786,8,-0.020719248,0.2591,,,,,,235,0,235,0,1,,,,,
,,184701,001,2023-07-24_21h21.59.862,arm3_eps,2022.2.5,Win32,60.87168249,60b29948c3753b3707dffe90,64aea9d0f615b6559c281482,64beceffd80eacbe3c775853,right,-1,0.3,0.1786,8,-0.040034196,0.1887,,,,,,236,0,236,0,1,,,,,
,,184701,001,2023-07-24_21h21.59.862,arm3_eps,2022.2.5,Win32,60.87168249,60b29948c3753b3707dffe90,64aea9d0f615b6559c281482,64beceffd80eacbe3c775853,right,-1,0.3,0.1786,8,-0.054887904,0.2256,,,,,,237,0,237,0,1,,,,,
,,184701,001,2023-07-24_21h21.59.862,arm3_eps,2022.2.5,Win32,60.87168249,60b29948c3753b3707dffe90,64aea9d0f615b6559c281482,64beceffd80eacbe3c775853,right,-1,0.3,0.1786,8,-0.078235869,0.2259,,,,,,238,0,238,0,1,,,,,
,,184701,001,2023-07-24_21h21.59.862,arm3_eps,2022.2.5,Win32,60.87168249,60b29948c3753b3707dffe90,64aea9d0f615b6559c281482,64beceffd80eacbe3c775853,right,-1,0.3,0.1786,8,-0.076923531,0.2247,,,,,,239,0,239,0,1,,,,,
,,184701,001,2023-07-24_21h21.59.862,arm3_eps,2022.2.5,Win32,60.87168249,60b29948c3753b3707dffe90,64aea9d0f615b6559c281482,64beceffd80eacbe3c775853,down,-1,0.3,0.1786,9,0,0.459,,,,,,240,0,240,0,1,,,,,
,,184701,001,2023-07-24_21h21.59.862,arm3_eps,2022.2.5,Win32,60.87168249,60b29948c3753b3707dffe90,64aea9d0f615b6559c281482,64beceffd80eacbe3c775853,right,-1,0.3,0.1786,9,-0.040699573,1.479,,,,,,241,0,241,0,1,,,,,
,,184701,001,2023-07-24_21h21.59.862,arm3_eps,2022.2.5,Win32,60.87168249,60b29948c3753b3707dffe90,64aea9d0f615b6559c281482,64beceffd80eacbe3c775853,right,-1,0.3,0.1786,9,-0.075355632,0.4637,,,,,,242,0,242,0,1,,,,,
,,184701,001,2023-07-24_21h21.59.862,arm3_eps,2022.2.5,Win32,60.87168249,60b29948c3753b3707dffe90,64aea9d0f615b6559c281482,64beceffd80eacbe3c775853,right,-1,0.3,0.1786,9,-0.085248432,0.2469,,,,,,243,0,243,0,1,,,,,
,,184701,001,2023-07-24_21h21.59.862,arm3_eps,2022.2.5,Win32,60.87168249,60b29948c3753b3707dffe90,64aea9d0f615b6559c281482,64beceffd80eacbe3c775853,right,-1,0.3,0.1786,9,-0.114027815,0.1948,,,,,,244,0,244,0,1,,,,,
,,184701,001,2023-07-24_21h21.59.862,arm3_eps,2022.2.5,Win32,60.87168249,60b29948c3753b3707dffe90,64aea9d0f615b6559c281482,64beceffd80eacbe3c775853,right,-1,0.3,0.1786,9,-0.144409,0.2248,,,,,,245,0,245,0,1,,,,,
,,184701,001,2023-07-24_21h21.59.862,arm3_eps,2022.2.5,Win32,60.87168249,60b29948c3753b3707dffe90,64aea9d0f615b6559c281482,64beceffd80eacbe3c775853,right,-1,0.3,0.1786,9,-0.150752797,0.215,,,,,,246,0,246,0,1,,,,,
,,184701,001,2023-07-24_21h21.59.862,arm3_eps,2022.2.5,Win32,60.87168249,60b29948c3753b3707dffe90,64aea9d0f615b6559c281482,64beceffd80eacbe3c775853,down,1,0.3,0.1786,9,0,0.3603,,,,,,247,0,247,0,1,,,,,
,,184701,001,2023-07-24_21h21.59.862,arm3_eps,2022.2.5,Win32,60.87168249,60b29948c3753b3707dffe90,64aea9d0f615b6559c281482,64beceffd80eacbe3c775853,right,1,0.3,0.1786,9,0.034934092,1.5602,,,,,,248,0,248,0,1,,,,,
,,184701,001,2023-07-24_21h21.59.862,arm3_eps,2022.2.5,Win32,60.87168249,60b29948c3753b3707dffe90,64aea9d0f615b6559c281482,64beceffd80eacbe3c775853,right,1,0.3,0.1786,9,0.057370341,0.2407,,,,,,249,0,249,0,1,,,,,
,,184701,001,2023-07-24_21h21.59.862,arm3_eps,2022.2.5,Win32,60.87168249,60b29948c3753b3707dffe90,64aea9d0f615b6559c281482,64beceffd80eacbe3c775853,right,1,0.3,0.1786,9,0.069484598,0.2407,,,,,,250,0,250,0,1,,,,,
,,184701,001,2023-07-24_21h21.59.862,arm3_eps,2022.2.5,Win32,60.87168249,60b29948c3753b3707dffe90,64aea9d0f615b6559c281482,64beceffd80eacbe3c775853,right,1,0.3,0.1786,9,0.073395724,0.2072,,,,,,251,0,251,0,1,,,,,
,,184701,001,2023-07-24_21h21.59.862,arm3_eps,2022.2.5,Win32,60.87168249,60b29948c3753b3707dffe90,64aea9d0f615b6559c281482,64beceffd80eacbe3c775853,right,1,0.3,0.1786,9,0.046861709,0.2252,,,,,,252,0,252,0,1,,,,,
,,184701,001,2023-07-24_21h21.59.862,arm3_eps,2022.2.5,Win32,60.87168249,60b29948c3753b3707dffe90,64aea9d0f615b6559c281482,64beceffd80eacbe3c775853,right,1,0.3,0.1786,9,0.064660436,0.2246,,,,,,253,0,253,0,1,,,,,
,,184701,001,2023-07-24_21h21.59.862,arm3_eps,2022.2.5,Win32,60.87168249,60b29948c3753b3707dffe90,64aea9d0f615b6559c281482,64beceffd80eacbe3c775853,up,1,0.3,0.1786,9,0,1.2442,,,,,,254,0,254,0,1,,,,,
,,184701,001,2023-07-24_21h21.59.862,arm3_eps,2022.2.5,Win32,60.87168249,60b29948c3753b3707dffe90,64aea9d0f615b6559c281482,64beceffd80eacbe3c775853,right,1,0.3,0.1786,9,-0.010694133,1.1996,,,,,,255,0,255,0,1,,,,,
,,184701,001,2023-07-24_21h21.59.862,arm3_eps,2022.2.5,Win32,60.87168249,60b29948c3753b3707dffe90,64aea9d0f615b6559c281482,64beceffd80eacbe3c775853,right,1,0.3,0.1786,9,-0.004392817,0.2054,,,,,,256,0,256,0,1,,,,,
,,184701,001,2023-07-24_21h21.59.862,arm3_eps,2022.2.5,Win32,60.87168249,60b29948c3753b3707dffe90,64aea9d0f615b6559c281482,64beceffd80eacbe3c775853,right,1,0.3,0.1786,9,-0.022857918,0.2422,,,,,,257,0,257,0,1,,,,,
,,184701,001,2023-07-24_21h21.59.862,arm3_eps,2022.2.5,Win32,60.87168249,60b29948c3753b3707dffe90,64aea9d0f615b6559c281482,64beceffd80eacbe3c775853,right,1,0.3,0.1786,9,0.014909281,0.1925,,,,,,258,0,258,0,1,,,,,
,,184701,001,2023-07-24_21h21.59.862,arm3_eps,2022.2.5,Win32,60.87168249,60b29948c3753b3707dffe90,64aea9d0f615b6559c281482,64beceffd80eacbe3c775853,right,1,0.3,0.1786,9,0.030500398,0.2262,,,,,,259,0,259,0,1,,,,,
,,184701,001,2023-07-24_21h21.59.862,arm3_eps,2022.2.5,Win32,60.87168249,60b29948c3753b3707dffe90,64aea9d0f615b6559c281482,64beceffd80eacbe3c775853,right,1,0.3,0.1786,9,0.068846364,0.4651,,,,,,260,0,260,0,1,,,,,
,,184701,001,2023-07-24_21h21.59.862,arm3_eps,2022.2.5,Win32,60.87168249,60b29948c3753b3707dffe90,64aea9d0f615b6559c281482,64beceffd80eacbe3c775853,up,1,0.3,0.1786,10,0,0.4578,,,,,,261,0,261,0,1,,,,,
,,184701,001,2023-07-24_21h21.59.862,arm3_eps,2022.2.5,Win32,60.87168249,60b29948c3753b3707dffe90,64aea9d0f615b6559c281482,64beceffd80eacbe3c775853,right,1,0.3,0.1786,10,-0.007747669,1.5805,,,,,,262,0,262,0,1,,,,,
,,184701,001,2023-07-24_21h21.59.862,arm3_eps,2022.2.5,Win32,60.87168249,60b29948c3753b3707dffe90,64aea9d0f615b6559c281482,64beceffd80eacbe3c775853,right,1,0.3,0.1786,10,-0.004618903,0.2312,,,,,,263,0,263,0,1,,,,,
,,184701,001,2023-07-24_21h21.59.862,arm3_eps,2022.2.5,Win32,60.87168249,60b29948c3753b3707dffe90,64aea9d0f615b6559c281482,64beceffd80eacbe3c775853,right,1,0.3,0.1786,10,-0.01179886,0.2192,,,,,,264,0,264,0,1,,,,,
,,184701,001,2023-07-24_21h21.59.862,arm3_eps,2022.2.5,Win32,60.87168249,60b29948c3753b3707dffe90,64aea9d0f615b6559c281482,64beceffd80eacbe3c775853,right,1,0.3,0.1786,10,0.008764193,0.2293,,,,,,265,0,265,0,1,,,,,
,,184701,001,2023-07-24_21h21.59.862,arm3_eps,2022.2.5,Win32,60.87168249,60b29948c3753b3707dffe90,64aea9d0f615b6559c281482,64beceffd80eacbe3c775853,right,1,0.3,0.1786,10,0.011181261,0.2498,,,,,,266,0,266,0,1,,,,,
,,184701,001,2023-07-24_21h21.59.862,arm3_eps,2022.2.5,Win32,60.87168249,60b29948c3753b3707dffe90,64aea9d0f615b6559c281482,64beceffd80eacbe3c775853,right,1,0.3,0.1786,10,0.018865671,0.2572,,,,,,267,0,267,0,1,,,,,
,,184701,001,2023-07-24_21h21.59.862,arm3_eps,2022.2.5,Win32,60.87168249,60b29948c3753b3707dffe90,64aea9d0f615b6559c281482,64beceffd80eacbe3c775853,right,1,0.3,0.1786,10,0.024902335,0.3086,,,,,,268,0,268,0,1,,,,,
,,184701,001,2023-07-24_21h21.59.862,arm3_eps,2022.2.5,Win32,60.87168249,60b29948c3753b3707dffe90,64aea9d0f615b6559c281482,64beceffd80eacbe3c775853,up,1,0.3,0.1786,11,0,0.5741,,,,,,269,0,269,0,1,,,,,
,,184701,001,2023-07-24_21h21.59.862,arm3_eps,2022.2.5,Win32,60.87168249,60b29948c3753b3707dffe90,64aea9d0f615b6559c281482,64beceffd80eacbe3c775853,right,1,0.3,0.1786,11,0.005388376,2.047,,,,,,270,0,270,0,1,,,,,
,,184701,001,2023-07-24_21h21.59.862,arm3_eps,2022.2.5,Win32,60.87168249,60b29948c3753b3707dffe90,64aea9d0f615b6559c281482,64beceffd80eacbe3c775853,right,1,0.3,0.1786,11,-0.018685816,0.1609,,,,,,271,0,271,0,1,,,,,
,,184701,001,2023-07-24_21h21.59.862,arm3_eps,2022.2.5,Win32,60.87168249,60b29948c3753b3707dffe90,64aea9d0f615b6559c281482,64beceffd80eacbe3c775853,right,1,0.3,0.1786,11,0.018588378,0.2594,,,,,,272,0,272,0,1,,,,,
,,184701,001,2023-07-24_21h21.59.862,arm3_eps,2022.2.5,Win32,60.87168249,60b29948c3753b3707dffe90,64aea9d0f615b6559c281482,64beceffd80eacbe3c775853,right,1,0.3,0.1786,11,0.03840178,0.2334,,,,,,273,0,273,0,1,,,,,
,,184701,001,2023-07-24_21h21.59.862,arm3_eps,2022.2.5,Win32,60.87168249,60b29948c3753b3707dffe90,64aea9d0f615b6559c281482,64beceffd80eacbe3c775853,right,1,0.3,0.1786,11,0.067317857,0.26,,,,,,274,0,274,0,1,,,,,
,,184701,001,2023-07-24_21h21.59.862,arm3_eps,2022.2.5,Win32,60.87168249,60b29948c3753b3707dffe90,64aea9d0f615b6559c281482,64beceffd80eacbe3c775853,right,1,0.3,0.1786,11,0.062309742,0.308,,,,,,275,0,275,0,1,,,,,
,,184701,001,2023-07-24_21h21.59.862,arm3_eps,2022.2.5,Win32,60.87168249,60b29948c3753b3707dffe90,64aea9d0f615b6559c281482,64beceffd80eacbe3c775853,right,1,0.3,0.1786,11,0.03819731,0.7233,,,,,,276,0,276,0,1,,,,,
,,184701,001,2023-07-24_21h21.59.862,arm3_eps,2022.2.5,Win32,60.87168249,60b29948c3753b3707dffe90,64aea9d0f615b6559c281482,64beceffd80eacbe3c775853,right,1,0.3,0.1786,11,0.042873533,0.225,,,,,,277,0,277,0,1,,,,,
,,184701,001,2023-07-24_21h21.59.862,arm3_eps,2022.2.5,Win32,60.87168249,60b29948c3753b3707dffe90,64aea9d0f615b6559c281482,64beceffd80eacbe3c775853,right,1,0.3,0.1786,11,0.075189082,0.241,,,,,,278,0,278,0,1,,,,,
,,184701,001,2023-07-24_21h21.59.862,arm3_eps,2022.2.5,Win32,60.87168249,60b29948c3753b3707dffe90,64aea9d0f615b6559c281482,64beceffd80eacbe3c775853,up,1,0.3,0.1786,12,0,0.4109,,,,,,279,0,279,0,1,,,,,
,,184701,001,2023-07-24_21h21.59.862,arm3_eps,2022.2.5,Win32,60.87168249,60b29948c3753b3707dffe90,64aea9d0f615b6559c281482,64beceffd80eacbe3c775853,right,1,0.3,0.1786,12,0.059644575,1.6699,,,,,,280,0,280,0,1,,,,,
,,184701,001,2023-07-24_21h21.59.862,arm3_eps,2022.2.5,Win32,60.87168249,60b29948c3753b3707dffe90,64aea9d0f615b6559c281482,64beceffd80eacbe3c775853,right,1,0.3,0.1786,12,0.078740134,0.273,,,,,,281,0,281,0,1,,,,,
,,184701,001,2023-07-24_21h21.59.862,arm3_eps,2022.2.5,Win32,60.87168249,60b29948c3753b3707dffe90,64aea9d0f615b6559c281482,64beceffd80eacbe3c775853,right,1,0.3,0.1786,12,0.101735384,0.2259,,,,,,282,0,282,0,1,,,,,
,,184701,001,2023-07-24_21h21.59.862,arm3_eps,2022.2.5,Win32,60.87168249,60b29948c3753b3707dffe90,64aea9d0f615b6559c281482,64beceffd80eacbe3c775853,right,1,0.3,0.1786,12,0.096514805,0.1916,,,,,,283,0,283,0,1,,,,,
,,184701,001,2023-07-24_21h21.59.862,arm3_eps,2022.2.5,Win32,60.87168249,60b29948c3753b3707dffe90,64aea9d0f615b6559c281482,64beceffd80eacbe3c775853,right,1,0.3,0.1786,12,0.109024842,0.2628,,,,,,284,0,284,0,1,,,,,
,,184701,001,2023-07-24_21h21.59.862,arm3_eps,2022.2.5,Win32,60.87168249,60b29948c3753b3707dffe90,64aea9d0f615b6559c281482,64beceffd80eacbe3c775853,right,1,0.3,0.1786,12,0.098393238,0.2306,,,,,,285,0,285,0,1,,,,,
,,184701,001,2023-07-24_21h21.59.862,arm3_eps,2022.2.5,Win32,60.87168249,60b29948c3753b3707dffe90,64aea9d0f615b6559c281482,64beceffd80eacbe3c775853,right,1,0.3,0.1786,12,0.114948667,0.2991,,,,,,286,0,286,0,1,,,,,
,,184701,001,2023-07-24_21h21.59.862,arm3_eps,2022.2.5,Win32,60.87168249,60b29948c3753b3707dffe90,64aea9d0f615b6559c281482,64beceffd80eacbe3c775853,up,1,0.3,0.1786,12,0,0.6427,,,,,,287,0,287,0,1,,,,,
,,184701,001,2023-07-24_21h21.59.862,arm3_eps,2022.2.5,Win32,60.87168249,60b29948c3753b3707dffe90,64aea9d0f615b6559c281482,64beceffd80eacbe3c775853,right,1,0.3,0.1786,12,0.01856436,1.3914,,,,,,288,0,288,0,1,,,,,
,,184701,001,2023-07-24_21h21.59.862,arm3_eps,2022.2.5,Win32,60.87168249,60b29948c3753b3707dffe90,64aea9d0f615b6559c281482,64beceffd80eacbe3c775853,right,1,0.3,0.1786,12,0.018499143,0.2258,,,,,,289,0,289,0,1,,,,,
,,184701,001,2023-07-24_21h21.59.862,arm3_eps,2022.2.5,Win32,60.87168249,60b29948c3753b3707dffe90,64aea9d0f615b6559c281482,64beceffd80eacbe3c775853,right,1,0.3,0.1786,12,0.018792581,0.2419,,,,,,290,0,290,0,1,,,,,
,,184701,001,2023-07-24_21h21.59.862,arm3_eps,2022.2.5,Win32,60.87168249,60b29948c3753b3707dffe90,64aea9d0f615b6559c281482,64beceffd80eacbe3c775853,right,1,0.3,0.1786,12,0.019210522,0.2745,,,,,,291,0,291,0,1,,,,,
,,184701,001,2023-07-24_21h21.59.862,arm3_eps,2022.2.5,Win32,60.87168249,60b29948c3753b3707dffe90,64aea9d0f615b6559c281482,64beceffd80eacbe3c775853,right,1,0.3,0.1786,12,0.035873528,0.1962,,,,,,292,0,292,0,1,,,,,
,,184701,001,2023-07-24_21h21.59.862,arm3_eps,2022.2.5,Win32,60.87168249,60b29948c3753b3707dffe90,64aea9d0f615b6559c281482,64beceffd80eacbe3c775853,right,1,0.3,0.1786,12,0.035872207,0.2744,,,,,,293,0,293,0,1,,,,,
,,184701,001,2023-07-24_21h21.59.862,arm3_eps,2022.2.5,Win32,60.87168249,60b29948c3753b3707dffe90,64aea9d0f615b6559c281482,64beceffd80eacbe3c775853,right,1,0.3,0.1786,12,0.065055831,0.2086,,,,,,294,0,294,0,1,,,,,
,,184701,001,2023-07-24_21h21.59.862,arm3_eps,2022.2.5,Win32,60.87168249,60b29948c3753b3707dffe90,64aea9d0f615b6559c281482,64beceffd80eacbe3c775853,right,1,0.3,0.1786,12,0.100921981,0.2276,,,,,,295,0,295,0,1,,,,,
,,184701,001,2023-07-24_21h21.59.862,arm3_eps,2022.2.5,Win32,60.87168249,60b29948c3753b3707dffe90,64aea9d0f615b6559c281482,64beceffd80eacbe3c775853,up,1,0.3,0.1786,12,0,0.4979,,,,,,296,0,296,0,1,,,,,
,,184701,001,2023-07-24_21h21.59.862,arm3_eps,2022.2.5,Win32,60.87168249,60b29948c3753b3707dffe90,64aea9d0f615b6559c281482,64beceffd80eacbe3c775853,right,1,0.3,0.1786,12,-0.024954732,1.1327,,,,,,297,0,297,0,1,,,,,
,,184701,001,2023-07-24_21h21.59.862,arm3_eps,2022.2.5,Win32,60.87168249,60b29948c3753b3707dffe90,64aea9d0f615b6559c281482,64beceffd80eacbe3c775853,right,1,0.3,0.1786,12,-0.01142692,0.2469,,,,,,298,0,298,0,1,,,,,
,,184701,001,2023-07-24_21h21.59.862,arm3_eps,2022.2.5,Win32,60.87168249,60b29948c3753b3707dffe90,64aea9d0f615b6559c281482,64beceffd80eacbe3c775853,right,1,0.3,0.1786,12,0.006707948,0.2637,,,,,,299,0,299,0,1,,,,,
,,184701,001,2023-07-24_21h21.59.862,arm3_eps,2022.2.5,Win32,60.87168249,60b29948c3753b3707dffe90,64aea9d0f615b6559c281482,64beceffd80eacbe3c775853,right,1,0.3,0.1786,12,0.001071203,0.5104,,,,,,300,0,300,0,1,,,,,
,,184701,001,2023-07-24_21h21.59.862,arm3_eps,2022.2.5,Win32,60.87168249,60b29948c3753b3707dffe90,64aea9d0f615b6559c281482,64beceffd80eacbe3c775853,right,1,0.3,0.1786,12,0.031845195,0.2767,,,,,,301,0,301,0,1,,,,,
,,184701,001,2023-07-24_21h21.59.862,arm3_eps,2022.2.5,Win32,60.87168249,60b29948c3753b3707dffe90,64aea9d0f615b6559c281482,64beceffd80eacbe3c775853,right,1,0.3,0.1786,12,0.0727699,0.383,,,,,,302,0,302,0,1,,,,,
,,184701,001,2023-07-24_21h21.59.862,arm3_eps,2022.2.5,Win32,60.87168249,60b29948c3753b3707dffe90,64aea9d0f615b6559c281482,64beceffd80eacbe3c775853,up,1,0.3,0.1786,12,0,0.6017,,,,,,303,0,303,0,1,,,,,
,,184701,001,2023-07-24_21h21.59.862,arm3_eps,2022.2.5,Win32,60.87168249,60b29948c3753b3707dffe90,64aea9d0f615b6559c281482,64beceffd80eacbe3c775853,right,1,0.3,0.1786,12,-0.000997968,1.1478,,,,,,304,0,304,0,1,,,,,
,,184701,001,2023-07-24_21h21.59.862,arm3_eps,2022.2.5,Win32,60.87168249,60b29948c3753b3707dffe90,64aea9d0f615b6559c281482,64beceffd80eacbe3c775853,right,1,0.3,0.1786,12,0.013835789,0.2251,,,,,,305,0,305,0,1,,,,,
,,184701,001,2023-07-24_21h21.59.862,arm3_eps,2022.2.5,Win32,60.87168249,60b29948c3753b3707dffe90,64aea9d0f615b6559c281482,64beceffd80eacbe3c775853,right,1,0.3,0.1786,12,0.009475076,0.2079,,,,,,306,0,306,0,1,,,,,
,,184701,001,2023-07-24_21h21.59.862,arm3_eps,2022.2.5,Win32,60.87168249,60b29948c3753b3707dffe90,64aea9d0f615b6559c281482,64beceffd80eacbe3c775853,right,1,0.3,0.1786,12,0.026011124,0.2402,,,,,,307,0,307,0,1,,,,,
,,184701,001,2023-07-24_21h21.59.862,arm3_eps,2022.2.5,Win32,60.87168249,60b29948c3753b3707dffe90,64aea9d0f615b6559c281482,64beceffd80eacbe3c775853,right,1,0.3,0.1786,12,0.023330408,0.2417,,,,,,308,0,308,0,1,,,,,
,,184701,001,2023-07-24_21h21.59.862,arm3_eps,2022.2.5,Win32,60.87168249,60b29948c3753b3707dffe90,64aea9d0f615b6559c281482,64beceffd80eacbe3c775853,right,1,0.3,0.1786,12,0.043360712,0.1859,,,,,,309,0,309,0,1,,,,,
,,184701,001,2023-07-24_21h21.59.862,arm3_eps,2022.2.5,Win32,60.87168249,60b29948c3753b3707dffe90,64aea9d0f615b6559c281482,64beceffd80eacbe3c775853,right,1,0.3,0.1786,12,0.040095857,0.2077,,,,,,310,0,310,0,1,,,,,
,,184701,001,2023-07-24_21h21.59.862,arm3_eps,2022.2.5,Win32,60.87168249,60b29948c3753b3707dffe90,64aea9d0f615b6559c281482,64beceffd80eacbe3c775853,up,1,0.3,0.1786,12,0,0.9419,,,,,,311,0,311,0,1,,,,,
,,184701,001,2023-07-24_21h21.59.862,arm3_eps,2022.2.5,Win32,60.87168249,60b29948c3753b3707dffe90,64aea9d0f615b6559c281482,64beceffd80eacbe3c775853,right,1,0.3,0.1786,12,0.014405525,0.9398,,,,,,312,0,312,0,1,,,,,
,,184701,001,2023-07-24_21h21.59.862,arm3_eps,2022.2.5,Win32,60.87168249,60b29948c3753b3707dffe90,64aea9d0f615b6559c281482,64beceffd80eacbe3c775853,right,1,0.3,0.1786,12,0.016369255,0.3298,,,,,,313,0,313,0,1,,,,,
,,184701,001,2023-07-24_21h21.59.862,arm3_eps,2022.2.5,Win32,60.87168249,60b29948c3753b3707dffe90,64aea9d0f615b6559c281482,64beceffd80eacbe3c775853,right,1,0.3,0.1786,12,0.052681711,0.2224,,,,,,314,0,314,0,1,,,,,
,,184701,001,2023-07-24_21h21.59.862,arm3_eps,2022.2.5,Win32,60.87168249,60b29948c3753b3707dffe90,64aea9d0f615b6559c281482,64beceffd80eacbe3c775853,right,1,0.3,0.1786,12,0.079432832,0.2335,,,,,,315,0,315,0,1,,,,,
,,184701,001,2023-07-24_21h21.59.862,arm3_eps,2022.2.5,Win32,60.87168249,60b29948c3753b3707dffe90,64aea9d0f615b6559c281482,64beceffd80eacbe3c775853,right,1,0.3,0.1786,12,0.120449851,0.2889,,,,,,316,0,316,0,1,,,,,
,,184701,001,2023-07-24_21h21.59.862,arm3_eps,2022.2.5,Win32,60.87168249,60b29948c3753b3707dffe90,64aea9d0f615b6559c281482,64beceffd80eacbe3c775853,right,1,0.3,0.1786,12,0.12958197,0.2245,,,,,,317,0,317,0,1,,,,,
,,184701,001,2023-07-24_21h21.59.862,arm3_eps,2022.2.5,Win32,60.87168249,60b29948c3753b3707dffe90,64aea9d0f615b6559c281482,64beceffd80eacbe3c775853,up,1,0.3,0.1786,13,0,0.4418,,,,,,318,0,318,0,1,,,,,
,,184701,001,2023-07-24_21h21.59.862,arm3_eps,2022.2.5,Win32,60.87168249,60b29948c3753b3707dffe90,64aea9d0f615b6559c281482,64beceffd80eacbe3c775853,right,1,0.3,0.1786,13,-0.00622936,1.844,,,,,,319,0,319,0,1,,,,,
,,184701,001,2023-07-24_21h21.59.862,arm3_eps,2022.2.5,Win32,60.87168249,60b29948c3753b3707dffe90,64aea9d0f615b6559c281482,64beceffd80eacbe3c775853,right,1,0.3,0.1786,13,-0.012394743,0.2582,,,,,,320,0,320,0,1,,,,,
,,184701,001,2023-07-24_21h21.59.862,arm3_eps,2022.2.5,Win32,60.87168249,60b29948c3753b3707dffe90,64aea9d0f615b6559c281482,64beceffd80eacbe3c775853,right,1,0.3,0.1786,13,0.011986461,0.2416,,,,,,321,0,321,0,1,,,,,
,,184701,001,2023-07-24_21h21.59.862,arm3_eps,2022.2.5,Win32,60.87168249,60b29948c3753b3707dffe90,64aea9d0f615b6559c281482,64beceffd80eacbe3c775853,right,1,0.3,0.1786,13,-0.009440212,0.2479,,,,,,322,0,322,0,1,,,,,
,,184701,001,2023-07-24_21h21.59.862,arm3_eps,2022.2.5,Win32,60.87168249,60b29948c3753b3707dffe90,64aea9d0f615b6559c281482,64beceffd80eacbe3c775853,right,1,0.3,0.1786,13,-0.015594007,0.1918,,,,,,323,0,323,0,1,,,,,
,,184701,001,2023-07-24_21h21.59.862,arm3_eps,2022.2.5,Win32,60.87168249,60b29948c3753b3707dffe90,64aea9d0f615b6559c281482,64beceffd80eacbe3c775853,right,1,0.3,0.1786,13,0.00583569,0.3908,,,,,,324,0,324,0,1,,,,,
,,184701,001,2023-07-24_21h21.59.862,arm3_eps,2022.2.5,Win32,60.87168249,60b29948c3753b3707dffe90,64aea9d0f615b6559c281482,64beceffd80eacbe3c775853,right,1,0.3,0.1786,13,0.002478231,0.2578,,,,,,325,0,325,0,1,,,,,
,,184701,001,2023-07-24_21h21.59.862,arm3_eps,2022.2.5,Win32,60.87168249,60b29948c3753b3707dffe90,64aea9d0f615b6559c281482,64beceffd80eacbe3c775853,right,1,0.3,0.1786,13,0.028740354,0.2218,,,,,,326,0,326,0,1,,,,,
,,184701,001,2023-07-24_21h21.59.862,arm3_eps,2022.2.5,Win32,60.87168249,60b29948c3753b3707dffe90,64aea9d0f615b6559c281482,64beceffd80eacbe3c775853,right,1,0.3,0.1786,13,0.01047771,0.3425,,,,,,327,0,327,0,1,,,,,
,,184701,001,2023-07-24_21h21.59.862,arm3_eps,2022.2.5,Win32,60.87168249,60b29948c3753b3707dffe90,64aea9d0f615b6559c281482,64beceffd80eacbe3c775853,right,1,0.3,0.1786,13,0.034470687,0.3759,,,,,,328,0,328,0,1,,,,,
,,184701,001,2023-07-24_21h21.59.862,arm3_eps,2022.2.5,Win32,60.87168249,60b29948c3753b3707dffe90,64aea9d0f615b6559c281482,64beceffd80eacbe3c775853,up,1,0.3,0.1786,13,0,0.6808,,,,,,329,0,329,0,1,,,,,
,,184701,001,2023-07-24_21h21.59.862,arm3_eps,2022.2.5,Win32,60.87168249,60b29948c3753b3707dffe90,64aea9d0f615b6559c281482,64beceffd80eacbe3c775853,right,1,0.3,0.1786,13,0.020823439,1.1297,,,,,,330,0,330,0,1,,,,,
,,184701,001,2023-07-24_21h21.59.862,arm3_eps,2022.2.5,Win32,60.87168249,60b29948c3753b3707dffe90,64aea9d0f615b6559c281482,64beceffd80eacbe3c775853,right,1,0.3,0.1786,13,0.028325345,0.2585,,,,,,331,0,331,0,1,,,,,
,,184701,001,2023-07-24_21h21.59.862,arm3_eps,2022.2.5,Win32,60.87168249,60b29948c3753b3707dffe90,64aea9d0f615b6559c281482,64beceffd80eacbe3c775853,right,1,0.3,0.1786,13,0.043060412,0.2076,,,,,,332,0,332,0,1,,,,,
,,184701,001,2023-07-24_21h21.59.862,arm3_eps,2022.2.5,Win32,60.87168249,60b29948c3753b3707dffe90,64aea9d0f615b6559c281482,64beceffd80eacbe3c775853,right,1,0.3,0.1786,13,0.052350339,0.2074,,,,,,333,0,333,0,1,,,,,
,,184701,001,2023-07-24_21h21.59.862,arm3_eps,2022.2.5,Win32,60.87168249,60b29948c3753b3707dffe90,64aea9d0f615b6559c281482,64beceffd80eacbe3c775853,right,1,0.3,0.1786,13,0.066732771,0.2086,,,,,,334,0,334,0,1,,,,,
,,184701,001,2023-07-24_21h21.59.862,arm3_eps,2022.2.5,Win32,60.87168249,60b29948c3753b3707dffe90,64aea9d0f615b6559c281482,64beceffd80eacbe3c775853,right,1,0.3,0.1786,13,0.079918392,0.225,,,,,,335,0,335,0,1,,,,,
,,184701,001,2023-07-24_21h21.59.862,arm3_eps,2022.2.5,Win32,60.87168249,60b29948c3753b3707dffe90,64aea9d0f615b6559c281482,64beceffd80eacbe3c775853,right,1,0.3,0.1786,13,0.12648836,0.2592,,,,,,336,0,336,0,1,,,,,
,,184701,001,2023-07-24_21h21.59.862,arm3_eps,2022.2.5,Win32,60.87168249,60b29948c3753b3707dffe90,64aea9d0f615b6559c281482,64beceffd80eacbe3c775853,up,1,0.3,0.1786,13,0,0.4393,,,,,,337,0,337,0,1,,,,,
,,184701,001,2023-07-24_21h21.59.862,arm3_eps,2022.2.5,Win32,60.87168249,60b29948c3753b3707dffe90,64aea9d0f615b6559c281482,64beceffd80eacbe3c775853,right,1,0.3,0.1786,13,0.034608622,1.1072,,,,,,338,0,338,0,1,,,,,
,,184701,001,2023-07-24_21h21.59.862,arm3_eps,2022.2.5,Win32,60.87168249,60b29948c3753b3707dffe90,64aea9d0f615b6559c281482,64beceffd80eacbe3c775853,right,1,0.3,0.1786,13,0.051529542,0.206,,,,,,339,0,339,0,1,,,,,
,,184701,001,2023-07-24_21h21.59.862,arm3_eps,2022.2.5,Win32,60.87168249,60b29948c3753b3707dffe90,64aea9d0f615b6559c281482,64beceffd80eacbe3c775853,right,1,0.3,0.1786,13,0.033866494,0.2766,,,,,,340,0,340,0,1,,,,,
,,184701,001,2023-07-24_21h21.59.862,arm3_eps,2022.2.5,Win32,60.87168249,60b29948c3753b3707dffe90,64aea9d0f615b6559c281482,64beceffd80eacbe3c775853,right,1,0.3,0.1786,13,0.051661577,0.1928,,,,,,341,0,341,0,1,,,,,
,,184701,001,2023-07-24_21h21.59.862,arm3_eps,2022.2.5,Win32,60.87168249,60b29948c3753b3707dffe90,64aea9d0f615b6559c281482,64beceffd80eacbe3c775853,right,1,0.3,0.1786,13,0.042499957,0.2308,,,,,,342,0,342,0,1,,,,,
,,184701,001,2023-07-24_21h21.59.862,arm3_eps,2022.2.5,Win32,60.87168249,60b29948c3753b3707dffe90,64aea9d0f615b6559c281482,64beceffd80eacbe3c775853,right,1,0.3,0.1786,13,0.045094751,0.2418,,,,,,343,0,343,0,1,,,,,
,,184701,001,2023-07-24_21h21.59.862,arm3_eps,2022.2.5,Win32,60.87168249,60b29948c3753b3707dffe90,64aea9d0f615b6559c281482,64beceffd80eacbe3c775853,right,1,0.3,0.1786,13,0.041635483,0.2411,,,,,,344,0,344,0,1,,,,,
,,184701,001,2023-07-24_21h21.59.862,arm3_eps,2022.2.5,Win32,60.87168249,60b29948c3753b3707dffe90,64aea9d0f615b6559c281482,64beceffd80eacbe3c775853,right,1,0.3,0.1786,13,0.048788432,0.2268,,,,,,345,0,345,0,1,,,,,
,,184701,001,2023-07-24_21h21.59.862,arm3_eps,2022.2.5,Win32,60.87168249,60b29948c3753b3707dffe90,64aea9d0f615b6559c281482,64beceffd80eacbe3c775853,right,1,0.3,0.1786,13,0.035848409,0.2413,,,,,,346,0,346,0,1,,,,,
,,184701,001,2023-07-24_21h21.59.862,arm3_eps,2022.2.5,Win32,60.87168249,60b29948c3753b3707dffe90,64aea9d0f615b6559c281482,64beceffd80eacbe3c775853,right,1,0.3,0.1786,13,0.039461127,0.2424,,,,,,347,0,347,0,1,,,,,
,,184701,001,2023-07-24_21h21.59.862,arm3_eps,2022.2.5,Win32,60.87168249,60b29948c3753b3707dffe90,64aea9d0f615b6559c281482,64beceffd80eacbe3c775853,right,1,0.3,0.1786,13,0.050498468,0.2424,,,,,,348,0,348,0,1,,,,,
,,184701,001,2023-07-24_21h21.59.862,arm3_eps,2022.2.5,Win32,60.87168249,60b29948c3753b3707dffe90,64aea9d0f615b6559c281482,64beceffd80eacbe3c775853,up,-1,0.3,0.1786,13,0,0.5482,,,,,,349,0,349,0,1,,,,,
,,184701,001,2023-07-24_21h21.59.862,arm3_eps,2022.2.5,Win32,60.87168249,60b29948c3753b3707dffe90,64aea9d0f615b6559c281482,64beceffd80eacbe3c775853,right,-1,0.3,0.1786,13,0.012734028,0.9305,,,,,,350,0,350,0,1,,,,,
,,184701,001,2023-07-24_21h21.59.862,arm3_eps,2022.2.5,Win32,60.87168249,60b29948c3753b3707dffe90,64aea9d0f615b6559c281482,64beceffd80eacbe3c775853,right,-1,0.3,0.1786,13,0.028745669,0.2313,,,,,,351,0,351,0,1,,,,,
,,184701,001,2023-07-24_21h21.59.862,arm3_eps,2022.2.5,Win32,60.87168249,60b29948c3753b3707dffe90,64aea9d0f615b6559c281482,64beceffd80eacbe3c775853,right,-1,0.3,0.1786,13,0.029350887,0.2306,,,,,,352,0,352,0,1,,,,,
,,184701,001,2023-07-24_21h21.59.862,arm3_eps,2022.2.5,Win32,60.87168249,60b29948c3753b3707dffe90,64aea9d0f615b6559c281482,64beceffd80eacbe3c775853,right,-1,0.3,0.1786,13,0.016605776,0.1983,,,,,,353,0,353,0,1,,,,,
,,184701,001,2023-07-24_21h21.59.862,arm3_eps,2022.2.5,Win32,60.87168249,60b29948c3753b3707dffe90,64aea9d0f615b6559c281482,64beceffd80eacbe3c775853,right,-1,0.3,0.1786,13,0.021354716,0.2117,,,,,,354,0,354,0,1,,,,,
,,184701,001,2023-07-24_21h21.59.862,arm3_eps,2022.2.5,Win32,60.87168249,60b29948c3753b3707dffe90,64aea9d0f615b6559c281482,64beceffd80eacbe3c775853,right,-1,0.3,0.1786,13,0.001754277,0.2487,,,,,,355,0,355,0,1,,,,,
,,184701,001,2023-07-24_21h21.59.862,arm3_eps,2022.2.5,Win32,60.87168249,60b29948c3753b3707dffe90,64aea9d0f615b6559c281482,64beceffd80eacbe3c775853,right,-1,0.3,0.1786,13,-0.013329944,0.1987,,,,,,356,0,356,0,1,,,,,
,,184701,001,2023-07-24_21h21.59.862,arm3_eps,2022.2.5,Win32,60.87168249,60b29948c3753b3707dffe90,64aea9d0f615b6559c281482,64beceffd80eacbe3c775853,right,-1,0.3,0.1786,13,-0.012632107,0.4976,,,,,,357,0,357,0,1,,,,,
,,184701,001,2023-07-24_21h21.59.862,arm3_eps,2022.2.5,Win32,60.87168249,60b29948c3753b3707dffe90,64aea9d0f615b6559c281482,64beceffd80eacbe3c775853,right,-1,0.3,0.1786,13,-0.029736965,0.7324,,,,,,358,0,358,0,1,,,,,
,,184701,001,2023-07-24_21h21.59.862,arm3_eps,2022.2.5,Win32,60.87168249,60b29948c3753b3707dffe90,64aea9d0f615b6559c281482,64beceffd80eacbe3c775853,down,-1,0.3,0.1786,13,0,0.5311,,,,,,359,0,359,0,1,,,,,
,,184701,001,2023-07-24_21h21.59.862,arm3_eps,2022.2.5,Win32,60.87168249,60b29948c3753b3707dffe90,64aea9d0f615b6559c281482,64beceffd80eacbe3c775853,right,-1,0.3,0.1786,13,-0.006991601,1.0767,,,,,,360,0,360,0,1,,,,,
,,184701,001,2023-07-24_21h21.59.862,arm3_eps,2022.2.5,Win32,60.87168249,60b29948c3753b3707dffe90,64aea9d0f615b6559c281482,64beceffd80eacbe3c775853,right,-1,0.3,0.1786,13,0.006352595,0.2483,,,,,,361,0,361,0,1,,,,,
,,184701,001,2023-07-24_21h21.59.862,arm3_eps,2022.2.5,Win32,60.87168249,60b29948c3753b3707dffe90,64aea9d0f615b6559c281482,64beceffd80eacbe3c775853,right,-1,0.3,0.1786,13,-0.033598556,0.2566,,,,,,362,0,362,0,1,,,,,
,,184701,001,2023-07-24_21h21.59.862,arm3_eps,2022.2.5,Win32,60.87168249,60b29948c3753b3707dffe90,64aea9d0f615b6559c281482,64beceffd80eacbe3c775853,right,-1,0.3,0.1786,13,-0.028617405,0.2244,,,,,,363,0,363,0,1,,,,,
,,184701,001,2023-07-24_21h21.59.862,arm3_eps,2022.2.5,Win32,60.87168249,60b29948c3753b3707dffe90,64aea9d0f615b6559c281482,64beceffd80eacbe3c775853,right,-1,0.3,0.1786,13,-0.039914667,0.2454,,,,,,364,0,364,0,1,,,,,
,,184701,001,2023-07-24_21h21.59.862,arm3_eps,2022.2.5,Win32,60.87168249,60b29948c3753b3707dffe90,64aea9d0f615b6559c281482,64beceffd80eacbe3c775853,right,-1,0.3,0.1786,13,-0.035198936,0.2078,,,,,,365,0,365,0,1,,,,,
,,184701,001,2023-07-24_21h21.59.862,arm3_eps,2022.2.5,Win32,60.87168249,60b29948c3753b3707dffe90,64aea9d0f615b6559c281482,64beceffd80eacbe3c775853,right,-1,0.3,0.1786,13,-0.073352239,0.2241,,,,,,366,0,366,0,1,,,,,
,,184701,001,2023-07-24_21h21.59.862,arm3_eps,2022.2.5,Win32,60.87168249,60b29948c3753b3707dffe90,64aea9d0f615b6559c281482,64beceffd80eacbe3c775853,down,-1,0.3,0.1786,14,0,0.5578,,,,,,367,0,367,0,1,,,,,
,,184701,001,2023-07-24_21h21.59.862,arm3_eps,2022.2.5,Win32,60.87168249,60b29948c3753b3707dffe90,64aea9d0f615b6559c281482,64beceffd80eacbe3c775853,right,-1,0.3,0.1786,14,-0.019001757,1.6773,,,,,,368,0,368,0,1,,,,,
,,184701,001,2023-07-24_21h21.59.862,arm3_eps,2022.2.5,Win32,60.87168249,60b29948c3753b3707dffe90,64aea9d0f615b6559c281482,64beceffd80eacbe3c775853,right,-1,0.3,0.1786,14,-0.070516797,0.2253,,,,,,369,0,369,0,1,,,,,
,,184701,001,2023-07-24_21h21.59.862,arm3_eps,2022.2.5,Win32,60.87168249,60b29948c3753b3707dffe90,64aea9d0f615b6559c281482,64beceffd80eacbe3c775853,,,,,,,,,,,,,,,,,,0,0,0,0,1
space,9.754,184701,001,2023-07-24_21h21.59.862,arm3_eps,2022.2.5,Win32,60.87168249,60b29948c3753b3707dffe90,64aea9d0f615b6559c281482,64beceffd80eacbe3c775853,right,-1,0.3,0.05,14,-0.003610764,1.5115,,,,,,0,0,0,0,1,,,,,
,,184701,001,2023-07-24_21h21.59.862,arm3_eps,2022.2.5,Win32,60.87168249,60b29948c3753b3707dffe90,64aea9d0f615b6559c281482,64beceffd80eacbe3c775853,right,-1,0.3,0.05,14,-0.008656147,0.34,,,,,,1,0,1,0,1,,,,,
,,184701,001,2023-07-24_21h21.59.862,arm3_eps,2022.2.5,Win32,60.87168249,60b29948c3753b3707dffe90,64aea9d0f615b6559c281482,64beceffd80eacbe3c775853,right,-1,0.3,0.05,14,-0.009114253,0.2324,,,,,,2,0,2,0,1,,,,,
,,184701,001,2023-07-24_21h21.59.862,arm3_eps,2022.2.5,Win32,60.87168249,60b29948c3753b3707dffe90,64aea9d0f615b6559c281482,64beceffd80eacbe3c775853,down,-1,0.3,0.05,15,0,0.4143,,,,,,3,0,3,0,1,,,,,
,,184701,001,2023-07-24_21h21.59.862,arm3_eps,2022.2.5,Win32,60.87168249,60b29948c3753b3707dffe90,64aea9d0f615b6559c281482,64beceffd80eacbe3c775853,right,-1,0.3,0.05,15,-0.010268287,1.0234,,,,,,4,0,4,0,1,,,,,
,,184701,001,2023-07-24_21h21.59.862,arm3_eps,2022.2.5,Win32,60.87168249,60b29948c3753b3707dffe90,64aea9d0f615b6559c281482,64beceffd80eacbe3c775853,right,-1,0.3,0.05,15,-0.01179765,0.309,,,,,,5,0,5,0,1,,,,,
,,184701,001,2023-07-24_21h21.59.862,arm3_eps,2022.2.5,Win32,60.87168249,60b29948c3753b3707dffe90,64aea9d0f615b6559c281482,64beceffd80eacbe3c775853,right,-1,0.3,0.05,15,-0.007873184,0.2247,,,,,,6,0,6,0,1,,,,,
,,184701,001,2023-07-24_21h21.59.862,arm3_eps,2022.2.5,Win32,60.87168249,60b29948c3753b3707dffe90,64aea9d0f615b6559c281482,64beceffd80eacbe3c775853,right,-1,0.3,0.05,15,-0.007981202,0.2431,,,,,,7,0,7,0,1,,,,,
,,184701,001,2023-07-24_21h21.59.862,arm3_eps,2022.2.5,Win32,60.87168249,60b29948c3753b3707dffe90,64aea9d0f615b6559c281482,64beceffd80eacbe3c775853,right,-1,0.3,0.05,15,-0.020956192,0.5025,,,,,,8,0,8,0,1,,,,,
,,184701,001,2023-07-24_21h21.59.862,arm3_eps,2022.2.5,Win32,60.87168249,60b29948c3753b3707dffe90,64aea9d0f615b6559c281482,64beceffd80eacbe3c775853,right,-1,0.3,0.05,15,-0.032638924,0.3414,,,,,,9,0,9,0,1,,,,,
,,184701,001,2023-07-24_21h21.59.862,arm3_eps,2022.2.5,Win32,60.87168249,60b29948c3753b3707dffe90,64aea9d0f615b6559c281482,64beceffd80eacbe3c775853,right,-1,0.3,0.05,15,-0.024790343,0.8305,,,,,,10,0,10,0,1,,,,,
,,184701,001,2023-07-24_21h21.59.862,arm3_eps,2022.2.5,Win32,60.87168249,60b29948c3753b3707dffe90,64aea9d0f615b6559c281482,64beceffd80eacbe3c775853,right,-1,0.3,0.05,15,-0.026129043,0.3639,,,,,,11,0,11,0,1,,,,,
,,184701,001,2023-07-24_21h21.59.862,arm3_eps,2022.2.5,Win32,60.87168249,60b29948c3753b3707dffe90,64aea9d0f615b6559c281482,64beceffd80eacbe3c775853,right,-1,0.3,0.05,15,-0.0304316,0.2797,,,,,,12,0,12,0,1,,,,,
,,184701,001,2023-07-24_21h21.59.862,arm3_eps,2022.2.5,Win32,60.87168249,60b29948c3753b3707dffe90,64aea9d0f615b6559c281482,64beceffd80eacbe3c775853,down,-1,0.3,0.05,15,0,0.4256,,,,,,13,0,13,0,1,,,,,
,,184701,001,2023-07-24_21h21.59.862,arm3_eps,2022.2.5,Win32,60.87168249,60b29948c3753b3707dffe90,64aea9d0f615b6559c281482,64beceffd80eacbe3c775853,right,-1,0.3,0.05,15,-0.006894152,0.9582,,,,,,14,0,14,0,1,,,,,
,,184701,001,2023-07-24_21h21.59.862,arm3_eps,2022.2.5,Win32,60.87168249,60b29948c3753b3707dffe90,64aea9d0f615b6559c281482,64beceffd80eacbe3c775853,right,-1,0.3,0.05,15,-0.035866109,0.1917,,,,,,15,0,15,0,1,,,,,
,,184701,001,2023-07-24_21h21.59.862,arm3_eps,2022.2.5,Win32,60.87168249,60b29948c3753b3707dffe90,64aea9d0f615b6559c281482,64beceffd80eacbe3c775853,right,-1,0.3,0.05,15,-0.034428003,0.1888,,,,,,16,0,16,0,1,,,,,
,,184701,001,2023-07-24_21h21.59.862,arm3_eps,2022.2.5,Win32,60.87168249,60b29948c3753b3707dffe90,64aea9d0f615b6559c281482,64beceffd80eacbe3c775853,right,-1,0.3,0.05,15,-0.043382148,0.2116,,,,,,17,0,17,0,1,,,,,
,,184701,001,2023-07-24_21h21.59.862,arm3_eps,2022.2.5,Win32,60.87168249,60b29948c3753b3707dffe90,64aea9d0f615b6559c281482,64beceffd80eacbe3c775853,down,-1,0.3,0.05,15,0,0.642,,,,,,18,0,18,0,1,,,,,
,,184701,001,2023-07-24_21h21.59.862,arm3_eps,2022.2.5,Win32,60.87168249,60b29948c3753b3707dffe90,64aea9d0f615b6559c281482,64beceffd80eacbe3c775853,right,-1,0.3,0.05,15,-0.001207751,0.649,,,,,,19,0,19,0,1,,,,,
,,184701,001,2023-07-24_21h21.59.862,arm3_eps,2022.2.5,Win32,60.87168249,60b29948c3753b3707dffe90,64aea9d0f615b6559c281482,64beceffd80eacbe3c775853,right,-1,0.3,0.05,15,-0.005386982,0.2165,,,,,,20,0,20,0,1,,,,,
,,184701,001,2023-07-24_21h21.59.862,arm3_eps,2022.2.5,Win32,60.87168249,60b29948c3753b3707dffe90,64aea9d0f615b6559c281482,64beceffd80eacbe3c775853,right,-1,0.3,0.05,15,-0.039823374,0.2394,,,,,,21,0,21,0,1,,,,,
,,184701,001,2023-07-24_21h21.59.862,arm3_eps,2022.2.5,Win32,60.87168249,60b29948c3753b3707dffe90,64aea9d0f615b6559c281482,64beceffd80eacbe3c775853,right,-1,0.3,0.05,15,-0.050064583,0.2093,,,,,,22,0,22,0,1,,,,,
,,184701,001,2023-07-24_21h21.59.862,arm3_eps,2022.2.5,Win32,60.87168249,60b29948c3753b3707dffe90,64aea9d0f615b6559c281482,64beceffd80eacbe3c775853,right,-1,0.3,0.05,15,-0.057643802,0.2056,,,,,,23,0,23,0,1,,,,,
,,184701,001,2023-07-24_21h21.59.862,arm3_eps,2022.2.5,Win32,60.87168249,60b29948c3753b3707dffe90,64aea9d0f615b6559c281482,64beceffd80eacbe3c775853,right,-1,0.3,0.05,15,-0.042711054,0.2005,,,,,,24,0,24,0,1,,,,,
,,184701,001,2023-07-24_21h21.59.862,arm3_eps,2022.2.5,Win32,60.87168249,60b29948c3753b3707dffe90,64aea9d0f615b6559c281482,64beceffd80eacbe3c775853,right,-1,0.3,0.05,15,-0.051543684,0.2675,,,,,,25,0,25,0,1,,,,,
,,184701,001,2023-07-24_21h21.59.862,arm3_eps,2022.2.5,Win32,60.87168249,60b29948c3753b3707dffe90,64aea9d0f615b6559c281482,64beceffd80eacbe3c775853,down,-1,0.3,0.05,15,0,0.3853,,,,,,26,0,26,0,1,,,,,
,,184701,001,2023-07-24_21h21.59.862,arm3_eps,2022.2.5,Win32,60.87168249,60b29948c3753b3707dffe90,64aea9d0f615b6559c281482,64beceffd80eacbe3c775853,right,-1,0.3,0.05,15,0.010581453,0.8656,,,,,,27,0,27,0,1,,,,,
,,184701,001,2023-07-24_21h21.59.862,arm3_eps,2022.2.5,Win32,60.87168249,60b29948c3753b3707dffe90,64aea9d0f615b6559c281482,64beceffd80eacbe3c775853,right,-1,0.3,0.05,15,-0.026062488,0.2424,,,,,,28,0,28,0,1,,,,,
,,184701,001,2023-07-24_21h21.59.862,arm3_eps,2022.2.5,Win32,60.87168249,60b29948c3753b3707dffe90,64aea9d0f615b6559c281482,64beceffd80eacbe3c775853,right,-1,0.3,0.05,15,-0.04264789,0.1834,,,,,,29,0,29,0,1,,,,,
,,184701,001,2023-07-24_21h21.59.862,arm3_eps,2022.2.5,Win32,60.87168249,60b29948c3753b3707dffe90,64aea9d0f615b6559c281482,64beceffd80eacbe3c775853,right,-1,0.3,0.05,15,-0.044869032,0.2258,,,,,,30,0,30,0,1,,,,,
,,184701,001,2023-07-24_21h21.59.862,arm3_eps,2022.2.5,Win32,60.87168249,60b29948c3753b3707dffe90,64aea9d0f615b6559c281482,64beceffd80eacbe3c775853,right,-1,0.3,0.05,15,-0.074363414,0.2101,,,,,,31,0,31,0,1,,,,,
,,184701,001,2023-07-24_21h21.59.862,arm3_eps,2022.2.5,Win32,60.87168249,60b29948c3753b3707dffe90,64aea9d0f615b6559c281482,64beceffd80eacbe3c775853,right,-1,0.3,0.05,15,-0.067805618,0.208,,,,,,32,0,32,0,1,,,,,
,,184701,001,2023-07-24_21h21.59.862,arm3_eps,2022.2.5,Win32,60.87168249,60b29948c3753b3707dffe90,64aea9d0f615b6559c281482,64beceffd80eacbe3c775853,down,-1,0.3,0.05,15,0,0.3449,,,,,,33,0,33,0,1,,,,,
,,184701,001,2023-07-24_21h21.59.862,arm3_eps,2022.2.5,Win32,60.87168249,60b29948c3753b3707dffe90,64aea9d0f615b6559c281482,64beceffd80eacbe3c775853,right,-1,0.3,0.05,15,-0.00497148,0.6259,,,,,,34,0,34,0,1,,,,,
,,184701,001,2023-07-24_21h21.59.862,arm3_eps,2022.2.5,Win32,60.87168249,60b29948c3753b3707dffe90,64aea9d0f615b6559c281482,64beceffd80eacbe3c775853,right,-1,0.3,0.05,15,0.002376696,0.2591,,,,,,35,0,35,0,1,,,,,
,,184701,001,2023-07-24_21h21.59.862,arm3_eps,2022.2.5,Win32,60.87168249,60b29948c3753b3707dffe90,64aea9d0f615b6559c281482,64beceffd80eacbe3c775853,right,-1,0.3,0.05,15,0.003717324,0.1766,,,,,,36,0,36,0,1,,,,,
,,184701,001,2023-07-24_21h21.59.862,arm3_eps,2022.2.5,Win32,60.87168249,60b29948c3753b3707dffe90,64aea9d0f615b6559c281482,64beceffd80eacbe3c775853,right,-1,0.3,0.05,15,0.017763165,0.241,,,,,,37,0,37,0,1,,,,,
,,184701,001,2023-07-24_21h21.59.862,arm3_eps,2022.2.5,Win32,60.87168249,60b29948c3753b3707dffe90,64aea9d0f615b6559c281482,64beceffd80eacbe3c775853,right,-1,0.3,0.05,15,-0.027570962,0.1422,,,,,,38,0,38,0,1,,,,,
,,184701,001,2023-07-24_21h21.59.862,arm3_eps,2022.2.5,Win32,60.87168249,60b29948c3753b3707dffe90,64aea9d0f615b6559c281482,64beceffd80eacbe3c775853,right,-1,0.3,0.05,15,-0.060823659,0.1906,,,,,,39,0,39,0,1,,,,,
,,184701,001,2023-07-24_21h21.59.862,arm3_eps,2022.2.5,Win32,60.87168249,60b29948c3753b3707dffe90,64aea9d0f615b6559c281482,64beceffd80eacbe3c775853,right,-1,0.3,0.05,15,-0.052152632,0.2411,,,,,,40,0,40,0,1,,,,,
