space_bar.keys,space_bar.rt,participant,session,date,expName,psychopyVersion,OS,frameRate,PROLIFIC_PID,STUDY_ID,SESSION_ID,resp.keys,state,q_prob,eps_prob,score,price,resp.rt,train.thisRepN,train.thisTrialN,train.thisN,train.thisIndex,train.ran,steps.thisRepN,steps.thisTrialN,steps.thisN,steps.thisIndex,steps.ran,blocks.thisRepN,blocks.thisTrialN,blocks.thisN,blocks.thisIndex,blocks.ran
space,5.6564,208088,001,2023-07-24_13h05.37.084,arm3_eps,2022.2.5,Win32,59.95563283,61038917dbab6d0d7f203eef,64aea9d0f615b6559c281482,64becb6f1ac70ee1a8c439d5,,,,,,,,,,,,,,,,,,,,,,
space,10.4005,208088,001,2023-07-24_13h05.37.084,arm3_eps,2022.2.5,Win32,59.95563283,61038917dbab6d0d7f203eef,64aea9d0f615b6559c281482,64becb6f1ac70ee1a8c439d5,,,,,,,,,,,,,,,,,,,,,,
space,6.722,208088,001,2023-07-24_13h05.37.084,arm3_eps,2022.2.5,Win32,59.95563283,61038917dbab6d0d7f203eef,64aea9d0f615b6559c281482,64becb6f1ac70ee1a8c439d5,,,,,,,,,,,,,,,,,,,,,,
space,8.788,208088,001,2023-07-24_13h05.37.084,arm3_eps,2022.2.5,Win32,59.95563283,61038917dbab6d0d7f203eef,64aea9d0f615b6559c281482,64becb6f1ac70ee1a8c439d5,,,,,,,,,,,,,,,,,,,,,,
space,12.8034,208088,001,2023-07-24_13h05.37.084,arm3_eps,2022.2.5,Win32,59.95563283,61038917dbab6d0d7f203eef,64aea9d0f615b6559c281482,64becb6f1ac70ee1a8c439d5,,,,,,,,,,,,,,,,,,,,,,
space,16.2419,208088,001,2023-07-24_13h05.37.084,arm3_eps,2022.2.5,Win32,59.95563283,61038917dbab6d0d7f203eef,64aea9d0f615b6559c281482,64becb6f1ac70ee1a8c439d5,,,,,,,,,,,,,,,,,,,,,,
space,4.8213,208088,001,2023-07-24_13h05.37.084,arm3_eps,2022.2.5,Win32,59.95563283,61038917dbab6d0d7f203eef,64aea9d0f615b6559c281482,64becb6f1ac70ee1a8c439d5,,,,,,,,,,,,,,,,,,,,,,
space,22.3349,208088,001,2023-07-24_13h05.37.084,arm3_eps,2022.2.5,Win32,59.95563283,61038917dbab6d0d7f203eef,64aea9d0f615b6559c281482,64becb6f1ac70ee1a8c439d5,,,,,,,,,,,,,,,,,,,,,,
space,8.7384,208088,001,2023-07-24_13h05.37.084,arm3_eps,2022.2.5,Win32,59.95563283,61038917dbab6d0d7f203eef,64aea9d0f615b6559c281482,64becb6f1ac70ee1a8c439d5,,,,,,,,,,,,,,,,,,,,,,
space,4.5879,208088,001,2023-07-24_13h05.37.084,arm3_eps,2022.2.5,Win32,59.95563283,61038917dbab6d0d7f203eef,64aea9d0f615b6559c281482,64becb6f1ac70ee1a8c439d5,,,,,,,,,,,,,,,,,,,,,,
,,208088,001,2023-07-24_13h05.37.084,arm3_eps,2022.2.5,Win32,59.95563283,61038917dbab6d0d7f203eef,64aea9d0f615b6559c281482,64becb6f1ac70ee1a8c439d5,right,-1,0.3,0.2429,0,0.024294126,2.3029,0,0,0,0,1,,,,,,,,,,
,,208088,001,2023-07-24_13h05.37.084,arm3_eps,2022.2.5,Win32,59.95563283,61038917dbab6d0d7f203eef,64aea9d0f615b6559c281482,64becb6f1ac70ee1a8c439d5,right,-1,0.3,0.2429,0,0.019443352,1.8774,1,0,1,0,1,,,,,,,,,,
,,208088,001,2023-07-24_13h05.37.084,arm3_eps,2022.2.5,Win32,59.95563283,61038917dbab6d0d7f203eef,64aea9d0f615b6559c281482,64becb6f1ac70ee1a8c439d5,up,-1,0.3,0.2429,-1,0,1.2412,2,0,2,0,1,,,,,,,,,,
,,208088,001,2023-07-24_13h05.37.084,arm3_eps,2022.2.5,Win32,59.95563283,61038917dbab6d0d7f203eef,64aea9d0f615b6559c281482,64becb6f1ac70ee1a8c439d5,right,-1,0.3,0.2429,-1,0.032228486,1.5253,3,0,3,0,1,,,,,,,,,,
,,208088,001,2023-07-24_13h05.37.084,arm3_eps,2022.2.5,Win32,59.95563283,61038917dbab6d0d7f203eef,64aea9d0f615b6559c281482,64becb6f1ac70ee1a8c439d5,right,-1,0.3,0.2429,-1,0.024099771,0.5509,4,0,4,0,1,,,,,,,,,,
,,208088,001,2023-07-24_13h05.37.084,arm3_eps,2022.2.5,Win32,59.95563283,61038917dbab6d0d7f203eef,64aea9d0f615b6559c281482,64becb6f1ac70ee1a8c439d5,right,-1,0.3,0.2429,-1,0.036365236,0.8005,5,0,5,0,1,,,,,,,,,,
,,208088,001,2023-07-24_13h05.37.084,arm3_eps,2022.2.5,Win32,59.95563283,61038917dbab6d0d7f203eef,64aea9d0f615b6559c281482,64becb6f1ac70ee1a8c439d5,up,-1,0.3,0.2429,-2,0,2.3347,6,0,6,0,1,,,,,,,,,,
,,208088,001,2023-07-24_13h05.37.084,arm3_eps,2022.2.5,Win32,59.95563283,61038917dbab6d0d7f203eef,64aea9d0f615b6559c281482,64becb6f1ac70ee1a8c439d5,right,-1,0.3,0.2429,-2,-0.016922789,1.3425,7,0,7,0,1,,,,,,,,,,
,,208088,001,2023-07-24_13h05.37.084,arm3_eps,2022.2.5,Win32,59.95563283,61038917dbab6d0d7f203eef,64aea9d0f615b6559c281482,64becb6f1ac70ee1a8c439d5,right,-1,0.3,0.2429,-2,-0.035998371,0.4711,8,0,8,0,1,,,,,,,,,,
,,208088,001,2023-07-24_13h05.37.084,arm3_eps,2022.2.5,Win32,59.95563283,61038917dbab6d0d7f203eef,64aea9d0f615b6559c281482,64becb6f1ac70ee1a8c439d5,right,-1,0.3,0.2429,-2,-0.048925414,0.3394,9,0,9,0,1,,,,,,,,,,
,,208088,001,2023-07-24_13h05.37.084,arm3_eps,2022.2.5,Win32,59.95563283,61038917dbab6d0d7f203eef,64aea9d0f615b6559c281482,64becb6f1ac70ee1a8c439d5,down,-1,0.3,0.2429,-1,0,0.6779,10,0,10,0,1,,,,,,,,,,
,,208088,001,2023-07-24_13h05.37.084,arm3_eps,2022.2.5,Win32,59.95563283,61038917dbab6d0d7f203eef,64aea9d0f615b6559c281482,64becb6f1ac70ee1a8c439d5,right,-1,0.3,0.2429,-1,-0.023461257,1.2259,11,0,11,0,1,,,,,,,,,,
,,208088,001,2023-07-24_13h05.37.084,arm3_eps,2022.2.5,Win32,59.95563283,61038917dbab6d0d7f203eef,64aea9d0f615b6559c281482,64becb6f1ac70ee1a8c439d5,right,-1,0.3,0.2429,-1,-0.036931998,0.6151,12,0,12,0,1,,,,,,,,,,
,,208088,001,2023-07-24_13h05.37.084,arm3_eps,2022.2.5,Win32,59.95563283,61038917dbab6d0d7f203eef,64aea9d0f615b6559c281482,64becb6f1ac70ee1a8c439d5,down,1,0.3,0.2429,-1,0,0.7016,13,0,13,0,1,,,,,,,,,,
,,208088,001,2023-07-24_13h05.37.084,arm3_eps,2022.2.5,Win32,59.95563283,61038917dbab6d0d7f203eef,64aea9d0f615b6559c281482,64becb6f1ac70ee1a8c439d5,right,1,0.3,0.2429,-1,0.012579611,1.2003,14,0,14,0,1,,,,,,,,,,
,,208088,001,2023-07-24_13h05.37.084,arm3_eps,2022.2.5,Win32,59.95563283,61038917dbab6d0d7f203eef,64aea9d0f615b6559c281482,64becb6f1ac70ee1a8c439d5,right,1,0.3,0.2429,-1,0.045410934,0.4322,15,0,15,0,1,,,,,,,,,,
,,208088,001,2023-07-24_13h05.37.084,arm3_eps,2022.2.5,Win32,59.95563283,61038917dbab6d0d7f203eef,64aea9d0f615b6559c281482,64becb6f1ac70ee1a8c439d5,right,1,0.3,0.2429,-1,0.043554585,0.816,16,0,16,0,1,,,,,,,,,,
,,208088,001,2023-07-24_13h05.37.084,arm3_eps,2022.2.5,Win32,59.95563283,61038917dbab6d0d7f203eef,64aea9d0f615b6559c281482,64becb6f1ac70ee1a8c439d5,right,1,0.3,0.2429,-1,0.043836696,0.5703,17,0,17,0,1,,,,,,,,,,
,,208088,001,2023-07-24_13h05.37.084,arm3_eps,2022.2.5,Win32,59.95563283,61038917dbab6d0d7f203eef,64aea9d0f615b6559c281482,64becb6f1ac70ee1a8c439d5,up,1,0.3,0.2429,-1,0,0.7065,18,0,18,0,1,,,,,,,,,,
,,208088,001,2023-07-24_13h05.37.084,arm3_eps,2022.2.5,Win32,59.95563283,61038917dbab6d0d7f203eef,64aea9d0f615b6559c281482,64becb6f1ac70ee1a8c439d5,right,1,0.3,0.2429,-1,-0.001654601,1.1574,19,0,19,0,1,,,,,,,,,,
,,208088,001,2023-07-24_13h05.37.084,arm3_eps,2022.2.5,Win32,59.95563283,61038917dbab6d0d7f203eef,64aea9d0f615b6559c281482,64becb6f1ac70ee1a8c439d5,right,1,0.3,0.2429,-1,-0.004313618,1.5095,20,0,20,0,1,,,,,,,,,,
,,208088,001,2023-07-24_13h05.37.084,arm3_eps,2022.2.5,Win32,59.95563283,61038917dbab6d0d7f203eef,64aea9d0f615b6559c281482,64becb6f1ac70ee1a8c439d5,right,1,0.3,0.2429,-1,-0.026372198,0.8395,21,0,21,0,1,,,,,,,,,,
,,208088,001,2023-07-24_13h05.37.084,arm3_eps,2022.2.5,Win32,59.95563283,61038917dbab6d0d7f203eef,64aea9d0f615b6559c281482,64becb6f1ac70ee1a8c439d5,right,1,0.3,0.2429,-1,0.004367012,1.5727,22,0,22,0,1,,,,,,,,,,
,,208088,001,2023-07-24_13h05.37.084,arm3_eps,2022.2.5,Win32,59.95563283,61038917dbab6d0d7f203eef,64aea9d0f615b6559c281482,64becb6f1ac70ee1a8c439d5,right,1,0.3,0.2429,-1,-0.006216781,1.0755,23,0,23,0,1,,,,,,,,,,
,,208088,001,2023-07-24_13h05.37.084,arm3_eps,2022.2.5,Win32,59.95563283,61038917dbab6d0d7f203eef,64aea9d0f615b6559c281482,64becb6f1ac70ee1a8c439d5,up,-1,0.3,0.2429,0,0,0.6325,24,0,24,0,1,,,,,,,,,,
,,208088,001,2023-07-24_13h05.37.084,arm3_eps,2022.2.5,Win32,59.95563283,61038917dbab6d0d7f203eef,64aea9d0f615b6559c281482,64becb6f1ac70ee1a8c439d5,right,-1,0.3,0.2429,0,0.012139551,1.1011,25,0,25,0,1,,,,,,,,,,
,,208088,001,2023-07-24_13h05.37.084,arm3_eps,2022.2.5,Win32,59.95563283,61038917dbab6d0d7f203eef,64aea9d0f615b6559c281482,64becb6f1ac70ee1a8c439d5,right,-1,0.3,0.2429,0,0.023814139,0.6238,26,0,26,0,1,,,,,,,,,,
,,208088,001,2023-07-24_13h05.37.084,arm3_eps,2022.2.5,Win32,59.95563283,61038917dbab6d0d7f203eef,64aea9d0f615b6559c281482,64becb6f1ac70ee1a8c439d5,right,-1,0.3,0.2429,0,0.011495028,1.3019,27,0,27,0,1,,,,,,,,,,
,,208088,001,2023-07-24_13h05.37.084,arm3_eps,2022.2.5,Win32,59.95563283,61038917dbab6d0d7f203eef,64aea9d0f615b6559c281482,64becb6f1ac70ee1a8c439d5,right,-1,0.3,0.2429,0,0.018698742,1.4236,28,0,28,0,1,,,,,,,,,,
,,208088,001,2023-07-24_13h05.37.084,arm3_eps,2022.2.5,Win32,59.95563283,61038917dbab6d0d7f203eef,64aea9d0f615b6559c281482,64becb6f1ac70ee1a8c439d5,down,-1,0.3,0.2429,1,0,0.9334,29,0,29,0,1,,,,,,,,,,
,,208088,001,2023-07-24_13h05.37.084,arm3_eps,2022.2.5,Win32,59.95563283,61038917dbab6d0d7f203eef,64aea9d0f615b6559c281482,64becb6f1ac70ee1a8c439d5,right,-1,0.3,0.2429,1,-0.042382824,0.9742,30,0,30,0,1,,,,,,,,,,
,,208088,001,2023-07-24_13h05.37.084,arm3_eps,2022.2.5,Win32,59.95563283,61038917dbab6d0d7f203eef,64aea9d0f615b6559c281482,64becb6f1ac70ee1a8c439d5,right,-1,0.3,0.2429,1,-0.022838064,0.6946,31,0,31,0,1,,,,,,,,,,
,,208088,001,2023-07-24_13h05.37.084,arm3_eps,2022.2.5,Win32,59.95563283,61038917dbab6d0d7f203eef,64aea9d0f615b6559c281482,64becb6f1ac70ee1a8c439d5,right,-1,0.3,0.2429,1,-0.015522678,0.6342,32,0,32,0,1,,,,,,,,,,
,,208088,001,2023-07-24_13h05.37.084,arm3_eps,2022.2.5,Win32,59.95563283,61038917dbab6d0d7f203eef,64aea9d0f615b6559c281482,64becb6f1ac70ee1a8c439d5,right,-1,0.3,0.2429,1,-0.029436694,0.3827,33,0,33,0,1,,,,,,,,,,
,,208088,001,2023-07-24_13h05.37.084,arm3_eps,2022.2.5,Win32,59.95563283,61038917dbab6d0d7f203eef,64aea9d0f615b6559c281482,64becb6f1ac70ee1a8c439d5,right,-1,0.3,0.2429,1,-0.027142698,0.543,34,0,34,0,1,,,,,,,,,,
,,208088,001,2023-07-24_13h05.37.084,arm3_eps,2022.2.5,Win32,59.95563283,61038917dbab6d0d7f203eef,64aea9d0f615b6559c281482,64becb6f1ac70ee1a8c439d5,right,-1,0.3,0.2429,1,-0.02613206,1.7839,35,0,35,0,1,,,,,,,,,,
,,208088,001,2023-07-24_13h05.37.084,arm3_eps,2022.2.5,Win32,59.95563283,61038917dbab6d0d7f203eef,64aea9d0f615b6559c281482,64becb6f1ac70ee1a8c439d5,down,-1,0.3,0.2429,2,0,2.079,36,0,36,0,1,,,,,,,,,,
,,208088,001,2023-07-24_13h05.37.084,arm3_eps,2022.2.5,Win32,59.95563283,61038917dbab6d0d7f203eef,64aea9d0f615b6559c281482,64becb6f1ac70ee1a8c439d5,right,-1,0.3,0.2429,2,0.011881082,1.0316,37,0,37,0,1,,,,,,,,,,
,,208088,001,2023-07-24_13h05.37.084,arm3_eps,2022.2.5,Win32,59.95563283,61038917dbab6d0d7f203eef,64aea9d0f615b6559c281482,64becb6f1ac70ee1a8c439d5,right,-1,0.3,0.2429,2,0.000189367,0.4819,38,0,38,0,1,,,,,,,,,,
,,208088,001,2023-07-24_13h05.37.084,arm3_eps,2022.2.5,Win32,59.95563283,61038917dbab6d0d7f203eef,64aea9d0f615b6559c281482,64becb6f1ac70ee1a8c439d5,right,-1,0.3,0.2429,2,0.009931023,0.5227,39,0,39,0,1,,,,,,,,,,
,,208088,001,2023-07-24_13h05.37.084,arm3_eps,2022.2.5,Win32,59.95563283,61038917dbab6d0d7f203eef,64aea9d0f615b6559c281482,64becb6f1ac70ee1a8c439d5,right,-1,0.3,0.2429,2,0.002249694,0.484,40,0,40,0,1,,,,,,,,,,
,,208088,001,2023-07-24_13h05.37.084,arm3_eps,2022.2.5,Win32,59.95563283,61038917dbab6d0d7f203eef,64aea9d0f615b6559c281482,64becb6f1ac70ee1a8c439d5,right,-1,0.3,0.2429,2,0.006302176,0.5177,41,0,41,0,1,,,,,,,,,,
,,208088,001,2023-07-24_13h05.37.084,arm3_eps,2022.2.5,Win32,59.95563283,61038917dbab6d0d7f203eef,64aea9d0f615b6559c281482,64becb6f1ac70ee1a8c439d5,down,-1,0.3,0.2429,3,0,1.0179,42,0,42,0,1,,,,,,,,,,
,,208088,001,2023-07-24_13h05.37.084,arm3_eps,2022.2.5,Win32,59.95563283,61038917dbab6d0d7f203eef,64aea9d0f615b6559c281482,64becb6f1ac70ee1a8c439d5,right,-1,0.3,0.2429,3,-0.025968537,2.2565,43,0,43,0,1,,,,,,,,,,
,,208088,001,2023-07-24_13h05.37.084,arm3_eps,2022.2.5,Win32,59.95563283,61038917dbab6d0d7f203eef,64aea9d0f615b6559c281482,64becb6f1ac70ee1a8c439d5,right,-1,0.3,0.2429,3,-0.003173002,0.5323,44,0,44,0,1,,,,,,,,,,
,,208088,001,2023-07-24_13h05.37.084,arm3_eps,2022.2.5,Win32,59.95563283,61038917dbab6d0d7f203eef,64aea9d0f615b6559c281482,64becb6f1ac70ee1a8c439d5,right,-1,0.3,0.2429,3,-0.012236924,0.4774,45,0,45,0,1,,,,,,,,,,
,,208088,001,2023-07-24_13h05.37.084,arm3_eps,2022.2.5,Win32,59.95563283,61038917dbab6d0d7f203eef,64aea9d0f615b6559c281482,64becb6f1ac70ee1a8c439d5,down,-1,0.3,0.2429,4,0,0.6986,46,0,46,0,1,,,,,,,,,,
,,208088,001,2023-07-24_13h05.37.084,arm3_eps,2022.2.5,Win32,59.95563283,61038917dbab6d0d7f203eef,64aea9d0f615b6559c281482,64becb6f1ac70ee1a8c439d5,right,-1,0.3,0.2429,4,-0.014398787,0.9245,47,0,47,0,1,,,,,,,,,,
,,208088,001,2023-07-24_13h05.37.084,arm3_eps,2022.2.5,Win32,59.95563283,61038917dbab6d0d7f203eef,64aea9d0f615b6559c281482,64becb6f1ac70ee1a8c439d5,right,-1,0.3,0.2429,4,0.007169532,0.4381,48,0,48,0,1,,,,,,,,,,
,,208088,001,2023-07-24_13h05.37.084,arm3_eps,2022.2.5,Win32,59.95563283,61038917dbab6d0d7f203eef,64aea9d0f615b6559c281482,64becb6f1ac70ee1a8c439d5,right,-1,0.3,0.2429,4,0.013348653,0.4838,49,0,49,0,1,,,,,,,,,,
space,1.9672,208088,001,2023-07-24_13h05.37.084,arm3_eps,2022.2.5,Win32,59.95563283,61038917dbab6d0d7f203eef,64aea9d0f615b6559c281482,64becb6f1ac70ee1a8c439d5,,,,,,,,,,,,,,,,,,,,,,
space,2.7021,208088,001,2023-07-24_13h05.37.084,arm3_eps,2022.2.5,Win32,59.95563283,61038917dbab6d0d7f203eef,64aea9d0f615b6559c281482,64becb6f1ac70ee1a8c439d5,right,-1,0.3,0.1786,0,-0.007739125,0.8302,,,,,,0,0,0,0,1,,,,,
,,208088,001,2023-07-24_13h05.37.084,arm3_eps,2022.2.5,Win32,59.95563283,61038917dbab6d0d7f203eef,64aea9d0f615b6559c281482,64becb6f1ac70ee1a8c439d5,right,-1,0.3,0.1786,0,-0.00937304,0.6205,,,,,,1,0,1,0,1,,,,,
,,208088,001,2023-07-24_13h05.37.084,arm3_eps,2022.2.5,Win32,59.95563283,61038917dbab6d0d7f203eef,64aea9d0f615b6559c281482,64becb6f1ac70ee1a8c439d5,right,-1,0.3,0.1786,0,-0.050169944,0.4667,,,,,,2,0,2,0,1,,,,,
,,208088,001,2023-07-24_13h05.37.084,arm3_eps,2022.2.5,Win32,59.95563283,61038917dbab6d0d7f203eef,64aea9d0f615b6559c281482,64becb6f1ac70ee1a8c439d5,up,-1,0.3,0.1786,0,0,0.527,,,,,,3,0,3,0,1,,,,,
,,208088,001,2023-07-24_13h05.37.084,arm3_eps,2022.2.5,Win32,59.95563283,61038917dbab6d0d7f203eef,64aea9d0f615b6559c281482,64becb6f1ac70ee1a8c439d5,right,-1,0.3,0.1786,0,0.002079444,1.4004,,,,,,4,0,4,0,1,,,,,
,,208088,001,2023-07-24_13h05.37.084,arm3_eps,2022.2.5,Win32,59.95563283,61038917dbab6d0d7f203eef,64aea9d0f615b6559c281482,64becb6f1ac70ee1a8c439d5,right,-1,0.3,0.1786,0,0.014168314,0.4656,,,,,,5,0,5,0,1,,,,,
,,208088,001,2023-07-24_13h05.37.084,arm3_eps,2022.2.5,Win32,59.95563283,61038917dbab6d0d7f203eef,64aea9d0f615b6559c281482,64becb6f1ac70ee1a8c439d5,right,-1,0.3,0.1786,0,0.021946223,1.2116,,,,,,6,0,6,0,1,,,,,
,,208088,001,2023-07-24_13h05.37.084,arm3_eps,2022.2.5,Win32,59.95563283,61038917dbab6d0d7f203eef,64aea9d0f615b6559c281482,64becb6f1ac70ee1a8c439d5,right,-1,0.3,0.1786,0,-0.004630502,0.5859,,,,,,7,0,7,0,1,,,,,
,,208088,001,2023-07-24_13h05.37.084,arm3_eps,2022.2.5,Win32,59.95563283,61038917dbab6d0d7f203eef,64aea9d0f615b6559c281482,64becb6f1ac70ee1a8c439d5,down,-1,0.3,0.1786,1,0,0.7374,,,,,,8,0,8,0,1,,,,,
,,208088,001,2023-07-24_13h05.37.084,arm3_eps,2022.2.5,Win32,59.95563283,61038917dbab6d0d7f203eef,64aea9d0f615b6559c281482,64becb6f1ac70ee1a8c439d5,right,-1,0.3,0.1786,1,0.013652768,0.9818,,,,,,9,0,9,0,1,,,,,
,,208088,001,2023-07-24_13h05.37.084,arm3_eps,2022.2.5,Win32,59.95563283,61038917dbab6d0d7f203eef,64aea9d0f615b6559c281482,64becb6f1ac70ee1a8c439d5,right,-1,0.3,0.1786,1,0.022611794,0.3657,,,,,,10,0,10,0,1,,,,,
,,208088,001,2023-07-24_13h05.37.084,arm3_eps,2022.2.5,Win32,59.95563283,61038917dbab6d0d7f203eef,64aea9d0f615b6559c281482,64becb6f1ac70ee1a8c439d5,up,-1,0.3,0.1786,1,0,0.6679,,,,,,11,0,11,0,1,,,,,
,,208088,001,2023-07-24_13h05.37.084,arm3_eps,2022.2.5,Win32,59.95563283,61038917dbab6d0d7f203eef,64aea9d0f615b6559c281482,64becb6f1ac70ee1a8c439d5,right,-1,0.3,0.1786,1,0.003759626,0.9257,,,,,,12,0,12,0,1,,,,,
,,208088,001,2023-07-24_13h05.37.084,arm3_eps,2022.2.5,Win32,59.95563283,61038917dbab6d0d7f203eef,64aea9d0f615b6559c281482,64becb6f1ac70ee1a8c439d5,right,-1,0.3,0.1786,1,-0.03084551,0.3765,,,,,,13,0,13,0,1,,,,,
,,208088,001,2023-07-24_13h05.37.084,arm3_eps,2022.2.5,Win32,59.95563283,61038917dbab6d0d7f203eef,64aea9d0f615b6559c281482,64becb6f1ac70ee1a8c439d5,right,-1,0.3,0.1786,1,-0.049473929,0.5525,,,,,,14,0,14,0,1,,,,,
,,208088,001,2023-07-24_13h05.37.084,arm3_eps,2022.2.5,Win32,59.95563283,61038917dbab6d0d7f203eef,64aea9d0f615b6559c281482,64becb6f1ac70ee1a8c439d5,down,-1,0.3,0.1786,1,0,0.4174,,,,,,15,0,15,0,1,,,,,
,,208088,001,2023-07-24_13h05.37.084,arm3_eps,2022.2.5,Win32,59.95563283,61038917dbab6d0d7f203eef,64aea9d0f615b6559c281482,64becb6f1ac70ee1a8c439d5,right,-1,0.3,0.1786,1,-0.012594155,0.9438,,,,,,16,0,16,0,1,,,,,
,,208088,001,2023-07-24_13h05.37.084,arm3_eps,2022.2.5,Win32,59.95563283,61038917dbab6d0d7f203eef,64aea9d0f615b6559c281482,64becb6f1ac70ee1a8c439d5,right,-1,0.3,0.1786,1,-0.035827715,0.3172,,,,,,17,0,17,0,1,,,,,
,,208088,001,2023-07-24_13h05.37.084,arm3_eps,2022.2.5,Win32,59.95563283,61038917dbab6d0d7f203eef,64aea9d0f615b6559c281482,64becb6f1ac70ee1a8c439d5,right,-1,0.3,0.1786,1,-0.056968819,0.383,,,,,,18,0,18,0,1,,,,,
,,208088,001,2023-07-24_13h05.37.084,arm3_eps,2022.2.5,Win32,59.95563283,61038917dbab6d0d7f203eef,64aea9d0f615b6559c281482,64becb6f1ac70ee1a8c439d5,down,-1,0.3,0.1786,1,0,0.3817,,,,,,19,0,19,0,1,,,,,
,,208088,001,2023-07-24_13h05.37.084,arm3_eps,2022.2.5,Win32,59.95563283,61038917dbab6d0d7f203eef,64aea9d0f615b6559c281482,64becb6f1ac70ee1a8c439d5,right,-1,0.3,0.1786,1,-0.013174086,0.8572,,,,,,20,0,20,0,1,,,,,
,,208088,001,2023-07-24_13h05.37.084,arm3_eps,2022.2.5,Win32,59.95563283,61038917dbab6d0d7f203eef,64aea9d0f615b6559c281482,64becb6f1ac70ee1a8c439d5,right,-1,0.3,0.1786,1,-0.03075226,0.5192,,,,,,21,0,21,0,1,,,,,
,,208088,001,2023-07-24_13h05.37.084,arm3_eps,2022.2.5,Win32,59.95563283,61038917dbab6d0d7f203eef,64aea9d0f615b6559c281482,64becb6f1ac70ee1a8c439d5,right,-1,0.3,0.1786,1,-0.034237074,0.9775,,,,,,22,0,22,0,1,,,,,
,,208088,001,2023-07-24_13h05.37.084,arm3_eps,2022.2.5,Win32,59.95563283,61038917dbab6d0d7f203eef,64aea9d0f615b6559c281482,64becb6f1ac70ee1a8c439d5,down,1,0.3,0.1786,2,0,0.9372,,,,,,23,0,23,0,1,,,,,
,,208088,001,2023-07-24_13h05.37.084,arm3_eps,2022.2.5,Win32,59.95563283,61038917dbab6d0d7f203eef,64aea9d0f615b6559c281482,64becb6f1ac70ee1a8c439d5,right,1,0.3,0.1786,2,0.011805912,0.8014,,,,,,24,0,24,0,1,,,,,
,,208088,001,2023-07-24_13h05.37.084,arm3_eps,2022.2.5,Win32,59.95563283,61038917dbab6d0d7f203eef,64aea9d0f615b6559c281482,64becb6f1ac70ee1a8c439d5,right,1,0.3,0.1786,2,0.022486347,0.4836,,,,,,25,0,25,0,1,,,,,
,,208088,001,2023-07-24_13h05.37.084,arm3_eps,2022.2.5,Win32,59.95563283,61038917dbab6d0d7f203eef,64aea9d0f615b6559c281482,64becb6f1ac70ee1a8c439d5,up,-1,0.3,0.1786,3,0,0.4795,,,,,,26,0,26,0,1,,,,,
,,208088,001,2023-07-24_13h05.37.084,arm3_eps,2022.2.5,Win32,59.95563283,61038917dbab6d0d7f203eef,64aea9d0f615b6559c281482,64becb6f1ac70ee1a8c439d5,right,-1,0.3,0.1786,3,-0.02753457,0.8114,,,,,,27,0,27,0,1,,,,,
,,208088,001,2023-07-24_13h05.37.084,arm3_eps,2022.2.5,Win32,59.95563283,61038917dbab6d0d7f203eef,64aea9d0f615b6559c281482,64becb6f1ac70ee1a8c439d5,right,-1,0.3,0.1786,3,-0.058378195,0.4588,,,,,,28,0,28,0,1,,,,,
,,208088,001,2023-07-24_13h05.37.084,arm3_eps,2022.2.5,Win32,59.95563283,61038917dbab6d0d7f203eef,64aea9d0f615b6559c281482,64becb6f1ac70ee1a8c439d5,down,1,0.3,0.1786,4,0,0.7102,,,,,,29,0,29,0,1,,,,,
,,208088,001,2023-07-24_13h05.37.084,arm3_eps,2022.2.5,Win32,59.95563283,61038917dbab6d0d7f203eef,64aea9d0f615b6559c281482,64becb6f1ac70ee1a8c439d5,right,1,0.3,0.1786,4,0.02343965,1.0006,,,,,,30,0,30,0,1,,,,,
,,208088,001,2023-07-24_13h05.37.084,arm3_eps,2022.2.5,Win32,59.95563283,61038917dbab6d0d7f203eef,64aea9d0f615b6559c281482,64becb6f1ac70ee1a8c439d5,up,1,0.3,0.1786,4,0,0.6553,,,,,,31,0,31,0,1,,,,,
,,208088,001,2023-07-24_13h05.37.084,arm3_eps,2022.2.5,Win32,59.95563283,61038917dbab6d0d7f203eef,64aea9d0f615b6559c281482,64becb6f1ac70ee1a8c439d5,right,1,0.3,0.1786,4,0.034105462,0.9502,,,,,,32,0,32,0,1,,,,,
,,208088,001,2023-07-24_13h05.37.084,arm3_eps,2022.2.5,Win32,59.95563283,61038917dbab6d0d7f203eef,64aea9d0f615b6559c281482,64becb6f1ac70ee1a8c439d5,right,1,0.3,0.1786,4,0.059388833,0.5081,,,,,,33,0,33,0,1,,,,,
,,208088,001,2023-07-24_13h05.37.084,arm3_eps,2022.2.5,Win32,59.95563283,61038917dbab6d0d7f203eef,64aea9d0f615b6559c281482,64becb6f1ac70ee1a8c439d5,up,1,0.3,0.1786,4,0,0.3911,,,,,,34,0,34,0,1,,,,,
,,208088,001,2023-07-24_13h05.37.084,arm3_eps,2022.2.5,Win32,59.95563283,61038917dbab6d0d7f203eef,64aea9d0f615b6559c281482,64becb6f1ac70ee1a8c439d5,right,1,0.3,0.1786,4,0.005030836,1.0947,,,,,,35,0,35,0,1,,,,,
,,208088,001,2023-07-24_13h05.37.084,arm3_eps,2022.2.5,Win32,59.95563283,61038917dbab6d0d7f203eef,64aea9d0f615b6559c281482,64becb6f1ac70ee1a8c439d5,right,1,0.3,0.1786,4,0.032324038,0.4251,,,,,,36,0,36,0,1,,,,,
,,208088,001,2023-07-24_13h05.37.084,arm3_eps,2022.2.5,Win32,59.95563283,61038917dbab6d0d7f203eef,64aea9d0f615b6559c281482,64becb6f1ac70ee1a8c439d5,up,1,0.3,0.1786,4,0,0.456,,,,,,37,0,37,0,1,,,,,
,,208088,001,2023-07-24_13h05.37.084,arm3_eps,2022.2.5,Win32,59.95563283,61038917dbab6d0d7f203eef,64aea9d0f615b6559c281482,64becb6f1ac70ee1a8c439d5,right,1,0.3,0.1786,4,0.036140095,1.0284,,,,,,38,0,38,0,1,,,,,
,,208088,001,2023-07-24_13h05.37.084,arm3_eps,2022.2.5,Win32,59.95563283,61038917dbab6d0d7f203eef,64aea9d0f615b6559c281482,64becb6f1ac70ee1a8c439d5,right,1,0.3,0.1786,4,0.040108777,0.4108,,,,,,39,0,39,0,1,,,,,
,,208088,001,2023-07-24_13h05.37.084,arm3_eps,2022.2.5,Win32,59.95563283,61038917dbab6d0d7f203eef,64aea9d0f615b6559c281482,64becb6f1ac70ee1a8c439d5,up,1,0.3,0.1786,4,0,0.5217,,,,,,40,0,40,0,1,,,,,
,,208088,001,2023-07-24_13h05.37.084,arm3_eps,2022.2.5,Win32,59.95563283,61038917dbab6d0d7f203eef,64aea9d0f615b6559c281482,64becb6f1ac70ee1a8c439d5,right,1,0.3,0.1786,4,0.012711776,0.8669,,,,,,41,0,41,0,1,,,,,
,,208088,001,2023-07-24_13h05.37.084,arm3_eps,2022.2.5,Win32,59.95563283,61038917dbab6d0d7f203eef,64aea9d0f615b6559c281482,64becb6f1ac70ee1a8c439d5,right,1,0.3,0.1786,4,-0.007693545,0.3668,,,,,,42,0,42,0,1,,,,,
,,208088,001,2023-07-24_13h05.37.084,arm3_eps,2022.2.5,Win32,59.95563283,61038917dbab6d0d7f203eef,64aea9d0f615b6559c281482,64becb6f1ac70ee1a8c439d5,right,1,0.3,0.1786,4,-0.00878817,0.9591,,,,,,43,0,43,0,1,,,,,
,,208088,001,2023-07-24_13h05.37.084,arm3_eps,2022.2.5,Win32,59.95563283,61038917dbab6d0d7f203eef,64aea9d0f615b6559c281482,64becb6f1ac70ee1a8c439d5,right,1,0.3,0.1786,4,-0.008961473,0.5199,,,,,,44,0,44,0,1,,,,,
,,208088,001,2023-07-24_13h05.37.084,arm3_eps,2022.2.5,Win32,59.95563283,61038917dbab6d0d7f203eef,64aea9d0f615b6559c281482,64becb6f1ac70ee1a8c439d5,down,-1,0.3,0.1786,4,0,0.5938,,,,,,45,0,45,0,1,,,,,
,,208088,001,2023-07-24_13h05.37.084,arm3_eps,2022.2.5,Win32,59.95563283,61038917dbab6d0d7f203eef,64aea9d0f615b6559c281482,64becb6f1ac70ee1a8c439d5,right,-1,0.3,0.1786,4,-0.007581214,0.8096,,,,,,46,0,46,0,1,,,,,
,,208088,001,2023-07-24_13h05.37.084,arm3_eps,2022.2.5,Win32,59.95563283,61038917dbab6d0d7f203eef,64aea9d0f615b6559c281482,64becb6f1ac70ee1a8c439d5,right,-1,0.3,0.1786,4,-0.000704585,0.4079,,,,,,47,0,47,0,1,,,,,
,,208088,001,2023-07-24_13h05.37.084,arm3_eps,2022.2.5,Win32,59.95563283,61038917dbab6d0d7f203eef,64aea9d0f615b6559c281482,64becb6f1ac70ee1a8c439d5,right,-1,0.3,0.1786,4,-0.000953781,0.5828,,,,,,48,0,48,0,1,,,,,
,,208088,001,2023-07-24_13h05.37.084,arm3_eps,2022.2.5,Win32,59.95563283,61038917dbab6d0d7f203eef,64aea9d0f615b6559c281482,64becb6f1ac70ee1a8c439d5,right,-1,0.3,0.1786,4,-0.012029356,0.4824,,,,,,49,0,49,0,1,,,,,
,,208088,001,2023-07-24_13h05.37.084,arm3_eps,2022.2.5,Win32,59.95563283,61038917dbab6d0d7f203eef,64aea9d0f615b6559c281482,64becb6f1ac70ee1a8c439d5,down,-1,0.3,0.1786,4,0,0.7006,,,,,,50,0,50,0,1,,,,,
,,208088,001,2023-07-24_13h05.37.084,arm3_eps,2022.2.5,Win32,59.95563283,61038917dbab6d0d7f203eef,64aea9d0f615b6559c281482,64becb6f1ac70ee1a8c439d5,right,-1,0.3,0.1786,4,-0.024796303,0.8333,,,,,,51,0,51,0,1,,,,,
,,208088,001,2023-07-24_13h05.37.084,arm3_eps,2022.2.5,Win32,59.95563283,61038917dbab6d0d7f203eef,64aea9d0f615b6559c281482,64becb6f1ac70ee1a8c439d5,right,-1,0.3,0.1786,4,-0.046058933,0.3656,,,,,,52,0,52,0,1,,,,,
,,208088,001,2023-07-24_13h05.37.084,arm3_eps,2022.2.5,Win32,59.95563283,61038917dbab6d0d7f203eef,64aea9d0f615b6559c281482,64becb6f1ac70ee1a8c439d5,down,-1,0.3,0.1786,4,0,0.3809,,,,,,53,0,53,0,1,,,,,
,,208088,001,2023-07-24_13h05.37.084,arm3_eps,2022.2.5,Win32,59.95563283,61038917dbab6d0d7f203eef,64aea9d0f615b6559c281482,64becb6f1ac70ee1a8c439d5,right,-1,0.3,0.1786,4,0.009702973,0.778,,,,,,54,0,54,0,1,,,,,
,,208088,001,2023-07-24_13h05.37.084,arm3_eps,2022.2.5,Win32,59.95563283,61038917dbab6d0d7f203eef,64aea9d0f615b6559c281482,64becb6f1ac70ee1a8c439d5,right,-1,0.3,0.1786,4,0.002774445,0.4094,,,,,,55,0,55,0,1,,,,,
,,208088,001,2023-07-24_13h05.37.084,arm3_eps,2022.2.5,Win32,59.95563283,61038917dbab6d0d7f203eef,64aea9d0f615b6559c281482,64becb6f1ac70ee1a8c439d5,up,1,0.3,0.1786,3,0,0.8563,,,,,,56,0,56,0,1,,,,,
,,208088,001,2023-07-24_13h05.37.084,arm3_eps,2022.2.5,Win32,59.95563283,61038917dbab6d0d7f203eef,64aea9d0f615b6559c281482,64becb6f1ac70ee1a8c439d5,right,1,0.3,0.1786,3,0.027214201,0.9993,,,,,,57,0,57,0,1,,,,,
,,208088,001,2023-07-24_13h05.37.084,arm3_eps,2022.2.5,Win32,59.95563283,61038917dbab6d0d7f203eef,64aea9d0f615b6559c281482,64becb6f1ac70ee1a8c439d5,right,1,0.3,0.1786,3,0.032436534,0.444,,,,,,58,0,58,0,1,,,,,
,,208088,001,2023-07-24_13h05.37.084,arm3_eps,2022.2.5,Win32,59.95563283,61038917dbab6d0d7f203eef,64aea9d0f615b6559c281482,64becb6f1ac70ee1a8c439d5,right,1,0.3,0.1786,3,0.000799162,0.7931,,,,,,59,0,59,0,1,,,,,
,,208088,001,2023-07-24_13h05.37.084,arm3_eps,2022.2.5,Win32,59.95563283,61038917dbab6d0d7f203eef,64aea9d0f615b6559c281482,64becb6f1ac70ee1a8c439d5,right,1,0.3,0.1786,3,-0.0012481,0.5533,,,,,,60,0,60,0,1,,,,,
,,208088,001,2023-07-24_13h05.37.084,arm3_eps,2022.2.5,Win32,59.95563283,61038917dbab6d0d7f203eef,64aea9d0f615b6559c281482,64becb6f1ac70ee1a8c439d5,right,1,0.3,0.1786,3,0.014459031,0.4982,,,,,,61,0,61,0,1,,,,,
,,208088,001,2023-07-24_13h05.37.084,arm3_eps,2022.2.5,Win32,59.95563283,61038917dbab6d0d7f203eef,64aea9d0f615b6559c281482,64becb6f1ac70ee1a8c439d5,right,1,0.3,0.1786,3,0.011593421,0.5406,,,,,,62,0,62,0,1,,,,,
,,208088,001,2023-07-24_13h05.37.084,arm3_eps,2022.2.5,Win32,59.95563283,61038917dbab6d0d7f203eef,64aea9d0f615b6559c281482,64becb6f1ac70ee1a8c439d5,right,1,0.3,0.1786,3,-0.000524581,0.7581,,,,,,63,0,63,0,1,,,,,
,,208088,001,2023-07-24_13h05.37.084,arm3_eps,2022.2.5,Win32,59.95563283,61038917dbab6d0d7f203eef,64aea9d0f615b6559c281482,64becb6f1ac70ee1a8c439d5,up,1,0.3,0.1786,4,0,0.5029,,,,,,64,0,64,0,1,,,,,
,,208088,001,2023-07-24_13h05.37.084,arm3_eps,2022.2.5,Win32,59.95563283,61038917dbab6d0d7f203eef,64aea9d0f615b6559c281482,64becb6f1ac70ee1a8c439d5,right,1,0.3,0.1786,4,0.040202583,0.8671,,,,,,65,0,65,0,1,,,,,
,,208088,001,2023-07-24_13h05.37.084,arm3_eps,2022.2.5,Win32,59.95563283,61038917dbab6d0d7f203eef,64aea9d0f615b6559c281482,64becb6f1ac70ee1a8c439d5,right,1,0.3,0.1786,4,0.043850321,1.0051,,,,,,66,0,66,0,1,,,,,
,,208088,001,2023-07-24_13h05.37.084,arm3_eps,2022.2.5,Win32,59.95563283,61038917dbab6d0d7f203eef,64aea9d0f615b6559c281482,64becb6f1ac70ee1a8c439d5,up,1,0.3,0.1786,5,0,0.4204,,,,,,67,0,67,0,1,,,,,
,,208088,001,2023-07-24_13h05.37.084,arm3_eps,2022.2.5,Win32,59.95563283,61038917dbab6d0d7f203eef,64aea9d0f615b6559c281482,64becb6f1ac70ee1a8c439d5,right,1,0.3,0.1786,5,-0.012688921,0.7706,,,,,,68,0,68,0,1,,,,,
,,208088,001,2023-07-24_13h05.37.084,arm3_eps,2022.2.5,Win32,59.95563283,61038917dbab6d0d7f203eef,64aea9d0f615b6559c281482,64becb6f1ac70ee1a8c439d5,right,1,0.3,0.1786,5,-0.033380696,0.5005,,,,,,69,0,69,0,1,,,,,
,,208088,001,2023-07-24_13h05.37.084,arm3_eps,2022.2.5,Win32,59.95563283,61038917dbab6d0d7f203eef,64aea9d0f615b6559c281482,64becb6f1ac70ee1a8c439d5,right,1,0.3,0.1786,5,-0.013839111,0.5406,,,,,,70,0,70,0,1,,,,,
,,208088,001,2023-07-24_13h05.37.084,arm3_eps,2022.2.5,Win32,59.95563283,61038917dbab6d0d7f203eef,64aea9d0f615b6559c281482,64becb6f1ac70ee1a8c439d5,right,1,0.3,0.1786,5,0.000972869,0.4692,,,,,,71,0,71,0,1,,,,,
,,208088,001,2023-07-24_13h05.37.084,arm3_eps,2022.2.5,Win32,59.95563283,61038917dbab6d0d7f203eef,64aea9d0f615b6559c281482,64becb6f1ac70ee1a8c439d5,right,1,0.3,0.1786,5,0.006188748,0.4353,,,,,,72,0,72,0,1,,,,,
,,208088,001,2023-07-24_13h05.37.084,arm3_eps,2022.2.5,Win32,59.95563283,61038917dbab6d0d7f203eef,64aea9d0f615b6559c281482,64becb6f1ac70ee1a8c439d5,right,1,0.3,0.1786,5,0.000554328,0.4326,,,,,,73,0,73,0,1,,,,,
,,208088,001,2023-07-24_13h05.37.084,arm3_eps,2022.2.5,Win32,59.95563283,61038917dbab6d0d7f203eef,64aea9d0f615b6559c281482,64becb6f1ac70ee1a8c439d5,right,1,0.3,0.1786,5,0.011264931,0.3658,,,,,,74,0,74,0,1,,,,,
,,208088,001,2023-07-24_13h05.37.084,arm3_eps,2022.2.5,Win32,59.95563283,61038917dbab6d0d7f203eef,64aea9d0f615b6559c281482,64becb6f1ac70ee1a8c439d5,down,1,0.3,0.1786,5,0,0.8327,,,,,,75,0,75,0,1,,,,,
,,208088,001,2023-07-24_13h05.37.084,arm3_eps,2022.2.5,Win32,59.95563283,61038917dbab6d0d7f203eef,64aea9d0f615b6559c281482,64becb6f1ac70ee1a8c439d5,right,1,0.3,0.1786,5,0.014277278,0.8603,,,,,,76,0,76,0,1,,,,,
,,208088,001,2023-07-24_13h05.37.084,arm3_eps,2022.2.5,Win32,59.95563283,61038917dbab6d0d7f203eef,64aea9d0f615b6559c281482,64becb6f1ac70ee1a8c439d5,right,1,0.3,0.1786,5,0.020865011,0.4727,,,,,,77,0,77,0,1,,,,,
,,208088,001,2023-07-24_13h05.37.084,arm3_eps,2022.2.5,Win32,59.95563283,61038917dbab6d0d7f203eef,64aea9d0f615b6559c281482,64becb6f1ac70ee1a8c439d5,right,1,0.3,0.1786,5,0.015194033,0.4209,,,,,,78,0,78,0,1,,,,,
,,208088,001,2023-07-24_13h05.37.084,arm3_eps,2022.2.5,Win32,59.95563283,61038917dbab6d0d7f203eef,64aea9d0f615b6559c281482,64becb6f1ac70ee1a8c439d5,up,1,0.3,0.1786,5,0,0.7713,,,,,,79,0,79,0,1,,,,,
,,208088,001,2023-07-24_13h05.37.084,arm3_eps,2022.2.5,Win32,59.95563283,61038917dbab6d0d7f203eef,64aea9d0f615b6559c281482,64becb6f1ac70ee1a8c439d5,right,1,0.3,0.1786,5,0.029414037,0.8032,,,,,,80,0,80,0,1,,,,,
,,208088,001,2023-07-24_13h05.37.084,arm3_eps,2022.2.5,Win32,59.95563283,61038917dbab6d0d7f203eef,64aea9d0f615b6559c281482,64becb6f1ac70ee1a8c439d5,right,1,0.3,0.1786,5,0.036691703,0.4012,,,,,,81,0,81,0,1,,,,,
,,208088,001,2023-07-24_13h05.37.084,arm3_eps,2022.2.5,Win32,59.95563283,61038917dbab6d0d7f203eef,64aea9d0f615b6559c281482,64becb6f1ac70ee1a8c439d5,up,1,0.3,0.1786,5,0,0.6087,,,,,,82,0,82,0,1,,,,,
,,208088,001,2023-07-24_13h05.37.084,arm3_eps,2022.2.5,Win32,59.95563283,61038917dbab6d0d7f203eef,64aea9d0f615b6559c281482,64becb6f1ac70ee1a8c439d5,right,1,0.3,0.1786,5,0.0215543,0.8079,,,,,,83,0,83,0,1,,,,,
,,208088,001,2023-07-24_13h05.37.084,arm3_eps,2022.2.5,Win32,59.95563283,61038917dbab6d0d7f203eef,64aea9d0f615b6559c281482,64becb6f1ac70ee1a8c439d5,right,1,0.3,0.1786,5,0.054386502,0.3903,,,,,,84,0,84,0,1,,,,,
,,208088,001,2023-07-24_13h05.37.084,arm3_eps,2022.2.5,Win32,59.95563283,61038917dbab6d0d7f203eef,64aea9d0f615b6559c281482,64becb6f1ac70ee1a8c439d5,up,1,0.3,0.1786,5,0,0.5992,,,,,,85,0,85,0,1,,,,,
,,208088,001,2023-07-24_13h05.37.084,arm3_eps,2022.2.5,Win32,59.95563283,61038917dbab6d0d7f203eef,64aea9d0f615b6559c281482,64becb6f1ac70ee1a8c439d5,right,1,0.3,0.1786,5,-0.007568075,0.8181,,,,,,86,0,86,0,1,,,,,
,,208088,001,2023-07-24_13h05.37.084,arm3_eps,2022.2.5,Win32,59.95563283,61038917dbab6d0d7f203eef,64aea9d0f615b6559c281482,64becb6f1ac70ee1a8c439d5,right,1,0.3,0.1786,5,0.001012709,0.5222,,,,,,87,0,87,0,1,,,,,
,,208088,001,2023-07-24_13h05.37.084,arm3_eps,2022.2.5,Win32,59.95563283,61038917dbab6d0d7f203eef,64aea9d0f615b6559c281482,64becb6f1ac70ee1a8c439d5,right,1,0.3,0.1786,5,0.004457884,0.5825,,,,,,88,0,88,0,1,,,,,
,,208088,001,2023-07-24_13h05.37.084,arm3_eps,2022.2.5,Win32,59.95563283,61038917dbab6d0d7f203eef,64aea9d0f615b6559c281482,64becb6f1ac70ee1a8c439d5,right,1,0.3,0.1786,5,0.034565235,0.7341,,,,,,89,0,89,0,1,,,,,
,,208088,001,2023-07-24_13h05.37.084,arm3_eps,2022.2.5,Win32,59.95563283,61038917dbab6d0d7f203eef,64aea9d0f615b6559c281482,64becb6f1ac70ee1a8c439d5,up,1,0.3,0.1786,5,0,0.4671,,,,,,90,0,90,0,1,,,,,
,,208088,001,2023-07-24_13h05.37.084,arm3_eps,2022.2.5,Win32,59.95563283,61038917dbab6d0d7f203eef,64aea9d0f615b6559c281482,64becb6f1ac70ee1a8c439d5,right,1,0.3,0.1786,5,0.009800496,0.7775,,,,,,91,0,91,0,1,,,,,
,,208088,001,2023-07-24_13h05.37.084,arm3_eps,2022.2.5,Win32,59.95563283,61038917dbab6d0d7f203eef,64aea9d0f615b6559c281482,64becb6f1ac70ee1a8c439d5,right,1,0.3,0.1786,5,0.048285711,0.3665,,,,,,92,0,92,0,1,,,,,
,,208088,001,2023-07-24_13h05.37.084,arm3_eps,2022.2.5,Win32,59.95563283,61038917dbab6d0d7f203eef,64aea9d0f615b6559c281482,64becb6f1ac70ee1a8c439d5,up,1,0.3,0.1786,6,0,0.3939,,,,,,93,0,93,0,1,,,,,
,,208088,001,2023-07-24_13h05.37.084,arm3_eps,2022.2.5,Win32,59.95563283,61038917dbab6d0d7f203eef,64aea9d0f615b6559c281482,64becb6f1ac70ee1a8c439d5,right,1,0.3,0.1786,6,0.01956224,0.8098,,,,,,94,0,94,0,1,,,,,
,,208088,001,2023-07-24_13h05.37.084,arm3_eps,2022.2.5,Win32,59.95563283,61038917dbab6d0d7f203eef,64aea9d0f615b6559c281482,64becb6f1ac70ee1a8c439d5,right,1,0.3,0.1786,6,0.024259306,0.4087,,,,,,95,0,95,0,1,,,,,
,,208088,001,2023-07-24_13h05.37.084,arm3_eps,2022.2.5,Win32,59.95563283,61038917dbab6d0d7f203eef,64aea9d0f615b6559c281482,64becb6f1ac70ee1a8c439d5,right,1,0.3,0.1786,6,0.005288263,0.4556,,,,,,96,0,96,0,1,,,,,
,,208088,001,2023-07-24_13h05.37.084,arm3_eps,2022.2.5,Win32,59.95563283,61038917dbab6d0d7f203eef,64aea9d0f615b6559c281482,64becb6f1ac70ee1a8c439d5,right,1,0.3,0.1786,6,0.031756074,0.4207,,,,,,97,0,97,0,1,,,,,
,,208088,001,2023-07-24_13h05.37.084,arm3_eps,2022.2.5,Win32,59.95563283,61038917dbab6d0d7f203eef,64aea9d0f615b6559c281482,64becb6f1ac70ee1a8c439d5,right,1,0.3,0.1786,6,0.020162007,0.3863,,,,,,98,0,98,0,1,,,,,
,,208088,001,2023-07-24_13h05.37.084,arm3_eps,2022.2.5,Win32,59.95563283,61038917dbab6d0d7f203eef,64aea9d0f615b6559c281482,64becb6f1ac70ee1a8c439d5,up,1,0.3,0.1786,7,0,0.754,,,,,,99,0,99,0,1,,,,,
,,208088,001,2023-07-24_13h05.37.084,arm3_eps,2022.2.5,Win32,59.95563283,61038917dbab6d0d7f203eef,64aea9d0f615b6559c281482,64becb6f1ac70ee1a8c439d5,right,1,0.3,0.1786,7,-0.01608158,0.7547,,,,,,100,0,100,0,1,,,,,
,,208088,001,2023-07-24_13h05.37.084,arm3_eps,2022.2.5,Win32,59.95563283,61038917dbab6d0d7f203eef,64aea9d0f615b6559c281482,64becb6f1ac70ee1a8c439d5,right,1,0.3,0.1786,7,0.009457902,0.4838,,,,,,101,0,101,0,1,,,,,
,,208088,001,2023-07-24_13h05.37.084,arm3_eps,2022.2.5,Win32,59.95563283,61038917dbab6d0d7f203eef,64aea9d0f615b6559c281482,64becb6f1ac70ee1a8c439d5,right,1,0.3,0.1786,7,0.01266743,0.5594,,,,,,102,0,102,0,1,,,,,
,,208088,001,2023-07-24_13h05.37.084,arm3_eps,2022.2.5,Win32,59.95563283,61038917dbab6d0d7f203eef,64aea9d0f615b6559c281482,64becb6f1ac70ee1a8c439d5,right,1,0.3,0.1786,7,-0.006713252,0.5195,,,,,,103,0,103,0,1,,,,,
,,208088,001,2023-07-24_13h05.37.084,arm3_eps,2022.2.5,Win32,59.95563283,61038917dbab6d0d7f203eef,64aea9d0f615b6559c281482,64becb6f1ac70ee1a8c439d5,right,1,0.3,0.1786,7,0.005570437,0.5158,,,,,,104,0,104,0,1,,,,,
,,208088,001,2023-07-24_13h05.37.084,arm3_eps,2022.2.5,Win32,59.95563283,61038917dbab6d0d7f203eef,64aea9d0f615b6559c281482,64becb6f1ac70ee1a8c439d5,right,1,0.3,0.1786,7,0.013667489,0.5248,,,,,,105,0,105,0,1,,,,,
,,208088,001,2023-07-24_13h05.37.084,arm3_eps,2022.2.5,Win32,59.95563283,61038917dbab6d0d7f203eef,64aea9d0f615b6559c281482,64becb6f1ac70ee1a8c439d5,up,1,0.3,0.1786,8,0,0.7909,,,,,,106,0,106,0,1,,,,,
,,208088,001,2023-07-24_13h05.37.084,arm3_eps,2022.2.5,Win32,59.95563283,61038917dbab6d0d7f203eef,64aea9d0f615b6559c281482,64becb6f1ac70ee1a8c439d5,right,1,0.3,0.1786,8,0.003535788,0.7904,,,,,,107,0,107,0,1,,,,,
,,208088,001,2023-07-24_13h05.37.084,arm3_eps,2022.2.5,Win32,59.95563283,61038917dbab6d0d7f203eef,64aea9d0f615b6559c281482,64becb6f1ac70ee1a8c439d5,right,1,0.3,0.1786,8,0.020379568,0.3889,,,,,,108,0,108,0,1,,,,,
,,208088,001,2023-07-24_13h05.37.084,arm3_eps,2022.2.5,Win32,59.95563283,61038917dbab6d0d7f203eef,64aea9d0f615b6559c281482,64becb6f1ac70ee1a8c439d5,up,1,0.3,0.1786,8,0,0.5333,,,,,,109,0,109,0,1,,,,,
,,208088,001,2023-07-24_13h05.37.084,arm3_eps,2022.2.5,Win32,59.95563283,61038917dbab6d0d7f203eef,64aea9d0f615b6559c281482,64becb6f1ac70ee1a8c439d5,right,1,0.3,0.1786,8,0.011256906,0.868,,,,,,110,0,110,0,1,,,,,
,,208088,001,2023-07-24_13h05.37.084,arm3_eps,2022.2.5,Win32,59.95563283,61038917dbab6d0d7f203eef,64aea9d0f615b6559c281482,64becb6f1ac70ee1a8c439d5,right,1,0.3,0.1786,8,0.0164211,0.4422,,,,,,111,0,111,0,1,,,,,
,,208088,001,2023-07-24_13h05.37.084,arm3_eps,2022.2.5,Win32,59.95563283,61038917dbab6d0d7f203eef,64aea9d0f615b6559c281482,64becb6f1ac70ee1a8c439d5,right,1,0.3,0.1786,8,-0.00516192,0.5363,,,,,,112,0,112,0,1,,,,,
,,208088,001,2023-07-24_13h05.37.084,arm3_eps,2022.2.5,Win32,59.95563283,61038917dbab6d0d7f203eef,64aea9d0f615b6559c281482,64becb6f1ac70ee1a8c439d5,right,1,0.3,0.1786,8,0.031450981,0.4503,,,,,,113,0,113,0,1,,,,,
,,208088,001,2023-07-24_13h05.37.084,arm3_eps,2022.2.5,Win32,59.95563283,61038917dbab6d0d7f203eef,64aea9d0f615b6559c281482,64becb6f1ac70ee1a8c439d5,right,1,0.3,0.1786,8,0.027857244,0.6542,,,,,,114,0,114,0,1,,,,,
,,208088,001,2023-07-24_13h05.37.084,arm3_eps,2022.2.5,Win32,59.95563283,61038917dbab6d0d7f203eef,64aea9d0f615b6559c281482,64becb6f1ac70ee1a8c439d5,up,-1,0.3,0.1786,9,0,0.5652,,,,,,115,0,115,0,1,,,,,
,,208088,001,2023-07-24_13h05.37.084,arm3_eps,2022.2.5,Win32,59.95563283,61038917dbab6d0d7f203eef,64aea9d0f615b6559c281482,64becb6f1ac70ee1a8c439d5,right,-1,0.3,0.1786,9,-0.01894442,0.766,,,,,,116,0,116,0,1,,,,,
,,208088,001,2023-07-24_13h05.37.084,arm3_eps,2022.2.5,Win32,59.95563283,61038917dbab6d0d7f203eef,64aea9d0f615b6559c281482,64becb6f1ac70ee1a8c439d5,right,-1,0.3,0.1786,9,-0.003373703,0.3969,,,,,,117,0,117,0,1,,,,,
,,208088,001,2023-07-24_13h05.37.084,arm3_eps,2022.2.5,Win32,59.95563283,61038917dbab6d0d7f203eef,64aea9d0f615b6559c281482,64becb6f1ac70ee1a8c439d5,right,-1,0.3,0.1786,9,-0.000606952,0.4426,,,,,,118,0,118,0,1,,,,,
,,208088,001,2023-07-24_13h05.37.084,arm3_eps,2022.2.5,Win32,59.95563283,61038917dbab6d0d7f203eef,64aea9d0f615b6559c281482,64becb6f1ac70ee1a8c439d5,down,-1,0.3,0.1786,10,0,0.7442,,,,,,119,0,119,0,1,,,,,
,,208088,001,2023-07-24_13h05.37.084,arm3_eps,2022.2.5,Win32,59.95563283,61038917dbab6d0d7f203eef,64aea9d0f615b6559c281482,64becb6f1ac70ee1a8c439d5,right,-1,0.3,0.1786,10,-0.039728786,0.8573,,,,,,120,0,120,0,1,,,,,
,,208088,001,2023-07-24_13h05.37.084,arm3_eps,2022.2.5,Win32,59.95563283,61038917dbab6d0d7f203eef,64aea9d0f615b6559c281482,64becb6f1ac70ee1a8c439d5,right,-1,0.3,0.1786,10,-0.029224727,0.7578,,,,,,121,0,121,0,1,,,,,
,,208088,001,2023-07-24_13h05.37.084,arm3_eps,2022.2.5,Win32,59.95563283,61038917dbab6d0d7f203eef,64aea9d0f615b6559c281482,64becb6f1ac70ee1a8c439d5,down,-1,0.3,0.1786,10,0,0.6949,,,,,,122,0,122,0,1,,,,,
,,208088,001,2023-07-24_13h05.37.084,arm3_eps,2022.2.5,Win32,59.95563283,61038917dbab6d0d7f203eef,64aea9d0f615b6559c281482,64becb6f1ac70ee1a8c439d5,right,-1,0.3,0.1786,10,-0.000158373,1.2257,,,,,,123,0,123,0,1,,,,,
,,208088,001,2023-07-24_13h05.37.084,arm3_eps,2022.2.5,Win32,59.95563283,61038917dbab6d0d7f203eef,64aea9d0f615b6559c281482,64becb6f1ac70ee1a8c439d5,right,-1,0.3,0.1786,10,-0.035263659,0.52,,,,,,124,0,124,0,1,,,,,
,,208088,001,2023-07-24_13h05.37.084,arm3_eps,2022.2.5,Win32,59.95563283,61038917dbab6d0d7f203eef,64aea9d0f615b6559c281482,64becb6f1ac70ee1a8c439d5,right,-1,0.3,0.1786,10,-0.019269525,0.4503,,,,,,125,0,125,0,1,,,,,
,,208088,001,2023-07-24_13h05.37.084,arm3_eps,2022.2.5,Win32,59.95563283,61038917dbab6d0d7f203eef,64aea9d0f615b6559c281482,64becb6f1ac70ee1a8c439d5,right,-1,0.3,0.1786,10,-0.03161754,0.3987,,,,,,126,0,126,0,1,,,,,
,,208088,001,2023-07-24_13h05.37.084,arm3_eps,2022.2.5,Win32,59.95563283,61038917dbab6d0d7f203eef,64aea9d0f615b6559c281482,64becb6f1ac70ee1a8c439d5,down,-1,0.3,0.1786,11,0,0.5577,,,,,,127,0,127,0,1,,,,,
,,208088,001,2023-07-24_13h05.37.084,arm3_eps,2022.2.5,Win32,59.95563283,61038917dbab6d0d7f203eef,64aea9d0f615b6559c281482,64becb6f1ac70ee1a8c439d5,right,-1,0.3,0.1786,11,0.006195102,0.7749,,,,,,128,0,128,0,1,,,,,
,,208088,001,2023-07-24_13h05.37.084,arm3_eps,2022.2.5,Win32,59.95563283,61038917dbab6d0d7f203eef,64aea9d0f615b6559c281482,64becb6f1ac70ee1a8c439d5,right,-1,0.3,0.1786,11,0.010945839,0.4863,,,,,,129,0,129,0,1,,,,,
,,208088,001,2023-07-24_13h05.37.084,arm3_eps,2022.2.5,Win32,59.95563283,61038917dbab6d0d7f203eef,64aea9d0f615b6559c281482,64becb6f1ac70ee1a8c439d5,right,-1,0.3,0.1786,11,-0.002632692,0.5491,,,,,,130,0,130,0,1,,,,,
,,208088,001,2023-07-24_13h05.37.084,arm3_eps,2022.2.5,Win32,59.95563283,61038917dbab6d0d7f203eef,64aea9d0f615b6559c281482,64becb6f1ac70ee1a8c439d5,right,-1,0.3,0.1786,11,0.005405975,0.6354,,,,,,131,0,131,0,1,,,,,
,,208088,001,2023-07-24_13h05.37.084,arm3_eps,2022.2.5,Win32,59.95563283,61038917dbab6d0d7f203eef,64aea9d0f615b6559c281482,64becb6f1ac70ee1a8c439d5,right,-1,0.3,0.1786,11,-0.001853494,0.4168,,,,,,132,0,132,0,1,,,,,
,,208088,001,2023-07-24_13h05.37.084,arm3_eps,2022.2.5,Win32,59.95563283,61038917dbab6d0d7f203eef,64aea9d0f615b6559c281482,64becb6f1ac70ee1a8c439d5,down,-1,0.3,0.1786,11,0,0.7671,,,,,,133,0,133,0,1,,,,,
,,208088,001,2023-07-24_13h05.37.084,arm3_eps,2022.2.5,Win32,59.95563283,61038917dbab6d0d7f203eef,64aea9d0f615b6559c281482,64becb6f1ac70ee1a8c439d5,right,-1,0.3,0.1786,11,-0.004527308,0.927,,,,,,134,0,134,0,1,,,,,
,,208088,001,2023-07-24_13h05.37.084,arm3_eps,2022.2.5,Win32,59.95563283,61038917dbab6d0d7f203eef,64aea9d0f615b6559c281482,64becb6f1ac70ee1a8c439d5,right,-1,0.3,0.1786,11,-0.019091484,0.3931,,,,,,135,0,135,0,1,,,,,
,,208088,001,2023-07-24_13h05.37.084,arm3_eps,2022.2.5,Win32,59.95563283,61038917dbab6d0d7f203eef,64aea9d0f615b6559c281482,64becb6f1ac70ee1a8c439d5,right,-1,0.3,0.1786,11,-0.01834276,0.4247,,,,,,136,0,136,0,1,,,,,
,,208088,001,2023-07-24_13h05.37.084,arm3_eps,2022.2.5,Win32,59.95563283,61038917dbab6d0d7f203eef,64aea9d0f615b6559c281482,64becb6f1ac70ee1a8c439d5,down,-1,0.3,0.1786,12,0,0.503,,,,,,137,0,137,0,1,,,,,
,,208088,001,2023-07-24_13h05.37.084,arm3_eps,2022.2.5,Win32,59.95563283,61038917dbab6d0d7f203eef,64aea9d0f615b6559c281482,64becb6f1ac70ee1a8c439d5,right,-1,0.3,0.1786,12,0.016389575,0.8178,,,,,,138,0,138,0,1,,,,,
,,208088,001,2023-07-24_13h05.37.084,arm3_eps,2022.2.5,Win32,59.95563283,61038917dbab6d0d7f203eef,64aea9d0f615b6559c281482,64becb6f1ac70ee1a8c439d5,right,-1,0.3,0.1786,12,-0.018827478,0.3677,,,,,,139,0,139,0,1,,,,,
,,208088,001,2023-07-24_13h05.37.084,arm3_eps,2022.2.5,Win32,59.95563283,61038917dbab6d0d7f203eef,64aea9d0f615b6559c281482,64becb6f1ac70ee1a8c439d5,down,-1,0.3,0.1786,12,0,0.5921,,,,,,140,0,140,0,1,,,,,
,,208088,001,2023-07-24_13h05.37.084,arm3_eps,2022.2.5,Win32,59.95563283,61038917dbab6d0d7f203eef,64aea9d0f615b6559c281482,64becb6f1ac70ee1a8c439d5,right,-1,0.3,0.1786,12,-0.022230797,0.8876,,,,,,141,0,141,0,1,,,,,
,,208088,001,2023-07-24_13h05.37.084,arm3_eps,2022.2.5,Win32,59.95563283,61038917dbab6d0d7f203eef,64aea9d0f615b6559c281482,64becb6f1ac70ee1a8c439d5,down,-1,0.3,0.1786,12,0,0.739,,,,,,142,0,142,0,1,,,,,
,,208088,001,2023-07-24_13h05.37.084,arm3_eps,2022.2.5,Win32,59.95563283,61038917dbab6d0d7f203eef,64aea9d0f615b6559c281482,64becb6f1ac70ee1a8c439d5,right,-1,0.3,0.1786,12,0.008081837,0.8038,,,,,,143,0,143,0,1,,,,,
,,208088,001,2023-07-24_13h05.37.084,arm3_eps,2022.2.5,Win32,59.95563283,61038917dbab6d0d7f203eef,64aea9d0f615b6559c281482,64becb6f1ac70ee1a8c439d5,right,-1,0.3,0.1786,12,-0.000230826,0.3549,,,,,,144,0,144,0,1,,,,,
,,208088,001,2023-07-24_13h05.37.084,arm3_eps,2022.2.5,Win32,59.95563283,61038917dbab6d0d7f203eef,64aea9d0f615b6559c281482,64becb6f1ac70ee1a8c439d5,right,-1,0.3,0.1786,12,-0.018351555,0.6758,,,,,,145,0,145,0,1,,,,,
,,208088,001,2023-07-24_13h05.37.084,arm3_eps,2022.2.5,Win32,59.95563283,61038917dbab6d0d7f203eef,64aea9d0f615b6559c281482,64becb6f1ac70ee1a8c439d5,down,-1,0.3,0.1786,13,0,0.6338,,,,,,146,0,146,0,1,,,,,
,,208088,001,2023-07-24_13h05.37.084,arm3_eps,2022.2.5,Win32,59.95563283,61038917dbab6d0d7f203eef,64aea9d0f615b6559c281482,64becb6f1ac70ee1a8c439d5,right,-1,0.3,0.1786,13,0.001718104,0.7497,,,,,,147,0,147,0,1,,,,,
,,208088,001,2023-07-24_13h05.37.084,arm3_eps,2022.2.5,Win32,59.95563283,61038917dbab6d0d7f203eef,64aea9d0f615b6559c281482,64becb6f1ac70ee1a8c439d5,right,-1,0.3,0.1786,13,-0.037173664,0.3991,,,,,,148,0,148,0,1,,,,,
,,208088,001,2023-07-24_13h05.37.084,arm3_eps,2022.2.5,Win32,59.95563283,61038917dbab6d0d7f203eef,64aea9d0f615b6559c281482,64becb6f1ac70ee1a8c439d5,down,-1,0.3,0.1786,13,0,0.6371,,,,,,149,0,149,0,1,,,,,
,,208088,001,2023-07-24_13h05.37.084,arm3_eps,2022.2.5,Win32,59.95563283,61038917dbab6d0d7f203eef,64aea9d0f615b6559c281482,64becb6f1ac70ee1a8c439d5,right,-1,0.3,0.1786,13,-0.006888276,0.8186,,,,,,150,0,150,0,1,,,,,
,,208088,001,2023-07-24_13h05.37.084,arm3_eps,2022.2.5,Win32,59.95563283,61038917dbab6d0d7f203eef,64aea9d0f615b6559c281482,64becb6f1ac70ee1a8c439d5,right,-1,0.3,0.1786,13,0.02383902,0.5764,,,,,,151,0,151,0,1,,,,,
,,208088,001,2023-07-24_13h05.37.084,arm3_eps,2022.2.5,Win32,59.95563283,61038917dbab6d0d7f203eef,64aea9d0f615b6559c281482,64becb6f1ac70ee1a8c439d5,right,-1,0.3,0.1786,13,0.01091681,0.5367,,,,,,152,0,152,0,1,,,,,
,,208088,001,2023-07-24_13h05.37.084,arm3_eps,2022.2.5,Win32,59.95563283,61038917dbab6d0d7f203eef,64aea9d0f615b6559c281482,64becb6f1ac70ee1a8c439d5,right,-1,0.3,0.1786,13,-0.008979295,0.4023,,,,,,153,0,153,0,1,,,,,
,,208088,001,2023-07-24_13h05.37.084,arm3_eps,2022.2.5,Win32,59.95563283,61038917dbab6d0d7f203eef,64aea9d0f615b6559c281482,64becb6f1ac70ee1a8c439d5,down,-1,0.3,0.1786,14,0,0.5514,,,,,,154,0,154,0,1,,,,,
,,208088,001,2023-07-24_13h05.37.084,arm3_eps,2022.2.5,Win32,59.95563283,61038917dbab6d0d7f203eef,64aea9d0f615b6559c281482,64becb6f1ac70ee1a8c439d5,right,-1,0.3,0.1786,14,-0.000380323,0.7668,,,,,,155,0,155,0,1,,,,,
,,208088,001,2023-07-24_13h05.37.084,arm3_eps,2022.2.5,Win32,59.95563283,61038917dbab6d0d7f203eef,64aea9d0f615b6559c281482,64becb6f1ac70ee1a8c439d5,right,-1,0.3,0.1786,14,-0.007547242,0.3151,,,,,,156,0,156,0,1,,,,,
,,208088,001,2023-07-24_13h05.37.084,arm3_eps,2022.2.5,Win32,59.95563283,61038917dbab6d0d7f203eef,64aea9d0f615b6559c281482,64becb6f1ac70ee1a8c439d5,right,-1,0.3,0.1786,14,-0.026541393,0.4156,,,,,,157,0,157,0,1,,,,,
,,208088,001,2023-07-24_13h05.37.084,arm3_eps,2022.2.5,Win32,59.95563283,61038917dbab6d0d7f203eef,64aea9d0f615b6559c281482,64becb6f1ac70ee1a8c439d5,right,-1,0.3,0.1786,14,-0.020507484,0.5229,,,,,,158,0,158,0,1,,,,,
,,208088,001,2023-07-24_13h05.37.084,arm3_eps,2022.2.5,Win32,59.95563283,61038917dbab6d0d7f203eef,64aea9d0f615b6559c281482,64becb6f1ac70ee1a8c439d5,right,-1,0.3,0.1786,14,-0.041782569,0.389,,,,,,159,0,159,0,1,,,,,
,,208088,001,2023-07-24_13h05.37.084,arm3_eps,2022.2.5,Win32,59.95563283,61038917dbab6d0d7f203eef,64aea9d0f615b6559c281482,64becb6f1ac70ee1a8c439d5,down,1,0.3,0.1786,14,0,0.2927,,,,,,160,0,160,0,1,,,,,
,,208088,001,2023-07-24_13h05.37.084,arm3_eps,2022.2.5,Win32,59.95563283,61038917dbab6d0d7f203eef,64aea9d0f615b6559c281482,64becb6f1ac70ee1a8c439d5,right,1,0.3,0.1786,14,0.002016343,0.7923,,,,,,161,0,161,0,1,,,,,
,,208088,001,2023-07-24_13h05.37.084,arm3_eps,2022.2.5,Win32,59.95563283,61038917dbab6d0d7f203eef,64aea9d0f615b6559c281482,64becb6f1ac70ee1a8c439d5,right,1,0.3,0.1786,14,0.003802342,0.3757,,,,,,162,0,162,0,1,,,,,
,,208088,001,2023-07-24_13h05.37.084,arm3_eps,2022.2.5,Win32,59.95563283,61038917dbab6d0d7f203eef,64aea9d0f615b6559c281482,64becb6f1ac70ee1a8c439d5,right,1,0.3,0.1786,14,0.005285615,0.4241,,,,,,163,0,163,0,1,,,,,
,,208088,001,2023-07-24_13h05.37.084,arm3_eps,2022.2.5,Win32,59.95563283,61038917dbab6d0d7f203eef,64aea9d0f615b6559c281482,64becb6f1ac70ee1a8c439d5,right,1,0.3,0.1786,14,0.02046028,0.4703,,,,,,164,0,164,0,1,,,,,
,,208088,001,2023-07-24_13h05.37.084,arm3_eps,2022.2.5,Win32,59.95563283,61038917dbab6d0d7f203eef,64aea9d0f615b6559c281482,64becb6f1ac70ee1a8c439d5,up,1,0.3,0.1786,15,0,0.5325,,,,,,165,0,165,0,1,,,,,
,,208088,001,2023-07-24_13h05.37.084,arm3_eps,2022.2.5,Win32,59.95563283,61038917dbab6d0d7f203eef,64aea9d0f615b6559c281482,64becb6f1ac70ee1a8c439d5,right,1,0.3,0.1786,15,-0.006394535,0.8762,,,,,,166,0,166,0,1,,,,,
,,208088,001,2023-07-24_13h05.37.084,arm3_eps,2022.2.5,Win32,59.95563283,61038917dbab6d0d7f203eef,64aea9d0f615b6559c281482,64becb6f1ac70ee1a8c439d5,right,1,0.3,0.1786,15,-0.002836068,0.3759,,,,,,167,0,167,0,1,,,,,
,,208088,001,2023-07-24_13h05.37.084,arm3_eps,2022.2.5,Win32,59.95563283,61038917dbab6d0d7f203eef,64aea9d0f615b6559c281482,64becb6f1ac70ee1a8c439d5,right,1,0.3,0.1786,15,0.015488527,0.4237,,,,,,168,0,168,0,1,,,,,
,,208088,001,2023-07-24_13h05.37.084,arm3_eps,2022.2.5,Win32,59.95563283,61038917dbab6d0d7f203eef,64aea9d0f615b6559c281482,64becb6f1ac70ee1a8c439d5,up,1,0.3,0.1786,16,0,0.4539,,,,,,169,0,169,0,1,,,,,
,,208088,001,2023-07-24_13h05.37.084,arm3_eps,2022.2.5,Win32,59.95563283,61038917dbab6d0d7f203eef,64aea9d0f615b6559c281482,64becb6f1ac70ee1a8c439d5,right,1,0.3,0.1786,16,0.031113129,0.8196,,,,,,170,0,170,0,1,,,,,
,,208088,001,2023-07-24_13h05.37.084,arm3_eps,2022.2.5,Win32,59.95563283,61038917dbab6d0d7f203eef,64aea9d0f615b6559c281482,64becb6f1ac70ee1a8c439d5,right,1,0.3,0.1786,16,0.05260704,0.3684,,,,,,171,0,171,0,1,,,,,
,,208088,001,2023-07-24_13h05.37.084,arm3_eps,2022.2.5,Win32,59.95563283,61038917dbab6d0d7f203eef,64aea9d0f615b6559c281482,64becb6f1ac70ee1a8c439d5,up,1,0.3,0.1786,16,0,0.3219,,,,,,172,0,172,0,1,,,,,
,,208088,001,2023-07-24_13h05.37.084,arm3_eps,2022.2.5,Win32,59.95563283,61038917dbab6d0d7f203eef,64aea9d0f615b6559c281482,64becb6f1ac70ee1a8c439d5,right,1,0.3,0.1786,16,0.017584642,0.8042,,,,,,173,0,173,0,1,,,,,
,,208088,001,2023-07-24_13h05.37.084,arm3_eps,2022.2.5,Win32,59.95563283,61038917dbab6d0d7f203eef,64aea9d0f615b6559c281482,64becb6f1ac70ee1a8c439d5,right,1,0.3,0.1786,16,0.049375219,0.3629,,,,,,174,0,174,0,1,,,,,
,,208088,001,2023-07-24_13h05.37.084,arm3_eps,2022.2.5,Win32,59.95563283,61038917dbab6d0d7f203eef,64aea9d0f615b6559c281482,64becb6f1ac70ee1a8c439d5,up,1,0.3,0.1786,17,0,0.2784,,,,,,175,0,175,0,1,,,,,
,,208088,001,2023-07-24_13h05.37.084,arm3_eps,2022.2.5,Win32,59.95563283,61038917dbab6d0d7f203eef,64aea9d0f615b6559c281482,64becb6f1ac70ee1a8c439d5,right,1,0.3,0.1786,17,0.006740523,0.7615,,,,,,176,0,176,0,1,,,,,
,,208088,001,2023-07-24_13h05.37.084,arm3_eps,2022.2.5,Win32,59.95563283,61038917dbab6d0d7f203eef,64aea9d0f615b6559c281482,64becb6f1ac70ee1a8c439d5,right,1,0.3,0.1786,17,0.013518234,0.2993,,,,,,177,0,177,0,1,,,,,
,,208088,001,2023-07-24_13h05.37.084,arm3_eps,2022.2.5,Win32,59.95563283,61038917dbab6d0d7f203eef,64aea9d0f615b6559c281482,64becb6f1ac70ee1a8c439d5,right,1,0.3,0.1786,17,0.016261609,0.5902,,,,,,178,0,178,0,1,,,,,
,,208088,001,2023-07-24_13h05.37.084,arm3_eps,2022.2.5,Win32,59.95563283,61038917dbab6d0d7f203eef,64aea9d0f615b6559c281482,64becb6f1ac70ee1a8c439d5,right,1,0.3,0.1786,17,0.048809855,0.4539,,,,,,179,0,179,0,1,,,,,
,,208088,001,2023-07-24_13h05.37.084,arm3_eps,2022.2.5,Win32,59.95563283,61038917dbab6d0d7f203eef,64aea9d0f615b6559c281482,64becb6f1ac70ee1a8c439d5,up,1,0.3,0.1786,18,0,0.419,,,,,,180,0,180,0,1,,,,,
,,208088,001,2023-07-24_13h05.37.084,arm3_eps,2022.2.5,Win32,59.95563283,61038917dbab6d0d7f203eef,64aea9d0f615b6559c281482,64becb6f1ac70ee1a8c439d5,right,1,0.3,0.1786,18,-0.003004931,0.7685,,,,,,181,0,181,0,1,,,,,
,,208088,001,2023-07-24_13h05.37.084,arm3_eps,2022.2.5,Win32,59.95563283,61038917dbab6d0d7f203eef,64aea9d0f615b6559c281482,64becb6f1ac70ee1a8c439d5,right,1,0.3,0.1786,18,-0.007223656,0.4168,,,,,,182,0,182,0,1,,,,,
,,208088,001,2023-07-24_13h05.37.084,arm3_eps,2022.2.5,Win32,59.95563283,61038917dbab6d0d7f203eef,64aea9d0f615b6559c281482,64becb6f1ac70ee1a8c439d5,right,1,0.3,0.1786,18,0.008573729,0.4323,,,,,,183,0,183,0,1,,,,,
,,208088,001,2023-07-24_13h05.37.084,arm3_eps,2022.2.5,Win32,59.95563283,61038917dbab6d0d7f203eef,64aea9d0f615b6559c281482,64becb6f1ac70ee1a8c439d5,up,1,0.3,0.1786,18,0,0.557,,,,,,184,0,184,0,1,,,,,
,,208088,001,2023-07-24_13h05.37.084,arm3_eps,2022.2.5,Win32,59.95563283,61038917dbab6d0d7f203eef,64aea9d0f615b6559c281482,64becb6f1ac70ee1a8c439d5,right,1,0.3,0.1786,18,-0.004220866,0.788,,,,,,185,0,185,0,1,,,,,
,,208088,001,2023-07-24_13h05.37.084,arm3_eps,2022.2.5,Win32,59.95563283,61038917dbab6d0d7f203eef,64aea9d0f615b6559c281482,64becb6f1ac70ee1a8c439d5,right,1,0.3,0.1786,18,-0.019310349,0.4193,,,,,,186,0,186,0,1,,,,,
,,208088,001,2023-07-24_13h05.37.084,arm3_eps,2022.2.5,Win32,59.95563283,61038917dbab6d0d7f203eef,64aea9d0f615b6559c281482,64becb6f1ac70ee1a8c439d5,right,1,0.3,0.1786,18,0.011730987,0.401,,,,,,187,0,187,0,1,,,,,
,,208088,001,2023-07-24_13h05.37.084,arm3_eps,2022.2.5,Win32,59.95563283,61038917dbab6d0d7f203eef,64aea9d0f615b6559c281482,64becb6f1ac70ee1a8c439d5,up,1,0.3,0.1786,18,0,0.5926,,,,,,188,0,188,0,1,,,,,
,,208088,001,2023-07-24_13h05.37.084,arm3_eps,2022.2.5,Win32,59.95563283,61038917dbab6d0d7f203eef,64aea9d0f615b6559c281482,64becb6f1ac70ee1a8c439d5,right,1,0.3,0.1786,18,0.011310636,0.7916,,,,,,189,0,189,0,1,,,,,
,,208088,001,2023-07-24_13h05.37.084,arm3_eps,2022.2.5,Win32,59.95563283,61038917dbab6d0d7f203eef,64aea9d0f615b6559c281482,64becb6f1ac70ee1a8c439d5,right,1,0.3,0.1786,18,0.001809495,0.3755,,,,,,190,0,190,0,1,,,,,
,,208088,001,2023-07-24_13h05.37.084,arm3_eps,2022.2.5,Win32,59.95563283,61038917dbab6d0d7f203eef,64aea9d0f615b6559c281482,64becb6f1ac70ee1a8c439d5,right,1,0.3,0.1786,18,-0.011183811,0.391,,,,,,191,0,191,0,1,,,,,
,,208088,001,2023-07-24_13h05.37.084,arm3_eps,2022.2.5,Win32,59.95563283,61038917dbab6d0d7f203eef,64aea9d0f615b6559c281482,64becb6f1ac70ee1a8c439d5,right,1,0.3,0.1786,18,-0.003467319,0.5033,,,,,,192,0,192,0,1,,,,,
,,208088,001,2023-07-24_13h05.37.084,arm3_eps,2022.2.5,Win32,59.95563283,61038917dbab6d0d7f203eef,64aea9d0f615b6559c281482,64becb6f1ac70ee1a8c439d5,right,1,0.3,0.1786,18,-0.004179055,0.5328,,,,,,193,0,193,0,1,,,,,
,,208088,001,2023-07-24_13h05.37.084,arm3_eps,2022.2.5,Win32,59.95563283,61038917dbab6d0d7f203eef,64aea9d0f615b6559c281482,64becb6f1ac70ee1a8c439d5,right,1,0.3,0.1786,18,0.018301011,0.4439,,,,,,194,0,194,0,1,,,,,
,,208088,001,2023-07-24_13h05.37.084,arm3_eps,2022.2.5,Win32,59.95563283,61038917dbab6d0d7f203eef,64aea9d0f615b6559c281482,64becb6f1ac70ee1a8c439d5,up,-1,0.3,0.1786,18,0,0.3927,,,,,,195,0,195,0,1,,,,,
,,208088,001,2023-07-24_13h05.37.084,arm3_eps,2022.2.5,Win32,59.95563283,61038917dbab6d0d7f203eef,64aea9d0f615b6559c281482,64becb6f1ac70ee1a8c439d5,right,-1,0.3,0.1786,18,-0.011041587,0.7914,,,,,,196,0,196,0,1,,,,,
,,208088,001,2023-07-24_13h05.37.084,arm3_eps,2022.2.5,Win32,59.95563283,61038917dbab6d0d7f203eef,64aea9d0f615b6559c281482,64becb6f1ac70ee1a8c439d5,down,-1,0.3,0.1786,18,0,0.7914,,,,,,197,0,197,0,1,,,,,
,,208088,001,2023-07-24_13h05.37.084,arm3_eps,2022.2.5,Win32,59.95563283,61038917dbab6d0d7f203eef,64aea9d0f615b6559c281482,64becb6f1ac70ee1a8c439d5,right,-1,0.3,0.1786,18,-0.007146179,0.7909,,,,,,198,0,198,0,1,,,,,
,,208088,001,2023-07-24_13h05.37.084,arm3_eps,2022.2.5,Win32,59.95563283,61038917dbab6d0d7f203eef,64aea9d0f615b6559c281482,64becb6f1ac70ee1a8c439d5,right,-1,0.3,0.1786,18,0.022023358,0.4219,,,,,,199,0,199,0,1,,,,,
,,208088,001,2023-07-24_13h05.37.084,arm3_eps,2022.2.5,Win32,59.95563283,61038917dbab6d0d7f203eef,64aea9d0f615b6559c281482,64becb6f1ac70ee1a8c439d5,right,-1,0.3,0.1786,18,0.032618393,0.5834,,,,,,200,0,200,0,1,,,,,
,,208088,001,2023-07-24_13h05.37.084,arm3_eps,2022.2.5,Win32,59.95563283,61038917dbab6d0d7f203eef,64aea9d0f615b6559c281482,64becb6f1ac70ee1a8c439d5,up,-1,0.3,0.1786,17,0,0.7496,,,,,,201,0,201,0,1,,,,,
,,208088,001,2023-07-24_13h05.37.084,arm3_eps,2022.2.5,Win32,59.95563283,61038917dbab6d0d7f203eef,64aea9d0f615b6559c281482,64becb6f1ac70ee1a8c439d5,right,-1,0.3,0.1786,17,0.00101501,1.0038,,,,,,202,0,202,0,1,,,,,
,,208088,001,2023-07-24_13h05.37.084,arm3_eps,2022.2.5,Win32,59.95563283,61038917dbab6d0d7f203eef,64aea9d0f615b6559c281482,64becb6f1ac70ee1a8c439d5,right,-1,0.3,0.1786,17,-0.008811387,0.339,,,,,,203,0,203,0,1,,,,,
,,208088,001,2023-07-24_13h05.37.084,arm3_eps,2022.2.5,Win32,59.95563283,61038917dbab6d0d7f203eef,64aea9d0f615b6559c281482,64becb6f1ac70ee1a8c439d5,right,-1,0.3,0.1786,17,-0.001581558,0.3407,,,,,,204,0,204,0,1,,,,,
,,208088,001,2023-07-24_13h05.37.084,arm3_eps,2022.2.5,Win32,59.95563283,61038917dbab6d0d7f203eef,64aea9d0f615b6559c281482,64becb6f1ac70ee1a8c439d5,right,-1,0.3,0.1786,17,0.009621309,0.3583,,,,,,205,0,205,0,1,,,,,
,,208088,001,2023-07-24_13h05.37.084,arm3_eps,2022.2.5,Win32,59.95563283,61038917dbab6d0d7f203eef,64aea9d0f615b6559c281482,64becb6f1ac70ee1a8c439d5,right,-1,0.3,0.1786,17,0.022891276,0.3913,,,,,,206,0,206,0,1,,,,,
,,208088,001,2023-07-24_13h05.37.084,arm3_eps,2022.2.5,Win32,59.95563283,61038917dbab6d0d7f203eef,64aea9d0f615b6559c281482,64becb6f1ac70ee1a8c439d5,right,-1,0.3,0.1786,17,0.010915893,0.4073,,,,,,207,0,207,0,1,,,,,
,,208088,001,2023-07-24_13h05.37.084,arm3_eps,2022.2.5,Win32,59.95563283,61038917dbab6d0d7f203eef,64aea9d0f615b6559c281482,64becb6f1ac70ee1a8c439d5,right,-1,0.3,0.1786,17,-0.011147273,0.2656,,,,,,208,0,208,0,1,,,,,
,,208088,001,2023-07-24_13h05.37.084,arm3_eps,2022.2.5,Win32,59.95563283,61038917dbab6d0d7f203eef,64aea9d0f615b6559c281482,64becb6f1ac70ee1a8c439d5,down,-1,0.3,0.1786,17,0,0.4584,,,,,,209,0,209,0,1,,,,,
,,208088,001,2023-07-24_13h05.37.084,arm3_eps,2022.2.5,Win32,59.95563283,61038917dbab6d0d7f203eef,64aea9d0f615b6559c281482,64becb6f1ac70ee1a8c439d5,right,-1,0.3,0.1786,17,-0.021358079,0.7753,,,,,,210,0,210,0,1,,,,,
,,208088,001,2023-07-24_13h05.37.084,arm3_eps,2022.2.5,Win32,59.95563283,61038917dbab6d0d7f203eef,64aea9d0f615b6559c281482,64becb6f1ac70ee1a8c439d5,right,-1,0.3,0.1786,17,-0.016818098,0.3754,,,,,,211,0,211,0,1,,,,,
,,208088,001,2023-07-24_13h05.37.084,arm3_eps,2022.2.5,Win32,59.95563283,61038917dbab6d0d7f203eef,64aea9d0f615b6559c281482,64becb6f1ac70ee1a8c439d5,right,-1,0.3,0.1786,17,-0.043227508,0.4878,,,,,,212,0,212,0,1,,,,,
,,208088,001,2023-07-24_13h05.37.084,arm3_eps,2022.2.5,Win32,59.95563283,61038917dbab6d0d7f203eef,64aea9d0f615b6559c281482,64becb6f1ac70ee1a8c439d5,down,1,0.3,0.1786,17,0,0.4032,,,,,,213,0,213,0,1,,,,,
,,208088,001,2023-07-24_13h05.37.084,arm3_eps,2022.2.5,Win32,59.95563283,61038917dbab6d0d7f203eef,64aea9d0f615b6559c281482,64becb6f1ac70ee1a8c439d5,right,1,0.3,0.1786,17,0.001291085,0.7537,,,,,,214,0,214,0,1,,,,,
,,208088,001,2023-07-24_13h05.37.084,arm3_eps,2022.2.5,Win32,59.95563283,61038917dbab6d0d7f203eef,64aea9d0f615b6559c281482,64becb6f1ac70ee1a8c439d5,right,1,0.3,0.1786,17,0.036693259,0.3382,,,,,,215,0,215,0,1,,,,,
,,208088,001,2023-07-24_13h05.37.084,arm3_eps,2022.2.5,Win32,59.95563283,61038917dbab6d0d7f203eef,64aea9d0f615b6559c281482,64becb6f1ac70ee1a8c439d5,right,1,0.3,0.1786,17,0.049134242,0.2921,,,,,,216,0,216,0,1,,,,,
,,208088,001,2023-07-24_13h05.37.084,arm3_eps,2022.2.5,Win32,59.95563283,61038917dbab6d0d7f203eef,64aea9d0f615b6559c281482,64becb6f1ac70ee1a8c439d5,up,1,0.3,0.1786,18,0,0.6339,,,,,,217,0,217,0,1,,,,,
,,208088,001,2023-07-24_13h05.37.084,arm3_eps,2022.2.5,Win32,59.95563283,61038917dbab6d0d7f203eef,64aea9d0f615b6559c281482,64becb6f1ac70ee1a8c439d5,right,1,0.3,0.1786,18,0.028351836,1.8533,,,,,,218,0,218,0,1,,,,,
,,208088,001,2023-07-24_13h05.37.084,arm3_eps,2022.2.5,Win32,59.95563283,61038917dbab6d0d7f203eef,64aea9d0f615b6559c281482,64becb6f1ac70ee1a8c439d5,right,1,0.3,0.1786,18,0.021184468,0.4329,,,,,,219,0,219,0,1,,,,,
,,208088,001,2023-07-24_13h05.37.084,arm3_eps,2022.2.5,Win32,59.95563283,61038917dbab6d0d7f203eef,64aea9d0f615b6559c281482,64becb6f1ac70ee1a8c439d5,right,1,0.3,0.1786,18,0.028873885,0.383,,,,,,220,0,220,0,1,,,,,
,,208088,001,2023-07-24_13h05.37.084,arm3_eps,2022.2.5,Win32,59.95563283,61038917dbab6d0d7f203eef,64aea9d0f615b6559c281482,64becb6f1ac70ee1a8c439d5,up,1,0.3,0.1786,18,0,0.3508,,,,,,221,0,221,0,1,,,,,
,,208088,001,2023-07-24_13h05.37.084,arm3_eps,2022.2.5,Win32,59.95563283,61038917dbab6d0d7f203eef,64aea9d0f615b6559c281482,64becb6f1ac70ee1a8c439d5,right,1,0.3,0.1786,18,-0.018071043,0.8006,,,,,,222,0,222,0,1,,,,,
,,208088,001,2023-07-24_13h05.37.084,arm3_eps,2022.2.5,Win32,59.95563283,61038917dbab6d0d7f203eef,64aea9d0f615b6559c281482,64becb6f1ac70ee1a8c439d5,right,1,0.3,0.1786,18,-0.029385822,0.7019,,,,,,223,0,223,0,1,,,,,
,,208088,001,2023-07-24_13h05.37.084,arm3_eps,2022.2.5,Win32,59.95563283,61038917dbab6d0d7f203eef,64aea9d0f615b6559c281482,64becb6f1ac70ee1a8c439d5,down,1,0.3,0.1786,17,0,0.5157,,,,,,224,0,224,0,1,,,,,
,,208088,001,2023-07-24_13h05.37.084,arm3_eps,2022.2.5,Win32,59.95563283,61038917dbab6d0d7f203eef,64aea9d0f615b6559c281482,64becb6f1ac70ee1a8c439d5,right,1,0.3,0.1786,17,-0.005983141,0.8594,,,,,,225,0,225,0,1,,,,,
,,208088,001,2023-07-24_13h05.37.084,arm3_eps,2022.2.5,Win32,59.95563283,61038917dbab6d0d7f203eef,64aea9d0f615b6559c281482,64becb6f1ac70ee1a8c439d5,right,1,0.3,0.1786,17,-0.020872012,0.3157,,,,,,226,0,226,0,1,,,,,
,,208088,001,2023-07-24_13h05.37.084,arm3_eps,2022.2.5,Win32,59.95563283,61038917dbab6d0d7f203eef,64aea9d0f615b6559c281482,64becb6f1ac70ee1a8c439d5,right,1,0.3,0.1786,17,0.014406203,0.3944,,,,,,227,0,227,0,1,,,,,
,,208088,001,2023-07-24_13h05.37.084,arm3_eps,2022.2.5,Win32,59.95563283,61038917dbab6d0d7f203eef,64aea9d0f615b6559c281482,64becb6f1ac70ee1a8c439d5,right,1,0.3,0.1786,17,0.032328706,0.365,,,,,,228,0,228,0,1,,,,,
,,208088,001,2023-07-24_13h05.37.084,arm3_eps,2022.2.5,Win32,59.95563283,61038917dbab6d0d7f203eef,64aea9d0f615b6559c281482,64becb6f1ac70ee1a8c439d5,up,1,0.3,0.1786,17,0,0.5223,,,,,,229,0,229,0,1,,,,,
,,208088,001,2023-07-24_13h05.37.084,arm3_eps,2022.2.5,Win32,59.95563283,61038917dbab6d0d7f203eef,64aea9d0f615b6559c281482,64becb6f1ac70ee1a8c439d5,right,1,0.3,0.1786,17,0.007731271,0.788,,,,,,230,0,230,0,1,,,,,
,,208088,001,2023-07-24_13h05.37.084,arm3_eps,2022.2.5,Win32,59.95563283,61038917dbab6d0d7f203eef,64aea9d0f615b6559c281482,64becb6f1ac70ee1a8c439d5,right,1,0.3,0.1786,17,0.004388943,0.3398,,,,,,231,0,231,0,1,,,,,
,,208088,001,2023-07-24_13h05.37.084,arm3_eps,2022.2.5,Win32,59.95563283,61038917dbab6d0d7f203eef,64aea9d0f615b6559c281482,64becb6f1ac70ee1a8c439d5,right,1,0.3,0.1786,17,0.010635726,0.2156,,,,,,232,0,232,0,1,,,,,
,,208088,001,2023-07-24_13h05.37.084,arm3_eps,2022.2.5,Win32,59.95563283,61038917dbab6d0d7f203eef,64aea9d0f615b6559c281482,64becb6f1ac70ee1a8c439d5,right,1,0.3,0.1786,17,0.026999484,0.3827,,,,,,233,0,233,0,1,,,,,
,,208088,001,2023-07-24_13h05.37.084,arm3_eps,2022.2.5,Win32,59.95563283,61038917dbab6d0d7f203eef,64aea9d0f615b6559c281482,64becb6f1ac70ee1a8c439d5,up,1,0.3,0.1786,17,0,0.5866,,,,,,234,0,234,0,1,,,,,
,,208088,001,2023-07-24_13h05.37.084,arm3_eps,2022.2.5,Win32,59.95563283,61038917dbab6d0d7f203eef,64aea9d0f615b6559c281482,64becb6f1ac70ee1a8c439d5,right,1,0.3,0.1786,17,0.018593932,0.7067,,,,,,235,0,235,0,1,,,,,
,,208088,001,2023-07-24_13h05.37.084,arm3_eps,2022.2.5,Win32,59.95563283,61038917dbab6d0d7f203eef,64aea9d0f615b6559c281482,64becb6f1ac70ee1a8c439d5,right,1,0.3,0.1786,17,0.024168802,0.3259,,,,,,236,0,236,0,1,,,,,
,,208088,001,2023-07-24_13h05.37.084,arm3_eps,2022.2.5,Win32,59.95563283,61038917dbab6d0d7f203eef,64aea9d0f615b6559c281482,64becb6f1ac70ee1a8c439d5,right,1,0.3,0.1786,17,0.040695185,0.2003,,,,,,237,0,237,0,1,,,,,
,,208088,001,2023-07-24_13h05.37.084,arm3_eps,2022.2.5,Win32,59.95563283,61038917dbab6d0d7f203eef,64aea9d0f615b6559c281482,64becb6f1ac70ee1a8c439d5,up,1,0.3,0.1786,17,0,0.447,,,,,,238,0,238,0,1,,,,,
,,208088,001,2023-07-24_13h05.37.084,arm3_eps,2022.2.5,Win32,59.95563283,61038917dbab6d0d7f203eef,64aea9d0f615b6559c281482,64becb6f1ac70ee1a8c439d5,right,1,0.3,0.1786,17,-0.026184141,0.7515,,,,,,239,0,239,0,1,,,,,
,,208088,001,2023-07-24_13h05.37.084,arm3_eps,2022.2.5,Win32,59.95563283,61038917dbab6d0d7f203eef,64aea9d0f615b6559c281482,64becb6f1ac70ee1a8c439d5,right,1,0.3,0.1786,17,-0.023473879,0.2713,,,,,,240,0,240,0,1,,,,,
,,208088,001,2023-07-24_13h05.37.084,arm3_eps,2022.2.5,Win32,59.95563283,61038917dbab6d0d7f203eef,64aea9d0f615b6559c281482,64becb6f1ac70ee1a8c439d5,right,1,0.3,0.1786,17,-0.025463169,0.1806,,,,,,241,0,241,0,1,,,,,
,,208088,001,2023-07-24_13h05.37.084,arm3_eps,2022.2.5,Win32,59.95563283,61038917dbab6d0d7f203eef,64aea9d0f615b6559c281482,64becb6f1ac70ee1a8c439d5,right,1,0.3,0.1786,17,-0.010841819,0.3824,,,,,,242,0,242,0,1,,,,,
,,208088,001,2023-07-24_13h05.37.084,arm3_eps,2022.2.5,Win32,59.95563283,61038917dbab6d0d7f203eef,64aea9d0f615b6559c281482,64becb6f1ac70ee1a8c439d5,right,1,0.3,0.1786,17,0.00689163,0.3496,,,,,,243,0,243,0,1,,,,,
,,208088,001,2023-07-24_13h05.37.084,arm3_eps,2022.2.5,Win32,59.95563283,61038917dbab6d0d7f203eef,64aea9d0f615b6559c281482,64becb6f1ac70ee1a8c439d5,right,1,0.3,0.1786,17,0.008209399,0.4295,,,,,,244,0,244,0,1,,,,,
,,208088,001,2023-07-24_13h05.37.084,arm3_eps,2022.2.5,Win32,59.95563283,61038917dbab6d0d7f203eef,64aea9d0f615b6559c281482,64becb6f1ac70ee1a8c439d5,right,1,0.3,0.1786,17,0.00031149,0.3642,,,,,,245,0,245,0,1,,,,,
,,208088,001,2023-07-24_13h05.37.084,arm3_eps,2022.2.5,Win32,59.95563283,61038917dbab6d0d7f203eef,64aea9d0f615b6559c281482,64becb6f1ac70ee1a8c439d5,right,1,0.3,0.1786,17,0.012461155,0.541,,,,,,246,0,246,0,1,,,,,
,,208088,001,2023-07-24_13h05.37.084,arm3_eps,2022.2.5,Win32,59.95563283,61038917dbab6d0d7f203eef,64aea9d0f615b6559c281482,64becb6f1ac70ee1a8c439d5,up,1,0.3,0.1786,17,0,0.3424,,,,,,247,0,247,0,1,,,,,
,,208088,001,2023-07-24_13h05.37.084,arm3_eps,2022.2.5,Win32,59.95563283,61038917dbab6d0d7f203eef,64aea9d0f615b6559c281482,64becb6f1ac70ee1a8c439d5,right,1,0.3,0.1786,17,0.002414885,0.7601,,,,,,248,0,248,0,1,,,,,
,,208088,001,2023-07-24_13h05.37.084,arm3_eps,2022.2.5,Win32,59.95563283,61038917dbab6d0d7f203eef,64aea9d0f615b6559c281482,64becb6f1ac70ee1a8c439d5,right,1,0.3,0.1786,17,0.016381101,0.393,,,,,,249,0,249,0,1,,,,,
,,208088,001,2023-07-24_13h05.37.084,arm3_eps,2022.2.5,Win32,59.95563283,61038917dbab6d0d7f203eef,64aea9d0f615b6559c281482,64becb6f1ac70ee1a8c439d5,right,1,0.3,0.1786,17,0.016776511,0.4723,,,,,,250,0,250,0,1,,,,,
,,208088,001,2023-07-24_13h05.37.084,arm3_eps,2022.2.5,Win32,59.95563283,61038917dbab6d0d7f203eef,64aea9d0f615b6559c281482,64becb6f1ac70ee1a8c439d5,right,1,0.3,0.1786,17,-0.00322546,0.453,,,,,,251,0,251,0,1,,,,,
,,208088,001,2023-07-24_13h05.37.084,arm3_eps,2022.2.5,Win32,59.95563283,61038917dbab6d0d7f203eef,64aea9d0f615b6559c281482,64becb6f1ac70ee1a8c439d5,right,1,0.3,0.1786,17,0.015675638,0.5138,,,,,,252,0,252,0,1,,,,,
,,208088,001,2023-07-24_13h05.37.084,arm3_eps,2022.2.5,Win32,59.95563283,61038917dbab6d0d7f203eef,64aea9d0f615b6559c281482,64becb6f1ac70ee1a8c439d5,up,1,0.3,0.1786,18,0,0.6524,,,,,,253,0,253,0,1,,,,,
,,208088,001,2023-07-24_13h05.37.084,arm3_eps,2022.2.5,Win32,59.95563283,61038917dbab6d0d7f203eef,64aea9d0f615b6559c281482,64becb6f1ac70ee1a8c439d5,right,1,0.3,0.1786,18,0.007049507,0.7842,,,,,,254,0,254,0,1,,,,,
,,208088,001,2023-07-24_13h05.37.084,arm3_eps,2022.2.5,Win32,59.95563283,61038917dbab6d0d7f203eef,64aea9d0f615b6559c281482,64becb6f1ac70ee1a8c439d5,right,1,0.3,0.1786,18,0.033592944,0.4171,,,,,,255,0,255,0,1,,,,,
,,208088,001,2023-07-24_13h05.37.084,arm3_eps,2022.2.5,Win32,59.95563283,61038917dbab6d0d7f203eef,64aea9d0f615b6559c281482,64becb6f1ac70ee1a8c439d5,right,1,0.3,0.1786,18,0.026624012,0.4473,,,,,,256,0,256,0,1,,,,,
,,208088,001,2023-07-24_13h05.37.084,arm3_eps,2022.2.5,Win32,59.95563283,61038917dbab6d0d7f203eef,64aea9d0f615b6559c281482,64becb6f1ac70ee1a8c439d5,up,1,0.3,0.1786,18,0,0.4764,,,,,,257,0,257,0,1,,,,,
,,208088,001,2023-07-24_13h05.37.084,arm3_eps,2022.2.5,Win32,59.95563283,61038917dbab6d0d7f203eef,64aea9d0f615b6559c281482,64becb6f1ac70ee1a8c439d5,right,1,0.3,0.1786,18,-0.00132183,0.7922,,,,,,258,0,258,0,1,,,,,
,,208088,001,2023-07-24_13h05.37.084,arm3_eps,2022.2.5,Win32,59.95563283,61038917dbab6d0d7f203eef,64aea9d0f615b6559c281482,64becb6f1ac70ee1a8c439d5,right,1,0.3,0.1786,18,0.011275359,0.6491,,,,,,259,0,259,0,1,,,,,
,,208088,001,2023-07-24_13h05.37.084,arm3_eps,2022.2.5,Win32,59.95563283,61038917dbab6d0d7f203eef,64aea9d0f615b6559c281482,64becb6f1ac70ee1a8c439d5,right,1,0.3,0.1786,18,0.007272092,0.3824,,,,,,260,0,260,0,1,,,,,
,,208088,001,2023-07-24_13h05.37.084,arm3_eps,2022.2.5,Win32,59.95563283,61038917dbab6d0d7f203eef,64aea9d0f615b6559c281482,64becb6f1ac70ee1a8c439d5,up,-1,0.3,0.1786,18,0,0.6846,,,,,,261,0,261,0,1,,,,,
,,208088,001,2023-07-24_13h05.37.084,arm3_eps,2022.2.5,Win32,59.95563283,61038917dbab6d0d7f203eef,64aea9d0f615b6559c281482,64becb6f1ac70ee1a8c439d5,right,-1,0.3,0.1786,18,0.022888814,0.7681,,,,,,262,0,262,0,1,,,,,
,,208088,001,2023-07-24_13h05.37.084,arm3_eps,2022.2.5,Win32,59.95563283,61038917dbab6d0d7f203eef,64aea9d0f615b6559c281482,64becb6f1ac70ee1a8c439d5,right,-1,0.3,0.1786,18,-0.00119316,0.352,,,,,,263,0,263,0,1,,,,,
,,208088,001,2023-07-24_13h05.37.084,arm3_eps,2022.2.5,Win32,59.95563283,61038917dbab6d0d7f203eef,64aea9d0f615b6559c281482,64becb6f1ac70ee1a8c439d5,right,-1,0.3,0.1786,18,-0.006170333,0.353,,,,,,264,0,264,0,1,,,,,
,,208088,001,2023-07-24_13h05.37.084,arm3_eps,2022.2.5,Win32,59.95563283,61038917dbab6d0d7f203eef,64aea9d0f615b6559c281482,64becb6f1ac70ee1a8c439d5,right,-1,0.3,0.1786,18,-0.022008338,0.578,,,,,,265,0,265,0,1,,,,,
,,208088,001,2023-07-24_13h05.37.084,arm3_eps,2022.2.5,Win32,59.95563283,61038917dbab6d0d7f203eef,64aea9d0f615b6559c281482,64becb6f1ac70ee1a8c439d5,right,-1,0.3,0.1786,18,-0.011047504,0.5861,,,,,,266,0,266,0,1,,,,,
,,208088,001,2023-07-24_13h05.37.084,arm3_eps,2022.2.5,Win32,59.95563283,61038917dbab6d0d7f203eef,64aea9d0f615b6559c281482,64becb6f1ac70ee1a8c439d5,right,-1,0.3,0.1786,18,0.006781033,0.37,,,,,,267,0,267,0,1,,,,,
,,208088,001,2023-07-24_13h05.37.084,arm3_eps,2022.2.5,Win32,59.95563283,61038917dbab6d0d7f203eef,64aea9d0f615b6559c281482,64becb6f1ac70ee1a8c439d5,right,-1,0.3,0.1786,18,-0.03057097,0.6261,,,,,,268,0,268,0,1,,,,,
,,208088,001,2023-07-24_13h05.37.084,arm3_eps,2022.2.5,Win32,59.95563283,61038917dbab6d0d7f203eef,64aea9d0f615b6559c281482,64becb6f1ac70ee1a8c439d5,down,-1,0.3,0.1786,18,0,0.4724,,,,,,269,0,269,0,1,,,,,
,,208088,001,2023-07-24_13h05.37.084,arm3_eps,2022.2.5,Win32,59.95563283,61038917dbab6d0d7f203eef,64aea9d0f615b6559c281482,64becb6f1ac70ee1a8c439d5,right,-1,0.3,0.1786,18,0.014927551,0.7883,,,,,,270,0,270,0,1,,,,,
,,208088,001,2023-07-24_13h05.37.084,arm3_eps,2022.2.5,Win32,59.95563283,61038917dbab6d0d7f203eef,64aea9d0f615b6559c281482,64becb6f1ac70ee1a8c439d5,right,-1,0.3,0.1786,18,0.002826797,0.4358,,,,,,271,0,271,0,1,,,,,
,,208088,001,2023-07-24_13h05.37.084,arm3_eps,2022.2.5,Win32,59.95563283,61038917dbab6d0d7f203eef,64aea9d0f615b6559c281482,64becb6f1ac70ee1a8c439d5,right,-1,0.3,0.1786,18,-0.025687121,0.273,,,,,,272,0,272,0,1,,,,,
,,208088,001,2023-07-24_13h05.37.084,arm3_eps,2022.2.5,Win32,59.95563283,61038917dbab6d0d7f203eef,64aea9d0f615b6559c281482,64becb6f1ac70ee1a8c439d5,down,-1,0.3,0.1786,18,0,0.438,,,,,,273,0,273,0,1,,,,,
,,208088,001,2023-07-24_13h05.37.084,arm3_eps,2022.2.5,Win32,59.95563283,61038917dbab6d0d7f203eef,64aea9d0f615b6559c281482,64becb6f1ac70ee1a8c439d5,right,-1,0.3,0.1786,18,-0.01797252,0.7233,,,,,,274,0,274,0,1,,,,,
,,208088,001,2023-07-24_13h05.37.084,arm3_eps,2022.2.5,Win32,59.95563283,61038917dbab6d0d7f203eef,64aea9d0f615b6559c281482,64becb6f1ac70ee1a8c439d5,right,-1,0.3,0.1786,18,0.01513478,0.3249,,,,,,275,0,275,0,1,,,,,
,,208088,001,2023-07-24_13h05.37.084,arm3_eps,2022.2.5,Win32,59.95563283,61038917dbab6d0d7f203eef,64aea9d0f615b6559c281482,64becb6f1ac70ee1a8c439d5,right,-1,0.3,0.1786,18,0.001528027,0.3598,,,,,,276,0,276,0,1,,,,,
,,208088,001,2023-07-24_13h05.37.084,arm3_eps,2022.2.5,Win32,59.95563283,61038917dbab6d0d7f203eef,64aea9d0f615b6559c281482,64becb6f1ac70ee1a8c439d5,right,-1,0.3,0.1786,18,-0.010192618,0.2327,,,,,,277,0,277,0,1,,,,,
,,208088,001,2023-07-24_13h05.37.084,arm3_eps,2022.2.5,Win32,59.95563283,61038917dbab6d0d7f203eef,64aea9d0f615b6559c281482,64becb6f1ac70ee1a8c439d5,right,-1,0.3,0.1786,18,-0.02908489,0.4632,,,,,,278,0,278,0,1,,,,,
,,208088,001,2023-07-24_13h05.37.084,arm3_eps,2022.2.5,Win32,59.95563283,61038917dbab6d0d7f203eef,64aea9d0f615b6559c281482,64becb6f1ac70ee1a8c439d5,down,-1,0.3,0.1786,18,0,0.3003,,,,,,279,0,279,0,1,,,,,
,,208088,001,2023-07-24_13h05.37.084,arm3_eps,2022.2.5,Win32,59.95563283,61038917dbab6d0d7f203eef,64aea9d0f615b6559c281482,64becb6f1ac70ee1a8c439d5,right,-1,0.3,0.1786,18,0.003159996,0.7348,,,,,,280,0,280,0,1,,,,,
,,208088,001,2023-07-24_13h05.37.084,arm3_eps,2022.2.5,Win32,59.95563283,61038917dbab6d0d7f203eef,64aea9d0f615b6559c281482,64becb6f1ac70ee1a8c439d5,right,-1,0.3,0.1786,18,-0.003781336,0.3038,,,,,,281,0,281,0,1,,,,,
,,208088,001,2023-07-24_13h05.37.084,arm3_eps,2022.2.5,Win32,59.95563283,61038917dbab6d0d7f203eef,64aea9d0f615b6559c281482,64becb6f1ac70ee1a8c439d5,right,-1,0.3,0.1786,18,0.005107574,0.179,,,,,,282,0,282,0,1,,,,,
,,208088,001,2023-07-24_13h05.37.084,arm3_eps,2022.2.5,Win32,59.95563283,61038917dbab6d0d7f203eef,64aea9d0f615b6559c281482,64becb6f1ac70ee1a8c439d5,right,-1,0.3,0.1786,18,0.009161458,0.3642,,,,,,283,0,283,0,1,,,,,
,,208088,001,2023-07-24_13h05.37.084,arm3_eps,2022.2.5,Win32,59.95563283,61038917dbab6d0d7f203eef,64aea9d0f615b6559c281482,64becb6f1ac70ee1a8c439d5,right,-1,0.3,0.1786,18,-0.013221194,0.3166,,,,,,284,0,284,0,1,,,,,
,,208088,001,2023-07-24_13h05.37.084,arm3_eps,2022.2.5,Win32,59.95563283,61038917dbab6d0d7f203eef,64aea9d0f615b6559c281482,64becb6f1ac70ee1a8c439d5,right,-1,0.3,0.1786,18,-0.025743418,0.2873,,,,,,285,0,285,0,1,,,,,
,,208088,001,2023-07-24_13h05.37.084,arm3_eps,2022.2.5,Win32,59.95563283,61038917dbab6d0d7f203eef,64aea9d0f615b6559c281482,64becb6f1ac70ee1a8c439d5,down,1,0.3,0.1786,18,0,0.4186,,,,,,286,0,286,0,1,,,,,
,,208088,001,2023-07-24_13h05.37.084,arm3_eps,2022.2.5,Win32,59.95563283,61038917dbab6d0d7f203eef,64aea9d0f615b6559c281482,64becb6f1ac70ee1a8c439d5,right,1,0.3,0.1786,18,-0.002832967,0.705,,,,,,287,0,287,0,1,,,,,
,,208088,001,2023-07-24_13h05.37.084,arm3_eps,2022.2.5,Win32,59.95563283,61038917dbab6d0d7f203eef,64aea9d0f615b6559c281482,64becb6f1ac70ee1a8c439d5,right,1,0.3,0.1786,18,0.028403608,0.2757,,,,,,288,0,288,0,1,,,,,
,,208088,001,2023-07-24_13h05.37.084,arm3_eps,2022.2.5,Win32,59.95563283,61038917dbab6d0d7f203eef,64aea9d0f615b6559c281482,64becb6f1ac70ee1a8c439d5,right,1,0.3,0.1786,18,0.024553858,0.2162,,,,,,289,0,289,0,1,,,,,
,,208088,001,2023-07-24_13h05.37.084,arm3_eps,2022.2.5,Win32,59.95563283,61038917dbab6d0d7f203eef,64aea9d0f615b6559c281482,64becb6f1ac70ee1a8c439d5,right,1,0.3,0.1786,18,0.025774865,0.2388,,,,,,290,0,290,0,1,,,,,
,,208088,001,2023-07-24_13h05.37.084,arm3_eps,2022.2.5,Win32,59.95563283,61038917dbab6d0d7f203eef,64aea9d0f615b6559c281482,64becb6f1ac70ee1a8c439d5,right,1,0.3,0.1786,18,0.014914524,0.4684,,,,,,291,0,291,0,1,,,,,
,,208088,001,2023-07-24_13h05.37.084,arm3_eps,2022.2.5,Win32,59.95563283,61038917dbab6d0d7f203eef,64aea9d0f615b6559c281482,64becb6f1ac70ee1a8c439d5,right,1,0.3,0.1786,18,0.042573312,0.2083,,,,,,292,0,292,0,1,,,,,
,,208088,001,2023-07-24_13h05.37.084,arm3_eps,2022.2.5,Win32,59.95563283,61038917dbab6d0d7f203eef,64aea9d0f615b6559c281482,64becb6f1ac70ee1a8c439d5,up,1,0.3,0.1786,18,0,0.5839,,,,,,293,0,293,0,1,,,,,
,,208088,001,2023-07-24_13h05.37.084,arm3_eps,2022.2.5,Win32,59.95563283,61038917dbab6d0d7f203eef,64aea9d0f615b6559c281482,64becb6f1ac70ee1a8c439d5,right,1,0.3,0.1786,18,0.019094171,0.7192,,,,,,294,0,294,0,1,,,,,
,,208088,001,2023-07-24_13h05.37.084,arm3_eps,2022.2.5,Win32,59.95563283,61038917dbab6d0d7f203eef,64aea9d0f615b6559c281482,64becb6f1ac70ee1a8c439d5,right,1,0.3,0.1786,18,0.055449678,0.4364,,,,,,295,0,295,0,1,,,,,
,,208088,001,2023-07-24_13h05.37.084,arm3_eps,2022.2.5,Win32,59.95563283,61038917dbab6d0d7f203eef,64aea9d0f615b6559c281482,64becb6f1ac70ee1a8c439d5,right,1,0.3,0.1786,18,0.06895093,0.4446,,,,,,296,0,296,0,1,,,,,
,,208088,001,2023-07-24_13h05.37.084,arm3_eps,2022.2.5,Win32,59.95563283,61038917dbab6d0d7f203eef,64aea9d0f615b6559c281482,64becb6f1ac70ee1a8c439d5,up,1,0.3,0.1786,18,0,0.443,,,,,,297,0,297,0,1,,,,,
,,208088,001,2023-07-24_13h05.37.084,arm3_eps,2022.2.5,Win32,59.95563283,61038917dbab6d0d7f203eef,64aea9d0f615b6559c281482,64becb6f1ac70ee1a8c439d5,right,1,0.3,0.1786,18,0.018408949,0.7598,,,,,,298,0,298,0,1,,,,,
,,208088,001,2023-07-24_13h05.37.084,arm3_eps,2022.2.5,Win32,59.95563283,61038917dbab6d0d7f203eef,64aea9d0f615b6559c281482,64becb6f1ac70ee1a8c439d5,right,1,0.3,0.1786,18,0.017428951,0.4572,,,,,,299,0,299,0,1,,,,,
,,208088,001,2023-07-24_13h05.37.084,arm3_eps,2022.2.5,Win32,59.95563283,61038917dbab6d0d7f203eef,64aea9d0f615b6559c281482,64becb6f1ac70ee1a8c439d5,right,1,0.3,0.1786,18,0.001043201,0.3101,,,,,,300,0,300,0,1,,,,,
,,208088,001,2023-07-24_13h05.37.084,arm3_eps,2022.2.5,Win32,59.95563283,61038917dbab6d0d7f203eef,64aea9d0f615b6559c281482,64becb6f1ac70ee1a8c439d5,right,1,0.3,0.1786,18,0.023833668,0.3605,,,,,,301,0,301,0,1,,,,,
,,208088,001,2023-07-24_13h05.37.084,arm3_eps,2022.2.5,Win32,59.95563283,61038917dbab6d0d7f203eef,64aea9d0f615b6559c281482,64becb6f1ac70ee1a8c439d5,right,1,0.3,0.1786,18,0.033456309,0.3943,,,,,,302,0,302,0,1,,,,,
,,208088,001,2023-07-24_13h05.37.084,arm3_eps,2022.2.5,Win32,59.95563283,61038917dbab6d0d7f203eef,64aea9d0f615b6559c281482,64becb6f1ac70ee1a8c439d5,up,1,0.3,0.1786,18,0,0.4417,,,,,,303,0,303,0,1,,,,,
,,208088,001,2023-07-24_13h05.37.084,arm3_eps,2022.2.5,Win32,59.95563283,61038917dbab6d0d7f203eef,64aea9d0f615b6559c281482,64becb6f1ac70ee1a8c439d5,right,1,0.3,0.1786,18,0.017481509,0.7592,,,,,,304,0,304,0,1,,,,,
,,208088,001,2023-07-24_13h05.37.084,arm3_eps,2022.2.5,Win32,59.95563283,61038917dbab6d0d7f203eef,64aea9d0f615b6559c281482,64becb6f1ac70ee1a8c439d5,right,1,0.3,0.1786,18,0.027860469,0.2335,,,,,,305,0,305,0,1,,,,,
,,208088,001,2023-07-24_13h05.37.084,arm3_eps,2022.2.5,Win32,59.95563283,61038917dbab6d0d7f203eef,64aea9d0f615b6559c281482,64becb6f1ac70ee1a8c439d5,right,1,0.3,0.1786,18,0.063077529,0.3174,,,,,,306,0,306,0,1,,,,,
,,208088,001,2023-07-24_13h05.37.084,arm3_eps,2022.2.5,Win32,59.95563283,61038917dbab6d0d7f203eef,64aea9d0f615b6559c281482,64becb6f1ac70ee1a8c439d5,up,1,0.3,0.1786,18,0,0.2544,,,,,,307,0,307,0,1,,,,,
,,208088,001,2023-07-24_13h05.37.084,arm3_eps,2022.2.5,Win32,59.95563283,61038917dbab6d0d7f203eef,64aea9d0f615b6559c281482,64becb6f1ac70ee1a8c439d5,right,1,0.3,0.1786,18,-0.015118801,0.7084,,,,,,308,0,308,0,1,,,,,
,,208088,001,2023-07-24_13h05.37.084,arm3_eps,2022.2.5,Win32,59.95563283,61038917dbab6d0d7f203eef,64aea9d0f615b6559c281482,64becb6f1ac70ee1a8c439d5,right,1,0.3,0.1786,18,0.005682337,0.2175,,,,,,309,0,309,0,1,,,,,
,,208088,001,2023-07-24_13h05.37.084,arm3_eps,2022.2.5,Win32,59.95563283,61038917dbab6d0d7f203eef,64aea9d0f615b6559c281482,64becb6f1ac70ee1a8c439d5,right,1,0.3,0.1786,18,0.016714593,0.2529,,,,,,310,0,310,0,1,,,,,
,,208088,001,2023-07-24_13h05.37.084,arm3_eps,2022.2.5,Win32,59.95563283,61038917dbab6d0d7f203eef,64aea9d0f615b6559c281482,64becb6f1ac70ee1a8c439d5,up,1,0.3,0.1786,18,0,0.4665,,,,,,311,0,311,0,1,,,,,
,,208088,001,2023-07-24_13h05.37.084,arm3_eps,2022.2.5,Win32,59.95563283,61038917dbab6d0d7f203eef,64aea9d0f615b6559c281482,64becb6f1ac70ee1a8c439d5,right,1,0.3,0.1786,18,-0.015252965,0.703,,,,,,312,0,312,0,1,,,,,
,,208088,001,2023-07-24_13h05.37.084,arm3_eps,2022.2.5,Win32,59.95563283,61038917dbab6d0d7f203eef,64aea9d0f615b6559c281482,64becb6f1ac70ee1a8c439d5,right,1,0.3,0.1786,18,-0.010937476,0.3697,,,,,,313,0,313,0,1,,,,,
,,208088,001,2023-07-24_13h05.37.084,arm3_eps,2022.2.5,Win32,59.95563283,61038917dbab6d0d7f203eef,64aea9d0f615b6559c281482,64becb6f1ac70ee1a8c439d5,right,1,0.3,0.1786,18,0.028116635,0.4338,,,,,,314,0,314,0,1,,,,,
,,208088,001,2023-07-24_13h05.37.084,arm3_eps,2022.2.5,Win32,59.95563283,61038917dbab6d0d7f203eef,64aea9d0f615b6559c281482,64becb6f1ac70ee1a8c439d5,up,1,0.3,0.1786,18,0,0.543,,,,,,315,0,315,0,1,,,,,
,,208088,001,2023-07-24_13h05.37.084,arm3_eps,2022.2.5,Win32,59.95563283,61038917dbab6d0d7f203eef,64aea9d0f615b6559c281482,64becb6f1ac70ee1a8c439d5,right,1,0.3,0.1786,18,0.034502339,0.6999,,,,,,316,0,316,0,1,,,,,
,,208088,001,2023-07-24_13h05.37.084,arm3_eps,2022.2.5,Win32,59.95563283,61038917dbab6d0d7f203eef,64aea9d0f615b6559c281482,64becb6f1ac70ee1a8c439d5,right,1,0.3,0.1786,18,0.041398593,0.2196,,,,,,317,0,317,0,1,,,,,
,,208088,001,2023-07-24_13h05.37.084,arm3_eps,2022.2.5,Win32,59.95563283,61038917dbab6d0d7f203eef,64aea9d0f615b6559c281482,64becb6f1ac70ee1a8c439d5,right,1,0.3,0.1786,18,0.062510685,0.2423,,,,,,318,0,318,0,1,,,,,
,,208088,001,2023-07-24_13h05.37.084,arm3_eps,2022.2.5,Win32,59.95563283,61038917dbab6d0d7f203eef,64aea9d0f615b6559c281482,64becb6f1ac70ee1a8c439d5,up,1,0.3,0.1786,18,0,0.3157,,,,,,319,0,319,0,1,,,,,
,,208088,001,2023-07-24_13h05.37.084,arm3_eps,2022.2.5,Win32,59.95563283,61038917dbab6d0d7f203eef,64aea9d0f615b6559c281482,64becb6f1ac70ee1a8c439d5,right,1,0.3,0.1786,18,-0.00505605,0.667,,,,,,320,0,320,0,1,,,,,
,,208088,001,2023-07-24_13h05.37.084,arm3_eps,2022.2.5,Win32,59.95563283,61038917dbab6d0d7f203eef,64aea9d0f615b6559c281482,64becb6f1ac70ee1a8c439d5,right,1,0.3,0.1786,18,0.018938238,0.1746,,,,,,321,0,321,0,1,,,,,
,,208088,001,2023-07-24_13h05.37.084,arm3_eps,2022.2.5,Win32,59.95563283,61038917dbab6d0d7f203eef,64aea9d0f615b6559c281482,64becb6f1ac70ee1a8c439d5,right,1,0.3,0.1786,18,0.023962596,0.4384,,,,,,322,0,322,0,1,,,,,
,,208088,001,2023-07-24_13h05.37.084,arm3_eps,2022.2.5,Win32,59.95563283,61038917dbab6d0d7f203eef,64aea9d0f615b6559c281482,64becb6f1ac70ee1a8c439d5,right,1,0.3,0.1786,18,0.019741682,0.5666,,,,,,323,0,323,0,1,,,,,
,,208088,001,2023-07-24_13h05.37.084,arm3_eps,2022.2.5,Win32,59.95563283,61038917dbab6d0d7f203eef,64aea9d0f615b6559c281482,64becb6f1ac70ee1a8c439d5,right,1,0.3,0.1786,18,0.010964313,0.3816,,,,,,324,0,324,0,1,,,,,
,,208088,001,2023-07-24_13h05.37.084,arm3_eps,2022.2.5,Win32,59.95563283,61038917dbab6d0d7f203eef,64aea9d0f615b6559c281482,64becb6f1ac70ee1a8c439d5,right,1,0.3,0.1786,18,0.032949263,0.5564,,,,,,325,0,325,0,1,,,,,
,,208088,001,2023-07-24_13h05.37.084,arm3_eps,2022.2.5,Win32,59.95563283,61038917dbab6d0d7f203eef,64aea9d0f615b6559c281482,64becb6f1ac70ee1a8c439d5,right,1,0.3,0.1786,18,0.028626175,0.6005,,,,,,326,0,326,0,1,,,,,
,,208088,001,2023-07-24_13h05.37.084,arm3_eps,2022.2.5,Win32,59.95563283,61038917dbab6d0d7f203eef,64aea9d0f615b6559c281482,64becb6f1ac70ee1a8c439d5,up,1,0.3,0.1786,18,0,0.4919,,,,,,327,0,327,0,1,,,,,
,,208088,001,2023-07-24_13h05.37.084,arm3_eps,2022.2.5,Win32,59.95563283,61038917dbab6d0d7f203eef,64aea9d0f615b6559c281482,64becb6f1ac70ee1a8c439d5,right,1,0.3,0.1786,18,0.004472297,0.8393,,,,,,328,0,328,0,1,,,,,
,,208088,001,2023-07-24_13h05.37.084,arm3_eps,2022.2.5,Win32,59.95563283,61038917dbab6d0d7f203eef,64aea9d0f615b6559c281482,64becb6f1ac70ee1a8c439d5,right,1,0.3,0.1786,18,-0.002439696,0.389,,,,,,329,0,329,0,1,,,,,
,,208088,001,2023-07-24_13h05.37.084,arm3_eps,2022.2.5,Win32,59.95563283,61038917dbab6d0d7f203eef,64aea9d0f615b6559c281482,64becb6f1ac70ee1a8c439d5,right,1,0.3,0.1786,18,0.017404758,0.404,,,,,,330,0,330,0,1,,,,,
,,208088,001,2023-07-24_13h05.37.084,arm3_eps,2022.2.5,Win32,59.95563283,61038917dbab6d0d7f203eef,64aea9d0f615b6559c281482,64becb6f1ac70ee1a8c439d5,right,1,0.3,0.1786,18,0.010956553,0.419,,,,,,331,0,331,0,1,,,,,
,,208088,001,2023-07-24_13h05.37.084,arm3_eps,2022.2.5,Win32,59.95563283,61038917dbab6d0d7f203eef,64aea9d0f615b6559c281482,64becb6f1ac70ee1a8c439d5,right,1,0.3,0.1786,18,-0.014584129,0.37,,,,,,332,0,332,0,1,,,,,
,,208088,001,2023-07-24_13h05.37.084,arm3_eps,2022.2.5,Win32,59.95563283,61038917dbab6d0d7f203eef,64aea9d0f615b6559c281482,64becb6f1ac70ee1a8c439d5,down,1,0.3,0.1786,17,0,0.4343,,,,,,333,0,333,0,1,,,,,
,,208088,001,2023-07-24_13h05.37.084,arm3_eps,2022.2.5,Win32,59.95563283,61038917dbab6d0d7f203eef,64aea9d0f615b6559c281482,64becb6f1ac70ee1a8c439d5,right,1,0.3,0.1786,17,0.029615104,1.6953,,,,,,334,0,334,0,1,,,,,
,,208088,001,2023-07-24_13h05.37.084,arm3_eps,2022.2.5,Win32,59.95563283,61038917dbab6d0d7f203eef,64aea9d0f615b6559c281482,64becb6f1ac70ee1a8c439d5,right,1,0.3,0.1786,17,0.020807181,0.4105,,,,,,335,0,335,0,1,,,,,
,,208088,001,2023-07-24_13h05.37.084,arm3_eps,2022.2.5,Win32,59.95563283,61038917dbab6d0d7f203eef,64aea9d0f615b6559c281482,64becb6f1ac70ee1a8c439d5,right,1,0.3,0.1786,17,0.025441537,0.3676,,,,,,336,0,336,0,1,,,,,
,,208088,001,2023-07-24_13h05.37.084,arm3_eps,2022.2.5,Win32,59.95563283,61038917dbab6d0d7f203eef,64aea9d0f615b6559c281482,64becb6f1ac70ee1a8c439d5,right,1,0.3,0.1786,17,-0.000349732,0.4252,,,,,,337,0,337,0,1,,,,,
,,208088,001,2023-07-24_13h05.37.084,arm3_eps,2022.2.5,Win32,59.95563283,61038917dbab6d0d7f203eef,64aea9d0f615b6559c281482,64becb6f1ac70ee1a8c439d5,right,1,0.3,0.1786,17,-0.024126751,0.2825,,,,,,338,0,338,0,1,,,,,
,,208088,001,2023-07-24_13h05.37.084,arm3_eps,2022.2.5,Win32,59.95563283,61038917dbab6d0d7f203eef,64aea9d0f615b6559c281482,64becb6f1ac70ee1a8c439d5,right,1,0.3,0.1786,17,-0.012130687,0.3655,,,,,,339,0,339,0,1,,,,,
,,208088,001,2023-07-24_13h05.37.084,arm3_eps,2022.2.5,Win32,59.95563283,61038917dbab6d0d7f203eef,64aea9d0f615b6559c281482,64becb6f1ac70ee1a8c439d5,right,1,0.3,0.1786,17,0.011612462,0.2681,,,,,,340,0,340,0,1,,,,,
,,208088,001,2023-07-24_13h05.37.084,arm3_eps,2022.2.5,Win32,59.95563283,61038917dbab6d0d7f203eef,64aea9d0f615b6559c281482,64becb6f1ac70ee1a8c439d5,right,1,0.3,0.1786,17,0.013787385,0.352,,,,,,341,0,341,0,1,,,,,
,,208088,001,2023-07-24_13h05.37.084,arm3_eps,2022.2.5,Win32,59.95563283,61038917dbab6d0d7f203eef,64aea9d0f615b6559c281482,64becb6f1ac70ee1a8c439d5,right,1,0.3,0.1786,17,-0.031646288,0.4015,,,,,,342,0,342,0,1,,,,,
,,208088,001,2023-07-24_13h05.37.084,arm3_eps,2022.2.5,Win32,59.95563283,61038917dbab6d0d7f203eef,64aea9d0f615b6559c281482,64becb6f1ac70ee1a8c439d5,down,1,0.3,0.1786,17,0,1.344,,,,,,343,0,343,0,1,,,,,
,,208088,001,2023-07-24_13h05.37.084,arm3_eps,2022.2.5,Win32,59.95563283,61038917dbab6d0d7f203eef,64aea9d0f615b6559c281482,64becb6f1ac70ee1a8c439d5,right,1,0.3,0.1786,17,-0.002193715,1.0009,,,,,,344,0,344,0,1,,,,,
,,208088,001,2023-07-24_13h05.37.084,arm3_eps,2022.2.5,Win32,59.95563283,61038917dbab6d0d7f203eef,64aea9d0f615b6559c281482,64becb6f1ac70ee1a8c439d5,right,1,0.3,0.1786,17,-0.00639673,0.2876,,,,,,345,0,345,0,1,,,,,
,,208088,001,2023-07-24_13h05.37.084,arm3_eps,2022.2.5,Win32,59.95563283,61038917dbab6d0d7f203eef,64aea9d0f615b6559c281482,64becb6f1ac70ee1a8c439d5,right,1,0.3,0.1786,17,0.014128177,0.4037,,,,,,346,0,346,0,1,,,,,
,,208088,001,2023-07-24_13h05.37.084,arm3_eps,2022.2.5,Win32,59.95563283,61038917dbab6d0d7f203eef,64aea9d0f615b6559c281482,64becb6f1ac70ee1a8c439d5,right,1,0.3,0.1786,17,0.016938759,0.386,,,,,,347,0,347,0,1,,,,,
,,208088,001,2023-07-24_13h05.37.084,arm3_eps,2022.2.5,Win32,59.95563283,61038917dbab6d0d7f203eef,64aea9d0f615b6559c281482,64becb6f1ac70ee1a8c439d5,right,1,0.3,0.1786,17,0.011452906,0.4175,,,,,,348,0,348,0,1,,,,,
,,208088,001,2023-07-24_13h05.37.084,arm3_eps,2022.2.5,Win32,59.95563283,61038917dbab6d0d7f203eef,64aea9d0f615b6559c281482,64becb6f1ac70ee1a8c439d5,right,1,0.3,0.1786,17,0.022709659,0.4003,,,,,,349,0,349,0,1,,,,,
,,208088,001,2023-07-24_13h05.37.084,arm3_eps,2022.2.5,Win32,59.95563283,61038917dbab6d0d7f203eef,64aea9d0f615b6559c281482,64becb6f1ac70ee1a8c439d5,up,1,0.3,0.1786,17,0,0.4157,,,,,,350,0,350,0,1,,,,,
,,208088,001,2023-07-24_13h05.37.084,arm3_eps,2022.2.5,Win32,59.95563283,61038917dbab6d0d7f203eef,64aea9d0f615b6559c281482,64becb6f1ac70ee1a8c439d5,right,1,0.3,0.1786,17,0.052616459,0.75,,,,,,351,0,351,0,1,,,,,
,,208088,001,2023-07-24_13h05.37.084,arm3_eps,2022.2.5,Win32,59.95563283,61038917dbab6d0d7f203eef,64aea9d0f615b6559c281482,64becb6f1ac70ee1a8c439d5,right,1,0.3,0.1786,17,0.048297265,0.334,,,,,,352,0,352,0,1,,,,,
,,208088,001,2023-07-24_13h05.37.084,arm3_eps,2022.2.5,Win32,59.95563283,61038917dbab6d0d7f203eef,64aea9d0f615b6559c281482,64becb6f1ac70ee1a8c439d5,right,1,0.3,0.1786,17,0.04984091,0.3204,,,,,,353,0,353,0,1,,,,,
,,208088,001,2023-07-24_13h05.37.084,arm3_eps,2022.2.5,Win32,59.95563283,61038917dbab6d0d7f203eef,64aea9d0f615b6559c281482,64becb6f1ac70ee1a8c439d5,right,1,0.3,0.1786,17,0.053101041,0.258,,,,,,354,0,354,0,1,,,,,
,,208088,001,2023-07-24_13h05.37.084,arm3_eps,2022.2.5,Win32,59.95563283,61038917dbab6d0d7f203eef,64aea9d0f615b6559c281482,64becb6f1ac70ee1a8c439d5,right,1,0.3,0.1786,17,0.057311539,0.3272,,,,,,355,0,355,0,1,,,,,
,,208088,001,2023-07-24_13h05.37.084,arm3_eps,2022.2.5,Win32,59.95563283,61038917dbab6d0d7f203eef,64aea9d0f615b6559c281482,64becb6f1ac70ee1a8c439d5,up,-1,0.3,0.1786,18,0,0.5696,,,,,,356,0,356,0,1,,,,,
,,208088,001,2023-07-24_13h05.37.084,arm3_eps,2022.2.5,Win32,59.95563283,61038917dbab6d0d7f203eef,64aea9d0f615b6559c281482,64becb6f1ac70ee1a8c439d5,right,-1,0.3,0.1786,18,-0.004526885,0.8336,,,,,,357,0,357,0,1,,,,,
,,208088,001,2023-07-24_13h05.37.084,arm3_eps,2022.2.5,Win32,59.95563283,61038917dbab6d0d7f203eef,64aea9d0f615b6559c281482,64becb6f1ac70ee1a8c439d5,right,-1,0.3,0.1786,18,0.005410514,0.3195,,,,,,358,0,358,0,1,,,,,
,,208088,001,2023-07-24_13h05.37.084,arm3_eps,2022.2.5,Win32,59.95563283,61038917dbab6d0d7f203eef,64aea9d0f615b6559c281482,64becb6f1ac70ee1a8c439d5,right,-1,0.3,0.1786,18,0.012533998,0.4173,,,,,,359,0,359,0,1,,,,,
,,208088,001,2023-07-24_13h05.37.084,arm3_eps,2022.2.5,Win32,59.95563283,61038917dbab6d0d7f203eef,64aea9d0f615b6559c281482,64becb6f1ac70ee1a8c439d5,right,-1,0.3,0.1786,18,0.028826375,0.3836,,,,,,360,0,360,0,1,,,,,
,,208088,001,2023-07-24_13h05.37.084,arm3_eps,2022.2.5,Win32,59.95563283,61038917dbab6d0d7f203eef,64aea9d0f615b6559c281482,64becb6f1ac70ee1a8c439d5,right,-1,0.3,0.1786,18,0.018726731,0.4984,,,,,,361,0,361,0,1,,,,,
,,208088,001,2023-07-24_13h05.37.084,arm3_eps,2022.2.5,Win32,59.95563283,61038917dbab6d0d7f203eef,64aea9d0f615b6559c281482,64becb6f1ac70ee1a8c439d5,up,-1,0.3,0.1786,17,0,0.7845,,,,,,362,0,362,0,1,,,,,
,,208088,001,2023-07-24_13h05.37.084,arm3_eps,2022.2.5,Win32,59.95563283,61038917dbab6d0d7f203eef,64aea9d0f615b6559c281482,64becb6f1ac70ee1a8c439d5,right,-1,0.3,0.1786,17,0.009689588,0.9695,,,,,,363,0,363,0,1,,,,,
,,208088,001,2023-07-24_13h05.37.084,arm3_eps,2022.2.5,Win32,59.95563283,61038917dbab6d0d7f203eef,64aea9d0f615b6559c281482,64becb6f1ac70ee1a8c439d5,right,-1,0.3,0.1786,17,-0.009869346,0.3541,,,,,,364,0,364,0,1,,,,,
,,208088,001,2023-07-24_13h05.37.084,arm3_eps,2022.2.5,Win32,59.95563283,61038917dbab6d0d7f203eef,64aea9d0f615b6559c281482,64becb6f1ac70ee1a8c439d5,right,-1,0.3,0.1786,17,-0.012539397,0.307,,,,,,365,0,365,0,1,,,,,
,,208088,001,2023-07-24_13h05.37.084,arm3_eps,2022.2.5,Win32,59.95563283,61038917dbab6d0d7f203eef,64aea9d0f615b6559c281482,64becb6f1ac70ee1a8c439d5,right,-1,0.3,0.1786,17,-0.017946304,0.9664,,,,,,366,0,366,0,1,,,,,
,,208088,001,2023-07-24_13h05.37.084,arm3_eps,2022.2.5,Win32,59.95563283,61038917dbab6d0d7f203eef,64aea9d0f615b6559c281482,64becb6f1ac70ee1a8c439d5,right,-1,0.3,0.1786,17,-0.005862332,0.4779,,,,,,367,0,367,0,1,,,,,
,,208088,001,2023-07-24_13h05.37.084,arm3_eps,2022.2.5,Win32,59.95563283,61038917dbab6d0d7f203eef,64aea9d0f615b6559c281482,64becb6f1ac70ee1a8c439d5,right,-1,0.3,0.1786,17,-0.020302335,0.234,,,,,,368,0,368,0,1,,,,,
,,208088,001,2023-07-24_13h05.37.084,arm3_eps,2022.2.5,Win32,59.95563283,61038917dbab6d0d7f203eef,64aea9d0f615b6559c281482,64becb6f1ac70ee1a8c439d5,right,-1,0.3,0.1786,17,-0.034480238,0.1599,,,,,,369,0,369,0,1,,,,,
,,208088,001,2023-07-24_13h05.37.084,arm3_eps,2022.2.5,Win32,59.95563283,61038917dbab6d0d7f203eef,64aea9d0f615b6559c281482,64becb6f1ac70ee1a8c439d5,,,,,,,,,,,,,,,,,,0,0,0,0,1
space,3.7842,208088,001,2023-07-24_13h05.37.084,arm3_eps,2022.2.5,Win32,59.95563283,61038917dbab6d0d7f203eef,64aea9d0f615b6559c281482,64becb6f1ac70ee1a8c439d5,right,-1,0.3,0.4357,17,-0.001451853,1.0527,,,,,,0,0,0,0,1,,,,,
,,208088,001,2023-07-24_13h05.37.084,arm3_eps,2022.2.5,Win32,59.95563283,61038917dbab6d0d7f203eef,64aea9d0f615b6559c281482,64becb6f1ac70ee1a8c439d5,right,-1,0.3,0.4357,17,-0.00470271,0.7383,,,,,,1,0,1,0,1,,,,,
,,208088,001,2023-07-24_13h05.37.084,arm3_eps,2022.2.5,Win32,59.95563283,61038917dbab6d0d7f203eef,64aea9d0f615b6559c281482,64becb6f1ac70ee1a8c439d5,right,-1,0.3,0.4357,17,-0.036470899,0.5338,,,,,,2,0,2,0,1,,,,,
,,208088,001,2023-07-24_13h05.37.084,arm3_eps,2022.2.5,Win32,59.95563283,61038917dbab6d0d7f203eef,64aea9d0f615b6559c281482,64becb6f1ac70ee1a8c439d5,down,-1,0.3,0.4357,17,0,0.4338,,,,,,3,0,3,0,1,,,,,
,,208088,001,2023-07-24_13h05.37.084,arm3_eps,2022.2.5,Win32,59.95563283,61038917dbab6d0d7f203eef,64aea9d0f615b6559c281482,64becb6f1ac70ee1a8c439d5,right,-1,0.3,0.4357,17,-0.019312744,0.7486,,,,,,4,0,4,0,1,,,,,
,,208088,001,2023-07-24_13h05.37.084,arm3_eps,2022.2.5,Win32,59.95563283,61038917dbab6d0d7f203eef,64aea9d0f615b6559c281482,64becb6f1ac70ee1a8c439d5,right,-1,0.3,0.4357,17,-0.023567643,0.2663,,,,,,5,0,5,0,1,,,,,
,,208088,001,2023-07-24_13h05.37.084,arm3_eps,2022.2.5,Win32,59.95563283,61038917dbab6d0d7f203eef,64aea9d0f615b6559c281482,64becb6f1ac70ee1a8c439d5,right,-1,0.3,0.4357,17,-0.027355229,0.2233,,,,,,6,0,6,0,1,,,,,
,,208088,001,2023-07-24_13h05.37.084,arm3_eps,2022.2.5,Win32,59.95563283,61038917dbab6d0d7f203eef,64aea9d0f615b6559c281482,64becb6f1ac70ee1a8c439d5,right,-1,0.3,0.4357,17,-0.017653192,0.6826,,,,,,7,0,7,0,1,,,,,
,,208088,001,2023-07-24_13h05.37.084,arm3_eps,2022.2.5,Win32,59.95563283,61038917dbab6d0d7f203eef,64aea9d0f615b6559c281482,64becb6f1ac70ee1a8c439d5,right,-1,0.3,0.4357,17,-0.014177409,0.506,,,,,,8,0,8,0,1,,,,,
,,208088,001,2023-07-24_13h05.37.084,arm3_eps,2022.2.5,Win32,59.95563283,61038917dbab6d0d7f203eef,64aea9d0f615b6559c281482,64becb6f1ac70ee1a8c439d5,down,-1,0.3,0.4357,18,0,0.6446,,,,,,9,0,9,0,1,,,,,
,,208088,001,2023-07-24_13h05.37.084,arm3_eps,2022.2.5,Win32,59.95563283,61038917dbab6d0d7f203eef,64aea9d0f615b6559c281482,64becb6f1ac70ee1a8c439d5,right,-1,0.3,0.4357,18,-0.011230123,0.7485,,,,,,10,0,10,0,1,,,,,
,,208088,001,2023-07-24_13h05.37.084,arm3_eps,2022.2.5,Win32,59.95563283,61038917dbab6d0d7f203eef,64aea9d0f615b6559c281482,64becb6f1ac70ee1a8c439d5,right,-1,0.3,0.4357,18,-0.025571029,0.2828,,,,,,11,0,11,0,1,,,,,
,,208088,001,2023-07-24_13h05.37.084,arm3_eps,2022.2.5,Win32,59.95563283,61038917dbab6d0d7f203eef,64aea9d0f615b6559c281482,64becb6f1ac70ee1a8c439d5,down,1,0.3,0.4357,18,0,0.5266,,,,,,12,0,12,0,1,,,,,
,,208088,001,2023-07-24_13h05.37.084,arm3_eps,2022.2.5,Win32,59.95563283,61038917dbab6d0d7f203eef,64aea9d0f615b6559c281482,64becb6f1ac70ee1a8c439d5,right,1,0.3,0.4357,18,-0.03000285,0.6346,,,,,,13,0,13,0,1,,,,,
,,208088,001,2023-07-24_13h05.37.084,arm3_eps,2022.2.5,Win32,59.95563283,61038917dbab6d0d7f203eef,64aea9d0f615b6559c281482,64becb6f1ac70ee1a8c439d5,right,1,0.3,0.4357,18,-0.024905066,0.2519,,,,,,14,0,14,0,1,,,,,
,,208088,001,2023-07-24_13h05.37.084,arm3_eps,2022.2.5,Win32,59.95563283,61038917dbab6d0d7f203eef,64aea9d0f615b6559c281482,64becb6f1ac70ee1a8c439d5,right,1,0.3,0.4357,18,-0.006704478,0.3067,,,,,,15,0,15,0,1,,,,,
,,208088,001,2023-07-24_13h05.37.084,arm3_eps,2022.2.5,Win32,59.95563283,61038917dbab6d0d7f203eef,64aea9d0f615b6559c281482,64becb6f1ac70ee1a8c439d5,right,1,0.3,0.4357,18,0.045612845,0.3745,,,,,,16,0,16,0,1,,,,,
,,208088,001,2023-07-24_13h05.37.084,arm3_eps,2022.2.5,Win32,59.95563283,61038917dbab6d0d7f203eef,64aea9d0f615b6559c281482,64becb6f1ac70ee1a8c439d5,up,1,0.3,0.4357,19,0,0.3748,,,,,,17,0,17,0,1,,,,,
,,208088,001,2023-07-24_13h05.37.084,arm3_eps,2022.2.5,Win32,59.95563283,61038917dbab6d0d7f203eef,64aea9d0f615b6559c281482,64becb6f1ac70ee1a8c439d5,right,1,0.3,0.4357,19,0.022525729,0.6486,,,,,,18,0,18,0,1,,,,,
,,208088,001,2023-07-24_13h05.37.084,arm3_eps,2022.2.5,Win32,59.95563283,61038917dbab6d0d7f203eef,64aea9d0f615b6559c281482,64becb6f1ac70ee1a8c439d5,right,1,0.3,0.4357,19,0.029482739,0.2195,,,,,,19,0,19,0,1,,,,,
,,208088,001,2023-07-24_13h05.37.084,arm3_eps,2022.2.5,Win32,59.95563283,61038917dbab6d0d7f203eef,64aea9d0f615b6559c281482,64becb6f1ac70ee1a8c439d5,right,1,0.3,0.4357,19,0.054975935,0.3543,,,,,,20,0,20,0,1,,,,,
,,208088,001,2023-07-24_13h05.37.084,arm3_eps,2022.2.5,Win32,59.95563283,61038917dbab6d0d7f203eef,64aea9d0f615b6559c281482,64becb6f1ac70ee1a8c439d5,up,1,0.3,0.4357,19,0,0.3232,,,,,,21,0,21,0,1,,,,,
,,208088,001,2023-07-24_13h05.37.084,arm3_eps,2022.2.5,Win32,59.95563283,61038917dbab6d0d7f203eef,64aea9d0f615b6559c281482,64becb6f1ac70ee1a8c439d5,right,1,0.3,0.4357,19,0.0176954,0.6777,,,,,,22,0,22,0,1,,,,,
,,208088,001,2023-07-24_13h05.37.084,arm3_eps,2022.2.5,Win32,59.95563283,61038917dbab6d0d7f203eef,64aea9d0f615b6559c281482,64becb6f1ac70ee1a8c439d5,right,1,0.3,0.4357,19,0.009658744,0.2333,,,,,,23,0,23,0,1,,,,,
,,208088,001,2023-07-24_13h05.37.084,arm3_eps,2022.2.5,Win32,59.95563283,61038917dbab6d0d7f203eef,64aea9d0f615b6559c281482,64becb6f1ac70ee1a8c439d5,right,1,0.3,0.4357,19,0.026958403,0.1756,,,,,,24,0,24,0,1,,,,,
,,208088,001,2023-07-24_13h05.37.084,arm3_eps,2022.2.5,Win32,59.95563283,61038917dbab6d0d7f203eef,64aea9d0f615b6559c281482,64becb6f1ac70ee1a8c439d5,right,1,0.3,0.4357,19,0.027003912,0.3441,,,,,,25,0,25,0,1,,,,,
,,208088,001,2023-07-24_13h05.37.084,arm3_eps,2022.2.5,Win32,59.95563283,61038917dbab6d0d7f203eef,64aea9d0f615b6559c281482,64becb6f1ac70ee1a8c439d5,up,-1,0.3,0.4357,20,0,0.5052,,,,,,26,0,26,0,1,,,,,
,,208088,001,2023-07-24_13h05.37.084,arm3_eps,2022.2.5,Win32,59.95563283,61038917dbab6d0d7f203eef,64aea9d0f615b6559c281482,64becb6f1ac70ee1a8c439d5,right,-1,0.3,0.4357,20,-0.015843174,0.8682,,,,,,27,0,27,0,1,,,,,
,,208088,001,2023-07-24_13h05.37.084,arm3_eps,2022.2.5,Win32,59.95563283,61038917dbab6d0d7f203eef,64aea9d0f615b6559c281482,64becb6f1ac70ee1a8c439d5,right,-1,0.3,0.4357,20,-0.03872034,0.7358,,,,,,28,0,28,0,1,,,,,
,,208088,001,2023-07-24_13h05.37.084,arm3_eps,2022.2.5,Win32,59.95563283,61038917dbab6d0d7f203eef,64aea9d0f615b6559c281482,64becb6f1ac70ee1a8c439d5,right,-1,0.3,0.4357,20,-0.046012023,0.482,,,,,,29,0,29,0,1,,,,,
,,208088,001,2023-07-24_13h05.37.084,arm3_eps,2022.2.5,Win32,59.95563283,61038917dbab6d0d7f203eef,64aea9d0f615b6559c281482,64becb6f1ac70ee1a8c439d5,down,1,0.3,0.4357,21,0,0.3015,,,,,,30,0,30,0,1,,,,,
,,208088,001,2023-07-24_13h05.37.084,arm3_eps,2022.2.5,Win32,59.95563283,61038917dbab6d0d7f203eef,64aea9d0f615b6559c281482,64becb6f1ac70ee1a8c439d5,right,1,0.3,0.4357,21,0.006998445,0.883,,,,,,31,0,31,0,1,,,,,
,,208088,001,2023-07-24_13h05.37.084,arm3_eps,2022.2.5,Win32,59.95563283,61038917dbab6d0d7f203eef,64aea9d0f615b6559c281482,64becb6f1ac70ee1a8c439d5,right,1,0.3,0.4357,21,-0.008580713,0.2831,,,,,,32,0,32,0,1,,,,,
,,208088,001,2023-07-24_13h05.37.084,arm3_eps,2022.2.5,Win32,59.95563283,61038917dbab6d0d7f203eef,64aea9d0f615b6559c281482,64becb6f1ac70ee1a8c439d5,right,1,0.3,0.4357,21,-0.019912507,0.3677,,,,,,33,0,33,0,1,,,,,
,,208088,001,2023-07-24_13h05.37.084,arm3_eps,2022.2.5,Win32,59.95563283,61038917dbab6d0d7f203eef,64aea9d0f615b6559c281482,64becb6f1ac70ee1a8c439d5,down,1,0.3,0.4357,20,0,0.4843,,,,,,34,0,34,0,1,,,,,
,,208088,001,2023-07-24_13h05.37.084,arm3_eps,2022.2.5,Win32,59.95563283,61038917dbab6d0d7f203eef,64aea9d0f615b6559c281482,64becb6f1ac70ee1a8c439d5,right,1,0.3,0.4357,20,-0.009534304,0.7986,,,,,,35,0,35,0,1,,,,,
,,208088,001,2023-07-24_13h05.37.084,arm3_eps,2022.2.5,Win32,59.95563283,61038917dbab6d0d7f203eef,64aea9d0f615b6559c281482,64becb6f1ac70ee1a8c439d5,right,1,0.3,0.4357,20,-0.01062991,0.2342,,,,,,36,0,36,0,1,,,,,
,,208088,001,2023-07-24_13h05.37.084,arm3_eps,2022.2.5,Win32,59.95563283,61038917dbab6d0d7f203eef,64aea9d0f615b6559c281482,64becb6f1ac70ee1a8c439d5,right,1,0.3,0.4357,20,-0.002436349,0.1752,,,,,,37,0,37,0,1,,,,,
,,208088,001,2023-07-24_13h05.37.084,arm3_eps,2022.2.5,Win32,59.95563283,61038917dbab6d0d7f203eef,64aea9d0f615b6559c281482,64becb6f1ac70ee1a8c439d5,right,1,0.3,0.4357,20,-0.013560927,0.3605,,,,,,38,0,38,0,1,,,,,
,,208088,001,2023-07-24_13h05.37.084,arm3_eps,2022.2.5,Win32,59.95563283,61038917dbab6d0d7f203eef,64aea9d0f615b6559c281482,64becb6f1ac70ee1a8c439d5,right,1,0.3,0.4357,20,0.009081585,0.3325,,,,,,39,0,39,0,1,,,,,
,,208088,001,2023-07-24_13h05.37.084,arm3_eps,2022.2.5,Win32,59.95563283,61038917dbab6d0d7f203eef,64aea9d0f615b6559c281482,64becb6f1ac70ee1a8c439d5,right,1,0.3,0.4357,20,0.004216888,0.3001,,,,,,40,0,40,0,1,,,,,
,,208088,001,2023-07-24_13h05.37.084,arm3_eps,2022.2.5,Win32,59.95563283,61038917dbab6d0d7f203eef,64aea9d0f615b6559c281482,64becb6f1ac70ee1a8c439d5,right,1,0.3,0.4357,20,-0.005692197,0.3177,,,,,,41,0,41,0,1,,,,,
