space_bar.keys,space_bar.rt,participant,session,date,expName,psychopyVersion,OS,frameRate,PROLIFIC_PID,STUDY_ID,SESSION_ID,resp.keys,state,q_prob,eps_prob,score,price,resp.rt,train.thisRepN,train.thisTrialN,train.thisN,train.thisIndex,train.ran,steps.thisRepN,steps.thisTrialN,steps.thisN,steps.thisIndex,steps.ran,blocks.thisRepN,blocks.thisTrialN,blocks.thisN,blocks.thisIndex,blocks.ran
space,584.4661,260398,001,2023-07-24_20h05.23.488,arm3_eps,2022.2.5,Win32,60.0240096,5eaf3e142627076426921b1b,64aea9d0f615b6559c281482,64becb61a025de839d90a603,,,,,,,,,,,,,,,,,,,,,,
space,8.5013,260398,001,2023-07-24_20h05.23.488,arm3_eps,2022.2.5,Win32,60.0240096,5eaf3e142627076426921b1b,64aea9d0f615b6559c281482,64becb61a025de839d90a603,,,,,,,,,,,,,,,,,,,,,,
space,6.5845,260398,001,2023-07-24_20h05.23.488,arm3_eps,2022.2.5,Win32,60.0240096,5eaf3e142627076426921b1b,64aea9d0f615b6559c281482,64becb61a025de839d90a603,,,,,,,,,,,,,,,,,,,,,,
space,25.5281,260398,001,2023-07-24_20h05.23.488,arm3_eps,2022.2.5,Win32,60.0240096,5eaf3e142627076426921b1b,64aea9d0f615b6559c281482,64becb61a025de839d90a603,,,,,,,,,,,,,,,,,,,,,,
space,8.6689,260398,001,2023-07-24_20h05.23.488,arm3_eps,2022.2.5,Win32,60.0240096,5eaf3e142627076426921b1b,64aea9d0f615b6559c281482,64becb61a025de839d90a603,,,,,,,,,,,,,,,,,,,,,,
space,21.2278,260398,001,2023-07-24_20h05.23.488,arm3_eps,2022.2.5,Win32,60.0240096,5eaf3e142627076426921b1b,64aea9d0f615b6559c281482,64becb61a025de839d90a603,,,,,,,,,,,,,,,,,,,,,,
space,3.122,260398,001,2023-07-24_20h05.23.488,arm3_eps,2022.2.5,Win32,60.0240096,5eaf3e142627076426921b1b,64aea9d0f615b6559c281482,64becb61a025de839d90a603,,,,,,,,,,,,,,,,,,,,,,
space,17.8347,260398,001,2023-07-24_20h05.23.488,arm3_eps,2022.2.5,Win32,60.0240096,5eaf3e142627076426921b1b,64aea9d0f615b6559c281482,64becb61a025de839d90a603,,,,,,,,,,,,,,,,,,,,,,
space,5.4454,260398,001,2023-07-24_20h05.23.488,arm3_eps,2022.2.5,Win32,60.0240096,5eaf3e142627076426921b1b,64aea9d0f615b6559c281482,64becb61a025de839d90a603,,,,,,,,,,,,,,,,,,,,,,
space,5.1396,260398,001,2023-07-24_20h05.23.488,arm3_eps,2022.2.5,Win32,60.0240096,5eaf3e142627076426921b1b,64aea9d0f615b6559c281482,64becb61a025de839d90a603,,,,,,,,,,,,,,,,,,,,,,
,,260398,001,2023-07-24_20h05.23.488,arm3_eps,2022.2.5,Win32,60.0240096,5eaf3e142627076426921b1b,64aea9d0f615b6559c281482,64becb61a025de839d90a603,up,1,0.3,0.2429,0,0,12.4762,0,0,0,0,1,,,,,,,,,,
,,260398,001,2023-07-24_20h05.23.488,arm3_eps,2022.2.5,Win32,60.0240096,5eaf3e142627076426921b1b,64aea9d0f615b6559c281482,64becb61a025de839d90a603,down,1,0.3,0.2429,0,0,3.7815,1,0,1,0,1,,,,,,,,,,
,,260398,001,2023-07-24_20h05.23.488,arm3_eps,2022.2.5,Win32,60.0240096,5eaf3e142627076426921b1b,64aea9d0f615b6559c281482,64becb61a025de839d90a603,up,1,0.3,0.2429,0,0,2.889,2,0,2,0,1,,,,,,,,,,
,,260398,001,2023-07-24_20h05.23.488,arm3_eps,2022.2.5,Win32,60.0240096,5eaf3e142627076426921b1b,64aea9d0f615b6559c281482,64becb61a025de839d90a603,up,-1,0.3,0.2429,0,0,2.0699,3,0,3,0,1,,,,,,,,,,
,,260398,001,2023-07-24_20h05.23.488,arm3_eps,2022.2.5,Win32,60.0240096,5eaf3e142627076426921b1b,64aea9d0f615b6559c281482,64becb61a025de839d90a603,down,-1,0.3,0.2429,0,0,2.8352,4,0,4,0,1,,,,,,,,,,
,,260398,001,2023-07-24_20h05.23.488,arm3_eps,2022.2.5,Win32,60.0240096,5eaf3e142627076426921b1b,64aea9d0f615b6559c281482,64becb61a025de839d90a603,down,-1,0.3,0.2429,1,0,2.6864,5,0,5,0,1,,,,,,,,,,
,,260398,001,2023-07-24_20h05.23.488,arm3_eps,2022.2.5,Win32,60.0240096,5eaf3e142627076426921b1b,64aea9d0f615b6559c281482,64becb61a025de839d90a603,up,-1,0.3,0.2429,1,0,3.087,6,0,6,0,1,,,,,,,,,,
,,260398,001,2023-07-24_20h05.23.488,arm3_eps,2022.2.5,Win32,60.0240096,5eaf3e142627076426921b1b,64aea9d0f615b6559c281482,64becb61a025de839d90a603,right,-1,0.3,0.2429,1,-0.013009776,1.5806,7,0,7,0,1,,,,,,,,,,
,,260398,001,2023-07-24_20h05.23.488,arm3_eps,2022.2.5,Win32,60.0240096,5eaf3e142627076426921b1b,64aea9d0f615b6559c281482,64becb61a025de839d90a603,up,-1,0.3,0.2429,0,0,1.4645,8,0,8,0,1,,,,,,,,,,
,,260398,001,2023-07-24_20h05.23.488,arm3_eps,2022.2.5,Win32,60.0240096,5eaf3e142627076426921b1b,64aea9d0f615b6559c281482,64becb61a025de839d90a603,down,-1,0.3,0.2429,0,0,3.6164,9,0,9,0,1,,,,,,,,,,
,,260398,001,2023-07-24_20h05.23.488,arm3_eps,2022.2.5,Win32,60.0240096,5eaf3e142627076426921b1b,64aea9d0f615b6559c281482,64becb61a025de839d90a603,up,-1,0.3,0.2429,-1,0,2.0973,10,0,10,0,1,,,,,,,,,,
,,260398,001,2023-07-24_20h05.23.488,arm3_eps,2022.2.5,Win32,60.0240096,5eaf3e142627076426921b1b,64aea9d0f615b6559c281482,64becb61a025de839d90a603,down,-1,0.3,0.2429,-1,0,2.2016,11,0,11,0,1,,,,,,,,,,
,,260398,001,2023-07-24_20h05.23.488,arm3_eps,2022.2.5,Win32,60.0240096,5eaf3e142627076426921b1b,64aea9d0f615b6559c281482,64becb61a025de839d90a603,up,1,0.3,0.2429,-1,0,2.0659,12,0,12,0,1,,,,,,,,,,
,,260398,001,2023-07-24_20h05.23.488,arm3_eps,2022.2.5,Win32,60.0240096,5eaf3e142627076426921b1b,64aea9d0f615b6559c281482,64becb61a025de839d90a603,down,1,0.3,0.2429,-2,0,2.1801,13,0,13,0,1,,,,,,,,,,
,,260398,001,2023-07-24_20h05.23.488,arm3_eps,2022.2.5,Win32,60.0240096,5eaf3e142627076426921b1b,64aea9d0f615b6559c281482,64becb61a025de839d90a603,up,1,0.3,0.2429,-2,0,2.4762,14,0,14,0,1,,,,,,,,,,
,,260398,001,2023-07-24_20h05.23.488,arm3_eps,2022.2.5,Win32,60.0240096,5eaf3e142627076426921b1b,64aea9d0f615b6559c281482,64becb61a025de839d90a603,up,-1,0.3,0.2429,-1,0,1.8613,15,0,15,0,1,,,,,,,,,,
,,260398,001,2023-07-24_20h05.23.488,arm3_eps,2022.2.5,Win32,60.0240096,5eaf3e142627076426921b1b,64aea9d0f615b6559c281482,64becb61a025de839d90a603,down,-1,0.3,0.2429,0,0,1.6454,16,0,16,0,1,,,,,,,,,,
,,260398,001,2023-07-24_20h05.23.488,arm3_eps,2022.2.5,Win32,60.0240096,5eaf3e142627076426921b1b,64aea9d0f615b6559c281482,64becb61a025de839d90a603,down,1,0.3,0.2429,0,0,1.4526,17,0,17,0,1,,,,,,,,,,
,,260398,001,2023-07-24_20h05.23.488,arm3_eps,2022.2.5,Win32,60.0240096,5eaf3e142627076426921b1b,64aea9d0f615b6559c281482,64becb61a025de839d90a603,down,1,0.3,0.2429,-1,0,1.3154,18,0,18,0,1,,,,,,,,,,
,,260398,001,2023-07-24_20h05.23.488,arm3_eps,2022.2.5,Win32,60.0240096,5eaf3e142627076426921b1b,64aea9d0f615b6559c281482,64becb61a025de839d90a603,up,-1,0.3,0.2429,0,0,1.2014,19,0,19,0,1,,,,,,,,,,
,,260398,001,2023-07-24_20h05.23.488,arm3_eps,2022.2.5,Win32,60.0240096,5eaf3e142627076426921b1b,64aea9d0f615b6559c281482,64becb61a025de839d90a603,up,-1,0.3,0.2429,0,0,1.7933,20,0,20,0,1,,,,,,,,,,
,,260398,001,2023-07-24_20h05.23.488,arm3_eps,2022.2.5,Win32,60.0240096,5eaf3e142627076426921b1b,64aea9d0f615b6559c281482,64becb61a025de839d90a603,down,-1,0.3,0.2429,0,0,1.3002,21,0,21,0,1,,,,,,,,,,
,,260398,001,2023-07-24_20h05.23.488,arm3_eps,2022.2.5,Win32,60.0240096,5eaf3e142627076426921b1b,64aea9d0f615b6559c281482,64becb61a025de839d90a603,down,-1,0.3,0.2429,1,0,1.2185,22,0,22,0,1,,,,,,,,,,
,,260398,001,2023-07-24_20h05.23.488,arm3_eps,2022.2.5,Win32,60.0240096,5eaf3e142627076426921b1b,64aea9d0f615b6559c281482,64becb61a025de839d90a603,down,-1,0.3,0.2429,2,0,1.4986,23,0,23,0,1,,,,,,,,,,
,,260398,001,2023-07-24_20h05.23.488,arm3_eps,2022.2.5,Win32,60.0240096,5eaf3e142627076426921b1b,64aea9d0f615b6559c281482,64becb61a025de839d90a603,up,-1,0.3,0.2429,2,0,1.2657,24,0,24,0,1,,,,,,,,,,
,,260398,001,2023-07-24_20h05.23.488,arm3_eps,2022.2.5,Win32,60.0240096,5eaf3e142627076426921b1b,64aea9d0f615b6559c281482,64becb61a025de839d90a603,up,-1,0.3,0.2429,2,0,1.9703,25,0,25,0,1,,,,,,,,,,
,,260398,001,2023-07-24_20h05.23.488,arm3_eps,2022.2.5,Win32,60.0240096,5eaf3e142627076426921b1b,64aea9d0f615b6559c281482,64becb61a025de839d90a603,down,-1,0.3,0.2429,3,0,1.5744,26,0,26,0,1,,,,,,,,,,
,,260398,001,2023-07-24_20h05.23.488,arm3_eps,2022.2.5,Win32,60.0240096,5eaf3e142627076426921b1b,64aea9d0f615b6559c281482,64becb61a025de839d90a603,up,-1,0.3,0.2429,2,0,1.5086,27,0,27,0,1,,,,,,,,,,
,,260398,001,2023-07-24_20h05.23.488,arm3_eps,2022.2.5,Win32,60.0240096,5eaf3e142627076426921b1b,64aea9d0f615b6559c281482,64becb61a025de839d90a603,down,-1,0.3,0.2429,2,0,2.223,28,0,28,0,1,,,,,,,,,,
,,260398,001,2023-07-24_20h05.23.488,arm3_eps,2022.2.5,Win32,60.0240096,5eaf3e142627076426921b1b,64aea9d0f615b6559c281482,64becb61a025de839d90a603,down,-1,0.3,0.2429,2,0,1.6116,29,0,29,0,1,,,,,,,,,,
,,260398,001,2023-07-24_20h05.23.488,arm3_eps,2022.2.5,Win32,60.0240096,5eaf3e142627076426921b1b,64aea9d0f615b6559c281482,64becb61a025de839d90a603,down,-1,0.3,0.2429,2,0,1.2545,30,0,30,0,1,,,,,,,,,,
,,260398,001,2023-07-24_20h05.23.488,arm3_eps,2022.2.5,Win32,60.0240096,5eaf3e142627076426921b1b,64aea9d0f615b6559c281482,64becb61a025de839d90a603,down,-1,0.3,0.2429,2,0,1.2507,31,0,31,0,1,,,,,,,,,,
,,260398,001,2023-07-24_20h05.23.488,arm3_eps,2022.2.5,Win32,60.0240096,5eaf3e142627076426921b1b,64aea9d0f615b6559c281482,64becb61a025de839d90a603,up,-1,0.3,0.2429,2,0,1.2988,32,0,32,0,1,,,,,,,,,,
,,260398,001,2023-07-24_20h05.23.488,arm3_eps,2022.2.5,Win32,60.0240096,5eaf3e142627076426921b1b,64aea9d0f615b6559c281482,64becb61a025de839d90a603,down,-1,0.3,0.2429,3,0,1.3463,33,0,33,0,1,,,,,,,,,,
,,260398,001,2023-07-24_20h05.23.488,arm3_eps,2022.2.5,Win32,60.0240096,5eaf3e142627076426921b1b,64aea9d0f615b6559c281482,64becb61a025de839d90a603,up,-1,0.3,0.2429,3,0,1.5841,34,0,34,0,1,,,,,,,,,,
,,260398,001,2023-07-24_20h05.23.488,arm3_eps,2022.2.5,Win32,60.0240096,5eaf3e142627076426921b1b,64aea9d0f615b6559c281482,64becb61a025de839d90a603,down,-1,0.3,0.2429,3,0,1.3719,35,0,35,0,1,,,,,,,,,,
,,260398,001,2023-07-24_20h05.23.488,arm3_eps,2022.2.5,Win32,60.0240096,5eaf3e142627076426921b1b,64aea9d0f615b6559c281482,64becb61a025de839d90a603,right,-1,0.3,0.2429,3,-0.005083637,1.2694,36,0,36,0,1,,,,,,,,,,
,,260398,001,2023-07-24_20h05.23.488,arm3_eps,2022.2.5,Win32,60.0240096,5eaf3e142627076426921b1b,64aea9d0f615b6559c281482,64becb61a025de839d90a603,down,-1,0.3,0.2429,4,0,0.809,37,0,37,0,1,,,,,,,,,,
,,260398,001,2023-07-24_20h05.23.488,arm3_eps,2022.2.5,Win32,60.0240096,5eaf3e142627076426921b1b,64aea9d0f615b6559c281482,64becb61a025de839d90a603,up,-1,0.3,0.2429,3,0,1.7824,38,0,38,0,1,,,,,,,,,,
,,260398,001,2023-07-24_20h05.23.488,arm3_eps,2022.2.5,Win32,60.0240096,5eaf3e142627076426921b1b,64aea9d0f615b6559c281482,64becb61a025de839d90a603,up,-1,0.3,0.2429,3,0,1.5848,39,0,39,0,1,,,,,,,,,,
,,260398,001,2023-07-24_20h05.23.488,arm3_eps,2022.2.5,Win32,60.0240096,5eaf3e142627076426921b1b,64aea9d0f615b6559c281482,64becb61a025de839d90a603,down,-1,0.3,0.2429,4,0,1.3211,40,0,40,0,1,,,,,,,,,,
,,260398,001,2023-07-24_20h05.23.488,arm3_eps,2022.2.5,Win32,60.0240096,5eaf3e142627076426921b1b,64aea9d0f615b6559c281482,64becb61a025de839d90a603,down,-1,0.3,0.2429,4,0,1.4762,41,0,41,0,1,,,,,,,,,,
,,260398,001,2023-07-24_20h05.23.488,arm3_eps,2022.2.5,Win32,60.0240096,5eaf3e142627076426921b1b,64aea9d0f615b6559c281482,64becb61a025de839d90a603,down,-1,0.3,0.2429,5,0,1.2014,42,0,42,0,1,,,,,,,,,,
,,260398,001,2023-07-24_20h05.23.488,arm3_eps,2022.2.5,Win32,60.0240096,5eaf3e142627076426921b1b,64aea9d0f615b6559c281482,64becb61a025de839d90a603,down,-1,0.3,0.2429,5,0,1.417,43,0,43,0,1,,,,,,,,,,
,,260398,001,2023-07-24_20h05.23.488,arm3_eps,2022.2.5,Win32,60.0240096,5eaf3e142627076426921b1b,64aea9d0f615b6559c281482,64becb61a025de839d90a603,up,1,0.3,0.2429,4,0,1.2477,44,0,44,0,1,,,,,,,,,,
,,260398,001,2023-07-24_20h05.23.488,arm3_eps,2022.2.5,Win32,60.0240096,5eaf3e142627076426921b1b,64aea9d0f615b6559c281482,64becb61a025de839d90a603,up,1,0.3,0.2429,4,0,1.3884,45,0,45,0,1,,,,,,,,,,
,,260398,001,2023-07-24_20h05.23.488,arm3_eps,2022.2.5,Win32,60.0240096,5eaf3e142627076426921b1b,64aea9d0f615b6559c281482,64becb61a025de839d90a603,up,1,0.3,0.2429,4,0,1.2996,46,0,46,0,1,,,,,,,,,,
,,260398,001,2023-07-24_20h05.23.488,arm3_eps,2022.2.5,Win32,60.0240096,5eaf3e142627076426921b1b,64aea9d0f615b6559c281482,64becb61a025de839d90a603,up,-1,0.3,0.2429,4,0,1.3055,47,0,47,0,1,,,,,,,,,,
,,260398,001,2023-07-24_20h05.23.488,arm3_eps,2022.2.5,Win32,60.0240096,5eaf3e142627076426921b1b,64aea9d0f615b6559c281482,64becb61a025de839d90a603,up,-1,0.3,0.2429,4,0,1.4173,48,0,48,0,1,,,,,,,,,,
,,260398,001,2023-07-24_20h05.23.488,arm3_eps,2022.2.5,Win32,60.0240096,5eaf3e142627076426921b1b,64aea9d0f615b6559c281482,64becb61a025de839d90a603,up,-1,0.3,0.2429,4,0,1.4411,49,0,49,0,1,,,,,,,,,,
space,1.6145,260398,001,2023-07-24_20h05.23.488,arm3_eps,2022.2.5,Win32,60.0240096,5eaf3e142627076426921b1b,64aea9d0f615b6559c281482,64becb61a025de839d90a603,,,,,,,,,,,,,,,,,,,,,,
space,2.4667,260398,001,2023-07-24_20h05.23.488,arm3_eps,2022.2.5,Win32,60.0240096,5eaf3e142627076426921b1b,64aea9d0f615b6559c281482,64becb61a025de839d90a603,up,-1,0.3,0.05,-1,0,1.2708,,,,,,0,0,0,0,1,,,,,
,,260398,001,2023-07-24_20h05.23.488,arm3_eps,2022.2.5,Win32,60.0240096,5eaf3e142627076426921b1b,64aea9d0f615b6559c281482,64becb61a025de839d90a603,down,-1,0.3,0.05,-1,0,2.4784,,,,,,1,0,1,0,1,,,,,
,,260398,001,2023-07-24_20h05.23.488,arm3_eps,2022.2.5,Win32,60.0240096,5eaf3e142627076426921b1b,64aea9d0f615b6559c281482,64becb61a025de839d90a603,down,-1,0.3,0.05,0,0,1.6219,,,,,,2,0,2,0,1,,,,,
,,260398,001,2023-07-24_20h05.23.488,arm3_eps,2022.2.5,Win32,60.0240096,5eaf3e142627076426921b1b,64aea9d0f615b6559c281482,64becb61a025de839d90a603,down,-1,0.3,0.05,0,0,1.3867,,,,,,3,0,3,0,1,,,,,
,,260398,001,2023-07-24_20h05.23.488,arm3_eps,2022.2.5,Win32,60.0240096,5eaf3e142627076426921b1b,64aea9d0f615b6559c281482,64becb61a025de839d90a603,down,-1,0.3,0.05,1,0,1.7208,,,,,,4,0,4,0,1,,,,,
,,260398,001,2023-07-24_20h05.23.488,arm3_eps,2022.2.5,Win32,60.0240096,5eaf3e142627076426921b1b,64aea9d0f615b6559c281482,64becb61a025de839d90a603,down,-1,0.3,0.05,1,0,1.3884,,,,,,5,0,5,0,1,,,,,
,,260398,001,2023-07-24_20h05.23.488,arm3_eps,2022.2.5,Win32,60.0240096,5eaf3e142627076426921b1b,64aea9d0f615b6559c281482,64becb61a025de839d90a603,down,-1,0.3,0.05,1,0,1.2512,,,,,,6,0,6,0,1,,,,,
,,260398,001,2023-07-24_20h05.23.488,arm3_eps,2022.2.5,Win32,60.0240096,5eaf3e142627076426921b1b,64aea9d0f615b6559c281482,64becb61a025de839d90a603,up,-1,0.3,0.05,1,0,1.2526,,,,,,7,0,7,0,1,,,,,
,,260398,001,2023-07-24_20h05.23.488,arm3_eps,2022.2.5,Win32,60.0240096,5eaf3e142627076426921b1b,64aea9d0f615b6559c281482,64becb61a025de839d90a603,down,-1,0.3,0.05,2,0,1.2513,,,,,,8,0,8,0,1,,,,,
,,260398,001,2023-07-24_20h05.23.488,arm3_eps,2022.2.5,Win32,60.0240096,5eaf3e142627076426921b1b,64aea9d0f615b6559c281482,64becb61a025de839d90a603,up,-1,0.3,0.05,2,0,1.6369,,,,,,9,0,9,0,1,,,,,
,,260398,001,2023-07-24_20h05.23.488,arm3_eps,2022.2.5,Win32,60.0240096,5eaf3e142627076426921b1b,64aea9d0f615b6559c281482,64becb61a025de839d90a603,up,-1,0.3,0.05,2,0,1.2259,,,,,,10,0,10,0,1,,,,,
,,260398,001,2023-07-24_20h05.23.488,arm3_eps,2022.2.5,Win32,60.0240096,5eaf3e142627076426921b1b,64aea9d0f615b6559c281482,64becb61a025de839d90a603,down,-1,0.3,0.05,2,0,1.3363,,,,,,11,0,11,0,1,,,,,
,,260398,001,2023-07-24_20h05.23.488,arm3_eps,2022.2.5,Win32,60.0240096,5eaf3e142627076426921b1b,64aea9d0f615b6559c281482,64becb61a025de839d90a603,down,-1,0.3,0.05,2,0,1.4221,,,,,,12,0,12,0,1,,,,,
,,260398,001,2023-07-24_20h05.23.488,arm3_eps,2022.2.5,Win32,60.0240096,5eaf3e142627076426921b1b,64aea9d0f615b6559c281482,64becb61a025de839d90a603,down,-1,0.3,0.05,2,0,1.5055,,,,,,13,0,13,0,1,,,,,
,,260398,001,2023-07-24_20h05.23.488,arm3_eps,2022.2.5,Win32,60.0240096,5eaf3e142627076426921b1b,64aea9d0f615b6559c281482,64becb61a025de839d90a603,up,-1,0.3,0.05,2,0,1.285,,,,,,14,0,14,0,1,,,,,
,,260398,001,2023-07-24_20h05.23.488,arm3_eps,2022.2.5,Win32,60.0240096,5eaf3e142627076426921b1b,64aea9d0f615b6559c281482,64becb61a025de839d90a603,down,-1,0.3,0.05,3,0,1.2406,,,,,,15,0,15,0,1,,,,,
,,260398,001,2023-07-24_20h05.23.488,arm3_eps,2022.2.5,Win32,60.0240096,5eaf3e142627076426921b1b,64aea9d0f615b6559c281482,64becb61a025de839d90a603,down,-1,0.3,0.05,3,0,1.6248,,,,,,16,0,16,0,1,,,,,
,,260398,001,2023-07-24_20h05.23.488,arm3_eps,2022.2.5,Win32,60.0240096,5eaf3e142627076426921b1b,64aea9d0f615b6559c281482,64becb61a025de839d90a603,down,-1,0.3,0.05,3,0,1.3013,,,,,,17,0,17,0,1,,,,,
,,260398,001,2023-07-24_20h05.23.488,arm3_eps,2022.2.5,Win32,60.0240096,5eaf3e142627076426921b1b,64aea9d0f615b6559c281482,64becb61a025de839d90a603,down,-1,0.3,0.05,3,0,1.3448,,,,,,18,0,18,0,1,,,,,
,,260398,001,2023-07-24_20h05.23.488,arm3_eps,2022.2.5,Win32,60.0240096,5eaf3e142627076426921b1b,64aea9d0f615b6559c281482,64becb61a025de839d90a603,up,-1,0.3,0.05,3,0,1.2821,,,,,,19,0,19,0,1,,,,,
,,260398,001,2023-07-24_20h05.23.488,arm3_eps,2022.2.5,Win32,60.0240096,5eaf3e142627076426921b1b,64aea9d0f615b6559c281482,64becb61a025de839d90a603,down,-1,0.3,0.05,3,0,1.303,,,,,,20,0,20,0,1,,,,,
,,260398,001,2023-07-24_20h05.23.488,arm3_eps,2022.2.5,Win32,60.0240096,5eaf3e142627076426921b1b,64aea9d0f615b6559c281482,64becb61a025de839d90a603,down,-1,0.3,0.05,4,0,1.5845,,,,,,21,0,21,0,1,,,,,
,,260398,001,2023-07-24_20h05.23.488,arm3_eps,2022.2.5,Win32,60.0240096,5eaf3e142627076426921b1b,64aea9d0f615b6559c281482,64becb61a025de839d90a603,down,-1,0.3,0.05,4,0,1.2822,,,,,,22,0,22,0,1,,,,,
,,260398,001,2023-07-24_20h05.23.488,arm3_eps,2022.2.5,Win32,60.0240096,5eaf3e142627076426921b1b,64aea9d0f615b6559c281482,64becb61a025de839d90a603,right,-1,0.3,0.05,4,-0.00175501,1.863,,,,,,23,0,23,0,1,,,,,
,,260398,001,2023-07-24_20h05.23.488,arm3_eps,2022.2.5,Win32,60.0240096,5eaf3e142627076426921b1b,64aea9d0f615b6559c281482,64becb61a025de839d90a603,down,1,0.3,0.05,5,0,0.8057,,,,,,24,0,24,0,1,,,,,
,,260398,001,2023-07-24_20h05.23.488,arm3_eps,2022.2.5,Win32,60.0240096,5eaf3e142627076426921b1b,64aea9d0f615b6559c281482,64becb61a025de839d90a603,up,1,0.3,0.05,5,0,3.1708,,,,,,25,0,25,0,1,,,,,
,,260398,001,2023-07-24_20h05.23.488,arm3_eps,2022.2.5,Win32,60.0240096,5eaf3e142627076426921b1b,64aea9d0f615b6559c281482,64becb61a025de839d90a603,up,1,0.3,0.05,5,0,1.6067,,,,,,26,0,26,0,1,,,,,
,,260398,001,2023-07-24_20h05.23.488,arm3_eps,2022.2.5,Win32,60.0240096,5eaf3e142627076426921b1b,64aea9d0f615b6559c281482,64becb61a025de839d90a603,down,1,0.3,0.05,5,0,1.354,,,,,,27,0,27,0,1,,,,,
,,260398,001,2023-07-24_20h05.23.488,arm3_eps,2022.2.5,Win32,60.0240096,5eaf3e142627076426921b1b,64aea9d0f615b6559c281482,64becb61a025de839d90a603,right,1,0.3,0.05,5,-0.001262365,2.7975,,,,,,28,0,28,0,1,,,,,
,,260398,001,2023-07-24_20h05.23.488,arm3_eps,2022.2.5,Win32,60.0240096,5eaf3e142627076426921b1b,64aea9d0f615b6559c281482,64becb61a025de839d90a603,up,1,0.3,0.05,5,0,0.8159,,,,,,29,0,29,0,1,,,,,
,,260398,001,2023-07-24_20h05.23.488,arm3_eps,2022.2.5,Win32,60.0240096,5eaf3e142627076426921b1b,64aea9d0f615b6559c281482,64becb61a025de839d90a603,up,1,0.3,0.05,6,0,3.8341,,,,,,30,0,30,0,1,,,,,
,,260398,001,2023-07-24_20h05.23.488,arm3_eps,2022.2.5,Win32,60.0240096,5eaf3e142627076426921b1b,64aea9d0f615b6559c281482,64becb61a025de839d90a603,down,1,0.3,0.05,6,0,1.5808,,,,,,31,0,31,0,1,,,,,
,,260398,001,2023-07-24_20h05.23.488,arm3_eps,2022.2.5,Win32,60.0240096,5eaf3e142627076426921b1b,64aea9d0f615b6559c281482,64becb61a025de839d90a603,up,1,0.3,0.05,7,0,1.3663,,,,,,32,0,32,0,1,,,,,
,,260398,001,2023-07-24_20h05.23.488,arm3_eps,2022.2.5,Win32,60.0240096,5eaf3e142627076426921b1b,64aea9d0f615b6559c281482,64becb61a025de839d90a603,down,1,0.3,0.05,7,0,1.5211,,,,,,33,0,33,0,1,,,,,
,,260398,001,2023-07-24_20h05.23.488,arm3_eps,2022.2.5,Win32,60.0240096,5eaf3e142627076426921b1b,64aea9d0f615b6559c281482,64becb61a025de839d90a603,down,1,0.3,0.05,7,0,1.2903,,,,,,34,0,34,0,1,,,,,
,,260398,001,2023-07-24_20h05.23.488,arm3_eps,2022.2.5,Win32,60.0240096,5eaf3e142627076426921b1b,64aea9d0f615b6559c281482,64becb61a025de839d90a603,up,1,0.3,0.05,7,0,1.5127,,,,,,35,0,35,0,1,,,,,
,,260398,001,2023-07-24_20h05.23.488,arm3_eps,2022.2.5,Win32,60.0240096,5eaf3e142627076426921b1b,64aea9d0f615b6559c281482,64becb61a025de839d90a603,right,1,0.3,0.05,7,0.000488257,3.7539,,,,,,36,0,36,0,1,,,,,
,,260398,001,2023-07-24_20h05.23.488,arm3_eps,2022.2.5,Win32,60.0240096,5eaf3e142627076426921b1b,64aea9d0f615b6559c281482,64becb61a025de839d90a603,up,-1,0.3,0.05,7,0,0.601,,,,,,37,0,37,0,1,,,,,
,,260398,001,2023-07-24_20h05.23.488,arm3_eps,2022.2.5,Win32,60.0240096,5eaf3e142627076426921b1b,64aea9d0f615b6559c281482,64becb61a025de839d90a603,up,-1,0.3,0.05,7,0,1.2685,,,,,,38,0,38,0,1,,,,,
,,260398,001,2023-07-24_20h05.23.488,arm3_eps,2022.2.5,Win32,60.0240096,5eaf3e142627076426921b1b,64aea9d0f615b6559c281482,64becb61a025de839d90a603,up,-1,0.3,0.05,7,0,1.2648,,,,,,39,0,39,0,1,,,,,
,,260398,001,2023-07-24_20h05.23.488,arm3_eps,2022.2.5,Win32,60.0240096,5eaf3e142627076426921b1b,64aea9d0f615b6559c281482,64becb61a025de839d90a603,down,-1,0.3,0.05,7,0,1.5082,,,,,,40,0,40,0,1,,,,,
,,260398,001,2023-07-24_20h05.23.488,arm3_eps,2022.2.5,Win32,60.0240096,5eaf3e142627076426921b1b,64aea9d0f615b6559c281482,64becb61a025de839d90a603,down,-1,0.3,0.05,7,0,6.6307,,,,,,41,0,41,0,1,,,,,
,,260398,001,2023-07-24_20h05.23.488,arm3_eps,2022.2.5,Win32,60.0240096,5eaf3e142627076426921b1b,64aea9d0f615b6559c281482,64becb61a025de839d90a603,down,-1,0.3,0.05,8,0,2.0591,,,,,,42,0,42,0,1,,,,,
,,260398,001,2023-07-24_20h05.23.488,arm3_eps,2022.2.5,Win32,60.0240096,5eaf3e142627076426921b1b,64aea9d0f615b6559c281482,64becb61a025de839d90a603,up,-1,0.3,0.05,8,0,3.1551,,,,,,43,0,43,0,1,,,,,
,,260398,001,2023-07-24_20h05.23.488,arm3_eps,2022.2.5,Win32,60.0240096,5eaf3e142627076426921b1b,64aea9d0f615b6559c281482,64becb61a025de839d90a603,up,-1,0.3,0.05,7,0,1.5034,,,,,,44,0,44,0,1,,,,,
,,260398,001,2023-07-24_20h05.23.488,arm3_eps,2022.2.5,Win32,60.0240096,5eaf3e142627076426921b1b,64aea9d0f615b6559c281482,64becb61a025de839d90a603,down,-1,0.3,0.05,8,0,1.2454,,,,,,45,0,45,0,1,,,,,
,,260398,001,2023-07-24_20h05.23.488,arm3_eps,2022.2.5,Win32,60.0240096,5eaf3e142627076426921b1b,64aea9d0f615b6559c281482,64becb61a025de839d90a603,down,-1,0.3,0.05,8,0,1.1967,,,,,,46,0,46,0,1,,,,,
,,260398,001,2023-07-24_20h05.23.488,arm3_eps,2022.2.5,Win32,60.0240096,5eaf3e142627076426921b1b,64aea9d0f615b6559c281482,64becb61a025de839d90a603,right,-1,0.3,0.05,8,-0.000837666,2.2603,,,,,,47,0,47,0,1,,,,,
,,260398,001,2023-07-24_20h05.23.488,arm3_eps,2022.2.5,Win32,60.0240096,5eaf3e142627076426921b1b,64aea9d0f615b6559c281482,64becb61a025de839d90a603,down,-1,0.3,0.05,8,0,0.5674,,,,,,48,0,48,0,1,,,,,
,,260398,001,2023-07-24_20h05.23.488,arm3_eps,2022.2.5,Win32,60.0240096,5eaf3e142627076426921b1b,64aea9d0f615b6559c281482,64becb61a025de839d90a603,down,-1,0.3,0.05,8,0,1.272,,,,,,49,0,49,0,1,,,,,
,,260398,001,2023-07-24_20h05.23.488,arm3_eps,2022.2.5,Win32,60.0240096,5eaf3e142627076426921b1b,64aea9d0f615b6559c281482,64becb61a025de839d90a603,up,-1,0.3,0.05,8,0,1.7184,,,,,,50,0,50,0,1,,,,,
,,260398,001,2023-07-24_20h05.23.488,arm3_eps,2022.2.5,Win32,60.0240096,5eaf3e142627076426921b1b,64aea9d0f615b6559c281482,64becb61a025de839d90a603,up,-1,0.3,0.05,8,0,1.1628,,,,,,51,0,51,0,1,,,,,
,,260398,001,2023-07-24_20h05.23.488,arm3_eps,2022.2.5,Win32,60.0240096,5eaf3e142627076426921b1b,64aea9d0f615b6559c281482,64becb61a025de839d90a603,down,-1,0.3,0.05,9,0,1.9692,,,,,,52,0,52,0,1,,,,,
,,260398,001,2023-07-24_20h05.23.488,arm3_eps,2022.2.5,Win32,60.0240096,5eaf3e142627076426921b1b,64aea9d0f615b6559c281482,64becb61a025de839d90a603,down,-1,0.3,0.05,9,0,1.5987,,,,,,53,0,53,0,1,,,,,
,,260398,001,2023-07-24_20h05.23.488,arm3_eps,2022.2.5,Win32,60.0240096,5eaf3e142627076426921b1b,64aea9d0f615b6559c281482,64becb61a025de839d90a603,down,-1,0.3,0.05,9,0,2.1056,,,,,,54,0,54,0,1,,,,,
,,260398,001,2023-07-24_20h05.23.488,arm3_eps,2022.2.5,Win32,60.0240096,5eaf3e142627076426921b1b,64aea9d0f615b6559c281482,64becb61a025de839d90a603,down,-1,0.3,0.05,9,0,1.6363,,,,,,55,0,55,0,1,,,,,
,,260398,001,2023-07-24_20h05.23.488,arm3_eps,2022.2.5,Win32,60.0240096,5eaf3e142627076426921b1b,64aea9d0f615b6559c281482,64becb61a025de839d90a603,up,-1,0.3,0.05,9,0,1.5027,,,,,,56,0,56,0,1,,,,,
,,260398,001,2023-07-24_20h05.23.488,arm3_eps,2022.2.5,Win32,60.0240096,5eaf3e142627076426921b1b,64aea9d0f615b6559c281482,64becb61a025de839d90a603,down,-1,0.3,0.05,9,0,1.3654,,,,,,57,0,57,0,1,,,,,
,,260398,001,2023-07-24_20h05.23.488,arm3_eps,2022.2.5,Win32,60.0240096,5eaf3e142627076426921b1b,64aea9d0f615b6559c281482,64becb61a025de839d90a603,up,-1,0.3,0.05,9,0,1.9109,,,,,,58,0,58,0,1,,,,,
,,260398,001,2023-07-24_20h05.23.488,arm3_eps,2022.2.5,Win32,60.0240096,5eaf3e142627076426921b1b,64aea9d0f615b6559c281482,64becb61a025de839d90a603,down,-1,0.3,0.05,9,0,1.6626,,,,,,59,0,59,0,1,,,,,
,,260398,001,2023-07-24_20h05.23.488,arm3_eps,2022.2.5,Win32,60.0240096,5eaf3e142627076426921b1b,64aea9d0f615b6559c281482,64becb61a025de839d90a603,down,-1,0.3,0.05,9,0,1.2074,,,,,,60,0,60,0,1,,,,,
,,260398,001,2023-07-24_20h05.23.488,arm3_eps,2022.2.5,Win32,60.0240096,5eaf3e142627076426921b1b,64aea9d0f615b6559c281482,64becb61a025de839d90a603,down,-1,0.3,0.05,9,0,1.266,,,,,,61,0,61,0,1,,,,,
,,260398,001,2023-07-24_20h05.23.488,arm3_eps,2022.2.5,Win32,60.0240096,5eaf3e142627076426921b1b,64aea9d0f615b6559c281482,64becb61a025de839d90a603,down,-1,0.3,0.05,10,0,1.3229,,,,,,62,0,62,0,1,,,,,
,,260398,001,2023-07-24_20h05.23.488,arm3_eps,2022.2.5,Win32,60.0240096,5eaf3e142627076426921b1b,64aea9d0f615b6559c281482,64becb61a025de839d90a603,down,-1,0.3,0.05,10,0,1.1125,,,,,,63,0,63,0,1,,,,,
,,260398,001,2023-07-24_20h05.23.488,arm3_eps,2022.2.5,Win32,60.0240096,5eaf3e142627076426921b1b,64aea9d0f615b6559c281482,64becb61a025de839d90a603,down,-1,0.3,0.05,10,0,1.1945,,,,,,64,0,64,0,1,,,,,
,,260398,001,2023-07-24_20h05.23.488,arm3_eps,2022.2.5,Win32,60.0240096,5eaf3e142627076426921b1b,64aea9d0f615b6559c281482,64becb61a025de839d90a603,down,-1,0.3,0.05,11,0,1.5213,,,,,,65,0,65,0,1,,,,,
,,260398,001,2023-07-24_20h05.23.488,arm3_eps,2022.2.5,Win32,60.0240096,5eaf3e142627076426921b1b,64aea9d0f615b6559c281482,64becb61a025de839d90a603,down,-1,0.3,0.05,11,0,1.741,,,,,,66,0,66,0,1,,,,,
,,260398,001,2023-07-24_20h05.23.488,arm3_eps,2022.2.5,Win32,60.0240096,5eaf3e142627076426921b1b,64aea9d0f615b6559c281482,64becb61a025de839d90a603,down,-1,0.3,0.05,11,0,1.2052,,,,,,67,0,67,0,1,,,,,
,,260398,001,2023-07-24_20h05.23.488,arm3_eps,2022.2.5,Win32,60.0240096,5eaf3e142627076426921b1b,64aea9d0f615b6559c281482,64becb61a025de839d90a603,down,-1,0.3,0.05,11,0,1.1925,,,,,,68,0,68,0,1,,,,,
,,260398,001,2023-07-24_20h05.23.488,arm3_eps,2022.2.5,Win32,60.0240096,5eaf3e142627076426921b1b,64aea9d0f615b6559c281482,64becb61a025de839d90a603,down,-1,0.3,0.05,11,0,1.104,,,,,,69,0,69,0,1,,,,,
,,260398,001,2023-07-24_20h05.23.488,arm3_eps,2022.2.5,Win32,60.0240096,5eaf3e142627076426921b1b,64aea9d0f615b6559c281482,64becb61a025de839d90a603,down,-1,0.3,0.05,11,0,1.1953,,,,,,70,0,70,0,1,,,,,
,,260398,001,2023-07-24_20h05.23.488,arm3_eps,2022.2.5,Win32,60.0240096,5eaf3e142627076426921b1b,64aea9d0f615b6559c281482,64becb61a025de839d90a603,down,-1,0.3,0.05,12,0,1.2162,,,,,,71,0,71,0,1,,,,,
,,260398,001,2023-07-24_20h05.23.488,arm3_eps,2022.2.5,Win32,60.0240096,5eaf3e142627076426921b1b,64aea9d0f615b6559c281482,64becb61a025de839d90a603,up,-1,0.3,0.05,11,0,1.2488,,,,,,72,0,72,0,1,,,,,
,,260398,001,2023-07-24_20h05.23.488,arm3_eps,2022.2.5,Win32,60.0240096,5eaf3e142627076426921b1b,64aea9d0f615b6559c281482,64becb61a025de839d90a603,up,-1,0.3,0.05,11,0,2.8677,,,,,,73,0,73,0,1,,,,,
,,260398,001,2023-07-24_20h05.23.488,arm3_eps,2022.2.5,Win32,60.0240096,5eaf3e142627076426921b1b,64aea9d0f615b6559c281482,64becb61a025de839d90a603,up,-1,0.3,0.05,10,0,3.8401,,,,,,74,0,74,0,1,,,,,
,,260398,001,2023-07-24_20h05.23.488,arm3_eps,2022.2.5,Win32,60.0240096,5eaf3e142627076426921b1b,64aea9d0f615b6559c281482,64becb61a025de839d90a603,down,-1,0.3,0.05,10,0,1.6074,,,,,,75,0,75,0,1,,,,,
,,260398,001,2023-07-24_20h05.23.488,arm3_eps,2022.2.5,Win32,60.0240096,5eaf3e142627076426921b1b,64aea9d0f615b6559c281482,64becb61a025de839d90a603,up,-1,0.3,0.05,10,0,2.1915,,,,,,76,0,76,0,1,,,,,
,,260398,001,2023-07-24_20h05.23.488,arm3_eps,2022.2.5,Win32,60.0240096,5eaf3e142627076426921b1b,64aea9d0f615b6559c281482,64becb61a025de839d90a603,up,-1,0.3,0.05,10,0,2.9823,,,,,,77,0,77,0,1,,,,,
,,260398,001,2023-07-24_20h05.23.488,arm3_eps,2022.2.5,Win32,60.0240096,5eaf3e142627076426921b1b,64aea9d0f615b6559c281482,64becb61a025de839d90a603,up,-1,0.3,0.05,9,0,1.9844,,,,,,78,0,78,0,1,,,,,
,,260398,001,2023-07-24_20h05.23.488,arm3_eps,2022.2.5,Win32,60.0240096,5eaf3e142627076426921b1b,64aea9d0f615b6559c281482,64becb61a025de839d90a603,up,-1,0.3,0.05,9,0,1.1509,,,,,,79,0,79,0,1,,,,,
,,260398,001,2023-07-24_20h05.23.488,arm3_eps,2022.2.5,Win32,60.0240096,5eaf3e142627076426921b1b,64aea9d0f615b6559c281482,64becb61a025de839d90a603,down,-1,0.3,0.05,9,0,1.2076,,,,,,80,0,80,0,1,,,,,
,,260398,001,2023-07-24_20h05.23.488,arm3_eps,2022.2.5,Win32,60.0240096,5eaf3e142627076426921b1b,64aea9d0f615b6559c281482,64becb61a025de839d90a603,down,-1,0.3,0.05,10,0,1.1103,,,,,,81,0,81,0,1,,,,,
,,260398,001,2023-07-24_20h05.23.488,arm3_eps,2022.2.5,Win32,60.0240096,5eaf3e142627076426921b1b,64aea9d0f615b6559c281482,64becb61a025de839d90a603,down,-1,0.3,0.05,10,0,1.5289,,,,,,82,0,82,0,1,,,,,
,,260398,001,2023-07-24_20h05.23.488,arm3_eps,2022.2.5,Win32,60.0240096,5eaf3e142627076426921b1b,64aea9d0f615b6559c281482,64becb61a025de839d90a603,down,-1,0.3,0.05,10,0,2.4007,,,,,,83,0,83,0,1,,,,,
,,260398,001,2023-07-24_20h05.23.488,arm3_eps,2022.2.5,Win32,60.0240096,5eaf3e142627076426921b1b,64aea9d0f615b6559c281482,64becb61a025de839d90a603,up,-1,0.3,0.05,9,0,1.4665,,,,,,84,0,84,0,1,,,,,
,,260398,001,2023-07-24_20h05.23.488,arm3_eps,2022.2.5,Win32,60.0240096,5eaf3e142627076426921b1b,64aea9d0f615b6559c281482,64becb61a025de839d90a603,down,-1,0.3,0.05,9,0,1.6054,,,,,,85,0,85,0,1,,,,,
,,260398,001,2023-07-24_20h05.23.488,arm3_eps,2022.2.5,Win32,60.0240096,5eaf3e142627076426921b1b,64aea9d0f615b6559c281482,64becb61a025de839d90a603,down,-1,0.3,0.05,10,0,1.4398,,,,,,86,0,86,0,1,,,,,
,,260398,001,2023-07-24_20h05.23.488,arm3_eps,2022.2.5,Win32,60.0240096,5eaf3e142627076426921b1b,64aea9d0f615b6559c281482,64becb61a025de839d90a603,down,-1,0.3,0.05,10,0,2.9338,,,,,,87,0,87,0,1,,,,,
,,260398,001,2023-07-24_20h05.23.488,arm3_eps,2022.2.5,Win32,60.0240096,5eaf3e142627076426921b1b,64aea9d0f615b6559c281482,64becb61a025de839d90a603,up,-1,0.3,0.05,10,0,1.2367,,,,,,88,0,88,0,1,,,,,
,,260398,001,2023-07-24_20h05.23.488,arm3_eps,2022.2.5,Win32,60.0240096,5eaf3e142627076426921b1b,64aea9d0f615b6559c281482,64becb61a025de839d90a603,down,-1,0.3,0.05,11,0,1.2677,,,,,,89,0,89,0,1,,,,,
,,260398,001,2023-07-24_20h05.23.488,arm3_eps,2022.2.5,Win32,60.0240096,5eaf3e142627076426921b1b,64aea9d0f615b6559c281482,64becb61a025de839d90a603,down,-1,0.3,0.05,11,0,2.7859,,,,,,90,0,90,0,1,,,,,
,,260398,001,2023-07-24_20h05.23.488,arm3_eps,2022.2.5,Win32,60.0240096,5eaf3e142627076426921b1b,64aea9d0f615b6559c281482,64becb61a025de839d90a603,down,1,0.3,0.05,12,0,1.3283,,,,,,91,0,91,0,1,,,,,
,,260398,001,2023-07-24_20h05.23.488,arm3_eps,2022.2.5,Win32,60.0240096,5eaf3e142627076426921b1b,64aea9d0f615b6559c281482,64becb61a025de839d90a603,down,-1,0.3,0.05,12,0,2.6979,,,,,,92,0,92,0,1,,,,,
,,260398,001,2023-07-24_20h05.23.488,arm3_eps,2022.2.5,Win32,60.0240096,5eaf3e142627076426921b1b,64aea9d0f615b6559c281482,64becb61a025de839d90a603,down,-1,0.3,0.05,13,0,2.9805,,,,,,93,0,93,0,1,,,,,
,,260398,001,2023-07-24_20h05.23.488,arm3_eps,2022.2.5,Win32,60.0240096,5eaf3e142627076426921b1b,64aea9d0f615b6559c281482,64becb61a025de839d90a603,down,-1,0.3,0.05,13,0,2.9111,,,,,,94,0,94,0,1,,,,,
,,260398,001,2023-07-24_20h05.23.488,arm3_eps,2022.2.5,Win32,60.0240096,5eaf3e142627076426921b1b,64aea9d0f615b6559c281482,64becb61a025de839d90a603,down,-1,0.3,0.05,13,0,2.2393,,,,,,95,0,95,0,1,,,,,
,,260398,001,2023-07-24_20h05.23.488,arm3_eps,2022.2.5,Win32,60.0240096,5eaf3e142627076426921b1b,64aea9d0f615b6559c281482,64becb61a025de839d90a603,up,-1,0.3,0.05,13,0,1.3836,,,,,,96,0,96,0,1,,,,,
,,260398,001,2023-07-24_20h05.23.488,arm3_eps,2022.2.5,Win32,60.0240096,5eaf3e142627076426921b1b,64aea9d0f615b6559c281482,64becb61a025de839d90a603,up,-1,0.3,0.05,13,0,2.4566,,,,,,97,0,97,0,1,,,,,
,,260398,001,2023-07-24_20h05.23.488,arm3_eps,2022.2.5,Win32,60.0240096,5eaf3e142627076426921b1b,64aea9d0f615b6559c281482,64becb61a025de839d90a603,up,-1,0.3,0.05,13,0,3.9075,,,,,,98,0,98,0,1,,,,,
,,260398,001,2023-07-24_20h05.23.488,arm3_eps,2022.2.5,Win32,60.0240096,5eaf3e142627076426921b1b,64aea9d0f615b6559c281482,64becb61a025de839d90a603,down,-1,0.3,0.05,14,0,1.7828,,,,,,99,0,99,0,1,,,,,
,,260398,001,2023-07-24_20h05.23.488,arm3_eps,2022.2.5,Win32,60.0240096,5eaf3e142627076426921b1b,64aea9d0f615b6559c281482,64becb61a025de839d90a603,down,-1,0.3,0.05,14,0,1.5537,,,,,,100,0,100,0,1,,,,,
,,260398,001,2023-07-24_20h05.23.488,arm3_eps,2022.2.5,Win32,60.0240096,5eaf3e142627076426921b1b,64aea9d0f615b6559c281482,64becb61a025de839d90a603,up,-1,0.3,0.05,14,0,1.6653,,,,,,101,0,101,0,1,,,,,
,,260398,001,2023-07-24_20h05.23.488,arm3_eps,2022.2.5,Win32,60.0240096,5eaf3e142627076426921b1b,64aea9d0f615b6559c281482,64becb61a025de839d90a603,right,-1,0.3,0.05,14,0.000860456,1.6997,,,,,,102,0,102,0,1,,,,,
,,260398,001,2023-07-24_20h05.23.488,arm3_eps,2022.2.5,Win32,60.0240096,5eaf3e142627076426921b1b,64aea9d0f615b6559c281482,64becb61a025de839d90a603,down,-1,0.3,0.05,14,0,0.6367,,,,,,103,0,103,0,1,,,,,
,,260398,001,2023-07-24_20h05.23.488,arm3_eps,2022.2.5,Win32,60.0240096,5eaf3e142627076426921b1b,64aea9d0f615b6559c281482,64becb61a025de839d90a603,down,-1,0.3,0.05,14,0,1.2856,,,,,,104,0,104,0,1,,,,,
,,260398,001,2023-07-24_20h05.23.488,arm3_eps,2022.2.5,Win32,60.0240096,5eaf3e142627076426921b1b,64aea9d0f615b6559c281482,64becb61a025de839d90a603,down,-1,0.3,0.05,15,0,1.2597,,,,,,105,0,105,0,1,,,,,
,,260398,001,2023-07-24_20h05.23.488,arm3_eps,2022.2.5,Win32,60.0240096,5eaf3e142627076426921b1b,64aea9d0f615b6559c281482,64becb61a025de839d90a603,up,-1,0.3,0.05,14,0,2.4813,,,,,,106,0,106,0,1,,,,,
,,260398,001,2023-07-24_20h05.23.488,arm3_eps,2022.2.5,Win32,60.0240096,5eaf3e142627076426921b1b,64aea9d0f615b6559c281482,64becb61a025de839d90a603,down,-1,0.3,0.05,15,0,1.2683,,,,,,107,0,107,0,1,,,,,
,,260398,001,2023-07-24_20h05.23.488,arm3_eps,2022.2.5,Win32,60.0240096,5eaf3e142627076426921b1b,64aea9d0f615b6559c281482,64becb61a025de839d90a603,down,-1,0.3,0.05,16,0,1.3792,,,,,,108,0,108,0,1,,,,,
,,260398,001,2023-07-24_20h05.23.488,arm3_eps,2022.2.5,Win32,60.0240096,5eaf3e142627076426921b1b,64aea9d0f615b6559c281482,64becb61a025de839d90a603,down,-1,0.3,0.05,16,0,1.5815,,,,,,109,0,109,0,1,,,,,
,,260398,001,2023-07-24_20h05.23.488,arm3_eps,2022.2.5,Win32,60.0240096,5eaf3e142627076426921b1b,64aea9d0f615b6559c281482,64becb61a025de839d90a603,down,-1,0.3,0.05,16,0,1.4172,,,,,,110,0,110,0,1,,,,,
,,260398,001,2023-07-24_20h05.23.488,arm3_eps,2022.2.5,Win32,60.0240096,5eaf3e142627076426921b1b,64aea9d0f615b6559c281482,64becb61a025de839d90a603,up,-1,0.3,0.05,16,0,1.176,,,,,,111,0,111,0,1,,,,,
,,260398,001,2023-07-24_20h05.23.488,arm3_eps,2022.2.5,Win32,60.0240096,5eaf3e142627076426921b1b,64aea9d0f615b6559c281482,64becb61a025de839d90a603,down,-1,0.3,0.05,17,0,1.252,,,,,,112,0,112,0,1,,,,,
,,260398,001,2023-07-24_20h05.23.488,arm3_eps,2022.2.5,Win32,60.0240096,5eaf3e142627076426921b1b,64aea9d0f615b6559c281482,64becb61a025de839d90a603,down,-1,0.3,0.05,17,0,1.2732,,,,,,113,0,113,0,1,,,,,
,,260398,001,2023-07-24_20h05.23.488,arm3_eps,2022.2.5,Win32,60.0240096,5eaf3e142627076426921b1b,64aea9d0f615b6559c281482,64becb61a025de839d90a603,up,-1,0.3,0.05,17,0,1.2034,,,,,,114,0,114,0,1,,,,,
,,260398,001,2023-07-24_20h05.23.488,arm3_eps,2022.2.5,Win32,60.0240096,5eaf3e142627076426921b1b,64aea9d0f615b6559c281482,64becb61a025de839d90a603,down,-1,0.3,0.05,18,0,1.1547,,,,,,115,0,115,0,1,,,,,
,,260398,001,2023-07-24_20h05.23.488,arm3_eps,2022.2.5,Win32,60.0240096,5eaf3e142627076426921b1b,64aea9d0f615b6559c281482,64becb61a025de839d90a603,up,-1,0.3,0.05,18,0,1.1706,,,,,,116,0,116,0,1,,,,,
,,260398,001,2023-07-24_20h05.23.488,arm3_eps,2022.2.5,Win32,60.0240096,5eaf3e142627076426921b1b,64aea9d0f615b6559c281482,64becb61a025de839d90a603,up,-1,0.3,0.05,18,0,1.5836,,,,,,117,0,117,0,1,,,,,
,,260398,001,2023-07-24_20h05.23.488,arm3_eps,2022.2.5,Win32,60.0240096,5eaf3e142627076426921b1b,64aea9d0f615b6559c281482,64becb61a025de839d90a603,up,-1,0.3,0.05,18,0,1.4835,,,,,,118,0,118,0,1,,,,,
,,260398,001,2023-07-24_20h05.23.488,arm3_eps,2022.2.5,Win32,60.0240096,5eaf3e142627076426921b1b,64aea9d0f615b6559c281482,64becb61a025de839d90a603,down,-1,0.3,0.05,18,0,4.1996,,,,,,119,0,119,0,1,,,,,
,,260398,001,2023-07-24_20h05.23.488,arm3_eps,2022.2.5,Win32,60.0240096,5eaf3e142627076426921b1b,64aea9d0f615b6559c281482,64becb61a025de839d90a603,down,-1,0.3,0.05,18,0,1.1187,,,,,,120,0,120,0,1,,,,,
,,260398,001,2023-07-24_20h05.23.488,arm3_eps,2022.2.5,Win32,60.0240096,5eaf3e142627076426921b1b,64aea9d0f615b6559c281482,64becb61a025de839d90a603,down,-1,0.3,0.05,18,0,1.4995,,,,,,121,0,121,0,1,,,,,
,,260398,001,2023-07-24_20h05.23.488,arm3_eps,2022.2.5,Win32,60.0240096,5eaf3e142627076426921b1b,64aea9d0f615b6559c281482,64becb61a025de839d90a603,up,-1,0.3,0.05,18,0,1.3734,,,,,,122,0,122,0,1,,,,,
,,260398,001,2023-07-24_20h05.23.488,arm3_eps,2022.2.5,Win32,60.0240096,5eaf3e142627076426921b1b,64aea9d0f615b6559c281482,64becb61a025de839d90a603,down,-1,0.3,0.05,18,0,1.1823,,,,,,123,0,123,0,1,,,,,
,,260398,001,2023-07-24_20h05.23.488,arm3_eps,2022.2.5,Win32,60.0240096,5eaf3e142627076426921b1b,64aea9d0f615b6559c281482,64becb61a025de839d90a603,down,-1,0.3,0.05,18,0,1.2171,,,,,,124,0,124,0,1,,,,,
,,260398,001,2023-07-24_20h05.23.488,arm3_eps,2022.2.5,Win32,60.0240096,5eaf3e142627076426921b1b,64aea9d0f615b6559c281482,64becb61a025de839d90a603,down,-1,0.3,0.05,19,0,1.0685,,,,,,125,0,125,0,1,,,,,
,,260398,001,2023-07-24_20h05.23.488,arm3_eps,2022.2.5,Win32,60.0240096,5eaf3e142627076426921b1b,64aea9d0f615b6559c281482,64becb61a025de839d90a603,up,-1,0.3,0.05,19,0,1.2178,,,,,,126,0,126,0,1,,,,,
,,260398,001,2023-07-24_20h05.23.488,arm3_eps,2022.2.5,Win32,60.0240096,5eaf3e142627076426921b1b,64aea9d0f615b6559c281482,64becb61a025de839d90a603,down,-1,0.3,0.05,20,0,1.0817,,,,,,127,0,127,0,1,,,,,
,,260398,001,2023-07-24_20h05.23.488,arm3_eps,2022.2.5,Win32,60.0240096,5eaf3e142627076426921b1b,64aea9d0f615b6559c281482,64becb61a025de839d90a603,down,-1,0.3,0.05,20,0,2.2592,,,,,,128,0,128,0,1,,,,,
,,260398,001,2023-07-24_20h05.23.488,arm3_eps,2022.2.5,Win32,60.0240096,5eaf3e142627076426921b1b,64aea9d0f615b6559c281482,64becb61a025de839d90a603,up,-1,0.3,0.05,20,0,1.1714,,,,,,129,0,129,0,1,,,,,
,,260398,001,2023-07-24_20h05.23.488,arm3_eps,2022.2.5,Win32,60.0240096,5eaf3e142627076426921b1b,64aea9d0f615b6559c281482,64becb61a025de839d90a603,up,-1,0.3,0.05,19,0,1.578,,,,,,130,0,130,0,1,,,,,
,,260398,001,2023-07-24_20h05.23.488,arm3_eps,2022.2.5,Win32,60.0240096,5eaf3e142627076426921b1b,64aea9d0f615b6559c281482,64becb61a025de839d90a603,down,-1,0.3,0.05,19,0,1.7139,,,,,,131,0,131,0,1,,,,,
,,260398,001,2023-07-24_20h05.23.488,arm3_eps,2022.2.5,Win32,60.0240096,5eaf3e142627076426921b1b,64aea9d0f615b6559c281482,64becb61a025de839d90a603,down,-1,0.3,0.05,19,0,1.3518,,,,,,132,0,132,0,1,,,,,
,,260398,001,2023-07-24_20h05.23.488,arm3_eps,2022.2.5,Win32,60.0240096,5eaf3e142627076426921b1b,64aea9d0f615b6559c281482,64becb61a025de839d90a603,down,-1,0.3,0.05,19,0,1.185,,,,,,133,0,133,0,1,,,,,
,,260398,001,2023-07-24_20h05.23.488,arm3_eps,2022.2.5,Win32,60.0240096,5eaf3e142627076426921b1b,64aea9d0f615b6559c281482,64becb61a025de839d90a603,down,-1,0.3,0.05,19,0,1.8061,,,,,,134,0,134,0,1,,,,,
,,260398,001,2023-07-24_20h05.23.488,arm3_eps,2022.2.5,Win32,60.0240096,5eaf3e142627076426921b1b,64aea9d0f615b6559c281482,64becb61a025de839d90a603,down,-1,0.3,0.05,19,0,1.4547,,,,,,135,0,135,0,1,,,,,
,,260398,001,2023-07-24_20h05.23.488,arm3_eps,2022.2.5,Win32,60.0240096,5eaf3e142627076426921b1b,64aea9d0f615b6559c281482,64becb61a025de839d90a603,down,-1,0.3,0.05,20,0,1.411,,,,,,136,0,136,0,1,,,,,
,,260398,001,2023-07-24_20h05.23.488,arm3_eps,2022.2.5,Win32,60.0240096,5eaf3e142627076426921b1b,64aea9d0f615b6559c281482,64becb61a025de839d90a603,down,-1,0.3,0.05,20,0,1.3158,,,,,,137,0,137,0,1,,,,,
,,260398,001,2023-07-24_20h05.23.488,arm3_eps,2022.2.5,Win32,60.0240096,5eaf3e142627076426921b1b,64aea9d0f615b6559c281482,64becb61a025de839d90a603,down,-1,0.3,0.05,20,0,1.5519,,,,,,138,0,138,0,1,,,,,
,,260398,001,2023-07-24_20h05.23.488,arm3_eps,2022.2.5,Win32,60.0240096,5eaf3e142627076426921b1b,64aea9d0f615b6559c281482,64becb61a025de839d90a603,down,-1,0.3,0.05,20,0,1.9097,,,,,,139,0,139,0,1,,,,,
,,260398,001,2023-07-24_20h05.23.488,arm3_eps,2022.2.5,Win32,60.0240096,5eaf3e142627076426921b1b,64aea9d0f615b6559c281482,64becb61a025de839d90a603,down,-1,0.3,0.05,20,0,1.2568,,,,,,140,0,140,0,1,,,,,
,,260398,001,2023-07-24_20h05.23.488,arm3_eps,2022.2.5,Win32,60.0240096,5eaf3e142627076426921b1b,64aea9d0f615b6559c281482,64becb61a025de839d90a603,down,-1,0.3,0.05,21,0,1.6077,,,,,,141,0,141,0,1,,,,,
,,260398,001,2023-07-24_20h05.23.488,arm3_eps,2022.2.5,Win32,60.0240096,5eaf3e142627076426921b1b,64aea9d0f615b6559c281482,64becb61a025de839d90a603,down,-1,0.3,0.05,22,0,1.1911,,,,,,142,0,142,0,1,,,,,
,,260398,001,2023-07-24_20h05.23.488,arm3_eps,2022.2.5,Win32,60.0240096,5eaf3e142627076426921b1b,64aea9d0f615b6559c281482,64becb61a025de839d90a603,down,-1,0.3,0.05,23,0,1.2827,,,,,,143,0,143,0,1,,,,,
,,260398,001,2023-07-24_20h05.23.488,arm3_eps,2022.2.5,Win32,60.0240096,5eaf3e142627076426921b1b,64aea9d0f615b6559c281482,64becb61a025de839d90a603,down,-1,0.3,0.05,23,0,1.3215,,,,,,144,0,144,0,1,,,,,
,,260398,001,2023-07-24_20h05.23.488,arm3_eps,2022.2.5,Win32,60.0240096,5eaf3e142627076426921b1b,64aea9d0f615b6559c281482,64becb61a025de839d90a603,down,-1,0.3,0.05,23,0,1.3171,,,,,,145,0,145,0,1,,,,,
,,260398,001,2023-07-24_20h05.23.488,arm3_eps,2022.2.5,Win32,60.0240096,5eaf3e142627076426921b1b,64aea9d0f615b6559c281482,64becb61a025de839d90a603,down,-1,0.3,0.05,23,0,1.2426,,,,,,146,0,146,0,1,,,,,
,,260398,001,2023-07-24_20h05.23.488,arm3_eps,2022.2.5,Win32,60.0240096,5eaf3e142627076426921b1b,64aea9d0f615b6559c281482,64becb61a025de839d90a603,down,-1,0.3,0.05,24,0,1.2408,,,,,,147,0,147,0,1,,,,,
,,260398,001,2023-07-24_20h05.23.488,arm3_eps,2022.2.5,Win32,60.0240096,5eaf3e142627076426921b1b,64aea9d0f615b6559c281482,64becb61a025de839d90a603,up,-1,0.3,0.05,24,0,1.7896,,,,,,148,0,148,0,1,,,,,
,,260398,001,2023-07-24_20h05.23.488,arm3_eps,2022.2.5,Win32,60.0240096,5eaf3e142627076426921b1b,64aea9d0f615b6559c281482,64becb61a025de839d90a603,up,-1,0.3,0.05,23,0,1.5067,,,,,,149,0,149,0,1,,,,,
,,260398,001,2023-07-24_20h05.23.488,arm3_eps,2022.2.5,Win32,60.0240096,5eaf3e142627076426921b1b,64aea9d0f615b6559c281482,64becb61a025de839d90a603,up,-1,0.3,0.05,22,0,1.7661,,,,,,150,0,150,0,1,,,,,
,,260398,001,2023-07-24_20h05.23.488,arm3_eps,2022.2.5,Win32,60.0240096,5eaf3e142627076426921b1b,64aea9d0f615b6559c281482,64becb61a025de839d90a603,down,-1,0.3,0.05,22,0,1.1793,,,,,,151,0,151,0,1,,,,,
,,260398,001,2023-07-24_20h05.23.488,arm3_eps,2022.2.5,Win32,60.0240096,5eaf3e142627076426921b1b,64aea9d0f615b6559c281482,64becb61a025de839d90a603,down,-1,0.3,0.05,23,0,1.1617,,,,,,152,0,152,0,1,,,,,
,,260398,001,2023-07-24_20h05.23.488,arm3_eps,2022.2.5,Win32,60.0240096,5eaf3e142627076426921b1b,64aea9d0f615b6559c281482,64becb61a025de839d90a603,down,-1,0.3,0.05,23,0,2.6813,,,,,,153,0,153,0,1,,,,,
,,260398,001,2023-07-24_20h05.23.488,arm3_eps,2022.2.5,Win32,60.0240096,5eaf3e142627076426921b1b,64aea9d0f615b6559c281482,64becb61a025de839d90a603,down,-1,0.3,0.05,24,0,1.5236,,,,,,154,0,154,0,1,,,,,
,,260398,001,2023-07-24_20h05.23.488,arm3_eps,2022.2.5,Win32,60.0240096,5eaf3e142627076426921b1b,64aea9d0f615b6559c281482,64becb61a025de839d90a603,down,-1,0.3,0.05,24,0,1.1371,,,,,,155,0,155,0,1,,,,,
,,260398,001,2023-07-24_20h05.23.488,arm3_eps,2022.2.5,Win32,60.0240096,5eaf3e142627076426921b1b,64aea9d0f615b6559c281482,64becb61a025de839d90a603,down,-1,0.3,0.05,24,0,1.4281,,,,,,156,0,156,0,1,,,,,
,,260398,001,2023-07-24_20h05.23.488,arm3_eps,2022.2.5,Win32,60.0240096,5eaf3e142627076426921b1b,64aea9d0f615b6559c281482,64becb61a025de839d90a603,down,-1,0.3,0.05,24,0,1.2905,,,,,,157,0,157,0,1,,,,,
,,260398,001,2023-07-24_20h05.23.488,arm3_eps,2022.2.5,Win32,60.0240096,5eaf3e142627076426921b1b,64aea9d0f615b6559c281482,64becb61a025de839d90a603,down,-1,0.3,0.05,24,0,1.2933,,,,,,158,0,158,0,1,,,,,
,,260398,001,2023-07-24_20h05.23.488,arm3_eps,2022.2.5,Win32,60.0240096,5eaf3e142627076426921b1b,64aea9d0f615b6559c281482,64becb61a025de839d90a603,down,-1,0.3,0.05,24,0,1.5922,,,,,,159,0,159,0,1,,,,,
,,260398,001,2023-07-24_20h05.23.488,arm3_eps,2022.2.5,Win32,60.0240096,5eaf3e142627076426921b1b,64aea9d0f615b6559c281482,64becb61a025de839d90a603,up,-1,0.3,0.05,24,0,1.5362,,,,,,160,0,160,0,1,,,,,
,,260398,001,2023-07-24_20h05.23.488,arm3_eps,2022.2.5,Win32,60.0240096,5eaf3e142627076426921b1b,64aea9d0f615b6559c281482,64becb61a025de839d90a603,down,-1,0.3,0.05,24,0,1.3104,,,,,,161,0,161,0,1,,,,,
,,260398,001,2023-07-24_20h05.23.488,arm3_eps,2022.2.5,Win32,60.0240096,5eaf3e142627076426921b1b,64aea9d0f615b6559c281482,64becb61a025de839d90a603,up,-1,0.3,0.05,23,0,1.598,,,,,,162,0,162,0,1,,,,,
,,260398,001,2023-07-24_20h05.23.488,arm3_eps,2022.2.5,Win32,60.0240096,5eaf3e142627076426921b1b,64aea9d0f615b6559c281482,64becb61a025de839d90a603,down,-1,0.3,0.05,24,0,1.5886,,,,,,163,0,163,0,1,,,,,
,,260398,001,2023-07-24_20h05.23.488,arm3_eps,2022.2.5,Win32,60.0240096,5eaf3e142627076426921b1b,64aea9d0f615b6559c281482,64becb61a025de839d90a603,down,-1,0.3,0.05,24,0,1.4541,,,,,,164,0,164,0,1,,,,,
,,260398,001,2023-07-24_20h05.23.488,arm3_eps,2022.2.5,Win32,60.0240096,5eaf3e142627076426921b1b,64aea9d0f615b6559c281482,64becb61a025de839d90a603,down,-1,0.3,0.05,24,0,1.1721,,,,,,165,0,165,0,1,,,,,
,,260398,001,2023-07-24_20h05.23.488,arm3_eps,2022.2.5,Win32,60.0240096,5eaf3e142627076426921b1b,64aea9d0f615b6559c281482,64becb61a025de839d90a603,down,-1,0.3,0.05,24,0,1.038,,,,,,166,0,166,0,1,,,,,
,,260398,001,2023-07-24_20h05.23.488,arm3_eps,2022.2.5,Win32,60.0240096,5eaf3e142627076426921b1b,64aea9d0f615b6559c281482,64becb61a025de839d90a603,down,-1,0.3,0.05,25,0,1.1933,,,,,,167,0,167,0,1,,,,,
,,260398,001,2023-07-24_20h05.23.488,arm3_eps,2022.2.5,Win32,60.0240096,5eaf3e142627076426921b1b,64aea9d0f615b6559c281482,64becb61a025de839d90a603,down,-1,0.3,0.05,26,0,1.3215,,,,,,168,0,168,0,1,,,,,
,,260398,001,2023-07-24_20h05.23.488,arm3_eps,2022.2.5,Win32,60.0240096,5eaf3e142627076426921b1b,64aea9d0f615b6559c281482,64becb61a025de839d90a603,down,1,0.3,0.05,26,0,1.2277,,,,,,169,0,169,0,1,,,,,
,,260398,001,2023-07-24_20h05.23.488,arm3_eps,2022.2.5,Win32,60.0240096,5eaf3e142627076426921b1b,64aea9d0f615b6559c281482,64becb61a025de839d90a603,down,1,0.3,0.05,26,0,1.1169,,,,,,170,0,170,0,1,,,,,
,,260398,001,2023-07-24_20h05.23.488,arm3_eps,2022.2.5,Win32,60.0240096,5eaf3e142627076426921b1b,64aea9d0f615b6559c281482,64becb61a025de839d90a603,down,1,0.3,0.05,25,0,1.0563,,,,,,171,0,171,0,1,,,,,
,,260398,001,2023-07-24_20h05.23.488,arm3_eps,2022.2.5,Win32,60.0240096,5eaf3e142627076426921b1b,64aea9d0f615b6559c281482,64becb61a025de839d90a603,down,1,0.3,0.05,24,0,0.9661,,,,,,172,0,172,0,1,,,,,
,,260398,001,2023-07-24_20h05.23.488,arm3_eps,2022.2.5,Win32,60.0240096,5eaf3e142627076426921b1b,64aea9d0f615b6559c281482,64becb61a025de839d90a603,down,1,0.3,0.05,23,0,1.1544,,,,,,173,0,173,0,1,,,,,
,,260398,001,2023-07-24_20h05.23.488,arm3_eps,2022.2.5,Win32,60.0240096,5eaf3e142627076426921b1b,64aea9d0f615b6559c281482,64becb61a025de839d90a603,up,1,0.3,0.05,24,0,1.476,,,,,,174,0,174,0,1,,,,,
,,260398,001,2023-07-24_20h05.23.488,arm3_eps,2022.2.5,Win32,60.0240096,5eaf3e142627076426921b1b,64aea9d0f615b6559c281482,64becb61a025de839d90a603,up,1,0.3,0.05,24,0,1.1387,,,,,,175,0,175,0,1,,,,,
,,260398,001,2023-07-24_20h05.23.488,arm3_eps,2022.2.5,Win32,60.0240096,5eaf3e142627076426921b1b,64aea9d0f615b6559c281482,64becb61a025de839d90a603,down,1,0.3,0.05,24,0,1.4536,,,,,,176,0,176,0,1,,,,,
,,260398,001,2023-07-24_20h05.23.488,arm3_eps,2022.2.5,Win32,60.0240096,5eaf3e142627076426921b1b,64aea9d0f615b6559c281482,64becb61a025de839d90a603,up,1,0.3,0.05,24,0,2.4078,,,,,,177,0,177,0,1,,,,,
,,260398,001,2023-07-24_20h05.23.488,arm3_eps,2022.2.5,Win32,60.0240096,5eaf3e142627076426921b1b,64aea9d0f615b6559c281482,64becb61a025de839d90a603,up,1,0.3,0.05,24,0,1.7763,,,,,,178,0,178,0,1,,,,,
,,260398,001,2023-07-24_20h05.23.488,arm3_eps,2022.2.5,Win32,60.0240096,5eaf3e142627076426921b1b,64aea9d0f615b6559c281482,64becb61a025de839d90a603,down,1,0.3,0.05,24,0,1.6435,,,,,,179,0,179,0,1,,,,,
,,260398,001,2023-07-24_20h05.23.488,arm3_eps,2022.2.5,Win32,60.0240096,5eaf3e142627076426921b1b,64aea9d0f615b6559c281482,64becb61a025de839d90a603,up,1,0.3,0.05,24,0,1.9017,,,,,,180,0,180,0,1,,,,,
,,260398,001,2023-07-24_20h05.23.488,arm3_eps,2022.2.5,Win32,60.0240096,5eaf3e142627076426921b1b,64aea9d0f615b6559c281482,64becb61a025de839d90a603,down,1,0.3,0.05,23,0,1.858,,,,,,181,0,181,0,1,,,,,
,,260398,001,2023-07-24_20h05.23.488,arm3_eps,2022.2.5,Win32,60.0240096,5eaf3e142627076426921b1b,64aea9d0f615b6559c281482,64becb61a025de839d90a603,down,1,0.3,0.05,23,0,1.7923,,,,,,182,0,182,0,1,,,,,
,,260398,001,2023-07-24_20h05.23.488,arm3_eps,2022.2.5,Win32,60.0240096,5eaf3e142627076426921b1b,64aea9d0f615b6559c281482,64becb61a025de839d90a603,down,1,0.3,0.05,23,0,2.1531,,,,,,183,0,183,0,1,,,,,
,,260398,001,2023-07-24_20h05.23.488,arm3_eps,2022.2.5,Win32,60.0240096,5eaf3e142627076426921b1b,64aea9d0f615b6559c281482,64becb61a025de839d90a603,down,1,0.3,0.05,23,0,1.4705,,,,,,184,0,184,0,1,,,,,
,,260398,001,2023-07-24_20h05.23.488,arm3_eps,2022.2.5,Win32,60.0240096,5eaf3e142627076426921b1b,64aea9d0f615b6559c281482,64becb61a025de839d90a603,down,1,0.3,0.05,23,0,1.4297,,,,,,185,0,185,0,1,,,,,
,,260398,001,2023-07-24_20h05.23.488,arm3_eps,2022.2.5,Win32,60.0240096,5eaf3e142627076426921b1b,64aea9d0f615b6559c281482,64becb61a025de839d90a603,down,1,0.3,0.05,23,0,1.4223,,,,,,186,0,186,0,1,,,,,
,,260398,001,2023-07-24_20h05.23.488,arm3_eps,2022.2.5,Win32,60.0240096,5eaf3e142627076426921b1b,64aea9d0f615b6559c281482,64becb61a025de839d90a603,down,1,0.3,0.05,22,0,1.6669,,,,,,187,0,187,0,1,,,,,
,,260398,001,2023-07-24_20h05.23.488,arm3_eps,2022.2.5,Win32,60.0240096,5eaf3e142627076426921b1b,64aea9d0f615b6559c281482,64becb61a025de839d90a603,up,1,0.3,0.05,22,0,1.1721,,,,,,188,0,188,0,1,,,,,
,,260398,001,2023-07-24_20h05.23.488,arm3_eps,2022.2.5,Win32,60.0240096,5eaf3e142627076426921b1b,64aea9d0f615b6559c281482,64becb61a025de839d90a603,up,1,0.3,0.05,23,0,1.9421,,,,,,189,0,189,0,1,,,,,
,,260398,001,2023-07-24_20h05.23.488,arm3_eps,2022.2.5,Win32,60.0240096,5eaf3e142627076426921b1b,64aea9d0f615b6559c281482,64becb61a025de839d90a603,up,1,0.3,0.05,24,0,1.9071,,,,,,190,0,190,0,1,,,,,
,,260398,001,2023-07-24_20h05.23.488,arm3_eps,2022.2.5,Win32,60.0240096,5eaf3e142627076426921b1b,64aea9d0f615b6559c281482,64becb61a025de839d90a603,up,1,0.3,0.05,25,0,1.3821,,,,,,191,0,191,0,1,,,,,
,,260398,001,2023-07-24_20h05.23.488,arm3_eps,2022.2.5,Win32,60.0240096,5eaf3e142627076426921b1b,64aea9d0f615b6559c281482,64becb61a025de839d90a603,up,1,0.3,0.05,26,0,1.3956,,,,,,192,0,192,0,1,,,,,
,,260398,001,2023-07-24_20h05.23.488,arm3_eps,2022.2.5,Win32,60.0240096,5eaf3e142627076426921b1b,64aea9d0f615b6559c281482,64becb61a025de839d90a603,up,1,0.3,0.05,26,0,1.254,,,,,,193,0,193,0,1,,,,,
,,260398,001,2023-07-24_20h05.23.488,arm3_eps,2022.2.5,Win32,60.0240096,5eaf3e142627076426921b1b,64aea9d0f615b6559c281482,64becb61a025de839d90a603,down,-1,0.3,0.05,26,0,1.0346,,,,,,194,0,194,0,1,,,,,
,,260398,001,2023-07-24_20h05.23.488,arm3_eps,2022.2.5,Win32,60.0240096,5eaf3e142627076426921b1b,64aea9d0f615b6559c281482,64becb61a025de839d90a603,down,-1,0.3,0.05,26,0,1.5264,,,,,,195,0,195,0,1,,,,,
,,260398,001,2023-07-24_20h05.23.488,arm3_eps,2022.2.5,Win32,60.0240096,5eaf3e142627076426921b1b,64aea9d0f615b6559c281482,64becb61a025de839d90a603,down,-1,0.3,0.05,27,0,1.3156,,,,,,196,0,196,0,1,,,,,
,,260398,001,2023-07-24_20h05.23.488,arm3_eps,2022.2.5,Win32,60.0240096,5eaf3e142627076426921b1b,64aea9d0f615b6559c281482,64becb61a025de839d90a603,down,-1,0.3,0.05,28,0,1.5083,,,,,,197,0,197,0,1,,,,,
,,260398,001,2023-07-24_20h05.23.488,arm3_eps,2022.2.5,Win32,60.0240096,5eaf3e142627076426921b1b,64aea9d0f615b6559c281482,64becb61a025de839d90a603,down,-1,0.3,0.05,28,0,1.298,,,,,,198,0,198,0,1,,,,,
,,260398,001,2023-07-24_20h05.23.488,arm3_eps,2022.2.5,Win32,60.0240096,5eaf3e142627076426921b1b,64aea9d0f615b6559c281482,64becb61a025de839d90a603,up,-1,0.3,0.05,28,0,1.0196,,,,,,199,0,199,0,1,,,,,
,,260398,001,2023-07-24_20h05.23.488,arm3_eps,2022.2.5,Win32,60.0240096,5eaf3e142627076426921b1b,64aea9d0f615b6559c281482,64becb61a025de839d90a603,up,-1,0.3,0.05,28,0,1.3375,,,,,,200,0,200,0,1,,,,,
,,260398,001,2023-07-24_20h05.23.488,arm3_eps,2022.2.5,Win32,60.0240096,5eaf3e142627076426921b1b,64aea9d0f615b6559c281482,64becb61a025de839d90a603,right,-1,0.3,0.05,28,-0.006337169,1.1009,,,,,,201,0,201,0,1,,,,,
,,260398,001,2023-07-24_20h05.23.488,arm3_eps,2022.2.5,Win32,60.0240096,5eaf3e142627076426921b1b,64aea9d0f615b6559c281482,64becb61a025de839d90a603,down,-1,0.3,0.05,28,0,0.9095,,,,,,202,0,202,0,1,,,,,
,,260398,001,2023-07-24_20h05.23.488,arm3_eps,2022.2.5,Win32,60.0240096,5eaf3e142627076426921b1b,64aea9d0f615b6559c281482,64becb61a025de839d90a603,down,-1,0.3,0.05,28,0,1.1703,,,,,,203,0,203,0,1,,,,,
,,260398,001,2023-07-24_20h05.23.488,arm3_eps,2022.2.5,Win32,60.0240096,5eaf3e142627076426921b1b,64aea9d0f615b6559c281482,64becb61a025de839d90a603,down,-1,0.3,0.05,28,0,1.3742,,,,,,204,0,204,0,1,,,,,
,,260398,001,2023-07-24_20h05.23.488,arm3_eps,2022.2.5,Win32,60.0240096,5eaf3e142627076426921b1b,64aea9d0f615b6559c281482,64becb61a025de839d90a603,up,-1,0.3,0.05,28,0,1.5284,,,,,,205,0,205,0,1,,,,,
,,260398,001,2023-07-24_20h05.23.488,arm3_eps,2022.2.5,Win32,60.0240096,5eaf3e142627076426921b1b,64aea9d0f615b6559c281482,64becb61a025de839d90a603,up,-1,0.3,0.05,28,0,2.0224,,,,,,206,0,206,0,1,,,,,
,,260398,001,2023-07-24_20h05.23.488,arm3_eps,2022.2.5,Win32,60.0240096,5eaf3e142627076426921b1b,64aea9d0f615b6559c281482,64becb61a025de839d90a603,down,-1,0.3,0.05,28,0,2.9018,,,,,,207,0,207,0,1,,,,,
,,260398,001,2023-07-24_20h05.23.488,arm3_eps,2022.2.5,Win32,60.0240096,5eaf3e142627076426921b1b,64aea9d0f615b6559c281482,64becb61a025de839d90a603,down,-1,0.3,0.05,28,0,1.3354,,,,,,208,0,208,0,1,,,,,
,,260398,001,2023-07-24_20h05.23.488,arm3_eps,2022.2.5,Win32,60.0240096,5eaf3e142627076426921b1b,64aea9d0f615b6559c281482,64becb61a025de839d90a603,down,1,0.3,0.05,28,0,3.0513,,,,,,209,0,209,0,1,,,,,
,,260398,001,2023-07-24_20h05.23.488,arm3_eps,2022.2.5,Win32,60.0240096,5eaf3e142627076426921b1b,64aea9d0f615b6559c281482,64becb61a025de839d90a603,down,1,0.3,0.05,28,0,2.8798,,,,,,210,0,210,0,1,,,,,
,,260398,001,2023-07-24_20h05.23.488,arm3_eps,2022.2.5,Win32,60.0240096,5eaf3e142627076426921b1b,64aea9d0f615b6559c281482,64becb61a025de839d90a603,up,1,0.3,0.05,28,0,1.2318,,,,,,211,0,211,0,1,,,,,
,,260398,001,2023-07-24_20h05.23.488,arm3_eps,2022.2.5,Win32,60.0240096,5eaf3e142627076426921b1b,64aea9d0f615b6559c281482,64becb61a025de839d90a603,up,1,0.3,0.05,28,0,1.2574,,,,,,212,0,212,0,1,,,,,
,,260398,001,2023-07-24_20h05.23.488,arm3_eps,2022.2.5,Win32,60.0240096,5eaf3e142627076426921b1b,64aea9d0f615b6559c281482,64becb61a025de839d90a603,up,1,0.3,0.05,28,0,1.6393,,,,,,213,0,213,0,1,,,,,
,,260398,001,2023-07-24_20h05.23.488,arm3_eps,2022.2.5,Win32,60.0240096,5eaf3e142627076426921b1b,64aea9d0f615b6559c281482,64becb61a025de839d90a603,up,1,0.3,0.05,28,0,3.4733,,,,,,214,0,214,0,1,,,,,
,,260398,001,2023-07-24_20h05.23.488,arm3_eps,2022.2.5,Win32,60.0240096,5eaf3e142627076426921b1b,64aea9d0f615b6559c281482,64becb61a025de839d90a603,up,1,0.3,0.05,28,0,2.256,,,,,,215,0,215,0,1,,,,,
,,260398,001,2023-07-24_20h05.23.488,arm3_eps,2022.2.5,Win32,60.0240096,5eaf3e142627076426921b1b,64aea9d0f615b6559c281482,64becb61a025de839d90a603,down,-1,0.3,0.05,27,0,1.5832,,,,,,216,0,216,0,1,,,,,
,,260398,001,2023-07-24_20h05.23.488,arm3_eps,2022.2.5,Win32,60.0240096,5eaf3e142627076426921b1b,64aea9d0f615b6559c281482,64becb61a025de839d90a603,up,-1,0.3,0.05,27,0,1.3768,,,,,,217,0,217,0,1,,,,,
,,260398,001,2023-07-24_20h05.23.488,arm3_eps,2022.2.5,Win32,60.0240096,5eaf3e142627076426921b1b,64aea9d0f615b6559c281482,64becb61a025de839d90a603,up,-1,0.3,0.05,27,0,2.5056,,,,,,218,0,218,0,1,,,,,
,,260398,001,2023-07-24_20h05.23.488,arm3_eps,2022.2.5,Win32,60.0240096,5eaf3e142627076426921b1b,64aea9d0f615b6559c281482,64becb61a025de839d90a603,down,-1,0.3,0.05,28,0,1.7856,,,,,,219,0,219,0,1,,,,,
,,260398,001,2023-07-24_20h05.23.488,arm3_eps,2022.2.5,Win32,60.0240096,5eaf3e142627076426921b1b,64aea9d0f615b6559c281482,64becb61a025de839d90a603,down,-1,0.3,0.05,28,0,1.1609,,,,,,220,0,220,0,1,,,,,
,,260398,001,2023-07-24_20h05.23.488,arm3_eps,2022.2.5,Win32,60.0240096,5eaf3e142627076426921b1b,64aea9d0f615b6559c281482,64becb61a025de839d90a603,down,-1,0.3,0.05,28,0,1.2208,,,,,,221,0,221,0,1,,,,,
,,260398,001,2023-07-24_20h05.23.488,arm3_eps,2022.2.5,Win32,60.0240096,5eaf3e142627076426921b1b,64aea9d0f615b6559c281482,64becb61a025de839d90a603,down,-1,0.3,0.05,28,0,1.7648,,,,,,222,0,222,0,1,,,,,
,,260398,001,2023-07-24_20h05.23.488,arm3_eps,2022.2.5,Win32,60.0240096,5eaf3e142627076426921b1b,64aea9d0f615b6559c281482,64becb61a025de839d90a603,down,-1,0.3,0.05,28,0,1.1316,,,,,,223,0,223,0,1,,,,,
,,260398,001,2023-07-24_20h05.23.488,arm3_eps,2022.2.5,Win32,60.0240096,5eaf3e142627076426921b1b,64aea9d0f615b6559c281482,64becb61a025de839d90a603,up,-1,0.3,0.05,28,0,1.1087,,,,,,224,0,224,0,1,,,,,
,,260398,001,2023-07-24_20h05.23.488,arm3_eps,2022.2.5,Win32,60.0240096,5eaf3e142627076426921b1b,64aea9d0f615b6559c281482,64becb61a025de839d90a603,up,-1,0.3,0.05,28,0,1.187,,,,,,225,0,225,0,1,,,,,
,,260398,001,2023-07-24_20h05.23.488,arm3_eps,2022.2.5,Win32,60.0240096,5eaf3e142627076426921b1b,64aea9d0f615b6559c281482,64becb61a025de839d90a603,down,-1,0.3,0.05,28,0,1.3729,,,,,,226,0,226,0,1,,,,,
,,260398,001,2023-07-24_20h05.23.488,arm3_eps,2022.2.5,Win32,60.0240096,5eaf3e142627076426921b1b,64aea9d0f615b6559c281482,64becb61a025de839d90a603,up,-1,0.3,0.05,27,0,1.6437,,,,,,227,0,227,0,1,,,,,
,,260398,001,2023-07-24_20h05.23.488,arm3_eps,2022.2.5,Win32,60.0240096,5eaf3e142627076426921b1b,64aea9d0f615b6559c281482,64becb61a025de839d90a603,down,-1,0.3,0.05,27,0,1.5663,,,,,,228,0,228,0,1,,,,,
,,260398,001,2023-07-24_20h05.23.488,arm3_eps,2022.2.5,Win32,60.0240096,5eaf3e142627076426921b1b,64aea9d0f615b6559c281482,64becb61a025de839d90a603,down,-1,0.3,0.05,27,0,1.2326,,,,,,229,0,229,0,1,,,,,
,,260398,001,2023-07-24_20h05.23.488,arm3_eps,2022.2.5,Win32,60.0240096,5eaf3e142627076426921b1b,64aea9d0f615b6559c281482,64becb61a025de839d90a603,up,-1,0.3,0.05,27,0,1.0619,,,,,,230,0,230,0,1,,,,,
,,260398,001,2023-07-24_20h05.23.488,arm3_eps,2022.2.5,Win32,60.0240096,5eaf3e142627076426921b1b,64aea9d0f615b6559c281482,64becb61a025de839d90a603,up,-1,0.3,0.05,27,0,1.5027,,,,,,231,0,231,0,1,,,,,
,,260398,001,2023-07-24_20h05.23.488,arm3_eps,2022.2.5,Win32,60.0240096,5eaf3e142627076426921b1b,64aea9d0f615b6559c281482,64becb61a025de839d90a603,down,-1,0.3,0.05,27,0,1.7104,,,,,,232,0,232,0,1,,,,,
,,260398,001,2023-07-24_20h05.23.488,arm3_eps,2022.2.5,Win32,60.0240096,5eaf3e142627076426921b1b,64aea9d0f615b6559c281482,64becb61a025de839d90a603,up,-1,0.3,0.05,26,0,1.0168,,,,,,233,0,233,0,1,,,,,
,,260398,001,2023-07-24_20h05.23.488,arm3_eps,2022.2.5,Win32,60.0240096,5eaf3e142627076426921b1b,64aea9d0f615b6559c281482,64becb61a025de839d90a603,down,-1,0.3,0.05,26,0,1.2286,,,,,,234,0,234,0,1,,,,,
,,260398,001,2023-07-24_20h05.23.488,arm3_eps,2022.2.5,Win32,60.0240096,5eaf3e142627076426921b1b,64aea9d0f615b6559c281482,64becb61a025de839d90a603,up,-1,0.3,0.05,26,0,2.089,,,,,,235,0,235,0,1,,,,,
,,260398,001,2023-07-24_20h05.23.488,arm3_eps,2022.2.5,Win32,60.0240096,5eaf3e142627076426921b1b,64aea9d0f615b6559c281482,64becb61a025de839d90a603,down,-1,0.3,0.05,26,0,1.5774,,,,,,236,0,236,0,1,,,,,
,,260398,001,2023-07-24_20h05.23.488,arm3_eps,2022.2.5,Win32,60.0240096,5eaf3e142627076426921b1b,64aea9d0f615b6559c281482,64becb61a025de839d90a603,up,-1,0.3,0.05,25,0,2.3063,,,,,,237,0,237,0,1,,,,,
,,260398,001,2023-07-24_20h05.23.488,arm3_eps,2022.2.5,Win32,60.0240096,5eaf3e142627076426921b1b,64aea9d0f615b6559c281482,64becb61a025de839d90a603,down,-1,0.3,0.05,26,0,1.0639,,,,,,238,0,238,0,1,,,,,
,,260398,001,2023-07-24_20h05.23.488,arm3_eps,2022.2.5,Win32,60.0240096,5eaf3e142627076426921b1b,64aea9d0f615b6559c281482,64becb61a025de839d90a603,down,-1,0.3,0.05,26,0,1.4991,,,,,,239,0,239,0,1,,,,,
,,260398,001,2023-07-24_20h05.23.488,arm3_eps,2022.2.5,Win32,60.0240096,5eaf3e142627076426921b1b,64aea9d0f615b6559c281482,64becb61a025de839d90a603,up,-1,0.3,0.05,26,0,1.0001,,,,,,240,0,240,0,1,,,,,
,,260398,001,2023-07-24_20h05.23.488,arm3_eps,2022.2.5,Win32,60.0240096,5eaf3e142627076426921b1b,64aea9d0f615b6559c281482,64becb61a025de839d90a603,down,-1,0.3,0.05,27,0,2.1262,,,,,,241,0,241,0,1,,,,,
,,260398,001,2023-07-24_20h05.23.488,arm3_eps,2022.2.5,Win32,60.0240096,5eaf3e142627076426921b1b,64aea9d0f615b6559c281482,64becb61a025de839d90a603,down,-1,0.3,0.05,27,0,1.1713,,,,,,242,0,242,0,1,,,,,
,,260398,001,2023-07-24_20h05.23.488,arm3_eps,2022.2.5,Win32,60.0240096,5eaf3e142627076426921b1b,64aea9d0f615b6559c281482,64becb61a025de839d90a603,down,-1,0.3,0.05,27,0,1.1195,,,,,,243,0,243,0,1,,,,,
,,260398,001,2023-07-24_20h05.23.488,arm3_eps,2022.2.5,Win32,60.0240096,5eaf3e142627076426921b1b,64aea9d0f615b6559c281482,64becb61a025de839d90a603,down,-1,0.3,0.05,28,0,1.11,,,,,,244,0,244,0,1,,,,,
,,260398,001,2023-07-24_20h05.23.488,arm3_eps,2022.2.5,Win32,60.0240096,5eaf3e142627076426921b1b,64aea9d0f615b6559c281482,64becb61a025de839d90a603,down,-1,0.3,0.05,28,0,1.176,,,,,,245,0,245,0,1,,,,,
,,260398,001,2023-07-24_20h05.23.488,arm3_eps,2022.2.5,Win32,60.0240096,5eaf3e142627076426921b1b,64aea9d0f615b6559c281482,64becb61a025de839d90a603,up,-1,0.3,0.05,28,0,0.8666,,,,,,246,0,246,0,1,,,,,
,,260398,001,2023-07-24_20h05.23.488,arm3_eps,2022.2.5,Win32,60.0240096,5eaf3e142627076426921b1b,64aea9d0f615b6559c281482,64becb61a025de839d90a603,up,-1,0.3,0.05,28,0,1.0035,,,,,,247,0,247,0,1,,,,,
,,260398,001,2023-07-24_20h05.23.488,arm3_eps,2022.2.5,Win32,60.0240096,5eaf3e142627076426921b1b,64aea9d0f615b6559c281482,64becb61a025de839d90a603,up,-1,0.3,0.05,27,0,1.2742,,,,,,248,0,248,0,1,,,,,
,,260398,001,2023-07-24_20h05.23.488,arm3_eps,2022.2.5,Win32,60.0240096,5eaf3e142627076426921b1b,64aea9d0f615b6559c281482,64becb61a025de839d90a603,down,-1,0.3,0.05,27,0,1.1364,,,,,,249,0,249,0,1,,,,,
,,260398,001,2023-07-24_20h05.23.488,arm3_eps,2022.2.5,Win32,60.0240096,5eaf3e142627076426921b1b,64aea9d0f615b6559c281482,64becb61a025de839d90a603,up,-1,0.3,0.05,27,0,1.3526,,,,,,250,0,250,0,1,,,,,
,,260398,001,2023-07-24_20h05.23.488,arm3_eps,2022.2.5,Win32,60.0240096,5eaf3e142627076426921b1b,64aea9d0f615b6559c281482,64becb61a025de839d90a603,down,-1,0.3,0.05,27,0,1.3741,,,,,,251,0,251,0,1,,,,,
,,260398,001,2023-07-24_20h05.23.488,arm3_eps,2022.2.5,Win32,60.0240096,5eaf3e142627076426921b1b,64aea9d0f615b6559c281482,64becb61a025de839d90a603,up,-1,0.3,0.05,27,0,1.2616,,,,,,252,0,252,0,1,,,,,
,,260398,001,2023-07-24_20h05.23.488,arm3_eps,2022.2.5,Win32,60.0240096,5eaf3e142627076426921b1b,64aea9d0f615b6559c281482,64becb61a025de839d90a603,down,-1,0.3,0.05,27,0,1.1527,,,,,,253,0,253,0,1,,,,,
,,260398,001,2023-07-24_20h05.23.488,arm3_eps,2022.2.5,Win32,60.0240096,5eaf3e142627076426921b1b,64aea9d0f615b6559c281482,64becb61a025de839d90a603,down,1,0.3,0.05,28,0,1.3694,,,,,,254,0,254,0,1,,,,,
,,260398,001,2023-07-24_20h05.23.488,arm3_eps,2022.2.5,Win32,60.0240096,5eaf3e142627076426921b1b,64aea9d0f615b6559c281482,64becb61a025de839d90a603,up,1,0.3,0.05,28,0,1.5699,,,,,,255,0,255,0,1,,,,,
,,260398,001,2023-07-24_20h05.23.488,arm3_eps,2022.2.5,Win32,60.0240096,5eaf3e142627076426921b1b,64aea9d0f615b6559c281482,64becb61a025de839d90a603,down,1,0.3,0.05,28,0,1.2137,,,,,,256,0,256,0,1,,,,,
,,260398,001,2023-07-24_20h05.23.488,arm3_eps,2022.2.5,Win32,60.0240096,5eaf3e142627076426921b1b,64aea9d0f615b6559c281482,64becb61a025de839d90a603,down,1,0.3,0.05,28,0,1.405,,,,,,257,0,257,0,1,,,,,
,,260398,001,2023-07-24_20h05.23.488,arm3_eps,2022.2.5,Win32,60.0240096,5eaf3e142627076426921b1b,64aea9d0f615b6559c281482,64becb61a025de839d90a603,up,1,0.3,0.05,28,0,1.3533,,,,,,258,0,258,0,1,,,,,
,,260398,001,2023-07-24_20h05.23.488,arm3_eps,2022.2.5,Win32,60.0240096,5eaf3e142627076426921b1b,64aea9d0f615b6559c281482,64becb61a025de839d90a603,up,1,0.3,0.05,28,0,1.4343,,,,,,259,0,259,0,1,,,,,
,,260398,001,2023-07-24_20h05.23.488,arm3_eps,2022.2.5,Win32,60.0240096,5eaf3e142627076426921b1b,64aea9d0f615b6559c281482,64becb61a025de839d90a603,up,1,0.3,0.05,28,0,1.46,,,,,,260,0,260,0,1,,,,,
,,260398,001,2023-07-24_20h05.23.488,arm3_eps,2022.2.5,Win32,60.0240096,5eaf3e142627076426921b1b,64aea9d0f615b6559c281482,64becb61a025de839d90a603,up,-1,0.3,0.05,28,0,2.1743,,,,,,261,0,261,0,1,,,,,
,,260398,001,2023-07-24_20h05.23.488,arm3_eps,2022.2.5,Win32,60.0240096,5eaf3e142627076426921b1b,64aea9d0f615b6559c281482,64becb61a025de839d90a603,down,-1,0.3,0.05,29,0,1.2981,,,,,,262,0,262,0,1,,,,,
,,260398,001,2023-07-24_20h05.23.488,arm3_eps,2022.2.5,Win32,60.0240096,5eaf3e142627076426921b1b,64aea9d0f615b6559c281482,64becb61a025de839d90a603,down,-1,0.3,0.05,29,0,1.7136,,,,,,263,0,263,0,1,,,,,
,,260398,001,2023-07-24_20h05.23.488,arm3_eps,2022.2.5,Win32,60.0240096,5eaf3e142627076426921b1b,64aea9d0f615b6559c281482,64becb61a025de839d90a603,down,1,0.3,0.05,29,0,1.3507,,,,,,264,0,264,0,1,,,,,
,,260398,001,2023-07-24_20h05.23.488,arm3_eps,2022.2.5,Win32,60.0240096,5eaf3e142627076426921b1b,64aea9d0f615b6559c281482,64becb61a025de839d90a603,down,1,0.3,0.05,29,0,2.5026,,,,,,265,0,265,0,1,,,,,
,,260398,001,2023-07-24_20h05.23.488,arm3_eps,2022.2.5,Win32,60.0240096,5eaf3e142627076426921b1b,64aea9d0f615b6559c281482,64becb61a025de839d90a603,down,1,0.3,0.05,29,0,1.9602,,,,,,266,0,266,0,1,,,,,
,,260398,001,2023-07-24_20h05.23.488,arm3_eps,2022.2.5,Win32,60.0240096,5eaf3e142627076426921b1b,64aea9d0f615b6559c281482,64becb61a025de839d90a603,up,1,0.3,0.05,30,0,1.5097,,,,,,267,0,267,0,1,,,,,
,,260398,001,2023-07-24_20h05.23.488,arm3_eps,2022.2.5,Win32,60.0240096,5eaf3e142627076426921b1b,64aea9d0f615b6559c281482,64becb61a025de839d90a603,up,1,0.3,0.05,30,0,1.3356,,,,,,268,0,268,0,1,,,,,
,,260398,001,2023-07-24_20h05.23.488,arm3_eps,2022.2.5,Win32,60.0240096,5eaf3e142627076426921b1b,64aea9d0f615b6559c281482,64becb61a025de839d90a603,up,1,0.3,0.05,31,0,1.0708,,,,,,269,0,269,0,1,,,,,
,,260398,001,2023-07-24_20h05.23.488,arm3_eps,2022.2.5,Win32,60.0240096,5eaf3e142627076426921b1b,64aea9d0f615b6559c281482,64becb61a025de839d90a603,up,1,0.3,0.05,32,0,1.6155,,,,,,270,0,270,0,1,,,,,
,,260398,001,2023-07-24_20h05.23.488,arm3_eps,2022.2.5,Win32,60.0240096,5eaf3e142627076426921b1b,64aea9d0f615b6559c281482,64becb61a025de839d90a603,up,1,0.3,0.05,32,0,1.1784,,,,,,271,0,271,0,1,,,,,
,,260398,001,2023-07-24_20h05.23.488,arm3_eps,2022.2.5,Win32,60.0240096,5eaf3e142627076426921b1b,64aea9d0f615b6559c281482,64becb61a025de839d90a603,up,1,0.3,0.05,32,0,1.1016,,,,,,272,0,272,0,1,,,,,
,,260398,001,2023-07-24_20h05.23.488,arm3_eps,2022.2.5,Win32,60.0240096,5eaf3e142627076426921b1b,64aea9d0f615b6559c281482,64becb61a025de839d90a603,up,1,0.3,0.05,32,0,0.993,,,,,,273,0,273,0,1,,,,,
,,260398,001,2023-07-24_20h05.23.488,arm3_eps,2022.2.5,Win32,60.0240096,5eaf3e142627076426921b1b,64aea9d0f615b6559c281482,64becb61a025de839d90a603,down,1,0.3,0.05,31,0,0.885,,,,,,274,0,274,0,1,,,,,
,,260398,001,2023-07-24_20h05.23.488,arm3_eps,2022.2.5,Win32,60.0240096,5eaf3e142627076426921b1b,64aea9d0f615b6559c281482,64becb61a025de839d90a603,down,1,0.3,0.05,31,0,1.1379,,,,,,275,0,275,0,1,,,,,
,,260398,001,2023-07-24_20h05.23.488,arm3_eps,2022.2.5,Win32,60.0240096,5eaf3e142627076426921b1b,64aea9d0f615b6559c281482,64becb61a025de839d90a603,down,1,0.3,0.05,31,0,1.1008,,,,,,276,0,276,0,1,,,,,
,,260398,001,2023-07-24_20h05.23.488,arm3_eps,2022.2.5,Win32,60.0240096,5eaf3e142627076426921b1b,64aea9d0f615b6559c281482,64becb61a025de839d90a603,up,1,0.3,0.05,31,0,2.3914,,,,,,277,0,277,0,1,,,,,
,,260398,001,2023-07-24_20h05.23.488,arm3_eps,2022.2.5,Win32,60.0240096,5eaf3e142627076426921b1b,64aea9d0f615b6559c281482,64becb61a025de839d90a603,down,1,0.3,0.05,30,0,0.9012,,,,,,278,0,278,0,1,,,,,
,,260398,001,2023-07-24_20h05.23.488,arm3_eps,2022.2.5,Win32,60.0240096,5eaf3e142627076426921b1b,64aea9d0f615b6559c281482,64becb61a025de839d90a603,down,-1,0.3,0.05,30,0,1.4329,,,,,,279,0,279,0,1,,,,,
,,260398,001,2023-07-24_20h05.23.488,arm3_eps,2022.2.5,Win32,60.0240096,5eaf3e142627076426921b1b,64aea9d0f615b6559c281482,64becb61a025de839d90a603,down,-1,0.3,0.05,31,0,1.1924,,,,,,280,0,280,0,1,,,,,
,,260398,001,2023-07-24_20h05.23.488,arm3_eps,2022.2.5,Win32,60.0240096,5eaf3e142627076426921b1b,64aea9d0f615b6559c281482,64becb61a025de839d90a603,down,-1,0.3,0.05,31,0,1.1922,,,,,,281,0,281,0,1,,,,,
,,260398,001,2023-07-24_20h05.23.488,arm3_eps,2022.2.5,Win32,60.0240096,5eaf3e142627076426921b1b,64aea9d0f615b6559c281482,64becb61a025de839d90a603,down,-1,0.3,0.05,32,0,1.2464,,,,,,282,0,282,0,1,,,,,
,,260398,001,2023-07-24_20h05.23.488,arm3_eps,2022.2.5,Win32,60.0240096,5eaf3e142627076426921b1b,64aea9d0f615b6559c281482,64becb61a025de839d90a603,up,-1,0.3,0.05,31,0,1.2085,,,,,,283,0,283,0,1,,,,,
,,260398,001,2023-07-24_20h05.23.488,arm3_eps,2022.2.5,Win32,60.0240096,5eaf3e142627076426921b1b,64aea9d0f615b6559c281482,64becb61a025de839d90a603,down,-1,0.3,0.05,31,0,1.2851,,,,,,284,0,284,0,1,,,,,
,,260398,001,2023-07-24_20h05.23.488,arm3_eps,2022.2.5,Win32,60.0240096,5eaf3e142627076426921b1b,64aea9d0f615b6559c281482,64becb61a025de839d90a603,down,-1,0.3,0.05,32,0,1.1986,,,,,,285,0,285,0,1,,,,,
,,260398,001,2023-07-24_20h05.23.488,arm3_eps,2022.2.5,Win32,60.0240096,5eaf3e142627076426921b1b,64aea9d0f615b6559c281482,64becb61a025de839d90a603,up,-1,0.3,0.05,31,0,1.3361,,,,,,286,0,286,0,1,,,,,
,,260398,001,2023-07-24_20h05.23.488,arm3_eps,2022.2.5,Win32,60.0240096,5eaf3e142627076426921b1b,64aea9d0f615b6559c281482,64becb61a025de839d90a603,up,-1,0.3,0.05,31,0,1.395,,,,,,287,0,287,0,1,,,,,
,,260398,001,2023-07-24_20h05.23.488,arm3_eps,2022.2.5,Win32,60.0240096,5eaf3e142627076426921b1b,64aea9d0f615b6559c281482,64becb61a025de839d90a603,up,-1,0.3,0.05,31,0,1.7667,,,,,,288,0,288,0,1,,,,,
,,260398,001,2023-07-24_20h05.23.488,arm3_eps,2022.2.5,Win32,60.0240096,5eaf3e142627076426921b1b,64aea9d0f615b6559c281482,64becb61a025de839d90a603,down,-1,0.3,0.05,31,0,1.1232,,,,,,289,0,289,0,1,,,,,
,,260398,001,2023-07-24_20h05.23.488,arm3_eps,2022.2.5,Win32,60.0240096,5eaf3e142627076426921b1b,64aea9d0f615b6559c281482,64becb61a025de839d90a603,up,-1,0.3,0.05,31,0,1.1822,,,,,,290,0,290,0,1,,,,,
,,260398,001,2023-07-24_20h05.23.488,arm3_eps,2022.2.5,Win32,60.0240096,5eaf3e142627076426921b1b,64aea9d0f615b6559c281482,64becb61a025de839d90a603,down,-1,0.3,0.05,32,0,1.1656,,,,,,291,0,291,0,1,,,,,
,,260398,001,2023-07-24_20h05.23.488,arm3_eps,2022.2.5,Win32,60.0240096,5eaf3e142627076426921b1b,64aea9d0f615b6559c281482,64becb61a025de839d90a603,down,-1,0.3,0.05,32,0,1.266,,,,,,292,0,292,0,1,,,,,
,,260398,001,2023-07-24_20h05.23.488,arm3_eps,2022.2.5,Win32,60.0240096,5eaf3e142627076426921b1b,64aea9d0f615b6559c281482,64becb61a025de839d90a603,down,-1,0.3,0.05,32,0,1.0746,,,,,,293,0,293,0,1,,,,,
,,260398,001,2023-07-24_20h05.23.488,arm3_eps,2022.2.5,Win32,60.0240096,5eaf3e142627076426921b1b,64aea9d0f615b6559c281482,64becb61a025de839d90a603,down,-1,0.3,0.05,32,0,1.152,,,,,,294,0,294,0,1,,,,,
,,260398,001,2023-07-24_20h05.23.488,arm3_eps,2022.2.5,Win32,60.0240096,5eaf3e142627076426921b1b,64aea9d0f615b6559c281482,64becb61a025de839d90a603,up,-1,0.3,0.05,32,0,1.0405,,,,,,295,0,295,0,1,,,,,
,,260398,001,2023-07-24_20h05.23.488,arm3_eps,2022.2.5,Win32,60.0240096,5eaf3e142627076426921b1b,64aea9d0f615b6559c281482,64becb61a025de839d90a603,up,-1,0.3,0.05,32,0,1.3429,,,,,,296,0,296,0,1,,,,,
,,260398,001,2023-07-24_20h05.23.488,arm3_eps,2022.2.5,Win32,60.0240096,5eaf3e142627076426921b1b,64aea9d0f615b6559c281482,64becb61a025de839d90a603,up,-1,0.3,0.05,32,0,1.2038,,,,,,297,0,297,0,1,,,,,
,,260398,001,2023-07-24_20h05.23.488,arm3_eps,2022.2.5,Win32,60.0240096,5eaf3e142627076426921b1b,64aea9d0f615b6559c281482,64becb61a025de839d90a603,up,-1,0.3,0.05,32,0,1.0126,,,,,,298,0,298,0,1,,,,,
,,260398,001,2023-07-24_20h05.23.488,arm3_eps,2022.2.5,Win32,60.0240096,5eaf3e142627076426921b1b,64aea9d0f615b6559c281482,64becb61a025de839d90a603,down,-1,0.3,0.05,33,0,0.8313,,,,,,299,0,299,0,1,,,,,
,,260398,001,2023-07-24_20h05.23.488,arm3_eps,2022.2.5,Win32,60.0240096,5eaf3e142627076426921b1b,64aea9d0f615b6559c281482,64becb61a025de839d90a603,down,-1,0.3,0.05,33,0,1.2695,,,,,,300,0,300,0,1,,,,,
,,260398,001,2023-07-24_20h05.23.488,arm3_eps,2022.2.5,Win32,60.0240096,5eaf3e142627076426921b1b,64aea9d0f615b6559c281482,64becb61a025de839d90a603,up,-1,0.3,0.05,32,0,1.0095,,,,,,301,0,301,0,1,,,,,
,,260398,001,2023-07-24_20h05.23.488,arm3_eps,2022.2.5,Win32,60.0240096,5eaf3e142627076426921b1b,64aea9d0f615b6559c281482,64becb61a025de839d90a603,down,-1,0.3,0.05,33,0,1.2523,,,,,,302,0,302,0,1,,,,,
,,260398,001,2023-07-24_20h05.23.488,arm3_eps,2022.2.5,Win32,60.0240096,5eaf3e142627076426921b1b,64aea9d0f615b6559c281482,64becb61a025de839d90a603,down,-1,0.3,0.05,33,0,1.3523,,,,,,303,0,303,0,1,,,,,
,,260398,001,2023-07-24_20h05.23.488,arm3_eps,2022.2.5,Win32,60.0240096,5eaf3e142627076426921b1b,64aea9d0f615b6559c281482,64becb61a025de839d90a603,up,-1,0.3,0.05,33,0,3.2333,,,,,,304,0,304,0,1,,,,,
,,260398,001,2023-07-24_20h05.23.488,arm3_eps,2022.2.5,Win32,60.0240096,5eaf3e142627076426921b1b,64aea9d0f615b6559c281482,64becb61a025de839d90a603,down,-1,0.3,0.05,34,0,1.3803,,,,,,305,0,305,0,1,,,,,
,,260398,001,2023-07-24_20h05.23.488,arm3_eps,2022.2.5,Win32,60.0240096,5eaf3e142627076426921b1b,64aea9d0f615b6559c281482,64becb61a025de839d90a603,down,-1,0.3,0.05,34,0,1.6392,,,,,,306,0,306,0,1,,,,,
,,260398,001,2023-07-24_20h05.23.488,arm3_eps,2022.2.5,Win32,60.0240096,5eaf3e142627076426921b1b,64aea9d0f615b6559c281482,64becb61a025de839d90a603,up,-1,0.3,0.05,34,0,1.7575,,,,,,307,0,307,0,1,,,,,
,,260398,001,2023-07-24_20h05.23.488,arm3_eps,2022.2.5,Win32,60.0240096,5eaf3e142627076426921b1b,64aea9d0f615b6559c281482,64becb61a025de839d90a603,up,-1,0.3,0.05,33,0,1.4935,,,,,,308,0,308,0,1,,,,,
,,260398,001,2023-07-24_20h05.23.488,arm3_eps,2022.2.5,Win32,60.0240096,5eaf3e142627076426921b1b,64aea9d0f615b6559c281482,64becb61a025de839d90a603,down,-1,0.3,0.05,33,0,1.3049,,,,,,309,0,309,0,1,,,,,
,,260398,001,2023-07-24_20h05.23.488,arm3_eps,2022.2.5,Win32,60.0240096,5eaf3e142627076426921b1b,64aea9d0f615b6559c281482,64becb61a025de839d90a603,up,-1,0.3,0.05,32,0,3.2181,,,,,,310,0,310,0,1,,,,,
,,260398,001,2023-07-24_20h05.23.488,arm3_eps,2022.2.5,Win32,60.0240096,5eaf3e142627076426921b1b,64aea9d0f615b6559c281482,64becb61a025de839d90a603,down,-1,0.3,0.05,32,0,1.6345,,,,,,311,0,311,0,1,,,,,
,,260398,001,2023-07-24_20h05.23.488,arm3_eps,2022.2.5,Win32,60.0240096,5eaf3e142627076426921b1b,64aea9d0f615b6559c281482,64becb61a025de839d90a603,up,-1,0.3,0.05,32,0,1.1619,,,,,,312,0,312,0,1,,,,,
,,260398,001,2023-07-24_20h05.23.488,arm3_eps,2022.2.5,Win32,60.0240096,5eaf3e142627076426921b1b,64aea9d0f615b6559c281482,64becb61a025de839d90a603,up,-1,0.3,0.05,32,0,3.919,,,,,,313,0,313,0,1,,,,,
,,260398,001,2023-07-24_20h05.23.488,arm3_eps,2022.2.5,Win32,60.0240096,5eaf3e142627076426921b1b,64aea9d0f615b6559c281482,64becb61a025de839d90a603,down,-1,0.3,0.05,32,0,0.9303,,,,,,314,0,314,0,1,,,,,
,,260398,001,2023-07-24_20h05.23.488,arm3_eps,2022.2.5,Win32,60.0240096,5eaf3e142627076426921b1b,64aea9d0f615b6559c281482,64becb61a025de839d90a603,up,-1,0.3,0.05,32,0,1.1579,,,,,,315,0,315,0,1,,,,,
,,260398,001,2023-07-24_20h05.23.488,arm3_eps,2022.2.5,Win32,60.0240096,5eaf3e142627076426921b1b,64aea9d0f615b6559c281482,64becb61a025de839d90a603,down,-1,0.3,0.05,32,0,2.6692,,,,,,316,0,316,0,1,,,,,
,,260398,001,2023-07-24_20h05.23.488,arm3_eps,2022.2.5,Win32,60.0240096,5eaf3e142627076426921b1b,64aea9d0f615b6559c281482,64becb61a025de839d90a603,up,-1,0.3,0.05,32,0,1.1882,,,,,,317,0,317,0,1,,,,,
,,260398,001,2023-07-24_20h05.23.488,arm3_eps,2022.2.5,Win32,60.0240096,5eaf3e142627076426921b1b,64aea9d0f615b6559c281482,64becb61a025de839d90a603,up,-1,0.3,0.05,31,0,1.2204,,,,,,318,0,318,0,1,,,,,
,,260398,001,2023-07-24_20h05.23.488,arm3_eps,2022.2.5,Win32,60.0240096,5eaf3e142627076426921b1b,64aea9d0f615b6559c281482,64becb61a025de839d90a603,down,-1,0.3,0.05,31,0,1.0026,,,,,,319,0,319,0,1,,,,,
,,260398,001,2023-07-24_20h05.23.488,arm3_eps,2022.2.5,Win32,60.0240096,5eaf3e142627076426921b1b,64aea9d0f615b6559c281482,64becb61a025de839d90a603,down,-1,0.3,0.05,31,0,1.205,,,,,,320,0,320,0,1,,,,,
,,260398,001,2023-07-24_20h05.23.488,arm3_eps,2022.2.5,Win32,60.0240096,5eaf3e142627076426921b1b,64aea9d0f615b6559c281482,64becb61a025de839d90a603,down,1,0.3,0.05,31,0,1.5218,,,,,,321,0,321,0,1,,,,,
,,260398,001,2023-07-24_20h05.23.488,arm3_eps,2022.2.5,Win32,60.0240096,5eaf3e142627076426921b1b,64aea9d0f615b6559c281482,64becb61a025de839d90a603,down,1,0.3,0.05,31,0,1.2355,,,,,,322,0,322,0,1,,,,,
,,260398,001,2023-07-24_20h05.23.488,arm3_eps,2022.2.5,Win32,60.0240096,5eaf3e142627076426921b1b,64aea9d0f615b6559c281482,64becb61a025de839d90a603,down,1,0.3,0.05,30,0,1.2197,,,,,,323,0,323,0,1,,,,,
,,260398,001,2023-07-24_20h05.23.488,arm3_eps,2022.2.5,Win32,60.0240096,5eaf3e142627076426921b1b,64aea9d0f615b6559c281482,64becb61a025de839d90a603,up,1,0.3,0.05,30,0,1.0894,,,,,,324,0,324,0,1,,,,,
,,260398,001,2023-07-24_20h05.23.488,arm3_eps,2022.2.5,Win32,60.0240096,5eaf3e142627076426921b1b,64aea9d0f615b6559c281482,64becb61a025de839d90a603,up,1,0.3,0.05,30,0,1.2858,,,,,,325,0,325,0,1,,,,,
,,260398,001,2023-07-24_20h05.23.488,arm3_eps,2022.2.5,Win32,60.0240096,5eaf3e142627076426921b1b,64aea9d0f615b6559c281482,64becb61a025de839d90a603,up,1,0.3,0.05,30,0,1.4405,,,,,,326,0,326,0,1,,,,,
,,260398,001,2023-07-24_20h05.23.488,arm3_eps,2022.2.5,Win32,60.0240096,5eaf3e142627076426921b1b,64aea9d0f615b6559c281482,64becb61a025de839d90a603,up,1,0.3,0.05,30,0,1.2662,,,,,,327,0,327,0,1,,,,,
,,260398,001,2023-07-24_20h05.23.488,arm3_eps,2022.2.5,Win32,60.0240096,5eaf3e142627076426921b1b,64aea9d0f615b6559c281482,64becb61a025de839d90a603,up,1,0.3,0.05,31,0,1.1784,,,,,,328,0,328,0,1,,,,,
,,260398,001,2023-07-24_20h05.23.488,arm3_eps,2022.2.5,Win32,60.0240096,5eaf3e142627076426921b1b,64aea9d0f615b6559c281482,64becb61a025de839d90a603,up,1,0.3,0.05,31,0,0.8287,,,,,,329,0,329,0,1,,,,,
,,260398,001,2023-07-24_20h05.23.488,arm3_eps,2022.2.5,Win32,60.0240096,5eaf3e142627076426921b1b,64aea9d0f615b6559c281482,64becb61a025de839d90a603,up,1,0.3,0.05,31,0,2.0767,,,,,,330,0,330,0,1,,,,,
,,260398,001,2023-07-24_20h05.23.488,arm3_eps,2022.2.5,Win32,60.0240096,5eaf3e142627076426921b1b,64aea9d0f615b6559c281482,64becb61a025de839d90a603,down,1,0.3,0.05,31,0,1.0661,,,,,,331,0,331,0,1,,,,,
,,260398,001,2023-07-24_20h05.23.488,arm3_eps,2022.2.5,Win32,60.0240096,5eaf3e142627076426921b1b,64aea9d0f615b6559c281482,64becb61a025de839d90a603,up,1,0.3,0.05,31,0,1.7222,,,,,,332,0,332,0,1,,,,,
,,260398,001,2023-07-24_20h05.23.488,arm3_eps,2022.2.5,Win32,60.0240096,5eaf3e142627076426921b1b,64aea9d0f615b6559c281482,64becb61a025de839d90a603,up,1,0.3,0.05,31,0,2.6742,,,,,,333,0,333,0,1,,,,,
,,260398,001,2023-07-24_20h05.23.488,arm3_eps,2022.2.5,Win32,60.0240096,5eaf3e142627076426921b1b,64aea9d0f615b6559c281482,64becb61a025de839d90a603,up,1,0.3,0.05,31,0,2.9759,,,,,,334,0,334,0,1,,,,,
,,260398,001,2023-07-24_20h05.23.488,arm3_eps,2022.2.5,Win32,60.0240096,5eaf3e142627076426921b1b,64aea9d0f615b6559c281482,64becb61a025de839d90a603,up,1,0.3,0.05,32,0,1.179,,,,,,335,0,335,0,1,,,,,
,,260398,001,2023-07-24_20h05.23.488,arm3_eps,2022.2.5,Win32,60.0240096,5eaf3e142627076426921b1b,64aea9d0f615b6559c281482,64becb61a025de839d90a603,up,1,0.3,0.05,32,0,1.1559,,,,,,336,0,336,0,1,,,,,
,,260398,001,2023-07-24_20h05.23.488,arm3_eps,2022.2.5,Win32,60.0240096,5eaf3e142627076426921b1b,64aea9d0f615b6559c281482,64becb61a025de839d90a603,up,1,0.3,0.05,32,0,1.141,,,,,,337,0,337,0,1,,,,,
,,260398,001,2023-07-24_20h05.23.488,arm3_eps,2022.2.5,Win32,60.0240096,5eaf3e142627076426921b1b,64aea9d0f615b6559c281482,64becb61a025de839d90a603,down,1,0.3,0.05,32,0,1.6214,,,,,,338,0,338,0,1,,,,,
,,260398,001,2023-07-24_20h05.23.488,arm3_eps,2022.2.5,Win32,60.0240096,5eaf3e142627076426921b1b,64aea9d0f615b6559c281482,64becb61a025de839d90a603,down,1,0.3,0.05,32,0,3.1967,,,,,,339,0,339,0,1,,,,,
,,260398,001,2023-07-24_20h05.23.488,arm3_eps,2022.2.5,Win32,60.0240096,5eaf3e142627076426921b1b,64aea9d0f615b6559c281482,64becb61a025de839d90a603,up,1,0.3,0.05,33,0,1.5185,,,,,,340,0,340,0,1,,,,,
,,260398,001,2023-07-24_20h05.23.488,arm3_eps,2022.2.5,Win32,60.0240096,5eaf3e142627076426921b1b,64aea9d0f615b6559c281482,64becb61a025de839d90a603,up,1,0.3,0.05,34,0,1.3579,,,,,,341,0,341,0,1,,,,,
,,260398,001,2023-07-24_20h05.23.488,arm3_eps,2022.2.5,Win32,60.0240096,5eaf3e142627076426921b1b,64aea9d0f615b6559c281482,64becb61a025de839d90a603,down,1,0.3,0.05,34,0,1.8321,,,,,,342,0,342,0,1,,,,,
,,260398,001,2023-07-24_20h05.23.488,arm3_eps,2022.2.5,Win32,60.0240096,5eaf3e142627076426921b1b,64aea9d0f615b6559c281482,64becb61a025de839d90a603,up,1,0.3,0.05,35,0,1.2481,,,,,,343,0,343,0,1,,,,,
,,260398,001,2023-07-24_20h05.23.488,arm3_eps,2022.2.5,Win32,60.0240096,5eaf3e142627076426921b1b,64aea9d0f615b6559c281482,64becb61a025de839d90a603,up,1,0.3,0.05,35,0,2.3567,,,,,,344,0,344,0,1,,,,,
,,260398,001,2023-07-24_20h05.23.488,arm3_eps,2022.2.5,Win32,60.0240096,5eaf3e142627076426921b1b,64aea9d0f615b6559c281482,64becb61a025de839d90a603,up,1,0.3,0.05,35,0,1.4903,,,,,,345,0,345,0,1,,,,,
,,260398,001,2023-07-24_20h05.23.488,arm3_eps,2022.2.5,Win32,60.0240096,5eaf3e142627076426921b1b,64aea9d0f615b6559c281482,64becb61a025de839d90a603,down,-1,0.3,0.05,34,0,1.3998,,,,,,346,0,346,0,1,,,,,
,,260398,001,2023-07-24_20h05.23.488,arm3_eps,2022.2.5,Win32,60.0240096,5eaf3e142627076426921b1b,64aea9d0f615b6559c281482,64becb61a025de839d90a603,down,-1,0.3,0.05,35,0,1.2633,,,,,,347,0,347,0,1,,,,,
,,260398,001,2023-07-24_20h05.23.488,arm3_eps,2022.2.5,Win32,60.0240096,5eaf3e142627076426921b1b,64aea9d0f615b6559c281482,64becb61a025de839d90a603,down,-1,0.3,0.05,36,0,1.1014,,,,,,348,0,348,0,1,,,,,
,,260398,001,2023-07-24_20h05.23.488,arm3_eps,2022.2.5,Win32,60.0240096,5eaf3e142627076426921b1b,64aea9d0f615b6559c281482,64becb61a025de839d90a603,down,-1,0.3,0.05,36,0,1.4747,,,,,,349,0,349,0,1,,,,,
,,260398,001,2023-07-24_20h05.23.488,arm3_eps,2022.2.5,Win32,60.0240096,5eaf3e142627076426921b1b,64aea9d0f615b6559c281482,64becb61a025de839d90a603,down,-1,0.3,0.05,36,0,1.5073,,,,,,350,0,350,0,1,,,,,
,,260398,001,2023-07-24_20h05.23.488,arm3_eps,2022.2.5,Win32,60.0240096,5eaf3e142627076426921b1b,64aea9d0f615b6559c281482,64becb61a025de839d90a603,down,-1,0.3,0.05,36,0,1.7192,,,,,,351,0,351,0,1,,,,,
,,260398,001,2023-07-24_20h05.23.488,arm3_eps,2022.2.5,Win32,60.0240096,5eaf3e142627076426921b1b,64aea9d0f615b6559c281482,64becb61a025de839d90a603,down,-1,0.3,0.05,36,0,1.8135,,,,,,352,0,352,0,1,,,,,
,,260398,001,2023-07-24_20h05.23.488,arm3_eps,2022.2.5,Win32,60.0240096,5eaf3e142627076426921b1b,64aea9d0f615b6559c281482,64becb61a025de839d90a603,down,-1,0.3,0.05,36,0,1.25,,,,,,353,0,353,0,1,,,,,
,,260398,001,2023-07-24_20h05.23.488,arm3_eps,2022.2.5,Win32,60.0240096,5eaf3e142627076426921b1b,64aea9d0f615b6559c281482,64becb61a025de839d90a603,down,-1,0.3,0.05,36,0,1.5343,,,,,,354,0,354,0,1,,,,,
,,260398,001,2023-07-24_20h05.23.488,arm3_eps,2022.2.5,Win32,60.0240096,5eaf3e142627076426921b1b,64aea9d0f615b6559c281482,64becb61a025de839d90a603,down,-1,0.3,0.05,36,0,2.1778,,,,,,355,0,355,0,1,,,,,
,,260398,001,2023-07-24_20h05.23.488,arm3_eps,2022.2.5,Win32,60.0240096,5eaf3e142627076426921b1b,64aea9d0f615b6559c281482,64becb61a025de839d90a603,up,-1,0.3,0.05,36,0,1.2006,,,,,,356,0,356,0,1,,,,,
,,260398,001,2023-07-24_20h05.23.488,arm3_eps,2022.2.5,Win32,60.0240096,5eaf3e142627076426921b1b,64aea9d0f615b6559c281482,64becb61a025de839d90a603,up,-1,0.3,0.05,36,0,1.3874,,,,,,357,0,357,0,1,,,,,
,,260398,001,2023-07-24_20h05.23.488,arm3_eps,2022.2.5,Win32,60.0240096,5eaf3e142627076426921b1b,64aea9d0f615b6559c281482,64becb61a025de839d90a603,down,-1,0.3,0.05,36,0,0.9372,,,,,,358,0,358,0,1,,,,,
,,260398,001,2023-07-24_20h05.23.488,arm3_eps,2022.2.5,Win32,60.0240096,5eaf3e142627076426921b1b,64aea9d0f615b6559c281482,64becb61a025de839d90a603,down,-1,0.3,0.05,36,0,1.3987,,,,,,359,0,359,0,1,,,,,
,,260398,001,2023-07-24_20h05.23.488,arm3_eps,2022.2.5,Win32,60.0240096,5eaf3e142627076426921b1b,64aea9d0f615b6559c281482,64becb61a025de839d90a603,down,-1,0.3,0.05,36,0,1.3624,,,,,,360,0,360,0,1,,,,,
,,260398,001,2023-07-24_20h05.23.488,arm3_eps,2022.2.5,Win32,60.0240096,5eaf3e142627076426921b1b,64aea9d0f615b6559c281482,64becb61a025de839d90a603,up,-1,0.3,0.05,36,0,0.8697,,,,,,361,0,361,0,1,,,,,
,,260398,001,2023-07-24_20h05.23.488,arm3_eps,2022.2.5,Win32,60.0240096,5eaf3e142627076426921b1b,64aea9d0f615b6559c281482,64becb61a025de839d90a603,up,-1,0.3,0.05,35,0,0.8265,,,,,,362,0,362,0,1,,,,,
,,260398,001,2023-07-24_20h05.23.488,arm3_eps,2022.2.5,Win32,60.0240096,5eaf3e142627076426921b1b,64aea9d0f615b6559c281482,64becb61a025de839d90a603,up,-1,0.3,0.05,34,0,0.8787,,,,,,363,0,363,0,1,,,,,
,,260398,001,2023-07-24_20h05.23.488,arm3_eps,2022.2.5,Win32,60.0240096,5eaf3e142627076426921b1b,64aea9d0f615b6559c281482,64becb61a025de839d90a603,up,-1,0.3,0.05,34,0,0.9817,,,,,,364,0,364,0,1,,,,,
,,260398,001,2023-07-24_20h05.23.488,arm3_eps,2022.2.5,Win32,60.0240096,5eaf3e142627076426921b1b,64aea9d0f615b6559c281482,64becb61a025de839d90a603,up,-1,0.3,0.05,34,0,1.0262,,,,,,365,0,365,0,1,,,,,
,,260398,001,2023-07-24_20h05.23.488,arm3_eps,2022.2.5,Win32,60.0240096,5eaf3e142627076426921b1b,64aea9d0f615b6559c281482,64becb61a025de839d90a603,up,-1,0.3,0.05,34,0,0.9759,,,,,,366,0,366,0,1,,,,,
,,260398,001,2023-07-24_20h05.23.488,arm3_eps,2022.2.5,Win32,60.0240096,5eaf3e142627076426921b1b,64aea9d0f615b6559c281482,64becb61a025de839d90a603,up,-1,0.3,0.05,34,0,1.0018,,,,,,367,0,367,0,1,,,,,
,,260398,001,2023-07-24_20h05.23.488,arm3_eps,2022.2.5,Win32,60.0240096,5eaf3e142627076426921b1b,64aea9d0f615b6559c281482,64becb61a025de839d90a603,up,-1,0.3,0.05,33,0,0.8775,,,,,,368,0,368,0,1,,,,,
,,260398,001,2023-07-24_20h05.23.488,arm3_eps,2022.2.5,Win32,60.0240096,5eaf3e142627076426921b1b,64aea9d0f615b6559c281482,64becb61a025de839d90a603,up,-1,0.3,0.05,33,0,0.8793,,,,,,369,0,369,0,1,,,,,
,,260398,001,2023-07-24_20h05.23.488,arm3_eps,2022.2.5,Win32,60.0240096,5eaf3e142627076426921b1b,64aea9d0f615b6559c281482,64becb61a025de839d90a603,,,,,,,,,,,,,,,,,,0,0,0,0,1
space,3.8758,260398,001,2023-07-24_20h05.23.488,arm3_eps,2022.2.5,Win32,60.0240096,5eaf3e142627076426921b1b,64aea9d0f615b6559c281482,64becb61a025de839d90a603,up,-1,0.3,0.1786,32,0,5.2951,,,,,,0,0,0,0,1,,,,,
,,260398,001,2023-07-24_20h05.23.488,arm3_eps,2022.2.5,Win32,60.0240096,5eaf3e142627076426921b1b,64aea9d0f615b6559c281482,64becb61a025de839d90a603,up,-1,0.3,0.1786,32,0,1.3041,,,,,,1,0,1,0,1,,,,,
,,260398,001,2023-07-24_20h05.23.488,arm3_eps,2022.2.5,Win32,60.0240096,5eaf3e142627076426921b1b,64aea9d0f615b6559c281482,64becb61a025de839d90a603,up,-1,0.3,0.1786,32,0,2.1431,,,,,,2,0,2,0,1,,,,,
,,260398,001,2023-07-24_20h05.23.488,arm3_eps,2022.2.5,Win32,60.0240096,5eaf3e142627076426921b1b,64aea9d0f615b6559c281482,64becb61a025de839d90a603,down,1,0.3,0.1786,32,0,0.8563,,,,,,3,0,3,0,1,,,,,
,,260398,001,2023-07-24_20h05.23.488,arm3_eps,2022.2.5,Win32,60.0240096,5eaf3e142627076426921b1b,64aea9d0f615b6559c281482,64becb61a025de839d90a603,down,1,0.3,0.1786,31,0,1.3164,,,,,,4,0,4,0,1,,,,,
,,260398,001,2023-07-24_20h05.23.488,arm3_eps,2022.2.5,Win32,60.0240096,5eaf3e142627076426921b1b,64aea9d0f615b6559c281482,64becb61a025de839d90a603,up,1,0.3,0.1786,31,0,1.0469,,,,,,5,0,5,0,1,,,,,
,,260398,001,2023-07-24_20h05.23.488,arm3_eps,2022.2.5,Win32,60.0240096,5eaf3e142627076426921b1b,64aea9d0f615b6559c281482,64becb61a025de839d90a603,up,1,0.3,0.1786,32,0,1.2555,,,,,,6,0,6,0,1,,,,,
,,260398,001,2023-07-24_20h05.23.488,arm3_eps,2022.2.5,Win32,60.0240096,5eaf3e142627076426921b1b,64aea9d0f615b6559c281482,64becb61a025de839d90a603,up,1,0.3,0.1786,32,0,1.1512,,,,,,7,0,7,0,1,,,,,
,,260398,001,2023-07-24_20h05.23.488,arm3_eps,2022.2.5,Win32,60.0240096,5eaf3e142627076426921b1b,64aea9d0f615b6559c281482,64becb61a025de839d90a603,down,-1,0.3,0.1786,32,0,1.1074,,,,,,8,0,8,0,1,,,,,
,,260398,001,2023-07-24_20h05.23.488,arm3_eps,2022.2.5,Win32,60.0240096,5eaf3e142627076426921b1b,64aea9d0f615b6559c281482,64becb61a025de839d90a603,down,-1,0.3,0.1786,32,0,1.3353,,,,,,9,0,9,0,1,,,,,
,,260398,001,2023-07-24_20h05.23.488,arm3_eps,2022.2.5,Win32,60.0240096,5eaf3e142627076426921b1b,64aea9d0f615b6559c281482,64becb61a025de839d90a603,up,-1,0.3,0.1786,31,0,1.264,,,,,,10,0,10,0,1,,,,,
,,260398,001,2023-07-24_20h05.23.488,arm3_eps,2022.2.5,Win32,60.0240096,5eaf3e142627076426921b1b,64aea9d0f615b6559c281482,64becb61a025de839d90a603,down,1,0.3,0.1786,32,0,0.8484,,,,,,11,0,11,0,1,,,,,
,,260398,001,2023-07-24_20h05.23.488,arm3_eps,2022.2.5,Win32,60.0240096,5eaf3e142627076426921b1b,64aea9d0f615b6559c281482,64becb61a025de839d90a603,down,1,0.3,0.1786,32,0,1.2767,,,,,,12,0,12,0,1,,,,,
,,260398,001,2023-07-24_20h05.23.488,arm3_eps,2022.2.5,Win32,60.0240096,5eaf3e142627076426921b1b,64aea9d0f615b6559c281482,64becb61a025de839d90a603,up,1,0.3,0.1786,32,0,1.0714,,,,,,13,0,13,0,1,,,,,
,,260398,001,2023-07-24_20h05.23.488,arm3_eps,2022.2.5,Win32,60.0240096,5eaf3e142627076426921b1b,64aea9d0f615b6559c281482,64becb61a025de839d90a603,up,1,0.3,0.1786,33,0,1.5244,,,,,,14,0,14,0,1,,,,,
,,260398,001,2023-07-24_20h05.23.488,arm3_eps,2022.2.5,Win32,60.0240096,5eaf3e142627076426921b1b,64aea9d0f615b6559c281482,64becb61a025de839d90a603,up,1,0.3,0.1786,33,0,1.1194,,,,,,15,0,15,0,1,,,,,
,,260398,001,2023-07-24_20h05.23.488,arm3_eps,2022.2.5,Win32,60.0240096,5eaf3e142627076426921b1b,64aea9d0f615b6559c281482,64becb61a025de839d90a603,up,1,0.3,0.1786,33,0,1.251,,,,,,16,0,16,0,1,,,,,
,,260398,001,2023-07-24_20h05.23.488,arm3_eps,2022.2.5,Win32,60.0240096,5eaf3e142627076426921b1b,64aea9d0f615b6559c281482,64becb61a025de839d90a603,down,1,0.3,0.1786,33,0,1.4581,,,,,,17,0,17,0,1,,,,,
,,260398,001,2023-07-24_20h05.23.488,arm3_eps,2022.2.5,Win32,60.0240096,5eaf3e142627076426921b1b,64aea9d0f615b6559c281482,64becb61a025de839d90a603,up,1,0.3,0.1786,33,0,0.8679,,,,,,18,0,18,0,1,,,,,
,,260398,001,2023-07-24_20h05.23.488,arm3_eps,2022.2.5,Win32,60.0240096,5eaf3e142627076426921b1b,64aea9d0f615b6559c281482,64becb61a025de839d90a603,down,1,0.3,0.1786,32,0,0.8981,,,,,,19,0,19,0,1,,,,,
,,260398,001,2023-07-24_20h05.23.488,arm3_eps,2022.2.5,Win32,60.0240096,5eaf3e142627076426921b1b,64aea9d0f615b6559c281482,64becb61a025de839d90a603,up,1,0.3,0.1786,32,0,1.0842,,,,,,20,0,20,0,1,,,,,
,,260398,001,2023-07-24_20h05.23.488,arm3_eps,2022.2.5,Win32,60.0240096,5eaf3e142627076426921b1b,64aea9d0f615b6559c281482,64becb61a025de839d90a603,up,1,0.3,0.1786,33,0,1.0798,,,,,,21,0,21,0,1,,,,,
,,260398,001,2023-07-24_20h05.23.488,arm3_eps,2022.2.5,Win32,60.0240096,5eaf3e142627076426921b1b,64aea9d0f615b6559c281482,64becb61a025de839d90a603,up,1,0.3,0.1786,33,0,1.6059,,,,,,22,0,22,0,1,,,,,
,,260398,001,2023-07-24_20h05.23.488,arm3_eps,2022.2.5,Win32,60.0240096,5eaf3e142627076426921b1b,64aea9d0f615b6559c281482,64becb61a025de839d90a603,up,-1,0.3,0.1786,33,0,1.4925,,,,,,23,0,23,0,1,,,,,
,,260398,001,2023-07-24_20h05.23.488,arm3_eps,2022.2.5,Win32,60.0240096,5eaf3e142627076426921b1b,64aea9d0f615b6559c281482,64becb61a025de839d90a603,down,-1,0.3,0.1786,33,0,1.4314,,,,,,24,0,24,0,1,,,,,
,,260398,001,2023-07-24_20h05.23.488,arm3_eps,2022.2.5,Win32,60.0240096,5eaf3e142627076426921b1b,64aea9d0f615b6559c281482,64becb61a025de839d90a603,down,1,0.3,0.1786,34,0,1.1807,,,,,,25,0,25,0,1,,,,,
,,260398,001,2023-07-24_20h05.23.488,arm3_eps,2022.2.5,Win32,60.0240096,5eaf3e142627076426921b1b,64aea9d0f615b6559c281482,64becb61a025de839d90a603,down,-1,0.3,0.1786,33,0,2.4238,,,,,,26,0,26,0,1,,,,,
,,260398,001,2023-07-24_20h05.23.488,arm3_eps,2022.2.5,Win32,60.0240096,5eaf3e142627076426921b1b,64aea9d0f615b6559c281482,64becb61a025de839d90a603,down,-1,0.3,0.1786,34,0,1.7154,,,,,,27,0,27,0,1,,,,,
,,260398,001,2023-07-24_20h05.23.488,arm3_eps,2022.2.5,Win32,60.0240096,5eaf3e142627076426921b1b,64aea9d0f615b6559c281482,64becb61a025de839d90a603,up,-1,0.3,0.1786,33,0,2.4802,,,,,,28,0,28,0,1,,,,,
,,260398,001,2023-07-24_20h05.23.488,arm3_eps,2022.2.5,Win32,60.0240096,5eaf3e142627076426921b1b,64aea9d0f615b6559c281482,64becb61a025de839d90a603,up,-1,0.3,0.1786,33,0,1.9891,,,,,,29,0,29,0,1,,,,,
,,260398,001,2023-07-24_20h05.23.488,arm3_eps,2022.2.5,Win32,60.0240096,5eaf3e142627076426921b1b,64aea9d0f615b6559c281482,64becb61a025de839d90a603,up,-1,0.3,0.1786,32,0,1.1868,,,,,,30,0,30,0,1,,,,,
,,260398,001,2023-07-24_20h05.23.488,arm3_eps,2022.2.5,Win32,60.0240096,5eaf3e142627076426921b1b,64aea9d0f615b6559c281482,64becb61a025de839d90a603,down,-1,0.3,0.1786,33,0,1.451,,,,,,31,0,31,0,1,,,,,
,,260398,001,2023-07-24_20h05.23.488,arm3_eps,2022.2.5,Win32,60.0240096,5eaf3e142627076426921b1b,64aea9d0f615b6559c281482,64becb61a025de839d90a603,up,1,0.3,0.1786,33,0,1.4872,,,,,,32,0,32,0,1,,,,,
,,260398,001,2023-07-24_20h05.23.488,arm3_eps,2022.2.5,Win32,60.0240096,5eaf3e142627076426921b1b,64aea9d0f615b6559c281482,64becb61a025de839d90a603,up,1,0.3,0.1786,34,0,1.2616,,,,,,33,0,33,0,1,,,,,
,,260398,001,2023-07-24_20h05.23.488,arm3_eps,2022.2.5,Win32,60.0240096,5eaf3e142627076426921b1b,64aea9d0f615b6559c281482,64becb61a025de839d90a603,up,1,0.3,0.1786,34,0,1.2576,,,,,,34,0,34,0,1,,,,,
,,260398,001,2023-07-24_20h05.23.488,arm3_eps,2022.2.5,Win32,60.0240096,5eaf3e142627076426921b1b,64aea9d0f615b6559c281482,64becb61a025de839d90a603,up,1,0.3,0.1786,34,0,1.4143,,,,,,35,0,35,0,1,,,,,
,,260398,001,2023-07-24_20h05.23.488,arm3_eps,2022.2.5,Win32,60.0240096,5eaf3e142627076426921b1b,64aea9d0f615b6559c281482,64becb61a025de839d90a603,up,1,0.3,0.1786,34,0,4.1099,,,,,,36,0,36,0,1,,,,,
,,260398,001,2023-07-24_20h05.23.488,arm3_eps,2022.2.5,Win32,60.0240096,5eaf3e142627076426921b1b,64aea9d0f615b6559c281482,64becb61a025de839d90a603,up,1,0.3,0.1786,34,0,1.1303,,,,,,37,0,37,0,1,,,,,
,,260398,001,2023-07-24_20h05.23.488,arm3_eps,2022.2.5,Win32,60.0240096,5eaf3e142627076426921b1b,64aea9d0f615b6559c281482,64becb61a025de839d90a603,up,1,0.3,0.1786,34,0,3.6035,,,,,,38,0,38,0,1,,,,,
,,260398,001,2023-07-24_20h05.23.488,arm3_eps,2022.2.5,Win32,60.0240096,5eaf3e142627076426921b1b,64aea9d0f615b6559c281482,64becb61a025de839d90a603,up,1,0.3,0.1786,34,0,1.0804,,,,,,39,0,39,0,1,,,,,
,,260398,001,2023-07-24_20h05.23.488,arm3_eps,2022.2.5,Win32,60.0240096,5eaf3e142627076426921b1b,64aea9d0f615b6559c281482,64becb61a025de839d90a603,up,1,0.3,0.1786,34,0,1.2008,,,,,,40,0,40,0,1,,,,,
,,260398,001,2023-07-24_20h05.23.488,arm3_eps,2022.2.5,Win32,60.0240096,5eaf3e142627076426921b1b,64aea9d0f615b6559c281482,64becb61a025de839d90a603,down,1,0.3,0.1786,34,0,1.4372,,,,,,41,0,41,0,1,,,,,
,,260398,001,2023-07-24_20h05.23.488,arm3_eps,2022.2.5,Win32,60.0240096,5eaf3e142627076426921b1b,64aea9d0f615b6559c281482,64becb61a025de839d90a603,up,1,0.3,0.1786,35,0,1.7235,,,,,,42,0,42,0,1,,,,,
,,260398,001,2023-07-24_20h05.23.488,arm3_eps,2022.2.5,Win32,60.0240096,5eaf3e142627076426921b1b,64aea9d0f615b6559c281482,64becb61a025de839d90a603,up,1,0.3,0.1786,35,0,1.4928,,,,,,43,0,43,0,1,,,,,
,,260398,001,2023-07-24_20h05.23.488,arm3_eps,2022.2.5,Win32,60.0240096,5eaf3e142627076426921b1b,64aea9d0f615b6559c281482,64becb61a025de839d90a603,down,1,0.3,0.1786,35,0,1.3238,,,,,,44,0,44,0,1,,,,,
,,260398,001,2023-07-24_20h05.23.488,arm3_eps,2022.2.5,Win32,60.0240096,5eaf3e142627076426921b1b,64aea9d0f615b6559c281482,64becb61a025de839d90a603,down,-1,0.3,0.1786,34,0,6.3691,,,,,,45,0,45,0,1,,,,,
,,260398,001,2023-07-24_20h05.23.488,arm3_eps,2022.2.5,Win32,60.0240096,5eaf3e142627076426921b1b,64aea9d0f615b6559c281482,64becb61a025de839d90a603,up,-1,0.3,0.1786,33,0,1.0817,,,,,,46,0,46,0,1,,,,,
,,260398,001,2023-07-24_20h05.23.488,arm3_eps,2022.2.5,Win32,60.0240096,5eaf3e142627076426921b1b,64aea9d0f615b6559c281482,64becb61a025de839d90a603,down,-1,0.3,0.1786,33,0,1.4338,,,,,,47,0,47,0,1,,,,,
,,260398,001,2023-07-24_20h05.23.488,arm3_eps,2022.2.5,Win32,60.0240096,5eaf3e142627076426921b1b,64aea9d0f615b6559c281482,64becb61a025de839d90a603,up,-1,0.3,0.1786,33,0,0.7421,,,,,,48,0,48,0,1,,,,,
,,260398,001,2023-07-24_20h05.23.488,arm3_eps,2022.2.5,Win32,60.0240096,5eaf3e142627076426921b1b,64aea9d0f615b6559c281482,64becb61a025de839d90a603,down,-1,0.3,0.1786,34,0,1.4182,,,,,,49,0,49,0,1,,,,,
,,260398,001,2023-07-24_20h05.23.488,arm3_eps,2022.2.5,Win32,60.0240096,5eaf3e142627076426921b1b,64aea9d0f615b6559c281482,64becb61a025de839d90a603,up,-1,0.3,0.1786,34,0,1.2998,,,,,,50,0,50,0,1,,,,,
,,260398,001,2023-07-24_20h05.23.488,arm3_eps,2022.2.5,Win32,60.0240096,5eaf3e142627076426921b1b,64aea9d0f615b6559c281482,64becb61a025de839d90a603,down,-1,0.3,0.1786,34,0,1.187,,,,,,51,0,51,0,1,,,,,
,,260398,001,2023-07-24_20h05.23.488,arm3_eps,2022.2.5,Win32,60.0240096,5eaf3e142627076426921b1b,64aea9d0f615b6559c281482,64becb61a025de839d90a603,up,-1,0.3,0.1786,34,0,1.2028,,,,,,52,0,52,0,1,,,,,
,,260398,001,2023-07-24_20h05.23.488,arm3_eps,2022.2.5,Win32,60.0240096,5eaf3e142627076426921b1b,64aea9d0f615b6559c281482,64becb61a025de839d90a603,up,-1,0.3,0.1786,34,0,2.4272,,,,,,53,0,53,0,1,,,,,
,,260398,001,2023-07-24_20h05.23.488,arm3_eps,2022.2.5,Win32,60.0240096,5eaf3e142627076426921b1b,64aea9d0f615b6559c281482,64becb61a025de839d90a603,down,-1,0.3,0.1786,34,0,1.3079,,,,,,54,0,54,0,1,,,,,
,,260398,001,2023-07-24_20h05.23.488,arm3_eps,2022.2.5,Win32,60.0240096,5eaf3e142627076426921b1b,64aea9d0f615b6559c281482,64becb61a025de839d90a603,down,-1,0.3,0.1786,34,0,2.5324,,,,,,55,0,55,0,1,,,,,
,,260398,001,2023-07-24_20h05.23.488,arm3_eps,2022.2.5,Win32,60.0240096,5eaf3e142627076426921b1b,64aea9d0f615b6559c281482,64becb61a025de839d90a603,down,-1,0.3,0.1786,34,0,1.8631,,,,,,56,0,56,0,1,,,,,
,,260398,001,2023-07-24_20h05.23.488,arm3_eps,2022.2.5,Win32,60.0240096,5eaf3e142627076426921b1b,64aea9d0f615b6559c281482,64becb61a025de839d90a603,up,-1,0.3,0.1786,34,0,4.8231,,,,,,57,0,57,0,1,,,,,
,,260398,001,2023-07-24_20h05.23.488,arm3_eps,2022.2.5,Win32,60.0240096,5eaf3e142627076426921b1b,64aea9d0f615b6559c281482,64becb61a025de839d90a603,down,-1,0.3,0.1786,34,0,2.8796,,,,,,58,0,58,0,1,,,,,
,,260398,001,2023-07-24_20h05.23.488,arm3_eps,2022.2.5,Win32,60.0240096,5eaf3e142627076426921b1b,64aea9d0f615b6559c281482,64becb61a025de839d90a603,down,-1,0.3,0.1786,34,0,1.5933,,,,,,59,0,59,0,1,,,,,
,,260398,001,2023-07-24_20h05.23.488,arm3_eps,2022.2.5,Win32,60.0240096,5eaf3e142627076426921b1b,64aea9d0f615b6559c281482,64becb61a025de839d90a603,up,-1,0.3,0.1786,34,0,2.9249,,,,,,60,0,60,0,1,,,,,
,,260398,001,2023-07-24_20h05.23.488,arm3_eps,2022.2.5,Win32,60.0240096,5eaf3e142627076426921b1b,64aea9d0f615b6559c281482,64becb61a025de839d90a603,up,-1,0.3,0.1786,33,0,3.1884,,,,,,61,0,61,0,1,,,,,
,,260398,001,2023-07-24_20h05.23.488,arm3_eps,2022.2.5,Win32,60.0240096,5eaf3e142627076426921b1b,64aea9d0f615b6559c281482,64becb61a025de839d90a603,up,1,0.3,0.1786,33,0,1.6367,,,,,,62,0,62,0,1,,,,,
,,260398,001,2023-07-24_20h05.23.488,arm3_eps,2022.2.5,Win32,60.0240096,5eaf3e142627076426921b1b,64aea9d0f615b6559c281482,64becb61a025de839d90a603,down,1,0.3,0.1786,32,0,2.5349,,,,,,63,0,63,0,1,,,,,
,,260398,001,2023-07-24_20h05.23.488,arm3_eps,2022.2.5,Win32,60.0240096,5eaf3e142627076426921b1b,64aea9d0f615b6559c281482,64becb61a025de839d90a603,up,1,0.3,0.1786,32,0,1.0663,,,,,,64,0,64,0,1,,,,,
,,260398,001,2023-07-24_20h05.23.488,arm3_eps,2022.2.5,Win32,60.0240096,5eaf3e142627076426921b1b,64aea9d0f615b6559c281482,64becb61a025de839d90a603,down,1,0.3,0.1786,32,0,4.8217,,,,,,65,0,65,0,1,,,,,
,,260398,001,2023-07-24_20h05.23.488,arm3_eps,2022.2.5,Win32,60.0240096,5eaf3e142627076426921b1b,64aea9d0f615b6559c281482,64becb61a025de839d90a603,down,1,0.3,0.1786,31,0,1.932,,,,,,66,0,66,0,1,,,,,
,,260398,001,2023-07-24_20h05.23.488,arm3_eps,2022.2.5,Win32,60.0240096,5eaf3e142627076426921b1b,64aea9d0f615b6559c281482,64becb61a025de839d90a603,up,1,0.3,0.1786,31,0,1.182,,,,,,67,0,67,0,1,,,,,
,,260398,001,2023-07-24_20h05.23.488,arm3_eps,2022.2.5,Win32,60.0240096,5eaf3e142627076426921b1b,64aea9d0f615b6559c281482,64becb61a025de839d90a603,up,-1,0.3,0.1786,31,0,2.0941,,,,,,68,0,68,0,1,,,,,
