space_bar.keys,space_bar.rt,participant,session,date,expName,psychopyVersion,OS,frameRate,PROLIFIC_PID,STUDY_ID,SESSION_ID,resp.keys,state,q_prob,eps_prob,score,price,resp.rt,train.thisRepN,train.thisTrialN,train.thisN,train.thisIndex,train.ran,steps.thisRepN,steps.thisTrialN,steps.thisN,steps.thisIndex,steps.ran,blocks.thisRepN,blocks.thisTrialN,blocks.thisN,blocks.thisIndex,blocks.ran
space,51.5441,295848,001,2023-07-24_22h06.17.317,arm3_eps,2022.2.5,MacIntel,59.99160118,611b85b65dbf96875b82ad9d,64aea9d0f615b6559c281482,64becb8ef877164c39521161,,,,,,,,,,,,,,,,,,,,,,
space,25.451,295848,001,2023-07-24_22h06.17.317,arm3_eps,2022.2.5,MacIntel,59.99160118,611b85b65dbf96875b82ad9d,64aea9d0f615b6559c281482,64becb8ef877164c39521161,,,,,,,,,,,,,,,,,,,,,,
space,17.964,295848,001,2023-07-24_22h06.17.317,arm3_eps,2022.2.5,MacIntel,59.99160118,611b85b65dbf96875b82ad9d,64aea9d0f615b6559c281482,64becb8ef877164c39521161,,,,,,,,,,,,,,,,,,,,,,
space,25.6143,295848,001,2023-07-24_22h06.17.317,arm3_eps,2022.2.5,MacIntel,59.99160118,611b85b65dbf96875b82ad9d,64aea9d0f615b6559c281482,64becb8ef877164c39521161,,,,,,,,,,,,,,,,,,,,,,
space,26.2641,295848,001,2023-07-24_22h06.17.317,arm3_eps,2022.2.5,MacIntel,59.99160118,611b85b65dbf96875b82ad9d,64aea9d0f615b6559c281482,64becb8ef877164c39521161,,,,,,,,,,,,,,,,,,,,,,
space,33.7648,295848,001,2023-07-24_22h06.17.317,arm3_eps,2022.2.5,MacIntel,59.99160118,611b85b65dbf96875b82ad9d,64aea9d0f615b6559c281482,64becb8ef877164c39521161,,,,,,,,,,,,,,,,,,,,,,
space,9.2112,295848,001,2023-07-24_22h06.17.317,arm3_eps,2022.2.5,MacIntel,59.99160118,611b85b65dbf96875b82ad9d,64aea9d0f615b6559c281482,64becb8ef877164c39521161,,,,,,,,,,,,,,,,,,,,,,
space,37.9953,295848,001,2023-07-24_22h06.17.317,arm3_eps,2022.2.5,MacIntel,59.99160118,611b85b65dbf96875b82ad9d,64aea9d0f615b6559c281482,64becb8ef877164c39521161,,,,,,,,,,,,,,,,,,,,,,
space,18.9479,295848,001,2023-07-24_22h06.17.317,arm3_eps,2022.2.5,MacIntel,59.99160118,611b85b65dbf96875b82ad9d,64aea9d0f615b6559c281482,64becb8ef877164c39521161,,,,,,,,,,,,,,,,,,,,,,
space,21.6615,295848,001,2023-07-24_22h06.17.317,arm3_eps,2022.2.5,MacIntel,59.99160118,611b85b65dbf96875b82ad9d,64aea9d0f615b6559c281482,64becb8ef877164c39521161,,,,,,,,,,,,,,,,,,,,,,
,,295848,001,2023-07-24_22h06.17.317,arm3_eps,2022.2.5,MacIntel,59.99160118,611b85b65dbf96875b82ad9d,64aea9d0f615b6559c281482,64becb8ef877164c39521161,down,-1,0.3,0.2429,0,0,5.9351,0,0,0,0,1,,,,,,,,,,
,,295848,001,2023-07-24_22h06.17.317,arm3_eps,2022.2.5,MacIntel,59.99160118,611b85b65dbf96875b82ad9d,64aea9d0f615b6559c281482,64becb8ef877164c39521161,up,1,0.3,0.2429,0,0,9.1192,1,0,1,0,1,,,,,,,,,,
,,295848,001,2023-07-24_22h06.17.317,arm3_eps,2022.2.5,MacIntel,59.99160118,611b85b65dbf96875b82ad9d,64aea9d0f615b6559c281482,64becb8ef877164c39521161,right,1,0.3,0.2429,0,0.002442249,3.707,2,0,2,0,1,,,,,,,,,,
,,295848,001,2023-07-24_22h06.17.317,arm3_eps,2022.2.5,MacIntel,59.99160118,611b85b65dbf96875b82ad9d,64aea9d0f615b6559c281482,64becb8ef877164c39521161,right,1,0.3,0.2429,0,0.005660756,3.3494,3,0,3,0,1,,,,,,,,,,
,,295848,001,2023-07-24_22h06.17.317,arm3_eps,2022.2.5,MacIntel,59.99160118,611b85b65dbf96875b82ad9d,64aea9d0f615b6559c281482,64becb8ef877164c39521161,right,1,0.3,0.2429,0,0.004961352,1.726,4,0,4,0,1,,,,,,,,,,
,,295848,001,2023-07-24_22h06.17.317,arm3_eps,2022.2.5,MacIntel,59.99160118,611b85b65dbf96875b82ad9d,64aea9d0f615b6559c281482,64becb8ef877164c39521161,right,1,0.3,0.2429,0,0.052946138,1.4155,5,0,5,0,1,,,,,,,,,,
,,295848,001,2023-07-24_22h06.17.317,arm3_eps,2022.2.5,MacIntel,59.99160118,611b85b65dbf96875b82ad9d,64aea9d0f615b6559c281482,64becb8ef877164c39521161,right,1,0.3,0.2429,0,0.031400576,1.8326,6,0,6,0,1,,,,,,,,,,
,,295848,001,2023-07-24_22h06.17.317,arm3_eps,2022.2.5,MacIntel,59.99160118,611b85b65dbf96875b82ad9d,64aea9d0f615b6559c281482,64becb8ef877164c39521161,right,1,0.3,0.2429,0,0.030160992,2.3361,7,0,7,0,1,,,,,,,,,,
,,295848,001,2023-07-24_22h06.17.317,arm3_eps,2022.2.5,MacIntel,59.99160118,611b85b65dbf96875b82ad9d,64aea9d0f615b6559c281482,64becb8ef877164c39521161,down,-1,0.3,0.2429,-1,0,0.8313,8,0,8,0,1,,,,,,,,,,
,,295848,001,2023-07-24_22h06.17.317,arm3_eps,2022.2.5,MacIntel,59.99160118,611b85b65dbf96875b82ad9d,64aea9d0f615b6559c281482,64becb8ef877164c39521161,right,-1,0.3,0.2429,-1,0.007861156,2.9941,9,0,9,0,1,,,,,,,,,,
,,295848,001,2023-07-24_22h06.17.317,arm3_eps,2022.2.5,MacIntel,59.99160118,611b85b65dbf96875b82ad9d,64aea9d0f615b6559c281482,64becb8ef877164c39521161,right,-1,0.3,0.2429,-1,-0.009122755,1.8653,10,0,10,0,1,,,,,,,,,,
,,295848,001,2023-07-24_22h06.17.317,arm3_eps,2022.2.5,MacIntel,59.99160118,611b85b65dbf96875b82ad9d,64aea9d0f615b6559c281482,64becb8ef877164c39521161,right,-1,0.3,0.2429,-1,-0.014950255,0.8522,11,0,11,0,1,,,,,,,,,,
,,295848,001,2023-07-24_22h06.17.317,arm3_eps,2022.2.5,MacIntel,59.99160118,611b85b65dbf96875b82ad9d,64aea9d0f615b6559c281482,64becb8ef877164c39521161,right,-1,0.3,0.2429,-1,-0.032724332,1.3179,12,0,12,0,1,,,,,,,,,,
,,295848,001,2023-07-24_22h06.17.317,arm3_eps,2022.2.5,MacIntel,59.99160118,611b85b65dbf96875b82ad9d,64aea9d0f615b6559c281482,64becb8ef877164c39521161,right,-1,0.3,0.2429,-1,-0.046195394,0.8331,13,0,13,0,1,,,,,,,,,,
,,295848,001,2023-07-24_22h06.17.317,arm3_eps,2022.2.5,MacIntel,59.99160118,611b85b65dbf96875b82ad9d,64aea9d0f615b6559c281482,64becb8ef877164c39521161,right,-1,0.3,0.2429,-1,-0.093027448,1.0482,14,0,14,0,1,,,,,,,,,,
,,295848,001,2023-07-24_22h06.17.317,arm3_eps,2022.2.5,MacIntel,59.99160118,611b85b65dbf96875b82ad9d,64aea9d0f615b6559c281482,64becb8ef877164c39521161,right,-1,0.3,0.2429,-1,-0.10009043,0.7476,15,0,15,0,1,,,,,,,,,,
,,295848,001,2023-07-24_22h06.17.317,arm3_eps,2022.2.5,MacIntel,59.99160118,611b85b65dbf96875b82ad9d,64aea9d0f615b6559c281482,64becb8ef877164c39521161,right,-1,0.3,0.2429,-1,-0.13644128,1.15,16,0,16,0,1,,,,,,,,,,
,,295848,001,2023-07-24_22h06.17.317,arm3_eps,2022.2.5,MacIntel,59.99160118,611b85b65dbf96875b82ad9d,64aea9d0f615b6559c281482,64becb8ef877164c39521161,right,-1,0.3,0.2429,-1,-0.140862852,0.5844,17,0,17,0,1,,,,,,,,,,
,,295848,001,2023-07-24_22h06.17.317,arm3_eps,2022.2.5,MacIntel,59.99160118,611b85b65dbf96875b82ad9d,64aea9d0f615b6559c281482,64becb8ef877164c39521161,right,-1,0.3,0.2429,-1,-0.134722444,1.2831,18,0,18,0,1,,,,,,,,,,
,,295848,001,2023-07-24_22h06.17.317,arm3_eps,2022.2.5,MacIntel,59.99160118,611b85b65dbf96875b82ad9d,64aea9d0f615b6559c281482,64becb8ef877164c39521161,down,-1,0.3,0.2429,0,0,0.9153,19,0,19,0,1,,,,,,,,,,
,,295848,001,2023-07-24_22h06.17.317,arm3_eps,2022.2.5,MacIntel,59.99160118,611b85b65dbf96875b82ad9d,64aea9d0f615b6559c281482,64becb8ef877164c39521161,right,-1,0.3,0.2429,0,-0.014482446,2.5474,20,0,20,0,1,,,,,,,,,,
,,295848,001,2023-07-24_22h06.17.317,arm3_eps,2022.2.5,MacIntel,59.99160118,611b85b65dbf96875b82ad9d,64aea9d0f615b6559c281482,64becb8ef877164c39521161,right,-1,0.3,0.2429,0,-0.011850435,0.8823,21,0,21,0,1,,,,,,,,,,
,,295848,001,2023-07-24_22h06.17.317,arm3_eps,2022.2.5,MacIntel,59.99160118,611b85b65dbf96875b82ad9d,64aea9d0f615b6559c281482,64becb8ef877164c39521161,down,-1,0.3,0.2429,0,0,1.8675,22,0,22,0,1,,,,,,,,,,
,,295848,001,2023-07-24_22h06.17.317,arm3_eps,2022.2.5,MacIntel,59.99160118,611b85b65dbf96875b82ad9d,64aea9d0f615b6559c281482,64becb8ef877164c39521161,up,-1,0.3,0.2429,0,0,1.6973,23,0,23,0,1,,,,,,,,,,
,,295848,001,2023-07-24_22h06.17.317,arm3_eps,2022.2.5,MacIntel,59.99160118,611b85b65dbf96875b82ad9d,64aea9d0f615b6559c281482,64becb8ef877164c39521161,right,-1,0.3,0.2429,0,-0.008017214,2.4003,24,0,24,0,1,,,,,,,,,,
,,295848,001,2023-07-24_22h06.17.317,arm3_eps,2022.2.5,MacIntel,59.99160118,611b85b65dbf96875b82ad9d,64aea9d0f615b6559c281482,64becb8ef877164c39521161,right,-1,0.3,0.2429,0,0.00040267,0.5826,25,0,25,0,1,,,,,,,,,,
,,295848,001,2023-07-24_22h06.17.317,arm3_eps,2022.2.5,MacIntel,59.99160118,611b85b65dbf96875b82ad9d,64aea9d0f615b6559c281482,64becb8ef877164c39521161,right,-1,0.3,0.2429,0,-0.035895379,0.5983,26,0,26,0,1,,,,,,,,,,
,,295848,001,2023-07-24_22h06.17.317,arm3_eps,2022.2.5,MacIntel,59.99160118,611b85b65dbf96875b82ad9d,64aea9d0f615b6559c281482,64becb8ef877164c39521161,right,-1,0.3,0.2429,0,-0.044668838,0.6837,27,0,27,0,1,,,,,,,,,,
,,295848,001,2023-07-24_22h06.17.317,arm3_eps,2022.2.5,MacIntel,59.99160118,611b85b65dbf96875b82ad9d,64aea9d0f615b6559c281482,64becb8ef877164c39521161,down,-1,0.3,0.2429,1,0,1.7177,28,0,28,0,1,,,,,,,,,,
,,295848,001,2023-07-24_22h06.17.317,arm3_eps,2022.2.5,MacIntel,59.99160118,611b85b65dbf96875b82ad9d,64aea9d0f615b6559c281482,64becb8ef877164c39521161,right,-1,0.3,0.2429,1,-0.006884545,4.6798,29,0,29,0,1,,,,,,,,,,
,,295848,001,2023-07-24_22h06.17.317,arm3_eps,2022.2.5,MacIntel,59.99160118,611b85b65dbf96875b82ad9d,64aea9d0f615b6559c281482,64becb8ef877164c39521161,right,-1,0.3,0.2429,1,-0.013613449,4.3248,30,0,30,0,1,,,,,,,,,,
,,295848,001,2023-07-24_22h06.17.317,arm3_eps,2022.2.5,MacIntel,59.99160118,611b85b65dbf96875b82ad9d,64aea9d0f615b6559c281482,64becb8ef877164c39521161,down,-1,0.3,0.2429,1,0,2.6445,31,0,31,0,1,,,,,,,,,,
,,295848,001,2023-07-24_22h06.17.317,arm3_eps,2022.2.5,MacIntel,59.99160118,611b85b65dbf96875b82ad9d,64aea9d0f615b6559c281482,64becb8ef877164c39521161,right,-1,0.3,0.2429,1,-0.021448705,1.898,32,0,32,0,1,,,,,,,,,,
,,295848,001,2023-07-24_22h06.17.317,arm3_eps,2022.2.5,MacIntel,59.99160118,611b85b65dbf96875b82ad9d,64aea9d0f615b6559c281482,64becb8ef877164c39521161,right,-1,0.3,0.2429,1,-0.029405173,0.7332,33,0,33,0,1,,,,,,,,,,
,,295848,001,2023-07-24_22h06.17.317,arm3_eps,2022.2.5,MacIntel,59.99160118,611b85b65dbf96875b82ad9d,64aea9d0f615b6559c281482,64becb8ef877164c39521161,up,-1,0.3,0.2429,1,0,1.0795,34,0,34,0,1,,,,,,,,,,
,,295848,001,2023-07-24_22h06.17.317,arm3_eps,2022.2.5,MacIntel,59.99160118,611b85b65dbf96875b82ad9d,64aea9d0f615b6559c281482,64becb8ef877164c39521161,up,1,0.3,0.2429,1,0,1.665,35,0,35,0,1,,,,,,,,,,
,,295848,001,2023-07-24_22h06.17.317,arm3_eps,2022.2.5,MacIntel,59.99160118,611b85b65dbf96875b82ad9d,64aea9d0f615b6559c281482,64becb8ef877164c39521161,right,1,0.3,0.2429,1,-0.017085403,1.6663,36,0,36,0,1,,,,,,,,,,
,,295848,001,2023-07-24_22h06.17.317,arm3_eps,2022.2.5,MacIntel,59.99160118,611b85b65dbf96875b82ad9d,64aea9d0f615b6559c281482,64becb8ef877164c39521161,right,1,0.3,0.2429,1,-0.052563659,0.6173,37,0,37,0,1,,,,,,,,,,
,,295848,001,2023-07-24_22h06.17.317,arm3_eps,2022.2.5,MacIntel,59.99160118,611b85b65dbf96875b82ad9d,64aea9d0f615b6559c281482,64becb8ef877164c39521161,right,1,0.3,0.2429,1,-0.041533378,0.6824,38,0,38,0,1,,,,,,,,,,
,,295848,001,2023-07-24_22h06.17.317,arm3_eps,2022.2.5,MacIntel,59.99160118,611b85b65dbf96875b82ad9d,64aea9d0f615b6559c281482,64becb8ef877164c39521161,right,1,0.3,0.2429,1,-0.04964069,0.8164,39,0,39,0,1,,,,,,,,,,
,,295848,001,2023-07-24_22h06.17.317,arm3_eps,2022.2.5,MacIntel,59.99160118,611b85b65dbf96875b82ad9d,64aea9d0f615b6559c281482,64becb8ef877164c39521161,up,1,0.3,0.2429,2,0,1.0994,40,0,40,0,1,,,,,,,,,,
,,295848,001,2023-07-24_22h06.17.317,arm3_eps,2022.2.5,MacIntel,59.99160118,611b85b65dbf96875b82ad9d,64aea9d0f615b6559c281482,64becb8ef877164c39521161,right,1,0.3,0.2429,2,0.001874765,1.8629,41,0,41,0,1,,,,,,,,,,
,,295848,001,2023-07-24_22h06.17.317,arm3_eps,2022.2.5,MacIntel,59.99160118,611b85b65dbf96875b82ad9d,64aea9d0f615b6559c281482,64becb8ef877164c39521161,up,1,0.3,0.2429,2,0,0.8005,42,0,42,0,1,,,,,,,,,,
,,295848,001,2023-07-24_22h06.17.317,arm3_eps,2022.2.5,MacIntel,59.99160118,611b85b65dbf96875b82ad9d,64aea9d0f615b6559c281482,64becb8ef877164c39521161,down,1,0.3,0.2429,1,0,2.8335,43,0,43,0,1,,,,,,,,,,
,,295848,001,2023-07-24_22h06.17.317,arm3_eps,2022.2.5,MacIntel,59.99160118,611b85b65dbf96875b82ad9d,64aea9d0f615b6559c281482,64becb8ef877164c39521161,right,1,0.3,0.2429,1,-0.018554052,2.7978,44,0,44,0,1,,,,,,,,,,
,,295848,001,2023-07-24_22h06.17.317,arm3_eps,2022.2.5,MacIntel,59.99160118,611b85b65dbf96875b82ad9d,64aea9d0f615b6559c281482,64becb8ef877164c39521161,up,1,0.3,0.2429,2,0,3.7927,45,0,45,0,1,,,,,,,,,,
,,295848,001,2023-07-24_22h06.17.317,arm3_eps,2022.2.5,MacIntel,59.99160118,611b85b65dbf96875b82ad9d,64aea9d0f615b6559c281482,64becb8ef877164c39521161,up,1,0.3,0.2429,2,0,6.7403,46,0,46,0,1,,,,,,,,,,
,,295848,001,2023-07-24_22h06.17.317,arm3_eps,2022.2.5,MacIntel,59.99160118,611b85b65dbf96875b82ad9d,64aea9d0f615b6559c281482,64becb8ef877164c39521161,right,1,0.3,0.2429,2,-0.005908203,1.8719,47,0,47,0,1,,,,,,,,,,
,,295848,001,2023-07-24_22h06.17.317,arm3_eps,2022.2.5,MacIntel,59.99160118,611b85b65dbf96875b82ad9d,64aea9d0f615b6559c281482,64becb8ef877164c39521161,up,1,0.3,0.2429,2,0,1.5839,48,0,48,0,1,,,,,,,,,,
,,295848,001,2023-07-24_22h06.17.317,arm3_eps,2022.2.5,MacIntel,59.99160118,611b85b65dbf96875b82ad9d,64aea9d0f615b6559c281482,64becb8ef877164c39521161,down,1,0.3,0.2429,2,0,3.6324,49,0,49,0,1,,,,,,,,,,
space,4.0591,295848,001,2023-07-24_22h06.17.317,arm3_eps,2022.2.5,MacIntel,59.99160118,611b85b65dbf96875b82ad9d,64aea9d0f615b6559c281482,64becb8ef877164c39521161,,,,,,,,,,,,,,,,,,,,,,
space,16.0756,295848,001,2023-07-24_22h06.17.317,arm3_eps,2022.2.5,MacIntel,59.99160118,611b85b65dbf96875b82ad9d,64aea9d0f615b6559c281482,64becb8ef877164c39521161,right,1,0.3,0.3714,0,0.002437603,3.2174,,,,,,0,0,0,0,1,,,,,
,,295848,001,2023-07-24_22h06.17.317,arm3_eps,2022.2.5,MacIntel,59.99160118,611b85b65dbf96875b82ad9d,64aea9d0f615b6559c281482,64becb8ef877164c39521161,right,1,0.3,0.3714,0,0.024426715,0.7838,,,,,,1,0,1,0,1,,,,,
,,295848,001,2023-07-24_22h06.17.317,arm3_eps,2022.2.5,MacIntel,59.99160118,611b85b65dbf96875b82ad9d,64aea9d0f615b6559c281482,64becb8ef877164c39521161,right,1,0.3,0.3714,0,0.060316207,0.7672,,,,,,2,0,2,0,1,,,,,
,,295848,001,2023-07-24_22h06.17.317,arm3_eps,2022.2.5,MacIntel,59.99160118,611b85b65dbf96875b82ad9d,64aea9d0f615b6559c281482,64becb8ef877164c39521161,right,1,0.3,0.3714,0,0.06318642,1.216,,,,,,3,0,3,0,1,,,,,
,,295848,001,2023-07-24_22h06.17.317,arm3_eps,2022.2.5,MacIntel,59.99160118,611b85b65dbf96875b82ad9d,64aea9d0f615b6559c281482,64becb8ef877164c39521161,right,1,0.3,0.3714,0,0.083968574,0.682,,,,,,4,0,4,0,1,,,,,
,,295848,001,2023-07-24_22h06.17.317,arm3_eps,2022.2.5,MacIntel,59.99160118,611b85b65dbf96875b82ad9d,64aea9d0f615b6559c281482,64becb8ef877164c39521161,right,1,0.3,0.3714,0,0.099032104,0.8861,,,,,,5,0,5,0,1,,,,,
,,295848,001,2023-07-24_22h06.17.317,arm3_eps,2022.2.5,MacIntel,59.99160118,611b85b65dbf96875b82ad9d,64aea9d0f615b6559c281482,64becb8ef877164c39521161,up,1,0.3,0.3714,1,0,1.0989,,,,,,6,0,6,0,1,,,,,
,,295848,001,2023-07-24_22h06.17.317,arm3_eps,2022.2.5,MacIntel,59.99160118,611b85b65dbf96875b82ad9d,64aea9d0f615b6559c281482,64becb8ef877164c39521161,right,1,0.3,0.3714,1,-0.003983797,1.1295,,,,,,7,0,7,0,1,,,,,
,,295848,001,2023-07-24_22h06.17.317,arm3_eps,2022.2.5,MacIntel,59.99160118,611b85b65dbf96875b82ad9d,64aea9d0f615b6559c281482,64becb8ef877164c39521161,right,1,0.3,0.3714,1,-0.033341805,0.4662,,,,,,8,0,8,0,1,,,,,
,,295848,001,2023-07-24_22h06.17.317,arm3_eps,2022.2.5,MacIntel,59.99160118,611b85b65dbf96875b82ad9d,64aea9d0f615b6559c281482,64becb8ef877164c39521161,right,1,0.3,0.3714,1,-0.024104742,0.4635,,,,,,9,0,9,0,1,,,,,
,,295848,001,2023-07-24_22h06.17.317,arm3_eps,2022.2.5,MacIntel,59.99160118,611b85b65dbf96875b82ad9d,64aea9d0f615b6559c281482,64becb8ef877164c39521161,right,1,0.3,0.3714,1,-0.03677107,0.5169,,,,,,10,0,10,0,1,,,,,
,,295848,001,2023-07-24_22h06.17.317,arm3_eps,2022.2.5,MacIntel,59.99160118,611b85b65dbf96875b82ad9d,64aea9d0f615b6559c281482,64becb8ef877164c39521161,right,1,0.3,0.3714,1,0.01140563,0.5824,,,,,,11,0,11,0,1,,,,,
,,295848,001,2023-07-24_22h06.17.317,arm3_eps,2022.2.5,MacIntel,59.99160118,611b85b65dbf96875b82ad9d,64aea9d0f615b6559c281482,64becb8ef877164c39521161,right,1,0.3,0.3714,1,0.050615032,0.832,,,,,,12,0,12,0,1,,,,,
,,295848,001,2023-07-24_22h06.17.317,arm3_eps,2022.2.5,MacIntel,59.99160118,611b85b65dbf96875b82ad9d,64aea9d0f615b6559c281482,64becb8ef877164c39521161,up,1,0.3,0.3714,1,0,0.6173,,,,,,13,0,13,0,1,,,,,
,,295848,001,2023-07-24_22h06.17.317,arm3_eps,2022.2.5,MacIntel,59.99160118,611b85b65dbf96875b82ad9d,64aea9d0f615b6559c281482,64becb8ef877164c39521161,right,1,0.3,0.3714,1,0.032893135,1.3996,,,,,,14,0,14,0,1,,,,,
,,295848,001,2023-07-24_22h06.17.317,arm3_eps,2022.2.5,MacIntel,59.99160118,611b85b65dbf96875b82ad9d,64aea9d0f615b6559c281482,64becb8ef877164c39521161,right,1,0.3,0.3714,1,0.042036016,0.434,,,,,,15,0,15,0,1,,,,,
,,295848,001,2023-07-24_22h06.17.317,arm3_eps,2022.2.5,MacIntel,59.99160118,611b85b65dbf96875b82ad9d,64aea9d0f615b6559c281482,64becb8ef877164c39521161,right,1,0.3,0.3714,1,0.060637328,0.9338,,,,,,16,0,16,0,1,,,,,
,,295848,001,2023-07-24_22h06.17.317,arm3_eps,2022.2.5,MacIntel,59.99160118,611b85b65dbf96875b82ad9d,64aea9d0f615b6559c281482,64becb8ef877164c39521161,right,1,0.3,0.3714,1,0.086009517,0.467,,,,,,17,0,17,0,1,,,,,
,,295848,001,2023-07-24_22h06.17.317,arm3_eps,2022.2.5,MacIntel,59.99160118,611b85b65dbf96875b82ad9d,64aea9d0f615b6559c281482,64becb8ef877164c39521161,right,1,0.3,0.3714,1,0.077542113,0.4678,,,,,,18,0,18,0,1,,,,,
,,295848,001,2023-07-24_22h06.17.317,arm3_eps,2022.2.5,MacIntel,59.99160118,611b85b65dbf96875b82ad9d,64aea9d0f615b6559c281482,64becb8ef877164c39521161,right,1,0.3,0.3714,1,0.075338363,0.4832,,,,,,19,0,19,0,1,,,,,
,,295848,001,2023-07-24_22h06.17.317,arm3_eps,2022.2.5,MacIntel,59.99160118,611b85b65dbf96875b82ad9d,64aea9d0f615b6559c281482,64becb8ef877164c39521161,right,1,0.3,0.3714,1,0.088268123,0.6647,,,,,,20,0,20,0,1,,,,,
,,295848,001,2023-07-24_22h06.17.317,arm3_eps,2022.2.5,MacIntel,59.99160118,611b85b65dbf96875b82ad9d,64aea9d0f615b6559c281482,64becb8ef877164c39521161,right,1,0.3,0.3714,1,0.124852679,0.6334,,,,,,21,0,21,0,1,,,,,
,,295848,001,2023-07-24_22h06.17.317,arm3_eps,2022.2.5,MacIntel,59.99160118,611b85b65dbf96875b82ad9d,64aea9d0f615b6559c281482,64becb8ef877164c39521161,up,1,0.3,0.3714,1,0,2.3185,,,,,,22,0,22,0,1,,,,,
,,295848,001,2023-07-24_22h06.17.317,arm3_eps,2022.2.5,MacIntel,59.99160118,611b85b65dbf96875b82ad9d,64aea9d0f615b6559c281482,64becb8ef877164c39521161,right,1,0.3,0.3714,1,-0.013523739,1.2838,,,,,,23,0,23,0,1,,,,,
,,295848,001,2023-07-24_22h06.17.317,arm3_eps,2022.2.5,MacIntel,59.99160118,611b85b65dbf96875b82ad9d,64aea9d0f615b6559c281482,64becb8ef877164c39521161,right,1,0.3,0.3714,1,0.029302829,0.4672,,,,,,24,0,24,0,1,,,,,
,,295848,001,2023-07-24_22h06.17.317,arm3_eps,2022.2.5,MacIntel,59.99160118,611b85b65dbf96875b82ad9d,64aea9d0f615b6559c281482,64becb8ef877164c39521161,right,1,0.3,0.3714,1,0.067707369,0.3653,,,,,,25,0,25,0,1,,,,,
,,295848,001,2023-07-24_22h06.17.317,arm3_eps,2022.2.5,MacIntel,59.99160118,611b85b65dbf96875b82ad9d,64aea9d0f615b6559c281482,64becb8ef877164c39521161,right,1,0.3,0.3714,1,0.064608053,0.4464,,,,,,26,0,26,0,1,,,,,
,,295848,001,2023-07-24_22h06.17.317,arm3_eps,2022.2.5,MacIntel,59.99160118,611b85b65dbf96875b82ad9d,64aea9d0f615b6559c281482,64becb8ef877164c39521161,right,1,0.3,0.3714,1,0.071148414,0.4178,,,,,,27,0,27,0,1,,,,,
,,295848,001,2023-07-24_22h06.17.317,arm3_eps,2022.2.5,MacIntel,59.99160118,611b85b65dbf96875b82ad9d,64aea9d0f615b6559c281482,64becb8ef877164c39521161,right,1,0.3,0.3714,1,0.073635863,0.5504,,,,,,28,0,28,0,1,,,,,
,,295848,001,2023-07-24_22h06.17.317,arm3_eps,2022.2.5,MacIntel,59.99160118,611b85b65dbf96875b82ad9d,64aea9d0f615b6559c281482,64becb8ef877164c39521161,right,1,0.3,0.3714,1,0.098158789,0.6503,,,,,,29,0,29,0,1,,,,,
,,295848,001,2023-07-24_22h06.17.317,arm3_eps,2022.2.5,MacIntel,59.99160118,611b85b65dbf96875b82ad9d,64aea9d0f615b6559c281482,64becb8ef877164c39521161,down,1,0.3,0.3714,1,0,0.7668,,,,,,30,0,30,0,1,,,,,
,,295848,001,2023-07-24_22h06.17.317,arm3_eps,2022.2.5,MacIntel,59.99160118,611b85b65dbf96875b82ad9d,64aea9d0f615b6559c281482,64becb8ef877164c39521161,up,1,0.3,0.3714,2,0,1.6648,,,,,,31,0,31,0,1,,,,,
,,295848,001,2023-07-24_22h06.17.317,arm3_eps,2022.2.5,MacIntel,59.99160118,611b85b65dbf96875b82ad9d,64aea9d0f615b6559c281482,64becb8ef877164c39521161,right,1,0.3,0.3714,2,-0.002104912,1.5977,,,,,,32,0,32,0,1,,,,,
,,295848,001,2023-07-24_22h06.17.317,arm3_eps,2022.2.5,MacIntel,59.99160118,611b85b65dbf96875b82ad9d,64aea9d0f615b6559c281482,64becb8ef877164c39521161,right,1,0.3,0.3714,2,0.019195948,0.3359,,,,,,33,0,33,0,1,,,,,
,,295848,001,2023-07-24_22h06.17.317,arm3_eps,2022.2.5,MacIntel,59.99160118,611b85b65dbf96875b82ad9d,64aea9d0f615b6559c281482,64becb8ef877164c39521161,right,1,0.3,0.3714,2,0.024321666,0.3666,,,,,,34,0,34,0,1,,,,,
,,295848,001,2023-07-24_22h06.17.317,arm3_eps,2022.2.5,MacIntel,59.99160118,611b85b65dbf96875b82ad9d,64aea9d0f615b6559c281482,64becb8ef877164c39521161,right,1,0.3,0.3714,2,0.050927627,0.3836,,,,,,35,0,35,0,1,,,,,
,,295848,001,2023-07-24_22h06.17.317,arm3_eps,2022.2.5,MacIntel,59.99160118,611b85b65dbf96875b82ad9d,64aea9d0f615b6559c281482,64becb8ef877164c39521161,right,1,0.3,0.3714,2,0.071306939,0.6844,,,,,,36,0,36,0,1,,,,,
,,295848,001,2023-07-24_22h06.17.317,arm3_eps,2022.2.5,MacIntel,59.99160118,611b85b65dbf96875b82ad9d,64aea9d0f615b6559c281482,64becb8ef877164c39521161,up,1,0.3,0.3714,3,0,1.101,,,,,,37,0,37,0,1,,,,,
,,295848,001,2023-07-24_22h06.17.317,arm3_eps,2022.2.5,MacIntel,59.99160118,611b85b65dbf96875b82ad9d,64aea9d0f615b6559c281482,64becb8ef877164c39521161,right,1,0.3,0.3714,3,-0.004934951,1.1819,,,,,,38,0,38,0,1,,,,,
,,295848,001,2023-07-24_22h06.17.317,arm3_eps,2022.2.5,MacIntel,59.99160118,611b85b65dbf96875b82ad9d,64aea9d0f615b6559c281482,64becb8ef877164c39521161,right,1,0.3,0.3714,3,-0.026519735,0.3487,,,,,,39,0,39,0,1,,,,,
,,295848,001,2023-07-24_22h06.17.317,arm3_eps,2022.2.5,MacIntel,59.99160118,611b85b65dbf96875b82ad9d,64aea9d0f615b6559c281482,64becb8ef877164c39521161,right,1,0.3,0.3714,3,0.006845937,0.3839,,,,,,40,0,40,0,1,,,,,
,,295848,001,2023-07-24_22h06.17.317,arm3_eps,2022.2.5,MacIntel,59.99160118,611b85b65dbf96875b82ad9d,64aea9d0f615b6559c281482,64becb8ef877164c39521161,right,1,0.3,0.3714,3,0.008896604,0.3496,,,,,,41,0,41,0,1,,,,,
,,295848,001,2023-07-24_22h06.17.317,arm3_eps,2022.2.5,MacIntel,59.99160118,611b85b65dbf96875b82ad9d,64aea9d0f615b6559c281482,64becb8ef877164c39521161,right,1,0.3,0.3714,3,0.016775983,0.3817,,,,,,42,0,42,0,1,,,,,
,,295848,001,2023-07-24_22h06.17.317,arm3_eps,2022.2.5,MacIntel,59.99160118,611b85b65dbf96875b82ad9d,64aea9d0f615b6559c281482,64becb8ef877164c39521161,right,1,0.3,0.3714,3,0.026098602,0.3654,,,,,,43,0,43,0,1,,,,,
,,295848,001,2023-07-24_22h06.17.317,arm3_eps,2022.2.5,MacIntel,59.99160118,611b85b65dbf96875b82ad9d,64aea9d0f615b6559c281482,64becb8ef877164c39521161,right,1,0.3,0.3714,3,0.007027763,0.4339,,,,,,44,0,44,0,1,,,,,
,,295848,001,2023-07-24_22h06.17.317,arm3_eps,2022.2.5,MacIntel,59.99160118,611b85b65dbf96875b82ad9d,64aea9d0f615b6559c281482,64becb8ef877164c39521161,right,1,0.3,0.3714,3,0.025121765,0.6032,,,,,,45,0,45,0,1,,,,,
,,295848,001,2023-07-24_22h06.17.317,arm3_eps,2022.2.5,MacIntel,59.99160118,611b85b65dbf96875b82ad9d,64aea9d0f615b6559c281482,64becb8ef877164c39521161,right,1,0.3,0.3714,3,0.012289546,1.117,,,,,,46,0,46,0,1,,,,,
,,295848,001,2023-07-24_22h06.17.317,arm3_eps,2022.2.5,MacIntel,59.99160118,611b85b65dbf96875b82ad9d,64aea9d0f615b6559c281482,64becb8ef877164c39521161,up,-1,0.3,0.3714,3,0,0.9498,,,,,,47,0,47,0,1,,,,,
,,295848,001,2023-07-24_22h06.17.317,arm3_eps,2022.2.5,MacIntel,59.99160118,611b85b65dbf96875b82ad9d,64aea9d0f615b6559c281482,64becb8ef877164c39521161,right,-1,0.3,0.3714,3,-0.00869465,1.1154,,,,,,48,0,48,0,1,,,,,
,,295848,001,2023-07-24_22h06.17.317,arm3_eps,2022.2.5,MacIntel,59.99160118,611b85b65dbf96875b82ad9d,64aea9d0f615b6559c281482,64becb8ef877164c39521161,right,-1,0.3,0.3714,3,0.005827412,0.3691,,,,,,49,0,49,0,1,,,,,
,,295848,001,2023-07-24_22h06.17.317,arm3_eps,2022.2.5,MacIntel,59.99160118,611b85b65dbf96875b82ad9d,64aea9d0f615b6559c281482,64becb8ef877164c39521161,right,-1,0.3,0.3714,3,0.017999351,0.3711,,,,,,50,0,50,0,1,,,,,
,,295848,001,2023-07-24_22h06.17.317,arm3_eps,2022.2.5,MacIntel,59.99160118,611b85b65dbf96875b82ad9d,64aea9d0f615b6559c281482,64becb8ef877164c39521161,right,-1,0.3,0.3714,3,0.007062722,0.3332,,,,,,51,0,51,0,1,,,,,
,,295848,001,2023-07-24_22h06.17.317,arm3_eps,2022.2.5,MacIntel,59.99160118,611b85b65dbf96875b82ad9d,64aea9d0f615b6559c281482,64becb8ef877164c39521161,right,-1,0.3,0.3714,3,-0.003016425,0.3665,,,,,,52,0,52,0,1,,,,,
,,295848,001,2023-07-24_22h06.17.317,arm3_eps,2022.2.5,MacIntel,59.99160118,611b85b65dbf96875b82ad9d,64aea9d0f615b6559c281482,64becb8ef877164c39521161,right,-1,0.3,0.3714,3,-0.055481514,0.4683,,,,,,53,0,53,0,1,,,,,
,,295848,001,2023-07-24_22h06.17.317,arm3_eps,2022.2.5,MacIntel,59.99160118,611b85b65dbf96875b82ad9d,64aea9d0f615b6559c281482,64becb8ef877164c39521161,down,-1,0.3,0.3714,3,0,0.8346,,,,,,54,0,54,0,1,,,,,
,,295848,001,2023-07-24_22h06.17.317,arm3_eps,2022.2.5,MacIntel,59.99160118,611b85b65dbf96875b82ad9d,64aea9d0f615b6559c281482,64becb8ef877164c39521161,down,-1,0.3,0.3714,4,0,1.4837,,,,,,55,0,55,0,1,,,,,
,,295848,001,2023-07-24_22h06.17.317,arm3_eps,2022.2.5,MacIntel,59.99160118,611b85b65dbf96875b82ad9d,64aea9d0f615b6559c281482,64becb8ef877164c39521161,right,-1,0.3,0.3714,4,-0.001539092,1.1288,,,,,,56,0,56,0,1,,,,,
,,295848,001,2023-07-24_22h06.17.317,arm3_eps,2022.2.5,MacIntel,59.99160118,611b85b65dbf96875b82ad9d,64aea9d0f615b6559c281482,64becb8ef877164c39521161,right,-1,0.3,0.3714,4,-0.008068397,0.3663,,,,,,57,0,57,0,1,,,,,
,,295848,001,2023-07-24_22h06.17.317,arm3_eps,2022.2.5,MacIntel,59.99160118,611b85b65dbf96875b82ad9d,64aea9d0f615b6559c281482,64becb8ef877164c39521161,right,-1,0.3,0.3714,4,0.003374721,0.5501,,,,,,58,0,58,0,1,,,,,
,,295848,001,2023-07-24_22h06.17.317,arm3_eps,2022.2.5,MacIntel,59.99160118,611b85b65dbf96875b82ad9d,64aea9d0f615b6559c281482,64becb8ef877164c39521161,right,-1,0.3,0.3714,4,-0.000887011,0.3994,,,,,,59,0,59,0,1,,,,,
,,295848,001,2023-07-24_22h06.17.317,arm3_eps,2022.2.5,MacIntel,59.99160118,611b85b65dbf96875b82ad9d,64aea9d0f615b6559c281482,64becb8ef877164c39521161,right,-1,0.3,0.3714,4,-0.007822931,0.4492,,,,,,60,0,60,0,1,,,,,
,,295848,001,2023-07-24_22h06.17.317,arm3_eps,2022.2.5,MacIntel,59.99160118,611b85b65dbf96875b82ad9d,64aea9d0f615b6559c281482,64becb8ef877164c39521161,down,-1,0.3,0.3714,4,0,0.6198,,,,,,61,0,61,0,1,,,,,
,,295848,001,2023-07-24_22h06.17.317,arm3_eps,2022.2.5,MacIntel,59.99160118,611b85b65dbf96875b82ad9d,64aea9d0f615b6559c281482,64becb8ef877164c39521161,down,1,0.3,0.3714,4,0,1.6138,,,,,,62,0,62,0,1,,,,,
,,295848,001,2023-07-24_22h06.17.317,arm3_eps,2022.2.5,MacIntel,59.99160118,611b85b65dbf96875b82ad9d,64aea9d0f615b6559c281482,64becb8ef877164c39521161,right,1,0.3,0.3714,4,0.012814591,1.0644,,,,,,63,0,63,0,1,,,,,
,,295848,001,2023-07-24_22h06.17.317,arm3_eps,2022.2.5,MacIntel,59.99160118,611b85b65dbf96875b82ad9d,64aea9d0f615b6559c281482,64becb8ef877164c39521161,right,1,0.3,0.3714,4,0.038780685,0.2991,,,,,,64,0,64,0,1,,,,,
,,295848,001,2023-07-24_22h06.17.317,arm3_eps,2022.2.5,MacIntel,59.99160118,611b85b65dbf96875b82ad9d,64aea9d0f615b6559c281482,64becb8ef877164c39521161,right,1,0.3,0.3714,4,0.059498919,0.5005,,,,,,65,0,65,0,1,,,,,
,,295848,001,2023-07-24_22h06.17.317,arm3_eps,2022.2.5,MacIntel,59.99160118,611b85b65dbf96875b82ad9d,64aea9d0f615b6559c281482,64becb8ef877164c39521161,right,1,0.3,0.3714,4,0.076723113,0.9323,,,,,,66,0,66,0,1,,,,,
,,295848,001,2023-07-24_22h06.17.317,arm3_eps,2022.2.5,MacIntel,59.99160118,611b85b65dbf96875b82ad9d,64aea9d0f615b6559c281482,64becb8ef877164c39521161,right,1,0.3,0.3714,4,0.096335751,0.9994,,,,,,67,0,67,0,1,,,,,
,,295848,001,2023-07-24_22h06.17.317,arm3_eps,2022.2.5,MacIntel,59.99160118,611b85b65dbf96875b82ad9d,64aea9d0f615b6559c281482,64becb8ef877164c39521161,right,1,0.3,0.3714,4,0.11125335,0.6372,,,,,,68,0,68,0,1,,,,,
,,295848,001,2023-07-24_22h06.17.317,arm3_eps,2022.2.5,MacIntel,59.99160118,611b85b65dbf96875b82ad9d,64aea9d0f615b6559c281482,64becb8ef877164c39521161,down,1,0.3,0.3714,3,0,1.5698,,,,,,69,0,69,0,1,,,,,
,,295848,001,2023-07-24_22h06.17.317,arm3_eps,2022.2.5,MacIntel,59.99160118,611b85b65dbf96875b82ad9d,64aea9d0f615b6559c281482,64becb8ef877164c39521161,up,1,0.3,0.3714,3,0,2.3328,,,,,,70,0,70,0,1,,,,,
,,295848,001,2023-07-24_22h06.17.317,arm3_eps,2022.2.5,MacIntel,59.99160118,611b85b65dbf96875b82ad9d,64aea9d0f615b6559c281482,64becb8ef877164c39521161,right,1,0.3,0.3714,3,-0.016804077,1.1895,,,,,,71,0,71,0,1,,,,,
,,295848,001,2023-07-24_22h06.17.317,arm3_eps,2022.2.5,MacIntel,59.99160118,611b85b65dbf96875b82ad9d,64aea9d0f615b6559c281482,64becb8ef877164c39521161,right,1,0.3,0.3714,3,0.011903904,0.6663,,,,,,72,0,72,0,1,,,,,
,,295848,001,2023-07-24_22h06.17.317,arm3_eps,2022.2.5,MacIntel,59.99160118,611b85b65dbf96875b82ad9d,64aea9d0f615b6559c281482,64becb8ef877164c39521161,right,1,0.3,0.3714,3,0.068451386,0.3694,,,,,,73,0,73,0,1,,,,,
,,295848,001,2023-07-24_22h06.17.317,arm3_eps,2022.2.5,MacIntel,59.99160118,611b85b65dbf96875b82ad9d,64aea9d0f615b6559c281482,64becb8ef877164c39521161,right,1,0.3,0.3714,3,0.106529112,0.3854,,,,,,74,0,74,0,1,,,,,
,,295848,001,2023-07-24_22h06.17.317,arm3_eps,2022.2.5,MacIntel,59.99160118,611b85b65dbf96875b82ad9d,64aea9d0f615b6559c281482,64becb8ef877164c39521161,right,1,0.3,0.3714,3,0.086833987,0.3538,,,,,,75,0,75,0,1,,,,,
,,295848,001,2023-07-24_22h06.17.317,arm3_eps,2022.2.5,MacIntel,59.99160118,611b85b65dbf96875b82ad9d,64aea9d0f615b6559c281482,64becb8ef877164c39521161,right,1,0.3,0.3714,3,0.103854707,0.4177,,,,,,76,0,76,0,1,,,,,
,,295848,001,2023-07-24_22h06.17.317,arm3_eps,2022.2.5,MacIntel,59.99160118,611b85b65dbf96875b82ad9d,64aea9d0f615b6559c281482,64becb8ef877164c39521161,right,1,0.3,0.3714,3,0.128706741,0.3655,,,,,,77,0,77,0,1,,,,,
,,295848,001,2023-07-24_22h06.17.317,arm3_eps,2022.2.5,MacIntel,59.99160118,611b85b65dbf96875b82ad9d,64aea9d0f615b6559c281482,64becb8ef877164c39521161,up,-1,0.3,0.3714,3,0,0.5504,,,,,,78,0,78,0,1,,,,,
,,295848,001,2023-07-24_22h06.17.317,arm3_eps,2022.2.5,MacIntel,59.99160118,611b85b65dbf96875b82ad9d,64aea9d0f615b6559c281482,64becb8ef877164c39521161,right,-1,0.3,0.3714,3,-0.009226407,1.1316,,,,,,79,0,79,0,1,,,,,
,,295848,001,2023-07-24_22h06.17.317,arm3_eps,2022.2.5,MacIntel,59.99160118,611b85b65dbf96875b82ad9d,64aea9d0f615b6559c281482,64becb8ef877164c39521161,right,-1,0.3,0.3714,3,-0.017517131,0.2665,,,,,,80,0,80,0,1,,,,,
,,295848,001,2023-07-24_22h06.17.317,arm3_eps,2022.2.5,MacIntel,59.99160118,611b85b65dbf96875b82ad9d,64aea9d0f615b6559c281482,64becb8ef877164c39521161,right,-1,0.3,0.3714,3,-0.02457042,0.4155,,,,,,81,0,81,0,1,,,,,
,,295848,001,2023-07-24_22h06.17.317,arm3_eps,2022.2.5,MacIntel,59.99160118,611b85b65dbf96875b82ad9d,64aea9d0f615b6559c281482,64becb8ef877164c39521161,right,-1,0.3,0.3714,3,-0.015810397,0.5162,,,,,,82,0,82,0,1,,,,,
,,295848,001,2023-07-24_22h06.17.317,arm3_eps,2022.2.5,MacIntel,59.99160118,611b85b65dbf96875b82ad9d,64aea9d0f615b6559c281482,64becb8ef877164c39521161,right,-1,0.3,0.3714,3,-0.044540165,0.6034,,,,,,83,0,83,0,1,,,,,
,,295848,001,2023-07-24_22h06.17.317,arm3_eps,2022.2.5,MacIntel,59.99160118,611b85b65dbf96875b82ad9d,64aea9d0f615b6559c281482,64becb8ef877164c39521161,right,-1,0.3,0.3714,3,-0.062807274,0.3502,,,,,,84,0,84,0,1,,,,,
,,295848,001,2023-07-24_22h06.17.317,arm3_eps,2022.2.5,MacIntel,59.99160118,611b85b65dbf96875b82ad9d,64aea9d0f615b6559c281482,64becb8ef877164c39521161,right,-1,0.3,0.3714,3,-0.09971135,0.3491,,,,,,85,0,85,0,1,,,,,
,,295848,001,2023-07-24_22h06.17.317,arm3_eps,2022.2.5,MacIntel,59.99160118,611b85b65dbf96875b82ad9d,64aea9d0f615b6559c281482,64becb8ef877164c39521161,down,1,0.3,0.3714,3,0,0.6148,,,,,,86,0,86,0,1,,,,,
,,295848,001,2023-07-24_22h06.17.317,arm3_eps,2022.2.5,MacIntel,59.99160118,611b85b65dbf96875b82ad9d,64aea9d0f615b6559c281482,64becb8ef877164c39521161,right,1,0.3,0.3714,3,0.04862711,0.9867,,,,,,87,0,87,0,1,,,,,
,,295848,001,2023-07-24_22h06.17.317,arm3_eps,2022.2.5,MacIntel,59.99160118,611b85b65dbf96875b82ad9d,64aea9d0f615b6559c281482,64becb8ef877164c39521161,right,1,0.3,0.3714,3,0.07031113,0.282,,,,,,88,0,88,0,1,,,,,
,,295848,001,2023-07-24_22h06.17.317,arm3_eps,2022.2.5,MacIntel,59.99160118,611b85b65dbf96875b82ad9d,64aea9d0f615b6559c281482,64becb8ef877164c39521161,right,1,0.3,0.3714,3,0.101896647,0.2325,,,,,,89,0,89,0,1,,,,,
,,295848,001,2023-07-24_22h06.17.317,arm3_eps,2022.2.5,MacIntel,59.99160118,611b85b65dbf96875b82ad9d,64aea9d0f615b6559c281482,64becb8ef877164c39521161,right,1,0.3,0.3714,3,0.125013307,0.2988,,,,,,90,0,90,0,1,,,,,
,,295848,001,2023-07-24_22h06.17.317,arm3_eps,2022.2.5,MacIntel,59.99160118,611b85b65dbf96875b82ad9d,64aea9d0f615b6559c281482,64becb8ef877164c39521161,right,1,0.3,0.3714,3,0.116675465,0.3623,,,,,,91,0,91,0,1,,,,,
,,295848,001,2023-07-24_22h06.17.317,arm3_eps,2022.2.5,MacIntel,59.99160118,611b85b65dbf96875b82ad9d,64aea9d0f615b6559c281482,64becb8ef877164c39521161,right,1,0.3,0.3714,3,0.11926206,0.2494,,,,,,92,0,92,0,1,,,,,
,,295848,001,2023-07-24_22h06.17.317,arm3_eps,2022.2.5,MacIntel,59.99160118,611b85b65dbf96875b82ad9d,64aea9d0f615b6559c281482,64becb8ef877164c39521161,right,1,0.3,0.3714,3,0.164237903,0.2987,,,,,,93,0,93,0,1,,,,,
,,295848,001,2023-07-24_22h06.17.317,arm3_eps,2022.2.5,MacIntel,59.99160118,611b85b65dbf96875b82ad9d,64aea9d0f615b6559c281482,64becb8ef877164c39521161,up,-1,0.3,0.3714,3,0,0.496,,,,,,94,0,94,0,1,,,,,
,,295848,001,2023-07-24_22h06.17.317,arm3_eps,2022.2.5,MacIntel,59.99160118,611b85b65dbf96875b82ad9d,64aea9d0f615b6559c281482,64becb8ef877164c39521161,right,-1,0.3,0.3714,3,-0.039246248,0.9837,,,,,,95,0,95,0,1,,,,,
,,295848,001,2023-07-24_22h06.17.317,arm3_eps,2022.2.5,MacIntel,59.99160118,611b85b65dbf96875b82ad9d,64aea9d0f615b6559c281482,64becb8ef877164c39521161,right,-1,0.3,0.3714,3,-0.04068212,0.2675,,,,,,96,0,96,0,1,,,,,
,,295848,001,2023-07-24_22h06.17.317,arm3_eps,2022.2.5,MacIntel,59.99160118,611b85b65dbf96875b82ad9d,64aea9d0f615b6559c281482,64becb8ef877164c39521161,right,-1,0.3,0.3714,3,-0.003135629,0.2674,,,,,,97,0,97,0,1,,,,,
,,295848,001,2023-07-24_22h06.17.317,arm3_eps,2022.2.5,MacIntel,59.99160118,611b85b65dbf96875b82ad9d,64aea9d0f615b6559c281482,64becb8ef877164c39521161,right,-1,0.3,0.3714,3,0.01235115,0.249,,,,,,98,0,98,0,1,,,,,
,,295848,001,2023-07-24_22h06.17.317,arm3_eps,2022.2.5,MacIntel,59.99160118,611b85b65dbf96875b82ad9d,64aea9d0f615b6559c281482,64becb8ef877164c39521161,right,-1,0.3,0.3714,3,0.014479726,0.2826,,,,,,99,0,99,0,1,,,,,
,,295848,001,2023-07-24_22h06.17.317,arm3_eps,2022.2.5,MacIntel,59.99160118,611b85b65dbf96875b82ad9d,64aea9d0f615b6559c281482,64becb8ef877164c39521161,right,-1,0.3,0.3714,3,0.014602142,0.6996,,,,,,100,0,100,0,1,,,,,
,,295848,001,2023-07-24_22h06.17.317,arm3_eps,2022.2.5,MacIntel,59.99160118,611b85b65dbf96875b82ad9d,64aea9d0f615b6559c281482,64becb8ef877164c39521161,right,-1,0.3,0.3714,3,-0.002132351,0.4667,,,,,,101,0,101,0,1,,,,,
,,295848,001,2023-07-24_22h06.17.317,arm3_eps,2022.2.5,MacIntel,59.99160118,611b85b65dbf96875b82ad9d,64aea9d0f615b6559c281482,64becb8ef877164c39521161,right,-1,0.3,0.3714,3,0.019634997,0.3319,,,,,,102,0,102,0,1,,,,,
,,295848,001,2023-07-24_22h06.17.317,arm3_eps,2022.2.5,MacIntel,59.99160118,611b85b65dbf96875b82ad9d,64aea9d0f615b6559c281482,64becb8ef877164c39521161,right,-1,0.3,0.3714,3,0.047645831,0.4018,,,,,,103,0,103,0,1,,,,,
,,295848,001,2023-07-24_22h06.17.317,arm3_eps,2022.2.5,MacIntel,59.99160118,611b85b65dbf96875b82ad9d,64aea9d0f615b6559c281482,64becb8ef877164c39521161,down,-1,0.3,0.3714,3,0,1.101,,,,,,104,0,104,0,1,,,,,
,,295848,001,2023-07-24_22h06.17.317,arm3_eps,2022.2.5,MacIntel,59.99160118,611b85b65dbf96875b82ad9d,64aea9d0f615b6559c281482,64becb8ef877164c39521161,right,-1,0.3,0.3714,3,0.020152293,1.1333,,,,,,105,0,105,0,1,,,,,
,,295848,001,2023-07-24_22h06.17.317,arm3_eps,2022.2.5,MacIntel,59.99160118,611b85b65dbf96875b82ad9d,64aea9d0f615b6559c281482,64becb8ef877164c39521161,right,-1,0.3,0.3714,3,-0.007040262,0.299,,,,,,106,0,106,0,1,,,,,
,,295848,001,2023-07-24_22h06.17.317,arm3_eps,2022.2.5,MacIntel,59.99160118,611b85b65dbf96875b82ad9d,64aea9d0f615b6559c281482,64becb8ef877164c39521161,right,-1,0.3,0.3714,3,-0.00995747,0.2838,,,,,,107,0,107,0,1,,,,,
,,295848,001,2023-07-24_22h06.17.317,arm3_eps,2022.2.5,MacIntel,59.99160118,611b85b65dbf96875b82ad9d,64aea9d0f615b6559c281482,64becb8ef877164c39521161,right,-1,0.3,0.3714,3,0.007703798,0.3005,,,,,,108,0,108,0,1,,,,,
,,295848,001,2023-07-24_22h06.17.317,arm3_eps,2022.2.5,MacIntel,59.99160118,611b85b65dbf96875b82ad9d,64aea9d0f615b6559c281482,64becb8ef877164c39521161,right,-1,0.3,0.3714,3,0.010702707,0.2824,,,,,,109,0,109,0,1,,,,,
,,295848,001,2023-07-24_22h06.17.317,arm3_eps,2022.2.5,MacIntel,59.99160118,611b85b65dbf96875b82ad9d,64aea9d0f615b6559c281482,64becb8ef877164c39521161,right,-1,0.3,0.3714,3,0.038144979,0.4337,,,,,,110,0,110,0,1,,,,,
,,295848,001,2023-07-24_22h06.17.317,arm3_eps,2022.2.5,MacIntel,59.99160118,611b85b65dbf96875b82ad9d,64aea9d0f615b6559c281482,64becb8ef877164c39521161,right,-1,0.3,0.3714,3,0.039582776,0.3834,,,,,,111,0,111,0,1,,,,,
,,295848,001,2023-07-24_22h06.17.317,arm3_eps,2022.2.5,MacIntel,59.99160118,611b85b65dbf96875b82ad9d,64aea9d0f615b6559c281482,64becb8ef877164c39521161,right,-1,0.3,0.3714,3,0.034326884,0.3165,,,,,,112,0,112,0,1,,,,,
,,295848,001,2023-07-24_22h06.17.317,arm3_eps,2022.2.5,MacIntel,59.99160118,611b85b65dbf96875b82ad9d,64aea9d0f615b6559c281482,64becb8ef877164c39521161,up,-1,0.3,0.3714,2,0,0.7496,,,,,,113,0,113,0,1,,,,,
,,295848,001,2023-07-24_22h06.17.317,arm3_eps,2022.2.5,MacIntel,59.99160118,611b85b65dbf96875b82ad9d,64aea9d0f615b6559c281482,64becb8ef877164c39521161,right,-1,0.3,0.3714,2,-0.007002872,1.2973,,,,,,114,0,114,0,1,,,,,
,,295848,001,2023-07-24_22h06.17.317,arm3_eps,2022.2.5,MacIntel,59.99160118,611b85b65dbf96875b82ad9d,64aea9d0f615b6559c281482,64becb8ef877164c39521161,right,-1,0.3,0.3714,2,-0.040717604,0.2672,,,,,,115,0,115,0,1,,,,,
,,295848,001,2023-07-24_22h06.17.317,arm3_eps,2022.2.5,MacIntel,59.99160118,611b85b65dbf96875b82ad9d,64aea9d0f615b6559c281482,64becb8ef877164c39521161,right,-1,0.3,0.3714,2,-0.004934693,0.2339,,,,,,116,0,116,0,1,,,,,
,,295848,001,2023-07-24_22h06.17.317,arm3_eps,2022.2.5,MacIntel,59.99160118,611b85b65dbf96875b82ad9d,64aea9d0f615b6559c281482,64becb8ef877164c39521161,right,-1,0.3,0.3714,2,-0.020206997,0.266,,,,,,117,0,117,0,1,,,,,
,,295848,001,2023-07-24_22h06.17.317,arm3_eps,2022.2.5,MacIntel,59.99160118,611b85b65dbf96875b82ad9d,64aea9d0f615b6559c281482,64becb8ef877164c39521161,right,-1,0.3,0.3714,2,-0.038624996,0.2815,,,,,,118,0,118,0,1,,,,,
,,295848,001,2023-07-24_22h06.17.317,arm3_eps,2022.2.5,MacIntel,59.99160118,611b85b65dbf96875b82ad9d,64aea9d0f615b6559c281482,64becb8ef877164c39521161,down,-1,0.3,0.3714,2,0,0.6147,,,,,,119,0,119,0,1,,,,,
,,295848,001,2023-07-24_22h06.17.317,arm3_eps,2022.2.5,MacIntel,59.99160118,611b85b65dbf96875b82ad9d,64aea9d0f615b6559c281482,64becb8ef877164c39521161,right,-1,0.3,0.3714,2,-0.018251892,0.8797,,,,,,120,0,120,0,1,,,,,
,,295848,001,2023-07-24_22h06.17.317,arm3_eps,2022.2.5,MacIntel,59.99160118,611b85b65dbf96875b82ad9d,64aea9d0f615b6559c281482,64becb8ef877164c39521161,right,-1,0.3,0.3714,2,-0.006081635,0.2705,,,,,,121,0,121,0,1,,,,,
,,295848,001,2023-07-24_22h06.17.317,arm3_eps,2022.2.5,MacIntel,59.99160118,611b85b65dbf96875b82ad9d,64aea9d0f615b6559c281482,64becb8ef877164c39521161,right,-1,0.3,0.3714,2,-0.014312015,0.2033,,,,,,122,0,122,0,1,,,,,
,,295848,001,2023-07-24_22h06.17.317,arm3_eps,2022.2.5,MacIntel,59.99160118,611b85b65dbf96875b82ad9d,64aea9d0f615b6559c281482,64becb8ef877164c39521161,right,-1,0.3,0.3714,2,-0.035243484,0.2512,,,,,,123,0,123,0,1,,,,,
,,295848,001,2023-07-24_22h06.17.317,arm3_eps,2022.2.5,MacIntel,59.99160118,611b85b65dbf96875b82ad9d,64aea9d0f615b6559c281482,64becb8ef877164c39521161,right,-1,0.3,0.3714,2,-0.048775877,0.2999,,,,,,124,0,124,0,1,,,,,
,,295848,001,2023-07-24_22h06.17.317,arm3_eps,2022.2.5,MacIntel,59.99160118,611b85b65dbf96875b82ad9d,64aea9d0f615b6559c281482,64becb8ef877164c39521161,right,-1,0.3,0.3714,2,-0.046508317,0.4457,,,,,,125,0,125,0,1,,,,,
,,295848,001,2023-07-24_22h06.17.317,arm3_eps,2022.2.5,MacIntel,59.99160118,611b85b65dbf96875b82ad9d,64aea9d0f615b6559c281482,64becb8ef877164c39521161,right,-1,0.3,0.3714,2,-0.057904529,0.432,,,,,,126,0,126,0,1,,,,,
,,295848,001,2023-07-24_22h06.17.317,arm3_eps,2022.2.5,MacIntel,59.99160118,611b85b65dbf96875b82ad9d,64aea9d0f615b6559c281482,64becb8ef877164c39521161,down,-1,0.3,0.3714,3,0,0.9839,,,,,,127,0,127,0,1,,,,,
,,295848,001,2023-07-24_22h06.17.317,arm3_eps,2022.2.5,MacIntel,59.99160118,611b85b65dbf96875b82ad9d,64aea9d0f615b6559c281482,64becb8ef877164c39521161,right,-1,0.3,0.3714,3,-0.042428832,1.0663,,,,,,128,0,128,0,1,,,,,
,,295848,001,2023-07-24_22h06.17.317,arm3_eps,2022.2.5,MacIntel,59.99160118,611b85b65dbf96875b82ad9d,64aea9d0f615b6559c281482,64becb8ef877164c39521161,right,-1,0.3,0.3714,3,-0.055318736,0.2329,,,,,,129,0,129,0,1,,,,,
,,295848,001,2023-07-24_22h06.17.317,arm3_eps,2022.2.5,MacIntel,59.99160118,611b85b65dbf96875b82ad9d,64aea9d0f615b6559c281482,64becb8ef877164c39521161,right,-1,0.3,0.3714,3,-0.066410955,0.2171,,,,,,130,0,130,0,1,,,,,
,,295848,001,2023-07-24_22h06.17.317,arm3_eps,2022.2.5,MacIntel,59.99160118,611b85b65dbf96875b82ad9d,64aea9d0f615b6559c281482,64becb8ef877164c39521161,right,-1,0.3,0.3714,3,-0.066689845,0.2161,,,,,,131,0,131,0,1,,,,,
,,295848,001,2023-07-24_22h06.17.317,arm3_eps,2022.2.5,MacIntel,59.99160118,611b85b65dbf96875b82ad9d,64aea9d0f615b6559c281482,64becb8ef877164c39521161,right,-1,0.3,0.3714,3,-0.099817496,0.3656,,,,,,132,0,132,0,1,,,,,
,,295848,001,2023-07-24_22h06.17.317,arm3_eps,2022.2.5,MacIntel,59.99160118,611b85b65dbf96875b82ad9d,64aea9d0f615b6559c281482,64becb8ef877164c39521161,right,-1,0.3,0.3714,3,-0.114895958,0.3506,,,,,,133,0,133,0,1,,,,,
,,295848,001,2023-07-24_22h06.17.317,arm3_eps,2022.2.5,MacIntel,59.99160118,611b85b65dbf96875b82ad9d,64aea9d0f615b6559c281482,64becb8ef877164c39521161,down,-1,0.3,0.3714,4,0,0.4665,,,,,,134,0,134,0,1,,,,,
,,295848,001,2023-07-24_22h06.17.317,arm3_eps,2022.2.5,MacIntel,59.99160118,611b85b65dbf96875b82ad9d,64aea9d0f615b6559c281482,64becb8ef877164c39521161,right,-1,0.3,0.3714,4,0.000223307,0.9497,,,,,,135,0,135,0,1,,,,,
,,295848,001,2023-07-24_22h06.17.317,arm3_eps,2022.2.5,MacIntel,59.99160118,611b85b65dbf96875b82ad9d,64aea9d0f615b6559c281482,64becb8ef877164c39521161,right,-1,0.3,0.3714,4,-0.014159232,0.2484,,,,,,136,0,136,0,1,,,,,
,,295848,001,2023-07-24_22h06.17.317,arm3_eps,2022.2.5,MacIntel,59.99160118,611b85b65dbf96875b82ad9d,64aea9d0f615b6559c281482,64becb8ef877164c39521161,right,-1,0.3,0.3714,4,-0.036289753,0.248,,,,,,137,0,137,0,1,,,,,
,,295848,001,2023-07-24_22h06.17.317,arm3_eps,2022.2.5,MacIntel,59.99160118,611b85b65dbf96875b82ad9d,64aea9d0f615b6559c281482,64becb8ef877164c39521161,right,-1,0.3,0.3714,4,-0.036297487,0.451,,,,,,138,0,138,0,1,,,,,
,,295848,001,2023-07-24_22h06.17.317,arm3_eps,2022.2.5,MacIntel,59.99160118,611b85b65dbf96875b82ad9d,64aea9d0f615b6559c281482,64becb8ef877164c39521161,right,-1,0.3,0.3714,4,-0.023280615,0.298,,,,,,139,0,139,0,1,,,,,
,,295848,001,2023-07-24_22h06.17.317,arm3_eps,2022.2.5,MacIntel,59.99160118,611b85b65dbf96875b82ad9d,64aea9d0f615b6559c281482,64becb8ef877164c39521161,right,-1,0.3,0.3714,4,-0.039787928,0.3122,,,,,,140,0,140,0,1,,,,,
,,295848,001,2023-07-24_22h06.17.317,arm3_eps,2022.2.5,MacIntel,59.99160118,611b85b65dbf96875b82ad9d,64aea9d0f615b6559c281482,64becb8ef877164c39521161,right,-1,0.3,0.3714,4,-0.082705638,0.3332,,,,,,141,0,141,0,1,,,,,
,,295848,001,2023-07-24_22h06.17.317,arm3_eps,2022.2.5,MacIntel,59.99160118,611b85b65dbf96875b82ad9d,64aea9d0f615b6559c281482,64becb8ef877164c39521161,right,-1,0.3,0.3714,4,-0.075450801,0.484,,,,,,142,0,142,0,1,,,,,
,,295848,001,2023-07-24_22h06.17.317,arm3_eps,2022.2.5,MacIntel,59.99160118,611b85b65dbf96875b82ad9d,64aea9d0f615b6559c281482,64becb8ef877164c39521161,down,1,0.3,0.3714,4,0,0.4842,,,,,,143,0,143,0,1,,,,,
,,295848,001,2023-07-24_22h06.17.317,arm3_eps,2022.2.5,MacIntel,59.99160118,611b85b65dbf96875b82ad9d,64aea9d0f615b6559c281482,64becb8ef877164c39521161,up,1,0.3,0.3714,4,0,1.5152,,,,,,144,0,144,0,1,,,,,
,,295848,001,2023-07-24_22h06.17.317,arm3_eps,2022.2.5,MacIntel,59.99160118,611b85b65dbf96875b82ad9d,64aea9d0f615b6559c281482,64becb8ef877164c39521161,right,1,0.3,0.3714,4,0.013349366,1.3199,,,,,,145,0,145,0,1,,,,,
,,295848,001,2023-07-24_22h06.17.317,arm3_eps,2022.2.5,MacIntel,59.99160118,611b85b65dbf96875b82ad9d,64aea9d0f615b6559c281482,64becb8ef877164c39521161,right,1,0.3,0.3714,4,-0.022020658,0.2842,,,,,,146,0,146,0,1,,,,,
,,295848,001,2023-07-24_22h06.17.317,arm3_eps,2022.2.5,MacIntel,59.99160118,611b85b65dbf96875b82ad9d,64aea9d0f615b6559c281482,64becb8ef877164c39521161,right,1,0.3,0.3714,4,-0.039145784,0.2504,,,,,,147,0,147,0,1,,,,,
,,295848,001,2023-07-24_22h06.17.317,arm3_eps,2022.2.5,MacIntel,59.99160118,611b85b65dbf96875b82ad9d,64aea9d0f615b6559c281482,64becb8ef877164c39521161,right,1,0.3,0.3714,4,-0.056556266,0.2319,,,,,,148,0,148,0,1,,,,,
,,295848,001,2023-07-24_22h06.17.317,arm3_eps,2022.2.5,MacIntel,59.99160118,611b85b65dbf96875b82ad9d,64aea9d0f615b6559c281482,64becb8ef877164c39521161,right,1,0.3,0.3714,4,-0.030532677,0.2659,,,,,,149,0,149,0,1,,,,,
,,295848,001,2023-07-24_22h06.17.317,arm3_eps,2022.2.5,MacIntel,59.99160118,611b85b65dbf96875b82ad9d,64aea9d0f615b6559c281482,64becb8ef877164c39521161,right,1,0.3,0.3714,4,-0.0317921,0.3825,,,,,,150,0,150,0,1,,,,,
,,295848,001,2023-07-24_22h06.17.317,arm3_eps,2022.2.5,MacIntel,59.99160118,611b85b65dbf96875b82ad9d,64aea9d0f615b6559c281482,64becb8ef877164c39521161,right,1,0.3,0.3714,4,-0.013530337,0.3132,,,,,,151,0,151,0,1,,,,,
,,295848,001,2023-07-24_22h06.17.317,arm3_eps,2022.2.5,MacIntel,59.99160118,611b85b65dbf96875b82ad9d,64aea9d0f615b6559c281482,64becb8ef877164c39521161,right,1,0.3,0.3714,4,0.038560549,0.7673,,,,,,152,0,152,0,1,,,,,
,,295848,001,2023-07-24_22h06.17.317,arm3_eps,2022.2.5,MacIntel,59.99160118,611b85b65dbf96875b82ad9d,64aea9d0f615b6559c281482,64becb8ef877164c39521161,up,1,0.3,0.3714,4,0,0.934,,,,,,153,0,153,0,1,,,,,
,,295848,001,2023-07-24_22h06.17.317,arm3_eps,2022.2.5,MacIntel,59.99160118,611b85b65dbf96875b82ad9d,64aea9d0f615b6559c281482,64becb8ef877164c39521161,right,1,0.3,0.3714,4,0.009536186,1.882,,,,,,154,0,154,0,1,,,,,
,,295848,001,2023-07-24_22h06.17.317,arm3_eps,2022.2.5,MacIntel,59.99160118,611b85b65dbf96875b82ad9d,64aea9d0f615b6559c281482,64becb8ef877164c39521161,right,1,0.3,0.3714,4,0.039166454,0.3031,,,,,,155,0,155,0,1,,,,,
,,295848,001,2023-07-24_22h06.17.317,arm3_eps,2022.2.5,MacIntel,59.99160118,611b85b65dbf96875b82ad9d,64aea9d0f615b6559c281482,64becb8ef877164c39521161,right,1,0.3,0.3714,4,0.025641146,0.3011,,,,,,156,0,156,0,1,,,,,
,,295848,001,2023-07-24_22h06.17.317,arm3_eps,2022.2.5,MacIntel,59.99160118,611b85b65dbf96875b82ad9d,64aea9d0f615b6559c281482,64becb8ef877164c39521161,right,1,0.3,0.3714,4,-0.008106543,0.2531,,,,,,157,0,157,0,1,,,,,
,,295848,001,2023-07-24_22h06.17.317,arm3_eps,2022.2.5,MacIntel,59.99160118,611b85b65dbf96875b82ad9d,64aea9d0f615b6559c281482,64becb8ef877164c39521161,right,1,0.3,0.3714,4,-0.018676339,0.2659,,,,,,158,0,158,0,1,,,,,
,,295848,001,2023-07-24_22h06.17.317,arm3_eps,2022.2.5,MacIntel,59.99160118,611b85b65dbf96875b82ad9d,64aea9d0f615b6559c281482,64becb8ef877164c39521161,right,1,0.3,0.3714,4,0.014990034,0.2733,,,,,,159,0,159,0,1,,,,,
,,295848,001,2023-07-24_22h06.17.317,arm3_eps,2022.2.5,MacIntel,59.99160118,611b85b65dbf96875b82ad9d,64aea9d0f615b6559c281482,64becb8ef877164c39521161,right,1,0.3,0.3714,4,0.027523146,0.2667,,,,,,160,0,160,0,1,,,,,
,,295848,001,2023-07-24_22h06.17.317,arm3_eps,2022.2.5,MacIntel,59.99160118,611b85b65dbf96875b82ad9d,64aea9d0f615b6559c281482,64becb8ef877164c39521161,right,1,0.3,0.3714,4,0.031939752,0.2831,,,,,,161,0,161,0,1,,,,,
,,295848,001,2023-07-24_22h06.17.317,arm3_eps,2022.2.5,MacIntel,59.99160118,611b85b65dbf96875b82ad9d,64aea9d0f615b6559c281482,64becb8ef877164c39521161,right,1,0.3,0.3714,4,0.041718827,0.4324,,,,,,162,0,162,0,1,,,,,
,,295848,001,2023-07-24_22h06.17.317,arm3_eps,2022.2.5,MacIntel,59.99160118,611b85b65dbf96875b82ad9d,64aea9d0f615b6559c281482,64becb8ef877164c39521161,right,1,0.3,0.3714,4,0.049270758,0.4304,,,,,,163,0,163,0,1,,,,,
,,295848,001,2023-07-24_22h06.17.317,arm3_eps,2022.2.5,MacIntel,59.99160118,611b85b65dbf96875b82ad9d,64aea9d0f615b6559c281482,64becb8ef877164c39521161,up,-1,0.3,0.3714,4,0,0.6462,,,,,,164,0,164,0,1,,,,,
,,295848,001,2023-07-24_22h06.17.317,arm3_eps,2022.2.5,MacIntel,59.99160118,611b85b65dbf96875b82ad9d,64aea9d0f615b6559c281482,64becb8ef877164c39521161,right,-1,0.3,0.3714,4,0.033425043,0.8681,,,,,,165,0,165,0,1,,,,,
,,295848,001,2023-07-24_22h06.17.317,arm3_eps,2022.2.5,MacIntel,59.99160118,611b85b65dbf96875b82ad9d,64aea9d0f615b6559c281482,64becb8ef877164c39521161,right,-1,0.3,0.3714,4,0.049418563,0.2508,,,,,,166,0,166,0,1,,,,,
,,295848,001,2023-07-24_22h06.17.317,arm3_eps,2022.2.5,MacIntel,59.99160118,611b85b65dbf96875b82ad9d,64aea9d0f615b6559c281482,64becb8ef877164c39521161,right,-1,0.3,0.3714,4,0.050655794,0.25,,,,,,167,0,167,0,1,,,,,
,,295848,001,2023-07-24_22h06.17.317,arm3_eps,2022.2.5,MacIntel,59.99160118,611b85b65dbf96875b82ad9d,64aea9d0f615b6559c281482,64becb8ef877164c39521161,right,-1,0.3,0.3714,4,0.064791795,0.2334,,,,,,168,0,168,0,1,,,,,
,,295848,001,2023-07-24_22h06.17.317,arm3_eps,2022.2.5,MacIntel,59.99160118,611b85b65dbf96875b82ad9d,64aea9d0f615b6559c281482,64becb8ef877164c39521161,right,-1,0.3,0.3714,4,0.049180655,0.2822,,,,,,169,0,169,0,1,,,,,
,,295848,001,2023-07-24_22h06.17.317,arm3_eps,2022.2.5,MacIntel,59.99160118,611b85b65dbf96875b82ad9d,64aea9d0f615b6559c281482,64becb8ef877164c39521161,right,-1,0.3,0.3714,4,0.04116618,0.2639,,,,,,170,0,170,0,1,,,,,
,,295848,001,2023-07-24_22h06.17.317,arm3_eps,2022.2.5,MacIntel,59.99160118,611b85b65dbf96875b82ad9d,64aea9d0f615b6559c281482,64becb8ef877164c39521161,right,-1,0.3,0.3714,4,0.009332901,0.2822,,,,,,171,0,171,0,1,,,,,
,,295848,001,2023-07-24_22h06.17.317,arm3_eps,2022.2.5,MacIntel,59.99160118,611b85b65dbf96875b82ad9d,64aea9d0f615b6559c281482,64becb8ef877164c39521161,right,-1,0.3,0.3714,4,-0.009648021,0.3191,,,,,,172,0,172,0,1,,,,,
,,295848,001,2023-07-24_22h06.17.317,arm3_eps,2022.2.5,MacIntel,59.99160118,611b85b65dbf96875b82ad9d,64aea9d0f615b6559c281482,64becb8ef877164c39521161,right,-1,0.3,0.3714,4,-0.013501196,0.3504,,,,,,173,0,173,0,1,,,,,
,,295848,001,2023-07-24_22h06.17.317,arm3_eps,2022.2.5,MacIntel,59.99160118,611b85b65dbf96875b82ad9d,64aea9d0f615b6559c281482,64becb8ef877164c39521161,right,-1,0.3,0.3714,4,-0.017399756,0.399,,,,,,174,0,174,0,1,,,,,
,,295848,001,2023-07-24_22h06.17.317,arm3_eps,2022.2.5,MacIntel,59.99160118,611b85b65dbf96875b82ad9d,64aea9d0f615b6559c281482,64becb8ef877164c39521161,right,-1,0.3,0.3714,4,-0.053191001,0.6139,,,,,,175,0,175,0,1,,,,,
,,295848,001,2023-07-24_22h06.17.317,arm3_eps,2022.2.5,MacIntel,59.99160118,611b85b65dbf96875b82ad9d,64aea9d0f615b6559c281482,64becb8ef877164c39521161,down,-1,0.3,0.3714,4,0,0.5153,,,,,,176,0,176,0,1,,,,,
,,295848,001,2023-07-24_22h06.17.317,arm3_eps,2022.2.5,MacIntel,59.99160118,611b85b65dbf96875b82ad9d,64aea9d0f615b6559c281482,64becb8ef877164c39521161,right,-1,0.3,0.3714,4,0.000847489,1.3149,,,,,,177,0,177,0,1,,,,,
,,295848,001,2023-07-24_22h06.17.317,arm3_eps,2022.2.5,MacIntel,59.99160118,611b85b65dbf96875b82ad9d,64aea9d0f615b6559c281482,64becb8ef877164c39521161,right,-1,0.3,0.3714,4,-0.011369707,0.3463,,,,,,178,0,178,0,1,,,,,
,,295848,001,2023-07-24_22h06.17.317,arm3_eps,2022.2.5,MacIntel,59.99160118,611b85b65dbf96875b82ad9d,64aea9d0f615b6559c281482,64becb8ef877164c39521161,right,-1,0.3,0.3714,4,0.000659852,0.417,,,,,,179,0,179,0,1,,,,,
,,295848,001,2023-07-24_22h06.17.317,arm3_eps,2022.2.5,MacIntel,59.99160118,611b85b65dbf96875b82ad9d,64aea9d0f615b6559c281482,64becb8ef877164c39521161,right,-1,0.3,0.3714,4,0.002339349,0.3825,,,,,,180,0,180,0,1,,,,,
,,295848,001,2023-07-24_22h06.17.317,arm3_eps,2022.2.5,MacIntel,59.99160118,611b85b65dbf96875b82ad9d,64aea9d0f615b6559c281482,64becb8ef877164c39521161,right,-1,0.3,0.3714,4,-0.011211875,0.5167,,,,,,181,0,181,0,1,,,,,
,,295848,001,2023-07-24_22h06.17.317,arm3_eps,2022.2.5,MacIntel,59.99160118,611b85b65dbf96875b82ad9d,64aea9d0f615b6559c281482,64becb8ef877164c39521161,up,-1,0.3,0.3714,4,0,1.2994,,,,,,182,0,182,0,1,,,,,
,,295848,001,2023-07-24_22h06.17.317,arm3_eps,2022.2.5,MacIntel,59.99160118,611b85b65dbf96875b82ad9d,64aea9d0f615b6559c281482,64becb8ef877164c39521161,right,-1,0.3,0.3714,4,-0.001208362,0.8998,,,,,,183,0,183,0,1,,,,,
,,295848,001,2023-07-24_22h06.17.317,arm3_eps,2022.2.5,MacIntel,59.99160118,611b85b65dbf96875b82ad9d,64aea9d0f615b6559c281482,64becb8ef877164c39521161,right,-1,0.3,0.3714,4,0.002698792,0.2486,,,,,,184,0,184,0,1,,,,,
,,295848,001,2023-07-24_22h06.17.317,arm3_eps,2022.2.5,MacIntel,59.99160118,611b85b65dbf96875b82ad9d,64aea9d0f615b6559c281482,64becb8ef877164c39521161,right,-1,0.3,0.3714,4,-0.004899125,0.2657,,,,,,185,0,185,0,1,,,,,
,,295848,001,2023-07-24_22h06.17.317,arm3_eps,2022.2.5,MacIntel,59.99160118,611b85b65dbf96875b82ad9d,64aea9d0f615b6559c281482,64becb8ef877164c39521161,right,-1,0.3,0.3714,4,-0.022691314,0.2815,,,,,,186,0,186,0,1,,,,,
,,295848,001,2023-07-24_22h06.17.317,arm3_eps,2022.2.5,MacIntel,59.99160118,611b85b65dbf96875b82ad9d,64aea9d0f615b6559c281482,64becb8ef877164c39521161,right,-1,0.3,0.3714,4,-0.024019891,0.2146,,,,,,187,0,187,0,1,,,,,
,,295848,001,2023-07-24_22h06.17.317,arm3_eps,2022.2.5,MacIntel,59.99160118,611b85b65dbf96875b82ad9d,64aea9d0f615b6559c281482,64becb8ef877164c39521161,right,-1,0.3,0.3714,4,-0.034227159,0.3121,,,,,,188,0,188,0,1,,,,,
,,295848,001,2023-07-24_22h06.17.317,arm3_eps,2022.2.5,MacIntel,59.99160118,611b85b65dbf96875b82ad9d,64aea9d0f615b6559c281482,64becb8ef877164c39521161,down,1,0.3,0.3714,4,0,0.6651,,,,,,189,0,189,0,1,,,,,
,,295848,001,2023-07-24_22h06.17.317,arm3_eps,2022.2.5,MacIntel,59.99160118,611b85b65dbf96875b82ad9d,64aea9d0f615b6559c281482,64becb8ef877164c39521161,right,1,0.3,0.3714,4,0.012446489,0.8312,,,,,,190,0,190,0,1,,,,,
,,295848,001,2023-07-24_22h06.17.317,arm3_eps,2022.2.5,MacIntel,59.99160118,611b85b65dbf96875b82ad9d,64aea9d0f615b6559c281482,64becb8ef877164c39521161,right,1,0.3,0.3714,4,-0.005113266,0.2148,,,,,,191,0,191,0,1,,,,,
,,295848,001,2023-07-24_22h06.17.317,arm3_eps,2022.2.5,MacIntel,59.99160118,611b85b65dbf96875b82ad9d,64aea9d0f615b6559c281482,64becb8ef877164c39521161,right,1,0.3,0.3714,4,0.03063918,0.1827,,,,,,192,0,192,0,1,,,,,
,,295848,001,2023-07-24_22h06.17.317,arm3_eps,2022.2.5,MacIntel,59.99160118,611b85b65dbf96875b82ad9d,64aea9d0f615b6559c281482,64becb8ef877164c39521161,right,1,0.3,0.3714,4,0.009996164,0.2159,,,,,,193,0,193,0,1,,,,,
,,295848,001,2023-07-24_22h06.17.317,arm3_eps,2022.2.5,MacIntel,59.99160118,611b85b65dbf96875b82ad9d,64aea9d0f615b6559c281482,64becb8ef877164c39521161,right,1,0.3,0.3714,4,0.005843456,0.4546,,,,,,194,0,194,0,1,,,,,
,,295848,001,2023-07-24_22h06.17.317,arm3_eps,2022.2.5,MacIntel,59.99160118,611b85b65dbf96875b82ad9d,64aea9d0f615b6559c281482,64becb8ef877164c39521161,right,1,0.3,0.3714,4,-0.011746963,0.2196,,,,,,195,0,195,0,1,,,,,
,,295848,001,2023-07-24_22h06.17.317,arm3_eps,2022.2.5,MacIntel,59.99160118,611b85b65dbf96875b82ad9d,64aea9d0f615b6559c281482,64becb8ef877164c39521161,right,1,0.3,0.3714,4,-0.02421626,0.3009,,,,,,196,0,196,0,1,,,,,
,,295848,001,2023-07-24_22h06.17.317,arm3_eps,2022.2.5,MacIntel,59.99160118,611b85b65dbf96875b82ad9d,64aea9d0f615b6559c281482,64becb8ef877164c39521161,right,1,0.3,0.3714,4,0.003665377,0.6005,,,,,,197,0,197,0,1,,,,,
,,295848,001,2023-07-24_22h06.17.317,arm3_eps,2022.2.5,MacIntel,59.99160118,611b85b65dbf96875b82ad9d,64aea9d0f615b6559c281482,64becb8ef877164c39521161,right,1,0.3,0.3714,4,0.021842184,0.3979,,,,,,198,0,198,0,1,,,,,
,,295848,001,2023-07-24_22h06.17.317,arm3_eps,2022.2.5,MacIntel,59.99160118,611b85b65dbf96875b82ad9d,64aea9d0f615b6559c281482,64becb8ef877164c39521161,right,1,0.3,0.3714,4,0.028500848,1.7005,,,,,,199,0,199,0,1,,,,,
,,295848,001,2023-07-24_22h06.17.317,arm3_eps,2022.2.5,MacIntel,59.99160118,611b85b65dbf96875b82ad9d,64aea9d0f615b6559c281482,64becb8ef877164c39521161,up,-1,0.3,0.3714,4,0,0.4,,,,,,200,0,200,0,1,,,,,
,,295848,001,2023-07-24_22h06.17.317,arm3_eps,2022.2.5,MacIntel,59.99160118,611b85b65dbf96875b82ad9d,64aea9d0f615b6559c281482,64becb8ef877164c39521161,right,-1,0.3,0.3714,4,-0.030471465,0.8313,,,,,,201,0,201,0,1,,,,,
,,295848,001,2023-07-24_22h06.17.317,arm3_eps,2022.2.5,MacIntel,59.99160118,611b85b65dbf96875b82ad9d,64aea9d0f615b6559c281482,64becb8ef877164c39521161,right,-1,0.3,0.3714,4,-0.07025802,0.2488,,,,,,202,0,202,0,1,,,,,
,,295848,001,2023-07-24_22h06.17.317,arm3_eps,2022.2.5,MacIntel,59.99160118,611b85b65dbf96875b82ad9d,64aea9d0f615b6559c281482,64becb8ef877164c39521161,right,-1,0.3,0.3714,4,-0.08279348,0.3647,,,,,,203,0,203,0,1,,,,,
,,295848,001,2023-07-24_22h06.17.317,arm3_eps,2022.2.5,MacIntel,59.99160118,611b85b65dbf96875b82ad9d,64aea9d0f615b6559c281482,64becb8ef877164c39521161,down,1,0.3,0.3714,4,0,0.4828,,,,,,204,0,204,0,1,,,,,
,,295848,001,2023-07-24_22h06.17.317,arm3_eps,2022.2.5,MacIntel,59.99160118,611b85b65dbf96875b82ad9d,64aea9d0f615b6559c281482,64becb8ef877164c39521161,right,1,0.3,0.3714,4,-0.009807235,0.717,,,,,,205,0,205,0,1,,,,,
,,295848,001,2023-07-24_22h06.17.317,arm3_eps,2022.2.5,MacIntel,59.99160118,611b85b65dbf96875b82ad9d,64aea9d0f615b6559c281482,64becb8ef877164c39521161,right,1,0.3,0.3714,4,0.002628423,0.2679,,,,,,206,0,206,0,1,,,,,
,,295848,001,2023-07-24_22h06.17.317,arm3_eps,2022.2.5,MacIntel,59.99160118,611b85b65dbf96875b82ad9d,64aea9d0f615b6559c281482,64becb8ef877164c39521161,right,1,0.3,0.3714,4,0.001313184,0.1828,,,,,,207,0,207,0,1,,,,,
,,295848,001,2023-07-24_22h06.17.317,arm3_eps,2022.2.5,MacIntel,59.99160118,611b85b65dbf96875b82ad9d,64aea9d0f615b6559c281482,64becb8ef877164c39521161,right,1,0.3,0.3714,4,0.008827111,0.2326,,,,,,208,0,208,0,1,,,,,
,,295848,001,2023-07-24_22h06.17.317,arm3_eps,2022.2.5,MacIntel,59.99160118,611b85b65dbf96875b82ad9d,64aea9d0f615b6559c281482,64becb8ef877164c39521161,right,1,0.3,0.3714,4,-0.002128505,0.2653,,,,,,209,0,209,0,1,,,,,
,,295848,001,2023-07-24_22h06.17.317,arm3_eps,2022.2.5,MacIntel,59.99160118,611b85b65dbf96875b82ad9d,64aea9d0f615b6559c281482,64becb8ef877164c39521161,down,1,0.3,0.3714,4,0,0.6506,,,,,,210,0,210,0,1,,,,,
,,295848,001,2023-07-24_22h06.17.317,arm3_eps,2022.2.5,MacIntel,59.99160118,611b85b65dbf96875b82ad9d,64aea9d0f615b6559c281482,64becb8ef877164c39521161,right,1,0.3,0.3714,4,0.013046686,1.116,,,,,,211,0,211,0,1,,,,,
,,295848,001,2023-07-24_22h06.17.317,arm3_eps,2022.2.5,MacIntel,59.99160118,611b85b65dbf96875b82ad9d,64aea9d0f615b6559c281482,64becb8ef877164c39521161,right,1,0.3,0.3714,4,0.054741761,0.2147,,,,,,212,0,212,0,1,,,,,
,,295848,001,2023-07-24_22h06.17.317,arm3_eps,2022.2.5,MacIntel,59.99160118,611b85b65dbf96875b82ad9d,64aea9d0f615b6559c281482,64becb8ef877164c39521161,right,1,0.3,0.3714,4,0.062227552,0.1998,,,,,,213,0,213,0,1,,,,,
,,295848,001,2023-07-24_22h06.17.317,arm3_eps,2022.2.5,MacIntel,59.99160118,611b85b65dbf96875b82ad9d,64aea9d0f615b6559c281482,64becb8ef877164c39521161,right,1,0.3,0.3714,4,0.070152167,0.2219,,,,,,214,0,214,0,1,,,,,
,,295848,001,2023-07-24_22h06.17.317,arm3_eps,2022.2.5,MacIntel,59.99160118,611b85b65dbf96875b82ad9d,64aea9d0f615b6559c281482,64becb8ef877164c39521161,right,1,0.3,0.3714,4,0.070362213,0.5816,,,,,,215,0,215,0,1,,,,,
,,295848,001,2023-07-24_22h06.17.317,arm3_eps,2022.2.5,MacIntel,59.99160118,611b85b65dbf96875b82ad9d,64aea9d0f615b6559c281482,64becb8ef877164c39521161,up,1,0.3,0.3714,5,0,0.4181,,,,,,216,0,216,0,1,,,,,
,,295848,001,2023-07-24_22h06.17.317,arm3_eps,2022.2.5,MacIntel,59.99160118,611b85b65dbf96875b82ad9d,64aea9d0f615b6559c281482,64becb8ef877164c39521161,right,1,0.3,0.3714,5,0.018125477,0.9816,,,,,,217,0,217,0,1,,,,,
,,295848,001,2023-07-24_22h06.17.317,arm3_eps,2022.2.5,MacIntel,59.99160118,611b85b65dbf96875b82ad9d,64aea9d0f615b6559c281482,64becb8ef877164c39521161,right,1,0.3,0.3714,5,0.008888081,0.1988,,,,,,218,0,218,0,1,,,,,
,,295848,001,2023-07-24_22h06.17.317,arm3_eps,2022.2.5,MacIntel,59.99160118,611b85b65dbf96875b82ad9d,64aea9d0f615b6559c281482,64becb8ef877164c39521161,right,1,0.3,0.3714,5,0.015612886,0.2329,,,,,,219,0,219,0,1,,,,,
,,295848,001,2023-07-24_22h06.17.317,arm3_eps,2022.2.5,MacIntel,59.99160118,611b85b65dbf96875b82ad9d,64aea9d0f615b6559c281482,64becb8ef877164c39521161,right,1,0.3,0.3714,5,0.039160469,0.2487,,,,,,220,0,220,0,1,,,,,
,,295848,001,2023-07-24_22h06.17.317,arm3_eps,2022.2.5,MacIntel,59.99160118,611b85b65dbf96875b82ad9d,64aea9d0f615b6559c281482,64becb8ef877164c39521161,right,1,0.3,0.3714,5,0.081494483,0.2634,,,,,,221,0,221,0,1,,,,,
,,295848,001,2023-07-24_22h06.17.317,arm3_eps,2022.2.5,MacIntel,59.99160118,611b85b65dbf96875b82ad9d,64aea9d0f615b6559c281482,64becb8ef877164c39521161,up,1,0.3,0.3714,5,0,0.4657,,,,,,222,0,222,0,1,,,,,
,,295848,001,2023-07-24_22h06.17.317,arm3_eps,2022.2.5,MacIntel,59.99160118,611b85b65dbf96875b82ad9d,64aea9d0f615b6559c281482,64becb8ef877164c39521161,right,1,0.3,0.3714,5,-0.014358249,1.6846,,,,,,223,0,223,0,1,,,,,
,,295848,001,2023-07-24_22h06.17.317,arm3_eps,2022.2.5,MacIntel,59.99160118,611b85b65dbf96875b82ad9d,64aea9d0f615b6559c281482,64becb8ef877164c39521161,right,1,0.3,0.3714,5,-0.004071918,0.4664,,,,,,224,0,224,0,1,,,,,
,,295848,001,2023-07-24_22h06.17.317,arm3_eps,2022.2.5,MacIntel,59.99160118,611b85b65dbf96875b82ad9d,64aea9d0f615b6559c281482,64becb8ef877164c39521161,right,1,0.3,0.3714,5,0.004265489,0.2713,,,,,,225,0,225,0,1,,,,,
,,295848,001,2023-07-24_22h06.17.317,arm3_eps,2022.2.5,MacIntel,59.99160118,611b85b65dbf96875b82ad9d,64aea9d0f615b6559c281482,64becb8ef877164c39521161,right,1,0.3,0.3714,5,0.020064465,0.4825,,,,,,226,0,226,0,1,,,,,
,,295848,001,2023-07-24_22h06.17.317,arm3_eps,2022.2.5,MacIntel,59.99160118,611b85b65dbf96875b82ad9d,64aea9d0f615b6559c281482,64becb8ef877164c39521161,down,-1,0.3,0.3714,5,0,0.7204,,,,,,227,0,227,0,1,,,,,
,,295848,001,2023-07-24_22h06.17.317,arm3_eps,2022.2.5,MacIntel,59.99160118,611b85b65dbf96875b82ad9d,64aea9d0f615b6559c281482,64becb8ef877164c39521161,right,-1,0.3,0.3714,5,-0.000684505,0.8668,,,,,,228,0,228,0,1,,,,,
,,295848,001,2023-07-24_22h06.17.317,arm3_eps,2022.2.5,MacIntel,59.99160118,611b85b65dbf96875b82ad9d,64aea9d0f615b6559c281482,64becb8ef877164c39521161,right,-1,0.3,0.3714,5,0.008143762,0.2823,,,,,,229,0,229,0,1,,,,,
,,295848,001,2023-07-24_22h06.17.317,arm3_eps,2022.2.5,MacIntel,59.99160118,611b85b65dbf96875b82ad9d,64aea9d0f615b6559c281482,64becb8ef877164c39521161,right,-1,0.3,0.3714,5,-0.043030573,0.2333,,,,,,230,0,230,0,1,,,,,
,,295848,001,2023-07-24_22h06.17.317,arm3_eps,2022.2.5,MacIntel,59.99160118,611b85b65dbf96875b82ad9d,64aea9d0f615b6559c281482,64becb8ef877164c39521161,right,-1,0.3,0.3714,5,-0.080619929,0.2505,,,,,,231,0,231,0,1,,,,,
,,295848,001,2023-07-24_22h06.17.317,arm3_eps,2022.2.5,MacIntel,59.99160118,611b85b65dbf96875b82ad9d,64aea9d0f615b6559c281482,64becb8ef877164c39521161,right,-1,0.3,0.3714,5,-0.130567786,0.3155,,,,,,232,0,232,0,1,,,,,
,,295848,001,2023-07-24_22h06.17.317,arm3_eps,2022.2.5,MacIntel,59.99160118,611b85b65dbf96875b82ad9d,64aea9d0f615b6559c281482,64becb8ef877164c39521161,down,-1,0.3,0.3714,6,0,0.2499,,,,,,233,0,233,0,1,,,,,
,,295848,001,2023-07-24_22h06.17.317,arm3_eps,2022.2.5,MacIntel,59.99160118,611b85b65dbf96875b82ad9d,64aea9d0f615b6559c281482,64becb8ef877164c39521161,right,-1,0.3,0.3714,6,0.011896582,0.9467,,,,,,234,0,234,0,1,,,,,
,,295848,001,2023-07-24_22h06.17.317,arm3_eps,2022.2.5,MacIntel,59.99160118,611b85b65dbf96875b82ad9d,64aea9d0f615b6559c281482,64becb8ef877164c39521161,right,-1,0.3,0.3714,6,-0.011575957,0.2484,,,,,,235,0,235,0,1,,,,,
,,295848,001,2023-07-24_22h06.17.317,arm3_eps,2022.2.5,MacIntel,59.99160118,611b85b65dbf96875b82ad9d,64aea9d0f615b6559c281482,64becb8ef877164c39521161,right,-1,0.3,0.3714,6,-0.015460646,0.232,,,,,,236,0,236,0,1,,,,,
,,295848,001,2023-07-24_22h06.17.317,arm3_eps,2022.2.5,MacIntel,59.99160118,611b85b65dbf96875b82ad9d,64aea9d0f615b6559c281482,64becb8ef877164c39521161,right,-1,0.3,0.3714,6,-0.019962786,0.2661,,,,,,237,0,237,0,1,,,,,
,,295848,001,2023-07-24_22h06.17.317,arm3_eps,2022.2.5,MacIntel,59.99160118,611b85b65dbf96875b82ad9d,64aea9d0f615b6559c281482,64becb8ef877164c39521161,right,-1,0.3,0.3714,6,0.003885441,0.3835,,,,,,238,0,238,0,1,,,,,
,,295848,001,2023-07-24_22h06.17.317,arm3_eps,2022.2.5,MacIntel,59.99160118,611b85b65dbf96875b82ad9d,64aea9d0f615b6559c281482,64becb8ef877164c39521161,right,-1,0.3,0.3714,6,0.029842295,0.3344,,,,,,239,0,239,0,1,,,,,
,,295848,001,2023-07-24_22h06.17.317,arm3_eps,2022.2.5,MacIntel,59.99160118,611b85b65dbf96875b82ad9d,64aea9d0f615b6559c281482,64becb8ef877164c39521161,right,-1,0.3,0.3714,6,0.010945201,0.352,,,,,,240,0,240,0,1,,,,,
,,295848,001,2023-07-24_22h06.17.317,arm3_eps,2022.2.5,MacIntel,59.99160118,611b85b65dbf96875b82ad9d,64aea9d0f615b6559c281482,64becb8ef877164c39521161,up,-1,0.3,0.3714,6,0,1.0345,,,,,,241,0,241,0,1,,,,,
,,295848,001,2023-07-24_22h06.17.317,arm3_eps,2022.2.5,MacIntel,59.99160118,611b85b65dbf96875b82ad9d,64aea9d0f615b6559c281482,64becb8ef877164c39521161,right,-1,0.3,0.3714,6,-0.003627881,0.8807,,,,,,242,0,242,0,1,,,,,
,,295848,001,2023-07-24_22h06.17.317,arm3_eps,2022.2.5,MacIntel,59.99160118,611b85b65dbf96875b82ad9d,64aea9d0f615b6559c281482,64becb8ef877164c39521161,right,-1,0.3,0.3714,6,-0.030123735,0.2018,,,,,,243,0,243,0,1,,,,,
,,295848,001,2023-07-24_22h06.17.317,arm3_eps,2022.2.5,MacIntel,59.99160118,611b85b65dbf96875b82ad9d,64aea9d0f615b6559c281482,64becb8ef877164c39521161,right,-1,0.3,0.3714,6,-0.02689434,0.2027,,,,,,244,0,244,0,1,,,,,
,,295848,001,2023-07-24_22h06.17.317,arm3_eps,2022.2.5,MacIntel,59.99160118,611b85b65dbf96875b82ad9d,64aea9d0f615b6559c281482,64becb8ef877164c39521161,right,-1,0.3,0.3714,6,-0.037615904,0.2838,,,,,,245,0,245,0,1,,,,,
,,295848,001,2023-07-24_22h06.17.317,arm3_eps,2022.2.5,MacIntel,59.99160118,611b85b65dbf96875b82ad9d,64aea9d0f615b6559c281482,64becb8ef877164c39521161,right,-1,0.3,0.3714,6,-0.001223319,0.3164,,,,,,246,0,246,0,1,,,,,
,,295848,001,2023-07-24_22h06.17.317,arm3_eps,2022.2.5,MacIntel,59.99160118,611b85b65dbf96875b82ad9d,64aea9d0f615b6559c281482,64becb8ef877164c39521161,right,-1,0.3,0.3714,6,-0.009834736,0.3165,,,,,,247,0,247,0,1,,,,,
,,295848,001,2023-07-24_22h06.17.317,arm3_eps,2022.2.5,MacIntel,59.99160118,611b85b65dbf96875b82ad9d,64aea9d0f615b6559c281482,64becb8ef877164c39521161,right,-1,0.3,0.3714,6,-0.050068229,0.5003,,,,,,248,0,248,0,1,,,,,
,,295848,001,2023-07-24_22h06.17.317,arm3_eps,2022.2.5,MacIntel,59.99160118,611b85b65dbf96875b82ad9d,64aea9d0f615b6559c281482,64becb8ef877164c39521161,right,-1,0.3,0.3714,6,-0.042463856,0.5513,,,,,,249,0,249,0,1,,,,,
,,295848,001,2023-07-24_22h06.17.317,arm3_eps,2022.2.5,MacIntel,59.99160118,611b85b65dbf96875b82ad9d,64aea9d0f615b6559c281482,64becb8ef877164c39521161,right,-1,0.3,0.3714,6,-0.018942048,0.5969,,,,,,250,0,250,0,1,,,,,
,,295848,001,2023-07-24_22h06.17.317,arm3_eps,2022.2.5,MacIntel,59.99160118,611b85b65dbf96875b82ad9d,64aea9d0f615b6559c281482,64becb8ef877164c39521161,down,-1,0.3,0.3714,6,0,0.6339,,,,,,251,0,251,0,1,,,,,
,,295848,001,2023-07-24_22h06.17.317,arm3_eps,2022.2.5,MacIntel,59.99160118,611b85b65dbf96875b82ad9d,64aea9d0f615b6559c281482,64becb8ef877164c39521161,right,-1,0.3,0.3714,6,0.009785732,0.8311,,,,,,252,0,252,0,1,,,,,
,,295848,001,2023-07-24_22h06.17.317,arm3_eps,2022.2.5,MacIntel,59.99160118,611b85b65dbf96875b82ad9d,64aea9d0f615b6559c281482,64becb8ef877164c39521161,right,-1,0.3,0.3714,6,-0.008003186,0.4013,,,,,,253,0,253,0,1,,,,,
,,295848,001,2023-07-24_22h06.17.317,arm3_eps,2022.2.5,MacIntel,59.99160118,611b85b65dbf96875b82ad9d,64aea9d0f615b6559c281482,64becb8ef877164c39521161,right,-1,0.3,0.3714,6,-0.006669107,0.2336,,,,,,254,0,254,0,1,,,,,
,,295848,001,2023-07-24_22h06.17.317,arm3_eps,2022.2.5,MacIntel,59.99160118,611b85b65dbf96875b82ad9d,64aea9d0f615b6559c281482,64becb8ef877164c39521161,right,-1,0.3,0.3714,6,-0.036651451,0.2152,,,,,,255,0,255,0,1,,,,,
,,295848,001,2023-07-24_22h06.17.317,arm3_eps,2022.2.5,MacIntel,59.99160118,611b85b65dbf96875b82ad9d,64aea9d0f615b6559c281482,64becb8ef877164c39521161,right,-1,0.3,0.3714,6,-0.025094628,0.3836,,,,,,256,0,256,0,1,,,,,
,,295848,001,2023-07-24_22h06.17.317,arm3_eps,2022.2.5,MacIntel,59.99160118,611b85b65dbf96875b82ad9d,64aea9d0f615b6559c281482,64becb8ef877164c39521161,right,-1,0.3,0.3714,6,-0.057326458,0.52,,,,,,257,0,257,0,1,,,,,
,,295848,001,2023-07-24_22h06.17.317,arm3_eps,2022.2.5,MacIntel,59.99160118,611b85b65dbf96875b82ad9d,64aea9d0f615b6559c281482,64becb8ef877164c39521161,right,-1,0.3,0.3714,6,-0.050865662,0.3538,,,,,,258,0,258,0,1,,,,,
,,295848,001,2023-07-24_22h06.17.317,arm3_eps,2022.2.5,MacIntel,59.99160118,611b85b65dbf96875b82ad9d,64aea9d0f615b6559c281482,64becb8ef877164c39521161,down,1,0.3,0.3714,7,0,0.6173,,,,,,259,0,259,0,1,,,,,
,,295848,001,2023-07-24_22h06.17.317,arm3_eps,2022.2.5,MacIntel,59.99160118,611b85b65dbf96875b82ad9d,64aea9d0f615b6559c281482,64becb8ef877164c39521161,right,1,0.3,0.3714,7,-0.011053594,0.929,,,,,,260,0,260,0,1,,,,,
,,295848,001,2023-07-24_22h06.17.317,arm3_eps,2022.2.5,MacIntel,59.99160118,611b85b65dbf96875b82ad9d,64aea9d0f615b6559c281482,64becb8ef877164c39521161,right,1,0.3,0.3714,7,-0.007528784,0.249,,,,,,261,0,261,0,1,,,,,
,,295848,001,2023-07-24_22h06.17.317,arm3_eps,2022.2.5,MacIntel,59.99160118,611b85b65dbf96875b82ad9d,64aea9d0f615b6559c281482,64becb8ef877164c39521161,right,1,0.3,0.3714,7,0.010616427,0.1975,,,,,,262,0,262,0,1,,,,,
,,295848,001,2023-07-24_22h06.17.317,arm3_eps,2022.2.5,MacIntel,59.99160118,611b85b65dbf96875b82ad9d,64aea9d0f615b6559c281482,64becb8ef877164c39521161,right,1,0.3,0.3714,7,0.017139229,0.2155,,,,,,263,0,263,0,1,,,,,
,,295848,001,2023-07-24_22h06.17.317,arm3_eps,2022.2.5,MacIntel,59.99160118,611b85b65dbf96875b82ad9d,64aea9d0f615b6559c281482,64becb8ef877164c39521161,right,1,0.3,0.3714,7,0.031811119,0.233,,,,,,264,0,264,0,1,,,,,
,,295848,001,2023-07-24_22h06.17.317,arm3_eps,2022.2.5,MacIntel,59.99160118,611b85b65dbf96875b82ad9d,64aea9d0f615b6559c281482,64becb8ef877164c39521161,right,1,0.3,0.3714,7,0.010926216,0.2482,,,,,,265,0,265,0,1,,,,,
,,295848,001,2023-07-24_22h06.17.317,arm3_eps,2022.2.5,MacIntel,59.99160118,611b85b65dbf96875b82ad9d,64aea9d0f615b6559c281482,64becb8ef877164c39521161,right,1,0.3,0.3714,7,0.030656176,0.5295,,,,,,266,0,266,0,1,,,,,
,,295848,001,2023-07-24_22h06.17.317,arm3_eps,2022.2.5,MacIntel,59.99160118,611b85b65dbf96875b82ad9d,64aea9d0f615b6559c281482,64becb8ef877164c39521161,right,1,0.3,0.3714,7,0.023786981,0.3982,,,,,,267,0,267,0,1,,,,,
,,295848,001,2023-07-24_22h06.17.317,arm3_eps,2022.2.5,MacIntel,59.99160118,611b85b65dbf96875b82ad9d,64aea9d0f615b6559c281482,64becb8ef877164c39521161,right,1,0.3,0.3714,7,0.038563224,0.3505,,,,,,268,0,268,0,1,,,,,
,,295848,001,2023-07-24_22h06.17.317,arm3_eps,2022.2.5,MacIntel,59.99160118,611b85b65dbf96875b82ad9d,64aea9d0f615b6559c281482,64becb8ef877164c39521161,right,1,0.3,0.3714,7,0.00360879,0.7327,,,,,,269,0,269,0,1,,,,,
,,295848,001,2023-07-24_22h06.17.317,arm3_eps,2022.2.5,MacIntel,59.99160118,611b85b65dbf96875b82ad9d,64aea9d0f615b6559c281482,64becb8ef877164c39521161,right,1,0.3,0.3714,7,0.007500362,1.1992,,,,,,270,0,270,0,1,,,,,
,,295848,001,2023-07-24_22h06.17.317,arm3_eps,2022.2.5,MacIntel,59.99160118,611b85b65dbf96875b82ad9d,64aea9d0f615b6559c281482,64becb8ef877164c39521161,down,1,0.3,0.3714,7,0,0.7671,,,,,,271,0,271,0,1,,,,,
,,295848,001,2023-07-24_22h06.17.317,arm3_eps,2022.2.5,MacIntel,59.99160118,611b85b65dbf96875b82ad9d,64aea9d0f615b6559c281482,64becb8ef877164c39521161,right,1,0.3,0.3714,7,0.007926475,0.8126,,,,,,272,0,272,0,1,,,,,
,,295848,001,2023-07-24_22h06.17.317,arm3_eps,2022.2.5,MacIntel,59.99160118,611b85b65dbf96875b82ad9d,64aea9d0f615b6559c281482,64becb8ef877164c39521161,right,1,0.3,0.3714,7,0.019240326,0.2162,,,,,,273,0,273,0,1,,,,,
,,295848,001,2023-07-24_22h06.17.317,arm3_eps,2022.2.5,MacIntel,59.99160118,611b85b65dbf96875b82ad9d,64aea9d0f615b6559c281482,64becb8ef877164c39521161,right,1,0.3,0.3714,7,0.036851708,0.3008,,,,,,274,0,274,0,1,,,,,
,,295848,001,2023-07-24_22h06.17.317,arm3_eps,2022.2.5,MacIntel,59.99160118,611b85b65dbf96875b82ad9d,64aea9d0f615b6559c281482,64becb8ef877164c39521161,right,1,0.3,0.3714,7,0.053125943,0.3162,,,,,,275,0,275,0,1,,,,,
,,295848,001,2023-07-24_22h06.17.317,arm3_eps,2022.2.5,MacIntel,59.99160118,611b85b65dbf96875b82ad9d,64aea9d0f615b6559c281482,64becb8ef877164c39521161,up,1,0.3,0.3714,8,0,0.5531,,,,,,276,0,276,0,1,,,,,
,,295848,001,2023-07-24_22h06.17.317,arm3_eps,2022.2.5,MacIntel,59.99160118,611b85b65dbf96875b82ad9d,64aea9d0f615b6559c281482,64becb8ef877164c39521161,right,1,0.3,0.3714,8,0.055405999,0.7801,,,,,,277,0,277,0,1,,,,,
,,295848,001,2023-07-24_22h06.17.317,arm3_eps,2022.2.5,MacIntel,59.99160118,611b85b65dbf96875b82ad9d,64aea9d0f615b6559c281482,64becb8ef877164c39521161,right,1,0.3,0.3714,8,0.082231284,0.2487,,,,,,278,0,278,0,1,,,,,
,,295848,001,2023-07-24_22h06.17.317,arm3_eps,2022.2.5,MacIntel,59.99160118,611b85b65dbf96875b82ad9d,64aea9d0f615b6559c281482,64becb8ef877164c39521161,right,1,0.3,0.3714,8,0.093395785,0.2485,,,,,,279,0,279,0,1,,,,,
,,295848,001,2023-07-24_22h06.17.317,arm3_eps,2022.2.5,MacIntel,59.99160118,611b85b65dbf96875b82ad9d,64aea9d0f615b6559c281482,64becb8ef877164c39521161,right,1,0.3,0.3714,8,0.139082833,0.2486,,,,,,280,0,280,0,1,,,,,
,,295848,001,2023-07-24_22h06.17.317,arm3_eps,2022.2.5,MacIntel,59.99160118,611b85b65dbf96875b82ad9d,64aea9d0f615b6559c281482,64becb8ef877164c39521161,right,1,0.3,0.3714,8,0.12306581,0.366,,,,,,281,0,281,0,1,,,,,
,,295848,001,2023-07-24_22h06.17.317,arm3_eps,2022.2.5,MacIntel,59.99160118,611b85b65dbf96875b82ad9d,64aea9d0f615b6559c281482,64becb8ef877164c39521161,right,1,0.3,0.3714,8,0.138488652,0.2821,,,,,,282,0,282,0,1,,,,,
,,295848,001,2023-07-24_22h06.17.317,arm3_eps,2022.2.5,MacIntel,59.99160118,611b85b65dbf96875b82ad9d,64aea9d0f615b6559c281482,64becb8ef877164c39521161,right,1,0.3,0.3714,8,0.140023914,0.3357,,,,,,283,0,283,0,1,,,,,
,,295848,001,2023-07-24_22h06.17.317,arm3_eps,2022.2.5,MacIntel,59.99160118,611b85b65dbf96875b82ad9d,64aea9d0f615b6559c281482,64becb8ef877164c39521161,up,-1,0.3,0.3714,9,0,0.9174,,,,,,284,0,284,0,1,,,,,
,,295848,001,2023-07-24_22h06.17.317,arm3_eps,2022.2.5,MacIntel,59.99160118,611b85b65dbf96875b82ad9d,64aea9d0f615b6559c281482,64becb8ef877164c39521161,right,-1,0.3,0.3714,9,-0.018649212,0.6833,,,,,,285,0,285,0,1,,,,,
,,295848,001,2023-07-24_22h06.17.317,arm3_eps,2022.2.5,MacIntel,59.99160118,611b85b65dbf96875b82ad9d,64aea9d0f615b6559c281482,64becb8ef877164c39521161,right,-1,0.3,0.3714,9,0.006019773,0.2668,,,,,,286,0,286,0,1,,,,,
,,295848,001,2023-07-24_22h06.17.317,arm3_eps,2022.2.5,MacIntel,59.99160118,611b85b65dbf96875b82ad9d,64aea9d0f615b6559c281482,64becb8ef877164c39521161,right,-1,0.3,0.3714,9,0.023943081,0.2489,,,,,,287,0,287,0,1,,,,,
,,295848,001,2023-07-24_22h06.17.317,arm3_eps,2022.2.5,MacIntel,59.99160118,611b85b65dbf96875b82ad9d,64aea9d0f615b6559c281482,64becb8ef877164c39521161,right,-1,0.3,0.3714,9,0.029329603,0.2489,,,,,,288,0,288,0,1,,,,,
,,295848,001,2023-07-24_22h06.17.317,arm3_eps,2022.2.5,MacIntel,59.99160118,611b85b65dbf96875b82ad9d,64aea9d0f615b6559c281482,64becb8ef877164c39521161,right,-1,0.3,0.3714,9,-0.000516934,0.2707,,,,,,289,0,289,0,1,,,,,
,,295848,001,2023-07-24_22h06.17.317,arm3_eps,2022.2.5,MacIntel,59.99160118,611b85b65dbf96875b82ad9d,64aea9d0f615b6559c281482,64becb8ef877164c39521161,right,-1,0.3,0.3714,9,0.017601088,0.2988,,,,,,290,0,290,0,1,,,,,
,,295848,001,2023-07-24_22h06.17.317,arm3_eps,2022.2.5,MacIntel,59.99160118,611b85b65dbf96875b82ad9d,64aea9d0f615b6559c281482,64becb8ef877164c39521161,right,-1,0.3,0.3714,9,0.005897957,0.3323,,,,,,291,0,291,0,1,,,,,
,,295848,001,2023-07-24_22h06.17.317,arm3_eps,2022.2.5,MacIntel,59.99160118,611b85b65dbf96875b82ad9d,64aea9d0f615b6559c281482,64becb8ef877164c39521161,right,-1,0.3,0.3714,9,0.01364415,0.5487,,,,,,292,0,292,0,1,,,,,
,,295848,001,2023-07-24_22h06.17.317,arm3_eps,2022.2.5,MacIntel,59.99160118,611b85b65dbf96875b82ad9d,64aea9d0f615b6559c281482,64becb8ef877164c39521161,right,-1,0.3,0.3714,9,-0.011250663,0.6977,,,,,,293,0,293,0,1,,,,,
,,295848,001,2023-07-24_22h06.17.317,arm3_eps,2022.2.5,MacIntel,59.99160118,611b85b65dbf96875b82ad9d,64aea9d0f615b6559c281482,64becb8ef877164c39521161,down,-1,0.3,0.3714,10,0,0.8679,,,,,,294,0,294,0,1,,,,,
,,295848,001,2023-07-24_22h06.17.317,arm3_eps,2022.2.5,MacIntel,59.99160118,611b85b65dbf96875b82ad9d,64aea9d0f615b6559c281482,64becb8ef877164c39521161,right,-1,0.3,0.3714,10,-0.031163829,0.849,,,,,,295,0,295,0,1,,,,,
,,295848,001,2023-07-24_22h06.17.317,arm3_eps,2022.2.5,MacIntel,59.99160118,611b85b65dbf96875b82ad9d,64aea9d0f615b6559c281482,64becb8ef877164c39521161,right,-1,0.3,0.3714,10,-0.018102185,0.2658,,,,,,296,0,296,0,1,,,,,
,,295848,001,2023-07-24_22h06.17.317,arm3_eps,2022.2.5,MacIntel,59.99160118,611b85b65dbf96875b82ad9d,64aea9d0f615b6559c281482,64becb8ef877164c39521161,right,-1,0.3,0.3714,10,-0.038758212,0.2335,,,,,,297,0,297,0,1,,,,,
,,295848,001,2023-07-24_22h06.17.317,arm3_eps,2022.2.5,MacIntel,59.99160118,611b85b65dbf96875b82ad9d,64aea9d0f615b6559c281482,64becb8ef877164c39521161,right,-1,0.3,0.3714,10,-0.028176911,0.2836,,,,,,298,0,298,0,1,,,,,
,,295848,001,2023-07-24_22h06.17.317,arm3_eps,2022.2.5,MacIntel,59.99160118,611b85b65dbf96875b82ad9d,64aea9d0f615b6559c281482,64becb8ef877164c39521161,right,-1,0.3,0.3714,10,-0.042494132,0.6006,,,,,,299,0,299,0,1,,,,,
,,295848,001,2023-07-24_22h06.17.317,arm3_eps,2022.2.5,MacIntel,59.99160118,611b85b65dbf96875b82ad9d,64aea9d0f615b6559c281482,64becb8ef877164c39521161,right,-1,0.3,0.3714,10,-0.036914765,0.3828,,,,,,300,0,300,0,1,,,,,
,,295848,001,2023-07-24_22h06.17.317,arm3_eps,2022.2.5,MacIntel,59.99160118,611b85b65dbf96875b82ad9d,64aea9d0f615b6559c281482,64becb8ef877164c39521161,down,-1,0.3,0.3714,10,0,0.5491,,,,,,301,0,301,0,1,,,,,
,,295848,001,2023-07-24_22h06.17.317,arm3_eps,2022.2.5,MacIntel,59.99160118,611b85b65dbf96875b82ad9d,64aea9d0f615b6559c281482,64becb8ef877164c39521161,right,-1,0.3,0.3714,10,-0.01420543,0.6475,,,,,,302,0,302,0,1,,,,,
,,295848,001,2023-07-24_22h06.17.317,arm3_eps,2022.2.5,MacIntel,59.99160118,611b85b65dbf96875b82ad9d,64aea9d0f615b6559c281482,64becb8ef877164c39521161,right,-1,0.3,0.3714,10,-0.04264095,0.2502,,,,,,303,0,303,0,1,,,,,
,,295848,001,2023-07-24_22h06.17.317,arm3_eps,2022.2.5,MacIntel,59.99160118,611b85b65dbf96875b82ad9d,64aea9d0f615b6559c281482,64becb8ef877164c39521161,right,-1,0.3,0.3714,10,-0.025219838,0.2646,,,,,,304,0,304,0,1,,,,,
,,295848,001,2023-07-24_22h06.17.317,arm3_eps,2022.2.5,MacIntel,59.99160118,611b85b65dbf96875b82ad9d,64aea9d0f615b6559c281482,64becb8ef877164c39521161,right,-1,0.3,0.3714,10,-0.027246669,0.4332,,,,,,305,0,305,0,1,,,,,
,,295848,001,2023-07-24_22h06.17.317,arm3_eps,2022.2.5,MacIntel,59.99160118,611b85b65dbf96875b82ad9d,64aea9d0f615b6559c281482,64becb8ef877164c39521161,right,-1,0.3,0.3714,10,-0.037041614,0.4332,,,,,,306,0,306,0,1,,,,,
,,295848,001,2023-07-24_22h06.17.317,arm3_eps,2022.2.5,MacIntel,59.99160118,611b85b65dbf96875b82ad9d,64aea9d0f615b6559c281482,64becb8ef877164c39521161,right,-1,0.3,0.3714,10,-0.033699593,0.8659,,,,,,307,0,307,0,1,,,,,
,,295848,001,2023-07-24_22h06.17.317,arm3_eps,2022.2.5,MacIntel,59.99160118,611b85b65dbf96875b82ad9d,64aea9d0f615b6559c281482,64becb8ef877164c39521161,right,-1,0.3,0.3714,10,-0.041242655,1.0318,,,,,,308,0,308,0,1,,,,,
,,295848,001,2023-07-24_22h06.17.317,arm3_eps,2022.2.5,MacIntel,59.99160118,611b85b65dbf96875b82ad9d,64aea9d0f615b6559c281482,64becb8ef877164c39521161,down,1,0.3,0.3714,11,0,0.182,,,,,,309,0,309,0,1,,,,,
,,295848,001,2023-07-24_22h06.17.317,arm3_eps,2022.2.5,MacIntel,59.99160118,611b85b65dbf96875b82ad9d,64aea9d0f615b6559c281482,64becb8ef877164c39521161,right,1,0.3,0.3714,11,0.008420009,0.835,,,,,,310,0,310,0,1,,,,,
,,295848,001,2023-07-24_22h06.17.317,arm3_eps,2022.2.5,MacIntel,59.99160118,611b85b65dbf96875b82ad9d,64aea9d0f615b6559c281482,64becb8ef877164c39521161,right,1,0.3,0.3714,11,0.016061007,0.2982,,,,,,311,0,311,0,1,,,,,
,,295848,001,2023-07-24_22h06.17.317,arm3_eps,2022.2.5,MacIntel,59.99160118,611b85b65dbf96875b82ad9d,64aea9d0f615b6559c281482,64becb8ef877164c39521161,right,1,0.3,0.3714,11,0.019200558,0.2502,,,,,,312,0,312,0,1,,,,,
,,295848,001,2023-07-24_22h06.17.317,arm3_eps,2022.2.5,MacIntel,59.99160118,611b85b65dbf96875b82ad9d,64aea9d0f615b6559c281482,64becb8ef877164c39521161,right,1,0.3,0.3714,11,0.030321824,0.3005,,,,,,313,0,313,0,1,,,,,
,,295848,001,2023-07-24_22h06.17.317,arm3_eps,2022.2.5,MacIntel,59.99160118,611b85b65dbf96875b82ad9d,64aea9d0f615b6559c281482,64becb8ef877164c39521161,right,1,0.3,0.3714,11,0.03223206,0.232,,,,,,314,0,314,0,1,,,,,
,,295848,001,2023-07-24_22h06.17.317,arm3_eps,2022.2.5,MacIntel,59.99160118,611b85b65dbf96875b82ad9d,64aea9d0f615b6559c281482,64becb8ef877164c39521161,right,1,0.3,0.3714,11,0.022633003,0.3163,,,,,,315,0,315,0,1,,,,,
,,295848,001,2023-07-24_22h06.17.317,arm3_eps,2022.2.5,MacIntel,59.99160118,611b85b65dbf96875b82ad9d,64aea9d0f615b6559c281482,64becb8ef877164c39521161,right,1,0.3,0.3714,11,0.019920523,0.2836,,,,,,316,0,316,0,1,,,,,
,,295848,001,2023-07-24_22h06.17.317,arm3_eps,2022.2.5,MacIntel,59.99160118,611b85b65dbf96875b82ad9d,64aea9d0f615b6559c281482,64becb8ef877164c39521161,right,1,0.3,0.3714,11,0.021708398,0.2818,,,,,,317,0,317,0,1,,,,,
,,295848,001,2023-07-24_22h06.17.317,arm3_eps,2022.2.5,MacIntel,59.99160118,611b85b65dbf96875b82ad9d,64aea9d0f615b6559c281482,64becb8ef877164c39521161,right,1,0.3,0.3714,11,0.015568821,0.3166,,,,,,318,0,318,0,1,,,,,
,,295848,001,2023-07-24_22h06.17.317,arm3_eps,2022.2.5,MacIntel,59.99160118,611b85b65dbf96875b82ad9d,64aea9d0f615b6559c281482,64becb8ef877164c39521161,up,-1,0.3,0.3714,11,0,1.2668,,,,,,319,0,319,0,1,,,,,
,,295848,001,2023-07-24_22h06.17.317,arm3_eps,2022.2.5,MacIntel,59.99160118,611b85b65dbf96875b82ad9d,64aea9d0f615b6559c281482,64becb8ef877164c39521161,right,-1,0.3,0.3714,11,-0.031873957,0.6657,,,,,,320,0,320,0,1,,,,,
,,295848,001,2023-07-24_22h06.17.317,arm3_eps,2022.2.5,MacIntel,59.99160118,611b85b65dbf96875b82ad9d,64aea9d0f615b6559c281482,64becb8ef877164c39521161,right,-1,0.3,0.3714,11,-0.021366791,0.2339,,,,,,321,0,321,0,1,,,,,
,,295848,001,2023-07-24_22h06.17.317,arm3_eps,2022.2.5,MacIntel,59.99160118,611b85b65dbf96875b82ad9d,64aea9d0f615b6559c281482,64becb8ef877164c39521161,right,-1,0.3,0.3714,11,-0.057139281,0.1992,,,,,,322,0,322,0,1,,,,,
,,295848,001,2023-07-24_22h06.17.317,arm3_eps,2022.2.5,MacIntel,59.99160118,611b85b65dbf96875b82ad9d,64aea9d0f615b6559c281482,64becb8ef877164c39521161,right,-1,0.3,0.3714,11,-0.052494317,0.2677,,,,,,323,0,323,0,1,,,,,
,,295848,001,2023-07-24_22h06.17.317,arm3_eps,2022.2.5,MacIntel,59.99160118,611b85b65dbf96875b82ad9d,64aea9d0f615b6559c281482,64becb8ef877164c39521161,right,-1,0.3,0.3714,11,-0.046284653,0.633,,,,,,324,0,324,0,1,,,,,
,,295848,001,2023-07-24_22h06.17.317,arm3_eps,2022.2.5,MacIntel,59.99160118,611b85b65dbf96875b82ad9d,64aea9d0f615b6559c281482,64becb8ef877164c39521161,right,-1,0.3,0.3714,11,-0.025273915,0.3988,,,,,,325,0,325,0,1,,,,,
,,295848,001,2023-07-24_22h06.17.317,arm3_eps,2022.2.5,MacIntel,59.99160118,611b85b65dbf96875b82ad9d,64aea9d0f615b6559c281482,64becb8ef877164c39521161,right,-1,0.3,0.3714,11,-0.054752826,0.4326,,,,,,326,0,326,0,1,,,,,
,,295848,001,2023-07-24_22h06.17.317,arm3_eps,2022.2.5,MacIntel,59.99160118,611b85b65dbf96875b82ad9d,64aea9d0f615b6559c281482,64becb8ef877164c39521161,up,-1,0.3,0.3714,11,0,0.9504,,,,,,327,0,327,0,1,,,,,
,,295848,001,2023-07-24_22h06.17.317,arm3_eps,2022.2.5,MacIntel,59.99160118,611b85b65dbf96875b82ad9d,64aea9d0f615b6559c281482,64becb8ef877164c39521161,right,-1,0.3,0.3714,11,0.005824292,0.5515,,,,,,328,0,328,0,1,,,,,
,,295848,001,2023-07-24_22h06.17.317,arm3_eps,2022.2.5,MacIntel,59.99160118,611b85b65dbf96875b82ad9d,64aea9d0f615b6559c281482,64becb8ef877164c39521161,right,-1,0.3,0.3714,11,-0.014487014,0.2504,,,,,,329,0,329,0,1,,,,,
,,295848,001,2023-07-24_22h06.17.317,arm3_eps,2022.2.5,MacIntel,59.99160118,611b85b65dbf96875b82ad9d,64aea9d0f615b6559c281482,64becb8ef877164c39521161,right,-1,0.3,0.3714,11,-0.002224921,0.2333,,,,,,330,0,330,0,1,,,,,
,,295848,001,2023-07-24_22h06.17.317,arm3_eps,2022.2.5,MacIntel,59.99160118,611b85b65dbf96875b82ad9d,64aea9d0f615b6559c281482,64becb8ef877164c39521161,right,-1,0.3,0.3714,11,0.008238478,0.3174,,,,,,331,0,331,0,1,,,,,
,,295848,001,2023-07-24_22h06.17.317,arm3_eps,2022.2.5,MacIntel,59.99160118,611b85b65dbf96875b82ad9d,64aea9d0f615b6559c281482,64becb8ef877164c39521161,right,-1,0.3,0.3714,11,-0.011113744,0.3163,,,,,,332,0,332,0,1,,,,,
,,295848,001,2023-07-24_22h06.17.317,arm3_eps,2022.2.5,MacIntel,59.99160118,611b85b65dbf96875b82ad9d,64aea9d0f615b6559c281482,64becb8ef877164c39521161,right,-1,0.3,0.3714,11,-0.023884819,0.2662,,,,,,333,0,333,0,1,,,,,
,,295848,001,2023-07-24_22h06.17.317,arm3_eps,2022.2.5,MacIntel,59.99160118,611b85b65dbf96875b82ad9d,64aea9d0f615b6559c281482,64becb8ef877164c39521161,right,-1,0.3,0.3714,11,0.001082949,0.3813,,,,,,334,0,334,0,1,,,,,
,,295848,001,2023-07-24_22h06.17.317,arm3_eps,2022.2.5,MacIntel,59.99160118,611b85b65dbf96875b82ad9d,64aea9d0f615b6559c281482,64becb8ef877164c39521161,right,-1,0.3,0.3714,11,0.025238678,0.3331,,,,,,335,0,335,0,1,,,,,
,,295848,001,2023-07-24_22h06.17.317,arm3_eps,2022.2.5,MacIntel,59.99160118,611b85b65dbf96875b82ad9d,64aea9d0f615b6559c281482,64becb8ef877164c39521161,up,1,0.3,0.3714,11,0,1.0514,,,,,,336,0,336,0,1,,,,,
,,295848,001,2023-07-24_22h06.17.317,arm3_eps,2022.2.5,MacIntel,59.99160118,611b85b65dbf96875b82ad9d,64aea9d0f615b6559c281482,64becb8ef877164c39521161,down,-1,0.3,0.3714,11,0,0.0156,,,,,,337,0,337,0,1,,,,,
,,295848,001,2023-07-24_22h06.17.317,arm3_eps,2022.2.5,MacIntel,59.99160118,611b85b65dbf96875b82ad9d,64aea9d0f615b6559c281482,64becb8ef877164c39521161,right,-1,0.3,0.3714,11,-0.00957246,1.0327,,,,,,338,0,338,0,1,,,,,
,,295848,001,2023-07-24_22h06.17.317,arm3_eps,2022.2.5,MacIntel,59.99160118,611b85b65dbf96875b82ad9d,64aea9d0f615b6559c281482,64becb8ef877164c39521161,right,-1,0.3,0.3714,11,-0.019576377,0.2151,,,,,,339,0,339,0,1,,,,,
,,295848,001,2023-07-24_22h06.17.317,arm3_eps,2022.2.5,MacIntel,59.99160118,611b85b65dbf96875b82ad9d,64aea9d0f615b6559c281482,64becb8ef877164c39521161,right,-1,0.3,0.3714,11,0.001101345,0.1839,,,,,,340,0,340,0,1,,,,,
,,295848,001,2023-07-24_22h06.17.317,arm3_eps,2022.2.5,MacIntel,59.99160118,611b85b65dbf96875b82ad9d,64aea9d0f615b6559c281482,64becb8ef877164c39521161,right,-1,0.3,0.3714,11,-0.039389169,0.298,,,,,,341,0,341,0,1,,,,,
,,295848,001,2023-07-24_22h06.17.317,arm3_eps,2022.2.5,MacIntel,59.99160118,611b85b65dbf96875b82ad9d,64aea9d0f615b6559c281482,64becb8ef877164c39521161,right,-1,0.3,0.3714,11,-0.058580335,0.2203,,,,,,342,0,342,0,1,,,,,
,,295848,001,2023-07-24_22h06.17.317,arm3_eps,2022.2.5,MacIntel,59.99160118,611b85b65dbf96875b82ad9d,64aea9d0f615b6559c281482,64becb8ef877164c39521161,right,-1,0.3,0.3714,11,-0.084246671,0.2511,,,,,,343,0,343,0,1,,,,,
,,295848,001,2023-07-24_22h06.17.317,arm3_eps,2022.2.5,MacIntel,59.99160118,611b85b65dbf96875b82ad9d,64aea9d0f615b6559c281482,64becb8ef877164c39521161,down,1,0.3,0.3714,11,0,0.3334,,,,,,344,0,344,0,1,,,,,
,,295848,001,2023-07-24_22h06.17.317,arm3_eps,2022.2.5,MacIntel,59.99160118,611b85b65dbf96875b82ad9d,64aea9d0f615b6559c281482,64becb8ef877164c39521161,right,1,0.3,0.3714,11,-0.000976918,0.55,,,,,,345,0,345,0,1,,,,,
,,295848,001,2023-07-24_22h06.17.317,arm3_eps,2022.2.5,MacIntel,59.99160118,611b85b65dbf96875b82ad9d,64aea9d0f615b6559c281482,64becb8ef877164c39521161,right,1,0.3,0.3714,11,0.015489371,0.267,,,,,,346,0,346,0,1,,,,,
,,295848,001,2023-07-24_22h06.17.317,arm3_eps,2022.2.5,MacIntel,59.99160118,611b85b65dbf96875b82ad9d,64aea9d0f615b6559c281482,64becb8ef877164c39521161,right,1,0.3,0.3714,11,-0.002979142,0.2498,,,,,,347,0,347,0,1,,,,,
,,295848,001,2023-07-24_22h06.17.317,arm3_eps,2022.2.5,MacIntel,59.99160118,611b85b65dbf96875b82ad9d,64aea9d0f615b6559c281482,64becb8ef877164c39521161,right,1,0.3,0.3714,11,0.012962208,0.2367,,,,,,348,0,348,0,1,,,,,
,,295848,001,2023-07-24_22h06.17.317,arm3_eps,2022.2.5,MacIntel,59.99160118,611b85b65dbf96875b82ad9d,64aea9d0f615b6559c281482,64becb8ef877164c39521161,right,1,0.3,0.3714,11,0.014324202,0.2507,,,,,,349,0,349,0,1,,,,,
,,295848,001,2023-07-24_22h06.17.317,arm3_eps,2022.2.5,MacIntel,59.99160118,611b85b65dbf96875b82ad9d,64aea9d0f615b6559c281482,64becb8ef877164c39521161,right,1,0.3,0.3714,11,0.019578013,0.2671,,,,,,350,0,350,0,1,,,,,
,,295848,001,2023-07-24_22h06.17.317,arm3_eps,2022.2.5,MacIntel,59.99160118,611b85b65dbf96875b82ad9d,64aea9d0f615b6559c281482,64becb8ef877164c39521161,right,1,0.3,0.3714,11,0.034214696,0.2981,,,,,,351,0,351,0,1,,,,,
,,295848,001,2023-07-24_22h06.17.317,arm3_eps,2022.2.5,MacIntel,59.99160118,611b85b65dbf96875b82ad9d,64aea9d0f615b6559c281482,64becb8ef877164c39521161,up,-1,0.3,0.3714,12,0,0.4667,,,,,,352,0,352,0,1,,,,,
,,295848,001,2023-07-24_22h06.17.317,arm3_eps,2022.2.5,MacIntel,59.99160118,611b85b65dbf96875b82ad9d,64aea9d0f615b6559c281482,64becb8ef877164c39521161,right,-1,0.3,0.3714,12,-0.04442667,1.33,,,,,,353,0,353,0,1,,,,,
,,295848,001,2023-07-24_22h06.17.317,arm3_eps,2022.2.5,MacIntel,59.99160118,611b85b65dbf96875b82ad9d,64aea9d0f615b6559c281482,64becb8ef877164c39521161,right,-1,0.3,0.3714,12,-0.03657288,0.2542,,,,,,354,0,354,0,1,,,,,
,,295848,001,2023-07-24_22h06.17.317,arm3_eps,2022.2.5,MacIntel,59.99160118,611b85b65dbf96875b82ad9d,64aea9d0f615b6559c281482,64becb8ef877164c39521161,right,-1,0.3,0.3714,12,-0.025389258,0.2519,,,,,,355,0,355,0,1,,,,,
,,295848,001,2023-07-24_22h06.17.317,arm3_eps,2022.2.5,MacIntel,59.99160118,611b85b65dbf96875b82ad9d,64aea9d0f615b6559c281482,64becb8ef877164c39521161,right,-1,0.3,0.3714,12,-0.079213924,0.2844,,,,,,356,0,356,0,1,,,,,
,,295848,001,2023-07-24_22h06.17.317,arm3_eps,2022.2.5,MacIntel,59.99160118,611b85b65dbf96875b82ad9d,64aea9d0f615b6559c281482,64becb8ef877164c39521161,right,-1,0.3,0.3714,12,-0.038227598,0.3162,,,,,,357,0,357,0,1,,,,,
,,295848,001,2023-07-24_22h06.17.317,arm3_eps,2022.2.5,MacIntel,59.99160118,611b85b65dbf96875b82ad9d,64aea9d0f615b6559c281482,64becb8ef877164c39521161,right,-1,0.3,0.3714,12,-0.056549138,0.366,,,,,,358,0,358,0,1,,,,,
,,295848,001,2023-07-24_22h06.17.317,arm3_eps,2022.2.5,MacIntel,59.99160118,611b85b65dbf96875b82ad9d,64aea9d0f615b6559c281482,64becb8ef877164c39521161,right,-1,0.3,0.3714,12,-0.062978888,0.3186,,,,,,359,0,359,0,1,,,,,
,,295848,001,2023-07-24_22h06.17.317,arm3_eps,2022.2.5,MacIntel,59.99160118,611b85b65dbf96875b82ad9d,64aea9d0f615b6559c281482,64becb8ef877164c39521161,down,-1,0.3,0.3714,13,0,0.4659,,,,,,360,0,360,0,1,,,,,
,,295848,001,2023-07-24_22h06.17.317,arm3_eps,2022.2.5,MacIntel,59.99160118,611b85b65dbf96875b82ad9d,64aea9d0f615b6559c281482,64becb8ef877164c39521161,right,-1,0.3,0.3714,13,-0.021471602,1.0652,,,,,,361,0,361,0,1,,,,,
,,295848,001,2023-07-24_22h06.17.317,arm3_eps,2022.2.5,MacIntel,59.99160118,611b85b65dbf96875b82ad9d,64aea9d0f615b6559c281482,64becb8ef877164c39521161,right,-1,0.3,0.3714,13,-0.017819309,0.2497,,,,,,362,0,362,0,1,,,,,
,,295848,001,2023-07-24_22h06.17.317,arm3_eps,2022.2.5,MacIntel,59.99160118,611b85b65dbf96875b82ad9d,64aea9d0f615b6559c281482,64becb8ef877164c39521161,right,-1,0.3,0.3714,13,-0.028348393,0.2888,,,,,,363,0,363,0,1,,,,,
,,295848,001,2023-07-24_22h06.17.317,arm3_eps,2022.2.5,MacIntel,59.99160118,611b85b65dbf96875b82ad9d,64aea9d0f615b6559c281482,64becb8ef877164c39521161,right,-1,0.3,0.3714,13,-0.020269043,0.3319,,,,,,364,0,364,0,1,,,,,
,,295848,001,2023-07-24_22h06.17.317,arm3_eps,2022.2.5,MacIntel,59.99160118,611b85b65dbf96875b82ad9d,64aea9d0f615b6559c281482,64becb8ef877164c39521161,right,-1,0.3,0.3714,13,-0.018927197,0.3493,,,,,,365,0,365,0,1,,,,,
,,295848,001,2023-07-24_22h06.17.317,arm3_eps,2022.2.5,MacIntel,59.99160118,611b85b65dbf96875b82ad9d,64aea9d0f615b6559c281482,64becb8ef877164c39521161,right,-1,0.3,0.3714,13,-0.037093614,1.1499,,,,,,366,0,366,0,1,,,,,
,,295848,001,2023-07-24_22h06.17.317,arm3_eps,2022.2.5,MacIntel,59.99160118,611b85b65dbf96875b82ad9d,64aea9d0f615b6559c281482,64becb8ef877164c39521161,right,-1,0.3,0.3714,13,-0.057174232,0.367,,,,,,367,0,367,0,1,,,,,
,,295848,001,2023-07-24_22h06.17.317,arm3_eps,2022.2.5,MacIntel,59.99160118,611b85b65dbf96875b82ad9d,64aea9d0f615b6559c281482,64becb8ef877164c39521161,down,-1,0.3,0.3714,13,0,0.5836,,,,,,368,0,368,0,1,,,,,
,,295848,001,2023-07-24_22h06.17.317,arm3_eps,2022.2.5,MacIntel,59.99160118,611b85b65dbf96875b82ad9d,64aea9d0f615b6559c281482,64becb8ef877164c39521161,right,-1,0.3,0.3714,13,0.012100962,0.8994,,,,,,369,0,369,0,1,,,,,
,,295848,001,2023-07-24_22h06.17.317,arm3_eps,2022.2.5,MacIntel,59.99160118,611b85b65dbf96875b82ad9d,64aea9d0f615b6559c281482,64becb8ef877164c39521161,,,,,,,,,,,,,,,,,,0,0,0,0,1
space,6.8996,295848,001,2023-07-24_22h06.17.317,arm3_eps,2022.2.5,MacIntel,59.99160118,611b85b65dbf96875b82ad9d,64aea9d0f615b6559c281482,64becb8ef877164c39521161,right,-1,0.3,0.05,13,-0.033628735,3.0196,,,,,,0,0,0,0,1,,,,,
,,295848,001,2023-07-24_22h06.17.317,arm3_eps,2022.2.5,MacIntel,59.99160118,611b85b65dbf96875b82ad9d,64aea9d0f615b6559c281482,64becb8ef877164c39521161,right,-1,0.3,0.05,13,-0.017796434,0.224,,,,,,1,0,1,0,1,,,,,
,,295848,001,2023-07-24_22h06.17.317,arm3_eps,2022.2.5,MacIntel,59.99160118,611b85b65dbf96875b82ad9d,64aea9d0f615b6559c281482,64becb8ef877164c39521161,right,-1,0.3,0.05,13,-0.040590152,0.2992,,,,,,2,0,2,0,1,,,,,
,,295848,001,2023-07-24_22h06.17.317,arm3_eps,2022.2.5,MacIntel,59.99160118,611b85b65dbf96875b82ad9d,64aea9d0f615b6559c281482,64becb8ef877164c39521161,right,-1,0.3,0.05,13,-0.04133383,0.333,,,,,,3,0,3,0,1,,,,,
,,295848,001,2023-07-24_22h06.17.317,arm3_eps,2022.2.5,MacIntel,59.99160118,611b85b65dbf96875b82ad9d,64aea9d0f615b6559c281482,64becb8ef877164c39521161,right,-1,0.3,0.05,13,-0.03501744,0.4158,,,,,,4,0,4,0,1,,,,,
,,295848,001,2023-07-24_22h06.17.317,arm3_eps,2022.2.5,MacIntel,59.99160118,611b85b65dbf96875b82ad9d,64aea9d0f615b6559c281482,64becb8ef877164c39521161,down,-1,0.3,0.05,13,0,0.4999,,,,,,5,0,5,0,1,,,,,
,,295848,001,2023-07-24_22h06.17.317,arm3_eps,2022.2.5,MacIntel,59.99160118,611b85b65dbf96875b82ad9d,64aea9d0f615b6559c281482,64becb8ef877164c39521161,right,-1,0.3,0.05,13,-0.011061417,0.6334,,,,,,6,0,6,0,1,,,,,
,,295848,001,2023-07-24_22h06.17.317,arm3_eps,2022.2.5,MacIntel,59.99160118,611b85b65dbf96875b82ad9d,64aea9d0f615b6559c281482,64becb8ef877164c39521161,right,-1,0.3,0.05,13,-0.006574019,0.2832,,,,,,7,0,7,0,1,,,,,
,,295848,001,2023-07-24_22h06.17.317,arm3_eps,2022.2.5,MacIntel,59.99160118,611b85b65dbf96875b82ad9d,64aea9d0f615b6559c281482,64becb8ef877164c39521161,right,-1,0.3,0.05,13,0.009080914,0.1829,,,,,,8,0,8,0,1,,,,,
,,295848,001,2023-07-24_22h06.17.317,arm3_eps,2022.2.5,MacIntel,59.99160118,611b85b65dbf96875b82ad9d,64aea9d0f615b6559c281482,64becb8ef877164c39521161,right,-1,0.3,0.05,13,-0.023542435,0.2487,,,,,,9,0,9,0,1,,,,,
,,295848,001,2023-07-24_22h06.17.317,arm3_eps,2022.2.5,MacIntel,59.99160118,611b85b65dbf96875b82ad9d,64aea9d0f615b6559c281482,64becb8ef877164c39521161,right,-1,0.3,0.05,13,-0.040210084,0.249,,,,,,10,0,10,0,1,,,,,
,,295848,001,2023-07-24_22h06.17.317,arm3_eps,2022.2.5,MacIntel,59.99160118,611b85b65dbf96875b82ad9d,64aea9d0f615b6559c281482,64becb8ef877164c39521161,right,-1,0.3,0.05,13,-0.054167603,0.2822,,,,,,11,0,11,0,1,,,,,
,,295848,001,2023-07-24_22h06.17.317,arm3_eps,2022.2.5,MacIntel,59.99160118,611b85b65dbf96875b82ad9d,64aea9d0f615b6559c281482,64becb8ef877164c39521161,down,-1,0.3,0.05,14,0,0.4171,,,,,,12,0,12,0,1,,,,,
,,295848,001,2023-07-24_22h06.17.317,arm3_eps,2022.2.5,MacIntel,59.99160118,611b85b65dbf96875b82ad9d,64aea9d0f615b6559c281482,64becb8ef877164c39521161,right,-1,0.3,0.05,14,0.021944939,0.8485,,,,,,13,0,13,0,1,,,,,
,,295848,001,2023-07-24_22h06.17.317,arm3_eps,2022.2.5,MacIntel,59.99160118,611b85b65dbf96875b82ad9d,64aea9d0f615b6559c281482,64becb8ef877164c39521161,right,-1,0.3,0.05,14,0.025356364,0.2852,,,,,,14,0,14,0,1,,,,,
,,295848,001,2023-07-24_22h06.17.317,arm3_eps,2022.2.5,MacIntel,59.99160118,611b85b65dbf96875b82ad9d,64aea9d0f615b6559c281482,64becb8ef877164c39521161,right,-1,0.3,0.05,14,0.028852842,0.3005,,,,,,15,0,15,0,1,,,,,
,,295848,001,2023-07-24_22h06.17.317,arm3_eps,2022.2.5,MacIntel,59.99160118,611b85b65dbf96875b82ad9d,64aea9d0f615b6559c281482,64becb8ef877164c39521161,right,-1,0.3,0.05,14,0.009643719,0.2993,,,,,,16,0,16,0,1,,,,,
,,295848,001,2023-07-24_22h06.17.317,arm3_eps,2022.2.5,MacIntel,59.99160118,611b85b65dbf96875b82ad9d,64aea9d0f615b6559c281482,64becb8ef877164c39521161,right,-1,0.3,0.05,14,0.012651294,0.2999,,,,,,17,0,17,0,1,,,,,
,,295848,001,2023-07-24_22h06.17.317,arm3_eps,2022.2.5,MacIntel,59.99160118,611b85b65dbf96875b82ad9d,64aea9d0f615b6559c281482,64becb8ef877164c39521161,right,-1,0.3,0.05,14,-0.000406045,0.2833,,,,,,18,0,18,0,1,,,,,
,,295848,001,2023-07-24_22h06.17.317,arm3_eps,2022.2.5,MacIntel,59.99160118,611b85b65dbf96875b82ad9d,64aea9d0f615b6559c281482,64becb8ef877164c39521161,right,-1,0.3,0.05,14,-0.020004548,0.3175,,,,,,19,0,19,0,1,,,,,
,,295848,001,2023-07-24_22h06.17.317,arm3_eps,2022.2.5,MacIntel,59.99160118,611b85b65dbf96875b82ad9d,64aea9d0f615b6559c281482,64becb8ef877164c39521161,right,-1,0.3,0.05,14,-0.005011285,0.2991,,,,,,20,0,20,0,1,,,,,
,,295848,001,2023-07-24_22h06.17.317,arm3_eps,2022.2.5,MacIntel,59.99160118,611b85b65dbf96875b82ad9d,64aea9d0f615b6559c281482,64becb8ef877164c39521161,right,-1,0.3,0.05,14,-0.022152155,0.5,,,,,,21,0,21,0,1,,,,,
,,295848,001,2023-07-24_22h06.17.317,arm3_eps,2022.2.5,MacIntel,59.99160118,611b85b65dbf96875b82ad9d,64aea9d0f615b6559c281482,64becb8ef877164c39521161,up,-1,0.3,0.05,14,0,0.5171,,,,,,22,0,22,0,1,,,,,
,,295848,001,2023-07-24_22h06.17.317,arm3_eps,2022.2.5,MacIntel,59.99160118,611b85b65dbf96875b82ad9d,64aea9d0f615b6559c281482,64becb8ef877164c39521161,right,-1,0.3,0.05,14,-0.022928729,0.616,,,,,,23,0,23,0,1,,,,,
,,295848,001,2023-07-24_22h06.17.317,arm3_eps,2022.2.5,MacIntel,59.99160118,611b85b65dbf96875b82ad9d,64aea9d0f615b6559c281482,64becb8ef877164c39521161,right,-1,0.3,0.05,14,-0.043358448,0.2321,,,,,,24,0,24,0,1,,,,,
,,295848,001,2023-07-24_22h06.17.317,arm3_eps,2022.2.5,MacIntel,59.99160118,611b85b65dbf96875b82ad9d,64aea9d0f615b6559c281482,64becb8ef877164c39521161,right,-1,0.3,0.05,14,-0.073587534,0.2153,,,,,,25,0,25,0,1,,,,,
,,295848,001,2023-07-24_22h06.17.317,arm3_eps,2022.2.5,MacIntel,59.99160118,611b85b65dbf96875b82ad9d,64aea9d0f615b6559c281482,64becb8ef877164c39521161,down,-1,0.3,0.05,14,0,0.488,,,,,,26,0,26,0,1,,,,,
,,295848,001,2023-07-24_22h06.17.317,arm3_eps,2022.2.5,MacIntel,59.99160118,611b85b65dbf96875b82ad9d,64aea9d0f615b6559c281482,64becb8ef877164c39521161,right,-1,0.3,0.05,14,0.004270654,0.8197,,,,,,27,0,27,0,1,,,,,
,,295848,001,2023-07-24_22h06.17.317,arm3_eps,2022.2.5,MacIntel,59.99160118,611b85b65dbf96875b82ad9d,64aea9d0f615b6559c281482,64becb8ef877164c39521161,right,-1,0.3,0.05,14,-0.026253941,0.2345,,,,,,28,0,28,0,1,,,,,
,,295848,001,2023-07-24_22h06.17.317,arm3_eps,2022.2.5,MacIntel,59.99160118,611b85b65dbf96875b82ad9d,64aea9d0f615b6559c281482,64becb8ef877164c39521161,right,-1,0.3,0.05,14,0.008896098,0.233,,,,,,29,0,29,0,1,,,,,
,,295848,001,2023-07-24_22h06.17.317,arm3_eps,2022.2.5,MacIntel,59.99160118,611b85b65dbf96875b82ad9d,64aea9d0f615b6559c281482,64becb8ef877164c39521161,right,-1,0.3,0.05,14,-0.004374023,0.2333,,,,,,30,0,30,0,1,,,,,
,,295848,001,2023-07-24_22h06.17.317,arm3_eps,2022.2.5,MacIntel,59.99160118,611b85b65dbf96875b82ad9d,64aea9d0f615b6559c281482,64becb8ef877164c39521161,right,-1,0.3,0.05,14,-0.002543568,0.248,,,,,,31,0,31,0,1,,,,,
,,295848,001,2023-07-24_22h06.17.317,arm3_eps,2022.2.5,MacIntel,59.99160118,611b85b65dbf96875b82ad9d,64aea9d0f615b6559c281482,64becb8ef877164c39521161,right,-1,0.3,0.05,14,-0.014950324,0.282,,,,,,32,0,32,0,1,,,,,
,,295848,001,2023-07-24_22h06.17.317,arm3_eps,2022.2.5,MacIntel,59.99160118,611b85b65dbf96875b82ad9d,64aea9d0f615b6559c281482,64becb8ef877164c39521161,right,-1,0.3,0.05,14,-0.023965748,0.2846,,,,,,33,0,33,0,1,,,,,
