space_bar.keys,space_bar.rt,participant,session,date,expName,psychopyVersion,OS,frameRate,resp.keys,state,q_prob,eps_prob,score,price,resp.rt,steps.thisRepN,steps.thisTrialN,steps.thisN,steps.thisIndex,steps.ran,blocks.thisRepN,blocks.thisTrialN,blocks.thisN,blocks.thisIndex,blocks.ran
space,7.1773,333581,001,2023-07-21_14h22.24.203,arm3_eps,2022.2.5,MacIntel,60.0024001,,,,,,,,,,,,,,,,,
space,12.2783,333581,001,2023-07-21_14h22.24.203,arm3_eps,2022.2.5,MacIntel,60.0024001,,,,,,,,,,,,,,,,,
space,31.5879,333581,001,2023-07-21_14h22.24.203,arm3_eps,2022.2.5,MacIntel,60.0024001,,,,,,,,,,,,,,,,,
space,11.5465,333581,001,2023-07-21_14h22.24.203,arm3_eps,2022.2.5,MacIntel,60.0024001,,,,,,,,,,,,,,,,,
space,45.0302,333581,001,2023-07-21_14h22.24.203,arm3_eps,2022.2.5,MacIntel,60.0024001,,,,,,,,,,,,,,,,,
space,12.7674,333581,001,2023-07-21_14h22.24.203,arm3_eps,2022.2.5,MacIntel,60.0024001,,,,,,,,,,,,,,,,,
space,18.6947,333581,001,2023-07-21_14h22.24.203,arm3_eps,2022.2.5,MacIntel,60.0024001,,,,,,,,,,,,,,,,,
space,12.5375,333581,001,2023-07-21_14h22.24.203,arm3_eps,2022.2.5,MacIntel,60.0024001,,,,,,,,,,,,,,,,,
space,0.739,333581,001,2023-07-21_14h22.24.203,arm3_eps,2022.2.5,MacIntel,60.0024001,,,,,,,,,,,,,,,,,
,,333581,001,2023-07-21_14h22.24.203,arm3_eps,2022.2.5,MacIntel,60.0024001,right,-1,0.3,0.3071,0,-0.003023004,9.7643,0,0,0,0,1,,,,,
,,333581,001,2023-07-21_14h22.24.203,arm3_eps,2022.2.5,MacIntel,60.0024001,right,-1,0.3,0.3071,0,-0.017538957,2.1641,1,0,1,0,1,,,,,
,,333581,001,2023-07-21_14h22.24.203,arm3_eps,2022.2.5,MacIntel,60.0024001,right,-1,0.3,0.3071,0,-0.021089091,0.9827,2,0,2,0,1,,,,,
,,333581,001,2023-07-21_14h22.24.203,arm3_eps,2022.2.5,MacIntel,60.0024001,down,-1,0.3,0.3071,0,0,1.8667,3,0,3,0,1,,,,,
,,333581,001,2023-07-21_14h22.24.203,arm3_eps,2022.2.5,MacIntel,60.0024001,right,-1,0.3,0.3071,0,-0.02869982,2.5817,4,0,4,0,1,,,,,
,,333581,001,2023-07-21_14h22.24.203,arm3_eps,2022.2.5,MacIntel,60.0024001,right,-1,0.3,0.3071,0,-0.011824383,1.3534,5,0,5,0,1,,,,,
,,333581,001,2023-07-21_14h22.24.203,arm3_eps,2022.2.5,MacIntel,60.0024001,right,-1,0.3,0.3071,0,-0.016338313,1.5495,6,0,6,0,1,,,,,
,,333581,001,2023-07-21_14h22.24.203,arm3_eps,2022.2.5,MacIntel,60.0024001,down,-1,0.3,0.3071,0,0,3.3225,7,0,7,0,1,,,,,
,,333581,001,2023-07-21_14h22.24.203,arm3_eps,2022.2.5,MacIntel,60.0024001,right,-1,0.3,0.3071,0,-0.019856706,1.6678,8,0,8,0,1,,,,,
,,333581,001,2023-07-21_14h22.24.203,arm3_eps,2022.2.5,MacIntel,60.0024001,right,-1,0.3,0.3071,0,-0.024308311,0.7995,9,0,9,0,1,,,,,
,,333581,001,2023-07-21_14h22.24.203,arm3_eps,2022.2.5,MacIntel,60.0024001,right,-1,0.3,0.3071,0,-0.034564334,0.6379,10,0,10,0,1,,,,,
,,333581,001,2023-07-21_14h22.24.203,arm3_eps,2022.2.5,MacIntel,60.0024001,down,-1,0.3,0.3071,1,0,0.7005,11,0,11,0,1,,,,,
,,333581,001,2023-07-21_14h22.24.203,arm3_eps,2022.2.5,MacIntel,60.0024001,right,-1,0.3,0.3071,1,0.001912402,1.8458,12,0,12,0,1,,,,,
,,333581,001,2023-07-21_14h22.24.203,arm3_eps,2022.2.5,MacIntel,60.0024001,right,-1,0.3,0.3071,1,-0.002340364,0.9336,13,0,13,0,1,,,,,
,,333581,001,2023-07-21_14h22.24.203,arm3_eps,2022.2.5,MacIntel,60.0024001,right,-1,0.3,0.3071,1,-0.051153638,2.1182,14,0,14,0,1,,,,,
,,333581,001,2023-07-21_14h22.24.203,arm3_eps,2022.2.5,MacIntel,60.0024001,right,-1,0.3,0.3071,1,-0.072579588,0.5636,15,0,15,0,1,,,,,
,,333581,001,2023-07-21_14h22.24.203,arm3_eps,2022.2.5,MacIntel,60.0024001,right,-1,0.3,0.3071,1,-0.08155754,1.6038,16,0,16,0,1,,,,,
,,333581,001,2023-07-21_14h22.24.203,arm3_eps,2022.2.5,MacIntel,60.0024001,down,1,0.3,0.3071,2,0,0.7188,17,0,17,0,1,,,,,
,,333581,001,2023-07-21_14h22.24.203,arm3_eps,2022.2.5,MacIntel,60.0024001,right,1,0.3,0.3071,2,0.029367967,1.3554,18,0,18,0,1,,,,,
,,333581,001,2023-07-21_14h22.24.203,arm3_eps,2022.2.5,MacIntel,60.0024001,right,1,0.3,0.3071,2,0.051508697,2.059,19,0,19,0,1,,,,,
,,333581,001,2023-07-21_14h22.24.203,arm3_eps,2022.2.5,MacIntel,60.0024001,up,-1,0.3,0.3071,2,0,1.3324,20,0,20,0,1,,,,,
,,333581,001,2023-07-21_14h22.24.203,arm3_eps,2022.2.5,MacIntel,60.0024001,right,-1,0.3,0.3071,2,-0.000697638,7.0646,21,0,21,0,1,,,,,
,,333581,001,2023-07-21_14h22.24.203,arm3_eps,2022.2.5,MacIntel,60.0024001,right,-1,0.3,0.3071,2,0.022690359,0.7151,22,0,22,0,1,,,,,
,,333581,001,2023-07-21_14h22.24.203,arm3_eps,2022.2.5,MacIntel,60.0024001,right,-1,0.3,0.3071,2,0.020247021,0.7169,23,0,23,0,1,,,,,
,,333581,001,2023-07-21_14h22.24.203,arm3_eps,2022.2.5,MacIntel,60.0024001,up,-1,0.3,0.3071,1,0,1.6832,24,0,24,0,1,,,,,
,,333581,001,2023-07-21_14h22.24.203,arm3_eps,2022.2.5,MacIntel,60.0024001,right,-1,0.3,0.3071,1,0.006884378,3.834,25,0,25,0,1,,,,,
,,333581,001,2023-07-21_14h22.24.203,arm3_eps,2022.2.5,MacIntel,60.0024001,right,-1,0.3,0.3071,1,0.006240211,0.5941,26,0,26,0,1,,,,,
,,333581,001,2023-07-21_14h22.24.203,arm3_eps,2022.2.5,MacIntel,60.0024001,right,-1,0.3,0.3071,1,-0.029247931,1.1432,27,0,27,0,1,,,,,
,,333581,001,2023-07-21_14h22.24.203,arm3_eps,2022.2.5,MacIntel,60.0024001,down,1,0.3,0.3071,2,0,1.2325,28,0,28,0,1,,,,,
,,333581,001,2023-07-21_14h22.24.203,arm3_eps,2022.2.5,MacIntel,60.0024001,right,1,0.3,0.3071,2,0.001542989,2.3966,29,0,29,0,1,,,,,
,,333581,001,2023-07-21_14h22.24.203,arm3_eps,2022.2.5,MacIntel,60.0024001,right,1,0.3,0.3071,2,0.035312495,0.6174,30,0,30,0,1,,,,,
,,333581,001,2023-07-21_14h22.24.203,arm3_eps,2022.2.5,MacIntel,60.0024001,up,-1,0.3,0.3071,2,0,0.9149,31,0,31,0,1,,,,,
,,333581,001,2023-07-21_14h22.24.203,arm3_eps,2022.2.5,MacIntel,60.0024001,right,-1,0.3,0.3071,2,0.000559002,4.6154,32,0,32,0,1,,,,,
,,333581,001,2023-07-21_14h22.24.203,arm3_eps,2022.2.5,MacIntel,60.0024001,right,-1,0.3,0.3071,2,-0.010566939,0.6639,33,0,33,0,1,,,,,
,,333581,001,2023-07-21_14h22.24.203,arm3_eps,2022.2.5,MacIntel,60.0024001,right,-1,0.3,0.3071,2,-0.034434628,1.4168,34,0,34,0,1,,,,,
,,333581,001,2023-07-21_14h22.24.203,arm3_eps,2022.2.5,MacIntel,60.0024001,down,1,0.3,0.3071,3,0,2.146,35,0,35,0,1,,,,,
,,333581,001,2023-07-21_14h22.24.203,arm3_eps,2022.2.5,MacIntel,60.0024001,right,1,0.3,0.3071,3,0.020563189,1.935,36,0,36,0,1,,,,,
,,333581,001,2023-07-21_14h22.24.203,arm3_eps,2022.2.5,MacIntel,60.0024001,right,1,0.3,0.3071,3,0.015947481,0.5156,37,0,37,0,1,,,,,
,,333581,001,2023-07-21_14h22.24.203,arm3_eps,2022.2.5,MacIntel,60.0024001,right,1,0.3,0.3071,3,0.018785448,0.5035,38,0,38,0,1,,,,,
,,333581,001,2023-07-21_14h22.24.203,arm3_eps,2022.2.5,MacIntel,60.0024001,up,1,0.3,0.3071,3,0,8.0836,39,0,39,0,1,,,,,
,,333581,001,2023-07-21_14h22.24.203,arm3_eps,2022.2.5,MacIntel,60.0024001,right,1,0.3,0.3071,3,0.013039161,5.8635,40,0,40,0,1,,,,,
,,333581,001,2023-07-21_14h22.24.203,arm3_eps,2022.2.5,MacIntel,60.0024001,right,1,0.3,0.3071,3,0.035041295,1.451,41,0,41,0,1,,,,,
,,333581,001,2023-07-21_14h22.24.203,arm3_eps,2022.2.5,MacIntel,60.0024001,up,1,0.3,0.3071,4,0,1.7819,42,0,42,0,1,,,,,
,,333581,001,2023-07-21_14h22.24.203,arm3_eps,2022.2.5,MacIntel,60.0024001,right,1,0.3,0.3071,4,0.043880901,1.9575,43,0,43,0,1,,,,,
,,333581,001,2023-07-21_14h22.24.203,arm3_eps,2022.2.5,MacIntel,60.0024001,right,1,0.3,0.3071,4,0.023990027,0.5088,44,0,44,0,1,,,,,
,,333581,001,2023-07-21_14h22.24.203,arm3_eps,2022.2.5,MacIntel,60.0024001,right,1,0.3,0.3071,4,0.028576064,0.5988,45,0,45,0,1,,,,,
,,333581,001,2023-07-21_14h22.24.203,arm3_eps,2022.2.5,MacIntel,60.0024001,right,1,0.3,0.3071,4,0.050320073,0.9559,46,0,46,0,1,,,,,
,,333581,001,2023-07-21_14h22.24.203,arm3_eps,2022.2.5,MacIntel,60.0024001,right,1,0.3,0.3071,4,0.026162042,0.6358,47,0,47,0,1,,,,,
,,333581,001,2023-07-21_14h22.24.203,arm3_eps,2022.2.5,MacIntel,60.0024001,right,1,0.3,0.3071,4,0.037720413,0.58,48,0,48,0,1,,,,,
,,333581,001,2023-07-21_14h22.24.203,arm3_eps,2022.2.5,MacIntel,60.0024001,up,1,0.3,0.3071,4,0,2.8144,49,0,49,0,1,,,,,
,,333581,001,2023-07-21_14h22.24.203,arm3_eps,2022.2.5,MacIntel,60.0024001,right,1,0.3,0.3071,4,0.002183875,2.247,50,0,50,0,1,,,,,
,,333581,001,2023-07-21_14h22.24.203,arm3_eps,2022.2.5,MacIntel,60.0024001,right,1,0.3,0.3071,4,0.031827139,0.3304,51,0,51,0,1,,,,,
,,333581,001,2023-07-21_14h22.24.203,arm3_eps,2022.2.5,MacIntel,60.0024001,right,1,0.3,0.3071,4,0.052794437,0.4954,52,0,52,0,1,,,,,
,,333581,001,2023-07-21_14h22.24.203,arm3_eps,2022.2.5,MacIntel,60.0024001,right,1,0.3,0.3071,4,0.055712157,0.7158,53,0,53,0,1,,,,,
,,333581,001,2023-07-21_14h22.24.203,arm3_eps,2022.2.5,MacIntel,60.0024001,up,1,0.3,0.3071,4,0,0.5678,54,0,54,0,1,,,,,
,,333581,001,2023-07-21_14h22.24.203,arm3_eps,2022.2.5,MacIntel,60.0024001,right,1,0.3,0.3071,4,0.017339159,2.8494,55,0,55,0,1,,,,,
,,333581,001,2023-07-21_14h22.24.203,arm3_eps,2022.2.5,MacIntel,60.0024001,right,1,0.3,0.3071,4,0.038281118,0.3672,56,0,56,0,1,,,,,
,,333581,001,2023-07-21_14h22.24.203,arm3_eps,2022.2.5,MacIntel,60.0024001,right,1,0.3,0.3071,4,0.035395793,0.4452,57,0,57,0,1,,,,,
,,333581,001,2023-07-21_14h22.24.203,arm3_eps,2022.2.5,MacIntel,60.0024001,up,1,0.3,0.3071,4,0,4.7916,58,0,58,0,1,,,,,
,,333581,001,2023-07-21_14h22.24.203,arm3_eps,2022.2.5,MacIntel,60.0024001,right,1,0.3,0.3071,4,0.030558433,0.9522,59,0,59,0,1,,,,,
,,333581,001,2023-07-21_14h22.24.203,arm3_eps,2022.2.5,MacIntel,60.0024001,right,1,0.3,0.3071,4,-0.008856848,0.2638,60,0,60,0,1,,,,,
,,333581,001,2023-07-21_14h22.24.203,arm3_eps,2022.2.5,MacIntel,60.0024001,right,1,0.3,0.3071,4,0.015247153,0.3333,61,0,61,0,1,,,,,
,,333581,001,2023-07-21_14h22.24.203,arm3_eps,2022.2.5,MacIntel,60.0024001,right,1,0.3,0.3071,4,0.026314198,0.5009,62,0,62,0,1,,,,,
,,333581,001,2023-07-21_14h22.24.203,arm3_eps,2022.2.5,MacIntel,60.0024001,up,-1,0.3,0.3071,4,0,1.3665,63,0,63,0,1,,,,,
,,333581,001,2023-07-21_14h22.24.203,arm3_eps,2022.2.5,MacIntel,60.0024001,right,-1,0.3,0.3071,4,0.001044002,1.2344,64,0,64,0,1,,,,,
,,333581,001,2023-07-21_14h22.24.203,arm3_eps,2022.2.5,MacIntel,60.0024001,right,-1,0.3,0.3071,4,0.023208219,0.3153,65,0,65,0,1,,,,,
,,333581,001,2023-07-21_14h22.24.203,arm3_eps,2022.2.5,MacIntel,60.0024001,right,-1,0.3,0.3071,4,0.033191143,0.9288,66,0,66,0,1,,,,,
,,333581,001,2023-07-21_14h22.24.203,arm3_eps,2022.2.5,MacIntel,60.0024001,right,-1,0.3,0.3071,4,-0.010861219,0.3107,67,0,67,0,1,,,,,
,,333581,001,2023-07-21_14h22.24.203,arm3_eps,2022.2.5,MacIntel,60.0024001,right,-1,0.3,0.3071,4,-0.009719076,0.365,68,0,68,0,1,,,,,
,,333581,001,2023-07-21_14h22.24.203,arm3_eps,2022.2.5,MacIntel,60.0024001,right,-1,0.3,0.3071,4,0.006779119,0.5512,69,0,69,0,1,,,,,
,,333581,001,2023-07-21_14h22.24.203,arm3_eps,2022.2.5,MacIntel,60.0024001,right,-1,0.3,0.3071,4,0.029015685,0.5283,70,0,70,0,1,,,,,
,,333581,001,2023-07-21_14h22.24.203,arm3_eps,2022.2.5,MacIntel,60.0024001,right,-1,0.3,0.3071,4,-0.004194783,0.5494,71,0,71,0,1,,,,,
,,333581,001,2023-07-21_14h22.24.203,arm3_eps,2022.2.5,MacIntel,60.0024001,right,-1,0.3,0.3071,4,-0.01614382,0.5111,72,0,72,0,1,,,,,
,,333581,001,2023-07-21_14h22.24.203,arm3_eps,2022.2.5,MacIntel,60.0024001,right,-1,0.3,0.3071,4,-0.030289805,0.9,73,0,73,0,1,,,,,
,,333581,001,2023-07-21_14h22.24.203,arm3_eps,2022.2.5,MacIntel,60.0024001,down,-1,0.3,0.3071,5,0,1.0294,74,0,74,0,1,,,,,
,,333581,001,2023-07-21_14h22.24.203,arm3_eps,2022.2.5,MacIntel,60.0024001,right,-1,0.3,0.3071,5,-0.031371534,1.2745,75,0,75,0,1,,,,,
,,333581,001,2023-07-21_14h22.24.203,arm3_eps,2022.2.5,MacIntel,60.0024001,right,-1,0.3,0.3071,5,-0.062616532,0.529,76,0,76,0,1,,,,,
,,333581,001,2023-07-21_14h22.24.203,arm3_eps,2022.2.5,MacIntel,60.0024001,right,-1,0.3,0.3071,5,-0.047607949,0.4506,77,0,77,0,1,,,,,
,,333581,001,2023-07-21_14h22.24.203,arm3_eps,2022.2.5,MacIntel,60.0024001,right,-1,0.3,0.3071,5,-0.06142958,0.3959,78,0,78,0,1,,,,,
,,333581,001,2023-07-21_14h22.24.203,arm3_eps,2022.2.5,MacIntel,60.0024001,right,-1,0.3,0.3071,5,-0.104219219,0.3508,79,0,79,0,1,,,,,
,,333581,001,2023-07-21_14h22.24.203,arm3_eps,2022.2.5,MacIntel,60.0024001,down,-1,0.3,0.3071,5,0,0.6338,80,0,80,0,1,,,,,
,,333581,001,2023-07-21_14h22.24.203,arm3_eps,2022.2.5,MacIntel,60.0024001,right,-1,0.3,0.3071,5,-0.023369244,1.9454,81,0,81,0,1,,,,,
,,333581,001,2023-07-21_14h22.24.203,arm3_eps,2022.2.5,MacIntel,60.0024001,right,-1,0.3,0.3071,5,-0.041001364,0.2698,82,0,82,0,1,,,,,
,,333581,001,2023-07-21_14h22.24.203,arm3_eps,2022.2.5,MacIntel,60.0024001,right,-1,0.3,0.3071,5,-0.012266208,0.2162,83,0,83,0,1,,,,,
,,333581,001,2023-07-21_14h22.24.203,arm3_eps,2022.2.5,MacIntel,60.0024001,right,-1,0.3,0.3071,5,-0.027584954,0.2783,84,0,84,0,1,,,,,
,,333581,001,2023-07-21_14h22.24.203,arm3_eps,2022.2.5,MacIntel,60.0024001,right,-1,0.3,0.3071,5,-0.057315557,0.3485,85,0,85,0,1,,,,,
,,333581,001,2023-07-21_14h22.24.203,arm3_eps,2022.2.5,MacIntel,60.0024001,right,-1,0.3,0.3071,5,-0.077534366,0.401,86,0,86,0,1,,,,,
,,333581,001,2023-07-21_14h22.24.203,arm3_eps,2022.2.5,MacIntel,60.0024001,down,-1,0.3,0.3071,5,0,0.6636,87,0,87,0,1,,,,,
,,333581,001,2023-07-21_14h22.24.203,arm3_eps,2022.2.5,MacIntel,60.0024001,right,-1,0.3,0.3071,5,-0.017898537,0.9693,88,0,88,0,1,,,,,
,,333581,001,2023-07-21_14h22.24.203,arm3_eps,2022.2.5,MacIntel,60.0024001,right,-1,0.3,0.3071,5,-0.067071943,0.2563,89,0,89,0,1,,,,,
,,333581,001,2023-07-21_14h22.24.203,arm3_eps,2022.2.5,MacIntel,60.0024001,right,-1,0.3,0.3071,5,-0.064142219,0.2803,90,0,90,0,1,,,,,
,,333581,001,2023-07-21_14h22.24.203,arm3_eps,2022.2.5,MacIntel,60.0024001,right,-1,0.3,0.3071,5,-0.075922673,0.2841,91,0,91,0,1,,,,,
,,333581,001,2023-07-21_14h22.24.203,arm3_eps,2022.2.5,MacIntel,60.0024001,right,-1,0.3,0.3071,5,-0.081790616,0.3841,92,0,92,0,1,,,,,
,,333581,001,2023-07-21_14h22.24.203,arm3_eps,2022.2.5,MacIntel,60.0024001,right,-1,0.3,0.3071,5,-0.086546769,1.4298,93,0,93,0,1,,,,,
,,333581,001,2023-07-21_14h22.24.203,arm3_eps,2022.2.5,MacIntel,60.0024001,right,-1,0.3,0.3071,5,-0.081339636,0.6935,94,0,94,0,1,,,,,
,,333581,001,2023-07-21_14h22.24.203,arm3_eps,2022.2.5,MacIntel,60.0024001,right,-1,0.3,0.3071,5,-0.063900417,0.5488,95,0,95,0,1,,,,,
,,333581,001,2023-07-21_14h22.24.203,arm3_eps,2022.2.5,MacIntel,60.0024001,right,-1,0.3,0.3071,5,-0.078684998,2.11,96,0,96,0,1,,,,,
,,333581,001,2023-07-21_14h22.24.203,arm3_eps,2022.2.5,MacIntel,60.0024001,right,-1,0.3,0.3071,5,-0.070997396,0.593,97,0,97,0,1,,,,,
,,333581,001,2023-07-21_14h22.24.203,arm3_eps,2022.2.5,MacIntel,60.0024001,down,-1,0.3,0.3071,5,0,0.8644,98,0,98,0,1,,,,,
,,333581,001,2023-07-21_14h22.24.203,arm3_eps,2022.2.5,MacIntel,60.0024001,right,-1,0.3,0.3071,5,0.003433681,1.0663,99,0,99,0,1,,,,,
,,333581,001,2023-07-21_14h22.24.203,arm3_eps,2022.2.5,MacIntel,60.0024001,right,-1,0.3,0.3071,5,-0.008623595,0.2983,100,0,100,0,1,,,,,
,,333581,001,2023-07-21_14h22.24.203,arm3_eps,2022.2.5,MacIntel,60.0024001,right,-1,0.3,0.3071,5,-0.020857507,0.2513,101,0,101,0,1,,,,,
,,333581,001,2023-07-21_14h22.24.203,arm3_eps,2022.2.5,MacIntel,60.0024001,right,-1,0.3,0.3071,5,-0.054440879,0.3635,102,0,102,0,1,,,,,
,,333581,001,2023-07-21_14h22.24.203,arm3_eps,2022.2.5,MacIntel,60.0024001,right,-1,0.3,0.3071,5,-0.054585909,0.326,103,0,103,0,1,,,,,
,,333581,001,2023-07-21_14h22.24.203,arm3_eps,2022.2.5,MacIntel,60.0024001,right,-1,0.3,0.3071,5,-0.076497851,0.314,104,0,104,0,1,,,,,
,,333581,001,2023-07-21_14h22.24.203,arm3_eps,2022.2.5,MacIntel,60.0024001,right,-1,0.3,0.3071,5,-0.078714062,0.3599,105,0,105,0,1,,,,,
,,333581,001,2023-07-21_14h22.24.203,arm3_eps,2022.2.5,MacIntel,60.0024001,down,-1,0.3,0.3071,6,0,1.0154,106,0,106,0,1,,,,,
,,333581,001,2023-07-21_14h22.24.203,arm3_eps,2022.2.5,MacIntel,60.0024001,right,-1,0.3,0.3071,6,-0.000990069,0.9696,107,0,107,0,1,,,,,
,,333581,001,2023-07-21_14h22.24.203,arm3_eps,2022.2.5,MacIntel,60.0024001,right,-1,0.3,0.3071,6,-0.01174985,0.2359,108,0,108,0,1,,,,,
,,333581,001,2023-07-21_14h22.24.203,arm3_eps,2022.2.5,MacIntel,60.0024001,right,-1,0.3,0.3071,6,-0.020651092,0.202,109,0,109,0,1,,,,,
,,333581,001,2023-07-21_14h22.24.203,arm3_eps,2022.2.5,MacIntel,60.0024001,right,-1,0.3,0.3071,6,-0.045672869,0.2489,110,0,110,0,1,,,,,
,,333581,001,2023-07-21_14h22.24.203,arm3_eps,2022.2.5,MacIntel,60.0024001,right,-1,0.3,0.3071,6,-0.045043795,0.4345,111,0,111,0,1,,,,,
,,333581,001,2023-07-21_14h22.24.203,arm3_eps,2022.2.5,MacIntel,60.0024001,right,-1,0.3,0.3071,6,-0.060565144,1.0849,112,0,112,0,1,,,,,
,,333581,001,2023-07-21_14h22.24.203,arm3_eps,2022.2.5,MacIntel,60.0024001,right,-1,0.3,0.3071,6,-0.07844073,0.9142,113,0,113,0,1,,,,,
,,333581,001,2023-07-21_14h22.24.203,arm3_eps,2022.2.5,MacIntel,60.0024001,down,-1,0.3,0.3071,7,0,0.4977,114,0,114,0,1,,,,,
,,333581,001,2023-07-21_14h22.24.203,arm3_eps,2022.2.5,MacIntel,60.0024001,right,-1,0.3,0.3071,7,0.004260082,0.9146,115,0,115,0,1,,,,,
,,333581,001,2023-07-21_14h22.24.203,arm3_eps,2022.2.5,MacIntel,60.0024001,right,-1,0.3,0.3071,7,-0.020963188,0.2003,116,0,116,0,1,,,,,
,,333581,001,2023-07-21_14h22.24.203,arm3_eps,2022.2.5,MacIntel,60.0024001,right,-1,0.3,0.3071,7,-0.008898152,0.1996,117,0,117,0,1,,,,,
,,333581,001,2023-07-21_14h22.24.203,arm3_eps,2022.2.5,MacIntel,60.0024001,right,-1,0.3,0.3071,7,-0.008373236,0.4674,118,0,118,0,1,,,,,
,,333581,001,2023-07-21_14h22.24.203,arm3_eps,2022.2.5,MacIntel,60.0024001,right,-1,0.3,0.3071,7,-0.003450056,0.4017,119,0,119,0,1,,,,,
,,333581,001,2023-07-21_14h22.24.203,arm3_eps,2022.2.5,MacIntel,60.0024001,right,-1,0.3,0.3071,7,0.016691211,0.484,120,0,120,0,1,,,,,
,,333581,001,2023-07-21_14h22.24.203,arm3_eps,2022.2.5,MacIntel,60.0024001,right,-1,0.3,0.3071,7,-0.023936387,0.4951,121,0,121,0,1,,,,,
,,333581,001,2023-07-21_14h22.24.203,arm3_eps,2022.2.5,MacIntel,60.0024001,right,-1,0.3,0.3071,7,-0.020919677,0.3651,122,0,122,0,1,,,,,
,,333581,001,2023-07-21_14h22.24.203,arm3_eps,2022.2.5,MacIntel,60.0024001,right,-1,0.3,0.3071,7,-0.019431942,0.3815,123,0,123,0,1,,,,,
,,333581,001,2023-07-21_14h22.24.203,arm3_eps,2022.2.5,MacIntel,60.0024001,down,-1,0.3,0.3071,7,0,1.332,124,0,124,0,1,,,,,
,,333581,001,2023-07-21_14h22.24.203,arm3_eps,2022.2.5,MacIntel,60.0024001,right,-1,0.3,0.3071,7,-0.029068829,1.1195,125,0,125,0,1,,,,,
,,333581,001,2023-07-21_14h22.24.203,arm3_eps,2022.2.5,MacIntel,60.0024001,right,-1,0.3,0.3071,7,-0.035125398,0.7474,126,0,126,0,1,,,,,
,,333581,001,2023-07-21_14h22.24.203,arm3_eps,2022.2.5,MacIntel,60.0024001,right,-1,0.3,0.3071,7,-0.030441938,0.3611,127,0,127,0,1,,,,,
,,333581,001,2023-07-21_14h22.24.203,arm3_eps,2022.2.5,MacIntel,60.0024001,right,-1,0.3,0.3071,7,-0.007136274,0.3777,128,0,128,0,1,,,,,
,,333581,001,2023-07-21_14h22.24.203,arm3_eps,2022.2.5,MacIntel,60.0024001,right,-1,0.3,0.3071,7,-0.006574638,0.4287,129,0,129,0,1,,,,,
,,333581,001,2023-07-21_14h22.24.203,arm3_eps,2022.2.5,MacIntel,60.0024001,right,-1,0.3,0.3071,7,-0.018001884,0.3936,130,0,130,0,1,,,,,
,,333581,001,2023-07-21_14h22.24.203,arm3_eps,2022.2.5,MacIntel,60.0024001,right,-1,0.3,0.3071,7,-0.021895167,0.6039,131,0,131,0,1,,,,,
,,333581,001,2023-07-21_14h22.24.203,arm3_eps,2022.2.5,MacIntel,60.0024001,right,-1,0.3,0.3071,7,-0.03859812,0.6138,132,0,132,0,1,,,,,
,,333581,001,2023-07-21_14h22.24.203,arm3_eps,2022.2.5,MacIntel,60.0024001,right,-1,0.3,0.3071,7,-0.043186209,1.5348,133,0,133,0,1,,,,,
,,333581,001,2023-07-21_14h22.24.203,arm3_eps,2022.2.5,MacIntel,60.0024001,right,-1,0.3,0.3071,7,-0.021996015,0.5515,134,0,134,0,1,,,,,
,,333581,001,2023-07-21_14h22.24.203,arm3_eps,2022.2.5,MacIntel,60.0024001,down,-1,0.3,0.3071,7,0,0.943,135,0,135,0,1,,,,,
,,333581,001,2023-07-21_14h22.24.203,arm3_eps,2022.2.5,MacIntel,60.0024001,right,-1,0.3,0.3071,7,-0.02221558,1.1157,136,0,136,0,1,,,,,
,,333581,001,2023-07-21_14h22.24.203,arm3_eps,2022.2.5,MacIntel,60.0024001,right,-1,0.3,0.3071,7,-0.037478467,0.4162,137,0,137,0,1,,,,,
,,333581,001,2023-07-21_14h22.24.203,arm3_eps,2022.2.5,MacIntel,60.0024001,right,-1,0.3,0.3071,7,-0.061473197,0.3304,138,0,138,0,1,,,,,
,,333581,001,2023-07-21_14h22.24.203,arm3_eps,2022.2.5,MacIntel,60.0024001,right,-1,0.3,0.3071,7,-0.07929161,0.38,139,0,139,0,1,,,,,
,,333581,001,2023-07-21_14h22.24.203,arm3_eps,2022.2.5,MacIntel,60.0024001,right,-1,0.3,0.3071,7,-0.090975233,0.4109,140,0,140,0,1,,,,,
,,333581,001,2023-07-21_14h22.24.203,arm3_eps,2022.2.5,MacIntel,60.0024001,right,-1,0.3,0.3071,7,-0.102639219,0.401,141,0,141,0,1,,,,,
,,333581,001,2023-07-21_14h22.24.203,arm3_eps,2022.2.5,MacIntel,60.0024001,down,-1,0.3,0.3071,7,0,0.649,142,0,142,0,1,,,,,
,,333581,001,2023-07-21_14h22.24.203,arm3_eps,2022.2.5,MacIntel,60.0024001,right,-1,0.3,0.3071,7,-0.024827,0.9828,143,0,143,0,1,,,,,
,,333581,001,2023-07-21_14h22.24.203,arm3_eps,2022.2.5,MacIntel,60.0024001,right,-1,0.3,0.3071,7,-0.023121174,0.2802,144,0,144,0,1,,,,,
,,333581,001,2023-07-21_14h22.24.203,arm3_eps,2022.2.5,MacIntel,60.0024001,right,-1,0.3,0.3071,7,-0.030007622,0.3292,145,0,145,0,1,,,,,
,,333581,001,2023-07-21_14h22.24.203,arm3_eps,2022.2.5,MacIntel,60.0024001,right,-1,0.3,0.3071,7,-0.08814451,0.3218,146,0,146,0,1,,,,,
,,333581,001,2023-07-21_14h22.24.203,arm3_eps,2022.2.5,MacIntel,60.0024001,right,-1,0.3,0.3071,7,-0.08733597,0.4638,147,0,147,0,1,,,,,
,,333581,001,2023-07-21_14h22.24.203,arm3_eps,2022.2.5,MacIntel,60.0024001,right,-1,0.3,0.3071,7,-0.080187255,0.405,148,0,148,0,1,,,,,
,,333581,001,2023-07-21_14h22.24.203,arm3_eps,2022.2.5,MacIntel,60.0024001,right,-1,0.3,0.3071,7,-0.089624266,0.4356,149,0,149,0,1,,,,,
,,333581,001,2023-07-21_14h22.24.203,arm3_eps,2022.2.5,MacIntel,60.0024001,right,-1,0.3,0.3071,7,-0.075497334,0.7662,150,0,150,0,1,,,,,
,,333581,001,2023-07-21_14h22.24.203,arm3_eps,2022.2.5,MacIntel,60.0024001,down,-1,0.3,0.3071,7,0,0.5546,151,0,151,0,1,,,,,
,,333581,001,2023-07-21_14h22.24.203,arm3_eps,2022.2.5,MacIntel,60.0024001,right,-1,0.3,0.3071,7,-0.01558715,0.9972,152,0,152,0,1,,,,,
,,333581,001,2023-07-21_14h22.24.203,arm3_eps,2022.2.5,MacIntel,60.0024001,right,-1,0.3,0.3071,7,-0.021009586,0.3458,153,0,153,0,1,,,,,
,,333581,001,2023-07-21_14h22.24.203,arm3_eps,2022.2.5,MacIntel,60.0024001,right,-1,0.3,0.3071,7,-0.057548509,0.3366,154,0,154,0,1,,,,,
,,333581,001,2023-07-21_14h22.24.203,arm3_eps,2022.2.5,MacIntel,60.0024001,right,-1,0.3,0.3071,7,-0.05928678,0.4657,155,0,155,0,1,,,,,
,,333581,001,2023-07-21_14h22.24.203,arm3_eps,2022.2.5,MacIntel,60.0024001,right,-1,0.3,0.3071,7,-0.098267279,0.2846,156,0,156,0,1,,,,,
,,333581,001,2023-07-21_14h22.24.203,arm3_eps,2022.2.5,MacIntel,60.0024001,down,1,0.3,0.3071,8,0,1.0718,157,0,157,0,1,,,,,
,,333581,001,2023-07-21_14h22.24.203,arm3_eps,2022.2.5,MacIntel,60.0024001,right,1,0.3,0.3071,8,0.009190193,0.962,158,0,158,0,1,,,,,
,,333581,001,2023-07-21_14h22.24.203,arm3_eps,2022.2.5,MacIntel,60.0024001,right,1,0.3,0.3071,8,0.04759847,0.3207,159,0,159,0,1,,,,,
,,333581,001,2023-07-21_14h22.24.203,arm3_eps,2022.2.5,MacIntel,60.0024001,right,1,0.3,0.3071,8,0.074579823,1.7141,160,0,160,0,1,,,,,
,,333581,001,2023-07-21_14h22.24.203,arm3_eps,2022.2.5,MacIntel,60.0024001,right,1,0.3,0.3071,8,0.09071179,0.4485,161,0,161,0,1,,,,,
,,333581,001,2023-07-21_14h22.24.203,arm3_eps,2022.2.5,MacIntel,60.0024001,up,1,0.3,0.3071,8,0,0.5128,162,0,162,0,1,,,,,
,,333581,001,2023-07-21_14h22.24.203,arm3_eps,2022.2.5,MacIntel,60.0024001,right,1,0.3,0.3071,8,0.050093195,0.8537,163,0,163,0,1,,,,,
,,333581,001,2023-07-21_14h22.24.203,arm3_eps,2022.2.5,MacIntel,60.0024001,right,1,0.3,0.3071,8,0.063917083,0.4809,164,0,164,0,1,,,,,
,,333581,001,2023-07-21_14h22.24.203,arm3_eps,2022.2.5,MacIntel,60.0024001,right,1,0.3,0.3071,8,0.083826044,0.3179,165,0,165,0,1,,,,,
,,333581,001,2023-07-21_14h22.24.203,arm3_eps,2022.2.5,MacIntel,60.0024001,right,1,0.3,0.3071,8,0.07902596,0.917,166,0,166,0,1,,,,,
,,333581,001,2023-07-21_14h22.24.203,arm3_eps,2022.2.5,MacIntel,60.0024001,right,1,0.3,0.3071,8,0.08049995,0.5357,167,0,167,0,1,,,,,
,,333581,001,2023-07-21_14h22.24.203,arm3_eps,2022.2.5,MacIntel,60.0024001,up,-1,0.3,0.3071,8,0,1.2489,168,0,168,0,1,,,,,
,,333581,001,2023-07-21_14h22.24.203,arm3_eps,2022.2.5,MacIntel,60.0024001,right,-1,0.3,0.3071,8,-0.009456774,0.9794,169,0,169,0,1,,,,,
,,333581,001,2023-07-21_14h22.24.203,arm3_eps,2022.2.5,MacIntel,60.0024001,right,-1,0.3,0.3071,8,-0.029393848,0.3311,170,0,170,0,1,,,,,
,,333581,001,2023-07-21_14h22.24.203,arm3_eps,2022.2.5,MacIntel,60.0024001,right,-1,0.3,0.3071,8,-0.032068165,0.2188,171,0,171,0,1,,,,,
,,333581,001,2023-07-21_14h22.24.203,arm3_eps,2022.2.5,MacIntel,60.0024001,right,-1,0.3,0.3071,8,-0.083501093,0.5661,172,0,172,0,1,,,,,
,,333581,001,2023-07-21_14h22.24.203,arm3_eps,2022.2.5,MacIntel,60.0024001,right,-1,0.3,0.3071,8,-0.08578917,2.0511,173,0,173,0,1,,,,,
,,333581,001,2023-07-21_14h22.24.203,arm3_eps,2022.2.5,MacIntel,60.0024001,right,-1,0.3,0.3071,8,-0.091947586,0.5991,174,0,174,0,1,,,,,
,,333581,001,2023-07-21_14h22.24.203,arm3_eps,2022.2.5,MacIntel,60.0024001,down,-1,0.3,0.3071,9,0,1.8345,175,0,175,0,1,,,,,
,,333581,001,2023-07-21_14h22.24.203,arm3_eps,2022.2.5,MacIntel,60.0024001,right,-1,0.3,0.3071,9,0.014949933,1.037,176,0,176,0,1,,,,,
,,333581,001,2023-07-21_14h22.24.203,arm3_eps,2022.2.5,MacIntel,60.0024001,right,-1,0.3,0.3071,9,0.018845252,0.2845,177,0,177,0,1,,,,,
,,333581,001,2023-07-21_14h22.24.203,arm3_eps,2022.2.5,MacIntel,60.0024001,right,-1,0.3,0.3071,9,0.044612874,0.2213,178,0,178,0,1,,,,,
,,333581,001,2023-07-21_14h22.24.203,arm3_eps,2022.2.5,MacIntel,60.0024001,right,-1,0.3,0.3071,9,0.060332688,0.4986,179,0,179,0,1,,,,,
,,333581,001,2023-07-21_14h22.24.203,arm3_eps,2022.2.5,MacIntel,60.0024001,right,-1,0.3,0.3071,9,0.053836587,0.548,180,0,180,0,1,,,,,
,,333581,001,2023-07-21_14h22.24.203,arm3_eps,2022.2.5,MacIntel,60.0024001,right,-1,0.3,0.3071,9,0.041690004,0.4023,181,0,181,0,1,,,,,
,,333581,001,2023-07-21_14h22.24.203,arm3_eps,2022.2.5,MacIntel,60.0024001,right,-1,0.3,0.3071,9,0.018641599,0.4344,182,0,182,0,1,,,,,
,,333581,001,2023-07-21_14h22.24.203,arm3_eps,2022.2.5,MacIntel,60.0024001,right,-1,0.3,0.3071,9,0.016467369,0.4671,183,0,183,0,1,,,,,
,,333581,001,2023-07-21_14h22.24.203,arm3_eps,2022.2.5,MacIntel,60.0024001,right,-1,0.3,0.3071,9,-0.021377515,0.6167,184,0,184,0,1,,,,,
,,333581,001,2023-07-21_14h22.24.203,arm3_eps,2022.2.5,MacIntel,60.0024001,right,-1,0.3,0.3071,9,-0.004292305,0.7264,185,0,185,0,1,,,,,
,,333581,001,2023-07-21_14h22.24.203,arm3_eps,2022.2.5,MacIntel,60.0024001,right,-1,0.3,0.3071,9,-0.003187,0.5829,186,0,186,0,1,,,,,
,,333581,001,2023-07-21_14h22.24.203,arm3_eps,2022.2.5,MacIntel,60.0024001,right,-1,0.3,0.3071,9,-0.03279365,0.7847,187,0,187,0,1,,,,,
,,333581,001,2023-07-21_14h22.24.203,arm3_eps,2022.2.5,MacIntel,60.0024001,down,-1,0.3,0.3071,10,0,0.8998,188,0,188,0,1,,,,,
,,333581,001,2023-07-21_14h22.24.203,arm3_eps,2022.2.5,MacIntel,60.0024001,right,-1,0.3,0.3071,10,0.005158106,1.0282,189,0,189,0,1,,,,,
,,333581,001,2023-07-21_14h22.24.203,arm3_eps,2022.2.5,MacIntel,60.0024001,right,-1,0.3,0.3071,10,-0.028346771,0.2431,190,0,190,0,1,,,,,
,,333581,001,2023-07-21_14h22.24.203,arm3_eps,2022.2.5,MacIntel,60.0024001,right,-1,0.3,0.3071,10,-0.045042585,0.227,191,0,191,0,1,,,,,
,,333581,001,2023-07-21_14h22.24.203,arm3_eps,2022.2.5,MacIntel,60.0024001,right,-1,0.3,0.3071,10,-0.072369276,0.4175,192,0,192,0,1,,,,,
,,333581,001,2023-07-21_14h22.24.203,arm3_eps,2022.2.5,MacIntel,60.0024001,right,-1,0.3,0.3071,10,-0.078920945,0.9334,193,0,193,0,1,,,,,
,,333581,001,2023-07-21_14h22.24.203,arm3_eps,2022.2.5,MacIntel,60.0024001,right,-1,0.3,0.3071,10,-0.097892348,0.2955,194,0,194,0,1,,,,,
,,333581,001,2023-07-21_14h22.24.203,arm3_eps,2022.2.5,MacIntel,60.0024001,down,-1,0.3,0.3071,10,0,0.4486,195,0,195,0,1,,,,,
,,333581,001,2023-07-21_14h22.24.203,arm3_eps,2022.2.5,MacIntel,60.0024001,right,-1,0.3,0.3071,10,-0.026561392,0.8307,196,0,196,0,1,,,,,
,,333581,001,2023-07-21_14h22.24.203,arm3_eps,2022.2.5,MacIntel,60.0024001,right,-1,0.3,0.3071,10,-0.057856322,0.2279,197,0,197,0,1,,,,,
,,333581,001,2023-07-21_14h22.24.203,arm3_eps,2022.2.5,MacIntel,60.0024001,right,-1,0.3,0.3071,10,-0.032058112,0.2311,198,0,198,0,1,,,,,
,,333581,001,2023-07-21_14h22.24.203,arm3_eps,2022.2.5,MacIntel,60.0024001,right,-1,0.3,0.3071,10,-0.035698733,0.2645,199,0,199,0,1,,,,,
,,333581,001,2023-07-21_14h22.24.203,arm3_eps,2022.2.5,MacIntel,60.0024001,right,-1,0.3,0.3071,10,-0.043444185,0.2475,200,0,200,0,1,,,,,
,,333581,001,2023-07-21_14h22.24.203,arm3_eps,2022.2.5,MacIntel,60.0024001,right,-1,0.3,0.3071,10,-0.070955509,0.2312,201,0,201,0,1,,,,,
,,333581,001,2023-07-21_14h22.24.203,arm3_eps,2022.2.5,MacIntel,60.0024001,right,-1,0.3,0.3071,10,-0.056709661,0.5515,202,0,202,0,1,,,,,
,,333581,001,2023-07-21_14h22.24.203,arm3_eps,2022.2.5,MacIntel,60.0024001,right,-1,0.3,0.3071,10,-0.058280559,1.1021,203,0,203,0,1,,,,,
,,333581,001,2023-07-21_14h22.24.203,arm3_eps,2022.2.5,MacIntel,60.0024001,down,1,0.3,0.3071,10,0,0.8315,204,0,204,0,1,,,,,
,,333581,001,2023-07-21_14h22.24.203,arm3_eps,2022.2.5,MacIntel,60.0024001,right,1,0.3,0.3071,10,-0.001795617,0.947,205,0,205,0,1,,,,,
,,333581,001,2023-07-21_14h22.24.203,arm3_eps,2022.2.5,MacIntel,60.0024001,right,1,0.3,0.3071,10,-0.012004866,0.3007,206,0,206,0,1,,,,,
,,333581,001,2023-07-21_14h22.24.203,arm3_eps,2022.2.5,MacIntel,60.0024001,right,1,0.3,0.3071,10,-0.019800956,0.2601,207,0,207,0,1,,,,,
,,333581,001,2023-07-21_14h22.24.203,arm3_eps,2022.2.5,MacIntel,60.0024001,right,1,0.3,0.3071,10,0.001242423,0.3009,208,0,208,0,1,,,,,
,,333581,001,2023-07-21_14h22.24.203,arm3_eps,2022.2.5,MacIntel,60.0024001,right,1,0.3,0.3071,10,-0.002234325,0.2846,209,0,209,0,1,,,,,
,,333581,001,2023-07-21_14h22.24.203,arm3_eps,2022.2.5,MacIntel,60.0024001,right,1,0.3,0.3071,10,-0.000950619,0.3655,210,0,210,0,1,,,,,
,,333581,001,2023-07-21_14h22.24.203,arm3_eps,2022.2.5,MacIntel,60.0024001,right,1,0.3,0.3071,10,0.024717967,0.4964,211,0,211,0,1,,,,,
,,333581,001,2023-07-21_14h22.24.203,arm3_eps,2022.2.5,MacIntel,60.0024001,right,1,0.3,0.3071,10,0.038348609,0.3471,212,0,212,0,1,,,,,
,,333581,001,2023-07-21_14h22.24.203,arm3_eps,2022.2.5,MacIntel,60.0024001,right,1,0.3,0.3071,10,0.023658595,0.4022,213,0,213,0,1,,,,,
,,333581,001,2023-07-21_14h22.24.203,arm3_eps,2022.2.5,MacIntel,60.0024001,right,1,0.3,0.3071,10,0.029379827,0.3491,214,0,214,0,1,,,,,
,,333581,001,2023-07-21_14h22.24.203,arm3_eps,2022.2.5,MacIntel,60.0024001,up,1,0.3,0.3071,10,0,1.2976,215,0,215,0,1,,,,,
,,333581,001,2023-07-21_14h22.24.203,arm3_eps,2022.2.5,MacIntel,60.0024001,right,1,0.3,0.3071,10,-0.00501361,1.0012,216,0,216,0,1,,,,,
,,333581,001,2023-07-21_14h22.24.203,arm3_eps,2022.2.5,MacIntel,60.0024001,right,1,0.3,0.3071,10,-0.019086537,0.2276,217,0,217,0,1,,,,,
,,333581,001,2023-07-21_14h22.24.203,arm3_eps,2022.2.5,MacIntel,60.0024001,right,1,0.3,0.3071,10,0.008265381,0.1921,218,0,218,0,1,,,,,
,,333581,001,2023-07-21_14h22.24.203,arm3_eps,2022.2.5,MacIntel,60.0024001,right,1,0.3,0.3071,10,0.00172533,0.1975,219,0,219,0,1,,,,,
,,333581,001,2023-07-21_14h22.24.203,arm3_eps,2022.2.5,MacIntel,60.0024001,right,1,0.3,0.3071,10,0.034279927,0.3641,220,0,220,0,1,,,,,
,,333581,001,2023-07-21_14h22.24.203,arm3_eps,2022.2.5,MacIntel,60.0024001,right,1,0.3,0.3071,10,0.040236511,0.2666,221,0,221,0,1,,,,,
,,333581,001,2023-07-21_14h22.24.203,arm3_eps,2022.2.5,MacIntel,60.0024001,right,1,0.3,0.3071,10,0.032237758,0.4124,222,0,222,0,1,,,,,
,,333581,001,2023-07-21_14h22.24.203,arm3_eps,2022.2.5,MacIntel,60.0024001,right,1,0.3,0.3071,10,0.046967993,0.3492,223,0,223,0,1,,,,,
,,333581,001,2023-07-21_14h22.24.203,arm3_eps,2022.2.5,MacIntel,60.0024001,right,1,0.3,0.3071,10,0.072920303,0.4116,224,0,224,0,1,,,,,
,,333581,001,2023-07-21_14h22.24.203,arm3_eps,2022.2.5,MacIntel,60.0024001,up,-1,0.3,0.3071,11,0,0.4164,225,0,225,0,1,,,,,
,,333581,001,2023-07-21_14h22.24.203,arm3_eps,2022.2.5,MacIntel,60.0024001,right,-1,0.3,0.3071,11,-0.011363778,0.8635,226,0,226,0,1,,,,,
,,333581,001,2023-07-21_14h22.24.203,arm3_eps,2022.2.5,MacIntel,60.0024001,right,-1,0.3,0.3071,11,-0.025081244,0.2348,227,0,227,0,1,,,,,
,,333581,001,2023-07-21_14h22.24.203,arm3_eps,2022.2.5,MacIntel,60.0024001,right,-1,0.3,0.3071,11,-0.013453879,0.2175,228,0,228,0,1,,,,,
,,333581,001,2023-07-21_14h22.24.203,arm3_eps,2022.2.5,MacIntel,60.0024001,right,-1,0.3,0.3071,11,-0.031806759,0.2161,229,0,229,0,1,,,,,
,,333581,001,2023-07-21_14h22.24.203,arm3_eps,2022.2.5,MacIntel,60.0024001,right,-1,0.3,0.3071,11,-0.049900097,0.2453,230,0,230,0,1,,,,,
,,333581,001,2023-07-21_14h22.24.203,arm3_eps,2022.2.5,MacIntel,60.0024001,right,-1,0.3,0.3071,11,-0.060179558,0.3825,231,0,231,0,1,,,,,
,,333581,001,2023-07-21_14h22.24.203,arm3_eps,2022.2.5,MacIntel,60.0024001,down,-1,0.3,0.3071,11,0,0.6785,232,0,232,0,1,,,,,
,,333581,001,2023-07-21_14h22.24.203,arm3_eps,2022.2.5,MacIntel,60.0024001,right,-1,0.3,0.3071,11,0.003330367,0.8204,233,0,233,0,1,,,,,
,,333581,001,2023-07-21_14h22.24.203,arm3_eps,2022.2.5,MacIntel,60.0024001,right,-1,0.3,0.3071,11,0.018308233,0.2175,234,0,234,0,1,,,,,
,,333581,001,2023-07-21_14h22.24.203,arm3_eps,2022.2.5,MacIntel,60.0024001,right,-1,0.3,0.3071,11,0.038306406,0.2363,235,0,235,0,1,,,,,
,,333581,001,2023-07-21_14h22.24.203,arm3_eps,2022.2.5,MacIntel,60.0024001,right,-1,0.3,0.3071,11,0.018717617,0.1008,236,0,236,0,1,,,,,
,,333581,001,2023-07-21_14h22.24.203,arm3_eps,2022.2.5,MacIntel,60.0024001,right,-1,0.3,0.3071,11,-0.005793524,0.2481,237,0,237,0,1,,,,,
,,333581,001,2023-07-21_14h22.24.203,arm3_eps,2022.2.5,MacIntel,60.0024001,right,-1,0.3,0.3071,11,-0.003796243,0.276,238,0,238,0,1,,,,,
,,333581,001,2023-07-21_14h22.24.203,arm3_eps,2022.2.5,MacIntel,60.0024001,right,-1,0.3,0.3071,11,-0.021766853,0.2535,239,0,239,0,1,,,,,
,,333581,001,2023-07-21_14h22.24.203,arm3_eps,2022.2.5,MacIntel,60.0024001,right,-1,0.3,0.3071,11,-0.025201178,0.2807,240,0,240,0,1,,,,,
,,333581,001,2023-07-21_14h22.24.203,arm3_eps,2022.2.5,MacIntel,60.0024001,right,-1,0.3,0.3071,11,-0.048970395,0.6036,241,0,241,0,1,,,,,
,,333581,001,2023-07-21_14h22.24.203,arm3_eps,2022.2.5,MacIntel,60.0024001,right,-1,0.3,0.3071,11,-0.031687518,0.7592,242,0,242,0,1,,,,,
,,333581,001,2023-07-21_14h22.24.203,arm3_eps,2022.2.5,MacIntel,60.0024001,down,-1,0.3,0.3071,12,0,0.8989,243,0,243,0,1,,,,,
,,333581,001,2023-07-21_14h22.24.203,arm3_eps,2022.2.5,MacIntel,60.0024001,right,-1,0.3,0.3071,12,0.010660686,0.9611,244,0,244,0,1,,,,,
,,333581,001,2023-07-21_14h22.24.203,arm3_eps,2022.2.5,MacIntel,60.0024001,right,-1,0.3,0.3071,12,0.026595159,0.2509,245,0,245,0,1,,,,,
,,333581,001,2023-07-21_14h22.24.203,arm3_eps,2022.2.5,MacIntel,60.0024001,right,-1,0.3,0.3071,12,0.014487373,0.2156,246,0,246,0,1,,,,,
,,333581,001,2023-07-21_14h22.24.203,arm3_eps,2022.2.5,MacIntel,60.0024001,right,-1,0.3,0.3071,12,0.008080128,0.2167,247,0,247,0,1,,,,,
,,333581,001,2023-07-21_14h22.24.203,arm3_eps,2022.2.5,MacIntel,60.0024001,right,-1,0.3,0.3071,12,-0.037412838,0.2643,248,0,248,0,1,,,,,
,,333581,001,2023-07-21_14h22.24.203,arm3_eps,2022.2.5,MacIntel,60.0024001,right,-1,0.3,0.3071,12,-0.042683909,0.6824,249,0,249,0,1,,,,,
,,333581,001,2023-07-21_14h22.24.203,arm3_eps,2022.2.5,MacIntel,60.0024001,right,-1,0.3,0.3071,12,-0.071653925,0.3168,250,0,250,0,1,,,,,
,,333581,001,2023-07-21_14h22.24.203,arm3_eps,2022.2.5,MacIntel,60.0024001,down,-1,0.3,0.3071,12,0,1.4639,251,0,251,0,1,,,,,
,,333581,001,2023-07-21_14h22.24.203,arm3_eps,2022.2.5,MacIntel,60.0024001,right,-1,0.3,0.3071,12,-0.004246266,0.8716,252,0,252,0,1,,,,,
,,333581,001,2023-07-21_14h22.24.203,arm3_eps,2022.2.5,MacIntel,60.0024001,right,-1,0.3,0.3071,12,-0.044190014,0.1842,253,0,253,0,1,,,,,
,,333581,001,2023-07-21_14h22.24.203,arm3_eps,2022.2.5,MacIntel,60.0024001,right,-1,0.3,0.3071,12,-0.073410147,0.3641,254,0,254,0,1,,,,,
,,333581,001,2023-07-21_14h22.24.203,arm3_eps,2022.2.5,MacIntel,60.0024001,right,-1,0.3,0.3071,12,-0.100460388,0.7983,255,0,255,0,1,,,,,
,,333581,001,2023-07-21_14h22.24.203,arm3_eps,2022.2.5,MacIntel,60.0024001,right,-1,0.3,0.3071,12,-0.106740441,0.4003,256,0,256,0,1,,,,,
,,333581,001,2023-07-21_14h22.24.203,arm3_eps,2022.2.5,MacIntel,60.0024001,down,-1,0.3,0.3071,12,0,0.7174,257,0,257,0,1,,,,,
,,333581,001,2023-07-21_14h22.24.203,arm3_eps,2022.2.5,MacIntel,60.0024001,right,-1,0.3,0.3071,12,0.011972946,0.9848,258,0,258,0,1,,,,,
,,333581,001,2023-07-21_14h22.24.203,arm3_eps,2022.2.5,MacIntel,60.0024001,right,-1,0.3,0.3071,12,0.030118935,0.2018,259,0,259,0,1,,,,,
,,333581,001,2023-07-21_14h22.24.203,arm3_eps,2022.2.5,MacIntel,60.0024001,right,-1,0.3,0.3071,12,0.026212544,0.1504,260,0,260,0,1,,,,,
,,333581,001,2023-07-21_14h22.24.203,arm3_eps,2022.2.5,MacIntel,60.0024001,right,-1,0.3,0.3071,12,-0.036448635,0.15,261,0,261,0,1,,,,,
,,333581,001,2023-07-21_14h22.24.203,arm3_eps,2022.2.5,MacIntel,60.0024001,right,-1,0.3,0.3071,12,-0.050201972,0.1529,262,0,262,0,1,,,,,
,,333581,001,2023-07-21_14h22.24.203,arm3_eps,2022.2.5,MacIntel,60.0024001,right,-1,0.3,0.3071,12,-0.068762515,0.3849,263,0,263,0,1,,,,,
,,333581,001,2023-07-21_14h22.24.203,arm3_eps,2022.2.5,MacIntel,60.0024001,right,-1,0.3,0.3071,12,-0.083912816,0.2325,264,0,264,0,1,,,,,
,,333581,001,2023-07-21_14h22.24.203,arm3_eps,2022.2.5,MacIntel,60.0024001,down,-1,0.3,0.3071,12,0,0.5676,265,0,265,0,1,,,,,
,,333581,001,2023-07-21_14h22.24.203,arm3_eps,2022.2.5,MacIntel,60.0024001,right,-1,0.3,0.3071,12,-0.030352559,0.8661,266,0,266,0,1,,,,,
,,333581,001,2023-07-21_14h22.24.203,arm3_eps,2022.2.5,MacIntel,60.0024001,right,-1,0.3,0.3071,12,-0.024841205,0.1537,267,0,267,0,1,,,,,
,,333581,001,2023-07-21_14h22.24.203,arm3_eps,2022.2.5,MacIntel,60.0024001,right,-1,0.3,0.3071,12,-0.046787941,0.1502,268,0,268,0,1,,,,,
,,333581,001,2023-07-21_14h22.24.203,arm3_eps,2022.2.5,MacIntel,60.0024001,right,-1,0.3,0.3071,12,-0.053973094,0.1532,269,0,269,0,1,,,,,
,,333581,001,2023-07-21_14h22.24.203,arm3_eps,2022.2.5,MacIntel,60.0024001,right,-1,0.3,0.3071,12,-0.060055715,0.1847,270,0,270,0,1,,,,,
,,333581,001,2023-07-21_14h22.24.203,arm3_eps,2022.2.5,MacIntel,60.0024001,right,-1,0.3,0.3071,12,-0.064896665,0.4176,271,0,271,0,1,,,,,
,,333581,001,2023-07-21_14h22.24.203,arm3_eps,2022.2.5,MacIntel,60.0024001,right,-1,0.3,0.3071,12,-0.071179816,0.4337,272,0,272,0,1,,,,,
,,333581,001,2023-07-21_14h22.24.203,arm3_eps,2022.2.5,MacIntel,60.0024001,right,-1,0.3,0.3071,12,-0.117970044,0.5628,273,0,273,0,1,,,,,
,,333581,001,2023-07-21_14h22.24.203,arm3_eps,2022.2.5,MacIntel,60.0024001,down,-1,0.3,0.3071,12,0,0.4511,274,0,274,0,1,,,,,
,,333581,001,2023-07-21_14h22.24.203,arm3_eps,2022.2.5,MacIntel,60.0024001,right,-1,0.3,0.3071,12,0.035418764,0.869,275,0,275,0,1,,,,,
,,333581,001,2023-07-21_14h22.24.203,arm3_eps,2022.2.5,MacIntel,60.0024001,right,-1,0.3,0.3071,12,0.028521452,0.2507,276,0,276,0,1,,,,,
,,333581,001,2023-07-21_14h22.24.203,arm3_eps,2022.2.5,MacIntel,60.0024001,right,-1,0.3,0.3071,12,0.013656955,0.2341,277,0,277,0,1,,,,,
,,333581,001,2023-07-21_14h22.24.203,arm3_eps,2022.2.5,MacIntel,60.0024001,right,-1,0.3,0.3071,12,0.011839432,0.2378,278,0,278,0,1,,,,,
,,333581,001,2023-07-21_14h22.24.203,arm3_eps,2022.2.5,MacIntel,60.0024001,right,-1,0.3,0.3071,12,0.032258849,0.2637,279,0,279,0,1,,,,,
,,333581,001,2023-07-21_14h22.24.203,arm3_eps,2022.2.5,MacIntel,60.0024001,right,-1,0.3,0.3071,12,0.029180068,0.2506,280,0,280,0,1,,,,,
,,333581,001,2023-07-21_14h22.24.203,arm3_eps,2022.2.5,MacIntel,60.0024001,right,-1,0.3,0.3071,12,0.05799149,0.2339,281,0,281,0,1,,,,,
,,333581,001,2023-07-21_14h22.24.203,arm3_eps,2022.2.5,MacIntel,60.0024001,right,-1,0.3,0.3071,12,0.040399406,0.5494,282,0,282,0,1,,,,,
,,333581,001,2023-07-21_14h22.24.203,arm3_eps,2022.2.5,MacIntel,60.0024001,right,-1,0.3,0.3071,12,0.023447971,0.3113,283,0,283,0,1,,,,,
,,333581,001,2023-07-21_14h22.24.203,arm3_eps,2022.2.5,MacIntel,60.0024001,right,-1,0.3,0.3071,12,0.013617158,0.5847,284,0,284,0,1,,,,,
,,333581,001,2023-07-21_14h22.24.203,arm3_eps,2022.2.5,MacIntel,60.0024001,right,-1,0.3,0.3071,12,0.018137153,1.4942,285,0,285,0,1,,,,,
,,333581,001,2023-07-21_14h22.24.203,arm3_eps,2022.2.5,MacIntel,60.0024001,right,-1,0.3,0.3071,12,0.030880787,0.4481,286,0,286,0,1,,,,,
,,333581,001,2023-07-21_14h22.24.203,arm3_eps,2022.2.5,MacIntel,60.0024001,up,-1,0.3,0.3071,12,0,0.8973,287,0,287,0,1,,,,,
,,333581,001,2023-07-21_14h22.24.203,arm3_eps,2022.2.5,MacIntel,60.0024001,right,-1,0.3,0.3071,12,-0.00050501,1.1326,288,0,288,0,1,,,,,
,,333581,001,2023-07-21_14h22.24.203,arm3_eps,2022.2.5,MacIntel,60.0024001,right,-1,0.3,0.3071,12,0.019013589,0.1836,289,0,289,0,1,,,,,
,,333581,001,2023-07-21_14h22.24.203,arm3_eps,2022.2.5,MacIntel,60.0024001,right,-1,0.3,0.3071,12,0.077497194,0.1831,290,0,290,0,1,,,,,
,,333581,001,2023-07-21_14h22.24.203,arm3_eps,2022.2.5,MacIntel,60.0024001,right,-1,0.3,0.3071,12,0.075702143,0.4785,291,0,291,0,1,,,,,
,,333581,001,2023-07-21_14h22.24.203,arm3_eps,2022.2.5,MacIntel,60.0024001,right,-1,0.3,0.3071,12,0.077249446,0.6482,292,0,292,0,1,,,,,
,,333581,001,2023-07-21_14h22.24.203,arm3_eps,2022.2.5,MacIntel,60.0024001,right,-1,0.3,0.3071,12,0.031313339,0.5466,293,0,293,0,1,,,,,
,,333581,001,2023-07-21_14h22.24.203,arm3_eps,2022.2.5,MacIntel,60.0024001,right,-1,0.3,0.3071,12,0.059218542,0.5582,294,0,294,0,1,,,,,
,,333581,001,2023-07-21_14h22.24.203,arm3_eps,2022.2.5,MacIntel,60.0024001,up,1,0.3,0.3071,12,0,7.9474,295,0,295,0,1,,,,,
,,333581,001,2023-07-21_14h22.24.203,arm3_eps,2022.2.5,MacIntel,60.0024001,right,1,0.3,0.3071,12,0.004680603,5.5144,296,0,296,0,1,,,,,
,,333581,001,2023-07-21_14h22.24.203,arm3_eps,2022.2.5,MacIntel,60.0024001,right,1,0.3,0.3071,12,-0.000777509,0.2027,297,0,297,0,1,,,,,
,,333581,001,2023-07-21_14h22.24.203,arm3_eps,2022.2.5,MacIntel,60.0024001,right,1,0.3,0.3071,12,0.012636962,0.4002,298,0,298,0,1,,,,,
,,333581,001,2023-07-21_14h22.24.203,arm3_eps,2022.2.5,MacIntel,60.0024001,right,1,0.3,0.3071,12,0.060839199,1.949,299,0,299,0,1,,,,,
,,333581,001,2023-07-21_14h22.24.203,arm3_eps,2022.2.5,MacIntel,60.0024001,right,1,0.3,0.3071,12,0.054348274,1.1648,300,0,300,0,1,,,,,
,,333581,001,2023-07-21_14h22.24.203,arm3_eps,2022.2.5,MacIntel,60.0024001,up,1,0.3,0.3071,12,0,0.5018,301,0,301,0,1,,,,,
,,333581,001,2023-07-21_14h22.24.203,arm3_eps,2022.2.5,MacIntel,60.0024001,right,1,0.3,0.3071,12,0.010987564,1.0881,302,0,302,0,1,,,,,
,,333581,001,2023-07-21_14h22.24.203,arm3_eps,2022.2.5,MacIntel,60.0024001,right,1,0.3,0.3071,12,0.003527603,0.1959,303,0,303,0,1,,,,,
,,333581,001,2023-07-21_14h22.24.203,arm3_eps,2022.2.5,MacIntel,60.0024001,right,1,0.3,0.3071,12,0.006622528,0.2182,304,0,304,0,1,,,,,
,,333581,001,2023-07-21_14h22.24.203,arm3_eps,2022.2.5,MacIntel,60.0024001,right,1,0.3,0.3071,12,0.012902568,0.2664,305,0,305,0,1,,,,,
,,333581,001,2023-07-21_14h22.24.203,arm3_eps,2022.2.5,MacIntel,60.0024001,right,1,0.3,0.3071,12,0.020311186,0.4828,306,0,306,0,1,,,,,
,,333581,001,2023-07-21_14h22.24.203,arm3_eps,2022.2.5,MacIntel,60.0024001,right,1,0.3,0.3071,12,0.0361125,4.7809,307,0,307,0,1,,,,,
,,333581,001,2023-07-21_14h22.24.203,arm3_eps,2022.2.5,MacIntel,60.0024001,up,1,0.3,0.3071,13,0,0.5046,308,0,308,0,1,,,,,
,,333581,001,2023-07-21_14h22.24.203,arm3_eps,2022.2.5,MacIntel,60.0024001,right,1,0.3,0.3071,13,0.001729301,1.3625,309,0,309,0,1,,,,,
,,333581,001,2023-07-21_14h22.24.203,arm3_eps,2022.2.5,MacIntel,60.0024001,right,1,0.3,0.3071,13,-0.029391913,0.2494,310,0,310,0,1,,,,,
,,333581,001,2023-07-21_14h22.24.203,arm3_eps,2022.2.5,MacIntel,60.0024001,right,1,0.3,0.3071,13,-0.02295228,0.5498,311,0,311,0,1,,,,,
,,333581,001,2023-07-21_14h22.24.203,arm3_eps,2022.2.5,MacIntel,60.0024001,right,1,0.3,0.3071,13,-0.0254741,0.3626,312,0,312,0,1,,,,,
,,333581,001,2023-07-21_14h22.24.203,arm3_eps,2022.2.5,MacIntel,60.0024001,right,1,0.3,0.3071,13,-0.009262,0.566,313,0,313,0,1,,,,,
,,333581,001,2023-07-21_14h22.24.203,arm3_eps,2022.2.5,MacIntel,60.0024001,right,1,0.3,0.3071,13,-0.026832577,0.6469,314,0,314,0,1,,,,,
,,333581,001,2023-07-21_14h22.24.203,arm3_eps,2022.2.5,MacIntel,60.0024001,right,1,0.3,0.3071,13,-0.051555885,0.6147,315,0,315,0,1,,,,,
,,333581,001,2023-07-21_14h22.24.203,arm3_eps,2022.2.5,MacIntel,60.0024001,down,-1,0.3,0.3071,13,0,1.4022,316,0,316,0,1,,,,,
,,333581,001,2023-07-21_14h22.24.203,arm3_eps,2022.2.5,MacIntel,60.0024001,right,-1,0.3,0.3071,13,-0.012203119,1.1037,317,0,317,0,1,,,,,
,,333581,001,2023-07-21_14h22.24.203,arm3_eps,2022.2.5,MacIntel,60.0024001,right,-1,0.3,0.3071,13,-0.028497056,0.266,318,0,318,0,1,,,,,
,,333581,001,2023-07-21_14h22.24.203,arm3_eps,2022.2.5,MacIntel,60.0024001,right,-1,0.3,0.3071,13,-0.064547615,0.2411,319,0,319,0,1,,,,,
,,333581,001,2023-07-21_14h22.24.203,arm3_eps,2022.2.5,MacIntel,60.0024001,right,-1,0.3,0.3071,13,-0.05386349,0.2113,320,0,320,0,1,,,,,
,,333581,001,2023-07-21_14h22.24.203,arm3_eps,2022.2.5,MacIntel,60.0024001,right,-1,0.3,0.3071,13,-0.040336891,0.3814,321,0,321,0,1,,,,,
,,333581,001,2023-07-21_14h22.24.203,arm3_eps,2022.2.5,MacIntel,60.0024001,right,-1,0.3,0.3071,13,-0.03314699,0.3156,322,0,322,0,1,,,,,
,,333581,001,2023-07-21_14h22.24.203,arm3_eps,2022.2.5,MacIntel,60.0024001,right,-1,0.3,0.3071,13,-0.047208733,0.419,323,0,323,0,1,,,,,
,,333581,001,2023-07-21_14h22.24.203,arm3_eps,2022.2.5,MacIntel,60.0024001,right,-1,0.3,0.3071,13,-0.063182939,0.3662,324,0,324,0,1,,,,,
,,333581,001,2023-07-21_14h22.24.203,arm3_eps,2022.2.5,MacIntel,60.0024001,right,-1,0.3,0.3071,13,-0.049882527,0.5293,325,0,325,0,1,,,,,
,,333581,001,2023-07-21_14h22.24.203,arm3_eps,2022.2.5,MacIntel,60.0024001,right,-1,0.3,0.3071,13,-0.042738202,0.4636,326,0,326,0,1,,,,,
,,333581,001,2023-07-21_14h22.24.203,arm3_eps,2022.2.5,MacIntel,60.0024001,down,-1,0.3,0.3071,13,0,0.76,327,0,327,0,1,,,,,
,,333581,001,2023-07-21_14h22.24.203,arm3_eps,2022.2.5,MacIntel,60.0024001,right,-1,0.3,0.3071,13,0.019169619,0.6943,328,0,328,0,1,,,,,
,,333581,001,2023-07-21_14h22.24.203,arm3_eps,2022.2.5,MacIntel,60.0024001,right,-1,0.3,0.3071,13,0.029919027,0.3335,329,0,329,0,1,,,,,
,,333581,001,2023-07-21_14h22.24.203,arm3_eps,2022.2.5,MacIntel,60.0024001,right,-1,0.3,0.3071,13,0.004181771,0.2795,330,0,330,0,1,,,,,
,,333581,001,2023-07-21_14h22.24.203,arm3_eps,2022.2.5,MacIntel,60.0024001,right,-1,0.3,0.3071,13,0.016842224,0.3101,331,0,331,0,1,,,,,
,,333581,001,2023-07-21_14h22.24.203,arm3_eps,2022.2.5,MacIntel,60.0024001,right,-1,0.3,0.3071,13,0.033700749,0.2847,332,0,332,0,1,,,,,
,,333581,001,2023-07-21_14h22.24.203,arm3_eps,2022.2.5,MacIntel,60.0024001,right,-1,0.3,0.3071,13,0.033413867,0.352,333,0,333,0,1,,,,,
,,333581,001,2023-07-21_14h22.24.203,arm3_eps,2022.2.5,MacIntel,60.0024001,right,-1,0.3,0.3071,13,0.018863006,0.3483,334,0,334,0,1,,,,,
,,333581,001,2023-07-21_14h22.24.203,arm3_eps,2022.2.5,MacIntel,60.0024001,right,-1,0.3,0.3071,13,0.023459047,0.4132,335,0,335,0,1,,,,,
,,333581,001,2023-07-21_14h22.24.203,arm3_eps,2022.2.5,MacIntel,60.0024001,right,-1,0.3,0.3071,13,0.003283791,0.3433,336,0,336,0,1,,,,,
,,333581,001,2023-07-21_14h22.24.203,arm3_eps,2022.2.5,MacIntel,60.0024001,right,-1,0.3,0.3071,13,0.002101129,0.4282,337,0,337,0,1,,,,,
,,333581,001,2023-07-21_14h22.24.203,arm3_eps,2022.2.5,MacIntel,60.0024001,right,-1,0.3,0.3071,13,-0.003335358,0.5954,338,0,338,0,1,,,,,
,,333581,001,2023-07-21_14h22.24.203,arm3_eps,2022.2.5,MacIntel,60.0024001,right,-1,0.3,0.3071,13,0.010094557,0.6804,339,0,339,0,1,,,,,
,,333581,001,2023-07-21_14h22.24.203,arm3_eps,2022.2.5,MacIntel,60.0024001,down,-1,0.3,0.3071,14,0,4.6006,340,0,340,0,1,,,,,
,,333581,001,2023-07-21_14h22.24.203,arm3_eps,2022.2.5,MacIntel,60.0024001,right,-1,0.3,0.3071,14,-0.014680415,1.1021,341,0,341,0,1,,,,,
,,333581,001,2023-07-21_14h22.24.203,arm3_eps,2022.2.5,MacIntel,60.0024001,right,-1,0.3,0.3071,14,-0.04452702,0.2802,342,0,342,0,1,,,,,
,,333581,001,2023-07-21_14h22.24.203,arm3_eps,2022.2.5,MacIntel,60.0024001,right,-1,0.3,0.3071,14,-0.094775933,0.2678,343,0,343,0,1,,,,,
,,333581,001,2023-07-21_14h22.24.203,arm3_eps,2022.2.5,MacIntel,60.0024001,right,-1,0.3,0.3071,14,-0.091526775,0.7388,344,0,344,0,1,,,,,
,,333581,001,2023-07-21_14h22.24.203,arm3_eps,2022.2.5,MacIntel,60.0024001,down,-1,0.3,0.3071,14,0,0.4994,345,0,345,0,1,,,,,
,,333581,001,2023-07-21_14h22.24.203,arm3_eps,2022.2.5,MacIntel,60.0024001,right,-1,0.3,0.3071,14,-0.027559711,0.8426,346,0,346,0,1,,,,,
,,333581,001,2023-07-21_14h22.24.203,arm3_eps,2022.2.5,MacIntel,60.0024001,right,-1,0.3,0.3071,14,-0.018793754,0.2599,347,0,347,0,1,,,,,
,,333581,001,2023-07-21_14h22.24.203,arm3_eps,2022.2.5,MacIntel,60.0024001,right,-1,0.3,0.3071,14,-0.051569092,0.3168,348,0,348,0,1,,,,,
,,333581,001,2023-07-21_14h22.24.203,arm3_eps,2022.2.5,MacIntel,60.0024001,right,-1,0.3,0.3071,14,-0.052624921,0.2989,349,0,349,0,1,,,,,
,,333581,001,2023-07-21_14h22.24.203,arm3_eps,2022.2.5,MacIntel,60.0024001,right,-1,0.3,0.3071,14,-0.081151541,0.3455,350,0,350,0,1,,,,,
,,333581,001,2023-07-21_14h22.24.203,arm3_eps,2022.2.5,MacIntel,60.0024001,down,-1,0.3,0.3071,14,0,1.3793,351,0,351,0,1,,,,,
,,333581,001,2023-07-21_14h22.24.203,arm3_eps,2022.2.5,MacIntel,60.0024001,right,-1,0.3,0.3071,14,-0.019198904,0.9176,352,0,352,0,1,,,,,
,,333581,001,2023-07-21_14h22.24.203,arm3_eps,2022.2.5,MacIntel,60.0024001,right,-1,0.3,0.3071,14,-0.063239738,0.2645,353,0,353,0,1,,,,,
,,333581,001,2023-07-21_14h22.24.203,arm3_eps,2022.2.5,MacIntel,60.0024001,right,-1,0.3,0.3071,14,-0.075880651,0.965,354,0,354,0,1,,,,,
,,333581,001,2023-07-21_14h22.24.203,arm3_eps,2022.2.5,MacIntel,60.0024001,right,-1,0.3,0.3071,14,-0.059539138,0.6966,355,0,355,0,1,,,,,
,,333581,001,2023-07-21_14h22.24.203,arm3_eps,2022.2.5,MacIntel,60.0024001,down,-1,0.3,0.3071,14,0,0.8823,356,0,356,0,1,,,,,
,,333581,001,2023-07-21_14h22.24.203,arm3_eps,2022.2.5,MacIntel,60.0024001,right,-1,0.3,0.3071,14,-0.0073431,1.0034,357,0,357,0,1,,,,,
,,333581,001,2023-07-21_14h22.24.203,arm3_eps,2022.2.5,MacIntel,60.0024001,right,-1,0.3,0.3071,14,-0.010122494,0.2489,358,0,358,0,1,,,,,
,,333581,001,2023-07-21_14h22.24.203,arm3_eps,2022.2.5,MacIntel,60.0024001,right,-1,0.3,0.3071,14,-0.02833657,0.3345,359,0,359,0,1,,,,,
,,333581,001,2023-07-21_14h22.24.203,arm3_eps,2022.2.5,MacIntel,60.0024001,right,-1,0.3,0.3071,14,-0.050845368,0.3178,360,0,360,0,1,,,,,
,,333581,001,2023-07-21_14h22.24.203,arm3_eps,2022.2.5,MacIntel,60.0024001,right,-1,0.3,0.3071,14,-0.054070904,0.3465,361,0,361,0,1,,,,,
,,333581,001,2023-07-21_14h22.24.203,arm3_eps,2022.2.5,MacIntel,60.0024001,right,-1,0.3,0.3071,14,-0.0602693,0.3656,362,0,362,0,1,,,,,
,,333581,001,2023-07-21_14h22.24.203,arm3_eps,2022.2.5,MacIntel,60.0024001,right,-1,0.3,0.3071,14,-0.07421075,0.3606,363,0,363,0,1,,,,,
,,333581,001,2023-07-21_14h22.24.203,arm3_eps,2022.2.5,MacIntel,60.0024001,right,-1,0.3,0.3071,14,-0.068403189,0.7656,364,0,364,0,1,,,,,
,,333581,001,2023-07-21_14h22.24.203,arm3_eps,2022.2.5,MacIntel,60.0024001,right,-1,0.3,0.3071,14,-0.059346356,0.5189,365,0,365,0,1,,,,,
,,333581,001,2023-07-21_14h22.24.203,arm3_eps,2022.2.5,MacIntel,60.0024001,down,1,0.3,0.3071,14,0,0.6777,366,0,366,0,1,,,,,
,,333581,001,2023-07-21_14h22.24.203,arm3_eps,2022.2.5,MacIntel,60.0024001,right,1,0.3,0.3071,14,0.025201976,0.9617,367,0,367,0,1,,,,,
,,333581,001,2023-07-21_14h22.24.203,arm3_eps,2022.2.5,MacIntel,60.0024001,right,1,0.3,0.3071,14,0.040314084,0.2322,368,0,368,0,1,,,,,
,,333581,001,2023-07-21_14h22.24.203,arm3_eps,2022.2.5,MacIntel,60.0024001,right,1,0.3,0.3071,14,0.064886351,0.2512,369,0,369,0,1,,,,,
,,333581,001,2023-07-21_14h22.24.203,arm3_eps,2022.2.5,MacIntel,60.0024001,,,,,,,,,,,,,0,0,0,0,1
,,333581,001,2023-07-21_14h22.24.203,arm3_eps,2022.2.5,MacIntel,60.0024001,right,1,0.3,0.05,14,-0.001844825,7.365,0,0,0,0,1,,,,,
,,333581,001,2023-07-21_14h22.24.203,arm3_eps,2022.2.5,MacIntel,60.0024001,right,1,0.3,0.05,14,-0.002538649,0.4375,1,0,1,0,1,,,,,
,,333581,001,2023-07-21_14h22.24.203,arm3_eps,2022.2.5,MacIntel,60.0024001,right,1,0.3,0.05,14,0.013180243,0.3334,2,0,2,0,1,,,,,
,,333581,001,2023-07-21_14h22.24.203,arm3_eps,2022.2.5,MacIntel,60.0024001,up,1,0.3,0.05,14,0,0.9005,3,0,3,0,1,,,,,
,,333581,001,2023-07-21_14h22.24.203,arm3_eps,2022.2.5,MacIntel,60.0024001,right,1,0.3,0.05,14,-0.005604231,1.8638,4,0,4,0,1,,,,,
,,333581,001,2023-07-21_14h22.24.203,arm3_eps,2022.2.5,MacIntel,60.0024001,right,1,0.3,0.05,14,-0.001117405,0.2331,5,0,5,0,1,,,,,
,,333581,001,2023-07-21_14h22.24.203,arm3_eps,2022.2.5,MacIntel,60.0024001,right,1,0.3,0.05,14,-6.88132E-05,0.333,6,0,6,0,1,,,,,
,,333581,001,2023-07-21_14h22.24.203,arm3_eps,2022.2.5,MacIntel,60.0024001,right,1,0.3,0.05,14,0.008854396,0.4992,7,0,7,0,1,,,,,
,,333581,001,2023-07-21_14h22.24.203,arm3_eps,2022.2.5,MacIntel,60.0024001,right,1,0.3,0.05,14,0.024662663,0.4181,8,0,8,0,1,,,,,
,,333581,001,2023-07-21_14h22.24.203,arm3_eps,2022.2.5,MacIntel,60.0024001,right,1,0.3,0.05,14,0.040548266,0.4317,9,0,9,0,1,,,,,
,,333581,001,2023-07-21_14h22.24.203,arm3_eps,2022.2.5,MacIntel,60.0024001,up,1,0.3,0.05,15,0,0.9167,10,0,10,0,1,,,,,
,,333581,001,2023-07-21_14h22.24.203,arm3_eps,2022.2.5,MacIntel,60.0024001,right,1,0.3,0.05,15,-0.017152358,0.8481,11,0,11,0,1,,,,,
,,333581,001,2023-07-21_14h22.24.203,arm3_eps,2022.2.5,MacIntel,60.0024001,right,1,0.3,0.05,15,0.004335888,0.2531,12,0,12,0,1,,,,,
,,333581,001,2023-07-21_14h22.24.203,arm3_eps,2022.2.5,MacIntel,60.0024001,right,1,0.3,0.05,15,0.017516611,0.3122,13,0,13,0,1,,,,,
,,333581,001,2023-07-21_14h22.24.203,arm3_eps,2022.2.5,MacIntel,60.0024001,right,1,0.3,0.05,15,0.009632787,0.3677,14,0,14,0,1,,,,,
,,333581,001,2023-07-21_14h22.24.203,arm3_eps,2022.2.5,MacIntel,60.0024001,right,1,0.3,0.05,15,0.040624964,0.3646,15,0,15,0,1,,,,,
,,333581,001,2023-07-21_14h22.24.203,arm3_eps,2022.2.5,MacIntel,60.0024001,right,1,0.3,0.05,15,0.026599272,0.3638,16,0,16,0,1,,,,,
,,333581,001,2023-07-21_14h22.24.203,arm3_eps,2022.2.5,MacIntel,60.0024001,right,1,0.3,0.05,15,0.042759655,0.4019,17,0,17,0,1,,,,,
,,333581,001,2023-07-21_14h22.24.203,arm3_eps,2022.2.5,MacIntel,60.0024001,right,1,0.3,0.05,15,0.017775001,0.4828,18,0,18,0,1,,,,,
,,333581,001,2023-07-21_14h22.24.203,arm3_eps,2022.2.5,MacIntel,60.0024001,right,1,0.3,0.05,15,0.024130051,0.4335,19,0,19,0,1,,,,,
,,333581,001,2023-07-21_14h22.24.203,arm3_eps,2022.2.5,MacIntel,60.0024001,right,1,0.3,0.05,15,0.03354871,0.5171,20,0,20,0,1,,,,,
,,333581,001,2023-07-21_14h22.24.203,arm3_eps,2022.2.5,MacIntel,60.0024001,up,1,0.3,0.05,15,0,0.4003,21,0,21,0,1,,,,,
,,333581,001,2023-07-21_14h22.24.203,arm3_eps,2022.2.5,MacIntel,60.0024001,right,1,0.3,0.05,15,-0.02270032,0.6463,22,0,22,0,1,,,,,
,,333581,001,2023-07-21_14h22.24.203,arm3_eps,2022.2.5,MacIntel,60.0024001,right,1,0.3,0.05,15,-0.024215887,0.3014,23,0,23,0,1,,,,,
,,333581,001,2023-07-21_14h22.24.203,arm3_eps,2022.2.5,MacIntel,60.0024001,right,1,0.3,0.05,15,0.00133147,0.2834,24,0,24,0,1,,,,,
,,333581,001,2023-07-21_14h22.24.203,arm3_eps,2022.2.5,MacIntel,60.0024001,right,1,0.3,0.05,15,0.013547393,0.4349,25,0,25,0,1,,,,,
,,333581,001,2023-07-21_14h22.24.203,arm3_eps,2022.2.5,MacIntel,60.0024001,right,1,0.3,0.05,15,0.037246139,0.4998,26,0,26,0,1,,,,,
,,333581,001,2023-07-21_14h22.24.203,arm3_eps,2022.2.5,MacIntel,60.0024001,right,1,0.3,0.05,15,0.069626121,0.8642,27,0,27,0,1,,,,,
,,333581,001,2023-07-21_14h22.24.203,arm3_eps,2022.2.5,MacIntel,60.0024001,up,1,0.3,0.05,15,0,0.4503,28,0,28,0,1,,,,,
,,333581,001,2023-07-21_14h22.24.203,arm3_eps,2022.2.5,MacIntel,60.0024001,right,1,0.3,0.05,15,0.011440986,0.7005,29,0,29,0,1,,,,,
,,333581,001,2023-07-21_14h22.24.203,arm3_eps,2022.2.5,MacIntel,60.0024001,right,1,0.3,0.05,15,0.026075779,0.2666,30,0,30,0,1,,,,,
,,333581,001,2023-07-21_14h22.24.203,arm3_eps,2022.2.5,MacIntel,60.0024001,right,1,0.3,0.05,15,0.000321751,0.2479,31,0,31,0,1,,,,,
,,333581,001,2023-07-21_14h22.24.203,arm3_eps,2022.2.5,MacIntel,60.0024001,right,1,0.3,0.05,15,0.012205639,0.3166,32,0,32,0,1,,,,,
,,333581,001,2023-07-21_14h22.24.203,arm3_eps,2022.2.5,MacIntel,60.0024001,right,1,0.3,0.05,15,0.011949566,0.3343,33,0,33,0,1,,,,,
,,333581,001,2023-07-21_14h22.24.203,arm3_eps,2022.2.5,MacIntel,60.0024001,right,1,0.3,0.05,15,0.01572054,0.3677,34,0,34,0,1,,,,,
,,333581,001,2023-07-21_14h22.24.203,arm3_eps,2022.2.5,MacIntel,60.0024001,right,1,0.3,0.05,15,0.022157185,0.3164,35,0,35,0,1,,,,,
,,333581,001,2023-07-21_14h22.24.203,arm3_eps,2022.2.5,MacIntel,60.0024001,right,1,0.3,0.05,15,0.03678464,0.3483,36,0,36,0,1,,,,,
,,333581,001,2023-07-21_14h22.24.203,arm3_eps,2022.2.5,MacIntel,60.0024001,right,1,0.3,0.05,15,0.018944712,0.4822,37,0,37,0,1,,,,,
,,333581,001,2023-07-21_14h22.24.203,arm3_eps,2022.2.5,MacIntel,60.0024001,right,1,0.3,0.05,15,0.039015706,0.3829,38,0,38,0,1,,,,,
,,333581,001,2023-07-21_14h22.24.203,arm3_eps,2022.2.5,MacIntel,60.0024001,up,1,0.3,0.05,15,0,0.4,39,0,39,0,1,,,,,
,,333581,001,2023-07-21_14h22.24.203,arm3_eps,2022.2.5,MacIntel,60.0024001,right,1,0.3,0.05,15,-0.054333537,0.7333,40,0,40,0,1,,,,,
,,333581,001,2023-07-21_14h22.24.203,arm3_eps,2022.2.5,MacIntel,60.0024001,right,1,0.3,0.05,15,-0.029480467,0.199,41,0,41,0,1,,,,,
,,333581,001,2023-07-21_14h22.24.203,arm3_eps,2022.2.5,MacIntel,60.0024001,right,1,0.3,0.05,15,-0.003173798,0.2682,42,0,42,0,1,,,,,
,,333581,001,2023-07-21_14h22.24.203,arm3_eps,2022.2.5,MacIntel,60.0024001,right,1,0.3,0.05,15,-0.03163819,0.2404,43,0,43,0,1,,,,,
,,333581,001,2023-07-21_14h22.24.203,arm3_eps,2022.2.5,MacIntel,60.0024001,right,1,0.3,0.05,15,-0.015874668,0.3865,44,0,44,0,1,,,,,
,,333581,001,2023-07-21_14h22.24.203,arm3_eps,2022.2.5,MacIntel,60.0024001,right,1,0.3,0.05,15,-0.04136136,1.848,45,0,45,0,1,,,,,
,,333581,001,2023-07-21_14h22.24.203,arm3_eps,2022.2.5,MacIntel,60.0024001,right,1,0.3,0.05,15,-0.001448266,0.6311,46,0,46,0,1,,,,,
,,333581,001,2023-07-21_14h22.24.203,arm3_eps,2022.2.5,MacIntel,60.0024001,right,1,0.3,0.05,15,-0.026333853,1.168,47,0,47,0,1,,,,,
,,333581,001,2023-07-21_14h22.24.203,arm3_eps,2022.2.5,MacIntel,60.0024001,down,1,0.3,0.05,15,0,0.7485,48,0,48,0,1,,,,,
,,333581,001,2023-07-21_14h22.24.203,arm3_eps,2022.2.5,MacIntel,60.0024001,right,1,0.3,0.05,15,0.007941998,0.8508,49,0,49,0,1,,,,,
,,333581,001,2023-07-21_14h22.24.203,arm3_eps,2022.2.5,MacIntel,60.0024001,right,1,0.3,0.05,15,0.067114553,0.2794,50,0,50,0,1,,,,,
,,333581,001,2023-07-21_14h22.24.203,arm3_eps,2022.2.5,MacIntel,60.0024001,right,1,0.3,0.05,15,0.09677867,0.2917,51,0,51,0,1,,,,,
,,333581,001,2023-07-21_14h22.24.203,arm3_eps,2022.2.5,MacIntel,60.0024001,right,1,0.3,0.05,15,0.111644459,0.3003,52,0,52,0,1,,,,,
,,333581,001,2023-07-21_14h22.24.203,arm3_eps,2022.2.5,MacIntel,60.0024001,right,1,0.3,0.05,15,0.103190641,0.4488,53,0,53,0,1,,,,,
,,333581,001,2023-07-21_14h22.24.203,arm3_eps,2022.2.5,MacIntel,60.0024001,up,1,0.3,0.05,15,0,0.7635,54,0,54,0,1,,,,,
,,333581,001,2023-07-21_14h22.24.203,arm3_eps,2022.2.5,MacIntel,60.0024001,right,1,0.3,0.05,15,-0.010225189,0.8496,55,0,55,0,1,,,,,
,,333581,001,2023-07-21_14h22.24.203,arm3_eps,2022.2.5,MacIntel,60.0024001,right,1,0.3,0.05,15,-0.026135409,0.2411,56,0,56,0,1,,,,,
,,333581,001,2023-07-21_14h22.24.203,arm3_eps,2022.2.5,MacIntel,60.0024001,right,1,0.3,0.05,15,-0.027820917,0.2707,57,0,57,0,1,,,,,
,,333581,001,2023-07-21_14h22.24.203,arm3_eps,2022.2.5,MacIntel,60.0024001,right,1,0.3,0.05,15,-0.016615579,0.266,58,0,58,0,1,,,,,
,,333581,001,2023-07-21_14h22.24.203,arm3_eps,2022.2.5,MacIntel,60.0024001,right,1,0.3,0.05,15,-0.023877109,0.2832,59,0,59,0,1,,,,,
,,333581,001,2023-07-21_14h22.24.203,arm3_eps,2022.2.5,MacIntel,60.0024001,right,1,0.3,0.05,15,-0.007474383,0.2848,60,0,60,0,1,,,,,
,,333581,001,2023-07-21_14h22.24.203,arm3_eps,2022.2.5,MacIntel,60.0024001,right,1,0.3,0.05,15,-0.006601065,0.3496,61,0,61,0,1,,,,,
,,333581,001,2023-07-21_14h22.24.203,arm3_eps,2022.2.5,MacIntel,60.0024001,right,1,0.3,0.05,15,-0.001992603,0.271,62,0,62,0,1,,,,,
,,333581,001,2023-07-21_14h22.24.203,arm3_eps,2022.2.5,MacIntel,60.0024001,right,1,0.3,0.05,15,0.026154441,0.497,63,0,63,0,1,,,,,
,,333581,001,2023-07-21_14h22.24.203,arm3_eps,2022.2.5,MacIntel,60.0024001,up,1,0.3,0.05,16,0,0.4659,64,0,64,0,1,,,,,
,,333581,001,2023-07-21_14h22.24.203,arm3_eps,2022.2.5,MacIntel,60.0024001,right,1,0.3,0.05,16,0.019007492,0.7704,65,0,65,0,1,,,,,
,,333581,001,2023-07-21_14h22.24.203,arm3_eps,2022.2.5,MacIntel,60.0024001,right,1,0.3,0.05,16,0.065339648,0.2317,66,0,66,0,1,,,,,
,,333581,001,2023-07-21_14h22.24.203,arm3_eps,2022.2.5,MacIntel,60.0024001,right,1,0.3,0.05,16,0.066853958,0.2491,67,0,67,0,1,,,,,
,,333581,001,2023-07-21_14h22.24.203,arm3_eps,2022.2.5,MacIntel,60.0024001,right,1,0.3,0.05,16,0.076255222,0.263,68,0,68,0,1,,,,,
,,333581,001,2023-07-21_14h22.24.203,arm3_eps,2022.2.5,MacIntel,60.0024001,right,1,0.3,0.05,16,0.100227572,0.2503,69,0,69,0,1,,,,,
,,333581,001,2023-07-21_14h22.24.203,arm3_eps,2022.2.5,MacIntel,60.0024001,right,1,0.3,0.05,16,0.111034315,0.3,70,0,70,0,1,,,,,
,,333581,001,2023-07-21_14h22.24.203,arm3_eps,2022.2.5,MacIntel,60.0024001,up,1,0.3,0.05,16,0,0.5167,71,0,71,0,1,,,,,
,,333581,001,2023-07-21_14h22.24.203,arm3_eps,2022.2.5,MacIntel,60.0024001,right,1,0.3,0.05,16,0.027462636,0.747,72,0,72,0,1,,,,,
,,333581,001,2023-07-21_14h22.24.203,arm3_eps,2022.2.5,MacIntel,60.0024001,right,1,0.3,0.05,16,0.053903102,0.2508,73,0,73,0,1,,,,,
,,333581,001,2023-07-21_14h22.24.203,arm3_eps,2022.2.5,MacIntel,60.0024001,right,1,0.3,0.05,16,0.048124696,0.2531,74,0,74,0,1,,,,,
,,333581,001,2023-07-21_14h22.24.203,arm3_eps,2022.2.5,MacIntel,60.0024001,right,1,0.3,0.05,16,0.030251296,0.3169,75,0,75,0,1,,,,,
,,333581,001,2023-07-21_14h22.24.203,arm3_eps,2022.2.5,MacIntel,60.0024001,right,1,0.3,0.05,16,0.065444802,0.3155,76,0,76,0,1,,,,,
,,333581,001,2023-07-21_14h22.24.203,arm3_eps,2022.2.5,MacIntel,60.0024001,right,1,0.3,0.05,16,0.086982901,0.2838,77,0,77,0,1,,,,,
,,333581,001,2023-07-21_14h22.24.203,arm3_eps,2022.2.5,MacIntel,60.0024001,right,1,0.3,0.05,16,0.075695811,0.3498,78,0,78,0,1,,,,,
,,333581,001,2023-07-21_14h22.24.203,arm3_eps,2022.2.5,MacIntel,60.0024001,right,1,0.3,0.05,16,0.087233794,0.3003,79,0,79,0,1,,,,,
,,333581,001,2023-07-21_14h22.24.203,arm3_eps,2022.2.5,MacIntel,60.0024001,up,1,0.3,0.05,16,0,0.4828,80,0,80,0,1,,,,,
,,333581,001,2023-07-21_14h22.24.203,arm3_eps,2022.2.5,MacIntel,60.0024001,right,1,0.3,0.05,16,0.039833069,0.9192,81,0,81,0,1,,,,,
,,333581,001,2023-07-21_14h22.24.203,arm3_eps,2022.2.5,MacIntel,60.0024001,right,1,0.3,0.05,16,0.022732756,0.2542,82,0,82,0,1,,,,,
,,333581,001,2023-07-21_14h22.24.203,arm3_eps,2022.2.5,MacIntel,60.0024001,right,1,0.3,0.05,16,0.030193057,0.2476,83,0,83,0,1,,,,,
,,333581,001,2023-07-21_14h22.24.203,arm3_eps,2022.2.5,MacIntel,60.0024001,right,1,0.3,0.05,16,0.037531477,0.2518,84,0,84,0,1,,,,,
,,333581,001,2023-07-21_14h22.24.203,arm3_eps,2022.2.5,MacIntel,60.0024001,right,1,0.3,0.05,16,0.034402661,0.299,85,0,85,0,1,,,,,
,,333581,001,2023-07-21_14h22.24.203,arm3_eps,2022.2.5,MacIntel,60.0024001,right,1,0.3,0.05,16,0.074509221,0.3527,86,0,86,0,1,,,,,
,,333581,001,2023-07-21_14h22.24.203,arm3_eps,2022.2.5,MacIntel,60.0024001,up,1,0.3,0.05,16,0,1.2517,87,0,87,0,1,,,,,
,,333581,001,2023-07-21_14h22.24.203,arm3_eps,2022.2.5,MacIntel,60.0024001,right,1,0.3,0.05,16,-0.011219304,1.0895,88,0,88,0,1,,,,,
,,333581,001,2023-07-21_14h22.24.203,arm3_eps,2022.2.5,MacIntel,60.0024001,right,1,0.3,0.05,16,-0.009137092,0.2054,89,0,89,0,1,,,,,
,,333581,001,2023-07-21_14h22.24.203,arm3_eps,2022.2.5,MacIntel,60.0024001,right,1,0.3,0.05,16,-0.032889962,0.218,90,0,90,0,1,,,,,
,,333581,001,2023-07-21_14h22.24.203,arm3_eps,2022.2.5,MacIntel,60.0024001,right,1,0.3,0.05,16,-0.033459844,0.2165,91,0,91,0,1,,,,,
,,333581,001,2023-07-21_14h22.24.203,arm3_eps,2022.2.5,MacIntel,60.0024001,right,1,0.3,0.05,16,-0.043900372,0.2655,92,0,92,0,1,,,,,
,,333581,001,2023-07-21_14h22.24.203,arm3_eps,2022.2.5,MacIntel,60.0024001,right,1,0.3,0.05,16,-0.047821771,0.2703,93,0,93,0,1,,,,,
,,333581,001,2023-07-21_14h22.24.203,arm3_eps,2022.2.5,MacIntel,60.0024001,right,1,0.3,0.05,16,-0.031525177,0.4669,94,0,94,0,1,,,,,
,,333581,001,2023-07-21_14h22.24.203,arm3_eps,2022.2.5,MacIntel,60.0024001,right,1,0.3,0.05,16,-0.023447543,0.3815,95,0,95,0,1,,,,,
,,333581,001,2023-07-21_14h22.24.203,arm3_eps,2022.2.5,MacIntel,60.0024001,right,1,0.3,0.05,16,-0.007795109,0.4428,96,0,96,0,1,,,,,
,,333581,001,2023-07-21_14h22.24.203,arm3_eps,2022.2.5,MacIntel,60.0024001,right,1,0.3,0.05,16,-0.0555043,1.2001,97,0,97,0,1,,,,,
,,333581,001,2023-07-21_14h22.24.203,arm3_eps,2022.2.5,MacIntel,60.0024001,right,1,0.3,0.05,16,-0.033523199,0.6612,98,0,98,0,1,,,,,
,,333581,001,2023-07-21_14h22.24.203,arm3_eps,2022.2.5,MacIntel,60.0024001,right,1,0.3,0.05,16,-0.028183688,0.6288,99,0,99,0,1,,,,,
,,333581,001,2023-07-21_14h22.24.203,arm3_eps,2022.2.5,MacIntel,60.0024001,down,1,0.3,0.05,16,0,0.6869,100,0,100,0,1,,,,,
,,333581,001,2023-07-21_14h22.24.203,arm3_eps,2022.2.5,MacIntel,60.0024001,right,1,0.3,0.05,16,0.01516575,0.8081,101,0,101,0,1,,,,,
,,333581,001,2023-07-21_14h22.24.203,arm3_eps,2022.2.5,MacIntel,60.0024001,right,1,0.3,0.05,16,0.028596953,0.7667,102,0,102,0,1,,,,,
,,333581,001,2023-07-21_14h22.24.203,arm3_eps,2022.2.5,MacIntel,60.0024001,right,1,0.3,0.05,16,0.029852669,0.4288,103,0,103,0,1,,,,,
,,333581,001,2023-07-21_14h22.24.203,arm3_eps,2022.2.5,MacIntel,60.0024001,right,1,0.3,0.05,16,0.072442209,0.647,104,0,104,0,1,,,,,
,,333581,001,2023-07-21_14h22.24.203,arm3_eps,2022.2.5,MacIntel,60.0024001,up,1,0.3,0.05,17,0,0.4498,105,0,105,0,1,,,,,
,,333581,001,2023-07-21_14h22.24.203,arm3_eps,2022.2.5,MacIntel,60.0024001,right,1,0.3,0.05,17,0.013502381,0.7666,106,0,106,0,1,,,,,
,,333581,001,2023-07-21_14h22.24.203,arm3_eps,2022.2.5,MacIntel,60.0024001,right,1,0.3,0.05,17,0.030021983,0.1966,107,0,107,0,1,,,,,
,,333581,001,2023-07-21_14h22.24.203,arm3_eps,2022.2.5,MacIntel,60.0024001,right,1,0.3,0.05,17,0.062325533,0.1852,108,0,108,0,1,,,,,
,,333581,001,2023-07-21_14h22.24.203,arm3_eps,2022.2.5,MacIntel,60.0024001,right,1,0.3,0.05,17,0.066737337,0.2333,109,0,109,0,1,,,,,
,,333581,001,2023-07-21_14h22.24.203,arm3_eps,2022.2.5,MacIntel,60.0024001,right,1,0.3,0.05,17,0.041453737,0.2344,110,0,110,0,1,,,,,
,,333581,001,2023-07-21_14h22.24.203,arm3_eps,2022.2.5,MacIntel,60.0024001,right,1,0.3,0.05,17,0.030404423,0.2498,111,0,111,0,1,,,,,
,,333581,001,2023-07-21_14h22.24.203,arm3_eps,2022.2.5,MacIntel,60.0024001,right,1,0.3,0.05,17,0.045121342,0.3498,112,0,112,0,1,,,,,
,,333581,001,2023-07-21_14h22.24.203,arm3_eps,2022.2.5,MacIntel,60.0024001,right,1,0.3,0.05,17,0.061435319,0.5501,113,0,113,0,1,,,,,
,,333581,001,2023-07-21_14h22.24.203,arm3_eps,2022.2.5,MacIntel,60.0024001,up,1,0.3,0.05,17,0,0.2506,114,0,114,0,1,,,,,
,,333581,001,2023-07-21_14h22.24.203,arm3_eps,2022.2.5,MacIntel,60.0024001,right,1,0.3,0.05,17,0.013711879,0.5176,115,0,115,0,1,,,,,
,,333581,001,2023-07-21_14h22.24.203,arm3_eps,2022.2.5,MacIntel,60.0024001,right,1,0.3,0.05,17,0.029966759,0.2483,116,0,116,0,1,,,,,
,,333581,001,2023-07-21_14h22.24.203,arm3_eps,2022.2.5,MacIntel,60.0024001,right,1,0.3,0.05,17,0.040843062,0.2013,117,0,117,0,1,,,,,
,,333581,001,2023-07-21_14h22.24.203,arm3_eps,2022.2.5,MacIntel,60.0024001,right,1,0.3,0.05,17,0.062620316,0.1611,118,0,118,0,1,,,,,
,,333581,001,2023-07-21_14h22.24.203,arm3_eps,2022.2.5,MacIntel,60.0024001,right,1,0.3,0.05,17,0.075336112,0.1653,119,0,119,0,1,,,,,
,,333581,001,2023-07-21_14h22.24.203,arm3_eps,2022.2.5,MacIntel,60.0024001,right,1,0.3,0.05,17,0.09402632,0.1845,120,0,120,0,1,,,,,
,,333581,001,2023-07-21_14h22.24.203,arm3_eps,2022.2.5,MacIntel,60.0024001,up,1,0.3,0.05,17,0,0.5993,121,0,121,0,1,,,,,
,,333581,001,2023-07-21_14h22.24.203,arm3_eps,2022.2.5,MacIntel,60.0024001,right,1,0.3,0.05,17,0.023929009,0.7993,122,0,122,0,1,,,,,
,,333581,001,2023-07-21_14h22.24.203,arm3_eps,2022.2.5,MacIntel,60.0024001,right,1,0.3,0.05,17,0.02329386,0.1831,123,0,123,0,1,,,,,
,,333581,001,2023-07-21_14h22.24.203,arm3_eps,2022.2.5,MacIntel,60.0024001,right,1,0.3,0.05,17,0.040920464,0.2137,124,0,124,0,1,,,,,
,,333581,001,2023-07-21_14h22.24.203,arm3_eps,2022.2.5,MacIntel,60.0024001,right,1,0.3,0.05,17,0.048899561,0.251,125,0,125,0,1,,,,,
,,333581,001,2023-07-21_14h22.24.203,arm3_eps,2022.2.5,MacIntel,60.0024001,right,1,0.3,0.05,17,0.054842201,0.2835,126,0,126,0,1,,,,,
,,333581,001,2023-07-21_14h22.24.203,arm3_eps,2022.2.5,MacIntel,60.0024001,right,1,0.3,0.05,17,0.048393219,0.4322,127,0,127,0,1,,,,,
,,333581,001,2023-07-21_14h22.24.203,arm3_eps,2022.2.5,MacIntel,60.0024001,up,-1,0.3,0.05,17,0,0.7001,128,0,128,0,1,,,,,
,,333581,001,2023-07-21_14h22.24.203,arm3_eps,2022.2.5,MacIntel,60.0024001,right,-1,0.3,0.05,17,0.039864036,0.6488,129,0,129,0,1,,,,,
,,333581,001,2023-07-21_14h22.24.203,arm3_eps,2022.2.5,MacIntel,60.0024001,right,-1,0.3,0.05,17,0.045929828,0.238,130,0,130,0,1,,,,,
,,333581,001,2023-07-21_14h22.24.203,arm3_eps,2022.2.5,MacIntel,60.0024001,right,-1,0.3,0.05,17,0.012872838,0.2132,131,0,131,0,1,,,,,
,,333581,001,2023-07-21_14h22.24.203,arm3_eps,2022.2.5,MacIntel,60.0024001,right,-1,0.3,0.05,17,0.041831888,0.2333,132,0,132,0,1,,,,,
,,333581,001,2023-07-21_14h22.24.203,arm3_eps,2022.2.5,MacIntel,60.0024001,right,-1,0.3,0.05,17,0.03337833,0.285,133,0,133,0,1,,,,,
,,333581,001,2023-07-21_14h22.24.203,arm3_eps,2022.2.5,MacIntel,60.0024001,right,-1,0.3,0.05,17,0.035991961,0.2333,134,0,134,0,1,,,,,
,,333581,001,2023-07-21_14h22.24.203,arm3_eps,2022.2.5,MacIntel,60.0024001,right,-1,0.3,0.05,17,0.007982051,0.5005,135,0,135,0,1,,,,,
,,333581,001,2023-07-21_14h22.24.203,arm3_eps,2022.2.5,MacIntel,60.0024001,right,-1,0.3,0.05,17,0.01833778,0.3349,136,0,136,0,1,,,,,
,,333581,001,2023-07-21_14h22.24.203,arm3_eps,2022.2.5,MacIntel,60.0024001,up,-1,0.3,0.05,16,0,0.633,137,0,137,0,1,,,,,
,,333581,001,2023-07-21_14h22.24.203,arm3_eps,2022.2.5,MacIntel,60.0024001,right,-1,0.3,0.05,16,0.018231118,1.0142,138,0,138,0,1,,,,,
,,333581,001,2023-07-21_14h22.24.203,arm3_eps,2022.2.5,MacIntel,60.0024001,right,-1,0.3,0.05,16,-0.012704288,0.2676,139,0,139,0,1,,,,,
,,333581,001,2023-07-21_14h22.24.203,arm3_eps,2022.2.5,MacIntel,60.0024001,right,-1,0.3,0.05,16,-0.012772886,0.2146,140,0,140,0,1,,,,,
,,333581,001,2023-07-21_14h22.24.203,arm3_eps,2022.2.5,MacIntel,60.0024001,right,-1,0.3,0.05,16,-0.007498075,0.268,141,0,141,0,1,,,,,
,,333581,001,2023-07-21_14h22.24.203,arm3_eps,2022.2.5,MacIntel,60.0024001,right,-1,0.3,0.05,16,-0.014979953,0.2529,142,0,142,0,1,,,,,
,,333581,001,2023-07-21_14h22.24.203,arm3_eps,2022.2.5,MacIntel,60.0024001,right,-1,0.3,0.05,16,-0.029759491,0.3159,143,0,143,0,1,,,,,
,,333581,001,2023-07-21_14h22.24.203,arm3_eps,2022.2.5,MacIntel,60.0024001,right,-1,0.3,0.05,16,-0.026238378,0.3023,144,0,144,0,1,,,,,
,,333581,001,2023-07-21_14h22.24.203,arm3_eps,2022.2.5,MacIntel,60.0024001,right,-1,0.3,0.05,16,-0.024044283,0.2679,145,0,145,0,1,,,,,
,,333581,001,2023-07-21_14h22.24.203,arm3_eps,2022.2.5,MacIntel,60.0024001,down,-1,0.3,0.05,17,0,1.2521,146,0,146,0,1,,,,,
,,333581,001,2023-07-21_14h22.24.203,arm3_eps,2022.2.5,MacIntel,60.0024001,right,-1,0.3,0.05,17,-0.002398064,0.8298,147,0,147,0,1,,,,,
,,333581,001,2023-07-21_14h22.24.203,arm3_eps,2022.2.5,MacIntel,60.0024001,right,-1,0.3,0.05,17,-0.013403868,0.2176,148,0,148,0,1,,,,,
,,333581,001,2023-07-21_14h22.24.203,arm3_eps,2022.2.5,MacIntel,60.0024001,right,-1,0.3,0.05,17,-0.040337683,0.2492,149,0,149,0,1,,,,,
,,333581,001,2023-07-21_14h22.24.203,arm3_eps,2022.2.5,MacIntel,60.0024001,right,-1,0.3,0.05,17,-0.033035423,0.2475,150,0,150,0,1,,,,,
,,333581,001,2023-07-21_14h22.24.203,arm3_eps,2022.2.5,MacIntel,60.0024001,right,-1,0.3,0.05,17,-0.042528718,0.2651,151,0,151,0,1,,,,,
,,333581,001,2023-07-21_14h22.24.203,arm3_eps,2022.2.5,MacIntel,60.0024001,right,-1,0.3,0.05,17,-0.061738089,0.231,152,0,152,0,1,,,,,
,,333581,001,2023-07-21_14h22.24.203,arm3_eps,2022.2.5,MacIntel,60.0024001,right,-1,0.3,0.05,17,-0.063422724,0.3005,153,0,153,0,1,,,,,
,,333581,001,2023-07-21_14h22.24.203,arm3_eps,2022.2.5,MacIntel,60.0024001,right,-1,0.3,0.05,17,-0.046844751,0.5492,154,0,154,0,1,,,,,
,,333581,001,2023-07-21_14h22.24.203,arm3_eps,2022.2.5,MacIntel,60.0024001,right,-1,0.3,0.05,17,-0.055076361,0.6004,155,0,155,0,1,,,,,
,,333581,001,2023-07-21_14h22.24.203,arm3_eps,2022.2.5,MacIntel,60.0024001,down,-1,0.3,0.05,17,0,1.0838,156,0,156,0,1,,,,,
,,333581,001,2023-07-21_14h22.24.203,arm3_eps,2022.2.5,MacIntel,60.0024001,right,-1,0.3,0.05,17,-0.03498937,1.1168,157,0,157,0,1,,,,,
,,333581,001,2023-07-21_14h22.24.203,arm3_eps,2022.2.5,MacIntel,60.0024001,right,-1,0.3,0.05,17,-0.021928807,0.2679,158,0,158,0,1,,,,,
,,333581,001,2023-07-21_14h22.24.203,arm3_eps,2022.2.5,MacIntel,60.0024001,right,-1,0.3,0.05,17,-0.043562266,0.2642,159,0,159,0,1,,,,,
,,333581,001,2023-07-21_14h22.24.203,arm3_eps,2022.2.5,MacIntel,60.0024001,right,-1,0.3,0.05,17,-0.052912419,0.2671,160,0,160,0,1,,,,,
,,333581,001,2023-07-21_14h22.24.203,arm3_eps,2022.2.5,MacIntel,60.0024001,right,-1,0.3,0.05,17,-0.054702031,0.3664,161,0,161,0,1,,,,,
,,333581,001,2023-07-21_14h22.24.203,arm3_eps,2022.2.5,MacIntel,60.0024001,down,-1,0.3,0.05,18,0,0.9655,162,0,162,0,1,,,,,
,,333581,001,2023-07-21_14h22.24.203,arm3_eps,2022.2.5,MacIntel,60.0024001,right,-1,0.3,0.05,18,-0.023381284,0.9532,163,0,163,0,1,,,,,
,,333581,001,2023-07-21_14h22.24.203,arm3_eps,2022.2.5,MacIntel,60.0024001,right,-1,0.3,0.05,18,-0.049968013,0.2333,164,0,164,0,1,,,,,
,,333581,001,2023-07-21_14h22.24.203,arm3_eps,2022.2.5,MacIntel,60.0024001,right,-1,0.3,0.05,18,-0.025560962,0.2342,165,0,165,0,1,,,,,
,,333581,001,2023-07-21_14h22.24.203,arm3_eps,2022.2.5,MacIntel,60.0024001,right,-1,0.3,0.05,18,-0.008347142,0.3007,166,0,166,0,1,,,,,
,,333581,001,2023-07-21_14h22.24.203,arm3_eps,2022.2.5,MacIntel,60.0024001,right,-1,0.3,0.05,18,-0.035023781,0.3037,167,0,167,0,1,,,,,
,,333581,001,2023-07-21_14h22.24.203,arm3_eps,2022.2.5,MacIntel,60.0024001,right,-1,0.3,0.05,18,-0.036675767,0.8851,168,0,168,0,1,,,,,
,,333581,001,2023-07-21_14h22.24.203,arm3_eps,2022.2.5,MacIntel,60.0024001,right,-1,0.3,0.05,18,-0.005256924,0.378,169,0,169,0,1,,,,,
,,333581,001,2023-07-21_14h22.24.203,arm3_eps,2022.2.5,MacIntel,60.0024001,right,-1,0.3,0.05,18,-0.001814418,0.4458,170,0,170,0,1,,,,,
,,333581,001,2023-07-21_14h22.24.203,arm3_eps,2022.2.5,MacIntel,60.0024001,right,-1,0.3,0.05,18,0.004850868,0.4663,171,0,171,0,1,,,,,
,,333581,001,2023-07-21_14h22.24.203,arm3_eps,2022.2.5,MacIntel,60.0024001,right,-1,0.3,0.05,18,0.004453935,0.4473,172,0,172,0,1,,,,,
,,333581,001,2023-07-21_14h22.24.203,arm3_eps,2022.2.5,MacIntel,60.0024001,right,-1,0.3,0.05,18,-0.009358418,0.5306,173,0,173,0,1,,,,,
,,333581,001,2023-07-21_14h22.24.203,arm3_eps,2022.2.5,MacIntel,60.0024001,down,-1,0.3,0.05,18,0,0.7156,174,0,174,0,1,,,,,
,,333581,001,2023-07-21_14h22.24.203,arm3_eps,2022.2.5,MacIntel,60.0024001,right,-1,0.3,0.05,18,-0.032791907,0.851,175,0,175,0,1,,,,,
,,333581,001,2023-07-21_14h22.24.203,arm3_eps,2022.2.5,MacIntel,60.0024001,right,-1,0.3,0.05,18,-0.046733272,0.2819,176,0,176,0,1,,,,,
,,333581,001,2023-07-21_14h22.24.203,arm3_eps,2022.2.5,MacIntel,60.0024001,right,-1,0.3,0.05,18,-0.039470299,0.2995,177,0,177,0,1,,,,,
,,333581,001,2023-07-21_14h22.24.203,arm3_eps,2022.2.5,MacIntel,60.0024001,right,-1,0.3,0.05,18,-0.05486802,0.2683,178,0,178,0,1,,,,,
,,333581,001,2023-07-21_14h22.24.203,arm3_eps,2022.2.5,MacIntel,60.0024001,right,-1,0.3,0.05,18,-0.050718909,0.5503,179,0,179,0,1,,,,,
,,333581,001,2023-07-21_14h22.24.203,arm3_eps,2022.2.5,MacIntel,60.0024001,down,-1,0.3,0.05,18,0,0.4512,180,0,180,0,1,,,,,
,,333581,001,2023-07-21_14h22.24.203,arm3_eps,2022.2.5,MacIntel,60.0024001,right,-1,0.3,0.05,18,0.016488146,0.7639,181,0,181,0,1,,,,,
,,333581,001,2023-07-21_14h22.24.203,arm3_eps,2022.2.5,MacIntel,60.0024001,right,-1,0.3,0.05,18,0.022168939,0.2357,182,0,182,0,1,,,,,
,,333581,001,2023-07-21_14h22.24.203,arm3_eps,2022.2.5,MacIntel,60.0024001,right,-1,0.3,0.05,18,0.007897312,0.1547,183,0,183,0,1,,,,,
,,333581,001,2023-07-21_14h22.24.203,arm3_eps,2022.2.5,MacIntel,60.0024001,right,-1,0.3,0.05,18,-0.002338797,0.245,184,0,184,0,1,,,,,
,,333581,001,2023-07-21_14h22.24.203,arm3_eps,2022.2.5,MacIntel,60.0024001,right,-1,0.3,0.05,18,0.00843282,0.2334,185,0,185,0,1,,,,,
,,333581,001,2023-07-21_14h22.24.203,arm3_eps,2022.2.5,MacIntel,60.0024001,right,-1,0.3,0.05,18,-0.017117582,0.3006,186,0,186,0,1,,,,,
,,333581,001,2023-07-21_14h22.24.203,arm3_eps,2022.2.5,MacIntel,60.0024001,right,-1,0.3,0.05,18,-0.038507322,0.4351,187,0,187,0,1,,,,,
,,333581,001,2023-07-21_14h22.24.203,arm3_eps,2022.2.5,MacIntel,60.0024001,down,-1,0.3,0.05,18,0,0.3664,188,0,188,0,1,,,,,
,,333581,001,2023-07-21_14h22.24.203,arm3_eps,2022.2.5,MacIntel,60.0024001,right,-1,0.3,0.05,18,0.017369975,0.5323,189,0,189,0,1,,,,,
,,333581,001,2023-07-21_14h22.24.203,arm3_eps,2022.2.5,MacIntel,60.0024001,right,-1,0.3,0.05,18,0.023154455,0.2537,190,0,190,0,1,,,,,
,,333581,001,2023-07-21_14h22.24.203,arm3_eps,2022.2.5,MacIntel,60.0024001,right,-1,0.3,0.05,18,0.030464698,0.2331,191,0,191,0,1,,,,,
,,333581,001,2023-07-21_14h22.24.203,arm3_eps,2022.2.5,MacIntel,60.0024001,right,-1,0.3,0.05,18,0.011624556,0.183,192,0,192,0,1,,,,,
,,333581,001,2023-07-21_14h22.24.203,arm3_eps,2022.2.5,MacIntel,60.0024001,right,-1,0.3,0.05,18,0.004507552,0.1981,193,0,193,0,1,,,,,
,,333581,001,2023-07-21_14h22.24.203,arm3_eps,2022.2.5,MacIntel,60.0024001,right,-1,0.3,0.05,18,-0.046085062,0.2975,194,0,194,0,1,,,,,
,,333581,001,2023-07-21_14h22.24.203,arm3_eps,2022.2.5,MacIntel,60.0024001,right,-1,0.3,0.05,18,-0.055657526,0.5992,195,0,195,0,1,,,,,
,,333581,001,2023-07-21_14h22.24.203,arm3_eps,2022.2.5,MacIntel,60.0024001,down,-1,0.3,0.05,19,0,0.3003,196,0,196,0,1,,,,,
,,333581,001,2023-07-21_14h22.24.203,arm3_eps,2022.2.5,MacIntel,60.0024001,right,-1,0.3,0.05,19,0.017728789,0.7635,197,0,197,0,1,,,,,
,,333581,001,2023-07-21_14h22.24.203,arm3_eps,2022.2.5,MacIntel,60.0024001,right,-1,0.3,0.05,19,-0.001959742,0.2198,198,0,198,0,1,,,,,
,,333581,001,2023-07-21_14h22.24.203,arm3_eps,2022.2.5,MacIntel,60.0024001,right,-1,0.3,0.05,19,-0.012989754,0.2348,199,0,199,0,1,,,,,
,,333581,001,2023-07-21_14h22.24.203,arm3_eps,2022.2.5,MacIntel,60.0024001,right,-1,0.3,0.05,19,0.005189016,0.2674,200,0,200,0,1,,,,,
,,333581,001,2023-07-21_14h22.24.203,arm3_eps,2022.2.5,MacIntel,60.0024001,right,-1,0.3,0.05,19,0.031673371,0.2314,201,0,201,0,1,,,,,
,,333581,001,2023-07-21_14h22.24.203,arm3_eps,2022.2.5,MacIntel,60.0024001,right,-1,0.3,0.05,19,0.006253947,0.3319,202,0,202,0,1,,,,,
,,333581,001,2023-07-21_14h22.24.203,arm3_eps,2022.2.5,MacIntel,60.0024001,right,-1,0.3,0.05,19,-0.006646494,0.251,203,0,203,0,1,,,,,
,,333581,001,2023-07-21_14h22.24.203,arm3_eps,2022.2.5,MacIntel,60.0024001,right,-1,0.3,0.05,19,-0.038077444,0.5341,204,0,204,0,1,,,,,
,,333581,001,2023-07-21_14h22.24.203,arm3_eps,2022.2.5,MacIntel,60.0024001,right,-1,0.3,0.05,19,-0.029201119,0.8151,205,0,205,0,1,,,,,
,,333581,001,2023-07-21_14h22.24.203,arm3_eps,2022.2.5,MacIntel,60.0024001,down,-1,0.3,0.05,19,0,1.0004,206,0,206,0,1,,,,,
,,333581,001,2023-07-21_14h22.24.203,arm3_eps,2022.2.5,MacIntel,60.0024001,right,-1,0.3,0.05,19,-0.029847362,0.7626,207,0,207,0,1,,,,,
,,333581,001,2023-07-21_14h22.24.203,arm3_eps,2022.2.5,MacIntel,60.0024001,right,-1,0.3,0.05,19,-0.026357672,0.2498,208,0,208,0,1,,,,,
,,333581,001,2023-07-21_14h22.24.203,arm3_eps,2022.2.5,MacIntel,60.0024001,right,-1,0.3,0.05,19,-0.039447877,0.2367,209,0,209,0,1,,,,,
,,333581,001,2023-07-21_14h22.24.203,arm3_eps,2022.2.5,MacIntel,60.0024001,right,-1,0.3,0.05,19,-0.045011643,0.2477,210,0,210,0,1,,,,,
,,333581,001,2023-07-21_14h22.24.203,arm3_eps,2022.2.5,MacIntel,60.0024001,right,-1,0.3,0.05,19,-0.063370974,0.2346,211,0,211,0,1,,,,,
,,333581,001,2023-07-21_14h22.24.203,arm3_eps,2022.2.5,MacIntel,60.0024001,down,-1,0.3,0.05,19,0,0.3537,212,0,212,0,1,,,,,
,,333581,001,2023-07-21_14h22.24.203,arm3_eps,2022.2.5,MacIntel,60.0024001,right,-1,0.3,0.05,19,-0.01446734,0.7504,213,0,213,0,1,,,,,
,,333581,001,2023-07-21_14h22.24.203,arm3_eps,2022.2.5,MacIntel,60.0024001,right,-1,0.3,0.05,19,-0.041052731,0.2175,214,0,214,0,1,,,,,
,,333581,001,2023-07-21_14h22.24.203,arm3_eps,2022.2.5,MacIntel,60.0024001,right,-1,0.3,0.05,19,-0.096975084,0.2655,215,0,215,0,1,,,,,
,,333581,001,2023-07-21_14h22.24.203,arm3_eps,2022.2.5,MacIntel,60.0024001,right,-1,0.3,0.05,19,-0.096022151,0.2672,216,0,216,0,1,,,,,
,,333581,001,2023-07-21_14h22.24.203,arm3_eps,2022.2.5,MacIntel,60.0024001,down,-1,0.3,0.05,19,0,0.4342,217,0,217,0,1,,,,,
,,333581,001,2023-07-21_14h22.24.203,arm3_eps,2022.2.5,MacIntel,60.0024001,right,-1,0.3,0.05,19,-0.007812052,0.8852,218,0,218,0,1,,,,,
,,333581,001,2023-07-21_14h22.24.203,arm3_eps,2022.2.5,MacIntel,60.0024001,right,-1,0.3,0.05,19,0.00116517,0.2158,219,0,219,0,1,,,,,
,,333581,001,2023-07-21_14h22.24.203,arm3_eps,2022.2.5,MacIntel,60.0024001,right,-1,0.3,0.05,19,-0.026639623,0.2483,220,0,220,0,1,,,,,
,,333581,001,2023-07-21_14h22.24.203,arm3_eps,2022.2.5,MacIntel,60.0024001,right,-1,0.3,0.05,19,-0.040071704,0.282,221,0,221,0,1,,,,,
,,333581,001,2023-07-21_14h22.24.203,arm3_eps,2022.2.5,MacIntel,60.0024001,right,-1,0.3,0.05,19,-0.047168652,0.2332,222,0,222,0,1,,,,,
,,333581,001,2023-07-21_14h22.24.203,arm3_eps,2022.2.5,MacIntel,60.0024001,right,-1,0.3,0.05,19,-0.072916881,0.4849,223,0,223,0,1,,,,,
,,333581,001,2023-07-21_14h22.24.203,arm3_eps,2022.2.5,MacIntel,60.0024001,down,1,0.3,0.05,20,0,0.7181,224,0,224,0,1,,,,,
,,333581,001,2023-07-21_14h22.24.203,arm3_eps,2022.2.5,MacIntel,60.0024001,right,1,0.3,0.05,20,-0.004541012,0.8954,225,0,225,0,1,,,,,
,,333581,001,2023-07-21_14h22.24.203,arm3_eps,2022.2.5,MacIntel,60.0024001,right,1,0.3,0.05,20,-0.009284517,0.2146,226,0,226,0,1,,,,,
,,333581,001,2023-07-21_14h22.24.203,arm3_eps,2022.2.5,MacIntel,60.0024001,right,1,0.3,0.05,20,0.000926377,0.1815,227,0,227,0,1,,,,,
,,333581,001,2023-07-21_14h22.24.203,arm3_eps,2022.2.5,MacIntel,60.0024001,right,1,0.3,0.05,20,0.023412238,0.2345,228,0,228,0,1,,,,,
,,333581,001,2023-07-21_14h22.24.203,arm3_eps,2022.2.5,MacIntel,60.0024001,right,1,0.3,0.05,20,0.074430824,0.4497,229,0,229,0,1,,,,,
,,333581,001,2023-07-21_14h22.24.203,arm3_eps,2022.2.5,MacIntel,60.0024001,up,1,0.3,0.05,20,0,0.2176,230,0,230,0,1,,,,,
,,333581,001,2023-07-21_14h22.24.203,arm3_eps,2022.2.5,MacIntel,60.0024001,right,1,0.3,0.05,20,0.020732784,0.8336,231,0,231,0,1,,,,,
,,333581,001,2023-07-21_14h22.24.203,arm3_eps,2022.2.5,MacIntel,60.0024001,right,1,0.3,0.05,20,0.048368251,0.2167,232,0,232,0,1,,,,,
,,333581,001,2023-07-21_14h22.24.203,arm3_eps,2022.2.5,MacIntel,60.0024001,up,1,0.3,0.05,20,0,0.5859,233,0,233,0,1,,,,,
,,333581,001,2023-07-21_14h22.24.203,arm3_eps,2022.2.5,MacIntel,60.0024001,right,1,0.3,0.05,20,0.03185402,0.8453,234,0,234,0,1,,,,,
,,333581,001,2023-07-21_14h22.24.203,arm3_eps,2022.2.5,MacIntel,60.0024001,right,1,0.3,0.05,20,0.039563236,0.1707,235,0,235,0,1,,,,,
,,333581,001,2023-07-21_14h22.24.203,arm3_eps,2022.2.5,MacIntel,60.0024001,right,1,0.3,0.05,20,0.053195696,0.2492,236,0,236,0,1,,,,,
,,333581,001,2023-07-21_14h22.24.203,arm3_eps,2022.2.5,MacIntel,60.0024001,right,1,0.3,0.05,20,0.074922191,0.2654,237,0,237,0,1,,,,,
,,333581,001,2023-07-21_14h22.24.203,arm3_eps,2022.2.5,MacIntel,60.0024001,right,1,0.3,0.05,20,0.082946702,0.4493,238,0,238,0,1,,,,,
,,333581,001,2023-07-21_14h22.24.203,arm3_eps,2022.2.5,MacIntel,60.0024001,up,1,0.3,0.05,20,0,0.6346,239,0,239,0,1,,,,,
,,333581,001,2023-07-21_14h22.24.203,arm3_eps,2022.2.5,MacIntel,60.0024001,right,1,0.3,0.05,20,-0.016071928,0.9789,240,0,240,0,1,,,,,
,,333581,001,2023-07-21_14h22.24.203,arm3_eps,2022.2.5,MacIntel,60.0024001,right,1,0.3,0.05,20,-0.027460049,0.2447,241,0,241,0,1,,,,,
,,333581,001,2023-07-21_14h22.24.203,arm3_eps,2022.2.5,MacIntel,60.0024001,right,1,0.3,0.05,20,-0.032627638,0.2007,242,0,242,0,1,,,,,
,,333581,001,2023-07-21_14h22.24.203,arm3_eps,2022.2.5,MacIntel,60.0024001,right,1,0.3,0.05,20,-0.015288698,0.4134,243,0,243,0,1,,,,,
,,333581,001,2023-07-21_14h22.24.203,arm3_eps,2022.2.5,MacIntel,60.0024001,right,1,0.3,0.05,20,-0.01037915,0.3017,244,0,244,0,1,,,,,
,,333581,001,2023-07-21_14h22.24.203,arm3_eps,2022.2.5,MacIntel,60.0024001,right,1,0.3,0.05,20,-0.002117914,0.3193,245,0,245,0,1,,,,,
,,333581,001,2023-07-21_14h22.24.203,arm3_eps,2022.2.5,MacIntel,60.0024001,right,1,0.3,0.05,20,0.00151446,0.4871,246,0,246,0,1,,,,,
,,333581,001,2023-07-21_14h22.24.203,arm3_eps,2022.2.5,MacIntel,60.0024001,right,1,0.3,0.05,20,0.010978889,0.3618,247,0,247,0,1,,,,,
,,333581,001,2023-07-21_14h22.24.203,arm3_eps,2022.2.5,MacIntel,60.0024001,up,1,0.3,0.05,20,0,0.4499,248,0,248,0,1,,,,,
,,333581,001,2023-07-21_14h22.24.203,arm3_eps,2022.2.5,MacIntel,60.0024001,right,1,0.3,0.05,20,-0.01812031,0.8623,249,0,249,0,1,,,,,
,,333581,001,2023-07-21_14h22.24.203,arm3_eps,2022.2.5,MacIntel,60.0024001,right,1,0.3,0.05,20,-0.013343875,0.1813,250,0,250,0,1,,,,,
,,333581,001,2023-07-21_14h22.24.203,arm3_eps,2022.2.5,MacIntel,60.0024001,right,1,0.3,0.05,20,-0.004753319,0.2271,251,0,251,0,1,,,,,
,,333581,001,2023-07-21_14h22.24.203,arm3_eps,2022.2.5,MacIntel,60.0024001,right,1,0.3,0.05,20,0.023674367,0.2184,252,0,252,0,1,,,,,
,,333581,001,2023-07-21_14h22.24.203,arm3_eps,2022.2.5,MacIntel,60.0024001,right,1,0.3,0.05,20,0.015382826,0.4348,253,0,253,0,1,,,,,
,,333581,001,2023-07-21_14h22.24.203,arm3_eps,2022.2.5,MacIntel,60.0024001,right,1,0.3,0.05,20,0.027053016,0.3628,254,0,254,0,1,,,,,
,,333581,001,2023-07-21_14h22.24.203,arm3_eps,2022.2.5,MacIntel,60.0024001,right,1,0.3,0.05,20,0.048262062,0.3167,255,0,255,0,1,,,,,
,,333581,001,2023-07-21_14h22.24.203,arm3_eps,2022.2.5,MacIntel,60.0024001,up,1,0.3,0.05,20,0,0.4819,256,0,256,0,1,,,,,
,,333581,001,2023-07-21_14h22.24.203,arm3_eps,2022.2.5,MacIntel,60.0024001,right,1,0.3,0.05,20,0.019919009,0.8841,257,0,257,0,1,,,,,
,,333581,001,2023-07-21_14h22.24.203,arm3_eps,2022.2.5,MacIntel,60.0024001,right,1,0.3,0.05,20,0.058648243,0.2036,258,0,258,0,1,,,,,
,,333581,001,2023-07-21_14h22.24.203,arm3_eps,2022.2.5,MacIntel,60.0024001,right,1,0.3,0.05,20,0.095078166,0.2334,259,0,259,0,1,,,,,
,,333581,001,2023-07-21_14h22.24.203,arm3_eps,2022.2.5,MacIntel,60.0024001,right,1,0.3,0.05,20,0.106749144,0.2986,260,0,260,0,1,,,,,
,,333581,001,2023-07-21_14h22.24.203,arm3_eps,2022.2.5,MacIntel,60.0024001,up,1,0.3,0.05,20,0,0.5663,261,0,261,0,1,,,,,
,,333581,001,2023-07-21_14h22.24.203,arm3_eps,2022.2.5,MacIntel,60.0024001,right,1,0.3,0.05,20,0.003905939,0.9331,262,0,262,0,1,,,,,
,,333581,001,2023-07-21_14h22.24.203,arm3_eps,2022.2.5,MacIntel,60.0024001,right,1,0.3,0.05,20,0.029575379,0.2514,263,0,263,0,1,,,,,
,,333581,001,2023-07-21_14h22.24.203,arm3_eps,2022.2.5,MacIntel,60.0024001,right,1,0.3,0.05,20,0.042821247,0.3864,264,0,264,0,1,,,,,
,,333581,001,2023-07-21_14h22.24.203,arm3_eps,2022.2.5,MacIntel,60.0024001,right,1,0.3,0.05,20,0.061928577,0.376,265,0,265,0,1,,,,,
,,333581,001,2023-07-21_14h22.24.203,arm3_eps,2022.2.5,MacIntel,60.0024001,up,1,0.3,0.05,21,0,0.2508,266,0,266,0,1,,,,,
,,333581,001,2023-07-21_14h22.24.203,arm3_eps,2022.2.5,MacIntel,60.0024001,right,1,0.3,0.05,21,0.017462934,0.8452,267,0,267,0,1,,,,,
,,333581,001,2023-07-21_14h22.24.203,arm3_eps,2022.2.5,MacIntel,60.0024001,right,1,0.3,0.05,21,0.015064937,0.2175,268,0,268,0,1,,,,,
,,333581,001,2023-07-21_14h22.24.203,arm3_eps,2022.2.5,MacIntel,60.0024001,right,1,0.3,0.05,21,0.025285598,0.252,269,0,269,0,1,,,,,
,,333581,001,2023-07-21_14h22.24.203,arm3_eps,2022.2.5,MacIntel,60.0024001,right,1,0.3,0.05,21,0.032339895,0.2479,270,0,270,0,1,,,,,
,,333581,001,2023-07-21_14h22.24.203,arm3_eps,2022.2.5,MacIntel,60.0024001,right,1,0.3,0.05,21,0.028899425,0.2453,271,0,271,0,1,,,,,
,,333581,001,2023-07-21_14h22.24.203,arm3_eps,2022.2.5,MacIntel,60.0024001,right,1,0.3,0.05,21,0.069157659,0.2341,272,0,272,0,1,,,,,
,,333581,001,2023-07-21_14h22.24.203,arm3_eps,2022.2.5,MacIntel,60.0024001,up,1,0.3,0.05,22,0,0.5026,273,0,273,0,1,,,,,
,,333581,001,2023-07-21_14h22.24.203,arm3_eps,2022.2.5,MacIntel,60.0024001,right,1,0.3,0.05,22,0.000611066,0.4121,274,0,274,0,1,,,,,
,,333581,001,2023-07-21_14h22.24.203,arm3_eps,2022.2.5,MacIntel,60.0024001,right,1,0.3,0.05,22,0.029428713,0.3074,275,0,275,0,1,,,,,
,,333581,001,2023-07-21_14h22.24.203,arm3_eps,2022.2.5,MacIntel,60.0024001,right,1,0.3,0.05,22,0.038817668,0.2452,276,0,276,0,1,,,,,
,,333581,001,2023-07-21_14h22.24.203,arm3_eps,2022.2.5,MacIntel,60.0024001,right,1,0.3,0.05,22,0.046650511,0.2353,277,0,277,0,1,,,,,
,,333581,001,2023-07-21_14h22.24.203,arm3_eps,2022.2.5,MacIntel,60.0024001,right,1,0.3,0.05,22,0.02682045,0.2835,278,0,278,0,1,,,,,
,,333581,001,2023-07-21_14h22.24.203,arm3_eps,2022.2.5,MacIntel,60.0024001,right,1,0.3,0.05,22,0.037342204,0.3526,279,0,279,0,1,,,,,
,,333581,001,2023-07-21_14h22.24.203,arm3_eps,2022.2.5,MacIntel,60.0024001,up,1,0.3,0.05,22,0,0.3175,280,0,280,0,1,,,,,
,,333581,001,2023-07-21_14h22.24.203,arm3_eps,2022.2.5,MacIntel,60.0024001,right,1,0.3,0.05,22,0.011339869,0.73,281,0,281,0,1,,,,,
,,333581,001,2023-07-21_14h22.24.203,arm3_eps,2022.2.5,MacIntel,60.0024001,right,1,0.3,0.05,22,0.017537421,0.2149,282,0,282,0,1,,,,,
,,333581,001,2023-07-21_14h22.24.203,arm3_eps,2022.2.5,MacIntel,60.0024001,right,1,0.3,0.05,22,0.057802047,0.2458,283,0,283,0,1,,,,,
,,333581,001,2023-07-21_14h22.24.203,arm3_eps,2022.2.5,MacIntel,60.0024001,right,1,0.3,0.05,22,0.069742706,0.2297,284,0,284,0,1,,,,,
,,333581,001,2023-07-21_14h22.24.203,arm3_eps,2022.2.5,MacIntel,60.0024001,right,1,0.3,0.05,22,0.068417731,0.9333,285,0,285,0,1,,,,,
,,333581,001,2023-07-21_14h22.24.203,arm3_eps,2022.2.5,MacIntel,60.0024001,up,1,0.3,0.05,22,0,0.6623,286,0,286,0,1,,,,,
,,333581,001,2023-07-21_14h22.24.203,arm3_eps,2022.2.5,MacIntel,60.0024001,right,1,0.3,0.05,22,-0.000618114,0.8991,287,0,287,0,1,,,,,
,,333581,001,2023-07-21_14h22.24.203,arm3_eps,2022.2.5,MacIntel,60.0024001,right,1,0.3,0.05,22,0.024772298,0.2345,288,0,288,0,1,,,,,
,,333581,001,2023-07-21_14h22.24.203,arm3_eps,2022.2.5,MacIntel,60.0024001,right,1,0.3,0.05,22,0.022396954,0.2315,289,0,289,0,1,,,,,
,,333581,001,2023-07-21_14h22.24.203,arm3_eps,2022.2.5,MacIntel,60.0024001,right,1,0.3,0.05,22,0.034581002,0.2234,290,0,290,0,1,,,,,
,,333581,001,2023-07-21_14h22.24.203,arm3_eps,2022.2.5,MacIntel,60.0024001,right,1,0.3,0.05,22,0.045563023,0.2675,291,0,291,0,1,,,,,
,,333581,001,2023-07-21_14h22.24.203,arm3_eps,2022.2.5,MacIntel,60.0024001,right,1,0.3,0.05,22,0.085524985,0.2816,292,0,292,0,1,,,,,
,,333581,001,2023-07-21_14h22.24.203,arm3_eps,2022.2.5,MacIntel,60.0024001,up,1,0.3,0.05,23,0,0.6143,293,0,293,0,1,,,,,
,,333581,001,2023-07-21_14h22.24.203,arm3_eps,2022.2.5,MacIntel,60.0024001,right,1,0.3,0.05,23,-0.040881053,0.8167,294,0,294,0,1,,,,,
,,333581,001,2023-07-21_14h22.24.203,arm3_eps,2022.2.5,MacIntel,60.0024001,right,1,0.3,0.05,23,-0.019244401,0.2456,295,0,295,0,1,,,,,
,,333581,001,2023-07-21_14h22.24.203,arm3_eps,2022.2.5,MacIntel,60.0024001,right,1,0.3,0.05,23,0.029259547,0.2283,296,0,296,0,1,,,,,
,,333581,001,2023-07-21_14h22.24.203,arm3_eps,2022.2.5,MacIntel,60.0024001,right,1,0.3,0.05,23,0.014114602,0.3883,297,0,297,0,1,,,,,
,,333581,001,2023-07-21_14h22.24.203,arm3_eps,2022.2.5,MacIntel,60.0024001,right,1,0.3,0.05,23,0.035432735,0.4995,298,0,298,0,1,,,,,
,,333581,001,2023-07-21_14h22.24.203,arm3_eps,2022.2.5,MacIntel,60.0024001,up,1,0.3,0.05,23,0,0.5176,299,0,299,0,1,,,,,
,,333581,001,2023-07-21_14h22.24.203,arm3_eps,2022.2.5,MacIntel,60.0024001,right,1,0.3,0.05,23,0.006165179,0.7825,300,0,300,0,1,,,,,
,,333581,001,2023-07-21_14h22.24.203,arm3_eps,2022.2.5,MacIntel,60.0024001,right,1,0.3,0.05,23,0.029021187,0.2287,301,0,301,0,1,,,,,
,,333581,001,2023-07-21_14h22.24.203,arm3_eps,2022.2.5,MacIntel,60.0024001,right,1,0.3,0.05,23,0.025206543,0.2493,302,0,302,0,1,,,,,
,,333581,001,2023-07-21_14h22.24.203,arm3_eps,2022.2.5,MacIntel,60.0024001,right,1,0.3,0.05,23,0.052903687,0.2337,303,0,303,0,1,,,,,
,,333581,001,2023-07-21_14h22.24.203,arm3_eps,2022.2.5,MacIntel,60.0024001,right,1,0.3,0.05,23,0.041917601,0.317,304,0,304,0,1,,,,,
,,333581,001,2023-07-21_14h22.24.203,arm3_eps,2022.2.5,MacIntel,60.0024001,right,1,0.3,0.05,23,0.016156404,0.2878,305,0,305,0,1,,,,,
,,333581,001,2023-07-21_14h22.24.203,arm3_eps,2022.2.5,MacIntel,60.0024001,right,1,0.3,0.05,23,0.054062219,0.5768,306,0,306,0,1,,,,,
,,333581,001,2023-07-21_14h22.24.203,arm3_eps,2022.2.5,MacIntel,60.0024001,up,-1,0.3,0.05,24,0,0.4026,307,0,307,0,1,,,,,
,,333581,001,2023-07-21_14h22.24.203,arm3_eps,2022.2.5,MacIntel,60.0024001,right,-1,0.3,0.05,24,0.005370848,0.9328,308,0,308,0,1,,,,,
,,333581,001,2023-07-21_14h22.24.203,arm3_eps,2022.2.5,MacIntel,60.0024001,right,-1,0.3,0.05,24,0.012131261,0.23,309,0,309,0,1,,,,,
,,333581,001,2023-07-21_14h22.24.203,arm3_eps,2022.2.5,MacIntel,60.0024001,right,-1,0.3,0.05,24,-0.023556074,0.2465,310,0,310,0,1,,,,,
,,333581,001,2023-07-21_14h22.24.203,arm3_eps,2022.2.5,MacIntel,60.0024001,right,-1,0.3,0.05,24,-0.056541417,0.2556,311,0,311,0,1,,,,,
,,333581,001,2023-07-21_14h22.24.203,arm3_eps,2022.2.5,MacIntel,60.0024001,right,-1,0.3,0.05,24,-0.044479316,0.3218,312,0,312,0,1,,,,,
,,333581,001,2023-07-21_14h22.24.203,arm3_eps,2022.2.5,MacIntel,60.0024001,down,-1,0.3,0.05,24,0,0.8477,313,0,313,0,1,,,,,
,,333581,001,2023-07-21_14h22.24.203,arm3_eps,2022.2.5,MacIntel,60.0024001,right,-1,0.3,0.05,24,0.007509035,0.8311,314,0,314,0,1,,,,,
,,333581,001,2023-07-21_14h22.24.203,arm3_eps,2022.2.5,MacIntel,60.0024001,right,-1,0.3,0.05,24,-0.019291992,0.1926,315,0,315,0,1,,,,,
,,333581,001,2023-07-21_14h22.24.203,arm3_eps,2022.2.5,MacIntel,60.0024001,right,-1,0.3,0.05,24,-0.01550531,0.2312,316,0,316,0,1,,,,,
,,333581,001,2023-07-21_14h22.24.203,arm3_eps,2022.2.5,MacIntel,60.0024001,right,-1,0.3,0.05,24,-0.02228708,0.2397,317,0,317,0,1,,,,,
,,333581,001,2023-07-21_14h22.24.203,arm3_eps,2022.2.5,MacIntel,60.0024001,right,-1,0.3,0.05,24,-0.020475644,0.238,318,0,318,0,1,,,,,
,,333581,001,2023-07-21_14h22.24.203,arm3_eps,2022.2.5,MacIntel,60.0024001,right,-1,0.3,0.05,24,-0.034021875,0.3344,319,0,319,0,1,,,,,
,,333581,001,2023-07-21_14h22.24.203,arm3_eps,2022.2.5,MacIntel,60.0024001,down,-1,0.3,0.05,24,0,0.297,320,0,320,0,1,,,,,
,,333581,001,2023-07-21_14h22.24.203,arm3_eps,2022.2.5,MacIntel,60.0024001,right,-1,0.3,0.05,24,-0.040000849,0.8828,321,0,321,0,1,,,,,
,,333581,001,2023-07-21_14h22.24.203,arm3_eps,2022.2.5,MacIntel,60.0024001,right,-1,0.3,0.05,24,-0.057622427,0.2141,322,0,322,0,1,,,,,
,,333581,001,2023-07-21_14h22.24.203,arm3_eps,2022.2.5,MacIntel,60.0024001,right,-1,0.3,0.05,24,-0.068411439,0.2315,323,0,323,0,1,,,,,
,,333581,001,2023-07-21_14h22.24.203,arm3_eps,2022.2.5,MacIntel,60.0024001,right,-1,0.3,0.05,24,-0.098873082,0.2535,324,0,324,0,1,,,,,
,,333581,001,2023-07-21_14h22.24.203,arm3_eps,2022.2.5,MacIntel,60.0024001,right,-1,0.3,0.05,24,-0.118917107,0.2998,325,0,325,0,1,,,,,
,,333581,001,2023-07-21_14h22.24.203,arm3_eps,2022.2.5,MacIntel,60.0024001,down,-1,0.3,0.05,25,0,0.5506,326,0,326,0,1,,,,,
,,333581,001,2023-07-21_14h22.24.203,arm3_eps,2022.2.5,MacIntel,60.0024001,right,-1,0.3,0.05,25,-0.00328679,0.6474,327,0,327,0,1,,,,,
,,333581,001,2023-07-21_14h22.24.203,arm3_eps,2022.2.5,MacIntel,60.0024001,right,-1,0.3,0.05,25,0.001691127,0.2469,328,0,328,0,1,,,,,
,,333581,001,2023-07-21_14h22.24.203,arm3_eps,2022.2.5,MacIntel,60.0024001,right,-1,0.3,0.05,25,-0.001405018,0.2649,329,0,329,0,1,,,,,
,,333581,001,2023-07-21_14h22.24.203,arm3_eps,2022.2.5,MacIntel,60.0024001,right,-1,0.3,0.05,25,-0.012283243,0.2657,330,0,330,0,1,,,,,
,,333581,001,2023-07-21_14h22.24.203,arm3_eps,2022.2.5,MacIntel,60.0024001,right,-1,0.3,0.05,25,-0.025160931,0.268,331,0,331,0,1,,,,,
,,333581,001,2023-07-21_14h22.24.203,arm3_eps,2022.2.5,MacIntel,60.0024001,right,-1,0.3,0.05,25,-0.058471299,0.468,332,0,332,0,1,,,,,
,,333581,001,2023-07-21_14h22.24.203,arm3_eps,2022.2.5,MacIntel,60.0024001,down,-1,0.3,0.05,25,0,0.7,333,0,333,0,1,,,,,
,,333581,001,2023-07-21_14h22.24.203,arm3_eps,2022.2.5,MacIntel,60.0024001,right,-1,0.3,0.05,25,-0.028466381,0.6624,334,0,334,0,1,,,,,
,,333581,001,2023-07-21_14h22.24.203,arm3_eps,2022.2.5,MacIntel,60.0024001,right,-1,0.3,0.05,25,-0.03624731,0.2351,335,0,335,0,1,,,,,
,,333581,001,2023-07-21_14h22.24.203,arm3_eps,2022.2.5,MacIntel,60.0024001,right,-1,0.3,0.05,25,-0.037358157,0.2666,336,0,336,0,1,,,,,
,,333581,001,2023-07-21_14h22.24.203,arm3_eps,2022.2.5,MacIntel,60.0024001,right,-1,0.3,0.05,25,-0.038125413,0.2513,337,0,337,0,1,,,,,
,,333581,001,2023-07-21_14h22.24.203,arm3_eps,2022.2.5,MacIntel,60.0024001,right,-1,0.3,0.05,25,-0.021843143,0.2843,338,0,338,0,1,,,,,
,,333581,001,2023-07-21_14h22.24.203,arm3_eps,2022.2.5,MacIntel,60.0024001,right,-1,0.3,0.05,25,-0.038866528,0.3166,339,0,339,0,1,,,,,
,,333581,001,2023-07-21_14h22.24.203,arm3_eps,2022.2.5,MacIntel,60.0024001,down,-1,0.3,0.05,26,0,0.6301,340,0,340,0,1,,,,,
,,333581,001,2023-07-21_14h22.24.203,arm3_eps,2022.2.5,MacIntel,60.0024001,right,-1,0.3,0.05,26,-0.000930566,0.8126,341,0,341,0,1,,,,,
,,333581,001,2023-07-21_14h22.24.203,arm3_eps,2022.2.5,MacIntel,60.0024001,right,-1,0.3,0.05,26,-0.005807601,0.2333,342,0,342,0,1,,,,,
,,333581,001,2023-07-21_14h22.24.203,arm3_eps,2022.2.5,MacIntel,60.0024001,right,-1,0.3,0.05,26,-0.022044103,0.2295,343,0,343,0,1,,,,,
,,333581,001,2023-07-21_14h22.24.203,arm3_eps,2022.2.5,MacIntel,60.0024001,right,-1,0.3,0.05,26,-0.044606267,0.2336,344,0,344,0,1,,,,,
,,333581,001,2023-07-21_14h22.24.203,arm3_eps,2022.2.5,MacIntel,60.0024001,right,-1,0.3,0.05,26,-0.049709651,0.2838,345,0,345,0,1,,,,,
,,333581,001,2023-07-21_14h22.24.203,arm3_eps,2022.2.5,MacIntel,60.0024001,right,-1,0.3,0.05,26,-0.057562584,0.8369,346,0,346,0,1,,,,,
,,333581,001,2023-07-21_14h22.24.203,arm3_eps,2022.2.5,MacIntel,60.0024001,right,-1,0.3,0.05,26,-0.047539728,1.1332,347,0,347,0,1,,,,,
,,333581,001,2023-07-21_14h22.24.203,arm3_eps,2022.2.5,MacIntel,60.0024001,right,-1,0.3,0.05,26,-0.064735886,0.5792,348,0,348,0,1,,,,,
,,333581,001,2023-07-21_14h22.24.203,arm3_eps,2022.2.5,MacIntel,60.0024001,right,-1,0.3,0.05,26,-0.043306318,0.6276,349,0,349,0,1,,,,,
,,333581,001,2023-07-21_14h22.24.203,arm3_eps,2022.2.5,MacIntel,60.0024001,down,1,0.3,0.05,27,0,0.5132,350,0,350,0,1,,,,,
,,333581,001,2023-07-21_14h22.24.203,arm3_eps,2022.2.5,MacIntel,60.0024001,right,1,0.3,0.05,27,0.018265742,0.9694,351,0,351,0,1,,,,,
,,333581,001,2023-07-21_14h22.24.203,arm3_eps,2022.2.5,MacIntel,60.0024001,right,1,0.3,0.05,27,0.009491297,0.4526,352,0,352,0,1,,,,,
,,333581,001,2023-07-21_14h22.24.203,arm3_eps,2022.2.5,MacIntel,60.0024001,right,1,0.3,0.05,27,0.018676025,0.3663,353,0,353,0,1,,,,,
,,333581,001,2023-07-21_14h22.24.203,arm3_eps,2022.2.5,MacIntel,60.0024001,right,1,0.3,0.05,27,0.012469075,0.361,354,0,354,0,1,,,,,
,,333581,001,2023-07-21_14h22.24.203,arm3_eps,2022.2.5,MacIntel,60.0024001,up,1,0.3,0.05,28,0,0.8324,355,0,355,0,1,,,,,
,,333581,001,2023-07-21_14h22.24.203,arm3_eps,2022.2.5,MacIntel,60.0024001,right,1,0.3,0.05,28,0.012226429,0.9969,356,0,356,0,1,,,,,
,,333581,001,2023-07-21_14h22.24.203,arm3_eps,2022.2.5,MacIntel,60.0024001,right,1,0.3,0.05,28,0.026878144,0.2988,357,0,357,0,1,,,,,
,,333581,001,2023-07-21_14h22.24.203,arm3_eps,2022.2.5,MacIntel,60.0024001,right,1,0.3,0.05,28,0.045147363,0.3961,358,0,358,0,1,,,,,
,,333581,001,2023-07-21_14h22.24.203,arm3_eps,2022.2.5,MacIntel,60.0024001,up,1,0.3,0.05,28,0,0.6508,359,0,359,0,1,,,,,
,,333581,001,2023-07-21_14h22.24.203,arm3_eps,2022.2.5,MacIntel,60.0024001,right,1,0.3,0.05,28,-0.026562598,1.1163,360,0,360,0,1,,,,,
,,333581,001,2023-07-21_14h22.24.203,arm3_eps,2022.2.5,MacIntel,60.0024001,right,1,0.3,0.05,28,-0.018374197,0.2676,361,0,361,0,1,,,,,
,,333581,001,2023-07-21_14h22.24.203,arm3_eps,2022.2.5,MacIntel,60.0024001,right,1,0.3,0.05,28,-0.030415494,1.0014,362,0,362,0,1,,,,,
,,333581,001,2023-07-21_14h22.24.203,arm3_eps,2022.2.5,MacIntel,60.0024001,right,1,0.3,0.05,28,-0.026562629,0.263,363,0,363,0,1,,,,,
,,333581,001,2023-07-21_14h22.24.203,arm3_eps,2022.2.5,MacIntel,60.0024001,right,1,0.3,0.05,28,-0.014692192,0.4277,364,0,364,0,1,,,,,
,,333581,001,2023-07-21_14h22.24.203,arm3_eps,2022.2.5,MacIntel,60.0024001,right,1,0.3,0.05,28,0.012174068,0.3313,365,0,365,0,1,,,,,
,,333581,001,2023-07-21_14h22.24.203,arm3_eps,2022.2.5,MacIntel,60.0024001,right,1,0.3,0.05,28,0.02027188,0.4,366,0,366,0,1,,,,,
,,333581,001,2023-07-21_14h22.24.203,arm3_eps,2022.2.5,MacIntel,60.0024001,right,1,0.3,0.05,28,0.020576869,0.4205,367,0,367,0,1,,,,,
,,333581,001,2023-07-21_14h22.24.203,arm3_eps,2022.2.5,MacIntel,60.0024001,right,1,0.3,0.05,28,0.059720303,0.4343,368,0,368,0,1,,,,,
,,333581,001,2023-07-21_14h22.24.203,arm3_eps,2022.2.5,MacIntel,60.0024001,up,1,0.3,0.05,28,0,0.4513,369,0,369,0,1,,,,,
