space_bar.keys,space_bar.rt,participant,session,date,expName,psychopyVersion,OS,frameRate,PROLIFIC_PID,STUDY_ID,SESSION_ID,resp.keys,state,q_prob,eps_prob,score,price,resp.rt,train.thisRepN,train.thisTrialN,train.thisN,train.thisIndex,train.ran,steps.thisRepN,steps.thisTrialN,steps.thisN,steps.thisIndex,steps.ran,blocks.thisRepN,blocks.thisTrialN,blocks.thisN,blocks.thisIndex,blocks.ran
space,17.822,361163,001,2023-07-24_21h07.50.983,arm3_eps,2022.2.5,Win32,59.98080614,603926bba0efdd351a1cd56f,64aea9d0f615b6559c281482,64becb9417a0666e721c6d80,,,,,,,,,,,,,,,,,,,,,,
space,14.8602,361163,001,2023-07-24_21h07.50.983,arm3_eps,2022.2.5,Win32,59.98080614,603926bba0efdd351a1cd56f,64aea9d0f615b6559c281482,64becb9417a0666e721c6d80,,,,,,,,,,,,,,,,,,,,,,
space,9.4446,361163,001,2023-07-24_21h07.50.983,arm3_eps,2022.2.5,Win32,59.98080614,603926bba0efdd351a1cd56f,64aea9d0f615b6559c281482,64becb9417a0666e721c6d80,,,,,,,,,,,,,,,,,,,,,,
space,16.4555,361163,001,2023-07-24_21h07.50.983,arm3_eps,2022.2.5,Win32,59.98080614,603926bba0efdd351a1cd56f,64aea9d0f615b6559c281482,64becb9417a0666e721c6d80,,,,,,,,,,,,,,,,,,,,,,
space,15.7875,361163,001,2023-07-24_21h07.50.983,arm3_eps,2022.2.5,Win32,59.98080614,603926bba0efdd351a1cd56f,64aea9d0f615b6559c281482,64becb9417a0666e721c6d80,,,,,,,,,,,,,,,,,,,,,,
space,17.8717,361163,001,2023-07-24_21h07.50.983,arm3_eps,2022.2.5,Win32,59.98080614,603926bba0efdd351a1cd56f,64aea9d0f615b6559c281482,64becb9417a0666e721c6d80,,,,,,,,,,,,,,,,,,,,,,
space,6.5369,361163,001,2023-07-24_21h07.50.983,arm3_eps,2022.2.5,Win32,59.98080614,603926bba0efdd351a1cd56f,64aea9d0f615b6559c281482,64becb9417a0666e721c6d80,,,,,,,,,,,,,,,,,,,,,,
space,19.1926,361163,001,2023-07-24_21h07.50.983,arm3_eps,2022.2.5,Win32,59.98080614,603926bba0efdd351a1cd56f,64aea9d0f615b6559c281482,64becb9417a0666e721c6d80,,,,,,,,,,,,,,,,,,,,,,
space,9.175,361163,001,2023-07-24_21h07.50.983,arm3_eps,2022.2.5,Win32,59.98080614,603926bba0efdd351a1cd56f,64aea9d0f615b6559c281482,64becb9417a0666e721c6d80,,,,,,,,,,,,,,,,,,,,,,
space,10.4634,361163,001,2023-07-24_21h07.50.983,arm3_eps,2022.2.5,Win32,59.98080614,603926bba0efdd351a1cd56f,64aea9d0f615b6559c281482,64becb9417a0666e721c6d80,,,,,,,,,,,,,,,,,,,,,,
,,361163,001,2023-07-24_21h07.50.983,arm3_eps,2022.2.5,Win32,59.98080614,603926bba0efdd351a1cd56f,64aea9d0f615b6559c281482,64becb9417a0666e721c6d80,right,-1,0.3,0.2429,0,-0.01119844,6.8989,0,0,0,0,1,,,,,,,,,,
,,361163,001,2023-07-24_21h07.50.983,arm3_eps,2022.2.5,Win32,59.98080614,603926bba0efdd351a1cd56f,64aea9d0f615b6559c281482,64becb9417a0666e721c6d80,down,1,0.3,0.2429,0,0,5.133,1,0,1,0,1,,,,,,,,,,
,,361163,001,2023-07-24_21h07.50.983,arm3_eps,2022.2.5,Win32,59.98080614,603926bba0efdd351a1cd56f,64aea9d0f615b6559c281482,64becb9417a0666e721c6d80,right,1,0.3,0.2429,0,-0.003755527,3.6094,2,0,2,0,1,,,,,,,,,,
,,361163,001,2023-07-24_21h07.50.983,arm3_eps,2022.2.5,Win32,59.98080614,603926bba0efdd351a1cd56f,64aea9d0f615b6559c281482,64becb9417a0666e721c6d80,right,1,0.3,0.2429,0,0.000431259,1.785,3,0,3,0,1,,,,,,,,,,
,,361163,001,2023-07-24_21h07.50.983,arm3_eps,2022.2.5,Win32,59.98080614,603926bba0efdd351a1cd56f,64aea9d0f615b6559c281482,64becb9417a0666e721c6d80,right,1,0.3,0.2429,0,0.019123404,1.4158,4,0,4,0,1,,,,,,,,,,
,,361163,001,2023-07-24_21h07.50.983,arm3_eps,2022.2.5,Win32,59.98080614,603926bba0efdd351a1cd56f,64aea9d0f615b6559c281482,64becb9417a0666e721c6d80,up,1,0.3,0.2429,0,0,1.1513,5,0,5,0,1,,,,,,,,,,
,,361163,001,2023-07-24_21h07.50.983,arm3_eps,2022.2.5,Win32,59.98080614,603926bba0efdd351a1cd56f,64aea9d0f615b6559c281482,64becb9417a0666e721c6d80,up,1,0.3,0.2429,1,0,3.717,6,0,6,0,1,,,,,,,,,,
,,361163,001,2023-07-24_21h07.50.983,arm3_eps,2022.2.5,Win32,59.98080614,603926bba0efdd351a1cd56f,64aea9d0f615b6559c281482,64becb9417a0666e721c6d80,down,1,0.3,0.2429,0,0,5.9628,7,0,7,0,1,,,,,,,,,,
,,361163,001,2023-07-24_21h07.50.983,arm3_eps,2022.2.5,Win32,59.98080614,603926bba0efdd351a1cd56f,64aea9d0f615b6559c281482,64becb9417a0666e721c6d80,right,1,0.3,0.2429,0,0.027916216,2.9376,8,0,8,0,1,,,,,,,,,,
,,361163,001,2023-07-24_21h07.50.983,arm3_eps,2022.2.5,Win32,59.98080614,603926bba0efdd351a1cd56f,64aea9d0f615b6559c281482,64becb9417a0666e721c6d80,down,-1,0.3,0.2429,-1,0,1.3001,9,0,9,0,1,,,,,,,,,,
,,361163,001,2023-07-24_21h07.50.983,arm3_eps,2022.2.5,Win32,59.98080614,603926bba0efdd351a1cd56f,64aea9d0f615b6559c281482,64becb9417a0666e721c6d80,down,1,0.3,0.2429,-1,0,1.9265,10,0,10,0,1,,,,,,,,,,
,,361163,001,2023-07-24_21h07.50.983,arm3_eps,2022.2.5,Win32,59.98080614,603926bba0efdd351a1cd56f,64aea9d0f615b6559c281482,64becb9417a0666e721c6d80,right,1,0.3,0.2429,-1,0.003526405,2.5283,11,0,11,0,1,,,,,,,,,,
,,361163,001,2023-07-24_21h07.50.983,arm3_eps,2022.2.5,Win32,59.98080614,603926bba0efdd351a1cd56f,64aea9d0f615b6559c281482,64becb9417a0666e721c6d80,down,-1,0.3,0.2429,-1,0,0.8426,12,0,12,0,1,,,,,,,,,,
,,361163,001,2023-07-24_21h07.50.983,arm3_eps,2022.2.5,Win32,59.98080614,603926bba0efdd351a1cd56f,64aea9d0f615b6559c281482,64becb9417a0666e721c6d80,right,-1,0.3,0.2429,-1,0.007269445,1.2801,13,0,13,0,1,,,,,,,,,,
,,361163,001,2023-07-24_21h07.50.983,arm3_eps,2022.2.5,Win32,59.98080614,603926bba0efdd351a1cd56f,64aea9d0f615b6559c281482,64becb9417a0666e721c6d80,down,-1,0.3,0.2429,-1,0,0.8199,14,0,14,0,1,,,,,,,,,,
,,361163,001,2023-07-24_21h07.50.983,arm3_eps,2022.2.5,Win32,59.98080614,603926bba0efdd351a1cd56f,64aea9d0f615b6559c281482,64becb9417a0666e721c6d80,down,-1,0.3,0.2429,-1,0,2.2581,15,0,15,0,1,,,,,,,,,,
,,361163,001,2023-07-24_21h07.50.983,arm3_eps,2022.2.5,Win32,59.98080614,603926bba0efdd351a1cd56f,64aea9d0f615b6559c281482,64becb9417a0666e721c6d80,down,-1,0.3,0.2429,-1,0,1.5029,16,0,16,0,1,,,,,,,,,,
,,361163,001,2023-07-24_21h07.50.983,arm3_eps,2022.2.5,Win32,59.98080614,603926bba0efdd351a1cd56f,64aea9d0f615b6559c281482,64becb9417a0666e721c6d80,right,-1,0.3,0.2429,-1,-0.004289089,1.1661,17,0,17,0,1,,,,,,,,,,
,,361163,001,2023-07-24_21h07.50.983,arm3_eps,2022.2.5,Win32,59.98080614,603926bba0efdd351a1cd56f,64aea9d0f615b6559c281482,64becb9417a0666e721c6d80,down,-1,0.3,0.2429,-1,0,0.5461,18,0,18,0,1,,,,,,,,,,
,,361163,001,2023-07-24_21h07.50.983,arm3_eps,2022.2.5,Win32,59.98080614,603926bba0efdd351a1cd56f,64aea9d0f615b6559c281482,64becb9417a0666e721c6d80,down,-1,0.3,0.2429,0,0,2.8913,19,0,19,0,1,,,,,,,,,,
,,361163,001,2023-07-24_21h07.50.983,arm3_eps,2022.2.5,Win32,59.98080614,603926bba0efdd351a1cd56f,64aea9d0f615b6559c281482,64becb9417a0666e721c6d80,right,-1,0.3,0.2429,0,-0.011272258,1.9667,20,0,20,0,1,,,,,,,,,,
,,361163,001,2023-07-24_21h07.50.983,arm3_eps,2022.2.5,Win32,59.98080614,603926bba0efdd351a1cd56f,64aea9d0f615b6559c281482,64becb9417a0666e721c6d80,down,-1,0.3,0.2429,1,0,0.7995,21,0,21,0,1,,,,,,,,,,
,,361163,001,2023-07-24_21h07.50.983,arm3_eps,2022.2.5,Win32,59.98080614,603926bba0efdd351a1cd56f,64aea9d0f615b6559c281482,64becb9417a0666e721c6d80,right,-1,0.3,0.2429,1,-0.024349951,2.5835,22,0,22,0,1,,,,,,,,,,
,,361163,001,2023-07-24_21h07.50.983,arm3_eps,2022.2.5,Win32,59.98080614,603926bba0efdd351a1cd56f,64aea9d0f615b6559c281482,64becb9417a0666e721c6d80,up,-1,0.3,0.2429,1,0,1.7096,23,0,23,0,1,,,,,,,,,,
,,361163,001,2023-07-24_21h07.50.983,arm3_eps,2022.2.5,Win32,59.98080614,603926bba0efdd351a1cd56f,64aea9d0f615b6559c281482,64becb9417a0666e721c6d80,right,-1,0.3,0.2429,1,-0.015971723,1.4168,24,0,24,0,1,,,,,,,,,,
,,361163,001,2023-07-24_21h07.50.983,arm3_eps,2022.2.5,Win32,59.98080614,603926bba0efdd351a1cd56f,64aea9d0f615b6559c281482,64becb9417a0666e721c6d80,down,-1,0.3,0.2429,1,0,0.7996,25,0,25,0,1,,,,,,,,,,
,,361163,001,2023-07-24_21h07.50.983,arm3_eps,2022.2.5,Win32,59.98080614,603926bba0efdd351a1cd56f,64aea9d0f615b6559c281482,64becb9417a0666e721c6d80,right,-1,0.3,0.2429,1,-0.029848461,1.0056,26,0,26,0,1,,,,,,,,,,
,,361163,001,2023-07-24_21h07.50.983,arm3_eps,2022.2.5,Win32,59.98080614,603926bba0efdd351a1cd56f,64aea9d0f615b6559c281482,64becb9417a0666e721c6d80,down,-1,0.3,0.2429,1,0,1.1002,27,0,27,0,1,,,,,,,,,,
,,361163,001,2023-07-24_21h07.50.983,arm3_eps,2022.2.5,Win32,59.98080614,603926bba0efdd351a1cd56f,64aea9d0f615b6559c281482,64becb9417a0666e721c6d80,right,-1,0.3,0.2429,1,-0.003271371,0.9271,28,0,28,0,1,,,,,,,,,,
,,361163,001,2023-07-24_21h07.50.983,arm3_eps,2022.2.5,Win32,59.98080614,603926bba0efdd351a1cd56f,64aea9d0f615b6559c281482,64becb9417a0666e721c6d80,down,-1,0.3,0.2429,1,0,1.0169,29,0,29,0,1,,,,,,,,,,
,,361163,001,2023-07-24_21h07.50.983,arm3_eps,2022.2.5,Win32,59.98080614,603926bba0efdd351a1cd56f,64aea9d0f615b6559c281482,64becb9417a0666e721c6d80,right,-1,0.3,0.2429,1,0.004108139,0.967,30,0,30,0,1,,,,,,,,,,
,,361163,001,2023-07-24_21h07.50.983,arm3_eps,2022.2.5,Win32,59.98080614,603926bba0efdd351a1cd56f,64aea9d0f615b6559c281482,64becb9417a0666e721c6d80,up,-1,0.3,0.2429,1,0,0.9671,31,0,31,0,1,,,,,,,,,,
,,361163,001,2023-07-24_21h07.50.983,arm3_eps,2022.2.5,Win32,59.98080614,603926bba0efdd351a1cd56f,64aea9d0f615b6559c281482,64becb9417a0666e721c6d80,down,1,0.3,0.2429,2,0,1.4471,32,0,32,0,1,,,,,,,,,,
,,361163,001,2023-07-24_21h07.50.983,arm3_eps,2022.2.5,Win32,59.98080614,603926bba0efdd351a1cd56f,64aea9d0f615b6559c281482,64becb9417a0666e721c6d80,down,1,0.3,0.2429,2,0,1.5564,33,0,33,0,1,,,,,,,,,,
,,361163,001,2023-07-24_21h07.50.983,arm3_eps,2022.2.5,Win32,59.98080614,603926bba0efdd351a1cd56f,64aea9d0f615b6559c281482,64becb9417a0666e721c6d80,down,1,0.3,0.2429,2,0,1.4532,34,0,34,0,1,,,,,,,,,,
,,361163,001,2023-07-24_21h07.50.983,arm3_eps,2022.2.5,Win32,59.98080614,603926bba0efdd351a1cd56f,64aea9d0f615b6559c281482,64becb9417a0666e721c6d80,up,1,0.3,0.2429,2,0,1.2177,35,0,35,0,1,,,,,,,,,,
,,361163,001,2023-07-24_21h07.50.983,arm3_eps,2022.2.5,Win32,59.98080614,603926bba0efdd351a1cd56f,64aea9d0f615b6559c281482,64becb9417a0666e721c6d80,up,-1,0.3,0.2429,2,0,1.1439,36,0,36,0,1,,,,,,,,,,
,,361163,001,2023-07-24_21h07.50.983,arm3_eps,2022.2.5,Win32,59.98080614,603926bba0efdd351a1cd56f,64aea9d0f615b6559c281482,64becb9417a0666e721c6d80,down,-1,0.3,0.2429,2,0,1.3612,37,0,37,0,1,,,,,,,,,,
,,361163,001,2023-07-24_21h07.50.983,arm3_eps,2022.2.5,Win32,59.98080614,603926bba0efdd351a1cd56f,64aea9d0f615b6559c281482,64becb9417a0666e721c6d80,up,-1,0.3,0.2429,1,0,1.106,38,0,38,0,1,,,,,,,,,,
,,361163,001,2023-07-24_21h07.50.983,arm3_eps,2022.2.5,Win32,59.98080614,603926bba0efdd351a1cd56f,64aea9d0f615b6559c281482,64becb9417a0666e721c6d80,up,-1,0.3,0.2429,0,0,1.6607,39,0,39,0,1,,,,,,,,,,
,,361163,001,2023-07-24_21h07.50.983,arm3_eps,2022.2.5,Win32,59.98080614,603926bba0efdd351a1cd56f,64aea9d0f615b6559c281482,64becb9417a0666e721c6d80,up,1,0.3,0.2429,-1,0,1.2893,40,0,40,0,1,,,,,,,,,,
,,361163,001,2023-07-24_21h07.50.983,arm3_eps,2022.2.5,Win32,59.98080614,603926bba0efdd351a1cd56f,64aea9d0f615b6559c281482,64becb9417a0666e721c6d80,up,1,0.3,0.2429,-1,0,1.4207,41,0,41,0,1,,,,,,,,,,
,,361163,001,2023-07-24_21h07.50.983,arm3_eps,2022.2.5,Win32,59.98080614,603926bba0efdd351a1cd56f,64aea9d0f615b6559c281482,64becb9417a0666e721c6d80,down,1,0.3,0.2429,-2,0,1.2441,42,0,42,0,1,,,,,,,,,,
,,361163,001,2023-07-24_21h07.50.983,arm3_eps,2022.2.5,Win32,59.98080614,603926bba0efdd351a1cd56f,64aea9d0f615b6559c281482,64becb9417a0666e721c6d80,up,-1,0.3,0.2429,-1,0,2.0176,43,0,43,0,1,,,,,,,,,,
,,361163,001,2023-07-24_21h07.50.983,arm3_eps,2022.2.5,Win32,59.98080614,603926bba0efdd351a1cd56f,64aea9d0f615b6559c281482,64becb9417a0666e721c6d80,down,-1,0.3,0.2429,-1,0,2.1116,44,0,44,0,1,,,,,,,,,,
,,361163,001,2023-07-24_21h07.50.983,arm3_eps,2022.2.5,Win32,59.98080614,603926bba0efdd351a1cd56f,64aea9d0f615b6559c281482,64becb9417a0666e721c6d80,down,1,0.3,0.2429,-1,0,1.6168,45,0,45,0,1,,,,,,,,,,
,,361163,001,2023-07-24_21h07.50.983,arm3_eps,2022.2.5,Win32,59.98080614,603926bba0efdd351a1cd56f,64aea9d0f615b6559c281482,64becb9417a0666e721c6d80,up,1,0.3,0.2429,-1,0,1.2395,46,0,46,0,1,,,,,,,,,,
,,361163,001,2023-07-24_21h07.50.983,arm3_eps,2022.2.5,Win32,59.98080614,603926bba0efdd351a1cd56f,64aea9d0f615b6559c281482,64becb9417a0666e721c6d80,up,1,0.3,0.2429,-1,0,1.1169,47,0,47,0,1,,,,,,,,,,
,,361163,001,2023-07-24_21h07.50.983,arm3_eps,2022.2.5,Win32,59.98080614,603926bba0efdd351a1cd56f,64aea9d0f615b6559c281482,64becb9417a0666e721c6d80,down,1,0.3,0.2429,-2,0,1.9335,48,0,48,0,1,,,,,,,,,,
,,361163,001,2023-07-24_21h07.50.983,arm3_eps,2022.2.5,Win32,59.98080614,603926bba0efdd351a1cd56f,64aea9d0f615b6559c281482,64becb9417a0666e721c6d80,up,1,0.3,0.2429,-2,0,1.1127,49,0,49,0,1,,,,,,,,,,
space,1.7794,361163,001,2023-07-24_21h07.50.983,arm3_eps,2022.2.5,Win32,59.98080614,603926bba0efdd351a1cd56f,64aea9d0f615b6559c281482,64becb9417a0666e721c6d80,,,,,,,,,,,,,,,,,,,,,,
space,4.4999,361163,001,2023-07-24_21h07.50.983,arm3_eps,2022.2.5,Win32,59.98080614,603926bba0efdd351a1cd56f,64aea9d0f615b6559c281482,64becb9417a0666e721c6d80,right,1,0.3,0.3071,0,0.045031575,5.0698,,,,,,0,0,0,0,1,,,,,
,,361163,001,2023-07-24_21h07.50.983,arm3_eps,2022.2.5,Win32,59.98080614,603926bba0efdd351a1cd56f,64aea9d0f615b6559c281482,64becb9417a0666e721c6d80,right,1,0.3,0.3071,0,0.068368959,2.6023,,,,,,1,0,1,0,1,,,,,
,,361163,001,2023-07-24_21h07.50.983,arm3_eps,2022.2.5,Win32,59.98080614,603926bba0efdd351a1cd56f,64aea9d0f615b6559c281482,64becb9417a0666e721c6d80,up,1,0.3,0.3071,0,0,0.8501,,,,,,2,0,2,0,1,,,,,
,,361163,001,2023-07-24_21h07.50.983,arm3_eps,2022.2.5,Win32,59.98080614,603926bba0efdd351a1cd56f,64aea9d0f615b6559c281482,64becb9417a0666e721c6d80,right,1,0.3,0.3071,0,0.019509275,1.2616,,,,,,3,0,3,0,1,,,,,
,,361163,001,2023-07-24_21h07.50.983,arm3_eps,2022.2.5,Win32,59.98080614,603926bba0efdd351a1cd56f,64aea9d0f615b6559c281482,64becb9417a0666e721c6d80,down,1,0.3,0.3071,0,0,1.0185,,,,,,4,0,4,0,1,,,,,
,,361163,001,2023-07-24_21h07.50.983,arm3_eps,2022.2.5,Win32,59.98080614,603926bba0efdd351a1cd56f,64aea9d0f615b6559c281482,64becb9417a0666e721c6d80,right,1,0.3,0.3071,0,0.006284783,1.6084,,,,,,5,0,5,0,1,,,,,
,,361163,001,2023-07-24_21h07.50.983,arm3_eps,2022.2.5,Win32,59.98080614,603926bba0efdd351a1cd56f,64aea9d0f615b6559c281482,64becb9417a0666e721c6d80,down,1,0.3,0.3071,0,0,0.943,,,,,,6,0,6,0,1,,,,,
,,361163,001,2023-07-24_21h07.50.983,arm3_eps,2022.2.5,Win32,59.98080614,603926bba0efdd351a1cd56f,64aea9d0f615b6559c281482,64becb9417a0666e721c6d80,right,1,0.3,0.3071,0,-0.007704479,0.8662,,,,,,7,0,7,0,1,,,,,
,,361163,001,2023-07-24_21h07.50.983,arm3_eps,2022.2.5,Win32,59.98080614,603926bba0efdd351a1cd56f,64aea9d0f615b6559c281482,64becb9417a0666e721c6d80,up,1,0.3,0.3071,0,0,0.709,,,,,,8,0,8,0,1,,,,,
,,361163,001,2023-07-24_21h07.50.983,arm3_eps,2022.2.5,Win32,59.98080614,603926bba0efdd351a1cd56f,64aea9d0f615b6559c281482,64becb9417a0666e721c6d80,right,1,0.3,0.3071,0,0.021801962,0.7117,,,,,,9,0,9,0,1,,,,,
,,361163,001,2023-07-24_21h07.50.983,arm3_eps,2022.2.5,Win32,59.98080614,603926bba0efdd351a1cd56f,64aea9d0f615b6559c281482,64becb9417a0666e721c6d80,right,1,0.3,0.3071,0,0.030489023,0.5301,,,,,,10,0,10,0,1,,,,,
,,361163,001,2023-07-24_21h07.50.983,arm3_eps,2022.2.5,Win32,59.98080614,603926bba0efdd351a1cd56f,64aea9d0f615b6559c281482,64becb9417a0666e721c6d80,up,1,0.3,0.3071,0,0,0.7645,,,,,,11,0,11,0,1,,,,,
,,361163,001,2023-07-24_21h07.50.983,arm3_eps,2022.2.5,Win32,59.98080614,603926bba0efdd351a1cd56f,64aea9d0f615b6559c281482,64becb9417a0666e721c6d80,right,1,0.3,0.3071,0,0.016527342,0.9412,,,,,,12,0,12,0,1,,,,,
,,361163,001,2023-07-24_21h07.50.983,arm3_eps,2022.2.5,Win32,59.98080614,603926bba0efdd351a1cd56f,64aea9d0f615b6559c281482,64becb9417a0666e721c6d80,up,1,0.3,0.3071,0,0,0.6544,,,,,,13,0,13,0,1,,,,,
,,361163,001,2023-07-24_21h07.50.983,arm3_eps,2022.2.5,Win32,59.98080614,603926bba0efdd351a1cd56f,64aea9d0f615b6559c281482,64becb9417a0666e721c6d80,right,1,0.3,0.3071,0,-0.006019287,0.7392,,,,,,14,0,14,0,1,,,,,
,,361163,001,2023-07-24_21h07.50.983,arm3_eps,2022.2.5,Win32,59.98080614,603926bba0efdd351a1cd56f,64aea9d0f615b6559c281482,64becb9417a0666e721c6d80,down,-1,0.3,0.3071,0,0,1.4004,,,,,,15,0,15,0,1,,,,,
,,361163,001,2023-07-24_21h07.50.983,arm3_eps,2022.2.5,Win32,59.98080614,603926bba0efdd351a1cd56f,64aea9d0f615b6559c281482,64becb9417a0666e721c6d80,right,-1,0.3,0.3071,0,-0.027631362,0.6838,,,,,,16,0,16,0,1,,,,,
,,361163,001,2023-07-24_21h07.50.983,arm3_eps,2022.2.5,Win32,59.98080614,603926bba0efdd351a1cd56f,64aea9d0f615b6559c281482,64becb9417a0666e721c6d80,down,1,0.3,0.3071,1,0,1.7512,,,,,,17,0,17,0,1,,,,,
,,361163,001,2023-07-24_21h07.50.983,arm3_eps,2022.2.5,Win32,59.98080614,603926bba0efdd351a1cd56f,64aea9d0f615b6559c281482,64becb9417a0666e721c6d80,right,1,0.3,0.3071,1,0.034127948,0.8878,,,,,,18,0,18,0,1,,,,,
,,361163,001,2023-07-24_21h07.50.983,arm3_eps,2022.2.5,Win32,59.98080614,603926bba0efdd351a1cd56f,64aea9d0f615b6559c281482,64becb9417a0666e721c6d80,up,1,0.3,0.3071,1,0,0.7312,,,,,,19,0,19,0,1,,,,,
,,361163,001,2023-07-24_21h07.50.983,arm3_eps,2022.2.5,Win32,59.98080614,603926bba0efdd351a1cd56f,64aea9d0f615b6559c281482,64becb9417a0666e721c6d80,right,1,0.3,0.3071,1,0.021205231,0.7668,,,,,,20,0,20,0,1,,,,,
,,361163,001,2023-07-24_21h07.50.983,arm3_eps,2022.2.5,Win32,59.98080614,603926bba0efdd351a1cd56f,64aea9d0f615b6559c281482,64becb9417a0666e721c6d80,up,-1,0.3,0.3071,1,0,0.7669,,,,,,21,0,21,0,1,,,,,
,,361163,001,2023-07-24_21h07.50.983,arm3_eps,2022.2.5,Win32,59.98080614,603926bba0efdd351a1cd56f,64aea9d0f615b6559c281482,64becb9417a0666e721c6d80,right,-1,0.3,0.3071,1,-0.014054394,0.7012,,,,,,22,0,22,0,1,,,,,
,,361163,001,2023-07-24_21h07.50.983,arm3_eps,2022.2.5,Win32,59.98080614,603926bba0efdd351a1cd56f,64aea9d0f615b6559c281482,64becb9417a0666e721c6d80,down,1,0.3,0.3071,1,0,0.76,,,,,,23,0,23,0,1,,,,,
,,361163,001,2023-07-24_21h07.50.983,arm3_eps,2022.2.5,Win32,59.98080614,603926bba0efdd351a1cd56f,64aea9d0f615b6559c281482,64becb9417a0666e721c6d80,right,1,0.3,0.3071,1,0.028791119,0.7766,,,,,,24,0,24,0,1,,,,,
,,361163,001,2023-07-24_21h07.50.983,arm3_eps,2022.2.5,Win32,59.98080614,603926bba0efdd351a1cd56f,64aea9d0f615b6559c281482,64becb9417a0666e721c6d80,right,1,0.3,0.3071,1,0.041777088,0.4806,,,,,,25,0,25,0,1,,,,,
,,361163,001,2023-07-24_21h07.50.983,arm3_eps,2022.2.5,Win32,59.98080614,603926bba0efdd351a1cd56f,64aea9d0f615b6559c281482,64becb9417a0666e721c6d80,up,1,0.3,0.3071,1,0,0.5667,,,,,,26,0,26,0,1,,,,,
,,361163,001,2023-07-24_21h07.50.983,arm3_eps,2022.2.5,Win32,59.98080614,603926bba0efdd351a1cd56f,64aea9d0f615b6559c281482,64becb9417a0666e721c6d80,right,1,0.3,0.3071,1,0.043460109,0.8168,,,,,,27,0,27,0,1,,,,,
,,361163,001,2023-07-24_21h07.50.983,arm3_eps,2022.2.5,Win32,59.98080614,603926bba0efdd351a1cd56f,64aea9d0f615b6559c281482,64becb9417a0666e721c6d80,right,1,0.3,0.3071,1,0.02830521,1.1712,,,,,,28,0,28,0,1,,,,,
,,361163,001,2023-07-24_21h07.50.983,arm3_eps,2022.2.5,Win32,59.98080614,603926bba0efdd351a1cd56f,64aea9d0f615b6559c281482,64becb9417a0666e721c6d80,up,1,0.3,0.3071,1,0,0.7501,,,,,,29,0,29,0,1,,,,,
,,361163,001,2023-07-24_21h07.50.983,arm3_eps,2022.2.5,Win32,59.98080614,603926bba0efdd351a1cd56f,64aea9d0f615b6559c281482,64becb9417a0666e721c6d80,right,1,0.3,0.3071,1,-0.005756429,0.8447,,,,,,30,0,30,0,1,,,,,
,,361163,001,2023-07-24_21h07.50.983,arm3_eps,2022.2.5,Win32,59.98080614,603926bba0efdd351a1cd56f,64aea9d0f615b6559c281482,64becb9417a0666e721c6d80,down,1,0.3,0.3071,1,0,0.522,,,,,,31,0,31,0,1,,,,,
,,361163,001,2023-07-24_21h07.50.983,arm3_eps,2022.2.5,Win32,59.98080614,603926bba0efdd351a1cd56f,64aea9d0f615b6559c281482,64becb9417a0666e721c6d80,right,1,0.3,0.3071,1,-0.008351163,1.2599,,,,,,32,0,32,0,1,,,,,
,,361163,001,2023-07-24_21h07.50.983,arm3_eps,2022.2.5,Win32,59.98080614,603926bba0efdd351a1cd56f,64aea9d0f615b6559c281482,64becb9417a0666e721c6d80,up,1,0.3,0.3071,1,0,0.6806,,,,,,33,0,33,0,1,,,,,
,,361163,001,2023-07-24_21h07.50.983,arm3_eps,2022.2.5,Win32,59.98080614,603926bba0efdd351a1cd56f,64aea9d0f615b6559c281482,64becb9417a0666e721c6d80,right,1,0.3,0.3071,1,0.006334262,0.8448,,,,,,34,0,34,0,1,,,,,
,,361163,001,2023-07-24_21h07.50.983,arm3_eps,2022.2.5,Win32,59.98080614,603926bba0efdd351a1cd56f,64aea9d0f615b6559c281482,64becb9417a0666e721c6d80,down,1,0.3,0.3071,1,0,0.4835,,,,,,35,0,35,0,1,,,,,
,,361163,001,2023-07-24_21h07.50.983,arm3_eps,2022.2.5,Win32,59.98080614,603926bba0efdd351a1cd56f,64aea9d0f615b6559c281482,64becb9417a0666e721c6d80,right,1,0.3,0.3071,1,0.032742071,0.8003,,,,,,36,0,36,0,1,,,,,
,,361163,001,2023-07-24_21h07.50.983,arm3_eps,2022.2.5,Win32,59.98080614,603926bba0efdd351a1cd56f,64aea9d0f615b6559c281482,64becb9417a0666e721c6d80,down,-1,0.3,0.3071,0,0,0.7247,,,,,,37,0,37,0,1,,,,,
,,361163,001,2023-07-24_21h07.50.983,arm3_eps,2022.2.5,Win32,59.98080614,603926bba0efdd351a1cd56f,64aea9d0f615b6559c281482,64becb9417a0666e721c6d80,right,-1,0.3,0.3071,0,-0.028857725,1.0467,,,,,,38,0,38,0,1,,,,,
,,361163,001,2023-07-24_21h07.50.983,arm3_eps,2022.2.5,Win32,59.98080614,603926bba0efdd351a1cd56f,64aea9d0f615b6559c281482,64becb9417a0666e721c6d80,down,1,0.3,0.3071,1,0,0.6059,,,,,,39,0,39,0,1,,,,,
,,361163,001,2023-07-24_21h07.50.983,arm3_eps,2022.2.5,Win32,59.98080614,603926bba0efdd351a1cd56f,64aea9d0f615b6559c281482,64becb9417a0666e721c6d80,up,-1,0.3,0.3071,2,0,1.9005,,,,,,40,0,40,0,1,,,,,
,,361163,001,2023-07-24_21h07.50.983,arm3_eps,2022.2.5,Win32,59.98080614,603926bba0efdd351a1cd56f,64aea9d0f615b6559c281482,64becb9417a0666e721c6d80,right,-1,0.3,0.3071,2,-0.002779704,1.4071,,,,,,41,0,41,0,1,,,,,
,,361163,001,2023-07-24_21h07.50.983,arm3_eps,2022.2.5,Win32,59.98080614,603926bba0efdd351a1cd56f,64aea9d0f615b6559c281482,64becb9417a0666e721c6d80,up,1,0.3,0.3071,2,0,0.5578,,,,,,42,0,42,0,1,,,,,
,,361163,001,2023-07-24_21h07.50.983,arm3_eps,2022.2.5,Win32,59.98080614,603926bba0efdd351a1cd56f,64aea9d0f615b6559c281482,64becb9417a0666e721c6d80,right,1,0.3,0.3071,2,-0.024019283,0.8785,,,,,,43,0,43,0,1,,,,,
,,361163,001,2023-07-24_21h07.50.983,arm3_eps,2022.2.5,Win32,59.98080614,603926bba0efdd351a1cd56f,64aea9d0f615b6559c281482,64becb9417a0666e721c6d80,down,1,0.3,0.3071,2,0,0.4502,,,,,,44,0,44,0,1,,,,,
,,361163,001,2023-07-24_21h07.50.983,arm3_eps,2022.2.5,Win32,59.98080614,603926bba0efdd351a1cd56f,64aea9d0f615b6559c281482,64becb9417a0666e721c6d80,up,-1,0.3,0.3071,2,0,1.6298,,,,,,45,0,45,0,1,,,,,
,,361163,001,2023-07-24_21h07.50.983,arm3_eps,2022.2.5,Win32,59.98080614,603926bba0efdd351a1cd56f,64aea9d0f615b6559c281482,64becb9417a0666e721c6d80,down,-1,0.3,0.3071,2,0,0.8357,,,,,,46,0,46,0,1,,,,,
,,361163,001,2023-07-24_21h07.50.983,arm3_eps,2022.2.5,Win32,59.98080614,603926bba0efdd351a1cd56f,64aea9d0f615b6559c281482,64becb9417a0666e721c6d80,down,1,0.3,0.3071,2,0,1.0813,,,,,,47,0,47,0,1,,,,,
,,361163,001,2023-07-24_21h07.50.983,arm3_eps,2022.2.5,Win32,59.98080614,603926bba0efdd351a1cd56f,64aea9d0f615b6559c281482,64becb9417a0666e721c6d80,up,1,0.3,0.3071,3,0,1.0852,,,,,,48,0,48,0,1,,,,,
,,361163,001,2023-07-24_21h07.50.983,arm3_eps,2022.2.5,Win32,59.98080614,603926bba0efdd351a1cd56f,64aea9d0f615b6559c281482,64becb9417a0666e721c6d80,up,1,0.3,0.3071,3,0,1.5502,,,,,,49,0,49,0,1,,,,,
,,361163,001,2023-07-24_21h07.50.983,arm3_eps,2022.2.5,Win32,59.98080614,603926bba0efdd351a1cd56f,64aea9d0f615b6559c281482,64becb9417a0666e721c6d80,right,1,0.3,0.3071,3,0.00737734,0.8896,,,,,,50,0,50,0,1,,,,,
,,361163,001,2023-07-24_21h07.50.983,arm3_eps,2022.2.5,Win32,59.98080614,603926bba0efdd351a1cd56f,64aea9d0f615b6559c281482,64becb9417a0666e721c6d80,up,1,0.3,0.3071,4,0,0.541,,,,,,51,0,51,0,1,,,,,
,,361163,001,2023-07-24_21h07.50.983,arm3_eps,2022.2.5,Win32,59.98080614,603926bba0efdd351a1cd56f,64aea9d0f615b6559c281482,64becb9417a0666e721c6d80,right,1,0.3,0.3071,4,0.016489962,1.3835,,,,,,52,0,52,0,1,,,,,
,,361163,001,2023-07-24_21h07.50.983,arm3_eps,2022.2.5,Win32,59.98080614,603926bba0efdd351a1cd56f,64aea9d0f615b6559c281482,64becb9417a0666e721c6d80,up,1,0.3,0.3071,5,0,0.9502,,,,,,53,0,53,0,1,,,,,
,,361163,001,2023-07-24_21h07.50.983,arm3_eps,2022.2.5,Win32,59.98080614,603926bba0efdd351a1cd56f,64aea9d0f615b6559c281482,64becb9417a0666e721c6d80,right,1,0.3,0.3071,5,0.047953922,1.8625,,,,,,54,0,54,0,1,,,,,
,,361163,001,2023-07-24_21h07.50.983,arm3_eps,2022.2.5,Win32,59.98080614,603926bba0efdd351a1cd56f,64aea9d0f615b6559c281482,64becb9417a0666e721c6d80,up,1,0.3,0.3071,6,0,0.5951,,,,,,55,0,55,0,1,,,,,
,,361163,001,2023-07-24_21h07.50.983,arm3_eps,2022.2.5,Win32,59.98080614,603926bba0efdd351a1cd56f,64aea9d0f615b6559c281482,64becb9417a0666e721c6d80,right,1,0.3,0.3071,6,-0.030824906,0.9785,,,,,,56,0,56,0,1,,,,,
,,361163,001,2023-07-24_21h07.50.983,arm3_eps,2022.2.5,Win32,59.98080614,603926bba0efdd351a1cd56f,64aea9d0f615b6559c281482,64becb9417a0666e721c6d80,down,-1,0.3,0.3071,5,0,0.4829,,,,,,57,0,57,0,1,,,,,
,,361163,001,2023-07-24_21h07.50.983,arm3_eps,2022.2.5,Win32,59.98080614,603926bba0efdd351a1cd56f,64aea9d0f615b6559c281482,64becb9417a0666e721c6d80,right,-1,0.3,0.3071,5,-0.009646146,2.3746,,,,,,58,0,58,0,1,,,,,
,,361163,001,2023-07-24_21h07.50.983,arm3_eps,2022.2.5,Win32,59.98080614,603926bba0efdd351a1cd56f,64aea9d0f615b6559c281482,64becb9417a0666e721c6d80,down,-1,0.3,0.3071,5,0,0.5904,,,,,,59,0,59,0,1,,,,,
,,361163,001,2023-07-24_21h07.50.983,arm3_eps,2022.2.5,Win32,59.98080614,603926bba0efdd351a1cd56f,64aea9d0f615b6559c281482,64becb9417a0666e721c6d80,down,-1,0.3,0.3071,5,0,1.5001,,,,,,60,0,60,0,1,,,,,
,,361163,001,2023-07-24_21h07.50.983,arm3_eps,2022.2.5,Win32,59.98080614,603926bba0efdd351a1cd56f,64aea9d0f615b6559c281482,64becb9417a0666e721c6d80,up,-1,0.3,0.3071,5,0,1.1532,,,,,,61,0,61,0,1,,,,,
,,361163,001,2023-07-24_21h07.50.983,arm3_eps,2022.2.5,Win32,59.98080614,603926bba0efdd351a1cd56f,64aea9d0f615b6559c281482,64becb9417a0666e721c6d80,down,-1,0.3,0.3071,5,0,1.1781,,,,,,62,0,62,0,1,,,,,
,,361163,001,2023-07-24_21h07.50.983,arm3_eps,2022.2.5,Win32,59.98080614,603926bba0efdd351a1cd56f,64aea9d0f615b6559c281482,64becb9417a0666e721c6d80,down,-1,0.3,0.3071,5,0,1.1381,,,,,,63,0,63,0,1,,,,,
,,361163,001,2023-07-24_21h07.50.983,arm3_eps,2022.2.5,Win32,59.98080614,603926bba0efdd351a1cd56f,64aea9d0f615b6559c281482,64becb9417a0666e721c6d80,down,-1,0.3,0.3071,5,0,1.0593,,,,,,64,0,64,0,1,,,,,
,,361163,001,2023-07-24_21h07.50.983,arm3_eps,2022.2.5,Win32,59.98080614,603926bba0efdd351a1cd56f,64aea9d0f615b6559c281482,64becb9417a0666e721c6d80,right,-1,0.3,0.3071,5,-0.00245491,1.296,,,,,,65,0,65,0,1,,,,,
,,361163,001,2023-07-24_21h07.50.983,arm3_eps,2022.2.5,Win32,59.98080614,603926bba0efdd351a1cd56f,64aea9d0f615b6559c281482,64becb9417a0666e721c6d80,up,-1,0.3,0.3071,4,0,0.8033,,,,,,66,0,66,0,1,,,,,
,,361163,001,2023-07-24_21h07.50.983,arm3_eps,2022.2.5,Win32,59.98080614,603926bba0efdd351a1cd56f,64aea9d0f615b6559c281482,64becb9417a0666e721c6d80,right,-1,0.3,0.3071,4,-0.009022858,1.0019,,,,,,67,0,67,0,1,,,,,
,,361163,001,2023-07-24_21h07.50.983,arm3_eps,2022.2.5,Win32,59.98080614,603926bba0efdd351a1cd56f,64aea9d0f615b6559c281482,64becb9417a0666e721c6d80,down,-1,0.3,0.3071,4,0,0.5168,,,,,,68,0,68,0,1,,,,,
,,361163,001,2023-07-24_21h07.50.983,arm3_eps,2022.2.5,Win32,59.98080614,603926bba0efdd351a1cd56f,64aea9d0f615b6559c281482,64becb9417a0666e721c6d80,right,-1,0.3,0.3071,4,0.027444424,0.7553,,,,,,69,0,69,0,1,,,,,
,,361163,001,2023-07-24_21h07.50.983,arm3_eps,2022.2.5,Win32,59.98080614,603926bba0efdd351a1cd56f,64aea9d0f615b6559c281482,64becb9417a0666e721c6d80,down,1,0.3,0.3071,4,0,0.636,,,,,,70,0,70,0,1,,,,,
,,361163,001,2023-07-24_21h07.50.983,arm3_eps,2022.2.5,Win32,59.98080614,603926bba0efdd351a1cd56f,64aea9d0f615b6559c281482,64becb9417a0666e721c6d80,up,1,0.3,0.3071,4,0,1.533,,,,,,71,0,71,0,1,,,,,
,,361163,001,2023-07-24_21h07.50.983,arm3_eps,2022.2.5,Win32,59.98080614,603926bba0efdd351a1cd56f,64aea9d0f615b6559c281482,64becb9417a0666e721c6d80,right,1,0.3,0.3071,4,0.005473995,0.9496,,,,,,72,0,72,0,1,,,,,
,,361163,001,2023-07-24_21h07.50.983,arm3_eps,2022.2.5,Win32,59.98080614,603926bba0efdd351a1cd56f,64aea9d0f615b6559c281482,64becb9417a0666e721c6d80,up,1,0.3,0.3071,4,0,0.4368,,,,,,73,0,73,0,1,,,,,
,,361163,001,2023-07-24_21h07.50.983,arm3_eps,2022.2.5,Win32,59.98080614,603926bba0efdd351a1cd56f,64aea9d0f615b6559c281482,64becb9417a0666e721c6d80,up,-1,0.3,0.3071,5,0,1.2101,,,,,,74,0,74,0,1,,,,,
,,361163,001,2023-07-24_21h07.50.983,arm3_eps,2022.2.5,Win32,59.98080614,603926bba0efdd351a1cd56f,64aea9d0f615b6559c281482,64becb9417a0666e721c6d80,right,-1,0.3,0.3071,5,0.004280253,1.4334,,,,,,75,0,75,0,1,,,,,
,,361163,001,2023-07-24_21h07.50.983,arm3_eps,2022.2.5,Win32,59.98080614,603926bba0efdd351a1cd56f,64aea9d0f615b6559c281482,64becb9417a0666e721c6d80,right,-1,0.3,0.3071,5,0.01011115,0.5352,,,,,,76,0,76,0,1,,,,,
,,361163,001,2023-07-24_21h07.50.983,arm3_eps,2022.2.5,Win32,59.98080614,603926bba0efdd351a1cd56f,64aea9d0f615b6559c281482,64becb9417a0666e721c6d80,up,-1,0.3,0.3071,4,0,0.4634,,,,,,77,0,77,0,1,,,,,
,,361163,001,2023-07-24_21h07.50.983,arm3_eps,2022.2.5,Win32,59.98080614,603926bba0efdd351a1cd56f,64aea9d0f615b6559c281482,64becb9417a0666e721c6d80,right,-1,0.3,0.3071,4,-0.005718867,1.3641,,,,,,78,0,78,0,1,,,,,
,,361163,001,2023-07-24_21h07.50.983,arm3_eps,2022.2.5,Win32,59.98080614,603926bba0efdd351a1cd56f,64aea9d0f615b6559c281482,64becb9417a0666e721c6d80,right,-1,0.3,0.3071,4,-0.015532108,0.525,,,,,,79,0,79,0,1,,,,,
,,361163,001,2023-07-24_21h07.50.983,arm3_eps,2022.2.5,Win32,59.98080614,603926bba0efdd351a1cd56f,64aea9d0f615b6559c281482,64becb9417a0666e721c6d80,down,-1,0.3,0.3071,4,0,0.4787,,,,,,80,0,80,0,1,,,,,
,,361163,001,2023-07-24_21h07.50.983,arm3_eps,2022.2.5,Win32,59.98080614,603926bba0efdd351a1cd56f,64aea9d0f615b6559c281482,64becb9417a0666e721c6d80,right,-1,0.3,0.3071,4,0.008227727,1.5,,,,,,81,0,81,0,1,,,,,
,,361163,001,2023-07-24_21h07.50.983,arm3_eps,2022.2.5,Win32,59.98080614,603926bba0efdd351a1cd56f,64aea9d0f615b6559c281482,64becb9417a0666e721c6d80,up,-1,0.3,0.3071,4,0,4.4382,,,,,,82,0,82,0,1,,,,,
,,361163,001,2023-07-24_21h07.50.983,arm3_eps,2022.2.5,Win32,59.98080614,603926bba0efdd351a1cd56f,64aea9d0f615b6559c281482,64becb9417a0666e721c6d80,right,-1,0.3,0.3071,4,-0.019027343,0.9002,,,,,,83,0,83,0,1,,,,,
,,361163,001,2023-07-24_21h07.50.983,arm3_eps,2022.2.5,Win32,59.98080614,603926bba0efdd351a1cd56f,64aea9d0f615b6559c281482,64becb9417a0666e721c6d80,down,1,0.3,0.3071,5,0,0.4549,,,,,,84,0,84,0,1,,,,,
,,361163,001,2023-07-24_21h07.50.983,arm3_eps,2022.2.5,Win32,59.98080614,603926bba0efdd351a1cd56f,64aea9d0f615b6559c281482,64becb9417a0666e721c6d80,right,1,0.3,0.3071,5,0.012289643,0.9875,,,,,,85,0,85,0,1,,,,,
,,361163,001,2023-07-24_21h07.50.983,arm3_eps,2022.2.5,Win32,59.98080614,603926bba0efdd351a1cd56f,64aea9d0f615b6559c281482,64becb9417a0666e721c6d80,up,1,0.3,0.3071,5,0,0.4834,,,,,,86,0,86,0,1,,,,,
,,361163,001,2023-07-24_21h07.50.983,arm3_eps,2022.2.5,Win32,59.98080614,603926bba0efdd351a1cd56f,64aea9d0f615b6559c281482,64becb9417a0666e721c6d80,up,1,0.3,0.3071,5,0,1.0943,,,,,,87,0,87,0,1,,,,,
,,361163,001,2023-07-24_21h07.50.983,arm3_eps,2022.2.5,Win32,59.98080614,603926bba0efdd351a1cd56f,64aea9d0f615b6559c281482,64becb9417a0666e721c6d80,right,1,0.3,0.3071,5,0.04523431,0.6978,,,,,,88,0,88,0,1,,,,,
,,361163,001,2023-07-24_21h07.50.983,arm3_eps,2022.2.5,Win32,59.98080614,603926bba0efdd351a1cd56f,64aea9d0f615b6559c281482,64becb9417a0666e721c6d80,up,1,0.3,0.3071,5,0,0.6334,,,,,,89,0,89,0,1,,,,,
,,361163,001,2023-07-24_21h07.50.983,arm3_eps,2022.2.5,Win32,59.98080614,603926bba0efdd351a1cd56f,64aea9d0f615b6559c281482,64becb9417a0666e721c6d80,right,1,0.3,0.3071,5,-0.015336241,0.7501,,,,,,90,0,90,0,1,,,,,
,,361163,001,2023-07-24_21h07.50.983,arm3_eps,2022.2.5,Win32,59.98080614,603926bba0efdd351a1cd56f,64aea9d0f615b6559c281482,64becb9417a0666e721c6d80,right,1,0.3,0.3071,5,0.023617253,0.3995,,,,,,91,0,91,0,1,,,,,
,,361163,001,2023-07-24_21h07.50.983,arm3_eps,2022.2.5,Win32,59.98080614,603926bba0efdd351a1cd56f,64aea9d0f615b6559c281482,64becb9417a0666e721c6d80,right,1,0.3,0.3071,5,0.024535751,0.9,,,,,,92,0,92,0,1,,,,,
,,361163,001,2023-07-24_21h07.50.983,arm3_eps,2022.2.5,Win32,59.98080614,603926bba0efdd351a1cd56f,64aea9d0f615b6559c281482,64becb9417a0666e721c6d80,right,1,0.3,0.3071,5,0.031529058,0.6303,,,,,,93,0,93,0,1,,,,,
,,361163,001,2023-07-24_21h07.50.983,arm3_eps,2022.2.5,Win32,59.98080614,603926bba0efdd351a1cd56f,64aea9d0f615b6559c281482,64becb9417a0666e721c6d80,right,1,0.3,0.3071,5,0.03044722,0.4682,,,,,,94,0,94,0,1,,,,,
,,361163,001,2023-07-24_21h07.50.983,arm3_eps,2022.2.5,Win32,59.98080614,603926bba0efdd351a1cd56f,64aea9d0f615b6559c281482,64becb9417a0666e721c6d80,right,1,0.3,0.3071,5,0.036808265,0.4004,,,,,,95,0,95,0,1,,,,,
,,361163,001,2023-07-24_21h07.50.983,arm3_eps,2022.2.5,Win32,59.98080614,603926bba0efdd351a1cd56f,64aea9d0f615b6559c281482,64becb9417a0666e721c6d80,up,1,0.3,0.3071,5,0,0.483,,,,,,96,0,96,0,1,,,,,
,,361163,001,2023-07-24_21h07.50.983,arm3_eps,2022.2.5,Win32,59.98080614,603926bba0efdd351a1cd56f,64aea9d0f615b6559c281482,64becb9417a0666e721c6d80,right,1,0.3,0.3071,5,-0.01218413,0.683,,,,,,97,0,97,0,1,,,,,
,,361163,001,2023-07-24_21h07.50.983,arm3_eps,2022.2.5,Win32,59.98080614,603926bba0efdd351a1cd56f,64aea9d0f615b6559c281482,64becb9417a0666e721c6d80,right,1,0.3,0.3071,5,-0.030288254,0.592,,,,,,98,0,98,0,1,,,,,
,,361163,001,2023-07-24_21h07.50.983,arm3_eps,2022.2.5,Win32,59.98080614,603926bba0efdd351a1cd56f,64aea9d0f615b6559c281482,64becb9417a0666e721c6d80,down,-1,0.3,0.3071,4,0,0.4394,,,,,,99,0,99,0,1,,,,,
,,361163,001,2023-07-24_21h07.50.983,arm3_eps,2022.2.5,Win32,59.98080614,603926bba0efdd351a1cd56f,64aea9d0f615b6559c281482,64becb9417a0666e721c6d80,right,-1,0.3,0.3071,4,-0.014751825,0.8847,,,,,,100,0,100,0,1,,,,,
,,361163,001,2023-07-24_21h07.50.983,arm3_eps,2022.2.5,Win32,59.98080614,603926bba0efdd351a1cd56f,64aea9d0f615b6559c281482,64becb9417a0666e721c6d80,right,-1,0.3,0.3071,4,-0.047995007,0.1918,,,,,,101,0,101,0,1,,,,,
,,361163,001,2023-07-24_21h07.50.983,arm3_eps,2022.2.5,Win32,59.98080614,603926bba0efdd351a1cd56f,64aea9d0f615b6559c281482,64becb9417a0666e721c6d80,right,-1,0.3,0.3071,4,-0.07190561,0.1836,,,,,,102,0,102,0,1,,,,,
,,361163,001,2023-07-24_21h07.50.983,arm3_eps,2022.2.5,Win32,59.98080614,603926bba0efdd351a1cd56f,64aea9d0f615b6559c281482,64becb9417a0666e721c6d80,right,-1,0.3,0.3071,4,-0.057342562,0.2474,,,,,,103,0,103,0,1,,,,,
,,361163,001,2023-07-24_21h07.50.983,arm3_eps,2022.2.5,Win32,59.98080614,603926bba0efdd351a1cd56f,64aea9d0f615b6559c281482,64becb9417a0666e721c6d80,right,-1,0.3,0.3071,4,-0.086487983,0.4287,,,,,,104,0,104,0,1,,,,,
,,361163,001,2023-07-24_21h07.50.983,arm3_eps,2022.2.5,Win32,59.98080614,603926bba0efdd351a1cd56f,64aea9d0f615b6559c281482,64becb9417a0666e721c6d80,down,-1,0.3,0.3071,4,0,0.4987,,,,,,105,0,105,0,1,,,,,
,,361163,001,2023-07-24_21h07.50.983,arm3_eps,2022.2.5,Win32,59.98080614,603926bba0efdd351a1cd56f,64aea9d0f615b6559c281482,64becb9417a0666e721c6d80,right,-1,0.3,0.3071,4,-0.0265265,0.6461,,,,,,106,0,106,0,1,,,,,
,,361163,001,2023-07-24_21h07.50.983,arm3_eps,2022.2.5,Win32,59.98080614,603926bba0efdd351a1cd56f,64aea9d0f615b6559c281482,64becb9417a0666e721c6d80,right,-1,0.3,0.3071,4,-0.010419538,0.4194,,,,,,107,0,107,0,1,,,,,
,,361163,001,2023-07-24_21h07.50.983,arm3_eps,2022.2.5,Win32,59.98080614,603926bba0efdd351a1cd56f,64aea9d0f615b6559c281482,64becb9417a0666e721c6d80,right,-1,0.3,0.3071,4,-0.039366533,0.3454,,,,,,108,0,108,0,1,,,,,
,,361163,001,2023-07-24_21h07.50.983,arm3_eps,2022.2.5,Win32,59.98080614,603926bba0efdd351a1cd56f,64aea9d0f615b6559c281482,64becb9417a0666e721c6d80,down,-1,0.3,0.3071,4,0,0.5309,,,,,,109,0,109,0,1,,,,,
,,361163,001,2023-07-24_21h07.50.983,arm3_eps,2022.2.5,Win32,59.98080614,603926bba0efdd351a1cd56f,64aea9d0f615b6559c281482,64becb9417a0666e721c6d80,right,-1,0.3,0.3071,4,-0.000828409,0.8591,,,,,,110,0,110,0,1,,,,,
,,361163,001,2023-07-24_21h07.50.983,arm3_eps,2022.2.5,Win32,59.98080614,603926bba0efdd351a1cd56f,64aea9d0f615b6559c281482,64becb9417a0666e721c6d80,right,-1,0.3,0.3071,4,0.007271372,0.3167,,,,,,111,0,111,0,1,,,,,
,,361163,001,2023-07-24_21h07.50.983,arm3_eps,2022.2.5,Win32,59.98080614,603926bba0efdd351a1cd56f,64aea9d0f615b6559c281482,64becb9417a0666e721c6d80,right,-1,0.3,0.3071,4,0.01409388,0.1828,,,,,,112,0,112,0,1,,,,,
,,361163,001,2023-07-24_21h07.50.983,arm3_eps,2022.2.5,Win32,59.98080614,603926bba0efdd351a1cd56f,64aea9d0f615b6559c281482,64becb9417a0666e721c6d80,up,-1,0.3,0.3071,3,0,0.4106,,,,,,113,0,113,0,1,,,,,
,,361163,001,2023-07-24_21h07.50.983,arm3_eps,2022.2.5,Win32,59.98080614,603926bba0efdd351a1cd56f,64aea9d0f615b6559c281482,64becb9417a0666e721c6d80,right,-1,0.3,0.3071,3,-0.01777023,0.9452,,,,,,114,0,114,0,1,,,,,
,,361163,001,2023-07-24_21h07.50.983,arm3_eps,2022.2.5,Win32,59.98080614,603926bba0efdd351a1cd56f,64aea9d0f615b6559c281482,64becb9417a0666e721c6d80,right,-1,0.3,0.3071,3,-0.040929927,0.1705,,,,,,115,0,115,0,1,,,,,
,,361163,001,2023-07-24_21h07.50.983,arm3_eps,2022.2.5,Win32,59.98080614,603926bba0efdd351a1cd56f,64aea9d0f615b6559c281482,64becb9417a0666e721c6d80,right,-1,0.3,0.3071,3,-0.09519138,0.2835,,,,,,116,0,116,0,1,,,,,
,,361163,001,2023-07-24_21h07.50.983,arm3_eps,2022.2.5,Win32,59.98080614,603926bba0efdd351a1cd56f,64aea9d0f615b6559c281482,64becb9417a0666e721c6d80,right,-1,0.3,0.3071,3,-0.077926384,0.1577,,,,,,117,0,117,0,1,,,,,
,,361163,001,2023-07-24_21h07.50.983,arm3_eps,2022.2.5,Win32,59.98080614,603926bba0efdd351a1cd56f,64aea9d0f615b6559c281482,64becb9417a0666e721c6d80,down,-1,0.3,0.3071,3,0,0.5506,,,,,,118,0,118,0,1,,,,,
,,361163,001,2023-07-24_21h07.50.983,arm3_eps,2022.2.5,Win32,59.98080614,603926bba0efdd351a1cd56f,64aea9d0f615b6559c281482,64becb9417a0666e721c6d80,right,-1,0.3,0.3071,3,0.005244687,0.8232,,,,,,119,0,119,0,1,,,,,
,,361163,001,2023-07-24_21h07.50.983,arm3_eps,2022.2.5,Win32,59.98080614,603926bba0efdd351a1cd56f,64aea9d0f615b6559c281482,64becb9417a0666e721c6d80,right,-1,0.3,0.3071,3,0.016488816,0.4291,,,,,,120,0,120,0,1,,,,,
,,361163,001,2023-07-24_21h07.50.983,arm3_eps,2022.2.5,Win32,59.98080614,603926bba0efdd351a1cd56f,64aea9d0f615b6559c281482,64becb9417a0666e721c6d80,up,1,0.3,0.3071,3,0,0.2272,,,,,,121,0,121,0,1,,,,,
,,361163,001,2023-07-24_21h07.50.983,arm3_eps,2022.2.5,Win32,59.98080614,603926bba0efdd351a1cd56f,64aea9d0f615b6559c281482,64becb9417a0666e721c6d80,up,-1,0.3,0.3071,3,0,1.0671,,,,,,122,0,122,0,1,,,,,
,,361163,001,2023-07-24_21h07.50.983,arm3_eps,2022.2.5,Win32,59.98080614,603926bba0efdd351a1cd56f,64aea9d0f615b6559c281482,64becb9417a0666e721c6d80,right,-1,0.3,0.3071,3,-0.05424533,0.7169,,,,,,123,0,123,0,1,,,,,
,,361163,001,2023-07-24_21h07.50.983,arm3_eps,2022.2.5,Win32,59.98080614,603926bba0efdd351a1cd56f,64aea9d0f615b6559c281482,64becb9417a0666e721c6d80,right,-1,0.3,0.3071,3,-0.045496728,0.9335,,,,,,124,0,124,0,1,,,,,
,,361163,001,2023-07-24_21h07.50.983,arm3_eps,2022.2.5,Win32,59.98080614,603926bba0efdd351a1cd56f,64aea9d0f615b6559c281482,64becb9417a0666e721c6d80,down,1,0.3,0.3071,3,0,0.5941,,,,,,125,0,125,0,1,,,,,
,,361163,001,2023-07-24_21h07.50.983,arm3_eps,2022.2.5,Win32,59.98080614,603926bba0efdd351a1cd56f,64aea9d0f615b6559c281482,64becb9417a0666e721c6d80,right,1,0.3,0.3071,3,0.002069805,0.8668,,,,,,126,0,126,0,1,,,,,
,,361163,001,2023-07-24_21h07.50.983,arm3_eps,2022.2.5,Win32,59.98080614,603926bba0efdd351a1cd56f,64aea9d0f615b6559c281482,64becb9417a0666e721c6d80,right,1,0.3,0.3071,3,-0.008371215,0.3412,,,,,,127,0,127,0,1,,,,,
,,361163,001,2023-07-24_21h07.50.983,arm3_eps,2022.2.5,Win32,59.98080614,603926bba0efdd351a1cd56f,64aea9d0f615b6559c281482,64becb9417a0666e721c6d80,right,1,0.3,0.3071,3,0.008116478,0.7106,,,,,,128,0,128,0,1,,,,,
,,361163,001,2023-07-24_21h07.50.983,arm3_eps,2022.2.5,Win32,59.98080614,603926bba0efdd351a1cd56f,64aea9d0f615b6559c281482,64becb9417a0666e721c6d80,right,1,0.3,0.3071,3,-0.005293246,0.5293,,,,,,129,0,129,0,1,,,,,
,,361163,001,2023-07-24_21h07.50.983,arm3_eps,2022.2.5,Win32,59.98080614,603926bba0efdd351a1cd56f,64aea9d0f615b6559c281482,64becb9417a0666e721c6d80,up,-1,0.3,0.3071,3,0,0.5954,,,,,,130,0,130,0,1,,,,,
,,361163,001,2023-07-24_21h07.50.983,arm3_eps,2022.2.5,Win32,59.98080614,603926bba0efdd351a1cd56f,64aea9d0f615b6559c281482,64becb9417a0666e721c6d80,right,-1,0.3,0.3071,3,0.004281636,0.7626,,,,,,131,0,131,0,1,,,,,
,,361163,001,2023-07-24_21h07.50.983,arm3_eps,2022.2.5,Win32,59.98080614,603926bba0efdd351a1cd56f,64aea9d0f615b6559c281482,64becb9417a0666e721c6d80,right,-1,0.3,0.3071,3,-0.004025224,0.4673,,,,,,132,0,132,0,1,,,,,
,,361163,001,2023-07-24_21h07.50.983,arm3_eps,2022.2.5,Win32,59.98080614,603926bba0efdd351a1cd56f,64aea9d0f615b6559c281482,64becb9417a0666e721c6d80,down,-1,0.3,0.3071,3,0,0.5353,,,,,,133,0,133,0,1,,,,,
,,361163,001,2023-07-24_21h07.50.983,arm3_eps,2022.2.5,Win32,59.98080614,603926bba0efdd351a1cd56f,64aea9d0f615b6559c281482,64becb9417a0666e721c6d80,right,-1,0.3,0.3071,3,0.016553069,0.7766,,,,,,134,0,134,0,1,,,,,
,,361163,001,2023-07-24_21h07.50.983,arm3_eps,2022.2.5,Win32,59.98080614,603926bba0efdd351a1cd56f,64aea9d0f615b6559c281482,64becb9417a0666e721c6d80,right,-1,0.3,0.3071,3,0.010964359,0.2887,,,,,,135,0,135,0,1,,,,,
,,361163,001,2023-07-24_21h07.50.983,arm3_eps,2022.2.5,Win32,59.98080614,603926bba0efdd351a1cd56f,64aea9d0f615b6559c281482,64becb9417a0666e721c6d80,right,-1,0.3,0.3071,3,0.00357253,0.2281,,,,,,136,0,136,0,1,,,,,
,,361163,001,2023-07-24_21h07.50.983,arm3_eps,2022.2.5,Win32,59.98080614,603926bba0efdd351a1cd56f,64aea9d0f615b6559c281482,64becb9417a0666e721c6d80,right,-1,0.3,0.3071,3,0.030752733,0.442,,,,,,137,0,137,0,1,,,,,
,,361163,001,2023-07-24_21h07.50.983,arm3_eps,2022.2.5,Win32,59.98080614,603926bba0efdd351a1cd56f,64aea9d0f615b6559c281482,64becb9417a0666e721c6d80,up,1,0.3,0.3071,3,0,0.4496,,,,,,138,0,138,0,1,,,,,
,,361163,001,2023-07-24_21h07.50.983,arm3_eps,2022.2.5,Win32,59.98080614,603926bba0efdd351a1cd56f,64aea9d0f615b6559c281482,64becb9417a0666e721c6d80,right,1,0.3,0.3071,3,0.013349699,0.8847,,,,,,139,0,139,0,1,,,,,
,,361163,001,2023-07-24_21h07.50.983,arm3_eps,2022.2.5,Win32,59.98080614,603926bba0efdd351a1cd56f,64aea9d0f615b6559c281482,64becb9417a0666e721c6d80,right,1,0.3,0.3071,3,-0.008723815,0.336,,,,,,140,0,140,0,1,,,,,
,,361163,001,2023-07-24_21h07.50.983,arm3_eps,2022.2.5,Win32,59.98080614,603926bba0efdd351a1cd56f,64aea9d0f615b6559c281482,64becb9417a0666e721c6d80,right,1,0.3,0.3071,3,-0.022827574,0.2669,,,,,,141,0,141,0,1,,,,,
,,361163,001,2023-07-24_21h07.50.983,arm3_eps,2022.2.5,Win32,59.98080614,603926bba0efdd351a1cd56f,64aea9d0f615b6559c281482,64becb9417a0666e721c6d80,right,1,0.3,0.3071,3,-0.020676021,0.3502,,,,,,142,0,142,0,1,,,,,
,,361163,001,2023-07-24_21h07.50.983,arm3_eps,2022.2.5,Win32,59.98080614,603926bba0efdd351a1cd56f,64aea9d0f615b6559c281482,64becb9417a0666e721c6d80,down,-1,0.3,0.3071,2,0,0.3261,,,,,,143,0,143,0,1,,,,,
,,361163,001,2023-07-24_21h07.50.983,arm3_eps,2022.2.5,Win32,59.98080614,603926bba0efdd351a1cd56f,64aea9d0f615b6559c281482,64becb9417a0666e721c6d80,right,-1,0.3,0.3071,2,0.00243936,0.7922,,,,,,144,0,144,0,1,,,,,
,,361163,001,2023-07-24_21h07.50.983,arm3_eps,2022.2.5,Win32,59.98080614,603926bba0efdd351a1cd56f,64aea9d0f615b6559c281482,64becb9417a0666e721c6d80,right,-1,0.3,0.3071,2,-0.024648726,0.2714,,,,,,145,0,145,0,1,,,,,
,,361163,001,2023-07-24_21h07.50.983,arm3_eps,2022.2.5,Win32,59.98080614,603926bba0efdd351a1cd56f,64aea9d0f615b6559c281482,64becb9417a0666e721c6d80,right,-1,0.3,0.3071,2,-0.049358086,0.1554,,,,,,146,0,146,0,1,,,,,
,,361163,001,2023-07-24_21h07.50.983,arm3_eps,2022.2.5,Win32,59.98080614,603926bba0efdd351a1cd56f,64aea9d0f615b6559c281482,64becb9417a0666e721c6d80,right,-1,0.3,0.3071,2,-0.068186218,0.188,,,,,,147,0,147,0,1,,,,,
,,361163,001,2023-07-24_21h07.50.983,arm3_eps,2022.2.5,Win32,59.98080614,603926bba0efdd351a1cd56f,64aea9d0f615b6559c281482,64becb9417a0666e721c6d80,down,-1,0.3,0.3071,3,0,0.2514,,,,,,148,0,148,0,1,,,,,
,,361163,001,2023-07-24_21h07.50.983,arm3_eps,2022.2.5,Win32,59.98080614,603926bba0efdd351a1cd56f,64aea9d0f615b6559c281482,64becb9417a0666e721c6d80,right,-1,0.3,0.3071,3,0.010986103,0.7759,,,,,,149,0,149,0,1,,,,,
,,361163,001,2023-07-24_21h07.50.983,arm3_eps,2022.2.5,Win32,59.98080614,603926bba0efdd351a1cd56f,64aea9d0f615b6559c281482,64becb9417a0666e721c6d80,right,-1,0.3,0.3071,3,0.01891007,0.4081,,,,,,150,0,150,0,1,,,,,
,,361163,001,2023-07-24_21h07.50.983,arm3_eps,2022.2.5,Win32,59.98080614,603926bba0efdd351a1cd56f,64aea9d0f615b6559c281482,64becb9417a0666e721c6d80,right,-1,0.3,0.3071,3,0.021012066,0.3333,,,,,,151,0,151,0,1,,,,,
,,361163,001,2023-07-24_21h07.50.983,arm3_eps,2022.2.5,Win32,59.98080614,603926bba0efdd351a1cd56f,64aea9d0f615b6559c281482,64becb9417a0666e721c6d80,down,1,0.3,0.3071,3,0,0.8088,,,,,,152,0,152,0,1,,,,,
,,361163,001,2023-07-24_21h07.50.983,arm3_eps,2022.2.5,Win32,59.98080614,603926bba0efdd351a1cd56f,64aea9d0f615b6559c281482,64becb9417a0666e721c6d80,right,1,0.3,0.3071,3,0.017420715,0.8395,,,,,,153,0,153,0,1,,,,,
,,361163,001,2023-07-24_21h07.50.983,arm3_eps,2022.2.5,Win32,59.98080614,603926bba0efdd351a1cd56f,64aea9d0f615b6559c281482,64becb9417a0666e721c6d80,right,1,0.3,0.3071,3,0.052631181,0.3334,,,,,,154,0,154,0,1,,,,,
,,361163,001,2023-07-24_21h07.50.983,arm3_eps,2022.2.5,Win32,59.98080614,603926bba0efdd351a1cd56f,64aea9d0f615b6559c281482,64becb9417a0666e721c6d80,up,1,0.3,0.3071,4,0,0.2941,,,,,,155,0,155,0,1,,,,,
,,361163,001,2023-07-24_21h07.50.983,arm3_eps,2022.2.5,Win32,59.98080614,603926bba0efdd351a1cd56f,64aea9d0f615b6559c281482,64becb9417a0666e721c6d80,right,1,0.3,0.3071,4,0.027479641,1.0896,,,,,,156,0,156,0,1,,,,,
,,361163,001,2023-07-24_21h07.50.983,arm3_eps,2022.2.5,Win32,59.98080614,603926bba0efdd351a1cd56f,64aea9d0f615b6559c281482,64becb9417a0666e721c6d80,right,1,0.3,0.3071,4,0.024246026,0.35,,,,,,157,0,157,0,1,,,,,
,,361163,001,2023-07-24_21h07.50.983,arm3_eps,2022.2.5,Win32,59.98080614,603926bba0efdd351a1cd56f,64aea9d0f615b6559c281482,64becb9417a0666e721c6d80,right,1,0.3,0.3071,4,0.017651564,0.3341,,,,,,158,0,158,0,1,,,,,
,,361163,001,2023-07-24_21h07.50.983,arm3_eps,2022.2.5,Win32,59.98080614,603926bba0efdd351a1cd56f,64aea9d0f615b6559c281482,64becb9417a0666e721c6d80,up,1,0.3,0.3071,4,0,0.4476,,,,,,159,0,159,0,1,,,,,
,,361163,001,2023-07-24_21h07.50.983,arm3_eps,2022.2.5,Win32,59.98080614,603926bba0efdd351a1cd56f,64aea9d0f615b6559c281482,64becb9417a0666e721c6d80,right,1,0.3,0.3071,4,-0.009421922,0.9835,,,,,,160,0,160,0,1,,,,,
,,361163,001,2023-07-24_21h07.50.983,arm3_eps,2022.2.5,Win32,59.98080614,603926bba0efdd351a1cd56f,64aea9d0f615b6559c281482,64becb9417a0666e721c6d80,right,1,0.3,0.3071,4,0.022023079,0.477,,,,,,161,0,161,0,1,,,,,
,,361163,001,2023-07-24_21h07.50.983,arm3_eps,2022.2.5,Win32,59.98080614,603926bba0efdd351a1cd56f,64aea9d0f615b6559c281482,64becb9417a0666e721c6d80,right,1,0.3,0.3071,4,0.047472644,0.4335,,,,,,162,0,162,0,1,,,,,
,,361163,001,2023-07-24_21h07.50.983,arm3_eps,2022.2.5,Win32,59.98080614,603926bba0efdd351a1cd56f,64aea9d0f615b6559c281482,64becb9417a0666e721c6d80,up,1,0.3,0.3071,4,0,0.2503,,,,,,163,0,163,0,1,,,,,
,,361163,001,2023-07-24_21h07.50.983,arm3_eps,2022.2.5,Win32,59.98080614,603926bba0efdd351a1cd56f,64aea9d0f615b6559c281482,64becb9417a0666e721c6d80,right,1,0.3,0.3071,4,-0.010849889,0.7168,,,,,,164,0,164,0,1,,,,,
,,361163,001,2023-07-24_21h07.50.983,arm3_eps,2022.2.5,Win32,59.98080614,603926bba0efdd351a1cd56f,64aea9d0f615b6559c281482,64becb9417a0666e721c6d80,right,1,0.3,0.3071,4,0.021290325,0.4775,,,,,,165,0,165,0,1,,,,,
,,361163,001,2023-07-24_21h07.50.983,arm3_eps,2022.2.5,Win32,59.98080614,603926bba0efdd351a1cd56f,64aea9d0f615b6559c281482,64becb9417a0666e721c6d80,right,1,0.3,0.3071,4,0.043349129,0.3455,,,,,,166,0,166,0,1,,,,,
,,361163,001,2023-07-24_21h07.50.983,arm3_eps,2022.2.5,Win32,59.98080614,603926bba0efdd351a1cd56f,64aea9d0f615b6559c281482,64becb9417a0666e721c6d80,right,1,0.3,0.3071,4,0.026298795,0.5549,,,,,,167,0,167,0,1,,,,,
,,361163,001,2023-07-24_21h07.50.983,arm3_eps,2022.2.5,Win32,59.98080614,603926bba0efdd351a1cd56f,64aea9d0f615b6559c281482,64becb9417a0666e721c6d80,right,1,0.3,0.3071,4,0.015118018,0.3395,,,,,,168,0,168,0,1,,,,,
,,361163,001,2023-07-24_21h07.50.983,arm3_eps,2022.2.5,Win32,59.98080614,603926bba0efdd351a1cd56f,64aea9d0f615b6559c281482,64becb9417a0666e721c6d80,right,1,0.3,0.3071,4,0.018153327,0.3409,,,,,,169,0,169,0,1,,,,,
,,361163,001,2023-07-24_21h07.50.983,arm3_eps,2022.2.5,Win32,59.98080614,603926bba0efdd351a1cd56f,64aea9d0f615b6559c281482,64becb9417a0666e721c6d80,right,1,0.3,0.3071,4,0.017997417,0.3103,,,,,,170,0,170,0,1,,,,,
,,361163,001,2023-07-24_21h07.50.983,arm3_eps,2022.2.5,Win32,59.98080614,603926bba0efdd351a1cd56f,64aea9d0f615b6559c281482,64becb9417a0666e721c6d80,right,1,0.3,0.3071,4,0.024711741,0.4016,,,,,,171,0,171,0,1,,,,,
,,361163,001,2023-07-24_21h07.50.983,arm3_eps,2022.2.5,Win32,59.98080614,603926bba0efdd351a1cd56f,64aea9d0f615b6559c281482,64becb9417a0666e721c6d80,up,-1,0.3,0.3071,5,0,0.3037,,,,,,172,0,172,0,1,,,,,
,,361163,001,2023-07-24_21h07.50.983,arm3_eps,2022.2.5,Win32,59.98080614,603926bba0efdd351a1cd56f,64aea9d0f615b6559c281482,64becb9417a0666e721c6d80,right,-1,0.3,0.3071,5,0.00970352,0.8264,,,,,,173,0,173,0,1,,,,,
,,361163,001,2023-07-24_21h07.50.983,arm3_eps,2022.2.5,Win32,59.98080614,603926bba0efdd351a1cd56f,64aea9d0f615b6559c281482,64becb9417a0666e721c6d80,right,-1,0.3,0.3071,5,-0.004902121,0.1841,,,,,,174,0,174,0,1,,,,,
,,361163,001,2023-07-24_21h07.50.983,arm3_eps,2022.2.5,Win32,59.98080614,603926bba0efdd351a1cd56f,64aea9d0f615b6559c281482,64becb9417a0666e721c6d80,right,-1,0.3,0.3071,5,-0.000228517,0.2003,,,,,,175,0,175,0,1,,,,,
,,361163,001,2023-07-24_21h07.50.983,arm3_eps,2022.2.5,Win32,59.98080614,603926bba0efdd351a1cd56f,64aea9d0f615b6559c281482,64becb9417a0666e721c6d80,right,-1,0.3,0.3071,5,-0.01532859,0.247,,,,,,176,0,176,0,1,,,,,
,,361163,001,2023-07-24_21h07.50.983,arm3_eps,2022.2.5,Win32,59.98080614,603926bba0efdd351a1cd56f,64aea9d0f615b6559c281482,64becb9417a0666e721c6d80,right,-1,0.3,0.3071,5,-0.026232747,0.3502,,,,,,177,0,177,0,1,,,,,
,,361163,001,2023-07-24_21h07.50.983,arm3_eps,2022.2.5,Win32,59.98080614,603926bba0efdd351a1cd56f,64aea9d0f615b6559c281482,64becb9417a0666e721c6d80,down,-1,0.3,0.3071,5,0,0.3009,,,,,,178,0,178,0,1,,,,,
,,361163,001,2023-07-24_21h07.50.983,arm3_eps,2022.2.5,Win32,59.98080614,603926bba0efdd351a1cd56f,64aea9d0f615b6559c281482,64becb9417a0666e721c6d80,right,-1,0.3,0.3071,5,-0.012533428,0.7755,,,,,,179,0,179,0,1,,,,,
,,361163,001,2023-07-24_21h07.50.983,arm3_eps,2022.2.5,Win32,59.98080614,603926bba0efdd351a1cd56f,64aea9d0f615b6559c281482,64becb9417a0666e721c6d80,right,-1,0.3,0.3071,5,-0.041529649,0.3039,,,,,,180,0,180,0,1,,,,,
,,361163,001,2023-07-24_21h07.50.983,arm3_eps,2022.2.5,Win32,59.98080614,603926bba0efdd351a1cd56f,64aea9d0f615b6559c281482,64becb9417a0666e721c6d80,right,-1,0.3,0.3071,5,-0.081775312,0.3622,,,,,,181,0,181,0,1,,,,,
,,361163,001,2023-07-24_21h07.50.983,arm3_eps,2022.2.5,Win32,59.98080614,603926bba0efdd351a1cd56f,64aea9d0f615b6559c281482,64becb9417a0666e721c6d80,right,-1,0.3,0.3071,5,-0.1030498,0.3229,,,,,,182,0,182,0,1,,,,,
,,361163,001,2023-07-24_21h07.50.983,arm3_eps,2022.2.5,Win32,59.98080614,603926bba0efdd351a1cd56f,64aea9d0f615b6559c281482,64becb9417a0666e721c6d80,down,-1,0.3,0.3071,5,0,0.237,,,,,,183,0,183,0,1,,,,,
,,361163,001,2023-07-24_21h07.50.983,arm3_eps,2022.2.5,Win32,59.98080614,603926bba0efdd351a1cd56f,64aea9d0f615b6559c281482,64becb9417a0666e721c6d80,down,-1,0.3,0.3071,5,0,1.4337,,,,,,184,0,184,0,1,,,,,
,,361163,001,2023-07-24_21h07.50.983,arm3_eps,2022.2.5,Win32,59.98080614,603926bba0efdd351a1cd56f,64aea9d0f615b6559c281482,64becb9417a0666e721c6d80,right,-1,0.3,0.3071,5,-0.008527306,1.6886,,,,,,185,0,185,0,1,,,,,
,,361163,001,2023-07-24_21h07.50.983,arm3_eps,2022.2.5,Win32,59.98080614,603926bba0efdd351a1cd56f,64aea9d0f615b6559c281482,64becb9417a0666e721c6d80,right,-1,0.3,0.3071,5,-0.021522351,0.3237,,,,,,186,0,186,0,1,,,,,
,,361163,001,2023-07-24_21h07.50.983,arm3_eps,2022.2.5,Win32,59.98080614,603926bba0efdd351a1cd56f,64aea9d0f615b6559c281482,64becb9417a0666e721c6d80,right,-1,0.3,0.3071,5,-0.014334609,0.6053,,,,,,187,0,187,0,1,,,,,
,,361163,001,2023-07-24_21h07.50.983,arm3_eps,2022.2.5,Win32,59.98080614,603926bba0efdd351a1cd56f,64aea9d0f615b6559c281482,64becb9417a0666e721c6d80,right,-1,0.3,0.3071,5,0.002474545,0.4684,,,,,,188,0,188,0,1,,,,,
,,361163,001,2023-07-24_21h07.50.983,arm3_eps,2022.2.5,Win32,59.98080614,603926bba0efdd351a1cd56f,64aea9d0f615b6559c281482,64becb9417a0666e721c6d80,right,-1,0.3,0.3071,5,0.002292561,0.3603,,,,,,189,0,189,0,1,,,,,
,,361163,001,2023-07-24_21h07.50.983,arm3_eps,2022.2.5,Win32,59.98080614,603926bba0efdd351a1cd56f,64aea9d0f615b6559c281482,64becb9417a0666e721c6d80,right,-1,0.3,0.3071,5,-0.00767646,0.313,,,,,,190,0,190,0,1,,,,,
,,361163,001,2023-07-24_21h07.50.983,arm3_eps,2022.2.5,Win32,59.98080614,603926bba0efdd351a1cd56f,64aea9d0f615b6559c281482,64becb9417a0666e721c6d80,down,-1,0.3,0.3071,6,0,0.4437,,,,,,191,0,191,0,1,,,,,
,,361163,001,2023-07-24_21h07.50.983,arm3_eps,2022.2.5,Win32,59.98080614,603926bba0efdd351a1cd56f,64aea9d0f615b6559c281482,64becb9417a0666e721c6d80,right,-1,0.3,0.3071,6,0.026015238,0.8503,,,,,,192,0,192,0,1,,,,,
,,361163,001,2023-07-24_21h07.50.983,arm3_eps,2022.2.5,Win32,59.98080614,603926bba0efdd351a1cd56f,64aea9d0f615b6559c281482,64becb9417a0666e721c6d80,right,-1,0.3,0.3071,6,0.016491682,0.4168,,,,,,193,0,193,0,1,,,,,
,,361163,001,2023-07-24_21h07.50.983,arm3_eps,2022.2.5,Win32,59.98080614,603926bba0efdd351a1cd56f,64aea9d0f615b6559c281482,64becb9417a0666e721c6d80,right,-1,0.3,0.3071,6,0.029748248,0.45,,,,,,194,0,194,0,1,,,,,
,,361163,001,2023-07-24_21h07.50.983,arm3_eps,2022.2.5,Win32,59.98080614,603926bba0efdd351a1cd56f,64aea9d0f615b6559c281482,64becb9417a0666e721c6d80,right,-1,0.3,0.3071,6,0.003801661,0.5304,,,,,,195,0,195,0,1,,,,,
,,361163,001,2023-07-24_21h07.50.983,arm3_eps,2022.2.5,Win32,59.98080614,603926bba0efdd351a1cd56f,64aea9d0f615b6559c281482,64becb9417a0666e721c6d80,right,-1,0.3,0.3071,6,0.007231818,0.5501,,,,,,196,0,196,0,1,,,,,
,,361163,001,2023-07-24_21h07.50.983,arm3_eps,2022.2.5,Win32,59.98080614,603926bba0efdd351a1cd56f,64aea9d0f615b6559c281482,64becb9417a0666e721c6d80,right,-1,0.3,0.3071,6,0.002390687,0.4837,,,,,,197,0,197,0,1,,,,,
,,361163,001,2023-07-24_21h07.50.983,arm3_eps,2022.2.5,Win32,59.98080614,603926bba0efdd351a1cd56f,64aea9d0f615b6559c281482,64becb9417a0666e721c6d80,down,-1,0.3,0.3071,6,0,0.2738,,,,,,198,0,198,0,1,,,,,
,,361163,001,2023-07-24_21h07.50.983,arm3_eps,2022.2.5,Win32,59.98080614,603926bba0efdd351a1cd56f,64aea9d0f615b6559c281482,64becb9417a0666e721c6d80,right,-1,0.3,0.3071,6,-0.013682334,0.6834,,,,,,199,0,199,0,1,,,,,
,,361163,001,2023-07-24_21h07.50.983,arm3_eps,2022.2.5,Win32,59.98080614,603926bba0efdd351a1cd56f,64aea9d0f615b6559c281482,64becb9417a0666e721c6d80,right,-1,0.3,0.3071,6,-0.047577462,0.4336,,,,,,200,0,200,0,1,,,,,
,,361163,001,2023-07-24_21h07.50.983,arm3_eps,2022.2.5,Win32,59.98080614,603926bba0efdd351a1cd56f,64aea9d0f615b6559c281482,64becb9417a0666e721c6d80,down,-1,0.3,0.3071,7,0,0.3004,,,,,,201,0,201,0,1,,,,,
,,361163,001,2023-07-24_21h07.50.983,arm3_eps,2022.2.5,Win32,59.98080614,603926bba0efdd351a1cd56f,64aea9d0f615b6559c281482,64becb9417a0666e721c6d80,right,-1,0.3,0.3071,7,-0.016005949,0.9473,,,,,,202,0,202,0,1,,,,,
,,361163,001,2023-07-24_21h07.50.983,arm3_eps,2022.2.5,Win32,59.98080614,603926bba0efdd351a1cd56f,64aea9d0f615b6559c281482,64becb9417a0666e721c6d80,down,-1,0.3,0.3071,7,0,0.3666,,,,,,203,0,203,0,1,,,,,
,,361163,001,2023-07-24_21h07.50.983,arm3_eps,2022.2.5,Win32,59.98080614,603926bba0efdd351a1cd56f,64aea9d0f615b6559c281482,64becb9417a0666e721c6d80,right,-1,0.3,0.3071,7,-0.01202418,0.7835,,,,,,204,0,204,0,1,,,,,
,,361163,001,2023-07-24_21h07.50.983,arm3_eps,2022.2.5,Win32,59.98080614,603926bba0efdd351a1cd56f,64aea9d0f615b6559c281482,64becb9417a0666e721c6d80,down,1,0.3,0.3071,7,0,0.4836,,,,,,205,0,205,0,1,,,,,
,,361163,001,2023-07-24_21h07.50.983,arm3_eps,2022.2.5,Win32,59.98080614,603926bba0efdd351a1cd56f,64aea9d0f615b6559c281482,64becb9417a0666e721c6d80,right,1,0.3,0.3071,7,0.010147821,1.3004,,,,,,206,0,206,0,1,,,,,
,,361163,001,2023-07-24_21h07.50.983,arm3_eps,2022.2.5,Win32,59.98080614,603926bba0efdd351a1cd56f,64aea9d0f615b6559c281482,64becb9417a0666e721c6d80,right,1,0.3,0.3071,7,0.055838113,0.417,,,,,,207,0,207,0,1,,,,,
,,361163,001,2023-07-24_21h07.50.983,arm3_eps,2022.2.5,Win32,59.98080614,603926bba0efdd351a1cd56f,64aea9d0f615b6559c281482,64becb9417a0666e721c6d80,right,1,0.3,0.3071,7,0.059025469,0.1872,,,,,,208,0,208,0,1,,,,,
,,361163,001,2023-07-24_21h07.50.983,arm3_eps,2022.2.5,Win32,59.98080614,603926bba0efdd351a1cd56f,64aea9d0f615b6559c281482,64becb9417a0666e721c6d80,right,1,0.3,0.3071,7,0.076900652,0.1336,,,,,,209,0,209,0,1,,,,,
,,361163,001,2023-07-24_21h07.50.983,arm3_eps,2022.2.5,Win32,59.98080614,603926bba0efdd351a1cd56f,64aea9d0f615b6559c281482,64becb9417a0666e721c6d80,right,1,0.3,0.3071,7,0.105756188,0.1501,,,,,,210,0,210,0,1,,,,,
,,361163,001,2023-07-24_21h07.50.983,arm3_eps,2022.2.5,Win32,59.98080614,603926bba0efdd351a1cd56f,64aea9d0f615b6559c281482,64becb9417a0666e721c6d80,right,1,0.3,0.3071,7,0.122629338,0.1336,,,,,,211,0,211,0,1,,,,,
,,361163,001,2023-07-24_21h07.50.983,arm3_eps,2022.2.5,Win32,59.98080614,603926bba0efdd351a1cd56f,64aea9d0f615b6559c281482,64becb9417a0666e721c6d80,right,1,0.3,0.3071,7,0.126016202,0.104,,,,,,212,0,212,0,1,,,,,
,,361163,001,2023-07-24_21h07.50.983,arm3_eps,2022.2.5,Win32,59.98080614,603926bba0efdd351a1cd56f,64aea9d0f615b6559c281482,64becb9417a0666e721c6d80,right,1,0.3,0.3071,7,0.126769966,0.1333,,,,,,213,0,213,0,1,,,,,
,,361163,001,2023-07-24_21h07.50.983,arm3_eps,2022.2.5,Win32,59.98080614,603926bba0efdd351a1cd56f,64aea9d0f615b6559c281482,64becb9417a0666e721c6d80,right,1,0.3,0.3071,7,0.130223628,0.1247,,,,,,214,0,214,0,1,,,,,
,,361163,001,2023-07-24_21h07.50.983,arm3_eps,2022.2.5,Win32,59.98080614,603926bba0efdd351a1cd56f,64aea9d0f615b6559c281482,64becb9417a0666e721c6d80,up,1,0.3,0.3071,7,0,0.216,,,,,,215,0,215,0,1,,,,,
,,361163,001,2023-07-24_21h07.50.983,arm3_eps,2022.2.5,Win32,59.98080614,603926bba0efdd351a1cd56f,64aea9d0f615b6559c281482,64becb9417a0666e721c6d80,right,1,0.3,0.3071,7,0.009351977,0.717,,,,,,216,0,216,0,1,,,,,
,,361163,001,2023-07-24_21h07.50.983,arm3_eps,2022.2.5,Win32,59.98080614,603926bba0efdd351a1cd56f,64aea9d0f615b6559c281482,64becb9417a0666e721c6d80,right,1,0.3,0.3071,7,0.020875968,0.1289,,,,,,217,0,217,0,1,,,,,
,,361163,001,2023-07-24_21h07.50.983,arm3_eps,2022.2.5,Win32,59.98080614,603926bba0efdd351a1cd56f,64aea9d0f615b6559c281482,64becb9417a0666e721c6d80,right,1,0.3,0.3071,7,0.038665445,0.1502,,,,,,218,0,218,0,1,,,,,
,,361163,001,2023-07-24_21h07.50.983,arm3_eps,2022.2.5,Win32,59.98080614,603926bba0efdd351a1cd56f,64aea9d0f615b6559c281482,64becb9417a0666e721c6d80,right,1,0.3,0.3071,7,0.043070438,0.1168,,,,,,219,0,219,0,1,,,,,
,,361163,001,2023-07-24_21h07.50.983,arm3_eps,2022.2.5,Win32,59.98080614,603926bba0efdd351a1cd56f,64aea9d0f615b6559c281482,64becb9417a0666e721c6d80,right,1,0.3,0.3071,7,0.051918199,0.1503,,,,,,220,0,220,0,1,,,,,
,,361163,001,2023-07-24_21h07.50.983,arm3_eps,2022.2.5,Win32,59.98080614,603926bba0efdd351a1cd56f,64aea9d0f615b6559c281482,64becb9417a0666e721c6d80,right,1,0.3,0.3071,7,0.052958901,0.1171,,,,,,221,0,221,0,1,,,,,
,,361163,001,2023-07-24_21h07.50.983,arm3_eps,2022.2.5,Win32,59.98080614,603926bba0efdd351a1cd56f,64aea9d0f615b6559c281482,64becb9417a0666e721c6d80,up,-1,0.3,0.3071,7,0,0.1837,,,,,,222,0,222,0,1,,,,,
,,361163,001,2023-07-24_21h07.50.983,arm3_eps,2022.2.5,Win32,59.98080614,603926bba0efdd351a1cd56f,64aea9d0f615b6559c281482,64becb9417a0666e721c6d80,right,-1,0.3,0.3071,7,-0.009966977,0.6001,,,,,,223,0,223,0,1,,,,,
,,361163,001,2023-07-24_21h07.50.983,arm3_eps,2022.2.5,Win32,59.98080614,603926bba0efdd351a1cd56f,64aea9d0f615b6559c281482,64becb9417a0666e721c6d80,right,-1,0.3,0.3071,7,-0.037522286,0.1383,,,,,,224,0,224,0,1,,,,,
,,361163,001,2023-07-24_21h07.50.983,arm3_eps,2022.2.5,Win32,59.98080614,603926bba0efdd351a1cd56f,64aea9d0f615b6559c281482,64becb9417a0666e721c6d80,right,-1,0.3,0.3071,7,-0.032349039,0.1474,,,,,,225,0,225,0,1,,,,,
,,361163,001,2023-07-24_21h07.50.983,arm3_eps,2022.2.5,Win32,59.98080614,603926bba0efdd351a1cd56f,64aea9d0f615b6559c281482,64becb9417a0666e721c6d80,right,-1,0.3,0.3071,7,-0.031363957,0.1341,,,,,,226,0,226,0,1,,,,,
,,361163,001,2023-07-24_21h07.50.983,arm3_eps,2022.2.5,Win32,59.98080614,603926bba0efdd351a1cd56f,64aea9d0f615b6559c281482,64becb9417a0666e721c6d80,right,-1,0.3,0.3071,7,-0.02024083,0.1102,,,,,,227,0,227,0,1,,,,,
,,361163,001,2023-07-24_21h07.50.983,arm3_eps,2022.2.5,Win32,59.98080614,603926bba0efdd351a1cd56f,64aea9d0f615b6559c281482,64becb9417a0666e721c6d80,down,-1,0.3,0.3071,7,0,0.161,,,,,,228,0,228,0,1,,,,,
,,361163,001,2023-07-24_21h07.50.983,arm3_eps,2022.2.5,Win32,59.98080614,603926bba0efdd351a1cd56f,64aea9d0f615b6559c281482,64becb9417a0666e721c6d80,right,-1,0.3,0.3071,7,0.029390045,0.2414,,,,,,229,0,229,0,1,,,,,
,,361163,001,2023-07-24_21h07.50.983,arm3_eps,2022.2.5,Win32,59.98080614,603926bba0efdd351a1cd56f,64aea9d0f615b6559c281482,64becb9417a0666e721c6d80,right,-1,0.3,0.3071,7,-0.001532416,0.1837,,,,,,230,0,230,0,1,,,,,
,,361163,001,2023-07-24_21h07.50.983,arm3_eps,2022.2.5,Win32,59.98080614,603926bba0efdd351a1cd56f,64aea9d0f615b6559c281482,64becb9417a0666e721c6d80,right,-1,0.3,0.3071,7,-0.000298637,0.1429,,,,,,231,0,231,0,1,,,,,
,,361163,001,2023-07-24_21h07.50.983,arm3_eps,2022.2.5,Win32,59.98080614,603926bba0efdd351a1cd56f,64aea9d0f615b6559c281482,64becb9417a0666e721c6d80,right,-1,0.3,0.3071,7,0.016042349,0.1336,,,,,,232,0,232,0,1,,,,,
,,361163,001,2023-07-24_21h07.50.983,arm3_eps,2022.2.5,Win32,59.98080614,603926bba0efdd351a1cd56f,64aea9d0f615b6559c281482,64becb9417a0666e721c6d80,right,-1,0.3,0.3071,7,0.003423225,0.2903,,,,,,233,0,233,0,1,,,,,
,,361163,001,2023-07-24_21h07.50.983,arm3_eps,2022.2.5,Win32,59.98080614,603926bba0efdd351a1cd56f,64aea9d0f615b6559c281482,64becb9417a0666e721c6d80,right,-1,0.3,0.3071,7,0.017496189,0.1503,,,,,,234,0,234,0,1,,,,,
,,361163,001,2023-07-24_21h07.50.983,arm3_eps,2022.2.5,Win32,59.98080614,603926bba0efdd351a1cd56f,64aea9d0f615b6559c281482,64becb9417a0666e721c6d80,right,-1,0.3,0.3071,7,-0.011750465,0.1429,,,,,,235,0,235,0,1,,,,,
,,361163,001,2023-07-24_21h07.50.983,arm3_eps,2022.2.5,Win32,59.98080614,603926bba0efdd351a1cd56f,64aea9d0f615b6559c281482,64becb9417a0666e721c6d80,right,-1,0.3,0.3071,7,-0.031226342,0.1603,,,,,,236,0,236,0,1,,,,,
,,361163,001,2023-07-24_21h07.50.983,arm3_eps,2022.2.5,Win32,59.98080614,603926bba0efdd351a1cd56f,64aea9d0f615b6559c281482,64becb9417a0666e721c6d80,down,-1,0.3,0.3071,7,0,0.4178,,,,,,237,0,237,0,1,,,,,
,,361163,001,2023-07-24_21h07.50.983,arm3_eps,2022.2.5,Win32,59.98080614,603926bba0efdd351a1cd56f,64aea9d0f615b6559c281482,64becb9417a0666e721c6d80,right,-1,0.3,0.3071,7,-0.000371746,0.2389,,,,,,238,0,238,0,1,,,,,
,,361163,001,2023-07-24_21h07.50.983,arm3_eps,2022.2.5,Win32,59.98080614,603926bba0efdd351a1cd56f,64aea9d0f615b6559c281482,64becb9417a0666e721c6d80,right,-1,0.3,0.3071,7,0.018443456,0.1563,,,,,,239,0,239,0,1,,,,,
,,361163,001,2023-07-24_21h07.50.983,arm3_eps,2022.2.5,Win32,59.98080614,603926bba0efdd351a1cd56f,64aea9d0f615b6559c281482,64becb9417a0666e721c6d80,right,-1,0.3,0.3071,7,-0.012335759,0.1396,,,,,,240,0,240,0,1,,,,,
,,361163,001,2023-07-24_21h07.50.983,arm3_eps,2022.2.5,Win32,59.98080614,603926bba0efdd351a1cd56f,64aea9d0f615b6559c281482,64becb9417a0666e721c6d80,right,-1,0.3,0.3071,7,-0.041226556,0.1406,,,,,,241,0,241,0,1,,,,,
,,361163,001,2023-07-24_21h07.50.983,arm3_eps,2022.2.5,Win32,59.98080614,603926bba0efdd351a1cd56f,64aea9d0f615b6559c281482,64becb9417a0666e721c6d80,right,-1,0.3,0.3071,7,-0.040666576,0.1329,,,,,,242,0,242,0,1,,,,,
,,361163,001,2023-07-24_21h07.50.983,arm3_eps,2022.2.5,Win32,59.98080614,603926bba0efdd351a1cd56f,64aea9d0f615b6559c281482,64becb9417a0666e721c6d80,right,-1,0.3,0.3071,7,-0.056485549,0.1502,,,,,,243,0,243,0,1,,,,,
,,361163,001,2023-07-24_21h07.50.983,arm3_eps,2022.2.5,Win32,59.98080614,603926bba0efdd351a1cd56f,64aea9d0f615b6559c281482,64becb9417a0666e721c6d80,down,-1,0.3,0.3071,7,0,0.2002,,,,,,244,0,244,0,1,,,,,
,,361163,001,2023-07-24_21h07.50.983,arm3_eps,2022.2.5,Win32,59.98080614,603926bba0efdd351a1cd56f,64aea9d0f615b6559c281482,64becb9417a0666e721c6d80,right,-1,0.3,0.3071,7,-0.00373313,0.2408,,,,,,245,0,245,0,1,,,,,
,,361163,001,2023-07-24_21h07.50.983,arm3_eps,2022.2.5,Win32,59.98080614,603926bba0efdd351a1cd56f,64aea9d0f615b6559c281482,64becb9417a0666e721c6d80,right,-1,0.3,0.3071,7,-0.017532923,0.1669,,,,,,246,0,246,0,1,,,,,
,,361163,001,2023-07-24_21h07.50.983,arm3_eps,2022.2.5,Win32,59.98080614,603926bba0efdd351a1cd56f,64aea9d0f615b6559c281482,64becb9417a0666e721c6d80,right,-1,0.3,0.3071,7,-0.029214764,0.127,,,,,,247,0,247,0,1,,,,,
,,361163,001,2023-07-24_21h07.50.983,arm3_eps,2022.2.5,Win32,59.98080614,603926bba0efdd351a1cd56f,64aea9d0f615b6559c281482,64becb9417a0666e721c6d80,right,-1,0.3,0.3071,7,-0.001641668,0.1336,,,,,,248,0,248,0,1,,,,,
,,361163,001,2023-07-24_21h07.50.983,arm3_eps,2022.2.5,Win32,59.98080614,603926bba0efdd351a1cd56f,64aea9d0f615b6559c281482,64becb9417a0666e721c6d80,right,-1,0.3,0.3071,7,-0.037557937,0.1227,,,,,,249,0,249,0,1,,,,,
,,361163,001,2023-07-24_21h07.50.983,arm3_eps,2022.2.5,Win32,59.98080614,603926bba0efdd351a1cd56f,64aea9d0f615b6559c281482,64becb9417a0666e721c6d80,right,-1,0.3,0.3071,7,-0.073377982,0.1086,,,,,,250,0,250,0,1,,,,,
,,361163,001,2023-07-24_21h07.50.983,arm3_eps,2022.2.5,Win32,59.98080614,603926bba0efdd351a1cd56f,64aea9d0f615b6559c281482,64becb9417a0666e721c6d80,right,-1,0.3,0.3071,7,-0.076223042,0.1435,,,,,,251,0,251,0,1,,,,,
,,361163,001,2023-07-24_21h07.50.983,arm3_eps,2022.2.5,Win32,59.98080614,603926bba0efdd351a1cd56f,64aea9d0f615b6559c281482,64becb9417a0666e721c6d80,down,-1,0.3,0.3071,7,0,0.1669,,,,,,252,0,252,0,1,,,,,
,,361163,001,2023-07-24_21h07.50.983,arm3_eps,2022.2.5,Win32,59.98080614,603926bba0efdd351a1cd56f,64aea9d0f615b6559c281482,64becb9417a0666e721c6d80,right,-1,0.3,0.3071,7,-0.004453481,0.2335,,,,,,253,0,253,0,1,,,,,
,,361163,001,2023-07-24_21h07.50.983,arm3_eps,2022.2.5,Win32,59.98080614,603926bba0efdd351a1cd56f,64aea9d0f615b6559c281482,64becb9417a0666e721c6d80,right,-1,0.3,0.3071,7,-0.01730095,0.1335,,,,,,254,0,254,0,1,,,,,
,,361163,001,2023-07-24_21h07.50.983,arm3_eps,2022.2.5,Win32,59.98080614,603926bba0efdd351a1cd56f,64aea9d0f615b6559c281482,64becb9417a0666e721c6d80,right,-1,0.3,0.3071,7,-0.023059337,0.1502,,,,,,255,0,255,0,1,,,,,
,,361163,001,2023-07-24_21h07.50.983,arm3_eps,2022.2.5,Win32,59.98080614,603926bba0efdd351a1cd56f,64aea9d0f615b6559c281482,64becb9417a0666e721c6d80,right,-1,0.3,0.3071,7,-0.059649704,0.1139,,,,,,256,0,256,0,1,,,,,
,,361163,001,2023-07-24_21h07.50.983,arm3_eps,2022.2.5,Win32,59.98080614,603926bba0efdd351a1cd56f,64aea9d0f615b6559c281482,64becb9417a0666e721c6d80,right,-1,0.3,0.3071,7,-0.079087872,0.1408,,,,,,257,0,257,0,1,,,,,
,,361163,001,2023-07-24_21h07.50.983,arm3_eps,2022.2.5,Win32,59.98080614,603926bba0efdd351a1cd56f,64aea9d0f615b6559c281482,64becb9417a0666e721c6d80,right,-1,0.3,0.3071,7,-0.079933899,0.1337,,,,,,258,0,258,0,1,,,,,
,,361163,001,2023-07-24_21h07.50.983,arm3_eps,2022.2.5,Win32,59.98080614,603926bba0efdd351a1cd56f,64aea9d0f615b6559c281482,64becb9417a0666e721c6d80,down,-1,0.3,0.3071,7,0,0.1168,,,,,,259,0,259,0,1,,,,,
,,361163,001,2023-07-24_21h07.50.983,arm3_eps,2022.2.5,Win32,59.98080614,603926bba0efdd351a1cd56f,64aea9d0f615b6559c281482,64becb9417a0666e721c6d80,right,-1,0.3,0.3071,7,-0.033813377,0.2001,,,,,,260,0,260,0,1,,,,,
,,361163,001,2023-07-24_21h07.50.983,arm3_eps,2022.2.5,Win32,59.98080614,603926bba0efdd351a1cd56f,64aea9d0f615b6559c281482,64becb9417a0666e721c6d80,right,-1,0.3,0.3071,7,-0.016369993,0.1497,,,,,,261,0,261,0,1,,,,,
,,361163,001,2023-07-24_21h07.50.983,arm3_eps,2022.2.5,Win32,59.98080614,603926bba0efdd351a1cd56f,64aea9d0f615b6559c281482,64becb9417a0666e721c6d80,right,-1,0.3,0.3071,7,-0.02788837,0.1163,,,,,,262,0,262,0,1,,,,,
,,361163,001,2023-07-24_21h07.50.983,arm3_eps,2022.2.5,Win32,59.98080614,603926bba0efdd351a1cd56f,64aea9d0f615b6559c281482,64becb9417a0666e721c6d80,right,-1,0.3,0.3071,7,-0.042241001,0.4859,,,,,,263,0,263,0,1,,,,,
,,361163,001,2023-07-24_21h07.50.983,arm3_eps,2022.2.5,Win32,59.98080614,603926bba0efdd351a1cd56f,64aea9d0f615b6559c281482,64becb9417a0666e721c6d80,right,-1,0.3,0.3071,7,-0.057396811,0.1852,,,,,,264,0,264,0,1,,,,,
,,361163,001,2023-07-24_21h07.50.983,arm3_eps,2022.2.5,Win32,59.98080614,603926bba0efdd351a1cd56f,64aea9d0f615b6559c281482,64becb9417a0666e721c6d80,right,-1,0.3,0.3071,7,-0.054057229,0.1126,,,,,,265,0,265,0,1,,,,,
,,361163,001,2023-07-24_21h07.50.983,arm3_eps,2022.2.5,Win32,59.98080614,603926bba0efdd351a1cd56f,64aea9d0f615b6559c281482,64becb9417a0666e721c6d80,down,1,0.3,0.3071,7,0,0.1553,,,,,,266,0,266,0,1,,,,,
,,361163,001,2023-07-24_21h07.50.983,arm3_eps,2022.2.5,Win32,59.98080614,603926bba0efdd351a1cd56f,64aea9d0f615b6559c281482,64becb9417a0666e721c6d80,right,1,0.3,0.3071,7,0.012593163,0.3081,,,,,,267,0,267,0,1,,,,,
,,361163,001,2023-07-24_21h07.50.983,arm3_eps,2022.2.5,Win32,59.98080614,603926bba0efdd351a1cd56f,64aea9d0f615b6559c281482,64becb9417a0666e721c6d80,right,1,0.3,0.3071,7,0.004926806,0.167,,,,,,268,0,268,0,1,,,,,
,,361163,001,2023-07-24_21h07.50.983,arm3_eps,2022.2.5,Win32,59.98080614,603926bba0efdd351a1cd56f,64aea9d0f615b6559c281482,64becb9417a0666e721c6d80,right,1,0.3,0.3071,7,0.01144923,0.1514,,,,,,269,0,269,0,1,,,,,
,,361163,001,2023-07-24_21h07.50.983,arm3_eps,2022.2.5,Win32,59.98080614,603926bba0efdd351a1cd56f,64aea9d0f615b6559c281482,64becb9417a0666e721c6d80,right,1,0.3,0.3071,7,0.044963676,0.144,,,,,,270,0,270,0,1,,,,,
,,361163,001,2023-07-24_21h07.50.983,arm3_eps,2022.2.5,Win32,59.98080614,603926bba0efdd351a1cd56f,64aea9d0f615b6559c281482,64becb9417a0666e721c6d80,right,1,0.3,0.3071,7,0.067830362,0.1454,,,,,,271,0,271,0,1,,,,,
,,361163,001,2023-07-24_21h07.50.983,arm3_eps,2022.2.5,Win32,59.98080614,603926bba0efdd351a1cd56f,64aea9d0f615b6559c281482,64becb9417a0666e721c6d80,up,-1,0.3,0.3071,8,0,0.2336,,,,,,272,0,272,0,1,,,,,
,,361163,001,2023-07-24_21h07.50.983,arm3_eps,2022.2.5,Win32,59.98080614,603926bba0efdd351a1cd56f,64aea9d0f615b6559c281482,64becb9417a0666e721c6d80,right,-1,0.3,0.3071,8,0.000744439,0.4001,,,,,,273,0,273,0,1,,,,,
,,361163,001,2023-07-24_21h07.50.983,arm3_eps,2022.2.5,Win32,59.98080614,603926bba0efdd351a1cd56f,64aea9d0f615b6559c281482,64becb9417a0666e721c6d80,right,-1,0.3,0.3071,8,-0.016455735,0.3334,,,,,,274,0,274,0,1,,,,,
,,361163,001,2023-07-24_21h07.50.983,arm3_eps,2022.2.5,Win32,59.98080614,603926bba0efdd351a1cd56f,64aea9d0f615b6559c281482,64becb9417a0666e721c6d80,right,-1,0.3,0.3071,8,-0.061508676,0.1502,,,,,,275,0,275,0,1,,,,,
,,361163,001,2023-07-24_21h07.50.983,arm3_eps,2022.2.5,Win32,59.98080614,603926bba0efdd351a1cd56f,64aea9d0f615b6559c281482,64becb9417a0666e721c6d80,right,-1,0.3,0.3071,8,-0.090085192,0.1669,,,,,,276,0,276,0,1,,,,,
,,361163,001,2023-07-24_21h07.50.983,arm3_eps,2022.2.5,Win32,59.98080614,603926bba0efdd351a1cd56f,64aea9d0f615b6559c281482,64becb9417a0666e721c6d80,right,-1,0.3,0.3071,8,-0.081625317,0.1961,,,,,,277,0,277,0,1,,,,,
,,361163,001,2023-07-24_21h07.50.983,arm3_eps,2022.2.5,Win32,59.98080614,603926bba0efdd351a1cd56f,64aea9d0f615b6559c281482,64becb9417a0666e721c6d80,down,-1,0.3,0.3071,9,0,0.4274,,,,,,278,0,278,0,1,,,,,
,,361163,001,2023-07-24_21h07.50.983,arm3_eps,2022.2.5,Win32,59.98080614,603926bba0efdd351a1cd56f,64aea9d0f615b6559c281482,64becb9417a0666e721c6d80,right,-1,0.3,0.3071,9,-0.003959247,0.5854,,,,,,279,0,279,0,1,,,,,
,,361163,001,2023-07-24_21h07.50.983,arm3_eps,2022.2.5,Win32,59.98080614,603926bba0efdd351a1cd56f,64aea9d0f615b6559c281482,64becb9417a0666e721c6d80,right,-1,0.3,0.3071,9,-0.039176183,0.1527,,,,,,280,0,280,0,1,,,,,
,,361163,001,2023-07-24_21h07.50.983,arm3_eps,2022.2.5,Win32,59.98080614,603926bba0efdd351a1cd56f,64aea9d0f615b6559c281482,64becb9417a0666e721c6d80,right,-1,0.3,0.3071,9,-0.058711092,0.1535,,,,,,281,0,281,0,1,,,,,
,,361163,001,2023-07-24_21h07.50.983,arm3_eps,2022.2.5,Win32,59.98080614,603926bba0efdd351a1cd56f,64aea9d0f615b6559c281482,64becb9417a0666e721c6d80,right,-1,0.3,0.3071,9,-0.105184767,0.1781,,,,,,282,0,282,0,1,,,,,
,,361163,001,2023-07-24_21h07.50.983,arm3_eps,2022.2.5,Win32,59.98080614,603926bba0efdd351a1cd56f,64aea9d0f615b6559c281482,64becb9417a0666e721c6d80,down,-1,0.3,0.3071,10,0,0.235,,,,,,283,0,283,0,1,,,,,
,,361163,001,2023-07-24_21h07.50.983,arm3_eps,2022.2.5,Win32,59.98080614,603926bba0efdd351a1cd56f,64aea9d0f615b6559c281482,64becb9417a0666e721c6d80,right,-1,0.3,0.3071,10,-0.036745343,0.9354,,,,,,284,0,284,0,1,,,,,
,,361163,001,2023-07-24_21h07.50.983,arm3_eps,2022.2.5,Win32,59.98080614,603926bba0efdd351a1cd56f,64aea9d0f615b6559c281482,64becb9417a0666e721c6d80,right,-1,0.3,0.3071,10,-0.066834736,0.2008,,,,,,285,0,285,0,1,,,,,
,,361163,001,2023-07-24_21h07.50.983,arm3_eps,2022.2.5,Win32,59.98080614,603926bba0efdd351a1cd56f,64aea9d0f615b6559c281482,64becb9417a0666e721c6d80,right,-1,0.3,0.3071,10,-0.037213567,0.1594,,,,,,286,0,286,0,1,,,,,
,,361163,001,2023-07-24_21h07.50.983,arm3_eps,2022.2.5,Win32,59.98080614,603926bba0efdd351a1cd56f,64aea9d0f615b6559c281482,64becb9417a0666e721c6d80,right,-1,0.3,0.3071,10,-0.0703725,0.1761,,,,,,287,0,287,0,1,,,,,
,,361163,001,2023-07-24_21h07.50.983,arm3_eps,2022.2.5,Win32,59.98080614,603926bba0efdd351a1cd56f,64aea9d0f615b6559c281482,64becb9417a0666e721c6d80,right,-1,0.3,0.3071,10,-0.047981762,0.3364,,,,,,288,0,288,0,1,,,,,
,,361163,001,2023-07-24_21h07.50.983,arm3_eps,2022.2.5,Win32,59.98080614,603926bba0efdd351a1cd56f,64aea9d0f615b6559c281482,64becb9417a0666e721c6d80,down,-1,0.3,0.3071,11,0,0.3295,,,,,,289,0,289,0,1,,,,,
,,361163,001,2023-07-24_21h07.50.983,arm3_eps,2022.2.5,Win32,59.98080614,603926bba0efdd351a1cd56f,64aea9d0f615b6559c281482,64becb9417a0666e721c6d80,right,-1,0.3,0.3071,11,0.00905937,0.5716,,,,,,290,0,290,0,1,,,,,
,,361163,001,2023-07-24_21h07.50.983,arm3_eps,2022.2.5,Win32,59.98080614,603926bba0efdd351a1cd56f,64aea9d0f615b6559c281482,64becb9417a0666e721c6d80,right,-1,0.3,0.3071,11,-0.014898809,0.1795,,,,,,291,0,291,0,1,,,,,
,,361163,001,2023-07-24_21h07.50.983,arm3_eps,2022.2.5,Win32,59.98080614,603926bba0efdd351a1cd56f,64aea9d0f615b6559c281482,64becb9417a0666e721c6d80,right,-1,0.3,0.3071,11,-0.003304345,0.1716,,,,,,292,0,292,0,1,,,,,
,,361163,001,2023-07-24_21h07.50.983,arm3_eps,2022.2.5,Win32,59.98080614,603926bba0efdd351a1cd56f,64aea9d0f615b6559c281482,64becb9417a0666e721c6d80,right,-1,0.3,0.3071,11,-0.027814688,0.1556,,,,,,293,0,293,0,1,,,,,
,,361163,001,2023-07-24_21h07.50.983,arm3_eps,2022.2.5,Win32,59.98080614,603926bba0efdd351a1cd56f,64aea9d0f615b6559c281482,64becb9417a0666e721c6d80,right,-1,0.3,0.3071,11,-0.072198985,0.1668,,,,,,294,0,294,0,1,,,,,
,,361163,001,2023-07-24_21h07.50.983,arm3_eps,2022.2.5,Win32,59.98080614,603926bba0efdd351a1cd56f,64aea9d0f615b6559c281482,64becb9417a0666e721c6d80,right,-1,0.3,0.3071,11,-0.073975162,0.2768,,,,,,295,0,295,0,1,,,,,
,,361163,001,2023-07-24_21h07.50.983,arm3_eps,2022.2.5,Win32,59.98080614,603926bba0efdd351a1cd56f,64aea9d0f615b6559c281482,64becb9417a0666e721c6d80,down,-1,0.3,0.3071,11,0,0.2671,,,,,,296,0,296,0,1,,,,,
,,361163,001,2023-07-24_21h07.50.983,arm3_eps,2022.2.5,Win32,59.98080614,603926bba0efdd351a1cd56f,64aea9d0f615b6559c281482,64becb9417a0666e721c6d80,right,-1,0.3,0.3071,11,-0.033544563,0.5498,,,,,,297,0,297,0,1,,,,,
,,361163,001,2023-07-24_21h07.50.983,arm3_eps,2022.2.5,Win32,59.98080614,603926bba0efdd351a1cd56f,64aea9d0f615b6559c281482,64becb9417a0666e721c6d80,right,-1,0.3,0.3071,11,-0.033605916,0.1665,,,,,,298,0,298,0,1,,,,,
,,361163,001,2023-07-24_21h07.50.983,arm3_eps,2022.2.5,Win32,59.98080614,603926bba0efdd351a1cd56f,64aea9d0f615b6559c281482,64becb9417a0666e721c6d80,right,-1,0.3,0.3071,11,-0.056124493,0.1749,,,,,,299,0,299,0,1,,,,,
,,361163,001,2023-07-24_21h07.50.983,arm3_eps,2022.2.5,Win32,59.98080614,603926bba0efdd351a1cd56f,64aea9d0f615b6559c281482,64becb9417a0666e721c6d80,right,-1,0.3,0.3071,11,-0.047612847,0.1517,,,,,,300,0,300,0,1,,,,,
,,361163,001,2023-07-24_21h07.50.983,arm3_eps,2022.2.5,Win32,59.98080614,603926bba0efdd351a1cd56f,64aea9d0f615b6559c281482,64becb9417a0666e721c6d80,right,-1,0.3,0.3071,11,-0.047442138,0.1516,,,,,,301,0,301,0,1,,,,,
,,361163,001,2023-07-24_21h07.50.983,arm3_eps,2022.2.5,Win32,59.98080614,603926bba0efdd351a1cd56f,64aea9d0f615b6559c281482,64becb9417a0666e721c6d80,down,1,0.3,0.3071,12,0,0.2403,,,,,,302,0,302,0,1,,,,,
,,361163,001,2023-07-24_21h07.50.983,arm3_eps,2022.2.5,Win32,59.98080614,603926bba0efdd351a1cd56f,64aea9d0f615b6559c281482,64becb9417a0666e721c6d80,right,1,0.3,0.3071,12,0.024597533,0.5736,,,,,,303,0,303,0,1,,,,,
,,361163,001,2023-07-24_21h07.50.983,arm3_eps,2022.2.5,Win32,59.98080614,603926bba0efdd351a1cd56f,64aea9d0f615b6559c281482,64becb9417a0666e721c6d80,right,1,0.3,0.3071,12,0.038386811,0.1577,,,,,,304,0,304,0,1,,,,,
,,361163,001,2023-07-24_21h07.50.983,arm3_eps,2022.2.5,Win32,59.98080614,603926bba0efdd351a1cd56f,64aea9d0f615b6559c281482,64becb9417a0666e721c6d80,right,1,0.3,0.3071,12,0.035213589,0.1583,,,,,,305,0,305,0,1,,,,,
,,361163,001,2023-07-24_21h07.50.983,arm3_eps,2022.2.5,Win32,59.98080614,603926bba0efdd351a1cd56f,64aea9d0f615b6559c281482,64becb9417a0666e721c6d80,right,1,0.3,0.3071,12,0.022883751,0.1835,,,,,,306,0,306,0,1,,,,,
,,361163,001,2023-07-24_21h07.50.983,arm3_eps,2022.2.5,Win32,59.98080614,603926bba0efdd351a1cd56f,64aea9d0f615b6559c281482,64becb9417a0666e721c6d80,right,1,0.3,0.3071,12,0.02785359,0.2069,,,,,,307,0,307,0,1,,,,,
,,361163,001,2023-07-24_21h07.50.983,arm3_eps,2022.2.5,Win32,59.98080614,603926bba0efdd351a1cd56f,64aea9d0f615b6559c281482,64becb9417a0666e721c6d80,up,1,0.3,0.3071,12,0,0.5337,,,,,,308,0,308,0,1,,,,,
,,361163,001,2023-07-24_21h07.50.983,arm3_eps,2022.2.5,Win32,59.98080614,603926bba0efdd351a1cd56f,64aea9d0f615b6559c281482,64becb9417a0666e721c6d80,right,1,0.3,0.3071,12,0.041649224,0.471,,,,,,309,0,309,0,1,,,,,
,,361163,001,2023-07-24_21h07.50.983,arm3_eps,2022.2.5,Win32,59.98080614,603926bba0efdd351a1cd56f,64aea9d0f615b6559c281482,64becb9417a0666e721c6d80,right,1,0.3,0.3071,12,0.051204943,0.139,,,,,,310,0,310,0,1,,,,,
,,361163,001,2023-07-24_21h07.50.983,arm3_eps,2022.2.5,Win32,59.98080614,603926bba0efdd351a1cd56f,64aea9d0f615b6559c281482,64becb9417a0666e721c6d80,right,1,0.3,0.3071,12,0.053417421,0.1495,,,,,,311,0,311,0,1,,,,,
,,361163,001,2023-07-24_21h07.50.983,arm3_eps,2022.2.5,Win32,59.98080614,603926bba0efdd351a1cd56f,64aea9d0f615b6559c281482,64becb9417a0666e721c6d80,right,1,0.3,0.3071,12,0.02673273,0.1415,,,,,,312,0,312,0,1,,,,,
,,361163,001,2023-07-24_21h07.50.983,arm3_eps,2022.2.5,Win32,59.98080614,603926bba0efdd351a1cd56f,64aea9d0f615b6559c281482,64becb9417a0666e721c6d80,right,1,0.3,0.3071,12,0.035668225,0.1509,,,,,,313,0,313,0,1,,,,,
,,361163,001,2023-07-24_21h07.50.983,arm3_eps,2022.2.5,Win32,59.98080614,603926bba0efdd351a1cd56f,64aea9d0f615b6559c281482,64becb9417a0666e721c6d80,right,1,0.3,0.3071,12,0.025892548,0.1668,,,,,,314,0,314,0,1,,,,,
,,361163,001,2023-07-24_21h07.50.983,arm3_eps,2022.2.5,Win32,59.98080614,603926bba0efdd351a1cd56f,64aea9d0f615b6559c281482,64becb9417a0666e721c6d80,up,1,0.3,0.3071,12,0,0.5496,,,,,,315,0,315,0,1,,,,,
,,361163,001,2023-07-24_21h07.50.983,arm3_eps,2022.2.5,Win32,59.98080614,603926bba0efdd351a1cd56f,64aea9d0f615b6559c281482,64becb9417a0666e721c6d80,right,1,0.3,0.3071,12,0.021755477,0.2835,,,,,,316,0,316,0,1,,,,,
,,361163,001,2023-07-24_21h07.50.983,arm3_eps,2022.2.5,Win32,59.98080614,603926bba0efdd351a1cd56f,64aea9d0f615b6559c281482,64becb9417a0666e721c6d80,right,1,0.3,0.3071,12,0.020076444,0.1499,,,,,,317,0,317,0,1,,,,,
,,361163,001,2023-07-24_21h07.50.983,arm3_eps,2022.2.5,Win32,59.98080614,603926bba0efdd351a1cd56f,64aea9d0f615b6559c281482,64becb9417a0666e721c6d80,right,1,0.3,0.3071,12,0.041036284,0.1424,,,,,,318,0,318,0,1,,,,,
,,361163,001,2023-07-24_21h07.50.983,arm3_eps,2022.2.5,Win32,59.98080614,603926bba0efdd351a1cd56f,64aea9d0f615b6559c281482,64becb9417a0666e721c6d80,right,1,0.3,0.3071,12,0.054533801,0.1671,,,,,,319,0,319,0,1,,,,,
,,361163,001,2023-07-24_21h07.50.983,arm3_eps,2022.2.5,Win32,59.98080614,603926bba0efdd351a1cd56f,64aea9d0f615b6559c281482,64becb9417a0666e721c6d80,right,1,0.3,0.3071,12,0.06579543,0.1201,,,,,,320,0,320,0,1,,,,,
,,361163,001,2023-07-24_21h07.50.983,arm3_eps,2022.2.5,Win32,59.98080614,603926bba0efdd351a1cd56f,64aea9d0f615b6559c281482,64becb9417a0666e721c6d80,right,1,0.3,0.3071,12,0.084831168,0.1382,,,,,,321,0,321,0,1,,,,,
,,361163,001,2023-07-24_21h07.50.983,arm3_eps,2022.2.5,Win32,59.98080614,603926bba0efdd351a1cd56f,64aea9d0f615b6559c281482,64becb9417a0666e721c6d80,right,1,0.3,0.3071,12,0.111530672,0.1334,,,,,,322,0,322,0,1,,,,,
,,361163,001,2023-07-24_21h07.50.983,arm3_eps,2022.2.5,Win32,59.98080614,603926bba0efdd351a1cd56f,64aea9d0f615b6559c281482,64becb9417a0666e721c6d80,up,-1,0.3,0.3071,13,0,0.317,,,,,,323,0,323,0,1,,,,,
,,361163,001,2023-07-24_21h07.50.983,arm3_eps,2022.2.5,Win32,59.98080614,603926bba0efdd351a1cd56f,64aea9d0f615b6559c281482,64becb9417a0666e721c6d80,right,-1,0.3,0.3071,13,-0.031119653,0.3349,,,,,,324,0,324,0,1,,,,,
,,361163,001,2023-07-24_21h07.50.983,arm3_eps,2022.2.5,Win32,59.98080614,603926bba0efdd351a1cd56f,64aea9d0f615b6559c281482,64becb9417a0666e721c6d80,right,-1,0.3,0.3071,13,-0.0325691,0.2168,,,,,,325,0,325,0,1,,,,,
,,361163,001,2023-07-24_21h07.50.983,arm3_eps,2022.2.5,Win32,59.98080614,603926bba0efdd351a1cd56f,64aea9d0f615b6559c281482,64becb9417a0666e721c6d80,right,-1,0.3,0.3071,13,-0.033890046,0.2001,,,,,,326,0,326,0,1,,,,,
,,361163,001,2023-07-24_21h07.50.983,arm3_eps,2022.2.5,Win32,59.98080614,603926bba0efdd351a1cd56f,64aea9d0f615b6559c281482,64becb9417a0666e721c6d80,right,-1,0.3,0.3071,13,-0.04603472,0.1337,,,,,,327,0,327,0,1,,,,,
,,361163,001,2023-07-24_21h07.50.983,arm3_eps,2022.2.5,Win32,59.98080614,603926bba0efdd351a1cd56f,64aea9d0f615b6559c281482,64becb9417a0666e721c6d80,right,-1,0.3,0.3071,13,-0.061496852,0.1351,,,,,,328,0,328,0,1,,,,,
,,361163,001,2023-07-24_21h07.50.983,arm3_eps,2022.2.5,Win32,59.98080614,603926bba0efdd351a1cd56f,64aea9d0f615b6559c281482,64becb9417a0666e721c6d80,right,-1,0.3,0.3071,13,-0.07612385,0.1283,,,,,,329,0,329,0,1,,,,,
,,361163,001,2023-07-24_21h07.50.983,arm3_eps,2022.2.5,Win32,59.98080614,603926bba0efdd351a1cd56f,64aea9d0f615b6559c281482,64becb9417a0666e721c6d80,down,-1,0.3,0.3071,13,0,0.2423,,,,,,330,0,330,0,1,,,,,
,,361163,001,2023-07-24_21h07.50.983,arm3_eps,2022.2.5,Win32,59.98080614,603926bba0efdd351a1cd56f,64aea9d0f615b6559c281482,64becb9417a0666e721c6d80,right,-1,0.3,0.3071,13,0.008063735,0.2502,,,,,,331,0,331,0,1,,,,,
,,361163,001,2023-07-24_21h07.50.983,arm3_eps,2022.2.5,Win32,59.98080614,603926bba0efdd351a1cd56f,64aea9d0f615b6559c281482,64becb9417a0666e721c6d80,right,-1,0.3,0.3071,13,0.025057595,0.1666,,,,,,332,0,332,0,1,,,,,
,,361163,001,2023-07-24_21h07.50.983,arm3_eps,2022.2.5,Win32,59.98080614,603926bba0efdd351a1cd56f,64aea9d0f615b6559c281482,64becb9417a0666e721c6d80,right,-1,0.3,0.3071,13,0.003105349,0.1417,,,,,,333,0,333,0,1,,,,,
,,361163,001,2023-07-24_21h07.50.983,arm3_eps,2022.2.5,Win32,59.98080614,603926bba0efdd351a1cd56f,64aea9d0f615b6559c281482,64becb9417a0666e721c6d80,right,-1,0.3,0.3071,13,-0.003360218,0.151,,,,,,334,0,334,0,1,,,,,
,,361163,001,2023-07-24_21h07.50.983,arm3_eps,2022.2.5,Win32,59.98080614,603926bba0efdd351a1cd56f,64aea9d0f615b6559c281482,64becb9417a0666e721c6d80,right,-1,0.3,0.3071,13,0.005664305,0.1278,,,,,,335,0,335,0,1,,,,,
,,361163,001,2023-07-24_21h07.50.983,arm3_eps,2022.2.5,Win32,59.98080614,603926bba0efdd351a1cd56f,64aea9d0f615b6559c281482,64becb9417a0666e721c6d80,right,-1,0.3,0.3071,13,-0.009547165,0.1663,,,,,,336,0,336,0,1,,,,,
,,361163,001,2023-07-24_21h07.50.983,arm3_eps,2022.2.5,Win32,59.98080614,603926bba0efdd351a1cd56f,64aea9d0f615b6559c281482,64becb9417a0666e721c6d80,right,-1,0.3,0.3071,13,-0.043606122,0.1502,,,,,,337,0,337,0,1,,,,,
,,361163,001,2023-07-24_21h07.50.983,arm3_eps,2022.2.5,Win32,59.98080614,603926bba0efdd351a1cd56f,64aea9d0f615b6559c281482,64becb9417a0666e721c6d80,down,1,0.3,0.3071,14,0,0.2118,,,,,,338,0,338,0,1,,,,,
,,361163,001,2023-07-24_21h07.50.983,arm3_eps,2022.2.5,Win32,59.98080614,603926bba0efdd351a1cd56f,64aea9d0f615b6559c281482,64becb9417a0666e721c6d80,right,1,0.3,0.3071,14,0.018072443,0.7064,,,,,,339,0,339,0,1,,,,,
,,361163,001,2023-07-24_21h07.50.983,arm3_eps,2022.2.5,Win32,59.98080614,603926bba0efdd351a1cd56f,64aea9d0f615b6559c281482,64becb9417a0666e721c6d80,right,1,0.3,0.3071,14,0.042938589,0.157,,,,,,340,0,340,0,1,,,,,
,,361163,001,2023-07-24_21h07.50.983,arm3_eps,2022.2.5,Win32,59.98080614,603926bba0efdd351a1cd56f,64aea9d0f615b6559c281482,64becb9417a0666e721c6d80,right,1,0.3,0.3071,14,0.064187273,0.1502,,,,,,341,0,341,0,1,,,,,
,,361163,001,2023-07-24_21h07.50.983,arm3_eps,2022.2.5,Win32,59.98080614,603926bba0efdd351a1cd56f,64aea9d0f615b6559c281482,64becb9417a0666e721c6d80,right,1,0.3,0.3071,14,0.042806534,0.1344,,,,,,342,0,342,0,1,,,,,
,,361163,001,2023-07-24_21h07.50.983,arm3_eps,2022.2.5,Win32,59.98080614,603926bba0efdd351a1cd56f,64aea9d0f615b6559c281482,64becb9417a0666e721c6d80,up,1,0.3,0.3071,15,0,0.2001,,,,,,343,0,343,0,1,,,,,
,,361163,001,2023-07-24_21h07.50.983,arm3_eps,2022.2.5,Win32,59.98080614,603926bba0efdd351a1cd56f,64aea9d0f615b6559c281482,64becb9417a0666e721c6d80,right,1,0.3,0.3071,15,-0.00113845,0.4473,,,,,,344,0,344,0,1,,,,,
,,361163,001,2023-07-24_21h07.50.983,arm3_eps,2022.2.5,Win32,59.98080614,603926bba0efdd351a1cd56f,64aea9d0f615b6559c281482,64becb9417a0666e721c6d80,right,1,0.3,0.3071,15,0.034511256,0.1564,,,,,,345,0,345,0,1,,,,,
,,361163,001,2023-07-24_21h07.50.983,arm3_eps,2022.2.5,Win32,59.98080614,603926bba0efdd351a1cd56f,64aea9d0f615b6559c281482,64becb9417a0666e721c6d80,right,1,0.3,0.3071,15,0.052470316,0.1668,,,,,,346,0,346,0,1,,,,,
,,361163,001,2023-07-24_21h07.50.983,arm3_eps,2022.2.5,Win32,59.98080614,603926bba0efdd351a1cd56f,64aea9d0f615b6559c281482,64becb9417a0666e721c6d80,right,1,0.3,0.3071,15,0.059084948,0.1495,,,,,,347,0,347,0,1,,,,,
,,361163,001,2023-07-24_21h07.50.983,arm3_eps,2022.2.5,Win32,59.98080614,603926bba0efdd351a1cd56f,64aea9d0f615b6559c281482,64becb9417a0666e721c6d80,right,1,0.3,0.3071,15,0.085378702,0.1349,,,,,,348,0,348,0,1,,,,,
,,361163,001,2023-07-24_21h07.50.983,arm3_eps,2022.2.5,Win32,59.98080614,603926bba0efdd351a1cd56f,64aea9d0f615b6559c281482,64becb9417a0666e721c6d80,right,1,0.3,0.3071,15,0.063877015,0.1437,,,,,,349,0,349,0,1,,,,,
,,361163,001,2023-07-24_21h07.50.983,arm3_eps,2022.2.5,Win32,59.98080614,603926bba0efdd351a1cd56f,64aea9d0f615b6559c281482,64becb9417a0666e721c6d80,right,1,0.3,0.3071,15,0.05081674,0.473,,,,,,350,0,350,0,1,,,,,
,,361163,001,2023-07-24_21h07.50.983,arm3_eps,2022.2.5,Win32,59.98080614,603926bba0efdd351a1cd56f,64aea9d0f615b6559c281482,64becb9417a0666e721c6d80,up,1,0.3,0.3071,15,0,0.4838,,,,,,351,0,351,0,1,,,,,
,,361163,001,2023-07-24_21h07.50.983,arm3_eps,2022.2.5,Win32,59.98080614,603926bba0efdd351a1cd56f,64aea9d0f615b6559c281482,64becb9417a0666e721c6d80,right,1,0.3,0.3071,15,0.016092024,1.0659,,,,,,352,0,352,0,1,,,,,
,,361163,001,2023-07-24_21h07.50.983,arm3_eps,2022.2.5,Win32,59.98080614,603926bba0efdd351a1cd56f,64aea9d0f615b6559c281482,64becb9417a0666e721c6d80,right,1,0.3,0.3071,15,0.07564475,0.1256,,,,,,353,0,353,0,1,,,,,
,,361163,001,2023-07-24_21h07.50.983,arm3_eps,2022.2.5,Win32,59.98080614,603926bba0efdd351a1cd56f,64aea9d0f615b6559c281482,64becb9417a0666e721c6d80,right,1,0.3,0.3071,15,0.062285744,0.1438,,,,,,354,0,354,0,1,,,,,
,,361163,001,2023-07-24_21h07.50.983,arm3_eps,2022.2.5,Win32,59.98080614,603926bba0efdd351a1cd56f,64aea9d0f615b6559c281482,64becb9417a0666e721c6d80,right,1,0.3,0.3071,15,0.041875593,0.1692,,,,,,355,0,355,0,1,,,,,
,,361163,001,2023-07-24_21h07.50.983,arm3_eps,2022.2.5,Win32,59.98080614,603926bba0efdd351a1cd56f,64aea9d0f615b6559c281482,64becb9417a0666e721c6d80,right,1,0.3,0.3071,15,0.035113106,0.1371,,,,,,356,0,356,0,1,,,,,
,,361163,001,2023-07-24_21h07.50.983,arm3_eps,2022.2.5,Win32,59.98080614,603926bba0efdd351a1cd56f,64aea9d0f615b6559c281482,64becb9417a0666e721c6d80,right,1,0.3,0.3071,15,0.057657108,0.1543,,,,,,357,0,357,0,1,,,,,
,,361163,001,2023-07-24_21h07.50.983,arm3_eps,2022.2.5,Win32,59.98080614,603926bba0efdd351a1cd56f,64aea9d0f615b6559c281482,64becb9417a0666e721c6d80,right,1,0.3,0.3071,15,0.082724543,0.1552,,,,,,358,0,358,0,1,,,,,
,,361163,001,2023-07-24_21h07.50.983,arm3_eps,2022.2.5,Win32,59.98080614,603926bba0efdd351a1cd56f,64aea9d0f615b6559c281482,64becb9417a0666e721c6d80,up,-1,0.3,0.3071,15,0,0.3718,,,,,,359,0,359,0,1,,,,,
,,361163,001,2023-07-24_21h07.50.983,arm3_eps,2022.2.5,Win32,59.98080614,603926bba0efdd351a1cd56f,64aea9d0f615b6559c281482,64becb9417a0666e721c6d80,right,-1,0.3,0.3071,15,-0.036974096,0.572,,,,,,360,0,360,0,1,,,,,
,,361163,001,2023-07-24_21h07.50.983,arm3_eps,2022.2.5,Win32,59.98080614,603926bba0efdd351a1cd56f,64aea9d0f615b6559c281482,64becb9417a0666e721c6d80,right,-1,0.3,0.3071,15,-0.011288715,0.1556,,,,,,361,0,361,0,1,,,,,
,,361163,001,2023-07-24_21h07.50.983,arm3_eps,2022.2.5,Win32,59.98080614,603926bba0efdd351a1cd56f,64aea9d0f615b6559c281482,64becb9417a0666e721c6d80,right,-1,0.3,0.3071,15,-0.018075271,0.1668,,,,,,362,0,362,0,1,,,,,
,,361163,001,2023-07-24_21h07.50.983,arm3_eps,2022.2.5,Win32,59.98080614,603926bba0efdd351a1cd56f,64aea9d0f615b6559c281482,64becb9417a0666e721c6d80,right,-1,0.3,0.3071,15,-0.038065177,0.1669,,,,,,363,0,363,0,1,,,,,
,,361163,001,2023-07-24_21h07.50.983,arm3_eps,2022.2.5,Win32,59.98080614,603926bba0efdd351a1cd56f,64aea9d0f615b6559c281482,64becb9417a0666e721c6d80,right,-1,0.3,0.3071,15,-0.052552801,0.1417,,,,,,364,0,364,0,1,,,,,
,,361163,001,2023-07-24_21h07.50.983,arm3_eps,2022.2.5,Win32,59.98080614,603926bba0efdd351a1cd56f,64aea9d0f615b6559c281482,64becb9417a0666e721c6d80,right,-1,0.3,0.3071,15,-0.057628109,0.1511,,,,,,365,0,365,0,1,,,,,
,,361163,001,2023-07-24_21h07.50.983,arm3_eps,2022.2.5,Win32,59.98080614,603926bba0efdd351a1cd56f,64aea9d0f615b6559c281482,64becb9417a0666e721c6d80,down,-1,0.3,0.3071,15,0,0.2878,,,,,,366,0,366,0,1,,,,,
,,361163,001,2023-07-24_21h07.50.983,arm3_eps,2022.2.5,Win32,59.98080614,603926bba0efdd351a1cd56f,64aea9d0f615b6559c281482,64becb9417a0666e721c6d80,right,-1,0.3,0.3071,15,-0.027560752,0.3873,,,,,,367,0,367,0,1,,,,,
,,361163,001,2023-07-24_21h07.50.983,arm3_eps,2022.2.5,Win32,59.98080614,603926bba0efdd351a1cd56f,64aea9d0f615b6559c281482,64becb9417a0666e721c6d80,right,-1,0.3,0.3071,15,-0.045486943,0.1466,,,,,,368,0,368,0,1,,,,,
,,361163,001,2023-07-24_21h07.50.983,arm3_eps,2022.2.5,Win32,59.98080614,603926bba0efdd351a1cd56f,64aea9d0f615b6559c281482,64becb9417a0666e721c6d80,right,-1,0.3,0.3071,15,-0.052664787,0.1495,,,,,,369,0,369,0,1,,,,,
,,361163,001,2023-07-24_21h07.50.983,arm3_eps,2022.2.5,Win32,59.98080614,603926bba0efdd351a1cd56f,64aea9d0f615b6559c281482,64becb9417a0666e721c6d80,,,,,,,,,,,,,,,,,,0,0,0,0,1
space,2.6693,361163,001,2023-07-24_21h07.50.983,arm3_eps,2022.2.5,Win32,59.98080614,603926bba0efdd351a1cd56f,64aea9d0f615b6559c281482,64becb9417a0666e721c6d80,right,-1,0.3,0.2429,15,-0.016541916,0.7691,,,,,,0,0,0,0,1,,,,,
,,361163,001,2023-07-24_21h07.50.983,arm3_eps,2022.2.5,Win32,59.98080614,603926bba0efdd351a1cd56f,64aea9d0f615b6559c281482,64becb9417a0666e721c6d80,right,-1,0.3,0.2429,15,-0.01073896,1.0013,,,,,,1,0,1,0,1,,,,,
,,361163,001,2023-07-24_21h07.50.983,arm3_eps,2022.2.5,Win32,59.98080614,603926bba0efdd351a1cd56f,64aea9d0f615b6559c281482,64becb9417a0666e721c6d80,right,-1,0.3,0.2429,15,-0.039867429,0.1119,,,,,,2,0,2,0,1,,,,,
,,361163,001,2023-07-24_21h07.50.983,arm3_eps,2022.2.5,Win32,59.98080614,603926bba0efdd351a1cd56f,64aea9d0f615b6559c281482,64becb9417a0666e721c6d80,right,-1,0.3,0.2429,15,-0.03599445,0.1168,,,,,,3,0,3,0,1,,,,,
,,361163,001,2023-07-24_21h07.50.983,arm3_eps,2022.2.5,Win32,59.98080614,603926bba0efdd351a1cd56f,64aea9d0f615b6559c281482,64becb9417a0666e721c6d80,right,-1,0.3,0.2429,15,-0.06226789,0.1087,,,,,,4,0,4,0,1,,,,,
,,361163,001,2023-07-24_21h07.50.983,arm3_eps,2022.2.5,Win32,59.98080614,603926bba0efdd351a1cd56f,64aea9d0f615b6559c281482,64becb9417a0666e721c6d80,right,-1,0.3,0.2429,15,-0.051336515,0.1193,,,,,,5,0,5,0,1,,,,,
,,361163,001,2023-07-24_21h07.50.983,arm3_eps,2022.2.5,Win32,59.98080614,603926bba0efdd351a1cd56f,64aea9d0f615b6559c281482,64becb9417a0666e721c6d80,right,-1,0.3,0.2429,15,-0.087219934,0.1131,,,,,,6,0,6,0,1,,,,,
,,361163,001,2023-07-24_21h07.50.983,arm3_eps,2022.2.5,Win32,59.98080614,603926bba0efdd351a1cd56f,64aea9d0f615b6559c281482,64becb9417a0666e721c6d80,right,-1,0.3,0.2429,15,-0.121048508,0.1079,,,,,,7,0,7,0,1,,,,,
,,361163,001,2023-07-24_21h07.50.983,arm3_eps,2022.2.5,Win32,59.98080614,603926bba0efdd351a1cd56f,64aea9d0f615b6559c281482,64becb9417a0666e721c6d80,right,-1,0.3,0.2429,15,-0.096318863,0.1328,,,,,,8,0,8,0,1,,,,,
,,361163,001,2023-07-24_21h07.50.983,arm3_eps,2022.2.5,Win32,59.98080614,603926bba0efdd351a1cd56f,64aea9d0f615b6559c281482,64becb9417a0666e721c6d80,right,-1,0.3,0.2429,15,-0.080163343,0.0965,,,,,,9,0,9,0,1,,,,,
,,361163,001,2023-07-24_21h07.50.983,arm3_eps,2022.2.5,Win32,59.98080614,603926bba0efdd351a1cd56f,64aea9d0f615b6559c281482,64becb9417a0666e721c6d80,right,-1,0.3,0.2429,15,-0.105873297,0.1166,,,,,,10,0,10,0,1,,,,,
,,361163,001,2023-07-24_21h07.50.983,arm3_eps,2022.2.5,Win32,59.98080614,603926bba0efdd351a1cd56f,64aea9d0f615b6559c281482,64becb9417a0666e721c6d80,down,-1,0.3,0.2429,15,0,0.1829,,,,,,11,0,11,0,1,,,,,
,,361163,001,2023-07-24_21h07.50.983,arm3_eps,2022.2.5,Win32,59.98080614,603926bba0efdd351a1cd56f,64aea9d0f615b6559c281482,64becb9417a0666e721c6d80,right,-1,0.3,0.2429,15,-0.030064762,0.2786,,,,,,12,0,12,0,1,,,,,
,,361163,001,2023-07-24_21h07.50.983,arm3_eps,2022.2.5,Win32,59.98080614,603926bba0efdd351a1cd56f,64aea9d0f615b6559c281482,64becb9417a0666e721c6d80,right,-1,0.3,0.2429,15,-0.036298817,0.1329,,,,,,13,0,13,0,1,,,,,
,,361163,001,2023-07-24_21h07.50.983,arm3_eps,2022.2.5,Win32,59.98080614,603926bba0efdd351a1cd56f,64aea9d0f615b6559c281482,64becb9417a0666e721c6d80,right,-1,0.3,0.2429,15,-0.045696832,0.1406,,,,,,14,0,14,0,1,,,,,
,,361163,001,2023-07-24_21h07.50.983,arm3_eps,2022.2.5,Win32,59.98080614,603926bba0efdd351a1cd56f,64aea9d0f615b6559c281482,64becb9417a0666e721c6d80,right,-1,0.3,0.2429,15,-0.098889544,0.2836,,,,,,15,0,15,0,1,,,,,
,,361163,001,2023-07-24_21h07.50.983,arm3_eps,2022.2.5,Win32,59.98080614,603926bba0efdd351a1cd56f,64aea9d0f615b6559c281482,64becb9417a0666e721c6d80,right,-1,0.3,0.2429,15,-0.099897634,0.1219,,,,,,16,0,16,0,1,,,,,
,,361163,001,2023-07-24_21h07.50.983,arm3_eps,2022.2.5,Win32,59.98080614,603926bba0efdd351a1cd56f,64aea9d0f615b6559c281482,64becb9417a0666e721c6d80,right,-1,0.3,0.2429,15,-0.10127737,0.1168,,,,,,17,0,17,0,1,,,,,
,,361163,001,2023-07-24_21h07.50.983,arm3_eps,2022.2.5,Win32,59.98080614,603926bba0efdd351a1cd56f,64aea9d0f615b6559c281482,64becb9417a0666e721c6d80,right,-1,0.3,0.2429,15,-0.089510342,0.1099,,,,,,18,0,18,0,1,,,,,
,,361163,001,2023-07-24_21h07.50.983,arm3_eps,2022.2.5,Win32,59.98080614,603926bba0efdd351a1cd56f,64aea9d0f615b6559c281482,64becb9417a0666e721c6d80,right,-1,0.3,0.2429,15,-0.067686317,0.1126,,,,,,19,0,19,0,1,,,,,
,,361163,001,2023-07-24_21h07.50.983,arm3_eps,2022.2.5,Win32,59.98080614,603926bba0efdd351a1cd56f,64aea9d0f615b6559c281482,64becb9417a0666e721c6d80,right,-1,0.3,0.2429,15,-0.080045198,0.1335,,,,,,20,0,20,0,1,,,,,
,,361163,001,2023-07-24_21h07.50.983,arm3_eps,2022.2.5,Win32,59.98080614,603926bba0efdd351a1cd56f,64aea9d0f615b6559c281482,64becb9417a0666e721c6d80,right,-1,0.3,0.2429,15,-0.111656794,0.1169,,,,,,21,0,21,0,1,,,,,
,,361163,001,2023-07-24_21h07.50.983,arm3_eps,2022.2.5,Win32,59.98080614,603926bba0efdd351a1cd56f,64aea9d0f615b6559c281482,64becb9417a0666e721c6d80,right,-1,0.3,0.2429,15,-0.116306369,0.1,,,,,,22,0,22,0,1,,,,,
,,361163,001,2023-07-24_21h07.50.983,arm3_eps,2022.2.5,Win32,59.98080614,603926bba0efdd351a1cd56f,64aea9d0f615b6559c281482,64becb9417a0666e721c6d80,down,1,0.3,0.2429,15,0,0.1668,,,,,,23,0,23,0,1,,,,,
,,361163,001,2023-07-24_21h07.50.983,arm3_eps,2022.2.5,Win32,59.98080614,603926bba0efdd351a1cd56f,64aea9d0f615b6559c281482,64becb9417a0666e721c6d80,right,1,0.3,0.2429,15,0.018102598,0.2266,,,,,,24,0,24,0,1,,,,,
,,361163,001,2023-07-24_21h07.50.983,arm3_eps,2022.2.5,Win32,59.98080614,603926bba0efdd351a1cd56f,64aea9d0f615b6559c281482,64becb9417a0666e721c6d80,right,1,0.3,0.2429,15,0.035898595,0.2007,,,,,,25,0,25,0,1,,,,,
,,361163,001,2023-07-24_21h07.50.983,arm3_eps,2022.2.5,Win32,59.98080614,603926bba0efdd351a1cd56f,64aea9d0f615b6559c281482,64becb9417a0666e721c6d80,right,1,0.3,0.2429,15,0.042721066,0.1501,,,,,,26,0,26,0,1,,,,,
,,361163,001,2023-07-24_21h07.50.983,arm3_eps,2022.2.5,Win32,59.98080614,603926bba0efdd351a1cd56f,64aea9d0f615b6559c281482,64becb9417a0666e721c6d80,right,1,0.3,0.2429,15,0.048135095,0.1447,,,,,,27,0,27,0,1,,,,,
,,361163,001,2023-07-24_21h07.50.983,arm3_eps,2022.2.5,Win32,59.98080614,603926bba0efdd351a1cd56f,64aea9d0f615b6559c281482,64becb9417a0666e721c6d80,right,1,0.3,0.2429,15,0.054376486,0.122,,,,,,28,0,28,0,1,,,,,
,,361163,001,2023-07-24_21h07.50.983,arm3_eps,2022.2.5,Win32,59.98080614,603926bba0efdd351a1cd56f,64aea9d0f615b6559c281482,64becb9417a0666e721c6d80,right,1,0.3,0.2429,15,0.092819017,0.0838,,,,,,29,0,29,0,1,,,,,
,,361163,001,2023-07-24_21h07.50.983,arm3_eps,2022.2.5,Win32,59.98080614,603926bba0efdd351a1cd56f,64aea9d0f615b6559c281482,64becb9417a0666e721c6d80,right,1,0.3,0.2429,15,0.115089649,0.1673,,,,,,30,0,30,0,1,,,,,
,,361163,001,2023-07-24_21h07.50.983,arm3_eps,2022.2.5,Win32,59.98080614,603926bba0efdd351a1cd56f,64aea9d0f615b6559c281482,64becb9417a0666e721c6d80,right,1,0.3,0.2429,15,0.090382512,0.1273,,,,,,31,0,31,0,1,,,,,
,,361163,001,2023-07-24_21h07.50.983,arm3_eps,2022.2.5,Win32,59.98080614,603926bba0efdd351a1cd56f,64aea9d0f615b6559c281482,64becb9417a0666e721c6d80,right,1,0.3,0.2429,15,0.112921868,0.1133,,,,,,32,0,32,0,1,,,,,
,,361163,001,2023-07-24_21h07.50.983,arm3_eps,2022.2.5,Win32,59.98080614,603926bba0efdd351a1cd56f,64aea9d0f615b6559c281482,64becb9417a0666e721c6d80,right,1,0.3,0.2429,15,0.140079175,0.124,,,,,,33,0,33,0,1,,,,,
,,361163,001,2023-07-24_21h07.50.983,arm3_eps,2022.2.5,Win32,59.98080614,603926bba0efdd351a1cd56f,64aea9d0f615b6559c281482,64becb9417a0666e721c6d80,up,1,0.3,0.2429,15,0,0.1835,,,,,,34,0,34,0,1,,,,,
,,361163,001,2023-07-24_21h07.50.983,arm3_eps,2022.2.5,Win32,59.98080614,603926bba0efdd351a1cd56f,64aea9d0f615b6559c281482,64becb9417a0666e721c6d80,right,1,0.3,0.2429,15,-0.0005397,0.2935,,,,,,35,0,35,0,1,,,,,
,,361163,001,2023-07-24_21h07.50.983,arm3_eps,2022.2.5,Win32,59.98080614,603926bba0efdd351a1cd56f,64aea9d0f615b6559c281482,64becb9417a0666e721c6d80,right,1,0.3,0.2429,15,0.033674776,0.1287,,,,,,36,0,36,0,1,,,,,
,,361163,001,2023-07-24_21h07.50.983,arm3_eps,2022.2.5,Win32,59.98080614,603926bba0efdd351a1cd56f,64aea9d0f615b6559c281482,64becb9417a0666e721c6d80,right,1,0.3,0.2429,15,0.04243482,0.1835,,,,,,37,0,37,0,1,,,,,
,,361163,001,2023-07-24_21h07.50.983,arm3_eps,2022.2.5,Win32,59.98080614,603926bba0efdd351a1cd56f,64aea9d0f615b6559c281482,64becb9417a0666e721c6d80,right,1,0.3,0.2429,15,0.047304254,0.1466,,,,,,38,0,38,0,1,,,,,
,,361163,001,2023-07-24_21h07.50.983,arm3_eps,2022.2.5,Win32,59.98080614,603926bba0efdd351a1cd56f,64aea9d0f615b6559c281482,64becb9417a0666e721c6d80,right,1,0.3,0.2429,15,0.037402137,0.14,,,,,,39,0,39,0,1,,,,,
,,361163,001,2023-07-24_21h07.50.983,arm3_eps,2022.2.5,Win32,59.98080614,603926bba0efdd351a1cd56f,64aea9d0f615b6559c281482,64becb9417a0666e721c6d80,right,1,0.3,0.2429,15,0.046505663,0.1501,,,,,,40,0,40,0,1,,,,,
,,361163,001,2023-07-24_21h07.50.983,arm3_eps,2022.2.5,Win32,59.98080614,603926bba0efdd351a1cd56f,64aea9d0f615b6559c281482,64becb9417a0666e721c6d80,right,1,0.3,0.2429,15,0.027748167,0.1335,,,,,,41,0,41,0,1,,,,,
,,361163,001,2023-07-24_21h07.50.983,arm3_eps,2022.2.5,Win32,59.98080614,603926bba0efdd351a1cd56f,64aea9d0f615b6559c281482,64becb9417a0666e721c6d80,right,1,0.3,0.2429,15,0.030513734,0.1207,,,,,,42,0,42,0,1,,,,,
,,361163,001,2023-07-24_21h07.50.983,arm3_eps,2022.2.5,Win32,59.98080614,603926bba0efdd351a1cd56f,64aea9d0f615b6559c281482,64becb9417a0666e721c6d80,up,1,0.3,0.2429,15,0,0.2168,,,,,,43,0,43,0,1,,,,,
