space_bar.keys,space_bar.rt,participant,session,date,expName,psychopyVersion,OS,frameRate,PROLIFIC_PID,STUDY_ID,SESSION_ID,resp.keys,state,q_prob,eps_prob,score,price,resp.rt,train.thisRepN,train.thisTrialN,train.thisN,train.thisIndex,train.ran,steps.thisRepN,steps.thisTrialN,steps.thisN,steps.thisIndex,steps.ran,blocks.thisRepN,blocks.thisTrialN,blocks.thisN,blocks.thisIndex,blocks.ran
space,10.3093,400271,001,2023-07-24_13h06.42.769,arm3_eps,2022.2.5,Win32,60.04924038,5fb9adb28a52968d9f561808,64aea9d0f615b6559c281482,64becb99a950fee9b61f5fc1,,,,,,,,,,,,,,,,,,,,,,
space,13.0117,400271,001,2023-07-24_13h06.42.769,arm3_eps,2022.2.5,Win32,60.04924038,5fb9adb28a52968d9f561808,64aea9d0f615b6559c281482,64becb99a950fee9b61f5fc1,,,,,,,,,,,,,,,,,,,,,,
space,12.1406,400271,001,2023-07-24_13h06.42.769,arm3_eps,2022.2.5,Win32,60.04924038,5fb9adb28a52968d9f561808,64aea9d0f615b6559c281482,64becb99a950fee9b61f5fc1,,,,,,,,,,,,,,,,,,,,,,
space,19.043,400271,001,2023-07-24_13h06.42.769,arm3_eps,2022.2.5,Win32,60.04924038,5fb9adb28a52968d9f561808,64aea9d0f615b6559c281482,64becb99a950fee9b61f5fc1,,,,,,,,,,,,,,,,,,,,,,
space,19.9201,400271,001,2023-07-24_13h06.42.769,arm3_eps,2022.2.5,Win32,60.04924038,5fb9adb28a52968d9f561808,64aea9d0f615b6559c281482,64becb99a950fee9b61f5fc1,,,,,,,,,,,,,,,,,,,,,,
space,24.0238,400271,001,2023-07-24_13h06.42.769,arm3_eps,2022.2.5,Win32,60.04924038,5fb9adb28a52968d9f561808,64aea9d0f615b6559c281482,64becb99a950fee9b61f5fc1,,,,,,,,,,,,,,,,,,,,,,
space,6.2205,400271,001,2023-07-24_13h06.42.769,arm3_eps,2022.2.5,Win32,60.04924038,5fb9adb28a52968d9f561808,64aea9d0f615b6559c281482,64becb99a950fee9b61f5fc1,,,,,,,,,,,,,,,,,,,,,,
space,20.4893,400271,001,2023-07-24_13h06.42.769,arm3_eps,2022.2.5,Win32,60.04924038,5fb9adb28a52968d9f561808,64aea9d0f615b6559c281482,64becb99a950fee9b61f5fc1,,,,,,,,,,,,,,,,,,,,,,
space,11.6043,400271,001,2023-07-24_13h06.42.769,arm3_eps,2022.2.5,Win32,60.04924038,5fb9adb28a52968d9f561808,64aea9d0f615b6559c281482,64becb99a950fee9b61f5fc1,,,,,,,,,,,,,,,,,,,,,,
space,10.2449,400271,001,2023-07-24_13h06.42.769,arm3_eps,2022.2.5,Win32,60.04924038,5fb9adb28a52968d9f561808,64aea9d0f615b6559c281482,64becb99a950fee9b61f5fc1,,,,,,,,,,,,,,,,,,,,,,
,,400271,001,2023-07-24_13h06.42.769,arm3_eps,2022.2.5,Win32,60.04924038,5fb9adb28a52968d9f561808,64aea9d0f615b6559c281482,64becb99a950fee9b61f5fc1,right,1,0.3,0.2429,0,0.002550198,4.6719,0,0,0,0,1,,,,,,,,,,
,,400271,001,2023-07-24_13h06.42.769,arm3_eps,2022.2.5,Win32,60.04924038,5fb9adb28a52968d9f561808,64aea9d0f615b6559c281482,64becb99a950fee9b61f5fc1,right,1,0.3,0.2429,0,0.0153503,1.9223,1,0,1,0,1,,,,,,,,,,
,,400271,001,2023-07-24_13h06.42.769,arm3_eps,2022.2.5,Win32,60.04924038,5fb9adb28a52968d9f561808,64aea9d0f615b6559c281482,64becb99a950fee9b61f5fc1,right,1,0.3,0.2429,0,0.009015119,3.4144,2,0,2,0,1,,,,,,,,,,
,,400271,001,2023-07-24_13h06.42.769,arm3_eps,2022.2.5,Win32,60.04924038,5fb9adb28a52968d9f561808,64aea9d0f615b6559c281482,64becb99a950fee9b61f5fc1,right,1,0.3,0.2429,0,0.018753733,1.6394,3,0,3,0,1,,,,,,,,,,
,,400271,001,2023-07-24_13h06.42.769,arm3_eps,2022.2.5,Win32,60.04924038,5fb9adb28a52968d9f561808,64aea9d0f615b6559c281482,64becb99a950fee9b61f5fc1,up,1,0.3,0.2429,0,0,1.1989,4,0,4,0,1,,,,,,,,,,
,,400271,001,2023-07-24_13h06.42.769,arm3_eps,2022.2.5,Win32,60.04924038,5fb9adb28a52968d9f561808,64aea9d0f615b6559c281482,64becb99a950fee9b61f5fc1,right,1,0.3,0.2429,0,0.023501756,3.1308,5,0,5,0,1,,,,,,,,,,
,,400271,001,2023-07-24_13h06.42.769,arm3_eps,2022.2.5,Win32,60.04924038,5fb9adb28a52968d9f561808,64aea9d0f615b6559c281482,64becb99a950fee9b61f5fc1,right,1,0.3,0.2429,0,0.003041981,0.8168,6,0,6,0,1,,,,,,,,,,
,,400271,001,2023-07-24_13h06.42.769,arm3_eps,2022.2.5,Win32,60.04924038,5fb9adb28a52968d9f561808,64aea9d0f615b6559c281482,64becb99a950fee9b61f5fc1,right,1,0.3,0.2429,0,0.005212753,0.6404,7,0,7,0,1,,,,,,,,,,
,,400271,001,2023-07-24_13h06.42.769,arm3_eps,2022.2.5,Win32,60.04924038,5fb9adb28a52968d9f561808,64aea9d0f615b6559c281482,64becb99a950fee9b61f5fc1,right,1,0.3,0.2429,0,0.01580999,0.817,8,0,8,0,1,,,,,,,,,,
,,400271,001,2023-07-24_13h06.42.769,arm3_eps,2022.2.5,Win32,60.04924038,5fb9adb28a52968d9f561808,64aea9d0f615b6559c281482,64becb99a950fee9b61f5fc1,up,1,0.3,0.2429,0,0,0.8504,9,0,9,0,1,,,,,,,,,,
,,400271,001,2023-07-24_13h06.42.769,arm3_eps,2022.2.5,Win32,60.04924038,5fb9adb28a52968d9f561808,64aea9d0f615b6559c281482,64becb99a950fee9b61f5fc1,up,1,0.3,0.2429,0,0,3.3307,10,0,10,0,1,,,,,,,,,,
,,400271,001,2023-07-24_13h06.42.769,arm3_eps,2022.2.5,Win32,60.04924038,5fb9adb28a52968d9f561808,64aea9d0f615b6559c281482,64becb99a950fee9b61f5fc1,right,1,0.3,0.2429,0,0.000155783,2.9919,11,0,11,0,1,,,,,,,,,,
,,400271,001,2023-07-24_13h06.42.769,arm3_eps,2022.2.5,Win32,60.04924038,5fb9adb28a52968d9f561808,64aea9d0f615b6559c281482,64becb99a950fee9b61f5fc1,right,1,0.3,0.2429,0,0.030037322,0.616,12,0,12,0,1,,,,,,,,,,
,,400271,001,2023-07-24_13h06.42.769,arm3_eps,2022.2.5,Win32,60.04924038,5fb9adb28a52968d9f561808,64aea9d0f615b6559c281482,64becb99a950fee9b61f5fc1,up,1,0.3,0.2429,0,0,0.6202,13,0,13,0,1,,,,,,,,,,
,,400271,001,2023-07-24_13h06.42.769,arm3_eps,2022.2.5,Win32,60.04924038,5fb9adb28a52968d9f561808,64aea9d0f615b6559c281482,64becb99a950fee9b61f5fc1,right,1,0.3,0.2429,0,0.012712149,3.5952,14,0,14,0,1,,,,,,,,,,
,,400271,001,2023-07-24_13h06.42.769,arm3_eps,2022.2.5,Win32,60.04924038,5fb9adb28a52968d9f561808,64aea9d0f615b6559c281482,64becb99a950fee9b61f5fc1,right,1,0.3,0.2429,0,0.009326117,0.739,15,0,15,0,1,,,,,,,,,,
,,400271,001,2023-07-24_13h06.42.769,arm3_eps,2022.2.5,Win32,60.04924038,5fb9adb28a52968d9f561808,64aea9d0f615b6559c281482,64becb99a950fee9b61f5fc1,up,1,0.3,0.2429,0,0,1.0494,16,0,16,0,1,,,,,,,,,,
,,400271,001,2023-07-24_13h06.42.769,arm3_eps,2022.2.5,Win32,60.04924038,5fb9adb28a52968d9f561808,64aea9d0f615b6559c281482,64becb99a950fee9b61f5fc1,up,-1,0.3,0.2429,1,0,3.9095,17,0,17,0,1,,,,,,,,,,
,,400271,001,2023-07-24_13h06.42.769,arm3_eps,2022.2.5,Win32,60.04924038,5fb9adb28a52968d9f561808,64aea9d0f615b6559c281482,64becb99a950fee9b61f5fc1,down,-1,0.3,0.2429,1,0,3.7703,18,0,18,0,1,,,,,,,,,,
,,400271,001,2023-07-24_13h06.42.769,arm3_eps,2022.2.5,Win32,60.04924038,5fb9adb28a52968d9f561808,64aea9d0f615b6559c281482,64becb99a950fee9b61f5fc1,right,-1,0.3,0.2429,1,-0.022946315,3.5911,19,0,19,0,1,,,,,,,,,,
,,400271,001,2023-07-24_13h06.42.769,arm3_eps,2022.2.5,Win32,60.04924038,5fb9adb28a52968d9f561808,64aea9d0f615b6559c281482,64becb99a950fee9b61f5fc1,right,-1,0.3,0.2429,1,-0.020197121,0.4227,20,0,20,0,1,,,,,,,,,,
,,400271,001,2023-07-24_13h06.42.769,arm3_eps,2022.2.5,Win32,60.04924038,5fb9adb28a52968d9f561808,64aea9d0f615b6559c281482,64becb99a950fee9b61f5fc1,right,-1,0.3,0.2429,1,-0.033760487,0.8887,21,0,21,0,1,,,,,,,,,,
,,400271,001,2023-07-24_13h06.42.769,arm3_eps,2022.2.5,Win32,60.04924038,5fb9adb28a52968d9f561808,64aea9d0f615b6559c281482,64becb99a950fee9b61f5fc1,down,-1,0.3,0.2429,1,0,0.4326,22,0,22,0,1,,,,,,,,,,
,,400271,001,2023-07-24_13h06.42.769,arm3_eps,2022.2.5,Win32,60.04924038,5fb9adb28a52968d9f561808,64aea9d0f615b6559c281482,64becb99a950fee9b61f5fc1,down,-1,0.3,0.2429,2,0,3.3471,23,0,23,0,1,,,,,,,,,,
,,400271,001,2023-07-24_13h06.42.769,arm3_eps,2022.2.5,Win32,60.04924038,5fb9adb28a52968d9f561808,64aea9d0f615b6559c281482,64becb99a950fee9b61f5fc1,down,1,0.3,0.2429,2,0,1.4488,24,0,24,0,1,,,,,,,,,,
,,400271,001,2023-07-24_13h06.42.769,arm3_eps,2022.2.5,Win32,60.04924038,5fb9adb28a52968d9f561808,64aea9d0f615b6559c281482,64becb99a950fee9b61f5fc1,up,1,0.3,0.2429,3,0,1.6282,25,0,25,0,1,,,,,,,,,,
,,400271,001,2023-07-24_13h06.42.769,arm3_eps,2022.2.5,Win32,60.04924038,5fb9adb28a52968d9f561808,64aea9d0f615b6559c281482,64becb99a950fee9b61f5fc1,down,1,0.3,0.2429,3,0,3.6126,26,0,26,0,1,,,,,,,,,,
,,400271,001,2023-07-24_13h06.42.769,arm3_eps,2022.2.5,Win32,60.04924038,5fb9adb28a52968d9f561808,64aea9d0f615b6559c281482,64becb99a950fee9b61f5fc1,up,1,0.3,0.2429,3,0,1.4858,27,0,27,0,1,,,,,,,,,,
,,400271,001,2023-07-24_13h06.42.769,arm3_eps,2022.2.5,Win32,60.04924038,5fb9adb28a52968d9f561808,64aea9d0f615b6559c281482,64becb99a950fee9b61f5fc1,up,1,0.3,0.2429,3,0,1.4293,28,0,28,0,1,,,,,,,,,,
,,400271,001,2023-07-24_13h06.42.769,arm3_eps,2022.2.5,Win32,60.04924038,5fb9adb28a52968d9f561808,64aea9d0f615b6559c281482,64becb99a950fee9b61f5fc1,right,1,0.3,0.2429,3,0.006911319,2.2177,29,0,29,0,1,,,,,,,,,,
,,400271,001,2023-07-24_13h06.42.769,arm3_eps,2022.2.5,Win32,60.04924038,5fb9adb28a52968d9f561808,64aea9d0f615b6559c281482,64becb99a950fee9b61f5fc1,right,1,0.3,0.2429,3,0.004336102,0.5985,30,0,30,0,1,,,,,,,,,,
,,400271,001,2023-07-24_13h06.42.769,arm3_eps,2022.2.5,Win32,60.04924038,5fb9adb28a52968d9f561808,64aea9d0f615b6559c281482,64becb99a950fee9b61f5fc1,right,1,0.3,0.2429,3,0.0094214,0.4309,31,0,31,0,1,,,,,,,,,,
,,400271,001,2023-07-24_13h06.42.769,arm3_eps,2022.2.5,Win32,60.04924038,5fb9adb28a52968d9f561808,64aea9d0f615b6559c281482,64becb99a950fee9b61f5fc1,up,1,0.3,0.2429,3,0,0.6822,32,0,32,0,1,,,,,,,,,,
,,400271,001,2023-07-24_13h06.42.769,arm3_eps,2022.2.5,Win32,60.04924038,5fb9adb28a52968d9f561808,64aea9d0f615b6559c281482,64becb99a950fee9b61f5fc1,up,-1,0.3,0.2429,3,0,1.8815,33,0,33,0,1,,,,,,,,,,
,,400271,001,2023-07-24_13h06.42.769,arm3_eps,2022.2.5,Win32,60.04924038,5fb9adb28a52968d9f561808,64aea9d0f615b6559c281482,64becb99a950fee9b61f5fc1,up,-1,0.3,0.2429,3,0,1.2984,34,0,34,0,1,,,,,,,,,,
,,400271,001,2023-07-24_13h06.42.769,arm3_eps,2022.2.5,Win32,60.04924038,5fb9adb28a52968d9f561808,64aea9d0f615b6559c281482,64becb99a950fee9b61f5fc1,down,-1,0.3,0.2429,3,0,1.629,35,0,35,0,1,,,,,,,,,,
,,400271,001,2023-07-24_13h06.42.769,arm3_eps,2022.2.5,Win32,60.04924038,5fb9adb28a52968d9f561808,64aea9d0f615b6559c281482,64becb99a950fee9b61f5fc1,down,1,0.3,0.2429,3,0,2.2546,36,0,36,0,1,,,,,,,,,,
,,400271,001,2023-07-24_13h06.42.769,arm3_eps,2022.2.5,Win32,60.04924038,5fb9adb28a52968d9f561808,64aea9d0f615b6559c281482,64becb99a950fee9b61f5fc1,up,-1,0.3,0.2429,4,0,2.7818,37,0,37,0,1,,,,,,,,,,
,,400271,001,2023-07-24_13h06.42.769,arm3_eps,2022.2.5,Win32,60.04924038,5fb9adb28a52968d9f561808,64aea9d0f615b6559c281482,64becb99a950fee9b61f5fc1,up,-1,0.3,0.2429,4,0,2.2697,38,0,38,0,1,,,,,,,,,,
,,400271,001,2023-07-24_13h06.42.769,arm3_eps,2022.2.5,Win32,60.04924038,5fb9adb28a52968d9f561808,64aea9d0f615b6559c281482,64becb99a950fee9b61f5fc1,down,-1,0.3,0.2429,4,0,1.3778,39,0,39,0,1,,,,,,,,,,
,,400271,001,2023-07-24_13h06.42.769,arm3_eps,2022.2.5,Win32,60.04924038,5fb9adb28a52968d9f561808,64aea9d0f615b6559c281482,64becb99a950fee9b61f5fc1,right,-1,0.3,0.2429,4,-0.003346999,4.3141,40,0,40,0,1,,,,,,,,,,
,,400271,001,2023-07-24_13h06.42.769,arm3_eps,2022.2.5,Win32,60.04924038,5fb9adb28a52968d9f561808,64aea9d0f615b6559c281482,64becb99a950fee9b61f5fc1,down,1,0.3,0.2429,4,0,1.0885,41,0,41,0,1,,,,,,,,,,
,,400271,001,2023-07-24_13h06.42.769,arm3_eps,2022.2.5,Win32,60.04924038,5fb9adb28a52968d9f561808,64aea9d0f615b6559c281482,64becb99a950fee9b61f5fc1,down,1,0.3,0.2429,3,0,1.7637,42,0,42,0,1,,,,,,,,,,
,,400271,001,2023-07-24_13h06.42.769,arm3_eps,2022.2.5,Win32,60.04924038,5fb9adb28a52968d9f561808,64aea9d0f615b6559c281482,64becb99a950fee9b61f5fc1,up,1,0.3,0.2429,3,0,1.8622,43,0,43,0,1,,,,,,,,,,
,,400271,001,2023-07-24_13h06.42.769,arm3_eps,2022.2.5,Win32,60.04924038,5fb9adb28a52968d9f561808,64aea9d0f615b6559c281482,64becb99a950fee9b61f5fc1,up,-1,0.3,0.2429,3,0,1.7109,44,0,44,0,1,,,,,,,,,,
,,400271,001,2023-07-24_13h06.42.769,arm3_eps,2022.2.5,Win32,60.04924038,5fb9adb28a52968d9f561808,64aea9d0f615b6559c281482,64becb99a950fee9b61f5fc1,down,-1,0.3,0.2429,4,0,1.4804,45,0,45,0,1,,,,,,,,,,
,,400271,001,2023-07-24_13h06.42.769,arm3_eps,2022.2.5,Win32,60.04924038,5fb9adb28a52968d9f561808,64aea9d0f615b6559c281482,64becb99a950fee9b61f5fc1,up,-1,0.3,0.2429,4,0,1.9179,46,0,46,0,1,,,,,,,,,,
,,400271,001,2023-07-24_13h06.42.769,arm3_eps,2022.2.5,Win32,60.04924038,5fb9adb28a52968d9f561808,64aea9d0f615b6559c281482,64becb99a950fee9b61f5fc1,down,-1,0.3,0.2429,5,0,1.1289,47,0,47,0,1,,,,,,,,,,
,,400271,001,2023-07-24_13h06.42.769,arm3_eps,2022.2.5,Win32,60.04924038,5fb9adb28a52968d9f561808,64aea9d0f615b6559c281482,64becb99a950fee9b61f5fc1,down,-1,0.3,0.2429,6,0,2.3945,48,0,48,0,1,,,,,,,,,,
,,400271,001,2023-07-24_13h06.42.769,arm3_eps,2022.2.5,Win32,60.04924038,5fb9adb28a52968d9f561808,64aea9d0f615b6559c281482,64becb99a950fee9b61f5fc1,up,-1,0.3,0.2429,6,0,1.2619,49,0,49,0,1,,,,,,,,,,
space,2.5858,400271,001,2023-07-24_13h06.42.769,arm3_eps,2022.2.5,Win32,60.04924038,5fb9adb28a52968d9f561808,64aea9d0f615b6559c281482,64becb99a950fee9b61f5fc1,,,,,,,,,,,,,,,,,,,,,,
space,4.7441,400271,001,2023-07-24_13h06.42.769,arm3_eps,2022.2.5,Win32,60.04924038,5fb9adb28a52968d9f561808,64aea9d0f615b6559c281482,64becb99a950fee9b61f5fc1,right,-1,0.3,0.05,0,-0.009953644,3.2853,,,,,,0,0,0,0,1,,,,,
,,400271,001,2023-07-24_13h06.42.769,arm3_eps,2022.2.5,Win32,60.04924038,5fb9adb28a52968d9f561808,64aea9d0f615b6559c281482,64becb99a950fee9b61f5fc1,right,-1,0.3,0.05,0,0.005859331,3.1644,,,,,,1,0,1,0,1,,,,,
,,400271,001,2023-07-24_13h06.42.769,arm3_eps,2022.2.5,Win32,60.04924038,5fb9adb28a52968d9f561808,64aea9d0f615b6559c281482,64becb99a950fee9b61f5fc1,right,-1,0.3,0.05,0,0.005188025,0.5306,,,,,,2,0,2,0,1,,,,,
,,400271,001,2023-07-24_13h06.42.769,arm3_eps,2022.2.5,Win32,60.04924038,5fb9adb28a52968d9f561808,64aea9d0f615b6559c281482,64becb99a950fee9b61f5fc1,right,-1,0.3,0.05,0,-0.004822689,0.4329,,,,,,3,0,3,0,1,,,,,
,,400271,001,2023-07-24_13h06.42.769,arm3_eps,2022.2.5,Win32,60.04924038,5fb9adb28a52968d9f561808,64aea9d0f615b6559c281482,64becb99a950fee9b61f5fc1,right,-1,0.3,0.05,0,-0.023240038,0.3449,,,,,,4,0,4,0,1,,,,,
,,400271,001,2023-07-24_13h06.42.769,arm3_eps,2022.2.5,Win32,60.04924038,5fb9adb28a52968d9f561808,64aea9d0f615b6559c281482,64becb99a950fee9b61f5fc1,right,-1,0.3,0.05,0,-0.041786461,0.4005,,,,,,5,0,5,0,1,,,,,
,,400271,001,2023-07-24_13h06.42.769,arm3_eps,2022.2.5,Win32,60.04924038,5fb9adb28a52968d9f561808,64aea9d0f615b6559c281482,64becb99a950fee9b61f5fc1,right,-1,0.3,0.05,0,-0.050894317,0.4991,,,,,,6,0,6,0,1,,,,,
,,400271,001,2023-07-24_13h06.42.769,arm3_eps,2022.2.5,Win32,60.04924038,5fb9adb28a52968d9f561808,64aea9d0f615b6559c281482,64becb99a950fee9b61f5fc1,down,-1,0.3,0.05,0,0,1.1154,,,,,,7,0,7,0,1,,,,,
,,400271,001,2023-07-24_13h06.42.769,arm3_eps,2022.2.5,Win32,60.04924038,5fb9adb28a52968d9f561808,64aea9d0f615b6559c281482,64becb99a950fee9b61f5fc1,up,1,0.3,0.05,0,0,0.0279,,,,,,8,0,8,0,1,,,,,
,,400271,001,2023-07-24_13h06.42.769,arm3_eps,2022.2.5,Win32,60.04924038,5fb9adb28a52968d9f561808,64aea9d0f615b6559c281482,64becb99a950fee9b61f5fc1,right,1,0.3,0.05,0,0.002069353,3.1288,,,,,,9,0,9,0,1,,,,,
,,400271,001,2023-07-24_13h06.42.769,arm3_eps,2022.2.5,Win32,60.04924038,5fb9adb28a52968d9f561808,64aea9d0f615b6559c281482,64becb99a950fee9b61f5fc1,right,1,0.3,0.05,0,0.00531276,0.3332,,,,,,10,0,10,0,1,,,,,
,,400271,001,2023-07-24_13h06.42.769,arm3_eps,2022.2.5,Win32,60.04924038,5fb9adb28a52968d9f561808,64aea9d0f615b6559c281482,64becb99a950fee9b61f5fc1,right,1,0.3,0.05,0,0.022255022,0.6321,,,,,,11,0,11,0,1,,,,,
,,400271,001,2023-07-24_13h06.42.769,arm3_eps,2022.2.5,Win32,60.04924038,5fb9adb28a52968d9f561808,64aea9d0f615b6559c281482,64becb99a950fee9b61f5fc1,up,1,0.3,0.05,1,0,0.4851,,,,,,12,0,12,0,1,,,,,
,,400271,001,2023-07-24_13h06.42.769,arm3_eps,2022.2.5,Win32,60.04924038,5fb9adb28a52968d9f561808,64aea9d0f615b6559c281482,64becb99a950fee9b61f5fc1,down,1,0.3,0.05,1,0,2.789,,,,,,13,0,13,0,1,,,,,
,,400271,001,2023-07-24_13h06.42.769,arm3_eps,2022.2.5,Win32,60.04924038,5fb9adb28a52968d9f561808,64aea9d0f615b6559c281482,64becb99a950fee9b61f5fc1,right,1,0.3,0.05,1,-0.001602037,2.0632,,,,,,14,0,14,0,1,,,,,
,,400271,001,2023-07-24_13h06.42.769,arm3_eps,2022.2.5,Win32,60.04924038,5fb9adb28a52968d9f561808,64aea9d0f615b6559c281482,64becb99a950fee9b61f5fc1,right,1,0.3,0.05,1,0.002354169,0.2341,,,,,,15,0,15,0,1,,,,,
,,400271,001,2023-07-24_13h06.42.769,arm3_eps,2022.2.5,Win32,60.04924038,5fb9adb28a52968d9f561808,64aea9d0f615b6559c281482,64becb99a950fee9b61f5fc1,up,1,0.3,0.05,1,0,0.5177,,,,,,16,0,16,0,1,,,,,
,,400271,001,2023-07-24_13h06.42.769,arm3_eps,2022.2.5,Win32,60.04924038,5fb9adb28a52968d9f561808,64aea9d0f615b6559c281482,64becb99a950fee9b61f5fc1,right,1,0.3,0.05,1,-8.56551E-05,0.9635,,,,,,17,0,17,0,1,,,,,
,,400271,001,2023-07-24_13h06.42.769,arm3_eps,2022.2.5,Win32,60.04924038,5fb9adb28a52968d9f561808,64aea9d0f615b6559c281482,64becb99a950fee9b61f5fc1,right,1,0.3,0.05,1,0.004112276,0.2005,,,,,,18,0,18,0,1,,,,,
,,400271,001,2023-07-24_13h06.42.769,arm3_eps,2022.2.5,Win32,60.04924038,5fb9adb28a52968d9f561808,64aea9d0f615b6559c281482,64becb99a950fee9b61f5fc1,right,1,0.3,0.05,1,-0.005740719,1.1982,,,,,,19,0,19,0,1,,,,,
,,400271,001,2023-07-24_13h06.42.769,arm3_eps,2022.2.5,Win32,60.04924038,5fb9adb28a52968d9f561808,64aea9d0f615b6559c281482,64becb99a950fee9b61f5fc1,up,1,0.3,0.05,2,0,0.566,,,,,,20,0,20,0,1,,,,,
,,400271,001,2023-07-24_13h06.42.769,arm3_eps,2022.2.5,Win32,60.04924038,5fb9adb28a52968d9f561808,64aea9d0f615b6559c281482,64becb99a950fee9b61f5fc1,up,1,0.3,0.05,2,0,2.242,,,,,,21,0,21,0,1,,,,,
,,400271,001,2023-07-24_13h06.42.769,arm3_eps,2022.2.5,Win32,60.04924038,5fb9adb28a52968d9f561808,64aea9d0f615b6559c281482,64becb99a950fee9b61f5fc1,right,1,0.3,0.05,2,0.007229368,2.0152,,,,,,22,0,22,0,1,,,,,
,,400271,001,2023-07-24_13h06.42.769,arm3_eps,2022.2.5,Win32,60.04924038,5fb9adb28a52968d9f561808,64aea9d0f615b6559c281482,64becb99a950fee9b61f5fc1,right,1,0.3,0.05,2,-0.010443823,0.4165,,,,,,23,0,23,0,1,,,,,
,,400271,001,2023-07-24_13h06.42.769,arm3_eps,2022.2.5,Win32,60.04924038,5fb9adb28a52968d9f561808,64aea9d0f615b6559c281482,64becb99a950fee9b61f5fc1,right,1,0.3,0.05,2,0.001551966,0.4168,,,,,,24,0,24,0,1,,,,,
,,400271,001,2023-07-24_13h06.42.769,arm3_eps,2022.2.5,Win32,60.04924038,5fb9adb28a52968d9f561808,64aea9d0f615b6559c281482,64becb99a950fee9b61f5fc1,right,1,0.3,0.05,2,0.014751068,0.4496,,,,,,25,0,25,0,1,,,,,
,,400271,001,2023-07-24_13h06.42.769,arm3_eps,2022.2.5,Win32,60.04924038,5fb9adb28a52968d9f561808,64aea9d0f615b6559c281482,64becb99a950fee9b61f5fc1,right,1,0.3,0.05,2,0.049695318,0.5066,,,,,,26,0,26,0,1,,,,,
,,400271,001,2023-07-24_13h06.42.769,arm3_eps,2022.2.5,Win32,60.04924038,5fb9adb28a52968d9f561808,64aea9d0f615b6559c281482,64becb99a950fee9b61f5fc1,up,1,0.3,0.05,2,0,0.5499,,,,,,27,0,27,0,1,,,,,
,,400271,001,2023-07-24_13h06.42.769,arm3_eps,2022.2.5,Win32,60.04924038,5fb9adb28a52968d9f561808,64aea9d0f615b6559c281482,64becb99a950fee9b61f5fc1,up,1,0.3,0.05,3,0,1.647,,,,,,28,0,28,0,1,,,,,
,,400271,001,2023-07-24_13h06.42.769,arm3_eps,2022.2.5,Win32,60.04924038,5fb9adb28a52968d9f561808,64aea9d0f615b6559c281482,64becb99a950fee9b61f5fc1,down,1,0.3,0.05,3,0,1.3124,,,,,,29,0,29,0,1,,,,,
,,400271,001,2023-07-24_13h06.42.769,arm3_eps,2022.2.5,Win32,60.04924038,5fb9adb28a52968d9f561808,64aea9d0f615b6559c281482,64becb99a950fee9b61f5fc1,right,1,0.3,0.05,3,0.015518045,1.5079,,,,,,30,0,30,0,1,,,,,
,,400271,001,2023-07-24_13h06.42.769,arm3_eps,2022.2.5,Win32,60.04924038,5fb9adb28a52968d9f561808,64aea9d0f615b6559c281482,64becb99a950fee9b61f5fc1,right,1,0.3,0.05,3,0.028393881,0.3048,,,,,,31,0,31,0,1,,,,,
,,400271,001,2023-07-24_13h06.42.769,arm3_eps,2022.2.5,Win32,60.04924038,5fb9adb28a52968d9f561808,64aea9d0f615b6559c281482,64becb99a950fee9b61f5fc1,right,1,0.3,0.05,3,0.041878472,0.3464,,,,,,32,0,32,0,1,,,,,
,,400271,001,2023-07-24_13h06.42.769,arm3_eps,2022.2.5,Win32,60.04924038,5fb9adb28a52968d9f561808,64aea9d0f615b6559c281482,64becb99a950fee9b61f5fc1,up,-1,0.3,0.05,3,0,0.3549,,,,,,33,0,33,0,1,,,,,
,,400271,001,2023-07-24_13h06.42.769,arm3_eps,2022.2.5,Win32,60.04924038,5fb9adb28a52968d9f561808,64aea9d0f615b6559c281482,64becb99a950fee9b61f5fc1,right,-1,0.3,0.05,3,0.007821347,0.8808,,,,,,34,0,34,0,1,,,,,
,,400271,001,2023-07-24_13h06.42.769,arm3_eps,2022.2.5,Win32,60.04924038,5fb9adb28a52968d9f561808,64aea9d0f615b6559c281482,64becb99a950fee9b61f5fc1,right,-1,0.3,0.05,3,-0.008755273,0.1976,,,,,,35,0,35,0,1,,,,,
,,400271,001,2023-07-24_13h06.42.769,arm3_eps,2022.2.5,Win32,60.04924038,5fb9adb28a52968d9f561808,64aea9d0f615b6559c281482,64becb99a950fee9b61f5fc1,right,-1,0.3,0.05,3,-0.027444757,0.4171,,,,,,36,0,36,0,1,,,,,
,,400271,001,2023-07-24_13h06.42.769,arm3_eps,2022.2.5,Win32,60.04924038,5fb9adb28a52968d9f561808,64aea9d0f615b6559c281482,64becb99a950fee9b61f5fc1,right,-1,0.3,0.05,3,-0.029562456,0.3558,,,,,,37,0,37,0,1,,,,,
,,400271,001,2023-07-24_13h06.42.769,arm3_eps,2022.2.5,Win32,60.04924038,5fb9adb28a52968d9f561808,64aea9d0f615b6559c281482,64becb99a950fee9b61f5fc1,right,-1,0.3,0.05,3,-0.05679793,0.3177,,,,,,38,0,38,0,1,,,,,
,,400271,001,2023-07-24_13h06.42.769,arm3_eps,2022.2.5,Win32,60.04924038,5fb9adb28a52968d9f561808,64aea9d0f615b6559c281482,64becb99a950fee9b61f5fc1,right,-1,0.3,0.05,3,-0.045065274,0.4343,,,,,,39,0,39,0,1,,,,,
,,400271,001,2023-07-24_13h06.42.769,arm3_eps,2022.2.5,Win32,60.04924038,5fb9adb28a52968d9f561808,64aea9d0f615b6559c281482,64becb99a950fee9b61f5fc1,right,-1,0.3,0.05,3,-0.052325615,0.3457,,,,,,40,0,40,0,1,,,,,
,,400271,001,2023-07-24_13h06.42.769,arm3_eps,2022.2.5,Win32,60.04924038,5fb9adb28a52968d9f561808,64aea9d0f615b6559c281482,64becb99a950fee9b61f5fc1,right,-1,0.3,0.05,3,-0.057962285,0.3989,,,,,,41,0,41,0,1,,,,,
,,400271,001,2023-07-24_13h06.42.769,arm3_eps,2022.2.5,Win32,60.04924038,5fb9adb28a52968d9f561808,64aea9d0f615b6559c281482,64becb99a950fee9b61f5fc1,right,-1,0.3,0.05,3,-0.029582017,0.5176,,,,,,42,0,42,0,1,,,,,
,,400271,001,2023-07-24_13h06.42.769,arm3_eps,2022.2.5,Win32,60.04924038,5fb9adb28a52968d9f561808,64aea9d0f615b6559c281482,64becb99a950fee9b61f5fc1,right,-1,0.3,0.05,3,-0.042098238,0.4012,,,,,,43,0,43,0,1,,,,,
,,400271,001,2023-07-24_13h06.42.769,arm3_eps,2022.2.5,Win32,60.04924038,5fb9adb28a52968d9f561808,64aea9d0f615b6559c281482,64becb99a950fee9b61f5fc1,down,-1,0.3,0.05,4,0,0.4801,,,,,,44,0,44,0,1,,,,,
,,400271,001,2023-07-24_13h06.42.769,arm3_eps,2022.2.5,Win32,60.04924038,5fb9adb28a52968d9f561808,64aea9d0f615b6559c281482,64becb99a950fee9b61f5fc1,right,-1,0.3,0.05,4,0.000428382,1.5925,,,,,,45,0,45,0,1,,,,,
,,400271,001,2023-07-24_13h06.42.769,arm3_eps,2022.2.5,Win32,60.04924038,5fb9adb28a52968d9f561808,64aea9d0f615b6559c281482,64becb99a950fee9b61f5fc1,right,-1,0.3,0.05,4,0.006625561,0.4026,,,,,,46,0,46,0,1,,,,,
,,400271,001,2023-07-24_13h06.42.769,arm3_eps,2022.2.5,Win32,60.04924038,5fb9adb28a52968d9f561808,64aea9d0f615b6559c281482,64becb99a950fee9b61f5fc1,right,-1,0.3,0.05,4,-0.001161923,0.3645,,,,,,47,0,47,0,1,,,,,
,,400271,001,2023-07-24_13h06.42.769,arm3_eps,2022.2.5,Win32,60.04924038,5fb9adb28a52968d9f561808,64aea9d0f615b6559c281482,64becb99a950fee9b61f5fc1,up,-1,0.3,0.05,4,0,0.5524,,,,,,48,0,48,0,1,,,,,
,,400271,001,2023-07-24_13h06.42.769,arm3_eps,2022.2.5,Win32,60.04924038,5fb9adb28a52968d9f561808,64aea9d0f615b6559c281482,64becb99a950fee9b61f5fc1,up,1,0.3,0.05,4,0,1.9631,,,,,,49,0,49,0,1,,,,,
,,400271,001,2023-07-24_13h06.42.769,arm3_eps,2022.2.5,Win32,60.04924038,5fb9adb28a52968d9f561808,64aea9d0f615b6559c281482,64becb99a950fee9b61f5fc1,up,1,0.3,0.05,4,0,1.2957,,,,,,50,0,50,0,1,,,,,
,,400271,001,2023-07-24_13h06.42.769,arm3_eps,2022.2.5,Win32,60.04924038,5fb9adb28a52968d9f561808,64aea9d0f615b6559c281482,64becb99a950fee9b61f5fc1,up,1,0.3,0.05,5,0,1.2323,,,,,,51,0,51,0,1,,,,,
,,400271,001,2023-07-24_13h06.42.769,arm3_eps,2022.2.5,Win32,60.04924038,5fb9adb28a52968d9f561808,64aea9d0f615b6559c281482,64becb99a950fee9b61f5fc1,up,1,0.3,0.05,5,0,2.1446,,,,,,52,0,52,0,1,,,,,
,,400271,001,2023-07-24_13h06.42.769,arm3_eps,2022.2.5,Win32,60.04924038,5fb9adb28a52968d9f561808,64aea9d0f615b6559c281482,64becb99a950fee9b61f5fc1,up,1,0.3,0.05,5,0,4.3089,,,,,,53,0,53,0,1,,,,,
,,400271,001,2023-07-24_13h06.42.769,arm3_eps,2022.2.5,Win32,60.04924038,5fb9adb28a52968d9f561808,64aea9d0f615b6559c281482,64becb99a950fee9b61f5fc1,down,1,0.3,0.05,5,0,1.3916,,,,,,54,0,54,0,1,,,,,
,,400271,001,2023-07-24_13h06.42.769,arm3_eps,2022.2.5,Win32,60.04924038,5fb9adb28a52968d9f561808,64aea9d0f615b6559c281482,64becb99a950fee9b61f5fc1,down,1,0.3,0.05,5,0,1.229,,,,,,55,0,55,0,1,,,,,
,,400271,001,2023-07-24_13h06.42.769,arm3_eps,2022.2.5,Win32,60.04924038,5fb9adb28a52968d9f561808,64aea9d0f615b6559c281482,64becb99a950fee9b61f5fc1,down,1,0.3,0.05,5,0,1.2482,,,,,,56,0,56,0,1,,,,,
,,400271,001,2023-07-24_13h06.42.769,arm3_eps,2022.2.5,Win32,60.04924038,5fb9adb28a52968d9f561808,64aea9d0f615b6559c281482,64becb99a950fee9b61f5fc1,up,1,0.3,0.05,5,0,1.116,,,,,,57,0,57,0,1,,,,,
,,400271,001,2023-07-24_13h06.42.769,arm3_eps,2022.2.5,Win32,60.04924038,5fb9adb28a52968d9f561808,64aea9d0f615b6559c281482,64becb99a950fee9b61f5fc1,up,1,0.3,0.05,5,0,1.0824,,,,,,58,0,58,0,1,,,,,
,,400271,001,2023-07-24_13h06.42.769,arm3_eps,2022.2.5,Win32,60.04924038,5fb9adb28a52968d9f561808,64aea9d0f615b6559c281482,64becb99a950fee9b61f5fc1,down,1,0.3,0.05,5,0,1.2646,,,,,,59,0,59,0,1,,,,,
,,400271,001,2023-07-24_13h06.42.769,arm3_eps,2022.2.5,Win32,60.04924038,5fb9adb28a52968d9f561808,64aea9d0f615b6559c281482,64becb99a950fee9b61f5fc1,up,1,0.3,0.05,6,0,1.1016,,,,,,60,0,60,0,1,,,,,
,,400271,001,2023-07-24_13h06.42.769,arm3_eps,2022.2.5,Win32,60.04924038,5fb9adb28a52968d9f561808,64aea9d0f615b6559c281482,64becb99a950fee9b61f5fc1,up,-1,0.3,0.05,6,0,1.6353,,,,,,61,0,61,0,1,,,,,
,,400271,001,2023-07-24_13h06.42.769,arm3_eps,2022.2.5,Win32,60.04924038,5fb9adb28a52968d9f561808,64aea9d0f615b6559c281482,64becb99a950fee9b61f5fc1,right,-1,0.3,0.05,6,-0.013687446,0.9029,,,,,,62,0,62,0,1,,,,,
,,400271,001,2023-07-24_13h06.42.769,arm3_eps,2022.2.5,Win32,60.04924038,5fb9adb28a52968d9f561808,64aea9d0f615b6559c281482,64becb99a950fee9b61f5fc1,right,-1,0.3,0.05,6,-0.023278549,0.4145,,,,,,63,0,63,0,1,,,,,
,,400271,001,2023-07-24_13h06.42.769,arm3_eps,2022.2.5,Win32,60.04924038,5fb9adb28a52968d9f561808,64aea9d0f615b6559c281482,64becb99a950fee9b61f5fc1,right,-1,0.3,0.05,6,-0.013069549,0.3155,,,,,,64,0,64,0,1,,,,,
,,400271,001,2023-07-24_13h06.42.769,arm3_eps,2022.2.5,Win32,60.04924038,5fb9adb28a52968d9f561808,64aea9d0f615b6559c281482,64becb99a950fee9b61f5fc1,right,-1,0.3,0.05,6,0.006107,0.3954,,,,,,65,0,65,0,1,,,,,
,,400271,001,2023-07-24_13h06.42.769,arm3_eps,2022.2.5,Win32,60.04924038,5fb9adb28a52968d9f561808,64aea9d0f615b6559c281482,64becb99a950fee9b61f5fc1,right,-1,0.3,0.05,6,-0.024605953,0.2175,,,,,,66,0,66,0,1,,,,,
,,400271,001,2023-07-24_13h06.42.769,arm3_eps,2022.2.5,Win32,60.04924038,5fb9adb28a52968d9f561808,64aea9d0f615b6559c281482,64becb99a950fee9b61f5fc1,right,-1,0.3,0.05,6,-0.030218002,0.2229,,,,,,67,0,67,0,1,,,,,
,,400271,001,2023-07-24_13h06.42.769,arm3_eps,2022.2.5,Win32,60.04924038,5fb9adb28a52968d9f561808,64aea9d0f615b6559c281482,64becb99a950fee9b61f5fc1,right,-1,0.3,0.05,6,-0.041311484,0.2457,,,,,,68,0,68,0,1,,,,,
,,400271,001,2023-07-24_13h06.42.769,arm3_eps,2022.2.5,Win32,60.04924038,5fb9adb28a52968d9f561808,64aea9d0f615b6559c281482,64becb99a950fee9b61f5fc1,down,1,0.3,0.05,7,0,0.4796,,,,,,69,0,69,0,1,,,,,
,,400271,001,2023-07-24_13h06.42.769,arm3_eps,2022.2.5,Win32,60.04924038,5fb9adb28a52968d9f561808,64aea9d0f615b6559c281482,64becb99a950fee9b61f5fc1,right,1,0.3,0.05,7,0.030142404,0.9433,,,,,,70,0,70,0,1,,,,,
,,400271,001,2023-07-24_13h06.42.769,arm3_eps,2022.2.5,Win32,60.04924038,5fb9adb28a52968d9f561808,64aea9d0f615b6559c281482,64becb99a950fee9b61f5fc1,right,1,0.3,0.05,7,0.030794614,0.9984,,,,,,71,0,71,0,1,,,,,
,,400271,001,2023-07-24_13h06.42.769,arm3_eps,2022.2.5,Win32,60.04924038,5fb9adb28a52968d9f561808,64aea9d0f615b6559c281482,64becb99a950fee9b61f5fc1,right,1,0.3,0.05,7,0.035909476,0.2994,,,,,,72,0,72,0,1,,,,,
,,400271,001,2023-07-24_13h06.42.769,arm3_eps,2022.2.5,Win32,60.04924038,5fb9adb28a52968d9f561808,64aea9d0f615b6559c281482,64becb99a950fee9b61f5fc1,up,1,0.3,0.05,8,0,0.267,,,,,,73,0,73,0,1,,,,,
,,400271,001,2023-07-24_13h06.42.769,arm3_eps,2022.2.5,Win32,60.04924038,5fb9adb28a52968d9f561808,64aea9d0f615b6559c281482,64becb99a950fee9b61f5fc1,down,1,0.3,0.05,8,0,1.4319,,,,,,74,0,74,0,1,,,,,
,,400271,001,2023-07-24_13h06.42.769,arm3_eps,2022.2.5,Win32,60.04924038,5fb9adb28a52968d9f561808,64aea9d0f615b6559c281482,64becb99a950fee9b61f5fc1,up,1,0.3,0.05,8,0,1.9421,,,,,,75,0,75,0,1,,,,,
,,400271,001,2023-07-24_13h06.42.769,arm3_eps,2022.2.5,Win32,60.04924038,5fb9adb28a52968d9f561808,64aea9d0f615b6559c281482,64becb99a950fee9b61f5fc1,up,1,0.3,0.05,9,0,1.5168,,,,,,76,0,76,0,1,,,,,
,,400271,001,2023-07-24_13h06.42.769,arm3_eps,2022.2.5,Win32,60.04924038,5fb9adb28a52968d9f561808,64aea9d0f615b6559c281482,64becb99a950fee9b61f5fc1,down,1,0.3,0.05,9,0,1.2967,,,,,,77,0,77,0,1,,,,,
,,400271,001,2023-07-24_13h06.42.769,arm3_eps,2022.2.5,Win32,60.04924038,5fb9adb28a52968d9f561808,64aea9d0f615b6559c281482,64becb99a950fee9b61f5fc1,right,1,0.3,0.05,9,-0.000222046,1.349,,,,,,78,0,78,0,1,,,,,
,,400271,001,2023-07-24_13h06.42.769,arm3_eps,2022.2.5,Win32,60.04924038,5fb9adb28a52968d9f561808,64aea9d0f615b6559c281482,64becb99a950fee9b61f5fc1,right,1,0.3,0.05,9,0.010887912,0.381,,,,,,79,0,79,0,1,,,,,
,,400271,001,2023-07-24_13h06.42.769,arm3_eps,2022.2.5,Win32,60.04924038,5fb9adb28a52968d9f561808,64aea9d0f615b6559c281482,64becb99a950fee9b61f5fc1,up,1,0.3,0.05,9,0,0.3518,,,,,,80,0,80,0,1,,,,,
,,400271,001,2023-07-24_13h06.42.769,arm3_eps,2022.2.5,Win32,60.04924038,5fb9adb28a52968d9f561808,64aea9d0f615b6559c281482,64becb99a950fee9b61f5fc1,right,1,0.3,0.05,9,-0.014141628,1.2635,,,,,,81,0,81,0,1,,,,,
,,400271,001,2023-07-24_13h06.42.769,arm3_eps,2022.2.5,Win32,60.04924038,5fb9adb28a52968d9f561808,64aea9d0f615b6559c281482,64becb99a950fee9b61f5fc1,down,1,0.3,0.05,9,0,0.4692,,,,,,82,0,82,0,1,,,,,
,,400271,001,2023-07-24_13h06.42.769,arm3_eps,2022.2.5,Win32,60.04924038,5fb9adb28a52968d9f561808,64aea9d0f615b6559c281482,64becb99a950fee9b61f5fc1,right,1,0.3,0.05,9,0.015289266,0.8849,,,,,,83,0,83,0,1,,,,,
,,400271,001,2023-07-24_13h06.42.769,arm3_eps,2022.2.5,Win32,60.04924038,5fb9adb28a52968d9f561808,64aea9d0f615b6559c281482,64becb99a950fee9b61f5fc1,up,1,0.3,0.05,10,0,0.565,,,,,,84,0,84,0,1,,,,,
,,400271,001,2023-07-24_13h06.42.769,arm3_eps,2022.2.5,Win32,60.04924038,5fb9adb28a52968d9f561808,64aea9d0f615b6559c281482,64becb99a950fee9b61f5fc1,right,1,0.3,0.05,10,-0.004771231,0.8964,,,,,,85,0,85,0,1,,,,,
,,400271,001,2023-07-24_13h06.42.769,arm3_eps,2022.2.5,Win32,60.04924038,5fb9adb28a52968d9f561808,64aea9d0f615b6559c281482,64becb99a950fee9b61f5fc1,up,1,0.3,0.05,10,0,0.5526,,,,,,86,0,86,0,1,,,,,
,,400271,001,2023-07-24_13h06.42.769,arm3_eps,2022.2.5,Win32,60.04924038,5fb9adb28a52968d9f561808,64aea9d0f615b6559c281482,64becb99a950fee9b61f5fc1,right,1,0.3,0.05,10,0.033474329,0.9508,,,,,,87,0,87,0,1,,,,,
,,400271,001,2023-07-24_13h06.42.769,arm3_eps,2022.2.5,Win32,60.04924038,5fb9adb28a52968d9f561808,64aea9d0f615b6559c281482,64becb99a950fee9b61f5fc1,right,1,0.3,0.05,10,0.029018779,0.911,,,,,,88,0,88,0,1,,,,,
,,400271,001,2023-07-24_13h06.42.769,arm3_eps,2022.2.5,Win32,60.04924038,5fb9adb28a52968d9f561808,64aea9d0f615b6559c281482,64becb99a950fee9b61f5fc1,up,1,0.3,0.05,10,0,0.3794,,,,,,89,0,89,0,1,,,,,
,,400271,001,2023-07-24_13h06.42.769,arm3_eps,2022.2.5,Win32,60.04924038,5fb9adb28a52968d9f561808,64aea9d0f615b6559c281482,64becb99a950fee9b61f5fc1,right,1,0.3,0.05,10,-0.020935741,1.3788,,,,,,90,0,90,0,1,,,,,
,,400271,001,2023-07-24_13h06.42.769,arm3_eps,2022.2.5,Win32,60.04924038,5fb9adb28a52968d9f561808,64aea9d0f615b6559c281482,64becb99a950fee9b61f5fc1,down,1,0.3,0.05,10,0,0.3481,,,,,,91,0,91,0,1,,,,,
,,400271,001,2023-07-24_13h06.42.769,arm3_eps,2022.2.5,Win32,60.04924038,5fb9adb28a52968d9f561808,64aea9d0f615b6559c281482,64becb99a950fee9b61f5fc1,down,1,0.3,0.05,10,0,1.3124,,,,,,92,0,92,0,1,,,,,
,,400271,001,2023-07-24_13h06.42.769,arm3_eps,2022.2.5,Win32,60.04924038,5fb9adb28a52968d9f561808,64aea9d0f615b6559c281482,64becb99a950fee9b61f5fc1,up,1,0.3,0.05,10,0,1.7794,,,,,,93,0,93,0,1,,,,,
,,400271,001,2023-07-24_13h06.42.769,arm3_eps,2022.2.5,Win32,60.04924038,5fb9adb28a52968d9f561808,64aea9d0f615b6559c281482,64becb99a950fee9b61f5fc1,right,1,0.3,0.05,10,0.000939476,1.5304,,,,,,94,0,94,0,1,,,,,
,,400271,001,2023-07-24_13h06.42.769,arm3_eps,2022.2.5,Win32,60.04924038,5fb9adb28a52968d9f561808,64aea9d0f615b6559c281482,64becb99a950fee9b61f5fc1,right,1,0.3,0.05,10,-0.001495081,0.4203,,,,,,95,0,95,0,1,,,,,
,,400271,001,2023-07-24_13h06.42.769,arm3_eps,2022.2.5,Win32,60.04924038,5fb9adb28a52968d9f561808,64aea9d0f615b6559c281482,64becb99a950fee9b61f5fc1,right,1,0.3,0.05,10,0.042564666,0.4809,,,,,,96,0,96,0,1,,,,,
,,400271,001,2023-07-24_13h06.42.769,arm3_eps,2022.2.5,Win32,60.04924038,5fb9adb28a52968d9f561808,64aea9d0f615b6559c281482,64becb99a950fee9b61f5fc1,up,1,0.3,0.05,10,0,0.3529,,,,,,97,0,97,0,1,,,,,
,,400271,001,2023-07-24_13h06.42.769,arm3_eps,2022.2.5,Win32,60.04924038,5fb9adb28a52968d9f561808,64aea9d0f615b6559c281482,64becb99a950fee9b61f5fc1,right,1,0.3,0.05,10,-0.004407163,1.6963,,,,,,98,0,98,0,1,,,,,
,,400271,001,2023-07-24_13h06.42.769,arm3_eps,2022.2.5,Win32,60.04924038,5fb9adb28a52968d9f561808,64aea9d0f615b6559c281482,64becb99a950fee9b61f5fc1,up,1,0.3,0.05,10,0,0.1993,,,,,,99,0,99,0,1,,,,,
,,400271,001,2023-07-24_13h06.42.769,arm3_eps,2022.2.5,Win32,60.04924038,5fb9adb28a52968d9f561808,64aea9d0f615b6559c281482,64becb99a950fee9b61f5fc1,right,1,0.3,0.05,10,0.014789195,1.2631,,,,,,100,0,100,0,1,,,,,
,,400271,001,2023-07-24_13h06.42.769,arm3_eps,2022.2.5,Win32,60.04924038,5fb9adb28a52968d9f561808,64aea9d0f615b6559c281482,64becb99a950fee9b61f5fc1,right,1,0.3,0.05,10,-0.011223888,0.2999,,,,,,101,0,101,0,1,,,,,
,,400271,001,2023-07-24_13h06.42.769,arm3_eps,2022.2.5,Win32,60.04924038,5fb9adb28a52968d9f561808,64aea9d0f615b6559c281482,64becb99a950fee9b61f5fc1,right,1,0.3,0.05,10,0.004104987,0.3385,,,,,,102,0,102,0,1,,,,,
,,400271,001,2023-07-24_13h06.42.769,arm3_eps,2022.2.5,Win32,60.04924038,5fb9adb28a52968d9f561808,64aea9d0f615b6559c281482,64becb99a950fee9b61f5fc1,right,1,0.3,0.05,10,-0.000725932,0.3514,,,,,,103,0,103,0,1,,,,,
,,400271,001,2023-07-24_13h06.42.769,arm3_eps,2022.2.5,Win32,60.04924038,5fb9adb28a52968d9f561808,64aea9d0f615b6559c281482,64becb99a950fee9b61f5fc1,right,1,0.3,0.05,10,0.018018909,0.3183,,,,,,104,0,104,0,1,,,,,
,,400271,001,2023-07-24_13h06.42.769,arm3_eps,2022.2.5,Win32,60.04924038,5fb9adb28a52968d9f561808,64aea9d0f615b6559c281482,64becb99a950fee9b61f5fc1,right,1,0.3,0.05,10,0.016713566,0.285,,,,,,105,0,105,0,1,,,,,
,,400271,001,2023-07-24_13h06.42.769,arm3_eps,2022.2.5,Win32,60.04924038,5fb9adb28a52968d9f561808,64aea9d0f615b6559c281482,64becb99a950fee9b61f5fc1,right,1,0.3,0.05,10,0.032339746,0.5701,,,,,,106,0,106,0,1,,,,,
,,400271,001,2023-07-24_13h06.42.769,arm3_eps,2022.2.5,Win32,60.04924038,5fb9adb28a52968d9f561808,64aea9d0f615b6559c281482,64becb99a950fee9b61f5fc1,up,1,0.3,0.05,11,0,0.313,,,,,,107,0,107,0,1,,,,,
,,400271,001,2023-07-24_13h06.42.769,arm3_eps,2022.2.5,Win32,60.04924038,5fb9adb28a52968d9f561808,64aea9d0f615b6559c281482,64becb99a950fee9b61f5fc1,right,1,0.3,0.05,11,-0.007479063,1.5728,,,,,,108,0,108,0,1,,,,,
,,400271,001,2023-07-24_13h06.42.769,arm3_eps,2022.2.5,Win32,60.04924038,5fb9adb28a52968d9f561808,64aea9d0f615b6559c281482,64becb99a950fee9b61f5fc1,right,1,0.3,0.05,11,-0.002495268,0.3959,,,,,,109,0,109,0,1,,,,,
,,400271,001,2023-07-24_13h06.42.769,arm3_eps,2022.2.5,Win32,60.04924038,5fb9adb28a52968d9f561808,64aea9d0f615b6559c281482,64becb99a950fee9b61f5fc1,right,1,0.3,0.05,11,-0.014606368,0.4335,,,,,,110,0,110,0,1,,,,,
,,400271,001,2023-07-24_13h06.42.769,arm3_eps,2022.2.5,Win32,60.04924038,5fb9adb28a52968d9f561808,64aea9d0f615b6559c281482,64becb99a950fee9b61f5fc1,down,1,0.3,0.05,10,0,0.3965,,,,,,111,0,111,0,1,,,,,
,,400271,001,2023-07-24_13h06.42.769,arm3_eps,2022.2.5,Win32,60.04924038,5fb9adb28a52968d9f561808,64aea9d0f615b6559c281482,64becb99a950fee9b61f5fc1,up,1,0.3,0.05,11,0,1.5954,,,,,,112,0,112,0,1,,,,,
,,400271,001,2023-07-24_13h06.42.769,arm3_eps,2022.2.5,Win32,60.04924038,5fb9adb28a52968d9f561808,64aea9d0f615b6559c281482,64becb99a950fee9b61f5fc1,up,1,0.3,0.05,11,0,1.562,,,,,,113,0,113,0,1,,,,,
,,400271,001,2023-07-24_13h06.42.769,arm3_eps,2022.2.5,Win32,60.04924038,5fb9adb28a52968d9f561808,64aea9d0f615b6559c281482,64becb99a950fee9b61f5fc1,up,1,0.3,0.05,11,0,1.7983,,,,,,114,0,114,0,1,,,,,
,,400271,001,2023-07-24_13h06.42.769,arm3_eps,2022.2.5,Win32,60.04924038,5fb9adb28a52968d9f561808,64aea9d0f615b6559c281482,64becb99a950fee9b61f5fc1,up,1,0.3,0.05,11,0,1.2485,,,,,,115,0,115,0,1,,,,,
,,400271,001,2023-07-24_13h06.42.769,arm3_eps,2022.2.5,Win32,60.04924038,5fb9adb28a52968d9f561808,64aea9d0f615b6559c281482,64becb99a950fee9b61f5fc1,up,1,0.3,0.05,12,0,1.5142,,,,,,116,0,116,0,1,,,,,
,,400271,001,2023-07-24_13h06.42.769,arm3_eps,2022.2.5,Win32,60.04924038,5fb9adb28a52968d9f561808,64aea9d0f615b6559c281482,64becb99a950fee9b61f5fc1,up,1,0.3,0.05,13,0,2.3583,,,,,,117,0,117,0,1,,,,,
,,400271,001,2023-07-24_13h06.42.769,arm3_eps,2022.2.5,Win32,60.04924038,5fb9adb28a52968d9f561808,64aea9d0f615b6559c281482,64becb99a950fee9b61f5fc1,up,1,0.3,0.05,13,0,1.3617,,,,,,118,0,118,0,1,,,,,
,,400271,001,2023-07-24_13h06.42.769,arm3_eps,2022.2.5,Win32,60.04924038,5fb9adb28a52968d9f561808,64aea9d0f615b6559c281482,64becb99a950fee9b61f5fc1,up,1,0.3,0.05,14,0,1.1528,,,,,,119,0,119,0,1,,,,,
,,400271,001,2023-07-24_13h06.42.769,arm3_eps,2022.2.5,Win32,60.04924038,5fb9adb28a52968d9f561808,64aea9d0f615b6559c281482,64becb99a950fee9b61f5fc1,up,1,0.3,0.05,15,0,1.6961,,,,,,120,0,120,0,1,,,,,
,,400271,001,2023-07-24_13h06.42.769,arm3_eps,2022.2.5,Win32,60.04924038,5fb9adb28a52968d9f561808,64aea9d0f615b6559c281482,64becb99a950fee9b61f5fc1,up,1,0.3,0.05,16,0,1.5611,,,,,,121,0,121,0,1,,,,,
,,400271,001,2023-07-24_13h06.42.769,arm3_eps,2022.2.5,Win32,60.04924038,5fb9adb28a52968d9f561808,64aea9d0f615b6559c281482,64becb99a950fee9b61f5fc1,up,1,0.3,0.05,17,0,1.1309,,,,,,122,0,122,0,1,,,,,
,,400271,001,2023-07-24_13h06.42.769,arm3_eps,2022.2.5,Win32,60.04924038,5fb9adb28a52968d9f561808,64aea9d0f615b6559c281482,64becb99a950fee9b61f5fc1,up,1,0.3,0.05,18,0,1.3271,,,,,,123,0,123,0,1,,,,,
,,400271,001,2023-07-24_13h06.42.769,arm3_eps,2022.2.5,Win32,60.04924038,5fb9adb28a52968d9f561808,64aea9d0f615b6559c281482,64becb99a950fee9b61f5fc1,up,1,0.3,0.05,18,0,2.1119,,,,,,124,0,124,0,1,,,,,
,,400271,001,2023-07-24_13h06.42.769,arm3_eps,2022.2.5,Win32,60.04924038,5fb9adb28a52968d9f561808,64aea9d0f615b6559c281482,64becb99a950fee9b61f5fc1,down,1,0.3,0.05,17,0,1.2293,,,,,,125,0,125,0,1,,,,,
,,400271,001,2023-07-24_13h06.42.769,arm3_eps,2022.2.5,Win32,60.04924038,5fb9adb28a52968d9f561808,64aea9d0f615b6559c281482,64becb99a950fee9b61f5fc1,up,1,0.3,0.05,17,0,1.3516,,,,,,126,0,126,0,1,,,,,
,,400271,001,2023-07-24_13h06.42.769,arm3_eps,2022.2.5,Win32,60.04924038,5fb9adb28a52968d9f561808,64aea9d0f615b6559c281482,64becb99a950fee9b61f5fc1,right,1,0.3,0.05,17,-0.000218424,2.666,,,,,,127,0,127,0,1,,,,,
,,400271,001,2023-07-24_13h06.42.769,arm3_eps,2022.2.5,Win32,60.04924038,5fb9adb28a52968d9f561808,64aea9d0f615b6559c281482,64becb99a950fee9b61f5fc1,right,1,0.3,0.05,17,0.020329058,0.4521,,,,,,128,0,128,0,1,,,,,
,,400271,001,2023-07-24_13h06.42.769,arm3_eps,2022.2.5,Win32,60.04924038,5fb9adb28a52968d9f561808,64aea9d0f615b6559c281482,64becb99a950fee9b61f5fc1,right,1,0.3,0.05,17,0.020085438,0.3973,,,,,,129,0,129,0,1,,,,,
,,400271,001,2023-07-24_13h06.42.769,arm3_eps,2022.2.5,Win32,60.04924038,5fb9adb28a52968d9f561808,64aea9d0f615b6559c281482,64becb99a950fee9b61f5fc1,right,1,0.3,0.05,17,0.034908965,0.3182,,,,,,130,0,130,0,1,,,,,
,,400271,001,2023-07-24_13h06.42.769,arm3_eps,2022.2.5,Win32,60.04924038,5fb9adb28a52968d9f561808,64aea9d0f615b6559c281482,64becb99a950fee9b61f5fc1,up,-1,0.3,0.05,17,0,0.2873,,,,,,131,0,131,0,1,,,,,
,,400271,001,2023-07-24_13h06.42.769,arm3_eps,2022.2.5,Win32,60.04924038,5fb9adb28a52968d9f561808,64aea9d0f615b6559c281482,64becb99a950fee9b61f5fc1,right,-1,0.3,0.05,17,-0.019629403,1.048,,,,,,132,0,132,0,1,,,,,
,,400271,001,2023-07-24_13h06.42.769,arm3_eps,2022.2.5,Win32,60.04924038,5fb9adb28a52968d9f561808,64aea9d0f615b6559c281482,64becb99a950fee9b61f5fc1,right,-1,0.3,0.05,17,-0.031995108,0.3399,,,,,,133,0,133,0,1,,,,,
,,400271,001,2023-07-24_13h06.42.769,arm3_eps,2022.2.5,Win32,60.04924038,5fb9adb28a52968d9f561808,64aea9d0f615b6559c281482,64becb99a950fee9b61f5fc1,right,-1,0.3,0.05,17,-0.038531977,0.369,,,,,,134,0,134,0,1,,,,,
,,400271,001,2023-07-24_13h06.42.769,arm3_eps,2022.2.5,Win32,60.04924038,5fb9adb28a52968d9f561808,64aea9d0f615b6559c281482,64becb99a950fee9b61f5fc1,down,-1,0.3,0.05,17,0,0.7881,,,,,,135,0,135,0,1,,,,,
,,400271,001,2023-07-24_13h06.42.769,arm3_eps,2022.2.5,Win32,60.04924038,5fb9adb28a52968d9f561808,64aea9d0f615b6559c281482,64becb99a950fee9b61f5fc1,right,-1,0.3,0.05,17,-0.012743971,1.599,,,,,,136,0,136,0,1,,,,,
,,400271,001,2023-07-24_13h06.42.769,arm3_eps,2022.2.5,Win32,60.04924038,5fb9adb28a52968d9f561808,64aea9d0f615b6559c281482,64becb99a950fee9b61f5fc1,right,-1,0.3,0.05,17,-0.028260464,0.3182,,,,,,137,0,137,0,1,,,,,
,,400271,001,2023-07-24_13h06.42.769,arm3_eps,2022.2.5,Win32,60.04924038,5fb9adb28a52968d9f561808,64aea9d0f615b6559c281482,64becb99a950fee9b61f5fc1,right,-1,0.3,0.05,17,-0.038315155,0.3183,,,,,,138,0,138,0,1,,,,,
,,400271,001,2023-07-24_13h06.42.769,arm3_eps,2022.2.5,Win32,60.04924038,5fb9adb28a52968d9f561808,64aea9d0f615b6559c281482,64becb99a950fee9b61f5fc1,down,-1,0.3,0.05,17,0,0.2345,,,,,,139,0,139,0,1,,,,,
,,400271,001,2023-07-24_13h06.42.769,arm3_eps,2022.2.5,Win32,60.04924038,5fb9adb28a52968d9f561808,64aea9d0f615b6559c281482,64becb99a950fee9b61f5fc1,right,-1,0.3,0.05,17,-0.008798348,1.3638,,,,,,140,0,140,0,1,,,,,
,,400271,001,2023-07-24_13h06.42.769,arm3_eps,2022.2.5,Win32,60.04924038,5fb9adb28a52968d9f561808,64aea9d0f615b6559c281482,64becb99a950fee9b61f5fc1,right,-1,0.3,0.05,17,-0.038041738,0.3202,,,,,,141,0,141,0,1,,,,,
,,400271,001,2023-07-24_13h06.42.769,arm3_eps,2022.2.5,Win32,60.04924038,5fb9adb28a52968d9f561808,64aea9d0f615b6559c281482,64becb99a950fee9b61f5fc1,right,-1,0.3,0.05,17,-0.026669243,0.4165,,,,,,142,0,142,0,1,,,,,
,,400271,001,2023-07-24_13h06.42.769,arm3_eps,2022.2.5,Win32,60.04924038,5fb9adb28a52968d9f561808,64aea9d0f615b6559c281482,64becb99a950fee9b61f5fc1,right,-1,0.3,0.05,17,-0.04691153,0.3662,,,,,,143,0,143,0,1,,,,,
,,400271,001,2023-07-24_13h06.42.769,arm3_eps,2022.2.5,Win32,60.04924038,5fb9adb28a52968d9f561808,64aea9d0f615b6559c281482,64becb99a950fee9b61f5fc1,right,-1,0.3,0.05,17,-0.045860355,0.4137,,,,,,144,0,144,0,1,,,,,
,,400271,001,2023-07-24_13h06.42.769,arm3_eps,2022.2.5,Win32,60.04924038,5fb9adb28a52968d9f561808,64aea9d0f615b6559c281482,64becb99a950fee9b61f5fc1,down,-1,0.3,0.05,17,0,0.2992,,,,,,145,0,145,0,1,,,,,
,,400271,001,2023-07-24_13h06.42.769,arm3_eps,2022.2.5,Win32,60.04924038,5fb9adb28a52968d9f561808,64aea9d0f615b6559c281482,64becb99a950fee9b61f5fc1,right,-1,0.3,0.05,17,0.002361875,0.8983,,,,,,146,0,146,0,1,,,,,
,,400271,001,2023-07-24_13h06.42.769,arm3_eps,2022.2.5,Win32,60.04924038,5fb9adb28a52968d9f561808,64aea9d0f615b6559c281482,64becb99a950fee9b61f5fc1,right,-1,0.3,0.05,17,0.003566586,0.3986,,,,,,147,0,147,0,1,,,,,
,,400271,001,2023-07-24_13h06.42.769,arm3_eps,2022.2.5,Win32,60.04924038,5fb9adb28a52968d9f561808,64aea9d0f615b6559c281482,64becb99a950fee9b61f5fc1,right,-1,0.3,0.05,17,0.021977361,0.5398,,,,,,148,0,148,0,1,,,,,
,,400271,001,2023-07-24_13h06.42.769,arm3_eps,2022.2.5,Win32,60.04924038,5fb9adb28a52968d9f561808,64aea9d0f615b6559c281482,64becb99a950fee9b61f5fc1,right,-1,0.3,0.05,17,0.01068492,0.2478,,,,,,149,0,149,0,1,,,,,
,,400271,001,2023-07-24_13h06.42.769,arm3_eps,2022.2.5,Win32,60.04924038,5fb9adb28a52968d9f561808,64aea9d0f615b6559c281482,64becb99a950fee9b61f5fc1,up,-1,0.3,0.05,16,0,0.7139,,,,,,150,0,150,0,1,,,,,
,,400271,001,2023-07-24_13h06.42.769,arm3_eps,2022.2.5,Win32,60.04924038,5fb9adb28a52968d9f561808,64aea9d0f615b6559c281482,64becb99a950fee9b61f5fc1,right,-1,0.3,0.05,16,-0.005461497,1.1306,,,,,,151,0,151,0,1,,,,,
,,400271,001,2023-07-24_13h06.42.769,arm3_eps,2022.2.5,Win32,60.04924038,5fb9adb28a52968d9f561808,64aea9d0f615b6559c281482,64becb99a950fee9b61f5fc1,right,-1,0.3,0.05,16,-0.030392008,0.3187,,,,,,152,0,152,0,1,,,,,
,,400271,001,2023-07-24_13h06.42.769,arm3_eps,2022.2.5,Win32,60.04924038,5fb9adb28a52968d9f561808,64aea9d0f615b6559c281482,64becb99a950fee9b61f5fc1,right,-1,0.3,0.05,16,-0.019258273,0.3389,,,,,,153,0,153,0,1,,,,,
,,400271,001,2023-07-24_13h06.42.769,arm3_eps,2022.2.5,Win32,60.04924038,5fb9adb28a52968d9f561808,64aea9d0f615b6559c281482,64becb99a950fee9b61f5fc1,right,-1,0.3,0.05,16,-0.025256683,0.4206,,,,,,154,0,154,0,1,,,,,
,,400271,001,2023-07-24_13h06.42.769,arm3_eps,2022.2.5,Win32,60.04924038,5fb9adb28a52968d9f561808,64aea9d0f615b6559c281482,64becb99a950fee9b61f5fc1,down,-1,0.3,0.05,16,0,0.7463,,,,,,155,0,155,0,1,,,,,
,,400271,001,2023-07-24_13h06.42.769,arm3_eps,2022.2.5,Win32,60.04924038,5fb9adb28a52968d9f561808,64aea9d0f615b6559c281482,64becb99a950fee9b61f5fc1,down,-1,0.3,0.05,17,0,2.7901,,,,,,156,0,156,0,1,,,,,
,,400271,001,2023-07-24_13h06.42.769,arm3_eps,2022.2.5,Win32,60.04924038,5fb9adb28a52968d9f561808,64aea9d0f615b6559c281482,64becb99a950fee9b61f5fc1,up,-1,0.3,0.05,17,0,1.6177,,,,,,157,0,157,0,1,,,,,
,,400271,001,2023-07-24_13h06.42.769,arm3_eps,2022.2.5,Win32,60.04924038,5fb9adb28a52968d9f561808,64aea9d0f615b6559c281482,64becb99a950fee9b61f5fc1,right,-1,0.3,0.05,17,-0.005375329,2.4779,,,,,,158,0,158,0,1,,,,,
,,400271,001,2023-07-24_13h06.42.769,arm3_eps,2022.2.5,Win32,60.04924038,5fb9adb28a52968d9f561808,64aea9d0f615b6559c281482,64becb99a950fee9b61f5fc1,right,-1,0.3,0.05,17,0.012759797,0.3987,,,,,,159,0,159,0,1,,,,,
,,400271,001,2023-07-24_13h06.42.769,arm3_eps,2022.2.5,Win32,60.04924038,5fb9adb28a52968d9f561808,64aea9d0f615b6559c281482,64becb99a950fee9b61f5fc1,right,-1,0.3,0.05,17,0.025159278,0.3992,,,,,,160,0,160,0,1,,,,,
,,400271,001,2023-07-24_13h06.42.769,arm3_eps,2022.2.5,Win32,60.04924038,5fb9adb28a52968d9f561808,64aea9d0f615b6559c281482,64becb99a950fee9b61f5fc1,right,-1,0.3,0.05,17,-0.018609945,0.2986,,,,,,161,0,161,0,1,,,,,
,,400271,001,2023-07-24_13h06.42.769,arm3_eps,2022.2.5,Win32,60.04924038,5fb9adb28a52968d9f561808,64aea9d0f615b6559c281482,64becb99a950fee9b61f5fc1,right,-1,0.3,0.05,17,-0.029914726,0.3334,,,,,,162,0,162,0,1,,,,,
,,400271,001,2023-07-24_13h06.42.769,arm3_eps,2022.2.5,Win32,60.04924038,5fb9adb28a52968d9f561808,64aea9d0f615b6559c281482,64becb99a950fee9b61f5fc1,right,-1,0.3,0.05,17,-0.044856001,0.3311,,,,,,163,0,163,0,1,,,,,
,,400271,001,2023-07-24_13h06.42.769,arm3_eps,2022.2.5,Win32,60.04924038,5fb9adb28a52968d9f561808,64aea9d0f615b6559c281482,64becb99a950fee9b61f5fc1,down,-1,0.3,0.05,18,0,1.2326,,,,,,164,0,164,0,1,,,,,
,,400271,001,2023-07-24_13h06.42.769,arm3_eps,2022.2.5,Win32,60.04924038,5fb9adb28a52968d9f561808,64aea9d0f615b6559c281482,64becb99a950fee9b61f5fc1,up,-1,0.3,0.05,18,0,2.4747,,,,,,165,0,165,0,1,,,,,
,,400271,001,2023-07-24_13h06.42.769,arm3_eps,2022.2.5,Win32,60.04924038,5fb9adb28a52968d9f561808,64aea9d0f615b6559c281482,64becb99a950fee9b61f5fc1,down,-1,0.3,0.05,19,0,1.394,,,,,,166,0,166,0,1,,,,,
,,400271,001,2023-07-24_13h06.42.769,arm3_eps,2022.2.5,Win32,60.04924038,5fb9adb28a52968d9f561808,64aea9d0f615b6559c281482,64becb99a950fee9b61f5fc1,up,-1,0.3,0.05,19,0,1.2472,,,,,,167,0,167,0,1,,,,,
,,400271,001,2023-07-24_13h06.42.769,arm3_eps,2022.2.5,Win32,60.04924038,5fb9adb28a52968d9f561808,64aea9d0f615b6559c281482,64becb99a950fee9b61f5fc1,up,-1,0.3,0.05,19,0,1.5803,,,,,,168,0,168,0,1,,,,,
,,400271,001,2023-07-24_13h06.42.769,arm3_eps,2022.2.5,Win32,60.04924038,5fb9adb28a52968d9f561808,64aea9d0f615b6559c281482,64becb99a950fee9b61f5fc1,right,-1,0.3,0.05,19,-0.012216824,1.4146,,,,,,169,0,169,0,1,,,,,
,,400271,001,2023-07-24_13h06.42.769,arm3_eps,2022.2.5,Win32,60.04924038,5fb9adb28a52968d9f561808,64aea9d0f615b6559c281482,64becb99a950fee9b61f5fc1,right,-1,0.3,0.05,19,-0.023507939,0.3074,,,,,,170,0,170,0,1,,,,,
,,400271,001,2023-07-24_13h06.42.769,arm3_eps,2022.2.5,Win32,60.04924038,5fb9adb28a52968d9f561808,64aea9d0f615b6559c281482,64becb99a950fee9b61f5fc1,right,-1,0.3,0.05,19,-0.01846469,0.3318,,,,,,171,0,171,0,1,,,,,
,,400271,001,2023-07-24_13h06.42.769,arm3_eps,2022.2.5,Win32,60.04924038,5fb9adb28a52968d9f561808,64aea9d0f615b6559c281482,64becb99a950fee9b61f5fc1,down,-1,0.3,0.05,20,0,0.6645,,,,,,172,0,172,0,1,,,,,
,,400271,001,2023-07-24_13h06.42.769,arm3_eps,2022.2.5,Win32,60.04924038,5fb9adb28a52968d9f561808,64aea9d0f615b6559c281482,64becb99a950fee9b61f5fc1,down,-1,0.3,0.05,20,0,2.1586,,,,,,173,0,173,0,1,,,,,
,,400271,001,2023-07-24_13h06.42.769,arm3_eps,2022.2.5,Win32,60.04924038,5fb9adb28a52968d9f561808,64aea9d0f615b6559c281482,64becb99a950fee9b61f5fc1,down,-1,0.3,0.05,20,0,1.1846,,,,,,174,0,174,0,1,,,,,
,,400271,001,2023-07-24_13h06.42.769,arm3_eps,2022.2.5,Win32,60.04924038,5fb9adb28a52968d9f561808,64aea9d0f615b6559c281482,64becb99a950fee9b61f5fc1,down,-1,0.3,0.05,20,0,1.4797,,,,,,175,0,175,0,1,,,,,
,,400271,001,2023-07-24_13h06.42.769,arm3_eps,2022.2.5,Win32,60.04924038,5fb9adb28a52968d9f561808,64aea9d0f615b6559c281482,64becb99a950fee9b61f5fc1,down,-1,0.3,0.05,21,0,1.0522,,,,,,176,0,176,0,1,,,,,
,,400271,001,2023-07-24_13h06.42.769,arm3_eps,2022.2.5,Win32,60.04924038,5fb9adb28a52968d9f561808,64aea9d0f615b6559c281482,64becb99a950fee9b61f5fc1,right,-1,0.3,0.05,21,0.013165512,1.7937,,,,,,177,0,177,0,1,,,,,
,,400271,001,2023-07-24_13h06.42.769,arm3_eps,2022.2.5,Win32,60.04924038,5fb9adb28a52968d9f561808,64aea9d0f615b6559c281482,64becb99a950fee9b61f5fc1,right,-1,0.3,0.05,21,0.00241266,0.3498,,,,,,178,0,178,0,1,,,,,
,,400271,001,2023-07-24_13h06.42.769,arm3_eps,2022.2.5,Win32,60.04924038,5fb9adb28a52968d9f561808,64aea9d0f615b6559c281482,64becb99a950fee9b61f5fc1,right,-1,0.3,0.05,21,0.011135928,0.4155,,,,,,179,0,179,0,1,,,,,
,,400271,001,2023-07-24_13h06.42.769,arm3_eps,2022.2.5,Win32,60.04924038,5fb9adb28a52968d9f561808,64aea9d0f615b6559c281482,64becb99a950fee9b61f5fc1,right,-1,0.3,0.05,21,-0.017707159,0.308,,,,,,180,0,180,0,1,,,,,
,,400271,001,2023-07-24_13h06.42.769,arm3_eps,2022.2.5,Win32,60.04924038,5fb9adb28a52968d9f561808,64aea9d0f615b6559c281482,64becb99a950fee9b61f5fc1,right,-1,0.3,0.05,21,-0.025271201,0.3874,,,,,,181,0,181,0,1,,,,,
,,400271,001,2023-07-24_13h06.42.769,arm3_eps,2022.2.5,Win32,60.04924038,5fb9adb28a52968d9f561808,64aea9d0f615b6559c281482,64becb99a950fee9b61f5fc1,right,-1,0.3,0.05,21,-0.026606777,0.3485,,,,,,182,0,182,0,1,,,,,
,,400271,001,2023-07-24_13h06.42.769,arm3_eps,2022.2.5,Win32,60.04924038,5fb9adb28a52968d9f561808,64aea9d0f615b6559c281482,64becb99a950fee9b61f5fc1,right,-1,0.3,0.05,21,-0.022576517,0.5467,,,,,,183,0,183,0,1,,,,,
,,400271,001,2023-07-24_13h06.42.769,arm3_eps,2022.2.5,Win32,60.04924038,5fb9adb28a52968d9f561808,64aea9d0f615b6559c281482,64becb99a950fee9b61f5fc1,right,-1,0.3,0.05,21,-0.012477694,0.7315,,,,,,184,0,184,0,1,,,,,
,,400271,001,2023-07-24_13h06.42.769,arm3_eps,2022.2.5,Win32,60.04924038,5fb9adb28a52968d9f561808,64aea9d0f615b6559c281482,64becb99a950fee9b61f5fc1,down,-1,0.3,0.05,21,0,0.8996,,,,,,185,0,185,0,1,,,,,
,,400271,001,2023-07-24_13h06.42.769,arm3_eps,2022.2.5,Win32,60.04924038,5fb9adb28a52968d9f561808,64aea9d0f615b6559c281482,64becb99a950fee9b61f5fc1,right,-1,0.3,0.05,21,-0.018738852,1.2313,,,,,,186,0,186,0,1,,,,,
,,400271,001,2023-07-24_13h06.42.769,arm3_eps,2022.2.5,Win32,60.04924038,5fb9adb28a52968d9f561808,64aea9d0f615b6559c281482,64becb99a950fee9b61f5fc1,down,-1,0.3,0.05,22,0,0.7393,,,,,,187,0,187,0,1,,,,,
,,400271,001,2023-07-24_13h06.42.769,arm3_eps,2022.2.5,Win32,60.04924038,5fb9adb28a52968d9f561808,64aea9d0f615b6559c281482,64becb99a950fee9b61f5fc1,right,-1,0.3,0.05,22,-0.007415793,1.6927,,,,,,188,0,188,0,1,,,,,
,,400271,001,2023-07-24_13h06.42.769,arm3_eps,2022.2.5,Win32,60.04924038,5fb9adb28a52968d9f561808,64aea9d0f615b6559c281482,64becb99a950fee9b61f5fc1,right,-1,0.3,0.05,22,0.003416762,0.4331,,,,,,189,0,189,0,1,,,,,
,,400271,001,2023-07-24_13h06.42.769,arm3_eps,2022.2.5,Win32,60.04924038,5fb9adb28a52968d9f561808,64aea9d0f615b6559c281482,64becb99a950fee9b61f5fc1,right,-1,0.3,0.05,22,-0.019629712,0.5139,,,,,,190,0,190,0,1,,,,,
,,400271,001,2023-07-24_13h06.42.769,arm3_eps,2022.2.5,Win32,60.04924038,5fb9adb28a52968d9f561808,64aea9d0f615b6559c281482,64becb99a950fee9b61f5fc1,right,-1,0.3,0.05,22,-0.009140345,0.4203,,,,,,191,0,191,0,1,,,,,
,,400271,001,2023-07-24_13h06.42.769,arm3_eps,2022.2.5,Win32,60.04924038,5fb9adb28a52968d9f561808,64aea9d0f615b6559c281482,64becb99a950fee9b61f5fc1,right,-1,0.3,0.05,22,-0.011964449,0.4497,,,,,,192,0,192,0,1,,,,,
,,400271,001,2023-07-24_13h06.42.769,arm3_eps,2022.2.5,Win32,60.04924038,5fb9adb28a52968d9f561808,64aea9d0f615b6559c281482,64becb99a950fee9b61f5fc1,down,-1,0.3,0.05,22,0,0.7172,,,,,,193,0,193,0,1,,,,,
,,400271,001,2023-07-24_13h06.42.769,arm3_eps,2022.2.5,Win32,60.04924038,5fb9adb28a52968d9f561808,64aea9d0f615b6559c281482,64becb99a950fee9b61f5fc1,right,-1,0.3,0.05,22,0.02921531,2.0598,,,,,,194,0,194,0,1,,,,,
,,400271,001,2023-07-24_13h06.42.769,arm3_eps,2022.2.5,Win32,60.04924038,5fb9adb28a52968d9f561808,64aea9d0f615b6559c281482,64becb99a950fee9b61f5fc1,up,-1,0.3,0.05,22,0,0.6979,,,,,,195,0,195,0,1,,,,,
,,400271,001,2023-07-24_13h06.42.769,arm3_eps,2022.2.5,Win32,60.04924038,5fb9adb28a52968d9f561808,64aea9d0f615b6559c281482,64becb99a950fee9b61f5fc1,down,-1,0.3,0.05,22,0,1.1471,,,,,,196,0,196,0,1,,,,,
,,400271,001,2023-07-24_13h06.42.769,arm3_eps,2022.2.5,Win32,60.04924038,5fb9adb28a52968d9f561808,64aea9d0f615b6559c281482,64becb99a950fee9b61f5fc1,down,-1,0.3,0.05,22,0,1.2354,,,,,,197,0,197,0,1,,,,,
,,400271,001,2023-07-24_13h06.42.769,arm3_eps,2022.2.5,Win32,60.04924038,5fb9adb28a52968d9f561808,64aea9d0f615b6559c281482,64becb99a950fee9b61f5fc1,down,-1,0.3,0.05,22,0,1.1611,,,,,,198,0,198,0,1,,,,,
,,400271,001,2023-07-24_13h06.42.769,arm3_eps,2022.2.5,Win32,60.04924038,5fb9adb28a52968d9f561808,64aea9d0f615b6559c281482,64becb99a950fee9b61f5fc1,down,-1,0.3,0.05,22,0,1.2034,,,,,,199,0,199,0,1,,,,,
,,400271,001,2023-07-24_13h06.42.769,arm3_eps,2022.2.5,Win32,60.04924038,5fb9adb28a52968d9f561808,64aea9d0f615b6559c281482,64becb99a950fee9b61f5fc1,right,-1,0.3,0.05,22,0.017257398,1.5108,,,,,,200,0,200,0,1,,,,,
,,400271,001,2023-07-24_13h06.42.769,arm3_eps,2022.2.5,Win32,60.04924038,5fb9adb28a52968d9f561808,64aea9d0f615b6559c281482,64becb99a950fee9b61f5fc1,right,-1,0.3,0.05,22,0.002625241,0.3824,,,,,,201,0,201,0,1,,,,,
,,400271,001,2023-07-24_13h06.42.769,arm3_eps,2022.2.5,Win32,60.04924038,5fb9adb28a52968d9f561808,64aea9d0f615b6559c281482,64becb99a950fee9b61f5fc1,right,-1,0.3,0.05,22,-0.008496029,0.2878,,,,,,202,0,202,0,1,,,,,
,,400271,001,2023-07-24_13h06.42.769,arm3_eps,2022.2.5,Win32,60.04924038,5fb9adb28a52968d9f561808,64aea9d0f615b6559c281482,64becb99a950fee9b61f5fc1,right,-1,0.3,0.05,22,0.001402792,0.3819,,,,,,203,0,203,0,1,,,,,
,,400271,001,2023-07-24_13h06.42.769,arm3_eps,2022.2.5,Win32,60.04924038,5fb9adb28a52968d9f561808,64aea9d0f615b6559c281482,64becb99a950fee9b61f5fc1,right,-1,0.3,0.05,22,-0.010863315,0.3842,,,,,,204,0,204,0,1,,,,,
,,400271,001,2023-07-24_13h06.42.769,arm3_eps,2022.2.5,Win32,60.04924038,5fb9adb28a52968d9f561808,64aea9d0f615b6559c281482,64becb99a950fee9b61f5fc1,down,-1,0.3,0.05,22,0,0.6483,,,,,,205,0,205,0,1,,,,,
,,400271,001,2023-07-24_13h06.42.769,arm3_eps,2022.2.5,Win32,60.04924038,5fb9adb28a52968d9f561808,64aea9d0f615b6559c281482,64becb99a950fee9b61f5fc1,right,-1,0.3,0.05,22,-0.01634388,1.014,,,,,,206,0,206,0,1,,,,,
,,400271,001,2023-07-24_13h06.42.769,arm3_eps,2022.2.5,Win32,60.04924038,5fb9adb28a52968d9f561808,64aea9d0f615b6559c281482,64becb99a950fee9b61f5fc1,down,-1,0.3,0.05,23,0,1.0979,,,,,,207,0,207,0,1,,,,,
,,400271,001,2023-07-24_13h06.42.769,arm3_eps,2022.2.5,Win32,60.04924038,5fb9adb28a52968d9f561808,64aea9d0f615b6559c281482,64becb99a950fee9b61f5fc1,right,-1,0.3,0.05,23,-0.004722592,1.3619,,,,,,208,0,208,0,1,,,,,
,,400271,001,2023-07-24_13h06.42.769,arm3_eps,2022.2.5,Win32,60.04924038,5fb9adb28a52968d9f561808,64aea9d0f615b6559c281482,64becb99a950fee9b61f5fc1,right,-1,0.3,0.05,23,-0.012194814,1.2659,,,,,,209,0,209,0,1,,,,,
,,400271,001,2023-07-24_13h06.42.769,arm3_eps,2022.2.5,Win32,60.04924038,5fb9adb28a52968d9f561808,64aea9d0f615b6559c281482,64becb99a950fee9b61f5fc1,right,-1,0.3,0.05,23,-0.012793225,0.3144,,,,,,210,0,210,0,1,,,,,
,,400271,001,2023-07-24_13h06.42.769,arm3_eps,2022.2.5,Win32,60.04924038,5fb9adb28a52968d9f561808,64aea9d0f615b6559c281482,64becb99a950fee9b61f5fc1,right,-1,0.3,0.05,23,-0.019751467,0.3134,,,,,,211,0,211,0,1,,,,,
,,400271,001,2023-07-24_13h06.42.769,arm3_eps,2022.2.5,Win32,60.04924038,5fb9adb28a52968d9f561808,64aea9d0f615b6559c281482,64becb99a950fee9b61f5fc1,right,-1,0.3,0.05,23,0.000701168,0.3025,,,,,,212,0,212,0,1,,,,,
,,400271,001,2023-07-24_13h06.42.769,arm3_eps,2022.2.5,Win32,60.04924038,5fb9adb28a52968d9f561808,64aea9d0f615b6559c281482,64becb99a950fee9b61f5fc1,right,-1,0.3,0.05,23,0.019468935,0.521,,,,,,213,0,213,0,1,,,,,
,,400271,001,2023-07-24_13h06.42.769,arm3_eps,2022.2.5,Win32,60.04924038,5fb9adb28a52968d9f561808,64aea9d0f615b6559c281482,64becb99a950fee9b61f5fc1,right,-1,0.3,0.05,23,-0.001438718,0.2654,,,,,,214,0,214,0,1,,,,,
,,400271,001,2023-07-24_13h06.42.769,arm3_eps,2022.2.5,Win32,60.04924038,5fb9adb28a52968d9f561808,64aea9d0f615b6559c281482,64becb99a950fee9b61f5fc1,right,-1,0.3,0.05,23,-0.04126552,0.2372,,,,,,215,0,215,0,1,,,,,
,,400271,001,2023-07-24_13h06.42.769,arm3_eps,2022.2.5,Win32,60.04924038,5fb9adb28a52968d9f561808,64aea9d0f615b6559c281482,64becb99a950fee9b61f5fc1,right,-1,0.3,0.05,23,-0.03365191,0.3331,,,,,,216,0,216,0,1,,,,,
,,400271,001,2023-07-24_13h06.42.769,arm3_eps,2022.2.5,Win32,60.04924038,5fb9adb28a52968d9f561808,64aea9d0f615b6559c281482,64becb99a950fee9b61f5fc1,right,-1,0.3,0.05,23,-0.050079846,0.4708,,,,,,217,0,217,0,1,,,,,
,,400271,001,2023-07-24_13h06.42.769,arm3_eps,2022.2.5,Win32,60.04924038,5fb9adb28a52968d9f561808,64aea9d0f615b6559c281482,64becb99a950fee9b61f5fc1,right,-1,0.3,0.05,23,-0.0558768,0.3848,,,,,,218,0,218,0,1,,,,,
,,400271,001,2023-07-24_13h06.42.769,arm3_eps,2022.2.5,Win32,60.04924038,5fb9adb28a52968d9f561808,64aea9d0f615b6559c281482,64becb99a950fee9b61f5fc1,right,-1,0.3,0.05,23,-0.032629457,0.399,,,,,,219,0,219,0,1,,,,,
,,400271,001,2023-07-24_13h06.42.769,arm3_eps,2022.2.5,Win32,60.04924038,5fb9adb28a52968d9f561808,64aea9d0f615b6559c281482,64becb99a950fee9b61f5fc1,down,-1,0.3,0.05,23,0,2.8344,,,,,,220,0,220,0,1,,,,,
,,400271,001,2023-07-24_13h06.42.769,arm3_eps,2022.2.5,Win32,60.04924038,5fb9adb28a52968d9f561808,64aea9d0f615b6559c281482,64becb99a950fee9b61f5fc1,right,-1,0.3,0.05,23,-0.004808226,1.1945,,,,,,221,0,221,0,1,,,,,
,,400271,001,2023-07-24_13h06.42.769,arm3_eps,2022.2.5,Win32,60.04924038,5fb9adb28a52968d9f561808,64aea9d0f615b6559c281482,64becb99a950fee9b61f5fc1,down,-1,0.3,0.05,23,0,0.8129,,,,,,222,0,222,0,1,,,,,
,,400271,001,2023-07-24_13h06.42.769,arm3_eps,2022.2.5,Win32,60.04924038,5fb9adb28a52968d9f561808,64aea9d0f615b6559c281482,64becb99a950fee9b61f5fc1,right,-1,0.3,0.05,23,-0.017495814,1.1305,,,,,,223,0,223,0,1,,,,,
,,400271,001,2023-07-24_13h06.42.769,arm3_eps,2022.2.5,Win32,60.04924038,5fb9adb28a52968d9f561808,64aea9d0f615b6559c281482,64becb99a950fee9b61f5fc1,right,-1,0.3,0.05,23,-0.022311092,0.2212,,,,,,224,0,224,0,1,,,,,
,,400271,001,2023-07-24_13h06.42.769,arm3_eps,2022.2.5,Win32,60.04924038,5fb9adb28a52968d9f561808,64aea9d0f615b6559c281482,64becb99a950fee9b61f5fc1,right,-1,0.3,0.05,23,-0.006855004,0.4002,,,,,,225,0,225,0,1,,,,,
,,400271,001,2023-07-24_13h06.42.769,arm3_eps,2022.2.5,Win32,60.04924038,5fb9adb28a52968d9f561808,64aea9d0f615b6559c281482,64becb99a950fee9b61f5fc1,right,-1,0.3,0.05,23,-0.036238238,0.3721,,,,,,226,0,226,0,1,,,,,
,,400271,001,2023-07-24_13h06.42.769,arm3_eps,2022.2.5,Win32,60.04924038,5fb9adb28a52968d9f561808,64aea9d0f615b6559c281482,64becb99a950fee9b61f5fc1,down,-1,0.3,0.05,23,0,0.4147,,,,,,227,0,227,0,1,,,,,
,,400271,001,2023-07-24_13h06.42.769,arm3_eps,2022.2.5,Win32,60.04924038,5fb9adb28a52968d9f561808,64aea9d0f615b6559c281482,64becb99a950fee9b61f5fc1,right,-1,0.3,0.05,23,-0.025770577,0.8182,,,,,,228,0,228,0,1,,,,,
,,400271,001,2023-07-24_13h06.42.769,arm3_eps,2022.2.5,Win32,60.04924038,5fb9adb28a52968d9f561808,64aea9d0f615b6559c281482,64becb99a950fee9b61f5fc1,right,-1,0.3,0.05,23,-0.047145142,0.2064,,,,,,229,0,229,0,1,,,,,
,,400271,001,2023-07-24_13h06.42.769,arm3_eps,2022.2.5,Win32,60.04924038,5fb9adb28a52968d9f561808,64aea9d0f615b6559c281482,64becb99a950fee9b61f5fc1,right,-1,0.3,0.05,23,-0.081241435,0.1654,,,,,,230,0,230,0,1,,,,,
,,400271,001,2023-07-24_13h06.42.769,arm3_eps,2022.2.5,Win32,60.04924038,5fb9adb28a52968d9f561808,64aea9d0f615b6559c281482,64becb99a950fee9b61f5fc1,down,-1,0.3,0.05,23,0,0.4515,,,,,,231,0,231,0,1,,,,,
,,400271,001,2023-07-24_13h06.42.769,arm3_eps,2022.2.5,Win32,60.04924038,5fb9adb28a52968d9f561808,64aea9d0f615b6559c281482,64becb99a950fee9b61f5fc1,right,-1,0.3,0.05,23,-0.025389952,0.9301,,,,,,232,0,232,0,1,,,,,
,,400271,001,2023-07-24_13h06.42.769,arm3_eps,2022.2.5,Win32,60.04924038,5fb9adb28a52968d9f561808,64aea9d0f615b6559c281482,64becb99a950fee9b61f5fc1,right,-1,0.3,0.05,23,-0.045777894,0.2672,,,,,,233,0,233,0,1,,,,,
,,400271,001,2023-07-24_13h06.42.769,arm3_eps,2022.2.5,Win32,60.04924038,5fb9adb28a52968d9f561808,64aea9d0f615b6559c281482,64becb99a950fee9b61f5fc1,right,-1,0.3,0.05,23,-0.047845426,0.4979,,,,,,234,0,234,0,1,,,,,
,,400271,001,2023-07-24_13h06.42.769,arm3_eps,2022.2.5,Win32,60.04924038,5fb9adb28a52968d9f561808,64aea9d0f615b6559c281482,64becb99a950fee9b61f5fc1,down,-1,0.3,0.05,23,0,0.6209,,,,,,235,0,235,0,1,,,,,
,,400271,001,2023-07-24_13h06.42.769,arm3_eps,2022.2.5,Win32,60.04924038,5fb9adb28a52968d9f561808,64aea9d0f615b6559c281482,64becb99a950fee9b61f5fc1,right,-1,0.3,0.05,23,0.001501466,0.7828,,,,,,236,0,236,0,1,,,,,
,,400271,001,2023-07-24_13h06.42.769,arm3_eps,2022.2.5,Win32,60.04924038,5fb9adb28a52968d9f561808,64aea9d0f615b6559c281482,64becb99a950fee9b61f5fc1,right,-1,0.3,0.05,23,0.008965575,0.234,,,,,,237,0,237,0,1,,,,,
,,400271,001,2023-07-24_13h06.42.769,arm3_eps,2022.2.5,Win32,60.04924038,5fb9adb28a52968d9f561808,64aea9d0f615b6559c281482,64becb99a950fee9b61f5fc1,right,-1,0.3,0.05,23,0.011374053,0.3315,,,,,,238,0,238,0,1,,,,,
,,400271,001,2023-07-24_13h06.42.769,arm3_eps,2022.2.5,Win32,60.04924038,5fb9adb28a52968d9f561808,64aea9d0f615b6559c281482,64becb99a950fee9b61f5fc1,right,-1,0.3,0.05,23,0.029444602,0.5174,,,,,,239,0,239,0,1,,,,,
,,400271,001,2023-07-24_13h06.42.769,arm3_eps,2022.2.5,Win32,60.04924038,5fb9adb28a52968d9f561808,64aea9d0f615b6559c281482,64becb99a950fee9b61f5fc1,right,-1,0.3,0.05,23,-0.01009099,0.783,,,,,,240,0,240,0,1,,,,,
,,400271,001,2023-07-24_13h06.42.769,arm3_eps,2022.2.5,Win32,60.04924038,5fb9adb28a52968d9f561808,64aea9d0f615b6559c281482,64becb99a950fee9b61f5fc1,right,-1,0.3,0.05,23,-0.002431278,0.4999,,,,,,241,0,241,0,1,,,,,
,,400271,001,2023-07-24_13h06.42.769,arm3_eps,2022.2.5,Win32,60.04924038,5fb9adb28a52968d9f561808,64aea9d0f615b6559c281482,64becb99a950fee9b61f5fc1,right,-1,0.3,0.05,23,-0.009490614,0.4497,,,,,,242,0,242,0,1,,,,,
,,400271,001,2023-07-24_13h06.42.769,arm3_eps,2022.2.5,Win32,60.04924038,5fb9adb28a52968d9f561808,64aea9d0f615b6559c281482,64becb99a950fee9b61f5fc1,right,-1,0.3,0.05,23,-0.002212382,0.4165,,,,,,243,0,243,0,1,,,,,
,,400271,001,2023-07-24_13h06.42.769,arm3_eps,2022.2.5,Win32,60.04924038,5fb9adb28a52968d9f561808,64aea9d0f615b6559c281482,64becb99a950fee9b61f5fc1,down,-1,0.3,0.05,24,0,1.3326,,,,,,244,0,244,0,1,,,,,
,,400271,001,2023-07-24_13h06.42.769,arm3_eps,2022.2.5,Win32,60.04924038,5fb9adb28a52968d9f561808,64aea9d0f615b6559c281482,64becb99a950fee9b61f5fc1,right,-1,0.3,0.05,24,0.01302171,0.9995,,,,,,245,0,245,0,1,,,,,
,,400271,001,2023-07-24_13h06.42.769,arm3_eps,2022.2.5,Win32,60.04924038,5fb9adb28a52968d9f561808,64aea9d0f615b6559c281482,64becb99a950fee9b61f5fc1,right,-1,0.3,0.05,24,0.023750378,0.4002,,,,,,246,0,246,0,1,,,,,
,,400271,001,2023-07-24_13h06.42.769,arm3_eps,2022.2.5,Win32,60.04924038,5fb9adb28a52968d9f561808,64aea9d0f615b6559c281482,64becb99a950fee9b61f5fc1,right,-1,0.3,0.05,24,0.009280774,0.4561,,,,,,247,0,247,0,1,,,,,
,,400271,001,2023-07-24_13h06.42.769,arm3_eps,2022.2.5,Win32,60.04924038,5fb9adb28a52968d9f561808,64aea9d0f615b6559c281482,64becb99a950fee9b61f5fc1,right,-1,0.3,0.05,24,0.001782029,0.4506,,,,,,248,0,248,0,1,,,,,
,,400271,001,2023-07-24_13h06.42.769,arm3_eps,2022.2.5,Win32,60.04924038,5fb9adb28a52968d9f561808,64aea9d0f615b6559c281482,64becb99a950fee9b61f5fc1,down,-1,0.3,0.05,24,0,1.6159,,,,,,249,0,249,0,1,,,,,
,,400271,001,2023-07-24_13h06.42.769,arm3_eps,2022.2.5,Win32,60.04924038,5fb9adb28a52968d9f561808,64aea9d0f615b6559c281482,64becb99a950fee9b61f5fc1,right,-1,0.3,0.05,24,-0.046365537,1.1848,,,,,,250,0,250,0,1,,,,,
,,400271,001,2023-07-24_13h06.42.769,arm3_eps,2022.2.5,Win32,60.04924038,5fb9adb28a52968d9f561808,64aea9d0f615b6559c281482,64becb99a950fee9b61f5fc1,right,-1,0.3,0.05,24,-0.062330692,0.2832,,,,,,251,0,251,0,1,,,,,
,,400271,001,2023-07-24_13h06.42.769,arm3_eps,2022.2.5,Win32,60.04924038,5fb9adb28a52968d9f561808,64aea9d0f615b6559c281482,64becb99a950fee9b61f5fc1,right,-1,0.3,0.05,24,-0.058128111,0.2831,,,,,,252,0,252,0,1,,,,,
,,400271,001,2023-07-24_13h06.42.769,arm3_eps,2022.2.5,Win32,60.04924038,5fb9adb28a52968d9f561808,64aea9d0f615b6559c281482,64becb99a950fee9b61f5fc1,right,-1,0.3,0.05,24,-0.057837573,0.2671,,,,,,253,0,253,0,1,,,,,
,,400271,001,2023-07-24_13h06.42.769,arm3_eps,2022.2.5,Win32,60.04924038,5fb9adb28a52968d9f561808,64aea9d0f615b6559c281482,64becb99a950fee9b61f5fc1,right,-1,0.3,0.05,24,-0.075113443,0.2335,,,,,,254,0,254,0,1,,,,,
,,400271,001,2023-07-24_13h06.42.769,arm3_eps,2022.2.5,Win32,60.04924038,5fb9adb28a52968d9f561808,64aea9d0f615b6559c281482,64becb99a950fee9b61f5fc1,down,-1,0.3,0.05,24,0,1.0175,,,,,,255,0,255,0,1,,,,,
,,400271,001,2023-07-24_13h06.42.769,arm3_eps,2022.2.5,Win32,60.04924038,5fb9adb28a52968d9f561808,64aea9d0f615b6559c281482,64becb99a950fee9b61f5fc1,right,-1,0.3,0.05,24,1.61509E-05,1.233,,,,,,256,0,256,0,1,,,,,
,,400271,001,2023-07-24_13h06.42.769,arm3_eps,2022.2.5,Win32,60.04924038,5fb9adb28a52968d9f561808,64aea9d0f615b6559c281482,64becb99a950fee9b61f5fc1,right,-1,0.3,0.05,24,-0.003998145,0.3171,,,,,,257,0,257,0,1,,,,,
,,400271,001,2023-07-24_13h06.42.769,arm3_eps,2022.2.5,Win32,60.04924038,5fb9adb28a52968d9f561808,64aea9d0f615b6559c281482,64becb99a950fee9b61f5fc1,right,-1,0.3,0.05,24,-0.006152024,0.2336,,,,,,258,0,258,0,1,,,,,
,,400271,001,2023-07-24_13h06.42.769,arm3_eps,2022.2.5,Win32,60.04924038,5fb9adb28a52968d9f561808,64aea9d0f615b6559c281482,64becb99a950fee9b61f5fc1,right,-1,0.3,0.05,24,0.006496997,0.4499,,,,,,259,0,259,0,1,,,,,
,,400271,001,2023-07-24_13h06.42.769,arm3_eps,2022.2.5,Win32,60.04924038,5fb9adb28a52968d9f561808,64aea9d0f615b6559c281482,64becb99a950fee9b61f5fc1,right,-1,0.3,0.05,24,-0.010246152,0.4164,,,,,,260,0,260,0,1,,,,,
,,400271,001,2023-07-24_13h06.42.769,arm3_eps,2022.2.5,Win32,60.04924038,5fb9adb28a52968d9f561808,64aea9d0f615b6559c281482,64becb99a950fee9b61f5fc1,right,-1,0.3,0.05,24,0.017256484,0.3503,,,,,,261,0,261,0,1,,,,,
,,400271,001,2023-07-24_13h06.42.769,arm3_eps,2022.2.5,Win32,60.04924038,5fb9adb28a52968d9f561808,64aea9d0f615b6559c281482,64becb99a950fee9b61f5fc1,right,-1,0.3,0.05,24,-0.015623833,0.4335,,,,,,262,0,262,0,1,,,,,
,,400271,001,2023-07-24_13h06.42.769,arm3_eps,2022.2.5,Win32,60.04924038,5fb9adb28a52968d9f561808,64aea9d0f615b6559c281482,64becb99a950fee9b61f5fc1,right,-1,0.3,0.05,24,0.008204944,0.4003,,,,,,263,0,263,0,1,,,,,
,,400271,001,2023-07-24_13h06.42.769,arm3_eps,2022.2.5,Win32,60.04924038,5fb9adb28a52968d9f561808,64aea9d0f615b6559c281482,64becb99a950fee9b61f5fc1,right,-1,0.3,0.05,24,0.015383231,0.5071,,,,,,264,0,264,0,1,,,,,
,,400271,001,2023-07-24_13h06.42.769,arm3_eps,2022.2.5,Win32,60.04924038,5fb9adb28a52968d9f561808,64aea9d0f615b6559c281482,64becb99a950fee9b61f5fc1,right,-1,0.3,0.05,24,-0.003343992,0.5168,,,,,,265,0,265,0,1,,,,,
,,400271,001,2023-07-24_13h06.42.769,arm3_eps,2022.2.5,Win32,60.04924038,5fb9adb28a52968d9f561808,64aea9d0f615b6559c281482,64becb99a950fee9b61f5fc1,right,-1,0.3,0.05,24,-0.006310008,0.4837,,,,,,266,0,266,0,1,,,,,
,,400271,001,2023-07-24_13h06.42.769,arm3_eps,2022.2.5,Win32,60.04924038,5fb9adb28a52968d9f561808,64aea9d0f615b6559c281482,64becb99a950fee9b61f5fc1,down,-1,0.3,0.05,24,0,0.74,,,,,,267,0,267,0,1,,,,,
,,400271,001,2023-07-24_13h06.42.769,arm3_eps,2022.2.5,Win32,60.04924038,5fb9adb28a52968d9f561808,64aea9d0f615b6559c281482,64becb99a950fee9b61f5fc1,right,-1,0.3,0.05,24,0.007854749,1.3168,,,,,,268,0,268,0,1,,,,,
,,400271,001,2023-07-24_13h06.42.769,arm3_eps,2022.2.5,Win32,60.04924038,5fb9adb28a52968d9f561808,64aea9d0f615b6559c281482,64becb99a950fee9b61f5fc1,right,-1,0.3,0.05,24,-0.009743377,0.5666,,,,,,269,0,269,0,1,,,,,
,,400271,001,2023-07-24_13h06.42.769,arm3_eps,2022.2.5,Win32,60.04924038,5fb9adb28a52968d9f561808,64aea9d0f615b6559c281482,64becb99a950fee9b61f5fc1,right,-1,0.3,0.05,24,-0.014141648,0.3887,,,,,,270,0,270,0,1,,,,,
,,400271,001,2023-07-24_13h06.42.769,arm3_eps,2022.2.5,Win32,60.04924038,5fb9adb28a52968d9f561808,64aea9d0f615b6559c281482,64becb99a950fee9b61f5fc1,down,-1,0.3,0.05,24,0,0.8168,,,,,,271,0,271,0,1,,,,,
,,400271,001,2023-07-24_13h06.42.769,arm3_eps,2022.2.5,Win32,60.04924038,5fb9adb28a52968d9f561808,64aea9d0f615b6559c281482,64becb99a950fee9b61f5fc1,right,-1,0.3,0.05,24,-0.001612966,1.5166,,,,,,272,0,272,0,1,,,,,
,,400271,001,2023-07-24_13h06.42.769,arm3_eps,2022.2.5,Win32,60.04924038,5fb9adb28a52968d9f561808,64aea9d0f615b6559c281482,64becb99a950fee9b61f5fc1,right,-1,0.3,0.05,24,-0.037545399,0.1009,,,,,,273,0,273,0,1,,,,,
,,400271,001,2023-07-24_13h06.42.769,arm3_eps,2022.2.5,Win32,60.04924038,5fb9adb28a52968d9f561808,64aea9d0f615b6559c281482,64becb99a950fee9b61f5fc1,down,1,0.3,0.05,24,0,0.516,,,,,,274,0,274,0,1,,,,,
,,400271,001,2023-07-24_13h06.42.769,arm3_eps,2022.2.5,Win32,60.04924038,5fb9adb28a52968d9f561808,64aea9d0f615b6559c281482,64becb99a950fee9b61f5fc1,right,1,0.3,0.05,24,-0.019603895,0.8295,,,,,,275,0,275,0,1,,,,,
,,400271,001,2023-07-24_13h06.42.769,arm3_eps,2022.2.5,Win32,60.04924038,5fb9adb28a52968d9f561808,64aea9d0f615b6559c281482,64becb99a950fee9b61f5fc1,right,1,0.3,0.05,24,-0.01199812,0.1395,,,,,,276,0,276,0,1,,,,,
,,400271,001,2023-07-24_13h06.42.769,arm3_eps,2022.2.5,Win32,60.04924038,5fb9adb28a52968d9f561808,64aea9d0f615b6559c281482,64becb99a950fee9b61f5fc1,right,1,0.3,0.05,24,0.006491058,0.8498,,,,,,277,0,277,0,1,,,,,
,,400271,001,2023-07-24_13h06.42.769,arm3_eps,2022.2.5,Win32,60.04924038,5fb9adb28a52968d9f561808,64aea9d0f615b6559c281482,64becb99a950fee9b61f5fc1,down,1,0.3,0.05,24,0,0.5839,,,,,,278,0,278,0,1,,,,,
,,400271,001,2023-07-24_13h06.42.769,arm3_eps,2022.2.5,Win32,60.04924038,5fb9adb28a52968d9f561808,64aea9d0f615b6559c281482,64becb99a950fee9b61f5fc1,right,1,0.3,0.05,24,0.008832883,0.9169,,,,,,279,0,279,0,1,,,,,
,,400271,001,2023-07-24_13h06.42.769,arm3_eps,2022.2.5,Win32,60.04924038,5fb9adb28a52968d9f561808,64aea9d0f615b6559c281482,64becb99a950fee9b61f5fc1,right,1,0.3,0.05,24,0.024956197,0.2667,,,,,,280,0,280,0,1,,,,,
,,400271,001,2023-07-24_13h06.42.769,arm3_eps,2022.2.5,Win32,60.04924038,5fb9adb28a52968d9f561808,64aea9d0f615b6559c281482,64becb99a950fee9b61f5fc1,right,1,0.3,0.05,24,0.024712943,0.4164,,,,,,281,0,281,0,1,,,,,
,,400271,001,2023-07-24_13h06.42.769,arm3_eps,2022.2.5,Win32,60.04924038,5fb9adb28a52968d9f561808,64aea9d0f615b6559c281482,64becb99a950fee9b61f5fc1,up,1,0.3,0.05,24,0,1.1398,,,,,,282,0,282,0,1,,,,,
,,400271,001,2023-07-24_13h06.42.769,arm3_eps,2022.2.5,Win32,60.04924038,5fb9adb28a52968d9f561808,64aea9d0f615b6559c281482,64becb99a950fee9b61f5fc1,up,1,0.3,0.05,24,0,1.6892,,,,,,283,0,283,0,1,,,,,
,,400271,001,2023-07-24_13h06.42.769,arm3_eps,2022.2.5,Win32,60.04924038,5fb9adb28a52968d9f561808,64aea9d0f615b6559c281482,64becb99a950fee9b61f5fc1,right,1,0.3,0.05,24,0.004195158,1.4821,,,,,,284,0,284,0,1,,,,,
,,400271,001,2023-07-24_13h06.42.769,arm3_eps,2022.2.5,Win32,60.04924038,5fb9adb28a52968d9f561808,64aea9d0f615b6559c281482,64becb99a950fee9b61f5fc1,right,1,0.3,0.05,24,-0.000698412,0.417,,,,,,285,0,285,0,1,,,,,
,,400271,001,2023-07-24_13h06.42.769,arm3_eps,2022.2.5,Win32,60.04924038,5fb9adb28a52968d9f561808,64aea9d0f615b6559c281482,64becb99a950fee9b61f5fc1,up,1,0.3,0.05,24,0,0.7504,,,,,,286,0,286,0,1,,,,,
,,400271,001,2023-07-24_13h06.42.769,arm3_eps,2022.2.5,Win32,60.04924038,5fb9adb28a52968d9f561808,64aea9d0f615b6559c281482,64becb99a950fee9b61f5fc1,up,1,0.3,0.05,25,0,2.1982,,,,,,287,0,287,0,1,,,,,
,,400271,001,2023-07-24_13h06.42.769,arm3_eps,2022.2.5,Win32,60.04924038,5fb9adb28a52968d9f561808,64aea9d0f615b6559c281482,64becb99a950fee9b61f5fc1,up,1,0.3,0.05,25,0,1.7571,,,,,,288,0,288,0,1,,,,,
,,400271,001,2023-07-24_13h06.42.769,arm3_eps,2022.2.5,Win32,60.04924038,5fb9adb28a52968d9f561808,64aea9d0f615b6559c281482,64becb99a950fee9b61f5fc1,down,1,0.3,0.05,24,0,2.0317,,,,,,289,0,289,0,1,,,,,
,,400271,001,2023-07-24_13h06.42.769,arm3_eps,2022.2.5,Win32,60.04924038,5fb9adb28a52968d9f561808,64aea9d0f615b6559c281482,64becb99a950fee9b61f5fc1,up,1,0.3,0.05,24,0,1.882,,,,,,290,0,290,0,1,,,,,
,,400271,001,2023-07-24_13h06.42.769,arm3_eps,2022.2.5,Win32,60.04924038,5fb9adb28a52968d9f561808,64aea9d0f615b6559c281482,64becb99a950fee9b61f5fc1,up,1,0.3,0.05,24,0,1.2831,,,,,,291,0,291,0,1,,,,,
,,400271,001,2023-07-24_13h06.42.769,arm3_eps,2022.2.5,Win32,60.04924038,5fb9adb28a52968d9f561808,64aea9d0f615b6559c281482,64becb99a950fee9b61f5fc1,down,1,0.3,0.05,24,0,1.9387,,,,,,292,0,292,0,1,,,,,
,,400271,001,2023-07-24_13h06.42.769,arm3_eps,2022.2.5,Win32,60.04924038,5fb9adb28a52968d9f561808,64aea9d0f615b6559c281482,64becb99a950fee9b61f5fc1,up,1,0.3,0.05,25,0,1.3496,,,,,,293,0,293,0,1,,,,,
,,400271,001,2023-07-24_13h06.42.769,arm3_eps,2022.2.5,Win32,60.04924038,5fb9adb28a52968d9f561808,64aea9d0f615b6559c281482,64becb99a950fee9b61f5fc1,down,1,0.3,0.05,25,0,1.4162,,,,,,294,0,294,0,1,,,,,
,,400271,001,2023-07-24_13h06.42.769,arm3_eps,2022.2.5,Win32,60.04924038,5fb9adb28a52968d9f561808,64aea9d0f615b6559c281482,64becb99a950fee9b61f5fc1,up,1,0.3,0.05,26,0,0.9332,,,,,,295,0,295,0,1,,,,,
,,400271,001,2023-07-24_13h06.42.769,arm3_eps,2022.2.5,Win32,60.04924038,5fb9adb28a52968d9f561808,64aea9d0f615b6559c281482,64becb99a950fee9b61f5fc1,up,1,0.3,0.05,26,0,1.2486,,,,,,296,0,296,0,1,,,,,
,,400271,001,2023-07-24_13h06.42.769,arm3_eps,2022.2.5,Win32,60.04924038,5fb9adb28a52968d9f561808,64aea9d0f615b6559c281482,64becb99a950fee9b61f5fc1,down,1,0.3,0.05,26,0,0.8827,,,,,,297,0,297,0,1,,,,,
,,400271,001,2023-07-24_13h06.42.769,arm3_eps,2022.2.5,Win32,60.04924038,5fb9adb28a52968d9f561808,64aea9d0f615b6559c281482,64becb99a950fee9b61f5fc1,right,1,0.3,0.05,26,0.011695768,1.3153,,,,,,298,0,298,0,1,,,,,
,,400271,001,2023-07-24_13h06.42.769,arm3_eps,2022.2.5,Win32,60.04924038,5fb9adb28a52968d9f561808,64aea9d0f615b6559c281482,64becb99a950fee9b61f5fc1,right,1,0.3,0.05,26,0.034961473,0.3833,,,,,,299,0,299,0,1,,,,,
,,400271,001,2023-07-24_13h06.42.769,arm3_eps,2022.2.5,Win32,60.04924038,5fb9adb28a52968d9f561808,64aea9d0f615b6559c281482,64becb99a950fee9b61f5fc1,right,1,0.3,0.05,26,0.019336839,0.383,,,,,,300,0,300,0,1,,,,,
,,400271,001,2023-07-24_13h06.42.769,arm3_eps,2022.2.5,Win32,60.04924038,5fb9adb28a52968d9f561808,64aea9d0f615b6559c281482,64becb99a950fee9b61f5fc1,up,1,0.3,0.05,27,0,0.9161,,,,,,301,0,301,0,1,,,,,
,,400271,001,2023-07-24_13h06.42.769,arm3_eps,2022.2.5,Win32,60.04924038,5fb9adb28a52968d9f561808,64aea9d0f615b6559c281482,64becb99a950fee9b61f5fc1,right,1,0.3,0.05,27,-0.012966755,1.5987,,,,,,302,0,302,0,1,,,,,
,,400271,001,2023-07-24_13h06.42.769,arm3_eps,2022.2.5,Win32,60.04924038,5fb9adb28a52968d9f561808,64aea9d0f615b6559c281482,64becb99a950fee9b61f5fc1,right,1,0.3,0.05,27,-0.000581501,0.3,,,,,,303,0,303,0,1,,,,,
,,400271,001,2023-07-24_13h06.42.769,arm3_eps,2022.2.5,Win32,60.04924038,5fb9adb28a52968d9f561808,64aea9d0f615b6559c281482,64becb99a950fee9b61f5fc1,right,1,0.3,0.05,27,0.013122134,0.55,,,,,,304,0,304,0,1,,,,,
,,400271,001,2023-07-24_13h06.42.769,arm3_eps,2022.2.5,Win32,60.04924038,5fb9adb28a52968d9f561808,64aea9d0f615b6559c281482,64becb99a950fee9b61f5fc1,right,1,0.3,0.05,27,0.007523552,0.9167,,,,,,305,0,305,0,1,,,,,
,,400271,001,2023-07-24_13h06.42.769,arm3_eps,2022.2.5,Win32,60.04924038,5fb9adb28a52968d9f561808,64aea9d0f615b6559c281482,64becb99a950fee9b61f5fc1,up,1,0.3,0.05,27,0,0.7665,,,,,,306,0,306,0,1,,,,,
,,400271,001,2023-07-24_13h06.42.769,arm3_eps,2022.2.5,Win32,60.04924038,5fb9adb28a52968d9f561808,64aea9d0f615b6559c281482,64becb99a950fee9b61f5fc1,up,1,0.3,0.05,28,0,1.8647,,,,,,307,0,307,0,1,,,,,
,,400271,001,2023-07-24_13h06.42.769,arm3_eps,2022.2.5,Win32,60.04924038,5fb9adb28a52968d9f561808,64aea9d0f615b6559c281482,64becb99a950fee9b61f5fc1,up,1,0.3,0.05,28,0,3.0644,,,,,,308,0,308,0,1,,,,,
,,400271,001,2023-07-24_13h06.42.769,arm3_eps,2022.2.5,Win32,60.04924038,5fb9adb28a52968d9f561808,64aea9d0f615b6559c281482,64becb99a950fee9b61f5fc1,right,1,0.3,0.05,28,0.005580284,1.6589,,,,,,309,0,309,0,1,,,,,
,,400271,001,2023-07-24_13h06.42.769,arm3_eps,2022.2.5,Win32,60.04924038,5fb9adb28a52968d9f561808,64aea9d0f615b6559c281482,64becb99a950fee9b61f5fc1,up,1,0.3,0.05,29,0,0.6981,,,,,,310,0,310,0,1,,,,,
,,400271,001,2023-07-24_13h06.42.769,arm3_eps,2022.2.5,Win32,60.04924038,5fb9adb28a52968d9f561808,64aea9d0f615b6559c281482,64becb99a950fee9b61f5fc1,right,1,0.3,0.05,29,-0.001074264,1.1465,,,,,,311,0,311,0,1,,,,,
,,400271,001,2023-07-24_13h06.42.769,arm3_eps,2022.2.5,Win32,60.04924038,5fb9adb28a52968d9f561808,64aea9d0f615b6559c281482,64becb99a950fee9b61f5fc1,up,1,0.3,0.05,29,0,0.899,,,,,,312,0,312,0,1,,,,,
,,400271,001,2023-07-24_13h06.42.769,arm3_eps,2022.2.5,Win32,60.04924038,5fb9adb28a52968d9f561808,64aea9d0f615b6559c281482,64becb99a950fee9b61f5fc1,right,1,0.3,0.05,29,-0.007803732,2.1243,,,,,,313,0,313,0,1,,,,,
,,400271,001,2023-07-24_13h06.42.769,arm3_eps,2022.2.5,Win32,60.04924038,5fb9adb28a52968d9f561808,64aea9d0f615b6559c281482,64becb99a950fee9b61f5fc1,up,1,0.3,0.05,29,0,1.5486,,,,,,314,0,314,0,1,,,,,
,,400271,001,2023-07-24_13h06.42.769,arm3_eps,2022.2.5,Win32,60.04924038,5fb9adb28a52968d9f561808,64aea9d0f615b6559c281482,64becb99a950fee9b61f5fc1,up,1,0.3,0.05,29,0,1.4972,,,,,,315,0,315,0,1,,,,,
,,400271,001,2023-07-24_13h06.42.769,arm3_eps,2022.2.5,Win32,60.04924038,5fb9adb28a52968d9f561808,64aea9d0f615b6559c281482,64becb99a950fee9b61f5fc1,up,1,0.3,0.05,29,0,1.4844,,,,,,316,0,316,0,1,,,,,
,,400271,001,2023-07-24_13h06.42.769,arm3_eps,2022.2.5,Win32,60.04924038,5fb9adb28a52968d9f561808,64aea9d0f615b6559c281482,64becb99a950fee9b61f5fc1,down,1,0.3,0.05,29,0,1.6462,,,,,,317,0,317,0,1,,,,,
,,400271,001,2023-07-24_13h06.42.769,arm3_eps,2022.2.5,Win32,60.04924038,5fb9adb28a52968d9f561808,64aea9d0f615b6559c281482,64becb99a950fee9b61f5fc1,down,-1,0.3,0.05,28,0,1.1037,,,,,,318,0,318,0,1,,,,,
,,400271,001,2023-07-24_13h06.42.769,arm3_eps,2022.2.5,Win32,60.04924038,5fb9adb28a52968d9f561808,64aea9d0f615b6559c281482,64becb99a950fee9b61f5fc1,up,-1,0.3,0.05,27,0,1.5746,,,,,,319,0,319,0,1,,,,,
,,400271,001,2023-07-24_13h06.42.769,arm3_eps,2022.2.5,Win32,60.04924038,5fb9adb28a52968d9f561808,64aea9d0f615b6559c281482,64becb99a950fee9b61f5fc1,down,-1,0.3,0.05,27,0,1.3487,,,,,,320,0,320,0,1,,,,,
,,400271,001,2023-07-24_13h06.42.769,arm3_eps,2022.2.5,Win32,60.04924038,5fb9adb28a52968d9f561808,64aea9d0f615b6559c281482,64becb99a950fee9b61f5fc1,up,-1,0.3,0.05,27,0,1.5916,,,,,,321,0,321,0,1,,,,,
,,400271,001,2023-07-24_13h06.42.769,arm3_eps,2022.2.5,Win32,60.04924038,5fb9adb28a52968d9f561808,64aea9d0f615b6559c281482,64becb99a950fee9b61f5fc1,up,-1,0.3,0.05,27,0,1.3779,,,,,,322,0,322,0,1,,,,,
,,400271,001,2023-07-24_13h06.42.769,arm3_eps,2022.2.5,Win32,60.04924038,5fb9adb28a52968d9f561808,64aea9d0f615b6559c281482,64becb99a950fee9b61f5fc1,down,-1,0.3,0.05,28,0,1.1818,,,,,,323,0,323,0,1,,,,,
,,400271,001,2023-07-24_13h06.42.769,arm3_eps,2022.2.5,Win32,60.04924038,5fb9adb28a52968d9f561808,64aea9d0f615b6559c281482,64becb99a950fee9b61f5fc1,down,-1,0.3,0.05,28,0,1.5607,,,,,,324,0,324,0,1,,,,,
,,400271,001,2023-07-24_13h06.42.769,arm3_eps,2022.2.5,Win32,60.04924038,5fb9adb28a52968d9f561808,64aea9d0f615b6559c281482,64becb99a950fee9b61f5fc1,down,-1,0.3,0.05,28,0,1.5112,,,,,,325,0,325,0,1,,,,,
,,400271,001,2023-07-24_13h06.42.769,arm3_eps,2022.2.5,Win32,60.04924038,5fb9adb28a52968d9f561808,64aea9d0f615b6559c281482,64becb99a950fee9b61f5fc1,down,-1,0.3,0.05,28,0,0.9768,,,,,,326,0,326,0,1,,,,,
,,400271,001,2023-07-24_13h06.42.769,arm3_eps,2022.2.5,Win32,60.04924038,5fb9adb28a52968d9f561808,64aea9d0f615b6559c281482,64becb99a950fee9b61f5fc1,down,-1,0.3,0.05,29,0,1.5778,,,,,,327,0,327,0,1,,,,,
,,400271,001,2023-07-24_13h06.42.769,arm3_eps,2022.2.5,Win32,60.04924038,5fb9adb28a52968d9f561808,64aea9d0f615b6559c281482,64becb99a950fee9b61f5fc1,right,-1,0.3,0.05,29,-0.003918903,1.4578,,,,,,328,0,328,0,1,,,,,
,,400271,001,2023-07-24_13h06.42.769,arm3_eps,2022.2.5,Win32,60.04924038,5fb9adb28a52968d9f561808,64aea9d0f615b6559c281482,64becb99a950fee9b61f5fc1,right,-1,0.3,0.05,29,-0.014444067,0.3543,,,,,,329,0,329,0,1,,,,,
,,400271,001,2023-07-24_13h06.42.769,arm3_eps,2022.2.5,Win32,60.04924038,5fb9adb28a52968d9f561808,64aea9d0f615b6559c281482,64becb99a950fee9b61f5fc1,down,-1,0.3,0.05,29,0,0.5334,,,,,,330,0,330,0,1,,,,,
,,400271,001,2023-07-24_13h06.42.769,arm3_eps,2022.2.5,Win32,60.04924038,5fb9adb28a52968d9f561808,64aea9d0f615b6559c281482,64becb99a950fee9b61f5fc1,down,-1,0.3,0.05,30,0,0.7099,,,,,,331,0,331,0,1,,,,,
,,400271,001,2023-07-24_13h06.42.769,arm3_eps,2022.2.5,Win32,60.04924038,5fb9adb28a52968d9f561808,64aea9d0f615b6559c281482,64becb99a950fee9b61f5fc1,down,-1,0.3,0.05,31,0,1.2883,,,,,,332,0,332,0,1,,,,,
,,400271,001,2023-07-24_13h06.42.769,arm3_eps,2022.2.5,Win32,60.04924038,5fb9adb28a52968d9f561808,64aea9d0f615b6559c281482,64becb99a950fee9b61f5fc1,right,-1,0.3,0.05,31,-0.000802166,2.9927,,,,,,333,0,333,0,1,,,,,
,,400271,001,2023-07-24_13h06.42.769,arm3_eps,2022.2.5,Win32,60.04924038,5fb9adb28a52968d9f561808,64aea9d0f615b6559c281482,64becb99a950fee9b61f5fc1,right,-1,0.3,0.05,31,-0.00576313,0.3725,,,,,,334,0,334,0,1,,,,,
,,400271,001,2023-07-24_13h06.42.769,arm3_eps,2022.2.5,Win32,60.04924038,5fb9adb28a52968d9f561808,64aea9d0f615b6559c281482,64becb99a950fee9b61f5fc1,down,-1,0.3,0.05,32,0,0.6155,,,,,,335,0,335,0,1,,,,,
,,400271,001,2023-07-24_13h06.42.769,arm3_eps,2022.2.5,Win32,60.04924038,5fb9adb28a52968d9f561808,64aea9d0f615b6559c281482,64becb99a950fee9b61f5fc1,down,-1,0.3,0.05,33,0,1.8981,,,,,,336,0,336,0,1,,,,,
,,400271,001,2023-07-24_13h06.42.769,arm3_eps,2022.2.5,Win32,60.04924038,5fb9adb28a52968d9f561808,64aea9d0f615b6559c281482,64becb99a950fee9b61f5fc1,down,-1,0.3,0.05,33,0,1.2577,,,,,,337,0,337,0,1,,,,,
,,400271,001,2023-07-24_13h06.42.769,arm3_eps,2022.2.5,Win32,60.04924038,5fb9adb28a52968d9f561808,64aea9d0f615b6559c281482,64becb99a950fee9b61f5fc1,down,-1,0.3,0.05,33,0,1.1428,,,,,,338,0,338,0,1,,,,,
,,400271,001,2023-07-24_13h06.42.769,arm3_eps,2022.2.5,Win32,60.04924038,5fb9adb28a52968d9f561808,64aea9d0f615b6559c281482,64becb99a950fee9b61f5fc1,down,-1,0.3,0.05,34,0,0.8323,,,,,,339,0,339,0,1,,,,,
,,400271,001,2023-07-24_13h06.42.769,arm3_eps,2022.2.5,Win32,60.04924038,5fb9adb28a52968d9f561808,64aea9d0f615b6559c281482,64becb99a950fee9b61f5fc1,down,-1,0.3,0.05,35,0,0.9992,,,,,,340,0,340,0,1,,,,,
,,400271,001,2023-07-24_13h06.42.769,arm3_eps,2022.2.5,Win32,60.04924038,5fb9adb28a52968d9f561808,64aea9d0f615b6559c281482,64becb99a950fee9b61f5fc1,up,-1,0.3,0.05,35,0,2.2451,,,,,,341,0,341,0,1,,,,,
,,400271,001,2023-07-24_13h06.42.769,arm3_eps,2022.2.5,Win32,60.04924038,5fb9adb28a52968d9f561808,64aea9d0f615b6559c281482,64becb99a950fee9b61f5fc1,down,-1,0.3,0.05,36,0,1.5292,,,,,,342,0,342,0,1,,,,,
,,400271,001,2023-07-24_13h06.42.769,arm3_eps,2022.2.5,Win32,60.04924038,5fb9adb28a52968d9f561808,64aea9d0f615b6559c281482,64becb99a950fee9b61f5fc1,down,-1,0.3,0.05,36,0,1.3198,,,,,,343,0,343,0,1,,,,,
,,400271,001,2023-07-24_13h06.42.769,arm3_eps,2022.2.5,Win32,60.04924038,5fb9adb28a52968d9f561808,64aea9d0f615b6559c281482,64becb99a950fee9b61f5fc1,right,-1,0.3,0.05,36,-0.001264631,1.3843,,,,,,344,0,344,0,1,,,,,
,,400271,001,2023-07-24_13h06.42.769,arm3_eps,2022.2.5,Win32,60.04924038,5fb9adb28a52968d9f561808,64aea9d0f615b6559c281482,64becb99a950fee9b61f5fc1,right,-1,0.3,0.05,36,0.002797422,0.317,,,,,,345,0,345,0,1,,,,,
,,400271,001,2023-07-24_13h06.42.769,arm3_eps,2022.2.5,Win32,60.04924038,5fb9adb28a52968d9f561808,64aea9d0f615b6559c281482,64becb99a950fee9b61f5fc1,right,-1,0.3,0.05,36,0.004091913,0.4501,,,,,,346,0,346,0,1,,,,,
,,400271,001,2023-07-24_13h06.42.769,arm3_eps,2022.2.5,Win32,60.04924038,5fb9adb28a52968d9f561808,64aea9d0f615b6559c281482,64becb99a950fee9b61f5fc1,up,-1,0.3,0.05,36,0,2.1549,,,,,,347,0,347,0,1,,,,,
,,400271,001,2023-07-24_13h06.42.769,arm3_eps,2022.2.5,Win32,60.04924038,5fb9adb28a52968d9f561808,64aea9d0f615b6559c281482,64becb99a950fee9b61f5fc1,down,-1,0.3,0.05,36,0,1.1983,,,,,,348,0,348,0,1,,,,,
,,400271,001,2023-07-24_13h06.42.769,arm3_eps,2022.2.5,Win32,60.04924038,5fb9adb28a52968d9f561808,64aea9d0f615b6559c281482,64becb99a950fee9b61f5fc1,down,-1,0.3,0.05,37,0,2.2143,,,,,,349,0,349,0,1,,,,,
,,400271,001,2023-07-24_13h06.42.769,arm3_eps,2022.2.5,Win32,60.04924038,5fb9adb28a52968d9f561808,64aea9d0f615b6559c281482,64becb99a950fee9b61f5fc1,down,-1,0.3,0.05,37,0,2.3935,,,,,,350,0,350,0,1,,,,,
,,400271,001,2023-07-24_13h06.42.769,arm3_eps,2022.2.5,Win32,60.04924038,5fb9adb28a52968d9f561808,64aea9d0f615b6559c281482,64becb99a950fee9b61f5fc1,right,-1,0.3,0.05,37,0.007587704,1.6752,,,,,,351,0,351,0,1,,,,,
,,400271,001,2023-07-24_13h06.42.769,arm3_eps,2022.2.5,Win32,60.04924038,5fb9adb28a52968d9f561808,64aea9d0f615b6559c281482,64becb99a950fee9b61f5fc1,right,-1,0.3,0.05,37,0.019107113,0.3142,,,,,,352,0,352,0,1,,,,,
,,400271,001,2023-07-24_13h06.42.769,arm3_eps,2022.2.5,Win32,60.04924038,5fb9adb28a52968d9f561808,64aea9d0f615b6559c281482,64becb99a950fee9b61f5fc1,up,-1,0.3,0.05,37,0,0.2696,,,,,,353,0,353,0,1,,,,,
,,400271,001,2023-07-24_13h06.42.769,arm3_eps,2022.2.5,Win32,60.04924038,5fb9adb28a52968d9f561808,64aea9d0f615b6559c281482,64becb99a950fee9b61f5fc1,down,-1,0.3,0.05,37,0,1.1714,,,,,,354,0,354,0,1,,,,,
,,400271,001,2023-07-24_13h06.42.769,arm3_eps,2022.2.5,Win32,60.04924038,5fb9adb28a52968d9f561808,64aea9d0f615b6559c281482,64becb99a950fee9b61f5fc1,down,-1,0.3,0.05,37,0,1.1456,,,,,,355,0,355,0,1,,,,,
,,400271,001,2023-07-24_13h06.42.769,arm3_eps,2022.2.5,Win32,60.04924038,5fb9adb28a52968d9f561808,64aea9d0f615b6559c281482,64becb99a950fee9b61f5fc1,right,-1,0.3,0.05,37,-0.008365994,2.2942,,,,,,356,0,356,0,1,,,,,
,,400271,001,2023-07-24_13h06.42.769,arm3_eps,2022.2.5,Win32,60.04924038,5fb9adb28a52968d9f561808,64aea9d0f615b6559c281482,64becb99a950fee9b61f5fc1,right,-1,0.3,0.05,37,-0.044859771,0.2166,,,,,,357,0,357,0,1,,,,,
,,400271,001,2023-07-24_13h06.42.769,arm3_eps,2022.2.5,Win32,60.04924038,5fb9adb28a52968d9f561808,64aea9d0f615b6559c281482,64becb99a950fee9b61f5fc1,down,-1,0.3,0.05,37,0,0.3649,,,,,,358,0,358,0,1,,,,,
,,400271,001,2023-07-24_13h06.42.769,arm3_eps,2022.2.5,Win32,60.04924038,5fb9adb28a52968d9f561808,64aea9d0f615b6559c281482,64becb99a950fee9b61f5fc1,right,-1,0.3,0.05,37,-0.003185739,1.8161,,,,,,359,0,359,0,1,,,,,
,,400271,001,2023-07-24_13h06.42.769,arm3_eps,2022.2.5,Win32,60.04924038,5fb9adb28a52968d9f561808,64aea9d0f615b6559c281482,64becb99a950fee9b61f5fc1,right,-1,0.3,0.05,37,-0.008935475,0.2995,,,,,,360,0,360,0,1,,,,,
,,400271,001,2023-07-24_13h06.42.769,arm3_eps,2022.2.5,Win32,60.04924038,5fb9adb28a52968d9f561808,64aea9d0f615b6559c281482,64becb99a950fee9b61f5fc1,right,-1,0.3,0.05,37,-0.012566757,0.6486,,,,,,361,0,361,0,1,,,,,
,,400271,001,2023-07-24_13h06.42.769,arm3_eps,2022.2.5,Win32,60.04924038,5fb9adb28a52968d9f561808,64aea9d0f615b6559c281482,64becb99a950fee9b61f5fc1,down,-1,0.3,0.05,38,0,0.732,,,,,,362,0,362,0,1,,,,,
,,400271,001,2023-07-24_13h06.42.769,arm3_eps,2022.2.5,Win32,60.04924038,5fb9adb28a52968d9f561808,64aea9d0f615b6559c281482,64becb99a950fee9b61f5fc1,down,-1,0.3,0.05,38,0,2.1276,,,,,,363,0,363,0,1,,,,,
,,400271,001,2023-07-24_13h06.42.769,arm3_eps,2022.2.5,Win32,60.04924038,5fb9adb28a52968d9f561808,64aea9d0f615b6559c281482,64becb99a950fee9b61f5fc1,down,-1,0.3,0.05,38,0,1.0774,,,,,,364,0,364,0,1,,,,,
,,400271,001,2023-07-24_13h06.42.769,arm3_eps,2022.2.5,Win32,60.04924038,5fb9adb28a52968d9f561808,64aea9d0f615b6559c281482,64becb99a950fee9b61f5fc1,down,-1,0.3,0.05,39,0,1.3165,,,,,,365,0,365,0,1,,,,,
,,400271,001,2023-07-24_13h06.42.769,arm3_eps,2022.2.5,Win32,60.04924038,5fb9adb28a52968d9f561808,64aea9d0f615b6559c281482,64becb99a950fee9b61f5fc1,down,-1,0.3,0.05,39,0,2.4635,,,,,,366,0,366,0,1,,,,,
,,400271,001,2023-07-24_13h06.42.769,arm3_eps,2022.2.5,Win32,60.04924038,5fb9adb28a52968d9f561808,64aea9d0f615b6559c281482,64becb99a950fee9b61f5fc1,up,-1,0.3,0.05,39,0,1.6945,,,,,,367,0,367,0,1,,,,,
,,400271,001,2023-07-24_13h06.42.769,arm3_eps,2022.2.5,Win32,60.04924038,5fb9adb28a52968d9f561808,64aea9d0f615b6559c281482,64becb99a950fee9b61f5fc1,up,-1,0.3,0.05,38,0,1.1159,,,,,,368,0,368,0,1,,,,,
,,400271,001,2023-07-24_13h06.42.769,arm3_eps,2022.2.5,Win32,60.04924038,5fb9adb28a52968d9f561808,64aea9d0f615b6559c281482,64becb99a950fee9b61f5fc1,down,-1,0.3,0.05,38,0,1.3071,,,,,,369,0,369,0,1,,,,,
,,400271,001,2023-07-24_13h06.42.769,arm3_eps,2022.2.5,Win32,60.04924038,5fb9adb28a52968d9f561808,64aea9d0f615b6559c281482,64becb99a950fee9b61f5fc1,,,,,,,,,,,,,,,,,,0,0,0,0,1
space,6.0889,400271,001,2023-07-24_13h06.42.769,arm3_eps,2022.2.5,Win32,60.04924038,5fb9adb28a52968d9f561808,64aea9d0f615b6559c281482,64becb99a950fee9b61f5fc1,right,-1,0.3,0.1143,38,-0.029309466,1.3544,,,,,,0,0,0,0,1,,,,,
,,400271,001,2023-07-24_13h06.42.769,arm3_eps,2022.2.5,Win32,60.04924038,5fb9adb28a52968d9f561808,64aea9d0f615b6559c281482,64becb99a950fee9b61f5fc1,down,-1,0.3,0.1143,38,0,0.6826,,,,,,1,0,1,0,1,,,,,
,,400271,001,2023-07-24_13h06.42.769,arm3_eps,2022.2.5,Win32,60.04924038,5fb9adb28a52968d9f561808,64aea9d0f615b6559c281482,64becb99a950fee9b61f5fc1,right,-1,0.3,0.1143,38,-0.001158209,1.0002,,,,,,2,0,2,0,1,,,,,
,,400271,001,2023-07-24_13h06.42.769,arm3_eps,2022.2.5,Win32,60.04924038,5fb9adb28a52968d9f561808,64aea9d0f615b6559c281482,64becb99a950fee9b61f5fc1,down,-1,0.3,0.1143,39,0,0.7797,,,,,,3,0,3,0,1,,,,,
,,400271,001,2023-07-24_13h06.42.769,arm3_eps,2022.2.5,Win32,60.04924038,5fb9adb28a52968d9f561808,64aea9d0f615b6559c281482,64becb99a950fee9b61f5fc1,down,-1,0.3,0.1143,39,0,2.9766,,,,,,4,0,4,0,1,,,,,
,,400271,001,2023-07-24_13h06.42.769,arm3_eps,2022.2.5,Win32,60.04924038,5fb9adb28a52968d9f561808,64aea9d0f615b6559c281482,64becb99a950fee9b61f5fc1,down,-1,0.3,0.1143,39,0,1.1409,,,,,,5,0,5,0,1,,,,,
,,400271,001,2023-07-24_13h06.42.769,arm3_eps,2022.2.5,Win32,60.04924038,5fb9adb28a52968d9f561808,64aea9d0f615b6559c281482,64becb99a950fee9b61f5fc1,right,-1,0.3,0.1143,39,0.006445887,1.3984,,,,,,6,0,6,0,1,,,,,
,,400271,001,2023-07-24_13h06.42.769,arm3_eps,2022.2.5,Win32,60.04924038,5fb9adb28a52968d9f561808,64aea9d0f615b6559c281482,64becb99a950fee9b61f5fc1,right,-1,0.3,0.1143,39,-0.026752715,0.2331,,,,,,7,0,7,0,1,,,,,
,,400271,001,2023-07-24_13h06.42.769,arm3_eps,2022.2.5,Win32,60.04924038,5fb9adb28a52968d9f561808,64aea9d0f615b6559c281482,64becb99a950fee9b61f5fc1,down,-1,0.3,0.1143,39,0,0.4337,,,,,,8,0,8,0,1,,,,,
,,400271,001,2023-07-24_13h06.42.769,arm3_eps,2022.2.5,Win32,60.04924038,5fb9adb28a52968d9f561808,64aea9d0f615b6559c281482,64becb99a950fee9b61f5fc1,right,-1,0.3,0.1143,39,0.022799263,1.5192,,,,,,9,0,9,0,1,,,,,
,,400271,001,2023-07-24_13h06.42.769,arm3_eps,2022.2.5,Win32,60.04924038,5fb9adb28a52968d9f561808,64aea9d0f615b6559c281482,64becb99a950fee9b61f5fc1,right,-1,0.3,0.1143,39,0.007830013,0.2528,,,,,,10,0,10,0,1,,,,,
,,400271,001,2023-07-24_13h06.42.769,arm3_eps,2022.2.5,Win32,60.04924038,5fb9adb28a52968d9f561808,64aea9d0f615b6559c281482,64becb99a950fee9b61f5fc1,right,-1,0.3,0.1143,39,-0.003299702,0.2571,,,,,,11,0,11,0,1,,,,,
,,400271,001,2023-07-24_13h06.42.769,arm3_eps,2022.2.5,Win32,60.04924038,5fb9adb28a52968d9f561808,64aea9d0f615b6559c281482,64becb99a950fee9b61f5fc1,right,-1,0.3,0.1143,39,0.006710479,0.4502,,,,,,12,0,12,0,1,,,,,
,,400271,001,2023-07-24_13h06.42.769,arm3_eps,2022.2.5,Win32,60.04924038,5fb9adb28a52968d9f561808,64aea9d0f615b6559c281482,64becb99a950fee9b61f5fc1,up,-1,0.3,0.1143,39,0,0.5206,,,,,,13,0,13,0,1,,,,,
,,400271,001,2023-07-24_13h06.42.769,arm3_eps,2022.2.5,Win32,60.04924038,5fb9adb28a52968d9f561808,64aea9d0f615b6559c281482,64becb99a950fee9b61f5fc1,down,-1,0.3,0.1143,39,0,1.4533,,,,,,14,0,14,0,1,,,,,
,,400271,001,2023-07-24_13h06.42.769,arm3_eps,2022.2.5,Win32,60.04924038,5fb9adb28a52968d9f561808,64aea9d0f615b6559c281482,64becb99a950fee9b61f5fc1,down,-1,0.3,0.1143,39,0,1.4652,,,,,,15,0,15,0,1,,,,,
,,400271,001,2023-07-24_13h06.42.769,arm3_eps,2022.2.5,Win32,60.04924038,5fb9adb28a52968d9f561808,64aea9d0f615b6559c281482,64becb99a950fee9b61f5fc1,right,-1,0.3,0.1143,39,0.038128073,2.0781,,,,,,16,0,16,0,1,,,,,
,,400271,001,2023-07-24_13h06.42.769,arm3_eps,2022.2.5,Win32,60.04924038,5fb9adb28a52968d9f561808,64aea9d0f615b6559c281482,64becb99a950fee9b61f5fc1,right,-1,0.3,0.1143,39,0.000927733,0.4487,,,,,,17,0,17,0,1,,,,,
,,400271,001,2023-07-24_13h06.42.769,arm3_eps,2022.2.5,Win32,60.04924038,5fb9adb28a52968d9f561808,64aea9d0f615b6559c281482,64becb99a950fee9b61f5fc1,right,-1,0.3,0.1143,39,-0.017972473,0.5658,,,,,,18,0,18,0,1,,,,,
,,400271,001,2023-07-24_13h06.42.769,arm3_eps,2022.2.5,Win32,60.04924038,5fb9adb28a52968d9f561808,64aea9d0f615b6559c281482,64becb99a950fee9b61f5fc1,right,-1,0.3,0.1143,39,-0.088877552,0.317,,,,,,19,0,19,0,1,,,,,
,,400271,001,2023-07-24_13h06.42.769,arm3_eps,2022.2.5,Win32,60.04924038,5fb9adb28a52968d9f561808,64aea9d0f615b6559c281482,64becb99a950fee9b61f5fc1,down,-1,0.3,0.1143,39,0,0.6574,,,,,,20,0,20,0,1,,,,,
,,400271,001,2023-07-24_13h06.42.769,arm3_eps,2022.2.5,Win32,60.04924038,5fb9adb28a52968d9f561808,64aea9d0f615b6559c281482,64becb99a950fee9b61f5fc1,down,-1,0.3,0.1143,39,0,1.2975,,,,,,21,0,21,0,1,,,,,
,,400271,001,2023-07-24_13h06.42.769,arm3_eps,2022.2.5,Win32,60.04924038,5fb9adb28a52968d9f561808,64aea9d0f615b6559c281482,64becb99a950fee9b61f5fc1,up,-1,0.3,0.1143,38,0,1.3509,,,,,,22,0,22,0,1,,,,,
,,400271,001,2023-07-24_13h06.42.769,arm3_eps,2022.2.5,Win32,60.04924038,5fb9adb28a52968d9f561808,64aea9d0f615b6559c281482,64becb99a950fee9b61f5fc1,down,-1,0.3,0.1143,38,0,1.0429,,,,,,23,0,23,0,1,,,,,
,,400271,001,2023-07-24_13h06.42.769,arm3_eps,2022.2.5,Win32,60.04924038,5fb9adb28a52968d9f561808,64aea9d0f615b6559c281482,64becb99a950fee9b61f5fc1,down,-1,0.3,0.1143,38,0,1.2079,,,,,,24,0,24,0,1,,,,,
,,400271,001,2023-07-24_13h06.42.769,arm3_eps,2022.2.5,Win32,60.04924038,5fb9adb28a52968d9f561808,64aea9d0f615b6559c281482,64becb99a950fee9b61f5fc1,right,-1,0.3,0.1143,38,0.00750092,1.9986,,,,,,25,0,25,0,1,,,,,
,,400271,001,2023-07-24_13h06.42.769,arm3_eps,2022.2.5,Win32,60.04924038,5fb9adb28a52968d9f561808,64aea9d0f615b6559c281482,64becb99a950fee9b61f5fc1,right,-1,0.3,0.1143,38,-0.025036165,0.2844,,,,,,26,0,26,0,1,,,,,
,,400271,001,2023-07-24_13h06.42.769,arm3_eps,2022.2.5,Win32,60.04924038,5fb9adb28a52968d9f561808,64aea9d0f615b6559c281482,64becb99a950fee9b61f5fc1,right,-1,0.3,0.1143,38,-0.014280404,0.5324,,,,,,27,0,27,0,1,,,,,
,,400271,001,2023-07-24_13h06.42.769,arm3_eps,2022.2.5,Win32,60.04924038,5fb9adb28a52968d9f561808,64aea9d0f615b6559c281482,64becb99a950fee9b61f5fc1,down,-1,0.3,0.1143,38,0,0.7544,,,,,,28,0,28,0,1,,,,,
,,400271,001,2023-07-24_13h06.42.769,arm3_eps,2022.2.5,Win32,60.04924038,5fb9adb28a52968d9f561808,64aea9d0f615b6559c281482,64becb99a950fee9b61f5fc1,right,-1,0.3,0.1143,38,-0.019562763,1.1818,,,,,,29,0,29,0,1,,,,,
,,400271,001,2023-07-24_13h06.42.769,arm3_eps,2022.2.5,Win32,60.04924038,5fb9adb28a52968d9f561808,64aea9d0f615b6559c281482,64becb99a950fee9b61f5fc1,down,-1,0.3,0.1143,39,0,0.818,,,,,,30,0,30,0,1,,,,,
,,400271,001,2023-07-24_13h06.42.769,arm3_eps,2022.2.5,Win32,60.04924038,5fb9adb28a52968d9f561808,64aea9d0f615b6559c281482,64becb99a950fee9b61f5fc1,down,1,0.3,0.1143,39,0,1.1989,,,,,,31,0,31,0,1,,,,,
,,400271,001,2023-07-24_13h06.42.769,arm3_eps,2022.2.5,Win32,60.04924038,5fb9adb28a52968d9f561808,64aea9d0f615b6559c281482,64becb99a950fee9b61f5fc1,right,1,0.3,0.1143,39,0.024906678,1.5251,,,,,,32,0,32,0,1,,,,,
,,400271,001,2023-07-24_13h06.42.769,arm3_eps,2022.2.5,Win32,60.04924038,5fb9adb28a52968d9f561808,64aea9d0f615b6559c281482,64becb99a950fee9b61f5fc1,right,1,0.3,0.1143,39,0.020932745,0.2396,,,,,,33,0,33,0,1,,,,,
,,400271,001,2023-07-24_13h06.42.769,arm3_eps,2022.2.5,Win32,60.04924038,5fb9adb28a52968d9f561808,64aea9d0f615b6559c281482,64becb99a950fee9b61f5fc1,right,1,0.3,0.1143,39,0.029336072,0.1991,,,,,,34,0,34,0,1,,,,,
,,400271,001,2023-07-24_13h06.42.769,arm3_eps,2022.2.5,Win32,60.04924038,5fb9adb28a52968d9f561808,64aea9d0f615b6559c281482,64becb99a950fee9b61f5fc1,up,1,0.3,0.1143,40,0,0.4191,,,,,,35,0,35,0,1,,,,,
,,400271,001,2023-07-24_13h06.42.769,arm3_eps,2022.2.5,Win32,60.04924038,5fb9adb28a52968d9f561808,64aea9d0f615b6559c281482,64becb99a950fee9b61f5fc1,right,1,0.3,0.1143,40,0.018102976,2.4593,,,,,,36,0,36,0,1,,,,,
,,400271,001,2023-07-24_13h06.42.769,arm3_eps,2022.2.5,Win32,60.04924038,5fb9adb28a52968d9f561808,64aea9d0f615b6559c281482,64becb99a950fee9b61f5fc1,right,1,0.3,0.1143,40,0.007806859,0.4331,,,,,,37,0,37,0,1,,,,,
,,400271,001,2023-07-24_13h06.42.769,arm3_eps,2022.2.5,Win32,60.04924038,5fb9adb28a52968d9f561808,64aea9d0f615b6559c281482,64becb99a950fee9b61f5fc1,right,1,0.3,0.1143,40,-0.003346768,0.6841,,,,,,38,0,38,0,1,,,,,
,,400271,001,2023-07-24_13h06.42.769,arm3_eps,2022.2.5,Win32,60.04924038,5fb9adb28a52968d9f561808,64aea9d0f615b6559c281482,64becb99a950fee9b61f5fc1,down,1,0.3,0.1143,40,0,1.0514,,,,,,39,0,39,0,1,,,,,
,,400271,001,2023-07-24_13h06.42.769,arm3_eps,2022.2.5,Win32,60.04924038,5fb9adb28a52968d9f561808,64aea9d0f615b6559c281482,64becb99a950fee9b61f5fc1,right,1,0.3,0.1143,40,0.016999786,1.8115,,,,,,40,0,40,0,1,,,,,
,,400271,001,2023-07-24_13h06.42.769,arm3_eps,2022.2.5,Win32,60.04924038,5fb9adb28a52968d9f561808,64aea9d0f615b6559c281482,64becb99a950fee9b61f5fc1,right,1,0.3,0.1143,40,-0.005993814,1.3166,,,,,,41,0,41,0,1,,,,,
,,400271,001,2023-07-24_13h06.42.769,arm3_eps,2022.2.5,Win32,60.04924038,5fb9adb28a52968d9f561808,64aea9d0f615b6559c281482,64becb99a950fee9b61f5fc1,up,1,0.3,0.1143,40,0,0.3049,,,,,,42,0,42,0,1,,,,,
,,400271,001,2023-07-24_13h06.42.769,arm3_eps,2022.2.5,Win32,60.04924038,5fb9adb28a52968d9f561808,64aea9d0f615b6559c281482,64becb99a950fee9b61f5fc1,right,1,0.3,0.1143,40,0.005316858,1.2474,,,,,,43,0,43,0,1,,,,,
,,400271,001,2023-07-24_13h06.42.769,arm3_eps,2022.2.5,Win32,60.04924038,5fb9adb28a52968d9f561808,64aea9d0f615b6559c281482,64becb99a950fee9b61f5fc1,right,1,0.3,0.1143,40,-6.20826E-05,0.3571,,,,,,44,0,44,0,1,,,,,
,,400271,001,2023-07-24_13h06.42.769,arm3_eps,2022.2.5,Win32,60.04924038,5fb9adb28a52968d9f561808,64aea9d0f615b6559c281482,64becb99a950fee9b61f5fc1,right,1,0.3,0.1143,40,0.008203634,0.3338,,,,,,45,0,45,0,1,,,,,
,,400271,001,2023-07-24_13h06.42.769,arm3_eps,2022.2.5,Win32,60.04924038,5fb9adb28a52968d9f561808,64aea9d0f615b6559c281482,64becb99a950fee9b61f5fc1,right,1,0.3,0.1143,40,0.003793306,0.2991,,,,,,46,0,46,0,1,,,,,
,,400271,001,2023-07-24_13h06.42.769,arm3_eps,2022.2.5,Win32,60.04924038,5fb9adb28a52968d9f561808,64aea9d0f615b6559c281482,64becb99a950fee9b61f5fc1,up,1,0.3,0.1143,40,0,0.731,,,,,,47,0,47,0,1,,,,,
,,400271,001,2023-07-24_13h06.42.769,arm3_eps,2022.2.5,Win32,60.04924038,5fb9adb28a52968d9f561808,64aea9d0f615b6559c281482,64becb99a950fee9b61f5fc1,up,1,0.3,0.1143,40,0,1.48,,,,,,48,0,48,0,1,,,,,
,,400271,001,2023-07-24_13h06.42.769,arm3_eps,2022.2.5,Win32,60.04924038,5fb9adb28a52968d9f561808,64aea9d0f615b6559c281482,64becb99a950fee9b61f5fc1,up,1,0.3,0.1143,41,0,1.0799,,,,,,49,0,49,0,1,,,,,
,,400271,001,2023-07-24_13h06.42.769,arm3_eps,2022.2.5,Win32,60.04924038,5fb9adb28a52968d9f561808,64aea9d0f615b6559c281482,64becb99a950fee9b61f5fc1,right,1,0.3,0.1143,41,0.010915131,1.7816,,,,,,50,0,50,0,1,,,,,
