space_bar.keys,space_bar.rt,participant,session,date,expName,psychopyVersion,OS,frameRate,PROLIFIC_PID,STUDY_ID,SESSION_ID,resp.keys,state,q_prob,eps_prob,score,price,resp.rt,train.thisRepN,train.thisTrialN,train.thisN,train.thisIndex,train.ran,steps.thisRepN,steps.thisTrialN,steps.thisN,steps.thisIndex,steps.ran,blocks.thisRepN,blocks.thisTrialN,blocks.thisN,blocks.thisIndex,blocks.ran
space,18.0231,447604,001,2023-07-24_21h22.26.144,arm3_eps,2022.2.5,Win32,60.01680471,611e96285b618d1865f67621,64aea9d0f615b6559c281482,64beceff7cf51bff43b189b1,,,,,,,,,,,,,,,,,,,,,,
space,17.1441,447604,001,2023-07-24_21h22.26.144,arm3_eps,2022.2.5,Win32,60.01680471,611e96285b618d1865f67621,64aea9d0f615b6559c281482,64beceff7cf51bff43b189b1,,,,,,,,,,,,,,,,,,,,,,
space,12.6195,447604,001,2023-07-24_21h22.26.144,arm3_eps,2022.2.5,Win32,60.01680471,611e96285b618d1865f67621,64aea9d0f615b6559c281482,64beceff7cf51bff43b189b1,,,,,,,,,,,,,,,,,,,,,,
space,27.7566,447604,001,2023-07-24_21h22.26.144,arm3_eps,2022.2.5,Win32,60.01680471,611e96285b618d1865f67621,64aea9d0f615b6559c281482,64beceff7cf51bff43b189b1,,,,,,,,,,,,,,,,,,,,,,
space,21.6037,447604,001,2023-07-24_21h22.26.144,arm3_eps,2022.2.5,Win32,60.01680471,611e96285b618d1865f67621,64aea9d0f615b6559c281482,64beceff7cf51bff43b189b1,,,,,,,,,,,,,,,,,,,,,,
space,35.2019,447604,001,2023-07-24_21h22.26.144,arm3_eps,2022.2.5,Win32,60.01680471,611e96285b618d1865f67621,64aea9d0f615b6559c281482,64beceff7cf51bff43b189b1,,,,,,,,,,,,,,,,,,,,,,
space,6.9039,447604,001,2023-07-24_21h22.26.144,arm3_eps,2022.2.5,Win32,60.01680471,611e96285b618d1865f67621,64aea9d0f615b6559c281482,64beceff7cf51bff43b189b1,,,,,,,,,,,,,,,,,,,,,,
space,30.4511,447604,001,2023-07-24_21h22.26.144,arm3_eps,2022.2.5,Win32,60.01680471,611e96285b618d1865f67621,64aea9d0f615b6559c281482,64beceff7cf51bff43b189b1,,,,,,,,,,,,,,,,,,,,,,
space,19.1644,447604,001,2023-07-24_21h22.26.144,arm3_eps,2022.2.5,Win32,60.01680471,611e96285b618d1865f67621,64aea9d0f615b6559c281482,64beceff7cf51bff43b189b1,,,,,,,,,,,,,,,,,,,,,,
space,5.315,447604,001,2023-07-24_21h22.26.144,arm3_eps,2022.2.5,Win32,60.01680471,611e96285b618d1865f67621,64aea9d0f615b6559c281482,64beceff7cf51bff43b189b1,,,,,,,,,,,,,,,,,,,,,,
,,447604,001,2023-07-24_21h22.26.144,arm3_eps,2022.2.5,Win32,60.01680471,611e96285b618d1865f67621,64aea9d0f615b6559c281482,64beceff7cf51bff43b189b1,right,1,0.3,0.2429,0,-0.006470808,1.0981,0,0,0,0,1,,,,,,,,,,
,,447604,001,2023-07-24_21h22.26.144,arm3_eps,2022.2.5,Win32,60.01680471,611e96285b618d1865f67621,64aea9d0f615b6559c281482,64beceff7cf51bff43b189b1,right,1,0.3,0.2429,0,0.009941897,1.2605,1,0,1,0,1,,,,,,,,,,
,,447604,001,2023-07-24_21h22.26.144,arm3_eps,2022.2.5,Win32,60.01680471,611e96285b618d1865f67621,64aea9d0f615b6559c281482,64beceff7cf51bff43b189b1,right,1,0.3,0.2429,0,0.027320266,0.3999,2,0,2,0,1,,,,,,,,,,
,,447604,001,2023-07-24_21h22.26.144,arm3_eps,2022.2.5,Win32,60.01680471,611e96285b618d1865f67621,64aea9d0f615b6559c281482,64beceff7cf51bff43b189b1,right,1,0.3,0.2429,0,0.050189512,0.4357,3,0,3,0,1,,,,,,,,,,
,,447604,001,2023-07-24_21h22.26.144,arm3_eps,2022.2.5,Win32,60.01680471,611e96285b618d1865f67621,64aea9d0f615b6559c281482,64beceff7cf51bff43b189b1,right,1,0.3,0.2429,0,0.022281986,0.5001,4,0,4,0,1,,,,,,,,,,
,,447604,001,2023-07-24_21h22.26.144,arm3_eps,2022.2.5,Win32,60.01680471,611e96285b618d1865f67621,64aea9d0f615b6559c281482,64beceff7cf51bff43b189b1,right,1,0.3,0.2429,0,0.05179665,0.4626,5,0,5,0,1,,,,,,,,,,
,,447604,001,2023-07-24_21h22.26.144,arm3_eps,2022.2.5,Win32,60.01680471,611e96285b618d1865f67621,64aea9d0f615b6559c281482,64beceff7cf51bff43b189b1,right,1,0.3,0.2429,0,0.069404049,0.4249,6,0,6,0,1,,,,,,,,,,
,,447604,001,2023-07-24_21h22.26.144,arm3_eps,2022.2.5,Win32,60.01680471,611e96285b618d1865f67621,64aea9d0f615b6559c281482,64beceff7cf51bff43b189b1,right,1,0.3,0.2429,0,0.098925316,0.5937,7,0,7,0,1,,,,,,,,,,
,,447604,001,2023-07-24_21h22.26.144,arm3_eps,2022.2.5,Win32,60.01680471,611e96285b618d1865f67621,64aea9d0f615b6559c281482,64beceff7cf51bff43b189b1,right,1,0.3,0.2429,0,0.117051528,0.3505,8,0,8,0,1,,,,,,,,,,
,,447604,001,2023-07-24_21h22.26.144,arm3_eps,2022.2.5,Win32,60.01680471,611e96285b618d1865f67621,64aea9d0f615b6559c281482,64beceff7cf51bff43b189b1,right,1,0.3,0.2429,0,0.14815228,0.3913,9,0,9,0,1,,,,,,,,,,
,,447604,001,2023-07-24_21h22.26.144,arm3_eps,2022.2.5,Win32,60.01680471,611e96285b618d1865f67621,64aea9d0f615b6559c281482,64beceff7cf51bff43b189b1,up,1,0.3,0.2429,1,0,0.3172,10,0,10,0,1,,,,,,,,,,
,,447604,001,2023-07-24_21h22.26.144,arm3_eps,2022.2.5,Win32,60.01680471,611e96285b618d1865f67621,64aea9d0f615b6559c281482,64beceff7cf51bff43b189b1,right,1,0.3,0.2429,1,-0.030507891,2.0715,11,0,11,0,1,,,,,,,,,,
,,447604,001,2023-07-24_21h22.26.144,arm3_eps,2022.2.5,Win32,60.01680471,611e96285b618d1865f67621,64aea9d0f615b6559c281482,64beceff7cf51bff43b189b1,right,1,0.3,0.2429,1,-0.00309477,0.2688,12,0,12,0,1,,,,,,,,,,
,,447604,001,2023-07-24_21h22.26.144,arm3_eps,2022.2.5,Win32,60.01680471,611e96285b618d1865f67621,64aea9d0f615b6559c281482,64beceff7cf51bff43b189b1,right,1,0.3,0.2429,1,0.009558825,0.2335,13,0,13,0,1,,,,,,,,,,
,,447604,001,2023-07-24_21h22.26.144,arm3_eps,2022.2.5,Win32,60.01680471,611e96285b618d1865f67621,64aea9d0f615b6559c281482,64beceff7cf51bff43b189b1,right,1,0.3,0.2429,1,-0.001130239,0.2704,14,0,14,0,1,,,,,,,,,,
,,447604,001,2023-07-24_21h22.26.144,arm3_eps,2022.2.5,Win32,60.01680471,611e96285b618d1865f67621,64aea9d0f615b6559c281482,64beceff7cf51bff43b189b1,right,1,0.3,0.2429,1,0.011357271,0.2175,15,0,15,0,1,,,,,,,,,,
,,447604,001,2023-07-24_21h22.26.144,arm3_eps,2022.2.5,Win32,60.01680471,611e96285b618d1865f67621,64aea9d0f615b6559c281482,64beceff7cf51bff43b189b1,right,1,0.3,0.2429,1,0.004544726,0.1522,16,0,16,0,1,,,,,,,,,,
,,447604,001,2023-07-24_21h22.26.144,arm3_eps,2022.2.5,Win32,60.01680471,611e96285b618d1865f67621,64aea9d0f615b6559c281482,64beceff7cf51bff43b189b1,right,1,0.3,0.2429,1,0.008538504,0.1945,17,0,17,0,1,,,,,,,,,,
,,447604,001,2023-07-24_21h22.26.144,arm3_eps,2022.2.5,Win32,60.01680471,611e96285b618d1865f67621,64aea9d0f615b6559c281482,64beceff7cf51bff43b189b1,right,1,0.3,0.2429,1,0.039064136,0.2339,18,0,18,0,1,,,,,,,,,,
,,447604,001,2023-07-24_21h22.26.144,arm3_eps,2022.2.5,Win32,60.01680471,611e96285b618d1865f67621,64aea9d0f615b6559c281482,64beceff7cf51bff43b189b1,right,1,0.3,0.2429,1,0.023678695,0.2022,19,0,19,0,1,,,,,,,,,,
,,447604,001,2023-07-24_21h22.26.144,arm3_eps,2022.2.5,Win32,60.01680471,611e96285b618d1865f67621,64aea9d0f615b6559c281482,64beceff7cf51bff43b189b1,right,1,0.3,0.2429,1,0.011385128,0.1563,20,0,20,0,1,,,,,,,,,,
,,447604,001,2023-07-24_21h22.26.144,arm3_eps,2022.2.5,Win32,60.01680471,611e96285b618d1865f67621,64aea9d0f615b6559c281482,64beceff7cf51bff43b189b1,right,1,0.3,0.2429,1,0.020686426,0.2006,21,0,21,0,1,,,,,,,,,,
,,447604,001,2023-07-24_21h22.26.144,arm3_eps,2022.2.5,Win32,60.01680471,611e96285b618d1865f67621,64aea9d0f615b6559c281482,64beceff7cf51bff43b189b1,up,1,0.3,0.2429,1,0,0.686,22,0,22,0,1,,,,,,,,,,
,,447604,001,2023-07-24_21h22.26.144,arm3_eps,2022.2.5,Win32,60.01680471,611e96285b618d1865f67621,64aea9d0f615b6559c281482,64beceff7cf51bff43b189b1,right,1,0.3,0.2429,1,0.015279489,1.6305,23,0,23,0,1,,,,,,,,,,
,,447604,001,2023-07-24_21h22.26.144,arm3_eps,2022.2.5,Win32,60.01680471,611e96285b618d1865f67621,64aea9d0f615b6559c281482,64beceff7cf51bff43b189b1,right,1,0.3,0.2429,1,0.023921148,0.1944,24,0,24,0,1,,,,,,,,,,
,,447604,001,2023-07-24_21h22.26.144,arm3_eps,2022.2.5,Win32,60.01680471,611e96285b618d1865f67621,64aea9d0f615b6559c281482,64beceff7cf51bff43b189b1,right,1,0.3,0.2429,1,0.032748804,0.1851,25,0,25,0,1,,,,,,,,,,
,,447604,001,2023-07-24_21h22.26.144,arm3_eps,2022.2.5,Win32,60.01680471,611e96285b618d1865f67621,64aea9d0f615b6559c281482,64beceff7cf51bff43b189b1,right,1,0.3,0.2429,1,0.007551379,0.1669,26,0,26,0,1,,,,,,,,,,
,,447604,001,2023-07-24_21h22.26.144,arm3_eps,2022.2.5,Win32,60.01680471,611e96285b618d1865f67621,64aea9d0f615b6559c281482,64beceff7cf51bff43b189b1,right,1,0.3,0.2429,1,0.019278032,0.2173,27,0,27,0,1,,,,,,,,,,
,,447604,001,2023-07-24_21h22.26.144,arm3_eps,2022.2.5,Win32,60.01680471,611e96285b618d1865f67621,64aea9d0f615b6559c281482,64beceff7cf51bff43b189b1,right,1,0.3,0.2429,1,0.028168626,0.4418,28,0,28,0,1,,,,,,,,,,
,,447604,001,2023-07-24_21h22.26.144,arm3_eps,2022.2.5,Win32,60.01680471,611e96285b618d1865f67621,64aea9d0f615b6559c281482,64beceff7cf51bff43b189b1,right,1,0.3,0.2429,1,0.061824451,0.2034,29,0,29,0,1,,,,,,,,,,
,,447604,001,2023-07-24_21h22.26.144,arm3_eps,2022.2.5,Win32,60.01680471,611e96285b618d1865f67621,64aea9d0f615b6559c281482,64beceff7cf51bff43b189b1,right,1,0.3,0.2429,1,0.075619589,0.2764,30,0,30,0,1,,,,,,,,,,
,,447604,001,2023-07-24_21h22.26.144,arm3_eps,2022.2.5,Win32,60.01680471,611e96285b618d1865f67621,64aea9d0f615b6559c281482,64beceff7cf51bff43b189b1,right,1,0.3,0.2429,1,0.064308947,0.2548,31,0,31,0,1,,,,,,,,,,
,,447604,001,2023-07-24_21h22.26.144,arm3_eps,2022.2.5,Win32,60.01680471,611e96285b618d1865f67621,64aea9d0f615b6559c281482,64beceff7cf51bff43b189b1,right,1,0.3,0.2429,1,0.06087093,0.237,32,0,32,0,1,,,,,,,,,,
,,447604,001,2023-07-24_21h22.26.144,arm3_eps,2022.2.5,Win32,60.01680471,611e96285b618d1865f67621,64aea9d0f615b6559c281482,64beceff7cf51bff43b189b1,right,1,0.3,0.2429,1,0.085958502,0.3684,33,0,33,0,1,,,,,,,,,,
,,447604,001,2023-07-24_21h22.26.144,arm3_eps,2022.2.5,Win32,60.01680471,611e96285b618d1865f67621,64aea9d0f615b6559c281482,64beceff7cf51bff43b189b1,up,-1,0.3,0.2429,1,0,0.4658,34,0,34,0,1,,,,,,,,,,
,,447604,001,2023-07-24_21h22.26.144,arm3_eps,2022.2.5,Win32,60.01680471,611e96285b618d1865f67621,64aea9d0f615b6559c281482,64beceff7cf51bff43b189b1,right,-1,0.3,0.2429,1,0.002553684,0.9235,35,0,35,0,1,,,,,,,,,,
,,447604,001,2023-07-24_21h22.26.144,arm3_eps,2022.2.5,Win32,60.01680471,611e96285b618d1865f67621,64aea9d0f615b6559c281482,64beceff7cf51bff43b189b1,right,-1,0.3,0.2429,1,0.012227848,0.2485,36,0,36,0,1,,,,,,,,,,
,,447604,001,2023-07-24_21h22.26.144,arm3_eps,2022.2.5,Win32,60.01680471,611e96285b618d1865f67621,64aea9d0f615b6559c281482,64beceff7cf51bff43b189b1,right,-1,0.3,0.2429,1,0.005142622,0.1865,37,0,37,0,1,,,,,,,,,,
,,447604,001,2023-07-24_21h22.26.144,arm3_eps,2022.2.5,Win32,60.01680471,611e96285b618d1865f67621,64aea9d0f615b6559c281482,64beceff7cf51bff43b189b1,right,-1,0.3,0.2429,1,-0.013797052,0.1811,38,0,38,0,1,,,,,,,,,,
,,447604,001,2023-07-24_21h22.26.144,arm3_eps,2022.2.5,Win32,60.01680471,611e96285b618d1865f67621,64aea9d0f615b6559c281482,64beceff7cf51bff43b189b1,right,-1,0.3,0.2429,1,-0.003681667,0.2377,39,0,39,0,1,,,,,,,,,,
,,447604,001,2023-07-24_21h22.26.144,arm3_eps,2022.2.5,Win32,60.01680471,611e96285b618d1865f67621,64aea9d0f615b6559c281482,64beceff7cf51bff43b189b1,right,-1,0.3,0.2429,1,-0.017520084,0.2277,40,0,40,0,1,,,,,,,,,,
,,447604,001,2023-07-24_21h22.26.144,arm3_eps,2022.2.5,Win32,60.01680471,611e96285b618d1865f67621,64aea9d0f615b6559c281482,64beceff7cf51bff43b189b1,right,-1,0.3,0.2429,1,-0.035830203,0.1931,41,0,41,0,1,,,,,,,,,,
,,447604,001,2023-07-24_21h22.26.144,arm3_eps,2022.2.5,Win32,60.01680471,611e96285b618d1865f67621,64aea9d0f615b6559c281482,64beceff7cf51bff43b189b1,right,-1,0.3,0.2429,1,-0.065073776,0.2859,42,0,42,0,1,,,,,,,,,,
,,447604,001,2023-07-24_21h22.26.144,arm3_eps,2022.2.5,Win32,60.01680471,611e96285b618d1865f67621,64aea9d0f615b6559c281482,64beceff7cf51bff43b189b1,right,-1,0.3,0.2429,1,-0.083046557,0.3213,43,0,43,0,1,,,,,,,,,,
,,447604,001,2023-07-24_21h22.26.144,arm3_eps,2022.2.5,Win32,60.01680471,611e96285b618d1865f67621,64aea9d0f615b6559c281482,64beceff7cf51bff43b189b1,down,1,0.3,0.2429,2,0,0.379,44,0,44,0,1,,,,,,,,,,
,,447604,001,2023-07-24_21h22.26.144,arm3_eps,2022.2.5,Win32,60.01680471,611e96285b618d1865f67621,64aea9d0f615b6559c281482,64beceff7cf51bff43b189b1,right,1,0.3,0.2429,2,0.022206146,1.0601,45,0,45,0,1,,,,,,,,,,
,,447604,001,2023-07-24_21h22.26.144,arm3_eps,2022.2.5,Win32,60.01680471,611e96285b618d1865f67621,64aea9d0f615b6559c281482,64beceff7cf51bff43b189b1,right,1,0.3,0.2429,2,0.04036711,0.2419,46,0,46,0,1,,,,,,,,,,
,,447604,001,2023-07-24_21h22.26.144,arm3_eps,2022.2.5,Win32,60.01680471,611e96285b618d1865f67621,64aea9d0f615b6559c281482,64beceff7cf51bff43b189b1,right,1,0.3,0.2429,2,0.035057487,0.2092,47,0,47,0,1,,,,,,,,,,
,,447604,001,2023-07-24_21h22.26.144,arm3_eps,2022.2.5,Win32,60.01680471,611e96285b618d1865f67621,64aea9d0f615b6559c281482,64beceff7cf51bff43b189b1,right,1,0.3,0.2429,2,0.078220752,0.2021,48,0,48,0,1,,,,,,,,,,
,,447604,001,2023-07-24_21h22.26.144,arm3_eps,2022.2.5,Win32,60.01680471,611e96285b618d1865f67621,64aea9d0f615b6559c281482,64beceff7cf51bff43b189b1,right,1,0.3,0.2429,2,0.069571702,0.2842,49,0,49,0,1,,,,,,,,,,
space,4.1961,447604,001,2023-07-24_21h22.26.144,arm3_eps,2022.2.5,Win32,60.01680471,611e96285b618d1865f67621,64aea9d0f615b6559c281482,64beceff7cf51bff43b189b1,,,,,,,,,,,,,,,,,,,,,,
space,4.0301,447604,001,2023-07-24_21h22.26.144,arm3_eps,2022.2.5,Win32,60.01680471,611e96285b618d1865f67621,64aea9d0f615b6559c281482,64beceff7cf51bff43b189b1,right,1,0.3,0.4357,0,-0.01005828,1.1922,,,,,,0,0,0,0,1,,,,,
,,447604,001,2023-07-24_21h22.26.144,arm3_eps,2022.2.5,Win32,60.01680471,611e96285b618d1865f67621,64aea9d0f615b6559c281482,64beceff7cf51bff43b189b1,right,1,0.3,0.4357,0,-0.017945179,0.2973,,,,,,1,0,1,0,1,,,,,
,,447604,001,2023-07-24_21h22.26.144,arm3_eps,2022.2.5,Win32,60.01680471,611e96285b618d1865f67621,64aea9d0f615b6559c281482,64beceff7cf51bff43b189b1,right,1,0.3,0.4357,0,0.014853013,0.2867,,,,,,2,0,2,0,1,,,,,
,,447604,001,2023-07-24_21h22.26.144,arm3_eps,2022.2.5,Win32,60.01680471,611e96285b618d1865f67621,64aea9d0f615b6559c281482,64beceff7cf51bff43b189b1,right,1,0.3,0.4357,0,0.025092517,0.2736,,,,,,3,0,3,0,1,,,,,
,,447604,001,2023-07-24_21h22.26.144,arm3_eps,2022.2.5,Win32,60.01680471,611e96285b618d1865f67621,64aea9d0f615b6559c281482,64beceff7cf51bff43b189b1,right,1,0.3,0.4357,0,0.013772713,0.2826,,,,,,4,0,4,0,1,,,,,
,,447604,001,2023-07-24_21h22.26.144,arm3_eps,2022.2.5,Win32,60.01680471,611e96285b618d1865f67621,64aea9d0f615b6559c281482,64beceff7cf51bff43b189b1,right,1,0.3,0.4357,0,0.045841014,0.2545,,,,,,5,0,5,0,1,,,,,
,,447604,001,2023-07-24_21h22.26.144,arm3_eps,2022.2.5,Win32,60.01680471,611e96285b618d1865f67621,64aea9d0f615b6559c281482,64beceff7cf51bff43b189b1,right,1,0.3,0.4357,0,0.060275339,0.3,,,,,,6,0,6,0,1,,,,,
,,447604,001,2023-07-24_21h22.26.144,arm3_eps,2022.2.5,Win32,60.01680471,611e96285b618d1865f67621,64aea9d0f615b6559c281482,64beceff7cf51bff43b189b1,right,1,0.3,0.4357,0,0.062380363,0.693,,,,,,7,0,7,0,1,,,,,
,,447604,001,2023-07-24_21h22.26.144,arm3_eps,2022.2.5,Win32,60.01680471,611e96285b618d1865f67621,64aea9d0f615b6559c281482,64beceff7cf51bff43b189b1,right,1,0.3,0.4357,0,0.067943169,0.4688,,,,,,8,0,8,0,1,,,,,
,,447604,001,2023-07-24_21h22.26.144,arm3_eps,2022.2.5,Win32,60.01680471,611e96285b618d1865f67621,64aea9d0f615b6559c281482,64beceff7cf51bff43b189b1,up,1,0.3,0.4357,1,0,0.4124,,,,,,9,0,9,0,1,,,,,
,,447604,001,2023-07-24_21h22.26.144,arm3_eps,2022.2.5,Win32,60.01680471,611e96285b618d1865f67621,64aea9d0f615b6559c281482,64beceff7cf51bff43b189b1,right,1,0.3,0.4357,1,0.022127286,0.9411,,,,,,10,0,10,0,1,,,,,
,,447604,001,2023-07-24_21h22.26.144,arm3_eps,2022.2.5,Win32,60.01680471,611e96285b618d1865f67621,64aea9d0f615b6559c281482,64beceff7cf51bff43b189b1,right,1,0.3,0.4357,1,0.035050166,0.2411,,,,,,11,0,11,0,1,,,,,
,,447604,001,2023-07-24_21h22.26.144,arm3_eps,2022.2.5,Win32,60.01680471,611e96285b618d1865f67621,64aea9d0f615b6559c281482,64beceff7cf51bff43b189b1,right,1,0.3,0.4357,1,0.056987572,0.26,,,,,,12,0,12,0,1,,,,,
,,447604,001,2023-07-24_21h22.26.144,arm3_eps,2022.2.5,Win32,60.01680471,611e96285b618d1865f67621,64aea9d0f615b6559c281482,64beceff7cf51bff43b189b1,right,1,0.3,0.4357,1,0.069193745,0.3478,,,,,,13,0,13,0,1,,,,,
,,447604,001,2023-07-24_21h22.26.144,arm3_eps,2022.2.5,Win32,60.01680471,611e96285b618d1865f67621,64aea9d0f615b6559c281482,64beceff7cf51bff43b189b1,right,1,0.3,0.4357,1,0.071376696,0.5292,,,,,,14,0,14,0,1,,,,,
,,447604,001,2023-07-24_21h22.26.144,arm3_eps,2022.2.5,Win32,60.01680471,611e96285b618d1865f67621,64aea9d0f615b6559c281482,64beceff7cf51bff43b189b1,right,1,0.3,0.4357,1,0.090401448,0.2651,,,,,,15,0,15,0,1,,,,,
,,447604,001,2023-07-24_21h22.26.144,arm3_eps,2022.2.5,Win32,60.01680471,611e96285b618d1865f67621,64aea9d0f615b6559c281482,64beceff7cf51bff43b189b1,up,1,0.3,0.4357,1,0,0.5678,,,,,,16,0,16,0,1,,,,,
,,447604,001,2023-07-24_21h22.26.144,arm3_eps,2022.2.5,Win32,60.01680471,611e96285b618d1865f67621,64aea9d0f615b6559c281482,64beceff7cf51bff43b189b1,right,1,0.3,0.4357,1,0.000379446,2.4461,,,,,,17,0,17,0,1,,,,,
,,447604,001,2023-07-24_21h22.26.144,arm3_eps,2022.2.5,Win32,60.01680471,611e96285b618d1865f67621,64aea9d0f615b6559c281482,64beceff7cf51bff43b189b1,right,1,0.3,0.4357,1,0.039216117,0.232,,,,,,18,0,18,0,1,,,,,
,,447604,001,2023-07-24_21h22.26.144,arm3_eps,2022.2.5,Win32,60.01680471,611e96285b618d1865f67621,64aea9d0f615b6559c281482,64beceff7cf51bff43b189b1,right,1,0.3,0.4357,1,0.019294774,0.2424,,,,,,19,0,19,0,1,,,,,
,,447604,001,2023-07-24_21h22.26.144,arm3_eps,2022.2.5,Win32,60.01680471,611e96285b618d1865f67621,64aea9d0f615b6559c281482,64beceff7cf51bff43b189b1,right,1,0.3,0.4357,1,0.013463364,0.2744,,,,,,20,0,20,0,1,,,,,
,,447604,001,2023-07-24_21h22.26.144,arm3_eps,2022.2.5,Win32,60.01680471,611e96285b618d1865f67621,64aea9d0f615b6559c281482,64beceff7cf51bff43b189b1,right,1,0.3,0.4357,1,0.039120804,0.3081,,,,,,21,0,21,0,1,,,,,
,,447604,001,2023-07-24_21h22.26.144,arm3_eps,2022.2.5,Win32,60.01680471,611e96285b618d1865f67621,64aea9d0f615b6559c281482,64beceff7cf51bff43b189b1,right,1,0.3,0.4357,1,0.063227995,0.2593,,,,,,22,0,22,0,1,,,,,
,,447604,001,2023-07-24_21h22.26.144,arm3_eps,2022.2.5,Win32,60.01680471,611e96285b618d1865f67621,64aea9d0f615b6559c281482,64beceff7cf51bff43b189b1,right,1,0.3,0.4357,1,0.068516498,0.3054,,,,,,23,0,23,0,1,,,,,
,,447604,001,2023-07-24_21h22.26.144,arm3_eps,2022.2.5,Win32,60.01680471,611e96285b618d1865f67621,64aea9d0f615b6559c281482,64beceff7cf51bff43b189b1,right,1,0.3,0.4357,1,0.086426052,0.261,,,,,,24,0,24,0,1,,,,,
,,447604,001,2023-07-24_21h22.26.144,arm3_eps,2022.2.5,Win32,60.01680471,611e96285b618d1865f67621,64aea9d0f615b6559c281482,64beceff7cf51bff43b189b1,up,1,0.3,0.4357,1,0,0.5277,,,,,,25,0,25,0,1,,,,,
,,447604,001,2023-07-24_21h22.26.144,arm3_eps,2022.2.5,Win32,60.01680471,611e96285b618d1865f67621,64aea9d0f615b6559c281482,64beceff7cf51bff43b189b1,right,1,0.3,0.4357,1,0.005793267,0.7888,,,,,,26,0,26,0,1,,,,,
,,447604,001,2023-07-24_21h22.26.144,arm3_eps,2022.2.5,Win32,60.01680471,611e96285b618d1865f67621,64aea9d0f615b6559c281482,64beceff7cf51bff43b189b1,right,1,0.3,0.4357,1,-0.007915248,0.2795,,,,,,27,0,27,0,1,,,,,
,,447604,001,2023-07-24_21h22.26.144,arm3_eps,2022.2.5,Win32,60.01680471,611e96285b618d1865f67621,64aea9d0f615b6559c281482,64beceff7cf51bff43b189b1,right,1,0.3,0.4357,1,-0.016357462,0.5399,,,,,,28,0,28,0,1,,,,,
,,447604,001,2023-07-24_21h22.26.144,arm3_eps,2022.2.5,Win32,60.01680471,611e96285b618d1865f67621,64aea9d0f615b6559c281482,64beceff7cf51bff43b189b1,right,1,0.3,0.4357,1,-0.066259488,0.4591,,,,,,29,0,29,0,1,,,,,
,,447604,001,2023-07-24_21h22.26.144,arm3_eps,2022.2.5,Win32,60.01680471,611e96285b618d1865f67621,64aea9d0f615b6559c281482,64beceff7cf51bff43b189b1,right,1,0.3,0.4357,1,-0.081727177,0.246,,,,,,30,0,30,0,1,,,,,
,,447604,001,2023-07-24_21h22.26.144,arm3_eps,2022.2.5,Win32,60.01680471,611e96285b618d1865f67621,64aea9d0f615b6559c281482,64beceff7cf51bff43b189b1,right,1,0.3,0.4357,1,-0.076644541,0.2759,,,,,,31,0,31,0,1,,,,,
,,447604,001,2023-07-24_21h22.26.144,arm3_eps,2022.2.5,Win32,60.01680471,611e96285b618d1865f67621,64aea9d0f615b6559c281482,64beceff7cf51bff43b189b1,right,1,0.3,0.4357,1,-0.06580014,0.2828,,,,,,32,0,32,0,1,,,,,
,,447604,001,2023-07-24_21h22.26.144,arm3_eps,2022.2.5,Win32,60.01680471,611e96285b618d1865f67621,64aea9d0f615b6559c281482,64beceff7cf51bff43b189b1,right,1,0.3,0.4357,1,-0.054231743,0.3194,,,,,,33,0,33,0,1,,,,,
,,447604,001,2023-07-24_21h22.26.144,arm3_eps,2022.2.5,Win32,60.01680471,611e96285b618d1865f67621,64aea9d0f615b6559c281482,64beceff7cf51bff43b189b1,right,1,0.3,0.4357,1,-0.052048111,0.3874,,,,,,34,0,34,0,1,,,,,
,,447604,001,2023-07-24_21h22.26.144,arm3_eps,2022.2.5,Win32,60.01680471,611e96285b618d1865f67621,64aea9d0f615b6559c281482,64beceff7cf51bff43b189b1,right,1,0.3,0.4357,1,-0.02273263,0.6641,,,,,,35,0,35,0,1,,,,,
,,447604,001,2023-07-24_21h22.26.144,arm3_eps,2022.2.5,Win32,60.01680471,611e96285b618d1865f67621,64aea9d0f615b6559c281482,64beceff7cf51bff43b189b1,up,1,0.3,0.4357,1,0,0.5976,,,,,,36,0,36,0,1,,,,,
,,447604,001,2023-07-24_21h22.26.144,arm3_eps,2022.2.5,Win32,60.01680471,611e96285b618d1865f67621,64aea9d0f615b6559c281482,64beceff7cf51bff43b189b1,right,1,0.3,0.4357,1,0.019356767,1.0203,,,,,,37,0,37,0,1,,,,,
,,447604,001,2023-07-24_21h22.26.144,arm3_eps,2022.2.5,Win32,60.01680471,611e96285b618d1865f67621,64aea9d0f615b6559c281482,64beceff7cf51bff43b189b1,right,1,0.3,0.4357,1,-0.007465566,0.2874,,,,,,38,0,38,0,1,,,,,
,,447604,001,2023-07-24_21h22.26.144,arm3_eps,2022.2.5,Win32,60.01680471,611e96285b618d1865f67621,64aea9d0f615b6559c281482,64beceff7cf51bff43b189b1,right,1,0.3,0.4357,1,0.006752768,0.3335,,,,,,39,0,39,0,1,,,,,
,,447604,001,2023-07-24_21h22.26.144,arm3_eps,2022.2.5,Win32,60.01680471,611e96285b618d1865f67621,64aea9d0f615b6559c281482,64beceff7cf51bff43b189b1,right,1,0.3,0.4357,1,0.051103784,0.3678,,,,,,40,0,40,0,1,,,,,
,,447604,001,2023-07-24_21h22.26.144,arm3_eps,2022.2.5,Win32,60.01680471,611e96285b618d1865f67621,64aea9d0f615b6559c281482,64beceff7cf51bff43b189b1,right,1,0.3,0.4357,1,0.073705137,0.3057,,,,,,41,0,41,0,1,,,,,
,,447604,001,2023-07-24_21h22.26.144,arm3_eps,2022.2.5,Win32,60.01680471,611e96285b618d1865f67621,64aea9d0f615b6559c281482,64beceff7cf51bff43b189b1,right,1,0.3,0.4357,1,0.08805726,0.2464,,,,,,42,0,42,0,1,,,,,
,,447604,001,2023-07-24_21h22.26.144,arm3_eps,2022.2.5,Win32,60.01680471,611e96285b618d1865f67621,64aea9d0f615b6559c281482,64beceff7cf51bff43b189b1,right,1,0.3,0.4357,1,0.117339796,0.2315,,,,,,43,0,43,0,1,,,,,
,,447604,001,2023-07-24_21h22.26.144,arm3_eps,2022.2.5,Win32,60.01680471,611e96285b618d1865f67621,64aea9d0f615b6559c281482,64beceff7cf51bff43b189b1,right,1,0.3,0.4357,1,0.111463276,0.1554,,,,,,44,0,44,0,1,,,,,
,,447604,001,2023-07-24_21h22.26.144,arm3_eps,2022.2.5,Win32,60.01680471,611e96285b618d1865f67621,64aea9d0f615b6559c281482,64beceff7cf51bff43b189b1,right,1,0.3,0.4357,1,0.129603565,0.3544,,,,,,45,0,45,0,1,,,,,
,,447604,001,2023-07-24_21h22.26.144,arm3_eps,2022.2.5,Win32,60.01680471,611e96285b618d1865f67621,64aea9d0f615b6559c281482,64beceff7cf51bff43b189b1,up,1,0.3,0.4357,2,0,0.2697,,,,,,46,0,46,0,1,,,,,
,,447604,001,2023-07-24_21h22.26.144,arm3_eps,2022.2.5,Win32,60.01680471,611e96285b618d1865f67621,64aea9d0f615b6559c281482,64beceff7cf51bff43b189b1,right,1,0.3,0.4357,2,-0.008918382,0.9753,,,,,,47,0,47,0,1,,,,,
,,447604,001,2023-07-24_21h22.26.144,arm3_eps,2022.2.5,Win32,60.01680471,611e96285b618d1865f67621,64aea9d0f615b6559c281482,64beceff7cf51bff43b189b1,right,1,0.3,0.4357,2,0.004590431,0.194,,,,,,48,0,48,0,1,,,,,
,,447604,001,2023-07-24_21h22.26.144,arm3_eps,2022.2.5,Win32,60.01680471,611e96285b618d1865f67621,64aea9d0f615b6559c281482,64beceff7cf51bff43b189b1,right,1,0.3,0.4357,2,0.032264144,0.1984,,,,,,49,0,49,0,1,,,,,
,,447604,001,2023-07-24_21h22.26.144,arm3_eps,2022.2.5,Win32,60.01680471,611e96285b618d1865f67621,64aea9d0f615b6559c281482,64beceff7cf51bff43b189b1,right,1,0.3,0.4357,2,0.036880665,1.0624,,,,,,50,0,50,0,1,,,,,
,,447604,001,2023-07-24_21h22.26.144,arm3_eps,2022.2.5,Win32,60.01680471,611e96285b618d1865f67621,64aea9d0f615b6559c281482,64beceff7cf51bff43b189b1,right,1,0.3,0.4357,2,0.060749232,0.4321,,,,,,51,0,51,0,1,,,,,
,,447604,001,2023-07-24_21h22.26.144,arm3_eps,2022.2.5,Win32,60.01680471,611e96285b618d1865f67621,64aea9d0f615b6559c281482,64beceff7cf51bff43b189b1,right,1,0.3,0.4357,2,0.057798583,0.277,,,,,,52,0,52,0,1,,,,,
,,447604,001,2023-07-24_21h22.26.144,arm3_eps,2022.2.5,Win32,60.01680471,611e96285b618d1865f67621,64aea9d0f615b6559c281482,64beceff7cf51bff43b189b1,right,1,0.3,0.4357,2,0.064911483,0.2603,,,,,,53,0,53,0,1,,,,,
,,447604,001,2023-07-24_21h22.26.144,arm3_eps,2022.2.5,Win32,60.01680471,611e96285b618d1865f67621,64aea9d0f615b6559c281482,64beceff7cf51bff43b189b1,up,-1,0.3,0.4357,2,0,1.2451,,,,,,54,0,54,0,1,,,,,
,,447604,001,2023-07-24_21h22.26.144,arm3_eps,2022.2.5,Win32,60.01680471,611e96285b618d1865f67621,64aea9d0f615b6559c281482,64beceff7cf51bff43b189b1,right,-1,0.3,0.4357,2,-0.003112897,1.2059,,,,,,55,0,55,0,1,,,,,
,,447604,001,2023-07-24_21h22.26.144,arm3_eps,2022.2.5,Win32,60.01680471,611e96285b618d1865f67621,64aea9d0f615b6559c281482,64beceff7cf51bff43b189b1,right,-1,0.3,0.4357,2,0.010331841,0.2027,,,,,,56,0,56,0,1,,,,,
,,447604,001,2023-07-24_21h22.26.144,arm3_eps,2022.2.5,Win32,60.01680471,611e96285b618d1865f67621,64aea9d0f615b6559c281482,64beceff7cf51bff43b189b1,right,-1,0.3,0.4357,2,-0.013203172,0.4135,,,,,,57,0,57,0,1,,,,,
,,447604,001,2023-07-24_21h22.26.144,arm3_eps,2022.2.5,Win32,60.01680471,611e96285b618d1865f67621,64aea9d0f615b6559c281482,64beceff7cf51bff43b189b1,right,-1,0.3,0.4357,2,-0.014699972,0.2611,,,,,,58,0,58,0,1,,,,,
,,447604,001,2023-07-24_21h22.26.144,arm3_eps,2022.2.5,Win32,60.01680471,611e96285b618d1865f67621,64aea9d0f615b6559c281482,64beceff7cf51bff43b189b1,right,-1,0.3,0.4357,2,-0.031638336,0.2248,,,,,,59,0,59,0,1,,,,,
,,447604,001,2023-07-24_21h22.26.144,arm3_eps,2022.2.5,Win32,60.01680471,611e96285b618d1865f67621,64aea9d0f615b6559c281482,64beceff7cf51bff43b189b1,right,-1,0.3,0.4357,2,-0.029937625,0.2588,,,,,,60,0,60,0,1,,,,,
,,447604,001,2023-07-24_21h22.26.144,arm3_eps,2022.2.5,Win32,60.01680471,611e96285b618d1865f67621,64aea9d0f615b6559c281482,64beceff7cf51bff43b189b1,right,-1,0.3,0.4357,2,0.006530543,0.2425,,,,,,61,0,61,0,1,,,,,
,,447604,001,2023-07-24_21h22.26.144,arm3_eps,2022.2.5,Win32,60.01680471,611e96285b618d1865f67621,64aea9d0f615b6559c281482,64beceff7cf51bff43b189b1,right,-1,0.3,0.4357,2,-0.000226683,0.2988,,,,,,62,0,62,0,1,,,,,
,,447604,001,2023-07-24_21h22.26.144,arm3_eps,2022.2.5,Win32,60.01680471,611e96285b618d1865f67621,64aea9d0f615b6559c281482,64beceff7cf51bff43b189b1,right,-1,0.3,0.4357,2,-0.015398463,0.3486,,,,,,63,0,63,0,1,,,,,
,,447604,001,2023-07-24_21h22.26.144,arm3_eps,2022.2.5,Win32,60.01680471,611e96285b618d1865f67621,64aea9d0f615b6559c281482,64beceff7cf51bff43b189b1,down,-1,0.3,0.4357,2,0,0.6514,,,,,,64,0,64,0,1,,,,,
,,447604,001,2023-07-24_21h22.26.144,arm3_eps,2022.2.5,Win32,60.01680471,611e96285b618d1865f67621,64aea9d0f615b6559c281482,64beceff7cf51bff43b189b1,right,-1,0.3,0.4357,2,-0.025499618,0.8745,,,,,,65,0,65,0,1,,,,,
,,447604,001,2023-07-24_21h22.26.144,arm3_eps,2022.2.5,Win32,60.01680471,611e96285b618d1865f67621,64aea9d0f615b6559c281482,64beceff7cf51bff43b189b1,right,-1,0.3,0.4357,2,-0.031591869,0.2154,,,,,,66,0,66,0,1,,,,,
,,447604,001,2023-07-24_21h22.26.144,arm3_eps,2022.2.5,Win32,60.01680471,611e96285b618d1865f67621,64aea9d0f615b6559c281482,64beceff7cf51bff43b189b1,right,-1,0.3,0.4357,2,-0.00922729,0.2096,,,,,,67,0,67,0,1,,,,,
,,447604,001,2023-07-24_21h22.26.144,arm3_eps,2022.2.5,Win32,60.01680471,611e96285b618d1865f67621,64aea9d0f615b6559c281482,64beceff7cf51bff43b189b1,right,-1,0.3,0.4357,2,-0.046632419,0.216,,,,,,68,0,68,0,1,,,,,
,,447604,001,2023-07-24_21h22.26.144,arm3_eps,2022.2.5,Win32,60.01680471,611e96285b618d1865f67621,64aea9d0f615b6559c281482,64beceff7cf51bff43b189b1,right,-1,0.3,0.4357,2,-0.044905573,0.243,,,,,,69,0,69,0,1,,,,,
,,447604,001,2023-07-24_21h22.26.144,arm3_eps,2022.2.5,Win32,60.01680471,611e96285b618d1865f67621,64aea9d0f615b6559c281482,64beceff7cf51bff43b189b1,right,-1,0.3,0.4357,2,-0.065869059,0.2501,,,,,,70,0,70,0,1,,,,,
,,447604,001,2023-07-24_21h22.26.144,arm3_eps,2022.2.5,Win32,60.01680471,611e96285b618d1865f67621,64aea9d0f615b6559c281482,64beceff7cf51bff43b189b1,right,-1,0.3,0.4357,2,-0.069447752,0.2591,,,,,,71,0,71,0,1,,,,,
,,447604,001,2023-07-24_21h22.26.144,arm3_eps,2022.2.5,Win32,60.01680471,611e96285b618d1865f67621,64aea9d0f615b6559c281482,64beceff7cf51bff43b189b1,down,-1,0.3,0.4357,2,0,0.6136,,,,,,72,0,72,0,1,,,,,
,,447604,001,2023-07-24_21h22.26.144,arm3_eps,2022.2.5,Win32,60.01680471,611e96285b618d1865f67621,64aea9d0f615b6559c281482,64beceff7cf51bff43b189b1,right,-1,0.3,0.4357,2,-0.02602237,0.8747,,,,,,73,0,73,0,1,,,,,
,,447604,001,2023-07-24_21h22.26.144,arm3_eps,2022.2.5,Win32,60.01680471,611e96285b618d1865f67621,64aea9d0f615b6559c281482,64beceff7cf51bff43b189b1,right,-1,0.3,0.4357,2,-0.033034733,0.228,,,,,,74,0,74,0,1,,,,,
,,447604,001,2023-07-24_21h22.26.144,arm3_eps,2022.2.5,Win32,60.01680471,611e96285b618d1865f67621,64aea9d0f615b6559c281482,64beceff7cf51bff43b189b1,right,-1,0.3,0.4357,2,-0.017979514,0.2958,,,,,,75,0,75,0,1,,,,,
,,447604,001,2023-07-24_21h22.26.144,arm3_eps,2022.2.5,Win32,60.01680471,611e96285b618d1865f67621,64aea9d0f615b6559c281482,64beceff7cf51bff43b189b1,right,-1,0.3,0.4357,2,0.005849383,0.2424,,,,,,76,0,76,0,1,,,,,
,,447604,001,2023-07-24_21h22.26.144,arm3_eps,2022.2.5,Win32,60.01680471,611e96285b618d1865f67621,64aea9d0f615b6559c281482,64beceff7cf51bff43b189b1,right,-1,0.3,0.4357,2,-0.017866088,0.2484,,,,,,77,0,77,0,1,,,,,
,,447604,001,2023-07-24_21h22.26.144,arm3_eps,2022.2.5,Win32,60.01680471,611e96285b618d1865f67621,64aea9d0f615b6559c281482,64beceff7cf51bff43b189b1,right,-1,0.3,0.4357,2,-0.059467837,0.2458,,,,,,78,0,78,0,1,,,,,
,,447604,001,2023-07-24_21h22.26.144,arm3_eps,2022.2.5,Win32,60.01680471,611e96285b618d1865f67621,64aea9d0f615b6559c281482,64beceff7cf51bff43b189b1,right,-1,0.3,0.4357,2,-0.077243407,0.2479,,,,,,79,0,79,0,1,,,,,
,,447604,001,2023-07-24_21h22.26.144,arm3_eps,2022.2.5,Win32,60.01680471,611e96285b618d1865f67621,64aea9d0f615b6559c281482,64beceff7cf51bff43b189b1,right,-1,0.3,0.4357,2,-0.082901741,0.3314,,,,,,80,0,80,0,1,,,,,
,,447604,001,2023-07-24_21h22.26.144,arm3_eps,2022.2.5,Win32,60.01680471,611e96285b618d1865f67621,64aea9d0f615b6559c281482,64beceff7cf51bff43b189b1,down,-1,0.3,0.4357,3,0,0.5046,,,,,,81,0,81,0,1,,,,,
,,447604,001,2023-07-24_21h22.26.144,arm3_eps,2022.2.5,Win32,60.01680471,611e96285b618d1865f67621,64aea9d0f615b6559c281482,64beceff7cf51bff43b189b1,right,-1,0.3,0.4357,3,-0.007578473,0.7962,,,,,,82,0,82,0,1,,,,,
,,447604,001,2023-07-24_21h22.26.144,arm3_eps,2022.2.5,Win32,60.01680471,611e96285b618d1865f67621,64aea9d0f615b6559c281482,64beceff7cf51bff43b189b1,right,-1,0.3,0.4357,3,-0.019395317,0.2296,,,,,,83,0,83,0,1,,,,,
,,447604,001,2023-07-24_21h22.26.144,arm3_eps,2022.2.5,Win32,60.01680471,611e96285b618d1865f67621,64aea9d0f615b6559c281482,64beceff7cf51bff43b189b1,right,-1,0.3,0.4357,3,-0.0173354,0.1991,,,,,,84,0,84,0,1,,,,,
,,447604,001,2023-07-24_21h22.26.144,arm3_eps,2022.2.5,Win32,60.01680471,611e96285b618d1865f67621,64aea9d0f615b6559c281482,64beceff7cf51bff43b189b1,right,-1,0.3,0.4357,3,-0.070205415,0.2423,,,,,,85,0,85,0,1,,,,,
,,447604,001,2023-07-24_21h22.26.144,arm3_eps,2022.2.5,Win32,60.01680471,611e96285b618d1865f67621,64aea9d0f615b6559c281482,64beceff7cf51bff43b189b1,right,-1,0.3,0.4357,3,-0.080917181,0.2511,,,,,,86,0,86,0,1,,,,,
,,447604,001,2023-07-24_21h22.26.144,arm3_eps,2022.2.5,Win32,60.01680471,611e96285b618d1865f67621,64aea9d0f615b6559c281482,64beceff7cf51bff43b189b1,right,-1,0.3,0.4357,3,-0.074975668,0.2802,,,,,,87,0,87,0,1,,,,,
,,447604,001,2023-07-24_21h22.26.144,arm3_eps,2022.2.5,Win32,60.01680471,611e96285b618d1865f67621,64aea9d0f615b6559c281482,64beceff7cf51bff43b189b1,right,-1,0.3,0.4357,3,-0.040529408,0.3593,,,,,,88,0,88,0,1,,,,,
,,447604,001,2023-07-24_21h22.26.144,arm3_eps,2022.2.5,Win32,60.01680471,611e96285b618d1865f67621,64aea9d0f615b6559c281482,64beceff7cf51bff43b189b1,right,-1,0.3,0.4357,3,-0.056209044,1.0734,,,,,,89,0,89,0,1,,,,,
,,447604,001,2023-07-24_21h22.26.144,arm3_eps,2022.2.5,Win32,60.01680471,611e96285b618d1865f67621,64aea9d0f615b6559c281482,64beceff7cf51bff43b189b1,right,-1,0.3,0.4357,3,-0.081163061,0.2963,,,,,,90,0,90,0,1,,,,,
,,447604,001,2023-07-24_21h22.26.144,arm3_eps,2022.2.5,Win32,60.01680471,611e96285b618d1865f67621,64aea9d0f615b6559c281482,64beceff7cf51bff43b189b1,down,1,0.3,0.4357,3,0,0.4061,,,,,,91,0,91,0,1,,,,,
,,447604,001,2023-07-24_21h22.26.144,arm3_eps,2022.2.5,Win32,60.01680471,611e96285b618d1865f67621,64aea9d0f615b6559c281482,64beceff7cf51bff43b189b1,right,1,0.3,0.4357,3,-0.016706968,0.7182,,,,,,92,0,92,0,1,,,,,
,,447604,001,2023-07-24_21h22.26.144,arm3_eps,2022.2.5,Win32,60.01680471,611e96285b618d1865f67621,64aea9d0f615b6559c281482,64beceff7cf51bff43b189b1,right,1,0.3,0.4357,3,-0.02854352,0.3182,,,,,,93,0,93,0,1,,,,,
,,447604,001,2023-07-24_21h22.26.144,arm3_eps,2022.2.5,Win32,60.01680471,611e96285b618d1865f67621,64aea9d0f615b6559c281482,64beceff7cf51bff43b189b1,right,1,0.3,0.4357,3,-0.029013436,0.2418,,,,,,94,0,94,0,1,,,,,
,,447604,001,2023-07-24_21h22.26.144,arm3_eps,2022.2.5,Win32,60.01680471,611e96285b618d1865f67621,64aea9d0f615b6559c281482,64beceff7cf51bff43b189b1,right,1,0.3,0.4357,3,0.013254916,0.2526,,,,,,95,0,95,0,1,,,,,
,,447604,001,2023-07-24_21h22.26.144,arm3_eps,2022.2.5,Win32,60.01680471,611e96285b618d1865f67621,64aea9d0f615b6559c281482,64beceff7cf51bff43b189b1,right,1,0.3,0.4357,3,0.031107084,0.27,,,,,,96,0,96,0,1,,,,,
,,447604,001,2023-07-24_21h22.26.144,arm3_eps,2022.2.5,Win32,60.01680471,611e96285b618d1865f67621,64aea9d0f615b6559c281482,64beceff7cf51bff43b189b1,right,1,0.3,0.4357,3,0.018810836,0.2554,,,,,,97,0,97,0,1,,,,,
,,447604,001,2023-07-24_21h22.26.144,arm3_eps,2022.2.5,Win32,60.01680471,611e96285b618d1865f67621,64aea9d0f615b6559c281482,64beceff7cf51bff43b189b1,right,1,0.3,0.4357,3,0.011054894,0.2498,,,,,,98,0,98,0,1,,,,,
,,447604,001,2023-07-24_21h22.26.144,arm3_eps,2022.2.5,Win32,60.01680471,611e96285b618d1865f67621,64aea9d0f615b6559c281482,64beceff7cf51bff43b189b1,right,1,0.3,0.4357,3,0.035642224,0.3573,,,,,,99,0,99,0,1,,,,,
,,447604,001,2023-07-24_21h22.26.144,arm3_eps,2022.2.5,Win32,60.01680471,611e96285b618d1865f67621,64aea9d0f615b6559c281482,64beceff7cf51bff43b189b1,up,1,0.3,0.4357,3,0,0.4615,,,,,,100,0,100,0,1,,,,,
,,447604,001,2023-07-24_21h22.26.144,arm3_eps,2022.2.5,Win32,60.01680471,611e96285b618d1865f67621,64aea9d0f615b6559c281482,64beceff7cf51bff43b189b1,right,1,0.3,0.4357,3,0.000173726,0.7743,,,,,,101,0,101,0,1,,,,,
,,447604,001,2023-07-24_21h22.26.144,arm3_eps,2022.2.5,Win32,60.01680471,611e96285b618d1865f67621,64aea9d0f615b6559c281482,64beceff7cf51bff43b189b1,right,1,0.3,0.4357,3,0.024180789,0.2513,,,,,,102,0,102,0,1,,,,,
,,447604,001,2023-07-24_21h22.26.144,arm3_eps,2022.2.5,Win32,60.01680471,611e96285b618d1865f67621,64aea9d0f615b6559c281482,64beceff7cf51bff43b189b1,right,1,0.3,0.4357,3,0.04152692,0.2366,,,,,,103,0,103,0,1,,,,,
,,447604,001,2023-07-24_21h22.26.144,arm3_eps,2022.2.5,Win32,60.01680471,611e96285b618d1865f67621,64aea9d0f615b6559c281482,64beceff7cf51bff43b189b1,right,1,0.3,0.4357,3,0.031094025,0.2025,,,,,,104,0,104,0,1,,,,,
,,447604,001,2023-07-24_21h22.26.144,arm3_eps,2022.2.5,Win32,60.01680471,611e96285b618d1865f67621,64aea9d0f615b6559c281482,64beceff7cf51bff43b189b1,right,1,0.3,0.4357,3,0.015322611,0.249,,,,,,105,0,105,0,1,,,,,
,,447604,001,2023-07-24_21h22.26.144,arm3_eps,2022.2.5,Win32,60.01680471,611e96285b618d1865f67621,64aea9d0f615b6559c281482,64beceff7cf51bff43b189b1,right,1,0.3,0.4357,3,0.024604488,0.2106,,,,,,106,0,106,0,1,,,,,
,,447604,001,2023-07-24_21h22.26.144,arm3_eps,2022.2.5,Win32,60.01680471,611e96285b618d1865f67621,64aea9d0f615b6559c281482,64beceff7cf51bff43b189b1,right,1,0.3,0.4357,3,0.026731488,0.2736,,,,,,107,0,107,0,1,,,,,
,,447604,001,2023-07-24_21h22.26.144,arm3_eps,2022.2.5,Win32,60.01680471,611e96285b618d1865f67621,64aea9d0f615b6559c281482,64beceff7cf51bff43b189b1,right,1,0.3,0.4357,3,0.03365271,0.1997,,,,,,108,0,108,0,1,,,,,
,,447604,001,2023-07-24_21h22.26.144,arm3_eps,2022.2.5,Win32,60.01680471,611e96285b618d1865f67621,64aea9d0f615b6559c281482,64beceff7cf51bff43b189b1,right,1,0.3,0.4357,3,0.039980744,0.2229,,,,,,109,0,109,0,1,,,,,
,,447604,001,2023-07-24_21h22.26.144,arm3_eps,2022.2.5,Win32,60.01680471,611e96285b618d1865f67621,64aea9d0f615b6559c281482,64beceff7cf51bff43b189b1,right,1,0.3,0.4357,3,0.040445229,0.359,,,,,,110,0,110,0,1,,,,,
,,447604,001,2023-07-24_21h22.26.144,arm3_eps,2022.2.5,Win32,60.01680471,611e96285b618d1865f67621,64aea9d0f615b6559c281482,64beceff7cf51bff43b189b1,up,-1,0.3,0.4357,3,0,0.6534,,,,,,111,0,111,0,1,,,,,
,,447604,001,2023-07-24_21h22.26.144,arm3_eps,2022.2.5,Win32,60.01680471,611e96285b618d1865f67621,64aea9d0f615b6559c281482,64beceff7cf51bff43b189b1,right,-1,0.3,0.4357,3,-0.000804469,0.7616,,,,,,112,0,112,0,1,,,,,
,,447604,001,2023-07-24_21h22.26.144,arm3_eps,2022.2.5,Win32,60.01680471,611e96285b618d1865f67621,64aea9d0f615b6559c281482,64beceff7cf51bff43b189b1,right,-1,0.3,0.4357,3,-0.027396132,0.2297,,,,,,113,0,113,0,1,,,,,
,,447604,001,2023-07-24_21h22.26.144,arm3_eps,2022.2.5,Win32,60.01680471,611e96285b618d1865f67621,64aea9d0f615b6559c281482,64beceff7cf51bff43b189b1,right,-1,0.3,0.4357,3,-0.019869639,0.2453,,,,,,114,0,114,0,1,,,,,
,,447604,001,2023-07-24_21h22.26.144,arm3_eps,2022.2.5,Win32,60.01680471,611e96285b618d1865f67621,64aea9d0f615b6559c281482,64beceff7cf51bff43b189b1,right,-1,0.3,0.4357,3,-0.039476597,0.2151,,,,,,115,0,115,0,1,,,,,
,,447604,001,2023-07-24_21h22.26.144,arm3_eps,2022.2.5,Win32,60.01680471,611e96285b618d1865f67621,64aea9d0f615b6559c281482,64beceff7cf51bff43b189b1,right,-1,0.3,0.4357,3,-0.06317415,0.1988,,,,,,116,0,116,0,1,,,,,
,,447604,001,2023-07-24_21h22.26.144,arm3_eps,2022.2.5,Win32,60.01680471,611e96285b618d1865f67621,64aea9d0f615b6559c281482,64beceff7cf51bff43b189b1,right,-1,0.3,0.4357,3,-0.053409699,0.2965,,,,,,117,0,117,0,1,,,,,
,,447604,001,2023-07-24_21h22.26.144,arm3_eps,2022.2.5,Win32,60.01680471,611e96285b618d1865f67621,64aea9d0f615b6559c281482,64beceff7cf51bff43b189b1,right,-1,0.3,0.4357,3,-0.043925123,0.2273,,,,,,118,0,118,0,1,,,,,
,,447604,001,2023-07-24_21h22.26.144,arm3_eps,2022.2.5,Win32,60.01680471,611e96285b618d1865f67621,64aea9d0f615b6559c281482,64beceff7cf51bff43b189b1,right,-1,0.3,0.4357,3,-0.039629405,0.2401,,,,,,119,0,119,0,1,,,,,
,,447604,001,2023-07-24_21h22.26.144,arm3_eps,2022.2.5,Win32,60.01680471,611e96285b618d1865f67621,64aea9d0f615b6559c281482,64beceff7cf51bff43b189b1,down,-1,0.3,0.4357,3,0,0.5462,,,,,,120,0,120,0,1,,,,,
,,447604,001,2023-07-24_21h22.26.144,arm3_eps,2022.2.5,Win32,60.01680471,611e96285b618d1865f67621,64aea9d0f615b6559c281482,64beceff7cf51bff43b189b1,right,-1,0.3,0.4357,3,0.015987917,0.8253,,,,,,121,0,121,0,1,,,,,
,,447604,001,2023-07-24_21h22.26.144,arm3_eps,2022.2.5,Win32,60.01680471,611e96285b618d1865f67621,64aea9d0f615b6559c281482,64beceff7cf51bff43b189b1,right,-1,0.3,0.4357,3,-0.002888961,0.211,,,,,,122,0,122,0,1,,,,,
,,447604,001,2023-07-24_21h22.26.144,arm3_eps,2022.2.5,Win32,60.01680471,611e96285b618d1865f67621,64aea9d0f615b6559c281482,64beceff7cf51bff43b189b1,right,-1,0.3,0.4357,3,-0.024133322,0.2403,,,,,,123,0,123,0,1,,,,,
,,447604,001,2023-07-24_21h22.26.144,arm3_eps,2022.2.5,Win32,60.01680471,611e96285b618d1865f67621,64aea9d0f615b6559c281482,64beceff7cf51bff43b189b1,right,-1,0.3,0.4357,3,-0.015984905,0.1974,,,,,,124,0,124,0,1,,,,,
,,447604,001,2023-07-24_21h22.26.144,arm3_eps,2022.2.5,Win32,60.01680471,611e96285b618d1865f67621,64aea9d0f615b6559c281482,64beceff7cf51bff43b189b1,right,-1,0.3,0.4357,3,-0.05150926,0.2264,,,,,,125,0,125,0,1,,,,,
,,447604,001,2023-07-24_21h22.26.144,arm3_eps,2022.2.5,Win32,60.01680471,611e96285b618d1865f67621,64aea9d0f615b6559c281482,64beceff7cf51bff43b189b1,right,-1,0.3,0.4357,3,-0.067141938,0.2523,,,,,,126,0,126,0,1,,,,,
,,447604,001,2023-07-24_21h22.26.144,arm3_eps,2022.2.5,Win32,60.01680471,611e96285b618d1865f67621,64aea9d0f615b6559c281482,64beceff7cf51bff43b189b1,right,-1,0.3,0.4357,3,-0.077742513,0.3308,,,,,,127,0,127,0,1,,,,,
,,447604,001,2023-07-24_21h22.26.144,arm3_eps,2022.2.5,Win32,60.01680471,611e96285b618d1865f67621,64aea9d0f615b6559c281482,64beceff7cf51bff43b189b1,right,-1,0.3,0.4357,3,-0.113126411,0.4772,,,,,,128,0,128,0,1,,,,,
,,447604,001,2023-07-24_21h22.26.144,arm3_eps,2022.2.5,Win32,60.01680471,611e96285b618d1865f67621,64aea9d0f615b6559c281482,64beceff7cf51bff43b189b1,down,1,0.3,0.4357,3,0,0.5166,,,,,,129,0,129,0,1,,,,,
,,447604,001,2023-07-24_21h22.26.144,arm3_eps,2022.2.5,Win32,60.01680471,611e96285b618d1865f67621,64aea9d0f615b6559c281482,64beceff7cf51bff43b189b1,right,1,0.3,0.4357,3,-0.002833622,0.8047,,,,,,130,0,130,0,1,,,,,
,,447604,001,2023-07-24_21h22.26.144,arm3_eps,2022.2.5,Win32,60.01680471,611e96285b618d1865f67621,64aea9d0f615b6559c281482,64beceff7cf51bff43b189b1,right,1,0.3,0.4357,3,0.025939288,0.2154,,,,,,131,0,131,0,1,,,,,
,,447604,001,2023-07-24_21h22.26.144,arm3_eps,2022.2.5,Win32,60.01680471,611e96285b618d1865f67621,64aea9d0f615b6559c281482,64beceff7cf51bff43b189b1,right,1,0.3,0.4357,3,0.018035442,0.2257,,,,,,132,0,132,0,1,,,,,
,,447604,001,2023-07-24_21h22.26.144,arm3_eps,2022.2.5,Win32,60.01680471,611e96285b618d1865f67621,64aea9d0f615b6559c281482,64beceff7cf51bff43b189b1,right,1,0.3,0.4357,3,0.033260879,0.2603,,,,,,133,0,133,0,1,,,,,
,,447604,001,2023-07-24_21h22.26.144,arm3_eps,2022.2.5,Win32,60.01680471,611e96285b618d1865f67621,64aea9d0f615b6559c281482,64beceff7cf51bff43b189b1,right,1,0.3,0.4357,3,0.060974816,0.193,,,,,,134,0,134,0,1,,,,,
,,447604,001,2023-07-24_21h22.26.144,arm3_eps,2022.2.5,Win32,60.01680471,611e96285b618d1865f67621,64aea9d0f615b6559c281482,64beceff7cf51bff43b189b1,right,1,0.3,0.4357,3,0.078259545,0.2282,,,,,,135,0,135,0,1,,,,,
,,447604,001,2023-07-24_21h22.26.144,arm3_eps,2022.2.5,Win32,60.01680471,611e96285b618d1865f67621,64aea9d0f615b6559c281482,64beceff7cf51bff43b189b1,right,1,0.3,0.4357,3,0.075669384,0.4009,,,,,,136,0,136,0,1,,,,,
,,447604,001,2023-07-24_21h22.26.144,arm3_eps,2022.2.5,Win32,60.01680471,611e96285b618d1865f67621,64aea9d0f615b6559c281482,64beceff7cf51bff43b189b1,up,1,0.3,0.4357,3,0,0.6599,,,,,,137,0,137,0,1,,,,,
,,447604,001,2023-07-24_21h22.26.144,arm3_eps,2022.2.5,Win32,60.01680471,611e96285b618d1865f67621,64aea9d0f615b6559c281482,64beceff7cf51bff43b189b1,right,1,0.3,0.4357,3,0.01054537,0.9217,,,,,,138,0,138,0,1,,,,,
,,447604,001,2023-07-24_21h22.26.144,arm3_eps,2022.2.5,Win32,60.01680471,611e96285b618d1865f67621,64aea9d0f615b6559c281482,64beceff7cf51bff43b189b1,right,1,0.3,0.4357,3,0.043448249,0.2364,,,,,,139,0,139,0,1,,,,,
,,447604,001,2023-07-24_21h22.26.144,arm3_eps,2022.2.5,Win32,60.01680471,611e96285b618d1865f67621,64aea9d0f615b6559c281482,64beceff7cf51bff43b189b1,right,1,0.3,0.4357,3,0.084595105,0.1925,,,,,,140,0,140,0,1,,,,,
,,447604,001,2023-07-24_21h22.26.144,arm3_eps,2022.2.5,Win32,60.01680471,611e96285b618d1865f67621,64aea9d0f615b6559c281482,64beceff7cf51bff43b189b1,right,1,0.3,0.4357,3,0.134201648,0.402,,,,,,141,0,141,0,1,,,,,
,,447604,001,2023-07-24_21h22.26.144,arm3_eps,2022.2.5,Win32,60.01680471,611e96285b618d1865f67621,64aea9d0f615b6559c281482,64beceff7cf51bff43b189b1,right,1,0.3,0.4357,3,0.159266031,0.2791,,,,,,142,0,142,0,1,,,,,
,,447604,001,2023-07-24_21h22.26.144,arm3_eps,2022.2.5,Win32,60.01680471,611e96285b618d1865f67621,64aea9d0f615b6559c281482,64beceff7cf51bff43b189b1,right,1,0.3,0.4357,3,0.151385251,0.366,,,,,,143,0,143,0,1,,,,,
,,447604,001,2023-07-24_21h22.26.144,arm3_eps,2022.2.5,Win32,60.01680471,611e96285b618d1865f67621,64aea9d0f615b6559c281482,64beceff7cf51bff43b189b1,right,1,0.3,0.4357,3,0.137383686,0.2415,,,,,,144,0,144,0,1,,,,,
,,447604,001,2023-07-24_21h22.26.144,arm3_eps,2022.2.5,Win32,60.01680471,611e96285b618d1865f67621,64aea9d0f615b6559c281482,64beceff7cf51bff43b189b1,right,1,0.3,0.4357,3,0.144488423,0.22,,,,,,145,0,145,0,1,,,,,
,,447604,001,2023-07-24_21h22.26.144,arm3_eps,2022.2.5,Win32,60.01680471,611e96285b618d1865f67621,64aea9d0f615b6559c281482,64beceff7cf51bff43b189b1,up,-1,0.3,0.4357,3,0,0.4167,,,,,,146,0,146,0,1,,,,,
,,447604,001,2023-07-24_21h22.26.144,arm3_eps,2022.2.5,Win32,60.01680471,611e96285b618d1865f67621,64aea9d0f615b6559c281482,64beceff7cf51bff43b189b1,right,-1,0.3,0.4357,3,-0.037541186,0.743,,,,,,147,0,147,0,1,,,,,
,,447604,001,2023-07-24_21h22.26.144,arm3_eps,2022.2.5,Win32,60.01680471,611e96285b618d1865f67621,64aea9d0f615b6559c281482,64beceff7cf51bff43b189b1,right,-1,0.3,0.4357,3,-0.013079319,0.217,,,,,,148,0,148,0,1,,,,,
,,447604,001,2023-07-24_21h22.26.144,arm3_eps,2022.2.5,Win32,60.01680471,611e96285b618d1865f67621,64aea9d0f615b6559c281482,64beceff7cf51bff43b189b1,right,-1,0.3,0.4357,3,-0.008942547,0.2771,,,,,,149,0,149,0,1,,,,,
,,447604,001,2023-07-24_21h22.26.144,arm3_eps,2022.2.5,Win32,60.01680471,611e96285b618d1865f67621,64aea9d0f615b6559c281482,64beceff7cf51bff43b189b1,right,-1,0.3,0.4357,3,-0.012995386,0.2776,,,,,,150,0,150,0,1,,,,,
,,447604,001,2023-07-24_21h22.26.144,arm3_eps,2022.2.5,Win32,60.01680471,611e96285b618d1865f67621,64aea9d0f615b6559c281482,64beceff7cf51bff43b189b1,right,-1,0.3,0.4357,3,-0.046042222,0.2581,,,,,,151,0,151,0,1,,,,,
,,447604,001,2023-07-24_21h22.26.144,arm3_eps,2022.2.5,Win32,60.01680471,611e96285b618d1865f67621,64aea9d0f615b6559c281482,64beceff7cf51bff43b189b1,right,-1,0.3,0.4357,3,-0.081465966,0.3325,,,,,,152,0,152,0,1,,,,,
,,447604,001,2023-07-24_21h22.26.144,arm3_eps,2022.2.5,Win32,60.01680471,611e96285b618d1865f67621,64aea9d0f615b6559c281482,64beceff7cf51bff43b189b1,right,-1,0.3,0.4357,3,-0.086906926,0.4489,,,,,,153,0,153,0,1,,,,,
,,447604,001,2023-07-24_21h22.26.144,arm3_eps,2022.2.5,Win32,60.01680471,611e96285b618d1865f67621,64aea9d0f615b6559c281482,64beceff7cf51bff43b189b1,right,-1,0.3,0.4357,3,-0.069477723,0.3035,,,,,,154,0,154,0,1,,,,,
,,447604,001,2023-07-24_21h22.26.144,arm3_eps,2022.2.5,Win32,60.01680471,611e96285b618d1865f67621,64aea9d0f615b6559c281482,64beceff7cf51bff43b189b1,right,-1,0.3,0.4357,3,-0.046500619,0.2475,,,,,,155,0,155,0,1,,,,,
,,447604,001,2023-07-24_21h22.26.144,arm3_eps,2022.2.5,Win32,60.01680471,611e96285b618d1865f67621,64aea9d0f615b6559c281482,64beceff7cf51bff43b189b1,down,-1,0.3,0.4357,3,0,0.5752,,,,,,156,0,156,0,1,,,,,
,,447604,001,2023-07-24_21h22.26.144,arm3_eps,2022.2.5,Win32,60.01680471,611e96285b618d1865f67621,64aea9d0f615b6559c281482,64beceff7cf51bff43b189b1,right,-1,0.3,0.4357,3,-0.016400335,0.7751,,,,,,157,0,157,0,1,,,,,
,,447604,001,2023-07-24_21h22.26.144,arm3_eps,2022.2.5,Win32,60.01680471,611e96285b618d1865f67621,64aea9d0f615b6559c281482,64beceff7cf51bff43b189b1,right,-1,0.3,0.4357,3,-0.016085322,0.2094,,,,,,158,0,158,0,1,,,,,
,,447604,001,2023-07-24_21h22.26.144,arm3_eps,2022.2.5,Win32,60.01680471,611e96285b618d1865f67621,64aea9d0f615b6559c281482,64beceff7cf51bff43b189b1,right,-1,0.3,0.4357,3,-0.039265599,0.2752,,,,,,159,0,159,0,1,,,,,
,,447604,001,2023-07-24_21h22.26.144,arm3_eps,2022.2.5,Win32,60.01680471,611e96285b618d1865f67621,64aea9d0f615b6559c281482,64beceff7cf51bff43b189b1,right,-1,0.3,0.4357,3,-0.046264891,0.3412,,,,,,160,0,160,0,1,,,,,
,,447604,001,2023-07-24_21h22.26.144,arm3_eps,2022.2.5,Win32,60.01680471,611e96285b618d1865f67621,64aea9d0f615b6559c281482,64beceff7cf51bff43b189b1,right,-1,0.3,0.4357,3,-0.058151326,0.5574,,,,,,161,0,161,0,1,,,,,
,,447604,001,2023-07-24_21h22.26.144,arm3_eps,2022.2.5,Win32,60.01680471,611e96285b618d1865f67621,64aea9d0f615b6559c281482,64beceff7cf51bff43b189b1,right,-1,0.3,0.4357,3,-0.08126079,0.314,,,,,,162,0,162,0,1,,,,,
,,447604,001,2023-07-24_21h22.26.144,arm3_eps,2022.2.5,Win32,60.01680471,611e96285b618d1865f67621,64aea9d0f615b6559c281482,64beceff7cf51bff43b189b1,down,-1,0.3,0.4357,3,0,0.3931,,,,,,163,0,163,0,1,,,,,
,,447604,001,2023-07-24_21h22.26.144,arm3_eps,2022.2.5,Win32,60.01680471,611e96285b618d1865f67621,64aea9d0f615b6559c281482,64beceff7cf51bff43b189b1,right,-1,0.3,0.4357,3,-0.014192782,0.4631,,,,,,164,0,164,0,1,,,,,
,,447604,001,2023-07-24_21h22.26.144,arm3_eps,2022.2.5,Win32,60.01680471,611e96285b618d1865f67621,64aea9d0f615b6559c281482,64beceff7cf51bff43b189b1,right,-1,0.3,0.4357,3,-0.054210139,0.2483,,,,,,165,0,165,0,1,,,,,
,,447604,001,2023-07-24_21h22.26.144,arm3_eps,2022.2.5,Win32,60.01680471,611e96285b618d1865f67621,64aea9d0f615b6559c281482,64beceff7cf51bff43b189b1,right,-1,0.3,0.4357,3,-0.08582223,0.2245,,,,,,166,0,166,0,1,,,,,
,,447604,001,2023-07-24_21h22.26.144,arm3_eps,2022.2.5,Win32,60.01680471,611e96285b618d1865f67621,64aea9d0f615b6559c281482,64beceff7cf51bff43b189b1,right,-1,0.3,0.4357,3,-0.11545305,0.3374,,,,,,167,0,167,0,1,,,,,
,,447604,001,2023-07-24_21h22.26.144,arm3_eps,2022.2.5,Win32,60.01680471,611e96285b618d1865f67621,64aea9d0f615b6559c281482,64beceff7cf51bff43b189b1,right,-1,0.3,0.4357,3,-0.129223117,0.2743,,,,,,168,0,168,0,1,,,,,
,,447604,001,2023-07-24_21h22.26.144,arm3_eps,2022.2.5,Win32,60.01680471,611e96285b618d1865f67621,64aea9d0f615b6559c281482,64beceff7cf51bff43b189b1,right,-1,0.3,0.4357,3,-0.123666924,0.2463,,,,,,169,0,169,0,1,,,,,
,,447604,001,2023-07-24_21h22.26.144,arm3_eps,2022.2.5,Win32,60.01680471,611e96285b618d1865f67621,64aea9d0f615b6559c281482,64beceff7cf51bff43b189b1,right,-1,0.3,0.4357,3,-0.151248364,0.3437,,,,,,170,0,170,0,1,,,,,
,,447604,001,2023-07-24_21h22.26.144,arm3_eps,2022.2.5,Win32,60.01680471,611e96285b618d1865f67621,64aea9d0f615b6559c281482,64beceff7cf51bff43b189b1,down,-1,0.3,0.4357,4,0,0.4086,,,,,,171,0,171,0,1,,,,,
,,447604,001,2023-07-24_21h22.26.144,arm3_eps,2022.2.5,Win32,60.01680471,611e96285b618d1865f67621,64aea9d0f615b6559c281482,64beceff7cf51bff43b189b1,right,-1,0.3,0.4357,4,-0.002681515,0.8367,,,,,,172,0,172,0,1,,,,,
,,447604,001,2023-07-24_21h22.26.144,arm3_eps,2022.2.5,Win32,60.01680471,611e96285b618d1865f67621,64aea9d0f615b6559c281482,64beceff7cf51bff43b189b1,right,-1,0.3,0.4357,4,-0.03199658,0.2094,,,,,,173,0,173,0,1,,,,,
,,447604,001,2023-07-24_21h22.26.144,arm3_eps,2022.2.5,Win32,60.01680471,611e96285b618d1865f67621,64aea9d0f615b6559c281482,64beceff7cf51bff43b189b1,right,-1,0.3,0.4357,4,-0.063649288,0.2415,,,,,,174,0,174,0,1,,,,,
,,447604,001,2023-07-24_21h22.26.144,arm3_eps,2022.2.5,Win32,60.01680471,611e96285b618d1865f67621,64aea9d0f615b6559c281482,64beceff7cf51bff43b189b1,right,-1,0.3,0.4357,4,-0.103632287,0.3564,,,,,,175,0,175,0,1,,,,,
,,447604,001,2023-07-24_21h22.26.144,arm3_eps,2022.2.5,Win32,60.01680471,611e96285b618d1865f67621,64aea9d0f615b6559c281482,64beceff7cf51bff43b189b1,right,-1,0.3,0.4357,4,-0.129051004,0.2652,,,,,,176,0,176,0,1,,,,,
,,447604,001,2023-07-24_21h22.26.144,arm3_eps,2022.2.5,Win32,60.01680471,611e96285b618d1865f67621,64aea9d0f615b6559c281482,64beceff7cf51bff43b189b1,right,-1,0.3,0.4357,4,-0.12386491,0.3427,,,,,,177,0,177,0,1,,,,,
,,447604,001,2023-07-24_21h22.26.144,arm3_eps,2022.2.5,Win32,60.01680471,611e96285b618d1865f67621,64aea9d0f615b6559c281482,64beceff7cf51bff43b189b1,right,-1,0.3,0.4357,4,-0.131567455,0.2628,,,,,,178,0,178,0,1,,,,,
,,447604,001,2023-07-24_21h22.26.144,arm3_eps,2022.2.5,Win32,60.01680471,611e96285b618d1865f67621,64aea9d0f615b6559c281482,64beceff7cf51bff43b189b1,right,-1,0.3,0.4357,4,-0.129958261,0.291,,,,,,179,0,179,0,1,,,,,
,,447604,001,2023-07-24_21h22.26.144,arm3_eps,2022.2.5,Win32,60.01680471,611e96285b618d1865f67621,64aea9d0f615b6559c281482,64beceff7cf51bff43b189b1,down,-1,0.3,0.4357,4,0,0.216,,,,,,180,0,180,0,1,,,,,
,,447604,001,2023-07-24_21h22.26.144,arm3_eps,2022.2.5,Win32,60.01680471,611e96285b618d1865f67621,64aea9d0f615b6559c281482,64beceff7cf51bff43b189b1,right,-1,0.3,0.4357,4,0.005303605,0.7842,,,,,,181,0,181,0,1,,,,,
,,447604,001,2023-07-24_21h22.26.144,arm3_eps,2022.2.5,Win32,60.01680471,611e96285b618d1865f67621,64aea9d0f615b6559c281482,64beceff7cf51bff43b189b1,right,-1,0.3,0.4357,4,-0.02584395,0.1965,,,,,,182,0,182,0,1,,,,,
,,447604,001,2023-07-24_21h22.26.144,arm3_eps,2022.2.5,Win32,60.01680471,611e96285b618d1865f67621,64aea9d0f615b6559c281482,64beceff7cf51bff43b189b1,right,-1,0.3,0.4357,4,-0.030004429,0.2419,,,,,,183,0,183,0,1,,,,,
,,447604,001,2023-07-24_21h22.26.144,arm3_eps,2022.2.5,Win32,60.01680471,611e96285b618d1865f67621,64aea9d0f615b6559c281482,64beceff7cf51bff43b189b1,right,-1,0.3,0.4357,4,-0.05740335,0.3236,,,,,,184,0,184,0,1,,,,,
,,447604,001,2023-07-24_21h22.26.144,arm3_eps,2022.2.5,Win32,60.01680471,611e96285b618d1865f67621,64aea9d0f615b6559c281482,64beceff7cf51bff43b189b1,right,-1,0.3,0.4357,4,-0.072410259,0.4003,,,,,,185,0,185,0,1,,,,,
,,447604,001,2023-07-24_21h22.26.144,arm3_eps,2022.2.5,Win32,60.01680471,611e96285b618d1865f67621,64aea9d0f615b6559c281482,64beceff7cf51bff43b189b1,right,-1,0.3,0.4357,4,-0.050879134,0.3961,,,,,,186,0,186,0,1,,,,,
,,447604,001,2023-07-24_21h22.26.144,arm3_eps,2022.2.5,Win32,60.01680471,611e96285b618d1865f67621,64aea9d0f615b6559c281482,64beceff7cf51bff43b189b1,right,-1,0.3,0.4357,4,-0.075618224,0.3269,,,,,,187,0,187,0,1,,,,,
,,447604,001,2023-07-24_21h22.26.144,arm3_eps,2022.2.5,Win32,60.01680471,611e96285b618d1865f67621,64aea9d0f615b6559c281482,64beceff7cf51bff43b189b1,down,1,0.3,0.4357,5,0,0.3729,,,,,,188,0,188,0,1,,,,,
,,447604,001,2023-07-24_21h22.26.144,arm3_eps,2022.2.5,Win32,60.01680471,611e96285b618d1865f67621,64aea9d0f615b6559c281482,64beceff7cf51bff43b189b1,right,1,0.3,0.4357,5,0.023755317,0.8353,,,,,,189,0,189,0,1,,,,,
,,447604,001,2023-07-24_21h22.26.144,arm3_eps,2022.2.5,Win32,60.01680471,611e96285b618d1865f67621,64aea9d0f615b6559c281482,64beceff7cf51bff43b189b1,right,1,0.3,0.4357,5,0.019772722,0.2229,,,,,,190,0,190,0,1,,,,,
,,447604,001,2023-07-24_21h22.26.144,arm3_eps,2022.2.5,Win32,60.01680471,611e96285b618d1865f67621,64aea9d0f615b6559c281482,64beceff7cf51bff43b189b1,right,1,0.3,0.4357,5,0.056812784,0.2321,,,,,,191,0,191,0,1,,,,,
,,447604,001,2023-07-24_21h22.26.144,arm3_eps,2022.2.5,Win32,60.01680471,611e96285b618d1865f67621,64aea9d0f615b6559c281482,64beceff7cf51bff43b189b1,right,1,0.3,0.4357,5,0.048486177,0.2419,,,,,,192,0,192,0,1,,,,,
,,447604,001,2023-07-24_21h22.26.144,arm3_eps,2022.2.5,Win32,60.01680471,611e96285b618d1865f67621,64aea9d0f615b6559c281482,64beceff7cf51bff43b189b1,right,1,0.3,0.4357,5,0.048591212,0.2621,,,,,,193,0,193,0,1,,,,,
,,447604,001,2023-07-24_21h22.26.144,arm3_eps,2022.2.5,Win32,60.01680471,611e96285b618d1865f67621,64aea9d0f615b6559c281482,64beceff7cf51bff43b189b1,right,1,0.3,0.4357,5,0.061928079,0.3165,,,,,,194,0,194,0,1,,,,,
,,447604,001,2023-07-24_21h22.26.144,arm3_eps,2022.2.5,Win32,60.01680471,611e96285b618d1865f67621,64aea9d0f615b6559c281482,64beceff7cf51bff43b189b1,right,1,0.3,0.4357,5,0.076848081,0.4187,,,,,,195,0,195,0,1,,,,,
,,447604,001,2023-07-24_21h22.26.144,arm3_eps,2022.2.5,Win32,60.01680471,611e96285b618d1865f67621,64aea9d0f615b6559c281482,64beceff7cf51bff43b189b1,up,1,0.3,0.4357,6,0,0.2001,,,,,,196,0,196,0,1,,,,,
,,447604,001,2023-07-24_21h22.26.144,arm3_eps,2022.2.5,Win32,60.01680471,611e96285b618d1865f67621,64aea9d0f615b6559c281482,64beceff7cf51bff43b189b1,right,1,0.3,0.4357,6,0.026808586,0.7844,,,,,,197,0,197,0,1,,,,,
,,447604,001,2023-07-24_21h22.26.144,arm3_eps,2022.2.5,Win32,60.01680471,611e96285b618d1865f67621,64aea9d0f615b6559c281482,64beceff7cf51bff43b189b1,right,1,0.3,0.4357,6,0.040694572,0.2,,,,,,198,0,198,0,1,,,,,
,,447604,001,2023-07-24_21h22.26.144,arm3_eps,2022.2.5,Win32,60.01680471,611e96285b618d1865f67621,64aea9d0f615b6559c281482,64beceff7cf51bff43b189b1,right,1,0.3,0.4357,6,0.052455591,0.275,,,,,,199,0,199,0,1,,,,,
,,447604,001,2023-07-24_21h22.26.144,arm3_eps,2022.2.5,Win32,60.01680471,611e96285b618d1865f67621,64aea9d0f615b6559c281482,64beceff7cf51bff43b189b1,right,1,0.3,0.4357,6,0.073152579,0.2853,,,,,,200,0,200,0,1,,,,,
,,447604,001,2023-07-24_21h22.26.144,arm3_eps,2022.2.5,Win32,60.01680471,611e96285b618d1865f67621,64aea9d0f615b6559c281482,64beceff7cf51bff43b189b1,right,1,0.3,0.4357,6,0.129273661,0.3631,,,,,,201,0,201,0,1,,,,,
,,447604,001,2023-07-24_21h22.26.144,arm3_eps,2022.2.5,Win32,60.01680471,611e96285b618d1865f67621,64aea9d0f615b6559c281482,64beceff7cf51bff43b189b1,up,1,0.3,0.4357,6,0,0.4591,,,,,,202,0,202,0,1,,,,,
,,447604,001,2023-07-24_21h22.26.144,arm3_eps,2022.2.5,Win32,60.01680471,611e96285b618d1865f67621,64aea9d0f615b6559c281482,64beceff7cf51bff43b189b1,right,1,0.3,0.4357,6,-0.041024384,0.9985,,,,,,203,0,203,0,1,,,,,
,,447604,001,2023-07-24_21h22.26.144,arm3_eps,2022.2.5,Win32,60.01680471,611e96285b618d1865f67621,64aea9d0f615b6559c281482,64beceff7cf51bff43b189b1,right,1,0.3,0.4357,6,-0.057245788,0.2121,,,,,,204,0,204,0,1,,,,,
,,447604,001,2023-07-24_21h22.26.144,arm3_eps,2022.2.5,Win32,60.01680471,611e96285b618d1865f67621,64aea9d0f615b6559c281482,64beceff7cf51bff43b189b1,right,1,0.3,0.4357,6,-0.061784988,0.2401,,,,,,205,0,205,0,1,,,,,
,,447604,001,2023-07-24_21h22.26.144,arm3_eps,2022.2.5,Win32,60.01680471,611e96285b618d1865f67621,64aea9d0f615b6559c281482,64beceff7cf51bff43b189b1,right,1,0.3,0.4357,6,-0.06311342,0.2745,,,,,,206,0,206,0,1,,,,,
,,447604,001,2023-07-24_21h22.26.144,arm3_eps,2022.2.5,Win32,60.01680471,611e96285b618d1865f67621,64aea9d0f615b6559c281482,64beceff7cf51bff43b189b1,right,1,0.3,0.4357,6,-0.050965399,0.2692,,,,,,207,0,207,0,1,,,,,
,,447604,001,2023-07-24_21h22.26.144,arm3_eps,2022.2.5,Win32,60.01680471,611e96285b618d1865f67621,64aea9d0f615b6559c281482,64beceff7cf51bff43b189b1,right,1,0.3,0.4357,6,-0.045044098,0.2846,,,,,,208,0,208,0,1,,,,,
,,447604,001,2023-07-24_21h22.26.144,arm3_eps,2022.2.5,Win32,60.01680471,611e96285b618d1865f67621,64aea9d0f615b6559c281482,64beceff7cf51bff43b189b1,right,1,0.3,0.4357,6,-0.034392958,0.3237,,,,,,209,0,209,0,1,,,,,
,,447604,001,2023-07-24_21h22.26.144,arm3_eps,2022.2.5,Win32,60.01680471,611e96285b618d1865f67621,64aea9d0f615b6559c281482,64beceff7cf51bff43b189b1,right,1,0.3,0.4357,6,-0.004131814,0.4653,,,,,,210,0,210,0,1,,,,,
,,447604,001,2023-07-24_21h22.26.144,arm3_eps,2022.2.5,Win32,60.01680471,611e96285b618d1865f67621,64aea9d0f615b6559c281482,64beceff7cf51bff43b189b1,right,1,0.3,0.4357,6,0.000656788,0.2906,,,,,,211,0,211,0,1,,,,,
,,447604,001,2023-07-24_21h22.26.144,arm3_eps,2022.2.5,Win32,60.01680471,611e96285b618d1865f67621,64aea9d0f615b6559c281482,64beceff7cf51bff43b189b1,up,-1,0.3,0.4357,7,0,0.4861,,,,,,212,0,212,0,1,,,,,
,,447604,001,2023-07-24_21h22.26.144,arm3_eps,2022.2.5,Win32,60.01680471,611e96285b618d1865f67621,64aea9d0f615b6559c281482,64beceff7cf51bff43b189b1,right,-1,0.3,0.4357,7,-0.019420516,0.7846,,,,,,213,0,213,0,1,,,,,
,,447604,001,2023-07-24_21h22.26.144,arm3_eps,2022.2.5,Win32,60.01680471,611e96285b618d1865f67621,64aea9d0f615b6559c281482,64beceff7cf51bff43b189b1,right,-1,0.3,0.4357,7,-0.052103643,0.2507,,,,,,214,0,214,0,1,,,,,
,,447604,001,2023-07-24_21h22.26.144,arm3_eps,2022.2.5,Win32,60.01680471,611e96285b618d1865f67621,64aea9d0f615b6559c281482,64beceff7cf51bff43b189b1,right,-1,0.3,0.4357,7,-0.073064528,0.2609,,,,,,215,0,215,0,1,,,,,
,,447604,001,2023-07-24_21h22.26.144,arm3_eps,2022.2.5,Win32,60.01680471,611e96285b618d1865f67621,64aea9d0f615b6559c281482,64beceff7cf51bff43b189b1,right,-1,0.3,0.4357,7,-0.050570116,0.2363,,,,,,216,0,216,0,1,,,,,
,,447604,001,2023-07-24_21h22.26.144,arm3_eps,2022.2.5,Win32,60.01680471,611e96285b618d1865f67621,64aea9d0f615b6559c281482,64beceff7cf51bff43b189b1,right,-1,0.3,0.4357,7,-0.0410923,0.2563,,,,,,217,0,217,0,1,,,,,
,,447604,001,2023-07-24_21h22.26.144,arm3_eps,2022.2.5,Win32,60.01680471,611e96285b618d1865f67621,64aea9d0f615b6559c281482,64beceff7cf51bff43b189b1,right,-1,0.3,0.4357,7,-0.062683264,0.2343,,,,,,218,0,218,0,1,,,,,
,,447604,001,2023-07-24_21h22.26.144,arm3_eps,2022.2.5,Win32,60.01680471,611e96285b618d1865f67621,64aea9d0f615b6559c281482,64beceff7cf51bff43b189b1,right,-1,0.3,0.4357,7,-0.05349756,0.2281,,,,,,219,0,219,0,1,,,,,
,,447604,001,2023-07-24_21h22.26.144,arm3_eps,2022.2.5,Win32,60.01680471,611e96285b618d1865f67621,64aea9d0f615b6559c281482,64beceff7cf51bff43b189b1,right,-1,0.3,0.4357,7,-0.067228025,0.2665,,,,,,220,0,220,0,1,,,,,
,,447604,001,2023-07-24_21h22.26.144,arm3_eps,2022.2.5,Win32,60.01680471,611e96285b618d1865f67621,64aea9d0f615b6559c281482,64beceff7cf51bff43b189b1,down,-1,0.3,0.4357,8,0,0.62,,,,,,221,0,221,0,1,,,,,
,,447604,001,2023-07-24_21h22.26.144,arm3_eps,2022.2.5,Win32,60.01680471,611e96285b618d1865f67621,64aea9d0f615b6559c281482,64beceff7cf51bff43b189b1,right,-1,0.3,0.4357,8,-0.000165543,0.8388,,,,,,222,0,222,0,1,,,,,
,,447604,001,2023-07-24_21h22.26.144,arm3_eps,2022.2.5,Win32,60.01680471,611e96285b618d1865f67621,64aea9d0f615b6559c281482,64beceff7cf51bff43b189b1,right,-1,0.3,0.4357,8,-0.005620107,0.2328,,,,,,223,0,223,0,1,,,,,
,,447604,001,2023-07-24_21h22.26.144,arm3_eps,2022.2.5,Win32,60.01680471,611e96285b618d1865f67621,64aea9d0f615b6559c281482,64beceff7cf51bff43b189b1,right,-1,0.3,0.4357,8,-0.015314098,0.1911,,,,,,224,0,224,0,1,,,,,
,,447604,001,2023-07-24_21h22.26.144,arm3_eps,2022.2.5,Win32,60.01680471,611e96285b618d1865f67621,64aea9d0f615b6559c281482,64beceff7cf51bff43b189b1,right,-1,0.3,0.4357,8,-0.041926876,0.2401,,,,,,225,0,225,0,1,,,,,
,,447604,001,2023-07-24_21h22.26.144,arm3_eps,2022.2.5,Win32,60.01680471,611e96285b618d1865f67621,64aea9d0f615b6559c281482,64beceff7cf51bff43b189b1,right,-1,0.3,0.4357,8,-0.049064294,0.2337,,,,,,226,0,226,0,1,,,,,
,,447604,001,2023-07-24_21h22.26.144,arm3_eps,2022.2.5,Win32,60.01680471,611e96285b618d1865f67621,64aea9d0f615b6559c281482,64beceff7cf51bff43b189b1,right,-1,0.3,0.4357,8,-0.04914367,0.2816,,,,,,227,0,227,0,1,,,,,
,,447604,001,2023-07-24_21h22.26.144,arm3_eps,2022.2.5,Win32,60.01680471,611e96285b618d1865f67621,64aea9d0f615b6559c281482,64beceff7cf51bff43b189b1,right,-1,0.3,0.4357,8,-0.085446051,0.2666,,,,,,228,0,228,0,1,,,,,
,,447604,001,2023-07-24_21h22.26.144,arm3_eps,2022.2.5,Win32,60.01680471,611e96285b618d1865f67621,64aea9d0f615b6559c281482,64beceff7cf51bff43b189b1,right,-1,0.3,0.4357,8,-0.145595668,0.28,,,,,,229,0,229,0,1,,,,,
,,447604,001,2023-07-24_21h22.26.144,arm3_eps,2022.2.5,Win32,60.01680471,611e96285b618d1865f67621,64aea9d0f615b6559c281482,64beceff7cf51bff43b189b1,down,1,0.3,0.4357,9,0,0.3825,,,,,,230,0,230,0,1,,,,,
,,447604,001,2023-07-24_21h22.26.144,arm3_eps,2022.2.5,Win32,60.01680471,611e96285b618d1865f67621,64aea9d0f615b6559c281482,64beceff7cf51bff43b189b1,right,1,0.3,0.4357,9,0.008661748,0.7637,,,,,,231,0,231,0,1,,,,,
,,447604,001,2023-07-24_21h22.26.144,arm3_eps,2022.2.5,Win32,60.01680471,611e96285b618d1865f67621,64aea9d0f615b6559c281482,64beceff7cf51bff43b189b1,right,1,0.3,0.4357,9,0.01422872,0.2149,,,,,,232,0,232,0,1,,,,,
,,447604,001,2023-07-24_21h22.26.144,arm3_eps,2022.2.5,Win32,60.01680471,611e96285b618d1865f67621,64aea9d0f615b6559c281482,64beceff7cf51bff43b189b1,right,1,0.3,0.4357,9,0.006268719,0.3281,,,,,,233,0,233,0,1,,,,,
,,447604,001,2023-07-24_21h22.26.144,arm3_eps,2022.2.5,Win32,60.01680471,611e96285b618d1865f67621,64aea9d0f615b6559c281482,64beceff7cf51bff43b189b1,right,1,0.3,0.4357,9,0.03952759,0.2422,,,,,,234,0,234,0,1,,,,,
,,447604,001,2023-07-24_21h22.26.144,arm3_eps,2022.2.5,Win32,60.01680471,611e96285b618d1865f67621,64aea9d0f615b6559c281482,64beceff7cf51bff43b189b1,right,1,0.3,0.4357,9,0.043613155,0.2148,,,,,,235,0,235,0,1,,,,,
,,447604,001,2023-07-24_21h22.26.144,arm3_eps,2022.2.5,Win32,60.01680471,611e96285b618d1865f67621,64aea9d0f615b6559c281482,64beceff7cf51bff43b189b1,right,1,0.3,0.4357,9,0.026767091,0.2989,,,,,,236,0,236,0,1,,,,,
,,447604,001,2023-07-24_21h22.26.144,arm3_eps,2022.2.5,Win32,60.01680471,611e96285b618d1865f67621,64aea9d0f615b6559c281482,64beceff7cf51bff43b189b1,right,1,0.3,0.4357,9,0.073902621,0.3004,,,,,,237,0,237,0,1,,,,,
,,447604,001,2023-07-24_21h22.26.144,arm3_eps,2022.2.5,Win32,60.01680471,611e96285b618d1865f67621,64aea9d0f615b6559c281482,64beceff7cf51bff43b189b1,up,-1,0.3,0.4357,10,0,0.5943,,,,,,238,0,238,0,1,,,,,
,,447604,001,2023-07-24_21h22.26.144,arm3_eps,2022.2.5,Win32,60.01680471,611e96285b618d1865f67621,64aea9d0f615b6559c281482,64beceff7cf51bff43b189b1,right,-1,0.3,0.4357,10,-0.050726567,0.8214,,,,,,239,0,239,0,1,,,,,
,,447604,001,2023-07-24_21h22.26.144,arm3_eps,2022.2.5,Win32,60.01680471,611e96285b618d1865f67621,64aea9d0f615b6559c281482,64beceff7cf51bff43b189b1,right,-1,0.3,0.4357,10,-0.071519785,0.2346,,,,,,240,0,240,0,1,,,,,
,,447604,001,2023-07-24_21h22.26.144,arm3_eps,2022.2.5,Win32,60.01680471,611e96285b618d1865f67621,64aea9d0f615b6559c281482,64beceff7cf51bff43b189b1,right,-1,0.3,0.4357,10,-0.063611343,0.2942,,,,,,241,0,241,0,1,,,,,
,,447604,001,2023-07-24_21h22.26.144,arm3_eps,2022.2.5,Win32,60.01680471,611e96285b618d1865f67621,64aea9d0f615b6559c281482,64beceff7cf51bff43b189b1,right,-1,0.3,0.4357,10,-0.063186205,0.234,,,,,,242,0,242,0,1,,,,,
,,447604,001,2023-07-24_21h22.26.144,arm3_eps,2022.2.5,Win32,60.01680471,611e96285b618d1865f67621,64aea9d0f615b6559c281482,64beceff7cf51bff43b189b1,right,-1,0.3,0.4357,10,-0.069750866,0.3079,,,,,,243,0,243,0,1,,,,,
,,447604,001,2023-07-24_21h22.26.144,arm3_eps,2022.2.5,Win32,60.01680471,611e96285b618d1865f67621,64aea9d0f615b6559c281482,64beceff7cf51bff43b189b1,right,-1,0.3,0.4357,10,-0.074147996,0.217,,,,,,244,0,244,0,1,,,,,
,,447604,001,2023-07-24_21h22.26.144,arm3_eps,2022.2.5,Win32,60.01680471,611e96285b618d1865f67621,64aea9d0f615b6559c281482,64beceff7cf51bff43b189b1,right,-1,0.3,0.4357,10,-0.079141307,0.2489,,,,,,245,0,245,0,1,,,,,
,,447604,001,2023-07-24_21h22.26.144,arm3_eps,2022.2.5,Win32,60.01680471,611e96285b618d1865f67621,64aea9d0f615b6559c281482,64beceff7cf51bff43b189b1,right,-1,0.3,0.4357,10,-0.078156131,0.294,,,,,,246,0,246,0,1,,,,,
,,447604,001,2023-07-24_21h22.26.144,arm3_eps,2022.2.5,Win32,60.01680471,611e96285b618d1865f67621,64aea9d0f615b6559c281482,64beceff7cf51bff43b189b1,right,-1,0.3,0.4357,10,-0.065078216,0.3596,,,,,,247,0,247,0,1,,,,,
,,447604,001,2023-07-24_21h22.26.144,arm3_eps,2022.2.5,Win32,60.01680471,611e96285b618d1865f67621,64aea9d0f615b6559c281482,64beceff7cf51bff43b189b1,down,-1,0.3,0.4357,10,0,0.5935,,,,,,248,0,248,0,1,,,,,
,,447604,001,2023-07-24_21h22.26.144,arm3_eps,2022.2.5,Win32,60.01680471,611e96285b618d1865f67621,64aea9d0f615b6559c281482,64beceff7cf51bff43b189b1,right,-1,0.3,0.4357,10,-0.035552908,0.7469,,,,,,249,0,249,0,1,,,,,
,,447604,001,2023-07-24_21h22.26.144,arm3_eps,2022.2.5,Win32,60.01680471,611e96285b618d1865f67621,64aea9d0f615b6559c281482,64beceff7cf51bff43b189b1,right,-1,0.3,0.4357,10,-0.049009139,0.2598,,,,,,250,0,250,0,1,,,,,
,,447604,001,2023-07-24_21h22.26.144,arm3_eps,2022.2.5,Win32,60.01680471,611e96285b618d1865f67621,64aea9d0f615b6559c281482,64beceff7cf51bff43b189b1,right,-1,0.3,0.4357,10,-0.062042673,0.2753,,,,,,251,0,251,0,1,,,,,
,,447604,001,2023-07-24_21h22.26.144,arm3_eps,2022.2.5,Win32,60.01680471,611e96285b618d1865f67621,64aea9d0f615b6559c281482,64beceff7cf51bff43b189b1,right,-1,0.3,0.4357,10,-0.047642685,0.2676,,,,,,252,0,252,0,1,,,,,
,,447604,001,2023-07-24_21h22.26.144,arm3_eps,2022.2.5,Win32,60.01680471,611e96285b618d1865f67621,64aea9d0f615b6559c281482,64beceff7cf51bff43b189b1,right,-1,0.3,0.4357,10,-0.094463039,0.2802,,,,,,253,0,253,0,1,,,,,
,,447604,001,2023-07-24_21h22.26.144,arm3_eps,2022.2.5,Win32,60.01680471,611e96285b618d1865f67621,64aea9d0f615b6559c281482,64beceff7cf51bff43b189b1,right,-1,0.3,0.4357,10,-0.105580842,0.3051,,,,,,254,0,254,0,1,,,,,
,,447604,001,2023-07-24_21h22.26.144,arm3_eps,2022.2.5,Win32,60.01680471,611e96285b618d1865f67621,64aea9d0f615b6559c281482,64beceff7cf51bff43b189b1,right,-1,0.3,0.4357,10,-0.117396368,0.2925,,,,,,255,0,255,0,1,,,,,
,,447604,001,2023-07-24_21h22.26.144,arm3_eps,2022.2.5,Win32,60.01680471,611e96285b618d1865f67621,64aea9d0f615b6559c281482,64beceff7cf51bff43b189b1,down,1,0.3,0.4357,11,0,0.3922,,,,,,256,0,256,0,1,,,,,
,,447604,001,2023-07-24_21h22.26.144,arm3_eps,2022.2.5,Win32,60.01680471,611e96285b618d1865f67621,64aea9d0f615b6559c281482,64beceff7cf51bff43b189b1,right,1,0.3,0.4357,11,-0.002576571,0.8051,,,,,,257,0,257,0,1,,,,,
,,447604,001,2023-07-24_21h22.26.144,arm3_eps,2022.2.5,Win32,60.01680471,611e96285b618d1865f67621,64aea9d0f615b6559c281482,64beceff7cf51bff43b189b1,right,1,0.3,0.4357,11,0.023982493,0.2284,,,,,,258,0,258,0,1,,,,,
,,447604,001,2023-07-24_21h22.26.144,arm3_eps,2022.2.5,Win32,60.01680471,611e96285b618d1865f67621,64aea9d0f615b6559c281482,64beceff7cf51bff43b189b1,right,1,0.3,0.4357,11,0.032666181,0.2626,,,,,,259,0,259,0,1,,,,,
,,447604,001,2023-07-24_21h22.26.144,arm3_eps,2022.2.5,Win32,60.01680471,611e96285b618d1865f67621,64aea9d0f615b6559c281482,64beceff7cf51bff43b189b1,right,1,0.3,0.4357,11,0.063247425,0.2615,,,,,,260,0,260,0,1,,,,,
,,447604,001,2023-07-24_21h22.26.144,arm3_eps,2022.2.5,Win32,60.01680471,611e96285b618d1865f67621,64aea9d0f615b6559c281482,64beceff7cf51bff43b189b1,right,1,0.3,0.4357,11,0.050816142,0.2427,,,,,,261,0,261,0,1,,,,,
,,447604,001,2023-07-24_21h22.26.144,arm3_eps,2022.2.5,Win32,60.01680471,611e96285b618d1865f67621,64aea9d0f615b6559c281482,64beceff7cf51bff43b189b1,right,1,0.3,0.4357,11,0.086889364,0.2831,,,,,,262,0,262,0,1,,,,,
,,447604,001,2023-07-24_21h22.26.144,arm3_eps,2022.2.5,Win32,60.01680471,611e96285b618d1865f67621,64aea9d0f615b6559c281482,64beceff7cf51bff43b189b1,right,1,0.3,0.4357,11,0.084239845,0.283,,,,,,263,0,263,0,1,,,,,
,,447604,001,2023-07-24_21h22.26.144,arm3_eps,2022.2.5,Win32,60.01680471,611e96285b618d1865f67621,64aea9d0f615b6559c281482,64beceff7cf51bff43b189b1,right,1,0.3,0.4357,11,0.086045054,0.2956,,,,,,264,0,264,0,1,,,,,
,,447604,001,2023-07-24_21h22.26.144,arm3_eps,2022.2.5,Win32,60.01680471,611e96285b618d1865f67621,64aea9d0f615b6559c281482,64beceff7cf51bff43b189b1,up,-1,0.3,0.4357,11,0,0.2792,,,,,,265,0,265,0,1,,,,,
,,447604,001,2023-07-24_21h22.26.144,arm3_eps,2022.2.5,Win32,60.01680471,611e96285b618d1865f67621,64aea9d0f615b6559c281482,64beceff7cf51bff43b189b1,right,-1,0.3,0.4357,11,-0.000482935,0.7431,,,,,,266,0,266,0,1,,,,,
,,447604,001,2023-07-24_21h22.26.144,arm3_eps,2022.2.5,Win32,60.01680471,611e96285b618d1865f67621,64aea9d0f615b6559c281482,64beceff7cf51bff43b189b1,right,-1,0.3,0.4357,11,0.041229468,0.2157,,,,,,267,0,267,0,1,,,,,
,,447604,001,2023-07-24_21h22.26.144,arm3_eps,2022.2.5,Win32,60.01680471,611e96285b618d1865f67621,64aea9d0f615b6559c281482,64beceff7cf51bff43b189b1,right,-1,0.3,0.4357,11,0.037724303,0.2373,,,,,,268,0,268,0,1,,,,,
,,447604,001,2023-07-24_21h22.26.144,arm3_eps,2022.2.5,Win32,60.01680471,611e96285b618d1865f67621,64aea9d0f615b6559c281482,64beceff7cf51bff43b189b1,right,-1,0.3,0.4357,11,0.035907039,0.309,,,,,,269,0,269,0,1,,,,,
,,447604,001,2023-07-24_21h22.26.144,arm3_eps,2022.2.5,Win32,60.01680471,611e96285b618d1865f67621,64aea9d0f615b6559c281482,64beceff7cf51bff43b189b1,right,-1,0.3,0.4357,11,0.002050896,0.1977,,,,,,270,0,270,0,1,,,,,
,,447604,001,2023-07-24_21h22.26.144,arm3_eps,2022.2.5,Win32,60.01680471,611e96285b618d1865f67621,64aea9d0f615b6559c281482,64beceff7cf51bff43b189b1,right,-1,0.3,0.4357,11,-0.002078055,0.2802,,,,,,271,0,271,0,1,,,,,
,,447604,001,2023-07-24_21h22.26.144,arm3_eps,2022.2.5,Win32,60.01680471,611e96285b618d1865f67621,64aea9d0f615b6559c281482,64beceff7cf51bff43b189b1,right,-1,0.3,0.4357,11,-0.032458628,0.2214,,,,,,272,0,272,0,1,,,,,
,,447604,001,2023-07-24_21h22.26.144,arm3_eps,2022.2.5,Win32,60.01680471,611e96285b618d1865f67621,64aea9d0f615b6559c281482,64beceff7cf51bff43b189b1,right,-1,0.3,0.4357,11,-0.014694583,0.2503,,,,,,273,0,273,0,1,,,,,
,,447604,001,2023-07-24_21h22.26.144,arm3_eps,2022.2.5,Win32,60.01680471,611e96285b618d1865f67621,64aea9d0f615b6559c281482,64beceff7cf51bff43b189b1,right,-1,0.3,0.4357,11,0.006346784,0.2661,,,,,,274,0,274,0,1,,,,,
,,447604,001,2023-07-24_21h22.26.144,arm3_eps,2022.2.5,Win32,60.01680471,611e96285b618d1865f67621,64aea9d0f615b6559c281482,64beceff7cf51bff43b189b1,right,-1,0.3,0.4357,11,0.0085066,0.2891,,,,,,275,0,275,0,1,,,,,
,,447604,001,2023-07-24_21h22.26.144,arm3_eps,2022.2.5,Win32,60.01680471,611e96285b618d1865f67621,64aea9d0f615b6559c281482,64beceff7cf51bff43b189b1,right,-1,0.3,0.4357,11,0.02040438,0.3352,,,,,,276,0,276,0,1,,,,,
,,447604,001,2023-07-24_21h22.26.144,arm3_eps,2022.2.5,Win32,60.01680471,611e96285b618d1865f67621,64aea9d0f615b6559c281482,64beceff7cf51bff43b189b1,right,-1,0.3,0.4357,11,0.010783779,0.7786,,,,,,277,0,277,0,1,,,,,
,,447604,001,2023-07-24_21h22.26.144,arm3_eps,2022.2.5,Win32,60.01680471,611e96285b618d1865f67621,64aea9d0f615b6559c281482,64beceff7cf51bff43b189b1,up,-1,0.3,0.4357,11,0,0.6593,,,,,,278,0,278,0,1,,,,,
,,447604,001,2023-07-24_21h22.26.144,arm3_eps,2022.2.5,Win32,60.01680471,611e96285b618d1865f67621,64aea9d0f615b6559c281482,64beceff7cf51bff43b189b1,right,-1,0.3,0.4357,11,0.007753861,0.9728,,,,,,279,0,279,0,1,,,,,
,,447604,001,2023-07-24_21h22.26.144,arm3_eps,2022.2.5,Win32,60.01680471,611e96285b618d1865f67621,64aea9d0f615b6559c281482,64beceff7cf51bff43b189b1,right,-1,0.3,0.4357,11,0.023893323,0.229,,,,,,280,0,280,0,1,,,,,
,,447604,001,2023-07-24_21h22.26.144,arm3_eps,2022.2.5,Win32,60.01680471,611e96285b618d1865f67621,64aea9d0f615b6559c281482,64beceff7cf51bff43b189b1,right,-1,0.3,0.4357,11,0.034448169,0.3017,,,,,,281,0,281,0,1,,,,,
,,447604,001,2023-07-24_21h22.26.144,arm3_eps,2022.2.5,Win32,60.01680471,611e96285b618d1865f67621,64aea9d0f615b6559c281482,64beceff7cf51bff43b189b1,right,-1,0.3,0.4357,11,0.016647178,0.2777,,,,,,282,0,282,0,1,,,,,
,,447604,001,2023-07-24_21h22.26.144,arm3_eps,2022.2.5,Win32,60.01680471,611e96285b618d1865f67621,64aea9d0f615b6559c281482,64beceff7cf51bff43b189b1,right,-1,0.3,0.4357,11,-0.00245395,0.2639,,,,,,283,0,283,0,1,,,,,
,,447604,001,2023-07-24_21h22.26.144,arm3_eps,2022.2.5,Win32,60.01680471,611e96285b618d1865f67621,64aea9d0f615b6559c281482,64beceff7cf51bff43b189b1,right,-1,0.3,0.4357,11,-0.054914263,0.2892,,,,,,284,0,284,0,1,,,,,
,,447604,001,2023-07-24_21h22.26.144,arm3_eps,2022.2.5,Win32,60.01680471,611e96285b618d1865f67621,64aea9d0f615b6559c281482,64beceff7cf51bff43b189b1,right,-1,0.3,0.4357,11,-0.073595812,0.2495,,,,,,285,0,285,0,1,,,,,
,,447604,001,2023-07-24_21h22.26.144,arm3_eps,2022.2.5,Win32,60.01680471,611e96285b618d1865f67621,64aea9d0f615b6559c281482,64beceff7cf51bff43b189b1,right,-1,0.3,0.4357,11,-0.09652482,0.248,,,,,,286,0,286,0,1,,,,,
,,447604,001,2023-07-24_21h22.26.144,arm3_eps,2022.2.5,Win32,60.01680471,611e96285b618d1865f67621,64aea9d0f615b6559c281482,64beceff7cf51bff43b189b1,right,-1,0.3,0.4357,11,-0.078827279,0.5871,,,,,,287,0,287,0,1,,,,,
,,447604,001,2023-07-24_21h22.26.144,arm3_eps,2022.2.5,Win32,60.01680471,611e96285b618d1865f67621,64aea9d0f615b6559c281482,64beceff7cf51bff43b189b1,down,-1,0.3,0.4357,11,0,0.5679,,,,,,288,0,288,0,1,,,,,
,,447604,001,2023-07-24_21h22.26.144,arm3_eps,2022.2.5,Win32,60.01680471,611e96285b618d1865f67621,64aea9d0f615b6559c281482,64beceff7cf51bff43b189b1,right,-1,0.3,0.4357,11,-0.035147731,0.7521,,,,,,289,0,289,0,1,,,,,
,,447604,001,2023-07-24_21h22.26.144,arm3_eps,2022.2.5,Win32,60.01680471,611e96285b618d1865f67621,64aea9d0f615b6559c281482,64beceff7cf51bff43b189b1,right,-1,0.3,0.4357,11,-0.070029283,0.2195,,,,,,290,0,290,0,1,,,,,
,,447604,001,2023-07-24_21h22.26.144,arm3_eps,2022.2.5,Win32,60.01680471,611e96285b618d1865f67621,64aea9d0f615b6559c281482,64beceff7cf51bff43b189b1,right,-1,0.3,0.4357,11,-0.074783607,0.3017,,,,,,291,0,291,0,1,,,,,
,,447604,001,2023-07-24_21h22.26.144,arm3_eps,2022.2.5,Win32,60.01680471,611e96285b618d1865f67621,64aea9d0f615b6559c281482,64beceff7cf51bff43b189b1,right,-1,0.3,0.4357,11,-0.083313189,0.2756,,,,,,292,0,292,0,1,,,,,
,,447604,001,2023-07-24_21h22.26.144,arm3_eps,2022.2.5,Win32,60.01680471,611e96285b618d1865f67621,64aea9d0f615b6559c281482,64beceff7cf51bff43b189b1,right,-1,0.3,0.4357,11,-0.113574721,0.2676,,,,,,293,0,293,0,1,,,,,
,,447604,001,2023-07-24_21h22.26.144,arm3_eps,2022.2.5,Win32,60.01680471,611e96285b618d1865f67621,64aea9d0f615b6559c281482,64beceff7cf51bff43b189b1,right,-1,0.3,0.4357,11,-0.118157288,0.256,,,,,,294,0,294,0,1,,,,,
,,447604,001,2023-07-24_21h22.26.144,arm3_eps,2022.2.5,Win32,60.01680471,611e96285b618d1865f67621,64aea9d0f615b6559c281482,64beceff7cf51bff43b189b1,down,1,0.3,0.4357,12,0,0.3596,,,,,,295,0,295,0,1,,,,,
,,447604,001,2023-07-24_21h22.26.144,arm3_eps,2022.2.5,Win32,60.01680471,611e96285b618d1865f67621,64aea9d0f615b6559c281482,64beceff7cf51bff43b189b1,right,1,0.3,0.4357,12,0.043783732,0.8856,,,,,,296,0,296,0,1,,,,,
,,447604,001,2023-07-24_21h22.26.144,arm3_eps,2022.2.5,Win32,60.01680471,611e96285b618d1865f67621,64aea9d0f615b6559c281482,64beceff7cf51bff43b189b1,right,1,0.3,0.4357,12,0.036980704,0.2511,,,,,,297,0,297,0,1,,,,,
,,447604,001,2023-07-24_21h22.26.144,arm3_eps,2022.2.5,Win32,60.01680471,611e96285b618d1865f67621,64aea9d0f615b6559c281482,64beceff7cf51bff43b189b1,right,1,0.3,0.4357,12,0.01010654,0.175,,,,,,298,0,298,0,1,,,,,
,,447604,001,2023-07-24_21h22.26.144,arm3_eps,2022.2.5,Win32,60.01680471,611e96285b618d1865f67621,64aea9d0f615b6559c281482,64beceff7cf51bff43b189b1,right,1,0.3,0.4357,12,0.001480316,0.2344,,,,,,299,0,299,0,1,,,,,
,,447604,001,2023-07-24_21h22.26.144,arm3_eps,2022.2.5,Win32,60.01680471,611e96285b618d1865f67621,64aea9d0f615b6559c281482,64beceff7cf51bff43b189b1,right,1,0.3,0.4357,12,0.000435742,0.3209,,,,,,300,0,300,0,1,,,,,
,,447604,001,2023-07-24_21h22.26.144,arm3_eps,2022.2.5,Win32,60.01680471,611e96285b618d1865f67621,64aea9d0f615b6559c281482,64beceff7cf51bff43b189b1,right,1,0.3,0.4357,12,0.014565626,0.2739,,,,,,301,0,301,0,1,,,,,
,,447604,001,2023-07-24_21h22.26.144,arm3_eps,2022.2.5,Win32,60.01680471,611e96285b618d1865f67621,64aea9d0f615b6559c281482,64beceff7cf51bff43b189b1,right,1,0.3,0.4357,12,0.026178798,0.2351,,,,,,302,0,302,0,1,,,,,
,,447604,001,2023-07-24_21h22.26.144,arm3_eps,2022.2.5,Win32,60.01680471,611e96285b618d1865f67621,64aea9d0f615b6559c281482,64beceff7cf51bff43b189b1,right,1,0.3,0.4357,12,0.065567036,0.2669,,,,,,303,0,303,0,1,,,,,
,,447604,001,2023-07-24_21h22.26.144,arm3_eps,2022.2.5,Win32,60.01680471,611e96285b618d1865f67621,64aea9d0f615b6559c281482,64beceff7cf51bff43b189b1,right,1,0.3,0.4357,12,0.105517733,0.283,,,,,,304,0,304,0,1,,,,,
,,447604,001,2023-07-24_21h22.26.144,arm3_eps,2022.2.5,Win32,60.01680471,611e96285b618d1865f67621,64aea9d0f615b6559c281482,64beceff7cf51bff43b189b1,up,1,0.3,0.4357,12,0,0.3361,,,,,,305,0,305,0,1,,,,,
,,447604,001,2023-07-24_21h22.26.144,arm3_eps,2022.2.5,Win32,60.01680471,611e96285b618d1865f67621,64aea9d0f615b6559c281482,64beceff7cf51bff43b189b1,right,1,0.3,0.4357,12,0.007401725,0.9353,,,,,,306,0,306,0,1,,,,,
,,447604,001,2023-07-24_21h22.26.144,arm3_eps,2022.2.5,Win32,60.01680471,611e96285b618d1865f67621,64aea9d0f615b6559c281482,64beceff7cf51bff43b189b1,right,1,0.3,0.4357,12,0.02000658,0.2669,,,,,,307,0,307,0,1,,,,,
,,447604,001,2023-07-24_21h22.26.144,arm3_eps,2022.2.5,Win32,60.01680471,611e96285b618d1865f67621,64aea9d0f615b6559c281482,64beceff7cf51bff43b189b1,right,1,0.3,0.4357,12,0.026400567,0.208,,,,,,308,0,308,0,1,,,,,
,,447604,001,2023-07-24_21h22.26.144,arm3_eps,2022.2.5,Win32,60.01680471,611e96285b618d1865f67621,64aea9d0f615b6559c281482,64beceff7cf51bff43b189b1,right,1,0.3,0.4357,12,-0.007507359,0.2855,,,,,,309,0,309,0,1,,,,,
,,447604,001,2023-07-24_21h22.26.144,arm3_eps,2022.2.5,Win32,60.01680471,611e96285b618d1865f67621,64aea9d0f615b6559c281482,64beceff7cf51bff43b189b1,right,1,0.3,0.4357,12,-0.002434852,0.3156,,,,,,310,0,310,0,1,,,,,
,,447604,001,2023-07-24_21h22.26.144,arm3_eps,2022.2.5,Win32,60.01680471,611e96285b618d1865f67621,64aea9d0f615b6559c281482,64beceff7cf51bff43b189b1,right,1,0.3,0.4357,12,-0.018013255,0.2891,,,,,,311,0,311,0,1,,,,,
,,447604,001,2023-07-24_21h22.26.144,arm3_eps,2022.2.5,Win32,60.01680471,611e96285b618d1865f67621,64aea9d0f615b6559c281482,64beceff7cf51bff43b189b1,right,1,0.3,0.4357,12,-0.01088079,0.2061,,,,,,312,0,312,0,1,,,,,
,,447604,001,2023-07-24_21h22.26.144,arm3_eps,2022.2.5,Win32,60.01680471,611e96285b618d1865f67621,64aea9d0f615b6559c281482,64beceff7cf51bff43b189b1,right,1,0.3,0.4357,12,-0.017369542,0.2861,,,,,,313,0,313,0,1,,,,,
,,447604,001,2023-07-24_21h22.26.144,arm3_eps,2022.2.5,Win32,60.01680471,611e96285b618d1865f67621,64aea9d0f615b6559c281482,64beceff7cf51bff43b189b1,right,1,0.3,0.4357,12,-0.01915109,0.167,,,,,,314,0,314,0,1,,,,,
,,447604,001,2023-07-24_21h22.26.144,arm3_eps,2022.2.5,Win32,60.01680471,611e96285b618d1865f67621,64aea9d0f615b6559c281482,64beceff7cf51bff43b189b1,right,1,0.3,0.4357,12,-0.004465517,0.2497,,,,,,315,0,315,0,1,,,,,
,,447604,001,2023-07-24_21h22.26.144,arm3_eps,2022.2.5,Win32,60.01680471,611e96285b618d1865f67621,64aea9d0f615b6559c281482,64beceff7cf51bff43b189b1,up,1,0.3,0.4357,12,0,0.7679,,,,,,316,0,316,0,1,,,,,
,,447604,001,2023-07-24_21h22.26.144,arm3_eps,2022.2.5,Win32,60.01680471,611e96285b618d1865f67621,64aea9d0f615b6559c281482,64beceff7cf51bff43b189b1,right,1,0.3,0.4357,12,0.043369109,0.6854,,,,,,317,0,317,0,1,,,,,
,,447604,001,2023-07-24_21h22.26.144,arm3_eps,2022.2.5,Win32,60.01680471,611e96285b618d1865f67621,64aea9d0f615b6559c281482,64beceff7cf51bff43b189b1,right,1,0.3,0.4357,12,0.048721098,0.2536,,,,,,318,0,318,0,1,,,,,
,,447604,001,2023-07-24_21h22.26.144,arm3_eps,2022.2.5,Win32,60.01680471,611e96285b618d1865f67621,64aea9d0f615b6559c281482,64beceff7cf51bff43b189b1,right,1,0.3,0.4357,12,0.055440962,0.266,,,,,,319,0,319,0,1,,,,,
,,447604,001,2023-07-24_21h22.26.144,arm3_eps,2022.2.5,Win32,60.01680471,611e96285b618d1865f67621,64aea9d0f615b6559c281482,64beceff7cf51bff43b189b1,right,1,0.3,0.4357,12,0.081470771,0.2499,,,,,,320,0,320,0,1,,,,,
,,447604,001,2023-07-24_21h22.26.144,arm3_eps,2022.2.5,Win32,60.01680471,611e96285b618d1865f67621,64aea9d0f615b6559c281482,64beceff7cf51bff43b189b1,right,1,0.3,0.4357,12,0.079295754,0.2097,,,,,,321,0,321,0,1,,,,,
,,447604,001,2023-07-24_21h22.26.144,arm3_eps,2022.2.5,Win32,60.01680471,611e96285b618d1865f67621,64aea9d0f615b6559c281482,64beceff7cf51bff43b189b1,right,1,0.3,0.4357,12,0.077165858,0.2843,,,,,,322,0,322,0,1,,,,,
,,447604,001,2023-07-24_21h22.26.144,arm3_eps,2022.2.5,Win32,60.01680471,611e96285b618d1865f67621,64aea9d0f615b6559c281482,64beceff7cf51bff43b189b1,right,1,0.3,0.4357,12,0.081387431,0.3008,,,,,,323,0,323,0,1,,,,,
,,447604,001,2023-07-24_21h22.26.144,arm3_eps,2022.2.5,Win32,60.01680471,611e96285b618d1865f67621,64aea9d0f615b6559c281482,64beceff7cf51bff43b189b1,up,-1,0.3,0.4357,12,0,0.302,,,,,,324,0,324,0,1,,,,,
,,447604,001,2023-07-24_21h22.26.144,arm3_eps,2022.2.5,Win32,60.01680471,611e96285b618d1865f67621,64aea9d0f615b6559c281482,64beceff7cf51bff43b189b1,right,-1,0.3,0.4357,12,-0.025902431,0.7006,,,,,,325,0,325,0,1,,,,,
,,447604,001,2023-07-24_21h22.26.144,arm3_eps,2022.2.5,Win32,60.01680471,611e96285b618d1865f67621,64aea9d0f615b6559c281482,64beceff7cf51bff43b189b1,right,-1,0.3,0.4357,12,-0.055671839,0.2428,,,,,,326,0,326,0,1,,,,,
,,447604,001,2023-07-24_21h22.26.144,arm3_eps,2022.2.5,Win32,60.01680471,611e96285b618d1865f67621,64aea9d0f615b6559c281482,64beceff7cf51bff43b189b1,right,-1,0.3,0.4357,12,-0.060633057,0.2325,,,,,,327,0,327,0,1,,,,,
,,447604,001,2023-07-24_21h22.26.144,arm3_eps,2022.2.5,Win32,60.01680471,611e96285b618d1865f67621,64aea9d0f615b6559c281482,64beceff7cf51bff43b189b1,right,-1,0.3,0.4357,12,-0.075220757,0.2165,,,,,,328,0,328,0,1,,,,,
,,447604,001,2023-07-24_21h22.26.144,arm3_eps,2022.2.5,Win32,60.01680471,611e96285b618d1865f67621,64aea9d0f615b6559c281482,64beceff7cf51bff43b189b1,right,-1,0.3,0.4357,12,-0.088400793,0.2673,,,,,,329,0,329,0,1,,,,,
,,447604,001,2023-07-24_21h22.26.144,arm3_eps,2022.2.5,Win32,60.01680471,611e96285b618d1865f67621,64aea9d0f615b6559c281482,64beceff7cf51bff43b189b1,right,-1,0.3,0.4357,12,-0.12139903,0.3178,,,,,,330,0,330,0,1,,,,,
,,447604,001,2023-07-24_21h22.26.144,arm3_eps,2022.2.5,Win32,60.01680471,611e96285b618d1865f67621,64aea9d0f615b6559c281482,64beceff7cf51bff43b189b1,right,-1,0.3,0.4357,12,-0.138710992,0.26,,,,,,331,0,331,0,1,,,,,
,,447604,001,2023-07-24_21h22.26.144,arm3_eps,2022.2.5,Win32,60.01680471,611e96285b618d1865f67621,64aea9d0f615b6559c281482,64beceff7cf51bff43b189b1,down,-1,0.3,0.4357,12,0,0.3402,,,,,,332,0,332,0,1,,,,,
,,447604,001,2023-07-24_21h22.26.144,arm3_eps,2022.2.5,Win32,60.01680471,611e96285b618d1865f67621,64aea9d0f615b6559c281482,64beceff7cf51bff43b189b1,right,-1,0.3,0.4357,12,-0.000661943,0.7335,,,,,,333,0,333,0,1,,,,,
,,447604,001,2023-07-24_21h22.26.144,arm3_eps,2022.2.5,Win32,60.01680471,611e96285b618d1865f67621,64aea9d0f615b6559c281482,64beceff7cf51bff43b189b1,right,-1,0.3,0.4357,12,-0.039709366,0.2363,,,,,,334,0,334,0,1,,,,,
,,447604,001,2023-07-24_21h22.26.144,arm3_eps,2022.2.5,Win32,60.01680471,611e96285b618d1865f67621,64aea9d0f615b6559c281482,64beceff7cf51bff43b189b1,right,-1,0.3,0.4357,12,-0.053999607,0.2518,,,,,,335,0,335,0,1,,,,,
,,447604,001,2023-07-24_21h22.26.144,arm3_eps,2022.2.5,Win32,60.01680471,611e96285b618d1865f67621,64aea9d0f615b6559c281482,64beceff7cf51bff43b189b1,right,-1,0.3,0.4357,12,-0.07117183,0.308,,,,,,336,0,336,0,1,,,,,
,,447604,001,2023-07-24_21h22.26.144,arm3_eps,2022.2.5,Win32,60.01680471,611e96285b618d1865f67621,64aea9d0f615b6559c281482,64beceff7cf51bff43b189b1,right,-1,0.3,0.4357,12,-0.087715137,0.2921,,,,,,337,0,337,0,1,,,,,
,,447604,001,2023-07-24_21h22.26.144,arm3_eps,2022.2.5,Win32,60.01680471,611e96285b618d1865f67621,64aea9d0f615b6559c281482,64beceff7cf51bff43b189b1,right,-1,0.3,0.4357,12,-0.112217833,0.2415,,,,,,338,0,338,0,1,,,,,
,,447604,001,2023-07-24_21h22.26.144,arm3_eps,2022.2.5,Win32,60.01680471,611e96285b618d1865f67621,64aea9d0f615b6559c281482,64beceff7cf51bff43b189b1,down,-1,0.3,0.4357,12,0,0.4067,,,,,,339,0,339,0,1,,,,,
,,447604,001,2023-07-24_21h22.26.144,arm3_eps,2022.2.5,Win32,60.01680471,611e96285b618d1865f67621,64aea9d0f615b6559c281482,64beceff7cf51bff43b189b1,right,-1,0.3,0.4357,12,0.006981238,0.7523,,,,,,340,0,340,0,1,,,,,
,,447604,001,2023-07-24_21h22.26.144,arm3_eps,2022.2.5,Win32,60.01680471,611e96285b618d1865f67621,64aea9d0f615b6559c281482,64beceff7cf51bff43b189b1,right,-1,0.3,0.4357,12,0.000519385,0.2668,,,,,,341,0,341,0,1,,,,,
,,447604,001,2023-07-24_21h22.26.144,arm3_eps,2022.2.5,Win32,60.01680471,611e96285b618d1865f67621,64aea9d0f615b6559c281482,64beceff7cf51bff43b189b1,right,-1,0.3,0.4357,12,-0.032071452,0.217,,,,,,342,0,342,0,1,,,,,
,,447604,001,2023-07-24_21h22.26.144,arm3_eps,2022.2.5,Win32,60.01680471,611e96285b618d1865f67621,64aea9d0f615b6559c281482,64beceff7cf51bff43b189b1,right,-1,0.3,0.4357,12,-0.057699874,0.2436,,,,,,343,0,343,0,1,,,,,
,,447604,001,2023-07-24_21h22.26.144,arm3_eps,2022.2.5,Win32,60.01680471,611e96285b618d1865f67621,64aea9d0f615b6559c281482,64beceff7cf51bff43b189b1,right,-1,0.3,0.4357,12,-0.077139008,0.2806,,,,,,344,0,344,0,1,,,,,
,,447604,001,2023-07-24_21h22.26.144,arm3_eps,2022.2.5,Win32,60.01680471,611e96285b618d1865f67621,64aea9d0f615b6559c281482,64beceff7cf51bff43b189b1,right,-1,0.3,0.4357,12,-0.117328973,0.2583,,,,,,345,0,345,0,1,,,,,
,,447604,001,2023-07-24_21h22.26.144,arm3_eps,2022.2.5,Win32,60.01680471,611e96285b618d1865f67621,64aea9d0f615b6559c281482,64beceff7cf51bff43b189b1,right,-1,0.3,0.4357,12,-0.132737606,0.3382,,,,,,346,0,346,0,1,,,,,
,,447604,001,2023-07-24_21h22.26.144,arm3_eps,2022.2.5,Win32,60.01680471,611e96285b618d1865f67621,64aea9d0f615b6559c281482,64beceff7cf51bff43b189b1,right,-1,0.3,0.4357,12,-0.126588064,0.4891,,,,,,347,0,347,0,1,,,,,
,,447604,001,2023-07-24_21h22.26.144,arm3_eps,2022.2.5,Win32,60.01680471,611e96285b618d1865f67621,64aea9d0f615b6559c281482,64beceff7cf51bff43b189b1,down,1,0.3,0.4357,13,0,0.5015,,,,,,348,0,348,0,1,,,,,
,,447604,001,2023-07-24_21h22.26.144,arm3_eps,2022.2.5,Win32,60.01680471,611e96285b618d1865f67621,64aea9d0f615b6559c281482,64beceff7cf51bff43b189b1,right,1,0.3,0.4357,13,0.003784848,1.1004,,,,,,349,0,349,0,1,,,,,
,,447604,001,2023-07-24_21h22.26.144,arm3_eps,2022.2.5,Win32,60.01680471,611e96285b618d1865f67621,64aea9d0f615b6559c281482,64beceff7cf51bff43b189b1,right,1,0.3,0.4357,13,0.002456515,0.2688,,,,,,350,0,350,0,1,,,,,
,,447604,001,2023-07-24_21h22.26.144,arm3_eps,2022.2.5,Win32,60.01680471,611e96285b618d1865f67621,64aea9d0f615b6559c281482,64beceff7cf51bff43b189b1,right,1,0.3,0.4357,13,0.011004781,0.2322,,,,,,351,0,351,0,1,,,,,
,,447604,001,2023-07-24_21h22.26.144,arm3_eps,2022.2.5,Win32,60.01680471,611e96285b618d1865f67621,64aea9d0f615b6559c281482,64beceff7cf51bff43b189b1,right,1,0.3,0.4357,13,-0.009848635,0.2728,,,,,,352,0,352,0,1,,,,,
,,447604,001,2023-07-24_21h22.26.144,arm3_eps,2022.2.5,Win32,60.01680471,611e96285b618d1865f67621,64aea9d0f615b6559c281482,64beceff7cf51bff43b189b1,right,1,0.3,0.4357,13,0.001238477,0.277,,,,,,353,0,353,0,1,,,,,
,,447604,001,2023-07-24_21h22.26.144,arm3_eps,2022.2.5,Win32,60.01680471,611e96285b618d1865f67621,64aea9d0f615b6559c281482,64beceff7cf51bff43b189b1,right,1,0.3,0.4357,13,-0.020983125,0.2526,,,,,,354,0,354,0,1,,,,,
,,447604,001,2023-07-24_21h22.26.144,arm3_eps,2022.2.5,Win32,60.01680471,611e96285b618d1865f67621,64aea9d0f615b6559c281482,64beceff7cf51bff43b189b1,right,1,0.3,0.4357,13,-0.000236512,0.2518,,,,,,355,0,355,0,1,,,,,
,,447604,001,2023-07-24_21h22.26.144,arm3_eps,2022.2.5,Win32,60.01680471,611e96285b618d1865f67621,64aea9d0f615b6559c281482,64beceff7cf51bff43b189b1,right,1,0.3,0.4357,13,-0.005058677,0.2517,,,,,,356,0,356,0,1,,,,,
,,447604,001,2023-07-24_21h22.26.144,arm3_eps,2022.2.5,Win32,60.01680471,611e96285b618d1865f67621,64aea9d0f615b6559c281482,64beceff7cf51bff43b189b1,right,1,0.3,0.4357,13,-0.027395414,0.2683,,,,,,357,0,357,0,1,,,,,
,,447604,001,2023-07-24_21h22.26.144,arm3_eps,2022.2.5,Win32,60.01680471,611e96285b618d1865f67621,64aea9d0f615b6559c281482,64beceff7cf51bff43b189b1,right,1,0.3,0.4357,13,0.003999321,0.3891,,,,,,358,0,358,0,1,,,,,
,,447604,001,2023-07-24_21h22.26.144,arm3_eps,2022.2.5,Win32,60.01680471,611e96285b618d1865f67621,64aea9d0f615b6559c281482,64beceff7cf51bff43b189b1,right,1,0.3,0.4357,13,0.005159301,0.2735,,,,,,359,0,359,0,1,,,,,
,,447604,001,2023-07-24_21h22.26.144,arm3_eps,2022.2.5,Win32,60.01680471,611e96285b618d1865f67621,64aea9d0f615b6559c281482,64beceff7cf51bff43b189b1,up,-1,0.3,0.4357,14,0,0.6016,,,,,,360,0,360,0,1,,,,,
,,447604,001,2023-07-24_21h22.26.144,arm3_eps,2022.2.5,Win32,60.01680471,611e96285b618d1865f67621,64aea9d0f615b6559c281482,64beceff7cf51bff43b189b1,right,-1,0.3,0.4357,14,-0.015700642,0.8625,,,,,,361,0,361,0,1,,,,,
,,447604,001,2023-07-24_21h22.26.144,arm3_eps,2022.2.5,Win32,60.01680471,611e96285b618d1865f67621,64aea9d0f615b6559c281482,64beceff7cf51bff43b189b1,right,-1,0.3,0.4357,14,-0.011548761,0.2524,,,,,,362,0,362,0,1,,,,,
,,447604,001,2023-07-24_21h22.26.144,arm3_eps,2022.2.5,Win32,60.01680471,611e96285b618d1865f67621,64aea9d0f615b6559c281482,64beceff7cf51bff43b189b1,right,-1,0.3,0.4357,14,-0.029335877,0.256,,,,,,363,0,363,0,1,,,,,
,,447604,001,2023-07-24_21h22.26.144,arm3_eps,2022.2.5,Win32,60.01680471,611e96285b618d1865f67621,64aea9d0f615b6559c281482,64beceff7cf51bff43b189b1,right,-1,0.3,0.4357,14,-0.034087488,0.2995,,,,,,364,0,364,0,1,,,,,
,,447604,001,2023-07-24_21h22.26.144,arm3_eps,2022.2.5,Win32,60.01680471,611e96285b618d1865f67621,64aea9d0f615b6559c281482,64beceff7cf51bff43b189b1,right,-1,0.3,0.4357,14,-0.037056788,0.5309,,,,,,365,0,365,0,1,,,,,
,,447604,001,2023-07-24_21h22.26.144,arm3_eps,2022.2.5,Win32,60.01680471,611e96285b618d1865f67621,64aea9d0f615b6559c281482,64beceff7cf51bff43b189b1,right,-1,0.3,0.4357,14,-0.027530767,0.3533,,,,,,366,0,366,0,1,,,,,
,,447604,001,2023-07-24_21h22.26.144,arm3_eps,2022.2.5,Win32,60.01680471,611e96285b618d1865f67621,64aea9d0f615b6559c281482,64beceff7cf51bff43b189b1,right,-1,0.3,0.4357,14,-0.026212914,0.4174,,,,,,367,0,367,0,1,,,,,
,,447604,001,2023-07-24_21h22.26.144,arm3_eps,2022.2.5,Win32,60.01680471,611e96285b618d1865f67621,64aea9d0f615b6559c281482,64beceff7cf51bff43b189b1,right,-1,0.3,0.4357,14,-0.042262862,0.6529,,,,,,368,0,368,0,1,,,,,
,,447604,001,2023-07-24_21h22.26.144,arm3_eps,2022.2.5,Win32,60.01680471,611e96285b618d1865f67621,64aea9d0f615b6559c281482,64beceff7cf51bff43b189b1,down,-1,0.3,0.4357,14,-0.042262862,0.4823,,,,,,369,0,369,0,1,,,,,
,,447604,001,2023-07-24_21h22.26.144,arm3_eps,2022.2.5,Win32,60.01680471,611e96285b618d1865f67621,64aea9d0f615b6559c281482,64beceff7cf51bff43b189b1,,,,,,,,,,,,,,,,,,0,0,0,0,1
space,7.0661,447604,001,2023-07-24_21h22.26.144,arm3_eps,2022.2.5,Win32,60.01680471,611e96285b618d1865f67621,64aea9d0f615b6559c281482,64beceff7cf51bff43b189b1,right,-1,0.3,0.05,14,-0.012608628,1.9813,,,,,,0,0,0,0,1,,,,,
,,447604,001,2023-07-24_21h22.26.144,arm3_eps,2022.2.5,Win32,60.01680471,611e96285b618d1865f67621,64aea9d0f615b6559c281482,64beceff7cf51bff43b189b1,right,-1,0.3,0.05,14,-0.002848779,0.3664,,,,,,1,0,1,0,1,,,,,
,,447604,001,2023-07-24_21h22.26.144,arm3_eps,2022.2.5,Win32,60.01680471,611e96285b618d1865f67621,64aea9d0f615b6559c281482,64beceff7cf51bff43b189b1,right,-1,0.3,0.05,14,0.017215804,0.5169,,,,,,2,0,2,0,1,,,,,
,,447604,001,2023-07-24_21h22.26.144,arm3_eps,2022.2.5,Win32,60.01680471,611e96285b618d1865f67621,64aea9d0f615b6559c281482,64beceff7cf51bff43b189b1,right,-1,0.3,0.05,14,0.019483371,0.2799,,,,,,3,0,3,0,1,,,,,
,,447604,001,2023-07-24_21h22.26.144,arm3_eps,2022.2.5,Win32,60.01680471,611e96285b618d1865f67621,64aea9d0f615b6559c281482,64beceff7cf51bff43b189b1,right,-1,0.3,0.05,14,0.012794285,0.4916,,,,,,4,0,4,0,1,,,,,
,,447604,001,2023-07-24_21h22.26.144,arm3_eps,2022.2.5,Win32,60.01680471,611e96285b618d1865f67621,64aea9d0f615b6559c281482,64beceff7cf51bff43b189b1,down,-1,0.3,0.05,14,0,1.1736,,,,,,5,0,5,0,1,,,,,
,,447604,001,2023-07-24_21h22.26.144,arm3_eps,2022.2.5,Win32,60.01680471,611e96285b618d1865f67621,64aea9d0f615b6559c281482,64beceff7cf51bff43b189b1,right,-1,0.3,0.05,14,-0.02272465,0.8585,,,,,,6,0,6,0,1,,,,,
,,447604,001,2023-07-24_21h22.26.144,arm3_eps,2022.2.5,Win32,60.01680471,611e96285b618d1865f67621,64aea9d0f615b6559c281482,64beceff7cf51bff43b189b1,right,-1,0.3,0.05,14,-0.051685537,0.2724,,,,,,7,0,7,0,1,,,,,
,,447604,001,2023-07-24_21h22.26.144,arm3_eps,2022.2.5,Win32,60.01680471,611e96285b618d1865f67621,64aea9d0f615b6559c281482,64beceff7cf51bff43b189b1,right,-1,0.3,0.05,14,-0.070169283,0.2756,,,,,,8,0,8,0,1,,,,,
,,447604,001,2023-07-24_21h22.26.144,arm3_eps,2022.2.5,Win32,60.01680471,611e96285b618d1865f67621,64aea9d0f615b6559c281482,64beceff7cf51bff43b189b1,right,-1,0.3,0.05,14,-0.088010176,0.3097,,,,,,9,0,9,0,1,,,,,
,,447604,001,2023-07-24_21h22.26.144,arm3_eps,2022.2.5,Win32,60.01680471,611e96285b618d1865f67621,64aea9d0f615b6559c281482,64beceff7cf51bff43b189b1,down,-1,0.3,0.05,15,0,0.4622,,,,,,10,0,10,0,1,,,,,
,,447604,001,2023-07-24_21h22.26.144,arm3_eps,2022.2.5,Win32,60.01680471,611e96285b618d1865f67621,64aea9d0f615b6559c281482,64beceff7cf51bff43b189b1,right,-1,0.3,0.05,15,-0.014462603,0.8466,,,,,,11,0,11,0,1,,,,,
,,447604,001,2023-07-24_21h22.26.144,arm3_eps,2022.2.5,Win32,60.01680471,611e96285b618d1865f67621,64aea9d0f615b6559c281482,64beceff7cf51bff43b189b1,right,-1,0.3,0.05,15,-0.05766992,0.281,,,,,,12,0,12,0,1,,,,,
,,447604,001,2023-07-24_21h22.26.144,arm3_eps,2022.2.5,Win32,60.01680471,611e96285b618d1865f67621,64aea9d0f615b6559c281482,64beceff7cf51bff43b189b1,right,-1,0.3,0.05,15,-0.061643122,0.3102,,,,,,13,0,13,0,1,,,,,
,,447604,001,2023-07-24_21h22.26.144,arm3_eps,2022.2.5,Win32,60.01680471,611e96285b618d1865f67621,64aea9d0f615b6559c281482,64beceff7cf51bff43b189b1,down,-1,0.3,0.05,15,0,0.2483,,,,,,14,0,14,0,1,,,,,
,,447604,001,2023-07-24_21h22.26.144,arm3_eps,2022.2.5,Win32,60.01680471,611e96285b618d1865f67621,64aea9d0f615b6559c281482,64beceff7cf51bff43b189b1,right,-1,0.3,0.05,15,-0.027950328,1.0193,,,,,,15,0,15,0,1,,,,,
,,447604,001,2023-07-24_21h22.26.144,arm3_eps,2022.2.5,Win32,60.01680471,611e96285b618d1865f67621,64aea9d0f615b6559c281482,64beceff7cf51bff43b189b1,right,-1,0.3,0.05,15,-0.053970567,0.2572,,,,,,16,0,16,0,1,,,,,
,,447604,001,2023-07-24_21h22.26.144,arm3_eps,2022.2.5,Win32,60.01680471,611e96285b618d1865f67621,64aea9d0f615b6559c281482,64beceff7cf51bff43b189b1,right,-1,0.3,0.05,15,-0.04796332,0.2961,,,,,,17,0,17,0,1,,,,,
,,447604,001,2023-07-24_21h22.26.144,arm3_eps,2022.2.5,Win32,60.01680471,611e96285b618d1865f67621,64aea9d0f615b6559c281482,64beceff7cf51bff43b189b1,right,-1,0.3,0.05,15,-0.047415932,0.2644,,,,,,18,0,18,0,1,,,,,
,,447604,001,2023-07-24_21h22.26.144,arm3_eps,2022.2.5,Win32,60.01680471,611e96285b618d1865f67621,64aea9d0f615b6559c281482,64beceff7cf51bff43b189b1,down,-1,0.3,0.05,16,0,0.5913,,,,,,19,0,19,0,1,,,,,
,,447604,001,2023-07-24_21h22.26.144,arm3_eps,2022.2.5,Win32,60.01680471,611e96285b618d1865f67621,64aea9d0f615b6559c281482,64beceff7cf51bff43b189b1,right,-1,0.3,0.05,16,-0.02347505,0.648,,,,,,20,0,20,0,1,,,,,
,,447604,001,2023-07-24_21h22.26.144,arm3_eps,2022.2.5,Win32,60.01680471,611e96285b618d1865f67621,64aea9d0f615b6559c281482,64beceff7cf51bff43b189b1,right,-1,0.3,0.05,16,-0.018113651,0.2411,,,,,,21,0,21,0,1,,,,,
,,447604,001,2023-07-24_21h22.26.144,arm3_eps,2022.2.5,Win32,60.01680471,611e96285b618d1865f67621,64aea9d0f615b6559c281482,64beceff7cf51bff43b189b1,right,-1,0.3,0.05,16,-0.00755558,0.3245,,,,,,22,0,22,0,1,,,,,
,,447604,001,2023-07-24_21h22.26.144,arm3_eps,2022.2.5,Win32,60.01680471,611e96285b618d1865f67621,64aea9d0f615b6559c281482,64beceff7cf51bff43b189b1,right,-1,0.3,0.05,16,-0.020297073,0.2423,,,,,,23,0,23,0,1,,,,,
,,447604,001,2023-07-24_21h22.26.144,arm3_eps,2022.2.5,Win32,60.01680471,611e96285b618d1865f67621,64aea9d0f615b6559c281482,64beceff7cf51bff43b189b1,right,-1,0.3,0.05,16,-0.026047964,0.2714,,,,,,24,0,24,0,1,,,,,
,,447604,001,2023-07-24_21h22.26.144,arm3_eps,2022.2.5,Win32,60.01680471,611e96285b618d1865f67621,64aea9d0f615b6559c281482,64beceff7cf51bff43b189b1,down,-1,0.3,0.05,17,0,0.3595,,,,,,25,0,25,0,1,,,,,
,,447604,001,2023-07-24_21h22.26.144,arm3_eps,2022.2.5,Win32,60.01680471,611e96285b618d1865f67621,64aea9d0f615b6559c281482,64beceff7cf51bff43b189b1,right,-1,0.3,0.05,17,-0.009468521,0.7432,,,,,,26,0,26,0,1,,,,,
,,447604,001,2023-07-24_21h22.26.144,arm3_eps,2022.2.5,Win32,60.01680471,611e96285b618d1865f67621,64aea9d0f615b6559c281482,64beceff7cf51bff43b189b1,right,-1,0.3,0.05,17,-0.01999675,0.2666,,,,,,27,0,27,0,1,,,,,
,,447604,001,2023-07-24_21h22.26.144,arm3_eps,2022.2.5,Win32,60.01680471,611e96285b618d1865f67621,64aea9d0f615b6559c281482,64beceff7cf51bff43b189b1,right,-1,0.3,0.05,17,-0.029172885,0.2274,,,,,,28,0,28,0,1,,,,,
,,447604,001,2023-07-24_21h22.26.144,arm3_eps,2022.2.5,Win32,60.01680471,611e96285b618d1865f67621,64aea9d0f615b6559c281482,64beceff7cf51bff43b189b1,right,-1,0.3,0.05,17,-0.044460808,0.251,,,,,,29,0,29,0,1,,,,,
,,447604,001,2023-07-24_21h22.26.144,arm3_eps,2022.2.5,Win32,60.01680471,611e96285b618d1865f67621,64aea9d0f615b6559c281482,64beceff7cf51bff43b189b1,down,-1,0.3,0.05,18,0,0.3452,,,,,,30,0,30,0,1,,,,,
,,447604,001,2023-07-24_21h22.26.144,arm3_eps,2022.2.5,Win32,60.01680471,611e96285b618d1865f67621,64aea9d0f615b6559c281482,64beceff7cf51bff43b189b1,right,-1,0.3,0.05,18,0.007407281,0.8151,,,,,,31,0,31,0,1,,,,,
,,447604,001,2023-07-24_21h22.26.144,arm3_eps,2022.2.5,Win32,60.01680471,611e96285b618d1865f67621,64aea9d0f615b6559c281482,64beceff7cf51bff43b189b1,right,-1,0.3,0.05,18,0.01433824,0.2846,,,,,,32,0,32,0,1,,,,,
,,447604,001,2023-07-24_21h22.26.144,arm3_eps,2022.2.5,Win32,60.01680471,611e96285b618d1865f67621,64aea9d0f615b6559c281482,64beceff7cf51bff43b189b1,right,-1,0.3,0.05,18,-0.018602574,0.1931,,,,,,33,0,33,0,1,,,,,
,,447604,001,2023-07-24_21h22.26.144,arm3_eps,2022.2.5,Win32,60.01680471,611e96285b618d1865f67621,64aea9d0f615b6559c281482,64beceff7cf51bff43b189b1,right,-1,0.3,0.05,18,-0.009347315,0.2617,,,,,,34,0,34,0,1,,,,,
,,447604,001,2023-07-24_21h22.26.144,arm3_eps,2022.2.5,Win32,60.01680471,611e96285b618d1865f67621,64aea9d0f615b6559c281482,64beceff7cf51bff43b189b1,right,-1,0.3,0.05,18,-0.022721964,0.2287,,,,,,35,0,35,0,1,,,,,
,,447604,001,2023-07-24_21h22.26.144,arm3_eps,2022.2.5,Win32,60.01680471,611e96285b618d1865f67621,64aea9d0f615b6559c281482,64beceff7cf51bff43b189b1,down,-1,0.3,0.05,18,0,0.4159,,,,,,36,0,36,0,1,,,,,
,,447604,001,2023-07-24_21h22.26.144,arm3_eps,2022.2.5,Win32,60.01680471,611e96285b618d1865f67621,64aea9d0f615b6559c281482,64beceff7cf51bff43b189b1,right,-1,0.3,0.05,18,-0.00044777,0.7516,,,,,,37,0,37,0,1,,,,,
,,447604,001,2023-07-24_21h22.26.144,arm3_eps,2022.2.5,Win32,60.01680471,611e96285b618d1865f67621,64aea9d0f615b6559c281482,64beceff7cf51bff43b189b1,right,-1,0.3,0.05,18,0.014370958,0.2204,,,,,,38,0,38,0,1,,,,,
,,447604,001,2023-07-24_21h22.26.144,arm3_eps,2022.2.5,Win32,60.01680471,611e96285b618d1865f67621,64aea9d0f615b6559c281482,64beceff7cf51bff43b189b1,right,-1,0.3,0.05,18,0.023329393,0.2823,,,,,,39,0,39,0,1,,,,,
