space_bar.keys,space_bar.rt,participant,session,date,expName,psychopyVersion,OS,frameRate,PROLIFIC_PID,STUDY_ID,SESSION_ID,resp.keys,state,q_prob,eps_prob,score,price,resp.rt,train.thisRepN,train.thisTrialN,train.thisN,train.thisIndex,train.ran,steps.thisRepN,steps.thisTrialN,steps.thisN,steps.thisIndex,steps.ran,blocks.thisRepN,blocks.thisTrialN,blocks.thisN,blocks.thisIndex,blocks.ran
space,58.4861,543133,001,2023-07-24_21h06.04.812,arm3_eps,2022.2.5,Win32,75.08071177,611ffdb45eb3cf8c95508295,64aea9d0f615b6559c281482,64becb54db92566c53602d47,,,,,,,,,,,,,,,,,,,,,,
space,35.3107,543133,001,2023-07-24_21h06.04.812,arm3_eps,2022.2.5,Win32,75.08071177,611ffdb45eb3cf8c95508295,64aea9d0f615b6559c281482,64becb54db92566c53602d47,,,,,,,,,,,,,,,,,,,,,,
space,32.7552,543133,001,2023-07-24_21h06.04.812,arm3_eps,2022.2.5,Win32,75.08071177,611ffdb45eb3cf8c95508295,64aea9d0f615b6559c281482,64becb54db92566c53602d47,,,,,,,,,,,,,,,,,,,,,,
space,44.7886,543133,001,2023-07-24_21h06.04.812,arm3_eps,2022.2.5,Win32,75.08071177,611ffdb45eb3cf8c95508295,64aea9d0f615b6559c281482,64becb54db92566c53602d47,,,,,,,,,,,,,,,,,,,,,,
space,45.7108,543133,001,2023-07-24_21h06.04.812,arm3_eps,2022.2.5,Win32,75.08071177,611ffdb45eb3cf8c95508295,64aea9d0f615b6559c281482,64becb54db92566c53602d47,,,,,,,,,,,,,,,,,,,,,,
space,38.5958,543133,001,2023-07-24_21h06.04.812,arm3_eps,2022.2.5,Win32,75.08071177,611ffdb45eb3cf8c95508295,64aea9d0f615b6559c281482,64becb54db92566c53602d47,,,,,,,,,,,,,,,,,,,,,,
space,14.2068,543133,001,2023-07-24_21h06.04.812,arm3_eps,2022.2.5,Win32,75.08071177,611ffdb45eb3cf8c95508295,64aea9d0f615b6559c281482,64becb54db92566c53602d47,,,,,,,,,,,,,,,,,,,,,,
space,61.1121,543133,001,2023-07-24_21h06.04.812,arm3_eps,2022.2.5,Win32,75.08071177,611ffdb45eb3cf8c95508295,64aea9d0f615b6559c281482,64becb54db92566c53602d47,,,,,,,,,,,,,,,,,,,,,,
space,21.1566,543133,001,2023-07-24_21h06.04.812,arm3_eps,2022.2.5,Win32,75.08071177,611ffdb45eb3cf8c95508295,64aea9d0f615b6559c281482,64becb54db92566c53602d47,,,,,,,,,,,,,,,,,,,,,,
space,24.472,543133,001,2023-07-24_21h06.04.812,arm3_eps,2022.2.5,Win32,75.08071177,611ffdb45eb3cf8c95508295,64aea9d0f615b6559c281482,64becb54db92566c53602d47,,,,,,,,,,,,,,,,,,,,,,
,,543133,001,2023-07-24_21h06.04.812,arm3_eps,2022.2.5,Win32,75.08071177,611ffdb45eb3cf8c95508295,64aea9d0f615b6559c281482,64becb54db92566c53602d47,down,-1,0.3,0.2429,0,0,6.2501,0,0,0,0,1,,,,,,,,,,
,,543133,001,2023-07-24_21h06.04.812,arm3_eps,2022.2.5,Win32,75.08071177,611ffdb45eb3cf8c95508295,64aea9d0f615b6559c281482,64becb54db92566c53602d47,up,-1,0.3,0.2429,0,0,3.1836,1,0,1,0,1,,,,,,,,,,
,,543133,001,2023-07-24_21h06.04.812,arm3_eps,2022.2.5,Win32,75.08071177,611ffdb45eb3cf8c95508295,64aea9d0f615b6559c281482,64becb54db92566c53602d47,up,1,0.3,0.2429,0,0,6.8253,2,0,2,0,1,,,,,,,,,,
,,543133,001,2023-07-24_21h06.04.812,arm3_eps,2022.2.5,Win32,75.08071177,611ffdb45eb3cf8c95508295,64aea9d0f615b6559c281482,64becb54db92566c53602d47,up,-1,0.3,0.2429,0,0,3.7802,3,0,3,0,1,,,,,,,,,,
,,543133,001,2023-07-24_21h06.04.812,arm3_eps,2022.2.5,Win32,75.08071177,611ffdb45eb3cf8c95508295,64aea9d0f615b6559c281482,64becb54db92566c53602d47,down,1,0.3,0.2429,1,0,4.5861,4,0,4,0,1,,,,,,,,,,
,,543133,001,2023-07-24_21h06.04.812,arm3_eps,2022.2.5,Win32,75.08071177,611ffdb45eb3cf8c95508295,64aea9d0f615b6559c281482,64becb54db92566c53602d47,up,1,0.3,0.2429,1,0,3.5061,5,0,5,0,1,,,,,,,,,,
,,543133,001,2023-07-24_21h06.04.812,arm3_eps,2022.2.5,Win32,75.08071177,611ffdb45eb3cf8c95508295,64aea9d0f615b6559c281482,64becb54db92566c53602d47,up,-1,0.3,0.2429,1,0,2.0918,6,0,6,0,1,,,,,,,,,,
,,543133,001,2023-07-24_21h06.04.812,arm3_eps,2022.2.5,Win32,75.08071177,611ffdb45eb3cf8c95508295,64aea9d0f615b6559c281482,64becb54db92566c53602d47,down,-1,0.3,0.2429,2,0,4.1994,7,0,7,0,1,,,,,,,,,,
,,543133,001,2023-07-24_21h06.04.812,arm3_eps,2022.2.5,Win32,75.08071177,611ffdb45eb3cf8c95508295,64aea9d0f615b6559c281482,64becb54db92566c53602d47,down,1,0.3,0.2429,2,0,2.8394,8,0,8,0,1,,,,,,,,,,
,,543133,001,2023-07-24_21h06.04.812,arm3_eps,2022.2.5,Win32,75.08071177,611ffdb45eb3cf8c95508295,64aea9d0f615b6559c281482,64becb54db92566c53602d47,down,-1,0.3,0.2429,2,0,1.774,9,0,9,0,1,,,,,,,,,,
,,543133,001,2023-07-24_21h06.04.812,arm3_eps,2022.2.5,Win32,75.08071177,611ffdb45eb3cf8c95508295,64aea9d0f615b6559c281482,64becb54db92566c53602d47,up,-1,0.3,0.2429,2,0,1.7202,10,0,10,0,1,,,,,,,,,,
,,543133,001,2023-07-24_21h06.04.812,arm3_eps,2022.2.5,Win32,75.08071177,611ffdb45eb3cf8c95508295,64aea9d0f615b6559c281482,64becb54db92566c53602d47,down,-1,0.3,0.2429,2,0,1.48,11,0,11,0,1,,,,,,,,,,
,,543133,001,2023-07-24_21h06.04.812,arm3_eps,2022.2.5,Win32,75.08071177,611ffdb45eb3cf8c95508295,64aea9d0f615b6559c281482,64becb54db92566c53602d47,down,1,0.3,0.2429,2,0,1.4276,12,0,12,0,1,,,,,,,,,,
,,543133,001,2023-07-24_21h06.04.812,arm3_eps,2022.2.5,Win32,75.08071177,611ffdb45eb3cf8c95508295,64aea9d0f615b6559c281482,64becb54db92566c53602d47,up,-1,0.3,0.2429,3,0,1.6673,13,0,13,0,1,,,,,,,,,,
,,543133,001,2023-07-24_21h06.04.812,arm3_eps,2022.2.5,Win32,75.08071177,611ffdb45eb3cf8c95508295,64aea9d0f615b6559c281482,64becb54db92566c53602d47,up,1,0.3,0.2429,2,0,2.8395,14,0,14,0,1,,,,,,,,,,
,,543133,001,2023-07-24_21h06.04.812,arm3_eps,2022.2.5,Win32,75.08071177,611ffdb45eb3cf8c95508295,64aea9d0f615b6559c281482,64becb54db92566c53602d47,down,1,0.3,0.2429,2,0,1.7867,15,0,15,0,1,,,,,,,,,,
,,543133,001,2023-07-24_21h06.04.812,arm3_eps,2022.2.5,Win32,75.08071177,611ffdb45eb3cf8c95508295,64aea9d0f615b6559c281482,64becb54db92566c53602d47,down,1,0.3,0.2429,1,0,1.9338,16,0,16,0,1,,,,,,,,,,
,,543133,001,2023-07-24_21h06.04.812,arm3_eps,2022.2.5,Win32,75.08071177,611ffdb45eb3cf8c95508295,64aea9d0f615b6559c281482,64becb54db92566c53602d47,up,1,0.3,0.2429,1,0,1.6936,17,0,17,0,1,,,,,,,,,,
,,543133,001,2023-07-24_21h06.04.812,arm3_eps,2022.2.5,Win32,75.08071177,611ffdb45eb3cf8c95508295,64aea9d0f615b6559c281482,64becb54db92566c53602d47,down,1,0.3,0.2429,0,0,2.9467,18,0,18,0,1,,,,,,,,,,
,,543133,001,2023-07-24_21h06.04.812,arm3_eps,2022.2.5,Win32,75.08071177,611ffdb45eb3cf8c95508295,64aea9d0f615b6559c281482,64becb54db92566c53602d47,up,1,0.3,0.2429,0,0,6.6281,19,0,19,0,1,,,,,,,,,,
,,543133,001,2023-07-24_21h06.04.812,arm3_eps,2022.2.5,Win32,75.08071177,611ffdb45eb3cf8c95508295,64aea9d0f615b6559c281482,64becb54db92566c53602d47,up,-1,0.3,0.2429,0,0,5.1058,20,0,20,0,1,,,,,,,,,,
,,543133,001,2023-07-24_21h06.04.812,arm3_eps,2022.2.5,Win32,75.08071177,611ffdb45eb3cf8c95508295,64aea9d0f615b6559c281482,64becb54db92566c53602d47,up,1,0.3,0.2429,0,0,1.5337,21,0,21,0,1,,,,,,,,,,
,,543133,001,2023-07-24_21h06.04.812,arm3_eps,2022.2.5,Win32,75.08071177,611ffdb45eb3cf8c95508295,64aea9d0f615b6559c281482,64becb54db92566c53602d47,up,-1,0.3,0.2429,0,0,2.0936,22,0,22,0,1,,,,,,,,,,
,,543133,001,2023-07-24_21h06.04.812,arm3_eps,2022.2.5,Win32,75.08071177,611ffdb45eb3cf8c95508295,64aea9d0f615b6559c281482,64becb54db92566c53602d47,down,-1,0.3,0.2429,1,0,3.7463,23,0,23,0,1,,,,,,,,,,
,,543133,001,2023-07-24_21h06.04.812,arm3_eps,2022.2.5,Win32,75.08071177,611ffdb45eb3cf8c95508295,64aea9d0f615b6559c281482,64becb54db92566c53602d47,up,-1,0.3,0.2429,1,0,3.3999,24,0,24,0,1,,,,,,,,,,
,,543133,001,2023-07-24_21h06.04.812,arm3_eps,2022.2.5,Win32,75.08071177,611ffdb45eb3cf8c95508295,64aea9d0f615b6559c281482,64becb54db92566c53602d47,up,1,0.3,0.2429,0,0,1.7324,25,0,25,0,1,,,,,,,,,,
,,543133,001,2023-07-24_21h06.04.812,arm3_eps,2022.2.5,Win32,75.08071177,611ffdb45eb3cf8c95508295,64aea9d0f615b6559c281482,64becb54db92566c53602d47,up,-1,0.3,0.2429,1,0,1.7469,26,0,26,0,1,,,,,,,,,,
,,543133,001,2023-07-24_21h06.04.812,arm3_eps,2022.2.5,Win32,75.08071177,611ffdb45eb3cf8c95508295,64aea9d0f615b6559c281482,64becb54db92566c53602d47,up,-1,0.3,0.2429,1,0,4.0528,27,0,27,0,1,,,,,,,,,,
,,543133,001,2023-07-24_21h06.04.812,arm3_eps,2022.2.5,Win32,75.08071177,611ffdb45eb3cf8c95508295,64aea9d0f615b6559c281482,64becb54db92566c53602d47,up,-1,0.3,0.2429,1,0,2.5065,28,0,28,0,1,,,,,,,,,,
,,543133,001,2023-07-24_21h06.04.812,arm3_eps,2022.2.5,Win32,75.08071177,611ffdb45eb3cf8c95508295,64aea9d0f615b6559c281482,64becb54db92566c53602d47,up,1,0.3,0.2429,0,0,2.186,29,0,29,0,1,,,,,,,,,,
,,543133,001,2023-07-24_21h06.04.812,arm3_eps,2022.2.5,Win32,75.08071177,611ffdb45eb3cf8c95508295,64aea9d0f615b6559c281482,64becb54db92566c53602d47,down,1,0.3,0.2429,-1,0,5.6382,30,0,30,0,1,,,,,,,,,,
,,543133,001,2023-07-24_21h06.04.812,arm3_eps,2022.2.5,Win32,75.08071177,611ffdb45eb3cf8c95508295,64aea9d0f615b6559c281482,64becb54db92566c53602d47,up,1,0.3,0.2429,-1,0,2.2799,31,0,31,0,1,,,,,,,,,,
,,543133,001,2023-07-24_21h06.04.812,arm3_eps,2022.2.5,Win32,75.08071177,611ffdb45eb3cf8c95508295,64aea9d0f615b6559c281482,64becb54db92566c53602d47,up,-1,0.3,0.2429,-1,0,1.7073,32,0,32,0,1,,,,,,,,,,
,,543133,001,2023-07-24_21h06.04.812,arm3_eps,2022.2.5,Win32,75.08071177,611ffdb45eb3cf8c95508295,64aea9d0f615b6559c281482,64becb54db92566c53602d47,up,-1,0.3,0.2429,-2,0,1.2411,33,0,33,0,1,,,,,,,,,,
,,543133,001,2023-07-24_21h06.04.812,arm3_eps,2022.2.5,Win32,75.08071177,611ffdb45eb3cf8c95508295,64aea9d0f615b6559c281482,64becb54db92566c53602d47,up,-1,0.3,0.2429,-2,0,1.6258,34,0,34,0,1,,,,,,,,,,
,,543133,001,2023-07-24_21h06.04.812,arm3_eps,2022.2.5,Win32,75.08071177,611ffdb45eb3cf8c95508295,64aea9d0f615b6559c281482,64becb54db92566c53602d47,up,-1,0.3,0.2429,-2,0,1.4275,35,0,35,0,1,,,,,,,,,,
,,543133,001,2023-07-24_21h06.04.812,arm3_eps,2022.2.5,Win32,75.08071177,611ffdb45eb3cf8c95508295,64aea9d0f615b6559c281482,64becb54db92566c53602d47,up,-1,0.3,0.2429,-2,0,3.6525,36,0,36,0,1,,,,,,,,,,
,,543133,001,2023-07-24_21h06.04.812,arm3_eps,2022.2.5,Win32,75.08071177,611ffdb45eb3cf8c95508295,64aea9d0f615b6559c281482,64becb54db92566c53602d47,up,1,0.3,0.2429,-2,0,2.2799,37,0,37,0,1,,,,,,,,,,
,,543133,001,2023-07-24_21h06.04.812,arm3_eps,2022.2.5,Win32,75.08071177,611ffdb45eb3cf8c95508295,64aea9d0f615b6559c281482,64becb54db92566c53602d47,up,1,0.3,0.2429,-1,0,1.5334,38,0,38,0,1,,,,,,,,,,
,,543133,001,2023-07-24_21h06.04.812,arm3_eps,2022.2.5,Win32,75.08071177,611ffdb45eb3cf8c95508295,64aea9d0f615b6559c281482,64becb54db92566c53602d47,up,1,0.3,0.2429,-1,0,3.0398,39,0,39,0,1,,,,,,,,,,
,,543133,001,2023-07-24_21h06.04.812,arm3_eps,2022.2.5,Win32,75.08071177,611ffdb45eb3cf8c95508295,64aea9d0f615b6559c281482,64becb54db92566c53602d47,down,1,0.3,0.2429,-2,0,2.0268,40,0,40,0,1,,,,,,,,,,
,,543133,001,2023-07-24_21h06.04.812,arm3_eps,2022.2.5,Win32,75.08071177,611ffdb45eb3cf8c95508295,64aea9d0f615b6559c281482,64becb54db92566c53602d47,down,1,0.3,0.2429,-2,0,1.8136,41,0,41,0,1,,,,,,,,,,
,,543133,001,2023-07-24_21h06.04.812,arm3_eps,2022.2.5,Win32,75.08071177,611ffdb45eb3cf8c95508295,64aea9d0f615b6559c281482,64becb54db92566c53602d47,up,-1,0.3,0.2429,-1,0,1.3333,42,0,42,0,1,,,,,,,,,,
,,543133,001,2023-07-24_21h06.04.812,arm3_eps,2022.2.5,Win32,75.08071177,611ffdb45eb3cf8c95508295,64aea9d0f615b6559c281482,64becb54db92566c53602d47,up,-1,0.3,0.2429,-1,0,3.7594,43,0,43,0,1,,,,,,,,,,
,,543133,001,2023-07-24_21h06.04.812,arm3_eps,2022.2.5,Win32,75.08071177,611ffdb45eb3cf8c95508295,64aea9d0f615b6559c281482,64becb54db92566c53602d47,up,-1,0.3,0.2429,-1,0,2.0257,44,0,44,0,1,,,,,,,,,,
,,543133,001,2023-07-24_21h06.04.812,arm3_eps,2022.2.5,Win32,75.08071177,611ffdb45eb3cf8c95508295,64aea9d0f615b6559c281482,64becb54db92566c53602d47,down,-1,0.3,0.2429,0,0,1.6804,45,0,45,0,1,,,,,,,,,,
,,543133,001,2023-07-24_21h06.04.812,arm3_eps,2022.2.5,Win32,75.08071177,611ffdb45eb3cf8c95508295,64aea9d0f615b6559c281482,64becb54db92566c53602d47,up,-1,0.3,0.2429,0,0,2.1868,46,0,46,0,1,,,,,,,,,,
,,543133,001,2023-07-24_21h06.04.812,arm3_eps,2022.2.5,Win32,75.08071177,611ffdb45eb3cf8c95508295,64aea9d0f615b6559c281482,64becb54db92566c53602d47,up,1,0.3,0.2429,0,0,1.627,47,0,47,0,1,,,,,,,,,,
,,543133,001,2023-07-24_21h06.04.812,arm3_eps,2022.2.5,Win32,75.08071177,611ffdb45eb3cf8c95508295,64aea9d0f615b6559c281482,64becb54db92566c53602d47,up,1,0.3,0.2429,1,0,2.5202,48,0,48,0,1,,,,,,,,,,
,,543133,001,2023-07-24_21h06.04.812,arm3_eps,2022.2.5,Win32,75.08071177,611ffdb45eb3cf8c95508295,64aea9d0f615b6559c281482,64becb54db92566c53602d47,up,1,0.3,0.2429,1,0,2.9594,49,0,49,0,1,,,,,,,,,,
space,11.4235,543133,001,2023-07-24_21h06.04.812,arm3_eps,2022.2.5,Win32,75.08071177,611ffdb45eb3cf8c95508295,64aea9d0f615b6559c281482,64becb54db92566c53602d47,,,,,,,,,,,,,,,,,,,,,,
space,14.1618,543133,001,2023-07-24_21h06.04.812,arm3_eps,2022.2.5,Win32,75.08071177,611ffdb45eb3cf8c95508295,64aea9d0f615b6559c281482,64becb54db92566c53602d47,up,1,0.3,0.4357,1,0,1.5176,,,,,,0,0,0,0,1,,,,,
,,543133,001,2023-07-24_21h06.04.812,arm3_eps,2022.2.5,Win32,75.08071177,611ffdb45eb3cf8c95508295,64aea9d0f615b6559c281482,64becb54db92566c53602d47,up,1,0.3,0.4357,2,0,2.0531,,,,,,1,0,1,0,1,,,,,
,,543133,001,2023-07-24_21h06.04.812,arm3_eps,2022.2.5,Win32,75.08071177,611ffdb45eb3cf8c95508295,64aea9d0f615b6559c281482,64becb54db92566c53602d47,up,-1,0.3,0.4357,3,0,4.7593,,,,,,2,0,2,0,1,,,,,
,,543133,001,2023-07-24_21h06.04.812,arm3_eps,2022.2.5,Win32,75.08071177,611ffdb45eb3cf8c95508295,64aea9d0f615b6559c281482,64becb54db92566c53602d47,up,-1,0.3,0.4357,3,0,2.3999,,,,,,3,0,3,0,1,,,,,
,,543133,001,2023-07-24_21h06.04.812,arm3_eps,2022.2.5,Win32,75.08071177,611ffdb45eb3cf8c95508295,64aea9d0f615b6559c281482,64becb54db92566c53602d47,down,-1,0.3,0.4357,4,0,2.9204,,,,,,4,0,4,0,1,,,,,
,,543133,001,2023-07-24_21h06.04.812,arm3_eps,2022.2.5,Win32,75.08071177,611ffdb45eb3cf8c95508295,64aea9d0f615b6559c281482,64becb54db92566c53602d47,down,-1,0.3,0.4357,4,0,2.5598,,,,,,5,0,5,0,1,,,,,
,,543133,001,2023-07-24_21h06.04.812,arm3_eps,2022.2.5,Win32,75.08071177,611ffdb45eb3cf8c95508295,64aea9d0f615b6559c281482,64becb54db92566c53602d47,up,-1,0.3,0.4357,4,0,1.4267,,,,,,6,0,6,0,1,,,,,
,,543133,001,2023-07-24_21h06.04.812,arm3_eps,2022.2.5,Win32,75.08071177,611ffdb45eb3cf8c95508295,64aea9d0f615b6559c281482,64becb54db92566c53602d47,up,1,0.3,0.4357,4,0,1.3468,,,,,,7,0,7,0,1,,,,,
,,543133,001,2023-07-24_21h06.04.812,arm3_eps,2022.2.5,Win32,75.08071177,611ffdb45eb3cf8c95508295,64aea9d0f615b6559c281482,64becb54db92566c53602d47,up,1,0.3,0.4357,4,0,1.361,,,,,,8,0,8,0,1,,,,,
,,543133,001,2023-07-24_21h06.04.812,arm3_eps,2022.2.5,Win32,75.08071177,611ffdb45eb3cf8c95508295,64aea9d0f615b6559c281482,64becb54db92566c53602d47,up,-1,0.3,0.4357,4,0,1.587,,,,,,9,0,9,0,1,,,,,
,,543133,001,2023-07-24_21h06.04.812,arm3_eps,2022.2.5,Win32,75.08071177,611ffdb45eb3cf8c95508295,64aea9d0f615b6559c281482,64becb54db92566c53602d47,up,-1,0.3,0.4357,4,0,1.6676,,,,,,10,0,10,0,1,,,,,
,,543133,001,2023-07-24_21h06.04.812,arm3_eps,2022.2.5,Win32,75.08071177,611ffdb45eb3cf8c95508295,64aea9d0f615b6559c281482,64becb54db92566c53602d47,up,-1,0.3,0.4357,3,0,2.4272,,,,,,11,0,11,0,1,,,,,
,,543133,001,2023-07-24_21h06.04.812,arm3_eps,2022.2.5,Win32,75.08071177,611ffdb45eb3cf8c95508295,64aea9d0f615b6559c281482,64becb54db92566c53602d47,up,1,0.3,0.4357,3,0,1.7741,,,,,,12,0,12,0,1,,,,,
,,543133,001,2023-07-24_21h06.04.812,arm3_eps,2022.2.5,Win32,75.08071177,611ffdb45eb3cf8c95508295,64aea9d0f615b6559c281482,64becb54db92566c53602d47,up,1,0.3,0.4357,4,0,2.4931,,,,,,13,0,13,0,1,,,,,
,,543133,001,2023-07-24_21h06.04.812,arm3_eps,2022.2.5,Win32,75.08071177,611ffdb45eb3cf8c95508295,64aea9d0f615b6559c281482,64becb54db92566c53602d47,down,-1,0.3,0.4357,4,0,1.5336,,,,,,14,0,14,0,1,,,,,
,,543133,001,2023-07-24_21h06.04.812,arm3_eps,2022.2.5,Win32,75.08071177,611ffdb45eb3cf8c95508295,64aea9d0f615b6559c281482,64becb54db92566c53602d47,up,1,0.3,0.4357,3,0,1.3336,,,,,,15,0,15,0,1,,,,,
,,543133,001,2023-07-24_21h06.04.812,arm3_eps,2022.2.5,Win32,75.08071177,611ffdb45eb3cf8c95508295,64aea9d0f615b6559c281482,64becb54db92566c53602d47,down,-1,0.3,0.4357,3,0,1.787,,,,,,16,0,16,0,1,,,,,
,,543133,001,2023-07-24_21h06.04.812,arm3_eps,2022.2.5,Win32,75.08071177,611ffdb45eb3cf8c95508295,64aea9d0f615b6559c281482,64becb54db92566c53602d47,down,1,0.3,0.4357,3,0,1.2799,,,,,,17,0,17,0,1,,,,,
,,543133,001,2023-07-24_21h06.04.812,arm3_eps,2022.2.5,Win32,75.08071177,611ffdb45eb3cf8c95508295,64aea9d0f615b6559c281482,64becb54db92566c53602d47,down,1,0.3,0.4357,3,0,1.8001,,,,,,18,0,18,0,1,,,,,
,,543133,001,2023-07-24_21h06.04.812,arm3_eps,2022.2.5,Win32,75.08071177,611ffdb45eb3cf8c95508295,64aea9d0f615b6559c281482,64becb54db92566c53602d47,up,1,0.3,0.4357,3,0,1.7334,,,,,,19,0,19,0,1,,,,,
,,543133,001,2023-07-24_21h06.04.812,arm3_eps,2022.2.5,Win32,75.08071177,611ffdb45eb3cf8c95508295,64aea9d0f615b6559c281482,64becb54db92566c53602d47,up,1,0.3,0.4357,4,0,1.4671,,,,,,20,0,20,0,1,,,,,
,,543133,001,2023-07-24_21h06.04.812,arm3_eps,2022.2.5,Win32,75.08071177,611ffdb45eb3cf8c95508295,64aea9d0f615b6559c281482,64becb54db92566c53602d47,up,1,0.3,0.4357,4,0,1.4401,,,,,,21,0,21,0,1,,,,,
,,543133,001,2023-07-24_21h06.04.812,arm3_eps,2022.2.5,Win32,75.08071177,611ffdb45eb3cf8c95508295,64aea9d0f615b6559c281482,64becb54db92566c53602d47,down,1,0.3,0.4357,4,0,1.3875,,,,,,22,0,22,0,1,,,,,
,,543133,001,2023-07-24_21h06.04.812,arm3_eps,2022.2.5,Win32,75.08071177,611ffdb45eb3cf8c95508295,64aea9d0f615b6559c281482,64becb54db92566c53602d47,down,1,0.3,0.4357,4,0,1.6802,,,,,,23,0,23,0,1,,,,,
,,543133,001,2023-07-24_21h06.04.812,arm3_eps,2022.2.5,Win32,75.08071177,611ffdb45eb3cf8c95508295,64aea9d0f615b6559c281482,64becb54db92566c53602d47,down,1,0.3,0.4357,4,0,1.5461,,,,,,24,0,24,0,1,,,,,
,,543133,001,2023-07-24_21h06.04.812,arm3_eps,2022.2.5,Win32,75.08071177,611ffdb45eb3cf8c95508295,64aea9d0f615b6559c281482,64becb54db92566c53602d47,down,1,0.3,0.4357,3,0,1.2676,,,,,,25,0,25,0,1,,,,,
,,543133,001,2023-07-24_21h06.04.812,arm3_eps,2022.2.5,Win32,75.08071177,611ffdb45eb3cf8c95508295,64aea9d0f615b6559c281482,64becb54db92566c53602d47,down,-1,0.3,0.4357,3,0,1.4406,,,,,,26,0,26,0,1,,,,,
,,543133,001,2023-07-24_21h06.04.812,arm3_eps,2022.2.5,Win32,75.08071177,611ffdb45eb3cf8c95508295,64aea9d0f615b6559c281482,64becb54db92566c53602d47,up,-1,0.3,0.4357,3,0,1.9734,,,,,,27,0,27,0,1,,,,,
,,543133,001,2023-07-24_21h06.04.812,arm3_eps,2022.2.5,Win32,75.08071177,611ffdb45eb3cf8c95508295,64aea9d0f615b6559c281482,64becb54db92566c53602d47,up,1,0.3,0.4357,3,0,1.067,,,,,,28,0,28,0,1,,,,,
,,543133,001,2023-07-24_21h06.04.812,arm3_eps,2022.2.5,Win32,75.08071177,611ffdb45eb3cf8c95508295,64aea9d0f615b6559c281482,64becb54db92566c53602d47,up,1,0.3,0.4357,4,0,0.9472,,,,,,29,0,29,0,1,,,,,
,,543133,001,2023-07-24_21h06.04.812,arm3_eps,2022.2.5,Win32,75.08071177,611ffdb45eb3cf8c95508295,64aea9d0f615b6559c281482,64becb54db92566c53602d47,up,-1,0.3,0.4357,4,0,1.9465,,,,,,30,0,30,0,1,,,,,
,,543133,001,2023-07-24_21h06.04.812,arm3_eps,2022.2.5,Win32,75.08071177,611ffdb45eb3cf8c95508295,64aea9d0f615b6559c281482,64becb54db92566c53602d47,down,1,0.3,0.4357,4,0,1.5866,,,,,,31,0,31,0,1,,,,,
,,543133,001,2023-07-24_21h06.04.812,arm3_eps,2022.2.5,Win32,75.08071177,611ffdb45eb3cf8c95508295,64aea9d0f615b6559c281482,64becb54db92566c53602d47,down,1,0.3,0.4357,4,0,1.3733,,,,,,32,0,32,0,1,,,,,
,,543133,001,2023-07-24_21h06.04.812,arm3_eps,2022.2.5,Win32,75.08071177,611ffdb45eb3cf8c95508295,64aea9d0f615b6559c281482,64becb54db92566c53602d47,up,-1,0.3,0.4357,4,0,1.4669,,,,,,33,0,33,0,1,,,,,
,,543133,001,2023-07-24_21h06.04.812,arm3_eps,2022.2.5,Win32,75.08071177,611ffdb45eb3cf8c95508295,64aea9d0f615b6559c281482,64becb54db92566c53602d47,up,-1,0.3,0.4357,4,0,1.267,,,,,,34,0,34,0,1,,,,,
,,543133,001,2023-07-24_21h06.04.812,arm3_eps,2022.2.5,Win32,75.08071177,611ffdb45eb3cf8c95508295,64aea9d0f615b6559c281482,64becb54db92566c53602d47,down,-1,0.3,0.4357,5,0,1.519,,,,,,35,0,35,0,1,,,,,
,,543133,001,2023-07-24_21h06.04.812,arm3_eps,2022.2.5,Win32,75.08071177,611ffdb45eb3cf8c95508295,64aea9d0f615b6559c281482,64becb54db92566c53602d47,up,-1,0.3,0.4357,4,0,1.4939,,,,,,36,0,36,0,1,,,,,
,,543133,001,2023-07-24_21h06.04.812,arm3_eps,2022.2.5,Win32,75.08071177,611ffdb45eb3cf8c95508295,64aea9d0f615b6559c281482,64becb54db92566c53602d47,down,-1,0.3,0.4357,5,0,1.2272,,,,,,37,0,37,0,1,,,,,
,,543133,001,2023-07-24_21h06.04.812,arm3_eps,2022.2.5,Win32,75.08071177,611ffdb45eb3cf8c95508295,64aea9d0f615b6559c281482,64becb54db92566c53602d47,up,1,0.3,0.4357,5,0,1.2671,,,,,,38,0,38,0,1,,,,,
,,543133,001,2023-07-24_21h06.04.812,arm3_eps,2022.2.5,Win32,75.08071177,611ffdb45eb3cf8c95508295,64aea9d0f615b6559c281482,64becb54db92566c53602d47,up,-1,0.3,0.4357,5,0,1.3737,,,,,,39,0,39,0,1,,,,,
,,543133,001,2023-07-24_21h06.04.812,arm3_eps,2022.2.5,Win32,75.08071177,611ffdb45eb3cf8c95508295,64aea9d0f615b6559c281482,64becb54db92566c53602d47,down,-1,0.3,0.4357,5,0,1.3072,,,,,,40,0,40,0,1,,,,,
,,543133,001,2023-07-24_21h06.04.812,arm3_eps,2022.2.5,Win32,75.08071177,611ffdb45eb3cf8c95508295,64aea9d0f615b6559c281482,64becb54db92566c53602d47,up,1,0.3,0.4357,4,0,1.2535,,,,,,41,0,41,0,1,,,,,
,,543133,001,2023-07-24_21h06.04.812,arm3_eps,2022.2.5,Win32,75.08071177,611ffdb45eb3cf8c95508295,64aea9d0f615b6559c281482,64becb54db92566c53602d47,up,1,0.3,0.4357,4,0,1.227,,,,,,42,0,42,0,1,,,,,
,,543133,001,2023-07-24_21h06.04.812,arm3_eps,2022.2.5,Win32,75.08071177,611ffdb45eb3cf8c95508295,64aea9d0f615b6559c281482,64becb54db92566c53602d47,up,-1,0.3,0.4357,4,0,1.4804,,,,,,43,0,43,0,1,,,,,
,,543133,001,2023-07-24_21h06.04.812,arm3_eps,2022.2.5,Win32,75.08071177,611ffdb45eb3cf8c95508295,64aea9d0f615b6559c281482,64becb54db92566c53602d47,up,1,0.3,0.4357,4,0,1.147,,,,,,44,0,44,0,1,,,,,
,,543133,001,2023-07-24_21h06.04.812,arm3_eps,2022.2.5,Win32,75.08071177,611ffdb45eb3cf8c95508295,64aea9d0f615b6559c281482,64becb54db92566c53602d47,up,1,0.3,0.4357,5,0,1.3074,,,,,,45,0,45,0,1,,,,,
,,543133,001,2023-07-24_21h06.04.812,arm3_eps,2022.2.5,Win32,75.08071177,611ffdb45eb3cf8c95508295,64aea9d0f615b6559c281482,64becb54db92566c53602d47,up,-1,0.3,0.4357,5,0,1.2937,,,,,,46,0,46,0,1,,,,,
,,543133,001,2023-07-24_21h06.04.812,arm3_eps,2022.2.5,Win32,75.08071177,611ffdb45eb3cf8c95508295,64aea9d0f615b6559c281482,64becb54db92566c53602d47,up,1,0.3,0.4357,5,0,1.5336,,,,,,47,0,47,0,1,,,,,
,,543133,001,2023-07-24_21h06.04.812,arm3_eps,2022.2.5,Win32,75.08071177,611ffdb45eb3cf8c95508295,64aea9d0f615b6559c281482,64becb54db92566c53602d47,up,-1,0.3,0.4357,5,0,1.1609,,,,,,48,0,48,0,1,,,,,
,,543133,001,2023-07-24_21h06.04.812,arm3_eps,2022.2.5,Win32,75.08071177,611ffdb45eb3cf8c95508295,64aea9d0f615b6559c281482,64becb54db92566c53602d47,up,1,0.3,0.4357,5,0,1.1339,,,,,,49,0,49,0,1,,,,,
,,543133,001,2023-07-24_21h06.04.812,arm3_eps,2022.2.5,Win32,75.08071177,611ffdb45eb3cf8c95508295,64aea9d0f615b6559c281482,64becb54db92566c53602d47,up,1,0.3,0.4357,5,0,1.4136,,,,,,50,0,50,0,1,,,,,
,,543133,001,2023-07-24_21h06.04.812,arm3_eps,2022.2.5,Win32,75.08071177,611ffdb45eb3cf8c95508295,64aea9d0f615b6559c281482,64becb54db92566c53602d47,up,1,0.3,0.4357,6,0,1.147,,,,,,51,0,51,0,1,,,,,
,,543133,001,2023-07-24_21h06.04.812,arm3_eps,2022.2.5,Win32,75.08071177,611ffdb45eb3cf8c95508295,64aea9d0f615b6559c281482,64becb54db92566c53602d47,up,1,0.3,0.4357,6,0,1.3208,,,,,,52,0,52,0,1,,,,,
,,543133,001,2023-07-24_21h06.04.812,arm3_eps,2022.2.5,Win32,75.08071177,611ffdb45eb3cf8c95508295,64aea9d0f615b6559c281482,64becb54db92566c53602d47,up,1,0.3,0.4357,6,0,1.0935,,,,,,53,0,53,0,1,,,,,
,,543133,001,2023-07-24_21h06.04.812,arm3_eps,2022.2.5,Win32,75.08071177,611ffdb45eb3cf8c95508295,64aea9d0f615b6559c281482,64becb54db92566c53602d47,up,-1,0.3,0.4357,7,0,1.0012,,,,,,54,0,54,0,1,,,,,
,,543133,001,2023-07-24_21h06.04.812,arm3_eps,2022.2.5,Win32,75.08071177,611ffdb45eb3cf8c95508295,64aea9d0f615b6559c281482,64becb54db92566c53602d47,up,1,0.3,0.4357,6,0,1.48,,,,,,55,0,55,0,1,,,,,
,,543133,001,2023-07-24_21h06.04.812,arm3_eps,2022.2.5,Win32,75.08071177,611ffdb45eb3cf8c95508295,64aea9d0f615b6559c281482,64becb54db92566c53602d47,up,1,0.3,0.4357,6,0,1.4402,,,,,,56,0,56,0,1,,,,,
,,543133,001,2023-07-24_21h06.04.812,arm3_eps,2022.2.5,Win32,75.08071177,611ffdb45eb3cf8c95508295,64aea9d0f615b6559c281482,64becb54db92566c53602d47,up,1,0.3,0.4357,7,0,1.3604,,,,,,57,0,57,0,1,,,,,
,,543133,001,2023-07-24_21h06.04.812,arm3_eps,2022.2.5,Win32,75.08071177,611ffdb45eb3cf8c95508295,64aea9d0f615b6559c281482,64becb54db92566c53602d47,up,-1,0.3,0.4357,7,0,1.7336,,,,,,58,0,58,0,1,,,,,
,,543133,001,2023-07-24_21h06.04.812,arm3_eps,2022.2.5,Win32,75.08071177,611ffdb45eb3cf8c95508295,64aea9d0f615b6559c281482,64becb54db92566c53602d47,up,-1,0.3,0.4357,6,0,1.5868,,,,,,59,0,59,0,1,,,,,
,,543133,001,2023-07-24_21h06.04.812,arm3_eps,2022.2.5,Win32,75.08071177,611ffdb45eb3cf8c95508295,64aea9d0f615b6559c281482,64becb54db92566c53602d47,up,-1,0.3,0.4357,6,0,1.2004,,,,,,60,0,60,0,1,,,,,
,,543133,001,2023-07-24_21h06.04.812,arm3_eps,2022.2.5,Win32,75.08071177,611ffdb45eb3cf8c95508295,64aea9d0f615b6559c281482,64becb54db92566c53602d47,up,1,0.3,0.4357,5,0,3.3751,,,,,,61,0,61,0,1,,,,,
,,543133,001,2023-07-24_21h06.04.812,arm3_eps,2022.2.5,Win32,75.08071177,611ffdb45eb3cf8c95508295,64aea9d0f615b6559c281482,64becb54db92566c53602d47,up,-1,0.3,0.4357,6,0,1.2402,,,,,,62,0,62,0,1,,,,,
,,543133,001,2023-07-24_21h06.04.812,arm3_eps,2022.2.5,Win32,75.08071177,611ffdb45eb3cf8c95508295,64aea9d0f615b6559c281482,64becb54db92566c53602d47,down,1,0.3,0.4357,6,0,2.1332,,,,,,63,0,63,0,1,,,,,
,,543133,001,2023-07-24_21h06.04.812,arm3_eps,2022.2.5,Win32,75.08071177,611ffdb45eb3cf8c95508295,64aea9d0f615b6559c281482,64becb54db92566c53602d47,up,-1,0.3,0.4357,7,0,1.4132,,,,,,64,0,64,0,1,,,,,
,,543133,001,2023-07-24_21h06.04.812,arm3_eps,2022.2.5,Win32,75.08071177,611ffdb45eb3cf8c95508295,64aea9d0f615b6559c281482,64becb54db92566c53602d47,up,-1,0.3,0.4357,7,0,2.1471,,,,,,65,0,65,0,1,,,,,
,,543133,001,2023-07-24_21h06.04.812,arm3_eps,2022.2.5,Win32,75.08071177,611ffdb45eb3cf8c95508295,64aea9d0f615b6559c281482,64becb54db92566c53602d47,up,-1,0.3,0.4357,7,0,1.9202,,,,,,66,0,66,0,1,,,,,
,,543133,001,2023-07-24_21h06.04.812,arm3_eps,2022.2.5,Win32,75.08071177,611ffdb45eb3cf8c95508295,64aea9d0f615b6559c281482,64becb54db92566c53602d47,up,1,0.3,0.4357,7,0,1.8002,,,,,,67,0,67,0,1,,,,,
,,543133,001,2023-07-24_21h06.04.812,arm3_eps,2022.2.5,Win32,75.08071177,611ffdb45eb3cf8c95508295,64aea9d0f615b6559c281482,64becb54db92566c53602d47,up,1,0.3,0.4357,7,0,1.6403,,,,,,68,0,68,0,1,,,,,
,,543133,001,2023-07-24_21h06.04.812,arm3_eps,2022.2.5,Win32,75.08071177,611ffdb45eb3cf8c95508295,64aea9d0f615b6559c281482,64becb54db92566c53602d47,up,1,0.3,0.4357,7,0,1.1074,,,,,,69,0,69,0,1,,,,,
,,543133,001,2023-07-24_21h06.04.812,arm3_eps,2022.2.5,Win32,75.08071177,611ffdb45eb3cf8c95508295,64aea9d0f615b6559c281482,64becb54db92566c53602d47,up,-1,0.3,0.4357,7,0,1.4803,,,,,,70,0,70,0,1,,,,,
,,543133,001,2023-07-24_21h06.04.812,arm3_eps,2022.2.5,Win32,75.08071177,611ffdb45eb3cf8c95508295,64aea9d0f615b6559c281482,64becb54db92566c53602d47,up,-1,0.3,0.4357,7,0,1.9737,,,,,,71,0,71,0,1,,,,,
,,543133,001,2023-07-24_21h06.04.812,arm3_eps,2022.2.5,Win32,75.08071177,611ffdb45eb3cf8c95508295,64aea9d0f615b6559c281482,64becb54db92566c53602d47,up,-1,0.3,0.4357,7,0,1.387,,,,,,72,0,72,0,1,,,,,
,,543133,001,2023-07-24_21h06.04.812,arm3_eps,2022.2.5,Win32,75.08071177,611ffdb45eb3cf8c95508295,64aea9d0f615b6559c281482,64becb54db92566c53602d47,up,1,0.3,0.4357,7,0,1.4003,,,,,,73,0,73,0,1,,,,,
,,543133,001,2023-07-24_21h06.04.812,arm3_eps,2022.2.5,Win32,75.08071177,611ffdb45eb3cf8c95508295,64aea9d0f615b6559c281482,64becb54db92566c53602d47,up,1,0.3,0.4357,7,0,1.4807,,,,,,74,0,74,0,1,,,,,
,,543133,001,2023-07-24_21h06.04.812,arm3_eps,2022.2.5,Win32,75.08071177,611ffdb45eb3cf8c95508295,64aea9d0f615b6559c281482,64becb54db92566c53602d47,up,1,0.3,0.4357,7,0,1.5474,,,,,,75,0,75,0,1,,,,,
,,543133,001,2023-07-24_21h06.04.812,arm3_eps,2022.2.5,Win32,75.08071177,611ffdb45eb3cf8c95508295,64aea9d0f615b6559c281482,64becb54db92566c53602d47,up,1,0.3,0.4357,7,0,1.8006,,,,,,76,0,76,0,1,,,,,
,,543133,001,2023-07-24_21h06.04.812,arm3_eps,2022.2.5,Win32,75.08071177,611ffdb45eb3cf8c95508295,64aea9d0f615b6559c281482,64becb54db92566c53602d47,up,-1,0.3,0.4357,7,0,1.2404,,,,,,77,0,77,0,1,,,,,
,,543133,001,2023-07-24_21h06.04.812,arm3_eps,2022.2.5,Win32,75.08071177,611ffdb45eb3cf8c95508295,64aea9d0f615b6559c281482,64becb54db92566c53602d47,up,-1,0.3,0.4357,6,0,1.1872,,,,,,78,0,78,0,1,,,,,
,,543133,001,2023-07-24_21h06.04.812,arm3_eps,2022.2.5,Win32,75.08071177,611ffdb45eb3cf8c95508295,64aea9d0f615b6559c281482,64becb54db92566c53602d47,up,-1,0.3,0.4357,6,0,1.3603,,,,,,79,0,79,0,1,,,,,
,,543133,001,2023-07-24_21h06.04.812,arm3_eps,2022.2.5,Win32,75.08071177,611ffdb45eb3cf8c95508295,64aea9d0f615b6559c281482,64becb54db92566c53602d47,up,-1,0.3,0.4357,6,0,1.0536,,,,,,80,0,80,0,1,,,,,
,,543133,001,2023-07-24_21h06.04.812,arm3_eps,2022.2.5,Win32,75.08071177,611ffdb45eb3cf8c95508295,64aea9d0f615b6559c281482,64becb54db92566c53602d47,up,1,0.3,0.4357,6,0,0.9737,,,,,,81,0,81,0,1,,,,,
,,543133,001,2023-07-24_21h06.04.812,arm3_eps,2022.2.5,Win32,75.08071177,611ffdb45eb3cf8c95508295,64aea9d0f615b6559c281482,64becb54db92566c53602d47,up,1,0.3,0.4357,6,0,0.921,,,,,,82,0,82,0,1,,,,,
,,543133,001,2023-07-24_21h06.04.812,arm3_eps,2022.2.5,Win32,75.08071177,611ffdb45eb3cf8c95508295,64aea9d0f615b6559c281482,64becb54db92566c53602d47,up,-1,0.3,0.4357,6,0,0.8536,,,,,,83,0,83,0,1,,,,,
,,543133,001,2023-07-24_21h06.04.812,arm3_eps,2022.2.5,Win32,75.08071177,611ffdb45eb3cf8c95508295,64aea9d0f615b6559c281482,64becb54db92566c53602d47,up,-1,0.3,0.4357,6,0,0.8539,,,,,,84,0,84,0,1,,,,,
,,543133,001,2023-07-24_21h06.04.812,arm3_eps,2022.2.5,Win32,75.08071177,611ffdb45eb3cf8c95508295,64aea9d0f615b6559c281482,64becb54db92566c53602d47,up,-1,0.3,0.4357,6,0,0.9211,,,,,,85,0,85,0,1,,,,,
,,543133,001,2023-07-24_21h06.04.812,arm3_eps,2022.2.5,Win32,75.08071177,611ffdb45eb3cf8c95508295,64aea9d0f615b6559c281482,64becb54db92566c53602d47,up,-1,0.3,0.4357,6,0,0.9608,,,,,,86,0,86,0,1,,,,,
,,543133,001,2023-07-24_21h06.04.812,arm3_eps,2022.2.5,Win32,75.08071177,611ffdb45eb3cf8c95508295,64aea9d0f615b6559c281482,64becb54db92566c53602d47,up,-1,0.3,0.4357,5,0,0.827,,,,,,87,0,87,0,1,,,,,
,,543133,001,2023-07-24_21h06.04.812,arm3_eps,2022.2.5,Win32,75.08071177,611ffdb45eb3cf8c95508295,64aea9d0f615b6559c281482,64becb54db92566c53602d47,up,-1,0.3,0.4357,5,0,1.0272,,,,,,88,0,88,0,1,,,,,
,,543133,001,2023-07-24_21h06.04.812,arm3_eps,2022.2.5,Win32,75.08071177,611ffdb45eb3cf8c95508295,64aea9d0f615b6559c281482,64becb54db92566c53602d47,down,-1,0.3,0.4357,5,0,1.2983,,,,,,89,0,89,0,1,,,,,
,,543133,001,2023-07-24_21h06.04.812,arm3_eps,2022.2.5,Win32,75.08071177,611ffdb45eb3cf8c95508295,64aea9d0f615b6559c281482,64becb54db92566c53602d47,up,-1,0.3,0.4357,5,0,1.4266,,,,,,90,0,90,0,1,,,,,
,,543133,001,2023-07-24_21h06.04.812,arm3_eps,2022.2.5,Win32,75.08071177,611ffdb45eb3cf8c95508295,64aea9d0f615b6559c281482,64becb54db92566c53602d47,up,-1,0.3,0.4357,4,0,1.4003,,,,,,91,0,91,0,1,,,,,
,,543133,001,2023-07-24_21h06.04.812,arm3_eps,2022.2.5,Win32,75.08071177,611ffdb45eb3cf8c95508295,64aea9d0f615b6559c281482,64becb54db92566c53602d47,up,1,0.3,0.4357,4,0,1.6124,,,,,,92,0,92,0,1,,,,,
,,543133,001,2023-07-24_21h06.04.812,arm3_eps,2022.2.5,Win32,75.08071177,611ffdb45eb3cf8c95508295,64aea9d0f615b6559c281482,64becb54db92566c53602d47,up,1,0.3,0.4357,4,0,1.4943,,,,,,93,0,93,0,1,,,,,
,,543133,001,2023-07-24_21h06.04.812,arm3_eps,2022.2.5,Win32,75.08071177,611ffdb45eb3cf8c95508295,64aea9d0f615b6559c281482,64becb54db92566c53602d47,up,-1,0.3,0.4357,4,0,1.4269,,,,,,94,0,94,0,1,,,,,
,,543133,001,2023-07-24_21h06.04.812,arm3_eps,2022.2.5,Win32,75.08071177,611ffdb45eb3cf8c95508295,64aea9d0f615b6559c281482,64becb54db92566c53602d47,up,-1,0.3,0.4357,4,0,1.3202,,,,,,95,0,95,0,1,,,,,
,,543133,001,2023-07-24_21h06.04.812,arm3_eps,2022.2.5,Win32,75.08071177,611ffdb45eb3cf8c95508295,64aea9d0f615b6559c281482,64becb54db92566c53602d47,up,-1,0.3,0.4357,4,0,1.2958,,,,,,96,0,96,0,1,,,,,
,,543133,001,2023-07-24_21h06.04.812,arm3_eps,2022.2.5,Win32,75.08071177,611ffdb45eb3cf8c95508295,64aea9d0f615b6559c281482,64becb54db92566c53602d47,up,-1,0.3,0.4357,4,0,1.9596,,,,,,97,0,97,0,1,,,,,
,,543133,001,2023-07-24_21h06.04.812,arm3_eps,2022.2.5,Win32,75.08071177,611ffdb45eb3cf8c95508295,64aea9d0f615b6559c281482,64becb54db92566c53602d47,up,1,0.3,0.4357,4,0,1.3872,,,,,,98,0,98,0,1,,,,,
,,543133,001,2023-07-24_21h06.04.812,arm3_eps,2022.2.5,Win32,75.08071177,611ffdb45eb3cf8c95508295,64aea9d0f615b6559c281482,64becb54db92566c53602d47,up,1,0.3,0.4357,5,0,1.4274,,,,,,99,0,99,0,1,,,,,
,,543133,001,2023-07-24_21h06.04.812,arm3_eps,2022.2.5,Win32,75.08071177,611ffdb45eb3cf8c95508295,64aea9d0f615b6559c281482,64becb54db92566c53602d47,up,1,0.3,0.4357,5,0,1.3204,,,,,,100,0,100,0,1,,,,,
,,543133,001,2023-07-24_21h06.04.812,arm3_eps,2022.2.5,Win32,75.08071177,611ffdb45eb3cf8c95508295,64aea9d0f615b6559c281482,64becb54db92566c53602d47,up,-1,0.3,0.4357,5,0,1.2006,,,,,,101,0,101,0,1,,,,,
,,543133,001,2023-07-24_21h06.04.812,arm3_eps,2022.2.5,Win32,75.08071177,611ffdb45eb3cf8c95508295,64aea9d0f615b6559c281482,64becb54db92566c53602d47,down,-1,0.3,0.4357,5,0,1.3736,,,,,,102,0,102,0,1,,,,,
,,543133,001,2023-07-24_21h06.04.812,arm3_eps,2022.2.5,Win32,75.08071177,611ffdb45eb3cf8c95508295,64aea9d0f615b6559c281482,64becb54db92566c53602d47,down,-1,0.3,0.4357,5,0,1.4003,,,,,,103,0,103,0,1,,,,,
,,543133,001,2023-07-24_21h06.04.812,arm3_eps,2022.2.5,Win32,75.08071177,611ffdb45eb3cf8c95508295,64aea9d0f615b6559c281482,64becb54db92566c53602d47,down,1,0.3,0.4357,6,0,1.4943,,,,,,104,0,104,0,1,,,,,
,,543133,001,2023-07-24_21h06.04.812,arm3_eps,2022.2.5,Win32,75.08071177,611ffdb45eb3cf8c95508295,64aea9d0f615b6559c281482,64becb54db92566c53602d47,up,1,0.3,0.4357,6,0,1.467,,,,,,105,0,105,0,1,,,,,
,,543133,001,2023-07-24_21h06.04.812,arm3_eps,2022.2.5,Win32,75.08071177,611ffdb45eb3cf8c95508295,64aea9d0f615b6559c281482,64becb54db92566c53602d47,up,-1,0.3,0.4357,6,0,1.1339,,,,,,106,0,106,0,1,,,,,
,,543133,001,2023-07-24_21h06.04.812,arm3_eps,2022.2.5,Win32,75.08071177,611ffdb45eb3cf8c95508295,64aea9d0f615b6559c281482,64becb54db92566c53602d47,up,-1,0.3,0.4357,6,0,0.6805,,,,,,107,0,107,0,1,,,,,
,,543133,001,2023-07-24_21h06.04.812,arm3_eps,2022.2.5,Win32,75.08071177,611ffdb45eb3cf8c95508295,64aea9d0f615b6559c281482,64becb54db92566c53602d47,down,-1,0.3,0.4357,6,0,1.3206,,,,,,108,0,108,0,1,,,,,
,,543133,001,2023-07-24_21h06.04.812,arm3_eps,2022.2.5,Win32,75.08071177,611ffdb45eb3cf8c95508295,64aea9d0f615b6559c281482,64becb54db92566c53602d47,down,-1,0.3,0.4357,6,0,1.0537,,,,,,109,0,109,0,1,,,,,
,,543133,001,2023-07-24_21h06.04.812,arm3_eps,2022.2.5,Win32,75.08071177,611ffdb45eb3cf8c95508295,64aea9d0f615b6559c281482,64becb54db92566c53602d47,down,-1,0.3,0.4357,6,0,0.9334,,,,,,110,0,110,0,1,,,,,
,,543133,001,2023-07-24_21h06.04.812,arm3_eps,2022.2.5,Win32,75.08071177,611ffdb45eb3cf8c95508295,64aea9d0f615b6559c281482,64becb54db92566c53602d47,up,-1,0.3,0.4357,6,0,1.2941,,,,,,111,0,111,0,1,,,,,
,,543133,001,2023-07-24_21h06.04.812,arm3_eps,2022.2.5,Win32,75.08071177,611ffdb45eb3cf8c95508295,64aea9d0f615b6559c281482,64becb54db92566c53602d47,down,1,0.3,0.4357,7,0,1.0938,,,,,,112,0,112,0,1,,,,,
,,543133,001,2023-07-24_21h06.04.812,arm3_eps,2022.2.5,Win32,75.08071177,611ffdb45eb3cf8c95508295,64aea9d0f615b6559c281482,64becb54db92566c53602d47,down,-1,0.3,0.4357,7,0,1.4271,,,,,,113,0,113,0,1,,,,,
,,543133,001,2023-07-24_21h06.04.812,arm3_eps,2022.2.5,Win32,75.08071177,611ffdb45eb3cf8c95508295,64aea9d0f615b6559c281482,64becb54db92566c53602d47,down,-1,0.3,0.4357,7,0,1.0589,,,,,,114,0,114,0,1,,,,,
,,543133,001,2023-07-24_21h06.04.812,arm3_eps,2022.2.5,Win32,75.08071177,611ffdb45eb3cf8c95508295,64aea9d0f615b6559c281482,64becb54db92566c53602d47,down,-1,0.3,0.4357,7,0,1.2671,,,,,,115,0,115,0,1,,,,,
,,543133,001,2023-07-24_21h06.04.812,arm3_eps,2022.2.5,Win32,75.08071177,611ffdb45eb3cf8c95508295,64aea9d0f615b6559c281482,64becb54db92566c53602d47,up,1,0.3,0.4357,7,0,1.5737,,,,,,116,0,116,0,1,,,,,
,,543133,001,2023-07-24_21h06.04.812,arm3_eps,2022.2.5,Win32,75.08071177,611ffdb45eb3cf8c95508295,64aea9d0f615b6559c281482,64becb54db92566c53602d47,up,-1,0.3,0.4357,7,0,1.1604,,,,,,117,0,117,0,1,,,,,
,,543133,001,2023-07-24_21h06.04.812,arm3_eps,2022.2.5,Win32,75.08071177,611ffdb45eb3cf8c95508295,64aea9d0f615b6559c281482,64becb54db92566c53602d47,down,-1,0.3,0.4357,8,0,1.7201,,,,,,118,0,118,0,1,,,,,
,,543133,001,2023-07-24_21h06.04.812,arm3_eps,2022.2.5,Win32,75.08071177,611ffdb45eb3cf8c95508295,64aea9d0f615b6559c281482,64becb54db92566c53602d47,up,-1,0.3,0.4357,8,0,1.1742,,,,,,119,0,119,0,1,,,,,
,,543133,001,2023-07-24_21h06.04.812,arm3_eps,2022.2.5,Win32,75.08071177,611ffdb45eb3cf8c95508295,64aea9d0f615b6559c281482,64becb54db92566c53602d47,up,1,0.3,0.4357,8,0,0.8539,,,,,,120,0,120,0,1,,,,,
,,543133,001,2023-07-24_21h06.04.812,arm3_eps,2022.2.5,Win32,75.08071177,611ffdb45eb3cf8c95508295,64aea9d0f615b6559c281482,64becb54db92566c53602d47,down,1,0.3,0.4357,8,0,1.5737,,,,,,121,0,121,0,1,,,,,
,,543133,001,2023-07-24_21h06.04.812,arm3_eps,2022.2.5,Win32,75.08071177,611ffdb45eb3cf8c95508295,64aea9d0f615b6559c281482,64becb54db92566c53602d47,up,1,0.3,0.4357,9,0,1.1338,,,,,,122,0,122,0,1,,,,,
,,543133,001,2023-07-24_21h06.04.812,arm3_eps,2022.2.5,Win32,75.08071177,611ffdb45eb3cf8c95508295,64aea9d0f615b6559c281482,64becb54db92566c53602d47,down,1,0.3,0.4357,9,0,1.3072,,,,,,123,0,123,0,1,,,,,
,,543133,001,2023-07-24_21h06.04.812,arm3_eps,2022.2.5,Win32,75.08071177,611ffdb45eb3cf8c95508295,64aea9d0f615b6559c281482,64becb54db92566c53602d47,up,-1,0.3,0.4357,10,0,1.1739,,,,,,124,0,124,0,1,,,,,
,,543133,001,2023-07-24_21h06.04.812,arm3_eps,2022.2.5,Win32,75.08071177,611ffdb45eb3cf8c95508295,64aea9d0f615b6559c281482,64becb54db92566c53602d47,up,-1,0.3,0.4357,10,0,1.2402,,,,,,125,0,125,0,1,,,,,
,,543133,001,2023-07-24_21h06.04.812,arm3_eps,2022.2.5,Win32,75.08071177,611ffdb45eb3cf8c95508295,64aea9d0f615b6559c281482,64becb54db92566c53602d47,down,-1,0.3,0.4357,10,0,1.1196,,,,,,126,0,126,0,1,,,,,
,,543133,001,2023-07-24_21h06.04.812,arm3_eps,2022.2.5,Win32,75.08071177,611ffdb45eb3cf8c95508295,64aea9d0f615b6559c281482,64becb54db92566c53602d47,down,1,0.3,0.4357,10,0,1.1206,,,,,,127,0,127,0,1,,,,,
,,543133,001,2023-07-24_21h06.04.812,arm3_eps,2022.2.5,Win32,75.08071177,611ffdb45eb3cf8c95508295,64aea9d0f615b6559c281482,64becb54db92566c53602d47,down,1,0.3,0.4357,10,0,1.4162,,,,,,128,0,128,0,1,,,,,
,,543133,001,2023-07-24_21h06.04.812,arm3_eps,2022.2.5,Win32,75.08071177,611ffdb45eb3cf8c95508295,64aea9d0f615b6559c281482,64becb54db92566c53602d47,up,-1,0.3,0.4357,10,0,1.2001,,,,,,129,0,129,0,1,,,,,
,,543133,001,2023-07-24_21h06.04.812,arm3_eps,2022.2.5,Win32,75.08071177,611ffdb45eb3cf8c95508295,64aea9d0f615b6559c281482,64becb54db92566c53602d47,up,1,0.3,0.4357,9,0,1.1073,,,,,,130,0,130,0,1,,,,,
,,543133,001,2023-07-24_21h06.04.812,arm3_eps,2022.2.5,Win32,75.08071177,611ffdb45eb3cf8c95508295,64aea9d0f615b6559c281482,64becb54db92566c53602d47,down,1,0.3,0.4357,9,0,1.241,,,,,,131,0,131,0,1,,,,,
,,543133,001,2023-07-24_21h06.04.812,arm3_eps,2022.2.5,Win32,75.08071177,611ffdb45eb3cf8c95508295,64aea9d0f615b6559c281482,64becb54db92566c53602d47,up,1,0.3,0.4357,10,0,1.0944,,,,,,132,0,132,0,1,,,,,
,,543133,001,2023-07-24_21h06.04.812,arm3_eps,2022.2.5,Win32,75.08071177,611ffdb45eb3cf8c95508295,64aea9d0f615b6559c281482,64becb54db92566c53602d47,up,1,0.3,0.4357,10,0,1.0936,,,,,,133,0,133,0,1,,,,,
,,543133,001,2023-07-24_21h06.04.812,arm3_eps,2022.2.5,Win32,75.08071177,611ffdb45eb3cf8c95508295,64aea9d0f615b6559c281482,64becb54db92566c53602d47,up,1,0.3,0.4357,11,0,1.1474,,,,,,134,0,134,0,1,,,,,
,,543133,001,2023-07-24_21h06.04.812,arm3_eps,2022.2.5,Win32,75.08071177,611ffdb45eb3cf8c95508295,64aea9d0f615b6559c281482,64becb54db92566c53602d47,up,-1,0.3,0.4357,11,0,1.2673,,,,,,135,0,135,0,1,,,,,
,,543133,001,2023-07-24_21h06.04.812,arm3_eps,2022.2.5,Win32,75.08071177,611ffdb45eb3cf8c95508295,64aea9d0f615b6559c281482,64becb54db92566c53602d47,down,-1,0.3,0.4357,11,0,1.187,,,,,,136,0,136,0,1,,,,,
,,543133,001,2023-07-24_21h06.04.812,arm3_eps,2022.2.5,Win32,75.08071177,611ffdb45eb3cf8c95508295,64aea9d0f615b6559c281482,64becb54db92566c53602d47,down,1,0.3,0.4357,11,0,1.0411,,,,,,137,0,137,0,1,,,,,
,,543133,001,2023-07-24_21h06.04.812,arm3_eps,2022.2.5,Win32,75.08071177,611ffdb45eb3cf8c95508295,64aea9d0f615b6559c281482,64becb54db92566c53602d47,up,1,0.3,0.4357,11,0,1.5604,,,,,,138,0,138,0,1,,,,,
,,543133,001,2023-07-24_21h06.04.812,arm3_eps,2022.2.5,Win32,75.08071177,611ffdb45eb3cf8c95508295,64aea9d0f615b6559c281482,64becb54db92566c53602d47,up,1,0.3,0.4357,11,0,1.2544,,,,,,139,0,139,0,1,,,,,
,,543133,001,2023-07-24_21h06.04.812,arm3_eps,2022.2.5,Win32,75.08071177,611ffdb45eb3cf8c95508295,64aea9d0f615b6559c281482,64becb54db92566c53602d47,up,-1,0.3,0.4357,11,0,1.1206,,,,,,140,0,140,0,1,,,,,
,,543133,001,2023-07-24_21h06.04.812,arm3_eps,2022.2.5,Win32,75.08071177,611ffdb45eb3cf8c95508295,64aea9d0f615b6559c281482,64becb54db92566c53602d47,down,1,0.3,0.4357,11,0,1.5469,,,,,,141,0,141,0,1,,,,,
,,543133,001,2023-07-24_21h06.04.812,arm3_eps,2022.2.5,Win32,75.08071177,611ffdb45eb3cf8c95508295,64aea9d0f615b6559c281482,64becb54db92566c53602d47,down,-1,0.3,0.4357,11,0,1.2011,,,,,,142,0,142,0,1,,,,,
,,543133,001,2023-07-24_21h06.04.812,arm3_eps,2022.2.5,Win32,75.08071177,611ffdb45eb3cf8c95508295,64aea9d0f615b6559c281482,64becb54db92566c53602d47,up,1,0.3,0.4357,11,0,1.1738,,,,,,143,0,143,0,1,,,,,
,,543133,001,2023-07-24_21h06.04.812,arm3_eps,2022.2.5,Win32,75.08071177,611ffdb45eb3cf8c95508295,64aea9d0f615b6559c281482,64becb54db92566c53602d47,down,-1,0.3,0.4357,11,0,1.0537,,,,,,144,0,144,0,1,,,,,
,,543133,001,2023-07-24_21h06.04.812,arm3_eps,2022.2.5,Win32,75.08071177,611ffdb45eb3cf8c95508295,64aea9d0f615b6559c281482,64becb54db92566c53602d47,down,-1,0.3,0.4357,12,0,1.4537,,,,,,145,0,145,0,1,,,,,
,,543133,001,2023-07-24_21h06.04.812,arm3_eps,2022.2.5,Win32,75.08071177,611ffdb45eb3cf8c95508295,64aea9d0f615b6559c281482,64becb54db92566c53602d47,down,-1,0.3,0.4357,12,0,1.6135,,,,,,146,0,146,0,1,,,,,
,,543133,001,2023-07-24_21h06.04.812,arm3_eps,2022.2.5,Win32,75.08071177,611ffdb45eb3cf8c95508295,64aea9d0f615b6559c281482,64becb54db92566c53602d47,up,1,0.3,0.4357,11,0,1.2142,,,,,,147,0,147,0,1,,,,,
,,543133,001,2023-07-24_21h06.04.812,arm3_eps,2022.2.5,Win32,75.08071177,611ffdb45eb3cf8c95508295,64aea9d0f615b6559c281482,64becb54db92566c53602d47,down,1,0.3,0.4357,11,0,1.2935,,,,,,148,0,148,0,1,,,,,
,,543133,001,2023-07-24_21h06.04.812,arm3_eps,2022.2.5,Win32,75.08071177,611ffdb45eb3cf8c95508295,64aea9d0f615b6559c281482,64becb54db92566c53602d47,down,-1,0.3,0.4357,11,0,1.1739,,,,,,149,0,149,0,1,,,,,
,,543133,001,2023-07-24_21h06.04.812,arm3_eps,2022.2.5,Win32,75.08071177,611ffdb45eb3cf8c95508295,64aea9d0f615b6559c281482,64becb54db92566c53602d47,up,-1,0.3,0.4357,10,0,1.4932,,,,,,150,0,150,0,1,,,,,
,,543133,001,2023-07-24_21h06.04.812,arm3_eps,2022.2.5,Win32,75.08071177,611ffdb45eb3cf8c95508295,64aea9d0f615b6559c281482,64becb54db92566c53602d47,up,1,0.3,0.4357,10,0,1.2937,,,,,,151,0,151,0,1,,,,,
,,543133,001,2023-07-24_21h06.04.812,arm3_eps,2022.2.5,Win32,75.08071177,611ffdb45eb3cf8c95508295,64aea9d0f615b6559c281482,64becb54db92566c53602d47,down,-1,0.3,0.4357,10,0,1.4935,,,,,,152,0,152,0,1,,,,,
,,543133,001,2023-07-24_21h06.04.812,arm3_eps,2022.2.5,Win32,75.08071177,611ffdb45eb3cf8c95508295,64aea9d0f615b6559c281482,64becb54db92566c53602d47,down,1,0.3,0.4357,10,0,1.3609,,,,,,153,0,153,0,1,,,,,
,,543133,001,2023-07-24_21h06.04.812,arm3_eps,2022.2.5,Win32,75.08071177,611ffdb45eb3cf8c95508295,64aea9d0f615b6559c281482,64becb54db92566c53602d47,up,-1,0.3,0.4357,11,0,1.2271,,,,,,154,0,154,0,1,,,,,
,,543133,001,2023-07-24_21h06.04.812,arm3_eps,2022.2.5,Win32,75.08071177,611ffdb45eb3cf8c95508295,64aea9d0f615b6559c281482,64becb54db92566c53602d47,down,1,0.3,0.4357,11,0,1.4136,,,,,,155,0,155,0,1,,,,,
,,543133,001,2023-07-24_21h06.04.812,arm3_eps,2022.2.5,Win32,75.08071177,611ffdb45eb3cf8c95508295,64aea9d0f615b6559c281482,64becb54db92566c53602d47,up,1,0.3,0.4357,11,0,1.6268,,,,,,156,0,156,0,1,,,,,
,,543133,001,2023-07-24_21h06.04.812,arm3_eps,2022.2.5,Win32,75.08071177,611ffdb45eb3cf8c95508295,64aea9d0f615b6559c281482,64becb54db92566c53602d47,up,1,0.3,0.4357,11,0,1.9869,,,,,,157,0,157,0,1,,,,,
,,543133,001,2023-07-24_21h06.04.812,arm3_eps,2022.2.5,Win32,75.08071177,611ffdb45eb3cf8c95508295,64aea9d0f615b6559c281482,64becb54db92566c53602d47,down,1,0.3,0.4357,11,0,1.5465,,,,,,158,0,158,0,1,,,,,
,,543133,001,2023-07-24_21h06.04.812,arm3_eps,2022.2.5,Win32,75.08071177,611ffdb45eb3cf8c95508295,64aea9d0f615b6559c281482,64becb54db92566c53602d47,down,-1,0.3,0.4357,11,0,1.8403,,,,,,159,0,159,0,1,,,,,
,,543133,001,2023-07-24_21h06.04.812,arm3_eps,2022.2.5,Win32,75.08071177,611ffdb45eb3cf8c95508295,64aea9d0f615b6559c281482,64becb54db92566c53602d47,up,-1,0.3,0.4357,11,0,3.0798,,,,,,160,0,160,0,1,,,,,
,,543133,001,2023-07-24_21h06.04.812,arm3_eps,2022.2.5,Win32,75.08071177,611ffdb45eb3cf8c95508295,64aea9d0f615b6559c281482,64becb54db92566c53602d47,down,1,0.3,0.4357,11,0,1.3335,,,,,,161,0,161,0,1,,,,,
,,543133,001,2023-07-24_21h06.04.812,arm3_eps,2022.2.5,Win32,75.08071177,611ffdb45eb3cf8c95508295,64aea9d0f615b6559c281482,64becb54db92566c53602d47,up,-1,0.3,0.4357,11,0,1.1477,,,,,,162,0,162,0,1,,,,,
,,543133,001,2023-07-24_21h06.04.812,arm3_eps,2022.2.5,Win32,75.08071177,611ffdb45eb3cf8c95508295,64aea9d0f615b6559c281482,64becb54db92566c53602d47,down,-1,0.3,0.4357,11,0,1.1605,,,,,,163,0,163,0,1,,,,,
,,543133,001,2023-07-24_21h06.04.812,arm3_eps,2022.2.5,Win32,75.08071177,611ffdb45eb3cf8c95508295,64aea9d0f615b6559c281482,64becb54db92566c53602d47,down,-1,0.3,0.4357,11,0,1.3604,,,,,,164,0,164,0,1,,,,,
,,543133,001,2023-07-24_21h06.04.812,arm3_eps,2022.2.5,Win32,75.08071177,611ffdb45eb3cf8c95508295,64aea9d0f615b6559c281482,64becb54db92566c53602d47,down,-1,0.3,0.4357,11,0,1.3069,,,,,,165,0,165,0,1,,,,,
,,543133,001,2023-07-24_21h06.04.812,arm3_eps,2022.2.5,Win32,75.08071177,611ffdb45eb3cf8c95508295,64aea9d0f615b6559c281482,64becb54db92566c53602d47,down,1,0.3,0.4357,11,0,1.6538,,,,,,166,0,166,0,1,,,,,
,,543133,001,2023-07-24_21h06.04.812,arm3_eps,2022.2.5,Win32,75.08071177,611ffdb45eb3cf8c95508295,64aea9d0f615b6559c281482,64becb54db92566c53602d47,down,1,0.3,0.4357,10,0,1.1338,,,,,,167,0,167,0,1,,,,,
,,543133,001,2023-07-24_21h06.04.812,arm3_eps,2022.2.5,Win32,75.08071177,611ffdb45eb3cf8c95508295,64aea9d0f615b6559c281482,64becb54db92566c53602d47,down,1,0.3,0.4357,10,0,1.3874,,,,,,168,0,168,0,1,,,,,
,,543133,001,2023-07-24_21h06.04.812,arm3_eps,2022.2.5,Win32,75.08071177,611ffdb45eb3cf8c95508295,64aea9d0f615b6559c281482,64becb54db92566c53602d47,up,-1,0.3,0.4357,10,0,1.147,,,,,,169,0,169,0,1,,,,,
,,543133,001,2023-07-24_21h06.04.812,arm3_eps,2022.2.5,Win32,75.08071177,611ffdb45eb3cf8c95508295,64aea9d0f615b6559c281482,64becb54db92566c53602d47,up,-1,0.3,0.4357,10,0,1.1475,,,,,,170,0,170,0,1,,,,,
,,543133,001,2023-07-24_21h06.04.812,arm3_eps,2022.2.5,Win32,75.08071177,611ffdb45eb3cf8c95508295,64aea9d0f615b6559c281482,64becb54db92566c53602d47,down,-1,0.3,0.4357,10,0,1.4933,,,,,,171,0,171,0,1,,,,,
,,543133,001,2023-07-24_21h06.04.812,arm3_eps,2022.2.5,Win32,75.08071177,611ffdb45eb3cf8c95508295,64aea9d0f615b6559c281482,64becb54db92566c53602d47,down,-1,0.3,0.4357,11,0,1.7468,,,,,,172,0,172,0,1,,,,,
,,543133,001,2023-07-24_21h06.04.812,arm3_eps,2022.2.5,Win32,75.08071177,611ffdb45eb3cf8c95508295,64aea9d0f615b6559c281482,64becb54db92566c53602d47,up,1,0.3,0.4357,11,0,2.1598,,,,,,173,0,173,0,1,,,,,
,,543133,001,2023-07-24_21h06.04.812,arm3_eps,2022.2.5,Win32,75.08071177,611ffdb45eb3cf8c95508295,64aea9d0f615b6559c281482,64becb54db92566c53602d47,down,-1,0.3,0.4357,11,0,1.4535,,,,,,174,0,174,0,1,,,,,
,,543133,001,2023-07-24_21h06.04.812,arm3_eps,2022.2.5,Win32,75.08071177,611ffdb45eb3cf8c95508295,64aea9d0f615b6559c281482,64becb54db92566c53602d47,down,-1,0.3,0.4357,11,0,1.0805,,,,,,175,0,175,0,1,,,,,
,,543133,001,2023-07-24_21h06.04.812,arm3_eps,2022.2.5,Win32,75.08071177,611ffdb45eb3cf8c95508295,64aea9d0f615b6559c281482,64becb54db92566c53602d47,down,-1,0.3,0.4357,12,0,1.1741,,,,,,176,0,176,0,1,,,,,
,,543133,001,2023-07-24_21h06.04.812,arm3_eps,2022.2.5,Win32,75.08071177,611ffdb45eb3cf8c95508295,64aea9d0f615b6559c281482,64becb54db92566c53602d47,up,-1,0.3,0.4357,12,0,1.2536,,,,,,177,0,177,0,1,,,,,
,,543133,001,2023-07-24_21h06.04.812,arm3_eps,2022.2.5,Win32,75.08071177,611ffdb45eb3cf8c95508295,64aea9d0f615b6559c281482,64becb54db92566c53602d47,down,-1,0.3,0.4357,12,0,1.3465,,,,,,178,0,178,0,1,,,,,
,,543133,001,2023-07-24_21h06.04.812,arm3_eps,2022.2.5,Win32,75.08071177,611ffdb45eb3cf8c95508295,64aea9d0f615b6559c281482,64becb54db92566c53602d47,down,-1,0.3,0.4357,12,0,1.0671,,,,,,179,0,179,0,1,,,,,
,,543133,001,2023-07-24_21h06.04.812,arm3_eps,2022.2.5,Win32,75.08071177,611ffdb45eb3cf8c95508295,64aea9d0f615b6559c281482,64becb54db92566c53602d47,down,-1,0.3,0.4357,12,0,1.0537,,,,,,180,0,180,0,1,,,,,
,,543133,001,2023-07-24_21h06.04.812,arm3_eps,2022.2.5,Win32,75.08071177,611ffdb45eb3cf8c95508295,64aea9d0f615b6559c281482,64becb54db92566c53602d47,up,1,0.3,0.4357,12,0,1.214,,,,,,181,0,181,0,1,,,,,
,,543133,001,2023-07-24_21h06.04.812,arm3_eps,2022.2.5,Win32,75.08071177,611ffdb45eb3cf8c95508295,64aea9d0f615b6559c281482,64becb54db92566c53602d47,down,-1,0.3,0.4357,11,0,1.1608,,,,,,182,0,182,0,1,,,,,
,,543133,001,2023-07-24_21h06.04.812,arm3_eps,2022.2.5,Win32,75.08071177,611ffdb45eb3cf8c95508295,64aea9d0f615b6559c281482,64becb54db92566c53602d47,down,-1,0.3,0.4357,12,0,1.1738,,,,,,183,0,183,0,1,,,,,
,,543133,001,2023-07-24_21h06.04.812,arm3_eps,2022.2.5,Win32,75.08071177,611ffdb45eb3cf8c95508295,64aea9d0f615b6559c281482,64becb54db92566c53602d47,up,-1,0.3,0.4357,11,0,1.3203,,,,,,184,0,184,0,1,,,,,
,,543133,001,2023-07-24_21h06.04.812,arm3_eps,2022.2.5,Win32,75.08071177,611ffdb45eb3cf8c95508295,64aea9d0f615b6559c281482,64becb54db92566c53602d47,up,1,0.3,0.4357,11,0,1.28,,,,,,185,0,185,0,1,,,,,
,,543133,001,2023-07-24_21h06.04.812,arm3_eps,2022.2.5,Win32,75.08071177,611ffdb45eb3cf8c95508295,64aea9d0f615b6559c281482,64becb54db92566c53602d47,up,1,0.3,0.4357,11,0,1.4273,,,,,,186,0,186,0,1,,,,,
,,543133,001,2023-07-24_21h06.04.812,arm3_eps,2022.2.5,Win32,75.08071177,611ffdb45eb3cf8c95508295,64aea9d0f615b6559c281482,64becb54db92566c53602d47,up,-1,0.3,0.4357,11,0,1.3736,,,,,,187,0,187,0,1,,,,,
,,543133,001,2023-07-24_21h06.04.812,arm3_eps,2022.2.5,Win32,75.08071177,611ffdb45eb3cf8c95508295,64aea9d0f615b6559c281482,64becb54db92566c53602d47,up,-1,0.3,0.4357,10,0,1.1342,,,,,,188,0,188,0,1,,,,,
,,543133,001,2023-07-24_21h06.04.812,arm3_eps,2022.2.5,Win32,75.08071177,611ffdb45eb3cf8c95508295,64aea9d0f615b6559c281482,64becb54db92566c53602d47,up,1,0.3,0.4357,10,0,1.1737,,,,,,189,0,189,0,1,,,,,
,,543133,001,2023-07-24_21h06.04.812,arm3_eps,2022.2.5,Win32,75.08071177,611ffdb45eb3cf8c95508295,64aea9d0f615b6559c281482,64becb54db92566c53602d47,up,-1,0.3,0.4357,10,0,1.2402,,,,,,190,0,190,0,1,,,,,
,,543133,001,2023-07-24_21h06.04.812,arm3_eps,2022.2.5,Win32,75.08071177,611ffdb45eb3cf8c95508295,64aea9d0f615b6559c281482,64becb54db92566c53602d47,down,-1,0.3,0.4357,11,0,1.1867,,,,,,191,0,191,0,1,,,,,
,,543133,001,2023-07-24_21h06.04.812,arm3_eps,2022.2.5,Win32,75.08071177,611ffdb45eb3cf8c95508295,64aea9d0f615b6559c281482,64becb54db92566c53602d47,down,-1,0.3,0.4357,11,0,1.161,,,,,,192,0,192,0,1,,,,,
,,543133,001,2023-07-24_21h06.04.812,arm3_eps,2022.2.5,Win32,75.08071177,611ffdb45eb3cf8c95508295,64aea9d0f615b6559c281482,64becb54db92566c53602d47,down,-1,0.3,0.4357,11,0,1.1072,,,,,,193,0,193,0,1,,,,,
,,543133,001,2023-07-24_21h06.04.812,arm3_eps,2022.2.5,Win32,75.08071177,611ffdb45eb3cf8c95508295,64aea9d0f615b6559c281482,64becb54db92566c53602d47,down,-1,0.3,0.4357,11,0,1.0002,,,,,,194,0,194,0,1,,,,,
,,543133,001,2023-07-24_21h06.04.812,arm3_eps,2022.2.5,Win32,75.08071177,611ffdb45eb3cf8c95508295,64aea9d0f615b6559c281482,64becb54db92566c53602d47,down,-1,0.3,0.4357,11,0,1.0135,,,,,,195,0,195,0,1,,,,,
,,543133,001,2023-07-24_21h06.04.812,arm3_eps,2022.2.5,Win32,75.08071177,611ffdb45eb3cf8c95508295,64aea9d0f615b6559c281482,64becb54db92566c53602d47,down,-1,0.3,0.4357,11,0,1.3741,,,,,,196,0,196,0,1,,,,,
,,543133,001,2023-07-24_21h06.04.812,arm3_eps,2022.2.5,Win32,75.08071177,611ffdb45eb3cf8c95508295,64aea9d0f615b6559c281482,64becb54db92566c53602d47,up,-1,0.3,0.4357,10,0,1.2003,,,,,,197,0,197,0,1,,,,,
,,543133,001,2023-07-24_21h06.04.812,arm3_eps,2022.2.5,Win32,75.08071177,611ffdb45eb3cf8c95508295,64aea9d0f615b6559c281482,64becb54db92566c53602d47,down,1,0.3,0.4357,10,0,1.7342,,,,,,198,0,198,0,1,,,,,
,,543133,001,2023-07-24_21h06.04.812,arm3_eps,2022.2.5,Win32,75.08071177,611ffdb45eb3cf8c95508295,64aea9d0f615b6559c281482,64becb54db92566c53602d47,down,1,0.3,0.4357,9,0,1.0674,,,,,,199,0,199,0,1,,,,,
,,543133,001,2023-07-24_21h06.04.812,arm3_eps,2022.2.5,Win32,75.08071177,611ffdb45eb3cf8c95508295,64aea9d0f615b6559c281482,64becb54db92566c53602d47,up,-1,0.3,0.4357,9,0,1.2269,,,,,,200,0,200,0,1,,,,,
,,543133,001,2023-07-24_21h06.04.812,arm3_eps,2022.2.5,Win32,75.08071177,611ffdb45eb3cf8c95508295,64aea9d0f615b6559c281482,64becb54db92566c53602d47,down,-1,0.3,0.4357,10,0,1.1733,,,,,,201,0,201,0,1,,,,,
,,543133,001,2023-07-24_21h06.04.812,arm3_eps,2022.2.5,Win32,75.08071177,611ffdb45eb3cf8c95508295,64aea9d0f615b6559c281482,64becb54db92566c53602d47,up,-1,0.3,0.4357,9,0,1.1866,,,,,,202,0,202,0,1,,,,,
,,543133,001,2023-07-24_21h06.04.812,arm3_eps,2022.2.5,Win32,75.08071177,611ffdb45eb3cf8c95508295,64aea9d0f615b6559c281482,64becb54db92566c53602d47,down,1,0.3,0.4357,10,0,0.9868,,,,,,203,0,203,0,1,,,,,
,,543133,001,2023-07-24_21h06.04.812,arm3_eps,2022.2.5,Win32,75.08071177,611ffdb45eb3cf8c95508295,64aea9d0f615b6559c281482,64becb54db92566c53602d47,up,1,0.3,0.4357,11,0,1.4536,,,,,,204,0,204,0,1,,,,,
,,543133,001,2023-07-24_21h06.04.812,arm3_eps,2022.2.5,Win32,75.08071177,611ffdb45eb3cf8c95508295,64aea9d0f615b6559c281482,64becb54db92566c53602d47,up,1,0.3,0.4357,11,0,1.5466,,,,,,205,0,205,0,1,,,,,
,,543133,001,2023-07-24_21h06.04.812,arm3_eps,2022.2.5,Win32,75.08071177,611ffdb45eb3cf8c95508295,64aea9d0f615b6559c281482,64becb54db92566c53602d47,down,1,0.3,0.4357,10,0,1.2268,,,,,,206,0,206,0,1,,,,,
,,543133,001,2023-07-24_21h06.04.812,arm3_eps,2022.2.5,Win32,75.08071177,611ffdb45eb3cf8c95508295,64aea9d0f615b6559c281482,64becb54db92566c53602d47,up,-1,0.3,0.4357,11,0,1.0537,,,,,,207,0,207,0,1,,,,,
,,543133,001,2023-07-24_21h06.04.812,arm3_eps,2022.2.5,Win32,75.08071177,611ffdb45eb3cf8c95508295,64aea9d0f615b6559c281482,64becb54db92566c53602d47,up,-1,0.3,0.4357,11,0,1.9203,,,,,,208,0,208,0,1,,,,,
,,543133,001,2023-07-24_21h06.04.812,arm3_eps,2022.2.5,Win32,75.08071177,611ffdb45eb3cf8c95508295,64aea9d0f615b6559c281482,64becb54db92566c53602d47,down,1,0.3,0.4357,12,0,1.2135,,,,,,209,0,209,0,1,,,,,
,,543133,001,2023-07-24_21h06.04.812,arm3_eps,2022.2.5,Win32,75.08071177,611ffdb45eb3cf8c95508295,64aea9d0f615b6559c281482,64becb54db92566c53602d47,up,1,0.3,0.4357,13,0,1.4404,,,,,,210,0,210,0,1,,,,,
,,543133,001,2023-07-24_21h06.04.812,arm3_eps,2022.2.5,Win32,75.08071177,611ffdb45eb3cf8c95508295,64aea9d0f615b6559c281482,64becb54db92566c53602d47,up,1,0.3,0.4357,13,0,1.587,,,,,,211,0,211,0,1,,,,,
,,543133,001,2023-07-24_21h06.04.812,arm3_eps,2022.2.5,Win32,75.08071177,611ffdb45eb3cf8c95508295,64aea9d0f615b6559c281482,64becb54db92566c53602d47,up,-1,0.3,0.4357,13,0,1.1071,,,,,,212,0,212,0,1,,,,,
,,543133,001,2023-07-24_21h06.04.812,arm3_eps,2022.2.5,Win32,75.08071177,611ffdb45eb3cf8c95508295,64aea9d0f615b6559c281482,64becb54db92566c53602d47,up,-1,0.3,0.4357,13,0,1.4137,,,,,,213,0,213,0,1,,,,,
,,543133,001,2023-07-24_21h06.04.812,arm3_eps,2022.2.5,Win32,75.08071177,611ffdb45eb3cf8c95508295,64aea9d0f615b6559c281482,64becb54db92566c53602d47,down,1,0.3,0.4357,14,0,1.7597,,,,,,214,0,214,0,1,,,,,
,,543133,001,2023-07-24_21h06.04.812,arm3_eps,2022.2.5,Win32,75.08071177,611ffdb45eb3cf8c95508295,64aea9d0f615b6559c281482,64becb54db92566c53602d47,down,-1,0.3,0.4357,14,0,2.16,,,,,,215,0,215,0,1,,,,,
,,543133,001,2023-07-24_21h06.04.812,arm3_eps,2022.2.5,Win32,75.08071177,611ffdb45eb3cf8c95508295,64aea9d0f615b6559c281482,64becb54db92566c53602d47,up,-1,0.3,0.4357,13,0,1.1204,,,,,,216,0,216,0,1,,,,,
,,543133,001,2023-07-24_21h06.04.812,arm3_eps,2022.2.5,Win32,75.08071177,611ffdb45eb3cf8c95508295,64aea9d0f615b6559c281482,64becb54db92566c53602d47,up,1,0.3,0.4357,13,0,1.1869,,,,,,217,0,217,0,1,,,,,
,,543133,001,2023-07-24_21h06.04.812,arm3_eps,2022.2.5,Win32,75.08071177,611ffdb45eb3cf8c95508295,64aea9d0f615b6559c281482,64becb54db92566c53602d47,up,-1,0.3,0.4357,13,0,1.1203,,,,,,218,0,218,0,1,,,,,
,,543133,001,2023-07-24_21h06.04.812,arm3_eps,2022.2.5,Win32,75.08071177,611ffdb45eb3cf8c95508295,64aea9d0f615b6559c281482,64becb54db92566c53602d47,up,1,0.3,0.4357,13,0,1.5603,,,,,,219,0,219,0,1,,,,,
,,543133,001,2023-07-24_21h06.04.812,arm3_eps,2022.2.5,Win32,75.08071177,611ffdb45eb3cf8c95508295,64aea9d0f615b6559c281482,64becb54db92566c53602d47,up,1,0.3,0.4357,14,0,1.2944,,,,,,220,0,220,0,1,,,,,
,,543133,001,2023-07-24_21h06.04.812,arm3_eps,2022.2.5,Win32,75.08071177,611ffdb45eb3cf8c95508295,64aea9d0f615b6559c281482,64becb54db92566c53602d47,down,-1,0.3,0.4357,14,0,1.7332,,,,,,221,0,221,0,1,,,,,
,,543133,001,2023-07-24_21h06.04.812,arm3_eps,2022.2.5,Win32,75.08071177,611ffdb45eb3cf8c95508295,64aea9d0f615b6559c281482,64becb54db92566c53602d47,down,-1,0.3,0.4357,15,0,1.2669,,,,,,222,0,222,0,1,,,,,
,,543133,001,2023-07-24_21h06.04.812,arm3_eps,2022.2.5,Win32,75.08071177,611ffdb45eb3cf8c95508295,64aea9d0f615b6559c281482,64becb54db92566c53602d47,down,-1,0.3,0.4357,15,0,1.0537,,,,,,223,0,223,0,1,,,,,
,,543133,001,2023-07-24_21h06.04.812,arm3_eps,2022.2.5,Win32,75.08071177,611ffdb45eb3cf8c95508295,64aea9d0f615b6559c281482,64becb54db92566c53602d47,down,1,0.3,0.4357,15,0,1.0405,,,,,,224,0,224,0,1,,,,,
,,543133,001,2023-07-24_21h06.04.812,arm3_eps,2022.2.5,Win32,75.08071177,611ffdb45eb3cf8c95508295,64aea9d0f615b6559c281482,64becb54db92566c53602d47,up,1,0.3,0.4357,15,0,1.5337,,,,,,225,0,225,0,1,,,,,
,,543133,001,2023-07-24_21h06.04.812,arm3_eps,2022.2.5,Win32,75.08071177,611ffdb45eb3cf8c95508295,64aea9d0f615b6559c281482,64becb54db92566c53602d47,up,1,0.3,0.4357,15,0,2.1731,,,,,,226,0,226,0,1,,,,,
,,543133,001,2023-07-24_21h06.04.812,arm3_eps,2022.2.5,Win32,75.08071177,611ffdb45eb3cf8c95508295,64aea9d0f615b6559c281482,64becb54db92566c53602d47,up,1,0.3,0.4357,16,0,1.2139,,,,,,227,0,227,0,1,,,,,
,,543133,001,2023-07-24_21h06.04.812,arm3_eps,2022.2.5,Win32,75.08071177,611ffdb45eb3cf8c95508295,64aea9d0f615b6559c281482,64becb54db92566c53602d47,down,-1,0.3,0.4357,16,0,1.3067,,,,,,228,0,228,0,1,,,,,
,,543133,001,2023-07-24_21h06.04.812,arm3_eps,2022.2.5,Win32,75.08071177,611ffdb45eb3cf8c95508295,64aea9d0f615b6559c281482,64becb54db92566c53602d47,down,-1,0.3,0.4357,17,0,1.6941,,,,,,229,0,229,0,1,,,,,
,,543133,001,2023-07-24_21h06.04.812,arm3_eps,2022.2.5,Win32,75.08071177,611ffdb45eb3cf8c95508295,64aea9d0f615b6559c281482,64becb54db92566c53602d47,down,1,0.3,0.4357,17,0,2.3597,,,,,,230,0,230,0,1,,,,,
,,543133,001,2023-07-24_21h06.04.812,arm3_eps,2022.2.5,Win32,75.08071177,611ffdb45eb3cf8c95508295,64aea9d0f615b6559c281482,64becb54db92566c53602d47,up,1,0.3,0.4357,17,0,1.2941,,,,,,231,0,231,0,1,,,,,
,,543133,001,2023-07-24_21h06.04.812,arm3_eps,2022.2.5,Win32,75.08071177,611ffdb45eb3cf8c95508295,64aea9d0f615b6559c281482,64becb54db92566c53602d47,up,1,0.3,0.4357,17,0,1.267,,,,,,232,0,232,0,1,,,,,
,,543133,001,2023-07-24_21h06.04.812,arm3_eps,2022.2.5,Win32,75.08071177,611ffdb45eb3cf8c95508295,64aea9d0f615b6559c281482,64becb54db92566c53602d47,up,1,0.3,0.4357,18,0,1.2138,,,,,,233,0,233,0,1,,,,,
,,543133,001,2023-07-24_21h06.04.812,arm3_eps,2022.2.5,Win32,75.08071177,611ffdb45eb3cf8c95508295,64aea9d0f615b6559c281482,64becb54db92566c53602d47,up,-1,0.3,0.4357,18,0,1.827,,,,,,234,0,234,0,1,,,,,
,,543133,001,2023-07-24_21h06.04.812,arm3_eps,2022.2.5,Win32,75.08071177,611ffdb45eb3cf8c95508295,64aea9d0f615b6559c281482,64becb54db92566c53602d47,down,-1,0.3,0.4357,18,0,1.2274,,,,,,235,0,235,0,1,,,,,
,,543133,001,2023-07-24_21h06.04.812,arm3_eps,2022.2.5,Win32,75.08071177,611ffdb45eb3cf8c95508295,64aea9d0f615b6559c281482,64becb54db92566c53602d47,down,1,0.3,0.4357,18,0,1.0803,,,,,,236,0,236,0,1,,,,,
,,543133,001,2023-07-24_21h06.04.812,arm3_eps,2022.2.5,Win32,75.08071177,611ffdb45eb3cf8c95508295,64aea9d0f615b6559c281482,64becb54db92566c53602d47,up,1,0.3,0.4357,19,0,1.0934,,,,,,237,0,237,0,1,,,,,
,,543133,001,2023-07-24_21h06.04.812,arm3_eps,2022.2.5,Win32,75.08071177,611ffdb45eb3cf8c95508295,64aea9d0f615b6559c281482,64becb54db92566c53602d47,down,-1,0.3,0.4357,18,0,1.1872,,,,,,238,0,238,0,1,,,,,
,,543133,001,2023-07-24_21h06.04.812,arm3_eps,2022.2.5,Win32,75.08071177,611ffdb45eb3cf8c95508295,64aea9d0f615b6559c281482,64becb54db92566c53602d47,up,1,0.3,0.4357,18,0,1.0276,,,,,,239,0,239,0,1,,,,,
,,543133,001,2023-07-24_21h06.04.812,arm3_eps,2022.2.5,Win32,75.08071177,611ffdb45eb3cf8c95508295,64aea9d0f615b6559c281482,64becb54db92566c53602d47,up,1,0.3,0.4357,18,0,1.0273,,,,,,240,0,240,0,1,,,,,
,,543133,001,2023-07-24_21h06.04.812,arm3_eps,2022.2.5,Win32,75.08071177,611ffdb45eb3cf8c95508295,64aea9d0f615b6559c281482,64becb54db92566c53602d47,down,-1,0.3,0.4357,18,0,1.3332,,,,,,241,0,241,0,1,,,,,
,,543133,001,2023-07-24_21h06.04.812,arm3_eps,2022.2.5,Win32,75.08071177,611ffdb45eb3cf8c95508295,64aea9d0f615b6559c281482,64becb54db92566c53602d47,down,1,0.3,0.4357,19,0,1.0801,,,,,,242,0,242,0,1,,,,,
,,543133,001,2023-07-24_21h06.04.812,arm3_eps,2022.2.5,Win32,75.08071177,611ffdb45eb3cf8c95508295,64aea9d0f615b6559c281482,64becb54db92566c53602d47,up,1,0.3,0.4357,19,0,1.1336,,,,,,243,0,243,0,1,,,,,
,,543133,001,2023-07-24_21h06.04.812,arm3_eps,2022.2.5,Win32,75.08071177,611ffdb45eb3cf8c95508295,64aea9d0f615b6559c281482,64becb54db92566c53602d47,up,-1,0.3,0.4357,19,0,1.1075,,,,,,244,0,244,0,1,,,,,
,,543133,001,2023-07-24_21h06.04.812,arm3_eps,2022.2.5,Win32,75.08071177,611ffdb45eb3cf8c95508295,64aea9d0f615b6559c281482,64becb54db92566c53602d47,down,-1,0.3,0.4357,19,0,1.1999,,,,,,245,0,245,0,1,,,,,
,,543133,001,2023-07-24_21h06.04.812,arm3_eps,2022.2.5,Win32,75.08071177,611ffdb45eb3cf8c95508295,64aea9d0f615b6559c281482,64becb54db92566c53602d47,up,-1,0.3,0.4357,19,0,1.6667,,,,,,246,0,246,0,1,,,,,
,,543133,001,2023-07-24_21h06.04.812,arm3_eps,2022.2.5,Win32,75.08071177,611ffdb45eb3cf8c95508295,64aea9d0f615b6559c281482,64becb54db92566c53602d47,down,-1,0.3,0.4357,19,0,1.1337,,,,,,247,0,247,0,1,,,,,
,,543133,001,2023-07-24_21h06.04.812,arm3_eps,2022.2.5,Win32,75.08071177,611ffdb45eb3cf8c95508295,64aea9d0f615b6559c281482,64becb54db92566c53602d47,down,1,0.3,0.4357,19,0,1.0803,,,,,,248,0,248,0,1,,,,,
,,543133,001,2023-07-24_21h06.04.812,arm3_eps,2022.2.5,Win32,75.08071177,611ffdb45eb3cf8c95508295,64aea9d0f615b6559c281482,64becb54db92566c53602d47,up,1,0.3,0.4357,19,0,1.2143,,,,,,249,0,249,0,1,,,,,
,,543133,001,2023-07-24_21h06.04.812,arm3_eps,2022.2.5,Win32,75.08071177,611ffdb45eb3cf8c95508295,64aea9d0f615b6559c281482,64becb54db92566c53602d47,up,1,0.3,0.4357,19,0,1.387,,,,,,250,0,250,0,1,,,,,
,,543133,001,2023-07-24_21h06.04.812,arm3_eps,2022.2.5,Win32,75.08071177,611ffdb45eb3cf8c95508295,64aea9d0f615b6559c281482,64becb54db92566c53602d47,down,-1,0.3,0.4357,19,0,1.2136,,,,,,251,0,251,0,1,,,,,
,,543133,001,2023-07-24_21h06.04.812,arm3_eps,2022.2.5,Win32,75.08071177,611ffdb45eb3cf8c95508295,64aea9d0f615b6559c281482,64becb54db92566c53602d47,down,1,0.3,0.4357,19,0,1.1469,,,,,,252,0,252,0,1,,,,,
,,543133,001,2023-07-24_21h06.04.812,arm3_eps,2022.2.5,Win32,75.08071177,611ffdb45eb3cf8c95508295,64aea9d0f615b6559c281482,64becb54db92566c53602d47,up,-1,0.3,0.4357,19,0,1.1612,,,,,,253,0,253,0,1,,,,,
,,543133,001,2023-07-24_21h06.04.812,arm3_eps,2022.2.5,Win32,75.08071177,611ffdb45eb3cf8c95508295,64aea9d0f615b6559c281482,64becb54db92566c53602d47,down,1,0.3,0.4357,19,0,1.1474,,,,,,254,0,254,0,1,,,,,
,,543133,001,2023-07-24_21h06.04.812,arm3_eps,2022.2.5,Win32,75.08071177,611ffdb45eb3cf8c95508295,64aea9d0f615b6559c281482,64becb54db92566c53602d47,up,-1,0.3,0.4357,19,0,2.2399,,,,,,255,0,255,0,1,,,,,
,,543133,001,2023-07-24_21h06.04.812,arm3_eps,2022.2.5,Win32,75.08071177,611ffdb45eb3cf8c95508295,64aea9d0f615b6559c281482,64becb54db92566c53602d47,down,-1,0.3,0.4357,19,0,0.9872,,,,,,256,0,256,0,1,,,,,
,,543133,001,2023-07-24_21h06.04.812,arm3_eps,2022.2.5,Win32,75.08071177,611ffdb45eb3cf8c95508295,64aea9d0f615b6559c281482,64becb54db92566c53602d47,down,-1,0.3,0.4357,20,0,1.1871,,,,,,257,0,257,0,1,,,,,
,,543133,001,2023-07-24_21h06.04.812,arm3_eps,2022.2.5,Win32,75.08071177,611ffdb45eb3cf8c95508295,64aea9d0f615b6559c281482,64becb54db92566c53602d47,up,1,0.3,0.4357,20,0,1.2002,,,,,,258,0,258,0,1,,,,,
,,543133,001,2023-07-24_21h06.04.812,arm3_eps,2022.2.5,Win32,75.08071177,611ffdb45eb3cf8c95508295,64aea9d0f615b6559c281482,64becb54db92566c53602d47,up,-1,0.3,0.4357,20,0,1.1602,,,,,,259,0,259,0,1,,,,,
,,543133,001,2023-07-24_21h06.04.812,arm3_eps,2022.2.5,Win32,75.08071177,611ffdb45eb3cf8c95508295,64aea9d0f615b6559c281482,64becb54db92566c53602d47,up,1,0.3,0.4357,20,0,2.3867,,,,,,260,0,260,0,1,,,,,
,,543133,001,2023-07-24_21h06.04.812,arm3_eps,2022.2.5,Win32,75.08071177,611ffdb45eb3cf8c95508295,64aea9d0f615b6559c281482,64becb54db92566c53602d47,up,1,0.3,0.4357,20,0,1.214,,,,,,261,0,261,0,1,,,,,
,,543133,001,2023-07-24_21h06.04.812,arm3_eps,2022.2.5,Win32,75.08071177,611ffdb45eb3cf8c95508295,64aea9d0f615b6559c281482,64becb54db92566c53602d47,up,1,0.3,0.4357,20,0,1.0271,,,,,,262,0,262,0,1,,,,,
,,543133,001,2023-07-24_21h06.04.812,arm3_eps,2022.2.5,Win32,75.08071177,611ffdb45eb3cf8c95508295,64aea9d0f615b6559c281482,64becb54db92566c53602d47,down,1,0.3,0.4357,19,0,1.134,,,,,,263,0,263,0,1,,,,,
,,543133,001,2023-07-24_21h06.04.812,arm3_eps,2022.2.5,Win32,75.08071177,611ffdb45eb3cf8c95508295,64aea9d0f615b6559c281482,64becb54db92566c53602d47,down,1,0.3,0.4357,19,0,1.1469,,,,,,264,0,264,0,1,,,,,
,,543133,001,2023-07-24_21h06.04.812,arm3_eps,2022.2.5,Win32,75.08071177,611ffdb45eb3cf8c95508295,64aea9d0f615b6559c281482,64becb54db92566c53602d47,down,-1,0.3,0.4357,18,0,1.3736,,,,,,265,0,265,0,1,,,,,
,,543133,001,2023-07-24_21h06.04.812,arm3_eps,2022.2.5,Win32,75.08071177,611ffdb45eb3cf8c95508295,64aea9d0f615b6559c281482,64becb54db92566c53602d47,up,-1,0.3,0.4357,17,0,1.1743,,,,,,266,0,266,0,1,,,,,
,,543133,001,2023-07-24_21h06.04.812,arm3_eps,2022.2.5,Win32,75.08071177,611ffdb45eb3cf8c95508295,64aea9d0f615b6559c281482,64becb54db92566c53602d47,down,1,0.3,0.4357,17,0,1.1337,,,,,,267,0,267,0,1,,,,,
,,543133,001,2023-07-24_21h06.04.812,arm3_eps,2022.2.5,Win32,75.08071177,611ffdb45eb3cf8c95508295,64aea9d0f615b6559c281482,64becb54db92566c53602d47,up,-1,0.3,0.4357,17,0,1.0809,,,,,,268,0,268,0,1,,,,,
,,543133,001,2023-07-24_21h06.04.812,arm3_eps,2022.2.5,Win32,75.08071177,611ffdb45eb3cf8c95508295,64aea9d0f615b6559c281482,64becb54db92566c53602d47,up,-1,0.3,0.4357,16,0,1.3068,,,,,,269,0,269,0,1,,,,,
,,543133,001,2023-07-24_21h06.04.812,arm3_eps,2022.2.5,Win32,75.08071177,611ffdb45eb3cf8c95508295,64aea9d0f615b6559c281482,64becb54db92566c53602d47,down,1,0.3,0.4357,16,0,1.1602,,,,,,270,0,270,0,1,,,,,
,,543133,001,2023-07-24_21h06.04.812,arm3_eps,2022.2.5,Win32,75.08071177,611ffdb45eb3cf8c95508295,64aea9d0f615b6559c281482,64becb54db92566c53602d47,down,1,0.3,0.4357,15,0,1.1869,,,,,,271,0,271,0,1,,,,,
,,543133,001,2023-07-24_21h06.04.812,arm3_eps,2022.2.5,Win32,75.08071177,611ffdb45eb3cf8c95508295,64aea9d0f615b6559c281482,64becb54db92566c53602d47,up,1,0.3,0.4357,15,0,1.1872,,,,,,272,0,272,0,1,,,,,
,,543133,001,2023-07-24_21h06.04.812,arm3_eps,2022.2.5,Win32,75.08071177,611ffdb45eb3cf8c95508295,64aea9d0f615b6559c281482,64becb54db92566c53602d47,up,1,0.3,0.4357,15,0,1.4942,,,,,,273,0,273,0,1,,,,,
,,543133,001,2023-07-24_21h06.04.812,arm3_eps,2022.2.5,Win32,75.08071177,611ffdb45eb3cf8c95508295,64aea9d0f615b6559c281482,64becb54db92566c53602d47,down,1,0.3,0.4357,15,0,1.2005,,,,,,274,0,274,0,1,,,,,
,,543133,001,2023-07-24_21h06.04.812,arm3_eps,2022.2.5,Win32,75.08071177,611ffdb45eb3cf8c95508295,64aea9d0f615b6559c281482,64becb54db92566c53602d47,up,1,0.3,0.4357,15,0,1.027,,,,,,275,0,275,0,1,,,,,
,,543133,001,2023-07-24_21h06.04.812,arm3_eps,2022.2.5,Win32,75.08071177,611ffdb45eb3cf8c95508295,64aea9d0f615b6559c281482,64becb54db92566c53602d47,up,-1,0.3,0.4357,15,0,1.0539,,,,,,276,0,276,0,1,,,,,
,,543133,001,2023-07-24_21h06.04.812,arm3_eps,2022.2.5,Win32,75.08071177,611ffdb45eb3cf8c95508295,64aea9d0f615b6559c281482,64becb54db92566c53602d47,up,-1,0.3,0.4357,14,0,1.8267,,,,,,277,0,277,0,1,,,,,
,,543133,001,2023-07-24_21h06.04.812,arm3_eps,2022.2.5,Win32,75.08071177,611ffdb45eb3cf8c95508295,64aea9d0f615b6559c281482,64becb54db92566c53602d47,down,-1,0.3,0.4357,14,0,1.187,,,,,,278,0,278,0,1,,,,,
,,543133,001,2023-07-24_21h06.04.812,arm3_eps,2022.2.5,Win32,75.08071177,611ffdb45eb3cf8c95508295,64aea9d0f615b6559c281482,64becb54db92566c53602d47,up,1,0.3,0.4357,14,0,1.1344,,,,,,279,0,279,0,1,,,,,
,,543133,001,2023-07-24_21h06.04.812,arm3_eps,2022.2.5,Win32,75.08071177,611ffdb45eb3cf8c95508295,64aea9d0f615b6559c281482,64becb54db92566c53602d47,up,1,0.3,0.4357,14,0,1.3871,,,,,,280,0,280,0,1,,,,,
,,543133,001,2023-07-24_21h06.04.812,arm3_eps,2022.2.5,Win32,75.08071177,611ffdb45eb3cf8c95508295,64aea9d0f615b6559c281482,64becb54db92566c53602d47,up,-1,0.3,0.4357,15,0,1.0536,,,,,,281,0,281,0,1,,,,,
,,543133,001,2023-07-24_21h06.04.812,arm3_eps,2022.2.5,Win32,75.08071177,611ffdb45eb3cf8c95508295,64aea9d0f615b6559c281482,64becb54db92566c53602d47,up,1,0.3,0.4357,14,0,1.1076,,,,,,282,0,282,0,1,,,,,
,,543133,001,2023-07-24_21h06.04.812,arm3_eps,2022.2.5,Win32,75.08071177,611ffdb45eb3cf8c95508295,64aea9d0f615b6559c281482,64becb54db92566c53602d47,up,1,0.3,0.4357,14,0,1.0001,,,,,,283,0,283,0,1,,,,,
,,543133,001,2023-07-24_21h06.04.812,arm3_eps,2022.2.5,Win32,75.08071177,611ffdb45eb3cf8c95508295,64aea9d0f615b6559c281482,64becb54db92566c53602d47,up,-1,0.3,0.4357,15,0,1.0268,,,,,,284,0,284,0,1,,,,,
,,543133,001,2023-07-24_21h06.04.812,arm3_eps,2022.2.5,Win32,75.08071177,611ffdb45eb3cf8c95508295,64aea9d0f615b6559c281482,64becb54db92566c53602d47,down,1,0.3,0.4357,15,0,1.2272,,,,,,285,0,285,0,1,,,,,
,,543133,001,2023-07-24_21h06.04.812,arm3_eps,2022.2.5,Win32,75.08071177,611ffdb45eb3cf8c95508295,64aea9d0f615b6559c281482,64becb54db92566c53602d47,up,-1,0.3,0.4357,15,0,1.0671,,,,,,286,0,286,0,1,,,,,
,,543133,001,2023-07-24_21h06.04.812,arm3_eps,2022.2.5,Win32,75.08071177,611ffdb45eb3cf8c95508295,64aea9d0f615b6559c281482,64becb54db92566c53602d47,up,1,0.3,0.4357,15,0,1.5343,,,,,,287,0,287,0,1,,,,,
,,543133,001,2023-07-24_21h06.04.812,arm3_eps,2022.2.5,Win32,75.08071177,611ffdb45eb3cf8c95508295,64aea9d0f615b6559c281482,64becb54db92566c53602d47,down,1,0.3,0.4357,14,0,1.8002,,,,,,288,0,288,0,1,,,,,
,,543133,001,2023-07-24_21h06.04.812,arm3_eps,2022.2.5,Win32,75.08071177,611ffdb45eb3cf8c95508295,64aea9d0f615b6559c281482,64becb54db92566c53602d47,up,-1,0.3,0.4357,14,0,1.2405,,,,,,289,0,289,0,1,,,,,
,,543133,001,2023-07-24_21h06.04.812,arm3_eps,2022.2.5,Win32,75.08071177,611ffdb45eb3cf8c95508295,64aea9d0f615b6559c281482,64becb54db92566c53602d47,down,-1,0.3,0.4357,14,0,1.0272,,,,,,290,0,290,0,1,,,,,
,,543133,001,2023-07-24_21h06.04.812,arm3_eps,2022.2.5,Win32,75.08071177,611ffdb45eb3cf8c95508295,64aea9d0f615b6559c281482,64becb54db92566c53602d47,up,1,0.3,0.4357,14,0,1.1469,,,,,,291,0,291,0,1,,,,,
,,543133,001,2023-07-24_21h06.04.812,arm3_eps,2022.2.5,Win32,75.08071177,611ffdb45eb3cf8c95508295,64aea9d0f615b6559c281482,64becb54db92566c53602d47,up,1,0.3,0.4357,14,0,1.0134,,,,,,292,0,292,0,1,,,,,
,,543133,001,2023-07-24_21h06.04.812,arm3_eps,2022.2.5,Win32,75.08071177,611ffdb45eb3cf8c95508295,64aea9d0f615b6559c281482,64becb54db92566c53602d47,down,1,0.3,0.4357,14,0,1.1862,,,,,,293,0,293,0,1,,,,,
,,543133,001,2023-07-24_21h06.04.812,arm3_eps,2022.2.5,Win32,75.08071177,611ffdb45eb3cf8c95508295,64aea9d0f615b6559c281482,64becb54db92566c53602d47,down,-1,0.3,0.4357,13,0,0.987,,,,,,294,0,294,0,1,,,,,
,,543133,001,2023-07-24_21h06.04.812,arm3_eps,2022.2.5,Win32,75.08071177,611ffdb45eb3cf8c95508295,64aea9d0f615b6559c281482,64becb54db92566c53602d47,down,1,0.3,0.4357,13,0,1.3072,,,,,,295,0,295,0,1,,,,,
,,543133,001,2023-07-24_21h06.04.812,arm3_eps,2022.2.5,Win32,75.08071177,611ffdb45eb3cf8c95508295,64aea9d0f615b6559c281482,64becb54db92566c53602d47,up,1,0.3,0.4357,13,0,1.1607,,,,,,296,0,296,0,1,,,,,
,,543133,001,2023-07-24_21h06.04.812,arm3_eps,2022.2.5,Win32,75.08071177,611ffdb45eb3cf8c95508295,64aea9d0f615b6559c281482,64becb54db92566c53602d47,up,-1,0.3,0.4357,14,0,1.08,,,,,,297,0,297,0,1,,,,,
,,543133,001,2023-07-24_21h06.04.812,arm3_eps,2022.2.5,Win32,75.08071177,611ffdb45eb3cf8c95508295,64aea9d0f615b6559c281482,64becb54db92566c53602d47,down,-1,0.3,0.4357,14,0,1.2402,,,,,,298,0,298,0,1,,,,,
,,543133,001,2023-07-24_21h06.04.812,arm3_eps,2022.2.5,Win32,75.08071177,611ffdb45eb3cf8c95508295,64aea9d0f615b6559c281482,64becb54db92566c53602d47,up,-1,0.3,0.4357,13,0,1.1738,,,,,,299,0,299,0,1,,,,,
,,543133,001,2023-07-24_21h06.04.812,arm3_eps,2022.2.5,Win32,75.08071177,611ffdb45eb3cf8c95508295,64aea9d0f615b6559c281482,64becb54db92566c53602d47,down,1,0.3,0.4357,14,0,1.6931,,,,,,300,0,300,0,1,,,,,
,,543133,001,2023-07-24_21h06.04.812,arm3_eps,2022.2.5,Win32,75.08071177,611ffdb45eb3cf8c95508295,64aea9d0f615b6559c281482,64becb54db92566c53602d47,up,1,0.3,0.4357,15,0,1.1605,,,,,,301,0,301,0,1,,,,,
,,543133,001,2023-07-24_21h06.04.812,arm3_eps,2022.2.5,Win32,75.08071177,611ffdb45eb3cf8c95508295,64aea9d0f615b6559c281482,64becb54db92566c53602d47,up,1,0.3,0.4357,16,0,1.1739,,,,,,302,0,302,0,1,,,,,
,,543133,001,2023-07-24_21h06.04.812,arm3_eps,2022.2.5,Win32,75.08071177,611ffdb45eb3cf8c95508295,64aea9d0f615b6559c281482,64becb54db92566c53602d47,down,1,0.3,0.4357,16,0,1.6269,,,,,,303,0,303,0,1,,,,,
,,543133,001,2023-07-24_21h06.04.812,arm3_eps,2022.2.5,Win32,75.08071177,611ffdb45eb3cf8c95508295,64aea9d0f615b6559c281482,64becb54db92566c53602d47,up,1,0.3,0.4357,17,0,1.1203,,,,,,304,0,304,0,1,,,,,
,,543133,001,2023-07-24_21h06.04.812,arm3_eps,2022.2.5,Win32,75.08071177,611ffdb45eb3cf8c95508295,64aea9d0f615b6559c281482,64becb54db92566c53602d47,up,1,0.3,0.4357,17,0,1.4408,,,,,,305,0,305,0,1,,,,,
,,543133,001,2023-07-24_21h06.04.812,arm3_eps,2022.2.5,Win32,75.08071177,611ffdb45eb3cf8c95508295,64aea9d0f615b6559c281482,64becb54db92566c53602d47,down,-1,0.3,0.4357,17,0,1.2401,,,,,,306,0,306,0,1,,,,,
,,543133,001,2023-07-24_21h06.04.812,arm3_eps,2022.2.5,Win32,75.08071177,611ffdb45eb3cf8c95508295,64aea9d0f615b6559c281482,64becb54db92566c53602d47,up,-1,0.3,0.4357,17,0,1.174,,,,,,307,0,307,0,1,,,,,
,,543133,001,2023-07-24_21h06.04.812,arm3_eps,2022.2.5,Win32,75.08071177,611ffdb45eb3cf8c95508295,64aea9d0f615b6559c281482,64becb54db92566c53602d47,up,-1,0.3,0.4357,16,0,1.2003,,,,,,308,0,308,0,1,,,,,
,,543133,001,2023-07-24_21h06.04.812,arm3_eps,2022.2.5,Win32,75.08071177,611ffdb45eb3cf8c95508295,64aea9d0f615b6559c281482,64becb54db92566c53602d47,up,1,0.3,0.4357,15,0,1.3072,,,,,,309,0,309,0,1,,,,,
,,543133,001,2023-07-24_21h06.04.812,arm3_eps,2022.2.5,Win32,75.08071177,611ffdb45eb3cf8c95508295,64aea9d0f615b6559c281482,64becb54db92566c53602d47,down,1,0.3,0.4357,14,0,1.3337,,,,,,310,0,310,0,1,,,,,
,,543133,001,2023-07-24_21h06.04.812,arm3_eps,2022.2.5,Win32,75.08071177,611ffdb45eb3cf8c95508295,64aea9d0f615b6559c281482,64becb54db92566c53602d47,up,1,0.3,0.4357,14,0,1.1071,,,,,,311,0,311,0,1,,,,,
,,543133,001,2023-07-24_21h06.04.812,arm3_eps,2022.2.5,Win32,75.08071177,611ffdb45eb3cf8c95508295,64aea9d0f615b6559c281482,64becb54db92566c53602d47,down,-1,0.3,0.4357,14,0,1.2535,,,,,,312,0,312,0,1,,,,,
,,543133,001,2023-07-24_21h06.04.812,arm3_eps,2022.2.5,Win32,75.08071177,611ffdb45eb3cf8c95508295,64aea9d0f615b6559c281482,64becb54db92566c53602d47,down,1,0.3,0.4357,14,0,1.0676,,,,,,313,0,313,0,1,,,,,
,,543133,001,2023-07-24_21h06.04.812,arm3_eps,2022.2.5,Win32,75.08071177,611ffdb45eb3cf8c95508295,64aea9d0f615b6559c281482,64becb54db92566c53602d47,up,1,0.3,0.4357,14,0,1.24,,,,,,314,0,314,0,1,,,,,
,,543133,001,2023-07-24_21h06.04.812,arm3_eps,2022.2.5,Win32,75.08071177,611ffdb45eb3cf8c95508295,64aea9d0f615b6559c281482,64becb54db92566c53602d47,up,1,0.3,0.4357,14,0,2.1202,,,,,,315,0,315,0,1,,,,,
,,543133,001,2023-07-24_21h06.04.812,arm3_eps,2022.2.5,Win32,75.08071177,611ffdb45eb3cf8c95508295,64aea9d0f615b6559c281482,64becb54db92566c53602d47,up,-1,0.3,0.4357,14,0,1.0937,,,,,,316,0,316,0,1,,,,,
,,543133,001,2023-07-24_21h06.04.812,arm3_eps,2022.2.5,Win32,75.08071177,611ffdb45eb3cf8c95508295,64aea9d0f615b6559c281482,64becb54db92566c53602d47,down,1,0.3,0.4357,15,0,1.2004,,,,,,317,0,317,0,1,,,,,
,,543133,001,2023-07-24_21h06.04.812,arm3_eps,2022.2.5,Win32,75.08071177,611ffdb45eb3cf8c95508295,64aea9d0f615b6559c281482,64becb54db92566c53602d47,up,-1,0.3,0.4357,15,0,1.2009,,,,,,318,0,318,0,1,,,,,
,,543133,001,2023-07-24_21h06.04.812,arm3_eps,2022.2.5,Win32,75.08071177,611ffdb45eb3cf8c95508295,64aea9d0f615b6559c281482,64becb54db92566c53602d47,down,-1,0.3,0.4357,16,0,1.041,,,,,,319,0,319,0,1,,,,,
,,543133,001,2023-07-24_21h06.04.812,arm3_eps,2022.2.5,Win32,75.08071177,611ffdb45eb3cf8c95508295,64aea9d0f615b6559c281482,64becb54db92566c53602d47,down,-1,0.3,0.4357,16,0,1.1206,,,,,,320,0,320,0,1,,,,,
,,543133,001,2023-07-24_21h06.04.812,arm3_eps,2022.2.5,Win32,75.08071177,611ffdb45eb3cf8c95508295,64aea9d0f615b6559c281482,64becb54db92566c53602d47,down,1,0.3,0.4357,16,0,1.1204,,,,,,321,0,321,0,1,,,,,
,,543133,001,2023-07-24_21h06.04.812,arm3_eps,2022.2.5,Win32,75.08071177,611ffdb45eb3cf8c95508295,64aea9d0f615b6559c281482,64becb54db92566c53602d47,down,1,0.3,0.4357,15,0,1.0008,,,,,,322,0,322,0,1,,,,,
,,543133,001,2023-07-24_21h06.04.812,arm3_eps,2022.2.5,Win32,75.08071177,611ffdb45eb3cf8c95508295,64aea9d0f615b6559c281482,64becb54db92566c53602d47,up,-1,0.3,0.4357,15,0,1.2272,,,,,,323,0,323,0,1,,,,,
,,543133,001,2023-07-24_21h06.04.812,arm3_eps,2022.2.5,Win32,75.08071177,611ffdb45eb3cf8c95508295,64aea9d0f615b6559c281482,64becb54db92566c53602d47,up,1,0.3,0.4357,15,0,1.0537,,,,,,324,0,324,0,1,,,,,
,,543133,001,2023-07-24_21h06.04.812,arm3_eps,2022.2.5,Win32,75.08071177,611ffdb45eb3cf8c95508295,64aea9d0f615b6559c281482,64becb54db92566c53602d47,up,-1,0.3,0.4357,15,0,1.0272,,,,,,325,0,325,0,1,,,,,
,,543133,001,2023-07-24_21h06.04.812,arm3_eps,2022.2.5,Win32,75.08071177,611ffdb45eb3cf8c95508295,64aea9d0f615b6559c281482,64becb54db92566c53602d47,down,1,0.3,0.4357,15,0,1.0672,,,,,,326,0,326,0,1,,,,,
,,543133,001,2023-07-24_21h06.04.812,arm3_eps,2022.2.5,Win32,75.08071177,611ffdb45eb3cf8c95508295,64aea9d0f615b6559c281482,64becb54db92566c53602d47,down,1,0.3,0.4357,15,0,1.3871,,,,,,327,0,327,0,1,,,,,
,,543133,001,2023-07-24_21h06.04.812,arm3_eps,2022.2.5,Win32,75.08071177,611ffdb45eb3cf8c95508295,64aea9d0f615b6559c281482,64becb54db92566c53602d47,up,-1,0.3,0.4357,15,0,1.1075,,,,,,328,0,328,0,1,,,,,
,,543133,001,2023-07-24_21h06.04.812,arm3_eps,2022.2.5,Win32,75.08071177,611ffdb45eb3cf8c95508295,64aea9d0f615b6559c281482,64becb54db92566c53602d47,down,-1,0.3,0.4357,15,0,1.1602,,,,,,329,0,329,0,1,,,,,
,,543133,001,2023-07-24_21h06.04.812,arm3_eps,2022.2.5,Win32,75.08071177,611ffdb45eb3cf8c95508295,64aea9d0f615b6559c281482,64becb54db92566c53602d47,down,-1,0.3,0.4357,15,0,1.0937,,,,,,330,0,330,0,1,,,,,
,,543133,001,2023-07-24_21h06.04.812,arm3_eps,2022.2.5,Win32,75.08071177,611ffdb45eb3cf8c95508295,64aea9d0f615b6559c281482,64becb54db92566c53602d47,up,-1,0.3,0.4357,15,0,1.2672,,,,,,331,0,331,0,1,,,,,
,,543133,001,2023-07-24_21h06.04.812,arm3_eps,2022.2.5,Win32,75.08071177,611ffdb45eb3cf8c95508295,64aea9d0f615b6559c281482,64becb54db92566c53602d47,down,-1,0.3,0.4357,15,0,1.0939,,,,,,332,0,332,0,1,,,,,
,,543133,001,2023-07-24_21h06.04.812,arm3_eps,2022.2.5,Win32,75.08071177,611ffdb45eb3cf8c95508295,64aea9d0f615b6559c281482,64becb54db92566c53602d47,down,1,0.3,0.4357,15,0,1.2137,,,,,,333,0,333,0,1,,,,,
,,543133,001,2023-07-24_21h06.04.812,arm3_eps,2022.2.5,Win32,75.08071177,611ffdb45eb3cf8c95508295,64aea9d0f615b6559c281482,64becb54db92566c53602d47,up,1,0.3,0.4357,15,0,1.1605,,,,,,334,0,334,0,1,,,,,
,,543133,001,2023-07-24_21h06.04.812,arm3_eps,2022.2.5,Win32,75.08071177,611ffdb45eb3cf8c95508295,64aea9d0f615b6559c281482,64becb54db92566c53602d47,up,-1,0.3,0.4357,15,0,1.3337,,,,,,335,0,335,0,1,,,,,
,,543133,001,2023-07-24_21h06.04.812,arm3_eps,2022.2.5,Win32,75.08071177,611ffdb45eb3cf8c95508295,64aea9d0f615b6559c281482,64becb54db92566c53602d47,down,-1,0.3,0.4357,16,0,1.1075,,,,,,336,0,336,0,1,,,,,
,,543133,001,2023-07-24_21h06.04.812,arm3_eps,2022.2.5,Win32,75.08071177,611ffdb45eb3cf8c95508295,64aea9d0f615b6559c281482,64becb54db92566c53602d47,down,-1,0.3,0.4357,16,0,1.5208,,,,,,337,0,337,0,1,,,,,
,,543133,001,2023-07-24_21h06.04.812,arm3_eps,2022.2.5,Win32,75.08071177,611ffdb45eb3cf8c95508295,64aea9d0f615b6559c281482,64becb54db92566c53602d47,up,1,0.3,0.4357,16,0,1.0934,,,,,,338,0,338,0,1,,,,,
,,543133,001,2023-07-24_21h06.04.812,arm3_eps,2022.2.5,Win32,75.08071177,611ffdb45eb3cf8c95508295,64aea9d0f615b6559c281482,64becb54db92566c53602d47,up,-1,0.3,0.4357,16,0,1.0939,,,,,,339,0,339,0,1,,,,,
,,543133,001,2023-07-24_21h06.04.812,arm3_eps,2022.2.5,Win32,75.08071177,611ffdb45eb3cf8c95508295,64aea9d0f615b6559c281482,64becb54db92566c53602d47,down,1,0.3,0.4357,16,0,1.0811,,,,,,340,0,340,0,1,,,,,
,,543133,001,2023-07-24_21h06.04.812,arm3_eps,2022.2.5,Win32,75.08071177,611ffdb45eb3cf8c95508295,64aea9d0f615b6559c281482,64becb54db92566c53602d47,up,-1,0.3,0.4357,16,0,1.1338,,,,,,341,0,341,0,1,,,,,
,,543133,001,2023-07-24_21h06.04.812,arm3_eps,2022.2.5,Win32,75.08071177,611ffdb45eb3cf8c95508295,64aea9d0f615b6559c281482,64becb54db92566c53602d47,down,-1,0.3,0.4357,16,0,1.1467,,,,,,342,0,342,0,1,,,,,
,,543133,001,2023-07-24_21h06.04.812,arm3_eps,2022.2.5,Win32,75.08071177,611ffdb45eb3cf8c95508295,64aea9d0f615b6559c281482,64becb54db92566c53602d47,up,-1,0.3,0.4357,16,0,1.0411,,,,,,343,0,343,0,1,,,,,
,,543133,001,2023-07-24_21h06.04.812,arm3_eps,2022.2.5,Win32,75.08071177,611ffdb45eb3cf8c95508295,64aea9d0f615b6559c281482,64becb54db92566c53602d47,up,1,0.3,0.4357,16,0,1.2277,,,,,,344,0,344,0,1,,,,,
,,543133,001,2023-07-24_21h06.04.812,arm3_eps,2022.2.5,Win32,75.08071177,611ffdb45eb3cf8c95508295,64aea9d0f615b6559c281482,64becb54db92566c53602d47,down,-1,0.3,0.4357,16,0,1.1072,,,,,,345,0,345,0,1,,,,,
,,543133,001,2023-07-24_21h06.04.812,arm3_eps,2022.2.5,Win32,75.08071177,611ffdb45eb3cf8c95508295,64aea9d0f615b6559c281482,64becb54db92566c53602d47,down,1,0.3,0.4357,16,0,1.4537,,,,,,346,0,346,0,1,,,,,
,,543133,001,2023-07-24_21h06.04.812,arm3_eps,2022.2.5,Win32,75.08071177,611ffdb45eb3cf8c95508295,64aea9d0f615b6559c281482,64becb54db92566c53602d47,down,-1,0.3,0.4357,16,0,1.1477,,,,,,347,0,347,0,1,,,,,
,,543133,001,2023-07-24_21h06.04.812,arm3_eps,2022.2.5,Win32,75.08071177,611ffdb45eb3cf8c95508295,64aea9d0f615b6559c281482,64becb54db92566c53602d47,down,-1,0.3,0.4357,16,0,1.267,,,,,,348,0,348,0,1,,,,,
,,543133,001,2023-07-24_21h06.04.812,arm3_eps,2022.2.5,Win32,75.08071177,611ffdb45eb3cf8c95508295,64aea9d0f615b6559c281482,64becb54db92566c53602d47,up,1,0.3,0.4357,16,0,1.5074,,,,,,349,0,349,0,1,,,,,
,,543133,001,2023-07-24_21h06.04.812,arm3_eps,2022.2.5,Win32,75.08071177,611ffdb45eb3cf8c95508295,64aea9d0f615b6559c281482,64becb54db92566c53602d47,down,1,0.3,0.4357,16,0,1.1209,,,,,,350,0,350,0,1,,,,,
,,543133,001,2023-07-24_21h06.04.812,arm3_eps,2022.2.5,Win32,75.08071177,611ffdb45eb3cf8c95508295,64aea9d0f615b6559c281482,64becb54db92566c53602d47,up,-1,0.3,0.4357,16,0,1.1602,,,,,,351,0,351,0,1,,,,,
,,543133,001,2023-07-24_21h06.04.812,arm3_eps,2022.2.5,Win32,75.08071177,611ffdb45eb3cf8c95508295,64aea9d0f615b6559c281482,64becb54db92566c53602d47,down,-1,0.3,0.4357,17,0,1.1341,,,,,,352,0,352,0,1,,,,,
,,543133,001,2023-07-24_21h06.04.812,arm3_eps,2022.2.5,Win32,75.08071177,611ffdb45eb3cf8c95508295,64aea9d0f615b6559c281482,64becb54db92566c53602d47,down,-1,0.3,0.4357,17,0,1.0806,,,,,,353,0,353,0,1,,,,,
,,543133,001,2023-07-24_21h06.04.812,arm3_eps,2022.2.5,Win32,75.08071177,611ffdb45eb3cf8c95508295,64aea9d0f615b6559c281482,64becb54db92566c53602d47,down,1,0.3,0.4357,17,0,1.1205,,,,,,354,0,354,0,1,,,,,
,,543133,001,2023-07-24_21h06.04.812,arm3_eps,2022.2.5,Win32,75.08071177,611ffdb45eb3cf8c95508295,64aea9d0f615b6559c281482,64becb54db92566c53602d47,down,-1,0.3,0.4357,17,0,1.1604,,,,,,355,0,355,0,1,,,,,
,,543133,001,2023-07-24_21h06.04.812,arm3_eps,2022.2.5,Win32,75.08071177,611ffdb45eb3cf8c95508295,64aea9d0f615b6559c281482,64becb54db92566c53602d47,down,-1,0.3,0.4357,17,0,1.094,,,,,,356,0,356,0,1,,,,,
,,543133,001,2023-07-24_21h06.04.812,arm3_eps,2022.2.5,Win32,75.08071177,611ffdb45eb3cf8c95508295,64aea9d0f615b6559c281482,64becb54db92566c53602d47,down,-1,0.3,0.4357,17,0,1.5204,,,,,,357,0,357,0,1,,,,,
,,543133,001,2023-07-24_21h06.04.812,arm3_eps,2022.2.5,Win32,75.08071177,611ffdb45eb3cf8c95508295,64aea9d0f615b6559c281482,64becb54db92566c53602d47,down,1,0.3,0.4357,17,0,1.1068,,,,,,358,0,358,0,1,,,,,
,,543133,001,2023-07-24_21h06.04.812,arm3_eps,2022.2.5,Win32,75.08071177,611ffdb45eb3cf8c95508295,64aea9d0f615b6559c281482,64becb54db92566c53602d47,down,-1,0.3,0.4357,17,0,1.3343,,,,,,359,0,359,0,1,,,,,
,,543133,001,2023-07-24_21h06.04.812,arm3_eps,2022.2.5,Win32,75.08071177,611ffdb45eb3cf8c95508295,64aea9d0f615b6559c281482,64becb54db92566c53602d47,up,-1,0.3,0.4357,17,0,1.1611,,,,,,360,0,360,0,1,,,,,
,,543133,001,2023-07-24_21h06.04.812,arm3_eps,2022.2.5,Win32,75.08071177,611ffdb45eb3cf8c95508295,64aea9d0f615b6559c281482,64becb54db92566c53602d47,down,1,0.3,0.4357,17,0,1.1471,,,,,,361,0,361,0,1,,,,,
,,543133,001,2023-07-24_21h06.04.812,arm3_eps,2022.2.5,Win32,75.08071177,611ffdb45eb3cf8c95508295,64aea9d0f615b6559c281482,64becb54db92566c53602d47,up,-1,0.3,0.4357,17,0,1.2671,,,,,,362,0,362,0,1,,,,,
,,543133,001,2023-07-24_21h06.04.812,arm3_eps,2022.2.5,Win32,75.08071177,611ffdb45eb3cf8c95508295,64aea9d0f615b6559c281482,64becb54db92566c53602d47,down,1,0.3,0.4357,18,0,1.1604,,,,,,363,0,363,0,1,,,,,
,,543133,001,2023-07-24_21h06.04.812,arm3_eps,2022.2.5,Win32,75.08071177,611ffdb45eb3cf8c95508295,64aea9d0f615b6559c281482,64becb54db92566c53602d47,down,-1,0.3,0.4357,18,0,1.3075,,,,,,364,0,364,0,1,,,,,
,,543133,001,2023-07-24_21h06.04.812,arm3_eps,2022.2.5,Win32,75.08071177,611ffdb45eb3cf8c95508295,64aea9d0f615b6559c281482,64becb54db92566c53602d47,down,-1,0.3,0.4357,18,0,1.1998,,,,,,365,0,365,0,1,,,,,
,,543133,001,2023-07-24_21h06.04.812,arm3_eps,2022.2.5,Win32,75.08071177,611ffdb45eb3cf8c95508295,64aea9d0f615b6559c281482,64becb54db92566c53602d47,down,-1,0.3,0.4357,19,0,1.2271,,,,,,366,0,366,0,1,,,,,
,,543133,001,2023-07-24_21h06.04.812,arm3_eps,2022.2.5,Win32,75.08071177,611ffdb45eb3cf8c95508295,64aea9d0f615b6559c281482,64becb54db92566c53602d47,down,-1,0.3,0.4357,20,0,2.0264,,,,,,367,0,367,0,1,,,,,
,,543133,001,2023-07-24_21h06.04.812,arm3_eps,2022.2.5,Win32,75.08071177,611ffdb45eb3cf8c95508295,64aea9d0f615b6559c281482,64becb54db92566c53602d47,down,1,0.3,0.4357,20,0,2.0008,,,,,,368,0,368,0,1,,,,,
,,543133,001,2023-07-24_21h06.04.812,arm3_eps,2022.2.5,Win32,75.08071177,611ffdb45eb3cf8c95508295,64aea9d0f615b6559c281482,64becb54db92566c53602d47,down,1,0.3,0.4357,20,0,1.8135,,,,,,369,0,369,0,1,,,,,
,,543133,001,2023-07-24_21h06.04.812,arm3_eps,2022.2.5,Win32,75.08071177,611ffdb45eb3cf8c95508295,64aea9d0f615b6559c281482,64becb54db92566c53602d47,,,,,,,,,,,,,,,,,,0,0,0,0,1
space,11.2767,543133,001,2023-07-24_21h06.04.812,arm3_eps,2022.2.5,Win32,75.08071177,611ffdb45eb3cf8c95508295,64aea9d0f615b6559c281482,64becb54db92566c53602d47,down,1,0.3,0.1143,20,0,4.0622,,,,,,0,0,0,0,1,,,,,
,,543133,001,2023-07-24_21h06.04.812,arm3_eps,2022.2.5,Win32,75.08071177,611ffdb45eb3cf8c95508295,64aea9d0f615b6559c281482,64becb54db92566c53602d47,up,-1,0.3,0.1143,20,0,1.3204,,,,,,1,0,1,0,1,,,,,
,,543133,001,2023-07-24_21h06.04.812,arm3_eps,2022.2.5,Win32,75.08071177,611ffdb45eb3cf8c95508295,64aea9d0f615b6559c281482,64becb54db92566c53602d47,down,1,0.3,0.1143,20,0,1.1204,,,,,,2,0,2,0,1,,,,,
,,543133,001,2023-07-24_21h06.04.812,arm3_eps,2022.2.5,Win32,75.08071177,611ffdb45eb3cf8c95508295,64aea9d0f615b6559c281482,64becb54db92566c53602d47,up,1,0.3,0.1143,20,0,1.0275,,,,,,3,0,3,0,1,,,,,
,,543133,001,2023-07-24_21h06.04.812,arm3_eps,2022.2.5,Win32,75.08071177,611ffdb45eb3cf8c95508295,64aea9d0f615b6559c281482,64becb54db92566c53602d47,down,1,0.3,0.1143,20,0,1.054,,,,,,4,0,4,0,1,,,,,
,,543133,001,2023-07-24_21h06.04.812,arm3_eps,2022.2.5,Win32,75.08071177,611ffdb45eb3cf8c95508295,64aea9d0f615b6559c281482,64becb54db92566c53602d47,down,1,0.3,0.1143,20,0,1.0269,,,,,,5,0,5,0,1,,,,,
,,543133,001,2023-07-24_21h06.04.812,arm3_eps,2022.2.5,Win32,75.08071177,611ffdb45eb3cf8c95508295,64aea9d0f615b6559c281482,64becb54db92566c53602d47,down,1,0.3,0.1143,19,0,1.0804,,,,,,6,0,6,0,1,,,,,
,,543133,001,2023-07-24_21h06.04.812,arm3_eps,2022.2.5,Win32,75.08071177,611ffdb45eb3cf8c95508295,64aea9d0f615b6559c281482,64becb54db92566c53602d47,up,1,0.3,0.1143,19,0,1.2132,,,,,,7,0,7,0,1,,,,,
,,543133,001,2023-07-24_21h06.04.812,arm3_eps,2022.2.5,Win32,75.08071177,611ffdb45eb3cf8c95508295,64aea9d0f615b6559c281482,64becb54db92566c53602d47,up,1,0.3,0.1143,19,0,1.0271,,,,,,8,0,8,0,1,,,,,
,,543133,001,2023-07-24_21h06.04.812,arm3_eps,2022.2.5,Win32,75.08071177,611ffdb45eb3cf8c95508295,64aea9d0f615b6559c281482,64becb54db92566c53602d47,down,-1,0.3,0.1143,19,0,1.0672,,,,,,9,0,9,0,1,,,,,
,,543133,001,2023-07-24_21h06.04.812,arm3_eps,2022.2.5,Win32,75.08071177,611ffdb45eb3cf8c95508295,64aea9d0f615b6559c281482,64becb54db92566c53602d47,down,1,0.3,0.1143,19,0,1.0009,,,,,,10,0,10,0,1,,,,,
,,543133,001,2023-07-24_21h06.04.812,arm3_eps,2022.2.5,Win32,75.08071177,611ffdb45eb3cf8c95508295,64aea9d0f615b6559c281482,64becb54db92566c53602d47,down,1,0.3,0.1143,19,0,1.0538,,,,,,11,0,11,0,1,,,,,
,,543133,001,2023-07-24_21h06.04.812,arm3_eps,2022.2.5,Win32,75.08071177,611ffdb45eb3cf8c95508295,64aea9d0f615b6559c281482,64becb54db92566c53602d47,down,1,0.3,0.1143,19,0,1.0003,,,,,,12,0,12,0,1,,,,,
,,543133,001,2023-07-24_21h06.04.812,arm3_eps,2022.2.5,Win32,75.08071177,611ffdb45eb3cf8c95508295,64aea9d0f615b6559c281482,64becb54db92566c53602d47,up,1,0.3,0.1143,19,0,1.3741,,,,,,13,0,13,0,1,,,,,
,,543133,001,2023-07-24_21h06.04.812,arm3_eps,2022.2.5,Win32,75.08071177,611ffdb45eb3cf8c95508295,64aea9d0f615b6559c281482,64becb54db92566c53602d47,down,1,0.3,0.1143,19,0,1.1074,,,,,,14,0,14,0,1,,,,,
,,543133,001,2023-07-24_21h06.04.812,arm3_eps,2022.2.5,Win32,75.08071177,611ffdb45eb3cf8c95508295,64aea9d0f615b6559c281482,64becb54db92566c53602d47,down,1,0.3,0.1143,18,0,1.3605,,,,,,15,0,15,0,1,,,,,
,,543133,001,2023-07-24_21h06.04.812,arm3_eps,2022.2.5,Win32,75.08071177,611ffdb45eb3cf8c95508295,64aea9d0f615b6559c281482,64becb54db92566c53602d47,up,1,0.3,0.1143,19,0,1.2165,,,,,,16,0,16,0,1,,,,,
,,543133,001,2023-07-24_21h06.04.812,arm3_eps,2022.2.5,Win32,75.08071177,611ffdb45eb3cf8c95508295,64aea9d0f615b6559c281482,64becb54db92566c53602d47,up,1,0.3,0.1143,20,0,1.2939,,,,,,17,0,17,0,1,,,,,
,,543133,001,2023-07-24_21h06.04.812,arm3_eps,2022.2.5,Win32,75.08071177,611ffdb45eb3cf8c95508295,64aea9d0f615b6559c281482,64becb54db92566c53602d47,down,1,0.3,0.1143,19,0,1.2005,,,,,,18,0,18,0,1,,,,,
,,543133,001,2023-07-24_21h06.04.812,arm3_eps,2022.2.5,Win32,75.08071177,611ffdb45eb3cf8c95508295,64aea9d0f615b6559c281482,64becb54db92566c53602d47,down,1,0.3,0.1143,19,0,1.4803,,,,,,19,0,19,0,1,,,,,
,,543133,001,2023-07-24_21h06.04.812,arm3_eps,2022.2.5,Win32,75.08071177,611ffdb45eb3cf8c95508295,64aea9d0f615b6559c281482,64becb54db92566c53602d47,up,-1,0.3,0.1143,20,0,1.081,,,,,,20,0,20,0,1,,,,,
,,543133,001,2023-07-24_21h06.04.812,arm3_eps,2022.2.5,Win32,75.08071177,611ffdb45eb3cf8c95508295,64aea9d0f615b6559c281482,64becb54db92566c53602d47,down,-1,0.3,0.1143,20,0,1.1203,,,,,,21,0,21,0,1,,,,,
,,543133,001,2023-07-24_21h06.04.812,arm3_eps,2022.2.5,Win32,75.08071177,611ffdb45eb3cf8c95508295,64aea9d0f615b6559c281482,64becb54db92566c53602d47,up,1,0.3,0.1143,20,0,2.0798,,,,,,22,0,22,0,1,,,,,
,,543133,001,2023-07-24_21h06.04.812,arm3_eps,2022.2.5,Win32,75.08071177,611ffdb45eb3cf8c95508295,64aea9d0f615b6559c281482,64becb54db92566c53602d47,up,1,0.3,0.1143,21,0,1.1737,,,,,,23,0,23,0,1,,,,,
,,543133,001,2023-07-24_21h06.04.812,arm3_eps,2022.2.5,Win32,75.08071177,611ffdb45eb3cf8c95508295,64aea9d0f615b6559c281482,64becb54db92566c53602d47,up,1,0.3,0.1143,21,0,1.0538,,,,,,24,0,24,0,1,,,,,
,,543133,001,2023-07-24_21h06.04.812,arm3_eps,2022.2.5,Win32,75.08071177,611ffdb45eb3cf8c95508295,64aea9d0f615b6559c281482,64becb54db92566c53602d47,up,1,0.3,0.1143,21,0,1.0145,,,,,,25,0,25,0,1,,,,,
,,543133,001,2023-07-24_21h06.04.812,arm3_eps,2022.2.5,Win32,75.08071177,611ffdb45eb3cf8c95508295,64aea9d0f615b6559c281482,64becb54db92566c53602d47,up,1,0.3,0.1143,21,0,0.9204,,,,,,26,0,26,0,1,,,,,
,,543133,001,2023-07-24_21h06.04.812,arm3_eps,2022.2.5,Win32,75.08071177,611ffdb45eb3cf8c95508295,64aea9d0f615b6559c281482,64becb54db92566c53602d47,up,1,0.3,0.1143,21,0,1.6143,,,,,,27,0,27,0,1,,,,,
,,543133,001,2023-07-24_21h06.04.812,arm3_eps,2022.2.5,Win32,75.08071177,611ffdb45eb3cf8c95508295,64aea9d0f615b6559c281482,64becb54db92566c53602d47,up,1,0.3,0.1143,21,0,1.6958,,,,,,28,0,28,0,1,,,,,
,,543133,001,2023-07-24_21h06.04.812,arm3_eps,2022.2.5,Win32,75.08071177,611ffdb45eb3cf8c95508295,64aea9d0f615b6559c281482,64becb54db92566c53602d47,up,-1,0.3,0.1143,22,0,1.2671,,,,,,29,0,29,0,1,,,,,
,,543133,001,2023-07-24_21h06.04.812,arm3_eps,2022.2.5,Win32,75.08071177,611ffdb45eb3cf8c95508295,64aea9d0f615b6559c281482,64becb54db92566c53602d47,down,-1,0.3,0.1143,22,0,1.3071,,,,,,30,0,30,0,1,,,,,
,,543133,001,2023-07-24_21h06.04.812,arm3_eps,2022.2.5,Win32,75.08071177,611ffdb45eb3cf8c95508295,64aea9d0f615b6559c281482,64becb54db92566c53602d47,up,-1,0.3,0.1143,22,0,1.3069,,,,,,31,0,31,0,1,,,,,
,,543133,001,2023-07-24_21h06.04.812,arm3_eps,2022.2.5,Win32,75.08071177,611ffdb45eb3cf8c95508295,64aea9d0f615b6559c281482,64becb54db92566c53602d47,down,-1,0.3,0.1143,23,0,1.1611,,,,,,32,0,32,0,1,,,,,
,,543133,001,2023-07-24_21h06.04.812,arm3_eps,2022.2.5,Win32,75.08071177,611ffdb45eb3cf8c95508295,64aea9d0f615b6559c281482,64becb54db92566c53602d47,down,-1,0.3,0.1143,23,0,1.1071,,,,,,33,0,33,0,1,,,,,
,,543133,001,2023-07-24_21h06.04.812,arm3_eps,2022.2.5,Win32,75.08071177,611ffdb45eb3cf8c95508295,64aea9d0f615b6559c281482,64becb54db92566c53602d47,down,-1,0.3,0.1143,23,0,1.0275,,,,,,34,0,34,0,1,,,,,
,,543133,001,2023-07-24_21h06.04.812,arm3_eps,2022.2.5,Win32,75.08071177,611ffdb45eb3cf8c95508295,64aea9d0f615b6559c281482,64becb54db92566c53602d47,up,-1,0.3,0.1143,23,0,1.7336,,,,,,35,0,35,0,1,,,,,
,,543133,001,2023-07-24_21h06.04.812,arm3_eps,2022.2.5,Win32,75.08071177,611ffdb45eb3cf8c95508295,64aea9d0f615b6559c281482,64becb54db92566c53602d47,up,-1,0.3,0.1143,23,0,1.2936,,,,,,36,0,36,0,1,,,,,
,,543133,001,2023-07-24_21h06.04.812,arm3_eps,2022.2.5,Win32,75.08071177,611ffdb45eb3cf8c95508295,64aea9d0f615b6559c281482,64becb54db92566c53602d47,down,-1,0.3,0.1143,23,0,1.6002,,,,,,37,0,37,0,1,,,,,
,,543133,001,2023-07-24_21h06.04.812,arm3_eps,2022.2.5,Win32,75.08071177,611ffdb45eb3cf8c95508295,64aea9d0f615b6559c281482,64becb54db92566c53602d47,down,-1,0.3,0.1143,24,0,1.081,,,,,,38,0,38,0,1,,,,,
,,543133,001,2023-07-24_21h06.04.812,arm3_eps,2022.2.5,Win32,75.08071177,611ffdb45eb3cf8c95508295,64aea9d0f615b6559c281482,64becb54db92566c53602d47,up,1,0.3,0.1143,23,0,1.1205,,,,,,39,0,39,0,1,,,,,
,,543133,001,2023-07-24_21h06.04.812,arm3_eps,2022.2.5,Win32,75.08071177,611ffdb45eb3cf8c95508295,64aea9d0f615b6559c281482,64becb54db92566c53602d47,down,1,0.3,0.1143,23,0,1.1604,,,,,,40,0,40,0,1,,,,,
,,543133,001,2023-07-24_21h06.04.812,arm3_eps,2022.2.5,Win32,75.08071177,611ffdb45eb3cf8c95508295,64aea9d0f615b6559c281482,64becb54db92566c53602d47,down,1,0.3,0.1143,22,0,1.067,,,,,,41,0,41,0,1,,,,,
,,543133,001,2023-07-24_21h06.04.812,arm3_eps,2022.2.5,Win32,75.08071177,611ffdb45eb3cf8c95508295,64aea9d0f615b6559c281482,64becb54db92566c53602d47,down,1,0.3,0.1143,21,0,1.187,,,,,,42,0,42,0,1,,,,,
,,543133,001,2023-07-24_21h06.04.812,arm3_eps,2022.2.5,Win32,75.08071177,611ffdb45eb3cf8c95508295,64aea9d0f615b6559c281482,64becb54db92566c53602d47,up,1,0.3,0.1143,21,0,1.1602,,,,,,43,0,43,0,1,,,,,
,,543133,001,2023-07-24_21h06.04.812,arm3_eps,2022.2.5,Win32,75.08071177,611ffdb45eb3cf8c95508295,64aea9d0f615b6559c281482,64becb54db92566c53602d47,up,1,0.3,0.1143,22,0,1.2003,,,,,,44,0,44,0,1,,,,,
,,543133,001,2023-07-24_21h06.04.812,arm3_eps,2022.2.5,Win32,75.08071177,611ffdb45eb3cf8c95508295,64aea9d0f615b6559c281482,64becb54db92566c53602d47,up,-1,0.3,0.1143,22,0,0.9877,,,,,,45,0,45,0,1,,,,,
,,543133,001,2023-07-24_21h06.04.812,arm3_eps,2022.2.5,Win32,75.08071177,611ffdb45eb3cf8c95508295,64aea9d0f615b6559c281482,64becb54db92566c53602d47,up,-1,0.3,0.1143,22,0,1.0934,,,,,,46,0,46,0,1,,,,,
,,543133,001,2023-07-24_21h06.04.812,arm3_eps,2022.2.5,Win32,75.08071177,611ffdb45eb3cf8c95508295,64aea9d0f615b6559c281482,64becb54db92566c53602d47,up,-1,0.3,0.1143,22,0,1.0427,,,,,,47,0,47,0,1,,,,,
,,543133,001,2023-07-24_21h06.04.812,arm3_eps,2022.2.5,Win32,75.08071177,611ffdb45eb3cf8c95508295,64aea9d0f615b6559c281482,64becb54db92566c53602d47,up,-1,0.3,0.1143,22,0,0.9871,,,,,,48,0,48,0,1,,,,,
,,543133,001,2023-07-24_21h06.04.812,arm3_eps,2022.2.5,Win32,75.08071177,611ffdb45eb3cf8c95508295,64aea9d0f615b6559c281482,64becb54db92566c53602d47,down,1,0.3,0.1143,22,0,1.2135,,,,,,49,0,49,0,1,,,,,
,,543133,001,2023-07-24_21h06.04.812,arm3_eps,2022.2.5,Win32,75.08071177,611ffdb45eb3cf8c95508295,64aea9d0f615b6559c281482,64becb54db92566c53602d47,up,1,0.3,0.1143,22,0,1.0546,,,,,,50,0,50,0,1,,,,,
,,543133,001,2023-07-24_21h06.04.812,arm3_eps,2022.2.5,Win32,75.08071177,611ffdb45eb3cf8c95508295,64aea9d0f615b6559c281482,64becb54db92566c53602d47,up,1,0.3,0.1143,22,0,1.0539,,,,,,51,0,51,0,1,,,,,
,,543133,001,2023-07-24_21h06.04.812,arm3_eps,2022.2.5,Win32,75.08071177,611ffdb45eb3cf8c95508295,64aea9d0f615b6559c281482,64becb54db92566c53602d47,down,1,0.3,0.1143,22,0,1.0672,,,,,,52,0,52,0,1,,,,,
,,543133,001,2023-07-24_21h06.04.812,arm3_eps,2022.2.5,Win32,75.08071177,611ffdb45eb3cf8c95508295,64aea9d0f615b6559c281482,64becb54db92566c53602d47,down,1,0.3,0.1143,22,0,1.0539,,,,,,53,0,53,0,1,,,,,
,,543133,001,2023-07-24_21h06.04.812,arm3_eps,2022.2.5,Win32,75.08071177,611ffdb45eb3cf8c95508295,64aea9d0f615b6559c281482,64becb54db92566c53602d47,up,-1,0.3,0.1143,22,0,1.1737,,,,,,54,0,54,0,1,,,,,
,,543133,001,2023-07-24_21h06.04.812,arm3_eps,2022.2.5,Win32,75.08071177,611ffdb45eb3cf8c95508295,64aea9d0f615b6559c281482,64becb54db92566c53602d47,up,-1,0.3,0.1143,21,0,1.1206,,,,,,55,0,55,0,1,,,,,
,,543133,001,2023-07-24_21h06.04.812,arm3_eps,2022.2.5,Win32,75.08071177,611ffdb45eb3cf8c95508295,64aea9d0f615b6559c281482,64becb54db92566c53602d47,down,-1,0.3,0.1143,21,0,1.1737,,,,,,56,0,56,0,1,,,,,
,,543133,001,2023-07-24_21h06.04.812,arm3_eps,2022.2.5,Win32,75.08071177,611ffdb45eb3cf8c95508295,64aea9d0f615b6559c281482,64becb54db92566c53602d47,down,-1,0.3,0.1143,21,0,0.9736,,,,,,57,0,57,0,1,,,,,
,,543133,001,2023-07-24_21h06.04.812,arm3_eps,2022.2.5,Win32,75.08071177,611ffdb45eb3cf8c95508295,64aea9d0f615b6559c281482,64becb54db92566c53602d47,down,1,0.3,0.1143,22,0,0.9746,,,,,,58,0,58,0,1,,,,,
,,543133,001,2023-07-24_21h06.04.812,arm3_eps,2022.2.5,Win32,75.08071177,611ffdb45eb3cf8c95508295,64aea9d0f615b6559c281482,64becb54db92566c53602d47,up,1,0.3,0.1143,22,0,1.3207,,,,,,59,0,59,0,1,,,,,
,,543133,001,2023-07-24_21h06.04.812,arm3_eps,2022.2.5,Win32,75.08071177,611ffdb45eb3cf8c95508295,64aea9d0f615b6559c281482,64becb54db92566c53602d47,up,-1,0.3,0.1143,22,0,1.2269,,,,,,60,0,60,0,1,,,,,
,,543133,001,2023-07-24_21h06.04.812,arm3_eps,2022.2.5,Win32,75.08071177,611ffdb45eb3cf8c95508295,64aea9d0f615b6559c281482,64becb54db92566c53602d47,down,-1,0.3,0.1143,22,0,1.1076,,,,,,61,0,61,0,1,,,,,
,,543133,001,2023-07-24_21h06.04.812,arm3_eps,2022.2.5,Win32,75.08071177,611ffdb45eb3cf8c95508295,64aea9d0f615b6559c281482,64becb54db92566c53602d47,down,1,0.3,0.1143,22,0,1.067,,,,,,62,0,62,0,1,,,,,
,,543133,001,2023-07-24_21h06.04.812,arm3_eps,2022.2.5,Win32,75.08071177,611ffdb45eb3cf8c95508295,64aea9d0f615b6559c281482,64becb54db92566c53602d47,up,1,0.3,0.1143,22,0,1.1337,,,,,,63,0,63,0,1,,,,,
