space_bar.keys,space_bar.rt,participant,session,date,expName,psychopyVersion,OS,frameRate,PROLIFIC_PID,STUDY_ID,SESSION_ID,resp.keys,state,q_prob,eps_prob,score,price,resp.rt,train.thisRepN,train.thisTrialN,train.thisN,train.thisIndex,train.ran,steps.thisRepN,steps.thisTrialN,steps.thisN,steps.thisIndex,steps.ran,blocks.thisRepN,blocks.thisTrialN,blocks.thisN,blocks.thisIndex,blocks.ran
space,19.5111,808369,001,2023-07-24_14h06.17.600,arm3_eps,2022.2.5,Win32,29.98141152,613ce0908bb5dbe6bcb5944a,64aea9d0f615b6559c281482,64becb866d75df8cfff76850,,,,,,,,,,,,,,,,,,,,,,
space,10.3068,808369,001,2023-07-24_14h06.17.600,arm3_eps,2022.2.5,Win32,29.98141152,613ce0908bb5dbe6bcb5944a,64aea9d0f615b6559c281482,64becb866d75df8cfff76850,,,,,,,,,,,,,,,,,,,,,,
space,8.6256,808369,001,2023-07-24_14h06.17.600,arm3_eps,2022.2.5,Win32,29.98141152,613ce0908bb5dbe6bcb5944a,64aea9d0f615b6559c281482,64becb866d75df8cfff76850,,,,,,,,,,,,,,,,,,,,,,
space,17.984,808369,001,2023-07-24_14h06.17.600,arm3_eps,2022.2.5,Win32,29.98141152,613ce0908bb5dbe6bcb5944a,64aea9d0f615b6559c281482,64becb866d75df8cfff76850,,,,,,,,,,,,,,,,,,,,,,
space,1.2865,808369,001,2023-07-24_14h06.17.600,arm3_eps,2022.2.5,Win32,29.98141152,613ce0908bb5dbe6bcb5944a,64aea9d0f615b6559c281482,64becb866d75df8cfff76850,,,,,,,,,,,,,,,,,,,,,,
space,0.495299999,808369,001,2023-07-24_14h06.17.600,arm3_eps,2022.2.5,Win32,29.98141152,613ce0908bb5dbe6bcb5944a,64aea9d0f615b6559c281482,64becb866d75df8cfff76850,,,,,,,,,,,,,,,,,,,,,,
space,0.435800001,808369,001,2023-07-24_14h06.17.600,arm3_eps,2022.2.5,Win32,29.98141152,613ce0908bb5dbe6bcb5944a,64aea9d0f615b6559c281482,64becb866d75df8cfff76850,,,,,,,,,,,,,,,,,,,,,,
space,0.396699999,808369,001,2023-07-24_14h06.17.600,arm3_eps,2022.2.5,Win32,29.98141152,613ce0908bb5dbe6bcb5944a,64aea9d0f615b6559c281482,64becb866d75df8cfff76850,,,,,,,,,,,,,,,,,,,,,,
space,0.3696,808369,001,2023-07-24_14h06.17.600,arm3_eps,2022.2.5,Win32,29.98141152,613ce0908bb5dbe6bcb5944a,64aea9d0f615b6559c281482,64becb866d75df8cfff76850,,,,,,,,,,,,,,,,,,,,,,
space,0.7686,808369,001,2023-07-24_14h06.17.600,arm3_eps,2022.2.5,Win32,29.98141152,613ce0908bb5dbe6bcb5944a,64aea9d0f615b6559c281482,64becb866d75df8cfff76850,,,,,,,,,,,,,,,,,,,,,,
,,808369,001,2023-07-24_14h06.17.600,arm3_eps,2022.2.5,Win32,29.98141152,613ce0908bb5dbe6bcb5944a,64aea9d0f615b6559c281482,64becb866d75df8cfff76850,down,-1,0.3,0.2429,0,0,5.267900002,0,0,0,0,1,,,,,,,,,,
,,808369,001,2023-07-24_14h06.17.600,arm3_eps,2022.2.5,Win32,29.98141152,613ce0908bb5dbe6bcb5944a,64aea9d0f615b6559c281482,64becb866d75df8cfff76850,down,-1,0.3,0.2429,0,0,0.0411,1,0,1,0,1,,,,,,,,,,
,,808369,001,2023-07-24_14h06.17.600,arm3_eps,2022.2.5,Win32,29.98141152,613ce0908bb5dbe6bcb5944a,64aea9d0f615b6559c281482,64becb866d75df8cfff76850,up,-1,0.3,0.2429,0,0,2.733,2,0,2,0,1,,,,,,,,,,
,,808369,001,2023-07-24_14h06.17.600,arm3_eps,2022.2.5,Win32,29.98141152,613ce0908bb5dbe6bcb5944a,64aea9d0f615b6559c281482,64becb866d75df8cfff76850,right,-1,0.3,0.2429,0,-0.008994622,1.160700001,3,0,3,0,1,,,,,,,,,,
,,808369,001,2023-07-24_14h06.17.600,arm3_eps,2022.2.5,Win32,29.98141152,613ce0908bb5dbe6bcb5944a,64aea9d0f615b6559c281482,64becb866d75df8cfff76850,right,-1,0.3,0.2429,0,0.012021236,0.911299999,4,0,4,0,1,,,,,,,,,,
,,808369,001,2023-07-24_14h06.17.600,arm3_eps,2022.2.5,Win32,29.98141152,613ce0908bb5dbe6bcb5944a,64aea9d0f615b6559c281482,64becb866d75df8cfff76850,right,-1,0.3,0.2429,0,0.00769718,0.4464,5,0,5,0,1,,,,,,,,,,
,,808369,001,2023-07-24_14h06.17.600,arm3_eps,2022.2.5,Win32,29.98141152,613ce0908bb5dbe6bcb5944a,64aea9d0f615b6559c281482,64becb866d75df8cfff76850,right,-1,0.3,0.2429,0,-0.009298083,0.184900002,6,0,6,0,1,,,,,,,,,,
,,808369,001,2023-07-24_14h06.17.600,arm3_eps,2022.2.5,Win32,29.98141152,613ce0908bb5dbe6bcb5944a,64aea9d0f615b6559c281482,64becb866d75df8cfff76850,right,-1,0.3,0.2429,0,-0.015155164,0.1581,7,0,7,0,1,,,,,,,,,,
,,808369,001,2023-07-24_14h06.17.600,arm3_eps,2022.2.5,Win32,29.98141152,613ce0908bb5dbe6bcb5944a,64aea9d0f615b6559c281482,64becb866d75df8cfff76850,right,-1,0.3,0.2429,0,-0.061616421,0.1636,8,0,8,0,1,,,,,,,,,,
,,808369,001,2023-07-24_14h06.17.600,arm3_eps,2022.2.5,Win32,29.98141152,613ce0908bb5dbe6bcb5944a,64aea9d0f615b6559c281482,64becb866d75df8cfff76850,up,-1,0.3,0.2429,-1,0,1.236800001,9,0,9,0,1,,,,,,,,,,
,,808369,001,2023-07-24_14h06.17.600,arm3_eps,2022.2.5,Win32,29.98141152,613ce0908bb5dbe6bcb5944a,64aea9d0f615b6559c281482,64becb866d75df8cfff76850,right,-1,0.3,0.2429,-1,-0.007557,1.110800001,10,0,10,0,1,,,,,,,,,,
,,808369,001,2023-07-24_14h06.17.600,arm3_eps,2022.2.5,Win32,29.98141152,613ce0908bb5dbe6bcb5944a,64aea9d0f615b6559c281482,64becb866d75df8cfff76850,up,-1,0.3,0.2429,-1,0,2.8875,11,0,11,0,1,,,,,,,,,,
,,808369,001,2023-07-24_14h06.17.600,arm3_eps,2022.2.5,Win32,29.98141152,613ce0908bb5dbe6bcb5944a,64aea9d0f615b6559c281482,64becb866d75df8cfff76850,right,-1,0.3,0.2429,-1,-0.028701316,0.086599998,12,0,12,0,1,,,,,,,,,,
,,808369,001,2023-07-24_14h06.17.600,arm3_eps,2022.2.5,Win32,29.98141152,613ce0908bb5dbe6bcb5944a,64aea9d0f615b6559c281482,64becb866d75df8cfff76850,up,-1,0.3,0.2429,-1,0,0.13,13,0,13,0,1,,,,,,,,,,
,,808369,001,2023-07-24_14h06.17.600,arm3_eps,2022.2.5,Win32,29.98141152,613ce0908bb5dbe6bcb5944a,64aea9d0f615b6559c281482,64becb866d75df8cfff76850,right,-1,0.3,0.2429,-1,0.013694608,0.616200001,14,0,14,0,1,,,,,,,,,,
,,808369,001,2023-07-24_14h06.17.600,arm3_eps,2022.2.5,Win32,29.98141152,613ce0908bb5dbe6bcb5944a,64aea9d0f615b6559c281482,64becb866d75df8cfff76850,right,-1,0.3,0.2429,-1,-0.01348892,0.401699999,15,0,15,0,1,,,,,,,,,,
,,808369,001,2023-07-24_14h06.17.600,arm3_eps,2022.2.5,Win32,29.98141152,613ce0908bb5dbe6bcb5944a,64aea9d0f615b6559c281482,64becb866d75df8cfff76850,right,-1,0.3,0.2429,-1,-0.014611461,0.1694,16,0,16,0,1,,,,,,,,,,
,,808369,001,2023-07-24_14h06.17.600,arm3_eps,2022.2.5,Win32,29.98141152,613ce0908bb5dbe6bcb5944a,64aea9d0f615b6559c281482,64becb866d75df8cfff76850,right,-1,0.3,0.2429,-1,-0.017718984,0.144400002,17,0,17,0,1,,,,,,,,,,
,,808369,001,2023-07-24_14h06.17.600,arm3_eps,2022.2.5,Win32,29.98141152,613ce0908bb5dbe6bcb5944a,64aea9d0f615b6559c281482,64becb866d75df8cfff76850,right,-1,0.3,0.2429,-1,-0.000966211,0.093299999,18,0,18,0,1,,,,,,,,,,
,,808369,001,2023-07-24_14h06.17.600,arm3_eps,2022.2.5,Win32,29.98141152,613ce0908bb5dbe6bcb5944a,64aea9d0f615b6559c281482,64becb866d75df8cfff76850,right,-1,0.3,0.2429,-1,-0.058929601,0.089200001,19,0,19,0,1,,,,,,,,,,
,,808369,001,2023-07-24_14h06.17.600,arm3_eps,2022.2.5,Win32,29.98141152,613ce0908bb5dbe6bcb5944a,64aea9d0f615b6559c281482,64becb866d75df8cfff76850,right,-1,0.3,0.2429,-1,-0.064453782,0.8589,20,0,20,0,1,,,,,,,,,,
,,808369,001,2023-07-24_14h06.17.600,arm3_eps,2022.2.5,Win32,29.98141152,613ce0908bb5dbe6bcb5944a,64aea9d0f615b6559c281482,64becb866d75df8cfff76850,right,-1,0.3,0.2429,-1,-0.075590131,0.1064,21,0,21,0,1,,,,,,,,,,
,,808369,001,2023-07-24_14h06.17.600,arm3_eps,2022.2.5,Win32,29.98141152,613ce0908bb5dbe6bcb5944a,64aea9d0f615b6559c281482,64becb866d75df8cfff76850,right,-1,0.3,0.2429,-1,-0.096175115,0.142700001,22,0,22,0,1,,,,,,,,,,
,,808369,001,2023-07-24_14h06.17.600,arm3_eps,2022.2.5,Win32,29.98141152,613ce0908bb5dbe6bcb5944a,64aea9d0f615b6559c281482,64becb866d75df8cfff76850,right,-1,0.3,0.2429,-1,-0.086410146,0.114799999,23,0,23,0,1,,,,,,,,,,
,,808369,001,2023-07-24_14h06.17.600,arm3_eps,2022.2.5,Win32,29.98141152,613ce0908bb5dbe6bcb5944a,64aea9d0f615b6559c281482,64becb866d75df8cfff76850,right,-1,0.3,0.2429,-1,-0.057762832,0.1309,24,0,24,0,1,,,,,,,,,,
,,808369,001,2023-07-24_14h06.17.600,arm3_eps,2022.2.5,Win32,29.98141152,613ce0908bb5dbe6bcb5944a,64aea9d0f615b6559c281482,64becb866d75df8cfff76850,right,-1,0.3,0.2429,-1,-0.047652412,0.1359,25,0,25,0,1,,,,,,,,,,
,,808369,001,2023-07-24_14h06.17.600,arm3_eps,2022.2.5,Win32,29.98141152,613ce0908bb5dbe6bcb5944a,64aea9d0f615b6559c281482,64becb866d75df8cfff76850,up,-1,0.3,0.2429,-1,0,4.611299999,26,0,26,0,1,,,,,,,,,,
,,808369,001,2023-07-24_14h06.17.600,arm3_eps,2022.2.5,Win32,29.98141152,613ce0908bb5dbe6bcb5944a,64aea9d0f615b6559c281482,64becb866d75df8cfff76850,right,-1,0.3,0.2429,-1,-0.013836195,1.0519,27,0,27,0,1,,,,,,,,,,
,,808369,001,2023-07-24_14h06.17.600,arm3_eps,2022.2.5,Win32,29.98141152,613ce0908bb5dbe6bcb5944a,64aea9d0f615b6559c281482,64becb866d75df8cfff76850,right,-1,0.3,0.2429,-1,-0.045117616,0.308299999,28,0,28,0,1,,,,,,,,,,
,,808369,001,2023-07-24_14h06.17.600,arm3_eps,2022.2.5,Win32,29.98141152,613ce0908bb5dbe6bcb5944a,64aea9d0f615b6559c281482,64becb866d75df8cfff76850,right,-1,0.3,0.2429,-1,-0.06103429,0.1455,29,0,29,0,1,,,,,,,,,,
,,808369,001,2023-07-24_14h06.17.600,arm3_eps,2022.2.5,Win32,29.98141152,613ce0908bb5dbe6bcb5944a,64aea9d0f615b6559c281482,64becb866d75df8cfff76850,right,-1,0.3,0.2429,-1,-0.078904142,0.1754,30,0,30,0,1,,,,,,,,,,
,,808369,001,2023-07-24_14h06.17.600,arm3_eps,2022.2.5,Win32,29.98141152,613ce0908bb5dbe6bcb5944a,64aea9d0f615b6559c281482,64becb866d75df8cfff76850,right,-1,0.3,0.2429,-1,-0.070370321,0.148199999,31,0,31,0,1,,,,,,,,,,
,,808369,001,2023-07-24_14h06.17.600,arm3_eps,2022.2.5,Win32,29.98141152,613ce0908bb5dbe6bcb5944a,64aea9d0f615b6559c281482,64becb866d75df8cfff76850,right,-1,0.3,0.2429,-1,-0.077631691,0.1559,32,0,32,0,1,,,,,,,,,,
,,808369,001,2023-07-24_14h06.17.600,arm3_eps,2022.2.5,Win32,29.98141152,613ce0908bb5dbe6bcb5944a,64aea9d0f615b6559c281482,64becb866d75df8cfff76850,right,-1,0.3,0.2429,-1,-0.065409358,0.143,33,0,33,0,1,,,,,,,,,,
,,808369,001,2023-07-24_14h06.17.600,arm3_eps,2022.2.5,Win32,29.98141152,613ce0908bb5dbe6bcb5944a,64aea9d0f615b6559c281482,64becb866d75df8cfff76850,right,-1,0.3,0.2429,-1,-0.095598392,0.149300001,34,0,34,0,1,,,,,,,,,,
,,808369,001,2023-07-24_14h06.17.600,arm3_eps,2022.2.5,Win32,29.98141152,613ce0908bb5dbe6bcb5944a,64aea9d0f615b6559c281482,64becb866d75df8cfff76850,right,-1,0.3,0.2429,-1,-0.087900661,0.124700001,35,0,35,0,1,,,,,,,,,,
,,808369,001,2023-07-24_14h06.17.600,arm3_eps,2022.2.5,Win32,29.98141152,613ce0908bb5dbe6bcb5944a,64aea9d0f615b6559c281482,64becb866d75df8cfff76850,right,-1,0.3,0.2429,-1,-0.12488792,0.162299999,36,0,36,0,1,,,,,,,,,,
,,808369,001,2023-07-24_14h06.17.600,arm3_eps,2022.2.5,Win32,29.98141152,613ce0908bb5dbe6bcb5944a,64aea9d0f615b6559c281482,64becb866d75df8cfff76850,right,-1,0.3,0.2429,-1,-0.144667854,0.1434,37,0,37,0,1,,,,,,,,,,
,,808369,001,2023-07-24_14h06.17.600,arm3_eps,2022.2.5,Win32,29.98141152,613ce0908bb5dbe6bcb5944a,64aea9d0f615b6559c281482,64becb866d75df8cfff76850,right,-1,0.3,0.2429,-1,-0.162935717,0.1435,38,0,38,0,1,,,,,,,,,,
,,808369,001,2023-07-24_14h06.17.600,arm3_eps,2022.2.5,Win32,29.98141152,613ce0908bb5dbe6bcb5944a,64aea9d0f615b6559c281482,64becb866d75df8cfff76850,down,-1,0.3,0.2429,-1,0,5.9905,39,0,39,0,1,,,,,,,,,,
,,808369,001,2023-07-24_14h06.17.600,arm3_eps,2022.2.5,Win32,29.98141152,613ce0908bb5dbe6bcb5944a,64aea9d0f615b6559c281482,64becb866d75df8cfff76850,right,-1,0.3,0.2429,-1,-0.015527792,1.7406,40,0,40,0,1,,,,,,,,,,
,,808369,001,2023-07-24_14h06.17.600,arm3_eps,2022.2.5,Win32,29.98141152,613ce0908bb5dbe6bcb5944a,64aea9d0f615b6559c281482,64becb866d75df8cfff76850,right,-1,0.3,0.2429,-1,-0.026638436,0.199400002,41,0,41,0,1,,,,,,,,,,
,,808369,001,2023-07-24_14h06.17.600,arm3_eps,2022.2.5,Win32,29.98141152,613ce0908bb5dbe6bcb5944a,64aea9d0f615b6559c281482,64becb866d75df8cfff76850,right,-1,0.3,0.2429,-1,-0.015232634,0.1375,42,0,42,0,1,,,,,,,,,,
,,808369,001,2023-07-24_14h06.17.600,arm3_eps,2022.2.5,Win32,29.98141152,613ce0908bb5dbe6bcb5944a,64aea9d0f615b6559c281482,64becb866d75df8cfff76850,right,-1,0.3,0.2429,-1,0.011399646,0.167199999,43,0,43,0,1,,,,,,,,,,
,,808369,001,2023-07-24_14h06.17.600,arm3_eps,2022.2.5,Win32,29.98141152,613ce0908bb5dbe6bcb5944a,64aea9d0f615b6559c281482,64becb866d75df8cfff76850,right,-1,0.3,0.2429,-1,0.01315055,0.097700001,44,0,44,0,1,,,,,,,,,,
,,808369,001,2023-07-24_14h06.17.600,arm3_eps,2022.2.5,Win32,29.98141152,613ce0908bb5dbe6bcb5944a,64aea9d0f615b6559c281482,64becb866d75df8cfff76850,right,-1,0.3,0.2429,-1,-0.015248378,0.1471,45,0,45,0,1,,,,,,,,,,
,,808369,001,2023-07-24_14h06.17.600,arm3_eps,2022.2.5,Win32,29.98141152,613ce0908bb5dbe6bcb5944a,64aea9d0f615b6559c281482,64becb866d75df8cfff76850,right,-1,0.3,0.2429,-1,-0.000309013,0.139299999,46,0,46,0,1,,,,,,,,,,
,,808369,001,2023-07-24_14h06.17.600,arm3_eps,2022.2.5,Win32,29.98141152,613ce0908bb5dbe6bcb5944a,64aea9d0f615b6559c281482,64becb866d75df8cfff76850,right,-1,0.3,0.2429,-1,-0.010721944,0.136299999,47,0,47,0,1,,,,,,,,,,
,,808369,001,2023-07-24_14h06.17.600,arm3_eps,2022.2.5,Win32,29.98141152,613ce0908bb5dbe6bcb5944a,64aea9d0f615b6559c281482,64becb866d75df8cfff76850,right,-1,0.3,0.2429,-1,-0.012685161,0.1139,48,0,48,0,1,,,,,,,,,,
,,808369,001,2023-07-24_14h06.17.600,arm3_eps,2022.2.5,Win32,29.98141152,613ce0908bb5dbe6bcb5944a,64aea9d0f615b6559c281482,64becb866d75df8cfff76850,right,-1,0.3,0.2429,-1,-0.022915987,0.148,49,0,49,0,1,,,,,,,,,,
space,1.373200001,808369,001,2023-07-24_14h06.17.600,arm3_eps,2022.2.5,Win32,29.98141152,613ce0908bb5dbe6bcb5944a,64aea9d0f615b6559c281482,64becb866d75df8cfff76850,,,,,,,,,,,,,,,,,,,,,,
space,0.820699999,808369,001,2023-07-24_14h06.17.600,arm3_eps,2022.2.5,Win32,29.98141152,613ce0908bb5dbe6bcb5944a,64aea9d0f615b6559c281482,64becb866d75df8cfff76850,right,-1,0.3,0.4357,0,-0.009646923,0.7956,,,,,,0,0,0,0,1,,,,,
,,808369,001,2023-07-24_14h06.17.600,arm3_eps,2022.2.5,Win32,29.98141152,613ce0908bb5dbe6bcb5944a,64aea9d0f615b6559c281482,64becb866d75df8cfff76850,right,-1,0.3,0.4357,0,-0.000562211,0.381,,,,,,1,0,1,0,1,,,,,
,,808369,001,2023-07-24_14h06.17.600,arm3_eps,2022.2.5,Win32,29.98141152,613ce0908bb5dbe6bcb5944a,64aea9d0f615b6559c281482,64becb866d75df8cfff76850,right,-1,0.3,0.4357,0,0.004705701,0.2419,,,,,,2,0,2,0,1,,,,,
,,808369,001,2023-07-24_14h06.17.600,arm3_eps,2022.2.5,Win32,29.98141152,613ce0908bb5dbe6bcb5944a,64aea9d0f615b6559c281482,64becb866d75df8cfff76850,right,-1,0.3,0.4357,0,0.027178012,0.200700001,,,,,,3,0,3,0,1,,,,,
,,808369,001,2023-07-24_14h06.17.600,arm3_eps,2022.2.5,Win32,29.98141152,613ce0908bb5dbe6bcb5944a,64aea9d0f615b6559c281482,64becb866d75df8cfff76850,right,-1,0.3,0.4357,0,0.015893894,0.288,,,,,,4,0,4,0,1,,,,,
,,808369,001,2023-07-24_14h06.17.600,arm3_eps,2022.2.5,Win32,29.98141152,613ce0908bb5dbe6bcb5944a,64aea9d0f615b6559c281482,64becb866d75df8cfff76850,right,-1,0.3,0.4357,0,-0.009684893,0.1949,,,,,,5,0,5,0,1,,,,,
,,808369,001,2023-07-24_14h06.17.600,arm3_eps,2022.2.5,Win32,29.98141152,613ce0908bb5dbe6bcb5944a,64aea9d0f615b6559c281482,64becb866d75df8cfff76850,right,-1,0.3,0.4357,0,-0.048864423,0.1215,,,,,,6,0,6,0,1,,,,,
,,808369,001,2023-07-24_14h06.17.600,arm3_eps,2022.2.5,Win32,29.98141152,613ce0908bb5dbe6bcb5944a,64aea9d0f615b6559c281482,64becb866d75df8cfff76850,right,-1,0.3,0.4357,0,-0.048062904,0.1495,,,,,,7,0,7,0,1,,,,,
,,808369,001,2023-07-24_14h06.17.600,arm3_eps,2022.2.5,Win32,29.98141152,613ce0908bb5dbe6bcb5944a,64aea9d0f615b6559c281482,64becb866d75df8cfff76850,right,-1,0.3,0.4357,0,-0.075720734,0.1625,,,,,,8,0,8,0,1,,,,,
,,808369,001,2023-07-24_14h06.17.600,arm3_eps,2022.2.5,Win32,29.98141152,613ce0908bb5dbe6bcb5944a,64aea9d0f615b6559c281482,64becb866d75df8cfff76850,right,-1,0.3,0.4357,0,-0.112178322,0.138799999,,,,,,9,0,9,0,1,,,,,
,,808369,001,2023-07-24_14h06.17.600,arm3_eps,2022.2.5,Win32,29.98141152,613ce0908bb5dbe6bcb5944a,64aea9d0f615b6559c281482,64becb866d75df8cfff76850,right,-1,0.3,0.4357,0,-0.110762042,0.1506,,,,,,10,0,10,0,1,,,,,
,,808369,001,2023-07-24_14h06.17.600,arm3_eps,2022.2.5,Win32,29.98141152,613ce0908bb5dbe6bcb5944a,64aea9d0f615b6559c281482,64becb866d75df8cfff76850,right,-1,0.3,0.4357,0,-0.131048194,0.1686,,,,,,11,0,11,0,1,,,,,
,,808369,001,2023-07-24_14h06.17.600,arm3_eps,2022.2.5,Win32,29.98141152,613ce0908bb5dbe6bcb5944a,64aea9d0f615b6559c281482,64becb866d75df8cfff76850,down,-1,0.3,0.4357,1,0,1.5935,,,,,,12,0,12,0,1,,,,,
,,808369,001,2023-07-24_14h06.17.600,arm3_eps,2022.2.5,Win32,29.98141152,613ce0908bb5dbe6bcb5944a,64aea9d0f615b6559c281482,64becb866d75df8cfff76850,right,-1,0.3,0.4357,1,-0.01740546,0.004200001,,,,,,13,0,13,0,1,,,,,
,,808369,001,2023-07-24_14h06.17.600,arm3_eps,2022.2.5,Win32,29.98141152,613ce0908bb5dbe6bcb5944a,64aea9d0f615b6559c281482,64becb866d75df8cfff76850,right,-1,0.3,0.4357,1,-0.016926346,0.7316,,,,,,14,0,14,0,1,,,,,
,,808369,001,2023-07-24_14h06.17.600,arm3_eps,2022.2.5,Win32,29.98141152,613ce0908bb5dbe6bcb5944a,64aea9d0f615b6559c281482,64becb866d75df8cfff76850,right,-1,0.3,0.4357,1,-0.023936112,1.2415,,,,,,15,0,15,0,1,,,,,
,,808369,001,2023-07-24_14h06.17.600,arm3_eps,2022.2.5,Win32,29.98141152,613ce0908bb5dbe6bcb5944a,64aea9d0f615b6559c281482,64becb866d75df8cfff76850,right,-1,0.3,0.4357,1,-0.01824225,0.1675,,,,,,16,0,16,0,1,,,,,
,,808369,001,2023-07-24_14h06.17.600,arm3_eps,2022.2.5,Win32,29.98141152,613ce0908bb5dbe6bcb5944a,64aea9d0f615b6559c281482,64becb866d75df8cfff76850,right,-1,0.3,0.4357,1,-0.022863315,0.1369,,,,,,17,0,17,0,1,,,,,
,,808369,001,2023-07-24_14h06.17.600,arm3_eps,2022.2.5,Win32,29.98141152,613ce0908bb5dbe6bcb5944a,64aea9d0f615b6559c281482,64becb866d75df8cfff76850,right,-1,0.3,0.4357,1,-0.064195103,0.171,,,,,,18,0,18,0,1,,,,,
,,808369,001,2023-07-24_14h06.17.600,arm3_eps,2022.2.5,Win32,29.98141152,613ce0908bb5dbe6bcb5944a,64aea9d0f615b6559c281482,64becb866d75df8cfff76850,right,-1,0.3,0.4357,1,-0.088298328,0.1719,,,,,,19,0,19,0,1,,,,,
,,808369,001,2023-07-24_14h06.17.600,arm3_eps,2022.2.5,Win32,29.98141152,613ce0908bb5dbe6bcb5944a,64aea9d0f615b6559c281482,64becb866d75df8cfff76850,right,-1,0.3,0.4357,1,-0.116168833,0.137700001,,,,,,20,0,20,0,1,,,,,
,,808369,001,2023-07-24_14h06.17.600,arm3_eps,2022.2.5,Win32,29.98141152,613ce0908bb5dbe6bcb5944a,64aea9d0f615b6559c281482,64becb866d75df8cfff76850,right,-1,0.3,0.4357,1,-0.112663809,0.198199999,,,,,,21,0,21,0,1,,,,,
,,808369,001,2023-07-24_14h06.17.600,arm3_eps,2022.2.5,Win32,29.98141152,613ce0908bb5dbe6bcb5944a,64aea9d0f615b6559c281482,64becb866d75df8cfff76850,right,-1,0.3,0.4357,1,-0.114599346,0.151300001,,,,,,22,0,22,0,1,,,,,
,,808369,001,2023-07-24_14h06.17.600,arm3_eps,2022.2.5,Win32,29.98141152,613ce0908bb5dbe6bcb5944a,64aea9d0f615b6559c281482,64becb866d75df8cfff76850,right,-1,0.3,0.4357,1,-0.116954096,0.1786,,,,,,23,0,23,0,1,,,,,
,,808369,001,2023-07-24_14h06.17.600,arm3_eps,2022.2.5,Win32,29.98141152,613ce0908bb5dbe6bcb5944a,64aea9d0f615b6559c281482,64becb866d75df8cfff76850,right,-1,0.3,0.4357,1,-0.116807869,0.151,,,,,,24,0,24,0,1,,,,,
,,808369,001,2023-07-24_14h06.17.600,arm3_eps,2022.2.5,Win32,29.98141152,613ce0908bb5dbe6bcb5944a,64aea9d0f615b6559c281482,64becb866d75df8cfff76850,up,-1,0.3,0.4357,1,0,5.286699999,,,,,,25,0,25,0,1,,,,,
,,808369,001,2023-07-24_14h06.17.600,arm3_eps,2022.2.5,Win32,29.98141152,613ce0908bb5dbe6bcb5944a,64aea9d0f615b6559c281482,64becb866d75df8cfff76850,up,-1,0.3,0.4357,1,0,2.192199999,,,,,,26,0,26,0,1,,,,,
,,808369,001,2023-07-24_14h06.17.600,arm3_eps,2022.2.5,Win32,29.98141152,613ce0908bb5dbe6bcb5944a,64aea9d0f615b6559c281482,64becb866d75df8cfff76850,right,-1,0.3,0.4357,1,0.028807702,2.5084,,,,,,27,0,27,0,1,,,,,
,,808369,001,2023-07-24_14h06.17.600,arm3_eps,2022.2.5,Win32,29.98141152,613ce0908bb5dbe6bcb5944a,64aea9d0f615b6559c281482,64becb866d75df8cfff76850,right,-1,0.3,0.4357,1,0.025798966,1.318,,,,,,28,0,28,0,1,,,,,
,,808369,001,2023-07-24_14h06.17.600,arm3_eps,2022.2.5,Win32,29.98141152,613ce0908bb5dbe6bcb5944a,64aea9d0f615b6559c281482,64becb866d75df8cfff76850,right,-1,0.3,0.4357,1,0.012112018,0.116700001,,,,,,29,0,29,0,1,,,,,
,,808369,001,2023-07-24_14h06.17.600,arm3_eps,2022.2.5,Win32,29.98141152,613ce0908bb5dbe6bcb5944a,64aea9d0f615b6559c281482,64becb866d75df8cfff76850,right,-1,0.3,0.4357,1,-0.014196061,0.1171,,,,,,30,0,30,0,1,,,,,
,,808369,001,2023-07-24_14h06.17.600,arm3_eps,2022.2.5,Win32,29.98141152,613ce0908bb5dbe6bcb5944a,64aea9d0f615b6559c281482,64becb866d75df8cfff76850,right,-1,0.3,0.4357,1,-0.021875553,0.1044,,,,,,31,0,31,0,1,,,,,
,,808369,001,2023-07-24_14h06.17.600,arm3_eps,2022.2.5,Win32,29.98141152,613ce0908bb5dbe6bcb5944a,64aea9d0f615b6559c281482,64becb866d75df8cfff76850,right,-1,0.3,0.4357,1,-0.046060749,0.152299999,,,,,,32,0,32,0,1,,,,,
,,808369,001,2023-07-24_14h06.17.600,arm3_eps,2022.2.5,Win32,29.98141152,613ce0908bb5dbe6bcb5944a,64aea9d0f615b6559c281482,64becb866d75df8cfff76850,right,-1,0.3,0.4357,1,-0.087129964,0.1034,,,,,,33,0,33,0,1,,,,,
,,808369,001,2023-07-24_14h06.17.600,arm3_eps,2022.2.5,Win32,29.98141152,613ce0908bb5dbe6bcb5944a,64aea9d0f615b6559c281482,64becb866d75df8cfff76850,right,-1,0.3,0.4357,1,-0.096699432,0.1385,,,,,,34,0,34,0,1,,,,,
,,808369,001,2023-07-24_14h06.17.600,arm3_eps,2022.2.5,Win32,29.98141152,613ce0908bb5dbe6bcb5944a,64aea9d0f615b6559c281482,64becb866d75df8cfff76850,right,-1,0.3,0.4357,1,-0.091695397,0.100200001,,,,,,35,0,35,0,1,,,,,
,,808369,001,2023-07-24_14h06.17.600,arm3_eps,2022.2.5,Win32,29.98141152,613ce0908bb5dbe6bcb5944a,64aea9d0f615b6559c281482,64becb866d75df8cfff76850,right,-1,0.3,0.4357,1,-0.11458703,0.135799999,,,,,,36,0,36,0,1,,,,,
,,808369,001,2023-07-24_14h06.17.600,arm3_eps,2022.2.5,Win32,29.98141152,613ce0908bb5dbe6bcb5944a,64aea9d0f615b6559c281482,64becb866d75df8cfff76850,right,-1,0.3,0.4357,1,-0.135873243,0.139400002,,,,,,37,0,37,0,1,,,,,
,,808369,001,2023-07-24_14h06.17.600,arm3_eps,2022.2.5,Win32,29.98141152,613ce0908bb5dbe6bcb5944a,64aea9d0f615b6559c281482,64becb866d75df8cfff76850,right,-1,0.3,0.4357,1,-0.146804541,0.1185,,,,,,38,0,38,0,1,,,,,
,,808369,001,2023-07-24_14h06.17.600,arm3_eps,2022.2.5,Win32,29.98141152,613ce0908bb5dbe6bcb5944a,64aea9d0f615b6559c281482,64becb866d75df8cfff76850,down,-1,0.3,0.4357,1,0,3.0836,,,,,,39,0,39,0,1,,,,,
,,808369,001,2023-07-24_14h06.17.600,arm3_eps,2022.2.5,Win32,29.98141152,613ce0908bb5dbe6bcb5944a,64aea9d0f615b6559c281482,64becb866d75df8cfff76850,right,-1,0.3,0.4357,1,-0.013110887,1.166599998,,,,,,40,0,40,0,1,,,,,
,,808369,001,2023-07-24_14h06.17.600,arm3_eps,2022.2.5,Win32,29.98141152,613ce0908bb5dbe6bcb5944a,64aea9d0f615b6559c281482,64becb866d75df8cfff76850,right,-1,0.3,0.4357,1,-0.021060988,0.2514,,,,,,41,0,41,0,1,,,,,
,,808369,001,2023-07-24_14h06.17.600,arm3_eps,2022.2.5,Win32,29.98141152,613ce0908bb5dbe6bcb5944a,64aea9d0f615b6559c281482,64becb866d75df8cfff76850,right,-1,0.3,0.4357,1,-0.050309251,0.129400002,,,,,,42,0,42,0,1,,,,,
,,808369,001,2023-07-24_14h06.17.600,arm3_eps,2022.2.5,Win32,29.98141152,613ce0908bb5dbe6bcb5944a,64aea9d0f615b6559c281482,64becb866d75df8cfff76850,right,-1,0.3,0.4357,1,-0.055274648,0.1784,,,,,,43,0,43,0,1,,,,,
,,808369,001,2023-07-24_14h06.17.600,arm3_eps,2022.2.5,Win32,29.98141152,613ce0908bb5dbe6bcb5944a,64aea9d0f615b6559c281482,64becb866d75df8cfff76850,right,-1,0.3,0.4357,1,-0.072198095,0.1339,,,,,,44,0,44,0,1,,,,,
,,808369,001,2023-07-24_14h06.17.600,arm3_eps,2022.2.5,Win32,29.98141152,613ce0908bb5dbe6bcb5944a,64aea9d0f615b6559c281482,64becb866d75df8cfff76850,right,-1,0.3,0.4357,1,-0.073150739,0.319299999,,,,,,45,0,45,0,1,,,,,
,,808369,001,2023-07-24_14h06.17.600,arm3_eps,2022.2.5,Win32,29.98141152,613ce0908bb5dbe6bcb5944a,64aea9d0f615b6559c281482,64becb866d75df8cfff76850,right,-1,0.3,0.4357,1,-0.114562702,0.147199999,,,,,,46,0,46,0,1,,,,,
,,808369,001,2023-07-24_14h06.17.600,arm3_eps,2022.2.5,Win32,29.98141152,613ce0908bb5dbe6bcb5944a,64aea9d0f615b6559c281482,64becb866d75df8cfff76850,right,-1,0.3,0.4357,1,-0.115080633,0.159,,,,,,47,0,47,0,1,,,,,
,,808369,001,2023-07-24_14h06.17.600,arm3_eps,2022.2.5,Win32,29.98141152,613ce0908bb5dbe6bcb5944a,64aea9d0f615b6559c281482,64becb866d75df8cfff76850,right,-1,0.3,0.4357,1,-0.128908877,0.176800001,,,,,,48,0,48,0,1,,,,,
,,808369,001,2023-07-24_14h06.17.600,arm3_eps,2022.2.5,Win32,29.98141152,613ce0908bb5dbe6bcb5944a,64aea9d0f615b6559c281482,64becb866d75df8cfff76850,right,-1,0.3,0.4357,1,-0.148123184,1.648,,,,,,49,0,49,0,1,,,,,
,,808369,001,2023-07-24_14h06.17.600,arm3_eps,2022.2.5,Win32,29.98141152,613ce0908bb5dbe6bcb5944a,64aea9d0f615b6559c281482,64becb866d75df8cfff76850,right,-1,0.3,0.4357,1,-0.156786798,0.1745,,,,,,50,0,50,0,1,,,,,
,,808369,001,2023-07-24_14h06.17.600,arm3_eps,2022.2.5,Win32,29.98141152,613ce0908bb5dbe6bcb5944a,64aea9d0f615b6559c281482,64becb866d75df8cfff76850,right,-1,0.3,0.4357,1,-0.170658702,0.205699999,,,,,,51,0,51,0,1,,,,,
,,808369,001,2023-07-24_14h06.17.600,arm3_eps,2022.2.5,Win32,29.98141152,613ce0908bb5dbe6bcb5944a,64aea9d0f615b6559c281482,64becb866d75df8cfff76850,down,-1,0.3,0.4357,1,0,3.877,,,,,,52,0,52,0,1,,,,,
,,808369,001,2023-07-24_14h06.17.600,arm3_eps,2022.2.5,Win32,29.98141152,613ce0908bb5dbe6bcb5944a,64aea9d0f615b6559c281482,64becb866d75df8cfff76850,right,-1,0.3,0.4357,1,0.010230518,0.9374,,,,,,53,0,53,0,1,,,,,
,,808369,001,2023-07-24_14h06.17.600,arm3_eps,2022.2.5,Win32,29.98141152,613ce0908bb5dbe6bcb5944a,64aea9d0f615b6559c281482,64becb866d75df8cfff76850,up,1,0.3,0.4357,1,0,1.547800001,,,,,,54,0,54,0,1,,,,,
,,808369,001,2023-07-24_14h06.17.600,arm3_eps,2022.2.5,Win32,29.98141152,613ce0908bb5dbe6bcb5944a,64aea9d0f615b6559c281482,64becb866d75df8cfff76850,up,1,0.3,0.4357,1,0,0.184299999,,,,,,55,0,55,0,1,,,,,
,,808369,001,2023-07-24_14h06.17.600,arm3_eps,2022.2.5,Win32,29.98141152,613ce0908bb5dbe6bcb5944a,64aea9d0f615b6559c281482,64becb866d75df8cfff76850,right,1,0.3,0.4357,1,0.008529055,0.6324,,,,,,56,0,56,0,1,,,,,
,,808369,001,2023-07-24_14h06.17.600,arm3_eps,2022.2.5,Win32,29.98141152,613ce0908bb5dbe6bcb5944a,64aea9d0f615b6559c281482,64becb866d75df8cfff76850,right,1,0.3,0.4357,1,0.023788466,0.232799999,,,,,,57,0,57,0,1,,,,,
,,808369,001,2023-07-24_14h06.17.600,arm3_eps,2022.2.5,Win32,29.98141152,613ce0908bb5dbe6bcb5944a,64aea9d0f615b6559c281482,64becb866d75df8cfff76850,right,1,0.3,0.4357,1,0.051694352,0.212200001,,,,,,58,0,58,0,1,,,,,
,,808369,001,2023-07-24_14h06.17.600,arm3_eps,2022.2.5,Win32,29.98141152,613ce0908bb5dbe6bcb5944a,64aea9d0f615b6559c281482,64becb866d75df8cfff76850,right,1,0.3,0.4357,1,0.034847705,0.1486,,,,,,59,0,59,0,1,,,,,
,,808369,001,2023-07-24_14h06.17.600,arm3_eps,2022.2.5,Win32,29.98141152,613ce0908bb5dbe6bcb5944a,64aea9d0f615b6559c281482,64becb866d75df8cfff76850,right,1,0.3,0.4357,1,0.041544162,0.120800001,,,,,,60,0,60,0,1,,,,,
,,808369,001,2023-07-24_14h06.17.600,arm3_eps,2022.2.5,Win32,29.98141152,613ce0908bb5dbe6bcb5944a,64aea9d0f615b6559c281482,64becb866d75df8cfff76850,right,1,0.3,0.4357,1,0.027055152,0.131300001,,,,,,61,0,61,0,1,,,,,
,,808369,001,2023-07-24_14h06.17.600,arm3_eps,2022.2.5,Win32,29.98141152,613ce0908bb5dbe6bcb5944a,64aea9d0f615b6559c281482,64becb866d75df8cfff76850,right,1,0.3,0.4357,1,0.037656296,0.128300001,,,,,,62,0,62,0,1,,,,,
,,808369,001,2023-07-24_14h06.17.600,arm3_eps,2022.2.5,Win32,29.98141152,613ce0908bb5dbe6bcb5944a,64aea9d0f615b6559c281482,64becb866d75df8cfff76850,right,1,0.3,0.4357,1,0.02273646,0.1111,,,,,,63,0,63,0,1,,,,,
,,808369,001,2023-07-24_14h06.17.600,arm3_eps,2022.2.5,Win32,29.98141152,613ce0908bb5dbe6bcb5944a,64aea9d0f615b6559c281482,64becb866d75df8cfff76850,right,1,0.3,0.4357,1,0.010733758,0.18,,,,,,64,0,64,0,1,,,,,
,,808369,001,2023-07-24_14h06.17.600,arm3_eps,2022.2.5,Win32,29.98141152,613ce0908bb5dbe6bcb5944a,64aea9d0f615b6559c281482,64becb866d75df8cfff76850,right,1,0.3,0.4357,1,0.012539345,0.138900002,,,,,,65,0,65,0,1,,,,,
,,808369,001,2023-07-24_14h06.17.600,arm3_eps,2022.2.5,Win32,29.98141152,613ce0908bb5dbe6bcb5944a,64aea9d0f615b6559c281482,64becb866d75df8cfff76850,right,1,0.3,0.4357,1,0.019881907,0.191,,,,,,66,0,66,0,1,,,,,
,,808369,001,2023-07-24_14h06.17.600,arm3_eps,2022.2.5,Win32,29.98141152,613ce0908bb5dbe6bcb5944a,64aea9d0f615b6559c281482,64becb866d75df8cfff76850,right,1,0.3,0.4357,1,0.05925392,0.162300001,,,,,,67,0,67,0,1,,,,,
,,808369,001,2023-07-24_14h06.17.600,arm3_eps,2022.2.5,Win32,29.98141152,613ce0908bb5dbe6bcb5944a,64aea9d0f615b6559c281482,64becb866d75df8cfff76850,down,1,0.3,0.4357,1,0,6.030200001,,,,,,68,0,68,0,1,,,,,
,,808369,001,2023-07-24_14h06.17.600,arm3_eps,2022.2.5,Win32,29.98141152,613ce0908bb5dbe6bcb5944a,64aea9d0f615b6559c281482,64becb866d75df8cfff76850,right,1,0.3,0.4357,1,0.030094835,0.9475,,,,,,69,0,69,0,1,,,,,
,,808369,001,2023-07-24_14h06.17.600,arm3_eps,2022.2.5,Win32,29.98141152,613ce0908bb5dbe6bcb5944a,64aea9d0f615b6559c281482,64becb866d75df8cfff76850,right,1,0.3,0.4357,1,0.055160141,1.7739,,,,,,70,0,70,0,1,,,,,
,,808369,001,2023-07-24_14h06.17.600,arm3_eps,2022.2.5,Win32,29.98141152,613ce0908bb5dbe6bcb5944a,64aea9d0f615b6559c281482,64becb866d75df8cfff76850,right,1,0.3,0.4357,1,0.062931367,1.930299999,,,,,,71,0,71,0,1,,,,,
,,808369,001,2023-07-24_14h06.17.600,arm3_eps,2022.2.5,Win32,29.98141152,613ce0908bb5dbe6bcb5944a,64aea9d0f615b6559c281482,64becb866d75df8cfff76850,right,1,0.3,0.4357,1,0.100374338,0.199299999,,,,,,72,0,72,0,1,,,,,
,,808369,001,2023-07-24_14h06.17.600,arm3_eps,2022.2.5,Win32,29.98141152,613ce0908bb5dbe6bcb5944a,64aea9d0f615b6559c281482,64becb866d75df8cfff76850,right,1,0.3,0.4357,1,0.117511944,0.180700001,,,,,,73,0,73,0,1,,,,,
,,808369,001,2023-07-24_14h06.17.600,arm3_eps,2022.2.5,Win32,29.98141152,613ce0908bb5dbe6bcb5944a,64aea9d0f615b6559c281482,64becb866d75df8cfff76850,right,1,0.3,0.4357,1,0.092252693,0.204799999,,,,,,74,0,74,0,1,,,,,
,,808369,001,2023-07-24_14h06.17.600,arm3_eps,2022.2.5,Win32,29.98141152,613ce0908bb5dbe6bcb5944a,64aea9d0f615b6559c281482,64becb866d75df8cfff76850,right,1,0.3,0.4357,1,0.115681821,0.2054,,,,,,75,0,75,0,1,,,,,
,,808369,001,2023-07-24_14h06.17.600,arm3_eps,2022.2.5,Win32,29.98141152,613ce0908bb5dbe6bcb5944a,64aea9d0f615b6559c281482,64becb866d75df8cfff76850,right,1,0.3,0.4357,1,0.119868,0.196800001,,,,,,76,0,76,0,1,,,,,
,,808369,001,2023-07-24_14h06.17.600,arm3_eps,2022.2.5,Win32,29.98141152,613ce0908bb5dbe6bcb5944a,64aea9d0f615b6559c281482,64becb866d75df8cfff76850,right,1,0.3,0.4357,1,0.11182733,0.2124,,,,,,77,0,77,0,1,,,,,
,,808369,001,2023-07-24_14h06.17.600,arm3_eps,2022.2.5,Win32,29.98141152,613ce0908bb5dbe6bcb5944a,64aea9d0f615b6559c281482,64becb866d75df8cfff76850,right,1,0.3,0.4357,1,0.091044352,0.2036,,,,,,78,0,78,0,1,,,,,
,,808369,001,2023-07-24_14h06.17.600,arm3_eps,2022.2.5,Win32,29.98141152,613ce0908bb5dbe6bcb5944a,64aea9d0f615b6559c281482,64becb866d75df8cfff76850,right,1,0.3,0.4357,1,0.096463552,0.197300001,,,,,,79,0,79,0,1,,,,,
,,808369,001,2023-07-24_14h06.17.600,arm3_eps,2022.2.5,Win32,29.98141152,613ce0908bb5dbe6bcb5944a,64aea9d0f615b6559c281482,64becb866d75df8cfff76850,right,1,0.3,0.4357,1,0.092748193,0.186400002,,,,,,80,0,80,0,1,,,,,
,,808369,001,2023-07-24_14h06.17.600,arm3_eps,2022.2.5,Win32,29.98141152,613ce0908bb5dbe6bcb5944a,64aea9d0f615b6559c281482,64becb866d75df8cfff76850,up,1,0.3,0.4357,1,0,22.9665,,,,,,81,0,81,0,1,,,,,
,,808369,001,2023-07-24_14h06.17.600,arm3_eps,2022.2.5,Win32,29.98141152,613ce0908bb5dbe6bcb5944a,64aea9d0f615b6559c281482,64becb866d75df8cfff76850,right,1,0.3,0.4357,1,0.030266861,2.2564,,,,,,82,0,82,0,1,,,,,
,,808369,001,2023-07-24_14h06.17.600,arm3_eps,2022.2.5,Win32,29.98141152,613ce0908bb5dbe6bcb5944a,64aea9d0f615b6559c281482,64becb866d75df8cfff76850,right,1,0.3,0.4357,1,0.044836318,1.499299999,,,,,,83,0,83,0,1,,,,,
,,808369,001,2023-07-24_14h06.17.600,arm3_eps,2022.2.5,Win32,29.98141152,613ce0908bb5dbe6bcb5944a,64aea9d0f615b6559c281482,64becb866d75df8cfff76850,right,1,0.3,0.4357,1,0.086218359,0.1624,,,,,,84,0,84,0,1,,,,,
,,808369,001,2023-07-24_14h06.17.600,arm3_eps,2022.2.5,Win32,29.98141152,613ce0908bb5dbe6bcb5944a,64aea9d0f615b6559c281482,64becb866d75df8cfff76850,right,1,0.3,0.4357,1,0.101970543,0.198099998,,,,,,85,0,85,0,1,,,,,
,,808369,001,2023-07-24_14h06.17.600,arm3_eps,2022.2.5,Win32,29.98141152,613ce0908bb5dbe6bcb5944a,64aea9d0f615b6559c281482,64becb866d75df8cfff76850,right,1,0.3,0.4357,1,0.136220993,0.180299999,,,,,,86,0,86,0,1,,,,,
,,808369,001,2023-07-24_14h06.17.600,arm3_eps,2022.2.5,Win32,29.98141152,613ce0908bb5dbe6bcb5944a,64aea9d0f615b6559c281482,64becb866d75df8cfff76850,right,1,0.3,0.4357,1,0.173047754,0.183299999,,,,,,87,0,87,0,1,,,,,
,,808369,001,2023-07-24_14h06.17.600,arm3_eps,2022.2.5,Win32,29.98141152,613ce0908bb5dbe6bcb5944a,64aea9d0f615b6559c281482,64becb866d75df8cfff76850,right,1,0.3,0.4357,1,0.177862368,0.136300001,,,,,,88,0,88,0,1,,,,,
,,808369,001,2023-07-24_14h06.17.600,arm3_eps,2022.2.5,Win32,29.98141152,613ce0908bb5dbe6bcb5944a,64aea9d0f615b6559c281482,64becb866d75df8cfff76850,right,1,0.3,0.4357,1,0.200040464,0.2199,,,,,,89,0,89,0,1,,,,,
,,808369,001,2023-07-24_14h06.17.600,arm3_eps,2022.2.5,Win32,29.98141152,613ce0908bb5dbe6bcb5944a,64aea9d0f615b6559c281482,64becb866d75df8cfff76850,right,1,0.3,0.4357,1,0.208078062,0.180699999,,,,,,90,0,90,0,1,,,,,
,,808369,001,2023-07-24_14h06.17.600,arm3_eps,2022.2.5,Win32,29.98141152,613ce0908bb5dbe6bcb5944a,64aea9d0f615b6559c281482,64becb866d75df8cfff76850,right,1,0.3,0.4357,1,0.196551094,0.235799999,,,,,,91,0,91,0,1,,,,,
,,808369,001,2023-07-24_14h06.17.600,arm3_eps,2022.2.5,Win32,29.98141152,613ce0908bb5dbe6bcb5944a,64aea9d0f615b6559c281482,64becb866d75df8cfff76850,right,1,0.3,0.4357,1,0.224881583,0.1924,,,,,,92,0,92,0,1,,,,,
,,808369,001,2023-07-24_14h06.17.600,arm3_eps,2022.2.5,Win32,29.98141152,613ce0908bb5dbe6bcb5944a,64aea9d0f615b6559c281482,64becb866d75df8cfff76850,right,1,0.3,0.4357,1,0.2229087,0.202099998,,,,,,93,0,93,0,1,,,,,
,,808369,001,2023-07-24_14h06.17.600,arm3_eps,2022.2.5,Win32,29.98141152,613ce0908bb5dbe6bcb5944a,64aea9d0f615b6559c281482,64becb866d75df8cfff76850,up,1,0.3,0.4357,1,0,2.012699999,,,,,,94,0,94,0,1,,,,,
,,808369,001,2023-07-24_14h06.17.600,arm3_eps,2022.2.5,Win32,29.98141152,613ce0908bb5dbe6bcb5944a,64aea9d0f615b6559c281482,64becb866d75df8cfff76850,up,-1,0.3,0.4357,1,0,0.146,,,,,,95,0,95,0,1,,,,,
,,808369,001,2023-07-24_14h06.17.600,arm3_eps,2022.2.5,Win32,29.98141152,613ce0908bb5dbe6bcb5944a,64aea9d0f615b6559c281482,64becb866d75df8cfff76850,right,-1,0.3,0.4357,1,0.010219133,0.568299999,,,,,,96,0,96,0,1,,,,,
,,808369,001,2023-07-24_14h06.17.600,arm3_eps,2022.2.5,Win32,29.98141152,613ce0908bb5dbe6bcb5944a,64aea9d0f615b6559c281482,64becb866d75df8cfff76850,right,-1,0.3,0.4357,1,0.007339522,0.318,,,,,,97,0,97,0,1,,,,,
,,808369,001,2023-07-24_14h06.17.600,arm3_eps,2022.2.5,Win32,29.98141152,613ce0908bb5dbe6bcb5944a,64aea9d0f615b6559c281482,64becb866d75df8cfff76850,right,-1,0.3,0.4357,1,0.014008437,1.0221,,,,,,98,0,98,0,1,,,,,
,,808369,001,2023-07-24_14h06.17.600,arm3_eps,2022.2.5,Win32,29.98141152,613ce0908bb5dbe6bcb5944a,64aea9d0f615b6559c281482,64becb866d75df8cfff76850,right,-1,0.3,0.4357,1,0.004847257,1.291300001,,,,,,99,0,99,0,1,,,,,
,,808369,001,2023-07-24_14h06.17.600,arm3_eps,2022.2.5,Win32,29.98141152,613ce0908bb5dbe6bcb5944a,64aea9d0f615b6559c281482,64becb866d75df8cfff76850,right,-1,0.3,0.4357,1,0.002178461,0.2109,,,,,,100,0,100,0,1,,,,,
,,808369,001,2023-07-24_14h06.17.600,arm3_eps,2022.2.5,Win32,29.98141152,613ce0908bb5dbe6bcb5944a,64aea9d0f615b6559c281482,64becb866d75df8cfff76850,right,-1,0.3,0.4357,1,-0.017770185,0.2019,,,,,,101,0,101,0,1,,,,,
,,808369,001,2023-07-24_14h06.17.600,arm3_eps,2022.2.5,Win32,29.98141152,613ce0908bb5dbe6bcb5944a,64aea9d0f615b6559c281482,64becb866d75df8cfff76850,right,-1,0.3,0.4357,1,-0.031839315,0.147700001,,,,,,102,0,102,0,1,,,,,
,,808369,001,2023-07-24_14h06.17.600,arm3_eps,2022.2.5,Win32,29.98141152,613ce0908bb5dbe6bcb5944a,64aea9d0f615b6559c281482,64becb866d75df8cfff76850,right,-1,0.3,0.4357,1,-0.027014934,0.152799999,,,,,,103,0,103,0,1,,,,,
,,808369,001,2023-07-24_14h06.17.600,arm3_eps,2022.2.5,Win32,29.98141152,613ce0908bb5dbe6bcb5944a,64aea9d0f615b6559c281482,64becb866d75df8cfff76850,right,-1,0.3,0.4357,1,-0.018046766,0.1751,,,,,,104,0,104,0,1,,,,,
,,808369,001,2023-07-24_14h06.17.600,arm3_eps,2022.2.5,Win32,29.98141152,613ce0908bb5dbe6bcb5944a,64aea9d0f615b6559c281482,64becb866d75df8cfff76850,right,-1,0.3,0.4357,1,-0.062863172,0.203300001,,,,,,105,0,105,0,1,,,,,
,,808369,001,2023-07-24_14h06.17.600,arm3_eps,2022.2.5,Win32,29.98141152,613ce0908bb5dbe6bcb5944a,64aea9d0f615b6559c281482,64becb866d75df8cfff76850,right,-1,0.3,0.4357,1,-0.047430711,0.1691,,,,,,106,0,106,0,1,,,,,
,,808369,001,2023-07-24_14h06.17.600,arm3_eps,2022.2.5,Win32,29.98141152,613ce0908bb5dbe6bcb5944a,64aea9d0f615b6559c281482,64becb866d75df8cfff76850,right,-1,0.3,0.4357,1,-0.021050847,0.176699999,,,,,,107,0,107,0,1,,,,,
,,808369,001,2023-07-24_14h06.17.600,arm3_eps,2022.2.5,Win32,29.98141152,613ce0908bb5dbe6bcb5944a,64aea9d0f615b6559c281482,64becb866d75df8cfff76850,up,1,0.3,0.4357,1,0,3.6624,,,,,,108,0,108,0,1,,,,,
,,808369,001,2023-07-24_14h06.17.600,arm3_eps,2022.2.5,Win32,29.98141152,613ce0908bb5dbe6bcb5944a,64aea9d0f615b6559c281482,64becb866d75df8cfff76850,right,1,0.3,0.4357,1,-0.003867088,1.0964,,,,,,109,0,109,0,1,,,,,
,,808369,001,2023-07-24_14h06.17.600,arm3_eps,2022.2.5,Win32,29.98141152,613ce0908bb5dbe6bcb5944a,64aea9d0f615b6559c281482,64becb866d75df8cfff76850,right,1,0.3,0.4357,1,0.031946271,0.231800001,,,,,,110,0,110,0,1,,,,,
,,808369,001,2023-07-24_14h06.17.600,arm3_eps,2022.2.5,Win32,29.98141152,613ce0908bb5dbe6bcb5944a,64aea9d0f615b6559c281482,64becb866d75df8cfff76850,right,1,0.3,0.4357,1,0.036698176,0.143200001,,,,,,111,0,111,0,1,,,,,
,,808369,001,2023-07-24_14h06.17.600,arm3_eps,2022.2.5,Win32,29.98141152,613ce0908bb5dbe6bcb5944a,64aea9d0f615b6559c281482,64becb866d75df8cfff76850,right,1,0.3,0.4357,1,0.057513875,0.1189,,,,,,112,0,112,0,1,,,,,
,,808369,001,2023-07-24_14h06.17.600,arm3_eps,2022.2.5,Win32,29.98141152,613ce0908bb5dbe6bcb5944a,64aea9d0f615b6559c281482,64becb866d75df8cfff76850,right,1,0.3,0.4357,1,0.043466667,0.191,,,,,,113,0,113,0,1,,,,,
,,808369,001,2023-07-24_14h06.17.600,arm3_eps,2022.2.5,Win32,29.98141152,613ce0908bb5dbe6bcb5944a,64aea9d0f615b6559c281482,64becb866d75df8cfff76850,right,1,0.3,0.4357,1,0.064988252,0.0781,,,,,,114,0,114,0,1,,,,,
,,808369,001,2023-07-24_14h06.17.600,arm3_eps,2022.2.5,Win32,29.98141152,613ce0908bb5dbe6bcb5944a,64aea9d0f615b6559c281482,64becb866d75df8cfff76850,right,1,0.3,0.4357,1,0.082543263,0.179799999,,,,,,115,0,115,0,1,,,,,
,,808369,001,2023-07-24_14h06.17.600,arm3_eps,2022.2.5,Win32,29.98141152,613ce0908bb5dbe6bcb5944a,64aea9d0f615b6559c281482,64becb866d75df8cfff76850,right,1,0.3,0.4357,1,0.117983724,0.130200001,,,,,,116,0,116,0,1,,,,,
,,808369,001,2023-07-24_14h06.17.600,arm3_eps,2022.2.5,Win32,29.98141152,613ce0908bb5dbe6bcb5944a,64aea9d0f615b6559c281482,64becb866d75df8cfff76850,right,1,0.3,0.4357,1,0.111231488,0.146099998,,,,,,117,0,117,0,1,,,,,
,,808369,001,2023-07-24_14h06.17.600,arm3_eps,2022.2.5,Win32,29.98141152,613ce0908bb5dbe6bcb5944a,64aea9d0f615b6559c281482,64becb866d75df8cfff76850,right,1,0.3,0.4357,1,0.122507696,0.1551,,,,,,118,0,118,0,1,,,,,
,,808369,001,2023-07-24_14h06.17.600,arm3_eps,2022.2.5,Win32,29.98141152,613ce0908bb5dbe6bcb5944a,64aea9d0f615b6559c281482,64becb866d75df8cfff76850,right,1,0.3,0.4357,1,0.125731661,0.1175,,,,,,119,0,119,0,1,,,,,
,,808369,001,2023-07-24_14h06.17.600,arm3_eps,2022.2.5,Win32,29.98141152,613ce0908bb5dbe6bcb5944a,64aea9d0f615b6559c281482,64becb866d75df8cfff76850,right,1,0.3,0.4357,1,0.140144506,0.170299999,,,,,,120,0,120,0,1,,,,,
,,808369,001,2023-07-24_14h06.17.600,arm3_eps,2022.2.5,Win32,29.98141152,613ce0908bb5dbe6bcb5944a,64aea9d0f615b6559c281482,64becb866d75df8cfff76850,up,-1,0.3,0.4357,1,0,5.382799999,,,,,,121,0,121,0,1,,,,,
,,808369,001,2023-07-24_14h06.17.600,arm3_eps,2022.2.5,Win32,29.98141152,613ce0908bb5dbe6bcb5944a,64aea9d0f615b6559c281482,64becb866d75df8cfff76850,up,-1,0.3,0.4357,0,0,1.8539,,,,,,122,0,122,0,1,,,,,
,,808369,001,2023-07-24_14h06.17.600,arm3_eps,2022.2.5,Win32,29.98141152,613ce0908bb5dbe6bcb5944a,64aea9d0f615b6559c281482,64becb866d75df8cfff76850,up,1,0.3,0.4357,0,0,0.1641,,,,,,123,0,123,0,1,,,,,
,,808369,001,2023-07-24_14h06.17.600,arm3_eps,2022.2.5,Win32,29.98141152,613ce0908bb5dbe6bcb5944a,64aea9d0f615b6559c281482,64becb866d75df8cfff76850,up,1,0.3,0.4357,0,0,0.728200001,,,,,,124,0,124,0,1,,,,,
,,808369,001,2023-07-24_14h06.17.600,arm3_eps,2022.2.5,Win32,29.98141152,613ce0908bb5dbe6bcb5944a,64aea9d0f615b6559c281482,64becb866d75df8cfff76850,up,1,0.3,0.4357,1,0,0.247700001,,,,,,125,0,125,0,1,,,,,
,,808369,001,2023-07-24_14h06.17.600,arm3_eps,2022.2.5,Win32,29.98141152,613ce0908bb5dbe6bcb5944a,64aea9d0f615b6559c281482,64becb866d75df8cfff76850,up,1,0.3,0.4357,2,0,0.3601,,,,,,126,0,126,0,1,,,,,
,,808369,001,2023-07-24_14h06.17.600,arm3_eps,2022.2.5,Win32,29.98141152,613ce0908bb5dbe6bcb5944a,64aea9d0f615b6559c281482,64becb866d75df8cfff76850,up,-1,0.3,0.4357,2,0,1.208200001,,,,,,127,0,127,0,1,,,,,
,,808369,001,2023-07-24_14h06.17.600,arm3_eps,2022.2.5,Win32,29.98141152,613ce0908bb5dbe6bcb5944a,64aea9d0f615b6559c281482,64becb866d75df8cfff76850,up,1,0.3,0.4357,2,0,0.1915,,,,,,128,0,128,0,1,,,,,
,,808369,001,2023-07-24_14h06.17.600,arm3_eps,2022.2.5,Win32,29.98141152,613ce0908bb5dbe6bcb5944a,64aea9d0f615b6559c281482,64becb866d75df8cfff76850,up,1,0.3,0.4357,2,0,0.163299999,,,,,,129,0,129,0,1,,,,,
,,808369,001,2023-07-24_14h06.17.600,arm3_eps,2022.2.5,Win32,29.98141152,613ce0908bb5dbe6bcb5944a,64aea9d0f615b6559c281482,64becb866d75df8cfff76850,up,1,0.3,0.4357,2,0,0.6754,,,,,,130,0,130,0,1,,,,,
,,808369,001,2023-07-24_14h06.17.600,arm3_eps,2022.2.5,Win32,29.98141152,613ce0908bb5dbe6bcb5944a,64aea9d0f615b6559c281482,64becb866d75df8cfff76850,up,-1,0.3,0.4357,2,0,0.3586,,,,,,131,0,131,0,1,,,,,
,,808369,001,2023-07-24_14h06.17.600,arm3_eps,2022.2.5,Win32,29.98141152,613ce0908bb5dbe6bcb5944a,64aea9d0f615b6559c281482,64becb866d75df8cfff76850,right,-1,0.3,0.4357,2,-0.025984283,1.0565,,,,,,132,0,132,0,1,,,,,
,,808369,001,2023-07-24_14h06.17.600,arm3_eps,2022.2.5,Win32,29.98141152,613ce0908bb5dbe6bcb5944a,64aea9d0f615b6559c281482,64becb866d75df8cfff76850,up,-1,0.3,0.4357,2,0,0.98,,,,,,133,0,133,0,1,,,,,
,,808369,001,2023-07-24_14h06.17.600,arm3_eps,2022.2.5,Win32,29.98141152,613ce0908bb5dbe6bcb5944a,64aea9d0f615b6559c281482,64becb866d75df8cfff76850,right,-1,0.3,0.4357,2,-0.021888303,0.9679,,,,,,134,0,134,0,1,,,,,
,,808369,001,2023-07-24_14h06.17.600,arm3_eps,2022.2.5,Win32,29.98141152,613ce0908bb5dbe6bcb5944a,64aea9d0f615b6559c281482,64becb866d75df8cfff76850,right,-1,0.3,0.4357,2,-0.027137453,0.321299999,,,,,,135,0,135,0,1,,,,,
,,808369,001,2023-07-24_14h06.17.600,arm3_eps,2022.2.5,Win32,29.98141152,613ce0908bb5dbe6bcb5944a,64aea9d0f615b6559c281482,64becb866d75df8cfff76850,right,-1,0.3,0.4357,2,-0.052118626,0.259900002,,,,,,136,0,136,0,1,,,,,
,,808369,001,2023-07-24_14h06.17.600,arm3_eps,2022.2.5,Win32,29.98141152,613ce0908bb5dbe6bcb5944a,64aea9d0f615b6559c281482,64becb866d75df8cfff76850,right,-1,0.3,0.4357,2,-0.087271343,0.1675,,,,,,137,0,137,0,1,,,,,
,,808369,001,2023-07-24_14h06.17.600,arm3_eps,2022.2.5,Win32,29.98141152,613ce0908bb5dbe6bcb5944a,64aea9d0f615b6559c281482,64becb866d75df8cfff76850,right,-1,0.3,0.4357,2,-0.1004376,0.147199999,,,,,,138,0,138,0,1,,,,,
,,808369,001,2023-07-24_14h06.17.600,arm3_eps,2022.2.5,Win32,29.98141152,613ce0908bb5dbe6bcb5944a,64aea9d0f615b6559c281482,64becb866d75df8cfff76850,right,-1,0.3,0.4357,2,-0.134680246,0.130200001,,,,,,139,0,139,0,1,,,,,
,,808369,001,2023-07-24_14h06.17.600,arm3_eps,2022.2.5,Win32,29.98141152,613ce0908bb5dbe6bcb5944a,64aea9d0f615b6559c281482,64becb866d75df8cfff76850,right,-1,0.3,0.4357,2,-0.152775358,0.110099998,,,,,,140,0,140,0,1,,,,,
,,808369,001,2023-07-24_14h06.17.600,arm3_eps,2022.2.5,Win32,29.98141152,613ce0908bb5dbe6bcb5944a,64aea9d0f615b6559c281482,64becb866d75df8cfff76850,right,-1,0.3,0.4357,2,-0.182156676,0.1096,,,,,,141,0,141,0,1,,,,,
,,808369,001,2023-07-24_14h06.17.600,arm3_eps,2022.2.5,Win32,29.98141152,613ce0908bb5dbe6bcb5944a,64aea9d0f615b6559c281482,64becb866d75df8cfff76850,right,-1,0.3,0.4357,2,-0.204377764,0.913300001,,,,,,142,0,142,0,1,,,,,
,,808369,001,2023-07-24_14h06.17.600,arm3_eps,2022.2.5,Win32,29.98141152,613ce0908bb5dbe6bcb5944a,64aea9d0f615b6559c281482,64becb866d75df8cfff76850,right,-1,0.3,0.4357,2,-0.17983008,0.188200001,,,,,,143,0,143,0,1,,,,,
,,808369,001,2023-07-24_14h06.17.600,arm3_eps,2022.2.5,Win32,29.98141152,613ce0908bb5dbe6bcb5944a,64aea9d0f615b6559c281482,64becb866d75df8cfff76850,right,-1,0.3,0.4357,2,-0.169743277,0.181099998,,,,,,144,0,144,0,1,,,,,
,,808369,001,2023-07-24_14h06.17.600,arm3_eps,2022.2.5,Win32,29.98141152,613ce0908bb5dbe6bcb5944a,64aea9d0f615b6559c281482,64becb866d75df8cfff76850,right,-1,0.3,0.4357,2,-0.161230574,0.126699999,,,,,,145,0,145,0,1,,,,,
,,808369,001,2023-07-24_14h06.17.600,arm3_eps,2022.2.5,Win32,29.98141152,613ce0908bb5dbe6bcb5944a,64aea9d0f615b6559c281482,64becb866d75df8cfff76850,up,-1,0.3,0.4357,1,0,3.1696,,,,,,146,0,146,0,1,,,,,
,,808369,001,2023-07-24_14h06.17.600,arm3_eps,2022.2.5,Win32,29.98141152,613ce0908bb5dbe6bcb5944a,64aea9d0f615b6559c281482,64becb866d75df8cfff76850,up,-1,0.3,0.4357,1,0,1.163799999,,,,,,147,0,147,0,1,,,,,
,,808369,001,2023-07-24_14h06.17.600,arm3_eps,2022.2.5,Win32,29.98141152,613ce0908bb5dbe6bcb5944a,64aea9d0f615b6559c281482,64becb866d75df8cfff76850,down,-1,0.3,0.4357,2,0,0.994700001,,,,,,148,0,148,0,1,,,,,
,,808369,001,2023-07-24_14h06.17.600,arm3_eps,2022.2.5,Win32,29.98141152,613ce0908bb5dbe6bcb5944a,64aea9d0f615b6559c281482,64becb866d75df8cfff76850,right,-1,0.3,0.4357,2,0.000778741,1.735699999,,,,,,149,0,149,0,1,,,,,
,,808369,001,2023-07-24_14h06.17.600,arm3_eps,2022.2.5,Win32,29.98141152,613ce0908bb5dbe6bcb5944a,64aea9d0f615b6559c281482,64becb866d75df8cfff76850,down,1,0.3,0.4357,2,0,1.3476,,,,,,150,0,150,0,1,,,,,
,,808369,001,2023-07-24_14h06.17.600,arm3_eps,2022.2.5,Win32,29.98141152,613ce0908bb5dbe6bcb5944a,64aea9d0f615b6559c281482,64becb866d75df8cfff76850,up,-1,0.3,0.4357,3,0,0.953700001,,,,,,151,0,151,0,1,,,,,
,,808369,001,2023-07-24_14h06.17.600,arm3_eps,2022.2.5,Win32,29.98141152,613ce0908bb5dbe6bcb5944a,64aea9d0f615b6559c281482,64becb866d75df8cfff76850,up,-1,0.3,0.4357,2,0,1.040400002,,,,,,152,0,152,0,1,,,,,
,,808369,001,2023-07-24_14h06.17.600,arm3_eps,2022.2.5,Win32,29.98141152,613ce0908bb5dbe6bcb5944a,64aea9d0f615b6559c281482,64becb866d75df8cfff76850,down,1,0.3,0.4357,3,0,1.2619,,,,,,153,0,153,0,1,,,,,
,,808369,001,2023-07-24_14h06.17.600,arm3_eps,2022.2.5,Win32,29.98141152,613ce0908bb5dbe6bcb5944a,64aea9d0f615b6559c281482,64becb866d75df8cfff76850,down,-1,0.3,0.4357,2,0,1.475,,,,,,154,0,154,0,1,,,,,
,,808369,001,2023-07-24_14h06.17.600,arm3_eps,2022.2.5,Win32,29.98141152,613ce0908bb5dbe6bcb5944a,64aea9d0f615b6559c281482,64becb866d75df8cfff76850,up,-1,0.3,0.4357,2,0,0.8861,,,,,,155,0,155,0,1,,,,,
,,808369,001,2023-07-24_14h06.17.600,arm3_eps,2022.2.5,Win32,29.98141152,613ce0908bb5dbe6bcb5944a,64aea9d0f615b6559c281482,64becb866d75df8cfff76850,up,-1,0.3,0.4357,2,0,0.9475,,,,,,156,0,156,0,1,,,,,
,,808369,001,2023-07-24_14h06.17.600,arm3_eps,2022.2.5,Win32,29.98141152,613ce0908bb5dbe6bcb5944a,64aea9d0f615b6559c281482,64becb866d75df8cfff76850,right,-1,0.3,0.4357,2,-0.017233314,0.8939,,,,,,157,0,157,0,1,,,,,
,,808369,001,2023-07-24_14h06.17.600,arm3_eps,2022.2.5,Win32,29.98141152,613ce0908bb5dbe6bcb5944a,64aea9d0f615b6559c281482,64becb866d75df8cfff76850,right,-1,0.3,0.4357,2,-0.007216118,0.592200001,,,,,,158,0,158,0,1,,,,,
,,808369,001,2023-07-24_14h06.17.600,arm3_eps,2022.2.5,Win32,29.98141152,613ce0908bb5dbe6bcb5944a,64aea9d0f615b6559c281482,64becb866d75df8cfff76850,right,-1,0.3,0.4357,2,-0.028583113,0.3344,,,,,,159,0,159,0,1,,,,,
,,808369,001,2023-07-24_14h06.17.600,arm3_eps,2022.2.5,Win32,29.98141152,613ce0908bb5dbe6bcb5944a,64aea9d0f615b6559c281482,64becb866d75df8cfff76850,up,1,0.3,0.4357,2,0,0.6446,,,,,,160,0,160,0,1,,,,,
,,808369,001,2023-07-24_14h06.17.600,arm3_eps,2022.2.5,Win32,29.98141152,613ce0908bb5dbe6bcb5944a,64aea9d0f615b6559c281482,64becb866d75df8cfff76850,up,1,0.3,0.4357,3,0,1.470699999,,,,,,161,0,161,0,1,,,,,
,,808369,001,2023-07-24_14h06.17.600,arm3_eps,2022.2.5,Win32,29.98141152,613ce0908bb5dbe6bcb5944a,64aea9d0f615b6559c281482,64becb866d75df8cfff76850,up,1,0.3,0.4357,3,0,1.3581,,,,,,162,0,162,0,1,,,,,
,,808369,001,2023-07-24_14h06.17.600,arm3_eps,2022.2.5,Win32,29.98141152,613ce0908bb5dbe6bcb5944a,64aea9d0f615b6559c281482,64becb866d75df8cfff76850,down,1,0.3,0.4357,2,0,0.990099998,,,,,,163,0,163,0,1,,,,,
,,808369,001,2023-07-24_14h06.17.600,arm3_eps,2022.2.5,Win32,29.98141152,613ce0908bb5dbe6bcb5944a,64aea9d0f615b6559c281482,64becb866d75df8cfff76850,up,1,0.3,0.4357,2,0,0.949299999,,,,,,164,0,164,0,1,,,,,
,,808369,001,2023-07-24_14h06.17.600,arm3_eps,2022.2.5,Win32,29.98141152,613ce0908bb5dbe6bcb5944a,64aea9d0f615b6559c281482,64becb866d75df8cfff76850,down,1,0.3,0.4357,2,0,0.601099998,,,,,,165,0,165,0,1,,,,,
,,808369,001,2023-07-24_14h06.17.600,arm3_eps,2022.2.5,Win32,29.98141152,613ce0908bb5dbe6bcb5944a,64aea9d0f615b6559c281482,64becb866d75df8cfff76850,down,-1,0.3,0.4357,2,0,0.5001,,,,,,166,0,166,0,1,,,,,
,,808369,001,2023-07-24_14h06.17.600,arm3_eps,2022.2.5,Win32,29.98141152,613ce0908bb5dbe6bcb5944a,64aea9d0f615b6559c281482,64becb866d75df8cfff76850,up,1,0.3,0.4357,2,0,0.3326,,,,,,167,0,167,0,1,,,,,
,,808369,001,2023-07-24_14h06.17.600,arm3_eps,2022.2.5,Win32,29.98141152,613ce0908bb5dbe6bcb5944a,64aea9d0f615b6559c281482,64becb866d75df8cfff76850,right,1,0.3,0.4357,2,0.024647111,0.5654,,,,,,168,0,168,0,1,,,,,
,,808369,001,2023-07-24_14h06.17.600,arm3_eps,2022.2.5,Win32,29.98141152,613ce0908bb5dbe6bcb5944a,64aea9d0f615b6559c281482,64becb866d75df8cfff76850,right,1,0.3,0.4357,2,0.039220354,0.3525,,,,,,169,0,169,0,1,,,,,
,,808369,001,2023-07-24_14h06.17.600,arm3_eps,2022.2.5,Win32,29.98141152,613ce0908bb5dbe6bcb5944a,64aea9d0f615b6559c281482,64becb866d75df8cfff76850,right,1,0.3,0.4357,2,0.045818741,0.209799999,,,,,,170,0,170,0,1,,,,,
,,808369,001,2023-07-24_14h06.17.600,arm3_eps,2022.2.5,Win32,29.98141152,613ce0908bb5dbe6bcb5944a,64aea9d0f615b6559c281482,64becb866d75df8cfff76850,down,1,0.3,0.4357,1,0,1.527699999,,,,,,171,0,171,0,1,,,,,
,,808369,001,2023-07-24_14h06.17.600,arm3_eps,2022.2.5,Win32,29.98141152,613ce0908bb5dbe6bcb5944a,64aea9d0f615b6559c281482,64becb866d75df8cfff76850,down,-1,0.3,0.4357,1,0,0.1275,,,,,,172,0,172,0,1,,,,,
,,808369,001,2023-07-24_14h06.17.600,arm3_eps,2022.2.5,Win32,29.98141152,613ce0908bb5dbe6bcb5944a,64aea9d0f615b6559c281482,64becb866d75df8cfff76850,down,1,0.3,0.4357,1,0,0.1176,,,,,,173,0,173,0,1,,,,,
,,808369,001,2023-07-24_14h06.17.600,arm3_eps,2022.2.5,Win32,29.98141152,613ce0908bb5dbe6bcb5944a,64aea9d0f615b6559c281482,64becb866d75df8cfff76850,right,1,0.3,0.4357,1,-0.012276638,6.292699999,,,,,,174,0,174,0,1,,,,,
,,808369,001,2023-07-24_14h06.17.600,arm3_eps,2022.2.5,Win32,29.98141152,613ce0908bb5dbe6bcb5944a,64aea9d0f615b6559c281482,64becb866d75df8cfff76850,right,1,0.3,0.4357,1,0.001864618,0.239200001,,,,,,175,0,175,0,1,,,,,
,,808369,001,2023-07-24_14h06.17.600,arm3_eps,2022.2.5,Win32,29.98141152,613ce0908bb5dbe6bcb5944a,64aea9d0f615b6559c281482,64becb866d75df8cfff76850,right,1,0.3,0.4357,1,-0.01021028,0.1724,,,,,,176,0,176,0,1,,,,,
,,808369,001,2023-07-24_14h06.17.600,arm3_eps,2022.2.5,Win32,29.98141152,613ce0908bb5dbe6bcb5944a,64aea9d0f615b6559c281482,64becb866d75df8cfff76850,right,1,0.3,0.4357,1,0.011842959,0.202099998,,,,,,177,0,177,0,1,,,,,
,,808369,001,2023-07-24_14h06.17.600,arm3_eps,2022.2.5,Win32,29.98141152,613ce0908bb5dbe6bcb5944a,64aea9d0f615b6559c281482,64becb866d75df8cfff76850,right,1,0.3,0.4357,1,-0.004398944,0.1525,,,,,,178,0,178,0,1,,,,,
,,808369,001,2023-07-24_14h06.17.600,arm3_eps,2022.2.5,Win32,29.98141152,613ce0908bb5dbe6bcb5944a,64aea9d0f615b6559c281482,64becb866d75df8cfff76850,right,1,0.3,0.4357,1,-0.004897106,0.183299999,,,,,,179,0,179,0,1,,,,,
,,808369,001,2023-07-24_14h06.17.600,arm3_eps,2022.2.5,Win32,29.98141152,613ce0908bb5dbe6bcb5944a,64aea9d0f615b6559c281482,64becb866d75df8cfff76850,right,1,0.3,0.4357,1,-0.019487562,1.687,,,,,,180,0,180,0,1,,,,,
,,808369,001,2023-07-24_14h06.17.600,arm3_eps,2022.2.5,Win32,29.98141152,613ce0908bb5dbe6bcb5944a,64aea9d0f615b6559c281482,64becb866d75df8cfff76850,right,1,0.3,0.4357,1,-0.004619786,0.301599998,,,,,,181,0,181,0,1,,,,,
,,808369,001,2023-07-24_14h06.17.600,arm3_eps,2022.2.5,Win32,29.98141152,613ce0908bb5dbe6bcb5944a,64aea9d0f615b6559c281482,64becb866d75df8cfff76850,right,1,0.3,0.4357,1,-0.001060999,0.213699999,,,,,,182,0,182,0,1,,,,,
,,808369,001,2023-07-24_14h06.17.600,arm3_eps,2022.2.5,Win32,29.98141152,613ce0908bb5dbe6bcb5944a,64aea9d0f615b6559c281482,64becb866d75df8cfff76850,right,1,0.3,0.4357,1,0.003381872,0.207299999,,,,,,183,0,183,0,1,,,,,
,,808369,001,2023-07-24_14h06.17.600,arm3_eps,2022.2.5,Win32,29.98141152,613ce0908bb5dbe6bcb5944a,64aea9d0f615b6559c281482,64becb866d75df8cfff76850,right,1,0.3,0.4357,1,0.013153301,0.173199999,,,,,,184,0,184,0,1,,,,,
,,808369,001,2023-07-24_14h06.17.600,arm3_eps,2022.2.5,Win32,29.98141152,613ce0908bb5dbe6bcb5944a,64aea9d0f615b6559c281482,64becb866d75df8cfff76850,right,1,0.3,0.4357,1,0.042787387,0.1859,,,,,,185,0,185,0,1,,,,,
,,808369,001,2023-07-24_14h06.17.600,arm3_eps,2022.2.5,Win32,29.98141152,613ce0908bb5dbe6bcb5944a,64aea9d0f615b6559c281482,64becb866d75df8cfff76850,up,1,0.3,0.4357,1,0,1.9829,,,,,,186,0,186,0,1,,,,,
,,808369,001,2023-07-24_14h06.17.600,arm3_eps,2022.2.5,Win32,29.98141152,613ce0908bb5dbe6bcb5944a,64aea9d0f615b6559c281482,64becb866d75df8cfff76850,right,1,0.3,0.4357,1,-0.00876066,1.7401,,,,,,187,0,187,0,1,,,,,
,,808369,001,2023-07-24_14h06.17.600,arm3_eps,2022.2.5,Win32,29.98141152,613ce0908bb5dbe6bcb5944a,64aea9d0f615b6559c281482,64becb866d75df8cfff76850,right,1,0.3,0.4357,1,0.019165258,1.4389,,,,,,188,0,188,0,1,,,,,
,,808369,001,2023-07-24_14h06.17.600,arm3_eps,2022.2.5,Win32,29.98141152,613ce0908bb5dbe6bcb5944a,64aea9d0f615b6559c281482,64becb866d75df8cfff76850,right,1,0.3,0.4357,1,0.067063877,1.2595,,,,,,189,0,189,0,1,,,,,
,,808369,001,2023-07-24_14h06.17.600,arm3_eps,2022.2.5,Win32,29.98141152,613ce0908bb5dbe6bcb5944a,64aea9d0f615b6559c281482,64becb866d75df8cfff76850,right,1,0.3,0.4357,1,0.087108582,0.316800001,,,,,,190,0,190,0,1,,,,,
,,808369,001,2023-07-24_14h06.17.600,arm3_eps,2022.2.5,Win32,29.98141152,613ce0908bb5dbe6bcb5944a,64aea9d0f615b6559c281482,64becb866d75df8cfff76850,right,1,0.3,0.4357,1,0.103518276,0.217599998,,,,,,191,0,191,0,1,,,,,
,,808369,001,2023-07-24_14h06.17.600,arm3_eps,2022.2.5,Win32,29.98141152,613ce0908bb5dbe6bcb5944a,64aea9d0f615b6559c281482,64becb866d75df8cfff76850,right,1,0.3,0.4357,1,0.071467558,0.285800001,,,,,,192,0,192,0,1,,,,,
,,808369,001,2023-07-24_14h06.17.600,arm3_eps,2022.2.5,Win32,29.98141152,613ce0908bb5dbe6bcb5944a,64aea9d0f615b6559c281482,64becb866d75df8cfff76850,right,1,0.3,0.4357,1,0.073721305,0.2409,,,,,,193,0,193,0,1,,,,,
,,808369,001,2023-07-24_14h06.17.600,arm3_eps,2022.2.5,Win32,29.98141152,613ce0908bb5dbe6bcb5944a,64aea9d0f615b6559c281482,64becb866d75df8cfff76850,right,1,0.3,0.4357,1,0.063160799,0.2385,,,,,,194,0,194,0,1,,,,,
,,808369,001,2023-07-24_14h06.17.600,arm3_eps,2022.2.5,Win32,29.98141152,613ce0908bb5dbe6bcb5944a,64aea9d0f615b6559c281482,64becb866d75df8cfff76850,right,1,0.3,0.4357,1,0.05816908,0.253,,,,,,195,0,195,0,1,,,,,
,,808369,001,2023-07-24_14h06.17.600,arm3_eps,2022.2.5,Win32,29.98141152,613ce0908bb5dbe6bcb5944a,64aea9d0f615b6559c281482,64becb866d75df8cfff76850,right,1,0.3,0.4357,1,0.094641744,0.2671,,,,,,196,0,196,0,1,,,,,
,,808369,001,2023-07-24_14h06.17.600,arm3_eps,2022.2.5,Win32,29.98141152,613ce0908bb5dbe6bcb5944a,64aea9d0f615b6559c281482,64becb866d75df8cfff76850,right,1,0.3,0.4357,1,0.118343504,0.2604,,,,,,197,0,197,0,1,,,,,
,,808369,001,2023-07-24_14h06.17.600,arm3_eps,2022.2.5,Win32,29.98141152,613ce0908bb5dbe6bcb5944a,64aea9d0f615b6559c281482,64becb866d75df8cfff76850,right,1,0.3,0.4357,1,0.141592639,0.233,,,,,,198,0,198,0,1,,,,,
,,808369,001,2023-07-24_14h06.17.600,arm3_eps,2022.2.5,Win32,29.98141152,613ce0908bb5dbe6bcb5944a,64aea9d0f615b6559c281482,64becb866d75df8cfff76850,up,-1,0.3,0.4357,2,0,1.4531,,,,,,199,0,199,0,1,,,,,
,,808369,001,2023-07-24_14h06.17.600,arm3_eps,2022.2.5,Win32,29.98141152,613ce0908bb5dbe6bcb5944a,64aea9d0f615b6559c281482,64becb866d75df8cfff76850,right,-1,0.3,0.4357,2,-0.005246796,1.4021,,,,,,200,0,200,0,1,,,,,
,,808369,001,2023-07-24_14h06.17.600,arm3_eps,2022.2.5,Win32,29.98141152,613ce0908bb5dbe6bcb5944a,64aea9d0f615b6559c281482,64becb866d75df8cfff76850,right,-1,0.3,0.4357,2,-0.023787252,0.356800001,,,,,,201,0,201,0,1,,,,,
,,808369,001,2023-07-24_14h06.17.600,arm3_eps,2022.2.5,Win32,29.98141152,613ce0908bb5dbe6bcb5944a,64aea9d0f615b6559c281482,64becb866d75df8cfff76850,right,-1,0.3,0.4357,2,-0.036990001,0.272800001,,,,,,202,0,202,0,1,,,,,
,,808369,001,2023-07-24_14h06.17.600,arm3_eps,2022.2.5,Win32,29.98141152,613ce0908bb5dbe6bcb5944a,64aea9d0f615b6559c281482,64becb866d75df8cfff76850,right,-1,0.3,0.4357,2,-0.060716573,0.238699999,,,,,,203,0,203,0,1,,,,,
,,808369,001,2023-07-24_14h06.17.600,arm3_eps,2022.2.5,Win32,29.98141152,613ce0908bb5dbe6bcb5944a,64aea9d0f615b6559c281482,64becb866d75df8cfff76850,right,-1,0.3,0.4357,2,-0.049569723,0.188,,,,,,204,0,204,0,1,,,,,
,,808369,001,2023-07-24_14h06.17.600,arm3_eps,2022.2.5,Win32,29.98141152,613ce0908bb5dbe6bcb5944a,64aea9d0f615b6559c281482,64becb866d75df8cfff76850,right,-1,0.3,0.4357,2,-0.047334905,0.189599998,,,,,,205,0,205,0,1,,,,,
,,808369,001,2023-07-24_14h06.17.600,arm3_eps,2022.2.5,Win32,29.98141152,613ce0908bb5dbe6bcb5944a,64aea9d0f615b6559c281482,64becb866d75df8cfff76850,right,-1,0.3,0.4357,2,-0.084572928,0.168200001,,,,,,206,0,206,0,1,,,,,
,,808369,001,2023-07-24_14h06.17.600,arm3_eps,2022.2.5,Win32,29.98141152,613ce0908bb5dbe6bcb5944a,64aea9d0f615b6559c281482,64becb866d75df8cfff76850,right,-1,0.3,0.4357,2,-0.085678698,0.1699,,,,,,207,0,207,0,1,,,,,
,,808369,001,2023-07-24_14h06.17.600,arm3_eps,2022.2.5,Win32,29.98141152,613ce0908bb5dbe6bcb5944a,64aea9d0f615b6559c281482,64becb866d75df8cfff76850,right,-1,0.3,0.4357,2,-0.106785358,0.1501,,,,,,208,0,208,0,1,,,,,
,,808369,001,2023-07-24_14h06.17.600,arm3_eps,2022.2.5,Win32,29.98141152,613ce0908bb5dbe6bcb5944a,64aea9d0f615b6559c281482,64becb866d75df8cfff76850,right,-1,0.3,0.4357,2,-0.11011525,0.166,,,,,,209,0,209,0,1,,,,,
,,808369,001,2023-07-24_14h06.17.600,arm3_eps,2022.2.5,Win32,29.98141152,613ce0908bb5dbe6bcb5944a,64aea9d0f615b6559c281482,64becb866d75df8cfff76850,right,-1,0.3,0.4357,2,-0.096661253,0.164199999,,,,,,210,0,210,0,1,,,,,
,,808369,001,2023-07-24_14h06.17.600,arm3_eps,2022.2.5,Win32,29.98141152,613ce0908bb5dbe6bcb5944a,64aea9d0f615b6559c281482,64becb866d75df8cfff76850,right,-1,0.3,0.4357,2,-0.111751757,0.1454,,,,,,211,0,211,0,1,,,,,
,,808369,001,2023-07-24_14h06.17.600,arm3_eps,2022.2.5,Win32,29.98141152,613ce0908bb5dbe6bcb5944a,64aea9d0f615b6559c281482,64becb866d75df8cfff76850,down,1,0.3,0.4357,2,0,0.647299999,,,,,,212,0,212,0,1,,,,,
,,808369,001,2023-07-24_14h06.17.600,arm3_eps,2022.2.5,Win32,29.98141152,613ce0908bb5dbe6bcb5944a,64aea9d0f615b6559c281482,64becb866d75df8cfff76850,right,1,0.3,0.4357,2,0.037503006,0.972200001,,,,,,213,0,213,0,1,,,,,
,,808369,001,2023-07-24_14h06.17.600,arm3_eps,2022.2.5,Win32,29.98141152,613ce0908bb5dbe6bcb5944a,64aea9d0f615b6559c281482,64becb866d75df8cfff76850,right,1,0.3,0.4357,2,0.03212304,0.2359,,,,,,214,0,214,0,1,,,,,
,,808369,001,2023-07-24_14h06.17.600,arm3_eps,2022.2.5,Win32,29.98141152,613ce0908bb5dbe6bcb5944a,64aea9d0f615b6559c281482,64becb866d75df8cfff76850,right,1,0.3,0.4357,2,0.055750389,0.192299999,,,,,,215,0,215,0,1,,,,,
,,808369,001,2023-07-24_14h06.17.600,arm3_eps,2022.2.5,Win32,29.98141152,613ce0908bb5dbe6bcb5944a,64aea9d0f615b6559c281482,64becb866d75df8cfff76850,right,1,0.3,0.4357,2,0.022790942,0.1479,,,,,,216,0,216,0,1,,,,,
,,808369,001,2023-07-24_14h06.17.600,arm3_eps,2022.2.5,Win32,29.98141152,613ce0908bb5dbe6bcb5944a,64aea9d0f615b6559c281482,64becb866d75df8cfff76850,right,1,0.3,0.4357,2,0.016204612,0.194800001,,,,,,217,0,217,0,1,,,,,
,,808369,001,2023-07-24_14h06.17.600,arm3_eps,2022.2.5,Win32,29.98141152,613ce0908bb5dbe6bcb5944a,64aea9d0f615b6559c281482,64becb866d75df8cfff76850,right,1,0.3,0.4357,2,0.028509918,0.1759,,,,,,218,0,218,0,1,,,,,
,,808369,001,2023-07-24_14h06.17.600,arm3_eps,2022.2.5,Win32,29.98141152,613ce0908bb5dbe6bcb5944a,64aea9d0f615b6559c281482,64becb866d75df8cfff76850,right,1,0.3,0.4357,2,0.042189913,0.162,,,,,,219,0,219,0,1,,,,,
,,808369,001,2023-07-24_14h06.17.600,arm3_eps,2022.2.5,Win32,29.98141152,613ce0908bb5dbe6bcb5944a,64aea9d0f615b6559c281482,64becb866d75df8cfff76850,right,1,0.3,0.4357,2,0.080529379,0.1691,,,,,,220,0,220,0,1,,,,,
,,808369,001,2023-07-24_14h06.17.600,arm3_eps,2022.2.5,Win32,29.98141152,613ce0908bb5dbe6bcb5944a,64aea9d0f615b6559c281482,64becb866d75df8cfff76850,right,1,0.3,0.4357,2,0.069360349,0.1676,,,,,,221,0,221,0,1,,,,,
,,808369,001,2023-07-24_14h06.17.600,arm3_eps,2022.2.5,Win32,29.98141152,613ce0908bb5dbe6bcb5944a,64aea9d0f615b6559c281482,64becb866d75df8cfff76850,right,1,0.3,0.4357,2,0.10464669,0.158799999,,,,,,222,0,222,0,1,,,,,
,,808369,001,2023-07-24_14h06.17.600,arm3_eps,2022.2.5,Win32,29.98141152,613ce0908bb5dbe6bcb5944a,64aea9d0f615b6559c281482,64becb866d75df8cfff76850,right,1,0.3,0.4357,2,0.099493978,0.1971,,,,,,223,0,223,0,1,,,,,
,,808369,001,2023-07-24_14h06.17.600,arm3_eps,2022.2.5,Win32,29.98141152,613ce0908bb5dbe6bcb5944a,64aea9d0f615b6559c281482,64becb866d75df8cfff76850,right,1,0.3,0.4357,2,0.121786075,0.1345,,,,,,224,0,224,0,1,,,,,
,,808369,001,2023-07-24_14h06.17.600,arm3_eps,2022.2.5,Win32,29.98141152,613ce0908bb5dbe6bcb5944a,64aea9d0f615b6559c281482,64becb866d75df8cfff76850,up,1,0.3,0.4357,2,0,0.559799999,,,,,,225,0,225,0,1,,,,,
,,808369,001,2023-07-24_14h06.17.600,arm3_eps,2022.2.5,Win32,29.98141152,613ce0908bb5dbe6bcb5944a,64aea9d0f615b6559c281482,64becb866d75df8cfff76850,right,1,0.3,0.4357,2,-0.0094023,0.83,,,,,,226,0,226,0,1,,,,,
,,808369,001,2023-07-24_14h06.17.600,arm3_eps,2022.2.5,Win32,29.98141152,613ce0908bb5dbe6bcb5944a,64aea9d0f615b6559c281482,64becb866d75df8cfff76850,right,1,0.3,0.4357,2,0.007104396,0.161800001,,,,,,227,0,227,0,1,,,,,
,,808369,001,2023-07-24_14h06.17.600,arm3_eps,2022.2.5,Win32,29.98141152,613ce0908bb5dbe6bcb5944a,64aea9d0f615b6559c281482,64becb866d75df8cfff76850,right,1,0.3,0.4357,2,0.028947185,0.182799999,,,,,,228,0,228,0,1,,,,,
,,808369,001,2023-07-24_14h06.17.600,arm3_eps,2022.2.5,Win32,29.98141152,613ce0908bb5dbe6bcb5944a,64aea9d0f615b6559c281482,64becb866d75df8cfff76850,right,1,0.3,0.4357,2,0.062929444,0.1889,,,,,,229,0,229,0,1,,,,,
,,808369,001,2023-07-24_14h06.17.600,arm3_eps,2022.2.5,Win32,29.98141152,613ce0908bb5dbe6bcb5944a,64aea9d0f615b6559c281482,64becb866d75df8cfff76850,right,1,0.3,0.4357,2,0.095103749,0.171699999,,,,,,230,0,230,0,1,,,,,
,,808369,001,2023-07-24_14h06.17.600,arm3_eps,2022.2.5,Win32,29.98141152,613ce0908bb5dbe6bcb5944a,64aea9d0f615b6559c281482,64becb866d75df8cfff76850,right,1,0.3,0.4357,2,0.082176914,0.143700001,,,,,,231,0,231,0,1,,,,,
,,808369,001,2023-07-24_14h06.17.600,arm3_eps,2022.2.5,Win32,29.98141152,613ce0908bb5dbe6bcb5944a,64aea9d0f615b6559c281482,64becb866d75df8cfff76850,right,1,0.3,0.4357,2,0.08492439,0.1476,,,,,,232,0,232,0,1,,,,,
,,808369,001,2023-07-24_14h06.17.600,arm3_eps,2022.2.5,Win32,29.98141152,613ce0908bb5dbe6bcb5944a,64aea9d0f615b6559c281482,64becb866d75df8cfff76850,right,1,0.3,0.4357,2,0.10400903,0.146699999,,,,,,233,0,233,0,1,,,,,
,,808369,001,2023-07-24_14h06.17.600,arm3_eps,2022.2.5,Win32,29.98141152,613ce0908bb5dbe6bcb5944a,64aea9d0f615b6559c281482,64becb866d75df8cfff76850,right,1,0.3,0.4357,2,0.092230977,0.1305,,,,,,234,0,234,0,1,,,,,
,,808369,001,2023-07-24_14h06.17.600,arm3_eps,2022.2.5,Win32,29.98141152,613ce0908bb5dbe6bcb5944a,64aea9d0f615b6559c281482,64becb866d75df8cfff76850,right,1,0.3,0.4357,2,0.114656904,0.1954,,,,,,235,0,235,0,1,,,,,
,,808369,001,2023-07-24_14h06.17.600,arm3_eps,2022.2.5,Win32,29.98141152,613ce0908bb5dbe6bcb5944a,64aea9d0f615b6559c281482,64becb866d75df8cfff76850,right,1,0.3,0.4357,2,0.121612813,0.143900002,,,,,,236,0,236,0,1,,,,,
,,808369,001,2023-07-24_14h06.17.600,arm3_eps,2022.2.5,Win32,29.98141152,613ce0908bb5dbe6bcb5944a,64aea9d0f615b6559c281482,64becb866d75df8cfff76850,right,1,0.3,0.4357,2,0.133902958,0.161900002,,,,,,237,0,237,0,1,,,,,
,,808369,001,2023-07-24_14h06.17.600,arm3_eps,2022.2.5,Win32,29.98141152,613ce0908bb5dbe6bcb5944a,64aea9d0f615b6559c281482,64becb866d75df8cfff76850,up,-1,0.3,0.4357,3,0,0.562099998,,,,,,238,0,238,0,1,,,,,
,,808369,001,2023-07-24_14h06.17.600,arm3_eps,2022.2.5,Win32,29.98141152,613ce0908bb5dbe6bcb5944a,64aea9d0f615b6559c281482,64becb866d75df8cfff76850,right,-1,0.3,0.4357,3,-0.035226273,1.0785,,,,,,239,0,239,0,1,,,,,
,,808369,001,2023-07-24_14h06.17.600,arm3_eps,2022.2.5,Win32,29.98141152,613ce0908bb5dbe6bcb5944a,64aea9d0f615b6559c281482,64becb866d75df8cfff76850,right,-1,0.3,0.4357,3,-0.039043742,0.315799999,,,,,,240,0,240,0,1,,,,,
,,808369,001,2023-07-24_14h06.17.600,arm3_eps,2022.2.5,Win32,29.98141152,613ce0908bb5dbe6bcb5944a,64aea9d0f615b6559c281482,64becb866d75df8cfff76850,right,-1,0.3,0.4357,3,-0.060784289,0.176199999,,,,,,241,0,241,0,1,,,,,
,,808369,001,2023-07-24_14h06.17.600,arm3_eps,2022.2.5,Win32,29.98141152,613ce0908bb5dbe6bcb5944a,64aea9d0f615b6559c281482,64becb866d75df8cfff76850,right,-1,0.3,0.4357,3,-0.121463737,0.1809,,,,,,242,0,242,0,1,,,,,
,,808369,001,2023-07-24_14h06.17.600,arm3_eps,2022.2.5,Win32,29.98141152,613ce0908bb5dbe6bcb5944a,64aea9d0f615b6559c281482,64becb866d75df8cfff76850,right,-1,0.3,0.4357,3,-0.15045309,0.178,,,,,,243,0,243,0,1,,,,,
,,808369,001,2023-07-24_14h06.17.600,arm3_eps,2022.2.5,Win32,29.98141152,613ce0908bb5dbe6bcb5944a,64aea9d0f615b6559c281482,64becb866d75df8cfff76850,right,-1,0.3,0.4357,3,-0.189487149,0.130599998,,,,,,244,0,244,0,1,,,,,
,,808369,001,2023-07-24_14h06.17.600,arm3_eps,2022.2.5,Win32,29.98141152,613ce0908bb5dbe6bcb5944a,64aea9d0f615b6559c281482,64becb866d75df8cfff76850,right,-1,0.3,0.4357,3,-0.176157699,0.1869,,,,,,245,0,245,0,1,,,,,
,,808369,001,2023-07-24_14h06.17.600,arm3_eps,2022.2.5,Win32,29.98141152,613ce0908bb5dbe6bcb5944a,64aea9d0f615b6559c281482,64becb866d75df8cfff76850,right,-1,0.3,0.4357,3,-0.181090789,0.128199999,,,,,,246,0,246,0,1,,,,,
,,808369,001,2023-07-24_14h06.17.600,arm3_eps,2022.2.5,Win32,29.98141152,613ce0908bb5dbe6bcb5944a,64aea9d0f615b6559c281482,64becb866d75df8cfff76850,right,-1,0.3,0.4357,3,-0.185197789,0.176299999,,,,,,247,0,247,0,1,,,,,
,,808369,001,2023-07-24_14h06.17.600,arm3_eps,2022.2.5,Win32,29.98141152,613ce0908bb5dbe6bcb5944a,64aea9d0f615b6559c281482,64becb866d75df8cfff76850,right,-1,0.3,0.4357,3,-0.183454215,0.159200001,,,,,,248,0,248,0,1,,,,,
,,808369,001,2023-07-24_14h06.17.600,arm3_eps,2022.2.5,Win32,29.98141152,613ce0908bb5dbe6bcb5944a,64aea9d0f615b6559c281482,64becb866d75df8cfff76850,right,-1,0.3,0.4357,3,-0.18813902,0.1455,,,,,,249,0,249,0,1,,,,,
,,808369,001,2023-07-24_14h06.17.600,arm3_eps,2022.2.5,Win32,29.98141152,613ce0908bb5dbe6bcb5944a,64aea9d0f615b6559c281482,64becb866d75df8cfff76850,right,-1,0.3,0.4357,3,-0.211220464,0.145700001,,,,,,250,0,250,0,1,,,,,
,,808369,001,2023-07-24_14h06.17.600,arm3_eps,2022.2.5,Win32,29.98141152,613ce0908bb5dbe6bcb5944a,64aea9d0f615b6559c281482,64becb866d75df8cfff76850,down,1,0.3,0.4357,3,0,0.551300001,,,,,,251,0,251,0,1,,,,,
,,808369,001,2023-07-24_14h06.17.600,arm3_eps,2022.2.5,Win32,29.98141152,613ce0908bb5dbe6bcb5944a,64aea9d0f615b6559c281482,64becb866d75df8cfff76850,right,1,0.3,0.4357,3,0.019889888,0.6645,,,,,,252,0,252,0,1,,,,,
,,808369,001,2023-07-24_14h06.17.600,arm3_eps,2022.2.5,Win32,29.98141152,613ce0908bb5dbe6bcb5944a,64aea9d0f615b6559c281482,64becb866d75df8cfff76850,right,1,0.3,0.4357,3,0.049195867,0.146699999,,,,,,253,0,253,0,1,,,,,
,,808369,001,2023-07-24_14h06.17.600,arm3_eps,2022.2.5,Win32,29.98141152,613ce0908bb5dbe6bcb5944a,64aea9d0f615b6559c281482,64becb866d75df8cfff76850,right,1,0.3,0.4357,3,0.039797339,0.172300001,,,,,,254,0,254,0,1,,,,,
,,808369,001,2023-07-24_14h06.17.600,arm3_eps,2022.2.5,Win32,29.98141152,613ce0908bb5dbe6bcb5944a,64aea9d0f615b6559c281482,64becb866d75df8cfff76850,right,1,0.3,0.4357,3,0.027902265,0.15,,,,,,255,0,255,0,1,,,,,
,,808369,001,2023-07-24_14h06.17.600,arm3_eps,2022.2.5,Win32,29.98141152,613ce0908bb5dbe6bcb5944a,64aea9d0f615b6559c281482,64becb866d75df8cfff76850,right,1,0.3,0.4357,3,0.0273236,0.173900002,,,,,,256,0,256,0,1,,,,,
,,808369,001,2023-07-24_14h06.17.600,arm3_eps,2022.2.5,Win32,29.98141152,613ce0908bb5dbe6bcb5944a,64aea9d0f615b6559c281482,64becb866d75df8cfff76850,right,1,0.3,0.4357,3,0.042847246,0.1711,,,,,,257,0,257,0,1,,,,,
,,808369,001,2023-07-24_14h06.17.600,arm3_eps,2022.2.5,Win32,29.98141152,613ce0908bb5dbe6bcb5944a,64aea9d0f615b6559c281482,64becb866d75df8cfff76850,right,1,0.3,0.4357,3,0.053132281,0.111599998,,,,,,258,0,258,0,1,,,,,
,,808369,001,2023-07-24_14h06.17.600,arm3_eps,2022.2.5,Win32,29.98141152,613ce0908bb5dbe6bcb5944a,64aea9d0f615b6559c281482,64becb866d75df8cfff76850,right,1,0.3,0.4357,3,0.090832782,0.176699999,,,,,,259,0,259,0,1,,,,,
,,808369,001,2023-07-24_14h06.17.600,arm3_eps,2022.2.5,Win32,29.98141152,613ce0908bb5dbe6bcb5944a,64aea9d0f615b6559c281482,64becb866d75df8cfff76850,right,1,0.3,0.4357,3,0.079369877,0.1611,,,,,,260,0,260,0,1,,,,,
,,808369,001,2023-07-24_14h06.17.600,arm3_eps,2022.2.5,Win32,29.98141152,613ce0908bb5dbe6bcb5944a,64aea9d0f615b6559c281482,64becb866d75df8cfff76850,right,1,0.3,0.4357,3,0.147096709,0.1439,,,,,,261,0,261,0,1,,,,,
,,808369,001,2023-07-24_14h06.17.600,arm3_eps,2022.2.5,Win32,29.98141152,613ce0908bb5dbe6bcb5944a,64aea9d0f615b6559c281482,64becb866d75df8cfff76850,right,1,0.3,0.4357,3,0.19789922,0.167200001,,,,,,262,0,262,0,1,,,,,
,,808369,001,2023-07-24_14h06.17.600,arm3_eps,2022.2.5,Win32,29.98141152,613ce0908bb5dbe6bcb5944a,64aea9d0f615b6559c281482,64becb866d75df8cfff76850,right,1,0.3,0.4357,3,0.192039996,0.152299999,,,,,,263,0,263,0,1,,,,,
,,808369,001,2023-07-24_14h06.17.600,arm3_eps,2022.2.5,Win32,29.98141152,613ce0908bb5dbe6bcb5944a,64aea9d0f615b6559c281482,64becb866d75df8cfff76850,up,1,0.3,0.4357,4,0,0.684799999,,,,,,264,0,264,0,1,,,,,
,,808369,001,2023-07-24_14h06.17.600,arm3_eps,2022.2.5,Win32,29.98141152,613ce0908bb5dbe6bcb5944a,64aea9d0f615b6559c281482,64becb866d75df8cfff76850,right,1,0.3,0.4357,4,0.012712704,0.939800001,,,,,,265,0,265,0,1,,,,,
,,808369,001,2023-07-24_14h06.17.600,arm3_eps,2022.2.5,Win32,29.98141152,613ce0908bb5dbe6bcb5944a,64aea9d0f615b6559c281482,64becb866d75df8cfff76850,right,1,0.3,0.4357,4,0.015089628,0.1776,,,,,,266,0,266,0,1,,,,,
,,808369,001,2023-07-24_14h06.17.600,arm3_eps,2022.2.5,Win32,29.98141152,613ce0908bb5dbe6bcb5944a,64aea9d0f615b6559c281482,64becb866d75df8cfff76850,right,1,0.3,0.4357,4,0.025809828,0.194799999,,,,,,267,0,267,0,1,,,,,
,,808369,001,2023-07-24_14h06.17.600,arm3_eps,2022.2.5,Win32,29.98141152,613ce0908bb5dbe6bcb5944a,64aea9d0f615b6559c281482,64becb866d75df8cfff76850,right,1,0.3,0.4357,4,0.03728551,0.1825,,,,,,268,0,268,0,1,,,,,
,,808369,001,2023-07-24_14h06.17.600,arm3_eps,2022.2.5,Win32,29.98141152,613ce0908bb5dbe6bcb5944a,64aea9d0f615b6559c281482,64becb866d75df8cfff76850,right,1,0.3,0.4357,4,0.074572532,0.1456,,,,,,269,0,269,0,1,,,,,
,,808369,001,2023-07-24_14h06.17.600,arm3_eps,2022.2.5,Win32,29.98141152,613ce0908bb5dbe6bcb5944a,64aea9d0f615b6559c281482,64becb866d75df8cfff76850,right,1,0.3,0.4357,4,0.099327405,0.1755,,,,,,270,0,270,0,1,,,,,
,,808369,001,2023-07-24_14h06.17.600,arm3_eps,2022.2.5,Win32,29.98141152,613ce0908bb5dbe6bcb5944a,64aea9d0f615b6559c281482,64becb866d75df8cfff76850,right,1,0.3,0.4357,4,0.12095619,0.1689,,,,,,271,0,271,0,1,,,,,
,,808369,001,2023-07-24_14h06.17.600,arm3_eps,2022.2.5,Win32,29.98141152,613ce0908bb5dbe6bcb5944a,64aea9d0f615b6559c281482,64becb866d75df8cfff76850,right,1,0.3,0.4357,4,0.111541304,0.197700001,,,,,,272,0,272,0,1,,,,,
,,808369,001,2023-07-24_14h06.17.600,arm3_eps,2022.2.5,Win32,29.98141152,613ce0908bb5dbe6bcb5944a,64aea9d0f615b6559c281482,64becb866d75df8cfff76850,right,1,0.3,0.4357,4,0.151762965,0.127799999,,,,,,273,0,273,0,1,,,,,
,,808369,001,2023-07-24_14h06.17.600,arm3_eps,2022.2.5,Win32,29.98141152,613ce0908bb5dbe6bcb5944a,64aea9d0f615b6559c281482,64becb866d75df8cfff76850,right,1,0.3,0.4357,4,0.182990825,0.191799999,,,,,,274,0,274,0,1,,,,,
,,808369,001,2023-07-24_14h06.17.600,arm3_eps,2022.2.5,Win32,29.98141152,613ce0908bb5dbe6bcb5944a,64aea9d0f615b6559c281482,64becb866d75df8cfff76850,right,1,0.3,0.4357,4,0.223091361,0.214700001,,,,,,275,0,275,0,1,,,,,
,,808369,001,2023-07-24_14h06.17.600,arm3_eps,2022.2.5,Win32,29.98141152,613ce0908bb5dbe6bcb5944a,64aea9d0f615b6559c281482,64becb866d75df8cfff76850,right,1,0.3,0.4357,4,0.249366844,0.184199999,,,,,,276,0,276,0,1,,,,,
,,808369,001,2023-07-24_14h06.17.600,arm3_eps,2022.2.5,Win32,29.98141152,613ce0908bb5dbe6bcb5944a,64aea9d0f615b6559c281482,64becb866d75df8cfff76850,up,-1,0.3,0.4357,4,0,0.8041,,,,,,277,0,277,0,1,,,,,
,,808369,001,2023-07-24_14h06.17.600,arm3_eps,2022.2.5,Win32,29.98141152,613ce0908bb5dbe6bcb5944a,64aea9d0f615b6559c281482,64becb866d75df8cfff76850,right,-1,0.3,0.4357,4,0.012027989,0.411,,,,,,278,0,278,0,1,,,,,
,,808369,001,2023-07-24_14h06.17.600,arm3_eps,2022.2.5,Win32,29.98141152,613ce0908bb5dbe6bcb5944a,64aea9d0f615b6559c281482,64becb866d75df8cfff76850,right,-1,0.3,0.4357,4,0.014202377,0.3555,,,,,,279,0,279,0,1,,,,,
,,808369,001,2023-07-24_14h06.17.600,arm3_eps,2022.2.5,Win32,29.98141152,613ce0908bb5dbe6bcb5944a,64aea9d0f615b6559c281482,64becb866d75df8cfff76850,right,-1,0.3,0.4357,4,0.010449434,0.162900002,,,,,,280,0,280,0,1,,,,,
,,808369,001,2023-07-24_14h06.17.600,arm3_eps,2022.2.5,Win32,29.98141152,613ce0908bb5dbe6bcb5944a,64aea9d0f615b6559c281482,64becb866d75df8cfff76850,right,-1,0.3,0.4357,4,-0.010190453,0.165599998,,,,,,281,0,281,0,1,,,,,
,,808369,001,2023-07-24_14h06.17.600,arm3_eps,2022.2.5,Win32,29.98141152,613ce0908bb5dbe6bcb5944a,64aea9d0f615b6559c281482,64becb866d75df8cfff76850,right,-1,0.3,0.4357,4,-0.00193122,0.230200001,,,,,,282,0,282,0,1,,,,,
,,808369,001,2023-07-24_14h06.17.600,arm3_eps,2022.2.5,Win32,29.98141152,613ce0908bb5dbe6bcb5944a,64aea9d0f615b6559c281482,64becb866d75df8cfff76850,right,-1,0.3,0.4357,4,-0.029611465,0.178,,,,,,283,0,283,0,1,,,,,
,,808369,001,2023-07-24_14h06.17.600,arm3_eps,2022.2.5,Win32,29.98141152,613ce0908bb5dbe6bcb5944a,64aea9d0f615b6559c281482,64becb866d75df8cfff76850,right,-1,0.3,0.4357,4,-0.062115989,0.162,,,,,,284,0,284,0,1,,,,,
,,808369,001,2023-07-24_14h06.17.600,arm3_eps,2022.2.5,Win32,29.98141152,613ce0908bb5dbe6bcb5944a,64aea9d0f615b6559c281482,64becb866d75df8cfff76850,right,-1,0.3,0.4357,4,-0.054999614,0.174200001,,,,,,285,0,285,0,1,,,,,
,,808369,001,2023-07-24_14h06.17.600,arm3_eps,2022.2.5,Win32,29.98141152,613ce0908bb5dbe6bcb5944a,64aea9d0f615b6559c281482,64becb866d75df8cfff76850,right,-1,0.3,0.4357,4,-0.08733927,0.160200001,,,,,,286,0,286,0,1,,,,,
,,808369,001,2023-07-24_14h06.17.600,arm3_eps,2022.2.5,Win32,29.98141152,613ce0908bb5dbe6bcb5944a,64aea9d0f615b6559c281482,64becb866d75df8cfff76850,right,-1,0.3,0.4357,4,-0.09947038,0.1635,,,,,,287,0,287,0,1,,,,,
,,808369,001,2023-07-24_14h06.17.600,arm3_eps,2022.2.5,Win32,29.98141152,613ce0908bb5dbe6bcb5944a,64aea9d0f615b6559c281482,64becb866d75df8cfff76850,right,-1,0.3,0.4357,4,-0.120723091,0.130200001,,,,,,288,0,288,0,1,,,,,
,,808369,001,2023-07-24_14h06.17.600,arm3_eps,2022.2.5,Win32,29.98141152,613ce0908bb5dbe6bcb5944a,64aea9d0f615b6559c281482,64becb866d75df8cfff76850,right,-1,0.3,0.4357,4,-0.127829144,0.1635,,,,,,289,0,289,0,1,,,,,
,,808369,001,2023-07-24_14h06.17.600,arm3_eps,2022.2.5,Win32,29.98141152,613ce0908bb5dbe6bcb5944a,64aea9d0f615b6559c281482,64becb866d75df8cfff76850,up,1,0.3,0.4357,4,0,0.570299999,,,,,,290,0,290,0,1,,,,,
,,808369,001,2023-07-24_14h06.17.600,arm3_eps,2022.2.5,Win32,29.98141152,613ce0908bb5dbe6bcb5944a,64aea9d0f615b6559c281482,64becb866d75df8cfff76850,right,1,0.3,0.4357,4,0.016503719,0.5885,,,,,,291,0,291,0,1,,,,,
,,808369,001,2023-07-24_14h06.17.600,arm3_eps,2022.2.5,Win32,29.98141152,613ce0908bb5dbe6bcb5944a,64aea9d0f615b6559c281482,64becb866d75df8cfff76850,right,1,0.3,0.4357,4,0.027726669,0.1999,,,,,,292,0,292,0,1,,,,,
,,808369,001,2023-07-24_14h06.17.600,arm3_eps,2022.2.5,Win32,29.98141152,613ce0908bb5dbe6bcb5944a,64aea9d0f615b6559c281482,64becb866d75df8cfff76850,right,1,0.3,0.4357,4,0.02628088,0.175200001,,,,,,293,0,293,0,1,,,,,
,,808369,001,2023-07-24_14h06.17.600,arm3_eps,2022.2.5,Win32,29.98141152,613ce0908bb5dbe6bcb5944a,64aea9d0f615b6559c281482,64becb866d75df8cfff76850,right,1,0.3,0.4357,4,0.016038565,0.1481,,,,,,294,0,294,0,1,,,,,
,,808369,001,2023-07-24_14h06.17.600,arm3_eps,2022.2.5,Win32,29.98141152,613ce0908bb5dbe6bcb5944a,64aea9d0f615b6559c281482,64becb866d75df8cfff76850,right,1,0.3,0.4357,4,0.011970548,0.165799999,,,,,,295,0,295,0,1,,,,,
,,808369,001,2023-07-24_14h06.17.600,arm3_eps,2022.2.5,Win32,29.98141152,613ce0908bb5dbe6bcb5944a,64aea9d0f615b6559c281482,64becb866d75df8cfff76850,right,1,0.3,0.4357,4,0.027458847,0.1759,,,,,,296,0,296,0,1,,,,,
,,808369,001,2023-07-24_14h06.17.600,arm3_eps,2022.2.5,Win32,29.98141152,613ce0908bb5dbe6bcb5944a,64aea9d0f615b6559c281482,64becb866d75df8cfff76850,right,1,0.3,0.4357,4,0.05403708,0.159199999,,,,,,297,0,297,0,1,,,,,
,,808369,001,2023-07-24_14h06.17.600,arm3_eps,2022.2.5,Win32,29.98141152,613ce0908bb5dbe6bcb5944a,64aea9d0f615b6559c281482,64becb866d75df8cfff76850,right,1,0.3,0.4357,4,0.036624724,0.1844,,,,,,298,0,298,0,1,,,,,
,,808369,001,2023-07-24_14h06.17.600,arm3_eps,2022.2.5,Win32,29.98141152,613ce0908bb5dbe6bcb5944a,64aea9d0f615b6559c281482,64becb866d75df8cfff76850,right,1,0.3,0.4357,4,0.022956714,0.165400002,,,,,,299,0,299,0,1,,,,,
,,808369,001,2023-07-24_14h06.17.600,arm3_eps,2022.2.5,Win32,29.98141152,613ce0908bb5dbe6bcb5944a,64aea9d0f615b6559c281482,64becb866d75df8cfff76850,right,1,0.3,0.4357,4,0.045544632,0.145,,,,,,300,0,300,0,1,,,,,
,,808369,001,2023-07-24_14h06.17.600,arm3_eps,2022.2.5,Win32,29.98141152,613ce0908bb5dbe6bcb5944a,64aea9d0f615b6559c281482,64becb866d75df8cfff76850,right,1,0.3,0.4357,4,0.028992403,0.1594,,,,,,301,0,301,0,1,,,,,
,,808369,001,2023-07-24_14h06.17.600,arm3_eps,2022.2.5,Win32,29.98141152,613ce0908bb5dbe6bcb5944a,64aea9d0f615b6559c281482,64becb866d75df8cfff76850,up,1,0.3,0.4357,4,0,0.565199999,,,,,,302,0,302,0,1,,,,,
,,808369,001,2023-07-24_14h06.17.600,arm3_eps,2022.2.5,Win32,29.98141152,613ce0908bb5dbe6bcb5944a,64aea9d0f615b6559c281482,64becb866d75df8cfff76850,right,1,0.3,0.4357,4,-0.007170045,0.828300001,,,,,,303,0,303,0,1,,,,,
,,808369,001,2023-07-24_14h06.17.600,arm3_eps,2022.2.5,Win32,29.98141152,613ce0908bb5dbe6bcb5944a,64aea9d0f615b6559c281482,64becb866d75df8cfff76850,right,1,0.3,0.4357,4,0.029439404,0.1305,,,,,,304,0,304,0,1,,,,,
,,808369,001,2023-07-24_14h06.17.600,arm3_eps,2022.2.5,Win32,29.98141152,613ce0908bb5dbe6bcb5944a,64aea9d0f615b6559c281482,64becb866d75df8cfff76850,right,1,0.3,0.4357,4,0.062878822,0.158200001,,,,,,305,0,305,0,1,,,,,
,,808369,001,2023-07-24_14h06.17.600,arm3_eps,2022.2.5,Win32,29.98141152,613ce0908bb5dbe6bcb5944a,64aea9d0f615b6559c281482,64becb866d75df8cfff76850,up,1,0.3,0.4357,4,0,0.218799999,,,,,,306,0,306,0,1,,,,,
,,808369,001,2023-07-24_14h06.17.600,arm3_eps,2022.2.5,Win32,29.98141152,613ce0908bb5dbe6bcb5944a,64aea9d0f615b6559c281482,64becb866d75df8cfff76850,right,1,0.3,0.4357,4,0.032491721,0.6539,,,,,,307,0,307,0,1,,,,,
,,808369,001,2023-07-24_14h06.17.600,arm3_eps,2022.2.5,Win32,29.98141152,613ce0908bb5dbe6bcb5944a,64aea9d0f615b6559c281482,64becb866d75df8cfff76850,right,1,0.3,0.4357,4,0.06510325,0.128900002,,,,,,308,0,308,0,1,,,,,
,,808369,001,2023-07-24_14h06.17.600,arm3_eps,2022.2.5,Win32,29.98141152,613ce0908bb5dbe6bcb5944a,64aea9d0f615b6559c281482,64becb866d75df8cfff76850,right,1,0.3,0.4357,4,0.071317839,0.1271,,,,,,309,0,309,0,1,,,,,
,,808369,001,2023-07-24_14h06.17.600,arm3_eps,2022.2.5,Win32,29.98141152,613ce0908bb5dbe6bcb5944a,64aea9d0f615b6559c281482,64becb866d75df8cfff76850,right,1,0.3,0.4357,4,0.072826429,0.1471,,,,,,310,0,310,0,1,,,,,
,,808369,001,2023-07-24_14h06.17.600,arm3_eps,2022.2.5,Win32,29.98141152,613ce0908bb5dbe6bcb5944a,64aea9d0f615b6559c281482,64becb866d75df8cfff76850,right,1,0.3,0.4357,4,0.065675025,0.1324,,,,,,311,0,311,0,1,,,,,
,,808369,001,2023-07-24_14h06.17.600,arm3_eps,2022.2.5,Win32,29.98141152,613ce0908bb5dbe6bcb5944a,64aea9d0f615b6559c281482,64becb866d75df8cfff76850,right,1,0.3,0.4357,4,0.052068984,0.115300001,,,,,,312,0,312,0,1,,,,,
,,808369,001,2023-07-24_14h06.17.600,arm3_eps,2022.2.5,Win32,29.98141152,613ce0908bb5dbe6bcb5944a,64aea9d0f615b6559c281482,64becb866d75df8cfff76850,right,1,0.3,0.4357,4,0.03508158,0.139199999,,,,,,313,0,313,0,1,,,,,
,,808369,001,2023-07-24_14h06.17.600,arm3_eps,2022.2.5,Win32,29.98141152,613ce0908bb5dbe6bcb5944a,64aea9d0f615b6559c281482,64becb866d75df8cfff76850,right,1,0.3,0.4357,4,0.043698347,0.1485,,,,,,314,0,314,0,1,,,,,
,,808369,001,2023-07-24_14h06.17.600,arm3_eps,2022.2.5,Win32,29.98141152,613ce0908bb5dbe6bcb5944a,64aea9d0f615b6559c281482,64becb866d75df8cfff76850,right,1,0.3,0.4357,4,0.028812639,0.1381,,,,,,315,0,315,0,1,,,,,
,,808369,001,2023-07-24_14h06.17.600,arm3_eps,2022.2.5,Win32,29.98141152,613ce0908bb5dbe6bcb5944a,64aea9d0f615b6559c281482,64becb866d75df8cfff76850,right,1,0.3,0.4357,4,0.02549417,0.146700001,,,,,,316,0,316,0,1,,,,,
,,808369,001,2023-07-24_14h06.17.600,arm3_eps,2022.2.5,Win32,29.98141152,613ce0908bb5dbe6bcb5944a,64aea9d0f615b6559c281482,64becb866d75df8cfff76850,right,1,0.3,0.4357,4,0.055224339,0.176,,,,,,317,0,317,0,1,,,,,
,,808369,001,2023-07-24_14h06.17.600,arm3_eps,2022.2.5,Win32,29.98141152,613ce0908bb5dbe6bcb5944a,64aea9d0f615b6559c281482,64becb866d75df8cfff76850,right,1,0.3,0.4357,4,0.095228401,0.120300001,,,,,,318,0,318,0,1,,,,,
,,808369,001,2023-07-24_14h06.17.600,arm3_eps,2022.2.5,Win32,29.98141152,613ce0908bb5dbe6bcb5944a,64aea9d0f615b6559c281482,64becb866d75df8cfff76850,up,-1,0.3,0.4357,4,0,0.634199999,,,,,,319,0,319,0,1,,,,,
,,808369,001,2023-07-24_14h06.17.600,arm3_eps,2022.2.5,Win32,29.98141152,613ce0908bb5dbe6bcb5944a,64aea9d0f615b6559c281482,64becb866d75df8cfff76850,right,-1,0.3,0.4357,4,-0.005425619,0.704400002,,,,,,320,0,320,0,1,,,,,
,,808369,001,2023-07-24_14h06.17.600,arm3_eps,2022.2.5,Win32,29.98141152,613ce0908bb5dbe6bcb5944a,64aea9d0f615b6559c281482,64becb866d75df8cfff76850,right,-1,0.3,0.4357,4,-0.014637531,0.1851,,,,,,321,0,321,0,1,,,,,
,,808369,001,2023-07-24_14h06.17.600,arm3_eps,2022.2.5,Win32,29.98141152,613ce0908bb5dbe6bcb5944a,64aea9d0f615b6559c281482,64becb866d75df8cfff76850,right,-1,0.3,0.4357,4,-0.010009922,0.1546,,,,,,322,0,322,0,1,,,,,
,,808369,001,2023-07-24_14h06.17.600,arm3_eps,2022.2.5,Win32,29.98141152,613ce0908bb5dbe6bcb5944a,64aea9d0f615b6559c281482,64becb866d75df8cfff76850,right,-1,0.3,0.4357,4,0.006074333,0.1531,,,,,,323,0,323,0,1,,,,,
,,808369,001,2023-07-24_14h06.17.600,arm3_eps,2022.2.5,Win32,29.98141152,613ce0908bb5dbe6bcb5944a,64aea9d0f615b6559c281482,64becb866d75df8cfff76850,right,-1,0.3,0.4357,4,0.001059435,0.153700001,,,,,,324,0,324,0,1,,,,,
,,808369,001,2023-07-24_14h06.17.600,arm3_eps,2022.2.5,Win32,29.98141152,613ce0908bb5dbe6bcb5944a,64aea9d0f615b6559c281482,64becb866d75df8cfff76850,right,-1,0.3,0.4357,4,-0.01327913,0.151700001,,,,,,325,0,325,0,1,,,,,
,,808369,001,2023-07-24_14h06.17.600,arm3_eps,2022.2.5,Win32,29.98141152,613ce0908bb5dbe6bcb5944a,64aea9d0f615b6559c281482,64becb866d75df8cfff76850,right,-1,0.3,0.4357,4,-0.038146602,0.1706,,,,,,326,0,326,0,1,,,,,
,,808369,001,2023-07-24_14h06.17.600,arm3_eps,2022.2.5,Win32,29.98141152,613ce0908bb5dbe6bcb5944a,64aea9d0f615b6559c281482,64becb866d75df8cfff76850,right,-1,0.3,0.4357,4,-0.05112387,0.136199999,,,,,,327,0,327,0,1,,,,,
,,808369,001,2023-07-24_14h06.17.600,arm3_eps,2022.2.5,Win32,29.98141152,613ce0908bb5dbe6bcb5944a,64aea9d0f615b6559c281482,64becb866d75df8cfff76850,right,-1,0.3,0.4357,4,-0.07321457,0.155599998,,,,,,328,0,328,0,1,,,,,
,,808369,001,2023-07-24_14h06.17.600,arm3_eps,2022.2.5,Win32,29.98141152,613ce0908bb5dbe6bcb5944a,64aea9d0f615b6559c281482,64becb866d75df8cfff76850,right,-1,0.3,0.4357,4,-0.091887782,0.1375,,,,,,329,0,329,0,1,,,,,
,,808369,001,2023-07-24_14h06.17.600,arm3_eps,2022.2.5,Win32,29.98141152,613ce0908bb5dbe6bcb5944a,64aea9d0f615b6559c281482,64becb866d75df8cfff76850,right,-1,0.3,0.4357,4,-0.103196174,0.118799999,,,,,,330,0,330,0,1,,,,,
,,808369,001,2023-07-24_14h06.17.600,arm3_eps,2022.2.5,Win32,29.98141152,613ce0908bb5dbe6bcb5944a,64aea9d0f615b6559c281482,64becb866d75df8cfff76850,right,-1,0.3,0.4357,4,-0.103454286,0.1419,,,,,,331,0,331,0,1,,,,,
,,808369,001,2023-07-24_14h06.17.600,arm3_eps,2022.2.5,Win32,29.98141152,613ce0908bb5dbe6bcb5944a,64aea9d0f615b6559c281482,64becb866d75df8cfff76850,down,1,0.3,0.4357,5,0,0.7536,,,,,,332,0,332,0,1,,,,,
,,808369,001,2023-07-24_14h06.17.600,arm3_eps,2022.2.5,Win32,29.98141152,613ce0908bb5dbe6bcb5944a,64aea9d0f615b6559c281482,64becb866d75df8cfff76850,right,1,0.3,0.4357,5,-0.031189829,0.8461,,,,,,333,0,333,0,1,,,,,
,,808369,001,2023-07-24_14h06.17.600,arm3_eps,2022.2.5,Win32,29.98141152,613ce0908bb5dbe6bcb5944a,64aea9d0f615b6559c281482,64becb866d75df8cfff76850,right,1,0.3,0.4357,5,-0.022459608,0.162300001,,,,,,334,0,334,0,1,,,,,
,,808369,001,2023-07-24_14h06.17.600,arm3_eps,2022.2.5,Win32,29.98141152,613ce0908bb5dbe6bcb5944a,64aea9d0f615b6559c281482,64becb866d75df8cfff76850,right,1,0.3,0.4357,5,-0.007039907,0.1426,,,,,,335,0,335,0,1,,,,,
,,808369,001,2023-07-24_14h06.17.600,arm3_eps,2022.2.5,Win32,29.98141152,613ce0908bb5dbe6bcb5944a,64aea9d0f615b6559c281482,64becb866d75df8cfff76850,right,1,0.3,0.4357,5,0.01845434,0.163699999,,,,,,336,0,336,0,1,,,,,
,,808369,001,2023-07-24_14h06.17.600,arm3_eps,2022.2.5,Win32,29.98141152,613ce0908bb5dbe6bcb5944a,64aea9d0f615b6559c281482,64becb866d75df8cfff76850,right,1,0.3,0.4357,5,0.038858878,0.1651,,,,,,337,0,337,0,1,,,,,
,,808369,001,2023-07-24_14h06.17.600,arm3_eps,2022.2.5,Win32,29.98141152,613ce0908bb5dbe6bcb5944a,64aea9d0f615b6559c281482,64becb866d75df8cfff76850,right,1,0.3,0.4357,5,0.037423361,0.1624,,,,,,338,0,338,0,1,,,,,
,,808369,001,2023-07-24_14h06.17.600,arm3_eps,2022.2.5,Win32,29.98141152,613ce0908bb5dbe6bcb5944a,64aea9d0f615b6559c281482,64becb866d75df8cfff76850,right,1,0.3,0.4357,5,0.035078204,0.180299999,,,,,,339,0,339,0,1,,,,,
,,808369,001,2023-07-24_14h06.17.600,arm3_eps,2022.2.5,Win32,29.98141152,613ce0908bb5dbe6bcb5944a,64aea9d0f615b6559c281482,64becb866d75df8cfff76850,right,1,0.3,0.4357,5,0.035836803,0.164700001,,,,,,340,0,340,0,1,,,,,
,,808369,001,2023-07-24_14h06.17.600,arm3_eps,2022.2.5,Win32,29.98141152,613ce0908bb5dbe6bcb5944a,64aea9d0f615b6559c281482,64becb866d75df8cfff76850,right,1,0.3,0.4357,5,0.033064463,0.178200001,,,,,,341,0,341,0,1,,,,,
,,808369,001,2023-07-24_14h06.17.600,arm3_eps,2022.2.5,Win32,29.98141152,613ce0908bb5dbe6bcb5944a,64aea9d0f615b6559c281482,64becb866d75df8cfff76850,right,1,0.3,0.4357,5,0.030618444,0.1975,,,,,,342,0,342,0,1,,,,,
,,808369,001,2023-07-24_14h06.17.600,arm3_eps,2022.2.5,Win32,29.98141152,613ce0908bb5dbe6bcb5944a,64aea9d0f615b6559c281482,64becb866d75df8cfff76850,right,1,0.3,0.4357,5,0.031408542,0.156800001,,,,,,343,0,343,0,1,,,,,
,,808369,001,2023-07-24_14h06.17.600,arm3_eps,2022.2.5,Win32,29.98141152,613ce0908bb5dbe6bcb5944a,64aea9d0f615b6559c281482,64becb866d75df8cfff76850,right,1,0.3,0.4357,5,0.059298768,0.215,,,,,,344,0,344,0,1,,,,,
,,808369,001,2023-07-24_14h06.17.600,arm3_eps,2022.2.5,Win32,29.98141152,613ce0908bb5dbe6bcb5944a,64aea9d0f615b6559c281482,64becb866d75df8cfff76850,up,1,0.3,0.4357,5,0,0.758799999,,,,,,345,0,345,0,1,,,,,
,,808369,001,2023-07-24_14h06.17.600,arm3_eps,2022.2.5,Win32,29.98141152,613ce0908bb5dbe6bcb5944a,64aea9d0f615b6559c281482,64becb866d75df8cfff76850,right,1,0.3,0.4357,5,0.012871336,0.4339,,,,,,346,0,346,0,1,,,,,
,,808369,001,2023-07-24_14h06.17.600,arm3_eps,2022.2.5,Win32,29.98141152,613ce0908bb5dbe6bcb5944a,64aea9d0f615b6559c281482,64becb866d75df8cfff76850,right,1,0.3,0.4357,5,0.034431165,0.422700001,,,,,,347,0,347,0,1,,,,,
,,808369,001,2023-07-24_14h06.17.600,arm3_eps,2022.2.5,Win32,29.98141152,613ce0908bb5dbe6bcb5944a,64aea9d0f615b6559c281482,64becb866d75df8cfff76850,right,1,0.3,0.4357,5,0.054564719,0.198299999,,,,,,348,0,348,0,1,,,,,
,,808369,001,2023-07-24_14h06.17.600,arm3_eps,2022.2.5,Win32,29.98141152,613ce0908bb5dbe6bcb5944a,64aea9d0f615b6559c281482,64becb866d75df8cfff76850,right,1,0.3,0.4357,5,0.048681789,0.183300001,,,,,,349,0,349,0,1,,,,,
,,808369,001,2023-07-24_14h06.17.600,arm3_eps,2022.2.5,Win32,29.98141152,613ce0908bb5dbe6bcb5944a,64aea9d0f615b6559c281482,64becb866d75df8cfff76850,right,1,0.3,0.4357,5,0.072028796,0.185299999,,,,,,350,0,350,0,1,,,,,
,,808369,001,2023-07-24_14h06.17.600,arm3_eps,2022.2.5,Win32,29.98141152,613ce0908bb5dbe6bcb5944a,64aea9d0f615b6559c281482,64becb866d75df8cfff76850,right,1,0.3,0.4357,5,0.096082663,0.183799999,,,,,,351,0,351,0,1,,,,,
,,808369,001,2023-07-24_14h06.17.600,arm3_eps,2022.2.5,Win32,29.98141152,613ce0908bb5dbe6bcb5944a,64aea9d0f615b6559c281482,64becb866d75df8cfff76850,right,1,0.3,0.4357,5,0.128834296,0.1886,,,,,,352,0,352,0,1,,,,,
,,808369,001,2023-07-24_14h06.17.600,arm3_eps,2022.2.5,Win32,29.98141152,613ce0908bb5dbe6bcb5944a,64aea9d0f615b6559c281482,64becb866d75df8cfff76850,right,1,0.3,0.4357,5,0.124372758,0.1675,,,,,,353,0,353,0,1,,,,,
,,808369,001,2023-07-24_14h06.17.600,arm3_eps,2022.2.5,Win32,29.98141152,613ce0908bb5dbe6bcb5944a,64aea9d0f615b6559c281482,64becb866d75df8cfff76850,right,1,0.3,0.4357,5,0.134348876,0.168400002,,,,,,354,0,354,0,1,,,,,
,,808369,001,2023-07-24_14h06.17.600,arm3_eps,2022.2.5,Win32,29.98141152,613ce0908bb5dbe6bcb5944a,64aea9d0f615b6559c281482,64becb866d75df8cfff76850,right,1,0.3,0.4357,5,0.114073082,0.17,,,,,,355,0,355,0,1,,,,,
,,808369,001,2023-07-24_14h06.17.600,arm3_eps,2022.2.5,Win32,29.98141152,613ce0908bb5dbe6bcb5944a,64aea9d0f615b6559c281482,64becb866d75df8cfff76850,right,1,0.3,0.4357,5,0.136826644,0.151,,,,,,356,0,356,0,1,,,,,
,,808369,001,2023-07-24_14h06.17.600,arm3_eps,2022.2.5,Win32,29.98141152,613ce0908bb5dbe6bcb5944a,64aea9d0f615b6559c281482,64becb866d75df8cfff76850,right,1,0.3,0.4357,5,0.112978421,0.169199999,,,,,,357,0,357,0,1,,,,,
,,808369,001,2023-07-24_14h06.17.600,arm3_eps,2022.2.5,Win32,29.98141152,613ce0908bb5dbe6bcb5944a,64aea9d0f615b6559c281482,64becb866d75df8cfff76850,up,1,0.3,0.4357,5,0,0.4504,,,,,,358,0,358,0,1,,,,,
,,808369,001,2023-07-24_14h06.17.600,arm3_eps,2022.2.5,Win32,29.98141152,613ce0908bb5dbe6bcb5944a,64aea9d0f615b6559c281482,64becb866d75df8cfff76850,right,1,0.3,0.4357,5,0.028598371,0.596199999,,,,,,359,0,359,0,1,,,,,
,,808369,001,2023-07-24_14h06.17.600,arm3_eps,2022.2.5,Win32,29.98141152,613ce0908bb5dbe6bcb5944a,64aea9d0f615b6559c281482,64becb866d75df8cfff76850,right,1,0.3,0.4357,5,0.035599402,0.159700001,,,,,,360,0,360,0,1,,,,,
,,808369,001,2023-07-24_14h06.17.600,arm3_eps,2022.2.5,Win32,29.98141152,613ce0908bb5dbe6bcb5944a,64aea9d0f615b6559c281482,64becb866d75df8cfff76850,right,1,0.3,0.4357,5,0.036937196,0.150099998,,,,,,361,0,361,0,1,,,,,
,,808369,001,2023-07-24_14h06.17.600,arm3_eps,2022.2.5,Win32,29.98141152,613ce0908bb5dbe6bcb5944a,64aea9d0f615b6559c281482,64becb866d75df8cfff76850,right,1,0.3,0.4357,5,0.050535814,0.1685,,,,,,362,0,362,0,1,,,,,
,,808369,001,2023-07-24_14h06.17.600,arm3_eps,2022.2.5,Win32,29.98141152,613ce0908bb5dbe6bcb5944a,64aea9d0f615b6559c281482,64becb866d75df8cfff76850,right,1,0.3,0.4357,5,0.094869693,0.148700001,,,,,,363,0,363,0,1,,,,,
,,808369,001,2023-07-24_14h06.17.600,arm3_eps,2022.2.5,Win32,29.98141152,613ce0908bb5dbe6bcb5944a,64aea9d0f615b6559c281482,64becb866d75df8cfff76850,right,1,0.3,0.4357,5,0.112264298,0.1501,,,,,,364,0,364,0,1,,,,,
,,808369,001,2023-07-24_14h06.17.600,arm3_eps,2022.2.5,Win32,29.98141152,613ce0908bb5dbe6bcb5944a,64aea9d0f615b6559c281482,64becb866d75df8cfff76850,right,1,0.3,0.4357,5,0.136550592,0.1599,,,,,,365,0,365,0,1,,,,,
,,808369,001,2023-07-24_14h06.17.600,arm3_eps,2022.2.5,Win32,29.98141152,613ce0908bb5dbe6bcb5944a,64aea9d0f615b6559c281482,64becb866d75df8cfff76850,right,1,0.3,0.4357,5,0.145315521,0.196199999,,,,,,366,0,366,0,1,,,,,
,,808369,001,2023-07-24_14h06.17.600,arm3_eps,2022.2.5,Win32,29.98141152,613ce0908bb5dbe6bcb5944a,64aea9d0f615b6559c281482,64becb866d75df8cfff76850,right,1,0.3,0.4357,5,0.141919658,0.204700001,,,,,,367,0,367,0,1,,,,,
,,808369,001,2023-07-24_14h06.17.600,arm3_eps,2022.2.5,Win32,29.98141152,613ce0908bb5dbe6bcb5944a,64aea9d0f615b6559c281482,64becb866d75df8cfff76850,right,1,0.3,0.4357,5,0.137913705,0.2006,,,,,,368,0,368,0,1,,,,,
,,808369,001,2023-07-24_14h06.17.600,arm3_eps,2022.2.5,Win32,29.98141152,613ce0908bb5dbe6bcb5944a,64aea9d0f615b6559c281482,64becb866d75df8cfff76850,right,1,0.3,0.4357,5,0.1193189,0.2291,,,,,,369,0,369,0,1,,,,,
,,808369,001,2023-07-24_14h06.17.600,arm3_eps,2022.2.5,Win32,29.98141152,613ce0908bb5dbe6bcb5944a,64aea9d0f615b6559c281482,64becb866d75df8cfff76850,,,,,,,,,,,,,,,,,,0,0,0,0,1
space,1.6836,808369,001,2023-07-24_14h06.17.600,arm3_eps,2022.2.5,Win32,29.98141152,613ce0908bb5dbe6bcb5944a,64aea9d0f615b6559c281482,64becb866d75df8cfff76850,up,1,0.3,0.05,5,0,1.443099998,,,,,,0,0,0,0,1,,,,,
,,808369,001,2023-07-24_14h06.17.600,arm3_eps,2022.2.5,Win32,29.98141152,613ce0908bb5dbe6bcb5944a,64aea9d0f615b6559c281482,64becb866d75df8cfff76850,up,1,0.3,0.05,6,0,0.2509,,,,,,1,0,1,0,1,,,,,
,,808369,001,2023-07-24_14h06.17.600,arm3_eps,2022.2.5,Win32,29.98141152,613ce0908bb5dbe6bcb5944a,64aea9d0f615b6559c281482,64becb866d75df8cfff76850,right,1,0.3,0.05,6,0.009419564,2.0265,,,,,,2,0,2,0,1,,,,,
,,808369,001,2023-07-24_14h06.17.600,arm3_eps,2022.2.5,Win32,29.98141152,613ce0908bb5dbe6bcb5944a,64aea9d0f615b6559c281482,64becb866d75df8cfff76850,right,1,0.3,0.05,6,0.026414155,0.407299999,,,,,,3,0,3,0,1,,,,,
,,808369,001,2023-07-24_14h06.17.600,arm3_eps,2022.2.5,Win32,29.98141152,613ce0908bb5dbe6bcb5944a,64aea9d0f615b6559c281482,64becb866d75df8cfff76850,right,1,0.3,0.05,6,0.027727123,0.150200001,,,,,,4,0,4,0,1,,,,,
,,808369,001,2023-07-24_14h06.17.600,arm3_eps,2022.2.5,Win32,29.98141152,613ce0908bb5dbe6bcb5944a,64aea9d0f615b6559c281482,64becb866d75df8cfff76850,right,1,0.3,0.05,6,0.061274266,0.161799999,,,,,,5,0,5,0,1,,,,,
,,808369,001,2023-07-24_14h06.17.600,arm3_eps,2022.2.5,Win32,29.98141152,613ce0908bb5dbe6bcb5944a,64aea9d0f615b6559c281482,64becb866d75df8cfff76850,right,1,0.3,0.05,6,0.068225858,0.1801,,,,,,6,0,6,0,1,,,,,
,,808369,001,2023-07-24_14h06.17.600,arm3_eps,2022.2.5,Win32,29.98141152,613ce0908bb5dbe6bcb5944a,64aea9d0f615b6559c281482,64becb866d75df8cfff76850,right,1,0.3,0.05,6,0.070442708,0.1629,,,,,,7,0,7,0,1,,,,,
,,808369,001,2023-07-24_14h06.17.600,arm3_eps,2022.2.5,Win32,29.98141152,613ce0908bb5dbe6bcb5944a,64aea9d0f615b6559c281482,64becb866d75df8cfff76850,right,1,0.3,0.05,6,0.122124659,0.162,,,,,,8,0,8,0,1,,,,,
,,808369,001,2023-07-24_14h06.17.600,arm3_eps,2022.2.5,Win32,29.98141152,613ce0908bb5dbe6bcb5944a,64aea9d0f615b6559c281482,64becb866d75df8cfff76850,right,1,0.3,0.05,6,0.120207092,0.1424,,,,,,9,0,9,0,1,,,,,
,,808369,001,2023-07-24_14h06.17.600,arm3_eps,2022.2.5,Win32,29.98141152,613ce0908bb5dbe6bcb5944a,64aea9d0f615b6559c281482,64becb866d75df8cfff76850,right,1,0.3,0.05,6,0.086217449,0.1734,,,,,,10,0,10,0,1,,,,,
,,808369,001,2023-07-24_14h06.17.600,arm3_eps,2022.2.5,Win32,29.98141152,613ce0908bb5dbe6bcb5944a,64aea9d0f615b6559c281482,64becb866d75df8cfff76850,right,1,0.3,0.05,6,0.089121062,0.1495,,,,,,11,0,11,0,1,,,,,
,,808369,001,2023-07-24_14h06.17.600,arm3_eps,2022.2.5,Win32,29.98141152,613ce0908bb5dbe6bcb5944a,64aea9d0f615b6559c281482,64becb866d75df8cfff76850,right,1,0.3,0.05,6,0.092590482,0.1539,,,,,,12,0,12,0,1,,,,,
,,808369,001,2023-07-24_14h06.17.600,arm3_eps,2022.2.5,Win32,29.98141152,613ce0908bb5dbe6bcb5944a,64aea9d0f615b6559c281482,64becb866d75df8cfff76850,right,1,0.3,0.05,6,0.138113603,0.172,,,,,,13,0,13,0,1,,,,,
,,808369,001,2023-07-24_14h06.17.600,arm3_eps,2022.2.5,Win32,29.98141152,613ce0908bb5dbe6bcb5944a,64aea9d0f615b6559c281482,64becb866d75df8cfff76850,up,1,0.3,0.05,6,0,0.606900002,,,,,,14,0,14,0,1,,,,,
,,808369,001,2023-07-24_14h06.17.600,arm3_eps,2022.2.5,Win32,29.98141152,613ce0908bb5dbe6bcb5944a,64aea9d0f615b6559c281482,64becb866d75df8cfff76850,right,1,0.3,0.05,6,-0.020352645,0.6861,,,,,,15,0,15,0,1,,,,,
,,808369,001,2023-07-24_14h06.17.600,arm3_eps,2022.2.5,Win32,29.98141152,613ce0908bb5dbe6bcb5944a,64aea9d0f615b6559c281482,64becb866d75df8cfff76850,right,1,0.3,0.05,6,-0.023691054,0.127800001,,,,,,16,0,16,0,1,,,,,
,,808369,001,2023-07-24_14h06.17.600,arm3_eps,2022.2.5,Win32,29.98141152,613ce0908bb5dbe6bcb5944a,64aea9d0f615b6559c281482,64becb866d75df8cfff76850,right,1,0.3,0.05,6,-0.019868679,0.1736,,,,,,17,0,17,0,1,,,,,
,,808369,001,2023-07-24_14h06.17.600,arm3_eps,2022.2.5,Win32,29.98141152,613ce0908bb5dbe6bcb5944a,64aea9d0f615b6559c281482,64becb866d75df8cfff76850,right,1,0.3,0.05,6,-0.052671651,0.1465,,,,,,18,0,18,0,1,,,,,
,,808369,001,2023-07-24_14h06.17.600,arm3_eps,2022.2.5,Win32,29.98141152,613ce0908bb5dbe6bcb5944a,64aea9d0f615b6559c281482,64becb866d75df8cfff76850,right,1,0.3,0.05,6,-0.019186782,0.786200001,,,,,,19,0,19,0,1,,,,,
,,808369,001,2023-07-24_14h06.17.600,arm3_eps,2022.2.5,Win32,29.98141152,613ce0908bb5dbe6bcb5944a,64aea9d0f615b6559c281482,64becb866d75df8cfff76850,right,1,0.3,0.05,6,0.004242577,0.1681,,,,,,20,0,20,0,1,,,,,
,,808369,001,2023-07-24_14h06.17.600,arm3_eps,2022.2.5,Win32,29.98141152,613ce0908bb5dbe6bcb5944a,64aea9d0f615b6559c281482,64becb866d75df8cfff76850,right,1,0.3,0.05,6,0.025625948,0.143,,,,,,21,0,21,0,1,,,,,
,,808369,001,2023-07-24_14h06.17.600,arm3_eps,2022.2.5,Win32,29.98141152,613ce0908bb5dbe6bcb5944a,64aea9d0f615b6559c281482,64becb866d75df8cfff76850,right,1,0.3,0.05,6,0.028705574,0.1619,,,,,,22,0,22,0,1,,,,,
,,808369,001,2023-07-24_14h06.17.600,arm3_eps,2022.2.5,Win32,29.98141152,613ce0908bb5dbe6bcb5944a,64aea9d0f615b6559c281482,64becb866d75df8cfff76850,right,1,0.3,0.05,6,0.031582506,0.178900002,,,,,,23,0,23,0,1,,,,,
,,808369,001,2023-07-24_14h06.17.600,arm3_eps,2022.2.5,Win32,29.98141152,613ce0908bb5dbe6bcb5944a,64aea9d0f615b6559c281482,64becb866d75df8cfff76850,right,1,0.3,0.05,6,0.032290765,0.182800001,,,,,,24,0,24,0,1,,,,,
,,808369,001,2023-07-24_14h06.17.600,arm3_eps,2022.2.5,Win32,29.98141152,613ce0908bb5dbe6bcb5944a,64aea9d0f615b6559c281482,64becb866d75df8cfff76850,right,1,0.3,0.05,6,0.06733695,0.1615,,,,,,25,0,25,0,1,,,,,
,,808369,001,2023-07-24_14h06.17.600,arm3_eps,2022.2.5,Win32,29.98141152,613ce0908bb5dbe6bcb5944a,64aea9d0f615b6559c281482,64becb866d75df8cfff76850,right,1,0.3,0.05,6,0.030751278,0.1874,,,,,,26,0,26,0,1,,,,,
,,808369,001,2023-07-24_14h06.17.600,arm3_eps,2022.2.5,Win32,29.98141152,613ce0908bb5dbe6bcb5944a,64aea9d0f615b6559c281482,64becb866d75df8cfff76850,up,1,0.3,0.05,7,0,0.726,,,,,,27,0,27,0,1,,,,,
,,808369,001,2023-07-24_14h06.17.600,arm3_eps,2022.2.5,Win32,29.98141152,613ce0908bb5dbe6bcb5944a,64aea9d0f615b6559c281482,64becb866d75df8cfff76850,right,1,0.3,0.05,7,0.00616837,0.382,,,,,,28,0,28,0,1,,,,,
,,808369,001,2023-07-24_14h06.17.600,arm3_eps,2022.2.5,Win32,29.98141152,613ce0908bb5dbe6bcb5944a,64aea9d0f615b6559c281482,64becb866d75df8cfff76850,right,1,0.3,0.05,7,0.013280601,0.1844,,,,,,29,0,29,0,1,,,,,
,,808369,001,2023-07-24_14h06.17.600,arm3_eps,2022.2.5,Win32,29.98141152,613ce0908bb5dbe6bcb5944a,64aea9d0f615b6559c281482,64becb866d75df8cfff76850,right,1,0.3,0.05,7,0.035683801,0.1776,,,,,,30,0,30,0,1,,,,,
,,808369,001,2023-07-24_14h06.17.600,arm3_eps,2022.2.5,Win32,29.98141152,613ce0908bb5dbe6bcb5944a,64aea9d0f615b6559c281482,64becb866d75df8cfff76850,right,1,0.3,0.05,7,0.065727914,0.166,,,,,,31,0,31,0,1,,,,,
,,808369,001,2023-07-24_14h06.17.600,arm3_eps,2022.2.5,Win32,29.98141152,613ce0908bb5dbe6bcb5944a,64aea9d0f615b6559c281482,64becb866d75df8cfff76850,right,1,0.3,0.05,7,0.07621693,0.144900002,,,,,,32,0,32,0,1,,,,,
,,808369,001,2023-07-24_14h06.17.600,arm3_eps,2022.2.5,Win32,29.98141152,613ce0908bb5dbe6bcb5944a,64aea9d0f615b6559c281482,64becb866d75df8cfff76850,right,1,0.3,0.05,7,0.076604121,0.1805,,,,,,33,0,33,0,1,,,,,
,,808369,001,2023-07-24_14h06.17.600,arm3_eps,2022.2.5,Win32,29.98141152,613ce0908bb5dbe6bcb5944a,64aea9d0f615b6559c281482,64becb866d75df8cfff76850,right,1,0.3,0.05,7,0.075723575,0.1801,,,,,,34,0,34,0,1,,,,,
,,808369,001,2023-07-24_14h06.17.600,arm3_eps,2022.2.5,Win32,29.98141152,613ce0908bb5dbe6bcb5944a,64aea9d0f615b6559c281482,64becb866d75df8cfff76850,right,1,0.3,0.05,7,0.052045743,0.177299999,,,,,,35,0,35,0,1,,,,,
,,808369,001,2023-07-24_14h06.17.600,arm3_eps,2022.2.5,Win32,29.98141152,613ce0908bb5dbe6bcb5944a,64aea9d0f615b6559c281482,64becb866d75df8cfff76850,right,1,0.3,0.05,7,0.058867044,0.149199999,,,,,,36,0,36,0,1,,,,,
