space_bar.keys,space_bar.rt,participant,session,date,expName,psychopyVersion,OS,frameRate,PROLIFIC_PID,STUDY_ID,SESSION_ID,resp.keys,state,q_prob,eps_prob,score,price,resp.rt,train.thisRepN,train.thisTrialN,train.thisN,train.thisIndex,train.ran,steps.thisRepN,steps.thisTrialN,steps.thisN,steps.thisIndex,steps.ran,blocks.thisRepN,blocks.thisTrialN,blocks.thisN,blocks.thisIndex,blocks.ran
space,11.2426,842616,001,2023-07-24_14h31.30.091,arm3_eps,2022.2.5,Win32,59.89099838,6169e8a8311d269013eb73c7,64aea9d0f615b6559c281482,64bedf7dca7553137f9b5ef6,,,,,,,,,,,,,,,,,,,,,,
space,17.2415,842616,001,2023-07-24_14h31.30.091,arm3_eps,2022.2.5,Win32,59.89099838,6169e8a8311d269013eb73c7,64aea9d0f615b6559c281482,64bedf7dca7553137f9b5ef6,,,,,,,,,,,,,,,,,,,,,,
space,11.1613,842616,001,2023-07-24_14h31.30.091,arm3_eps,2022.2.5,Win32,59.89099838,6169e8a8311d269013eb73c7,64aea9d0f615b6559c281482,64bedf7dca7553137f9b5ef6,,,,,,,,,,,,,,,,,,,,,,
space,29.1437,842616,001,2023-07-24_14h31.30.091,arm3_eps,2022.2.5,Win32,59.89099838,6169e8a8311d269013eb73c7,64aea9d0f615b6559c281482,64bedf7dca7553137f9b5ef6,,,,,,,,,,,,,,,,,,,,,,
space,12.7872,842616,001,2023-07-24_14h31.30.091,arm3_eps,2022.2.5,Win32,59.89099838,6169e8a8311d269013eb73c7,64aea9d0f615b6559c281482,64bedf7dca7553137f9b5ef6,,,,,,,,,,,,,,,,,,,,,,
space,12.6743,842616,001,2023-07-24_14h31.30.091,arm3_eps,2022.2.5,Win32,59.89099838,6169e8a8311d269013eb73c7,64aea9d0f615b6559c281482,64bedf7dca7553137f9b5ef6,,,,,,,,,,,,,,,,,,,,,,
space,4.5445,842616,001,2023-07-24_14h31.30.091,arm3_eps,2022.2.5,Win32,59.89099838,6169e8a8311d269013eb73c7,64aea9d0f615b6559c281482,64bedf7dca7553137f9b5ef6,,,,,,,,,,,,,,,,,,,,,,
space,7.7927,842616,001,2023-07-24_14h31.30.091,arm3_eps,2022.2.5,Win32,59.89099838,6169e8a8311d269013eb73c7,64aea9d0f615b6559c281482,64bedf7dca7553137f9b5ef6,,,,,,,,,,,,,,,,,,,,,,
space,4.6617,842616,001,2023-07-24_14h31.30.091,arm3_eps,2022.2.5,Win32,59.89099838,6169e8a8311d269013eb73c7,64aea9d0f615b6559c281482,64bedf7dca7553137f9b5ef6,,,,,,,,,,,,,,,,,,,,,,
space,8.8065,842616,001,2023-07-24_14h31.30.091,arm3_eps,2022.2.5,Win32,59.89099838,6169e8a8311d269013eb73c7,64aea9d0f615b6559c281482,64bedf7dca7553137f9b5ef6,,,,,,,,,,,,,,,,,,,,,,
,,842616,001,2023-07-24_14h31.30.091,arm3_eps,2022.2.5,Win32,59.89099838,6169e8a8311d269013eb73c7,64aea9d0f615b6559c281482,64bedf7dca7553137f9b5ef6,up,1,0.3,0.2429,0,0,1.5877,0,0,0,0,1,,,,,,,,,,
,,842616,001,2023-07-24_14h31.30.091,arm3_eps,2022.2.5,Win32,59.89099838,6169e8a8311d269013eb73c7,64aea9d0f615b6559c281482,64bedf7dca7553137f9b5ef6,down,-1,0.3,0.2429,-1,0,1.1271,1,0,1,0,1,,,,,,,,,,
,,842616,001,2023-07-24_14h31.30.091,arm3_eps,2022.2.5,Win32,59.89099838,6169e8a8311d269013eb73c7,64aea9d0f615b6559c281482,64bedf7dca7553137f9b5ef6,right,-1,0.3,0.2429,-1,-0.011026613,1.241,2,0,2,0,1,,,,,,,,,,
,,842616,001,2023-07-24_14h31.30.091,arm3_eps,2022.2.5,Win32,59.89099838,6169e8a8311d269013eb73c7,64aea9d0f615b6559c281482,64bedf7dca7553137f9b5ef6,right,-1,0.3,0.2429,-1,-0.012038739,1.4584,3,0,3,0,1,,,,,,,,,,
,,842616,001,2023-07-24_14h31.30.091,arm3_eps,2022.2.5,Win32,59.89099838,6169e8a8311d269013eb73c7,64aea9d0f615b6559c281482,64bedf7dca7553137f9b5ef6,right,-1,0.3,0.2429,-1,0.014289628,0.6583,4,0,4,0,1,,,,,,,,,,
,,842616,001,2023-07-24_14h31.30.091,arm3_eps,2022.2.5,Win32,59.89099838,6169e8a8311d269013eb73c7,64aea9d0f615b6559c281482,64bedf7dca7553137f9b5ef6,down,-1,0.3,0.2429,-1,0,1.677,5,0,5,0,1,,,,,,,,,,
,,842616,001,2023-07-24_14h31.30.091,arm3_eps,2022.2.5,Win32,59.89099838,6169e8a8311d269013eb73c7,64aea9d0f615b6559c281482,64bedf7dca7553137f9b5ef6,down,-1,0.3,0.2429,-1,0,1.1311,6,0,6,0,1,,,,,,,,,,
,,842616,001,2023-07-24_14h31.30.091,arm3_eps,2022.2.5,Win32,59.89099838,6169e8a8311d269013eb73c7,64aea9d0f615b6559c281482,64bedf7dca7553137f9b5ef6,up,1,0.3,0.2429,-1,0,0.9879,7,0,7,0,1,,,,,,,,,,
,,842616,001,2023-07-24_14h31.30.091,arm3_eps,2022.2.5,Win32,59.89099838,6169e8a8311d269013eb73c7,64aea9d0f615b6559c281482,64bedf7dca7553137f9b5ef6,right,1,0.3,0.2429,-1,0.031587605,0.9581,8,0,8,0,1,,,,,,,,,,
,,842616,001,2023-07-24_14h31.30.091,arm3_eps,2022.2.5,Win32,59.89099838,6169e8a8311d269013eb73c7,64aea9d0f615b6559c281482,64bedf7dca7553137f9b5ef6,right,1,0.3,0.2429,-1,0.042123174,1.1379,9,0,9,0,1,,,,,,,,,,
,,842616,001,2023-07-24_14h31.30.091,arm3_eps,2022.2.5,Win32,59.89099838,6169e8a8311d269013eb73c7,64aea9d0f615b6559c281482,64bedf7dca7553137f9b5ef6,right,1,0.3,0.2429,-1,0.057376891,0.311,10,0,10,0,1,,,,,,,,,,
,,842616,001,2023-07-24_14h31.30.091,arm3_eps,2022.2.5,Win32,59.89099838,6169e8a8311d269013eb73c7,64aea9d0f615b6559c281482,64bedf7dca7553137f9b5ef6,right,1,0.3,0.2429,-1,0.04858227,0.2085,11,0,11,0,1,,,,,,,,,,
,,842616,001,2023-07-24_14h31.30.091,arm3_eps,2022.2.5,Win32,59.89099838,6169e8a8311d269013eb73c7,64aea9d0f615b6559c281482,64bedf7dca7553137f9b5ef6,right,1,0.3,0.2429,-1,0.06611887,0.1577,12,0,12,0,1,,,,,,,,,,
,,842616,001,2023-07-24_14h31.30.091,arm3_eps,2022.2.5,Win32,59.89099838,6169e8a8311d269013eb73c7,64aea9d0f615b6559c281482,64bedf7dca7553137f9b5ef6,right,1,0.3,0.2429,-1,0.071322884,0.1617,13,0,13,0,1,,,,,,,,,,
,,842616,001,2023-07-24_14h31.30.091,arm3_eps,2022.2.5,Win32,59.89099838,6169e8a8311d269013eb73c7,64aea9d0f615b6559c281482,64bedf7dca7553137f9b5ef6,right,1,0.3,0.2429,-1,0.092376165,0.5274,14,0,14,0,1,,,,,,,,,,
,,842616,001,2023-07-24_14h31.30.091,arm3_eps,2022.2.5,Win32,59.89099838,6169e8a8311d269013eb73c7,64aea9d0f615b6559c281482,64bedf7dca7553137f9b5ef6,right,1,0.3,0.2429,-1,0.098701036,0.2066,15,0,15,0,1,,,,,,,,,,
,,842616,001,2023-07-24_14h31.30.091,arm3_eps,2022.2.5,Win32,59.89099838,6169e8a8311d269013eb73c7,64aea9d0f615b6559c281482,64bedf7dca7553137f9b5ef6,right,1,0.3,0.2429,-1,0.116894813,0.1505,16,0,16,0,1,,,,,,,,,,
,,842616,001,2023-07-24_14h31.30.091,arm3_eps,2022.2.5,Win32,59.89099838,6169e8a8311d269013eb73c7,64aea9d0f615b6559c281482,64bedf7dca7553137f9b5ef6,right,1,0.3,0.2429,-1,0.124393136,0.1819,17,0,17,0,1,,,,,,,,,,
,,842616,001,2023-07-24_14h31.30.091,arm3_eps,2022.2.5,Win32,59.89099838,6169e8a8311d269013eb73c7,64aea9d0f615b6559c281482,64bedf7dca7553137f9b5ef6,right,1,0.3,0.2429,-1,0.121571085,0.1802,18,0,18,0,1,,,,,,,,,,
,,842616,001,2023-07-24_14h31.30.091,arm3_eps,2022.2.5,Win32,59.89099838,6169e8a8311d269013eb73c7,64aea9d0f615b6559c281482,64bedf7dca7553137f9b5ef6,right,1,0.3,0.2429,-1,0.117166238,0.4982,19,0,19,0,1,,,,,,,,,,
,,842616,001,2023-07-24_14h31.30.091,arm3_eps,2022.2.5,Win32,59.89099838,6169e8a8311d269013eb73c7,64aea9d0f615b6559c281482,64bedf7dca7553137f9b5ef6,up,-1,0.3,0.2429,-1,0,0.3283,20,0,20,0,1,,,,,,,,,,
,,842616,001,2023-07-24_14h31.30.091,arm3_eps,2022.2.5,Win32,59.89099838,6169e8a8311d269013eb73c7,64aea9d0f615b6559c281482,64bedf7dca7553137f9b5ef6,right,-1,0.3,0.2429,-1,0.007973284,0.9448,21,0,21,0,1,,,,,,,,,,
,,842616,001,2023-07-24_14h31.30.091,arm3_eps,2022.2.5,Win32,59.89099838,6169e8a8311d269013eb73c7,64aea9d0f615b6559c281482,64bedf7dca7553137f9b5ef6,right,-1,0.3,0.2429,-1,0.033667048,0.1668,22,0,22,0,1,,,,,,,,,,
,,842616,001,2023-07-24_14h31.30.091,arm3_eps,2022.2.5,Win32,59.89099838,6169e8a8311d269013eb73c7,64aea9d0f615b6559c281482,64bedf7dca7553137f9b5ef6,right,-1,0.3,0.2429,-1,0.047516214,0.1828,23,0,23,0,1,,,,,,,,,,
,,842616,001,2023-07-24_14h31.30.091,arm3_eps,2022.2.5,Win32,59.89099838,6169e8a8311d269013eb73c7,64aea9d0f615b6559c281482,64bedf7dca7553137f9b5ef6,right,-1,0.3,0.2429,-1,0.049063875,0.1649,24,0,24,0,1,,,,,,,,,,
,,842616,001,2023-07-24_14h31.30.091,arm3_eps,2022.2.5,Win32,59.89099838,6169e8a8311d269013eb73c7,64aea9d0f615b6559c281482,64bedf7dca7553137f9b5ef6,right,-1,0.3,0.2429,-1,0.035700951,0.1661,25,0,25,0,1,,,,,,,,,,
,,842616,001,2023-07-24_14h31.30.091,arm3_eps,2022.2.5,Win32,59.89099838,6169e8a8311d269013eb73c7,64aea9d0f615b6559c281482,64bedf7dca7553137f9b5ef6,up,-1,0.3,0.2429,-1,0,0.5995,26,0,26,0,1,,,,,,,,,,
,,842616,001,2023-07-24_14h31.30.091,arm3_eps,2022.2.5,Win32,59.89099838,6169e8a8311d269013eb73c7,64aea9d0f615b6559c281482,64bedf7dca7553137f9b5ef6,up,-1,0.3,0.2429,-1,0,0.8691,27,0,27,0,1,,,,,,,,,,
,,842616,001,2023-07-24_14h31.30.091,arm3_eps,2022.2.5,Win32,59.89099838,6169e8a8311d269013eb73c7,64aea9d0f615b6559c281482,64bedf7dca7553137f9b5ef6,up,-1,0.3,0.2429,-1,0,0.6319,28,0,28,0,1,,,,,,,,,,
,,842616,001,2023-07-24_14h31.30.091,arm3_eps,2022.2.5,Win32,59.89099838,6169e8a8311d269013eb73c7,64aea9d0f615b6559c281482,64bedf7dca7553137f9b5ef6,down,1,0.3,0.2429,-1,0,0.6817,29,0,29,0,1,,,,,,,,,,
,,842616,001,2023-07-24_14h31.30.091,arm3_eps,2022.2.5,Win32,59.89099838,6169e8a8311d269013eb73c7,64aea9d0f615b6559c281482,64bedf7dca7553137f9b5ef6,down,1,0.3,0.2429,-2,0,0.6518,30,0,30,0,1,,,,,,,,,,
,,842616,001,2023-07-24_14h31.30.091,arm3_eps,2022.2.5,Win32,59.89099838,6169e8a8311d269013eb73c7,64aea9d0f615b6559c281482,64bedf7dca7553137f9b5ef6,up,-1,0.3,0.2429,-2,0,0.8453,31,0,31,0,1,,,,,,,,,,
,,842616,001,2023-07-24_14h31.30.091,arm3_eps,2022.2.5,Win32,59.89099838,6169e8a8311d269013eb73c7,64aea9d0f615b6559c281482,64bedf7dca7553137f9b5ef6,up,1,0.3,0.2429,-3,0,0.8155,32,0,32,0,1,,,,,,,,,,
,,842616,001,2023-07-24_14h31.30.091,arm3_eps,2022.2.5,Win32,59.89099838,6169e8a8311d269013eb73c7,64aea9d0f615b6559c281482,64bedf7dca7553137f9b5ef6,right,1,0.3,0.2429,-3,0.001386426,0.766,33,0,33,0,1,,,,,,,,,,
,,842616,001,2023-07-24_14h31.30.091,arm3_eps,2022.2.5,Win32,59.89099838,6169e8a8311d269013eb73c7,64aea9d0f615b6559c281482,64bedf7dca7553137f9b5ef6,right,1,0.3,0.2429,-3,0.044354681,0.5259,34,0,34,0,1,,,,,,,,,,
,,842616,001,2023-07-24_14h31.30.091,arm3_eps,2022.2.5,Win32,59.89099838,6169e8a8311d269013eb73c7,64aea9d0f615b6559c281482,64bedf7dca7553137f9b5ef6,right,1,0.3,0.2429,-3,0.057334627,0.2087,35,0,35,0,1,,,,,,,,,,
,,842616,001,2023-07-24_14h31.30.091,arm3_eps,2022.2.5,Win32,59.89099838,6169e8a8311d269013eb73c7,64aea9d0f615b6559c281482,64bedf7dca7553137f9b5ef6,right,1,0.3,0.2429,-3,0.078805151,0.1502,36,0,36,0,1,,,,,,,,,,
,,842616,001,2023-07-24_14h31.30.091,arm3_eps,2022.2.5,Win32,59.89099838,6169e8a8311d269013eb73c7,64aea9d0f615b6559c281482,64bedf7dca7553137f9b5ef6,right,1,0.3,0.2429,-3,0.064647402,0.1789,37,0,37,0,1,,,,,,,,,,
,,842616,001,2023-07-24_14h31.30.091,arm3_eps,2022.2.5,Win32,59.89099838,6169e8a8311d269013eb73c7,64aea9d0f615b6559c281482,64bedf7dca7553137f9b5ef6,right,1,0.3,0.2429,-3,0.071547449,0.1656,38,0,38,0,1,,,,,,,,,,
,,842616,001,2023-07-24_14h31.30.091,arm3_eps,2022.2.5,Win32,59.89099838,6169e8a8311d269013eb73c7,64aea9d0f615b6559c281482,64bedf7dca7553137f9b5ef6,right,1,0.3,0.2429,-3,0.055187766,0.1758,39,0,39,0,1,,,,,,,,,,
,,842616,001,2023-07-24_14h31.30.091,arm3_eps,2022.2.5,Win32,59.89099838,6169e8a8311d269013eb73c7,64aea9d0f615b6559c281482,64bedf7dca7553137f9b5ef6,right,1,0.3,0.2429,-3,0.056249059,0.1586,40,0,40,0,1,,,,,,,,,,
,,842616,001,2023-07-24_14h31.30.091,arm3_eps,2022.2.5,Win32,59.89099838,6169e8a8311d269013eb73c7,64aea9d0f615b6559c281482,64bedf7dca7553137f9b5ef6,right,1,0.3,0.2429,-3,0.064622915,0.1763,41,0,41,0,1,,,,,,,,,,
,,842616,001,2023-07-24_14h31.30.091,arm3_eps,2022.2.5,Win32,59.89099838,6169e8a8311d269013eb73c7,64aea9d0f615b6559c281482,64bedf7dca7553137f9b5ef6,right,1,0.3,0.2429,-3,0.079808674,0.1779,42,0,42,0,1,,,,,,,,,,
,,842616,001,2023-07-24_14h31.30.091,arm3_eps,2022.2.5,Win32,59.89099838,6169e8a8311d269013eb73c7,64aea9d0f615b6559c281482,64bedf7dca7553137f9b5ef6,right,1,0.3,0.2429,-3,0.080771961,0.1957,43,0,43,0,1,,,,,,,,,,
,,842616,001,2023-07-24_14h31.30.091,arm3_eps,2022.2.5,Win32,59.89099838,6169e8a8311d269013eb73c7,64aea9d0f615b6559c281482,64bedf7dca7553137f9b5ef6,right,1,0.3,0.2429,-3,0.08193231,0.2089,44,0,44,0,1,,,,,,,,,,
,,842616,001,2023-07-24_14h31.30.091,arm3_eps,2022.2.5,Win32,59.89099838,6169e8a8311d269013eb73c7,64aea9d0f615b6559c281482,64bedf7dca7553137f9b5ef6,up,-1,0.3,0.2429,-2,0,0.9421,45,0,45,0,1,,,,,,,,,,
,,842616,001,2023-07-24_14h31.30.091,arm3_eps,2022.2.5,Win32,59.89099838,6169e8a8311d269013eb73c7,64aea9d0f615b6559c281482,64bedf7dca7553137f9b5ef6,right,-1,0.3,0.2429,-2,-0.036919184,0.9949,46,0,46,0,1,,,,,,,,,,
,,842616,001,2023-07-24_14h31.30.091,arm3_eps,2022.2.5,Win32,59.89099838,6169e8a8311d269013eb73c7,64aea9d0f615b6559c281482,64bedf7dca7553137f9b5ef6,right,-1,0.3,0.2429,-2,-0.048489564,0.195,47,0,47,0,1,,,,,,,,,,
,,842616,001,2023-07-24_14h31.30.091,arm3_eps,2022.2.5,Win32,59.89099838,6169e8a8311d269013eb73c7,64aea9d0f615b6559c281482,64bedf7dca7553137f9b5ef6,right,-1,0.3,0.2429,-2,-0.079126408,0.1651,48,0,48,0,1,,,,,,,,,,
,,842616,001,2023-07-24_14h31.30.091,arm3_eps,2022.2.5,Win32,59.89099838,6169e8a8311d269013eb73c7,64aea9d0f615b6559c281482,64bedf7dca7553137f9b5ef6,right,-1,0.3,0.2429,-2,-0.065775138,0.1735,49,0,49,0,1,,,,,,,,,,
space,1.6341,842616,001,2023-07-24_14h31.30.091,arm3_eps,2022.2.5,Win32,59.89099838,6169e8a8311d269013eb73c7,64aea9d0f615b6559c281482,64bedf7dca7553137f9b5ef6,,,,,,,,,,,,,,,,,,,,,,
space,2.0077,842616,001,2023-07-24_14h31.30.091,arm3_eps,2022.2.5,Win32,59.89099838,6169e8a8311d269013eb73c7,64aea9d0f615b6559c281482,64bedf7dca7553137f9b5ef6,right,-1,0.3,0.3714,0,-0.027742658,0.8339,,,,,,0,0,0,0,1,,,,,
,,842616,001,2023-07-24_14h31.30.091,arm3_eps,2022.2.5,Win32,59.89099838,6169e8a8311d269013eb73c7,64aea9d0f615b6559c281482,64bedf7dca7553137f9b5ef6,right,-1,0.3,0.3714,0,-0.052709113,0.3271,,,,,,1,0,1,0,1,,,,,
,,842616,001,2023-07-24_14h31.30.091,arm3_eps,2022.2.5,Win32,59.89099838,6169e8a8311d269013eb73c7,64aea9d0f615b6559c281482,64bedf7dca7553137f9b5ef6,right,-1,0.3,0.3714,0,-0.068655568,0.1315,,,,,,2,0,2,0,1,,,,,
,,842616,001,2023-07-24_14h31.30.091,arm3_eps,2022.2.5,Win32,59.89099838,6169e8a8311d269013eb73c7,64aea9d0f615b6559c281482,64bedf7dca7553137f9b5ef6,right,-1,0.3,0.3714,0,-0.057657641,0.1606,,,,,,3,0,3,0,1,,,,,
,,842616,001,2023-07-24_14h31.30.091,arm3_eps,2022.2.5,Win32,59.89099838,6169e8a8311d269013eb73c7,64aea9d0f615b6559c281482,64bedf7dca7553137f9b5ef6,right,-1,0.3,0.3714,0,-0.071038337,0.141,,,,,,4,0,4,0,1,,,,,
,,842616,001,2023-07-24_14h31.30.091,arm3_eps,2022.2.5,Win32,59.89099838,6169e8a8311d269013eb73c7,64aea9d0f615b6559c281482,64bedf7dca7553137f9b5ef6,right,-1,0.3,0.3714,0,-0.083963257,0.1587,,,,,,5,0,5,0,1,,,,,
,,842616,001,2023-07-24_14h31.30.091,arm3_eps,2022.2.5,Win32,59.89099838,6169e8a8311d269013eb73c7,64aea9d0f615b6559c281482,64bedf7dca7553137f9b5ef6,right,-1,0.3,0.3714,0,-0.069559236,0.1429,,,,,,6,0,6,0,1,,,,,
,,842616,001,2023-07-24_14h31.30.091,arm3_eps,2022.2.5,Win32,59.89099838,6169e8a8311d269013eb73c7,64aea9d0f615b6559c281482,64bedf7dca7553137f9b5ef6,right,-1,0.3,0.3714,0,-0.069605413,0.1429,,,,,,7,0,7,0,1,,,,,
,,842616,001,2023-07-24_14h31.30.091,arm3_eps,2022.2.5,Win32,59.89099838,6169e8a8311d269013eb73c7,64aea9d0f615b6559c281482,64bedf7dca7553137f9b5ef6,right,-1,0.3,0.3714,0,-0.090566096,0.1624,,,,,,8,0,8,0,1,,,,,
,,842616,001,2023-07-24_14h31.30.091,arm3_eps,2022.2.5,Win32,59.89099838,6169e8a8311d269013eb73c7,64aea9d0f615b6559c281482,64bedf7dca7553137f9b5ef6,right,-1,0.3,0.3714,0,-0.111610426,0.1429,,,,,,9,0,9,0,1,,,,,
,,842616,001,2023-07-24_14h31.30.091,arm3_eps,2022.2.5,Win32,59.89099838,6169e8a8311d269013eb73c7,64aea9d0f615b6559c281482,64bedf7dca7553137f9b5ef6,right,-1,0.3,0.3714,0,-0.117229331,0.1561,,,,,,10,0,10,0,1,,,,,
,,842616,001,2023-07-24_14h31.30.091,arm3_eps,2022.2.5,Win32,59.89099838,6169e8a8311d269013eb73c7,64aea9d0f615b6559c281482,64bedf7dca7553137f9b5ef6,right,-1,0.3,0.3714,0,-0.116787097,0.1433,,,,,,11,0,11,0,1,,,,,
,,842616,001,2023-07-24_14h31.30.091,arm3_eps,2022.2.5,Win32,59.89099838,6169e8a8311d269013eb73c7,64aea9d0f615b6559c281482,64bedf7dca7553137f9b5ef6,down,-1,0.3,0.3714,0,0,0.8092,,,,,,12,0,12,0,1,,,,,
,,842616,001,2023-07-24_14h31.30.091,arm3_eps,2022.2.5,Win32,59.89099838,6169e8a8311d269013eb73c7,64aea9d0f615b6559c281482,64bedf7dca7553137f9b5ef6,right,-1,0.3,0.3714,0,0.007255251,1.1282,,,,,,13,0,13,0,1,,,,,
,,842616,001,2023-07-24_14h31.30.091,arm3_eps,2022.2.5,Win32,59.89099838,6169e8a8311d269013eb73c7,64aea9d0f615b6559c281482,64bedf7dca7553137f9b5ef6,right,-1,0.3,0.3714,0,0.004779982,0.2163,,,,,,14,0,14,0,1,,,,,
,,842616,001,2023-07-24_14h31.30.091,arm3_eps,2022.2.5,Win32,59.89099838,6169e8a8311d269013eb73c7,64aea9d0f615b6559c281482,64bedf7dca7553137f9b5ef6,right,-1,0.3,0.3714,0,0.001168862,0.1383,,,,,,15,0,15,0,1,,,,,
,,842616,001,2023-07-24_14h31.30.091,arm3_eps,2022.2.5,Win32,59.89099838,6169e8a8311d269013eb73c7,64aea9d0f615b6559c281482,64bedf7dca7553137f9b5ef6,right,-1,0.3,0.3714,0,-0.020291651,0.1302,,,,,,16,0,16,0,1,,,,,
,,842616,001,2023-07-24_14h31.30.091,arm3_eps,2022.2.5,Win32,59.89099838,6169e8a8311d269013eb73c7,64aea9d0f615b6559c281482,64bedf7dca7553137f9b5ef6,right,-1,0.3,0.3714,0,-0.046248154,0.1641,,,,,,17,0,17,0,1,,,,,
,,842616,001,2023-07-24_14h31.30.091,arm3_eps,2022.2.5,Win32,59.89099838,6169e8a8311d269013eb73c7,64aea9d0f615b6559c281482,64bedf7dca7553137f9b5ef6,right,-1,0.3,0.3714,0,-0.063008084,0.1515,,,,,,18,0,18,0,1,,,,,
,,842616,001,2023-07-24_14h31.30.091,arm3_eps,2022.2.5,Win32,59.89099838,6169e8a8311d269013eb73c7,64aea9d0f615b6559c281482,64bedf7dca7553137f9b5ef6,right,-1,0.3,0.3714,0,-0.074260102,0.1498,,,,,,19,0,19,0,1,,,,,
,,842616,001,2023-07-24_14h31.30.091,arm3_eps,2022.2.5,Win32,59.89099838,6169e8a8311d269013eb73c7,64aea9d0f615b6559c281482,64bedf7dca7553137f9b5ef6,right,-1,0.3,0.3714,0,-0.055263185,0.1657,,,,,,20,0,20,0,1,,,,,
,,842616,001,2023-07-24_14h31.30.091,arm3_eps,2022.2.5,Win32,59.89099838,6169e8a8311d269013eb73c7,64aea9d0f615b6559c281482,64bedf7dca7553137f9b5ef6,right,-1,0.3,0.3714,0,-0.072479207,0.1508,,,,,,21,0,21,0,1,,,,,
,,842616,001,2023-07-24_14h31.30.091,arm3_eps,2022.2.5,Win32,59.89099838,6169e8a8311d269013eb73c7,64aea9d0f615b6559c281482,64bedf7dca7553137f9b5ef6,right,-1,0.3,0.3714,0,-0.051455655,0.1624,,,,,,22,0,22,0,1,,,,,
,,842616,001,2023-07-24_14h31.30.091,arm3_eps,2022.2.5,Win32,59.89099838,6169e8a8311d269013eb73c7,64aea9d0f615b6559c281482,64bedf7dca7553137f9b5ef6,right,-1,0.3,0.3714,0,-0.048465375,0.1519,,,,,,23,0,23,0,1,,,,,
,,842616,001,2023-07-24_14h31.30.091,arm3_eps,2022.2.5,Win32,59.89099838,6169e8a8311d269013eb73c7,64aea9d0f615b6559c281482,64bedf7dca7553137f9b5ef6,right,-1,0.3,0.3714,0,-0.057134824,0.1818,,,,,,24,0,24,0,1,,,,,
,,842616,001,2023-07-24_14h31.30.091,arm3_eps,2022.2.5,Win32,59.89099838,6169e8a8311d269013eb73c7,64aea9d0f615b6559c281482,64bedf7dca7553137f9b5ef6,up,-1,0.3,0.3714,0,0,1.8498,,,,,,25,0,25,0,1,,,,,
,,842616,001,2023-07-24_14h31.30.091,arm3_eps,2022.2.5,Win32,59.89099838,6169e8a8311d269013eb73c7,64aea9d0f615b6559c281482,64bedf7dca7553137f9b5ef6,right,-1,0.3,0.3714,0,-0.02253296,0.9119,,,,,,26,0,26,0,1,,,,,
,,842616,001,2023-07-24_14h31.30.091,arm3_eps,2022.2.5,Win32,59.89099838,6169e8a8311d269013eb73c7,64aea9d0f615b6559c281482,64bedf7dca7553137f9b5ef6,right,-1,0.3,0.3714,0,-0.056378477,0.1715,,,,,,27,0,27,0,1,,,,,
,,842616,001,2023-07-24_14h31.30.091,arm3_eps,2022.2.5,Win32,59.89099838,6169e8a8311d269013eb73c7,64aea9d0f615b6559c281482,64bedf7dca7553137f9b5ef6,right,-1,0.3,0.3714,0,-0.061679843,0.124,,,,,,28,0,28,0,1,,,,,
,,842616,001,2023-07-24_14h31.30.091,arm3_eps,2022.2.5,Win32,59.89099838,6169e8a8311d269013eb73c7,64aea9d0f615b6559c281482,64bedf7dca7553137f9b5ef6,right,-1,0.3,0.3714,0,-0.034628672,0.1563,,,,,,29,0,29,0,1,,,,,
,,842616,001,2023-07-24_14h31.30.091,arm3_eps,2022.2.5,Win32,59.89099838,6169e8a8311d269013eb73c7,64aea9d0f615b6559c281482,64bedf7dca7553137f9b5ef6,right,-1,0.3,0.3714,0,-0.051802135,0.1513,,,,,,30,0,30,0,1,,,,,
,,842616,001,2023-07-24_14h31.30.091,arm3_eps,2022.2.5,Win32,59.89099838,6169e8a8311d269013eb73c7,64aea9d0f615b6559c281482,64bedf7dca7553137f9b5ef6,right,-1,0.3,0.3714,0,-0.060825769,0.1484,,,,,,31,0,31,0,1,,,,,
,,842616,001,2023-07-24_14h31.30.091,arm3_eps,2022.2.5,Win32,59.89099838,6169e8a8311d269013eb73c7,64aea9d0f615b6559c281482,64bedf7dca7553137f9b5ef6,right,-1,0.3,0.3714,0,-0.065198716,0.167,,,,,,32,0,32,0,1,,,,,
,,842616,001,2023-07-24_14h31.30.091,arm3_eps,2022.2.5,Win32,59.89099838,6169e8a8311d269013eb73c7,64aea9d0f615b6559c281482,64bedf7dca7553137f9b5ef6,right,-1,0.3,0.3714,0,-0.080831473,0.1404,,,,,,33,0,33,0,1,,,,,
,,842616,001,2023-07-24_14h31.30.091,arm3_eps,2022.2.5,Win32,59.89099838,6169e8a8311d269013eb73c7,64aea9d0f615b6559c281482,64bedf7dca7553137f9b5ef6,right,-1,0.3,0.3714,0,-0.092593056,0.152,,,,,,34,0,34,0,1,,,,,
,,842616,001,2023-07-24_14h31.30.091,arm3_eps,2022.2.5,Win32,59.89099838,6169e8a8311d269013eb73c7,64aea9d0f615b6559c281482,64bedf7dca7553137f9b5ef6,right,-1,0.3,0.3714,0,-0.105550734,0.1611,,,,,,35,0,35,0,1,,,,,
,,842616,001,2023-07-24_14h31.30.091,arm3_eps,2022.2.5,Win32,59.89099838,6169e8a8311d269013eb73c7,64aea9d0f615b6559c281482,64bedf7dca7553137f9b5ef6,right,-1,0.3,0.3714,0,-0.086332071,0.15,,,,,,36,0,36,0,1,,,,,
,,842616,001,2023-07-24_14h31.30.091,arm3_eps,2022.2.5,Win32,59.89099838,6169e8a8311d269013eb73c7,64aea9d0f615b6559c281482,64bedf7dca7553137f9b5ef6,right,-1,0.3,0.3714,0,-0.094793583,0.164,,,,,,37,0,37,0,1,,,,,
,,842616,001,2023-07-24_14h31.30.091,arm3_eps,2022.2.5,Win32,59.89099838,6169e8a8311d269013eb73c7,64aea9d0f615b6559c281482,64bedf7dca7553137f9b5ef6,down,-1,0.3,0.3714,0,0,0.6826,,,,,,38,0,38,0,1,,,,,
,,842616,001,2023-07-24_14h31.30.091,arm3_eps,2022.2.5,Win32,59.89099838,6169e8a8311d269013eb73c7,64aea9d0f615b6559c281482,64bedf7dca7553137f9b5ef6,right,-1,0.3,0.3714,0,0.009235901,1.5286,,,,,,39,0,39,0,1,,,,,
,,842616,001,2023-07-24_14h31.30.091,arm3_eps,2022.2.5,Win32,59.89099838,6169e8a8311d269013eb73c7,64aea9d0f615b6559c281482,64bedf7dca7553137f9b5ef6,right,-1,0.3,0.3714,0,-0.000153481,0.1494,,,,,,40,0,40,0,1,,,,,
,,842616,001,2023-07-24_14h31.30.091,arm3_eps,2022.2.5,Win32,59.89099838,6169e8a8311d269013eb73c7,64aea9d0f615b6559c281482,64bedf7dca7553137f9b5ef6,right,-1,0.3,0.3714,0,-0.009563258,0.1508,,,,,,41,0,41,0,1,,,,,
,,842616,001,2023-07-24_14h31.30.091,arm3_eps,2022.2.5,Win32,59.89099838,6169e8a8311d269013eb73c7,64aea9d0f615b6559c281482,64bedf7dca7553137f9b5ef6,right,-1,0.3,0.3714,0,-0.037500515,0.1665,,,,,,42,0,42,0,1,,,,,
,,842616,001,2023-07-24_14h31.30.091,arm3_eps,2022.2.5,Win32,59.89099838,6169e8a8311d269013eb73c7,64aea9d0f615b6559c281482,64bedf7dca7553137f9b5ef6,right,-1,0.3,0.3714,0,-0.052974181,0.1681,,,,,,43,0,43,0,1,,,,,
,,842616,001,2023-07-24_14h31.30.091,arm3_eps,2022.2.5,Win32,59.89099838,6169e8a8311d269013eb73c7,64aea9d0f615b6559c281482,64bedf7dca7553137f9b5ef6,right,-1,0.3,0.3714,0,-0.07348815,0.1508,,,,,,44,0,44,0,1,,,,,
,,842616,001,2023-07-24_14h31.30.091,arm3_eps,2022.2.5,Win32,59.89099838,6169e8a8311d269013eb73c7,64aea9d0f615b6559c281482,64bedf7dca7553137f9b5ef6,right,-1,0.3,0.3714,0,-0.083618699,0.1168,,,,,,45,0,45,0,1,,,,,
,,842616,001,2023-07-24_14h31.30.091,arm3_eps,2022.2.5,Win32,59.89099838,6169e8a8311d269013eb73c7,64aea9d0f615b6559c281482,64bedf7dca7553137f9b5ef6,right,-1,0.3,0.3714,0,-0.073229958,0.1613,,,,,,46,0,46,0,1,,,,,
,,842616,001,2023-07-24_14h31.30.091,arm3_eps,2022.2.5,Win32,59.89099838,6169e8a8311d269013eb73c7,64aea9d0f615b6559c281482,64bedf7dca7553137f9b5ef6,right,-1,0.3,0.3714,0,-0.09853709,0.1843,,,,,,47,0,47,0,1,,,,,
,,842616,001,2023-07-24_14h31.30.091,arm3_eps,2022.2.5,Win32,59.89099838,6169e8a8311d269013eb73c7,64aea9d0f615b6559c281482,64bedf7dca7553137f9b5ef6,right,-1,0.3,0.3714,0,-0.128593835,0.1327,,,,,,48,0,48,0,1,,,,,
,,842616,001,2023-07-24_14h31.30.091,arm3_eps,2022.2.5,Win32,59.89099838,6169e8a8311d269013eb73c7,64aea9d0f615b6559c281482,64bedf7dca7553137f9b5ef6,right,-1,0.3,0.3714,0,-0.134506304,0.1629,,,,,,49,0,49,0,1,,,,,
,,842616,001,2023-07-24_14h31.30.091,arm3_eps,2022.2.5,Win32,59.89099838,6169e8a8311d269013eb73c7,64aea9d0f615b6559c281482,64bedf7dca7553137f9b5ef6,right,-1,0.3,0.3714,0,-0.158202814,0.1673,,,,,,50,0,50,0,1,,,,,
,,842616,001,2023-07-24_14h31.30.091,arm3_eps,2022.2.5,Win32,59.89099838,6169e8a8311d269013eb73c7,64aea9d0f615b6559c281482,64bedf7dca7553137f9b5ef6,up,1,0.3,0.3714,0,0,0.7788,,,,,,51,0,51,0,1,,,,,
,,842616,001,2023-07-24_14h31.30.091,arm3_eps,2022.2.5,Win32,59.89099838,6169e8a8311d269013eb73c7,64aea9d0f615b6559c281482,64bedf7dca7553137f9b5ef6,right,1,0.3,0.3714,0,0.036394395,0.7697,,,,,,52,0,52,0,1,,,,,
,,842616,001,2023-07-24_14h31.30.091,arm3_eps,2022.2.5,Win32,59.89099838,6169e8a8311d269013eb73c7,64aea9d0f615b6559c281482,64bedf7dca7553137f9b5ef6,right,1,0.3,0.3714,0,0.05000229,0.12,,,,,,53,0,53,0,1,,,,,
,,842616,001,2023-07-24_14h31.30.091,arm3_eps,2022.2.5,Win32,59.89099838,6169e8a8311d269013eb73c7,64aea9d0f615b6559c281482,64bedf7dca7553137f9b5ef6,right,1,0.3,0.3714,0,0.06186371,0.1847,,,,,,54,0,54,0,1,,,,,
,,842616,001,2023-07-24_14h31.30.091,arm3_eps,2022.2.5,Win32,59.89099838,6169e8a8311d269013eb73c7,64aea9d0f615b6559c281482,64bedf7dca7553137f9b5ef6,right,1,0.3,0.3714,0,0.089798701,0.1482,,,,,,55,0,55,0,1,,,,,
,,842616,001,2023-07-24_14h31.30.091,arm3_eps,2022.2.5,Win32,59.89099838,6169e8a8311d269013eb73c7,64aea9d0f615b6559c281482,64bedf7dca7553137f9b5ef6,right,1,0.3,0.3714,0,0.127551716,0.1301,,,,,,56,0,56,0,1,,,,,
,,842616,001,2023-07-24_14h31.30.091,arm3_eps,2022.2.5,Win32,59.89099838,6169e8a8311d269013eb73c7,64aea9d0f615b6559c281482,64bedf7dca7553137f9b5ef6,right,1,0.3,0.3714,0,0.142299966,0.1669,,,,,,57,0,57,0,1,,,,,
,,842616,001,2023-07-24_14h31.30.091,arm3_eps,2022.2.5,Win32,59.89099838,6169e8a8311d269013eb73c7,64aea9d0f615b6559c281482,64bedf7dca7553137f9b5ef6,right,1,0.3,0.3714,0,0.17660225,0.1515,,,,,,58,0,58,0,1,,,,,
,,842616,001,2023-07-24_14h31.30.091,arm3_eps,2022.2.5,Win32,59.89099838,6169e8a8311d269013eb73c7,64aea9d0f615b6559c281482,64bedf7dca7553137f9b5ef6,right,1,0.3,0.3714,0,0.194446139,0.1513,,,,,,59,0,59,0,1,,,,,
,,842616,001,2023-07-24_14h31.30.091,arm3_eps,2022.2.5,Win32,59.89099838,6169e8a8311d269013eb73c7,64aea9d0f615b6559c281482,64bedf7dca7553137f9b5ef6,right,1,0.3,0.3714,0,0.186245904,0.1657,,,,,,60,0,60,0,1,,,,,
,,842616,001,2023-07-24_14h31.30.091,arm3_eps,2022.2.5,Win32,59.89099838,6169e8a8311d269013eb73c7,64aea9d0f615b6559c281482,64bedf7dca7553137f9b5ef6,right,1,0.3,0.3714,0,0.227064982,0.149,,,,,,61,0,61,0,1,,,,,
,,842616,001,2023-07-24_14h31.30.091,arm3_eps,2022.2.5,Win32,59.89099838,6169e8a8311d269013eb73c7,64aea9d0f615b6559c281482,64bedf7dca7553137f9b5ef6,right,1,0.3,0.3714,0,0.229247039,0.1637,,,,,,62,0,62,0,1,,,,,
,,842616,001,2023-07-24_14h31.30.091,arm3_eps,2022.2.5,Win32,59.89099838,6169e8a8311d269013eb73c7,64aea9d0f615b6559c281482,64bedf7dca7553137f9b5ef6,right,1,0.3,0.3714,0,0.226178867,0.1674,,,,,,63,0,63,0,1,,,,,
,,842616,001,2023-07-24_14h31.30.091,arm3_eps,2022.2.5,Win32,59.89099838,6169e8a8311d269013eb73c7,64aea9d0f615b6559c281482,64bedf7dca7553137f9b5ef6,up,1,0.3,0.3714,0,0,1.5581,,,,,,64,0,64,0,1,,,,,
,,842616,001,2023-07-24_14h31.30.091,arm3_eps,2022.2.5,Win32,59.89099838,6169e8a8311d269013eb73c7,64aea9d0f615b6559c281482,64bedf7dca7553137f9b5ef6,down,-1,0.3,0.3714,-1,0,0.0014,,,,,,65,0,65,0,1,,,,,
,,842616,001,2023-07-24_14h31.30.091,arm3_eps,2022.2.5,Win32,59.89099838,6169e8a8311d269013eb73c7,64aea9d0f615b6559c281482,64bedf7dca7553137f9b5ef6,right,-1,0.3,0.3714,-1,-0.000227583,0.9764,,,,,,66,0,66,0,1,,,,,
,,842616,001,2023-07-24_14h31.30.091,arm3_eps,2022.2.5,Win32,59.89099838,6169e8a8311d269013eb73c7,64aea9d0f615b6559c281482,64bedf7dca7553137f9b5ef6,right,-1,0.3,0.3714,-1,0.028876668,0.1601,,,,,,67,0,67,0,1,,,,,
,,842616,001,2023-07-24_14h31.30.091,arm3_eps,2022.2.5,Win32,59.89099838,6169e8a8311d269013eb73c7,64aea9d0f615b6559c281482,64bedf7dca7553137f9b5ef6,right,-1,0.3,0.3714,-1,0.039872818,0.1425,,,,,,68,0,68,0,1,,,,,
,,842616,001,2023-07-24_14h31.30.091,arm3_eps,2022.2.5,Win32,59.89099838,6169e8a8311d269013eb73c7,64aea9d0f615b6559c281482,64bedf7dca7553137f9b5ef6,right,-1,0.3,0.3714,-1,0.025850477,0.1485,,,,,,69,0,69,0,1,,,,,
,,842616,001,2023-07-24_14h31.30.091,arm3_eps,2022.2.5,Win32,59.89099838,6169e8a8311d269013eb73c7,64aea9d0f615b6559c281482,64bedf7dca7553137f9b5ef6,right,-1,0.3,0.3714,-1,0.008163304,0.1766,,,,,,70,0,70,0,1,,,,,
,,842616,001,2023-07-24_14h31.30.091,arm3_eps,2022.2.5,Win32,59.89099838,6169e8a8311d269013eb73c7,64aea9d0f615b6559c281482,64bedf7dca7553137f9b5ef6,right,-1,0.3,0.3714,-1,0.004958755,0.1599,,,,,,71,0,71,0,1,,,,,
,,842616,001,2023-07-24_14h31.30.091,arm3_eps,2022.2.5,Win32,59.89099838,6169e8a8311d269013eb73c7,64aea9d0f615b6559c281482,64bedf7dca7553137f9b5ef6,right,-1,0.3,0.3714,-1,0.004616821,0.1596,,,,,,72,0,72,0,1,,,,,
,,842616,001,2023-07-24_14h31.30.091,arm3_eps,2022.2.5,Win32,59.89099838,6169e8a8311d269013eb73c7,64aea9d0f615b6559c281482,64bedf7dca7553137f9b5ef6,right,-1,0.3,0.3714,-1,0.015224897,0.3254,,,,,,73,0,73,0,1,,,,,
,,842616,001,2023-07-24_14h31.30.091,arm3_eps,2022.2.5,Win32,59.89099838,6169e8a8311d269013eb73c7,64aea9d0f615b6559c281482,64bedf7dca7553137f9b5ef6,right,-1,0.3,0.3714,-1,0.000976863,0.1606,,,,,,74,0,74,0,1,,,,,
,,842616,001,2023-07-24_14h31.30.091,arm3_eps,2022.2.5,Win32,59.89099838,6169e8a8311d269013eb73c7,64aea9d0f615b6559c281482,64bedf7dca7553137f9b5ef6,right,-1,0.3,0.3714,-1,-0.006741466,0.1604,,,,,,75,0,75,0,1,,,,,
,,842616,001,2023-07-24_14h31.30.091,arm3_eps,2022.2.5,Win32,59.89099838,6169e8a8311d269013eb73c7,64aea9d0f615b6559c281482,64bedf7dca7553137f9b5ef6,right,-1,0.3,0.3714,-1,0.035658144,0.1578,,,,,,76,0,76,0,1,,,,,
,,842616,001,2023-07-24_14h31.30.091,arm3_eps,2022.2.5,Win32,59.89099838,6169e8a8311d269013eb73c7,64aea9d0f615b6559c281482,64bedf7dca7553137f9b5ef6,right,-1,0.3,0.3714,-1,0.05155534,0.1435,,,,,,77,0,77,0,1,,,,,
,,842616,001,2023-07-24_14h31.30.091,arm3_eps,2022.2.5,Win32,59.89099838,6169e8a8311d269013eb73c7,64aea9d0f615b6559c281482,64bedf7dca7553137f9b5ef6,up,-1,0.3,0.3714,-1,0,1.0444,,,,,,78,0,78,0,1,,,,,
,,842616,001,2023-07-24_14h31.30.091,arm3_eps,2022.2.5,Win32,59.89099838,6169e8a8311d269013eb73c7,64aea9d0f615b6559c281482,64bedf7dca7553137f9b5ef6,right,-1,0.3,0.3714,-1,-0.03532239,0.8174,,,,,,79,0,79,0,1,,,,,
,,842616,001,2023-07-24_14h31.30.091,arm3_eps,2022.2.5,Win32,59.89099838,6169e8a8311d269013eb73c7,64aea9d0f615b6559c281482,64bedf7dca7553137f9b5ef6,right,-1,0.3,0.3714,-1,-0.030470612,0.1801,,,,,,80,0,80,0,1,,,,,
,,842616,001,2023-07-24_14h31.30.091,arm3_eps,2022.2.5,Win32,59.89099838,6169e8a8311d269013eb73c7,64aea9d0f615b6559c281482,64bedf7dca7553137f9b5ef6,right,-1,0.3,0.3714,-1,-0.062048462,0.1461,,,,,,81,0,81,0,1,,,,,
,,842616,001,2023-07-24_14h31.30.091,arm3_eps,2022.2.5,Win32,59.89099838,6169e8a8311d269013eb73c7,64aea9d0f615b6559c281482,64bedf7dca7553137f9b5ef6,right,-1,0.3,0.3714,-1,-0.097726791,0.1607,,,,,,82,0,82,0,1,,,,,
,,842616,001,2023-07-24_14h31.30.091,arm3_eps,2022.2.5,Win32,59.89099838,6169e8a8311d269013eb73c7,64aea9d0f615b6559c281482,64bedf7dca7553137f9b5ef6,right,-1,0.3,0.3714,-1,-0.09870126,0.1607,,,,,,83,0,83,0,1,,,,,
,,842616,001,2023-07-24_14h31.30.091,arm3_eps,2022.2.5,Win32,59.89099838,6169e8a8311d269013eb73c7,64aea9d0f615b6559c281482,64bedf7dca7553137f9b5ef6,right,-1,0.3,0.3714,-1,-0.08363654,0.1587,,,,,,84,0,84,0,1,,,,,
,,842616,001,2023-07-24_14h31.30.091,arm3_eps,2022.2.5,Win32,59.89099838,6169e8a8311d269013eb73c7,64aea9d0f615b6559c281482,64bedf7dca7553137f9b5ef6,right,-1,0.3,0.3714,-1,-0.118733634,0.1608,,,,,,85,0,85,0,1,,,,,
,,842616,001,2023-07-24_14h31.30.091,arm3_eps,2022.2.5,Win32,59.89099838,6169e8a8311d269013eb73c7,64aea9d0f615b6559c281482,64bedf7dca7553137f9b5ef6,right,-1,0.3,0.3714,-1,-0.129356173,0.1599,,,,,,86,0,86,0,1,,,,,
,,842616,001,2023-07-24_14h31.30.091,arm3_eps,2022.2.5,Win32,59.89099838,6169e8a8311d269013eb73c7,64aea9d0f615b6559c281482,64bedf7dca7553137f9b5ef6,right,-1,0.3,0.3714,-1,-0.105846698,0.1426,,,,,,87,0,87,0,1,,,,,
,,842616,001,2023-07-24_14h31.30.091,arm3_eps,2022.2.5,Win32,59.89099838,6169e8a8311d269013eb73c7,64aea9d0f615b6559c281482,64bedf7dca7553137f9b5ef6,right,-1,0.3,0.3714,-1,-0.118622672,0.1438,,,,,,88,0,88,0,1,,,,,
,,842616,001,2023-07-24_14h31.30.091,arm3_eps,2022.2.5,Win32,59.89099838,6169e8a8311d269013eb73c7,64aea9d0f615b6559c281482,64bedf7dca7553137f9b5ef6,right,-1,0.3,0.3714,-1,-0.127284081,0.165,,,,,,89,0,89,0,1,,,,,
,,842616,001,2023-07-24_14h31.30.091,arm3_eps,2022.2.5,Win32,59.89099838,6169e8a8311d269013eb73c7,64aea9d0f615b6559c281482,64bedf7dca7553137f9b5ef6,right,-1,0.3,0.3714,-1,-0.146520198,0.1502,,,,,,90,0,90,0,1,,,,,
,,842616,001,2023-07-24_14h31.30.091,arm3_eps,2022.2.5,Win32,59.89099838,6169e8a8311d269013eb73c7,64aea9d0f615b6559c281482,64bedf7dca7553137f9b5ef6,down,-1,0.3,0.3714,-1,0,0.8436,,,,,,91,0,91,0,1,,,,,
,,842616,001,2023-07-24_14h31.30.091,arm3_eps,2022.2.5,Win32,59.89099838,6169e8a8311d269013eb73c7,64aea9d0f615b6559c281482,64bedf7dca7553137f9b5ef6,right,-1,0.3,0.3714,-1,-0.002810331,0.5893,,,,,,92,0,92,0,1,,,,,
,,842616,001,2023-07-24_14h31.30.091,arm3_eps,2022.2.5,Win32,59.89099838,6169e8a8311d269013eb73c7,64aea9d0f615b6559c281482,64bedf7dca7553137f9b5ef6,right,-1,0.3,0.3714,-1,0.005174692,0.1664,,,,,,93,0,93,0,1,,,,,
,,842616,001,2023-07-24_14h31.30.091,arm3_eps,2022.2.5,Win32,59.89099838,6169e8a8311d269013eb73c7,64aea9d0f615b6559c281482,64bedf7dca7553137f9b5ef6,right,-1,0.3,0.3714,-1,-0.040582517,0.1627,,,,,,94,0,94,0,1,,,,,
,,842616,001,2023-07-24_14h31.30.091,arm3_eps,2022.2.5,Win32,59.89099838,6169e8a8311d269013eb73c7,64aea9d0f615b6559c281482,64bedf7dca7553137f9b5ef6,right,-1,0.3,0.3714,-1,-0.047048931,0.1673,,,,,,95,0,95,0,1,,,,,
,,842616,001,2023-07-24_14h31.30.091,arm3_eps,2022.2.5,Win32,59.89099838,6169e8a8311d269013eb73c7,64aea9d0f615b6559c281482,64bedf7dca7553137f9b5ef6,right,-1,0.3,0.3714,-1,-0.051321853,0.1791,,,,,,96,0,96,0,1,,,,,
,,842616,001,2023-07-24_14h31.30.091,arm3_eps,2022.2.5,Win32,59.89099838,6169e8a8311d269013eb73c7,64aea9d0f615b6559c281482,64bedf7dca7553137f9b5ef6,right,-1,0.3,0.3714,-1,-0.066790545,0.162,,,,,,97,0,97,0,1,,,,,
,,842616,001,2023-07-24_14h31.30.091,arm3_eps,2022.2.5,Win32,59.89099838,6169e8a8311d269013eb73c7,64aea9d0f615b6559c281482,64bedf7dca7553137f9b5ef6,right,-1,0.3,0.3714,-1,-0.11008451,0.164,,,,,,98,0,98,0,1,,,,,
,,842616,001,2023-07-24_14h31.30.091,arm3_eps,2022.2.5,Win32,59.89099838,6169e8a8311d269013eb73c7,64aea9d0f615b6559c281482,64bedf7dca7553137f9b5ef6,right,-1,0.3,0.3714,-1,-0.106072975,0.1769,,,,,,99,0,99,0,1,,,,,
,,842616,001,2023-07-24_14h31.30.091,arm3_eps,2022.2.5,Win32,59.89099838,6169e8a8311d269013eb73c7,64aea9d0f615b6559c281482,64bedf7dca7553137f9b5ef6,right,-1,0.3,0.3714,-1,-0.125378649,0.1541,,,,,,100,0,100,0,1,,,,,
,,842616,001,2023-07-24_14h31.30.091,arm3_eps,2022.2.5,Win32,59.89099838,6169e8a8311d269013eb73c7,64aea9d0f615b6559c281482,64bedf7dca7553137f9b5ef6,right,-1,0.3,0.3714,-1,-0.10867906,0.1592,,,,,,101,0,101,0,1,,,,,
,,842616,001,2023-07-24_14h31.30.091,arm3_eps,2022.2.5,Win32,59.89099838,6169e8a8311d269013eb73c7,64aea9d0f615b6559c281482,64bedf7dca7553137f9b5ef6,right,-1,0.3,0.3714,-1,-0.105694033,0.1566,,,,,,102,0,102,0,1,,,,,
,,842616,001,2023-07-24_14h31.30.091,arm3_eps,2022.2.5,Win32,59.89099838,6169e8a8311d269013eb73c7,64aea9d0f615b6559c281482,64bedf7dca7553137f9b5ef6,right,-1,0.3,0.3714,-1,-0.174475992,0.1456,,,,,,103,0,103,0,1,,,,,
,,842616,001,2023-07-24_14h31.30.091,arm3_eps,2022.2.5,Win32,59.89099838,6169e8a8311d269013eb73c7,64aea9d0f615b6559c281482,64bedf7dca7553137f9b5ef6,up,1,0.3,0.3714,-1,0,0.6472,,,,,,104,0,104,0,1,,,,,
,,842616,001,2023-07-24_14h31.30.091,arm3_eps,2022.2.5,Win32,59.89099838,6169e8a8311d269013eb73c7,64aea9d0f615b6559c281482,64bedf7dca7553137f9b5ef6,right,1,0.3,0.3714,-1,0.016574651,0.4524,,,,,,105,0,105,0,1,,,,,
,,842616,001,2023-07-24_14h31.30.091,arm3_eps,2022.2.5,Win32,59.89099838,6169e8a8311d269013eb73c7,64aea9d0f615b6559c281482,64bedf7dca7553137f9b5ef6,right,1,0.3,0.3714,-1,0.026678858,0.1641,,,,,,106,0,106,0,1,,,,,
,,842616,001,2023-07-24_14h31.30.091,arm3_eps,2022.2.5,Win32,59.89099838,6169e8a8311d269013eb73c7,64aea9d0f615b6559c281482,64bedf7dca7553137f9b5ef6,right,1,0.3,0.3714,-1,0.043958289,0.1648,,,,,,107,0,107,0,1,,,,,
,,842616,001,2023-07-24_14h31.30.091,arm3_eps,2022.2.5,Win32,59.89099838,6169e8a8311d269013eb73c7,64aea9d0f615b6559c281482,64bedf7dca7553137f9b5ef6,right,1,0.3,0.3714,-1,0.057260309,0.176,,,,,,108,0,108,0,1,,,,,
,,842616,001,2023-07-24_14h31.30.091,arm3_eps,2022.2.5,Win32,59.89099838,6169e8a8311d269013eb73c7,64aea9d0f615b6559c281482,64bedf7dca7553137f9b5ef6,right,1,0.3,0.3714,-1,0.038161727,0.149,,,,,,109,0,109,0,1,,,,,
,,842616,001,2023-07-24_14h31.30.091,arm3_eps,2022.2.5,Win32,59.89099838,6169e8a8311d269013eb73c7,64aea9d0f615b6559c281482,64bedf7dca7553137f9b5ef6,right,1,0.3,0.3714,-1,0.074717891,0.1762,,,,,,110,0,110,0,1,,,,,
,,842616,001,2023-07-24_14h31.30.091,arm3_eps,2022.2.5,Win32,59.89099838,6169e8a8311d269013eb73c7,64aea9d0f615b6559c281482,64bedf7dca7553137f9b5ef6,right,1,0.3,0.3714,-1,0.103342983,0.1432,,,,,,111,0,111,0,1,,,,,
,,842616,001,2023-07-24_14h31.30.091,arm3_eps,2022.2.5,Win32,59.89099838,6169e8a8311d269013eb73c7,64aea9d0f615b6559c281482,64bedf7dca7553137f9b5ef6,right,1,0.3,0.3714,-1,0.121175228,0.1431,,,,,,112,0,112,0,1,,,,,
,,842616,001,2023-07-24_14h31.30.091,arm3_eps,2022.2.5,Win32,59.89099838,6169e8a8311d269013eb73c7,64aea9d0f615b6559c281482,64bedf7dca7553137f9b5ef6,right,1,0.3,0.3714,-1,0.092476367,0.1441,,,,,,113,0,113,0,1,,,,,
,,842616,001,2023-07-24_14h31.30.091,arm3_eps,2022.2.5,Win32,59.89099838,6169e8a8311d269013eb73c7,64aea9d0f615b6559c281482,64bedf7dca7553137f9b5ef6,right,1,0.3,0.3714,-1,0.09824704,0.3087,,,,,,114,0,114,0,1,,,,,
,,842616,001,2023-07-24_14h31.30.091,arm3_eps,2022.2.5,Win32,59.89099838,6169e8a8311d269013eb73c7,64aea9d0f615b6559c281482,64bedf7dca7553137f9b5ef6,right,1,0.3,0.3714,-1,0.13988914,0.1593,,,,,,115,0,115,0,1,,,,,
,,842616,001,2023-07-24_14h31.30.091,arm3_eps,2022.2.5,Win32,59.89099838,6169e8a8311d269013eb73c7,64aea9d0f615b6559c281482,64bedf7dca7553137f9b5ef6,right,1,0.3,0.3714,-1,0.139593519,0.1646,,,,,,116,0,116,0,1,,,,,
,,842616,001,2023-07-24_14h31.30.091,arm3_eps,2022.2.5,Win32,59.89099838,6169e8a8311d269013eb73c7,64aea9d0f615b6559c281482,64bedf7dca7553137f9b5ef6,up,1,0.3,0.3714,-1,0,0.8931,,,,,,117,0,117,0,1,,,,,
,,842616,001,2023-07-24_14h31.30.091,arm3_eps,2022.2.5,Win32,59.89099838,6169e8a8311d269013eb73c7,64aea9d0f615b6559c281482,64bedf7dca7553137f9b5ef6,right,1,0.3,0.3714,-1,0.035193543,0.6233,,,,,,118,0,118,0,1,,,,,
,,842616,001,2023-07-24_14h31.30.091,arm3_eps,2022.2.5,Win32,59.89099838,6169e8a8311d269013eb73c7,64aea9d0f615b6559c281482,64bedf7dca7553137f9b5ef6,right,1,0.3,0.3714,-1,0.05651408,0.1602,,,,,,119,0,119,0,1,,,,,
,,842616,001,2023-07-24_14h31.30.091,arm3_eps,2022.2.5,Win32,59.89099838,6169e8a8311d269013eb73c7,64aea9d0f615b6559c281482,64bedf7dca7553137f9b5ef6,right,1,0.3,0.3714,-1,0.0679225,0.1428,,,,,,120,0,120,0,1,,,,,
,,842616,001,2023-07-24_14h31.30.091,arm3_eps,2022.2.5,Win32,59.89099838,6169e8a8311d269013eb73c7,64aea9d0f615b6559c281482,64bedf7dca7553137f9b5ef6,right,1,0.3,0.3714,-1,0.110123595,0.1443,,,,,,121,0,121,0,1,,,,,
,,842616,001,2023-07-24_14h31.30.091,arm3_eps,2022.2.5,Win32,59.89099838,6169e8a8311d269013eb73c7,64aea9d0f615b6559c281482,64bedf7dca7553137f9b5ef6,right,1,0.3,0.3714,-1,0.109992137,0.1627,,,,,,122,0,122,0,1,,,,,
,,842616,001,2023-07-24_14h31.30.091,arm3_eps,2022.2.5,Win32,59.89099838,6169e8a8311d269013eb73c7,64aea9d0f615b6559c281482,64bedf7dca7553137f9b5ef6,right,1,0.3,0.3714,-1,0.111299725,0.1763,,,,,,123,0,123,0,1,,,,,
,,842616,001,2023-07-24_14h31.30.091,arm3_eps,2022.2.5,Win32,59.89099838,6169e8a8311d269013eb73c7,64aea9d0f615b6559c281482,64bedf7dca7553137f9b5ef6,right,1,0.3,0.3714,-1,0.118302918,0.1573,,,,,,124,0,124,0,1,,,,,
,,842616,001,2023-07-24_14h31.30.091,arm3_eps,2022.2.5,Win32,59.89099838,6169e8a8311d269013eb73c7,64aea9d0f615b6559c281482,64bedf7dca7553137f9b5ef6,right,1,0.3,0.3714,-1,0.120713902,0.1665,,,,,,125,0,125,0,1,,,,,
,,842616,001,2023-07-24_14h31.30.091,arm3_eps,2022.2.5,Win32,59.89099838,6169e8a8311d269013eb73c7,64aea9d0f615b6559c281482,64bedf7dca7553137f9b5ef6,right,1,0.3,0.3714,-1,0.116873625,0.1582,,,,,,126,0,126,0,1,,,,,
,,842616,001,2023-07-24_14h31.30.091,arm3_eps,2022.2.5,Win32,59.89099838,6169e8a8311d269013eb73c7,64aea9d0f615b6559c281482,64bedf7dca7553137f9b5ef6,right,1,0.3,0.3714,-1,0.150810035,0.1657,,,,,,127,0,127,0,1,,,,,
,,842616,001,2023-07-24_14h31.30.091,arm3_eps,2022.2.5,Win32,59.89099838,6169e8a8311d269013eb73c7,64aea9d0f615b6559c281482,64bedf7dca7553137f9b5ef6,right,1,0.3,0.3714,-1,0.147673643,0.1586,,,,,,128,0,128,0,1,,,,,
,,842616,001,2023-07-24_14h31.30.091,arm3_eps,2022.2.5,Win32,59.89099838,6169e8a8311d269013eb73c7,64aea9d0f615b6559c281482,64bedf7dca7553137f9b5ef6,right,1,0.3,0.3714,-1,0.146246904,0.1488,,,,,,129,0,129,0,1,,,,,
,,842616,001,2023-07-24_14h31.30.091,arm3_eps,2022.2.5,Win32,59.89099838,6169e8a8311d269013eb73c7,64aea9d0f615b6559c281482,64bedf7dca7553137f9b5ef6,up,1,0.3,0.3714,-1,0,0.7101,,,,,,130,0,130,0,1,,,,,
,,842616,001,2023-07-24_14h31.30.091,arm3_eps,2022.2.5,Win32,59.89099838,6169e8a8311d269013eb73c7,64aea9d0f615b6559c281482,64bedf7dca7553137f9b5ef6,right,1,0.3,0.3714,-1,-0.023254259,0.6428,,,,,,131,0,131,0,1,,,,,
,,842616,001,2023-07-24_14h31.30.091,arm3_eps,2022.2.5,Win32,59.89099838,6169e8a8311d269013eb73c7,64aea9d0f615b6559c281482,64bedf7dca7553137f9b5ef6,right,1,0.3,0.3714,-1,-0.015144108,0.1643,,,,,,132,0,132,0,1,,,,,
,,842616,001,2023-07-24_14h31.30.091,arm3_eps,2022.2.5,Win32,59.89099838,6169e8a8311d269013eb73c7,64aea9d0f615b6559c281482,64bedf7dca7553137f9b5ef6,right,1,0.3,0.3714,-1,-0.000680068,0.1767,,,,,,133,0,133,0,1,,,,,
,,842616,001,2023-07-24_14h31.30.091,arm3_eps,2022.2.5,Win32,59.89099838,6169e8a8311d269013eb73c7,64aea9d0f615b6559c281482,64bedf7dca7553137f9b5ef6,right,1,0.3,0.3714,-1,0.006839446,0.1415,,,,,,134,0,134,0,1,,,,,
,,842616,001,2023-07-24_14h31.30.091,arm3_eps,2022.2.5,Win32,59.89099838,6169e8a8311d269013eb73c7,64aea9d0f615b6559c281482,64bedf7dca7553137f9b5ef6,right,1,0.3,0.3714,-1,0.054723353,0.159,,,,,,135,0,135,0,1,,,,,
,,842616,001,2023-07-24_14h31.30.091,arm3_eps,2022.2.5,Win32,59.89099838,6169e8a8311d269013eb73c7,64aea9d0f615b6559c281482,64bedf7dca7553137f9b5ef6,right,1,0.3,0.3714,-1,0.048645651,0.1606,,,,,,136,0,136,0,1,,,,,
,,842616,001,2023-07-24_14h31.30.091,arm3_eps,2022.2.5,Win32,59.89099838,6169e8a8311d269013eb73c7,64aea9d0f615b6559c281482,64bedf7dca7553137f9b5ef6,right,1,0.3,0.3714,-1,0.042402534,0.1331,,,,,,137,0,137,0,1,,,,,
,,842616,001,2023-07-24_14h31.30.091,arm3_eps,2022.2.5,Win32,59.89099838,6169e8a8311d269013eb73c7,64aea9d0f615b6559c281482,64bedf7dca7553137f9b5ef6,right,1,0.3,0.3714,-1,0.063287787,0.1768,,,,,,138,0,138,0,1,,,,,
,,842616,001,2023-07-24_14h31.30.091,arm3_eps,2022.2.5,Win32,59.89099838,6169e8a8311d269013eb73c7,64aea9d0f615b6559c281482,64bedf7dca7553137f9b5ef6,right,1,0.3,0.3714,-1,0.049158089,0.1642,,,,,,139,0,139,0,1,,,,,
,,842616,001,2023-07-24_14h31.30.091,arm3_eps,2022.2.5,Win32,59.89099838,6169e8a8311d269013eb73c7,64aea9d0f615b6559c281482,64bedf7dca7553137f9b5ef6,right,1,0.3,0.3714,-1,0.066037463,0.1656,,,,,,140,0,140,0,1,,,,,
,,842616,001,2023-07-24_14h31.30.091,arm3_eps,2022.2.5,Win32,59.89099838,6169e8a8311d269013eb73c7,64aea9d0f615b6559c281482,64bedf7dca7553137f9b5ef6,right,1,0.3,0.3714,-1,0.111435929,0.1603,,,,,,141,0,141,0,1,,,,,
,,842616,001,2023-07-24_14h31.30.091,arm3_eps,2022.2.5,Win32,59.89099838,6169e8a8311d269013eb73c7,64aea9d0f615b6559c281482,64bedf7dca7553137f9b5ef6,right,1,0.3,0.3714,-1,0.136099663,0.1604,,,,,,142,0,142,0,1,,,,,
,,842616,001,2023-07-24_14h31.30.091,arm3_eps,2022.2.5,Win32,59.89099838,6169e8a8311d269013eb73c7,64aea9d0f615b6559c281482,64bedf7dca7553137f9b5ef6,up,-1,0.3,0.3714,-1,0,0.7949,,,,,,143,0,143,0,1,,,,,
,,842616,001,2023-07-24_14h31.30.091,arm3_eps,2022.2.5,Win32,59.89099838,6169e8a8311d269013eb73c7,64aea9d0f615b6559c281482,64bedf7dca7553137f9b5ef6,right,-1,0.3,0.3714,-1,-0.012520196,0.6725,,,,,,144,0,144,0,1,,,,,
,,842616,001,2023-07-24_14h31.30.091,arm3_eps,2022.2.5,Win32,59.89099838,6169e8a8311d269013eb73c7,64aea9d0f615b6559c281482,64bedf7dca7553137f9b5ef6,right,-1,0.3,0.3714,-1,-0.02805489,0.1663,,,,,,145,0,145,0,1,,,,,
,,842616,001,2023-07-24_14h31.30.091,arm3_eps,2022.2.5,Win32,59.89099838,6169e8a8311d269013eb73c7,64aea9d0f615b6559c281482,64bedf7dca7553137f9b5ef6,right,-1,0.3,0.3714,-1,-0.043348375,0.1637,,,,,,146,0,146,0,1,,,,,
,,842616,001,2023-07-24_14h31.30.091,arm3_eps,2022.2.5,Win32,59.89099838,6169e8a8311d269013eb73c7,64aea9d0f615b6559c281482,64bedf7dca7553137f9b5ef6,right,-1,0.3,0.3714,-1,-0.063670071,0.1776,,,,,,147,0,147,0,1,,,,,
,,842616,001,2023-07-24_14h31.30.091,arm3_eps,2022.2.5,Win32,59.89099838,6169e8a8311d269013eb73c7,64aea9d0f615b6559c281482,64bedf7dca7553137f9b5ef6,right,-1,0.3,0.3714,-1,-0.052804137,0.1499,,,,,,148,0,148,0,1,,,,,
,,842616,001,2023-07-24_14h31.30.091,arm3_eps,2022.2.5,Win32,59.89099838,6169e8a8311d269013eb73c7,64aea9d0f615b6559c281482,64bedf7dca7553137f9b5ef6,right,-1,0.3,0.3714,-1,-0.059212012,0.1941,,,,,,149,0,149,0,1,,,,,
,,842616,001,2023-07-24_14h31.30.091,arm3_eps,2022.2.5,Win32,59.89099838,6169e8a8311d269013eb73c7,64aea9d0f615b6559c281482,64bedf7dca7553137f9b5ef6,right,-1,0.3,0.3714,-1,-0.092274713,0.1472,,,,,,150,0,150,0,1,,,,,
,,842616,001,2023-07-24_14h31.30.091,arm3_eps,2022.2.5,Win32,59.89099838,6169e8a8311d269013eb73c7,64aea9d0f615b6559c281482,64bedf7dca7553137f9b5ef6,right,-1,0.3,0.3714,-1,-0.099752956,0.1479,,,,,,151,0,151,0,1,,,,,
,,842616,001,2023-07-24_14h31.30.091,arm3_eps,2022.2.5,Win32,59.89099838,6169e8a8311d269013eb73c7,64aea9d0f615b6559c281482,64bedf7dca7553137f9b5ef6,right,-1,0.3,0.3714,-1,-0.140927797,0.1589,,,,,,152,0,152,0,1,,,,,
,,842616,001,2023-07-24_14h31.30.091,arm3_eps,2022.2.5,Win32,59.89099838,6169e8a8311d269013eb73c7,64aea9d0f615b6559c281482,64bedf7dca7553137f9b5ef6,right,-1,0.3,0.3714,-1,-0.145863078,0.1436,,,,,,153,0,153,0,1,,,,,
,,842616,001,2023-07-24_14h31.30.091,arm3_eps,2022.2.5,Win32,59.89099838,6169e8a8311d269013eb73c7,64aea9d0f615b6559c281482,64bedf7dca7553137f9b5ef6,right,-1,0.3,0.3714,-1,-0.162753591,0.1621,,,,,,154,0,154,0,1,,,,,
,,842616,001,2023-07-24_14h31.30.091,arm3_eps,2022.2.5,Win32,59.89099838,6169e8a8311d269013eb73c7,64aea9d0f615b6559c281482,64bedf7dca7553137f9b5ef6,right,-1,0.3,0.3714,-1,-0.161945659,0.1766,,,,,,155,0,155,0,1,,,,,
,,842616,001,2023-07-24_14h31.30.091,arm3_eps,2022.2.5,Win32,59.89099838,6169e8a8311d269013eb73c7,64aea9d0f615b6559c281482,64bedf7dca7553137f9b5ef6,down,1,0.3,0.3714,0,0,0.7661,,,,,,156,0,156,0,1,,,,,
,,842616,001,2023-07-24_14h31.30.091,arm3_eps,2022.2.5,Win32,59.89099838,6169e8a8311d269013eb73c7,64aea9d0f615b6559c281482,64bedf7dca7553137f9b5ef6,right,1,0.3,0.3714,0,0.018160647,0.9007,,,,,,157,0,157,0,1,,,,,
,,842616,001,2023-07-24_14h31.30.091,arm3_eps,2022.2.5,Win32,59.89099838,6169e8a8311d269013eb73c7,64aea9d0f615b6559c281482,64bedf7dca7553137f9b5ef6,right,1,0.3,0.3714,0,0.021489256,0.1745,,,,,,158,0,158,0,1,,,,,
,,842616,001,2023-07-24_14h31.30.091,arm3_eps,2022.2.5,Win32,59.89099838,6169e8a8311d269013eb73c7,64aea9d0f615b6559c281482,64bedf7dca7553137f9b5ef6,right,1,0.3,0.3714,0,0.060318048,0.1413,,,,,,159,0,159,0,1,,,,,
,,842616,001,2023-07-24_14h31.30.091,arm3_eps,2022.2.5,Win32,59.89099838,6169e8a8311d269013eb73c7,64aea9d0f615b6559c281482,64bedf7dca7553137f9b5ef6,right,1,0.3,0.3714,0,0.080633211,0.1501,,,,,,160,0,160,0,1,,,,,
,,842616,001,2023-07-24_14h31.30.091,arm3_eps,2022.2.5,Win32,59.89099838,6169e8a8311d269013eb73c7,64aea9d0f615b6559c281482,64bedf7dca7553137f9b5ef6,right,1,0.3,0.3714,0,0.081542342,0.1596,,,,,,161,0,161,0,1,,,,,
,,842616,001,2023-07-24_14h31.30.091,arm3_eps,2022.2.5,Win32,59.89099838,6169e8a8311d269013eb73c7,64aea9d0f615b6559c281482,64bedf7dca7553137f9b5ef6,right,1,0.3,0.3714,0,0.091853937,0.1455,,,,,,162,0,162,0,1,,,,,
,,842616,001,2023-07-24_14h31.30.091,arm3_eps,2022.2.5,Win32,59.89099838,6169e8a8311d269013eb73c7,64aea9d0f615b6559c281482,64bedf7dca7553137f9b5ef6,right,1,0.3,0.3714,0,0.113212577,0.162,,,,,,163,0,163,0,1,,,,,
,,842616,001,2023-07-24_14h31.30.091,arm3_eps,2022.2.5,Win32,59.89099838,6169e8a8311d269013eb73c7,64aea9d0f615b6559c281482,64bedf7dca7553137f9b5ef6,right,1,0.3,0.3714,0,0.108872725,0.1601,,,,,,164,0,164,0,1,,,,,
,,842616,001,2023-07-24_14h31.30.091,arm3_eps,2022.2.5,Win32,59.89099838,6169e8a8311d269013eb73c7,64aea9d0f615b6559c281482,64bedf7dca7553137f9b5ef6,right,1,0.3,0.3714,0,0.136821277,0.1486,,,,,,165,0,165,0,1,,,,,
,,842616,001,2023-07-24_14h31.30.091,arm3_eps,2022.2.5,Win32,59.89099838,6169e8a8311d269013eb73c7,64aea9d0f615b6559c281482,64bedf7dca7553137f9b5ef6,right,1,0.3,0.3714,0,0.133916955,0.1598,,,,,,166,0,166,0,1,,,,,
,,842616,001,2023-07-24_14h31.30.091,arm3_eps,2022.2.5,Win32,59.89099838,6169e8a8311d269013eb73c7,64aea9d0f615b6559c281482,64bedf7dca7553137f9b5ef6,right,1,0.3,0.3714,0,0.119870684,0.1435,,,,,,167,0,167,0,1,,,,,
,,842616,001,2023-07-24_14h31.30.091,arm3_eps,2022.2.5,Win32,59.89099838,6169e8a8311d269013eb73c7,64aea9d0f615b6559c281482,64bedf7dca7553137f9b5ef6,right,1,0.3,0.3714,0,0.146056104,0.1143,,,,,,168,0,168,0,1,,,,,
,,842616,001,2023-07-24_14h31.30.091,arm3_eps,2022.2.5,Win32,59.89099838,6169e8a8311d269013eb73c7,64aea9d0f615b6559c281482,64bedf7dca7553137f9b5ef6,up,1,0.3,0.3714,0,0,0.8246,,,,,,169,0,169,0,1,,,,,
,,842616,001,2023-07-24_14h31.30.091,arm3_eps,2022.2.5,Win32,59.89099838,6169e8a8311d269013eb73c7,64aea9d0f615b6559c281482,64bedf7dca7553137f9b5ef6,right,1,0.3,0.3714,0,-0.007011673,0.7768,,,,,,170,0,170,0,1,,,,,
,,842616,001,2023-07-24_14h31.30.091,arm3_eps,2022.2.5,Win32,59.89099838,6169e8a8311d269013eb73c7,64aea9d0f615b6559c281482,64bedf7dca7553137f9b5ef6,right,1,0.3,0.3714,0,-0.037747404,0.166,,,,,,171,0,171,0,1,,,,,
,,842616,001,2023-07-24_14h31.30.091,arm3_eps,2022.2.5,Win32,59.89099838,6169e8a8311d269013eb73c7,64aea9d0f615b6559c281482,64bedf7dca7553137f9b5ef6,right,1,0.3,0.3714,0,-0.022814497,0.1519,,,,,,172,0,172,0,1,,,,,
,,842616,001,2023-07-24_14h31.30.091,arm3_eps,2022.2.5,Win32,59.89099838,6169e8a8311d269013eb73c7,64aea9d0f615b6559c281482,64bedf7dca7553137f9b5ef6,right,1,0.3,0.3714,0,-0.002605683,0.1653,,,,,,173,0,173,0,1,,,,,
,,842616,001,2023-07-24_14h31.30.091,arm3_eps,2022.2.5,Win32,59.89099838,6169e8a8311d269013eb73c7,64aea9d0f615b6559c281482,64bedf7dca7553137f9b5ef6,right,1,0.3,0.3714,0,0.031090004,0.1462,,,,,,174,0,174,0,1,,,,,
,,842616,001,2023-07-24_14h31.30.091,arm3_eps,2022.2.5,Win32,59.89099838,6169e8a8311d269013eb73c7,64aea9d0f615b6559c281482,64bedf7dca7553137f9b5ef6,right,1,0.3,0.3714,0,0.027873708,0.1672,,,,,,175,0,175,0,1,,,,,
,,842616,001,2023-07-24_14h31.30.091,arm3_eps,2022.2.5,Win32,59.89099838,6169e8a8311d269013eb73c7,64aea9d0f615b6559c281482,64bedf7dca7553137f9b5ef6,right,1,0.3,0.3714,0,0.030060187,0.1593,,,,,,176,0,176,0,1,,,,,
,,842616,001,2023-07-24_14h31.30.091,arm3_eps,2022.2.5,Win32,59.89099838,6169e8a8311d269013eb73c7,64aea9d0f615b6559c281482,64bedf7dca7553137f9b5ef6,right,1,0.3,0.3714,0,0.048774554,0.1682,,,,,,177,0,177,0,1,,,,,
,,842616,001,2023-07-24_14h31.30.091,arm3_eps,2022.2.5,Win32,59.89099838,6169e8a8311d269013eb73c7,64aea9d0f615b6559c281482,64bedf7dca7553137f9b5ef6,right,1,0.3,0.3714,0,0.07705405,0.149,,,,,,178,0,178,0,1,,,,,
,,842616,001,2023-07-24_14h31.30.091,arm3_eps,2022.2.5,Win32,59.89099838,6169e8a8311d269013eb73c7,64aea9d0f615b6559c281482,64bedf7dca7553137f9b5ef6,right,1,0.3,0.3714,0,0.083978302,0.166,,,,,,179,0,179,0,1,,,,,
,,842616,001,2023-07-24_14h31.30.091,arm3_eps,2022.2.5,Win32,59.89099838,6169e8a8311d269013eb73c7,64aea9d0f615b6559c281482,64bedf7dca7553137f9b5ef6,right,1,0.3,0.3714,0,0.092192911,0.1509,,,,,,180,0,180,0,1,,,,,
,,842616,001,2023-07-24_14h31.30.091,arm3_eps,2022.2.5,Win32,59.89099838,6169e8a8311d269013eb73c7,64aea9d0f615b6559c281482,64bedf7dca7553137f9b5ef6,right,1,0.3,0.3714,0,0.098825139,0.1824,,,,,,181,0,181,0,1,,,,,
,,842616,001,2023-07-24_14h31.30.091,arm3_eps,2022.2.5,Win32,59.89099838,6169e8a8311d269013eb73c7,64aea9d0f615b6559c281482,64bedf7dca7553137f9b5ef6,down,1,0.3,0.3714,0,0,0.5991,,,,,,182,0,182,0,1,,,,,
,,842616,001,2023-07-24_14h31.30.091,arm3_eps,2022.2.5,Win32,59.89099838,6169e8a8311d269013eb73c7,64aea9d0f615b6559c281482,64bedf7dca7553137f9b5ef6,right,1,0.3,0.3714,0,-0.006642515,0.6779,,,,,,183,0,183,0,1,,,,,
,,842616,001,2023-07-24_14h31.30.091,arm3_eps,2022.2.5,Win32,59.89099838,6169e8a8311d269013eb73c7,64aea9d0f615b6559c281482,64bedf7dca7553137f9b5ef6,right,1,0.3,0.3714,0,-0.009667433,0.1778,,,,,,184,0,184,0,1,,,,,
,,842616,001,2023-07-24_14h31.30.091,arm3_eps,2022.2.5,Win32,59.89099838,6169e8a8311d269013eb73c7,64aea9d0f615b6559c281482,64bedf7dca7553137f9b5ef6,right,1,0.3,0.3714,0,-0.025021442,0.1844,,,,,,185,0,185,0,1,,,,,
,,842616,001,2023-07-24_14h31.30.091,arm3_eps,2022.2.5,Win32,59.89099838,6169e8a8311d269013eb73c7,64aea9d0f615b6559c281482,64bedf7dca7553137f9b5ef6,right,1,0.3,0.3714,0,-0.021822338,0.1498,,,,,,186,0,186,0,1,,,,,
,,842616,001,2023-07-24_14h31.30.091,arm3_eps,2022.2.5,Win32,59.89099838,6169e8a8311d269013eb73c7,64aea9d0f615b6559c281482,64bedf7dca7553137f9b5ef6,right,1,0.3,0.3714,0,-0.000853908,0.1668,,,,,,187,0,187,0,1,,,,,
,,842616,001,2023-07-24_14h31.30.091,arm3_eps,2022.2.5,Win32,59.89099838,6169e8a8311d269013eb73c7,64aea9d0f615b6559c281482,64bedf7dca7553137f9b5ef6,right,1,0.3,0.3714,0,0.035036636,0.1629,,,,,,188,0,188,0,1,,,,,
,,842616,001,2023-07-24_14h31.30.091,arm3_eps,2022.2.5,Win32,59.89099838,6169e8a8311d269013eb73c7,64aea9d0f615b6559c281482,64bedf7dca7553137f9b5ef6,right,1,0.3,0.3714,0,0.057734435,0.1508,,,,,,189,0,189,0,1,,,,,
,,842616,001,2023-07-24_14h31.30.091,arm3_eps,2022.2.5,Win32,59.89099838,6169e8a8311d269013eb73c7,64aea9d0f615b6559c281482,64bedf7dca7553137f9b5ef6,right,1,0.3,0.3714,0,0.035903818,0.1458,,,,,,190,0,190,0,1,,,,,
,,842616,001,2023-07-24_14h31.30.091,arm3_eps,2022.2.5,Win32,59.89099838,6169e8a8311d269013eb73c7,64aea9d0f615b6559c281482,64bedf7dca7553137f9b5ef6,right,1,0.3,0.3714,0,0.055624864,0.1681,,,,,,191,0,191,0,1,,,,,
,,842616,001,2023-07-24_14h31.30.091,arm3_eps,2022.2.5,Win32,59.89099838,6169e8a8311d269013eb73c7,64aea9d0f615b6559c281482,64bedf7dca7553137f9b5ef6,right,1,0.3,0.3714,0,0.061230704,0.165,,,,,,192,0,192,0,1,,,,,
,,842616,001,2023-07-24_14h31.30.091,arm3_eps,2022.2.5,Win32,59.89099838,6169e8a8311d269013eb73c7,64aea9d0f615b6559c281482,64bedf7dca7553137f9b5ef6,right,1,0.3,0.3714,0,0.074410003,0.1404,,,,,,193,0,193,0,1,,,,,
,,842616,001,2023-07-24_14h31.30.091,arm3_eps,2022.2.5,Win32,59.89099838,6169e8a8311d269013eb73c7,64aea9d0f615b6559c281482,64bedf7dca7553137f9b5ef6,right,1,0.3,0.3714,0,0.07343371,0.1513,,,,,,194,0,194,0,1,,,,,
,,842616,001,2023-07-24_14h31.30.091,arm3_eps,2022.2.5,Win32,59.89099838,6169e8a8311d269013eb73c7,64aea9d0f615b6559c281482,64bedf7dca7553137f9b5ef6,up,1,0.3,0.3714,0,0,0.8993,,,,,,195,0,195,0,1,,,,,
,,842616,001,2023-07-24_14h31.30.091,arm3_eps,2022.2.5,Win32,59.89099838,6169e8a8311d269013eb73c7,64aea9d0f615b6559c281482,64bedf7dca7553137f9b5ef6,right,1,0.3,0.3714,0,0.016425374,0.4295,,,,,,196,0,196,0,1,,,,,
,,842616,001,2023-07-24_14h31.30.091,arm3_eps,2022.2.5,Win32,59.89099838,6169e8a8311d269013eb73c7,64aea9d0f615b6559c281482,64bedf7dca7553137f9b5ef6,right,1,0.3,0.3714,0,0.0081325,0.1638,,,,,,197,0,197,0,1,,,,,
,,842616,001,2023-07-24_14h31.30.091,arm3_eps,2022.2.5,Win32,59.89099838,6169e8a8311d269013eb73c7,64aea9d0f615b6559c281482,64bedf7dca7553137f9b5ef6,right,1,0.3,0.3714,0,0.032788219,0.1502,,,,,,198,0,198,0,1,,,,,
,,842616,001,2023-07-24_14h31.30.091,arm3_eps,2022.2.5,Win32,59.89099838,6169e8a8311d269013eb73c7,64aea9d0f615b6559c281482,64bedf7dca7553137f9b5ef6,right,1,0.3,0.3714,0,0.029266021,0.1466,,,,,,199,0,199,0,1,,,,,
,,842616,001,2023-07-24_14h31.30.091,arm3_eps,2022.2.5,Win32,59.89099838,6169e8a8311d269013eb73c7,64aea9d0f615b6559c281482,64bedf7dca7553137f9b5ef6,right,1,0.3,0.3714,0,0.020453019,0.1516,,,,,,200,0,200,0,1,,,,,
,,842616,001,2023-07-24_14h31.30.091,arm3_eps,2022.2.5,Win32,59.89099838,6169e8a8311d269013eb73c7,64aea9d0f615b6559c281482,64bedf7dca7553137f9b5ef6,right,1,0.3,0.3714,0,0.015419962,0.165,,,,,,201,0,201,0,1,,,,,
,,842616,001,2023-07-24_14h31.30.091,arm3_eps,2022.2.5,Win32,59.89099838,6169e8a8311d269013eb73c7,64aea9d0f615b6559c281482,64bedf7dca7553137f9b5ef6,right,1,0.3,0.3714,0,0.031622908,0.1623,,,,,,202,0,202,0,1,,,,,
,,842616,001,2023-07-24_14h31.30.091,arm3_eps,2022.2.5,Win32,59.89099838,6169e8a8311d269013eb73c7,64aea9d0f615b6559c281482,64bedf7dca7553137f9b5ef6,right,1,0.3,0.3714,0,0.057442636,0.168,,,,,,203,0,203,0,1,,,,,
,,842616,001,2023-07-24_14h31.30.091,arm3_eps,2022.2.5,Win32,59.89099838,6169e8a8311d269013eb73c7,64aea9d0f615b6559c281482,64bedf7dca7553137f9b5ef6,right,1,0.3,0.3714,0,0.079205418,0.1836,,,,,,204,0,204,0,1,,,,,
,,842616,001,2023-07-24_14h31.30.091,arm3_eps,2022.2.5,Win32,59.89099838,6169e8a8311d269013eb73c7,64aea9d0f615b6559c281482,64bedf7dca7553137f9b5ef6,right,1,0.3,0.3714,0,0.081587025,0.1507,,,,,,205,0,205,0,1,,,,,
,,842616,001,2023-07-24_14h31.30.091,arm3_eps,2022.2.5,Win32,59.89099838,6169e8a8311d269013eb73c7,64aea9d0f615b6559c281482,64bedf7dca7553137f9b5ef6,right,1,0.3,0.3714,0,0.097961745,0.1672,,,,,,206,0,206,0,1,,,,,
,,842616,001,2023-07-24_14h31.30.091,arm3_eps,2022.2.5,Win32,59.89099838,6169e8a8311d269013eb73c7,64aea9d0f615b6559c281482,64bedf7dca7553137f9b5ef6,right,1,0.3,0.3714,0,0.110506419,0.1494,,,,,,207,0,207,0,1,,,,,
,,842616,001,2023-07-24_14h31.30.091,arm3_eps,2022.2.5,Win32,59.89099838,6169e8a8311d269013eb73c7,64aea9d0f615b6559c281482,64bedf7dca7553137f9b5ef6,up,-1,0.3,0.3714,0,0,0.8068,,,,,,208,0,208,0,1,,,,,
,,842616,001,2023-07-24_14h31.30.091,arm3_eps,2022.2.5,Win32,59.89099838,6169e8a8311d269013eb73c7,64aea9d0f615b6559c281482,64bedf7dca7553137f9b5ef6,right,-1,0.3,0.3714,0,-0.018616899,0.4039,,,,,,209,0,209,0,1,,,,,
,,842616,001,2023-07-24_14h31.30.091,arm3_eps,2022.2.5,Win32,59.89099838,6169e8a8311d269013eb73c7,64aea9d0f615b6559c281482,64bedf7dca7553137f9b5ef6,right,-1,0.3,0.3714,0,-0.032511695,0.2104,,,,,,210,0,210,0,1,,,,,
,,842616,001,2023-07-24_14h31.30.091,arm3_eps,2022.2.5,Win32,59.89099838,6169e8a8311d269013eb73c7,64aea9d0f615b6559c281482,64bedf7dca7553137f9b5ef6,right,-1,0.3,0.3714,0,-0.029688825,0.1579,,,,,,211,0,211,0,1,,,,,
,,842616,001,2023-07-24_14h31.30.091,arm3_eps,2022.2.5,Win32,59.89099838,6169e8a8311d269013eb73c7,64aea9d0f615b6559c281482,64bedf7dca7553137f9b5ef6,right,-1,0.3,0.3714,0,-0.027828914,0.1507,,,,,,212,0,212,0,1,,,,,
,,842616,001,2023-07-24_14h31.30.091,arm3_eps,2022.2.5,Win32,59.89099838,6169e8a8311d269013eb73c7,64aea9d0f615b6559c281482,64bedf7dca7553137f9b5ef6,right,-1,0.3,0.3714,0,-0.046371055,0.1683,,,,,,213,0,213,0,1,,,,,
,,842616,001,2023-07-24_14h31.30.091,arm3_eps,2022.2.5,Win32,59.89099838,6169e8a8311d269013eb73c7,64aea9d0f615b6559c281482,64bedf7dca7553137f9b5ef6,right,-1,0.3,0.3714,0,-0.051497081,0.1636,,,,,,214,0,214,0,1,,,,,
,,842616,001,2023-07-24_14h31.30.091,arm3_eps,2022.2.5,Win32,59.89099838,6169e8a8311d269013eb73c7,64aea9d0f615b6559c281482,64bedf7dca7553137f9b5ef6,right,-1,0.3,0.3714,0,-0.047135776,0.1505,,,,,,215,0,215,0,1,,,,,
,,842616,001,2023-07-24_14h31.30.091,arm3_eps,2022.2.5,Win32,59.89099838,6169e8a8311d269013eb73c7,64aea9d0f615b6559c281482,64bedf7dca7553137f9b5ef6,right,-1,0.3,0.3714,0,-0.049666803,0.1331,,,,,,216,0,216,0,1,,,,,
,,842616,001,2023-07-24_14h31.30.091,arm3_eps,2022.2.5,Win32,59.89099838,6169e8a8311d269013eb73c7,64aea9d0f615b6559c281482,64bedf7dca7553137f9b5ef6,right,-1,0.3,0.3714,0,-0.062452156,0.1663,,,,,,217,0,217,0,1,,,,,
,,842616,001,2023-07-24_14h31.30.091,arm3_eps,2022.2.5,Win32,59.89099838,6169e8a8311d269013eb73c7,64aea9d0f615b6559c281482,64bedf7dca7553137f9b5ef6,right,-1,0.3,0.3714,0,-0.064896379,0.1801,,,,,,218,0,218,0,1,,,,,
,,842616,001,2023-07-24_14h31.30.091,arm3_eps,2022.2.5,Win32,59.89099838,6169e8a8311d269013eb73c7,64aea9d0f615b6559c281482,64bedf7dca7553137f9b5ef6,right,-1,0.3,0.3714,0,-0.056261691,0.1645,,,,,,219,0,219,0,1,,,,,
,,842616,001,2023-07-24_14h31.30.091,arm3_eps,2022.2.5,Win32,59.89099838,6169e8a8311d269013eb73c7,64aea9d0f615b6559c281482,64bedf7dca7553137f9b5ef6,right,-1,0.3,0.3714,0,-0.074715334,0.15,,,,,,220,0,220,0,1,,,,,
,,842616,001,2023-07-24_14h31.30.091,arm3_eps,2022.2.5,Win32,59.89099838,6169e8a8311d269013eb73c7,64aea9d0f615b6559c281482,64bedf7dca7553137f9b5ef6,down,-1,0.3,0.3714,0,0,0.516,,,,,,221,0,221,0,1,,,,,
,,842616,001,2023-07-24_14h31.30.091,arm3_eps,2022.2.5,Win32,59.89099838,6169e8a8311d269013eb73c7,64aea9d0f615b6559c281482,64bedf7dca7553137f9b5ef6,right,-1,0.3,0.3714,0,-0.01599644,0.4967,,,,,,222,0,222,0,1,,,,,
,,842616,001,2023-07-24_14h31.30.091,arm3_eps,2022.2.5,Win32,59.89099838,6169e8a8311d269013eb73c7,64aea9d0f615b6559c281482,64bedf7dca7553137f9b5ef6,right,-1,0.3,0.3714,0,-0.041772948,0.1335,,,,,,223,0,223,0,1,,,,,
,,842616,001,2023-07-24_14h31.30.091,arm3_eps,2022.2.5,Win32,59.89099838,6169e8a8311d269013eb73c7,64aea9d0f615b6559c281482,64bedf7dca7553137f9b5ef6,right,-1,0.3,0.3714,0,-0.055768717,0.1493,,,,,,224,0,224,0,1,,,,,
,,842616,001,2023-07-24_14h31.30.091,arm3_eps,2022.2.5,Win32,59.89099838,6169e8a8311d269013eb73c7,64aea9d0f615b6559c281482,64bedf7dca7553137f9b5ef6,right,-1,0.3,0.3714,0,-0.048606208,0.1667,,,,,,225,0,225,0,1,,,,,
,,842616,001,2023-07-24_14h31.30.091,arm3_eps,2022.2.5,Win32,59.89099838,6169e8a8311d269013eb73c7,64aea9d0f615b6559c281482,64bedf7dca7553137f9b5ef6,right,-1,0.3,0.3714,0,-0.055496415,0.1671,,,,,,226,0,226,0,1,,,,,
,,842616,001,2023-07-24_14h31.30.091,arm3_eps,2022.2.5,Win32,59.89099838,6169e8a8311d269013eb73c7,64aea9d0f615b6559c281482,64bedf7dca7553137f9b5ef6,right,-1,0.3,0.3714,0,-0.068565123,0.1415,,,,,,227,0,227,0,1,,,,,
,,842616,001,2023-07-24_14h31.30.091,arm3_eps,2022.2.5,Win32,59.89099838,6169e8a8311d269013eb73c7,64aea9d0f615b6559c281482,64bedf7dca7553137f9b5ef6,right,-1,0.3,0.3714,0,-0.081181245,0.1519,,,,,,228,0,228,0,1,,,,,
,,842616,001,2023-07-24_14h31.30.091,arm3_eps,2022.2.5,Win32,59.89099838,6169e8a8311d269013eb73c7,64aea9d0f615b6559c281482,64bedf7dca7553137f9b5ef6,right,-1,0.3,0.3714,0,-0.104095359,0.16,,,,,,229,0,229,0,1,,,,,
,,842616,001,2023-07-24_14h31.30.091,arm3_eps,2022.2.5,Win32,59.89099838,6169e8a8311d269013eb73c7,64aea9d0f615b6559c281482,64bedf7dca7553137f9b5ef6,right,-1,0.3,0.3714,0,-0.106555909,0.1938,,,,,,230,0,230,0,1,,,,,
,,842616,001,2023-07-24_14h31.30.091,arm3_eps,2022.2.5,Win32,59.89099838,6169e8a8311d269013eb73c7,64aea9d0f615b6559c281482,64bedf7dca7553137f9b5ef6,right,-1,0.3,0.3714,0,-0.122263904,0.1476,,,,,,231,0,231,0,1,,,,,
,,842616,001,2023-07-24_14h31.30.091,arm3_eps,2022.2.5,Win32,59.89099838,6169e8a8311d269013eb73c7,64aea9d0f615b6559c281482,64bedf7dca7553137f9b5ef6,right,-1,0.3,0.3714,0,-0.126517598,0.1623,,,,,,232,0,232,0,1,,,,,
,,842616,001,2023-07-24_14h31.30.091,arm3_eps,2022.2.5,Win32,59.89099838,6169e8a8311d269013eb73c7,64aea9d0f615b6559c281482,64bedf7dca7553137f9b5ef6,right,-1,0.3,0.3714,0,-0.140433698,0.1674,,,,,,233,0,233,0,1,,,,,
,,842616,001,2023-07-24_14h31.30.091,arm3_eps,2022.2.5,Win32,59.89099838,6169e8a8311d269013eb73c7,64aea9d0f615b6559c281482,64bedf7dca7553137f9b5ef6,down,-1,0.3,0.3714,0,0,0.6789,,,,,,234,0,234,0,1,,,,,
,,842616,001,2023-07-24_14h31.30.091,arm3_eps,2022.2.5,Win32,59.89099838,6169e8a8311d269013eb73c7,64aea9d0f615b6559c281482,64bedf7dca7553137f9b5ef6,right,-1,0.3,0.3714,0,-0.04305581,0.4119,,,,,,235,0,235,0,1,,,,,
,,842616,001,2023-07-24_14h31.30.091,arm3_eps,2022.2.5,Win32,59.89099838,6169e8a8311d269013eb73c7,64aea9d0f615b6559c281482,64bedf7dca7553137f9b5ef6,right,-1,0.3,0.3714,0,-0.056254647,0.1814,,,,,,236,0,236,0,1,,,,,
,,842616,001,2023-07-24_14h31.30.091,arm3_eps,2022.2.5,Win32,59.89099838,6169e8a8311d269013eb73c7,64aea9d0f615b6559c281482,64bedf7dca7553137f9b5ef6,right,-1,0.3,0.3714,0,-0.087212478,0.1255,,,,,,237,0,237,0,1,,,,,
,,842616,001,2023-07-24_14h31.30.091,arm3_eps,2022.2.5,Win32,59.89099838,6169e8a8311d269013eb73c7,64aea9d0f615b6559c281482,64bedf7dca7553137f9b5ef6,right,-1,0.3,0.3714,0,-0.084579094,0.1771,,,,,,238,0,238,0,1,,,,,
,,842616,001,2023-07-24_14h31.30.091,arm3_eps,2022.2.5,Win32,59.89099838,6169e8a8311d269013eb73c7,64aea9d0f615b6559c281482,64bedf7dca7553137f9b5ef6,right,-1,0.3,0.3714,0,-0.099493933,0.1614,,,,,,239,0,239,0,1,,,,,
,,842616,001,2023-07-24_14h31.30.091,arm3_eps,2022.2.5,Win32,59.89099838,6169e8a8311d269013eb73c7,64aea9d0f615b6559c281482,64bedf7dca7553137f9b5ef6,right,-1,0.3,0.3714,0,-0.136267639,0.1633,,,,,,240,0,240,0,1,,,,,
,,842616,001,2023-07-24_14h31.30.091,arm3_eps,2022.2.5,Win32,59.89099838,6169e8a8311d269013eb73c7,64aea9d0f615b6559c281482,64bedf7dca7553137f9b5ef6,right,-1,0.3,0.3714,0,-0.147385467,0.1471,,,,,,241,0,241,0,1,,,,,
,,842616,001,2023-07-24_14h31.30.091,arm3_eps,2022.2.5,Win32,59.89099838,6169e8a8311d269013eb73c7,64aea9d0f615b6559c281482,64bedf7dca7553137f9b5ef6,right,-1,0.3,0.3714,0,-0.174168742,0.1582,,,,,,242,0,242,0,1,,,,,
,,842616,001,2023-07-24_14h31.30.091,arm3_eps,2022.2.5,Win32,59.89099838,6169e8a8311d269013eb73c7,64aea9d0f615b6559c281482,64bedf7dca7553137f9b5ef6,right,-1,0.3,0.3714,0,-0.187063592,0.1417,,,,,,243,0,243,0,1,,,,,
,,842616,001,2023-07-24_14h31.30.091,arm3_eps,2022.2.5,Win32,59.89099838,6169e8a8311d269013eb73c7,64aea9d0f615b6559c281482,64bedf7dca7553137f9b5ef6,right,-1,0.3,0.3714,0,-0.181305528,0.1933,,,,,,244,0,244,0,1,,,,,
,,842616,001,2023-07-24_14h31.30.091,arm3_eps,2022.2.5,Win32,59.89099838,6169e8a8311d269013eb73c7,64aea9d0f615b6559c281482,64bedf7dca7553137f9b5ef6,right,-1,0.3,0.3714,0,-0.154982018,0.1773,,,,,,245,0,245,0,1,,,,,
,,842616,001,2023-07-24_14h31.30.091,arm3_eps,2022.2.5,Win32,59.89099838,6169e8a8311d269013eb73c7,64aea9d0f615b6559c281482,64bedf7dca7553137f9b5ef6,right,-1,0.3,0.3714,0,-0.172195805,0.1641,,,,,,246,0,246,0,1,,,,,
,,842616,001,2023-07-24_14h31.30.091,arm3_eps,2022.2.5,Win32,59.89099838,6169e8a8311d269013eb73c7,64aea9d0f615b6559c281482,64bedf7dca7553137f9b5ef6,down,-1,0.3,0.3714,0,0,0.7935,,,,,,247,0,247,0,1,,,,,
,,842616,001,2023-07-24_14h31.30.091,arm3_eps,2022.2.5,Win32,59.89099838,6169e8a8311d269013eb73c7,64aea9d0f615b6559c281482,64bedf7dca7553137f9b5ef6,right,-1,0.3,0.3714,0,-0.012973296,0.605,,,,,,248,0,248,0,1,,,,,
,,842616,001,2023-07-24_14h31.30.091,arm3_eps,2022.2.5,Win32,59.89099838,6169e8a8311d269013eb73c7,64aea9d0f615b6559c281482,64bedf7dca7553137f9b5ef6,right,-1,0.3,0.3714,0,-0.019998716,0.1486,,,,,,249,0,249,0,1,,,,,
,,842616,001,2023-07-24_14h31.30.091,arm3_eps,2022.2.5,Win32,59.89099838,6169e8a8311d269013eb73c7,64aea9d0f615b6559c281482,64bedf7dca7553137f9b5ef6,right,-1,0.3,0.3714,0,-0.024088629,0.1738,,,,,,250,0,250,0,1,,,,,
,,842616,001,2023-07-24_14h31.30.091,arm3_eps,2022.2.5,Win32,59.89099838,6169e8a8311d269013eb73c7,64aea9d0f615b6559c281482,64bedf7dca7553137f9b5ef6,right,-1,0.3,0.3714,0,-0.027428782,0.1775,,,,,,251,0,251,0,1,,,,,
,,842616,001,2023-07-24_14h31.30.091,arm3_eps,2022.2.5,Win32,59.89099838,6169e8a8311d269013eb73c7,64aea9d0f615b6559c281482,64bedf7dca7553137f9b5ef6,right,-1,0.3,0.3714,0,-0.059947162,0.1609,,,,,,252,0,252,0,1,,,,,
,,842616,001,2023-07-24_14h31.30.091,arm3_eps,2022.2.5,Win32,59.89099838,6169e8a8311d269013eb73c7,64aea9d0f615b6559c281482,64bedf7dca7553137f9b5ef6,right,-1,0.3,0.3714,0,-0.070454087,0.1766,,,,,,253,0,253,0,1,,,,,
,,842616,001,2023-07-24_14h31.30.091,arm3_eps,2022.2.5,Win32,59.89099838,6169e8a8311d269013eb73c7,64aea9d0f615b6559c281482,64bedf7dca7553137f9b5ef6,right,-1,0.3,0.3714,0,-0.072776811,0.1936,,,,,,254,0,254,0,1,,,,,
,,842616,001,2023-07-24_14h31.30.091,arm3_eps,2022.2.5,Win32,59.89099838,6169e8a8311d269013eb73c7,64aea9d0f615b6559c281482,64bedf7dca7553137f9b5ef6,right,-1,0.3,0.3714,0,-0.097175379,0.1596,,,,,,255,0,255,0,1,,,,,
,,842616,001,2023-07-24_14h31.30.091,arm3_eps,2022.2.5,Win32,59.89099838,6169e8a8311d269013eb73c7,64aea9d0f615b6559c281482,64bedf7dca7553137f9b5ef6,right,-1,0.3,0.3714,0,-0.080713935,0.1578,,,,,,256,0,256,0,1,,,,,
,,842616,001,2023-07-24_14h31.30.091,arm3_eps,2022.2.5,Win32,59.89099838,6169e8a8311d269013eb73c7,64aea9d0f615b6559c281482,64bedf7dca7553137f9b5ef6,right,-1,0.3,0.3714,0,-0.09502258,0.1773,,,,,,257,0,257,0,1,,,,,
,,842616,001,2023-07-24_14h31.30.091,arm3_eps,2022.2.5,Win32,59.89099838,6169e8a8311d269013eb73c7,64aea9d0f615b6559c281482,64bedf7dca7553137f9b5ef6,right,-1,0.3,0.3714,0,-0.123256292,0.1915,,,,,,258,0,258,0,1,,,,,
,,842616,001,2023-07-24_14h31.30.091,arm3_eps,2022.2.5,Win32,59.89099838,6169e8a8311d269013eb73c7,64aea9d0f615b6559c281482,64bedf7dca7553137f9b5ef6,right,-1,0.3,0.3714,0,-0.139874483,0.1647,,,,,,259,0,259,0,1,,,,,
,,842616,001,2023-07-24_14h31.30.091,arm3_eps,2022.2.5,Win32,59.89099838,6169e8a8311d269013eb73c7,64aea9d0f615b6559c281482,64bedf7dca7553137f9b5ef6,down,1,0.3,0.3714,0,0,0.7263,,,,,,260,0,260,0,1,,,,,
,,842616,001,2023-07-24_14h31.30.091,arm3_eps,2022.2.5,Win32,59.89099838,6169e8a8311d269013eb73c7,64aea9d0f615b6559c281482,64bedf7dca7553137f9b5ef6,right,1,0.3,0.3714,0,-0.000995683,0.5407,,,,,,261,0,261,0,1,,,,,
,,842616,001,2023-07-24_14h31.30.091,arm3_eps,2022.2.5,Win32,59.89099838,6169e8a8311d269013eb73c7,64aea9d0f615b6559c281482,64bedf7dca7553137f9b5ef6,right,1,0.3,0.3714,0,0.004434328,0.1978,,,,,,262,0,262,0,1,,,,,
,,842616,001,2023-07-24_14h31.30.091,arm3_eps,2022.2.5,Win32,59.89099838,6169e8a8311d269013eb73c7,64aea9d0f615b6559c281482,64bedf7dca7553137f9b5ef6,right,1,0.3,0.3714,0,0.006150589,0.1779,,,,,,263,0,263,0,1,,,,,
,,842616,001,2023-07-24_14h31.30.091,arm3_eps,2022.2.5,Win32,59.89099838,6169e8a8311d269013eb73c7,64aea9d0f615b6559c281482,64bedf7dca7553137f9b5ef6,right,1,0.3,0.3714,0,0.036453084,0.1737,,,,,,264,0,264,0,1,,,,,
,,842616,001,2023-07-24_14h31.30.091,arm3_eps,2022.2.5,Win32,59.89099838,6169e8a8311d269013eb73c7,64aea9d0f615b6559c281482,64bedf7dca7553137f9b5ef6,right,1,0.3,0.3714,0,0.043493298,0.1593,,,,,,265,0,265,0,1,,,,,
,,842616,001,2023-07-24_14h31.30.091,arm3_eps,2022.2.5,Win32,59.89099838,6169e8a8311d269013eb73c7,64aea9d0f615b6559c281482,64bedf7dca7553137f9b5ef6,right,1,0.3,0.3714,0,0.040818156,0.178,,,,,,266,0,266,0,1,,,,,
,,842616,001,2023-07-24_14h31.30.091,arm3_eps,2022.2.5,Win32,59.89099838,6169e8a8311d269013eb73c7,64aea9d0f615b6559c281482,64bedf7dca7553137f9b5ef6,right,1,0.3,0.3714,0,0.067147639,0.1607,,,,,,267,0,267,0,1,,,,,
,,842616,001,2023-07-24_14h31.30.091,arm3_eps,2022.2.5,Win32,59.89099838,6169e8a8311d269013eb73c7,64aea9d0f615b6559c281482,64bedf7dca7553137f9b5ef6,right,1,0.3,0.3714,0,0.107960511,0.1599,,,,,,268,0,268,0,1,,,,,
,,842616,001,2023-07-24_14h31.30.091,arm3_eps,2022.2.5,Win32,59.89099838,6169e8a8311d269013eb73c7,64aea9d0f615b6559c281482,64bedf7dca7553137f9b5ef6,right,1,0.3,0.3714,0,0.14306441,0.1579,,,,,,269,0,269,0,1,,,,,
,,842616,001,2023-07-24_14h31.30.091,arm3_eps,2022.2.5,Win32,59.89099838,6169e8a8311d269013eb73c7,64aea9d0f615b6559c281482,64bedf7dca7553137f9b5ef6,right,1,0.3,0.3714,0,0.185524923,0.1501,,,,,,270,0,270,0,1,,,,,
,,842616,001,2023-07-24_14h31.30.091,arm3_eps,2022.2.5,Win32,59.89099838,6169e8a8311d269013eb73c7,64aea9d0f615b6559c281482,64bedf7dca7553137f9b5ef6,right,1,0.3,0.3714,0,0.181871992,0.1774,,,,,,271,0,271,0,1,,,,,
,,842616,001,2023-07-24_14h31.30.091,arm3_eps,2022.2.5,Win32,59.89099838,6169e8a8311d269013eb73c7,64aea9d0f615b6559c281482,64bedf7dca7553137f9b5ef6,right,1,0.3,0.3714,0,0.219010553,0.1598,,,,,,272,0,272,0,1,,,,,
,,842616,001,2023-07-24_14h31.30.091,arm3_eps,2022.2.5,Win32,59.89099838,6169e8a8311d269013eb73c7,64aea9d0f615b6559c281482,64bedf7dca7553137f9b5ef6,up,1,0.3,0.3714,0,0,0.6446,,,,,,273,0,273,0,1,,,,,
,,842616,001,2023-07-24_14h31.30.091,arm3_eps,2022.2.5,Win32,59.89099838,6169e8a8311d269013eb73c7,64aea9d0f615b6559c281482,64bedf7dca7553137f9b5ef6,right,1,0.3,0.3714,0,0.000518878,0.5558,,,,,,274,0,274,0,1,,,,,
,,842616,001,2023-07-24_14h31.30.091,arm3_eps,2022.2.5,Win32,59.89099838,6169e8a8311d269013eb73c7,64aea9d0f615b6559c281482,64bedf7dca7553137f9b5ef6,right,1,0.3,0.3714,0,0.032504126,0.1935,,,,,,275,0,275,0,1,,,,,
,,842616,001,2023-07-24_14h31.30.091,arm3_eps,2022.2.5,Win32,59.89099838,6169e8a8311d269013eb73c7,64aea9d0f615b6559c281482,64bedf7dca7553137f9b5ef6,right,1,0.3,0.3714,0,0.046547349,0.1598,,,,,,276,0,276,0,1,,,,,
,,842616,001,2023-07-24_14h31.30.091,arm3_eps,2022.2.5,Win32,59.89099838,6169e8a8311d269013eb73c7,64aea9d0f615b6559c281482,64bedf7dca7553137f9b5ef6,right,1,0.3,0.3714,0,0.062387214,0.146,,,,,,277,0,277,0,1,,,,,
,,842616,001,2023-07-24_14h31.30.091,arm3_eps,2022.2.5,Win32,59.89099838,6169e8a8311d269013eb73c7,64aea9d0f615b6559c281482,64bedf7dca7553137f9b5ef6,right,1,0.3,0.3714,0,0.058367717,0.1578,,,,,,278,0,278,0,1,,,,,
,,842616,001,2023-07-24_14h31.30.091,arm3_eps,2022.2.5,Win32,59.89099838,6169e8a8311d269013eb73c7,64aea9d0f615b6559c281482,64bedf7dca7553137f9b5ef6,right,1,0.3,0.3714,0,0.069991658,0.1605,,,,,,279,0,279,0,1,,,,,
,,842616,001,2023-07-24_14h31.30.091,arm3_eps,2022.2.5,Win32,59.89099838,6169e8a8311d269013eb73c7,64aea9d0f615b6559c281482,64bedf7dca7553137f9b5ef6,right,1,0.3,0.3714,0,0.080523163,0.1579,,,,,,280,0,280,0,1,,,,,
,,842616,001,2023-07-24_14h31.30.091,arm3_eps,2022.2.5,Win32,59.89099838,6169e8a8311d269013eb73c7,64aea9d0f615b6559c281482,64bedf7dca7553137f9b5ef6,right,1,0.3,0.3714,0,0.088749052,0.1468,,,,,,281,0,281,0,1,,,,,
,,842616,001,2023-07-24_14h31.30.091,arm3_eps,2022.2.5,Win32,59.89099838,6169e8a8311d269013eb73c7,64aea9d0f615b6559c281482,64bedf7dca7553137f9b5ef6,right,1,0.3,0.3714,0,0.055466469,0.1772,,,,,,282,0,282,0,1,,,,,
,,842616,001,2023-07-24_14h31.30.091,arm3_eps,2022.2.5,Win32,59.89099838,6169e8a8311d269013eb73c7,64aea9d0f615b6559c281482,64bedf7dca7553137f9b5ef6,right,1,0.3,0.3714,0,0.057387989,0.1915,,,,,,283,0,283,0,1,,,,,
,,842616,001,2023-07-24_14h31.30.091,arm3_eps,2022.2.5,Win32,59.89099838,6169e8a8311d269013eb73c7,64aea9d0f615b6559c281482,64bedf7dca7553137f9b5ef6,right,1,0.3,0.3714,0,0.038092843,0.1445,,,,,,284,0,284,0,1,,,,,
,,842616,001,2023-07-24_14h31.30.091,arm3_eps,2022.2.5,Win32,59.89099838,6169e8a8311d269013eb73c7,64aea9d0f615b6559c281482,64bedf7dca7553137f9b5ef6,right,1,0.3,0.3714,0,0.06140073,0.1766,,,,,,285,0,285,0,1,,,,,
,,842616,001,2023-07-24_14h31.30.091,arm3_eps,2022.2.5,Win32,59.89099838,6169e8a8311d269013eb73c7,64aea9d0f615b6559c281482,64bedf7dca7553137f9b5ef6,up,1,0.3,0.3714,0,0,0.8751,,,,,,286,0,286,0,1,,,,,
,,842616,001,2023-07-24_14h31.30.091,arm3_eps,2022.2.5,Win32,59.89099838,6169e8a8311d269013eb73c7,64aea9d0f615b6559c281482,64bedf7dca7553137f9b5ef6,right,1,0.3,0.3714,0,0.016626456,0.4422,,,,,,287,0,287,0,1,,,,,
,,842616,001,2023-07-24_14h31.30.091,arm3_eps,2022.2.5,Win32,59.89099838,6169e8a8311d269013eb73c7,64aea9d0f615b6559c281482,64bedf7dca7553137f9b5ef6,right,1,0.3,0.3714,0,0.02708676,0.1827,,,,,,288,0,288,0,1,,,,,
,,842616,001,2023-07-24_14h31.30.091,arm3_eps,2022.2.5,Win32,59.89099838,6169e8a8311d269013eb73c7,64aea9d0f615b6559c281482,64bedf7dca7553137f9b5ef6,right,1,0.3,0.3714,0,0.011789604,0.3443,,,,,,289,0,289,0,1,,,,,
,,842616,001,2023-07-24_14h31.30.091,arm3_eps,2022.2.5,Win32,59.89099838,6169e8a8311d269013eb73c7,64aea9d0f615b6559c281482,64bedf7dca7553137f9b5ef6,right,1,0.3,0.3714,0,0.023745033,0.14,,,,,,290,0,290,0,1,,,,,
,,842616,001,2023-07-24_14h31.30.091,arm3_eps,2022.2.5,Win32,59.89099838,6169e8a8311d269013eb73c7,64aea9d0f615b6559c281482,64bedf7dca7553137f9b5ef6,right,1,0.3,0.3714,0,0.047639066,0.148,,,,,,291,0,291,0,1,,,,,
,,842616,001,2023-07-24_14h31.30.091,arm3_eps,2022.2.5,Win32,59.89099838,6169e8a8311d269013eb73c7,64aea9d0f615b6559c281482,64bedf7dca7553137f9b5ef6,right,1,0.3,0.3714,0,0.05764065,0.1659,,,,,,292,0,292,0,1,,,,,
,,842616,001,2023-07-24_14h31.30.091,arm3_eps,2022.2.5,Win32,59.89099838,6169e8a8311d269013eb73c7,64aea9d0f615b6559c281482,64bedf7dca7553137f9b5ef6,right,1,0.3,0.3714,0,0.063454386,0.1581,,,,,,293,0,293,0,1,,,,,
,,842616,001,2023-07-24_14h31.30.091,arm3_eps,2022.2.5,Win32,59.89099838,6169e8a8311d269013eb73c7,64aea9d0f615b6559c281482,64bedf7dca7553137f9b5ef6,right,1,0.3,0.3714,0,0.079954241,0.1448,,,,,,294,0,294,0,1,,,,,
,,842616,001,2023-07-24_14h31.30.091,arm3_eps,2022.2.5,Win32,59.89099838,6169e8a8311d269013eb73c7,64aea9d0f615b6559c281482,64bedf7dca7553137f9b5ef6,right,1,0.3,0.3714,0,0.106088322,0.1491,,,,,,295,0,295,0,1,,,,,
,,842616,001,2023-07-24_14h31.30.091,arm3_eps,2022.2.5,Win32,59.89099838,6169e8a8311d269013eb73c7,64aea9d0f615b6559c281482,64bedf7dca7553137f9b5ef6,right,1,0.3,0.3714,0,0.158945272,0.1775,,,,,,296,0,296,0,1,,,,,
,,842616,001,2023-07-24_14h31.30.091,arm3_eps,2022.2.5,Win32,59.89099838,6169e8a8311d269013eb73c7,64aea9d0f615b6559c281482,64bedf7dca7553137f9b5ef6,right,1,0.3,0.3714,0,0.171279219,0.1636,,,,,,297,0,297,0,1,,,,,
,,842616,001,2023-07-24_14h31.30.091,arm3_eps,2022.2.5,Win32,59.89099838,6169e8a8311d269013eb73c7,64aea9d0f615b6559c281482,64bedf7dca7553137f9b5ef6,right,1,0.3,0.3714,0,0.185689436,0.1442,,,,,,298,0,298,0,1,,,,,
,,842616,001,2023-07-24_14h31.30.091,arm3_eps,2022.2.5,Win32,59.89099838,6169e8a8311d269013eb73c7,64aea9d0f615b6559c281482,64bedf7dca7553137f9b5ef6,up,1,0.3,0.3714,0,0,0.899,,,,,,299,0,299,0,1,,,,,
,,842616,001,2023-07-24_14h31.30.091,arm3_eps,2022.2.5,Win32,59.89099838,6169e8a8311d269013eb73c7,64aea9d0f615b6559c281482,64bedf7dca7553137f9b5ef6,right,1,0.3,0.3714,0,-0.012479768,0.4368,,,,,,300,0,300,0,1,,,,,
,,842616,001,2023-07-24_14h31.30.091,arm3_eps,2022.2.5,Win32,59.89099838,6169e8a8311d269013eb73c7,64aea9d0f615b6559c281482,64bedf7dca7553137f9b5ef6,right,1,0.3,0.3714,0,-0.011181026,0.1911,,,,,,301,0,301,0,1,,,,,
,,842616,001,2023-07-24_14h31.30.091,arm3_eps,2022.2.5,Win32,59.89099838,6169e8a8311d269013eb73c7,64aea9d0f615b6559c281482,64bedf7dca7553137f9b5ef6,right,1,0.3,0.3714,0,0.030198903,0.1496,,,,,,302,0,302,0,1,,,,,
,,842616,001,2023-07-24_14h31.30.091,arm3_eps,2022.2.5,Win32,59.89099838,6169e8a8311d269013eb73c7,64aea9d0f615b6559c281482,64bedf7dca7553137f9b5ef6,right,1,0.3,0.3714,0,0.040445298,0.1777,,,,,,303,0,303,0,1,,,,,
,,842616,001,2023-07-24_14h31.30.091,arm3_eps,2022.2.5,Win32,59.89099838,6169e8a8311d269013eb73c7,64aea9d0f615b6559c281482,64bedf7dca7553137f9b5ef6,right,1,0.3,0.3714,0,0.059877786,0.1467,,,,,,304,0,304,0,1,,,,,
,,842616,001,2023-07-24_14h31.30.091,arm3_eps,2022.2.5,Win32,59.89099838,6169e8a8311d269013eb73c7,64aea9d0f615b6559c281482,64bedf7dca7553137f9b5ef6,right,1,0.3,0.3714,0,0.045546799,0.1652,,,,,,305,0,305,0,1,,,,,
,,842616,001,2023-07-24_14h31.30.091,arm3_eps,2022.2.5,Win32,59.89099838,6169e8a8311d269013eb73c7,64aea9d0f615b6559c281482,64bedf7dca7553137f9b5ef6,right,1,0.3,0.3714,0,0.060313183,0.1608,,,,,,306,0,306,0,1,,,,,
,,842616,001,2023-07-24_14h31.30.091,arm3_eps,2022.2.5,Win32,59.89099838,6169e8a8311d269013eb73c7,64aea9d0f615b6559c281482,64bedf7dca7553137f9b5ef6,right,1,0.3,0.3714,0,0.087172175,0.1572,,,,,,307,0,307,0,1,,,,,
,,842616,001,2023-07-24_14h31.30.091,arm3_eps,2022.2.5,Win32,59.89099838,6169e8a8311d269013eb73c7,64aea9d0f615b6559c281482,64bedf7dca7553137f9b5ef6,right,1,0.3,0.3714,0,0.08087341,0.1657,,,,,,308,0,308,0,1,,,,,
,,842616,001,2023-07-24_14h31.30.091,arm3_eps,2022.2.5,Win32,59.89099838,6169e8a8311d269013eb73c7,64aea9d0f615b6559c281482,64bedf7dca7553137f9b5ef6,right,1,0.3,0.3714,0,0.109841271,0.176,,,,,,309,0,309,0,1,,,,,
,,842616,001,2023-07-24_14h31.30.091,arm3_eps,2022.2.5,Win32,59.89099838,6169e8a8311d269013eb73c7,64aea9d0f615b6559c281482,64bedf7dca7553137f9b5ef6,right,1,0.3,0.3714,0,0.129168997,0.1596,,,,,,310,0,310,0,1,,,,,
,,842616,001,2023-07-24_14h31.30.091,arm3_eps,2022.2.5,Win32,59.89099838,6169e8a8311d269013eb73c7,64aea9d0f615b6559c281482,64bedf7dca7553137f9b5ef6,right,1,0.3,0.3714,0,0.174635989,0.149,,,,,,311,0,311,0,1,,,,,
,,842616,001,2023-07-24_14h31.30.091,arm3_eps,2022.2.5,Win32,59.89099838,6169e8a8311d269013eb73c7,64aea9d0f615b6559c281482,64bedf7dca7553137f9b5ef6,up,-1,0.3,0.3714,0,0,0.8271,,,,,,312,0,312,0,1,,,,,
,,842616,001,2023-07-24_14h31.30.091,arm3_eps,2022.2.5,Win32,59.89099838,6169e8a8311d269013eb73c7,64aea9d0f615b6559c281482,64bedf7dca7553137f9b5ef6,right,-1,0.3,0.3714,0,-0.026972069,0.4075,,,,,,313,0,313,0,1,,,,,
,,842616,001,2023-07-24_14h31.30.091,arm3_eps,2022.2.5,Win32,59.89099838,6169e8a8311d269013eb73c7,64aea9d0f615b6559c281482,64bedf7dca7553137f9b5ef6,right,-1,0.3,0.3714,0,-0.018806582,0.1603,,,,,,314,0,314,0,1,,,,,
,,842616,001,2023-07-24_14h31.30.091,arm3_eps,2022.2.5,Win32,59.89099838,6169e8a8311d269013eb73c7,64aea9d0f615b6559c281482,64bedf7dca7553137f9b5ef6,right,-1,0.3,0.3714,0,-0.026072247,0.1601,,,,,,315,0,315,0,1,,,,,
,,842616,001,2023-07-24_14h31.30.091,arm3_eps,2022.2.5,Win32,59.89099838,6169e8a8311d269013eb73c7,64aea9d0f615b6559c281482,64bedf7dca7553137f9b5ef6,right,-1,0.3,0.3714,0,-0.037195781,0.149,,,,,,316,0,316,0,1,,,,,
,,842616,001,2023-07-24_14h31.30.091,arm3_eps,2022.2.5,Win32,59.89099838,6169e8a8311d269013eb73c7,64aea9d0f615b6559c281482,64bedf7dca7553137f9b5ef6,right,-1,0.3,0.3714,0,-0.079084647,0.2075,,,,,,317,0,317,0,1,,,,,
,,842616,001,2023-07-24_14h31.30.091,arm3_eps,2022.2.5,Win32,59.89099838,6169e8a8311d269013eb73c7,64aea9d0f615b6559c281482,64bedf7dca7553137f9b5ef6,right,-1,0.3,0.3714,0,-0.092230874,0.127,,,,,,318,0,318,0,1,,,,,
,,842616,001,2023-07-24_14h31.30.091,arm3_eps,2022.2.5,Win32,59.89099838,6169e8a8311d269013eb73c7,64aea9d0f615b6559c281482,64bedf7dca7553137f9b5ef6,right,-1,0.3,0.3714,0,-0.13362316,0.1439,,,,,,319,0,319,0,1,,,,,
,,842616,001,2023-07-24_14h31.30.091,arm3_eps,2022.2.5,Win32,59.89099838,6169e8a8311d269013eb73c7,64aea9d0f615b6559c281482,64bedf7dca7553137f9b5ef6,right,-1,0.3,0.3714,0,-0.122160104,0.1436,,,,,,320,0,320,0,1,,,,,
,,842616,001,2023-07-24_14h31.30.091,arm3_eps,2022.2.5,Win32,59.89099838,6169e8a8311d269013eb73c7,64aea9d0f615b6559c281482,64bedf7dca7553137f9b5ef6,right,-1,0.3,0.3714,0,-0.130160043,0.1494,,,,,,321,0,321,0,1,,,,,
,,842616,001,2023-07-24_14h31.30.091,arm3_eps,2022.2.5,Win32,59.89099838,6169e8a8311d269013eb73c7,64aea9d0f615b6559c281482,64bedf7dca7553137f9b5ef6,right,-1,0.3,0.3714,0,-0.117452757,0.1619,,,,,,322,0,322,0,1,,,,,
,,842616,001,2023-07-24_14h31.30.091,arm3_eps,2022.2.5,Win32,59.89099838,6169e8a8311d269013eb73c7,64aea9d0f615b6559c281482,64bedf7dca7553137f9b5ef6,right,-1,0.3,0.3714,0,-0.139507154,0.1434,,,,,,323,0,323,0,1,,,,,
,,842616,001,2023-07-24_14h31.30.091,arm3_eps,2022.2.5,Win32,59.89099838,6169e8a8311d269013eb73c7,64aea9d0f615b6559c281482,64bedf7dca7553137f9b5ef6,right,-1,0.3,0.3714,0,-0.147910311,0.1619,,,,,,324,0,324,0,1,,,,,
,,842616,001,2023-07-24_14h31.30.091,arm3_eps,2022.2.5,Win32,59.89099838,6169e8a8311d269013eb73c7,64aea9d0f615b6559c281482,64bedf7dca7553137f9b5ef6,down,-1,0.3,0.3714,0,0,0.4098,,,,,,325,0,325,0,1,,,,,
,,842616,001,2023-07-24_14h31.30.091,arm3_eps,2022.2.5,Win32,59.89099838,6169e8a8311d269013eb73c7,64aea9d0f615b6559c281482,64bedf7dca7553137f9b5ef6,right,-1,0.3,0.3714,0,-0.019027411,0.5407,,,,,,326,0,326,0,1,,,,,
,,842616,001,2023-07-24_14h31.30.091,arm3_eps,2022.2.5,Win32,59.89099838,6169e8a8311d269013eb73c7,64aea9d0f615b6559c281482,64bedf7dca7553137f9b5ef6,right,-1,0.3,0.3714,0,-0.019897049,0.1946,,,,,,327,0,327,0,1,,,,,
,,842616,001,2023-07-24_14h31.30.091,arm3_eps,2022.2.5,Win32,59.89099838,6169e8a8311d269013eb73c7,64aea9d0f615b6559c281482,64bedf7dca7553137f9b5ef6,right,-1,0.3,0.3714,0,-0.065774955,0.1606,,,,,,328,0,328,0,1,,,,,
,,842616,001,2023-07-24_14h31.30.091,arm3_eps,2022.2.5,Win32,59.89099838,6169e8a8311d269013eb73c7,64aea9d0f615b6559c281482,64bedf7dca7553137f9b5ef6,right,-1,0.3,0.3714,0,-0.052920372,0.1604,,,,,,329,0,329,0,1,,,,,
,,842616,001,2023-07-24_14h31.30.091,arm3_eps,2022.2.5,Win32,59.89099838,6169e8a8311d269013eb73c7,64aea9d0f615b6559c281482,64bedf7dca7553137f9b5ef6,right,-1,0.3,0.3714,0,-0.058355568,0.146,,,,,,330,0,330,0,1,,,,,
,,842616,001,2023-07-24_14h31.30.091,arm3_eps,2022.2.5,Win32,59.89099838,6169e8a8311d269013eb73c7,64aea9d0f615b6559c281482,64bedf7dca7553137f9b5ef6,right,-1,0.3,0.3714,0,-0.051565875,0.1582,,,,,,331,0,331,0,1,,,,,
,,842616,001,2023-07-24_14h31.30.091,arm3_eps,2022.2.5,Win32,59.89099838,6169e8a8311d269013eb73c7,64aea9d0f615b6559c281482,64bedf7dca7553137f9b5ef6,right,-1,0.3,0.3714,0,-0.080023418,0.1558,,,,,,332,0,332,0,1,,,,,
,,842616,001,2023-07-24_14h31.30.091,arm3_eps,2022.2.5,Win32,59.89099838,6169e8a8311d269013eb73c7,64aea9d0f615b6559c281482,64bedf7dca7553137f9b5ef6,right,-1,0.3,0.3714,0,-0.089986004,0.1588,,,,,,333,0,333,0,1,,,,,
,,842616,001,2023-07-24_14h31.30.091,arm3_eps,2022.2.5,Win32,59.89099838,6169e8a8311d269013eb73c7,64aea9d0f615b6559c281482,64bedf7dca7553137f9b5ef6,right,-1,0.3,0.3714,0,-0.087079779,0.1429,,,,,,334,0,334,0,1,,,,,
,,842616,001,2023-07-24_14h31.30.091,arm3_eps,2022.2.5,Win32,59.89099838,6169e8a8311d269013eb73c7,64aea9d0f615b6559c281482,64bedf7dca7553137f9b5ef6,right,-1,0.3,0.3714,0,-0.098596701,0.1642,,,,,,335,0,335,0,1,,,,,
,,842616,001,2023-07-24_14h31.30.091,arm3_eps,2022.2.5,Win32,59.89099838,6169e8a8311d269013eb73c7,64aea9d0f615b6559c281482,64bedf7dca7553137f9b5ef6,right,-1,0.3,0.3714,0,-0.117650616,0.1612,,,,,,336,0,336,0,1,,,,,
,,842616,001,2023-07-24_14h31.30.091,arm3_eps,2022.2.5,Win32,59.89099838,6169e8a8311d269013eb73c7,64aea9d0f615b6559c281482,64bedf7dca7553137f9b5ef6,right,-1,0.3,0.3714,0,-0.126929386,0.1754,,,,,,337,0,337,0,1,,,,,
,,842616,001,2023-07-24_14h31.30.091,arm3_eps,2022.2.5,Win32,59.89099838,6169e8a8311d269013eb73c7,64aea9d0f615b6559c281482,64bedf7dca7553137f9b5ef6,down,-1,0.3,0.3714,1,0,0.6113,,,,,,338,0,338,0,1,,,,,
,,842616,001,2023-07-24_14h31.30.091,arm3_eps,2022.2.5,Win32,59.89099838,6169e8a8311d269013eb73c7,64aea9d0f615b6559c281482,64bedf7dca7553137f9b5ef6,right,-1,0.3,0.3714,1,-0.024901923,0.8964,,,,,,339,0,339,0,1,,,,,
,,842616,001,2023-07-24_14h31.30.091,arm3_eps,2022.2.5,Win32,59.89099838,6169e8a8311d269013eb73c7,64aea9d0f615b6559c281482,64bedf7dca7553137f9b5ef6,right,-1,0.3,0.3714,1,-0.043154107,0.1675,,,,,,340,0,340,0,1,,,,,
,,842616,001,2023-07-24_14h31.30.091,arm3_eps,2022.2.5,Win32,59.89099838,6169e8a8311d269013eb73c7,64aea9d0f615b6559c281482,64bedf7dca7553137f9b5ef6,right,-1,0.3,0.3714,1,-0.06469361,0.1833,,,,,,341,0,341,0,1,,,,,
,,842616,001,2023-07-24_14h31.30.091,arm3_eps,2022.2.5,Win32,59.89099838,6169e8a8311d269013eb73c7,64aea9d0f615b6559c281482,64bedf7dca7553137f9b5ef6,right,-1,0.3,0.3714,1,-0.046686113,0.1844,,,,,,342,0,342,0,1,,,,,
,,842616,001,2023-07-24_14h31.30.091,arm3_eps,2022.2.5,Win32,59.89099838,6169e8a8311d269013eb73c7,64aea9d0f615b6559c281482,64bedf7dca7553137f9b5ef6,right,-1,0.3,0.3714,1,-0.02703684,0.15,,,,,,343,0,343,0,1,,,,,
,,842616,001,2023-07-24_14h31.30.091,arm3_eps,2022.2.5,Win32,59.89099838,6169e8a8311d269013eb73c7,64aea9d0f615b6559c281482,64bedf7dca7553137f9b5ef6,right,-1,0.3,0.3714,1,-0.040039057,0.1658,,,,,,344,0,344,0,1,,,,,
,,842616,001,2023-07-24_14h31.30.091,arm3_eps,2022.2.5,Win32,59.89099838,6169e8a8311d269013eb73c7,64aea9d0f615b6559c281482,64bedf7dca7553137f9b5ef6,right,-1,0.3,0.3714,1,-0.018792798,0.1551,,,,,,345,0,345,0,1,,,,,
,,842616,001,2023-07-24_14h31.30.091,arm3_eps,2022.2.5,Win32,59.89099838,6169e8a8311d269013eb73c7,64aea9d0f615b6559c281482,64bedf7dca7553137f9b5ef6,right,-1,0.3,0.3714,1,-0.045543546,0.1621,,,,,,346,0,346,0,1,,,,,
,,842616,001,2023-07-24_14h31.30.091,arm3_eps,2022.2.5,Win32,59.89099838,6169e8a8311d269013eb73c7,64aea9d0f615b6559c281482,64bedf7dca7553137f9b5ef6,right,-1,0.3,0.3714,1,-0.070492348,0.1637,,,,,,347,0,347,0,1,,,,,
,,842616,001,2023-07-24_14h31.30.091,arm3_eps,2022.2.5,Win32,59.89099838,6169e8a8311d269013eb73c7,64aea9d0f615b6559c281482,64bedf7dca7553137f9b5ef6,right,-1,0.3,0.3714,1,-0.073726168,0.1805,,,,,,348,0,348,0,1,,,,,
,,842616,001,2023-07-24_14h31.30.091,arm3_eps,2022.2.5,Win32,59.89099838,6169e8a8311d269013eb73c7,64aea9d0f615b6559c281482,64bedf7dca7553137f9b5ef6,right,-1,0.3,0.3714,1,-0.104810419,0.1512,,,,,,349,0,349,0,1,,,,,
,,842616,001,2023-07-24_14h31.30.091,arm3_eps,2022.2.5,Win32,59.89099838,6169e8a8311d269013eb73c7,64aea9d0f615b6559c281482,64bedf7dca7553137f9b5ef6,right,-1,0.3,0.3714,1,-0.096555965,0.1622,,,,,,350,0,350,0,1,,,,,
,,842616,001,2023-07-24_14h31.30.091,arm3_eps,2022.2.5,Win32,59.89099838,6169e8a8311d269013eb73c7,64aea9d0f615b6559c281482,64bedf7dca7553137f9b5ef6,down,1,0.3,0.3714,2,0,0.6189,,,,,,351,0,351,0,1,,,,,
,,842616,001,2023-07-24_14h31.30.091,arm3_eps,2022.2.5,Win32,59.89099838,6169e8a8311d269013eb73c7,64aea9d0f615b6559c281482,64bedf7dca7553137f9b5ef6,right,1,0.3,0.3714,2,0.013747052,0.3313,,,,,,352,0,352,0,1,,,,,
,,842616,001,2023-07-24_14h31.30.091,arm3_eps,2022.2.5,Win32,59.89099838,6169e8a8311d269013eb73c7,64aea9d0f615b6559c281482,64bedf7dca7553137f9b5ef6,right,1,0.3,0.3714,2,0.00664076,0.1676,,,,,,353,0,353,0,1,,,,,
,,842616,001,2023-07-24_14h31.30.091,arm3_eps,2022.2.5,Win32,59.89099838,6169e8a8311d269013eb73c7,64aea9d0f615b6559c281482,64bedf7dca7553137f9b5ef6,right,1,0.3,0.3714,2,0.02584689,0.165,,,,,,354,0,354,0,1,,,,,
,,842616,001,2023-07-24_14h31.30.091,arm3_eps,2022.2.5,Win32,59.89099838,6169e8a8311d269013eb73c7,64aea9d0f615b6559c281482,64bedf7dca7553137f9b5ef6,right,1,0.3,0.3714,2,0.053147548,0.1286,,,,,,355,0,355,0,1,,,,,
,,842616,001,2023-07-24_14h31.30.091,arm3_eps,2022.2.5,Win32,59.89099838,6169e8a8311d269013eb73c7,64aea9d0f615b6559c281482,64bedf7dca7553137f9b5ef6,right,1,0.3,0.3714,2,0.072391487,0.151,,,,,,356,0,356,0,1,,,,,
,,842616,001,2023-07-24_14h31.30.091,arm3_eps,2022.2.5,Win32,59.89099838,6169e8a8311d269013eb73c7,64aea9d0f615b6559c281482,64bedf7dca7553137f9b5ef6,right,1,0.3,0.3714,2,0.050460669,0.1669,,,,,,357,0,357,0,1,,,,,
,,842616,001,2023-07-24_14h31.30.091,arm3_eps,2022.2.5,Win32,59.89099838,6169e8a8311d269013eb73c7,64aea9d0f615b6559c281482,64bedf7dca7553137f9b5ef6,right,1,0.3,0.3714,2,0.046766193,0.1508,,,,,,358,0,358,0,1,,,,,
,,842616,001,2023-07-24_14h31.30.091,arm3_eps,2022.2.5,Win32,59.89099838,6169e8a8311d269013eb73c7,64aea9d0f615b6559c281482,64bedf7dca7553137f9b5ef6,right,1,0.3,0.3714,2,0.057713072,0.1653,,,,,,359,0,359,0,1,,,,,
,,842616,001,2023-07-24_14h31.30.091,arm3_eps,2022.2.5,Win32,59.89099838,6169e8a8311d269013eb73c7,64aea9d0f615b6559c281482,64bedf7dca7553137f9b5ef6,right,1,0.3,0.3714,2,0.091122694,0.1673,,,,,,360,0,360,0,1,,,,,
,,842616,001,2023-07-24_14h31.30.091,arm3_eps,2022.2.5,Win32,59.89099838,6169e8a8311d269013eb73c7,64aea9d0f615b6559c281482,64bedf7dca7553137f9b5ef6,right,1,0.3,0.3714,2,0.082477662,0.1584,,,,,,361,0,361,0,1,,,,,
,,842616,001,2023-07-24_14h31.30.091,arm3_eps,2022.2.5,Win32,59.89099838,6169e8a8311d269013eb73c7,64aea9d0f615b6559c281482,64bedf7dca7553137f9b5ef6,right,1,0.3,0.3714,2,0.091471419,0.1638,,,,,,362,0,362,0,1,,,,,
,,842616,001,2023-07-24_14h31.30.091,arm3_eps,2022.2.5,Win32,59.89099838,6169e8a8311d269013eb73c7,64aea9d0f615b6559c281482,64bedf7dca7553137f9b5ef6,right,1,0.3,0.3714,2,0.135324126,0.1674,,,,,,363,0,363,0,1,,,,,
,,842616,001,2023-07-24_14h31.30.091,arm3_eps,2022.2.5,Win32,59.89099838,6169e8a8311d269013eb73c7,64aea9d0f615b6559c281482,64bedf7dca7553137f9b5ef6,up,1,0.3,0.3714,2,0,0.7833,,,,,,364,0,364,0,1,,,,,
,,842616,001,2023-07-24_14h31.30.091,arm3_eps,2022.2.5,Win32,59.89099838,6169e8a8311d269013eb73c7,64aea9d0f615b6559c281482,64bedf7dca7553137f9b5ef6,right,1,0.3,0.3714,2,-0.00482559,0.3633,,,,,,365,0,365,0,1,,,,,
,,842616,001,2023-07-24_14h31.30.091,arm3_eps,2022.2.5,Win32,59.89099838,6169e8a8311d269013eb73c7,64aea9d0f615b6559c281482,64bedf7dca7553137f9b5ef6,right,1,0.3,0.3714,2,0.000329365,0.2269,,,,,,366,0,366,0,1,,,,,
,,842616,001,2023-07-24_14h31.30.091,arm3_eps,2022.2.5,Win32,59.89099838,6169e8a8311d269013eb73c7,64aea9d0f615b6559c281482,64bedf7dca7553137f9b5ef6,right,1,0.3,0.3714,2,0.028834014,0.1604,,,,,,367,0,367,0,1,,,,,
,,842616,001,2023-07-24_14h31.30.091,arm3_eps,2022.2.5,Win32,59.89099838,6169e8a8311d269013eb73c7,64aea9d0f615b6559c281482,64bedf7dca7553137f9b5ef6,right,1,0.3,0.3714,2,0.039831598,0.1597,,,,,,368,0,368,0,1,,,,,
,,842616,001,2023-07-24_14h31.30.091,arm3_eps,2022.2.5,Win32,59.89099838,6169e8a8311d269013eb73c7,64aea9d0f615b6559c281482,64bedf7dca7553137f9b5ef6,right,1,0.3,0.3714,2,0.064450153,0.1632,,,,,,369,0,369,0,1,,,,,
,,842616,001,2023-07-24_14h31.30.091,arm3_eps,2022.2.5,Win32,59.89099838,6169e8a8311d269013eb73c7,64aea9d0f615b6559c281482,64bedf7dca7553137f9b5ef6,,,,,,,,,,,,,,,,,,0,0,0,0,1
space,3.5249,842616,001,2023-07-24_14h31.30.091,arm3_eps,2022.2.5,Win32,59.89099838,6169e8a8311d269013eb73c7,64aea9d0f615b6559c281482,64bedf7dca7553137f9b5ef6,right,1,0.3,0.4357,2,0.043980231,0.847,,,,,,0,0,0,0,1,,,,,
,,842616,001,2023-07-24_14h31.30.091,arm3_eps,2022.2.5,Win32,59.89099838,6169e8a8311d269013eb73c7,64aea9d0f615b6559c281482,64bedf7dca7553137f9b5ef6,right,1,0.3,0.4357,2,0.023699267,0.1931,,,,,,1,0,1,0,1,,,,,
,,842616,001,2023-07-24_14h31.30.091,arm3_eps,2022.2.5,Win32,59.89099838,6169e8a8311d269013eb73c7,64aea9d0f615b6559c281482,64bedf7dca7553137f9b5ef6,right,1,0.3,0.4357,2,0.019670288,0.7927,,,,,,2,0,2,0,1,,,,,
,,842616,001,2023-07-24_14h31.30.091,arm3_eps,2022.2.5,Win32,59.89099838,6169e8a8311d269013eb73c7,64aea9d0f615b6559c281482,64bedf7dca7553137f9b5ef6,right,1,0.3,0.4357,2,0.041772192,0.1779,,,,,,3,0,3,0,1,,,,,
,,842616,001,2023-07-24_14h31.30.091,arm3_eps,2022.2.5,Win32,59.89099838,6169e8a8311d269013eb73c7,64aea9d0f615b6559c281482,64bedf7dca7553137f9b5ef6,right,1,0.3,0.4357,2,0.092566346,0.1447,,,,,,4,0,4,0,1,,,,,
,,842616,001,2023-07-24_14h31.30.091,arm3_eps,2022.2.5,Win32,59.89099838,6169e8a8311d269013eb73c7,64aea9d0f615b6559c281482,64bedf7dca7553137f9b5ef6,right,1,0.3,0.4357,2,0.105536616,0.1408,,,,,,5,0,5,0,1,,,,,
,,842616,001,2023-07-24_14h31.30.091,arm3_eps,2022.2.5,Win32,59.89099838,6169e8a8311d269013eb73c7,64aea9d0f615b6559c281482,64bedf7dca7553137f9b5ef6,right,1,0.3,0.4357,2,0.125270369,0.177,,,,,,6,0,6,0,1,,,,,
,,842616,001,2023-07-24_14h31.30.091,arm3_eps,2022.2.5,Win32,59.89099838,6169e8a8311d269013eb73c7,64aea9d0f615b6559c281482,64bedf7dca7553137f9b5ef6,right,1,0.3,0.4357,2,0.131513904,0.161,,,,,,7,0,7,0,1,,,,,
,,842616,001,2023-07-24_14h31.30.091,arm3_eps,2022.2.5,Win32,59.89099838,6169e8a8311d269013eb73c7,64aea9d0f615b6559c281482,64bedf7dca7553137f9b5ef6,right,1,0.3,0.4357,2,0.142510819,0.1306,,,,,,8,0,8,0,1,,,,,
,,842616,001,2023-07-24_14h31.30.091,arm3_eps,2022.2.5,Win32,59.89099838,6169e8a8311d269013eb73c7,64aea9d0f615b6559c281482,64bedf7dca7553137f9b5ef6,right,1,0.3,0.4357,2,0.186482921,0.1935,,,,,,9,0,9,0,1,,,,,
,,842616,001,2023-07-24_14h31.30.091,arm3_eps,2022.2.5,Win32,59.89099838,6169e8a8311d269013eb73c7,64aea9d0f615b6559c281482,64bedf7dca7553137f9b5ef6,right,1,0.3,0.4357,2,0.203254161,0.1762,,,,,,10,0,10,0,1,,,,,
,,842616,001,2023-07-24_14h31.30.091,arm3_eps,2022.2.5,Win32,59.89099838,6169e8a8311d269013eb73c7,64aea9d0f615b6559c281482,64bedf7dca7553137f9b5ef6,right,1,0.3,0.4357,2,0.187405357,0.1646,,,,,,11,0,11,0,1,,,,,
,,842616,001,2023-07-24_14h31.30.091,arm3_eps,2022.2.5,Win32,59.89099838,6169e8a8311d269013eb73c7,64aea9d0f615b6559c281482,64bedf7dca7553137f9b5ef6,up,1,0.3,0.4357,2,0,0.5936,,,,,,12,0,12,0,1,,,,,
,,842616,001,2023-07-24_14h31.30.091,arm3_eps,2022.2.5,Win32,59.89099838,6169e8a8311d269013eb73c7,64aea9d0f615b6559c281482,64bedf7dca7553137f9b5ef6,right,1,0.3,0.4357,2,0.022172516,0.6226,,,,,,13,0,13,0,1,,,,,
,,842616,001,2023-07-24_14h31.30.091,arm3_eps,2022.2.5,Win32,59.89099838,6169e8a8311d269013eb73c7,64aea9d0f615b6559c281482,64bedf7dca7553137f9b5ef6,right,1,0.3,0.4357,2,0.019121669,0.2092,,,,,,14,0,14,0,1,,,,,
,,842616,001,2023-07-24_14h31.30.091,arm3_eps,2022.2.5,Win32,59.89099838,6169e8a8311d269013eb73c7,64aea9d0f615b6559c281482,64bedf7dca7553137f9b5ef6,right,1,0.3,0.4357,2,0.01127908,0.1473,,,,,,15,0,15,0,1,,,,,
,,842616,001,2023-07-24_14h31.30.091,arm3_eps,2022.2.5,Win32,59.89099838,6169e8a8311d269013eb73c7,64aea9d0f615b6559c281482,64bedf7dca7553137f9b5ef6,right,1,0.3,0.4357,2,-0.018456867,0.177,,,,,,16,0,16,0,1,,,,,
,,842616,001,2023-07-24_14h31.30.091,arm3_eps,2022.2.5,Win32,59.89099838,6169e8a8311d269013eb73c7,64aea9d0f615b6559c281482,64bedf7dca7553137f9b5ef6,right,1,0.3,0.4357,2,-0.00874713,0.1651,,,,,,17,0,17,0,1,,,,,
,,842616,001,2023-07-24_14h31.30.091,arm3_eps,2022.2.5,Win32,59.89099838,6169e8a8311d269013eb73c7,64aea9d0f615b6559c281482,64bedf7dca7553137f9b5ef6,right,1,0.3,0.4357,2,0.018295033,0.1598,,,,,,18,0,18,0,1,,,,,
,,842616,001,2023-07-24_14h31.30.091,arm3_eps,2022.2.5,Win32,59.89099838,6169e8a8311d269013eb73c7,64aea9d0f615b6559c281482,64bedf7dca7553137f9b5ef6,right,1,0.3,0.4357,2,0.02543565,0.1817,,,,,,19,0,19,0,1,,,,,
,,842616,001,2023-07-24_14h31.30.091,arm3_eps,2022.2.5,Win32,59.89099838,6169e8a8311d269013eb73c7,64aea9d0f615b6559c281482,64bedf7dca7553137f9b5ef6,right,1,0.3,0.4357,2,0.015258943,0.1937,,,,,,20,0,20,0,1,,,,,
,,842616,001,2023-07-24_14h31.30.091,arm3_eps,2022.2.5,Win32,59.89099838,6169e8a8311d269013eb73c7,64aea9d0f615b6559c281482,64bedf7dca7553137f9b5ef6,right,1,0.3,0.4357,2,0.049850629,0.1421,,,,,,21,0,21,0,1,,,,,
,,842616,001,2023-07-24_14h31.30.091,arm3_eps,2022.2.5,Win32,59.89099838,6169e8a8311d269013eb73c7,64aea9d0f615b6559c281482,64bedf7dca7553137f9b5ef6,right,1,0.3,0.4357,2,0.048389569,0.1731,,,,,,22,0,22,0,1,,,,,
,,842616,001,2023-07-24_14h31.30.091,arm3_eps,2022.2.5,Win32,59.89099838,6169e8a8311d269013eb73c7,64aea9d0f615b6559c281482,64bedf7dca7553137f9b5ef6,right,1,0.3,0.4357,2,0.057415604,0.1812,,,,,,23,0,23,0,1,,,,,
,,842616,001,2023-07-24_14h31.30.091,arm3_eps,2022.2.5,Win32,59.89099838,6169e8a8311d269013eb73c7,64aea9d0f615b6559c281482,64bedf7dca7553137f9b5ef6,right,1,0.3,0.4357,2,0.075062583,0.1788,,,,,,24,0,24,0,1,,,,,
,,842616,001,2023-07-24_14h31.30.091,arm3_eps,2022.2.5,Win32,59.89099838,6169e8a8311d269013eb73c7,64aea9d0f615b6559c281482,64bedf7dca7553137f9b5ef6,up,1,0.3,0.4357,2,0,0.5439,,,,,,25,0,25,0,1,,,,,
,,842616,001,2023-07-24_14h31.30.091,arm3_eps,2022.2.5,Win32,59.89099838,6169e8a8311d269013eb73c7,64aea9d0f615b6559c281482,64bedf7dca7553137f9b5ef6,right,1,0.3,0.4357,2,-0.009763866,0.4236,,,,,,26,0,26,0,1,,,,,
,,842616,001,2023-07-24_14h31.30.091,arm3_eps,2022.2.5,Win32,59.89099838,6169e8a8311d269013eb73c7,64aea9d0f615b6559c281482,64bedf7dca7553137f9b5ef6,right,1,0.3,0.4357,2,-0.009061006,0.2267,,,,,,27,0,27,0,1,,,,,
,,842616,001,2023-07-24_14h31.30.091,arm3_eps,2022.2.5,Win32,59.89099838,6169e8a8311d269013eb73c7,64aea9d0f615b6559c281482,64bedf7dca7553137f9b5ef6,right,1,0.3,0.4357,2,-0.020601044,0.1794,,,,,,28,0,28,0,1,,,,,
,,842616,001,2023-07-24_14h31.30.091,arm3_eps,2022.2.5,Win32,59.89099838,6169e8a8311d269013eb73c7,64aea9d0f615b6559c281482,64bedf7dca7553137f9b5ef6,right,1,0.3,0.4357,2,-0.004444803,0.2112,,,,,,29,0,29,0,1,,,,,
,,842616,001,2023-07-24_14h31.30.091,arm3_eps,2022.2.5,Win32,59.89099838,6169e8a8311d269013eb73c7,64aea9d0f615b6559c281482,64bedf7dca7553137f9b5ef6,right,1,0.3,0.4357,2,-0.012264336,0.1749,,,,,,30,0,30,0,1,,,,,
,,842616,001,2023-07-24_14h31.30.091,arm3_eps,2022.2.5,Win32,59.89099838,6169e8a8311d269013eb73c7,64aea9d0f615b6559c281482,64bedf7dca7553137f9b5ef6,right,1,0.3,0.4357,2,-0.024479377,0.1942,,,,,,31,0,31,0,1,,,,,
,,842616,001,2023-07-24_14h31.30.091,arm3_eps,2022.2.5,Win32,59.89099838,6169e8a8311d269013eb73c7,64aea9d0f615b6559c281482,64bedf7dca7553137f9b5ef6,right,1,0.3,0.4357,2,-0.046952412,0.1773,,,,,,32,0,32,0,1,,,,,
,,842616,001,2023-07-24_14h31.30.091,arm3_eps,2022.2.5,Win32,59.89099838,6169e8a8311d269013eb73c7,64aea9d0f615b6559c281482,64bedf7dca7553137f9b5ef6,right,1,0.3,0.4357,2,-0.054497606,0.194,,,,,,33,0,33,0,1,,,,,
,,842616,001,2023-07-24_14h31.30.091,arm3_eps,2022.2.5,Win32,59.89099838,6169e8a8311d269013eb73c7,64aea9d0f615b6559c281482,64bedf7dca7553137f9b5ef6,right,1,0.3,0.4357,2,-0.053921309,0.4036,,,,,,34,0,34,0,1,,,,,
,,842616,001,2023-07-24_14h31.30.091,arm3_eps,2022.2.5,Win32,59.89099838,6169e8a8311d269013eb73c7,64aea9d0f615b6559c281482,64bedf7dca7553137f9b5ef6,right,1,0.3,0.4357,2,-0.032520065,0.0018,,,,,,35,0,35,0,1,,,,,
,,842616,001,2023-07-24_14h31.30.091,arm3_eps,2022.2.5,Win32,59.89099838,6169e8a8311d269013eb73c7,64aea9d0f615b6559c281482,64bedf7dca7553137f9b5ef6,right,1,0.3,0.4357,2,-0.005157038,0.4559,,,,,,36,0,36,0,1,,,,,
,,842616,001,2023-07-24_14h31.30.091,arm3_eps,2022.2.5,Win32,59.89099838,6169e8a8311d269013eb73c7,64aea9d0f615b6559c281482,64bedf7dca7553137f9b5ef6,right,1,0.3,0.4357,2,0.030920071,0.3101,,,,,,37,0,37,0,1,,,,,
,,842616,001,2023-07-24_14h31.30.091,arm3_eps,2022.2.5,Win32,59.89099838,6169e8a8311d269013eb73c7,64aea9d0f615b6559c281482,64bedf7dca7553137f9b5ef6,down,-1,0.3,0.4357,2,0,0.7603,,,,,,38,0,38,0,1,,,,,
