space_bar.keys,space_bar.rt,participant,session,date,expName,psychopyVersion,OS,frameRate,PROLIFIC_PID,STUDY_ID,SESSION_ID,resp.keys,state,q_prob,eps_prob,score,price,resp.rt,train.thisRepN,train.thisTrialN,train.thisN,train.thisIndex,train.ran,steps.thisRepN,steps.thisTrialN,steps.thisN,steps.thisIndex,steps.ran,blocks.thisRepN,blocks.thisTrialN,blocks.thisN,blocks.thisIndex,blocks.ran
space,6.036,901229,001,2023-07-24_21h07.35.163,arm3_eps,2022.2.5,Win32,59.7193192,60d1f5b80e53a48f8f7f444b,64aea9d0f615b6559c281482,64becbbc6a5e0f6a94be9879,,,,,,,,,,,,,,,,,,,,,,
space,1.2766,901229,001,2023-07-24_21h07.35.163,arm3_eps,2022.2.5,Win32,59.7193192,60d1f5b80e53a48f8f7f444b,64aea9d0f615b6559c281482,64becbbc6a5e0f6a94be9879,,,,,,,,,,,,,,,,,,,,,,
space,4.9983,901229,001,2023-07-24_21h07.35.163,arm3_eps,2022.2.5,Win32,59.7193192,60d1f5b80e53a48f8f7f444b,64aea9d0f615b6559c281482,64becbbc6a5e0f6a94be9879,,,,,,,,,,,,,,,,,,,,,,
space,2.9025,901229,001,2023-07-24_21h07.35.163,arm3_eps,2022.2.5,Win32,59.7193192,60d1f5b80e53a48f8f7f444b,64aea9d0f615b6559c281482,64becbbc6a5e0f6a94be9879,,,,,,,,,,,,,,,,,,,,,,
space,1.5961,901229,001,2023-07-24_21h07.35.163,arm3_eps,2022.2.5,Win32,59.7193192,60d1f5b80e53a48f8f7f444b,64aea9d0f615b6559c281482,64becbbc6a5e0f6a94be9879,,,,,,,,,,,,,,,,,,,,,,
space,1.0423,901229,001,2023-07-24_21h07.35.163,arm3_eps,2022.2.5,Win32,59.7193192,60d1f5b80e53a48f8f7f444b,64aea9d0f615b6559c281482,64becbbc6a5e0f6a94be9879,,,,,,,,,,,,,,,,,,,,,,
space,1.4167,901229,001,2023-07-24_21h07.35.163,arm3_eps,2022.2.5,Win32,59.7193192,60d1f5b80e53a48f8f7f444b,64aea9d0f615b6559c281482,64becbbc6a5e0f6a94be9879,,,,,,,,,,,,,,,,,,,,,,
space,0.5403,901229,001,2023-07-24_21h07.35.163,arm3_eps,2022.2.5,Win32,59.7193192,60d1f5b80e53a48f8f7f444b,64aea9d0f615b6559c281482,64becbbc6a5e0f6a94be9879,,,,,,,,,,,,,,,,,,,,,,
space,0.6671,901229,001,2023-07-24_21h07.35.163,arm3_eps,2022.2.5,Win32,59.7193192,60d1f5b80e53a48f8f7f444b,64aea9d0f615b6559c281482,64becbbc6a5e0f6a94be9879,,,,,,,,,,,,,,,,,,,,,,
space,4.9452,901229,001,2023-07-24_21h07.35.163,arm3_eps,2022.2.5,Win32,59.7193192,60d1f5b80e53a48f8f7f444b,64aea9d0f615b6559c281482,64becbbc6a5e0f6a94be9879,,,,,,,,,,,,,,,,,,,,,,
,,901229,001,2023-07-24_21h07.35.163,arm3_eps,2022.2.5,Win32,59.7193192,60d1f5b80e53a48f8f7f444b,64aea9d0f615b6559c281482,64becbbc6a5e0f6a94be9879,up,1,0.3,0.2429,0,0,4.7252,0,0,0,0,1,,,,,,,,,,
,,901229,001,2023-07-24_21h07.35.163,arm3_eps,2022.2.5,Win32,59.7193192,60d1f5b80e53a48f8f7f444b,64aea9d0f615b6559c281482,64becbbc6a5e0f6a94be9879,up,-1,0.3,0.2429,0,0,2.155,1,0,1,0,1,,,,,,,,,,
,,901229,001,2023-07-24_21h07.35.163,arm3_eps,2022.2.5,Win32,59.7193192,60d1f5b80e53a48f8f7f444b,64aea9d0f615b6559c281482,64becbbc6a5e0f6a94be9879,right,-1,0.3,0.2429,0,-0.004520814,2.3466,2,0,2,0,1,,,,,,,,,,
,,901229,001,2023-07-24_21h07.35.163,arm3_eps,2022.2.5,Win32,59.7193192,60d1f5b80e53a48f8f7f444b,64aea9d0f615b6559c281482,64becbbc6a5e0f6a94be9879,right,-1,0.3,0.2429,0,-0.014148349,0.6073,3,0,3,0,1,,,,,,,,,,
,,901229,001,2023-07-24_21h07.35.163,arm3_eps,2022.2.5,Win32,59.7193192,60d1f5b80e53a48f8f7f444b,64aea9d0f615b6559c281482,64becbbc6a5e0f6a94be9879,up,-1,0.3,0.2429,-1,0,0.8772,4,0,4,0,1,,,,,,,,,,
,,901229,001,2023-07-24_21h07.35.163,arm3_eps,2022.2.5,Win32,59.7193192,60d1f5b80e53a48f8f7f444b,64aea9d0f615b6559c281482,64becbbc6a5e0f6a94be9879,right,-1,0.3,0.2429,-1,-0.033832354,1.2747,5,0,5,0,1,,,,,,,,,,
,,901229,001,2023-07-24_21h07.35.163,arm3_eps,2022.2.5,Win32,59.7193192,60d1f5b80e53a48f8f7f444b,64aea9d0f615b6559c281482,64becbbc6a5e0f6a94be9879,right,-1,0.3,0.2429,-1,-0.043634414,0.3764,6,0,6,0,1,,,,,,,,,,
,,901229,001,2023-07-24_21h07.35.163,arm3_eps,2022.2.5,Win32,59.7193192,60d1f5b80e53a48f8f7f444b,64aea9d0f615b6559c281482,64becbbc6a5e0f6a94be9879,right,-1,0.3,0.2429,-1,-0.033226243,0.3749,7,0,7,0,1,,,,,,,,,,
,,901229,001,2023-07-24_21h07.35.163,arm3_eps,2022.2.5,Win32,59.7193192,60d1f5b80e53a48f8f7f444b,64aea9d0f615b6559c281482,64becbbc6a5e0f6a94be9879,right,-1,0.3,0.2429,-1,-0.049834464,0.3748,8,0,8,0,1,,,,,,,,,,
,,901229,001,2023-07-24_21h07.35.163,arm3_eps,2022.2.5,Win32,59.7193192,60d1f5b80e53a48f8f7f444b,64aea9d0f615b6559c281482,64becbbc6a5e0f6a94be9879,right,-1,0.3,0.2429,-1,-0.07069292,0.3092,9,0,9,0,1,,,,,,,,,,
,,901229,001,2023-07-24_21h07.35.163,arm3_eps,2022.2.5,Win32,59.7193192,60d1f5b80e53a48f8f7f444b,64aea9d0f615b6559c281482,64becbbc6a5e0f6a94be9879,down,-1,0.3,0.2429,-1,0,0.6083,10,0,10,0,1,,,,,,,,,,
,,901229,001,2023-07-24_21h07.35.163,arm3_eps,2022.2.5,Win32,59.7193192,60d1f5b80e53a48f8f7f444b,64aea9d0f615b6559c281482,64becbbc6a5e0f6a94be9879,right,-1,0.3,0.2429,-1,-0.016911069,1.1044,11,0,11,0,1,,,,,,,,,,
,,901229,001,2023-07-24_21h07.35.163,arm3_eps,2022.2.5,Win32,59.7193192,60d1f5b80e53a48f8f7f444b,64aea9d0f615b6559c281482,64becbbc6a5e0f6a94be9879,right,-1,0.3,0.2429,-1,-0.065043331,0.2925,12,0,12,0,1,,,,,,,,,,
,,901229,001,2023-07-24_21h07.35.163,arm3_eps,2022.2.5,Win32,59.7193192,60d1f5b80e53a48f8f7f444b,64aea9d0f615b6559c281482,64becbbc6a5e0f6a94be9879,right,-1,0.3,0.2429,-1,-0.106029573,0.2413,13,0,13,0,1,,,,,,,,,,
,,901229,001,2023-07-24_21h07.35.163,arm3_eps,2022.2.5,Win32,59.7193192,60d1f5b80e53a48f8f7f444b,64aea9d0f615b6559c281482,64becbbc6a5e0f6a94be9879,right,-1,0.3,0.2429,-1,-0.109865608,0.2433,14,0,14,0,1,,,,,,,,,,
,,901229,001,2023-07-24_21h07.35.163,arm3_eps,2022.2.5,Win32,59.7193192,60d1f5b80e53a48f8f7f444b,64aea9d0f615b6559c281482,64becbbc6a5e0f6a94be9879,right,-1,0.3,0.2429,-1,-0.115716193,0.259,15,0,15,0,1,,,,,,,,,,
,,901229,001,2023-07-24_21h07.35.163,arm3_eps,2022.2.5,Win32,59.7193192,60d1f5b80e53a48f8f7f444b,64aea9d0f615b6559c281482,64becbbc6a5e0f6a94be9879,right,-1,0.3,0.2429,-1,-0.132738643,0.9931,16,0,16,0,1,,,,,,,,,,
,,901229,001,2023-07-24_21h07.35.163,arm3_eps,2022.2.5,Win32,59.7193192,60d1f5b80e53a48f8f7f444b,64aea9d0f615b6559c281482,64becbbc6a5e0f6a94be9879,right,-1,0.3,0.2429,-1,-0.153719459,0.1121,17,0,17,0,1,,,,,,,,,,
,,901229,001,2023-07-24_21h07.35.163,arm3_eps,2022.2.5,Win32,59.7193192,60d1f5b80e53a48f8f7f444b,64aea9d0f615b6559c281482,64becbbc6a5e0f6a94be9879,right,-1,0.3,0.2429,-1,-0.138316857,0.5592,18,0,18,0,1,,,,,,,,,,
,,901229,001,2023-07-24_21h07.35.163,arm3_eps,2022.2.5,Win32,59.7193192,60d1f5b80e53a48f8f7f444b,64aea9d0f615b6559c281482,64becbbc6a5e0f6a94be9879,right,-1,0.3,0.2429,-1,-0.136179279,0.3265,19,0,19,0,1,,,,,,,,,,
,,901229,001,2023-07-24_21h07.35.163,arm3_eps,2022.2.5,Win32,59.7193192,60d1f5b80e53a48f8f7f444b,64aea9d0f615b6559c281482,64becbbc6a5e0f6a94be9879,right,-1,0.3,0.2429,-1,-0.175594954,0.2592,20,0,20,0,1,,,,,,,,,,
,,901229,001,2023-07-24_21h07.35.163,arm3_eps,2022.2.5,Win32,59.7193192,60d1f5b80e53a48f8f7f444b,64aea9d0f615b6559c281482,64becbbc6a5e0f6a94be9879,up,-1,0.3,0.2429,-1,0,0.6408,21,0,21,0,1,,,,,,,,,,
,,901229,001,2023-07-24_21h07.35.163,arm3_eps,2022.2.5,Win32,59.7193192,60d1f5b80e53a48f8f7f444b,64aea9d0f615b6559c281482,64becbbc6a5e0f6a94be9879,right,-1,0.3,0.2429,-1,-0.016171161,1.7481,22,0,22,0,1,,,,,,,,,,
,,901229,001,2023-07-24_21h07.35.163,arm3_eps,2022.2.5,Win32,59.7193192,60d1f5b80e53a48f8f7f444b,64aea9d0f615b6559c281482,64becbbc6a5e0f6a94be9879,right,-1,0.3,0.2429,-1,-0.028617439,0.2598,23,0,23,0,1,,,,,,,,,,
,,901229,001,2023-07-24_21h07.35.163,arm3_eps,2022.2.5,Win32,59.7193192,60d1f5b80e53a48f8f7f444b,64aea9d0f615b6559c281482,64becbbc6a5e0f6a94be9879,right,-1,0.3,0.2429,-1,-0.039017641,0.8428,24,0,24,0,1,,,,,,,,,,
,,901229,001,2023-07-24_21h07.35.163,arm3_eps,2022.2.5,Win32,59.7193192,60d1f5b80e53a48f8f7f444b,64aea9d0f615b6559c281482,64becbbc6a5e0f6a94be9879,right,-1,0.3,0.2429,-1,-0.030821696,0.2766,25,0,25,0,1,,,,,,,,,,
,,901229,001,2023-07-24_21h07.35.163,arm3_eps,2022.2.5,Win32,59.7193192,60d1f5b80e53a48f8f7f444b,64aea9d0f615b6559c281482,64becbbc6a5e0f6a94be9879,right,-1,0.3,0.2429,-1,-0.039044754,0.8428,26,0,26,0,1,,,,,,,,,,
,,901229,001,2023-07-24_21h07.35.163,arm3_eps,2022.2.5,Win32,59.7193192,60d1f5b80e53a48f8f7f444b,64aea9d0f615b6559c281482,64becbbc6a5e0f6a94be9879,right,-1,0.3,0.2429,-1,-0.057221378,0.2421,27,0,27,0,1,,,,,,,,,,
,,901229,001,2023-07-24_21h07.35.163,arm3_eps,2022.2.5,Win32,59.7193192,60d1f5b80e53a48f8f7f444b,64aea9d0f615b6559c281482,64becbbc6a5e0f6a94be9879,right,-1,0.3,0.2429,-1,-0.070975789,0.3754,28,0,28,0,1,,,,,,,,,,
,,901229,001,2023-07-24_21h07.35.163,arm3_eps,2022.2.5,Win32,59.7193192,60d1f5b80e53a48f8f7f444b,64aea9d0f615b6559c281482,64becbbc6a5e0f6a94be9879,right,-1,0.3,0.2429,-1,-0.119813345,0.258,29,0,29,0,1,,,,,,,,,,
,,901229,001,2023-07-24_21h07.35.163,arm3_eps,2022.2.5,Win32,59.7193192,60d1f5b80e53a48f8f7f444b,64aea9d0f615b6559c281482,64becbbc6a5e0f6a94be9879,down,-1,0.3,0.2429,-1,0,0.409,30,0,30,0,1,,,,,,,,,,
,,901229,001,2023-07-24_21h07.35.163,arm3_eps,2022.2.5,Win32,59.7193192,60d1f5b80e53a48f8f7f444b,64aea9d0f615b6559c281482,64becbbc6a5e0f6a94be9879,right,-1,0.3,0.2429,-1,0.004180499,0.8466,31,0,31,0,1,,,,,,,,,,
,,901229,001,2023-07-24_21h07.35.163,arm3_eps,2022.2.5,Win32,59.7193192,60d1f5b80e53a48f8f7f444b,64aea9d0f615b6559c281482,64becbbc6a5e0f6a94be9879,right,-1,0.3,0.2429,-1,-0.005759717,0.2937,32,0,32,0,1,,,,,,,,,,
,,901229,001,2023-07-24_21h07.35.163,arm3_eps,2022.2.5,Win32,59.7193192,60d1f5b80e53a48f8f7f444b,64aea9d0f615b6559c281482,64becbbc6a5e0f6a94be9879,right,-1,0.3,0.2429,-1,-0.000855598,0.1766,33,0,33,0,1,,,,,,,,,,
,,901229,001,2023-07-24_21h07.35.163,arm3_eps,2022.2.5,Win32,59.7193192,60d1f5b80e53a48f8f7f444b,64aea9d0f615b6559c281482,64becbbc6a5e0f6a94be9879,right,-1,0.3,0.2429,-1,-0.018500066,0.3586,34,0,34,0,1,,,,,,,,,,
,,901229,001,2023-07-24_21h07.35.163,arm3_eps,2022.2.5,Win32,59.7193192,60d1f5b80e53a48f8f7f444b,64aea9d0f615b6559c281482,64becbbc6a5e0f6a94be9879,right,-1,0.3,0.2429,-1,-0.025490333,0.1922,35,0,35,0,1,,,,,,,,,,
,,901229,001,2023-07-24_21h07.35.163,arm3_eps,2022.2.5,Win32,59.7193192,60d1f5b80e53a48f8f7f444b,64aea9d0f615b6559c281482,64becbbc6a5e0f6a94be9879,right,-1,0.3,0.2429,-1,-0.033549543,0.1257,36,0,36,0,1,,,,,,,,,,
,,901229,001,2023-07-24_21h07.35.163,arm3_eps,2022.2.5,Win32,59.7193192,60d1f5b80e53a48f8f7f444b,64aea9d0f615b6559c281482,64becbbc6a5e0f6a94be9879,right,-1,0.3,0.2429,-1,-0.010575919,0.1241,37,0,37,0,1,,,,,,,,,,
,,901229,001,2023-07-24_21h07.35.163,arm3_eps,2022.2.5,Win32,59.7193192,60d1f5b80e53a48f8f7f444b,64aea9d0f615b6559c281482,64becbbc6a5e0f6a94be9879,right,-1,0.3,0.2429,-1,-0.015541864,0.959,38,0,38,0,1,,,,,,,,,,
,,901229,001,2023-07-24_21h07.35.163,arm3_eps,2022.2.5,Win32,59.7193192,60d1f5b80e53a48f8f7f444b,64aea9d0f615b6559c281482,64becbbc6a5e0f6a94be9879,right,-1,0.3,0.2429,-1,-0.052438424,0.2424,39,0,39,0,1,,,,,,,,,,
,,901229,001,2023-07-24_21h07.35.163,arm3_eps,2022.2.5,Win32,59.7193192,60d1f5b80e53a48f8f7f444b,64aea9d0f615b6559c281482,64becbbc6a5e0f6a94be9879,right,-1,0.3,0.2429,-1,-0.067615227,0.2481,40,0,40,0,1,,,,,,,,,,
,,901229,001,2023-07-24_21h07.35.163,arm3_eps,2022.2.5,Win32,59.7193192,60d1f5b80e53a48f8f7f444b,64aea9d0f615b6559c281482,64becbbc6a5e0f6a94be9879,right,-1,0.3,0.2429,-1,-0.059218609,0.0442,41,0,41,0,1,,,,,,,,,,
,,901229,001,2023-07-24_21h07.35.163,arm3_eps,2022.2.5,Win32,59.7193192,60d1f5b80e53a48f8f7f444b,64aea9d0f615b6559c281482,64becbbc6a5e0f6a94be9879,right,-1,0.3,0.2429,-1,-0.059875135,0.2084,42,0,42,0,1,,,,,,,,,,
,,901229,001,2023-07-24_21h07.35.163,arm3_eps,2022.2.5,Win32,59.7193192,60d1f5b80e53a48f8f7f444b,64aea9d0f615b6559c281482,64becbbc6a5e0f6a94be9879,up,1,0.3,0.2429,-1,0,1.4921,43,0,43,0,1,,,,,,,,,,
,,901229,001,2023-07-24_21h07.35.163,arm3_eps,2022.2.5,Win32,59.7193192,60d1f5b80e53a48f8f7f444b,64aea9d0f615b6559c281482,64becbbc6a5e0f6a94be9879,right,1,0.3,0.2429,-1,0.00261547,1.0148,44,0,44,0,1,,,,,,,,,,
,,901229,001,2023-07-24_21h07.35.163,arm3_eps,2022.2.5,Win32,59.7193192,60d1f5b80e53a48f8f7f444b,64aea9d0f615b6559c281482,64becbbc6a5e0f6a94be9879,right,1,0.3,0.2429,-1,-0.01561346,0.3154,45,0,45,0,1,,,,,,,,,,
,,901229,001,2023-07-24_21h07.35.163,arm3_eps,2022.2.5,Win32,59.7193192,60d1f5b80e53a48f8f7f444b,64aea9d0f615b6559c281482,64becbbc6a5e0f6a94be9879,down,1,0.3,0.2429,-2,0,0.3276,46,0,46,0,1,,,,,,,,,,
,,901229,001,2023-07-24_21h07.35.163,arm3_eps,2022.2.5,Win32,59.7193192,60d1f5b80e53a48f8f7f444b,64aea9d0f615b6559c281482,64becbbc6a5e0f6a94be9879,right,1,0.3,0.2429,-2,0.006163572,0.9939,47,0,47,0,1,,,,,,,,,,
,,901229,001,2023-07-24_21h07.35.163,arm3_eps,2022.2.5,Win32,59.7193192,60d1f5b80e53a48f8f7f444b,64aea9d0f615b6559c281482,64becbbc6a5e0f6a94be9879,right,1,0.3,0.2429,-2,0.038561121,0.2598,48,0,48,0,1,,,,,,,,,,
,,901229,001,2023-07-24_21h07.35.163,arm3_eps,2022.2.5,Win32,59.7193192,60d1f5b80e53a48f8f7f444b,64aea9d0f615b6559c281482,64becbbc6a5e0f6a94be9879,up,1,0.3,0.2429,-2,0.038561121,0.6786,49,0,49,0,1,,,,,,,,,,
space,1.1448,901229,001,2023-07-24_21h07.35.163,arm3_eps,2022.2.5,Win32,59.7193192,60d1f5b80e53a48f8f7f444b,64aea9d0f615b6559c281482,64becbbc6a5e0f6a94be9879,,,,,,,,,,,,,,,,,,,,,,
space,1.9109,901229,001,2023-07-24_21h07.35.163,arm3_eps,2022.2.5,Win32,59.7193192,60d1f5b80e53a48f8f7f444b,64aea9d0f615b6559c281482,64becbbc6a5e0f6a94be9879,right,1,0.3,0.3071,0,-0.002514115,0.6389,,,,,,0,0,0,0,1,,,,,
,,901229,001,2023-07-24_21h07.35.163,arm3_eps,2022.2.5,Win32,59.7193192,60d1f5b80e53a48f8f7f444b,64aea9d0f615b6559c281482,64becbbc6a5e0f6a94be9879,right,1,0.3,0.3071,0,-0.026602295,0.3265,,,,,,1,0,1,0,1,,,,,
,,901229,001,2023-07-24_21h07.35.163,arm3_eps,2022.2.5,Win32,59.7193192,60d1f5b80e53a48f8f7f444b,64aea9d0f615b6559c281482,64becbbc6a5e0f6a94be9879,up,1,0.3,0.3071,1,0,1.063,,,,,,2,0,2,0,1,,,,,
,,901229,001,2023-07-24_21h07.35.163,arm3_eps,2022.2.5,Win32,59.7193192,60d1f5b80e53a48f8f7f444b,64aea9d0f615b6559c281482,64becbbc6a5e0f6a94be9879,right,1,0.3,0.3071,1,0.008182148,1.4586,,,,,,3,0,3,0,1,,,,,
,,901229,001,2023-07-24_21h07.35.163,arm3_eps,2022.2.5,Win32,59.7193192,60d1f5b80e53a48f8f7f444b,64aea9d0f615b6559c281482,64becbbc6a5e0f6a94be9879,right,1,0.3,0.3071,1,0.050817086,0.4768,,,,,,4,0,4,0,1,,,,,
,,901229,001,2023-07-24_21h07.35.163,arm3_eps,2022.2.5,Win32,59.7193192,60d1f5b80e53a48f8f7f444b,64aea9d0f615b6559c281482,64becbbc6a5e0f6a94be9879,up,1,0.3,0.3071,2,0,1.1616,,,,,,5,0,5,0,1,,,,,
,,901229,001,2023-07-24_21h07.35.163,arm3_eps,2022.2.5,Win32,59.7193192,60d1f5b80e53a48f8f7f444b,64aea9d0f615b6559c281482,64becbbc6a5e0f6a94be9879,right,1,0.3,0.3071,2,-0.00281294,1.0831,,,,,,6,0,6,0,1,,,,,
,,901229,001,2023-07-24_21h07.35.163,arm3_eps,2022.2.5,Win32,59.7193192,60d1f5b80e53a48f8f7f444b,64aea9d0f615b6559c281482,64becbbc6a5e0f6a94be9879,right,1,0.3,0.3071,2,0.027893298,0.3941,,,,,,7,0,7,0,1,,,,,
,,901229,001,2023-07-24_21h07.35.163,arm3_eps,2022.2.5,Win32,59.7193192,60d1f5b80e53a48f8f7f444b,64aea9d0f615b6559c281482,64becbbc6a5e0f6a94be9879,up,1,0.3,0.3071,2,0,0.7096,,,,,,8,0,8,0,1,,,,,
,,901229,001,2023-07-24_21h07.35.163,arm3_eps,2022.2.5,Win32,59.7193192,60d1f5b80e53a48f8f7f444b,64aea9d0f615b6559c281482,64becbbc6a5e0f6a94be9879,right,1,0.3,0.3071,2,0.039044028,1.0439,,,,,,9,0,9,0,1,,,,,
,,901229,001,2023-07-24_21h07.35.163,arm3_eps,2022.2.5,Win32,59.7193192,60d1f5b80e53a48f8f7f444b,64aea9d0f615b6559c281482,64becbbc6a5e0f6a94be9879,right,1,0.3,0.3071,2,0.018252756,0.4926,,,,,,10,0,10,0,1,,,,,
,,901229,001,2023-07-24_21h07.35.163,arm3_eps,2022.2.5,Win32,59.7193192,60d1f5b80e53a48f8f7f444b,64aea9d0f615b6559c281482,64becbbc6a5e0f6a94be9879,right,1,0.3,0.3071,2,0.015661222,0.4423,,,,,,11,0,11,0,1,,,,,
,,901229,001,2023-07-24_21h07.35.163,arm3_eps,2022.2.5,Win32,59.7193192,60d1f5b80e53a48f8f7f444b,64aea9d0f615b6559c281482,64becbbc6a5e0f6a94be9879,right,1,0.3,0.3071,2,0.03511478,0.6766,,,,,,12,0,12,0,1,,,,,
,,901229,001,2023-07-24_21h07.35.163,arm3_eps,2022.2.5,Win32,59.7193192,60d1f5b80e53a48f8f7f444b,64aea9d0f615b6559c281482,64becbbc6a5e0f6a94be9879,up,1,0.3,0.3071,3,0,0.7937,,,,,,13,0,13,0,1,,,,,
,,901229,001,2023-07-24_21h07.35.163,arm3_eps,2022.2.5,Win32,59.7193192,60d1f5b80e53a48f8f7f444b,64aea9d0f615b6559c281482,64becbbc6a5e0f6a94be9879,right,1,0.3,0.3071,3,0.012343866,0.9443,,,,,,14,0,14,0,1,,,,,
,,901229,001,2023-07-24_21h07.35.163,arm3_eps,2022.2.5,Win32,59.7193192,60d1f5b80e53a48f8f7f444b,64aea9d0f615b6559c281482,64becbbc6a5e0f6a94be9879,right,1,0.3,0.3071,3,0.026275255,0.2757,,,,,,15,0,15,0,1,,,,,
,,901229,001,2023-07-24_21h07.35.163,arm3_eps,2022.2.5,Win32,59.7193192,60d1f5b80e53a48f8f7f444b,64aea9d0f615b6559c281482,64becbbc6a5e0f6a94be9879,right,1,0.3,0.3071,3,0.034654341,0.2261,,,,,,16,0,16,0,1,,,,,
,,901229,001,2023-07-24_21h07.35.163,arm3_eps,2022.2.5,Win32,59.7193192,60d1f5b80e53a48f8f7f444b,64aea9d0f615b6559c281482,64becbbc6a5e0f6a94be9879,right,1,0.3,0.3071,3,0.064265256,0.2603,,,,,,17,0,17,0,1,,,,,
,,901229,001,2023-07-24_21h07.35.163,arm3_eps,2022.2.5,Win32,59.7193192,60d1f5b80e53a48f8f7f444b,64aea9d0f615b6559c281482,64becbbc6a5e0f6a94be9879,up,1,0.3,0.3071,4,0,0.36,,,,,,18,0,18,0,1,,,,,
,,901229,001,2023-07-24_21h07.35.163,arm3_eps,2022.2.5,Win32,59.7193192,60d1f5b80e53a48f8f7f444b,64aea9d0f615b6559c281482,64becbbc6a5e0f6a94be9879,right,1,0.3,0.3071,4,-0.000475446,0.7901,,,,,,19,0,19,0,1,,,,,
,,901229,001,2023-07-24_21h07.35.163,arm3_eps,2022.2.5,Win32,59.7193192,60d1f5b80e53a48f8f7f444b,64aea9d0f615b6559c281482,64becbbc6a5e0f6a94be9879,right,1,0.3,0.3071,4,0.028364322,0.2483,,,,,,20,0,20,0,1,,,,,
,,901229,001,2023-07-24_21h07.35.163,arm3_eps,2022.2.5,Win32,59.7193192,60d1f5b80e53a48f8f7f444b,64aea9d0f615b6559c281482,64becbbc6a5e0f6a94be9879,right,1,0.3,0.3071,4,0.034423363,0.4083,,,,,,21,0,21,0,1,,,,,
,,901229,001,2023-07-24_21h07.35.163,arm3_eps,2022.2.5,Win32,59.7193192,60d1f5b80e53a48f8f7f444b,64aea9d0f615b6559c281482,64becbbc6a5e0f6a94be9879,right,1,0.3,0.3071,4,0.046075936,0.3261,,,,,,22,0,22,0,1,,,,,
,,901229,001,2023-07-24_21h07.35.163,arm3_eps,2022.2.5,Win32,59.7193192,60d1f5b80e53a48f8f7f444b,64aea9d0f615b6559c281482,64becbbc6a5e0f6a94be9879,up,1,0.3,0.3071,4,0,0.51,,,,,,23,0,23,0,1,,,,,
,,901229,001,2023-07-24_21h07.35.163,arm3_eps,2022.2.5,Win32,59.7193192,60d1f5b80e53a48f8f7f444b,64aea9d0f615b6559c281482,64becbbc6a5e0f6a94be9879,right,1,0.3,0.3071,4,0.019486948,0.8287,,,,,,24,0,24,0,1,,,,,
,,901229,001,2023-07-24_21h07.35.163,arm3_eps,2022.2.5,Win32,59.7193192,60d1f5b80e53a48f8f7f444b,64aea9d0f615b6559c281482,64becbbc6a5e0f6a94be9879,right,1,0.3,0.3071,4,0.055241655,0.3267,,,,,,25,0,25,0,1,,,,,
,,901229,001,2023-07-24_21h07.35.163,arm3_eps,2022.2.5,Win32,59.7193192,60d1f5b80e53a48f8f7f444b,64aea9d0f615b6559c281482,64becbbc6a5e0f6a94be9879,right,1,0.3,0.3071,4,0.092405987,0.2443,,,,,,26,0,26,0,1,,,,,
,,901229,001,2023-07-24_21h07.35.163,arm3_eps,2022.2.5,Win32,59.7193192,60d1f5b80e53a48f8f7f444b,64aea9d0f615b6559c281482,64becbbc6a5e0f6a94be9879,up,1,0.3,0.3071,4,0,0.3262,,,,,,27,0,27,0,1,,,,,
,,901229,001,2023-07-24_21h07.35.163,arm3_eps,2022.2.5,Win32,59.7193192,60d1f5b80e53a48f8f7f444b,64aea9d0f615b6559c281482,64becbbc6a5e0f6a94be9879,right,1,0.3,0.3071,4,0.007247419,0.8376,,,,,,28,0,28,0,1,,,,,
,,901229,001,2023-07-24_21h07.35.163,arm3_eps,2022.2.5,Win32,59.7193192,60d1f5b80e53a48f8f7f444b,64aea9d0f615b6559c281482,64becbbc6a5e0f6a94be9879,right,1,0.3,0.3071,4,0.018041761,0.2759,,,,,,29,0,29,0,1,,,,,
,,901229,001,2023-07-24_21h07.35.163,arm3_eps,2022.2.5,Win32,59.7193192,60d1f5b80e53a48f8f7f444b,64aea9d0f615b6559c281482,64becbbc6a5e0f6a94be9879,right,1,0.3,0.3071,4,0.030867578,0.209,,,,,,30,0,30,0,1,,,,,
,,901229,001,2023-07-24_21h07.35.163,arm3_eps,2022.2.5,Win32,59.7193192,60d1f5b80e53a48f8f7f444b,64aea9d0f615b6559c281482,64becbbc6a5e0f6a94be9879,right,1,0.3,0.3071,4,0.067312407,0.2766,,,,,,31,0,31,0,1,,,,,
,,901229,001,2023-07-24_21h07.35.163,arm3_eps,2022.2.5,Win32,59.7193192,60d1f5b80e53a48f8f7f444b,64aea9d0f615b6559c281482,64becbbc6a5e0f6a94be9879,up,1,0.3,0.3071,5,0,0.5263,,,,,,32,0,32,0,1,,,,,
,,901229,001,2023-07-24_21h07.35.163,arm3_eps,2022.2.5,Win32,59.7193192,60d1f5b80e53a48f8f7f444b,64aea9d0f615b6559c281482,64becbbc6a5e0f6a94be9879,right,1,0.3,0.3071,5,-0.006587318,0.8103,,,,,,33,0,33,0,1,,,,,
,,901229,001,2023-07-24_21h07.35.163,arm3_eps,2022.2.5,Win32,59.7193192,60d1f5b80e53a48f8f7f444b,64aea9d0f615b6559c281482,64becbbc6a5e0f6a94be9879,right,1,0.3,0.3071,5,0.027442523,0.3257,,,,,,34,0,34,0,1,,,,,
,,901229,001,2023-07-24_21h07.35.163,arm3_eps,2022.2.5,Win32,59.7193192,60d1f5b80e53a48f8f7f444b,64aea9d0f615b6559c281482,64becbbc6a5e0f6a94be9879,right,1,0.3,0.3071,5,0.023029518,0.3889,,,,,,35,0,35,0,1,,,,,
,,901229,001,2023-07-24_21h07.35.163,arm3_eps,2022.2.5,Win32,59.7193192,60d1f5b80e53a48f8f7f444b,64aea9d0f615b6559c281482,64becbbc6a5e0f6a94be9879,right,1,0.3,0.3071,5,0.023270986,0.4778,,,,,,36,0,36,0,1,,,,,
,,901229,001,2023-07-24_21h07.35.163,arm3_eps,2022.2.5,Win32,59.7193192,60d1f5b80e53a48f8f7f444b,64aea9d0f615b6559c281482,64becbbc6a5e0f6a94be9879,up,1,0.3,0.3071,6,0,0.7262,,,,,,37,0,37,0,1,,,,,
,,901229,001,2023-07-24_21h07.35.163,arm3_eps,2022.2.5,Win32,59.7193192,60d1f5b80e53a48f8f7f444b,64aea9d0f615b6559c281482,64becbbc6a5e0f6a94be9879,right,1,0.3,0.3071,6,0.035145146,0.8011,,,,,,38,0,38,0,1,,,,,
,,901229,001,2023-07-24_21h07.35.163,arm3_eps,2022.2.5,Win32,59.7193192,60d1f5b80e53a48f8f7f444b,64aea9d0f615b6559c281482,64becbbc6a5e0f6a94be9879,right,1,0.3,0.3071,6,0.049954249,0.309,,,,,,39,0,39,0,1,,,,,
,,901229,001,2023-07-24_21h07.35.163,arm3_eps,2022.2.5,Win32,59.7193192,60d1f5b80e53a48f8f7f444b,64aea9d0f615b6559c281482,64becbbc6a5e0f6a94be9879,right,1,0.3,0.3071,6,0.023519799,0.2978,,,,,,40,0,40,0,1,,,,,
,,901229,001,2023-07-24_21h07.35.163,arm3_eps,2022.2.5,Win32,59.7193192,60d1f5b80e53a48f8f7f444b,64aea9d0f615b6559c281482,64becbbc6a5e0f6a94be9879,right,1,0.3,0.3071,6,0.047582035,0.3751,,,,,,41,0,41,0,1,,,,,
,,901229,001,2023-07-24_21h07.35.163,arm3_eps,2022.2.5,Win32,59.7193192,60d1f5b80e53a48f8f7f444b,64aea9d0f615b6559c281482,64becbbc6a5e0f6a94be9879,down,-1,0.3,0.3071,6,0,0.749,,,,,,42,0,42,0,1,,,,,
,,901229,001,2023-07-24_21h07.35.163,arm3_eps,2022.2.5,Win32,59.7193192,60d1f5b80e53a48f8f7f444b,64aea9d0f615b6559c281482,64becbbc6a5e0f6a94be9879,right,-1,0.3,0.3071,6,0.022330434,0.8262,,,,,,43,0,43,0,1,,,,,
,,901229,001,2023-07-24_21h07.35.163,arm3_eps,2022.2.5,Win32,59.7193192,60d1f5b80e53a48f8f7f444b,64aea9d0f615b6559c281482,64becbbc6a5e0f6a94be9879,right,-1,0.3,0.3071,6,0.01891525,0.2926,,,,,,44,0,44,0,1,,,,,
,,901229,001,2023-07-24_21h07.35.163,arm3_eps,2022.2.5,Win32,59.7193192,60d1f5b80e53a48f8f7f444b,64aea9d0f615b6559c281482,64becbbc6a5e0f6a94be9879,right,-1,0.3,0.3071,6,0.023155805,0.1762,,,,,,45,0,45,0,1,,,,,
,,901229,001,2023-07-24_21h07.35.163,arm3_eps,2022.2.5,Win32,59.7193192,60d1f5b80e53a48f8f7f444b,64aea9d0f615b6559c281482,64becbbc6a5e0f6a94be9879,right,-1,0.3,0.3071,6,0.009303384,0.1435,,,,,,46,0,46,0,1,,,,,
,,901229,001,2023-07-24_21h07.35.163,arm3_eps,2022.2.5,Win32,59.7193192,60d1f5b80e53a48f8f7f444b,64aea9d0f615b6559c281482,64becbbc6a5e0f6a94be9879,right,-1,0.3,0.3071,6,-0.025076366,0.5102,,,,,,47,0,47,0,1,,,,,
,,901229,001,2023-07-24_21h07.35.163,arm3_eps,2022.2.5,Win32,59.7193192,60d1f5b80e53a48f8f7f444b,64aea9d0f615b6559c281482,64becbbc6a5e0f6a94be9879,down,1,0.3,0.3071,6,0,0.3935,,,,,,48,0,48,0,1,,,,,
,,901229,001,2023-07-24_21h07.35.163,arm3_eps,2022.2.5,Win32,59.7193192,60d1f5b80e53a48f8f7f444b,64aea9d0f615b6559c281482,64becbbc6a5e0f6a94be9879,right,1,0.3,0.3071,6,0.010880682,0.8496,,,,,,49,0,49,0,1,,,,,
,,901229,001,2023-07-24_21h07.35.163,arm3_eps,2022.2.5,Win32,59.7193192,60d1f5b80e53a48f8f7f444b,64aea9d0f615b6559c281482,64becbbc6a5e0f6a94be9879,right,1,0.3,0.3071,6,0.003863341,0.1474,,,,,,50,0,50,0,1,,,,,
,,901229,001,2023-07-24_21h07.35.163,arm3_eps,2022.2.5,Win32,59.7193192,60d1f5b80e53a48f8f7f444b,64aea9d0f615b6559c281482,64becbbc6a5e0f6a94be9879,right,1,0.3,0.3071,6,0.001555252,0.2145,,,,,,51,0,51,0,1,,,,,
,,901229,001,2023-07-24_21h07.35.163,arm3_eps,2022.2.5,Win32,59.7193192,60d1f5b80e53a48f8f7f444b,64aea9d0f615b6559c281482,64becbbc6a5e0f6a94be9879,up,1,0.3,0.3071,6,0,1.5658,,,,,,52,0,52,0,1,,,,,
,,901229,001,2023-07-24_21h07.35.163,arm3_eps,2022.2.5,Win32,59.7193192,60d1f5b80e53a48f8f7f444b,64aea9d0f615b6559c281482,64becbbc6a5e0f6a94be9879,right,1,0.3,0.3071,6,-0.004391627,0.7965,,,,,,53,0,53,0,1,,,,,
,,901229,001,2023-07-24_21h07.35.163,arm3_eps,2022.2.5,Win32,59.7193192,60d1f5b80e53a48f8f7f444b,64aea9d0f615b6559c281482,64becbbc6a5e0f6a94be9879,right,1,0.3,0.3071,6,-0.030794344,0.5154,,,,,,54,0,54,0,1,,,,,
,,901229,001,2023-07-24_21h07.35.163,arm3_eps,2022.2.5,Win32,59.7193192,60d1f5b80e53a48f8f7f444b,64aea9d0f615b6559c281482,64becbbc6a5e0f6a94be9879,down,1,0.3,0.3071,5,0,0.476,,,,,,55,0,55,0,1,,,,,
,,901229,001,2023-07-24_21h07.35.163,arm3_eps,2022.2.5,Win32,59.7193192,60d1f5b80e53a48f8f7f444b,64aea9d0f615b6559c281482,64becbbc6a5e0f6a94be9879,up,1,0.3,0.3071,6,0,1.1974,,,,,,56,0,56,0,1,,,,,
,,901229,001,2023-07-24_21h07.35.163,arm3_eps,2022.2.5,Win32,59.7193192,60d1f5b80e53a48f8f7f444b,64aea9d0f615b6559c281482,64becbbc6a5e0f6a94be9879,right,1,0.3,0.3071,6,0.003409197,1.1563,,,,,,57,0,57,0,1,,,,,
,,901229,001,2023-07-24_21h07.35.163,arm3_eps,2022.2.5,Win32,59.7193192,60d1f5b80e53a48f8f7f444b,64aea9d0f615b6559c281482,64becbbc6a5e0f6a94be9879,right,1,0.3,0.3071,6,0.003949892,0.4594,,,,,,58,0,58,0,1,,,,,
,,901229,001,2023-07-24_21h07.35.163,arm3_eps,2022.2.5,Win32,59.7193192,60d1f5b80e53a48f8f7f444b,64aea9d0f615b6559c281482,64becbbc6a5e0f6a94be9879,right,1,0.3,0.3071,6,0.012500076,0.6105,,,,,,59,0,59,0,1,,,,,
,,901229,001,2023-07-24_21h07.35.163,arm3_eps,2022.2.5,Win32,59.7193192,60d1f5b80e53a48f8f7f444b,64aea9d0f615b6559c281482,64becbbc6a5e0f6a94be9879,up,1,0.3,0.3071,6,0,0.7106,,,,,,60,0,60,0,1,,,,,
,,901229,001,2023-07-24_21h07.35.163,arm3_eps,2022.2.5,Win32,59.7193192,60d1f5b80e53a48f8f7f444b,64aea9d0f615b6559c281482,64becbbc6a5e0f6a94be9879,right,1,0.3,0.3071,6,-0.021694807,0.8797,,,,,,61,0,61,0,1,,,,,
,,901229,001,2023-07-24_21h07.35.163,arm3_eps,2022.2.5,Win32,59.7193192,60d1f5b80e53a48f8f7f444b,64aea9d0f615b6559c281482,64becbbc6a5e0f6a94be9879,right,1,0.3,0.3071,6,0.003264963,0.2964,,,,,,62,0,62,0,1,,,,,
,,901229,001,2023-07-24_21h07.35.163,arm3_eps,2022.2.5,Win32,59.7193192,60d1f5b80e53a48f8f7f444b,64aea9d0f615b6559c281482,64becbbc6a5e0f6a94be9879,right,1,0.3,0.3071,6,-0.028836763,0.29,,,,,,63,0,63,0,1,,,,,
,,901229,001,2023-07-24_21h07.35.163,arm3_eps,2022.2.5,Win32,59.7193192,60d1f5b80e53a48f8f7f444b,64aea9d0f615b6559c281482,64becbbc6a5e0f6a94be9879,down,1,0.3,0.3071,5,0,0.6131,,,,,,64,0,64,0,1,,,,,
,,901229,001,2023-07-24_21h07.35.163,arm3_eps,2022.2.5,Win32,59.7193192,60d1f5b80e53a48f8f7f444b,64aea9d0f615b6559c281482,64becbbc6a5e0f6a94be9879,right,1,0.3,0.3071,5,0.006893263,1.0102,,,,,,65,0,65,0,1,,,,,
,,901229,001,2023-07-24_21h07.35.163,arm3_eps,2022.2.5,Win32,59.7193192,60d1f5b80e53a48f8f7f444b,64aea9d0f615b6559c281482,64becbbc6a5e0f6a94be9879,right,1,0.3,0.3071,5,0.0245771,0.2085,,,,,,66,0,66,0,1,,,,,
,,901229,001,2023-07-24_21h07.35.163,arm3_eps,2022.2.5,Win32,59.7193192,60d1f5b80e53a48f8f7f444b,64aea9d0f615b6559c281482,64becbbc6a5e0f6a94be9879,right,1,0.3,0.3071,5,0.042887771,0.1924,,,,,,67,0,67,0,1,,,,,
,,901229,001,2023-07-24_21h07.35.163,arm3_eps,2022.2.5,Win32,59.7193192,60d1f5b80e53a48f8f7f444b,64aea9d0f615b6559c281482,64becbbc6a5e0f6a94be9879,right,1,0.3,0.3071,5,0.008220969,0.5933,,,,,,68,0,68,0,1,,,,,
,,901229,001,2023-07-24_21h07.35.163,arm3_eps,2022.2.5,Win32,59.7193192,60d1f5b80e53a48f8f7f444b,64aea9d0f615b6559c281482,64becbbc6a5e0f6a94be9879,right,1,0.3,0.3071,5,0.054752621,0.6945,,,,,,69,0,69,0,1,,,,,
,,901229,001,2023-07-24_21h07.35.163,arm3_eps,2022.2.5,Win32,59.7193192,60d1f5b80e53a48f8f7f444b,64aea9d0f615b6559c281482,64becbbc6a5e0f6a94be9879,up,1,0.3,0.3071,6,0,0.4728,,,,,,70,0,70,0,1,,,,,
,,901229,001,2023-07-24_21h07.35.163,arm3_eps,2022.2.5,Win32,59.7193192,60d1f5b80e53a48f8f7f444b,64aea9d0f615b6559c281482,64becbbc6a5e0f6a94be9879,right,1,0.3,0.3071,6,-0.002007729,0.8084,,,,,,71,0,71,0,1,,,,,
,,901229,001,2023-07-24_21h07.35.163,arm3_eps,2022.2.5,Win32,59.7193192,60d1f5b80e53a48f8f7f444b,64aea9d0f615b6559c281482,64becbbc6a5e0f6a94be9879,right,1,0.3,0.3071,6,0.057882501,0.1989,,,,,,72,0,72,0,1,,,,,
,,901229,001,2023-07-24_21h07.35.163,arm3_eps,2022.2.5,Win32,59.7193192,60d1f5b80e53a48f8f7f444b,64aea9d0f615b6559c281482,64becbbc6a5e0f6a94be9879,right,1,0.3,0.3071,6,0.03758044,0.4085,,,,,,73,0,73,0,1,,,,,
,,901229,001,2023-07-24_21h07.35.163,arm3_eps,2022.2.5,Win32,59.7193192,60d1f5b80e53a48f8f7f444b,64aea9d0f615b6559c281482,64becbbc6a5e0f6a94be9879,right,1,0.3,0.3071,6,0.074937479,0.342,,,,,,74,0,74,0,1,,,,,
,,901229,001,2023-07-24_21h07.35.163,arm3_eps,2022.2.5,Win32,59.7193192,60d1f5b80e53a48f8f7f444b,64aea9d0f615b6559c281482,64becbbc6a5e0f6a94be9879,up,-1,0.3,0.3071,6,0,0.5442,,,,,,75,0,75,0,1,,,,,
,,901229,001,2023-07-24_21h07.35.163,arm3_eps,2022.2.5,Win32,59.7193192,60d1f5b80e53a48f8f7f444b,64aea9d0f615b6559c281482,64becbbc6a5e0f6a94be9879,right,-1,0.3,0.3071,6,-0.007059672,0.7992,,,,,,76,0,76,0,1,,,,,
,,901229,001,2023-07-24_21h07.35.163,arm3_eps,2022.2.5,Win32,59.7193192,60d1f5b80e53a48f8f7f444b,64aea9d0f615b6559c281482,64becbbc6a5e0f6a94be9879,right,-1,0.3,0.3071,6,-0.020277266,0.2585,,,,,,77,0,77,0,1,,,,,
,,901229,001,2023-07-24_21h07.35.163,arm3_eps,2022.2.5,Win32,59.7193192,60d1f5b80e53a48f8f7f444b,64aea9d0f615b6559c281482,64becbbc6a5e0f6a94be9879,right,-1,0.3,0.3071,6,-0.00459339,0.2403,,,,,,78,0,78,0,1,,,,,
,,901229,001,2023-07-24_21h07.35.163,arm3_eps,2022.2.5,Win32,59.7193192,60d1f5b80e53a48f8f7f444b,64aea9d0f615b6559c281482,64becbbc6a5e0f6a94be9879,right,-1,0.3,0.3071,6,-0.031089576,0.2433,,,,,,79,0,79,0,1,,,,,
,,901229,001,2023-07-24_21h07.35.163,arm3_eps,2022.2.5,Win32,59.7193192,60d1f5b80e53a48f8f7f444b,64aea9d0f615b6559c281482,64becbbc6a5e0f6a94be9879,right,-1,0.3,0.3071,6,-0.004920183,0.3091,,,,,,80,0,80,0,1,,,,,
,,901229,001,2023-07-24_21h07.35.163,arm3_eps,2022.2.5,Win32,59.7193192,60d1f5b80e53a48f8f7f444b,64aea9d0f615b6559c281482,64becbbc6a5e0f6a94be9879,right,-1,0.3,0.3071,6,0.002646116,0.2787,,,,,,81,0,81,0,1,,,,,
,,901229,001,2023-07-24_21h07.35.163,arm3_eps,2022.2.5,Win32,59.7193192,60d1f5b80e53a48f8f7f444b,64aea9d0f615b6559c281482,64becbbc6a5e0f6a94be9879,down,-1,0.3,0.3071,6,0,0.8756,,,,,,82,0,82,0,1,,,,,
,,901229,001,2023-07-24_21h07.35.163,arm3_eps,2022.2.5,Win32,59.7193192,60d1f5b80e53a48f8f7f444b,64aea9d0f615b6559c281482,64becbbc6a5e0f6a94be9879,right,-1,0.3,0.3071,6,-0.056747326,0.6802,,,,,,83,0,83,0,1,,,,,
,,901229,001,2023-07-24_21h07.35.163,arm3_eps,2022.2.5,Win32,59.7193192,60d1f5b80e53a48f8f7f444b,64aea9d0f615b6559c281482,64becbbc6a5e0f6a94be9879,right,-1,0.3,0.3071,6,-0.088332916,0.2258,,,,,,84,0,84,0,1,,,,,
,,901229,001,2023-07-24_21h07.35.163,arm3_eps,2022.2.5,Win32,59.7193192,60d1f5b80e53a48f8f7f444b,64aea9d0f615b6559c281482,64becbbc6a5e0f6a94be9879,down,-1,0.3,0.3071,7,0,0.7075,,,,,,85,0,85,0,1,,,,,
,,901229,001,2023-07-24_21h07.35.163,arm3_eps,2022.2.5,Win32,59.7193192,60d1f5b80e53a48f8f7f444b,64aea9d0f615b6559c281482,64becbbc6a5e0f6a94be9879,right,-1,0.3,0.3071,7,0.030110921,0.7636,,,,,,86,0,86,0,1,,,,,
,,901229,001,2023-07-24_21h07.35.163,arm3_eps,2022.2.5,Win32,59.7193192,60d1f5b80e53a48f8f7f444b,64aea9d0f615b6559c281482,64becbbc6a5e0f6a94be9879,right,-1,0.3,0.3071,7,0.032078744,0.2771,,,,,,87,0,87,0,1,,,,,
,,901229,001,2023-07-24_21h07.35.163,arm3_eps,2022.2.5,Win32,59.7193192,60d1f5b80e53a48f8f7f444b,64aea9d0f615b6559c281482,64becbbc6a5e0f6a94be9879,right,-1,0.3,0.3071,7,0.014287446,0.2761,,,,,,88,0,88,0,1,,,,,
,,901229,001,2023-07-24_21h07.35.163,arm3_eps,2022.2.5,Win32,59.7193192,60d1f5b80e53a48f8f7f444b,64aea9d0f615b6559c281482,64becbbc6a5e0f6a94be9879,down,-1,0.3,0.3071,7,0,0.4633,,,,,,89,0,89,0,1,,,,,
,,901229,001,2023-07-24_21h07.35.163,arm3_eps,2022.2.5,Win32,59.7193192,60d1f5b80e53a48f8f7f444b,64aea9d0f615b6559c281482,64becbbc6a5e0f6a94be9879,right,-1,0.3,0.3071,7,0.007396471,0.7309,,,,,,90,0,90,0,1,,,,,
,,901229,001,2023-07-24_21h07.35.163,arm3_eps,2022.2.5,Win32,59.7193192,60d1f5b80e53a48f8f7f444b,64aea9d0f615b6559c281482,64becbbc6a5e0f6a94be9879,right,-1,0.3,0.3071,7,0.023367014,0.4423,,,,,,91,0,91,0,1,,,,,
,,901229,001,2023-07-24_21h07.35.163,arm3_eps,2022.2.5,Win32,59.7193192,60d1f5b80e53a48f8f7f444b,64aea9d0f615b6559c281482,64becbbc6a5e0f6a94be9879,right,-1,0.3,0.3071,7,-0.002056199,0.2091,,,,,,92,0,92,0,1,,,,,
,,901229,001,2023-07-24_21h07.35.163,arm3_eps,2022.2.5,Win32,59.7193192,60d1f5b80e53a48f8f7f444b,64aea9d0f615b6559c281482,64becbbc6a5e0f6a94be9879,right,-1,0.3,0.3071,7,-0.033804681,0.2105,,,,,,93,0,93,0,1,,,,,
,,901229,001,2023-07-24_21h07.35.163,arm3_eps,2022.2.5,Win32,59.7193192,60d1f5b80e53a48f8f7f444b,64aea9d0f615b6559c281482,64becbbc6a5e0f6a94be9879,right,-1,0.3,0.3071,7,-0.041896537,0.5158,,,,,,94,0,94,0,1,,,,,
,,901229,001,2023-07-24_21h07.35.163,arm3_eps,2022.2.5,Win32,59.7193192,60d1f5b80e53a48f8f7f444b,64aea9d0f615b6559c281482,64becbbc6a5e0f6a94be9879,up,-1,0.3,0.3071,6,0,0.5422,,,,,,95,0,95,0,1,,,,,
,,901229,001,2023-07-24_21h07.35.163,arm3_eps,2022.2.5,Win32,59.7193192,60d1f5b80e53a48f8f7f444b,64aea9d0f615b6559c281482,64becbbc6a5e0f6a94be9879,right,-1,0.3,0.3071,6,-0.009063147,0.9463,,,,,,96,0,96,0,1,,,,,
,,901229,001,2023-07-24_21h07.35.163,arm3_eps,2022.2.5,Win32,59.7193192,60d1f5b80e53a48f8f7f444b,64aea9d0f615b6559c281482,64becbbc6a5e0f6a94be9879,right,-1,0.3,0.3071,6,-0.024382887,0.1986,,,,,,97,0,97,0,1,,,,,
,,901229,001,2023-07-24_21h07.35.163,arm3_eps,2022.2.5,Win32,59.7193192,60d1f5b80e53a48f8f7f444b,64aea9d0f615b6559c281482,64becbbc6a5e0f6a94be9879,right,-1,0.3,0.3071,6,-0.029128959,0.1953,,,,,,98,0,98,0,1,,,,,
,,901229,001,2023-07-24_21h07.35.163,arm3_eps,2022.2.5,Win32,59.7193192,60d1f5b80e53a48f8f7f444b,64aea9d0f615b6559c281482,64becbbc6a5e0f6a94be9879,right,-1,0.3,0.3071,6,-0.013021375,0.1756,,,,,,99,0,99,0,1,,,,,
,,901229,001,2023-07-24_21h07.35.163,arm3_eps,2022.2.5,Win32,59.7193192,60d1f5b80e53a48f8f7f444b,64aea9d0f615b6559c281482,64becbbc6a5e0f6a94be9879,right,-1,0.3,0.3071,6,-0.007888091,0.1946,,,,,,100,0,100,0,1,,,,,
,,901229,001,2023-07-24_21h07.35.163,arm3_eps,2022.2.5,Win32,59.7193192,60d1f5b80e53a48f8f7f444b,64aea9d0f615b6559c281482,64becbbc6a5e0f6a94be9879,right,-1,0.3,0.3071,6,-0.039385309,0.3433,,,,,,101,0,101,0,1,,,,,
,,901229,001,2023-07-24_21h07.35.163,arm3_eps,2022.2.5,Win32,59.7193192,60d1f5b80e53a48f8f7f444b,64aea9d0f615b6559c281482,64becbbc6a5e0f6a94be9879,right,-1,0.3,0.3071,6,-0.007292327,0.2095,,,,,,102,0,102,0,1,,,,,
,,901229,001,2023-07-24_21h07.35.163,arm3_eps,2022.2.5,Win32,59.7193192,60d1f5b80e53a48f8f7f444b,64aea9d0f615b6559c281482,64becbbc6a5e0f6a94be9879,up,1,0.3,0.3071,6,0,0.4424,,,,,,103,0,103,0,1,,,,,
,,901229,001,2023-07-24_21h07.35.163,arm3_eps,2022.2.5,Win32,59.7193192,60d1f5b80e53a48f8f7f444b,64aea9d0f615b6559c281482,64becbbc6a5e0f6a94be9879,right,1,0.3,0.3071,6,-0.000999873,0.711,,,,,,104,0,104,0,1,,,,,
,,901229,001,2023-07-24_21h07.35.163,arm3_eps,2022.2.5,Win32,59.7193192,60d1f5b80e53a48f8f7f444b,64aea9d0f615b6559c281482,64becbbc6a5e0f6a94be9879,right,1,0.3,0.3071,6,-0.008582002,0.1909,,,,,,105,0,105,0,1,,,,,
,,901229,001,2023-07-24_21h07.35.163,arm3_eps,2022.2.5,Win32,59.7193192,60d1f5b80e53a48f8f7f444b,64aea9d0f615b6559c281482,64becbbc6a5e0f6a94be9879,right,1,0.3,0.3071,6,-0.019802449,0.31,,,,,,106,0,106,0,1,,,,,
,,901229,001,2023-07-24_21h07.35.163,arm3_eps,2022.2.5,Win32,59.7193192,60d1f5b80e53a48f8f7f444b,64aea9d0f615b6559c281482,64becbbc6a5e0f6a94be9879,right,1,0.3,0.3071,6,-0.02509262,0.2423,,,,,,107,0,107,0,1,,,,,
,,901229,001,2023-07-24_21h07.35.163,arm3_eps,2022.2.5,Win32,59.7193192,60d1f5b80e53a48f8f7f444b,64aea9d0f615b6559c281482,64becbbc6a5e0f6a94be9879,down,1,0.3,0.3071,6,0,0.5269,,,,,,108,0,108,0,1,,,,,
,,901229,001,2023-07-24_21h07.35.163,arm3_eps,2022.2.5,Win32,59.7193192,60d1f5b80e53a48f8f7f444b,64aea9d0f615b6559c281482,64becbbc6a5e0f6a94be9879,right,1,0.3,0.3071,6,0.012394412,0.7154,,,,,,109,0,109,0,1,,,,,
,,901229,001,2023-07-24_21h07.35.163,arm3_eps,2022.2.5,Win32,59.7193192,60d1f5b80e53a48f8f7f444b,64aea9d0f615b6559c281482,64becbbc6a5e0f6a94be9879,right,1,0.3,0.3071,6,0.05866026,0.2308,,,,,,110,0,110,0,1,,,,,
,,901229,001,2023-07-24_21h07.35.163,arm3_eps,2022.2.5,Win32,59.7193192,60d1f5b80e53a48f8f7f444b,64aea9d0f615b6559c281482,64becbbc6a5e0f6a94be9879,up,1,0.3,0.3071,6,0,0.6489,,,,,,111,0,111,0,1,,,,,
,,901229,001,2023-07-24_21h07.35.163,arm3_eps,2022.2.5,Win32,59.7193192,60d1f5b80e53a48f8f7f444b,64aea9d0f615b6559c281482,64becbbc6a5e0f6a94be9879,right,1,0.3,0.3071,6,0.019292578,1.5667,,,,,,112,0,112,0,1,,,,,
,,901229,001,2023-07-24_21h07.35.163,arm3_eps,2022.2.5,Win32,59.7193192,60d1f5b80e53a48f8f7f444b,64aea9d0f615b6559c281482,64becbbc6a5e0f6a94be9879,right,1,0.3,0.3071,6,0.043945426,0.3137,,,,,,113,0,113,0,1,,,,,
,,901229,001,2023-07-24_21h07.35.163,arm3_eps,2022.2.5,Win32,59.7193192,60d1f5b80e53a48f8f7f444b,64aea9d0f615b6559c281482,64becbbc6a5e0f6a94be9879,right,1,0.3,0.3071,6,0.054022592,0.3205,,,,,,114,0,114,0,1,,,,,
,,901229,001,2023-07-24_21h07.35.163,arm3_eps,2022.2.5,Win32,59.7193192,60d1f5b80e53a48f8f7f444b,64aea9d0f615b6559c281482,64becbbc6a5e0f6a94be9879,up,-1,0.3,0.3071,6,0,0.4938,,,,,,115,0,115,0,1,,,,,
,,901229,001,2023-07-24_21h07.35.163,arm3_eps,2022.2.5,Win32,59.7193192,60d1f5b80e53a48f8f7f444b,64aea9d0f615b6559c281482,64becbbc6a5e0f6a94be9879,right,-1,0.3,0.3071,6,-0.01488981,0.8186,,,,,,116,0,116,0,1,,,,,
,,901229,001,2023-07-24_21h07.35.163,arm3_eps,2022.2.5,Win32,59.7193192,60d1f5b80e53a48f8f7f444b,64aea9d0f615b6559c281482,64becbbc6a5e0f6a94be9879,right,-1,0.3,0.3071,6,0.010981599,0.1934,,,,,,117,0,117,0,1,,,,,
,,901229,001,2023-07-24_21h07.35.163,arm3_eps,2022.2.5,Win32,59.7193192,60d1f5b80e53a48f8f7f444b,64aea9d0f615b6559c281482,64becbbc6a5e0f6a94be9879,right,-1,0.3,0.3071,6,0.013628462,0.2997,,,,,,118,0,118,0,1,,,,,
,,901229,001,2023-07-24_21h07.35.163,arm3_eps,2022.2.5,Win32,59.7193192,60d1f5b80e53a48f8f7f444b,64aea9d0f615b6559c281482,64becbbc6a5e0f6a94be9879,right,-1,0.3,0.3071,6,0.002514302,0.2419,,,,,,119,0,119,0,1,,,,,
,,901229,001,2023-07-24_21h07.35.163,arm3_eps,2022.2.5,Win32,59.7193192,60d1f5b80e53a48f8f7f444b,64aea9d0f615b6559c281482,64becbbc6a5e0f6a94be9879,right,-1,0.3,0.3071,6,0.017630448,0.0439,,,,,,120,0,120,0,1,,,,,
,,901229,001,2023-07-24_21h07.35.163,arm3_eps,2022.2.5,Win32,59.7193192,60d1f5b80e53a48f8f7f444b,64aea9d0f615b6559c281482,64becbbc6a5e0f6a94be9879,right,-1,0.3,0.3071,6,0.032037919,0.1757,,,,,,121,0,121,0,1,,,,,
,,901229,001,2023-07-24_21h07.35.163,arm3_eps,2022.2.5,Win32,59.7193192,60d1f5b80e53a48f8f7f444b,64aea9d0f615b6559c281482,64becbbc6a5e0f6a94be9879,right,-1,0.3,0.3071,6,0.01680888,0.1435,,,,,,122,0,122,0,1,,,,,
,,901229,001,2023-07-24_21h07.35.163,arm3_eps,2022.2.5,Win32,59.7193192,60d1f5b80e53a48f8f7f444b,64aea9d0f615b6559c281482,64becbbc6a5e0f6a94be9879,up,-1,0.3,0.3071,6,0,0.4757,,,,,,123,0,123,0,1,,,,,
,,901229,001,2023-07-24_21h07.35.163,arm3_eps,2022.2.5,Win32,59.7193192,60d1f5b80e53a48f8f7f444b,64aea9d0f615b6559c281482,64becbbc6a5e0f6a94be9879,right,-1,0.3,0.3071,6,-0.008117037,0.7973,,,,,,124,0,124,0,1,,,,,
,,901229,001,2023-07-24_21h07.35.163,arm3_eps,2022.2.5,Win32,59.7193192,60d1f5b80e53a48f8f7f444b,64aea9d0f615b6559c281482,64becbbc6a5e0f6a94be9879,right,-1,0.3,0.3071,6,-0.031591488,0.2649,,,,,,125,0,125,0,1,,,,,
,,901229,001,2023-07-24_21h07.35.163,arm3_eps,2022.2.5,Win32,59.7193192,60d1f5b80e53a48f8f7f444b,64aea9d0f615b6559c281482,64becbbc6a5e0f6a94be9879,right,-1,0.3,0.3071,6,-0.047394076,0.2114,,,,,,126,0,126,0,1,,,,,
,,901229,001,2023-07-24_21h07.35.163,arm3_eps,2022.2.5,Win32,59.7193192,60d1f5b80e53a48f8f7f444b,64aea9d0f615b6559c281482,64becbbc6a5e0f6a94be9879,right,-1,0.3,0.3071,6,-0.06126494,0.2596,,,,,,127,0,127,0,1,,,,,
,,901229,001,2023-07-24_21h07.35.163,arm3_eps,2022.2.5,Win32,59.7193192,60d1f5b80e53a48f8f7f444b,64aea9d0f615b6559c281482,64becbbc6a5e0f6a94be9879,down,-1,0.3,0.3071,6,0,0.578,,,,,,128,0,128,0,1,,,,,
,,901229,001,2023-07-24_21h07.35.163,arm3_eps,2022.2.5,Win32,59.7193192,60d1f5b80e53a48f8f7f444b,64aea9d0f615b6559c281482,64becbbc6a5e0f6a94be9879,right,-1,0.3,0.3071,6,-0.025081805,1.0498,,,,,,129,0,129,0,1,,,,,
,,901229,001,2023-07-24_21h07.35.163,arm3_eps,2022.2.5,Win32,59.7193192,60d1f5b80e53a48f8f7f444b,64aea9d0f615b6559c281482,64becbbc6a5e0f6a94be9879,right,-1,0.3,0.3071,6,-0.016885336,0.1449,,,,,,130,0,130,0,1,,,,,
,,901229,001,2023-07-24_21h07.35.163,arm3_eps,2022.2.5,Win32,59.7193192,60d1f5b80e53a48f8f7f444b,64aea9d0f615b6559c281482,64becbbc6a5e0f6a94be9879,right,-1,0.3,0.3071,6,-0.021390653,0.2555,,,,,,131,0,131,0,1,,,,,
,,901229,001,2023-07-24_21h07.35.163,arm3_eps,2022.2.5,Win32,59.7193192,60d1f5b80e53a48f8f7f444b,64aea9d0f615b6559c281482,64becbbc6a5e0f6a94be9879,right,-1,0.3,0.3071,6,-0.047391704,0.3257,,,,,,132,0,132,0,1,,,,,
,,901229,001,2023-07-24_21h07.35.163,arm3_eps,2022.2.5,Win32,59.7193192,60d1f5b80e53a48f8f7f444b,64aea9d0f615b6559c281482,64becbbc6a5e0f6a94be9879,right,-1,0.3,0.3071,6,-0.093883443,0.3155,,,,,,133,0,133,0,1,,,,,
,,901229,001,2023-07-24_21h07.35.163,arm3_eps,2022.2.5,Win32,59.7193192,60d1f5b80e53a48f8f7f444b,64aea9d0f615b6559c281482,64becbbc6a5e0f6a94be9879,down,1,0.3,0.3071,6,0,0.5271,,,,,,134,0,134,0,1,,,,,
,,901229,001,2023-07-24_21h07.35.163,arm3_eps,2022.2.5,Win32,59.7193192,60d1f5b80e53a48f8f7f444b,64aea9d0f615b6559c281482,64becbbc6a5e0f6a94be9879,right,1,0.3,0.3071,6,-0.011013065,0.7971,,,,,,135,0,135,0,1,,,,,
,,901229,001,2023-07-24_21h07.35.163,arm3_eps,2022.2.5,Win32,59.7193192,60d1f5b80e53a48f8f7f444b,64aea9d0f615b6559c281482,64becbbc6a5e0f6a94be9879,right,1,0.3,0.3071,6,-0.032149226,0.3327,,,,,,136,0,136,0,1,,,,,
,,901229,001,2023-07-24_21h07.35.163,arm3_eps,2022.2.5,Win32,59.7193192,60d1f5b80e53a48f8f7f444b,64aea9d0f615b6559c281482,64becbbc6a5e0f6a94be9879,right,1,0.3,0.3071,6,-0.080610955,0.2302,,,,,,137,0,137,0,1,,,,,
,,901229,001,2023-07-24_21h07.35.163,arm3_eps,2022.2.5,Win32,59.7193192,60d1f5b80e53a48f8f7f444b,64aea9d0f615b6559c281482,64becbbc6a5e0f6a94be9879,down,1,0.3,0.3071,5,0,0.3375,,,,,,138,0,138,0,1,,,,,
,,901229,001,2023-07-24_21h07.35.163,arm3_eps,2022.2.5,Win32,59.7193192,60d1f5b80e53a48f8f7f444b,64aea9d0f615b6559c281482,64becbbc6a5e0f6a94be9879,right,1,0.3,0.3071,5,0.030493684,0.8315,,,,,,139,0,139,0,1,,,,,
,,901229,001,2023-07-24_21h07.35.163,arm3_eps,2022.2.5,Win32,59.7193192,60d1f5b80e53a48f8f7f444b,64aea9d0f615b6559c281482,64becbbc6a5e0f6a94be9879,right,1,0.3,0.3071,5,0.014676118,0.2095,,,,,,140,0,140,0,1,,,,,
,,901229,001,2023-07-24_21h07.35.163,arm3_eps,2022.2.5,Win32,59.7193192,60d1f5b80e53a48f8f7f444b,64aea9d0f615b6559c281482,64becbbc6a5e0f6a94be9879,right,1,0.3,0.3071,5,0.020485513,0.261,,,,,,141,0,141,0,1,,,,,
,,901229,001,2023-07-24_21h07.35.163,arm3_eps,2022.2.5,Win32,59.7193192,60d1f5b80e53a48f8f7f444b,64aea9d0f615b6559c281482,64becbbc6a5e0f6a94be9879,right,1,0.3,0.3071,5,0.013603678,0.2963,,,,,,142,0,142,0,1,,,,,
,,901229,001,2023-07-24_21h07.35.163,arm3_eps,2022.2.5,Win32,59.7193192,60d1f5b80e53a48f8f7f444b,64aea9d0f615b6559c281482,64becbbc6a5e0f6a94be9879,down,1,0.3,0.3071,5,0,0.3719,,,,,,143,0,143,0,1,,,,,
,,901229,001,2023-07-24_21h07.35.163,arm3_eps,2022.2.5,Win32,59.7193192,60d1f5b80e53a48f8f7f444b,64aea9d0f615b6559c281482,64becbbc6a5e0f6a94be9879,right,1,0.3,0.3071,5,0.020157177,0.68,,,,,,144,0,144,0,1,,,,,
,,901229,001,2023-07-24_21h07.35.163,arm3_eps,2022.2.5,Win32,59.7193192,60d1f5b80e53a48f8f7f444b,64aea9d0f615b6559c281482,64becbbc6a5e0f6a94be9879,right,1,0.3,0.3071,5,0.046269658,0.2072,,,,,,145,0,145,0,1,,,,,
,,901229,001,2023-07-24_21h07.35.163,arm3_eps,2022.2.5,Win32,59.7193192,60d1f5b80e53a48f8f7f444b,64aea9d0f615b6559c281482,64becbbc6a5e0f6a94be9879,right,1,0.3,0.3071,5,0.030828507,0.2262,,,,,,146,0,146,0,1,,,,,
,,901229,001,2023-07-24_21h07.35.163,arm3_eps,2022.2.5,Win32,59.7193192,60d1f5b80e53a48f8f7f444b,64aea9d0f615b6559c281482,64becbbc6a5e0f6a94be9879,right,1,0.3,0.3071,5,0.046292788,0.077,,,,,,147,0,147,0,1,,,,,
,,901229,001,2023-07-24_21h07.35.163,arm3_eps,2022.2.5,Win32,59.7193192,60d1f5b80e53a48f8f7f444b,64aea9d0f615b6559c281482,64becbbc6a5e0f6a94be9879,right,1,0.3,0.3071,5,0.041281414,0.6104,,,,,,148,0,148,0,1,,,,,
,,901229,001,2023-07-24_21h07.35.163,arm3_eps,2022.2.5,Win32,59.7193192,60d1f5b80e53a48f8f7f444b,64aea9d0f615b6559c281482,64becbbc6a5e0f6a94be9879,up,1,0.3,0.3071,5,0,0.5354,,,,,,149,0,149,0,1,,,,,
,,901229,001,2023-07-24_21h07.35.163,arm3_eps,2022.2.5,Win32,59.7193192,60d1f5b80e53a48f8f7f444b,64aea9d0f615b6559c281482,64becbbc6a5e0f6a94be9879,right,1,0.3,0.3071,5,0.018912654,0.8312,,,,,,150,0,150,0,1,,,,,
,,901229,001,2023-07-24_21h07.35.163,arm3_eps,2022.2.5,Win32,59.7193192,60d1f5b80e53a48f8f7f444b,64aea9d0f615b6559c281482,64becbbc6a5e0f6a94be9879,right,1,0.3,0.3071,5,0.047982726,0.217,,,,,,151,0,151,0,1,,,,,
,,901229,001,2023-07-24_21h07.35.163,arm3_eps,2022.2.5,Win32,59.7193192,60d1f5b80e53a48f8f7f444b,64aea9d0f615b6559c281482,64becbbc6a5e0f6a94be9879,up,1,0.3,0.3071,6,0,0.3868,,,,,,152,0,152,0,1,,,,,
,,901229,001,2023-07-24_21h07.35.163,arm3_eps,2022.2.5,Win32,59.7193192,60d1f5b80e53a48f8f7f444b,64aea9d0f615b6559c281482,64becbbc6a5e0f6a94be9879,right,1,0.3,0.3071,6,0.050738473,1.3336,,,,,,153,0,153,0,1,,,,,
,,901229,001,2023-07-24_21h07.35.163,arm3_eps,2022.2.5,Win32,59.7193192,60d1f5b80e53a48f8f7f444b,64aea9d0f615b6559c281482,64becbbc6a5e0f6a94be9879,up,1,0.3,0.3071,6,0,0.5086,,,,,,154,0,154,0,1,,,,,
,,901229,001,2023-07-24_21h07.35.163,arm3_eps,2022.2.5,Win32,59.7193192,60d1f5b80e53a48f8f7f444b,64aea9d0f615b6559c281482,64becbbc6a5e0f6a94be9879,right,1,0.3,0.3071,6,-0.017382207,0.7799,,,,,,155,0,155,0,1,,,,,
,,901229,001,2023-07-24_21h07.35.163,arm3_eps,2022.2.5,Win32,59.7193192,60d1f5b80e53a48f8f7f444b,64aea9d0f615b6559c281482,64becbbc6a5e0f6a94be9879,up,-1,0.3,0.3071,6,0,0.7139,,,,,,156,0,156,0,1,,,,,
,,901229,001,2023-07-24_21h07.35.163,arm3_eps,2022.2.5,Win32,59.7193192,60d1f5b80e53a48f8f7f444b,64aea9d0f615b6559c281482,64becbbc6a5e0f6a94be9879,right,-1,0.3,0.3071,6,-0.00256506,0.6307,,,,,,157,0,157,0,1,,,,,
,,901229,001,2023-07-24_21h07.35.163,arm3_eps,2022.2.5,Win32,59.7193192,60d1f5b80e53a48f8f7f444b,64aea9d0f615b6559c281482,64becbbc6a5e0f6a94be9879,right,-1,0.3,0.3071,6,0.008664206,0.4531,,,,,,158,0,158,0,1,,,,,
,,901229,001,2023-07-24_21h07.35.163,arm3_eps,2022.2.5,Win32,59.7193192,60d1f5b80e53a48f8f7f444b,64aea9d0f615b6559c281482,64becbbc6a5e0f6a94be9879,up,1,0.3,0.3071,5,0,0.5971,,,,,,159,0,159,0,1,,,,,
,,901229,001,2023-07-24_21h07.35.163,arm3_eps,2022.2.5,Win32,59.7193192,60d1f5b80e53a48f8f7f444b,64aea9d0f615b6559c281482,64becbbc6a5e0f6a94be9879,right,1,0.3,0.3071,5,0.013791614,0.7723,,,,,,160,0,160,0,1,,,,,
,,901229,001,2023-07-24_21h07.35.163,arm3_eps,2022.2.5,Win32,59.7193192,60d1f5b80e53a48f8f7f444b,64aea9d0f615b6559c281482,64becbbc6a5e0f6a94be9879,right,1,0.3,0.3071,5,-0.018151126,0.2522,,,,,,161,0,161,0,1,,,,,
,,901229,001,2023-07-24_21h07.35.163,arm3_eps,2022.2.5,Win32,59.7193192,60d1f5b80e53a48f8f7f444b,64aea9d0f615b6559c281482,64becbbc6a5e0f6a94be9879,down,-1,0.3,0.3071,4,0,0.5766,,,,,,162,0,162,0,1,,,,,
,,901229,001,2023-07-24_21h07.35.163,arm3_eps,2022.2.5,Win32,59.7193192,60d1f5b80e53a48f8f7f444b,64aea9d0f615b6559c281482,64becbbc6a5e0f6a94be9879,right,-1,0.3,0.3071,4,-0.018236344,0.9313,,,,,,163,0,163,0,1,,,,,
,,901229,001,2023-07-24_21h07.35.163,arm3_eps,2022.2.5,Win32,59.7193192,60d1f5b80e53a48f8f7f444b,64aea9d0f615b6559c281482,64becbbc6a5e0f6a94be9879,right,-1,0.3,0.3071,4,-0.03515931,0.1755,,,,,,164,0,164,0,1,,,,,
,,901229,001,2023-07-24_21h07.35.163,arm3_eps,2022.2.5,Win32,59.7193192,60d1f5b80e53a48f8f7f444b,64aea9d0f615b6559c281482,64becbbc6a5e0f6a94be9879,right,-1,0.3,0.3071,4,-0.03014998,0.5102,,,,,,165,0,165,0,1,,,,,
,,901229,001,2023-07-24_21h07.35.163,arm3_eps,2022.2.5,Win32,59.7193192,60d1f5b80e53a48f8f7f444b,64aea9d0f615b6559c281482,64becbbc6a5e0f6a94be9879,right,-1,0.3,0.3071,4,-0.015147243,0.511,,,,,,166,0,166,0,1,,,,,
,,901229,001,2023-07-24_21h07.35.163,arm3_eps,2022.2.5,Win32,59.7193192,60d1f5b80e53a48f8f7f444b,64aea9d0f615b6559c281482,64becbbc6a5e0f6a94be9879,up,-1,0.3,0.3071,4,0,0.7285,,,,,,167,0,167,0,1,,,,,
,,901229,001,2023-07-24_21h07.35.163,arm3_eps,2022.2.5,Win32,59.7193192,60d1f5b80e53a48f8f7f444b,64aea9d0f615b6559c281482,64becbbc6a5e0f6a94be9879,right,-1,0.3,0.3071,4,-0.050960961,0.9638,,,,,,168,0,168,0,1,,,,,
,,901229,001,2023-07-24_21h07.35.163,arm3_eps,2022.2.5,Win32,59.7193192,60d1f5b80e53a48f8f7f444b,64aea9d0f615b6559c281482,64becbbc6a5e0f6a94be9879,right,-1,0.3,0.3071,4,-0.036185015,0.2467,,,,,,169,0,169,0,1,,,,,
,,901229,001,2023-07-24_21h07.35.163,arm3_eps,2022.2.5,Win32,59.7193192,60d1f5b80e53a48f8f7f444b,64aea9d0f615b6559c281482,64becbbc6a5e0f6a94be9879,right,-1,0.3,0.3071,4,-0.06059548,0.29,,,,,,170,0,170,0,1,,,,,
,,901229,001,2023-07-24_21h07.35.163,arm3_eps,2022.2.5,Win32,59.7193192,60d1f5b80e53a48f8f7f444b,64aea9d0f615b6559c281482,64becbbc6a5e0f6a94be9879,down,-1,0.3,0.3071,4,0,0.5119,,,,,,171,0,171,0,1,,,,,
,,901229,001,2023-07-24_21h07.35.163,arm3_eps,2022.2.5,Win32,59.7193192,60d1f5b80e53a48f8f7f444b,64aea9d0f615b6559c281482,64becbbc6a5e0f6a94be9879,right,-1,0.3,0.3071,4,-0.002938171,0.682,,,,,,172,0,172,0,1,,,,,
,,901229,001,2023-07-24_21h07.35.163,arm3_eps,2022.2.5,Win32,59.7193192,60d1f5b80e53a48f8f7f444b,64aea9d0f615b6559c281482,64becbbc6a5e0f6a94be9879,right,-1,0.3,0.3071,4,-0.029998933,0.2301,,,,,,173,0,173,0,1,,,,,
,,901229,001,2023-07-24_21h07.35.163,arm3_eps,2022.2.5,Win32,59.7193192,60d1f5b80e53a48f8f7f444b,64aea9d0f615b6559c281482,64becbbc6a5e0f6a94be9879,right,-1,0.3,0.3071,4,-0.054024948,0.1525,,,,,,174,0,174,0,1,,,,,
,,901229,001,2023-07-24_21h07.35.163,arm3_eps,2022.2.5,Win32,59.7193192,60d1f5b80e53a48f8f7f444b,64aea9d0f615b6559c281482,64becbbc6a5e0f6a94be9879,right,-1,0.3,0.3071,4,-0.100996032,0.2755,,,,,,175,0,175,0,1,,,,,
,,901229,001,2023-07-24_21h07.35.163,arm3_eps,2022.2.5,Win32,59.7193192,60d1f5b80e53a48f8f7f444b,64aea9d0f615b6559c281482,64becbbc6a5e0f6a94be9879,down,1,0.3,0.3071,4,0,0.461,,,,,,176,0,176,0,1,,,,,
,,901229,001,2023-07-24_21h07.35.163,arm3_eps,2022.2.5,Win32,59.7193192,60d1f5b80e53a48f8f7f444b,64aea9d0f615b6559c281482,64becbbc6a5e0f6a94be9879,right,1,0.3,0.3071,4,-0.015597301,0.6696,,,,,,177,0,177,0,1,,,,,
,,901229,001,2023-07-24_21h07.35.163,arm3_eps,2022.2.5,Win32,59.7193192,60d1f5b80e53a48f8f7f444b,64aea9d0f615b6559c281482,64becbbc6a5e0f6a94be9879,right,1,0.3,0.3071,4,0.03878451,0.2264,,,,,,178,0,178,0,1,,,,,
,,901229,001,2023-07-24_21h07.35.163,arm3_eps,2022.2.5,Win32,59.7193192,60d1f5b80e53a48f8f7f444b,64aea9d0f615b6559c281482,64becbbc6a5e0f6a94be9879,right,1,0.3,0.3071,4,0.058081865,0.3461,,,,,,179,0,179,0,1,,,,,
,,901229,001,2023-07-24_21h07.35.163,arm3_eps,2022.2.5,Win32,59.7193192,60d1f5b80e53a48f8f7f444b,64aea9d0f615b6559c281482,64becbbc6a5e0f6a94be9879,up,-1,0.3,0.3071,4,0,0.4069,,,,,,180,0,180,0,1,,,,,
,,901229,001,2023-07-24_21h07.35.163,arm3_eps,2022.2.5,Win32,59.7193192,60d1f5b80e53a48f8f7f444b,64aea9d0f615b6559c281482,64becbbc6a5e0f6a94be9879,right,-1,0.3,0.3071,4,-0.007656144,0.6202,,,,,,181,0,181,0,1,,,,,
,,901229,001,2023-07-24_21h07.35.163,arm3_eps,2022.2.5,Win32,59.7193192,60d1f5b80e53a48f8f7f444b,64aea9d0f615b6559c281482,64becbbc6a5e0f6a94be9879,right,-1,0.3,0.3071,4,-5.69251E-05,0.193,,,,,,182,0,182,0,1,,,,,
,,901229,001,2023-07-24_21h07.35.163,arm3_eps,2022.2.5,Win32,59.7193192,60d1f5b80e53a48f8f7f444b,64aea9d0f615b6559c281482,64becbbc6a5e0f6a94be9879,right,-1,0.3,0.3071,4,-0.010667461,0.1763,,,,,,183,0,183,0,1,,,,,
,,901229,001,2023-07-24_21h07.35.163,arm3_eps,2022.2.5,Win32,59.7193192,60d1f5b80e53a48f8f7f444b,64aea9d0f615b6559c281482,64becbbc6a5e0f6a94be9879,right,-1,0.3,0.3071,4,-0.026957807,0.1607,,,,,,184,0,184,0,1,,,,,
,,901229,001,2023-07-24_21h07.35.163,arm3_eps,2022.2.5,Win32,59.7193192,60d1f5b80e53a48f8f7f444b,64aea9d0f615b6559c281482,64becbbc6a5e0f6a94be9879,right,-1,0.3,0.3071,4,-0.066465868,0.1633,,,,,,185,0,185,0,1,,,,,
,,901229,001,2023-07-24_21h07.35.163,arm3_eps,2022.2.5,Win32,59.7193192,60d1f5b80e53a48f8f7f444b,64aea9d0f615b6559c281482,64becbbc6a5e0f6a94be9879,right,-1,0.3,0.3071,4,-0.072551045,0.1088,,,,,,186,0,186,0,1,,,,,
,,901229,001,2023-07-24_21h07.35.163,arm3_eps,2022.2.5,Win32,59.7193192,60d1f5b80e53a48f8f7f444b,64aea9d0f615b6559c281482,64becbbc6a5e0f6a94be9879,down,-1,0.3,0.3071,5,0,0.4108,,,,,,187,0,187,0,1,,,,,
,,901229,001,2023-07-24_21h07.35.163,arm3_eps,2022.2.5,Win32,59.7193192,60d1f5b80e53a48f8f7f444b,64aea9d0f615b6559c281482,64becbbc6a5e0f6a94be9879,right,-1,0.3,0.3071,5,0.002388996,1.3777,,,,,,188,0,188,0,1,,,,,
,,901229,001,2023-07-24_21h07.35.163,arm3_eps,2022.2.5,Win32,59.7193192,60d1f5b80e53a48f8f7f444b,64aea9d0f615b6559c281482,64becbbc6a5e0f6a94be9879,right,-1,0.3,0.3071,5,-0.014873005,0.1428,,,,,,189,0,189,0,1,,,,,
,,901229,001,2023-07-24_21h07.35.163,arm3_eps,2022.2.5,Win32,59.7193192,60d1f5b80e53a48f8f7f444b,64aea9d0f615b6559c281482,64becbbc6a5e0f6a94be9879,right,-1,0.3,0.3071,5,-0.019187348,0.2759,,,,,,190,0,190,0,1,,,,,
,,901229,001,2023-07-24_21h07.35.163,arm3_eps,2022.2.5,Win32,59.7193192,60d1f5b80e53a48f8f7f444b,64aea9d0f615b6559c281482,64becbbc6a5e0f6a94be9879,right,-1,0.3,0.3071,5,-0.044665844,0.1129,,,,,,191,0,191,0,1,,,,,
,,901229,001,2023-07-24_21h07.35.163,arm3_eps,2022.2.5,Win32,59.7193192,60d1f5b80e53a48f8f7f444b,64aea9d0f615b6559c281482,64becbbc6a5e0f6a94be9879,right,-1,0.3,0.3071,5,-0.055855644,0.6591,,,,,,192,0,192,0,1,,,,,
,,901229,001,2023-07-24_21h07.35.163,arm3_eps,2022.2.5,Win32,59.7193192,60d1f5b80e53a48f8f7f444b,64aea9d0f615b6559c281482,64becbbc6a5e0f6a94be9879,right,-1,0.3,0.3071,5,-0.067585253,0.1749,,,,,,193,0,193,0,1,,,,,
,,901229,001,2023-07-24_21h07.35.163,arm3_eps,2022.2.5,Win32,59.7193192,60d1f5b80e53a48f8f7f444b,64aea9d0f615b6559c281482,64becbbc6a5e0f6a94be9879,right,-1,0.3,0.3071,5,-0.078722595,0.1096,,,,,,194,0,194,0,1,,,,,
,,901229,001,2023-07-24_21h07.35.163,arm3_eps,2022.2.5,Win32,59.7193192,60d1f5b80e53a48f8f7f444b,64aea9d0f615b6559c281482,64becbbc6a5e0f6a94be9879,right,-1,0.3,0.3071,5,-0.081673581,0.0596,,,,,,195,0,195,0,1,,,,,
,,901229,001,2023-07-24_21h07.35.163,arm3_eps,2022.2.5,Win32,59.7193192,60d1f5b80e53a48f8f7f444b,64aea9d0f615b6559c281482,64becbbc6a5e0f6a94be9879,down,-1,0.3,0.3071,6,0,0.4764,,,,,,196,0,196,0,1,,,,,
,,901229,001,2023-07-24_21h07.35.163,arm3_eps,2022.2.5,Win32,59.7193192,60d1f5b80e53a48f8f7f444b,64aea9d0f615b6559c281482,64becbbc6a5e0f6a94be9879,right,-1,0.3,0.3071,6,-0.002860338,0.7846,,,,,,197,0,197,0,1,,,,,
,,901229,001,2023-07-24_21h07.35.163,arm3_eps,2022.2.5,Win32,59.7193192,60d1f5b80e53a48f8f7f444b,64aea9d0f615b6559c281482,64becbbc6a5e0f6a94be9879,right,-1,0.3,0.3071,6,0.010408787,0.1073,,,,,,198,0,198,0,1,,,,,
,,901229,001,2023-07-24_21h07.35.163,arm3_eps,2022.2.5,Win32,59.7193192,60d1f5b80e53a48f8f7f444b,64aea9d0f615b6559c281482,64becbbc6a5e0f6a94be9879,right,-1,0.3,0.3071,6,-0.004293318,0.1766,,,,,,199,0,199,0,1,,,,,
,,901229,001,2023-07-24_21h07.35.163,arm3_eps,2022.2.5,Win32,59.7193192,60d1f5b80e53a48f8f7f444b,64aea9d0f615b6559c281482,64becbbc6a5e0f6a94be9879,right,-1,0.3,0.3071,6,0.014740807,0.5089,,,,,,200,0,200,0,1,,,,,
,,901229,001,2023-07-24_21h07.35.163,arm3_eps,2022.2.5,Win32,59.7193192,60d1f5b80e53a48f8f7f444b,64aea9d0f615b6559c281482,64becbbc6a5e0f6a94be9879,right,-1,0.3,0.3071,6,-0.003366289,0.1599,,,,,,201,0,201,0,1,,,,,
,,901229,001,2023-07-24_21h07.35.163,arm3_eps,2022.2.5,Win32,59.7193192,60d1f5b80e53a48f8f7f444b,64aea9d0f615b6559c281482,64becbbc6a5e0f6a94be9879,right,-1,0.3,0.3071,6,0.016398718,0.1818,,,,,,202,0,202,0,1,,,,,
,,901229,001,2023-07-24_21h07.35.163,arm3_eps,2022.2.5,Win32,59.7193192,60d1f5b80e53a48f8f7f444b,64aea9d0f615b6559c281482,64becbbc6a5e0f6a94be9879,right,-1,0.3,0.3071,6,0.003901758,0.1259,,,,,,203,0,203,0,1,,,,,
,,901229,001,2023-07-24_21h07.35.163,arm3_eps,2022.2.5,Win32,59.7193192,60d1f5b80e53a48f8f7f444b,64aea9d0f615b6559c281482,64becbbc6a5e0f6a94be9879,right,-1,0.3,0.3071,6,0.008424127,0.3487,,,,,,204,0,204,0,1,,,,,
,,901229,001,2023-07-24_21h07.35.163,arm3_eps,2022.2.5,Win32,59.7193192,60d1f5b80e53a48f8f7f444b,64aea9d0f615b6559c281482,64becbbc6a5e0f6a94be9879,right,-1,0.3,0.3071,6,0.0025421,0.3086,,,,,,205,0,205,0,1,,,,,
,,901229,001,2023-07-24_21h07.35.163,arm3_eps,2022.2.5,Win32,59.7193192,60d1f5b80e53a48f8f7f444b,64aea9d0f615b6559c281482,64becbbc6a5e0f6a94be9879,right,-1,0.3,0.3071,6,-0.0335087,0.1946,,,,,,206,0,206,0,1,,,,,
,,901229,001,2023-07-24_21h07.35.163,arm3_eps,2022.2.5,Win32,59.7193192,60d1f5b80e53a48f8f7f444b,64aea9d0f615b6559c281482,64becbbc6a5e0f6a94be9879,right,-1,0.3,0.3071,6,-0.049045397,0.3605,,,,,,207,0,207,0,1,,,,,
,,901229,001,2023-07-24_21h07.35.163,arm3_eps,2022.2.5,Win32,59.7193192,60d1f5b80e53a48f8f7f444b,64aea9d0f615b6559c281482,64becbbc6a5e0f6a94be9879,down,-1,0.3,0.3071,7,0,0.7461,,,,,,208,0,208,0,1,,,,,
,,901229,001,2023-07-24_21h07.35.163,arm3_eps,2022.2.5,Win32,59.7193192,60d1f5b80e53a48f8f7f444b,64aea9d0f615b6559c281482,64becbbc6a5e0f6a94be9879,right,-1,0.3,0.3071,7,0.020240007,0.7852,,,,,,209,0,209,0,1,,,,,
,,901229,001,2023-07-24_21h07.35.163,arm3_eps,2022.2.5,Win32,59.7193192,60d1f5b80e53a48f8f7f444b,64aea9d0f615b6559c281482,64becbbc6a5e0f6a94be9879,right,-1,0.3,0.3071,7,-0.009929632,0.1612,,,,,,210,0,210,0,1,,,,,
,,901229,001,2023-07-24_21h07.35.163,arm3_eps,2022.2.5,Win32,59.7193192,60d1f5b80e53a48f8f7f444b,64aea9d0f615b6559c281482,64becbbc6a5e0f6a94be9879,right,-1,0.3,0.3071,7,-0.014167875,0.1766,,,,,,211,0,211,0,1,,,,,
,,901229,001,2023-07-24_21h07.35.163,arm3_eps,2022.2.5,Win32,59.7193192,60d1f5b80e53a48f8f7f444b,64aea9d0f615b6559c281482,64becbbc6a5e0f6a94be9879,right,-1,0.3,0.3071,7,0.013442905,0.242,,,,,,212,0,212,0,1,,,,,
,,901229,001,2023-07-24_21h07.35.163,arm3_eps,2022.2.5,Win32,59.7193192,60d1f5b80e53a48f8f7f444b,64aea9d0f615b6559c281482,64becbbc6a5e0f6a94be9879,right,-1,0.3,0.3071,7,0.002931714,0.1781,,,,,,213,0,213,0,1,,,,,
,,901229,001,2023-07-24_21h07.35.163,arm3_eps,2022.2.5,Win32,59.7193192,60d1f5b80e53a48f8f7f444b,64aea9d0f615b6559c281482,64becbbc6a5e0f6a94be9879,right,-1,0.3,0.3071,7,0.004309791,0.1764,,,,,,214,0,214,0,1,,,,,
,,901229,001,2023-07-24_21h07.35.163,arm3_eps,2022.2.5,Win32,59.7193192,60d1f5b80e53a48f8f7f444b,64aea9d0f615b6559c281482,64becbbc6a5e0f6a94be9879,right,-1,0.3,0.3071,7,-0.002004905,0.1596,,,,,,215,0,215,0,1,,,,,
,,901229,001,2023-07-24_21h07.35.163,arm3_eps,2022.2.5,Win32,59.7193192,60d1f5b80e53a48f8f7f444b,64aea9d0f615b6559c281482,64becbbc6a5e0f6a94be9879,down,1,0.3,0.3071,7,0,0.81,,,,,,216,0,216,0,1,,,,,
,,901229,001,2023-07-24_21h07.35.163,arm3_eps,2022.2.5,Win32,59.7193192,60d1f5b80e53a48f8f7f444b,64aea9d0f615b6559c281482,64becbbc6a5e0f6a94be9879,right,1,0.3,0.3071,7,-0.027592173,0.7459,,,,,,217,0,217,0,1,,,,,
,,901229,001,2023-07-24_21h07.35.163,arm3_eps,2022.2.5,Win32,59.7193192,60d1f5b80e53a48f8f7f444b,64aea9d0f615b6559c281482,64becbbc6a5e0f6a94be9879,right,1,0.3,0.3071,7,-0.00494744,0.1482,,,,,,218,0,218,0,1,,,,,
,,901229,001,2023-07-24_21h07.35.163,arm3_eps,2022.2.5,Win32,59.7193192,60d1f5b80e53a48f8f7f444b,64aea9d0f615b6559c281482,64becbbc6a5e0f6a94be9879,right,1,0.3,0.3071,7,-0.027535011,0.1658,,,,,,219,0,219,0,1,,,,,
,,901229,001,2023-07-24_21h07.35.163,arm3_eps,2022.2.5,Win32,59.7193192,60d1f5b80e53a48f8f7f444b,64aea9d0f615b6559c281482,64becbbc6a5e0f6a94be9879,right,1,0.3,0.3071,7,-0.030498407,0.1271,,,,,,220,0,220,0,1,,,,,
,,901229,001,2023-07-24_21h07.35.163,arm3_eps,2022.2.5,Win32,59.7193192,60d1f5b80e53a48f8f7f444b,64aea9d0f615b6559c281482,64becbbc6a5e0f6a94be9879,right,1,0.3,0.3071,7,-0.028780061,0.165,,,,,,221,0,221,0,1,,,,,
,,901229,001,2023-07-24_21h07.35.163,arm3_eps,2022.2.5,Win32,59.7193192,60d1f5b80e53a48f8f7f444b,64aea9d0f615b6559c281482,64becbbc6a5e0f6a94be9879,right,1,0.3,0.3071,7,-0.043455192,0.0795,,,,,,222,0,222,0,1,,,,,
,,901229,001,2023-07-24_21h07.35.163,arm3_eps,2022.2.5,Win32,59.7193192,60d1f5b80e53a48f8f7f444b,64aea9d0f615b6559c281482,64becbbc6a5e0f6a94be9879,right,1,0.3,0.3071,7,-0.043358555,0.2635,,,,,,223,0,223,0,1,,,,,
,,901229,001,2023-07-24_21h07.35.163,arm3_eps,2022.2.5,Win32,59.7193192,60d1f5b80e53a48f8f7f444b,64aea9d0f615b6559c281482,64becbbc6a5e0f6a94be9879,right,1,0.3,0.3071,7,-0.03090676,0.06,,,,,,224,0,224,0,1,,,,,
,,901229,001,2023-07-24_21h07.35.163,arm3_eps,2022.2.5,Win32,59.7193192,60d1f5b80e53a48f8f7f444b,64aea9d0f615b6559c281482,64becbbc6a5e0f6a94be9879,right,1,0.3,0.3071,7,-0.004839575,0.1733,,,,,,225,0,225,0,1,,,,,
,,901229,001,2023-07-24_21h07.35.163,arm3_eps,2022.2.5,Win32,59.7193192,60d1f5b80e53a48f8f7f444b,64aea9d0f615b6559c281482,64becbbc6a5e0f6a94be9879,up,1,0.3,0.3071,7,0,0.7817,,,,,,226,0,226,0,1,,,,,
,,901229,001,2023-07-24_21h07.35.163,arm3_eps,2022.2.5,Win32,59.7193192,60d1f5b80e53a48f8f7f444b,64aea9d0f615b6559c281482,64becbbc6a5e0f6a94be9879,right,1,0.3,0.3071,7,0.02661908,0.6759,,,,,,227,0,227,0,1,,,,,
,,901229,001,2023-07-24_21h07.35.163,arm3_eps,2022.2.5,Win32,59.7193192,60d1f5b80e53a48f8f7f444b,64aea9d0f615b6559c281482,64becbbc6a5e0f6a94be9879,right,1,0.3,0.3071,7,0.037292813,0.1923,,,,,,228,0,228,0,1,,,,,
,,901229,001,2023-07-24_21h07.35.163,arm3_eps,2022.2.5,Win32,59.7193192,60d1f5b80e53a48f8f7f444b,64aea9d0f615b6559c281482,64becbbc6a5e0f6a94be9879,right,1,0.3,0.3071,7,0.04389327,0.1597,,,,,,229,0,229,0,1,,,,,
,,901229,001,2023-07-24_21h07.35.163,arm3_eps,2022.2.5,Win32,59.7193192,60d1f5b80e53a48f8f7f444b,64aea9d0f615b6559c281482,64becbbc6a5e0f6a94be9879,right,1,0.3,0.3071,7,0.033258996,0.1063,,,,,,230,0,230,0,1,,,,,
,,901229,001,2023-07-24_21h07.35.163,arm3_eps,2022.2.5,Win32,59.7193192,60d1f5b80e53a48f8f7f444b,64aea9d0f615b6559c281482,64becbbc6a5e0f6a94be9879,right,1,0.3,0.3071,7,0.032140148,0.1746,,,,,,231,0,231,0,1,,,,,
,,901229,001,2023-07-24_21h07.35.163,arm3_eps,2022.2.5,Win32,59.7193192,60d1f5b80e53a48f8f7f444b,64aea9d0f615b6559c281482,64becbbc6a5e0f6a94be9879,right,1,0.3,0.3071,7,0.006222152,0.3266,,,,,,232,0,232,0,1,,,,,
,,901229,001,2023-07-24_21h07.35.163,arm3_eps,2022.2.5,Win32,59.7193192,60d1f5b80e53a48f8f7f444b,64aea9d0f615b6559c281482,64becbbc6a5e0f6a94be9879,up,-1,0.3,0.3071,7,0,0.611,,,,,,233,0,233,0,1,,,,,
,,901229,001,2023-07-24_21h07.35.163,arm3_eps,2022.2.5,Win32,59.7193192,60d1f5b80e53a48f8f7f444b,64aea9d0f615b6559c281482,64becbbc6a5e0f6a94be9879,right,-1,0.3,0.3071,7,0.010694495,0.6023,,,,,,234,0,234,0,1,,,,,
,,901229,001,2023-07-24_21h07.35.163,arm3_eps,2022.2.5,Win32,59.7193192,60d1f5b80e53a48f8f7f444b,64aea9d0f615b6559c281482,64becbbc6a5e0f6a94be9879,right,-1,0.3,0.3071,7,-0.018769538,0.2265,,,,,,235,0,235,0,1,,,,,
,,901229,001,2023-07-24_21h07.35.163,arm3_eps,2022.2.5,Win32,59.7193192,60d1f5b80e53a48f8f7f444b,64aea9d0f615b6559c281482,64becbbc6a5e0f6a94be9879,right,-1,0.3,0.3071,7,-0.04927614,0.1262,,,,,,236,0,236,0,1,,,,,
,,901229,001,2023-07-24_21h07.35.163,arm3_eps,2022.2.5,Win32,59.7193192,60d1f5b80e53a48f8f7f444b,64aea9d0f615b6559c281482,64becbbc6a5e0f6a94be9879,right,-1,0.3,0.3071,7,-0.068626623,0.1609,,,,,,237,0,237,0,1,,,,,
,,901229,001,2023-07-24_21h07.35.163,arm3_eps,2022.2.5,Win32,59.7193192,60d1f5b80e53a48f8f7f444b,64aea9d0f615b6559c281482,64becbbc6a5e0f6a94be9879,right,-1,0.3,0.3071,7,-0.080824357,0.1099,,,,,,238,0,238,0,1,,,,,
,,901229,001,2023-07-24_21h07.35.163,arm3_eps,2022.2.5,Win32,59.7193192,60d1f5b80e53a48f8f7f444b,64aea9d0f615b6559c281482,64becbbc6a5e0f6a94be9879,down,1,0.3,0.3071,7,0,0.1964,,,,,,239,0,239,0,1,,,,,
,,901229,001,2023-07-24_21h07.35.163,arm3_eps,2022.2.5,Win32,59.7193192,60d1f5b80e53a48f8f7f444b,64aea9d0f615b6559c281482,64becbbc6a5e0f6a94be9879,right,1,0.3,0.3071,7,0.008625916,0.5533,,,,,,240,0,240,0,1,,,,,
,,901229,001,2023-07-24_21h07.35.163,arm3_eps,2022.2.5,Win32,59.7193192,60d1f5b80e53a48f8f7f444b,64aea9d0f615b6559c281482,64becbbc6a5e0f6a94be9879,right,1,0.3,0.3071,7,0.036172694,0.1596,,,,,,241,0,241,0,1,,,,,
,,901229,001,2023-07-24_21h07.35.163,arm3_eps,2022.2.5,Win32,59.7193192,60d1f5b80e53a48f8f7f444b,64aea9d0f615b6559c281482,64becbbc6a5e0f6a94be9879,right,1,0.3,0.3071,7,0.00060675,0.1755,,,,,,242,0,242,0,1,,,,,
,,901229,001,2023-07-24_21h07.35.163,arm3_eps,2022.2.5,Win32,59.7193192,60d1f5b80e53a48f8f7f444b,64aea9d0f615b6559c281482,64becbbc6a5e0f6a94be9879,right,1,0.3,0.3071,7,0.011723009,0.1435,,,,,,243,0,243,0,1,,,,,
,,901229,001,2023-07-24_21h07.35.163,arm3_eps,2022.2.5,Win32,59.7193192,60d1f5b80e53a48f8f7f444b,64aea9d0f615b6559c281482,64becbbc6a5e0f6a94be9879,right,1,0.3,0.3071,7,0.001534649,0.177,,,,,,244,0,244,0,1,,,,,
,,901229,001,2023-07-24_21h07.35.163,arm3_eps,2022.2.5,Win32,59.7193192,60d1f5b80e53a48f8f7f444b,64aea9d0f615b6559c281482,64becbbc6a5e0f6a94be9879,right,1,0.3,0.3071,7,0.023604098,0.2592,,,,,,245,0,245,0,1,,,,,
,,901229,001,2023-07-24_21h07.35.163,arm3_eps,2022.2.5,Win32,59.7193192,60d1f5b80e53a48f8f7f444b,64aea9d0f615b6559c281482,64becbbc6a5e0f6a94be9879,right,1,0.3,0.3071,7,0.00852416,0.193,,,,,,246,0,246,0,1,,,,,
,,901229,001,2023-07-24_21h07.35.163,arm3_eps,2022.2.5,Win32,59.7193192,60d1f5b80e53a48f8f7f444b,64aea9d0f615b6559c281482,64becbbc6a5e0f6a94be9879,right,1,0.3,0.3071,7,0.001330552,0.1767,,,,,,247,0,247,0,1,,,,,
,,901229,001,2023-07-24_21h07.35.163,arm3_eps,2022.2.5,Win32,59.7193192,60d1f5b80e53a48f8f7f444b,64aea9d0f615b6559c281482,64becbbc6a5e0f6a94be9879,right,1,0.3,0.3071,7,0.021078902,0.2103,,,,,,248,0,248,0,1,,,,,
,,901229,001,2023-07-24_21h07.35.163,arm3_eps,2022.2.5,Win32,59.7193192,60d1f5b80e53a48f8f7f444b,64aea9d0f615b6559c281482,64becbbc6a5e0f6a94be9879,right,1,0.3,0.3071,7,0.035227926,0.2432,,,,,,249,0,249,0,1,,,,,
,,901229,001,2023-07-24_21h07.35.163,arm3_eps,2022.2.5,Win32,59.7193192,60d1f5b80e53a48f8f7f444b,64aea9d0f615b6559c281482,64becbbc6a5e0f6a94be9879,up,1,0.3,0.3071,7,0,0.4938,,,,,,250,0,250,0,1,,,,,
,,901229,001,2023-07-24_21h07.35.163,arm3_eps,2022.2.5,Win32,59.7193192,60d1f5b80e53a48f8f7f444b,64aea9d0f615b6559c281482,64becbbc6a5e0f6a94be9879,right,1,0.3,0.3071,7,-0.005130599,0.703,,,,,,251,0,251,0,1,,,,,
,,901229,001,2023-07-24_21h07.35.163,arm3_eps,2022.2.5,Win32,59.7193192,60d1f5b80e53a48f8f7f444b,64aea9d0f615b6559c281482,64becbbc6a5e0f6a94be9879,right,1,0.3,0.3071,7,-0.016127496,0.1452,,,,,,252,0,252,0,1,,,,,
,,901229,001,2023-07-24_21h07.35.163,arm3_eps,2022.2.5,Win32,59.7193192,60d1f5b80e53a48f8f7f444b,64aea9d0f615b6559c281482,64becbbc6a5e0f6a94be9879,right,1,0.3,0.3071,7,-0.007793958,0.1559,,,,,,253,0,253,0,1,,,,,
,,901229,001,2023-07-24_21h07.35.163,arm3_eps,2022.2.5,Win32,59.7193192,60d1f5b80e53a48f8f7f444b,64aea9d0f615b6559c281482,64becbbc6a5e0f6a94be9879,right,1,0.3,0.3071,7,0.011529223,0.1599,,,,,,254,0,254,0,1,,,,,
,,901229,001,2023-07-24_21h07.35.163,arm3_eps,2022.2.5,Win32,59.7193192,60d1f5b80e53a48f8f7f444b,64aea9d0f615b6559c281482,64becbbc6a5e0f6a94be9879,right,1,0.3,0.3071,7,0.012557924,0.1432,,,,,,255,0,255,0,1,,,,,
,,901229,001,2023-07-24_21h07.35.163,arm3_eps,2022.2.5,Win32,59.7193192,60d1f5b80e53a48f8f7f444b,64aea9d0f615b6559c281482,64becbbc6a5e0f6a94be9879,right,1,0.3,0.3071,7,-0.005784802,0.144,,,,,,256,0,256,0,1,,,,,
,,901229,001,2023-07-24_21h07.35.163,arm3_eps,2022.2.5,Win32,59.7193192,60d1f5b80e53a48f8f7f444b,64aea9d0f615b6559c281482,64becbbc6a5e0f6a94be9879,right,1,0.3,0.3071,7,-0.006974676,0.1426,,,,,,257,0,257,0,1,,,,,
,,901229,001,2023-07-24_21h07.35.163,arm3_eps,2022.2.5,Win32,59.7193192,60d1f5b80e53a48f8f7f444b,64aea9d0f615b6559c281482,64becbbc6a5e0f6a94be9879,right,1,0.3,0.3071,7,0.006217559,0.1775,,,,,,258,0,258,0,1,,,,,
,,901229,001,2023-07-24_21h07.35.163,arm3_eps,2022.2.5,Win32,59.7193192,60d1f5b80e53a48f8f7f444b,64aea9d0f615b6559c281482,64becbbc6a5e0f6a94be9879,right,1,0.3,0.3071,7,0.000108135,0.1766,,,,,,259,0,259,0,1,,,,,
,,901229,001,2023-07-24_21h07.35.163,arm3_eps,2022.2.5,Win32,59.7193192,60d1f5b80e53a48f8f7f444b,64aea9d0f615b6559c281482,64becbbc6a5e0f6a94be9879,right,1,0.3,0.3071,7,0.009076364,0.1593,,,,,,260,0,260,0,1,,,,,
,,901229,001,2023-07-24_21h07.35.163,arm3_eps,2022.2.5,Win32,59.7193192,60d1f5b80e53a48f8f7f444b,64aea9d0f615b6559c281482,64becbbc6a5e0f6a94be9879,right,1,0.3,0.3071,7,0.007235369,0.1601,,,,,,261,0,261,0,1,,,,,
,,901229,001,2023-07-24_21h07.35.163,arm3_eps,2022.2.5,Win32,59.7193192,60d1f5b80e53a48f8f7f444b,64aea9d0f615b6559c281482,64becbbc6a5e0f6a94be9879,right,1,0.3,0.3071,7,0.015130529,1.0932,,,,,,262,0,262,0,1,,,,,
,,901229,001,2023-07-24_21h07.35.163,arm3_eps,2022.2.5,Win32,59.7193192,60d1f5b80e53a48f8f7f444b,64aea9d0f615b6559c281482,64becbbc6a5e0f6a94be9879,up,1,0.3,0.3071,7,0,1.1802,,,,,,263,0,263,0,1,,,,,
,,901229,001,2023-07-24_21h07.35.163,arm3_eps,2022.2.5,Win32,59.7193192,60d1f5b80e53a48f8f7f444b,64aea9d0f615b6559c281482,64becbbc6a5e0f6a94be9879,right,1,0.3,0.3071,7,0.02079499,0.7379,,,,,,264,0,264,0,1,,,,,
,,901229,001,2023-07-24_21h07.35.163,arm3_eps,2022.2.5,Win32,59.7193192,60d1f5b80e53a48f8f7f444b,64aea9d0f615b6559c281482,64becbbc6a5e0f6a94be9879,right,1,0.3,0.3071,7,0.04699319,0.193,,,,,,265,0,265,0,1,,,,,
,,901229,001,2023-07-24_21h07.35.163,arm3_eps,2022.2.5,Win32,59.7193192,60d1f5b80e53a48f8f7f444b,64aea9d0f615b6559c281482,64becbbc6a5e0f6a94be9879,right,1,0.3,0.3071,7,0.050274,0.1764,,,,,,266,0,266,0,1,,,,,
,,901229,001,2023-07-24_21h07.35.163,arm3_eps,2022.2.5,Win32,59.7193192,60d1f5b80e53a48f8f7f444b,64aea9d0f615b6559c281482,64becbbc6a5e0f6a94be9879,right,1,0.3,0.3071,7,0.067814671,0.1426,,,,,,267,0,267,0,1,,,,,
,,901229,001,2023-07-24_21h07.35.163,arm3_eps,2022.2.5,Win32,59.7193192,60d1f5b80e53a48f8f7f444b,64aea9d0f615b6559c281482,64becbbc6a5e0f6a94be9879,right,1,0.3,0.3071,7,0.083819587,0.2127,,,,,,268,0,268,0,1,,,,,
,,901229,001,2023-07-24_21h07.35.163,arm3_eps,2022.2.5,Win32,59.7193192,60d1f5b80e53a48f8f7f444b,64aea9d0f615b6559c281482,64becbbc6a5e0f6a94be9879,right,1,0.3,0.3071,7,0.089607977,0.1266,,,,,,269,0,269,0,1,,,,,
,,901229,001,2023-07-24_21h07.35.163,arm3_eps,2022.2.5,Win32,59.7193192,60d1f5b80e53a48f8f7f444b,64aea9d0f615b6559c281482,64becbbc6a5e0f6a94be9879,right,1,0.3,0.3071,7,0.119145078,0.3435,,,,,,270,0,270,0,1,,,,,
,,901229,001,2023-07-24_21h07.35.163,arm3_eps,2022.2.5,Win32,59.7193192,60d1f5b80e53a48f8f7f444b,64aea9d0f615b6559c281482,64becbbc6a5e0f6a94be9879,up,1,0.3,0.3071,7,0,0.326,,,,,,271,0,271,0,1,,,,,
,,901229,001,2023-07-24_21h07.35.163,arm3_eps,2022.2.5,Win32,59.7193192,60d1f5b80e53a48f8f7f444b,64aea9d0f615b6559c281482,64becbbc6a5e0f6a94be9879,right,1,0.3,0.3071,7,0.02595611,0.7563,,,,,,272,0,272,0,1,,,,,
,,901229,001,2023-07-24_21h07.35.163,arm3_eps,2022.2.5,Win32,59.7193192,60d1f5b80e53a48f8f7f444b,64aea9d0f615b6559c281482,64becbbc6a5e0f6a94be9879,right,1,0.3,0.3071,7,0.048242597,0.1306,,,,,,273,0,273,0,1,,,,,
,,901229,001,2023-07-24_21h07.35.163,arm3_eps,2022.2.5,Win32,59.7193192,60d1f5b80e53a48f8f7f444b,64aea9d0f615b6559c281482,64becbbc6a5e0f6a94be9879,right,1,0.3,0.3071,7,0.039471325,0.3838,,,,,,274,0,274,0,1,,,,,
,,901229,001,2023-07-24_21h07.35.163,arm3_eps,2022.2.5,Win32,59.7193192,60d1f5b80e53a48f8f7f444b,64aea9d0f615b6559c281482,64becbbc6a5e0f6a94be9879,right,1,0.3,0.3071,7,0.048120889,0.1566,,,,,,275,0,275,0,1,,,,,
,,901229,001,2023-07-24_21h07.35.163,arm3_eps,2022.2.5,Win32,59.7193192,60d1f5b80e53a48f8f7f444b,64aea9d0f615b6559c281482,64becbbc6a5e0f6a94be9879,up,-1,0.3,0.3071,7,0,0.4084,,,,,,276,0,276,0,1,,,,,
,,901229,001,2023-07-24_21h07.35.163,arm3_eps,2022.2.5,Win32,59.7193192,60d1f5b80e53a48f8f7f444b,64aea9d0f615b6559c281482,64becbbc6a5e0f6a94be9879,right,-1,0.3,0.3071,7,-0.017162148,0.8709,,,,,,277,0,277,0,1,,,,,
,,901229,001,2023-07-24_21h07.35.163,arm3_eps,2022.2.5,Win32,59.7193192,60d1f5b80e53a48f8f7f444b,64aea9d0f615b6559c281482,64becbbc6a5e0f6a94be9879,right,-1,0.3,0.3071,7,-0.029397243,0.444,,,,,,278,0,278,0,1,,,,,
,,901229,001,2023-07-24_21h07.35.163,arm3_eps,2022.2.5,Win32,59.7193192,60d1f5b80e53a48f8f7f444b,64aea9d0f615b6559c281482,64becbbc6a5e0f6a94be9879,right,-1,0.3,0.3071,7,-0.064698557,0.4595,,,,,,279,0,279,0,1,,,,,
,,901229,001,2023-07-24_21h07.35.163,arm3_eps,2022.2.5,Win32,59.7193192,60d1f5b80e53a48f8f7f444b,64aea9d0f615b6559c281482,64becbbc6a5e0f6a94be9879,down,-1,0.3,0.3071,8,0,0.3088,,,,,,280,0,280,0,1,,,,,
,,901229,001,2023-07-24_21h07.35.163,arm3_eps,2022.2.5,Win32,59.7193192,60d1f5b80e53a48f8f7f444b,64aea9d0f615b6559c281482,64becbbc6a5e0f6a94be9879,right,-1,0.3,0.3071,8,-0.021616677,0.9344,,,,,,281,0,281,0,1,,,,,
,,901229,001,2023-07-24_21h07.35.163,arm3_eps,2022.2.5,Win32,59.7193192,60d1f5b80e53a48f8f7f444b,64aea9d0f615b6559c281482,64becbbc6a5e0f6a94be9879,right,-1,0.3,0.3071,8,-0.029675479,0.3445,,,,,,282,0,282,0,1,,,,,
,,901229,001,2023-07-24_21h07.35.163,arm3_eps,2022.2.5,Win32,59.7193192,60d1f5b80e53a48f8f7f444b,64aea9d0f615b6559c281482,64becbbc6a5e0f6a94be9879,right,-1,0.3,0.3071,8,-0.009516604,0.3766,,,,,,283,0,283,0,1,,,,,
,,901229,001,2023-07-24_21h07.35.163,arm3_eps,2022.2.5,Win32,59.7193192,60d1f5b80e53a48f8f7f444b,64aea9d0f615b6559c281482,64becbbc6a5e0f6a94be9879,up,-1,0.3,0.3071,8,0,0.5507,,,,,,284,0,284,0,1,,,,,
,,901229,001,2023-07-24_21h07.35.163,arm3_eps,2022.2.5,Win32,59.7193192,60d1f5b80e53a48f8f7f444b,64aea9d0f615b6559c281482,64becbbc6a5e0f6a94be9879,right,-1,0.3,0.3071,8,-0.027826642,0.7873,,,,,,285,0,285,0,1,,,,,
,,901229,001,2023-07-24_21h07.35.163,arm3_eps,2022.2.5,Win32,59.7193192,60d1f5b80e53a48f8f7f444b,64aea9d0f615b6559c281482,64becbbc6a5e0f6a94be9879,right,-1,0.3,0.3071,8,-0.045067822,0.3152,,,,,,286,0,286,0,1,,,,,
,,901229,001,2023-07-24_21h07.35.163,arm3_eps,2022.2.5,Win32,59.7193192,60d1f5b80e53a48f8f7f444b,64aea9d0f615b6559c281482,64becbbc6a5e0f6a94be9879,right,-1,0.3,0.3071,8,-0.081867761,0.2586,,,,,,287,0,287,0,1,,,,,
,,901229,001,2023-07-24_21h07.35.163,arm3_eps,2022.2.5,Win32,59.7193192,60d1f5b80e53a48f8f7f444b,64aea9d0f615b6559c281482,64becbbc6a5e0f6a94be9879,down,-1,0.3,0.3071,8,0,0.3264,,,,,,288,0,288,0,1,,,,,
,,901229,001,2023-07-24_21h07.35.163,arm3_eps,2022.2.5,Win32,59.7193192,60d1f5b80e53a48f8f7f444b,64aea9d0f615b6559c281482,64becbbc6a5e0f6a94be9879,right,-1,0.3,0.3071,8,0.005905946,0.7894,,,,,,289,0,289,0,1,,,,,
,,901229,001,2023-07-24_21h07.35.163,arm3_eps,2022.2.5,Win32,59.7193192,60d1f5b80e53a48f8f7f444b,64aea9d0f615b6559c281482,64becbbc6a5e0f6a94be9879,right,-1,0.3,0.3071,8,-0.004685916,0.1942,,,,,,290,0,290,0,1,,,,,
,,901229,001,2023-07-24_21h07.35.163,arm3_eps,2022.2.5,Win32,59.7193192,60d1f5b80e53a48f8f7f444b,64aea9d0f615b6559c281482,64becbbc6a5e0f6a94be9879,right,-1,0.3,0.3071,8,-0.050187099,0.2268,,,,,,291,0,291,0,1,,,,,
,,901229,001,2023-07-24_21h07.35.163,arm3_eps,2022.2.5,Win32,59.7193192,60d1f5b80e53a48f8f7f444b,64aea9d0f615b6559c281482,64becbbc6a5e0f6a94be9879,up,-1,0.3,0.3071,8,0,0.4097,,,,,,292,0,292,0,1,,,,,
,,901229,001,2023-07-24_21h07.35.163,arm3_eps,2022.2.5,Win32,59.7193192,60d1f5b80e53a48f8f7f444b,64aea9d0f615b6559c281482,64becbbc6a5e0f6a94be9879,right,-1,0.3,0.3071,8,-0.000944433,0.7821,,,,,,293,0,293,0,1,,,,,
,,901229,001,2023-07-24_21h07.35.163,arm3_eps,2022.2.5,Win32,59.7193192,60d1f5b80e53a48f8f7f444b,64aea9d0f615b6559c281482,64becbbc6a5e0f6a94be9879,right,-1,0.3,0.3071,8,-0.023258014,0.2441,,,,,,294,0,294,0,1,,,,,
,,901229,001,2023-07-24_21h07.35.163,arm3_eps,2022.2.5,Win32,59.7193192,60d1f5b80e53a48f8f7f444b,64aea9d0f615b6559c281482,64becbbc6a5e0f6a94be9879,right,-1,0.3,0.3071,8,-0.02970065,0.3259,,,,,,295,0,295,0,1,,,,,
,,901229,001,2023-07-24_21h07.35.163,arm3_eps,2022.2.5,Win32,59.7193192,60d1f5b80e53a48f8f7f444b,64aea9d0f615b6559c281482,64becbbc6a5e0f6a94be9879,down,-1,0.3,0.3071,9,0,0.676,,,,,,296,0,296,0,1,,,,,
,,901229,001,2023-07-24_21h07.35.163,arm3_eps,2022.2.5,Win32,59.7193192,60d1f5b80e53a48f8f7f444b,64aea9d0f615b6559c281482,64becbbc6a5e0f6a94be9879,right,-1,0.3,0.3071,9,-0.003870104,0.8113,,,,,,297,0,297,0,1,,,,,
,,901229,001,2023-07-24_21h07.35.163,arm3_eps,2022.2.5,Win32,59.7193192,60d1f5b80e53a48f8f7f444b,64aea9d0f615b6559c281482,64becbbc6a5e0f6a94be9879,right,-1,0.3,0.3071,9,-0.014197134,0.1663,,,,,,298,0,298,0,1,,,,,
,,901229,001,2023-07-24_21h07.35.163,arm3_eps,2022.2.5,Win32,59.7193192,60d1f5b80e53a48f8f7f444b,64aea9d0f615b6559c281482,64becbbc6a5e0f6a94be9879,right,-1,0.3,0.3071,9,-0.010905186,0.1754,,,,,,299,0,299,0,1,,,,,
,,901229,001,2023-07-24_21h07.35.163,arm3_eps,2022.2.5,Win32,59.7193192,60d1f5b80e53a48f8f7f444b,64aea9d0f615b6559c281482,64becbbc6a5e0f6a94be9879,right,-1,0.3,0.3071,9,-0.018913202,0.3115,,,,,,300,0,300,0,1,,,,,
,,901229,001,2023-07-24_21h07.35.163,arm3_eps,2022.2.5,Win32,59.7193192,60d1f5b80e53a48f8f7f444b,64aea9d0f615b6559c281482,64becbbc6a5e0f6a94be9879,right,-1,0.3,0.3071,9,-0.012728801,0.2094,,,,,,301,0,301,0,1,,,,,
,,901229,001,2023-07-24_21h07.35.163,arm3_eps,2022.2.5,Win32,59.7193192,60d1f5b80e53a48f8f7f444b,64aea9d0f615b6559c281482,64becbbc6a5e0f6a94be9879,right,-1,0.3,0.3071,9,-0.028250695,0.3776,,,,,,302,0,302,0,1,,,,,
,,901229,001,2023-07-24_21h07.35.163,arm3_eps,2022.2.5,Win32,59.7193192,60d1f5b80e53a48f8f7f444b,64aea9d0f615b6559c281482,64becbbc6a5e0f6a94be9879,down,-1,0.3,0.3071,10,0,0.4772,,,,,,303,0,303,0,1,,,,,
,,901229,001,2023-07-24_21h07.35.163,arm3_eps,2022.2.5,Win32,59.7193192,60d1f5b80e53a48f8f7f444b,64aea9d0f615b6559c281482,64becbbc6a5e0f6a94be9879,right,-1,0.3,0.3071,10,0.001918995,0.7513,,,,,,304,0,304,0,1,,,,,
,,901229,001,2023-07-24_21h07.35.163,arm3_eps,2022.2.5,Win32,59.7193192,60d1f5b80e53a48f8f7f444b,64aea9d0f615b6559c281482,64becbbc6a5e0f6a94be9879,right,-1,0.3,0.3071,10,-0.032946652,0.1934,,,,,,305,0,305,0,1,,,,,
,,901229,001,2023-07-24_21h07.35.163,arm3_eps,2022.2.5,Win32,59.7193192,60d1f5b80e53a48f8f7f444b,64aea9d0f615b6559c281482,64becbbc6a5e0f6a94be9879,right,-1,0.3,0.3071,10,-0.019163034,0.2266,,,,,,306,0,306,0,1,,,,,
,,901229,001,2023-07-24_21h07.35.163,arm3_eps,2022.2.5,Win32,59.7193192,60d1f5b80e53a48f8f7f444b,64aea9d0f615b6559c281482,64becbbc6a5e0f6a94be9879,right,-1,0.3,0.3071,10,-0.038593652,0.3252,,,,,,307,0,307,0,1,,,,,
,,901229,001,2023-07-24_21h07.35.163,arm3_eps,2022.2.5,Win32,59.7193192,60d1f5b80e53a48f8f7f444b,64aea9d0f615b6559c281482,64becbbc6a5e0f6a94be9879,right,-1,0.3,0.3071,10,-0.01053574,0.2266,,,,,,308,0,308,0,1,,,,,
,,901229,001,2023-07-24_21h07.35.163,arm3_eps,2022.2.5,Win32,59.7193192,60d1f5b80e53a48f8f7f444b,64aea9d0f615b6559c281482,64becbbc6a5e0f6a94be9879,down,-1,0.3,0.3071,11,0,0.677,,,,,,309,0,309,0,1,,,,,
,,901229,001,2023-07-24_21h07.35.163,arm3_eps,2022.2.5,Win32,59.7193192,60d1f5b80e53a48f8f7f444b,64aea9d0f615b6559c281482,64becbbc6a5e0f6a94be9879,right,-1,0.3,0.3071,11,-0.001174755,0.7044,,,,,,310,0,310,0,1,,,,,
,,901229,001,2023-07-24_21h07.35.163,arm3_eps,2022.2.5,Win32,59.7193192,60d1f5b80e53a48f8f7f444b,64aea9d0f615b6559c281482,64becbbc6a5e0f6a94be9879,right,-1,0.3,0.3071,11,-0.026854989,0.1759,,,,,,311,0,311,0,1,,,,,
,,901229,001,2023-07-24_21h07.35.163,arm3_eps,2022.2.5,Win32,59.7193192,60d1f5b80e53a48f8f7f444b,64aea9d0f615b6559c281482,64becbbc6a5e0f6a94be9879,right,-1,0.3,0.3071,11,-0.036459038,0.2271,,,,,,312,0,312,0,1,,,,,
,,901229,001,2023-07-24_21h07.35.163,arm3_eps,2022.2.5,Win32,59.7193192,60d1f5b80e53a48f8f7f444b,64aea9d0f615b6559c281482,64becbbc6a5e0f6a94be9879,right,-1,0.3,0.3071,11,-0.043199843,0.2763,,,,,,313,0,313,0,1,,,,,
,,901229,001,2023-07-24_21h07.35.163,arm3_eps,2022.2.5,Win32,59.7193192,60d1f5b80e53a48f8f7f444b,64aea9d0f615b6559c281482,64becbbc6a5e0f6a94be9879,down,-1,0.3,0.3071,11,0,0.661,,,,,,314,0,314,0,1,,,,,
,,901229,001,2023-07-24_21h07.35.163,arm3_eps,2022.2.5,Win32,59.7193192,60d1f5b80e53a48f8f7f444b,64aea9d0f615b6559c281482,64becbbc6a5e0f6a94be9879,right,-1,0.3,0.3071,11,-0.027385975,0.6973,,,,,,315,0,315,0,1,,,,,
,,901229,001,2023-07-24_21h07.35.163,arm3_eps,2022.2.5,Win32,59.7193192,60d1f5b80e53a48f8f7f444b,64aea9d0f615b6559c281482,64becbbc6a5e0f6a94be9879,right,-1,0.3,0.3071,11,-0.042297181,0.2623,,,,,,316,0,316,0,1,,,,,
,,901229,001,2023-07-24_21h07.35.163,arm3_eps,2022.2.5,Win32,59.7193192,60d1f5b80e53a48f8f7f444b,64aea9d0f615b6559c281482,64becbbc6a5e0f6a94be9879,right,-1,0.3,0.3071,11,-0.052132474,0.2268,,,,,,317,0,317,0,1,,,,,
,,901229,001,2023-07-24_21h07.35.163,arm3_eps,2022.2.5,Win32,59.7193192,60d1f5b80e53a48f8f7f444b,64aea9d0f615b6559c281482,64becbbc6a5e0f6a94be9879,right,-1,0.3,0.3071,11,-0.077206002,0.2274,,,,,,318,0,318,0,1,,,,,
,,901229,001,2023-07-24_21h07.35.163,arm3_eps,2022.2.5,Win32,59.7193192,60d1f5b80e53a48f8f7f444b,64aea9d0f615b6559c281482,64becbbc6a5e0f6a94be9879,down,1,0.3,0.3071,11,0,0.3615,,,,,,319,0,319,0,1,,,,,
,,901229,001,2023-07-24_21h07.35.163,arm3_eps,2022.2.5,Win32,59.7193192,60d1f5b80e53a48f8f7f444b,64aea9d0f615b6559c281482,64becbbc6a5e0f6a94be9879,right,1,0.3,0.3071,11,0.030648907,0.7445,,,,,,320,0,320,0,1,,,,,
,,901229,001,2023-07-24_21h07.35.163,arm3_eps,2022.2.5,Win32,59.7193192,60d1f5b80e53a48f8f7f444b,64aea9d0f615b6559c281482,64becbbc6a5e0f6a94be9879,right,1,0.3,0.3071,11,0.063506416,0.2363,,,,,,321,0,321,0,1,,,,,
,,901229,001,2023-07-24_21h07.35.163,arm3_eps,2022.2.5,Win32,59.7193192,60d1f5b80e53a48f8f7f444b,64aea9d0f615b6559c281482,64becbbc6a5e0f6a94be9879,up,1,0.3,0.3071,11,0,0.5097,,,,,,322,0,322,0,1,,,,,
,,901229,001,2023-07-24_21h07.35.163,arm3_eps,2022.2.5,Win32,59.7193192,60d1f5b80e53a48f8f7f444b,64aea9d0f615b6559c281482,64becbbc6a5e0f6a94be9879,right,1,0.3,0.3071,11,0.022591558,0.6512,,,,,,323,0,323,0,1,,,,,
,,901229,001,2023-07-24_21h07.35.163,arm3_eps,2022.2.5,Win32,59.7193192,60d1f5b80e53a48f8f7f444b,64aea9d0f615b6559c281482,64becbbc6a5e0f6a94be9879,right,1,0.3,0.3071,11,0.032213836,0.3443,,,,,,324,0,324,0,1,,,,,
,,901229,001,2023-07-24_21h07.35.163,arm3_eps,2022.2.5,Win32,59.7193192,60d1f5b80e53a48f8f7f444b,64aea9d0f615b6559c281482,64becbbc6a5e0f6a94be9879,right,1,0.3,0.3071,11,0.021798319,0.3256,,,,,,325,0,325,0,1,,,,,
,,901229,001,2023-07-24_21h07.35.163,arm3_eps,2022.2.5,Win32,59.7193192,60d1f5b80e53a48f8f7f444b,64aea9d0f615b6559c281482,64becbbc6a5e0f6a94be9879,right,1,0.3,0.3071,11,0.016642291,0.2783,,,,,,326,0,326,0,1,,,,,
,,901229,001,2023-07-24_21h07.35.163,arm3_eps,2022.2.5,Win32,59.7193192,60d1f5b80e53a48f8f7f444b,64aea9d0f615b6559c281482,64becbbc6a5e0f6a94be9879,up,1,0.3,0.3071,11,0,0.4114,,,,,,327,0,327,0,1,,,,,
,,901229,001,2023-07-24_21h07.35.163,arm3_eps,2022.2.5,Win32,59.7193192,60d1f5b80e53a48f8f7f444b,64aea9d0f615b6559c281482,64becbbc6a5e0f6a94be9879,right,1,0.3,0.3071,11,0.022193389,0.5883,,,,,,328,0,328,0,1,,,,,
,,901229,001,2023-07-24_21h07.35.163,arm3_eps,2022.2.5,Win32,59.7193192,60d1f5b80e53a48f8f7f444b,64aea9d0f615b6559c281482,64becbbc6a5e0f6a94be9879,right,1,0.3,0.3071,11,0.032661391,0.2102,,,,,,329,0,329,0,1,,,,,
,,901229,001,2023-07-24_21h07.35.163,arm3_eps,2022.2.5,Win32,59.7193192,60d1f5b80e53a48f8f7f444b,64aea9d0f615b6559c281482,64becbbc6a5e0f6a94be9879,right,1,0.3,0.3071,11,0.035010369,0.2928,,,,,,330,0,330,0,1,,,,,
,,901229,001,2023-07-24_21h07.35.163,arm3_eps,2022.2.5,Win32,59.7193192,60d1f5b80e53a48f8f7f444b,64aea9d0f615b6559c281482,64becbbc6a5e0f6a94be9879,right,1,0.3,0.3071,11,0.016873837,0.2276,,,,,,331,0,331,0,1,,,,,
,,901229,001,2023-07-24_21h07.35.163,arm3_eps,2022.2.5,Win32,59.7193192,60d1f5b80e53a48f8f7f444b,64aea9d0f615b6559c281482,64becbbc6a5e0f6a94be9879,right,1,0.3,0.3071,11,0.026267591,0.2769,,,,,,332,0,332,0,1,,,,,
,,901229,001,2023-07-24_21h07.35.163,arm3_eps,2022.2.5,Win32,59.7193192,60d1f5b80e53a48f8f7f444b,64aea9d0f615b6559c281482,64becbbc6a5e0f6a94be9879,down,1,0.3,0.3071,11,0,0.6662,,,,,,333,0,333,0,1,,,,,
,,901229,001,2023-07-24_21h07.35.163,arm3_eps,2022.2.5,Win32,59.7193192,60d1f5b80e53a48f8f7f444b,64aea9d0f615b6559c281482,64becbbc6a5e0f6a94be9879,right,1,0.3,0.3071,11,0.018129597,0.7203,,,,,,334,0,334,0,1,,,,,
,,901229,001,2023-07-24_21h07.35.163,arm3_eps,2022.2.5,Win32,59.7193192,60d1f5b80e53a48f8f7f444b,64aea9d0f615b6559c281482,64becbbc6a5e0f6a94be9879,right,1,0.3,0.3071,11,0.024122959,0.2444,,,,,,335,0,335,0,1,,,,,
,,901229,001,2023-07-24_21h07.35.163,arm3_eps,2022.2.5,Win32,59.7193192,60d1f5b80e53a48f8f7f444b,64aea9d0f615b6559c281482,64becbbc6a5e0f6a94be9879,right,1,0.3,0.3071,11,0.048890644,0.1932,,,,,,336,0,336,0,1,,,,,
,,901229,001,2023-07-24_21h07.35.163,arm3_eps,2022.2.5,Win32,59.7193192,60d1f5b80e53a48f8f7f444b,64aea9d0f615b6559c281482,64becbbc6a5e0f6a94be9879,right,1,0.3,0.3071,11,0.075854335,0.3096,,,,,,337,0,337,0,1,,,,,
,,901229,001,2023-07-24_21h07.35.163,arm3_eps,2022.2.5,Win32,59.7193192,60d1f5b80e53a48f8f7f444b,64aea9d0f615b6559c281482,64becbbc6a5e0f6a94be9879,up,1,0.3,0.3071,11,0,0.4277,,,,,,338,0,338,0,1,,,,,
,,901229,001,2023-07-24_21h07.35.163,arm3_eps,2022.2.5,Win32,59.7193192,60d1f5b80e53a48f8f7f444b,64aea9d0f615b6559c281482,64becbbc6a5e0f6a94be9879,right,1,0.3,0.3071,11,-0.018607163,0.7026,,,,,,339,0,339,0,1,,,,,
,,901229,001,2023-07-24_21h07.35.163,arm3_eps,2022.2.5,Win32,59.7193192,60d1f5b80e53a48f8f7f444b,64aea9d0f615b6559c281482,64becbbc6a5e0f6a94be9879,right,1,0.3,0.3071,11,0.013688132,0.2991,,,,,,340,0,340,0,1,,,,,
,,901229,001,2023-07-24_21h07.35.163,arm3_eps,2022.2.5,Win32,59.7193192,60d1f5b80e53a48f8f7f444b,64aea9d0f615b6559c281482,64becbbc6a5e0f6a94be9879,right,1,0.3,0.3071,11,-0.002387054,0.4101,,,,,,341,0,341,0,1,,,,,
,,901229,001,2023-07-24_21h07.35.163,arm3_eps,2022.2.5,Win32,59.7193192,60d1f5b80e53a48f8f7f444b,64aea9d0f615b6559c281482,64becbbc6a5e0f6a94be9879,right,1,0.3,0.3071,11,0.030959605,0.0937,,,,,,342,0,342,0,1,,,,,
,,901229,001,2023-07-24_21h07.35.163,arm3_eps,2022.2.5,Win32,59.7193192,60d1f5b80e53a48f8f7f444b,64aea9d0f615b6559c281482,64becbbc6a5e0f6a94be9879,right,1,0.3,0.3071,11,0.04530015,0.2599,,,,,,343,0,343,0,1,,,,,
,,901229,001,2023-07-24_21h07.35.163,arm3_eps,2022.2.5,Win32,59.7193192,60d1f5b80e53a48f8f7f444b,64aea9d0f615b6559c281482,64becbbc6a5e0f6a94be9879,up,1,0.3,0.3071,12,0,0.5798,,,,,,344,0,344,0,1,,,,,
,,901229,001,2023-07-24_21h07.35.163,arm3_eps,2022.2.5,Win32,59.7193192,60d1f5b80e53a48f8f7f444b,64aea9d0f615b6559c281482,64becbbc6a5e0f6a94be9879,right,1,0.3,0.3071,12,0.006762495,0.6806,,,,,,345,0,345,0,1,,,,,
,,901229,001,2023-07-24_21h07.35.163,arm3_eps,2022.2.5,Win32,59.7193192,60d1f5b80e53a48f8f7f444b,64aea9d0f615b6559c281482,64becbbc6a5e0f6a94be9879,right,1,0.3,0.3071,12,0.015084081,0.2594,,,,,,346,0,346,0,1,,,,,
,,901229,001,2023-07-24_21h07.35.163,arm3_eps,2022.2.5,Win32,59.7193192,60d1f5b80e53a48f8f7f444b,64aea9d0f615b6559c281482,64becbbc6a5e0f6a94be9879,right,1,0.3,0.3071,12,0.021393058,0.1767,,,,,,347,0,347,0,1,,,,,
,,901229,001,2023-07-24_21h07.35.163,arm3_eps,2022.2.5,Win32,59.7193192,60d1f5b80e53a48f8f7f444b,64aea9d0f615b6559c281482,64becbbc6a5e0f6a94be9879,right,1,0.3,0.3071,12,0.03375528,0.1772,,,,,,348,0,348,0,1,,,,,
,,901229,001,2023-07-24_21h07.35.163,arm3_eps,2022.2.5,Win32,59.7193192,60d1f5b80e53a48f8f7f444b,64aea9d0f615b6559c281482,64becbbc6a5e0f6a94be9879,right,1,0.3,0.3071,12,0.068322607,0.1591,,,,,,349,0,349,0,1,,,,,
,,901229,001,2023-07-24_21h07.35.163,arm3_eps,2022.2.5,Win32,59.7193192,60d1f5b80e53a48f8f7f444b,64aea9d0f615b6559c281482,64becbbc6a5e0f6a94be9879,up,-1,0.3,0.3071,13,0,0.4768,,,,,,350,0,350,0,1,,,,,
,,901229,001,2023-07-24_21h07.35.163,arm3_eps,2022.2.5,Win32,59.7193192,60d1f5b80e53a48f8f7f444b,64aea9d0f615b6559c281482,64becbbc6a5e0f6a94be9879,right,-1,0.3,0.3071,13,0.028033414,0.6709,,,,,,351,0,351,0,1,,,,,
,,901229,001,2023-07-24_21h07.35.163,arm3_eps,2022.2.5,Win32,59.7193192,60d1f5b80e53a48f8f7f444b,64aea9d0f615b6559c281482,64becbbc6a5e0f6a94be9879,right,-1,0.3,0.3071,13,0.032330152,0.2351,,,,,,352,0,352,0,1,,,,,
,,901229,001,2023-07-24_21h07.35.163,arm3_eps,2022.2.5,Win32,59.7193192,60d1f5b80e53a48f8f7f444b,64aea9d0f615b6559c281482,64becbbc6a5e0f6a94be9879,right,-1,0.3,0.3071,13,0.026399555,0.2687,,,,,,353,0,353,0,1,,,,,
,,901229,001,2023-07-24_21h07.35.163,arm3_eps,2022.2.5,Win32,59.7193192,60d1f5b80e53a48f8f7f444b,64aea9d0f615b6559c281482,64becbbc6a5e0f6a94be9879,right,-1,0.3,0.3071,13,0.041388939,0.2409,,,,,,354,0,354,0,1,,,,,
,,901229,001,2023-07-24_21h07.35.163,arm3_eps,2022.2.5,Win32,59.7193192,60d1f5b80e53a48f8f7f444b,64aea9d0f615b6559c281482,64becbbc6a5e0f6a94be9879,right,-1,0.3,0.3071,13,0.029833131,0.5767,,,,,,355,0,355,0,1,,,,,
,,901229,001,2023-07-24_21h07.35.163,arm3_eps,2022.2.5,Win32,59.7193192,60d1f5b80e53a48f8f7f444b,64aea9d0f615b6559c281482,64becbbc6a5e0f6a94be9879,up,1,0.3,0.3071,13,0,1.0428,,,,,,356,0,356,0,1,,,,,
,,901229,001,2023-07-24_21h07.35.163,arm3_eps,2022.2.5,Win32,59.7193192,60d1f5b80e53a48f8f7f444b,64aea9d0f615b6559c281482,64becbbc6a5e0f6a94be9879,right,1,0.3,0.3071,13,0.015600214,0.7134,,,,,,357,0,357,0,1,,,,,
,,901229,001,2023-07-24_21h07.35.163,arm3_eps,2022.2.5,Win32,59.7193192,60d1f5b80e53a48f8f7f444b,64aea9d0f615b6559c281482,64becbbc6a5e0f6a94be9879,right,1,0.3,0.3071,13,0.02895059,0.2262,,,,,,358,0,358,0,1,,,,,
,,901229,001,2023-07-24_21h07.35.163,arm3_eps,2022.2.5,Win32,59.7193192,60d1f5b80e53a48f8f7f444b,64aea9d0f615b6559c281482,64becbbc6a5e0f6a94be9879,right,1,0.3,0.3071,13,0.058095359,0.4352,,,,,,359,0,359,0,1,,,,,
,,901229,001,2023-07-24_21h07.35.163,arm3_eps,2022.2.5,Win32,59.7193192,60d1f5b80e53a48f8f7f444b,64aea9d0f615b6559c281482,64becbbc6a5e0f6a94be9879,up,1,0.3,0.3071,14,0,0.3083,,,,,,360,0,360,0,1,,,,,
,,901229,001,2023-07-24_21h07.35.163,arm3_eps,2022.2.5,Win32,59.7193192,60d1f5b80e53a48f8f7f444b,64aea9d0f615b6559c281482,64becbbc6a5e0f6a94be9879,right,1,0.3,0.3071,14,0.004581097,0.7627,,,,,,361,0,361,0,1,,,,,
,,901229,001,2023-07-24_21h07.35.163,arm3_eps,2022.2.5,Win32,59.7193192,60d1f5b80e53a48f8f7f444b,64aea9d0f615b6559c281482,64becbbc6a5e0f6a94be9879,right,1,0.3,0.3071,14,0.018603087,0.2097,,,,,,362,0,362,0,1,,,,,
,,901229,001,2023-07-24_21h07.35.163,arm3_eps,2022.2.5,Win32,59.7193192,60d1f5b80e53a48f8f7f444b,64aea9d0f615b6559c281482,64becbbc6a5e0f6a94be9879,right,1,0.3,0.3071,14,0.008153591,0.5136,,,,,,363,0,363,0,1,,,,,
,,901229,001,2023-07-24_21h07.35.163,arm3_eps,2022.2.5,Win32,59.7193192,60d1f5b80e53a48f8f7f444b,64aea9d0f615b6559c281482,64becbbc6a5e0f6a94be9879,down,-1,0.3,0.3071,14,0,0.5935,,,,,,364,0,364,0,1,,,,,
,,901229,001,2023-07-24_21h07.35.163,arm3_eps,2022.2.5,Win32,59.7193192,60d1f5b80e53a48f8f7f444b,64aea9d0f615b6559c281482,64becbbc6a5e0f6a94be9879,right,-1,0.3,0.3071,14,-0.037023703,0.7296,,,,,,365,0,365,0,1,,,,,
,,901229,001,2023-07-24_21h07.35.163,arm3_eps,2022.2.5,Win32,59.7193192,60d1f5b80e53a48f8f7f444b,64aea9d0f615b6559c281482,64becbbc6a5e0f6a94be9879,right,-1,0.3,0.3071,14,-0.040049969,0.1987,,,,,,366,0,366,0,1,,,,,
,,901229,001,2023-07-24_21h07.35.163,arm3_eps,2022.2.5,Win32,59.7193192,60d1f5b80e53a48f8f7f444b,64aea9d0f615b6559c281482,64becbbc6a5e0f6a94be9879,down,1,0.3,0.3071,14,0,0.5509,,,,,,367,0,367,0,1,,,,,
,,901229,001,2023-07-24_21h07.35.163,arm3_eps,2022.2.5,Win32,59.7193192,60d1f5b80e53a48f8f7f444b,64aea9d0f615b6559c281482,64becbbc6a5e0f6a94be9879,right,1,0.3,0.3071,14,0.015235121,0.5841,,,,,,368,0,368,0,1,,,,,
,,901229,001,2023-07-24_21h07.35.163,arm3_eps,2022.2.5,Win32,59.7193192,60d1f5b80e53a48f8f7f444b,64aea9d0f615b6559c281482,64becbbc6a5e0f6a94be9879,right,1,0.3,0.3071,14,0.02673037,0.2762,,,,,,369,0,369,0,1,,,,,
,,901229,001,2023-07-24_21h07.35.163,arm3_eps,2022.2.5,Win32,59.7193192,60d1f5b80e53a48f8f7f444b,64aea9d0f615b6559c281482,64becbbc6a5e0f6a94be9879,,,,,,,,,,,,,,,,,,0,0,0,0,1
space,2.6785,901229,001,2023-07-24_21h07.35.163,arm3_eps,2022.2.5,Win32,59.7193192,60d1f5b80e53a48f8f7f444b,64aea9d0f615b6559c281482,64becbbc6a5e0f6a94be9879,right,1,0.3,0.4357,14,-0.003615655,1.7579,,,,,,0,0,0,0,1,,,,,
,,901229,001,2023-07-24_21h07.35.163,arm3_eps,2022.2.5,Win32,59.7193192,60d1f5b80e53a48f8f7f444b,64aea9d0f615b6559c281482,64becbbc6a5e0f6a94be9879,right,1,0.3,0.4357,14,0.004430114,0.1466,,,,,,1,0,1,0,1,,,,,
,,901229,001,2023-07-24_21h07.35.163,arm3_eps,2022.2.5,Win32,59.7193192,60d1f5b80e53a48f8f7f444b,64aea9d0f615b6559c281482,64becbbc6a5e0f6a94be9879,right,1,0.3,0.4357,14,0.063027728,0.2427,,,,,,2,0,2,0,1,,,,,
,,901229,001,2023-07-24_21h07.35.163,arm3_eps,2022.2.5,Win32,59.7193192,60d1f5b80e53a48f8f7f444b,64aea9d0f615b6559c281482,64becbbc6a5e0f6a94be9879,right,1,0.3,0.4357,14,0.074013982,0.2762,,,,,,3,0,3,0,1,,,,,
,,901229,001,2023-07-24_21h07.35.163,arm3_eps,2022.2.5,Win32,59.7193192,60d1f5b80e53a48f8f7f444b,64aea9d0f615b6559c281482,64becbbc6a5e0f6a94be9879,up,-1,0.3,0.4357,14,0,0.7104,,,,,,4,0,4,0,1,,,,,
,,901229,001,2023-07-24_21h07.35.163,arm3_eps,2022.2.5,Win32,59.7193192,60d1f5b80e53a48f8f7f444b,64aea9d0f615b6559c281482,64becbbc6a5e0f6a94be9879,right,-1,0.3,0.4357,14,-0.025102617,0.7708,,,,,,5,0,5,0,1,,,,,
,,901229,001,2023-07-24_21h07.35.163,arm3_eps,2022.2.5,Win32,59.7193192,60d1f5b80e53a48f8f7f444b,64aea9d0f615b6559c281482,64becbbc6a5e0f6a94be9879,right,-1,0.3,0.4357,14,-0.01790037,0.18,,,,,,6,0,6,0,1,,,,,
,,901229,001,2023-07-24_21h07.35.163,arm3_eps,2022.2.5,Win32,59.7193192,60d1f5b80e53a48f8f7f444b,64aea9d0f615b6559c281482,64becbbc6a5e0f6a94be9879,right,-1,0.3,0.4357,14,-0.043397878,0.277,,,,,,7,0,7,0,1,,,,,
,,901229,001,2023-07-24_21h07.35.163,arm3_eps,2022.2.5,Win32,59.7193192,60d1f5b80e53a48f8f7f444b,64aea9d0f615b6559c281482,64becbbc6a5e0f6a94be9879,down,1,0.3,0.4357,14,0,0.4262,,,,,,8,0,8,0,1,,,,,
,,901229,001,2023-07-24_21h07.35.163,arm3_eps,2022.2.5,Win32,59.7193192,60d1f5b80e53a48f8f7f444b,64aea9d0f615b6559c281482,64becbbc6a5e0f6a94be9879,right,1,0.3,0.4357,14,0.029416191,0.6701,,,,,,9,0,9,0,1,,,,,
,,901229,001,2023-07-24_21h07.35.163,arm3_eps,2022.2.5,Win32,59.7193192,60d1f5b80e53a48f8f7f444b,64aea9d0f615b6559c281482,64becbbc6a5e0f6a94be9879,right,1,0.3,0.4357,14,0.028760477,0.447,,,,,,10,0,10,0,1,,,,,
,,901229,001,2023-07-24_21h07.35.163,arm3_eps,2022.2.5,Win32,59.7193192,60d1f5b80e53a48f8f7f444b,64aea9d0f615b6559c281482,64becbbc6a5e0f6a94be9879,up,-1,0.3,0.4357,15,0,0.544,,,,,,11,0,11,0,1,,,,,
,,901229,001,2023-07-24_21h07.35.163,arm3_eps,2022.2.5,Win32,59.7193192,60d1f5b80e53a48f8f7f444b,64aea9d0f615b6559c281482,64becbbc6a5e0f6a94be9879,right,-1,0.3,0.4357,15,-0.023780762,0.9338,,,,,,12,0,12,0,1,,,,,
,,901229,001,2023-07-24_21h07.35.163,arm3_eps,2022.2.5,Win32,59.7193192,60d1f5b80e53a48f8f7f444b,64aea9d0f615b6559c281482,64becbbc6a5e0f6a94be9879,right,-1,0.3,0.4357,15,-0.059820311,0.2868,,,,,,13,0,13,0,1,,,,,
,,901229,001,2023-07-24_21h07.35.163,arm3_eps,2022.2.5,Win32,59.7193192,60d1f5b80e53a48f8f7f444b,64aea9d0f615b6559c281482,64becbbc6a5e0f6a94be9879,down,-1,0.3,0.4357,16,0,0.8941,,,,,,14,0,14,0,1,,,,,
,,901229,001,2023-07-24_21h07.35.163,arm3_eps,2022.2.5,Win32,59.7193192,60d1f5b80e53a48f8f7f444b,64aea9d0f615b6559c281482,64becbbc6a5e0f6a94be9879,down,1,0.3,0.4357,16,0,1.3208,,,,,,15,0,15,0,1,,,,,
,,901229,001,2023-07-24_21h07.35.163,arm3_eps,2022.2.5,Win32,59.7193192,60d1f5b80e53a48f8f7f444b,64aea9d0f615b6559c281482,64becbbc6a5e0f6a94be9879,right,1,0.3,0.4357,16,0.01397069,0.8275,,,,,,16,0,16,0,1,,,,,
,,901229,001,2023-07-24_21h07.35.163,arm3_eps,2022.2.5,Win32,59.7193192,60d1f5b80e53a48f8f7f444b,64aea9d0f615b6559c281482,64becbbc6a5e0f6a94be9879,right,1,0.3,0.4357,16,0.015816243,0.4102,,,,,,17,0,17,0,1,,,,,
,,901229,001,2023-07-24_21h07.35.163,arm3_eps,2022.2.5,Win32,59.7193192,60d1f5b80e53a48f8f7f444b,64aea9d0f615b6559c281482,64becbbc6a5e0f6a94be9879,up,1,0.3,0.4357,16,0,0.7443,,,,,,18,0,18,0,1,,,,,
,,901229,001,2023-07-24_21h07.35.163,arm3_eps,2022.2.5,Win32,59.7193192,60d1f5b80e53a48f8f7f444b,64aea9d0f615b6559c281482,64becbbc6a5e0f6a94be9879,right,1,0.3,0.4357,16,0.006049364,0.8663,,,,,,19,0,19,0,1,,,,,
,,901229,001,2023-07-24_21h07.35.163,arm3_eps,2022.2.5,Win32,59.7193192,60d1f5b80e53a48f8f7f444b,64aea9d0f615b6559c281482,64becbbc6a5e0f6a94be9879,right,1,0.3,0.4357,16,0.00189003,0.2961,,,,,,20,0,20,0,1,,,,,
,,901229,001,2023-07-24_21h07.35.163,arm3_eps,2022.2.5,Win32,59.7193192,60d1f5b80e53a48f8f7f444b,64aea9d0f615b6559c281482,64becbbc6a5e0f6a94be9879,up,-1,0.3,0.4357,17,0,0.9818,,,,,,21,0,21,0,1,,,,,
,,901229,001,2023-07-24_21h07.35.163,arm3_eps,2022.2.5,Win32,59.7193192,60d1f5b80e53a48f8f7f444b,64aea9d0f615b6559c281482,64becbbc6a5e0f6a94be9879,right,-1,0.3,0.4357,17,0.00471702,0.7451,,,,,,22,0,22,0,1,,,,,
,,901229,001,2023-07-24_21h07.35.163,arm3_eps,2022.2.5,Win32,59.7193192,60d1f5b80e53a48f8f7f444b,64aea9d0f615b6559c281482,64becbbc6a5e0f6a94be9879,right,-1,0.3,0.4357,17,0.00975089,0.2253,,,,,,23,0,23,0,1,,,,,
,,901229,001,2023-07-24_21h07.35.163,arm3_eps,2022.2.5,Win32,59.7193192,60d1f5b80e53a48f8f7f444b,64aea9d0f615b6559c281482,64becbbc6a5e0f6a94be9879,right,-1,0.3,0.4357,17,0.009139246,0.5263,,,,,,24,0,24,0,1,,,,,
,,901229,001,2023-07-24_21h07.35.163,arm3_eps,2022.2.5,Win32,59.7193192,60d1f5b80e53a48f8f7f444b,64aea9d0f615b6559c281482,64becbbc6a5e0f6a94be9879,up,-1,0.3,0.4357,17,0,0.7137,,,,,,25,0,25,0,1,,,,,
,,901229,001,2023-07-24_21h07.35.163,arm3_eps,2022.2.5,Win32,59.7193192,60d1f5b80e53a48f8f7f444b,64aea9d0f615b6559c281482,64becbbc6a5e0f6a94be9879,right,-1,0.3,0.4357,17,-0.001487261,0.7783,,,,,,26,0,26,0,1,,,,,
,,901229,001,2023-07-24_21h07.35.163,arm3_eps,2022.2.5,Win32,59.7193192,60d1f5b80e53a48f8f7f444b,64aea9d0f615b6559c281482,64becbbc6a5e0f6a94be9879,right,-1,0.3,0.4357,17,-0.009344945,0.2779,,,,,,27,0,27,0,1,,,,,
,,901229,001,2023-07-24_21h07.35.163,arm3_eps,2022.2.5,Win32,59.7193192,60d1f5b80e53a48f8f7f444b,64aea9d0f615b6559c281482,64becbbc6a5e0f6a94be9879,down,1,0.3,0.4357,17,0,0.3992,,,,,,28,0,28,0,1,,,,,
,,901229,001,2023-07-24_21h07.35.163,arm3_eps,2022.2.5,Win32,59.7193192,60d1f5b80e53a48f8f7f444b,64aea9d0f615b6559c281482,64becbbc6a5e0f6a94be9879,right,1,0.3,0.4357,17,-0.005175594,2.0163,,,,,,29,0,29,0,1,,,,,
,,901229,001,2023-07-24_21h07.35.163,arm3_eps,2022.2.5,Win32,59.7193192,60d1f5b80e53a48f8f7f444b,64aea9d0f615b6559c281482,64becbbc6a5e0f6a94be9879,right,1,0.3,0.4357,17,0.003130549,0.2614,,,,,,30,0,30,0,1,,,,,
,,901229,001,2023-07-24_21h07.35.163,arm3_eps,2022.2.5,Win32,59.7193192,60d1f5b80e53a48f8f7f444b,64aea9d0f615b6559c281482,64becbbc6a5e0f6a94be9879,down,-1,0.3,0.4357,17,0,0.6615,,,,,,31,0,31,0,1,,,,,
,,901229,001,2023-07-24_21h07.35.163,arm3_eps,2022.2.5,Win32,59.7193192,60d1f5b80e53a48f8f7f444b,64aea9d0f615b6559c281482,64becbbc6a5e0f6a94be9879,right,-1,0.3,0.4357,17,-0.013298981,0.813,,,,,,32,0,32,0,1,,,,,
,,901229,001,2023-07-24_21h07.35.163,arm3_eps,2022.2.5,Win32,59.7193192,60d1f5b80e53a48f8f7f444b,64aea9d0f615b6559c281482,64becbbc6a5e0f6a94be9879,right,-1,0.3,0.4357,17,0.002422913,0.1593,,,,,,33,0,33,0,1,,,,,
,,901229,001,2023-07-24_21h07.35.163,arm3_eps,2022.2.5,Win32,59.7193192,60d1f5b80e53a48f8f7f444b,64aea9d0f615b6559c281482,64becbbc6a5e0f6a94be9879,up,1,0.3,0.4357,17,0,0.81,,,,,,34,0,34,0,1,,,,,
,,901229,001,2023-07-24_21h07.35.163,arm3_eps,2022.2.5,Win32,59.7193192,60d1f5b80e53a48f8f7f444b,64aea9d0f615b6559c281482,64becbbc6a5e0f6a94be9879,right,1,0.3,0.4357,17,0.015499827,0.9405,,,,,,35,0,35,0,1,,,,,
,,901229,001,2023-07-24_21h07.35.163,arm3_eps,2022.2.5,Win32,59.7193192,60d1f5b80e53a48f8f7f444b,64aea9d0f615b6559c281482,64becbbc6a5e0f6a94be9879,right,1,0.3,0.4357,17,0.02857667,0.3469,,,,,,36,0,36,0,1,,,,,
,,901229,001,2023-07-24_21h07.35.163,arm3_eps,2022.2.5,Win32,59.7193192,60d1f5b80e53a48f8f7f444b,64aea9d0f615b6559c281482,64becbbc6a5e0f6a94be9879,up,-1,0.3,0.4357,17,0,0.4097,,,,,,37,0,37,0,1,,,,,
,,901229,001,2023-07-24_21h07.35.163,arm3_eps,2022.2.5,Win32,59.7193192,60d1f5b80e53a48f8f7f444b,64aea9d0f615b6559c281482,64becbbc6a5e0f6a94be9879,right,-1,0.3,0.4357,17,-0.016669458,0.7327,,,,,,38,0,38,0,1,,,,,
,,901229,001,2023-07-24_21h07.35.163,arm3_eps,2022.2.5,Win32,59.7193192,60d1f5b80e53a48f8f7f444b,64aea9d0f615b6559c281482,64becbbc6a5e0f6a94be9879,right,-1,0.3,0.4357,17,-0.033453622,0.2509,,,,,,39,0,39,0,1,,,,,
,,901229,001,2023-07-24_21h07.35.163,arm3_eps,2022.2.5,Win32,59.7193192,60d1f5b80e53a48f8f7f444b,64aea9d0f615b6559c281482,64becbbc6a5e0f6a94be9879,right,-1,0.3,0.4357,17,-0.012181228,0.4368,,,,,,40,0,40,0,1,,,,,
,,901229,001,2023-07-24_21h07.35.163,arm3_eps,2022.2.5,Win32,59.7193192,60d1f5b80e53a48f8f7f444b,64aea9d0f615b6559c281482,64becbbc6a5e0f6a94be9879,down,1,0.3,0.4357,17,0,0.6763,,,,,,41,0,41,0,1,,,,,
,,901229,001,2023-07-24_21h07.35.163,arm3_eps,2022.2.5,Win32,59.7193192,60d1f5b80e53a48f8f7f444b,64aea9d0f615b6559c281482,64becbbc6a5e0f6a94be9879,right,1,0.3,0.4357,17,-0.011569626,9.9836,,,,,,42,0,42,0,1,,,,,
,,901229,001,2023-07-24_21h07.35.163,arm3_eps,2022.2.5,Win32,59.7193192,60d1f5b80e53a48f8f7f444b,64aea9d0f615b6559c281482,64becbbc6a5e0f6a94be9879,right,1,0.3,0.4357,17,0.043431083,0.2431,,,,,,43,0,43,0,1,,,,,
