space_bar.keys,space_bar.rt,participant,session,date,expName,psychopyVersion,OS,frameRate,resp.keys,state,q_prob,eps_prob,score,price,resp.rt,steps.thisRepN,steps.thisTrialN,steps.thisN,steps.thisIndex,steps.ran,blocks.thisRepN,blocks.thisTrialN,blocks.thisN,blocks.thisIndex,blocks.ran
space,2.76,hahahahahah,001,2023-07-07_13h39.33.517,arm3_ET_builderv2,2022.2.5,MacIntel,71.42857143,,,,,,,,,,,,,,,,,
space,0.485,hahahahahah,001,2023-07-07_13h39.33.517,arm3_ET_builderv2,2022.2.5,MacIntel,71.42857143,,,,,,,,,,,,,,,,,
space,4.816,hahahahahah,001,2023-07-07_13h39.33.517,arm3_ET_builderv2,2022.2.5,MacIntel,71.42857143,,,,,,,,,,,,,,,,,
space,0.972,hahahahahah,001,2023-07-07_13h39.33.517,arm3_ET_builderv2,2022.2.5,MacIntel,71.42857143,,,,,,,,,,,,,,,,,
space,0.512,hahahahahah,001,2023-07-07_13h39.33.517,arm3_ET_builderv2,2022.2.5,MacIntel,71.42857143,,,,,,,,,,,,,,,,,
space,0.989,hahahahahah,001,2023-07-07_13h39.33.517,arm3_ET_builderv2,2022.2.5,MacIntel,71.42857143,,,,,,,,,,,,,,,,,
space,0.436,hahahahahah,001,2023-07-07_13h39.33.517,arm3_ET_builderv2,2022.2.5,MacIntel,71.42857143,,,,,,,,,,,,,,,,,
,,hahahahahah,001,2023-07-07_13h39.33.517,arm3_ET_builderv2,2022.2.5,MacIntel,71.42857143,right,-1,0.55,0.45,0,-0.03882913,3.871,0,0,0,0,1,,,,,
,,hahahahahah,001,2023-07-07_13h39.33.517,arm3_ET_builderv2,2022.2.5,MacIntel,71.42857143,right,-1,0.55,0.45,0,-0.009061506,0.332,1,0,1,0,1,,,,,
,,hahahahahah,001,2023-07-07_13h39.33.517,arm3_ET_builderv2,2022.2.5,MacIntel,71.42857143,right,-1,0.55,0.45,0,-0.008461454,0.208,2,0,2,0,1,,,,,
,,hahahahahah,001,2023-07-07_13h39.33.517,arm3_ET_builderv2,2022.2.5,MacIntel,71.42857143,right,-1,0.55,0.45,0,-0.03178381,0.202,3,0,3,0,1,,,,,
,,hahahahahah,001,2023-07-07_13h39.33.517,arm3_ET_builderv2,2022.2.5,MacIntel,71.42857143,right,-1,0.55,0.45,0,-0.06813372,0.18,4,0,4,0,1,,,,,
,,hahahahahah,001,2023-07-07_13h39.33.517,arm3_ET_builderv2,2022.2.5,MacIntel,71.42857143,right,-1,0.55,0.45,0,-0.080453324,0.297,5,0,5,0,1,,,,,
,,hahahahahah,001,2023-07-07_13h39.33.517,arm3_ET_builderv2,2022.2.5,MacIntel,71.42857143,right,-1,0.55,0.45,0,-0.087709444,0.281,6,0,6,0,1,,,,,
,,hahahahahah,001,2023-07-07_13h39.33.517,arm3_ET_builderv2,2022.2.5,MacIntel,71.42857143,right,-1,0.55,0.45,0,-0.102431498,0.784,7,0,7,0,1,,,,,
,,hahahahahah,001,2023-07-07_13h39.33.517,arm3_ET_builderv2,2022.2.5,MacIntel,71.42857143,right,-1,0.55,0.45,0,-0.094061669,0.383,8,0,8,0,1,,,,,
,,hahahahahah,001,2023-07-07_13h39.33.517,arm3_ET_builderv2,2022.2.5,MacIntel,71.42857143,down,-1,0.55,0.45,1,0,0.397,9,0,9,0,1,,,,,
,,hahahahahah,001,2023-07-07_13h39.33.517,arm3_ET_builderv2,2022.2.5,MacIntel,71.42857143,right,-1,0.55,0.45,1,-0.040315289,0.465,10,0,10,0,1,,,,,
,,hahahahahah,001,2023-07-07_13h39.33.517,arm3_ET_builderv2,2022.2.5,MacIntel,71.42857143,right,-1,0.55,0.45,1,-0.062136522,0.206,11,0,11,0,1,,,,,
,,hahahahahah,001,2023-07-07_13h39.33.517,arm3_ET_builderv2,2022.2.5,MacIntel,71.42857143,right,-1,0.55,0.45,1,-0.094410659,0.202,12,0,12,0,1,,,,,
,,hahahahahah,001,2023-07-07_13h39.33.517,arm3_ET_builderv2,2022.2.5,MacIntel,71.42857143,right,-1,0.55,0.45,1,-0.070849367,0.164,13,0,13,0,1,,,,,
,,hahahahahah,001,2023-07-07_13h39.33.517,arm3_ET_builderv2,2022.2.5,MacIntel,71.42857143,right,-1,0.55,0.45,1,-0.078525072,0.114,14,0,14,0,1,,,,,
,,hahahahahah,001,2023-07-07_13h39.33.517,arm3_ET_builderv2,2022.2.5,MacIntel,71.42857143,right,-1,0.55,0.45,1,-0.076514039,0.154,15,0,15,0,1,,,,,
,,hahahahahah,001,2023-07-07_13h39.33.517,arm3_ET_builderv2,2022.2.5,MacIntel,71.42857143,right,-1,0.55,0.45,1,-0.08304539,0.119,16,0,16,0,1,,,,,
,,hahahahahah,001,2023-07-07_13h39.33.517,arm3_ET_builderv2,2022.2.5,MacIntel,71.42857143,down,-1,0.55,0.45,2,0,0.431,17,0,17,0,1,,,,,
,,hahahahahah,001,2023-07-07_13h39.33.517,arm3_ET_builderv2,2022.2.5,MacIntel,71.42857143,right,-1,0.55,0.45,2,-0.033815766,0.448,18,0,18,0,1,,,,,
,,hahahahahah,001,2023-07-07_13h39.33.517,arm3_ET_builderv2,2022.2.5,MacIntel,71.42857143,right,-1,0.55,0.45,2,-0.068508343,0.147,19,0,19,0,1,,,,,
,,hahahahahah,001,2023-07-07_13h39.33.517,arm3_ET_builderv2,2022.2.5,MacIntel,71.42857143,right,-1,0.55,0.45,2,-0.087762617,0.149,20,0,20,0,1,,,,,
,,hahahahahah,001,2023-07-07_13h39.33.517,arm3_ET_builderv2,2022.2.5,MacIntel,71.42857143,right,-1,0.55,0.45,2,-0.090124725,0.155,21,0,21,0,1,,,,,
,,hahahahahah,001,2023-07-07_13h39.33.517,arm3_ET_builderv2,2022.2.5,MacIntel,71.42857143,right,-1,0.55,0.45,2,-0.083125268,0.14,22,0,22,0,1,,,,,
,,hahahahahah,001,2023-07-07_13h39.33.517,arm3_ET_builderv2,2022.2.5,MacIntel,71.42857143,right,-1,0.55,0.45,2,-0.081302391,0.166,23,0,23,0,1,,,,,
,,hahahahahah,001,2023-07-07_13h39.33.517,arm3_ET_builderv2,2022.2.5,MacIntel,71.42857143,right,-1,0.55,0.45,2,-0.072652122,0.15,24,0,24,0,1,,,,,
,,hahahahahah,001,2023-07-07_13h39.33.517,arm3_ET_builderv2,2022.2.5,MacIntel,71.42857143,right,-1,0.55,0.45,2,-0.07061272,0.113,25,0,25,0,1,,,,,
,,hahahahahah,001,2023-07-07_13h39.33.517,arm3_ET_builderv2,2022.2.5,MacIntel,71.42857143,down,1,0.55,0.45,2,0,0.216,26,0,26,0,1,,,,,
,,hahahahahah,001,2023-07-07_13h39.33.517,arm3_ET_builderv2,2022.2.5,MacIntel,71.42857143,right,1,0.55,0.45,2,-0.000986917,0.268,27,0,27,0,1,,,,,
,,hahahahahah,001,2023-07-07_13h39.33.517,arm3_ET_builderv2,2022.2.5,MacIntel,71.42857143,right,1,0.55,0.45,2,-0.007996444,0.347,28,0,28,0,1,,,,,
,,hahahahahah,001,2023-07-07_13h39.33.517,arm3_ET_builderv2,2022.2.5,MacIntel,71.42857143,right,1,0.55,0.45,2,0.018232604,0.188,29,0,29,0,1,,,,,
,,hahahahahah,001,2023-07-07_13h39.33.517,arm3_ET_builderv2,2022.2.5,MacIntel,71.42857143,right,1,0.55,0.45,2,0.034509762,0.164,30,0,30,0,1,,,,,
,,hahahahahah,001,2023-07-07_13h39.33.517,arm3_ET_builderv2,2022.2.5,MacIntel,71.42857143,right,1,0.55,0.45,2,0.026269206,0.131,31,0,31,0,1,,,,,
,,hahahahahah,001,2023-07-07_13h39.33.517,arm3_ET_builderv2,2022.2.5,MacIntel,71.42857143,right,1,0.55,0.45,2,0.012194716,0.123,32,0,32,0,1,,,,,
,,hahahahahah,001,2023-07-07_13h39.33.517,arm3_ET_builderv2,2022.2.5,MacIntel,71.42857143,right,1,0.55,0.45,2,0.017482566,0.165,33,0,33,0,1,,,,,
,,hahahahahah,001,2023-07-07_13h39.33.517,arm3_ET_builderv2,2022.2.5,MacIntel,71.42857143,right,1,0.55,0.45,2,0.050115522,0.166,34,0,34,0,1,,,,,
,,hahahahahah,001,2023-07-07_13h39.33.517,arm3_ET_builderv2,2022.2.5,MacIntel,71.42857143,right,1,0.55,0.45,2,0.061306896,0.165,35,0,35,0,1,,,,,
,,hahahahahah,001,2023-07-07_13h39.33.517,arm3_ET_builderv2,2022.2.5,MacIntel,71.42857143,right,1,0.55,0.45,2,0.099442463,0.139,36,0,36,0,1,,,,,
,,hahahahahah,001,2023-07-07_13h39.33.517,arm3_ET_builderv2,2022.2.5,MacIntel,71.42857143,up,1,0.55,0.45,3,0,0.453,37,0,37,0,1,,,,,
,,hahahahahah,001,2023-07-07_13h39.33.517,arm3_ET_builderv2,2022.2.5,MacIntel,71.42857143,right,1,0.55,0.45,3,0.017920138,0.23,38,0,38,0,1,,,,,
,,hahahahahah,001,2023-07-07_13h39.33.517,arm3_ET_builderv2,2022.2.5,MacIntel,71.42857143,right,1,0.55,0.45,3,0.030289802,0.173,39,0,39,0,1,,,,,
,,hahahahahah,001,2023-07-07_13h39.33.517,arm3_ET_builderv2,2022.2.5,MacIntel,71.42857143,right,1,0.55,0.45,3,0.027999468,0.172,40,0,40,0,1,,,,,
,,hahahahahah,001,2023-07-07_13h39.33.517,arm3_ET_builderv2,2022.2.5,MacIntel,71.42857143,right,1,0.55,0.45,3,0.035179367,0.156,41,0,41,0,1,,,,,
,,hahahahahah,001,2023-07-07_13h39.33.517,arm3_ET_builderv2,2022.2.5,MacIntel,71.42857143,right,1,0.55,0.45,3,0.073360935,0.164,42,0,42,0,1,,,,,
,,hahahahahah,001,2023-07-07_13h39.33.517,arm3_ET_builderv2,2022.2.5,MacIntel,71.42857143,right,1,0.55,0.45,3,0.055882725,0.148,43,0,43,0,1,,,,,
,,hahahahahah,001,2023-07-07_13h39.33.517,arm3_ET_builderv2,2022.2.5,MacIntel,71.42857143,right,1,0.55,0.45,3,0.059473413,0.7,44,0,44,0,1,,,,,
,,hahahahahah,001,2023-07-07_13h39.33.517,arm3_ET_builderv2,2022.2.5,MacIntel,71.42857143,up,-1,0.55,0.45,3,0,0.299,45,0,45,0,1,,,,,
,,hahahahahah,001,2023-07-07_13h39.33.517,arm3_ET_builderv2,2022.2.5,MacIntel,71.42857143,right,-1,0.55,0.45,3,-0.013177793,0.313,46,0,46,0,1,,,,,
,,hahahahahah,001,2023-07-07_13h39.33.517,arm3_ET_builderv2,2022.2.5,MacIntel,71.42857143,right,-1,0.55,0.45,3,-0.054057383,0.184,47,0,47,0,1,,,,,
,,hahahahahah,001,2023-07-07_13h39.33.517,arm3_ET_builderv2,2022.2.5,MacIntel,71.42857143,right,-1,0.55,0.45,3,-0.102204676,0.181,48,0,48,0,1,,,,,
,,hahahahahah,001,2023-07-07_13h39.33.517,arm3_ET_builderv2,2022.2.5,MacIntel,71.42857143,right,-1,0.55,0.45,3,-0.082541729,0.164,49,0,49,0,1,,,,,
,,hahahahahah,001,2023-07-07_13h39.33.517,arm3_ET_builderv2,2022.2.5,MacIntel,71.42857143,right,-1,0.55,0.45,3,-0.075908952,0.137,50,0,50,0,1,,,,,
,,hahahahahah,001,2023-07-07_13h39.33.517,arm3_ET_builderv2,2022.2.5,MacIntel,71.42857143,right,-1,0.55,0.45,3,-0.085189553,0.166,51,0,51,0,1,,,,,
,,hahahahahah,001,2023-07-07_13h39.33.517,arm3_ET_builderv2,2022.2.5,MacIntel,71.42857143,right,-1,0.55,0.45,3,-0.077410679,0.164,52,0,52,0,1,,,,,
,,hahahahahah,001,2023-07-07_13h39.33.517,arm3_ET_builderv2,2022.2.5,MacIntel,71.42857143,right,-1,0.55,0.45,3,-0.099144637,0.681,53,0,53,0,1,,,,,
,,hahahahahah,001,2023-07-07_13h39.33.517,arm3_ET_builderv2,2022.2.5,MacIntel,71.42857143,down,-1,0.55,0.45,4,0,0.233,54,0,54,0,1,,,,,
,,hahahahahah,001,2023-07-07_13h39.33.517,arm3_ET_builderv2,2022.2.5,MacIntel,71.42857143,right,-1,0.55,0.45,4,-0.019257124,0.48,55,0,55,0,1,,,,,
,,hahahahahah,001,2023-07-07_13h39.33.517,arm3_ET_builderv2,2022.2.5,MacIntel,71.42857143,right,-1,0.55,0.45,4,-0.054366204,0.182,56,0,56,0,1,,,,,
,,hahahahahah,001,2023-07-07_13h39.33.517,arm3_ET_builderv2,2022.2.5,MacIntel,71.42857143,right,-1,0.55,0.45,4,-0.047672829,0.181,57,0,57,0,1,,,,,
,,hahahahahah,001,2023-07-07_13h39.33.517,arm3_ET_builderv2,2022.2.5,MacIntel,71.42857143,right,-1,0.55,0.45,4,-0.079989688,0.155,58,0,58,0,1,,,,,
,,hahahahahah,001,2023-07-07_13h39.33.517,arm3_ET_builderv2,2022.2.5,MacIntel,71.42857143,right,-1,0.55,0.45,4,-0.099866077,0.171,59,0,59,0,1,,,,,
,,hahahahahah,001,2023-07-07_13h39.33.517,arm3_ET_builderv2,2022.2.5,MacIntel,71.42857143,down,-1,0.55,0.45,5,0,0.366,60,0,60,0,1,,,,,
,,hahahahahah,001,2023-07-07_13h39.33.517,arm3_ET_builderv2,2022.2.5,MacIntel,71.42857143,right,-1,0.55,0.45,5,-0.014402161,0.233,61,0,61,0,1,,,,,
,,hahahahahah,001,2023-07-07_13h39.33.517,arm3_ET_builderv2,2022.2.5,MacIntel,71.42857143,right,-1,0.55,0.45,5,-0.052535533,0.181,62,0,62,0,1,,,,,
,,hahahahahah,001,2023-07-07_13h39.33.517,arm3_ET_builderv2,2022.2.5,MacIntel,71.42857143,right,-1,0.55,0.45,5,-0.056086005,0.157,63,0,63,0,1,,,,,
,,hahahahahah,001,2023-07-07_13h39.33.517,arm3_ET_builderv2,2022.2.5,MacIntel,71.42857143,right,-1,0.55,0.45,5,-0.044699724,0.171,64,0,64,0,1,,,,,
,,hahahahahah,001,2023-07-07_13h39.33.517,arm3_ET_builderv2,2022.2.5,MacIntel,71.42857143,right,-1,0.55,0.45,5,-0.062973061,0.185,65,0,65,0,1,,,,,
,,hahahahahah,001,2023-07-07_13h39.33.517,arm3_ET_builderv2,2022.2.5,MacIntel,71.42857143,right,-1,0.55,0.45,5,-0.072762673,0.147,66,0,66,0,1,,,,,
,,hahahahahah,001,2023-07-07_13h39.33.517,arm3_ET_builderv2,2022.2.5,MacIntel,71.42857143,down,1,0.55,0.45,6,0,0.347,67,0,67,0,1,,,,,
,,hahahahahah,001,2023-07-07_13h39.33.517,arm3_ET_builderv2,2022.2.5,MacIntel,71.42857143,right,1,0.55,0.45,6,0.006207827,0.218,68,0,68,0,1,,,,,
,,hahahahahah,001,2023-07-07_13h39.33.517,arm3_ET_builderv2,2022.2.5,MacIntel,71.42857143,right,1,0.55,0.45,6,0.006241581,0.171,69,0,69,0,1,,,,,
,,hahahahahah,001,2023-07-07_13h39.33.517,arm3_ET_builderv2,2022.2.5,MacIntel,71.42857143,right,1,0.55,0.45,6,0.024571754,0.167,70,0,70,0,1,,,,,
,,hahahahahah,001,2023-07-07_13h39.33.517,arm3_ET_builderv2,2022.2.5,MacIntel,71.42857143,right,1,0.55,0.45,6,0.059848847,0.165,71,0,71,0,1,,,,,
,,hahahahahah,001,2023-07-07_13h39.33.517,arm3_ET_builderv2,2022.2.5,MacIntel,71.42857143,right,1,0.55,0.45,6,0.070441717,0.166,72,0,72,0,1,,,,,
,,hahahahahah,001,2023-07-07_13h39.33.517,arm3_ET_builderv2,2022.2.5,MacIntel,71.42857143,right,1,0.55,0.45,6,0.112198482,0.171,73,0,73,0,1,,,,,
,,hahahahahah,001,2023-07-07_13h39.33.517,arm3_ET_builderv2,2022.2.5,MacIntel,71.42857143,right,1,0.55,0.45,6,0.131240071,0.166,74,0,74,0,1,,,,,
,,hahahahahah,001,2023-07-07_13h39.33.517,arm3_ET_builderv2,2022.2.5,MacIntel,71.42857143,up,1,0.55,0.45,7,0,0.316,75,0,75,0,1,,,,,
,,hahahahahah,001,2023-07-07_13h39.33.517,arm3_ET_builderv2,2022.2.5,MacIntel,71.42857143,right,1,0.55,0.45,7,-0.022488558,0.208,76,0,76,0,1,,,,,
,,hahahahahah,001,2023-07-07_13h39.33.517,arm3_ET_builderv2,2022.2.5,MacIntel,71.42857143,right,1,0.55,0.45,7,-0.013620086,0.182,77,0,77,0,1,,,,,
,,hahahahahah,001,2023-07-07_13h39.33.517,arm3_ET_builderv2,2022.2.5,MacIntel,71.42857143,right,1,0.55,0.45,7,-0.019577804,0.182,78,0,78,0,1,,,,,
,,hahahahahah,001,2023-07-07_13h39.33.517,arm3_ET_builderv2,2022.2.5,MacIntel,71.42857143,right,1,0.55,0.45,7,-0.028375296,0.148,79,0,79,0,1,,,,,
,,hahahahahah,001,2023-07-07_13h39.33.517,arm3_ET_builderv2,2022.2.5,MacIntel,71.42857143,right,1,0.55,0.45,7,-0.056159664,0.181,80,0,80,0,1,,,,,
,,hahahahahah,001,2023-07-07_13h39.33.517,arm3_ET_builderv2,2022.2.5,MacIntel,71.42857143,right,1,0.55,0.45,7,-0.040366917,0.174,81,0,81,0,1,,,,,
,,hahahahahah,001,2023-07-07_13h39.33.517,arm3_ET_builderv2,2022.2.5,MacIntel,71.42857143,right,1,0.55,0.45,7,-0.036999049,0.139,82,0,82,0,1,,,,,
,,hahahahahah,001,2023-07-07_13h39.33.517,arm3_ET_builderv2,2022.2.5,MacIntel,71.42857143,right,1,0.55,0.45,7,-0.019788268,0.18,83,0,83,0,1,,,,,
,,hahahahahah,001,2023-07-07_13h39.33.517,arm3_ET_builderv2,2022.2.5,MacIntel,71.42857143,right,1,0.55,0.45,7,0.034931542,0.154,84,0,84,0,1,,,,,
,,hahahahahah,001,2023-07-07_13h39.33.517,arm3_ET_builderv2,2022.2.5,MacIntel,71.42857143,right,1,0.55,0.45,7,0.063597358,0.198,85,0,85,0,1,,,,,
,,hahahahahah,001,2023-07-07_13h39.33.517,arm3_ET_builderv2,2022.2.5,MacIntel,71.42857143,right,1,0.55,0.45,7,0.050638049,0.568,86,0,86,0,1,,,,,
,,hahahahahah,001,2023-07-07_13h39.33.517,arm3_ET_builderv2,2022.2.5,MacIntel,71.42857143,up,1,0.55,0.45,8,0,0.798,87,0,87,0,1,,,,,
,,hahahahahah,001,2023-07-07_13h39.33.517,arm3_ET_builderv2,2022.2.5,MacIntel,71.42857143,right,1,0.55,0.45,8,0.018608208,0.199,88,0,88,0,1,,,,,
,,hahahahahah,001,2023-07-07_13h39.33.517,arm3_ET_builderv2,2022.2.5,MacIntel,71.42857143,right,1,0.55,0.45,8,-0.009768692,0.181,89,0,89,0,1,,,,,
,,hahahahahah,001,2023-07-07_13h39.33.517,arm3_ET_builderv2,2022.2.5,MacIntel,71.42857143,right,1,0.55,0.45,8,0.012785144,0.184,90,0,90,0,1,,,,,
,,hahahahahah,001,2023-07-07_13h39.33.517,arm3_ET_builderv2,2022.2.5,MacIntel,71.42857143,right,1,0.55,0.45,8,0.000185375,0.204,91,0,91,0,1,,,,,
,,hahahahahah,001,2023-07-07_13h39.33.517,arm3_ET_builderv2,2022.2.5,MacIntel,71.42857143,right,1,0.55,0.45,8,0.023949037,0.147,92,0,92,0,1,,,,,
,,hahahahahah,001,2023-07-07_13h39.33.517,arm3_ET_builderv2,2022.2.5,MacIntel,71.42857143,right,1,0.55,0.45,8,0.036447615,0.166,93,0,93,0,1,,,,,
,,hahahahahah,001,2023-07-07_13h39.33.517,arm3_ET_builderv2,2022.2.5,MacIntel,71.42857143,right,1,0.55,0.45,8,0.055902933,0.15,94,0,94,0,1,,,,,
,,hahahahahah,001,2023-07-07_13h39.33.517,arm3_ET_builderv2,2022.2.5,MacIntel,71.42857143,right,1,0.55,0.45,8,0.060667639,0.167,95,0,95,0,1,,,,,
,,hahahahahah,001,2023-07-07_13h39.33.517,arm3_ET_builderv2,2022.2.5,MacIntel,71.42857143,right,1,0.55,0.45,8,0.081216444,0.184,96,0,96,0,1,,,,,
,,hahahahahah,001,2023-07-07_13h39.33.517,arm3_ET_builderv2,2022.2.5,MacIntel,71.42857143,up,-1,0.55,0.45,8,0,0.583,97,0,97,0,1,,,,,
,,hahahahahah,001,2023-07-07_13h39.33.517,arm3_ET_builderv2,2022.2.5,MacIntel,71.42857143,right,-1,0.55,0.45,8,0.012844141,0.183,98,0,98,0,1,,,,,
,,hahahahahah,001,2023-07-07_13h39.33.517,arm3_ET_builderv2,2022.2.5,MacIntel,71.42857143,right,-1,0.55,0.45,8,0.001118827,0.172,99,0,99,0,1,,,,,
,,hahahahahah,001,2023-07-07_13h39.33.517,arm3_ET_builderv2,2022.2.5,MacIntel,71.42857143,right,-1,0.55,0.45,8,-0.01134713,0.172,100,0,100,0,1,,,,,
,,hahahahahah,001,2023-07-07_13h39.33.517,arm3_ET_builderv2,2022.2.5,MacIntel,71.42857143,right,-1,0.55,0.45,8,-0.02732904,0.189,101,0,101,0,1,,,,,
,,hahahahahah,001,2023-07-07_13h39.33.517,arm3_ET_builderv2,2022.2.5,MacIntel,71.42857143,right,-1,0.55,0.45,8,-0.044886716,0.17,102,0,102,0,1,,,,,
,,hahahahahah,001,2023-07-07_13h39.33.517,arm3_ET_builderv2,2022.2.5,MacIntel,71.42857143,right,-1,0.55,0.45,8,-0.063407674,0.165,103,0,103,0,1,,,,,
,,hahahahahah,001,2023-07-07_13h39.33.517,arm3_ET_builderv2,2022.2.5,MacIntel,71.42857143,right,-1,0.55,0.45,8,-0.087802299,0.164,104,0,104,0,1,,,,,
,,hahahahahah,001,2023-07-07_13h39.33.517,arm3_ET_builderv2,2022.2.5,MacIntel,71.42857143,down,1,0.55,0.45,8,0,0.324,105,0,105,0,1,,,,,
,,hahahahahah,001,2023-07-07_13h39.33.517,arm3_ET_builderv2,2022.2.5,MacIntel,71.42857143,right,1,0.55,0.45,8,-0.015678683,0.209,106,0,106,0,1,,,,,
,,hahahahahah,001,2023-07-07_13h39.33.517,arm3_ET_builderv2,2022.2.5,MacIntel,71.42857143,right,1,0.55,0.45,8,0.002174537,0.183,107,0,107,0,1,,,,,
,,hahahahahah,001,2023-07-07_13h39.33.517,arm3_ET_builderv2,2022.2.5,MacIntel,71.42857143,right,1,0.55,0.45,8,0.032803458,0.181,108,0,108,0,1,,,,,
,,hahahahahah,001,2023-07-07_13h39.33.517,arm3_ET_builderv2,2022.2.5,MacIntel,71.42857143,right,1,0.55,0.45,8,0.048875041,0.182,109,0,109,0,1,,,,,
,,hahahahahah,001,2023-07-07_13h39.33.517,arm3_ET_builderv2,2022.2.5,MacIntel,71.42857143,right,1,0.55,0.45,8,0.041160134,0.165,110,0,110,0,1,,,,,
,,hahahahahah,001,2023-07-07_13h39.33.517,arm3_ET_builderv2,2022.2.5,MacIntel,71.42857143,right,1,0.55,0.45,8,0.023632559,0.148,111,0,111,0,1,,,,,
,,hahahahahah,001,2023-07-07_13h39.33.517,arm3_ET_builderv2,2022.2.5,MacIntel,71.42857143,right,1,0.55,0.45,8,0.053207908,0.172,112,0,112,0,1,,,,,
,,hahahahahah,001,2023-07-07_13h39.33.517,arm3_ET_builderv2,2022.2.5,MacIntel,71.42857143,right,1,0.55,0.45,8,0.061864138,0.182,113,0,113,0,1,,,,,
,,hahahahahah,001,2023-07-07_13h39.33.517,arm3_ET_builderv2,2022.2.5,MacIntel,71.42857143,right,1,0.55,0.45,8,0.060584496,0.151,114,0,114,0,1,,,,,
,,hahahahahah,001,2023-07-07_13h39.33.517,arm3_ET_builderv2,2022.2.5,MacIntel,71.42857143,right,1,0.55,0.45,8,0.056901918,0.183,115,0,115,0,1,,,,,
,,hahahahahah,001,2023-07-07_13h39.33.517,arm3_ET_builderv2,2022.2.5,MacIntel,71.42857143,right,1,0.55,0.45,8,0.075591813,0.232,116,0,116,0,1,,,,,
,,hahahahahah,001,2023-07-07_13h39.33.517,arm3_ET_builderv2,2022.2.5,MacIntel,71.42857143,up,-1,0.55,0.45,9,0,0.603,117,0,117,0,1,,,,,
,,hahahahahah,001,2023-07-07_13h39.33.517,arm3_ET_builderv2,2022.2.5,MacIntel,71.42857143,right,-1,0.55,0.45,9,-0.025662125,0.213,118,0,118,0,1,,,,,
,,hahahahahah,001,2023-07-07_13h39.33.517,arm3_ET_builderv2,2022.2.5,MacIntel,71.42857143,right,-1,0.55,0.45,9,-0.04255413,0.181,119,0,119,0,1,,,,,
,,hahahahahah,001,2023-07-07_13h39.33.517,arm3_ET_builderv2,2022.2.5,MacIntel,71.42857143,right,-1,0.55,0.45,9,-0.06165933,0.174,120,0,120,0,1,,,,,
,,hahahahahah,001,2023-07-07_13h39.33.517,arm3_ET_builderv2,2022.2.5,MacIntel,71.42857143,right,-1,0.55,0.45,9,-0.073960333,0.175,121,0,121,0,1,,,,,
,,hahahahahah,001,2023-07-07_13h39.33.517,arm3_ET_builderv2,2022.2.5,MacIntel,71.42857143,right,-1,0.55,0.45,9,-0.063987693,0.156,122,0,122,0,1,,,,,
,,hahahahahah,001,2023-07-07_13h39.33.517,arm3_ET_builderv2,2022.2.5,MacIntel,71.42857143,right,-1,0.55,0.45,9,-0.102954369,0.157,123,0,123,0,1,,,,,
,,hahahahahah,001,2023-07-07_13h39.33.517,arm3_ET_builderv2,2022.2.5,MacIntel,71.42857143,right,-1,0.55,0.45,9,-0.104574462,0.198,124,0,124,0,1,,,,,
,,hahahahahah,001,2023-07-07_13h39.33.517,arm3_ET_builderv2,2022.2.5,MacIntel,71.42857143,right,-1,0.55,0.45,9,-0.101839862,0.215,125,0,125,0,1,,,,,
,,hahahahahah,001,2023-07-07_13h39.33.517,arm3_ET_builderv2,2022.2.5,MacIntel,71.42857143,right,-1,0.55,0.45,9,-0.04984363,0.383,126,0,126,0,1,,,,,
,,hahahahahah,001,2023-07-07_13h39.33.517,arm3_ET_builderv2,2022.2.5,MacIntel,71.42857143,right,-1,0.55,0.45,9,-0.062423204,0.606,127,0,127,0,1,,,,,
,,hahahahahah,001,2023-07-07_13h39.33.517,arm3_ET_builderv2,2022.2.5,MacIntel,71.42857143,down,-1,0.55,0.45,10,0,0.949,128,0,128,0,1,,,,,
,,hahahahahah,001,2023-07-07_13h39.33.517,arm3_ET_builderv2,2022.2.5,MacIntel,71.42857143,right,-1,0.55,0.45,10,0.003432625,0.287,129,0,129,0,1,,,,,
,,hahahahahah,001,2023-07-07_13h39.33.517,arm3_ET_builderv2,2022.2.5,MacIntel,71.42857143,right,-1,0.55,0.45,10,-0.004132386,0.214,130,0,130,0,1,,,,,
,,hahahahahah,001,2023-07-07_13h39.33.517,arm3_ET_builderv2,2022.2.5,MacIntel,71.42857143,right,-1,0.55,0.45,10,-0.000241559,0.151,131,0,131,0,1,,,,,
,,hahahahahah,001,2023-07-07_13h39.33.517,arm3_ET_builderv2,2022.2.5,MacIntel,71.42857143,right,-1,0.55,0.45,10,0.005914763,0.148,132,0,132,0,1,,,,,
,,hahahahahah,001,2023-07-07_13h39.33.517,arm3_ET_builderv2,2022.2.5,MacIntel,71.42857143,right,-1,0.55,0.45,10,0.019193028,0.168,133,0,133,0,1,,,,,
,,hahahahahah,001,2023-07-07_13h39.33.517,arm3_ET_builderv2,2022.2.5,MacIntel,71.42857143,right,-1,0.55,0.45,10,0.008498714,0.167,134,0,134,0,1,,,,,
,,hahahahahah,001,2023-07-07_13h39.33.517,arm3_ET_builderv2,2022.2.5,MacIntel,71.42857143,right,-1,0.55,0.45,10,-0.010652013,0.168,135,0,135,0,1,,,,,
,,hahahahahah,001,2023-07-07_13h39.33.517,arm3_ET_builderv2,2022.2.5,MacIntel,71.42857143,right,-1,0.55,0.45,10,-0.008316968,0.165,136,0,136,0,1,,,,,
,,hahahahahah,001,2023-07-07_13h39.33.517,arm3_ET_builderv2,2022.2.5,MacIntel,71.42857143,right,-1,0.55,0.45,10,-0.00184561,0.169,137,0,137,0,1,,,,,
,,hahahahahah,001,2023-07-07_13h39.33.517,arm3_ET_builderv2,2022.2.5,MacIntel,71.42857143,right,-1,0.55,0.45,10,5.93936E-05,0.171,138,0,138,0,1,,,,,
,,hahahahahah,001,2023-07-07_13h39.33.517,arm3_ET_builderv2,2022.2.5,MacIntel,71.42857143,right,-1,0.55,0.45,10,-0.002588705,0.165,139,0,139,0,1,,,,,
,,hahahahahah,001,2023-07-07_13h39.33.517,arm3_ET_builderv2,2022.2.5,MacIntel,71.42857143,right,-1,0.55,0.45,10,-0.017052675,0.365,140,0,140,0,1,,,,,
,,hahahahahah,001,2023-07-07_13h39.33.517,arm3_ET_builderv2,2022.2.5,MacIntel,71.42857143,down,-1,0.55,0.45,10,0,1.071,141,0,141,0,1,,,,,
,,hahahahahah,001,2023-07-07_13h39.33.517,arm3_ET_builderv2,2022.2.5,MacIntel,71.42857143,right,-1,0.55,0.45,10,-0.026198758,0.23,142,0,142,0,1,,,,,
,,hahahahahah,001,2023-07-07_13h39.33.517,arm3_ET_builderv2,2022.2.5,MacIntel,71.42857143,right,-1,0.55,0.45,10,-0.028478758,0.182,143,0,143,0,1,,,,,
,,hahahahahah,001,2023-07-07_13h39.33.517,arm3_ET_builderv2,2022.2.5,MacIntel,71.42857143,right,-1,0.55,0.45,10,-0.049630552,0.174,144,0,144,0,1,,,,,
,,hahahahahah,001,2023-07-07_13h39.33.517,arm3_ET_builderv2,2022.2.5,MacIntel,71.42857143,right,-1,0.55,0.45,10,-0.069982319,0.188,145,0,145,0,1,,,,,
,,hahahahahah,001,2023-07-07_13h39.33.517,arm3_ET_builderv2,2022.2.5,MacIntel,71.42857143,right,-1,0.55,0.45,10,-0.068156421,0.165,146,0,146,0,1,,,,,
,,hahahahahah,001,2023-07-07_13h39.33.517,arm3_ET_builderv2,2022.2.5,MacIntel,71.42857143,right,-1,0.55,0.45,10,-0.081830816,0.171,147,0,147,0,1,,,,,
,,hahahahahah,001,2023-07-07_13h39.33.517,arm3_ET_builderv2,2022.2.5,MacIntel,71.42857143,right,-1,0.55,0.45,10,-0.067544362,0.167,148,0,148,0,1,,,,,
,,hahahahahah,001,2023-07-07_13h39.33.517,arm3_ET_builderv2,2022.2.5,MacIntel,71.42857143,right,-1,0.55,0.45,10,-0.077337874,0.147,149,0,149,0,1,,,,,
,,hahahahahah,001,2023-07-07_13h39.33.517,arm3_ET_builderv2,2022.2.5,MacIntel,71.42857143,down,1,0.55,0.45,11,0,0.267,150,0,150,0,1,,,,,
,,hahahahahah,001,2023-07-07_13h39.33.517,arm3_ET_builderv2,2022.2.5,MacIntel,71.42857143,right,1,0.55,0.45,11,0.006348477,0.182,151,0,151,0,1,,,,,
,,hahahahahah,001,2023-07-07_13h39.33.517,arm3_ET_builderv2,2022.2.5,MacIntel,71.42857143,right,1,0.55,0.45,11,0.040588774,0.198,152,0,152,0,1,,,,,
,,hahahahahah,001,2023-07-07_13h39.33.517,arm3_ET_builderv2,2022.2.5,MacIntel,71.42857143,right,1,0.55,0.45,11,0.040741151,0.166,153,0,153,0,1,,,,,
,,hahahahahah,001,2023-07-07_13h39.33.517,arm3_ET_builderv2,2022.2.5,MacIntel,71.42857143,right,1,0.55,0.45,11,0.036246265,0.181,154,0,154,0,1,,,,,
,,hahahahahah,001,2023-07-07_13h39.33.517,arm3_ET_builderv2,2022.2.5,MacIntel,71.42857143,right,1,0.55,0.45,11,0.023613662,0.164,155,0,155,0,1,,,,,
,,hahahahahah,001,2023-07-07_13h39.33.517,arm3_ET_builderv2,2022.2.5,MacIntel,71.42857143,right,1,0.55,0.45,11,0.029390692,0.15,156,0,156,0,1,,,,,
,,hahahahahah,001,2023-07-07_13h39.33.517,arm3_ET_builderv2,2022.2.5,MacIntel,71.42857143,right,1,0.55,0.45,11,0.053845664,0.168,157,0,157,0,1,,,,,
,,hahahahahah,001,2023-07-07_13h39.33.517,arm3_ET_builderv2,2022.2.5,MacIntel,71.42857143,right,1,0.55,0.45,11,0.064565069,0.155,158,0,158,0,1,,,,,
,,hahahahahah,001,2023-07-07_13h39.33.517,arm3_ET_builderv2,2022.2.5,MacIntel,71.42857143,right,1,0.55,0.45,11,0.075004032,0.174,159,0,159,0,1,,,,,
,,hahahahahah,001,2023-07-07_13h39.33.517,arm3_ET_builderv2,2022.2.5,MacIntel,71.42857143,right,1,0.55,0.45,11,0.082516197,0.191,160,0,160,0,1,,,,,
,,hahahahahah,001,2023-07-07_13h39.33.517,arm3_ET_builderv2,2022.2.5,MacIntel,71.42857143,up,-1,0.55,0.45,11,0,0.564,161,0,161,0,1,,,,,
,,hahahahahah,001,2023-07-07_13h39.33.517,arm3_ET_builderv2,2022.2.5,MacIntel,71.42857143,right,-1,0.55,0.45,11,-0.024428643,0.223,162,0,162,0,1,,,,,
,,hahahahahah,001,2023-07-07_13h39.33.517,arm3_ET_builderv2,2022.2.5,MacIntel,71.42857143,right,-1,0.55,0.45,11,-0.065403094,0.183,163,0,163,0,1,,,,,
,,hahahahahah,001,2023-07-07_13h39.33.517,arm3_ET_builderv2,2022.2.5,MacIntel,71.42857143,right,-1,0.55,0.45,11,-0.067783599,0.165,164,0,164,0,1,,,,,
,,hahahahahah,001,2023-07-07_13h39.33.517,arm3_ET_builderv2,2022.2.5,MacIntel,71.42857143,right,-1,0.55,0.45,11,-0.063261369,0.153,165,0,165,0,1,,,,,
,,hahahahahah,001,2023-07-07_13h39.33.517,arm3_ET_builderv2,2022.2.5,MacIntel,71.42857143,right,-1,0.55,0.45,11,-0.058919309,0.165,166,0,166,0,1,,,,,
,,hahahahahah,001,2023-07-07_13h39.33.517,arm3_ET_builderv2,2022.2.5,MacIntel,71.42857143,right,-1,0.55,0.45,11,-0.090737433,0.156,167,0,167,0,1,,,,,
,,hahahahahah,001,2023-07-07_13h39.33.517,arm3_ET_builderv2,2022.2.5,MacIntel,71.42857143,right,-1,0.55,0.45,11,-0.094759782,0.165,168,0,168,0,1,,,,,
,,hahahahahah,001,2023-07-07_13h39.33.517,arm3_ET_builderv2,2022.2.5,MacIntel,71.42857143,right,-1,0.55,0.45,11,-0.129879228,0.157,169,0,169,0,1,,,,,
,,hahahahahah,001,2023-07-07_13h39.33.517,arm3_ET_builderv2,2022.2.5,MacIntel,71.42857143,right,-1,0.55,0.45,11,-0.135169145,0.199,170,0,170,0,1,,,,,
,,hahahahahah,001,2023-07-07_13h39.33.517,arm3_ET_builderv2,2022.2.5,MacIntel,71.42857143,down,1,0.55,0.45,11,0,0.757,171,0,171,0,1,,,,,
,,hahahahahah,001,2023-07-07_13h39.33.517,arm3_ET_builderv2,2022.2.5,MacIntel,71.42857143,right,1,0.55,0.45,11,0.031075568,0.216,172,0,172,0,1,,,,,
,,hahahahahah,001,2023-07-07_13h39.33.517,arm3_ET_builderv2,2022.2.5,MacIntel,71.42857143,right,1,0.55,0.45,11,0.069163889,0.182,173,0,173,0,1,,,,,
,,hahahahahah,001,2023-07-07_13h39.33.517,arm3_ET_builderv2,2022.2.5,MacIntel,71.42857143,right,1,0.55,0.45,11,0.095943283,0.165,174,0,174,0,1,,,,,
,,hahahahahah,001,2023-07-07_13h39.33.517,arm3_ET_builderv2,2022.2.5,MacIntel,71.42857143,right,1,0.55,0.45,11,0.102511072,0.172,175,0,175,0,1,,,,,
,,hahahahahah,001,2023-07-07_13h39.33.517,arm3_ET_builderv2,2022.2.5,MacIntel,71.42857143,right,1,0.55,0.45,11,0.138312935,0.183,176,0,176,0,1,,,,,
,,hahahahahah,001,2023-07-07_13h39.33.517,arm3_ET_builderv2,2022.2.5,MacIntel,71.42857143,right,1,0.55,0.45,11,0.158697031,0.154,177,0,177,0,1,,,,,
,,hahahahahah,001,2023-07-07_13h39.33.517,arm3_ET_builderv2,2022.2.5,MacIntel,71.42857143,right,1,0.55,0.45,11,0.164886578,0.142,178,0,178,0,1,,,,,
,,hahahahahah,001,2023-07-07_13h39.33.517,arm3_ET_builderv2,2022.2.5,MacIntel,71.42857143,up,-1,0.55,0.45,12,0,0.299,179,0,179,0,1,,,,,
,,hahahahahah,001,2023-07-07_13h39.33.517,arm3_ET_builderv2,2022.2.5,MacIntel,71.42857143,right,-1,0.55,0.45,12,-0.050905621,0.217,180,0,180,0,1,,,,,
,,hahahahahah,001,2023-07-07_13h39.33.517,arm3_ET_builderv2,2022.2.5,MacIntel,71.42857143,right,-1,0.55,0.45,12,-0.053376143,0.181,181,0,181,0,1,,,,,
,,hahahahahah,001,2023-07-07_13h39.33.517,arm3_ET_builderv2,2022.2.5,MacIntel,71.42857143,right,-1,0.55,0.45,12,-0.055656435,0.173,182,0,182,0,1,,,,,
,,hahahahahah,001,2023-07-07_13h39.33.517,arm3_ET_builderv2,2022.2.5,MacIntel,71.42857143,right,-1,0.55,0.45,12,-0.049492004,0.174,183,0,183,0,1,,,,,
,,hahahahahah,001,2023-07-07_13h39.33.517,arm3_ET_builderv2,2022.2.5,MacIntel,71.42857143,right,-1,0.55,0.45,12,-0.101857213,0.168,184,0,184,0,1,,,,,
,,hahahahahah,001,2023-07-07_13h39.33.517,arm3_ET_builderv2,2022.2.5,MacIntel,71.42857143,right,-1,0.55,0.45,12,-0.136486822,0.185,185,0,185,0,1,,,,,
,,hahahahahah,001,2023-07-07_13h39.33.517,arm3_ET_builderv2,2022.2.5,MacIntel,71.42857143,right,-1,0.55,0.45,12,-0.134061227,0.202,186,0,186,0,1,,,,,
,,hahahahahah,001,2023-07-07_13h39.33.517,arm3_ET_builderv2,2022.2.5,MacIntel,71.42857143,down,-1,0.55,0.45,13,0,0.416,187,0,187,0,1,,,,,
,,hahahahahah,001,2023-07-07_13h39.33.517,arm3_ET_builderv2,2022.2.5,MacIntel,71.42857143,right,-1,0.55,0.45,13,-0.048870983,0.22,188,0,188,0,1,,,,,
,,hahahahahah,001,2023-07-07_13h39.33.517,arm3_ET_builderv2,2022.2.5,MacIntel,71.42857143,right,-1,0.55,0.45,13,-0.06786597,0.198,189,0,189,0,1,,,,,
,,hahahahahah,001,2023-07-07_13h39.33.517,arm3_ET_builderv2,2022.2.5,MacIntel,71.42857143,right,-1,0.55,0.45,13,-0.057830446,0.168,190,0,190,0,1,,,,,
,,hahahahahah,001,2023-07-07_13h39.33.517,arm3_ET_builderv2,2022.2.5,MacIntel,71.42857143,right,-1,0.55,0.45,13,-0.05428626,0.17,191,0,191,0,1,,,,,
,,hahahahahah,001,2023-07-07_13h39.33.517,arm3_ET_builderv2,2022.2.5,MacIntel,71.42857143,right,-1,0.55,0.45,13,-0.055781425,0.184,192,0,192,0,1,,,,,
,,hahahahahah,001,2023-07-07_13h39.33.517,arm3_ET_builderv2,2022.2.5,MacIntel,71.42857143,right,-1,0.55,0.45,13,-0.051667943,0.165,193,0,193,0,1,,,,,
,,hahahahahah,001,2023-07-07_13h39.33.517,arm3_ET_builderv2,2022.2.5,MacIntel,71.42857143,right,-1,0.55,0.45,13,-0.066269789,0.168,194,0,194,0,1,,,,,
,,hahahahahah,001,2023-07-07_13h39.33.517,arm3_ET_builderv2,2022.2.5,MacIntel,71.42857143,right,-1,0.55,0.45,13,-0.100259954,0.17,195,0,195,0,1,,,,,
,,hahahahahah,001,2023-07-07_13h39.33.517,arm3_ET_builderv2,2022.2.5,MacIntel,71.42857143,right,-1,0.55,0.45,13,-0.12279735,0.183,196,0,196,0,1,,,,,
,,hahahahahah,001,2023-07-07_13h39.33.517,arm3_ET_builderv2,2022.2.5,MacIntel,71.42857143,down,1,0.55,0.45,14,0,0.34,197,0,197,0,1,,,,,
,,hahahahahah,001,2023-07-07_13h39.33.517,arm3_ET_builderv2,2022.2.5,MacIntel,71.42857143,right,1,0.55,0.45,14,0.017721313,0.199,198,0,198,0,1,,,,,
,,hahahahahah,001,2023-07-07_13h39.33.517,arm3_ET_builderv2,2022.2.5,MacIntel,71.42857143,right,1,0.55,0.45,14,0.005078823,0.188,199,0,199,0,1,,,,,
,,hahahahahah,001,2023-07-07_13h39.33.517,arm3_ET_builderv2,2022.2.5,MacIntel,71.42857143,right,1,0.55,0.45,14,-0.015658742,0.169,200,0,200,0,1,,,,,
,,hahahahahah,001,2023-07-07_13h39.33.517,arm3_ET_builderv2,2022.2.5,MacIntel,71.42857143,right,1,0.55,0.45,14,-0.018557575,0.191,201,0,201,0,1,,,,,
,,hahahahahah,001,2023-07-07_13h39.33.517,arm3_ET_builderv2,2022.2.5,MacIntel,71.42857143,right,1,0.55,0.45,14,-0.023799319,0.172,202,0,202,0,1,,,,,
,,hahahahahah,001,2023-07-07_13h39.33.517,arm3_ET_builderv2,2022.2.5,MacIntel,71.42857143,right,1,0.55,0.45,14,0.000129325,0.198,203,0,203,0,1,,,,,
,,hahahahahah,001,2023-07-07_13h39.33.517,arm3_ET_builderv2,2022.2.5,MacIntel,71.42857143,right,1,0.55,0.45,14,0.026450747,0.169,204,0,204,0,1,,,,,
,,hahahahahah,001,2023-07-07_13h39.33.517,arm3_ET_builderv2,2022.2.5,MacIntel,71.42857143,right,1,0.55,0.45,14,0.044649682,0.186,205,0,205,0,1,,,,,
,,hahahahahah,001,2023-07-07_13h39.33.517,arm3_ET_builderv2,2022.2.5,MacIntel,71.42857143,right,1,0.55,0.45,14,0.025073091,0.19,206,0,206,0,1,,,,,
,,hahahahahah,001,2023-07-07_13h39.33.517,arm3_ET_builderv2,2022.2.5,MacIntel,71.42857143,right,1,0.55,0.45,14,0.018483552,0.165,207,0,207,0,1,,,,,
,,hahahahahah,001,2023-07-07_13h39.33.517,arm3_ET_builderv2,2022.2.5,MacIntel,71.42857143,right,1,0.55,0.45,14,0.01685104,0.183,208,0,208,0,1,,,,,
,,hahahahahah,001,2023-07-07_13h39.33.517,arm3_ET_builderv2,2022.2.5,MacIntel,71.42857143,right,1,0.55,0.45,14,0.00897954,0.184,209,0,209,0,1,,,,,
,,hahahahahah,001,2023-07-07_13h39.33.517,arm3_ET_builderv2,2022.2.5,MacIntel,71.42857143,up,-1,0.55,0.45,14,0,0.798,210,0,210,0,1,,,,,
,,hahahahahah,001,2023-07-07_13h39.33.517,arm3_ET_builderv2,2022.2.5,MacIntel,71.42857143,right,-1,0.55,0.45,14,0.015593924,0.197,211,0,211,0,1,,,,,
,,hahahahahah,001,2023-07-07_13h39.33.517,arm3_ET_builderv2,2022.2.5,MacIntel,71.42857143,right,-1,0.55,0.45,14,-0.013338328,0.181,212,0,212,0,1,,,,,
,,hahahahahah,001,2023-07-07_13h39.33.517,arm3_ET_builderv2,2022.2.5,MacIntel,71.42857143,right,-1,0.55,0.45,14,-0.022144536,0.174,213,0,213,0,1,,,,,
,,hahahahahah,001,2023-07-07_13h39.33.517,arm3_ET_builderv2,2022.2.5,MacIntel,71.42857143,right,-1,0.55,0.45,14,-0.022875075,0.168,214,0,214,0,1,,,,,
,,hahahahahah,001,2023-07-07_13h39.33.517,arm3_ET_builderv2,2022.2.5,MacIntel,71.42857143,right,-1,0.55,0.45,14,-4.4811E-05,0.184,215,0,215,0,1,,,,,
,,hahahahahah,001,2023-07-07_13h39.33.517,arm3_ET_builderv2,2022.2.5,MacIntel,71.42857143,right,-1,0.55,0.45,14,-0.022208988,0.169,216,0,216,0,1,,,,,
,,hahahahahah,001,2023-07-07_13h39.33.517,arm3_ET_builderv2,2022.2.5,MacIntel,71.42857143,right,-1,0.55,0.45,14,-0.00370016,0.157,217,0,217,0,1,,,,,
,,hahahahahah,001,2023-07-07_13h39.33.517,arm3_ET_builderv2,2022.2.5,MacIntel,71.42857143,right,-1,0.55,0.45,14,-0.011727878,0.183,218,0,218,0,1,,,,,
,,hahahahahah,001,2023-07-07_13h39.33.517,arm3_ET_builderv2,2022.2.5,MacIntel,71.42857143,right,-1,0.55,0.45,14,-0.026886937,0.168,219,0,219,0,1,,,,,
,,hahahahahah,001,2023-07-07_13h39.33.517,arm3_ET_builderv2,2022.2.5,MacIntel,71.42857143,right,-1,0.55,0.45,14,-0.038203827,0.172,220,0,220,0,1,,,,,
,,hahahahahah,001,2023-07-07_13h39.33.517,arm3_ET_builderv2,2022.2.5,MacIntel,71.42857143,right,-1,0.55,0.45,14,-0.056473473,0.219,221,0,221,0,1,,,,,
,,hahahahahah,001,2023-07-07_13h39.33.517,arm3_ET_builderv2,2022.2.5,MacIntel,71.42857143,down,1,0.55,0.45,14,0,0.701,222,0,222,0,1,,,,,
,,hahahahahah,001,2023-07-07_13h39.33.517,arm3_ET_builderv2,2022.2.5,MacIntel,71.42857143,right,1,0.55,0.45,14,-0.010606904,0.201,223,0,223,0,1,,,,,
,,hahahahahah,001,2023-07-07_13h39.33.517,arm3_ET_builderv2,2022.2.5,MacIntel,71.42857143,right,1,0.55,0.45,14,0.00604849,0.198,224,0,224,0,1,,,,,
,,hahahahahah,001,2023-07-07_13h39.33.517,arm3_ET_builderv2,2022.2.5,MacIntel,71.42857143,right,1,0.55,0.45,14,0.000558895,0.165,225,0,225,0,1,,,,,
,,hahahahahah,001,2023-07-07_13h39.33.517,arm3_ET_builderv2,2022.2.5,MacIntel,71.42857143,right,1,0.55,0.45,14,-0.003429863,0.167,226,0,226,0,1,,,,,
,,hahahahahah,001,2023-07-07_13h39.33.517,arm3_ET_builderv2,2022.2.5,MacIntel,71.42857143,right,1,0.55,0.45,14,0.006715976,0.171,227,0,227,0,1,,,,,
,,hahahahahah,001,2023-07-07_13h39.33.517,arm3_ET_builderv2,2022.2.5,MacIntel,71.42857143,right,1,0.55,0.45,14,0.006662793,0.199,228,0,228,0,1,,,,,
,,hahahahahah,001,2023-07-07_13h39.33.517,arm3_ET_builderv2,2022.2.5,MacIntel,71.42857143,right,1,0.55,0.45,14,0.014039256,0.166,229,0,229,0,1,,,,,
,,hahahahahah,001,2023-07-07_13h39.33.517,arm3_ET_builderv2,2022.2.5,MacIntel,71.42857143,right,1,0.55,0.45,14,0.00707847,0.171,230,0,230,0,1,,,,,
,,hahahahahah,001,2023-07-07_13h39.33.517,arm3_ET_builderv2,2022.2.5,MacIntel,71.42857143,right,1,0.55,0.45,14,-0.009515665,0.182,231,0,231,0,1,,,,,
,,hahahahahah,001,2023-07-07_13h39.33.517,arm3_ET_builderv2,2022.2.5,MacIntel,71.42857143,right,1,0.55,0.45,14,-0.013401586,0.168,232,0,232,0,1,,,,,
,,hahahahahah,001,2023-07-07_13h39.33.517,arm3_ET_builderv2,2022.2.5,MacIntel,71.42857143,right,1,0.55,0.45,14,-0.020941915,0.172,233,0,233,0,1,,,,,
,,hahahahahah,001,2023-07-07_13h39.33.517,arm3_ET_builderv2,2022.2.5,MacIntel,71.42857143,right,1,0.55,0.45,14,-0.004728992,0.232,234,0,234,0,1,,,,,
,,hahahahahah,001,2023-07-07_13h39.33.517,arm3_ET_builderv2,2022.2.5,MacIntel,71.42857143,down,1,0.55,0.45,14,0,0.806,235,0,235,0,1,,,,,
,,hahahahahah,001,2023-07-07_13h39.33.517,arm3_ET_builderv2,2022.2.5,MacIntel,71.42857143,right,1,0.55,0.45,14,0.008076199,0.202,236,0,236,0,1,,,,,
,,hahahahahah,001,2023-07-07_13h39.33.517,arm3_ET_builderv2,2022.2.5,MacIntel,71.42857143,right,1,0.55,0.45,14,0.025335431,0.185,237,0,237,0,1,,,,,
,,hahahahahah,001,2023-07-07_13h39.33.517,arm3_ET_builderv2,2022.2.5,MacIntel,71.42857143,right,1,0.55,0.45,14,0.036847482,0.187,238,0,238,0,1,,,,,
,,hahahahahah,001,2023-07-07_13h39.33.517,arm3_ET_builderv2,2022.2.5,MacIntel,71.42857143,right,1,0.55,0.45,14,0.018791361,0.181,239,0,239,0,1,,,,,
,,hahahahahah,001,2023-07-07_13h39.33.517,arm3_ET_builderv2,2022.2.5,MacIntel,71.42857143,right,1,0.55,0.45,14,0.072684921,0.155,240,0,240,0,1,,,,,
,,hahahahahah,001,2023-07-07_13h39.33.517,arm3_ET_builderv2,2022.2.5,MacIntel,71.42857143,right,1,0.55,0.45,14,0.072909464,0.187,241,0,241,0,1,,,,,
,,hahahahahah,001,2023-07-07_13h39.33.517,arm3_ET_builderv2,2022.2.5,MacIntel,71.42857143,right,1,0.55,0.45,14,0.089687501,0.149,242,0,242,0,1,,,,,
,,hahahahahah,001,2023-07-07_13h39.33.517,arm3_ET_builderv2,2022.2.5,MacIntel,71.42857143,right,1,0.55,0.45,14,0.08224674,0.167,243,0,243,0,1,,,,,
,,hahahahahah,001,2023-07-07_13h39.33.517,arm3_ET_builderv2,2022.2.5,MacIntel,71.42857143,up,1,0.55,0.45,15,0,0.399,244,0,244,0,1,,,,,
,,hahahahahah,001,2023-07-07_13h39.33.517,arm3_ET_builderv2,2022.2.5,MacIntel,71.42857143,right,1,0.55,0.45,15,0.009716879,0.218,245,0,245,0,1,,,,,
,,hahahahahah,001,2023-07-07_13h39.33.517,arm3_ET_builderv2,2022.2.5,MacIntel,71.42857143,right,1,0.55,0.45,15,0.01053818,0.191,246,0,246,0,1,,,,,
,,hahahahahah,001,2023-07-07_13h39.33.517,arm3_ET_builderv2,2022.2.5,MacIntel,71.42857143,right,1,0.55,0.45,15,0.019270754,0.188,247,0,247,0,1,,,,,
,,hahahahahah,001,2023-07-07_13h39.33.517,arm3_ET_builderv2,2022.2.5,MacIntel,71.42857143,right,1,0.55,0.45,15,0.04215322,0.174,248,0,248,0,1,,,,,
,,hahahahahah,001,2023-07-07_13h39.33.517,arm3_ET_builderv2,2022.2.5,MacIntel,71.42857143,right,1,0.55,0.45,15,0.049009559,0.185,249,0,249,0,1,,,,,
,,hahahahahah,001,2023-07-07_13h39.33.517,arm3_ET_builderv2,2022.2.5,MacIntel,71.42857143,right,1,0.55,0.45,15,0.06323442,0.138,250,0,250,0,1,,,,,
,,hahahahahah,001,2023-07-07_13h39.33.517,arm3_ET_builderv2,2022.2.5,MacIntel,71.42857143,right,1,0.55,0.45,15,0.071157566,0.198,251,0,251,0,1,,,,,
,,hahahahahah,001,2023-07-07_13h39.33.517,arm3_ET_builderv2,2022.2.5,MacIntel,71.42857143,up,1,0.55,0.45,15,0,0.352,252,0,252,0,1,,,,,
,,hahahahahah,001,2023-07-07_13h39.33.517,arm3_ET_builderv2,2022.2.5,MacIntel,71.42857143,right,1,0.55,0.45,15,-0.007838649,0.215,253,0,253,0,1,,,,,
,,hahahahahah,001,2023-07-07_13h39.33.517,arm3_ET_builderv2,2022.2.5,MacIntel,71.42857143,right,1,0.55,0.45,15,0.025845519,0.189,254,0,254,0,1,,,,,
,,hahahahahah,001,2023-07-07_13h39.33.517,arm3_ET_builderv2,2022.2.5,MacIntel,71.42857143,right,1,0.55,0.45,15,0.069957678,0.22,255,0,255,0,1,,,,,
,,hahahahahah,001,2023-07-07_13h39.33.517,arm3_ET_builderv2,2022.2.5,MacIntel,71.42857143,right,1,0.55,0.45,15,0.067455664,0.158,256,0,256,0,1,,,,,
,,hahahahahah,001,2023-07-07_13h39.33.517,arm3_ET_builderv2,2022.2.5,MacIntel,71.42857143,right,1,0.55,0.45,15,0.090971528,0.17,257,0,257,0,1,,,,,
,,hahahahahah,001,2023-07-07_13h39.33.517,arm3_ET_builderv2,2022.2.5,MacIntel,71.42857143,right,1,0.55,0.45,15,0.116337414,0.148,258,0,258,0,1,,,,,
,,hahahahahah,001,2023-07-07_13h39.33.517,arm3_ET_builderv2,2022.2.5,MacIntel,71.42857143,up,-1,0.55,0.45,16,0,0.316,259,0,259,0,1,,,,,
,,hahahahahah,001,2023-07-07_13h39.33.517,arm3_ET_builderv2,2022.2.5,MacIntel,71.42857143,right,-1,0.55,0.45,16,-0.016493204,0.281,260,0,260,0,1,,,,,
,,hahahahahah,001,2023-07-07_13h39.33.517,arm3_ET_builderv2,2022.2.5,MacIntel,71.42857143,right,-1,0.55,0.45,16,-0.055396657,0.175,261,0,261,0,1,,,,,
,,hahahahahah,001,2023-07-07_13h39.33.517,arm3_ET_builderv2,2022.2.5,MacIntel,71.42857143,right,-1,0.55,0.45,16,-0.093853721,0.167,262,0,262,0,1,,,,,
,,hahahahahah,001,2023-07-07_13h39.33.517,arm3_ET_builderv2,2022.2.5,MacIntel,71.42857143,right,-1,0.55,0.45,16,-0.111580251,0.166,263,0,263,0,1,,,,,
,,hahahahahah,001,2023-07-07_13h39.33.517,arm3_ET_builderv2,2022.2.5,MacIntel,71.42857143,right,-1,0.55,0.45,16,-0.12555611,0.183,264,0,264,0,1,,,,,
,,hahahahahah,001,2023-07-07_13h39.33.517,arm3_ET_builderv2,2022.2.5,MacIntel,71.42857143,right,-1,0.55,0.45,16,-0.135083932,0.172,265,0,265,0,1,,,,,
,,hahahahahah,001,2023-07-07_13h39.33.517,arm3_ET_builderv2,2022.2.5,MacIntel,71.42857143,down,-1,0.55,0.45,16,0,0.248,266,0,266,0,1,,,,,
,,hahahahahah,001,2023-07-07_13h39.33.517,arm3_ET_builderv2,2022.2.5,MacIntel,71.42857143,right,-1,0.55,0.45,16,-0.029327119,0.247,267,0,267,0,1,,,,,
,,hahahahahah,001,2023-07-07_13h39.33.517,arm3_ET_builderv2,2022.2.5,MacIntel,71.42857143,right,-1,0.55,0.45,16,-0.061828521,0.182,268,0,268,0,1,,,,,
,,hahahahahah,001,2023-07-07_13h39.33.517,arm3_ET_builderv2,2022.2.5,MacIntel,71.42857143,right,-1,0.55,0.45,16,-0.049859088,0.189,269,0,269,0,1,,,,,
,,hahahahahah,001,2023-07-07_13h39.33.517,arm3_ET_builderv2,2022.2.5,MacIntel,71.42857143,right,-1,0.55,0.45,16,-0.047192342,0.165,270,0,270,0,1,,,,,
,,hahahahahah,001,2023-07-07_13h39.33.517,arm3_ET_builderv2,2022.2.5,MacIntel,71.42857143,right,-1,0.55,0.45,16,-0.092208954,0.182,271,0,271,0,1,,,,,
,,hahahahahah,001,2023-07-07_13h39.33.517,arm3_ET_builderv2,2022.2.5,MacIntel,71.42857143,right,-1,0.55,0.45,16,-0.106921366,0.165,272,0,272,0,1,,,,,
,,hahahahahah,001,2023-07-07_13h39.33.517,arm3_ET_builderv2,2022.2.5,MacIntel,71.42857143,down,1,0.55,0.45,17,0,1.432,273,0,273,0,1,,,,,
,,hahahahahah,001,2023-07-07_13h39.33.517,arm3_ET_builderv2,2022.2.5,MacIntel,71.42857143,right,1,0.55,0.45,17,0.007351948,0.204,274,0,274,0,1,,,,,
,,hahahahahah,001,2023-07-07_13h39.33.517,arm3_ET_builderv2,2022.2.5,MacIntel,71.42857143,right,1,0.55,0.45,17,-0.006162636,0.182,275,0,275,0,1,,,,,
,,hahahahahah,001,2023-07-07_13h39.33.517,arm3_ET_builderv2,2022.2.5,MacIntel,71.42857143,right,1,0.55,0.45,17,0.02357766,0.174,276,0,276,0,1,,,,,
,,hahahahahah,001,2023-07-07_13h39.33.517,arm3_ET_builderv2,2022.2.5,MacIntel,71.42857143,right,1,0.55,0.45,17,0.027596351,0.17,277,0,277,0,1,,,,,
,,hahahahahah,001,2023-07-07_13h39.33.517,arm3_ET_builderv2,2022.2.5,MacIntel,71.42857143,right,1,0.55,0.45,17,0.014565464,0.165,278,0,278,0,1,,,,,
,,hahahahahah,001,2023-07-07_13h39.33.517,arm3_ET_builderv2,2022.2.5,MacIntel,71.42857143,right,1,0.55,0.45,17,-0.001539327,0.167,279,0,279,0,1,,,,,
,,hahahahahah,001,2023-07-07_13h39.33.517,arm3_ET_builderv2,2022.2.5,MacIntel,71.42857143,right,1,0.55,0.45,17,0.008148338,0.156,280,0,280,0,1,,,,,
,,hahahahahah,001,2023-07-07_13h39.33.517,arm3_ET_builderv2,2022.2.5,MacIntel,71.42857143,right,1,0.55,0.45,17,0.058861148,0.184,281,0,281,0,1,,,,,
,,hahahahahah,001,2023-07-07_13h39.33.517,arm3_ET_builderv2,2022.2.5,MacIntel,71.42857143,right,1,0.55,0.45,17,0.073862409,0.366,282,0,282,0,1,,,,,
,,hahahahahah,001,2023-07-07_13h39.33.517,arm3_ET_builderv2,2022.2.5,MacIntel,71.42857143,right,1,0.55,0.45,17,0.054584796,0.637,283,0,283,0,1,,,,,
,,hahahahahah,001,2023-07-07_13h39.33.517,arm3_ET_builderv2,2022.2.5,MacIntel,71.42857143,up,1,0.55,0.45,17,0,0.598,284,0,284,0,1,,,,,
,,hahahahahah,001,2023-07-07_13h39.33.517,arm3_ET_builderv2,2022.2.5,MacIntel,71.42857143,right,1,0.55,0.45,17,0.011976884,0.814,285,0,285,0,1,,,,,
,,hahahahahah,001,2023-07-07_13h39.33.517,arm3_ET_builderv2,2022.2.5,MacIntel,71.42857143,right,1,0.55,0.45,17,0.001221182,0.171,286,0,286,0,1,,,,,
,,hahahahahah,001,2023-07-07_13h39.33.517,arm3_ET_builderv2,2022.2.5,MacIntel,71.42857143,right,1,0.55,0.45,17,0.010598606,0.181,287,0,287,0,1,,,,,
,,hahahahahah,001,2023-07-07_13h39.33.517,arm3_ET_builderv2,2022.2.5,MacIntel,71.42857143,right,1,0.55,0.45,17,0.031768022,0.166,288,0,288,0,1,,,,,
,,hahahahahah,001,2023-07-07_13h39.33.517,arm3_ET_builderv2,2022.2.5,MacIntel,71.42857143,right,1,0.55,0.45,17,0.021711944,0.197,289,0,289,0,1,,,,,
,,hahahahahah,001,2023-07-07_13h39.33.517,arm3_ET_builderv2,2022.2.5,MacIntel,71.42857143,right,1,0.55,0.45,17,0.037304703,0.15,290,0,290,0,1,,,,,
,,hahahahahah,001,2023-07-07_13h39.33.517,arm3_ET_builderv2,2022.2.5,MacIntel,71.42857143,right,1,0.55,0.45,17,0.033770477,0.182,291,0,291,0,1,,,,,
,,hahahahahah,001,2023-07-07_13h39.33.517,arm3_ET_builderv2,2022.2.5,MacIntel,71.42857143,right,1,0.55,0.45,17,0.033252569,0.15,292,0,292,0,1,,,,,
,,hahahahahah,001,2023-07-07_13h39.33.517,arm3_ET_builderv2,2022.2.5,MacIntel,71.42857143,right,1,0.55,0.45,17,0.036719597,0.168,293,0,293,0,1,,,,,
,,hahahahahah,001,2023-07-07_13h39.33.517,arm3_ET_builderv2,2022.2.5,MacIntel,71.42857143,right,1,0.55,0.45,17,0.027295637,0.182,294,0,294,0,1,,,,,
,,hahahahahah,001,2023-07-07_13h39.33.517,arm3_ET_builderv2,2022.2.5,MacIntel,71.42857143,right,1,0.55,0.45,17,0.022830006,0.648,295,0,295,0,1,,,,,
,,hahahahahah,001,2023-07-07_13h39.33.517,arm3_ET_builderv2,2022.2.5,MacIntel,71.42857143,up,-1,0.55,0.45,18,0,0.669,296,0,296,0,1,,,,,
,,hahahahahah,001,2023-07-07_13h39.33.517,arm3_ET_builderv2,2022.2.5,MacIntel,71.42857143,right,-1,0.55,0.45,18,-0.021074923,0.283,297,0,297,0,1,,,,,
,,hahahahahah,001,2023-07-07_13h39.33.517,arm3_ET_builderv2,2022.2.5,MacIntel,71.42857143,right,-1,0.55,0.45,18,-0.036014733,0.181,298,0,298,0,1,,,,,
,,hahahahahah,001,2023-07-07_13h39.33.517,arm3_ET_builderv2,2022.2.5,MacIntel,71.42857143,right,-1,0.55,0.45,18,-0.02767188,0.181,299,0,299,0,1,,,,,
,,hahahahahah,001,2023-07-07_13h39.33.517,arm3_ET_builderv2,2022.2.5,MacIntel,71.42857143,right,-1,0.55,0.45,18,-0.013867545,0.177,300,0,300,0,1,,,,,
,,hahahahahah,001,2023-07-07_13h39.33.517,arm3_ET_builderv2,2022.2.5,MacIntel,71.42857143,right,-1,0.55,0.45,18,-0.035643628,0.182,301,0,301,0,1,,,,,
,,hahahahahah,001,2023-07-07_13h39.33.517,arm3_ET_builderv2,2022.2.5,MacIntel,71.42857143,right,-1,0.55,0.45,18,-0.026369021,0.182,302,0,302,0,1,,,,,
,,hahahahahah,001,2023-07-07_13h39.33.517,arm3_ET_builderv2,2022.2.5,MacIntel,71.42857143,right,-1,0.55,0.45,18,-0.011326971,0.149,303,0,303,0,1,,,,,
,,hahahahahah,001,2023-07-07_13h39.33.517,arm3_ET_builderv2,2022.2.5,MacIntel,71.42857143,right,-1,0.55,0.45,18,-0.026442823,0.166,304,0,304,0,1,,,,,
,,hahahahahah,001,2023-07-07_13h39.33.517,arm3_ET_builderv2,2022.2.5,MacIntel,71.42857143,right,-1,0.55,0.45,18,-0.037654296,0.166,305,0,305,0,1,,,,,
,,hahahahahah,001,2023-07-07_13h39.33.517,arm3_ET_builderv2,2022.2.5,MacIntel,71.42857143,right,-1,0.55,0.45,18,-0.054535596,0.25,306,0,306,0,1,,,,,
,,hahahahahah,001,2023-07-07_13h39.33.517,arm3_ET_builderv2,2022.2.5,MacIntel,71.42857143,down,1,0.55,0.45,18,0,0.533,307,0,307,0,1,,,,,
,,hahahahahah,001,2023-07-07_13h39.33.517,arm3_ET_builderv2,2022.2.5,MacIntel,71.42857143,right,1,0.55,0.45,18,-0.002315157,0.23,308,0,308,0,1,,,,,
,,hahahahahah,001,2023-07-07_13h39.33.517,arm3_ET_builderv2,2022.2.5,MacIntel,71.42857143,right,1,0.55,0.45,18,-0.011260554,0.155,309,0,309,0,1,,,,,
,,hahahahahah,001,2023-07-07_13h39.33.517,arm3_ET_builderv2,2022.2.5,MacIntel,71.42857143,right,1,0.55,0.45,18,-0.032194846,0.198,310,0,310,0,1,,,,,
,,hahahahahah,001,2023-07-07_13h39.33.517,arm3_ET_builderv2,2022.2.5,MacIntel,71.42857143,right,1,0.55,0.45,18,0.017774133,0.157,311,0,311,0,1,,,,,
,,hahahahahah,001,2023-07-07_13h39.33.517,arm3_ET_builderv2,2022.2.5,MacIntel,71.42857143,right,1,0.55,0.45,18,0.057129387,0.183,312,0,312,0,1,,,,,
,,hahahahahah,001,2023-07-07_13h39.33.517,arm3_ET_builderv2,2022.2.5,MacIntel,71.42857143,right,1,0.55,0.45,18,0.074573235,0.187,313,0,313,0,1,,,,,
,,hahahahahah,001,2023-07-07_13h39.33.517,arm3_ET_builderv2,2022.2.5,MacIntel,71.42857143,right,1,0.55,0.45,18,0.073354857,0.181,314,0,314,0,1,,,,,
,,hahahahahah,001,2023-07-07_13h39.33.517,arm3_ET_builderv2,2022.2.5,MacIntel,71.42857143,right,1,0.55,0.45,18,0.069972675,0.167,315,0,315,0,1,,,,,
,,hahahahahah,001,2023-07-07_13h39.33.517,arm3_ET_builderv2,2022.2.5,MacIntel,71.42857143,right,1,0.55,0.45,18,0.082749259,0.184,316,0,316,0,1,,,,,
,,hahahahahah,001,2023-07-07_13h39.33.517,arm3_ET_builderv2,2022.2.5,MacIntel,71.42857143,up,-1,0.55,0.45,19,0,0.482,317,0,317,0,1,,,,,
,,hahahahahah,001,2023-07-07_13h39.33.517,arm3_ET_builderv2,2022.2.5,MacIntel,71.42857143,right,-1,0.55,0.45,19,0.001101215,0.235,318,0,318,0,1,,,,,
,,hahahahahah,001,2023-07-07_13h39.33.517,arm3_ET_builderv2,2022.2.5,MacIntel,71.42857143,right,-1,0.55,0.45,19,-0.034771642,0.188,319,0,319,0,1,,,,,
,,hahahahahah,001,2023-07-07_13h39.33.517,arm3_ET_builderv2,2022.2.5,MacIntel,71.42857143,right,-1,0.55,0.45,19,-0.045438403,0.181,320,0,320,0,1,,,,,
,,hahahahahah,001,2023-07-07_13h39.33.517,arm3_ET_builderv2,2022.2.5,MacIntel,71.42857143,right,-1,0.55,0.45,19,-0.069349596,0.158,321,0,321,0,1,,,,,
,,hahahahahah,001,2023-07-07_13h39.33.517,arm3_ET_builderv2,2022.2.5,MacIntel,71.42857143,right,-1,0.55,0.45,19,-0.098503993,0.169,322,0,322,0,1,,,,,
,,hahahahahah,001,2023-07-07_13h39.33.517,arm3_ET_builderv2,2022.2.5,MacIntel,71.42857143,right,-1,0.55,0.45,19,-0.080059973,0.166,323,0,323,0,1,,,,,
,,hahahahahah,001,2023-07-07_13h39.33.517,arm3_ET_builderv2,2022.2.5,MacIntel,71.42857143,right,-1,0.55,0.45,19,-0.074460021,0.331,324,0,324,0,1,,,,,
,,hahahahahah,001,2023-07-07_13h39.33.517,arm3_ET_builderv2,2022.2.5,MacIntel,71.42857143,down,-1,0.55,0.45,19,0,0.398,325,0,325,0,1,,,,,
,,hahahahahah,001,2023-07-07_13h39.33.517,arm3_ET_builderv2,2022.2.5,MacIntel,71.42857143,right,-1,0.55,0.45,19,0.013670289,0.297,326,0,326,0,1,,,,,
,,hahahahahah,001,2023-07-07_13h39.33.517,arm3_ET_builderv2,2022.2.5,MacIntel,71.42857143,right,-1,0.55,0.45,19,-0.00153178,0.158,327,0,327,0,1,,,,,
,,hahahahahah,001,2023-07-07_13h39.33.517,arm3_ET_builderv2,2022.2.5,MacIntel,71.42857143,right,-1,0.55,0.45,19,-0.023263019,0.164,328,0,328,0,1,,,,,
,,hahahahahah,001,2023-07-07_13h39.33.517,arm3_ET_builderv2,2022.2.5,MacIntel,71.42857143,right,-1,0.55,0.45,19,-0.032396557,0.198,329,0,329,0,1,,,,,
,,hahahahahah,001,2023-07-07_13h39.33.517,arm3_ET_builderv2,2022.2.5,MacIntel,71.42857143,right,-1,0.55,0.45,19,-0.029381686,0.166,330,0,330,0,1,,,,,
,,hahahahahah,001,2023-07-07_13h39.33.517,arm3_ET_builderv2,2022.2.5,MacIntel,71.42857143,right,-1,0.55,0.45,19,-0.025304456,0.182,331,0,331,0,1,,,,,
,,hahahahahah,001,2023-07-07_13h39.33.517,arm3_ET_builderv2,2022.2.5,MacIntel,71.42857143,right,-1,0.55,0.45,19,-0.031717275,0.181,332,0,332,0,1,,,,,
,,hahahahahah,001,2023-07-07_13h39.33.517,arm3_ET_builderv2,2022.2.5,MacIntel,71.42857143,right,-1,0.55,0.45,19,-0.05206639,0.182,333,0,333,0,1,,,,,
,,hahahahahah,001,2023-07-07_13h39.33.517,arm3_ET_builderv2,2022.2.5,MacIntel,71.42857143,right,-1,0.55,0.45,19,-0.054737905,0.153,334,0,334,0,1,,,,,
,,hahahahahah,001,2023-07-07_13h39.33.517,arm3_ET_builderv2,2022.2.5,MacIntel,71.42857143,right,-1,0.55,0.45,19,-0.036831866,0.165,335,0,335,0,1,,,,,
,,hahahahahah,001,2023-07-07_13h39.33.517,arm3_ET_builderv2,2022.2.5,MacIntel,71.42857143,right,-1,0.55,0.45,19,-0.03267847,0.136,336,0,336,0,1,,,,,
,,hahahahahah,001,2023-07-07_13h39.33.517,arm3_ET_builderv2,2022.2.5,MacIntel,71.42857143,down,-1,0.55,0.45,20,0,0.587,337,0,337,0,1,,,,,
,,hahahahahah,001,2023-07-07_13h39.33.517,arm3_ET_builderv2,2022.2.5,MacIntel,71.42857143,right,-1,0.55,0.45,20,0.008045983,0.215,338,0,338,0,1,,,,,
,,hahahahahah,001,2023-07-07_13h39.33.517,arm3_ET_builderv2,2022.2.5,MacIntel,71.42857143,right,-1,0.55,0.45,20,0.011205169,0.155,339,0,339,0,1,,,,,
,,hahahahahah,001,2023-07-07_13h39.33.517,arm3_ET_builderv2,2022.2.5,MacIntel,71.42857143,right,-1,0.55,0.45,20,0.031932959,0.165,340,0,340,0,1,,,,,
,,hahahahahah,001,2023-07-07_13h39.33.517,arm3_ET_builderv2,2022.2.5,MacIntel,71.42857143,right,-1,0.55,0.45,20,0.02954157,0.183,341,0,341,0,1,,,,,
,,hahahahahah,001,2023-07-07_13h39.33.517,arm3_ET_builderv2,2022.2.5,MacIntel,71.42857143,right,-1,0.55,0.45,20,0.010300689,0.184,342,0,342,0,1,,,,,
,,hahahahahah,001,2023-07-07_13h39.33.517,arm3_ET_builderv2,2022.2.5,MacIntel,71.42857143,right,-1,0.55,0.45,20,-0.000261141,0.171,343,0,343,0,1,,,,,
,,hahahahahah,001,2023-07-07_13h39.33.517,arm3_ET_builderv2,2022.2.5,MacIntel,71.42857143,right,-1,0.55,0.45,20,-0.008880099,0.186,344,0,344,0,1,,,,,
,,hahahahahah,001,2023-07-07_13h39.33.517,arm3_ET_builderv2,2022.2.5,MacIntel,71.42857143,right,-1,0.55,0.45,20,-0.012872141,0.186,345,0,345,0,1,,,,,
,,hahahahahah,001,2023-07-07_13h39.33.517,arm3_ET_builderv2,2022.2.5,MacIntel,71.42857143,right,-1,0.55,0.45,20,-0.007903267,0.172,346,0,346,0,1,,,,,
,,hahahahahah,001,2023-07-07_13h39.33.517,arm3_ET_builderv2,2022.2.5,MacIntel,71.42857143,right,-1,0.55,0.45,20,-0.023795637,0.199,347,0,347,0,1,,,,,
,,hahahahahah,001,2023-07-07_13h39.33.517,arm3_ET_builderv2,2022.2.5,MacIntel,71.42857143,right,-1,0.55,0.45,20,-0.021495036,0.37,348,0,348,0,1,,,,,
,,hahahahahah,001,2023-07-07_13h39.33.517,arm3_ET_builderv2,2022.2.5,MacIntel,71.42857143,right,-1,0.55,0.45,20,-0.016719004,0.315,349,0,349,0,1,,,,,
,,hahahahahah,001,2023-07-07_13h39.33.517,arm3_ET_builderv2,2022.2.5,MacIntel,71.42857143,down,1,0.55,0.45,21,0,0.622,350,0,350,0,1,,,,,
,,hahahahahah,001,2023-07-07_13h39.33.517,arm3_ET_builderv2,2022.2.5,MacIntel,71.42857143,right,1,0.55,0.45,21,-0.001308238,0.289,351,0,351,0,1,,,,,
,,hahahahahah,001,2023-07-07_13h39.33.517,arm3_ET_builderv2,2022.2.5,MacIntel,71.42857143,right,1,0.55,0.45,21,0.028582734,0.186,352,0,352,0,1,,,,,
,,hahahahahah,001,2023-07-07_13h39.33.517,arm3_ET_builderv2,2022.2.5,MacIntel,71.42857143,right,1,0.55,0.45,21,0.032343915,0.182,353,0,353,0,1,,,,,
,,hahahahahah,001,2023-07-07_13h39.33.517,arm3_ET_builderv2,2022.2.5,MacIntel,71.42857143,right,1,0.55,0.45,21,0.049924888,0.182,354,0,354,0,1,,,,,
,,hahahahahah,001,2023-07-07_13h39.33.517,arm3_ET_builderv2,2022.2.5,MacIntel,71.42857143,right,1,0.55,0.45,21,0.040926382,0.168,355,0,355,0,1,,,,,
,,hahahahahah,001,2023-07-07_13h39.33.517,arm3_ET_builderv2,2022.2.5,MacIntel,71.42857143,right,1,0.55,0.45,21,0.047536033,0.15,356,0,356,0,1,,,,,
,,hahahahahah,001,2023-07-07_13h39.33.517,arm3_ET_builderv2,2022.2.5,MacIntel,71.42857143,right,1,0.55,0.45,21,0.059027573,0.189,357,0,357,0,1,,,,,
,,hahahahahah,001,2023-07-07_13h39.33.517,arm3_ET_builderv2,2022.2.5,MacIntel,71.42857143,right,1,0.55,0.45,21,0.051421136,0.164,358,0,358,0,1,,,,,
,,hahahahahah,001,2023-07-07_13h39.33.517,arm3_ET_builderv2,2022.2.5,MacIntel,71.42857143,right,1,0.55,0.45,21,0.071487389,0.183,359,0,359,0,1,,,,,
,,hahahahahah,001,2023-07-07_13h39.33.517,arm3_ET_builderv2,2022.2.5,MacIntel,71.42857143,right,1,0.55,0.45,21,0.094218613,0.183,360,0,360,0,1,,,,,
,,hahahahahah,001,2023-07-07_13h39.33.517,arm3_ET_builderv2,2022.2.5,MacIntel,71.42857143,right,1,0.55,0.45,21,0.097955039,0.199,361,0,361,0,1,,,,,
,,hahahahahah,001,2023-07-07_13h39.33.517,arm3_ET_builderv2,2022.2.5,MacIntel,71.42857143,up,-1,0.55,0.45,21,0,0.332,362,0,362,0,1,,,,,
,,hahahahahah,001,2023-07-07_13h39.33.517,arm3_ET_builderv2,2022.2.5,MacIntel,71.42857143,right,-1,0.55,0.45,21,-0.001187372,0.314,363,0,363,0,1,,,,,
,,hahahahahah,001,2023-07-07_13h39.33.517,arm3_ET_builderv2,2022.2.5,MacIntel,71.42857143,right,-1,0.55,0.45,21,-0.013294026,0.181,364,0,364,0,1,,,,,
,,hahahahahah,001,2023-07-07_13h39.33.517,arm3_ET_builderv2,2022.2.5,MacIntel,71.42857143,right,-1,0.55,0.45,21,-0.013937709,0.165,365,0,365,0,1,,,,,
,,hahahahahah,001,2023-07-07_13h39.33.517,arm3_ET_builderv2,2022.2.5,MacIntel,71.42857143,right,-1,0.55,0.45,21,-0.00186343,0.189,366,0,366,0,1,,,,,
,,hahahahahah,001,2023-07-07_13h39.33.517,arm3_ET_builderv2,2022.2.5,MacIntel,71.42857143,right,-1,0.55,0.45,21,-0.009136431,0.181,367,0,367,0,1,,,,,
,,hahahahahah,001,2023-07-07_13h39.33.517,arm3_ET_builderv2,2022.2.5,MacIntel,71.42857143,right,-1,0.55,0.45,21,-0.010576524,0.198,368,0,368,0,1,,,,,
,,hahahahahah,001,2023-07-07_13h39.33.517,arm3_ET_builderv2,2022.2.5,MacIntel,71.42857143,right,-1,0.55,0.45,21,-0.035113739,0.155,369,0,369,0,1,,,,,
,,hahahahahah,001,2023-07-07_13h39.33.517,arm3_ET_builderv2,2022.2.5,MacIntel,71.42857143,right,-1,0.55,0.45,21,-0.038010587,0.191,370,0,370,0,1,,,,,
,,hahahahahah,001,2023-07-07_13h39.33.517,arm3_ET_builderv2,2022.2.5,MacIntel,71.42857143,right,-1,0.55,0.45,21,-0.057595541,0.183,371,0,371,0,1,,,,,
,,hahahahahah,001,2023-07-07_13h39.33.517,arm3_ET_builderv2,2022.2.5,MacIntel,71.42857143,right,-1,0.55,0.45,21,-0.087689773,0.149,372,0,372,0,1,,,,,
,,hahahahahah,001,2023-07-07_13h39.33.517,arm3_ET_builderv2,2022.2.5,MacIntel,71.42857143,down,-1,0.55,0.45,21,0,0.316,373,0,373,0,1,,,,,
,,hahahahahah,001,2023-07-07_13h39.33.517,arm3_ET_builderv2,2022.2.5,MacIntel,71.42857143,right,-1,0.55,0.45,21,-0.00581239,0.217,374,0,374,0,1,,,,,
,,hahahahahah,001,2023-07-07_13h39.33.517,arm3_ET_builderv2,2022.2.5,MacIntel,71.42857143,right,-1,0.55,0.45,21,-0.039140787,0.164,375,0,375,0,1,,,,,
,,hahahahahah,001,2023-07-07_13h39.33.517,arm3_ET_builderv2,2022.2.5,MacIntel,71.42857143,right,-1,0.55,0.45,21,-0.044819406,0.165,376,0,376,0,1,,,,,
,,hahahahahah,001,2023-07-07_13h39.33.517,arm3_ET_builderv2,2022.2.5,MacIntel,71.42857143,right,-1,0.55,0.45,21,-0.064838007,0.184,377,0,377,0,1,,,,,
,,hahahahahah,001,2023-07-07_13h39.33.517,arm3_ET_builderv2,2022.2.5,MacIntel,71.42857143,right,-1,0.55,0.45,21,-0.066137617,0.182,378,0,378,0,1,,,,,
,,hahahahahah,001,2023-07-07_13h39.33.517,arm3_ET_builderv2,2022.2.5,MacIntel,71.42857143,down,-1,0.55,0.45,21,0,0.314,379,0,379,0,1,,,,,
,,hahahahahah,001,2023-07-07_13h39.33.517,arm3_ET_builderv2,2022.2.5,MacIntel,71.42857143,right,-1,0.55,0.45,21,0.024766691,0.233,380,0,380,0,1,,,,,
,,hahahahahah,001,2023-07-07_13h39.33.517,arm3_ET_builderv2,2022.2.5,MacIntel,71.42857143,right,-1,0.55,0.45,21,0.004675512,0.189,381,0,381,0,1,,,,,
,,hahahahahah,001,2023-07-07_13h39.33.517,arm3_ET_builderv2,2022.2.5,MacIntel,71.42857143,right,-1,0.55,0.45,21,0.006828171,0.168,382,0,382,0,1,,,,,
,,hahahahahah,001,2023-07-07_13h39.33.517,arm3_ET_builderv2,2022.2.5,MacIntel,71.42857143,right,-1,0.55,0.45,21,-0.034072715,0.184,383,0,383,0,1,,,,,
,,hahahahahah,001,2023-07-07_13h39.33.517,arm3_ET_builderv2,2022.2.5,MacIntel,71.42857143,right,-1,0.55,0.45,21,-0.052758351,0.174,384,0,384,0,1,,,,,
,,hahahahahah,001,2023-07-07_13h39.33.517,arm3_ET_builderv2,2022.2.5,MacIntel,71.42857143,,,,,,,,,,,,,0,0,0,0,1
,,hahahahahah,001,2023-07-07_13h39.33.517,arm3_ET_builderv2,2022.2.5,MacIntel,71.42857143,right,-1,0.55,0.05,21,0.021927882,0.175,0,0,0,0,1,,,,,
,,hahahahahah,001,2023-07-07_13h39.33.517,arm3_ET_builderv2,2022.2.5,MacIntel,71.42857143,right,-1,0.55,0.05,21,0.028785575,0.849,1,0,1,0,1,,,,,
,,hahahahahah,001,2023-07-07_13h39.33.517,arm3_ET_builderv2,2022.2.5,MacIntel,71.42857143,right,-1,0.55,0.05,21,0.019029619,0.182,2,0,2,0,1,,,,,
,,hahahahahah,001,2023-07-07_13h39.33.517,arm3_ET_builderv2,2022.2.5,MacIntel,71.42857143,right,-1,0.55,0.05,21,0.013762012,0.156,3,0,3,0,1,,,,,
,,hahahahahah,001,2023-07-07_13h39.33.517,arm3_ET_builderv2,2022.2.5,MacIntel,71.42857143,right,-1,0.55,0.05,21,0.001554118,0.187,4,0,4,0,1,,,,,
,,hahahahahah,001,2023-07-07_13h39.33.517,arm3_ET_builderv2,2022.2.5,MacIntel,71.42857143,right,-1,0.55,0.05,21,0.008014792,0.2,5,0,5,0,1,,,,,
,,hahahahahah,001,2023-07-07_13h39.33.517,arm3_ET_builderv2,2022.2.5,MacIntel,71.42857143,right,-1,0.55,0.05,21,0.021299795,0.182,6,0,6,0,1,,,,,
,,hahahahahah,001,2023-07-07_13h39.33.517,arm3_ET_builderv2,2022.2.5,MacIntel,71.42857143,right,-1,0.55,0.05,21,0.034337184,0.15,7,0,7,0,1,,,,,
,,hahahahahah,001,2023-07-07_13h39.33.517,arm3_ET_builderv2,2022.2.5,MacIntel,71.42857143,down,-1,0.55,0.05,22,0,0.725,8,0,8,0,1,,,,,
,,hahahahahah,001,2023-07-07_13h39.33.517,arm3_ET_builderv2,2022.2.5,MacIntel,71.42857143,right,-1,0.55,0.05,22,0.019377872,0.237,9,0,9,0,1,,,,,
,,hahahahahah,001,2023-07-07_13h39.33.517,arm3_ET_builderv2,2022.2.5,MacIntel,71.42857143,right,-1,0.55,0.05,22,0.00495667,0.183,10,0,10,0,1,,,,,
,,hahahahahah,001,2023-07-07_13h39.33.517,arm3_ET_builderv2,2022.2.5,MacIntel,71.42857143,right,-1,0.55,0.05,22,-0.009831931,0.173,11,0,11,0,1,,,,,
,,hahahahahah,001,2023-07-07_13h39.33.517,arm3_ET_builderv2,2022.2.5,MacIntel,71.42857143,right,-1,0.55,0.05,22,-0.031073529,0.182,12,0,12,0,1,,,,,
,,hahahahahah,001,2023-07-07_13h39.33.517,arm3_ET_builderv2,2022.2.5,MacIntel,71.42857143,right,-1,0.55,0.05,22,-0.046984583,0.165,13,0,13,0,1,,,,,
,,hahahahahah,001,2023-07-07_13h39.33.517,arm3_ET_builderv2,2022.2.5,MacIntel,71.42857143,right,-1,0.55,0.05,22,-0.040358933,0.168,14,0,14,0,1,,,,,
,,hahahahahah,001,2023-07-07_13h39.33.517,arm3_ET_builderv2,2022.2.5,MacIntel,71.42857143,right,-1,0.55,0.05,22,-0.038668124,0.168,15,0,15,0,1,,,,,
,,hahahahahah,001,2023-07-07_13h39.33.517,arm3_ET_builderv2,2022.2.5,MacIntel,71.42857143,right,-1,0.55,0.05,22,0.010356805,0.165,16,0,16,0,1,,,,,
,,hahahahahah,001,2023-07-07_13h39.33.517,arm3_ET_builderv2,2022.2.5,MacIntel,71.42857143,right,-1,0.55,0.05,22,-0.013671987,0.154,17,0,17,0,1,,,,,
,,hahahahahah,001,2023-07-07_13h39.33.517,arm3_ET_builderv2,2022.2.5,MacIntel,71.42857143,right,-1,0.55,0.05,22,-0.004742665,0.182,18,0,18,0,1,,,,,
,,hahahahahah,001,2023-07-07_13h39.33.517,arm3_ET_builderv2,2022.2.5,MacIntel,71.42857143,right,-1,0.55,0.05,22,-0.034187259,0.189,19,0,19,0,1,,,,,
,,hahahahahah,001,2023-07-07_13h39.33.517,arm3_ET_builderv2,2022.2.5,MacIntel,71.42857143,down,-1,0.55,0.05,22,0,0.473,20,0,20,0,1,,,,,
,,hahahahahah,001,2023-07-07_13h39.33.517,arm3_ET_builderv2,2022.2.5,MacIntel,71.42857143,right,-1,0.55,0.05,22,-0.013919875,0.233,21,0,21,0,1,,,,,
,,hahahahahah,001,2023-07-07_13h39.33.517,arm3_ET_builderv2,2022.2.5,MacIntel,71.42857143,right,-1,0.55,0.05,22,-0.027513535,0.173,22,0,22,0,1,,,,,
,,hahahahahah,001,2023-07-07_13h39.33.517,arm3_ET_builderv2,2022.2.5,MacIntel,71.42857143,right,-1,0.55,0.05,22,-0.01573235,0.224,23,0,23,0,1,,,,,
,,hahahahahah,001,2023-07-07_13h39.33.517,arm3_ET_builderv2,2022.2.5,MacIntel,71.42857143,right,-1,0.55,0.05,22,-0.001962413,0.165,24,0,24,0,1,,,,,
,,hahahahahah,001,2023-07-07_13h39.33.517,arm3_ET_builderv2,2022.2.5,MacIntel,71.42857143,right,-1,0.55,0.05,22,-0.031461953,0.17,25,0,25,0,1,,,,,
,,hahahahahah,001,2023-07-07_13h39.33.517,arm3_ET_builderv2,2022.2.5,MacIntel,71.42857143,right,-1,0.55,0.05,22,-0.03735482,0.199,26,0,26,0,1,,,,,
,,hahahahahah,001,2023-07-07_13h39.33.517,arm3_ET_builderv2,2022.2.5,MacIntel,71.42857143,right,-1,0.55,0.05,22,-0.007458548,0.166,27,0,27,0,1,,,,,
,,hahahahahah,001,2023-07-07_13h39.33.517,arm3_ET_builderv2,2022.2.5,MacIntel,71.42857143,right,-1,0.55,0.05,22,-0.027620804,0.167,28,0,28,0,1,,,,,
,,hahahahahah,001,2023-07-07_13h39.33.517,arm3_ET_builderv2,2022.2.5,MacIntel,71.42857143,right,-1,0.55,0.05,22,-0.04439841,0.181,29,0,29,0,1,,,,,
,,hahahahahah,001,2023-07-07_13h39.33.517,arm3_ET_builderv2,2022.2.5,MacIntel,71.42857143,right,-1,0.55,0.05,22,-0.072849045,0.175,30,0,30,0,1,,,,,
,,hahahahahah,001,2023-07-07_13h39.33.517,arm3_ET_builderv2,2022.2.5,MacIntel,71.42857143,right,-1,0.55,0.05,22,-0.086188742,0.182,31,0,31,0,1,,,,,
,,hahahahahah,001,2023-07-07_13h39.33.517,arm3_ET_builderv2,2022.2.5,MacIntel,71.42857143,down,-1,0.55,0.05,23,0,0.251,32,0,32,0,1,,,,,
,,hahahahahah,001,2023-07-07_13h39.33.517,arm3_ET_builderv2,2022.2.5,MacIntel,71.42857143,right,-1,0.55,0.05,23,-0.034096614,0.267,33,0,33,0,1,,,,,
,,hahahahahah,001,2023-07-07_13h39.33.517,arm3_ET_builderv2,2022.2.5,MacIntel,71.42857143,right,-1,0.55,0.05,23,-0.025689759,0.181,34,0,34,0,1,,,,,
,,hahahahahah,001,2023-07-07_13h39.33.517,arm3_ET_builderv2,2022.2.5,MacIntel,71.42857143,right,-1,0.55,0.05,23,-0.033502438,0.199,35,0,35,0,1,,,,,
,,hahahahahah,001,2023-07-07_13h39.33.517,arm3_ET_builderv2,2022.2.5,MacIntel,71.42857143,right,-1,0.55,0.05,23,-0.038991181,0.198,36,0,36,0,1,,,,,
,,hahahahahah,001,2023-07-07_13h39.33.517,arm3_ET_builderv2,2022.2.5,MacIntel,71.42857143,right,-1,0.55,0.05,23,-0.053962508,0.164,37,0,37,0,1,,,,,
,,hahahahahah,001,2023-07-07_13h39.33.517,arm3_ET_builderv2,2022.2.5,MacIntel,71.42857143,right,-1,0.55,0.05,23,-0.098339285,0.172,38,0,38,0,1,,,,,
,,hahahahahah,001,2023-07-07_13h39.33.517,arm3_ET_builderv2,2022.2.5,MacIntel,71.42857143,right,-1,0.55,0.05,23,-0.08166799,0.174,39,0,39,0,1,,,,,
,,hahahahahah,001,2023-07-07_13h39.33.517,arm3_ET_builderv2,2022.2.5,MacIntel,71.42857143,right,-1,0.55,0.05,23,-0.098620331,0.165,40,0,40,0,1,,,,,
,,hahahahahah,001,2023-07-07_13h39.33.517,arm3_ET_builderv2,2022.2.5,MacIntel,71.42857143,down,-1,0.55,0.05,24,0,0.215,41,0,41,0,1,,,,,
,,hahahahahah,001,2023-07-07_13h39.33.517,arm3_ET_builderv2,2022.2.5,MacIntel,71.42857143,right,-1,0.55,0.05,24,-0.035826745,0.25,42,0,42,0,1,,,,,
,,hahahahahah,001,2023-07-07_13h39.33.517,arm3_ET_builderv2,2022.2.5,MacIntel,71.42857143,right,-1,0.55,0.05,24,-0.077772859,0.17,43,0,43,0,1,,,,,
,,hahahahahah,001,2023-07-07_13h39.33.517,arm3_ET_builderv2,2022.2.5,MacIntel,71.42857143,right,-1,0.55,0.05,24,-0.081119568,0.216,44,0,44,0,1,,,,,
,,hahahahahah,001,2023-07-07_13h39.33.517,arm3_ET_builderv2,2022.2.5,MacIntel,71.42857143,right,-1,0.55,0.05,24,-0.053935174,0.182,45,0,45,0,1,,,,,
,,hahahahahah,001,2023-07-07_13h39.33.517,arm3_ET_builderv2,2022.2.5,MacIntel,71.42857143,right,-1,0.55,0.05,24,-0.068671294,0.166,46,0,46,0,1,,,,,
,,hahahahahah,001,2023-07-07_13h39.33.517,arm3_ET_builderv2,2022.2.5,MacIntel,71.42857143,right,-1,0.55,0.05,24,-0.075701609,0.165,47,0,47,0,1,,,,,
,,hahahahahah,001,2023-07-07_13h39.33.517,arm3_ET_builderv2,2022.2.5,MacIntel,71.42857143,right,-1,0.55,0.05,24,-0.084250085,0.172,48,0,48,0,1,,,,,
,,hahahahahah,001,2023-07-07_13h39.33.517,arm3_ET_builderv2,2022.2.5,MacIntel,71.42857143,right,-1,0.55,0.05,24,-0.096593261,0.174,49,0,49,0,1,,,,,
,,hahahahahah,001,2023-07-07_13h39.33.517,arm3_ET_builderv2,2022.2.5,MacIntel,71.42857143,down,-1,0.55,0.05,24,0,0.298,50,0,50,0,1,,,,,
,,hahahahahah,001,2023-07-07_13h39.33.517,arm3_ET_builderv2,2022.2.5,MacIntel,71.42857143,right,-1,0.55,0.05,24,0.002775147,0.19,51,0,51,0,1,,,,,
,,hahahahahah,001,2023-07-07_13h39.33.517,arm3_ET_builderv2,2022.2.5,MacIntel,71.42857143,right,-1,0.55,0.05,24,0.007703593,0.215,52,0,52,0,1,,,,,
,,hahahahahah,001,2023-07-07_13h39.33.517,arm3_ET_builderv2,2022.2.5,MacIntel,71.42857143,right,-1,0.55,0.05,24,-0.018004806,0.165,53,0,53,0,1,,,,,
,,hahahahahah,001,2023-07-07_13h39.33.517,arm3_ET_builderv2,2022.2.5,MacIntel,71.42857143,right,-1,0.55,0.05,24,-0.02661595,0.199,54,0,54,0,1,,,,,
,,hahahahahah,001,2023-07-07_13h39.33.517,arm3_ET_builderv2,2022.2.5,MacIntel,71.42857143,right,-1,0.55,0.05,24,-0.036792607,0.173,55,0,55,0,1,,,,,
,,hahahahahah,001,2023-07-07_13h39.33.517,arm3_ET_builderv2,2022.2.5,MacIntel,71.42857143,right,-1,0.55,0.05,24,-0.071042571,0.183,56,0,56,0,1,,,,,
,,hahahahahah,001,2023-07-07_13h39.33.517,arm3_ET_builderv2,2022.2.5,MacIntel,71.42857143,right,-1,0.55,0.05,24,-0.072558939,0.166,57,0,57,0,1,,,,,
,,hahahahahah,001,2023-07-07_13h39.33.517,arm3_ET_builderv2,2022.2.5,MacIntel,71.42857143,right,-1,0.55,0.05,24,-0.060968847,0.166,58,0,58,0,1,,,,,
,,hahahahahah,001,2023-07-07_13h39.33.517,arm3_ET_builderv2,2022.2.5,MacIntel,71.42857143,down,-1,0.55,0.05,24,0,0.398,59,0,59,0,1,,,,,
,,hahahahahah,001,2023-07-07_13h39.33.517,arm3_ET_builderv2,2022.2.5,MacIntel,71.42857143,right,-1,0.55,0.05,24,-0.032426506,0.217,60,0,60,0,1,,,,,
,,hahahahahah,001,2023-07-07_13h39.33.517,arm3_ET_builderv2,2022.2.5,MacIntel,71.42857143,right,-1,0.55,0.05,24,-0.053523123,0.198,61,0,61,0,1,,,,,
,,hahahahahah,001,2023-07-07_13h39.33.517,arm3_ET_builderv2,2022.2.5,MacIntel,71.42857143,right,-1,0.55,0.05,24,-0.056896863,0.164,62,0,62,0,1,,,,,
,,hahahahahah,001,2023-07-07_13h39.33.517,arm3_ET_builderv2,2022.2.5,MacIntel,71.42857143,right,-1,0.55,0.05,24,-0.050616637,0.153,63,0,63,0,1,,,,,
,,hahahahahah,001,2023-07-07_13h39.33.517,arm3_ET_builderv2,2022.2.5,MacIntel,71.42857143,right,-1,0.55,0.05,24,-0.065328416,0.168,64,0,64,0,1,,,,,
,,hahahahahah,001,2023-07-07_13h39.33.517,arm3_ET_builderv2,2022.2.5,MacIntel,71.42857143,right,-1,0.55,0.05,24,-0.062205405,0.173,65,0,65,0,1,,,,,
,,hahahahahah,001,2023-07-07_13h39.33.517,arm3_ET_builderv2,2022.2.5,MacIntel,71.42857143,right,-1,0.55,0.05,24,-0.060254022,0.151,66,0,66,0,1,,,,,
,,hahahahahah,001,2023-07-07_13h39.33.517,arm3_ET_builderv2,2022.2.5,MacIntel,71.42857143,down,-1,0.55,0.05,24,0,0.498,67,0,67,0,1,,,,,
,,hahahahahah,001,2023-07-07_13h39.33.517,arm3_ET_builderv2,2022.2.5,MacIntel,71.42857143,right,-1,0.55,0.05,24,0.013436707,0.208,68,0,68,0,1,,,,,
,,hahahahahah,001,2023-07-07_13h39.33.517,arm3_ET_builderv2,2022.2.5,MacIntel,71.42857143,right,-1,0.55,0.05,24,0.019192347,0.19,69,0,69,0,1,,,,,
,,hahahahahah,001,2023-07-07_13h39.33.517,arm3_ET_builderv2,2022.2.5,MacIntel,71.42857143,right,-1,0.55,0.05,24,0.00912537,0.156,70,0,70,0,1,,,,,
,,hahahahahah,001,2023-07-07_13h39.33.517,arm3_ET_builderv2,2022.2.5,MacIntel,71.42857143,right,-1,0.55,0.05,24,0.021302817,0.199,71,0,71,0,1,,,,,
,,hahahahahah,001,2023-07-07_13h39.33.517,arm3_ET_builderv2,2022.2.5,MacIntel,71.42857143,right,-1,0.55,0.05,24,0.009923246,0.19,72,0,72,0,1,,,,,
,,hahahahahah,001,2023-07-07_13h39.33.517,arm3_ET_builderv2,2022.2.5,MacIntel,71.42857143,right,-1,0.55,0.05,24,0.025184948,0.165,73,0,73,0,1,,,,,
,,hahahahahah,001,2023-07-07_13h39.33.517,arm3_ET_builderv2,2022.2.5,MacIntel,71.42857143,right,-1,0.55,0.05,24,0.007433511,0.202,74,0,74,0,1,,,,,
,,hahahahahah,001,2023-07-07_13h39.33.517,arm3_ET_builderv2,2022.2.5,MacIntel,71.42857143,right,-1,0.55,0.05,24,0.005593412,0.166,75,0,75,0,1,,,,,
,,hahahahahah,001,2023-07-07_13h39.33.517,arm3_ET_builderv2,2022.2.5,MacIntel,71.42857143,right,-1,0.55,0.05,24,-0.015670592,0.182,76,0,76,0,1,,,,,
,,hahahahahah,001,2023-07-07_13h39.33.517,arm3_ET_builderv2,2022.2.5,MacIntel,71.42857143,right,-1,0.55,0.05,24,-0.043441796,0.198,77,0,77,0,1,,,,,
,,hahahahahah,001,2023-07-07_13h39.33.517,arm3_ET_builderv2,2022.2.5,MacIntel,71.42857143,right,-1,0.55,0.05,24,-0.040595887,0.199,78,0,78,0,1,,,,,
,,hahahahahah,001,2023-07-07_13h39.33.517,arm3_ET_builderv2,2022.2.5,MacIntel,71.42857143,right,-1,0.55,0.05,24,-0.048451476,0.253,79,0,79,0,1,,,,,
,,hahahahahah,001,2023-07-07_13h39.33.517,arm3_ET_builderv2,2022.2.5,MacIntel,71.42857143,down,-1,0.55,0.05,25,0,0.832,80,0,80,0,1,,,,,
,,hahahahahah,001,2023-07-07_13h39.33.517,arm3_ET_builderv2,2022.2.5,MacIntel,71.42857143,right,-1,0.55,0.05,25,-0.015774893,0.248,81,0,81,0,1,,,,,
,,hahahahahah,001,2023-07-07_13h39.33.517,arm3_ET_builderv2,2022.2.5,MacIntel,71.42857143,right,-1,0.55,0.05,25,-0.003539208,0.167,82,0,82,0,1,,,,,
,,hahahahahah,001,2023-07-07_13h39.33.517,arm3_ET_builderv2,2022.2.5,MacIntel,71.42857143,right,-1,0.55,0.05,25,-0.014994058,0.233,83,0,83,0,1,,,,,
,,hahahahahah,001,2023-07-07_13h39.33.517,arm3_ET_builderv2,2022.2.5,MacIntel,71.42857143,right,-1,0.55,0.05,25,-0.0472217,0.165,84,0,84,0,1,,,,,
,,hahahahahah,001,2023-07-07_13h39.33.517,arm3_ET_builderv2,2022.2.5,MacIntel,71.42857143,right,-1,0.55,0.05,25,-0.0857866,0.181,85,0,85,0,1,,,,,
,,hahahahahah,001,2023-07-07_13h39.33.517,arm3_ET_builderv2,2022.2.5,MacIntel,71.42857143,right,-1,0.55,0.05,25,-0.116404606,0.149,86,0,86,0,1,,,,,
,,hahahahahah,001,2023-07-07_13h39.33.517,arm3_ET_builderv2,2022.2.5,MacIntel,71.42857143,down,-1,0.55,0.05,25,0,0.234,87,0,87,0,1,,,,,
,,hahahahahah,001,2023-07-07_13h39.33.517,arm3_ET_builderv2,2022.2.5,MacIntel,71.42857143,right,-1,0.55,0.05,25,-0.029075653,0.256,88,0,88,0,1,,,,,
,,hahahahahah,001,2023-07-07_13h39.33.517,arm3_ET_builderv2,2022.2.5,MacIntel,71.42857143,right,-1,0.55,0.05,25,-0.038717366,0.19,89,0,89,0,1,,,,,
,,hahahahahah,001,2023-07-07_13h39.33.517,arm3_ET_builderv2,2022.2.5,MacIntel,71.42857143,right,-1,0.55,0.05,25,-0.03352421,0.182,90,0,90,0,1,,,,,
,,hahahahahah,001,2023-07-07_13h39.33.517,arm3_ET_builderv2,2022.2.5,MacIntel,71.42857143,right,-1,0.55,0.05,25,-0.041184632,0.165,91,0,91,0,1,,,,,
,,hahahahahah,001,2023-07-07_13h39.33.517,arm3_ET_builderv2,2022.2.5,MacIntel,71.42857143,right,-1,0.55,0.05,25,-0.040230583,0.171,92,0,92,0,1,,,,,
,,hahahahahah,001,2023-07-07_13h39.33.517,arm3_ET_builderv2,2022.2.5,MacIntel,71.42857143,right,-1,0.55,0.05,25,-0.049574354,0.173,93,0,93,0,1,,,,,
,,hahahahahah,001,2023-07-07_13h39.33.517,arm3_ET_builderv2,2022.2.5,MacIntel,71.42857143,right,-1,0.55,0.05,25,-0.058762183,0.182,94,0,94,0,1,,,,,
,,hahahahahah,001,2023-07-07_13h39.33.517,arm3_ET_builderv2,2022.2.5,MacIntel,71.42857143,right,-1,0.55,0.05,25,-0.048335261,0.149,95,0,95,0,1,,,,,
,,hahahahahah,001,2023-07-07_13h39.33.517,arm3_ET_builderv2,2022.2.5,MacIntel,71.42857143,down,-1,0.55,0.05,25,0,0.272,96,0,96,0,1,,,,,
,,hahahahahah,001,2023-07-07_13h39.33.517,arm3_ET_builderv2,2022.2.5,MacIntel,71.42857143,right,-1,0.55,0.05,25,-0.019001112,0.257,97,0,97,0,1,,,,,
,,hahahahahah,001,2023-07-07_13h39.33.517,arm3_ET_builderv2,2022.2.5,MacIntel,71.42857143,right,-1,0.55,0.05,25,-0.047862581,0.186,98,0,98,0,1,,,,,
,,hahahahahah,001,2023-07-07_13h39.33.517,arm3_ET_builderv2,2022.2.5,MacIntel,71.42857143,right,-1,0.55,0.05,25,-0.076104468,0.184,99,0,99,0,1,,,,,
,,hahahahahah,001,2023-07-07_13h39.33.517,arm3_ET_builderv2,2022.2.5,MacIntel,71.42857143,right,-1,0.55,0.05,25,-0.065069734,0.148,100,0,100,0,1,,,,,
,,hahahahahah,001,2023-07-07_13h39.33.517,arm3_ET_builderv2,2022.2.5,MacIntel,71.42857143,right,-1,0.55,0.05,25,-0.092204938,0.164,101,0,101,0,1,,,,,
,,hahahahahah,001,2023-07-07_13h39.33.517,arm3_ET_builderv2,2022.2.5,MacIntel,71.42857143,right,-1,0.55,0.05,25,-0.123700143,0.182,102,0,102,0,1,,,,,
,,hahahahahah,001,2023-07-07_13h39.33.517,arm3_ET_builderv2,2022.2.5,MacIntel,71.42857143,right,-1,0.55,0.05,25,-0.13519396,0.145,103,0,103,0,1,,,,,
,,hahahahahah,001,2023-07-07_13h39.33.517,arm3_ET_builderv2,2022.2.5,MacIntel,71.42857143,down,-1,0.55,0.05,25,0,0.266,104,0,104,0,1,,,,,
,,hahahahahah,001,2023-07-07_13h39.33.517,arm3_ET_builderv2,2022.2.5,MacIntel,71.42857143,right,-1,0.55,0.05,25,0.01496504,0.267,105,0,105,0,1,,,,,
,,hahahahahah,001,2023-07-07_13h39.33.517,arm3_ET_builderv2,2022.2.5,MacIntel,71.42857143,right,-1,0.55,0.05,25,0.004396219,0.183,106,0,106,0,1,,,,,
,,hahahahahah,001,2023-07-07_13h39.33.517,arm3_ET_builderv2,2022.2.5,MacIntel,71.42857143,right,-1,0.55,0.05,25,0.011048341,0.206,107,0,107,0,1,,,,,
,,hahahahahah,001,2023-07-07_13h39.33.517,arm3_ET_builderv2,2022.2.5,MacIntel,71.42857143,right,-1,0.55,0.05,25,0.02115167,0.191,108,0,108,0,1,,,,,
,,hahahahahah,001,2023-07-07_13h39.33.517,arm3_ET_builderv2,2022.2.5,MacIntel,71.42857143,right,-1,0.55,0.05,25,0.028502943,0.215,109,0,109,0,1,,,,,
,,hahahahahah,001,2023-07-07_13h39.33.517,arm3_ET_builderv2,2022.2.5,MacIntel,71.42857143,right,-1,0.55,0.05,25,0.036091641,0.157,110,0,110,0,1,,,,,
,,hahahahahah,001,2023-07-07_13h39.33.517,arm3_ET_builderv2,2022.2.5,MacIntel,71.42857143,right,-1,0.55,0.05,25,0.02179532,0.199,111,0,111,0,1,,,,,
,,hahahahahah,001,2023-07-07_13h39.33.517,arm3_ET_builderv2,2022.2.5,MacIntel,71.42857143,right,-1,0.55,0.05,25,0.034414973,0.166,112,0,112,0,1,,,,,
,,hahahahahah,001,2023-07-07_13h39.33.517,arm3_ET_builderv2,2022.2.5,MacIntel,71.42857143,right,-1,0.55,0.05,25,-0.004195581,0.199,113,0,113,0,1,,,,,
,,hahahahahah,001,2023-07-07_13h39.33.517,arm3_ET_builderv2,2022.2.5,MacIntel,71.42857143,right,-1,0.55,0.05,25,-0.03107177,0.2,114,0,114,0,1,,,,,
,,hahahahahah,001,2023-07-07_13h39.33.517,arm3_ET_builderv2,2022.2.5,MacIntel,71.42857143,right,-1,0.55,0.05,25,-0.057198252,0.341,115,0,115,0,1,,,,,
,,hahahahahah,001,2023-07-07_13h39.33.517,arm3_ET_builderv2,2022.2.5,MacIntel,71.42857143,right,-1,0.55,0.05,25,-0.051921953,0.449,116,0,116,0,1,,,,,
,,hahahahahah,001,2023-07-07_13h39.33.517,arm3_ET_builderv2,2022.2.5,MacIntel,71.42857143,down,-1,0.55,0.05,25,0,0.767,117,0,117,0,1,,,,,
,,hahahahahah,001,2023-07-07_13h39.33.517,arm3_ET_builderv2,2022.2.5,MacIntel,71.42857143,right,-1,0.55,0.05,25,-0.035472718,0.201,118,0,118,0,1,,,,,
,,hahahahahah,001,2023-07-07_13h39.33.517,arm3_ET_builderv2,2022.2.5,MacIntel,71.42857143,right,-1,0.55,0.05,25,-0.021435061,0.181,119,0,119,0,1,,,,,
,,hahahahahah,001,2023-07-07_13h39.33.517,arm3_ET_builderv2,2022.2.5,MacIntel,71.42857143,right,-1,0.55,0.05,25,-0.02328775,0.165,120,0,120,0,1,,,,,
,,hahahahahah,001,2023-07-07_13h39.33.517,arm3_ET_builderv2,2022.2.5,MacIntel,71.42857143,right,-1,0.55,0.05,25,-0.011467759,0.167,121,0,121,0,1,,,,,
,,hahahahahah,001,2023-07-07_13h39.33.517,arm3_ET_builderv2,2022.2.5,MacIntel,71.42857143,right,-1,0.55,0.05,25,-0.015907723,0.152,122,0,122,0,1,,,,,
,,hahahahahah,001,2023-07-07_13h39.33.517,arm3_ET_builderv2,2022.2.5,MacIntel,71.42857143,right,-1,0.55,0.05,25,-0.019980607,0.175,123,0,123,0,1,,,,,
,,hahahahahah,001,2023-07-07_13h39.33.517,arm3_ET_builderv2,2022.2.5,MacIntel,71.42857143,right,-1,0.55,0.05,25,-0.021852719,0.191,124,0,124,0,1,,,,,
,,hahahahahah,001,2023-07-07_13h39.33.517,arm3_ET_builderv2,2022.2.5,MacIntel,71.42857143,right,-1,0.55,0.05,25,-0.038306063,0.166,125,0,125,0,1,,,,,
,,hahahahahah,001,2023-07-07_13h39.33.517,arm3_ET_builderv2,2022.2.5,MacIntel,71.42857143,right,-1,0.55,0.05,25,-0.03225145,0.165,126,0,126,0,1,,,,,
,,hahahahahah,001,2023-07-07_13h39.33.517,arm3_ET_builderv2,2022.2.5,MacIntel,71.42857143,right,-1,0.55,0.05,25,-0.045050587,0.834,127,0,127,0,1,,,,,
,,hahahahahah,001,2023-07-07_13h39.33.517,arm3_ET_builderv2,2022.2.5,MacIntel,71.42857143,down,-1,0.55,0.05,26,0,0.281,128,0,128,0,1,,,,,
,,hahahahahah,001,2023-07-07_13h39.33.517,arm3_ET_builderv2,2022.2.5,MacIntel,71.42857143,right,-1,0.55,0.05,26,0.006922433,0.314,129,0,129,0,1,,,,,
,,hahahahahah,001,2023-07-07_13h39.33.517,arm3_ET_builderv2,2022.2.5,MacIntel,71.42857143,right,-1,0.55,0.05,26,0.023162465,0.156,130,0,130,0,1,,,,,
,,hahahahahah,001,2023-07-07_13h39.33.517,arm3_ET_builderv2,2022.2.5,MacIntel,71.42857143,right,-1,0.55,0.05,26,0.015480092,0.185,131,0,131,0,1,,,,,
,,hahahahahah,001,2023-07-07_13h39.33.517,arm3_ET_builderv2,2022.2.5,MacIntel,71.42857143,right,-1,0.55,0.05,26,0.036821127,0.167,132,0,132,0,1,,,,,
,,hahahahahah,001,2023-07-07_13h39.33.517,arm3_ET_builderv2,2022.2.5,MacIntel,71.42857143,right,-1,0.55,0.05,26,0.02362818,0.169,133,0,133,0,1,,,,,
,,hahahahahah,001,2023-07-07_13h39.33.517,arm3_ET_builderv2,2022.2.5,MacIntel,71.42857143,right,-1,0.55,0.05,26,0.017298883,0.168,134,0,134,0,1,,,,,
,,hahahahahah,001,2023-07-07_13h39.33.517,arm3_ET_builderv2,2022.2.5,MacIntel,71.42857143,right,-1,0.55,0.05,26,-0.009546783,0.167,135,0,135,0,1,,,,,
,,hahahahahah,001,2023-07-07_13h39.33.517,arm3_ET_builderv2,2022.2.5,MacIntel,71.42857143,right,-1,0.55,0.05,26,-0.030213227,0.183,136,0,136,0,1,,,,,
,,hahahahahah,001,2023-07-07_13h39.33.517,arm3_ET_builderv2,2022.2.5,MacIntel,71.42857143,right,-1,0.55,0.05,26,-0.022502087,0.207,137,0,137,0,1,,,,,
,,hahahahahah,001,2023-07-07_13h39.33.517,arm3_ET_builderv2,2022.2.5,MacIntel,71.42857143,right,-1,0.55,0.05,26,-0.013918265,0.169,138,0,138,0,1,,,,,
,,hahahahahah,001,2023-07-07_13h39.33.517,arm3_ET_builderv2,2022.2.5,MacIntel,71.42857143,right,-1,0.55,0.05,26,-0.044000311,0.198,139,0,139,0,1,,,,,
,,hahahahahah,001,2023-07-07_13h39.33.517,arm3_ET_builderv2,2022.2.5,MacIntel,71.42857143,down,-1,0.55,0.05,26,0,0.55,140,0,140,0,1,,,,,
,,hahahahahah,001,2023-07-07_13h39.33.517,arm3_ET_builderv2,2022.2.5,MacIntel,71.42857143,right,-1,0.55,0.05,26,-0.019132983,0.23,141,0,141,0,1,,,,,
,,hahahahahah,001,2023-07-07_13h39.33.517,arm3_ET_builderv2,2022.2.5,MacIntel,71.42857143,right,-1,0.55,0.05,26,-0.031408056,0.182,142,0,142,0,1,,,,,
,,hahahahahah,001,2023-07-07_13h39.33.517,arm3_ET_builderv2,2022.2.5,MacIntel,71.42857143,right,-1,0.55,0.05,26,-0.058397131,0.156,143,0,143,0,1,,,,,
,,hahahahahah,001,2023-07-07_13h39.33.517,arm3_ET_builderv2,2022.2.5,MacIntel,71.42857143,right,-1,0.55,0.05,26,-0.068392891,0.232,144,0,144,0,1,,,,,
,,hahahahahah,001,2023-07-07_13h39.33.517,arm3_ET_builderv2,2022.2.5,MacIntel,71.42857143,right,-1,0.55,0.05,26,-0.080632164,0.131,145,0,145,0,1,,,,,
,,hahahahahah,001,2023-07-07_13h39.33.517,arm3_ET_builderv2,2022.2.5,MacIntel,71.42857143,right,-1,0.55,0.05,26,-0.085242462,0.182,146,0,146,0,1,,,,,
,,hahahahahah,001,2023-07-07_13h39.33.517,arm3_ET_builderv2,2022.2.5,MacIntel,71.42857143,down,-1,0.55,0.05,26,0,0.282,147,0,147,0,1,,,,,
,,hahahahahah,001,2023-07-07_13h39.33.517,arm3_ET_builderv2,2022.2.5,MacIntel,71.42857143,right,-1,0.55,0.05,26,-0.012128485,0.254,148,0,148,0,1,,,,,
,,hahahahahah,001,2023-07-07_13h39.33.517,arm3_ET_builderv2,2022.2.5,MacIntel,71.42857143,right,-1,0.55,0.05,26,-0.055985824,0.183,149,0,149,0,1,,,,,
,,hahahahahah,001,2023-07-07_13h39.33.517,arm3_ET_builderv2,2022.2.5,MacIntel,71.42857143,right,-1,0.55,0.05,26,-0.069489327,0.202,150,0,150,0,1,,,,,
,,hahahahahah,001,2023-07-07_13h39.33.517,arm3_ET_builderv2,2022.2.5,MacIntel,71.42857143,right,-1,0.55,0.05,26,-0.086887725,0.182,151,0,151,0,1,,,,,
,,hahahahahah,001,2023-07-07_13h39.33.517,arm3_ET_builderv2,2022.2.5,MacIntel,71.42857143,right,-1,0.55,0.05,26,-0.093743042,0.182,152,0,152,0,1,,,,,
,,hahahahahah,001,2023-07-07_13h39.33.517,arm3_ET_builderv2,2022.2.5,MacIntel,71.42857143,right,-1,0.55,0.05,26,-0.09673995,0.148,153,0,153,0,1,,,,,
,,hahahahahah,001,2023-07-07_13h39.33.517,arm3_ET_builderv2,2022.2.5,MacIntel,71.42857143,right,-1,0.55,0.05,26,-0.109992978,0.164,154,0,154,0,1,,,,,
,,hahahahahah,001,2023-07-07_13h39.33.517,arm3_ET_builderv2,2022.2.5,MacIntel,71.42857143,right,-1,0.55,0.05,26,-0.12211318,0.14,155,0,155,0,1,,,,,
,,hahahahahah,001,2023-07-07_13h39.33.517,arm3_ET_builderv2,2022.2.5,MacIntel,71.42857143,down,-1,0.55,0.05,26,0,0.199,156,0,156,0,1,,,,,
,,hahahahahah,001,2023-07-07_13h39.33.517,arm3_ET_builderv2,2022.2.5,MacIntel,71.42857143,right,-1,0.55,0.05,26,0.00789264,0.225,157,0,157,0,1,,,,,
,,hahahahahah,001,2023-07-07_13h39.33.517,arm3_ET_builderv2,2022.2.5,MacIntel,71.42857143,right,-1,0.55,0.05,26,0.001559996,0.2,158,0,158,0,1,,,,,
,,hahahahahah,001,2023-07-07_13h39.33.517,arm3_ET_builderv2,2022.2.5,MacIntel,71.42857143,right,-1,0.55,0.05,26,-0.004006219,0.169,159,0,159,0,1,,,,,
,,hahahahahah,001,2023-07-07_13h39.33.517,arm3_ET_builderv2,2022.2.5,MacIntel,71.42857143,right,-1,0.55,0.05,26,-0.016409835,0.182,160,0,160,0,1,,,,,
,,hahahahahah,001,2023-07-07_13h39.33.517,arm3_ET_builderv2,2022.2.5,MacIntel,71.42857143,right,-1,0.55,0.05,26,-0.063040575,0.158,161,0,161,0,1,,,,,
,,hahahahahah,001,2023-07-07_13h39.33.517,arm3_ET_builderv2,2022.2.5,MacIntel,71.42857143,right,-1,0.55,0.05,26,-0.114622447,0.181,162,0,162,0,1,,,,,
,,hahahahahah,001,2023-07-07_13h39.33.517,arm3_ET_builderv2,2022.2.5,MacIntel,71.42857143,right,-1,0.55,0.05,26,-0.115244927,0.166,163,0,163,0,1,,,,,
,,hahahahahah,001,2023-07-07_13h39.33.517,arm3_ET_builderv2,2022.2.5,MacIntel,71.42857143,down,-1,0.55,0.05,26,0,0.332,164,0,164,0,1,,,,,
,,hahahahahah,001,2023-07-07_13h39.33.517,arm3_ET_builderv2,2022.2.5,MacIntel,71.42857143,right,-1,0.55,0.05,26,-0.046453476,0.224,165,0,165,0,1,,,,,
,,hahahahahah,001,2023-07-07_13h39.33.517,arm3_ET_builderv2,2022.2.5,MacIntel,71.42857143,right,-1,0.55,0.05,26,-0.06098142,0.184,166,0,166,0,1,,,,,
,,hahahahahah,001,2023-07-07_13h39.33.517,arm3_ET_builderv2,2022.2.5,MacIntel,71.42857143,right,-1,0.55,0.05,26,-0.048917132,0.221,167,0,167,0,1,,,,,
,,hahahahahah,001,2023-07-07_13h39.33.517,arm3_ET_builderv2,2022.2.5,MacIntel,71.42857143,right,-1,0.55,0.05,26,-0.04828685,0.174,168,0,168,0,1,,,,,
,,hahahahahah,001,2023-07-07_13h39.33.517,arm3_ET_builderv2,2022.2.5,MacIntel,71.42857143,right,-1,0.55,0.05,26,-0.079892448,0.197,169,0,169,0,1,,,,,
,,hahahahahah,001,2023-07-07_13h39.33.517,arm3_ET_builderv2,2022.2.5,MacIntel,71.42857143,right,-1,0.55,0.05,26,-0.074189094,0.165,170,0,170,0,1,,,,,
,,hahahahahah,001,2023-07-07_13h39.33.517,arm3_ET_builderv2,2022.2.5,MacIntel,71.42857143,right,-1,0.55,0.05,26,-0.064128285,0.149,171,0,171,0,1,,,,,
,,hahahahahah,001,2023-07-07_13h39.33.517,arm3_ET_builderv2,2022.2.5,MacIntel,71.42857143,right,-1,0.55,0.05,26,-0.062134404,0.166,172,0,172,0,1,,,,,
,,hahahahahah,001,2023-07-07_13h39.33.517,arm3_ET_builderv2,2022.2.5,MacIntel,71.42857143,down,-1,0.55,0.05,26,0,0.272,173,0,173,0,1,,,,,
,,hahahahahah,001,2023-07-07_13h39.33.517,arm3_ET_builderv2,2022.2.5,MacIntel,71.42857143,right,-1,0.55,0.05,26,-0.020390657,0.232,174,0,174,0,1,,,,,
,,hahahahahah,001,2023-07-07_13h39.33.517,arm3_ET_builderv2,2022.2.5,MacIntel,71.42857143,right,-1,0.55,0.05,26,-0.031250488,0.166,175,0,175,0,1,,,,,
,,hahahahahah,001,2023-07-07_13h39.33.517,arm3_ET_builderv2,2022.2.5,MacIntel,71.42857143,right,-1,0.55,0.05,26,-0.017049148,0.198,176,0,176,0,1,,,,,
,,hahahahahah,001,2023-07-07_13h39.33.517,arm3_ET_builderv2,2022.2.5,MacIntel,71.42857143,right,-1,0.55,0.05,26,-0.019248673,0.197,177,0,177,0,1,,,,,
,,hahahahahah,001,2023-07-07_13h39.33.517,arm3_ET_builderv2,2022.2.5,MacIntel,71.42857143,right,-1,0.55,0.05,26,-0.058509596,0.17,178,0,178,0,1,,,,,
,,hahahahahah,001,2023-07-07_13h39.33.517,arm3_ET_builderv2,2022.2.5,MacIntel,71.42857143,right,-1,0.55,0.05,26,-0.07824915,0.183,179,0,179,0,1,,,,,
,,hahahahahah,001,2023-07-07_13h39.33.517,arm3_ET_builderv2,2022.2.5,MacIntel,71.42857143,right,-1,0.55,0.05,26,-0.094382054,0.165,180,0,180,0,1,,,,,
,,hahahahahah,001,2023-07-07_13h39.33.517,arm3_ET_builderv2,2022.2.5,MacIntel,71.42857143,right,-1,0.55,0.05,26,-0.118396357,0.151,181,0,181,0,1,,,,,
,,hahahahahah,001,2023-07-07_13h39.33.517,arm3_ET_builderv2,2022.2.5,MacIntel,71.42857143,down,-1,0.55,0.05,26,0,0.231,182,0,182,0,1,,,,,
,,hahahahahah,001,2023-07-07_13h39.33.517,arm3_ET_builderv2,2022.2.5,MacIntel,71.42857143,right,-1,0.55,0.05,26,-0.010324544,0.242,183,0,183,0,1,,,,,
,,hahahahahah,001,2023-07-07_13h39.33.517,arm3_ET_builderv2,2022.2.5,MacIntel,71.42857143,right,-1,0.55,0.05,26,-0.001979955,0.204,184,0,184,0,1,,,,,
,,hahahahahah,001,2023-07-07_13h39.33.517,arm3_ET_builderv2,2022.2.5,MacIntel,71.42857143,right,-1,0.55,0.05,26,0.025502204,0.181,185,0,185,0,1,,,,,
,,hahahahahah,001,2023-07-07_13h39.33.517,arm3_ET_builderv2,2022.2.5,MacIntel,71.42857143,right,-1,0.55,0.05,26,0.033634141,0.182,186,0,186,0,1,,,,,
,,hahahahahah,001,2023-07-07_13h39.33.517,arm3_ET_builderv2,2022.2.5,MacIntel,71.42857143,right,-1,0.55,0.05,26,0.065104575,0.171,187,0,187,0,1,,,,,
,,hahahahahah,001,2023-07-07_13h39.33.517,arm3_ET_builderv2,2022.2.5,MacIntel,71.42857143,right,-1,0.55,0.05,26,0.048310949,0.182,188,0,188,0,1,,,,,
,,hahahahahah,001,2023-07-07_13h39.33.517,arm3_ET_builderv2,2022.2.5,MacIntel,71.42857143,right,-1,0.55,0.05,26,0.05660537,0.174,189,0,189,0,1,,,,,
,,hahahahahah,001,2023-07-07_13h39.33.517,arm3_ET_builderv2,2022.2.5,MacIntel,71.42857143,right,-1,0.55,0.05,26,0.03300205,0.184,190,0,190,0,1,,,,,
,,hahahahahah,001,2023-07-07_13h39.33.517,arm3_ET_builderv2,2022.2.5,MacIntel,71.42857143,right,-1,0.55,0.05,26,0.000621679,0.25,191,0,191,0,1,,,,,
,,hahahahahah,001,2023-07-07_13h39.33.517,arm3_ET_builderv2,2022.2.5,MacIntel,71.42857143,right,-1,0.55,0.05,26,0.020905023,0.514,192,0,192,0,1,,,,,
,,hahahahahah,001,2023-07-07_13h39.33.517,arm3_ET_builderv2,2022.2.5,MacIntel,71.42857143,right,-1,0.55,0.05,26,0.012445601,0.585,193,0,193,0,1,,,,,
,,hahahahahah,001,2023-07-07_13h39.33.517,arm3_ET_builderv2,2022.2.5,MacIntel,71.42857143,right,-1,0.55,0.05,26,-0.004869724,0.758,194,0,194,0,1,,,,,
,,hahahahahah,001,2023-07-07_13h39.33.517,arm3_ET_builderv2,2022.2.5,MacIntel,71.42857143,down,-1,0.55,0.05,27,0,0.714,195,0,195,0,1,,,,,
,,hahahahahah,001,2023-07-07_13h39.33.517,arm3_ET_builderv2,2022.2.5,MacIntel,71.42857143,right,-1,0.55,0.05,27,0.005198831,0.23,196,0,196,0,1,,,,,
,,hahahahahah,001,2023-07-07_13h39.33.517,arm3_ET_builderv2,2022.2.5,MacIntel,71.42857143,right,-1,0.55,0.05,27,-0.016129985,0.173,197,0,197,0,1,,,,,
,,hahahahahah,001,2023-07-07_13h39.33.517,arm3_ET_builderv2,2022.2.5,MacIntel,71.42857143,right,-1,0.55,0.05,27,-0.016732314,0.19,198,0,198,0,1,,,,,
,,hahahahahah,001,2023-07-07_13h39.33.517,arm3_ET_builderv2,2022.2.5,MacIntel,71.42857143,right,-1,0.55,0.05,27,-0.042928804,0.181,199,0,199,0,1,,,,,
,,hahahahahah,001,2023-07-07_13h39.33.517,arm3_ET_builderv2,2022.2.5,MacIntel,71.42857143,right,-1,0.55,0.05,27,-0.043597496,0.158,200,0,200,0,1,,,,,
,,hahahahahah,001,2023-07-07_13h39.33.517,arm3_ET_builderv2,2022.2.5,MacIntel,71.42857143,right,-1,0.55,0.05,27,-0.060919129,0.169,201,0,201,0,1,,,,,
,,hahahahahah,001,2023-07-07_13h39.33.517,arm3_ET_builderv2,2022.2.5,MacIntel,71.42857143,right,-1,0.55,0.05,27,-0.055076264,0.17,202,0,202,0,1,,,,,
,,hahahahahah,001,2023-07-07_13h39.33.517,arm3_ET_builderv2,2022.2.5,MacIntel,71.42857143,right,-1,0.55,0.05,27,-0.038628279,0.167,203,0,203,0,1,,,,,
,,hahahahahah,001,2023-07-07_13h39.33.517,arm3_ET_builderv2,2022.2.5,MacIntel,71.42857143,right,-1,0.55,0.05,27,-0.053790916,0.272,204,0,204,0,1,,,,,
,,hahahahahah,001,2023-07-07_13h39.33.517,arm3_ET_builderv2,2022.2.5,MacIntel,71.42857143,down,-1,0.55,0.05,27,0,0.638,205,0,205,0,1,,,,,
,,hahahahahah,001,2023-07-07_13h39.33.517,arm3_ET_builderv2,2022.2.5,MacIntel,71.42857143,right,-1,0.55,0.05,27,-0.008386367,0.255,206,0,206,0,1,,,,,
,,hahahahahah,001,2023-07-07_13h39.33.517,arm3_ET_builderv2,2022.2.5,MacIntel,71.42857143,right,-1,0.55,0.05,27,-0.00814039,0.183,207,0,207,0,1,,,,,
,,hahahahahah,001,2023-07-07_13h39.33.517,arm3_ET_builderv2,2022.2.5,MacIntel,71.42857143,right,-1,0.55,0.05,27,-0.010494061,0.187,208,0,208,0,1,,,,,
,,hahahahahah,001,2023-07-07_13h39.33.517,arm3_ET_builderv2,2022.2.5,MacIntel,71.42857143,right,-1,0.55,0.05,27,-0.020950372,0.174,209,0,209,0,1,,,,,
,,hahahahahah,001,2023-07-07_13h39.33.517,arm3_ET_builderv2,2022.2.5,MacIntel,71.42857143,right,-1,0.55,0.05,27,-0.026373179,0.173,210,0,210,0,1,,,,,
,,hahahahahah,001,2023-07-07_13h39.33.517,arm3_ET_builderv2,2022.2.5,MacIntel,71.42857143,right,-1,0.55,0.05,27,-0.048652949,0.181,211,0,211,0,1,,,,,
,,hahahahahah,001,2023-07-07_13h39.33.517,arm3_ET_builderv2,2022.2.5,MacIntel,71.42857143,right,-1,0.55,0.05,27,-0.075852339,0.166,212,0,212,0,1,,,,,
,,hahahahahah,001,2023-07-07_13h39.33.517,arm3_ET_builderv2,2022.2.5,MacIntel,71.42857143,right,-1,0.55,0.05,27,-0.101336758,0.166,213,0,213,0,1,,,,,
,,hahahahahah,001,2023-07-07_13h39.33.517,arm3_ET_builderv2,2022.2.5,MacIntel,71.42857143,right,-1,0.55,0.05,27,-0.117604718,0.136,214,0,214,0,1,,,,,
,,hahahahahah,001,2023-07-07_13h39.33.517,arm3_ET_builderv2,2022.2.5,MacIntel,71.42857143,down,-1,0.55,0.05,27,0,0.248,215,0,215,0,1,,,,,
,,hahahahahah,001,2023-07-07_13h39.33.517,arm3_ET_builderv2,2022.2.5,MacIntel,71.42857143,right,-1,0.55,0.05,27,-0.021471657,0.205,216,0,216,0,1,,,,,
,,hahahahahah,001,2023-07-07_13h39.33.517,arm3_ET_builderv2,2022.2.5,MacIntel,71.42857143,right,-1,0.55,0.05,27,-0.020847789,0.2,217,0,217,0,1,,,,,
,,hahahahahah,001,2023-07-07_13h39.33.517,arm3_ET_builderv2,2022.2.5,MacIntel,71.42857143,right,-1,0.55,0.05,27,-0.012497588,0.168,218,0,218,0,1,,,,,
,,hahahahahah,001,2023-07-07_13h39.33.517,arm3_ET_builderv2,2022.2.5,MacIntel,71.42857143,right,-1,0.55,0.05,27,-0.006736998,0.207,219,0,219,0,1,,,,,
,,hahahahahah,001,2023-07-07_13h39.33.517,arm3_ET_builderv2,2022.2.5,MacIntel,71.42857143,right,-1,0.55,0.05,27,-0.042542471,0.174,220,0,220,0,1,,,,,
,,hahahahahah,001,2023-07-07_13h39.33.517,arm3_ET_builderv2,2022.2.5,MacIntel,71.42857143,right,-1,0.55,0.05,27,-0.041545756,0.188,221,0,221,0,1,,,,,
,,hahahahahah,001,2023-07-07_13h39.33.517,arm3_ET_builderv2,2022.2.5,MacIntel,71.42857143,right,-1,0.55,0.05,27,-0.047100109,0.168,222,0,222,0,1,,,,,
,,hahahahahah,001,2023-07-07_13h39.33.517,arm3_ET_builderv2,2022.2.5,MacIntel,71.42857143,right,-1,0.55,0.05,27,-0.050989955,0.466,223,0,223,0,1,,,,,
,,hahahahahah,001,2023-07-07_13h39.33.517,arm3_ET_builderv2,2022.2.5,MacIntel,71.42857143,right,-1,0.55,0.05,27,-0.101689734,0.232,224,0,224,0,1,,,,,
,,hahahahahah,001,2023-07-07_13h39.33.517,arm3_ET_builderv2,2022.2.5,MacIntel,71.42857143,right,-1,0.55,0.05,27,-0.12391053,0.4,225,0,225,0,1,,,,,
,,hahahahahah,001,2023-07-07_13h39.33.517,arm3_ET_builderv2,2022.2.5,MacIntel,71.42857143,down,1,0.55,0.05,28,0,0.748,226,0,226,0,1,,,,,
,,hahahahahah,001,2023-07-07_13h39.33.517,arm3_ET_builderv2,2022.2.5,MacIntel,71.42857143,right,1,0.55,0.05,28,0.006158788,0.464,227,0,227,0,1,,,,,
,,hahahahahah,001,2023-07-07_13h39.33.517,arm3_ET_builderv2,2022.2.5,MacIntel,71.42857143,right,1,0.55,0.05,28,0.012113068,0.238,228,0,228,0,1,,,,,
,,hahahahahah,001,2023-07-07_13h39.33.517,arm3_ET_builderv2,2022.2.5,MacIntel,71.42857143,right,1,0.55,0.05,28,0.036577334,0.216,229,0,229,0,1,,,,,
,,hahahahahah,001,2023-07-07_13h39.33.517,arm3_ET_builderv2,2022.2.5,MacIntel,71.42857143,right,1,0.55,0.05,28,0.027361437,0.183,230,0,230,0,1,,,,,
,,hahahahahah,001,2023-07-07_13h39.33.517,arm3_ET_builderv2,2022.2.5,MacIntel,71.42857143,right,1,0.55,0.05,28,0.039734537,0.156,231,0,231,0,1,,,,,
,,hahahahahah,001,2023-07-07_13h39.33.517,arm3_ET_builderv2,2022.2.5,MacIntel,71.42857143,right,1,0.55,0.05,28,0.048751409,0.199,232,0,232,0,1,,,,,
,,hahahahahah,001,2023-07-07_13h39.33.517,arm3_ET_builderv2,2022.2.5,MacIntel,71.42857143,right,1,0.55,0.05,28,0.063826745,0.168,233,0,233,0,1,,,,,
,,hahahahahah,001,2023-07-07_13h39.33.517,arm3_ET_builderv2,2022.2.5,MacIntel,71.42857143,up,1,0.55,0.05,28,0,0.475,234,0,234,0,1,,,,,
,,hahahahahah,001,2023-07-07_13h39.33.517,arm3_ET_builderv2,2022.2.5,MacIntel,71.42857143,right,1,0.55,0.05,28,-0.018770294,0.447,235,0,235,0,1,,,,,
,,hahahahahah,001,2023-07-07_13h39.33.517,arm3_ET_builderv2,2022.2.5,MacIntel,71.42857143,right,1,0.55,0.05,28,-0.00918157,0.216,236,0,236,0,1,,,,,
,,hahahahahah,001,2023-07-07_13h39.33.517,arm3_ET_builderv2,2022.2.5,MacIntel,71.42857143,right,1,0.55,0.05,28,-0.009795066,0.217,237,0,237,0,1,,,,,
,,hahahahahah,001,2023-07-07_13h39.33.517,arm3_ET_builderv2,2022.2.5,MacIntel,71.42857143,right,1,0.55,0.05,28,0.003751355,0.188,238,0,238,0,1,,,,,
,,hahahahahah,001,2023-07-07_13h39.33.517,arm3_ET_builderv2,2022.2.5,MacIntel,71.42857143,right,1,0.55,0.05,28,0.017626207,0.186,239,0,239,0,1,,,,,
,,hahahahahah,001,2023-07-07_13h39.33.517,arm3_ET_builderv2,2022.2.5,MacIntel,71.42857143,right,1,0.55,0.05,28,0.06259396,0.215,240,0,240,0,1,,,,,
,,hahahahahah,001,2023-07-07_13h39.33.517,arm3_ET_builderv2,2022.2.5,MacIntel,71.42857143,right,1,0.55,0.05,28,0.061182451,0.304,241,0,241,0,1,,,,,
,,hahahahahah,001,2023-07-07_13h39.33.517,arm3_ET_builderv2,2022.2.5,MacIntel,71.42857143,up,1,0.55,0.05,29,0,0.899,242,0,242,0,1,,,,,
,,hahahahahah,001,2023-07-07_13h39.33.517,arm3_ET_builderv2,2022.2.5,MacIntel,71.42857143,right,1,0.55,0.05,29,-0.006655134,0.571,243,0,243,0,1,,,,,
,,hahahahahah,001,2023-07-07_13h39.33.517,arm3_ET_builderv2,2022.2.5,MacIntel,71.42857143,right,1,0.55,0.05,29,-0.017872435,0.223,244,0,244,0,1,,,,,
,,hahahahahah,001,2023-07-07_13h39.33.517,arm3_ET_builderv2,2022.2.5,MacIntel,71.42857143,right,1,0.55,0.05,29,0.0121315,0.198,245,0,245,0,1,,,,,
,,hahahahahah,001,2023-07-07_13h39.33.517,arm3_ET_builderv2,2022.2.5,MacIntel,71.42857143,right,1,0.55,0.05,29,0.016450031,0.188,246,0,246,0,1,,,,,
,,hahahahahah,001,2023-07-07_13h39.33.517,arm3_ET_builderv2,2022.2.5,MacIntel,71.42857143,right,1,0.55,0.05,29,0.005787495,0.201,247,0,247,0,1,,,,,
,,hahahahahah,001,2023-07-07_13h39.33.517,arm3_ET_builderv2,2022.2.5,MacIntel,71.42857143,right,1,0.55,0.05,29,0.023305967,0.188,248,0,248,0,1,,,,,
,,hahahahahah,001,2023-07-07_13h39.33.517,arm3_ET_builderv2,2022.2.5,MacIntel,71.42857143,right,1,0.55,0.05,29,0.041059152,0.215,249,0,249,0,1,,,,,
,,hahahahahah,001,2023-07-07_13h39.33.517,arm3_ET_builderv2,2022.2.5,MacIntel,71.42857143,right,1,0.55,0.05,29,0.040200078,0.174,250,0,250,0,1,,,,,
,,hahahahahah,001,2023-07-07_13h39.33.517,arm3_ET_builderv2,2022.2.5,MacIntel,71.42857143,right,1,0.55,0.05,29,0.076225827,0.209,251,0,251,0,1,,,,,
,,hahahahahah,001,2023-07-07_13h39.33.517,arm3_ET_builderv2,2022.2.5,MacIntel,71.42857143,up,1,0.55,0.05,29,0,0.551,252,0,252,0,1,,,,,
,,hahahahahah,001,2023-07-07_13h39.33.517,arm3_ET_builderv2,2022.2.5,MacIntel,71.42857143,right,1,0.55,0.05,29,-0.028719409,0.288,253,0,253,0,1,,,,,
,,hahahahahah,001,2023-07-07_13h39.33.517,arm3_ET_builderv2,2022.2.5,MacIntel,71.42857143,right,1,0.55,0.05,29,-0.008755687,0.203,254,0,254,0,1,,,,,
,,hahahahahah,001,2023-07-07_13h39.33.517,arm3_ET_builderv2,2022.2.5,MacIntel,71.42857143,right,1,0.55,0.05,29,0.02713655,0.17,255,0,255,0,1,,,,,
,,hahahahahah,001,2023-07-07_13h39.33.517,arm3_ET_builderv2,2022.2.5,MacIntel,71.42857143,right,1,0.55,0.05,29,0.033827302,0.187,256,0,256,0,1,,,,,
,,hahahahahah,001,2023-07-07_13h39.33.517,arm3_ET_builderv2,2022.2.5,MacIntel,71.42857143,right,1,0.55,0.05,29,0.057720163,0.182,257,0,257,0,1,,,,,
,,hahahahahah,001,2023-07-07_13h39.33.517,arm3_ET_builderv2,2022.2.5,MacIntel,71.42857143,right,1,0.55,0.05,29,0.05481695,0.174,258,0,258,0,1,,,,,
,,hahahahahah,001,2023-07-07_13h39.33.517,arm3_ET_builderv2,2022.2.5,MacIntel,71.42857143,right,1,0.55,0.05,29,0.07794018,0.198,259,0,259,0,1,,,,,
,,hahahahahah,001,2023-07-07_13h39.33.517,arm3_ET_builderv2,2022.2.5,MacIntel,71.42857143,right,1,0.55,0.05,29,0.083986355,0.165,260,0,260,0,1,,,,,
,,hahahahahah,001,2023-07-07_13h39.33.517,arm3_ET_builderv2,2022.2.5,MacIntel,71.42857143,up,1,0.55,0.05,29,0,0.531,261,0,261,0,1,,,,,
,,hahahahahah,001,2023-07-07_13h39.33.517,arm3_ET_builderv2,2022.2.5,MacIntel,71.42857143,right,1,0.55,0.05,29,0.010623442,0.273,262,0,262,0,1,,,,,
,,hahahahahah,001,2023-07-07_13h39.33.517,arm3_ET_builderv2,2022.2.5,MacIntel,71.42857143,right,1,0.55,0.05,29,0.015187772,0.198,263,0,263,0,1,,,,,
,,hahahahahah,001,2023-07-07_13h39.33.517,arm3_ET_builderv2,2022.2.5,MacIntel,71.42857143,right,1,0.55,0.05,29,0.03143383,0.171,264,0,264,0,1,,,,,
,,hahahahahah,001,2023-07-07_13h39.33.517,arm3_ET_builderv2,2022.2.5,MacIntel,71.42857143,right,1,0.55,0.05,29,0.05997626,0.198,265,0,265,0,1,,,,,
,,hahahahahah,001,2023-07-07_13h39.33.517,arm3_ET_builderv2,2022.2.5,MacIntel,71.42857143,right,1,0.55,0.05,29,0.070493364,0.166,266,0,266,0,1,,,,,
,,hahahahahah,001,2023-07-07_13h39.33.517,arm3_ET_builderv2,2022.2.5,MacIntel,71.42857143,right,1,0.55,0.05,29,0.099015235,0.183,267,0,267,0,1,,,,,
,,hahahahahah,001,2023-07-07_13h39.33.517,arm3_ET_builderv2,2022.2.5,MacIntel,71.42857143,right,1,0.55,0.05,29,0.096086642,0.153,268,0,268,0,1,,,,,
,,hahahahahah,001,2023-07-07_13h39.33.517,arm3_ET_builderv2,2022.2.5,MacIntel,71.42857143,up,1,0.55,0.05,30,0,0.297,269,0,269,0,1,,,,,
,,hahahahahah,001,2023-07-07_13h39.33.517,arm3_ET_builderv2,2022.2.5,MacIntel,71.42857143,right,1,0.55,0.05,30,0.003539551,0.28,270,0,270,0,1,,,,,
,,hahahahahah,001,2023-07-07_13h39.33.517,arm3_ET_builderv2,2022.2.5,MacIntel,71.42857143,right,1,0.55,0.05,30,-0.006237369,0.209,271,0,271,0,1,,,,,
,,hahahahahah,001,2023-07-07_13h39.33.517,arm3_ET_builderv2,2022.2.5,MacIntel,71.42857143,right,1,0.55,0.05,30,0.016827484,0.198,272,0,272,0,1,,,,,
,,hahahahahah,001,2023-07-07_13h39.33.517,arm3_ET_builderv2,2022.2.5,MacIntel,71.42857143,right,1,0.55,0.05,30,0.045243442,0.18,273,0,273,0,1,,,,,
,,hahahahahah,001,2023-07-07_13h39.33.517,arm3_ET_builderv2,2022.2.5,MacIntel,71.42857143,right,1,0.55,0.05,30,0.070610845,0.173,274,0,274,0,1,,,,,
,,hahahahahah,001,2023-07-07_13h39.33.517,arm3_ET_builderv2,2022.2.5,MacIntel,71.42857143,right,1,0.55,0.05,30,0.083436283,0.168,275,0,275,0,1,,,,,
,,hahahahahah,001,2023-07-07_13h39.33.517,arm3_ET_builderv2,2022.2.5,MacIntel,71.42857143,up,1,0.55,0.05,30,0,0.34,276,0,276,0,1,,,,,
,,hahahahahah,001,2023-07-07_13h39.33.517,arm3_ET_builderv2,2022.2.5,MacIntel,71.42857143,right,1,0.55,0.05,30,0.008255045,0.333,277,0,277,0,1,,,,,
,,hahahahahah,001,2023-07-07_13h39.33.517,arm3_ET_builderv2,2022.2.5,MacIntel,71.42857143,right,1,0.55,0.05,30,0.004968031,0.158,278,0,278,0,1,,,,,
,,hahahahahah,001,2023-07-07_13h39.33.517,arm3_ET_builderv2,2022.2.5,MacIntel,71.42857143,right,1,0.55,0.05,30,-0.036535574,0.202,279,0,279,0,1,,,,,
,,hahahahahah,001,2023-07-07_13h39.33.517,arm3_ET_builderv2,2022.2.5,MacIntel,71.42857143,right,1,0.55,0.05,30,-0.052099601,0.184,280,0,280,0,1,,,,,
,,hahahahahah,001,2023-07-07_13h39.33.517,arm3_ET_builderv2,2022.2.5,MacIntel,71.42857143,right,1,0.55,0.05,30,-0.064807998,0.183,281,0,281,0,1,,,,,
,,hahahahahah,001,2023-07-07_13h39.33.517,arm3_ET_builderv2,2022.2.5,MacIntel,71.42857143,right,1,0.55,0.05,30,-0.05571502,0.171,282,0,282,0,1,,,,,
,,hahahahahah,001,2023-07-07_13h39.33.517,arm3_ET_builderv2,2022.2.5,MacIntel,71.42857143,right,1,0.55,0.05,30,-0.046607394,0.171,283,0,283,0,1,,,,,
,,hahahahahah,001,2023-07-07_13h39.33.517,arm3_ET_builderv2,2022.2.5,MacIntel,71.42857143,right,1,0.55,0.05,30,-0.03885267,0.183,284,0,284,0,1,,,,,
,,hahahahahah,001,2023-07-07_13h39.33.517,arm3_ET_builderv2,2022.2.5,MacIntel,71.42857143,right,1,0.55,0.05,30,-0.031015474,0.382,285,0,285,0,1,,,,,
,,hahahahahah,001,2023-07-07_13h39.33.517,arm3_ET_builderv2,2022.2.5,MacIntel,71.42857143,right,1,0.55,0.05,30,-0.01792102,0.482,286,0,286,0,1,,,,,
