space_bar.keys,space_bar.rt,participant,session,date,expName,psychopyVersion,OS,frameRate,resp.keys,state,q_prob,eps_prob,score,price,resp.rt,steps.thisRepN,steps.thisTrialN,steps.thisN,steps.thisIndex,steps.ran,blocks.thisRepN,blocks.thisTrialN,blocks.thisN,blocks.thisIndex,blocks.ran
space,40.1813,353350,1,2023-07-06_15h44.58.015,arm3_ET_builderv2,2022.2.5,MacIntel,60.0024001,,,,,,,,,,,,,,,,,
space,20.685,353350,1,2023-07-06_15h44.58.015,arm3_ET_builderv2,2022.2.5,MacIntel,60.0024001,,,,,,,,,,,,,,,,,
space,10.6989,353350,1,2023-07-06_15h44.58.015,arm3_ET_builderv2,2022.2.5,MacIntel,60.0024001,,,,,,,,,,,,,,,,,
space,23.3673,353350,1,2023-07-06_15h44.58.015,arm3_ET_builderv2,2022.2.5,MacIntel,60.0024001,,,,,,,,,,,,,,,,,
space,35.1157,353350,1,2023-07-06_15h44.58.015,arm3_ET_builderv2,2022.2.5,MacIntel,60.0024001,,,,,,,,,,,,,,,,,
,,353350,1,2023-07-06_15h44.58.015,arm3_ET_builderv2,2022.2.5,MacIntel,60.0024001,right,-1,0.55,0.45,0,-0.019537783,3.0114,0,0,0,0,1,,,,,
,,353350,1,2023-07-06_15h44.58.015,arm3_ET_builderv2,2022.2.5,MacIntel,60.0024001,right,-1,0.55,0.45,0,-0.036005074,2.0788,1,0,1,0,1,,,,,
,,353350,1,2023-07-06_15h44.58.015,arm3_ET_builderv2,2022.2.5,MacIntel,60.0024001,right,-1,0.55,0.45,0,-0.050565972,0.6827,2,0,2,0,1,,,,,
,,353350,1,2023-07-06_15h44.58.015,arm3_ET_builderv2,2022.2.5,MacIntel,60.0024001,right,-1,0.55,0.45,0,-0.044708973,3.7508,3,0,3,0,1,,,,,
,,353350,1,2023-07-06_15h44.58.015,arm3_ET_builderv2,2022.2.5,MacIntel,60.0024001,right,-1,0.55,0.45,0,-0.044474792,0.9172,4,0,4,0,1,,,,,
,,353350,1,2023-07-06_15h44.58.015,arm3_ET_builderv2,2022.2.5,MacIntel,60.0024001,right,-1,0.55,0.45,0,-0.034380621,0.6984,5,0,5,0,1,,,,,
,,353350,1,2023-07-06_15h44.58.015,arm3_ET_builderv2,2022.2.5,MacIntel,60.0024001,right,-1,0.55,0.45,0,-0.044370997,0.502,6,0,6,0,1,,,,,
,,353350,1,2023-07-06_15h44.58.015,arm3_ET_builderv2,2022.2.5,MacIntel,60.0024001,down,-1,0.55,0.45,0,0,0.6394,7,0,7,0,1,,,,,
,,353350,1,2023-07-06_15h44.58.015,arm3_ET_builderv2,2022.2.5,MacIntel,60.0024001,right,-1,0.55,0.45,0,-0.036583605,3.7116,8,0,8,0,1,,,,,
,,353350,1,2023-07-06_15h44.58.015,arm3_ET_builderv2,2022.2.5,MacIntel,60.0024001,right,-1,0.55,0.45,0,-0.036156013,0.4343,9,0,9,0,1,,,,,
,,353350,1,2023-07-06_15h44.58.015,arm3_ET_builderv2,2022.2.5,MacIntel,60.0024001,right,-1,0.55,0.45,0,-0.043183205,0.3873,10,0,10,0,1,,,,,
,,353350,1,2023-07-06_15h44.58.015,arm3_ET_builderv2,2022.2.5,MacIntel,60.0024001,right,-1,0.55,0.45,0,-0.056221426,0.3651,11,0,11,0,1,,,,,
,,353350,1,2023-07-06_15h44.58.015,arm3_ET_builderv2,2022.2.5,MacIntel,60.0024001,down,-1,0.55,0.45,0,0,0.3486,12,0,12,0,1,,,,,
,,353350,1,2023-07-06_15h44.58.015,arm3_ET_builderv2,2022.2.5,MacIntel,60.0024001,right,-1,0.55,0.45,0,-0.005193325,1.4005,13,0,13,0,1,,,,,
,,353350,1,2023-07-06_15h44.58.015,arm3_ET_builderv2,2022.2.5,MacIntel,60.0024001,right,-1,0.55,0.45,0,-0.014452266,0.4343,14,0,14,0,1,,,,,
,,353350,1,2023-07-06_15h44.58.015,arm3_ET_builderv2,2022.2.5,MacIntel,60.0024001,right,-1,0.55,0.45,0,-0.034481727,0.3328,15,0,15,0,1,,,,,
,,353350,1,2023-07-06_15h44.58.015,arm3_ET_builderv2,2022.2.5,MacIntel,60.0024001,right,-1,0.55,0.45,0,-0.039652456,0.5355,16,0,16,0,1,,,,,
,,353350,1,2023-07-06_15h44.58.015,arm3_ET_builderv2,2022.2.5,MacIntel,60.0024001,right,-1,0.55,0.45,0,-0.074865353,0.4003,17,0,17,0,1,,,,,
,,353350,1,2023-07-06_15h44.58.015,arm3_ET_builderv2,2022.2.5,MacIntel,60.0024001,down,1,0.55,0.45,1,0,0.2836,18,0,18,0,1,,,,,
,,353350,1,2023-07-06_15h44.58.015,arm3_ET_builderv2,2022.2.5,MacIntel,60.0024001,right,1,0.55,0.45,1,0.024292943,2.2258,19,0,19,0,1,,,,,
,,353350,1,2023-07-06_15h44.58.015,arm3_ET_builderv2,2022.2.5,MacIntel,60.0024001,right,1,0.55,0.45,1,0.052588581,0.3139,20,0,20,0,1,,,,,
,,353350,1,2023-07-06_15h44.58.015,arm3_ET_builderv2,2022.2.5,MacIntel,60.0024001,right,1,0.55,0.45,1,0.058329534,0.3691,21,0,21,0,1,,,,,
,,353350,1,2023-07-06_15h44.58.015,arm3_ET_builderv2,2022.2.5,MacIntel,60.0024001,right,1,0.55,0.45,1,0.050337819,1.2888,22,0,22,0,1,,,,,
,,353350,1,2023-07-06_15h44.58.015,arm3_ET_builderv2,2022.2.5,MacIntel,60.0024001,right,1,0.55,0.45,1,0.046093082,0.4822,23,0,23,0,1,,,,,
,,353350,1,2023-07-06_15h44.58.015,arm3_ET_builderv2,2022.2.5,MacIntel,60.0024001,down,1,0.55,0.45,1,0,0.5829,24,0,24,0,1,,,,,
,,353350,1,2023-07-06_15h44.58.015,arm3_ET_builderv2,2022.2.5,MacIntel,60.0024001,right,1,0.55,0.45,1,0.02079387,1.4624,25,0,25,0,1,,,,,
,,353350,1,2023-07-06_15h44.58.015,arm3_ET_builderv2,2022.2.5,MacIntel,60.0024001,right,1,0.55,0.45,1,-0.001423339,0.2702,26,0,26,0,1,,,,,
,,353350,1,2023-07-06_15h44.58.015,arm3_ET_builderv2,2022.2.5,MacIntel,60.0024001,right,1,0.55,0.45,1,0.013519773,1.0533,27,0,27,0,1,,,,,
,,353350,1,2023-07-06_15h44.58.015,arm3_ET_builderv2,2022.2.5,MacIntel,60.0024001,right,1,0.55,0.45,1,0.045037063,0.3863,28,0,28,0,1,,,,,
,,353350,1,2023-07-06_15h44.58.015,arm3_ET_builderv2,2022.2.5,MacIntel,60.0024001,right,1,0.55,0.45,1,0.027561684,0.3679,29,0,29,0,1,,,,,
,,353350,1,2023-07-06_15h44.58.015,arm3_ET_builderv2,2022.2.5,MacIntel,60.0024001,right,1,0.55,0.45,1,0.01893906,0.355,30,0,30,0,1,,,,,
,,353350,1,2023-07-06_15h44.58.015,arm3_ET_builderv2,2022.2.5,MacIntel,60.0024001,right,1,0.55,0.45,1,0.044882239,0.9202,31,0,31,0,1,,,,,
,,353350,1,2023-07-06_15h44.58.015,arm3_ET_builderv2,2022.2.5,MacIntel,60.0024001,right,1,0.55,0.45,1,0.027597373,0.3236,32,0,32,0,1,,,,,
,,353350,1,2023-07-06_15h44.58.015,arm3_ET_builderv2,2022.2.5,MacIntel,60.0024001,right,1,0.55,0.45,1,0.042593946,0.3643,33,0,33,0,1,,,,,
,,353350,1,2023-07-06_15h44.58.015,arm3_ET_builderv2,2022.2.5,MacIntel,60.0024001,up,-1,0.55,0.45,1,0,0.8522,34,0,34,0,1,,,,,
,,353350,1,2023-07-06_15h44.58.015,arm3_ET_builderv2,2022.2.5,MacIntel,60.0024001,right,-1,0.55,0.45,1,0.00588864,3.8184,35,0,35,0,1,,,,,
,,353350,1,2023-07-06_15h44.58.015,arm3_ET_builderv2,2022.2.5,MacIntel,60.0024001,right,-1,0.55,0.45,1,0.006454419,0.6882,36,0,36,0,1,,,,,
,,353350,1,2023-07-06_15h44.58.015,arm3_ET_builderv2,2022.2.5,MacIntel,60.0024001,right,-1,0.55,0.45,1,0.000366871,0.4194,37,0,37,0,1,,,,,
,,353350,1,2023-07-06_15h44.58.015,arm3_ET_builderv2,2022.2.5,MacIntel,60.0024001,right,-1,0.55,0.45,1,0.0035513,0.4834,38,0,38,0,1,,,,,
,,353350,1,2023-07-06_15h44.58.015,arm3_ET_builderv2,2022.2.5,MacIntel,60.0024001,right,-1,0.55,0.45,1,-0.004221317,0.5225,39,0,39,0,1,,,,,
,,353350,1,2023-07-06_15h44.58.015,arm3_ET_builderv2,2022.2.5,MacIntel,60.0024001,right,-1,0.55,0.45,1,-0.02350807,0.6485,40,0,40,0,1,,,,,
,,353350,1,2023-07-06_15h44.58.015,arm3_ET_builderv2,2022.2.5,MacIntel,60.0024001,down,1,0.55,0.45,2,0,0.4035,41,0,41,0,1,,,,,
,,353350,1,2023-07-06_15h44.58.015,arm3_ET_builderv2,2022.2.5,MacIntel,60.0024001,right,1,0.55,0.45,2,-0.002881954,0.6145,42,0,42,0,1,,,,,
,,353350,1,2023-07-06_15h44.58.015,arm3_ET_builderv2,2022.2.5,MacIntel,60.0024001,right,1,0.55,0.45,2,-0.017608403,0.5179,43,0,43,0,1,,,,,
,,353350,1,2023-07-06_15h44.58.015,arm3_ET_builderv2,2022.2.5,MacIntel,60.0024001,right,1,0.55,0.45,2,-0.037239258,0.3646,44,0,44,0,1,,,,,
,,353350,1,2023-07-06_15h44.58.015,arm3_ET_builderv2,2022.2.5,MacIntel,60.0024001,down,-1,0.55,0.45,2,0,0.7937,45,0,45,0,1,,,,,
,,353350,1,2023-07-06_15h44.58.015,arm3_ET_builderv2,2022.2.5,MacIntel,60.0024001,right,-1,0.55,0.45,2,-0.025778659,4.7921,46,0,46,0,1,,,,,
,,353350,1,2023-07-06_15h44.58.015,arm3_ET_builderv2,2022.2.5,MacIntel,60.0024001,right,-1,0.55,0.45,2,-0.023286159,0.3526,47,0,47,0,1,,,,,
,,353350,1,2023-07-06_15h44.58.015,arm3_ET_builderv2,2022.2.5,MacIntel,60.0024001,right,-1,0.55,0.45,2,-0.039839995,0.3224,48,0,48,0,1,,,,,
,,353350,1,2023-07-06_15h44.58.015,arm3_ET_builderv2,2022.2.5,MacIntel,60.0024001,right,-1,0.55,0.45,2,-0.043429483,0.4488,49,0,49,0,1,,,,,
,,353350,1,2023-07-06_15h44.58.015,arm3_ET_builderv2,2022.2.5,MacIntel,60.0024001,right,-1,0.55,0.45,2,-0.040040259,0.3818,50,0,50,0,1,,,,,
,,353350,1,2023-07-06_15h44.58.015,arm3_ET_builderv2,2022.2.5,MacIntel,60.0024001,down,1,0.55,0.45,2,0,0.6839,51,0,51,0,1,,,,,
,,353350,1,2023-07-06_15h44.58.015,arm3_ET_builderv2,2022.2.5,MacIntel,60.0024001,right,1,0.55,0.45,2,0.005189708,1.6998,52,0,52,0,1,,,,,
,,353350,1,2023-07-06_15h44.58.015,arm3_ET_builderv2,2022.2.5,MacIntel,60.0024001,right,1,0.55,0.45,2,0.02302409,0.3527,53,0,53,0,1,,,,,
,,353350,1,2023-07-06_15h44.58.015,arm3_ET_builderv2,2022.2.5,MacIntel,60.0024001,right,1,0.55,0.45,2,0.061001982,0.3008,54,0,54,0,1,,,,,
,,353350,1,2023-07-06_15h44.58.015,arm3_ET_builderv2,2022.2.5,MacIntel,60.0024001,up,1,0.55,0.45,2,0,0.3843,55,0,55,0,1,,,,,
,,353350,1,2023-07-06_15h44.58.015,arm3_ET_builderv2,2022.2.5,MacIntel,60.0024001,right,1,0.55,0.45,2,-0.00263783,0.4678,56,0,56,0,1,,,,,
,,353350,1,2023-07-06_15h44.58.015,arm3_ET_builderv2,2022.2.5,MacIntel,60.0024001,right,1,0.55,0.45,2,0.021844789,0.499,57,0,57,0,1,,,,,
,,353350,1,2023-07-06_15h44.58.015,arm3_ET_builderv2,2022.2.5,MacIntel,60.0024001,right,1,0.55,0.45,2,0.001058577,0.5191,58,0,58,0,1,,,,,
,,353350,1,2023-07-06_15h44.58.015,arm3_ET_builderv2,2022.2.5,MacIntel,60.0024001,right,1,0.55,0.45,2,-0.006203257,0.4173,59,0,59,0,1,,,,,
,,353350,1,2023-07-06_15h44.58.015,arm3_ET_builderv2,2022.2.5,MacIntel,60.0024001,right,1,0.55,0.45,2,0.012551403,0.7871,60,0,60,0,1,,,,,
,,353350,1,2023-07-06_15h44.58.015,arm3_ET_builderv2,2022.2.5,MacIntel,60.0024001,right,1,0.55,0.45,2,0.008208741,0.3793,61,0,61,0,1,,,,,
,,353350,1,2023-07-06_15h44.58.015,arm3_ET_builderv2,2022.2.5,MacIntel,60.0024001,right,1,0.55,0.45,2,0.033699201,0.9115,62,0,62,0,1,,,,,
,,353350,1,2023-07-06_15h44.58.015,arm3_ET_builderv2,2022.2.5,MacIntel,60.0024001,up,-1,0.55,0.45,2,0,0.5987,63,0,63,0,1,,,,,
,,353350,1,2023-07-06_15h44.58.015,arm3_ET_builderv2,2022.2.5,MacIntel,60.0024001,right,-1,0.55,0.45,2,0.000186266,1.3,64,0,64,0,1,,,,,
,,353350,1,2023-07-06_15h44.58.015,arm3_ET_builderv2,2022.2.5,MacIntel,60.0024001,right,-1,0.55,0.45,2,-0.019437617,0.7457,65,0,65,0,1,,,,,
,,353350,1,2023-07-06_15h44.58.015,arm3_ET_builderv2,2022.2.5,MacIntel,60.0024001,right,-1,0.55,0.45,2,-0.014168022,2.5504,66,0,66,0,1,,,,,
,,353350,1,2023-07-06_15h44.58.015,arm3_ET_builderv2,2022.2.5,MacIntel,60.0024001,down,-1,0.55,0.45,2,0,0.8111,67,0,67,0,1,,,,,
,,353350,1,2023-07-06_15h44.58.015,arm3_ET_builderv2,2022.2.5,MacIntel,60.0024001,right,-1,0.55,0.45,2,0.001100507,0.6305,68,0,68,0,1,,,,,
,,353350,1,2023-07-06_15h44.58.015,arm3_ET_builderv2,2022.2.5,MacIntel,60.0024001,right,-1,0.55,0.45,2,-0.002197025,0.4836,69,0,69,0,1,,,,,
,,353350,1,2023-07-06_15h44.58.015,arm3_ET_builderv2,2022.2.5,MacIntel,60.0024001,right,-1,0.55,0.45,2,-0.015045764,0.3294,70,0,70,0,1,,,,,
,,353350,1,2023-07-06_15h44.58.015,arm3_ET_builderv2,2022.2.5,MacIntel,60.0024001,right,-1,0.55,0.45,2,-0.022094189,0.3454,71,0,71,0,1,,,,,
,,353350,1,2023-07-06_15h44.58.015,arm3_ET_builderv2,2022.2.5,MacIntel,60.0024001,right,-1,0.55,0.45,2,-0.021570782,1.4836,72,0,72,0,1,,,,,
,,353350,1,2023-07-06_15h44.58.015,arm3_ET_builderv2,2022.2.5,MacIntel,60.0024001,down,-1,0.55,0.45,2,0,0.6032,73,0,73,0,1,,,,,
,,353350,1,2023-07-06_15h44.58.015,arm3_ET_builderv2,2022.2.5,MacIntel,60.0024001,right,-1,0.55,0.45,2,-0.006423049,2.048,74,0,74,0,1,,,,,
,,353350,1,2023-07-06_15h44.58.015,arm3_ET_builderv2,2022.2.5,MacIntel,60.0024001,right,-1,0.55,0.45,2,-0.046370827,0.5694,75,0,75,0,1,,,,,
,,353350,1,2023-07-06_15h44.58.015,arm3_ET_builderv2,2022.2.5,MacIntel,60.0024001,right,-1,0.55,0.45,2,-0.037932696,0.605,76,0,76,0,1,,,,,
,,353350,1,2023-07-06_15h44.58.015,arm3_ET_builderv2,2022.2.5,MacIntel,60.0024001,down,1,0.55,0.45,2,0,0.3517,77,0,77,0,1,,,,,
,,353350,1,2023-07-06_15h44.58.015,arm3_ET_builderv2,2022.2.5,MacIntel,60.0024001,right,1,0.55,0.45,2,0.014950043,1.348,78,0,78,0,1,,,,,
,,353350,1,2023-07-06_15h44.58.015,arm3_ET_builderv2,2022.2.5,MacIntel,60.0024001,right,1,0.55,0.45,2,-0.004465811,0.421,79,0,79,0,1,,,,,
,,353350,1,2023-07-06_15h44.58.015,arm3_ET_builderv2,2022.2.5,MacIntel,60.0024001,right,1,0.55,0.45,2,-0.021222665,0.3829,80,0,80,0,1,,,,,
,,353350,1,2023-07-06_15h44.58.015,arm3_ET_builderv2,2022.2.5,MacIntel,60.0024001,right,1,0.55,0.45,2,0.005696458,0.4751,81,0,81,0,1,,,,,
,,353350,1,2023-07-06_15h44.58.015,arm3_ET_builderv2,2022.2.5,MacIntel,60.0024001,right,1,0.55,0.45,2,0.023575846,0.4,82,0,82,0,1,,,,,
,,353350,1,2023-07-06_15h44.58.015,arm3_ET_builderv2,2022.2.5,MacIntel,60.0024001,right,1,0.55,0.45,2,0.030320658,0.4665,83,0,83,0,1,,,,,
,,353350,1,2023-07-06_15h44.58.015,arm3_ET_builderv2,2022.2.5,MacIntel,60.0024001,right,1,0.55,0.45,2,0.015536624,0.4707,84,0,84,0,1,,,,,
,,353350,1,2023-07-06_15h44.58.015,arm3_ET_builderv2,2022.2.5,MacIntel,60.0024001,right,1,0.55,0.45,2,0.027829204,1.0807,85,0,85,0,1,,,,,
,,353350,1,2023-07-06_15h44.58.015,arm3_ET_builderv2,2022.2.5,MacIntel,60.0024001,up,1,0.55,0.45,2,0,0.6526,86,0,86,0,1,,,,,
,,353350,1,2023-07-06_15h44.58.015,arm3_ET_builderv2,2022.2.5,MacIntel,60.0024001,right,1,0.55,0.45,2,0.023667019,0.6386,87,0,87,0,1,,,,,
,,353350,1,2023-07-06_15h44.58.015,arm3_ET_builderv2,2022.2.5,MacIntel,60.0024001,right,1,0.55,0.45,2,0.028185309,0.3506,88,0,88,0,1,,,,,
,,353350,1,2023-07-06_15h44.58.015,arm3_ET_builderv2,2022.2.5,MacIntel,60.0024001,up,1,0.55,0.45,3,0,0.6327,89,0,89,0,1,,,,,
,,353350,1,2023-07-06_15h44.58.015,arm3_ET_builderv2,2022.2.5,MacIntel,60.0024001,right,1,0.55,0.45,3,0.004423675,0.918,90,0,90,0,1,,,,,
,,353350,1,2023-07-06_15h44.58.015,arm3_ET_builderv2,2022.2.5,MacIntel,60.0024001,right,1,0.55,0.45,3,0.016911268,0.3796,91,0,91,0,1,,,,,
,,353350,1,2023-07-06_15h44.58.015,arm3_ET_builderv2,2022.2.5,MacIntel,60.0024001,right,1,0.55,0.45,3,0.010866381,0.673,92,0,92,0,1,,,,,
,,353350,1,2023-07-06_15h44.58.015,arm3_ET_builderv2,2022.2.5,MacIntel,60.0024001,right,1,0.55,0.45,3,0.020205819,0.4998,93,0,93,0,1,,,,,
,,353350,1,2023-07-06_15h44.58.015,arm3_ET_builderv2,2022.2.5,MacIntel,60.0024001,up,-1,0.55,0.45,3,0,0.7174,94,0,94,0,1,,,,,
,,353350,1,2023-07-06_15h44.58.015,arm3_ET_builderv2,2022.2.5,MacIntel,60.0024001,right,-1,0.55,0.45,3,-0.018208187,0.6165,95,0,95,0,1,,,,,
,,353350,1,2023-07-06_15h44.58.015,arm3_ET_builderv2,2022.2.5,MacIntel,60.0024001,right,-1,0.55,0.45,3,-0.012858802,0.6854,96,0,96,0,1,,,,,
,,353350,1,2023-07-06_15h44.58.015,arm3_ET_builderv2,2022.2.5,MacIntel,60.0024001,right,-1,0.55,0.45,3,-0.013959253,0.4011,97,0,97,0,1,,,,,
,,353350,1,2023-07-06_15h44.58.015,arm3_ET_builderv2,2022.2.5,MacIntel,60.0024001,right,-1,0.55,0.45,3,-0.043512407,0.6004,98,0,98,0,1,,,,,
,,353350,1,2023-07-06_15h44.58.015,arm3_ET_builderv2,2022.2.5,MacIntel,60.0024001,right,-1,0.55,0.45,3,-0.022067326,0.5896,99,0,99,0,1,,,,,
,,353350,1,2023-07-06_15h44.58.015,arm3_ET_builderv2,2022.2.5,MacIntel,60.0024001,right,-1,0.55,0.45,3,-0.023878275,0.7242,100,0,100,0,1,,,,,
,,353350,1,2023-07-06_15h44.58.015,arm3_ET_builderv2,2022.2.5,MacIntel,60.0024001,right,-1,0.55,0.45,3,-0.018155186,0.4893,101,0,101,0,1,,,,,
,,353350,1,2023-07-06_15h44.58.015,arm3_ET_builderv2,2022.2.5,MacIntel,60.0024001,right,-1,0.55,0.45,3,0.002524542,0.6669,102,0,102,0,1,,,,,
,,353350,1,2023-07-06_15h44.58.015,arm3_ET_builderv2,2022.2.5,MacIntel,60.0024001,right,-1,0.55,0.45,3,-0.007972783,0.5484,103,0,103,0,1,,,,,
,,353350,1,2023-07-06_15h44.58.015,arm3_ET_builderv2,2022.2.5,MacIntel,60.0024001,down,-1,0.55,0.45,4,0,0.6151,104,0,104,0,1,,,,,
,,353350,1,2023-07-06_15h44.58.015,arm3_ET_builderv2,2022.2.5,MacIntel,60.0024001,right,-1,0.55,0.45,4,-0.007235009,1.348,105,0,105,0,1,,,,,
,,353350,1,2023-07-06_15h44.58.015,arm3_ET_builderv2,2022.2.5,MacIntel,60.0024001,right,-1,0.55,0.45,4,-0.006628603,1.6849,106,0,106,0,1,,,,,
,,353350,1,2023-07-06_15h44.58.015,arm3_ET_builderv2,2022.2.5,MacIntel,60.0024001,right,-1,0.55,0.45,4,-0.011016039,0.7335,107,0,107,0,1,,,,,
,,353350,1,2023-07-06_15h44.58.015,arm3_ET_builderv2,2022.2.5,MacIntel,60.0024001,right,-1,0.55,0.45,4,-0.015378011,0.5069,108,0,108,0,1,,,,,
,,353350,1,2023-07-06_15h44.58.015,arm3_ET_builderv2,2022.2.5,MacIntel,60.0024001,right,-1,0.55,0.45,4,0.002592766,0.7151,109,0,109,0,1,,,,,
,,353350,1,2023-07-06_15h44.58.015,arm3_ET_builderv2,2022.2.5,MacIntel,60.0024001,down,-1,0.55,0.45,4,0,0.6335,110,0,110,0,1,,,,,
,,353350,1,2023-07-06_15h44.58.015,arm3_ET_builderv2,2022.2.5,MacIntel,60.0024001,right,-1,0.55,0.45,4,0.009391735,0.5136,111,0,111,0,1,,,,,
,,353350,1,2023-07-06_15h44.58.015,arm3_ET_builderv2,2022.2.5,MacIntel,60.0024001,right,-1,0.55,0.45,4,0.01431834,0.4156,112,0,112,0,1,,,,,
,,353350,1,2023-07-06_15h44.58.015,arm3_ET_builderv2,2022.2.5,MacIntel,60.0024001,right,-1,0.55,0.45,4,0.008509618,0.3833,113,0,113,0,1,,,,,
,,353350,1,2023-07-06_15h44.58.015,arm3_ET_builderv2,2022.2.5,MacIntel,60.0024001,right,-1,0.55,0.45,4,-0.017554132,0.3992,114,0,114,0,1,,,,,
,,353350,1,2023-07-06_15h44.58.015,arm3_ET_builderv2,2022.2.5,MacIntel,60.0024001,right,-1,0.55,0.45,4,-0.018821285,0.4514,115,0,115,0,1,,,,,
,,353350,1,2023-07-06_15h44.58.015,arm3_ET_builderv2,2022.2.5,MacIntel,60.0024001,down,-1,0.55,0.45,5,0,0.5902,116,0,116,0,1,,,,,
,,353350,1,2023-07-06_15h44.58.015,arm3_ET_builderv2,2022.2.5,MacIntel,60.0024001,right,-1,0.55,0.45,5,0.000698183,2.5814,117,0,117,0,1,,,,,
,,353350,1,2023-07-06_15h44.58.015,arm3_ET_builderv2,2022.2.5,MacIntel,60.0024001,right,-1,0.55,0.45,5,-0.004146577,0.3918,118,0,118,0,1,,,,,
,,353350,1,2023-07-06_15h44.58.015,arm3_ET_builderv2,2022.2.5,MacIntel,60.0024001,right,-1,0.55,0.45,5,-0.01141921,0.4651,119,0,119,0,1,,,,,
,,353350,1,2023-07-06_15h44.58.015,arm3_ET_builderv2,2022.2.5,MacIntel,60.0024001,down,-1,0.55,0.45,5,0,1.0002,120,0,120,0,1,,,,,
,,353350,1,2023-07-06_15h44.58.015,arm3_ET_builderv2,2022.2.5,MacIntel,60.0024001,right,-1,0.55,0.45,5,-0.014398839,0.7653,121,0,121,0,1,,,,,
,,353350,1,2023-07-06_15h44.58.015,arm3_ET_builderv2,2022.2.5,MacIntel,60.0024001,right,-1,0.55,0.45,5,-0.011413035,0.3984,122,0,122,0,1,,,,,
,,353350,1,2023-07-06_15h44.58.015,arm3_ET_builderv2,2022.2.5,MacIntel,60.0024001,down,-1,0.55,0.45,6,0,0.7698,123,0,123,0,1,,,,,
,,353350,1,2023-07-06_15h44.58.015,arm3_ET_builderv2,2022.2.5,MacIntel,60.0024001,right,-1,0.55,0.45,6,-0.005130369,0.5321,124,0,124,0,1,,,,,
,,353350,1,2023-07-06_15h44.58.015,arm3_ET_builderv2,2022.2.5,MacIntel,60.0024001,right,-1,0.55,0.45,6,-0.039740453,0.3489,125,0,125,0,1,,,,,
,,353350,1,2023-07-06_15h44.58.015,arm3_ET_builderv2,2022.2.5,MacIntel,60.0024001,down,1,0.55,0.45,7,0,0.3515,126,0,126,0,1,,,,,
,,353350,1,2023-07-06_15h44.58.015,arm3_ET_builderv2,2022.2.5,MacIntel,60.0024001,right,1,0.55,0.45,7,0.007119024,0.5655,127,0,127,0,1,,,,,
,,353350,1,2023-07-06_15h44.58.015,arm3_ET_builderv2,2022.2.5,MacIntel,60.0024001,right,1,0.55,0.45,7,0.003044665,0.4294,128,0,128,0,1,,,,,
,,353350,1,2023-07-06_15h44.58.015,arm3_ET_builderv2,2022.2.5,MacIntel,60.0024001,right,1,0.55,0.45,7,-0.018645409,0.5006,129,0,129,0,1,,,,,
,,353350,1,2023-07-06_15h44.58.015,arm3_ET_builderv2,2022.2.5,MacIntel,60.0024001,down,-1,0.55,0.45,7,0,0.5557,130,0,130,0,1,,,,,
,,353350,1,2023-07-06_15h44.58.015,arm3_ET_builderv2,2022.2.5,MacIntel,60.0024001,right,-1,0.55,0.45,7,-0.007385477,0.4464,131,0,131,0,1,,,,,
,,353350,1,2023-07-06_15h44.58.015,arm3_ET_builderv2,2022.2.5,MacIntel,60.0024001,right,-1,0.55,0.45,7,0.003809055,0.3758,132,0,132,0,1,,,,,
,,353350,1,2023-07-06_15h44.58.015,arm3_ET_builderv2,2022.2.5,MacIntel,60.0024001,right,-1,0.55,0.45,7,0.001520997,0.3504,133,0,133,0,1,,,,,
,,353350,1,2023-07-06_15h44.58.015,arm3_ET_builderv2,2022.2.5,MacIntel,60.0024001,right,-1,0.55,0.45,7,0.004258554,0.4128,134,0,134,0,1,,,,,
,,353350,1,2023-07-06_15h44.58.015,arm3_ET_builderv2,2022.2.5,MacIntel,60.0024001,right,-1,0.55,0.45,7,-0.008004036,0.6344,135,0,135,0,1,,,,,
,,353350,1,2023-07-06_15h44.58.015,arm3_ET_builderv2,2022.2.5,MacIntel,60.0024001,right,-1,0.55,0.45,7,0.02029132,1.1977,136,0,136,0,1,,,,,
,,353350,1,2023-07-06_15h44.58.015,arm3_ET_builderv2,2022.2.5,MacIntel,60.0024001,up,-1,0.55,0.45,6,0,0.4503,137,0,137,0,1,,,,,
,,353350,1,2023-07-06_15h44.58.015,arm3_ET_builderv2,2022.2.5,MacIntel,60.0024001,right,-1,0.55,0.45,6,-0.006771789,1.101,138,0,138,0,1,,,,,
,,353350,1,2023-07-06_15h44.58.015,arm3_ET_builderv2,2022.2.5,MacIntel,60.0024001,right,-1,0.55,0.45,6,-0.002957406,0.383,139,0,139,0,1,,,,,
,,353350,1,2023-07-06_15h44.58.015,arm3_ET_builderv2,2022.2.5,MacIntel,60.0024001,right,-1,0.55,0.45,6,-0.049189032,0.3521,140,0,140,0,1,,,,,
,,353350,1,2023-07-06_15h44.58.015,arm3_ET_builderv2,2022.2.5,MacIntel,60.0024001,down,-1,0.55,0.45,6,0,0.3848,141,0,141,0,1,,,,,
,,353350,1,2023-07-06_15h44.58.015,arm3_ET_builderv2,2022.2.5,MacIntel,60.0024001,right,-1,0.55,0.45,6,-0.025850433,0.8141,142,0,142,0,1,,,,,
,,353350,1,2023-07-06_15h44.58.015,arm3_ET_builderv2,2022.2.5,MacIntel,60.0024001,right,-1,0.55,0.45,6,-0.025961912,0.2832,143,0,143,0,1,,,,,
,,353350,1,2023-07-06_15h44.58.015,arm3_ET_builderv2,2022.2.5,MacIntel,60.0024001,right,-1,0.55,0.45,6,-0.039414417,0.2671,144,0,144,0,1,,,,,
,,353350,1,2023-07-06_15h44.58.015,arm3_ET_builderv2,2022.2.5,MacIntel,60.0024001,right,-1,0.55,0.45,6,-0.033665564,1.1348,145,0,145,0,1,,,,,
,,353350,1,2023-07-06_15h44.58.015,arm3_ET_builderv2,2022.2.5,MacIntel,60.0024001,right,-1,0.55,0.45,6,-0.030014542,0.6626,146,0,146,0,1,,,,,
,,353350,1,2023-07-06_15h44.58.015,arm3_ET_builderv2,2022.2.5,MacIntel,60.0024001,right,-1,0.55,0.45,6,-0.008619567,0.4,147,0,147,0,1,,,,,
,,353350,1,2023-07-06_15h44.58.015,arm3_ET_builderv2,2022.2.5,MacIntel,60.0024001,right,-1,0.55,0.45,6,-0.019445765,0.4384,148,0,148,0,1,,,,,
,,353350,1,2023-07-06_15h44.58.015,arm3_ET_builderv2,2022.2.5,MacIntel,60.0024001,down,1,0.55,0.45,6,0,0.5693,149,0,149,0,1,,,,,
,,353350,1,2023-07-06_15h44.58.015,arm3_ET_builderv2,2022.2.5,MacIntel,60.0024001,right,1,0.55,0.45,6,-0.019645293,0.4967,150,0,150,0,1,,,,,
,,353350,1,2023-07-06_15h44.58.015,arm3_ET_builderv2,2022.2.5,MacIntel,60.0024001,right,1,0.55,0.45,6,-0.017701271,0.3801,151,0,151,0,1,,,,,
,,353350,1,2023-07-06_15h44.58.015,arm3_ET_builderv2,2022.2.5,MacIntel,60.0024001,right,1,0.55,0.45,6,0.013755639,0.5509,152,0,152,0,1,,,,,
,,353350,1,2023-07-06_15h44.58.015,arm3_ET_builderv2,2022.2.5,MacIntel,60.0024001,right,1,0.55,0.45,6,0.025403544,0.3318,153,0,153,0,1,,,,,
,,353350,1,2023-07-06_15h44.58.015,arm3_ET_builderv2,2022.2.5,MacIntel,60.0024001,right,1,0.55,0.45,6,0.019179143,0.3497,154,0,154,0,1,,,,,
,,353350,1,2023-07-06_15h44.58.015,arm3_ET_builderv2,2022.2.5,MacIntel,60.0024001,up,1,0.55,0.45,7,0,0.557,155,0,155,0,1,,,,,
,,353350,1,2023-07-06_15h44.58.015,arm3_ET_builderv2,2022.2.5,MacIntel,60.0024001,right,1,0.55,0.45,7,0.004148834,0.5158,156,0,156,0,1,,,,,
,,353350,1,2023-07-06_15h44.58.015,arm3_ET_builderv2,2022.2.5,MacIntel,60.0024001,right,1,0.55,0.45,7,0.013316118,0.3685,157,0,157,0,1,,,,,
,,353350,1,2023-07-06_15h44.58.015,arm3_ET_builderv2,2022.2.5,MacIntel,60.0024001,right,1,0.55,0.45,7,0.029069158,0.3187,158,0,158,0,1,,,,,
,,353350,1,2023-07-06_15h44.58.015,arm3_ET_builderv2,2022.2.5,MacIntel,60.0024001,up,1,0.55,0.45,8,0,0.4515,159,0,159,0,1,,,,,
,,353350,1,2023-07-06_15h44.58.015,arm3_ET_builderv2,2022.2.5,MacIntel,60.0024001,right,1,0.55,0.45,8,0.00798341,0.3847,160,0,160,0,1,,,,,
,,353350,1,2023-07-06_15h44.58.015,arm3_ET_builderv2,2022.2.5,MacIntel,60.0024001,right,1,0.55,0.45,8,0.014028543,0.3668,161,0,161,0,1,,,,,
,,353350,1,2023-07-06_15h44.58.015,arm3_ET_builderv2,2022.2.5,MacIntel,60.0024001,right,1,0.55,0.45,8,0.012699852,0.3147,162,0,162,0,1,,,,,
,,353350,1,2023-07-06_15h44.58.015,arm3_ET_builderv2,2022.2.5,MacIntel,60.0024001,up,-1,0.55,0.45,9,0,0.6184,163,0,163,0,1,,,,,
,,353350,1,2023-07-06_15h44.58.015,arm3_ET_builderv2,2022.2.5,MacIntel,60.0024001,right,-1,0.55,0.45,9,-0.008285835,0.4158,164,0,164,0,1,,,,,
,,353350,1,2023-07-06_15h44.58.015,arm3_ET_builderv2,2022.2.5,MacIntel,60.0024001,right,-1,0.55,0.45,9,-0.003974117,0.3803,165,0,165,0,1,,,,,
,,353350,1,2023-07-06_15h44.58.015,arm3_ET_builderv2,2022.2.5,MacIntel,60.0024001,right,-1,0.55,0.45,9,-0.017688872,0.3555,166,0,166,0,1,,,,,
,,353350,1,2023-07-06_15h44.58.015,arm3_ET_builderv2,2022.2.5,MacIntel,60.0024001,right,-1,0.55,0.45,9,0.007388958,0.5258,167,0,167,0,1,,,,,
,,353350,1,2023-07-06_15h44.58.015,arm3_ET_builderv2,2022.2.5,MacIntel,60.0024001,up,-1,0.55,0.45,9,0,1.7359,168,0,168,0,1,,,,,
,,353350,1,2023-07-06_15h44.58.015,arm3_ET_builderv2,2022.2.5,MacIntel,60.0024001,right,-1,0.55,0.45,9,-0.016268635,0.8274,169,0,169,0,1,,,,,
,,353350,1,2023-07-06_15h44.58.015,arm3_ET_builderv2,2022.2.5,MacIntel,60.0024001,right,-1,0.55,0.45,9,-0.020253303,0.2664,170,0,170,0,1,,,,,
,,353350,1,2023-07-06_15h44.58.015,arm3_ET_builderv2,2022.2.5,MacIntel,60.0024001,right,-1,0.55,0.45,9,-0.058822993,0.264,171,0,171,0,1,,,,,
,,353350,1,2023-07-06_15h44.58.015,arm3_ET_builderv2,2022.2.5,MacIntel,60.0024001,down,1,0.55,0.45,10,0,0.4057,172,0,172,0,1,,,,,
,,353350,1,2023-07-06_15h44.58.015,arm3_ET_builderv2,2022.2.5,MacIntel,60.0024001,right,1,0.55,0.45,10,0.008843713,0.5982,173,0,173,0,1,,,,,
,,353350,1,2023-07-06_15h44.58.015,arm3_ET_builderv2,2022.2.5,MacIntel,60.0024001,right,1,0.55,0.45,10,0.018910614,0.3628,174,0,174,0,1,,,,,
,,353350,1,2023-07-06_15h44.58.015,arm3_ET_builderv2,2022.2.5,MacIntel,60.0024001,right,1,0.55,0.45,10,0.056601013,0.3308,175,0,175,0,1,,,,,
,,353350,1,2023-07-06_15h44.58.015,arm3_ET_builderv2,2022.2.5,MacIntel,60.0024001,up,-1,0.55,0.45,11,0,1.4695,176,0,176,0,1,,,,,
,,353350,1,2023-07-06_15h44.58.015,arm3_ET_builderv2,2022.2.5,MacIntel,60.0024001,right,-1,0.55,0.45,11,-0.011260396,0.6525,177,0,177,0,1,,,,,
,,353350,1,2023-07-06_15h44.58.015,arm3_ET_builderv2,2022.2.5,MacIntel,60.0024001,right,-1,0.55,0.45,11,-0.030163902,0.3403,178,0,178,0,1,,,,,
,,353350,1,2023-07-06_15h44.58.015,arm3_ET_builderv2,2022.2.5,MacIntel,60.0024001,right,-1,0.55,0.45,11,-0.049432694,0.3674,179,0,179,0,1,,,,,
,,353350,1,2023-07-06_15h44.58.015,arm3_ET_builderv2,2022.2.5,MacIntel,60.0024001,down,1,0.55,0.45,11,0,0.6146,180,0,180,0,1,,,,,
,,353350,1,2023-07-06_15h44.58.015,arm3_ET_builderv2,2022.2.5,MacIntel,60.0024001,right,1,0.55,0.45,11,0.010641454,0.4969,181,0,181,0,1,,,,,
,,353350,1,2023-07-06_15h44.58.015,arm3_ET_builderv2,2022.2.5,MacIntel,60.0024001,right,1,0.55,0.45,11,0.027428807,0.5645,182,0,182,0,1,,,,,
,,353350,1,2023-07-06_15h44.58.015,arm3_ET_builderv2,2022.2.5,MacIntel,60.0024001,right,1,0.55,0.45,11,0.012203337,0.4653,183,0,183,0,1,,,,,
,,353350,1,2023-07-06_15h44.58.015,arm3_ET_builderv2,2022.2.5,MacIntel,60.0024001,right,1,0.55,0.45,11,0.019231002,0.8325,184,0,184,0,1,,,,,
,,353350,1,2023-07-06_15h44.58.015,arm3_ET_builderv2,2022.2.5,MacIntel,60.0024001,up,1,0.55,0.45,11,0,0.3308,185,0,185,0,1,,,,,
,,353350,1,2023-07-06_15h44.58.015,arm3_ET_builderv2,2022.2.5,MacIntel,60.0024001,right,1,0.55,0.45,11,0.003444861,0.5472,186,0,186,0,1,,,,,
,,353350,1,2023-07-06_15h44.58.015,arm3_ET_builderv2,2022.2.5,MacIntel,60.0024001,right,1,0.55,0.45,11,0.03686271,0.3322,187,0,187,0,1,,,,,
,,353350,1,2023-07-06_15h44.58.015,arm3_ET_builderv2,2022.2.5,MacIntel,60.0024001,right,1,0.55,0.45,11,0.035048906,0.6278,188,0,188,0,1,,,,,
,,353350,1,2023-07-06_15h44.58.015,arm3_ET_builderv2,2022.2.5,MacIntel,60.0024001,right,1,0.55,0.45,11,0.038487715,0.4512,189,0,189,0,1,,,,,
,,353350,1,2023-07-06_15h44.58.015,arm3_ET_builderv2,2022.2.5,MacIntel,60.0024001,right,1,0.55,0.45,11,0.013062312,0.581,190,0,190,0,1,,,,,
,,353350,1,2023-07-06_15h44.58.015,arm3_ET_builderv2,2022.2.5,MacIntel,60.0024001,right,1,0.55,0.45,11,0.005278369,0.3164,191,0,191,0,1,,,,,
,,353350,1,2023-07-06_15h44.58.015,arm3_ET_builderv2,2022.2.5,MacIntel,60.0024001,right,1,0.55,0.45,11,-0.003625826,0.3852,192,0,192,0,1,,,,,
,,353350,1,2023-07-06_15h44.58.015,arm3_ET_builderv2,2022.2.5,MacIntel,60.0024001,up,1,0.55,0.45,12,0,0.6474,193,0,193,0,1,,,,,
,,353350,1,2023-07-06_15h44.58.015,arm3_ET_builderv2,2022.2.5,MacIntel,60.0024001,right,1,0.55,0.45,12,0.00717445,0.5381,194,0,194,0,1,,,,,
,,353350,1,2023-07-06_15h44.58.015,arm3_ET_builderv2,2022.2.5,MacIntel,60.0024001,right,1,0.55,0.45,12,0.023101438,0.4189,195,0,195,0,1,,,,,
,,353350,1,2023-07-06_15h44.58.015,arm3_ET_builderv2,2022.2.5,MacIntel,60.0024001,right,1,0.55,0.45,12,0.010185871,0.5985,196,0,196,0,1,,,,,
,,353350,1,2023-07-06_15h44.58.015,arm3_ET_builderv2,2022.2.5,MacIntel,60.0024001,right,1,0.55,0.45,12,-0.002491348,0.662,197,0,197,0,1,,,,,
,,353350,1,2023-07-06_15h44.58.015,arm3_ET_builderv2,2022.2.5,MacIntel,60.0024001,up,1,0.55,0.45,12,0,0.8151,198,0,198,0,1,,,,,
,,353350,1,2023-07-06_15h44.58.015,arm3_ET_builderv2,2022.2.5,MacIntel,60.0024001,right,1,0.55,0.45,12,-0.024025495,0.5171,199,0,199,0,1,,,,,
,,353350,1,2023-07-06_15h44.58.015,arm3_ET_builderv2,2022.2.5,MacIntel,60.0024001,right,1,0.55,0.45,12,-0.00376361,1.0917,200,0,200,0,1,,,,,
,,353350,1,2023-07-06_15h44.58.015,arm3_ET_builderv2,2022.2.5,MacIntel,60.0024001,up,1,0.55,0.45,13,0,0.6985,201,0,201,0,1,,,,,
,,353350,1,2023-07-06_15h44.58.015,arm3_ET_builderv2,2022.2.5,MacIntel,60.0024001,right,1,0.55,0.45,13,0.02929269,0.4121,202,0,202,0,1,,,,,
,,353350,1,2023-07-06_15h44.58.015,arm3_ET_builderv2,2022.2.5,MacIntel,60.0024001,right,1,0.55,0.45,13,0.054444884,0.9489,203,0,203,0,1,,,,,
,,353350,1,2023-07-06_15h44.58.015,arm3_ET_builderv2,2022.2.5,MacIntel,60.0024001,right,1,0.55,0.45,13,0.051229766,0.8526,204,0,204,0,1,,,,,
,,353350,1,2023-07-06_15h44.58.015,arm3_ET_builderv2,2022.2.5,MacIntel,60.0024001,up,1,0.55,0.45,14,0,0.617,205,0,205,0,1,,,,,
,,353350,1,2023-07-06_15h44.58.015,arm3_ET_builderv2,2022.2.5,MacIntel,60.0024001,right,1,0.55,0.45,14,0.036263162,0.3854,206,0,206,0,1,,,,,
,,353350,1,2023-07-06_15h44.58.015,arm3_ET_builderv2,2022.2.5,MacIntel,60.0024001,up,1,0.55,0.45,15,0,0.8209,207,0,207,0,1,,,,,
,,353350,1,2023-07-06_15h44.58.015,arm3_ET_builderv2,2022.2.5,MacIntel,60.0024001,right,1,0.55,0.45,15,0.001991792,0.5313,208,0,208,0,1,,,,,
,,353350,1,2023-07-06_15h44.58.015,arm3_ET_builderv2,2022.2.5,MacIntel,60.0024001,right,1,0.55,0.45,15,0.017395955,0.8836,209,0,209,0,1,,,,,
,,353350,1,2023-07-06_15h44.58.015,arm3_ET_builderv2,2022.2.5,MacIntel,60.0024001,up,1,0.55,0.45,15,0,0.7684,210,0,210,0,1,,,,,
,,353350,1,2023-07-06_15h44.58.015,arm3_ET_builderv2,2022.2.5,MacIntel,60.0024001,right,1,0.55,0.45,15,0.036894853,0.5825,211,0,211,0,1,,,,,
,,353350,1,2023-07-06_15h44.58.015,arm3_ET_builderv2,2022.2.5,MacIntel,60.0024001,up,1,0.55,0.45,15,0,0.6324,212,0,212,0,1,,,,,
,,353350,1,2023-07-06_15h44.58.015,arm3_ET_builderv2,2022.2.5,MacIntel,60.0024001,right,1,0.55,0.45,15,0.016307011,0.5914,213,0,213,0,1,,,,,
,,353350,1,2023-07-06_15h44.58.015,arm3_ET_builderv2,2022.2.5,MacIntel,60.0024001,right,1,0.55,0.45,15,0.01676021,1.387,214,0,214,0,1,,,,,
,,353350,1,2023-07-06_15h44.58.015,arm3_ET_builderv2,2022.2.5,MacIntel,60.0024001,up,-1,0.55,0.45,16,0,1.5941,215,0,215,0,1,,,,,
,,353350,1,2023-07-06_15h44.58.015,arm3_ET_builderv2,2022.2.5,MacIntel,60.0024001,right,-1,0.55,0.45,16,-0.036479083,0.3829,216,0,216,0,1,,,,,
,,353350,1,2023-07-06_15h44.58.015,arm3_ET_builderv2,2022.2.5,MacIntel,60.0024001,right,-1,0.55,0.45,16,-0.031849117,0.8529,217,0,217,0,1,,,,,
,,353350,1,2023-07-06_15h44.58.015,arm3_ET_builderv2,2022.2.5,MacIntel,60.0024001,down,1,0.55,0.45,17,0,1.2032,218,0,218,0,1,,,,,
,,353350,1,2023-07-06_15h44.58.015,arm3_ET_builderv2,2022.2.5,MacIntel,60.0024001,right,1,0.55,0.45,17,-0.020741642,0.4653,219,0,219,0,1,,,,,
,,353350,1,2023-07-06_15h44.58.015,arm3_ET_builderv2,2022.2.5,MacIntel,60.0024001,right,1,0.55,0.45,17,-0.026180552,0.3972,220,0,220,0,1,,,,,
,,353350,1,2023-07-06_15h44.58.015,arm3_ET_builderv2,2022.2.5,MacIntel,60.0024001,right,1,0.55,0.45,17,-0.017557281,0.6054,221,0,221,0,1,,,,,
,,353350,1,2023-07-06_15h44.58.015,arm3_ET_builderv2,2022.2.5,MacIntel,60.0024001,right,1,0.55,0.45,17,-0.021548159,0.4489,222,0,222,0,1,,,,,
,,353350,1,2023-07-06_15h44.58.015,arm3_ET_builderv2,2022.2.5,MacIntel,60.0024001,right,1,0.55,0.45,17,0.012567372,0.7334,223,0,223,0,1,,,,,
,,353350,1,2023-07-06_15h44.58.015,arm3_ET_builderv2,2022.2.5,MacIntel,60.0024001,right,1,0.55,0.45,17,0.01276645,0.8032,224,0,224,0,1,,,,,
,,353350,1,2023-07-06_15h44.58.015,arm3_ET_builderv2,2022.2.5,MacIntel,60.0024001,right,1,0.55,0.45,17,0.014905977,0.4338,225,0,225,0,1,,,,,
,,353350,1,2023-07-06_15h44.58.015,arm3_ET_builderv2,2022.2.5,MacIntel,60.0024001,right,1,0.55,0.45,17,-0.00922972,0.5346,226,0,226,0,1,,,,,
,,353350,1,2023-07-06_15h44.58.015,arm3_ET_builderv2,2022.2.5,MacIntel,60.0024001,right,1,0.55,0.45,17,0.008285296,0.5714,227,0,227,0,1,,,,,
,,353350,1,2023-07-06_15h44.58.015,arm3_ET_builderv2,2022.2.5,MacIntel,60.0024001,up,1,0.55,0.45,18,0,0.4432,228,0,228,0,1,,,,,
,,353350,1,2023-07-06_15h44.58.015,arm3_ET_builderv2,2022.2.5,MacIntel,60.0024001,right,1,0.55,0.45,18,-0.002561719,0.5326,229,0,229,0,1,,,,,
,,353350,1,2023-07-06_15h44.58.015,arm3_ET_builderv2,2022.2.5,MacIntel,60.0024001,right,1,0.55,0.45,18,0.002342596,0.4358,230,0,230,0,1,,,,,
,,353350,1,2023-07-06_15h44.58.015,arm3_ET_builderv2,2022.2.5,MacIntel,60.0024001,right,1,0.55,0.45,18,0.008472622,0.3667,231,0,231,0,1,,,,,
,,353350,1,2023-07-06_15h44.58.015,arm3_ET_builderv2,2022.2.5,MacIntel,60.0024001,up,1,0.55,0.45,18,0,0.5732,232,0,232,0,1,,,,,
,,353350,1,2023-07-06_15h44.58.015,arm3_ET_builderv2,2022.2.5,MacIntel,60.0024001,right,1,0.55,0.45,18,0.002201436,0.4839,233,0,233,0,1,,,,,
,,353350,1,2023-07-06_15h44.58.015,arm3_ET_builderv2,2022.2.5,MacIntel,60.0024001,right,1,0.55,0.45,18,0.017886314,0.4029,234,0,234,0,1,,,,,
,,353350,1,2023-07-06_15h44.58.015,arm3_ET_builderv2,2022.2.5,MacIntel,60.0024001,right,1,0.55,0.45,18,0.041435532,0.4029,235,0,235,0,1,,,,,
,,353350,1,2023-07-06_15h44.58.015,arm3_ET_builderv2,2022.2.5,MacIntel,60.0024001,up,1,0.55,0.45,19,0,0.3003,236,0,236,0,1,,,,,
,,353350,1,2023-07-06_15h44.58.015,arm3_ET_builderv2,2022.2.5,MacIntel,60.0024001,right,1,0.55,0.45,19,-0.013762909,0.3711,237,0,237,0,1,,,,,
,,353350,1,2023-07-06_15h44.58.015,arm3_ET_builderv2,2022.2.5,MacIntel,60.0024001,right,1,0.55,0.45,19,-0.003220249,0.3624,238,0,238,0,1,,,,,
,,353350,1,2023-07-06_15h44.58.015,arm3_ET_builderv2,2022.2.5,MacIntel,60.0024001,right,1,0.55,0.45,19,0.011375725,0.3348,239,0,239,0,1,,,,,
,,353350,1,2023-07-06_15h44.58.015,arm3_ET_builderv2,2022.2.5,MacIntel,60.0024001,up,1,0.55,0.45,20,0,0.4539,240,0,240,0,1,,,,,
,,353350,1,2023-07-06_15h44.58.015,arm3_ET_builderv2,2022.2.5,MacIntel,60.0024001,right,1,0.55,0.45,20,0.001016155,0.3327,241,0,241,0,1,,,,,
,,353350,1,2023-07-06_15h44.58.015,arm3_ET_builderv2,2022.2.5,MacIntel,60.0024001,right,1,0.55,0.45,20,0.006757907,0.3699,242,0,242,0,1,,,,,
,,353350,1,2023-07-06_15h44.58.015,arm3_ET_builderv2,2022.2.5,MacIntel,60.0024001,right,1,0.55,0.45,20,0.01982081,0.3006,243,0,243,0,1,,,,,
,,353350,1,2023-07-06_15h44.58.015,arm3_ET_builderv2,2022.2.5,MacIntel,60.0024001,right,1,0.55,0.45,20,0.028301273,0.397,244,0,244,0,1,,,,,
,,353350,1,2023-07-06_15h44.58.015,arm3_ET_builderv2,2022.2.5,MacIntel,60.0024001,up,1,0.55,0.45,21,0,0.3186,245,0,245,0,1,,,,,
,,353350,1,2023-07-06_15h44.58.015,arm3_ET_builderv2,2022.2.5,MacIntel,60.0024001,right,1,0.55,0.45,21,0.017221925,0.5177,246,0,246,0,1,,,,,
,,353350,1,2023-07-06_15h44.58.015,arm3_ET_builderv2,2022.2.5,MacIntel,60.0024001,up,-1,0.55,0.45,22,0,0.7861,247,0,247,0,1,,,,,
,,353350,1,2023-07-06_15h44.58.015,arm3_ET_builderv2,2022.2.5,MacIntel,60.0024001,right,-1,0.55,0.45,22,-0.004594289,0.3526,248,0,248,0,1,,,,,
,,353350,1,2023-07-06_15h44.58.015,arm3_ET_builderv2,2022.2.5,MacIntel,60.0024001,right,-1,0.55,0.45,22,0.013336045,0.7069,249,0,249,0,1,,,,,
,,353350,1,2023-07-06_15h44.58.015,arm3_ET_builderv2,2022.2.5,MacIntel,60.0024001,right,-1,0.55,0.45,22,0.012142935,0.7312,250,0,250,0,1,,,,,
,,353350,1,2023-07-06_15h44.58.015,arm3_ET_builderv2,2022.2.5,MacIntel,60.0024001,down,-1,0.55,0.45,23,0,0.6649,251,0,251,0,1,,,,,
,,353350,1,2023-07-06_15h44.58.015,arm3_ET_builderv2,2022.2.5,MacIntel,60.0024001,right,-1,0.55,0.45,23,0.012074499,0.5177,252,0,252,0,1,,,,,
,,353350,1,2023-07-06_15h44.58.015,arm3_ET_builderv2,2022.2.5,MacIntel,60.0024001,right,-1,0.55,0.45,23,-0.004602235,1.3852,253,0,253,0,1,,,,,
,,353350,1,2023-07-06_15h44.58.015,arm3_ET_builderv2,2022.2.5,MacIntel,60.0024001,down,1,0.55,0.45,24,0,0.4008,254,0,254,0,1,,,,,
,,353350,1,2023-07-06_15h44.58.015,arm3_ET_builderv2,2022.2.5,MacIntel,60.0024001,right,1,0.55,0.45,24,0.008749401,0.4032,255,0,255,0,1,,,,,
,,353350,1,2023-07-06_15h44.58.015,arm3_ET_builderv2,2022.2.5,MacIntel,60.0024001,right,1,0.55,0.45,24,-0.014153572,0.4332,256,0,256,0,1,,,,,
,,353350,1,2023-07-06_15h44.58.015,arm3_ET_builderv2,2022.2.5,MacIntel,60.0024001,right,1,0.55,0.45,24,-0.012768107,0.6347,257,0,257,0,1,,,,,
,,353350,1,2023-07-06_15h44.58.015,arm3_ET_builderv2,2022.2.5,MacIntel,60.0024001,right,1,0.55,0.45,24,-0.001754452,0.899,258,0,258,0,1,,,,,
,,353350,1,2023-07-06_15h44.58.015,arm3_ET_builderv2,2022.2.5,MacIntel,60.0024001,up,1,0.55,0.45,25,0,0.4123,259,0,259,0,1,,,,,
,,353350,1,2023-07-06_15h44.58.015,arm3_ET_builderv2,2022.2.5,MacIntel,60.0024001,right,1,0.55,0.45,25,0.018165917,0.4051,260,0,260,0,1,,,,,
,,353350,1,2023-07-06_15h44.58.015,arm3_ET_builderv2,2022.2.5,MacIntel,60.0024001,right,1,0.55,0.45,25,0.023044761,0.3844,261,0,261,0,1,,,,,
,,353350,1,2023-07-06_15h44.58.015,arm3_ET_builderv2,2022.2.5,MacIntel,60.0024001,up,-1,0.55,0.45,26,0,0.4655,262,0,262,0,1,,,,,
,,353350,1,2023-07-06_15h44.58.015,arm3_ET_builderv2,2022.2.5,MacIntel,60.0024001,right,-1,0.55,0.45,26,-0.0242768,0.3012,263,0,263,0,1,,,,,
,,353350,1,2023-07-06_15h44.58.015,arm3_ET_builderv2,2022.2.5,MacIntel,60.0024001,right,-1,0.55,0.45,26,-0.018565181,0.9991,264,0,264,0,1,,,,,
,,353350,1,2023-07-06_15h44.58.015,arm3_ET_builderv2,2022.2.5,MacIntel,60.0024001,down,-1,0.55,0.45,27,0,0.4668,265,0,265,0,1,,,,,
,,353350,1,2023-07-06_15h44.58.015,arm3_ET_builderv2,2022.2.5,MacIntel,60.0024001,right,-1,0.55,0.45,27,-0.005139319,0.333,266,0,266,0,1,,,,,
,,353350,1,2023-07-06_15h44.58.015,arm3_ET_builderv2,2022.2.5,MacIntel,60.0024001,right,-1,0.55,0.45,27,-0.008786382,0.4315,267,0,267,0,1,,,,,
,,353350,1,2023-07-06_15h44.58.015,arm3_ET_builderv2,2022.2.5,MacIntel,60.0024001,down,-1,0.55,0.45,27,0,0.6342,268,0,268,0,1,,,,,
,,353350,1,2023-07-06_15h44.58.015,arm3_ET_builderv2,2022.2.5,MacIntel,60.0024001,right,-1,0.55,0.45,27,0.005774481,0.6704,269,0,269,0,1,,,,,
,,353350,1,2023-07-06_15h44.58.015,arm3_ET_builderv2,2022.2.5,MacIntel,60.0024001,right,-1,0.55,0.45,27,-0.011891478,1.314,270,0,270,0,1,,,,,
,,353350,1,2023-07-06_15h44.58.015,arm3_ET_builderv2,2022.2.5,MacIntel,60.0024001,right,-1,0.55,0.45,27,-0.013535415,0.5146,271,0,271,0,1,,,,,
,,353350,1,2023-07-06_15h44.58.015,arm3_ET_builderv2,2022.2.5,MacIntel,60.0024001,down,1,0.55,0.45,27,0,1.1804,272,0,272,0,1,,,,,
,,353350,1,2023-07-06_15h44.58.015,arm3_ET_builderv2,2022.2.5,MacIntel,60.0024001,right,1,0.55,0.45,27,0.016682688,0.4492,273,0,273,0,1,,,,,
,,353350,1,2023-07-06_15h44.58.015,arm3_ET_builderv2,2022.2.5,MacIntel,60.0024001,up,1,0.55,0.45,27,0,0.6459,274,0,274,0,1,,,,,
,,353350,1,2023-07-06_15h44.58.015,arm3_ET_builderv2,2022.2.5,MacIntel,60.0024001,right,1,0.55,0.45,27,0.035803131,1.3019,275,0,275,0,1,,,,,
,,353350,1,2023-07-06_15h44.58.015,arm3_ET_builderv2,2022.2.5,MacIntel,60.0024001,up,1,0.55,0.45,28,0,0.3312,276,0,276,0,1,,,,,
,,353350,1,2023-07-06_15h44.58.015,arm3_ET_builderv2,2022.2.5,MacIntel,60.0024001,right,1,0.55,0.45,28,0.033056468,0.4135,277,0,277,0,1,,,,,
,,353350,1,2023-07-06_15h44.58.015,arm3_ET_builderv2,2022.2.5,MacIntel,60.0024001,up,1,0.55,0.45,29,0,0.531,278,0,278,0,1,,,,,
,,353350,1,2023-07-06_15h44.58.015,arm3_ET_builderv2,2022.2.5,MacIntel,60.0024001,right,1,0.55,0.45,29,-0.01326402,0.3814,279,0,279,0,1,,,,,
,,353350,1,2023-07-06_15h44.58.015,arm3_ET_builderv2,2022.2.5,MacIntel,60.0024001,down,1,0.55,0.45,29,0,0.7546,280,0,280,0,1,,,,,
,,353350,1,2023-07-06_15h44.58.015,arm3_ET_builderv2,2022.2.5,MacIntel,60.0024001,right,1,0.55,0.45,29,-0.00039127,0.58,281,0,281,0,1,,,,,
,,353350,1,2023-07-06_15h44.58.015,arm3_ET_builderv2,2022.2.5,MacIntel,60.0024001,right,1,0.55,0.45,29,0.009208999,0.4848,282,0,282,0,1,,,,,
,,353350,1,2023-07-06_15h44.58.015,arm3_ET_builderv2,2022.2.5,MacIntel,60.0024001,right,1,0.55,0.45,29,-0.010535291,0.5213,283,0,283,0,1,,,,,
,,353350,1,2023-07-06_15h44.58.015,arm3_ET_builderv2,2022.2.5,MacIntel,60.0024001,right,1,0.55,0.45,29,0.003158722,0.5834,284,0,284,0,1,,,,,
,,353350,1,2023-07-06_15h44.58.015,arm3_ET_builderv2,2022.2.5,MacIntel,60.0024001,up,-1,0.55,0.45,30,0,0.5348,285,0,285,0,1,,,,,
,,353350,1,2023-07-06_15h44.58.015,arm3_ET_builderv2,2022.2.5,MacIntel,60.0024001,right,-1,0.55,0.45,30,0.023538633,0.392,286,0,286,0,1,,,,,
,,353350,1,2023-07-06_15h44.58.015,arm3_ET_builderv2,2022.2.5,MacIntel,60.0024001,right,-1,0.55,0.45,30,0.005397288,0.4132,287,0,287,0,1,,,,,
,,353350,1,2023-07-06_15h44.58.015,arm3_ET_builderv2,2022.2.5,MacIntel,60.0024001,right,-1,0.55,0.45,30,0.017863356,0.5669,288,0,288,0,1,,,,,
,,353350,1,2023-07-06_15h44.58.015,arm3_ET_builderv2,2022.2.5,MacIntel,60.0024001,right,-1,0.55,0.45,30,0.015112208,0.3641,289,0,289,0,1,,,,,
,,353350,1,2023-07-06_15h44.58.015,arm3_ET_builderv2,2022.2.5,MacIntel,60.0024001,right,-1,0.55,0.45,30,-0.013507959,0.6829,290,0,290,0,1,,,,,
,,353350,1,2023-07-06_15h44.58.015,arm3_ET_builderv2,2022.2.5,MacIntel,60.0024001,right,-1,0.55,0.45,30,0.006891289,0.2894,291,0,291,0,1,,,,,
,,353350,1,2023-07-06_15h44.58.015,arm3_ET_builderv2,2022.2.5,MacIntel,60.0024001,up,1,0.55,0.45,30,0,0.671,292,0,292,0,1,,,,,
,,353350,1,2023-07-06_15h44.58.015,arm3_ET_builderv2,2022.2.5,MacIntel,60.0024001,right,1,0.55,0.45,30,-0.004829272,0.4833,293,0,293,0,1,,,,,
,,353350,1,2023-07-06_15h44.58.015,arm3_ET_builderv2,2022.2.5,MacIntel,60.0024001,right,1,0.55,0.45,30,-0.01124901,0.6126,294,0,294,0,1,,,,,
,,353350,1,2023-07-06_15h44.58.015,arm3_ET_builderv2,2022.2.5,MacIntel,60.0024001,right,1,0.55,0.45,30,-0.004498726,0.778,295,0,295,0,1,,,,,
,,353350,1,2023-07-06_15h44.58.015,arm3_ET_builderv2,2022.2.5,MacIntel,60.0024001,right,1,0.55,0.45,30,0.010423362,0.7709,296,0,296,0,1,,,,,
,,353350,1,2023-07-06_15h44.58.015,arm3_ET_builderv2,2022.2.5,MacIntel,60.0024001,right,1,0.55,0.45,30,-0.001261491,0.5847,297,0,297,0,1,,,,,
,,353350,1,2023-07-06_15h44.58.015,arm3_ET_builderv2,2022.2.5,MacIntel,60.0024001,down,1,0.55,0.45,29,0,1.052,298,0,298,0,1,,,,,
,,353350,1,2023-07-06_15h44.58.015,arm3_ET_builderv2,2022.2.5,MacIntel,60.0024001,right,1,0.55,0.45,29,0.02051695,1.5939,299,0,299,0,1,,,,,
,,353350,1,2023-07-06_15h44.58.015,arm3_ET_builderv2,2022.2.5,MacIntel,60.0024001,up,1,0.55,0.45,30,0,0.5269,300,0,300,0,1,,,,,
,,353350,1,2023-07-06_15h44.58.015,arm3_ET_builderv2,2022.2.5,MacIntel,60.0024001,right,1,0.55,0.45,30,0.019304074,0.4301,301,0,301,0,1,,,,,
,,353350,1,2023-07-06_15h44.58.015,arm3_ET_builderv2,2022.2.5,MacIntel,60.0024001,right,1,0.55,0.45,30,0.01647374,0.6637,302,0,302,0,1,,,,,
,,353350,1,2023-07-06_15h44.58.015,arm3_ET_builderv2,2022.2.5,MacIntel,60.0024001,right,1,0.55,0.45,30,0.019305247,0.3555,303,0,303,0,1,,,,,
,,353350,1,2023-07-06_15h44.58.015,arm3_ET_builderv2,2022.2.5,MacIntel,60.0024001,up,-1,0.55,0.45,31,0,0.7001,304,0,304,0,1,,,,,
,,353350,1,2023-07-06_15h44.58.015,arm3_ET_builderv2,2022.2.5,MacIntel,60.0024001,right,-1,0.55,0.45,31,-0.038708827,0.3974,305,0,305,0,1,,,,,
,,353350,1,2023-07-06_15h44.58.015,arm3_ET_builderv2,2022.2.5,MacIntel,60.0024001,down,1,0.55,0.45,32,0,0.7444,306,0,306,0,1,,,,,
,,353350,1,2023-07-06_15h44.58.015,arm3_ET_builderv2,2022.2.5,MacIntel,60.0024001,right,1,0.55,0.45,32,0.018770535,1.5524,307,0,307,0,1,,,,,
,,353350,1,2023-07-06_15h44.58.015,arm3_ET_builderv2,2022.2.5,MacIntel,60.0024001,up,-1,0.55,0.45,32,0,0.4726,308,0,308,0,1,,,,,
,,353350,1,2023-07-06_15h44.58.015,arm3_ET_builderv2,2022.2.5,MacIntel,60.0024001,down,-1,0.55,0.45,33,0,1.2004,309,0,309,0,1,,,,,
,,353350,1,2023-07-06_15h44.58.015,arm3_ET_builderv2,2022.2.5,MacIntel,60.0024001,right,-1,0.55,0.45,33,0.006611079,1.5337,310,0,310,0,1,,,,,
,,353350,1,2023-07-06_15h44.58.015,arm3_ET_builderv2,2022.2.5,MacIntel,60.0024001,right,-1,0.55,0.45,33,-0.013841766,0.7357,311,0,311,0,1,,,,,
,,353350,1,2023-07-06_15h44.58.015,arm3_ET_builderv2,2022.2.5,MacIntel,60.0024001,right,-1,0.55,0.45,33,0.004108681,0.5843,312,0,312,0,1,,,,,
,,353350,1,2023-07-06_15h44.58.015,arm3_ET_builderv2,2022.2.5,MacIntel,60.0024001,up,1,0.55,0.45,33,0,0.5859,313,0,313,0,1,,,,,
,,353350,1,2023-07-06_15h44.58.015,arm3_ET_builderv2,2022.2.5,MacIntel,60.0024001,right,1,0.55,0.45,33,0.033699815,0.4656,314,0,314,0,1,,,,,
,,353350,1,2023-07-06_15h44.58.015,arm3_ET_builderv2,2022.2.5,MacIntel,60.0024001,up,-1,0.55,0.45,34,0,0.62,315,0,315,0,1,,,,,
,,353350,1,2023-07-06_15h44.58.015,arm3_ET_builderv2,2022.2.5,MacIntel,60.0024001,right,-1,0.55,0.45,34,-0.001369836,0.9829,316,0,316,0,1,,,,,
,,353350,1,2023-07-06_15h44.58.015,arm3_ET_builderv2,2022.2.5,MacIntel,60.0024001,down,-1,0.55,0.45,34,0,0.6677,317,0,317,0,1,,,,,
,,353350,1,2023-07-06_15h44.58.015,arm3_ET_builderv2,2022.2.5,MacIntel,60.0024001,right,-1,0.55,0.45,34,-0.006752226,1.1331,318,0,318,0,1,,,,,
,,353350,1,2023-07-06_15h44.58.015,arm3_ET_builderv2,2022.2.5,MacIntel,60.0024001,right,-1,0.55,0.45,34,0.021520072,0.5334,319,0,319,0,1,,,,,
,,353350,1,2023-07-06_15h44.58.015,arm3_ET_builderv2,2022.2.5,MacIntel,60.0024001,right,-1,0.55,0.45,34,0.02405847,1.0187,320,0,320,0,1,,,,,
,,353350,1,2023-07-06_15h44.58.015,arm3_ET_builderv2,2022.2.5,MacIntel,60.0024001,up,1,0.55,0.45,33,0,0.4495,321,0,321,0,1,,,,,
,,353350,1,2023-07-06_15h44.58.015,arm3_ET_builderv2,2022.2.5,MacIntel,60.0024001,right,1,0.55,0.45,33,0.009449789,0.9979,322,0,322,0,1,,,,,
,,353350,1,2023-07-06_15h44.58.015,arm3_ET_builderv2,2022.2.5,MacIntel,60.0024001,right,1,0.55,0.45,33,-0.008515223,0.6428,323,0,323,0,1,,,,,
,,353350,1,2023-07-06_15h44.58.015,arm3_ET_builderv2,2022.2.5,MacIntel,60.0024001,right,1,0.55,0.45,33,0.010931657,0.3823,324,0,324,0,1,,,,,
,,353350,1,2023-07-06_15h44.58.015,arm3_ET_builderv2,2022.2.5,MacIntel,60.0024001,up,-1,0.55,0.45,34,0,0.852,325,0,325,0,1,,,,,
,,353350,1,2023-07-06_15h44.58.015,arm3_ET_builderv2,2022.2.5,MacIntel,60.0024001,right,-1,0.55,0.45,34,-0.012868508,0.6963,326,0,326,0,1,,,,,
,,353350,1,2023-07-06_15h44.58.015,arm3_ET_builderv2,2022.2.5,MacIntel,60.0024001,right,-1,0.55,0.45,34,-0.02062366,0.883,327,0,327,0,1,,,,,
,,353350,1,2023-07-06_15h44.58.015,arm3_ET_builderv2,2022.2.5,MacIntel,60.0024001,down,1,0.55,0.45,34,0,0.7755,328,0,328,0,1,,,,,
,,353350,1,2023-07-06_15h44.58.015,arm3_ET_builderv2,2022.2.5,MacIntel,60.0024001,right,1,0.55,0.45,34,0.009739528,0.9458,329,0,329,0,1,,,,,
,,353350,1,2023-07-06_15h44.58.015,arm3_ET_builderv2,2022.2.5,MacIntel,60.0024001,right,1,0.55,0.45,34,0.037149022,0.3139,330,0,330,0,1,,,,,
,,353350,1,2023-07-06_15h44.58.015,arm3_ET_builderv2,2022.2.5,MacIntel,60.0024001,right,1,0.55,0.45,34,0.036371095,0.7312,331,0,331,0,1,,,,,
,,353350,1,2023-07-06_15h44.58.015,arm3_ET_builderv2,2022.2.5,MacIntel,60.0024001,right,1,0.55,0.45,34,0.029937952,0.5398,332,0,332,0,1,,,,,
,,353350,1,2023-07-06_15h44.58.015,arm3_ET_builderv2,2022.2.5,MacIntel,60.0024001,up,-1,0.55,0.45,34,0,0.5675,333,0,333,0,1,,,,,
,,353350,1,2023-07-06_15h44.58.015,arm3_ET_builderv2,2022.2.5,MacIntel,60.0024001,right,-1,0.55,0.45,34,0.005305219,0.6342,334,0,334,0,1,,,,,
,,353350,1,2023-07-06_15h44.58.015,arm3_ET_builderv2,2022.2.5,MacIntel,60.0024001,right,-1,0.55,0.45,34,-0.024497588,0.6661,335,0,335,0,1,,,,,
,,353350,1,2023-07-06_15h44.58.015,arm3_ET_builderv2,2022.2.5,MacIntel,60.0024001,down,-1,0.55,0.45,34,0,0.6081,336,0,336,0,1,,,,,
,,353350,1,2023-07-06_15h44.58.015,arm3_ET_builderv2,2022.2.5,MacIntel,60.0024001,right,-1,0.55,0.45,34,-0.00054814,1.4322,337,0,337,0,1,,,,,
,,353350,1,2023-07-06_15h44.58.015,arm3_ET_builderv2,2022.2.5,MacIntel,60.0024001,right,-1,0.55,0.45,34,-0.004975283,0.3834,338,0,338,0,1,,,,,
,,353350,1,2023-07-06_15h44.58.015,arm3_ET_builderv2,2022.2.5,MacIntel,60.0024001,right,-1,0.55,0.45,34,-0.002961394,0.351,339,0,339,0,1,,,,,
,,353350,1,2023-07-06_15h44.58.015,arm3_ET_builderv2,2022.2.5,MacIntel,60.0024001,down,-1,0.55,0.45,35,0,1.1133,340,0,340,0,1,,,,,
,,353350,1,2023-07-06_15h44.58.015,arm3_ET_builderv2,2022.2.5,MacIntel,60.0024001,right,-1,0.55,0.45,35,-0.039933575,0.9335,341,0,341,0,1,,,,,
,,353350,1,2023-07-06_15h44.58.015,arm3_ET_builderv2,2022.2.5,MacIntel,60.0024001,down,-1,0.55,0.45,35,0,0.5844,342,0,342,0,1,,,,,
,,353350,1,2023-07-06_15h44.58.015,arm3_ET_builderv2,2022.2.5,MacIntel,60.0024001,right,-1,0.55,0.45,35,-0.000434821,0.4984,343,0,343,0,1,,,,,
,,353350,1,2023-07-06_15h44.58.015,arm3_ET_builderv2,2022.2.5,MacIntel,60.0024001,right,-1,0.55,0.45,35,0.01121813,0.613,344,0,344,0,1,,,,,
,,353350,1,2023-07-06_15h44.58.015,arm3_ET_builderv2,2022.2.5,MacIntel,60.0024001,right,-1,0.55,0.45,35,-0.017369434,0.5354,345,0,345,0,1,,,,,
,,353350,1,2023-07-06_15h44.58.015,arm3_ET_builderv2,2022.2.5,MacIntel,60.0024001,down,1,0.55,0.45,36,0,0.4371,346,0,346,0,1,,,,,
,,353350,1,2023-07-06_15h44.58.015,arm3_ET_builderv2,2022.2.5,MacIntel,60.0024001,right,1,0.55,0.45,36,-0.010302873,0.4298,347,0,347,0,1,,,,,
,,353350,1,2023-07-06_15h44.58.015,arm3_ET_builderv2,2022.2.5,MacIntel,60.0024001,right,1,0.55,0.45,36,-0.015932938,0.3987,348,0,348,0,1,,,,,
,,353350,1,2023-07-06_15h44.58.015,arm3_ET_builderv2,2022.2.5,MacIntel,60.0024001,right,1,0.55,0.45,36,0.001037317,0.4292,349,0,349,0,1,,,,,
,,353350,1,2023-07-06_15h44.58.015,arm3_ET_builderv2,2022.2.5,MacIntel,60.0024001,down,1,0.55,0.45,35,0,0.731,350,0,350,0,1,,,,,
,,353350,1,2023-07-06_15h44.58.015,arm3_ET_builderv2,2022.2.5,MacIntel,60.0024001,right,1,0.55,0.45,35,0.010018798,1.7186,351,0,351,0,1,,,,,
,,353350,1,2023-07-06_15h44.58.015,arm3_ET_builderv2,2022.2.5,MacIntel,60.0024001,up,1,0.55,0.45,36,0,0.5903,352,0,352,0,1,,,,,
,,353350,1,2023-07-06_15h44.58.015,arm3_ET_builderv2,2022.2.5,MacIntel,60.0024001,right,1,0.55,0.45,36,0.016604191,0.3776,353,0,353,0,1,,,,,
,,353350,1,2023-07-06_15h44.58.015,arm3_ET_builderv2,2022.2.5,MacIntel,60.0024001,up,1,0.55,0.45,36,0,0.8202,354,0,354,0,1,,,,,
,,353350,1,2023-07-06_15h44.58.015,arm3_ET_builderv2,2022.2.5,MacIntel,60.0024001,right,1,0.55,0.45,36,0.011233565,0.5853,355,0,355,0,1,,,,,
,,353350,1,2023-07-06_15h44.58.015,arm3_ET_builderv2,2022.2.5,MacIntel,60.0024001,right,1,0.55,0.45,36,0.015208351,0.3583,356,0,356,0,1,,,,,
,,353350,1,2023-07-06_15h44.58.015,arm3_ET_builderv2,2022.2.5,MacIntel,60.0024001,right,1,0.55,0.45,36,-0.000103912,0.6098,357,0,357,0,1,,,,,
,,353350,1,2023-07-06_15h44.58.015,arm3_ET_builderv2,2022.2.5,MacIntel,60.0024001,right,1,0.55,0.45,36,0.025900897,0.2557,358,0,358,0,1,,,,,
,,353350,1,2023-07-06_15h44.58.015,arm3_ET_builderv2,2022.2.5,MacIntel,60.0024001,up,1,0.55,0.45,37,0,0.4687,359,0,359,0,1,,,,,
,,353350,1,2023-07-06_15h44.58.015,arm3_ET_builderv2,2022.2.5,MacIntel,60.0024001,right,1,0.55,0.45,37,0.0144151,0.4877,360,0,360,0,1,,,,,
,,353350,1,2023-07-06_15h44.58.015,arm3_ET_builderv2,2022.2.5,MacIntel,60.0024001,right,1,0.55,0.45,37,0.000346419,0.4335,361,0,361,0,1,,,,,
,,353350,1,2023-07-06_15h44.58.015,arm3_ET_builderv2,2022.2.5,MacIntel,60.0024001,right,1,0.55,0.45,37,-0.000686166,0.3658,362,0,362,0,1,,,,,
,,353350,1,2023-07-06_15h44.58.015,arm3_ET_builderv2,2022.2.5,MacIntel,60.0024001,right,1,0.55,0.45,37,-0.006231081,0.3386,363,0,363,0,1,,,,,
,,353350,1,2023-07-06_15h44.58.015,arm3_ET_builderv2,2022.2.5,MacIntel,60.0024001,down,-1,0.55,0.45,37,0,0.4989,364,0,364,0,1,,,,,
,,353350,1,2023-07-06_15h44.58.015,arm3_ET_builderv2,2022.2.5,MacIntel,60.0024001,right,-1,0.55,0.45,37,-0.016373241,0.3829,365,0,365,0,1,,,,,
,,353350,1,2023-07-06_15h44.58.015,arm3_ET_builderv2,2022.2.5,MacIntel,60.0024001,right,-1,0.55,0.45,37,-0.023823706,0.3693,366,0,366,0,1,,,,,
,,353350,1,2023-07-06_15h44.58.015,arm3_ET_builderv2,2022.2.5,MacIntel,60.0024001,right,-1,0.55,0.45,37,-0.012008096,0.3518,367,0,367,0,1,,,,,
,,353350,1,2023-07-06_15h44.58.015,arm3_ET_builderv2,2022.2.5,MacIntel,60.0024001,right,-1,0.55,0.45,37,-0.017641611,0.2833,368,0,368,0,1,,,,,
,,353350,1,2023-07-06_15h44.58.015,arm3_ET_builderv2,2022.2.5,MacIntel,60.0024001,right,-1,0.55,0.45,37,-0.003688727,0.5556,369,0,369,0,1,,,,,
,,353350,1,2023-07-06_15h44.58.015,arm3_ET_builderv2,2022.2.5,MacIntel,60.0024001,right,-1,0.55,0.45,37,-0.050105006,0.3305,370,0,370,0,1,,,,,
,,353350,1,2023-07-06_15h44.58.015,arm3_ET_builderv2,2022.2.5,MacIntel,60.0024001,down,-1,0.55,0.45,37,0,0.47,371,0,371,0,1,,,,,
,,353350,1,2023-07-06_15h44.58.015,arm3_ET_builderv2,2022.2.5,MacIntel,60.0024001,right,-1,0.55,0.45,37,0.024208067,0.4493,372,0,372,0,1,,,,,
,,353350,1,2023-07-06_15h44.58.015,arm3_ET_builderv2,2022.2.5,MacIntel,60.0024001,right,-1,0.55,0.45,37,0.004093806,0.4384,373,0,373,0,1,,,,,
,,353350,1,2023-07-06_15h44.58.015,arm3_ET_builderv2,2022.2.5,MacIntel,60.0024001,right,-1,0.55,0.45,37,0.01603037,0.5144,374,0,374,0,1,,,,,
,,353350,1,2023-07-06_15h44.58.015,arm3_ET_builderv2,2022.2.5,MacIntel,60.0024001,right,-1,0.55,0.45,37,0.000238016,0.4692,375,0,375,0,1,,,,,
,,353350,1,2023-07-06_15h44.58.015,arm3_ET_builderv2,2022.2.5,MacIntel,60.0024001,right,-1,0.55,0.45,37,0.021493176,0.471,376,0,376,0,1,,,,,
,,353350,1,2023-07-06_15h44.58.015,arm3_ET_builderv2,2022.2.5,MacIntel,60.0024001,up,-1,0.55,0.45,36,0,1.3339,377,0,377,0,1,,,,,
,,353350,1,2023-07-06_15h44.58.015,arm3_ET_builderv2,2022.2.5,MacIntel,60.0024001,right,-1,0.55,0.45,36,-0.009038722,0.6513,378,0,378,0,1,,,,,
,,353350,1,2023-07-06_15h44.58.015,arm3_ET_builderv2,2022.2.5,MacIntel,60.0024001,right,-1,0.55,0.45,36,-0.003908979,0.3649,379,0,379,0,1,,,,,
,,353350,1,2023-07-06_15h44.58.015,arm3_ET_builderv2,2022.2.5,MacIntel,60.0024001,right,-1,0.55,0.45,36,-0.010391806,0.3034,380,0,380,0,1,,,,,
,,353350,1,2023-07-06_15h44.58.015,arm3_ET_builderv2,2022.2.5,MacIntel,60.0024001,down,-1,0.55,0.45,36,0,0.2816,381,0,381,0,1,,,,,
,,353350,1,2023-07-06_15h44.58.015,arm3_ET_builderv2,2022.2.5,MacIntel,60.0024001,right,-1,0.55,0.45,36,0.004695423,0.6156,382,0,382,0,1,,,,,
,,353350,1,2023-07-06_15h44.58.015,arm3_ET_builderv2,2022.2.5,MacIntel,60.0024001,right,-1,0.55,0.45,36,-0.021798559,0.5488,383,0,383,0,1,,,,,
,,353350,1,2023-07-06_15h44.58.015,arm3_ET_builderv2,2022.2.5,MacIntel,60.0024001,right,-1,0.55,0.45,36,-0.027571006,0.4067,384,0,384,0,1,,,,,
,,353350,1,2023-07-06_15h44.58.015,arm3_ET_builderv2,2022.2.5,MacIntel,60.0024001,down,-1,0.55,0.45,36,0,0.3308,385,0,385,0,1,,,,,
,,353350,1,2023-07-06_15h44.58.015,arm3_ET_builderv2,2022.2.5,MacIntel,60.0024001,right,-1,0.55,0.45,36,-0.026129239,0.5039,386,0,386,0,1,,,,,
,,353350,1,2023-07-06_15h44.58.015,arm3_ET_builderv2,2022.2.5,MacIntel,60.0024001,down,-1,0.55,0.45,37,0,0.4944,387,0,387,0,1,,,,,
,,353350,1,2023-07-06_15h44.58.015,arm3_ET_builderv2,2022.2.5,MacIntel,60.0024001,right,-1,0.55,0.45,37,-0.018075989,0.4468,388,0,388,0,1,,,,,
,,353350,1,2023-07-06_15h44.58.015,arm3_ET_builderv2,2022.2.5,MacIntel,60.0024001,down,1,0.55,0.45,38,0,0.6003,389,0,389,0,1,,,,,
,,353350,1,2023-07-06_15h44.58.015,arm3_ET_builderv2,2022.2.5,MacIntel,60.0024001,right,1,0.55,0.45,38,0.033937039,0.3857,390,0,390,0,1,,,,,
,,353350,1,2023-07-06_15h44.58.015,arm3_ET_builderv2,2022.2.5,MacIntel,60.0024001,up,1,0.55,0.45,39,0,0.4994,391,0,391,0,1,,,,,
,,353350,1,2023-07-06_15h44.58.015,arm3_ET_builderv2,2022.2.5,MacIntel,60.0024001,up,-1,0.55,0.45,40,0,1.0827,392,0,392,0,1,,,,,
,,353350,1,2023-07-06_15h44.58.015,arm3_ET_builderv2,2022.2.5,MacIntel,60.0024001,right,-1,0.55,0.45,40,0.004146392,1.3158,393,0,393,0,1,,,,,
,,353350,1,2023-07-06_15h44.58.015,arm3_ET_builderv2,2022.2.5,MacIntel,60.0024001,right,-1,0.55,0.45,40,-0.006450048,0.3316,394,0,394,0,1,,,,,
,,353350,1,2023-07-06_15h44.58.015,arm3_ET_builderv2,2022.2.5,MacIntel,60.0024001,down,-1,0.55,0.45,40,0,0.5896,395,0,395,0,1,,,,,
,,353350,1,2023-07-06_15h44.58.015,arm3_ET_builderv2,2022.2.5,MacIntel,60.0024001,right,-1,0.55,0.45,40,0.009709522,0.6309,396,0,396,0,1,,,,,
,,353350,1,2023-07-06_15h44.58.015,arm3_ET_builderv2,2022.2.5,MacIntel,60.0024001,right,-1,0.55,0.45,40,-0.014214308,0.8061,397,0,397,0,1,,,,,
,,353350,1,2023-07-06_15h44.58.015,arm3_ET_builderv2,2022.2.5,MacIntel,60.0024001,right,-1,0.55,0.45,40,-0.012569315,0.2726,398,0,398,0,1,,,,,
,,353350,1,2023-07-06_15h44.58.015,arm3_ET_builderv2,2022.2.5,MacIntel,60.0024001,down,1,0.55,0.45,40,0,0.4472,399,0,399,0,1,,,,,
,,353350,1,2023-07-06_15h44.58.015,arm3_ET_builderv2,2022.2.5,MacIntel,60.0024001,right,1,0.55,0.45,40,0.033018029,0.4037,400,0,400,0,1,,,,,
,,353350,1,2023-07-06_15h44.58.015,arm3_ET_builderv2,2022.2.5,MacIntel,60.0024001,right,1,0.55,0.45,40,0.020609245,0.7357,401,0,401,0,1,,,,,
,,353350,1,2023-07-06_15h44.58.015,arm3_ET_builderv2,2022.2.5,MacIntel,60.0024001,right,1,0.55,0.45,40,-0.016583731,0.6482,402,0,402,0,1,,,,,
,,353350,1,2023-07-06_15h44.58.015,arm3_ET_builderv2,2022.2.5,MacIntel,60.0024001,right,1,0.55,0.45,40,0.006339433,0.5187,403,0,403,0,1,,,,,
,,353350,1,2023-07-06_15h44.58.015,arm3_ET_builderv2,2022.2.5,MacIntel,60.0024001,up,1,0.55,0.45,40,0,0.35,404,0,404,0,1,,,,,
,,353350,1,2023-07-06_15h44.58.015,arm3_ET_builderv2,2022.2.5,MacIntel,60.0024001,up,1,0.55,0.45,41,0,1.9019,405,0,405,0,1,,,,,
,,353350,1,2023-07-06_15h44.58.015,arm3_ET_builderv2,2022.2.5,MacIntel,60.0024001,right,1,0.55,0.45,41,0.016076825,1.3869,406,0,406,0,1,,,,,
,,353350,1,2023-07-06_15h44.58.015,arm3_ET_builderv2,2022.2.5,MacIntel,60.0024001,up,1,0.55,0.45,42,0,0.4405,407,0,407,0,1,,,,,
,,353350,1,2023-07-06_15h44.58.015,arm3_ET_builderv2,2022.2.5,MacIntel,60.0024001,right,1,0.55,0.45,42,0.03220373,0.5015,408,0,408,0,1,,,,,
,,353350,1,2023-07-06_15h44.58.015,arm3_ET_builderv2,2022.2.5,MacIntel,60.0024001,up,-1,0.55,0.45,43,0,0.5449,409,0,409,0,1,,,,,
,,353350,1,2023-07-06_15h44.58.015,arm3_ET_builderv2,2022.2.5,MacIntel,60.0024001,right,-1,0.55,0.45,43,-0.012440563,1.5646,410,0,410,0,1,,,,,
,,353350,1,2023-07-06_15h44.58.015,arm3_ET_builderv2,2022.2.5,MacIntel,60.0024001,right,-1,0.55,0.45,43,0.011144597,0.4971,411,0,411,0,1,,,,,
,,353350,1,2023-07-06_15h44.58.015,arm3_ET_builderv2,2022.2.5,MacIntel,60.0024001,up,-1,0.55,0.45,42,0,0.6218,412,0,412,0,1,,,,,
,,353350,1,2023-07-06_15h44.58.015,arm3_ET_builderv2,2022.2.5,MacIntel,60.0024001,right,-1,0.55,0.45,42,-0.01472586,12.9498,413,0,413,0,1,,,,,
,,353350,1,2023-07-06_15h44.58.015,arm3_ET_builderv2,2022.2.5,MacIntel,60.0024001,down,1,0.55,0.45,42,0,0.8205,414,0,414,0,1,,,,,
,,353350,1,2023-07-06_15h44.58.015,arm3_ET_builderv2,2022.2.5,MacIntel,60.0024001,right,1,0.55,0.45,42,0.015800025,1.0825,415,0,415,0,1,,,,,
,,353350,1,2023-07-06_15h44.58.015,arm3_ET_builderv2,2022.2.5,MacIntel,60.0024001,right,1,0.55,0.45,42,0.023924959,0.3644,416,0,416,0,1,,,,,
,,353350,1,2023-07-06_15h44.58.015,arm3_ET_builderv2,2022.2.5,MacIntel,60.0024001,up,1,0.55,0.45,43,0,0.3374,417,0,417,0,1,,,,,
,,353350,1,2023-07-06_15h44.58.015,arm3_ET_builderv2,2022.2.5,MacIntel,60.0024001,right,1,0.55,0.45,43,0.030630174,0.4546,418,0,418,0,1,,,,,
,,353350,1,2023-07-06_15h44.58.015,arm3_ET_builderv2,2022.2.5,MacIntel,60.0024001,up,1,0.55,0.45,44,0,0.9714,419,0,419,0,1,,,,,
,,353350,1,2023-07-06_15h44.58.015,arm3_ET_builderv2,2022.2.5,MacIntel,60.0024001,down,1,0.55,0.45,44,0,1.3473,420,0,420,0,1,,,,,
,,353350,1,2023-07-06_15h44.58.015,arm3_ET_builderv2,2022.2.5,MacIntel,60.0024001,right,1,0.55,0.45,44,-0.007422401,1.098,421,0,421,0,1,,,,,
,,353350,1,2023-07-06_15h44.58.015,arm3_ET_builderv2,2022.2.5,MacIntel,60.0024001,up,1,0.55,0.45,44,0,0.591,422,0,422,0,1,,,,,
,,353350,1,2023-07-06_15h44.58.015,arm3_ET_builderv2,2022.2.5,MacIntel,60.0024001,right,1,0.55,0.45,44,0.022186914,0.4073,423,0,423,0,1,,,,,
,,353350,1,2023-07-06_15h44.58.015,arm3_ET_builderv2,2022.2.5,MacIntel,60.0024001,up,1,0.55,0.45,45,0,0.5805,424,0,424,0,1,,,,,
,,353350,1,2023-07-06_15h44.58.015,arm3_ET_builderv2,2022.2.5,MacIntel,60.0024001,right,1,0.55,0.45,45,0.029090668,1.4819,425,0,425,0,1,,,,,
,,353350,1,2023-07-06_15h44.58.015,arm3_ET_builderv2,2022.2.5,MacIntel,60.0024001,right,1,0.55,0.45,45,0.05449808,0.3655,426,0,426,0,1,,,,,
,,353350,1,2023-07-06_15h44.58.015,arm3_ET_builderv2,2022.2.5,MacIntel,60.0024001,up,1,0.55,0.45,45,0,0.2834,427,0,427,0,1,,,,,
,,353350,1,2023-07-06_15h44.58.015,arm3_ET_builderv2,2022.2.5,MacIntel,60.0024001,right,1,0.55,0.45,45,0.006520798,0.8531,428,0,428,0,1,,,,,
,,353350,1,2023-07-06_15h44.58.015,arm3_ET_builderv2,2022.2.5,MacIntel,60.0024001,right,1,0.55,0.45,45,0.008399531,0.3034,429,0,429,0,1,,,,,
,,353350,1,2023-07-06_15h44.58.015,arm3_ET_builderv2,2022.2.5,MacIntel,60.0024001,up,-1,0.55,0.45,46,0,0.4499,430,0,430,0,1,,,,,
,,353350,1,2023-07-06_15h44.58.015,arm3_ET_builderv2,2022.2.5,MacIntel,60.0024001,right,-1,0.55,0.45,46,-0.028220003,0.3302,431,0,431,0,1,,,,,
,,353350,1,2023-07-06_15h44.58.015,arm3_ET_builderv2,2022.2.5,MacIntel,60.0024001,down,-1,0.55,0.45,46,0,0.9645,432,0,432,0,1,,,,,
,,353350,1,2023-07-06_15h44.58.015,arm3_ET_builderv2,2022.2.5,MacIntel,60.0024001,right,-1,0.55,0.45,46,-0.020499511,0.4658,433,0,433,0,1,,,,,
,,353350,1,2023-07-06_15h44.58.015,arm3_ET_builderv2,2022.2.5,MacIntel,60.0024001,right,-1,0.55,0.45,46,-0.024122846,0.2897,434,0,434,0,1,,,,,
,,353350,1,2023-07-06_15h44.58.015,arm3_ET_builderv2,2022.2.5,MacIntel,60.0024001,right,-1,0.55,0.45,46,-0.005825918,0.3248,435,0,435,0,1,,,,,
,,353350,1,2023-07-06_15h44.58.015,arm3_ET_builderv2,2022.2.5,MacIntel,60.0024001,down,-1,0.55,0.45,47,0,0.4661,436,0,436,0,1,,,,,
,,353350,1,2023-07-06_15h44.58.015,arm3_ET_builderv2,2022.2.5,MacIntel,60.0024001,right,-1,0.55,0.45,47,-0.026711518,0.3654,437,0,437,0,1,,,,,
,,353350,1,2023-07-06_15h44.58.015,arm3_ET_builderv2,2022.2.5,MacIntel,60.0024001,down,-1,0.55,0.45,47,0,0.5649,438,0,438,0,1,,,,,
,,353350,1,2023-07-06_15h44.58.015,arm3_ET_builderv2,2022.2.5,MacIntel,60.0024001,down,1,0.55,0.45,48,0,1.2009,439,0,439,0,1,,,,,
,,353350,1,2023-07-06_15h44.58.015,arm3_ET_builderv2,2022.2.5,MacIntel,60.0024001,right,1,0.55,0.45,48,-0.014494767,1.3522,440,0,440,0,1,,,,,
,,353350,1,2023-07-06_15h44.58.015,arm3_ET_builderv2,2022.2.5,MacIntel,60.0024001,right,1,0.55,0.45,48,0.000388714,0.508,441,0,441,0,1,,,,,
,,353350,1,2023-07-06_15h44.58.015,arm3_ET_builderv2,2022.2.5,MacIntel,60.0024001,right,1,0.55,0.45,48,0.00501151,0.333,442,0,442,0,1,,,,,
,,353350,1,2023-07-06_15h44.58.015,arm3_ET_builderv2,2022.2.5,MacIntel,60.0024001,down,1,0.55,0.45,47,0,0.2995,443,0,443,0,1,,,,,
,,353350,1,2023-07-06_15h44.58.015,arm3_ET_builderv2,2022.2.5,MacIntel,60.0024001,up,1,0.55,0.45,48,0,1.3653,444,0,444,0,1,,,,,
,,353350,1,2023-07-06_15h44.58.015,arm3_ET_builderv2,2022.2.5,MacIntel,60.0024001,down,-1,0.55,0.45,48,0,1.0643,445,0,445,0,1,,,,,
,,353350,1,2023-07-06_15h44.58.015,arm3_ET_builderv2,2022.2.5,MacIntel,60.0024001,right,-1,0.55,0.45,48,0.010554209,1.4004,446,0,446,0,1,,,,,
,,353350,1,2023-07-06_15h44.58.015,arm3_ET_builderv2,2022.2.5,MacIntel,60.0024001,right,-1,0.55,0.45,48,-0.016360527,0.6533,447,0,447,0,1,,,,,
,,353350,1,2023-07-06_15h44.58.015,arm3_ET_builderv2,2022.2.5,MacIntel,60.0024001,right,-1,0.55,0.45,48,-0.026216818,0.3017,448,0,448,0,1,,,,,
,,353350,1,2023-07-06_15h44.58.015,arm3_ET_builderv2,2022.2.5,MacIntel,60.0024001,down,-1,0.55,0.45,49,0,0.2227,449,0,449,0,1,,,,,
,,353350,1,2023-07-06_15h44.58.015,arm3_ET_builderv2,2022.2.5,MacIntel,60.0024001,,,,,,,,,,,,,0,0,0,0,1
,,353350,1,2023-07-06_15h44.58.015,arm3_ET_builderv2,2022.2.5,MacIntel,60.0024001,right,-1,0.95,0.05,49,0.003815108,1.749,0,0,0,0,1,,,,,
,,353350,1,2023-07-06_15h44.58.015,arm3_ET_builderv2,2022.2.5,MacIntel,60.0024001,right,-1,0.95,0.05,49,-0.025365991,0.583,1,0,1,0,1,,,,,
,,353350,1,2023-07-06_15h44.58.015,arm3_ET_builderv2,2022.2.5,MacIntel,60.0024001,up,-1,0.95,0.05,48,0,0.2487,2,0,2,0,1,,,,,
,,353350,1,2023-07-06_15h44.58.015,arm3_ET_builderv2,2022.2.5,MacIntel,60.0024001,down,-1,0.95,0.05,49,0,2.0502,3,0,3,0,1,,,,,
,,353350,1,2023-07-06_15h44.58.015,arm3_ET_builderv2,2022.2.5,MacIntel,60.0024001,down,-1,0.95,0.05,50,0,1.1816,4,0,4,0,1,,,,,
,,353350,1,2023-07-06_15h44.58.015,arm3_ET_builderv2,2022.2.5,MacIntel,60.0024001,up,-1,0.95,0.05,49,0,1.2161,5,0,5,0,1,,,,,
,,353350,1,2023-07-06_15h44.58.015,arm3_ET_builderv2,2022.2.5,MacIntel,60.0024001,right,-1,0.95,0.05,49,-0.009455211,0.9659,6,0,6,0,1,,,,,
,,353350,1,2023-07-06_15h44.58.015,arm3_ET_builderv2,2022.2.5,MacIntel,60.0024001,down,-1,0.95,0.05,50,0,0.5678,7,0,7,0,1,,,,,
,,353350,1,2023-07-06_15h44.58.015,arm3_ET_builderv2,2022.2.5,MacIntel,60.0024001,right,-1,0.95,0.05,50,-0.006808834,1.0507,8,0,8,0,1,,,,,
,,353350,1,2023-07-06_15h44.58.015,arm3_ET_builderv2,2022.2.5,MacIntel,60.0024001,right,-1,0.95,0.05,50,-0.007983074,40.4675,9,0,9,0,1,,,,,
,,353350,1,2023-07-06_15h44.58.015,arm3_ET_builderv2,2022.2.5,MacIntel,60.0024001,right,-1,0.95,0.05,50,-0.000638873,0.5056,10,0,10,0,1,,,,,
,,353350,1,2023-07-06_15h44.58.015,arm3_ET_builderv2,2022.2.5,MacIntel,60.0024001,right,-1,0.95,0.05,50,-0.020910136,0.4193,11,0,11,0,1,,,,,
,,353350,1,2023-07-06_15h44.58.015,arm3_ET_builderv2,2022.2.5,MacIntel,60.0024001,right,-1,0.95,0.05,50,-0.015098726,0.4811,12,0,12,0,1,,,,,
,,353350,1,2023-07-06_15h44.58.015,arm3_ET_builderv2,2022.2.5,MacIntel,60.0024001,down,-1,0.95,0.05,51,0,0.3654,13,0,13,0,1,,,,,
,,353350,1,2023-07-06_15h44.58.015,arm3_ET_builderv2,2022.2.5,MacIntel,60.0024001,right,-1,0.95,0.05,51,0.010922723,2.0484,14,0,14,0,1,,,,,
,,353350,1,2023-07-06_15h44.58.015,arm3_ET_builderv2,2022.2.5,MacIntel,60.0024001,right,-1,0.95,0.05,51,-0.031332101,0.5046,15,0,15,0,1,,,,,
,,353350,1,2023-07-06_15h44.58.015,arm3_ET_builderv2,2022.2.5,MacIntel,60.0024001,down,-1,0.95,0.05,52,0,0.3191,16,0,16,0,1,,,,,
,,353350,1,2023-07-06_15h44.58.015,arm3_ET_builderv2,2022.2.5,MacIntel,60.0024001,right,-1,0.95,0.05,52,0.001761317,0.8671,17,0,17,0,1,,,,,
,,353350,1,2023-07-06_15h44.58.015,arm3_ET_builderv2,2022.2.5,MacIntel,60.0024001,right,-1,0.95,0.05,52,-0.023411682,0.4164,18,0,18,0,1,,,,,
,,353350,1,2023-07-06_15h44.58.015,arm3_ET_builderv2,2022.2.5,MacIntel,60.0024001,down,-1,0.95,0.05,53,0,0.2082,19,0,19,0,1,,,,,
,,353350,1,2023-07-06_15h44.58.015,arm3_ET_builderv2,2022.2.5,MacIntel,60.0024001,right,-1,0.95,0.05,53,-0.017404071,0.3011,20,0,20,0,1,,,,,
,,353350,1,2023-07-06_15h44.58.015,arm3_ET_builderv2,2022.2.5,MacIntel,60.0024001,down,1,0.95,0.05,54,0,0.6319,21,0,21,0,1,,,,,
,,353350,1,2023-07-06_15h44.58.015,arm3_ET_builderv2,2022.2.5,MacIntel,60.0024001,right,1,0.95,0.05,54,-0.00302609,0.9713,22,0,22,0,1,,,,,
,,353350,1,2023-07-06_15h44.58.015,arm3_ET_builderv2,2022.2.5,MacIntel,60.0024001,right,1,0.95,0.05,54,0.005554978,0.5665,23,0,23,0,1,,,,,
,,353350,1,2023-07-06_15h44.58.015,arm3_ET_builderv2,2022.2.5,MacIntel,60.0024001,up,1,0.95,0.05,55,0,0.6678,24,0,24,0,1,,,,,
,,353350,1,2023-07-06_15h44.58.015,arm3_ET_builderv2,2022.2.5,MacIntel,60.0024001,up,1,0.95,0.05,56,0,1.2969,25,0,25,0,1,,,,,
,,353350,1,2023-07-06_15h44.58.015,arm3_ET_builderv2,2022.2.5,MacIntel,60.0024001,right,1,0.95,0.05,56,-0.002539352,1.1798,26,0,26,0,1,,,,,
,,353350,1,2023-07-06_15h44.58.015,arm3_ET_builderv2,2022.2.5,MacIntel,60.0024001,right,1,0.95,0.05,56,0.002919176,0.3367,27,0,27,0,1,,,,,
,,353350,1,2023-07-06_15h44.58.015,arm3_ET_builderv2,2022.2.5,MacIntel,60.0024001,up,1,0.95,0.05,57,0,0.7315,28,0,28,0,1,,,,,
,,353350,1,2023-07-06_15h44.58.015,arm3_ET_builderv2,2022.2.5,MacIntel,60.0024001,right,1,0.95,0.05,57,0.021209705,0.8211,29,0,29,0,1,,,,,
,,353350,1,2023-07-06_15h44.58.015,arm3_ET_builderv2,2022.2.5,MacIntel,60.0024001,up,1,0.95,0.05,58,0,0.3407,30,0,30,0,1,,,,,
,,353350,1,2023-07-06_15h44.58.015,arm3_ET_builderv2,2022.2.5,MacIntel,60.0024001,up,1,0.95,0.05,59,0,0.9866,31,0,31,0,1,,,,,
,,353350,1,2023-07-06_15h44.58.015,arm3_ET_builderv2,2022.2.5,MacIntel,60.0024001,right,1,0.95,0.05,59,-0.010044534,1.4011,32,0,32,0,1,,,,,
,,353350,1,2023-07-06_15h44.58.015,arm3_ET_builderv2,2022.2.5,MacIntel,60.0024001,right,1,0.95,0.05,59,0.006861272,0.3383,33,0,33,0,1,,,,,
,,353350,1,2023-07-06_15h44.58.015,arm3_ET_builderv2,2022.2.5,MacIntel,60.0024001,up,1,0.95,0.05,60,0,0.42,34,0,34,0,1,,,,,
,,353350,1,2023-07-06_15h44.58.015,arm3_ET_builderv2,2022.2.5,MacIntel,60.0024001,right,1,0.95,0.05,60,0.012886402,0.9659,35,0,35,0,1,,,,,
,,353350,1,2023-07-06_15h44.58.015,arm3_ET_builderv2,2022.2.5,MacIntel,60.0024001,right,1,0.95,0.05,60,0.028987314,0.4387,36,0,36,0,1,,,,,
,,353350,1,2023-07-06_15h44.58.015,arm3_ET_builderv2,2022.2.5,MacIntel,60.0024001,up,1,0.95,0.05,61,0,0.2377,37,0,37,0,1,,,,,
,,353350,1,2023-07-06_15h44.58.015,arm3_ET_builderv2,2022.2.5,MacIntel,60.0024001,up,1,0.95,0.05,62,0,0.8525,38,0,38,0,1,,,,,
,,353350,1,2023-07-06_15h44.58.015,arm3_ET_builderv2,2022.2.5,MacIntel,60.0024001,up,1,0.95,0.05,63,0,1.0042,39,0,39,0,1,,,,,
,,353350,1,2023-07-06_15h44.58.015,arm3_ET_builderv2,2022.2.5,MacIntel,60.0024001,up,1,0.95,0.05,64,0,0.9643,40,0,40,0,1,,,,,
,,353350,1,2023-07-06_15h44.58.015,arm3_ET_builderv2,2022.2.5,MacIntel,60.0024001,up,1,0.95,0.05,65,0,0.9888,41,0,41,0,1,,,,,
,,353350,1,2023-07-06_15h44.58.015,arm3_ET_builderv2,2022.2.5,MacIntel,60.0024001,down,1,0.95,0.05,64,0,1.3661,42,0,42,0,1,,,,,
,,353350,1,2023-07-06_15h44.58.015,arm3_ET_builderv2,2022.2.5,MacIntel,60.0024001,right,1,0.95,0.05,64,-0.004461068,1.2792,43,0,43,0,1,,,,,
,,353350,1,2023-07-06_15h44.58.015,arm3_ET_builderv2,2022.2.5,MacIntel,60.0024001,up,1,0.95,0.05,65,0,0.431,44,0,44,0,1,,,,,
,,353350,1,2023-07-06_15h44.58.015,arm3_ET_builderv2,2022.2.5,MacIntel,60.0024001,right,1,0.95,0.05,65,0.009149992,0.9491,45,0,45,0,1,,,,,
,,353350,1,2023-07-06_15h44.58.015,arm3_ET_builderv2,2022.2.5,MacIntel,60.0024001,up,1,0.95,0.05,66,0,0.3019,46,0,46,0,1,,,,,
,,353350,1,2023-07-06_15h44.58.015,arm3_ET_builderv2,2022.2.5,MacIntel,60.0024001,up,1,0.95,0.05,67,0,0.8497,47,0,47,0,1,,,,,
,,353350,1,2023-07-06_15h44.58.015,arm3_ET_builderv2,2022.2.5,MacIntel,60.0024001,up,1,0.95,0.05,68,0,0.8731,48,0,48,0,1,,,,,
,,353350,1,2023-07-06_15h44.58.015,arm3_ET_builderv2,2022.2.5,MacIntel,60.0024001,right,1,0.95,0.05,68,-0.030881504,1.8731,49,0,49,0,1,,,,,
,,353350,1,2023-07-06_15h44.58.015,arm3_ET_builderv2,2022.2.5,MacIntel,60.0024001,right,1,0.95,0.05,68,-0.014930198,0.3609,50,0,50,0,1,,,,,
,,353350,1,2023-07-06_15h44.58.015,arm3_ET_builderv2,2022.2.5,MacIntel,60.0024001,up,1,0.95,0.05,69,0,0.4008,51,0,51,0,1,,,,,
,,353350,1,2023-07-06_15h44.58.015,arm3_ET_builderv2,2022.2.5,MacIntel,60.0024001,right,1,0.95,0.05,69,-0.023528066,0.9455,52,0,52,0,1,,,,,
,,353350,1,2023-07-06_15h44.58.015,arm3_ET_builderv2,2022.2.5,MacIntel,60.0024001,right,1,0.95,0.05,69,0.00239422,0.2353,53,0,53,0,1,,,,,
,,353350,1,2023-07-06_15h44.58.015,arm3_ET_builderv2,2022.2.5,MacIntel,60.0024001,up,1,0.95,0.05,70,0,0.2515,54,0,54,0,1,,,,,
,,353350,1,2023-07-06_15h44.58.015,arm3_ET_builderv2,2022.2.5,MacIntel,60.0024001,right,1,0.95,0.05,70,0.008081363,0.8054,55,0,55,0,1,,,,,
,,353350,1,2023-07-06_15h44.58.015,arm3_ET_builderv2,2022.2.5,MacIntel,60.0024001,up,1,0.95,0.05,71,0,0.5548,56,0,56,0,1,,,,,
,,353350,1,2023-07-06_15h44.58.015,arm3_ET_builderv2,2022.2.5,MacIntel,60.0024001,up,1,0.95,0.05,72,0,0.7665,57,0,57,0,1,,,,,
,,353350,1,2023-07-06_15h44.58.015,arm3_ET_builderv2,2022.2.5,MacIntel,60.0024001,down,1,0.95,0.05,71,0,4.8497,58,0,58,0,1,,,,,
,,353350,1,2023-07-06_15h44.58.015,arm3_ET_builderv2,2022.2.5,MacIntel,60.0024001,up,1,0.95,0.05,72,0,0.7402,59,0,59,0,1,,,,,
,,353350,1,2023-07-06_15h44.58.015,arm3_ET_builderv2,2022.2.5,MacIntel,60.0024001,up,1,0.95,0.05,73,0,0.8175,60,0,60,0,1,,,,,
,,353350,1,2023-07-06_15h44.58.015,arm3_ET_builderv2,2022.2.5,MacIntel,60.0024001,up,1,0.95,0.05,74,0,0.818,61,0,61,0,1,,,,,
,,353350,1,2023-07-06_15h44.58.015,arm3_ET_builderv2,2022.2.5,MacIntel,60.0024001,up,1,0.95,0.05,75,0,0.8954,62,0,62,0,1,,,,,
,,353350,1,2023-07-06_15h44.58.015,arm3_ET_builderv2,2022.2.5,MacIntel,60.0024001,up,1,0.95,0.05,76,0,0.7993,63,0,63,0,1,,,,,
,,353350,1,2023-07-06_15h44.58.015,arm3_ET_builderv2,2022.2.5,MacIntel,60.0024001,up,1,0.95,0.05,77,0,0.811,64,0,64,0,1,,,,,
,,353350,1,2023-07-06_15h44.58.015,arm3_ET_builderv2,2022.2.5,MacIntel,60.0024001,up,1,0.95,0.05,78,0,1.0317,65,0,65,0,1,,,,,
,,353350,1,2023-07-06_15h44.58.015,arm3_ET_builderv2,2022.2.5,MacIntel,60.0024001,up,1,0.95,0.05,79,0,0.9208,66,0,66,0,1,,,,,
,,353350,1,2023-07-06_15h44.58.015,arm3_ET_builderv2,2022.2.5,MacIntel,60.0024001,up,-1,0.95,0.05,80,0,0.8866,67,0,67,0,1,,,,,
,,353350,1,2023-07-06_15h44.58.015,arm3_ET_builderv2,2022.2.5,MacIntel,60.0024001,up,-1,0.95,0.05,80,0,0.9034,68,0,68,0,1,,,,,
,,353350,1,2023-07-06_15h44.58.015,arm3_ET_builderv2,2022.2.5,MacIntel,60.0024001,right,-1,0.95,0.05,80,-0.009984104,1.327,69,0,69,0,1,,,,,
,,353350,1,2023-07-06_15h44.58.015,arm3_ET_builderv2,2022.2.5,MacIntel,60.0024001,right,-1,0.95,0.05,80,-0.014865697,0.3692,70,0,70,0,1,,,,,
,,353350,1,2023-07-06_15h44.58.015,arm3_ET_builderv2,2022.2.5,MacIntel,60.0024001,right,-1,0.95,0.05,80,0.008200976,0.5172,71,0,71,0,1,,,,,
,,353350,1,2023-07-06_15h44.58.015,arm3_ET_builderv2,2022.2.5,MacIntel,60.0024001,right,-1,0.95,0.05,80,0.011249539,0.5029,72,0,72,0,1,,,,,
,,353350,1,2023-07-06_15h44.58.015,arm3_ET_builderv2,2022.2.5,MacIntel,60.0024001,right,-1,0.95,0.05,80,0.013050356,0.4176,73,0,73,0,1,,,,,
,,353350,1,2023-07-06_15h44.58.015,arm3_ET_builderv2,2022.2.5,MacIntel,60.0024001,down,-1,0.95,0.05,81,0,0.9962,74,0,74,0,1,,,,,
,,353350,1,2023-07-06_15h44.58.015,arm3_ET_builderv2,2022.2.5,MacIntel,60.0024001,down,-1,0.95,0.05,82,0,0.863,75,0,75,0,1,,,,,
,,353350,1,2023-07-06_15h44.58.015,arm3_ET_builderv2,2022.2.5,MacIntel,60.0024001,down,-1,0.95,0.05,83,0,0.9315,76,0,76,0,1,,,,,
,,353350,1,2023-07-06_15h44.58.015,arm3_ET_builderv2,2022.2.5,MacIntel,60.0024001,down,-1,0.95,0.05,84,0,0.8487,77,0,77,0,1,,,,,
,,353350,1,2023-07-06_15h44.58.015,arm3_ET_builderv2,2022.2.5,MacIntel,60.0024001,down,-1,0.95,0.05,85,0,0.9201,78,0,78,0,1,,,,,
,,353350,1,2023-07-06_15h44.58.015,arm3_ET_builderv2,2022.2.5,MacIntel,60.0024001,down,-1,0.95,0.05,86,0,1.7656,79,0,79,0,1,,,,,
,,353350,1,2023-07-06_15h44.58.015,arm3_ET_builderv2,2022.2.5,MacIntel,60.0024001,down,-1,0.95,0.05,87,0,0.9133,80,0,80,0,1,,,,,
,,353350,1,2023-07-06_15h44.58.015,arm3_ET_builderv2,2022.2.5,MacIntel,60.0024001,down,-1,0.95,0.05,88,0,0.9322,81,0,81,0,1,,,,,
,,353350,1,2023-07-06_15h44.58.015,arm3_ET_builderv2,2022.2.5,MacIntel,60.0024001,down,1,0.95,0.05,89,0,1.002,82,0,82,0,1,,,,,
,,353350,1,2023-07-06_15h44.58.015,arm3_ET_builderv2,2022.2.5,MacIntel,60.0024001,down,1,0.95,0.05,88,0,0.8337,83,0,83,0,1,,,,,
,,353350,1,2023-07-06_15h44.58.015,arm3_ET_builderv2,2022.2.5,MacIntel,60.0024001,right,1,0.95,0.05,88,0.003009365,1.6664,84,0,84,0,1,,,,,
,,353350,1,2023-07-06_15h44.58.015,arm3_ET_builderv2,2022.2.5,MacIntel,60.0024001,right,1,0.95,0.05,88,-0.00077022,0.3515,85,0,85,0,1,,,,,
,,353350,1,2023-07-06_15h44.58.015,arm3_ET_builderv2,2022.2.5,MacIntel,60.0024001,right,1,0.95,0.05,88,-0.01444288,0.4162,86,0,86,0,1,,,,,
,,353350,1,2023-07-06_15h44.58.015,arm3_ET_builderv2,2022.2.5,MacIntel,60.0024001,right,1,0.95,0.05,88,0.015050661,0.5014,87,0,87,0,1,,,,,
,,353350,1,2023-07-06_15h44.58.015,arm3_ET_builderv2,2022.2.5,MacIntel,60.0024001,right,1,0.95,0.05,88,0.019543503,0.3501,88,0,88,0,1,,,,,
,,353350,1,2023-07-06_15h44.58.015,arm3_ET_builderv2,2022.2.5,MacIntel,60.0024001,up,1,0.95,0.05,89,0,0.2871,89,0,89,0,1,,,,,
,,353350,1,2023-07-06_15h44.58.015,arm3_ET_builderv2,2022.2.5,MacIntel,60.0024001,up,1,0.95,0.05,90,0,0.7646,90,0,90,0,1,,,,,
,,353350,1,2023-07-06_15h44.58.015,arm3_ET_builderv2,2022.2.5,MacIntel,60.0024001,up,1,0.95,0.05,91,0,0.9686,91,0,91,0,1,,,,,
,,353350,1,2023-07-06_15h44.58.015,arm3_ET_builderv2,2022.2.5,MacIntel,60.0024001,up,1,0.95,0.05,92,0,0.9016,92,0,92,0,1,,,,,
,,353350,1,2023-07-06_15h44.58.015,arm3_ET_builderv2,2022.2.5,MacIntel,60.0024001,up,1,0.95,0.05,93,0,0.9339,93,0,93,0,1,,,,,
,,353350,1,2023-07-06_15h44.58.015,arm3_ET_builderv2,2022.2.5,MacIntel,60.0024001,up,1,0.95,0.05,94,0,0.9325,94,0,94,0,1,,,,,
,,353350,1,2023-07-06_15h44.58.015,arm3_ET_builderv2,2022.2.5,MacIntel,60.0024001,up,1,0.95,0.05,95,0,0.906,95,0,95,0,1,,,,,
,,353350,1,2023-07-06_15h44.58.015,arm3_ET_builderv2,2022.2.5,MacIntel,60.0024001,up,1,0.95,0.05,96,0,1.0127,96,0,96,0,1,,,,,
,,353350,1,2023-07-06_15h44.58.015,arm3_ET_builderv2,2022.2.5,MacIntel,60.0024001,up,1,0.95,0.05,97,0,1.1023,97,0,97,0,1,,,,,
,,353350,1,2023-07-06_15h44.58.015,arm3_ET_builderv2,2022.2.5,MacIntel,60.0024001,up,1,0.95,0.05,98,0,1.2788,98,0,98,0,1,,,,,
,,353350,1,2023-07-06_15h44.58.015,arm3_ET_builderv2,2022.2.5,MacIntel,60.0024001,up,-1,0.95,0.05,99,0,0.9806,99,0,99,0,1,,,,,
,,353350,1,2023-07-06_15h44.58.015,arm3_ET_builderv2,2022.2.5,MacIntel,60.0024001,right,-1,0.95,0.05,99,-0.000771077,1.4348,100,0,100,0,1,,,,,
,,353350,1,2023-07-06_15h44.58.015,arm3_ET_builderv2,2022.2.5,MacIntel,60.0024001,right,-1,0.95,0.05,99,-0.011010718,0.3139,101,0,101,0,1,,,,,
,,353350,1,2023-07-06_15h44.58.015,arm3_ET_builderv2,2022.2.5,MacIntel,60.0024001,right,-1,0.95,0.05,99,-0.002253302,0.4295,102,0,102,0,1,,,,,
,,353350,1,2023-07-06_15h44.58.015,arm3_ET_builderv2,2022.2.5,MacIntel,60.0024001,up,-1,0.95,0.05,98,0,0.7226,103,0,103,0,1,,,,,
,,353350,1,2023-07-06_15h44.58.015,arm3_ET_builderv2,2022.2.5,MacIntel,60.0024001,down,-1,0.95,0.05,99,0,0.8954,104,0,104,0,1,,,,,
,,353350,1,2023-07-06_15h44.58.015,arm3_ET_builderv2,2022.2.5,MacIntel,60.0024001,down,-1,0.95,0.05,100,0,0.9026,105,0,105,0,1,,,,,
,,353350,1,2023-07-06_15h44.58.015,arm3_ET_builderv2,2022.2.5,MacIntel,60.0024001,down,-1,0.95,0.05,101,0,0.7667,106,0,106,0,1,,,,,
,,353350,1,2023-07-06_15h44.58.015,arm3_ET_builderv2,2022.2.5,MacIntel,60.0024001,down,-1,0.95,0.05,102,0,1.0655,107,0,107,0,1,,,,,
,,353350,1,2023-07-06_15h44.58.015,arm3_ET_builderv2,2022.2.5,MacIntel,60.0024001,down,-1,0.95,0.05,103,0,1.2166,108,0,108,0,1,,,,,
,,353350,1,2023-07-06_15h44.58.015,arm3_ET_builderv2,2022.2.5,MacIntel,60.0024001,down,-1,0.95,0.05,104,0,0.9145,109,0,109,0,1,,,,,
,,353350,1,2023-07-06_15h44.58.015,arm3_ET_builderv2,2022.2.5,MacIntel,60.0024001,right,-1,0.95,0.05,104,0.015059518,3.0154,110,0,110,0,1,,,,,
,,353350,1,2023-07-06_15h44.58.015,arm3_ET_builderv2,2022.2.5,MacIntel,60.0024001,right,-1,0.95,0.05,104,0.017554225,0.2728,111,0,111,0,1,,,,,
,,353350,1,2023-07-06_15h44.58.015,arm3_ET_builderv2,2022.2.5,MacIntel,60.0024001,right,-1,0.95,0.05,104,0.033323371,0.3186,112,0,112,0,1,,,,,
,,353350,1,2023-07-06_15h44.58.015,arm3_ET_builderv2,2022.2.5,MacIntel,60.0024001,up,-1,0.95,0.05,103,0,0.4022,113,0,113,0,1,,,,,
,,353350,1,2023-07-06_15h44.58.015,arm3_ET_builderv2,2022.2.5,MacIntel,60.0024001,down,1,0.95,0.05,103,0,0.8148,114,0,114,0,1,,,,,
,,353350,1,2023-07-06_15h44.58.015,arm3_ET_builderv2,2022.2.5,MacIntel,60.0024001,right,1,0.95,0.05,103,-0.001855767,1.1942,115,0,115,0,1,,,,,
,,353350,1,2023-07-06_15h44.58.015,arm3_ET_builderv2,2022.2.5,MacIntel,60.0024001,right,1,0.95,0.05,103,-0.005198423,0.2511,116,0,116,0,1,,,,,
,,353350,1,2023-07-06_15h44.58.015,arm3_ET_builderv2,2022.2.5,MacIntel,60.0024001,right,1,0.95,0.05,103,0.009581618,0.2012,117,0,117,0,1,,,,,
,,353350,1,2023-07-06_15h44.58.015,arm3_ET_builderv2,2022.2.5,MacIntel,60.0024001,right,1,0.95,0.05,103,0.023653269,0.2004,118,0,118,0,1,,,,,
,,353350,1,2023-07-06_15h44.58.015,arm3_ET_builderv2,2022.2.5,MacIntel,60.0024001,up,1,0.95,0.05,104,0,0.6326,119,0,119,0,1,,,,,
,,353350,1,2023-07-06_15h44.58.015,arm3_ET_builderv2,2022.2.5,MacIntel,60.0024001,up,1,0.95,0.05,105,0,1.1519,120,0,120,0,1,,,,,
,,353350,1,2023-07-06_15h44.58.015,arm3_ET_builderv2,2022.2.5,MacIntel,60.0024001,up,1,0.95,0.05,106,0,0.9323,121,0,121,0,1,,,,,
,,353350,1,2023-07-06_15h44.58.015,arm3_ET_builderv2,2022.2.5,MacIntel,60.0024001,up,1,0.95,0.05,107,0,0.9276,122,0,122,0,1,,,,,
,,353350,1,2023-07-06_15h44.58.015,arm3_ET_builderv2,2022.2.5,MacIntel,60.0024001,up,1,0.95,0.05,108,0,0.8983,123,0,123,0,1,,,,,
,,353350,1,2023-07-06_15h44.58.015,arm3_ET_builderv2,2022.2.5,MacIntel,60.0024001,up,1,0.95,0.05,109,0,0.8073,124,0,124,0,1,,,,,
,,353350,1,2023-07-06_15h44.58.015,arm3_ET_builderv2,2022.2.5,MacIntel,60.0024001,up,1,0.95,0.05,110,0,0.9818,125,0,125,0,1,,,,,
,,353350,1,2023-07-06_15h44.58.015,arm3_ET_builderv2,2022.2.5,MacIntel,60.0024001,up,1,0.95,0.05,111,0,2.0384,126,0,126,0,1,,,,,
,,353350,1,2023-07-06_15h44.58.015,arm3_ET_builderv2,2022.2.5,MacIntel,60.0024001,up,1,0.95,0.05,112,0,1.0714,127,0,127,0,1,,,,,
,,353350,1,2023-07-06_15h44.58.015,arm3_ET_builderv2,2022.2.5,MacIntel,60.0024001,up,1,0.95,0.05,113,0,0.8153,128,0,128,0,1,,,,,
,,353350,1,2023-07-06_15h44.58.015,arm3_ET_builderv2,2022.2.5,MacIntel,60.0024001,up,1,0.95,0.05,114,0,0.8533,129,0,129,0,1,,,,,
,,353350,1,2023-07-06_15h44.58.015,arm3_ET_builderv2,2022.2.5,MacIntel,60.0024001,up,1,0.95,0.05,115,0,0.9156,130,0,130,0,1,,,,,
,,353350,1,2023-07-06_15h44.58.015,arm3_ET_builderv2,2022.2.5,MacIntel,60.0024001,up,1,0.95,0.05,116,0,1.2985,131,0,131,0,1,,,,,
,,353350,1,2023-07-06_15h44.58.015,arm3_ET_builderv2,2022.2.5,MacIntel,60.0024001,up,1,0.95,0.05,117,0,0.8913,132,0,132,0,1,,,,,
,,353350,1,2023-07-06_15h44.58.015,arm3_ET_builderv2,2022.2.5,MacIntel,60.0024001,up,1,0.95,0.05,118,0,1.4003,133,0,133,0,1,,,,,
,,353350,1,2023-07-06_15h44.58.015,arm3_ET_builderv2,2022.2.5,MacIntel,60.0024001,up,1,0.95,0.05,119,0,0.8776,134,0,134,0,1,,,,,
,,353350,1,2023-07-06_15h44.58.015,arm3_ET_builderv2,2022.2.5,MacIntel,60.0024001,up,1,0.95,0.05,120,0,0.8819,135,0,135,0,1,,,,,
,,353350,1,2023-07-06_15h44.58.015,arm3_ET_builderv2,2022.2.5,MacIntel,60.0024001,up,1,0.95,0.05,121,0,0.9359,136,0,136,0,1,,,,,
,,353350,1,2023-07-06_15h44.58.015,arm3_ET_builderv2,2022.2.5,MacIntel,60.0024001,up,1,0.95,0.05,122,0,0.898,137,0,137,0,1,,,,,
,,353350,1,2023-07-06_15h44.58.015,arm3_ET_builderv2,2022.2.5,MacIntel,60.0024001,up,1,0.95,0.05,123,0,0.8344,138,0,138,0,1,,,,,
,,353350,1,2023-07-06_15h44.58.015,arm3_ET_builderv2,2022.2.5,MacIntel,60.0024001,up,1,0.95,0.05,124,0,0.8346,139,0,139,0,1,,,,,
,,353350,1,2023-07-06_15h44.58.015,arm3_ET_builderv2,2022.2.5,MacIntel,60.0024001,up,1,0.95,0.05,125,0,0.8043,140,0,140,0,1,,,,,
,,353350,1,2023-07-06_15h44.58.015,arm3_ET_builderv2,2022.2.5,MacIntel,60.0024001,up,1,0.95,0.05,126,0,0.9317,141,0,141,0,1,,,,,
,,353350,1,2023-07-06_15h44.58.015,arm3_ET_builderv2,2022.2.5,MacIntel,60.0024001,up,1,0.95,0.05,127,0,0.8722,142,0,142,0,1,,,,,
,,353350,1,2023-07-06_15h44.58.015,arm3_ET_builderv2,2022.2.5,MacIntel,60.0024001,up,1,0.95,0.05,128,0,0.8659,143,0,143,0,1,,,,,
,,353350,1,2023-07-06_15h44.58.015,arm3_ET_builderv2,2022.2.5,MacIntel,60.0024001,up,1,0.95,0.05,129,0,1.0013,144,0,144,0,1,,,,,
,,353350,1,2023-07-06_15h44.58.015,arm3_ET_builderv2,2022.2.5,MacIntel,60.0024001,up,1,0.95,0.05,130,0,0.821,145,0,145,0,1,,,,,
,,353350,1,2023-07-06_15h44.58.015,arm3_ET_builderv2,2022.2.5,MacIntel,60.0024001,up,1,0.95,0.05,131,0,0.805,146,0,146,0,1,,,,,
,,353350,1,2023-07-06_15h44.58.015,arm3_ET_builderv2,2022.2.5,MacIntel,60.0024001,up,-1,0.95,0.05,131,0,0.7997,147,0,147,0,1,,,,,
,,353350,1,2023-07-06_15h44.58.015,arm3_ET_builderv2,2022.2.5,MacIntel,60.0024001,up,-1,0.95,0.05,130,0,1.329,148,0,148,0,1,,,,,
,,353350,1,2023-07-06_15h44.58.015,arm3_ET_builderv2,2022.2.5,MacIntel,60.0024001,right,-1,0.95,0.05,130,0.017521524,1.3961,149,0,149,0,1,,,,,
,,353350,1,2023-07-06_15h44.58.015,arm3_ET_builderv2,2022.2.5,MacIntel,60.0024001,right,-1,0.95,0.05,130,0.009330873,0.1714,150,0,150,0,1,,,,,
,,353350,1,2023-07-06_15h44.58.015,arm3_ET_builderv2,2022.2.5,MacIntel,60.0024001,right,-1,0.95,0.05,130,0.01762346,0.2147,151,0,151,0,1,,,,,
,,353350,1,2023-07-06_15h44.58.015,arm3_ET_builderv2,2022.2.5,MacIntel,60.0024001,right,-1,0.95,0.05,130,0.02654081,0.2161,152,0,152,0,1,,,,,
,,353350,1,2023-07-06_15h44.58.015,arm3_ET_builderv2,2022.2.5,MacIntel,60.0024001,right,-1,0.95,0.05,130,0.020367004,0.7695,153,0,153,0,1,,,,,
,,353350,1,2023-07-06_15h44.58.015,arm3_ET_builderv2,2022.2.5,MacIntel,60.0024001,right,-1,0.95,0.05,130,0.013145974,0.3324,154,0,154,0,1,,,,,
,,353350,1,2023-07-06_15h44.58.015,arm3_ET_builderv2,2022.2.5,MacIntel,60.0024001,right,-1,0.95,0.05,130,-0.002146217,0.2381,155,0,155,0,1,,,,,
,,353350,1,2023-07-06_15h44.58.015,arm3_ET_builderv2,2022.2.5,MacIntel,60.0024001,right,-1,0.95,0.05,130,-0.026268748,0.1967,156,0,156,0,1,,,,,
,,353350,1,2023-07-06_15h44.58.015,arm3_ET_builderv2,2022.2.5,MacIntel,60.0024001,down,-1,0.95,0.05,131,0,0.3346,157,0,157,0,1,,,,,
,,353350,1,2023-07-06_15h44.58.015,arm3_ET_builderv2,2022.2.5,MacIntel,60.0024001,down,-1,0.95,0.05,132,0,0.6799,158,0,158,0,1,,,,,
,,353350,1,2023-07-06_15h44.58.015,arm3_ET_builderv2,2022.2.5,MacIntel,60.0024001,down,-1,0.95,0.05,133,0,0.7843,159,0,159,0,1,,,,,
,,353350,1,2023-07-06_15h44.58.015,arm3_ET_builderv2,2022.2.5,MacIntel,60.0024001,down,-1,0.95,0.05,134,0,0.9365,160,0,160,0,1,,,,,
,,353350,1,2023-07-06_15h44.58.015,arm3_ET_builderv2,2022.2.5,MacIntel,60.0024001,down,-1,0.95,0.05,134,0,0.7012,161,0,161,0,1,,,,,
,,353350,1,2023-07-06_15h44.58.015,arm3_ET_builderv2,2022.2.5,MacIntel,60.0024001,down,-1,0.95,0.05,135,0,0.7957,162,0,162,0,1,,,,,
,,353350,1,2023-07-06_15h44.58.015,arm3_ET_builderv2,2022.2.5,MacIntel,60.0024001,down,-1,0.95,0.05,136,0,0.566,163,0,163,0,1,,,,,
,,353350,1,2023-07-06_15h44.58.015,arm3_ET_builderv2,2022.2.5,MacIntel,60.0024001,down,-1,0.95,0.05,137,0,0.7501,164,0,164,0,1,,,,,
,,353350,1,2023-07-06_15h44.58.015,arm3_ET_builderv2,2022.2.5,MacIntel,60.0024001,down,-1,0.95,0.05,138,0,0.3851,165,0,165,0,1,,,,,
,,353350,1,2023-07-06_15h44.58.015,arm3_ET_builderv2,2022.2.5,MacIntel,60.0024001,down,-1,0.95,0.05,139,0,0.3316,166,0,166,0,1,,,,,
,,353350,1,2023-07-06_15h44.58.015,arm3_ET_builderv2,2022.2.5,MacIntel,60.0024001,down,-1,0.95,0.05,140,0,0.8232,167,0,167,0,1,,,,,
,,353350,1,2023-07-06_15h44.58.015,arm3_ET_builderv2,2022.2.5,MacIntel,60.0024001,down,-1,0.95,0.05,141,0,0.8161,168,0,168,0,1,,,,,
,,353350,1,2023-07-06_15h44.58.015,arm3_ET_builderv2,2022.2.5,MacIntel,60.0024001,down,-1,0.95,0.05,142,0,0.8671,169,0,169,0,1,,,,,
,,353350,1,2023-07-06_15h44.58.015,arm3_ET_builderv2,2022.2.5,MacIntel,60.0024001,down,-1,0.95,0.05,143,0,0.8206,170,0,170,0,1,,,,,
,,353350,1,2023-07-06_15h44.58.015,arm3_ET_builderv2,2022.2.5,MacIntel,60.0024001,down,-1,0.95,0.05,144,0,0.8172,171,0,171,0,1,,,,,
,,353350,1,2023-07-06_15h44.58.015,arm3_ET_builderv2,2022.2.5,MacIntel,60.0024001,down,-1,0.95,0.05,145,0,1.6126,172,0,172,0,1,,,,,
,,353350,1,2023-07-06_15h44.58.015,arm3_ET_builderv2,2022.2.5,MacIntel,60.0024001,down,-1,0.95,0.05,146,0,0.9806,173,0,173,0,1,,,,,
,,353350,1,2023-07-06_15h44.58.015,arm3_ET_builderv2,2022.2.5,MacIntel,60.0024001,down,-1,0.95,0.05,147,0,0.8319,174,0,174,0,1,,,,,
,,353350,1,2023-07-06_15h44.58.015,arm3_ET_builderv2,2022.2.5,MacIntel,60.0024001,down,-1,0.95,0.05,148,0,0.6016,175,0,175,0,1,,,,,
,,353350,1,2023-07-06_15h44.58.015,arm3_ET_builderv2,2022.2.5,MacIntel,60.0024001,down,-1,0.95,0.05,149,0,0.6406,176,0,176,0,1,,,,,
,,353350,1,2023-07-06_15h44.58.015,arm3_ET_builderv2,2022.2.5,MacIntel,60.0024001,down,-1,0.95,0.05,150,0,0.4169,177,0,177,0,1,,,,,
,,353350,1,2023-07-06_15h44.58.015,arm3_ET_builderv2,2022.2.5,MacIntel,60.0024001,down,-1,0.95,0.05,151,0,0.8011,178,0,178,0,1,,,,,
,,353350,1,2023-07-06_15h44.58.015,arm3_ET_builderv2,2022.2.5,MacIntel,60.0024001,down,1,0.95,0.05,152,0,0.7316,179,0,179,0,1,,,,,
,,353350,1,2023-07-06_15h44.58.015,arm3_ET_builderv2,2022.2.5,MacIntel,60.0024001,down,1,0.95,0.05,151,0,0.6498,180,0,180,0,1,,,,,
,,353350,1,2023-07-06_15h44.58.015,arm3_ET_builderv2,2022.2.5,MacIntel,60.0024001,right,1,0.95,0.05,151,0.000284009,1.2305,181,0,181,0,1,,,,,
,,353350,1,2023-07-06_15h44.58.015,arm3_ET_builderv2,2022.2.5,MacIntel,60.0024001,right,1,0.95,0.05,151,-0.009157627,0.1661,182,0,182,0,1,,,,,
,,353350,1,2023-07-06_15h44.58.015,arm3_ET_builderv2,2022.2.5,MacIntel,60.0024001,right,1,0.95,0.05,151,0.012202323,0.1835,183,0,183,0,1,,,,,
,,353350,1,2023-07-06_15h44.58.015,arm3_ET_builderv2,2022.2.5,MacIntel,60.0024001,right,1,0.95,0.05,151,0.039666368,0.2383,184,0,184,0,1,,,,,
,,353350,1,2023-07-06_15h44.58.015,arm3_ET_builderv2,2022.2.5,MacIntel,60.0024001,up,1,0.95,0.05,152,0,0.2681,185,0,185,0,1,,,,,
,,353350,1,2023-07-06_15h44.58.015,arm3_ET_builderv2,2022.2.5,MacIntel,60.0024001,up,1,0.95,0.05,153,0,0.3814,186,0,186,0,1,,,,,
,,353350,1,2023-07-06_15h44.58.015,arm3_ET_builderv2,2022.2.5,MacIntel,60.0024001,up,1,0.95,0.05,154,0,0.5176,187,0,187,0,1,,,,,
,,353350,1,2023-07-06_15h44.58.015,arm3_ET_builderv2,2022.2.5,MacIntel,60.0024001,up,1,0.95,0.05,155,0,0.5877,188,0,188,0,1,,,,,
,,353350,1,2023-07-06_15h44.58.015,arm3_ET_builderv2,2022.2.5,MacIntel,60.0024001,up,1,0.95,0.05,156,0,0.3839,189,0,189,0,1,,,,,
,,353350,1,2023-07-06_15h44.58.015,arm3_ET_builderv2,2022.2.5,MacIntel,60.0024001,up,1,0.95,0.05,157,0,0.835,190,0,190,0,1,,,,,
,,353350,1,2023-07-06_15h44.58.015,arm3_ET_builderv2,2022.2.5,MacIntel,60.0024001,up,1,0.95,0.05,158,0,0.8405,191,0,191,0,1,,,,,
,,353350,1,2023-07-06_15h44.58.015,arm3_ET_builderv2,2022.2.5,MacIntel,60.0024001,up,1,0.95,0.05,159,0,0.7677,192,0,192,0,1,,,,,
,,353350,1,2023-07-06_15h44.58.015,arm3_ET_builderv2,2022.2.5,MacIntel,60.0024001,up,1,0.95,0.05,160,0,0.8128,193,0,193,0,1,,,,,
,,353350,1,2023-07-06_15h44.58.015,arm3_ET_builderv2,2022.2.5,MacIntel,60.0024001,up,1,0.95,0.05,161,0,0.9655,194,0,194,0,1,,,,,
,,353350,1,2023-07-06_15h44.58.015,arm3_ET_builderv2,2022.2.5,MacIntel,60.0024001,up,1,0.95,0.05,162,0,0.6659,195,0,195,0,1,,,,,
,,353350,1,2023-07-06_15h44.58.015,arm3_ET_builderv2,2022.2.5,MacIntel,60.0024001,up,1,0.95,0.05,163,0,0.7675,196,0,196,0,1,,,,,
,,353350,1,2023-07-06_15h44.58.015,arm3_ET_builderv2,2022.2.5,MacIntel,60.0024001,up,1,0.95,0.05,164,0,0.6511,197,0,197,0,1,,,,,
,,353350,1,2023-07-06_15h44.58.015,arm3_ET_builderv2,2022.2.5,MacIntel,60.0024001,up,1,0.95,0.05,164,0,0.7999,198,0,198,0,1,,,,,
,,353350,1,2023-07-06_15h44.58.015,arm3_ET_builderv2,2022.2.5,MacIntel,60.0024001,right,1,0.95,0.05,164,-0.044183253,1.1781,199,0,199,0,1,,,,,
,,353350,1,2023-07-06_15h44.58.015,arm3_ET_builderv2,2022.2.5,MacIntel,60.0024001,right,1,0.95,0.05,164,-0.024606406,0.1724,200,0,200,0,1,,,,,
,,353350,1,2023-07-06_15h44.58.015,arm3_ET_builderv2,2022.2.5,MacIntel,60.0024001,right,1,0.95,0.05,164,-0.012127612,0.2014,201,0,201,0,1,,,,,
,,353350,1,2023-07-06_15h44.58.015,arm3_ET_builderv2,2022.2.5,MacIntel,60.0024001,right,1,0.95,0.05,164,0.008044083,0.1974,202,0,202,0,1,,,,,
,,353350,1,2023-07-06_15h44.58.015,arm3_ET_builderv2,2022.2.5,MacIntel,60.0024001,right,1,0.95,0.05,164,0.025793984,0.1703,203,0,203,0,1,,,,,
,,353350,1,2023-07-06_15h44.58.015,arm3_ET_builderv2,2022.2.5,MacIntel,60.0024001,up,1,0.95,0.05,165,0,0.3807,204,0,204,0,1,,,,,
,,353350,1,2023-07-06_15h44.58.015,arm3_ET_builderv2,2022.2.5,MacIntel,60.0024001,up,1,0.95,0.05,166,0,0.3321,205,0,205,0,1,,,,,
,,353350,1,2023-07-06_15h44.58.015,arm3_ET_builderv2,2022.2.5,MacIntel,60.0024001,up,1,0.95,0.05,167,0,0.2116,206,0,206,0,1,,,,,
,,353350,1,2023-07-06_15h44.58.015,arm3_ET_builderv2,2022.2.5,MacIntel,60.0024001,up,1,0.95,0.05,168,0,0.1863,207,0,207,0,1,,,,,
,,353350,1,2023-07-06_15h44.58.015,arm3_ET_builderv2,2022.2.5,MacIntel,60.0024001,up,1,0.95,0.05,169,0,0.2048,208,0,208,0,1,,,,,
,,353350,1,2023-07-06_15h44.58.015,arm3_ET_builderv2,2022.2.5,MacIntel,60.0024001,up,1,0.95,0.05,170,0,0.8225,209,0,209,0,1,,,,,
,,353350,1,2023-07-06_15h44.58.015,arm3_ET_builderv2,2022.2.5,MacIntel,60.0024001,up,1,0.95,0.05,171,0,0.2985,210,0,210,0,1,,,,,
,,353350,1,2023-07-06_15h44.58.015,arm3_ET_builderv2,2022.2.5,MacIntel,60.0024001,up,-1,0.95,0.05,172,0,0.8022,211,0,211,0,1,,,,,
,,353350,1,2023-07-06_15h44.58.015,arm3_ET_builderv2,2022.2.5,MacIntel,60.0024001,up,-1,0.95,0.05,171,0,0.7979,212,0,212,0,1,,,,,
,,353350,1,2023-07-06_15h44.58.015,arm3_ET_builderv2,2022.2.5,MacIntel,60.0024001,right,-1,0.95,0.05,171,-0.031850982,0.9651,213,0,213,0,1,,,,,
,,353350,1,2023-07-06_15h44.58.015,arm3_ET_builderv2,2022.2.5,MacIntel,60.0024001,down,-1,0.95,0.05,172,0,0.8325,214,0,214,0,1,,,,,
,,353350,1,2023-07-06_15h44.58.015,arm3_ET_builderv2,2022.2.5,MacIntel,60.0024001,down,-1,0.95,0.05,173,0,0.7483,215,0,215,0,1,,,,,
,,353350,1,2023-07-06_15h44.58.015,arm3_ET_builderv2,2022.2.5,MacIntel,60.0024001,down,-1,0.95,0.05,174,0,0.6319,216,0,216,0,1,,,,,
,,353350,1,2023-07-06_15h44.58.015,arm3_ET_builderv2,2022.2.5,MacIntel,60.0024001,down,-1,0.95,0.05,175,0,0.765,217,0,217,0,1,,,,,
,,353350,1,2023-07-06_15h44.58.015,arm3_ET_builderv2,2022.2.5,MacIntel,60.0024001,down,-1,0.95,0.05,176,0,0.6509,218,0,218,0,1,,,,,
,,353350,1,2023-07-06_15h44.58.015,arm3_ET_builderv2,2022.2.5,MacIntel,60.0024001,down,-1,0.95,0.05,177,0,0.6182,219,0,219,0,1,,,,,
,,353350,1,2023-07-06_15h44.58.015,arm3_ET_builderv2,2022.2.5,MacIntel,60.0024001,down,-1,0.95,0.05,178,0,0.5558,220,0,220,0,1,,,,,
,,353350,1,2023-07-06_15h44.58.015,arm3_ET_builderv2,2022.2.5,MacIntel,60.0024001,down,1,0.95,0.05,179,0,0.6167,221,0,221,0,1,,,,,
,,353350,1,2023-07-06_15h44.58.015,arm3_ET_builderv2,2022.2.5,MacIntel,60.0024001,down,1,0.95,0.05,178,0,0.7819,222,0,222,0,1,,,,,
,,353350,1,2023-07-06_15h44.58.015,arm3_ET_builderv2,2022.2.5,MacIntel,60.0024001,right,1,0.95,0.05,178,0.026625621,1.1284,223,0,223,0,1,,,,,
,,353350,1,2023-07-06_15h44.58.015,arm3_ET_builderv2,2022.2.5,MacIntel,60.0024001,right,1,0.95,0.05,178,0.048791832,0.1886,224,0,224,0,1,,,,,
,,353350,1,2023-07-06_15h44.58.015,arm3_ET_builderv2,2022.2.5,MacIntel,60.0024001,up,1,0.95,0.05,179,0,0.1539,225,0,225,0,1,,,,,
,,353350,1,2023-07-06_15h44.58.015,arm3_ET_builderv2,2022.2.5,MacIntel,60.0024001,up,1,0.95,0.05,180,0,0.6484,226,0,226,0,1,,,,,
,,353350,1,2023-07-06_15h44.58.015,arm3_ET_builderv2,2022.2.5,MacIntel,60.0024001,up,1,0.95,0.05,181,0,0.802,227,0,227,0,1,,,,,
,,353350,1,2023-07-06_15h44.58.015,arm3_ET_builderv2,2022.2.5,MacIntel,60.0024001,up,1,0.95,0.05,182,0,0.5632,228,0,228,0,1,,,,,
,,353350,1,2023-07-06_15h44.58.015,arm3_ET_builderv2,2022.2.5,MacIntel,60.0024001,up,1,0.95,0.05,183,0,1.0325,229,0,229,0,1,,,,,
,,353350,1,2023-07-06_15h44.58.015,arm3_ET_builderv2,2022.2.5,MacIntel,60.0024001,up,1,0.95,0.05,184,0,0.783,230,0,230,0,1,,,,,
,,353350,1,2023-07-06_15h44.58.015,arm3_ET_builderv2,2022.2.5,MacIntel,60.0024001,up,1,0.95,0.05,185,0,0.5253,231,0,231,0,1,,,,,
,,353350,1,2023-07-06_15h44.58.015,arm3_ET_builderv2,2022.2.5,MacIntel,60.0024001,up,1,0.95,0.05,186,0,0.8516,232,0,232,0,1,,,,,
,,353350,1,2023-07-06_15h44.58.015,arm3_ET_builderv2,2022.2.5,MacIntel,60.0024001,up,1,0.95,0.05,187,0,0.8,233,0,233,0,1,,,,,
,,353350,1,2023-07-06_15h44.58.015,arm3_ET_builderv2,2022.2.5,MacIntel,60.0024001,up,1,0.95,0.05,188,0,0.7479,234,0,234,0,1,,,,,
,,353350,1,2023-07-06_15h44.58.015,arm3_ET_builderv2,2022.2.5,MacIntel,60.0024001,up,1,0.95,0.05,189,0,0.7867,235,0,235,0,1,,,,,
,,353350,1,2023-07-06_15h44.58.015,arm3_ET_builderv2,2022.2.5,MacIntel,60.0024001,up,1,0.95,0.05,190,0,0.7682,236,0,236,0,1,,,,,
,,353350,1,2023-07-06_15h44.58.015,arm3_ET_builderv2,2022.2.5,MacIntel,60.0024001,up,1,0.95,0.05,191,0,0.8154,237,0,237,0,1,,,,,
,,353350,1,2023-07-06_15h44.58.015,arm3_ET_builderv2,2022.2.5,MacIntel,60.0024001,up,1,0.95,0.05,192,0,0.8476,238,0,238,0,1,,,,,
,,353350,1,2023-07-06_15h44.58.015,arm3_ET_builderv2,2022.2.5,MacIntel,60.0024001,up,1,0.95,0.05,193,0,0.8025,239,0,239,0,1,,,,,
,,353350,1,2023-07-06_15h44.58.015,arm3_ET_builderv2,2022.2.5,MacIntel,60.0024001,up,1,0.95,0.05,194,0,0.9337,240,0,240,0,1,,,,,
,,353350,1,2023-07-06_15h44.58.015,arm3_ET_builderv2,2022.2.5,MacIntel,60.0024001,up,1,0.95,0.05,195,0,0.8166,241,0,241,0,1,,,,,
,,353350,1,2023-07-06_15h44.58.015,arm3_ET_builderv2,2022.2.5,MacIntel,60.0024001,up,1,0.95,0.05,196,0,0.9665,242,0,242,0,1,,,,,
,,353350,1,2023-07-06_15h44.58.015,arm3_ET_builderv2,2022.2.5,MacIntel,60.0024001,up,1,0.95,0.05,197,0,0.8651,243,0,243,0,1,,,,,
,,353350,1,2023-07-06_15h44.58.015,arm3_ET_builderv2,2022.2.5,MacIntel,60.0024001,up,1,0.95,0.05,198,0,0.7687,244,0,244,0,1,,,,,
,,353350,1,2023-07-06_15h44.58.015,arm3_ET_builderv2,2022.2.5,MacIntel,60.0024001,up,1,0.95,0.05,199,0,0.7665,245,0,245,0,1,,,,,
,,353350,1,2023-07-06_15h44.58.015,arm3_ET_builderv2,2022.2.5,MacIntel,60.0024001,up,1,0.95,0.05,200,0,0.599,246,0,246,0,1,,,,,
,,353350,1,2023-07-06_15h44.58.015,arm3_ET_builderv2,2022.2.5,MacIntel,60.0024001,up,1,0.95,0.05,201,0,0.7999,247,0,247,0,1,,,,,
,,353350,1,2023-07-06_15h44.58.015,arm3_ET_builderv2,2022.2.5,MacIntel,60.0024001,up,1,0.95,0.05,202,0,0.6019,248,0,248,0,1,,,,,
,,353350,1,2023-07-06_15h44.58.015,arm3_ET_builderv2,2022.2.5,MacIntel,60.0024001,up,1,0.95,0.05,203,0,0.7727,249,0,249,0,1,,,,,
,,353350,1,2023-07-06_15h44.58.015,arm3_ET_builderv2,2022.2.5,MacIntel,60.0024001,up,1,0.95,0.05,204,0,0.8365,250,0,250,0,1,,,,,
,,353350,1,2023-07-06_15h44.58.015,arm3_ET_builderv2,2022.2.5,MacIntel,60.0024001,up,1,0.95,0.05,205,0,0.7994,251,0,251,0,1,,,,,
,,353350,1,2023-07-06_15h44.58.015,arm3_ET_builderv2,2022.2.5,MacIntel,60.0024001,up,1,0.95,0.05,206,0,0.6023,252,0,252,0,1,,,,,
,,353350,1,2023-07-06_15h44.58.015,arm3_ET_builderv2,2022.2.5,MacIntel,60.0024001,up,1,0.95,0.05,207,0,0.6162,253,0,253,0,1,,,,,
,,353350,1,2023-07-06_15h44.58.015,arm3_ET_builderv2,2022.2.5,MacIntel,60.0024001,up,1,0.95,0.05,208,0,0.6191,254,0,254,0,1,,,,,
,,353350,1,2023-07-06_15h44.58.015,arm3_ET_builderv2,2022.2.5,MacIntel,60.0024001,up,1,0.95,0.05,209,0,0.5937,255,0,255,0,1,,,,,
,,353350,1,2023-07-06_15h44.58.015,arm3_ET_builderv2,2022.2.5,MacIntel,60.0024001,up,1,0.95,0.05,210,0,0.4845,256,0,256,0,1,,,,,
,,353350,1,2023-07-06_15h44.58.015,arm3_ET_builderv2,2022.2.5,MacIntel,60.0024001,up,1,0.95,0.05,211,0,0.8156,257,0,257,0,1,,,,,
,,353350,1,2023-07-06_15h44.58.015,arm3_ET_builderv2,2022.2.5,MacIntel,60.0024001,up,1,0.95,0.05,212,0,0.7172,258,0,258,0,1,,,,,
,,353350,1,2023-07-06_15h44.58.015,arm3_ET_builderv2,2022.2.5,MacIntel,60.0024001,up,1,0.95,0.05,213,0,0.7646,259,0,259,0,1,,,,,
,,353350,1,2023-07-06_15h44.58.015,arm3_ET_builderv2,2022.2.5,MacIntel,60.0024001,up,1,0.95,0.05,214,0,0.7835,260,0,260,0,1,,,,,
,,353350,1,2023-07-06_15h44.58.015,arm3_ET_builderv2,2022.2.5,MacIntel,60.0024001,up,1,0.95,0.05,215,0,0.666,261,0,261,0,1,,,,,
,,353350,1,2023-07-06_15h44.58.015,arm3_ET_builderv2,2022.2.5,MacIntel,60.0024001,up,-1,0.95,0.05,216,0,0.7346,262,0,262,0,1,,,,,
,,353350,1,2023-07-06_15h44.58.015,arm3_ET_builderv2,2022.2.5,MacIntel,60.0024001,up,-1,0.95,0.05,215,0,0.7781,263,0,263,0,1,,,,,
,,353350,1,2023-07-06_15h44.58.015,arm3_ET_builderv2,2022.2.5,MacIntel,60.0024001,down,-1,0.95,0.05,216,0,0.7978,264,0,264,0,1,,,,,
,,353350,1,2023-07-06_15h44.58.015,arm3_ET_builderv2,2022.2.5,MacIntel,60.0024001,down,-1,0.95,0.05,217,0,0.6837,265,0,265,0,1,,,,,
,,353350,1,2023-07-06_15h44.58.015,arm3_ET_builderv2,2022.2.5,MacIntel,60.0024001,down,-1,0.95,0.05,218,0,0.7455,266,0,266,0,1,,,,,
,,353350,1,2023-07-06_15h44.58.015,arm3_ET_builderv2,2022.2.5,MacIntel,60.0024001,down,-1,0.95,0.05,219,0,0.3646,267,0,267,0,1,,,,,
,,353350,1,2023-07-06_15h44.58.015,arm3_ET_builderv2,2022.2.5,MacIntel,60.0024001,down,-1,0.95,0.05,220,0,0.4897,268,0,268,0,1,,,,,
,,353350,1,2023-07-06_15h44.58.015,arm3_ET_builderv2,2022.2.5,MacIntel,60.0024001,down,-1,0.95,0.05,221,0,0.557,269,0,269,0,1,,,,,
,,353350,1,2023-07-06_15h44.58.015,arm3_ET_builderv2,2022.2.5,MacIntel,60.0024001,down,-1,0.95,0.05,222,0,0.3068,270,0,270,0,1,,,,,
,,353350,1,2023-07-06_15h44.58.015,arm3_ET_builderv2,2022.2.5,MacIntel,60.0024001,down,-1,0.95,0.05,223,0,0.2517,271,0,271,0,1,,,,,
,,353350,1,2023-07-06_15h44.58.015,arm3_ET_builderv2,2022.2.5,MacIntel,60.0024001,down,1,0.95,0.05,224,0,0.2073,272,0,272,0,1,,,,,
,,353350,1,2023-07-06_15h44.58.015,arm3_ET_builderv2,2022.2.5,MacIntel,60.0024001,down,1,0.95,0.05,223,0,0.8186,273,0,273,0,1,,,,,
,,353350,1,2023-07-06_15h44.58.015,arm3_ET_builderv2,2022.2.5,MacIntel,60.0024001,up,1,0.95,0.05,224,0,0.737,274,0,274,0,1,,,,,
