space_bar.keys,space_bar.rt,participant,session,date,expName,psychopyVersion,OS,frameRate,resp.keys,state,q_prob,eps_prob,resp.rt,steps.thisRepN,steps.thisTrialN,steps.thisN,steps.thisIndex,steps.ran,blocks.thisRepN,blocks.thisTrialN,blocks.thisN,blocks.thisIndex,blocks.ran
space,30.9694,259932,001,2023-06-28_14h59.03.765,arm3_ET_builderv2,2022.2.5,Win32,59.57700328,,,,,,,,,,,,,,,
space,7.7619,259932,001,2023-06-28_14h59.03.765,arm3_ET_builderv2,2022.2.5,Win32,59.57700328,,,,,,,,,,,,,,,
space,10.5583,259932,001,2023-06-28_14h59.03.765,arm3_ET_builderv2,2022.2.5,Win32,59.57700328,,,,,,,,,,,,,,,
space,42.2379,259932,001,2023-06-28_14h59.03.765,arm3_ET_builderv2,2022.2.5,Win32,59.57700328,,,,,,,,,,,,,,,
,,259932,001,2023-06-28_14h59.03.765,arm3_ET_builderv2,2022.2.5,Win32,59.57700328,right,-1,0.65,0.05,2.5854,0,0,0,0,1,,,,,
,,259932,001,2023-06-28_14h59.03.765,arm3_ET_builderv2,2022.2.5,Win32,59.57700328,right,-1,0.65,0.05,0.6323,1,0,1,0,1,,,,,
,,259932,001,2023-06-28_14h59.03.765,arm3_ET_builderv2,2022.2.5,Win32,59.57700328,right,-1,0.65,0.05,0.4001,2,0,2,0,1,,,,,
,,259932,001,2023-06-28_14h59.03.765,arm3_ET_builderv2,2022.2.5,Win32,59.57700328,right,-1,0.65,0.05,0.3566,3,0,3,0,1,,,,,
,,259932,001,2023-06-28_14h59.03.765,arm3_ET_builderv2,2022.2.5,Win32,59.57700328,right,-1,0.65,0.05,0.5333,4,0,4,0,1,,,,,
,,259932,001,2023-06-28_14h59.03.765,arm3_ET_builderv2,2022.2.5,Win32,59.57700328,right,-1,0.65,0.05,0.4091,5,0,5,0,1,,,,,
,,259932,001,2023-06-28_14h59.03.765,arm3_ET_builderv2,2022.2.5,Win32,59.57700328,right,-1,0.65,0.05,0.4512,6,0,6,0,1,,,,,
,,259932,001,2023-06-28_14h59.03.765,arm3_ET_builderv2,2022.2.5,Win32,59.57700328,down,-1,0.65,0.05,1.0734,7,0,7,0,1,,,,,
,,259932,001,2023-06-28_14h59.03.765,arm3_ET_builderv2,2022.2.5,Win32,59.57700328,right,-1,0.65,0.05,1.6823,8,0,8,0,1,,,,,
,,259932,001,2023-06-28_14h59.03.765,arm3_ET_builderv2,2022.2.5,Win32,59.57700328,right,-1,0.65,0.05,0.3679,9,0,9,0,1,,,,,
,,259932,001,2023-06-28_14h59.03.765,arm3_ET_builderv2,2022.2.5,Win32,59.57700328,right,-1,0.65,0.05,0.3177,10,0,10,0,1,,,,,
,,259932,001,2023-06-28_14h59.03.765,arm3_ET_builderv2,2022.2.5,Win32,59.57700328,down,-1,0.65,0.05,0.8257,11,0,11,0,1,,,,,
,,259932,001,2023-06-28_14h59.03.765,arm3_ET_builderv2,2022.2.5,Win32,59.57700328,right,-1,0.65,0.05,1.6202,12,0,12,0,1,,,,,
,,259932,001,2023-06-28_14h59.03.765,arm3_ET_builderv2,2022.2.5,Win32,59.57700328,right,-1,0.65,0.05,0.3016,13,0,13,0,1,,,,,
,,259932,001,2023-06-28_14h59.03.765,arm3_ET_builderv2,2022.2.5,Win32,59.57700328,right,-1,0.65,0.05,0.2172,14,0,14,0,1,,,,,
,,259932,001,2023-06-28_14h59.03.765,arm3_ET_builderv2,2022.2.5,Win32,59.57700328,right,-1,0.65,0.05,0.2067,15,0,15,0,1,,,,,
,,259932,001,2023-06-28_14h59.03.765,arm3_ET_builderv2,2022.2.5,Win32,59.57700328,right,-1,0.65,0.05,0.4372,16,0,16,0,1,,,,,
,,259932,001,2023-06-28_14h59.03.765,arm3_ET_builderv2,2022.2.5,Win32,59.57700328,down,-1,0.65,0.05,0.3661,17,0,17,0,1,,,,,
,,259932,001,2023-06-28_14h59.03.765,arm3_ET_builderv2,2022.2.5,Win32,59.57700328,down,-1,0.65,0.05,1.9078,18,0,18,0,1,,,,,
,,259932,001,2023-06-28_14h59.03.765,arm3_ET_builderv2,2022.2.5,Win32,59.57700328,right,-1,0.65,0.05,1.5558,19,0,19,0,1,,,,,
,,259932,001,2023-06-28_14h59.03.765,arm3_ET_builderv2,2022.2.5,Win32,59.57700328,right,-1,0.65,0.05,0.4433,20,0,20,0,1,,,,,
,,259932,001,2023-06-28_14h59.03.765,arm3_ET_builderv2,2022.2.5,Win32,59.57700328,down,-1,0.65,0.05,1.3337,21,0,21,0,1,,,,,
,,259932,001,2023-06-28_14h59.03.765,arm3_ET_builderv2,2022.2.5,Win32,59.57700328,right,-1,0.65,0.05,1.6313,22,0,22,0,1,,,,,
,,259932,001,2023-06-28_14h59.03.765,arm3_ET_builderv2,2022.2.5,Win32,59.57700328,right,-1,0.65,0.05,0.3674,23,0,23,0,1,,,,,
,,259932,001,2023-06-28_14h59.03.765,arm3_ET_builderv2,2022.2.5,Win32,59.57700328,right,-1,0.65,0.05,0.4661,24,0,24,0,1,,,,,
,,259932,001,2023-06-28_14h59.03.765,arm3_ET_builderv2,2022.2.5,Win32,59.57700328,right,-1,0.65,0.05,0.3677,25,0,25,0,1,,,,,
,,259932,001,2023-06-28_14h59.03.765,arm3_ET_builderv2,2022.2.5,Win32,59.57700328,right,-1,0.65,0.05,0.3675,26,0,26,0,1,,,,,
,,259932,001,2023-06-28_14h59.03.765,arm3_ET_builderv2,2022.2.5,Win32,59.57700328,down,-1,0.65,0.05,0.6166,27,0,27,0,1,,,,,
,,259932,001,2023-06-28_14h59.03.765,arm3_ET_builderv2,2022.2.5,Win32,59.57700328,right,-1,0.65,0.05,1.4335,28,0,28,0,1,,,,,
,,259932,001,2023-06-28_14h59.03.765,arm3_ET_builderv2,2022.2.5,Win32,59.57700328,down,-1,0.65,0.05,1.2156,29,0,29,0,1,,,,,
,,259932,001,2023-06-28_14h59.03.765,arm3_ET_builderv2,2022.2.5,Win32,59.57700328,right,-1,0.65,0.05,1.8988,30,0,30,0,1,,,,,
,,259932,001,2023-06-28_14h59.03.765,arm3_ET_builderv2,2022.2.5,Win32,59.57700328,right,-1,0.65,0.05,0.6992,31,0,31,0,1,,,,,
,,259932,001,2023-06-28_14h59.03.765,arm3_ET_builderv2,2022.2.5,Win32,59.57700328,right,-1,0.65,0.05,0.3831,32,0,32,0,1,,,,,
,,259932,001,2023-06-28_14h59.03.765,arm3_ET_builderv2,2022.2.5,Win32,59.57700328,right,-1,0.65,0.05,0.4499,33,0,33,0,1,,,,,
,,259932,001,2023-06-28_14h59.03.765,arm3_ET_builderv2,2022.2.5,Win32,59.57700328,right,-1,0.65,0.05,0.3841,34,0,34,0,1,,,,,
,,259932,001,2023-06-28_14h59.03.765,arm3_ET_builderv2,2022.2.5,Win32,59.57700328,down,-1,0.65,0.05,1.217,35,0,35,0,1,,,,,
,,259932,001,2023-06-28_14h59.03.765,arm3_ET_builderv2,2022.2.5,Win32,59.57700328,right,-1,0.65,0.05,1.8478,36,0,36,0,1,,,,,
,,259932,001,2023-06-28_14h59.03.765,arm3_ET_builderv2,2022.2.5,Win32,59.57700328,right,-1,0.65,0.05,0.4341,37,0,37,0,1,,,,,
,,259932,001,2023-06-28_14h59.03.765,arm3_ET_builderv2,2022.2.5,Win32,59.57700328,right,-1,0.65,0.05,0.3663,38,0,38,0,1,,,,,
,,259932,001,2023-06-28_14h59.03.765,arm3_ET_builderv2,2022.2.5,Win32,59.57700328,right,-1,0.65,0.05,0.4006,39,0,39,0,1,,,,,
,,259932,001,2023-06-28_14h59.03.765,arm3_ET_builderv2,2022.2.5,Win32,59.57700328,down,-1,0.65,0.05,0.9509,40,0,40,0,1,,,,,
,,259932,001,2023-06-28_14h59.03.765,arm3_ET_builderv2,2022.2.5,Win32,59.57700328,right,-1,0.65,0.05,1.5654,41,0,41,0,1,,,,,
,,259932,001,2023-06-28_14h59.03.765,arm3_ET_builderv2,2022.2.5,Win32,59.57700328,right,-1,0.65,0.05,0.1826,42,0,42,0,1,,,,,
,,259932,001,2023-06-28_14h59.03.765,arm3_ET_builderv2,2022.2.5,Win32,59.57700328,right,-1,0.65,0.05,0.7501,43,0,43,0,1,,,,,
,,259932,001,2023-06-28_14h59.03.765,arm3_ET_builderv2,2022.2.5,Win32,59.57700328,right,-1,0.65,0.05,0.4665,44,0,44,0,1,,,,,
,,259932,001,2023-06-28_14h59.03.765,arm3_ET_builderv2,2022.2.5,Win32,59.57700328,down,-1,0.65,0.05,0.8005,45,0,45,0,1,,,,,
,,259932,001,2023-06-28_14h59.03.765,arm3_ET_builderv2,2022.2.5,Win32,59.57700328,right,-1,0.65,0.05,1.7152,46,0,46,0,1,,,,,
,,259932,001,2023-06-28_14h59.03.765,arm3_ET_builderv2,2022.2.5,Win32,59.57700328,right,-1,0.65,0.05,0.2834,47,0,47,0,1,,,,,
,,259932,001,2023-06-28_14h59.03.765,arm3_ET_builderv2,2022.2.5,Win32,59.57700328,down,-1,0.65,0.05,0.6667,48,0,48,0,1,,,,,
,,259932,001,2023-06-28_14h59.03.765,arm3_ET_builderv2,2022.2.5,Win32,59.57700328,right,-1,0.65,0.05,1.6152,49,0,49,0,1,,,,,
,,259932,001,2023-06-28_14h59.03.765,arm3_ET_builderv2,2022.2.5,Win32,59.57700328,right,-1,0.65,0.05,0.3173,50,0,50,0,1,,,,,
,,259932,001,2023-06-28_14h59.03.765,arm3_ET_builderv2,2022.2.5,Win32,59.57700328,up,-1,0.65,0.05,0.883,51,0,51,0,1,,,,,
,,259932,001,2023-06-28_14h59.03.765,arm3_ET_builderv2,2022.2.5,Win32,59.57700328,right,-1,0.65,0.05,1.582,52,0,52,0,1,,,,,
,,259932,001,2023-06-28_14h59.03.765,arm3_ET_builderv2,2022.2.5,Win32,59.57700328,right,-1,0.65,0.05,0.3192,53,0,53,0,1,,,,,
,,259932,001,2023-06-28_14h59.03.765,arm3_ET_builderv2,2022.2.5,Win32,59.57700328,right,-1,0.65,0.05,0.3158,54,0,54,0,1,,,,,
,,259932,001,2023-06-28_14h59.03.765,arm3_ET_builderv2,2022.2.5,Win32,59.57700328,down,-1,0.65,0.05,0.5674,55,0,55,0,1,,,,,
,,259932,001,2023-06-28_14h59.03.765,arm3_ET_builderv2,2022.2.5,Win32,59.57700328,right,-1,0.65,0.05,1.5313,56,0,56,0,1,,,,,
,,259932,001,2023-06-28_14h59.03.765,arm3_ET_builderv2,2022.2.5,Win32,59.57700328,right,-1,0.65,0.05,0.3838,57,0,57,0,1,,,,,
,,259932,001,2023-06-28_14h59.03.765,arm3_ET_builderv2,2022.2.5,Win32,59.57700328,right,-1,0.65,0.05,0.2161,58,0,58,0,1,,,,,
,,259932,001,2023-06-28_14h59.03.765,arm3_ET_builderv2,2022.2.5,Win32,59.57700328,down,-1,0.65,0.05,0.5155,59,0,59,0,1,,,,,
,,259932,001,2023-06-28_14h59.03.765,arm3_ET_builderv2,2022.2.5,Win32,59.57700328,right,-1,0.65,0.05,1.733,60,0,60,0,1,,,,,
,,259932,001,2023-06-28_14h59.03.765,arm3_ET_builderv2,2022.2.5,Win32,59.57700328,right,-1,0.65,0.05,0.5507,61,0,61,0,1,,,,,
,,259932,001,2023-06-28_14h59.03.765,arm3_ET_builderv2,2022.2.5,Win32,59.57700328,right,-1,0.65,0.05,0.983,62,0,62,0,1,,,,,
,,259932,001,2023-06-28_14h59.03.765,arm3_ET_builderv2,2022.2.5,Win32,59.57700328,right,-1,0.65,0.05,0.3341,63,0,63,0,1,,,,,
,,259932,001,2023-06-28_14h59.03.765,arm3_ET_builderv2,2022.2.5,Win32,59.57700328,right,-1,0.65,0.05,0.8,64,0,64,0,1,,,,,
,,259932,001,2023-06-28_14h59.03.765,arm3_ET_builderv2,2022.2.5,Win32,59.57700328,right,-1,0.65,0.05,0.3839,65,0,65,0,1,,,,,
,,259932,001,2023-06-28_14h59.03.765,arm3_ET_builderv2,2022.2.5,Win32,59.57700328,right,-1,0.65,0.05,0.3339,66,0,66,0,1,,,,,
,,259932,001,2023-06-28_14h59.03.765,arm3_ET_builderv2,2022.2.5,Win32,59.57700328,down,-1,0.65,0.05,0.9495,67,0,67,0,1,,,,,
,,259932,001,2023-06-28_14h59.03.765,arm3_ET_builderv2,2022.2.5,Win32,59.57700328,right,-1,0.65,0.05,1.6479,68,0,68,0,1,,,,,
,,259932,001,2023-06-28_14h59.03.765,arm3_ET_builderv2,2022.2.5,Win32,59.57700328,right,-1,0.65,0.05,0.3511,69,0,69,0,1,,,,,
,,259932,001,2023-06-28_14h59.03.765,arm3_ET_builderv2,2022.2.5,Win32,59.57700328,right,-1,0.65,0.05,0.3345,70,0,70,0,1,,,,,
,,259932,001,2023-06-28_14h59.03.765,arm3_ET_builderv2,2022.2.5,Win32,59.57700328,down,-1,0.65,0.05,0.8176,71,0,71,0,1,,,,,
,,259932,001,2023-06-28_14h59.03.765,arm3_ET_builderv2,2022.2.5,Win32,59.57700328,right,-1,0.65,0.05,1.3808,72,0,72,0,1,,,,,
,,259932,001,2023-06-28_14h59.03.765,arm3_ET_builderv2,2022.2.5,Win32,59.57700328,right,-1,0.65,0.05,0.3028,73,0,73,0,1,,,,,
,,259932,001,2023-06-28_14h59.03.765,arm3_ET_builderv2,2022.2.5,Win32,59.57700328,right,-1,0.65,0.05,0.217,74,0,74,0,1,,,,,
,,259932,001,2023-06-28_14h59.03.765,arm3_ET_builderv2,2022.2.5,Win32,59.57700328,down,-1,0.65,0.05,0.8172,75,0,75,0,1,,,,,
,,259932,001,2023-06-28_14h59.03.765,arm3_ET_builderv2,2022.2.5,Win32,59.57700328,right,-1,0.65,0.05,1.5134,76,0,76,0,1,,,,,
,,259932,001,2023-06-28_14h59.03.765,arm3_ET_builderv2,2022.2.5,Win32,59.57700328,right,-1,0.65,0.05,0.266,77,0,77,0,1,,,,,
,,259932,001,2023-06-28_14h59.03.765,arm3_ET_builderv2,2022.2.5,Win32,59.57700328,right,-1,0.65,0.05,0.401,78,0,78,0,1,,,,,
,,259932,001,2023-06-28_14h59.03.765,arm3_ET_builderv2,2022.2.5,Win32,59.57700328,right,-1,0.65,0.05,0.2841,79,0,79,0,1,,,,,
,,259932,001,2023-06-28_14h59.03.765,arm3_ET_builderv2,2022.2.5,Win32,59.57700328,right,-1,0.65,0.05,0.3176,80,0,80,0,1,,,,,
,,259932,001,2023-06-28_14h59.03.765,arm3_ET_builderv2,2022.2.5,Win32,59.57700328,right,-1,0.65,0.05,0.3518,81,0,81,0,1,,,,,
,,259932,001,2023-06-28_14h59.03.765,arm3_ET_builderv2,2022.2.5,Win32,59.57700328,right,-1,0.65,0.05,0.3834,82,0,82,0,1,,,,,
,,259932,001,2023-06-28_14h59.03.765,arm3_ET_builderv2,2022.2.5,Win32,59.57700328,right,-1,0.65,0.05,0.3007,83,0,83,0,1,,,,,
,,259932,001,2023-06-28_14h59.03.765,arm3_ET_builderv2,2022.2.5,Win32,59.57700328,down,-1,0.65,0.05,1.317,84,0,84,0,1,,,,,
,,259932,001,2023-06-28_14h59.03.765,arm3_ET_builderv2,2022.2.5,Win32,59.57700328,right,-1,0.65,0.05,1.3307,85,0,85,0,1,,,,,
,,259932,001,2023-06-28_14h59.03.765,arm3_ET_builderv2,2022.2.5,Win32,59.57700328,right,-1,0.65,0.05,0.2177,86,0,86,0,1,,,,,
,,259932,001,2023-06-28_14h59.03.765,arm3_ET_builderv2,2022.2.5,Win32,59.57700328,right,-1,0.65,0.05,0.1853,87,0,87,0,1,,,,,
,,259932,001,2023-06-28_14h59.03.765,arm3_ET_builderv2,2022.2.5,Win32,59.57700328,right,-1,0.65,0.05,0.2503,88,0,88,0,1,,,,,
,,259932,001,2023-06-28_14h59.03.765,arm3_ET_builderv2,2022.2.5,Win32,59.57700328,down,-1,0.65,0.05,0.3992,89,0,89,0,1,,,,,
,,259932,001,2023-06-28_14h59.03.765,arm3_ET_builderv2,2022.2.5,Win32,59.57700328,right,-1,0.65,0.05,1.533,90,0,90,0,1,,,,,
,,259932,001,2023-06-28_14h59.03.765,arm3_ET_builderv2,2022.2.5,Win32,59.57700328,right,-1,0.65,0.05,0.3327,91,0,91,0,1,,,,,
,,259932,001,2023-06-28_14h59.03.765,arm3_ET_builderv2,2022.2.5,Win32,59.57700328,down,-1,0.65,0.05,0.9173,92,0,92,0,1,,,,,
,,259932,001,2023-06-28_14h59.03.765,arm3_ET_builderv2,2022.2.5,Win32,59.57700328,down,-1,0.65,0.05,1.4982,93,0,93,0,1,,,,,
,,259932,001,2023-06-28_14h59.03.765,arm3_ET_builderv2,2022.2.5,Win32,59.57700328,down,-1,0.65,0.05,2.0651,94,0,94,0,1,,,,,
,,259932,001,2023-06-28_14h59.03.765,arm3_ET_builderv2,2022.2.5,Win32,59.57700328,down,-1,0.65,0.05,0.1302,95,0,95,0,1,,,,,
,,259932,001,2023-06-28_14h59.03.765,arm3_ET_builderv2,2022.2.5,Win32,59.57700328,right,-1,0.65,0.05,2.916,96,0,96,0,1,,,,,
,,259932,001,2023-06-28_14h59.03.765,arm3_ET_builderv2,2022.2.5,Win32,59.57700328,right,-1,0.65,0.05,0.315,97,0,97,0,1,,,,,
,,259932,001,2023-06-28_14h59.03.765,arm3_ET_builderv2,2022.2.5,Win32,59.57700328,right,-1,0.65,0.05,0.1328,98,0,98,0,1,,,,,
,,259932,001,2023-06-28_14h59.03.765,arm3_ET_builderv2,2022.2.5,Win32,59.57700328,down,-1,0.65,0.05,0.5002,99,0,99,0,1,,,,,
,,259932,001,2023-06-28_14h59.03.765,arm3_ET_builderv2,2022.2.5,Win32,59.57700328,right,-1,0.65,0.05,1.6673,100,0,100,0,1,,,,,
,,259932,001,2023-06-28_14h59.03.765,arm3_ET_builderv2,2022.2.5,Win32,59.57700328,right,-1,0.65,0.05,0.5669,101,0,101,0,1,,,,,
,,259932,001,2023-06-28_14h59.03.765,arm3_ET_builderv2,2022.2.5,Win32,59.57700328,right,-1,0.65,0.05,0.5839,102,0,102,0,1,,,,,
,,259932,001,2023-06-28_14h59.03.765,arm3_ET_builderv2,2022.2.5,Win32,59.57700328,down,-1,0.65,0.05,0.7164,103,0,103,0,1,,,,,
,,259932,001,2023-06-28_14h59.03.765,arm3_ET_builderv2,2022.2.5,Win32,59.57700328,right,-1,0.65,0.05,1.7657,104,0,104,0,1,,,,,
,,259932,001,2023-06-28_14h59.03.765,arm3_ET_builderv2,2022.2.5,Win32,59.57700328,right,-1,0.65,0.05,0.2506,105,0,105,0,1,,,,,
,,259932,001,2023-06-28_14h59.03.765,arm3_ET_builderv2,2022.2.5,Win32,59.57700328,right,-1,0.65,0.05,0.2006,106,0,106,0,1,,,,,
,,259932,001,2023-06-28_14h59.03.765,arm3_ET_builderv2,2022.2.5,Win32,59.57700328,right,-1,0.65,0.05,0.4341,107,0,107,0,1,,,,,
,,259932,001,2023-06-28_14h59.03.765,arm3_ET_builderv2,2022.2.5,Win32,59.57700328,right,-1,0.65,0.05,0.3671,108,0,108,0,1,,,,,
,,259932,001,2023-06-28_14h59.03.765,arm3_ET_builderv2,2022.2.5,Win32,59.57700328,up,-1,0.65,0.05,0.9007,109,0,109,0,1,,,,,
,,259932,001,2023-06-28_14h59.03.765,arm3_ET_builderv2,2022.2.5,Win32,59.57700328,down,-1,0.65,0.05,0.7954,110,0,110,0,1,,,,,
,,259932,001,2023-06-28_14h59.03.765,arm3_ET_builderv2,2022.2.5,Win32,59.57700328,right,-1,0.65,0.05,3.4856,111,0,111,0,1,,,,,
,,259932,001,2023-06-28_14h59.03.765,arm3_ET_builderv2,2022.2.5,Win32,59.57700328,right,-1,0.65,0.05,0.2957,112,0,112,0,1,,,,,
,,259932,001,2023-06-28_14h59.03.765,arm3_ET_builderv2,2022.2.5,Win32,59.57700328,down,-1,0.65,0.05,0.8667,113,0,113,0,1,,,,,
,,259932,001,2023-06-28_14h59.03.765,arm3_ET_builderv2,2022.2.5,Win32,59.57700328,right,-1,0.65,0.05,1.734,114,0,114,0,1,,,,,
,,259932,001,2023-06-28_14h59.03.765,arm3_ET_builderv2,2022.2.5,Win32,59.57700328,right,-1,0.65,0.05,0.5012,115,0,115,0,1,,,,,
,,259932,001,2023-06-28_14h59.03.765,arm3_ET_builderv2,2022.2.5,Win32,59.57700328,down,-1,0.65,0.05,0.9837,116,0,116,0,1,,,,,
,,259932,001,2023-06-28_14h59.03.765,arm3_ET_builderv2,2022.2.5,Win32,59.57700328,right,-1,0.65,0.05,0.8828,117,0,117,0,1,,,,,
,,259932,001,2023-06-28_14h59.03.765,arm3_ET_builderv2,2022.2.5,Win32,59.57700328,right,-1,0.65,0.05,0.383,118,0,118,0,1,,,,,
,,259932,001,2023-06-28_14h59.03.765,arm3_ET_builderv2,2022.2.5,Win32,59.57700328,down,-1,0.65,0.05,51.6818,119,0,119,0,1,,,,,
,,259932,001,2023-06-28_14h59.03.765,arm3_ET_builderv2,2022.2.5,Win32,59.57700328,right,-1,0.65,0.05,2.2125,120,0,120,0,1,,,,,
,,259932,001,2023-06-28_14h59.03.765,arm3_ET_builderv2,2022.2.5,Win32,59.57700328,right,-1,0.65,0.05,0.2173,121,0,121,0,1,,,,,
,,259932,001,2023-06-28_14h59.03.765,arm3_ET_builderv2,2022.2.5,Win32,59.57700328,right,-1,0.65,0.05,0.2245,122,0,122,0,1,,,,,
,,259932,001,2023-06-28_14h59.03.765,arm3_ET_builderv2,2022.2.5,Win32,59.57700328,right,-1,0.65,0.05,0.8315,123,0,123,0,1,,,,,
,,259932,001,2023-06-28_14h59.03.765,arm3_ET_builderv2,2022.2.5,Win32,59.57700328,right,-1,0.65,0.05,0.1185,124,0,124,0,1,,,,,
,,259932,001,2023-06-28_14h59.03.765,arm3_ET_builderv2,2022.2.5,Win32,59.57700328,right,-1,0.65,0.05,0.6629,125,0,125,0,1,,,,,
,,259932,001,2023-06-28_14h59.03.765,arm3_ET_builderv2,2022.2.5,Win32,59.57700328,down,-1,0.65,0.05,1.1988,126,0,126,0,1,,,,,
,,259932,001,2023-06-28_14h59.03.765,arm3_ET_builderv2,2022.2.5,Win32,59.57700328,right,-1,0.65,0.05,6.325,127,0,127,0,1,,,,,
,,259932,001,2023-06-28_14h59.03.765,arm3_ET_builderv2,2022.2.5,Win32,59.57700328,right,-1,0.65,0.05,0.0672,128,0,128,0,1,,,,,
,,259932,001,2023-06-28_14h59.03.765,arm3_ET_builderv2,2022.2.5,Win32,59.57700328,down,-1,0.65,0.05,0.6002,129,0,129,0,1,,,,,
,,259932,001,2023-06-28_14h59.03.765,arm3_ET_builderv2,2022.2.5,Win32,59.57700328,right,-1,0.65,0.05,2.0012,130,0,130,0,1,,,,,
,,259932,001,2023-06-28_14h59.03.765,arm3_ET_builderv2,2022.2.5,Win32,59.57700328,right,-1,0.65,0.05,0.1998,131,0,131,0,1,,,,,
,,259932,001,2023-06-28_14h59.03.765,arm3_ET_builderv2,2022.2.5,Win32,59.57700328,right,-1,0.65,0.05,0.3486,132,0,132,0,1,,,,,
,,259932,001,2023-06-28_14h59.03.765,arm3_ET_builderv2,2022.2.5,Win32,59.57700328,right,-1,0.65,0.05,0.1497,133,0,133,0,1,,,,,
,,259932,001,2023-06-28_14h59.03.765,arm3_ET_builderv2,2022.2.5,Win32,59.57700328,right,-1,0.65,0.05,0.2169,134,0,134,0,1,,,,,
,,259932,001,2023-06-28_14h59.03.765,arm3_ET_builderv2,2022.2.5,Win32,59.57700328,down,-1,0.65,0.05,0.5341,135,0,135,0,1,,,,,
,,259932,001,2023-06-28_14h59.03.765,arm3_ET_builderv2,2022.2.5,Win32,59.57700328,right,-1,0.65,0.05,0.3953,136,0,136,0,1,,,,,
,,259932,001,2023-06-28_14h59.03.765,arm3_ET_builderv2,2022.2.5,Win32,59.57700328,right,-1,0.65,0.05,0.3499,137,0,137,0,1,,,,,
,,259932,001,2023-06-28_14h59.03.765,arm3_ET_builderv2,2022.2.5,Win32,59.57700328,down,-1,0.65,0.05,0.9178,138,0,138,0,1,,,,,
,,259932,001,2023-06-28_14h59.03.765,arm3_ET_builderv2,2022.2.5,Win32,59.57700328,right,-1,0.65,0.05,0.5477,139,0,139,0,1,,,,,
,,259932,001,2023-06-28_14h59.03.765,arm3_ET_builderv2,2022.2.5,Win32,59.57700328,right,-1,0.65,0.05,0.5669,140,0,140,0,1,,,,,
,,259932,001,2023-06-28_14h59.03.765,arm3_ET_builderv2,2022.2.5,Win32,59.57700328,right,-1,0.65,0.05,0.4837,141,0,141,0,1,,,,,
,,259932,001,2023-06-28_14h59.03.765,arm3_ET_builderv2,2022.2.5,Win32,59.57700328,right,-1,0.65,0.05,0.5835,142,0,142,0,1,,,,,
,,259932,001,2023-06-28_14h59.03.765,arm3_ET_builderv2,2022.2.5,Win32,59.57700328,down,-1,0.65,0.05,0.5515,143,0,143,0,1,,,,,
,,259932,001,2023-06-28_14h59.03.765,arm3_ET_builderv2,2022.2.5,Win32,59.57700328,right,-1,0.65,0.05,0.3999,144,0,144,0,1,,,,,
,,259932,001,2023-06-28_14h59.03.765,arm3_ET_builderv2,2022.2.5,Win32,59.57700328,right,-1,0.65,0.05,0.5341,145,0,145,0,1,,,,,
,,259932,001,2023-06-28_14h59.03.765,arm3_ET_builderv2,2022.2.5,Win32,59.57700328,right,-1,0.65,0.05,0.4169,146,0,146,0,1,,,,,
,,259932,001,2023-06-28_14h59.03.765,arm3_ET_builderv2,2022.2.5,Win32,59.57700328,right,-1,0.65,0.05,0.3836,147,0,147,0,1,,,,,
,,259932,001,2023-06-28_14h59.03.765,arm3_ET_builderv2,2022.2.5,Win32,59.57700328,up,-1,0.65,0.05,0.8494,148,0,148,0,1,,,,,
,,259932,001,2023-06-28_14h59.03.765,arm3_ET_builderv2,2022.2.5,Win32,59.57700328,down,-1,0.65,0.05,0.6986,149,0,149,0,1,,,,,
,,259932,001,2023-06-28_14h59.03.765,arm3_ET_builderv2,2022.2.5,Win32,59.57700328,right,-1,0.65,0.05,2.2322,150,0,150,0,1,,,,,
,,259932,001,2023-06-28_14h59.03.765,arm3_ET_builderv2,2022.2.5,Win32,59.57700328,right,-1,0.65,0.05,0.2004,151,0,151,0,1,,,,,
,,259932,001,2023-06-28_14h59.03.765,arm3_ET_builderv2,2022.2.5,Win32,59.57700328,right,-1,0.65,0.05,0.15,152,0,152,0,1,,,,,
,,259932,001,2023-06-28_14h59.03.765,arm3_ET_builderv2,2022.2.5,Win32,59.57700328,down,-1,0.65,0.05,0.5674,153,0,153,0,1,,,,,
,,259932,001,2023-06-28_14h59.03.765,arm3_ET_builderv2,2022.2.5,Win32,59.57700328,right,-1,0.65,0.05,0.6298,154,0,154,0,1,,,,,
,,259932,001,2023-06-28_14h59.03.765,arm3_ET_builderv2,2022.2.5,Win32,59.57700328,down,-1,0.65,0.05,0.6499,155,0,155,0,1,,,,,
,,259932,001,2023-06-28_14h59.03.765,arm3_ET_builderv2,2022.2.5,Win32,59.57700328,down,-1,0.65,0.05,0.6147,156,0,156,0,1,,,,,
,,259932,001,2023-06-28_14h59.03.765,arm3_ET_builderv2,2022.2.5,Win32,59.57700328,right,-1,0.65,0.05,0.8162,157,0,157,0,1,,,,,
,,259932,001,2023-06-28_14h59.03.765,arm3_ET_builderv2,2022.2.5,Win32,59.57700328,right,-1,0.65,0.05,0.4167,158,0,158,0,1,,,,,
,,259932,001,2023-06-28_14h59.03.765,arm3_ET_builderv2,2022.2.5,Win32,59.57700328,right,-1,0.65,0.05,0.2169,159,0,159,0,1,,,,,
,,259932,001,2023-06-28_14h59.03.765,arm3_ET_builderv2,2022.2.5,Win32,59.57700328,right,-1,0.65,0.05,0.1839,160,0,160,0,1,,,,,
,,259932,001,2023-06-28_14h59.03.765,arm3_ET_builderv2,2022.2.5,Win32,59.57700328,right,-1,0.65,0.05,0.2176,161,0,161,0,1,,,,,
,,259932,001,2023-06-28_14h59.03.765,arm3_ET_builderv2,2022.2.5,Win32,59.57700328,right,-1,0.65,0.05,0.2001,162,0,162,0,1,,,,,
,,259932,001,2023-06-28_14h59.03.765,arm3_ET_builderv2,2022.2.5,Win32,59.57700328,down,-1,0.65,0.05,0.3838,163,0,163,0,1,,,,,
,,259932,001,2023-06-28_14h59.03.765,arm3_ET_builderv2,2022.2.5,Win32,59.57700328,right,-1,0.65,0.05,0.3802,164,0,164,0,1,,,,,
,,259932,001,2023-06-28_14h59.03.765,arm3_ET_builderv2,2022.2.5,Win32,59.57700328,down,-1,0.65,0.05,0.4507,165,0,165,0,1,,,,,
,,259932,001,2023-06-28_14h59.03.765,arm3_ET_builderv2,2022.2.5,Win32,59.57700328,right,-1,0.65,0.05,0.848,166,0,166,0,1,,,,,
,,259932,001,2023-06-28_14h59.03.765,arm3_ET_builderv2,2022.2.5,Win32,59.57700328,right,-1,0.65,0.05,0.4835,167,0,167,0,1,,,,,
,,259932,001,2023-06-28_14h59.03.765,arm3_ET_builderv2,2022.2.5,Win32,59.57700328,right,-1,0.65,0.05,0.2001,168,0,168,0,1,,,,,
,,259932,001,2023-06-28_14h59.03.765,arm3_ET_builderv2,2022.2.5,Win32,59.57700328,right,-1,0.65,0.05,0.534,169,0,169,0,1,,,,,
,,259932,001,2023-06-28_14h59.03.765,arm3_ET_builderv2,2022.2.5,Win32,59.57700328,right,-1,0.65,0.05,0.1349,170,0,170,0,1,,,,,
,,259932,001,2023-06-28_14h59.03.765,arm3_ET_builderv2,2022.2.5,Win32,59.57700328,right,-1,0.65,0.05,0.1843,171,0,171,0,1,,,,,
,,259932,001,2023-06-28_14h59.03.765,arm3_ET_builderv2,2022.2.5,Win32,59.57700328,right,-1,0.65,0.05,0.2834,172,0,172,0,1,,,,,
,,259932,001,2023-06-28_14h59.03.765,arm3_ET_builderv2,2022.2.5,Win32,59.57700328,down,-1,0.65,0.05,0.5504,173,0,173,0,1,,,,,
,,259932,001,2023-06-28_14h59.03.765,arm3_ET_builderv2,2022.2.5,Win32,59.57700328,right,-1,0.65,0.05,0.3135,174,0,174,0,1,,,,,
,,259932,001,2023-06-28_14h59.03.765,arm3_ET_builderv2,2022.2.5,Win32,59.57700328,right,-1,0.65,0.05,0.3014,175,0,175,0,1,,,,,
,,259932,001,2023-06-28_14h59.03.765,arm3_ET_builderv2,2022.2.5,Win32,59.57700328,right,-1,0.65,0.05,0.1671,176,0,176,0,1,,,,,
,,259932,001,2023-06-28_14h59.03.765,arm3_ET_builderv2,2022.2.5,Win32,59.57700328,down,-1,0.65,0.05,0.4665,177,0,177,0,1,,,,,
,,259932,001,2023-06-28_14h59.03.765,arm3_ET_builderv2,2022.2.5,Win32,59.57700328,right,-1,0.65,0.05,0.2841,178,0,178,0,1,,,,,
,,259932,001,2023-06-28_14h59.03.765,arm3_ET_builderv2,2022.2.5,Win32,59.57700328,right,-1,0.65,0.05,0.2175,179,0,179,0,1,,,,,
,,259932,001,2023-06-28_14h59.03.765,arm3_ET_builderv2,2022.2.5,Win32,59.57700328,right,-1,0.65,0.05,0.3668,180,0,180,0,1,,,,,
,,259932,001,2023-06-28_14h59.03.765,arm3_ET_builderv2,2022.2.5,Win32,59.57700328,down,1,0.65,0.05,0.9165,181,0,181,0,1,,,,,
,,259932,001,2023-06-28_14h59.03.765,arm3_ET_builderv2,2022.2.5,Win32,59.57700328,right,1,0.65,0.05,0.2672,182,0,182,0,1,,,,,
,,259932,001,2023-06-28_14h59.03.765,arm3_ET_builderv2,2022.2.5,Win32,59.57700328,right,1,0.65,0.05,0.2344,183,0,183,0,1,,,,,
,,259932,001,2023-06-28_14h59.03.765,arm3_ET_builderv2,2022.2.5,Win32,59.57700328,right,1,0.65,0.05,0.4005,184,0,184,0,1,,,,,
,,259932,001,2023-06-28_14h59.03.765,arm3_ET_builderv2,2022.2.5,Win32,59.57700328,right,1,0.65,0.05,0.3666,185,0,185,0,1,,,,,
,,259932,001,2023-06-28_14h59.03.765,arm3_ET_builderv2,2022.2.5,Win32,59.57700328,right,1,0.65,0.05,0.1673,186,0,186,0,1,,,,,
,,259932,001,2023-06-28_14h59.03.765,arm3_ET_builderv2,2022.2.5,Win32,59.57700328,right,1,0.65,0.05,0.3343,187,0,187,0,1,,,,,
,,259932,001,2023-06-28_14h59.03.765,arm3_ET_builderv2,2022.2.5,Win32,59.57700328,right,1,0.65,0.05,0.5002,188,0,188,0,1,,,,,
,,259932,001,2023-06-28_14h59.03.765,arm3_ET_builderv2,2022.2.5,Win32,59.57700328,up,1,0.65,0.05,0.7328,189,0,189,0,1,,,,,
,,259932,001,2023-06-28_14h59.03.765,arm3_ET_builderv2,2022.2.5,Win32,59.57700328,down,-1,0.65,0.05,0.4815,190,0,190,0,1,,,,,
,,259932,001,2023-06-28_14h59.03.765,arm3_ET_builderv2,2022.2.5,Win32,59.57700328,right,-1,0.65,0.05,1.8812,191,0,191,0,1,,,,,
,,259932,001,2023-06-28_14h59.03.765,arm3_ET_builderv2,2022.2.5,Win32,59.57700328,right,-1,0.65,0.05,0.2007,192,0,192,0,1,,,,,
,,259932,001,2023-06-28_14h59.03.765,arm3_ET_builderv2,2022.2.5,Win32,59.57700328,right,-1,0.65,0.05,0.1671,193,0,193,0,1,,,,,
,,259932,001,2023-06-28_14h59.03.765,arm3_ET_builderv2,2022.2.5,Win32,59.57700328,down,-1,0.65,0.05,1.7495,194,0,194,0,1,,,,,
,,259932,001,2023-06-28_14h59.03.765,arm3_ET_builderv2,2022.2.5,Win32,59.57700328,right,-1,0.65,0.05,0.4111,195,0,195,0,1,,,,,
,,259932,001,2023-06-28_14h59.03.765,arm3_ET_builderv2,2022.2.5,Win32,59.57700328,right,-1,0.65,0.05,0.6002,196,0,196,0,1,,,,,
,,259932,001,2023-06-28_14h59.03.765,arm3_ET_builderv2,2022.2.5,Win32,59.57700328,right,-1,0.65,0.05,0.2837,197,0,197,0,1,,,,,
,,259932,001,2023-06-28_14h59.03.765,arm3_ET_builderv2,2022.2.5,Win32,59.57700328,right,-1,0.65,0.05,0.1675,198,0,198,0,1,,,,,
,,259932,001,2023-06-28_14h59.03.765,arm3_ET_builderv2,2022.2.5,Win32,59.57700328,right,-1,0.65,0.05,0.3841,199,0,199,0,1,,,,,
,,259932,001,2023-06-28_14h59.03.765,arm3_ET_builderv2,2022.2.5,Win32,59.57700328,right,-1,0.65,0.05,0.5501,200,0,200,0,1,,,,,
,,259932,001,2023-06-28_14h59.03.765,arm3_ET_builderv2,2022.2.5,Win32,59.57700328,right,-1,0.65,0.05,0.1182,201,0,201,0,1,,,,,
,,259932,001,2023-06-28_14h59.03.765,arm3_ET_builderv2,2022.2.5,Win32,59.57700328,down,-1,0.65,0.05,1.2836,202,0,202,0,1,,,,,
,,259932,001,2023-06-28_14h59.03.765,arm3_ET_builderv2,2022.2.5,Win32,59.57700328,right,-1,0.65,0.05,0.7274,203,0,203,0,1,,,,,
,,259932,001,2023-06-28_14h59.03.765,arm3_ET_builderv2,2022.2.5,Win32,59.57700328,right,-1,0.65,0.05,0.4489,204,0,204,0,1,,,,,
,,259932,001,2023-06-28_14h59.03.765,arm3_ET_builderv2,2022.2.5,Win32,59.57700328,right,-1,0.65,0.05,0.1505,205,0,205,0,1,,,,,
,,259932,001,2023-06-28_14h59.03.765,arm3_ET_builderv2,2022.2.5,Win32,59.57700328,right,-1,0.65,0.05,0.2327,206,0,206,0,1,,,,,
,,259932,001,2023-06-28_14h59.03.765,arm3_ET_builderv2,2022.2.5,Win32,59.57700328,right,-1,0.65,0.05,0.5155,207,0,207,0,1,,,,,
,,259932,001,2023-06-28_14h59.03.765,arm3_ET_builderv2,2022.2.5,Win32,59.57700328,down,-1,0.65,0.05,0.9508,208,0,208,0,1,,,,,
,,259932,001,2023-06-28_14h59.03.765,arm3_ET_builderv2,2022.2.5,Win32,59.57700328,right,-1,0.65,0.05,0.4492,209,0,209,0,1,,,,,
,,259932,001,2023-06-28_14h59.03.765,arm3_ET_builderv2,2022.2.5,Win32,59.57700328,right,-1,0.65,0.05,0.4503,210,0,210,0,1,,,,,
,,259932,001,2023-06-28_14h59.03.765,arm3_ET_builderv2,2022.2.5,Win32,59.57700328,right,-1,0.65,0.05,0.1846,211,0,211,0,1,,,,,
,,259932,001,2023-06-28_14h59.03.765,arm3_ET_builderv2,2022.2.5,Win32,59.57700328,right,-1,0.65,0.05,0.1334,212,0,212,0,1,,,,,
,,259932,001,2023-06-28_14h59.03.765,arm3_ET_builderv2,2022.2.5,Win32,59.57700328,right,-1,0.65,0.05,0.1511,213,0,213,0,1,,,,,
,,259932,001,2023-06-28_14h59.03.765,arm3_ET_builderv2,2022.2.5,Win32,59.57700328,down,-1,0.65,0.05,0.234,214,0,214,0,1,,,,,
,,259932,001,2023-06-28_14h59.03.765,arm3_ET_builderv2,2022.2.5,Win32,59.57700328,right,-1,0.65,0.05,0.3154,215,0,215,0,1,,,,,
,,259932,001,2023-06-28_14h59.03.765,arm3_ET_builderv2,2022.2.5,Win32,59.57700328,right,-1,0.65,0.05,0.3843,216,0,216,0,1,,,,,
,,259932,001,2023-06-28_14h59.03.765,arm3_ET_builderv2,2022.2.5,Win32,59.57700328,right,-1,0.65,0.05,0.1502,217,0,217,0,1,,,,,
,,259932,001,2023-06-28_14h59.03.765,arm3_ET_builderv2,2022.2.5,Win32,59.57700328,right,-1,0.65,0.05,0.1498,218,0,218,0,1,,,,,
,,259932,001,2023-06-28_14h59.03.765,arm3_ET_builderv2,2022.2.5,Win32,59.57700328,right,-1,0.65,0.05,0.1507,219,0,219,0,1,,,,,
,,259932,001,2023-06-28_14h59.03.765,arm3_ET_builderv2,2022.2.5,Win32,59.57700328,right,-1,0.65,0.05,0.167,220,0,220,0,1,,,,,
,,259932,001,2023-06-28_14h59.03.765,arm3_ET_builderv2,2022.2.5,Win32,59.57700328,right,-1,0.65,0.05,0.202,221,0,221,0,1,,,,,
,,259932,001,2023-06-28_14h59.03.765,arm3_ET_builderv2,2022.2.5,Win32,59.57700328,right,-1,0.65,0.05,0.5672,222,0,222,0,1,,,,,
,,259932,001,2023-06-28_14h59.03.765,arm3_ET_builderv2,2022.2.5,Win32,59.57700328,up,-1,0.65,0.05,1.1503,223,0,223,0,1,,,,,
,,259932,001,2023-06-28_14h59.03.765,arm3_ET_builderv2,2022.2.5,Win32,59.57700328,right,-1,0.65,0.05,0.4664,224,0,224,0,1,,,,,
,,259932,001,2023-06-28_14h59.03.765,arm3_ET_builderv2,2022.2.5,Win32,59.57700328,right,-1,0.65,0.05,0.3668,225,0,225,0,1,,,,,
,,259932,001,2023-06-28_14h59.03.765,arm3_ET_builderv2,2022.2.5,Win32,59.57700328,right,-1,0.65,0.05,0.1668,226,0,226,0,1,,,,,
,,259932,001,2023-06-28_14h59.03.765,arm3_ET_builderv2,2022.2.5,Win32,59.57700328,down,-1,0.65,0.05,0.3994,227,0,227,0,1,,,,,
,,259932,001,2023-06-28_14h59.03.765,arm3_ET_builderv2,2022.2.5,Win32,59.57700328,right,-1,0.65,0.05,0.283,228,0,228,0,1,,,,,
,,259932,001,2023-06-28_14h59.03.765,arm3_ET_builderv2,2022.2.5,Win32,59.57700328,right,-1,0.65,0.05,0.2009,229,0,229,0,1,,,,,
,,259932,001,2023-06-28_14h59.03.765,arm3_ET_builderv2,2022.2.5,Win32,59.57700328,right,-1,0.65,0.05,0.2995,230,0,230,0,1,,,,,
,,259932,001,2023-06-28_14h59.03.765,arm3_ET_builderv2,2022.2.5,Win32,59.57700328,right,-1,0.65,0.05,0.1667,231,0,231,0,1,,,,,
,,259932,001,2023-06-28_14h59.03.765,arm3_ET_builderv2,2022.2.5,Win32,59.57700328,right,-1,0.65,0.05,0.367,232,0,232,0,1,,,,,
,,259932,001,2023-06-28_14h59.03.765,arm3_ET_builderv2,2022.2.5,Win32,59.57700328,down,-1,0.65,0.05,0.7332,233,0,233,0,1,,,,,
,,259932,001,2023-06-28_14h59.03.765,arm3_ET_builderv2,2022.2.5,Win32,59.57700328,right,-1,0.65,0.05,0.3503,234,0,234,0,1,,,,,
,,259932,001,2023-06-28_14h59.03.765,arm3_ET_builderv2,2022.2.5,Win32,59.57700328,right,-1,0.65,0.05,0.4005,235,0,235,0,1,,,,,
,,259932,001,2023-06-28_14h59.03.765,arm3_ET_builderv2,2022.2.5,Win32,59.57700328,right,-1,0.65,0.05,0.1674,236,0,236,0,1,,,,,
,,259932,001,2023-06-28_14h59.03.765,arm3_ET_builderv2,2022.2.5,Win32,59.57700328,right,-1,0.65,0.05,0.1502,237,0,237,0,1,,,,,
,,259932,001,2023-06-28_14h59.03.765,arm3_ET_builderv2,2022.2.5,Win32,59.57700328,right,-1,0.65,0.05,0.188,238,0,238,0,1,,,,,
,,259932,001,2023-06-28_14h59.03.765,arm3_ET_builderv2,2022.2.5,Win32,59.57700328,right,-1,0.65,0.05,0.5317,239,0,239,0,1,,,,,
,,259932,001,2023-06-28_14h59.03.765,arm3_ET_builderv2,2022.2.5,Win32,59.57700328,down,-1,0.65,0.05,0.5657,240,0,240,0,1,,,,,
,,259932,001,2023-06-28_14h59.03.765,arm3_ET_builderv2,2022.2.5,Win32,59.57700328,right,-1,0.65,0.05,0.2836,241,0,241,0,1,,,,,
,,259932,001,2023-06-28_14h59.03.765,arm3_ET_builderv2,2022.2.5,Win32,59.57700328,right,-1,0.65,0.05,0.1682,242,0,242,0,1,,,,,
,,259932,001,2023-06-28_14h59.03.765,arm3_ET_builderv2,2022.2.5,Win32,59.57700328,right,-1,0.65,0.05,0.2331,243,0,243,0,1,,,,,
,,259932,001,2023-06-28_14h59.03.765,arm3_ET_builderv2,2022.2.5,Win32,59.57700328,right,-1,0.65,0.05,0.1831,244,0,244,0,1,,,,,
,,259932,001,2023-06-28_14h59.03.765,arm3_ET_builderv2,2022.2.5,Win32,59.57700328,right,-1,0.65,0.05,0.3004,245,0,245,0,1,,,,,
,,259932,001,2023-06-28_14h59.03.765,arm3_ET_builderv2,2022.2.5,Win32,59.57700328,right,-1,0.65,0.05,0.1837,246,0,246,0,1,,,,,
,,259932,001,2023-06-28_14h59.03.765,arm3_ET_builderv2,2022.2.5,Win32,59.57700328,right,-1,0.65,0.05,0.1838,247,0,247,0,1,,,,,
,,259932,001,2023-06-28_14h59.03.765,arm3_ET_builderv2,2022.2.5,Win32,59.57700328,right,-1,0.65,0.05,0.2496,248,0,248,0,1,,,,,
,,259932,001,2023-06-28_14h59.03.765,arm3_ET_builderv2,2022.2.5,Win32,59.57700328,right,-1,0.65,0.05,0.233,249,0,249,0,1,,,,,
,,259932,001,2023-06-28_14h59.03.765,arm3_ET_builderv2,2022.2.5,Win32,59.57700328,down,-1,0.65,0.05,0.4498,250,0,250,0,1,,,,,
,,259932,001,2023-06-28_14h59.03.765,arm3_ET_builderv2,2022.2.5,Win32,59.57700328,right,-1,0.65,0.05,0.45,251,0,251,0,1,,,,,
,,259932,001,2023-06-28_14h59.03.765,arm3_ET_builderv2,2022.2.5,Win32,59.57700328,right,-1,0.65,0.05,0.3186,252,0,252,0,1,,,,,
,,259932,001,2023-06-28_14h59.03.765,arm3_ET_builderv2,2022.2.5,Win32,59.57700328,right,-1,0.65,0.05,0.3006,253,0,253,0,1,,,,,
,,259932,001,2023-06-28_14h59.03.765,arm3_ET_builderv2,2022.2.5,Win32,59.57700328,right,-1,0.65,0.05,0.1836,254,0,254,0,1,,,,,
,,259932,001,2023-06-28_14h59.03.765,arm3_ET_builderv2,2022.2.5,Win32,59.57700328,right,-1,0.65,0.05,0.1674,255,0,255,0,1,,,,,
,,259932,001,2023-06-28_14h59.03.765,arm3_ET_builderv2,2022.2.5,Win32,59.57700328,right,-1,0.65,0.05,0.167,256,0,256,0,1,,,,,
,,259932,001,2023-06-28_14h59.03.765,arm3_ET_builderv2,2022.2.5,Win32,59.57700328,up,-1,0.65,0.05,0.9001,257,0,257,0,1,,,,,
,,259932,001,2023-06-28_14h59.03.765,arm3_ET_builderv2,2022.2.5,Win32,59.57700328,right,-1,0.65,0.05,0.3822,258,0,258,0,1,,,,,
,,259932,001,2023-06-28_14h59.03.765,arm3_ET_builderv2,2022.2.5,Win32,59.57700328,right,-1,0.65,0.05,0.1494,259,0,259,0,1,,,,,
,,259932,001,2023-06-28_14h59.03.765,arm3_ET_builderv2,2022.2.5,Win32,59.57700328,right,-1,0.65,0.05,0.2004,260,0,260,0,1,,,,,
,,259932,001,2023-06-28_14h59.03.765,arm3_ET_builderv2,2022.2.5,Win32,59.57700328,right,-1,0.65,0.05,0.1665,261,0,261,0,1,,,,,
,,259932,001,2023-06-28_14h59.03.765,arm3_ET_builderv2,2022.2.5,Win32,59.57700328,down,-1,0.65,0.05,0.2513,262,0,262,0,1,,,,,
,,259932,001,2023-06-28_14h59.03.765,arm3_ET_builderv2,2022.2.5,Win32,59.57700328,right,-1,0.65,0.05,0.3477,263,0,263,0,1,,,,,
,,259932,001,2023-06-28_14h59.03.765,arm3_ET_builderv2,2022.2.5,Win32,59.57700328,right,-1,0.65,0.05,0.2685,264,0,264,0,1,,,,,
,,259932,001,2023-06-28_14h59.03.765,arm3_ET_builderv2,2022.2.5,Win32,59.57700328,right,-1,0.65,0.05,0.1657,265,0,265,0,1,,,,,
,,259932,001,2023-06-28_14h59.03.765,arm3_ET_builderv2,2022.2.5,Win32,59.57700328,down,-1,0.65,0.05,0.2517,266,0,266,0,1,,,,,
,,259932,001,2023-06-28_14h59.03.765,arm3_ET_builderv2,2022.2.5,Win32,59.57700328,right,-1,0.65,0.05,0.2478,267,0,267,0,1,,,,,
,,259932,001,2023-06-28_14h59.03.765,arm3_ET_builderv2,2022.2.5,Win32,59.57700328,right,-1,0.65,0.05,0.2507,268,0,268,0,1,,,,,
,,259932,001,2023-06-28_14h59.03.765,arm3_ET_builderv2,2022.2.5,Win32,59.57700328,right,-1,0.65,0.05,0.3338,269,0,269,0,1,,,,,
,,259932,001,2023-06-28_14h59.03.765,arm3_ET_builderv2,2022.2.5,Win32,59.57700328,down,-1,0.65,0.05,0.2339,270,0,270,0,1,,,,,
,,259932,001,2023-06-28_14h59.03.765,arm3_ET_builderv2,2022.2.5,Win32,59.57700328,right,-1,0.65,0.05,0.2481,271,0,271,0,1,,,,,
,,259932,001,2023-06-28_14h59.03.765,arm3_ET_builderv2,2022.2.5,Win32,59.57700328,right,-1,0.65,0.05,0.2167,272,0,272,0,1,,,,,
,,259932,001,2023-06-28_14h59.03.765,arm3_ET_builderv2,2022.2.5,Win32,59.57700328,right,-1,0.65,0.05,0.2169,273,0,273,0,1,,,,,
,,259932,001,2023-06-28_14h59.03.765,arm3_ET_builderv2,2022.2.5,Win32,59.57700328,right,-1,0.65,0.05,0.2008,274,0,274,0,1,,,,,
,,259932,001,2023-06-28_14h59.03.765,arm3_ET_builderv2,2022.2.5,Win32,59.57700328,right,-1,0.65,0.05,0.5491,275,0,275,0,1,,,,,
,,259932,001,2023-06-28_14h59.03.765,arm3_ET_builderv2,2022.2.5,Win32,59.57700328,right,-1,0.65,0.05,0.6668,276,0,276,0,1,,,,,
,,259932,001,2023-06-28_14h59.03.765,arm3_ET_builderv2,2022.2.5,Win32,59.57700328,right,-1,0.65,0.05,0.3009,277,0,277,0,1,,,,,
,,259932,001,2023-06-28_14h59.03.765,arm3_ET_builderv2,2022.2.5,Win32,59.57700328,right,-1,0.65,0.05,0.1836,278,0,278,0,1,,,,,
,,259932,001,2023-06-28_14h59.03.765,arm3_ET_builderv2,2022.2.5,Win32,59.57700328,right,-1,0.65,0.05,0.4169,279,0,279,0,1,,,,,
,,259932,001,2023-06-28_14h59.03.765,arm3_ET_builderv2,2022.2.5,Win32,59.57700328,up,-1,0.65,0.05,1.2338,280,0,280,0,1,,,,,
,,259932,001,2023-06-28_14h59.03.765,arm3_ET_builderv2,2022.2.5,Win32,59.57700328,right,-1,0.65,0.05,0.414,281,0,281,0,1,,,,,
,,259932,001,2023-06-28_14h59.03.765,arm3_ET_builderv2,2022.2.5,Win32,59.57700328,right,-1,0.65,0.05,0.4167,282,0,282,0,1,,,,,
,,259932,001,2023-06-28_14h59.03.765,arm3_ET_builderv2,2022.2.5,Win32,59.57700328,right,-1,0.65,0.05,0.1674,283,0,283,0,1,,,,,
,,259932,001,2023-06-28_14h59.03.765,arm3_ET_builderv2,2022.2.5,Win32,59.57700328,right,-1,0.65,0.05,0.1679,284,0,284,0,1,,,,,
,,259932,001,2023-06-28_14h59.03.765,arm3_ET_builderv2,2022.2.5,Win32,59.57700328,right,-1,0.65,0.05,0.2829,285,0,285,0,1,,,,,
,,259932,001,2023-06-28_14h59.03.765,arm3_ET_builderv2,2022.2.5,Win32,59.57700328,right,-1,0.65,0.05,0.2672,286,0,286,0,1,,,,,
,,259932,001,2023-06-28_14h59.03.765,arm3_ET_builderv2,2022.2.5,Win32,59.57700328,up,-1,0.65,0.05,0.6004,287,0,287,0,1,,,,,
,,259932,001,2023-06-28_14h59.03.765,arm3_ET_builderv2,2022.2.5,Win32,59.57700328,right,-1,0.65,0.05,0.2659,288,0,288,0,1,,,,,
,,259932,001,2023-06-28_14h59.03.765,arm3_ET_builderv2,2022.2.5,Win32,59.57700328,right,-1,0.65,0.05,0.3332,289,0,289,0,1,,,,,
,,259932,001,2023-06-28_14h59.03.765,arm3_ET_builderv2,2022.2.5,Win32,59.57700328,right,-1,0.65,0.05,0.4172,290,0,290,0,1,,,,,
,,259932,001,2023-06-28_14h59.03.765,arm3_ET_builderv2,2022.2.5,Win32,59.57700328,right,-1,0.65,0.05,0.1841,291,0,291,0,1,,,,,
,,259932,001,2023-06-28_14h59.03.765,arm3_ET_builderv2,2022.2.5,Win32,59.57700328,right,-1,0.65,0.05,0.4,292,0,292,0,1,,,,,
,,259932,001,2023-06-28_14h59.03.765,arm3_ET_builderv2,2022.2.5,Win32,59.57700328,down,-1,0.65,0.05,0.3182,293,0,293,0,1,,,,,
,,259932,001,2023-06-28_14h59.03.765,arm3_ET_builderv2,2022.2.5,Win32,59.57700328,right,-1,0.65,0.05,0.282,294,0,294,0,1,,,,,
,,259932,001,2023-06-28_14h59.03.765,arm3_ET_builderv2,2022.2.5,Win32,59.57700328,right,-1,0.65,0.05,0.4164,295,0,295,0,1,,,,,
,,259932,001,2023-06-28_14h59.03.765,arm3_ET_builderv2,2022.2.5,Win32,59.57700328,right,-1,0.65,0.05,0.233,296,0,296,0,1,,,,,
,,259932,001,2023-06-28_14h59.03.765,arm3_ET_builderv2,2022.2.5,Win32,59.57700328,right,-1,0.65,0.05,0.1672,297,0,297,0,1,,,,,
,,259932,001,2023-06-28_14h59.03.765,arm3_ET_builderv2,2022.2.5,Win32,59.57700328,down,-1,0.65,0.05,0.3674,298,0,298,0,1,,,,,
,,259932,001,2023-06-28_14h59.03.765,arm3_ET_builderv2,2022.2.5,Win32,59.57700328,right,-1,0.65,0.05,0.3669,299,0,299,0,1,,,,,
,,259932,001,2023-06-28_14h59.03.765,arm3_ET_builderv2,2022.2.5,Win32,59.57700328,right,-1,0.65,0.05,0.1831,300,0,300,0,1,,,,,
,,259932,001,2023-06-28_14h59.03.765,arm3_ET_builderv2,2022.2.5,Win32,59.57700328,right,-1,0.65,0.05,0.3168,301,0,301,0,1,,,,,
,,259932,001,2023-06-28_14h59.03.765,arm3_ET_builderv2,2022.2.5,Win32,59.57700328,right,-1,0.65,0.05,0.2173,302,0,302,0,1,,,,,
,,259932,001,2023-06-28_14h59.03.765,arm3_ET_builderv2,2022.2.5,Win32,59.57700328,right,-1,0.65,0.05,0.2342,303,0,303,0,1,,,,,
,,259932,001,2023-06-28_14h59.03.765,arm3_ET_builderv2,2022.2.5,Win32,59.57700328,right,-1,0.65,0.05,0.2505,304,0,304,0,1,,,,,
,,259932,001,2023-06-28_14h59.03.765,arm3_ET_builderv2,2022.2.5,Win32,59.57700328,down,-1,0.65,0.05,0.8331,305,0,305,0,1,,,,,
,,259932,001,2023-06-28_14h59.03.765,arm3_ET_builderv2,2022.2.5,Win32,59.57700328,right,-1,0.65,0.05,0.3315,306,0,306,0,1,,,,,
,,259932,001,2023-06-28_14h59.03.765,arm3_ET_builderv2,2022.2.5,Win32,59.57700328,right,-1,0.65,0.05,0.1507,307,0,307,0,1,,,,,
,,259932,001,2023-06-28_14h59.03.765,arm3_ET_builderv2,2022.2.5,Win32,59.57700328,right,-1,0.65,0.05,0.3347,308,0,308,0,1,,,,,
,,259932,001,2023-06-28_14h59.03.765,arm3_ET_builderv2,2022.2.5,Win32,59.57700328,right,-1,0.65,0.05,0.2012,309,0,309,0,1,,,,,
,,259932,001,2023-06-28_14h59.03.765,arm3_ET_builderv2,2022.2.5,Win32,59.57700328,right,-1,0.65,0.05,0.3339,310,0,310,0,1,,,,,
,,259932,001,2023-06-28_14h59.03.765,arm3_ET_builderv2,2022.2.5,Win32,59.57700328,up,-1,0.65,0.05,0.2162,311,0,311,0,1,,,,,
,,259932,001,2023-06-28_14h59.03.765,arm3_ET_builderv2,2022.2.5,Win32,59.57700328,right,-1,0.65,0.05,0.3152,312,0,312,0,1,,,,,
,,259932,001,2023-06-28_14h59.03.765,arm3_ET_builderv2,2022.2.5,Win32,59.57700328,right,-1,0.65,0.05,0.1999,313,0,313,0,1,,,,,
,,259932,001,2023-06-28_14h59.03.765,arm3_ET_builderv2,2022.2.5,Win32,59.57700328,right,-1,0.65,0.05,0.2674,314,0,314,0,1,,,,,
,,259932,001,2023-06-28_14h59.03.765,arm3_ET_builderv2,2022.2.5,Win32,59.57700328,down,-1,0.65,0.05,0.3331,315,0,315,0,1,,,,,
,,259932,001,2023-06-28_14h59.03.765,arm3_ET_builderv2,2022.2.5,Win32,59.57700328,right,-1,0.65,0.05,0.3475,316,0,316,0,1,,,,,
,,259932,001,2023-06-28_14h59.03.765,arm3_ET_builderv2,2022.2.5,Win32,59.57700328,right,-1,0.65,0.05,0.2008,317,0,317,0,1,,,,,
,,259932,001,2023-06-28_14h59.03.765,arm3_ET_builderv2,2022.2.5,Win32,59.57700328,down,-1,0.65,0.05,0.4164,318,0,318,0,1,,,,,
,,259932,001,2023-06-28_14h59.03.765,arm3_ET_builderv2,2022.2.5,Win32,59.57700328,right,-1,0.65,0.05,0.2655,319,0,319,0,1,,,,,
,,259932,001,2023-06-28_14h59.03.765,arm3_ET_builderv2,2022.2.5,Win32,59.57700328,right,-1,0.65,0.05,0.3011,320,0,320,0,1,,,,,
,,259932,001,2023-06-28_14h59.03.765,arm3_ET_builderv2,2022.2.5,Win32,59.57700328,right,-1,0.65,0.05,1.0159,321,0,321,0,1,,,,,
,,259932,001,2023-06-28_14h59.03.765,arm3_ET_builderv2,2022.2.5,Win32,59.57700328,right,-1,0.65,0.05,0.3341,322,0,322,0,1,,,,,
,,259932,001,2023-06-28_14h59.03.765,arm3_ET_builderv2,2022.2.5,Win32,59.57700328,right,-1,0.65,0.05,0.3831,323,0,323,0,1,,,,,
,,259932,001,2023-06-28_14h59.03.765,arm3_ET_builderv2,2022.2.5,Win32,59.57700328,right,-1,0.65,0.05,0.1848,324,0,324,0,1,,,,,
,,259932,001,2023-06-28_14h59.03.765,arm3_ET_builderv2,2022.2.5,Win32,59.57700328,right,-1,0.65,0.05,0.2495,325,0,325,0,1,,,,,
,,259932,001,2023-06-28_14h59.03.765,arm3_ET_builderv2,2022.2.5,Win32,59.57700328,down,-1,0.65,0.05,0.2179,326,0,326,0,1,,,,,
,,259932,001,2023-06-28_14h59.03.765,arm3_ET_builderv2,2022.2.5,Win32,59.57700328,right,-1,0.65,0.05,0.2304,327,0,327,0,1,,,,,
,,259932,001,2023-06-28_14h59.03.765,arm3_ET_builderv2,2022.2.5,Win32,59.57700328,right,-1,0.65,0.05,0.1838,328,0,328,0,1,,,,,
,,259932,001,2023-06-28_14h59.03.765,arm3_ET_builderv2,2022.2.5,Win32,59.57700328,right,-1,0.65,0.05,0.2336,329,0,329,0,1,,,,,
,,259932,001,2023-06-28_14h59.03.765,arm3_ET_builderv2,2022.2.5,Win32,59.57700328,down,1,0.65,0.05,0.2833,330,0,330,0,1,,,,,
,,259932,001,2023-06-28_14h59.03.765,arm3_ET_builderv2,2022.2.5,Win32,59.57700328,right,1,0.65,0.05,0.2335,331,0,331,0,1,,,,,
,,259932,001,2023-06-28_14h59.03.765,arm3_ET_builderv2,2022.2.5,Win32,59.57700328,right,1,0.65,0.05,0.1997,332,0,332,0,1,,,,,
,,259932,001,2023-06-28_14h59.03.765,arm3_ET_builderv2,2022.2.5,Win32,59.57700328,right,1,0.65,0.05,0.1992,333,0,333,0,1,,,,,
,,259932,001,2023-06-28_14h59.03.765,arm3_ET_builderv2,2022.2.5,Win32,59.57700328,right,1,0.65,0.05,0.2503,334,0,334,0,1,,,,,
,,259932,001,2023-06-28_14h59.03.765,arm3_ET_builderv2,2022.2.5,Win32,59.57700328,right,1,0.65,0.05,0.1839,335,0,335,0,1,,,,,
,,259932,001,2023-06-28_14h59.03.765,arm3_ET_builderv2,2022.2.5,Win32,59.57700328,right,1,0.65,0.05,0.383,336,0,336,0,1,,,,,
,,259932,001,2023-06-28_14h59.03.765,arm3_ET_builderv2,2022.2.5,Win32,59.57700328,right,1,0.65,0.05,0.1854,337,0,337,0,1,,,,,
,,259932,001,2023-06-28_14h59.03.765,arm3_ET_builderv2,2022.2.5,Win32,59.57700328,up,1,0.65,0.05,0.4672,338,0,338,0,1,,,,,
,,259932,001,2023-06-28_14h59.03.765,arm3_ET_builderv2,2022.2.5,Win32,59.57700328,right,1,0.65,0.05,0.2829,339,0,339,0,1,,,,,
,,259932,001,2023-06-28_14h59.03.765,arm3_ET_builderv2,2022.2.5,Win32,59.57700328,right,1,0.65,0.05,0.167,340,0,340,0,1,,,,,
,,259932,001,2023-06-28_14h59.03.765,arm3_ET_builderv2,2022.2.5,Win32,59.57700328,right,1,0.65,0.05,0.2838,341,0,341,0,1,,,,,
,,259932,001,2023-06-28_14h59.03.765,arm3_ET_builderv2,2022.2.5,Win32,59.57700328,right,1,0.65,0.05,0.2005,342,0,342,0,1,,,,,
,,259932,001,2023-06-28_14h59.03.765,arm3_ET_builderv2,2022.2.5,Win32,59.57700328,right,1,0.65,0.05,0.1653,343,0,343,0,1,,,,,
,,259932,001,2023-06-28_14h59.03.765,arm3_ET_builderv2,2022.2.5,Win32,59.57700328,right,1,0.65,0.05,0.2338,344,0,344,0,1,,,,,
,,259932,001,2023-06-28_14h59.03.765,arm3_ET_builderv2,2022.2.5,Win32,59.57700328,down,1,0.65,0.05,0.5834,345,0,345,0,1,,,,,
,,259932,001,2023-06-28_14h59.03.765,arm3_ET_builderv2,2022.2.5,Win32,59.57700328,right,1,0.65,0.05,0.2499,346,0,346,0,1,,,,,
,,259932,001,2023-06-28_14h59.03.765,arm3_ET_builderv2,2022.2.5,Win32,59.57700328,right,1,0.65,0.05,0.201,347,0,347,0,1,,,,,
,,259932,001,2023-06-28_14h59.03.765,arm3_ET_builderv2,2022.2.5,Win32,59.57700328,right,1,0.65,0.05,0.2002,348,0,348,0,1,,,,,
,,259932,001,2023-06-28_14h59.03.765,arm3_ET_builderv2,2022.2.5,Win32,59.57700328,right,1,0.65,0.05,0.1664,349,0,349,0,1,,,,,
,,259932,001,2023-06-28_14h59.03.765,arm3_ET_builderv2,2022.2.5,Win32,59.57700328,right,1,0.65,0.05,0.1839,350,0,350,0,1,,,,,
,,259932,001,2023-06-28_14h59.03.765,arm3_ET_builderv2,2022.2.5,Win32,59.57700328,right,1,0.65,0.05,0.5833,351,0,351,0,1,,,,,
,,259932,001,2023-06-28_14h59.03.765,arm3_ET_builderv2,2022.2.5,Win32,59.57700328,down,1,0.65,0.05,0.5503,352,0,352,0,1,,,,,
,,259932,001,2023-06-28_14h59.03.765,arm3_ET_builderv2,2022.2.5,Win32,59.57700328,right,1,0.65,0.05,0.3651,353,0,353,0,1,,,,,
,,259932,001,2023-06-28_14h59.03.765,arm3_ET_builderv2,2022.2.5,Win32,59.57700328,right,1,0.65,0.05,0.1829,354,0,354,0,1,,,,,
,,259932,001,2023-06-28_14h59.03.765,arm3_ET_builderv2,2022.2.5,Win32,59.57700328,right,1,0.65,0.05,0.2517,355,0,355,0,1,,,,,
,,259932,001,2023-06-28_14h59.03.765,arm3_ET_builderv2,2022.2.5,Win32,59.57700328,right,1,0.65,0.05,0.217,356,0,356,0,1,,,,,
,,259932,001,2023-06-28_14h59.03.765,arm3_ET_builderv2,2022.2.5,Win32,59.57700328,right,1,0.65,0.05,0.5841,357,0,357,0,1,,,,,
,,259932,001,2023-06-28_14h59.03.765,arm3_ET_builderv2,2022.2.5,Win32,59.57700328,up,1,0.65,0.05,0.3664,358,0,358,0,1,,,,,
,,259932,001,2023-06-28_14h59.03.765,arm3_ET_builderv2,2022.2.5,Win32,59.57700328,right,1,0.65,0.05,0.5654,359,0,359,0,1,,,,,
,,259932,001,2023-06-28_14h59.03.765,arm3_ET_builderv2,2022.2.5,Win32,59.57700328,right,1,0.65,0.05,0.1504,360,0,360,0,1,,,,,
,,259932,001,2023-06-28_14h59.03.765,arm3_ET_builderv2,2022.2.5,Win32,59.57700328,right,1,0.65,0.05,0.3,361,0,361,0,1,,,,,
,,259932,001,2023-06-28_14h59.03.765,arm3_ET_builderv2,2022.2.5,Win32,59.57700328,right,1,0.65,0.05,0.1838,362,0,362,0,1,,,,,
,,259932,001,2023-06-28_14h59.03.765,arm3_ET_builderv2,2022.2.5,Win32,59.57700328,right,1,0.65,0.05,0.1663,363,0,363,0,1,,,,,
,,259932,001,2023-06-28_14h59.03.765,arm3_ET_builderv2,2022.2.5,Win32,59.57700328,right,1,0.65,0.05,0.1836,364,0,364,0,1,,,,,
,,259932,001,2023-06-28_14h59.03.765,arm3_ET_builderv2,2022.2.5,Win32,59.57700328,right,1,0.65,0.05,0.85,365,0,365,0,1,,,,,
,,259932,001,2023-06-28_14h59.03.765,arm3_ET_builderv2,2022.2.5,Win32,59.57700328,right,1,0.65,0.05,0.3171,366,0,366,0,1,,,,,
,,259932,001,2023-06-28_14h59.03.765,arm3_ET_builderv2,2022.2.5,Win32,59.57700328,up,1,0.65,0.05,0.5659,367,0,367,0,1,,,,,
,,259932,001,2023-06-28_14h59.03.765,arm3_ET_builderv2,2022.2.5,Win32,59.57700328,right,1,0.65,0.05,0.3332,368,0,368,0,1,,,,,
,,259932,001,2023-06-28_14h59.03.765,arm3_ET_builderv2,2022.2.5,Win32,59.57700328,right,1,0.65,0.05,0.1497,369,0,369,0,1,,,,,
,,259932,001,2023-06-28_14h59.03.765,arm3_ET_builderv2,2022.2.5,Win32,59.57700328,right,1,0.65,0.05,0.1677,370,0,370,0,1,,,,,
,,259932,001,2023-06-28_14h59.03.765,arm3_ET_builderv2,2022.2.5,Win32,59.57700328,right,1,0.65,0.05,0.1667,371,0,371,0,1,,,,,
,,259932,001,2023-06-28_14h59.03.765,arm3_ET_builderv2,2022.2.5,Win32,59.57700328,right,1,0.65,0.05,0.1834,372,0,372,0,1,,,,,
,,259932,001,2023-06-28_14h59.03.765,arm3_ET_builderv2,2022.2.5,Win32,59.57700328,right,1,0.65,0.05,0.1335,373,0,373,0,1,,,,,
,,259932,001,2023-06-28_14h59.03.765,arm3_ET_builderv2,2022.2.5,Win32,59.57700328,right,1,0.65,0.05,0.1505,374,0,374,0,1,,,,,
,,259932,001,2023-06-28_14h59.03.765,arm3_ET_builderv2,2022.2.5,Win32,59.57700328,right,1,0.65,0.05,0.4671,375,0,375,0,1,,,,,
,,259932,001,2023-06-28_14h59.03.765,arm3_ET_builderv2,2022.2.5,Win32,59.57700328,right,1,0.65,0.05,1.0493,376,0,376,0,1,,,,,
,,259932,001,2023-06-28_14h59.03.765,arm3_ET_builderv2,2022.2.5,Win32,59.57700328,down,1,0.65,0.05,1.8998,377,0,377,0,1,,,,,
,,259932,001,2023-06-28_14h59.03.765,arm3_ET_builderv2,2022.2.5,Win32,59.57700328,right,1,0.65,0.05,0.3651,378,0,378,0,1,,,,,
,,259932,001,2023-06-28_14h59.03.765,arm3_ET_builderv2,2022.2.5,Win32,59.57700328,right,1,0.65,0.05,0.1498,379,0,379,0,1,,,,,
,,259932,001,2023-06-28_14h59.03.765,arm3_ET_builderv2,2022.2.5,Win32,59.57700328,right,1,0.65,0.05,0.2156,380,0,380,0,1,,,,,
,,259932,001,2023-06-28_14h59.03.765,arm3_ET_builderv2,2022.2.5,Win32,59.57700328,right,1,0.65,0.05,0.1669,381,0,381,0,1,,,,,
,,259932,001,2023-06-28_14h59.03.765,arm3_ET_builderv2,2022.2.5,Win32,59.57700328,right,1,0.65,0.05,0.1671,382,0,382,0,1,,,,,
,,259932,001,2023-06-28_14h59.03.765,arm3_ET_builderv2,2022.2.5,Win32,59.57700328,right,1,0.65,0.05,0.1666,383,0,383,0,1,,,,,
,,259932,001,2023-06-28_14h59.03.765,arm3_ET_builderv2,2022.2.5,Win32,59.57700328,right,1,0.65,0.05,0.2006,384,0,384,0,1,,,,,
,,259932,001,2023-06-28_14h59.03.765,arm3_ET_builderv2,2022.2.5,Win32,59.57700328,up,1,0.65,0.05,0.4345,385,0,385,0,1,,,,,
,,259932,001,2023-06-28_14h59.03.765,arm3_ET_builderv2,2022.2.5,Win32,59.57700328,right,1,0.65,0.05,0.2827,386,0,386,0,1,,,,,
,,259932,001,2023-06-28_14h59.03.765,arm3_ET_builderv2,2022.2.5,Win32,59.57700328,right,1,0.65,0.05,0.1671,387,0,387,0,1,,,,,
,,259932,001,2023-06-28_14h59.03.765,arm3_ET_builderv2,2022.2.5,Win32,59.57700328,right,1,0.65,0.05,0.1668,388,0,388,0,1,,,,,
,,259932,001,2023-06-28_14h59.03.765,arm3_ET_builderv2,2022.2.5,Win32,59.57700328,right,1,0.65,0.05,0.1336,389,0,389,0,1,,,,,
,,259932,001,2023-06-28_14h59.03.765,arm3_ET_builderv2,2022.2.5,Win32,59.57700328,up,1,0.65,0.05,0.2996,390,0,390,0,1,,,,,
,,259932,001,2023-06-28_14h59.03.765,arm3_ET_builderv2,2022.2.5,Win32,59.57700328,right,1,0.65,0.05,0.3155,391,0,391,0,1,,,,,
,,259932,001,2023-06-28_14h59.03.765,arm3_ET_builderv2,2022.2.5,Win32,59.57700328,right,1,0.65,0.05,0.1501,392,0,392,0,1,,,,,
,,259932,001,2023-06-28_14h59.03.765,arm3_ET_builderv2,2022.2.5,Win32,59.57700328,right,1,0.65,0.05,0.1341,393,0,393,0,1,,,,,
,,259932,001,2023-06-28_14h59.03.765,arm3_ET_builderv2,2022.2.5,Win32,59.57700328,right,1,0.65,0.05,0.1669,394,0,394,0,1,,,,,
,,259932,001,2023-06-28_14h59.03.765,arm3_ET_builderv2,2022.2.5,Win32,59.57700328,right,1,0.65,0.05,0.1664,395,0,395,0,1,,,,,
,,259932,001,2023-06-28_14h59.03.765,arm3_ET_builderv2,2022.2.5,Win32,59.57700328,right,1,0.65,0.05,0.1852,396,0,396,0,1,,,,,
,,259932,001,2023-06-28_14h59.03.765,arm3_ET_builderv2,2022.2.5,Win32,59.57700328,down,1,0.65,0.05,0.617,397,0,397,0,1,,,,,
,,259932,001,2023-06-28_14h59.03.765,arm3_ET_builderv2,2022.2.5,Win32,59.57700328,right,1,0.65,0.05,0.2455,398,0,398,0,1,,,,,
,,259932,001,2023-06-28_14h59.03.765,arm3_ET_builderv2,2022.2.5,Win32,59.57700328,right,1,0.65,0.05,0.1665,399,0,399,0,1,,,,,
,,259932,001,2023-06-28_14h59.03.765,arm3_ET_builderv2,2022.2.5,Win32,59.57700328,,,,,,,,,,,0,0,0,0,1
,,259932,001,2023-06-28_14h59.03.765,arm3_ET_builderv2,2022.2.5,Win32,59.57700328,right,1,0.95,0.45,0.1663,0,0,0,0,1,,,,,
,,259932,001,2023-06-28_14h59.03.765,arm3_ET_builderv2,2022.2.5,Win32,59.57700328,right,1,0.95,0.45,0.2337,1,0,1,0,1,,,,,
,,259932,001,2023-06-28_14h59.03.765,arm3_ET_builderv2,2022.2.5,Win32,59.57700328,right,1,0.95,0.45,0.1839,2,0,2,0,1,,,,,
,,259932,001,2023-06-28_14h59.03.765,arm3_ET_builderv2,2022.2.5,Win32,59.57700328,right,1,0.95,0.45,0.1671,3,0,3,0,1,,,,,
,,259932,001,2023-06-28_14h59.03.765,arm3_ET_builderv2,2022.2.5,Win32,59.57700328,right,1,0.95,0.45,0.1507,4,0,4,0,1,,,,,
,,259932,001,2023-06-28_14h59.03.765,arm3_ET_builderv2,2022.2.5,Win32,59.57700328,up,1,0.95,0.45,0.2664,5,0,5,0,1,,,,,
,,259932,001,2023-06-28_14h59.03.765,arm3_ET_builderv2,2022.2.5,Win32,59.57700328,right,1,0.95,0.45,0.3141,6,0,6,0,1,,,,,
,,259932,001,2023-06-28_14h59.03.765,arm3_ET_builderv2,2022.2.5,Win32,59.57700328,right,1,0.95,0.45,0.1668,7,0,7,0,1,,,,,
,,259932,001,2023-06-28_14h59.03.765,arm3_ET_builderv2,2022.2.5,Win32,59.57700328,right,1,0.95,0.45,0.1506,8,0,8,0,1,,,,,
,,259932,001,2023-06-28_14h59.03.765,arm3_ET_builderv2,2022.2.5,Win32,59.57700328,right,1,0.95,0.45,0.118,9,0,9,0,1,,,,,
,,259932,001,2023-06-28_14h59.03.765,arm3_ET_builderv2,2022.2.5,Win32,59.57700328,right,1,0.95,0.45,0.1669,10,0,10,0,1,,,,,
,,259932,001,2023-06-28_14h59.03.765,arm3_ET_builderv2,2022.2.5,Win32,59.57700328,right,1,0.95,0.45,0.1668,11,0,11,0,1,,,,,
,,259932,001,2023-06-28_14h59.03.765,arm3_ET_builderv2,2022.2.5,Win32,59.57700328,up,1,0.95,0.45,0.8332,12,0,12,0,1,,,,,
,,259932,001,2023-06-28_14h59.03.765,arm3_ET_builderv2,2022.2.5,Win32,59.57700328,right,1,0.95,0.45,0.2659,13,0,13,0,1,,,,,
,,259932,001,2023-06-28_14h59.03.765,arm3_ET_builderv2,2022.2.5,Win32,59.57700328,right,1,0.95,0.45,0.1682,14,0,14,0,1,,,,,
,,259932,001,2023-06-28_14h59.03.765,arm3_ET_builderv2,2022.2.5,Win32,59.57700328,right,1,0.95,0.45,0.1342,15,0,15,0,1,,,,,
,,259932,001,2023-06-28_14h59.03.765,arm3_ET_builderv2,2022.2.5,Win32,59.57700328,right,1,0.95,0.45,0.1513,16,0,16,0,1,,,,,
,,259932,001,2023-06-28_14h59.03.765,arm3_ET_builderv2,2022.2.5,Win32,59.57700328,right,1,0.95,0.45,0.1498,17,0,17,0,1,,,,,
,,259932,001,2023-06-28_14h59.03.765,arm3_ET_builderv2,2022.2.5,Win32,59.57700328,right,1,0.95,0.45,0.1507,18,0,18,0,1,,,,,
,,259932,001,2023-06-28_14h59.03.765,arm3_ET_builderv2,2022.2.5,Win32,59.57700328,right,1,0.95,0.45,0.1175,19,0,19,0,1,,,,,
,,259932,001,2023-06-28_14h59.03.765,arm3_ET_builderv2,2022.2.5,Win32,59.57700328,up,-1,0.95,0.45,0.3008,20,0,20,0,1,,,,,
,,259932,001,2023-06-28_14h59.03.765,arm3_ET_builderv2,2022.2.5,Win32,59.57700328,right,-1,0.95,0.45,0.2657,21,0,21,0,1,,,,,
,,259932,001,2023-06-28_14h59.03.765,arm3_ET_builderv2,2022.2.5,Win32,59.57700328,right,-1,0.95,0.45,0.1666,22,0,22,0,1,,,,,
,,259932,001,2023-06-28_14h59.03.765,arm3_ET_builderv2,2022.2.5,Win32,59.57700328,right,-1,0.95,0.45,0.1499,23,0,23,0,1,,,,,
,,259932,001,2023-06-28_14h59.03.765,arm3_ET_builderv2,2022.2.5,Win32,59.57700328,right,-1,0.95,0.45,0.1509,24,0,24,0,1,,,,,
,,259932,001,2023-06-28_14h59.03.765,arm3_ET_builderv2,2022.2.5,Win32,59.57700328,right,-1,0.95,0.45,0.1506,25,0,25,0,1,,,,,
,,259932,001,2023-06-28_14h59.03.765,arm3_ET_builderv2,2022.2.5,Win32,59.57700328,right,-1,0.95,0.45,0.1339,26,0,26,0,1,,,,,
,,259932,001,2023-06-28_14h59.03.765,arm3_ET_builderv2,2022.2.5,Win32,59.57700328,right,-1,0.95,0.45,0.1509,27,0,27,0,1,,,,,
,,259932,001,2023-06-28_14h59.03.765,arm3_ET_builderv2,2022.2.5,Win32,59.57700328,right,-1,0.95,0.45,0.2505,28,0,28,0,1,,,,,
,,259932,001,2023-06-28_14h59.03.765,arm3_ET_builderv2,2022.2.5,Win32,59.57700328,down,-1,0.95,0.45,0.3171,29,0,29,0,1,,,,,
,,259932,001,2023-06-28_14h59.03.765,arm3_ET_builderv2,2022.2.5,Win32,59.57700328,right,-1,0.95,0.45,0.2501,30,0,30,0,1,,,,,
,,259932,001,2023-06-28_14h59.03.765,arm3_ET_builderv2,2022.2.5,Win32,59.57700328,right,-1,0.95,0.45,0.1843,31,0,31,0,1,,,,,
,,259932,001,2023-06-28_14h59.03.765,arm3_ET_builderv2,2022.2.5,Win32,59.57700328,right,-1,0.95,0.45,0.1508,32,0,32,0,1,,,,,
,,259932,001,2023-06-28_14h59.03.765,arm3_ET_builderv2,2022.2.5,Win32,59.57700328,right,-1,0.95,0.45,0.1333,33,0,33,0,1,,,,,
,,259932,001,2023-06-28_14h59.03.765,arm3_ET_builderv2,2022.2.5,Win32,59.57700328,right,-1,0.95,0.45,0.1506,34,0,34,0,1,,,,,
,,259932,001,2023-06-28_14h59.03.765,arm3_ET_builderv2,2022.2.5,Win32,59.57700328,down,-1,0.95,0.45,0.7159,35,0,35,0,1,,,,,
,,259932,001,2023-06-28_14h59.03.765,arm3_ET_builderv2,2022.2.5,Win32,59.57700328,right,-1,0.95,0.45,0.1838,36,0,36,0,1,,,,,
,,259932,001,2023-06-28_14h59.03.765,arm3_ET_builderv2,2022.2.5,Win32,59.57700328,right,-1,0.95,0.45,0.1508,37,0,37,0,1,,,,,
,,259932,001,2023-06-28_14h59.03.765,arm3_ET_builderv2,2022.2.5,Win32,59.57700328,right,-1,0.95,0.45,0.1676,38,0,38,0,1,,,,,
,,259932,001,2023-06-28_14h59.03.765,arm3_ET_builderv2,2022.2.5,Win32,59.57700328,right,-1,0.95,0.45,0.1329,39,0,39,0,1,,,,,
,,259932,001,2023-06-28_14h59.03.765,arm3_ET_builderv2,2022.2.5,Win32,59.57700328,down,-1,0.95,0.45,0.2525,40,0,40,0,1,,,,,
,,259932,001,2023-06-28_14h59.03.765,arm3_ET_builderv2,2022.2.5,Win32,59.57700328,right,-1,0.95,0.45,0.216,41,0,41,0,1,,,,,
,,259932,001,2023-06-28_14h59.03.765,arm3_ET_builderv2,2022.2.5,Win32,59.57700328,right,-1,0.95,0.45,0.2171,42,0,42,0,1,,,,,
,,259932,001,2023-06-28_14h59.03.765,arm3_ET_builderv2,2022.2.5,Win32,59.57700328,right,-1,0.95,0.45,0.167,43,0,43,0,1,,,,,
,,259932,001,2023-06-28_14h59.03.765,arm3_ET_builderv2,2022.2.5,Win32,59.57700328,right,-1,0.95,0.45,0.2507,44,0,44,0,1,,,,,
,,259932,001,2023-06-28_14h59.03.765,arm3_ET_builderv2,2022.2.5,Win32,59.57700328,right,-1,0.95,0.45,0.1834,45,0,45,0,1,,,,,
,,259932,001,2023-06-28_14h59.03.765,arm3_ET_builderv2,2022.2.5,Win32,59.57700328,right,-1,0.95,0.45,0.1835,46,0,46,0,1,,,,,
,,259932,001,2023-06-28_14h59.03.765,arm3_ET_builderv2,2022.2.5,Win32,59.57700328,down,-1,0.95,0.45,0.435,47,0,47,0,1,,,,,
,,259932,001,2023-06-28_14h59.03.765,arm3_ET_builderv2,2022.2.5,Win32,59.57700328,right,-1,0.95,0.45,0.2158,48,0,48,0,1,,,,,
,,259932,001,2023-06-28_14h59.03.765,arm3_ET_builderv2,2022.2.5,Win32,59.57700328,right,-1,0.95,0.45,0.1838,49,0,49,0,1,,,,,
,,259932,001,2023-06-28_14h59.03.765,arm3_ET_builderv2,2022.2.5,Win32,59.57700328,right,-1,0.95,0.45,0.1509,50,0,50,0,1,,,,,
,,259932,001,2023-06-28_14h59.03.765,arm3_ET_builderv2,2022.2.5,Win32,59.57700328,right,-1,0.95,0.45,0.1339,51,0,51,0,1,,,,,
,,259932,001,2023-06-28_14h59.03.765,arm3_ET_builderv2,2022.2.5,Win32,59.57700328,right,-1,0.95,0.45,0.1518,52,0,52,0,1,,,,,
,,259932,001,2023-06-28_14h59.03.765,arm3_ET_builderv2,2022.2.5,Win32,59.57700328,down,-1,0.95,0.45,0.516,53,0,53,0,1,,,,,
,,259932,001,2023-06-28_14h59.03.765,arm3_ET_builderv2,2022.2.5,Win32,59.57700328,right,-1,0.95,0.45,0.267,54,0,54,0,1,,,,,
,,259932,001,2023-06-28_14h59.03.765,arm3_ET_builderv2,2022.2.5,Win32,59.57700328,right,-1,0.95,0.45,0.1499,55,0,55,0,1,,,,,
,,259932,001,2023-06-28_14h59.03.765,arm3_ET_builderv2,2022.2.5,Win32,59.57700328,right,-1,0.95,0.45,0.1673,56,0,56,0,1,,,,,
,,259932,001,2023-06-28_14h59.03.765,arm3_ET_builderv2,2022.2.5,Win32,59.57700328,right,-1,0.95,0.45,0.15,57,0,57,0,1,,,,,
,,259932,001,2023-06-28_14h59.03.765,arm3_ET_builderv2,2022.2.5,Win32,59.57700328,down,1,0.95,0.45,0.3166,58,0,58,0,1,,,,,
,,259932,001,2023-06-28_14h59.03.765,arm3_ET_builderv2,2022.2.5,Win32,59.57700328,right,1,0.95,0.45,0.2141,59,0,59,0,1,,,,,
,,259932,001,2023-06-28_14h59.03.765,arm3_ET_builderv2,2022.2.5,Win32,59.57700328,right,1,0.95,0.45,0.1842,60,0,60,0,1,,,,,
,,259932,001,2023-06-28_14h59.03.765,arm3_ET_builderv2,2022.2.5,Win32,59.57700328,right,1,0.95,0.45,0.1677,61,0,61,0,1,,,,,
,,259932,001,2023-06-28_14h59.03.765,arm3_ET_builderv2,2022.2.5,Win32,59.57700328,right,1,0.95,0.45,0.2001,62,0,62,0,1,,,,,
,,259932,001,2023-06-28_14h59.03.765,arm3_ET_builderv2,2022.2.5,Win32,59.57700328,right,1,0.95,0.45,0.1651,63,0,63,0,1,,,,,
,,259932,001,2023-06-28_14h59.03.765,arm3_ET_builderv2,2022.2.5,Win32,59.57700328,up,1,0.95,0.45,0.5333,64,0,64,0,1,,,,,
,,259932,001,2023-06-28_14h59.03.765,arm3_ET_builderv2,2022.2.5,Win32,59.57700328,right,1,0.95,0.45,0.2345,65,0,65,0,1,,,,,
,,259932,001,2023-06-28_14h59.03.765,arm3_ET_builderv2,2022.2.5,Win32,59.57700328,right,1,0.95,0.45,0.1838,66,0,66,0,1,,,,,
,,259932,001,2023-06-28_14h59.03.765,arm3_ET_builderv2,2022.2.5,Win32,59.57700328,right,1,0.95,0.45,0.1688,67,0,67,0,1,,,,,
,,259932,001,2023-06-28_14h59.03.765,arm3_ET_builderv2,2022.2.5,Win32,59.57700328,right,1,0.95,0.45,0.1163,68,0,68,0,1,,,,,
,,259932,001,2023-06-28_14h59.03.765,arm3_ET_builderv2,2022.2.5,Win32,59.57700328,right,1,0.95,0.45,0.1683,69,0,69,0,1,,,,,
,,259932,001,2023-06-28_14h59.03.765,arm3_ET_builderv2,2022.2.5,Win32,59.57700328,right,1,0.95,0.45,0.1334,70,0,70,0,1,,,,,
,,259932,001,2023-06-28_14h59.03.765,arm3_ET_builderv2,2022.2.5,Win32,59.57700328,up,-1,0.95,0.45,0.666,71,0,71,0,1,,,,,
,,259932,001,2023-06-28_14h59.03.765,arm3_ET_builderv2,2022.2.5,Win32,59.57700328,right,-1,0.95,0.45,0.2674,72,0,72,0,1,,,,,
,,259932,001,2023-06-28_14h59.03.765,arm3_ET_builderv2,2022.2.5,Win32,59.57700328,right,-1,0.95,0.45,0.1851,73,0,73,0,1,,,,,
,,259932,001,2023-06-28_14h59.03.765,arm3_ET_builderv2,2022.2.5,Win32,59.57700328,right,-1,0.95,0.45,0.1661,74,0,74,0,1,,,,,
,,259932,001,2023-06-28_14h59.03.765,arm3_ET_builderv2,2022.2.5,Win32,59.57700328,right,-1,0.95,0.45,0.133,75,0,75,0,1,,,,,
,,259932,001,2023-06-28_14h59.03.765,arm3_ET_builderv2,2022.2.5,Win32,59.57700328,down,-1,0.95,0.45,0.2171,76,0,76,0,1,,,,,
,,259932,001,2023-06-28_14h59.03.765,arm3_ET_builderv2,2022.2.5,Win32,59.57700328,right,-1,0.95,0.45,0.2491,77,0,77,0,1,,,,,
,,259932,001,2023-06-28_14h59.03.765,arm3_ET_builderv2,2022.2.5,Win32,59.57700328,right,-1,0.95,0.45,0.2168,78,0,78,0,1,,,,,
,,259932,001,2023-06-28_14h59.03.765,arm3_ET_builderv2,2022.2.5,Win32,59.57700328,right,-1,0.95,0.45,0.1671,79,0,79,0,1,,,,,
,,259932,001,2023-06-28_14h59.03.765,arm3_ET_builderv2,2022.2.5,Win32,59.57700328,right,-1,0.95,0.45,0.1668,80,0,80,0,1,,,,,
,,259932,001,2023-06-28_14h59.03.765,arm3_ET_builderv2,2022.2.5,Win32,59.57700328,right,-1,0.95,0.45,0.2338,81,0,81,0,1,,,,,
,,259932,001,2023-06-28_14h59.03.765,arm3_ET_builderv2,2022.2.5,Win32,59.57700328,right,-1,0.95,0.45,0.1834,82,0,82,0,1,,,,,
,,259932,001,2023-06-28_14h59.03.765,arm3_ET_builderv2,2022.2.5,Win32,59.57700328,down,-1,0.95,0.45,0.201,83,0,83,0,1,,,,,
,,259932,001,2023-06-28_14h59.03.765,arm3_ET_builderv2,2022.2.5,Win32,59.57700328,right,-1,0.95,0.45,0.181,84,0,84,0,1,,,,,
,,259932,001,2023-06-28_14h59.03.765,arm3_ET_builderv2,2022.2.5,Win32,59.57700328,right,-1,0.95,0.45,0.1835,85,0,85,0,1,,,,,
,,259932,001,2023-06-28_14h59.03.765,arm3_ET_builderv2,2022.2.5,Win32,59.57700328,right,-1,0.95,0.45,0.1677,86,0,86,0,1,,,,,
,,259932,001,2023-06-28_14h59.03.765,arm3_ET_builderv2,2022.2.5,Win32,59.57700328,right,-1,0.95,0.45,0.1501,87,0,87,0,1,,,,,
,,259932,001,2023-06-28_14h59.03.765,arm3_ET_builderv2,2022.2.5,Win32,59.57700328,down,1,0.95,0.45,0.234,88,0,88,0,1,,,,,
,,259932,001,2023-06-28_14h59.03.765,arm3_ET_builderv2,2022.2.5,Win32,59.57700328,right,1,0.95,0.45,0.2005,89,0,89,0,1,,,,,
,,259932,001,2023-06-28_14h59.03.765,arm3_ET_builderv2,2022.2.5,Win32,59.57700328,right,1,0.95,0.45,0.1837,90,0,90,0,1,,,,,
,,259932,001,2023-06-28_14h59.03.765,arm3_ET_builderv2,2022.2.5,Win32,59.57700328,right,1,0.95,0.45,0.1516,91,0,91,0,1,,,,,
,,259932,001,2023-06-28_14h59.03.765,arm3_ET_builderv2,2022.2.5,Win32,59.57700328,right,1,0.95,0.45,0.1665,92,0,92,0,1,,,,,
,,259932,001,2023-06-28_14h59.03.765,arm3_ET_builderv2,2022.2.5,Win32,59.57700328,up,-1,0.95,0.45,0.2677,93,0,93,0,1,,,,,
,,259932,001,2023-06-28_14h59.03.765,arm3_ET_builderv2,2022.2.5,Win32,59.57700328,right,-1,0.95,0.45,0.2333,94,0,94,0,1,,,,,
,,259932,001,2023-06-28_14h59.03.765,arm3_ET_builderv2,2022.2.5,Win32,59.57700328,right,-1,0.95,0.45,0.1835,95,0,95,0,1,,,,,
,,259932,001,2023-06-28_14h59.03.765,arm3_ET_builderv2,2022.2.5,Win32,59.57700328,right,-1,0.95,0.45,0.1503,96,0,96,0,1,,,,,
,,259932,001,2023-06-28_14h59.03.765,arm3_ET_builderv2,2022.2.5,Win32,59.57700328,down,1,0.95,0.45,0.2009,97,0,97,0,1,,,,,
,,259932,001,2023-06-28_14h59.03.765,arm3_ET_builderv2,2022.2.5,Win32,59.57700328,right,1,0.95,0.45,0.2497,98,0,98,0,1,,,,,
,,259932,001,2023-06-28_14h59.03.765,arm3_ET_builderv2,2022.2.5,Win32,59.57700328,down,-1,0.95,0.45,0.2345,99,0,99,0,1,,,,,
,,259932,001,2023-06-28_14h59.03.765,arm3_ET_builderv2,2022.2.5,Win32,59.57700328,right,-1,0.95,0.45,2.0131,100,0,100,0,1,,,,,
,,259932,001,2023-06-28_14h59.03.765,arm3_ET_builderv2,2022.2.5,Win32,59.57700328,right,-1,0.95,0.45,0.3183,101,0,101,0,1,,,,,
,,259932,001,2023-06-28_14h59.03.765,arm3_ET_builderv2,2022.2.5,Win32,59.57700328,right,-1,0.95,0.45,1.3159,102,0,102,0,1,,,,,
,,259932,001,2023-06-28_14h59.03.765,arm3_ET_builderv2,2022.2.5,Win32,59.57700328,right,-1,0.95,0.45,0.5,103,0,103,0,1,,,,,
,,259932,001,2023-06-28_14h59.03.765,arm3_ET_builderv2,2022.2.5,Win32,59.57700328,right,-1,0.95,0.45,0.2503,104,0,104,0,1,,,,,
,,259932,001,2023-06-28_14h59.03.765,arm3_ET_builderv2,2022.2.5,Win32,59.57700328,down,-1,0.95,0.45,0.7334,105,0,105,0,1,,,,,
,,259932,001,2023-06-28_14h59.03.765,arm3_ET_builderv2,2022.2.5,Win32,59.57700328,right,-1,0.95,0.45,0.3653,106,0,106,0,1,,,,,
,,259932,001,2023-06-28_14h59.03.765,arm3_ET_builderv2,2022.2.5,Win32,59.57700328,right,-1,0.95,0.45,0.2834,107,0,107,0,1,,,,,
,,259932,001,2023-06-28_14h59.03.765,arm3_ET_builderv2,2022.2.5,Win32,59.57700328,right,-1,0.95,0.45,0.2827,108,0,108,0,1,,,,,
,,259932,001,2023-06-28_14h59.03.765,arm3_ET_builderv2,2022.2.5,Win32,59.57700328,down,-1,0.95,0.45,0.6335,109,0,109,0,1,,,,,
,,259932,001,2023-06-28_14h59.03.765,arm3_ET_builderv2,2022.2.5,Win32,59.57700328,right,-1,0.95,0.45,0.3999,110,0,110,0,1,,,,,
,,259932,001,2023-06-28_14h59.03.765,arm3_ET_builderv2,2022.2.5,Win32,59.57700328,right,-1,0.95,0.45,0.4338,111,0,111,0,1,,,,,
,,259932,001,2023-06-28_14h59.03.765,arm3_ET_builderv2,2022.2.5,Win32,59.57700328,right,-1,0.95,0.45,0.2834,112,0,112,0,1,,,,,
,,259932,001,2023-06-28_14h59.03.765,arm3_ET_builderv2,2022.2.5,Win32,59.57700328,right,-1,0.95,0.45,0.1837,113,0,113,0,1,,,,,
,,259932,001,2023-06-28_14h59.03.765,arm3_ET_builderv2,2022.2.5,Win32,59.57700328,up,1,0.95,0.45,0.2165,114,0,114,0,1,,,,,
,,259932,001,2023-06-28_14h59.03.765,arm3_ET_builderv2,2022.2.5,Win32,59.57700328,right,1,0.95,0.45,0.2821,115,0,115,0,1,,,,,
,,259932,001,2023-06-28_14h59.03.765,arm3_ET_builderv2,2022.2.5,Win32,59.57700328,right,1,0.95,0.45,0.1679,116,0,116,0,1,,,,,
,,259932,001,2023-06-28_14h59.03.765,arm3_ET_builderv2,2022.2.5,Win32,59.57700328,right,1,0.95,0.45,0.1665,117,0,117,0,1,,,,,
,,259932,001,2023-06-28_14h59.03.765,arm3_ET_builderv2,2022.2.5,Win32,59.57700328,right,1,0.95,0.45,0.2006,118,0,118,0,1,,,,,
,,259932,001,2023-06-28_14h59.03.765,arm3_ET_builderv2,2022.2.5,Win32,59.57700328,right,1,0.95,0.45,0.1835,119,0,119,0,1,,,,,
,,259932,001,2023-06-28_14h59.03.765,arm3_ET_builderv2,2022.2.5,Win32,59.57700328,up,1,0.95,0.45,0.4672,120,0,120,0,1,,,,,
,,259932,001,2023-06-28_14h59.03.765,arm3_ET_builderv2,2022.2.5,Win32,59.57700328,right,1,0.95,0.45,0.2341,121,0,121,0,1,,,,,
,,259932,001,2023-06-28_14h59.03.765,arm3_ET_builderv2,2022.2.5,Win32,59.57700328,right,1,0.95,0.45,0.1832,122,0,122,0,1,,,,,
,,259932,001,2023-06-28_14h59.03.765,arm3_ET_builderv2,2022.2.5,Win32,59.57700328,right,1,0.95,0.45,0.1335,123,0,123,0,1,,,,,
,,259932,001,2023-06-28_14h59.03.765,arm3_ET_builderv2,2022.2.5,Win32,59.57700328,right,1,0.95,0.45,0.1331,124,0,124,0,1,,,,,
,,259932,001,2023-06-28_14h59.03.765,arm3_ET_builderv2,2022.2.5,Win32,59.57700328,up,1,0.95,0.45,0.3843,125,0,125,0,1,,,,,
,,259932,001,2023-06-28_14h59.03.765,arm3_ET_builderv2,2022.2.5,Win32,59.57700328,right,1,0.95,0.45,0.2308,126,0,126,0,1,,,,,
,,259932,001,2023-06-28_14h59.03.765,arm3_ET_builderv2,2022.2.5,Win32,59.57700328,right,1,0.95,0.45,0.1665,127,0,127,0,1,,,,,
,,259932,001,2023-06-28_14h59.03.765,arm3_ET_builderv2,2022.2.5,Win32,59.57700328,right,1,0.95,0.45,0.2166,128,0,128,0,1,,,,,
,,259932,001,2023-06-28_14h59.03.765,arm3_ET_builderv2,2022.2.5,Win32,59.57700328,right,1,0.95,0.45,0.4852,129,0,129,0,1,,,,,
,,259932,001,2023-06-28_14h59.03.765,arm3_ET_builderv2,2022.2.5,Win32,59.57700328,up,1,0.95,0.45,0.2004,130,0,130,0,1,,,,,
,,259932,001,2023-06-28_14h59.03.765,arm3_ET_builderv2,2022.2.5,Win32,59.57700328,right,1,0.95,0.45,0.25,131,0,131,0,1,,,,,
,,259932,001,2023-06-28_14h59.03.765,arm3_ET_builderv2,2022.2.5,Win32,59.57700328,right,1,0.95,0.45,0.1849,132,0,132,0,1,,,,,
,,259932,001,2023-06-28_14h59.03.765,arm3_ET_builderv2,2022.2.5,Win32,59.57700328,right,1,0.95,0.45,0.1675,133,0,133,0,1,,,,,
,,259932,001,2023-06-28_14h59.03.765,arm3_ET_builderv2,2022.2.5,Win32,59.57700328,right,1,0.95,0.45,0.2504,134,0,134,0,1,,,,,
,,259932,001,2023-06-28_14h59.03.765,arm3_ET_builderv2,2022.2.5,Win32,59.57700328,right,1,0.95,0.45,0.1669,135,0,135,0,1,,,,,
,,259932,001,2023-06-28_14h59.03.765,arm3_ET_builderv2,2022.2.5,Win32,59.57700328,up,1,0.95,0.45,0.2997,136,0,136,0,1,,,,,
,,259932,001,2023-06-28_14h59.03.765,arm3_ET_builderv2,2022.2.5,Win32,59.57700328,right,1,0.95,0.45,0.2336,137,0,137,0,1,,,,,
,,259932,001,2023-06-28_14h59.03.765,arm3_ET_builderv2,2022.2.5,Win32,59.57700328,right,1,0.95,0.45,0.1676,138,0,138,0,1,,,,,
,,259932,001,2023-06-28_14h59.03.765,arm3_ET_builderv2,2022.2.5,Win32,59.57700328,right,1,0.95,0.45,0.3331,139,0,139,0,1,,,,,
,,259932,001,2023-06-28_14h59.03.765,arm3_ET_builderv2,2022.2.5,Win32,59.57700328,right,1,0.95,0.45,0.1511,140,0,140,0,1,,,,,
,,259932,001,2023-06-28_14h59.03.765,arm3_ET_builderv2,2022.2.5,Win32,59.57700328,up,1,0.95,0.45,0.2507,141,0,141,0,1,,,,,
,,259932,001,2023-06-28_14h59.03.765,arm3_ET_builderv2,2022.2.5,Win32,59.57700328,right,1,0.95,0.45,0.2496,142,0,142,0,1,,,,,
,,259932,001,2023-06-28_14h59.03.765,arm3_ET_builderv2,2022.2.5,Win32,59.57700328,right,1,0.95,0.45,0.1669,143,0,143,0,1,,,,,
,,259932,001,2023-06-28_14h59.03.765,arm3_ET_builderv2,2022.2.5,Win32,59.57700328,right,1,0.95,0.45,0.134,144,0,144,0,1,,,,,
,,259932,001,2023-06-28_14h59.03.765,arm3_ET_builderv2,2022.2.5,Win32,59.57700328,right,1,0.95,0.45,0.234,145,0,145,0,1,,,,,
,,259932,001,2023-06-28_14h59.03.765,arm3_ET_builderv2,2022.2.5,Win32,59.57700328,up,1,0.95,0.45,0.4329,146,0,146,0,1,,,,,
,,259932,001,2023-06-28_14h59.03.765,arm3_ET_builderv2,2022.2.5,Win32,59.57700328,right,1,0.95,0.45,0.217,147,0,147,0,1,,,,,
,,259932,001,2023-06-28_14h59.03.765,arm3_ET_builderv2,2022.2.5,Win32,59.57700328,right,1,0.95,0.45,0.1679,148,0,148,0,1,,,,,
,,259932,001,2023-06-28_14h59.03.765,arm3_ET_builderv2,2022.2.5,Win32,59.57700328,right,1,0.95,0.45,0.1506,149,0,149,0,1,,,,,
,,259932,001,2023-06-28_14h59.03.765,arm3_ET_builderv2,2022.2.5,Win32,59.57700328,right,1,0.95,0.45,0.167,150,0,150,0,1,,,,,
,,259932,001,2023-06-28_14h59.03.765,arm3_ET_builderv2,2022.2.5,Win32,59.57700328,right,1,0.95,0.45,0.1666,151,0,151,0,1,,,,,
,,259932,001,2023-06-28_14h59.03.765,arm3_ET_builderv2,2022.2.5,Win32,59.57700328,right,1,0.95,0.45,0.3334,152,0,152,0,1,,,,,
,,259932,001,2023-06-28_14h59.03.765,arm3_ET_builderv2,2022.2.5,Win32,59.57700328,right,1,0.95,0.45,0.3337,153,0,153,0,1,,,,,
,,259932,001,2023-06-28_14h59.03.765,arm3_ET_builderv2,2022.2.5,Win32,59.57700328,up,1,0.95,0.45,0.4008,154,0,154,0,1,,,,,
,,259932,001,2023-06-28_14h59.03.765,arm3_ET_builderv2,2022.2.5,Win32,59.57700328,right,1,0.95,0.45,0.1838,155,0,155,0,1,,,,,
,,259932,001,2023-06-28_14h59.03.765,arm3_ET_builderv2,2022.2.5,Win32,59.57700328,right,1,0.95,0.45,0.1833,156,0,156,0,1,,,,,
,,259932,001,2023-06-28_14h59.03.765,arm3_ET_builderv2,2022.2.5,Win32,59.57700328,right,1,0.95,0.45,0.1495,157,0,157,0,1,,,,,
,,259932,001,2023-06-28_14h59.03.765,arm3_ET_builderv2,2022.2.5,Win32,59.57700328,right,1,0.95,0.45,0.1337,158,0,158,0,1,,,,,
,,259932,001,2023-06-28_14h59.03.765,arm3_ET_builderv2,2022.2.5,Win32,59.57700328,up,-1,0.95,0.45,0.2839,159,0,159,0,1,,,,,
,,259932,001,2023-06-28_14h59.03.765,arm3_ET_builderv2,2022.2.5,Win32,59.57700328,right,-1,0.95,0.45,0.2326,160,0,160,0,1,,,,,
,,259932,001,2023-06-28_14h59.03.765,arm3_ET_builderv2,2022.2.5,Win32,59.57700328,right,-1,0.95,0.45,0.1671,161,0,161,0,1,,,,,
,,259932,001,2023-06-28_14h59.03.765,arm3_ET_builderv2,2022.2.5,Win32,59.57700328,right,-1,0.95,0.45,0.1514,162,0,162,0,1,,,,,
,,259932,001,2023-06-28_14h59.03.765,arm3_ET_builderv2,2022.2.5,Win32,59.57700328,right,-1,0.95,0.45,0.2166,163,0,163,0,1,,,,,
,,259932,001,2023-06-28_14h59.03.765,arm3_ET_builderv2,2022.2.5,Win32,59.57700328,up,-1,0.95,0.45,0.3004,164,0,164,0,1,,,,,
,,259932,001,2023-06-28_14h59.03.765,arm3_ET_builderv2,2022.2.5,Win32,59.57700328,right,-1,0.95,0.45,0.2129,165,0,165,0,1,,,,,
,,259932,001,2023-06-28_14h59.03.765,arm3_ET_builderv2,2022.2.5,Win32,59.57700328,right,-1,0.95,0.45,0.184,166,0,166,0,1,,,,,
,,259932,001,2023-06-28_14h59.03.765,arm3_ET_builderv2,2022.2.5,Win32,59.57700328,right,-1,0.95,0.45,0.1498,167,0,167,0,1,,,,,
,,259932,001,2023-06-28_14h59.03.765,arm3_ET_builderv2,2022.2.5,Win32,59.57700328,down,1,0.95,0.45,0.334,168,0,168,0,1,,,,,
,,259932,001,2023-06-28_14h59.03.765,arm3_ET_builderv2,2022.2.5,Win32,59.57700328,right,1,0.95,0.45,0.2339,169,0,169,0,1,,,,,
,,259932,001,2023-06-28_14h59.03.765,arm3_ET_builderv2,2022.2.5,Win32,59.57700328,right,1,0.95,0.45,0.2014,170,0,170,0,1,,,,,
,,259932,001,2023-06-28_14h59.03.765,arm3_ET_builderv2,2022.2.5,Win32,59.57700328,right,1,0.95,0.45,0.1826,171,0,171,0,1,,,,,
,,259932,001,2023-06-28_14h59.03.765,arm3_ET_builderv2,2022.2.5,Win32,59.57700328,up,1,0.95,0.45,0.401,172,0,172,0,1,,,,,
,,259932,001,2023-06-28_14h59.03.765,arm3_ET_builderv2,2022.2.5,Win32,59.57700328,right,1,0.95,0.45,0.265,173,0,173,0,1,,,,,
,,259932,001,2023-06-28_14h59.03.765,arm3_ET_builderv2,2022.2.5,Win32,59.57700328,right,1,0.95,0.45,0.1838,174,0,174,0,1,,,,,
,,259932,001,2023-06-28_14h59.03.765,arm3_ET_builderv2,2022.2.5,Win32,59.57700328,right,1,0.95,0.45,0.3667,175,0,175,0,1,,,,,
,,259932,001,2023-06-28_14h59.03.765,arm3_ET_builderv2,2022.2.5,Win32,59.57700328,right,1,0.95,0.45,0.1666,176,0,176,0,1,,,,,
,,259932,001,2023-06-28_14h59.03.765,arm3_ET_builderv2,2022.2.5,Win32,59.57700328,up,1,0.95,0.45,0.4667,177,0,177,0,1,,,,,
,,259932,001,2023-06-28_14h59.03.765,arm3_ET_builderv2,2022.2.5,Win32,59.57700328,right,1,0.95,0.45,0.2503,178,0,178,0,1,,,,,
,,259932,001,2023-06-28_14h59.03.765,arm3_ET_builderv2,2022.2.5,Win32,59.57700328,right,1,0.95,0.45,0.1674,179,0,179,0,1,,,,,
,,259932,001,2023-06-28_14h59.03.765,arm3_ET_builderv2,2022.2.5,Win32,59.57700328,right,1,0.95,0.45,0.1507,180,0,180,0,1,,,,,
,,259932,001,2023-06-28_14h59.03.765,arm3_ET_builderv2,2022.2.5,Win32,59.57700328,right,1,0.95,0.45,0.1663,181,0,181,0,1,,,,,
,,259932,001,2023-06-28_14h59.03.765,arm3_ET_builderv2,2022.2.5,Win32,59.57700328,right,1,0.95,0.45,0.2172,182,0,182,0,1,,,,,
,,259932,001,2023-06-28_14h59.03.765,arm3_ET_builderv2,2022.2.5,Win32,59.57700328,up,1,0.95,0.45,0.7162,183,0,183,0,1,,,,,
,,259932,001,2023-06-28_14h59.03.765,arm3_ET_builderv2,2022.2.5,Win32,59.57700328,right,1,0.95,0.45,0.2172,184,0,184,0,1,,,,,
,,259932,001,2023-06-28_14h59.03.765,arm3_ET_builderv2,2022.2.5,Win32,59.57700328,right,1,0.95,0.45,0.2005,185,0,185,0,1,,,,,
,,259932,001,2023-06-28_14h59.03.765,arm3_ET_builderv2,2022.2.5,Win32,59.57700328,right,1,0.95,0.45,0.1998,186,0,186,0,1,,,,,
,,259932,001,2023-06-28_14h59.03.765,arm3_ET_builderv2,2022.2.5,Win32,59.57700328,right,1,0.95,0.45,0.2002,187,0,187,0,1,,,,,
,,259932,001,2023-06-28_14h59.03.765,arm3_ET_builderv2,2022.2.5,Win32,59.57700328,right,1,0.95,0.45,0.2346,188,0,188,0,1,,,,,
,,259932,001,2023-06-28_14h59.03.765,arm3_ET_builderv2,2022.2.5,Win32,59.57700328,down,-1,0.95,0.45,0.767,189,0,189,0,1,,,,,
,,259932,001,2023-06-28_14h59.03.765,arm3_ET_builderv2,2022.2.5,Win32,59.57700328,right,-1,0.95,0.45,0.2489,190,0,190,0,1,,,,,
,,259932,001,2023-06-28_14h59.03.765,arm3_ET_builderv2,2022.2.5,Win32,59.57700328,right,-1,0.95,0.45,0.134,191,0,191,0,1,,,,,
,,259932,001,2023-06-28_14h59.03.765,arm3_ET_builderv2,2022.2.5,Win32,59.57700328,right,-1,0.95,0.45,0.1514,192,0,192,0,1,,,,,
,,259932,001,2023-06-28_14h59.03.765,arm3_ET_builderv2,2022.2.5,Win32,59.57700328,right,-1,0.95,0.45,0.3159,193,0,193,0,1,,,,,
,,259932,001,2023-06-28_14h59.03.765,arm3_ET_builderv2,2022.2.5,Win32,59.57700328,right,-1,0.95,0.45,0.1666,194,0,194,0,1,,,,,
,,259932,001,2023-06-28_14h59.03.765,arm3_ET_builderv2,2022.2.5,Win32,59.57700328,right,-1,0.95,0.45,0.1827,195,0,195,0,1,,,,,
,,259932,001,2023-06-28_14h59.03.765,arm3_ET_builderv2,2022.2.5,Win32,59.57700328,down,-1,0.95,0.45,0.251,196,0,196,0,1,,,,,
,,259932,001,2023-06-28_14h59.03.765,arm3_ET_builderv2,2022.2.5,Win32,59.57700328,right,-1,0.95,0.45,0.1834,197,0,197,0,1,,,,,
,,259932,001,2023-06-28_14h59.03.765,arm3_ET_builderv2,2022.2.5,Win32,59.57700328,right,-1,0.95,0.45,0.1676,198,0,198,0,1,,,,,
,,259932,001,2023-06-28_14h59.03.765,arm3_ET_builderv2,2022.2.5,Win32,59.57700328,right,-1,0.95,0.45,0.1517,199,0,199,0,1,,,,,
,,259932,001,2023-06-28_14h59.03.765,arm3_ET_builderv2,2022.2.5,Win32,59.57700328,right,-1,0.95,0.45,0.1165,200,0,200,0,1,,,,,
,,259932,001,2023-06-28_14h59.03.765,arm3_ET_builderv2,2022.2.5,Win32,59.57700328,down,1,0.95,0.45,0.2169,201,0,201,0,1,,,,,
,,259932,001,2023-06-28_14h59.03.765,arm3_ET_builderv2,2022.2.5,Win32,59.57700328,right,1,0.95,0.45,0.1993,202,0,202,0,1,,,,,
,,259932,001,2023-06-28_14h59.03.765,arm3_ET_builderv2,2022.2.5,Win32,59.57700328,right,1,0.95,0.45,0.1837,203,0,203,0,1,,,,,
,,259932,001,2023-06-28_14h59.03.765,arm3_ET_builderv2,2022.2.5,Win32,59.57700328,right,1,0.95,0.45,0.1668,204,0,204,0,1,,,,,
,,259932,001,2023-06-28_14h59.03.765,arm3_ET_builderv2,2022.2.5,Win32,59.57700328,up,1,0.95,0.45,0.2843,205,0,205,0,1,,,,,
,,259932,001,2023-06-28_14h59.03.765,arm3_ET_builderv2,2022.2.5,Win32,59.57700328,right,1,0.95,0.45,0.2166,206,0,206,0,1,,,,,
,,259932,001,2023-06-28_14h59.03.765,arm3_ET_builderv2,2022.2.5,Win32,59.57700328,right,1,0.95,0.45,0.1839,207,0,207,0,1,,,,,
,,259932,001,2023-06-28_14h59.03.765,arm3_ET_builderv2,2022.2.5,Win32,59.57700328,up,1,0.95,0.45,0.4994,208,0,208,0,1,,,,,
,,259932,001,2023-06-28_14h59.03.765,arm3_ET_builderv2,2022.2.5,Win32,59.57700328,right,1,0.95,0.45,0.2007,209,0,209,0,1,,,,,
,,259932,001,2023-06-28_14h59.03.765,arm3_ET_builderv2,2022.2.5,Win32,59.57700328,right,1,0.95,0.45,0.1503,210,0,210,0,1,,,,,
,,259932,001,2023-06-28_14h59.03.765,arm3_ET_builderv2,2022.2.5,Win32,59.57700328,right,1,0.95,0.45,0.5665,211,0,211,0,1,,,,,
,,259932,001,2023-06-28_14h59.03.765,arm3_ET_builderv2,2022.2.5,Win32,59.57700328,right,1,0.95,0.45,0.1681,212,0,212,0,1,,,,,
,,259932,001,2023-06-28_14h59.03.765,arm3_ET_builderv2,2022.2.5,Win32,59.57700328,right,1,0.95,0.45,0.1662,213,0,213,0,1,,,,,
,,259932,001,2023-06-28_14h59.03.765,arm3_ET_builderv2,2022.2.5,Win32,59.57700328,right,1,0.95,0.45,0.2997,214,0,214,0,1,,,,,
,,259932,001,2023-06-28_14h59.03.765,arm3_ET_builderv2,2022.2.5,Win32,59.57700328,up,-1,0.95,0.45,0.3851,215,0,215,0,1,,,,,
,,259932,001,2023-06-28_14h59.03.765,arm3_ET_builderv2,2022.2.5,Win32,59.57700328,right,-1,0.95,0.45,0.1968,216,0,216,0,1,,,,,
,,259932,001,2023-06-28_14h59.03.765,arm3_ET_builderv2,2022.2.5,Win32,59.57700328,right,-1,0.95,0.45,0.1669,217,0,217,0,1,,,,,
,,259932,001,2023-06-28_14h59.03.765,arm3_ET_builderv2,2022.2.5,Win32,59.57700328,right,-1,0.95,0.45,0.15,218,0,218,0,1,,,,,
,,259932,001,2023-06-28_14h59.03.765,arm3_ET_builderv2,2022.2.5,Win32,59.57700328,right,-1,0.95,0.45,0.1676,219,0,219,0,1,,,,,
,,259932,001,2023-06-28_14h59.03.765,arm3_ET_builderv2,2022.2.5,Win32,59.57700328,down,1,0.95,0.45,0.4166,220,0,220,0,1,,,,,
,,259932,001,2023-06-28_14h59.03.765,arm3_ET_builderv2,2022.2.5,Win32,59.57700328,right,1,0.95,0.45,0.25,221,0,221,0,1,,,,,
,,259932,001,2023-06-28_14h59.03.765,arm3_ET_builderv2,2022.2.5,Win32,59.57700328,right,1,0.95,0.45,0.1665,222,0,222,0,1,,,,,
,,259932,001,2023-06-28_14h59.03.765,arm3_ET_builderv2,2022.2.5,Win32,59.57700328,right,1,0.95,0.45,0.1515,223,0,223,0,1,,,,,
,,259932,001,2023-06-28_14h59.03.765,arm3_ET_builderv2,2022.2.5,Win32,59.57700328,right,1,0.95,0.45,0.1997,224,0,224,0,1,,,,,
,,259932,001,2023-06-28_14h59.03.765,arm3_ET_builderv2,2022.2.5,Win32,59.57700328,up,-1,0.95,0.45,0.2503,225,0,225,0,1,,,,,
,,259932,001,2023-06-28_14h59.03.765,arm3_ET_builderv2,2022.2.5,Win32,59.57700328,right,-1,0.95,0.45,0.2329,226,0,226,0,1,,,,,
,,259932,001,2023-06-28_14h59.03.765,arm3_ET_builderv2,2022.2.5,Win32,59.57700328,right,-1,0.95,0.45,0.1671,227,0,227,0,1,,,,,
,,259932,001,2023-06-28_14h59.03.765,arm3_ET_builderv2,2022.2.5,Win32,59.57700328,right,-1,0.95,0.45,0.1502,228,0,228,0,1,,,,,
,,259932,001,2023-06-28_14h59.03.765,arm3_ET_builderv2,2022.2.5,Win32,59.57700328,right,-1,0.95,0.45,0.1667,229,0,229,0,1,,,,,
,,259932,001,2023-06-28_14h59.03.765,arm3_ET_builderv2,2022.2.5,Win32,59.57700328,right,-1,0.95,0.45,0.2344,230,0,230,0,1,,,,,
,,259932,001,2023-06-28_14h59.03.765,arm3_ET_builderv2,2022.2.5,Win32,59.57700328,down,-1,0.95,0.45,2.0335,231,0,231,0,1,,,,,
,,259932,001,2023-06-28_14h59.03.765,arm3_ET_builderv2,2022.2.5,Win32,59.57700328,right,-1,0.95,0.45,0.4302,232,0,232,0,1,,,,,
,,259932,001,2023-06-28_14h59.03.765,arm3_ET_builderv2,2022.2.5,Win32,59.57700328,right,-1,0.95,0.45,0.1332,233,0,233,0,1,,,,,
,,259932,001,2023-06-28_14h59.03.765,arm3_ET_builderv2,2022.2.5,Win32,59.57700328,right,-1,0.95,0.45,0.3176,234,0,234,0,1,,,,,
,,259932,001,2023-06-28_14h59.03.765,arm3_ET_builderv2,2022.2.5,Win32,59.57700328,right,-1,0.95,0.45,0.1502,235,0,235,0,1,,,,,
,,259932,001,2023-06-28_14h59.03.765,arm3_ET_builderv2,2022.2.5,Win32,59.57700328,right,-1,0.95,0.45,0.1509,236,0,236,0,1,,,,,
,,259932,001,2023-06-28_14h59.03.765,arm3_ET_builderv2,2022.2.5,Win32,59.57700328,down,-1,0.95,0.45,0.3828,237,0,237,0,1,,,,,
,,259932,001,2023-06-28_14h59.03.765,arm3_ET_builderv2,2022.2.5,Win32,59.57700328,right,-1,0.95,0.45,0.3501,238,0,238,0,1,,,,,
,,259932,001,2023-06-28_14h59.03.765,arm3_ET_builderv2,2022.2.5,Win32,59.57700328,right,-1,0.95,0.45,0.1342,239,0,239,0,1,,,,,
,,259932,001,2023-06-28_14h59.03.765,arm3_ET_builderv2,2022.2.5,Win32,59.57700328,right,-1,0.95,0.45,0.1835,240,0,240,0,1,,,,,
,,259932,001,2023-06-28_14h59.03.765,arm3_ET_builderv2,2022.2.5,Win32,59.57700328,right,-1,0.95,0.45,0.184,241,0,241,0,1,,,,,
,,259932,001,2023-06-28_14h59.03.765,arm3_ET_builderv2,2022.2.5,Win32,59.57700328,down,1,0.95,0.45,0.4508,242,0,242,0,1,,,,,
,,259932,001,2023-06-28_14h59.03.765,arm3_ET_builderv2,2022.2.5,Win32,59.57700328,right,1,0.95,0.45,0.3818,243,0,243,0,1,,,,,
,,259932,001,2023-06-28_14h59.03.765,arm3_ET_builderv2,2022.2.5,Win32,59.57700328,right,1,0.95,0.45,0.1669,244,0,244,0,1,,,,,
,,259932,001,2023-06-28_14h59.03.765,arm3_ET_builderv2,2022.2.5,Win32,59.57700328,right,1,0.95,0.45,0.1507,245,0,245,0,1,,,,,
,,259932,001,2023-06-28_14h59.03.765,arm3_ET_builderv2,2022.2.5,Win32,59.57700328,up,1,0.95,0.45,0.2839,246,0,246,0,1,,,,,
,,259932,001,2023-06-28_14h59.03.765,arm3_ET_builderv2,2022.2.5,Win32,59.57700328,right,1,0.95,0.45,0.25,247,0,247,0,1,,,,,
,,259932,001,2023-06-28_14h59.03.765,arm3_ET_builderv2,2022.2.5,Win32,59.57700328,right,1,0.95,0.45,0.1666,248,0,248,0,1,,,,,
,,259932,001,2023-06-28_14h59.03.765,arm3_ET_builderv2,2022.2.5,Win32,59.57700328,right,1,0.95,0.45,0.1671,249,0,249,0,1,,,,,
,,259932,001,2023-06-28_14h59.03.765,arm3_ET_builderv2,2022.2.5,Win32,59.57700328,right,1,0.95,0.45,1.0666,250,0,250,0,1,,,,,
,,259932,001,2023-06-28_14h59.03.765,arm3_ET_builderv2,2022.2.5,Win32,59.57700328,right,1,0.95,0.45,0.1508,251,0,251,0,1,,,,,
,,259932,001,2023-06-28_14h59.03.765,arm3_ET_builderv2,2022.2.5,Win32,59.57700328,right,1,0.95,0.45,0.1665,252,0,252,0,1,,,,,
,,259932,001,2023-06-28_14h59.03.765,arm3_ET_builderv2,2022.2.5,Win32,59.57700328,right,1,0.95,0.45,0.1348,253,0,253,0,1,,,,,
,,259932,001,2023-06-28_14h59.03.765,arm3_ET_builderv2,2022.2.5,Win32,59.57700328,up,-1,0.95,0.45,0.2173,254,0,254,0,1,,,,,
,,259932,001,2023-06-28_14h59.03.765,arm3_ET_builderv2,2022.2.5,Win32,59.57700328,right,-1,0.95,0.45,0.2502,255,0,255,0,1,,,,,
,,259932,001,2023-06-28_14h59.03.765,arm3_ET_builderv2,2022.2.5,Win32,59.57700328,right,-1,0.95,0.45,0.1502,256,0,256,0,1,,,,,
,,259932,001,2023-06-28_14h59.03.765,arm3_ET_builderv2,2022.2.5,Win32,59.57700328,right,-1,0.95,0.45,0.1507,257,0,257,0,1,,,,,
,,259932,001,2023-06-28_14h59.03.765,arm3_ET_builderv2,2022.2.5,Win32,59.57700328,right,-1,0.95,0.45,0.1338,258,0,258,0,1,,,,,
,,259932,001,2023-06-28_14h59.03.765,arm3_ET_builderv2,2022.2.5,Win32,59.57700328,down,-1,0.95,0.45,0.2171,259,0,259,0,1,,,,,
,,259932,001,2023-06-28_14h59.03.765,arm3_ET_builderv2,2022.2.5,Win32,59.57700328,right,-1,0.95,0.45,0.2333,260,0,260,0,1,,,,,
,,259932,001,2023-06-28_14h59.03.765,arm3_ET_builderv2,2022.2.5,Win32,59.57700328,right,-1,0.95,0.45,0.1663,261,0,261,0,1,,,,,
,,259932,001,2023-06-28_14h59.03.765,arm3_ET_builderv2,2022.2.5,Win32,59.57700328,right,-1,0.95,0.45,0.1336,262,0,262,0,1,,,,,
,,259932,001,2023-06-28_14h59.03.765,arm3_ET_builderv2,2022.2.5,Win32,59.57700328,right,-1,0.95,0.45,0.1827,263,0,263,0,1,,,,,
,,259932,001,2023-06-28_14h59.03.765,arm3_ET_builderv2,2022.2.5,Win32,59.57700328,down,-1,0.95,0.45,0.2175,264,0,264,0,1,,,,,
,,259932,001,2023-06-28_14h59.03.765,arm3_ET_builderv2,2022.2.5,Win32,59.57700328,right,-1,0.95,0.45,0.25,265,0,265,0,1,,,,,
,,259932,001,2023-06-28_14h59.03.765,arm3_ET_builderv2,2022.2.5,Win32,59.57700328,right,-1,0.95,0.45,0.1681,266,0,266,0,1,,,,,
,,259932,001,2023-06-28_14h59.03.765,arm3_ET_builderv2,2022.2.5,Win32,59.57700328,right,-1,0.95,0.45,0.1496,267,0,267,0,1,,,,,
,,259932,001,2023-06-28_14h59.03.765,arm3_ET_builderv2,2022.2.5,Win32,59.57700328,right,-1,0.95,0.45,0.1514,268,0,268,0,1,,,,,
,,259932,001,2023-06-28_14h59.03.765,arm3_ET_builderv2,2022.2.5,Win32,59.57700328,right,-1,0.95,0.45,0.1673,269,0,269,0,1,,,,,
,,259932,001,2023-06-28_14h59.03.765,arm3_ET_builderv2,2022.2.5,Win32,59.57700328,down,-1,0.95,0.45,0.4006,270,0,270,0,1,,,,,
,,259932,001,2023-06-28_14h59.03.765,arm3_ET_builderv2,2022.2.5,Win32,59.57700328,right,-1,0.95,0.45,0.216,271,0,271,0,1,,,,,
,,259932,001,2023-06-28_14h59.03.765,arm3_ET_builderv2,2022.2.5,Win32,59.57700328,right,-1,0.95,0.45,0.1664,272,0,272,0,1,,,,,
,,259932,001,2023-06-28_14h59.03.765,arm3_ET_builderv2,2022.2.5,Win32,59.57700328,right,-1,0.95,0.45,0.151,273,0,273,0,1,,,,,
,,259932,001,2023-06-28_14h59.03.765,arm3_ET_builderv2,2022.2.5,Win32,59.57700328,right,-1,0.95,0.45,0.1668,274,0,274,0,1,,,,,
,,259932,001,2023-06-28_14h59.03.765,arm3_ET_builderv2,2022.2.5,Win32,59.57700328,down,-1,0.95,0.45,0.1846,275,0,275,0,1,,,,,
,,259932,001,2023-06-28_14h59.03.765,arm3_ET_builderv2,2022.2.5,Win32,59.57700328,right,-1,0.95,0.45,0.232,276,0,276,0,1,,,,,
,,259932,001,2023-06-28_14h59.03.765,arm3_ET_builderv2,2022.2.5,Win32,59.57700328,right,-1,0.95,0.45,0.2003,277,0,277,0,1,,,,,
,,259932,001,2023-06-28_14h59.03.765,arm3_ET_builderv2,2022.2.5,Win32,59.57700328,right,-1,0.95,0.45,0.1348,278,0,278,0,1,,,,,
,,259932,001,2023-06-28_14h59.03.765,arm3_ET_builderv2,2022.2.5,Win32,59.57700328,down,-1,0.95,0.45,0.4499,279,0,279,0,1,,,,,
,,259932,001,2023-06-28_14h59.03.765,arm3_ET_builderv2,2022.2.5,Win32,59.57700328,right,-1,0.95,0.45,0.2174,280,0,280,0,1,,,,,
,,259932,001,2023-06-28_14h59.03.765,arm3_ET_builderv2,2022.2.5,Win32,59.57700328,right,-1,0.95,0.45,0.1686,281,0,281,0,1,,,,,
,,259932,001,2023-06-28_14h59.03.765,arm3_ET_builderv2,2022.2.5,Win32,59.57700328,right,-1,0.95,0.45,0.1678,282,0,282,0,1,,,,,
,,259932,001,2023-06-28_14h59.03.765,arm3_ET_builderv2,2022.2.5,Win32,59.57700328,down,-1,0.95,0.45,0.2665,283,0,283,0,1,,,,,
,,259932,001,2023-06-28_14h59.03.765,arm3_ET_builderv2,2022.2.5,Win32,59.57700328,right,-1,0.95,0.45,0.2166,284,0,284,0,1,,,,,
,,259932,001,2023-06-28_14h59.03.765,arm3_ET_builderv2,2022.2.5,Win32,59.57700328,right,-1,0.95,0.45,0.4684,285,0,285,0,1,,,,,
,,259932,001,2023-06-28_14h59.03.765,arm3_ET_builderv2,2022.2.5,Win32,59.57700328,right,-1,0.95,0.45,0.1512,286,0,286,0,1,,,,,
,,259932,001,2023-06-28_14h59.03.765,arm3_ET_builderv2,2022.2.5,Win32,59.57700328,right,-1,0.95,0.45,0.3666,287,0,287,0,1,,,,,
,,259932,001,2023-06-28_14h59.03.765,arm3_ET_builderv2,2022.2.5,Win32,59.57700328,right,-1,0.95,0.45,0.1507,288,0,288,0,1,,,,,
,,259932,001,2023-06-28_14h59.03.765,arm3_ET_builderv2,2022.2.5,Win32,59.57700328,down,-1,0.95,0.45,0.4999,289,0,289,0,1,,,,,
,,259932,001,2023-06-28_14h59.03.765,arm3_ET_builderv2,2022.2.5,Win32,59.57700328,right,-1,0.95,0.45,0.2161,290,0,290,0,1,,,,,
,,259932,001,2023-06-28_14h59.03.765,arm3_ET_builderv2,2022.2.5,Win32,59.57700328,right,-1,0.95,0.45,0.1674,291,0,291,0,1,,,,,
,,259932,001,2023-06-28_14h59.03.765,arm3_ET_builderv2,2022.2.5,Win32,59.57700328,right,-1,0.95,0.45,0.166,292,0,292,0,1,,,,,
,,259932,001,2023-06-28_14h59.03.765,arm3_ET_builderv2,2022.2.5,Win32,59.57700328,right,-1,0.95,0.45,0.1673,293,0,293,0,1,,,,,
,,259932,001,2023-06-28_14h59.03.765,arm3_ET_builderv2,2022.2.5,Win32,59.57700328,right,-1,0.95,0.45,0.1668,294,0,294,0,1,,,,,
,,259932,001,2023-06-28_14h59.03.765,arm3_ET_builderv2,2022.2.5,Win32,59.57700328,down,-1,0.95,0.45,0.2663,295,0,295,0,1,,,,,
,,259932,001,2023-06-28_14h59.03.765,arm3_ET_builderv2,2022.2.5,Win32,59.57700328,right,-1,0.95,0.45,0.168,296,0,296,0,1,,,,,
,,259932,001,2023-06-28_14h59.03.765,arm3_ET_builderv2,2022.2.5,Win32,59.57700328,right,-1,0.95,0.45,0.1659,297,0,297,0,1,,,,,
,,259932,001,2023-06-28_14h59.03.765,arm3_ET_builderv2,2022.2.5,Win32,59.57700328,right,-1,0.95,0.45,0.1673,298,0,298,0,1,,,,,
,,259932,001,2023-06-28_14h59.03.765,arm3_ET_builderv2,2022.2.5,Win32,59.57700328,right,-1,0.95,0.45,0.1505,299,0,299,0,1,,,,,
,,259932,001,2023-06-28_14h59.03.765,arm3_ET_builderv2,2022.2.5,Win32,59.57700328,down,1,0.95,0.45,0.2511,300,0,300,0,1,,,,,
,,259932,001,2023-06-28_14h59.03.765,arm3_ET_builderv2,2022.2.5,Win32,59.57700328,right,1,0.95,0.45,0.181,301,0,301,0,1,,,,,
,,259932,001,2023-06-28_14h59.03.765,arm3_ET_builderv2,2022.2.5,Win32,59.57700328,right,1,0.95,0.45,0.1834,302,0,302,0,1,,,,,
,,259932,001,2023-06-28_14h59.03.765,arm3_ET_builderv2,2022.2.5,Win32,59.57700328,right,1,0.95,0.45,0.1507,303,0,303,0,1,,,,,
,,259932,001,2023-06-28_14h59.03.765,arm3_ET_builderv2,2022.2.5,Win32,59.57700328,right,1,0.95,0.45,0.1673,304,0,304,0,1,,,,,
,,259932,001,2023-06-28_14h59.03.765,arm3_ET_builderv2,2022.2.5,Win32,59.57700328,up,-1,0.95,0.45,0.2502,305,0,305,0,1,,,,,
,,259932,001,2023-06-28_14h59.03.765,arm3_ET_builderv2,2022.2.5,Win32,59.57700328,right,-1,0.95,0.45,0.2324,306,0,306,0,1,,,,,
,,259932,001,2023-06-28_14h59.03.765,arm3_ET_builderv2,2022.2.5,Win32,59.57700328,right,-1,0.95,0.45,0.1514,307,0,307,0,1,,,,,
,,259932,001,2023-06-28_14h59.03.765,arm3_ET_builderv2,2022.2.5,Win32,59.57700328,right,-1,0.95,0.45,0.1327,308,0,308,0,1,,,,,
,,259932,001,2023-06-28_14h59.03.765,arm3_ET_builderv2,2022.2.5,Win32,59.57700328,right,-1,0.95,0.45,0.3509,309,0,309,0,1,,,,,
,,259932,001,2023-06-28_14h59.03.765,arm3_ET_builderv2,2022.2.5,Win32,59.57700328,right,-1,0.95,0.45,0.1504,310,0,310,0,1,,,,,
,,259932,001,2023-06-28_14h59.03.765,arm3_ET_builderv2,2022.2.5,Win32,59.57700328,up,1,0.95,0.45,0.367,311,0,311,0,1,,,,,
,,259932,001,2023-06-28_14h59.03.765,arm3_ET_builderv2,2022.2.5,Win32,59.57700328,right,1,0.95,0.45,0.2116,312,0,312,0,1,,,,,
,,259932,001,2023-06-28_14h59.03.765,arm3_ET_builderv2,2022.2.5,Win32,59.57700328,right,1,0.95,0.45,0.1674,313,0,313,0,1,,,,,
,,259932,001,2023-06-28_14h59.03.765,arm3_ET_builderv2,2022.2.5,Win32,59.57700328,right,1,0.95,0.45,0.1504,314,0,314,0,1,,,,,
,,259932,001,2023-06-28_14h59.03.765,arm3_ET_builderv2,2022.2.5,Win32,59.57700328,right,1,0.95,0.45,0.1834,315,0,315,0,1,,,,,
,,259932,001,2023-06-28_14h59.03.765,arm3_ET_builderv2,2022.2.5,Win32,59.57700328,down,-1,0.95,0.45,0.4839,316,0,316,0,1,,,,,
,,259932,001,2023-06-28_14h59.03.765,arm3_ET_builderv2,2022.2.5,Win32,59.57700328,right,-1,0.95,0.45,0.25,317,0,317,0,1,,,,,
,,259932,001,2023-06-28_14h59.03.765,arm3_ET_builderv2,2022.2.5,Win32,59.57700328,right,-1,0.95,0.45,0.184,318,0,318,0,1,,,,,
,,259932,001,2023-06-28_14h59.03.765,arm3_ET_builderv2,2022.2.5,Win32,59.57700328,down,-1,0.95,0.45,0.4834,319,0,319,0,1,,,,,
,,259932,001,2023-06-28_14h59.03.765,arm3_ET_builderv2,2022.2.5,Win32,59.57700328,right,-1,0.95,0.45,0.1979,320,0,320,0,1,,,,,
,,259932,001,2023-06-28_14h59.03.765,arm3_ET_builderv2,2022.2.5,Win32,59.57700328,right,-1,0.95,0.45,0.6505,321,0,321,0,1,,,,,
,,259932,001,2023-06-28_14h59.03.765,arm3_ET_builderv2,2022.2.5,Win32,59.57700328,right,-1,0.95,0.45,0.167,322,0,322,0,1,,,,,
,,259932,001,2023-06-28_14h59.03.765,arm3_ET_builderv2,2022.2.5,Win32,59.57700328,right,-1,0.95,0.45,0.151,323,0,323,0,1,,,,,
,,259932,001,2023-06-28_14h59.03.765,arm3_ET_builderv2,2022.2.5,Win32,59.57700328,down,-1,0.95,0.45,0.2332,324,0,324,0,1,,,,,
,,259932,001,2023-06-28_14h59.03.765,arm3_ET_builderv2,2022.2.5,Win32,59.57700328,right,-1,0.95,0.45,0.4156,325,0,325,0,1,,,,,
,,259932,001,2023-06-28_14h59.03.765,arm3_ET_builderv2,2022.2.5,Win32,59.57700328,right,-1,0.95,0.45,0.1669,326,0,326,0,1,,,,,
,,259932,001,2023-06-28_14h59.03.765,arm3_ET_builderv2,2022.2.5,Win32,59.57700328,right,-1,0.95,0.45,0.2324,327,0,327,0,1,,,,,
,,259932,001,2023-06-28_14h59.03.765,arm3_ET_builderv2,2022.2.5,Win32,59.57700328,right,-1,0.95,0.45,0.1609,328,0,328,0,1,,,,,
,,259932,001,2023-06-28_14h59.03.765,arm3_ET_builderv2,2022.2.5,Win32,59.57700328,right,-1,0.95,0.45,0.1757,329,0,329,0,1,,,,,
,,259932,001,2023-06-28_14h59.03.765,arm3_ET_builderv2,2022.2.5,Win32,59.57700328,up,1,0.95,0.45,0.3349,330,0,330,0,1,,,,,
,,259932,001,2023-06-28_14h59.03.765,arm3_ET_builderv2,2022.2.5,Win32,59.57700328,right,1,0.95,0.45,0.2476,331,0,331,0,1,,,,,
,,259932,001,2023-06-28_14h59.03.765,arm3_ET_builderv2,2022.2.5,Win32,59.57700328,right,1,0.95,0.45,0.1805,332,0,332,0,1,,,,,
,,259932,001,2023-06-28_14h59.03.765,arm3_ET_builderv2,2022.2.5,Win32,59.57700328,right,1,0.95,0.45,0.151,333,0,333,0,1,,,,,
,,259932,001,2023-06-28_14h59.03.765,arm3_ET_builderv2,2022.2.5,Win32,59.57700328,right,1,0.95,0.45,0.1835,334,0,334,0,1,,,,,
,,259932,001,2023-06-28_14h59.03.765,arm3_ET_builderv2,2022.2.5,Win32,59.57700328,right,1,0.95,0.45,0.1674,335,0,335,0,1,,,,,
,,259932,001,2023-06-28_14h59.03.765,arm3_ET_builderv2,2022.2.5,Win32,59.57700328,right,1,0.95,0.45,0.1336,336,0,336,0,1,,,,,
,,259932,001,2023-06-28_14h59.03.765,arm3_ET_builderv2,2022.2.5,Win32,59.57700328,down,1,0.95,0.45,0.2169,337,0,337,0,1,,,,,
,,259932,001,2023-06-28_14h59.03.765,arm3_ET_builderv2,2022.2.5,Win32,59.57700328,right,1,0.95,0.45,0.2165,338,0,338,0,1,,,,,
,,259932,001,2023-06-28_14h59.03.765,arm3_ET_builderv2,2022.2.5,Win32,59.57700328,right,1,0.95,0.45,0.1679,339,0,339,0,1,,,,,
,,259932,001,2023-06-28_14h59.03.765,arm3_ET_builderv2,2022.2.5,Win32,59.57700328,right,1,0.95,0.45,0.1508,340,0,340,0,1,,,,,
,,259932,001,2023-06-28_14h59.03.765,arm3_ET_builderv2,2022.2.5,Win32,59.57700328,right,1,0.95,0.45,0.1676,341,0,341,0,1,,,,,
,,259932,001,2023-06-28_14h59.03.765,arm3_ET_builderv2,2022.2.5,Win32,59.57700328,up,1,0.95,0.45,0.3339,342,0,342,0,1,,,,,
,,259932,001,2023-06-28_14h59.03.765,arm3_ET_builderv2,2022.2.5,Win32,59.57700328,right,1,0.95,0.45,0.2148,343,0,343,0,1,,,,,
,,259932,001,2023-06-28_14h59.03.765,arm3_ET_builderv2,2022.2.5,Win32,59.57700328,right,1,0.95,0.45,0.1846,344,0,344,0,1,,,,,
,,259932,001,2023-06-28_14h59.03.765,arm3_ET_builderv2,2022.2.5,Win32,59.57700328,right,1,0.95,0.45,0.1499,345,0,345,0,1,,,,,
,,259932,001,2023-06-28_14h59.03.765,arm3_ET_builderv2,2022.2.5,Win32,59.57700328,right,1,0.95,0.45,0.133,346,0,346,0,1,,,,,
,,259932,001,2023-06-28_14h59.03.765,arm3_ET_builderv2,2022.2.5,Win32,59.57700328,right,1,0.95,0.45,0.1502,347,0,347,0,1,,,,,
,,259932,001,2023-06-28_14h59.03.765,arm3_ET_builderv2,2022.2.5,Win32,59.57700328,up,-1,0.95,0.45,0.185,348,0,348,0,1,,,,,
,,259932,001,2023-06-28_14h59.03.765,arm3_ET_builderv2,2022.2.5,Win32,59.57700328,right,-1,0.95,0.45,0.2151,349,0,349,0,1,,,,,
,,259932,001,2023-06-28_14h59.03.765,arm3_ET_builderv2,2022.2.5,Win32,59.57700328,right,-1,0.95,0.45,0.1839,350,0,350,0,1,,,,,
,,259932,001,2023-06-28_14h59.03.765,arm3_ET_builderv2,2022.2.5,Win32,59.57700328,right,-1,0.95,0.45,0.1502,351,0,351,0,1,,,,,
,,259932,001,2023-06-28_14h59.03.765,arm3_ET_builderv2,2022.2.5,Win32,59.57700328,right,-1,0.95,0.45,0.1516,352,0,352,0,1,,,,,
,,259932,001,2023-06-28_14h59.03.765,arm3_ET_builderv2,2022.2.5,Win32,59.57700328,down,1,0.95,0.45,0.2506,353,0,353,0,1,,,,,
,,259932,001,2023-06-28_14h59.03.765,arm3_ET_builderv2,2022.2.5,Win32,59.57700328,right,1,0.95,0.45,0.1992,354,0,354,0,1,,,,,
,,259932,001,2023-06-28_14h59.03.765,arm3_ET_builderv2,2022.2.5,Win32,59.57700328,right,1,0.95,0.45,0.1838,355,0,355,0,1,,,,,
,,259932,001,2023-06-28_14h59.03.765,arm3_ET_builderv2,2022.2.5,Win32,59.57700328,right,1,0.95,0.45,0.1335,356,0,356,0,1,,,,,
,,259932,001,2023-06-28_14h59.03.765,arm3_ET_builderv2,2022.2.5,Win32,59.57700328,right,1,0.95,0.45,0.2004,357,0,357,0,1,,,,,
,,259932,001,2023-06-28_14h59.03.765,arm3_ET_builderv2,2022.2.5,Win32,59.57700328,up,-1,0.95,0.45,0.2496,358,0,358,0,1,,,,,
,,259932,001,2023-06-28_14h59.03.765,arm3_ET_builderv2,2022.2.5,Win32,59.57700328,right,-1,0.95,0.45,0.1997,359,0,359,0,1,,,,,
,,259932,001,2023-06-28_14h59.03.765,arm3_ET_builderv2,2022.2.5,Win32,59.57700328,right,-1,0.95,0.45,0.183,360,0,360,0,1,,,,,
,,259932,001,2023-06-28_14h59.03.765,arm3_ET_builderv2,2022.2.5,Win32,59.57700328,right,-1,0.95,0.45,0.1339,361,0,361,0,1,,,,,
,,259932,001,2023-06-28_14h59.03.765,arm3_ET_builderv2,2022.2.5,Win32,59.57700328,down,1,0.95,0.45,0.2499,362,0,362,0,1,,,,,
,,259932,001,2023-06-28_14h59.03.765,arm3_ET_builderv2,2022.2.5,Win32,59.57700328,right,1,0.95,0.45,0.2168,363,0,363,0,1,,,,,
,,259932,001,2023-06-28_14h59.03.765,arm3_ET_builderv2,2022.2.5,Win32,59.57700328,right,1,0.95,0.45,0.5003,364,0,364,0,1,,,,,
,,259932,001,2023-06-28_14h59.03.765,arm3_ET_builderv2,2022.2.5,Win32,59.57700328,right,1,0.95,0.45,0.1501,365,0,365,0,1,,,,,
,,259932,001,2023-06-28_14h59.03.765,arm3_ET_builderv2,2022.2.5,Win32,59.57700328,right,1,0.95,0.45,0.235,366,0,366,0,1,,,,,
,,259932,001,2023-06-28_14h59.03.765,arm3_ET_builderv2,2022.2.5,Win32,59.57700328,right,1,0.95,0.45,0.4174,367,0,367,0,1,,,,,
,,259932,001,2023-06-28_14h59.03.765,arm3_ET_builderv2,2022.2.5,Win32,59.57700328,up,1,0.95,0.45,0.2499,368,0,368,0,1,,,,,
,,259932,001,2023-06-28_14h59.03.765,arm3_ET_builderv2,2022.2.5,Win32,59.57700328,right,1,0.95,0.45,0.3323,369,0,369,0,1,,,,,
,,259932,001,2023-06-28_14h59.03.765,arm3_ET_builderv2,2022.2.5,Win32,59.57700328,right,1,0.95,0.45,0.1665,370,0,370,0,1,,,,,
,,259932,001,2023-06-28_14h59.03.765,arm3_ET_builderv2,2022.2.5,Win32,59.57700328,right,1,0.95,0.45,0.384,371,0,371,0,1,,,,,
,,259932,001,2023-06-28_14h59.03.765,arm3_ET_builderv2,2022.2.5,Win32,59.57700328,right,1,0.95,0.45,0.1678,372,0,372,0,1,,,,,
,,259932,001,2023-06-28_14h59.03.765,arm3_ET_builderv2,2022.2.5,Win32,59.57700328,right,1,0.95,0.45,0.2828,373,0,373,0,1,,,,,
,,259932,001,2023-06-28_14h59.03.765,arm3_ET_builderv2,2022.2.5,Win32,59.57700328,right,1,0.95,0.45,0.1676,374,0,374,0,1,,,,,
,,259932,001,2023-06-28_14h59.03.765,arm3_ET_builderv2,2022.2.5,Win32,59.57700328,up,1,0.95,0.45,0.3002,375,0,375,0,1,,,,,
,,259932,001,2023-06-28_14h59.03.765,arm3_ET_builderv2,2022.2.5,Win32,59.57700328,right,1,0.95,0.45,0.2299,376,0,376,0,1,,,,,
,,259932,001,2023-06-28_14h59.03.765,arm3_ET_builderv2,2022.2.5,Win32,59.57700328,right,1,0.95,0.45,0.1675,377,0,377,0,1,,,,,
,,259932,001,2023-06-28_14h59.03.765,arm3_ET_builderv2,2022.2.5,Win32,59.57700328,right,1,0.95,0.45,0.1497,378,0,378,0,1,,,,,
,,259932,001,2023-06-28_14h59.03.765,arm3_ET_builderv2,2022.2.5,Win32,59.57700328,right,1,0.95,0.45,0.1334,379,0,379,0,1,,,,,
,,259932,001,2023-06-28_14h59.03.765,arm3_ET_builderv2,2022.2.5,Win32,59.57700328,right,1,0.95,0.45,0.1502,380,0,380,0,1,,,,,
,,259932,001,2023-06-28_14h59.03.765,arm3_ET_builderv2,2022.2.5,Win32,59.57700328,right,1,0.95,0.45,0.5672,381,0,381,0,1,,,,,
,,259932,001,2023-06-28_14h59.03.765,arm3_ET_builderv2,2022.2.5,Win32,59.57700328,right,1,0.95,0.45,0.15,382,0,382,0,1,,,,,
,,259932,001,2023-06-28_14h59.03.765,arm3_ET_builderv2,2022.2.5,Win32,59.57700328,right,1,0.95,0.45,0.184,383,0,383,0,1,,,,,
,,259932,001,2023-06-28_14h59.03.765,arm3_ET_builderv2,2022.2.5,Win32,59.57700328,down,-1,0.95,0.45,0.2009,384,0,384,0,1,,,,,
,,259932,001,2023-06-28_14h59.03.765,arm3_ET_builderv2,2022.2.5,Win32,59.57700328,right,-1,0.95,0.45,0.2995,385,0,385,0,1,,,,,
,,259932,001,2023-06-28_14h59.03.765,arm3_ET_builderv2,2022.2.5,Win32,59.57700328,right,-1,0.95,0.45,0.1852,386,0,386,0,1,,,,,
,,259932,001,2023-06-28_14h59.03.765,arm3_ET_builderv2,2022.2.5,Win32,59.57700328,right,-1,0.95,0.45,0.2018,387,0,387,0,1,,,,,
,,259932,001,2023-06-28_14h59.03.765,arm3_ET_builderv2,2022.2.5,Win32,59.57700328,right,-1,0.95,0.45,0.1833,388,0,388,0,1,,,,,
