space_bar.keys,space_bar.rt,participant,session,date,expName,psychopyVersion,OS,frameRate,resp.keys,state,q_prob,eps_prob,price,resp.rt,steps.thisRepN,steps.thisTrialN,steps.thisN,steps.thisIndex,steps.ran,blocks.thisRepN,blocks.thisTrialN,blocks.thisN,blocks.thisIndex,blocks.ran
space,68.7623,669193,001,2023-07-06_12h33.46.500,arm3_ET_builderv2,2022.2.5,MacIntel,120.0048002,,,,,,,,,,,,,,,,
space,20.6027,669193,001,2023-07-06_12h33.46.500,arm3_ET_builderv2,2022.2.5,MacIntel,120.0048002,,,,,,,,,,,,,,,,
space,17.7494,669193,001,2023-07-06_12h33.46.500,arm3_ET_builderv2,2022.2.5,MacIntel,120.0048002,,,,,,,,,,,,,,,,
space,116.4701,669193,001,2023-07-06_12h33.46.500,arm3_ET_builderv2,2022.2.5,MacIntel,120.0048002,,,,,,,,,,,,,,,,
space,31.5911,669193,001,2023-07-06_12h33.46.500,arm3_ET_builderv2,2022.2.5,MacIntel,120.0048002,,,,,,,,,,,,,,,,
,,669193,001,2023-07-06_12h33.46.500,arm3_ET_builderv2,2022.2.5,MacIntel,120.0048002,right,1,0.95,0.45,0.015751533,9.4755,0,0,0,0,1,,,,,
,,669193,001,2023-07-06_12h33.46.500,arm3_ET_builderv2,2022.2.5,MacIntel,120.0048002,right,1,0.95,0.45,0.057138091,1.9678,1,0,1,0,1,,,,,
,,669193,001,2023-07-06_12h33.46.500,arm3_ET_builderv2,2022.2.5,MacIntel,120.0048002,right,1,0.95,0.45,0.067931955,1.5464,2,0,2,0,1,,,,,
,,669193,001,2023-07-06_12h33.46.500,arm3_ET_builderv2,2022.2.5,MacIntel,120.0048002,right,1,0.95,0.45,0.075143236,3.1987,3,0,3,0,1,,,,,
,,669193,001,2023-07-06_12h33.46.500,arm3_ET_builderv2,2022.2.5,MacIntel,120.0048002,right,1,0.95,0.45,0.048089707,0.6625,4,0,4,0,1,,,,,
,,669193,001,2023-07-06_12h33.46.500,arm3_ET_builderv2,2022.2.5,MacIntel,120.0048002,right,1,0.95,0.45,0.071104671,7.8165,5,0,5,0,1,,,,,
,,669193,001,2023-07-06_12h33.46.500,arm3_ET_builderv2,2022.2.5,MacIntel,120.0048002,right,1,0.95,0.45,0.094721708,0.4305,6,0,6,0,1,,,,,
,,669193,001,2023-07-06_12h33.46.500,arm3_ET_builderv2,2022.2.5,MacIntel,120.0048002,up,1,0.95,0.45,0,1.0657,7,0,7,0,1,,,,,
,,669193,001,2023-07-06_12h33.46.500,arm3_ET_builderv2,2022.2.5,MacIntel,120.0048002,right,1,0.95,0.45,-0.019142746,3.8847,8,0,8,0,1,,,,,
,,669193,001,2023-07-06_12h33.46.500,arm3_ET_builderv2,2022.2.5,MacIntel,120.0048002,right,1,0.95,0.45,0.006153864,0.4016,9,0,9,0,1,,,,,
,,669193,001,2023-07-06_12h33.46.500,arm3_ET_builderv2,2022.2.5,MacIntel,120.0048002,right,1,0.95,0.45,0.032221016,0.4914,10,0,10,0,1,,,,,
,,669193,001,2023-07-06_12h33.46.500,arm3_ET_builderv2,2022.2.5,MacIntel,120.0048002,right,1,0.95,0.45,0.050103413,0.5172,11,0,11,0,1,,,,,
,,669193,001,2023-07-06_12h33.46.500,arm3_ET_builderv2,2022.2.5,MacIntel,120.0048002,right,1,0.95,0.45,0.073700339,0.5154,12,0,12,0,1,,,,,
,,669193,001,2023-07-06_12h33.46.500,arm3_ET_builderv2,2022.2.5,MacIntel,120.0048002,up,1,0.95,0.45,0,1.0753,13,0,13,0,1,,,,,
,,669193,001,2023-07-06_12h33.46.500,arm3_ET_builderv2,2022.2.5,MacIntel,120.0048002,right,1,0.95,0.45,0.019130506,3.59,14,0,14,0,1,,,,,
,,669193,001,2023-07-06_12h33.46.500,arm3_ET_builderv2,2022.2.5,MacIntel,120.0048002,right,1,0.95,0.45,0.028210096,0.6921,15,0,15,0,1,,,,,
,,669193,001,2023-07-06_12h33.46.500,arm3_ET_builderv2,2022.2.5,MacIntel,120.0048002,right,1,0.95,0.45,0.040528142,0.4916,16,0,16,0,1,,,,,
,,669193,001,2023-07-06_12h33.46.500,arm3_ET_builderv2,2022.2.5,MacIntel,120.0048002,right,1,0.95,0.45,0.063879049,0.6012,17,0,17,0,1,,,,,
,,669193,001,2023-07-06_12h33.46.500,arm3_ET_builderv2,2022.2.5,MacIntel,120.0048002,right,1,0.95,0.45,0.095232405,2.3069,18,0,18,0,1,,,,,
,,669193,001,2023-07-06_12h33.46.500,arm3_ET_builderv2,2022.2.5,MacIntel,120.0048002,right,1,0.95,0.45,0.095442912,1.6403,19,0,19,0,1,,,,,
,,669193,001,2023-07-06_12h33.46.500,arm3_ET_builderv2,2022.2.5,MacIntel,120.0048002,up,1,0.95,0.45,0,1.2665,20,0,20,0,1,,,,,
,,669193,001,2023-07-06_12h33.46.500,arm3_ET_builderv2,2022.2.5,MacIntel,120.0048002,right,1,0.95,0.45,0.008930103,2.5492,21,0,21,0,1,,,,,
,,669193,001,2023-07-06_12h33.46.500,arm3_ET_builderv2,2022.2.5,MacIntel,120.0048002,right,1,0.95,0.45,0.007322601,0.8825,22,0,22,0,1,,,,,
,,669193,001,2023-07-06_12h33.46.500,arm3_ET_builderv2,2022.2.5,MacIntel,120.0048002,right,1,0.95,0.45,-0.000300882,1.597,23,0,23,0,1,,,,,
,,669193,001,2023-07-06_12h33.46.500,arm3_ET_builderv2,2022.2.5,MacIntel,120.0048002,right,1,0.95,0.45,0.004481042,0.671,24,0,24,0,1,,,,,
,,669193,001,2023-07-06_12h33.46.500,arm3_ET_builderv2,2022.2.5,MacIntel,120.0048002,right,1,0.95,0.45,0.025890289,0.7075,25,0,25,0,1,,,,,
,,669193,001,2023-07-06_12h33.46.500,arm3_ET_builderv2,2022.2.5,MacIntel,120.0048002,right,1,0.95,0.45,0.028368909,0.9001,26,0,26,0,1,,,,,
,,669193,001,2023-07-06_12h33.46.500,arm3_ET_builderv2,2022.2.5,MacIntel,120.0048002,right,1,0.95,0.45,0.032037762,0.6348,27,0,27,0,1,,,,,
,,669193,001,2023-07-06_12h33.46.500,arm3_ET_builderv2,2022.2.5,MacIntel,120.0048002,right,1,0.95,0.45,0.018732757,0.8322,28,0,28,0,1,,,,,
,,669193,001,2023-07-06_12h33.46.500,arm3_ET_builderv2,2022.2.5,MacIntel,120.0048002,right,1,0.95,0.45,-0.016666651,3.3951,29,0,29,0,1,,,,,
,,669193,001,2023-07-06_12h33.46.500,arm3_ET_builderv2,2022.2.5,MacIntel,120.0048002,down,-1,0.95,0.45,0,1.0859,30,0,30,0,1,,,,,
,,669193,001,2023-07-06_12h33.46.500,arm3_ET_builderv2,2022.2.5,MacIntel,120.0048002,right,-1,0.95,0.45,-0.027119246,5.6607,31,0,31,0,1,,,,,
,,669193,001,2023-07-06_12h33.46.500,arm3_ET_builderv2,2022.2.5,MacIntel,120.0048002,right,-1,0.95,0.45,-0.041968627,0.5203,32,0,32,0,1,,,,,
,,669193,001,2023-07-06_12h33.46.500,arm3_ET_builderv2,2022.2.5,MacIntel,120.0048002,right,-1,0.95,0.45,-0.033334512,0.777,33,0,33,0,1,,,,,
,,669193,001,2023-07-06_12h33.46.500,arm3_ET_builderv2,2022.2.5,MacIntel,120.0048002,right,-1,0.95,0.45,-0.03806946,19.4389,34,0,34,0,1,,,,,
,,669193,001,2023-07-06_12h33.46.500,arm3_ET_builderv2,2022.2.5,MacIntel,120.0048002,right,-1,0.95,0.45,-0.060169112,0.7778,35,0,35,0,1,,,,,
,,669193,001,2023-07-06_12h33.46.500,arm3_ET_builderv2,2022.2.5,MacIntel,120.0048002,right,-1,0.95,0.45,-0.081615634,0.4076,36,0,36,0,1,,,,,
,,669193,001,2023-07-06_12h33.46.500,arm3_ET_builderv2,2022.2.5,MacIntel,120.0048002,down,-1,0.95,0.45,0,0.9317,37,0,37,0,1,,,,,
,,669193,001,2023-07-06_12h33.46.500,arm3_ET_builderv2,2022.2.5,MacIntel,120.0048002,right,-1,0.95,0.45,-0.022890296,1.6506,38,0,38,0,1,,,,,
,,669193,001,2023-07-06_12h33.46.500,arm3_ET_builderv2,2022.2.5,MacIntel,120.0048002,right,-1,0.95,0.45,-0.055696659,0.4158,39,0,39,0,1,,,,,
,,669193,001,2023-07-06_12h33.46.500,arm3_ET_builderv2,2022.2.5,MacIntel,120.0048002,right,-1,0.95,0.45,-0.069593421,0.5723,40,0,40,0,1,,,,,
,,669193,001,2023-07-06_12h33.46.500,arm3_ET_builderv2,2022.2.5,MacIntel,120.0048002,right,-1,0.95,0.45,-0.055889844,1.6246,41,0,41,0,1,,,,,
,,669193,001,2023-07-06_12h33.46.500,arm3_ET_builderv2,2022.2.5,MacIntel,120.0048002,right,-1,0.95,0.45,-0.056182029,1.0066,42,0,42,0,1,,,,,
,,669193,001,2023-07-06_12h33.46.500,arm3_ET_builderv2,2022.2.5,MacIntel,120.0048002,right,-1,0.95,0.45,-0.066630124,0.4836,43,0,43,0,1,,,,,
,,669193,001,2023-07-06_12h33.46.500,arm3_ET_builderv2,2022.2.5,MacIntel,120.0048002,right,-1,0.95,0.45,-0.085401224,1.4267,44,0,44,0,1,,,,,
,,669193,001,2023-07-06_12h33.46.500,arm3_ET_builderv2,2022.2.5,MacIntel,120.0048002,down,-1,0.95,0.45,0,0.727,45,0,45,0,1,,,,,
,,669193,001,2023-07-06_12h33.46.500,arm3_ET_builderv2,2022.2.5,MacIntel,120.0048002,right,-1,0.95,0.45,-0.021345462,1.1616,46,0,46,0,1,,,,,
,,669193,001,2023-07-06_12h33.46.500,arm3_ET_builderv2,2022.2.5,MacIntel,120.0048002,right,-1,0.95,0.45,-0.014827549,0.4397,47,0,47,0,1,,,,,
,,669193,001,2023-07-06_12h33.46.500,arm3_ET_builderv2,2022.2.5,MacIntel,120.0048002,right,-1,0.95,0.45,-0.049027817,0.4594,48,0,48,0,1,,,,,
,,669193,001,2023-07-06_12h33.46.500,arm3_ET_builderv2,2022.2.5,MacIntel,120.0048002,right,-1,0.95,0.45,-0.062824131,0.3961,49,0,49,0,1,,,,,
,,669193,001,2023-07-06_12h33.46.500,arm3_ET_builderv2,2022.2.5,MacIntel,120.0048002,right,-1,0.95,0.45,-0.078939722,0.6676,50,0,50,0,1,,,,,
,,669193,001,2023-07-06_12h33.46.500,arm3_ET_builderv2,2022.2.5,MacIntel,120.0048002,down,1,0.95,0.45,0,0.9346,51,0,51,0,1,,,,,
,,669193,001,2023-07-06_12h33.46.500,arm3_ET_builderv2,2022.2.5,MacIntel,120.0048002,right,1,0.95,0.45,0.014309616,1.6404,52,0,52,0,1,,,,,
,,669193,001,2023-07-06_12h33.46.500,arm3_ET_builderv2,2022.2.5,MacIntel,120.0048002,right,1,0.95,0.45,0.01030355,0.4255,53,0,53,0,1,,,,,
,,669193,001,2023-07-06_12h33.46.500,arm3_ET_builderv2,2022.2.5,MacIntel,120.0048002,right,1,0.95,0.45,0.064380403,0.4945,54,0,54,0,1,,,,,
,,669193,001,2023-07-06_12h33.46.500,arm3_ET_builderv2,2022.2.5,MacIntel,120.0048002,right,1,0.95,0.45,0.090363597,0.4247,55,0,55,0,1,,,,,
,,669193,001,2023-07-06_12h33.46.500,arm3_ET_builderv2,2022.2.5,MacIntel,120.0048002,right,1,0.95,0.45,0.133895206,0.4125,56,0,56,0,1,,,,,
,,669193,001,2023-07-06_12h33.46.500,arm3_ET_builderv2,2022.2.5,MacIntel,120.0048002,up,1,0.95,0.45,0,0.8234,57,0,57,0,1,,,,,
,,669193,001,2023-07-06_12h33.46.500,arm3_ET_builderv2,2022.2.5,MacIntel,120.0048002,right,1,0.95,0.45,-0.010547136,0.9639,58,0,58,0,1,,,,,
,,669193,001,2023-07-06_12h33.46.500,arm3_ET_builderv2,2022.2.5,MacIntel,120.0048002,right,1,0.95,0.45,0.003664951,0.4137,59,0,59,0,1,,,,,
,,669193,001,2023-07-06_12h33.46.500,arm3_ET_builderv2,2022.2.5,MacIntel,120.0048002,right,1,0.95,0.45,0.027940982,0.8508,60,0,60,0,1,,,,,
,,669193,001,2023-07-06_12h33.46.500,arm3_ET_builderv2,2022.2.5,MacIntel,120.0048002,right,1,0.95,0.45,0.071737892,0.3624,61,0,61,0,1,,,,,
,,669193,001,2023-07-06_12h33.46.500,arm3_ET_builderv2,2022.2.5,MacIntel,120.0048002,up,-1,0.95,0.45,0,1.4333,62,0,62,0,1,,,,,
,,669193,001,2023-07-06_12h33.46.500,arm3_ET_builderv2,2022.2.5,MacIntel,120.0048002,right,-1,0.95,0.45,-0.033420051,2.2082,63,0,63,0,1,,,,,
,,669193,001,2023-07-06_12h33.46.500,arm3_ET_builderv2,2022.2.5,MacIntel,120.0048002,right,-1,0.95,0.45,-0.03470002,0.4095,64,0,64,0,1,,,,,
,,669193,001,2023-07-06_12h33.46.500,arm3_ET_builderv2,2022.2.5,MacIntel,120.0048002,right,-1,0.95,0.45,-0.041703669,0.5038,65,0,65,0,1,,,,,
,,669193,001,2023-07-06_12h33.46.500,arm3_ET_builderv2,2022.2.5,MacIntel,120.0048002,right,-1,0.95,0.45,-0.048215787,0.6046,66,0,66,0,1,,,,,
,,669193,001,2023-07-06_12h33.46.500,arm3_ET_builderv2,2022.2.5,MacIntel,120.0048002,right,-1,0.95,0.45,-0.050582445,0.4508,67,0,67,0,1,,,,,
,,669193,001,2023-07-06_12h33.46.500,arm3_ET_builderv2,2022.2.5,MacIntel,120.0048002,right,-1,0.95,0.45,-0.069530875,0.5828,68,0,68,0,1,,,,,
,,669193,001,2023-07-06_12h33.46.500,arm3_ET_builderv2,2022.2.5,MacIntel,120.0048002,right,-1,0.95,0.45,-0.062557583,0.4275,69,0,69,0,1,,,,,
,,669193,001,2023-07-06_12h33.46.500,arm3_ET_builderv2,2022.2.5,MacIntel,120.0048002,down,1,0.95,0.45,0,0.8295,70,0,70,0,1,,,,,
,,669193,001,2023-07-06_12h33.46.500,arm3_ET_builderv2,2022.2.5,MacIntel,120.0048002,right,1,0.95,0.45,0.008758478,0.9774,71,0,71,0,1,,,,,
,,669193,001,2023-07-06_12h33.46.500,arm3_ET_builderv2,2022.2.5,MacIntel,120.0048002,right,1,0.95,0.45,0.00523768,0.417,72,0,72,0,1,,,,,
,,669193,001,2023-07-06_12h33.46.500,arm3_ET_builderv2,2022.2.5,MacIntel,120.0048002,right,1,0.95,0.45,0.002008296,0.7928,73,0,73,0,1,,,,,
,,669193,001,2023-07-06_12h33.46.500,arm3_ET_builderv2,2022.2.5,MacIntel,120.0048002,right,1,0.95,0.45,0.009982821,0.4538,74,0,74,0,1,,,,,
,,669193,001,2023-07-06_12h33.46.500,arm3_ET_builderv2,2022.2.5,MacIntel,120.0048002,right,1,0.95,0.45,0.040478586,0.4509,75,0,75,0,1,,,,,
,,669193,001,2023-07-06_12h33.46.500,arm3_ET_builderv2,2022.2.5,MacIntel,120.0048002,right,1,0.95,0.45,0.039015457,0.4551,76,0,76,0,1,,,,,
,,669193,001,2023-07-06_12h33.46.500,arm3_ET_builderv2,2022.2.5,MacIntel,120.0048002,right,1,0.95,0.45,0.023724675,0.433,77,0,77,0,1,,,,,
,,669193,001,2023-07-06_12h33.46.500,arm3_ET_builderv2,2022.2.5,MacIntel,120.0048002,right,1,0.95,0.45,0.058931393,0.5565,78,0,78,0,1,,,,,
,,669193,001,2023-07-06_12h33.46.500,arm3_ET_builderv2,2022.2.5,MacIntel,120.0048002,right,1,0.95,0.45,0.075124923,0.4351,79,0,79,0,1,,,,,
,,669193,001,2023-07-06_12h33.46.500,arm3_ET_builderv2,2022.2.5,MacIntel,120.0048002,right,1,0.95,0.45,0.062966491,1.2638,80,0,80,0,1,,,,,
,,669193,001,2023-07-06_12h33.46.500,arm3_ET_builderv2,2022.2.5,MacIntel,120.0048002,up,1,0.95,0.45,0,0.798,81,0,81,0,1,,,,,
,,669193,001,2023-07-06_12h33.46.500,arm3_ET_builderv2,2022.2.5,MacIntel,120.0048002,right,1,0.95,0.45,0.023283699,1.7139,82,0,82,0,1,,,,,
,,669193,001,2023-07-06_12h33.46.500,arm3_ET_builderv2,2022.2.5,MacIntel,120.0048002,right,1,0.95,0.45,0.068564832,0.3702,83,0,83,0,1,,,,,
,,669193,001,2023-07-06_12h33.46.500,arm3_ET_builderv2,2022.2.5,MacIntel,120.0048002,right,1,0.95,0.45,0.087703449,0.4304,84,0,84,0,1,,,,,
,,669193,001,2023-07-06_12h33.46.500,arm3_ET_builderv2,2022.2.5,MacIntel,120.0048002,right,1,0.95,0.45,0.097406125,0.7986,85,0,85,0,1,,,,,
,,669193,001,2023-07-06_12h33.46.500,arm3_ET_builderv2,2022.2.5,MacIntel,120.0048002,right,1,0.95,0.45,0.093651578,0.5373,86,0,86,0,1,,,,,
,,669193,001,2023-07-06_12h33.46.500,arm3_ET_builderv2,2022.2.5,MacIntel,120.0048002,right,1,0.95,0.45,0.119497144,0.4468,87,0,87,0,1,,,,,
,,669193,001,2023-07-06_12h33.46.500,arm3_ET_builderv2,2022.2.5,MacIntel,120.0048002,up,1,0.95,0.45,0,0.6553,88,0,88,0,1,,,,,
,,669193,001,2023-07-06_12h33.46.500,arm3_ET_builderv2,2022.2.5,MacIntel,120.0048002,right,1,0.95,0.45,0.04718021,0.9376,89,0,89,0,1,,,,,
,,669193,001,2023-07-06_12h33.46.500,arm3_ET_builderv2,2022.2.5,MacIntel,120.0048002,right,1,0.95,0.45,0.031846181,0.5509,90,0,90,0,1,,,,,
,,669193,001,2023-07-06_12h33.46.500,arm3_ET_builderv2,2022.2.5,MacIntel,120.0048002,right,1,0.95,0.45,0.019304554,0.5391,91,0,91,0,1,,,,,
,,669193,001,2023-07-06_12h33.46.500,arm3_ET_builderv2,2022.2.5,MacIntel,120.0048002,right,1,0.95,0.45,0.031802,0.4369,92,0,92,0,1,,,,,
,,669193,001,2023-07-06_12h33.46.500,arm3_ET_builderv2,2022.2.5,MacIntel,120.0048002,right,1,0.95,0.45,0.040456712,0.517,93,0,93,0,1,,,,,
,,669193,001,2023-07-06_12h33.46.500,arm3_ET_builderv2,2022.2.5,MacIntel,120.0048002,right,1,0.95,0.45,0.068027225,0.8835,94,0,94,0,1,,,,,
,,669193,001,2023-07-06_12h33.46.500,arm3_ET_builderv2,2022.2.5,MacIntel,120.0048002,right,1,0.95,0.45,0.060364971,0.5263,95,0,95,0,1,,,,,
,,669193,001,2023-07-06_12h33.46.500,arm3_ET_builderv2,2022.2.5,MacIntel,120.0048002,up,1,0.95,0.45,0,0.7175,96,0,96,0,1,,,,,
,,669193,001,2023-07-06_12h33.46.500,arm3_ET_builderv2,2022.2.5,MacIntel,120.0048002,right,1,0.95,0.45,0.01073031,1.7072,97,0,97,0,1,,,,,
,,669193,001,2023-07-06_12h33.46.500,arm3_ET_builderv2,2022.2.5,MacIntel,120.0048002,right,1,0.95,0.45,0.023730792,0.4679,98,0,98,0,1,,,,,
,,669193,001,2023-07-06_12h33.46.500,arm3_ET_builderv2,2022.2.5,MacIntel,120.0048002,right,1,0.95,0.45,0.049828069,0.4334,99,0,99,0,1,,,,,
,,669193,001,2023-07-06_12h33.46.500,arm3_ET_builderv2,2022.2.5,MacIntel,120.0048002,right,1,0.95,0.45,0.071433583,0.3586,100,0,100,0,1,,,,,
,,669193,001,2023-07-06_12h33.46.500,arm3_ET_builderv2,2022.2.5,MacIntel,120.0048002,right,1,0.95,0.45,0.057450973,0.9808,101,0,101,0,1,,,,,
,,669193,001,2023-07-06_12h33.46.500,arm3_ET_builderv2,2022.2.5,MacIntel,120.0048002,up,1,0.95,0.45,0,1.9611,102,0,102,0,1,,,,,
,,669193,001,2023-07-06_12h33.46.500,arm3_ET_builderv2,2022.2.5,MacIntel,120.0048002,right,1,0.95,0.45,0.027286984,1.6351,103,0,103,0,1,,,,,
,,669193,001,2023-07-06_12h33.46.500,arm3_ET_builderv2,2022.2.5,MacIntel,120.0048002,right,1,0.95,0.45,0.003847932,0.3774,104,0,104,0,1,,,,,
,,669193,001,2023-07-06_12h33.46.500,arm3_ET_builderv2,2022.2.5,MacIntel,120.0048002,right,1,0.95,0.45,0.004984909,0.4249,105,0,105,0,1,,,,,
,,669193,001,2023-07-06_12h33.46.500,arm3_ET_builderv2,2022.2.5,MacIntel,120.0048002,right,1,0.95,0.45,0.013926148,0.435,106,0,106,0,1,,,,,
,,669193,001,2023-07-06_12h33.46.500,arm3_ET_builderv2,2022.2.5,MacIntel,120.0048002,right,1,0.95,0.45,-0.000971587,0.5069,107,0,107,0,1,,,,,
,,669193,001,2023-07-06_12h33.46.500,arm3_ET_builderv2,2022.2.5,MacIntel,120.0048002,right,1,0.95,0.45,-0.006050674,0.5178,108,0,108,0,1,,,,,
,,669193,001,2023-07-06_12h33.46.500,arm3_ET_builderv2,2022.2.5,MacIntel,120.0048002,right,1,0.95,0.45,0.001546492,0.4706,109,0,109,0,1,,,,,
,,669193,001,2023-07-06_12h33.46.500,arm3_ET_builderv2,2022.2.5,MacIntel,120.0048002,right,1,0.95,0.45,0.026274269,0.5469,110,0,110,0,1,,,,,
,,669193,001,2023-07-06_12h33.46.500,arm3_ET_builderv2,2022.2.5,MacIntel,120.0048002,right,1,0.95,0.45,0.030501381,0.5889,111,0,111,0,1,,,,,
,,669193,001,2023-07-06_12h33.46.500,arm3_ET_builderv2,2022.2.5,MacIntel,120.0048002,up,-1,0.95,0.45,0,2.9705,112,0,112,0,1,,,,,
,,669193,001,2023-07-06_12h33.46.500,arm3_ET_builderv2,2022.2.5,MacIntel,120.0048002,right,-1,0.95,0.45,-0.010551766,1.4768,113,0,113,0,1,,,,,
,,669193,001,2023-07-06_12h33.46.500,arm3_ET_builderv2,2022.2.5,MacIntel,120.0048002,right,-1,0.95,0.45,-0.015146183,0.578,114,0,114,0,1,,,,,
,,669193,001,2023-07-06_12h33.46.500,arm3_ET_builderv2,2022.2.5,MacIntel,120.0048002,right,-1,0.95,0.45,-0.04538081,0.4895,115,0,115,0,1,,,,,
,,669193,001,2023-07-06_12h33.46.500,arm3_ET_builderv2,2022.2.5,MacIntel,120.0048002,right,-1,0.95,0.45,-0.050804707,0.4529,116,0,116,0,1,,,,,
,,669193,001,2023-07-06_12h33.46.500,arm3_ET_builderv2,2022.2.5,MacIntel,120.0048002,right,-1,0.95,0.45,-0.072921281,0.4587,117,0,117,0,1,,,,,
,,669193,001,2023-07-06_12h33.46.500,arm3_ET_builderv2,2022.2.5,MacIntel,120.0048002,right,-1,0.95,0.45,-0.09036269,0.3937,118,0,118,0,1,,,,,
,,669193,001,2023-07-06_12h33.46.500,arm3_ET_builderv2,2022.2.5,MacIntel,120.0048002,down,1,0.95,0.45,0,0.8398,119,0,119,0,1,,,,,
,,669193,001,2023-07-06_12h33.46.500,arm3_ET_builderv2,2022.2.5,MacIntel,120.0048002,right,1,0.95,0.45,0.0371414,0.994,120,0,120,0,1,,,,,
,,669193,001,2023-07-06_12h33.46.500,arm3_ET_builderv2,2022.2.5,MacIntel,120.0048002,right,1,0.95,0.45,0.076453727,0.4073,121,0,121,0,1,,,,,
,,669193,001,2023-07-06_12h33.46.500,arm3_ET_builderv2,2022.2.5,MacIntel,120.0048002,right,1,0.95,0.45,0.094025646,0.411,122,0,122,0,1,,,,,
,,669193,001,2023-07-06_12h33.46.500,arm3_ET_builderv2,2022.2.5,MacIntel,120.0048002,right,1,0.95,0.45,0.132119624,0.4433,123,0,123,0,1,,,,,
,,669193,001,2023-07-06_12h33.46.500,arm3_ET_builderv2,2022.2.5,MacIntel,120.0048002,up,-1,0.95,0.45,0,0.9816,124,0,124,0,1,,,,,
,,669193,001,2023-07-06_12h33.46.500,arm3_ET_builderv2,2022.2.5,MacIntel,120.0048002,right,-1,0.95,0.45,-0.005626077,1.1651,125,0,125,0,1,,,,,
,,669193,001,2023-07-06_12h33.46.500,arm3_ET_builderv2,2022.2.5,MacIntel,120.0048002,right,-1,0.95,0.45,-0.026447935,0.4674,126,0,126,0,1,,,,,
,,669193,001,2023-07-06_12h33.46.500,arm3_ET_builderv2,2022.2.5,MacIntel,120.0048002,right,-1,0.95,0.45,-0.058718007,0.4079,127,0,127,0,1,,,,,
,,669193,001,2023-07-06_12h33.46.500,arm3_ET_builderv2,2022.2.5,MacIntel,120.0048002,right,-1,0.95,0.45,-0.102198421,0.4254,128,0,128,0,1,,,,,
,,669193,001,2023-07-06_12h33.46.500,arm3_ET_builderv2,2022.2.5,MacIntel,120.0048002,right,-1,0.95,0.45,-0.121980183,0.7568,129,0,129,0,1,,,,,
,,669193,001,2023-07-06_12h33.46.500,arm3_ET_builderv2,2022.2.5,MacIntel,120.0048002,down,1,0.95,0.45,0,0.8767,130,0,130,0,1,,,,,
,,669193,001,2023-07-06_12h33.46.500,arm3_ET_builderv2,2022.2.5,MacIntel,120.0048002,right,1,0.95,0.45,0.012192403,1.4218,131,0,131,0,1,,,,,
,,669193,001,2023-07-06_12h33.46.500,arm3_ET_builderv2,2022.2.5,MacIntel,120.0048002,right,1,0.95,0.45,-0.021525407,0.4418,132,0,132,0,1,,,,,
,,669193,001,2023-07-06_12h33.46.500,arm3_ET_builderv2,2022.2.5,MacIntel,120.0048002,right,1,0.95,0.45,0.006897005,0.4021,133,0,133,0,1,,,,,
,,669193,001,2023-07-06_12h33.46.500,arm3_ET_builderv2,2022.2.5,MacIntel,120.0048002,right,1,0.95,0.45,0.041791114,0.519,134,0,134,0,1,,,,,
,,669193,001,2023-07-06_12h33.46.500,arm3_ET_builderv2,2022.2.5,MacIntel,120.0048002,right,1,0.95,0.45,0.050007546,0.4935,135,0,135,0,1,,,,,
,,669193,001,2023-07-06_12h33.46.500,arm3_ET_builderv2,2022.2.5,MacIntel,120.0048002,right,1,0.95,0.45,0.052730779,0.3792,136,0,136,0,1,,,,,
,,669193,001,2023-07-06_12h33.46.500,arm3_ET_builderv2,2022.2.5,MacIntel,120.0048002,right,1,0.95,0.45,0.02351828,0.4875,137,0,137,0,1,,,,,
,,669193,001,2023-07-06_12h33.46.500,arm3_ET_builderv2,2022.2.5,MacIntel,120.0048002,right,1,0.95,0.45,0.041600395,0.5347,138,0,138,0,1,,,,,
,,669193,001,2023-07-06_12h33.46.500,arm3_ET_builderv2,2022.2.5,MacIntel,120.0048002,up,-1,0.95,0.45,0,1.122,139,0,139,0,1,,,,,
,,669193,001,2023-07-06_12h33.46.500,arm3_ET_builderv2,2022.2.5,MacIntel,120.0048002,right,-1,0.95,0.45,-0.013141968,1.0066,140,0,140,0,1,,,,,
,,669193,001,2023-07-06_12h33.46.500,arm3_ET_builderv2,2022.2.5,MacIntel,120.0048002,right,-1,0.95,0.45,-0.013107593,0.3785,141,0,141,0,1,,,,,
,,669193,001,2023-07-06_12h33.46.500,arm3_ET_builderv2,2022.2.5,MacIntel,120.0048002,right,-1,0.95,0.45,0.012725718,0.3649,142,0,142,0,1,,,,,
,,669193,001,2023-07-06_12h33.46.500,arm3_ET_builderv2,2022.2.5,MacIntel,120.0048002,right,-1,0.95,0.45,-0.018246256,0.5015,143,0,143,0,1,,,,,
,,669193,001,2023-07-06_12h33.46.500,arm3_ET_builderv2,2022.2.5,MacIntel,120.0048002,right,-1,0.95,0.45,0.014692157,0.3558,144,0,144,0,1,,,,,
,,669193,001,2023-07-06_12h33.46.500,arm3_ET_builderv2,2022.2.5,MacIntel,120.0048002,right,-1,0.95,0.45,-0.020109973,0.576,145,0,145,0,1,,,,,
,,669193,001,2023-07-06_12h33.46.500,arm3_ET_builderv2,2022.2.5,MacIntel,120.0048002,right,-1,0.95,0.45,-0.005795025,0.3836,146,0,146,0,1,,,,,
,,669193,001,2023-07-06_12h33.46.500,arm3_ET_builderv2,2022.2.5,MacIntel,120.0048002,right,-1,0.95,0.45,-0.015124638,0.4407,147,0,147,0,1,,,,,
,,669193,001,2023-07-06_12h33.46.500,arm3_ET_builderv2,2022.2.5,MacIntel,120.0048002,right,-1,0.95,0.45,-0.027811247,0.4258,148,0,148,0,1,,,,,
,,669193,001,2023-07-06_12h33.46.500,arm3_ET_builderv2,2022.2.5,MacIntel,120.0048002,right,-1,0.95,0.45,-0.037291311,1.1603,149,0,149,0,1,,,,,
,,669193,001,2023-07-06_12h33.46.500,arm3_ET_builderv2,2022.2.5,MacIntel,120.0048002,down,1,0.95,0.45,0,0.7812,150,0,150,0,1,,,,,
,,669193,001,2023-07-06_12h33.46.500,arm3_ET_builderv2,2022.2.5,MacIntel,120.0048002,right,1,0.95,0.45,-0.003619656,1.3734,151,0,151,0,1,,,,,
,,669193,001,2023-07-06_12h33.46.500,arm3_ET_builderv2,2022.2.5,MacIntel,120.0048002,right,1,0.95,0.45,-0.020027878,0.3693,152,0,152,0,1,,,,,
,,669193,001,2023-07-06_12h33.46.500,arm3_ET_builderv2,2022.2.5,MacIntel,120.0048002,right,1,0.95,0.45,-0.001270887,0.4088,153,0,153,0,1,,,,,
,,669193,001,2023-07-06_12h33.46.500,arm3_ET_builderv2,2022.2.5,MacIntel,120.0048002,right,1,0.95,0.45,0.019733091,0.5072,154,0,154,0,1,,,,,
,,669193,001,2023-07-06_12h33.46.500,arm3_ET_builderv2,2022.2.5,MacIntel,120.0048002,right,1,0.95,0.45,0.026659125,0.5072,155,0,155,0,1,,,,,
,,669193,001,2023-07-06_12h33.46.500,arm3_ET_builderv2,2022.2.5,MacIntel,120.0048002,right,1,0.95,0.45,0.040156938,0.4265,156,0,156,0,1,,,,,
,,669193,001,2023-07-06_12h33.46.500,arm3_ET_builderv2,2022.2.5,MacIntel,120.0048002,right,1,0.95,0.45,0.072891406,0.4012,157,0,157,0,1,,,,,
,,669193,001,2023-07-06_12h33.46.500,arm3_ET_builderv2,2022.2.5,MacIntel,120.0048002,up,-1,0.95,0.45,0,0.8234,158,0,158,0,1,,,,,
,,669193,001,2023-07-06_12h33.46.500,arm3_ET_builderv2,2022.2.5,MacIntel,120.0048002,right,-1,0.95,0.45,-0.003430659,1.1626,159,0,159,0,1,,,,,
,,669193,001,2023-07-06_12h33.46.500,arm3_ET_builderv2,2022.2.5,MacIntel,120.0048002,right,-1,0.95,0.45,-0.006186996,0.3548,160,0,160,0,1,,,,,
,,669193,001,2023-07-06_12h33.46.500,arm3_ET_builderv2,2022.2.5,MacIntel,120.0048002,right,-1,0.95,0.45,-0.021853508,0.4348,161,0,161,0,1,,,,,
,,669193,001,2023-07-06_12h33.46.500,arm3_ET_builderv2,2022.2.5,MacIntel,120.0048002,right,-1,0.95,0.45,-0.035866609,0.4923,162,0,162,0,1,,,,,
,,669193,001,2023-07-06_12h33.46.500,arm3_ET_builderv2,2022.2.5,MacIntel,120.0048002,right,-1,0.95,0.45,-0.052043106,0.5246,163,0,163,0,1,,,,,
,,669193,001,2023-07-06_12h33.46.500,arm3_ET_builderv2,2022.2.5,MacIntel,120.0048002,right,-1,0.95,0.45,-0.084668755,0.4755,164,0,164,0,1,,,,,
,,669193,001,2023-07-06_12h33.46.500,arm3_ET_builderv2,2022.2.5,MacIntel,120.0048002,down,1,0.95,0.45,0,0.8191,165,0,165,0,1,,,,,
,,669193,001,2023-07-06_12h33.46.500,arm3_ET_builderv2,2022.2.5,MacIntel,120.0048002,right,1,0.95,0.45,0.010397827,0.9415,166,0,166,0,1,,,,,
,,669193,001,2023-07-06_12h33.46.500,arm3_ET_builderv2,2022.2.5,MacIntel,120.0048002,right,1,0.95,0.45,0.035295346,0.3912,167,0,167,0,1,,,,,
,,669193,001,2023-07-06_12h33.46.500,arm3_ET_builderv2,2022.2.5,MacIntel,120.0048002,right,1,0.95,0.45,0.037950252,0.3926,168,0,168,0,1,,,,,
,,669193,001,2023-07-06_12h33.46.500,arm3_ET_builderv2,2022.2.5,MacIntel,120.0048002,right,1,0.95,0.45,0.047975949,0.4005,169,0,169,0,1,,,,,
,,669193,001,2023-07-06_12h33.46.500,arm3_ET_builderv2,2022.2.5,MacIntel,120.0048002,right,1,0.95,0.45,0.068731223,0.4256,170,0,170,0,1,,,,,
,,669193,001,2023-07-06_12h33.46.500,arm3_ET_builderv2,2022.2.5,MacIntel,120.0048002,up,1,0.95,0.45,0,0.7253,171,0,171,0,1,,,,,
,,669193,001,2023-07-06_12h33.46.500,arm3_ET_builderv2,2022.2.5,MacIntel,120.0048002,right,1,0.95,0.45,0.025780556,1.1702,172,0,172,0,1,,,,,
,,669193,001,2023-07-06_12h33.46.500,arm3_ET_builderv2,2022.2.5,MacIntel,120.0048002,right,1,0.95,0.45,0.070490475,0.4323,173,0,173,0,1,,,,,
,,669193,001,2023-07-06_12h33.46.500,arm3_ET_builderv2,2022.2.5,MacIntel,120.0048002,right,1,0.95,0.45,0.072367521,1.0866,174,0,174,0,1,,,,,
,,669193,001,2023-07-06_12h33.46.500,arm3_ET_builderv2,2022.2.5,MacIntel,120.0048002,right,1,0.95,0.45,0.074206952,0.3893,175,0,175,0,1,,,,,
,,669193,001,2023-07-06_12h33.46.500,arm3_ET_builderv2,2022.2.5,MacIntel,120.0048002,up,1,0.95,0.45,0,1.453,176,0,176,0,1,,,,,
,,669193,001,2023-07-06_12h33.46.500,arm3_ET_builderv2,2022.2.5,MacIntel,120.0048002,right,1,0.95,0.45,-0.004563565,0.8413,177,0,177,0,1,,,,,
,,669193,001,2023-07-06_12h33.46.500,arm3_ET_builderv2,2022.2.5,MacIntel,120.0048002,right,1,0.95,0.45,-0.003376797,0.3576,178,0,178,0,1,,,,,
,,669193,001,2023-07-06_12h33.46.500,arm3_ET_builderv2,2022.2.5,MacIntel,120.0048002,right,1,0.95,0.45,0.008117907,0.326,179,0,179,0,1,,,,,
,,669193,001,2023-07-06_12h33.46.500,arm3_ET_builderv2,2022.2.5,MacIntel,120.0048002,right,1,0.95,0.45,-0.002459822,0.3513,180,0,180,0,1,,,,,
,,669193,001,2023-07-06_12h33.46.500,arm3_ET_builderv2,2022.2.5,MacIntel,120.0048002,right,1,0.95,0.45,0.018437713,0.4207,181,0,181,0,1,,,,,
,,669193,001,2023-07-06_12h33.46.500,arm3_ET_builderv2,2022.2.5,MacIntel,120.0048002,right,1,0.95,0.45,0.002112154,0.3653,182,0,182,0,1,,,,,
,,669193,001,2023-07-06_12h33.46.500,arm3_ET_builderv2,2022.2.5,MacIntel,120.0048002,right,1,0.95,0.45,-0.01270956,0.4328,183,0,183,0,1,,,,,
,,669193,001,2023-07-06_12h33.46.500,arm3_ET_builderv2,2022.2.5,MacIntel,120.0048002,right,1,0.95,0.45,0.003843194,0.5155,184,0,184,0,1,,,,,
,,669193,001,2023-07-06_12h33.46.500,arm3_ET_builderv2,2022.2.5,MacIntel,120.0048002,right,1,0.95,0.45,0.002876757,0.6271,185,0,185,0,1,,,,,
,,669193,001,2023-07-06_12h33.46.500,arm3_ET_builderv2,2022.2.5,MacIntel,120.0048002,right,1,0.95,0.45,0.037065281,0.9754,186,0,186,0,1,,,,,
,,669193,001,2023-07-06_12h33.46.500,arm3_ET_builderv2,2022.2.5,MacIntel,120.0048002,up,-1,0.95,0.45,0,0.9092,187,0,187,0,1,,,,,
,,669193,001,2023-07-06_12h33.46.500,arm3_ET_builderv2,2022.2.5,MacIntel,120.0048002,right,-1,0.95,0.45,-0.017116709,0.9676,188,0,188,0,1,,,,,
,,669193,001,2023-07-06_12h33.46.500,arm3_ET_builderv2,2022.2.5,MacIntel,120.0048002,right,-1,0.95,0.45,-0.038521159,0.4445,189,0,189,0,1,,,,,
,,669193,001,2023-07-06_12h33.46.500,arm3_ET_builderv2,2022.2.5,MacIntel,120.0048002,right,-1,0.95,0.45,-0.012966609,0.4508,190,0,190,0,1,,,,,
,,669193,001,2023-07-06_12h33.46.500,arm3_ET_builderv2,2022.2.5,MacIntel,120.0048002,right,-1,0.95,0.45,-0.015010016,0.5156,191,0,191,0,1,,,,,
,,669193,001,2023-07-06_12h33.46.500,arm3_ET_builderv2,2022.2.5,MacIntel,120.0048002,right,-1,0.95,0.45,-0.021240288,0.4576,192,0,192,0,1,,,,,
,,669193,001,2023-07-06_12h33.46.500,arm3_ET_builderv2,2022.2.5,MacIntel,120.0048002,right,-1,0.95,0.45,0.016937631,0.7989,193,0,193,0,1,,,,,
,,669193,001,2023-07-06_12h33.46.500,arm3_ET_builderv2,2022.2.5,MacIntel,120.0048002,right,-1,0.95,0.45,0.017959401,0.6667,194,0,194,0,1,,,,,
,,669193,001,2023-07-06_12h33.46.500,arm3_ET_builderv2,2022.2.5,MacIntel,120.0048002,right,-1,0.95,0.45,0.006163662,0.5888,195,0,195,0,1,,,,,
,,669193,001,2023-07-06_12h33.46.500,arm3_ET_builderv2,2022.2.5,MacIntel,120.0048002,right,-1,0.95,0.45,0.01520353,0.7606,196,0,196,0,1,,,,,
,,669193,001,2023-07-06_12h33.46.500,arm3_ET_builderv2,2022.2.5,MacIntel,120.0048002,right,-1,0.95,0.45,0.04164621,0.922,197,0,197,0,1,,,,,
,,669193,001,2023-07-06_12h33.46.500,arm3_ET_builderv2,2022.2.5,MacIntel,120.0048002,right,-1,0.95,0.45,0.02480743,0.9232,198,0,198,0,1,,,,,
,,669193,001,2023-07-06_12h33.46.500,arm3_ET_builderv2,2022.2.5,MacIntel,120.0048002,down,-1,0.95,0.45,0,1.5288,199,0,199,0,1,,,,,
,,669193,001,2023-07-06_12h33.46.500,arm3_ET_builderv2,2022.2.5,MacIntel,120.0048002,right,-1,0.95,0.45,-0.004393863,1.2699,200,0,200,0,1,,,,,
,,669193,001,2023-07-06_12h33.46.500,arm3_ET_builderv2,2022.2.5,MacIntel,120.0048002,right,-1,0.95,0.45,-0.013149005,0.3994,201,0,201,0,1,,,,,
,,669193,001,2023-07-06_12h33.46.500,arm3_ET_builderv2,2022.2.5,MacIntel,120.0048002,right,-1,0.95,0.45,-0.01350817,0.3732,202,0,202,0,1,,,,,
,,669193,001,2023-07-06_12h33.46.500,arm3_ET_builderv2,2022.2.5,MacIntel,120.0048002,right,-1,0.95,0.45,-0.053840807,0.3937,203,0,203,0,1,,,,,
,,669193,001,2023-07-06_12h33.46.500,arm3_ET_builderv2,2022.2.5,MacIntel,120.0048002,right,-1,0.95,0.45,-0.08474469,0.3855,204,0,204,0,1,,,,,
,,669193,001,2023-07-06_12h33.46.500,arm3_ET_builderv2,2022.2.5,MacIntel,120.0048002,down,1,0.95,0.45,0,1.1835,205,0,205,0,1,,,,,
,,669193,001,2023-07-06_12h33.46.500,arm3_ET_builderv2,2022.2.5,MacIntel,120.0048002,right,1,0.95,0.45,0.007833832,0.8636,206,0,206,0,1,,,,,
,,669193,001,2023-07-06_12h33.46.500,arm3_ET_builderv2,2022.2.5,MacIntel,120.0048002,right,1,0.95,0.45,0.018870367,0.3656,207,0,207,0,1,,,,,
,,669193,001,2023-07-06_12h33.46.500,arm3_ET_builderv2,2022.2.5,MacIntel,120.0048002,right,1,0.95,0.45,0.030750563,0.3072,208,0,208,0,1,,,,,
,,669193,001,2023-07-06_12h33.46.500,arm3_ET_builderv2,2022.2.5,MacIntel,120.0048002,right,1,0.95,0.45,0.064099096,0.4238,209,0,209,0,1,,,,,
,,669193,001,2023-07-06_12h33.46.500,arm3_ET_builderv2,2022.2.5,MacIntel,120.0048002,up,-1,0.95,0.45,0,1.3223,210,0,210,0,1,,,,,
,,669193,001,2023-07-06_12h33.46.500,arm3_ET_builderv2,2022.2.5,MacIntel,120.0048002,right,-1,0.95,0.45,-0.012674011,0.8512,211,0,211,0,1,,,,,
,,669193,001,2023-07-06_12h33.46.500,arm3_ET_builderv2,2022.2.5,MacIntel,120.0048002,right,-1,0.95,0.45,-0.049850163,0.3163,212,0,212,0,1,,,,,
,,669193,001,2023-07-06_12h33.46.500,arm3_ET_builderv2,2022.2.5,MacIntel,120.0048002,right,-1,0.95,0.45,-0.072013148,0.3716,213,0,213,0,1,,,,,
,,669193,001,2023-07-06_12h33.46.500,arm3_ET_builderv2,2022.2.5,MacIntel,120.0048002,down,1,0.95,0.45,0,0.7014,214,0,214,0,1,,,,,
,,669193,001,2023-07-06_12h33.46.500,arm3_ET_builderv2,2022.2.5,MacIntel,120.0048002,right,1,0.95,0.45,0.006596222,0.8645,215,0,215,0,1,,,,,
,,669193,001,2023-07-06_12h33.46.500,arm3_ET_builderv2,2022.2.5,MacIntel,120.0048002,right,1,0.95,0.45,0.039383616,0.349,216,0,216,0,1,,,,,
,,669193,001,2023-07-06_12h33.46.500,arm3_ET_builderv2,2022.2.5,MacIntel,120.0048002,right,1,0.95,0.45,0.072466459,0.3198,217,0,217,0,1,,,,,
,,669193,001,2023-07-06_12h33.46.500,arm3_ET_builderv2,2022.2.5,MacIntel,120.0048002,right,1,0.95,0.45,0.075265718,0.4959,218,0,218,0,1,,,,,
,,669193,001,2023-07-06_12h33.46.500,arm3_ET_builderv2,2022.2.5,MacIntel,120.0048002,right,1,0.95,0.45,0.081990853,0.4325,219,0,219,0,1,,,,,
,,669193,001,2023-07-06_12h33.46.500,arm3_ET_builderv2,2022.2.5,MacIntel,120.0048002,up,-1,0.95,0.45,0,0.7716,220,0,220,0,1,,,,,
,,669193,001,2023-07-06_12h33.46.500,arm3_ET_builderv2,2022.2.5,MacIntel,120.0048002,right,-1,0.95,0.45,-0.015979216,5.6326,221,0,221,0,1,,,,,
,,669193,001,2023-07-06_12h33.46.500,arm3_ET_builderv2,2022.2.5,MacIntel,120.0048002,right,-1,0.95,0.45,0.000359722,0.4676,222,0,222,0,1,,,,,
,,669193,001,2023-07-06_12h33.46.500,arm3_ET_builderv2,2022.2.5,MacIntel,120.0048002,right,-1,0.95,0.45,-0.042438372,0.6095,223,0,223,0,1,,,,,
,,669193,001,2023-07-06_12h33.46.500,arm3_ET_builderv2,2022.2.5,MacIntel,120.0048002,down,-1,0.95,0.45,0,1.0301,224,0,224,0,1,,,,,
,,669193,001,2023-07-06_12h33.46.500,arm3_ET_builderv2,2022.2.5,MacIntel,120.0048002,right,-1,0.95,0.45,-0.007343448,1.9041,225,0,225,0,1,,,,,
,,669193,001,2023-07-06_12h33.46.500,arm3_ET_builderv2,2022.2.5,MacIntel,120.0048002,right,-1,0.95,0.45,-0.011408231,0.3775,226,0,226,0,1,,,,,
,,669193,001,2023-07-06_12h33.46.500,arm3_ET_builderv2,2022.2.5,MacIntel,120.0048002,right,-1,0.95,0.45,-0.001232191,0.4218,227,0,227,0,1,,,,,
,,669193,001,2023-07-06_12h33.46.500,arm3_ET_builderv2,2022.2.5,MacIntel,120.0048002,right,-1,0.95,0.45,-0.002436556,0.4334,228,0,228,0,1,,,,,
,,669193,001,2023-07-06_12h33.46.500,arm3_ET_builderv2,2022.2.5,MacIntel,120.0048002,right,-1,0.95,0.45,-0.027679903,0.4754,229,0,229,0,1,,,,,
,,669193,001,2023-07-06_12h33.46.500,arm3_ET_builderv2,2022.2.5,MacIntel,120.0048002,right,-1,0.95,0.45,-0.03779342,0.4641,230,0,230,0,1,,,,,
,,669193,001,2023-07-06_12h33.46.500,arm3_ET_builderv2,2022.2.5,MacIntel,120.0048002,down,-1,0.95,0.45,0,1.7912,231,0,231,0,1,,,,,
,,669193,001,2023-07-06_12h33.46.500,arm3_ET_builderv2,2022.2.5,MacIntel,120.0048002,right,-1,0.95,0.45,-0.005391258,0.8489,232,0,232,0,1,,,,,
,,669193,001,2023-07-06_12h33.46.500,arm3_ET_builderv2,2022.2.5,MacIntel,120.0048002,right,-1,0.95,0.45,-0.032404332,0.3643,233,0,233,0,1,,,,,
,,669193,001,2023-07-06_12h33.46.500,arm3_ET_builderv2,2022.2.5,MacIntel,120.0048002,right,-1,0.95,0.45,-0.028614468,0.4306,234,0,234,0,1,,,,,
,,669193,001,2023-07-06_12h33.46.500,arm3_ET_builderv2,2022.2.5,MacIntel,120.0048002,right,-1,0.95,0.45,-0.037927493,0.4603,235,0,235,0,1,,,,,
,,669193,001,2023-07-06_12h33.46.500,arm3_ET_builderv2,2022.2.5,MacIntel,120.0048002,right,-1,0.95,0.45,-0.032667908,0.7279,236,0,236,0,1,,,,,
,,669193,001,2023-07-06_12h33.46.500,arm3_ET_builderv2,2022.2.5,MacIntel,120.0048002,right,-1,0.95,0.45,0.000448882,0.4795,237,0,237,0,1,,,,,
,,669193,001,2023-07-06_12h33.46.500,arm3_ET_builderv2,2022.2.5,MacIntel,120.0048002,right,-1,0.95,0.45,0.003842867,0.4267,238,0,238,0,1,,,,,
,,669193,001,2023-07-06_12h33.46.500,arm3_ET_builderv2,2022.2.5,MacIntel,120.0048002,right,-1,0.95,0.45,-0.019488683,0.4752,239,0,239,0,1,,,,,
,,669193,001,2023-07-06_12h33.46.500,arm3_ET_builderv2,2022.2.5,MacIntel,120.0048002,right,-1,0.95,0.45,-0.037484503,0.5981,240,0,240,0,1,,,,,
,,669193,001,2023-07-06_12h33.46.500,arm3_ET_builderv2,2022.2.5,MacIntel,120.0048002,right,-1,0.95,0.45,-0.032333783,1.5946,241,0,241,0,1,,,,,
,,669193,001,2023-07-06_12h33.46.500,arm3_ET_builderv2,2022.2.5,MacIntel,120.0048002,down,1,0.95,0.45,0,1.1317,242,0,242,0,1,,,,,
,,669193,001,2023-07-06_12h33.46.500,arm3_ET_builderv2,2022.2.5,MacIntel,120.0048002,right,1,0.95,0.45,0.000488082,0.8326,243,0,243,0,1,,,,,
,,669193,001,2023-07-06_12h33.46.500,arm3_ET_builderv2,2022.2.5,MacIntel,120.0048002,right,1,0.95,0.45,0.012773923,0.3719,244,0,244,0,1,,,,,
,,669193,001,2023-07-06_12h33.46.500,arm3_ET_builderv2,2022.2.5,MacIntel,120.0048002,right,1,0.95,0.45,0.018282674,0.3586,245,0,245,0,1,,,,,
,,669193,001,2023-07-06_12h33.46.500,arm3_ET_builderv2,2022.2.5,MacIntel,120.0048002,right,1,0.95,0.45,0.03549653,0.3942,246,0,246,0,1,,,,,
,,669193,001,2023-07-06_12h33.46.500,arm3_ET_builderv2,2022.2.5,MacIntel,120.0048002,right,1,0.95,0.45,0.063358529,0.457,247,0,247,0,1,,,,,
,,669193,001,2023-07-06_12h33.46.500,arm3_ET_builderv2,2022.2.5,MacIntel,120.0048002,up,1,0.95,0.45,0,0.4836,248,0,248,0,1,,,,,
,,669193,001,2023-07-06_12h33.46.500,arm3_ET_builderv2,2022.2.5,MacIntel,120.0048002,right,1,0.95,0.45,-0.008317312,0.8241,249,0,249,0,1,,,,,
,,669193,001,2023-07-06_12h33.46.500,arm3_ET_builderv2,2022.2.5,MacIntel,120.0048002,right,1,0.95,0.45,-0.015165777,0.3446,250,0,250,0,1,,,,,
,,669193,001,2023-07-06_12h33.46.500,arm3_ET_builderv2,2022.2.5,MacIntel,120.0048002,right,1,0.95,0.45,0.006984947,0.3798,251,0,251,0,1,,,,,
,,669193,001,2023-07-06_12h33.46.500,arm3_ET_builderv2,2022.2.5,MacIntel,120.0048002,right,1,0.95,0.45,0.036462179,0.3533,252,0,252,0,1,,,,,
,,669193,001,2023-07-06_12h33.46.500,arm3_ET_builderv2,2022.2.5,MacIntel,120.0048002,right,1,0.95,0.45,0.035752642,0.4084,253,0,253,0,1,,,,,
,,669193,001,2023-07-06_12h33.46.500,arm3_ET_builderv2,2022.2.5,MacIntel,120.0048002,right,1,0.95,0.45,0.012239774,0.4245,254,0,254,0,1,,,,,
,,669193,001,2023-07-06_12h33.46.500,arm3_ET_builderv2,2022.2.5,MacIntel,120.0048002,right,1,0.95,0.45,0.029031463,0.4202,255,0,255,0,1,,,,,
,,669193,001,2023-07-06_12h33.46.500,arm3_ET_builderv2,2022.2.5,MacIntel,120.0048002,right,1,0.95,0.45,-0.001569896,0.3662,256,0,256,0,1,,,,,
,,669193,001,2023-07-06_12h33.46.500,arm3_ET_builderv2,2022.2.5,MacIntel,120.0048002,right,1,0.95,0.45,0.027788043,0.5984,257,0,257,0,1,,,,,
,,669193,001,2023-07-06_12h33.46.500,arm3_ET_builderv2,2022.2.5,MacIntel,120.0048002,right,1,0.95,0.45,0.021523409,0.4741,258,0,258,0,1,,,,,
,,669193,001,2023-07-06_12h33.46.500,arm3_ET_builderv2,2022.2.5,MacIntel,120.0048002,up,1,0.95,0.45,0,1.85,259,0,259,0,1,,,,,
,,669193,001,2023-07-06_12h33.46.500,arm3_ET_builderv2,2022.2.5,MacIntel,120.0048002,right,1,0.95,0.45,0.007859095,0.9081,260,0,260,0,1,,,,,
,,669193,001,2023-07-06_12h33.46.500,arm3_ET_builderv2,2022.2.5,MacIntel,120.0048002,right,1,0.95,0.45,-0.002193611,0.3085,261,0,261,0,1,,,,,
,,669193,001,2023-07-06_12h33.46.500,arm3_ET_builderv2,2022.2.5,MacIntel,120.0048002,right,1,0.95,0.45,-0.043737889,0.2862,262,0,262,0,1,,,,,
,,669193,001,2023-07-06_12h33.46.500,arm3_ET_builderv2,2022.2.5,MacIntel,120.0048002,right,1,0.95,0.45,-0.006879826,0.424,263,0,263,0,1,,,,,
,,669193,001,2023-07-06_12h33.46.500,arm3_ET_builderv2,2022.2.5,MacIntel,120.0048002,right,1,0.95,0.45,-0.007894162,0.4005,264,0,264,0,1,,,,,
,,669193,001,2023-07-06_12h33.46.500,arm3_ET_builderv2,2022.2.5,MacIntel,120.0048002,right,1,0.95,0.45,0.016117683,0.3924,265,0,265,0,1,,,,,
,,669193,001,2023-07-06_12h33.46.500,arm3_ET_builderv2,2022.2.5,MacIntel,120.0048002,right,1,0.95,0.45,0.031514395,0.3824,266,0,266,0,1,,,,,
,,669193,001,2023-07-06_12h33.46.500,arm3_ET_builderv2,2022.2.5,MacIntel,120.0048002,right,1,0.95,0.45,0.02415863,0.6659,267,0,267,0,1,,,,,
,,669193,001,2023-07-06_12h33.46.500,arm3_ET_builderv2,2022.2.5,MacIntel,120.0048002,right,1,0.95,0.45,0.023014337,0.4267,268,0,268,0,1,,,,,
,,669193,001,2023-07-06_12h33.46.500,arm3_ET_builderv2,2022.2.5,MacIntel,120.0048002,up,-1,0.95,0.45,0,0.9591,269,0,269,0,1,,,,,
,,669193,001,2023-07-06_12h33.46.500,arm3_ET_builderv2,2022.2.5,MacIntel,120.0048002,right,-1,0.95,0.45,-0.014602545,0.8948,270,0,270,0,1,,,,,
,,669193,001,2023-07-06_12h33.46.500,arm3_ET_builderv2,2022.2.5,MacIntel,120.0048002,right,-1,0.95,0.45,-0.023986674,0.3824,271,0,271,0,1,,,,,
,,669193,001,2023-07-06_12h33.46.500,arm3_ET_builderv2,2022.2.5,MacIntel,120.0048002,right,-1,0.95,0.45,-0.037890804,0.4084,272,0,272,0,1,,,,,
,,669193,001,2023-07-06_12h33.46.500,arm3_ET_builderv2,2022.2.5,MacIntel,120.0048002,right,-1,0.95,0.45,-0.088501338,0.5435,273,0,273,0,1,,,,,
,,669193,001,2023-07-06_12h33.46.500,arm3_ET_builderv2,2022.2.5,MacIntel,120.0048002,right,-1,0.95,0.45,-0.069382418,0.9692,274,0,274,0,1,,,,,
,,669193,001,2023-07-06_12h33.46.500,arm3_ET_builderv2,2022.2.5,MacIntel,120.0048002,down,-1,0.95,0.45,0,1.0916,275,0,275,0,1,,,,,
,,669193,001,2023-07-06_12h33.46.500,arm3_ET_builderv2,2022.2.5,MacIntel,120.0048002,right,-1,0.95,0.45,-0.034053311,0.7842,276,0,276,0,1,,,,,
,,669193,001,2023-07-06_12h33.46.500,arm3_ET_builderv2,2022.2.5,MacIntel,120.0048002,right,-1,0.95,0.45,-0.076627822,0.3216,277,0,277,0,1,,,,,
,,669193,001,2023-07-06_12h33.46.500,arm3_ET_builderv2,2022.2.5,MacIntel,120.0048002,right,-1,0.95,0.45,-0.110019801,0.3264,278,0,278,0,1,,,,,
,,669193,001,2023-07-06_12h33.46.500,arm3_ET_builderv2,2022.2.5,MacIntel,120.0048002,down,-1,0.95,0.45,0,0.5667,279,0,279,0,1,,,,,
,,669193,001,2023-07-06_12h33.46.500,arm3_ET_builderv2,2022.2.5,MacIntel,120.0048002,right,-1,0.95,0.45,0.004414765,0.8455,280,0,280,0,1,,,,,
,,669193,001,2023-07-06_12h33.46.500,arm3_ET_builderv2,2022.2.5,MacIntel,120.0048002,right,-1,0.95,0.45,0.006416187,0.3236,281,0,281,0,1,,,,,
,,669193,001,2023-07-06_12h33.46.500,arm3_ET_builderv2,2022.2.5,MacIntel,120.0048002,right,-1,0.95,0.45,-0.013170232,0.3981,282,0,282,0,1,,,,,
,,669193,001,2023-07-06_12h33.46.500,arm3_ET_builderv2,2022.2.5,MacIntel,120.0048002,right,-1,0.95,0.45,-0.016807833,0.3717,283,0,283,0,1,,,,,
,,669193,001,2023-07-06_12h33.46.500,arm3_ET_builderv2,2022.2.5,MacIntel,120.0048002,right,-1,0.95,0.45,-0.005995318,0.3587,284,0,284,0,1,,,,,
,,669193,001,2023-07-06_12h33.46.500,arm3_ET_builderv2,2022.2.5,MacIntel,120.0048002,right,-1,0.95,0.45,-0.007468197,0.3961,285,0,285,0,1,,,,,
,,669193,001,2023-07-06_12h33.46.500,arm3_ET_builderv2,2022.2.5,MacIntel,120.0048002,right,-1,0.95,0.45,-0.001166809,0.3888,286,0,286,0,1,,,,,
,,669193,001,2023-07-06_12h33.46.500,arm3_ET_builderv2,2022.2.5,MacIntel,120.0048002,right,-1,0.95,0.45,-0.00182256,0.4169,287,0,287,0,1,,,,,
,,669193,001,2023-07-06_12h33.46.500,arm3_ET_builderv2,2022.2.5,MacIntel,120.0048002,right,-1,0.95,0.45,-0.019540868,0.447,288,0,288,0,1,,,,,
,,669193,001,2023-07-06_12h33.46.500,arm3_ET_builderv2,2022.2.5,MacIntel,120.0048002,right,-1,0.95,0.45,-0.021985158,0.4098,289,0,289,0,1,,,,,
,,669193,001,2023-07-06_12h33.46.500,arm3_ET_builderv2,2022.2.5,MacIntel,120.0048002,right,-1,0.95,0.45,-0.012912746,1.4834,290,0,290,0,1,,,,,
,,669193,001,2023-07-06_12h33.46.500,arm3_ET_builderv2,2022.2.5,MacIntel,120.0048002,down,-1,0.95,0.45,0,1.0455,291,0,291,0,1,,,,,
,,669193,001,2023-07-06_12h33.46.500,arm3_ET_builderv2,2022.2.5,MacIntel,120.0048002,right,-1,0.95,0.45,0.005387924,2.7838,292,0,292,0,1,,,,,
,,669193,001,2023-07-06_12h33.46.500,arm3_ET_builderv2,2022.2.5,MacIntel,120.0048002,right,-1,0.95,0.45,0.001492374,0.3604,293,0,293,0,1,,,,,
,,669193,001,2023-07-06_12h33.46.500,arm3_ET_builderv2,2022.2.5,MacIntel,120.0048002,right,-1,0.95,0.45,-0.014932894,0.373,294,0,294,0,1,,,,,
,,669193,001,2023-07-06_12h33.46.500,arm3_ET_builderv2,2022.2.5,MacIntel,120.0048002,right,-1,0.95,0.45,-0.033801004,0.3594,295,0,295,0,1,,,,,
,,669193,001,2023-07-06_12h33.46.500,arm3_ET_builderv2,2022.2.5,MacIntel,120.0048002,right,-1,0.95,0.45,-0.05567513,0.4946,296,0,296,0,1,,,,,
,,669193,001,2023-07-06_12h33.46.500,arm3_ET_builderv2,2022.2.5,MacIntel,120.0048002,down,1,0.95,0.45,0,0.6891,297,0,297,0,1,,,,,
,,669193,001,2023-07-06_12h33.46.500,arm3_ET_builderv2,2022.2.5,MacIntel,120.0048002,right,1,0.95,0.45,-0.029972068,0.8392,298,0,298,0,1,,,,,
,,669193,001,2023-07-06_12h33.46.500,arm3_ET_builderv2,2022.2.5,MacIntel,120.0048002,right,1,0.95,0.45,-0.015964457,0.3737,299,0,299,0,1,,,,,
,,669193,001,2023-07-06_12h33.46.500,arm3_ET_builderv2,2022.2.5,MacIntel,120.0048002,right,1,0.95,0.45,0.01482363,0.4817,300,0,300,0,1,,,,,
,,669193,001,2023-07-06_12h33.46.500,arm3_ET_builderv2,2022.2.5,MacIntel,120.0048002,right,1,0.95,0.45,0.032211555,0.416,301,0,301,0,1,,,,,
,,669193,001,2023-07-06_12h33.46.500,arm3_ET_builderv2,2022.2.5,MacIntel,120.0048002,right,1,0.95,0.45,0.029651692,0.4155,302,0,302,0,1,,,,,
,,669193,001,2023-07-06_12h33.46.500,arm3_ET_builderv2,2022.2.5,MacIntel,120.0048002,right,1,0.95,0.45,0.017639644,0.4592,303,0,303,0,1,,,,,
,,669193,001,2023-07-06_12h33.46.500,arm3_ET_builderv2,2022.2.5,MacIntel,120.0048002,right,1,0.95,0.45,0.047418991,0.7457,304,0,304,0,1,,,,,
,,669193,001,2023-07-06_12h33.46.500,arm3_ET_builderv2,2022.2.5,MacIntel,120.0048002,right,1,0.95,0.45,0.046709665,0.4108,305,0,305,0,1,,,,,
,,669193,001,2023-07-06_12h33.46.500,arm3_ET_builderv2,2022.2.5,MacIntel,120.0048002,right,1,0.95,0.45,0.025219855,0.6773,306,0,306,0,1,,,,,
,,669193,001,2023-07-06_12h33.46.500,arm3_ET_builderv2,2022.2.5,MacIntel,120.0048002,right,1,0.95,0.45,0.012735343,0.6812,307,0,307,0,1,,,,,
,,669193,001,2023-07-06_12h33.46.500,arm3_ET_builderv2,2022.2.5,MacIntel,120.0048002,right,1,0.95,0.45,0.016234576,0.7397,308,0,308,0,1,,,,,
,,669193,001,2023-07-06_12h33.46.500,arm3_ET_builderv2,2022.2.5,MacIntel,120.0048002,up,1,0.95,0.45,0,0.7588,309,0,309,0,1,,,,,
,,669193,001,2023-07-06_12h33.46.500,arm3_ET_builderv2,2022.2.5,MacIntel,120.0048002,right,1,0.95,0.45,0.009932216,2.8993,310,0,310,0,1,,,,,
,,669193,001,2023-07-06_12h33.46.500,arm3_ET_builderv2,2022.2.5,MacIntel,120.0048002,right,1,0.95,0.45,0.05897321,0.3426,311,0,311,0,1,,,,,
,,669193,001,2023-07-06_12h33.46.500,arm3_ET_builderv2,2022.2.5,MacIntel,120.0048002,right,1,0.95,0.45,0.087641293,0.3157,312,0,312,0,1,,,,,
,,669193,001,2023-07-06_12h33.46.500,arm3_ET_builderv2,2022.2.5,MacIntel,120.0048002,right,1,0.95,0.45,0.092501239,0.3497,313,0,313,0,1,,,,,
,,669193,001,2023-07-06_12h33.46.500,arm3_ET_builderv2,2022.2.5,MacIntel,120.0048002,up,1,0.95,0.45,0,1.1836,314,0,314,0,1,,,,,
,,669193,001,2023-07-06_12h33.46.500,arm3_ET_builderv2,2022.2.5,MacIntel,120.0048002,right,1,0.95,0.45,0.007814514,1.0828,315,0,315,0,1,,,,,
,,669193,001,2023-07-06_12h33.46.500,arm3_ET_builderv2,2022.2.5,MacIntel,120.0048002,right,1,0.95,0.45,-0.005532065,0.3698,316,0,316,0,1,,,,,
,,669193,001,2023-07-06_12h33.46.500,arm3_ET_builderv2,2022.2.5,MacIntel,120.0048002,right,1,0.95,0.45,0.006320441,0.3068,317,0,317,0,1,,,,,
,,669193,001,2023-07-06_12h33.46.500,arm3_ET_builderv2,2022.2.5,MacIntel,120.0048002,right,1,0.95,0.45,0.017644158,0.331,318,0,318,0,1,,,,,
,,669193,001,2023-07-06_12h33.46.500,arm3_ET_builderv2,2022.2.5,MacIntel,120.0048002,right,1,0.95,0.45,0.003251,4.2559,319,0,319,0,1,,,,,
,,669193,001,2023-07-06_12h33.46.500,arm3_ET_builderv2,2022.2.5,MacIntel,120.0048002,right,1,0.95,0.45,-0.000971145,0.2665,320,0,320,0,1,,,,,
,,669193,001,2023-07-06_12h33.46.500,arm3_ET_builderv2,2022.2.5,MacIntel,120.0048002,right,1,0.95,0.45,0.032669162,0.4925,321,0,321,0,1,,,,,
,,669193,001,2023-07-06_12h33.46.500,arm3_ET_builderv2,2022.2.5,MacIntel,120.0048002,right,1,0.95,0.45,0.030460433,0.448,322,0,322,0,1,,,,,
,,669193,001,2023-07-06_12h33.46.500,arm3_ET_builderv2,2022.2.5,MacIntel,120.0048002,right,1,0.95,0.45,0.019696766,0.3638,323,0,323,0,1,,,,,
,,669193,001,2023-07-06_12h33.46.500,arm3_ET_builderv2,2022.2.5,MacIntel,120.0048002,right,1,0.95,0.45,0.038796792,0.899,324,0,324,0,1,,,,,
,,669193,001,2023-07-06_12h33.46.500,arm3_ET_builderv2,2022.2.5,MacIntel,120.0048002,up,1,0.95,0.45,0,1.9584,325,0,325,0,1,,,,,
,,669193,001,2023-07-06_12h33.46.500,arm3_ET_builderv2,2022.2.5,MacIntel,120.0048002,right,1,0.95,0.45,0.000195498,27.9336,326,0,326,0,1,,,,,
,,669193,001,2023-07-06_12h33.46.500,arm3_ET_builderv2,2022.2.5,MacIntel,120.0048002,right,1,0.95,0.45,-0.008256227,0.3923,327,0,327,0,1,,,,,
,,669193,001,2023-07-06_12h33.46.500,arm3_ET_builderv2,2022.2.5,MacIntel,120.0048002,right,1,0.95,0.45,-0.025068003,0.5666,328,0,328,0,1,,,,,
,,669193,001,2023-07-06_12h33.46.500,arm3_ET_builderv2,2022.2.5,MacIntel,120.0048002,right,1,0.95,0.45,-0.014491321,0.9988,329,0,329,0,1,,,,,
,,669193,001,2023-07-06_12h33.46.500,arm3_ET_builderv2,2022.2.5,MacIntel,120.0048002,right,1,0.95,0.45,-0.028613392,0.4169,330,0,330,0,1,,,,,
,,669193,001,2023-07-06_12h33.46.500,arm3_ET_builderv2,2022.2.5,MacIntel,120.0048002,right,1,0.95,0.45,-0.000242584,0.3726,331,0,331,0,1,,,,,
,,669193,001,2023-07-06_12h33.46.500,arm3_ET_builderv2,2022.2.5,MacIntel,120.0048002,right,1,0.95,0.45,-0.019801017,0.4401,332,0,332,0,1,,,,,
,,669193,001,2023-07-06_12h33.46.500,arm3_ET_builderv2,2022.2.5,MacIntel,120.0048002,right,1,0.95,0.45,-0.030570325,0.5476,333,0,333,0,1,,,,,
,,669193,001,2023-07-06_12h33.46.500,arm3_ET_builderv2,2022.2.5,MacIntel,120.0048002,right,1,0.95,0.45,-0.025486532,0.9587,334,0,334,0,1,,,,,
,,669193,001,2023-07-06_12h33.46.500,arm3_ET_builderv2,2022.2.5,MacIntel,120.0048002,down,1,0.95,0.45,0,2.2166,335,0,335,0,1,,,,,
,,669193,001,2023-07-06_12h33.46.500,arm3_ET_builderv2,2022.2.5,MacIntel,120.0048002,right,1,0.95,0.45,-0.001346265,1.924,336,0,336,0,1,,,,,
,,669193,001,2023-07-06_12h33.46.500,arm3_ET_builderv2,2022.2.5,MacIntel,120.0048002,right,1,0.95,0.45,0.007149759,0.4034,337,0,337,0,1,,,,,
,,669193,001,2023-07-06_12h33.46.500,arm3_ET_builderv2,2022.2.5,MacIntel,120.0048002,right,1,0.95,0.45,0.014862202,0.3216,338,0,338,0,1,,,,,
,,669193,001,2023-07-06_12h33.46.500,arm3_ET_builderv2,2022.2.5,MacIntel,120.0048002,right,1,0.95,0.45,0.021028079,0.3355,339,0,339,0,1,,,,,
,,669193,001,2023-07-06_12h33.46.500,arm3_ET_builderv2,2022.2.5,MacIntel,120.0048002,right,1,0.95,0.45,0.065789674,0.3635,340,0,340,0,1,,,,,
,,669193,001,2023-07-06_12h33.46.500,arm3_ET_builderv2,2022.2.5,MacIntel,120.0048002,right,1,0.95,0.45,0.067976368,0.3504,341,0,341,0,1,,,,,
,,669193,001,2023-07-06_12h33.46.500,arm3_ET_builderv2,2022.2.5,MacIntel,120.0048002,up,1,0.95,0.45,0,0.8995,342,0,342,0,1,,,,,
,,669193,001,2023-07-06_12h33.46.500,arm3_ET_builderv2,2022.2.5,MacIntel,120.0048002,right,1,0.95,0.45,0.016517139,1.1969,343,0,343,0,1,,,,,
,,669193,001,2023-07-06_12h33.46.500,arm3_ET_builderv2,2022.2.5,MacIntel,120.0048002,right,1,0.95,0.45,0.03186605,0.3542,344,0,344,0,1,,,,,
,,669193,001,2023-07-06_12h33.46.500,arm3_ET_builderv2,2022.2.5,MacIntel,120.0048002,right,1,0.95,0.45,0.05435622,0.2832,345,0,345,0,1,,,,,
,,669193,001,2023-07-06_12h33.46.500,arm3_ET_builderv2,2022.2.5,MacIntel,120.0048002,right,1,0.95,0.45,0.045906448,0.3815,346,0,346,0,1,,,,,
,,669193,001,2023-07-06_12h33.46.500,arm3_ET_builderv2,2022.2.5,MacIntel,120.0048002,right,1,0.95,0.45,0.058085647,0.4016,347,0,347,0,1,,,,,
,,669193,001,2023-07-06_12h33.46.500,arm3_ET_builderv2,2022.2.5,MacIntel,120.0048002,right,1,0.95,0.45,0.05972678,0.423,348,0,348,0,1,,,,,
,,669193,001,2023-07-06_12h33.46.500,arm3_ET_builderv2,2022.2.5,MacIntel,120.0048002,up,-1,0.95,0.45,0,0.812,349,0,349,0,1,,,,,
,,669193,001,2023-07-06_12h33.46.500,arm3_ET_builderv2,2022.2.5,MacIntel,120.0048002,right,-1,0.95,0.45,-0.018106961,0.8489,350,0,350,0,1,,,,,
,,669193,001,2023-07-06_12h33.46.500,arm3_ET_builderv2,2022.2.5,MacIntel,120.0048002,right,-1,0.95,0.45,-0.044873644,0.3583,351,0,351,0,1,,,,,
,,669193,001,2023-07-06_12h33.46.500,arm3_ET_builderv2,2022.2.5,MacIntel,120.0048002,right,-1,0.95,0.45,-0.060181939,0.3248,352,0,352,0,1,,,,,
,,669193,001,2023-07-06_12h33.46.500,arm3_ET_builderv2,2022.2.5,MacIntel,120.0048002,right,-1,0.95,0.45,-0.075851841,0.343,353,0,353,0,1,,,,,
,,669193,001,2023-07-06_12h33.46.500,arm3_ET_builderv2,2022.2.5,MacIntel,120.0048002,down,1,0.95,0.45,0,1.0248,354,0,354,0,1,,,,,
,,669193,001,2023-07-06_12h33.46.500,arm3_ET_builderv2,2022.2.5,MacIntel,120.0048002,right,1,0.95,0.45,0.007492528,0.8738,355,0,355,0,1,,,,,
,,669193,001,2023-07-06_12h33.46.500,arm3_ET_builderv2,2022.2.5,MacIntel,120.0048002,right,1,0.95,0.45,0.017066501,0.2922,356,0,356,0,1,,,,,
,,669193,001,2023-07-06_12h33.46.500,arm3_ET_builderv2,2022.2.5,MacIntel,120.0048002,right,1,0.95,0.45,0.015865176,0.3242,357,0,357,0,1,,,,,
,,669193,001,2023-07-06_12h33.46.500,arm3_ET_builderv2,2022.2.5,MacIntel,120.0048002,right,1,0.95,0.45,0.045247047,0.3754,358,0,358,0,1,,,,,
,,669193,001,2023-07-06_12h33.46.500,arm3_ET_builderv2,2022.2.5,MacIntel,120.0048002,right,1,0.95,0.45,0.068144472,0.2692,359,0,359,0,1,,,,,
,,669193,001,2023-07-06_12h33.46.500,arm3_ET_builderv2,2022.2.5,MacIntel,120.0048002,up,1,0.95,0.45,0,0.7857,360,0,360,0,1,,,,,
,,669193,001,2023-07-06_12h33.46.500,arm3_ET_builderv2,2022.2.5,MacIntel,120.0048002,right,1,0.95,0.45,0.007600555,0.8053,361,0,361,0,1,,,,,
,,669193,001,2023-07-06_12h33.46.500,arm3_ET_builderv2,2022.2.5,MacIntel,120.0048002,right,1,0.95,0.45,-0.010087101,0.2861,362,0,362,0,1,,,,,
,,669193,001,2023-07-06_12h33.46.500,arm3_ET_builderv2,2022.2.5,MacIntel,120.0048002,right,1,0.95,0.45,0.006043289,0.2664,363,0,363,0,1,,,,,
,,669193,001,2023-07-06_12h33.46.500,arm3_ET_builderv2,2022.2.5,MacIntel,120.0048002,right,1,0.95,0.45,0.029762316,0.2831,364,0,364,0,1,,,,,
,,669193,001,2023-07-06_12h33.46.500,arm3_ET_builderv2,2022.2.5,MacIntel,120.0048002,right,1,0.95,0.45,0.003983178,0.2671,365,0,365,0,1,,,,,
,,669193,001,2023-07-06_12h33.46.500,arm3_ET_builderv2,2022.2.5,MacIntel,120.0048002,right,1,0.95,0.45,0.023885285,0.3999,366,0,366,0,1,,,,,
,,669193,001,2023-07-06_12h33.46.500,arm3_ET_builderv2,2022.2.5,MacIntel,120.0048002,right,1,0.95,0.45,0.01335649,0.3785,367,0,367,0,1,,,,,
,,669193,001,2023-07-06_12h33.46.500,arm3_ET_builderv2,2022.2.5,MacIntel,120.0048002,right,1,0.95,0.45,0.038338541,0.3533,368,0,368,0,1,,,,,
,,669193,001,2023-07-06_12h33.46.500,arm3_ET_builderv2,2022.2.5,MacIntel,120.0048002,right,1,0.95,0.45,0.052462591,0.3651,369,0,369,0,1,,,,,
,,669193,001,2023-07-06_12h33.46.500,arm3_ET_builderv2,2022.2.5,MacIntel,120.0048002,up,-1,0.95,0.45,0,0.881,370,0,370,0,1,,,,,
,,669193,001,2023-07-06_12h33.46.500,arm3_ET_builderv2,2022.2.5,MacIntel,120.0048002,right,-1,0.95,0.45,-0.010101616,0.8188,371,0,371,0,1,,,,,
,,669193,001,2023-07-06_12h33.46.500,arm3_ET_builderv2,2022.2.5,MacIntel,120.0048002,right,-1,0.95,0.45,-0.034635425,0.2685,372,0,372,0,1,,,,,
,,669193,001,2023-07-06_12h33.46.500,arm3_ET_builderv2,2022.2.5,MacIntel,120.0048002,right,-1,0.95,0.45,-0.066890892,0.3368,373,0,373,0,1,,,,,
,,669193,001,2023-07-06_12h33.46.500,arm3_ET_builderv2,2022.2.5,MacIntel,120.0048002,right,-1,0.95,0.45,-0.078010632,0.3314,374,0,374,0,1,,,,,
,,669193,001,2023-07-06_12h33.46.500,arm3_ET_builderv2,2022.2.5,MacIntel,120.0048002,down,1,0.95,0.45,0,1.154,375,0,375,0,1,,,,,
,,669193,001,2023-07-06_12h33.46.500,arm3_ET_builderv2,2022.2.5,MacIntel,120.0048002,right,1,0.95,0.45,0.012365764,0.9097,376,0,376,0,1,,,,,
,,669193,001,2023-07-06_12h33.46.500,arm3_ET_builderv2,2022.2.5,MacIntel,120.0048002,right,1,0.95,0.45,-0.00354781,0.3336,377,0,377,0,1,,,,,
,,669193,001,2023-07-06_12h33.46.500,arm3_ET_builderv2,2022.2.5,MacIntel,120.0048002,right,1,0.95,0.45,0.029083708,0.2867,378,0,378,0,1,,,,,
,,669193,001,2023-07-06_12h33.46.500,arm3_ET_builderv2,2022.2.5,MacIntel,120.0048002,right,1,0.95,0.45,0.052921775,0.3007,379,0,379,0,1,,,,,
,,669193,001,2023-07-06_12h33.46.500,arm3_ET_builderv2,2022.2.5,MacIntel,120.0048002,right,1,0.95,0.45,0.038785817,0.3026,380,0,380,0,1,,,,,
,,669193,001,2023-07-06_12h33.46.500,arm3_ET_builderv2,2022.2.5,MacIntel,120.0048002,right,1,0.95,0.45,0.06054295,0.3551,381,0,381,0,1,,,,,
,,669193,001,2023-07-06_12h33.46.500,arm3_ET_builderv2,2022.2.5,MacIntel,120.0048002,right,1,0.95,0.45,0.082367638,0.2756,382,0,382,0,1,,,,,
,,669193,001,2023-07-06_12h33.46.500,arm3_ET_builderv2,2022.2.5,MacIntel,120.0048002,right,1,0.95,0.45,0.067170006,0.3753,383,0,383,0,1,,,,,
,,669193,001,2023-07-06_12h33.46.500,arm3_ET_builderv2,2022.2.5,MacIntel,120.0048002,right,1,0.95,0.45,0.053192875,0.5582,384,0,384,0,1,,,,,
,,669193,001,2023-07-06_12h33.46.500,arm3_ET_builderv2,2022.2.5,MacIntel,120.0048002,up,1,0.95,0.45,0,1.4001,385,0,385,0,1,,,,,
,,669193,001,2023-07-06_12h33.46.500,arm3_ET_builderv2,2022.2.5,MacIntel,120.0048002,right,1,0.95,0.45,-0.016770803,0.8152,386,0,386,0,1,,,,,
,,669193,001,2023-07-06_12h33.46.500,arm3_ET_builderv2,2022.2.5,MacIntel,120.0048002,right,1,0.95,0.45,0.007390314,0.3191,387,0,387,0,1,,,,,
,,669193,001,2023-07-06_12h33.46.500,arm3_ET_builderv2,2022.2.5,MacIntel,120.0048002,right,1,0.95,0.45,0.063023393,0.2455,388,0,388,0,1,,,,,
,,669193,001,2023-07-06_12h33.46.500,arm3_ET_builderv2,2022.2.5,MacIntel,120.0048002,right,1,0.95,0.45,0.081407318,0.3964,389,0,389,0,1,,,,,
,,669193,001,2023-07-06_12h33.46.500,arm3_ET_builderv2,2022.2.5,MacIntel,120.0048002,right,1,0.95,0.45,0.075412695,0.2801,390,0,390,0,1,,,,,
,,669193,001,2023-07-06_12h33.46.500,arm3_ET_builderv2,2022.2.5,MacIntel,120.0048002,right,1,0.95,0.45,0.102053497,0.3999,391,0,391,0,1,,,,,
,,669193,001,2023-07-06_12h33.46.500,arm3_ET_builderv2,2022.2.5,MacIntel,120.0048002,up,-1,0.95,0.45,0,0.605,392,0,392,0,1,,,,,
,,669193,001,2023-07-06_12h33.46.500,arm3_ET_builderv2,2022.2.5,MacIntel,120.0048002,right,-1,0.95,0.45,0.006131013,0.8486,393,0,393,0,1,,,,,
,,669193,001,2023-07-06_12h33.46.500,arm3_ET_builderv2,2022.2.5,MacIntel,120.0048002,right,-1,0.95,0.45,0.015012702,0.2636,394,0,394,0,1,,,,,
,,669193,001,2023-07-06_12h33.46.500,arm3_ET_builderv2,2022.2.5,MacIntel,120.0048002,right,-1,0.95,0.45,-0.01374817,0.2285,395,0,395,0,1,,,,,
,,669193,001,2023-07-06_12h33.46.500,arm3_ET_builderv2,2022.2.5,MacIntel,120.0048002,right,-1,0.95,0.45,-0.027379001,0.4418,396,0,396,0,1,,,,,
,,669193,001,2023-07-06_12h33.46.500,arm3_ET_builderv2,2022.2.5,MacIntel,120.0048002,right,-1,0.95,0.45,-0.023942998,0.6073,397,0,397,0,1,,,,,
,,669193,001,2023-07-06_12h33.46.500,arm3_ET_builderv2,2022.2.5,MacIntel,120.0048002,right,-1,0.95,0.45,0.004194395,0.4139,398,0,398,0,1,,,,,
,,669193,001,2023-07-06_12h33.46.500,arm3_ET_builderv2,2022.2.5,MacIntel,120.0048002,right,-1,0.95,0.45,-0.032154699,0.965,399,0,399,0,1,,,,,
,,669193,001,2023-07-06_12h33.46.500,arm3_ET_builderv2,2022.2.5,MacIntel,120.0048002,right,-1,0.95,0.45,-0.052251739,0.5991,400,0,400,0,1,,,,,
,,669193,001,2023-07-06_12h33.46.500,arm3_ET_builderv2,2022.2.5,MacIntel,120.0048002,right,-1,0.95,0.45,-0.043165628,0.5842,401,0,401,0,1,,,,,
,,669193,001,2023-07-06_12h33.46.500,arm3_ET_builderv2,2022.2.5,MacIntel,120.0048002,right,-1,0.95,0.45,-0.062550935,0.4085,402,0,402,0,1,,,,,
,,669193,001,2023-07-06_12h33.46.500,arm3_ET_builderv2,2022.2.5,MacIntel,120.0048002,down,-1,0.95,0.45,0,1.0806,403,0,403,0,1,,,,,
,,669193,001,2023-07-06_12h33.46.500,arm3_ET_builderv2,2022.2.5,MacIntel,120.0048002,right,-1,0.95,0.45,-0.010324848,1.2853,404,0,404,0,1,,,,,
,,669193,001,2023-07-06_12h33.46.500,arm3_ET_builderv2,2022.2.5,MacIntel,120.0048002,right,-1,0.95,0.45,-0.01100994,0.3364,405,0,405,0,1,,,,,
,,669193,001,2023-07-06_12h33.46.500,arm3_ET_builderv2,2022.2.5,MacIntel,120.0048002,right,-1,0.95,0.45,-0.028506019,0.5965,406,0,406,0,1,,,,,
,,669193,001,2023-07-06_12h33.46.500,arm3_ET_builderv2,2022.2.5,MacIntel,120.0048002,right,-1,0.95,0.45,-0.027305457,0.3147,407,0,407,0,1,,,,,
,,669193,001,2023-07-06_12h33.46.500,arm3_ET_builderv2,2022.2.5,MacIntel,120.0048002,right,-1,0.95,0.45,-0.057423021,0.4216,408,0,408,0,1,,,,,
,,669193,001,2023-07-06_12h33.46.500,arm3_ET_builderv2,2022.2.5,MacIntel,120.0048002,down,1,0.95,0.45,0,0.4469,409,0,409,0,1,,,,,
,,669193,001,2023-07-06_12h33.46.500,arm3_ET_builderv2,2022.2.5,MacIntel,120.0048002,right,1,0.95,0.45,0.014851922,0.9213,410,0,410,0,1,,,,,
,,669193,001,2023-07-06_12h33.46.500,arm3_ET_builderv2,2022.2.5,MacIntel,120.0048002,right,1,0.95,0.45,-0.006950824,0.3019,411,0,411,0,1,,,,,
,,669193,001,2023-07-06_12h33.46.500,arm3_ET_builderv2,2022.2.5,MacIntel,120.0048002,right,1,0.95,0.45,0.021884842,0.3617,412,0,412,0,1,,,,,
,,669193,001,2023-07-06_12h33.46.500,arm3_ET_builderv2,2022.2.5,MacIntel,120.0048002,right,1,0.95,0.45,0.053101823,0.4118,413,0,413,0,1,,,,,
,,669193,001,2023-07-06_12h33.46.500,arm3_ET_builderv2,2022.2.5,MacIntel,120.0048002,right,1,0.95,0.45,0.076418372,0.3949,414,0,414,0,1,,,,,
,,669193,001,2023-07-06_12h33.46.500,arm3_ET_builderv2,2022.2.5,MacIntel,120.0048002,up,1,0.95,0.45,0,0.5822,415,0,415,0,1,,,,,
,,669193,001,2023-07-06_12h33.46.500,arm3_ET_builderv2,2022.2.5,MacIntel,120.0048002,right,1,0.95,0.45,0.019260507,1.0796,416,0,416,0,1,,,,,
,,669193,001,2023-07-06_12h33.46.500,arm3_ET_builderv2,2022.2.5,MacIntel,120.0048002,right,1,0.95,0.45,0.045065791,0.3474,417,0,417,0,1,,,,,
,,669193,001,2023-07-06_12h33.46.500,arm3_ET_builderv2,2022.2.5,MacIntel,120.0048002,right,1,0.95,0.45,0.033609024,0.332,418,0,418,0,1,,,,,
,,669193,001,2023-07-06_12h33.46.500,arm3_ET_builderv2,2022.2.5,MacIntel,120.0048002,right,1,0.95,0.45,0.057394646,0.4494,419,0,419,0,1,,,,,
,,669193,001,2023-07-06_12h33.46.500,arm3_ET_builderv2,2022.2.5,MacIntel,120.0048002,up,-1,0.95,0.45,0,1.25,420,0,420,0,1,,,,,
,,669193,001,2023-07-06_12h33.46.500,arm3_ET_builderv2,2022.2.5,MacIntel,120.0048002,right,-1,0.95,0.45,-0.005503813,0.8733,421,0,421,0,1,,,,,
,,669193,001,2023-07-06_12h33.46.500,arm3_ET_builderv2,2022.2.5,MacIntel,120.0048002,right,-1,0.95,0.45,-0.027030769,0.2913,422,0,422,0,1,,,,,
,,669193,001,2023-07-06_12h33.46.500,arm3_ET_builderv2,2022.2.5,MacIntel,120.0048002,right,-1,0.95,0.45,-0.036086587,0.2831,423,0,423,0,1,,,,,
,,669193,001,2023-07-06_12h33.46.500,arm3_ET_builderv2,2022.2.5,MacIntel,120.0048002,right,-1,0.95,0.45,-0.031744031,1.0416,424,0,424,0,1,,,,,
,,669193,001,2023-07-06_12h33.46.500,arm3_ET_builderv2,2022.2.5,MacIntel,120.0048002,down,-1,0.95,0.45,0,2.0669,425,0,425,0,1,,,,,
,,669193,001,2023-07-06_12h33.46.500,arm3_ET_builderv2,2022.2.5,MacIntel,120.0048002,right,-1,0.95,0.45,-0.012658335,0.8133,426,0,426,0,1,,,,,
,,669193,001,2023-07-06_12h33.46.500,arm3_ET_builderv2,2022.2.5,MacIntel,120.0048002,right,-1,0.95,0.45,-0.024492965,0.3169,427,0,427,0,1,,,,,
,,669193,001,2023-07-06_12h33.46.500,arm3_ET_builderv2,2022.2.5,MacIntel,120.0048002,right,-1,0.95,0.45,-0.033188526,0.3463,428,0,428,0,1,,,,,
,,669193,001,2023-07-06_12h33.46.500,arm3_ET_builderv2,2022.2.5,MacIntel,120.0048002,right,-1,0.95,0.45,-0.03286359,0.7749,429,0,429,0,1,,,,,
,,669193,001,2023-07-06_12h33.46.500,arm3_ET_builderv2,2022.2.5,MacIntel,120.0048002,down,-1,0.95,0.45,0,4.9907,430,0,430,0,1,,,,,
,,669193,001,2023-07-06_12h33.46.500,arm3_ET_builderv2,2022.2.5,MacIntel,120.0048002,right,-1,0.95,0.45,-0.033853076,0.7656,431,0,431,0,1,,,,,
,,669193,001,2023-07-06_12h33.46.500,arm3_ET_builderv2,2022.2.5,MacIntel,120.0048002,right,-1,0.95,0.45,-0.072077029,0.3244,432,0,432,0,1,,,,,
,,669193,001,2023-07-06_12h33.46.500,arm3_ET_builderv2,2022.2.5,MacIntel,120.0048002,right,-1,0.95,0.45,-0.058125748,0.3745,433,0,433,0,1,,,,,
,,669193,001,2023-07-06_12h33.46.500,arm3_ET_builderv2,2022.2.5,MacIntel,120.0048002,right,-1,0.95,0.45,-0.096599276,0.3482,434,0,434,0,1,,,,,
,,669193,001,2023-07-06_12h33.46.500,arm3_ET_builderv2,2022.2.5,MacIntel,120.0048002,down,1,0.95,0.45,0,0.7674,435,0,435,0,1,,,,,
,,669193,001,2023-07-06_12h33.46.500,arm3_ET_builderv2,2022.2.5,MacIntel,120.0048002,right,1,0.95,0.45,0.01746971,2.3679,436,0,436,0,1,,,,,
,,669193,001,2023-07-06_12h33.46.500,arm3_ET_builderv2,2022.2.5,MacIntel,120.0048002,right,1,0.95,0.45,0.016389379,0.5536,437,0,437,0,1,,,,,
,,669193,001,2023-07-06_12h33.46.500,arm3_ET_builderv2,2022.2.5,MacIntel,120.0048002,right,1,0.95,0.45,0.039861687,0.3448,438,0,438,0,1,,,,,
,,669193,001,2023-07-06_12h33.46.500,arm3_ET_builderv2,2022.2.5,MacIntel,120.0048002,right,1,0.95,0.45,0.035927918,2.5659,439,0,439,0,1,,,,,
,,669193,001,2023-07-06_12h33.46.500,arm3_ET_builderv2,2022.2.5,MacIntel,120.0048002,right,1,0.95,0.45,0.003163563,0.6266,440,0,440,0,1,,,,,
,,669193,001,2023-07-06_12h33.46.500,arm3_ET_builderv2,2022.2.5,MacIntel,120.0048002,right,1,0.95,0.45,0.012094308,0.4975,441,0,441,0,1,,,,,
,,669193,001,2023-07-06_12h33.46.500,arm3_ET_builderv2,2022.2.5,MacIntel,120.0048002,right,1,0.95,0.45,-0.02440466,0.7781,442,0,442,0,1,,,,,
,,669193,001,2023-07-06_12h33.46.500,arm3_ET_builderv2,2022.2.5,MacIntel,120.0048002,down,-1,0.95,0.45,0,1.0473,443,0,443,0,1,,,,,
,,669193,001,2023-07-06_12h33.46.500,arm3_ET_builderv2,2022.2.5,MacIntel,120.0048002,right,-1,0.95,0.45,-0.024754361,1.2508,444,0,444,0,1,,,,,
,,669193,001,2023-07-06_12h33.46.500,arm3_ET_builderv2,2022.2.5,MacIntel,120.0048002,right,-1,0.95,0.45,-0.006511244,0.4021,445,0,445,0,1,,,,,
,,669193,001,2023-07-06_12h33.46.500,arm3_ET_builderv2,2022.2.5,MacIntel,120.0048002,right,-1,0.95,0.45,0.019950621,0.3842,446,0,446,0,1,,,,,
,,669193,001,2023-07-06_12h33.46.500,arm3_ET_builderv2,2022.2.5,MacIntel,120.0048002,right,-1,0.95,0.45,0.00132896,0.361,447,0,447,0,1,,,,,
,,669193,001,2023-07-06_12h33.46.500,arm3_ET_builderv2,2022.2.5,MacIntel,120.0048002,right,-1,0.95,0.45,-0.028869867,0.3054,448,0,448,0,1,,,,,
,,669193,001,2023-07-06_12h33.46.500,arm3_ET_builderv2,2022.2.5,MacIntel,120.0048002,right,-1,0.95,0.45,-0.034866382,0.3493,449,0,449,0,1,,,,,
,,669193,001,2023-07-06_12h33.46.500,arm3_ET_builderv2,2022.2.5,MacIntel,120.0048002,,,,,,,,,,,,0,0,0,0,1
,,669193,001,2023-07-06_12h33.46.500,arm3_ET_builderv2,2022.2.5,MacIntel,120.0048002,right,-1,0.55,0.25,-0.045897127,429.2806,0,0,0,0,1,,,,,
,,669193,001,2023-07-06_12h33.46.500,arm3_ET_builderv2,2022.2.5,MacIntel,120.0048002,right,-1,0.55,0.25,-0.051330504,1.9185,1,0,1,0,1,,,,,
,,669193,001,2023-07-06_12h33.46.500,arm3_ET_builderv2,2022.2.5,MacIntel,120.0048002,right,-1,0.55,0.25,-0.068437678,0.3665,2,0,2,0,1,,,,,
,,669193,001,2023-07-06_12h33.46.500,arm3_ET_builderv2,2022.2.5,MacIntel,120.0048002,right,-1,0.55,0.25,-0.064098333,0.3749,3,0,3,0,1,,,,,
,,669193,001,2023-07-06_12h33.46.500,arm3_ET_builderv2,2022.2.5,MacIntel,120.0048002,right,-1,0.55,0.25,-0.082518362,0.3941,4,0,4,0,1,,,,,
,,669193,001,2023-07-06_12h33.46.500,arm3_ET_builderv2,2022.2.5,MacIntel,120.0048002,right,-1,0.55,0.25,-0.085682761,0.4659,5,0,5,0,1,,,,,
,,669193,001,2023-07-06_12h33.46.500,arm3_ET_builderv2,2022.2.5,MacIntel,120.0048002,down,-1,0.55,0.25,0,1.1633,6,0,6,0,1,,,,,
,,669193,001,2023-07-06_12h33.46.500,arm3_ET_builderv2,2022.2.5,MacIntel,120.0048002,right,-1,0.55,0.25,-0.051289828,1.7323,7,0,7,0,1,,,,,
,,669193,001,2023-07-06_12h33.46.500,arm3_ET_builderv2,2022.2.5,MacIntel,120.0048002,right,-1,0.55,0.25,-0.088497426,0.3687,8,0,8,0,1,,,,,
,,669193,001,2023-07-06_12h33.46.500,arm3_ET_builderv2,2022.2.5,MacIntel,120.0048002,down,-1,0.55,0.25,0,0.7154,9,0,9,0,1,,,,,
,,669193,001,2023-07-06_12h33.46.500,arm3_ET_builderv2,2022.2.5,MacIntel,120.0048002,right,-1,0.55,0.25,-0.011280001,1.4301,10,0,10,0,1,,,,,
,,669193,001,2023-07-06_12h33.46.500,arm3_ET_builderv2,2022.2.5,MacIntel,120.0048002,right,-1,0.55,0.25,-0.06317903,0.3199,11,0,11,0,1,,,,,
,,669193,001,2023-07-06_12h33.46.500,arm3_ET_builderv2,2022.2.5,MacIntel,120.0048002,right,-1,0.55,0.25,-0.084667301,0.4878,12,0,12,0,1,,,,,
,,669193,001,2023-07-06_12h33.46.500,arm3_ET_builderv2,2022.2.5,MacIntel,120.0048002,down,-1,0.55,0.25,0,1.3917,13,0,13,0,1,,,,,
,,669193,001,2023-07-06_12h33.46.500,arm3_ET_builderv2,2022.2.5,MacIntel,120.0048002,right,-1,0.55,0.25,0.005152299,1.0606,14,0,14,0,1,,,,,
,,669193,001,2023-07-06_12h33.46.500,arm3_ET_builderv2,2022.2.5,MacIntel,120.0048002,right,-1,0.55,0.25,-0.025256736,0.3157,15,0,15,0,1,,,,,
,,669193,001,2023-07-06_12h33.46.500,arm3_ET_builderv2,2022.2.5,MacIntel,120.0048002,right,-1,0.55,0.25,-0.006829837,0.4145,16,0,16,0,1,,,,,
,,669193,001,2023-07-06_12h33.46.500,arm3_ET_builderv2,2022.2.5,MacIntel,120.0048002,right,-1,0.55,0.25,-0.033022629,0.5617,17,0,17,0,1,,,,,
,,669193,001,2023-07-06_12h33.46.500,arm3_ET_builderv2,2022.2.5,MacIntel,120.0048002,right,-1,0.55,0.25,-0.03590537,0.4067,18,0,18,0,1,,,,,
,,669193,001,2023-07-06_12h33.46.500,arm3_ET_builderv2,2022.2.5,MacIntel,120.0048002,right,-1,0.55,0.25,-0.024738641,0.3836,19,0,19,0,1,,,,,
,,669193,001,2023-07-06_12h33.46.500,arm3_ET_builderv2,2022.2.5,MacIntel,120.0048002,right,-1,0.55,0.25,-0.047746323,0.4898,20,0,20,0,1,,,,,
,,669193,001,2023-07-06_12h33.46.500,arm3_ET_builderv2,2022.2.5,MacIntel,120.0048002,down,-1,0.55,0.25,0,1.1646,21,0,21,0,1,,,,,
,,669193,001,2023-07-06_12h33.46.500,arm3_ET_builderv2,2022.2.5,MacIntel,120.0048002,right,-1,0.55,0.25,-0.02518456,1.083,22,0,22,0,1,,,,,
,,669193,001,2023-07-06_12h33.46.500,arm3_ET_builderv2,2022.2.5,MacIntel,120.0048002,right,-1,0.55,0.25,-0.038070469,0.3752,23,0,23,0,1,,,,,
,,669193,001,2023-07-06_12h33.46.500,arm3_ET_builderv2,2022.2.5,MacIntel,120.0048002,right,-1,0.55,0.25,-0.058074108,0.418,24,0,24,0,1,,,,,
,,669193,001,2023-07-06_12h33.46.500,arm3_ET_builderv2,2022.2.5,MacIntel,120.0048002,right,-1,0.55,0.25,-0.042042292,0.4156,25,0,25,0,1,,,,,
,,669193,001,2023-07-06_12h33.46.500,arm3_ET_builderv2,2022.2.5,MacIntel,120.0048002,right,-1,0.55,0.25,-0.049481672,0.418,26,0,26,0,1,,,,,
,,669193,001,2023-07-06_12h33.46.500,arm3_ET_builderv2,2022.2.5,MacIntel,120.0048002,right,-1,0.55,0.25,-0.040803681,0.4597,27,0,27,0,1,,,,,
,,669193,001,2023-07-06_12h33.46.500,arm3_ET_builderv2,2022.2.5,MacIntel,120.0048002,right,-1,0.55,0.25,-0.056413679,0.4078,28,0,28,0,1,,,,,
,,669193,001,2023-07-06_12h33.46.500,arm3_ET_builderv2,2022.2.5,MacIntel,120.0048002,right,-1,0.55,0.25,-0.040786234,1.8629,29,0,29,0,1,,,,,
,,669193,001,2023-07-06_12h33.46.500,arm3_ET_builderv2,2022.2.5,MacIntel,120.0048002,down,-1,0.55,0.25,0,0.844,30,0,30,0,1,,,,,
,,669193,001,2023-07-06_12h33.46.500,arm3_ET_builderv2,2022.2.5,MacIntel,120.0048002,right,-1,0.55,0.25,0.008399027,0.978,31,0,31,0,1,,,,,
,,669193,001,2023-07-06_12h33.46.500,arm3_ET_builderv2,2022.2.5,MacIntel,120.0048002,right,-1,0.55,0.25,-0.006097706,0.4106,32,0,32,0,1,,,,,
,,669193,001,2023-07-06_12h33.46.500,arm3_ET_builderv2,2022.2.5,MacIntel,120.0048002,right,-1,0.55,0.25,-0.008958772,0.3717,33,0,33,0,1,,,,,
,,669193,001,2023-07-06_12h33.46.500,arm3_ET_builderv2,2022.2.5,MacIntel,120.0048002,right,-1,0.55,0.25,-0.024842334,0.4074,34,0,34,0,1,,,,,
,,669193,001,2023-07-06_12h33.46.500,arm3_ET_builderv2,2022.2.5,MacIntel,120.0048002,right,-1,0.55,0.25,-0.054128796,0.3659,35,0,35,0,1,,,,,
,,669193,001,2023-07-06_12h33.46.500,arm3_ET_builderv2,2022.2.5,MacIntel,120.0048002,right,-1,0.55,0.25,-0.066440296,1.1904,36,0,36,0,1,,,,,
,,669193,001,2023-07-06_12h33.46.500,arm3_ET_builderv2,2022.2.5,MacIntel,120.0048002,down,-1,0.55,0.25,0,84.9505,37,0,37,0,1,,,,,
,,669193,001,2023-07-06_12h33.46.500,arm3_ET_builderv2,2022.2.5,MacIntel,120.0048002,right,-1,0.55,0.25,-0.023199221,2.7468,38,0,38,0,1,,,,,
,,669193,001,2023-07-06_12h33.46.500,arm3_ET_builderv2,2022.2.5,MacIntel,120.0048002,right,-1,0.55,0.25,-0.004907615,0.3675,39,0,39,0,1,,,,,
,,669193,001,2023-07-06_12h33.46.500,arm3_ET_builderv2,2022.2.5,MacIntel,120.0048002,right,-1,0.55,0.25,-0.002972027,0.3179,40,0,40,0,1,,,,,
,,669193,001,2023-07-06_12h33.46.500,arm3_ET_builderv2,2022.2.5,MacIntel,120.0048002,right,-1,0.55,0.25,-0.015196263,0.3444,41,0,41,0,1,,,,,
,,669193,001,2023-07-06_12h33.46.500,arm3_ET_builderv2,2022.2.5,MacIntel,120.0048002,right,-1,0.55,0.25,-0.002816459,0.3313,42,0,42,0,1,,,,,
,,669193,001,2023-07-06_12h33.46.500,arm3_ET_builderv2,2022.2.5,MacIntel,120.0048002,right,-1,0.55,0.25,0.005617,0.3561,43,0,43,0,1,,,,,
,,669193,001,2023-07-06_12h33.46.500,arm3_ET_builderv2,2022.2.5,MacIntel,120.0048002,right,-1,0.55,0.25,0.013270176,0.3415,44,0,44,0,1,,,,,
,,669193,001,2023-07-06_12h33.46.500,arm3_ET_builderv2,2022.2.5,MacIntel,120.0048002,right,-1,0.55,0.25,0.022426132,0.356,45,0,45,0,1,,,,,
,,669193,001,2023-07-06_12h33.46.500,arm3_ET_builderv2,2022.2.5,MacIntel,120.0048002,up,1,0.55,0.25,0,0.7498,46,0,46,0,1,,,,,
,,669193,001,2023-07-06_12h33.46.500,arm3_ET_builderv2,2022.2.5,MacIntel,120.0048002,right,1,0.55,0.25,0.004758757,0.8307,47,0,47,0,1,,,,,
,,669193,001,2023-07-06_12h33.46.500,arm3_ET_builderv2,2022.2.5,MacIntel,120.0048002,right,1,0.55,0.25,0.044950285,0.241,48,0,48,0,1,,,,,
,,669193,001,2023-07-06_12h33.46.500,arm3_ET_builderv2,2022.2.5,MacIntel,120.0048002,right,1,0.55,0.25,0.089866941,0.3744,49,0,49,0,1,,,,,
,,669193,001,2023-07-06_12h33.46.500,arm3_ET_builderv2,2022.2.5,MacIntel,120.0048002,up,1,0.55,0.25,0,1.2239,50,0,50,0,1,,,,,
,,669193,001,2023-07-06_12h33.46.500,arm3_ET_builderv2,2022.2.5,MacIntel,120.0048002,right,1,0.55,0.25,-0.010804162,0.8661,51,0,51,0,1,,,,,
,,669193,001,2023-07-06_12h33.46.500,arm3_ET_builderv2,2022.2.5,MacIntel,120.0048002,right,1,0.55,0.25,-0.006788548,0.2906,52,0,52,0,1,,,,,
,,669193,001,2023-07-06_12h33.46.500,arm3_ET_builderv2,2022.2.5,MacIntel,120.0048002,right,1,0.55,0.25,-0.027151441,0.2108,53,0,53,0,1,,,,,
,,669193,001,2023-07-06_12h33.46.500,arm3_ET_builderv2,2022.2.5,MacIntel,120.0048002,right,1,0.55,0.25,0.014669159,0.3563,54,0,54,0,1,,,,,
,,669193,001,2023-07-06_12h33.46.500,arm3_ET_builderv2,2022.2.5,MacIntel,120.0048002,right,1,0.55,0.25,0.043616943,0.3072,55,0,55,0,1,,,,,
,,669193,001,2023-07-06_12h33.46.500,arm3_ET_builderv2,2022.2.5,MacIntel,120.0048002,right,1,0.55,0.25,0.053049032,0.3904,56,0,56,0,1,,,,,
,,669193,001,2023-07-06_12h33.46.500,arm3_ET_builderv2,2022.2.5,MacIntel,120.0048002,up,1,0.55,0.25,0,0.8579,57,0,57,0,1,,,,,
,,669193,001,2023-07-06_12h33.46.500,arm3_ET_builderv2,2022.2.5,MacIntel,120.0048002,right,1,0.55,0.25,0.040859332,0.7985,58,0,58,0,1,,,,,
,,669193,001,2023-07-06_12h33.46.500,arm3_ET_builderv2,2022.2.5,MacIntel,120.0048002,right,1,0.55,0.25,0.057835878,0.2574,59,0,59,0,1,,,,,
,,669193,001,2023-07-06_12h33.46.500,arm3_ET_builderv2,2022.2.5,MacIntel,120.0048002,right,1,0.55,0.25,0.072760593,0.3026,60,0,60,0,1,,,,,
,,669193,001,2023-07-06_12h33.46.500,arm3_ET_builderv2,2022.2.5,MacIntel,120.0048002,right,1,0.55,0.25,0.079777214,0.4566,61,0,61,0,1,,,,,
,,669193,001,2023-07-06_12h33.46.500,arm3_ET_builderv2,2022.2.5,MacIntel,120.0048002,right,1,0.55,0.25,0.091320236,0.3342,62,0,62,0,1,,,,,
,,669193,001,2023-07-06_12h33.46.500,arm3_ET_builderv2,2022.2.5,MacIntel,120.0048002,up,-1,0.55,0.25,0,0.7762,63,0,63,0,1,,,,,
,,669193,001,2023-07-06_12h33.46.500,arm3_ET_builderv2,2022.2.5,MacIntel,120.0048002,right,-1,0.55,0.25,-0.010245347,0.8147,64,0,64,0,1,,,,,
,,669193,001,2023-07-06_12h33.46.500,arm3_ET_builderv2,2022.2.5,MacIntel,120.0048002,right,-1,0.55,0.25,-0.011017634,0.2334,65,0,65,0,1,,,,,
,,669193,001,2023-07-06_12h33.46.500,arm3_ET_builderv2,2022.2.5,MacIntel,120.0048002,right,-1,0.55,0.25,-0.021018723,0.2386,66,0,66,0,1,,,,,
,,669193,001,2023-07-06_12h33.46.500,arm3_ET_builderv2,2022.2.5,MacIntel,120.0048002,right,-1,0.55,0.25,-0.020963042,0.323,67,0,67,0,1,,,,,
,,669193,001,2023-07-06_12h33.46.500,arm3_ET_builderv2,2022.2.5,MacIntel,120.0048002,right,-1,0.55,0.25,-0.024258644,0.2964,68,0,68,0,1,,,,,
,,669193,001,2023-07-06_12h33.46.500,arm3_ET_builderv2,2022.2.5,MacIntel,120.0048002,right,-1,0.55,0.25,-0.010944723,0.3733,69,0,69,0,1,,,,,
,,669193,001,2023-07-06_12h33.46.500,arm3_ET_builderv2,2022.2.5,MacIntel,120.0048002,right,-1,0.55,0.25,-0.032378448,0.3496,70,0,70,0,1,,,,,
,,669193,001,2023-07-06_12h33.46.500,arm3_ET_builderv2,2022.2.5,MacIntel,120.0048002,right,-1,0.55,0.25,-0.049947046,0.3427,71,0,71,0,1,,,,,
,,669193,001,2023-07-06_12h33.46.500,arm3_ET_builderv2,2022.2.5,MacIntel,120.0048002,down,-1,0.55,0.25,0,0.9062,72,0,72,0,1,,,,,
,,669193,001,2023-07-06_12h33.46.500,arm3_ET_builderv2,2022.2.5,MacIntel,120.0048002,right,-1,0.55,0.25,-0.031488058,0.8272,73,0,73,0,1,,,,,
,,669193,001,2023-07-06_12h33.46.500,arm3_ET_builderv2,2022.2.5,MacIntel,120.0048002,right,-1,0.55,0.25,-0.032243097,0.2044,74,0,74,0,1,,,,,
,,669193,001,2023-07-06_12h33.46.500,arm3_ET_builderv2,2022.2.5,MacIntel,120.0048002,right,-1,0.55,0.25,-0.033561111,0.2496,75,0,75,0,1,,,,,
,,669193,001,2023-07-06_12h33.46.500,arm3_ET_builderv2,2022.2.5,MacIntel,120.0048002,right,-1,0.55,0.25,-0.068785674,0.3447,76,0,76,0,1,,,,,
,,669193,001,2023-07-06_12h33.46.500,arm3_ET_builderv2,2022.2.5,MacIntel,120.0048002,down,1,0.55,0.25,0,0.808,77,0,77,0,1,,,,,
,,669193,001,2023-07-06_12h33.46.500,arm3_ET_builderv2,2022.2.5,MacIntel,120.0048002,right,1,0.55,0.25,0.029673752,1.0051,78,0,78,0,1,,,,,
,,669193,001,2023-07-06_12h33.46.500,arm3_ET_builderv2,2022.2.5,MacIntel,120.0048002,right,1,0.55,0.25,0.031868256,0.2343,79,0,79,0,1,,,,,
,,669193,001,2023-07-06_12h33.46.500,arm3_ET_builderv2,2022.2.5,MacIntel,120.0048002,right,1,0.55,0.25,0.064074719,0.36,80,0,80,0,1,,,,,
,,669193,001,2023-07-06_12h33.46.500,arm3_ET_builderv2,2022.2.5,MacIntel,120.0048002,up,1,0.55,0.25,0,0.6036,81,0,81,0,1,,,,,
,,669193,001,2023-07-06_12h33.46.500,arm3_ET_builderv2,2022.2.5,MacIntel,120.0048002,right,1,0.55,0.25,0.037355139,0.8281,82,0,82,0,1,,,,,
,,669193,001,2023-07-06_12h33.46.500,arm3_ET_builderv2,2022.2.5,MacIntel,120.0048002,right,1,0.55,0.25,0.048264819,0.2514,83,0,83,0,1,,,,,
,,669193,001,2023-07-06_12h33.46.500,arm3_ET_builderv2,2022.2.5,MacIntel,120.0048002,right,1,0.55,0.25,0.070476399,0.2733,84,0,84,0,1,,,,,
,,669193,001,2023-07-06_12h33.46.500,arm3_ET_builderv2,2022.2.5,MacIntel,120.0048002,up,1,0.55,0.25,0,0.7088,85,0,85,0,1,,,,,
,,669193,001,2023-07-06_12h33.46.500,arm3_ET_builderv2,2022.2.5,MacIntel,120.0048002,right,1,0.55,0.25,-0.016120614,0.9802,86,0,86,0,1,,,,,
,,669193,001,2023-07-06_12h33.46.500,arm3_ET_builderv2,2022.2.5,MacIntel,120.0048002,right,1,0.55,0.25,-0.024098344,0.3141,87,0,87,0,1,,,,,
,,669193,001,2023-07-06_12h33.46.500,arm3_ET_builderv2,2022.2.5,MacIntel,120.0048002,right,1,0.55,0.25,-0.006330724,0.3456,88,0,88,0,1,,,,,
,,669193,001,2023-07-06_12h33.46.500,arm3_ET_builderv2,2022.2.5,MacIntel,120.0048002,right,1,0.55,0.25,-0.016125254,0.3927,89,0,89,0,1,,,,,
,,669193,001,2023-07-06_12h33.46.500,arm3_ET_builderv2,2022.2.5,MacIntel,120.0048002,right,1,0.55,0.25,-0.013289721,0.3498,90,0,90,0,1,,,,,
,,669193,001,2023-07-06_12h33.46.500,arm3_ET_builderv2,2022.2.5,MacIntel,120.0048002,right,1,0.55,0.25,0.017415605,0.3563,91,0,91,0,1,,,,,
,,669193,001,2023-07-06_12h33.46.500,arm3_ET_builderv2,2022.2.5,MacIntel,120.0048002,right,1,0.55,0.25,0.045834559,0.3917,92,0,92,0,1,,,,,
,,669193,001,2023-07-06_12h33.46.500,arm3_ET_builderv2,2022.2.5,MacIntel,120.0048002,up,1,0.55,0.25,0,0.8766,93,0,93,0,1,,,,,
,,669193,001,2023-07-06_12h33.46.500,arm3_ET_builderv2,2022.2.5,MacIntel,120.0048002,right,1,0.55,0.25,0.029383597,0.8651,94,0,94,0,1,,,,,
,,669193,001,2023-07-06_12h33.46.500,arm3_ET_builderv2,2022.2.5,MacIntel,120.0048002,right,1,0.55,0.25,0.018219222,0.259,95,0,95,0,1,,,,,
,,669193,001,2023-07-06_12h33.46.500,arm3_ET_builderv2,2022.2.5,MacIntel,120.0048002,right,1,0.55,0.25,0.019489005,0.3345,96,0,96,0,1,,,,,
,,669193,001,2023-07-06_12h33.46.500,arm3_ET_builderv2,2022.2.5,MacIntel,120.0048002,right,1,0.55,0.25,0.01007141,0.2751,97,0,97,0,1,,,,,
,,669193,001,2023-07-06_12h33.46.500,arm3_ET_builderv2,2022.2.5,MacIntel,120.0048002,right,1,0.55,0.25,0.018204587,0.341,98,0,98,0,1,,,,,
,,669193,001,2023-07-06_12h33.46.500,arm3_ET_builderv2,2022.2.5,MacIntel,120.0048002,right,1,0.55,0.25,0.02070354,0.3098,99,0,99,0,1,,,,,
,,669193,001,2023-07-06_12h33.46.500,arm3_ET_builderv2,2022.2.5,MacIntel,120.0048002,right,1,0.55,0.25,0.031033152,0.2498,100,0,100,0,1,,,,,
,,669193,001,2023-07-06_12h33.46.500,arm3_ET_builderv2,2022.2.5,MacIntel,120.0048002,up,1,0.55,0.25,0,1.0491,101,0,101,0,1,,,,,
,,669193,001,2023-07-06_12h33.46.500,arm3_ET_builderv2,2022.2.5,MacIntel,120.0048002,right,1,0.55,0.25,0.01495954,0.9054,102,0,102,0,1,,,,,
,,669193,001,2023-07-06_12h33.46.500,arm3_ET_builderv2,2022.2.5,MacIntel,120.0048002,right,1,0.55,0.25,0.046644326,0.3166,103,0,103,0,1,,,,,
,,669193,001,2023-07-06_12h33.46.500,arm3_ET_builderv2,2022.2.5,MacIntel,120.0048002,right,1,0.55,0.25,0.029021449,0.2517,104,0,104,0,1,,,,,
,,669193,001,2023-07-06_12h33.46.500,arm3_ET_builderv2,2022.2.5,MacIntel,120.0048002,right,1,0.55,0.25,0.030621715,0.4316,105,0,105,0,1,,,,,
,,669193,001,2023-07-06_12h33.46.500,arm3_ET_builderv2,2022.2.5,MacIntel,120.0048002,right,1,0.55,0.25,0.067543821,0.3839,106,0,106,0,1,,,,,
,,669193,001,2023-07-06_12h33.46.500,arm3_ET_builderv2,2022.2.5,MacIntel,120.0048002,up,-1,0.55,0.25,0,1.3403,107,0,107,0,1,,,,,
,,669193,001,2023-07-06_12h33.46.500,arm3_ET_builderv2,2022.2.5,MacIntel,120.0048002,right,-1,0.55,0.25,0.007813148,0.9151,108,0,108,0,1,,,,,
,,669193,001,2023-07-06_12h33.46.500,arm3_ET_builderv2,2022.2.5,MacIntel,120.0048002,right,-1,0.55,0.25,0.024612503,0.2657,109,0,109,0,1,,,,,
,,669193,001,2023-07-06_12h33.46.500,arm3_ET_builderv2,2022.2.5,MacIntel,120.0048002,right,-1,0.55,0.25,0.004810247,0.2502,110,0,110,0,1,,,,,
,,669193,001,2023-07-06_12h33.46.500,arm3_ET_builderv2,2022.2.5,MacIntel,120.0048002,right,-1,0.55,0.25,-0.015733344,0.4567,111,0,111,0,1,,,,,
,,669193,001,2023-07-06_12h33.46.500,arm3_ET_builderv2,2022.2.5,MacIntel,120.0048002,right,-1,0.55,0.25,-0.024905846,0.3748,112,0,112,0,1,,,,,
,,669193,001,2023-07-06_12h33.46.500,arm3_ET_builderv2,2022.2.5,MacIntel,120.0048002,right,-1,0.55,0.25,-0.033425927,0.5573,113,0,113,0,1,,,,,
,,669193,001,2023-07-06_12h33.46.500,arm3_ET_builderv2,2022.2.5,MacIntel,120.0048002,right,-1,0.55,0.25,-0.027638947,0.8409,114,0,114,0,1,,,,,
,,669193,001,2023-07-06_12h33.46.500,arm3_ET_builderv2,2022.2.5,MacIntel,120.0048002,down,-1,0.55,0.25,0,1.7187,115,0,115,0,1,,,,,
,,669193,001,2023-07-06_12h33.46.500,arm3_ET_builderv2,2022.2.5,MacIntel,120.0048002,right,-1,0.55,0.25,-0.047641701,0.895,116,0,116,0,1,,,,,
,,669193,001,2023-07-06_12h33.46.500,arm3_ET_builderv2,2022.2.5,MacIntel,120.0048002,right,-1,0.55,0.25,-0.06299158,0.3656,117,0,117,0,1,,,,,
,,669193,001,2023-07-06_12h33.46.500,arm3_ET_builderv2,2022.2.5,MacIntel,120.0048002,right,-1,0.55,0.25,-0.067551102,0.3674,118,0,118,0,1,,,,,
,,669193,001,2023-07-06_12h33.46.500,arm3_ET_builderv2,2022.2.5,MacIntel,120.0048002,down,-1,0.55,0.25,0,1.7332,119,0,119,0,1,,,,,
,,669193,001,2023-07-06_12h33.46.500,arm3_ET_builderv2,2022.2.5,MacIntel,120.0048002,right,-1,0.55,0.25,-0.016422672,0.8243,120,0,120,0,1,,,,,
,,669193,001,2023-07-06_12h33.46.500,arm3_ET_builderv2,2022.2.5,MacIntel,120.0048002,right,-1,0.55,0.25,-0.044512315,0.2937,121,0,121,0,1,,,,,
,,669193,001,2023-07-06_12h33.46.500,arm3_ET_builderv2,2022.2.5,MacIntel,120.0048002,right,-1,0.55,0.25,-0.041934797,0.3075,122,0,122,0,1,,,,,
,,669193,001,2023-07-06_12h33.46.500,arm3_ET_builderv2,2022.2.5,MacIntel,120.0048002,right,-1,0.55,0.25,-0.065042414,0.3346,123,0,123,0,1,,,,,
,,669193,001,2023-07-06_12h33.46.500,arm3_ET_builderv2,2022.2.5,MacIntel,120.0048002,right,-1,0.55,0.25,-0.061653707,1.3501,124,0,124,0,1,,,,,
,,669193,001,2023-07-06_12h33.46.500,arm3_ET_builderv2,2022.2.5,MacIntel,120.0048002,down,-1,0.55,0.25,0,0.6409,125,0,125,0,1,,,,,
,,669193,001,2023-07-06_12h33.46.500,arm3_ET_builderv2,2022.2.5,MacIntel,120.0048002,right,-1,0.55,0.25,-0.037050581,0.944,126,0,126,0,1,,,,,
,,669193,001,2023-07-06_12h33.46.500,arm3_ET_builderv2,2022.2.5,MacIntel,120.0048002,right,-1,0.55,0.25,-0.06207264,0.334,127,0,127,0,1,,,,,
,,669193,001,2023-07-06_12h33.46.500,arm3_ET_builderv2,2022.2.5,MacIntel,120.0048002,right,-1,0.55,0.25,-0.049775889,0.349,128,0,128,0,1,,,,,
,,669193,001,2023-07-06_12h33.46.500,arm3_ET_builderv2,2022.2.5,MacIntel,120.0048002,right,-1,0.55,0.25,-0.073716603,0.3391,129,0,129,0,1,,,,,
,,669193,001,2023-07-06_12h33.46.500,arm3_ET_builderv2,2022.2.5,MacIntel,120.0048002,right,-1,0.55,0.25,-0.052730877,0.3413,130,0,130,0,1,,,,,
,,669193,001,2023-07-06_12h33.46.500,arm3_ET_builderv2,2022.2.5,MacIntel,120.0048002,right,-1,0.55,0.25,-0.071628752,0.4262,131,0,131,0,1,,,,,
,,669193,001,2023-07-06_12h33.46.500,arm3_ET_builderv2,2022.2.5,MacIntel,120.0048002,down,-1,0.55,0.25,0,0.8472,132,0,132,0,1,,,,,
,,669193,001,2023-07-06_12h33.46.500,arm3_ET_builderv2,2022.2.5,MacIntel,120.0048002,right,-1,0.55,0.25,-0.00071486,1.0563,133,0,133,0,1,,,,,
,,669193,001,2023-07-06_12h33.46.500,arm3_ET_builderv2,2022.2.5,MacIntel,120.0048002,right,-1,0.55,0.25,-0.013288756,0.3129,134,0,134,0,1,,,,,
,,669193,001,2023-07-06_12h33.46.500,arm3_ET_builderv2,2022.2.5,MacIntel,120.0048002,right,-1,0.55,0.25,-0.017525783,0.2663,135,0,135,0,1,,,,,
,,669193,001,2023-07-06_12h33.46.500,arm3_ET_builderv2,2022.2.5,MacIntel,120.0048002,right,-1,0.55,0.25,-0.025636738,0.2741,136,0,136,0,1,,,,,
,,669193,001,2023-07-06_12h33.46.500,arm3_ET_builderv2,2022.2.5,MacIntel,120.0048002,right,-1,0.55,0.25,-0.035988822,0.3843,137,0,137,0,1,,,,,
,,669193,001,2023-07-06_12h33.46.500,arm3_ET_builderv2,2022.2.5,MacIntel,120.0048002,right,-1,0.55,0.25,-0.05518102,0.3078,138,0,138,0,1,,,,,
,,669193,001,2023-07-06_12h33.46.500,arm3_ET_builderv2,2022.2.5,MacIntel,120.0048002,down,1,0.55,0.25,0,1.2532,139,0,139,0,1,,,,,
,,669193,001,2023-07-06_12h33.46.500,arm3_ET_builderv2,2022.2.5,MacIntel,120.0048002,right,1,0.55,0.25,-0.022080787,0.8734,140,0,140,0,1,,,,,
,,669193,001,2023-07-06_12h33.46.500,arm3_ET_builderv2,2022.2.5,MacIntel,120.0048002,right,1,0.55,0.25,-0.003370541,0.261,141,0,141,0,1,,,,,
,,669193,001,2023-07-06_12h33.46.500,arm3_ET_builderv2,2022.2.5,MacIntel,120.0048002,right,1,0.55,0.25,-0.016485086,0.2464,142,0,142,0,1,,,,,
,,669193,001,2023-07-06_12h33.46.500,arm3_ET_builderv2,2022.2.5,MacIntel,120.0048002,right,1,0.55,0.25,-0.012003933,0.2667,143,0,143,0,1,,,,,
,,669193,001,2023-07-06_12h33.46.500,arm3_ET_builderv2,2022.2.5,MacIntel,120.0048002,right,1,0.55,0.25,-0.018646054,0.2359,144,0,144,0,1,,,,,
,,669193,001,2023-07-06_12h33.46.500,arm3_ET_builderv2,2022.2.5,MacIntel,120.0048002,right,1,0.55,0.25,-0.00558751,0.3841,145,0,145,0,1,,,,,
,,669193,001,2023-07-06_12h33.46.500,arm3_ET_builderv2,2022.2.5,MacIntel,120.0048002,right,1,0.55,0.25,0.01352013,0.4268,146,0,146,0,1,,,,,
,,669193,001,2023-07-06_12h33.46.500,arm3_ET_builderv2,2022.2.5,MacIntel,120.0048002,right,1,0.55,0.25,0.041131705,0.3138,147,0,147,0,1,,,,,
,,669193,001,2023-07-06_12h33.46.500,arm3_ET_builderv2,2022.2.5,MacIntel,120.0048002,up,1,0.55,0.25,0,1.3338,148,0,148,0,1,,,,,
,,669193,001,2023-07-06_12h33.46.500,arm3_ET_builderv2,2022.2.5,MacIntel,120.0048002,right,1,0.55,0.25,0.010065724,0.833,149,0,149,0,1,,,,,
,,669193,001,2023-07-06_12h33.46.500,arm3_ET_builderv2,2022.2.5,MacIntel,120.0048002,right,1,0.55,0.25,-0.005389593,0.2639,150,0,150,0,1,,,,,
,,669193,001,2023-07-06_12h33.46.500,arm3_ET_builderv2,2022.2.5,MacIntel,120.0048002,right,1,0.55,0.25,-0.008915704,0.3658,151,0,151,0,1,,,,,
,,669193,001,2023-07-06_12h33.46.500,arm3_ET_builderv2,2022.2.5,MacIntel,120.0048002,right,1,0.55,0.25,-0.02618604,0.2558,152,0,152,0,1,,,,,
,,669193,001,2023-07-06_12h33.46.500,arm3_ET_builderv2,2022.2.5,MacIntel,120.0048002,right,1,0.55,0.25,-0.030934522,0.2243,153,0,153,0,1,,,,,
,,669193,001,2023-07-06_12h33.46.500,arm3_ET_builderv2,2022.2.5,MacIntel,120.0048002,right,1,0.55,0.25,0.008982478,0.3707,154,0,154,0,1,,,,,
,,669193,001,2023-07-06_12h33.46.500,arm3_ET_builderv2,2022.2.5,MacIntel,120.0048002,right,1,0.55,0.25,0.051990056,0.3062,155,0,155,0,1,,,,,
,,669193,001,2023-07-06_12h33.46.500,arm3_ET_builderv2,2022.2.5,MacIntel,120.0048002,up,-1,0.55,0.25,0,1.0923,156,0,156,0,1,,,,,
,,669193,001,2023-07-06_12h33.46.500,arm3_ET_builderv2,2022.2.5,MacIntel,120.0048002,right,-1,0.55,0.25,0.010355725,0.7972,157,0,157,0,1,,,,,
,,669193,001,2023-07-06_12h33.46.500,arm3_ET_builderv2,2022.2.5,MacIntel,120.0048002,right,-1,0.55,0.25,0.02095835,0.2203,158,0,158,0,1,,,,,
,,669193,001,2023-07-06_12h33.46.500,arm3_ET_builderv2,2022.2.5,MacIntel,120.0048002,right,-1,0.55,0.25,-0.018486946,0.1807,159,0,159,0,1,,,,,
,,669193,001,2023-07-06_12h33.46.500,arm3_ET_builderv2,2022.2.5,MacIntel,120.0048002,right,-1,0.55,0.25,-0.045541639,0.2349,160,0,160,0,1,,,,,
,,669193,001,2023-07-06_12h33.46.500,arm3_ET_builderv2,2022.2.5,MacIntel,120.0048002,down,-1,0.55,0.25,0,1.8431,161,0,161,0,1,,,,,
,,669193,001,2023-07-06_12h33.46.500,arm3_ET_builderv2,2022.2.5,MacIntel,120.0048002,right,-1,0.55,0.25,-0.02218589,0.7959,162,0,162,0,1,,,,,
,,669193,001,2023-07-06_12h33.46.500,arm3_ET_builderv2,2022.2.5,MacIntel,120.0048002,right,-1,0.55,0.25,-0.015666435,0.1761,163,0,163,0,1,,,,,
,,669193,001,2023-07-06_12h33.46.500,arm3_ET_builderv2,2022.2.5,MacIntel,120.0048002,right,-1,0.55,0.25,-0.028053148,0.1759,164,0,164,0,1,,,,,
,,669193,001,2023-07-06_12h33.46.500,arm3_ET_builderv2,2022.2.5,MacIntel,120.0048002,right,-1,0.55,0.25,-0.005358629,0.1691,165,0,165,0,1,,,,,
,,669193,001,2023-07-06_12h33.46.500,arm3_ET_builderv2,2022.2.5,MacIntel,120.0048002,right,-1,0.55,0.25,-0.002734889,0.4326,166,0,166,0,1,,,,,
,,669193,001,2023-07-06_12h33.46.500,arm3_ET_builderv2,2022.2.5,MacIntel,120.0048002,right,-1,0.55,0.25,-0.018857644,0.34,167,0,167,0,1,,,,,
,,669193,001,2023-07-06_12h33.46.500,arm3_ET_builderv2,2022.2.5,MacIntel,120.0048002,right,-1,0.55,0.25,-0.021389027,0.3533,168,0,168,0,1,,,,,
,,669193,001,2023-07-06_12h33.46.500,arm3_ET_builderv2,2022.2.5,MacIntel,120.0048002,right,-1,0.55,0.25,-0.035258136,0.3994,169,0,169,0,1,,,,,
,,669193,001,2023-07-06_12h33.46.500,arm3_ET_builderv2,2022.2.5,MacIntel,120.0048002,down,-1,0.55,0.25,0,1.6263,170,0,170,0,1,,,,,
,,669193,001,2023-07-06_12h33.46.500,arm3_ET_builderv2,2022.2.5,MacIntel,120.0048002,right,-1,0.55,0.25,-0.006953445,0.7967,171,0,171,0,1,,,,,
,,669193,001,2023-07-06_12h33.46.500,arm3_ET_builderv2,2022.2.5,MacIntel,120.0048002,right,-1,0.55,0.25,0.011749034,0.2077,172,0,172,0,1,,,,,
,,669193,001,2023-07-06_12h33.46.500,arm3_ET_builderv2,2022.2.5,MacIntel,120.0048002,right,-1,0.55,0.25,0.008538364,0.1906,173,0,173,0,1,,,,,
,,669193,001,2023-07-06_12h33.46.500,arm3_ET_builderv2,2022.2.5,MacIntel,120.0048002,right,-1,0.55,0.25,-0.001861434,0.1819,174,0,174,0,1,,,,,
,,669193,001,2023-07-06_12h33.46.500,arm3_ET_builderv2,2022.2.5,MacIntel,120.0048002,right,-1,0.55,0.25,0.001185585,0.369,175,0,175,0,1,,,,,
,,669193,001,2023-07-06_12h33.46.500,arm3_ET_builderv2,2022.2.5,MacIntel,120.0048002,right,-1,0.55,0.25,0.010506037,0.3209,176,0,176,0,1,,,,,
,,669193,001,2023-07-06_12h33.46.500,arm3_ET_builderv2,2022.2.5,MacIntel,120.0048002,right,-1,0.55,0.25,-0.01216127,0.3057,177,0,177,0,1,,,,,
,,669193,001,2023-07-06_12h33.46.500,arm3_ET_builderv2,2022.2.5,MacIntel,120.0048002,right,-1,0.55,0.25,-0.026678207,0.3418,178,0,178,0,1,,,,,
,,669193,001,2023-07-06_12h33.46.500,arm3_ET_builderv2,2022.2.5,MacIntel,120.0048002,right,-1,0.55,0.25,-0.045696192,0.391,179,0,179,0,1,,,,,
,,669193,001,2023-07-06_12h33.46.500,arm3_ET_builderv2,2022.2.5,MacIntel,120.0048002,down,-1,0.55,0.25,0,0.6711,180,0,180,0,1,,,,,
,,669193,001,2023-07-06_12h33.46.500,arm3_ET_builderv2,2022.2.5,MacIntel,120.0048002,right,-1,0.55,0.25,-0.001076938,0.7978,181,0,181,0,1,,,,,
,,669193,001,2023-07-06_12h33.46.500,arm3_ET_builderv2,2022.2.5,MacIntel,120.0048002,right,-1,0.55,0.25,-0.039938873,0.2079,182,0,182,0,1,,,,,
,,669193,001,2023-07-06_12h33.46.500,arm3_ET_builderv2,2022.2.5,MacIntel,120.0048002,right,-1,0.55,0.25,-0.068423581,0.149,183,0,183,0,1,,,,,
,,669193,001,2023-07-06_12h33.46.500,arm3_ET_builderv2,2022.2.5,MacIntel,120.0048002,right,-1,0.55,0.25,-0.091754257,0.4014,184,0,184,0,1,,,,,
,,669193,001,2023-07-06_12h33.46.500,arm3_ET_builderv2,2022.2.5,MacIntel,120.0048002,down,1,0.55,0.25,0,0.6107,185,0,185,0,1,,,,,
,,669193,001,2023-07-06_12h33.46.500,arm3_ET_builderv2,2022.2.5,MacIntel,120.0048002,right,1,0.55,0.25,0.004028892,0.7786,186,0,186,0,1,,,,,
,,669193,001,2023-07-06_12h33.46.500,arm3_ET_builderv2,2022.2.5,MacIntel,120.0048002,right,1,0.55,0.25,0.009649475,0.1976,187,0,187,0,1,,,,,
,,669193,001,2023-07-06_12h33.46.500,arm3_ET_builderv2,2022.2.5,MacIntel,120.0048002,right,1,0.55,0.25,0.029311262,0.1916,188,0,188,0,1,,,,,
,,669193,001,2023-07-06_12h33.46.500,arm3_ET_builderv2,2022.2.5,MacIntel,120.0048002,right,1,0.55,0.25,0.029755295,0.1836,189,0,189,0,1,,,,,
,,669193,001,2023-07-06_12h33.46.500,arm3_ET_builderv2,2022.2.5,MacIntel,120.0048002,right,1,0.55,0.25,0.057497317,0.3978,190,0,190,0,1,,,,,
,,669193,001,2023-07-06_12h33.46.500,arm3_ET_builderv2,2022.2.5,MacIntel,120.0048002,up,1,0.55,0.25,0,1.928,191,0,191,0,1,,,,,
,,669193,001,2023-07-06_12h33.46.500,arm3_ET_builderv2,2022.2.5,MacIntel,120.0048002,right,1,0.55,0.25,0.023269567,0.7567,192,0,192,0,1,,,,,
,,669193,001,2023-07-06_12h33.46.500,arm3_ET_builderv2,2022.2.5,MacIntel,120.0048002,right,1,0.55,0.25,0.015724206,0.1835,193,0,193,0,1,,,,,
,,669193,001,2023-07-06_12h33.46.500,arm3_ET_builderv2,2022.2.5,MacIntel,120.0048002,right,1,0.55,0.25,-0.006502798,0.1531,194,0,194,0,1,,,,,
,,669193,001,2023-07-06_12h33.46.500,arm3_ET_builderv2,2022.2.5,MacIntel,120.0048002,right,1,0.55,0.25,0.048964787,0.1849,195,0,195,0,1,,,,,
,,669193,001,2023-07-06_12h33.46.500,arm3_ET_builderv2,2022.2.5,MacIntel,120.0048002,right,1,0.55,0.25,0.042868357,0.3923,196,0,196,0,1,,,,,
,,669193,001,2023-07-06_12h33.46.500,arm3_ET_builderv2,2022.2.5,MacIntel,120.0048002,right,1,0.55,0.25,0.024978777,0.3306,197,0,197,0,1,,,,,
,,669193,001,2023-07-06_12h33.46.500,arm3_ET_builderv2,2022.2.5,MacIntel,120.0048002,right,1,0.55,0.25,0.041928344,0.3426,198,0,198,0,1,,,,,
,,669193,001,2023-07-06_12h33.46.500,arm3_ET_builderv2,2022.2.5,MacIntel,120.0048002,right,1,0.55,0.25,0.046398291,0.3265,199,0,199,0,1,,,,,
,,669193,001,2023-07-06_12h33.46.500,arm3_ET_builderv2,2022.2.5,MacIntel,120.0048002,right,1,0.55,0.25,0.03667954,0.4311,200,0,200,0,1,,,,,
,,669193,001,2023-07-06_12h33.46.500,arm3_ET_builderv2,2022.2.5,MacIntel,120.0048002,up,1,0.55,0.25,0,0.8086,201,0,201,0,1,,,,,
,,669193,001,2023-07-06_12h33.46.500,arm3_ET_builderv2,2022.2.5,MacIntel,120.0048002,right,1,0.55,0.25,-0.005168172,1.2963,202,0,202,0,1,,,,,
,,669193,001,2023-07-06_12h33.46.500,arm3_ET_builderv2,2022.2.5,MacIntel,120.0048002,right,1,0.55,0.25,-0.023358341,0.2358,203,0,203,0,1,,,,,
,,669193,001,2023-07-06_12h33.46.500,arm3_ET_builderv2,2022.2.5,MacIntel,120.0048002,right,1,0.55,0.25,-0.03952111,0.2306,204,0,204,0,1,,,,,
,,669193,001,2023-07-06_12h33.46.500,arm3_ET_builderv2,2022.2.5,MacIntel,120.0048002,right,1,0.55,0.25,-0.046936107,0.251,205,0,205,0,1,,,,,
,,669193,001,2023-07-06_12h33.46.500,arm3_ET_builderv2,2022.2.5,MacIntel,120.0048002,right,1,0.55,0.25,-0.060272477,0.3671,206,0,206,0,1,,,,,
,,669193,001,2023-07-06_12h33.46.500,arm3_ET_builderv2,2022.2.5,MacIntel,120.0048002,right,1,0.55,0.25,-0.050253647,0.9603,207,0,207,0,1,,,,,
,,669193,001,2023-07-06_12h33.46.500,arm3_ET_builderv2,2022.2.5,MacIntel,120.0048002,right,1,0.55,0.25,-0.027178327,0.4502,208,0,208,0,1,,,,,
,,669193,001,2023-07-06_12h33.46.500,arm3_ET_builderv2,2022.2.5,MacIntel,120.0048002,right,1,0.55,0.25,-0.029836215,0.4276,209,0,209,0,1,,,,,
,,669193,001,2023-07-06_12h33.46.500,arm3_ET_builderv2,2022.2.5,MacIntel,120.0048002,right,1,0.55,0.25,-0.004020618,0.4419,210,0,210,0,1,,,,,
,,669193,001,2023-07-06_12h33.46.500,arm3_ET_builderv2,2022.2.5,MacIntel,120.0048002,right,1,0.55,0.25,-0.007366712,0.7895,211,0,211,0,1,,,,,
,,669193,001,2023-07-06_12h33.46.500,arm3_ET_builderv2,2022.2.5,MacIntel,120.0048002,right,1,0.55,0.25,-0.008317987,0.4768,212,0,212,0,1,,,,,
,,669193,001,2023-07-06_12h33.46.500,arm3_ET_builderv2,2022.2.5,MacIntel,120.0048002,down,1,0.55,0.25,0,12.2328,213,0,213,0,1,,,,,
,,669193,001,2023-07-06_12h33.46.500,arm3_ET_builderv2,2022.2.5,MacIntel,120.0048002,right,1,0.55,0.25,0.017675427,0.9061,214,0,214,0,1,,,,,
,,669193,001,2023-07-06_12h33.46.500,arm3_ET_builderv2,2022.2.5,MacIntel,120.0048002,right,1,0.55,0.25,0.052713968,0.2827,215,0,215,0,1,,,,,
,,669193,001,2023-07-06_12h33.46.500,arm3_ET_builderv2,2022.2.5,MacIntel,120.0048002,right,1,0.55,0.25,0.044903834,0.2469,216,0,216,0,1,,,,,
,,669193,001,2023-07-06_12h33.46.500,arm3_ET_builderv2,2022.2.5,MacIntel,120.0048002,right,1,0.55,0.25,0.053778785,0.2729,217,0,217,0,1,,,,,
,,669193,001,2023-07-06_12h33.46.500,arm3_ET_builderv2,2022.2.5,MacIntel,120.0048002,right,1,0.55,0.25,0.071342592,0.3696,218,0,218,0,1,,,,,
,,669193,001,2023-07-06_12h33.46.500,arm3_ET_builderv2,2022.2.5,MacIntel,120.0048002,up,-1,0.55,0.25,0,1.6754,219,0,219,0,1,,,,,
,,669193,001,2023-07-06_12h33.46.500,arm3_ET_builderv2,2022.2.5,MacIntel,120.0048002,right,-1,0.55,0.25,-0.041616077,0.8583,220,0,220,0,1,,,,,
,,669193,001,2023-07-06_12h33.46.500,arm3_ET_builderv2,2022.2.5,MacIntel,120.0048002,right,-1,0.55,0.25,-0.039944793,0.2766,221,0,221,0,1,,,,,
,,669193,001,2023-07-06_12h33.46.500,arm3_ET_builderv2,2022.2.5,MacIntel,120.0048002,right,-1,0.55,0.25,-0.069926568,0.259,222,0,222,0,1,,,,,
,,669193,001,2023-07-06_12h33.46.500,arm3_ET_builderv2,2022.2.5,MacIntel,120.0048002,right,-1,0.55,0.25,-0.061667283,0.3718,223,0,223,0,1,,,,,
,,669193,001,2023-07-06_12h33.46.500,arm3_ET_builderv2,2022.2.5,MacIntel,120.0048002,right,-1,0.55,0.25,-0.085670988,0.2581,224,0,224,0,1,,,,,
,,669193,001,2023-07-06_12h33.46.500,arm3_ET_builderv2,2022.2.5,MacIntel,120.0048002,down,-1,0.55,0.25,0,0.7258,225,0,225,0,1,,,,,
,,669193,001,2023-07-06_12h33.46.500,arm3_ET_builderv2,2022.2.5,MacIntel,120.0048002,right,-1,0.55,0.25,-0.001589966,0.8696,226,0,226,0,1,,,,,
,,669193,001,2023-07-06_12h33.46.500,arm3_ET_builderv2,2022.2.5,MacIntel,120.0048002,right,-1,0.55,0.25,-0.029989504,0.2445,227,0,227,0,1,,,,,
,,669193,001,2023-07-06_12h33.46.500,arm3_ET_builderv2,2022.2.5,MacIntel,120.0048002,right,-1,0.55,0.25,-0.011466384,0.1738,228,0,228,0,1,,,,,
,,669193,001,2023-07-06_12h33.46.500,arm3_ET_builderv2,2022.2.5,MacIntel,120.0048002,right,-1,0.55,0.25,0.007287932,0.2245,229,0,229,0,1,,,,,
,,669193,001,2023-07-06_12h33.46.500,arm3_ET_builderv2,2022.2.5,MacIntel,120.0048002,right,-1,0.55,0.25,-0.024059107,0.3729,230,0,230,0,1,,,,,
,,669193,001,2023-07-06_12h33.46.500,arm3_ET_builderv2,2022.2.5,MacIntel,120.0048002,right,-1,0.55,0.25,-0.021036876,0.3293,231,0,231,0,1,,,,,
,,669193,001,2023-07-06_12h33.46.500,arm3_ET_builderv2,2022.2.5,MacIntel,120.0048002,right,-1,0.55,0.25,-0.032650889,0.3106,232,0,232,0,1,,,,,
,,669193,001,2023-07-06_12h33.46.500,arm3_ET_builderv2,2022.2.5,MacIntel,120.0048002,right,-1,0.55,0.25,-0.033126463,0.4149,233,0,233,0,1,,,,,
,,669193,001,2023-07-06_12h33.46.500,arm3_ET_builderv2,2022.2.5,MacIntel,120.0048002,right,-1,0.55,0.25,-0.01333696,0.453,234,0,234,0,1,,,,,
,,669193,001,2023-07-06_12h33.46.500,arm3_ET_builderv2,2022.2.5,MacIntel,120.0048002,right,-1,0.55,0.25,-0.002157505,0.4143,235,0,235,0,1,,,,,
,,669193,001,2023-07-06_12h33.46.500,arm3_ET_builderv2,2022.2.5,MacIntel,120.0048002,right,-1,0.55,0.25,0.00512291,1.4824,236,0,236,0,1,,,,,
,,669193,001,2023-07-06_12h33.46.500,arm3_ET_builderv2,2022.2.5,MacIntel,120.0048002,right,-1,0.55,0.25,-0.000367967,5.2045,237,0,237,0,1,,,,,
,,669193,001,2023-07-06_12h33.46.500,arm3_ET_builderv2,2022.2.5,MacIntel,120.0048002,down,-1,0.55,0.25,0,1.4135,238,0,238,0,1,,,,,
,,669193,001,2023-07-06_12h33.46.500,arm3_ET_builderv2,2022.2.5,MacIntel,120.0048002,right,-1,0.55,0.25,-0.022987486,1.3597,239,0,239,0,1,,,,,
,,669193,001,2023-07-06_12h33.46.500,arm3_ET_builderv2,2022.2.5,MacIntel,120.0048002,right,-1,0.55,0.25,-0.065416002,0.3414,240,0,240,0,1,,,,,
,,669193,001,2023-07-06_12h33.46.500,arm3_ET_builderv2,2022.2.5,MacIntel,120.0048002,right,-1,0.55,0.25,-0.074813857,0.2512,241,0,241,0,1,,,,,
,,669193,001,2023-07-06_12h33.46.500,arm3_ET_builderv2,2022.2.5,MacIntel,120.0048002,right,-1,0.55,0.25,-0.105374804,0.266,242,0,242,0,1,,,,,
,,669193,001,2023-07-06_12h33.46.500,arm3_ET_builderv2,2022.2.5,MacIntel,120.0048002,right,-1,0.55,0.25,-0.133311315,0.3575,243,0,243,0,1,,,,,
,,669193,001,2023-07-06_12h33.46.500,arm3_ET_builderv2,2022.2.5,MacIntel,120.0048002,down,-1,0.55,0.25,0,0.611,244,0,244,0,1,,,,,
,,669193,001,2023-07-06_12h33.46.500,arm3_ET_builderv2,2022.2.5,MacIntel,120.0048002,right,-1,0.55,0.25,0.009147395,0.8861,245,0,245,0,1,,,,,
,,669193,001,2023-07-06_12h33.46.500,arm3_ET_builderv2,2022.2.5,MacIntel,120.0048002,right,-1,0.55,0.25,0.00121025,0.5146,246,0,246,0,1,,,,,
,,669193,001,2023-07-06_12h33.46.500,arm3_ET_builderv2,2022.2.5,MacIntel,120.0048002,right,-1,0.55,0.25,-0.035383566,0.3161,247,0,247,0,1,,,,,
,,669193,001,2023-07-06_12h33.46.500,arm3_ET_builderv2,2022.2.5,MacIntel,120.0048002,down,-1,0.55,0.25,0,0.8143,248,0,248,0,1,,,,,
,,669193,001,2023-07-06_12h33.46.500,arm3_ET_builderv2,2022.2.5,MacIntel,120.0048002,right,-1,0.55,0.25,-0.0199348,0.8071,249,0,249,0,1,,,,,
,,669193,001,2023-07-06_12h33.46.500,arm3_ET_builderv2,2022.2.5,MacIntel,120.0048002,right,-1,0.55,0.25,-0.028378452,0.2812,250,0,250,0,1,,,,,
,,669193,001,2023-07-06_12h33.46.500,arm3_ET_builderv2,2022.2.5,MacIntel,120.0048002,right,-1,0.55,0.25,-0.035808792,0.3247,251,0,251,0,1,,,,,
,,669193,001,2023-07-06_12h33.46.500,arm3_ET_builderv2,2022.2.5,MacIntel,120.0048002,right,-1,0.55,0.25,-0.053298453,0.2998,252,0,252,0,1,,,,,
,,669193,001,2023-07-06_12h33.46.500,arm3_ET_builderv2,2022.2.5,MacIntel,120.0048002,down,1,0.55,0.25,0,0.493,253,0,253,0,1,,,,,
,,669193,001,2023-07-06_12h33.46.500,arm3_ET_builderv2,2022.2.5,MacIntel,120.0048002,right,1,0.55,0.25,0.02048728,0.8172,254,0,254,0,1,,,,,
,,669193,001,2023-07-06_12h33.46.500,arm3_ET_builderv2,2022.2.5,MacIntel,120.0048002,right,1,0.55,0.25,0.057272621,0.2917,255,0,255,0,1,,,,,
,,669193,001,2023-07-06_12h33.46.500,arm3_ET_builderv2,2022.2.5,MacIntel,120.0048002,right,1,0.55,0.25,0.083623057,0.2697,256,0,256,0,1,,,,,
,,669193,001,2023-07-06_12h33.46.500,arm3_ET_builderv2,2022.2.5,MacIntel,120.0048002,right,1,0.55,0.25,0.103748784,0.2537,257,0,257,0,1,,,,,
,,669193,001,2023-07-06_12h33.46.500,arm3_ET_builderv2,2022.2.5,MacIntel,120.0048002,up,1,0.55,0.25,0,2.6341,258,0,258,0,1,,,,,
,,669193,001,2023-07-06_12h33.46.500,arm3_ET_builderv2,2022.2.5,MacIntel,120.0048002,right,1,0.55,0.25,0.024472296,0.8665,259,0,259,0,1,,,,,
