space_bar.keys,space_bar.rt,participant,session,date,expName,psychopyVersion,OS,frameRate,PROLIFIC_PID,STUDY_ID,SESSION_ID,resp.keys,state,q_prob,eps_prob,score,price,resp.rt,train.thisRepN,train.thisTrialN,train.thisN,train.thisIndex,train.ran,steps.thisRepN,steps.thisTrialN,steps.thisN,steps.thisIndex,steps.ran,blocks.thisRepN,blocks.thisTrialN,blocks.thisN,blocks.thisIndex,blocks.ran
space,167.38,258866,001,2023-07-31_09h18.44.912,arm3_q,2022.2.5,Win32,62.5,5e5c993cd0394c474f7cc502,64c5699dae067f1f1081742c,64c7d074ea2da31575eb90b6,,,,,,,,,,,,,,,,,,,,,,
space,2.028,258866,001,2023-07-31_09h18.44.912,arm3_q,2022.2.5,Win32,62.5,5e5c993cd0394c474f7cc502,64c5699dae067f1f1081742c,64c7d074ea2da31575eb90b6,,,,,,,,,,,,,,,,,,,,,,
space,14.642,258866,001,2023-07-31_09h18.44.912,arm3_q,2022.2.5,Win32,62.5,5e5c993cd0394c474f7cc502,64c5699dae067f1f1081742c,64c7d074ea2da31575eb90b6,,,,,,,,,,,,,,,,,,,,,,
space,16.123,258866,001,2023-07-31_09h18.44.912,arm3_q,2022.2.5,Win32,62.5,5e5c993cd0394c474f7cc502,64c5699dae067f1f1081742c,64c7d074ea2da31575eb90b6,,,,,,,,,,,,,,,,,,,,,,
space,6.629,258866,001,2023-07-31_09h18.44.912,arm3_q,2022.2.5,Win32,62.5,5e5c993cd0394c474f7cc502,64c5699dae067f1f1081742c,64c7d074ea2da31575eb90b6,,,,,,,,,,,,,,,,,,,,,,
space,2.767,258866,001,2023-07-31_09h18.44.912,arm3_q,2022.2.5,Win32,62.5,5e5c993cd0394c474f7cc502,64c5699dae067f1f1081742c,64c7d074ea2da31575eb90b6,,,,,,,,,,,,,,,,,,,,,,
space,12.562,258866,001,2023-07-31_09h18.44.912,arm3_q,2022.2.5,Win32,62.5,5e5c993cd0394c474f7cc502,64c5699dae067f1f1081742c,64c7d074ea2da31575eb90b6,,,,,,,,,,,,,,,,,,,,,,
space,0.732,258866,001,2023-07-31_09h18.44.912,arm3_q,2022.2.5,Win32,62.5,5e5c993cd0394c474f7cc502,64c5699dae067f1f1081742c,64c7d074ea2da31575eb90b6,,,,,,,,,,,,,,,,,,,,,,
,,258866,001,2023-07-31_09h18.44.912,arm3_q,2022.2.5,Win32,62.5,5e5c993cd0394c474f7cc502,64c5699dae067f1f1081742c,64c7d074ea2da31575eb90b6,right,1,1,0.35,0,0.001735429,1.498,0,0,0,0,1,,,,,,,,,,
,,258866,001,2023-07-31_09h18.44.912,arm3_q,2022.2.5,Win32,62.5,5e5c993cd0394c474f7cc502,64c5699dae067f1f1081742c,64c7d074ea2da31575eb90b6,right,1,1,0.35,0,0.040789721,0.564,1,0,1,0,1,,,,,,,,,,
,,258866,001,2023-07-31_09h18.44.912,arm3_q,2022.2.5,Win32,62.5,5e5c993cd0394c474f7cc502,64c5699dae067f1f1081742c,64c7d074ea2da31575eb90b6,right,1,1,0.35,0,0.023514069,0.53,2,0,2,0,1,,,,,,,,,,
,,258866,001,2023-07-31_09h18.44.912,arm3_q,2022.2.5,Win32,62.5,5e5c993cd0394c474f7cc502,64c5699dae067f1f1081742c,64c7d074ea2da31575eb90b6,right,1,1,0.35,0,0.025699815,0.449,3,0,3,0,1,,,,,,,,,,
,,258866,001,2023-07-31_09h18.44.912,arm3_q,2022.2.5,Win32,62.5,5e5c993cd0394c474f7cc502,64c5699dae067f1f1081742c,64c7d074ea2da31575eb90b6,right,1,1,0.35,0,0.038260257,0.455,4,0,4,0,1,,,,,,,,,,
,,258866,001,2023-07-31_09h18.44.912,arm3_q,2022.2.5,Win32,62.5,5e5c993cd0394c474f7cc502,64c5699dae067f1f1081742c,64c7d074ea2da31575eb90b6,right,1,1,0.35,0,0.03192745,0.388,5,0,5,0,1,,,,,,,,,,
,,258866,001,2023-07-31_09h18.44.912,arm3_q,2022.2.5,Win32,62.5,5e5c993cd0394c474f7cc502,64c5699dae067f1f1081742c,64c7d074ea2da31575eb90b6,up,1,1,0.35,1,0,1.432,6,0,6,0,1,,,,,,,,,,
,,258866,001,2023-07-31_09h18.44.912,arm3_q,2022.2.5,Win32,62.5,5e5c993cd0394c474f7cc502,64c5699dae067f1f1081742c,64c7d074ea2da31575eb90b6,right,1,1,0.35,1,-0.004733602,1.427,7,0,7,0,1,,,,,,,,,,
,,258866,001,2023-07-31_09h18.44.912,arm3_q,2022.2.5,Win32,62.5,5e5c993cd0394c474f7cc502,64c5699dae067f1f1081742c,64c7d074ea2da31575eb90b6,right,1,1,0.35,1,0.004864877,0.346,8,0,8,0,1,,,,,,,,,,
,,258866,001,2023-07-31_09h18.44.912,arm3_q,2022.2.5,Win32,62.5,5e5c993cd0394c474f7cc502,64c5699dae067f1f1081742c,64c7d074ea2da31575eb90b6,right,1,1,0.35,1,0.018113724,0.237,9,0,9,0,1,,,,,,,,,,
,,258866,001,2023-07-31_09h18.44.912,arm3_q,2022.2.5,Win32,62.5,5e5c993cd0394c474f7cc502,64c5699dae067f1f1081742c,64c7d074ea2da31575eb90b6,right,1,1,0.35,1,0.028341969,0.268,10,0,10,0,1,,,,,,,,,,
,,258866,001,2023-07-31_09h18.44.912,arm3_q,2022.2.5,Win32,62.5,5e5c993cd0394c474f7cc502,64c5699dae067f1f1081742c,64c7d074ea2da31575eb90b6,right,1,1,0.35,1,0.048091934,0.182,11,0,11,0,1,,,,,,,,,,
,,258866,001,2023-07-31_09h18.44.912,arm3_q,2022.2.5,Win32,62.5,5e5c993cd0394c474f7cc502,64c5699dae067f1f1081742c,64c7d074ea2da31575eb90b6,right,1,1,0.35,1,0.035399724,0.2,12,0,12,0,1,,,,,,,,,,
,,258866,001,2023-07-31_09h18.44.912,arm3_q,2022.2.5,Win32,62.5,5e5c993cd0394c474f7cc502,64c5699dae067f1f1081742c,64c7d074ea2da31575eb90b6,right,1,1,0.35,1,0.03204489,0.198,13,0,13,0,1,,,,,,,,,,
,,258866,001,2023-07-31_09h18.44.912,arm3_q,2022.2.5,Win32,62.5,5e5c993cd0394c474f7cc502,64c5699dae067f1f1081742c,64c7d074ea2da31575eb90b6,right,1,1,0.35,1,0.014277259,0.188,14,0,14,0,1,,,,,,,,,,
,,258866,001,2023-07-31_09h18.44.912,arm3_q,2022.2.5,Win32,62.5,5e5c993cd0394c474f7cc502,64c5699dae067f1f1081742c,64c7d074ea2da31575eb90b6,right,1,1,0.35,1,0.05334174,0.193,15,0,15,0,1,,,,,,,,,,
,,258866,001,2023-07-31_09h18.44.912,arm3_q,2022.2.5,Win32,62.5,5e5c993cd0394c474f7cc502,64c5699dae067f1f1081742c,64c7d074ea2da31575eb90b6,right,1,1,0.35,1,0.068487644,0.197,16,0,16,0,1,,,,,,,,,,
,,258866,001,2023-07-31_09h18.44.912,arm3_q,2022.2.5,Win32,62.5,5e5c993cd0394c474f7cc502,64c5699dae067f1f1081742c,64c7d074ea2da31575eb90b6,right,1,1,0.35,1,0.073471631,0.265,17,0,17,0,1,,,,,,,,,,
,,258866,001,2023-07-31_09h18.44.912,arm3_q,2022.2.5,Win32,62.5,5e5c993cd0394c474f7cc502,64c5699dae067f1f1081742c,64c7d074ea2da31575eb90b6,down,-1,1,0.35,0,0,0.584,18,0,18,0,1,,,,,,,,,,
,,258866,001,2023-07-31_09h18.44.912,arm3_q,2022.2.5,Win32,62.5,5e5c993cd0394c474f7cc502,64c5699dae067f1f1081742c,64c7d074ea2da31575eb90b6,right,-1,1,0.35,0,-0.030221268,1.182,19,0,19,0,1,,,,,,,,,,
,,258866,001,2023-07-31_09h18.44.912,arm3_q,2022.2.5,Win32,62.5,5e5c993cd0394c474f7cc502,64c5699dae067f1f1081742c,64c7d074ea2da31575eb90b6,right,-1,1,0.35,0,-0.053162642,0.213,20,0,20,0,1,,,,,,,,,,
,,258866,001,2023-07-31_09h18.44.912,arm3_q,2022.2.5,Win32,62.5,5e5c993cd0394c474f7cc502,64c5699dae067f1f1081742c,64c7d074ea2da31575eb90b6,right,-1,1,0.35,0,-0.092133656,0.205,21,0,21,0,1,,,,,,,,,,
,,258866,001,2023-07-31_09h18.44.912,arm3_q,2022.2.5,Win32,62.5,5e5c993cd0394c474f7cc502,64c5699dae067f1f1081742c,64c7d074ea2da31575eb90b6,right,-1,1,0.35,0,-0.104735424,0.185,22,0,22,0,1,,,,,,,,,,
,,258866,001,2023-07-31_09h18.44.912,arm3_q,2022.2.5,Win32,62.5,5e5c993cd0394c474f7cc502,64c5699dae067f1f1081742c,64c7d074ea2da31575eb90b6,right,-1,1,0.35,0,-0.134255562,0.152,23,0,23,0,1,,,,,,,,,,
,,258866,001,2023-07-31_09h18.44.912,arm3_q,2022.2.5,Win32,62.5,5e5c993cd0394c474f7cc502,64c5699dae067f1f1081742c,64c7d074ea2da31575eb90b6,right,-1,1,0.35,0,-0.135127881,0.148,24,0,24,0,1,,,,,,,,,,
,,258866,001,2023-07-31_09h18.44.912,arm3_q,2022.2.5,Win32,62.5,5e5c993cd0394c474f7cc502,64c5699dae067f1f1081742c,64c7d074ea2da31575eb90b6,right,-1,1,0.35,0,-0.152632139,0.15,25,0,25,0,1,,,,,,,,,,
,,258866,001,2023-07-31_09h18.44.912,arm3_q,2022.2.5,Win32,62.5,5e5c993cd0394c474f7cc502,64c5699dae067f1f1081742c,64c7d074ea2da31575eb90b6,down,-1,1,0.35,1,0,0.179,26,0,26,0,1,,,,,,,,,,
,,258866,001,2023-07-31_09h18.44.912,arm3_q,2022.2.5,Win32,62.5,5e5c993cd0394c474f7cc502,64c5699dae067f1f1081742c,64c7d074ea2da31575eb90b6,right,-1,1,0.35,1,0.011288883,0.512,27,0,27,0,1,,,,,,,,,,
,,258866,001,2023-07-31_09h18.44.912,arm3_q,2022.2.5,Win32,62.5,5e5c993cd0394c474f7cc502,64c5699dae067f1f1081742c,64c7d074ea2da31575eb90b6,right,-1,1,0.35,1,0.010622387,0.199,28,0,28,0,1,,,,,,,,,,
,,258866,001,2023-07-31_09h18.44.912,arm3_q,2022.2.5,Win32,62.5,5e5c993cd0394c474f7cc502,64c5699dae067f1f1081742c,64c7d074ea2da31575eb90b6,right,-1,1,0.35,1,-0.005478035,0.153,29,0,29,0,1,,,,,,,,,,
,,258866,001,2023-07-31_09h18.44.912,arm3_q,2022.2.5,Win32,62.5,5e5c993cd0394c474f7cc502,64c5699dae067f1f1081742c,64c7d074ea2da31575eb90b6,right,-1,1,0.35,1,0.00690374,0.159,30,0,30,0,1,,,,,,,,,,
,,258866,001,2023-07-31_09h18.44.912,arm3_q,2022.2.5,Win32,62.5,5e5c993cd0394c474f7cc502,64c5699dae067f1f1081742c,64c7d074ea2da31575eb90b6,right,-1,1,0.35,1,-0.008423723,0.156,31,0,31,0,1,,,,,,,,,,
,,258866,001,2023-07-31_09h18.44.912,arm3_q,2022.2.5,Win32,62.5,5e5c993cd0394c474f7cc502,64c5699dae067f1f1081742c,64c7d074ea2da31575eb90b6,right,-1,1,0.35,1,-0.004593949,0.15,32,0,32,0,1,,,,,,,,,,
,,258866,001,2023-07-31_09h18.44.912,arm3_q,2022.2.5,Win32,62.5,5e5c993cd0394c474f7cc502,64c5699dae067f1f1081742c,64c7d074ea2da31575eb90b6,right,-1,1,0.35,1,-0.001796257,0.142,33,0,33,0,1,,,,,,,,,,
,,258866,001,2023-07-31_09h18.44.912,arm3_q,2022.2.5,Win32,62.5,5e5c993cd0394c474f7cc502,64c5699dae067f1f1081742c,64c7d074ea2da31575eb90b6,right,-1,1,0.35,1,0.002749057,0.137,34,0,34,0,1,,,,,,,,,,
,,258866,001,2023-07-31_09h18.44.912,arm3_q,2022.2.5,Win32,62.5,5e5c993cd0394c474f7cc502,64c5699dae067f1f1081742c,64c7d074ea2da31575eb90b6,right,-1,1,0.35,1,-0.02019174,0.141,35,0,35,0,1,,,,,,,,,,
,,258866,001,2023-07-31_09h18.44.912,arm3_q,2022.2.5,Win32,62.5,5e5c993cd0394c474f7cc502,64c5699dae067f1f1081742c,64c7d074ea2da31575eb90b6,right,-1,1,0.35,1,-0.023354476,0.292,36,0,36,0,1,,,,,,,,,,
,,258866,001,2023-07-31_09h18.44.912,arm3_q,2022.2.5,Win32,62.5,5e5c993cd0394c474f7cc502,64c5699dae067f1f1081742c,64c7d074ea2da31575eb90b6,down,-1,1,0.35,2,0,0.566,37,0,37,0,1,,,,,,,,,,
,,258866,001,2023-07-31_09h18.44.912,arm3_q,2022.2.5,Win32,62.5,5e5c993cd0394c474f7cc502,64c5699dae067f1f1081742c,64c7d074ea2da31575eb90b6,right,-1,1,0.35,2,0.022655147,0.379,38,0,38,0,1,,,,,,,,,,
,,258866,001,2023-07-31_09h18.44.912,arm3_q,2022.2.5,Win32,62.5,5e5c993cd0394c474f7cc502,64c5699dae067f1f1081742c,64c7d074ea2da31575eb90b6,right,-1,1,0.35,2,0.018654993,0.137,39,0,39,0,1,,,,,,,,,,
,,258866,001,2023-07-31_09h18.44.912,arm3_q,2022.2.5,Win32,62.5,5e5c993cd0394c474f7cc502,64c5699dae067f1f1081742c,64c7d074ea2da31575eb90b6,right,-1,1,0.35,2,0.006909245,0.143,40,0,40,0,1,,,,,,,,,,
,,258866,001,2023-07-31_09h18.44.912,arm3_q,2022.2.5,Win32,62.5,5e5c993cd0394c474f7cc502,64c5699dae067f1f1081742c,64c7d074ea2da31575eb90b6,right,-1,1,0.35,2,-0.014145007,0.153,41,0,41,0,1,,,,,,,,,,
,,258866,001,2023-07-31_09h18.44.912,arm3_q,2022.2.5,Win32,62.5,5e5c993cd0394c474f7cc502,64c5699dae067f1f1081742c,64c7d074ea2da31575eb90b6,right,-1,1,0.35,2,-0.039851772,0.153,42,0,42,0,1,,,,,,,,,,
,,258866,001,2023-07-31_09h18.44.912,arm3_q,2022.2.5,Win32,62.5,5e5c993cd0394c474f7cc502,64c5699dae067f1f1081742c,64c7d074ea2da31575eb90b6,right,-1,1,0.35,2,-0.034254631,0.148,43,0,43,0,1,,,,,,,,,,
,,258866,001,2023-07-31_09h18.44.912,arm3_q,2022.2.5,Win32,62.5,5e5c993cd0394c474f7cc502,64c5699dae067f1f1081742c,64c7d074ea2da31575eb90b6,right,-1,1,0.35,2,-0.050565167,0.165,44,0,44,0,1,,,,,,,,,,
,,258866,001,2023-07-31_09h18.44.912,arm3_q,2022.2.5,Win32,62.5,5e5c993cd0394c474f7cc502,64c5699dae067f1f1081742c,64c7d074ea2da31575eb90b6,right,-1,1,0.35,2,-0.070242246,0.16,45,0,45,0,1,,,,,,,,,,
,,258866,001,2023-07-31_09h18.44.912,arm3_q,2022.2.5,Win32,62.5,5e5c993cd0394c474f7cc502,64c5699dae067f1f1081742c,64c7d074ea2da31575eb90b6,right,-1,1,0.35,2,-0.055890171,0.159,46,0,46,0,1,,,,,,,,,,
,,258866,001,2023-07-31_09h18.44.912,arm3_q,2022.2.5,Win32,62.5,5e5c993cd0394c474f7cc502,64c5699dae067f1f1081742c,64c7d074ea2da31575eb90b6,up,-1,1,0.35,1,0,0.5,47,0,47,0,1,,,,,,,,,,
,,258866,001,2023-07-31_09h18.44.912,arm3_q,2022.2.5,Win32,62.5,5e5c993cd0394c474f7cc502,64c5699dae067f1f1081742c,64c7d074ea2da31575eb90b6,right,-1,1,0.35,1,-0.02038562,0.583,48,0,48,0,1,,,,,,,,,,
,,258866,001,2023-07-31_09h18.44.912,arm3_q,2022.2.5,Win32,62.5,5e5c993cd0394c474f7cc502,64c5699dae067f1f1081742c,64c7d074ea2da31575eb90b6,right,-1,1,0.35,1,6.71205E-06,0.159,49,0,49,0,1,,,,,,,,,,
space,23.444,258866,001,2023-07-31_09h18.44.912,arm3_q,2022.2.5,Win32,62.5,5e5c993cd0394c474f7cc502,64c5699dae067f1f1081742c,64c7d074ea2da31575eb90b6,,,,,,,,,,,,,,,,,,,,,,
space,6.069,258866,001,2023-07-31_09h18.44.912,arm3_q,2022.2.5,Win32,62.5,5e5c993cd0394c474f7cc502,64c5699dae067f1f1081742c,64c7d074ea2da31575eb90b6,,,,,,,,,,,,,,,,,,,,,,
space,7.529,258866,001,2023-07-31_09h18.44.912,arm3_q,2022.2.5,Win32,62.5,5e5c993cd0394c474f7cc502,64c5699dae067f1f1081742c,64c7d074ea2da31575eb90b6,,,,,,,,,,,,,,,,,,,,,,
space,2.288,258866,001,2023-07-31_09h18.44.912,arm3_q,2022.2.5,Win32,62.5,5e5c993cd0394c474f7cc502,64c5699dae067f1f1081742c,64c7d074ea2da31575eb90b6,,,,,,,,,,,,,,,,,,,,,,
space,2.698,258866,001,2023-07-31_09h18.44.912,arm3_q,2022.2.5,Win32,62.5,5e5c993cd0394c474f7cc502,64c5699dae067f1f1081742c,64c7d074ea2da31575eb90b6,,,,,,,,,,,,,,,,,,,,,,
space,0.618,258866,001,2023-07-31_09h18.44.912,arm3_q,2022.2.5,Win32,62.5,5e5c993cd0394c474f7cc502,64c5699dae067f1f1081742c,64c7d074ea2da31575eb90b6,,,,,,,,,,,,,,,,,,,,,,
,,258866,001,2023-07-31_09h18.44.912,arm3_q,2022.2.5,Win32,62.5,5e5c993cd0394c474f7cc502,64c5699dae067f1f1081742c,64c7d074ea2da31575eb90b6,right,-1,0.5643,0.35,0,-0.024035199,1.09,0,0,0,0,1,,,,,,,,,,
,,258866,001,2023-07-31_09h18.44.912,arm3_q,2022.2.5,Win32,62.5,5e5c993cd0394c474f7cc502,64c5699dae067f1f1081742c,64c7d074ea2da31575eb90b6,right,-1,0.5643,0.35,0,-0.019312839,0.197,1,0,1,0,1,,,,,,,,,,
,,258866,001,2023-07-31_09h18.44.912,arm3_q,2022.2.5,Win32,62.5,5e5c993cd0394c474f7cc502,64c5699dae067f1f1081742c,64c7d074ea2da31575eb90b6,right,-1,0.5643,0.35,0,-0.027698481,0.153,2,0,2,0,1,,,,,,,,,,
,,258866,001,2023-07-31_09h18.44.912,arm3_q,2022.2.5,Win32,62.5,5e5c993cd0394c474f7cc502,64c5699dae067f1f1081742c,64c7d074ea2da31575eb90b6,right,-1,0.5643,0.35,0,-0.051248786,0.141,3,0,3,0,1,,,,,,,,,,
,,258866,001,2023-07-31_09h18.44.912,arm3_q,2022.2.5,Win32,62.5,5e5c993cd0394c474f7cc502,64c5699dae067f1f1081742c,64c7d074ea2da31575eb90b6,right,-1,0.5643,0.35,0,-0.038485603,0.146,4,0,4,0,1,,,,,,,,,,
,,258866,001,2023-07-31_09h18.44.912,arm3_q,2022.2.5,Win32,62.5,5e5c993cd0394c474f7cc502,64c5699dae067f1f1081742c,64c7d074ea2da31575eb90b6,right,-1,0.5643,0.35,0,-0.045855402,0.153,5,0,5,0,1,,,,,,,,,,
,,258866,001,2023-07-31_09h18.44.912,arm3_q,2022.2.5,Win32,62.5,5e5c993cd0394c474f7cc502,64c5699dae067f1f1081742c,64c7d074ea2da31575eb90b6,right,-1,0.5643,0.35,0,-0.069095845,0.171,6,0,6,0,1,,,,,,,,,,
,,258866,001,2023-07-31_09h18.44.912,arm3_q,2022.2.5,Win32,62.5,5e5c993cd0394c474f7cc502,64c5699dae067f1f1081742c,64c7d074ea2da31575eb90b6,right,-1,0.5643,0.35,0,-0.068687457,0.301,7,0,7,0,1,,,,,,,,,,
,,258866,001,2023-07-31_09h18.44.912,arm3_q,2022.2.5,Win32,62.5,5e5c993cd0394c474f7cc502,64c5699dae067f1f1081742c,64c7d074ea2da31575eb90b6,right,-1,0.5643,0.35,0,-0.075897314,0.301,8,0,8,0,1,,,,,,,,,,
,,258866,001,2023-07-31_09h18.44.912,arm3_q,2022.2.5,Win32,62.5,5e5c993cd0394c474f7cc502,64c5699dae067f1f1081742c,64c7d074ea2da31575eb90b6,down,-1,0.5643,0.35,0,0,0.267,9,0,9,0,1,,,,,,,,,,
,,258866,001,2023-07-31_09h18.44.912,arm3_q,2022.2.5,Win32,62.5,5e5c993cd0394c474f7cc502,64c5699dae067f1f1081742c,64c7d074ea2da31575eb90b6,right,-1,0.5643,0.35,0,-0.016311065,0.923,10,0,10,0,1,,,,,,,,,,
,,258866,001,2023-07-31_09h18.44.912,arm3_q,2022.2.5,Win32,62.5,5e5c993cd0394c474f7cc502,64c5699dae067f1f1081742c,64c7d074ea2da31575eb90b6,right,-1,0.5643,0.35,0,-0.048485808,0.186,11,0,11,0,1,,,,,,,,,,
,,258866,001,2023-07-31_09h18.44.912,arm3_q,2022.2.5,Win32,62.5,5e5c993cd0394c474f7cc502,64c5699dae067f1f1081742c,64c7d074ea2da31575eb90b6,right,-1,0.5643,0.35,0,-0.034786149,0.12,12,0,12,0,1,,,,,,,,,,
,,258866,001,2023-07-31_09h18.44.912,arm3_q,2022.2.5,Win32,62.5,5e5c993cd0394c474f7cc502,64c5699dae067f1f1081742c,64c7d074ea2da31575eb90b6,right,-1,0.5643,0.35,0,-0.038930976,0.164,13,0,13,0,1,,,,,,,,,,
,,258866,001,2023-07-31_09h18.44.912,arm3_q,2022.2.5,Win32,62.5,5e5c993cd0394c474f7cc502,64c5699dae067f1f1081742c,64c7d074ea2da31575eb90b6,right,-1,0.5643,0.35,0,-0.036794042,0.155,14,0,14,0,1,,,,,,,,,,
,,258866,001,2023-07-31_09h18.44.912,arm3_q,2022.2.5,Win32,62.5,5e5c993cd0394c474f7cc502,64c5699dae067f1f1081742c,64c7d074ea2da31575eb90b6,right,-1,0.5643,0.35,0,-0.054485327,0.147,15,0,15,0,1,,,,,,,,,,
,,258866,001,2023-07-31_09h18.44.912,arm3_q,2022.2.5,Win32,62.5,5e5c993cd0394c474f7cc502,64c5699dae067f1f1081742c,64c7d074ea2da31575eb90b6,right,-1,0.5643,0.35,0,-0.058539175,0.158,16,0,16,0,1,,,,,,,,,,
,,258866,001,2023-07-31_09h18.44.912,arm3_q,2022.2.5,Win32,62.5,5e5c993cd0394c474f7cc502,64c5699dae067f1f1081742c,64c7d074ea2da31575eb90b6,down,-1,0.5643,0.35,0,0,0.324,17,0,17,0,1,,,,,,,,,,
,,258866,001,2023-07-31_09h18.44.912,arm3_q,2022.2.5,Win32,62.5,5e5c993cd0394c474f7cc502,64c5699dae067f1f1081742c,64c7d074ea2da31575eb90b6,right,-1,0.5643,0.35,0,0.003527016,0.561,18,0,18,0,1,,,,,,,,,,
,,258866,001,2023-07-31_09h18.44.912,arm3_q,2022.2.5,Win32,62.5,5e5c993cd0394c474f7cc502,64c5699dae067f1f1081742c,64c7d074ea2da31575eb90b6,right,-1,0.5643,0.35,0,-0.005843106,0.173,19,0,19,0,1,,,,,,,,,,
,,258866,001,2023-07-31_09h18.44.912,arm3_q,2022.2.5,Win32,62.5,5e5c993cd0394c474f7cc502,64c5699dae067f1f1081742c,64c7d074ea2da31575eb90b6,right,-1,0.5643,0.35,0,-0.041954887,0.183,20,0,20,0,1,,,,,,,,,,
,,258866,001,2023-07-31_09h18.44.912,arm3_q,2022.2.5,Win32,62.5,5e5c993cd0394c474f7cc502,64c5699dae067f1f1081742c,64c7d074ea2da31575eb90b6,right,-1,0.5643,0.35,0,-0.044455656,0.164,21,0,21,0,1,,,,,,,,,,
,,258866,001,2023-07-31_09h18.44.912,arm3_q,2022.2.5,Win32,62.5,5e5c993cd0394c474f7cc502,64c5699dae067f1f1081742c,64c7d074ea2da31575eb90b6,right,-1,0.5643,0.35,0,-0.057015971,0.154,22,0,22,0,1,,,,,,,,,,
,,258866,001,2023-07-31_09h18.44.912,arm3_q,2022.2.5,Win32,62.5,5e5c993cd0394c474f7cc502,64c5699dae067f1f1081742c,64c7d074ea2da31575eb90b6,right,-1,0.5643,0.35,0,-0.027859846,0.18,23,0,23,0,1,,,,,,,,,,
,,258866,001,2023-07-31_09h18.44.912,arm3_q,2022.2.5,Win32,62.5,5e5c993cd0394c474f7cc502,64c5699dae067f1f1081742c,64c7d074ea2da31575eb90b6,right,-1,0.5643,0.35,0,-0.046189777,0.281,24,0,24,0,1,,,,,,,,,,
,,258866,001,2023-07-31_09h18.44.912,arm3_q,2022.2.5,Win32,62.5,5e5c993cd0394c474f7cc502,64c5699dae067f1f1081742c,64c7d074ea2da31575eb90b6,right,-1,0.5643,0.35,0,-0.037603178,0.253,25,0,25,0,1,,,,,,,,,,
,,258866,001,2023-07-31_09h18.44.912,arm3_q,2022.2.5,Win32,62.5,5e5c993cd0394c474f7cc502,64c5699dae067f1f1081742c,64c7d074ea2da31575eb90b6,right,-1,0.5643,0.35,0,-0.025593764,0.263,26,0,26,0,1,,,,,,,,,,
,,258866,001,2023-07-31_09h18.44.912,arm3_q,2022.2.5,Win32,62.5,5e5c993cd0394c474f7cc502,64c5699dae067f1f1081742c,64c7d074ea2da31575eb90b6,down,1,0.5643,0.35,1,0,0.606,27,0,27,0,1,,,,,,,,,,
,,258866,001,2023-07-31_09h18.44.912,arm3_q,2022.2.5,Win32,62.5,5e5c993cd0394c474f7cc502,64c5699dae067f1f1081742c,64c7d074ea2da31575eb90b6,right,1,0.5643,0.35,1,0.018407343,0.548,28,0,28,0,1,,,,,,,,,,
,,258866,001,2023-07-31_09h18.44.912,arm3_q,2022.2.5,Win32,62.5,5e5c993cd0394c474f7cc502,64c5699dae067f1f1081742c,64c7d074ea2da31575eb90b6,right,1,0.5643,0.35,1,0.043345112,0.153,29,0,29,0,1,,,,,,,,,,
,,258866,001,2023-07-31_09h18.44.912,arm3_q,2022.2.5,Win32,62.5,5e5c993cd0394c474f7cc502,64c5699dae067f1f1081742c,64c7d074ea2da31575eb90b6,right,1,0.5643,0.35,1,0.023022068,0.145,30,0,30,0,1,,,,,,,,,,
,,258866,001,2023-07-31_09h18.44.912,arm3_q,2022.2.5,Win32,62.5,5e5c993cd0394c474f7cc502,64c5699dae067f1f1081742c,64c7d074ea2da31575eb90b6,right,1,0.5643,0.35,1,0.036229442,0.135,31,0,31,0,1,,,,,,,,,,
,,258866,001,2023-07-31_09h18.44.912,arm3_q,2022.2.5,Win32,62.5,5e5c993cd0394c474f7cc502,64c5699dae067f1f1081742c,64c7d074ea2da31575eb90b6,right,1,0.5643,0.35,1,0.050532844,0.171,32,0,32,0,1,,,,,,,,,,
,,258866,001,2023-07-31_09h18.44.912,arm3_q,2022.2.5,Win32,62.5,5e5c993cd0394c474f7cc502,64c5699dae067f1f1081742c,64c7d074ea2da31575eb90b6,right,1,0.5643,0.35,1,0.082628703,0.149,33,0,33,0,1,,,,,,,,,,
,,258866,001,2023-07-31_09h18.44.912,arm3_q,2022.2.5,Win32,62.5,5e5c993cd0394c474f7cc502,64c5699dae067f1f1081742c,64c7d074ea2da31575eb90b6,right,1,0.5643,0.35,1,0.066445834,0.146,34,0,34,0,1,,,,,,,,,,
,,258866,001,2023-07-31_09h18.44.912,arm3_q,2022.2.5,Win32,62.5,5e5c993cd0394c474f7cc502,64c5699dae067f1f1081742c,64c7d074ea2da31575eb90b6,right,1,0.5643,0.35,1,0.067324694,0.139,35,0,35,0,1,,,,,,,,,,
,,258866,001,2023-07-31_09h18.44.912,arm3_q,2022.2.5,Win32,62.5,5e5c993cd0394c474f7cc502,64c5699dae067f1f1081742c,64c7d074ea2da31575eb90b6,up,-1,0.5643,0.35,2,0,0.183,36,0,36,0,1,,,,,,,,,,
,,258866,001,2023-07-31_09h18.44.912,arm3_q,2022.2.5,Win32,62.5,5e5c993cd0394c474f7cc502,64c5699dae067f1f1081742c,64c7d074ea2da31575eb90b6,right,-1,0.5643,0.35,2,-0.035448512,0.381,37,0,37,0,1,,,,,,,,,,
,,258866,001,2023-07-31_09h18.44.912,arm3_q,2022.2.5,Win32,62.5,5e5c993cd0394c474f7cc502,64c5699dae067f1f1081742c,64c7d074ea2da31575eb90b6,right,-1,0.5643,0.35,2,-0.084773495,0.146,38,0,38,0,1,,,,,,,,,,
,,258866,001,2023-07-31_09h18.44.912,arm3_q,2022.2.5,Win32,62.5,5e5c993cd0394c474f7cc502,64c5699dae067f1f1081742c,64c7d074ea2da31575eb90b6,right,-1,0.5643,0.35,2,-0.128087682,0.136,39,0,39,0,1,,,,,,,,,,
,,258866,001,2023-07-31_09h18.44.912,arm3_q,2022.2.5,Win32,62.5,5e5c993cd0394c474f7cc502,64c5699dae067f1f1081742c,64c7d074ea2da31575eb90b6,right,-1,0.5643,0.35,2,-0.135396964,0.128,40,0,40,0,1,,,,,,,,,,
,,258866,001,2023-07-31_09h18.44.912,arm3_q,2022.2.5,Win32,62.5,5e5c993cd0394c474f7cc502,64c5699dae067f1f1081742c,64c7d074ea2da31575eb90b6,right,-1,0.5643,0.35,2,-0.120097185,0.125,41,0,41,0,1,,,,,,,,,,
,,258866,001,2023-07-31_09h18.44.912,arm3_q,2022.2.5,Win32,62.5,5e5c993cd0394c474f7cc502,64c5699dae067f1f1081742c,64c7d074ea2da31575eb90b6,right,-1,0.5643,0.35,2,-0.120564503,0.13,42,0,42,0,1,,,,,,,,,,
,,258866,001,2023-07-31_09h18.44.912,arm3_q,2022.2.5,Win32,62.5,5e5c993cd0394c474f7cc502,64c5699dae067f1f1081742c,64c7d074ea2da31575eb90b6,right,-1,0.5643,0.35,2,-0.147029679,0.127,43,0,43,0,1,,,,,,,,,,
,,258866,001,2023-07-31_09h18.44.912,arm3_q,2022.2.5,Win32,62.5,5e5c993cd0394c474f7cc502,64c5699dae067f1f1081742c,64c7d074ea2da31575eb90b6,down,1,0.5643,0.35,3,0,0.219,44,0,44,0,1,,,,,,,,,,
,,258866,001,2023-07-31_09h18.44.912,arm3_q,2022.2.5,Win32,62.5,5e5c993cd0394c474f7cc502,64c5699dae067f1f1081742c,64c7d074ea2da31575eb90b6,right,1,0.5643,0.35,3,0.006577378,0.413,45,0,45,0,1,,,,,,,,,,
,,258866,001,2023-07-31_09h18.44.912,arm3_q,2022.2.5,Win32,62.5,5e5c993cd0394c474f7cc502,64c5699dae067f1f1081742c,64c7d074ea2da31575eb90b6,right,1,0.5643,0.35,3,0.009492734,0.163,46,0,46,0,1,,,,,,,,,,
,,258866,001,2023-07-31_09h18.44.912,arm3_q,2022.2.5,Win32,62.5,5e5c993cd0394c474f7cc502,64c5699dae067f1f1081742c,64c7d074ea2da31575eb90b6,right,1,0.5643,0.35,3,0.006757079,0.143,47,0,47,0,1,,,,,,,,,,
,,258866,001,2023-07-31_09h18.44.912,arm3_q,2022.2.5,Win32,62.5,5e5c993cd0394c474f7cc502,64c5699dae067f1f1081742c,64c7d074ea2da31575eb90b6,right,1,0.5643,0.35,3,0.015777811,0.154,48,0,48,0,1,,,,,,,,,,
,,258866,001,2023-07-31_09h18.44.912,arm3_q,2022.2.5,Win32,62.5,5e5c993cd0394c474f7cc502,64c5699dae067f1f1081742c,64c7d074ea2da31575eb90b6,right,1,0.5643,0.35,3,0.011162452,0.15,49,0,49,0,1,,,,,,,,,,
space,8.388,258866,001,2023-07-31_09h18.44.912,arm3_q,2022.2.5,Win32,62.5,5e5c993cd0394c474f7cc502,64c5699dae067f1f1081742c,64c7d074ea2da31575eb90b6,,,,,,,,,,,,,,,,,,,,,,
space,8.548,258866,001,2023-07-31_09h18.44.912,arm3_q,2022.2.5,Win32,62.5,5e5c993cd0394c474f7cc502,64c5699dae067f1f1081742c,64c7d074ea2da31575eb90b6,,,,,,,,,,,,,,,,,,,,,,
space,0.64,258866,001,2023-07-31_09h18.44.912,arm3_q,2022.2.5,Win32,62.5,5e5c993cd0394c474f7cc502,64c5699dae067f1f1081742c,64c7d074ea2da31575eb90b6,,,,,,,,,,,,,,,,,,,,,,
,,258866,001,2023-07-31_09h18.44.912,arm3_q,2022.2.5,Win32,62.5,5e5c993cd0394c474f7cc502,64c5699dae067f1f1081742c,64c7d074ea2da31575eb90b6,right,1,0.95,0.35,0,-0.039187083,1.416,0,0,0,0,1,,,,,,,,,,
,,258866,001,2023-07-31_09h18.44.912,arm3_q,2022.2.5,Win32,62.5,5e5c993cd0394c474f7cc502,64c5699dae067f1f1081742c,64c7d074ea2da31575eb90b6,right,1,0.95,0.35,0,-0.040859216,0.299,1,0,1,0,1,,,,,,,,,,
,,258866,001,2023-07-31_09h18.44.912,arm3_q,2022.2.5,Win32,62.5,5e5c993cd0394c474f7cc502,64c5699dae067f1f1081742c,64c7d074ea2da31575eb90b6,right,1,0.95,0.35,0,-0.029420878,0.147,2,0,2,0,1,,,,,,,,,,
,,258866,001,2023-07-31_09h18.44.912,arm3_q,2022.2.5,Win32,62.5,5e5c993cd0394c474f7cc502,64c5699dae067f1f1081742c,64c7d074ea2da31575eb90b6,right,1,0.95,0.35,0,-0.013865328,0.115,3,0,3,0,1,,,,,,,,,,
,,258866,001,2023-07-31_09h18.44.912,arm3_q,2022.2.5,Win32,62.5,5e5c993cd0394c474f7cc502,64c5699dae067f1f1081742c,64c7d074ea2da31575eb90b6,right,1,0.95,0.35,0,-0.013176514,0.12,4,0,4,0,1,,,,,,,,,,
,,258866,001,2023-07-31_09h18.44.912,arm3_q,2022.2.5,Win32,62.5,5e5c993cd0394c474f7cc502,64c5699dae067f1f1081742c,64c7d074ea2da31575eb90b6,right,1,0.95,0.35,0,0.014222127,0.123,5,0,5,0,1,,,,,,,,,,
,,258866,001,2023-07-31_09h18.44.912,arm3_q,2022.2.5,Win32,62.5,5e5c993cd0394c474f7cc502,64c5699dae067f1f1081742c,64c7d074ea2da31575eb90b6,right,1,0.95,0.35,0,0.016316154,0.123,6,0,6,0,1,,,,,,,,,,
,,258866,001,2023-07-31_09h18.44.912,arm3_q,2022.2.5,Win32,62.5,5e5c993cd0394c474f7cc502,64c5699dae067f1f1081742c,64c7d074ea2da31575eb90b6,right,1,0.95,0.35,0,0.029064066,0.119,7,0,7,0,1,,,,,,,,,,
,,258866,001,2023-07-31_09h18.44.912,arm3_q,2022.2.5,Win32,62.5,5e5c993cd0394c474f7cc502,64c5699dae067f1f1081742c,64c7d074ea2da31575eb90b6,up,-1,0.95,0.35,1,0,1.597,8,0,8,0,1,,,,,,,,,,
,,258866,001,2023-07-31_09h18.44.912,arm3_q,2022.2.5,Win32,62.5,5e5c993cd0394c474f7cc502,64c5699dae067f1f1081742c,64c7d074ea2da31575eb90b6,right,-1,0.95,0.35,1,0.003655375,0.686,9,0,9,0,1,,,,,,,,,,
,,258866,001,2023-07-31_09h18.44.912,arm3_q,2022.2.5,Win32,62.5,5e5c993cd0394c474f7cc502,64c5699dae067f1f1081742c,64c7d074ea2da31575eb90b6,right,-1,0.95,0.35,1,-0.038256712,0.183,10,0,10,0,1,,,,,,,,,,
,,258866,001,2023-07-31_09h18.44.912,arm3_q,2022.2.5,Win32,62.5,5e5c993cd0394c474f7cc502,64c5699dae067f1f1081742c,64c7d074ea2da31575eb90b6,right,-1,0.95,0.35,1,-0.068387048,0.097,11,0,11,0,1,,,,,,,,,,
,,258866,001,2023-07-31_09h18.44.912,arm3_q,2022.2.5,Win32,62.5,5e5c993cd0394c474f7cc502,64c5699dae067f1f1081742c,64c7d074ea2da31575eb90b6,right,-1,0.95,0.35,1,-0.062275027,0.133,12,0,12,0,1,,,,,,,,,,
,,258866,001,2023-07-31_09h18.44.912,arm3_q,2022.2.5,Win32,62.5,5e5c993cd0394c474f7cc502,64c5699dae067f1f1081742c,64c7d074ea2da31575eb90b6,right,-1,0.95,0.35,1,-0.041813474,0.122,13,0,13,0,1,,,,,,,,,,
,,258866,001,2023-07-31_09h18.44.912,arm3_q,2022.2.5,Win32,62.5,5e5c993cd0394c474f7cc502,64c5699dae067f1f1081742c,64c7d074ea2da31575eb90b6,right,-1,0.95,0.35,1,-0.060438114,0.126,14,0,14,0,1,,,,,,,,,,
,,258866,001,2023-07-31_09h18.44.912,arm3_q,2022.2.5,Win32,62.5,5e5c993cd0394c474f7cc502,64c5699dae067f1f1081742c,64c7d074ea2da31575eb90b6,right,-1,0.95,0.35,1,-0.087837004,0.131,15,0,15,0,1,,,,,,,,,,
,,258866,001,2023-07-31_09h18.44.912,arm3_q,2022.2.5,Win32,62.5,5e5c993cd0394c474f7cc502,64c5699dae067f1f1081742c,64c7d074ea2da31575eb90b6,down,-1,0.95,0.35,2,0,0.255,16,0,16,0,1,,,,,,,,,,
,,258866,001,2023-07-31_09h18.44.912,arm3_q,2022.2.5,Win32,62.5,5e5c993cd0394c474f7cc502,64c5699dae067f1f1081742c,64c7d074ea2da31575eb90b6,right,-1,0.95,0.35,2,-0.028995027,0.45,17,0,17,0,1,,,,,,,,,,
,,258866,001,2023-07-31_09h18.44.912,arm3_q,2022.2.5,Win32,62.5,5e5c993cd0394c474f7cc502,64c5699dae067f1f1081742c,64c7d074ea2da31575eb90b6,right,-1,0.95,0.35,2,-0.013006522,0.147,18,0,18,0,1,,,,,,,,,,
,,258866,001,2023-07-31_09h18.44.912,arm3_q,2022.2.5,Win32,62.5,5e5c993cd0394c474f7cc502,64c5699dae067f1f1081742c,64c7d074ea2da31575eb90b6,right,-1,0.95,0.35,2,-0.026282497,0.083,19,0,19,0,1,,,,,,,,,,
,,258866,001,2023-07-31_09h18.44.912,arm3_q,2022.2.5,Win32,62.5,5e5c993cd0394c474f7cc502,64c5699dae067f1f1081742c,64c7d074ea2da31575eb90b6,right,-1,0.95,0.35,2,-0.057011229,0.167,20,0,20,0,1,,,,,,,,,,
,,258866,001,2023-07-31_09h18.44.912,arm3_q,2022.2.5,Win32,62.5,5e5c993cd0394c474f7cc502,64c5699dae067f1f1081742c,64c7d074ea2da31575eb90b6,right,-1,0.95,0.35,2,-0.083967896,0.122,21,0,21,0,1,,,,,,,,,,
,,258866,001,2023-07-31_09h18.44.912,arm3_q,2022.2.5,Win32,62.5,5e5c993cd0394c474f7cc502,64c5699dae067f1f1081742c,64c7d074ea2da31575eb90b6,right,-1,0.95,0.35,2,-0.085761409,0.135,22,0,22,0,1,,,,,,,,,,
,,258866,001,2023-07-31_09h18.44.912,arm3_q,2022.2.5,Win32,62.5,5e5c993cd0394c474f7cc502,64c5699dae067f1f1081742c,64c7d074ea2da31575eb90b6,right,-1,0.95,0.35,2,-0.07155742,0.123,23,0,23,0,1,,,,,,,,,,
,,258866,001,2023-07-31_09h18.44.912,arm3_q,2022.2.5,Win32,62.5,5e5c993cd0394c474f7cc502,64c5699dae067f1f1081742c,64c7d074ea2da31575eb90b6,down,-1,0.95,0.35,3,0,0.284,24,0,24,0,1,,,,,,,,,,
,,258866,001,2023-07-31_09h18.44.912,arm3_q,2022.2.5,Win32,62.5,5e5c993cd0394c474f7cc502,64c5699dae067f1f1081742c,64c7d074ea2da31575eb90b6,right,-1,0.95,0.35,3,-0.015236638,0.479,25,0,25,0,1,,,,,,,,,,
,,258866,001,2023-07-31_09h18.44.912,arm3_q,2022.2.5,Win32,62.5,5e5c993cd0394c474f7cc502,64c5699dae067f1f1081742c,64c7d074ea2da31575eb90b6,right,-1,0.95,0.35,3,-0.017369235,0.133,26,0,26,0,1,,,,,,,,,,
,,258866,001,2023-07-31_09h18.44.912,arm3_q,2022.2.5,Win32,62.5,5e5c993cd0394c474f7cc502,64c5699dae067f1f1081742c,64c7d074ea2da31575eb90b6,right,-1,0.95,0.35,3,-0.031885163,0.138,27,0,27,0,1,,,,,,,,,,
,,258866,001,2023-07-31_09h18.44.912,arm3_q,2022.2.5,Win32,62.5,5e5c993cd0394c474f7cc502,64c5699dae067f1f1081742c,64c7d074ea2da31575eb90b6,right,-1,0.95,0.35,3,-0.031372143,0.15,28,0,28,0,1,,,,,,,,,,
,,258866,001,2023-07-31_09h18.44.912,arm3_q,2022.2.5,Win32,62.5,5e5c993cd0394c474f7cc502,64c5699dae067f1f1081742c,64c7d074ea2da31575eb90b6,right,-1,0.95,0.35,3,-0.02886421,0.131,29,0,29,0,1,,,,,,,,,,
,,258866,001,2023-07-31_09h18.44.912,arm3_q,2022.2.5,Win32,62.5,5e5c993cd0394c474f7cc502,64c5699dae067f1f1081742c,64c7d074ea2da31575eb90b6,right,-1,0.95,0.35,3,-0.009364306,0.103,30,0,30,0,1,,,,,,,,,,
,,258866,001,2023-07-31_09h18.44.912,arm3_q,2022.2.5,Win32,62.5,5e5c993cd0394c474f7cc502,64c5699dae067f1f1081742c,64c7d074ea2da31575eb90b6,right,-1,0.95,0.35,3,-0.019563351,0.131,31,0,31,0,1,,,,,,,,,,
,,258866,001,2023-07-31_09h18.44.912,arm3_q,2022.2.5,Win32,62.5,5e5c993cd0394c474f7cc502,64c5699dae067f1f1081742c,64c7d074ea2da31575eb90b6,down,-1,0.95,0.35,4,0,0.463,32,0,32,0,1,,,,,,,,,,
,,258866,001,2023-07-31_09h18.44.912,arm3_q,2022.2.5,Win32,62.5,5e5c993cd0394c474f7cc502,64c5699dae067f1f1081742c,64c7d074ea2da31575eb90b6,right,-1,0.95,0.35,4,0.010072203,0.433,33,0,33,0,1,,,,,,,,,,
,,258866,001,2023-07-31_09h18.44.912,arm3_q,2022.2.5,Win32,62.5,5e5c993cd0394c474f7cc502,64c5699dae067f1f1081742c,64c7d074ea2da31575eb90b6,right,-1,0.95,0.35,4,0.026492149,0.131,34,0,34,0,1,,,,,,,,,,
,,258866,001,2023-07-31_09h18.44.912,arm3_q,2022.2.5,Win32,62.5,5e5c993cd0394c474f7cc502,64c5699dae067f1f1081742c,64c7d074ea2da31575eb90b6,right,-1,0.95,0.35,4,0.004387591,0.128,35,0,35,0,1,,,,,,,,,,
,,258866,001,2023-07-31_09h18.44.912,arm3_q,2022.2.5,Win32,62.5,5e5c993cd0394c474f7cc502,64c5699dae067f1f1081742c,64c7d074ea2da31575eb90b6,right,-1,0.95,0.35,4,0.003769524,0.14,36,0,36,0,1,,,,,,,,,,
,,258866,001,2023-07-31_09h18.44.912,arm3_q,2022.2.5,Win32,62.5,5e5c993cd0394c474f7cc502,64c5699dae067f1f1081742c,64c7d074ea2da31575eb90b6,right,-1,0.95,0.35,4,-0.015827005,0.133,37,0,37,0,1,,,,,,,,,,
,,258866,001,2023-07-31_09h18.44.912,arm3_q,2022.2.5,Win32,62.5,5e5c993cd0394c474f7cc502,64c5699dae067f1f1081742c,64c7d074ea2da31575eb90b6,right,-1,0.95,0.35,4,-0.011433444,0.114,38,0,38,0,1,,,,,,,,,,
,,258866,001,2023-07-31_09h18.44.912,arm3_q,2022.2.5,Win32,62.5,5e5c993cd0394c474f7cc502,64c5699dae067f1f1081742c,64c7d074ea2da31575eb90b6,right,-1,0.95,0.35,4,-0.020882501,0.112,39,0,39,0,1,,,,,,,,,,
,,258866,001,2023-07-31_09h18.44.912,arm3_q,2022.2.5,Win32,62.5,5e5c993cd0394c474f7cc502,64c5699dae067f1f1081742c,64c7d074ea2da31575eb90b6,up,1,0.95,0.35,3,0,0.515,40,0,40,0,1,,,,,,,,,,
,,258866,001,2023-07-31_09h18.44.912,arm3_q,2022.2.5,Win32,62.5,5e5c993cd0394c474f7cc502,64c5699dae067f1f1081742c,64c7d074ea2da31575eb90b6,right,1,0.95,0.35,3,-0.020601676,0.41,41,0,41,0,1,,,,,,,,,,
,,258866,001,2023-07-31_09h18.44.912,arm3_q,2022.2.5,Win32,62.5,5e5c993cd0394c474f7cc502,64c5699dae067f1f1081742c,64c7d074ea2da31575eb90b6,right,1,0.95,0.35,3,0.004537007,0.133,42,0,42,0,1,,,,,,,,,,
,,258866,001,2023-07-31_09h18.44.912,arm3_q,2022.2.5,Win32,62.5,5e5c993cd0394c474f7cc502,64c5699dae067f1f1081742c,64c7d074ea2da31575eb90b6,right,1,0.95,0.35,3,0.03145382,0.137,43,0,43,0,1,,,,,,,,,,
,,258866,001,2023-07-31_09h18.44.912,arm3_q,2022.2.5,Win32,62.5,5e5c993cd0394c474f7cc502,64c5699dae067f1f1081742c,64c7d074ea2da31575eb90b6,right,1,0.95,0.35,3,0.020073573,0.135,44,0,44,0,1,,,,,,,,,,
,,258866,001,2023-07-31_09h18.44.912,arm3_q,2022.2.5,Win32,62.5,5e5c993cd0394c474f7cc502,64c5699dae067f1f1081742c,64c7d074ea2da31575eb90b6,right,1,0.95,0.35,3,0.028992752,0.137,45,0,45,0,1,,,,,,,,,,
,,258866,001,2023-07-31_09h18.44.912,arm3_q,2022.2.5,Win32,62.5,5e5c993cd0394c474f7cc502,64c5699dae067f1f1081742c,64c7d074ea2da31575eb90b6,right,1,0.95,0.35,3,0.041046318,0.13,46,0,46,0,1,,,,,,,,,,
,,258866,001,2023-07-31_09h18.44.912,arm3_q,2022.2.5,Win32,62.5,5e5c993cd0394c474f7cc502,64c5699dae067f1f1081742c,64c7d074ea2da31575eb90b6,right,1,0.95,0.35,3,0.054200245,0.171,47,0,47,0,1,,,,,,,,,,
,,258866,001,2023-07-31_09h18.44.912,arm3_q,2022.2.5,Win32,62.5,5e5c993cd0394c474f7cc502,64c5699dae067f1f1081742c,64c7d074ea2da31575eb90b6,up,1,0.95,0.35,4,0,0.248,48,0,48,0,1,,,,,,,,,,
,,258866,001,2023-07-31_09h18.44.912,arm3_q,2022.2.5,Win32,62.5,5e5c993cd0394c474f7cc502,64c5699dae067f1f1081742c,64c7d074ea2da31575eb90b6,right,1,0.95,0.35,4,0.026460961,0.419,49,0,49,0,1,,,,,,,,,,
space,11.386,258866,001,2023-07-31_09h18.44.912,arm3_q,2022.2.5,Win32,62.5,5e5c993cd0394c474f7cc502,64c5699dae067f1f1081742c,64c7d074ea2da31575eb90b6,,,,,,,,,,,,,,,,,,,,,,
space,0.847,258866,001,2023-07-31_09h18.44.912,arm3_q,2022.2.5,Win32,62.5,5e5c993cd0394c474f7cc502,64c5699dae067f1f1081742c,64c7d074ea2da31575eb90b6,,,,,,,,,,,,,,,,,,,,,,
,,258866,001,2023-07-31_09h18.44.912,arm3_q,2022.2.5,Win32,62.5,5e5c993cd0394c474f7cc502,64c5699dae067f1f1081742c,64c7d074ea2da31575eb90b6,right,1,0.05,0.35,0,0.030994423,0.62,0,0,0,0,1,,,,,,,,,,
,,258866,001,2023-07-31_09h18.44.912,arm3_q,2022.2.5,Win32,62.5,5e5c993cd0394c474f7cc502,64c5699dae067f1f1081742c,64c7d074ea2da31575eb90b6,right,1,0.05,0.35,0,0.014525041,0.146,1,0,1,0,1,,,,,,,,,,
,,258866,001,2023-07-31_09h18.44.912,arm3_q,2022.2.5,Win32,62.5,5e5c993cd0394c474f7cc502,64c5699dae067f1f1081742c,64c7d074ea2da31575eb90b6,right,1,0.05,0.35,0,0.008165826,0.133,2,0,2,0,1,,,,,,,,,,
,,258866,001,2023-07-31_09h18.44.912,arm3_q,2022.2.5,Win32,62.5,5e5c993cd0394c474f7cc502,64c5699dae067f1f1081742c,64c7d074ea2da31575eb90b6,right,1,0.05,0.35,0,0.012120119,0.117,3,0,3,0,1,,,,,,,,,,
,,258866,001,2023-07-31_09h18.44.912,arm3_q,2022.2.5,Win32,62.5,5e5c993cd0394c474f7cc502,64c5699dae067f1f1081742c,64c7d074ea2da31575eb90b6,right,1,0.05,0.35,0,0.015388803,0.142,4,0,4,0,1,,,,,,,,,,
,,258866,001,2023-07-31_09h18.44.912,arm3_q,2022.2.5,Win32,62.5,5e5c993cd0394c474f7cc502,64c5699dae067f1f1081742c,64c7d074ea2da31575eb90b6,right,1,0.05,0.35,0,0.026339311,0.117,5,0,5,0,1,,,,,,,,,,
,,258866,001,2023-07-31_09h18.44.912,arm3_q,2022.2.5,Win32,62.5,5e5c993cd0394c474f7cc502,64c5699dae067f1f1081742c,64c7d074ea2da31575eb90b6,right,1,0.05,0.35,0,0.018059945,0.121,6,0,6,0,1,,,,,,,,,,
,,258866,001,2023-07-31_09h18.44.912,arm3_q,2022.2.5,Win32,62.5,5e5c993cd0394c474f7cc502,64c5699dae067f1f1081742c,64c7d074ea2da31575eb90b6,right,1,0.05,0.35,0,0.022723505,0.054,7,0,7,0,1,,,,,,,,,,
,,258866,001,2023-07-31_09h18.44.912,arm3_q,2022.2.5,Win32,62.5,5e5c993cd0394c474f7cc502,64c5699dae067f1f1081742c,64c7d074ea2da31575eb90b6,up,1,0.05,0.35,0,0,0.391,8,0,8,0,1,,,,,,,,,,
,,258866,001,2023-07-31_09h18.44.912,arm3_q,2022.2.5,Win32,62.5,5e5c993cd0394c474f7cc502,64c5699dae067f1f1081742c,64c7d074ea2da31575eb90b6,right,1,0.05,0.35,0,0.002806359,0.489,9,0,9,0,1,,,,,,,,,,
,,258866,001,2023-07-31_09h18.44.912,arm3_q,2022.2.5,Win32,62.5,5e5c993cd0394c474f7cc502,64c5699dae067f1f1081742c,64c7d074ea2da31575eb90b6,right,1,0.05,0.35,0,-0.003330643,0.137,10,0,10,0,1,,,,,,,,,,
,,258866,001,2023-07-31_09h18.44.912,arm3_q,2022.2.5,Win32,62.5,5e5c993cd0394c474f7cc502,64c5699dae067f1f1081742c,64c7d074ea2da31575eb90b6,right,1,0.05,0.35,0,0.036941455,0.123,11,0,11,0,1,,,,,,,,,,
,,258866,001,2023-07-31_09h18.44.912,arm3_q,2022.2.5,Win32,62.5,5e5c993cd0394c474f7cc502,64c5699dae067f1f1081742c,64c7d074ea2da31575eb90b6,right,1,0.05,0.35,0,0.02999309,0.135,12,0,12,0,1,,,,,,,,,,
,,258866,001,2023-07-31_09h18.44.912,arm3_q,2022.2.5,Win32,62.5,5e5c993cd0394c474f7cc502,64c5699dae067f1f1081742c,64c7d074ea2da31575eb90b6,right,1,0.05,0.35,0,0.011235879,0.071,13,0,13,0,1,,,,,,,,,,
,,258866,001,2023-07-31_09h18.44.912,arm3_q,2022.2.5,Win32,62.5,5e5c993cd0394c474f7cc502,64c5699dae067f1f1081742c,64c7d074ea2da31575eb90b6,right,1,0.05,0.35,0,0.004494823,0.142,14,0,14,0,1,,,,,,,,,,
,,258866,001,2023-07-31_09h18.44.912,arm3_q,2022.2.5,Win32,62.5,5e5c993cd0394c474f7cc502,64c5699dae067f1f1081742c,64c7d074ea2da31575eb90b6,right,1,0.05,0.35,0,-0.008513226,0.115,15,0,15,0,1,,,,,,,,,,
,,258866,001,2023-07-31_09h18.44.912,arm3_q,2022.2.5,Win32,62.5,5e5c993cd0394c474f7cc502,64c5699dae067f1f1081742c,64c7d074ea2da31575eb90b6,right,1,0.05,0.35,0,-0.01811651,0.099,16,0,16,0,1,,,,,,,,,,
,,258866,001,2023-07-31_09h18.44.912,arm3_q,2022.2.5,Win32,62.5,5e5c993cd0394c474f7cc502,64c5699dae067f1f1081742c,64c7d074ea2da31575eb90b6,down,-1,0.05,0.35,0,0,0.386,17,0,17,0,1,,,,,,,,,,
,,258866,001,2023-07-31_09h18.44.912,arm3_q,2022.2.5,Win32,62.5,5e5c993cd0394c474f7cc502,64c5699dae067f1f1081742c,64c7d074ea2da31575eb90b6,right,-1,0.05,0.35,0,-0.024630239,0.356,18,0,18,0,1,,,,,,,,,,
,,258866,001,2023-07-31_09h18.44.912,arm3_q,2022.2.5,Win32,62.5,5e5c993cd0394c474f7cc502,64c5699dae067f1f1081742c,64c7d074ea2da31575eb90b6,right,-1,0.05,0.35,0,-0.046109157,0.152,19,0,19,0,1,,,,,,,,,,
,,258866,001,2023-07-31_09h18.44.912,arm3_q,2022.2.5,Win32,62.5,5e5c993cd0394c474f7cc502,64c5699dae067f1f1081742c,64c7d074ea2da31575eb90b6,right,-1,0.05,0.35,0,-0.082889943,0.128,20,0,20,0,1,,,,,,,,,,
,,258866,001,2023-07-31_09h18.44.912,arm3_q,2022.2.5,Win32,62.5,5e5c993cd0394c474f7cc502,64c5699dae067f1f1081742c,64c7d074ea2da31575eb90b6,right,-1,0.05,0.35,0,-0.108676936,0.129,21,0,21,0,1,,,,,,,,,,
,,258866,001,2023-07-31_09h18.44.912,arm3_q,2022.2.5,Win32,62.5,5e5c993cd0394c474f7cc502,64c5699dae067f1f1081742c,64c7d074ea2da31575eb90b6,right,-1,0.05,0.35,0,-0.124351476,0.099,22,0,22,0,1,,,,,,,,,,
,,258866,001,2023-07-31_09h18.44.912,arm3_q,2022.2.5,Win32,62.5,5e5c993cd0394c474f7cc502,64c5699dae067f1f1081742c,64c7d074ea2da31575eb90b6,right,-1,0.05,0.35,0,-0.140472148,0.12,23,0,23,0,1,,,,,,,,,,
,,258866,001,2023-07-31_09h18.44.912,arm3_q,2022.2.5,Win32,62.5,5e5c993cd0394c474f7cc502,64c5699dae067f1f1081742c,64c7d074ea2da31575eb90b6,right,-1,0.05,0.35,0,-0.141072639,0.114,24,0,24,0,1,,,,,,,,,,
,,258866,001,2023-07-31_09h18.44.912,arm3_q,2022.2.5,Win32,62.5,5e5c993cd0394c474f7cc502,64c5699dae067f1f1081742c,64c7d074ea2da31575eb90b6,down,-1,0.05,0.35,0,0,0.245,25,0,25,0,1,,,,,,,,,,
,,258866,001,2023-07-31_09h18.44.912,arm3_q,2022.2.5,Win32,62.5,5e5c993cd0394c474f7cc502,64c5699dae067f1f1081742c,64c7d074ea2da31575eb90b6,right,-1,0.05,0.35,0,0.019734299,0.383,26,0,26,0,1,,,,,,,,,,
,,258866,001,2023-07-31_09h18.44.912,arm3_q,2022.2.5,Win32,62.5,5e5c993cd0394c474f7cc502,64c5699dae067f1f1081742c,64c7d074ea2da31575eb90b6,right,-1,0.05,0.35,0,0.001518625,0.148,27,0,27,0,1,,,,,,,,,,
,,258866,001,2023-07-31_09h18.44.912,arm3_q,2022.2.5,Win32,62.5,5e5c993cd0394c474f7cc502,64c5699dae067f1f1081742c,64c7d074ea2da31575eb90b6,right,-1,0.05,0.35,0,-0.037520804,0.12,28,0,28,0,1,,,,,,,,,,
,,258866,001,2023-07-31_09h18.44.912,arm3_q,2022.2.5,Win32,62.5,5e5c993cd0394c474f7cc502,64c5699dae067f1f1081742c,64c7d074ea2da31575eb90b6,right,-1,0.05,0.35,0,-0.057203865,0.147,29,0,29,0,1,,,,,,,,,,
,,258866,001,2023-07-31_09h18.44.912,arm3_q,2022.2.5,Win32,62.5,5e5c993cd0394c474f7cc502,64c5699dae067f1f1081742c,64c7d074ea2da31575eb90b6,right,-1,0.05,0.35,0,-0.058646871,0.13,30,0,30,0,1,,,,,,,,,,
,,258866,001,2023-07-31_09h18.44.912,arm3_q,2022.2.5,Win32,62.5,5e5c993cd0394c474f7cc502,64c5699dae067f1f1081742c,64c7d074ea2da31575eb90b6,right,-1,0.05,0.35,0,-0.042961359,0.101,31,0,31,0,1,,,,,,,,,,
,,258866,001,2023-07-31_09h18.44.912,arm3_q,2022.2.5,Win32,62.5,5e5c993cd0394c474f7cc502,64c5699dae067f1f1081742c,64c7d074ea2da31575eb90b6,right,-1,0.05,0.35,0,-0.06078643,0.163,32,0,32,0,1,,,,,,,,,,
,,258866,001,2023-07-31_09h18.44.912,arm3_q,2022.2.5,Win32,62.5,5e5c993cd0394c474f7cc502,64c5699dae067f1f1081742c,64c7d074ea2da31575eb90b6,right,-1,0.05,0.35,0,-0.035182634,0.118,33,0,33,0,1,,,,,,,,,,
,,258866,001,2023-07-31_09h18.44.912,arm3_q,2022.2.5,Win32,62.5,5e5c993cd0394c474f7cc502,64c5699dae067f1f1081742c,64c7d074ea2da31575eb90b6,down,-1,0.05,0.35,0,0,0.574,34,0,34,0,1,,,,,,,,,,
,,258866,001,2023-07-31_09h18.44.912,arm3_q,2022.2.5,Win32,62.5,5e5c993cd0394c474f7cc502,64c5699dae067f1f1081742c,64c7d074ea2da31575eb90b6,right,-1,0.05,0.35,0,-0.036375504,0.388,35,0,35,0,1,,,,,,,,,,
,,258866,001,2023-07-31_09h18.44.912,arm3_q,2022.2.5,Win32,62.5,5e5c993cd0394c474f7cc502,64c5699dae067f1f1081742c,64c7d074ea2da31575eb90b6,right,-1,0.05,0.35,0,-0.039008233,0.137,36,0,36,0,1,,,,,,,,,,
,,258866,001,2023-07-31_09h18.44.912,arm3_q,2022.2.5,Win32,62.5,5e5c993cd0394c474f7cc502,64c5699dae067f1f1081742c,64c7d074ea2da31575eb90b6,right,-1,0.05,0.35,0,-0.079686776,0.149,37,0,37,0,1,,,,,,,,,,
,,258866,001,2023-07-31_09h18.44.912,arm3_q,2022.2.5,Win32,62.5,5e5c993cd0394c474f7cc502,64c5699dae067f1f1081742c,64c7d074ea2da31575eb90b6,right,-1,0.05,0.35,0,-0.072500855,0.14,38,0,38,0,1,,,,,,,,,,
,,258866,001,2023-07-31_09h18.44.912,arm3_q,2022.2.5,Win32,62.5,5e5c993cd0394c474f7cc502,64c5699dae067f1f1081742c,64c7d074ea2da31575eb90b6,right,-1,0.05,0.35,0,-0.074531948,0.148,39,0,39,0,1,,,,,,,,,,
,,258866,001,2023-07-31_09h18.44.912,arm3_q,2022.2.5,Win32,62.5,5e5c993cd0394c474f7cc502,64c5699dae067f1f1081742c,64c7d074ea2da31575eb90b6,right,-1,0.05,0.35,0,-0.085393575,0.125,40,0,40,0,1,,,,,,,,,,
,,258866,001,2023-07-31_09h18.44.912,arm3_q,2022.2.5,Win32,62.5,5e5c993cd0394c474f7cc502,64c5699dae067f1f1081742c,64c7d074ea2da31575eb90b6,right,-1,0.05,0.35,0,-0.125944685,0.101,41,0,41,0,1,,,,,,,,,,
,,258866,001,2023-07-31_09h18.44.912,arm3_q,2022.2.5,Win32,62.5,5e5c993cd0394c474f7cc502,64c5699dae067f1f1081742c,64c7d074ea2da31575eb90b6,down,1,0.05,0.35,0,0,0.257,42,0,42,0,1,,,,,,,,,,
,,258866,001,2023-07-31_09h18.44.912,arm3_q,2022.2.5,Win32,62.5,5e5c993cd0394c474f7cc502,64c5699dae067f1f1081742c,64c7d074ea2da31575eb90b6,right,1,0.05,0.35,0,-0.003124942,0.387,43,0,43,0,1,,,,,,,,,,
,,258866,001,2023-07-31_09h18.44.912,arm3_q,2022.2.5,Win32,62.5,5e5c993cd0394c474f7cc502,64c5699dae067f1f1081742c,64c7d074ea2da31575eb90b6,right,1,0.05,0.35,0,-0.030898755,0.138,44,0,44,0,1,,,,,,,,,,
,,258866,001,2023-07-31_09h18.44.912,arm3_q,2022.2.5,Win32,62.5,5e5c993cd0394c474f7cc502,64c5699dae067f1f1081742c,64c7d074ea2da31575eb90b6,right,1,0.05,0.35,0,-0.058992697,0.14,45,0,45,0,1,,,,,,,,,,
,,258866,001,2023-07-31_09h18.44.912,arm3_q,2022.2.5,Win32,62.5,5e5c993cd0394c474f7cc502,64c5699dae067f1f1081742c,64c7d074ea2da31575eb90b6,right,1,0.05,0.35,0,-0.048010392,0.131,46,0,46,0,1,,,,,,,,,,
,,258866,001,2023-07-31_09h18.44.912,arm3_q,2022.2.5,Win32,62.5,5e5c993cd0394c474f7cc502,64c5699dae067f1f1081742c,64c7d074ea2da31575eb90b6,right,1,0.05,0.35,0,-0.049179529,0.123,47,0,47,0,1,,,,,,,,,,
,,258866,001,2023-07-31_09h18.44.912,arm3_q,2022.2.5,Win32,62.5,5e5c993cd0394c474f7cc502,64c5699dae067f1f1081742c,64c7d074ea2da31575eb90b6,right,1,0.05,0.35,0,-0.060471824,0.079,48,0,48,0,1,,,,,,,,,,
,,258866,001,2023-07-31_09h18.44.912,arm3_q,2022.2.5,Win32,62.5,5e5c993cd0394c474f7cc502,64c5699dae067f1f1081742c,64c7d074ea2da31575eb90b6,down,1,0.05,0.35,0,-0.060471824,0.504,49,0,49,0,1,,,,,,,,,,
space,1.104,258866,001,2023-07-31_09h18.44.912,arm3_q,2022.2.5,Win32,62.5,5e5c993cd0394c474f7cc502,64c5699dae067f1f1081742c,64c7d074ea2da31575eb90b6,,,,,,,,,,,,,,,,,,,,,,
space,2.217,258866,001,2023-07-31_09h18.44.912,arm3_q,2022.2.5,Win32,62.5,5e5c993cd0394c474f7cc502,64c5699dae067f1f1081742c,64c7d074ea2da31575eb90b6,right,1,0.6929,0.35,0,-0.00023599,0.621,,,,,,0,0,0,0,1,,,,,
,,258866,001,2023-07-31_09h18.44.912,arm3_q,2022.2.5,Win32,62.5,5e5c993cd0394c474f7cc502,64c5699dae067f1f1081742c,64c7d074ea2da31575eb90b6,right,1,0.6929,0.35,0,0.013619295,0.165,,,,,,1,0,1,0,1,,,,,
,,258866,001,2023-07-31_09h18.44.912,arm3_q,2022.2.5,Win32,62.5,5e5c993cd0394c474f7cc502,64c5699dae067f1f1081742c,64c7d074ea2da31575eb90b6,right,1,0.6929,0.35,0,0.035518966,0.103,,,,,,2,0,2,0,1,,,,,
,,258866,001,2023-07-31_09h18.44.912,arm3_q,2022.2.5,Win32,62.5,5e5c993cd0394c474f7cc502,64c5699dae067f1f1081742c,64c7d074ea2da31575eb90b6,right,1,0.6929,0.35,0,0.013365892,0.13,,,,,,3,0,3,0,1,,,,,
,,258866,001,2023-07-31_09h18.44.912,arm3_q,2022.2.5,Win32,62.5,5e5c993cd0394c474f7cc502,64c5699dae067f1f1081742c,64c7d074ea2da31575eb90b6,right,1,0.6929,0.35,0,0.001046311,0.112,,,,,,4,0,4,0,1,,,,,
,,258866,001,2023-07-31_09h18.44.912,arm3_q,2022.2.5,Win32,62.5,5e5c993cd0394c474f7cc502,64c5699dae067f1f1081742c,64c7d074ea2da31575eb90b6,right,1,0.6929,0.35,0,-0.015397225,0.071,,,,,,5,0,5,0,1,,,,,
,,258866,001,2023-07-31_09h18.44.912,arm3_q,2022.2.5,Win32,62.5,5e5c993cd0394c474f7cc502,64c5699dae067f1f1081742c,64c7d074ea2da31575eb90b6,down,1,0.6929,0.35,-1,0,0.244,,,,,,6,0,6,0,1,,,,,
,,258866,001,2023-07-31_09h18.44.912,arm3_q,2022.2.5,Win32,62.5,5e5c993cd0394c474f7cc502,64c5699dae067f1f1081742c,64c7d074ea2da31575eb90b6,right,1,0.6929,0.35,-1,0.001129238,0.535,,,,,,7,0,7,0,1,,,,,
,,258866,001,2023-07-31_09h18.44.912,arm3_q,2022.2.5,Win32,62.5,5e5c993cd0394c474f7cc502,64c5699dae067f1f1081742c,64c7d074ea2da31575eb90b6,right,1,0.6929,0.35,-1,0.029364778,0.148,,,,,,8,0,8,0,1,,,,,
,,258866,001,2023-07-31_09h18.44.912,arm3_q,2022.2.5,Win32,62.5,5e5c993cd0394c474f7cc502,64c5699dae067f1f1081742c,64c7d074ea2da31575eb90b6,right,1,0.6929,0.35,-1,0.049146145,0.136,,,,,,9,0,9,0,1,,,,,
,,258866,001,2023-07-31_09h18.44.912,arm3_q,2022.2.5,Win32,62.5,5e5c993cd0394c474f7cc502,64c5699dae067f1f1081742c,64c7d074ea2da31575eb90b6,right,1,0.6929,0.35,-1,0.053262246,0.135,,,,,,10,0,10,0,1,,,,,
,,258866,001,2023-07-31_09h18.44.912,arm3_q,2022.2.5,Win32,62.5,5e5c993cd0394c474f7cc502,64c5699dae067f1f1081742c,64c7d074ea2da31575eb90b6,right,1,0.6929,0.35,-1,0.060261185,0.138,,,,,,11,0,11,0,1,,,,,
,,258866,001,2023-07-31_09h18.44.912,arm3_q,2022.2.5,Win32,62.5,5e5c993cd0394c474f7cc502,64c5699dae067f1f1081742c,64c7d074ea2da31575eb90b6,up,1,0.6929,0.35,0,0,0.414,,,,,,12,0,12,0,1,,,,,
,,258866,001,2023-07-31_09h18.44.912,arm3_q,2022.2.5,Win32,62.5,5e5c993cd0394c474f7cc502,64c5699dae067f1f1081742c,64c7d074ea2da31575eb90b6,right,1,0.6929,0.35,0,0.000711001,0.422,,,,,,13,0,13,0,1,,,,,
,,258866,001,2023-07-31_09h18.44.912,arm3_q,2022.2.5,Win32,62.5,5e5c993cd0394c474f7cc502,64c5699dae067f1f1081742c,64c7d074ea2da31575eb90b6,right,1,0.6929,0.35,0,0.006425662,0.164,,,,,,14,0,14,0,1,,,,,
,,258866,001,2023-07-31_09h18.44.912,arm3_q,2022.2.5,Win32,62.5,5e5c993cd0394c474f7cc502,64c5699dae067f1f1081742c,64c7d074ea2da31575eb90b6,right,1,0.6929,0.35,0,-0.002769583,0.132,,,,,,15,0,15,0,1,,,,,
,,258866,001,2023-07-31_09h18.44.912,arm3_q,2022.2.5,Win32,62.5,5e5c993cd0394c474f7cc502,64c5699dae067f1f1081742c,64c7d074ea2da31575eb90b6,right,1,0.6929,0.35,0,0.022959745,0.12,,,,,,16,0,16,0,1,,,,,
,,258866,001,2023-07-31_09h18.44.912,arm3_q,2022.2.5,Win32,62.5,5e5c993cd0394c474f7cc502,64c5699dae067f1f1081742c,64c7d074ea2da31575eb90b6,right,1,0.6929,0.35,0,0.04624076,0.119,,,,,,17,0,17,0,1,,,,,
,,258866,001,2023-07-31_09h18.44.912,arm3_q,2022.2.5,Win32,62.5,5e5c993cd0394c474f7cc502,64c5699dae067f1f1081742c,64c7d074ea2da31575eb90b6,right,1,0.6929,0.35,0,0.055510886,0.176,,,,,,18,0,18,0,1,,,,,
,,258866,001,2023-07-31_09h18.44.912,arm3_q,2022.2.5,Win32,62.5,5e5c993cd0394c474f7cc502,64c5699dae067f1f1081742c,64c7d074ea2da31575eb90b6,right,1,0.6929,0.35,0,0.081364874,0.099,,,,,,19,0,19,0,1,,,,,
,,258866,001,2023-07-31_09h18.44.912,arm3_q,2022.2.5,Win32,62.5,5e5c993cd0394c474f7cc502,64c5699dae067f1f1081742c,64c7d074ea2da31575eb90b6,up,1,0.6929,0.35,1,0,0.553,,,,,,20,0,20,0,1,,,,,
,,258866,001,2023-07-31_09h18.44.912,arm3_q,2022.2.5,Win32,62.5,5e5c993cd0394c474f7cc502,64c5699dae067f1f1081742c,64c7d074ea2da31575eb90b6,right,1,0.6929,0.35,1,0.054893395,0.396,,,,,,21,0,21,0,1,,,,,
,,258866,001,2023-07-31_09h18.44.912,arm3_q,2022.2.5,Win32,62.5,5e5c993cd0394c474f7cc502,64c5699dae067f1f1081742c,64c7d074ea2da31575eb90b6,right,1,0.6929,0.35,1,0.044943528,0.13,,,,,,22,0,22,0,1,,,,,
,,258866,001,2023-07-31_09h18.44.912,arm3_q,2022.2.5,Win32,62.5,5e5c993cd0394c474f7cc502,64c5699dae067f1f1081742c,64c7d074ea2da31575eb90b6,right,1,0.6929,0.35,1,0.021761466,0.128,,,,,,23,0,23,0,1,,,,,
,,258866,001,2023-07-31_09h18.44.912,arm3_q,2022.2.5,Win32,62.5,5e5c993cd0394c474f7cc502,64c5699dae067f1f1081742c,64c7d074ea2da31575eb90b6,right,1,0.6929,0.35,1,0.04277558,0.136,,,,,,24,0,24,0,1,,,,,
,,258866,001,2023-07-31_09h18.44.912,arm3_q,2022.2.5,Win32,62.5,5e5c993cd0394c474f7cc502,64c5699dae067f1f1081742c,64c7d074ea2da31575eb90b6,right,1,0.6929,0.35,1,0.034800505,0.131,,,,,,25,0,25,0,1,,,,,
,,258866,001,2023-07-31_09h18.44.912,arm3_q,2022.2.5,Win32,62.5,5e5c993cd0394c474f7cc502,64c5699dae067f1f1081742c,64c7d074ea2da31575eb90b6,right,1,0.6929,0.35,1,0.047490526,0.056,,,,,,26,0,26,0,1,,,,,
,,258866,001,2023-07-31_09h18.44.912,arm3_q,2022.2.5,Win32,62.5,5e5c993cd0394c474f7cc502,64c5699dae067f1f1081742c,64c7d074ea2da31575eb90b6,right,1,0.6929,0.35,1,0.050497902,0.138,,,,,,27,0,27,0,1,,,,,
,,258866,001,2023-07-31_09h18.44.912,arm3_q,2022.2.5,Win32,62.5,5e5c993cd0394c474f7cc502,64c5699dae067f1f1081742c,64c7d074ea2da31575eb90b6,up,-1,0.6929,0.35,2,0,0.32,,,,,,28,0,28,0,1,,,,,
,,258866,001,2023-07-31_09h18.44.912,arm3_q,2022.2.5,Win32,62.5,5e5c993cd0394c474f7cc502,64c5699dae067f1f1081742c,64c7d074ea2da31575eb90b6,right,-1,0.6929,0.35,2,-0.010278034,0.421,,,,,,29,0,29,0,1,,,,,
,,258866,001,2023-07-31_09h18.44.912,arm3_q,2022.2.5,Win32,62.5,5e5c993cd0394c474f7cc502,64c5699dae067f1f1081742c,64c7d074ea2da31575eb90b6,right,-1,0.6929,0.35,2,-0.007485082,0.129,,,,,,30,0,30,0,1,,,,,
,,258866,001,2023-07-31_09h18.44.912,arm3_q,2022.2.5,Win32,62.5,5e5c993cd0394c474f7cc502,64c5699dae067f1f1081742c,64c7d074ea2da31575eb90b6,right,-1,0.6929,0.35,2,-0.035250968,0.118,,,,,,31,0,31,0,1,,,,,
,,258866,001,2023-07-31_09h18.44.912,arm3_q,2022.2.5,Win32,62.5,5e5c993cd0394c474f7cc502,64c5699dae067f1f1081742c,64c7d074ea2da31575eb90b6,right,-1,0.6929,0.35,2,-0.053141944,0.13,,,,,,32,0,32,0,1,,,,,
,,258866,001,2023-07-31_09h18.44.912,arm3_q,2022.2.5,Win32,62.5,5e5c993cd0394c474f7cc502,64c5699dae067f1f1081742c,64c7d074ea2da31575eb90b6,right,-1,0.6929,0.35,2,-0.094921531,0.083,,,,,,33,0,33,0,1,,,,,
,,258866,001,2023-07-31_09h18.44.912,arm3_q,2022.2.5,Win32,62.5,5e5c993cd0394c474f7cc502,64c5699dae067f1f1081742c,64c7d074ea2da31575eb90b6,right,-1,0.6929,0.35,2,-0.131447322,0.115,,,,,,34,0,34,0,1,,,,,
,,258866,001,2023-07-31_09h18.44.912,arm3_q,2022.2.5,Win32,62.5,5e5c993cd0394c474f7cc502,64c5699dae067f1f1081742c,64c7d074ea2da31575eb90b6,down,-1,0.6929,0.35,3,0,0.325,,,,,,35,0,35,0,1,,,,,
,,258866,001,2023-07-31_09h18.44.912,arm3_q,2022.2.5,Win32,62.5,5e5c993cd0394c474f7cc502,64c5699dae067f1f1081742c,64c7d074ea2da31575eb90b6,right,-1,0.6929,0.35,3,-0.005586805,0.431,,,,,,36,0,36,0,1,,,,,
,,258866,001,2023-07-31_09h18.44.912,arm3_q,2022.2.5,Win32,62.5,5e5c993cd0394c474f7cc502,64c5699dae067f1f1081742c,64c7d074ea2da31575eb90b6,right,-1,0.6929,0.35,3,-0.017897925,0.134,,,,,,37,0,37,0,1,,,,,
,,258866,001,2023-07-31_09h18.44.912,arm3_q,2022.2.5,Win32,62.5,5e5c993cd0394c474f7cc502,64c5699dae067f1f1081742c,64c7d074ea2da31575eb90b6,right,-1,0.6929,0.35,3,-0.015672699,0.125,,,,,,38,0,38,0,1,,,,,
,,258866,001,2023-07-31_09h18.44.912,arm3_q,2022.2.5,Win32,62.5,5e5c993cd0394c474f7cc502,64c5699dae067f1f1081742c,64c7d074ea2da31575eb90b6,right,-1,0.6929,0.35,3,-0.022382757,0.152,,,,,,39,0,39,0,1,,,,,
,,258866,001,2023-07-31_09h18.44.912,arm3_q,2022.2.5,Win32,62.5,5e5c993cd0394c474f7cc502,64c5699dae067f1f1081742c,64c7d074ea2da31575eb90b6,right,-1,0.6929,0.35,3,-0.066023734,0.139,,,,,,40,0,40,0,1,,,,,
,,258866,001,2023-07-31_09h18.44.912,arm3_q,2022.2.5,Win32,62.5,5e5c993cd0394c474f7cc502,64c5699dae067f1f1081742c,64c7d074ea2da31575eb90b6,down,1,0.6929,0.35,4,0,0.232,,,,,,41,0,41,0,1,,,,,
,,258866,001,2023-07-31_09h18.44.912,arm3_q,2022.2.5,Win32,62.5,5e5c993cd0394c474f7cc502,64c5699dae067f1f1081742c,64c7d074ea2da31575eb90b6,right,1,0.6929,0.35,4,0.00016078,0.462,,,,,,42,0,42,0,1,,,,,
,,258866,001,2023-07-31_09h18.44.912,arm3_q,2022.2.5,Win32,62.5,5e5c993cd0394c474f7cc502,64c5699dae067f1f1081742c,64c7d074ea2da31575eb90b6,right,1,0.6929,0.35,4,0.044768932,0.115,,,,,,43,0,43,0,1,,,,,
,,258866,001,2023-07-31_09h18.44.912,arm3_q,2022.2.5,Win32,62.5,5e5c993cd0394c474f7cc502,64c5699dae067f1f1081742c,64c7d074ea2da31575eb90b6,right,1,0.6929,0.35,4,0.093109574,0.148,,,,,,44,0,44,0,1,,,,,
,,258866,001,2023-07-31_09h18.44.912,arm3_q,2022.2.5,Win32,62.5,5e5c993cd0394c474f7cc502,64c5699dae067f1f1081742c,64c7d074ea2da31575eb90b6,right,1,0.6929,0.35,4,0.104743504,0.148,,,,,,45,0,45,0,1,,,,,
,,258866,001,2023-07-31_09h18.44.912,arm3_q,2022.2.5,Win32,62.5,5e5c993cd0394c474f7cc502,64c5699dae067f1f1081742c,64c7d074ea2da31575eb90b6,right,1,0.6929,0.35,4,0.123026117,0.132,,,,,,46,0,46,0,1,,,,,
,,258866,001,2023-07-31_09h18.44.912,arm3_q,2022.2.5,Win32,62.5,5e5c993cd0394c474f7cc502,64c5699dae067f1f1081742c,64c7d074ea2da31575eb90b6,up,1,0.6929,0.35,5,0,0.184,,,,,,47,0,47,0,1,,,,,
,,258866,001,2023-07-31_09h18.44.912,arm3_q,2022.2.5,Win32,62.5,5e5c993cd0394c474f7cc502,64c5699dae067f1f1081742c,64c7d074ea2da31575eb90b6,right,1,0.6929,0.35,5,-0.02443732,0.502,,,,,,48,0,48,0,1,,,,,
,,258866,001,2023-07-31_09h18.44.912,arm3_q,2022.2.5,Win32,62.5,5e5c993cd0394c474f7cc502,64c5699dae067f1f1081742c,64c7d074ea2da31575eb90b6,right,1,0.6929,0.35,5,-0.01255312,0.156,,,,,,49,0,49,0,1,,,,,
,,258866,001,2023-07-31_09h18.44.912,arm3_q,2022.2.5,Win32,62.5,5e5c993cd0394c474f7cc502,64c5699dae067f1f1081742c,64c7d074ea2da31575eb90b6,right,1,0.6929,0.35,5,-0.034078112,0.146,,,,,,50,0,50,0,1,,,,,
,,258866,001,2023-07-31_09h18.44.912,arm3_q,2022.2.5,Win32,62.5,5e5c993cd0394c474f7cc502,64c5699dae067f1f1081742c,64c7d074ea2da31575eb90b6,right,1,0.6929,0.35,5,-0.043015923,0.117,,,,,,51,0,51,0,1,,,,,
,,258866,001,2023-07-31_09h18.44.912,arm3_q,2022.2.5,Win32,62.5,5e5c993cd0394c474f7cc502,64c5699dae067f1f1081742c,64c7d074ea2da31575eb90b6,right,1,0.6929,0.35,5,-0.042226741,0.285,,,,,,52,0,52,0,1,,,,,
,,258866,001,2023-07-31_09h18.44.912,arm3_q,2022.2.5,Win32,62.5,5e5c993cd0394c474f7cc502,64c5699dae067f1f1081742c,64c7d074ea2da31575eb90b6,down,-1,0.6929,0.35,4,0,0.274,,,,,,53,0,53,0,1,,,,,
,,258866,001,2023-07-31_09h18.44.912,arm3_q,2022.2.5,Win32,62.5,5e5c993cd0394c474f7cc502,64c5699dae067f1f1081742c,64c7d074ea2da31575eb90b6,right,-1,0.6929,0.35,4,0.025949578,0.651,,,,,,54,0,54,0,1,,,,,
,,258866,001,2023-07-31_09h18.44.912,arm3_q,2022.2.5,Win32,62.5,5e5c993cd0394c474f7cc502,64c5699dae067f1f1081742c,64c7d074ea2da31575eb90b6,right,-1,0.6929,0.35,4,0.022590954,0.139,,,,,,55,0,55,0,1,,,,,
,,258866,001,2023-07-31_09h18.44.912,arm3_q,2022.2.5,Win32,62.5,5e5c993cd0394c474f7cc502,64c5699dae067f1f1081742c,64c7d074ea2da31575eb90b6,right,-1,0.6929,0.35,4,0.007920656,0.147,,,,,,56,0,56,0,1,,,,,
,,258866,001,2023-07-31_09h18.44.912,arm3_q,2022.2.5,Win32,62.5,5e5c993cd0394c474f7cc502,64c5699dae067f1f1081742c,64c7d074ea2da31575eb90b6,right,-1,0.6929,0.35,4,0.01247955,0.133,,,,,,57,0,57,0,1,,,,,
,,258866,001,2023-07-31_09h18.44.912,arm3_q,2022.2.5,Win32,62.5,5e5c993cd0394c474f7cc502,64c5699dae067f1f1081742c,64c7d074ea2da31575eb90b6,right,-1,0.6929,0.35,4,-0.020592439,0.137,,,,,,58,0,58,0,1,,,,,
,,258866,001,2023-07-31_09h18.44.912,arm3_q,2022.2.5,Win32,62.5,5e5c993cd0394c474f7cc502,64c5699dae067f1f1081742c,64c7d074ea2da31575eb90b6,right,-1,0.6929,0.35,4,-0.046248674,0.147,,,,,,59,0,59,0,1,,,,,
,,258866,001,2023-07-31_09h18.44.912,arm3_q,2022.2.5,Win32,62.5,5e5c993cd0394c474f7cc502,64c5699dae067f1f1081742c,64c7d074ea2da31575eb90b6,right,-1,0.6929,0.35,4,-0.023638219,1.158,,,,,,60,0,60,0,1,,,,,
,,258866,001,2023-07-31_09h18.44.912,arm3_q,2022.2.5,Win32,62.5,5e5c993cd0394c474f7cc502,64c5699dae067f1f1081742c,64c7d074ea2da31575eb90b6,right,-1,0.6929,0.35,4,-0.072599254,0.323,,,,,,61,0,61,0,1,,,,,
,,258866,001,2023-07-31_09h18.44.912,arm3_q,2022.2.5,Win32,62.5,5e5c993cd0394c474f7cc502,64c5699dae067f1f1081742c,64c7d074ea2da31575eb90b6,down,1,0.6929,0.35,5,0,0.44,,,,,,62,0,62,0,1,,,,,
,,258866,001,2023-07-31_09h18.44.912,arm3_q,2022.2.5,Win32,62.5,5e5c993cd0394c474f7cc502,64c5699dae067f1f1081742c,64c7d074ea2da31575eb90b6,right,1,0.6929,0.35,5,0.0225064,0.504,,,,,,63,0,63,0,1,,,,,
,,258866,001,2023-07-31_09h18.44.912,arm3_q,2022.2.5,Win32,62.5,5e5c993cd0394c474f7cc502,64c5699dae067f1f1081742c,64c7d074ea2da31575eb90b6,right,1,0.6929,0.35,5,0.044480466,0.148,,,,,,64,0,64,0,1,,,,,
,,258866,001,2023-07-31_09h18.44.912,arm3_q,2022.2.5,Win32,62.5,5e5c993cd0394c474f7cc502,64c5699dae067f1f1081742c,64c7d074ea2da31575eb90b6,right,1,0.6929,0.35,5,0.041921649,0.132,,,,,,65,0,65,0,1,,,,,
,,258866,001,2023-07-31_09h18.44.912,arm3_q,2022.2.5,Win32,62.5,5e5c993cd0394c474f7cc502,64c5699dae067f1f1081742c,64c7d074ea2da31575eb90b6,right,1,0.6929,0.35,5,0.053976334,0.125,,,,,,66,0,66,0,1,,,,,
,,258866,001,2023-07-31_09h18.44.912,arm3_q,2022.2.5,Win32,62.5,5e5c993cd0394c474f7cc502,64c5699dae067f1f1081742c,64c7d074ea2da31575eb90b6,right,1,0.6929,0.35,5,0.059597633,0.149,,,,,,67,0,67,0,1,,,,,
,,258866,001,2023-07-31_09h18.44.912,arm3_q,2022.2.5,Win32,62.5,5e5c993cd0394c474f7cc502,64c5699dae067f1f1081742c,64c7d074ea2da31575eb90b6,right,1,0.6929,0.35,5,0.069816643,0.118,,,,,,68,0,68,0,1,,,,,
,,258866,001,2023-07-31_09h18.44.912,arm3_q,2022.2.5,Win32,62.5,5e5c993cd0394c474f7cc502,64c5699dae067f1f1081742c,64c7d074ea2da31575eb90b6,up,-1,0.6929,0.35,5,0,0.418,,,,,,69,0,69,0,1,,,,,
,,258866,001,2023-07-31_09h18.44.912,arm3_q,2022.2.5,Win32,62.5,5e5c993cd0394c474f7cc502,64c5699dae067f1f1081742c,64c7d074ea2da31575eb90b6,right,-1,0.6929,0.35,5,-0.029181648,0.771,,,,,,70,0,70,0,1,,,,,
,,258866,001,2023-07-31_09h18.44.912,arm3_q,2022.2.5,Win32,62.5,5e5c993cd0394c474f7cc502,64c5699dae067f1f1081742c,64c7d074ea2da31575eb90b6,right,-1,0.6929,0.35,5,-0.012660824,0.156,,,,,,71,0,71,0,1,,,,,
,,258866,001,2023-07-31_09h18.44.912,arm3_q,2022.2.5,Win32,62.5,5e5c993cd0394c474f7cc502,64c5699dae067f1f1081742c,64c7d074ea2da31575eb90b6,right,-1,0.6929,0.35,5,-0.032095128,0.141,,,,,,72,0,72,0,1,,,,,
,,258866,001,2023-07-31_09h18.44.912,arm3_q,2022.2.5,Win32,62.5,5e5c993cd0394c474f7cc502,64c5699dae067f1f1081742c,64c7d074ea2da31575eb90b6,right,-1,0.6929,0.35,5,-0.054428544,0.15,,,,,,73,0,73,0,1,,,,,
,,258866,001,2023-07-31_09h18.44.912,arm3_q,2022.2.5,Win32,62.5,5e5c993cd0394c474f7cc502,64c5699dae067f1f1081742c,64c7d074ea2da31575eb90b6,right,-1,0.6929,0.35,5,-0.087690057,0.12,,,,,,74,0,74,0,1,,,,,
,,258866,001,2023-07-31_09h18.44.912,arm3_q,2022.2.5,Win32,62.5,5e5c993cd0394c474f7cc502,64c5699dae067f1f1081742c,64c7d074ea2da31575eb90b6,down,-1,0.6929,0.35,5,0,0.233,,,,,,75,0,75,0,1,,,,,
,,258866,001,2023-07-31_09h18.44.912,arm3_q,2022.2.5,Win32,62.5,5e5c993cd0394c474f7cc502,64c5699dae067f1f1081742c,64c7d074ea2da31575eb90b6,right,-1,0.6929,0.35,5,-0.039375991,0.758,,,,,,76,0,76,0,1,,,,,
,,258866,001,2023-07-31_09h18.44.912,arm3_q,2022.2.5,Win32,62.5,5e5c993cd0394c474f7cc502,64c5699dae067f1f1081742c,64c7d074ea2da31575eb90b6,right,-1,0.6929,0.35,5,-0.045193078,0.152,,,,,,77,0,77,0,1,,,,,
,,258866,001,2023-07-31_09h18.44.912,arm3_q,2022.2.5,Win32,62.5,5e5c993cd0394c474f7cc502,64c5699dae067f1f1081742c,64c7d074ea2da31575eb90b6,right,-1,0.6929,0.35,5,-0.040042682,0.135,,,,,,78,0,78,0,1,,,,,
,,258866,001,2023-07-31_09h18.44.912,arm3_q,2022.2.5,Win32,62.5,5e5c993cd0394c474f7cc502,64c5699dae067f1f1081742c,64c7d074ea2da31575eb90b6,right,-1,0.6929,0.35,5,-0.0368033,0.131,,,,,,79,0,79,0,1,,,,,
,,258866,001,2023-07-31_09h18.44.912,arm3_q,2022.2.5,Win32,62.5,5e5c993cd0394c474f7cc502,64c5699dae067f1f1081742c,64c7d074ea2da31575eb90b6,right,-1,0.6929,0.35,5,-0.009561163,0.12,,,,,,80,0,80,0,1,,,,,
,,258866,001,2023-07-31_09h18.44.912,arm3_q,2022.2.5,Win32,62.5,5e5c993cd0394c474f7cc502,64c5699dae067f1f1081742c,64c7d074ea2da31575eb90b6,up,-1,0.6929,0.35,4,0,0.48,,,,,,81,0,81,0,1,,,,,
,,258866,001,2023-07-31_09h18.44.912,arm3_q,2022.2.5,Win32,62.5,5e5c993cd0394c474f7cc502,64c5699dae067f1f1081742c,64c7d074ea2da31575eb90b6,right,-1,0.6929,0.35,4,-0.02074722,0.514,,,,,,82,0,82,0,1,,,,,
,,258866,001,2023-07-31_09h18.44.912,arm3_q,2022.2.5,Win32,62.5,5e5c993cd0394c474f7cc502,64c5699dae067f1f1081742c,64c7d074ea2da31575eb90b6,right,-1,0.6929,0.35,4,-0.044739269,0.136,,,,,,83,0,83,0,1,,,,,
,,258866,001,2023-07-31_09h18.44.912,arm3_q,2022.2.5,Win32,62.5,5e5c993cd0394c474f7cc502,64c5699dae067f1f1081742c,64c7d074ea2da31575eb90b6,right,-1,0.6929,0.35,4,-0.064013732,0.137,,,,,,84,0,84,0,1,,,,,
,,258866,001,2023-07-31_09h18.44.912,arm3_q,2022.2.5,Win32,62.5,5e5c993cd0394c474f7cc502,64c5699dae067f1f1081742c,64c7d074ea2da31575eb90b6,right,-1,0.6929,0.35,4,-0.057319632,0.14,,,,,,85,0,85,0,1,,,,,
,,258866,001,2023-07-31_09h18.44.912,arm3_q,2022.2.5,Win32,62.5,5e5c993cd0394c474f7cc502,64c5699dae067f1f1081742c,64c7d074ea2da31575eb90b6,right,-1,0.6929,0.35,4,-0.088092747,0.124,,,,,,86,0,86,0,1,,,,,
,,258866,001,2023-07-31_09h18.44.912,arm3_q,2022.2.5,Win32,62.5,5e5c993cd0394c474f7cc502,64c5699dae067f1f1081742c,64c7d074ea2da31575eb90b6,right,-1,0.6929,0.35,4,-0.120329018,0.131,,,,,,87,0,87,0,1,,,,,
,,258866,001,2023-07-31_09h18.44.912,arm3_q,2022.2.5,Win32,62.5,5e5c993cd0394c474f7cc502,64c5699dae067f1f1081742c,64c7d074ea2da31575eb90b6,down,-1,0.6929,0.35,4,0,0.252,,,,,,88,0,88,0,1,,,,,
,,258866,001,2023-07-31_09h18.44.912,arm3_q,2022.2.5,Win32,62.5,5e5c993cd0394c474f7cc502,64c5699dae067f1f1081742c,64c7d074ea2da31575eb90b6,right,-1,0.6929,0.35,4,0.003485993,0.514,,,,,,89,0,89,0,1,,,,,
,,258866,001,2023-07-31_09h18.44.912,arm3_q,2022.2.5,Win32,62.5,5e5c993cd0394c474f7cc502,64c5699dae067f1f1081742c,64c7d074ea2da31575eb90b6,right,-1,0.6929,0.35,4,-0.026948271,0.138,,,,,,90,0,90,0,1,,,,,
,,258866,001,2023-07-31_09h18.44.912,arm3_q,2022.2.5,Win32,62.5,5e5c993cd0394c474f7cc502,64c5699dae067f1f1081742c,64c7d074ea2da31575eb90b6,right,-1,0.6929,0.35,4,-0.048081439,0.139,,,,,,91,0,91,0,1,,,,,
,,258866,001,2023-07-31_09h18.44.912,arm3_q,2022.2.5,Win32,62.5,5e5c993cd0394c474f7cc502,64c5699dae067f1f1081742c,64c7d074ea2da31575eb90b6,right,-1,0.6929,0.35,4,-0.038964307,0.145,,,,,,92,0,92,0,1,,,,,
,,258866,001,2023-07-31_09h18.44.912,arm3_q,2022.2.5,Win32,62.5,5e5c993cd0394c474f7cc502,64c5699dae067f1f1081742c,64c7d074ea2da31575eb90b6,right,-1,0.6929,0.35,4,-0.026740517,0.12,,,,,,93,0,93,0,1,,,,,
,,258866,001,2023-07-31_09h18.44.912,arm3_q,2022.2.5,Win32,62.5,5e5c993cd0394c474f7cc502,64c5699dae067f1f1081742c,64c7d074ea2da31575eb90b6,right,-1,0.6929,0.35,4,-0.047865114,0.121,,,,,,94,0,94,0,1,,,,,
,,258866,001,2023-07-31_09h18.44.912,arm3_q,2022.2.5,Win32,62.5,5e5c993cd0394c474f7cc502,64c5699dae067f1f1081742c,64c7d074ea2da31575eb90b6,down,-1,0.6929,0.35,5,0,0.489,,,,,,95,0,95,0,1,,,,,
,,258866,001,2023-07-31_09h18.44.912,arm3_q,2022.2.5,Win32,62.5,5e5c993cd0394c474f7cc502,64c5699dae067f1f1081742c,64c7d074ea2da31575eb90b6,right,-1,0.6929,0.35,5,0.012929234,0.537,,,,,,96,0,96,0,1,,,,,
,,258866,001,2023-07-31_09h18.44.912,arm3_q,2022.2.5,Win32,62.5,5e5c993cd0394c474f7cc502,64c5699dae067f1f1081742c,64c7d074ea2da31575eb90b6,right,-1,0.6929,0.35,5,0.004030296,0.15,,,,,,97,0,97,0,1,,,,,
,,258866,001,2023-07-31_09h18.44.912,arm3_q,2022.2.5,Win32,62.5,5e5c993cd0394c474f7cc502,64c5699dae067f1f1081742c,64c7d074ea2da31575eb90b6,right,-1,0.6929,0.35,5,0.000313043,0.14,,,,,,98,0,98,0,1,,,,,
,,258866,001,2023-07-31_09h18.44.912,arm3_q,2022.2.5,Win32,62.5,5e5c993cd0394c474f7cc502,64c5699dae067f1f1081742c,64c7d074ea2da31575eb90b6,right,-1,0.6929,0.35,5,0.003550132,0.102,,,,,,99,0,99,0,1,,,,,
,,258866,001,2023-07-31_09h18.44.912,arm3_q,2022.2.5,Win32,62.5,5e5c993cd0394c474f7cc502,64c5699dae067f1f1081742c,64c7d074ea2da31575eb90b6,right,-1,0.6929,0.35,5,0.021353042,0.164,,,,,,100,0,100,0,1,,,,,
,,258866,001,2023-07-31_09h18.44.912,arm3_q,2022.2.5,Win32,62.5,5e5c993cd0394c474f7cc502,64c5699dae067f1f1081742c,64c7d074ea2da31575eb90b6,right,-1,0.6929,0.35,5,0.051674507,0.149,,,,,,101,0,101,0,1,,,,,
,,258866,001,2023-07-31_09h18.44.912,arm3_q,2022.2.5,Win32,62.5,5e5c993cd0394c474f7cc502,64c5699dae067f1f1081742c,64c7d074ea2da31575eb90b6,right,-1,0.6929,0.35,5,0.008151383,0.866,,,,,,102,0,102,0,1,,,,,
,,258866,001,2023-07-31_09h18.44.912,arm3_q,2022.2.5,Win32,62.5,5e5c993cd0394c474f7cc502,64c5699dae067f1f1081742c,64c7d074ea2da31575eb90b6,right,-1,0.6929,0.35,5,0.023292844,0.39,,,,,,103,0,103,0,1,,,,,
,,258866,001,2023-07-31_09h18.44.912,arm3_q,2022.2.5,Win32,62.5,5e5c993cd0394c474f7cc502,64c5699dae067f1f1081742c,64c7d074ea2da31575eb90b6,right,-1,0.6929,0.35,5,0.006071471,0.413,,,,,,104,0,104,0,1,,,,,
,,258866,001,2023-07-31_09h18.44.912,arm3_q,2022.2.5,Win32,62.5,5e5c993cd0394c474f7cc502,64c5699dae067f1f1081742c,64c7d074ea2da31575eb90b6,down,1,0.6929,0.35,6,0,0.336,,,,,,105,0,105,0,1,,,,,
,,258866,001,2023-07-31_09h18.44.912,arm3_q,2022.2.5,Win32,62.5,5e5c993cd0394c474f7cc502,64c5699dae067f1f1081742c,64c7d074ea2da31575eb90b6,right,1,0.6929,0.35,6,0.02049144,0.553,,,,,,106,0,106,0,1,,,,,
,,258866,001,2023-07-31_09h18.44.912,arm3_q,2022.2.5,Win32,62.5,5e5c993cd0394c474f7cc502,64c5699dae067f1f1081742c,64c7d074ea2da31575eb90b6,right,1,0.6929,0.35,6,-0.001554244,0.139,,,,,,107,0,107,0,1,,,,,
,,258866,001,2023-07-31_09h18.44.912,arm3_q,2022.2.5,Win32,62.5,5e5c993cd0394c474f7cc502,64c5699dae067f1f1081742c,64c7d074ea2da31575eb90b6,right,1,0.6929,0.35,6,-0.003654831,0.151,,,,,,108,0,108,0,1,,,,,
,,258866,001,2023-07-31_09h18.44.912,arm3_q,2022.2.5,Win32,62.5,5e5c993cd0394c474f7cc502,64c5699dae067f1f1081742c,64c7d074ea2da31575eb90b6,right,1,0.6929,0.35,6,0.023652013,0.133,,,,,,109,0,109,0,1,,,,,
,,258866,001,2023-07-31_09h18.44.912,arm3_q,2022.2.5,Win32,62.5,5e5c993cd0394c474f7cc502,64c5699dae067f1f1081742c,64c7d074ea2da31575eb90b6,right,1,0.6929,0.35,6,0.041119609,0.132,,,,,,110,0,110,0,1,,,,,
,,258866,001,2023-07-31_09h18.44.912,arm3_q,2022.2.5,Win32,62.5,5e5c993cd0394c474f7cc502,64c5699dae067f1f1081742c,64c7d074ea2da31575eb90b6,up,1,0.6929,0.35,6,0,0.399,,,,,,111,0,111,0,1,,,,,
,,258866,001,2023-07-31_09h18.44.912,arm3_q,2022.2.5,Win32,62.5,5e5c993cd0394c474f7cc502,64c5699dae067f1f1081742c,64c7d074ea2da31575eb90b6,right,1,0.6929,0.35,6,0.026144275,0.562,,,,,,112,0,112,0,1,,,,,
,,258866,001,2023-07-31_09h18.44.912,arm3_q,2022.2.5,Win32,62.5,5e5c993cd0394c474f7cc502,64c5699dae067f1f1081742c,64c7d074ea2da31575eb90b6,right,1,0.6929,0.35,6,0.042593315,0.137,,,,,,113,0,113,0,1,,,,,
,,258866,001,2023-07-31_09h18.44.912,arm3_q,2022.2.5,Win32,62.5,5e5c993cd0394c474f7cc502,64c5699dae067f1f1081742c,64c7d074ea2da31575eb90b6,right,1,0.6929,0.35,6,0.054842322,0.147,,,,,,114,0,114,0,1,,,,,
,,258866,001,2023-07-31_09h18.44.912,arm3_q,2022.2.5,Win32,62.5,5e5c993cd0394c474f7cc502,64c5699dae067f1f1081742c,64c7d074ea2da31575eb90b6,right,1,0.6929,0.35,6,0.078583084,0.123,,,,,,115,0,115,0,1,,,,,
,,258866,001,2023-07-31_09h18.44.912,arm3_q,2022.2.5,Win32,62.5,5e5c993cd0394c474f7cc502,64c5699dae067f1f1081742c,64c7d074ea2da31575eb90b6,right,1,0.6929,0.35,6,0.112479106,0.106,,,,,,116,0,116,0,1,,,,,
,,258866,001,2023-07-31_09h18.44.912,arm3_q,2022.2.5,Win32,62.5,5e5c993cd0394c474f7cc502,64c5699dae067f1f1081742c,64c7d074ea2da31575eb90b6,up,1,0.6929,0.35,6,0,0.239,,,,,,117,0,117,0,1,,,,,
,,258866,001,2023-07-31_09h18.44.912,arm3_q,2022.2.5,Win32,62.5,5e5c993cd0394c474f7cc502,64c5699dae067f1f1081742c,64c7d074ea2da31575eb90b6,right,1,0.6929,0.35,6,-0.005165075,0.566,,,,,,118,0,118,0,1,,,,,
,,258866,001,2023-07-31_09h18.44.912,arm3_q,2022.2.5,Win32,62.5,5e5c993cd0394c474f7cc502,64c5699dae067f1f1081742c,64c7d074ea2da31575eb90b6,right,1,0.6929,0.35,6,-0.001492349,0.131,,,,,,119,0,119,0,1,,,,,
,,258866,001,2023-07-31_09h18.44.912,arm3_q,2022.2.5,Win32,62.5,5e5c993cd0394c474f7cc502,64c5699dae067f1f1081742c,64c7d074ea2da31575eb90b6,right,1,0.6929,0.35,6,-0.049276571,0.12,,,,,,120,0,120,0,1,,,,,
,,258866,001,2023-07-31_09h18.44.912,arm3_q,2022.2.5,Win32,62.5,5e5c993cd0394c474f7cc502,64c5699dae067f1f1081742c,64c7d074ea2da31575eb90b6,right,1,0.6929,0.35,6,-0.028237025,0.134,,,,,,121,0,121,0,1,,,,,
,,258866,001,2023-07-31_09h18.44.912,arm3_q,2022.2.5,Win32,62.5,5e5c993cd0394c474f7cc502,64c5699dae067f1f1081742c,64c7d074ea2da31575eb90b6,right,1,0.6929,0.35,6,-0.020209567,0.405,,,,,,122,0,122,0,1,,,,,
,,258866,001,2023-07-31_09h18.44.912,arm3_q,2022.2.5,Win32,62.5,5e5c993cd0394c474f7cc502,64c5699dae067f1f1081742c,64c7d074ea2da31575eb90b6,right,1,0.6929,0.35,6,-0.034413737,0.305,,,,,,123,0,123,0,1,,,,,
,,258866,001,2023-07-31_09h18.44.912,arm3_q,2022.2.5,Win32,62.5,5e5c993cd0394c474f7cc502,64c5699dae067f1f1081742c,64c7d074ea2da31575eb90b6,up,-1,0.6929,0.35,6,0,0.475,,,,,,124,0,124,0,1,,,,,
,,258866,001,2023-07-31_09h18.44.912,arm3_q,2022.2.5,Win32,62.5,5e5c993cd0394c474f7cc502,64c5699dae067f1f1081742c,64c7d074ea2da31575eb90b6,right,-1,0.6929,0.35,6,-0.020887246,0.529,,,,,,125,0,125,0,1,,,,,
,,258866,001,2023-07-31_09h18.44.912,arm3_q,2022.2.5,Win32,62.5,5e5c993cd0394c474f7cc502,64c5699dae067f1f1081742c,64c7d074ea2da31575eb90b6,right,-1,0.6929,0.35,6,-0.013361392,0.147,,,,,,126,0,126,0,1,,,,,
,,258866,001,2023-07-31_09h18.44.912,arm3_q,2022.2.5,Win32,62.5,5e5c993cd0394c474f7cc502,64c5699dae067f1f1081742c,64c7d074ea2da31575eb90b6,right,-1,0.6929,0.35,6,-0.027384812,0.118,,,,,,127,0,127,0,1,,,,,
,,258866,001,2023-07-31_09h18.44.912,arm3_q,2022.2.5,Win32,62.5,5e5c993cd0394c474f7cc502,64c5699dae067f1f1081742c,64c7d074ea2da31575eb90b6,right,-1,0.6929,0.35,6,-0.016319765,0.138,,,,,,128,0,128,0,1,,,,,
,,258866,001,2023-07-31_09h18.44.912,arm3_q,2022.2.5,Win32,62.5,5e5c993cd0394c474f7cc502,64c5699dae067f1f1081742c,64c7d074ea2da31575eb90b6,right,-1,0.6929,0.35,6,-0.027779599,0.123,,,,,,129,0,129,0,1,,,,,
,,258866,001,2023-07-31_09h18.44.912,arm3_q,2022.2.5,Win32,62.5,5e5c993cd0394c474f7cc502,64c5699dae067f1f1081742c,64c7d074ea2da31575eb90b6,down,-1,0.6929,0.35,7,0,0.301,,,,,,130,0,130,0,1,,,,,
,,258866,001,2023-07-31_09h18.44.912,arm3_q,2022.2.5,Win32,62.5,5e5c993cd0394c474f7cc502,64c5699dae067f1f1081742c,64c7d074ea2da31575eb90b6,right,-1,0.6929,0.35,7,-0.038944548,0.551,,,,,,131,0,131,0,1,,,,,
,,258866,001,2023-07-31_09h18.44.912,arm3_q,2022.2.5,Win32,62.5,5e5c993cd0394c474f7cc502,64c5699dae067f1f1081742c,64c7d074ea2da31575eb90b6,right,-1,0.6929,0.35,7,-0.041829765,0.15,,,,,,132,0,132,0,1,,,,,
,,258866,001,2023-07-31_09h18.44.912,arm3_q,2022.2.5,Win32,62.5,5e5c993cd0394c474f7cc502,64c5699dae067f1f1081742c,64c7d074ea2da31575eb90b6,right,-1,0.6929,0.35,7,-0.03063495,0.134,,,,,,133,0,133,0,1,,,,,
,,258866,001,2023-07-31_09h18.44.912,arm3_q,2022.2.5,Win32,62.5,5e5c993cd0394c474f7cc502,64c5699dae067f1f1081742c,64c7d074ea2da31575eb90b6,right,-1,0.6929,0.35,7,-0.043469761,0.135,,,,,,134,0,134,0,1,,,,,
,,258866,001,2023-07-31_09h18.44.912,arm3_q,2022.2.5,Win32,62.5,5e5c993cd0394c474f7cc502,64c5699dae067f1f1081742c,64c7d074ea2da31575eb90b6,right,-1,0.6929,0.35,7,-0.083904409,0.12,,,,,,135,0,135,0,1,,,,,
,,258866,001,2023-07-31_09h18.44.912,arm3_q,2022.2.5,Win32,62.5,5e5c993cd0394c474f7cc502,64c5699dae067f1f1081742c,64c7d074ea2da31575eb90b6,down,1,0.6929,0.35,8,0,0.439,,,,,,136,0,136,0,1,,,,,
,,258866,001,2023-07-31_09h18.44.912,arm3_q,2022.2.5,Win32,62.5,5e5c993cd0394c474f7cc502,64c5699dae067f1f1081742c,64c7d074ea2da31575eb90b6,right,1,0.6929,0.35,8,-0.010783674,0.497,,,,,,137,0,137,0,1,,,,,
,,258866,001,2023-07-31_09h18.44.912,arm3_q,2022.2.5,Win32,62.5,5e5c993cd0394c474f7cc502,64c5699dae067f1f1081742c,64c7d074ea2da31575eb90b6,right,1,0.6929,0.35,8,-0.001770499,0.119,,,,,,138,0,138,0,1,,,,,
,,258866,001,2023-07-31_09h18.44.912,arm3_q,2022.2.5,Win32,62.5,5e5c993cd0394c474f7cc502,64c5699dae067f1f1081742c,64c7d074ea2da31575eb90b6,right,1,0.6929,0.35,8,-0.028480232,0.155,,,,,,139,0,139,0,1,,,,,
,,258866,001,2023-07-31_09h18.44.912,arm3_q,2022.2.5,Win32,62.5,5e5c993cd0394c474f7cc502,64c5699dae067f1f1081742c,64c7d074ea2da31575eb90b6,right,1,0.6929,0.35,8,-0.029176105,0.143,,,,,,140,0,140,0,1,,,,,
,,258866,001,2023-07-31_09h18.44.912,arm3_q,2022.2.5,Win32,62.5,5e5c993cd0394c474f7cc502,64c5699dae067f1f1081742c,64c7d074ea2da31575eb90b6,right,1,0.6929,0.35,8,-0.060835759,0.101,,,,,,141,0,141,0,1,,,,,
,,258866,001,2023-07-31_09h18.44.912,arm3_q,2022.2.5,Win32,62.5,5e5c993cd0394c474f7cc502,64c5699dae067f1f1081742c,64c7d074ea2da31575eb90b6,down,1,0.6929,0.35,7,0,0.421,,,,,,142,0,142,0,1,,,,,
,,258866,001,2023-07-31_09h18.44.912,arm3_q,2022.2.5,Win32,62.5,5e5c993cd0394c474f7cc502,64c5699dae067f1f1081742c,64c7d074ea2da31575eb90b6,right,1,0.6929,0.35,7,-0.005308555,0.567,,,,,,143,0,143,0,1,,,,,
,,258866,001,2023-07-31_09h18.44.912,arm3_q,2022.2.5,Win32,62.5,5e5c993cd0394c474f7cc502,64c5699dae067f1f1081742c,64c7d074ea2da31575eb90b6,right,1,0.6929,0.35,7,0.007565955,0.165,,,,,,144,0,144,0,1,,,,,
,,258866,001,2023-07-31_09h18.44.912,arm3_q,2022.2.5,Win32,62.5,5e5c993cd0394c474f7cc502,64c5699dae067f1f1081742c,64c7d074ea2da31575eb90b6,right,1,0.6929,0.35,7,0.029056659,0.136,,,,,,145,0,145,0,1,,,,,
,,258866,001,2023-07-31_09h18.44.912,arm3_q,2022.2.5,Win32,62.5,5e5c993cd0394c474f7cc502,64c5699dae067f1f1081742c,64c7d074ea2da31575eb90b6,right,1,0.6929,0.35,7,0.037440165,0.15,,,,,,146,0,146,0,1,,,,,
,,258866,001,2023-07-31_09h18.44.912,arm3_q,2022.2.5,Win32,62.5,5e5c993cd0394c474f7cc502,64c5699dae067f1f1081742c,64c7d074ea2da31575eb90b6,right,1,0.6929,0.35,7,0.041040497,0.13,,,,,,147,0,147,0,1,,,,,
,,258866,001,2023-07-31_09h18.44.912,arm3_q,2022.2.5,Win32,62.5,5e5c993cd0394c474f7cc502,64c5699dae067f1f1081742c,64c7d074ea2da31575eb90b6,right,1,0.6929,0.35,7,0.062520342,0.082,,,,,,148,0,148,0,1,,,,,
,,258866,001,2023-07-31_09h18.44.912,arm3_q,2022.2.5,Win32,62.5,5e5c993cd0394c474f7cc502,64c5699dae067f1f1081742c,64c7d074ea2da31575eb90b6,up,1,0.6929,0.35,8,0,0.367,,,,,,149,0,149,0,1,,,,,
,,258866,001,2023-07-31_09h18.44.912,arm3_q,2022.2.5,Win32,62.5,5e5c993cd0394c474f7cc502,64c5699dae067f1f1081742c,64c7d074ea2da31575eb90b6,right,1,0.6929,0.35,8,0.014107732,0.647,,,,,,150,0,150,0,1,,,,,
,,258866,001,2023-07-31_09h18.44.912,arm3_q,2022.2.5,Win32,62.5,5e5c993cd0394c474f7cc502,64c5699dae067f1f1081742c,64c7d074ea2da31575eb90b6,right,1,0.6929,0.35,8,0.015658466,0.15,,,,,,151,0,151,0,1,,,,,
,,258866,001,2023-07-31_09h18.44.912,arm3_q,2022.2.5,Win32,62.5,5e5c993cd0394c474f7cc502,64c5699dae067f1f1081742c,64c7d074ea2da31575eb90b6,right,1,0.6929,0.35,8,0.000386853,0.106,,,,,,152,0,152,0,1,,,,,
,,258866,001,2023-07-31_09h18.44.912,arm3_q,2022.2.5,Win32,62.5,5e5c993cd0394c474f7cc502,64c5699dae067f1f1081742c,64c7d074ea2da31575eb90b6,right,1,0.6929,0.35,8,-0.002191203,0.181,,,,,,153,0,153,0,1,,,,,
,,258866,001,2023-07-31_09h18.44.912,arm3_q,2022.2.5,Win32,62.5,5e5c993cd0394c474f7cc502,64c5699dae067f1f1081742c,64c7d074ea2da31575eb90b6,right,1,0.6929,0.35,8,0.00395946,0.131,,,,,,154,0,154,0,1,,,,,
,,258866,001,2023-07-31_09h18.44.912,arm3_q,2022.2.5,Win32,62.5,5e5c993cd0394c474f7cc502,64c5699dae067f1f1081742c,64c7d074ea2da31575eb90b6,right,1,0.6929,0.35,8,0.00649161,0.064,,,,,,155,0,155,0,1,,,,,
,,258866,001,2023-07-31_09h18.44.912,arm3_q,2022.2.5,Win32,62.5,5e5c993cd0394c474f7cc502,64c5699dae067f1f1081742c,64c7d074ea2da31575eb90b6,right,1,0.6929,0.35,8,0.012793335,0.144,,,,,,156,0,156,0,1,,,,,
,,258866,001,2023-07-31_09h18.44.912,arm3_q,2022.2.5,Win32,62.5,5e5c993cd0394c474f7cc502,64c5699dae067f1f1081742c,64c7d074ea2da31575eb90b6,up,-1,0.6929,0.35,9,0,0.333,,,,,,157,0,157,0,1,,,,,
,,258866,001,2023-07-31_09h18.44.912,arm3_q,2022.2.5,Win32,62.5,5e5c993cd0394c474f7cc502,64c5699dae067f1f1081742c,64c7d074ea2da31575eb90b6,right,-1,0.6929,0.35,9,-0.017591186,0.462,,,,,,158,0,158,0,1,,,,,
,,258866,001,2023-07-31_09h18.44.912,arm3_q,2022.2.5,Win32,62.5,5e5c993cd0394c474f7cc502,64c5699dae067f1f1081742c,64c7d074ea2da31575eb90b6,right,-1,0.6929,0.35,9,-0.004438997,0.125,,,,,,159,0,159,0,1,,,,,
,,258866,001,2023-07-31_09h18.44.912,arm3_q,2022.2.5,Win32,62.5,5e5c993cd0394c474f7cc502,64c5699dae067f1f1081742c,64c7d074ea2da31575eb90b6,right,-1,0.6929,0.35,9,-0.010476273,0.149,,,,,,160,0,160,0,1,,,,,
,,258866,001,2023-07-31_09h18.44.912,arm3_q,2022.2.5,Win32,62.5,5e5c993cd0394c474f7cc502,64c5699dae067f1f1081742c,64c7d074ea2da31575eb90b6,right,-1,0.6929,0.35,9,-0.026590294,0.154,,,,,,161,0,161,0,1,,,,,
,,258866,001,2023-07-31_09h18.44.912,arm3_q,2022.2.5,Win32,62.5,5e5c993cd0394c474f7cc502,64c5699dae067f1f1081742c,64c7d074ea2da31575eb90b6,right,-1,0.6929,0.35,9,-0.046144634,0.14,,,,,,162,0,162,0,1,,,,,
,,258866,001,2023-07-31_09h18.44.912,arm3_q,2022.2.5,Win32,62.5,5e5c993cd0394c474f7cc502,64c5699dae067f1f1081742c,64c7d074ea2da31575eb90b6,right,-1,0.6929,0.35,9,-0.041528684,0.122,,,,,,163,0,163,0,1,,,,,
,,258866,001,2023-07-31_09h18.44.912,arm3_q,2022.2.5,Win32,62.5,5e5c993cd0394c474f7cc502,64c5699dae067f1f1081742c,64c7d074ea2da31575eb90b6,down,-1,0.6929,0.35,10,0,0.524,,,,,,164,0,164,0,1,,,,,
,,258866,001,2023-07-31_09h18.44.912,arm3_q,2022.2.5,Win32,62.5,5e5c993cd0394c474f7cc502,64c5699dae067f1f1081742c,64c7d074ea2da31575eb90b6,right,-1,0.6929,0.35,10,-0.025601584,0.473,,,,,,165,0,165,0,1,,,,,
,,258866,001,2023-07-31_09h18.44.912,arm3_q,2022.2.5,Win32,62.5,5e5c993cd0394c474f7cc502,64c5699dae067f1f1081742c,64c7d074ea2da31575eb90b6,right,-1,0.6929,0.35,10,-0.030764479,0.149,,,,,,166,0,166,0,1,,,,,
,,258866,001,2023-07-31_09h18.44.912,arm3_q,2022.2.5,Win32,62.5,5e5c993cd0394c474f7cc502,64c5699dae067f1f1081742c,64c7d074ea2da31575eb90b6,right,-1,0.6929,0.35,10,-0.005821361,0.139,,,,,,167,0,167,0,1,,,,,
,,258866,001,2023-07-31_09h18.44.912,arm3_q,2022.2.5,Win32,62.5,5e5c993cd0394c474f7cc502,64c5699dae067f1f1081742c,64c7d074ea2da31575eb90b6,right,-1,0.6929,0.35,10,0.019152103,0.155,,,,,,168,0,168,0,1,,,,,
,,258866,001,2023-07-31_09h18.44.912,arm3_q,2022.2.5,Win32,62.5,5e5c993cd0394c474f7cc502,64c5699dae067f1f1081742c,64c7d074ea2da31575eb90b6,right,-1,0.6929,0.35,10,-0.021703192,0.147,,,,,,169,0,169,0,1,,,,,
,,258866,001,2023-07-31_09h18.44.912,arm3_q,2022.2.5,Win32,62.5,5e5c993cd0394c474f7cc502,64c5699dae067f1f1081742c,64c7d074ea2da31575eb90b6,right,-1,0.6929,0.35,10,-0.036352436,0.123,,,,,,170,0,170,0,1,,,,,
,,258866,001,2023-07-31_09h18.44.912,arm3_q,2022.2.5,Win32,62.5,5e5c993cd0394c474f7cc502,64c5699dae067f1f1081742c,64c7d074ea2da31575eb90b6,right,-1,0.6929,0.35,10,-0.011368494,0.786,,,,,,171,0,171,0,1,,,,,
,,258866,001,2023-07-31_09h18.44.912,arm3_q,2022.2.5,Win32,62.5,5e5c993cd0394c474f7cc502,64c5699dae067f1f1081742c,64c7d074ea2da31575eb90b6,right,-1,0.6929,0.35,10,-0.014079759,0.302,,,,,,172,0,172,0,1,,,,,
,,258866,001,2023-07-31_09h18.44.912,arm3_q,2022.2.5,Win32,62.5,5e5c993cd0394c474f7cc502,64c5699dae067f1f1081742c,64c7d074ea2da31575eb90b6,right,-1,0.6929,0.35,10,-0.009576657,0.302,,,,,,173,0,173,0,1,,,,,
,,258866,001,2023-07-31_09h18.44.912,arm3_q,2022.2.5,Win32,62.5,5e5c993cd0394c474f7cc502,64c5699dae067f1f1081742c,64c7d074ea2da31575eb90b6,up,1,0.6929,0.35,10,0,0.4,,,,,,174,0,174,0,1,,,,,
,,258866,001,2023-07-31_09h18.44.912,arm3_q,2022.2.5,Win32,62.5,5e5c993cd0394c474f7cc502,64c5699dae067f1f1081742c,64c7d074ea2da31575eb90b6,right,1,0.6929,0.35,10,0.035054915,0.667,,,,,,175,0,175,0,1,,,,,
,,258866,001,2023-07-31_09h18.44.912,arm3_q,2022.2.5,Win32,62.5,5e5c993cd0394c474f7cc502,64c5699dae067f1f1081742c,64c7d074ea2da31575eb90b6,right,1,0.6929,0.35,10,0.060822613,0.147,,,,,,176,0,176,0,1,,,,,
,,258866,001,2023-07-31_09h18.44.912,arm3_q,2022.2.5,Win32,62.5,5e5c993cd0394c474f7cc502,64c5699dae067f1f1081742c,64c7d074ea2da31575eb90b6,right,1,0.6929,0.35,10,0.072608651,0.133,,,,,,177,0,177,0,1,,,,,
,,258866,001,2023-07-31_09h18.44.912,arm3_q,2022.2.5,Win32,62.5,5e5c993cd0394c474f7cc502,64c5699dae067f1f1081742c,64c7d074ea2da31575eb90b6,right,1,0.6929,0.35,10,0.093816747,0.126,,,,,,178,0,178,0,1,,,,,
,,258866,001,2023-07-31_09h18.44.912,arm3_q,2022.2.5,Win32,62.5,5e5c993cd0394c474f7cc502,64c5699dae067f1f1081742c,64c7d074ea2da31575eb90b6,right,1,0.6929,0.35,10,0.100198169,0.167,,,,,,179,0,179,0,1,,,,,
,,258866,001,2023-07-31_09h18.44.912,arm3_q,2022.2.5,Win32,62.5,5e5c993cd0394c474f7cc502,64c5699dae067f1f1081742c,64c7d074ea2da31575eb90b6,right,1,0.6929,0.35,10,0.135003931,0.141,,,,,,180,0,180,0,1,,,,,
,,258866,001,2023-07-31_09h18.44.912,arm3_q,2022.2.5,Win32,62.5,5e5c993cd0394c474f7cc502,64c5699dae067f1f1081742c,64c7d074ea2da31575eb90b6,up,1,0.6929,0.35,10,0,0.222,,,,,,181,0,181,0,1,,,,,
,,258866,001,2023-07-31_09h18.44.912,arm3_q,2022.2.5,Win32,62.5,5e5c993cd0394c474f7cc502,64c5699dae067f1f1081742c,64c7d074ea2da31575eb90b6,right,1,0.6929,0.35,10,9.685E-05,0.567,,,,,,182,0,182,0,1,,,,,
,,258866,001,2023-07-31_09h18.44.912,arm3_q,2022.2.5,Win32,62.5,5e5c993cd0394c474f7cc502,64c5699dae067f1f1081742c,64c7d074ea2da31575eb90b6,right,1,0.6929,0.35,10,0.0095293,0.147,,,,,,183,0,183,0,1,,,,,
,,258866,001,2023-07-31_09h18.44.912,arm3_q,2022.2.5,Win32,62.5,5e5c993cd0394c474f7cc502,64c5699dae067f1f1081742c,64c7d074ea2da31575eb90b6,right,1,0.6929,0.35,10,0.021529955,0.132,,,,,,184,0,184,0,1,,,,,
,,258866,001,2023-07-31_09h18.44.912,arm3_q,2022.2.5,Win32,62.5,5e5c993cd0394c474f7cc502,64c5699dae067f1f1081742c,64c7d074ea2da31575eb90b6,right,1,0.6929,0.35,10,0.024021068,0.089,,,,,,185,0,185,0,1,,,,,
,,258866,001,2023-07-31_09h18.44.912,arm3_q,2022.2.5,Win32,62.5,5e5c993cd0394c474f7cc502,64c5699dae067f1f1081742c,64c7d074ea2da31575eb90b6,right,1,0.6929,0.35,10,0.003488883,0.185,,,,,,186,0,186,0,1,,,,,
,,258866,001,2023-07-31_09h18.44.912,arm3_q,2022.2.5,Win32,62.5,5e5c993cd0394c474f7cc502,64c5699dae067f1f1081742c,64c7d074ea2da31575eb90b6,right,1,0.6929,0.35,10,-0.004433115,0.317,,,,,,187,0,187,0,1,,,,,
,,258866,001,2023-07-31_09h18.44.912,arm3_q,2022.2.5,Win32,62.5,5e5c993cd0394c474f7cc502,64c5699dae067f1f1081742c,64c7d074ea2da31575eb90b6,right,1,0.6929,0.35,10,-0.007103605,0.268,,,,,,188,0,188,0,1,,,,,
,,258866,001,2023-07-31_09h18.44.912,arm3_q,2022.2.5,Win32,62.5,5e5c993cd0394c474f7cc502,64c5699dae067f1f1081742c,64c7d074ea2da31575eb90b6,right,1,0.6929,0.35,10,0.034782229,0.299,,,,,,189,0,189,0,1,,,,,
,,258866,001,2023-07-31_09h18.44.912,arm3_q,2022.2.5,Win32,62.5,5e5c993cd0394c474f7cc502,64c5699dae067f1f1081742c,64c7d074ea2da31575eb90b6,up,1,0.6929,0.35,11,0,0.449,,,,,,190,0,190,0,1,,,,,
,,258866,001,2023-07-31_09h18.44.912,arm3_q,2022.2.5,Win32,62.5,5e5c993cd0394c474f7cc502,64c5699dae067f1f1081742c,64c7d074ea2da31575eb90b6,right,1,0.6929,0.35,11,0.019233014,0.541,,,,,,191,0,191,0,1,,,,,
,,258866,001,2023-07-31_09h18.44.912,arm3_q,2022.2.5,Win32,62.5,5e5c993cd0394c474f7cc502,64c5699dae067f1f1081742c,64c7d074ea2da31575eb90b6,right,1,0.6929,0.35,11,0.000146259,0.117,,,,,,192,0,192,0,1,,,,,
,,258866,001,2023-07-31_09h18.44.912,arm3_q,2022.2.5,Win32,62.5,5e5c993cd0394c474f7cc502,64c5699dae067f1f1081742c,64c7d074ea2da31575eb90b6,right,1,0.6929,0.35,11,0.030990066,0.138,,,,,,193,0,193,0,1,,,,,
,,258866,001,2023-07-31_09h18.44.912,arm3_q,2022.2.5,Win32,62.5,5e5c993cd0394c474f7cc502,64c5699dae067f1f1081742c,64c7d074ea2da31575eb90b6,right,1,0.6929,0.35,11,0.050429064,0.151,,,,,,194,0,194,0,1,,,,,
,,258866,001,2023-07-31_09h18.44.912,arm3_q,2022.2.5,Win32,62.5,5e5c993cd0394c474f7cc502,64c5699dae067f1f1081742c,64c7d074ea2da31575eb90b6,right,1,0.6929,0.35,11,0.05371445,0.124,,,,,,195,0,195,0,1,,,,,
,,258866,001,2023-07-31_09h18.44.912,arm3_q,2022.2.5,Win32,62.5,5e5c993cd0394c474f7cc502,64c5699dae067f1f1081742c,64c7d074ea2da31575eb90b6,right,1,0.6929,0.35,11,0.04484831,0.501,,,,,,196,0,196,0,1,,,,,
,,258866,001,2023-07-31_09h18.44.912,arm3_q,2022.2.5,Win32,62.5,5e5c993cd0394c474f7cc502,64c5699dae067f1f1081742c,64c7d074ea2da31575eb90b6,right,1,0.6929,0.35,11,0.045001326,0.286,,,,,,197,0,197,0,1,,,,,
,,258866,001,2023-07-31_09h18.44.912,arm3_q,2022.2.5,Win32,62.5,5e5c993cd0394c474f7cc502,64c5699dae067f1f1081742c,64c7d074ea2da31575eb90b6,right,1,0.6929,0.35,11,0.07026834,0.298,,,,,,198,0,198,0,1,,,,,
,,258866,001,2023-07-31_09h18.44.912,arm3_q,2022.2.5,Win32,62.5,5e5c993cd0394c474f7cc502,64c5699dae067f1f1081742c,64c7d074ea2da31575eb90b6,up,1,0.6929,0.35,12,0,0.272,,,,,,199,0,199,0,1,,,,,
,,258866,001,2023-07-31_09h18.44.912,arm3_q,2022.2.5,Win32,62.5,5e5c993cd0394c474f7cc502,64c5699dae067f1f1081742c,64c7d074ea2da31575eb90b6,right,1,0.6929,0.35,12,0.02893115,0.561,,,,,,200,0,200,0,1,,,,,
,,258866,001,2023-07-31_09h18.44.912,arm3_q,2022.2.5,Win32,62.5,5e5c993cd0394c474f7cc502,64c5699dae067f1f1081742c,64c7d074ea2da31575eb90b6,right,1,0.6929,0.35,12,0.043456501,0.153,,,,,,201,0,201,0,1,,,,,
,,258866,001,2023-07-31_09h18.44.912,arm3_q,2022.2.5,Win32,62.5,5e5c993cd0394c474f7cc502,64c5699dae067f1f1081742c,64c7d074ea2da31575eb90b6,right,1,0.6929,0.35,12,0.036669953,0.146,,,,,,202,0,202,0,1,,,,,
,,258866,001,2023-07-31_09h18.44.912,arm3_q,2022.2.5,Win32,62.5,5e5c993cd0394c474f7cc502,64c5699dae067f1f1081742c,64c7d074ea2da31575eb90b6,right,1,0.6929,0.35,12,0.029718968,0.138,,,,,,203,0,203,0,1,,,,,
,,258866,001,2023-07-31_09h18.44.912,arm3_q,2022.2.5,Win32,62.5,5e5c993cd0394c474f7cc502,64c5699dae067f1f1081742c,64c7d074ea2da31575eb90b6,right,1,0.6929,0.35,12,0.029724914,0.145,,,,,,204,0,204,0,1,,,,,
,,258866,001,2023-07-31_09h18.44.912,arm3_q,2022.2.5,Win32,62.5,5e5c993cd0394c474f7cc502,64c5699dae067f1f1081742c,64c7d074ea2da31575eb90b6,right,1,0.6929,0.35,12,0.035239514,0.13,,,,,,205,0,205,0,1,,,,,
,,258866,001,2023-07-31_09h18.44.912,arm3_q,2022.2.5,Win32,62.5,5e5c993cd0394c474f7cc502,64c5699dae067f1f1081742c,64c7d074ea2da31575eb90b6,up,1,0.6929,0.35,12,0,0.263,,,,,,206,0,206,0,1,,,,,
,,258866,001,2023-07-31_09h18.44.912,arm3_q,2022.2.5,Win32,62.5,5e5c993cd0394c474f7cc502,64c5699dae067f1f1081742c,64c7d074ea2da31575eb90b6,right,1,0.6929,0.35,12,-0.021843283,0.555,,,,,,207,0,207,0,1,,,,,
,,258866,001,2023-07-31_09h18.44.912,arm3_q,2022.2.5,Win32,62.5,5e5c993cd0394c474f7cc502,64c5699dae067f1f1081742c,64c7d074ea2da31575eb90b6,right,1,0.6929,0.35,12,-0.035592785,0.132,,,,,,208,0,208,0,1,,,,,
,,258866,001,2023-07-31_09h18.44.912,arm3_q,2022.2.5,Win32,62.5,5e5c993cd0394c474f7cc502,64c5699dae067f1f1081742c,64c7d074ea2da31575eb90b6,right,1,0.6929,0.35,12,-0.021865246,0.149,,,,,,209,0,209,0,1,,,,,
,,258866,001,2023-07-31_09h18.44.912,arm3_q,2022.2.5,Win32,62.5,5e5c993cd0394c474f7cc502,64c5699dae067f1f1081742c,64c7d074ea2da31575eb90b6,right,1,0.6929,0.35,12,-0.0313615,0.15,,,,,,210,0,210,0,1,,,,,
,,258866,001,2023-07-31_09h18.44.912,arm3_q,2022.2.5,Win32,62.5,5e5c993cd0394c474f7cc502,64c5699dae067f1f1081742c,64c7d074ea2da31575eb90b6,right,1,0.6929,0.35,12,-0.017512877,0.139,,,,,,211,0,211,0,1,,,,,
,,258866,001,2023-07-31_09h18.44.912,arm3_q,2022.2.5,Win32,62.5,5e5c993cd0394c474f7cc502,64c5699dae067f1f1081742c,64c7d074ea2da31575eb90b6,right,1,0.6929,0.35,12,-0.000404281,0.143,,,,,,212,0,212,0,1,,,,,
,,258866,001,2023-07-31_09h18.44.912,arm3_q,2022.2.5,Win32,62.5,5e5c993cd0394c474f7cc502,64c5699dae067f1f1081742c,64c7d074ea2da31575eb90b6,right,1,0.6929,0.35,12,-0.009656478,0.15,,,,,,213,0,213,0,1,,,,,
,,258866,001,2023-07-31_09h18.44.912,arm3_q,2022.2.5,Win32,62.5,5e5c993cd0394c474f7cc502,64c5699dae067f1f1081742c,64c7d074ea2da31575eb90b6,right,1,0.6929,0.35,12,0.000785256,0.127,,,,,,214,0,214,0,1,,,,,
,,258866,001,2023-07-31_09h18.44.912,arm3_q,2022.2.5,Win32,62.5,5e5c993cd0394c474f7cc502,64c5699dae067f1f1081742c,64c7d074ea2da31575eb90b6,up,1,0.6929,0.35,12,0,0.384,,,,,,215,0,215,0,1,,,,,
,,258866,001,2023-07-31_09h18.44.912,arm3_q,2022.2.5,Win32,62.5,5e5c993cd0394c474f7cc502,64c5699dae067f1f1081742c,64c7d074ea2da31575eb90b6,right,1,0.6929,0.35,12,0.044993719,0.524,,,,,,216,0,216,0,1,,,,,
,,258866,001,2023-07-31_09h18.44.912,arm3_q,2022.2.5,Win32,62.5,5e5c993cd0394c474f7cc502,64c5699dae067f1f1081742c,64c7d074ea2da31575eb90b6,right,1,0.6929,0.35,12,0.040766737,0.148,,,,,,217,0,217,0,1,,,,,
,,258866,001,2023-07-31_09h18.44.912,arm3_q,2022.2.5,Win32,62.5,5e5c993cd0394c474f7cc502,64c5699dae067f1f1081742c,64c7d074ea2da31575eb90b6,right,1,0.6929,0.35,12,0.053483264,0.137,,,,,,218,0,218,0,1,,,,,
,,258866,001,2023-07-31_09h18.44.912,arm3_q,2022.2.5,Win32,62.5,5e5c993cd0394c474f7cc502,64c5699dae067f1f1081742c,64c7d074ea2da31575eb90b6,right,1,0.6929,0.35,12,0.063649433,0.148,,,,,,219,0,219,0,1,,,,,
,,258866,001,2023-07-31_09h18.44.912,arm3_q,2022.2.5,Win32,62.5,5e5c993cd0394c474f7cc502,64c5699dae067f1f1081742c,64c7d074ea2da31575eb90b6,right,1,0.6929,0.35,12,0.089067734,0.135,,,,,,220,0,220,0,1,,,,,
,,258866,001,2023-07-31_09h18.44.912,arm3_q,2022.2.5,Win32,62.5,5e5c993cd0394c474f7cc502,64c5699dae067f1f1081742c,64c7d074ea2da31575eb90b6,right,1,0.6929,0.35,12,0.114139483,0.15,,,,,,221,0,221,0,1,,,,,
,,258866,001,2023-07-31_09h18.44.912,arm3_q,2022.2.5,Win32,62.5,5e5c993cd0394c474f7cc502,64c5699dae067f1f1081742c,64c7d074ea2da31575eb90b6,up,1,0.6929,0.35,13,0,0.297,,,,,,222,0,222,0,1,,,,,
,,258866,001,2023-07-31_09h18.44.912,arm3_q,2022.2.5,Win32,62.5,5e5c993cd0394c474f7cc502,64c5699dae067f1f1081742c,64c7d074ea2da31575eb90b6,right,1,0.6929,0.35,13,0.008921693,0.635,,,,,,223,0,223,0,1,,,,,
,,258866,001,2023-07-31_09h18.44.912,arm3_q,2022.2.5,Win32,62.5,5e5c993cd0394c474f7cc502,64c5699dae067f1f1081742c,64c7d074ea2da31575eb90b6,right,1,0.6929,0.35,13,0.016593543,0.164,,,,,,224,0,224,0,1,,,,,
,,258866,001,2023-07-31_09h18.44.912,arm3_q,2022.2.5,Win32,62.5,5e5c993cd0394c474f7cc502,64c5699dae067f1f1081742c,64c7d074ea2da31575eb90b6,right,1,0.6929,0.35,13,0.015326991,0.136,,,,,,225,0,225,0,1,,,,,
,,258866,001,2023-07-31_09h18.44.912,arm3_q,2022.2.5,Win32,62.5,5e5c993cd0394c474f7cc502,64c5699dae067f1f1081742c,64c7d074ea2da31575eb90b6,right,1,0.6929,0.35,13,0.046918559,0.137,,,,,,226,0,226,0,1,,,,,
,,258866,001,2023-07-31_09h18.44.912,arm3_q,2022.2.5,Win32,62.5,5e5c993cd0394c474f7cc502,64c5699dae067f1f1081742c,64c7d074ea2da31575eb90b6,right,1,0.6929,0.35,13,0.051258876,0.149,,,,,,227,0,227,0,1,,,,,
,,258866,001,2023-07-31_09h18.44.912,arm3_q,2022.2.5,Win32,62.5,5e5c993cd0394c474f7cc502,64c5699dae067f1f1081742c,64c7d074ea2da31575eb90b6,right,1,0.6929,0.35,13,0.042782106,0.138,,,,,,228,0,228,0,1,,,,,
,,258866,001,2023-07-31_09h18.44.912,arm3_q,2022.2.5,Win32,62.5,5e5c993cd0394c474f7cc502,64c5699dae067f1f1081742c,64c7d074ea2da31575eb90b6,right,1,0.6929,0.35,13,0.052953436,0.346,,,,,,229,0,229,0,1,,,,,
,,258866,001,2023-07-31_09h18.44.912,arm3_q,2022.2.5,Win32,62.5,5e5c993cd0394c474f7cc502,64c5699dae067f1f1081742c,64c7d074ea2da31575eb90b6,up,-1,0.6929,0.35,13,0,0.355,,,,,,230,0,230,0,1,,,,,
,,258866,001,2023-07-31_09h18.44.912,arm3_q,2022.2.5,Win32,62.5,5e5c993cd0394c474f7cc502,64c5699dae067f1f1081742c,64c7d074ea2da31575eb90b6,right,-1,0.6929,0.35,13,-0.011514389,0.98,,,,,,231,0,231,0,1,,,,,
,,258866,001,2023-07-31_09h18.44.912,arm3_q,2022.2.5,Win32,62.5,5e5c993cd0394c474f7cc502,64c5699dae067f1f1081742c,64c7d074ea2da31575eb90b6,right,-1,0.6929,0.35,13,-0.012630067,0.163,,,,,,232,0,232,0,1,,,,,
,,258866,001,2023-07-31_09h18.44.912,arm3_q,2022.2.5,Win32,62.5,5e5c993cd0394c474f7cc502,64c5699dae067f1f1081742c,64c7d074ea2da31575eb90b6,right,-1,0.6929,0.35,13,-0.027680512,0.136,,,,,,233,0,233,0,1,,,,,
,,258866,001,2023-07-31_09h18.44.912,arm3_q,2022.2.5,Win32,62.5,5e5c993cd0394c474f7cc502,64c5699dae067f1f1081742c,64c7d074ea2da31575eb90b6,right,-1,0.6929,0.35,13,-0.050243343,0.159,,,,,,234,0,234,0,1,,,,,
,,258866,001,2023-07-31_09h18.44.912,arm3_q,2022.2.5,Win32,62.5,5e5c993cd0394c474f7cc502,64c5699dae067f1f1081742c,64c7d074ea2da31575eb90b6,right,-1,0.6929,0.35,13,-0.041719536,0.156,,,,,,235,0,235,0,1,,,,,
,,258866,001,2023-07-31_09h18.44.912,arm3_q,2022.2.5,Win32,62.5,5e5c993cd0394c474f7cc502,64c5699dae067f1f1081742c,64c7d074ea2da31575eb90b6,right,-1,0.6929,0.35,13,-0.037654816,0.142,,,,,,236,0,236,0,1,,,,,
,,258866,001,2023-07-31_09h18.44.912,arm3_q,2022.2.5,Win32,62.5,5e5c993cd0394c474f7cc502,64c5699dae067f1f1081742c,64c7d074ea2da31575eb90b6,right,-1,0.6929,0.35,13,-0.060509152,0.148,,,,,,237,0,237,0,1,,,,,
,,258866,001,2023-07-31_09h18.44.912,arm3_q,2022.2.5,Win32,62.5,5e5c993cd0394c474f7cc502,64c5699dae067f1f1081742c,64c7d074ea2da31575eb90b6,right,-1,0.6929,0.35,13,-0.043791891,0.599,,,,,,238,0,238,0,1,,,,,
,,258866,001,2023-07-31_09h18.44.912,arm3_q,2022.2.5,Win32,62.5,5e5c993cd0394c474f7cc502,64c5699dae067f1f1081742c,64c7d074ea2da31575eb90b6,down,1,0.6929,0.35,13,0,0.93,,,,,,239,0,239,0,1,,,,,
,,258866,001,2023-07-31_09h18.44.912,arm3_q,2022.2.5,Win32,62.5,5e5c993cd0394c474f7cc502,64c5699dae067f1f1081742c,64c7d074ea2da31575eb90b6,right,1,0.6929,0.35,13,0.008338495,0.744,,,,,,240,0,240,0,1,,,,,
,,258866,001,2023-07-31_09h18.44.912,arm3_q,2022.2.5,Win32,62.5,5e5c993cd0394c474f7cc502,64c5699dae067f1f1081742c,64c7d074ea2da31575eb90b6,right,1,0.6929,0.35,13,0.031776372,0.148,,,,,,241,0,241,0,1,,,,,
,,258866,001,2023-07-31_09h18.44.912,arm3_q,2022.2.5,Win32,62.5,5e5c993cd0394c474f7cc502,64c5699dae067f1f1081742c,64c7d074ea2da31575eb90b6,right,1,0.6929,0.35,13,0.05891326,0.159,,,,,,242,0,242,0,1,,,,,
,,258866,001,2023-07-31_09h18.44.912,arm3_q,2022.2.5,Win32,62.5,5e5c993cd0394c474f7cc502,64c5699dae067f1f1081742c,64c7d074ea2da31575eb90b6,right,1,0.6929,0.35,13,0.06264377,0.158,,,,,,243,0,243,0,1,,,,,
,,258866,001,2023-07-31_09h18.44.912,arm3_q,2022.2.5,Win32,62.5,5e5c993cd0394c474f7cc502,64c5699dae067f1f1081742c,64c7d074ea2da31575eb90b6,right,1,0.6929,0.35,13,0.089526953,0.163,,,,,,244,0,244,0,1,,,,,
,,258866,001,2023-07-31_09h18.44.912,arm3_q,2022.2.5,Win32,62.5,5e5c993cd0394c474f7cc502,64c5699dae067f1f1081742c,64c7d074ea2da31575eb90b6,right,1,0.6929,0.35,13,0.080936884,0.123,,,,,,245,0,245,0,1,,,,,
,,258866,001,2023-07-31_09h18.44.912,arm3_q,2022.2.5,Win32,62.5,5e5c993cd0394c474f7cc502,64c5699dae067f1f1081742c,64c7d074ea2da31575eb90b6,right,1,0.6929,0.35,13,0.072080398,0.481,,,,,,246,0,246,0,1,,,,,
,,258866,001,2023-07-31_09h18.44.912,arm3_q,2022.2.5,Win32,62.5,5e5c993cd0394c474f7cc502,64c5699dae067f1f1081742c,64c7d074ea2da31575eb90b6,up,1,0.6929,0.35,14,0,0.315,,,,,,247,0,247,0,1,,,,,
,,258866,001,2023-07-31_09h18.44.912,arm3_q,2022.2.5,Win32,62.5,5e5c993cd0394c474f7cc502,64c5699dae067f1f1081742c,64c7d074ea2da31575eb90b6,right,1,0.6929,0.35,14,0.009393729,0.528,,,,,,248,0,248,0,1,,,,,
,,258866,001,2023-07-31_09h18.44.912,arm3_q,2022.2.5,Win32,62.5,5e5c993cd0394c474f7cc502,64c5699dae067f1f1081742c,64c7d074ea2da31575eb90b6,right,1,0.6929,0.35,14,0.021954459,0.135,,,,,,249,0,249,0,1,,,,,
,,258866,001,2023-07-31_09h18.44.912,arm3_q,2022.2.5,Win32,62.5,5e5c993cd0394c474f7cc502,64c5699dae067f1f1081742c,64c7d074ea2da31575eb90b6,right,1,0.6929,0.35,14,0.043742658,0.123,,,,,,250,0,250,0,1,,,,,
,,258866,001,2023-07-31_09h18.44.912,arm3_q,2022.2.5,Win32,62.5,5e5c993cd0394c474f7cc502,64c5699dae067f1f1081742c,64c7d074ea2da31575eb90b6,right,1,0.6929,0.35,14,0.064960788,0.165,,,,,,251,0,251,0,1,,,,,
,,258866,001,2023-07-31_09h18.44.912,arm3_q,2022.2.5,Win32,62.5,5e5c993cd0394c474f7cc502,64c5699dae067f1f1081742c,64c7d074ea2da31575eb90b6,right,1,0.6929,0.35,14,0.097532565,0.222,,,,,,252,0,252,0,1,,,,,
,,258866,001,2023-07-31_09h18.44.912,arm3_q,2022.2.5,Win32,62.5,5e5c993cd0394c474f7cc502,64c5699dae067f1f1081742c,64c7d074ea2da31575eb90b6,up,1,0.6929,0.35,15,0,0.387,,,,,,253,0,253,0,1,,,,,
,,258866,001,2023-07-31_09h18.44.912,arm3_q,2022.2.5,Win32,62.5,5e5c993cd0394c474f7cc502,64c5699dae067f1f1081742c,64c7d074ea2da31575eb90b6,right,1,0.6929,0.35,15,-0.003332881,0.584,,,,,,254,0,254,0,1,,,,,
,,258866,001,2023-07-31_09h18.44.912,arm3_q,2022.2.5,Win32,62.5,5e5c993cd0394c474f7cc502,64c5699dae067f1f1081742c,64c7d074ea2da31575eb90b6,right,1,0.6929,0.35,15,0.010783836,0.149,,,,,,255,0,255,0,1,,,,,
,,258866,001,2023-07-31_09h18.44.912,arm3_q,2022.2.5,Win32,62.5,5e5c993cd0394c474f7cc502,64c5699dae067f1f1081742c,64c7d074ea2da31575eb90b6,right,1,0.6929,0.35,15,0.00877881,0.139,,,,,,256,0,256,0,1,,,,,
,,258866,001,2023-07-31_09h18.44.912,arm3_q,2022.2.5,Win32,62.5,5e5c993cd0394c474f7cc502,64c5699dae067f1f1081742c,64c7d074ea2da31575eb90b6,right,1,0.6929,0.35,15,0.007435046,0.15,,,,,,257,0,257,0,1,,,,,
,,258866,001,2023-07-31_09h18.44.912,arm3_q,2022.2.5,Win32,62.5,5e5c993cd0394c474f7cc502,64c5699dae067f1f1081742c,64c7d074ea2da31575eb90b6,right,1,0.6929,0.35,15,0.040777554,0.141,,,,,,258,0,258,0,1,,,,,
,,258866,001,2023-07-31_09h18.44.912,arm3_q,2022.2.5,Win32,62.5,5e5c993cd0394c474f7cc502,64c5699dae067f1f1081742c,64c7d074ea2da31575eb90b6,right,1,0.6929,0.35,15,0.021657349,0.129,,,,,,259,0,259,0,1,,,,,
,,258866,001,2023-07-31_09h18.44.912,arm3_q,2022.2.5,Win32,62.5,5e5c993cd0394c474f7cc502,64c5699dae067f1f1081742c,64c7d074ea2da31575eb90b6,right,1,0.6929,0.35,15,0.014478606,0.284,,,,,,260,0,260,0,1,,,,,
,,258866,001,2023-07-31_09h18.44.912,arm3_q,2022.2.5,Win32,62.5,5e5c993cd0394c474f7cc502,64c5699dae067f1f1081742c,64c7d074ea2da31575eb90b6,up,-1,0.6929,0.35,16,0,0.323,,,,,,261,0,261,0,1,,,,,
,,258866,001,2023-07-31_09h18.44.912,arm3_q,2022.2.5,Win32,62.5,5e5c993cd0394c474f7cc502,64c5699dae067f1f1081742c,64c7d074ea2da31575eb90b6,right,-1,0.6929,0.35,16,-0.015476464,0.466,,,,,,262,0,262,0,1,,,,,
,,258866,001,2023-07-31_09h18.44.912,arm3_q,2022.2.5,Win32,62.5,5e5c993cd0394c474f7cc502,64c5699dae067f1f1081742c,64c7d074ea2da31575eb90b6,right,-1,0.6929,0.35,16,-0.038996868,0.135,,,,,,263,0,263,0,1,,,,,
,,258866,001,2023-07-31_09h18.44.912,arm3_q,2022.2.5,Win32,62.5,5e5c993cd0394c474f7cc502,64c5699dae067f1f1081742c,64c7d074ea2da31575eb90b6,right,-1,0.6929,0.35,16,-0.038123382,0.14,,,,,,264,0,264,0,1,,,,,
,,258866,001,2023-07-31_09h18.44.912,arm3_q,2022.2.5,Win32,62.5,5e5c993cd0394c474f7cc502,64c5699dae067f1f1081742c,64c7d074ea2da31575eb90b6,right,-1,0.6929,0.35,16,-0.016132361,0.156,,,,,,265,0,265,0,1,,,,,
,,258866,001,2023-07-31_09h18.44.912,arm3_q,2022.2.5,Win32,62.5,5e5c993cd0394c474f7cc502,64c5699dae067f1f1081742c,64c7d074ea2da31575eb90b6,right,-1,0.6929,0.35,16,-0.048104757,0.149,,,,,,266,0,266,0,1,,,,,
,,258866,001,2023-07-31_09h18.44.912,arm3_q,2022.2.5,Win32,62.5,5e5c993cd0394c474f7cc502,64c5699dae067f1f1081742c,64c7d074ea2da31575eb90b6,right,-1,0.6929,0.35,16,-0.062959029,0.136,,,,,,267,0,267,0,1,,,,,
,,258866,001,2023-07-31_09h18.44.912,arm3_q,2022.2.5,Win32,62.5,5e5c993cd0394c474f7cc502,64c5699dae067f1f1081742c,64c7d074ea2da31575eb90b6,right,-1,0.6929,0.35,16,-0.049123245,0.147,,,,,,268,0,268,0,1,,,,,
,,258866,001,2023-07-31_09h18.44.912,arm3_q,2022.2.5,Win32,62.5,5e5c993cd0394c474f7cc502,64c5699dae067f1f1081742c,64c7d074ea2da31575eb90b6,right,-1,0.6929,0.35,16,-0.044039884,0.384,,,,,,269,0,269,0,1,,,,,
,,258866,001,2023-07-31_09h18.44.912,arm3_q,2022.2.5,Win32,62.5,5e5c993cd0394c474f7cc502,64c5699dae067f1f1081742c,64c7d074ea2da31575eb90b6,down,-1,0.6929,0.35,17,0,0.264,,,,,,270,0,270,0,1,,,,,
,,258866,001,2023-07-31_09h18.44.912,arm3_q,2022.2.5,Win32,62.5,5e5c993cd0394c474f7cc502,64c5699dae067f1f1081742c,64c7d074ea2da31575eb90b6,right,-1,0.6929,0.35,17,-0.001955058,0.422,,,,,,271,0,271,0,1,,,,,
,,258866,001,2023-07-31_09h18.44.912,arm3_q,2022.2.5,Win32,62.5,5e5c993cd0394c474f7cc502,64c5699dae067f1f1081742c,64c7d074ea2da31575eb90b6,right,-1,0.6929,0.35,17,0.007163353,0.156,,,,,,272,0,272,0,1,,,,,
,,258866,001,2023-07-31_09h18.44.912,arm3_q,2022.2.5,Win32,62.5,5e5c993cd0394c474f7cc502,64c5699dae067f1f1081742c,64c7d074ea2da31575eb90b6,right,-1,0.6929,0.35,17,0.010014147,0.158,,,,,,273,0,273,0,1,,,,,
,,258866,001,2023-07-31_09h18.44.912,arm3_q,2022.2.5,Win32,62.5,5e5c993cd0394c474f7cc502,64c5699dae067f1f1081742c,64c7d074ea2da31575eb90b6,right,-1,0.6929,0.35,17,0.011623053,0.151,,,,,,274,0,274,0,1,,,,,
,,258866,001,2023-07-31_09h18.44.912,arm3_q,2022.2.5,Win32,62.5,5e5c993cd0394c474f7cc502,64c5699dae067f1f1081742c,64c7d074ea2da31575eb90b6,right,-1,0.6929,0.35,17,-0.026510709,0.146,,,,,,275,0,275,0,1,,,,,
,,258866,001,2023-07-31_09h18.44.912,arm3_q,2022.2.5,Win32,62.5,5e5c993cd0394c474f7cc502,64c5699dae067f1f1081742c,64c7d074ea2da31575eb90b6,right,-1,0.6929,0.35,17,-0.032063445,0.121,,,,,,276,0,276,0,1,,,,,
,,258866,001,2023-07-31_09h18.44.912,arm3_q,2022.2.5,Win32,62.5,5e5c993cd0394c474f7cc502,64c5699dae067f1f1081742c,64c7d074ea2da31575eb90b6,right,-1,0.6929,0.35,17,-0.02963004,0.13,,,,,,277,0,277,0,1,,,,,
