space_bar.keys,space_bar.rt,participant,session,date,expName,psychopyVersion,OS,frameRate,PROLIFIC_PID,STUDY_ID,SESSION_ID,resp.keys,state,q_prob,eps_prob,score,price,resp.rt,train.thisRepN,train.thisTrialN,train.thisN,train.thisIndex,train.ran,steps.thisRepN,steps.thisTrialN,steps.thisN,steps.thisIndex,steps.ran,blocks.thisRepN,blocks.thisTrialN,blocks.thisN,blocks.thisIndex,blocks.ran
space,24.9427,522144,001,2023-07-31_16h06.05.902,arm3_q,2022.2.5,Win32,60.44122091,60399f04cc8c6352878f05c5,64c5699dae067f1f1081742c,64c7cde4e23039e28e28f981,,,,,,,,,,,,,,,,,,,,,,
space,3.3121,522144,001,2023-07-31_16h06.05.902,arm3_q,2022.2.5,Win32,60.44122091,60399f04cc8c6352878f05c5,64c5699dae067f1f1081742c,64c7cde4e23039e28e28f981,,,,,,,,,,,,,,,,,,,,,,
space,13.8186,522144,001,2023-07-31_16h06.05.902,arm3_q,2022.2.5,Win32,60.44122091,60399f04cc8c6352878f05c5,64c5699dae067f1f1081742c,64c7cde4e23039e28e28f981,,,,,,,,,,,,,,,,,,,,,,
space,14.3293,522144,001,2023-07-31_16h06.05.902,arm3_q,2022.2.5,Win32,60.44122091,60399f04cc8c6352878f05c5,64c5699dae067f1f1081742c,64c7cde4e23039e28e28f981,,,,,,,,,,,,,,,,,,,,,,
space,12.7335,522144,001,2023-07-31_16h06.05.902,arm3_q,2022.2.5,Win32,60.44122091,60399f04cc8c6352878f05c5,64c5699dae067f1f1081742c,64c7cde4e23039e28e28f981,,,,,,,,,,,,,,,,,,,,,,
space,8.2524,522144,001,2023-07-31_16h06.05.902,arm3_q,2022.2.5,Win32,60.44122091,60399f04cc8c6352878f05c5,64c5699dae067f1f1081742c,64c7cde4e23039e28e28f981,,,,,,,,,,,,,,,,,,,,,,
space,18.286,522144,001,2023-07-31_16h06.05.902,arm3_q,2022.2.5,Win32,60.44122091,60399f04cc8c6352878f05c5,64c5699dae067f1f1081742c,64c7cde4e23039e28e28f981,,,,,,,,,,,,,,,,,,,,,,
space,1.3891,522144,001,2023-07-31_16h06.05.902,arm3_q,2022.2.5,Win32,60.44122091,60399f04cc8c6352878f05c5,64c5699dae067f1f1081742c,64c7cde4e23039e28e28f981,,,,,,,,,,,,,,,,,,,,,,
,,522144,001,2023-07-31_16h06.05.902,arm3_q,2022.2.5,Win32,60.44122091,60399f04cc8c6352878f05c5,64c5699dae067f1f1081742c,64c7cde4e23039e28e28f981,up,-1,1,0.35,-1,0,12.0473,0,0,0,0,1,,,,,,,,,,
,,522144,001,2023-07-31_16h06.05.902,arm3_q,2022.2.5,Win32,60.44122091,60399f04cc8c6352878f05c5,64c5699dae067f1f1081742c,64c7cde4e23039e28e28f981,up,1,1,0.35,-2,0,2.5009,1,0,1,0,1,,,,,,,,,,
,,522144,001,2023-07-31_16h06.05.902,arm3_q,2022.2.5,Win32,60.44122091,60399f04cc8c6352878f05c5,64c5699dae067f1f1081742c,64c7cde4e23039e28e28f981,up,-1,1,0.35,-1,0,1.7191,2,0,2,0,1,,,,,,,,,,
,,522144,001,2023-07-31_16h06.05.902,arm3_q,2022.2.5,Win32,60.44122091,60399f04cc8c6352878f05c5,64c5699dae067f1f1081742c,64c7cde4e23039e28e28f981,down,-1,1,0.35,0,0,2.6565,3,0,3,0,1,,,,,,,,,,
,,522144,001,2023-07-31_16h06.05.902,arm3_q,2022.2.5,Win32,60.44122091,60399f04cc8c6352878f05c5,64c5699dae067f1f1081742c,64c7cde4e23039e28e28f981,right,-1,1,0.35,0,-0.002068735,1.4658,4,0,4,0,1,,,,,,,,,,
,,522144,001,2023-07-31_16h06.05.902,arm3_q,2022.2.5,Win32,60.44122091,60399f04cc8c6352878f05c5,64c5699dae067f1f1081742c,64c7cde4e23039e28e28f981,up,-1,1,0.35,-1,0,2.1827,5,0,5,0,1,,,,,,,,,,
,,522144,001,2023-07-31_16h06.05.902,arm3_q,2022.2.5,Win32,60.44122091,60399f04cc8c6352878f05c5,64c5699dae067f1f1081742c,64c7cde4e23039e28e28f981,down,1,1,0.35,0,0,1.6752,6,0,6,0,1,,,,,,,,,,
,,522144,001,2023-07-31_16h06.05.902,arm3_q,2022.2.5,Win32,60.44122091,60399f04cc8c6352878f05c5,64c5699dae067f1f1081742c,64c7cde4e23039e28e28f981,right,1,1,0.35,0,-0.0212462,2.8755,7,0,7,0,1,,,,,,,,,,
,,522144,001,2023-07-31_16h06.05.902,arm3_q,2022.2.5,Win32,60.44122091,60399f04cc8c6352878f05c5,64c5699dae067f1f1081742c,64c7cde4e23039e28e28f981,right,1,1,0.35,0,-0.013275907,0.8664,8,0,8,0,1,,,,,,,,,,
,,522144,001,2023-07-31_16h06.05.902,arm3_q,2022.2.5,Win32,60.44122091,60399f04cc8c6352878f05c5,64c5699dae067f1f1081742c,64c7cde4e23039e28e28f981,right,1,1,0.35,0,0.017355763,0.5543,9,0,9,0,1,,,,,,,,,,
,,522144,001,2023-07-31_16h06.05.902,arm3_q,2022.2.5,Win32,60.44122091,60399f04cc8c6352878f05c5,64c5699dae067f1f1081742c,64c7cde4e23039e28e28f981,right,1,1,0.35,0,0.010414229,0.6527,10,0,10,0,1,,,,,,,,,,
,,522144,001,2023-07-31_16h06.05.902,arm3_q,2022.2.5,Win32,60.44122091,60399f04cc8c6352878f05c5,64c5699dae067f1f1081742c,64c7cde4e23039e28e28f981,up,1,1,0.35,1,0,0.922,11,0,11,0,1,,,,,,,,,,
,,522144,001,2023-07-31_16h06.05.902,arm3_q,2022.2.5,Win32,60.44122091,60399f04cc8c6352878f05c5,64c5699dae067f1f1081742c,64c7cde4e23039e28e28f981,right,1,1,0.35,1,0.012333394,2.0841,12,0,12,0,1,,,,,,,,,,
,,522144,001,2023-07-31_16h06.05.902,arm3_q,2022.2.5,Win32,60.44122091,60399f04cc8c6352878f05c5,64c5699dae067f1f1081742c,64c7cde4e23039e28e28f981,right,1,1,0.35,1,0.020422101,0.2403,13,0,13,0,1,,,,,,,,,,
,,522144,001,2023-07-31_16h06.05.902,arm3_q,2022.2.5,Win32,60.44122091,60399f04cc8c6352878f05c5,64c5699dae067f1f1081742c,64c7cde4e23039e28e28f981,right,1,1,0.35,1,0.02486482,0.1626,14,0,14,0,1,,,,,,,,,,
,,522144,001,2023-07-31_16h06.05.902,arm3_q,2022.2.5,Win32,60.44122091,60399f04cc8c6352878f05c5,64c5699dae067f1f1081742c,64c7cde4e23039e28e28f981,right,1,1,0.35,1,0.058701004,0.6305,15,0,15,0,1,,,,,,,,,,
,,522144,001,2023-07-31_16h06.05.902,arm3_q,2022.2.5,Win32,60.44122091,60399f04cc8c6352878f05c5,64c5699dae067f1f1081742c,64c7cde4e23039e28e28f981,right,1,1,0.35,1,0.076544573,0.1404,16,0,16,0,1,,,,,,,,,,
,,522144,001,2023-07-31_16h06.05.902,arm3_q,2022.2.5,Win32,60.44122091,60399f04cc8c6352878f05c5,64c5699dae067f1f1081742c,64c7cde4e23039e28e28f981,up,1,1,0.35,2,0,0.5137,17,0,17,0,1,,,,,,,,,,
,,522144,001,2023-07-31_16h06.05.902,arm3_q,2022.2.5,Win32,60.44122091,60399f04cc8c6352878f05c5,64c5699dae067f1f1081742c,64c7cde4e23039e28e28f981,right,1,1,0.35,2,-0.010642429,0.9669,18,0,18,0,1,,,,,,,,,,
,,522144,001,2023-07-31_16h06.05.902,arm3_q,2022.2.5,Win32,60.44122091,60399f04cc8c6352878f05c5,64c5699dae067f1f1081742c,64c7cde4e23039e28e28f981,right,1,1,0.35,2,-0.006804062,0.3175,19,0,19,0,1,,,,,,,,,,
,,522144,001,2023-07-31_16h06.05.902,arm3_q,2022.2.5,Win32,60.44122091,60399f04cc8c6352878f05c5,64c5699dae067f1f1081742c,64c7cde4e23039e28e28f981,right,1,1,0.35,2,-0.011819892,0.0774,20,0,20,0,1,,,,,,,,,,
,,522144,001,2023-07-31_16h06.05.902,arm3_q,2022.2.5,Win32,60.44122091,60399f04cc8c6352878f05c5,64c5699dae067f1f1081742c,64c7cde4e23039e28e28f981,up,1,1,0.35,3,0,0.6124,21,0,21,0,1,,,,,,,,,,
,,522144,001,2023-07-31_16h06.05.902,arm3_q,2022.2.5,Win32,60.44122091,60399f04cc8c6352878f05c5,64c5699dae067f1f1081742c,64c7cde4e23039e28e28f981,right,1,1,0.35,3,-0.007123798,0.895,22,0,22,0,1,,,,,,,,,,
,,522144,001,2023-07-31_16h06.05.902,arm3_q,2022.2.5,Win32,60.44122091,60399f04cc8c6352878f05c5,64c5699dae067f1f1081742c,64c7cde4e23039e28e28f981,right,1,1,0.35,3,0.003326504,0.3135,23,0,23,0,1,,,,,,,,,,
,,522144,001,2023-07-31_16h06.05.902,arm3_q,2022.2.5,Win32,60.44122091,60399f04cc8c6352878f05c5,64c5699dae067f1f1081742c,64c7cde4e23039e28e28f981,right,1,1,0.35,3,-0.001519303,0.1056,24,0,24,0,1,,,,,,,,,,
,,522144,001,2023-07-31_16h06.05.902,arm3_q,2022.2.5,Win32,60.44122091,60399f04cc8c6352878f05c5,64c5699dae067f1f1081742c,64c7cde4e23039e28e28f981,up,-1,1,0.35,4,0,0.5295,25,0,25,0,1,,,,,,,,,,
,,522144,001,2023-07-31_16h06.05.902,arm3_q,2022.2.5,Win32,60.44122091,60399f04cc8c6352878f05c5,64c5699dae067f1f1081742c,64c7cde4e23039e28e28f981,right,-1,1,0.35,4,0.003985119,0.9175,26,0,26,0,1,,,,,,,,,,
,,522144,001,2023-07-31_16h06.05.902,arm3_q,2022.2.5,Win32,60.44122091,60399f04cc8c6352878f05c5,64c5699dae067f1f1081742c,64c7cde4e23039e28e28f981,right,-1,1,0.35,4,0.001257588,0.1874,27,0,27,0,1,,,,,,,,,,
,,522144,001,2023-07-31_16h06.05.902,arm3_q,2022.2.5,Win32,60.44122091,60399f04cc8c6352878f05c5,64c5699dae067f1f1081742c,64c7cde4e23039e28e28f981,right,-1,1,0.35,4,-0.010602243,0.242,28,0,28,0,1,,,,,,,,,,
,,522144,001,2023-07-31_16h06.05.902,arm3_q,2022.2.5,Win32,60.44122091,60399f04cc8c6352878f05c5,64c5699dae067f1f1081742c,64c7cde4e23039e28e28f981,down,-1,1,0.35,5,0,0.4349,29,0,29,0,1,,,,,,,,,,
,,522144,001,2023-07-31_16h06.05.902,arm3_q,2022.2.5,Win32,60.44122091,60399f04cc8c6352878f05c5,64c5699dae067f1f1081742c,64c7cde4e23039e28e28f981,right,-1,1,0.35,5,-0.040164166,0.8131,30,0,30,0,1,,,,,,,,,,
,,522144,001,2023-07-31_16h06.05.902,arm3_q,2022.2.5,Win32,60.44122091,60399f04cc8c6352878f05c5,64c5699dae067f1f1081742c,64c7cde4e23039e28e28f981,right,-1,1,0.35,5,-0.038045913,0.1356,31,0,31,0,1,,,,,,,,,,
,,522144,001,2023-07-31_16h06.05.902,arm3_q,2022.2.5,Win32,60.44122091,60399f04cc8c6352878f05c5,64c5699dae067f1f1081742c,64c7cde4e23039e28e28f981,down,-1,1,0.35,6,0,0.4837,32,0,32,0,1,,,,,,,,,,
,,522144,001,2023-07-31_16h06.05.902,arm3_q,2022.2.5,Win32,60.44122091,60399f04cc8c6352878f05c5,64c5699dae067f1f1081742c,64c7cde4e23039e28e28f981,right,-1,1,0.35,6,-0.022692902,0.8188,33,0,33,0,1,,,,,,,,,,
,,522144,001,2023-07-31_16h06.05.902,arm3_q,2022.2.5,Win32,60.44122091,60399f04cc8c6352878f05c5,64c5699dae067f1f1081742c,64c7cde4e23039e28e28f981,right,-1,1,0.35,6,-0.030305134,0.1303,34,0,34,0,1,,,,,,,,,,
,,522144,001,2023-07-31_16h06.05.902,arm3_q,2022.2.5,Win32,60.44122091,60399f04cc8c6352878f05c5,64c5699dae067f1f1081742c,64c7cde4e23039e28e28f981,down,1,1,0.35,7,0,0.5362,35,0,35,0,1,,,,,,,,,,
,,522144,001,2023-07-31_16h06.05.902,arm3_q,2022.2.5,Win32,60.44122091,60399f04cc8c6352878f05c5,64c5699dae067f1f1081742c,64c7cde4e23039e28e28f981,right,1,1,0.35,7,0.015714459,0.8099,36,0,36,0,1,,,,,,,,,,
,,522144,001,2023-07-31_16h06.05.902,arm3_q,2022.2.5,Win32,60.44122091,60399f04cc8c6352878f05c5,64c5699dae067f1f1081742c,64c7cde4e23039e28e28f981,up,1,1,0.35,8,0,0.5343,37,0,37,0,1,,,,,,,,,,
,,522144,001,2023-07-31_16h06.05.902,arm3_q,2022.2.5,Win32,60.44122091,60399f04cc8c6352878f05c5,64c5699dae067f1f1081742c,64c7cde4e23039e28e28f981,right,1,1,0.35,8,0.002240733,1.159,38,0,38,0,1,,,,,,,,,,
,,522144,001,2023-07-31_16h06.05.902,arm3_q,2022.2.5,Win32,60.44122091,60399f04cc8c6352878f05c5,64c5699dae067f1f1081742c,64c7cde4e23039e28e28f981,right,1,1,0.35,8,0.010820348,0.6408,39,0,39,0,1,,,,,,,,,,
,,522144,001,2023-07-31_16h06.05.902,arm3_q,2022.2.5,Win32,60.44122091,60399f04cc8c6352878f05c5,64c5699dae067f1f1081742c,64c7cde4e23039e28e28f981,up,-1,1,0.35,9,0,0.3564,40,0,40,0,1,,,,,,,,,,
,,522144,001,2023-07-31_16h06.05.902,arm3_q,2022.2.5,Win32,60.44122091,60399f04cc8c6352878f05c5,64c5699dae067f1f1081742c,64c7cde4e23039e28e28f981,up,-1,1,0.35,8,0,1.8426,41,0,41,0,1,,,,,,,,,,
,,522144,001,2023-07-31_16h06.05.902,arm3_q,2022.2.5,Win32,60.44122091,60399f04cc8c6352878f05c5,64c5699dae067f1f1081742c,64c7cde4e23039e28e28f981,right,-1,1,0.35,8,-0.013926074,0.9769,42,0,42,0,1,,,,,,,,,,
,,522144,001,2023-07-31_16h06.05.902,arm3_q,2022.2.5,Win32,60.44122091,60399f04cc8c6352878f05c5,64c5699dae067f1f1081742c,64c7cde4e23039e28e28f981,down,-1,1,0.35,9,0,0.3906,43,0,43,0,1,,,,,,,,,,
,,522144,001,2023-07-31_16h06.05.902,arm3_q,2022.2.5,Win32,60.44122091,60399f04cc8c6352878f05c5,64c5699dae067f1f1081742c,64c7cde4e23039e28e28f981,right,-1,1,0.35,9,-0.021725254,0.8474,44,0,44,0,1,,,,,,,,,,
,,522144,001,2023-07-31_16h06.05.902,arm3_q,2022.2.5,Win32,60.44122091,60399f04cc8c6352878f05c5,64c5699dae067f1f1081742c,64c7cde4e23039e28e28f981,right,-1,1,0.35,9,-0.042727809,0.1688,45,0,45,0,1,,,,,,,,,,
,,522144,001,2023-07-31_16h06.05.902,arm3_q,2022.2.5,Win32,60.44122091,60399f04cc8c6352878f05c5,64c5699dae067f1f1081742c,64c7cde4e23039e28e28f981,down,1,1,0.35,10,0,0.267,46,0,46,0,1,,,,,,,,,,
,,522144,001,2023-07-31_16h06.05.902,arm3_q,2022.2.5,Win32,60.44122091,60399f04cc8c6352878f05c5,64c5699dae067f1f1081742c,64c7cde4e23039e28e28f981,right,1,1,0.35,10,-0.018132643,0.7507,47,0,47,0,1,,,,,,,,,,
,,522144,001,2023-07-31_16h06.05.902,arm3_q,2022.2.5,Win32,60.44122091,60399f04cc8c6352878f05c5,64c5699dae067f1f1081742c,64c7cde4e23039e28e28f981,right,1,1,0.35,10,-0.00491248,0.4,48,0,48,0,1,,,,,,,,,,
,,522144,001,2023-07-31_16h06.05.902,arm3_q,2022.2.5,Win32,60.44122091,60399f04cc8c6352878f05c5,64c5699dae067f1f1081742c,64c7cde4e23039e28e28f981,right,1,1,0.35,10,0.013930302,0.3302,49,0,49,0,1,,,,,,,,,,
space,16.0447,522144,001,2023-07-31_16h06.05.902,arm3_q,2022.2.5,Win32,60.44122091,60399f04cc8c6352878f05c5,64c5699dae067f1f1081742c,64c7cde4e23039e28e28f981,,,,,,,,,,,,,,,,,,,,,,
space,8.1147,522144,001,2023-07-31_16h06.05.902,arm3_q,2022.2.5,Win32,60.44122091,60399f04cc8c6352878f05c5,64c5699dae067f1f1081742c,64c7cde4e23039e28e28f981,,,,,,,,,,,,,,,,,,,,,,
space,12.3379,522144,001,2023-07-31_16h06.05.902,arm3_q,2022.2.5,Win32,60.44122091,60399f04cc8c6352878f05c5,64c5699dae067f1f1081742c,64c7cde4e23039e28e28f981,,,,,,,,,,,,,,,,,,,,,,
space,4.2568,522144,001,2023-07-31_16h06.05.902,arm3_q,2022.2.5,Win32,60.44122091,60399f04cc8c6352878f05c5,64c5699dae067f1f1081742c,64c7cde4e23039e28e28f981,,,,,,,,,,,,,,,,,,,,,,
space,5.2492,522144,001,2023-07-31_16h06.05.902,arm3_q,2022.2.5,Win32,60.44122091,60399f04cc8c6352878f05c5,64c5699dae067f1f1081742c,64c7cde4e23039e28e28f981,,,,,,,,,,,,,,,,,,,,,,
space,1.1244,522144,001,2023-07-31_16h06.05.902,arm3_q,2022.2.5,Win32,60.44122091,60399f04cc8c6352878f05c5,64c5699dae067f1f1081742c,64c7cde4e23039e28e28f981,,,,,,,,,,,,,,,,,,,,,,
,,522144,001,2023-07-31_16h06.05.902,arm3_q,2022.2.5,Win32,60.44122091,60399f04cc8c6352878f05c5,64c5699dae067f1f1081742c,64c7cde4e23039e28e28f981,right,1,0.5643,0.35,0,0.004026421,1.6558,0,0,0,0,1,,,,,,,,,,
,,522144,001,2023-07-31_16h06.05.902,arm3_q,2022.2.5,Win32,60.44122091,60399f04cc8c6352878f05c5,64c5699dae067f1f1081742c,64c7cde4e23039e28e28f981,right,1,0.5643,0.35,0,0.003024603,0.733,1,0,1,0,1,,,,,,,,,,
,,522144,001,2023-07-31_16h06.05.902,arm3_q,2022.2.5,Win32,60.44122091,60399f04cc8c6352878f05c5,64c5699dae067f1f1081742c,64c7cde4e23039e28e28f981,up,1,0.5643,0.35,0,0,0.4161,2,0,2,0,1,,,,,,,,,,
,,522144,001,2023-07-31_16h06.05.902,arm3_q,2022.2.5,Win32,60.44122091,60399f04cc8c6352878f05c5,64c5699dae067f1f1081742c,64c7cde4e23039e28e28f981,right,1,0.5643,0.35,0,0.007244967,1.1329,3,0,3,0,1,,,,,,,,,,
,,522144,001,2023-07-31_16h06.05.902,arm3_q,2022.2.5,Win32,60.44122091,60399f04cc8c6352878f05c5,64c5699dae067f1f1081742c,64c7cde4e23039e28e28f981,up,-1,0.5643,0.35,1,0,0.6909,4,0,4,0,1,,,,,,,,,,
,,522144,001,2023-07-31_16h06.05.902,arm3_q,2022.2.5,Win32,60.44122091,60399f04cc8c6352878f05c5,64c5699dae067f1f1081742c,64c7cde4e23039e28e28f981,down,-1,0.5643,0.35,2,0,1.539,5,0,5,0,1,,,,,,,,,,
,,522144,001,2023-07-31_16h06.05.902,arm3_q,2022.2.5,Win32,60.44122091,60399f04cc8c6352878f05c5,64c5699dae067f1f1081742c,64c7cde4e23039e28e28f981,down,-1,0.5643,0.35,3,0,1.1165,6,0,6,0,1,,,,,,,,,,
,,522144,001,2023-07-31_16h06.05.902,arm3_q,2022.2.5,Win32,60.44122091,60399f04cc8c6352878f05c5,64c5699dae067f1f1081742c,64c7cde4e23039e28e28f981,down,1,0.5643,0.35,3,0,1.3829,7,0,7,0,1,,,,,,,,,,
,,522144,001,2023-07-31_16h06.05.902,arm3_q,2022.2.5,Win32,60.44122091,60399f04cc8c6352878f05c5,64c5699dae067f1f1081742c,64c7cde4e23039e28e28f981,right,1,0.5643,0.35,3,0.016359255,1.5053,8,0,8,0,1,,,,,,,,,,
,,522144,001,2023-07-31_16h06.05.902,arm3_q,2022.2.5,Win32,60.44122091,60399f04cc8c6352878f05c5,64c5699dae067f1f1081742c,64c7cde4e23039e28e28f981,up,1,0.5643,0.35,3,0,0.3847,9,0,9,0,1,,,,,,,,,,
,,522144,001,2023-07-31_16h06.05.902,arm3_q,2022.2.5,Win32,60.44122091,60399f04cc8c6352878f05c5,64c5699dae067f1f1081742c,64c7cde4e23039e28e28f981,right,1,0.5643,0.35,3,0.008978354,1.1902,10,0,10,0,1,,,,,,,,,,
,,522144,001,2023-07-31_16h06.05.902,arm3_q,2022.2.5,Win32,60.44122091,60399f04cc8c6352878f05c5,64c5699dae067f1f1081742c,64c7cde4e23039e28e28f981,right,1,0.5643,0.35,3,0.010452582,1.2758,11,0,11,0,1,,,,,,,,,,
,,522144,001,2023-07-31_16h06.05.902,arm3_q,2022.2.5,Win32,60.44122091,60399f04cc8c6352878f05c5,64c5699dae067f1f1081742c,64c7cde4e23039e28e28f981,up,-1,0.5643,0.35,3,0,0.4841,12,0,12,0,1,,,,,,,,,,
,,522144,001,2023-07-31_16h06.05.902,arm3_q,2022.2.5,Win32,60.44122091,60399f04cc8c6352878f05c5,64c5699dae067f1f1081742c,64c7cde4e23039e28e28f981,right,-1,0.5643,0.35,3,-0.0227205,1.5568,13,0,13,0,1,,,,,,,,,,
,,522144,001,2023-07-31_16h06.05.902,arm3_q,2022.2.5,Win32,60.44122091,60399f04cc8c6352878f05c5,64c5699dae067f1f1081742c,64c7cde4e23039e28e28f981,right,-1,0.5643,0.35,3,-0.011716914,0.7528,14,0,14,0,1,,,,,,,,,,
,,522144,001,2023-07-31_16h06.05.902,arm3_q,2022.2.5,Win32,60.44122091,60399f04cc8c6352878f05c5,64c5699dae067f1f1081742c,64c7cde4e23039e28e28f981,up,1,0.5643,0.35,2,0,0.3425,15,0,15,0,1,,,,,,,,,,
,,522144,001,2023-07-31_16h06.05.902,arm3_q,2022.2.5,Win32,60.44122091,60399f04cc8c6352878f05c5,64c5699dae067f1f1081742c,64c7cde4e23039e28e28f981,right,1,0.5643,0.35,2,0.008404329,1.0088,16,0,16,0,1,,,,,,,,,,
,,522144,001,2023-07-31_16h06.05.902,arm3_q,2022.2.5,Win32,60.44122091,60399f04cc8c6352878f05c5,64c5699dae067f1f1081742c,64c7cde4e23039e28e28f981,up,-1,0.5643,0.35,3,0,0.517,17,0,17,0,1,,,,,,,,,,
,,522144,001,2023-07-31_16h06.05.902,arm3_q,2022.2.5,Win32,60.44122091,60399f04cc8c6352878f05c5,64c5699dae067f1f1081742c,64c7cde4e23039e28e28f981,right,-1,0.5643,0.35,3,-0.000417864,1.5723,18,0,18,0,1,,,,,,,,,,
,,522144,001,2023-07-31_16h06.05.902,arm3_q,2022.2.5,Win32,60.44122091,60399f04cc8c6352878f05c5,64c5699dae067f1f1081742c,64c7cde4e23039e28e28f981,down,1,0.5643,0.35,4,0,0.7664,19,0,19,0,1,,,,,,,,,,
,,522144,001,2023-07-31_16h06.05.902,arm3_q,2022.2.5,Win32,60.44122091,60399f04cc8c6352878f05c5,64c5699dae067f1f1081742c,64c7cde4e23039e28e28f981,right,1,0.5643,0.35,4,-0.002965767,0.8863,20,0,20,0,1,,,,,,,,,,
,,522144,001,2023-07-31_16h06.05.902,arm3_q,2022.2.5,Win32,60.44122091,60399f04cc8c6352878f05c5,64c5699dae067f1f1081742c,64c7cde4e23039e28e28f981,up,-1,0.5643,0.35,4,0,0.5437,21,0,21,0,1,,,,,,,,,,
,,522144,001,2023-07-31_16h06.05.902,arm3_q,2022.2.5,Win32,60.44122091,60399f04cc8c6352878f05c5,64c5699dae067f1f1081742c,64c7cde4e23039e28e28f981,right,-1,0.5643,0.35,4,0.013945584,0.8505,22,0,22,0,1,,,,,,,,,,
,,522144,001,2023-07-31_16h06.05.902,arm3_q,2022.2.5,Win32,60.44122091,60399f04cc8c6352878f05c5,64c5699dae067f1f1081742c,64c7cde4e23039e28e28f981,right,-1,0.5643,0.35,4,0.009133306,1.4734,23,0,23,0,1,,,,,,,,,,
,,522144,001,2023-07-31_16h06.05.902,arm3_q,2022.2.5,Win32,60.44122091,60399f04cc8c6352878f05c5,64c5699dae067f1f1081742c,64c7cde4e23039e28e28f981,right,-1,0.5643,0.35,4,0.011644169,0.7063,24,0,24,0,1,,,,,,,,,,
,,522144,001,2023-07-31_16h06.05.902,arm3_q,2022.2.5,Win32,60.44122091,60399f04cc8c6352878f05c5,64c5699dae067f1f1081742c,64c7cde4e23039e28e28f981,up,1,0.5643,0.35,3,0,0.5613,25,0,25,0,1,,,,,,,,,,
,,522144,001,2023-07-31_16h06.05.902,arm3_q,2022.2.5,Win32,60.44122091,60399f04cc8c6352878f05c5,64c5699dae067f1f1081742c,64c7cde4e23039e28e28f981,right,1,0.5643,0.35,3,0.000115077,0.9618,26,0,26,0,1,,,,,,,,,,
,,522144,001,2023-07-31_16h06.05.902,arm3_q,2022.2.5,Win32,60.44122091,60399f04cc8c6352878f05c5,64c5699dae067f1f1081742c,64c7cde4e23039e28e28f981,right,1,0.5643,0.35,3,-0.001897258,0.4372,27,0,27,0,1,,,,,,,,,,
,,522144,001,2023-07-31_16h06.05.902,arm3_q,2022.2.5,Win32,60.44122091,60399f04cc8c6352878f05c5,64c5699dae067f1f1081742c,64c7cde4e23039e28e28f981,down,-1,0.5643,0.35,3,0,0.5002,28,0,28,0,1,,,,,,,,,,
,,522144,001,2023-07-31_16h06.05.902,arm3_q,2022.2.5,Win32,60.44122091,60399f04cc8c6352878f05c5,64c5699dae067f1f1081742c,64c7cde4e23039e28e28f981,right,-1,0.5643,0.35,3,-0.031206087,0.9114,29,0,29,0,1,,,,,,,,,,
,,522144,001,2023-07-31_16h06.05.902,arm3_q,2022.2.5,Win32,60.44122091,60399f04cc8c6352878f05c5,64c5699dae067f1f1081742c,64c7cde4e23039e28e28f981,down,-1,0.5643,0.35,4,0,0.7083,30,0,30,0,1,,,,,,,,,,
,,522144,001,2023-07-31_16h06.05.902,arm3_q,2022.2.5,Win32,60.44122091,60399f04cc8c6352878f05c5,64c5699dae067f1f1081742c,64c7cde4e23039e28e28f981,right,-1,0.5643,0.35,4,-0.009385524,0.9621,31,0,31,0,1,,,,,,,,,,
,,522144,001,2023-07-31_16h06.05.902,arm3_q,2022.2.5,Win32,60.44122091,60399f04cc8c6352878f05c5,64c5699dae067f1f1081742c,64c7cde4e23039e28e28f981,down,-1,0.5643,0.35,5,0,0.8834,32,0,32,0,1,,,,,,,,,,
,,522144,001,2023-07-31_16h06.05.902,arm3_q,2022.2.5,Win32,60.44122091,60399f04cc8c6352878f05c5,64c5699dae067f1f1081742c,64c7cde4e23039e28e28f981,right,-1,0.5643,0.35,5,0.013869107,0.8506,33,0,33,0,1,,,,,,,,,,
,,522144,001,2023-07-31_16h06.05.902,arm3_q,2022.2.5,Win32,60.44122091,60399f04cc8c6352878f05c5,64c5699dae067f1f1081742c,64c7cde4e23039e28e28f981,down,1,0.5643,0.35,6,0,1.5158,34,0,34,0,1,,,,,,,,,,
,,522144,001,2023-07-31_16h06.05.902,arm3_q,2022.2.5,Win32,60.44122091,60399f04cc8c6352878f05c5,64c5699dae067f1f1081742c,64c7cde4e23039e28e28f981,right,1,0.5643,0.35,6,0.022642784,0.8664,35,0,35,0,1,,,,,,,,,,
,,522144,001,2023-07-31_16h06.05.902,arm3_q,2022.2.5,Win32,60.44122091,60399f04cc8c6352878f05c5,64c5699dae067f1f1081742c,64c7cde4e23039e28e28f981,down,1,0.5643,0.35,6,0,0.7971,36,0,36,0,1,,,,,,,,,,
,,522144,001,2023-07-31_16h06.05.902,arm3_q,2022.2.5,Win32,60.44122091,60399f04cc8c6352878f05c5,64c5699dae067f1f1081742c,64c7cde4e23039e28e28f981,right,1,0.5643,0.35,6,0.007870037,0.9343,37,0,37,0,1,,,,,,,,,,
,,522144,001,2023-07-31_16h06.05.902,arm3_q,2022.2.5,Win32,60.44122091,60399f04cc8c6352878f05c5,64c5699dae067f1f1081742c,64c7cde4e23039e28e28f981,right,1,0.5643,0.35,6,0.004452604,1.1429,38,0,38,0,1,,,,,,,,,,
,,522144,001,2023-07-31_16h06.05.902,arm3_q,2022.2.5,Win32,60.44122091,60399f04cc8c6352878f05c5,64c5699dae067f1f1081742c,64c7cde4e23039e28e28f981,up,-1,0.5643,0.35,6,0,0.517,39,0,39,0,1,,,,,,,,,,
,,522144,001,2023-07-31_16h06.05.902,arm3_q,2022.2.5,Win32,60.44122091,60399f04cc8c6352878f05c5,64c5699dae067f1f1081742c,64c7cde4e23039e28e28f981,right,-1,0.5643,0.35,6,-0.011466471,2.1068,40,0,40,0,1,,,,,,,,,,
,,522144,001,2023-07-31_16h06.05.902,arm3_q,2022.2.5,Win32,60.44122091,60399f04cc8c6352878f05c5,64c5699dae067f1f1081742c,64c7cde4e23039e28e28f981,down,-1,0.5643,0.35,7,0,0.5006,41,0,41,0,1,,,,,,,,,,
,,522144,001,2023-07-31_16h06.05.902,arm3_q,2022.2.5,Win32,60.44122091,60399f04cc8c6352878f05c5,64c5699dae067f1f1081742c,64c7cde4e23039e28e28f981,right,-1,0.5643,0.35,7,0.003959737,1.1561,42,0,42,0,1,,,,,,,,,,
,,522144,001,2023-07-31_16h06.05.902,arm3_q,2022.2.5,Win32,60.44122091,60399f04cc8c6352878f05c5,64c5699dae067f1f1081742c,64c7cde4e23039e28e28f981,down,-1,0.5643,0.35,8,0,0.5135,43,0,43,0,1,,,,,,,,,,
,,522144,001,2023-07-31_16h06.05.902,arm3_q,2022.2.5,Win32,60.44122091,60399f04cc8c6352878f05c5,64c5699dae067f1f1081742c,64c7cde4e23039e28e28f981,right,-1,0.5643,0.35,8,-0.001353593,0.8222,44,0,44,0,1,,,,,,,,,,
,,522144,001,2023-07-31_16h06.05.902,arm3_q,2022.2.5,Win32,60.44122091,60399f04cc8c6352878f05c5,64c5699dae067f1f1081742c,64c7cde4e23039e28e28f981,down,-1,0.5643,0.35,8,0,1.2747,45,0,45,0,1,,,,,,,,,,
,,522144,001,2023-07-31_16h06.05.902,arm3_q,2022.2.5,Win32,60.44122091,60399f04cc8c6352878f05c5,64c5699dae067f1f1081742c,64c7cde4e23039e28e28f981,down,-1,0.5643,0.35,8,0,1.3263,46,0,46,0,1,,,,,,,,,,
,,522144,001,2023-07-31_16h06.05.902,arm3_q,2022.2.5,Win32,60.44122091,60399f04cc8c6352878f05c5,64c5699dae067f1f1081742c,64c7cde4e23039e28e28f981,right,-1,0.5643,0.35,8,-0.005284346,1.1344,47,0,47,0,1,,,,,,,,,,
,,522144,001,2023-07-31_16h06.05.902,arm3_q,2022.2.5,Win32,60.44122091,60399f04cc8c6352878f05c5,64c5699dae067f1f1081742c,64c7cde4e23039e28e28f981,up,-1,0.5643,0.35,7,0,0.4496,48,0,48,0,1,,,,,,,,,,
,,522144,001,2023-07-31_16h06.05.902,arm3_q,2022.2.5,Win32,60.44122091,60399f04cc8c6352878f05c5,64c5699dae067f1f1081742c,64c7cde4e23039e28e28f981,right,-1,0.5643,0.35,7,-0.016772999,0.9798,49,0,49,0,1,,,,,,,,,,
space,16.056,522144,001,2023-07-31_16h06.05.902,arm3_q,2022.2.5,Win32,60.44122091,60399f04cc8c6352878f05c5,64c5699dae067f1f1081742c,64c7cde4e23039e28e28f981,,,,,,,,,,,,,,,,,,,,,,
space,12.233,522144,001,2023-07-31_16h06.05.902,arm3_q,2022.2.5,Win32,60.44122091,60399f04cc8c6352878f05c5,64c5699dae067f1f1081742c,64c7cde4e23039e28e28f981,,,,,,,,,,,,,,,,,,,,,,
space,1.2903,522144,001,2023-07-31_16h06.05.902,arm3_q,2022.2.5,Win32,60.44122091,60399f04cc8c6352878f05c5,64c5699dae067f1f1081742c,64c7cde4e23039e28e28f981,,,,,,,,,,,,,,,,,,,,,,
,,522144,001,2023-07-31_16h06.05.902,arm3_q,2022.2.5,Win32,60.44122091,60399f04cc8c6352878f05c5,64c5699dae067f1f1081742c,64c7cde4e23039e28e28f981,down,1,0.95,0.35,1,0,1.6503,0,0,0,0,1,,,,,,,,,,
,,522144,001,2023-07-31_16h06.05.902,arm3_q,2022.2.5,Win32,60.44122091,60399f04cc8c6352878f05c5,64c5699dae067f1f1081742c,64c7cde4e23039e28e28f981,right,1,0.95,0.35,1,0.006732238,1.8671,1,0,1,0,1,,,,,,,,,,
,,522144,001,2023-07-31_16h06.05.902,arm3_q,2022.2.5,Win32,60.44122091,60399f04cc8c6352878f05c5,64c5699dae067f1f1081742c,64c7cde4e23039e28e28f981,right,1,0.95,0.35,1,0.01109664,1.2334,2,0,2,0,1,,,,,,,,,,
,,522144,001,2023-07-31_16h06.05.902,arm3_q,2022.2.5,Win32,60.44122091,60399f04cc8c6352878f05c5,64c5699dae067f1f1081742c,64c7cde4e23039e28e28f981,right,1,0.95,0.35,1,0.003407069,0.6829,3,0,3,0,1,,,,,,,,,,
,,522144,001,2023-07-31_16h06.05.902,arm3_q,2022.2.5,Win32,60.44122091,60399f04cc8c6352878f05c5,64c5699dae067f1f1081742c,64c7cde4e23039e28e28f981,right,1,0.95,0.35,1,-0.002575868,0.5727,4,0,4,0,1,,,,,,,,,,
,,522144,001,2023-07-31_16h06.05.902,arm3_q,2022.2.5,Win32,60.44122091,60399f04cc8c6352878f05c5,64c5699dae067f1f1081742c,64c7cde4e23039e28e28f981,down,-1,0.95,0.35,0,0,0.9669,5,0,5,0,1,,,,,,,,,,
,,522144,001,2023-07-31_16h06.05.902,arm3_q,2022.2.5,Win32,60.44122091,60399f04cc8c6352878f05c5,64c5699dae067f1f1081742c,64c7cde4e23039e28e28f981,right,-1,0.95,0.35,0,-0.000774219,0.9527,6,0,6,0,1,,,,,,,,,,
,,522144,001,2023-07-31_16h06.05.902,arm3_q,2022.2.5,Win32,60.44122091,60399f04cc8c6352878f05c5,64c5699dae067f1f1081742c,64c7cde4e23039e28e28f981,up,-1,0.95,0.35,-1,0,0.4487,7,0,7,0,1,,,,,,,,,,
,,522144,001,2023-07-31_16h06.05.902,arm3_q,2022.2.5,Win32,60.44122091,60399f04cc8c6352878f05c5,64c5699dae067f1f1081742c,64c7cde4e23039e28e28f981,down,-1,0.95,0.35,0,0,1.4593,8,0,8,0,1,,,,,,,,,,
,,522144,001,2023-07-31_16h06.05.902,arm3_q,2022.2.5,Win32,60.44122091,60399f04cc8c6352878f05c5,64c5699dae067f1f1081742c,64c7cde4e23039e28e28f981,right,-1,0.95,0.35,0,-0.004370847,1.1997,9,0,9,0,1,,,,,,,,,,
,,522144,001,2023-07-31_16h06.05.902,arm3_q,2022.2.5,Win32,60.44122091,60399f04cc8c6352878f05c5,64c5699dae067f1f1081742c,64c7cde4e23039e28e28f981,up,-1,0.95,0.35,-1,0,0.6166,10,0,10,0,1,,,,,,,,,,
,,522144,001,2023-07-31_16h06.05.902,arm3_q,2022.2.5,Win32,60.44122091,60399f04cc8c6352878f05c5,64c5699dae067f1f1081742c,64c7cde4e23039e28e28f981,right,-1,0.95,0.35,-1,-0.042906654,1.45,11,0,11,0,1,,,,,,,,,,
,,522144,001,2023-07-31_16h06.05.902,arm3_q,2022.2.5,Win32,60.44122091,60399f04cc8c6352878f05c5,64c5699dae067f1f1081742c,64c7cde4e23039e28e28f981,right,-1,0.95,0.35,-1,-0.042349977,0.8665,12,0,12,0,1,,,,,,,,,,
,,522144,001,2023-07-31_16h06.05.902,arm3_q,2022.2.5,Win32,60.44122091,60399f04cc8c6352878f05c5,64c5699dae067f1f1081742c,64c7cde4e23039e28e28f981,down,-1,0.95,0.35,0,0,0.4734,13,0,13,0,1,,,,,,,,,,
,,522144,001,2023-07-31_16h06.05.902,arm3_q,2022.2.5,Win32,60.44122091,60399f04cc8c6352878f05c5,64c5699dae067f1f1081742c,64c7cde4e23039e28e28f981,right,-1,0.95,0.35,0,-0.005141494,1.2495,14,0,14,0,1,,,,,,,,,,
,,522144,001,2023-07-31_16h06.05.902,arm3_q,2022.2.5,Win32,60.44122091,60399f04cc8c6352878f05c5,64c5699dae067f1f1081742c,64c7cde4e23039e28e28f981,down,-1,0.95,0.35,1,0,0.519,15,0,15,0,1,,,,,,,,,,
,,522144,001,2023-07-31_16h06.05.902,arm3_q,2022.2.5,Win32,60.44122091,60399f04cc8c6352878f05c5,64c5699dae067f1f1081742c,64c7cde4e23039e28e28f981,right,-1,0.95,0.35,1,-0.027172426,1.1767,16,0,16,0,1,,,,,,,,,,
,,522144,001,2023-07-31_16h06.05.902,arm3_q,2022.2.5,Win32,60.44122091,60399f04cc8c6352878f05c5,64c5699dae067f1f1081742c,64c7cde4e23039e28e28f981,right,-1,0.95,0.35,1,-0.024124937,1.2745,17,0,17,0,1,,,,,,,,,,
,,522144,001,2023-07-31_16h06.05.902,arm3_q,2022.2.5,Win32,60.44122091,60399f04cc8c6352878f05c5,64c5699dae067f1f1081742c,64c7cde4e23039e28e28f981,down,1,0.95,0.35,2,0,0.6545,18,0,18,0,1,,,,,,,,,,
,,522144,001,2023-07-31_16h06.05.902,arm3_q,2022.2.5,Win32,60.44122091,60399f04cc8c6352878f05c5,64c5699dae067f1f1081742c,64c7cde4e23039e28e28f981,right,1,0.95,0.35,2,0.02103833,1.5168,19,0,19,0,1,,,,,,,,,,
,,522144,001,2023-07-31_16h06.05.902,arm3_q,2022.2.5,Win32,60.44122091,60399f04cc8c6352878f05c5,64c5699dae067f1f1081742c,64c7cde4e23039e28e28f981,right,1,0.95,0.35,2,0.028728958,0.968,20,0,20,0,1,,,,,,,,,,
,,522144,001,2023-07-31_16h06.05.902,arm3_q,2022.2.5,Win32,60.44122091,60399f04cc8c6352878f05c5,64c5699dae067f1f1081742c,64c7cde4e23039e28e28f981,up,-1,0.95,0.35,3,0,0.4173,21,0,21,0,1,,,,,,,,,,
,,522144,001,2023-07-31_16h06.05.902,arm3_q,2022.2.5,Win32,60.44122091,60399f04cc8c6352878f05c5,64c5699dae067f1f1081742c,64c7cde4e23039e28e28f981,down,1,0.95,0.35,4,0,1.2172,22,0,22,0,1,,,,,,,,,,
,,522144,001,2023-07-31_16h06.05.902,arm3_q,2022.2.5,Win32,60.44122091,60399f04cc8c6352878f05c5,64c5699dae067f1f1081742c,64c7cde4e23039e28e28f981,right,1,0.95,0.35,4,0.005906419,1.2519,23,0,23,0,1,,,,,,,,,,
,,522144,001,2023-07-31_16h06.05.902,arm3_q,2022.2.5,Win32,60.44122091,60399f04cc8c6352878f05c5,64c5699dae067f1f1081742c,64c7cde4e23039e28e28f981,up,-1,0.95,0.35,4,0,0.3502,24,0,24,0,1,,,,,,,,,,
,,522144,001,2023-07-31_16h06.05.902,arm3_q,2022.2.5,Win32,60.44122091,60399f04cc8c6352878f05c5,64c5699dae067f1f1081742c,64c7cde4e23039e28e28f981,right,-1,0.95,0.35,4,0.021955047,0.9516,25,0,25,0,1,,,,,,,,,,
,,522144,001,2023-07-31_16h06.05.902,arm3_q,2022.2.5,Win32,60.44122091,60399f04cc8c6352878f05c5,64c5699dae067f1f1081742c,64c7cde4e23039e28e28f981,down,-1,0.95,0.35,5,0,0.7831,26,0,26,0,1,,,,,,,,,,
,,522144,001,2023-07-31_16h06.05.902,arm3_q,2022.2.5,Win32,60.44122091,60399f04cc8c6352878f05c5,64c5699dae067f1f1081742c,64c7cde4e23039e28e28f981,right,-1,0.95,0.35,5,-0.006199423,0.9468,27,0,27,0,1,,,,,,,,,,
,,522144,001,2023-07-31_16h06.05.902,arm3_q,2022.2.5,Win32,60.44122091,60399f04cc8c6352878f05c5,64c5699dae067f1f1081742c,64c7cde4e23039e28e28f981,down,-1,0.95,0.35,6,0,0.4883,28,0,28,0,1,,,,,,,,,,
,,522144,001,2023-07-31_16h06.05.902,arm3_q,2022.2.5,Win32,60.44122091,60399f04cc8c6352878f05c5,64c5699dae067f1f1081742c,64c7cde4e23039e28e28f981,right,-1,0.95,0.35,6,-0.028766007,0.9163,29,0,29,0,1,,,,,,,,,,
,,522144,001,2023-07-31_16h06.05.902,arm3_q,2022.2.5,Win32,60.44122091,60399f04cc8c6352878f05c5,64c5699dae067f1f1081742c,64c7cde4e23039e28e28f981,up,-1,0.95,0.35,5,0,0.7482,30,0,30,0,1,,,,,,,,,,
,,522144,001,2023-07-31_16h06.05.902,arm3_q,2022.2.5,Win32,60.44122091,60399f04cc8c6352878f05c5,64c5699dae067f1f1081742c,64c7cde4e23039e28e28f981,right,-1,0.95,0.35,5,-0.040735542,0.8671,31,0,31,0,1,,,,,,,,,,
,,522144,001,2023-07-31_16h06.05.902,arm3_q,2022.2.5,Win32,60.44122091,60399f04cc8c6352878f05c5,64c5699dae067f1f1081742c,64c7cde4e23039e28e28f981,right,-1,0.95,0.35,5,-0.027416151,0.6337,32,0,32,0,1,,,,,,,,,,
,,522144,001,2023-07-31_16h06.05.902,arm3_q,2022.2.5,Win32,60.44122091,60399f04cc8c6352878f05c5,64c5699dae067f1f1081742c,64c7cde4e23039e28e28f981,right,-1,0.95,0.35,5,-0.011122642,0.401,33,0,33,0,1,,,,,,,,,,
,,522144,001,2023-07-31_16h06.05.902,arm3_q,2022.2.5,Win32,60.44122091,60399f04cc8c6352878f05c5,64c5699dae067f1f1081742c,64c7cde4e23039e28e28f981,down,1,0.95,0.35,6,0,0.6332,34,0,34,0,1,,,,,,,,,,
,,522144,001,2023-07-31_16h06.05.902,arm3_q,2022.2.5,Win32,60.44122091,60399f04cc8c6352878f05c5,64c5699dae067f1f1081742c,64c7cde4e23039e28e28f981,right,1,0.95,0.35,6,0.032847812,0.8667,35,0,35,0,1,,,,,,,,,,
,,522144,001,2023-07-31_16h06.05.902,arm3_q,2022.2.5,Win32,60.44122091,60399f04cc8c6352878f05c5,64c5699dae067f1f1081742c,64c7cde4e23039e28e28f981,down,1,0.95,0.35,5,0,0.8668,36,0,36,0,1,,,,,,,,,,
,,522144,001,2023-07-31_16h06.05.902,arm3_q,2022.2.5,Win32,60.44122091,60399f04cc8c6352878f05c5,64c5699dae067f1f1081742c,64c7cde4e23039e28e28f981,right,1,0.95,0.35,5,0.022391581,0.8006,37,0,37,0,1,,,,,,,,,,
,,522144,001,2023-07-31_16h06.05.902,arm3_q,2022.2.5,Win32,60.44122091,60399f04cc8c6352878f05c5,64c5699dae067f1f1081742c,64c7cde4e23039e28e28f981,right,1,0.95,0.35,5,0.033345105,0.4842,38,0,38,0,1,,,,,,,,,,
,,522144,001,2023-07-31_16h06.05.902,arm3_q,2022.2.5,Win32,60.44122091,60399f04cc8c6352878f05c5,64c5699dae067f1f1081742c,64c7cde4e23039e28e28f981,up,1,0.95,0.35,6,0,0.5502,39,0,39,0,1,,,,,,,,,,
,,522144,001,2023-07-31_16h06.05.902,arm3_q,2022.2.5,Win32,60.44122091,60399f04cc8c6352878f05c5,64c5699dae067f1f1081742c,64c7cde4e23039e28e28f981,right,1,0.95,0.35,6,0.010611609,0.9551,40,0,40,0,1,,,,,,,,,,
,,522144,001,2023-07-31_16h06.05.902,arm3_q,2022.2.5,Win32,60.44122091,60399f04cc8c6352878f05c5,64c5699dae067f1f1081742c,64c7cde4e23039e28e28f981,up,-1,0.95,0.35,7,0,0.5606,41,0,41,0,1,,,,,,,,,,
,,522144,001,2023-07-31_16h06.05.902,arm3_q,2022.2.5,Win32,60.44122091,60399f04cc8c6352878f05c5,64c5699dae067f1f1081742c,64c7cde4e23039e28e28f981,down,1,0.95,0.35,8,0,1.2666,42,0,42,0,1,,,,,,,,,,
,,522144,001,2023-07-31_16h06.05.902,arm3_q,2022.2.5,Win32,60.44122091,60399f04cc8c6352878f05c5,64c5699dae067f1f1081742c,64c7cde4e23039e28e28f981,right,1,0.95,0.35,8,0.015891929,1.3628,43,0,43,0,1,,,,,,,,,,
,,522144,001,2023-07-31_16h06.05.902,arm3_q,2022.2.5,Win32,60.44122091,60399f04cc8c6352878f05c5,64c5699dae067f1f1081742c,64c7cde4e23039e28e28f981,right,1,0.95,0.35,8,0.005213892,0.9762,44,0,44,0,1,,,,,,,,,,
,,522144,001,2023-07-31_16h06.05.902,arm3_q,2022.2.5,Win32,60.44122091,60399f04cc8c6352878f05c5,64c5699dae067f1f1081742c,64c7cde4e23039e28e28f981,right,1,0.95,0.35,8,0.004827116,0.6266,45,0,45,0,1,,,,,,,,,,
,,522144,001,2023-07-31_16h06.05.902,arm3_q,2022.2.5,Win32,60.44122091,60399f04cc8c6352878f05c5,64c5699dae067f1f1081742c,64c7cde4e23039e28e28f981,up,-1,0.95,0.35,9,0,0.4831,46,0,46,0,1,,,,,,,,,,
,,522144,001,2023-07-31_16h06.05.902,arm3_q,2022.2.5,Win32,60.44122091,60399f04cc8c6352878f05c5,64c5699dae067f1f1081742c,64c7cde4e23039e28e28f981,right,-1,0.95,0.35,9,0.004791259,1.6532,47,0,47,0,1,,,,,,,,,,
,,522144,001,2023-07-31_16h06.05.902,arm3_q,2022.2.5,Win32,60.44122091,60399f04cc8c6352878f05c5,64c5699dae067f1f1081742c,64c7cde4e23039e28e28f981,right,-1,0.95,0.35,9,0.006110435,0.667,48,0,48,0,1,,,,,,,,,,
,,522144,001,2023-07-31_16h06.05.902,arm3_q,2022.2.5,Win32,60.44122091,60399f04cc8c6352878f05c5,64c5699dae067f1f1081742c,64c7cde4e23039e28e28f981,up,-1,0.95,0.35,9,0.006110435,0.4832,49,0,49,0,1,,,,,,,,,,
space,11.6124,522144,001,2023-07-31_16h06.05.902,arm3_q,2022.2.5,Win32,60.44122091,60399f04cc8c6352878f05c5,64c5699dae067f1f1081742c,64c7cde4e23039e28e28f981,,,,,,,,,,,,,,,,,,,,,,
space,1.383,522144,001,2023-07-31_16h06.05.902,arm3_q,2022.2.5,Win32,60.44122091,60399f04cc8c6352878f05c5,64c5699dae067f1f1081742c,64c7cde4e23039e28e28f981,,,,,,,,,,,,,,,,,,,,,,
,,522144,001,2023-07-31_16h06.05.902,arm3_q,2022.2.5,Win32,60.44122091,60399f04cc8c6352878f05c5,64c5699dae067f1f1081742c,64c7cde4e23039e28e28f981,right,-1,0.05,0.35,0,-0.04241098,1.1089,0,0,0,0,1,,,,,,,,,,
,,522144,001,2023-07-31_16h06.05.902,arm3_q,2022.2.5,Win32,60.44122091,60399f04cc8c6352878f05c5,64c5699dae067f1f1081742c,64c7cde4e23039e28e28f981,right,-1,0.05,0.35,0,-0.018711228,0.6106,1,0,1,0,1,,,,,,,,,,
,,522144,001,2023-07-31_16h06.05.902,arm3_q,2022.2.5,Win32,60.44122091,60399f04cc8c6352878f05c5,64c5699dae067f1f1081742c,64c7cde4e23039e28e28f981,up,-1,0.05,0.35,0,0,0.4554,2,0,2,0,1,,,,,,,,,,
,,522144,001,2023-07-31_16h06.05.902,arm3_q,2022.2.5,Win32,60.44122091,60399f04cc8c6352878f05c5,64c5699dae067f1f1081742c,64c7cde4e23039e28e28f981,right,-1,0.05,0.35,0,0.023157209,2.1779,3,0,3,0,1,,,,,,,,,,
,,522144,001,2023-07-31_16h06.05.902,arm3_q,2022.2.5,Win32,60.44122091,60399f04cc8c6352878f05c5,64c5699dae067f1f1081742c,64c7cde4e23039e28e28f981,up,-1,0.05,0.35,0,0,0.6572,4,0,4,0,1,,,,,,,,,,
,,522144,001,2023-07-31_16h06.05.902,arm3_q,2022.2.5,Win32,60.44122091,60399f04cc8c6352878f05c5,64c5699dae067f1f1081742c,64c7cde4e23039e28e28f981,right,-1,0.05,0.35,0,0.018330836,1.4999,5,0,5,0,1,,,,,,,,,,
,,522144,001,2023-07-31_16h06.05.902,arm3_q,2022.2.5,Win32,60.44122091,60399f04cc8c6352878f05c5,64c5699dae067f1f1081742c,64c7cde4e23039e28e28f981,down,-1,0.05,0.35,0,0,0.6828,6,0,6,0,1,,,,,,,,,,
,,522144,001,2023-07-31_16h06.05.902,arm3_q,2022.2.5,Win32,60.44122091,60399f04cc8c6352878f05c5,64c5699dae067f1f1081742c,64c7cde4e23039e28e28f981,right,-1,0.05,0.35,0,-0.026924048,1.4165,7,0,7,0,1,,,,,,,,,,
,,522144,001,2023-07-31_16h06.05.902,arm3_q,2022.2.5,Win32,60.44122091,60399f04cc8c6352878f05c5,64c5699dae067f1f1081742c,64c7cde4e23039e28e28f981,down,-1,0.05,0.35,0,0,0.5839,8,0,8,0,1,,,,,,,,,,
,,522144,001,2023-07-31_16h06.05.902,arm3_q,2022.2.5,Win32,60.44122091,60399f04cc8c6352878f05c5,64c5699dae067f1f1081742c,64c7cde4e23039e28e28f981,right,-1,0.05,0.35,0,-0.019766353,1.8204,9,0,9,0,1,,,,,,,,,,
,,522144,001,2023-07-31_16h06.05.902,arm3_q,2022.2.5,Win32,60.44122091,60399f04cc8c6352878f05c5,64c5699dae067f1f1081742c,64c7cde4e23039e28e28f981,down,-1,0.05,0.35,0,0,0.4472,10,0,10,0,1,,,,,,,,,,
,,522144,001,2023-07-31_16h06.05.902,arm3_q,2022.2.5,Win32,60.44122091,60399f04cc8c6352878f05c5,64c5699dae067f1f1081742c,64c7cde4e23039e28e28f981,right,-1,0.05,0.35,0,-0.012342763,1.999,11,0,11,0,1,,,,,,,,,,
,,522144,001,2023-07-31_16h06.05.902,arm3_q,2022.2.5,Win32,60.44122091,60399f04cc8c6352878f05c5,64c5699dae067f1f1081742c,64c7cde4e23039e28e28f981,down,-1,0.05,0.35,0,0,0.3172,12,0,12,0,1,,,,,,,,,,
,,522144,001,2023-07-31_16h06.05.902,arm3_q,2022.2.5,Win32,60.44122091,60399f04cc8c6352878f05c5,64c5699dae067f1f1081742c,64c7cde4e23039e28e28f981,up,-1,0.05,0.35,0,0,1.3287,13,0,13,0,1,,,,,,,,,,
,,522144,001,2023-07-31_16h06.05.902,arm3_q,2022.2.5,Win32,60.44122091,60399f04cc8c6352878f05c5,64c5699dae067f1f1081742c,64c7cde4e23039e28e28f981,right,-1,0.05,0.35,0,0.022060745,1.9733,14,0,14,0,1,,,,,,,,,,
,,522144,001,2023-07-31_16h06.05.902,arm3_q,2022.2.5,Win32,60.44122091,60399f04cc8c6352878f05c5,64c5699dae067f1f1081742c,64c7cde4e23039e28e28f981,right,-1,0.05,0.35,0,0.018955375,0.6669,15,0,15,0,1,,,,,,,,,,
,,522144,001,2023-07-31_16h06.05.902,arm3_q,2022.2.5,Win32,60.44122091,60399f04cc8c6352878f05c5,64c5699dae067f1f1081742c,64c7cde4e23039e28e28f981,right,-1,0.05,0.35,0,0.024139137,0.6123,16,0,16,0,1,,,,,,,,,,
,,522144,001,2023-07-31_16h06.05.902,arm3_q,2022.2.5,Win32,60.44122091,60399f04cc8c6352878f05c5,64c5699dae067f1f1081742c,64c7cde4e23039e28e28f981,down,-1,0.05,0.35,0,0,0.5955,17,0,17,0,1,,,,,,,,,,
,,522144,001,2023-07-31_16h06.05.902,arm3_q,2022.2.5,Win32,60.44122091,60399f04cc8c6352878f05c5,64c5699dae067f1f1081742c,64c7cde4e23039e28e28f981,right,-1,0.05,0.35,0,-0.026116586,1.5332,18,0,18,0,1,,,,,,,,,,
,,522144,001,2023-07-31_16h06.05.902,arm3_q,2022.2.5,Win32,60.44122091,60399f04cc8c6352878f05c5,64c5699dae067f1f1081742c,64c7cde4e23039e28e28f981,down,-1,0.05,0.35,0,0,0.5568,19,0,19,0,1,,,,,,,,,,
,,522144,001,2023-07-31_16h06.05.902,arm3_q,2022.2.5,Win32,60.44122091,60399f04cc8c6352878f05c5,64c5699dae067f1f1081742c,64c7cde4e23039e28e28f981,right,-1,0.05,0.35,0,-0.002870798,0.8638,20,0,20,0,1,,,,,,,,,,
,,522144,001,2023-07-31_16h06.05.902,arm3_q,2022.2.5,Win32,60.44122091,60399f04cc8c6352878f05c5,64c5699dae067f1f1081742c,64c7cde4e23039e28e28f981,right,-1,0.05,0.35,0,-0.002314628,0.4417,21,0,21,0,1,,,,,,,,,,
,,522144,001,2023-07-31_16h06.05.902,arm3_q,2022.2.5,Win32,60.44122091,60399f04cc8c6352878f05c5,64c5699dae067f1f1081742c,64c7cde4e23039e28e28f981,right,-1,0.05,0.35,0,-0.010765115,0.6431,22,0,22,0,1,,,,,,,,,,
,,522144,001,2023-07-31_16h06.05.902,arm3_q,2022.2.5,Win32,60.44122091,60399f04cc8c6352878f05c5,64c5699dae067f1f1081742c,64c7cde4e23039e28e28f981,right,-1,0.05,0.35,0,0.014486853,0.6588,23,0,23,0,1,,,,,,,,,,
,,522144,001,2023-07-31_16h06.05.902,arm3_q,2022.2.5,Win32,60.44122091,60399f04cc8c6352878f05c5,64c5699dae067f1f1081742c,64c7cde4e23039e28e28f981,right,-1,0.05,0.35,0,0.009051256,0.5804,24,0,24,0,1,,,,,,,,,,
,,522144,001,2023-07-31_16h06.05.902,arm3_q,2022.2.5,Win32,60.44122091,60399f04cc8c6352878f05c5,64c5699dae067f1f1081742c,64c7cde4e23039e28e28f981,up,-1,0.05,0.35,0,0,0.5816,25,0,25,0,1,,,,,,,,,,
,,522144,001,2023-07-31_16h06.05.902,arm3_q,2022.2.5,Win32,60.44122091,60399f04cc8c6352878f05c5,64c5699dae067f1f1081742c,64c7cde4e23039e28e28f981,right,-1,0.05,0.35,0,-0.011932278,1.5978,26,0,26,0,1,,,,,,,,,,
,,522144,001,2023-07-31_16h06.05.902,arm3_q,2022.2.5,Win32,60.44122091,60399f04cc8c6352878f05c5,64c5699dae067f1f1081742c,64c7cde4e23039e28e28f981,right,-1,0.05,0.35,0,-0.00602824,0.8569,27,0,27,0,1,,,,,,,,,,
,,522144,001,2023-07-31_16h06.05.902,arm3_q,2022.2.5,Win32,60.44122091,60399f04cc8c6352878f05c5,64c5699dae067f1f1081742c,64c7cde4e23039e28e28f981,down,1,0.05,0.35,0,0,0.5594,28,0,28,0,1,,,,,,,,,,
,,522144,001,2023-07-31_16h06.05.902,arm3_q,2022.2.5,Win32,60.44122091,60399f04cc8c6352878f05c5,64c5699dae067f1f1081742c,64c7cde4e23039e28e28f981,right,1,0.05,0.35,0,-0.010474083,1.1644,29,0,29,0,1,,,,,,,,,,
,,522144,001,2023-07-31_16h06.05.902,arm3_q,2022.2.5,Win32,60.44122091,60399f04cc8c6352878f05c5,64c5699dae067f1f1081742c,64c7cde4e23039e28e28f981,up,-1,0.05,0.35,0,0,0.5257,30,0,30,0,1,,,,,,,,,,
,,522144,001,2023-07-31_16h06.05.902,arm3_q,2022.2.5,Win32,60.44122091,60399f04cc8c6352878f05c5,64c5699dae067f1f1081742c,64c7cde4e23039e28e28f981,right,-1,0.05,0.35,0,-0.01094666,1.1782,31,0,31,0,1,,,,,,,,,,
,,522144,001,2023-07-31_16h06.05.902,arm3_q,2022.2.5,Win32,60.44122091,60399f04cc8c6352878f05c5,64c5699dae067f1f1081742c,64c7cde4e23039e28e28f981,down,-1,0.05,0.35,0,0,0.415,32,0,32,0,1,,,,,,,,,,
,,522144,001,2023-07-31_16h06.05.902,arm3_q,2022.2.5,Win32,60.44122091,60399f04cc8c6352878f05c5,64c5699dae067f1f1081742c,64c7cde4e23039e28e28f981,right,-1,0.05,0.35,0,0.001608227,0.9615,33,0,33,0,1,,,,,,,,,,
,,522144,001,2023-07-31_16h06.05.902,arm3_q,2022.2.5,Win32,60.44122091,60399f04cc8c6352878f05c5,64c5699dae067f1f1081742c,64c7cde4e23039e28e28f981,down,-1,0.05,0.35,0,0,0.425,34,0,34,0,1,,,,,,,,,,
,,522144,001,2023-07-31_16h06.05.902,arm3_q,2022.2.5,Win32,60.44122091,60399f04cc8c6352878f05c5,64c5699dae067f1f1081742c,64c7cde4e23039e28e28f981,right,-1,0.05,0.35,0,0.003404065,0.8456,35,0,35,0,1,,,,,,,,,,
,,522144,001,2023-07-31_16h06.05.902,arm3_q,2022.2.5,Win32,60.44122091,60399f04cc8c6352878f05c5,64c5699dae067f1f1081742c,64c7cde4e23039e28e28f981,right,-1,0.05,0.35,0,0.011948044,0.8396,36,0,36,0,1,,,,,,,,,,
,,522144,001,2023-07-31_16h06.05.902,arm3_q,2022.2.5,Win32,60.44122091,60399f04cc8c6352878f05c5,64c5699dae067f1f1081742c,64c7cde4e23039e28e28f981,right,-1,0.05,0.35,0,0.013105582,0.6104,37,0,37,0,1,,,,,,,,,,
,,522144,001,2023-07-31_16h06.05.902,arm3_q,2022.2.5,Win32,60.44122091,60399f04cc8c6352878f05c5,64c5699dae067f1f1081742c,64c7cde4e23039e28e28f981,right,-1,0.05,0.35,0,-0.003506675,0.5821,38,0,38,0,1,,,,,,,,,,
,,522144,001,2023-07-31_16h06.05.902,arm3_q,2022.2.5,Win32,60.44122091,60399f04cc8c6352878f05c5,64c5699dae067f1f1081742c,64c7cde4e23039e28e28f981,right,-1,0.05,0.35,0,0.004332241,0.5834,39,0,39,0,1,,,,,,,,,,
,,522144,001,2023-07-31_16h06.05.902,arm3_q,2022.2.5,Win32,60.44122091,60399f04cc8c6352878f05c5,64c5699dae067f1f1081742c,64c7cde4e23039e28e28f981,right,-1,0.05,0.35,0,-0.01308216,0.8739,40,0,40,0,1,,,,,,,,,,
,,522144,001,2023-07-31_16h06.05.902,arm3_q,2022.2.5,Win32,60.44122091,60399f04cc8c6352878f05c5,64c5699dae067f1f1081742c,64c7cde4e23039e28e28f981,down,-1,0.05,0.35,0,0,0.6083,41,0,41,0,1,,,,,,,,,,
,,522144,001,2023-07-31_16h06.05.902,arm3_q,2022.2.5,Win32,60.44122091,60399f04cc8c6352878f05c5,64c5699dae067f1f1081742c,64c7cde4e23039e28e28f981,down,-1,0.05,0.35,0,0,1.4961,42,0,42,0,1,,,,,,,,,,
,,522144,001,2023-07-31_16h06.05.902,arm3_q,2022.2.5,Win32,60.44122091,60399f04cc8c6352878f05c5,64c5699dae067f1f1081742c,64c7cde4e23039e28e28f981,right,-1,0.05,0.35,0,0.009289573,1.2608,43,0,43,0,1,,,,,,,,,,
,,522144,001,2023-07-31_16h06.05.902,arm3_q,2022.2.5,Win32,60.44122091,60399f04cc8c6352878f05c5,64c5699dae067f1f1081742c,64c7cde4e23039e28e28f981,down,-1,0.05,0.35,0,0,0.9492,44,0,44,0,1,,,,,,,,,,
,,522144,001,2023-07-31_16h06.05.902,arm3_q,2022.2.5,Win32,60.44122091,60399f04cc8c6352878f05c5,64c5699dae067f1f1081742c,64c7cde4e23039e28e28f981,right,-1,0.05,0.35,0,-0.005444294,1.203,45,0,45,0,1,,,,,,,,,,
,,522144,001,2023-07-31_16h06.05.902,arm3_q,2022.2.5,Win32,60.44122091,60399f04cc8c6352878f05c5,64c5699dae067f1f1081742c,64c7cde4e23039e28e28f981,right,-1,0.05,0.35,0,-0.001564081,0.5478,46,0,46,0,1,,,,,,,,,,
,,522144,001,2023-07-31_16h06.05.902,arm3_q,2022.2.5,Win32,60.44122091,60399f04cc8c6352878f05c5,64c5699dae067f1f1081742c,64c7cde4e23039e28e28f981,down,1,0.05,0.35,1,0,0.5055,47,0,47,0,1,,,,,,,,,,
,,522144,001,2023-07-31_16h06.05.902,arm3_q,2022.2.5,Win32,60.44122091,60399f04cc8c6352878f05c5,64c5699dae067f1f1081742c,64c7cde4e23039e28e28f981,right,1,0.05,0.35,1,-0.034681446,1.415,48,0,48,0,1,,,,,,,,,,
,,522144,001,2023-07-31_16h06.05.902,arm3_q,2022.2.5,Win32,60.44122091,60399f04cc8c6352878f05c5,64c5699dae067f1f1081742c,64c7cde4e23039e28e28f981,up,1,0.05,0.35,1,-0.034681446,0.6501,49,0,49,0,1,,,,,,,,,,
space,1.6808,522144,001,2023-07-31_16h06.05.902,arm3_q,2022.2.5,Win32,60.44122091,60399f04cc8c6352878f05c5,64c5699dae067f1f1081742c,64c7cde4e23039e28e28f981,,,,,,,,,,,,,,,,,,,,,,
space,2.5611,522144,001,2023-07-31_16h06.05.902,arm3_q,2022.2.5,Win32,60.44122091,60399f04cc8c6352878f05c5,64c5699dae067f1f1081742c,64c7cde4e23039e28e28f981,down,-1,0.1786,0.35,0,0,1.7262,,,,,,0,0,0,0,1,,,,,
,,522144,001,2023-07-31_16h06.05.902,arm3_q,2022.2.5,Win32,60.44122091,60399f04cc8c6352878f05c5,64c5699dae067f1f1081742c,64c7cde4e23039e28e28f981,down,-1,0.1786,0.35,1,0,1.864,,,,,,1,0,1,0,1,,,,,
,,522144,001,2023-07-31_16h06.05.902,arm3_q,2022.2.5,Win32,60.44122091,60399f04cc8c6352878f05c5,64c5699dae067f1f1081742c,64c7cde4e23039e28e28f981,right,-1,0.1786,0.35,1,-0.001388266,1.2995,,,,,,2,0,2,0,1,,,,,
,,522144,001,2023-07-31_16h06.05.902,arm3_q,2022.2.5,Win32,60.44122091,60399f04cc8c6352878f05c5,64c5699dae067f1f1081742c,64c7cde4e23039e28e28f981,up,-1,0.1786,0.35,1,0,1.0331,,,,,,3,0,3,0,1,,,,,
,,522144,001,2023-07-31_16h06.05.902,arm3_q,2022.2.5,Win32,60.44122091,60399f04cc8c6352878f05c5,64c5699dae067f1f1081742c,64c7cde4e23039e28e28f981,right,-1,0.1786,0.35,1,-0.007488794,1.4438,,,,,,4,0,4,0,1,,,,,
,,522144,001,2023-07-31_16h06.05.902,arm3_q,2022.2.5,Win32,60.44122091,60399f04cc8c6352878f05c5,64c5699dae067f1f1081742c,64c7cde4e23039e28e28f981,right,-1,0.1786,0.35,1,-0.005070594,0.5498,,,,,,5,0,5,0,1,,,,,
,,522144,001,2023-07-31_16h06.05.902,arm3_q,2022.2.5,Win32,60.44122091,60399f04cc8c6352878f05c5,64c5699dae067f1f1081742c,64c7cde4e23039e28e28f981,right,-1,0.1786,0.35,1,-0.010814412,0.9185,,,,,,6,0,6,0,1,,,,,
,,522144,001,2023-07-31_16h06.05.902,arm3_q,2022.2.5,Win32,60.44122091,60399f04cc8c6352878f05c5,64c5699dae067f1f1081742c,64c7cde4e23039e28e28f981,down,-1,0.1786,0.35,1,0,0.7329,,,,,,7,0,7,0,1,,,,,
,,522144,001,2023-07-31_16h06.05.902,arm3_q,2022.2.5,Win32,60.44122091,60399f04cc8c6352878f05c5,64c5699dae067f1f1081742c,64c7cde4e23039e28e28f981,right,-1,0.1786,0.35,1,0.010947775,1.187,,,,,,8,0,8,0,1,,,,,
,,522144,001,2023-07-31_16h06.05.902,arm3_q,2022.2.5,Win32,60.44122091,60399f04cc8c6352878f05c5,64c5699dae067f1f1081742c,64c7cde4e23039e28e28f981,up,-1,0.1786,0.35,1,0,0.4369,,,,,,9,0,9,0,1,,,,,
,,522144,001,2023-07-31_16h06.05.902,arm3_q,2022.2.5,Win32,60.44122091,60399f04cc8c6352878f05c5,64c5699dae067f1f1081742c,64c7cde4e23039e28e28f981,right,-1,0.1786,0.35,1,-0.017575993,1.7711,,,,,,10,0,10,0,1,,,,,
,,522144,001,2023-07-31_16h06.05.902,arm3_q,2022.2.5,Win32,60.44122091,60399f04cc8c6352878f05c5,64c5699dae067f1f1081742c,64c7cde4e23039e28e28f981,right,-1,0.1786,0.35,1,-0.002207327,0.5814,,,,,,11,0,11,0,1,,,,,
,,522144,001,2023-07-31_16h06.05.902,arm3_q,2022.2.5,Win32,60.44122091,60399f04cc8c6352878f05c5,64c5699dae067f1f1081742c,64c7cde4e23039e28e28f981,down,-1,0.1786,0.35,1,0,0.5016,,,,,,12,0,12,0,1,,,,,
,,522144,001,2023-07-31_16h06.05.902,arm3_q,2022.2.5,Win32,60.44122091,60399f04cc8c6352878f05c5,64c5699dae067f1f1081742c,64c7cde4e23039e28e28f981,right,-1,0.1786,0.35,1,-0.018897714,1.2852,,,,,,13,0,13,0,1,,,,,
,,522144,001,2023-07-31_16h06.05.902,arm3_q,2022.2.5,Win32,60.44122091,60399f04cc8c6352878f05c5,64c5699dae067f1f1081742c,64c7cde4e23039e28e28f981,down,-1,0.1786,0.35,1,0,0.544,,,,,,14,0,14,0,1,,,,,
,,522144,001,2023-07-31_16h06.05.902,arm3_q,2022.2.5,Win32,60.44122091,60399f04cc8c6352878f05c5,64c5699dae067f1f1081742c,64c7cde4e23039e28e28f981,right,-1,0.1786,0.35,1,0.002328418,0.9293,,,,,,15,0,15,0,1,,,,,
,,522144,001,2023-07-31_16h06.05.902,arm3_q,2022.2.5,Win32,60.44122091,60399f04cc8c6352878f05c5,64c5699dae067f1f1081742c,64c7cde4e23039e28e28f981,up,-1,0.1786,0.35,1,0,0.5679,,,,,,16,0,16,0,1,,,,,
,,522144,001,2023-07-31_16h06.05.902,arm3_q,2022.2.5,Win32,60.44122091,60399f04cc8c6352878f05c5,64c5699dae067f1f1081742c,64c7cde4e23039e28e28f981,right,-1,0.1786,0.35,1,0.007153404,0.8395,,,,,,17,0,17,0,1,,,,,
,,522144,001,2023-07-31_16h06.05.902,arm3_q,2022.2.5,Win32,60.44122091,60399f04cc8c6352878f05c5,64c5699dae067f1f1081742c,64c7cde4e23039e28e28f981,right,-1,0.1786,0.35,1,0.002416904,0.8188,,,,,,18,0,18,0,1,,,,,
,,522144,001,2023-07-31_16h06.05.902,arm3_q,2022.2.5,Win32,60.44122091,60399f04cc8c6352878f05c5,64c5699dae067f1f1081742c,64c7cde4e23039e28e28f981,right,-1,0.1786,0.35,1,-0.001493295,0.5228,,,,,,19,0,19,0,1,,,,,
,,522144,001,2023-07-31_16h06.05.902,arm3_q,2022.2.5,Win32,60.44122091,60399f04cc8c6352878f05c5,64c5699dae067f1f1081742c,64c7cde4e23039e28e28f981,down,1,0.1786,0.35,1,0,0.5485,,,,,,20,0,20,0,1,,,,,
,,522144,001,2023-07-31_16h06.05.902,arm3_q,2022.2.5,Win32,60.44122091,60399f04cc8c6352878f05c5,64c5699dae067f1f1081742c,64c7cde4e23039e28e28f981,right,1,0.1786,0.35,1,0.012726316,0.9299,,,,,,21,0,21,0,1,,,,,
,,522144,001,2023-07-31_16h06.05.902,arm3_q,2022.2.5,Win32,60.44122091,60399f04cc8c6352878f05c5,64c5699dae067f1f1081742c,64c7cde4e23039e28e28f981,right,1,0.1786,0.35,1,0.008593017,0.5242,,,,,,22,0,22,0,1,,,,,
,,522144,001,2023-07-31_16h06.05.902,arm3_q,2022.2.5,Win32,60.44122091,60399f04cc8c6352878f05c5,64c5699dae067f1f1081742c,64c7cde4e23039e28e28f981,right,1,0.1786,0.35,1,0.003457331,0.514,,,,,,23,0,23,0,1,,,,,
,,522144,001,2023-07-31_16h06.05.902,arm3_q,2022.2.5,Win32,60.44122091,60399f04cc8c6352878f05c5,64c5699dae067f1f1081742c,64c7cde4e23039e28e28f981,up,-1,0.1786,0.35,1,0,0.5775,,,,,,24,0,24,0,1,,,,,
,,522144,001,2023-07-31_16h06.05.902,arm3_q,2022.2.5,Win32,60.44122091,60399f04cc8c6352878f05c5,64c5699dae067f1f1081742c,64c7cde4e23039e28e28f981,right,-1,0.1786,0.35,1,0.010630371,0.8498,,,,,,25,0,25,0,1,,,,,
,,522144,001,2023-07-31_16h06.05.902,arm3_q,2022.2.5,Win32,60.44122091,60399f04cc8c6352878f05c5,64c5699dae067f1f1081742c,64c7cde4e23039e28e28f981,up,1,0.1786,0.35,1,0,0.5906,,,,,,26,0,26,0,1,,,,,
,,522144,001,2023-07-31_16h06.05.902,arm3_q,2022.2.5,Win32,60.44122091,60399f04cc8c6352878f05c5,64c5699dae067f1f1081742c,64c7cde4e23039e28e28f981,right,1,0.1786,0.35,1,0.004360071,1.212,,,,,,27,0,27,0,1,,,,,
,,522144,001,2023-07-31_16h06.05.902,arm3_q,2022.2.5,Win32,60.44122091,60399f04cc8c6352878f05c5,64c5699dae067f1f1081742c,64c7cde4e23039e28e28f981,down,1,0.1786,0.35,1,0,0.5342,,,,,,28,0,28,0,1,,,,,
,,522144,001,2023-07-31_16h06.05.902,arm3_q,2022.2.5,Win32,60.44122091,60399f04cc8c6352878f05c5,64c5699dae067f1f1081742c,64c7cde4e23039e28e28f981,right,1,0.1786,0.35,1,0.017747832,0.8552,,,,,,29,0,29,0,1,,,,,
,,522144,001,2023-07-31_16h06.05.902,arm3_q,2022.2.5,Win32,60.44122091,60399f04cc8c6352878f05c5,64c5699dae067f1f1081742c,64c7cde4e23039e28e28f981,down,1,0.1786,0.35,1,0,1.1063,,,,,,30,0,30,0,1,,,,,
,,522144,001,2023-07-31_16h06.05.902,arm3_q,2022.2.5,Win32,60.44122091,60399f04cc8c6352878f05c5,64c5699dae067f1f1081742c,64c7cde4e23039e28e28f981,right,1,0.1786,0.35,1,0.025967108,1.0013,,,,,,31,0,31,0,1,,,,,
,,522144,001,2023-07-31_16h06.05.902,arm3_q,2022.2.5,Win32,60.44122091,60399f04cc8c6352878f05c5,64c5699dae067f1f1081742c,64c7cde4e23039e28e28f981,right,1,0.1786,0.35,1,0.027873245,0.7038,,,,,,32,0,32,0,1,,,,,
,,522144,001,2023-07-31_16h06.05.902,arm3_q,2022.2.5,Win32,60.44122091,60399f04cc8c6352878f05c5,64c5699dae067f1f1081742c,64c7cde4e23039e28e28f981,up,1,0.1786,0.35,1,0,0.3995,,,,,,33,0,33,0,1,,,,,
,,522144,001,2023-07-31_16h06.05.902,arm3_q,2022.2.5,Win32,60.44122091,60399f04cc8c6352878f05c5,64c5699dae067f1f1081742c,64c7cde4e23039e28e28f981,right,1,0.1786,0.35,1,-0.003615096,1.4241,,,,,,34,0,34,0,1,,,,,
,,522144,001,2023-07-31_16h06.05.902,arm3_q,2022.2.5,Win32,60.44122091,60399f04cc8c6352878f05c5,64c5699dae067f1f1081742c,64c7cde4e23039e28e28f981,down,-1,0.1786,0.35,1,0,0.5835,,,,,,35,0,35,0,1,,,,,
,,522144,001,2023-07-31_16h06.05.902,arm3_q,2022.2.5,Win32,60.44122091,60399f04cc8c6352878f05c5,64c5699dae067f1f1081742c,64c7cde4e23039e28e28f981,right,-1,0.1786,0.35,1,-0.020852773,1.2474,,,,,,36,0,36,0,1,,,,,
,,522144,001,2023-07-31_16h06.05.902,arm3_q,2022.2.5,Win32,60.44122091,60399f04cc8c6352878f05c5,64c5699dae067f1f1081742c,64c7cde4e23039e28e28f981,down,-1,0.1786,0.35,2,0,0.4932,,,,,,37,0,37,0,1,,,,,
,,522144,001,2023-07-31_16h06.05.902,arm3_q,2022.2.5,Win32,60.44122091,60399f04cc8c6352878f05c5,64c5699dae067f1f1081742c,64c7cde4e23039e28e28f981,right,-1,0.1786,0.35,2,0.002916843,1.3213,,,,,,38,0,38,0,1,,,,,
,,522144,001,2023-07-31_16h06.05.902,arm3_q,2022.2.5,Win32,60.44122091,60399f04cc8c6352878f05c5,64c5699dae067f1f1081742c,64c7cde4e23039e28e28f981,right,-1,0.1786,0.35,2,-0.01565244,1.0381,,,,,,39,0,39,0,1,,,,,
,,522144,001,2023-07-31_16h06.05.902,arm3_q,2022.2.5,Win32,60.44122091,60399f04cc8c6352878f05c5,64c5699dae067f1f1081742c,64c7cde4e23039e28e28f981,right,-1,0.1786,0.35,2,-0.02161397,0.8933,,,,,,40,0,40,0,1,,,,,
,,522144,001,2023-07-31_16h06.05.902,arm3_q,2022.2.5,Win32,60.44122091,60399f04cc8c6352878f05c5,64c5699dae067f1f1081742c,64c7cde4e23039e28e28f981,down,-1,0.1786,0.35,2,0,0.424,,,,,,41,0,41,0,1,,,,,
,,522144,001,2023-07-31_16h06.05.902,arm3_q,2022.2.5,Win32,60.44122091,60399f04cc8c6352878f05c5,64c5699dae067f1f1081742c,64c7cde4e23039e28e28f981,right,-1,0.1786,0.35,2,0.011041176,0.969,,,,,,42,0,42,0,1,,,,,
,,522144,001,2023-07-31_16h06.05.902,arm3_q,2022.2.5,Win32,60.44122091,60399f04cc8c6352878f05c5,64c5699dae067f1f1081742c,64c7cde4e23039e28e28f981,up,-1,0.1786,0.35,2,0,0.4656,,,,,,43,0,43,0,1,,,,,
,,522144,001,2023-07-31_16h06.05.902,arm3_q,2022.2.5,Win32,60.44122091,60399f04cc8c6352878f05c5,64c5699dae067f1f1081742c,64c7cde4e23039e28e28f981,right,-1,0.1786,0.35,2,-0.01162316,0.8374,,,,,,44,0,44,0,1,,,,,
,,522144,001,2023-07-31_16h06.05.902,arm3_q,2022.2.5,Win32,60.44122091,60399f04cc8c6352878f05c5,64c5699dae067f1f1081742c,64c7cde4e23039e28e28f981,right,-1,0.1786,0.35,2,-0.014495782,0.768,,,,,,45,0,45,0,1,,,,,
,,522144,001,2023-07-31_16h06.05.902,arm3_q,2022.2.5,Win32,60.44122091,60399f04cc8c6352878f05c5,64c5699dae067f1f1081742c,64c7cde4e23039e28e28f981,up,-1,0.1786,0.35,2,0,0.8308,,,,,,46,0,46,0,1,,,,,
,,522144,001,2023-07-31_16h06.05.902,arm3_q,2022.2.5,Win32,60.44122091,60399f04cc8c6352878f05c5,64c5699dae067f1f1081742c,64c7cde4e23039e28e28f981,right,-1,0.1786,0.35,2,0.021361134,1.1967,,,,,,47,0,47,0,1,,,,,
,,522144,001,2023-07-31_16h06.05.902,arm3_q,2022.2.5,Win32,60.44122091,60399f04cc8c6352878f05c5,64c5699dae067f1f1081742c,64c7cde4e23039e28e28f981,right,-1,0.1786,0.35,2,0.003507884,0.8756,,,,,,48,0,48,0,1,,,,,
,,522144,001,2023-07-31_16h06.05.902,arm3_q,2022.2.5,Win32,60.44122091,60399f04cc8c6352878f05c5,64c5699dae067f1f1081742c,64c7cde4e23039e28e28f981,right,-1,0.1786,0.35,2,0.005166245,0.5649,,,,,,49,0,49,0,1,,,,,
,,522144,001,2023-07-31_16h06.05.902,arm3_q,2022.2.5,Win32,60.44122091,60399f04cc8c6352878f05c5,64c5699dae067f1f1081742c,64c7cde4e23039e28e28f981,right,-1,0.1786,0.35,2,0.000850299,0.4252,,,,,,50,0,50,0,1,,,,,
,,522144,001,2023-07-31_16h06.05.902,arm3_q,2022.2.5,Win32,60.44122091,60399f04cc8c6352878f05c5,64c5699dae067f1f1081742c,64c7cde4e23039e28e28f981,down,-1,0.1786,0.35,2,0,0.5644,,,,,,51,0,51,0,1,,,,,
,,522144,001,2023-07-31_16h06.05.902,arm3_q,2022.2.5,Win32,60.44122091,60399f04cc8c6352878f05c5,64c5699dae067f1f1081742c,64c7cde4e23039e28e28f981,right,-1,0.1786,0.35,2,0.001909412,0.7834,,,,,,52,0,52,0,1,,,,,
,,522144,001,2023-07-31_16h06.05.902,arm3_q,2022.2.5,Win32,60.44122091,60399f04cc8c6352878f05c5,64c5699dae067f1f1081742c,64c7cde4e23039e28e28f981,right,-1,0.1786,0.35,2,0.001879064,0.6203,,,,,,53,0,53,0,1,,,,,
,,522144,001,2023-07-31_16h06.05.902,arm3_q,2022.2.5,Win32,60.44122091,60399f04cc8c6352878f05c5,64c5699dae067f1f1081742c,64c7cde4e23039e28e28f981,up,-1,0.1786,0.35,2,0,0.8605,,,,,,54,0,54,0,1,,,,,
,,522144,001,2023-07-31_16h06.05.902,arm3_q,2022.2.5,Win32,60.44122091,60399f04cc8c6352878f05c5,64c5699dae067f1f1081742c,64c7cde4e23039e28e28f981,right,-1,0.1786,0.35,2,0.025968086,0.9458,,,,,,55,0,55,0,1,,,,,
,,522144,001,2023-07-31_16h06.05.902,arm3_q,2022.2.5,Win32,60.44122091,60399f04cc8c6352878f05c5,64c5699dae067f1f1081742c,64c7cde4e23039e28e28f981,right,-1,0.1786,0.35,2,0.017592782,0.4727,,,,,,56,0,56,0,1,,,,,
,,522144,001,2023-07-31_16h06.05.902,arm3_q,2022.2.5,Win32,60.44122091,60399f04cc8c6352878f05c5,64c5699dae067f1f1081742c,64c7cde4e23039e28e28f981,right,-1,0.1786,0.35,2,0.029543444,0.515,,,,,,57,0,57,0,1,,,,,
,,522144,001,2023-07-31_16h06.05.902,arm3_q,2022.2.5,Win32,60.44122091,60399f04cc8c6352878f05c5,64c5699dae067f1f1081742c,64c7cde4e23039e28e28f981,right,-1,0.1786,0.35,2,0.019820364,0.4717,,,,,,58,0,58,0,1,,,,,
,,522144,001,2023-07-31_16h06.05.902,arm3_q,2022.2.5,Win32,60.44122091,60399f04cc8c6352878f05c5,64c5699dae067f1f1081742c,64c7cde4e23039e28e28f981,right,-1,0.1786,0.35,2,0.018912546,0.3715,,,,,,59,0,59,0,1,,,,,
,,522144,001,2023-07-31_16h06.05.902,arm3_q,2022.2.5,Win32,60.44122091,60399f04cc8c6352878f05c5,64c5699dae067f1f1081742c,64c7cde4e23039e28e28f981,right,-1,0.1786,0.35,2,0.006508771,0.3371,,,,,,60,0,60,0,1,,,,,
,,522144,001,2023-07-31_16h06.05.902,arm3_q,2022.2.5,Win32,60.44122091,60399f04cc8c6352878f05c5,64c5699dae067f1f1081742c,64c7cde4e23039e28e28f981,up,-1,0.1786,0.35,1,0,0.494,,,,,,61,0,61,0,1,,,,,
,,522144,001,2023-07-31_16h06.05.902,arm3_q,2022.2.5,Win32,60.44122091,60399f04cc8c6352878f05c5,64c5699dae067f1f1081742c,64c7cde4e23039e28e28f981,right,-1,0.1786,0.35,1,-0.017880587,0.9308,,,,,,62,0,62,0,1,,,,,
,,522144,001,2023-07-31_16h06.05.902,arm3_q,2022.2.5,Win32,60.44122091,60399f04cc8c6352878f05c5,64c5699dae067f1f1081742c,64c7cde4e23039e28e28f981,up,-1,0.1786,0.35,1,0,0.682,,,,,,63,0,63,0,1,,,,,
,,522144,001,2023-07-31_16h06.05.902,arm3_q,2022.2.5,Win32,60.44122091,60399f04cc8c6352878f05c5,64c5699dae067f1f1081742c,64c7cde4e23039e28e28f981,right,-1,0.1786,0.35,1,0.010530289,0.9296,,,,,,64,0,64,0,1,,,,,
,,522144,001,2023-07-31_16h06.05.902,arm3_q,2022.2.5,Win32,60.44122091,60399f04cc8c6352878f05c5,64c5699dae067f1f1081742c,64c7cde4e23039e28e28f981,right,-1,0.1786,0.35,1,0.002816676,0.8407,,,,,,65,0,65,0,1,,,,,
,,522144,001,2023-07-31_16h06.05.902,arm3_q,2022.2.5,Win32,60.44122091,60399f04cc8c6352878f05c5,64c5699dae067f1f1081742c,64c7cde4e23039e28e28f981,right,-1,0.1786,0.35,1,0.010516371,1.5487,,,,,,66,0,66,0,1,,,,,
,,522144,001,2023-07-31_16h06.05.902,arm3_q,2022.2.5,Win32,60.44122091,60399f04cc8c6352878f05c5,64c5699dae067f1f1081742c,64c7cde4e23039e28e28f981,right,-1,0.1786,0.35,1,-0.001717694,0.6161,,,,,,67,0,67,0,1,,,,,
,,522144,001,2023-07-31_16h06.05.902,arm3_q,2022.2.5,Win32,60.44122091,60399f04cc8c6352878f05c5,64c5699dae067f1f1081742c,64c7cde4e23039e28e28f981,down,-1,0.1786,0.35,1,0,0.7077,,,,,,68,0,68,0,1,,,,,
,,522144,001,2023-07-31_16h06.05.902,arm3_q,2022.2.5,Win32,60.44122091,60399f04cc8c6352878f05c5,64c5699dae067f1f1081742c,64c7cde4e23039e28e28f981,right,-1,0.1786,0.35,1,-0.008227214,1.0208,,,,,,69,0,69,0,1,,,,,
,,522144,001,2023-07-31_16h06.05.902,arm3_q,2022.2.5,Win32,60.44122091,60399f04cc8c6352878f05c5,64c5699dae067f1f1081742c,64c7cde4e23039e28e28f981,down,-1,0.1786,0.35,1,0,0.6555,,,,,,70,0,70,0,1,,,,,
,,522144,001,2023-07-31_16h06.05.902,arm3_q,2022.2.5,Win32,60.44122091,60399f04cc8c6352878f05c5,64c5699dae067f1f1081742c,64c7cde4e23039e28e28f981,right,-1,0.1786,0.35,1,-0.031564424,0.8787,,,,,,71,0,71,0,1,,,,,
,,522144,001,2023-07-31_16h06.05.902,arm3_q,2022.2.5,Win32,60.44122091,60399f04cc8c6352878f05c5,64c5699dae067f1f1081742c,64c7cde4e23039e28e28f981,right,-1,0.1786,0.35,1,-0.021663889,0.9662,,,,,,72,0,72,0,1,,,,,
,,522144,001,2023-07-31_16h06.05.902,arm3_q,2022.2.5,Win32,60.44122091,60399f04cc8c6352878f05c5,64c5699dae067f1f1081742c,64c7cde4e23039e28e28f981,down,-1,0.1786,0.35,2,0,0.8054,,,,,,73,0,73,0,1,,,,,
,,522144,001,2023-07-31_16h06.05.902,arm3_q,2022.2.5,Win32,60.44122091,60399f04cc8c6352878f05c5,64c5699dae067f1f1081742c,64c7cde4e23039e28e28f981,right,-1,0.1786,0.35,2,-0.007492578,1.2448,,,,,,74,0,74,0,1,,,,,
,,522144,001,2023-07-31_16h06.05.902,arm3_q,2022.2.5,Win32,60.44122091,60399f04cc8c6352878f05c5,64c5699dae067f1f1081742c,64c7cde4e23039e28e28f981,right,-1,0.1786,0.35,2,-0.008443303,1.2473,,,,,,75,0,75,0,1,,,,,
,,522144,001,2023-07-31_16h06.05.902,arm3_q,2022.2.5,Win32,60.44122091,60399f04cc8c6352878f05c5,64c5699dae067f1f1081742c,64c7cde4e23039e28e28f981,right,-1,0.1786,0.35,2,-0.009558567,0.6821,,,,,,76,0,76,0,1,,,,,
,,522144,001,2023-07-31_16h06.05.902,arm3_q,2022.2.5,Win32,60.44122091,60399f04cc8c6352878f05c5,64c5699dae067f1f1081742c,64c7cde4e23039e28e28f981,down,-1,0.1786,0.35,2,0,0.7166,,,,,,77,0,77,0,1,,,,,
,,522144,001,2023-07-31_16h06.05.902,arm3_q,2022.2.5,Win32,60.44122091,60399f04cc8c6352878f05c5,64c5699dae067f1f1081742c,64c7cde4e23039e28e28f981,right,-1,0.1786,0.35,2,0.01084927,1.2137,,,,,,78,0,78,0,1,,,,,
,,522144,001,2023-07-31_16h06.05.902,arm3_q,2022.2.5,Win32,60.44122091,60399f04cc8c6352878f05c5,64c5699dae067f1f1081742c,64c7cde4e23039e28e28f981,right,-1,0.1786,0.35,2,0.004537982,0.4142,,,,,,79,0,79,0,1,,,,,
,,522144,001,2023-07-31_16h06.05.902,arm3_q,2022.2.5,Win32,60.44122091,60399f04cc8c6352878f05c5,64c5699dae067f1f1081742c,64c7cde4e23039e28e28f981,right,-1,0.1786,0.35,2,0.00285329,0.4074,,,,,,80,0,80,0,1,,,,,
,,522144,001,2023-07-31_16h06.05.902,arm3_q,2022.2.5,Win32,60.44122091,60399f04cc8c6352878f05c5,64c5699dae067f1f1081742c,64c7cde4e23039e28e28f981,right,-1,0.1786,0.35,2,-0.010864328,0.5559,,,,,,81,0,81,0,1,,,,,
,,522144,001,2023-07-31_16h06.05.902,arm3_q,2022.2.5,Win32,60.44122091,60399f04cc8c6352878f05c5,64c5699dae067f1f1081742c,64c7cde4e23039e28e28f981,down,1,0.1786,0.35,2,0,0.8323,,,,,,82,0,82,0,1,,,,,
,,522144,001,2023-07-31_16h06.05.902,arm3_q,2022.2.5,Win32,60.44122091,60399f04cc8c6352878f05c5,64c5699dae067f1f1081742c,64c7cde4e23039e28e28f981,right,1,0.1786,0.35,2,-0.025479155,0.8369,,,,,,83,0,83,0,1,,,,,
,,522144,001,2023-07-31_16h06.05.902,arm3_q,2022.2.5,Win32,60.44122091,60399f04cc8c6352878f05c5,64c5699dae067f1f1081742c,64c7cde4e23039e28e28f981,right,1,0.1786,0.35,2,-0.027586554,0.6575,,,,,,84,0,84,0,1,,,,,
,,522144,001,2023-07-31_16h06.05.902,arm3_q,2022.2.5,Win32,60.44122091,60399f04cc8c6352878f05c5,64c5699dae067f1f1081742c,64c7cde4e23039e28e28f981,up,1,0.1786,0.35,3,0,0.7216,,,,,,85,0,85,0,1,,,,,
,,522144,001,2023-07-31_16h06.05.902,arm3_q,2022.2.5,Win32,60.44122091,60399f04cc8c6352878f05c5,64c5699dae067f1f1081742c,64c7cde4e23039e28e28f981,right,1,0.1786,0.35,3,-0.007064001,1.0793,,,,,,86,0,86,0,1,,,,,
,,522144,001,2023-07-31_16h06.05.902,arm3_q,2022.2.5,Win32,60.44122091,60399f04cc8c6352878f05c5,64c5699dae067f1f1081742c,64c7cde4e23039e28e28f981,right,1,0.1786,0.35,3,-0.025427757,0.6828,,,,,,87,0,87,0,1,,,,,
,,522144,001,2023-07-31_16h06.05.902,arm3_q,2022.2.5,Win32,60.44122091,60399f04cc8c6352878f05c5,64c5699dae067f1f1081742c,64c7cde4e23039e28e28f981,right,1,0.1786,0.35,3,-0.007494412,0.5377,,,,,,88,0,88,0,1,,,,,
,,522144,001,2023-07-31_16h06.05.902,arm3_q,2022.2.5,Win32,60.44122091,60399f04cc8c6352878f05c5,64c5699dae067f1f1081742c,64c7cde4e23039e28e28f981,right,1,0.1786,0.35,3,-0.004079748,0.4338,,,,,,89,0,89,0,1,,,,,
,,522144,001,2023-07-31_16h06.05.902,arm3_q,2022.2.5,Win32,60.44122091,60399f04cc8c6352878f05c5,64c5699dae067f1f1081742c,64c7cde4e23039e28e28f981,down,-1,0.1786,0.35,3,0,0.749,,,,,,90,0,90,0,1,,,,,
,,522144,001,2023-07-31_16h06.05.902,arm3_q,2022.2.5,Win32,60.44122091,60399f04cc8c6352878f05c5,64c5699dae067f1f1081742c,64c7cde4e23039e28e28f981,right,-1,0.1786,0.35,3,0.016855695,0.8651,,,,,,91,0,91,0,1,,,,,
,,522144,001,2023-07-31_16h06.05.902,arm3_q,2022.2.5,Win32,60.44122091,60399f04cc8c6352878f05c5,64c5699dae067f1f1081742c,64c7cde4e23039e28e28f981,right,-1,0.1786,0.35,3,-0.007708057,0.5884,,,,,,92,0,92,0,1,,,,,
,,522144,001,2023-07-31_16h06.05.902,arm3_q,2022.2.5,Win32,60.44122091,60399f04cc8c6352878f05c5,64c5699dae067f1f1081742c,64c7cde4e23039e28e28f981,right,-1,0.1786,0.35,3,-0.004944516,0.4323,,,,,,93,0,93,0,1,,,,,
,,522144,001,2023-07-31_16h06.05.902,arm3_q,2022.2.5,Win32,60.44122091,60399f04cc8c6352878f05c5,64c5699dae067f1f1081742c,64c7cde4e23039e28e28f981,right,-1,0.1786,0.35,3,-0.023371455,0.6027,,,,,,94,0,94,0,1,,,,,
,,522144,001,2023-07-31_16h06.05.902,arm3_q,2022.2.5,Win32,60.44122091,60399f04cc8c6352878f05c5,64c5699dae067f1f1081742c,64c7cde4e23039e28e28f981,right,-1,0.1786,0.35,3,-0.019967734,0.4772,,,,,,95,0,95,0,1,,,,,
,,522144,001,2023-07-31_16h06.05.902,arm3_q,2022.2.5,Win32,60.44122091,60399f04cc8c6352878f05c5,64c5699dae067f1f1081742c,64c7cde4e23039e28e28f981,right,-1,0.1786,0.35,3,-0.008858952,0.3938,,,,,,96,0,96,0,1,,,,,
,,522144,001,2023-07-31_16h06.05.902,arm3_q,2022.2.5,Win32,60.44122091,60399f04cc8c6352878f05c5,64c5699dae067f1f1081742c,64c7cde4e23039e28e28f981,up,1,0.1786,0.35,2,0,0.4532,,,,,,97,0,97,0,1,,,,,
,,522144,001,2023-07-31_16h06.05.902,arm3_q,2022.2.5,Win32,60.44122091,60399f04cc8c6352878f05c5,64c5699dae067f1f1081742c,64c7cde4e23039e28e28f981,right,1,0.1786,0.35,2,0.003976473,0.9798,,,,,,98,0,98,0,1,,,,,
,,522144,001,2023-07-31_16h06.05.902,arm3_q,2022.2.5,Win32,60.44122091,60399f04cc8c6352878f05c5,64c5699dae067f1f1081742c,64c7cde4e23039e28e28f981,up,-1,0.1786,0.35,2,0,0.5678,,,,,,99,0,99,0,1,,,,,
,,522144,001,2023-07-31_16h06.05.902,arm3_q,2022.2.5,Win32,60.44122091,60399f04cc8c6352878f05c5,64c5699dae067f1f1081742c,64c7cde4e23039e28e28f981,right,-1,0.1786,0.35,2,0.003845954,0.8542,,,,,,100,0,100,0,1,,,,,
,,522144,001,2023-07-31_16h06.05.902,arm3_q,2022.2.5,Win32,60.44122091,60399f04cc8c6352878f05c5,64c5699dae067f1f1081742c,64c7cde4e23039e28e28f981,right,-1,0.1786,0.35,2,-0.010582004,0.5323,,,,,,101,0,101,0,1,,,,,
,,522144,001,2023-07-31_16h06.05.902,arm3_q,2022.2.5,Win32,60.44122091,60399f04cc8c6352878f05c5,64c5699dae067f1f1081742c,64c7cde4e23039e28e28f981,right,-1,0.1786,0.35,2,-0.028744525,0.569,,,,,,102,0,102,0,1,,,,,
,,522144,001,2023-07-31_16h06.05.902,arm3_q,2022.2.5,Win32,60.44122091,60399f04cc8c6352878f05c5,64c5699dae067f1f1081742c,64c7cde4e23039e28e28f981,right,-1,0.1786,0.35,2,-0.017878452,0.5265,,,,,,103,0,103,0,1,,,,,
,,522144,001,2023-07-31_16h06.05.902,arm3_q,2022.2.5,Win32,60.44122091,60399f04cc8c6352878f05c5,64c5699dae067f1f1081742c,64c7cde4e23039e28e28f981,down,1,0.1786,0.35,2,0,0.8047,,,,,,104,0,104,0,1,,,,,
,,522144,001,2023-07-31_16h06.05.902,arm3_q,2022.2.5,Win32,60.44122091,60399f04cc8c6352878f05c5,64c5699dae067f1f1081742c,64c7cde4e23039e28e28f981,right,1,0.1786,0.35,2,0.000270351,1.1909,,,,,,105,0,105,0,1,,,,,
,,522144,001,2023-07-31_16h06.05.902,arm3_q,2022.2.5,Win32,60.44122091,60399f04cc8c6352878f05c5,64c5699dae067f1f1081742c,64c7cde4e23039e28e28f981,up,1,0.1786,0.35,2,0,0.5679,,,,,,106,0,106,0,1,,,,,
,,522144,001,2023-07-31_16h06.05.902,arm3_q,2022.2.5,Win32,60.44122091,60399f04cc8c6352878f05c5,64c5699dae067f1f1081742c,64c7cde4e23039e28e28f981,right,1,0.1786,0.35,2,0.010387757,1.0122,,,,,,107,0,107,0,1,,,,,
,,522144,001,2023-07-31_16h06.05.902,arm3_q,2022.2.5,Win32,60.44122091,60399f04cc8c6352878f05c5,64c5699dae067f1f1081742c,64c7cde4e23039e28e28f981,right,1,0.1786,0.35,2,0.006869414,0.5397,,,,,,108,0,108,0,1,,,,,
,,522144,001,2023-07-31_16h06.05.902,arm3_q,2022.2.5,Win32,60.44122091,60399f04cc8c6352878f05c5,64c5699dae067f1f1081742c,64c7cde4e23039e28e28f981,down,1,0.1786,0.35,2,0,0.5771,,,,,,109,0,109,0,1,,,,,
,,522144,001,2023-07-31_16h06.05.902,arm3_q,2022.2.5,Win32,60.44122091,60399f04cc8c6352878f05c5,64c5699dae067f1f1081742c,64c7cde4e23039e28e28f981,right,1,0.1786,0.35,2,0.007930975,0.9612,,,,,,110,0,110,0,1,,,,,
,,522144,001,2023-07-31_16h06.05.902,arm3_q,2022.2.5,Win32,60.44122091,60399f04cc8c6352878f05c5,64c5699dae067f1f1081742c,64c7cde4e23039e28e28f981,right,1,0.1786,0.35,2,0.003932563,0.3927,,,,,,111,0,111,0,1,,,,,
,,522144,001,2023-07-31_16h06.05.902,arm3_q,2022.2.5,Win32,60.44122091,60399f04cc8c6352878f05c5,64c5699dae067f1f1081742c,64c7cde4e23039e28e28f981,down,1,0.1786,0.35,2,0,0.7235,,,,,,112,0,112,0,1,,,,,
,,522144,001,2023-07-31_16h06.05.902,arm3_q,2022.2.5,Win32,60.44122091,60399f04cc8c6352878f05c5,64c5699dae067f1f1081742c,64c7cde4e23039e28e28f981,right,1,0.1786,0.35,2,0.018384151,0.7786,,,,,,113,0,113,0,1,,,,,
,,522144,001,2023-07-31_16h06.05.902,arm3_q,2022.2.5,Win32,60.44122091,60399f04cc8c6352878f05c5,64c5699dae067f1f1081742c,64c7cde4e23039e28e28f981,right,1,0.1786,0.35,2,0.012340404,0.677,,,,,,114,0,114,0,1,,,,,
,,522144,001,2023-07-31_16h06.05.902,arm3_q,2022.2.5,Win32,60.44122091,60399f04cc8c6352878f05c5,64c5699dae067f1f1081742c,64c7cde4e23039e28e28f981,up,-1,0.1786,0.35,2,0,0.5008,,,,,,115,0,115,0,1,,,,,
,,522144,001,2023-07-31_16h06.05.902,arm3_q,2022.2.5,Win32,60.44122091,60399f04cc8c6352878f05c5,64c5699dae067f1f1081742c,64c7cde4e23039e28e28f981,right,-1,0.1786,0.35,2,-0.032970741,0.9955,,,,,,116,0,116,0,1,,,,,
,,522144,001,2023-07-31_16h06.05.902,arm3_q,2022.2.5,Win32,60.44122091,60399f04cc8c6352878f05c5,64c5699dae067f1f1081742c,64c7cde4e23039e28e28f981,right,-1,0.1786,0.35,2,-0.030540625,0.7652,,,,,,117,0,117,0,1,,,,,
,,522144,001,2023-07-31_16h06.05.902,arm3_q,2022.2.5,Win32,60.44122091,60399f04cc8c6352878f05c5,64c5699dae067f1f1081742c,64c7cde4e23039e28e28f981,down,1,0.1786,0.35,2,0,0.4722,,,,,,118,0,118,0,1,,,,,
,,522144,001,2023-07-31_16h06.05.902,arm3_q,2022.2.5,Win32,60.44122091,60399f04cc8c6352878f05c5,64c5699dae067f1f1081742c,64c7cde4e23039e28e28f981,right,1,0.1786,0.35,2,0.006751316,0.9373,,,,,,119,0,119,0,1,,,,,
,,522144,001,2023-07-31_16h06.05.902,arm3_q,2022.2.5,Win32,60.44122091,60399f04cc8c6352878f05c5,64c5699dae067f1f1081742c,64c7cde4e23039e28e28f981,right,1,0.1786,0.35,2,0.014633447,0.5141,,,,,,120,0,120,0,1,,,,,
,,522144,001,2023-07-31_16h06.05.902,arm3_q,2022.2.5,Win32,60.44122091,60399f04cc8c6352878f05c5,64c5699dae067f1f1081742c,64c7cde4e23039e28e28f981,right,1,0.1786,0.35,2,0.015514907,0.4588,,,,,,121,0,121,0,1,,,,,
,,522144,001,2023-07-31_16h06.05.902,arm3_q,2022.2.5,Win32,60.44122091,60399f04cc8c6352878f05c5,64c5699dae067f1f1081742c,64c7cde4e23039e28e28f981,up,1,0.1786,0.35,2,0,0.6599,,,,,,122,0,122,0,1,,,,,
,,522144,001,2023-07-31_16h06.05.902,arm3_q,2022.2.5,Win32,60.44122091,60399f04cc8c6352878f05c5,64c5699dae067f1f1081742c,64c7cde4e23039e28e28f981,right,1,0.1786,0.35,2,-0.028641012,0.798,,,,,,123,0,123,0,1,,,,,
,,522144,001,2023-07-31_16h06.05.902,arm3_q,2022.2.5,Win32,60.44122091,60399f04cc8c6352878f05c5,64c5699dae067f1f1081742c,64c7cde4e23039e28e28f981,right,1,0.1786,0.35,2,-0.024988562,0.5896,,,,,,124,0,124,0,1,,,,,
,,522144,001,2023-07-31_16h06.05.902,arm3_q,2022.2.5,Win32,60.44122091,60399f04cc8c6352878f05c5,64c5699dae067f1f1081742c,64c7cde4e23039e28e28f981,down,-1,0.1786,0.35,1,0,0.831,,,,,,125,0,125,0,1,,,,,
,,522144,001,2023-07-31_16h06.05.902,arm3_q,2022.2.5,Win32,60.44122091,60399f04cc8c6352878f05c5,64c5699dae067f1f1081742c,64c7cde4e23039e28e28f981,right,-1,0.1786,0.35,1,0.004622043,0.8513,,,,,,126,0,126,0,1,,,,,
,,522144,001,2023-07-31_16h06.05.902,arm3_q,2022.2.5,Win32,60.44122091,60399f04cc8c6352878f05c5,64c5699dae067f1f1081742c,64c7cde4e23039e28e28f981,right,-1,0.1786,0.35,1,-0.007504016,0.4167,,,,,,127,0,127,0,1,,,,,
,,522144,001,2023-07-31_16h06.05.902,arm3_q,2022.2.5,Win32,60.44122091,60399f04cc8c6352878f05c5,64c5699dae067f1f1081742c,64c7cde4e23039e28e28f981,right,-1,0.1786,0.35,1,-0.008095749,0.6163,,,,,,128,0,128,0,1,,,,,
,,522144,001,2023-07-31_16h06.05.902,arm3_q,2022.2.5,Win32,60.44122091,60399f04cc8c6352878f05c5,64c5699dae067f1f1081742c,64c7cde4e23039e28e28f981,down,-1,0.1786,0.35,1,0,0.5908,,,,,,129,0,129,0,1,,,,,
,,522144,001,2023-07-31_16h06.05.902,arm3_q,2022.2.5,Win32,60.44122091,60399f04cc8c6352878f05c5,64c5699dae067f1f1081742c,64c7cde4e23039e28e28f981,right,-1,0.1786,0.35,1,0.021479127,0.6719,,,,,,130,0,130,0,1,,,,,
,,522144,001,2023-07-31_16h06.05.902,arm3_q,2022.2.5,Win32,60.44122091,60399f04cc8c6352878f05c5,64c5699dae067f1f1081742c,64c7cde4e23039e28e28f981,right,-1,0.1786,0.35,1,0.015706131,0.4602,,,,,,131,0,131,0,1,,,,,
,,522144,001,2023-07-31_16h06.05.902,arm3_q,2022.2.5,Win32,60.44122091,60399f04cc8c6352878f05c5,64c5699dae067f1f1081742c,64c7cde4e23039e28e28f981,up,1,0.1786,0.35,1,0,0.5514,,,,,,132,0,132,0,1,,,,,
,,522144,001,2023-07-31_16h06.05.902,arm3_q,2022.2.5,Win32,60.44122091,60399f04cc8c6352878f05c5,64c5699dae067f1f1081742c,64c7cde4e23039e28e28f981,right,1,0.1786,0.35,1,0.017217208,1.1393,,,,,,133,0,133,0,1,,,,,
,,522144,001,2023-07-31_16h06.05.902,arm3_q,2022.2.5,Win32,60.44122091,60399f04cc8c6352878f05c5,64c5699dae067f1f1081742c,64c7cde4e23039e28e28f981,right,1,0.1786,0.35,1,0.024656682,0.4066,,,,,,134,0,134,0,1,,,,,
,,522144,001,2023-07-31_16h06.05.902,arm3_q,2022.2.5,Win32,60.44122091,60399f04cc8c6352878f05c5,64c5699dae067f1f1081742c,64c7cde4e23039e28e28f981,up,1,0.1786,0.35,1,0,0.4492,,,,,,135,0,135,0,1,,,,,
,,522144,001,2023-07-31_16h06.05.902,arm3_q,2022.2.5,Win32,60.44122091,60399f04cc8c6352878f05c5,64c5699dae067f1f1081742c,64c7cde4e23039e28e28f981,right,1,0.1786,0.35,1,0.026810782,0.5671,,,,,,136,0,136,0,1,,,,,
,,522144,001,2023-07-31_16h06.05.902,arm3_q,2022.2.5,Win32,60.44122091,60399f04cc8c6352878f05c5,64c5699dae067f1f1081742c,64c7cde4e23039e28e28f981,right,1,0.1786,0.35,1,0.024871839,0.3867,,,,,,137,0,137,0,1,,,,,
,,522144,001,2023-07-31_16h06.05.902,arm3_q,2022.2.5,Win32,60.44122091,60399f04cc8c6352878f05c5,64c5699dae067f1f1081742c,64c7cde4e23039e28e28f981,up,1,0.1786,0.35,1,0,0.5413,,,,,,138,0,138,0,1,,,,,
,,522144,001,2023-07-31_16h06.05.902,arm3_q,2022.2.5,Win32,60.44122091,60399f04cc8c6352878f05c5,64c5699dae067f1f1081742c,64c7cde4e23039e28e28f981,right,1,0.1786,0.35,1,0.026527822,0.7032,,,,,,139,0,139,0,1,,,,,
,,522144,001,2023-07-31_16h06.05.902,arm3_q,2022.2.5,Win32,60.44122091,60399f04cc8c6352878f05c5,64c5699dae067f1f1081742c,64c7cde4e23039e28e28f981,up,-1,0.1786,0.35,2,0,0.4993,,,,,,140,0,140,0,1,,,,,
,,522144,001,2023-07-31_16h06.05.902,arm3_q,2022.2.5,Win32,60.44122091,60399f04cc8c6352878f05c5,64c5699dae067f1f1081742c,64c7cde4e23039e28e28f981,right,-1,0.1786,0.35,2,0.000498347,1.0615,,,,,,141,0,141,0,1,,,,,
,,522144,001,2023-07-31_16h06.05.902,arm3_q,2022.2.5,Win32,60.44122091,60399f04cc8c6352878f05c5,64c5699dae067f1f1081742c,64c7cde4e23039e28e28f981,right,-1,0.1786,0.35,2,-0.016098361,0.4562,,,,,,142,0,142,0,1,,,,,
,,522144,001,2023-07-31_16h06.05.902,arm3_q,2022.2.5,Win32,60.44122091,60399f04cc8c6352878f05c5,64c5699dae067f1f1081742c,64c7cde4e23039e28e28f981,down,-1,0.1786,0.35,2,0,0.5479,,,,,,143,0,143,0,1,,,,,
,,522144,001,2023-07-31_16h06.05.902,arm3_q,2022.2.5,Win32,60.44122091,60399f04cc8c6352878f05c5,64c5699dae067f1f1081742c,64c7cde4e23039e28e28f981,right,-1,0.1786,0.35,2,-0.019949116,0.5455,,,,,,144,0,144,0,1,,,,,
,,522144,001,2023-07-31_16h06.05.902,arm3_q,2022.2.5,Win32,60.44122091,60399f04cc8c6352878f05c5,64c5699dae067f1f1081742c,64c7cde4e23039e28e28f981,right,-1,0.1786,0.35,2,-0.04082037,0.5244,,,,,,145,0,145,0,1,,,,,
,,522144,001,2023-07-31_16h06.05.902,arm3_q,2022.2.5,Win32,60.44122091,60399f04cc8c6352878f05c5,64c5699dae067f1f1081742c,64c7cde4e23039e28e28f981,down,-1,0.1786,0.35,3,0,0.339,,,,,,146,0,146,0,1,,,,,
,,522144,001,2023-07-31_16h06.05.902,arm3_q,2022.2.5,Win32,60.44122091,60399f04cc8c6352878f05c5,64c5699dae067f1f1081742c,64c7cde4e23039e28e28f981,right,-1,0.1786,0.35,3,0.001145407,0.956,,,,,,147,0,147,0,1,,,,,
,,522144,001,2023-07-31_16h06.05.902,arm3_q,2022.2.5,Win32,60.44122091,60399f04cc8c6352878f05c5,64c5699dae067f1f1081742c,64c7cde4e23039e28e28f981,right,-1,0.1786,0.35,3,-0.030809729,0.4202,,,,,,148,0,148,0,1,,,,,
,,522144,001,2023-07-31_16h06.05.902,arm3_q,2022.2.5,Win32,60.44122091,60399f04cc8c6352878f05c5,64c5699dae067f1f1081742c,64c7cde4e23039e28e28f981,right,-1,0.1786,0.35,3,-0.032195282,0.5282,,,,,,149,0,149,0,1,,,,,
,,522144,001,2023-07-31_16h06.05.902,arm3_q,2022.2.5,Win32,60.44122091,60399f04cc8c6352878f05c5,64c5699dae067f1f1081742c,64c7cde4e23039e28e28f981,down,-1,0.1786,0.35,3,0,0.2603,,,,,,150,0,150,0,1,,,,,
,,522144,001,2023-07-31_16h06.05.902,arm3_q,2022.2.5,Win32,60.44122091,60399f04cc8c6352878f05c5,64c5699dae067f1f1081742c,64c7cde4e23039e28e28f981,right,-1,0.1786,0.35,3,-0.015160785,0.7983,,,,,,151,0,151,0,1,,,,,
,,522144,001,2023-07-31_16h06.05.902,arm3_q,2022.2.5,Win32,60.44122091,60399f04cc8c6352878f05c5,64c5699dae067f1f1081742c,64c7cde4e23039e28e28f981,down,-1,0.1786,0.35,3,0,0.5753,,,,,,152,0,152,0,1,,,,,
,,522144,001,2023-07-31_16h06.05.902,arm3_q,2022.2.5,Win32,60.44122091,60399f04cc8c6352878f05c5,64c5699dae067f1f1081742c,64c7cde4e23039e28e28f981,right,-1,0.1786,0.35,3,0.000657332,0.8115,,,,,,153,0,153,0,1,,,,,
,,522144,001,2023-07-31_16h06.05.902,arm3_q,2022.2.5,Win32,60.44122091,60399f04cc8c6352878f05c5,64c5699dae067f1f1081742c,64c7cde4e23039e28e28f981,down,1,0.1786,0.35,3,0,0.507,,,,,,154,0,154,0,1,,,,,
,,522144,001,2023-07-31_16h06.05.902,arm3_q,2022.2.5,Win32,60.44122091,60399f04cc8c6352878f05c5,64c5699dae067f1f1081742c,64c7cde4e23039e28e28f981,right,1,0.1786,0.35,3,0.017245188,0.8285,,,,,,155,0,155,0,1,,,,,
,,522144,001,2023-07-31_16h06.05.902,arm3_q,2022.2.5,Win32,60.44122091,60399f04cc8c6352878f05c5,64c5699dae067f1f1081742c,64c7cde4e23039e28e28f981,right,1,0.1786,0.35,3,0.004540918,0.5374,,,,,,156,0,156,0,1,,,,,
,,522144,001,2023-07-31_16h06.05.902,arm3_q,2022.2.5,Win32,60.44122091,60399f04cc8c6352878f05c5,64c5699dae067f1f1081742c,64c7cde4e23039e28e28f981,up,-1,0.1786,0.35,3,0,0.6338,,,,,,157,0,157,0,1,,,,,
,,522144,001,2023-07-31_16h06.05.902,arm3_q,2022.2.5,Win32,60.44122091,60399f04cc8c6352878f05c5,64c5699dae067f1f1081742c,64c7cde4e23039e28e28f981,right,-1,0.1786,0.35,3,-0.023556345,0.7605,,,,,,158,0,158,0,1,,,,,
,,522144,001,2023-07-31_16h06.05.902,arm3_q,2022.2.5,Win32,60.44122091,60399f04cc8c6352878f05c5,64c5699dae067f1f1081742c,64c7cde4e23039e28e28f981,down,-1,0.1786,0.35,3,0,0.46,,,,,,159,0,159,0,1,,,,,
,,522144,001,2023-07-31_16h06.05.902,arm3_q,2022.2.5,Win32,60.44122091,60399f04cc8c6352878f05c5,64c5699dae067f1f1081742c,64c7cde4e23039e28e28f981,right,-1,0.1786,0.35,3,0.000484597,0.7705,,,,,,160,0,160,0,1,,,,,
,,522144,001,2023-07-31_16h06.05.902,arm3_q,2022.2.5,Win32,60.44122091,60399f04cc8c6352878f05c5,64c5699dae067f1f1081742c,64c7cde4e23039e28e28f981,down,-1,0.1786,0.35,3,0,0.4815,,,,,,161,0,161,0,1,,,,,
,,522144,001,2023-07-31_16h06.05.902,arm3_q,2022.2.5,Win32,60.44122091,60399f04cc8c6352878f05c5,64c5699dae067f1f1081742c,64c7cde4e23039e28e28f981,right,-1,0.1786,0.35,3,0.017694831,0.6629,,,,,,162,0,162,0,1,,,,,
,,522144,001,2023-07-31_16h06.05.902,arm3_q,2022.2.5,Win32,60.44122091,60399f04cc8c6352878f05c5,64c5699dae067f1f1081742c,64c7cde4e23039e28e28f981,right,-1,0.1786,0.35,3,0.019109611,0.5712,,,,,,163,0,163,0,1,,,,,
,,522144,001,2023-07-31_16h06.05.902,arm3_q,2022.2.5,Win32,60.44122091,60399f04cc8c6352878f05c5,64c5699dae067f1f1081742c,64c7cde4e23039e28e28f981,right,-1,0.1786,0.35,3,-0.003404046,0.7654,,,,,,164,0,164,0,1,,,,,
,,522144,001,2023-07-31_16h06.05.902,arm3_q,2022.2.5,Win32,60.44122091,60399f04cc8c6352878f05c5,64c5699dae067f1f1081742c,64c7cde4e23039e28e28f981,right,-1,0.1786,0.35,3,-0.009866512,0.3802,,,,,,165,0,165,0,1,,,,,
,,522144,001,2023-07-31_16h06.05.902,arm3_q,2022.2.5,Win32,60.44122091,60399f04cc8c6352878f05c5,64c5699dae067f1f1081742c,64c7cde4e23039e28e28f981,right,-1,0.1786,0.35,3,-0.025625798,0.3277,,,,,,166,0,166,0,1,,,,,
,,522144,001,2023-07-31_16h06.05.902,arm3_q,2022.2.5,Win32,60.44122091,60399f04cc8c6352878f05c5,64c5699dae067f1f1081742c,64c7cde4e23039e28e28f981,down,-1,0.1786,0.35,3,0,1.1831,,,,,,167,0,167,0,1,,,,,
,,522144,001,2023-07-31_16h06.05.902,arm3_q,2022.2.5,Win32,60.44122091,60399f04cc8c6352878f05c5,64c5699dae067f1f1081742c,64c7cde4e23039e28e28f981,right,-1,0.1786,0.35,3,-0.032672918,0.8337,,,,,,168,0,168,0,1,,,,,
,,522144,001,2023-07-31_16h06.05.902,arm3_q,2022.2.5,Win32,60.44122091,60399f04cc8c6352878f05c5,64c5699dae067f1f1081742c,64c7cde4e23039e28e28f981,down,1,0.1786,0.35,3,0,0.3988,,,,,,169,0,169,0,1,,,,,
,,522144,001,2023-07-31_16h06.05.902,arm3_q,2022.2.5,Win32,60.44122091,60399f04cc8c6352878f05c5,64c5699dae067f1f1081742c,64c7cde4e23039e28e28f981,right,1,0.1786,0.35,3,0.017853038,0.7905,,,,,,170,0,170,0,1,,,,,
,,522144,001,2023-07-31_16h06.05.902,arm3_q,2022.2.5,Win32,60.44122091,60399f04cc8c6352878f05c5,64c5699dae067f1f1081742c,64c7cde4e23039e28e28f981,up,1,0.1786,0.35,3,0,0.4555,,,,,,171,0,171,0,1,,,,,
,,522144,001,2023-07-31_16h06.05.902,arm3_q,2022.2.5,Win32,60.44122091,60399f04cc8c6352878f05c5,64c5699dae067f1f1081742c,64c7cde4e23039e28e28f981,right,1,0.1786,0.35,3,0.038443747,0.7779,,,,,,172,0,172,0,1,,,,,
,,522144,001,2023-07-31_16h06.05.902,arm3_q,2022.2.5,Win32,60.44122091,60399f04cc8c6352878f05c5,64c5699dae067f1f1081742c,64c7cde4e23039e28e28f981,up,1,0.1786,0.35,3,0,0.5216,,,,,,173,0,173,0,1,,,,,
,,522144,001,2023-07-31_16h06.05.902,arm3_q,2022.2.5,Win32,60.44122091,60399f04cc8c6352878f05c5,64c5699dae067f1f1081742c,64c7cde4e23039e28e28f981,right,1,0.1786,0.35,3,0.021508198,0.7465,,,,,,174,0,174,0,1,,,,,
,,522144,001,2023-07-31_16h06.05.902,arm3_q,2022.2.5,Win32,60.44122091,60399f04cc8c6352878f05c5,64c5699dae067f1f1081742c,64c7cde4e23039e28e28f981,up,-1,0.1786,0.35,4,0,0.4146,,,,,,175,0,175,0,1,,,,,
,,522144,001,2023-07-31_16h06.05.902,arm3_q,2022.2.5,Win32,60.44122091,60399f04cc8c6352878f05c5,64c5699dae067f1f1081742c,64c7cde4e23039e28e28f981,right,-1,0.1786,0.35,4,-0.00776399,0.8021,,,,,,176,0,176,0,1,,,,,
,,522144,001,2023-07-31_16h06.05.902,arm3_q,2022.2.5,Win32,60.44122091,60399f04cc8c6352878f05c5,64c5699dae067f1f1081742c,64c7cde4e23039e28e28f981,up,-1,0.1786,0.35,3,0,0.9412,,,,,,177,0,177,0,1,,,,,
,,522144,001,2023-07-31_16h06.05.902,arm3_q,2022.2.5,Win32,60.44122091,60399f04cc8c6352878f05c5,64c5699dae067f1f1081742c,64c7cde4e23039e28e28f981,right,-1,0.1786,0.35,3,-0.014068493,0.9251,,,,,,178,0,178,0,1,,,,,
,,522144,001,2023-07-31_16h06.05.902,arm3_q,2022.2.5,Win32,60.44122091,60399f04cc8c6352878f05c5,64c5699dae067f1f1081742c,64c7cde4e23039e28e28f981,right,-1,0.1786,0.35,3,-0.020257621,0.4227,,,,,,179,0,179,0,1,,,,,
,,522144,001,2023-07-31_16h06.05.902,arm3_q,2022.2.5,Win32,60.44122091,60399f04cc8c6352878f05c5,64c5699dae067f1f1081742c,64c7cde4e23039e28e28f981,right,-1,0.1786,0.35,3,-0.021447266,1.0075,,,,,,180,0,180,0,1,,,,,
,,522144,001,2023-07-31_16h06.05.902,arm3_q,2022.2.5,Win32,60.44122091,60399f04cc8c6352878f05c5,64c5699dae067f1f1081742c,64c7cde4e23039e28e28f981,down,-1,0.1786,0.35,3,0,0.5154,,,,,,181,0,181,0,1,,,,,
,,522144,001,2023-07-31_16h06.05.902,arm3_q,2022.2.5,Win32,60.44122091,60399f04cc8c6352878f05c5,64c5699dae067f1f1081742c,64c7cde4e23039e28e28f981,right,-1,0.1786,0.35,3,0.004656809,0.6454,,,,,,182,0,182,0,1,,,,,
,,522144,001,2023-07-31_16h06.05.902,arm3_q,2022.2.5,Win32,60.44122091,60399f04cc8c6352878f05c5,64c5699dae067f1f1081742c,64c7cde4e23039e28e28f981,right,-1,0.1786,0.35,3,0.012179186,0.5844,,,,,,183,0,183,0,1,,,,,
,,522144,001,2023-07-31_16h06.05.902,arm3_q,2022.2.5,Win32,60.44122091,60399f04cc8c6352878f05c5,64c5699dae067f1f1081742c,64c7cde4e23039e28e28f981,down,1,0.1786,0.35,3,0,0.5641,,,,,,184,0,184,0,1,,,,,
,,522144,001,2023-07-31_16h06.05.902,arm3_q,2022.2.5,Win32,60.44122091,60399f04cc8c6352878f05c5,64c5699dae067f1f1081742c,64c7cde4e23039e28e28f981,right,1,0.1786,0.35,3,0.01339909,0.6295,,,,,,185,0,185,0,1,,,,,
,,522144,001,2023-07-31_16h06.05.902,arm3_q,2022.2.5,Win32,60.44122091,60399f04cc8c6352878f05c5,64c5699dae067f1f1081742c,64c7cde4e23039e28e28f981,right,1,0.1786,0.35,3,0.019202038,0.6983,,,,,,186,0,186,0,1,,,,,
,,522144,001,2023-07-31_16h06.05.902,arm3_q,2022.2.5,Win32,60.44122091,60399f04cc8c6352878f05c5,64c5699dae067f1f1081742c,64c7cde4e23039e28e28f981,right,1,0.1786,0.35,3,0.019290472,0.3931,,,,,,187,0,187,0,1,,,,,
,,522144,001,2023-07-31_16h06.05.902,arm3_q,2022.2.5,Win32,60.44122091,60399f04cc8c6352878f05c5,64c5699dae067f1f1081742c,64c7cde4e23039e28e28f981,right,1,0.1786,0.35,3,0.020007539,0.3922,,,,,,188,0,188,0,1,,,,,
,,522144,001,2023-07-31_16h06.05.902,arm3_q,2022.2.5,Win32,60.44122091,60399f04cc8c6352878f05c5,64c5699dae067f1f1081742c,64c7cde4e23039e28e28f981,up,-1,0.1786,0.35,4,0,0.5313,,,,,,189,0,189,0,1,,,,,
,,522144,001,2023-07-31_16h06.05.902,arm3_q,2022.2.5,Win32,60.44122091,60399f04cc8c6352878f05c5,64c5699dae067f1f1081742c,64c7cde4e23039e28e28f981,right,-1,0.1786,0.35,4,0.029174363,1.0897,,,,,,190,0,190,0,1,,,,,
,,522144,001,2023-07-31_16h06.05.902,arm3_q,2022.2.5,Win32,60.44122091,60399f04cc8c6352878f05c5,64c5699dae067f1f1081742c,64c7cde4e23039e28e28f981,right,-1,0.1786,0.35,4,0.023544071,0.4833,,,,,,191,0,191,0,1,,,,,
,,522144,001,2023-07-31_16h06.05.902,arm3_q,2022.2.5,Win32,60.44122091,60399f04cc8c6352878f05c5,64c5699dae067f1f1081742c,64c7cde4e23039e28e28f981,down,-1,0.1786,0.35,4,0,0.5399,,,,,,192,0,192,0,1,,,,,
,,522144,001,2023-07-31_16h06.05.902,arm3_q,2022.2.5,Win32,60.44122091,60399f04cc8c6352878f05c5,64c5699dae067f1f1081742c,64c7cde4e23039e28e28f981,right,-1,0.1786,0.35,4,0.008044382,0.7795,,,,,,193,0,193,0,1,,,,,
,,522144,001,2023-07-31_16h06.05.902,arm3_q,2022.2.5,Win32,60.44122091,60399f04cc8c6352878f05c5,64c5699dae067f1f1081742c,64c7cde4e23039e28e28f981,right,-1,0.1786,0.35,4,0.027321836,0.3494,,,,,,194,0,194,0,1,,,,,
,,522144,001,2023-07-31_16h06.05.902,arm3_q,2022.2.5,Win32,60.44122091,60399f04cc8c6352878f05c5,64c5699dae067f1f1081742c,64c7cde4e23039e28e28f981,right,-1,0.1786,0.35,4,-0.003485454,0.4422,,,,,,195,0,195,0,1,,,,,
,,522144,001,2023-07-31_16h06.05.902,arm3_q,2022.2.5,Win32,60.44122091,60399f04cc8c6352878f05c5,64c5699dae067f1f1081742c,64c7cde4e23039e28e28f981,right,-1,0.1786,0.35,4,-0.001391279,0.3739,,,,,,196,0,196,0,1,,,,,
,,522144,001,2023-07-31_16h06.05.902,arm3_q,2022.2.5,Win32,60.44122091,60399f04cc8c6352878f05c5,64c5699dae067f1f1081742c,64c7cde4e23039e28e28f981,right,-1,0.1786,0.35,4,0.002099239,0.6241,,,,,,197,0,197,0,1,,,,,
,,522144,001,2023-07-31_16h06.05.902,arm3_q,2022.2.5,Win32,60.44122091,60399f04cc8c6352878f05c5,64c5699dae067f1f1081742c,64c7cde4e23039e28e28f981,right,-1,0.1786,0.35,4,-0.012475537,0.5646,,,,,,198,0,198,0,1,,,,,
,,522144,001,2023-07-31_16h06.05.902,arm3_q,2022.2.5,Win32,60.44122091,60399f04cc8c6352878f05c5,64c5699dae067f1f1081742c,64c7cde4e23039e28e28f981,right,-1,0.1786,0.35,4,-0.00630161,0.4074,,,,,,199,0,199,0,1,,,,,
,,522144,001,2023-07-31_16h06.05.902,arm3_q,2022.2.5,Win32,60.44122091,60399f04cc8c6352878f05c5,64c5699dae067f1f1081742c,64c7cde4e23039e28e28f981,right,-1,0.1786,0.35,4,-0.019965529,0.4834,,,,,,200,0,200,0,1,,,,,
,,522144,001,2023-07-31_16h06.05.902,arm3_q,2022.2.5,Win32,60.44122091,60399f04cc8c6352878f05c5,64c5699dae067f1f1081742c,64c7cde4e23039e28e28f981,down,-1,0.1786,0.35,4,0,0.2537,,,,,,201,0,201,0,1,,,,,
,,522144,001,2023-07-31_16h06.05.902,arm3_q,2022.2.5,Win32,60.44122091,60399f04cc8c6352878f05c5,64c5699dae067f1f1081742c,64c7cde4e23039e28e28f981,right,-1,0.1786,0.35,4,-0.016087112,0.7796,,,,,,202,0,202,0,1,,,,,
,,522144,001,2023-07-31_16h06.05.902,arm3_q,2022.2.5,Win32,60.44122091,60399f04cc8c6352878f05c5,64c5699dae067f1f1081742c,64c7cde4e23039e28e28f981,right,-1,0.1786,0.35,4,-0.019020991,0.6807,,,,,,203,0,203,0,1,,,,,
,,522144,001,2023-07-31_16h06.05.902,arm3_q,2022.2.5,Win32,60.44122091,60399f04cc8c6352878f05c5,64c5699dae067f1f1081742c,64c7cde4e23039e28e28f981,right,-1,0.1786,0.35,4,-0.024705251,0.4582,,,,,,204,0,204,0,1,,,,,
,,522144,001,2023-07-31_16h06.05.902,arm3_q,2022.2.5,Win32,60.44122091,60399f04cc8c6352878f05c5,64c5699dae067f1f1081742c,64c7cde4e23039e28e28f981,down,-1,0.1786,0.35,5,0,0.4308,,,,,,205,0,205,0,1,,,,,
,,522144,001,2023-07-31_16h06.05.902,arm3_q,2022.2.5,Win32,60.44122091,60399f04cc8c6352878f05c5,64c5699dae067f1f1081742c,64c7cde4e23039e28e28f981,right,-1,0.1786,0.35,5,0.001149931,0.9968,,,,,,206,0,206,0,1,,,,,
,,522144,001,2023-07-31_16h06.05.902,arm3_q,2022.2.5,Win32,60.44122091,60399f04cc8c6352878f05c5,64c5699dae067f1f1081742c,64c7cde4e23039e28e28f981,right,-1,0.1786,0.35,5,-0.005374636,0.3659,,,,,,207,0,207,0,1,,,,,
,,522144,001,2023-07-31_16h06.05.902,arm3_q,2022.2.5,Win32,60.44122091,60399f04cc8c6352878f05c5,64c5699dae067f1f1081742c,64c7cde4e23039e28e28f981,down,-1,0.1786,0.35,5,0,0.6321,,,,,,208,0,208,0,1,,,,,
,,522144,001,2023-07-31_16h06.05.902,arm3_q,2022.2.5,Win32,60.44122091,60399f04cc8c6352878f05c5,64c5699dae067f1f1081742c,64c7cde4e23039e28e28f981,right,-1,0.1786,0.35,5,0.030337644,0.646,,,,,,209,0,209,0,1,,,,,
,,522144,001,2023-07-31_16h06.05.902,arm3_q,2022.2.5,Win32,60.44122091,60399f04cc8c6352878f05c5,64c5699dae067f1f1081742c,64c7cde4e23039e28e28f981,up,-1,0.1786,0.35,4,0,0.5046,,,,,,210,0,210,0,1,,,,,
,,522144,001,2023-07-31_16h06.05.902,arm3_q,2022.2.5,Win32,60.44122091,60399f04cc8c6352878f05c5,64c5699dae067f1f1081742c,64c7cde4e23039e28e28f981,right,-1,0.1786,0.35,4,0.010342542,0.906,,,,,,211,0,211,0,1,,,,,
,,522144,001,2023-07-31_16h06.05.902,arm3_q,2022.2.5,Win32,60.44122091,60399f04cc8c6352878f05c5,64c5699dae067f1f1081742c,64c7cde4e23039e28e28f981,right,-1,0.1786,0.35,4,0.00383538,0.3584,,,,,,212,0,212,0,1,,,,,
,,522144,001,2023-07-31_16h06.05.902,arm3_q,2022.2.5,Win32,60.44122091,60399f04cc8c6352878f05c5,64c5699dae067f1f1081742c,64c7cde4e23039e28e28f981,right,-1,0.1786,0.35,4,-0.006961052,0.4044,,,,,,213,0,213,0,1,,,,,
,,522144,001,2023-07-31_16h06.05.902,arm3_q,2022.2.5,Win32,60.44122091,60399f04cc8c6352878f05c5,64c5699dae067f1f1081742c,64c7cde4e23039e28e28f981,right,-1,0.1786,0.35,4,-0.02654502,0.3989,,,,,,214,0,214,0,1,,,,,
,,522144,001,2023-07-31_16h06.05.902,arm3_q,2022.2.5,Win32,60.44122091,60399f04cc8c6352878f05c5,64c5699dae067f1f1081742c,64c7cde4e23039e28e28f981,down,-1,0.1786,0.35,4,0,0.4141,,,,,,215,0,215,0,1,,,,,
,,522144,001,2023-07-31_16h06.05.902,arm3_q,2022.2.5,Win32,60.44122091,60399f04cc8c6352878f05c5,64c5699dae067f1f1081742c,64c7cde4e23039e28e28f981,right,-1,0.1786,0.35,4,-0.026567625,0.7533,,,,,,216,0,216,0,1,,,,,
,,522144,001,2023-07-31_16h06.05.902,arm3_q,2022.2.5,Win32,60.44122091,60399f04cc8c6352878f05c5,64c5699dae067f1f1081742c,64c7cde4e23039e28e28f981,down,-1,0.1786,0.35,4,0,0.5483,,,,,,217,0,217,0,1,,,,,
,,522144,001,2023-07-31_16h06.05.902,arm3_q,2022.2.5,Win32,60.44122091,60399f04cc8c6352878f05c5,64c5699dae067f1f1081742c,64c7cde4e23039e28e28f981,right,-1,0.1786,0.35,4,-0.020055077,0.7864,,,,,,218,0,218,0,1,,,,,
,,522144,001,2023-07-31_16h06.05.902,arm3_q,2022.2.5,Win32,60.44122091,60399f04cc8c6352878f05c5,64c5699dae067f1f1081742c,64c7cde4e23039e28e28f981,down,-1,0.1786,0.35,4,0,0.4825,,,,,,219,0,219,0,1,,,,,
,,522144,001,2023-07-31_16h06.05.902,arm3_q,2022.2.5,Win32,60.44122091,60399f04cc8c6352878f05c5,64c5699dae067f1f1081742c,64c7cde4e23039e28e28f981,right,-1,0.1786,0.35,4,-0.011295177,0.7889,,,,,,220,0,220,0,1,,,,,
,,522144,001,2023-07-31_16h06.05.902,arm3_q,2022.2.5,Win32,60.44122091,60399f04cc8c6352878f05c5,64c5699dae067f1f1081742c,64c7cde4e23039e28e28f981,right,-1,0.1786,0.35,4,-0.016790726,0.406,,,,,,221,0,221,0,1,,,,,
,,522144,001,2023-07-31_16h06.05.902,arm3_q,2022.2.5,Win32,60.44122091,60399f04cc8c6352878f05c5,64c5699dae067f1f1081742c,64c7cde4e23039e28e28f981,down,1,0.1786,0.35,4,0,0.402,,,,,,222,0,222,0,1,,,,,
,,522144,001,2023-07-31_16h06.05.902,arm3_q,2022.2.5,Win32,60.44122091,60399f04cc8c6352878f05c5,64c5699dae067f1f1081742c,64c7cde4e23039e28e28f981,right,1,0.1786,0.35,4,0.029694805,0.7121,,,,,,223,0,223,0,1,,,,,
,,522144,001,2023-07-31_16h06.05.902,arm3_q,2022.2.5,Win32,60.44122091,60399f04cc8c6352878f05c5,64c5699dae067f1f1081742c,64c7cde4e23039e28e28f981,up,1,0.1786,0.35,4,0,0.692,,,,,,224,0,224,0,1,,,,,
,,522144,001,2023-07-31_16h06.05.902,arm3_q,2022.2.5,Win32,60.44122091,60399f04cc8c6352878f05c5,64c5699dae067f1f1081742c,64c7cde4e23039e28e28f981,right,1,0.1786,0.35,4,0.019320414,0.7965,,,,,,225,0,225,0,1,,,,,
,,522144,001,2023-07-31_16h06.05.902,arm3_q,2022.2.5,Win32,60.44122091,60399f04cc8c6352878f05c5,64c5699dae067f1f1081742c,64c7cde4e23039e28e28f981,up,1,0.1786,0.35,4,0,0.3998,,,,,,226,0,226,0,1,,,,,
,,522144,001,2023-07-31_16h06.05.902,arm3_q,2022.2.5,Win32,60.44122091,60399f04cc8c6352878f05c5,64c5699dae067f1f1081742c,64c7cde4e23039e28e28f981,right,1,0.1786,0.35,4,0.038951858,0.7577,,,,,,227,0,227,0,1,,,,,
,,522144,001,2023-07-31_16h06.05.902,arm3_q,2022.2.5,Win32,60.44122091,60399f04cc8c6352878f05c5,64c5699dae067f1f1081742c,64c7cde4e23039e28e28f981,up,1,0.1786,0.35,4,0,0.4854,,,,,,228,0,228,0,1,,,,,
,,522144,001,2023-07-31_16h06.05.902,arm3_q,2022.2.5,Win32,60.44122091,60399f04cc8c6352878f05c5,64c5699dae067f1f1081742c,64c7cde4e23039e28e28f981,right,1,0.1786,0.35,4,0.025587516,0.7461,,,,,,229,0,229,0,1,,,,,
,,522144,001,2023-07-31_16h06.05.902,arm3_q,2022.2.5,Win32,60.44122091,60399f04cc8c6352878f05c5,64c5699dae067f1f1081742c,64c7cde4e23039e28e28f981,right,1,0.1786,0.35,4,0.006212981,0.6014,,,,,,230,0,230,0,1,,,,,
,,522144,001,2023-07-31_16h06.05.902,arm3_q,2022.2.5,Win32,60.44122091,60399f04cc8c6352878f05c5,64c5699dae067f1f1081742c,64c7cde4e23039e28e28f981,right,1,0.1786,0.35,4,-0.009576742,0.3014,,,,,,231,0,231,0,1,,,,,
,,522144,001,2023-07-31_16h06.05.902,arm3_q,2022.2.5,Win32,60.44122091,60399f04cc8c6352878f05c5,64c5699dae067f1f1081742c,64c7cde4e23039e28e28f981,right,1,0.1786,0.35,4,0.020669753,0.5902,,,,,,232,0,232,0,1,,,,,
,,522144,001,2023-07-31_16h06.05.902,arm3_q,2022.2.5,Win32,60.44122091,60399f04cc8c6352878f05c5,64c5699dae067f1f1081742c,64c7cde4e23039e28e28f981,up,-1,0.1786,0.35,4,0,0.3716,,,,,,233,0,233,0,1,,,,,
,,522144,001,2023-07-31_16h06.05.902,arm3_q,2022.2.5,Win32,60.44122091,60399f04cc8c6352878f05c5,64c5699dae067f1f1081742c,64c7cde4e23039e28e28f981,right,-1,0.1786,0.35,4,-0.035390942,0.6647,,,,,,234,0,234,0,1,,,,,
,,522144,001,2023-07-31_16h06.05.902,arm3_q,2022.2.5,Win32,60.44122091,60399f04cc8c6352878f05c5,64c5699dae067f1f1081742c,64c7cde4e23039e28e28f981,down,-1,0.1786,0.35,4,0,0.4321,,,,,,235,0,235,0,1,,,,,
,,522144,001,2023-07-31_16h06.05.902,arm3_q,2022.2.5,Win32,60.44122091,60399f04cc8c6352878f05c5,64c5699dae067f1f1081742c,64c7cde4e23039e28e28f981,right,-1,0.1786,0.35,4,-0.005917012,0.7287,,,,,,236,0,236,0,1,,,,,
,,522144,001,2023-07-31_16h06.05.902,arm3_q,2022.2.5,Win32,60.44122091,60399f04cc8c6352878f05c5,64c5699dae067f1f1081742c,64c7cde4e23039e28e28f981,right,-1,0.1786,0.35,4,-0.015145323,0.3274,,,,,,237,0,237,0,1,,,,,
,,522144,001,2023-07-31_16h06.05.902,arm3_q,2022.2.5,Win32,60.44122091,60399f04cc8c6352878f05c5,64c5699dae067f1f1081742c,64c7cde4e23039e28e28f981,right,-1,0.1786,0.35,4,-0.013058869,0.4088,,,,,,238,0,238,0,1,,,,,
,,522144,001,2023-07-31_16h06.05.902,arm3_q,2022.2.5,Win32,60.44122091,60399f04cc8c6352878f05c5,64c5699dae067f1f1081742c,64c7cde4e23039e28e28f981,right,-1,0.1786,0.35,4,-0.026220254,0.2743,,,,,,239,0,239,0,1,,,,,
,,522144,001,2023-07-31_16h06.05.902,arm3_q,2022.2.5,Win32,60.44122091,60399f04cc8c6352878f05c5,64c5699dae067f1f1081742c,64c7cde4e23039e28e28f981,right,-1,0.1786,0.35,4,-0.004611417,0.4707,,,,,,240,0,240,0,1,,,,,
,,522144,001,2023-07-31_16h06.05.902,arm3_q,2022.2.5,Win32,60.44122091,60399f04cc8c6352878f05c5,64c5699dae067f1f1081742c,64c7cde4e23039e28e28f981,right,-1,0.1786,0.35,4,-0.041121773,0.3206,,,,,,241,0,241,0,1,,,,,
,,522144,001,2023-07-31_16h06.05.902,arm3_q,2022.2.5,Win32,60.44122091,60399f04cc8c6352878f05c5,64c5699dae067f1f1081742c,64c7cde4e23039e28e28f981,down,-1,0.1786,0.35,4,0,0.5114,,,,,,242,0,242,0,1,,,,,
,,522144,001,2023-07-31_16h06.05.902,arm3_q,2022.2.5,Win32,60.44122091,60399f04cc8c6352878f05c5,64c5699dae067f1f1081742c,64c7cde4e23039e28e28f981,right,-1,0.1786,0.35,4,-0.018243915,0.8187,,,,,,243,0,243,0,1,,,,,
,,522144,001,2023-07-31_16h06.05.902,arm3_q,2022.2.5,Win32,60.44122091,60399f04cc8c6352878f05c5,64c5699dae067f1f1081742c,64c7cde4e23039e28e28f981,right,-1,0.1786,0.35,4,-0.004015593,0.3809,,,,,,244,0,244,0,1,,,,,
,,522144,001,2023-07-31_16h06.05.902,arm3_q,2022.2.5,Win32,60.44122091,60399f04cc8c6352878f05c5,64c5699dae067f1f1081742c,64c7cde4e23039e28e28f981,right,-1,0.1786,0.35,4,-0.024578351,0.3493,,,,,,245,0,245,0,1,,,,,
,,522144,001,2023-07-31_16h06.05.902,arm3_q,2022.2.5,Win32,60.44122091,60399f04cc8c6352878f05c5,64c5699dae067f1f1081742c,64c7cde4e23039e28e28f981,right,-1,0.1786,0.35,4,-0.033885159,0.4214,,,,,,246,0,246,0,1,,,,,
,,522144,001,2023-07-31_16h06.05.902,arm3_q,2022.2.5,Win32,60.44122091,60399f04cc8c6352878f05c5,64c5699dae067f1f1081742c,64c7cde4e23039e28e28f981,right,-1,0.1786,0.35,4,-0.019304032,0.499,,,,,,247,0,247,0,1,,,,,
,,522144,001,2023-07-31_16h06.05.902,arm3_q,2022.2.5,Win32,60.44122091,60399f04cc8c6352878f05c5,64c5699dae067f1f1081742c,64c7cde4e23039e28e28f981,right,-1,0.1786,0.35,4,-0.027513584,0.3775,,,,,,248,0,248,0,1,,,,,
,,522144,001,2023-07-31_16h06.05.902,arm3_q,2022.2.5,Win32,60.44122091,60399f04cc8c6352878f05c5,64c5699dae067f1f1081742c,64c7cde4e23039e28e28f981,down,1,0.1786,0.35,5,0,0.2997,,,,,,249,0,249,0,1,,,,,
,,522144,001,2023-07-31_16h06.05.902,arm3_q,2022.2.5,Win32,60.44122091,60399f04cc8c6352878f05c5,64c5699dae067f1f1081742c,64c7cde4e23039e28e28f981,right,1,0.1786,0.35,5,0.015480297,1.1993,,,,,,250,0,250,0,1,,,,,
,,522144,001,2023-07-31_16h06.05.902,arm3_q,2022.2.5,Win32,60.44122091,60399f04cc8c6352878f05c5,64c5699dae067f1f1081742c,64c7cde4e23039e28e28f981,right,1,0.1786,0.35,5,0.007975198,0.3836,,,,,,251,0,251,0,1,,,,,
,,522144,001,2023-07-31_16h06.05.902,arm3_q,2022.2.5,Win32,60.44122091,60399f04cc8c6352878f05c5,64c5699dae067f1f1081742c,64c7cde4e23039e28e28f981,right,1,0.1786,0.35,5,0.025959983,0.2384,,,,,,252,0,252,0,1,,,,,
,,522144,001,2023-07-31_16h06.05.902,arm3_q,2022.2.5,Win32,60.44122091,60399f04cc8c6352878f05c5,64c5699dae067f1f1081742c,64c7cde4e23039e28e28f981,right,1,0.1786,0.35,5,0.031111815,0.3689,,,,,,253,0,253,0,1,,,,,
,,522144,001,2023-07-31_16h06.05.902,arm3_q,2022.2.5,Win32,60.44122091,60399f04cc8c6352878f05c5,64c5699dae067f1f1081742c,64c7cde4e23039e28e28f981,up,1,0.1786,0.35,5,0,0.4156,,,,,,254,0,254,0,1,,,,,
,,522144,001,2023-07-31_16h06.05.902,arm3_q,2022.2.5,Win32,60.44122091,60399f04cc8c6352878f05c5,64c5699dae067f1f1081742c,64c7cde4e23039e28e28f981,right,1,0.1786,0.35,5,0.000222605,0.6006,,,,,,255,0,255,0,1,,,,,
,,522144,001,2023-07-31_16h06.05.902,arm3_q,2022.2.5,Win32,60.44122091,60399f04cc8c6352878f05c5,64c5699dae067f1f1081742c,64c7cde4e23039e28e28f981,up,1,0.1786,0.35,5,0,0.6212,,,,,,256,0,256,0,1,,,,,
,,522144,001,2023-07-31_16h06.05.902,arm3_q,2022.2.5,Win32,60.44122091,60399f04cc8c6352878f05c5,64c5699dae067f1f1081742c,64c7cde4e23039e28e28f981,right,1,0.1786,0.35,5,0.068190839,0.8079,,,,,,257,0,257,0,1,,,,,
,,522144,001,2023-07-31_16h06.05.902,arm3_q,2022.2.5,Win32,60.44122091,60399f04cc8c6352878f05c5,64c5699dae067f1f1081742c,64c7cde4e23039e28e28f981,up,-1,0.1786,0.35,5,0,0.4249,,,,,,258,0,258,0,1,,,,,
,,522144,001,2023-07-31_16h06.05.902,arm3_q,2022.2.5,Win32,60.44122091,60399f04cc8c6352878f05c5,64c5699dae067f1f1081742c,64c7cde4e23039e28e28f981,right,-1,0.1786,0.35,5,-0.01770883,0.7658,,,,,,259,0,259,0,1,,,,,
,,522144,001,2023-07-31_16h06.05.902,arm3_q,2022.2.5,Win32,60.44122091,60399f04cc8c6352878f05c5,64c5699dae067f1f1081742c,64c7cde4e23039e28e28f981,right,-1,0.1786,0.35,5,-0.025862661,0.4657,,,,,,260,0,260,0,1,,,,,
,,522144,001,2023-07-31_16h06.05.902,arm3_q,2022.2.5,Win32,60.44122091,60399f04cc8c6352878f05c5,64c5699dae067f1f1081742c,64c7cde4e23039e28e28f981,right,-1,0.1786,0.35,5,-0.004670295,0.5825,,,,,,261,0,261,0,1,,,,,
,,522144,001,2023-07-31_16h06.05.902,arm3_q,2022.2.5,Win32,60.44122091,60399f04cc8c6352878f05c5,64c5699dae067f1f1081742c,64c7cde4e23039e28e28f981,right,-1,0.1786,0.35,5,0.00158557,0.4475,,,,,,262,0,262,0,1,,,,,
,,522144,001,2023-07-31_16h06.05.902,arm3_q,2022.2.5,Win32,60.44122091,60399f04cc8c6352878f05c5,64c5699dae067f1f1081742c,64c7cde4e23039e28e28f981,up,-1,0.1786,0.35,5,0,0.6766,,,,,,263,0,263,0,1,,,,,
,,522144,001,2023-07-31_16h06.05.902,arm3_q,2022.2.5,Win32,60.44122091,60399f04cc8c6352878f05c5,64c5699dae067f1f1081742c,64c7cde4e23039e28e28f981,right,-1,0.1786,0.35,5,0.017634449,0.7041,,,,,,264,0,264,0,1,,,,,
