space_bar.keys,space_bar.rt,participant,session,date,expName,psychopyVersion,OS,frameRate,PROLIFIC_PID,STUDY_ID,SESSION_ID,resp.keys,state,q_prob,eps_prob,score,price,resp.rt,train.thisRepN,train.thisTrialN,train.thisN,train.thisIndex,train.ran,steps.thisRepN,steps.thisTrialN,steps.thisN,steps.thisIndex,steps.ran,blocks.thisRepN,blocks.thisTrialN,blocks.thisN,blocks.thisIndex,blocks.ran
space,15.0522,578137,001,2023-07-31_16h06.37.936,arm3_q,2022.2.5,Win32,120.9043646,6167eea0a4fd7219518e8a16,64c5699dae067f1f1081742c,64c7cdeb220bc99d1f202f69,,,,,,,,,,,,,,,,,,,,,,
space,3.7437,578137,001,2023-07-31_16h06.37.936,arm3_q,2022.2.5,Win32,120.9043646,6167eea0a4fd7219518e8a16,64c5699dae067f1f1081742c,64c7cdeb220bc99d1f202f69,,,,,,,,,,,,,,,,,,,,,,
space,11.3721,578137,001,2023-07-31_16h06.37.936,arm3_q,2022.2.5,Win32,120.9043646,6167eea0a4fd7219518e8a16,64c5699dae067f1f1081742c,64c7cdeb220bc99d1f202f69,,,,,,,,,,,,,,,,,,,,,,
space,11.4586,578137,001,2023-07-31_16h06.37.936,arm3_q,2022.2.5,Win32,120.9043646,6167eea0a4fd7219518e8a16,64c5699dae067f1f1081742c,64c7cdeb220bc99d1f202f69,,,,,,,,,,,,,,,,,,,,,,
space,15.6331,578137,001,2023-07-31_16h06.37.936,arm3_q,2022.2.5,Win32,120.9043646,6167eea0a4fd7219518e8a16,64c5699dae067f1f1081742c,64c7cdeb220bc99d1f202f69,,,,,,,,,,,,,,,,,,,,,,
space,6.8998,578137,001,2023-07-31_16h06.37.936,arm3_q,2022.2.5,Win32,120.9043646,6167eea0a4fd7219518e8a16,64c5699dae067f1f1081742c,64c7cdeb220bc99d1f202f69,,,,,,,,,,,,,,,,,,,,,,
space,15.3189,578137,001,2023-07-31_16h06.37.936,arm3_q,2022.2.5,Win32,120.9043646,6167eea0a4fd7219518e8a16,64c5699dae067f1f1081742c,64c7cdeb220bc99d1f202f69,,,,,,,,,,,,,,,,,,,,,,
space,1.2966,578137,001,2023-07-31_16h06.37.936,arm3_q,2022.2.5,Win32,120.9043646,6167eea0a4fd7219518e8a16,64c5699dae067f1f1081742c,64c7cdeb220bc99d1f202f69,,,,,,,,,,,,,,,,,,,,,,
,,578137,001,2023-07-31_16h06.37.936,arm3_q,2022.2.5,Win32,120.9043646,6167eea0a4fd7219518e8a16,64c5699dae067f1f1081742c,64c7cdeb220bc99d1f202f69,right,-1,1,0.35,0,0.009241216,3.7823,0,0,0,0,1,,,,,,,,,,
,,578137,001,2023-07-31_16h06.37.936,arm3_q,2022.2.5,Win32,120.9043646,6167eea0a4fd7219518e8a16,64c5699dae067f1f1081742c,64c7cdeb220bc99d1f202f69,up,-1,1,0.35,-1,0,1.167,1,0,1,0,1,,,,,,,,,,
,,578137,001,2023-07-31_16h06.37.936,arm3_q,2022.2.5,Win32,120.9043646,6167eea0a4fd7219518e8a16,64c5699dae067f1f1081742c,64c7cdeb220bc99d1f202f69,down,1,1,0.35,0,0,2.5933,2,0,2,0,1,,,,,,,,,,
,,578137,001,2023-07-31_16h06.37.936,arm3_q,2022.2.5,Win32,120.9043646,6167eea0a4fd7219518e8a16,64c5699dae067f1f1081742c,64c7cdeb220bc99d1f202f69,up,-1,1,0.35,1,0,1.2254,3,0,3,0,1,,,,,,,,,,
,,578137,001,2023-07-31_16h06.37.936,arm3_q,2022.2.5,Win32,120.9043646,6167eea0a4fd7219518e8a16,64c5699dae067f1f1081742c,64c7cdeb220bc99d1f202f69,right,-1,1,0.35,1,-0.013546939,1.3334,4,0,4,0,1,,,,,,,,,,
,,578137,001,2023-07-31_16h06.37.936,arm3_q,2022.2.5,Win32,120.9043646,6167eea0a4fd7219518e8a16,64c5699dae067f1f1081742c,64c7cdeb220bc99d1f202f69,right,-1,1,0.35,1,-0.037187113,0.525,5,0,5,0,1,,,,,,,,,,
,,578137,001,2023-07-31_16h06.37.936,arm3_q,2022.2.5,Win32,120.9043646,6167eea0a4fd7219518e8a16,64c5699dae067f1f1081742c,64c7cdeb220bc99d1f202f69,right,-1,1,0.35,1,-0.008762728,0.5249,6,0,6,0,1,,,,,,,,,,
,,578137,001,2023-07-31_16h06.37.936,arm3_q,2022.2.5,Win32,120.9043646,6167eea0a4fd7219518e8a16,64c5699dae067f1f1081742c,64c7cdeb220bc99d1f202f69,right,-1,1,0.35,1,-0.013672827,0.4004,7,0,7,0,1,,,,,,,,,,
,,578137,001,2023-07-31_16h06.37.936,arm3_q,2022.2.5,Win32,120.9043646,6167eea0a4fd7219518e8a16,64c5699dae067f1f1081742c,64c7cdeb220bc99d1f202f69,right,-1,1,0.35,1,-0.005622581,0.5945,8,0,8,0,1,,,,,,,,,,
,,578137,001,2023-07-31_16h06.37.936,arm3_q,2022.2.5,Win32,120.9043646,6167eea0a4fd7219518e8a16,64c5699dae067f1f1081742c,64c7cdeb220bc99d1f202f69,up,-1,1,0.35,0,0,0.742,9,0,9,0,1,,,,,,,,,,
,,578137,001,2023-07-31_16h06.37.936,arm3_q,2022.2.5,Win32,120.9043646,6167eea0a4fd7219518e8a16,64c5699dae067f1f1081742c,64c7cdeb220bc99d1f202f69,right,-1,1,0.35,0,0.001344154,0.867,10,0,10,0,1,,,,,,,,,,
,,578137,001,2023-07-31_16h06.37.936,arm3_q,2022.2.5,Win32,120.9043646,6167eea0a4fd7219518e8a16,64c5699dae067f1f1081742c,64c7cdeb220bc99d1f202f69,right,-1,1,0.35,0,-0.020026704,0.3834,11,0,11,0,1,,,,,,,,,,
,,578137,001,2023-07-31_16h06.37.936,arm3_q,2022.2.5,Win32,120.9043646,6167eea0a4fd7219518e8a16,64c5699dae067f1f1081742c,64c7cdeb220bc99d1f202f69,right,-1,1,0.35,0,-0.017806648,0.4508,12,0,12,0,1,,,,,,,,,,
,,578137,001,2023-07-31_16h06.37.936,arm3_q,2022.2.5,Win32,120.9043646,6167eea0a4fd7219518e8a16,64c5699dae067f1f1081742c,64c7cdeb220bc99d1f202f69,right,-1,1,0.35,0,-0.014237479,0.6193,13,0,13,0,1,,,,,,,,,,
,,578137,001,2023-07-31_16h06.37.936,arm3_q,2022.2.5,Win32,120.9043646,6167eea0a4fd7219518e8a16,64c5699dae067f1f1081742c,64c7cdeb220bc99d1f202f69,right,-1,1,0.35,0,-0.016148037,1.5595,14,0,14,0,1,,,,,,,,,,
,,578137,001,2023-07-31_16h06.37.936,arm3_q,2022.2.5,Win32,120.9043646,6167eea0a4fd7219518e8a16,64c5699dae067f1f1081742c,64c7cdeb220bc99d1f202f69,right,-1,1,0.35,0,0.004204876,0.9707,15,0,15,0,1,,,,,,,,,,
,,578137,001,2023-07-31_16h06.37.936,arm3_q,2022.2.5,Win32,120.9043646,6167eea0a4fd7219518e8a16,64c5699dae067f1f1081742c,64c7cdeb220bc99d1f202f69,right,-1,1,0.35,0,-0.018085914,0.9254,16,0,16,0,1,,,,,,,,,,
,,578137,001,2023-07-31_16h06.37.936,arm3_q,2022.2.5,Win32,120.9043646,6167eea0a4fd7219518e8a16,64c5699dae067f1f1081742c,64c7cdeb220bc99d1f202f69,right,-1,1,0.35,0,-0.039665267,0.5526,17,0,17,0,1,,,,,,,,,,
,,578137,001,2023-07-31_16h06.37.936,arm3_q,2022.2.5,Win32,120.9043646,6167eea0a4fd7219518e8a16,64c5699dae067f1f1081742c,64c7cdeb220bc99d1f202f69,right,-1,1,0.35,0,-0.033131558,0.667,18,0,18,0,1,,,,,,,,,,
,,578137,001,2023-07-31_16h06.37.936,arm3_q,2022.2.5,Win32,120.9043646,6167eea0a4fd7219518e8a16,64c5699dae067f1f1081742c,64c7cdeb220bc99d1f202f69,down,-1,1,0.35,1,0,0.8248,19,0,19,0,1,,,,,,,,,,
,,578137,001,2023-07-31_16h06.37.936,arm3_q,2022.2.5,Win32,120.9043646,6167eea0a4fd7219518e8a16,64c5699dae067f1f1081742c,64c7cdeb220bc99d1f202f69,right,-1,1,0.35,1,-0.003839092,0.9,20,0,20,0,1,,,,,,,,,,
,,578137,001,2023-07-31_16h06.37.936,arm3_q,2022.2.5,Win32,120.9043646,6167eea0a4fd7219518e8a16,64c5699dae067f1f1081742c,64c7cdeb220bc99d1f202f69,right,-1,1,0.35,1,-0.003371849,0.4837,21,0,21,0,1,,,,,,,,,,
,,578137,001,2023-07-31_16h06.37.936,arm3_q,2022.2.5,Win32,120.9043646,6167eea0a4fd7219518e8a16,64c5699dae067f1f1081742c,64c7cdeb220bc99d1f202f69,right,-1,1,0.35,1,0.008400783,0.518,22,0,22,0,1,,,,,,,,,,
,,578137,001,2023-07-31_16h06.37.936,arm3_q,2022.2.5,Win32,120.9043646,6167eea0a4fd7219518e8a16,64c5699dae067f1f1081742c,64c7cdeb220bc99d1f202f69,right,-1,1,0.35,1,0.02138082,0.4167,23,0,23,0,1,,,,,,,,,,
,,578137,001,2023-07-31_16h06.37.936,arm3_q,2022.2.5,Win32,120.9043646,6167eea0a4fd7219518e8a16,64c5699dae067f1f1081742c,64c7cdeb220bc99d1f202f69,right,-1,1,0.35,1,0.025722171,0.6333,24,0,24,0,1,,,,,,,,,,
,,578137,001,2023-07-31_16h06.37.936,arm3_q,2022.2.5,Win32,120.9043646,6167eea0a4fd7219518e8a16,64c5699dae067f1f1081742c,64c7cdeb220bc99d1f202f69,right,-1,1,0.35,1,0.017752655,0.4793,25,0,25,0,1,,,,,,,,,,
,,578137,001,2023-07-31_16h06.37.936,arm3_q,2022.2.5,Win32,120.9043646,6167eea0a4fd7219518e8a16,64c5699dae067f1f1081742c,64c7cdeb220bc99d1f202f69,up,1,1,0.35,0,0,0.792,26,0,26,0,1,,,,,,,,,,
,,578137,001,2023-07-31_16h06.37.936,arm3_q,2022.2.5,Win32,120.9043646,6167eea0a4fd7219518e8a16,64c5699dae067f1f1081742c,64c7cdeb220bc99d1f202f69,right,1,1,0.35,0,0.004392485,0.5996,27,0,27,0,1,,,,,,,,,,
,,578137,001,2023-07-31_16h06.37.936,arm3_q,2022.2.5,Win32,120.9043646,6167eea0a4fd7219518e8a16,64c5699dae067f1f1081742c,64c7cdeb220bc99d1f202f69,right,1,1,0.35,0,-0.005542587,0.4586,28,0,28,0,1,,,,,,,,,,
,,578137,001,2023-07-31_16h06.37.936,arm3_q,2022.2.5,Win32,120.9043646,6167eea0a4fd7219518e8a16,64c5699dae067f1f1081742c,64c7cdeb220bc99d1f202f69,right,1,1,0.35,0,0.002362158,0.4586,29,0,29,0,1,,,,,,,,,,
,,578137,001,2023-07-31_16h06.37.936,arm3_q,2022.2.5,Win32,120.9043646,6167eea0a4fd7219518e8a16,64c5699dae067f1f1081742c,64c7cdeb220bc99d1f202f69,right,1,1,0.35,0,-0.001451661,0.5092,30,0,30,0,1,,,,,,,,,,
,,578137,001,2023-07-31_16h06.37.936,arm3_q,2022.2.5,Win32,120.9043646,6167eea0a4fd7219518e8a16,64c5699dae067f1f1081742c,64c7cdeb220bc99d1f202f69,right,1,1,0.35,0,-0.010347019,0.5176,31,0,31,0,1,,,,,,,,,,
,,578137,001,2023-07-31_16h06.37.936,arm3_q,2022.2.5,Win32,120.9043646,6167eea0a4fd7219518e8a16,64c5699dae067f1f1081742c,64c7cdeb220bc99d1f202f69,right,1,1,0.35,0,-0.000725034,0.4529,32,0,32,0,1,,,,,,,,,,
,,578137,001,2023-07-31_16h06.37.936,arm3_q,2022.2.5,Win32,120.9043646,6167eea0a4fd7219518e8a16,64c5699dae067f1f1081742c,64c7cdeb220bc99d1f202f69,right,1,1,0.35,0,-0.004963632,0.4679,33,0,33,0,1,,,,,,,,,,
,,578137,001,2023-07-31_16h06.37.936,arm3_q,2022.2.5,Win32,120.9043646,6167eea0a4fd7219518e8a16,64c5699dae067f1f1081742c,64c7cdeb220bc99d1f202f69,down,-1,1,0.35,-1,0,0.6102,34,0,34,0,1,,,,,,,,,,
,,578137,001,2023-07-31_16h06.37.936,arm3_q,2022.2.5,Win32,120.9043646,6167eea0a4fd7219518e8a16,64c5699dae067f1f1081742c,64c7cdeb220bc99d1f202f69,right,-1,1,0.35,-1,-0.005977771,0.7919,35,0,35,0,1,,,,,,,,,,
,,578137,001,2023-07-31_16h06.37.936,arm3_q,2022.2.5,Win32,120.9043646,6167eea0a4fd7219518e8a16,64c5699dae067f1f1081742c,64c7cdeb220bc99d1f202f69,right,-1,1,0.35,-1,-0.042940868,0.4836,36,0,36,0,1,,,,,,,,,,
,,578137,001,2023-07-31_16h06.37.936,arm3_q,2022.2.5,Win32,120.9043646,6167eea0a4fd7219518e8a16,64c5699dae067f1f1081742c,64c7cdeb220bc99d1f202f69,right,-1,1,0.35,-1,-0.070243677,0.5253,37,0,37,0,1,,,,,,,,,,
,,578137,001,2023-07-31_16h06.37.936,arm3_q,2022.2.5,Win32,120.9043646,6167eea0a4fd7219518e8a16,64c5699dae067f1f1081742c,64c7cdeb220bc99d1f202f69,right,-1,1,0.35,-1,-0.100024709,0.442,38,0,38,0,1,,,,,,,,,,
,,578137,001,2023-07-31_16h06.37.936,arm3_q,2022.2.5,Win32,120.9043646,6167eea0a4fd7219518e8a16,64c5699dae067f1f1081742c,64c7cdeb220bc99d1f202f69,down,1,1,0.35,0,0,0.6833,39,0,39,0,1,,,,,,,,,,
,,578137,001,2023-07-31_16h06.37.936,arm3_q,2022.2.5,Win32,120.9043646,6167eea0a4fd7219518e8a16,64c5699dae067f1f1081742c,64c7cdeb220bc99d1f202f69,right,1,1,0.35,0,0.015494244,0.9169,40,0,40,0,1,,,,,,,,,,
,,578137,001,2023-07-31_16h06.37.936,arm3_q,2022.2.5,Win32,120.9043646,6167eea0a4fd7219518e8a16,64c5699dae067f1f1081742c,64c7cdeb220bc99d1f202f69,right,1,1,0.35,0,0.027840593,0.4691,41,0,41,0,1,,,,,,,,,,
,,578137,001,2023-07-31_16h06.37.936,arm3_q,2022.2.5,Win32,120.9043646,6167eea0a4fd7219518e8a16,64c5699dae067f1f1081742c,64c7cdeb220bc99d1f202f69,right,1,1,0.35,0,0.030231206,0.4419,42,0,42,0,1,,,,,,,,,,
,,578137,001,2023-07-31_16h06.37.936,arm3_q,2022.2.5,Win32,120.9043646,6167eea0a4fd7219518e8a16,64c5699dae067f1f1081742c,64c7cdeb220bc99d1f202f69,up,1,1,0.35,1,0,0.5921,43,0,43,0,1,,,,,,,,,,
,,578137,001,2023-07-31_16h06.37.936,arm3_q,2022.2.5,Win32,120.9043646,6167eea0a4fd7219518e8a16,64c5699dae067f1f1081742c,64c7cdeb220bc99d1f202f69,right,1,1,0.35,1,0.00475196,0.8338,44,0,44,0,1,,,,,,,,,,
,,578137,001,2023-07-31_16h06.37.936,arm3_q,2022.2.5,Win32,120.9043646,6167eea0a4fd7219518e8a16,64c5699dae067f1f1081742c,64c7cdeb220bc99d1f202f69,right,1,1,0.35,1,0.001066421,0.4773,45,0,45,0,1,,,,,,,,,,
,,578137,001,2023-07-31_16h06.37.936,arm3_q,2022.2.5,Win32,120.9043646,6167eea0a4fd7219518e8a16,64c5699dae067f1f1081742c,64c7cdeb220bc99d1f202f69,right,1,1,0.35,1,0.010126978,1.117,46,0,46,0,1,,,,,,,,,,
,,578137,001,2023-07-31_16h06.37.936,arm3_q,2022.2.5,Win32,120.9043646,6167eea0a4fd7219518e8a16,64c5699dae067f1f1081742c,64c7cdeb220bc99d1f202f69,right,1,1,0.35,1,0.01009635,0.4837,47,0,47,0,1,,,,,,,,,,
,,578137,001,2023-07-31_16h06.37.936,arm3_q,2022.2.5,Win32,120.9043646,6167eea0a4fd7219518e8a16,64c5699dae067f1f1081742c,64c7cdeb220bc99d1f202f69,right,1,1,0.35,1,0.00284169,0.5104,48,0,48,0,1,,,,,,,,,,
,,578137,001,2023-07-31_16h06.37.936,arm3_q,2022.2.5,Win32,120.9043646,6167eea0a4fd7219518e8a16,64c5699dae067f1f1081742c,64c7cdeb220bc99d1f202f69,right,1,1,0.35,1,0.011256902,0.5667,49,0,49,0,1,,,,,,,,,,
space,21.5909,578137,001,2023-07-31_16h06.37.936,arm3_q,2022.2.5,Win32,120.9043646,6167eea0a4fd7219518e8a16,64c5699dae067f1f1081742c,64c7cdeb220bc99d1f202f69,,,,,,,,,,,,,,,,,,,,,,
space,24.3138,578137,001,2023-07-31_16h06.37.936,arm3_q,2022.2.5,Win32,120.9043646,6167eea0a4fd7219518e8a16,64c5699dae067f1f1081742c,64c7cdeb220bc99d1f202f69,,,,,,,,,,,,,,,,,,,,,,
space,12.2571,578137,001,2023-07-31_16h06.37.936,arm3_q,2022.2.5,Win32,120.9043646,6167eea0a4fd7219518e8a16,64c5699dae067f1f1081742c,64c7cdeb220bc99d1f202f69,,,,,,,,,,,,,,,,,,,,,,
space,7.0411,578137,001,2023-07-31_16h06.37.936,arm3_q,2022.2.5,Win32,120.9043646,6167eea0a4fd7219518e8a16,64c5699dae067f1f1081742c,64c7cdeb220bc99d1f202f69,,,,,,,,,,,,,,,,,,,,,,
space,7.7477,578137,001,2023-07-31_16h06.37.936,arm3_q,2022.2.5,Win32,120.9043646,6167eea0a4fd7219518e8a16,64c5699dae067f1f1081742c,64c7cdeb220bc99d1f202f69,,,,,,,,,,,,,,,,,,,,,,
space,0.9337,578137,001,2023-07-31_16h06.37.936,arm3_q,2022.2.5,Win32,120.9043646,6167eea0a4fd7219518e8a16,64c5699dae067f1f1081742c,64c7cdeb220bc99d1f202f69,,,,,,,,,,,,,,,,,,,,,,
,,578137,001,2023-07-31_16h06.37.936,arm3_q,2022.2.5,Win32,120.9043646,6167eea0a4fd7219518e8a16,64c5699dae067f1f1081742c,64c7cdeb220bc99d1f202f69,up,-1,0.5643,0.35,0,0,3.6836,0,0,0,0,1,,,,,,,,,,
,,578137,001,2023-07-31_16h06.37.936,arm3_q,2022.2.5,Win32,120.9043646,6167eea0a4fd7219518e8a16,64c5699dae067f1f1081742c,64c7cdeb220bc99d1f202f69,down,-1,0.5643,0.35,1,0,2.9766,1,0,1,0,1,,,,,,,,,,
,,578137,001,2023-07-31_16h06.37.936,arm3_q,2022.2.5,Win32,120.9043646,6167eea0a4fd7219518e8a16,64c5699dae067f1f1081742c,64c7cdeb220bc99d1f202f69,right,-1,0.5643,0.35,1,0.011493772,2.0004,2,0,2,0,1,,,,,,,,,,
,,578137,001,2023-07-31_16h06.37.936,arm3_q,2022.2.5,Win32,120.9043646,6167eea0a4fd7219518e8a16,64c5699dae067f1f1081742c,64c7cdeb220bc99d1f202f69,right,-1,0.5643,0.35,1,-0.008590717,0.9165,3,0,3,0,1,,,,,,,,,,
,,578137,001,2023-07-31_16h06.37.936,arm3_q,2022.2.5,Win32,120.9043646,6167eea0a4fd7219518e8a16,64c5699dae067f1f1081742c,64c7cdeb220bc99d1f202f69,down,1,0.5643,0.35,2,0,0.6101,4,0,4,0,1,,,,,,,,,,
,,578137,001,2023-07-31_16h06.37.936,arm3_q,2022.2.5,Win32,120.9043646,6167eea0a4fd7219518e8a16,64c5699dae067f1f1081742c,64c7cdeb220bc99d1f202f69,right,1,0.5643,0.35,2,0.008200999,2.222,5,0,5,0,1,,,,,,,,,,
,,578137,001,2023-07-31_16h06.37.936,arm3_q,2022.2.5,Win32,120.9043646,6167eea0a4fd7219518e8a16,64c5699dae067f1f1081742c,64c7cdeb220bc99d1f202f69,right,1,0.5643,0.35,2,0.020424327,0.5189,6,0,6,0,1,,,,,,,,,,
,,578137,001,2023-07-31_16h06.37.936,arm3_q,2022.2.5,Win32,120.9043646,6167eea0a4fd7219518e8a16,64c5699dae067f1f1081742c,64c7cdeb220bc99d1f202f69,down,-1,0.5643,0.35,1,0,1.3167,7,0,7,0,1,,,,,,,,,,
,,578137,001,2023-07-31_16h06.37.936,arm3_q,2022.2.5,Win32,120.9043646,6167eea0a4fd7219518e8a16,64c5699dae067f1f1081742c,64c7cdeb220bc99d1f202f69,right,-1,0.5643,0.35,1,0.024235762,0.8552,8,0,8,0,1,,,,,,,,,,
,,578137,001,2023-07-31_16h06.37.936,arm3_q,2022.2.5,Win32,120.9043646,6167eea0a4fd7219518e8a16,64c5699dae067f1f1081742c,64c7cdeb220bc99d1f202f69,right,-1,0.5643,0.35,1,0.030214415,0.4268,9,0,9,0,1,,,,,,,,,,
,,578137,001,2023-07-31_16h06.37.936,arm3_q,2022.2.5,Win32,120.9043646,6167eea0a4fd7219518e8a16,64c5699dae067f1f1081742c,64c7cdeb220bc99d1f202f69,up,-1,0.5643,0.35,0,0,0.6416,10,0,10,0,1,,,,,,,,,,
,,578137,001,2023-07-31_16h06.37.936,arm3_q,2022.2.5,Win32,120.9043646,6167eea0a4fd7219518e8a16,64c5699dae067f1f1081742c,64c7cdeb220bc99d1f202f69,right,-1,0.5643,0.35,0,0.004691917,0.7063,11,0,11,0,1,,,,,,,,,,
,,578137,001,2023-07-31_16h06.37.936,arm3_q,2022.2.5,Win32,120.9043646,6167eea0a4fd7219518e8a16,64c5699dae067f1f1081742c,64c7cdeb220bc99d1f202f69,right,-1,0.5643,0.35,0,0.025497654,0.4268,12,0,12,0,1,,,,,,,,,,
,,578137,001,2023-07-31_16h06.37.936,arm3_q,2022.2.5,Win32,120.9043646,6167eea0a4fd7219518e8a16,64c5699dae067f1f1081742c,64c7cdeb220bc99d1f202f69,right,-1,0.5643,0.35,0,-0.008028662,0.65,13,0,13,0,1,,,,,,,,,,
,,578137,001,2023-07-31_16h06.37.936,arm3_q,2022.2.5,Win32,120.9043646,6167eea0a4fd7219518e8a16,64c5699dae067f1f1081742c,64c7cdeb220bc99d1f202f69,right,-1,0.5643,0.35,0,-0.043234504,0.8178,14,0,14,0,1,,,,,,,,,,
,,578137,001,2023-07-31_16h06.37.936,arm3_q,2022.2.5,Win32,120.9043646,6167eea0a4fd7219518e8a16,64c5699dae067f1f1081742c,64c7cdeb220bc99d1f202f69,down,1,0.5643,0.35,1,0,0.8001,15,0,15,0,1,,,,,,,,,,
,,578137,001,2023-07-31_16h06.37.936,arm3_q,2022.2.5,Win32,120.9043646,6167eea0a4fd7219518e8a16,64c5699dae067f1f1081742c,64c7cdeb220bc99d1f202f69,right,1,0.5643,0.35,1,0.010161026,0.4057,16,0,16,0,1,,,,,,,,,,
,,578137,001,2023-07-31_16h06.37.936,arm3_q,2022.2.5,Win32,120.9043646,6167eea0a4fd7219518e8a16,64c5699dae067f1f1081742c,64c7cdeb220bc99d1f202f69,right,1,0.5643,0.35,1,-0.020123667,0.6246,17,0,17,0,1,,,,,,,,,,
,,578137,001,2023-07-31_16h06.37.936,arm3_q,2022.2.5,Win32,120.9043646,6167eea0a4fd7219518e8a16,64c5699dae067f1f1081742c,64c7cdeb220bc99d1f202f69,right,1,0.5643,0.35,1,0.016140398,0.4768,18,0,18,0,1,,,,,,,,,,
,,578137,001,2023-07-31_16h06.37.936,arm3_q,2022.2.5,Win32,120.9043646,6167eea0a4fd7219518e8a16,64c5699dae067f1f1081742c,64c7cdeb220bc99d1f202f69,right,1,0.5643,0.35,1,0.032823877,0.6261,19,0,19,0,1,,,,,,,,,,
,,578137,001,2023-07-31_16h06.37.936,arm3_q,2022.2.5,Win32,120.9043646,6167eea0a4fd7219518e8a16,64c5699dae067f1f1081742c,64c7cdeb220bc99d1f202f69,up,1,0.5643,0.35,1,0,1.1338,20,0,20,0,1,,,,,,,,,,
,,578137,001,2023-07-31_16h06.37.936,arm3_q,2022.2.5,Win32,120.9043646,6167eea0a4fd7219518e8a16,64c5699dae067f1f1081742c,64c7cdeb220bc99d1f202f69,right,1,0.5643,0.35,1,0.008591021,0.9147,21,0,21,0,1,,,,,,,,,,
,,578137,001,2023-07-31_16h06.37.936,arm3_q,2022.2.5,Win32,120.9043646,6167eea0a4fd7219518e8a16,64c5699dae067f1f1081742c,64c7cdeb220bc99d1f202f69,right,1,0.5643,0.35,1,0.031295072,1.1761,22,0,22,0,1,,,,,,,,,,
,,578137,001,2023-07-31_16h06.37.936,arm3_q,2022.2.5,Win32,120.9043646,6167eea0a4fd7219518e8a16,64c5699dae067f1f1081742c,64c7cdeb220bc99d1f202f69,right,1,0.5643,0.35,1,0.02263802,0.5267,23,0,23,0,1,,,,,,,,,,
,,578137,001,2023-07-31_16h06.37.936,arm3_q,2022.2.5,Win32,120.9043646,6167eea0a4fd7219518e8a16,64c5699dae067f1f1081742c,64c7cdeb220bc99d1f202f69,right,1,0.5643,0.35,1,0.033442788,0.6419,24,0,24,0,1,,,,,,,,,,
,,578137,001,2023-07-31_16h06.37.936,arm3_q,2022.2.5,Win32,120.9043646,6167eea0a4fd7219518e8a16,64c5699dae067f1f1081742c,64c7cdeb220bc99d1f202f69,right,1,0.5643,0.35,1,0.014127146,0.5418,25,0,25,0,1,,,,,,,,,,
,,578137,001,2023-07-31_16h06.37.936,arm3_q,2022.2.5,Win32,120.9043646,6167eea0a4fd7219518e8a16,64c5699dae067f1f1081742c,64c7cdeb220bc99d1f202f69,down,1,0.5643,0.35,1,0,1.2593,26,0,26,0,1,,,,,,,,,,
,,578137,001,2023-07-31_16h06.37.936,arm3_q,2022.2.5,Win32,120.9043646,6167eea0a4fd7219518e8a16,64c5699dae067f1f1081742c,64c7cdeb220bc99d1f202f69,right,1,0.5643,0.35,1,0.014356166,0.8807,27,0,27,0,1,,,,,,,,,,
,,578137,001,2023-07-31_16h06.37.936,arm3_q,2022.2.5,Win32,120.9043646,6167eea0a4fd7219518e8a16,64c5699dae067f1f1081742c,64c7cdeb220bc99d1f202f69,right,1,0.5643,0.35,1,0.021750974,0.5333,28,0,28,0,1,,,,,,,,,,
,,578137,001,2023-07-31_16h06.37.936,arm3_q,2022.2.5,Win32,120.9043646,6167eea0a4fd7219518e8a16,64c5699dae067f1f1081742c,64c7cdeb220bc99d1f202f69,up,-1,0.5643,0.35,2,0,0.6085,29,0,29,0,1,,,,,,,,,,
,,578137,001,2023-07-31_16h06.37.936,arm3_q,2022.2.5,Win32,120.9043646,6167eea0a4fd7219518e8a16,64c5699dae067f1f1081742c,64c7cdeb220bc99d1f202f69,right,-1,0.5643,0.35,2,-0.004507717,1.3734,30,0,30,0,1,,,,,,,,,,
,,578137,001,2023-07-31_16h06.37.936,arm3_q,2022.2.5,Win32,120.9043646,6167eea0a4fd7219518e8a16,64c5699dae067f1f1081742c,64c7cdeb220bc99d1f202f69,right,-1,0.5643,0.35,2,-0.010302009,0.5442,31,0,31,0,1,,,,,,,,,,
,,578137,001,2023-07-31_16h06.37.936,arm3_q,2022.2.5,Win32,120.9043646,6167eea0a4fd7219518e8a16,64c5699dae067f1f1081742c,64c7cdeb220bc99d1f202f69,down,-1,0.5643,0.35,2,0,0.5861,32,0,32,0,1,,,,,,,,,,
,,578137,001,2023-07-31_16h06.37.936,arm3_q,2022.2.5,Win32,120.9043646,6167eea0a4fd7219518e8a16,64c5699dae067f1f1081742c,64c7cdeb220bc99d1f202f69,right,-1,0.5643,0.35,2,-0.008972665,1.7391,33,0,33,0,1,,,,,,,,,,
,,578137,001,2023-07-31_16h06.37.936,arm3_q,2022.2.5,Win32,120.9043646,6167eea0a4fd7219518e8a16,64c5699dae067f1f1081742c,64c7cdeb220bc99d1f202f69,right,-1,0.5643,0.35,2,0.004856235,0.5667,34,0,34,0,1,,,,,,,,,,
,,578137,001,2023-07-31_16h06.37.936,arm3_q,2022.2.5,Win32,120.9043646,6167eea0a4fd7219518e8a16,64c5699dae067f1f1081742c,64c7cdeb220bc99d1f202f69,down,-1,0.5643,0.35,2,0,1.4166,35,0,35,0,1,,,,,,,,,,
,,578137,001,2023-07-31_16h06.37.936,arm3_q,2022.2.5,Win32,120.9043646,6167eea0a4fd7219518e8a16,64c5699dae067f1f1081742c,64c7cdeb220bc99d1f202f69,down,-1,0.5643,0.35,3,0,1.8738,36,0,36,0,1,,,,,,,,,,
,,578137,001,2023-07-31_16h06.37.936,arm3_q,2022.2.5,Win32,120.9043646,6167eea0a4fd7219518e8a16,64c5699dae067f1f1081742c,64c7cdeb220bc99d1f202f69,right,-1,0.5643,0.35,3,-0.024810594,1.3064,37,0,37,0,1,,,,,,,,,,
,,578137,001,2023-07-31_16h06.37.936,arm3_q,2022.2.5,Win32,120.9043646,6167eea0a4fd7219518e8a16,64c5699dae067f1f1081742c,64c7cdeb220bc99d1f202f69,right,-1,0.5643,0.35,3,-0.03086875,0.4665,38,0,38,0,1,,,,,,,,,,
,,578137,001,2023-07-31_16h06.37.936,arm3_q,2022.2.5,Win32,120.9043646,6167eea0a4fd7219518e8a16,64c5699dae067f1f1081742c,64c7cdeb220bc99d1f202f69,down,1,0.5643,0.35,3,0,0.7665,39,0,39,0,1,,,,,,,,,,
,,578137,001,2023-07-31_16h06.37.936,arm3_q,2022.2.5,Win32,120.9043646,6167eea0a4fd7219518e8a16,64c5699dae067f1f1081742c,64c7cdeb220bc99d1f202f69,right,1,0.5643,0.35,3,-0.007756737,1.1641,40,0,40,0,1,,,,,,,,,,
,,578137,001,2023-07-31_16h06.37.936,arm3_q,2022.2.5,Win32,120.9043646,6167eea0a4fd7219518e8a16,64c5699dae067f1f1081742c,64c7cdeb220bc99d1f202f69,up,1,0.5643,0.35,4,0,0.9499,41,0,41,0,1,,,,,,,,,,
,,578137,001,2023-07-31_16h06.37.936,arm3_q,2022.2.5,Win32,120.9043646,6167eea0a4fd7219518e8a16,64c5699dae067f1f1081742c,64c7cdeb220bc99d1f202f69,right,1,0.5643,0.35,4,0.007772238,1.0223,42,0,42,0,1,,,,,,,,,,
,,578137,001,2023-07-31_16h06.37.936,arm3_q,2022.2.5,Win32,120.9043646,6167eea0a4fd7219518e8a16,64c5699dae067f1f1081742c,64c7cdeb220bc99d1f202f69,right,1,0.5643,0.35,4,0.027262427,0.5858,43,0,43,0,1,,,,,,,,,,
,,578137,001,2023-07-31_16h06.37.936,arm3_q,2022.2.5,Win32,120.9043646,6167eea0a4fd7219518e8a16,64c5699dae067f1f1081742c,64c7cdeb220bc99d1f202f69,up,1,0.5643,0.35,5,0,1.1169,44,0,44,0,1,,,,,,,,,,
,,578137,001,2023-07-31_16h06.37.936,arm3_q,2022.2.5,Win32,120.9043646,6167eea0a4fd7219518e8a16,64c5699dae067f1f1081742c,64c7cdeb220bc99d1f202f69,right,1,0.5643,0.35,5,0.015110619,1.4224,45,0,45,0,1,,,,,,,,,,
,,578137,001,2023-07-31_16h06.37.936,arm3_q,2022.2.5,Win32,120.9043646,6167eea0a4fd7219518e8a16,64c5699dae067f1f1081742c,64c7cdeb220bc99d1f202f69,right,1,0.5643,0.35,5,0.034931376,0.675,46,0,46,0,1,,,,,,,,,,
,,578137,001,2023-07-31_16h06.37.936,arm3_q,2022.2.5,Win32,120.9043646,6167eea0a4fd7219518e8a16,64c5699dae067f1f1081742c,64c7cdeb220bc99d1f202f69,up,-1,0.5643,0.35,5,0,0.8589,47,0,47,0,1,,,,,,,,,,
,,578137,001,2023-07-31_16h06.37.936,arm3_q,2022.2.5,Win32,120.9043646,6167eea0a4fd7219518e8a16,64c5699dae067f1f1081742c,64c7cdeb220bc99d1f202f69,right,-1,0.5643,0.35,5,-0.004208817,2.3839,48,0,48,0,1,,,,,,,,,,
,,578137,001,2023-07-31_16h06.37.936,arm3_q,2022.2.5,Win32,120.9043646,6167eea0a4fd7219518e8a16,64c5699dae067f1f1081742c,64c7cdeb220bc99d1f202f69,up,-1,0.5643,0.35,5,-0.004208817,0.8587,49,0,49,0,1,,,,,,,,,,
space,10.7259,578137,001,2023-07-31_16h06.37.936,arm3_q,2022.2.5,Win32,120.9043646,6167eea0a4fd7219518e8a16,64c5699dae067f1f1081742c,64c7cdeb220bc99d1f202f69,,,,,,,,,,,,,,,,,,,,,,
space,12.031,578137,001,2023-07-31_16h06.37.936,arm3_q,2022.2.5,Win32,120.9043646,6167eea0a4fd7219518e8a16,64c5699dae067f1f1081742c,64c7cdeb220bc99d1f202f69,,,,,,,,,,,,,,,,,,,,,,
space,1.0836,578137,001,2023-07-31_16h06.37.936,arm3_q,2022.2.5,Win32,120.9043646,6167eea0a4fd7219518e8a16,64c5699dae067f1f1081742c,64c7cdeb220bc99d1f202f69,,,,,,,,,,,,,,,,,,,,,,
,,578137,001,2023-07-31_16h06.37.936,arm3_q,2022.2.5,Win32,120.9043646,6167eea0a4fd7219518e8a16,64c5699dae067f1f1081742c,64c7cdeb220bc99d1f202f69,right,-1,0.95,0.35,0,-0.00401007,2.1587,0,0,0,0,1,,,,,,,,,,
,,578137,001,2023-07-31_16h06.37.936,arm3_q,2022.2.5,Win32,120.9043646,6167eea0a4fd7219518e8a16,64c5699dae067f1f1081742c,64c7cdeb220bc99d1f202f69,right,-1,0.95,0.35,0,-0.037781836,0.9848,1,0,1,0,1,,,,,,,,,,
,,578137,001,2023-07-31_16h06.37.936,arm3_q,2022.2.5,Win32,120.9043646,6167eea0a4fd7219518e8a16,64c5699dae067f1f1081742c,64c7cdeb220bc99d1f202f69,right,-1,0.95,0.35,0,-0.04792901,0.4496,2,0,2,0,1,,,,,,,,,,
,,578137,001,2023-07-31_16h06.37.936,arm3_q,2022.2.5,Win32,120.9043646,6167eea0a4fd7219518e8a16,64c5699dae067f1f1081742c,64c7cdeb220bc99d1f202f69,right,-1,0.95,0.35,0,-0.061085187,1.2439,3,0,3,0,1,,,,,,,,,,
,,578137,001,2023-07-31_16h06.37.936,arm3_q,2022.2.5,Win32,120.9043646,6167eea0a4fd7219518e8a16,64c5699dae067f1f1081742c,64c7cdeb220bc99d1f202f69,up,-1,0.95,0.35,0,0,1.5997,4,0,4,0,1,,,,,,,,,,
,,578137,001,2023-07-31_16h06.37.936,arm3_q,2022.2.5,Win32,120.9043646,6167eea0a4fd7219518e8a16,64c5699dae067f1f1081742c,64c7cdeb220bc99d1f202f69,right,-1,0.95,0.35,0,-0.034288111,1.1719,5,0,5,0,1,,,,,,,,,,
,,578137,001,2023-07-31_16h06.37.936,arm3_q,2022.2.5,Win32,120.9043646,6167eea0a4fd7219518e8a16,64c5699dae067f1f1081742c,64c7cdeb220bc99d1f202f69,right,-1,0.95,0.35,0,-0.048359332,0.4915,6,0,6,0,1,,,,,,,,,,
,,578137,001,2023-07-31_16h06.37.936,arm3_q,2022.2.5,Win32,120.9043646,6167eea0a4fd7219518e8a16,64c5699dae067f1f1081742c,64c7cdeb220bc99d1f202f69,right,-1,0.95,0.35,0,-0.087290871,1.3249,7,0,7,0,1,,,,,,,,,,
,,578137,001,2023-07-31_16h06.37.936,arm3_q,2022.2.5,Win32,120.9043646,6167eea0a4fd7219518e8a16,64c5699dae067f1f1081742c,64c7cdeb220bc99d1f202f69,down,-1,0.95,0.35,1,0,0.668,8,0,8,0,1,,,,,,,,,,
,,578137,001,2023-07-31_16h06.37.936,arm3_q,2022.2.5,Win32,120.9043646,6167eea0a4fd7219518e8a16,64c5699dae067f1f1081742c,64c7cdeb220bc99d1f202f69,right,-1,0.95,0.35,1,-0.004419959,0.9311,9,0,9,0,1,,,,,,,,,,
,,578137,001,2023-07-31_16h06.37.936,arm3_q,2022.2.5,Win32,120.9043646,6167eea0a4fd7219518e8a16,64c5699dae067f1f1081742c,64c7cdeb220bc99d1f202f69,right,-1,0.95,0.35,1,-0.021065538,0.566,10,0,10,0,1,,,,,,,,,,
,,578137,001,2023-07-31_16h06.37.936,arm3_q,2022.2.5,Win32,120.9043646,6167eea0a4fd7219518e8a16,64c5699dae067f1f1081742c,64c7cdeb220bc99d1f202f69,down,-1,0.95,0.35,2,0,0.85,11,0,11,0,1,,,,,,,,,,
,,578137,001,2023-07-31_16h06.37.936,arm3_q,2022.2.5,Win32,120.9043646,6167eea0a4fd7219518e8a16,64c5699dae067f1f1081742c,64c7cdeb220bc99d1f202f69,right,-1,0.95,0.35,2,-0.005487742,1.2904,12,0,12,0,1,,,,,,,,,,
,,578137,001,2023-07-31_16h06.37.936,arm3_q,2022.2.5,Win32,120.9043646,6167eea0a4fd7219518e8a16,64c5699dae067f1f1081742c,64c7cdeb220bc99d1f202f69,right,-1,0.95,0.35,2,0.0084015,0.4166,13,0,13,0,1,,,,,,,,,,
,,578137,001,2023-07-31_16h06.37.936,arm3_q,2022.2.5,Win32,120.9043646,6167eea0a4fd7219518e8a16,64c5699dae067f1f1081742c,64c7cdeb220bc99d1f202f69,right,-1,0.95,0.35,2,0.003674511,0.5833,14,0,14,0,1,,,,,,,,,,
,,578137,001,2023-07-31_16h06.37.936,arm3_q,2022.2.5,Win32,120.9043646,6167eea0a4fd7219518e8a16,64c5699dae067f1f1081742c,64c7cdeb220bc99d1f202f69,up,1,0.95,0.35,1,0,0.7685,15,0,15,0,1,,,,,,,,,,
,,578137,001,2023-07-31_16h06.37.936,arm3_q,2022.2.5,Win32,120.9043646,6167eea0a4fd7219518e8a16,64c5699dae067f1f1081742c,64c7cdeb220bc99d1f202f69,right,1,0.95,0.35,1,0.043221387,0.7811,16,0,16,0,1,,,,,,,,,,
,,578137,001,2023-07-31_16h06.37.936,arm3_q,2022.2.5,Win32,120.9043646,6167eea0a4fd7219518e8a16,64c5699dae067f1f1081742c,64c7cdeb220bc99d1f202f69,right,1,0.95,0.35,1,0.065400915,0.5,17,0,17,0,1,,,,,,,,,,
,,578137,001,2023-07-31_16h06.37.936,arm3_q,2022.2.5,Win32,120.9043646,6167eea0a4fd7219518e8a16,64c5699dae067f1f1081742c,64c7cdeb220bc99d1f202f69,right,1,0.95,0.35,1,0.07839886,0.8083,18,0,18,0,1,,,,,,,,,,
,,578137,001,2023-07-31_16h06.37.936,arm3_q,2022.2.5,Win32,120.9043646,6167eea0a4fd7219518e8a16,64c5699dae067f1f1081742c,64c7cdeb220bc99d1f202f69,up,1,0.95,0.35,2,0,0.7751,19,0,19,0,1,,,,,,,,,,
,,578137,001,2023-07-31_16h06.37.936,arm3_q,2022.2.5,Win32,120.9043646,6167eea0a4fd7219518e8a16,64c5699dae067f1f1081742c,64c7cdeb220bc99d1f202f69,right,1,0.95,0.35,2,0.012917271,0.8316,20,0,20,0,1,,,,,,,,,,
,,578137,001,2023-07-31_16h06.37.936,arm3_q,2022.2.5,Win32,120.9043646,6167eea0a4fd7219518e8a16,64c5699dae067f1f1081742c,64c7cdeb220bc99d1f202f69,right,1,0.95,0.35,2,0.011261265,0.5165,21,0,21,0,1,,,,,,,,,,
,,578137,001,2023-07-31_16h06.37.936,arm3_q,2022.2.5,Win32,120.9043646,6167eea0a4fd7219518e8a16,64c5699dae067f1f1081742c,64c7cdeb220bc99d1f202f69,up,1,0.95,0.35,2,0,0.8166,22,0,22,0,1,,,,,,,,,,
,,578137,001,2023-07-31_16h06.37.936,arm3_q,2022.2.5,Win32,120.9043646,6167eea0a4fd7219518e8a16,64c5699dae067f1f1081742c,64c7cdeb220bc99d1f202f69,right,1,0.95,0.35,2,-0.007692657,0.7645,23,0,23,0,1,,,,,,,,,,
,,578137,001,2023-07-31_16h06.37.936,arm3_q,2022.2.5,Win32,120.9043646,6167eea0a4fd7219518e8a16,64c5699dae067f1f1081742c,64c7cdeb220bc99d1f202f69,right,1,0.95,0.35,2,-0.013767593,0.4082,24,0,24,0,1,,,,,,,,,,
,,578137,001,2023-07-31_16h06.37.936,arm3_q,2022.2.5,Win32,120.9043646,6167eea0a4fd7219518e8a16,64c5699dae067f1f1081742c,64c7cdeb220bc99d1f202f69,down,1,0.95,0.35,1,0,1.1168,25,0,25,0,1,,,,,,,,,,
,,578137,001,2023-07-31_16h06.37.936,arm3_q,2022.2.5,Win32,120.9043646,6167eea0a4fd7219518e8a16,64c5699dae067f1f1081742c,64c7cdeb220bc99d1f202f69,right,1,0.95,0.35,1,-0.005145368,0.7303,26,0,26,0,1,,,,,,,,,,
,,578137,001,2023-07-31_16h06.37.936,arm3_q,2022.2.5,Win32,120.9043646,6167eea0a4fd7219518e8a16,64c5699dae067f1f1081742c,64c7cdeb220bc99d1f202f69,right,1,0.95,0.35,1,0.002743065,0.5084,27,0,27,0,1,,,,,,,,,,
,,578137,001,2023-07-31_16h06.37.936,arm3_q,2022.2.5,Win32,120.9043646,6167eea0a4fd7219518e8a16,64c5699dae067f1f1081742c,64c7cdeb220bc99d1f202f69,right,1,0.95,0.35,1,-0.020445432,0.4501,28,0,28,0,1,,,,,,,,,,
,,578137,001,2023-07-31_16h06.37.936,arm3_q,2022.2.5,Win32,120.9043646,6167eea0a4fd7219518e8a16,64c5699dae067f1f1081742c,64c7cdeb220bc99d1f202f69,down,1,0.95,0.35,0,0,0.7751,29,0,29,0,1,,,,,,,,,,
,,578137,001,2023-07-31_16h06.37.936,arm3_q,2022.2.5,Win32,120.9043646,6167eea0a4fd7219518e8a16,64c5699dae067f1f1081742c,64c7cdeb220bc99d1f202f69,right,1,0.95,0.35,0,0.006262974,0.615,30,0,30,0,1,,,,,,,,,,
,,578137,001,2023-07-31_16h06.37.936,arm3_q,2022.2.5,Win32,120.9043646,6167eea0a4fd7219518e8a16,64c5699dae067f1f1081742c,64c7cdeb220bc99d1f202f69,right,1,0.95,0.35,0,0.028320783,0.4586,31,0,31,0,1,,,,,,,,,,
,,578137,001,2023-07-31_16h06.37.936,arm3_q,2022.2.5,Win32,120.9043646,6167eea0a4fd7219518e8a16,64c5699dae067f1f1081742c,64c7cdeb220bc99d1f202f69,right,1,0.95,0.35,0,0.031647923,0.5333,32,0,32,0,1,,,,,,,,,,
,,578137,001,2023-07-31_16h06.37.936,arm3_q,2022.2.5,Win32,120.9043646,6167eea0a4fd7219518e8a16,64c5699dae067f1f1081742c,64c7cdeb220bc99d1f202f69,right,1,0.95,0.35,0,0.03173202,0.5353,33,0,33,0,1,,,,,,,,,,
,,578137,001,2023-07-31_16h06.37.936,arm3_q,2022.2.5,Win32,120.9043646,6167eea0a4fd7219518e8a16,64c5699dae067f1f1081742c,64c7cdeb220bc99d1f202f69,up,1,0.95,0.35,1,0,0.4084,34,0,34,0,1,,,,,,,,,,
,,578137,001,2023-07-31_16h06.37.936,arm3_q,2022.2.5,Win32,120.9043646,6167eea0a4fd7219518e8a16,64c5699dae067f1f1081742c,64c7cdeb220bc99d1f202f69,right,1,0.95,0.35,1,0.01251931,0.69,35,0,35,0,1,,,,,,,,,,
,,578137,001,2023-07-31_16h06.37.936,arm3_q,2022.2.5,Win32,120.9043646,6167eea0a4fd7219518e8a16,64c5699dae067f1f1081742c,64c7cdeb220bc99d1f202f69,right,1,0.95,0.35,1,0.040284532,0.5247,36,0,36,0,1,,,,,,,,,,
,,578137,001,2023-07-31_16h06.37.936,arm3_q,2022.2.5,Win32,120.9043646,6167eea0a4fd7219518e8a16,64c5699dae067f1f1081742c,64c7cdeb220bc99d1f202f69,up,-1,0.95,0.35,2,0,0.5585,37,0,37,0,1,,,,,,,,,,
,,578137,001,2023-07-31_16h06.37.936,arm3_q,2022.2.5,Win32,120.9043646,6167eea0a4fd7219518e8a16,64c5699dae067f1f1081742c,64c7cdeb220bc99d1f202f69,right,-1,0.95,0.35,2,-0.006628901,0.3593,38,0,38,0,1,,,,,,,,,,
,,578137,001,2023-07-31_16h06.37.936,arm3_q,2022.2.5,Win32,120.9043646,6167eea0a4fd7219518e8a16,64c5699dae067f1f1081742c,64c7cdeb220bc99d1f202f69,right,-1,0.95,0.35,2,0.002381968,0.4826,39,0,39,0,1,,,,,,,,,,
,,578137,001,2023-07-31_16h06.37.936,arm3_q,2022.2.5,Win32,120.9043646,6167eea0a4fd7219518e8a16,64c5699dae067f1f1081742c,64c7cdeb220bc99d1f202f69,right,-1,0.95,0.35,2,-0.02632426,0.4357,40,0,40,0,1,,,,,,,,,,
,,578137,001,2023-07-31_16h06.37.936,arm3_q,2022.2.5,Win32,120.9043646,6167eea0a4fd7219518e8a16,64c5699dae067f1f1081742c,64c7cdeb220bc99d1f202f69,right,-1,0.95,0.35,2,-0.004869669,0.4584,41,0,41,0,1,,,,,,,,,,
,,578137,001,2023-07-31_16h06.37.936,arm3_q,2022.2.5,Win32,120.9043646,6167eea0a4fd7219518e8a16,64c5699dae067f1f1081742c,64c7cdeb220bc99d1f202f69,down,-1,0.95,0.35,3,0,0.9418,42,0,42,0,1,,,,,,,,,,
,,578137,001,2023-07-31_16h06.37.936,arm3_q,2022.2.5,Win32,120.9043646,6167eea0a4fd7219518e8a16,64c5699dae067f1f1081742c,64c7cdeb220bc99d1f202f69,right,-1,0.95,0.35,3,-0.005461686,0.3747,43,0,43,0,1,,,,,,,,,,
,,578137,001,2023-07-31_16h06.37.936,arm3_q,2022.2.5,Win32,120.9043646,6167eea0a4fd7219518e8a16,64c5699dae067f1f1081742c,64c7cdeb220bc99d1f202f69,right,-1,0.95,0.35,3,0.019855651,0.4655,44,0,44,0,1,,,,,,,,,,
,,578137,001,2023-07-31_16h06.37.936,arm3_q,2022.2.5,Win32,120.9043646,6167eea0a4fd7219518e8a16,64c5699dae067f1f1081742c,64c7cdeb220bc99d1f202f69,right,-1,0.95,0.35,3,0.014957138,0.525,45,0,45,0,1,,,,,,,,,,
,,578137,001,2023-07-31_16h06.37.936,arm3_q,2022.2.5,Win32,120.9043646,6167eea0a4fd7219518e8a16,64c5699dae067f1f1081742c,64c7cdeb220bc99d1f202f69,down,-1,0.95,0.35,4,0,0.8348,46,0,46,0,1,,,,,,,,,,
,,578137,001,2023-07-31_16h06.37.936,arm3_q,2022.2.5,Win32,120.9043646,6167eea0a4fd7219518e8a16,64c5699dae067f1f1081742c,64c7cdeb220bc99d1f202f69,right,-1,0.95,0.35,4,-0.021609632,1.4321,47,0,47,0,1,,,,,,,,,,
,,578137,001,2023-07-31_16h06.37.936,arm3_q,2022.2.5,Win32,120.9043646,6167eea0a4fd7219518e8a16,64c5699dae067f1f1081742c,64c7cdeb220bc99d1f202f69,down,-1,0.95,0.35,5,0,1.017,48,0,48,0,1,,,,,,,,,,
,,578137,001,2023-07-31_16h06.37.936,arm3_q,2022.2.5,Win32,120.9043646,6167eea0a4fd7219518e8a16,64c5699dae067f1f1081742c,64c7cdeb220bc99d1f202f69,right,-1,0.95,0.35,5,0.015455357,1.3335,49,0,49,0,1,,,,,,,,,,
space,10.0206,578137,001,2023-07-31_16h06.37.936,arm3_q,2022.2.5,Win32,120.9043646,6167eea0a4fd7219518e8a16,64c5699dae067f1f1081742c,64c7cdeb220bc99d1f202f69,,,,,,,,,,,,,,,,,,,,,,
space,0.7418,578137,001,2023-07-31_16h06.37.936,arm3_q,2022.2.5,Win32,120.9043646,6167eea0a4fd7219518e8a16,64c5699dae067f1f1081742c,64c7cdeb220bc99d1f202f69,,,,,,,,,,,,,,,,,,,,,,
,,578137,001,2023-07-31_16h06.37.936,arm3_q,2022.2.5,Win32,120.9043646,6167eea0a4fd7219518e8a16,64c5699dae067f1f1081742c,64c7cdeb220bc99d1f202f69,right,-1,0.05,0.35,0,-0.00811257,1.4104,0,0,0,0,1,,,,,,,,,,
,,578137,001,2023-07-31_16h06.37.936,arm3_q,2022.2.5,Win32,120.9043646,6167eea0a4fd7219518e8a16,64c5699dae067f1f1081742c,64c7cdeb220bc99d1f202f69,right,-1,0.05,0.35,0,-0.006348116,1.2004,1,0,1,0,1,,,,,,,,,,
,,578137,001,2023-07-31_16h06.37.936,arm3_q,2022.2.5,Win32,120.9043646,6167eea0a4fd7219518e8a16,64c5699dae067f1f1081742c,64c7cdeb220bc99d1f202f69,down,-1,0.05,0.35,0,0,0.8602,2,0,2,0,1,,,,,,,,,,
,,578137,001,2023-07-31_16h06.37.936,arm3_q,2022.2.5,Win32,120.9043646,6167eea0a4fd7219518e8a16,64c5699dae067f1f1081742c,64c7cdeb220bc99d1f202f69,right,-1,0.05,0.35,0,-0.007879707,0.6324,3,0,3,0,1,,,,,,,,,,
,,578137,001,2023-07-31_16h06.37.936,arm3_q,2022.2.5,Win32,120.9043646,6167eea0a4fd7219518e8a16,64c5699dae067f1f1081742c,64c7cdeb220bc99d1f202f69,right,-1,0.05,0.35,0,-0.021497888,0.4331,4,0,4,0,1,,,,,,,,,,
,,578137,001,2023-07-31_16h06.37.936,arm3_q,2022.2.5,Win32,120.9043646,6167eea0a4fd7219518e8a16,64c5699dae067f1f1081742c,64c7cdeb220bc99d1f202f69,down,-1,0.05,0.35,0,0,0.5414,5,0,5,0,1,,,,,,,,,,
,,578137,001,2023-07-31_16h06.37.936,arm3_q,2022.2.5,Win32,120.9043646,6167eea0a4fd7219518e8a16,64c5699dae067f1f1081742c,64c7cdeb220bc99d1f202f69,right,-1,0.05,0.35,0,-0.025079149,0.4974,6,0,6,0,1,,,,,,,,,,
,,578137,001,2023-07-31_16h06.37.936,arm3_q,2022.2.5,Win32,120.9043646,6167eea0a4fd7219518e8a16,64c5699dae067f1f1081742c,64c7cdeb220bc99d1f202f69,right,-1,0.05,0.35,0,-0.063378796,0.5409,7,0,7,0,1,,,,,,,,,,
,,578137,001,2023-07-31_16h06.37.936,arm3_q,2022.2.5,Win32,120.9043646,6167eea0a4fd7219518e8a16,64c5699dae067f1f1081742c,64c7cdeb220bc99d1f202f69,down,1,0.05,0.35,0,0,1.0249,8,0,8,0,1,,,,,,,,,,
,,578137,001,2023-07-31_16h06.37.936,arm3_q,2022.2.5,Win32,120.9043646,6167eea0a4fd7219518e8a16,64c5699dae067f1f1081742c,64c7cdeb220bc99d1f202f69,right,1,0.05,0.35,0,0.000945452,0.4259,9,0,9,0,1,,,,,,,,,,
,,578137,001,2023-07-31_16h06.37.936,arm3_q,2022.2.5,Win32,120.9043646,6167eea0a4fd7219518e8a16,64c5699dae067f1f1081742c,64c7cdeb220bc99d1f202f69,right,1,0.05,0.35,0,0.015982819,0.4247,10,0,10,0,1,,,,,,,,,,
,,578137,001,2023-07-31_16h06.37.936,arm3_q,2022.2.5,Win32,120.9043646,6167eea0a4fd7219518e8a16,64c5699dae067f1f1081742c,64c7cdeb220bc99d1f202f69,right,1,0.05,0.35,0,0.013910229,0.7581,11,0,11,0,1,,,,,,,,,,
,,578137,001,2023-07-31_16h06.37.936,arm3_q,2022.2.5,Win32,120.9043646,6167eea0a4fd7219518e8a16,64c5699dae067f1f1081742c,64c7cdeb220bc99d1f202f69,up,-1,0.05,0.35,0,0,0.533,12,0,12,0,1,,,,,,,,,,
,,578137,001,2023-07-31_16h06.37.936,arm3_q,2022.2.5,Win32,120.9043646,6167eea0a4fd7219518e8a16,64c5699dae067f1f1081742c,64c7cdeb220bc99d1f202f69,right,-1,0.05,0.35,0,-0.013012677,0.5234,13,0,13,0,1,,,,,,,,,,
,,578137,001,2023-07-31_16h06.37.936,arm3_q,2022.2.5,Win32,120.9043646,6167eea0a4fd7219518e8a16,64c5699dae067f1f1081742c,64c7cdeb220bc99d1f202f69,right,-1,0.05,0.35,0,-0.017633132,0.4583,14,0,14,0,1,,,,,,,,,,
,,578137,001,2023-07-31_16h06.37.936,arm3_q,2022.2.5,Win32,120.9043646,6167eea0a4fd7219518e8a16,64c5699dae067f1f1081742c,64c7cdeb220bc99d1f202f69,right,-1,0.05,0.35,0,-0.013591122,0.9677,15,0,15,0,1,,,,,,,,,,
,,578137,001,2023-07-31_16h06.37.936,arm3_q,2022.2.5,Win32,120.9043646,6167eea0a4fd7219518e8a16,64c5699dae067f1f1081742c,64c7cdeb220bc99d1f202f69,right,-1,0.05,0.35,0,-0.013583937,3.2749,16,0,16,0,1,,,,,,,,,,
,,578137,001,2023-07-31_16h06.37.936,arm3_q,2022.2.5,Win32,120.9043646,6167eea0a4fd7219518e8a16,64c5699dae067f1f1081742c,64c7cdeb220bc99d1f202f69,down,-1,0.05,0.35,0,0,0.4998,17,0,17,0,1,,,,,,,,,,
,,578137,001,2023-07-31_16h06.37.936,arm3_q,2022.2.5,Win32,120.9043646,6167eea0a4fd7219518e8a16,64c5699dae067f1f1081742c,64c7cdeb220bc99d1f202f69,right,-1,0.05,0.35,0,0.002101866,0.3977,18,0,18,0,1,,,,,,,,,,
,,578137,001,2023-07-31_16h06.37.936,arm3_q,2022.2.5,Win32,120.9043646,6167eea0a4fd7219518e8a16,64c5699dae067f1f1081742c,64c7cdeb220bc99d1f202f69,right,-1,0.05,0.35,0,-0.021268104,0.4082,19,0,19,0,1,,,,,,,,,,
,,578137,001,2023-07-31_16h06.37.936,arm3_q,2022.2.5,Win32,120.9043646,6167eea0a4fd7219518e8a16,64c5699dae067f1f1081742c,64c7cdeb220bc99d1f202f69,down,-1,0.05,0.35,0,0,0.7333,20,0,20,0,1,,,,,,,,,,
,,578137,001,2023-07-31_16h06.37.936,arm3_q,2022.2.5,Win32,120.9043646,6167eea0a4fd7219518e8a16,64c5699dae067f1f1081742c,64c7cdeb220bc99d1f202f69,right,-1,0.05,0.35,0,-0.011781412,0.3727,21,0,21,0,1,,,,,,,,,,
,,578137,001,2023-07-31_16h06.37.936,arm3_q,2022.2.5,Win32,120.9043646,6167eea0a4fd7219518e8a16,64c5699dae067f1f1081742c,64c7cdeb220bc99d1f202f69,right,-1,0.05,0.35,0,0.017134959,0.4416,22,0,22,0,1,,,,,,,,,,
,,578137,001,2023-07-31_16h06.37.936,arm3_q,2022.2.5,Win32,120.9043646,6167eea0a4fd7219518e8a16,64c5699dae067f1f1081742c,64c7cdeb220bc99d1f202f69,up,-1,0.05,0.35,0,0,0.7917,23,0,23,0,1,,,,,,,,,,
,,578137,001,2023-07-31_16h06.37.936,arm3_q,2022.2.5,Win32,120.9043646,6167eea0a4fd7219518e8a16,64c5699dae067f1f1081742c,64c7cdeb220bc99d1f202f69,right,-1,0.05,0.35,0,0.025567997,0.3825,24,0,24,0,1,,,,,,,,,,
,,578137,001,2023-07-31_16h06.37.936,arm3_q,2022.2.5,Win32,120.9043646,6167eea0a4fd7219518e8a16,64c5699dae067f1f1081742c,64c7cdeb220bc99d1f202f69,right,-1,0.05,0.35,0,0.011014409,0.4105,25,0,25,0,1,,,,,,,,,,
,,578137,001,2023-07-31_16h06.37.936,arm3_q,2022.2.5,Win32,120.9043646,6167eea0a4fd7219518e8a16,64c5699dae067f1f1081742c,64c7cdeb220bc99d1f202f69,right,-1,0.05,0.35,0,-0.027650583,0.3846,26,0,26,0,1,,,,,,,,,,
,,578137,001,2023-07-31_16h06.37.936,arm3_q,2022.2.5,Win32,120.9043646,6167eea0a4fd7219518e8a16,64c5699dae067f1f1081742c,64c7cdeb220bc99d1f202f69,down,-1,0.05,0.35,0,0,0.4418,27,0,27,0,1,,,,,,,,,,
,,578137,001,2023-07-31_16h06.37.936,arm3_q,2022.2.5,Win32,120.9043646,6167eea0a4fd7219518e8a16,64c5699dae067f1f1081742c,64c7cdeb220bc99d1f202f69,right,-1,0.05,0.35,0,-0.005343115,0.4233,28,0,28,0,1,,,,,,,,,,
,,578137,001,2023-07-31_16h06.37.936,arm3_q,2022.2.5,Win32,120.9043646,6167eea0a4fd7219518e8a16,64c5699dae067f1f1081742c,64c7cdeb220bc99d1f202f69,right,-1,0.05,0.35,0,-0.003877235,0.3334,29,0,29,0,1,,,,,,,,,,
,,578137,001,2023-07-31_16h06.37.936,arm3_q,2022.2.5,Win32,120.9043646,6167eea0a4fd7219518e8a16,64c5699dae067f1f1081742c,64c7cdeb220bc99d1f202f69,right,-1,0.05,0.35,0,0.000852117,0.7013,30,0,30,0,1,,,,,,,,,,
,,578137,001,2023-07-31_16h06.37.936,arm3_q,2022.2.5,Win32,120.9043646,6167eea0a4fd7219518e8a16,64c5699dae067f1f1081742c,64c7cdeb220bc99d1f202f69,right,-1,0.05,0.35,0,-0.004178975,0.4834,31,0,31,0,1,,,,,,,,,,
,,578137,001,2023-07-31_16h06.37.936,arm3_q,2022.2.5,Win32,120.9043646,6167eea0a4fd7219518e8a16,64c5699dae067f1f1081742c,64c7cdeb220bc99d1f202f69,down,-1,0.05,0.35,0,0,0.5525,32,0,32,0,1,,,,,,,,,,
,,578137,001,2023-07-31_16h06.37.936,arm3_q,2022.2.5,Win32,120.9043646,6167eea0a4fd7219518e8a16,64c5699dae067f1f1081742c,64c7cdeb220bc99d1f202f69,right,-1,0.05,0.35,0,-0.047684348,0.3398,33,0,33,0,1,,,,,,,,,,
,,578137,001,2023-07-31_16h06.37.936,arm3_q,2022.2.5,Win32,120.9043646,6167eea0a4fd7219518e8a16,64c5699dae067f1f1081742c,64c7cdeb220bc99d1f202f69,right,-1,0.05,0.35,0,-0.046625227,0.2587,34,0,34,0,1,,,,,,,,,,
,,578137,001,2023-07-31_16h06.37.936,arm3_q,2022.2.5,Win32,120.9043646,6167eea0a4fd7219518e8a16,64c5699dae067f1f1081742c,64c7cdeb220bc99d1f202f69,right,-1,0.05,0.35,0,-0.078522358,0.5014,35,0,35,0,1,,,,,,,,,,
,,578137,001,2023-07-31_16h06.37.936,arm3_q,2022.2.5,Win32,120.9043646,6167eea0a4fd7219518e8a16,64c5699dae067f1f1081742c,64c7cdeb220bc99d1f202f69,down,1,0.05,0.35,0,0,0.8334,36,0,36,0,1,,,,,,,,,,
,,578137,001,2023-07-31_16h06.37.936,arm3_q,2022.2.5,Win32,120.9043646,6167eea0a4fd7219518e8a16,64c5699dae067f1f1081742c,64c7cdeb220bc99d1f202f69,right,1,0.05,0.35,0,0.044556259,0.4157,37,0,37,0,1,,,,,,,,,,
,,578137,001,2023-07-31_16h06.37.936,arm3_q,2022.2.5,Win32,120.9043646,6167eea0a4fd7219518e8a16,64c5699dae067f1f1081742c,64c7cdeb220bc99d1f202f69,right,1,0.05,0.35,0,0.055031335,0.3916,38,0,38,0,1,,,,,,,,,,
,,578137,001,2023-07-31_16h06.37.936,arm3_q,2022.2.5,Win32,120.9043646,6167eea0a4fd7219518e8a16,64c5699dae067f1f1081742c,64c7cdeb220bc99d1f202f69,right,1,0.05,0.35,0,0.079877607,0.4927,39,0,39,0,1,,,,,,,,,,
,,578137,001,2023-07-31_16h06.37.936,arm3_q,2022.2.5,Win32,120.9043646,6167eea0a4fd7219518e8a16,64c5699dae067f1f1081742c,64c7cdeb220bc99d1f202f69,up,1,0.05,0.35,0,0,0.3686,40,0,40,0,1,,,,,,,,,,
,,578137,001,2023-07-31_16h06.37.936,arm3_q,2022.2.5,Win32,120.9043646,6167eea0a4fd7219518e8a16,64c5699dae067f1f1081742c,64c7cdeb220bc99d1f202f69,right,1,0.05,0.35,0,-0.001173765,0.3892,41,0,41,0,1,,,,,,,,,,
,,578137,001,2023-07-31_16h06.37.936,arm3_q,2022.2.5,Win32,120.9043646,6167eea0a4fd7219518e8a16,64c5699dae067f1f1081742c,64c7cdeb220bc99d1f202f69,right,1,0.05,0.35,0,-0.009807845,0.2927,42,0,42,0,1,,,,,,,,,,
,,578137,001,2023-07-31_16h06.37.936,arm3_q,2022.2.5,Win32,120.9043646,6167eea0a4fd7219518e8a16,64c5699dae067f1f1081742c,64c7cdeb220bc99d1f202f69,right,1,0.05,0.35,0,-0.009425597,0.2753,43,0,43,0,1,,,,,,,,,,
,,578137,001,2023-07-31_16h06.37.936,arm3_q,2022.2.5,Win32,120.9043646,6167eea0a4fd7219518e8a16,64c5699dae067f1f1081742c,64c7cdeb220bc99d1f202f69,down,1,0.05,0.35,0,0,0.5763,44,0,44,0,1,,,,,,,,,,
,,578137,001,2023-07-31_16h06.37.936,arm3_q,2022.2.5,Win32,120.9043646,6167eea0a4fd7219518e8a16,64c5699dae067f1f1081742c,64c7cdeb220bc99d1f202f69,right,1,0.05,0.35,0,0.031133229,0.3811,45,0,45,0,1,,,,,,,,,,
,,578137,001,2023-07-31_16h06.37.936,arm3_q,2022.2.5,Win32,120.9043646,6167eea0a4fd7219518e8a16,64c5699dae067f1f1081742c,64c7cdeb220bc99d1f202f69,right,1,0.05,0.35,0,0.044260476,0.2751,46,0,46,0,1,,,,,,,,,,
,,578137,001,2023-07-31_16h06.37.936,arm3_q,2022.2.5,Win32,120.9043646,6167eea0a4fd7219518e8a16,64c5699dae067f1f1081742c,64c7cdeb220bc99d1f202f69,up,-1,0.05,0.35,0,0,0.9331,47,0,47,0,1,,,,,,,,,,
,,578137,001,2023-07-31_16h06.37.936,arm3_q,2022.2.5,Win32,120.9043646,6167eea0a4fd7219518e8a16,64c5699dae067f1f1081742c,64c7cdeb220bc99d1f202f69,right,-1,0.05,0.35,0,-0.031773969,0.4304,48,0,48,0,1,,,,,,,,,,
,,578137,001,2023-07-31_16h06.37.936,arm3_q,2022.2.5,Win32,120.9043646,6167eea0a4fd7219518e8a16,64c5699dae067f1f1081742c,64c7cdeb220bc99d1f202f69,right,-1,0.05,0.35,0,-0.016492378,0.4436,49,0,49,0,1,,,,,,,,,,
space,1.2318,578137,001,2023-07-31_16h06.37.936,arm3_q,2022.2.5,Win32,120.9043646,6167eea0a4fd7219518e8a16,64c5699dae067f1f1081742c,64c7cdeb220bc99d1f202f69,,,,,,,,,,,,,,,,,,,,,,
space,2.2169,578137,001,2023-07-31_16h06.37.936,arm3_q,2022.2.5,Win32,120.9043646,6167eea0a4fd7219518e8a16,64c5699dae067f1f1081742c,64c7cdeb220bc99d1f202f69,right,-1,0.6929,0.35,0,0.005399535,1.0222,,,,,,0,0,0,0,1,,,,,
,,578137,001,2023-07-31_16h06.37.936,arm3_q,2022.2.5,Win32,120.9043646,6167eea0a4fd7219518e8a16,64c5699dae067f1f1081742c,64c7cdeb220bc99d1f202f69,right,-1,0.6929,0.35,0,0.024373542,0.6829,,,,,,1,0,1,0,1,,,,,
,,578137,001,2023-07-31_16h06.37.936,arm3_q,2022.2.5,Win32,120.9043646,6167eea0a4fd7219518e8a16,64c5699dae067f1f1081742c,64c7cdeb220bc99d1f202f69,right,-1,0.6929,0.35,0,0.008189428,0.8166,,,,,,2,0,2,0,1,,,,,
,,578137,001,2023-07-31_16h06.37.936,arm3_q,2022.2.5,Win32,120.9043646,6167eea0a4fd7219518e8a16,64c5699dae067f1f1081742c,64c7cdeb220bc99d1f202f69,right,-1,0.6929,0.35,0,-0.005602669,0.5166,,,,,,3,0,3,0,1,,,,,
,,578137,001,2023-07-31_16h06.37.936,arm3_q,2022.2.5,Win32,120.9043646,6167eea0a4fd7219518e8a16,64c5699dae067f1f1081742c,64c7cdeb220bc99d1f202f69,down,-1,0.6929,0.35,1,0,0.5768,,,,,,4,0,4,0,1,,,,,
,,578137,001,2023-07-31_16h06.37.936,arm3_q,2022.2.5,Win32,120.9043646,6167eea0a4fd7219518e8a16,64c5699dae067f1f1081742c,64c7cdeb220bc99d1f202f69,right,-1,0.6929,0.35,1,0.009672943,0.3809,,,,,,5,0,5,0,1,,,,,
,,578137,001,2023-07-31_16h06.37.936,arm3_q,2022.2.5,Win32,120.9043646,6167eea0a4fd7219518e8a16,64c5699dae067f1f1081742c,64c7cdeb220bc99d1f202f69,right,-1,0.6929,0.35,1,-0.012158311,0.4491,,,,,,6,0,6,0,1,,,,,
,,578137,001,2023-07-31_16h06.37.936,arm3_q,2022.2.5,Win32,120.9043646,6167eea0a4fd7219518e8a16,64c5699dae067f1f1081742c,64c7cdeb220bc99d1f202f69,right,-1,0.6929,0.35,1,-0.030133306,0.4778,,,,,,7,0,7,0,1,,,,,
,,578137,001,2023-07-31_16h06.37.936,arm3_q,2022.2.5,Win32,120.9043646,6167eea0a4fd7219518e8a16,64c5699dae067f1f1081742c,64c7cdeb220bc99d1f202f69,down,-1,0.6929,0.35,2,0,0.5665,,,,,,8,0,8,0,1,,,,,
,,578137,001,2023-07-31_16h06.37.936,arm3_q,2022.2.5,Win32,120.9043646,6167eea0a4fd7219518e8a16,64c5699dae067f1f1081742c,64c7cdeb220bc99d1f202f69,right,-1,0.6929,0.35,2,0.019736862,0.3561,,,,,,9,0,9,0,1,,,,,
,,578137,001,2023-07-31_16h06.37.936,arm3_q,2022.2.5,Win32,120.9043646,6167eea0a4fd7219518e8a16,64c5699dae067f1f1081742c,64c7cdeb220bc99d1f202f69,right,-1,0.6929,0.35,2,0.041760504,0.4086,,,,,,10,0,10,0,1,,,,,
,,578137,001,2023-07-31_16h06.37.936,arm3_q,2022.2.5,Win32,120.9043646,6167eea0a4fd7219518e8a16,64c5699dae067f1f1081742c,64c7cdeb220bc99d1f202f69,right,-1,0.6929,0.35,2,0.031955128,0.3916,,,,,,11,0,11,0,1,,,,,
,,578137,001,2023-07-31_16h06.37.936,arm3_q,2022.2.5,Win32,120.9043646,6167eea0a4fd7219518e8a16,64c5699dae067f1f1081742c,64c7cdeb220bc99d1f202f69,right,-1,0.6929,0.35,2,0.000126175,0.3497,,,,,,12,0,12,0,1,,,,,
,,578137,001,2023-07-31_16h06.37.936,arm3_q,2022.2.5,Win32,120.9043646,6167eea0a4fd7219518e8a16,64c5699dae067f1f1081742c,64c7cdeb220bc99d1f202f69,right,-1,0.6929,0.35,2,-0.001589968,0.55,,,,,,13,0,13,0,1,,,,,
,,578137,001,2023-07-31_16h06.37.936,arm3_q,2022.2.5,Win32,120.9043646,6167eea0a4fd7219518e8a16,64c5699dae067f1f1081742c,64c7cdeb220bc99d1f202f69,up,-1,0.6929,0.35,1,0,0.5753,,,,,,14,0,14,0,1,,,,,
,,578137,001,2023-07-31_16h06.37.936,arm3_q,2022.2.5,Win32,120.9043646,6167eea0a4fd7219518e8a16,64c5699dae067f1f1081742c,64c7cdeb220bc99d1f202f69,right,-1,0.6929,0.35,1,-0.019746757,0.4647,,,,,,15,0,15,0,1,,,,,
,,578137,001,2023-07-31_16h06.37.936,arm3_q,2022.2.5,Win32,120.9043646,6167eea0a4fd7219518e8a16,64c5699dae067f1f1081742c,64c7cdeb220bc99d1f202f69,right,-1,0.6929,0.35,1,-0.033683068,0.4075,,,,,,16,0,16,0,1,,,,,
,,578137,001,2023-07-31_16h06.37.936,arm3_q,2022.2.5,Win32,120.9043646,6167eea0a4fd7219518e8a16,64c5699dae067f1f1081742c,64c7cdeb220bc99d1f202f69,right,-1,0.6929,0.35,1,-0.064083355,0.5026,,,,,,17,0,17,0,1,,,,,
,,578137,001,2023-07-31_16h06.37.936,arm3_q,2022.2.5,Win32,120.9043646,6167eea0a4fd7219518e8a16,64c5699dae067f1f1081742c,64c7cdeb220bc99d1f202f69,down,-1,0.6929,0.35,2,0,0.7519,,,,,,18,0,18,0,1,,,,,
,,578137,001,2023-07-31_16h06.37.936,arm3_q,2022.2.5,Win32,120.9043646,6167eea0a4fd7219518e8a16,64c5699dae067f1f1081742c,64c7cdeb220bc99d1f202f69,right,-1,0.6929,0.35,2,-0.034602517,0.3482,,,,,,19,0,19,0,1,,,,,
,,578137,001,2023-07-31_16h06.37.936,arm3_q,2022.2.5,Win32,120.9043646,6167eea0a4fd7219518e8a16,64c5699dae067f1f1081742c,64c7cdeb220bc99d1f202f69,right,-1,0.6929,0.35,2,0.008895717,0.4259,,,,,,20,0,20,0,1,,,,,
,,578137,001,2023-07-31_16h06.37.936,arm3_q,2022.2.5,Win32,120.9043646,6167eea0a4fd7219518e8a16,64c5699dae067f1f1081742c,64c7cdeb220bc99d1f202f69,up,1,0.6929,0.35,1,0,1.0666,,,,,,21,0,21,0,1,,,,,
,,578137,001,2023-07-31_16h06.37.936,arm3_q,2022.2.5,Win32,120.9043646,6167eea0a4fd7219518e8a16,64c5699dae067f1f1081742c,64c7cdeb220bc99d1f202f69,right,1,0.6929,0.35,1,0.009822644,0.4393,,,,,,22,0,22,0,1,,,,,
,,578137,001,2023-07-31_16h06.37.936,arm3_q,2022.2.5,Win32,120.9043646,6167eea0a4fd7219518e8a16,64c5699dae067f1f1081742c,64c7cdeb220bc99d1f202f69,right,1,0.6929,0.35,1,0.027828441,0.425,,,,,,23,0,23,0,1,,,,,
,,578137,001,2023-07-31_16h06.37.936,arm3_q,2022.2.5,Win32,120.9043646,6167eea0a4fd7219518e8a16,64c5699dae067f1f1081742c,64c7cdeb220bc99d1f202f69,right,1,0.6929,0.35,1,0.051954822,0.4919,,,,,,24,0,24,0,1,,,,,
,,578137,001,2023-07-31_16h06.37.936,arm3_q,2022.2.5,Win32,120.9043646,6167eea0a4fd7219518e8a16,64c5699dae067f1f1081742c,64c7cdeb220bc99d1f202f69,right,1,0.6929,0.35,1,0.05888152,0.4501,,,,,,25,0,25,0,1,,,,,
,,578137,001,2023-07-31_16h06.37.936,arm3_q,2022.2.5,Win32,120.9043646,6167eea0a4fd7219518e8a16,64c5699dae067f1f1081742c,64c7cdeb220bc99d1f202f69,up,-1,0.6929,0.35,2,0,0.5249,,,,,,26,0,26,0,1,,,,,
,,578137,001,2023-07-31_16h06.37.936,arm3_q,2022.2.5,Win32,120.9043646,6167eea0a4fd7219518e8a16,64c5699dae067f1f1081742c,64c7cdeb220bc99d1f202f69,right,-1,0.6929,0.35,2,-0.002502221,0.4397,,,,,,27,0,27,0,1,,,,,
,,578137,001,2023-07-31_16h06.37.936,arm3_q,2022.2.5,Win32,120.9043646,6167eea0a4fd7219518e8a16,64c5699dae067f1f1081742c,64c7cdeb220bc99d1f202f69,right,-1,0.6929,0.35,2,0.007159278,0.5326,,,,,,28,0,28,0,1,,,,,
,,578137,001,2023-07-31_16h06.37.936,arm3_q,2022.2.5,Win32,120.9043646,6167eea0a4fd7219518e8a16,64c5699dae067f1f1081742c,64c7cdeb220bc99d1f202f69,down,-1,0.6929,0.35,3,0,2.3334,,,,,,29,0,29,0,1,,,,,
,,578137,001,2023-07-31_16h06.37.936,arm3_q,2022.2.5,Win32,120.9043646,6167eea0a4fd7219518e8a16,64c5699dae067f1f1081742c,64c7cdeb220bc99d1f202f69,right,-1,0.6929,0.35,3,0.000858719,0.3814,,,,,,30,0,30,0,1,,,,,
,,578137,001,2023-07-31_16h06.37.936,arm3_q,2022.2.5,Win32,120.9043646,6167eea0a4fd7219518e8a16,64c5699dae067f1f1081742c,64c7cdeb220bc99d1f202f69,right,-1,0.6929,0.35,3,0.006706954,0.4906,,,,,,31,0,31,0,1,,,,,
,,578137,001,2023-07-31_16h06.37.936,arm3_q,2022.2.5,Win32,120.9043646,6167eea0a4fd7219518e8a16,64c5699dae067f1f1081742c,64c7cdeb220bc99d1f202f69,right,-1,0.6929,0.35,3,-0.022345538,0.4914,,,,,,32,0,32,0,1,,,,,
,,578137,001,2023-07-31_16h06.37.936,arm3_q,2022.2.5,Win32,120.9043646,6167eea0a4fd7219518e8a16,64c5699dae067f1f1081742c,64c7cdeb220bc99d1f202f69,down,-1,0.6929,0.35,4,0,0.7338,,,,,,33,0,33,0,1,,,,,
,,578137,001,2023-07-31_16h06.37.936,arm3_q,2022.2.5,Win32,120.9043646,6167eea0a4fd7219518e8a16,64c5699dae067f1f1081742c,64c7cdeb220bc99d1f202f69,right,-1,0.6929,0.35,4,-0.035673483,1.676,,,,,,34,0,34,0,1,,,,,
,,578137,001,2023-07-31_16h06.37.936,arm3_q,2022.2.5,Win32,120.9043646,6167eea0a4fd7219518e8a16,64c5699dae067f1f1081742c,64c7cdeb220bc99d1f202f69,right,-1,0.6929,0.35,4,-0.028721948,0.4522,,,,,,35,0,35,0,1,,,,,
,,578137,001,2023-07-31_16h06.37.936,arm3_q,2022.2.5,Win32,120.9043646,6167eea0a4fd7219518e8a16,64c5699dae067f1f1081742c,64c7cdeb220bc99d1f202f69,right,-1,0.6929,0.35,4,-0.029549137,0.8582,,,,,,36,0,36,0,1,,,,,
,,578137,001,2023-07-31_16h06.37.936,arm3_q,2022.2.5,Win32,120.9043646,6167eea0a4fd7219518e8a16,64c5699dae067f1f1081742c,64c7cdeb220bc99d1f202f69,down,1,0.6929,0.35,5,0,0.6758,,,,,,37,0,37,0,1,,,,,
,,578137,001,2023-07-31_16h06.37.936,arm3_q,2022.2.5,Win32,120.9043646,6167eea0a4fd7219518e8a16,64c5699dae067f1f1081742c,64c7cdeb220bc99d1f202f69,right,1,0.6929,0.35,5,0.02368719,0.7738,,,,,,38,0,38,0,1,,,,,
,,578137,001,2023-07-31_16h06.37.936,arm3_q,2022.2.5,Win32,120.9043646,6167eea0a4fd7219518e8a16,64c5699dae067f1f1081742c,64c7cdeb220bc99d1f202f69,right,1,0.6929,0.35,5,0.052252821,0.6663,,,,,,39,0,39,0,1,,,,,
,,578137,001,2023-07-31_16h06.37.936,arm3_q,2022.2.5,Win32,120.9043646,6167eea0a4fd7219518e8a16,64c5699dae067f1f1081742c,64c7cdeb220bc99d1f202f69,up,-1,0.6929,0.35,6,0,0.8082,,,,,,40,0,40,0,1,,,,,
,,578137,001,2023-07-31_16h06.37.936,arm3_q,2022.2.5,Win32,120.9043646,6167eea0a4fd7219518e8a16,64c5699dae067f1f1081742c,64c7cdeb220bc99d1f202f69,right,-1,0.6929,0.35,6,-0.025322413,0.7643,,,,,,41,0,41,0,1,,,,,
,,578137,001,2023-07-31_16h06.37.936,arm3_q,2022.2.5,Win32,120.9043646,6167eea0a4fd7219518e8a16,64c5699dae067f1f1081742c,64c7cdeb220bc99d1f202f69,down,1,0.6929,0.35,6,0,1.2916,,,,,,42,0,42,0,1,,,,,
,,578137,001,2023-07-31_16h06.37.936,arm3_q,2022.2.5,Win32,120.9043646,6167eea0a4fd7219518e8a16,64c5699dae067f1f1081742c,64c7cdeb220bc99d1f202f69,right,1,0.6929,0.35,6,-0.002400795,0.7984,,,,,,43,0,43,0,1,,,,,
,,578137,001,2023-07-31_16h06.37.936,arm3_q,2022.2.5,Win32,120.9043646,6167eea0a4fd7219518e8a16,64c5699dae067f1f1081742c,64c7cdeb220bc99d1f202f69,right,1,0.6929,0.35,6,-0.011889597,0.3749,,,,,,44,0,44,0,1,,,,,
,,578137,001,2023-07-31_16h06.37.936,arm3_q,2022.2.5,Win32,120.9043646,6167eea0a4fd7219518e8a16,64c5699dae067f1f1081742c,64c7cdeb220bc99d1f202f69,right,1,0.6929,0.35,6,0.017330568,0.5082,,,,,,45,0,45,0,1,,,,,
,,578137,001,2023-07-31_16h06.37.936,arm3_q,2022.2.5,Win32,120.9043646,6167eea0a4fd7219518e8a16,64c5699dae067f1f1081742c,64c7cdeb220bc99d1f202f69,down,1,0.6929,0.35,5,0,0.8916,,,,,,46,0,46,0,1,,,,,
,,578137,001,2023-07-31_16h06.37.936,arm3_q,2022.2.5,Win32,120.9043646,6167eea0a4fd7219518e8a16,64c5699dae067f1f1081742c,64c7cdeb220bc99d1f202f69,right,1,0.6929,0.35,5,-0.004165982,0.5148,,,,,,47,0,47,0,1,,,,,
,,578137,001,2023-07-31_16h06.37.936,arm3_q,2022.2.5,Win32,120.9043646,6167eea0a4fd7219518e8a16,64c5699dae067f1f1081742c,64c7cdeb220bc99d1f202f69,right,1,0.6929,0.35,5,0.006717391,0.4254,,,,,,48,0,48,0,1,,,,,
,,578137,001,2023-07-31_16h06.37.936,arm3_q,2022.2.5,Win32,120.9043646,6167eea0a4fd7219518e8a16,64c5699dae067f1f1081742c,64c7cdeb220bc99d1f202f69,right,1,0.6929,0.35,5,0.023127156,0.467,,,,,,49,0,49,0,1,,,,,
,,578137,001,2023-07-31_16h06.37.936,arm3_q,2022.2.5,Win32,120.9043646,6167eea0a4fd7219518e8a16,64c5699dae067f1f1081742c,64c7cdeb220bc99d1f202f69,up,1,0.6929,0.35,5,0,0.5998,,,,,,50,0,50,0,1,,,,,
,,578137,001,2023-07-31_16h06.37.936,arm3_q,2022.2.5,Win32,120.9043646,6167eea0a4fd7219518e8a16,64c5699dae067f1f1081742c,64c7cdeb220bc99d1f202f69,right,1,0.6929,0.35,5,-0.000286813,0.5342,,,,,,51,0,51,0,1,,,,,
,,578137,001,2023-07-31_16h06.37.936,arm3_q,2022.2.5,Win32,120.9043646,6167eea0a4fd7219518e8a16,64c5699dae067f1f1081742c,64c7cdeb220bc99d1f202f69,right,1,0.6929,0.35,5,-0.008165271,0.3772,,,,,,52,0,52,0,1,,,,,
,,578137,001,2023-07-31_16h06.37.936,arm3_q,2022.2.5,Win32,120.9043646,6167eea0a4fd7219518e8a16,64c5699dae067f1f1081742c,64c7cdeb220bc99d1f202f69,right,1,0.6929,0.35,5,0.024536326,0.625,,,,,,53,0,53,0,1,,,,,
,,578137,001,2023-07-31_16h06.37.936,arm3_q,2022.2.5,Win32,120.9043646,6167eea0a4fd7219518e8a16,64c5699dae067f1f1081742c,64c7cdeb220bc99d1f202f69,up,1,0.6929,0.35,5,0,0.8669,,,,,,54,0,54,0,1,,,,,
,,578137,001,2023-07-31_16h06.37.936,arm3_q,2022.2.5,Win32,120.9043646,6167eea0a4fd7219518e8a16,64c5699dae067f1f1081742c,64c7cdeb220bc99d1f202f69,right,1,0.6929,0.35,5,-0.013325385,0.5149,,,,,,55,0,55,0,1,,,,,
,,578137,001,2023-07-31_16h06.37.936,arm3_q,2022.2.5,Win32,120.9043646,6167eea0a4fd7219518e8a16,64c5699dae067f1f1081742c,64c7cdeb220bc99d1f202f69,right,1,0.6929,0.35,5,-0.011866474,0.3358,,,,,,56,0,56,0,1,,,,,
,,578137,001,2023-07-31_16h06.37.936,arm3_q,2022.2.5,Win32,120.9043646,6167eea0a4fd7219518e8a16,64c5699dae067f1f1081742c,64c7cdeb220bc99d1f202f69,right,1,0.6929,0.35,5,-0.027012031,0.5084,,,,,,57,0,57,0,1,,,,,
,,578137,001,2023-07-31_16h06.37.936,arm3_q,2022.2.5,Win32,120.9043646,6167eea0a4fd7219518e8a16,64c5699dae067f1f1081742c,64c7cdeb220bc99d1f202f69,down,1,0.6929,0.35,4,0,1.0998,,,,,,58,0,58,0,1,,,,,
,,578137,001,2023-07-31_16h06.37.936,arm3_q,2022.2.5,Win32,120.9043646,6167eea0a4fd7219518e8a16,64c5699dae067f1f1081742c,64c7cdeb220bc99d1f202f69,right,1,0.6929,0.35,4,-0.000182545,0.4163,,,,,,59,0,59,0,1,,,,,
,,578137,001,2023-07-31_16h06.37.936,arm3_q,2022.2.5,Win32,120.9043646,6167eea0a4fd7219518e8a16,64c5699dae067f1f1081742c,64c7cdeb220bc99d1f202f69,right,1,0.6929,0.35,4,-0.004871762,0.3908,,,,,,60,0,60,0,1,,,,,
,,578137,001,2023-07-31_16h06.37.936,arm3_q,2022.2.5,Win32,120.9043646,6167eea0a4fd7219518e8a16,64c5699dae067f1f1081742c,64c7cdeb220bc99d1f202f69,right,1,0.6929,0.35,4,0.050671844,1.0999,,,,,,61,0,61,0,1,,,,,
,,578137,001,2023-07-31_16h06.37.936,arm3_q,2022.2.5,Win32,120.9043646,6167eea0a4fd7219518e8a16,64c5699dae067f1f1081742c,64c7cdeb220bc99d1f202f69,up,1,0.6929,0.35,4,0,0.6587,,,,,,62,0,62,0,1,,,,,
,,578137,001,2023-07-31_16h06.37.936,arm3_q,2022.2.5,Win32,120.9043646,6167eea0a4fd7219518e8a16,64c5699dae067f1f1081742c,64c7cdeb220bc99d1f202f69,right,1,0.6929,0.35,4,0.015587182,0.4315,,,,,,63,0,63,0,1,,,,,
,,578137,001,2023-07-31_16h06.37.936,arm3_q,2022.2.5,Win32,120.9043646,6167eea0a4fd7219518e8a16,64c5699dae067f1f1081742c,64c7cdeb220bc99d1f202f69,right,1,0.6929,0.35,4,0.045920898,0.3937,,,,,,64,0,64,0,1,,,,,
,,578137,001,2023-07-31_16h06.37.936,arm3_q,2022.2.5,Win32,120.9043646,6167eea0a4fd7219518e8a16,64c5699dae067f1f1081742c,64c7cdeb220bc99d1f202f69,up,1,0.6929,0.35,5,0,0.7354,,,,,,65,0,65,0,1,,,,,
,,578137,001,2023-07-31_16h06.37.936,arm3_q,2022.2.5,Win32,120.9043646,6167eea0a4fd7219518e8a16,64c5699dae067f1f1081742c,64c7cdeb220bc99d1f202f69,right,1,0.6929,0.35,5,0.019307651,0.8749,,,,,,66,0,66,0,1,,,,,
,,578137,001,2023-07-31_16h06.37.936,arm3_q,2022.2.5,Win32,120.9043646,6167eea0a4fd7219518e8a16,64c5699dae067f1f1081742c,64c7cdeb220bc99d1f202f69,right,1,0.6929,0.35,5,0.052144551,0.5354,,,,,,67,0,67,0,1,,,,,
,,578137,001,2023-07-31_16h06.37.936,arm3_q,2022.2.5,Win32,120.9043646,6167eea0a4fd7219518e8a16,64c5699dae067f1f1081742c,64c7cdeb220bc99d1f202f69,up,1,0.6929,0.35,6,0,0.7501,,,,,,68,0,68,0,1,,,,,
,,578137,001,2023-07-31_16h06.37.936,arm3_q,2022.2.5,Win32,120.9043646,6167eea0a4fd7219518e8a16,64c5699dae067f1f1081742c,64c7cdeb220bc99d1f202f69,right,1,0.6929,0.35,6,0.007404639,0.3481,,,,,,69,0,69,0,1,,,,,
,,578137,001,2023-07-31_16h06.37.936,arm3_q,2022.2.5,Win32,120.9043646,6167eea0a4fd7219518e8a16,64c5699dae067f1f1081742c,64c7cdeb220bc99d1f202f69,right,1,0.6929,0.35,6,0.053663829,0.549,,,,,,70,0,70,0,1,,,,,
,,578137,001,2023-07-31_16h06.37.936,arm3_q,2022.2.5,Win32,120.9043646,6167eea0a4fd7219518e8a16,64c5699dae067f1f1081742c,64c7cdeb220bc99d1f202f69,up,1,0.6929,0.35,7,0,0.8333,,,,,,71,0,71,0,1,,,,,
,,578137,001,2023-07-31_16h06.37.936,arm3_q,2022.2.5,Win32,120.9043646,6167eea0a4fd7219518e8a16,64c5699dae067f1f1081742c,64c7cdeb220bc99d1f202f69,right,1,0.6929,0.35,7,0.003913569,0.4145,,,,,,72,0,72,0,1,,,,,
,,578137,001,2023-07-31_16h06.37.936,arm3_q,2022.2.5,Win32,120.9043646,6167eea0a4fd7219518e8a16,64c5699dae067f1f1081742c,64c7cdeb220bc99d1f202f69,right,1,0.6929,0.35,7,0.029119248,0.4513,,,,,,73,0,73,0,1,,,,,
,,578137,001,2023-07-31_16h06.37.936,arm3_q,2022.2.5,Win32,120.9043646,6167eea0a4fd7219518e8a16,64c5699dae067f1f1081742c,64c7cdeb220bc99d1f202f69,up,1,0.6929,0.35,8,0,0.6998,,,,,,74,0,74,0,1,,,,,
,,578137,001,2023-07-31_16h06.37.936,arm3_q,2022.2.5,Win32,120.9043646,6167eea0a4fd7219518e8a16,64c5699dae067f1f1081742c,64c7cdeb220bc99d1f202f69,right,1,0.6929,0.35,8,-0.001468699,0.6001,,,,,,75,0,75,0,1,,,,,
,,578137,001,2023-07-31_16h06.37.936,arm3_q,2022.2.5,Win32,120.9043646,6167eea0a4fd7219518e8a16,64c5699dae067f1f1081742c,64c7cdeb220bc99d1f202f69,right,1,0.6929,0.35,8,-0.018696107,0.4337,,,,,,76,0,76,0,1,,,,,
,,578137,001,2023-07-31_16h06.37.936,arm3_q,2022.2.5,Win32,120.9043646,6167eea0a4fd7219518e8a16,64c5699dae067f1f1081742c,64c7cdeb220bc99d1f202f69,right,1,0.6929,0.35,8,-0.035006286,1.0251,,,,,,77,0,77,0,1,,,,,
,,578137,001,2023-07-31_16h06.37.936,arm3_q,2022.2.5,Win32,120.9043646,6167eea0a4fd7219518e8a16,64c5699dae067f1f1081742c,64c7cdeb220bc99d1f202f69,right,1,0.6929,0.35,8,-0.018388493,0.4915,,,,,,78,0,78,0,1,,,,,
,,578137,001,2023-07-31_16h06.37.936,arm3_q,2022.2.5,Win32,120.9043646,6167eea0a4fd7219518e8a16,64c5699dae067f1f1081742c,64c7cdeb220bc99d1f202f69,up,1,0.6929,0.35,9,0,0.7164,,,,,,79,0,79,0,1,,,,,
,,578137,001,2023-07-31_16h06.37.936,arm3_q,2022.2.5,Win32,120.9043646,6167eea0a4fd7219518e8a16,64c5699dae067f1f1081742c,64c7cdeb220bc99d1f202f69,right,1,0.6929,0.35,9,0.014837894,0.5981,,,,,,80,0,80,0,1,,,,,
,,578137,001,2023-07-31_16h06.37.936,arm3_q,2022.2.5,Win32,120.9043646,6167eea0a4fd7219518e8a16,64c5699dae067f1f1081742c,64c7cdeb220bc99d1f202f69,right,1,0.6929,0.35,9,-0.021237652,0.475,,,,,,81,0,81,0,1,,,,,
,,578137,001,2023-07-31_16h06.37.936,arm3_q,2022.2.5,Win32,120.9043646,6167eea0a4fd7219518e8a16,64c5699dae067f1f1081742c,64c7cdeb220bc99d1f202f69,right,1,0.6929,0.35,9,-0.022130284,0.9348,,,,,,82,0,82,0,1,,,,,
,,578137,001,2023-07-31_16h06.37.936,arm3_q,2022.2.5,Win32,120.9043646,6167eea0a4fd7219518e8a16,64c5699dae067f1f1081742c,64c7cdeb220bc99d1f202f69,right,1,0.6929,0.35,9,-0.031130275,1.825,,,,,,83,0,83,0,1,,,,,
,,578137,001,2023-07-31_16h06.37.936,arm3_q,2022.2.5,Win32,120.9043646,6167eea0a4fd7219518e8a16,64c5699dae067f1f1081742c,64c7cdeb220bc99d1f202f69,right,1,0.6929,0.35,9,-0.004979972,0.7184,,,,,,84,0,84,0,1,,,,,
,,578137,001,2023-07-31_16h06.37.936,arm3_q,2022.2.5,Win32,120.9043646,6167eea0a4fd7219518e8a16,64c5699dae067f1f1081742c,64c7cdeb220bc99d1f202f69,up,-1,0.6929,0.35,10,0,0.5266,,,,,,85,0,85,0,1,,,,,
,,578137,001,2023-07-31_16h06.37.936,arm3_q,2022.2.5,Win32,120.9043646,6167eea0a4fd7219518e8a16,64c5699dae067f1f1081742c,64c7cdeb220bc99d1f202f69,right,-1,0.6929,0.35,10,-0.017655772,0.4058,,,,,,86,0,86,0,1,,,,,
,,578137,001,2023-07-31_16h06.37.936,arm3_q,2022.2.5,Win32,120.9043646,6167eea0a4fd7219518e8a16,64c5699dae067f1f1081742c,64c7cdeb220bc99d1f202f69,right,-1,0.6929,0.35,10,-0.049426014,0.4176,,,,,,87,0,87,0,1,,,,,
,,578137,001,2023-07-31_16h06.37.936,arm3_q,2022.2.5,Win32,120.9043646,6167eea0a4fd7219518e8a16,64c5699dae067f1f1081742c,64c7cdeb220bc99d1f202f69,right,-1,0.6929,0.35,10,-0.088775544,0.7667,,,,,,88,0,88,0,1,,,,,
,,578137,001,2023-07-31_16h06.37.936,arm3_q,2022.2.5,Win32,120.9043646,6167eea0a4fd7219518e8a16,64c5699dae067f1f1081742c,64c7cdeb220bc99d1f202f69,down,-1,0.6929,0.35,11,0,0.5019,,,,,,89,0,89,0,1,,,,,
,,578137,001,2023-07-31_16h06.37.936,arm3_q,2022.2.5,Win32,120.9043646,6167eea0a4fd7219518e8a16,64c5699dae067f1f1081742c,64c7cdeb220bc99d1f202f69,right,-1,0.6929,0.35,11,0.008404863,1.298,,,,,,90,0,90,0,1,,,,,
,,578137,001,2023-07-31_16h06.37.936,arm3_q,2022.2.5,Win32,120.9043646,6167eea0a4fd7219518e8a16,64c5699dae067f1f1081742c,64c7cdeb220bc99d1f202f69,right,-1,0.6929,0.35,11,-0.0195831,0.4998,,,,,,91,0,91,0,1,,,,,
,,578137,001,2023-07-31_16h06.37.936,arm3_q,2022.2.5,Win32,120.9043646,6167eea0a4fd7219518e8a16,64c5699dae067f1f1081742c,64c7cdeb220bc99d1f202f69,right,-1,0.6929,0.35,11,-0.031442676,0.5676,,,,,,92,0,92,0,1,,,,,
,,578137,001,2023-07-31_16h06.37.936,arm3_q,2022.2.5,Win32,120.9043646,6167eea0a4fd7219518e8a16,64c5699dae067f1f1081742c,64c7cdeb220bc99d1f202f69,down,1,0.6929,0.35,11,0,1.4929,,,,,,93,0,93,0,1,,,,,
,,578137,001,2023-07-31_16h06.37.936,arm3_q,2022.2.5,Win32,120.9043646,6167eea0a4fd7219518e8a16,64c5699dae067f1f1081742c,64c7cdeb220bc99d1f202f69,right,1,0.6929,0.35,11,0.026663966,0.4314,,,,,,94,0,94,0,1,,,,,
,,578137,001,2023-07-31_16h06.37.936,arm3_q,2022.2.5,Win32,120.9043646,6167eea0a4fd7219518e8a16,64c5699dae067f1f1081742c,64c7cdeb220bc99d1f202f69,right,1,0.6929,0.35,11,0.026716377,0.4414,,,,,,95,0,95,0,1,,,,,
,,578137,001,2023-07-31_16h06.37.936,arm3_q,2022.2.5,Win32,120.9043646,6167eea0a4fd7219518e8a16,64c5699dae067f1f1081742c,64c7cdeb220bc99d1f202f69,right,1,0.6929,0.35,11,0.024726686,0.9667,,,,,,96,0,96,0,1,,,,,
,,578137,001,2023-07-31_16h06.37.936,arm3_q,2022.2.5,Win32,120.9043646,6167eea0a4fd7219518e8a16,64c5699dae067f1f1081742c,64c7cdeb220bc99d1f202f69,up,-1,0.6929,0.35,11,0,0.8415,,,,,,97,0,97,0,1,,,,,
,,578137,001,2023-07-31_16h06.37.936,arm3_q,2022.2.5,Win32,120.9043646,6167eea0a4fd7219518e8a16,64c5699dae067f1f1081742c,64c7cdeb220bc99d1f202f69,right,-1,0.6929,0.35,11,0.027313702,0.4588,,,,,,98,0,98,0,1,,,,,
,,578137,001,2023-07-31_16h06.37.936,arm3_q,2022.2.5,Win32,120.9043646,6167eea0a4fd7219518e8a16,64c5699dae067f1f1081742c,64c7cdeb220bc99d1f202f69,right,-1,0.6929,0.35,11,0.016765463,0.3748,,,,,,99,0,99,0,1,,,,,
,,578137,001,2023-07-31_16h06.37.936,arm3_q,2022.2.5,Win32,120.9043646,6167eea0a4fd7219518e8a16,64c5699dae067f1f1081742c,64c7cdeb220bc99d1f202f69,right,-1,0.6929,0.35,11,0.025014594,0.9016,,,,,,100,0,100,0,1,,,,,
,,578137,001,2023-07-31_16h06.37.936,arm3_q,2022.2.5,Win32,120.9043646,6167eea0a4fd7219518e8a16,64c5699dae067f1f1081742c,64c7cdeb220bc99d1f202f69,right,-1,0.6929,0.35,11,0.01881431,0.6999,,,,,,101,0,101,0,1,,,,,
,,578137,001,2023-07-31_16h06.37.936,arm3_q,2022.2.5,Win32,120.9043646,6167eea0a4fd7219518e8a16,64c5699dae067f1f1081742c,64c7cdeb220bc99d1f202f69,right,-1,0.6929,0.35,11,0.010415294,0.5938,,,,,,102,0,102,0,1,,,,,
,,578137,001,2023-07-31_16h06.37.936,arm3_q,2022.2.5,Win32,120.9043646,6167eea0a4fd7219518e8a16,64c5699dae067f1f1081742c,64c7cdeb220bc99d1f202f69,up,-1,0.6929,0.35,11,0,0.5749,,,,,,103,0,103,0,1,,,,,
,,578137,001,2023-07-31_16h06.37.936,arm3_q,2022.2.5,Win32,120.9043646,6167eea0a4fd7219518e8a16,64c5699dae067f1f1081742c,64c7cdeb220bc99d1f202f69,right,-1,0.6929,0.35,11,0.019809852,0.4397,,,,,,104,0,104,0,1,,,,,
,,578137,001,2023-07-31_16h06.37.936,arm3_q,2022.2.5,Win32,120.9043646,6167eea0a4fd7219518e8a16,64c5699dae067f1f1081742c,64c7cdeb220bc99d1f202f69,right,-1,0.6929,0.35,11,0.009057307,0.4501,,,,,,105,0,105,0,1,,,,,
,,578137,001,2023-07-31_16h06.37.936,arm3_q,2022.2.5,Win32,120.9043646,6167eea0a4fd7219518e8a16,64c5699dae067f1f1081742c,64c7cdeb220bc99d1f202f69,right,-1,0.6929,0.35,11,-0.008632463,0.5332,,,,,,106,0,106,0,1,,,,,
,,578137,001,2023-07-31_16h06.37.936,arm3_q,2022.2.5,Win32,120.9043646,6167eea0a4fd7219518e8a16,64c5699dae067f1f1081742c,64c7cdeb220bc99d1f202f69,down,1,0.6929,0.35,12,0,0.3917,,,,,,107,0,107,0,1,,,,,
,,578137,001,2023-07-31_16h06.37.936,arm3_q,2022.2.5,Win32,120.9043646,6167eea0a4fd7219518e8a16,64c5699dae067f1f1081742c,64c7cdeb220bc99d1f202f69,right,1,0.6929,0.35,12,-0.011523728,0.5575,,,,,,108,0,108,0,1,,,,,
,,578137,001,2023-07-31_16h06.37.936,arm3_q,2022.2.5,Win32,120.9043646,6167eea0a4fd7219518e8a16,64c5699dae067f1f1081742c,64c7cdeb220bc99d1f202f69,right,1,0.6929,0.35,12,-0.001225207,0.3833,,,,,,109,0,109,0,1,,,,,
,,578137,001,2023-07-31_16h06.37.936,arm3_q,2022.2.5,Win32,120.9043646,6167eea0a4fd7219518e8a16,64c5699dae067f1f1081742c,64c7cdeb220bc99d1f202f69,up,1,0.6929,0.35,13,0,0.6442,,,,,,110,0,110,0,1,,,,,
,,578137,001,2023-07-31_16h06.37.936,arm3_q,2022.2.5,Win32,120.9043646,6167eea0a4fd7219518e8a16,64c5699dae067f1f1081742c,64c7cdeb220bc99d1f202f69,right,1,0.6929,0.35,13,0.007456012,0.34,,,,,,111,0,111,0,1,,,,,
,,578137,001,2023-07-31_16h06.37.936,arm3_q,2022.2.5,Win32,120.9043646,6167eea0a4fd7219518e8a16,64c5699dae067f1f1081742c,64c7cdeb220bc99d1f202f69,right,1,0.6929,0.35,13,0.009099336,0.3324,,,,,,112,0,112,0,1,,,,,
,,578137,001,2023-07-31_16h06.37.936,arm3_q,2022.2.5,Win32,120.9043646,6167eea0a4fd7219518e8a16,64c5699dae067f1f1081742c,64c7cdeb220bc99d1f202f69,right,1,0.6929,0.35,13,0.035545909,0.7334,,,,,,113,0,113,0,1,,,,,
,,578137,001,2023-07-31_16h06.37.936,arm3_q,2022.2.5,Win32,120.9043646,6167eea0a4fd7219518e8a16,64c5699dae067f1f1081742c,64c7cdeb220bc99d1f202f69,up,-1,0.6929,0.35,14,0,0.4667,,,,,,114,0,114,0,1,,,,,
,,578137,001,2023-07-31_16h06.37.936,arm3_q,2022.2.5,Win32,120.9043646,6167eea0a4fd7219518e8a16,64c5699dae067f1f1081742c,64c7cdeb220bc99d1f202f69,right,-1,0.6929,0.35,14,0.000216659,0.3483,,,,,,115,0,115,0,1,,,,,
,,578137,001,2023-07-31_16h06.37.936,arm3_q,2022.2.5,Win32,120.9043646,6167eea0a4fd7219518e8a16,64c5699dae067f1f1081742c,64c7cdeb220bc99d1f202f69,right,-1,0.6929,0.35,14,-0.000131319,0.3573,,,,,,116,0,116,0,1,,,,,
,,578137,001,2023-07-31_16h06.37.936,arm3_q,2022.2.5,Win32,120.9043646,6167eea0a4fd7219518e8a16,64c5699dae067f1f1081742c,64c7cdeb220bc99d1f202f69,right,-1,0.6929,0.35,14,-0.011603358,0.4583,,,,,,117,0,117,0,1,,,,,
,,578137,001,2023-07-31_16h06.37.936,arm3_q,2022.2.5,Win32,120.9043646,6167eea0a4fd7219518e8a16,64c5699dae067f1f1081742c,64c7cdeb220bc99d1f202f69,down,1,0.6929,0.35,15,0,0.4601,,,,,,118,0,118,0,1,,,,,
,,578137,001,2023-07-31_16h06.37.936,arm3_q,2022.2.5,Win32,120.9043646,6167eea0a4fd7219518e8a16,64c5699dae067f1f1081742c,64c7cdeb220bc99d1f202f69,right,1,0.6929,0.35,15,0.01610078,0.3999,,,,,,119,0,119,0,1,,,,,
,,578137,001,2023-07-31_16h06.37.936,arm3_q,2022.2.5,Win32,120.9043646,6167eea0a4fd7219518e8a16,64c5699dae067f1f1081742c,64c7cdeb220bc99d1f202f69,right,1,0.6929,0.35,15,0.047723175,0.3576,,,,,,120,0,120,0,1,,,,,
,,578137,001,2023-07-31_16h06.37.936,arm3_q,2022.2.5,Win32,120.9043646,6167eea0a4fd7219518e8a16,64c5699dae067f1f1081742c,64c7cdeb220bc99d1f202f69,up,1,0.6929,0.35,15,0,0.6424,,,,,,121,0,121,0,1,,,,,
,,578137,001,2023-07-31_16h06.37.936,arm3_q,2022.2.5,Win32,120.9043646,6167eea0a4fd7219518e8a16,64c5699dae067f1f1081742c,64c7cdeb220bc99d1f202f69,right,1,0.6929,0.35,15,0.02569928,0.4498,,,,,,122,0,122,0,1,,,,,
,,578137,001,2023-07-31_16h06.37.936,arm3_q,2022.2.5,Win32,120.9043646,6167eea0a4fd7219518e8a16,64c5699dae067f1f1081742c,64c7cdeb220bc99d1f202f69,right,1,0.6929,0.35,15,0.037833421,0.4166,,,,,,123,0,123,0,1,,,,,
,,578137,001,2023-07-31_16h06.37.936,arm3_q,2022.2.5,Win32,120.9043646,6167eea0a4fd7219518e8a16,64c5699dae067f1f1081742c,64c7cdeb220bc99d1f202f69,down,1,0.6929,0.35,14,0,1.4003,,,,,,124,0,124,0,1,,,,,
,,578137,001,2023-07-31_16h06.37.936,arm3_q,2022.2.5,Win32,120.9043646,6167eea0a4fd7219518e8a16,64c5699dae067f1f1081742c,64c7cdeb220bc99d1f202f69,right,1,0.6929,0.35,14,0.023459334,0.4145,,,,,,125,0,125,0,1,,,,,
,,578137,001,2023-07-31_16h06.37.936,arm3_q,2022.2.5,Win32,120.9043646,6167eea0a4fd7219518e8a16,64c5699dae067f1f1081742c,64c7cdeb220bc99d1f202f69,right,1,0.6929,0.35,14,0.103084075,0.3488,,,,,,126,0,126,0,1,,,,,
,,578137,001,2023-07-31_16h06.37.936,arm3_q,2022.2.5,Win32,120.9043646,6167eea0a4fd7219518e8a16,64c5699dae067f1f1081742c,64c7cdeb220bc99d1f202f69,right,1,0.6929,0.35,14,0.116214691,0.6109,,,,,,127,0,127,0,1,,,,,
,,578137,001,2023-07-31_16h06.37.936,arm3_q,2022.2.5,Win32,120.9043646,6167eea0a4fd7219518e8a16,64c5699dae067f1f1081742c,64c7cdeb220bc99d1f202f69,up,-1,0.6929,0.35,14,0,0.9667,,,,,,128,0,128,0,1,,,,,
,,578137,001,2023-07-31_16h06.37.936,arm3_q,2022.2.5,Win32,120.9043646,6167eea0a4fd7219518e8a16,64c5699dae067f1f1081742c,64c7cdeb220bc99d1f202f69,right,-1,0.6929,0.35,14,-0.011001461,0.4826,,,,,,129,0,129,0,1,,,,,
,,578137,001,2023-07-31_16h06.37.936,arm3_q,2022.2.5,Win32,120.9043646,6167eea0a4fd7219518e8a16,64c5699dae067f1f1081742c,64c7cdeb220bc99d1f202f69,right,-1,0.6929,0.35,14,-0.022369647,0.4327,,,,,,130,0,130,0,1,,,,,
,,578137,001,2023-07-31_16h06.37.936,arm3_q,2022.2.5,Win32,120.9043646,6167eea0a4fd7219518e8a16,64c5699dae067f1f1081742c,64c7cdeb220bc99d1f202f69,right,-1,0.6929,0.35,14,0.002963979,0.4581,,,,,,131,0,131,0,1,,,,,
,,578137,001,2023-07-31_16h06.37.936,arm3_q,2022.2.5,Win32,120.9043646,6167eea0a4fd7219518e8a16,64c5699dae067f1f1081742c,64c7cdeb220bc99d1f202f69,down,-1,0.6929,0.35,15,0,0.6582,,,,,,132,0,132,0,1,,,,,
,,578137,001,2023-07-31_16h06.37.936,arm3_q,2022.2.5,Win32,120.9043646,6167eea0a4fd7219518e8a16,64c5699dae067f1f1081742c,64c7cdeb220bc99d1f202f69,right,-1,0.6929,0.35,15,-0.019967088,0.3493,,,,,,133,0,133,0,1,,,,,
,,578137,001,2023-07-31_16h06.37.936,arm3_q,2022.2.5,Win32,120.9043646,6167eea0a4fd7219518e8a16,64c5699dae067f1f1081742c,64c7cdeb220bc99d1f202f69,right,-1,0.6929,0.35,15,-0.049145082,0.3988,,,,,,134,0,134,0,1,,,,,
,,578137,001,2023-07-31_16h06.37.936,arm3_q,2022.2.5,Win32,120.9043646,6167eea0a4fd7219518e8a16,64c5699dae067f1f1081742c,64c7cdeb220bc99d1f202f69,right,-1,0.6929,0.35,15,-0.062824786,0.4666,,,,,,135,0,135,0,1,,,,,
,,578137,001,2023-07-31_16h06.37.936,arm3_q,2022.2.5,Win32,120.9043646,6167eea0a4fd7219518e8a16,64c5699dae067f1f1081742c,64c7cdeb220bc99d1f202f69,down,1,0.6929,0.35,16,0,1.0664,,,,,,136,0,136,0,1,,,,,
,,578137,001,2023-07-31_16h06.37.936,arm3_q,2022.2.5,Win32,120.9043646,6167eea0a4fd7219518e8a16,64c5699dae067f1f1081742c,64c7cdeb220bc99d1f202f69,right,1,0.6929,0.35,16,0.020911898,0.3813,,,,,,137,0,137,0,1,,,,,
,,578137,001,2023-07-31_16h06.37.936,arm3_q,2022.2.5,Win32,120.9043646,6167eea0a4fd7219518e8a16,64c5699dae067f1f1081742c,64c7cdeb220bc99d1f202f69,right,1,0.6929,0.35,16,0.020902559,0.3845,,,,,,138,0,138,0,1,,,,,
,,578137,001,2023-07-31_16h06.37.936,arm3_q,2022.2.5,Win32,120.9043646,6167eea0a4fd7219518e8a16,64c5699dae067f1f1081742c,64c7cdeb220bc99d1f202f69,up,1,0.6929,0.35,16,0,0.758,,,,,,139,0,139,0,1,,,,,
,,578137,001,2023-07-31_16h06.37.936,arm3_q,2022.2.5,Win32,120.9043646,6167eea0a4fd7219518e8a16,64c5699dae067f1f1081742c,64c7cdeb220bc99d1f202f69,right,1,0.6929,0.35,16,0.011549285,0.4753,,,,,,140,0,140,0,1,,,,,
,,578137,001,2023-07-31_16h06.37.936,arm3_q,2022.2.5,Win32,120.9043646,6167eea0a4fd7219518e8a16,64c5699dae067f1f1081742c,64c7cdeb220bc99d1f202f69,right,1,0.6929,0.35,16,0.029958674,0.5083,,,,,,141,0,141,0,1,,,,,
,,578137,001,2023-07-31_16h06.37.936,arm3_q,2022.2.5,Win32,120.9043646,6167eea0a4fd7219518e8a16,64c5699dae067f1f1081742c,64c7cdeb220bc99d1f202f69,right,1,0.6929,0.35,16,0.027107044,1.1926,,,,,,142,0,142,0,1,,,,,
,,578137,001,2023-07-31_16h06.37.936,arm3_q,2022.2.5,Win32,120.9043646,6167eea0a4fd7219518e8a16,64c5699dae067f1f1081742c,64c7cdeb220bc99d1f202f69,up,-1,0.6929,0.35,17,0,0.6355,,,,,,143,0,143,0,1,,,,,
,,578137,001,2023-07-31_16h06.37.936,arm3_q,2022.2.5,Win32,120.9043646,6167eea0a4fd7219518e8a16,64c5699dae067f1f1081742c,64c7cdeb220bc99d1f202f69,right,-1,0.6929,0.35,17,-0.012340715,0.3565,,,,,,144,0,144,0,1,,,,,
,,578137,001,2023-07-31_16h06.37.936,arm3_q,2022.2.5,Win32,120.9043646,6167eea0a4fd7219518e8a16,64c5699dae067f1f1081742c,64c7cdeb220bc99d1f202f69,right,-1,0.6929,0.35,17,-0.034632731,0.425,,,,,,145,0,145,0,1,,,,,
,,578137,001,2023-07-31_16h06.37.936,arm3_q,2022.2.5,Win32,120.9043646,6167eea0a4fd7219518e8a16,64c5699dae067f1f1081742c,64c7cdeb220bc99d1f202f69,down,1,0.6929,0.35,18,0,0.6415,,,,,,146,0,146,0,1,,,,,
,,578137,001,2023-07-31_16h06.37.936,arm3_q,2022.2.5,Win32,120.9043646,6167eea0a4fd7219518e8a16,64c5699dae067f1f1081742c,64c7cdeb220bc99d1f202f69,right,1,0.6929,0.35,18,0.040888522,0.341,,,,,,147,0,147,0,1,,,,,
,,578137,001,2023-07-31_16h06.37.936,arm3_q,2022.2.5,Win32,120.9043646,6167eea0a4fd7219518e8a16,64c5699dae067f1f1081742c,64c7cdeb220bc99d1f202f69,right,1,0.6929,0.35,18,0.064995157,0.2665,,,,,,148,0,148,0,1,,,,,
,,578137,001,2023-07-31_16h06.37.936,arm3_q,2022.2.5,Win32,120.9043646,6167eea0a4fd7219518e8a16,64c5699dae067f1f1081742c,64c7cdeb220bc99d1f202f69,up,-1,0.6929,0.35,18,0,0.5332,,,,,,149,0,149,0,1,,,,,
,,578137,001,2023-07-31_16h06.37.936,arm3_q,2022.2.5,Win32,120.9043646,6167eea0a4fd7219518e8a16,64c5699dae067f1f1081742c,64c7cdeb220bc99d1f202f69,right,-1,0.6929,0.35,18,-0.003819727,0.4838,,,,,,150,0,150,0,1,,,,,
,,578137,001,2023-07-31_16h06.37.936,arm3_q,2022.2.5,Win32,120.9043646,6167eea0a4fd7219518e8a16,64c5699dae067f1f1081742c,64c7cdeb220bc99d1f202f69,right,-1,0.6929,0.35,18,-0.008298853,0.2836,,,,,,151,0,151,0,1,,,,,
,,578137,001,2023-07-31_16h06.37.936,arm3_q,2022.2.5,Win32,120.9043646,6167eea0a4fd7219518e8a16,64c5699dae067f1f1081742c,64c7cdeb220bc99d1f202f69,right,-1,0.6929,0.35,18,-0.004232753,1.0083,,,,,,152,0,152,0,1,,,,,
,,578137,001,2023-07-31_16h06.37.936,arm3_q,2022.2.5,Win32,120.9043646,6167eea0a4fd7219518e8a16,64c5699dae067f1f1081742c,64c7cdeb220bc99d1f202f69,down,1,0.6929,0.35,19,0,0.8835,,,,,,153,0,153,0,1,,,,,
,,578137,001,2023-07-31_16h06.37.936,arm3_q,2022.2.5,Win32,120.9043646,6167eea0a4fd7219518e8a16,64c5699dae067f1f1081742c,64c7cdeb220bc99d1f202f69,right,1,0.6929,0.35,19,0.006473223,0.358,,,,,,154,0,154,0,1,,,,,
,,578137,001,2023-07-31_16h06.37.936,arm3_q,2022.2.5,Win32,120.9043646,6167eea0a4fd7219518e8a16,64c5699dae067f1f1081742c,64c7cdeb220bc99d1f202f69,right,1,0.6929,0.35,19,0.007703348,0.2575,,,,,,155,0,155,0,1,,,,,
,,578137,001,2023-07-31_16h06.37.936,arm3_q,2022.2.5,Win32,120.9043646,6167eea0a4fd7219518e8a16,64c5699dae067f1f1081742c,64c7cdeb220bc99d1f202f69,right,1,0.6929,0.35,19,0.024350582,0.3997,,,,,,156,0,156,0,1,,,,,
,,578137,001,2023-07-31_16h06.37.936,arm3_q,2022.2.5,Win32,120.9043646,6167eea0a4fd7219518e8a16,64c5699dae067f1f1081742c,64c7cdeb220bc99d1f202f69,up,-1,0.6929,0.35,20,0,0.5095,,,,,,157,0,157,0,1,,,,,
,,578137,001,2023-07-31_16h06.37.936,arm3_q,2022.2.5,Win32,120.9043646,6167eea0a4fd7219518e8a16,64c5699dae067f1f1081742c,64c7cdeb220bc99d1f202f69,right,-1,0.6929,0.35,20,0.017195296,0.3566,,,,,,158,0,158,0,1,,,,,
,,578137,001,2023-07-31_16h06.37.936,arm3_q,2022.2.5,Win32,120.9043646,6167eea0a4fd7219518e8a16,64c5699dae067f1f1081742c,64c7cdeb220bc99d1f202f69,right,-1,0.6929,0.35,20,0.040857443,0.2908,,,,,,159,0,159,0,1,,,,,
,,578137,001,2023-07-31_16h06.37.936,arm3_q,2022.2.5,Win32,120.9043646,6167eea0a4fd7219518e8a16,64c5699dae067f1f1081742c,64c7cdeb220bc99d1f202f69,right,-1,0.6929,0.35,20,0.007056945,0.4753,,,,,,160,0,160,0,1,,,,,
,,578137,001,2023-07-31_16h06.37.936,arm3_q,2022.2.5,Win32,120.9043646,6167eea0a4fd7219518e8a16,64c5699dae067f1f1081742c,64c7cdeb220bc99d1f202f69,up,1,0.6929,0.35,20,0,1.8106,,,,,,161,0,161,0,1,,,,,
,,578137,001,2023-07-31_16h06.37.936,arm3_q,2022.2.5,Win32,120.9043646,6167eea0a4fd7219518e8a16,64c5699dae067f1f1081742c,64c7cdeb220bc99d1f202f69,right,1,0.6929,0.35,20,-0.006798655,0.4316,,,,,,162,0,162,0,1,,,,,
,,578137,001,2023-07-31_16h06.37.936,arm3_q,2022.2.5,Win32,120.9043646,6167eea0a4fd7219518e8a16,64c5699dae067f1f1081742c,64c7cdeb220bc99d1f202f69,right,1,0.6929,0.35,20,-0.000628536,0.3188,,,,,,163,0,163,0,1,,,,,
,,578137,001,2023-07-31_16h06.37.936,arm3_q,2022.2.5,Win32,120.9043646,6167eea0a4fd7219518e8a16,64c5699dae067f1f1081742c,64c7cdeb220bc99d1f202f69,down,1,0.6929,0.35,19,0,1.1412,,,,,,164,0,164,0,1,,,,,
,,578137,001,2023-07-31_16h06.37.936,arm3_q,2022.2.5,Win32,120.9043646,6167eea0a4fd7219518e8a16,64c5699dae067f1f1081742c,64c7cdeb220bc99d1f202f69,right,1,0.6929,0.35,19,0.037922181,0.4425,,,,,,165,0,165,0,1,,,,,
,,578137,001,2023-07-31_16h06.37.936,arm3_q,2022.2.5,Win32,120.9043646,6167eea0a4fd7219518e8a16,64c5699dae067f1f1081742c,64c7cdeb220bc99d1f202f69,right,1,0.6929,0.35,19,0.045846281,0.3908,,,,,,166,0,166,0,1,,,,,
,,578137,001,2023-07-31_16h06.37.936,arm3_q,2022.2.5,Win32,120.9043646,6167eea0a4fd7219518e8a16,64c5699dae067f1f1081742c,64c7cdeb220bc99d1f202f69,right,1,0.6929,0.35,19,0.028853882,0.3916,,,,,,167,0,167,0,1,,,,,
,,578137,001,2023-07-31_16h06.37.936,arm3_q,2022.2.5,Win32,120.9043646,6167eea0a4fd7219518e8a16,64c5699dae067f1f1081742c,64c7cdeb220bc99d1f202f69,up,1,0.6929,0.35,19,0,1.0097,,,,,,168,0,168,0,1,,,,,
,,578137,001,2023-07-31_16h06.37.936,arm3_q,2022.2.5,Win32,120.9043646,6167eea0a4fd7219518e8a16,64c5699dae067f1f1081742c,64c7cdeb220bc99d1f202f69,right,1,0.6929,0.35,19,-0.015143787,0.3988,,,,,,169,0,169,0,1,,,,,
,,578137,001,2023-07-31_16h06.37.936,arm3_q,2022.2.5,Win32,120.9043646,6167eea0a4fd7219518e8a16,64c5699dae067f1f1081742c,64c7cdeb220bc99d1f202f69,right,1,0.6929,0.35,19,0.017521674,0.3335,,,,,,170,0,170,0,1,,,,,
,,578137,001,2023-07-31_16h06.37.936,arm3_q,2022.2.5,Win32,120.9043646,6167eea0a4fd7219518e8a16,64c5699dae067f1f1081742c,64c7cdeb220bc99d1f202f69,up,1,0.6929,0.35,20,0,0.7172,,,,,,171,0,171,0,1,,,,,
,,578137,001,2023-07-31_16h06.37.936,arm3_q,2022.2.5,Win32,120.9043646,6167eea0a4fd7219518e8a16,64c5699dae067f1f1081742c,64c7cdeb220bc99d1f202f69,right,1,0.6929,0.35,20,0.013463363,0.3897,,,,,,172,0,172,0,1,,,,,
,,578137,001,2023-07-31_16h06.37.936,arm3_q,2022.2.5,Win32,120.9043646,6167eea0a4fd7219518e8a16,64c5699dae067f1f1081742c,64c7cdeb220bc99d1f202f69,right,1,0.6929,0.35,20,0.016736365,0.4073,,,,,,173,0,173,0,1,,,,,
,,578137,001,2023-07-31_16h06.37.936,arm3_q,2022.2.5,Win32,120.9043646,6167eea0a4fd7219518e8a16,64c5699dae067f1f1081742c,64c7cdeb220bc99d1f202f69,up,-1,0.6929,0.35,21,0,1.3748,,,,,,174,0,174,0,1,,,,,
,,578137,001,2023-07-31_16h06.37.936,arm3_q,2022.2.5,Win32,120.9043646,6167eea0a4fd7219518e8a16,64c5699dae067f1f1081742c,64c7cdeb220bc99d1f202f69,right,-1,0.6929,0.35,21,-0.010855787,0.3812,,,,,,175,0,175,0,1,,,,,
,,578137,001,2023-07-31_16h06.37.936,arm3_q,2022.2.5,Win32,120.9043646,6167eea0a4fd7219518e8a16,64c5699dae067f1f1081742c,64c7cdeb220bc99d1f202f69,right,-1,0.6929,0.35,21,-0.033475252,0.4005,,,,,,176,0,176,0,1,,,,,
,,578137,001,2023-07-31_16h06.37.936,arm3_q,2022.2.5,Win32,120.9043646,6167eea0a4fd7219518e8a16,64c5699dae067f1f1081742c,64c7cdeb220bc99d1f202f69,down,1,0.6929,0.35,22,0,1.2999,,,,,,177,0,177,0,1,,,,,
,,578137,001,2023-07-31_16h06.37.936,arm3_q,2022.2.5,Win32,120.9043646,6167eea0a4fd7219518e8a16,64c5699dae067f1f1081742c,64c7cdeb220bc99d1f202f69,right,1,0.6929,0.35,22,0.034860455,0.4483,,,,,,178,0,178,0,1,,,,,
,,578137,001,2023-07-31_16h06.37.936,arm3_q,2022.2.5,Win32,120.9043646,6167eea0a4fd7219518e8a16,64c5699dae067f1f1081742c,64c7cdeb220bc99d1f202f69,right,1,0.6929,0.35,22,0.060963242,0.4322,,,,,,179,0,179,0,1,,,,,
,,578137,001,2023-07-31_16h06.37.936,arm3_q,2022.2.5,Win32,120.9043646,6167eea0a4fd7219518e8a16,64c5699dae067f1f1081742c,64c7cdeb220bc99d1f202f69,up,1,0.6929,0.35,23,0,0.6998,,,,,,180,0,180,0,1,,,,,
,,578137,001,2023-07-31_16h06.37.936,arm3_q,2022.2.5,Win32,120.9043646,6167eea0a4fd7219518e8a16,64c5699dae067f1f1081742c,64c7cdeb220bc99d1f202f69,right,1,0.6929,0.35,23,0.005278353,0.3728,,,,,,181,0,181,0,1,,,,,
,,578137,001,2023-07-31_16h06.37.936,arm3_q,2022.2.5,Win32,120.9043646,6167eea0a4fd7219518e8a16,64c5699dae067f1f1081742c,64c7cdeb220bc99d1f202f69,right,1,0.6929,0.35,23,0.012581322,0.3494,,,,,,182,0,182,0,1,,,,,
,,578137,001,2023-07-31_16h06.37.936,arm3_q,2022.2.5,Win32,120.9043646,6167eea0a4fd7219518e8a16,64c5699dae067f1f1081742c,64c7cdeb220bc99d1f202f69,up,-1,0.6929,0.35,23,0,0.7431,,,,,,183,0,183,0,1,,,,,
,,578137,001,2023-07-31_16h06.37.936,arm3_q,2022.2.5,Win32,120.9043646,6167eea0a4fd7219518e8a16,64c5699dae067f1f1081742c,64c7cdeb220bc99d1f202f69,right,-1,0.6929,0.35,23,0.004196562,0.5156,,,,,,184,0,184,0,1,,,,,
,,578137,001,2023-07-31_16h06.37.936,arm3_q,2022.2.5,Win32,120.9043646,6167eea0a4fd7219518e8a16,64c5699dae067f1f1081742c,64c7cdeb220bc99d1f202f69,right,-1,0.6929,0.35,23,-0.011454075,0.3663,,,,,,185,0,185,0,1,,,,,
,,578137,001,2023-07-31_16h06.37.936,arm3_q,2022.2.5,Win32,120.9043646,6167eea0a4fd7219518e8a16,64c5699dae067f1f1081742c,64c7cdeb220bc99d1f202f69,up,1,0.6929,0.35,22,0,0.7749,,,,,,186,0,186,0,1,,,,,
,,578137,001,2023-07-31_16h06.37.936,arm3_q,2022.2.5,Win32,120.9043646,6167eea0a4fd7219518e8a16,64c5699dae067f1f1081742c,64c7cdeb220bc99d1f202f69,right,1,0.6929,0.35,22,0.006966502,0.4404,,,,,,187,0,187,0,1,,,,,
,,578137,001,2023-07-31_16h06.37.936,arm3_q,2022.2.5,Win32,120.9043646,6167eea0a4fd7219518e8a16,64c5699dae067f1f1081742c,64c7cdeb220bc99d1f202f69,right,1,0.6929,0.35,22,0.034457646,0.3909,,,,,,188,0,188,0,1,,,,,
,,578137,001,2023-07-31_16h06.37.936,arm3_q,2022.2.5,Win32,120.9043646,6167eea0a4fd7219518e8a16,64c5699dae067f1f1081742c,64c7cdeb220bc99d1f202f69,down,-1,0.6929,0.35,21,0,2.1506,,,,,,189,0,189,0,1,,,,,
,,578137,001,2023-07-31_16h06.37.936,arm3_q,2022.2.5,Win32,120.9043646,6167eea0a4fd7219518e8a16,64c5699dae067f1f1081742c,64c7cdeb220bc99d1f202f69,right,-1,0.6929,0.35,21,-0.038102409,0.4252,,,,,,190,0,190,0,1,,,,,
,,578137,001,2023-07-31_16h06.37.936,arm3_q,2022.2.5,Win32,120.9043646,6167eea0a4fd7219518e8a16,64c5699dae067f1f1081742c,64c7cdeb220bc99d1f202f69,right,-1,0.6929,0.35,21,-0.044574286,0.3326,,,,,,191,0,191,0,1,,,,,
,,578137,001,2023-07-31_16h06.37.936,arm3_q,2022.2.5,Win32,120.9043646,6167eea0a4fd7219518e8a16,64c5699dae067f1f1081742c,64c7cdeb220bc99d1f202f69,down,1,0.6929,0.35,21,0,0.8164,,,,,,192,0,192,0,1,,,,,
,,578137,001,2023-07-31_16h06.37.936,arm3_q,2022.2.5,Win32,120.9043646,6167eea0a4fd7219518e8a16,64c5699dae067f1f1081742c,64c7cdeb220bc99d1f202f69,right,1,0.6929,0.35,21,-0.017193102,0.4065,,,,,,193,0,193,0,1,,,,,
,,578137,001,2023-07-31_16h06.37.936,arm3_q,2022.2.5,Win32,120.9043646,6167eea0a4fd7219518e8a16,64c5699dae067f1f1081742c,64c7cdeb220bc99d1f202f69,right,1,0.6929,0.35,21,-0.022744842,0.3022,,,,,,194,0,194,0,1,,,,,
,,578137,001,2023-07-31_16h06.37.936,arm3_q,2022.2.5,Win32,120.9043646,6167eea0a4fd7219518e8a16,64c5699dae067f1f1081742c,64c7cdeb220bc99d1f202f69,right,1,0.6929,0.35,21,-0.009218106,0.6937,,,,,,195,0,195,0,1,,,,,
,,578137,001,2023-07-31_16h06.37.936,arm3_q,2022.2.5,Win32,120.9043646,6167eea0a4fd7219518e8a16,64c5699dae067f1f1081742c,64c7cdeb220bc99d1f202f69,up,1,0.6929,0.35,22,0,0.8998,,,,,,196,0,196,0,1,,,,,
,,578137,001,2023-07-31_16h06.37.936,arm3_q,2022.2.5,Win32,120.9043646,6167eea0a4fd7219518e8a16,64c5699dae067f1f1081742c,64c7cdeb220bc99d1f202f69,right,1,0.6929,0.35,22,-0.007475899,0.348,,,,,,197,0,197,0,1,,,,,
,,578137,001,2023-07-31_16h06.37.936,arm3_q,2022.2.5,Win32,120.9043646,6167eea0a4fd7219518e8a16,64c5699dae067f1f1081742c,64c7cdeb220bc99d1f202f69,right,1,0.6929,0.35,22,0.020425376,0.3824,,,,,,198,0,198,0,1,,,,,
,,578137,001,2023-07-31_16h06.37.936,arm3_q,2022.2.5,Win32,120.9043646,6167eea0a4fd7219518e8a16,64c5699dae067f1f1081742c,64c7cdeb220bc99d1f202f69,right,1,0.6929,0.35,22,0.044446748,0.7002,,,,,,199,0,199,0,1,,,,,
,,578137,001,2023-07-31_16h06.37.936,arm3_q,2022.2.5,Win32,120.9043646,6167eea0a4fd7219518e8a16,64c5699dae067f1f1081742c,64c7cdeb220bc99d1f202f69,up,-1,0.6929,0.35,23,0,0.508,,,,,,200,0,200,0,1,,,,,
,,578137,001,2023-07-31_16h06.37.936,arm3_q,2022.2.5,Win32,120.9043646,6167eea0a4fd7219518e8a16,64c5699dae067f1f1081742c,64c7cdeb220bc99d1f202f69,right,-1,0.6929,0.35,23,-0.003695785,0.3482,,,,,,201,0,201,0,1,,,,,
,,578137,001,2023-07-31_16h06.37.936,arm3_q,2022.2.5,Win32,120.9043646,6167eea0a4fd7219518e8a16,64c5699dae067f1f1081742c,64c7cdeb220bc99d1f202f69,right,-1,0.6929,0.35,23,-0.02808364,0.3824,,,,,,202,0,202,0,1,,,,,
,,578137,001,2023-07-31_16h06.37.936,arm3_q,2022.2.5,Win32,120.9043646,6167eea0a4fd7219518e8a16,64c5699dae067f1f1081742c,64c7cdeb220bc99d1f202f69,down,-1,0.6929,0.35,23,0,0.6355,,,,,,203,0,203,0,1,,,,,
,,578137,001,2023-07-31_16h06.37.936,arm3_q,2022.2.5,Win32,120.9043646,6167eea0a4fd7219518e8a16,64c5699dae067f1f1081742c,64c7cdeb220bc99d1f202f69,right,-1,0.6929,0.35,23,-0.016654674,0.3982,,,,,,204,0,204,0,1,,,,,
,,578137,001,2023-07-31_16h06.37.936,arm3_q,2022.2.5,Win32,120.9043646,6167eea0a4fd7219518e8a16,64c5699dae067f1f1081742c,64c7cdeb220bc99d1f202f69,right,-1,0.6929,0.35,23,-0.041243309,0.3166,,,,,,205,0,205,0,1,,,,,
,,578137,001,2023-07-31_16h06.37.936,arm3_q,2022.2.5,Win32,120.9043646,6167eea0a4fd7219518e8a16,64c5699dae067f1f1081742c,64c7cdeb220bc99d1f202f69,down,-1,0.6929,0.35,24,0,0.6082,,,,,,206,0,206,0,1,,,,,
,,578137,001,2023-07-31_16h06.37.936,arm3_q,2022.2.5,Win32,120.9043646,6167eea0a4fd7219518e8a16,64c5699dae067f1f1081742c,64c7cdeb220bc99d1f202f69,right,-1,0.6929,0.35,24,0.013970967,0.39,,,,,,207,0,207,0,1,,,,,
,,578137,001,2023-07-31_16h06.37.936,arm3_q,2022.2.5,Win32,120.9043646,6167eea0a4fd7219518e8a16,64c5699dae067f1f1081742c,64c7cdeb220bc99d1f202f69,right,-1,0.6929,0.35,24,-0.009658988,0.4654,,,,,,208,0,208,0,1,,,,,
,,578137,001,2023-07-31_16h06.37.936,arm3_q,2022.2.5,Win32,120.9043646,6167eea0a4fd7219518e8a16,64c5699dae067f1f1081742c,64c7cdeb220bc99d1f202f69,right,-1,0.6929,0.35,24,-0.020860137,0.9847,,,,,,209,0,209,0,1,,,,,
,,578137,001,2023-07-31_16h06.37.936,arm3_q,2022.2.5,Win32,120.9043646,6167eea0a4fd7219518e8a16,64c5699dae067f1f1081742c,64c7cdeb220bc99d1f202f69,down,-1,0.6929,0.35,25,0,0.5499,,,,,,210,0,210,0,1,,,,,
,,578137,001,2023-07-31_16h06.37.936,arm3_q,2022.2.5,Win32,120.9043646,6167eea0a4fd7219518e8a16,64c5699dae067f1f1081742c,64c7cdeb220bc99d1f202f69,right,-1,0.6929,0.35,25,-0.012685469,0.3562,,,,,,211,0,211,0,1,,,,,
,,578137,001,2023-07-31_16h06.37.936,arm3_q,2022.2.5,Win32,120.9043646,6167eea0a4fd7219518e8a16,64c5699dae067f1f1081742c,64c7cdeb220bc99d1f202f69,right,-1,0.6929,0.35,25,-0.04340774,0.3578,,,,,,212,0,212,0,1,,,,,
,,578137,001,2023-07-31_16h06.37.936,arm3_q,2022.2.5,Win32,120.9043646,6167eea0a4fd7219518e8a16,64c5699dae067f1f1081742c,64c7cdeb220bc99d1f202f69,down,1,0.6929,0.35,25,0,0.6923,,,,,,213,0,213,0,1,,,,,
,,578137,001,2023-07-31_16h06.37.936,arm3_q,2022.2.5,Win32,120.9043646,6167eea0a4fd7219518e8a16,64c5699dae067f1f1081742c,64c7cdeb220bc99d1f202f69,right,1,0.6929,0.35,25,-0.01282025,0.4409,,,,,,214,0,214,0,1,,,,,
,,578137,001,2023-07-31_16h06.37.936,arm3_q,2022.2.5,Win32,120.9043646,6167eea0a4fd7219518e8a16,64c5699dae067f1f1081742c,64c7cdeb220bc99d1f202f69,right,1,0.6929,0.35,25,-0.022319022,0.3831,,,,,,215,0,215,0,1,,,,,
,,578137,001,2023-07-31_16h06.37.936,arm3_q,2022.2.5,Win32,120.9043646,6167eea0a4fd7219518e8a16,64c5699dae067f1f1081742c,64c7cdeb220bc99d1f202f69,down,-1,0.6929,0.35,24,0,0.4501,,,,,,216,0,216,0,1,,,,,
,,578137,001,2023-07-31_16h06.37.936,arm3_q,2022.2.5,Win32,120.9043646,6167eea0a4fd7219518e8a16,64c5699dae067f1f1081742c,64c7cdeb220bc99d1f202f69,right,-1,0.6929,0.35,24,0.001126533,0.5564,,,,,,217,0,217,0,1,,,,,
,,578137,001,2023-07-31_16h06.37.936,arm3_q,2022.2.5,Win32,120.9043646,6167eea0a4fd7219518e8a16,64c5699dae067f1f1081742c,64c7cdeb220bc99d1f202f69,right,-1,0.6929,0.35,24,-0.0215093,0.3422,,,,,,218,0,218,0,1,,,,,
,,578137,001,2023-07-31_16h06.37.936,arm3_q,2022.2.5,Win32,120.9043646,6167eea0a4fd7219518e8a16,64c5699dae067f1f1081742c,64c7cdeb220bc99d1f202f69,down,-1,0.6929,0.35,25,0,1.2335,,,,,,219,0,219,0,1,,,,,
,,578137,001,2023-07-31_16h06.37.936,arm3_q,2022.2.5,Win32,120.9043646,6167eea0a4fd7219518e8a16,64c5699dae067f1f1081742c,64c7cdeb220bc99d1f202f69,right,-1,0.6929,0.35,25,-0.005664367,0.373,,,,,,220,0,220,0,1,,,,,
,,578137,001,2023-07-31_16h06.37.936,arm3_q,2022.2.5,Win32,120.9043646,6167eea0a4fd7219518e8a16,64c5699dae067f1f1081742c,64c7cdeb220bc99d1f202f69,right,-1,0.6929,0.35,25,0.000664092,0.3325,,,,,,221,0,221,0,1,,,,,
,,578137,001,2023-07-31_16h06.37.936,arm3_q,2022.2.5,Win32,120.9043646,6167eea0a4fd7219518e8a16,64c5699dae067f1f1081742c,64c7cdeb220bc99d1f202f69,up,1,0.6929,0.35,25,0,0.7767,,,,,,222,0,222,0,1,,,,,
,,578137,001,2023-07-31_16h06.37.936,arm3_q,2022.2.5,Win32,120.9043646,6167eea0a4fd7219518e8a16,64c5699dae067f1f1081742c,64c7cdeb220bc99d1f202f69,right,1,0.6929,0.35,25,0.013443979,0.4065,,,,,,223,0,223,0,1,,,,,
,,578137,001,2023-07-31_16h06.37.936,arm3_q,2022.2.5,Win32,120.9043646,6167eea0a4fd7219518e8a16,64c5699dae067f1f1081742c,64c7cdeb220bc99d1f202f69,right,1,0.6929,0.35,25,0.030286342,0.3083,,,,,,224,0,224,0,1,,,,,
,,578137,001,2023-07-31_16h06.37.936,arm3_q,2022.2.5,Win32,120.9043646,6167eea0a4fd7219518e8a16,64c5699dae067f1f1081742c,64c7cdeb220bc99d1f202f69,up,1,0.6929,0.35,25,0,0.6167,,,,,,225,0,225,0,1,,,,,
,,578137,001,2023-07-31_16h06.37.936,arm3_q,2022.2.5,Win32,120.9043646,6167eea0a4fd7219518e8a16,64c5699dae067f1f1081742c,64c7cdeb220bc99d1f202f69,right,1,0.6929,0.35,25,-0.002178569,0.401,,,,,,226,0,226,0,1,,,,,
,,578137,001,2023-07-31_16h06.37.936,arm3_q,2022.2.5,Win32,120.9043646,6167eea0a4fd7219518e8a16,64c5699dae067f1f1081742c,64c7cdeb220bc99d1f202f69,right,1,0.6929,0.35,25,0.001737439,0.3579,,,,,,227,0,227,0,1,,,,,
,,578137,001,2023-07-31_16h06.37.936,arm3_q,2022.2.5,Win32,120.9043646,6167eea0a4fd7219518e8a16,64c5699dae067f1f1081742c,64c7cdeb220bc99d1f202f69,up,-1,0.6929,0.35,25,0,0.5084,,,,,,228,0,228,0,1,,,,,
,,578137,001,2023-07-31_16h06.37.936,arm3_q,2022.2.5,Win32,120.9043646,6167eea0a4fd7219518e8a16,64c5699dae067f1f1081742c,64c7cdeb220bc99d1f202f69,right,-1,0.6929,0.35,25,0.014592414,0.465,,,,,,229,0,229,0,1,,,,,
,,578137,001,2023-07-31_16h06.37.936,arm3_q,2022.2.5,Win32,120.9043646,6167eea0a4fd7219518e8a16,64c5699dae067f1f1081742c,64c7cdeb220bc99d1f202f69,right,-1,0.6929,0.35,25,0.01371084,0.7331,,,,,,230,0,230,0,1,,,,,
,,578137,001,2023-07-31_16h06.37.936,arm3_q,2022.2.5,Win32,120.9043646,6167eea0a4fd7219518e8a16,64c5699dae067f1f1081742c,64c7cdeb220bc99d1f202f69,down,-1,0.6929,0.35,26,0,1.3332,,,,,,231,0,231,0,1,,,,,
,,578137,001,2023-07-31_16h06.37.936,arm3_q,2022.2.5,Win32,120.9043646,6167eea0a4fd7219518e8a16,64c5699dae067f1f1081742c,64c7cdeb220bc99d1f202f69,right,-1,0.6929,0.35,26,0.003380972,0.4145,,,,,,232,0,232,0,1,,,,,
,,578137,001,2023-07-31_16h06.37.936,arm3_q,2022.2.5,Win32,120.9043646,6167eea0a4fd7219518e8a16,64c5699dae067f1f1081742c,64c7cdeb220bc99d1f202f69,right,-1,0.6929,0.35,26,-0.01817815,0.3491,,,,,,233,0,233,0,1,,,,,
,,578137,001,2023-07-31_16h06.37.936,arm3_q,2022.2.5,Win32,120.9043646,6167eea0a4fd7219518e8a16,64c5699dae067f1f1081742c,64c7cdeb220bc99d1f202f69,down,-1,0.6929,0.35,27,0,1.3837,,,,,,234,0,234,0,1,,,,,
,,578137,001,2023-07-31_16h06.37.936,arm3_q,2022.2.5,Win32,120.9043646,6167eea0a4fd7219518e8a16,64c5699dae067f1f1081742c,64c7cdeb220bc99d1f202f69,right,-1,0.6929,0.35,27,0.014595325,0.357,,,,,,235,0,235,0,1,,,,,
,,578137,001,2023-07-31_16h06.37.936,arm3_q,2022.2.5,Win32,120.9043646,6167eea0a4fd7219518e8a16,64c5699dae067f1f1081742c,64c7cdeb220bc99d1f202f69,right,-1,0.6929,0.35,27,0.037351505,0.399,,,,,,236,0,236,0,1,,,,,
,,578137,001,2023-07-31_16h06.37.936,arm3_q,2022.2.5,Win32,120.9043646,6167eea0a4fd7219518e8a16,64c5699dae067f1f1081742c,64c7cdeb220bc99d1f202f69,up,1,0.6929,0.35,27,0,0.85,,,,,,237,0,237,0,1,,,,,
,,578137,001,2023-07-31_16h06.37.936,arm3_q,2022.2.5,Win32,120.9043646,6167eea0a4fd7219518e8a16,64c5699dae067f1f1081742c,64c7cdeb220bc99d1f202f69,right,1,0.6929,0.35,27,0.011717153,0.3734,,,,,,238,0,238,0,1,,,,,
,,578137,001,2023-07-31_16h06.37.936,arm3_q,2022.2.5,Win32,120.9043646,6167eea0a4fd7219518e8a16,64c5699dae067f1f1081742c,64c7cdeb220bc99d1f202f69,right,1,0.6929,0.35,27,0.045442371,0.326,,,,,,239,0,239,0,1,,,,,
,,578137,001,2023-07-31_16h06.37.936,arm3_q,2022.2.5,Win32,120.9043646,6167eea0a4fd7219518e8a16,64c5699dae067f1f1081742c,64c7cdeb220bc99d1f202f69,up,1,0.6929,0.35,28,0,0.475,,,,,,240,0,240,0,1,,,,,
,,578137,001,2023-07-31_16h06.37.936,arm3_q,2022.2.5,Win32,120.9043646,6167eea0a4fd7219518e8a16,64c5699dae067f1f1081742c,64c7cdeb220bc99d1f202f69,right,1,0.6929,0.35,28,0.014646875,0.4238,,,,,,241,0,241,0,1,,,,,
,,578137,001,2023-07-31_16h06.37.936,arm3_q,2022.2.5,Win32,120.9043646,6167eea0a4fd7219518e8a16,64c5699dae067f1f1081742c,64c7cdeb220bc99d1f202f69,right,1,0.6929,0.35,28,-0.011109541,0.3828,,,,,,242,0,242,0,1,,,,,
,,578137,001,2023-07-31_16h06.37.936,arm3_q,2022.2.5,Win32,120.9043646,6167eea0a4fd7219518e8a16,64c5699dae067f1f1081742c,64c7cdeb220bc99d1f202f69,right,1,0.6929,0.35,28,-0.003215373,1.4999,,,,,,243,0,243,0,1,,,,,
,,578137,001,2023-07-31_16h06.37.936,arm3_q,2022.2.5,Win32,120.9043646,6167eea0a4fd7219518e8a16,64c5699dae067f1f1081742c,64c7cdeb220bc99d1f202f69,up,-1,0.6929,0.35,29,0,0.7248,,,,,,244,0,244,0,1,,,,,
,,578137,001,2023-07-31_16h06.37.936,arm3_q,2022.2.5,Win32,120.9043646,6167eea0a4fd7219518e8a16,64c5699dae067f1f1081742c,64c7cdeb220bc99d1f202f69,right,-1,0.6929,0.35,29,0.009630302,0.3897,,,,,,245,0,245,0,1,,,,,
,,578137,001,2023-07-31_16h06.37.936,arm3_q,2022.2.5,Win32,120.9043646,6167eea0a4fd7219518e8a16,64c5699dae067f1f1081742c,64c7cdeb220bc99d1f202f69,right,-1,0.6929,0.35,29,0.038854335,0.4076,,,,,,246,0,246,0,1,,,,,
,,578137,001,2023-07-31_16h06.37.936,arm3_q,2022.2.5,Win32,120.9043646,6167eea0a4fd7219518e8a16,64c5699dae067f1f1081742c,64c7cdeb220bc99d1f202f69,right,-1,0.6929,0.35,29,0.017759653,0.7094,,,,,,247,0,247,0,1,,,,,
,,578137,001,2023-07-31_16h06.37.936,arm3_q,2022.2.5,Win32,120.9043646,6167eea0a4fd7219518e8a16,64c5699dae067f1f1081742c,64c7cdeb220bc99d1f202f69,up,-1,0.6929,0.35,29,0,0.8595,,,,,,248,0,248,0,1,,,,,
,,578137,001,2023-07-31_16h06.37.936,arm3_q,2022.2.5,Win32,120.9043646,6167eea0a4fd7219518e8a16,64c5699dae067f1f1081742c,64c7cdeb220bc99d1f202f69,right,-1,0.6929,0.35,29,-0.013788768,0.3824,,,,,,249,0,249,0,1,,,,,
,,578137,001,2023-07-31_16h06.37.936,arm3_q,2022.2.5,Win32,120.9043646,6167eea0a4fd7219518e8a16,64c5699dae067f1f1081742c,64c7cdeb220bc99d1f202f69,right,-1,0.6929,0.35,29,-0.021709959,0.3358,,,,,,250,0,250,0,1,,,,,
,,578137,001,2023-07-31_16h06.37.936,arm3_q,2022.2.5,Win32,120.9043646,6167eea0a4fd7219518e8a16,64c5699dae067f1f1081742c,64c7cdeb220bc99d1f202f69,down,-1,0.6929,0.35,30,0,0.4107,,,,,,251,0,251,0,1,,,,,
,,578137,001,2023-07-31_16h06.37.936,arm3_q,2022.2.5,Win32,120.9043646,6167eea0a4fd7219518e8a16,64c5699dae067f1f1081742c,64c7cdeb220bc99d1f202f69,right,-1,0.6929,0.35,30,0.002878453,0.4231,,,,,,252,0,252,0,1,,,,,
,,578137,001,2023-07-31_16h06.37.936,arm3_q,2022.2.5,Win32,120.9043646,6167eea0a4fd7219518e8a16,64c5699dae067f1f1081742c,64c7cdeb220bc99d1f202f69,right,-1,0.6929,0.35,30,0.001060354,0.4656,,,,,,253,0,253,0,1,,,,,
,,578137,001,2023-07-31_16h06.37.936,arm3_q,2022.2.5,Win32,120.9043646,6167eea0a4fd7219518e8a16,64c5699dae067f1f1081742c,64c7cdeb220bc99d1f202f69,down,-1,0.6929,0.35,31,0,0.8107,,,,,,254,0,254,0,1,,,,,
,,578137,001,2023-07-31_16h06.37.936,arm3_q,2022.2.5,Win32,120.9043646,6167eea0a4fd7219518e8a16,64c5699dae067f1f1081742c,64c7cdeb220bc99d1f202f69,right,-1,0.6929,0.35,31,-0.01035642,0.4147,,,,,,255,0,255,0,1,,,,,
,,578137,001,2023-07-31_16h06.37.936,arm3_q,2022.2.5,Win32,120.9043646,6167eea0a4fd7219518e8a16,64c5699dae067f1f1081742c,64c7cdeb220bc99d1f202f69,right,-1,0.6929,0.35,31,-0.010611721,0.3824,,,,,,256,0,256,0,1,,,,,
,,578137,001,2023-07-31_16h06.37.936,arm3_q,2022.2.5,Win32,120.9043646,6167eea0a4fd7219518e8a16,64c5699dae067f1f1081742c,64c7cdeb220bc99d1f202f69,right,-1,0.6929,0.35,31,-0.017854602,0.4667,,,,,,257,0,257,0,1,,,,,
,,578137,001,2023-07-31_16h06.37.936,arm3_q,2022.2.5,Win32,120.9043646,6167eea0a4fd7219518e8a16,64c5699dae067f1f1081742c,64c7cdeb220bc99d1f202f69,right,-1,0.6929,0.35,31,-0.010460735,0.5,,,,,,258,0,258,0,1,,,,,
,,578137,001,2023-07-31_16h06.37.936,arm3_q,2022.2.5,Win32,120.9043646,6167eea0a4fd7219518e8a16,64c5699dae067f1f1081742c,64c7cdeb220bc99d1f202f69,down,-1,0.6929,0.35,32,0,0.3581,,,,,,259,0,259,0,1,,,,,
,,578137,001,2023-07-31_16h06.37.936,arm3_q,2022.2.5,Win32,120.9043646,6167eea0a4fd7219518e8a16,64c5699dae067f1f1081742c,64c7cdeb220bc99d1f202f69,right,-1,0.6929,0.35,32,0.0103926,0.4483,,,,,,260,0,260,0,1,,,,,
,,578137,001,2023-07-31_16h06.37.936,arm3_q,2022.2.5,Win32,120.9043646,6167eea0a4fd7219518e8a16,64c5699dae067f1f1081742c,64c7cdeb220bc99d1f202f69,right,-1,0.6929,0.35,32,0.022162281,0.3909,,,,,,261,0,261,0,1,,,,,
