space_bar.keys,space_bar.rt,participant,session,date,expName,psychopyVersion,OS,frameRate,PROLIFIC_PID,STUDY_ID,SESSION_ID,resp.keys,state,q_prob,eps_prob,score,price,resp.rt,train.thisRepN,train.thisTrialN,train.thisN,train.thisIndex,train.ran,steps.thisRepN,steps.thisTrialN,steps.thisN,steps.thisIndex,steps.ran,blocks.thisRepN,blocks.thisTrialN,blocks.thisN,blocks.thisIndex,blocks.ran
space,38.0148,690555,001,2023-07-31_17h08.44.100,arm3_q,2022.2.5,Win32,60.03121623,60cd99f1d0df72833ad4346a,64c5699dae067f1f1081742c,64c7ce52d2a3173606763bb7,,,,,,,,,,,,,,,,,,,,,,
space,10.7814,690555,001,2023-07-31_17h08.44.100,arm3_q,2022.2.5,Win32,60.03121623,60cd99f1d0df72833ad4346a,64c5699dae067f1f1081742c,64c7ce52d2a3173606763bb7,,,,,,,,,,,,,,,,,,,,,,
space,96.3795,690555,001,2023-07-31_17h08.44.100,arm3_q,2022.2.5,Win32,60.03121623,60cd99f1d0df72833ad4346a,64c5699dae067f1f1081742c,64c7ce52d2a3173606763bb7,,,,,,,,,,,,,,,,,,,,,,
space,23.5965,690555,001,2023-07-31_17h08.44.100,arm3_q,2022.2.5,Win32,60.03121623,60cd99f1d0df72833ad4346a,64c5699dae067f1f1081742c,64c7ce52d2a3173606763bb7,,,,,,,,,,,,,,,,,,,,,,
space,31.1596,690555,001,2023-07-31_17h08.44.100,arm3_q,2022.2.5,Win32,60.03121623,60cd99f1d0df72833ad4346a,64c5699dae067f1f1081742c,64c7ce52d2a3173606763bb7,,,,,,,,,,,,,,,,,,,,,,
space,13.1624,690555,001,2023-07-31_17h08.44.100,arm3_q,2022.2.5,Win32,60.03121623,60cd99f1d0df72833ad4346a,64c5699dae067f1f1081742c,64c7ce52d2a3173606763bb7,,,,,,,,,,,,,,,,,,,,,,
space,35.2445,690555,001,2023-07-31_17h08.44.100,arm3_q,2022.2.5,Win32,60.03121623,60cd99f1d0df72833ad4346a,64c5699dae067f1f1081742c,64c7ce52d2a3173606763bb7,,,,,,,,,,,,,,,,,,,,,,
space,3.0499,690555,001,2023-07-31_17h08.44.100,arm3_q,2022.2.5,Win32,60.03121623,60cd99f1d0df72833ad4346a,64c5699dae067f1f1081742c,64c7ce52d2a3173606763bb7,,,,,,,,,,,,,,,,,,,,,,
,,690555,001,2023-07-31_17h08.44.100,arm3_q,2022.2.5,Win32,60.03121623,60cd99f1d0df72833ad4346a,64c5699dae067f1f1081742c,64c7ce52d2a3173606763bb7,down,-1,1,0.35,1,0,30.1222,0,0,0,0,1,,,,,,,,,,
,,690555,001,2023-07-31_17h08.44.100,arm3_q,2022.2.5,Win32,60.03121623,60cd99f1d0df72833ad4346a,64c5699dae067f1f1081742c,64c7ce52d2a3173606763bb7,down,-1,1,0.35,2,0,9.183,1,0,1,0,1,,,,,,,,,,
,,690555,001,2023-07-31_17h08.44.100,arm3_q,2022.2.5,Win32,60.03121623,60cd99f1d0df72833ad4346a,64c5699dae067f1f1081742c,64c7ce52d2a3173606763bb7,up,-1,1,0.35,1,0,5.3222,2,0,2,0,1,,,,,,,,,,
,,690555,001,2023-07-31_17h08.44.100,arm3_q,2022.2.5,Win32,60.03121623,60cd99f1d0df72833ad4346a,64c5699dae067f1f1081742c,64c7ce52d2a3173606763bb7,down,1,1,0.35,2,0,4.6106,3,0,3,0,1,,,,,,,,,,
,,690555,001,2023-07-31_17h08.44.100,arm3_q,2022.2.5,Win32,60.03121623,60cd99f1d0df72833ad4346a,64c5699dae067f1f1081742c,64c7ce52d2a3173606763bb7,down,1,1,0.35,1,0,2.5548,4,0,4,0,1,,,,,,,,,,
,,690555,001,2023-07-31_17h08.44.100,arm3_q,2022.2.5,Win32,60.03121623,60cd99f1d0df72833ad4346a,64c5699dae067f1f1081742c,64c7ce52d2a3173606763bb7,up,-1,1,0.35,2,0,1.2159,5,0,5,0,1,,,,,,,,,,
,,690555,001,2023-07-31_17h08.44.100,arm3_q,2022.2.5,Win32,60.03121623,60cd99f1d0df72833ad4346a,64c5699dae067f1f1081742c,64c7ce52d2a3173606763bb7,up,-1,1,0.35,1,0,2.2606,6,0,6,0,1,,,,,,,,,,
,,690555,001,2023-07-31_17h08.44.100,arm3_q,2022.2.5,Win32,60.03121623,60cd99f1d0df72833ad4346a,64c5699dae067f1f1081742c,64c7ce52d2a3173606763bb7,down,1,1,0.35,2,0,1.4205,7,0,7,0,1,,,,,,,,,,
,,690555,001,2023-07-31_17h08.44.100,arm3_q,2022.2.5,Win32,60.03121623,60cd99f1d0df72833ad4346a,64c5699dae067f1f1081742c,64c7ce52d2a3173606763bb7,up,1,1,0.35,3,0,3.321,8,0,8,0,1,,,,,,,,,,
,,690555,001,2023-07-31_17h08.44.100,arm3_q,2022.2.5,Win32,60.03121623,60cd99f1d0df72833ad4346a,64c5699dae067f1f1081742c,64c7ce52d2a3173606763bb7,up,-1,1,0.35,4,0,2.2328,9,0,9,0,1,,,,,,,,,,
,,690555,001,2023-07-31_17h08.44.100,arm3_q,2022.2.5,Win32,60.03121623,60cd99f1d0df72833ad4346a,64c5699dae067f1f1081742c,64c7ce52d2a3173606763bb7,down,-1,1,0.35,5,0,1.7373,10,0,10,0,1,,,,,,,,,,
,,690555,001,2023-07-31_17h08.44.100,arm3_q,2022.2.5,Win32,60.03121623,60cd99f1d0df72833ad4346a,64c5699dae067f1f1081742c,64c7ce52d2a3173606763bb7,down,-1,1,0.35,6,0,1.2609,11,0,11,0,1,,,,,,,,,,
,,690555,001,2023-07-31_17h08.44.100,arm3_q,2022.2.5,Win32,60.03121623,60cd99f1d0df72833ad4346a,64c5699dae067f1f1081742c,64c7ce52d2a3173606763bb7,up,1,1,0.35,5,0,1.0856,12,0,12,0,1,,,,,,,,,,
,,690555,001,2023-07-31_17h08.44.100,arm3_q,2022.2.5,Win32,60.03121623,60cd99f1d0df72833ad4346a,64c5699dae067f1f1081742c,64c7ce52d2a3173606763bb7,up,-1,1,0.35,6,0,1.3092,13,0,13,0,1,,,,,,,,,,
,,690555,001,2023-07-31_17h08.44.100,arm3_q,2022.2.5,Win32,60.03121623,60cd99f1d0df72833ad4346a,64c5699dae067f1f1081742c,64c7ce52d2a3173606763bb7,up,1,1,0.35,5,0,2.8533,14,0,14,0,1,,,,,,,,,,
,,690555,001,2023-07-31_17h08.44.100,arm3_q,2022.2.5,Win32,60.03121623,60cd99f1d0df72833ad4346a,64c5699dae067f1f1081742c,64c7ce52d2a3173606763bb7,down,1,1,0.35,4,0,1.41,15,0,15,0,1,,,,,,,,,,
,,690555,001,2023-07-31_17h08.44.100,arm3_q,2022.2.5,Win32,60.03121623,60cd99f1d0df72833ad4346a,64c5699dae067f1f1081742c,64c7ce52d2a3173606763bb7,up,-1,1,0.35,5,0,1.3611,16,0,16,0,1,,,,,,,,,,
,,690555,001,2023-07-31_17h08.44.100,arm3_q,2022.2.5,Win32,60.03121623,60cd99f1d0df72833ad4346a,64c5699dae067f1f1081742c,64c7ce52d2a3173606763bb7,up,-1,1,0.35,4,0,2.4256,17,0,17,0,1,,,,,,,,,,
,,690555,001,2023-07-31_17h08.44.100,arm3_q,2022.2.5,Win32,60.03121623,60cd99f1d0df72833ad4346a,64c5699dae067f1f1081742c,64c7ce52d2a3173606763bb7,down,-1,1,0.35,5,0,1.2607,18,0,18,0,1,,,,,,,,,,
,,690555,001,2023-07-31_17h08.44.100,arm3_q,2022.2.5,Win32,60.03121623,60cd99f1d0df72833ad4346a,64c5699dae067f1f1081742c,64c7ce52d2a3173606763bb7,up,1,1,0.35,4,0,1.6765,19,0,19,0,1,,,,,,,,,,
,,690555,001,2023-07-31_17h08.44.100,arm3_q,2022.2.5,Win32,60.03121623,60cd99f1d0df72833ad4346a,64c5699dae067f1f1081742c,64c7ce52d2a3173606763bb7,down,1,1,0.35,3,0,1.2196,20,0,20,0,1,,,,,,,,,,
,,690555,001,2023-07-31_17h08.44.100,arm3_q,2022.2.5,Win32,60.03121623,60cd99f1d0df72833ad4346a,64c5699dae067f1f1081742c,64c7ce52d2a3173606763bb7,up,-1,1,0.35,4,0,1.0264,21,0,21,0,1,,,,,,,,,,
,,690555,001,2023-07-31_17h08.44.100,arm3_q,2022.2.5,Win32,60.03121623,60cd99f1d0df72833ad4346a,64c5699dae067f1f1081742c,64c7ce52d2a3173606763bb7,up,1,1,0.35,3,0,1.2777,22,0,22,0,1,,,,,,,,,,
,,690555,001,2023-07-31_17h08.44.100,arm3_q,2022.2.5,Win32,60.03121623,60cd99f1d0df72833ad4346a,64c5699dae067f1f1081742c,64c7ce52d2a3173606763bb7,down,1,1,0.35,2,0,1.068,23,0,23,0,1,,,,,,,,,,
,,690555,001,2023-07-31_17h08.44.100,arm3_q,2022.2.5,Win32,60.03121623,60cd99f1d0df72833ad4346a,64c5699dae067f1f1081742c,64c7ce52d2a3173606763bb7,up,-1,1,0.35,3,0,2.3362,24,0,24,0,1,,,,,,,,,,
,,690555,001,2023-07-31_17h08.44.100,arm3_q,2022.2.5,Win32,60.03121623,60cd99f1d0df72833ad4346a,64c5699dae067f1f1081742c,64c7ce52d2a3173606763bb7,down,-1,1,0.35,4,0,2.2771,25,0,25,0,1,,,,,,,,,,
,,690555,001,2023-07-31_17h08.44.100,arm3_q,2022.2.5,Win32,60.03121623,60cd99f1d0df72833ad4346a,64c5699dae067f1f1081742c,64c7ce52d2a3173606763bb7,up,-1,1,0.35,3,0,2.3929,26,0,26,0,1,,,,,,,,,,
,,690555,001,2023-07-31_17h08.44.100,arm3_q,2022.2.5,Win32,60.03121623,60cd99f1d0df72833ad4346a,64c5699dae067f1f1081742c,64c7ce52d2a3173606763bb7,down,1,1,0.35,4,0,1.3098,27,0,27,0,1,,,,,,,,,,
,,690555,001,2023-07-31_17h08.44.100,arm3_q,2022.2.5,Win32,60.03121623,60cd99f1d0df72833ad4346a,64c5699dae067f1f1081742c,64c7ce52d2a3173606763bb7,up,1,1,0.35,5,0,1.6277,28,0,28,0,1,,,,,,,,,,
,,690555,001,2023-07-31_17h08.44.100,arm3_q,2022.2.5,Win32,60.03121623,60cd99f1d0df72833ad4346a,64c5699dae067f1f1081742c,64c7ce52d2a3173606763bb7,down,-1,1,0.35,4,0,1.3543,29,0,29,0,1,,,,,,,,,,
,,690555,001,2023-07-31_17h08.44.100,arm3_q,2022.2.5,Win32,60.03121623,60cd99f1d0df72833ad4346a,64c5699dae067f1f1081742c,64c7ce52d2a3173606763bb7,down,1,1,0.35,5,0,2.7178,30,0,30,0,1,,,,,,,,,,
,,690555,001,2023-07-31_17h08.44.100,arm3_q,2022.2.5,Win32,60.03121623,60cd99f1d0df72833ad4346a,64c5699dae067f1f1081742c,64c7ce52d2a3173606763bb7,up,1,1,0.35,6,0,1.8963,31,0,31,0,1,,,,,,,,,,
,,690555,001,2023-07-31_17h08.44.100,arm3_q,2022.2.5,Win32,60.03121623,60cd99f1d0df72833ad4346a,64c5699dae067f1f1081742c,64c7ce52d2a3173606763bb7,down,1,1,0.35,5,0,1.8928,32,0,32,0,1,,,,,,,,,,
,,690555,001,2023-07-31_17h08.44.100,arm3_q,2022.2.5,Win32,60.03121623,60cd99f1d0df72833ad4346a,64c5699dae067f1f1081742c,64c7ce52d2a3173606763bb7,up,1,1,0.35,6,0,1.4262,33,0,33,0,1,,,,,,,,,,
,,690555,001,2023-07-31_17h08.44.100,arm3_q,2022.2.5,Win32,60.03121623,60cd99f1d0df72833ad4346a,64c5699dae067f1f1081742c,64c7ce52d2a3173606763bb7,up,1,1,0.35,7,0,3.0817,34,0,34,0,1,,,,,,,,,,
,,690555,001,2023-07-31_17h08.44.100,arm3_q,2022.2.5,Win32,60.03121623,60cd99f1d0df72833ad4346a,64c5699dae067f1f1081742c,64c7ce52d2a3173606763bb7,up,1,1,0.35,8,0,2.3283,35,0,35,0,1,,,,,,,,,,
,,690555,001,2023-07-31_17h08.44.100,arm3_q,2022.2.5,Win32,60.03121623,60cd99f1d0df72833ad4346a,64c5699dae067f1f1081742c,64c7ce52d2a3173606763bb7,up,-1,1,0.35,9,0,1.1151,36,0,36,0,1,,,,,,,,,,
,,690555,001,2023-07-31_17h08.44.100,arm3_q,2022.2.5,Win32,60.03121623,60cd99f1d0df72833ad4346a,64c5699dae067f1f1081742c,64c7ce52d2a3173606763bb7,down,1,1,0.35,10,0,1.2892,37,0,37,0,1,,,,,,,,,,
,,690555,001,2023-07-31_17h08.44.100,arm3_q,2022.2.5,Win32,60.03121623,60cd99f1d0df72833ad4346a,64c5699dae067f1f1081742c,64c7ce52d2a3173606763bb7,down,-1,1,0.35,9,0,2.0499,38,0,38,0,1,,,,,,,,,,
,,690555,001,2023-07-31_17h08.44.100,arm3_q,2022.2.5,Win32,60.03121623,60cd99f1d0df72833ad4346a,64c5699dae067f1f1081742c,64c7ce52d2a3173606763bb7,up,1,1,0.35,8,0,2.3337,39,0,39,0,1,,,,,,,,,,
,,690555,001,2023-07-31_17h08.44.100,arm3_q,2022.2.5,Win32,60.03121623,60cd99f1d0df72833ad4346a,64c5699dae067f1f1081742c,64c7ce52d2a3173606763bb7,up,-1,1,0.35,9,0,1.8009,40,0,40,0,1,,,,,,,,,,
,,690555,001,2023-07-31_17h08.44.100,arm3_q,2022.2.5,Win32,60.03121623,60cd99f1d0df72833ad4346a,64c5699dae067f1f1081742c,64c7ce52d2a3173606763bb7,down,-1,1,0.35,10,0,2.753,41,0,41,0,1,,,,,,,,,,
,,690555,001,2023-07-31_17h08.44.100,arm3_q,2022.2.5,Win32,60.03121623,60cd99f1d0df72833ad4346a,64c5699dae067f1f1081742c,64c7ce52d2a3173606763bb7,up,1,1,0.35,9,0,4.4287,42,0,42,0,1,,,,,,,,,,
,,690555,001,2023-07-31_17h08.44.100,arm3_q,2022.2.5,Win32,60.03121623,60cd99f1d0df72833ad4346a,64c5699dae067f1f1081742c,64c7ce52d2a3173606763bb7,down,-1,1,0.35,8,0,1.3975,43,0,43,0,1,,,,,,,,,,
,,690555,001,2023-07-31_17h08.44.100,arm3_q,2022.2.5,Win32,60.03121623,60cd99f1d0df72833ad4346a,64c5699dae067f1f1081742c,64c7ce52d2a3173606763bb7,up,1,1,0.35,7,0,1.451,44,0,44,0,1,,,,,,,,,,
,,690555,001,2023-07-31_17h08.44.100,arm3_q,2022.2.5,Win32,60.03121623,60cd99f1d0df72833ad4346a,64c5699dae067f1f1081742c,64c7ce52d2a3173606763bb7,down,1,1,0.35,6,0,1.0775,45,0,45,0,1,,,,,,,,,,
,,690555,001,2023-07-31_17h08.44.100,arm3_q,2022.2.5,Win32,60.03121623,60cd99f1d0df72833ad4346a,64c5699dae067f1f1081742c,64c7ce52d2a3173606763bb7,down,1,1,0.35,5,0,1.2001,46,0,46,0,1,,,,,,,,,,
,,690555,001,2023-07-31_17h08.44.100,arm3_q,2022.2.5,Win32,60.03121623,60cd99f1d0df72833ad4346a,64c5699dae067f1f1081742c,64c7ce52d2a3173606763bb7,up,-1,1,0.35,6,0,0.8658,47,0,47,0,1,,,,,,,,,,
,,690555,001,2023-07-31_17h08.44.100,arm3_q,2022.2.5,Win32,60.03121623,60cd99f1d0df72833ad4346a,64c5699dae067f1f1081742c,64c7ce52d2a3173606763bb7,up,-1,1,0.35,5,0,1.2108,48,0,48,0,1,,,,,,,,,,
,,690555,001,2023-07-31_17h08.44.100,arm3_q,2022.2.5,Win32,60.03121623,60cd99f1d0df72833ad4346a,64c5699dae067f1f1081742c,64c7ce52d2a3173606763bb7,down,-1,1,0.35,5,0,1.5858,49,0,49,0,1,,,,,,,,,,
space,60.8374,690555,001,2023-07-31_17h08.44.100,arm3_q,2022.2.5,Win32,60.03121623,60cd99f1d0df72833ad4346a,64c5699dae067f1f1081742c,64c7ce52d2a3173606763bb7,,,,,,,,,,,,,,,,,,,,,,
space,30.6927,690555,001,2023-07-31_17h08.44.100,arm3_q,2022.2.5,Win32,60.03121623,60cd99f1d0df72833ad4346a,64c5699dae067f1f1081742c,64c7ce52d2a3173606763bb7,,,,,,,,,,,,,,,,,,,,,,
space,26.1307,690555,001,2023-07-31_17h08.44.100,arm3_q,2022.2.5,Win32,60.03121623,60cd99f1d0df72833ad4346a,64c5699dae067f1f1081742c,64c7ce52d2a3173606763bb7,,,,,,,,,,,,,,,,,,,,,,
space,15.3411,690555,001,2023-07-31_17h08.44.100,arm3_q,2022.2.5,Win32,60.03121623,60cd99f1d0df72833ad4346a,64c5699dae067f1f1081742c,64c7ce52d2a3173606763bb7,,,,,,,,,,,,,,,,,,,,,,
space,15.1105,690555,001,2023-07-31_17h08.44.100,arm3_q,2022.2.5,Win32,60.03121623,60cd99f1d0df72833ad4346a,64c5699dae067f1f1081742c,64c7ce52d2a3173606763bb7,,,,,,,,,,,,,,,,,,,,,,
space,1.5492,690555,001,2023-07-31_17h08.44.100,arm3_q,2022.2.5,Win32,60.03121623,60cd99f1d0df72833ad4346a,64c5699dae067f1f1081742c,64c7ce52d2a3173606763bb7,,,,,,,,,,,,,,,,,,,,,,
,,690555,001,2023-07-31_17h08.44.100,arm3_q,2022.2.5,Win32,60.03121623,60cd99f1d0df72833ad4346a,64c5699dae067f1f1081742c,64c7ce52d2a3173606763bb7,down,1,0.5643,0.35,0,0,2.8593,0,0,0,0,1,,,,,,,,,,
,,690555,001,2023-07-31_17h08.44.100,arm3_q,2022.2.5,Win32,60.03121623,60cd99f1d0df72833ad4346a,64c5699dae067f1f1081742c,64c7ce52d2a3173606763bb7,down,-1,0.5643,0.35,-1,0,4.2838,1,0,1,0,1,,,,,,,,,,
,,690555,001,2023-07-31_17h08.44.100,arm3_q,2022.2.5,Win32,60.03121623,60cd99f1d0df72833ad4346a,64c5699dae067f1f1081742c,64c7ce52d2a3173606763bb7,up,1,0.5643,0.35,-1,0,1.9701,2,0,2,0,1,,,,,,,,,,
,,690555,001,2023-07-31_17h08.44.100,arm3_q,2022.2.5,Win32,60.03121623,60cd99f1d0df72833ad4346a,64c5699dae067f1f1081742c,64c7ce52d2a3173606763bb7,up,1,0.5643,0.35,0,0,0.2108,3,0,3,0,1,,,,,,,,,,
,,690555,001,2023-07-31_17h08.44.100,arm3_q,2022.2.5,Win32,60.03121623,60cd99f1d0df72833ad4346a,64c5699dae067f1f1081742c,64c7ce52d2a3173606763bb7,up,-1,0.5643,0.35,1,0,7.1009,4,0,4,0,1,,,,,,,,,,
,,690555,001,2023-07-31_17h08.44.100,arm3_q,2022.2.5,Win32,60.03121623,60cd99f1d0df72833ad4346a,64c5699dae067f1f1081742c,64c7ce52d2a3173606763bb7,up,-1,0.5643,0.35,0,0,2.0755,5,0,5,0,1,,,,,,,,,,
,,690555,001,2023-07-31_17h08.44.100,arm3_q,2022.2.5,Win32,60.03121623,60cd99f1d0df72833ad4346a,64c5699dae067f1f1081742c,64c7ce52d2a3173606763bb7,down,1,0.5643,0.35,0,0,0.943,6,0,6,0,1,,,,,,,,,,
,,690555,001,2023-07-31_17h08.44.100,arm3_q,2022.2.5,Win32,60.03121623,60cd99f1d0df72833ad4346a,64c5699dae067f1f1081742c,64c7ce52d2a3173606763bb7,down,1,0.5643,0.35,-1,0,1.3122,7,0,7,0,1,,,,,,,,,,
,,690555,001,2023-07-31_17h08.44.100,arm3_q,2022.2.5,Win32,60.03121623,60cd99f1d0df72833ad4346a,64c5699dae067f1f1081742c,64c7ce52d2a3173606763bb7,up,1,0.5643,0.35,-1,0,2.1107,8,0,8,0,1,,,,,,,,,,
,,690555,001,2023-07-31_17h08.44.100,arm3_q,2022.2.5,Win32,60.03121623,60cd99f1d0df72833ad4346a,64c5699dae067f1f1081742c,64c7ce52d2a3173606763bb7,up,1,0.5643,0.35,0,0,1.4448,9,0,9,0,1,,,,,,,,,,
,,690555,001,2023-07-31_17h08.44.100,arm3_q,2022.2.5,Win32,60.03121623,60cd99f1d0df72833ad4346a,64c5699dae067f1f1081742c,64c7ce52d2a3173606763bb7,down,1,0.5643,0.35,0,0,1.786,10,0,10,0,1,,,,,,,,,,
,,690555,001,2023-07-31_17h08.44.100,arm3_q,2022.2.5,Win32,60.03121623,60cd99f1d0df72833ad4346a,64c5699dae067f1f1081742c,64c7ce52d2a3173606763bb7,up,-1,0.5643,0.35,1,0,1.0179,11,0,11,0,1,,,,,,,,,,
,,690555,001,2023-07-31_17h08.44.100,arm3_q,2022.2.5,Win32,60.03121623,60cd99f1d0df72833ad4346a,64c5699dae067f1f1081742c,64c7ce52d2a3173606763bb7,up,-1,0.5643,0.35,0,0,1.6373,12,0,12,0,1,,,,,,,,,,
,,690555,001,2023-07-31_17h08.44.100,arm3_q,2022.2.5,Win32,60.03121623,60cd99f1d0df72833ad4346a,64c5699dae067f1f1081742c,64c7ce52d2a3173606763bb7,down,-1,0.5643,0.35,1,0,1.6251,13,0,13,0,1,,,,,,,,,,
,,690555,001,2023-07-31_17h08.44.100,arm3_q,2022.2.5,Win32,60.03121623,60cd99f1d0df72833ad4346a,64c5699dae067f1f1081742c,64c7ce52d2a3173606763bb7,down,-1,0.5643,0.35,2,0,13.3799,14,0,14,0,1,,,,,,,,,,
,,690555,001,2023-07-31_17h08.44.100,arm3_q,2022.2.5,Win32,60.03121623,60cd99f1d0df72833ad4346a,64c5699dae067f1f1081742c,64c7ce52d2a3173606763bb7,up,1,0.5643,0.35,1,0,5.5742,15,0,15,0,1,,,,,,,,,,
,,690555,001,2023-07-31_17h08.44.100,arm3_q,2022.2.5,Win32,60.03121623,60cd99f1d0df72833ad4346a,64c5699dae067f1f1081742c,64c7ce52d2a3173606763bb7,down,1,0.5643,0.35,1,0,2.1657,16,0,16,0,1,,,,,,,,,,
,,690555,001,2023-07-31_17h08.44.100,arm3_q,2022.2.5,Win32,60.03121623,60cd99f1d0df72833ad4346a,64c5699dae067f1f1081742c,64c7ce52d2a3173606763bb7,down,1,0.5643,0.35,1,0,2.8441,17,0,17,0,1,,,,,,,,,,
,,690555,001,2023-07-31_17h08.44.100,arm3_q,2022.2.5,Win32,60.03121623,60cd99f1d0df72833ad4346a,64c5699dae067f1f1081742c,64c7ce52d2a3173606763bb7,up,1,0.5643,0.35,1,0,1.4941,18,0,18,0,1,,,,,,,,,,
,,690555,001,2023-07-31_17h08.44.100,arm3_q,2022.2.5,Win32,60.03121623,60cd99f1d0df72833ad4346a,64c5699dae067f1f1081742c,64c7ce52d2a3173606763bb7,down,-1,0.5643,0.35,0,0,1.4048,19,0,19,0,1,,,,,,,,,,
,,690555,001,2023-07-31_17h08.44.100,arm3_q,2022.2.5,Win32,60.03121623,60cd99f1d0df72833ad4346a,64c5699dae067f1f1081742c,64c7ce52d2a3173606763bb7,up,-1,0.5643,0.35,-1,0,1.6933,20,0,20,0,1,,,,,,,,,,
,,690555,001,2023-07-31_17h08.44.100,arm3_q,2022.2.5,Win32,60.03121623,60cd99f1d0df72833ad4346a,64c5699dae067f1f1081742c,64c7ce52d2a3173606763bb7,up,1,0.5643,0.35,-1,0,10.6292,21,0,21,0,1,,,,,,,,,,
,,690555,001,2023-07-31_17h08.44.100,arm3_q,2022.2.5,Win32,60.03121623,60cd99f1d0df72833ad4346a,64c5699dae067f1f1081742c,64c7ce52d2a3173606763bb7,up,1,0.5643,0.35,0,0,2.7301,22,0,22,0,1,,,,,,,,,,
,,690555,001,2023-07-31_17h08.44.100,arm3_q,2022.2.5,Win32,60.03121623,60cd99f1d0df72833ad4346a,64c5699dae067f1f1081742c,64c7ce52d2a3173606763bb7,up,-1,0.5643,0.35,1,0,1.9712,23,0,23,0,1,,,,,,,,,,
,,690555,001,2023-07-31_17h08.44.100,arm3_q,2022.2.5,Win32,60.03121623,60cd99f1d0df72833ad4346a,64c5699dae067f1f1081742c,64c7ce52d2a3173606763bb7,down,1,0.5643,0.35,2,0,2.7435,24,0,24,0,1,,,,,,,,,,
,,690555,001,2023-07-31_17h08.44.100,arm3_q,2022.2.5,Win32,60.03121623,60cd99f1d0df72833ad4346a,64c5699dae067f1f1081742c,64c7ce52d2a3173606763bb7,up,1,0.5643,0.35,3,0,4.8199,25,0,25,0,1,,,,,,,,,,
,,690555,001,2023-07-31_17h08.44.100,arm3_q,2022.2.5,Win32,60.03121623,60cd99f1d0df72833ad4346a,64c5699dae067f1f1081742c,64c7ce52d2a3173606763bb7,down,-1,0.5643,0.35,2,0,5.2231,26,0,26,0,1,,,,,,,,,,
,,690555,001,2023-07-31_17h08.44.100,arm3_q,2022.2.5,Win32,60.03121623,60cd99f1d0df72833ad4346a,64c5699dae067f1f1081742c,64c7ce52d2a3173606763bb7,up,-1,0.5643,0.35,1,0,2.1072,27,0,27,0,1,,,,,,,,,,
,,690555,001,2023-07-31_17h08.44.100,arm3_q,2022.2.5,Win32,60.03121623,60cd99f1d0df72833ad4346a,64c5699dae067f1f1081742c,64c7ce52d2a3173606763bb7,down,-1,0.5643,0.35,1,0,1.2602,28,0,28,0,1,,,,,,,,,,
,,690555,001,2023-07-31_17h08.44.100,arm3_q,2022.2.5,Win32,60.03121623,60cd99f1d0df72833ad4346a,64c5699dae067f1f1081742c,64c7ce52d2a3173606763bb7,up,1,0.5643,0.35,0,0,2.0641,29,0,29,0,1,,,,,,,,,,
,,690555,001,2023-07-31_17h08.44.100,arm3_q,2022.2.5,Win32,60.03121623,60cd99f1d0df72833ad4346a,64c5699dae067f1f1081742c,64c7ce52d2a3173606763bb7,up,1,0.5643,0.35,0,0,1.2306,30,0,30,0,1,,,,,,,,,,
,,690555,001,2023-07-31_17h08.44.100,arm3_q,2022.2.5,Win32,60.03121623,60cd99f1d0df72833ad4346a,64c5699dae067f1f1081742c,64c7ce52d2a3173606763bb7,up,1,0.5643,0.35,0,0,1.0279,31,0,31,0,1,,,,,,,,,,
,,690555,001,2023-07-31_17h08.44.100,arm3_q,2022.2.5,Win32,60.03121623,60cd99f1d0df72833ad4346a,64c5699dae067f1f1081742c,64c7ce52d2a3173606763bb7,down,1,0.5643,0.35,0,0,1.1356,32,0,32,0,1,,,,,,,,,,
,,690555,001,2023-07-31_17h08.44.100,arm3_q,2022.2.5,Win32,60.03121623,60cd99f1d0df72833ad4346a,64c5699dae067f1f1081742c,64c7ce52d2a3173606763bb7,up,1,0.5643,0.35,0,0,1.0568,33,0,33,0,1,,,,,,,,,,
,,690555,001,2023-07-31_17h08.44.100,arm3_q,2022.2.5,Win32,60.03121623,60cd99f1d0df72833ad4346a,64c5699dae067f1f1081742c,64c7ce52d2a3173606763bb7,up,1,0.5643,0.35,1,0,2.2564,34,0,34,0,1,,,,,,,,,,
,,690555,001,2023-07-31_17h08.44.100,arm3_q,2022.2.5,Win32,60.03121623,60cd99f1d0df72833ad4346a,64c5699dae067f1f1081742c,64c7ce52d2a3173606763bb7,up,-1,0.5643,0.35,2,0,2.0138,35,0,35,0,1,,,,,,,,,,
,,690555,001,2023-07-31_17h08.44.100,arm3_q,2022.2.5,Win32,60.03121623,60cd99f1d0df72833ad4346a,64c5699dae067f1f1081742c,64c7ce52d2a3173606763bb7,down,-1,0.5643,0.35,2,0,1.5468,36,0,36,0,1,,,,,,,,,,
,,690555,001,2023-07-31_17h08.44.100,arm3_q,2022.2.5,Win32,60.03121623,60cd99f1d0df72833ad4346a,64c5699dae067f1f1081742c,64c7ce52d2a3173606763bb7,up,1,0.5643,0.35,1,0,1.8773,37,0,37,0,1,,,,,,,,,,
,,690555,001,2023-07-31_17h08.44.100,arm3_q,2022.2.5,Win32,60.03121623,60cd99f1d0df72833ad4346a,64c5699dae067f1f1081742c,64c7ce52d2a3173606763bb7,down,-1,0.5643,0.35,1,0,1.2567,38,0,38,0,1,,,,,,,,,,
,,690555,001,2023-07-31_17h08.44.100,arm3_q,2022.2.5,Win32,60.03121623,60cd99f1d0df72833ad4346a,64c5699dae067f1f1081742c,64c7ce52d2a3173606763bb7,down,-1,0.5643,0.35,2,0,2.3361,39,0,39,0,1,,,,,,,,,,
,,690555,001,2023-07-31_17h08.44.100,arm3_q,2022.2.5,Win32,60.03121623,60cd99f1d0df72833ad4346a,64c5699dae067f1f1081742c,64c7ce52d2a3173606763bb7,up,-1,0.5643,0.35,2,0,10.7685,40,0,40,0,1,,,,,,,,,,
,,690555,001,2023-07-31_17h08.44.100,arm3_q,2022.2.5,Win32,60.03121623,60cd99f1d0df72833ad4346a,64c5699dae067f1f1081742c,64c7ce52d2a3173606763bb7,up,-1,0.5643,0.35,2,0,2.5871,41,0,41,0,1,,,,,,,,,,
,,690555,001,2023-07-31_17h08.44.100,arm3_q,2022.2.5,Win32,60.03121623,60cd99f1d0df72833ad4346a,64c5699dae067f1f1081742c,64c7ce52d2a3173606763bb7,down,-1,0.5643,0.35,3,0,1.6873,42,0,42,0,1,,,,,,,,,,
,,690555,001,2023-07-31_17h08.44.100,arm3_q,2022.2.5,Win32,60.03121623,60cd99f1d0df72833ad4346a,64c5699dae067f1f1081742c,64c7ce52d2a3173606763bb7,down,1,0.5643,0.35,4,0,2.0601,43,0,43,0,1,,,,,,,,,,
,,690555,001,2023-07-31_17h08.44.100,arm3_q,2022.2.5,Win32,60.03121623,60cd99f1d0df72833ad4346a,64c5699dae067f1f1081742c,64c7ce52d2a3173606763bb7,up,1,0.5643,0.35,4,0,4.1521,44,0,44,0,1,,,,,,,,,,
,,690555,001,2023-07-31_17h08.44.100,arm3_q,2022.2.5,Win32,60.03121623,60cd99f1d0df72833ad4346a,64c5699dae067f1f1081742c,64c7ce52d2a3173606763bb7,up,1,0.5643,0.35,4,0,1.535,45,0,45,0,1,,,,,,,,,,
,,690555,001,2023-07-31_17h08.44.100,arm3_q,2022.2.5,Win32,60.03121623,60cd99f1d0df72833ad4346a,64c5699dae067f1f1081742c,64c7ce52d2a3173606763bb7,up,1,0.5643,0.35,4,0,2.3816,46,0,46,0,1,,,,,,,,,,
,,690555,001,2023-07-31_17h08.44.100,arm3_q,2022.2.5,Win32,60.03121623,60cd99f1d0df72833ad4346a,64c5699dae067f1f1081742c,64c7ce52d2a3173606763bb7,down,-1,0.5643,0.35,3,0,1.9217,47,0,47,0,1,,,,,,,,,,
,,690555,001,2023-07-31_17h08.44.100,arm3_q,2022.2.5,Win32,60.03121623,60cd99f1d0df72833ad4346a,64c5699dae067f1f1081742c,64c7ce52d2a3173606763bb7,up,1,0.5643,0.35,2,0,1.6084,48,0,48,0,1,,,,,,,,,,
,,690555,001,2023-07-31_17h08.44.100,arm3_q,2022.2.5,Win32,60.03121623,60cd99f1d0df72833ad4346a,64c5699dae067f1f1081742c,64c7ce52d2a3173606763bb7,down,1,0.5643,0.35,2,0,1.6016,49,0,49,0,1,,,,,,,,,,
space,20.0554,690555,001,2023-07-31_17h08.44.100,arm3_q,2022.2.5,Win32,60.03121623,60cd99f1d0df72833ad4346a,64c5699dae067f1f1081742c,64c7ce52d2a3173606763bb7,,,,,,,,,,,,,,,,,,,,,,
space,17.9681,690555,001,2023-07-31_17h08.44.100,arm3_q,2022.2.5,Win32,60.03121623,60cd99f1d0df72833ad4346a,64c5699dae067f1f1081742c,64c7ce52d2a3173606763bb7,,,,,,,,,,,,,,,,,,,,,,
space,1.2529,690555,001,2023-07-31_17h08.44.100,arm3_q,2022.2.5,Win32,60.03121623,60cd99f1d0df72833ad4346a,64c5699dae067f1f1081742c,64c7ce52d2a3173606763bb7,,,,,,,,,,,,,,,,,,,,,,
,,690555,001,2023-07-31_17h08.44.100,arm3_q,2022.2.5,Win32,60.03121623,60cd99f1d0df72833ad4346a,64c5699dae067f1f1081742c,64c7ce52d2a3173606763bb7,down,1,0.95,0.35,-1,0,2.0116,0,0,0,0,1,,,,,,,,,,
,,690555,001,2023-07-31_17h08.44.100,arm3_q,2022.2.5,Win32,60.03121623,60cd99f1d0df72833ad4346a,64c5699dae067f1f1081742c,64c7ce52d2a3173606763bb7,down,-1,0.95,0.35,-2,0,2.0326,1,0,1,0,1,,,,,,,,,,
,,690555,001,2023-07-31_17h08.44.100,arm3_q,2022.2.5,Win32,60.03121623,60cd99f1d0df72833ad4346a,64c5699dae067f1f1081742c,64c7ce52d2a3173606763bb7,up,-1,0.95,0.35,-3,0,0.8706,2,0,2,0,1,,,,,,,,,,
,,690555,001,2023-07-31_17h08.44.100,arm3_q,2022.2.5,Win32,60.03121623,60cd99f1d0df72833ad4346a,64c5699dae067f1f1081742c,64c7ce52d2a3173606763bb7,down,1,0.95,0.35,-2,0,2.7594,3,0,3,0,1,,,,,,,,,,
,,690555,001,2023-07-31_17h08.44.100,arm3_q,2022.2.5,Win32,60.03121623,60cd99f1d0df72833ad4346a,64c5699dae067f1f1081742c,64c7ce52d2a3173606763bb7,up,1,0.95,0.35,-1,0,2.4266,4,0,4,0,1,,,,,,,,,,
,,690555,001,2023-07-31_17h08.44.100,arm3_q,2022.2.5,Win32,60.03121623,60cd99f1d0df72833ad4346a,64c5699dae067f1f1081742c,64c7ce52d2a3173606763bb7,down,-1,0.95,0.35,-2,0,2.2595,5,0,5,0,1,,,,,,,,,,
,,690555,001,2023-07-31_17h08.44.100,arm3_q,2022.2.5,Win32,60.03121623,60cd99f1d0df72833ad4346a,64c5699dae067f1f1081742c,64c7ce52d2a3173606763bb7,up,-1,0.95,0.35,-3,0,1.2092,6,0,6,0,1,,,,,,,,,,
,,690555,001,2023-07-31_17h08.44.100,arm3_q,2022.2.5,Win32,60.03121623,60cd99f1d0df72833ad4346a,64c5699dae067f1f1081742c,64c7ce52d2a3173606763bb7,down,-1,0.95,0.35,-2,0,1.2034,7,0,7,0,1,,,,,,,,,,
,,690555,001,2023-07-31_17h08.44.100,arm3_q,2022.2.5,Win32,60.03121623,60cd99f1d0df72833ad4346a,64c5699dae067f1f1081742c,64c7ce52d2a3173606763bb7,down,-1,0.95,0.35,-1,0,2.8778,8,0,8,0,1,,,,,,,,,,
,,690555,001,2023-07-31_17h08.44.100,arm3_q,2022.2.5,Win32,60.03121623,60cd99f1d0df72833ad4346a,64c5699dae067f1f1081742c,64c7ce52d2a3173606763bb7,up,-1,0.95,0.35,-1,0,1.8146,9,0,9,0,1,,,,,,,,,,
,,690555,001,2023-07-31_17h08.44.100,arm3_q,2022.2.5,Win32,60.03121623,60cd99f1d0df72833ad4346a,64c5699dae067f1f1081742c,64c7ce52d2a3173606763bb7,up,1,0.95,0.35,-2,0,7.3259,10,0,10,0,1,,,,,,,,,,
,,690555,001,2023-07-31_17h08.44.100,arm3_q,2022.2.5,Win32,60.03121623,60cd99f1d0df72833ad4346a,64c5699dae067f1f1081742c,64c7ce52d2a3173606763bb7,down,-1,0.95,0.35,-3,0,1.2392,11,0,11,0,1,,,,,,,,,,
,,690555,001,2023-07-31_17h08.44.100,arm3_q,2022.2.5,Win32,60.03121623,60cd99f1d0df72833ad4346a,64c5699dae067f1f1081742c,64c7ce52d2a3173606763bb7,up,-1,0.95,0.35,-4,0,0.9278,12,0,12,0,1,,,,,,,,,,
,,690555,001,2023-07-31_17h08.44.100,arm3_q,2022.2.5,Win32,60.03121623,60cd99f1d0df72833ad4346a,64c5699dae067f1f1081742c,64c7ce52d2a3173606763bb7,down,-1,0.95,0.35,-3,0,1.6948,13,0,13,0,1,,,,,,,,,,
,,690555,001,2023-07-31_17h08.44.100,arm3_q,2022.2.5,Win32,60.03121623,60cd99f1d0df72833ad4346a,64c5699dae067f1f1081742c,64c7ce52d2a3173606763bb7,down,1,0.95,0.35,-2,0,1.0271,14,0,14,0,1,,,,,,,,,,
,,690555,001,2023-07-31_17h08.44.100,arm3_q,2022.2.5,Win32,60.03121623,60cd99f1d0df72833ad4346a,64c5699dae067f1f1081742c,64c7ce52d2a3173606763bb7,down,-1,0.95,0.35,-3,0,0.21,15,0,15,0,1,,,,,,,,,,
,,690555,001,2023-07-31_17h08.44.100,arm3_q,2022.2.5,Win32,60.03121623,60cd99f1d0df72833ad4346a,64c5699dae067f1f1081742c,64c7ce52d2a3173606763bb7,up,-1,0.95,0.35,-4,0,2.2699,16,0,16,0,1,,,,,,,,,,
,,690555,001,2023-07-31_17h08.44.100,arm3_q,2022.2.5,Win32,60.03121623,60cd99f1d0df72833ad4346a,64c5699dae067f1f1081742c,64c7ce52d2a3173606763bb7,down,-1,0.95,0.35,-3,0,1.0887,17,0,17,0,1,,,,,,,,,,
,,690555,001,2023-07-31_17h08.44.100,arm3_q,2022.2.5,Win32,60.03121623,60cd99f1d0df72833ad4346a,64c5699dae067f1f1081742c,64c7ce52d2a3173606763bb7,down,-1,0.95,0.35,-2,0,1.4853,18,0,18,0,1,,,,,,,,,,
,,690555,001,2023-07-31_17h08.44.100,arm3_q,2022.2.5,Win32,60.03121623,60cd99f1d0df72833ad4346a,64c5699dae067f1f1081742c,64c7ce52d2a3173606763bb7,up,-1,0.95,0.35,-3,0,1.6118,19,0,19,0,1,,,,,,,,,,
,,690555,001,2023-07-31_17h08.44.100,arm3_q,2022.2.5,Win32,60.03121623,60cd99f1d0df72833ad4346a,64c5699dae067f1f1081742c,64c7ce52d2a3173606763bb7,down,-1,0.95,0.35,-2,0,0.997,20,0,20,0,1,,,,,,,,,,
,,690555,001,2023-07-31_17h08.44.100,arm3_q,2022.2.5,Win32,60.03121623,60cd99f1d0df72833ad4346a,64c5699dae067f1f1081742c,64c7ce52d2a3173606763bb7,down,-1,0.95,0.35,-1,0,1.7456,21,0,21,0,1,,,,,,,,,,
,,690555,001,2023-07-31_17h08.44.100,arm3_q,2022.2.5,Win32,60.03121623,60cd99f1d0df72833ad4346a,64c5699dae067f1f1081742c,64c7ce52d2a3173606763bb7,down,-1,0.95,0.35,0,0,1.4837,22,0,22,0,1,,,,,,,,,,
,,690555,001,2023-07-31_17h08.44.100,arm3_q,2022.2.5,Win32,60.03121623,60cd99f1d0df72833ad4346a,64c5699dae067f1f1081742c,64c7ce52d2a3173606763bb7,down,-1,0.95,0.35,1,0,1.6185,23,0,23,0,1,,,,,,,,,,
,,690555,001,2023-07-31_17h08.44.100,arm3_q,2022.2.5,Win32,60.03121623,60cd99f1d0df72833ad4346a,64c5699dae067f1f1081742c,64c7ce52d2a3173606763bb7,down,1,0.95,0.35,2,0,1.0449,24,0,24,0,1,,,,,,,,,,
,,690555,001,2023-07-31_17h08.44.100,arm3_q,2022.2.5,Win32,60.03121623,60cd99f1d0df72833ad4346a,64c5699dae067f1f1081742c,64c7ce52d2a3173606763bb7,down,1,0.95,0.35,1,0,1.5607,25,0,25,0,1,,,,,,,,,,
,,690555,001,2023-07-31_17h08.44.100,arm3_q,2022.2.5,Win32,60.03121623,60cd99f1d0df72833ad4346a,64c5699dae067f1f1081742c,64c7ce52d2a3173606763bb7,up,1,0.95,0.35,2,0,1.5703,26,0,26,0,1,,,,,,,,,,
,,690555,001,2023-07-31_17h08.44.100,arm3_q,2022.2.5,Win32,60.03121623,60cd99f1d0df72833ad4346a,64c5699dae067f1f1081742c,64c7ce52d2a3173606763bb7,up,1,0.95,0.35,2,0,1.6283,27,0,27,0,1,,,,,,,,,,
,,690555,001,2023-07-31_17h08.44.100,arm3_q,2022.2.5,Win32,60.03121623,60cd99f1d0df72833ad4346a,64c5699dae067f1f1081742c,64c7ce52d2a3173606763bb7,up,1,0.95,0.35,3,0,2.3267,28,0,28,0,1,,,,,,,,,,
,,690555,001,2023-07-31_17h08.44.100,arm3_q,2022.2.5,Win32,60.03121623,60cd99f1d0df72833ad4346a,64c5699dae067f1f1081742c,64c7ce52d2a3173606763bb7,up,1,0.95,0.35,4,0,1.561,29,0,29,0,1,,,,,,,,,,
,,690555,001,2023-07-31_17h08.44.100,arm3_q,2022.2.5,Win32,60.03121623,60cd99f1d0df72833ad4346a,64c5699dae067f1f1081742c,64c7ce52d2a3173606763bb7,down,-1,0.95,0.35,3,0,2.582,30,0,30,0,1,,,,,,,,,,
,,690555,001,2023-07-31_17h08.44.100,arm3_q,2022.2.5,Win32,60.03121623,60cd99f1d0df72833ad4346a,64c5699dae067f1f1081742c,64c7ce52d2a3173606763bb7,up,-1,0.95,0.35,2,0,1.3926,31,0,31,0,1,,,,,,,,,,
,,690555,001,2023-07-31_17h08.44.100,arm3_q,2022.2.5,Win32,60.03121623,60cd99f1d0df72833ad4346a,64c5699dae067f1f1081742c,64c7ce52d2a3173606763bb7,down,-1,0.95,0.35,3,0,0.9737,32,0,32,0,1,,,,,,,,,,
,,690555,001,2023-07-31_17h08.44.100,arm3_q,2022.2.5,Win32,60.03121623,60cd99f1d0df72833ad4346a,64c5699dae067f1f1081742c,64c7ce52d2a3173606763bb7,down,-1,0.95,0.35,4,0,2.5006,33,0,33,0,1,,,,,,,,,,
,,690555,001,2023-07-31_17h08.44.100,arm3_q,2022.2.5,Win32,60.03121623,60cd99f1d0df72833ad4346a,64c5699dae067f1f1081742c,64c7ce52d2a3173606763bb7,down,-1,0.95,0.35,5,0,1.2315,34,0,34,0,1,,,,,,,,,,
,,690555,001,2023-07-31_17h08.44.100,arm3_q,2022.2.5,Win32,60.03121623,60cd99f1d0df72833ad4346a,64c5699dae067f1f1081742c,64c7ce52d2a3173606763bb7,up,-1,0.95,0.35,4,0,2.4739,35,0,35,0,1,,,,,,,,,,
,,690555,001,2023-07-31_17h08.44.100,arm3_q,2022.2.5,Win32,60.03121623,60cd99f1d0df72833ad4346a,64c5699dae067f1f1081742c,64c7ce52d2a3173606763bb7,down,1,0.95,0.35,5,0,1.01,36,0,36,0,1,,,,,,,,,,
,,690555,001,2023-07-31_17h08.44.100,arm3_q,2022.2.5,Win32,60.03121623,60cd99f1d0df72833ad4346a,64c5699dae067f1f1081742c,64c7ce52d2a3173606763bb7,down,1,0.95,0.35,4,0,1.3522,37,0,37,0,1,,,,,,,,,,
,,690555,001,2023-07-31_17h08.44.100,arm3_q,2022.2.5,Win32,60.03121623,60cd99f1d0df72833ad4346a,64c5699dae067f1f1081742c,64c7ce52d2a3173606763bb7,up,-1,0.95,0.35,5,0,1.1042,38,0,38,0,1,,,,,,,,,,
,,690555,001,2023-07-31_17h08.44.100,arm3_q,2022.2.5,Win32,60.03121623,60cd99f1d0df72833ad4346a,64c5699dae067f1f1081742c,64c7ce52d2a3173606763bb7,up,-1,0.95,0.35,4,0,2.2762,39,0,39,0,1,,,,,,,,,,
,,690555,001,2023-07-31_17h08.44.100,arm3_q,2022.2.5,Win32,60.03121623,60cd99f1d0df72833ad4346a,64c5699dae067f1f1081742c,64c7ce52d2a3173606763bb7,down,1,0.95,0.35,5,0,0.847,40,0,40,0,1,,,,,,,,,,
,,690555,001,2023-07-31_17h08.44.100,arm3_q,2022.2.5,Win32,60.03121623,60cd99f1d0df72833ad4346a,64c5699dae067f1f1081742c,64c7ce52d2a3173606763bb7,down,1,0.95,0.35,4,0,0.9614,41,0,41,0,1,,,,,,,,,,
,,690555,001,2023-07-31_17h08.44.100,arm3_q,2022.2.5,Win32,60.03121623,60cd99f1d0df72833ad4346a,64c5699dae067f1f1081742c,64c7ce52d2a3173606763bb7,up,1,0.95,0.35,5,0,0.9793,42,0,42,0,1,,,,,,,,,,
,,690555,001,2023-07-31_17h08.44.100,arm3_q,2022.2.5,Win32,60.03121623,60cd99f1d0df72833ad4346a,64c5699dae067f1f1081742c,64c7ce52d2a3173606763bb7,up,-1,0.95,0.35,6,0,1.0115,43,0,43,0,1,,,,,,,,,,
,,690555,001,2023-07-31_17h08.44.100,arm3_q,2022.2.5,Win32,60.03121623,60cd99f1d0df72833ad4346a,64c5699dae067f1f1081742c,64c7ce52d2a3173606763bb7,up,-1,0.95,0.35,5,0,1.8037,44,0,44,0,1,,,,,,,,,,
,,690555,001,2023-07-31_17h08.44.100,arm3_q,2022.2.5,Win32,60.03121623,60cd99f1d0df72833ad4346a,64c5699dae067f1f1081742c,64c7ce52d2a3173606763bb7,down,-1,0.95,0.35,6,0,0.9183,45,0,45,0,1,,,,,,,,,,
,,690555,001,2023-07-31_17h08.44.100,arm3_q,2022.2.5,Win32,60.03121623,60cd99f1d0df72833ad4346a,64c5699dae067f1f1081742c,64c7ce52d2a3173606763bb7,down,-1,0.95,0.35,7,0,1.4192,46,0,46,0,1,,,,,,,,,,
,,690555,001,2023-07-31_17h08.44.100,arm3_q,2022.2.5,Win32,60.03121623,60cd99f1d0df72833ad4346a,64c5699dae067f1f1081742c,64c7ce52d2a3173606763bb7,down,-1,0.95,0.35,8,0,1.7038,47,0,47,0,1,,,,,,,,,,
,,690555,001,2023-07-31_17h08.44.100,arm3_q,2022.2.5,Win32,60.03121623,60cd99f1d0df72833ad4346a,64c5699dae067f1f1081742c,64c7ce52d2a3173606763bb7,down,1,0.95,0.35,9,0,1.9805,48,0,48,0,1,,,,,,,,,,
,,690555,001,2023-07-31_17h08.44.100,arm3_q,2022.2.5,Win32,60.03121623,60cd99f1d0df72833ad4346a,64c5699dae067f1f1081742c,64c7ce52d2a3173606763bb7,down,1,0.95,0.35,9,0,1.9765,49,0,49,0,1,,,,,,,,,,
space,33.8633,690555,001,2023-07-31_17h08.44.100,arm3_q,2022.2.5,Win32,60.03121623,60cd99f1d0df72833ad4346a,64c5699dae067f1f1081742c,64c7ce52d2a3173606763bb7,,,,,,,,,,,,,,,,,,,,,,
space,1.1843,690555,001,2023-07-31_17h08.44.100,arm3_q,2022.2.5,Win32,60.03121623,60cd99f1d0df72833ad4346a,64c5699dae067f1f1081742c,64c7ce52d2a3173606763bb7,,,,,,,,,,,,,,,,,,,,,,
,,690555,001,2023-07-31_17h08.44.100,arm3_q,2022.2.5,Win32,60.03121623,60cd99f1d0df72833ad4346a,64c5699dae067f1f1081742c,64c7ce52d2a3173606763bb7,up,1,0.05,0.35,1,0,1.4286,0,0,0,0,1,,,,,,,,,,
,,690555,001,2023-07-31_17h08.44.100,arm3_q,2022.2.5,Win32,60.03121623,60cd99f1d0df72833ad4346a,64c5699dae067f1f1081742c,64c7ce52d2a3173606763bb7,up,1,0.05,0.35,1,0,1.0216,1,0,1,0,1,,,,,,,,,,
,,690555,001,2023-07-31_17h08.44.100,arm3_q,2022.2.5,Win32,60.03121623,60cd99f1d0df72833ad4346a,64c5699dae067f1f1081742c,64c7ce52d2a3173606763bb7,up,1,0.05,0.35,1,0,3.1777,2,0,2,0,1,,,,,,,,,,
,,690555,001,2023-07-31_17h08.44.100,arm3_q,2022.2.5,Win32,60.03121623,60cd99f1d0df72833ad4346a,64c5699dae067f1f1081742c,64c7ce52d2a3173606763bb7,down,-1,0.05,0.35,1,0,1.1192,3,0,3,0,1,,,,,,,,,,
,,690555,001,2023-07-31_17h08.44.100,arm3_q,2022.2.5,Win32,60.03121623,60cd99f1d0df72833ad4346a,64c5699dae067f1f1081742c,64c7ce52d2a3173606763bb7,up,1,0.05,0.35,1,0,1.102,4,0,4,0,1,,,,,,,,,,
,,690555,001,2023-07-31_17h08.44.100,arm3_q,2022.2.5,Win32,60.03121623,60cd99f1d0df72833ad4346a,64c5699dae067f1f1081742c,64c7ce52d2a3173606763bb7,up,-1,0.05,0.35,1,0,1.6536,5,0,5,0,1,,,,,,,,,,
,,690555,001,2023-07-31_17h08.44.100,arm3_q,2022.2.5,Win32,60.03121623,60cd99f1d0df72833ad4346a,64c5699dae067f1f1081742c,64c7ce52d2a3173606763bb7,down,1,0.05,0.35,1,0,0.9695,6,0,6,0,1,,,,,,,,,,
,,690555,001,2023-07-31_17h08.44.100,arm3_q,2022.2.5,Win32,60.03121623,60cd99f1d0df72833ad4346a,64c5699dae067f1f1081742c,64c7ce52d2a3173606763bb7,down,1,0.05,0.35,1,0,1.6609,7,0,7,0,1,,,,,,,,,,
,,690555,001,2023-07-31_17h08.44.100,arm3_q,2022.2.5,Win32,60.03121623,60cd99f1d0df72833ad4346a,64c5699dae067f1f1081742c,64c7ce52d2a3173606763bb7,up,1,0.05,0.35,1,0,1.1156,8,0,8,0,1,,,,,,,,,,
,,690555,001,2023-07-31_17h08.44.100,arm3_q,2022.2.5,Win32,60.03121623,60cd99f1d0df72833ad4346a,64c5699dae067f1f1081742c,64c7ce52d2a3173606763bb7,up,1,0.05,0.35,1,0,1.2101,9,0,9,0,1,,,,,,,,,,
,,690555,001,2023-07-31_17h08.44.100,arm3_q,2022.2.5,Win32,60.03121623,60cd99f1d0df72833ad4346a,64c5699dae067f1f1081742c,64c7ce52d2a3173606763bb7,up,-1,0.05,0.35,1,0,1.4984,10,0,10,0,1,,,,,,,,,,
,,690555,001,2023-07-31_17h08.44.100,arm3_q,2022.2.5,Win32,60.03121623,60cd99f1d0df72833ad4346a,64c5699dae067f1f1081742c,64c7ce52d2a3173606763bb7,down,1,0.05,0.35,1,0,1.1126,11,0,11,0,1,,,,,,,,,,
,,690555,001,2023-07-31_17h08.44.100,arm3_q,2022.2.5,Win32,60.03121623,60cd99f1d0df72833ad4346a,64c5699dae067f1f1081742c,64c7ce52d2a3173606763bb7,down,1,0.05,0.35,1,0,0.9268,12,0,12,0,1,,,,,,,,,,
,,690555,001,2023-07-31_17h08.44.100,arm3_q,2022.2.5,Win32,60.03121623,60cd99f1d0df72833ad4346a,64c5699dae067f1f1081742c,64c7ce52d2a3173606763bb7,up,1,0.05,0.35,1,0,1.1323,13,0,13,0,1,,,,,,,,,,
,,690555,001,2023-07-31_17h08.44.100,arm3_q,2022.2.5,Win32,60.03121623,60cd99f1d0df72833ad4346a,64c5699dae067f1f1081742c,64c7ce52d2a3173606763bb7,up,-1,0.05,0.35,1,0,1.5265,14,0,14,0,1,,,,,,,,,,
,,690555,001,2023-07-31_17h08.44.100,arm3_q,2022.2.5,Win32,60.03121623,60cd99f1d0df72833ad4346a,64c5699dae067f1f1081742c,64c7ce52d2a3173606763bb7,up,1,0.05,0.35,1,0,1.9169,15,0,15,0,1,,,,,,,,,,
,,690555,001,2023-07-31_17h08.44.100,arm3_q,2022.2.5,Win32,60.03121623,60cd99f1d0df72833ad4346a,64c5699dae067f1f1081742c,64c7ce52d2a3173606763bb7,down,-1,0.05,0.35,1,0,1.1206,16,0,16,0,1,,,,,,,,,,
,,690555,001,2023-07-31_17h08.44.100,arm3_q,2022.2.5,Win32,60.03121623,60cd99f1d0df72833ad4346a,64c5699dae067f1f1081742c,64c7ce52d2a3173606763bb7,up,-1,0.05,0.35,1,0,0.9851,17,0,17,0,1,,,,,,,,,,
,,690555,001,2023-07-31_17h08.44.100,arm3_q,2022.2.5,Win32,60.03121623,60cd99f1d0df72833ad4346a,64c5699dae067f1f1081742c,64c7ce52d2a3173606763bb7,up,1,0.05,0.35,1,0,1.2448,18,0,18,0,1,,,,,,,,,,
,,690555,001,2023-07-31_17h08.44.100,arm3_q,2022.2.5,Win32,60.03121623,60cd99f1d0df72833ad4346a,64c5699dae067f1f1081742c,64c7ce52d2a3173606763bb7,down,1,0.05,0.35,1,0,2.1433,19,0,19,0,1,,,,,,,,,,
,,690555,001,2023-07-31_17h08.44.100,arm3_q,2022.2.5,Win32,60.03121623,60cd99f1d0df72833ad4346a,64c5699dae067f1f1081742c,64c7ce52d2a3173606763bb7,up,1,0.05,0.35,1,0,1.0284,20,0,20,0,1,,,,,,,,,,
,,690555,001,2023-07-31_17h08.44.100,arm3_q,2022.2.5,Win32,60.03121623,60cd99f1d0df72833ad4346a,64c5699dae067f1f1081742c,64c7ce52d2a3173606763bb7,up,-1,0.05,0.35,1,0,1.155,21,0,21,0,1,,,,,,,,,,
,,690555,001,2023-07-31_17h08.44.100,arm3_q,2022.2.5,Win32,60.03121623,60cd99f1d0df72833ad4346a,64c5699dae067f1f1081742c,64c7ce52d2a3173606763bb7,down,-1,0.05,0.35,1,0,0.8387,22,0,22,0,1,,,,,,,,,,
,,690555,001,2023-07-31_17h08.44.100,arm3_q,2022.2.5,Win32,60.03121623,60cd99f1d0df72833ad4346a,64c5699dae067f1f1081742c,64c7ce52d2a3173606763bb7,down,-1,0.05,0.35,1,0,0.8104,23,0,23,0,1,,,,,,,,,,
,,690555,001,2023-07-31_17h08.44.100,arm3_q,2022.2.5,Win32,60.03121623,60cd99f1d0df72833ad4346a,64c5699dae067f1f1081742c,64c7ce52d2a3173606763bb7,up,-1,0.05,0.35,1,0,1.4694,24,0,24,0,1,,,,,,,,,,
,,690555,001,2023-07-31_17h08.44.100,arm3_q,2022.2.5,Win32,60.03121623,60cd99f1d0df72833ad4346a,64c5699dae067f1f1081742c,64c7ce52d2a3173606763bb7,up,1,0.05,0.35,1,0,1.0164,25,0,25,0,1,,,,,,,,,,
,,690555,001,2023-07-31_17h08.44.100,arm3_q,2022.2.5,Win32,60.03121623,60cd99f1d0df72833ad4346a,64c5699dae067f1f1081742c,64c7ce52d2a3173606763bb7,up,1,0.05,0.35,1,0,1.4655,26,0,26,0,1,,,,,,,,,,
,,690555,001,2023-07-31_17h08.44.100,arm3_q,2022.2.5,Win32,60.03121623,60cd99f1d0df72833ad4346a,64c5699dae067f1f1081742c,64c7ce52d2a3173606763bb7,down,-1,0.05,0.35,0,0,0.9114,27,0,27,0,1,,,,,,,,,,
,,690555,001,2023-07-31_17h08.44.100,arm3_q,2022.2.5,Win32,60.03121623,60cd99f1d0df72833ad4346a,64c5699dae067f1f1081742c,64c7ce52d2a3173606763bb7,up,-1,0.05,0.35,0,0,1.2118,28,0,28,0,1,,,,,,,,,,
,,690555,001,2023-07-31_17h08.44.100,arm3_q,2022.2.5,Win32,60.03121623,60cd99f1d0df72833ad4346a,64c5699dae067f1f1081742c,64c7ce52d2a3173606763bb7,up,-1,0.05,0.35,-1,0,1.7535,29,0,29,0,1,,,,,,,,,,
,,690555,001,2023-07-31_17h08.44.100,arm3_q,2022.2.5,Win32,60.03121623,60cd99f1d0df72833ad4346a,64c5699dae067f1f1081742c,64c7ce52d2a3173606763bb7,down,1,0.05,0.35,-1,0,1.0484,30,0,30,0,1,,,,,,,,,,
,,690555,001,2023-07-31_17h08.44.100,arm3_q,2022.2.5,Win32,60.03121623,60cd99f1d0df72833ad4346a,64c5699dae067f1f1081742c,64c7ce52d2a3173606763bb7,down,1,0.05,0.35,-2,0,1.0204,31,0,31,0,1,,,,,,,,,,
,,690555,001,2023-07-31_17h08.44.100,arm3_q,2022.2.5,Win32,60.03121623,60cd99f1d0df72833ad4346a,64c5699dae067f1f1081742c,64c7ce52d2a3173606763bb7,up,-1,0.05,0.35,-2,0,0.8948,32,0,32,0,1,,,,,,,,,,
,,690555,001,2023-07-31_17h08.44.100,arm3_q,2022.2.5,Win32,60.03121623,60cd99f1d0df72833ad4346a,64c5699dae067f1f1081742c,64c7ce52d2a3173606763bb7,up,1,0.05,0.35,-2,0,0.8703,33,0,33,0,1,,,,,,,,,,
,,690555,001,2023-07-31_17h08.44.100,arm3_q,2022.2.5,Win32,60.03121623,60cd99f1d0df72833ad4346a,64c5699dae067f1f1081742c,64c7ce52d2a3173606763bb7,down,1,0.05,0.35,-2,0,0.8684,34,0,34,0,1,,,,,,,,,,
,,690555,001,2023-07-31_17h08.44.100,arm3_q,2022.2.5,Win32,60.03121623,60cd99f1d0df72833ad4346a,64c5699dae067f1f1081742c,64c7ce52d2a3173606763bb7,up,-1,0.05,0.35,-2,0,1.6618,35,0,35,0,1,,,,,,,,,,
,,690555,001,2023-07-31_17h08.44.100,arm3_q,2022.2.5,Win32,60.03121623,60cd99f1d0df72833ad4346a,64c5699dae067f1f1081742c,64c7ce52d2a3173606763bb7,down,-1,0.05,0.35,-2,0,0.794,36,0,36,0,1,,,,,,,,,,
,,690555,001,2023-07-31_17h08.44.100,arm3_q,2022.2.5,Win32,60.03121623,60cd99f1d0df72833ad4346a,64c5699dae067f1f1081742c,64c7ce52d2a3173606763bb7,down,1,0.05,0.35,-2,0,1.2282,37,0,37,0,1,,,,,,,,,,
,,690555,001,2023-07-31_17h08.44.100,arm3_q,2022.2.5,Win32,60.03121623,60cd99f1d0df72833ad4346a,64c5699dae067f1f1081742c,64c7ce52d2a3173606763bb7,up,1,0.05,0.35,-2,0,0.7973,38,0,38,0,1,,,,,,,,,,
,,690555,001,2023-07-31_17h08.44.100,arm3_q,2022.2.5,Win32,60.03121623,60cd99f1d0df72833ad4346a,64c5699dae067f1f1081742c,64c7ce52d2a3173606763bb7,up,1,0.05,0.35,-2,0,1.4496,39,0,39,0,1,,,,,,,,,,
,,690555,001,2023-07-31_17h08.44.100,arm3_q,2022.2.5,Win32,60.03121623,60cd99f1d0df72833ad4346a,64c5699dae067f1f1081742c,64c7ce52d2a3173606763bb7,up,-1,0.05,0.35,-2,0,0.9971,40,0,40,0,1,,,,,,,,,,
,,690555,001,2023-07-31_17h08.44.100,arm3_q,2022.2.5,Win32,60.03121623,60cd99f1d0df72833ad4346a,64c5699dae067f1f1081742c,64c7ce52d2a3173606763bb7,down,1,0.05,0.35,-2,0,1.4283,41,0,41,0,1,,,,,,,,,,
,,690555,001,2023-07-31_17h08.44.100,arm3_q,2022.2.5,Win32,60.03121623,60cd99f1d0df72833ad4346a,64c5699dae067f1f1081742c,64c7ce52d2a3173606763bb7,up,1,0.05,0.35,-2,0,0.9039,42,0,42,0,1,,,,,,,,,,
,,690555,001,2023-07-31_17h08.44.100,arm3_q,2022.2.5,Win32,60.03121623,60cd99f1d0df72833ad4346a,64c5699dae067f1f1081742c,64c7ce52d2a3173606763bb7,up,1,0.05,0.35,-1,0,1.2669,43,0,43,0,1,,,,,,,,,,
,,690555,001,2023-07-31_17h08.44.100,arm3_q,2022.2.5,Win32,60.03121623,60cd99f1d0df72833ad4346a,64c5699dae067f1f1081742c,64c7ce52d2a3173606763bb7,down,1,0.05,0.35,-1,0,2.7252,44,0,44,0,1,,,,,,,,,,
,,690555,001,2023-07-31_17h08.44.100,arm3_q,2022.2.5,Win32,60.03121623,60cd99f1d0df72833ad4346a,64c5699dae067f1f1081742c,64c7ce52d2a3173606763bb7,up,1,0.05,0.35,-1,0,1.1601,45,0,45,0,1,,,,,,,,,,
,,690555,001,2023-07-31_17h08.44.100,arm3_q,2022.2.5,Win32,60.03121623,60cd99f1d0df72833ad4346a,64c5699dae067f1f1081742c,64c7ce52d2a3173606763bb7,up,1,0.05,0.35,-1,0,1.2054,46,0,46,0,1,,,,,,,,,,
,,690555,001,2023-07-31_17h08.44.100,arm3_q,2022.2.5,Win32,60.03121623,60cd99f1d0df72833ad4346a,64c5699dae067f1f1081742c,64c7ce52d2a3173606763bb7,down,1,0.05,0.35,-1,0,1.2481,47,0,47,0,1,,,,,,,,,,
,,690555,001,2023-07-31_17h08.44.100,arm3_q,2022.2.5,Win32,60.03121623,60cd99f1d0df72833ad4346a,64c5699dae067f1f1081742c,64c7ce52d2a3173606763bb7,up,1,0.05,0.35,-1,0,1.2473,48,0,48,0,1,,,,,,,,,,
,,690555,001,2023-07-31_17h08.44.100,arm3_q,2022.2.5,Win32,60.03121623,60cd99f1d0df72833ad4346a,64c5699dae067f1f1081742c,64c7ce52d2a3173606763bb7,up,1,0.05,0.35,-1,0,1.5981,49,0,49,0,1,,,,,,,,,,
space,4.3142,690555,001,2023-07-31_17h08.44.100,arm3_q,2022.2.5,Win32,60.03121623,60cd99f1d0df72833ad4346a,64c5699dae067f1f1081742c,64c7ce52d2a3173606763bb7,,,,,,,,,,,,,,,,,,,,,,
space,6.7695,690555,001,2023-07-31_17h08.44.100,arm3_q,2022.2.5,Win32,60.03121623,60cd99f1d0df72833ad4346a,64c5699dae067f1f1081742c,64c7ce52d2a3173606763bb7,up,1,0.4357,0.35,0,0,3.432,,,,,,0,0,0,0,1,,,,,
,,690555,001,2023-07-31_17h08.44.100,arm3_q,2022.2.5,Win32,60.03121623,60cd99f1d0df72833ad4346a,64c5699dae067f1f1081742c,64c7ce52d2a3173606763bb7,up,1,0.4357,0.35,0,0,1.5779,,,,,,1,0,1,0,1,,,,,
,,690555,001,2023-07-31_17h08.44.100,arm3_q,2022.2.5,Win32,60.03121623,60cd99f1d0df72833ad4346a,64c5699dae067f1f1081742c,64c7ce52d2a3173606763bb7,up,-1,0.4357,0.35,1,0,1.7168,,,,,,2,0,2,0,1,,,,,
,,690555,001,2023-07-31_17h08.44.100,arm3_q,2022.2.5,Win32,60.03121623,60cd99f1d0df72833ad4346a,64c5699dae067f1f1081742c,64c7ce52d2a3173606763bb7,down,-1,0.4357,0.35,1,0,2.1865,,,,,,3,0,3,0,1,,,,,
,,690555,001,2023-07-31_17h08.44.100,arm3_q,2022.2.5,Win32,60.03121623,60cd99f1d0df72833ad4346a,64c5699dae067f1f1081742c,64c7ce52d2a3173606763bb7,down,-1,0.4357,0.35,2,0,2.3666,,,,,,4,0,4,0,1,,,,,
,,690555,001,2023-07-31_17h08.44.100,arm3_q,2022.2.5,Win32,60.03121623,60cd99f1d0df72833ad4346a,64c5699dae067f1f1081742c,64c7ce52d2a3173606763bb7,up,-1,0.4357,0.35,1,0,1.1351,,,,,,5,0,5,0,1,,,,,
,,690555,001,2023-07-31_17h08.44.100,arm3_q,2022.2.5,Win32,60.03121623,60cd99f1d0df72833ad4346a,64c5699dae067f1f1081742c,64c7ce52d2a3173606763bb7,up,1,0.4357,0.35,0,0,2.0165,,,,,,6,0,6,0,1,,,,,
,,690555,001,2023-07-31_17h08.44.100,arm3_q,2022.2.5,Win32,60.03121623,60cd99f1d0df72833ad4346a,64c5699dae067f1f1081742c,64c7ce52d2a3173606763bb7,down,-1,0.4357,0.35,-1,0,1.0811,,,,,,7,0,7,0,1,,,,,
,,690555,001,2023-07-31_17h08.44.100,arm3_q,2022.2.5,Win32,60.03121623,60cd99f1d0df72833ad4346a,64c5699dae067f1f1081742c,64c7ce52d2a3173606763bb7,up,1,0.4357,0.35,-2,0,0.9616,,,,,,8,0,8,0,1,,,,,
,,690555,001,2023-07-31_17h08.44.100,arm3_q,2022.2.5,Win32,60.03121623,60cd99f1d0df72833ad4346a,64c5699dae067f1f1081742c,64c7ce52d2a3173606763bb7,up,1,0.4357,0.35,-2,0,0.9367,,,,,,9,0,9,0,1,,,,,
,,690555,001,2023-07-31_17h08.44.100,arm3_q,2022.2.5,Win32,60.03121623,60cd99f1d0df72833ad4346a,64c5699dae067f1f1081742c,64c7ce52d2a3173606763bb7,up,1,0.4357,0.35,-1,0,1.4309,,,,,,10,0,10,0,1,,,,,
,,690555,001,2023-07-31_17h08.44.100,arm3_q,2022.2.5,Win32,60.03121623,60cd99f1d0df72833ad4346a,64c5699dae067f1f1081742c,64c7ce52d2a3173606763bb7,up,1,0.4357,0.35,0,0,2.5186,,,,,,11,0,11,0,1,,,,,
,,690555,001,2023-07-31_17h08.44.100,arm3_q,2022.2.5,Win32,60.03121623,60cd99f1d0df72833ad4346a,64c5699dae067f1f1081742c,64c7ce52d2a3173606763bb7,up,1,0.4357,0.35,0,0,1.4716,,,,,,12,0,12,0,1,,,,,
,,690555,001,2023-07-31_17h08.44.100,arm3_q,2022.2.5,Win32,60.03121623,60cd99f1d0df72833ad4346a,64c5699dae067f1f1081742c,64c7ce52d2a3173606763bb7,up,-1,0.4357,0.35,1,0,0.8769,,,,,,13,0,13,0,1,,,,,
,,690555,001,2023-07-31_17h08.44.100,arm3_q,2022.2.5,Win32,60.03121623,60cd99f1d0df72833ad4346a,64c5699dae067f1f1081742c,64c7ce52d2a3173606763bb7,up,1,0.4357,0.35,1,0,1.3078,,,,,,14,0,14,0,1,,,,,
,,690555,001,2023-07-31_17h08.44.100,arm3_q,2022.2.5,Win32,60.03121623,60cd99f1d0df72833ad4346a,64c5699dae067f1f1081742c,64c7ce52d2a3173606763bb7,up,1,0.4357,0.35,2,0,1.0517,,,,,,15,0,15,0,1,,,,,
,,690555,001,2023-07-31_17h08.44.100,arm3_q,2022.2.5,Win32,60.03121623,60cd99f1d0df72833ad4346a,64c5699dae067f1f1081742c,64c7ce52d2a3173606763bb7,up,1,0.4357,0.35,3,0,0.9612,,,,,,16,0,16,0,1,,,,,
,,690555,001,2023-07-31_17h08.44.100,arm3_q,2022.2.5,Win32,60.03121623,60cd99f1d0df72833ad4346a,64c5699dae067f1f1081742c,64c7ce52d2a3173606763bb7,up,1,0.4357,0.35,4,0,1.733,,,,,,17,0,17,0,1,,,,,
,,690555,001,2023-07-31_17h08.44.100,arm3_q,2022.2.5,Win32,60.03121623,60cd99f1d0df72833ad4346a,64c5699dae067f1f1081742c,64c7ce52d2a3173606763bb7,up,-1,0.4357,0.35,4,0,0.9108,,,,,,18,0,18,0,1,,,,,
,,690555,001,2023-07-31_17h08.44.100,arm3_q,2022.2.5,Win32,60.03121623,60cd99f1d0df72833ad4346a,64c5699dae067f1f1081742c,64c7ce52d2a3173606763bb7,up,-1,0.4357,0.35,4,0,1.563,,,,,,19,0,19,0,1,,,,,
,,690555,001,2023-07-31_17h08.44.100,arm3_q,2022.2.5,Win32,60.03121623,60cd99f1d0df72833ad4346a,64c5699dae067f1f1081742c,64c7ce52d2a3173606763bb7,up,1,0.4357,0.35,3,0,0.932,,,,,,20,0,20,0,1,,,,,
,,690555,001,2023-07-31_17h08.44.100,arm3_q,2022.2.5,Win32,60.03121623,60cd99f1d0df72833ad4346a,64c5699dae067f1f1081742c,64c7ce52d2a3173606763bb7,down,-1,0.4357,0.35,2,0,2.1937,,,,,,21,0,21,0,1,,,,,
,,690555,001,2023-07-31_17h08.44.100,arm3_q,2022.2.5,Win32,60.03121623,60cd99f1d0df72833ad4346a,64c5699dae067f1f1081742c,64c7ce52d2a3173606763bb7,up,-1,0.4357,0.35,1,0,0.7948,,,,,,22,0,22,0,1,,,,,
,,690555,001,2023-07-31_17h08.44.100,arm3_q,2022.2.5,Win32,60.03121623,60cd99f1d0df72833ad4346a,64c5699dae067f1f1081742c,64c7ce52d2a3173606763bb7,up,-1,0.4357,0.35,1,0,1.2268,,,,,,23,0,23,0,1,,,,,
,,690555,001,2023-07-31_17h08.44.100,arm3_q,2022.2.5,Win32,60.03121623,60cd99f1d0df72833ad4346a,64c5699dae067f1f1081742c,64c7ce52d2a3173606763bb7,up,-1,0.4357,0.35,1,0,0.9889,,,,,,24,0,24,0,1,,,,,
,,690555,001,2023-07-31_17h08.44.100,arm3_q,2022.2.5,Win32,60.03121623,60cd99f1d0df72833ad4346a,64c5699dae067f1f1081742c,64c7ce52d2a3173606763bb7,up,-1,0.4357,0.35,0,0,1.2027,,,,,,25,0,25,0,1,,,,,
,,690555,001,2023-07-31_17h08.44.100,arm3_q,2022.2.5,Win32,60.03121623,60cd99f1d0df72833ad4346a,64c5699dae067f1f1081742c,64c7ce52d2a3173606763bb7,down,1,0.4357,0.35,0,0,0.9947,,,,,,26,0,26,0,1,,,,,
,,690555,001,2023-07-31_17h08.44.100,arm3_q,2022.2.5,Win32,60.03121623,60cd99f1d0df72833ad4346a,64c5699dae067f1f1081742c,64c7ce52d2a3173606763bb7,down,-1,0.4357,0.35,0,0,0.9489,,,,,,27,0,27,0,1,,,,,
,,690555,001,2023-07-31_17h08.44.100,arm3_q,2022.2.5,Win32,60.03121623,60cd99f1d0df72833ad4346a,64c5699dae067f1f1081742c,64c7ce52d2a3173606763bb7,down,1,0.4357,0.35,1,0,1.4105,,,,,,28,0,28,0,1,,,,,
,,690555,001,2023-07-31_17h08.44.100,arm3_q,2022.2.5,Win32,60.03121623,60cd99f1d0df72833ad4346a,64c5699dae067f1f1081742c,64c7ce52d2a3173606763bb7,down,-1,0.4357,0.35,0,0,1.5154,,,,,,29,0,29,0,1,,,,,
,,690555,001,2023-07-31_17h08.44.100,arm3_q,2022.2.5,Win32,60.03121623,60cd99f1d0df72833ad4346a,64c5699dae067f1f1081742c,64c7ce52d2a3173606763bb7,up,-1,0.4357,0.35,0,0,0.8773,,,,,,30,0,30,0,1,,,,,
,,690555,001,2023-07-31_17h08.44.100,arm3_q,2022.2.5,Win32,60.03121623,60cd99f1d0df72833ad4346a,64c5699dae067f1f1081742c,64c7ce52d2a3173606763bb7,up,1,0.4357,0.35,-1,0,1.5137,,,,,,31,0,31,0,1,,,,,
,,690555,001,2023-07-31_17h08.44.100,arm3_q,2022.2.5,Win32,60.03121623,60cd99f1d0df72833ad4346a,64c5699dae067f1f1081742c,64c7ce52d2a3173606763bb7,down,1,0.4357,0.35,-1,0,1.1883,,,,,,32,0,32,0,1,,,,,
,,690555,001,2023-07-31_17h08.44.100,arm3_q,2022.2.5,Win32,60.03121623,60cd99f1d0df72833ad4346a,64c5699dae067f1f1081742c,64c7ce52d2a3173606763bb7,down,1,0.4357,0.35,-1,0,0.8552,,,,,,33,0,33,0,1,,,,,
,,690555,001,2023-07-31_17h08.44.100,arm3_q,2022.2.5,Win32,60.03121623,60cd99f1d0df72833ad4346a,64c5699dae067f1f1081742c,64c7ce52d2a3173606763bb7,up,1,0.4357,0.35,-1,0,0.8945,,,,,,34,0,34,0,1,,,,,
,,690555,001,2023-07-31_17h08.44.100,arm3_q,2022.2.5,Win32,60.03121623,60cd99f1d0df72833ad4346a,64c5699dae067f1f1081742c,64c7ce52d2a3173606763bb7,up,1,0.4357,0.35,-1,0,0.9937,,,,,,35,0,35,0,1,,,,,
,,690555,001,2023-07-31_17h08.44.100,arm3_q,2022.2.5,Win32,60.03121623,60cd99f1d0df72833ad4346a,64c5699dae067f1f1081742c,64c7ce52d2a3173606763bb7,down,1,0.4357,0.35,-1,0,1.1446,,,,,,36,0,36,0,1,,,,,
,,690555,001,2023-07-31_17h08.44.100,arm3_q,2022.2.5,Win32,60.03121623,60cd99f1d0df72833ad4346a,64c5699dae067f1f1081742c,64c7ce52d2a3173606763bb7,down,1,0.4357,0.35,-1,0,1.8618,,,,,,37,0,37,0,1,,,,,
,,690555,001,2023-07-31_17h08.44.100,arm3_q,2022.2.5,Win32,60.03121623,60cd99f1d0df72833ad4346a,64c5699dae067f1f1081742c,64c7ce52d2a3173606763bb7,up,-1,0.4357,0.35,-1,0,2.6617,,,,,,38,0,38,0,1,,,,,
,,690555,001,2023-07-31_17h08.44.100,arm3_q,2022.2.5,Win32,60.03121623,60cd99f1d0df72833ad4346a,64c5699dae067f1f1081742c,64c7ce52d2a3173606763bb7,up,-1,0.4357,0.35,-1,0,1.6972,,,,,,39,0,39,0,1,,,,,
,,690555,001,2023-07-31_17h08.44.100,arm3_q,2022.2.5,Win32,60.03121623,60cd99f1d0df72833ad4346a,64c5699dae067f1f1081742c,64c7ce52d2a3173606763bb7,down,1,0.4357,0.35,0,0,1.5227,,,,,,40,0,40,0,1,,,,,
,,690555,001,2023-07-31_17h08.44.100,arm3_q,2022.2.5,Win32,60.03121623,60cd99f1d0df72833ad4346a,64c5699dae067f1f1081742c,64c7ce52d2a3173606763bb7,down,-1,0.4357,0.35,-1,0,0.9692,,,,,,41,0,41,0,1,,,,,
,,690555,001,2023-07-31_17h08.44.100,arm3_q,2022.2.5,Win32,60.03121623,60cd99f1d0df72833ad4346a,64c5699dae067f1f1081742c,64c7ce52d2a3173606763bb7,up,-1,0.4357,0.35,-1,0,1.1026,,,,,,42,0,42,0,1,,,,,
,,690555,001,2023-07-31_17h08.44.100,arm3_q,2022.2.5,Win32,60.03121623,60cd99f1d0df72833ad4346a,64c5699dae067f1f1081742c,64c7ce52d2a3173606763bb7,up,-1,0.4357,0.35,-1,0,1.4966,,,,,,43,0,43,0,1,,,,,
,,690555,001,2023-07-31_17h08.44.100,arm3_q,2022.2.5,Win32,60.03121623,60cd99f1d0df72833ad4346a,64c5699dae067f1f1081742c,64c7ce52d2a3173606763bb7,down,1,0.4357,0.35,0,0,1.2801,,,,,,44,0,44,0,1,,,,,
,,690555,001,2023-07-31_17h08.44.100,arm3_q,2022.2.5,Win32,60.03121623,60cd99f1d0df72833ad4346a,64c5699dae067f1f1081742c,64c7ce52d2a3173606763bb7,up,1,0.4357,0.35,0,0,4.9098,,,,,,45,0,45,0,1,,,,,
,,690555,001,2023-07-31_17h08.44.100,arm3_q,2022.2.5,Win32,60.03121623,60cd99f1d0df72833ad4346a,64c5699dae067f1f1081742c,64c7ce52d2a3173606763bb7,down,-1,0.4357,0.35,0,0,2.9377,,,,,,46,0,46,0,1,,,,,
,,690555,001,2023-07-31_17h08.44.100,arm3_q,2022.2.5,Win32,60.03121623,60cd99f1d0df72833ad4346a,64c5699dae067f1f1081742c,64c7ce52d2a3173606763bb7,down,-1,0.4357,0.35,0,0,1.4616,,,,,,47,0,47,0,1,,,,,
,,690555,001,2023-07-31_17h08.44.100,arm3_q,2022.2.5,Win32,60.03121623,60cd99f1d0df72833ad4346a,64c5699dae067f1f1081742c,64c7ce52d2a3173606763bb7,up,-1,0.4357,0.35,0,0,2.7212,,,,,,48,0,48,0,1,,,,,
,,690555,001,2023-07-31_17h08.44.100,arm3_q,2022.2.5,Win32,60.03121623,60cd99f1d0df72833ad4346a,64c5699dae067f1f1081742c,64c7ce52d2a3173606763bb7,down,-1,0.4357,0.35,1,0,2.2936,,,,,,49,0,49,0,1,,,,,
,,690555,001,2023-07-31_17h08.44.100,arm3_q,2022.2.5,Win32,60.03121623,60cd99f1d0df72833ad4346a,64c5699dae067f1f1081742c,64c7ce52d2a3173606763bb7,up,-1,0.4357,0.35,1,0,1.405,,,,,,50,0,50,0,1,,,,,
,,690555,001,2023-07-31_17h08.44.100,arm3_q,2022.2.5,Win32,60.03121623,60cd99f1d0df72833ad4346a,64c5699dae067f1f1081742c,64c7ce52d2a3173606763bb7,down,1,0.4357,0.35,2,0,3.4643,,,,,,51,0,51,0,1,,,,,
,,690555,001,2023-07-31_17h08.44.100,arm3_q,2022.2.5,Win32,60.03121623,60cd99f1d0df72833ad4346a,64c5699dae067f1f1081742c,64c7ce52d2a3173606763bb7,up,1,0.4357,0.35,3,0,2.2377,,,,,,52,0,52,0,1,,,,,
,,690555,001,2023-07-31_17h08.44.100,arm3_q,2022.2.5,Win32,60.03121623,60cd99f1d0df72833ad4346a,64c5699dae067f1f1081742c,64c7ce52d2a3173606763bb7,up,1,0.4357,0.35,3,0,1.5826,,,,,,53,0,53,0,1,,,,,
,,690555,001,2023-07-31_17h08.44.100,arm3_q,2022.2.5,Win32,60.03121623,60cd99f1d0df72833ad4346a,64c5699dae067f1f1081742c,64c7ce52d2a3173606763bb7,down,-1,0.4357,0.35,3,0,0.9005,,,,,,54,0,54,0,1,,,,,
,,690555,001,2023-07-31_17h08.44.100,arm3_q,2022.2.5,Win32,60.03121623,60cd99f1d0df72833ad4346a,64c5699dae067f1f1081742c,64c7ce52d2a3173606763bb7,down,1,0.4357,0.35,4,0,1.7331,,,,,,55,0,55,0,1,,,,,
,,690555,001,2023-07-31_17h08.44.100,arm3_q,2022.2.5,Win32,60.03121623,60cd99f1d0df72833ad4346a,64c5699dae067f1f1081742c,64c7ce52d2a3173606763bb7,down,1,0.4357,0.35,3,0,2.3297,,,,,,56,0,56,0,1,,,,,
,,690555,001,2023-07-31_17h08.44.100,arm3_q,2022.2.5,Win32,60.03121623,60cd99f1d0df72833ad4346a,64c5699dae067f1f1081742c,64c7ce52d2a3173606763bb7,up,1,0.4357,0.35,4,0,0.9987,,,,,,57,0,57,0,1,,,,,
,,690555,001,2023-07-31_17h08.44.100,arm3_q,2022.2.5,Win32,60.03121623,60cd99f1d0df72833ad4346a,64c5699dae067f1f1081742c,64c7ce52d2a3173606763bb7,up,1,0.4357,0.35,4,0,1.5437,,,,,,58,0,58,0,1,,,,,
,,690555,001,2023-07-31_17h08.44.100,arm3_q,2022.2.5,Win32,60.03121623,60cd99f1d0df72833ad4346a,64c5699dae067f1f1081742c,64c7ce52d2a3173606763bb7,up,-1,0.4357,0.35,5,0,0.9291,,,,,,59,0,59,0,1,,,,,
,,690555,001,2023-07-31_17h08.44.100,arm3_q,2022.2.5,Win32,60.03121623,60cd99f1d0df72833ad4346a,64c5699dae067f1f1081742c,64c7ce52d2a3173606763bb7,up,-1,0.4357,0.35,4,0,1.1354,,,,,,60,0,60,0,1,,,,,
,,690555,001,2023-07-31_17h08.44.100,arm3_q,2022.2.5,Win32,60.03121623,60cd99f1d0df72833ad4346a,64c5699dae067f1f1081742c,64c7ce52d2a3173606763bb7,down,1,0.4357,0.35,4,0,0.9229,,,,,,61,0,61,0,1,,,,,
,,690555,001,2023-07-31_17h08.44.100,arm3_q,2022.2.5,Win32,60.03121623,60cd99f1d0df72833ad4346a,64c5699dae067f1f1081742c,64c7ce52d2a3173606763bb7,down,1,0.4357,0.35,4,0,1.4937,,,,,,62,0,62,0,1,,,,,
,,690555,001,2023-07-31_17h08.44.100,arm3_q,2022.2.5,Win32,60.03121623,60cd99f1d0df72833ad4346a,64c5699dae067f1f1081742c,64c7ce52d2a3173606763bb7,up,-1,0.4357,0.35,4,0,1.0908,,,,,,63,0,63,0,1,,,,,
,,690555,001,2023-07-31_17h08.44.100,arm3_q,2022.2.5,Win32,60.03121623,60cd99f1d0df72833ad4346a,64c5699dae067f1f1081742c,64c7ce52d2a3173606763bb7,down,-1,0.4357,0.35,4,0,0.9609,,,,,,64,0,64,0,1,,,,,
,,690555,001,2023-07-31_17h08.44.100,arm3_q,2022.2.5,Win32,60.03121623,60cd99f1d0df72833ad4346a,64c5699dae067f1f1081742c,64c7ce52d2a3173606763bb7,down,-1,0.4357,0.35,5,0,1.4283,,,,,,65,0,65,0,1,,,,,
,,690555,001,2023-07-31_17h08.44.100,arm3_q,2022.2.5,Win32,60.03121623,60cd99f1d0df72833ad4346a,64c5699dae067f1f1081742c,64c7ce52d2a3173606763bb7,up,-1,0.4357,0.35,5,0,3.0134,,,,,,66,0,66,0,1,,,,,
,,690555,001,2023-07-31_17h08.44.100,arm3_q,2022.2.5,Win32,60.03121623,60cd99f1d0df72833ad4346a,64c5699dae067f1f1081742c,64c7ce52d2a3173606763bb7,down,-1,0.4357,0.35,5,0,1.9179,,,,,,67,0,67,0,1,,,,,
,,690555,001,2023-07-31_17h08.44.100,arm3_q,2022.2.5,Win32,60.03121623,60cd99f1d0df72833ad4346a,64c5699dae067f1f1081742c,64c7ce52d2a3173606763bb7,up,-1,0.4357,0.35,4,0,0.8627,,,,,,68,0,68,0,1,,,,,
,,690555,001,2023-07-31_17h08.44.100,arm3_q,2022.2.5,Win32,60.03121623,60cd99f1d0df72833ad4346a,64c5699dae067f1f1081742c,64c7ce52d2a3173606763bb7,up,1,0.4357,0.35,4,0,1.1661,,,,,,69,0,69,0,1,,,,,
,,690555,001,2023-07-31_17h08.44.100,arm3_q,2022.2.5,Win32,60.03121623,60cd99f1d0df72833ad4346a,64c5699dae067f1f1081742c,64c7ce52d2a3173606763bb7,down,-1,0.4357,0.35,4,0,1.5267,,,,,,70,0,70,0,1,,,,,
,,690555,001,2023-07-31_17h08.44.100,arm3_q,2022.2.5,Win32,60.03121623,60cd99f1d0df72833ad4346a,64c5699dae067f1f1081742c,64c7ce52d2a3173606763bb7,down,-1,0.4357,0.35,4,0,2.0653,,,,,,71,0,71,0,1,,,,,
,,690555,001,2023-07-31_17h08.44.100,arm3_q,2022.2.5,Win32,60.03121623,60cd99f1d0df72833ad4346a,64c5699dae067f1f1081742c,64c7ce52d2a3173606763bb7,up,-1,0.4357,0.35,4,0,0.9671,,,,,,72,0,72,0,1,,,,,
,,690555,001,2023-07-31_17h08.44.100,arm3_q,2022.2.5,Win32,60.03121623,60cd99f1d0df72833ad4346a,64c5699dae067f1f1081742c,64c7ce52d2a3173606763bb7,up,-1,0.4357,0.35,4,0,1.1898,,,,,,73,0,73,0,1,,,,,
,,690555,001,2023-07-31_17h08.44.100,arm3_q,2022.2.5,Win32,60.03121623,60cd99f1d0df72833ad4346a,64c5699dae067f1f1081742c,64c7ce52d2a3173606763bb7,down,-1,0.4357,0.35,5,0,1.3812,,,,,,74,0,74,0,1,,,,,
,,690555,001,2023-07-31_17h08.44.100,arm3_q,2022.2.5,Win32,60.03121623,60cd99f1d0df72833ad4346a,64c5699dae067f1f1081742c,64c7ce52d2a3173606763bb7,down,-1,0.4357,0.35,5,0,4.0435,,,,,,75,0,75,0,1,,,,,
,,690555,001,2023-07-31_17h08.44.100,arm3_q,2022.2.5,Win32,60.03121623,60cd99f1d0df72833ad4346a,64c5699dae067f1f1081742c,64c7ce52d2a3173606763bb7,up,-1,0.4357,0.35,5,0,0.8373,,,,,,76,0,76,0,1,,,,,
,,690555,001,2023-07-31_17h08.44.100,arm3_q,2022.2.5,Win32,60.03121623,60cd99f1d0df72833ad4346a,64c5699dae067f1f1081742c,64c7ce52d2a3173606763bb7,down,-1,0.4357,0.35,5,0,1.4215,,,,,,77,0,77,0,1,,,,,
,,690555,001,2023-07-31_17h08.44.100,arm3_q,2022.2.5,Win32,60.03121623,60cd99f1d0df72833ad4346a,64c5699dae067f1f1081742c,64c7ce52d2a3173606763bb7,up,-1,0.4357,0.35,5,0,1.3034,,,,,,78,0,78,0,1,,,,,
,,690555,001,2023-07-31_17h08.44.100,arm3_q,2022.2.5,Win32,60.03121623,60cd99f1d0df72833ad4346a,64c5699dae067f1f1081742c,64c7ce52d2a3173606763bb7,up,1,0.4357,0.35,5,0,1.387,,,,,,79,0,79,0,1,,,,,
,,690555,001,2023-07-31_17h08.44.100,arm3_q,2022.2.5,Win32,60.03121623,60cd99f1d0df72833ad4346a,64c5699dae067f1f1081742c,64c7ce52d2a3173606763bb7,up,1,0.4357,0.35,6,0,2.3049,,,,,,80,0,80,0,1,,,,,
,,690555,001,2023-07-31_17h08.44.100,arm3_q,2022.2.5,Win32,60.03121623,60cd99f1d0df72833ad4346a,64c5699dae067f1f1081742c,64c7ce52d2a3173606763bb7,up,1,0.4357,0.35,6,0,1.7359,,,,,,81,0,81,0,1,,,,,
,,690555,001,2023-07-31_17h08.44.100,arm3_q,2022.2.5,Win32,60.03121623,60cd99f1d0df72833ad4346a,64c5699dae067f1f1081742c,64c7ce52d2a3173606763bb7,up,1,0.4357,0.35,7,0,1.7368,,,,,,82,0,82,0,1,,,,,
,,690555,001,2023-07-31_17h08.44.100,arm3_q,2022.2.5,Win32,60.03121623,60cd99f1d0df72833ad4346a,64c5699dae067f1f1081742c,64c7ce52d2a3173606763bb7,up,1,0.4357,0.35,8,0,1.8023,,,,,,83,0,83,0,1,,,,,
,,690555,001,2023-07-31_17h08.44.100,arm3_q,2022.2.5,Win32,60.03121623,60cd99f1d0df72833ad4346a,64c5699dae067f1f1081742c,64c7ce52d2a3173606763bb7,up,1,0.4357,0.35,8,0,0.9543,,,,,,84,0,84,0,1,,,,,
,,690555,001,2023-07-31_17h08.44.100,arm3_q,2022.2.5,Win32,60.03121623,60cd99f1d0df72833ad4346a,64c5699dae067f1f1081742c,64c7ce52d2a3173606763bb7,up,1,0.4357,0.35,8,0,1.161,,,,,,85,0,85,0,1,,,,,
,,690555,001,2023-07-31_17h08.44.100,arm3_q,2022.2.5,Win32,60.03121623,60cd99f1d0df72833ad4346a,64c5699dae067f1f1081742c,64c7ce52d2a3173606763bb7,down,-1,0.4357,0.35,7,0,1.3605,,,,,,86,0,86,0,1,,,,,
,,690555,001,2023-07-31_17h08.44.100,arm3_q,2022.2.5,Win32,60.03121623,60cd99f1d0df72833ad4346a,64c5699dae067f1f1081742c,64c7ce52d2a3173606763bb7,up,-1,0.4357,0.35,6,0,0.8932,,,,,,87,0,87,0,1,,,,,
,,690555,001,2023-07-31_17h08.44.100,arm3_q,2022.2.5,Win32,60.03121623,60cd99f1d0df72833ad4346a,64c5699dae067f1f1081742c,64c7ce52d2a3173606763bb7,down,1,0.4357,0.35,6,0,1.6199,,,,,,88,0,88,0,1,,,,,
,,690555,001,2023-07-31_17h08.44.100,arm3_q,2022.2.5,Win32,60.03121623,60cd99f1d0df72833ad4346a,64c5699dae067f1f1081742c,64c7ce52d2a3173606763bb7,up,1,0.4357,0.35,6,0,0.8452,,,,,,89,0,89,0,1,,,,,
,,690555,001,2023-07-31_17h08.44.100,arm3_q,2022.2.5,Win32,60.03121623,60cd99f1d0df72833ad4346a,64c5699dae067f1f1081742c,64c7ce52d2a3173606763bb7,down,-1,0.4357,0.35,6,0,2.3342,,,,,,90,0,90,0,1,,,,,
,,690555,001,2023-07-31_17h08.44.100,arm3_q,2022.2.5,Win32,60.03121623,60cd99f1d0df72833ad4346a,64c5699dae067f1f1081742c,64c7ce52d2a3173606763bb7,up,-1,0.4357,0.35,6,0,0.8233,,,,,,91,0,91,0,1,,,,,
,,690555,001,2023-07-31_17h08.44.100,arm3_q,2022.2.5,Win32,60.03121623,60cd99f1d0df72833ad4346a,64c5699dae067f1f1081742c,64c7ce52d2a3173606763bb7,up,1,0.4357,0.35,6,0,0.9164,,,,,,92,0,92,0,1,,,,,
,,690555,001,2023-07-31_17h08.44.100,arm3_q,2022.2.5,Win32,60.03121623,60cd99f1d0df72833ad4346a,64c5699dae067f1f1081742c,64c7ce52d2a3173606763bb7,up,-1,0.4357,0.35,6,0,1.0777,,,,,,93,0,93,0,1,,,,,
,,690555,001,2023-07-31_17h08.44.100,arm3_q,2022.2.5,Win32,60.03121623,60cd99f1d0df72833ad4346a,64c5699dae067f1f1081742c,64c7ce52d2a3173606763bb7,up,-1,0.4357,0.35,6,0,1.3607,,,,,,94,0,94,0,1,,,,,
,,690555,001,2023-07-31_17h08.44.100,arm3_q,2022.2.5,Win32,60.03121623,60cd99f1d0df72833ad4346a,64c5699dae067f1f1081742c,64c7ce52d2a3173606763bb7,up,-1,0.4357,0.35,5,0,1.7997,,,,,,95,0,95,0,1,,,,,
,,690555,001,2023-07-31_17h08.44.100,arm3_q,2022.2.5,Win32,60.03121623,60cd99f1d0df72833ad4346a,64c5699dae067f1f1081742c,64c7ce52d2a3173606763bb7,down,-1,0.4357,0.35,6,0,0.9778,,,,,,96,0,96,0,1,,,,,
,,690555,001,2023-07-31_17h08.44.100,arm3_q,2022.2.5,Win32,60.03121623,60cd99f1d0df72833ad4346a,64c5699dae067f1f1081742c,64c7ce52d2a3173606763bb7,up,-1,0.4357,0.35,6,0,2.0737,,,,,,97,0,97,0,1,,,,,
,,690555,001,2023-07-31_17h08.44.100,arm3_q,2022.2.5,Win32,60.03121623,60cd99f1d0df72833ad4346a,64c5699dae067f1f1081742c,64c7ce52d2a3173606763bb7,down,-1,0.4357,0.35,6,0,0.8659,,,,,,98,0,98,0,1,,,,,
,,690555,001,2023-07-31_17h08.44.100,arm3_q,2022.2.5,Win32,60.03121623,60cd99f1d0df72833ad4346a,64c5699dae067f1f1081742c,64c7ce52d2a3173606763bb7,up,1,0.4357,0.35,6,0,0.9947,,,,,,99,0,99,0,1,,,,,
,,690555,001,2023-07-31_17h08.44.100,arm3_q,2022.2.5,Win32,60.03121623,60cd99f1d0df72833ad4346a,64c5699dae067f1f1081742c,64c7ce52d2a3173606763bb7,up,1,0.4357,0.35,6,0,1.3947,,,,,,100,0,100,0,1,,,,,
,,690555,001,2023-07-31_17h08.44.100,arm3_q,2022.2.5,Win32,60.03121623,60cd99f1d0df72833ad4346a,64c5699dae067f1f1081742c,64c7ce52d2a3173606763bb7,down,-1,0.4357,0.35,6,0,1.7019,,,,,,101,0,101,0,1,,,,,
,,690555,001,2023-07-31_17h08.44.100,arm3_q,2022.2.5,Win32,60.03121623,60cd99f1d0df72833ad4346a,64c5699dae067f1f1081742c,64c7ce52d2a3173606763bb7,up,1,0.4357,0.35,6,0,1.2047,,,,,,102,0,102,0,1,,,,,
,,690555,001,2023-07-31_17h08.44.100,arm3_q,2022.2.5,Win32,60.03121623,60cd99f1d0df72833ad4346a,64c5699dae067f1f1081742c,64c7ce52d2a3173606763bb7,up,-1,0.4357,0.35,6,0,2.1334,,,,,,103,0,103,0,1,,,,,
,,690555,001,2023-07-31_17h08.44.100,arm3_q,2022.2.5,Win32,60.03121623,60cd99f1d0df72833ad4346a,64c5699dae067f1f1081742c,64c7ce52d2a3173606763bb7,down,1,0.4357,0.35,6,0,1.1237,,,,,,104,0,104,0,1,,,,,
,,690555,001,2023-07-31_17h08.44.100,arm3_q,2022.2.5,Win32,60.03121623,60cd99f1d0df72833ad4346a,64c5699dae067f1f1081742c,64c7ce52d2a3173606763bb7,up,1,0.4357,0.35,6,0,1.4104,,,,,,105,0,105,0,1,,,,,
,,690555,001,2023-07-31_17h08.44.100,arm3_q,2022.2.5,Win32,60.03121623,60cd99f1d0df72833ad4346a,64c5699dae067f1f1081742c,64c7ce52d2a3173606763bb7,down,1,0.4357,0.35,6,0,2.4689,,,,,,106,0,106,0,1,,,,,
,,690555,001,2023-07-31_17h08.44.100,arm3_q,2022.2.5,Win32,60.03121623,60cd99f1d0df72833ad4346a,64c5699dae067f1f1081742c,64c7ce52d2a3173606763bb7,up,1,0.4357,0.35,6,0,3.2682,,,,,,107,0,107,0,1,,,,,
,,690555,001,2023-07-31_17h08.44.100,arm3_q,2022.2.5,Win32,60.03121623,60cd99f1d0df72833ad4346a,64c5699dae067f1f1081742c,64c7ce52d2a3173606763bb7,down,-1,0.4357,0.35,5,0,1.7656,,,,,,108,0,108,0,1,,,,,
,,690555,001,2023-07-31_17h08.44.100,arm3_q,2022.2.5,Win32,60.03121623,60cd99f1d0df72833ad4346a,64c5699dae067f1f1081742c,64c7ce52d2a3173606763bb7,up,-1,0.4357,0.35,5,0,1.0107,,,,,,109,0,109,0,1,,,,,
,,690555,001,2023-07-31_17h08.44.100,arm3_q,2022.2.5,Win32,60.03121623,60cd99f1d0df72833ad4346a,64c5699dae067f1f1081742c,64c7ce52d2a3173606763bb7,up,-1,0.4357,0.35,4,0,1.3441,,,,,,110,0,110,0,1,,,,,
,,690555,001,2023-07-31_17h08.44.100,arm3_q,2022.2.5,Win32,60.03121623,60cd99f1d0df72833ad4346a,64c5699dae067f1f1081742c,64c7ce52d2a3173606763bb7,down,1,0.4357,0.35,5,0,1.1545,,,,,,111,0,111,0,1,,,,,
,,690555,001,2023-07-31_17h08.44.100,arm3_q,2022.2.5,Win32,60.03121623,60cd99f1d0df72833ad4346a,64c5699dae067f1f1081742c,64c7ce52d2a3173606763bb7,down,1,0.4357,0.35,4,0,1.6934,,,,,,112,0,112,0,1,,,,,
,,690555,001,2023-07-31_17h08.44.100,arm3_q,2022.2.5,Win32,60.03121623,60cd99f1d0df72833ad4346a,64c5699dae067f1f1081742c,64c7ce52d2a3173606763bb7,up,-1,0.4357,0.35,4,0,0.9194,,,,,,113,0,113,0,1,,,,,
,,690555,001,2023-07-31_17h08.44.100,arm3_q,2022.2.5,Win32,60.03121623,60cd99f1d0df72833ad4346a,64c5699dae067f1f1081742c,64c7ce52d2a3173606763bb7,up,-1,0.4357,0.35,3,0,0.8274,,,,,,114,0,114,0,1,,,,,
,,690555,001,2023-07-31_17h08.44.100,arm3_q,2022.2.5,Win32,60.03121623,60cd99f1d0df72833ad4346a,64c5699dae067f1f1081742c,64c7ce52d2a3173606763bb7,down,1,0.4357,0.35,3,0,0.9827,,,,,,115,0,115,0,1,,,,,
,,690555,001,2023-07-31_17h08.44.100,arm3_q,2022.2.5,Win32,60.03121623,60cd99f1d0df72833ad4346a,64c5699dae067f1f1081742c,64c7ce52d2a3173606763bb7,up,1,0.4357,0.35,3,0,0.9458,,,,,,116,0,116,0,1,,,,,
,,690555,001,2023-07-31_17h08.44.100,arm3_q,2022.2.5,Win32,60.03121623,60cd99f1d0df72833ad4346a,64c5699dae067f1f1081742c,64c7ce52d2a3173606763bb7,up,1,0.4357,0.35,3,0,2.2338,,,,,,117,0,117,0,1,,,,,
,,690555,001,2023-07-31_17h08.44.100,arm3_q,2022.2.5,Win32,60.03121623,60cd99f1d0df72833ad4346a,64c5699dae067f1f1081742c,64c7ce52d2a3173606763bb7,down,-1,0.4357,0.35,3,0,1.618,,,,,,118,0,118,0,1,,,,,
,,690555,001,2023-07-31_17h08.44.100,arm3_q,2022.2.5,Win32,60.03121623,60cd99f1d0df72833ad4346a,64c5699dae067f1f1081742c,64c7ce52d2a3173606763bb7,up,-1,0.4357,0.35,3,0,2.0016,,,,,,119,0,119,0,1,,,,,
,,690555,001,2023-07-31_17h08.44.100,arm3_q,2022.2.5,Win32,60.03121623,60cd99f1d0df72833ad4346a,64c5699dae067f1f1081742c,64c7ce52d2a3173606763bb7,up,-1,0.4357,0.35,2,0,2.849,,,,,,120,0,120,0,1,,,,,
,,690555,001,2023-07-31_17h08.44.100,arm3_q,2022.2.5,Win32,60.03121623,60cd99f1d0df72833ad4346a,64c5699dae067f1f1081742c,64c7ce52d2a3173606763bb7,down,1,0.4357,0.35,3,0,1.3854,,,,,,121,0,121,0,1,,,,,
,,690555,001,2023-07-31_17h08.44.100,arm3_q,2022.2.5,Win32,60.03121623,60cd99f1d0df72833ad4346a,64c5699dae067f1f1081742c,64c7ce52d2a3173606763bb7,down,-1,0.4357,0.35,3,0,3.6503,,,,,,122,0,122,0,1,,,,,
,,690555,001,2023-07-31_17h08.44.100,arm3_q,2022.2.5,Win32,60.03121623,60cd99f1d0df72833ad4346a,64c5699dae067f1f1081742c,64c7ce52d2a3173606763bb7,up,1,0.4357,0.35,3,0,0.8112,,,,,,123,0,123,0,1,,,,,
,,690555,001,2023-07-31_17h08.44.100,arm3_q,2022.2.5,Win32,60.03121623,60cd99f1d0df72833ad4346a,64c5699dae067f1f1081742c,64c7ce52d2a3173606763bb7,down,-1,0.4357,0.35,3,0,0.8377,,,,,,124,0,124,0,1,,,,,
,,690555,001,2023-07-31_17h08.44.100,arm3_q,2022.2.5,Win32,60.03121623,60cd99f1d0df72833ad4346a,64c5699dae067f1f1081742c,64c7ce52d2a3173606763bb7,up,-1,0.4357,0.35,3,0,1.6533,,,,,,125,0,125,0,1,,,,,
,,690555,001,2023-07-31_17h08.44.100,arm3_q,2022.2.5,Win32,60.03121623,60cd99f1d0df72833ad4346a,64c5699dae067f1f1081742c,64c7ce52d2a3173606763bb7,down,1,0.4357,0.35,3,0,1.4821,,,,,,126,0,126,0,1,,,,,
,,690555,001,2023-07-31_17h08.44.100,arm3_q,2022.2.5,Win32,60.03121623,60cd99f1d0df72833ad4346a,64c5699dae067f1f1081742c,64c7ce52d2a3173606763bb7,up,1,0.4357,0.35,3,0,1.7383,,,,,,127,0,127,0,1,,,,,
,,690555,001,2023-07-31_17h08.44.100,arm3_q,2022.2.5,Win32,60.03121623,60cd99f1d0df72833ad4346a,64c5699dae067f1f1081742c,64c7ce52d2a3173606763bb7,up,1,0.4357,0.35,4,0,1.2313,,,,,,128,0,128,0,1,,,,,
,,690555,001,2023-07-31_17h08.44.100,arm3_q,2022.2.5,Win32,60.03121623,60cd99f1d0df72833ad4346a,64c5699dae067f1f1081742c,64c7ce52d2a3173606763bb7,down,1,0.4357,0.35,4,0,2.5451,,,,,,129,0,129,0,1,,,,,
,,690555,001,2023-07-31_17h08.44.100,arm3_q,2022.2.5,Win32,60.03121623,60cd99f1d0df72833ad4346a,64c5699dae067f1f1081742c,64c7ce52d2a3173606763bb7,up,1,0.4357,0.35,4,0,2.0051,,,,,,130,0,130,0,1,,,,,
,,690555,001,2023-07-31_17h08.44.100,arm3_q,2022.2.5,Win32,60.03121623,60cd99f1d0df72833ad4346a,64c5699dae067f1f1081742c,64c7ce52d2a3173606763bb7,down,1,0.4357,0.35,3,0,1.4626,,,,,,131,0,131,0,1,,,,,
,,690555,001,2023-07-31_17h08.44.100,arm3_q,2022.2.5,Win32,60.03121623,60cd99f1d0df72833ad4346a,64c5699dae067f1f1081742c,64c7ce52d2a3173606763bb7,up,-1,0.4357,0.35,4,0,0.8989,,,,,,132,0,132,0,1,,,,,
,,690555,001,2023-07-31_17h08.44.100,arm3_q,2022.2.5,Win32,60.03121623,60cd99f1d0df72833ad4346a,64c5699dae067f1f1081742c,64c7ce52d2a3173606763bb7,up,-1,0.4357,0.35,4,0,1.1017,,,,,,133,0,133,0,1,,,,,
,,690555,001,2023-07-31_17h08.44.100,arm3_q,2022.2.5,Win32,60.03121623,60cd99f1d0df72833ad4346a,64c5699dae067f1f1081742c,64c7ce52d2a3173606763bb7,down,-1,0.4357,0.35,5,0,3.3966,,,,,,134,0,134,0,1,,,,,
,,690555,001,2023-07-31_17h08.44.100,arm3_q,2022.2.5,Win32,60.03121623,60cd99f1d0df72833ad4346a,64c5699dae067f1f1081742c,64c7ce52d2a3173606763bb7,up,-1,0.4357,0.35,5,0,2.1285,,,,,,135,0,135,0,1,,,,,
,,690555,001,2023-07-31_17h08.44.100,arm3_q,2022.2.5,Win32,60.03121623,60cd99f1d0df72833ad4346a,64c5699dae067f1f1081742c,64c7ce52d2a3173606763bb7,down,1,0.4357,0.35,5,0,2.5038,,,,,,136,0,136,0,1,,,,,
,,690555,001,2023-07-31_17h08.44.100,arm3_q,2022.2.5,Win32,60.03121623,60cd99f1d0df72833ad4346a,64c5699dae067f1f1081742c,64c7ce52d2a3173606763bb7,down,-1,0.4357,0.35,5,0,1.7983,,,,,,137,0,137,0,1,,,,,
,,690555,001,2023-07-31_17h08.44.100,arm3_q,2022.2.5,Win32,60.03121623,60cd99f1d0df72833ad4346a,64c5699dae067f1f1081742c,64c7ce52d2a3173606763bb7,up,-1,0.4357,0.35,4,0,0.8872,,,,,,138,0,138,0,1,,,,,
,,690555,001,2023-07-31_17h08.44.100,arm3_q,2022.2.5,Win32,60.03121623,60cd99f1d0df72833ad4346a,64c5699dae067f1f1081742c,64c7ce52d2a3173606763bb7,down,1,0.4357,0.35,4,0,1.2976,,,,,,139,0,139,0,1,,,,,
,,690555,001,2023-07-31_17h08.44.100,arm3_q,2022.2.5,Win32,60.03121623,60cd99f1d0df72833ad4346a,64c5699dae067f1f1081742c,64c7ce52d2a3173606763bb7,up,1,0.4357,0.35,5,0,0.8818,,,,,,140,0,140,0,1,,,,,
,,690555,001,2023-07-31_17h08.44.100,arm3_q,2022.2.5,Win32,60.03121623,60cd99f1d0df72833ad4346a,64c5699dae067f1f1081742c,64c7ce52d2a3173606763bb7,up,-1,0.4357,0.35,6,0,1.8011,,,,,,141,0,141,0,1,,,,,
,,690555,001,2023-07-31_17h08.44.100,arm3_q,2022.2.5,Win32,60.03121623,60cd99f1d0df72833ad4346a,64c5699dae067f1f1081742c,64c7ce52d2a3173606763bb7,down,1,0.4357,0.35,6,0,4.1613,,,,,,142,0,142,0,1,,,,,
,,690555,001,2023-07-31_17h08.44.100,arm3_q,2022.2.5,Win32,60.03121623,60cd99f1d0df72833ad4346a,64c5699dae067f1f1081742c,64c7ce52d2a3173606763bb7,up,1,0.4357,0.35,7,0,1.3645,,,,,,143,0,143,0,1,,,,,
,,690555,001,2023-07-31_17h08.44.100,arm3_q,2022.2.5,Win32,60.03121623,60cd99f1d0df72833ad4346a,64c5699dae067f1f1081742c,64c7ce52d2a3173606763bb7,up,1,0.4357,0.35,7,0,1.2206,,,,,,144,0,144,0,1,,,,,
,,690555,001,2023-07-31_17h08.44.100,arm3_q,2022.2.5,Win32,60.03121623,60cd99f1d0df72833ad4346a,64c5699dae067f1f1081742c,64c7ce52d2a3173606763bb7,down,1,0.4357,0.35,6,0,1.2436,,,,,,145,0,145,0,1,,,,,
,,690555,001,2023-07-31_17h08.44.100,arm3_q,2022.2.5,Win32,60.03121623,60cd99f1d0df72833ad4346a,64c5699dae067f1f1081742c,64c7ce52d2a3173606763bb7,up,-1,0.4357,0.35,6,0,1.1381,,,,,,146,0,146,0,1,,,,,
,,690555,001,2023-07-31_17h08.44.100,arm3_q,2022.2.5,Win32,60.03121623,60cd99f1d0df72833ad4346a,64c5699dae067f1f1081742c,64c7ce52d2a3173606763bb7,up,1,0.4357,0.35,5,0,1.1289,,,,,,147,0,147,0,1,,,,,
,,690555,001,2023-07-31_17h08.44.100,arm3_q,2022.2.5,Win32,60.03121623,60cd99f1d0df72833ad4346a,64c5699dae067f1f1081742c,64c7ce52d2a3173606763bb7,down,1,0.4357,0.35,5,0,1.2617,,,,,,148,0,148,0,1,,,,,
,,690555,001,2023-07-31_17h08.44.100,arm3_q,2022.2.5,Win32,60.03121623,60cd99f1d0df72833ad4346a,64c5699dae067f1f1081742c,64c7ce52d2a3173606763bb7,up,1,0.4357,0.35,5,0,1.047,,,,,,149,0,149,0,1,,,,,
,,690555,001,2023-07-31_17h08.44.100,arm3_q,2022.2.5,Win32,60.03121623,60cd99f1d0df72833ad4346a,64c5699dae067f1f1081742c,64c7ce52d2a3173606763bb7,down,1,0.4357,0.35,5,0,1.4122,,,,,,150,0,150,0,1,,,,,
,,690555,001,2023-07-31_17h08.44.100,arm3_q,2022.2.5,Win32,60.03121623,60cd99f1d0df72833ad4346a,64c5699dae067f1f1081742c,64c7ce52d2a3173606763bb7,up,1,0.4357,0.35,6,0,2.1115,,,,,,151,0,151,0,1,,,,,
,,690555,001,2023-07-31_17h08.44.100,arm3_q,2022.2.5,Win32,60.03121623,60cd99f1d0df72833ad4346a,64c5699dae067f1f1081742c,64c7ce52d2a3173606763bb7,up,1,0.4357,0.35,7,0,0.8614,,,,,,152,0,152,0,1,,,,,
,,690555,001,2023-07-31_17h08.44.100,arm3_q,2022.2.5,Win32,60.03121623,60cd99f1d0df72833ad4346a,64c5699dae067f1f1081742c,64c7ce52d2a3173606763bb7,down,-1,0.4357,0.35,7,0,1.9883,,,,,,153,0,153,0,1,,,,,
,,690555,001,2023-07-31_17h08.44.100,arm3_q,2022.2.5,Win32,60.03121623,60cd99f1d0df72833ad4346a,64c5699dae067f1f1081742c,64c7ce52d2a3173606763bb7,up,-1,0.4357,0.35,6,0,2.0131,,,,,,154,0,154,0,1,,,,,
,,690555,001,2023-07-31_17h08.44.100,arm3_q,2022.2.5,Win32,60.03121623,60cd99f1d0df72833ad4346a,64c5699dae067f1f1081742c,64c7ce52d2a3173606763bb7,down,1,0.4357,0.35,7,0,0.9054,,,,,,155,0,155,0,1,,,,,
,,690555,001,2023-07-31_17h08.44.100,arm3_q,2022.2.5,Win32,60.03121623,60cd99f1d0df72833ad4346a,64c5699dae067f1f1081742c,64c7ce52d2a3173606763bb7,down,1,0.4357,0.35,6,0,0.994,,,,,,156,0,156,0,1,,,,,
,,690555,001,2023-07-31_17h08.44.100,arm3_q,2022.2.5,Win32,60.03121623,60cd99f1d0df72833ad4346a,64c5699dae067f1f1081742c,64c7ce52d2a3173606763bb7,up,-1,0.4357,0.35,6,0,1.1616,,,,,,157,0,157,0,1,,,,,
,,690555,001,2023-07-31_17h08.44.100,arm3_q,2022.2.5,Win32,60.03121623,60cd99f1d0df72833ad4346a,64c5699dae067f1f1081742c,64c7ce52d2a3173606763bb7,up,-1,0.4357,0.35,6,0,0.9611,,,,,,158,0,158,0,1,,,,,
,,690555,001,2023-07-31_17h08.44.100,arm3_q,2022.2.5,Win32,60.03121623,60cd99f1d0df72833ad4346a,64c5699dae067f1f1081742c,64c7ce52d2a3173606763bb7,up,-1,0.4357,0.35,6,0,2.1953,,,,,,159,0,159,0,1,,,,,
,,690555,001,2023-07-31_17h08.44.100,arm3_q,2022.2.5,Win32,60.03121623,60cd99f1d0df72833ad4346a,64c5699dae067f1f1081742c,64c7ce52d2a3173606763bb7,down,1,0.4357,0.35,6,0,1.2633,,,,,,160,0,160,0,1,,,,,
,,690555,001,2023-07-31_17h08.44.100,arm3_q,2022.2.5,Win32,60.03121623,60cd99f1d0df72833ad4346a,64c5699dae067f1f1081742c,64c7ce52d2a3173606763bb7,up,1,0.4357,0.35,7,0,1.3018,,,,,,161,0,161,0,1,,,,,
,,690555,001,2023-07-31_17h08.44.100,arm3_q,2022.2.5,Win32,60.03121623,60cd99f1d0df72833ad4346a,64c5699dae067f1f1081742c,64c7ce52d2a3173606763bb7,up,1,0.4357,0.35,8,0,0.8612,,,,,,162,0,162,0,1,,,,,
,,690555,001,2023-07-31_17h08.44.100,arm3_q,2022.2.5,Win32,60.03121623,60cd99f1d0df72833ad4346a,64c5699dae067f1f1081742c,64c7ce52d2a3173606763bb7,up,1,0.4357,0.35,8,0,0.8617,,,,,,163,0,163,0,1,,,,,
,,690555,001,2023-07-31_17h08.44.100,arm3_q,2022.2.5,Win32,60.03121623,60cd99f1d0df72833ad4346a,64c5699dae067f1f1081742c,64c7ce52d2a3173606763bb7,down,1,0.4357,0.35,8,0,1.6548,,,,,,164,0,164,0,1,,,,,
,,690555,001,2023-07-31_17h08.44.100,arm3_q,2022.2.5,Win32,60.03121623,60cd99f1d0df72833ad4346a,64c5699dae067f1f1081742c,64c7ce52d2a3173606763bb7,up,-1,0.4357,0.35,9,0,0.8481,,,,,,165,0,165,0,1,,,,,
,,690555,001,2023-07-31_17h08.44.100,arm3_q,2022.2.5,Win32,60.03121623,60cd99f1d0df72833ad4346a,64c5699dae067f1f1081742c,64c7ce52d2a3173606763bb7,up,-1,0.4357,0.35,8,0,2.4187,,,,,,166,0,166,0,1,,,,,
,,690555,001,2023-07-31_17h08.44.100,arm3_q,2022.2.5,Win32,60.03121623,60cd99f1d0df72833ad4346a,64c5699dae067f1f1081742c,64c7ce52d2a3173606763bb7,down,-1,0.4357,0.35,8,0,0.8709,,,,,,167,0,167,0,1,,,,,
,,690555,001,2023-07-31_17h08.44.100,arm3_q,2022.2.5,Win32,60.03121623,60cd99f1d0df72833ad4346a,64c5699dae067f1f1081742c,64c7ce52d2a3173606763bb7,up,-1,0.4357,0.35,7,0,0.8284,,,,,,168,0,168,0,1,,,,,
,,690555,001,2023-07-31_17h08.44.100,arm3_q,2022.2.5,Win32,60.03121623,60cd99f1d0df72833ad4346a,64c5699dae067f1f1081742c,64c7ce52d2a3173606763bb7,down,1,0.4357,0.35,7,0,0.978,,,,,,169,0,169,0,1,,,,,
,,690555,001,2023-07-31_17h08.44.100,arm3_q,2022.2.5,Win32,60.03121623,60cd99f1d0df72833ad4346a,64c5699dae067f1f1081742c,64c7ce52d2a3173606763bb7,down,-1,0.4357,0.35,6,0,0.6671,,,,,,170,0,170,0,1,,,,,
,,690555,001,2023-07-31_17h08.44.100,arm3_q,2022.2.5,Win32,60.03121623,60cd99f1d0df72833ad4346a,64c5699dae067f1f1081742c,64c7ce52d2a3173606763bb7,up,-1,0.4357,0.35,6,0,1.3989,,,,,,171,0,171,0,1,,,,,
,,690555,001,2023-07-31_17h08.44.100,arm3_q,2022.2.5,Win32,60.03121623,60cd99f1d0df72833ad4346a,64c5699dae067f1f1081742c,64c7ce52d2a3173606763bb7,up,-1,0.4357,0.35,6,0,0.9612,,,,,,172,0,172,0,1,,,,,
,,690555,001,2023-07-31_17h08.44.100,arm3_q,2022.2.5,Win32,60.03121623,60cd99f1d0df72833ad4346a,64c5699dae067f1f1081742c,64c7ce52d2a3173606763bb7,up,-1,0.4357,0.35,6,0,1.6683,,,,,,173,0,173,0,1,,,,,
,,690555,001,2023-07-31_17h08.44.100,arm3_q,2022.2.5,Win32,60.03121623,60cd99f1d0df72833ad4346a,64c5699dae067f1f1081742c,64c7ce52d2a3173606763bb7,up,-1,0.4357,0.35,5,0,1.2691,,,,,,174,0,174,0,1,,,,,
,,690555,001,2023-07-31_17h08.44.100,arm3_q,2022.2.5,Win32,60.03121623,60cd99f1d0df72833ad4346a,64c5699dae067f1f1081742c,64c7ce52d2a3173606763bb7,down,-1,0.4357,0.35,6,0,1.2681,,,,,,175,0,175,0,1,,,,,
,,690555,001,2023-07-31_17h08.44.100,arm3_q,2022.2.5,Win32,60.03121623,60cd99f1d0df72833ad4346a,64c5699dae067f1f1081742c,64c7ce52d2a3173606763bb7,up,-1,0.4357,0.35,5,0,1.6108,,,,,,176,0,176,0,1,,,,,
,,690555,001,2023-07-31_17h08.44.100,arm3_q,2022.2.5,Win32,60.03121623,60cd99f1d0df72833ad4346a,64c5699dae067f1f1081742c,64c7ce52d2a3173606763bb7,down,-1,0.4357,0.35,5,0,0.9188,,,,,,177,0,177,0,1,,,,,
,,690555,001,2023-07-31_17h08.44.100,arm3_q,2022.2.5,Win32,60.03121623,60cd99f1d0df72833ad4346a,64c5699dae067f1f1081742c,64c7ce52d2a3173606763bb7,up,1,0.4357,0.35,4,0,0.9957,,,,,,178,0,178,0,1,,,,,
,,690555,001,2023-07-31_17h08.44.100,arm3_q,2022.2.5,Win32,60.03121623,60cd99f1d0df72833ad4346a,64c5699dae067f1f1081742c,64c7ce52d2a3173606763bb7,down,-1,0.4357,0.35,4,0,1.7315,,,,,,179,0,179,0,1,,,,,
,,690555,001,2023-07-31_17h08.44.100,arm3_q,2022.2.5,Win32,60.03121623,60cd99f1d0df72833ad4346a,64c5699dae067f1f1081742c,64c7ce52d2a3173606763bb7,up,-1,0.4357,0.35,4,0,1.0653,,,,,,180,0,180,0,1,,,,,
,,690555,001,2023-07-31_17h08.44.100,arm3_q,2022.2.5,Win32,60.03121623,60cd99f1d0df72833ad4346a,64c5699dae067f1f1081742c,64c7ce52d2a3173606763bb7,down,-1,0.4357,0.35,4,0,1.0648,,,,,,181,0,181,0,1,,,,,
,,690555,001,2023-07-31_17h08.44.100,arm3_q,2022.2.5,Win32,60.03121623,60cd99f1d0df72833ad4346a,64c5699dae067f1f1081742c,64c7ce52d2a3173606763bb7,up,-1,0.4357,0.35,4,0,0.6048,,,,,,182,0,182,0,1,,,,,
,,690555,001,2023-07-31_17h08.44.100,arm3_q,2022.2.5,Win32,60.03121623,60cd99f1d0df72833ad4346a,64c5699dae067f1f1081742c,64c7ce52d2a3173606763bb7,up,1,0.4357,0.35,4,0,0.5573,,,,,,183,0,183,0,1,,,,,
,,690555,001,2023-07-31_17h08.44.100,arm3_q,2022.2.5,Win32,60.03121623,60cd99f1d0df72833ad4346a,64c5699dae067f1f1081742c,64c7ce52d2a3173606763bb7,up,-1,0.4357,0.35,5,0,0.5134,,,,,,184,0,184,0,1,,,,,
,,690555,001,2023-07-31_17h08.44.100,arm3_q,2022.2.5,Win32,60.03121623,60cd99f1d0df72833ad4346a,64c5699dae067f1f1081742c,64c7ce52d2a3173606763bb7,down,-1,0.4357,0.35,5,0,1.1618,,,,,,185,0,185,0,1,,,,,
,,690555,001,2023-07-31_17h08.44.100,arm3_q,2022.2.5,Win32,60.03121623,60cd99f1d0df72833ad4346a,64c5699dae067f1f1081742c,64c7ce52d2a3173606763bb7,up,-1,0.4357,0.35,5,0,1.4224,,,,,,186,0,186,0,1,,,,,
,,690555,001,2023-07-31_17h08.44.100,arm3_q,2022.2.5,Win32,60.03121623,60cd99f1d0df72833ad4346a,64c5699dae067f1f1081742c,64c7ce52d2a3173606763bb7,down,-1,0.4357,0.35,5,0,2.2342,,,,,,187,0,187,0,1,,,,,
,,690555,001,2023-07-31_17h08.44.100,arm3_q,2022.2.5,Win32,60.03121623,60cd99f1d0df72833ad4346a,64c5699dae067f1f1081742c,64c7ce52d2a3173606763bb7,up,1,0.4357,0.35,4,0,0.9535,,,,,,188,0,188,0,1,,,,,
,,690555,001,2023-07-31_17h08.44.100,arm3_q,2022.2.5,Win32,60.03121623,60cd99f1d0df72833ad4346a,64c5699dae067f1f1081742c,64c7ce52d2a3173606763bb7,up,1,0.4357,0.35,5,0,1.555,,,,,,189,0,189,0,1,,,,,
,,690555,001,2023-07-31_17h08.44.100,arm3_q,2022.2.5,Win32,60.03121623,60cd99f1d0df72833ad4346a,64c5699dae067f1f1081742c,64c7ce52d2a3173606763bb7,down,1,0.4357,0.35,4,0,1.1827,,,,,,190,0,190,0,1,,,,,
,,690555,001,2023-07-31_17h08.44.100,arm3_q,2022.2.5,Win32,60.03121623,60cd99f1d0df72833ad4346a,64c5699dae067f1f1081742c,64c7ce52d2a3173606763bb7,up,1,0.4357,0.35,5,0,0.8951,,,,,,191,0,191,0,1,,,,,
,,690555,001,2023-07-31_17h08.44.100,arm3_q,2022.2.5,Win32,60.03121623,60cd99f1d0df72833ad4346a,64c5699dae067f1f1081742c,64c7ce52d2a3173606763bb7,up,1,0.4357,0.35,5,0,0.9676,,,,,,192,0,192,0,1,,,,,
,,690555,001,2023-07-31_17h08.44.100,arm3_q,2022.2.5,Win32,60.03121623,60cd99f1d0df72833ad4346a,64c5699dae067f1f1081742c,64c7ce52d2a3173606763bb7,up,-1,0.4357,0.35,6,0,1.8946,,,,,,193,0,193,0,1,,,,,
,,690555,001,2023-07-31_17h08.44.100,arm3_q,2022.2.5,Win32,60.03121623,60cd99f1d0df72833ad4346a,64c5699dae067f1f1081742c,64c7ce52d2a3173606763bb7,up,1,0.4357,0.35,5,0,1.32,,,,,,194,0,194,0,1,,,,,
,,690555,001,2023-07-31_17h08.44.100,arm3_q,2022.2.5,Win32,60.03121623,60cd99f1d0df72833ad4346a,64c5699dae067f1f1081742c,64c7ce52d2a3173606763bb7,down,-1,0.4357,0.35,5,0,0.9842,,,,,,195,0,195,0,1,,,,,
,,690555,001,2023-07-31_17h08.44.100,arm3_q,2022.2.5,Win32,60.03121623,60cd99f1d0df72833ad4346a,64c5699dae067f1f1081742c,64c7ce52d2a3173606763bb7,up,1,0.4357,0.35,4,0,1.5807,,,,,,196,0,196,0,1,,,,,
,,690555,001,2023-07-31_17h08.44.100,arm3_q,2022.2.5,Win32,60.03121623,60cd99f1d0df72833ad4346a,64c5699dae067f1f1081742c,64c7ce52d2a3173606763bb7,down,1,0.4357,0.35,4,0,0.9608,,,,,,197,0,197,0,1,,,,,
,,690555,001,2023-07-31_17h08.44.100,arm3_q,2022.2.5,Win32,60.03121623,60cd99f1d0df72833ad4346a,64c5699dae067f1f1081742c,64c7ce52d2a3173606763bb7,down,1,0.4357,0.35,3,0,0.9115,,,,,,198,0,198,0,1,,,,,
,,690555,001,2023-07-31_17h08.44.100,arm3_q,2022.2.5,Win32,60.03121623,60cd99f1d0df72833ad4346a,64c5699dae067f1f1081742c,64c7ce52d2a3173606763bb7,up,1,0.4357,0.35,4,0,0.8281,,,,,,199,0,199,0,1,,,,,
,,690555,001,2023-07-31_17h08.44.100,arm3_q,2022.2.5,Win32,60.03121623,60cd99f1d0df72833ad4346a,64c5699dae067f1f1081742c,64c7ce52d2a3173606763bb7,up,1,0.4357,0.35,5,0,0.8949,,,,,,200,0,200,0,1,,,,,
,,690555,001,2023-07-31_17h08.44.100,arm3_q,2022.2.5,Win32,60.03121623,60cd99f1d0df72833ad4346a,64c5699dae067f1f1081742c,64c7ce52d2a3173606763bb7,up,-1,0.4357,0.35,6,0,1.197,,,,,,201,0,201,0,1,,,,,
,,690555,001,2023-07-31_17h08.44.100,arm3_q,2022.2.5,Win32,60.03121623,60cd99f1d0df72833ad4346a,64c5699dae067f1f1081742c,64c7ce52d2a3173606763bb7,up,-1,0.4357,0.35,5,0,1.4451,,,,,,202,0,202,0,1,,,,,
,,690555,001,2023-07-31_17h08.44.100,arm3_q,2022.2.5,Win32,60.03121623,60cd99f1d0df72833ad4346a,64c5699dae067f1f1081742c,64c7ce52d2a3173606763bb7,down,-1,0.4357,0.35,5,0,0.9284,,,,,,203,0,203,0,1,,,,,
,,690555,001,2023-07-31_17h08.44.100,arm3_q,2022.2.5,Win32,60.03121623,60cd99f1d0df72833ad4346a,64c5699dae067f1f1081742c,64c7ce52d2a3173606763bb7,up,1,0.4357,0.35,4,0,0.8487,,,,,,204,0,204,0,1,,,,,
,,690555,001,2023-07-31_17h08.44.100,arm3_q,2022.2.5,Win32,60.03121623,60cd99f1d0df72833ad4346a,64c5699dae067f1f1081742c,64c7ce52d2a3173606763bb7,down,1,0.4357,0.35,4,0,0.9652,,,,,,205,0,205,0,1,,,,,
,,690555,001,2023-07-31_17h08.44.100,arm3_q,2022.2.5,Win32,60.03121623,60cd99f1d0df72833ad4346a,64c5699dae067f1f1081742c,64c7ce52d2a3173606763bb7,down,1,0.4357,0.35,3,0,1.0885,,,,,,206,0,206,0,1,,,,,
,,690555,001,2023-07-31_17h08.44.100,arm3_q,2022.2.5,Win32,60.03121623,60cd99f1d0df72833ad4346a,64c5699dae067f1f1081742c,64c7ce52d2a3173606763bb7,up,1,0.4357,0.35,3,0,0.8057,,,,,,207,0,207,0,1,,,,,
,,690555,001,2023-07-31_17h08.44.100,arm3_q,2022.2.5,Win32,60.03121623,60cd99f1d0df72833ad4346a,64c5699dae067f1f1081742c,64c7ce52d2a3173606763bb7,up,1,0.4357,0.35,3,0,0.8573,,,,,,208,0,208,0,1,,,,,
,,690555,001,2023-07-31_17h08.44.100,arm3_q,2022.2.5,Win32,60.03121623,60cd99f1d0df72833ad4346a,64c5699dae067f1f1081742c,64c7ce52d2a3173606763bb7,up,1,0.4357,0.35,4,0,0.9475,,,,,,209,0,209,0,1,,,,,
,,690555,001,2023-07-31_17h08.44.100,arm3_q,2022.2.5,Win32,60.03121623,60cd99f1d0df72833ad4346a,64c5699dae067f1f1081742c,64c7ce52d2a3173606763bb7,up,-1,0.4357,0.35,4,0,1.1036,,,,,,210,0,210,0,1,,,,,
,,690555,001,2023-07-31_17h08.44.100,arm3_q,2022.2.5,Win32,60.03121623,60cd99f1d0df72833ad4346a,64c5699dae067f1f1081742c,64c7ce52d2a3173606763bb7,up,-1,0.4357,0.35,4,0,1.4899,,,,,,211,0,211,0,1,,,,,
,,690555,001,2023-07-31_17h08.44.100,arm3_q,2022.2.5,Win32,60.03121623,60cd99f1d0df72833ad4346a,64c5699dae067f1f1081742c,64c7ce52d2a3173606763bb7,down,-1,0.4357,0.35,4,0,1.3545,,,,,,212,0,212,0,1,,,,,
,,690555,001,2023-07-31_17h08.44.100,arm3_q,2022.2.5,Win32,60.03121623,60cd99f1d0df72833ad4346a,64c5699dae067f1f1081742c,64c7ce52d2a3173606763bb7,up,1,0.4357,0.35,3,0,1.287,,,,,,213,0,213,0,1,,,,,
,,690555,001,2023-07-31_17h08.44.100,arm3_q,2022.2.5,Win32,60.03121623,60cd99f1d0df72833ad4346a,64c5699dae067f1f1081742c,64c7ce52d2a3173606763bb7,down,1,0.4357,0.35,2,0,0.9336,,,,,,214,0,214,0,1,,,,,
,,690555,001,2023-07-31_17h08.44.100,arm3_q,2022.2.5,Win32,60.03121623,60cd99f1d0df72833ad4346a,64c5699dae067f1f1081742c,64c7ce52d2a3173606763bb7,up,-1,0.4357,0.35,2,0,1.5364,,,,,,215,0,215,0,1,,,,,
,,690555,001,2023-07-31_17h08.44.100,arm3_q,2022.2.5,Win32,60.03121623,60cd99f1d0df72833ad4346a,64c5699dae067f1f1081742c,64c7ce52d2a3173606763bb7,down,1,0.4357,0.35,3,0,1.022,,,,,,216,0,216,0,1,,,,,
,,690555,001,2023-07-31_17h08.44.100,arm3_q,2022.2.5,Win32,60.03121623,60cd99f1d0df72833ad4346a,64c5699dae067f1f1081742c,64c7ce52d2a3173606763bb7,up,1,0.4357,0.35,4,0,1.4359,,,,,,217,0,217,0,1,,,,,
,,690555,001,2023-07-31_17h08.44.100,arm3_q,2022.2.5,Win32,60.03121623,60cd99f1d0df72833ad4346a,64c5699dae067f1f1081742c,64c7ce52d2a3173606763bb7,up,1,0.4357,0.35,5,0,1.3744,,,,,,218,0,218,0,1,,,,,
,,690555,001,2023-07-31_17h08.44.100,arm3_q,2022.2.5,Win32,60.03121623,60cd99f1d0df72833ad4346a,64c5699dae067f1f1081742c,64c7ce52d2a3173606763bb7,up,1,0.4357,0.35,5,0,1.7449,,,,,,219,0,219,0,1,,,,,
,,690555,001,2023-07-31_17h08.44.100,arm3_q,2022.2.5,Win32,60.03121623,60cd99f1d0df72833ad4346a,64c5699dae067f1f1081742c,64c7ce52d2a3173606763bb7,down,1,0.4357,0.35,5,0,0.8718,,,,,,220,0,220,0,1,,,,,
,,690555,001,2023-07-31_17h08.44.100,arm3_q,2022.2.5,Win32,60.03121623,60cd99f1d0df72833ad4346a,64c5699dae067f1f1081742c,64c7ce52d2a3173606763bb7,up,1,0.4357,0.35,5,0,0.8194,,,,,,221,0,221,0,1,,,,,
,,690555,001,2023-07-31_17h08.44.100,arm3_q,2022.2.5,Win32,60.03121623,60cd99f1d0df72833ad4346a,64c5699dae067f1f1081742c,64c7ce52d2a3173606763bb7,up,-1,0.4357,0.35,5,0,1.2692,,,,,,222,0,222,0,1,,,,,
,,690555,001,2023-07-31_17h08.44.100,arm3_q,2022.2.5,Win32,60.03121623,60cd99f1d0df72833ad4346a,64c5699dae067f1f1081742c,64c7ce52d2a3173606763bb7,up,-1,0.4357,0.35,5,0,1.111,,,,,,223,0,223,0,1,,,,,
,,690555,001,2023-07-31_17h08.44.100,arm3_q,2022.2.5,Win32,60.03121623,60cd99f1d0df72833ad4346a,64c5699dae067f1f1081742c,64c7ce52d2a3173606763bb7,up,-1,0.4357,0.35,4,0,1.274,,,,,,224,0,224,0,1,,,,,
,,690555,001,2023-07-31_17h08.44.100,arm3_q,2022.2.5,Win32,60.03121623,60cd99f1d0df72833ad4346a,64c5699dae067f1f1081742c,64c7ce52d2a3173606763bb7,down,-1,0.4357,0.35,5,0,0.8686,,,,,,225,0,225,0,1,,,,,
,,690555,001,2023-07-31_17h08.44.100,arm3_q,2022.2.5,Win32,60.03121623,60cd99f1d0df72833ad4346a,64c5699dae067f1f1081742c,64c7ce52d2a3173606763bb7,up,-1,0.4357,0.35,4,0,1.9214,,,,,,226,0,226,0,1,,,,,
,,690555,001,2023-07-31_17h08.44.100,arm3_q,2022.2.5,Win32,60.03121623,60cd99f1d0df72833ad4346a,64c5699dae067f1f1081742c,64c7ce52d2a3173606763bb7,down,-1,0.4357,0.35,5,0,0.9612,,,,,,227,0,227,0,1,,,,,
,,690555,001,2023-07-31_17h08.44.100,arm3_q,2022.2.5,Win32,60.03121623,60cd99f1d0df72833ad4346a,64c5699dae067f1f1081742c,64c7ce52d2a3173606763bb7,down,1,0.4357,0.35,5,0,1.5688,,,,,,228,0,228,0,1,,,,,
,,690555,001,2023-07-31_17h08.44.100,arm3_q,2022.2.5,Win32,60.03121623,60cd99f1d0df72833ad4346a,64c5699dae067f1f1081742c,64c7ce52d2a3173606763bb7,up,1,0.4357,0.35,5,0,1.4358,,,,,,229,0,229,0,1,,,,,
,,690555,001,2023-07-31_17h08.44.100,arm3_q,2022.2.5,Win32,60.03121623,60cd99f1d0df72833ad4346a,64c5699dae067f1f1081742c,64c7ce52d2a3173606763bb7,down,1,0.4357,0.35,4,0,0.86,,,,,,230,0,230,0,1,,,,,
,,690555,001,2023-07-31_17h08.44.100,arm3_q,2022.2.5,Win32,60.03121623,60cd99f1d0df72833ad4346a,64c5699dae067f1f1081742c,64c7ce52d2a3173606763bb7,up,1,0.4357,0.35,4,0,0.7689,,,,,,231,0,231,0,1,,,,,
,,690555,001,2023-07-31_17h08.44.100,arm3_q,2022.2.5,Win32,60.03121623,60cd99f1d0df72833ad4346a,64c5699dae067f1f1081742c,64c7ce52d2a3173606763bb7,up,1,0.4357,0.35,5,0,0.9612,,,,,,232,0,232,0,1,,,,,
,,690555,001,2023-07-31_17h08.44.100,arm3_q,2022.2.5,Win32,60.03121623,60cd99f1d0df72833ad4346a,64c5699dae067f1f1081742c,64c7ce52d2a3173606763bb7,down,1,0.4357,0.35,5,0,5.5827,,,,,,233,0,233,0,1,,,,,
,,690555,001,2023-07-31_17h08.44.100,arm3_q,2022.2.5,Win32,60.03121623,60cd99f1d0df72833ad4346a,64c5699dae067f1f1081742c,64c7ce52d2a3173606763bb7,up,1,0.4357,0.35,6,0,0.9699,,,,,,234,0,234,0,1,,,,,
,,690555,001,2023-07-31_17h08.44.100,arm3_q,2022.2.5,Win32,60.03121623,60cd99f1d0df72833ad4346a,64c5699dae067f1f1081742c,64c7ce52d2a3173606763bb7,up,1,0.4357,0.35,6,0,0.9464,,,,,,235,0,235,0,1,,,,,
,,690555,001,2023-07-31_17h08.44.100,arm3_q,2022.2.5,Win32,60.03121623,60cd99f1d0df72833ad4346a,64c5699dae067f1f1081742c,64c7ce52d2a3173606763bb7,down,-1,0.4357,0.35,6,0,1.0618,,,,,,236,0,236,0,1,,,,,
,,690555,001,2023-07-31_17h08.44.100,arm3_q,2022.2.5,Win32,60.03121623,60cd99f1d0df72833ad4346a,64c5699dae067f1f1081742c,64c7ce52d2a3173606763bb7,up,1,0.4357,0.35,5,0,1.5145,,,,,,237,0,237,0,1,,,,,
,,690555,001,2023-07-31_17h08.44.100,arm3_q,2022.2.5,Win32,60.03121623,60cd99f1d0df72833ad4346a,64c5699dae067f1f1081742c,64c7ce52d2a3173606763bb7,down,1,0.4357,0.35,5,0,0.8475,,,,,,238,0,238,0,1,,,,,
,,690555,001,2023-07-31_17h08.44.100,arm3_q,2022.2.5,Win32,60.03121623,60cd99f1d0df72833ad4346a,64c5699dae067f1f1081742c,64c7ce52d2a3173606763bb7,up,-1,0.4357,0.35,6,0,0.8694,,,,,,239,0,239,0,1,,,,,
,,690555,001,2023-07-31_17h08.44.100,arm3_q,2022.2.5,Win32,60.03121623,60cd99f1d0df72833ad4346a,64c5699dae067f1f1081742c,64c7ce52d2a3173606763bb7,up,-1,0.4357,0.35,5,0,0.8778,,,,,,240,0,240,0,1,,,,,
,,690555,001,2023-07-31_17h08.44.100,arm3_q,2022.2.5,Win32,60.03121623,60cd99f1d0df72833ad4346a,64c5699dae067f1f1081742c,64c7ce52d2a3173606763bb7,down,1,0.4357,0.35,6,0,0.8381,,,,,,241,0,241,0,1,,,,,
,,690555,001,2023-07-31_17h08.44.100,arm3_q,2022.2.5,Win32,60.03121623,60cd99f1d0df72833ad4346a,64c5699dae067f1f1081742c,64c7ce52d2a3173606763bb7,down,1,0.4357,0.35,6,0,0.8505,,,,,,242,0,242,0,1,,,,,
,,690555,001,2023-07-31_17h08.44.100,arm3_q,2022.2.5,Win32,60.03121623,60cd99f1d0df72833ad4346a,64c5699dae067f1f1081742c,64c7ce52d2a3173606763bb7,up,1,0.4357,0.35,7,0,0.9897,,,,,,243,0,243,0,1,,,,,
,,690555,001,2023-07-31_17h08.44.100,arm3_q,2022.2.5,Win32,60.03121623,60cd99f1d0df72833ad4346a,64c5699dae067f1f1081742c,64c7ce52d2a3173606763bb7,up,1,0.4357,0.35,8,0,0.9129,,,,,,244,0,244,0,1,,,,,
,,690555,001,2023-07-31_17h08.44.100,arm3_q,2022.2.5,Win32,60.03121623,60cd99f1d0df72833ad4346a,64c5699dae067f1f1081742c,64c7ce52d2a3173606763bb7,up,1,0.4357,0.35,8,0,1.3379,,,,,,245,0,245,0,1,,,,,
,,690555,001,2023-07-31_17h08.44.100,arm3_q,2022.2.5,Win32,60.03121623,60cd99f1d0df72833ad4346a,64c5699dae067f1f1081742c,64c7ce52d2a3173606763bb7,down,-1,0.4357,0.35,8,0,1.7627,,,,,,246,0,246,0,1,,,,,
,,690555,001,2023-07-31_17h08.44.100,arm3_q,2022.2.5,Win32,60.03121623,60cd99f1d0df72833ad4346a,64c5699dae067f1f1081742c,64c7ce52d2a3173606763bb7,up,-1,0.4357,0.35,7,0,1.5726,,,,,,247,0,247,0,1,,,,,
,,690555,001,2023-07-31_17h08.44.100,arm3_q,2022.2.5,Win32,60.03121623,60cd99f1d0df72833ad4346a,64c5699dae067f1f1081742c,64c7ce52d2a3173606763bb7,down,1,0.4357,0.35,7,0,1.105,,,,,,248,0,248,0,1,,,,,
,,690555,001,2023-07-31_17h08.44.100,arm3_q,2022.2.5,Win32,60.03121623,60cd99f1d0df72833ad4346a,64c5699dae067f1f1081742c,64c7ce52d2a3173606763bb7,up,1,0.4357,0.35,7,0,1.1281,,,,,,249,0,249,0,1,,,,,
,,690555,001,2023-07-31_17h08.44.100,arm3_q,2022.2.5,Win32,60.03121623,60cd99f1d0df72833ad4346a,64c5699dae067f1f1081742c,64c7ce52d2a3173606763bb7,up,1,0.4357,0.35,7,0,1.3277,,,,,,250,0,250,0,1,,,,,
,,690555,001,2023-07-31_17h08.44.100,arm3_q,2022.2.5,Win32,60.03121623,60cd99f1d0df72833ad4346a,64c5699dae067f1f1081742c,64c7ce52d2a3173606763bb7,down,-1,0.4357,0.35,6,0,1.1308,,,,,,251,0,251,0,1,,,,,
,,690555,001,2023-07-31_17h08.44.100,arm3_q,2022.2.5,Win32,60.03121623,60cd99f1d0df72833ad4346a,64c5699dae067f1f1081742c,64c7ce52d2a3173606763bb7,up,1,0.4357,0.35,5,0,0.9145,,,,,,252,0,252,0,1,,,,,
,,690555,001,2023-07-31_17h08.44.100,arm3_q,2022.2.5,Win32,60.03121623,60cd99f1d0df72833ad4346a,64c5699dae067f1f1081742c,64c7ce52d2a3173606763bb7,up,1,0.4357,0.35,6,0,17.1587,,,,,,253,0,253,0,1,,,,,
,,690555,001,2023-07-31_17h08.44.100,arm3_q,2022.2.5,Win32,60.03121623,60cd99f1d0df72833ad4346a,64c5699dae067f1f1081742c,64c7ce52d2a3173606763bb7,up,1,0.4357,0.35,7,0,1.1692,,,,,,254,0,254,0,1,,,,,
,,690555,001,2023-07-31_17h08.44.100,arm3_q,2022.2.5,Win32,60.03121623,60cd99f1d0df72833ad4346a,64c5699dae067f1f1081742c,64c7ce52d2a3173606763bb7,up,1,0.4357,0.35,7,0,1.5324,,,,,,255,0,255,0,1,,,,,
,,690555,001,2023-07-31_17h08.44.100,arm3_q,2022.2.5,Win32,60.03121623,60cd99f1d0df72833ad4346a,64c5699dae067f1f1081742c,64c7ce52d2a3173606763bb7,up,1,0.4357,0.35,7,0,1.4495,,,,,,256,0,256,0,1,,,,,
,,690555,001,2023-07-31_17h08.44.100,arm3_q,2022.2.5,Win32,60.03121623,60cd99f1d0df72833ad4346a,64c5699dae067f1f1081742c,64c7ce52d2a3173606763bb7,down,1,0.4357,0.35,7,0,1.8365,,,,,,257,0,257,0,1,,,,,
,,690555,001,2023-07-31_17h08.44.100,arm3_q,2022.2.5,Win32,60.03121623,60cd99f1d0df72833ad4346a,64c5699dae067f1f1081742c,64c7ce52d2a3173606763bb7,up,1,0.4357,0.35,7,0,1.0117,,,,,,258,0,258,0,1,,,,,
,,690555,001,2023-07-31_17h08.44.100,arm3_q,2022.2.5,Win32,60.03121623,60cd99f1d0df72833ad4346a,64c5699dae067f1f1081742c,64c7ce52d2a3173606763bb7,up,1,0.4357,0.35,8,0,1.5814,,,,,,259,0,259,0,1,,,,,
,,690555,001,2023-07-31_17h08.44.100,arm3_q,2022.2.5,Win32,60.03121623,60cd99f1d0df72833ad4346a,64c5699dae067f1f1081742c,64c7ce52d2a3173606763bb7,up,1,0.4357,0.35,9,0,1.7844,,,,,,260,0,260,0,1,,,,,
,,690555,001,2023-07-31_17h08.44.100,arm3_q,2022.2.5,Win32,60.03121623,60cd99f1d0df72833ad4346a,64c5699dae067f1f1081742c,64c7ce52d2a3173606763bb7,up,1,0.4357,0.35,9,0,1.0118,,,,,,261,0,261,0,1,,,,,
,,690555,001,2023-07-31_17h08.44.100,arm3_q,2022.2.5,Win32,60.03121623,60cd99f1d0df72833ad4346a,64c5699dae067f1f1081742c,64c7ce52d2a3173606763bb7,down,1,0.4357,0.35,9,0,1.298,,,,,,262,0,262,0,1,,,,,
,,690555,001,2023-07-31_17h08.44.100,arm3_q,2022.2.5,Win32,60.03121623,60cd99f1d0df72833ad4346a,64c5699dae067f1f1081742c,64c7ce52d2a3173606763bb7,up,-1,0.4357,0.35,9,0,0.812,,,,,,263,0,263,0,1,,,,,
,,690555,001,2023-07-31_17h08.44.100,arm3_q,2022.2.5,Win32,60.03121623,60cd99f1d0df72833ad4346a,64c5699dae067f1f1081742c,64c7ce52d2a3173606763bb7,up,1,0.4357,0.35,8,0,1.3774,,,,,,264,0,264,0,1,,,,,
,,690555,001,2023-07-31_17h08.44.100,arm3_q,2022.2.5,Win32,60.03121623,60cd99f1d0df72833ad4346a,64c5699dae067f1f1081742c,64c7ce52d2a3173606763bb7,up,-1,0.4357,0.35,8,0,1.2117,,,,,,265,0,265,0,1,,,,,
,,690555,001,2023-07-31_17h08.44.100,arm3_q,2022.2.5,Win32,60.03121623,60cd99f1d0df72833ad4346a,64c5699dae067f1f1081742c,64c7ce52d2a3173606763bb7,down,-1,0.4357,0.35,8,0,1.011,,,,,,266,0,266,0,1,,,,,
,,690555,001,2023-07-31_17h08.44.100,arm3_q,2022.2.5,Win32,60.03121623,60cd99f1d0df72833ad4346a,64c5699dae067f1f1081742c,64c7ce52d2a3173606763bb7,up,-1,0.4357,0.35,8,0,0.8472,,,,,,267,0,267,0,1,,,,,
,,690555,001,2023-07-31_17h08.44.100,arm3_q,2022.2.5,Win32,60.03121623,60cd99f1d0df72833ad4346a,64c5699dae067f1f1081742c,64c7ce52d2a3173606763bb7,up,1,0.4357,0.35,8,0,1.4783,,,,,,268,0,268,0,1,,,,,
,,690555,001,2023-07-31_17h08.44.100,arm3_q,2022.2.5,Win32,60.03121623,60cd99f1d0df72833ad4346a,64c5699dae067f1f1081742c,64c7ce52d2a3173606763bb7,down,-1,0.4357,0.35,7,0,1.0275,,,,,,269,0,269,0,1,,,,,
,,690555,001,2023-07-31_17h08.44.100,arm3_q,2022.2.5,Win32,60.03121623,60cd99f1d0df72833ad4346a,64c5699dae067f1f1081742c,64c7ce52d2a3173606763bb7,up,-1,0.4357,0.35,6,0,0.8286,,,,,,270,0,270,0,1,,,,,
,,690555,001,2023-07-31_17h08.44.100,arm3_q,2022.2.5,Win32,60.03121623,60cd99f1d0df72833ad4346a,64c5699dae067f1f1081742c,64c7ce52d2a3173606763bb7,up,-1,0.4357,0.35,6,0,1.0138,,,,,,271,0,271,0,1,,,,,
,,690555,001,2023-07-31_17h08.44.100,arm3_q,2022.2.5,Win32,60.03121623,60cd99f1d0df72833ad4346a,64c5699dae067f1f1081742c,64c7ce52d2a3173606763bb7,up,-1,0.4357,0.35,6,0,0.5853,,,,,,272,0,272,0,1,,,,,
,,690555,001,2023-07-31_17h08.44.100,arm3_q,2022.2.5,Win32,60.03121623,60cd99f1d0df72833ad4346a,64c5699dae067f1f1081742c,64c7ce52d2a3173606763bb7,down,-1,0.4357,0.35,6,0,1.1979,,,,,,273,0,273,0,1,,,,,
,,690555,001,2023-07-31_17h08.44.100,arm3_q,2022.2.5,Win32,60.03121623,60cd99f1d0df72833ad4346a,64c5699dae067f1f1081742c,64c7ce52d2a3173606763bb7,up,-1,0.4357,0.35,5,0,0.6445,,,,,,274,0,274,0,1,,,,,
,,690555,001,2023-07-31_17h08.44.100,arm3_q,2022.2.5,Win32,60.03121623,60cd99f1d0df72833ad4346a,64c5699dae067f1f1081742c,64c7ce52d2a3173606763bb7,down,1,0.4357,0.35,6,0,0.8988,,,,,,275,0,275,0,1,,,,,
,,690555,001,2023-07-31_17h08.44.100,arm3_q,2022.2.5,Win32,60.03121623,60cd99f1d0df72833ad4346a,64c5699dae067f1f1081742c,64c7ce52d2a3173606763bb7,down,-1,0.4357,0.35,6,0,0.8202,,,,,,276,0,276,0,1,,,,,
,,690555,001,2023-07-31_17h08.44.100,arm3_q,2022.2.5,Win32,60.03121623,60cd99f1d0df72833ad4346a,64c5699dae067f1f1081742c,64c7ce52d2a3173606763bb7,up,-1,0.4357,0.35,6,0,0.9554,,,,,,277,0,277,0,1,,,,,
,,690555,001,2023-07-31_17h08.44.100,arm3_q,2022.2.5,Win32,60.03121623,60cd99f1d0df72833ad4346a,64c5699dae067f1f1081742c,64c7ce52d2a3173606763bb7,down,-1,0.4357,0.35,6,0,1.0786,,,,,,278,0,278,0,1,,,,,
,,690555,001,2023-07-31_17h08.44.100,arm3_q,2022.2.5,Win32,60.03121623,60cd99f1d0df72833ad4346a,64c5699dae067f1f1081742c,64c7ce52d2a3173606763bb7,up,-1,0.4357,0.35,5,0,0.9617,,,,,,279,0,279,0,1,,,,,
,,690555,001,2023-07-31_17h08.44.100,arm3_q,2022.2.5,Win32,60.03121623,60cd99f1d0df72833ad4346a,64c5699dae067f1f1081742c,64c7ce52d2a3173606763bb7,up,-1,0.4357,0.35,5,0,1.1181,,,,,,280,0,280,0,1,,,,,
,,690555,001,2023-07-31_17h08.44.100,arm3_q,2022.2.5,Win32,60.03121623,60cd99f1d0df72833ad4346a,64c5699dae067f1f1081742c,64c7ce52d2a3173606763bb7,down,-1,0.4357,0.35,6,0,2.449,,,,,,281,0,281,0,1,,,,,
,,690555,001,2023-07-31_17h08.44.100,arm3_q,2022.2.5,Win32,60.03121623,60cd99f1d0df72833ad4346a,64c5699dae067f1f1081742c,64c7ce52d2a3173606763bb7,up,-1,0.4357,0.35,6,0,1.0015,,,,,,282,0,282,0,1,,,,,
,,690555,001,2023-07-31_17h08.44.100,arm3_q,2022.2.5,Win32,60.03121623,60cd99f1d0df72833ad4346a,64c5699dae067f1f1081742c,64c7ce52d2a3173606763bb7,down,-1,0.4357,0.35,7,0,0.8793,,,,,,283,0,283,0,1,,,,,
