space_bar.keys,space_bar.rt,participant,session,date,expName,psychopyVersion,OS,frameRate,PROLIFIC_PID,STUDY_ID,SESSION_ID,resp.keys,state,q_prob,eps_prob,score,price,resp.rt,train.thisRepN,train.thisTrialN,train.thisN,train.thisIndex,train.ran,steps.thisRepN,steps.thisTrialN,steps.thisN,steps.thisIndex,steps.ran,blocks.thisRepN,blocks.thisTrialN,blocks.thisN,blocks.thisIndex,blocks.ran
space,69.511,698451,001,2023-07-31_17h08.12.163,arm3_q,2022.2.5,Win32,62.5,5fd391f111059f000ac10cde,64c5699dae067f1f1081742c,64c7cde22b91682cd61606e2,,,,,,,,,,,,,,,,,,,,,,
space,10.574,698451,001,2023-07-31_17h08.12.163,arm3_q,2022.2.5,Win32,62.5,5fd391f111059f000ac10cde,64c5699dae067f1f1081742c,64c7cde22b91682cd61606e2,,,,,,,,,,,,,,,,,,,,,,
space,59.847,698451,001,2023-07-31_17h08.12.163,arm3_q,2022.2.5,Win32,62.5,5fd391f111059f000ac10cde,64c5699dae067f1f1081742c,64c7cde22b91682cd61606e2,,,,,,,,,,,,,,,,,,,,,,
space,11.659,698451,001,2023-07-31_17h08.12.163,arm3_q,2022.2.5,Win32,62.5,5fd391f111059f000ac10cde,64c5699dae067f1f1081742c,64c7cde22b91682cd61606e2,,,,,,,,,,,,,,,,,,,,,,
space,41.014,698451,001,2023-07-31_17h08.12.163,arm3_q,2022.2.5,Win32,62.5,5fd391f111059f000ac10cde,64c5699dae067f1f1081742c,64c7cde22b91682cd61606e2,,,,,,,,,,,,,,,,,,,,,,
space,14.864,698451,001,2023-07-31_17h08.12.163,arm3_q,2022.2.5,Win32,62.5,5fd391f111059f000ac10cde,64c5699dae067f1f1081742c,64c7cde22b91682cd61606e2,,,,,,,,,,,,,,,,,,,,,,
space,19.546,698451,001,2023-07-31_17h08.12.163,arm3_q,2022.2.5,Win32,62.5,5fd391f111059f000ac10cde,64c5699dae067f1f1081742c,64c7cde22b91682cd61606e2,,,,,,,,,,,,,,,,,,,,,,
space,4.349,698451,001,2023-07-31_17h08.12.163,arm3_q,2022.2.5,Win32,62.5,5fd391f111059f000ac10cde,64c5699dae067f1f1081742c,64c7cde22b91682cd61606e2,,,,,,,,,,,,,,,,,,,,,,
,,698451,001,2023-07-31_17h08.12.163,arm3_q,2022.2.5,Win32,62.5,5fd391f111059f000ac10cde,64c5699dae067f1f1081742c,64c7cde22b91682cd61606e2,up,1,1,0.35,-1,0,11.658,0,0,0,0,1,,,,,,,,,,
,,698451,001,2023-07-31_17h08.12.163,arm3_q,2022.2.5,Win32,62.5,5fd391f111059f000ac10cde,64c5699dae067f1f1081742c,64c7cde22b91682cd61606e2,right,1,1,0.35,-1,0.004051243,6.03,1,0,1,0,1,,,,,,,,,,
,,698451,001,2023-07-31_17h08.12.163,arm3_q,2022.2.5,Win32,62.5,5fd391f111059f000ac10cde,64c5699dae067f1f1081742c,64c7cde22b91682cd61606e2,up,1,1,0.35,0,0,3.561,2,0,2,0,1,,,,,,,,,,
,,698451,001,2023-07-31_17h08.12.163,arm3_q,2022.2.5,Win32,62.5,5fd391f111059f000ac10cde,64c5699dae067f1f1081742c,64c7cde22b91682cd61606e2,right,1,1,0.35,0,0.005071937,2.52,3,0,3,0,1,,,,,,,,,,
,,698451,001,2023-07-31_17h08.12.163,arm3_q,2022.2.5,Win32,62.5,5fd391f111059f000ac10cde,64c5699dae067f1f1081742c,64c7cde22b91682cd61606e2,up,-1,1,0.35,1,0,1.532,4,0,4,0,1,,,,,,,,,,
,,698451,001,2023-07-31_17h08.12.163,arm3_q,2022.2.5,Win32,62.5,5fd391f111059f000ac10cde,64c5699dae067f1f1081742c,64c7cde22b91682cd61606e2,down,-1,1,0.35,2,0,1.745,5,0,5,0,1,,,,,,,,,,
,,698451,001,2023-07-31_17h08.12.163,arm3_q,2022.2.5,Win32,62.5,5fd391f111059f000ac10cde,64c5699dae067f1f1081742c,64c7cde22b91682cd61606e2,right,-1,1,0.35,2,0.006651929,2.088,6,0,6,0,1,,,,,,,,,,
,,698451,001,2023-07-31_17h08.12.163,arm3_q,2022.2.5,Win32,62.5,5fd391f111059f000ac10cde,64c5699dae067f1f1081742c,64c7cde22b91682cd61606e2,down,-1,1,0.35,3,0,1.233,7,0,7,0,1,,,,,,,,,,
,,698451,001,2023-07-31_17h08.12.163,arm3_q,2022.2.5,Win32,62.5,5fd391f111059f000ac10cde,64c5699dae067f1f1081742c,64c7cde22b91682cd61606e2,down,1,1,0.35,4,0,1.522,8,0,8,0,1,,,,,,,,,,
,,698451,001,2023-07-31_17h08.12.163,arm3_q,2022.2.5,Win32,62.5,5fd391f111059f000ac10cde,64c5699dae067f1f1081742c,64c7cde22b91682cd61606e2,up,1,1,0.35,5,0,1.593,9,0,9,0,1,,,,,,,,,,
,,698451,001,2023-07-31_17h08.12.163,arm3_q,2022.2.5,Win32,62.5,5fd391f111059f000ac10cde,64c5699dae067f1f1081742c,64c7cde22b91682cd61606e2,up,1,1,0.35,6,0,1.558,10,0,10,0,1,,,,,,,,,,
,,698451,001,2023-07-31_17h08.12.163,arm3_q,2022.2.5,Win32,62.5,5fd391f111059f000ac10cde,64c5699dae067f1f1081742c,64c7cde22b91682cd61606e2,up,1,1,0.35,7,0,1.628,11,0,11,0,1,,,,,,,,,,
,,698451,001,2023-07-31_17h08.12.163,arm3_q,2022.2.5,Win32,62.5,5fd391f111059f000ac10cde,64c5699dae067f1f1081742c,64c7cde22b91682cd61606e2,up,1,1,0.35,8,0,2.112,12,0,12,0,1,,,,,,,,,,
,,698451,001,2023-07-31_17h08.12.163,arm3_q,2022.2.5,Win32,62.5,5fd391f111059f000ac10cde,64c5699dae067f1f1081742c,64c7cde22b91682cd61606e2,down,1,1,0.35,7,0,1.5,13,0,13,0,1,,,,,,,,,,
,,698451,001,2023-07-31_17h08.12.163,arm3_q,2022.2.5,Win32,62.5,5fd391f111059f000ac10cde,64c5699dae067f1f1081742c,64c7cde22b91682cd61606e2,right,1,1,0.35,7,0.01188689,2.289,14,0,14,0,1,,,,,,,,,,
,,698451,001,2023-07-31_17h08.12.163,arm3_q,2022.2.5,Win32,62.5,5fd391f111059f000ac10cde,64c5699dae067f1f1081742c,64c7cde22b91682cd61606e2,up,1,1,0.35,8,0,1.1,15,0,15,0,1,,,,,,,,,,
,,698451,001,2023-07-31_17h08.12.163,arm3_q,2022.2.5,Win32,62.5,5fd391f111059f000ac10cde,64c5699dae067f1f1081742c,64c7cde22b91682cd61606e2,right,1,1,0.35,8,0.003233131,1.86,16,0,16,0,1,,,,,,,,,,
,,698451,001,2023-07-31_17h08.12.163,arm3_q,2022.2.5,Win32,62.5,5fd391f111059f000ac10cde,64c5699dae067f1f1081742c,64c7cde22b91682cd61606e2,up,-1,1,0.35,9,0,1.103,17,0,17,0,1,,,,,,,,,,
,,698451,001,2023-07-31_17h08.12.163,arm3_q,2022.2.5,Win32,62.5,5fd391f111059f000ac10cde,64c5699dae067f1f1081742c,64c7cde22b91682cd61606e2,down,-1,1,0.35,10,0,1.504,18,0,18,0,1,,,,,,,,,,
,,698451,001,2023-07-31_17h08.12.163,arm3_q,2022.2.5,Win32,62.5,5fd391f111059f000ac10cde,64c5699dae067f1f1081742c,64c7cde22b91682cd61606e2,right,-1,1,0.35,10,0.003169096,1.553,19,0,19,0,1,,,,,,,,,,
,,698451,001,2023-07-31_17h08.12.163,arm3_q,2022.2.5,Win32,62.5,5fd391f111059f000ac10cde,64c5699dae067f1f1081742c,64c7cde22b91682cd61606e2,right,-1,1,0.35,10,-0.014128887,1.433,20,0,20,0,1,,,,,,,,,,
,,698451,001,2023-07-31_17h08.12.163,arm3_q,2022.2.5,Win32,62.5,5fd391f111059f000ac10cde,64c5699dae067f1f1081742c,64c7cde22b91682cd61606e2,down,-1,1,0.35,11,0,1.501,21,0,21,0,1,,,,,,,,,,
,,698451,001,2023-07-31_17h08.12.163,arm3_q,2022.2.5,Win32,62.5,5fd391f111059f000ac10cde,64c5699dae067f1f1081742c,64c7cde22b91682cd61606e2,right,-1,1,0.35,11,0.004339386,1.605,22,0,22,0,1,,,,,,,,,,
,,698451,001,2023-07-31_17h08.12.163,arm3_q,2022.2.5,Win32,62.5,5fd391f111059f000ac10cde,64c5699dae067f1f1081742c,64c7cde22b91682cd61606e2,down,1,1,0.35,12,0,1.233,23,0,23,0,1,,,,,,,,,,
,,698451,001,2023-07-31_17h08.12.163,arm3_q,2022.2.5,Win32,62.5,5fd391f111059f000ac10cde,64c5699dae067f1f1081742c,64c7cde22b91682cd61606e2,right,1,1,0.35,12,-0.004783253,1.297,24,0,24,0,1,,,,,,,,,,
,,698451,001,2023-07-31_17h08.12.163,arm3_q,2022.2.5,Win32,62.5,5fd391f111059f000ac10cde,64c5699dae067f1f1081742c,64c7cde22b91682cd61606e2,right,1,1,0.35,12,0.001067271,1.306,25,0,25,0,1,,,,,,,,,,
,,698451,001,2023-07-31_17h08.12.163,arm3_q,2022.2.5,Win32,62.5,5fd391f111059f000ac10cde,64c5699dae067f1f1081742c,64c7cde22b91682cd61606e2,up,-1,1,0.35,13,0,1.366,26,0,26,0,1,,,,,,,,,,
,,698451,001,2023-07-31_17h08.12.163,arm3_q,2022.2.5,Win32,62.5,5fd391f111059f000ac10cde,64c5699dae067f1f1081742c,64c7cde22b91682cd61606e2,right,-1,1,0.35,13,-0.009018672,1.352,27,0,27,0,1,,,,,,,,,,
,,698451,001,2023-07-31_17h08.12.163,arm3_q,2022.2.5,Win32,62.5,5fd391f111059f000ac10cde,64c5699dae067f1f1081742c,64c7cde22b91682cd61606e2,down,-1,1,0.35,14,0,0.882,28,0,28,0,1,,,,,,,,,,
,,698451,001,2023-07-31_17h08.12.163,arm3_q,2022.2.5,Win32,62.5,5fd391f111059f000ac10cde,64c5699dae067f1f1081742c,64c7cde22b91682cd61606e2,right,-1,1,0.35,14,0.001319409,1.141,29,0,29,0,1,,,,,,,,,,
,,698451,001,2023-07-31_17h08.12.163,arm3_q,2022.2.5,Win32,62.5,5fd391f111059f000ac10cde,64c5699dae067f1f1081742c,64c7cde22b91682cd61606e2,right,-1,1,0.35,14,0.012187978,0.818,30,0,30,0,1,,,,,,,,,,
,,698451,001,2023-07-31_17h08.12.163,arm3_q,2022.2.5,Win32,62.5,5fd391f111059f000ac10cde,64c5699dae067f1f1081742c,64c7cde22b91682cd61606e2,right,-1,1,0.35,14,0.008763337,0.834,31,0,31,0,1,,,,,,,,,,
,,698451,001,2023-07-31_17h08.12.163,arm3_q,2022.2.5,Win32,62.5,5fd391f111059f000ac10cde,64c5699dae067f1f1081742c,64c7cde22b91682cd61606e2,up,-1,1,0.35,13,0,1.204,32,0,32,0,1,,,,,,,,,,
,,698451,001,2023-07-31_17h08.12.163,arm3_q,2022.2.5,Win32,62.5,5fd391f111059f000ac10cde,64c5699dae067f1f1081742c,64c7cde22b91682cd61606e2,right,-1,1,0.35,13,-0.008144744,1.508,33,0,33,0,1,,,,,,,,,,
,,698451,001,2023-07-31_17h08.12.163,arm3_q,2022.2.5,Win32,62.5,5fd391f111059f000ac10cde,64c5699dae067f1f1081742c,64c7cde22b91682cd61606e2,right,-1,1,0.35,13,-0.022404633,2.216,34,0,34,0,1,,,,,,,,,,
,,698451,001,2023-07-31_17h08.12.163,arm3_q,2022.2.5,Win32,62.5,5fd391f111059f000ac10cde,64c5699dae067f1f1081742c,64c7cde22b91682cd61606e2,down,-1,1,0.35,14,0,1.12,35,0,35,0,1,,,,,,,,,,
,,698451,001,2023-07-31_17h08.12.163,arm3_q,2022.2.5,Win32,62.5,5fd391f111059f000ac10cde,64c5699dae067f1f1081742c,64c7cde22b91682cd61606e2,right,-1,1,0.35,14,-0.022708024,1.449,36,0,36,0,1,,,,,,,,,,
,,698451,001,2023-07-31_17h08.12.163,arm3_q,2022.2.5,Win32,62.5,5fd391f111059f000ac10cde,64c5699dae067f1f1081742c,64c7cde22b91682cd61606e2,right,-1,1,0.35,14,-0.032698112,0.89,37,0,37,0,1,,,,,,,,,,
,,698451,001,2023-07-31_17h08.12.163,arm3_q,2022.2.5,Win32,62.5,5fd391f111059f000ac10cde,64c5699dae067f1f1081742c,64c7cde22b91682cd61606e2,right,-1,1,0.35,14,-0.029022717,0.924,38,0,38,0,1,,,,,,,,,,
,,698451,001,2023-07-31_17h08.12.163,arm3_q,2022.2.5,Win32,62.5,5fd391f111059f000ac10cde,64c5699dae067f1f1081742c,64c7cde22b91682cd61606e2,down,-1,1,0.35,15,0,0.953,39,0,39,0,1,,,,,,,,,,
,,698451,001,2023-07-31_17h08.12.163,arm3_q,2022.2.5,Win32,62.5,5fd391f111059f000ac10cde,64c5699dae067f1f1081742c,64c7cde22b91682cd61606e2,right,-1,1,0.35,15,-0.034990721,1.379,40,0,40,0,1,,,,,,,,,,
,,698451,001,2023-07-31_17h08.12.163,arm3_q,2022.2.5,Win32,62.5,5fd391f111059f000ac10cde,64c5699dae067f1f1081742c,64c7cde22b91682cd61606e2,right,-1,1,0.35,15,-0.049361139,0.849,41,0,41,0,1,,,,,,,,,,
,,698451,001,2023-07-31_17h08.12.163,arm3_q,2022.2.5,Win32,62.5,5fd391f111059f000ac10cde,64c5699dae067f1f1081742c,64c7cde22b91682cd61606e2,right,-1,1,0.35,15,-0.035773046,0.958,42,0,42,0,1,,,,,,,,,,
,,698451,001,2023-07-31_17h08.12.163,arm3_q,2022.2.5,Win32,62.5,5fd391f111059f000ac10cde,64c5699dae067f1f1081742c,64c7cde22b91682cd61606e2,down,-1,1,0.35,16,0,0.715,43,0,43,0,1,,,,,,,,,,
,,698451,001,2023-07-31_17h08.12.163,arm3_q,2022.2.5,Win32,62.5,5fd391f111059f000ac10cde,64c5699dae067f1f1081742c,64c7cde22b91682cd61606e2,right,-1,1,0.35,16,-0.045203061,1.38,44,0,44,0,1,,,,,,,,,,
,,698451,001,2023-07-31_17h08.12.163,arm3_q,2022.2.5,Win32,62.5,5fd391f111059f000ac10cde,64c5699dae067f1f1081742c,64c7cde22b91682cd61606e2,right,-1,1,0.35,16,-0.071633989,0.954,45,0,45,0,1,,,,,,,,,,
,,698451,001,2023-07-31_17h08.12.163,arm3_q,2022.2.5,Win32,62.5,5fd391f111059f000ac10cde,64c5699dae067f1f1081742c,64c7cde22b91682cd61606e2,down,-1,1,0.35,17,0,0.638,46,0,46,0,1,,,,,,,,,,
,,698451,001,2023-07-31_17h08.12.163,arm3_q,2022.2.5,Win32,62.5,5fd391f111059f000ac10cde,64c5699dae067f1f1081742c,64c7cde22b91682cd61606e2,right,-1,1,0.35,17,-0.025227312,1.141,47,0,47,0,1,,,,,,,,,,
,,698451,001,2023-07-31_17h08.12.163,arm3_q,2022.2.5,Win32,62.5,5fd391f111059f000ac10cde,64c5699dae067f1f1081742c,64c7cde22b91682cd61606e2,right,-1,1,0.35,17,-0.011951893,0.826,48,0,48,0,1,,,,,,,,,,
,,698451,001,2023-07-31_17h08.12.163,arm3_q,2022.2.5,Win32,62.5,5fd391f111059f000ac10cde,64c5699dae067f1f1081742c,64c7cde22b91682cd61606e2,right,-1,1,0.35,17,-0.020336751,0.718,49,0,49,0,1,,,,,,,,,,
space,37.834,698451,001,2023-07-31_17h08.12.163,arm3_q,2022.2.5,Win32,62.5,5fd391f111059f000ac10cde,64c5699dae067f1f1081742c,64c7cde22b91682cd61606e2,,,,,,,,,,,,,,,,,,,,,,
space,16.71,698451,001,2023-07-31_17h08.12.163,arm3_q,2022.2.5,Win32,62.5,5fd391f111059f000ac10cde,64c5699dae067f1f1081742c,64c7cde22b91682cd61606e2,,,,,,,,,,,,,,,,,,,,,,
space,46.802,698451,001,2023-07-31_17h08.12.163,arm3_q,2022.2.5,Win32,62.5,5fd391f111059f000ac10cde,64c5699dae067f1f1081742c,64c7cde22b91682cd61606e2,,,,,,,,,,,,,,,,,,,,,,
space,13.786,698451,001,2023-07-31_17h08.12.163,arm3_q,2022.2.5,Win32,62.5,5fd391f111059f000ac10cde,64c5699dae067f1f1081742c,64c7cde22b91682cd61606e2,,,,,,,,,,,,,,,,,,,,,,
space,44.005,698451,001,2023-07-31_17h08.12.163,arm3_q,2022.2.5,Win32,62.5,5fd391f111059f000ac10cde,64c5699dae067f1f1081742c,64c7cde22b91682cd61606e2,,,,,,,,,,,,,,,,,,,,,,
space,1.97,698451,001,2023-07-31_17h08.12.163,arm3_q,2022.2.5,Win32,62.5,5fd391f111059f000ac10cde,64c5699dae067f1f1081742c,64c7cde22b91682cd61606e2,,,,,,,,,,,,,,,,,,,,,,
,,698451,001,2023-07-31_17h08.12.163,arm3_q,2022.2.5,Win32,62.5,5fd391f111059f000ac10cde,64c5699dae067f1f1081742c,64c7cde22b91682cd61606e2,down,-1,0.5643,0.35,0,0,1.768,0,0,0,0,1,,,,,,,,,,
,,698451,001,2023-07-31_17h08.12.163,arm3_q,2022.2.5,Win32,62.5,5fd391f111059f000ac10cde,64c5699dae067f1f1081742c,64c7cde22b91682cd61606e2,right,-1,0.5643,0.35,0,0.000316334,1.989,1,0,1,0,1,,,,,,,,,,
,,698451,001,2023-07-31_17h08.12.163,arm3_q,2022.2.5,Win32,62.5,5fd391f111059f000ac10cde,64c5699dae067f1f1081742c,64c7cde22b91682cd61606e2,down,-1,0.5643,0.35,1,0,1.013,2,0,2,0,1,,,,,,,,,,
,,698451,001,2023-07-31_17h08.12.163,arm3_q,2022.2.5,Win32,62.5,5fd391f111059f000ac10cde,64c5699dae067f1f1081742c,64c7cde22b91682cd61606e2,down,-1,0.5643,0.35,1,0,2.091,3,0,3,0,1,,,,,,,,,,
,,698451,001,2023-07-31_17h08.12.163,arm3_q,2022.2.5,Win32,62.5,5fd391f111059f000ac10cde,64c5699dae067f1f1081742c,64c7cde22b91682cd61606e2,right,-1,0.5643,0.35,1,-0.023118594,1.191,4,0,4,0,1,,,,,,,,,,
,,698451,001,2023-07-31_17h08.12.163,arm3_q,2022.2.5,Win32,62.5,5fd391f111059f000ac10cde,64c5699dae067f1f1081742c,64c7cde22b91682cd61606e2,down,1,0.5643,0.35,2,0,0.768,5,0,5,0,1,,,,,,,,,,
,,698451,001,2023-07-31_17h08.12.163,arm3_q,2022.2.5,Win32,62.5,5fd391f111059f000ac10cde,64c5699dae067f1f1081742c,64c7cde22b91682cd61606e2,right,1,0.5643,0.35,2,0.003072954,1.236,6,0,6,0,1,,,,,,,,,,
,,698451,001,2023-07-31_17h08.12.163,arm3_q,2022.2.5,Win32,62.5,5fd391f111059f000ac10cde,64c5699dae067f1f1081742c,64c7cde22b91682cd61606e2,up,1,0.5643,0.35,2,0,1.22,7,0,7,0,1,,,,,,,,,,
,,698451,001,2023-07-31_17h08.12.163,arm3_q,2022.2.5,Win32,62.5,5fd391f111059f000ac10cde,64c5699dae067f1f1081742c,64c7cde22b91682cd61606e2,right,1,0.5643,0.35,2,0.009091111,1.293,8,0,8,0,1,,,,,,,,,,
,,698451,001,2023-07-31_17h08.12.163,arm3_q,2022.2.5,Win32,62.5,5fd391f111059f000ac10cde,64c5699dae067f1f1081742c,64c7cde22b91682cd61606e2,right,1,0.5643,0.35,2,0.003021034,1.055,9,0,9,0,1,,,,,,,,,,
,,698451,001,2023-07-31_17h08.12.163,arm3_q,2022.2.5,Win32,62.5,5fd391f111059f000ac10cde,64c5699dae067f1f1081742c,64c7cde22b91682cd61606e2,right,1,0.5643,0.35,2,0.013124905,1.116,10,0,10,0,1,,,,,,,,,,
,,698451,001,2023-07-31_17h08.12.163,arm3_q,2022.2.5,Win32,62.5,5fd391f111059f000ac10cde,64c5699dae067f1f1081742c,64c7cde22b91682cd61606e2,up,1,0.5643,0.35,3,0,1.041,11,0,11,0,1,,,,,,,,,,
,,698451,001,2023-07-31_17h08.12.163,arm3_q,2022.2.5,Win32,62.5,5fd391f111059f000ac10cde,64c5699dae067f1f1081742c,64c7cde22b91682cd61606e2,up,1,0.5643,0.35,3,0,1.69,12,0,12,0,1,,,,,,,,,,
,,698451,001,2023-07-31_17h08.12.163,arm3_q,2022.2.5,Win32,62.5,5fd391f111059f000ac10cde,64c5699dae067f1f1081742c,64c7cde22b91682cd61606e2,right,1,0.5643,0.35,3,0.019170847,1.68,13,0,13,0,1,,,,,,,,,,
,,698451,001,2023-07-31_17h08.12.163,arm3_q,2022.2.5,Win32,62.5,5fd391f111059f000ac10cde,64c5699dae067f1f1081742c,64c7cde22b91682cd61606e2,right,1,0.5643,0.35,3,0.013213089,1.123,14,0,14,0,1,,,,,,,,,,
,,698451,001,2023-07-31_17h08.12.163,arm3_q,2022.2.5,Win32,62.5,5fd391f111059f000ac10cde,64c5699dae067f1f1081742c,64c7cde22b91682cd61606e2,up,-1,0.5643,0.35,3,0,1.139,15,0,15,0,1,,,,,,,,,,
,,698451,001,2023-07-31_17h08.12.163,arm3_q,2022.2.5,Win32,62.5,5fd391f111059f000ac10cde,64c5699dae067f1f1081742c,64c7cde22b91682cd61606e2,right,-1,0.5643,0.35,3,0.016813806,1.658,16,0,16,0,1,,,,,,,,,,
,,698451,001,2023-07-31_17h08.12.163,arm3_q,2022.2.5,Win32,62.5,5fd391f111059f000ac10cde,64c5699dae067f1f1081742c,64c7cde22b91682cd61606e2,right,-1,0.5643,0.35,3,-0.010134879,0.963,17,0,17,0,1,,,,,,,,,,
,,698451,001,2023-07-31_17h08.12.163,arm3_q,2022.2.5,Win32,62.5,5fd391f111059f000ac10cde,64c5699dae067f1f1081742c,64c7cde22b91682cd61606e2,right,-1,0.5643,0.35,3,0.014752462,0.814,18,0,18,0,1,,,,,,,,,,
,,698451,001,2023-07-31_17h08.12.163,arm3_q,2022.2.5,Win32,62.5,5fd391f111059f000ac10cde,64c5699dae067f1f1081742c,64c7cde22b91682cd61606e2,up,-1,0.5643,0.35,2,0,0.821,19,0,19,0,1,,,,,,,,,,
,,698451,001,2023-07-31_17h08.12.163,arm3_q,2022.2.5,Win32,62.5,5fd391f111059f000ac10cde,64c5699dae067f1f1081742c,64c7cde22b91682cd61606e2,right,-1,0.5643,0.35,2,0.018767052,2.243,20,0,20,0,1,,,,,,,,,,
,,698451,001,2023-07-31_17h08.12.163,arm3_q,2022.2.5,Win32,62.5,5fd391f111059f000ac10cde,64c5699dae067f1f1081742c,64c7cde22b91682cd61606e2,right,-1,0.5643,0.35,2,0.005233104,0.815,21,0,21,0,1,,,,,,,,,,
,,698451,001,2023-07-31_17h08.12.163,arm3_q,2022.2.5,Win32,62.5,5fd391f111059f000ac10cde,64c5699dae067f1f1081742c,64c7cde22b91682cd61606e2,right,-1,0.5643,0.35,2,-0.018967946,0.779,22,0,22,0,1,,,,,,,,,,
,,698451,001,2023-07-31_17h08.12.163,arm3_q,2022.2.5,Win32,62.5,5fd391f111059f000ac10cde,64c5699dae067f1f1081742c,64c7cde22b91682cd61606e2,down,-1,0.5643,0.35,3,0,0.83,23,0,23,0,1,,,,,,,,,,
,,698451,001,2023-07-31_17h08.12.163,arm3_q,2022.2.5,Win32,62.5,5fd391f111059f000ac10cde,64c5699dae067f1f1081742c,64c7cde22b91682cd61606e2,right,-1,0.5643,0.35,3,-0.033179051,2.92,24,0,24,0,1,,,,,,,,,,
,,698451,001,2023-07-31_17h08.12.163,arm3_q,2022.2.5,Win32,62.5,5fd391f111059f000ac10cde,64c5699dae067f1f1081742c,64c7cde22b91682cd61606e2,down,1,0.5643,0.35,4,0,1.047,25,0,25,0,1,,,,,,,,,,
,,698451,001,2023-07-31_17h08.12.163,arm3_q,2022.2.5,Win32,62.5,5fd391f111059f000ac10cde,64c5699dae067f1f1081742c,64c7cde22b91682cd61606e2,right,1,0.5643,0.35,4,0.026169661,1.585,26,0,26,0,1,,,,,,,,,,
,,698451,001,2023-07-31_17h08.12.163,arm3_q,2022.2.5,Win32,62.5,5fd391f111059f000ac10cde,64c5699dae067f1f1081742c,64c7cde22b91682cd61606e2,right,1,0.5643,0.35,4,0.029451142,0.885,27,0,27,0,1,,,,,,,,,,
,,698451,001,2023-07-31_17h08.12.163,arm3_q,2022.2.5,Win32,62.5,5fd391f111059f000ac10cde,64c5699dae067f1f1081742c,64c7cde22b91682cd61606e2,right,1,0.5643,0.35,4,0.016685232,0.981,28,0,28,0,1,,,,,,,,,,
,,698451,001,2023-07-31_17h08.12.163,arm3_q,2022.2.5,Win32,62.5,5fd391f111059f000ac10cde,64c5699dae067f1f1081742c,64c7cde22b91682cd61606e2,right,1,0.5643,0.35,4,-0.007473252,1.04,29,0,29,0,1,,,,,,,,,,
,,698451,001,2023-07-31_17h08.12.163,arm3_q,2022.2.5,Win32,62.5,5fd391f111059f000ac10cde,64c5699dae067f1f1081742c,64c7cde22b91682cd61606e2,right,1,0.5643,0.35,4,0.007293328,0.95,30,0,30,0,1,,,,,,,,,,
,,698451,001,2023-07-31_17h08.12.163,arm3_q,2022.2.5,Win32,62.5,5fd391f111059f000ac10cde,64c5699dae067f1f1081742c,64c7cde22b91682cd61606e2,right,1,0.5643,0.35,4,-0.002214406,0.915,31,0,31,0,1,,,,,,,,,,
,,698451,001,2023-07-31_17h08.12.163,arm3_q,2022.2.5,Win32,62.5,5fd391f111059f000ac10cde,64c5699dae067f1f1081742c,64c7cde22b91682cd61606e2,right,1,0.5643,0.35,4,0.005877183,0.962,32,0,32,0,1,,,,,,,,,,
,,698451,001,2023-07-31_17h08.12.163,arm3_q,2022.2.5,Win32,62.5,5fd391f111059f000ac10cde,64c5699dae067f1f1081742c,64c7cde22b91682cd61606e2,right,1,0.5643,0.35,4,0.006622363,0.916,33,0,33,0,1,,,,,,,,,,
,,698451,001,2023-07-31_17h08.12.163,arm3_q,2022.2.5,Win32,62.5,5fd391f111059f000ac10cde,64c5699dae067f1f1081742c,64c7cde22b91682cd61606e2,up,1,0.5643,0.35,4,0,0.914,34,0,34,0,1,,,,,,,,,,
,,698451,001,2023-07-31_17h08.12.163,arm3_q,2022.2.5,Win32,62.5,5fd391f111059f000ac10cde,64c5699dae067f1f1081742c,64c7cde22b91682cd61606e2,right,1,0.5643,0.35,4,-0.003603686,1.413,35,0,35,0,1,,,,,,,,,,
,,698451,001,2023-07-31_17h08.12.163,arm3_q,2022.2.5,Win32,62.5,5fd391f111059f000ac10cde,64c5699dae067f1f1081742c,64c7cde22b91682cd61606e2,right,1,0.5643,0.35,4,0.016069161,0.886,36,0,36,0,1,,,,,,,,,,
,,698451,001,2023-07-31_17h08.12.163,arm3_q,2022.2.5,Win32,62.5,5fd391f111059f000ac10cde,64c5699dae067f1f1081742c,64c7cde22b91682cd61606e2,right,1,0.5643,0.35,4,0.01380553,0.881,37,0,37,0,1,,,,,,,,,,
,,698451,001,2023-07-31_17h08.12.163,arm3_q,2022.2.5,Win32,62.5,5fd391f111059f000ac10cde,64c5699dae067f1f1081742c,64c7cde22b91682cd61606e2,right,1,0.5643,0.35,4,0.004534028,0.981,38,0,38,0,1,,,,,,,,,,
,,698451,001,2023-07-31_17h08.12.163,arm3_q,2022.2.5,Win32,62.5,5fd391f111059f000ac10cde,64c5699dae067f1f1081742c,64c7cde22b91682cd61606e2,right,1,0.5643,0.35,4,0.018681989,0.923,39,0,39,0,1,,,,,,,,,,
,,698451,001,2023-07-31_17h08.12.163,arm3_q,2022.2.5,Win32,62.5,5fd391f111059f000ac10cde,64c5699dae067f1f1081742c,64c7cde22b91682cd61606e2,right,1,0.5643,0.35,4,0.016492055,0.885,40,0,40,0,1,,,,,,,,,,
,,698451,001,2023-07-31_17h08.12.163,arm3_q,2022.2.5,Win32,62.5,5fd391f111059f000ac10cde,64c5699dae067f1f1081742c,64c7cde22b91682cd61606e2,right,1,0.5643,0.35,4,-0.00078621,0.937,41,0,41,0,1,,,,,,,,,,
,,698451,001,2023-07-31_17h08.12.163,arm3_q,2022.2.5,Win32,62.5,5fd391f111059f000ac10cde,64c5699dae067f1f1081742c,64c7cde22b91682cd61606e2,right,1,0.5643,0.35,4,-0.007835154,0.915,42,0,42,0,1,,,,,,,,,,
,,698451,001,2023-07-31_17h08.12.163,arm3_q,2022.2.5,Win32,62.5,5fd391f111059f000ac10cde,64c5699dae067f1f1081742c,64c7cde22b91682cd61606e2,right,1,0.5643,0.35,4,-0.00656028,0.895,43,0,43,0,1,,,,,,,,,,
,,698451,001,2023-07-31_17h08.12.163,arm3_q,2022.2.5,Win32,62.5,5fd391f111059f000ac10cde,64c5699dae067f1f1081742c,64c7cde22b91682cd61606e2,right,1,0.5643,0.35,4,0.017235461,0.881,44,0,44,0,1,,,,,,,,,,
,,698451,001,2023-07-31_17h08.12.163,arm3_q,2022.2.5,Win32,62.5,5fd391f111059f000ac10cde,64c5699dae067f1f1081742c,64c7cde22b91682cd61606e2,up,1,0.5643,0.35,4,0,1.017,45,0,45,0,1,,,,,,,,,,
,,698451,001,2023-07-31_17h08.12.163,arm3_q,2022.2.5,Win32,62.5,5fd391f111059f000ac10cde,64c5699dae067f1f1081742c,64c7cde22b91682cd61606e2,right,1,0.5643,0.35,4,0.020654659,1.086,46,0,46,0,1,,,,,,,,,,
,,698451,001,2023-07-31_17h08.12.163,arm3_q,2022.2.5,Win32,62.5,5fd391f111059f000ac10cde,64c5699dae067f1f1081742c,64c7cde22b91682cd61606e2,right,1,0.5643,0.35,4,0.029125289,0.898,47,0,47,0,1,,,,,,,,,,
,,698451,001,2023-07-31_17h08.12.163,arm3_q,2022.2.5,Win32,62.5,5fd391f111059f000ac10cde,64c5699dae067f1f1081742c,64c7cde22b91682cd61606e2,right,1,0.5643,0.35,4,0.019609801,0.864,48,0,48,0,1,,,,,,,,,,
,,698451,001,2023-07-31_17h08.12.163,arm3_q,2022.2.5,Win32,62.5,5fd391f111059f000ac10cde,64c5699dae067f1f1081742c,64c7cde22b91682cd61606e2,right,1,0.5643,0.35,4,0.039667833,1.331,49,0,49,0,1,,,,,,,,,,
space,8.894,698451,001,2023-07-31_17h08.12.163,arm3_q,2022.2.5,Win32,62.5,5fd391f111059f000ac10cde,64c5699dae067f1f1081742c,64c7cde22b91682cd61606e2,,,,,,,,,,,,,,,,,,,,,,
space,3.531,698451,001,2023-07-31_17h08.12.163,arm3_q,2022.2.5,Win32,62.5,5fd391f111059f000ac10cde,64c5699dae067f1f1081742c,64c7cde22b91682cd61606e2,,,,,,,,,,,,,,,,,,,,,,
space,2.008,698451,001,2023-07-31_17h08.12.163,arm3_q,2022.2.5,Win32,62.5,5fd391f111059f000ac10cde,64c5699dae067f1f1081742c,64c7cde22b91682cd61606e2,,,,,,,,,,,,,,,,,,,,,,
,,698451,001,2023-07-31_17h08.12.163,arm3_q,2022.2.5,Win32,62.5,5fd391f111059f000ac10cde,64c5699dae067f1f1081742c,64c7cde22b91682cd61606e2,right,1,0.95,0.35,0,0.007000769,1.648,0,0,0,0,1,,,,,,,,,,
,,698451,001,2023-07-31_17h08.12.163,arm3_q,2022.2.5,Win32,62.5,5fd391f111059f000ac10cde,64c5699dae067f1f1081742c,64c7cde22b91682cd61606e2,right,1,0.95,0.35,0,0.041667193,0.819,1,0,1,0,1,,,,,,,,,,
,,698451,001,2023-07-31_17h08.12.163,arm3_q,2022.2.5,Win32,62.5,5fd391f111059f000ac10cde,64c5699dae067f1f1081742c,64c7cde22b91682cd61606e2,right,1,0.95,0.35,0,0.060287101,0.815,2,0,2,0,1,,,,,,,,,,
,,698451,001,2023-07-31_17h08.12.163,arm3_q,2022.2.5,Win32,62.5,5fd391f111059f000ac10cde,64c5699dae067f1f1081742c,64c7cde22b91682cd61606e2,up,-1,0.95,0.35,1,0,1.044,3,0,3,0,1,,,,,,,,,,
,,698451,001,2023-07-31_17h08.12.163,arm3_q,2022.2.5,Win32,62.5,5fd391f111059f000ac10cde,64c5699dae067f1f1081742c,64c7cde22b91682cd61606e2,right,-1,0.95,0.35,1,-0.001037391,1.94,4,0,4,0,1,,,,,,,,,,
,,698451,001,2023-07-31_17h08.12.163,arm3_q,2022.2.5,Win32,62.5,5fd391f111059f000ac10cde,64c5699dae067f1f1081742c,64c7cde22b91682cd61606e2,right,-1,0.95,0.35,1,-0.000374275,0.845,5,0,5,0,1,,,,,,,,,,
,,698451,001,2023-07-31_17h08.12.163,arm3_q,2022.2.5,Win32,62.5,5fd391f111059f000ac10cde,64c5699dae067f1f1081742c,64c7cde22b91682cd61606e2,right,-1,0.95,0.35,1,-0.035839668,0.806,6,0,6,0,1,,,,,,,,,,
,,698451,001,2023-07-31_17h08.12.163,arm3_q,2022.2.5,Win32,62.5,5fd391f111059f000ac10cde,64c5699dae067f1f1081742c,64c7cde22b91682cd61606e2,right,-1,0.95,0.35,1,-0.022496417,0.846,7,0,7,0,1,,,,,,,,,,
,,698451,001,2023-07-31_17h08.12.163,arm3_q,2022.2.5,Win32,62.5,5fd391f111059f000ac10cde,64c5699dae067f1f1081742c,64c7cde22b91682cd61606e2,right,-1,0.95,0.35,1,-0.016904819,0.83,8,0,8,0,1,,,,,,,,,,
,,698451,001,2023-07-31_17h08.12.163,arm3_q,2022.2.5,Win32,62.5,5fd391f111059f000ac10cde,64c5699dae067f1f1081742c,64c7cde22b91682cd61606e2,down,1,0.95,0.35,2,0,0.838,9,0,9,0,1,,,,,,,,,,
,,698451,001,2023-07-31_17h08.12.163,arm3_q,2022.2.5,Win32,62.5,5fd391f111059f000ac10cde,64c5699dae067f1f1081742c,64c7cde22b91682cd61606e2,right,1,0.95,0.35,2,0.016917231,1.831,10,0,10,0,1,,,,,,,,,,
,,698451,001,2023-07-31_17h08.12.163,arm3_q,2022.2.5,Win32,62.5,5fd391f111059f000ac10cde,64c5699dae067f1f1081742c,64c7cde22b91682cd61606e2,up,1,0.95,0.35,3,0,1.419,11,0,11,0,1,,,,,,,,,,
,,698451,001,2023-07-31_17h08.12.163,arm3_q,2022.2.5,Win32,62.5,5fd391f111059f000ac10cde,64c5699dae067f1f1081742c,64c7cde22b91682cd61606e2,right,1,0.95,0.35,3,-0.055123444,1.384,12,0,12,0,1,,,,,,,,,,
,,698451,001,2023-07-31_17h08.12.163,arm3_q,2022.2.5,Win32,62.5,5fd391f111059f000ac10cde,64c5699dae067f1f1081742c,64c7cde22b91682cd61606e2,right,1,0.95,0.35,3,-0.006339425,0.882,13,0,13,0,1,,,,,,,,,,
,,698451,001,2023-07-31_17h08.12.163,arm3_q,2022.2.5,Win32,62.5,5fd391f111059f000ac10cde,64c5699dae067f1f1081742c,64c7cde22b91682cd61606e2,right,1,0.95,0.35,3,0.006003944,0.847,14,0,14,0,1,,,,,,,,,,
,,698451,001,2023-07-31_17h08.12.163,arm3_q,2022.2.5,Win32,62.5,5fd391f111059f000ac10cde,64c5699dae067f1f1081742c,64c7cde22b91682cd61606e2,right,1,0.95,0.35,3,0.010365514,0.839,15,0,15,0,1,,,,,,,,,,
,,698451,001,2023-07-31_17h08.12.163,arm3_q,2022.2.5,Win32,62.5,5fd391f111059f000ac10cde,64c5699dae067f1f1081742c,64c7cde22b91682cd61606e2,up,-1,0.95,0.35,4,0,1.13,16,0,16,0,1,,,,,,,,,,
,,698451,001,2023-07-31_17h08.12.163,arm3_q,2022.2.5,Win32,62.5,5fd391f111059f000ac10cde,64c5699dae067f1f1081742c,64c7cde22b91682cd61606e2,right,-1,0.95,0.35,4,-0.028010506,2.109,17,0,17,0,1,,,,,,,,,,
,,698451,001,2023-07-31_17h08.12.163,arm3_q,2022.2.5,Win32,62.5,5fd391f111059f000ac10cde,64c5699dae067f1f1081742c,64c7cde22b91682cd61606e2,right,-1,0.95,0.35,4,-0.038090415,1.229,18,0,18,0,1,,,,,,,,,,
,,698451,001,2023-07-31_17h08.12.163,arm3_q,2022.2.5,Win32,62.5,5fd391f111059f000ac10cde,64c5699dae067f1f1081742c,64c7cde22b91682cd61606e2,right,-1,0.95,0.35,4,-0.053411394,0.629,19,0,19,0,1,,,,,,,,,,
,,698451,001,2023-07-31_17h08.12.163,arm3_q,2022.2.5,Win32,62.5,5fd391f111059f000ac10cde,64c5699dae067f1f1081742c,64c7cde22b91682cd61606e2,down,-1,0.95,0.35,5,0,0.966,20,0,20,0,1,,,,,,,,,,
,,698451,001,2023-07-31_17h08.12.163,arm3_q,2022.2.5,Win32,62.5,5fd391f111059f000ac10cde,64c5699dae067f1f1081742c,64c7cde22b91682cd61606e2,right,-1,0.95,0.35,5,-0.028706199,2.048,21,0,21,0,1,,,,,,,,,,
,,698451,001,2023-07-31_17h08.12.163,arm3_q,2022.2.5,Win32,62.5,5fd391f111059f000ac10cde,64c5699dae067f1f1081742c,64c7cde22b91682cd61606e2,right,-1,0.95,0.35,5,-0.026482033,0.831,22,0,22,0,1,,,,,,,,,,
,,698451,001,2023-07-31_17h08.12.163,arm3_q,2022.2.5,Win32,62.5,5fd391f111059f000ac10cde,64c5699dae067f1f1081742c,64c7cde22b91682cd61606e2,right,-1,0.95,0.35,5,-0.040774383,0.838,23,0,23,0,1,,,,,,,,,,
,,698451,001,2023-07-31_17h08.12.163,arm3_q,2022.2.5,Win32,62.5,5fd391f111059f000ac10cde,64c5699dae067f1f1081742c,64c7cde22b91682cd61606e2,right,-1,0.95,0.35,5,-0.020647106,0.829,24,0,24,0,1,,,,,,,,,,
,,698451,001,2023-07-31_17h08.12.163,arm3_q,2022.2.5,Win32,62.5,5fd391f111059f000ac10cde,64c5699dae067f1f1081742c,64c7cde22b91682cd61606e2,right,-1,0.95,0.35,5,-0.023270703,0.683,25,0,25,0,1,,,,,,,,,,
,,698451,001,2023-07-31_17h08.12.163,arm3_q,2022.2.5,Win32,62.5,5fd391f111059f000ac10cde,64c5699dae067f1f1081742c,64c7cde22b91682cd61606e2,right,-1,0.95,0.35,5,-0.006673328,0.995,26,0,26,0,1,,,,,,,,,,
,,698451,001,2023-07-31_17h08.12.163,arm3_q,2022.2.5,Win32,62.5,5fd391f111059f000ac10cde,64c5699dae067f1f1081742c,64c7cde22b91682cd61606e2,right,-1,0.95,0.35,5,-0.021864556,0.927,27,0,27,0,1,,,,,,,,,,
,,698451,001,2023-07-31_17h08.12.163,arm3_q,2022.2.5,Win32,62.5,5fd391f111059f000ac10cde,64c5699dae067f1f1081742c,64c7cde22b91682cd61606e2,down,-1,0.95,0.35,6,0,0.987,28,0,28,0,1,,,,,,,,,,
,,698451,001,2023-07-31_17h08.12.163,arm3_q,2022.2.5,Win32,62.5,5fd391f111059f000ac10cde,64c5699dae067f1f1081742c,64c7cde22b91682cd61606e2,right,-1,0.95,0.35,6,-0.036307371,2.278,29,0,29,0,1,,,,,,,,,,
,,698451,001,2023-07-31_17h08.12.163,arm3_q,2022.2.5,Win32,62.5,5fd391f111059f000ac10cde,64c5699dae067f1f1081742c,64c7cde22b91682cd61606e2,right,-1,0.95,0.35,6,-0.063031092,0.753,30,0,30,0,1,,,,,,,,,,
,,698451,001,2023-07-31_17h08.12.163,arm3_q,2022.2.5,Win32,62.5,5fd391f111059f000ac10cde,64c5699dae067f1f1081742c,64c7cde22b91682cd61606e2,right,-1,0.95,0.35,6,-0.089817393,0.652,31,0,31,0,1,,,,,,,,,,
,,698451,001,2023-07-31_17h08.12.163,arm3_q,2022.2.5,Win32,62.5,5fd391f111059f000ac10cde,64c5699dae067f1f1081742c,64c7cde22b91682cd61606e2,down,-1,0.95,0.35,7,0,0.713,32,0,32,0,1,,,,,,,,,,
,,698451,001,2023-07-31_17h08.12.163,arm3_q,2022.2.5,Win32,62.5,5fd391f111059f000ac10cde,64c5699dae067f1f1081742c,64c7cde22b91682cd61606e2,right,-1,0.95,0.35,7,-0.033668915,6.805,33,0,33,0,1,,,,,,,,,,
,,698451,001,2023-07-31_17h08.12.163,arm3_q,2022.2.5,Win32,62.5,5fd391f111059f000ac10cde,64c5699dae067f1f1081742c,64c7cde22b91682cd61606e2,right,-1,0.95,0.35,7,-0.023300789,0.535,34,0,34,0,1,,,,,,,,,,
,,698451,001,2023-07-31_17h08.12.163,arm3_q,2022.2.5,Win32,62.5,5fd391f111059f000ac10cde,64c5699dae067f1f1081742c,64c7cde22b91682cd61606e2,right,-1,0.95,0.35,7,-0.013139119,0.619,35,0,35,0,1,,,,,,,,,,
,,698451,001,2023-07-31_17h08.12.163,arm3_q,2022.2.5,Win32,62.5,5fd391f111059f000ac10cde,64c5699dae067f1f1081742c,64c7cde22b91682cd61606e2,right,-1,0.95,0.35,7,-0.025831885,0.484,36,0,36,0,1,,,,,,,,,,
,,698451,001,2023-07-31_17h08.12.163,arm3_q,2022.2.5,Win32,62.5,5fd391f111059f000ac10cde,64c5699dae067f1f1081742c,64c7cde22b91682cd61606e2,right,-1,0.95,0.35,7,-0.043256823,0.619,37,0,37,0,1,,,,,,,,,,
,,698451,001,2023-07-31_17h08.12.163,arm3_q,2022.2.5,Win32,62.5,5fd391f111059f000ac10cde,64c5699dae067f1f1081742c,64c7cde22b91682cd61606e2,right,-1,0.95,0.35,7,-0.025420915,0.582,38,0,38,0,1,,,,,,,,,,
,,698451,001,2023-07-31_17h08.12.163,arm3_q,2022.2.5,Win32,62.5,5fd391f111059f000ac10cde,64c5699dae067f1f1081742c,64c7cde22b91682cd61606e2,down,-1,0.95,0.35,8,0,1.05,39,0,39,0,1,,,,,,,,,,
,,698451,001,2023-07-31_17h08.12.163,arm3_q,2022.2.5,Win32,62.5,5fd391f111059f000ac10cde,64c5699dae067f1f1081742c,64c7cde22b91682cd61606e2,right,-1,0.95,0.35,8,0.000887076,3.972,40,0,40,0,1,,,,,,,,,,
,,698451,001,2023-07-31_17h08.12.163,arm3_q,2022.2.5,Win32,62.5,5fd391f111059f000ac10cde,64c5699dae067f1f1081742c,64c7cde22b91682cd61606e2,right,-1,0.95,0.35,8,0.007565191,0.987,41,0,41,0,1,,,,,,,,,,
,,698451,001,2023-07-31_17h08.12.163,arm3_q,2022.2.5,Win32,62.5,5fd391f111059f000ac10cde,64c5699dae067f1f1081742c,64c7cde22b91682cd61606e2,right,-1,0.95,0.35,8,-0.053991712,1.269,42,0,42,0,1,,,,,,,,,,
,,698451,001,2023-07-31_17h08.12.163,arm3_q,2022.2.5,Win32,62.5,5fd391f111059f000ac10cde,64c5699dae067f1f1081742c,64c7cde22b91682cd61606e2,down,-1,0.95,0.35,9,0,0.568,43,0,43,0,1,,,,,,,,,,
,,698451,001,2023-07-31_17h08.12.163,arm3_q,2022.2.5,Win32,62.5,5fd391f111059f000ac10cde,64c5699dae067f1f1081742c,64c7cde22b91682cd61606e2,down,-1,0.95,0.35,10,0,3.792,44,0,44,0,1,,,,,,,,,,
,,698451,001,2023-07-31_17h08.12.163,arm3_q,2022.2.5,Win32,62.5,5fd391f111059f000ac10cde,64c5699dae067f1f1081742c,64c7cde22b91682cd61606e2,right,-1,0.95,0.35,10,-0.005377632,1.275,45,0,45,0,1,,,,,,,,,,
,,698451,001,2023-07-31_17h08.12.163,arm3_q,2022.2.5,Win32,62.5,5fd391f111059f000ac10cde,64c5699dae067f1f1081742c,64c7cde22b91682cd61606e2,right,-1,0.95,0.35,10,-0.017482739,0.702,46,0,46,0,1,,,,,,,,,,
,,698451,001,2023-07-31_17h08.12.163,arm3_q,2022.2.5,Win32,62.5,5fd391f111059f000ac10cde,64c5699dae067f1f1081742c,64c7cde22b91682cd61606e2,right,-1,0.95,0.35,10,-0.016789228,0.587,47,0,47,0,1,,,,,,,,,,
,,698451,001,2023-07-31_17h08.12.163,arm3_q,2022.2.5,Win32,62.5,5fd391f111059f000ac10cde,64c5699dae067f1f1081742c,64c7cde22b91682cd61606e2,right,-1,0.95,0.35,10,-0.005621961,0.621,48,0,48,0,1,,,,,,,,,,
,,698451,001,2023-07-31_17h08.12.163,arm3_q,2022.2.5,Win32,62.5,5fd391f111059f000ac10cde,64c5699dae067f1f1081742c,64c7cde22b91682cd61606e2,right,-1,0.95,0.35,10,-0.029380301,0.596,49,0,49,0,1,,,,,,,,,,
space,26.798,698451,001,2023-07-31_17h08.12.163,arm3_q,2022.2.5,Win32,62.5,5fd391f111059f000ac10cde,64c5699dae067f1f1081742c,64c7cde22b91682cd61606e2,,,,,,,,,,,,,,,,,,,,,,
space,0.85,698451,001,2023-07-31_17h08.12.163,arm3_q,2022.2.5,Win32,62.5,5fd391f111059f000ac10cde,64c5699dae067f1f1081742c,64c7cde22b91682cd61606e2,,,,,,,,,,,,,,,,,,,,,,
,,698451,001,2023-07-31_17h08.12.163,arm3_q,2022.2.5,Win32,62.5,5fd391f111059f000ac10cde,64c5699dae067f1f1081742c,64c7cde22b91682cd61606e2,right,-1,0.05,0.35,0,-0.0186499,1.378,0,0,0,0,1,,,,,,,,,,
,,698451,001,2023-07-31_17h08.12.163,arm3_q,2022.2.5,Win32,62.5,5fd391f111059f000ac10cde,64c5699dae067f1f1081742c,64c7cde22b91682cd61606e2,right,-1,0.05,0.35,0,-0.045225787,0.703,1,0,1,0,1,,,,,,,,,,
,,698451,001,2023-07-31_17h08.12.163,arm3_q,2022.2.5,Win32,62.5,5fd391f111059f000ac10cde,64c5699dae067f1f1081742c,64c7cde22b91682cd61606e2,right,-1,0.05,0.35,0,-0.0518049,0.672,2,0,2,0,1,,,,,,,,,,
,,698451,001,2023-07-31_17h08.12.163,arm3_q,2022.2.5,Win32,62.5,5fd391f111059f000ac10cde,64c5699dae067f1f1081742c,64c7cde22b91682cd61606e2,right,-1,0.05,0.35,0,-0.058899661,0.696,3,0,3,0,1,,,,,,,,,,
,,698451,001,2023-07-31_17h08.12.163,arm3_q,2022.2.5,Win32,62.5,5fd391f111059f000ac10cde,64c5699dae067f1f1081742c,64c7cde22b91682cd61606e2,down,1,0.05,0.35,0,0,1.346,4,0,4,0,1,,,,,,,,,,
,,698451,001,2023-07-31_17h08.12.163,arm3_q,2022.2.5,Win32,62.5,5fd391f111059f000ac10cde,64c5699dae067f1f1081742c,64c7cde22b91682cd61606e2,right,1,0.05,0.35,0,0.004779525,1.374,5,0,5,0,1,,,,,,,,,,
,,698451,001,2023-07-31_17h08.12.163,arm3_q,2022.2.5,Win32,62.5,5fd391f111059f000ac10cde,64c5699dae067f1f1081742c,64c7cde22b91682cd61606e2,right,1,0.05,0.35,0,0.019785513,0.765,6,0,6,0,1,,,,,,,,,,
,,698451,001,2023-07-31_17h08.12.163,arm3_q,2022.2.5,Win32,62.5,5fd391f111059f000ac10cde,64c5699dae067f1f1081742c,64c7cde22b91682cd61606e2,right,1,0.05,0.35,0,-0.025009319,0.643,7,0,7,0,1,,,,,,,,,,
,,698451,001,2023-07-31_17h08.12.163,arm3_q,2022.2.5,Win32,62.5,5fd391f111059f000ac10cde,64c5699dae067f1f1081742c,64c7cde22b91682cd61606e2,right,1,0.05,0.35,0,-0.044236624,0.765,8,0,8,0,1,,,,,,,,,,
,,698451,001,2023-07-31_17h08.12.163,arm3_q,2022.2.5,Win32,62.5,5fd391f111059f000ac10cde,64c5699dae067f1f1081742c,64c7cde22b91682cd61606e2,right,1,0.05,0.35,0,-0.046759452,1.097,9,0,9,0,1,,,,,,,,,,
,,698451,001,2023-07-31_17h08.12.163,arm3_q,2022.2.5,Win32,62.5,5fd391f111059f000ac10cde,64c5699dae067f1f1081742c,64c7cde22b91682cd61606e2,down,1,0.05,0.35,0,0,0.416,10,0,10,0,1,,,,,,,,,,
,,698451,001,2023-07-31_17h08.12.163,arm3_q,2022.2.5,Win32,62.5,5fd391f111059f000ac10cde,64c5699dae067f1f1081742c,64c7cde22b91682cd61606e2,right,1,0.05,0.35,0,0.013060501,1.843,11,0,11,0,1,,,,,,,,,,
,,698451,001,2023-07-31_17h08.12.163,arm3_q,2022.2.5,Win32,62.5,5fd391f111059f000ac10cde,64c5699dae067f1f1081742c,64c7cde22b91682cd61606e2,right,1,0.05,0.35,0,0.011613376,0.738,12,0,12,0,1,,,,,,,,,,
,,698451,001,2023-07-31_17h08.12.163,arm3_q,2022.2.5,Win32,62.5,5fd391f111059f000ac10cde,64c5699dae067f1f1081742c,64c7cde22b91682cd61606e2,right,1,0.05,0.35,0,0.005503208,0.783,13,0,13,0,1,,,,,,,,,,
,,698451,001,2023-07-31_17h08.12.163,arm3_q,2022.2.5,Win32,62.5,5fd391f111059f000ac10cde,64c5699dae067f1f1081742c,64c7cde22b91682cd61606e2,right,1,0.05,0.35,0,0.016818935,0.697,14,0,14,0,1,,,,,,,,,,
,,698451,001,2023-07-31_17h08.12.163,arm3_q,2022.2.5,Win32,62.5,5fd391f111059f000ac10cde,64c5699dae067f1f1081742c,64c7cde22b91682cd61606e2,right,1,0.05,0.35,0,-0.014396148,0.681,15,0,15,0,1,,,,,,,,,,
,,698451,001,2023-07-31_17h08.12.163,arm3_q,2022.2.5,Win32,62.5,5fd391f111059f000ac10cde,64c5699dae067f1f1081742c,64c7cde22b91682cd61606e2,right,1,0.05,0.35,0,-0.014069129,0.658,16,0,16,0,1,,,,,,,,,,
,,698451,001,2023-07-31_17h08.12.163,arm3_q,2022.2.5,Win32,62.5,5fd391f111059f000ac10cde,64c5699dae067f1f1081742c,64c7cde22b91682cd61606e2,right,1,0.05,0.35,0,0.000323576,0.648,17,0,17,0,1,,,,,,,,,,
,,698451,001,2023-07-31_17h08.12.163,arm3_q,2022.2.5,Win32,62.5,5fd391f111059f000ac10cde,64c5699dae067f1f1081742c,64c7cde22b91682cd61606e2,right,1,0.05,0.35,0,0.008967013,0.569,18,0,18,0,1,,,,,,,,,,
,,698451,001,2023-07-31_17h08.12.163,arm3_q,2022.2.5,Win32,62.5,5fd391f111059f000ac10cde,64c5699dae067f1f1081742c,64c7cde22b91682cd61606e2,right,1,0.05,0.35,0,0.006328025,0.532,19,0,19,0,1,,,,,,,,,,
,,698451,001,2023-07-31_17h08.12.163,arm3_q,2022.2.5,Win32,62.5,5fd391f111059f000ac10cde,64c5699dae067f1f1081742c,64c7cde22b91682cd61606e2,right,1,0.05,0.35,0,-0.042227524,0.701,20,0,20,0,1,,,,,,,,,,
,,698451,001,2023-07-31_17h08.12.163,arm3_q,2022.2.5,Win32,62.5,5fd391f111059f000ac10cde,64c5699dae067f1f1081742c,64c7cde22b91682cd61606e2,right,1,0.05,0.35,0,-0.009343137,0.586,21,0,21,0,1,,,,,,,,,,
,,698451,001,2023-07-31_17h08.12.163,arm3_q,2022.2.5,Win32,62.5,5fd391f111059f000ac10cde,64c5699dae067f1f1081742c,64c7cde22b91682cd61606e2,right,1,0.05,0.35,0,0.014888897,0.704,22,0,22,0,1,,,,,,,,,,
,,698451,001,2023-07-31_17h08.12.163,arm3_q,2022.2.5,Win32,62.5,5fd391f111059f000ac10cde,64c5699dae067f1f1081742c,64c7cde22b91682cd61606e2,up,1,0.05,0.35,0,0,1.763,23,0,23,0,1,,,,,,,,,,
,,698451,001,2023-07-31_17h08.12.163,arm3_q,2022.2.5,Win32,62.5,5fd391f111059f000ac10cde,64c5699dae067f1f1081742c,64c7cde22b91682cd61606e2,right,1,0.05,0.35,0,0.011670087,1.837,24,0,24,0,1,,,,,,,,,,
,,698451,001,2023-07-31_17h08.12.163,arm3_q,2022.2.5,Win32,62.5,5fd391f111059f000ac10cde,64c5699dae067f1f1081742c,64c7cde22b91682cd61606e2,right,1,0.05,0.35,0,0.045814889,0.613,25,0,25,0,1,,,,,,,,,,
,,698451,001,2023-07-31_17h08.12.163,arm3_q,2022.2.5,Win32,62.5,5fd391f111059f000ac10cde,64c5699dae067f1f1081742c,64c7cde22b91682cd61606e2,right,1,0.05,0.35,0,0.061094412,0.664,26,0,26,0,1,,,,,,,,,,
,,698451,001,2023-07-31_17h08.12.163,arm3_q,2022.2.5,Win32,62.5,5fd391f111059f000ac10cde,64c5699dae067f1f1081742c,64c7cde22b91682cd61606e2,right,1,0.05,0.35,0,0.069927956,0.58,27,0,27,0,1,,,,,,,,,,
,,698451,001,2023-07-31_17h08.12.163,arm3_q,2022.2.5,Win32,62.5,5fd391f111059f000ac10cde,64c5699dae067f1f1081742c,64c7cde22b91682cd61606e2,right,1,0.05,0.35,0,0.069512209,0.613,28,0,28,0,1,,,,,,,,,,
,,698451,001,2023-07-31_17h08.12.163,arm3_q,2022.2.5,Win32,62.5,5fd391f111059f000ac10cde,64c5699dae067f1f1081742c,64c7cde22b91682cd61606e2,right,1,0.05,0.35,0,0.083967572,0.585,29,0,29,0,1,,,,,,,,,,
,,698451,001,2023-07-31_17h08.12.163,arm3_q,2022.2.5,Win32,62.5,5fd391f111059f000ac10cde,64c5699dae067f1f1081742c,64c7cde22b91682cd61606e2,up,1,0.05,0.35,0,0,0.696,30,0,30,0,1,,,,,,,,,,
,,698451,001,2023-07-31_17h08.12.163,arm3_q,2022.2.5,Win32,62.5,5fd391f111059f000ac10cde,64c5699dae067f1f1081742c,64c7cde22b91682cd61606e2,right,1,0.05,0.35,0,0.025822939,2.274,31,0,31,0,1,,,,,,,,,,
,,698451,001,2023-07-31_17h08.12.163,arm3_q,2022.2.5,Win32,62.5,5fd391f111059f000ac10cde,64c5699dae067f1f1081742c,64c7cde22b91682cd61606e2,right,1,0.05,0.35,0,0.027544489,0.69,32,0,32,0,1,,,,,,,,,,
,,698451,001,2023-07-31_17h08.12.163,arm3_q,2022.2.5,Win32,62.5,5fd391f111059f000ac10cde,64c5699dae067f1f1081742c,64c7cde22b91682cd61606e2,right,1,0.05,0.35,0,0.069943271,0.63,33,0,33,0,1,,,,,,,,,,
,,698451,001,2023-07-31_17h08.12.163,arm3_q,2022.2.5,Win32,62.5,5fd391f111059f000ac10cde,64c5699dae067f1f1081742c,64c7cde22b91682cd61606e2,right,1,0.05,0.35,0,0.069475154,0.522,34,0,34,0,1,,,,,,,,,,
,,698451,001,2023-07-31_17h08.12.163,arm3_q,2022.2.5,Win32,62.5,5fd391f111059f000ac10cde,64c5699dae067f1f1081742c,64c7cde22b91682cd61606e2,right,1,0.05,0.35,0,0.077954882,0.597,35,0,35,0,1,,,,,,,,,,
,,698451,001,2023-07-31_17h08.12.163,arm3_q,2022.2.5,Win32,62.5,5fd391f111059f000ac10cde,64c5699dae067f1f1081742c,64c7cde22b91682cd61606e2,right,1,0.05,0.35,0,0.083933001,0.469,36,0,36,0,1,,,,,,,,,,
,,698451,001,2023-07-31_17h08.12.163,arm3_q,2022.2.5,Win32,62.5,5fd391f111059f000ac10cde,64c5699dae067f1f1081742c,64c7cde22b91682cd61606e2,right,1,0.05,0.35,0,0.089934817,0.502,37,0,37,0,1,,,,,,,,,,
,,698451,001,2023-07-31_17h08.12.163,arm3_q,2022.2.5,Win32,62.5,5fd391f111059f000ac10cde,64c5699dae067f1f1081742c,64c7cde22b91682cd61606e2,right,1,0.05,0.35,0,0.138159296,0.624,38,0,38,0,1,,,,,,,,,,
,,698451,001,2023-07-31_17h08.12.163,arm3_q,2022.2.5,Win32,62.5,5fd391f111059f000ac10cde,64c5699dae067f1f1081742c,64c7cde22b91682cd61606e2,right,1,0.05,0.35,0,0.133991434,0.357,39,0,39,0,1,,,,,,,,,,
,,698451,001,2023-07-31_17h08.12.163,arm3_q,2022.2.5,Win32,62.5,5fd391f111059f000ac10cde,64c5699dae067f1f1081742c,64c7cde22b91682cd61606e2,right,1,0.05,0.35,0,0.163692896,0.547,40,0,40,0,1,,,,,,,,,,
,,698451,001,2023-07-31_17h08.12.163,arm3_q,2022.2.5,Win32,62.5,5fd391f111059f000ac10cde,64c5699dae067f1f1081742c,64c7cde22b91682cd61606e2,right,1,0.05,0.35,0,0.153299664,0.413,41,0,41,0,1,,,,,,,,,,
,,698451,001,2023-07-31_17h08.12.163,arm3_q,2022.2.5,Win32,62.5,5fd391f111059f000ac10cde,64c5699dae067f1f1081742c,64c7cde22b91682cd61606e2,up,-1,0.05,0.35,0,0,0.629,42,0,42,0,1,,,,,,,,,,
,,698451,001,2023-07-31_17h08.12.163,arm3_q,2022.2.5,Win32,62.5,5fd391f111059f000ac10cde,64c5699dae067f1f1081742c,64c7cde22b91682cd61606e2,right,-1,0.05,0.35,0,-0.021797898,1.475,43,0,43,0,1,,,,,,,,,,
,,698451,001,2023-07-31_17h08.12.163,arm3_q,2022.2.5,Win32,62.5,5fd391f111059f000ac10cde,64c5699dae067f1f1081742c,64c7cde22b91682cd61606e2,right,-1,0.05,0.35,0,-0.020235288,0.346,44,0,44,0,1,,,,,,,,,,
,,698451,001,2023-07-31_17h08.12.163,arm3_q,2022.2.5,Win32,62.5,5fd391f111059f000ac10cde,64c5699dae067f1f1081742c,64c7cde22b91682cd61606e2,right,-1,0.05,0.35,0,-0.044228527,0.331,45,0,45,0,1,,,,,,,,,,
,,698451,001,2023-07-31_17h08.12.163,arm3_q,2022.2.5,Win32,62.5,5fd391f111059f000ac10cde,64c5699dae067f1f1081742c,64c7cde22b91682cd61606e2,right,-1,0.05,0.35,0,-0.06761234,0.163,46,0,46,0,1,,,,,,,,,,
,,698451,001,2023-07-31_17h08.12.163,arm3_q,2022.2.5,Win32,62.5,5fd391f111059f000ac10cde,64c5699dae067f1f1081742c,64c7cde22b91682cd61606e2,right,-1,0.05,0.35,0,-0.091235914,0.281,47,0,47,0,1,,,,,,,,,,
,,698451,001,2023-07-31_17h08.12.163,arm3_q,2022.2.5,Win32,62.5,5fd391f111059f000ac10cde,64c5699dae067f1f1081742c,64c7cde22b91682cd61606e2,right,-1,0.05,0.35,0,-0.119738647,0.281,48,0,48,0,1,,,,,,,,,,
,,698451,001,2023-07-31_17h08.12.163,arm3_q,2022.2.5,Win32,62.5,5fd391f111059f000ac10cde,64c5699dae067f1f1081742c,64c7cde22b91682cd61606e2,right,-1,0.05,0.35,0,-0.109321422,0.198,49,0,49,0,1,,,,,,,,,,
space,3.215,698451,001,2023-07-31_17h08.12.163,arm3_q,2022.2.5,Win32,62.5,5fd391f111059f000ac10cde,64c5699dae067f1f1081742c,64c7cde22b91682cd61606e2,,,,,,,,,,,,,,,,,,,,,,
space,7.247,698451,001,2023-07-31_17h08.12.163,arm3_q,2022.2.5,Win32,62.5,5fd391f111059f000ac10cde,64c5699dae067f1f1081742c,64c7cde22b91682cd61606e2,right,-1,0.3071,0.35,0,-0.031755285,1.326,,,,,,0,0,0,0,1,,,,,
,,698451,001,2023-07-31_17h08.12.163,arm3_q,2022.2.5,Win32,62.5,5fd391f111059f000ac10cde,64c5699dae067f1f1081742c,64c7cde22b91682cd61606e2,right,-1,0.3071,0.35,0,-0.036765646,0.467,,,,,,1,0,1,0,1,,,,,
,,698451,001,2023-07-31_17h08.12.163,arm3_q,2022.2.5,Win32,62.5,5fd391f111059f000ac10cde,64c5699dae067f1f1081742c,64c7cde22b91682cd61606e2,right,-1,0.3071,0.35,0,-0.05908895,0.8,,,,,,2,0,2,0,1,,,,,
,,698451,001,2023-07-31_17h08.12.163,arm3_q,2022.2.5,Win32,62.5,5fd391f111059f000ac10cde,64c5699dae067f1f1081742c,64c7cde22b91682cd61606e2,down,-1,0.3071,0.35,1,0,0.4,,,,,,3,0,3,0,1,,,,,
,,698451,001,2023-07-31_17h08.12.163,arm3_q,2022.2.5,Win32,62.5,5fd391f111059f000ac10cde,64c5699dae067f1f1081742c,64c7cde22b91682cd61606e2,right,-1,0.3071,0.35,1,-0.004356874,1.218,,,,,,4,0,4,0,1,,,,,
,,698451,001,2023-07-31_17h08.12.163,arm3_q,2022.2.5,Win32,62.5,5fd391f111059f000ac10cde,64c5699dae067f1f1081742c,64c7cde22b91682cd61606e2,right,-1,0.3071,0.35,1,-0.035598332,0.65,,,,,,5,0,5,0,1,,,,,
,,698451,001,2023-07-31_17h08.12.163,arm3_q,2022.2.5,Win32,62.5,5fd391f111059f000ac10cde,64c5699dae067f1f1081742c,64c7cde22b91682cd61606e2,down,1,0.3071,0.35,1,0,0.715,,,,,,6,0,6,0,1,,,,,
,,698451,001,2023-07-31_17h08.12.163,arm3_q,2022.2.5,Win32,62.5,5fd391f111059f000ac10cde,64c5699dae067f1f1081742c,64c7cde22b91682cd61606e2,right,1,0.3071,0.35,1,0.030497393,1.383,,,,,,7,0,7,0,1,,,,,
,,698451,001,2023-07-31_17h08.12.163,arm3_q,2022.2.5,Win32,62.5,5fd391f111059f000ac10cde,64c5699dae067f1f1081742c,64c7cde22b91682cd61606e2,right,1,0.3071,0.35,1,0.053042305,0.568,,,,,,8,0,8,0,1,,,,,
,,698451,001,2023-07-31_17h08.12.163,arm3_q,2022.2.5,Win32,62.5,5fd391f111059f000ac10cde,64c5699dae067f1f1081742c,64c7cde22b91682cd61606e2,right,1,0.3071,0.35,1,0.064800589,0.567,,,,,,9,0,9,0,1,,,,,
,,698451,001,2023-07-31_17h08.12.163,arm3_q,2022.2.5,Win32,62.5,5fd391f111059f000ac10cde,64c5699dae067f1f1081742c,64c7cde22b91682cd61606e2,down,-1,0.3071,0.35,1,0,0.351,,,,,,10,0,10,0,1,,,,,
,,698451,001,2023-07-31_17h08.12.163,arm3_q,2022.2.5,Win32,62.5,5fd391f111059f000ac10cde,64c5699dae067f1f1081742c,64c7cde22b91682cd61606e2,right,-1,0.3071,0.35,1,-0.01775809,1.364,,,,,,11,0,11,0,1,,,,,
,,698451,001,2023-07-31_17h08.12.163,arm3_q,2022.2.5,Win32,62.5,5fd391f111059f000ac10cde,64c5699dae067f1f1081742c,64c7cde22b91682cd61606e2,right,-1,0.3071,0.35,1,-0.022981856,0.517,,,,,,12,0,12,0,1,,,,,
,,698451,001,2023-07-31_17h08.12.163,arm3_q,2022.2.5,Win32,62.5,5fd391f111059f000ac10cde,64c5699dae067f1f1081742c,64c7cde22b91682cd61606e2,right,-1,0.3071,0.35,1,-0.027618105,1.035,,,,,,13,0,13,0,1,,,,,
,,698451,001,2023-07-31_17h08.12.163,arm3_q,2022.2.5,Win32,62.5,5fd391f111059f000ac10cde,64c5699dae067f1f1081742c,64c7cde22b91682cd61606e2,right,-1,0.3071,0.35,1,-0.035889221,0.601,,,,,,14,0,14,0,1,,,,,
,,698451,001,2023-07-31_17h08.12.163,arm3_q,2022.2.5,Win32,62.5,5fd391f111059f000ac10cde,64c5699dae067f1f1081742c,64c7cde22b91682cd61606e2,right,-1,0.3071,0.35,1,-0.0348282,0.535,,,,,,15,0,15,0,1,,,,,
,,698451,001,2023-07-31_17h08.12.163,arm3_q,2022.2.5,Win32,62.5,5fd391f111059f000ac10cde,64c5699dae067f1f1081742c,64c7cde22b91682cd61606e2,down,1,0.3071,0.35,2,0,1.267,,,,,,16,0,16,0,1,,,,,
,,698451,001,2023-07-31_17h08.12.163,arm3_q,2022.2.5,Win32,62.5,5fd391f111059f000ac10cde,64c5699dae067f1f1081742c,64c7cde22b91682cd61606e2,right,1,0.3071,0.35,2,-0.01018984,1.715,,,,,,17,0,17,0,1,,,,,
,,698451,001,2023-07-31_17h08.12.163,arm3_q,2022.2.5,Win32,62.5,5fd391f111059f000ac10cde,64c5699dae067f1f1081742c,64c7cde22b91682cd61606e2,right,1,0.3071,0.35,2,-0.009374209,0.767,,,,,,18,0,18,0,1,,,,,
,,698451,001,2023-07-31_17h08.12.163,arm3_q,2022.2.5,Win32,62.5,5fd391f111059f000ac10cde,64c5699dae067f1f1081742c,64c7cde22b91682cd61606e2,right,1,0.3071,0.35,2,-0.004665852,0.467,,,,,,19,0,19,0,1,,,,,
,,698451,001,2023-07-31_17h08.12.163,arm3_q,2022.2.5,Win32,62.5,5fd391f111059f000ac10cde,64c5699dae067f1f1081742c,64c7cde22b91682cd61606e2,right,1,0.3071,0.35,2,-0.019915763,0.502,,,,,,20,0,20,0,1,,,,,
,,698451,001,2023-07-31_17h08.12.163,arm3_q,2022.2.5,Win32,62.5,5fd391f111059f000ac10cde,64c5699dae067f1f1081742c,64c7cde22b91682cd61606e2,right,1,0.3071,0.35,2,-0.016052118,0.484,,,,,,21,0,21,0,1,,,,,
,,698451,001,2023-07-31_17h08.12.163,arm3_q,2022.2.5,Win32,62.5,5fd391f111059f000ac10cde,64c5699dae067f1f1081742c,64c7cde22b91682cd61606e2,right,1,0.3071,0.35,2,-0.024628333,0.418,,,,,,22,0,22,0,1,,,,,
,,698451,001,2023-07-31_17h08.12.163,arm3_q,2022.2.5,Win32,62.5,5fd391f111059f000ac10cde,64c5699dae067f1f1081742c,64c7cde22b91682cd61606e2,right,1,0.3071,0.35,2,-0.009342962,0.583,,,,,,23,0,23,0,1,,,,,
,,698451,001,2023-07-31_17h08.12.163,arm3_q,2022.2.5,Win32,62.5,5fd391f111059f000ac10cde,64c5699dae067f1f1081742c,64c7cde22b91682cd61606e2,right,1,0.3071,0.35,2,-0.004768294,0.618,,,,,,24,0,24,0,1,,,,,
,,698451,001,2023-07-31_17h08.12.163,arm3_q,2022.2.5,Win32,62.5,5fd391f111059f000ac10cde,64c5699dae067f1f1081742c,64c7cde22b91682cd61606e2,right,1,0.3071,0.35,2,0.001791435,0.5,,,,,,25,0,25,0,1,,,,,
,,698451,001,2023-07-31_17h08.12.163,arm3_q,2022.2.5,Win32,62.5,5fd391f111059f000ac10cde,64c5699dae067f1f1081742c,64c7cde22b91682cd61606e2,up,1,0.3071,0.35,3,0,0.933,,,,,,26,0,26,0,1,,,,,
,,698451,001,2023-07-31_17h08.12.163,arm3_q,2022.2.5,Win32,62.5,5fd391f111059f000ac10cde,64c5699dae067f1f1081742c,64c7cde22b91682cd61606e2,right,1,0.3071,0.35,3,0.019708423,1.414,,,,,,27,0,27,0,1,,,,,
,,698451,001,2023-07-31_17h08.12.163,arm3_q,2022.2.5,Win32,62.5,5fd391f111059f000ac10cde,64c5699dae067f1f1081742c,64c7cde22b91682cd61606e2,right,1,0.3071,0.35,3,0.028719081,0.502,,,,,,28,0,28,0,1,,,,,
,,698451,001,2023-07-31_17h08.12.163,arm3_q,2022.2.5,Win32,62.5,5fd391f111059f000ac10cde,64c5699dae067f1f1081742c,64c7cde22b91682cd61606e2,right,1,0.3071,0.35,3,0.018099206,0.402,,,,,,29,0,29,0,1,,,,,
,,698451,001,2023-07-31_17h08.12.163,arm3_q,2022.2.5,Win32,62.5,5fd391f111059f000ac10cde,64c5699dae067f1f1081742c,64c7cde22b91682cd61606e2,right,1,0.3071,0.35,3,-0.011511073,0.401,,,,,,30,0,30,0,1,,,,,
,,698451,001,2023-07-31_17h08.12.163,arm3_q,2022.2.5,Win32,62.5,5fd391f111059f000ac10cde,64c5699dae067f1f1081742c,64c7cde22b91682cd61606e2,right,1,0.3071,0.35,3,0.011823014,0.417,,,,,,31,0,31,0,1,,,,,
,,698451,001,2023-07-31_17h08.12.163,arm3_q,2022.2.5,Win32,62.5,5fd391f111059f000ac10cde,64c5699dae067f1f1081742c,64c7cde22b91682cd61606e2,right,1,0.3071,0.35,3,0.036567291,0.384,,,,,,32,0,32,0,1,,,,,
,,698451,001,2023-07-31_17h08.12.163,arm3_q,2022.2.5,Win32,62.5,5fd391f111059f000ac10cde,64c5699dae067f1f1081742c,64c7cde22b91682cd61606e2,right,1,0.3071,0.35,3,0.05311282,0.885,,,,,,33,0,33,0,1,,,,,
,,698451,001,2023-07-31_17h08.12.163,arm3_q,2022.2.5,Win32,62.5,5fd391f111059f000ac10cde,64c5699dae067f1f1081742c,64c7cde22b91682cd61606e2,right,1,0.3071,0.35,3,0.017064204,0.6,,,,,,34,0,34,0,1,,,,,
,,698451,001,2023-07-31_17h08.12.163,arm3_q,2022.2.5,Win32,62.5,5fd391f111059f000ac10cde,64c5699dae067f1f1081742c,64c7cde22b91682cd61606e2,right,1,0.3071,0.35,3,0.02814113,0.351,,,,,,35,0,35,0,1,,,,,
,,698451,001,2023-07-31_17h08.12.163,arm3_q,2022.2.5,Win32,62.5,5fd391f111059f000ac10cde,64c5699dae067f1f1081742c,64c7cde22b91682cd61606e2,right,1,0.3071,0.35,3,0.028376891,0.401,,,,,,36,0,36,0,1,,,,,
,,698451,001,2023-07-31_17h08.12.163,arm3_q,2022.2.5,Win32,62.5,5fd391f111059f000ac10cde,64c5699dae067f1f1081742c,64c7cde22b91682cd61606e2,right,1,0.3071,0.35,3,0.041163922,0.801,,,,,,37,0,37,0,1,,,,,
,,698451,001,2023-07-31_17h08.12.163,arm3_q,2022.2.5,Win32,62.5,5fd391f111059f000ac10cde,64c5699dae067f1f1081742c,64c7cde22b91682cd61606e2,up,-1,0.3071,0.35,3,0,1.084,,,,,,38,0,38,0,1,,,,,
,,698451,001,2023-07-31_17h08.12.163,arm3_q,2022.2.5,Win32,62.5,5fd391f111059f000ac10cde,64c5699dae067f1f1081742c,64c7cde22b91682cd61606e2,right,-1,0.3071,0.35,3,-0.052452272,1.184,,,,,,39,0,39,0,1,,,,,
,,698451,001,2023-07-31_17h08.12.163,arm3_q,2022.2.5,Win32,62.5,5fd391f111059f000ac10cde,64c5699dae067f1f1081742c,64c7cde22b91682cd61606e2,right,-1,0.3071,0.35,3,-0.064583571,0.384,,,,,,40,0,40,0,1,,,,,
,,698451,001,2023-07-31_17h08.12.163,arm3_q,2022.2.5,Win32,62.5,5fd391f111059f000ac10cde,64c5699dae067f1f1081742c,64c7cde22b91682cd61606e2,right,-1,0.3071,0.35,3,-0.070674876,0.367,,,,,,41,0,41,0,1,,,,,
,,698451,001,2023-07-31_17h08.12.163,arm3_q,2022.2.5,Win32,62.5,5fd391f111059f000ac10cde,64c5699dae067f1f1081742c,64c7cde22b91682cd61606e2,right,-1,0.3071,0.35,3,-0.091083098,0.584,,,,,,42,0,42,0,1,,,,,
,,698451,001,2023-07-31_17h08.12.163,arm3_q,2022.2.5,Win32,62.5,5fd391f111059f000ac10cde,64c5699dae067f1f1081742c,64c7cde22b91682cd61606e2,down,1,0.3071,0.35,4,0,0.65,,,,,,43,0,43,0,1,,,,,
,,698451,001,2023-07-31_17h08.12.163,arm3_q,2022.2.5,Win32,62.5,5fd391f111059f000ac10cde,64c5699dae067f1f1081742c,64c7cde22b91682cd61606e2,right,1,0.3071,0.35,4,0.000450055,1.311,,,,,,44,0,44,0,1,,,,,
,,698451,001,2023-07-31_17h08.12.163,arm3_q,2022.2.5,Win32,62.5,5fd391f111059f000ac10cde,64c5699dae067f1f1081742c,64c7cde22b91682cd61606e2,right,1,0.3071,0.35,4,0.000294659,0.866,,,,,,45,0,45,0,1,,,,,
,,698451,001,2023-07-31_17h08.12.163,arm3_q,2022.2.5,Win32,62.5,5fd391f111059f000ac10cde,64c5699dae067f1f1081742c,64c7cde22b91682cd61606e2,right,1,0.3071,0.35,4,0.015325396,0.451,,,,,,46,0,46,0,1,,,,,
,,698451,001,2023-07-31_17h08.12.163,arm3_q,2022.2.5,Win32,62.5,5fd391f111059f000ac10cde,64c5699dae067f1f1081742c,64c7cde22b91682cd61606e2,right,1,0.3071,0.35,4,0.027744389,0.434,,,,,,47,0,47,0,1,,,,,
,,698451,001,2023-07-31_17h08.12.163,arm3_q,2022.2.5,Win32,62.5,5fd391f111059f000ac10cde,64c5699dae067f1f1081742c,64c7cde22b91682cd61606e2,right,1,0.3071,0.35,4,0.043846572,1.25,,,,,,48,0,48,0,1,,,,,
,,698451,001,2023-07-31_17h08.12.163,arm3_q,2022.2.5,Win32,62.5,5fd391f111059f000ac10cde,64c5699dae067f1f1081742c,64c7cde22b91682cd61606e2,right,1,0.3071,0.35,4,0.050926999,0.75,,,,,,49,0,49,0,1,,,,,
,,698451,001,2023-07-31_17h08.12.163,arm3_q,2022.2.5,Win32,62.5,5fd391f111059f000ac10cde,64c5699dae067f1f1081742c,64c7cde22b91682cd61606e2,up,1,0.3071,0.35,4,0,0.433,,,,,,50,0,50,0,1,,,,,
,,698451,001,2023-07-31_17h08.12.163,arm3_q,2022.2.5,Win32,62.5,5fd391f111059f000ac10cde,64c5699dae067f1f1081742c,64c7cde22b91682cd61606e2,right,1,0.3071,0.35,4,0.028836197,1.148,,,,,,51,0,51,0,1,,,,,
,,698451,001,2023-07-31_17h08.12.163,arm3_q,2022.2.5,Win32,62.5,5fd391f111059f000ac10cde,64c5699dae067f1f1081742c,64c7cde22b91682cd61606e2,right,1,0.3071,0.35,4,0.078698534,0.418,,,,,,52,0,52,0,1,,,,,
,,698451,001,2023-07-31_17h08.12.163,arm3_q,2022.2.5,Win32,62.5,5fd391f111059f000ac10cde,64c5699dae067f1f1081742c,64c7cde22b91682cd61606e2,up,1,0.3071,0.35,5,0,0.833,,,,,,53,0,53,0,1,,,,,
,,698451,001,2023-07-31_17h08.12.163,arm3_q,2022.2.5,Win32,62.5,5fd391f111059f000ac10cde,64c5699dae067f1f1081742c,64c7cde22b91682cd61606e2,right,1,0.3071,0.35,5,-0.000367541,1.33,,,,,,54,0,54,0,1,,,,,
,,698451,001,2023-07-31_17h08.12.163,arm3_q,2022.2.5,Win32,62.5,5fd391f111059f000ac10cde,64c5699dae067f1f1081742c,64c7cde22b91682cd61606e2,right,1,0.3071,0.35,5,0.002813075,0.3,,,,,,55,0,55,0,1,,,,,
,,698451,001,2023-07-31_17h08.12.163,arm3_q,2022.2.5,Win32,62.5,5fd391f111059f000ac10cde,64c5699dae067f1f1081742c,64c7cde22b91682cd61606e2,right,1,0.3071,0.35,5,0.009158398,0.401,,,,,,56,0,56,0,1,,,,,
,,698451,001,2023-07-31_17h08.12.163,arm3_q,2022.2.5,Win32,62.5,5fd391f111059f000ac10cde,64c5699dae067f1f1081742c,64c7cde22b91682cd61606e2,right,1,0.3071,0.35,5,0.025674828,0.404,,,,,,57,0,57,0,1,,,,,
,,698451,001,2023-07-31_17h08.12.163,arm3_q,2022.2.5,Win32,62.5,5fd391f111059f000ac10cde,64c5699dae067f1f1081742c,64c7cde22b91682cd61606e2,right,1,0.3071,0.35,5,0.051169985,0.865,,,,,,58,0,58,0,1,,,,,
,,698451,001,2023-07-31_17h08.12.163,arm3_q,2022.2.5,Win32,62.5,5fd391f111059f000ac10cde,64c5699dae067f1f1081742c,64c7cde22b91682cd61606e2,up,1,0.3071,0.35,5,0,0.9,,,,,,59,0,59,0,1,,,,,
,,698451,001,2023-07-31_17h08.12.163,arm3_q,2022.2.5,Win32,62.5,5fd391f111059f000ac10cde,64c5699dae067f1f1081742c,64c7cde22b91682cd61606e2,right,1,0.3071,0.35,5,-0.005584631,1.085,,,,,,60,0,60,0,1,,,,,
,,698451,001,2023-07-31_17h08.12.163,arm3_q,2022.2.5,Win32,62.5,5fd391f111059f000ac10cde,64c5699dae067f1f1081742c,64c7cde22b91682cd61606e2,right,1,0.3071,0.35,5,0.037033432,0.37,,,,,,61,0,61,0,1,,,,,
,,698451,001,2023-07-31_17h08.12.163,arm3_q,2022.2.5,Win32,62.5,5fd391f111059f000ac10cde,64c5699dae067f1f1081742c,64c7cde22b91682cd61606e2,right,1,0.3071,0.35,5,0.063156128,0.367,,,,,,62,0,62,0,1,,,,,
,,698451,001,2023-07-31_17h08.12.163,arm3_q,2022.2.5,Win32,62.5,5fd391f111059f000ac10cde,64c5699dae067f1f1081742c,64c7cde22b91682cd61606e2,right,1,0.3071,0.35,5,0.084757399,0.335,,,,,,63,0,63,0,1,,,,,
,,698451,001,2023-07-31_17h08.12.163,arm3_q,2022.2.5,Win32,62.5,5fd391f111059f000ac10cde,64c5699dae067f1f1081742c,64c7cde22b91682cd61606e2,right,1,0.3071,0.35,5,0.066508078,0.467,,,,,,64,0,64,0,1,,,,,
,,698451,001,2023-07-31_17h08.12.163,arm3_q,2022.2.5,Win32,62.5,5fd391f111059f000ac10cde,64c5699dae067f1f1081742c,64c7cde22b91682cd61606e2,right,1,0.3071,0.35,5,0.08589798,0.435,,,,,,65,0,65,0,1,,,,,
,,698451,001,2023-07-31_17h08.12.163,arm3_q,2022.2.5,Win32,62.5,5fd391f111059f000ac10cde,64c5699dae067f1f1081742c,64c7cde22b91682cd61606e2,up,1,0.3071,0.35,5,0,0.6,,,,,,66,0,66,0,1,,,,,
,,698451,001,2023-07-31_17h08.12.163,arm3_q,2022.2.5,Win32,62.5,5fd391f111059f000ac10cde,64c5699dae067f1f1081742c,64c7cde22b91682cd61606e2,right,1,0.3071,0.35,5,-0.020286661,1.134,,,,,,67,0,67,0,1,,,,,
,,698451,001,2023-07-31_17h08.12.163,arm3_q,2022.2.5,Win32,62.5,5fd391f111059f000ac10cde,64c5699dae067f1f1081742c,64c7cde22b91682cd61606e2,right,1,0.3071,0.35,5,-0.008465197,0.367,,,,,,68,0,68,0,1,,,,,
,,698451,001,2023-07-31_17h08.12.163,arm3_q,2022.2.5,Win32,62.5,5fd391f111059f000ac10cde,64c5699dae067f1f1081742c,64c7cde22b91682cd61606e2,right,1,0.3071,0.35,5,0.009205209,0.184,,,,,,69,0,69,0,1,,,,,
,,698451,001,2023-07-31_17h08.12.163,arm3_q,2022.2.5,Win32,62.5,5fd391f111059f000ac10cde,64c5699dae067f1f1081742c,64c7cde22b91682cd61606e2,right,1,0.3071,0.35,5,0.054286635,0.522,,,,,,70,0,70,0,1,,,,,
,,698451,001,2023-07-31_17h08.12.163,arm3_q,2022.2.5,Win32,62.5,5fd391f111059f000ac10cde,64c5699dae067f1f1081742c,64c7cde22b91682cd61606e2,right,1,0.3071,0.35,5,0.079761688,0.437,,,,,,71,0,71,0,1,,,,,
,,698451,001,2023-07-31_17h08.12.163,arm3_q,2022.2.5,Win32,62.5,5fd391f111059f000ac10cde,64c5699dae067f1f1081742c,64c7cde22b91682cd61606e2,right,1,0.3071,0.35,5,0.107916765,0.429,,,,,,72,0,72,0,1,,,,,
,,698451,001,2023-07-31_17h08.12.163,arm3_q,2022.2.5,Win32,62.5,5fd391f111059f000ac10cde,64c5699dae067f1f1081742c,64c7cde22b91682cd61606e2,right,1,0.3071,0.35,5,0.110365979,0.487,,,,,,73,0,73,0,1,,,,,
,,698451,001,2023-07-31_17h08.12.163,arm3_q,2022.2.5,Win32,62.5,5fd391f111059f000ac10cde,64c5699dae067f1f1081742c,64c7cde22b91682cd61606e2,right,1,0.3071,0.35,5,0.111119086,0.48,,,,,,74,0,74,0,1,,,,,
,,698451,001,2023-07-31_17h08.12.163,arm3_q,2022.2.5,Win32,62.5,5fd391f111059f000ac10cde,64c5699dae067f1f1081742c,64c7cde22b91682cd61606e2,up,1,0.3071,0.35,6,0,0.413,,,,,,75,0,75,0,1,,,,,
,,698451,001,2023-07-31_17h08.12.163,arm3_q,2022.2.5,Win32,62.5,5fd391f111059f000ac10cde,64c5699dae067f1f1081742c,64c7cde22b91682cd61606e2,right,1,0.3071,0.35,6,0.029733787,3.439,,,,,,76,0,76,0,1,,,,,
,,698451,001,2023-07-31_17h08.12.163,arm3_q,2022.2.5,Win32,62.5,5fd391f111059f000ac10cde,64c5699dae067f1f1081742c,64c7cde22b91682cd61606e2,right,1,0.3071,0.35,6,0.013859871,0.413,,,,,,77,0,77,0,1,,,,,
,,698451,001,2023-07-31_17h08.12.163,arm3_q,2022.2.5,Win32,62.5,5fd391f111059f000ac10cde,64c5699dae067f1f1081742c,64c7cde22b91682cd61606e2,right,1,0.3071,0.35,6,-0.006248031,0.436,,,,,,78,0,78,0,1,,,,,
,,698451,001,2023-07-31_17h08.12.163,arm3_q,2022.2.5,Win32,62.5,5fd391f111059f000ac10cde,64c5699dae067f1f1081742c,64c7cde22b91682cd61606e2,right,1,0.3071,0.35,6,-0.007597459,0.404,,,,,,79,0,79,0,1,,,,,
,,698451,001,2023-07-31_17h08.12.163,arm3_q,2022.2.5,Win32,62.5,5fd391f111059f000ac10cde,64c5699dae067f1f1081742c,64c7cde22b91682cd61606e2,right,1,0.3071,0.35,6,0.000423788,0.579,,,,,,80,0,80,0,1,,,,,
,,698451,001,2023-07-31_17h08.12.163,arm3_q,2022.2.5,Win32,62.5,5fd391f111059f000ac10cde,64c5699dae067f1f1081742c,64c7cde22b91682cd61606e2,right,1,0.3071,0.35,6,-0.003498326,0.365,,,,,,81,0,81,0,1,,,,,
,,698451,001,2023-07-31_17h08.12.163,arm3_q,2022.2.5,Win32,62.5,5fd391f111059f000ac10cde,64c5699dae067f1f1081742c,64c7cde22b91682cd61606e2,right,1,0.3071,0.35,6,0.008443427,0.847,,,,,,82,0,82,0,1,,,,,
,,698451,001,2023-07-31_17h08.12.163,arm3_q,2022.2.5,Win32,62.5,5fd391f111059f000ac10cde,64c5699dae067f1f1081742c,64c7cde22b91682cd61606e2,right,1,0.3071,0.35,6,0.032785775,0.329,,,,,,83,0,83,0,1,,,,,
,,698451,001,2023-07-31_17h08.12.163,arm3_q,2022.2.5,Win32,62.5,5fd391f111059f000ac10cde,64c5699dae067f1f1081742c,64c7cde22b91682cd61606e2,right,1,0.3071,0.35,6,0.057832393,0.505,,,,,,84,0,84,0,1,,,,,
,,698451,001,2023-07-31_17h08.12.163,arm3_q,2022.2.5,Win32,62.5,5fd391f111059f000ac10cde,64c5699dae067f1f1081742c,64c7cde22b91682cd61606e2,right,1,0.3071,0.35,6,0.052170842,0.624,,,,,,85,0,85,0,1,,,,,
,,698451,001,2023-07-31_17h08.12.163,arm3_q,2022.2.5,Win32,62.5,5fd391f111059f000ac10cde,64c5699dae067f1f1081742c,64c7cde22b91682cd61606e2,up,-1,0.3071,0.35,6,0,0.645,,,,,,86,0,86,0,1,,,,,
,,698451,001,2023-07-31_17h08.12.163,arm3_q,2022.2.5,Win32,62.5,5fd391f111059f000ac10cde,64c5699dae067f1f1081742c,64c7cde22b91682cd61606e2,right,-1,0.3071,0.35,6,-0.038163511,1.179,,,,,,87,0,87,0,1,,,,,
,,698451,001,2023-07-31_17h08.12.163,arm3_q,2022.2.5,Win32,62.5,5fd391f111059f000ac10cde,64c5699dae067f1f1081742c,64c7cde22b91682cd61606e2,right,-1,0.3071,0.35,6,-0.05422908,0.464,,,,,,88,0,88,0,1,,,,,
,,698451,001,2023-07-31_17h08.12.163,arm3_q,2022.2.5,Win32,62.5,5fd391f111059f000ac10cde,64c5699dae067f1f1081742c,64c7cde22b91682cd61606e2,right,-1,0.3071,0.35,6,-0.070478036,0.37,,,,,,89,0,89,0,1,,,,,
,,698451,001,2023-07-31_17h08.12.163,arm3_q,2022.2.5,Win32,62.5,5fd391f111059f000ac10cde,64c5699dae067f1f1081742c,64c7cde22b91682cd61606e2,right,-1,0.3071,0.35,6,-0.075509905,0.447,,,,,,90,0,90,0,1,,,,,
,,698451,001,2023-07-31_17h08.12.163,arm3_q,2022.2.5,Win32,62.5,5fd391f111059f000ac10cde,64c5699dae067f1f1081742c,64c7cde22b91682cd61606e2,right,-1,0.3071,0.35,6,-0.107109835,0.368,,,,,,91,0,91,0,1,,,,,
,,698451,001,2023-07-31_17h08.12.163,arm3_q,2022.2.5,Win32,62.5,5fd391f111059f000ac10cde,64c5699dae067f1f1081742c,64c7cde22b91682cd61606e2,down,-1,0.3071,0.35,7,0,0.746,,,,,,92,0,92,0,1,,,,,
,,698451,001,2023-07-31_17h08.12.163,arm3_q,2022.2.5,Win32,62.5,5fd391f111059f000ac10cde,64c5699dae067f1f1081742c,64c7cde22b91682cd61606e2,right,-1,0.3071,0.35,7,-0.023492356,1.325,,,,,,93,0,93,0,1,,,,,
,,698451,001,2023-07-31_17h08.12.163,arm3_q,2022.2.5,Win32,62.5,5fd391f111059f000ac10cde,64c5699dae067f1f1081742c,64c7cde22b91682cd61606e2,right,-1,0.3071,0.35,7,-0.036151269,0.466,,,,,,94,0,94,0,1,,,,,
,,698451,001,2023-07-31_17h08.12.163,arm3_q,2022.2.5,Win32,62.5,5fd391f111059f000ac10cde,64c5699dae067f1f1081742c,64c7cde22b91682cd61606e2,right,-1,0.3071,0.35,7,-0.080091428,0.42,,,,,,95,0,95,0,1,,,,,
,,698451,001,2023-07-31_17h08.12.163,arm3_q,2022.2.5,Win32,62.5,5fd391f111059f000ac10cde,64c5699dae067f1f1081742c,64c7cde22b91682cd61606e2,right,-1,0.3071,0.35,7,-0.107011017,0.446,,,,,,96,0,96,0,1,,,,,
,,698451,001,2023-07-31_17h08.12.163,arm3_q,2022.2.5,Win32,62.5,5fd391f111059f000ac10cde,64c5699dae067f1f1081742c,64c7cde22b91682cd61606e2,down,-1,0.3071,0.35,7,0,0.499,,,,,,97,0,97,0,1,,,,,
,,698451,001,2023-07-31_17h08.12.163,arm3_q,2022.2.5,Win32,62.5,5fd391f111059f000ac10cde,64c5699dae067f1f1081742c,64c7cde22b91682cd61606e2,right,-1,0.3071,0.35,7,0.012691322,1.093,,,,,,98,0,98,0,1,,,,,
,,698451,001,2023-07-31_17h08.12.163,arm3_q,2022.2.5,Win32,62.5,5fd391f111059f000ac10cde,64c5699dae067f1f1081742c,64c7cde22b91682cd61606e2,right,-1,0.3071,0.35,7,0.028349773,0.381,,,,,,99,0,99,0,1,,,,,
,,698451,001,2023-07-31_17h08.12.163,arm3_q,2022.2.5,Win32,62.5,5fd391f111059f000ac10cde,64c5699dae067f1f1081742c,64c7cde22b91682cd61606e2,right,-1,0.3071,0.35,7,0.022327404,0.297,,,,,,100,0,100,0,1,,,,,
,,698451,001,2023-07-31_17h08.12.163,arm3_q,2022.2.5,Win32,62.5,5fd391f111059f000ac10cde,64c5699dae067f1f1081742c,64c7cde22b91682cd61606e2,right,-1,0.3071,0.35,7,0.0181031,0.283,,,,,,101,0,101,0,1,,,,,
,,698451,001,2023-07-31_17h08.12.163,arm3_q,2022.2.5,Win32,62.5,5fd391f111059f000ac10cde,64c5699dae067f1f1081742c,64c7cde22b91682cd61606e2,right,-1,0.3071,0.35,7,0.007355272,0.318,,,,,,102,0,102,0,1,,,,,
,,698451,001,2023-07-31_17h08.12.163,arm3_q,2022.2.5,Win32,62.5,5fd391f111059f000ac10cde,64c5699dae067f1f1081742c,64c7cde22b91682cd61606e2,right,-1,0.3071,0.35,7,0.007105688,0.347,,,,,,103,0,103,0,1,,,,,
,,698451,001,2023-07-31_17h08.12.163,arm3_q,2022.2.5,Win32,62.5,5fd391f111059f000ac10cde,64c5699dae067f1f1081742c,64c7cde22b91682cd61606e2,right,-1,0.3071,0.35,7,0.003212276,0.303,,,,,,104,0,104,0,1,,,,,
,,698451,001,2023-07-31_17h08.12.163,arm3_q,2022.2.5,Win32,62.5,5fd391f111059f000ac10cde,64c5699dae067f1f1081742c,64c7cde22b91682cd61606e2,right,-1,0.3071,0.35,7,-0.021725798,0.366,,,,,,105,0,105,0,1,,,,,
,,698451,001,2023-07-31_17h08.12.163,arm3_q,2022.2.5,Win32,62.5,5fd391f111059f000ac10cde,64c5699dae067f1f1081742c,64c7cde22b91682cd61606e2,right,-1,0.3071,0.35,7,-0.043645865,0.37,,,,,,106,0,106,0,1,,,,,
,,698451,001,2023-07-31_17h08.12.163,arm3_q,2022.2.5,Win32,62.5,5fd391f111059f000ac10cde,64c5699dae067f1f1081742c,64c7cde22b91682cd61606e2,right,-1,0.3071,0.35,7,-0.053398888,0.381,,,,,,107,0,107,0,1,,,,,
,,698451,001,2023-07-31_17h08.12.163,arm3_q,2022.2.5,Win32,62.5,5fd391f111059f000ac10cde,64c5699dae067f1f1081742c,64c7cde22b91682cd61606e2,right,-1,0.3071,0.35,7,-0.077868402,0.346,,,,,,108,0,108,0,1,,,,,
,,698451,001,2023-07-31_17h08.12.163,arm3_q,2022.2.5,Win32,62.5,5fd391f111059f000ac10cde,64c5699dae067f1f1081742c,64c7cde22b91682cd61606e2,down,1,0.3071,0.35,8,0,0.852,,,,,,109,0,109,0,1,,,,,
,,698451,001,2023-07-31_17h08.12.163,arm3_q,2022.2.5,Win32,62.5,5fd391f111059f000ac10cde,64c5699dae067f1f1081742c,64c7cde22b91682cd61606e2,right,1,0.3071,0.35,8,0.016703098,1.124,,,,,,110,0,110,0,1,,,,,
,,698451,001,2023-07-31_17h08.12.163,arm3_q,2022.2.5,Win32,62.5,5fd391f111059f000ac10cde,64c5699dae067f1f1081742c,64c7cde22b91682cd61606e2,right,1,0.3071,0.35,8,0.021525052,0.365,,,,,,111,0,111,0,1,,,,,
,,698451,001,2023-07-31_17h08.12.163,arm3_q,2022.2.5,Win32,62.5,5fd391f111059f000ac10cde,64c5699dae067f1f1081742c,64c7cde22b91682cd61606e2,right,1,0.3071,0.35,8,0.052631027,0.361,,,,,,112,0,112,0,1,,,,,
,,698451,001,2023-07-31_17h08.12.163,arm3_q,2022.2.5,Win32,62.5,5fd391f111059f000ac10cde,64c5699dae067f1f1081742c,64c7cde22b91682cd61606e2,right,1,0.3071,0.35,8,0.054054616,0.364,,,,,,113,0,113,0,1,,,,,
,,698451,001,2023-07-31_17h08.12.163,arm3_q,2022.2.5,Win32,62.5,5fd391f111059f000ac10cde,64c5699dae067f1f1081742c,64c7cde22b91682cd61606e2,right,1,0.3071,0.35,8,0.063316823,0.332,,,,,,114,0,114,0,1,,,,,
,,698451,001,2023-07-31_17h08.12.163,arm3_q,2022.2.5,Win32,62.5,5fd391f111059f000ac10cde,64c5699dae067f1f1081742c,64c7cde22b91682cd61606e2,right,1,0.3071,0.35,8,0.057407162,0.331,,,,,,115,0,115,0,1,,,,,
,,698451,001,2023-07-31_17h08.12.163,arm3_q,2022.2.5,Win32,62.5,5fd391f111059f000ac10cde,64c5699dae067f1f1081742c,64c7cde22b91682cd61606e2,right,1,0.3071,0.35,8,0.103633188,0.317,,,,,,116,0,116,0,1,,,,,
,,698451,001,2023-07-31_17h08.12.163,arm3_q,2022.2.5,Win32,62.5,5fd391f111059f000ac10cde,64c5699dae067f1f1081742c,64c7cde22b91682cd61606e2,right,1,0.3071,0.35,8,0.112777039,0.535,,,,,,117,0,117,0,1,,,,,
,,698451,001,2023-07-31_17h08.12.163,arm3_q,2022.2.5,Win32,62.5,5fd391f111059f000ac10cde,64c5699dae067f1f1081742c,64c7cde22b91682cd61606e2,up,1,0.3071,0.35,8,0,0.767,,,,,,118,0,118,0,1,,,,,
,,698451,001,2023-07-31_17h08.12.163,arm3_q,2022.2.5,Win32,62.5,5fd391f111059f000ac10cde,64c5699dae067f1f1081742c,64c7cde22b91682cd61606e2,right,1,0.3071,0.35,8,-0.007543415,0.98,,,,,,119,0,119,0,1,,,,,
,,698451,001,2023-07-31_17h08.12.163,arm3_q,2022.2.5,Win32,62.5,5fd391f111059f000ac10cde,64c5699dae067f1f1081742c,64c7cde22b91682cd61606e2,right,1,0.3071,0.35,8,-0.042598384,0.272,,,,,,120,0,120,0,1,,,,,
,,698451,001,2023-07-31_17h08.12.163,arm3_q,2022.2.5,Win32,62.5,5fd391f111059f000ac10cde,64c5699dae067f1f1081742c,64c7cde22b91682cd61606e2,right,1,0.3071,0.35,8,-0.016752542,0.144,,,,,,121,0,121,0,1,,,,,
,,698451,001,2023-07-31_17h08.12.163,arm3_q,2022.2.5,Win32,62.5,5fd391f111059f000ac10cde,64c5699dae067f1f1081742c,64c7cde22b91682cd61606e2,right,1,0.3071,0.35,8,0.011758928,0.163,,,,,,122,0,122,0,1,,,,,
,,698451,001,2023-07-31_17h08.12.163,arm3_q,2022.2.5,Win32,62.5,5fd391f111059f000ac10cde,64c5699dae067f1f1081742c,64c7cde22b91682cd61606e2,right,1,0.3071,0.35,8,-0.003352879,0.336,,,,,,123,0,123,0,1,,,,,
,,698451,001,2023-07-31_17h08.12.163,arm3_q,2022.2.5,Win32,62.5,5fd391f111059f000ac10cde,64c5699dae067f1f1081742c,64c7cde22b91682cd61606e2,right,1,0.3071,0.35,8,0.01211745,0.298,,,,,,124,0,124,0,1,,,,,
,,698451,001,2023-07-31_17h08.12.163,arm3_q,2022.2.5,Win32,62.5,5fd391f111059f000ac10cde,64c5699dae067f1f1081742c,64c7cde22b91682cd61606e2,right,1,0.3071,0.35,8,0.010995067,0.165,,,,,,125,0,125,0,1,,,,,
,,698451,001,2023-07-31_17h08.12.163,arm3_q,2022.2.5,Win32,62.5,5fd391f111059f000ac10cde,64c5699dae067f1f1081742c,64c7cde22b91682cd61606e2,right,1,0.3071,0.35,8,0.048000228,0.146,,,,,,126,0,126,0,1,,,,,
,,698451,001,2023-07-31_17h08.12.163,arm3_q,2022.2.5,Win32,62.5,5fd391f111059f000ac10cde,64c5699dae067f1f1081742c,64c7cde22b91682cd61606e2,right,1,0.3071,0.35,8,0.076550797,0.431,,,,,,127,0,127,0,1,,,,,
,,698451,001,2023-07-31_17h08.12.163,arm3_q,2022.2.5,Win32,62.5,5fd391f111059f000ac10cde,64c5699dae067f1f1081742c,64c7cde22b91682cd61606e2,up,1,0.3071,0.35,9,0,0.681,,,,,,128,0,128,0,1,,,,,
,,698451,001,2023-07-31_17h08.12.163,arm3_q,2022.2.5,Win32,62.5,5fd391f111059f000ac10cde,64c5699dae067f1f1081742c,64c7cde22b91682cd61606e2,right,1,0.3071,0.35,9,0.046012926,1.017,,,,,,129,0,129,0,1,,,,,
,,698451,001,2023-07-31_17h08.12.163,arm3_q,2022.2.5,Win32,62.5,5fd391f111059f000ac10cde,64c5699dae067f1f1081742c,64c7cde22b91682cd61606e2,right,1,0.3071,0.35,9,0.066846362,0.18,,,,,,130,0,130,0,1,,,,,
,,698451,001,2023-07-31_17h08.12.163,arm3_q,2022.2.5,Win32,62.5,5fd391f111059f000ac10cde,64c5699dae067f1f1081742c,64c7cde22b91682cd61606e2,right,1,0.3071,0.35,9,0.085268448,0.18,,,,,,131,0,131,0,1,,,,,
,,698451,001,2023-07-31_17h08.12.163,arm3_q,2022.2.5,Win32,62.5,5fd391f111059f000ac10cde,64c5699dae067f1f1081742c,64c7cde22b91682cd61606e2,right,1,0.3071,0.35,9,0.118106628,0.164,,,,,,132,0,132,0,1,,,,,
,,698451,001,2023-07-31_17h08.12.163,arm3_q,2022.2.5,Win32,62.5,5fd391f111059f000ac10cde,64c5699dae067f1f1081742c,64c7cde22b91682cd61606e2,right,1,0.3071,0.35,9,0.135015469,0.137,,,,,,133,0,133,0,1,,,,,
,,698451,001,2023-07-31_17h08.12.163,arm3_q,2022.2.5,Win32,62.5,5fd391f111059f000ac10cde,64c5699dae067f1f1081742c,64c7cde22b91682cd61606e2,right,1,0.3071,0.35,9,0.141372697,0.149,,,,,,134,0,134,0,1,,,,,
,,698451,001,2023-07-31_17h08.12.163,arm3_q,2022.2.5,Win32,62.5,5fd391f111059f000ac10cde,64c5699dae067f1f1081742c,64c7cde22b91682cd61606e2,right,1,0.3071,0.35,9,0.168504972,0.279,,,,,,135,0,135,0,1,,,,,
,,698451,001,2023-07-31_17h08.12.163,arm3_q,2022.2.5,Win32,62.5,5fd391f111059f000ac10cde,64c5699dae067f1f1081742c,64c7cde22b91682cd61606e2,right,1,0.3071,0.35,9,0.187929303,0.336,,,,,,136,0,136,0,1,,,,,
,,698451,001,2023-07-31_17h08.12.163,arm3_q,2022.2.5,Win32,62.5,5fd391f111059f000ac10cde,64c5699dae067f1f1081742c,64c7cde22b91682cd61606e2,right,1,0.3071,0.35,9,0.19319768,0.338,,,,,,137,0,137,0,1,,,,,
,,698451,001,2023-07-31_17h08.12.163,arm3_q,2022.2.5,Win32,62.5,5fd391f111059f000ac10cde,64c5699dae067f1f1081742c,64c7cde22b91682cd61606e2,right,1,0.3071,0.35,9,0.19021172,0.384,,,,,,138,0,138,0,1,,,,,
,,698451,001,2023-07-31_17h08.12.163,arm3_q,2022.2.5,Win32,62.5,5fd391f111059f000ac10cde,64c5699dae067f1f1081742c,64c7cde22b91682cd61606e2,right,1,0.3071,0.35,9,0.197088495,0.417,,,,,,139,0,139,0,1,,,,,
,,698451,001,2023-07-31_17h08.12.163,arm3_q,2022.2.5,Win32,62.5,5fd391f111059f000ac10cde,64c5699dae067f1f1081742c,64c7cde22b91682cd61606e2,up,1,0.3071,0.35,9,0,0.646,,,,,,140,0,140,0,1,,,,,
,,698451,001,2023-07-31_17h08.12.163,arm3_q,2022.2.5,Win32,62.5,5fd391f111059f000ac10cde,64c5699dae067f1f1081742c,64c7cde22b91682cd61606e2,right,1,0.3071,0.35,9,0.02979571,1.107,,,,,,141,0,141,0,1,,,,,
,,698451,001,2023-07-31_17h08.12.163,arm3_q,2022.2.5,Win32,62.5,5fd391f111059f000ac10cde,64c5699dae067f1f1081742c,64c7cde22b91682cd61606e2,right,1,0.3071,0.35,9,0.038204155,0.246,,,,,,142,0,142,0,1,,,,,
,,698451,001,2023-07-31_17h08.12.163,arm3_q,2022.2.5,Win32,62.5,5fd391f111059f000ac10cde,64c5699dae067f1f1081742c,64c7cde22b91682cd61606e2,right,1,0.3071,0.35,9,0.075831572,0.181,,,,,,143,0,143,0,1,,,,,
,,698451,001,2023-07-31_17h08.12.163,arm3_q,2022.2.5,Win32,62.5,5fd391f111059f000ac10cde,64c5699dae067f1f1081742c,64c7cde22b91682cd61606e2,right,1,0.3071,0.35,9,0.091363692,0.15,,,,,,144,0,144,0,1,,,,,
,,698451,001,2023-07-31_17h08.12.163,arm3_q,2022.2.5,Win32,62.5,5fd391f111059f000ac10cde,64c5699dae067f1f1081742c,64c7cde22b91682cd61606e2,right,1,0.3071,0.35,9,0.091794523,0.159,,,,,,145,0,145,0,1,,,,,
,,698451,001,2023-07-31_17h08.12.163,arm3_q,2022.2.5,Win32,62.5,5fd391f111059f000ac10cde,64c5699dae067f1f1081742c,64c7cde22b91682cd61606e2,right,1,0.3071,0.35,9,0.086939088,0.163,,,,,,146,0,146,0,1,,,,,
,,698451,001,2023-07-31_17h08.12.163,arm3_q,2022.2.5,Win32,62.5,5fd391f111059f000ac10cde,64c5699dae067f1f1081742c,64c7cde22b91682cd61606e2,right,1,0.3071,0.35,9,0.101792194,0.181,,,,,,147,0,147,0,1,,,,,
,,698451,001,2023-07-31_17h08.12.163,arm3_q,2022.2.5,Win32,62.5,5fd391f111059f000ac10cde,64c5699dae067f1f1081742c,64c7cde22b91682cd61606e2,right,1,0.3071,0.35,9,0.137093555,0.199,,,,,,148,0,148,0,1,,,,,
,,698451,001,2023-07-31_17h08.12.163,arm3_q,2022.2.5,Win32,62.5,5fd391f111059f000ac10cde,64c5699dae067f1f1081742c,64c7cde22b91682cd61606e2,right,1,0.3071,0.35,9,0.161807911,0.204,,,,,,149,0,149,0,1,,,,,
,,698451,001,2023-07-31_17h08.12.163,arm3_q,2022.2.5,Win32,62.5,5fd391f111059f000ac10cde,64c5699dae067f1f1081742c,64c7cde22b91682cd61606e2,right,1,0.3071,0.35,9,0.123098399,0.318,,,,,,150,0,150,0,1,,,,,
,,698451,001,2023-07-31_17h08.12.163,arm3_q,2022.2.5,Win32,62.5,5fd391f111059f000ac10cde,64c5699dae067f1f1081742c,64c7cde22b91682cd61606e2,right,1,0.3071,0.35,9,0.114813065,0.398,,,,,,151,0,151,0,1,,,,,
,,698451,001,2023-07-31_17h08.12.163,arm3_q,2022.2.5,Win32,62.5,5fd391f111059f000ac10cde,64c5699dae067f1f1081742c,64c7cde22b91682cd61606e2,right,1,0.3071,0.35,9,0.110228858,0.426,,,,,,152,0,152,0,1,,,,,
,,698451,001,2023-07-31_17h08.12.163,arm3_q,2022.2.5,Win32,62.5,5fd391f111059f000ac10cde,64c5699dae067f1f1081742c,64c7cde22b91682cd61606e2,up,1,0.3071,0.35,9,0,1.025,,,,,,153,0,153,0,1,,,,,
,,698451,001,2023-07-31_17h08.12.163,arm3_q,2022.2.5,Win32,62.5,5fd391f111059f000ac10cde,64c5699dae067f1f1081742c,64c7cde22b91682cd61606e2,right,1,0.3071,0.35,9,-0.001087218,1.337,,,,,,154,0,154,0,1,,,,,
,,698451,001,2023-07-31_17h08.12.163,arm3_q,2022.2.5,Win32,62.5,5fd391f111059f000ac10cde,64c5699dae067f1f1081742c,64c7cde22b91682cd61606e2,right,1,0.3071,0.35,9,0.01062353,0.305,,,,,,155,0,155,0,1,,,,,
,,698451,001,2023-07-31_17h08.12.163,arm3_q,2022.2.5,Win32,62.5,5fd391f111059f000ac10cde,64c5699dae067f1f1081742c,64c7cde22b91682cd61606e2,right,1,0.3071,0.35,9,0.05120457,0.164,,,,,,156,0,156,0,1,,,,,
,,698451,001,2023-07-31_17h08.12.163,arm3_q,2022.2.5,Win32,62.5,5fd391f111059f000ac10cde,64c5699dae067f1f1081742c,64c7cde22b91682cd61606e2,right,1,0.3071,0.35,9,0.035270963,0.17,,,,,,157,0,157,0,1,,,,,
,,698451,001,2023-07-31_17h08.12.163,arm3_q,2022.2.5,Win32,62.5,5fd391f111059f000ac10cde,64c5699dae067f1f1081742c,64c7cde22b91682cd61606e2,right,1,0.3071,0.35,9,0.040370179,0.181,,,,,,158,0,158,0,1,,,,,
,,698451,001,2023-07-31_17h08.12.163,arm3_q,2022.2.5,Win32,62.5,5fd391f111059f000ac10cde,64c5699dae067f1f1081742c,64c7cde22b91682cd61606e2,right,1,0.3071,0.35,9,0.050729304,0.163,,,,,,159,0,159,0,1,,,,,
,,698451,001,2023-07-31_17h08.12.163,arm3_q,2022.2.5,Win32,62.5,5fd391f111059f000ac10cde,64c5699dae067f1f1081742c,64c7cde22b91682cd61606e2,right,1,0.3071,0.35,9,0.08372054,0.214,,,,,,160,0,160,0,1,,,,,
,,698451,001,2023-07-31_17h08.12.163,arm3_q,2022.2.5,Win32,62.5,5fd391f111059f000ac10cde,64c5699dae067f1f1081742c,64c7cde22b91682cd61606e2,right,1,0.3071,0.35,9,0.048831042,0.23,,,,,,161,0,161,0,1,,,,,
,,698451,001,2023-07-31_17h08.12.163,arm3_q,2022.2.5,Win32,62.5,5fd391f111059f000ac10cde,64c5699dae067f1f1081742c,64c7cde22b91682cd61606e2,right,1,0.3071,0.35,9,0.071385774,0.366,,,,,,162,0,162,0,1,,,,,
,,698451,001,2023-07-31_17h08.12.163,arm3_q,2022.2.5,Win32,62.5,5fd391f111059f000ac10cde,64c5699dae067f1f1081742c,64c7cde22b91682cd61606e2,right,1,0.3071,0.35,9,0.067128371,0.337,,,,,,163,0,163,0,1,,,,,
,,698451,001,2023-07-31_17h08.12.163,arm3_q,2022.2.5,Win32,62.5,5fd391f111059f000ac10cde,64c5699dae067f1f1081742c,64c7cde22b91682cd61606e2,right,1,0.3071,0.35,9,0.101506512,0.344,,,,,,164,0,164,0,1,,,,,
,,698451,001,2023-07-31_17h08.12.163,arm3_q,2022.2.5,Win32,62.5,5fd391f111059f000ac10cde,64c5699dae067f1f1081742c,64c7cde22b91682cd61606e2,right,1,0.3071,0.35,9,0.123510665,0.377,,,,,,165,0,165,0,1,,,,,
,,698451,001,2023-07-31_17h08.12.163,arm3_q,2022.2.5,Win32,62.5,5fd391f111059f000ac10cde,64c5699dae067f1f1081742c,64c7cde22b91682cd61606e2,up,-1,0.3071,0.35,9,0,1.343,,,,,,166,0,166,0,1,,,,,
,,698451,001,2023-07-31_17h08.12.163,arm3_q,2022.2.5,Win32,62.5,5fd391f111059f000ac10cde,64c5699dae067f1f1081742c,64c7cde22b91682cd61606e2,right,-1,0.3071,0.35,9,-0.029564061,2.041,,,,,,167,0,167,0,1,,,,,
,,698451,001,2023-07-31_17h08.12.163,arm3_q,2022.2.5,Win32,62.5,5fd391f111059f000ac10cde,64c5699dae067f1f1081742c,64c7cde22b91682cd61606e2,right,-1,0.3071,0.35,9,-0.065677608,0.7,,,,,,168,0,168,0,1,,,,,
,,698451,001,2023-07-31_17h08.12.163,arm3_q,2022.2.5,Win32,62.5,5fd391f111059f000ac10cde,64c5699dae067f1f1081742c,64c7cde22b91682cd61606e2,right,-1,0.3071,0.35,9,-0.05247906,0.336,,,,,,169,0,169,0,1,,,,,
,,698451,001,2023-07-31_17h08.12.163,arm3_q,2022.2.5,Win32,62.5,5fd391f111059f000ac10cde,64c5699dae067f1f1081742c,64c7cde22b91682cd61606e2,right,-1,0.3071,0.35,9,-0.081648474,0.156,,,,,,170,0,170,0,1,,,,,
,,698451,001,2023-07-31_17h08.12.163,arm3_q,2022.2.5,Win32,62.5,5fd391f111059f000ac10cde,64c5699dae067f1f1081742c,64c7cde22b91682cd61606e2,right,-1,0.3071,0.35,9,-0.110341527,0.621,,,,,,171,0,171,0,1,,,,,
,,698451,001,2023-07-31_17h08.12.163,arm3_q,2022.2.5,Win32,62.5,5fd391f111059f000ac10cde,64c5699dae067f1f1081742c,64c7cde22b91682cd61606e2,down,-1,0.3071,0.35,10,0,0.315,,,,,,172,0,172,0,1,,,,,
,,698451,001,2023-07-31_17h08.12.163,arm3_q,2022.2.5,Win32,62.5,5fd391f111059f000ac10cde,64c5699dae067f1f1081742c,64c7cde22b91682cd61606e2,right,-1,0.3071,0.35,10,-0.02050046,1.84,,,,,,173,0,173,0,1,,,,,
,,698451,001,2023-07-31_17h08.12.163,arm3_q,2022.2.5,Win32,62.5,5fd391f111059f000ac10cde,64c5699dae067f1f1081742c,64c7cde22b91682cd61606e2,right,-1,0.3071,0.35,10,-0.012834183,0.216,,,,,,174,0,174,0,1,,,,,
,,698451,001,2023-07-31_17h08.12.163,arm3_q,2022.2.5,Win32,62.5,5fd391f111059f000ac10cde,64c5699dae067f1f1081742c,64c7cde22b91682cd61606e2,right,-1,0.3071,0.35,10,-0.025897968,0.16,,,,,,175,0,175,0,1,,,,,
,,698451,001,2023-07-31_17h08.12.163,arm3_q,2022.2.5,Win32,62.5,5fd391f111059f000ac10cde,64c5699dae067f1f1081742c,64c7cde22b91682cd61606e2,right,-1,0.3071,0.35,10,-0.026185406,0.184,,,,,,176,0,176,0,1,,,,,
,,698451,001,2023-07-31_17h08.12.163,arm3_q,2022.2.5,Win32,62.5,5fd391f111059f000ac10cde,64c5699dae067f1f1081742c,64c7cde22b91682cd61606e2,right,-1,0.3071,0.35,10,-0.059531598,0.254,,,,,,177,0,177,0,1,,,,,
,,698451,001,2023-07-31_17h08.12.163,arm3_q,2022.2.5,Win32,62.5,5fd391f111059f000ac10cde,64c5699dae067f1f1081742c,64c7cde22b91682cd61606e2,right,-1,0.3071,0.35,10,-0.035936248,0.365,,,,,,178,0,178,0,1,,,,,
,,698451,001,2023-07-31_17h08.12.163,arm3_q,2022.2.5,Win32,62.5,5fd391f111059f000ac10cde,64c5699dae067f1f1081742c,64c7cde22b91682cd61606e2,right,-1,0.3071,0.35,10,-0.049015273,0.346,,,,,,179,0,179,0,1,,,,,
,,698451,001,2023-07-31_17h08.12.163,arm3_q,2022.2.5,Win32,62.5,5fd391f111059f000ac10cde,64c5699dae067f1f1081742c,64c7cde22b91682cd61606e2,right,-1,0.3071,0.35,10,-0.037326909,0.331,,,,,,180,0,180,0,1,,,,,
,,698451,001,2023-07-31_17h08.12.163,arm3_q,2022.2.5,Win32,62.5,5fd391f111059f000ac10cde,64c5699dae067f1f1081742c,64c7cde22b91682cd61606e2,right,-1,0.3071,0.35,10,-0.023631561,0.333,,,,,,181,0,181,0,1,,,,,
,,698451,001,2023-07-31_17h08.12.163,arm3_q,2022.2.5,Win32,62.5,5fd391f111059f000ac10cde,64c5699dae067f1f1081742c,64c7cde22b91682cd61606e2,right,-1,0.3071,0.35,10,-0.015571332,0.381,,,,,,182,0,182,0,1,,,,,
,,698451,001,2023-07-31_17h08.12.163,arm3_q,2022.2.5,Win32,62.5,5fd391f111059f000ac10cde,64c5699dae067f1f1081742c,64c7cde22b91682cd61606e2,right,-1,0.3071,0.35,10,-0.001063681,0.47,,,,,,183,0,183,0,1,,,,,
,,698451,001,2023-07-31_17h08.12.163,arm3_q,2022.2.5,Win32,62.5,5fd391f111059f000ac10cde,64c5699dae067f1f1081742c,64c7cde22b91682cd61606e2,right,-1,0.3071,0.35,10,-0.000823546,0.445,,,,,,184,0,184,0,1,,,,,
,,698451,001,2023-07-31_17h08.12.163,arm3_q,2022.2.5,Win32,62.5,5fd391f111059f000ac10cde,64c5699dae067f1f1081742c,64c7cde22b91682cd61606e2,down,-1,0.3071,0.35,10,0,1.101,,,,,,185,0,185,0,1,,,,,
,,698451,001,2023-07-31_17h08.12.163,arm3_q,2022.2.5,Win32,62.5,5fd391f111059f000ac10cde,64c5699dae067f1f1081742c,64c7cde22b91682cd61606e2,right,-1,0.3071,0.35,10,-0.002193408,1.392,,,,,,186,0,186,0,1,,,,,
,,698451,001,2023-07-31_17h08.12.163,arm3_q,2022.2.5,Win32,62.5,5fd391f111059f000ac10cde,64c5699dae067f1f1081742c,64c7cde22b91682cd61606e2,right,-1,0.3071,0.35,10,-0.027194224,0.515,,,,,,187,0,187,0,1,,,,,
,,698451,001,2023-07-31_17h08.12.163,arm3_q,2022.2.5,Win32,62.5,5fd391f111059f000ac10cde,64c5699dae067f1f1081742c,64c7cde22b91682cd61606e2,right,-1,0.3071,0.35,10,-0.037123153,0.296,,,,,,188,0,188,0,1,,,,,
,,698451,001,2023-07-31_17h08.12.163,arm3_q,2022.2.5,Win32,62.5,5fd391f111059f000ac10cde,64c5699dae067f1f1081742c,64c7cde22b91682cd61606e2,right,-1,0.3071,0.35,10,-0.009333236,0.353,,,,,,189,0,189,0,1,,,,,
,,698451,001,2023-07-31_17h08.12.163,arm3_q,2022.2.5,Win32,62.5,5fd391f111059f000ac10cde,64c5699dae067f1f1081742c,64c7cde22b91682cd61606e2,right,-1,0.3071,0.35,10,0.006428227,0.335,,,,,,190,0,190,0,1,,,,,
,,698451,001,2023-07-31_17h08.12.163,arm3_q,2022.2.5,Win32,62.5,5fd391f111059f000ac10cde,64c5699dae067f1f1081742c,64c7cde22b91682cd61606e2,right,-1,0.3071,0.35,10,-0.01444963,0.398,,,,,,191,0,191,0,1,,,,,
,,698451,001,2023-07-31_17h08.12.163,arm3_q,2022.2.5,Win32,62.5,5fd391f111059f000ac10cde,64c5699dae067f1f1081742c,64c7cde22b91682cd61606e2,right,-1,0.3071,0.35,10,-0.003389712,0.333,,,,,,192,0,192,0,1,,,,,
,,698451,001,2023-07-31_17h08.12.163,arm3_q,2022.2.5,Win32,62.5,5fd391f111059f000ac10cde,64c5699dae067f1f1081742c,64c7cde22b91682cd61606e2,right,-1,0.3071,0.35,10,-0.013592873,0.279,,,,,,193,0,193,0,1,,,,,
,,698451,001,2023-07-31_17h08.12.163,arm3_q,2022.2.5,Win32,62.5,5fd391f111059f000ac10cde,64c5699dae067f1f1081742c,64c7cde22b91682cd61606e2,right,-1,0.3071,0.35,10,-0.040837471,0.155,,,,,,194,0,194,0,1,,,,,
,,698451,001,2023-07-31_17h08.12.163,arm3_q,2022.2.5,Win32,62.5,5fd391f111059f000ac10cde,64c5699dae067f1f1081742c,64c7cde22b91682cd61606e2,right,-1,0.3071,0.35,10,-0.078705461,0.156,,,,,,195,0,195,0,1,,,,,
,,698451,001,2023-07-31_17h08.12.163,arm3_q,2022.2.5,Win32,62.5,5fd391f111059f000ac10cde,64c5699dae067f1f1081742c,64c7cde22b91682cd61606e2,right,-1,0.3071,0.35,10,-0.087881062,0.18,,,,,,196,0,196,0,1,,,,,
,,698451,001,2023-07-31_17h08.12.163,arm3_q,2022.2.5,Win32,62.5,5fd391f111059f000ac10cde,64c5699dae067f1f1081742c,64c7cde22b91682cd61606e2,down,-1,0.3071,0.35,10,0,0.831,,,,,,197,0,197,0,1,,,,,
,,698451,001,2023-07-31_17h08.12.163,arm3_q,2022.2.5,Win32,62.5,5fd391f111059f000ac10cde,64c5699dae067f1f1081742c,64c7cde22b91682cd61606e2,right,-1,0.3071,0.35,10,-0.021209628,1.337,,,,,,198,0,198,0,1,,,,,
,,698451,001,2023-07-31_17h08.12.163,arm3_q,2022.2.5,Win32,62.5,5fd391f111059f000ac10cde,64c5699dae067f1f1081742c,64c7cde22b91682cd61606e2,right,-1,0.3071,0.35,10,-0.010351637,0.198,,,,,,199,0,199,0,1,,,,,
,,698451,001,2023-07-31_17h08.12.163,arm3_q,2022.2.5,Win32,62.5,5fd391f111059f000ac10cde,64c5699dae067f1f1081742c,64c7cde22b91682cd61606e2,right,-1,0.3071,0.35,10,0.005352625,0.153,,,,,,200,0,200,0,1,,,,,
,,698451,001,2023-07-31_17h08.12.163,arm3_q,2022.2.5,Win32,62.5,5fd391f111059f000ac10cde,64c5699dae067f1f1081742c,64c7cde22b91682cd61606e2,right,-1,0.3071,0.35,10,0.0166175,0.281,,,,,,201,0,201,0,1,,,,,
,,698451,001,2023-07-31_17h08.12.163,arm3_q,2022.2.5,Win32,62.5,5fd391f111059f000ac10cde,64c5699dae067f1f1081742c,64c7cde22b91682cd61606e2,right,-1,0.3071,0.35,10,0.002233981,0.331,,,,,,202,0,202,0,1,,,,,
,,698451,001,2023-07-31_17h08.12.163,arm3_q,2022.2.5,Win32,62.5,5fd391f111059f000ac10cde,64c5699dae067f1f1081742c,64c7cde22b91682cd61606e2,right,-1,0.3071,0.35,10,-0.038071531,0.148,,,,,,203,0,203,0,1,,,,,
,,698451,001,2023-07-31_17h08.12.163,arm3_q,2022.2.5,Win32,62.5,5fd391f111059f000ac10cde,64c5699dae067f1f1081742c,64c7cde22b91682cd61606e2,right,-1,0.3071,0.35,10,-0.07726827,0.247,,,,,,204,0,204,0,1,,,,,
,,698451,001,2023-07-31_17h08.12.163,arm3_q,2022.2.5,Win32,62.5,5fd391f111059f000ac10cde,64c5699dae067f1f1081742c,64c7cde22b91682cd61606e2,right,-1,0.3071,0.35,10,-0.082139284,0.399,,,,,,205,0,205,0,1,,,,,
,,698451,001,2023-07-31_17h08.12.163,arm3_q,2022.2.5,Win32,62.5,5fd391f111059f000ac10cde,64c5699dae067f1f1081742c,64c7cde22b91682cd61606e2,right,-1,0.3071,0.35,10,-0.107047489,0.321,,,,,,206,0,206,0,1,,,,,
,,698451,001,2023-07-31_17h08.12.163,arm3_q,2022.2.5,Win32,62.5,5fd391f111059f000ac10cde,64c5699dae067f1f1081742c,64c7cde22b91682cd61606e2,right,-1,0.3071,0.35,10,-0.088872271,0.397,,,,,,207,0,207,0,1,,,,,
,,698451,001,2023-07-31_17h08.12.163,arm3_q,2022.2.5,Win32,62.5,5fd391f111059f000ac10cde,64c5699dae067f1f1081742c,64c7cde22b91682cd61606e2,down,-1,0.3071,0.35,10,0,0.368,,,,,,208,0,208,0,1,,,,,
,,698451,001,2023-07-31_17h08.12.163,arm3_q,2022.2.5,Win32,62.5,5fd391f111059f000ac10cde,64c5699dae067f1f1081742c,64c7cde22b91682cd61606e2,right,-1,0.3071,0.35,10,-0.016698437,1.043,,,,,,209,0,209,0,1,,,,,
,,698451,001,2023-07-31_17h08.12.163,arm3_q,2022.2.5,Win32,62.5,5fd391f111059f000ac10cde,64c5699dae067f1f1081742c,64c7cde22b91682cd61606e2,right,-1,0.3071,0.35,10,-0.05530458,0.147,,,,,,210,0,210,0,1,,,,,
,,698451,001,2023-07-31_17h08.12.163,arm3_q,2022.2.5,Win32,62.5,5fd391f111059f000ac10cde,64c5699dae067f1f1081742c,64c7cde22b91682cd61606e2,right,-1,0.3071,0.35,10,-0.058869505,0.134,,,,,,211,0,211,0,1,,,,,
,,698451,001,2023-07-31_17h08.12.163,arm3_q,2022.2.5,Win32,62.5,5fd391f111059f000ac10cde,64c5699dae067f1f1081742c,64c7cde22b91682cd61606e2,right,-1,0.3071,0.35,10,-0.071207703,0.148,,,,,,212,0,212,0,1,,,,,
,,698451,001,2023-07-31_17h08.12.163,arm3_q,2022.2.5,Win32,62.5,5fd391f111059f000ac10cde,64c5699dae067f1f1081742c,64c7cde22b91682cd61606e2,right,-1,0.3071,0.35,10,-0.05150467,0.132,,,,,,213,0,213,0,1,,,,,
,,698451,001,2023-07-31_17h08.12.163,arm3_q,2022.2.5,Win32,62.5,5fd391f111059f000ac10cde,64c5699dae067f1f1081742c,64c7cde22b91682cd61606e2,right,-1,0.3071,0.35,10,-0.076049393,0.138,,,,,,214,0,214,0,1,,,,,
,,698451,001,2023-07-31_17h08.12.163,arm3_q,2022.2.5,Win32,62.5,5fd391f111059f000ac10cde,64c5699dae067f1f1081742c,64c7cde22b91682cd61606e2,right,-1,0.3071,0.35,10,-0.075832167,0.15,,,,,,215,0,215,0,1,,,,,
,,698451,001,2023-07-31_17h08.12.163,arm3_q,2022.2.5,Win32,62.5,5fd391f111059f000ac10cde,64c5699dae067f1f1081742c,64c7cde22b91682cd61606e2,right,-1,0.3071,0.35,10,-0.098244934,0.332,,,,,,216,0,216,0,1,,,,,
,,698451,001,2023-07-31_17h08.12.163,arm3_q,2022.2.5,Win32,62.5,5fd391f111059f000ac10cde,64c5699dae067f1f1081742c,64c7cde22b91682cd61606e2,right,-1,0.3071,0.35,10,-0.102732138,0.339,,,,,,217,0,217,0,1,,,,,
,,698451,001,2023-07-31_17h08.12.163,arm3_q,2022.2.5,Win32,62.5,5fd391f111059f000ac10cde,64c5699dae067f1f1081742c,64c7cde22b91682cd61606e2,down,1,0.3071,0.35,10,0,0.317,,,,,,218,0,218,0,1,,,,,
,,698451,001,2023-07-31_17h08.12.163,arm3_q,2022.2.5,Win32,62.5,5fd391f111059f000ac10cde,64c5699dae067f1f1081742c,64c7cde22b91682cd61606e2,right,1,0.3071,0.35,10,0.011944967,1.126,,,,,,219,0,219,0,1,,,,,
,,698451,001,2023-07-31_17h08.12.163,arm3_q,2022.2.5,Win32,62.5,5fd391f111059f000ac10cde,64c5699dae067f1f1081742c,64c7cde22b91682cd61606e2,right,1,0.3071,0.35,10,0.034724203,0.15,,,,,,220,0,220,0,1,,,,,
,,698451,001,2023-07-31_17h08.12.163,arm3_q,2022.2.5,Win32,62.5,5fd391f111059f000ac10cde,64c5699dae067f1f1081742c,64c7cde22b91682cd61606e2,right,1,0.3071,0.35,10,0.038444647,0.152,,,,,,221,0,221,0,1,,,,,
,,698451,001,2023-07-31_17h08.12.163,arm3_q,2022.2.5,Win32,62.5,5fd391f111059f000ac10cde,64c5699dae067f1f1081742c,64c7cde22b91682cd61606e2,right,1,0.3071,0.35,10,0.040019362,0.147,,,,,,222,0,222,0,1,,,,,
,,698451,001,2023-07-31_17h08.12.163,arm3_q,2022.2.5,Win32,62.5,5fd391f111059f000ac10cde,64c5699dae067f1f1081742c,64c7cde22b91682cd61606e2,right,1,0.3071,0.35,10,0.031916962,0.137,,,,,,223,0,223,0,1,,,,,
,,698451,001,2023-07-31_17h08.12.163,arm3_q,2022.2.5,Win32,62.5,5fd391f111059f000ac10cde,64c5699dae067f1f1081742c,64c7cde22b91682cd61606e2,right,1,0.3071,0.35,10,0.063196795,0.149,,,,,,224,0,224,0,1,,,,,
,,698451,001,2023-07-31_17h08.12.163,arm3_q,2022.2.5,Win32,62.5,5fd391f111059f000ac10cde,64c5699dae067f1f1081742c,64c7cde22b91682cd61606e2,right,1,0.3071,0.35,10,0.060224881,0.155,,,,,,225,0,225,0,1,,,,,
,,698451,001,2023-07-31_17h08.12.163,arm3_q,2022.2.5,Win32,62.5,5fd391f111059f000ac10cde,64c5699dae067f1f1081742c,64c7cde22b91682cd61606e2,right,1,0.3071,0.35,10,0.052171805,0.347,,,,,,226,0,226,0,1,,,,,
,,698451,001,2023-07-31_17h08.12.163,arm3_q,2022.2.5,Win32,62.5,5fd391f111059f000ac10cde,64c5699dae067f1f1081742c,64c7cde22b91682cd61606e2,right,1,0.3071,0.35,10,0.069350562,0.297,,,,,,227,0,227,0,1,,,,,
,,698451,001,2023-07-31_17h08.12.163,arm3_q,2022.2.5,Win32,62.5,5fd391f111059f000ac10cde,64c5699dae067f1f1081742c,64c7cde22b91682cd61606e2,right,1,0.3071,0.35,10,0.051701862,0.382,,,,,,228,0,228,0,1,,,,,
,,698451,001,2023-07-31_17h08.12.163,arm3_q,2022.2.5,Win32,62.5,5fd391f111059f000ac10cde,64c5699dae067f1f1081742c,64c7cde22b91682cd61606e2,right,1,0.3071,0.35,10,0.02948498,0.513,,,,,,229,0,229,0,1,,,,,
,,698451,001,2023-07-31_17h08.12.163,arm3_q,2022.2.5,Win32,62.5,5fd391f111059f000ac10cde,64c5699dae067f1f1081742c,64c7cde22b91682cd61606e2,right,1,0.3071,0.35,10,0.016074654,1.331,,,,,,230,0,230,0,1,,,,,
,,698451,001,2023-07-31_17h08.12.163,arm3_q,2022.2.5,Win32,62.5,5fd391f111059f000ac10cde,64c5699dae067f1f1081742c,64c7cde22b91682cd61606e2,up,1,0.3071,0.35,10,0,1.119,,,,,,231,0,231,0,1,,,,,
,,698451,001,2023-07-31_17h08.12.163,arm3_q,2022.2.5,Win32,62.5,5fd391f111059f000ac10cde,64c5699dae067f1f1081742c,64c7cde22b91682cd61606e2,right,1,0.3071,0.35,10,0.015181356,1.392,,,,,,232,0,232,0,1,,,,,
,,698451,001,2023-07-31_17h08.12.163,arm3_q,2022.2.5,Win32,62.5,5fd391f111059f000ac10cde,64c5699dae067f1f1081742c,64c7cde22b91682cd61606e2,right,1,0.3071,0.35,10,0.023467034,0.182,,,,,,233,0,233,0,1,,,,,
,,698451,001,2023-07-31_17h08.12.163,arm3_q,2022.2.5,Win32,62.5,5fd391f111059f000ac10cde,64c5699dae067f1f1081742c,64c7cde22b91682cd61606e2,right,1,0.3071,0.35,10,0.048164046,0.15,,,,,,234,0,234,0,1,,,,,
,,698451,001,2023-07-31_17h08.12.163,arm3_q,2022.2.5,Win32,62.5,5fd391f111059f000ac10cde,64c5699dae067f1f1081742c,64c7cde22b91682cd61606e2,right,1,0.3071,0.35,10,0.056897995,0.195,,,,,,235,0,235,0,1,,,,,
,,698451,001,2023-07-31_17h08.12.163,arm3_q,2022.2.5,Win32,62.5,5fd391f111059f000ac10cde,64c5699dae067f1f1081742c,64c7cde22b91682cd61606e2,right,1,0.3071,0.35,10,0.061786148,0.151,,,,,,236,0,236,0,1,,,,,
,,698451,001,2023-07-31_17h08.12.163,arm3_q,2022.2.5,Win32,62.5,5fd391f111059f000ac10cde,64c5699dae067f1f1081742c,64c7cde22b91682cd61606e2,right,1,0.3071,0.35,10,0.070502413,0.134,,,,,,237,0,237,0,1,,,,,
,,698451,001,2023-07-31_17h08.12.163,arm3_q,2022.2.5,Win32,62.5,5fd391f111059f000ac10cde,64c5699dae067f1f1081742c,64c7cde22b91682cd61606e2,right,1,0.3071,0.35,10,0.103246853,0.133,,,,,,238,0,238,0,1,,,,,
,,698451,001,2023-07-31_17h08.12.163,arm3_q,2022.2.5,Win32,62.5,5fd391f111059f000ac10cde,64c5699dae067f1f1081742c,64c7cde22b91682cd61606e2,right,1,0.3071,0.35,10,0.136750826,0.069,,,,,,239,0,239,0,1,,,,,
,,698451,001,2023-07-31_17h08.12.163,arm3_q,2022.2.5,Win32,62.5,5fd391f111059f000ac10cde,64c5699dae067f1f1081742c,64c7cde22b91682cd61606e2,right,1,0.3071,0.35,10,0.144790019,0.115,,,,,,240,0,240,0,1,,,,,
,,698451,001,2023-07-31_17h08.12.163,arm3_q,2022.2.5,Win32,62.5,5fd391f111059f000ac10cde,64c5699dae067f1f1081742c,64c7cde22b91682cd61606e2,right,1,0.3071,0.35,10,0.147713805,0.418,,,,,,241,0,241,0,1,,,,,
,,698451,001,2023-07-31_17h08.12.163,arm3_q,2022.2.5,Win32,62.5,5fd391f111059f000ac10cde,64c5699dae067f1f1081742c,64c7cde22b91682cd61606e2,up,-1,0.3071,0.35,10,0,0.569,,,,,,242,0,242,0,1,,,,,
,,698451,001,2023-07-31_17h08.12.163,arm3_q,2022.2.5,Win32,62.5,5fd391f111059f000ac10cde,64c5699dae067f1f1081742c,64c7cde22b91682cd61606e2,right,-1,0.3071,0.35,10,-0.039774029,1.219,,,,,,243,0,243,0,1,,,,,
,,698451,001,2023-07-31_17h08.12.163,arm3_q,2022.2.5,Win32,62.5,5fd391f111059f000ac10cde,64c5699dae067f1f1081742c,64c7cde22b91682cd61606e2,right,-1,0.3071,0.35,10,-0.061052716,0.131,,,,,,244,0,244,0,1,,,,,
,,698451,001,2023-07-31_17h08.12.163,arm3_q,2022.2.5,Win32,62.5,5fd391f111059f000ac10cde,64c5699dae067f1f1081742c,64c7cde22b91682cd61606e2,right,-1,0.3071,0.35,10,-0.051619294,0.117,,,,,,245,0,245,0,1,,,,,
,,698451,001,2023-07-31_17h08.12.163,arm3_q,2022.2.5,Win32,62.5,5fd391f111059f000ac10cde,64c5699dae067f1f1081742c,64c7cde22b91682cd61606e2,right,-1,0.3071,0.35,10,-0.06360854,0.155,,,,,,246,0,246,0,1,,,,,
,,698451,001,2023-07-31_17h08.12.163,arm3_q,2022.2.5,Win32,62.5,5fd391f111059f000ac10cde,64c5699dae067f1f1081742c,64c7cde22b91682cd61606e2,right,-1,0.3071,0.35,10,-0.079295612,0.452,,,,,,247,0,247,0,1,,,,,
,,698451,001,2023-07-31_17h08.12.163,arm3_q,2022.2.5,Win32,62.5,5fd391f111059f000ac10cde,64c5699dae067f1f1081742c,64c7cde22b91682cd61606e2,down,-1,0.3071,0.35,11,0,0.297,,,,,,248,0,248,0,1,,,,,
,,698451,001,2023-07-31_17h08.12.163,arm3_q,2022.2.5,Win32,62.5,5fd391f111059f000ac10cde,64c5699dae067f1f1081742c,64c7cde22b91682cd61606e2,right,-1,0.3071,0.35,11,-0.040308893,1.342,,,,,,249,0,249,0,1,,,,,
,,698451,001,2023-07-31_17h08.12.163,arm3_q,2022.2.5,Win32,62.5,5fd391f111059f000ac10cde,64c5699dae067f1f1081742c,64c7cde22b91682cd61606e2,right,-1,0.3071,0.35,11,-0.0444505,0.132,,,,,,250,0,250,0,1,,,,,
,,698451,001,2023-07-31_17h08.12.163,arm3_q,2022.2.5,Win32,62.5,5fd391f111059f000ac10cde,64c5699dae067f1f1081742c,64c7cde22b91682cd61606e2,right,-1,0.3071,0.35,11,-0.073341088,0.153,,,,,,251,0,251,0,1,,,,,
,,698451,001,2023-07-31_17h08.12.163,arm3_q,2022.2.5,Win32,62.5,5fd391f111059f000ac10cde,64c5699dae067f1f1081742c,64c7cde22b91682cd61606e2,right,-1,0.3071,0.35,11,-0.061751449,0.382,,,,,,252,0,252,0,1,,,,,
,,698451,001,2023-07-31_17h08.12.163,arm3_q,2022.2.5,Win32,62.5,5fd391f111059f000ac10cde,64c5699dae067f1f1081742c,64c7cde22b91682cd61606e2,down,1,0.3071,0.35,11,0,0.581,,,,,,253,0,253,0,1,,,,,
,,698451,001,2023-07-31_17h08.12.163,arm3_q,2022.2.5,Win32,62.5,5fd391f111059f000ac10cde,64c5699dae067f1f1081742c,64c7cde22b91682cd61606e2,right,1,0.3071,0.35,11,0.029190835,1.331,,,,,,254,0,254,0,1,,,,,
,,698451,001,2023-07-31_17h08.12.163,arm3_q,2022.2.5,Win32,62.5,5fd391f111059f000ac10cde,64c5699dae067f1f1081742c,64c7cde22b91682cd61606e2,right,1,0.3071,0.35,11,0.037966901,0.321,,,,,,255,0,255,0,1,,,,,
,,698451,001,2023-07-31_17h08.12.163,arm3_q,2022.2.5,Win32,62.5,5fd391f111059f000ac10cde,64c5699dae067f1f1081742c,64c7cde22b91682cd61606e2,right,1,0.3071,0.35,11,0.021766554,0.302,,,,,,256,0,256,0,1,,,,,
,,698451,001,2023-07-31_17h08.12.163,arm3_q,2022.2.5,Win32,62.5,5fd391f111059f000ac10cde,64c5699dae067f1f1081742c,64c7cde22b91682cd61606e2,right,1,0.3071,0.35,11,0.046772869,0.331,,,,,,257,0,257,0,1,,,,,
,,698451,001,2023-07-31_17h08.12.163,arm3_q,2022.2.5,Win32,62.5,5fd391f111059f000ac10cde,64c5699dae067f1f1081742c,64c7cde22b91682cd61606e2,right,1,0.3071,0.35,11,0.028508088,0.33,,,,,,258,0,258,0,1,,,,,
,,698451,001,2023-07-31_17h08.12.163,arm3_q,2022.2.5,Win32,62.5,5fd391f111059f000ac10cde,64c5699dae067f1f1081742c,64c7cde22b91682cd61606e2,right,1,0.3071,0.35,11,0.046012919,0.372,,,,,,259,0,259,0,1,,,,,
,,698451,001,2023-07-31_17h08.12.163,arm3_q,2022.2.5,Win32,62.5,5fd391f111059f000ac10cde,64c5699dae067f1f1081742c,64c7cde22b91682cd61606e2,up,-1,0.3071,0.35,11,0,0.58,,,,,,260,0,260,0,1,,,,,
,,698451,001,2023-07-31_17h08.12.163,arm3_q,2022.2.5,Win32,62.5,5fd391f111059f000ac10cde,64c5699dae067f1f1081742c,64c7cde22b91682cd61606e2,right,-1,0.3071,0.35,11,-0.008331299,1.176,,,,,,261,0,261,0,1,,,,,
,,698451,001,2023-07-31_17h08.12.163,arm3_q,2022.2.5,Win32,62.5,5fd391f111059f000ac10cde,64c5699dae067f1f1081742c,64c7cde22b91682cd61606e2,right,-1,0.3071,0.35,11,-0.023425077,0.33,,,,,,262,0,262,0,1,,,,,
,,698451,001,2023-07-31_17h08.12.163,arm3_q,2022.2.5,Win32,62.5,5fd391f111059f000ac10cde,64c5699dae067f1f1081742c,64c7cde22b91682cd61606e2,right,-1,0.3071,0.35,11,-0.026196448,0.283,,,,,,263,0,263,0,1,,,,,
,,698451,001,2023-07-31_17h08.12.163,arm3_q,2022.2.5,Win32,62.5,5fd391f111059f000ac10cde,64c5699dae067f1f1081742c,64c7cde22b91682cd61606e2,right,-1,0.3071,0.35,11,-0.068342432,0.284,,,,,,264,0,264,0,1,,,,,
,,698451,001,2023-07-31_17h08.12.163,arm3_q,2022.2.5,Win32,62.5,5fd391f111059f000ac10cde,64c5699dae067f1f1081742c,64c7cde22b91682cd61606e2,right,-1,0.3071,0.35,11,-0.075108023,0.25,,,,,,265,0,265,0,1,,,,,
,,698451,001,2023-07-31_17h08.12.163,arm3_q,2022.2.5,Win32,62.5,5fd391f111059f000ac10cde,64c5699dae067f1f1081742c,64c7cde22b91682cd61606e2,right,-1,0.3071,0.35,11,-0.081764703,0.317,,,,,,266,0,266,0,1,,,,,
,,698451,001,2023-07-31_17h08.12.163,arm3_q,2022.2.5,Win32,62.5,5fd391f111059f000ac10cde,64c5699dae067f1f1081742c,64c7cde22b91682cd61606e2,down,-1,0.3071,0.35,12,0,0.263,,,,,,267,0,267,0,1,,,,,
,,698451,001,2023-07-31_17h08.12.163,arm3_q,2022.2.5,Win32,62.5,5fd391f111059f000ac10cde,64c5699dae067f1f1081742c,64c7cde22b91682cd61606e2,right,-1,0.3071,0.35,12,0.006497574,1.636,,,,,,268,0,268,0,1,,,,,
,,698451,001,2023-07-31_17h08.12.163,arm3_q,2022.2.5,Win32,62.5,5fd391f111059f000ac10cde,64c5699dae067f1f1081742c,64c7cde22b91682cd61606e2,right,-1,0.3071,0.35,12,0.003857785,0.447,,,,,,269,0,269,0,1,,,,,
,,698451,001,2023-07-31_17h08.12.163,arm3_q,2022.2.5,Win32,62.5,5fd391f111059f000ac10cde,64c5699dae067f1f1081742c,64c7cde22b91682cd61606e2,right,-1,0.3071,0.35,12,0.01501343,0.282,,,,,,270,0,270,0,1,,,,,
,,698451,001,2023-07-31_17h08.12.163,arm3_q,2022.2.5,Win32,62.5,5fd391f111059f000ac10cde,64c5699dae067f1f1081742c,64c7cde22b91682cd61606e2,right,-1,0.3071,0.35,12,-0.009468409,0.235,,,,,,271,0,271,0,1,,,,,
,,698451,001,2023-07-31_17h08.12.163,arm3_q,2022.2.5,Win32,62.5,5fd391f111059f000ac10cde,64c5699dae067f1f1081742c,64c7cde22b91682cd61606e2,right,-1,0.3071,0.35,12,-0.002488179,0.28,,,,,,272,0,272,0,1,,,,,
,,698451,001,2023-07-31_17h08.12.163,arm3_q,2022.2.5,Win32,62.5,5fd391f111059f000ac10cde,64c5699dae067f1f1081742c,64c7cde22b91682cd61606e2,right,-1,0.3071,0.35,12,-0.0075338,0.285,,,,,,273,0,273,0,1,,,,,
,,698451,001,2023-07-31_17h08.12.163,arm3_q,2022.2.5,Win32,62.5,5fd391f111059f000ac10cde,64c5699dae067f1f1081742c,64c7cde22b91682cd61606e2,right,-1,0.3071,0.35,12,0.003269467,0.681,,,,,,274,0,274,0,1,,,,,
,,698451,001,2023-07-31_17h08.12.163,arm3_q,2022.2.5,Win32,62.5,5fd391f111059f000ac10cde,64c5699dae067f1f1081742c,64c7cde22b91682cd61606e2,right,-1,0.3071,0.35,12,0.012098775,0.35,,,,,,275,0,275,0,1,,,,,
,,698451,001,2023-07-31_17h08.12.163,arm3_q,2022.2.5,Win32,62.5,5fd391f111059f000ac10cde,64c5699dae067f1f1081742c,64c7cde22b91682cd61606e2,right,-1,0.3071,0.35,12,-0.007316851,0.48,,,,,,276,0,276,0,1,,,,,
,,698451,001,2023-07-31_17h08.12.163,arm3_q,2022.2.5,Win32,62.5,5fd391f111059f000ac10cde,64c5699dae067f1f1081742c,64c7cde22b91682cd61606e2,right,-1,0.3071,0.35,12,-0.008468055,0.367,,,,,,277,0,277,0,1,,,,,
,,698451,001,2023-07-31_17h08.12.163,arm3_q,2022.2.5,Win32,62.5,5fd391f111059f000ac10cde,64c5699dae067f1f1081742c,64c7cde22b91682cd61606e2,right,-1,0.3071,0.35,12,-0.033490503,0.35,,,,,,278,0,278,0,1,,,,,
