space_bar.keys,space_bar.rt,participant,session,date,expName,psychopyVersion,OS,frameRate,PROLIFIC_PID,STUDY_ID,SESSION_ID,resp.keys,state,q_prob,eps_prob,score,price,resp.rt,train.thisRepN,train.thisTrialN,train.thisN,train.thisIndex,train.ran,steps.thisRepN,steps.thisTrialN,steps.thisN,steps.thisIndex,steps.ran,blocks.thisRepN,blocks.thisTrialN,blocks.thisN,blocks.thisIndex,blocks.ran
space,35.0484,007485,001,2023-07-24_19h58.26.370,arm3_q,2022.2.5,Win32,6.002617141,5baba8dbc1155b0001174533,64aeaab685a29f4ca249be02,64bec9c519ee64e50445de58,,,,,,,,,,,,,,,,,,,,,,
space,14.4871,007485,001,2023-07-24_19h58.26.370,arm3_q,2022.2.5,Win32,6.002617141,5baba8dbc1155b0001174533,64aeaab685a29f4ca249be02,64bec9c519ee64e50445de58,,,,,,,,,,,,,,,,,,,,,,
space,7.337,007485,001,2023-07-24_19h58.26.370,arm3_q,2022.2.5,Win32,6.002617141,5baba8dbc1155b0001174533,64aeaab685a29f4ca249be02,64bec9c519ee64e50445de58,,,,,,,,,,,,,,,,,,,,,,
space,6.3926,007485,001,2023-07-24_19h58.26.370,arm3_q,2022.2.5,Win32,6.002617141,5baba8dbc1155b0001174533,64aeaab685a29f4ca249be02,64bec9c519ee64e50445de58,,,,,,,,,,,,,,,,,,,,,,
space,14.3285,007485,001,2023-07-24_19h58.26.370,arm3_q,2022.2.5,Win32,6.002617141,5baba8dbc1155b0001174533,64aeaab685a29f4ca249be02,64bec9c519ee64e50445de58,,,,,,,,,,,,,,,,,,,,,,
space,17.6108,007485,001,2023-07-24_19h58.26.370,arm3_q,2022.2.5,Win32,6.002617141,5baba8dbc1155b0001174533,64aeaab685a29f4ca249be02,64bec9c519ee64e50445de58,,,,,,,,,,,,,,,,,,,,,,
space,13.6163,007485,001,2023-07-24_19h58.26.370,arm3_q,2022.2.5,Win32,6.002617141,5baba8dbc1155b0001174533,64aeaab685a29f4ca249be02,64bec9c519ee64e50445de58,,,,,,,,,,,,,,,,,,,,,,
space,10.8279,007485,001,2023-07-24_19h58.26.370,arm3_q,2022.2.5,Win32,6.002617141,5baba8dbc1155b0001174533,64aeaab685a29f4ca249be02,64bec9c519ee64e50445de58,,,,,,,,,,,,,,,,,,,,,,
space,8.1273,007485,001,2023-07-24_19h58.26.370,arm3_q,2022.2.5,Win32,6.002617141,5baba8dbc1155b0001174533,64aeaab685a29f4ca249be02,64bec9c519ee64e50445de58,,,,,,,,,,,,,,,,,,,,,,
space,2.3583,007485,001,2023-07-24_19h58.26.370,arm3_q,2022.2.5,Win32,6.002617141,5baba8dbc1155b0001174533,64aeaab685a29f4ca249be02,64bec9c519ee64e50445de58,,,,,,,,,,,,,,,,,,,,,,
,,007485,001,2023-07-24_19h58.26.370,arm3_q,2022.2.5,Win32,6.002617141,5baba8dbc1155b0001174533,64aeaab685a29f4ca249be02,64bec9c519ee64e50445de58,right,1,0.5643,0.35,0,0.023354489,3.6551,0,0,0,0,1,,,,,,,,,,
,,007485,001,2023-07-24_19h58.26.370,arm3_q,2022.2.5,Win32,6.002617141,5baba8dbc1155b0001174533,64aeaab685a29f4ca249be02,64bec9c519ee64e50445de58,right,1,0.5643,0.35,0,0.039580958,3.0527,1,0,1,0,1,,,,,,,,,,
,,007485,001,2023-07-24_19h58.26.370,arm3_q,2022.2.5,Win32,6.002617141,5baba8dbc1155b0001174533,64aeaab685a29f4ca249be02,64bec9c519ee64e50445de58,right,1,0.5643,0.35,0,0.061846249,1.1231,2,0,2,0,1,,,,,,,,,,
,,007485,001,2023-07-24_19h58.26.370,arm3_q,2022.2.5,Win32,6.002617141,5baba8dbc1155b0001174533,64aeaab685a29f4ca249be02,64bec9c519ee64e50445de58,up,1,0.5643,0.35,1,0,1.3064,3,0,3,0,1,,,,,,,,,,
,,007485,001,2023-07-24_19h58.26.370,arm3_q,2022.2.5,Win32,6.002617141,5baba8dbc1155b0001174533,64aeaab685a29f4ca249be02,64bec9c519ee64e50445de58,right,1,0.5643,0.35,1,-0.001579438,2.4798,4,0,4,0,1,,,,,,,,,,
,,007485,001,2023-07-24_19h58.26.370,arm3_q,2022.2.5,Win32,6.002617141,5baba8dbc1155b0001174533,64aeaab685a29f4ca249be02,64bec9c519ee64e50445de58,right,1,0.5643,0.35,1,0.026032555,0.9522,5,0,5,0,1,,,,,,,,,,
,,007485,001,2023-07-24_19h58.26.370,arm3_q,2022.2.5,Win32,6.002617141,5baba8dbc1155b0001174533,64aeaab685a29f4ca249be02,64bec9c519ee64e50445de58,down,-1,0.5643,0.35,0,0,4.7522,6,0,6,0,1,,,,,,,,,,
,,007485,001,2023-07-24_19h58.26.370,arm3_q,2022.2.5,Win32,6.002617141,5baba8dbc1155b0001174533,64aeaab685a29f4ca249be02,64bec9c519ee64e50445de58,right,-1,0.5643,0.35,0,-0.006409583,1.5555,7,0,7,0,1,,,,,,,,,,
,,007485,001,2023-07-24_19h58.26.370,arm3_q,2022.2.5,Win32,6.002617141,5baba8dbc1155b0001174533,64aeaab685a29f4ca249be02,64bec9c519ee64e50445de58,right,-1,0.5643,0.35,0,-0.028996891,0.5903,8,0,8,0,1,,,,,,,,,,
,,007485,001,2023-07-24_19h58.26.370,arm3_q,2022.2.5,Win32,6.002617141,5baba8dbc1155b0001174533,64aeaab685a29f4ca249be02,64bec9c519ee64e50445de58,right,-1,0.5643,0.35,0,-0.035530228,0.4058,9,0,9,0,1,,,,,,,,,,
,,007485,001,2023-07-24_19h58.26.370,arm3_q,2022.2.5,Win32,6.002617141,5baba8dbc1155b0001174533,64aeaab685a29f4ca249be02,64bec9c519ee64e50445de58,down,-1,0.5643,0.35,0,0,2.6456,10,0,10,0,1,,,,,,,,,,
,,007485,001,2023-07-24_19h58.26.370,arm3_q,2022.2.5,Win32,6.002617141,5baba8dbc1155b0001174533,64aeaab685a29f4ca249be02,64bec9c519ee64e50445de58,right,-1,0.5643,0.35,0,-0.018729525,2.4843,11,0,11,0,1,,,,,,,,,,
,,007485,001,2023-07-24_19h58.26.370,arm3_q,2022.2.5,Win32,6.002617141,5baba8dbc1155b0001174533,64aeaab685a29f4ca249be02,64bec9c519ee64e50445de58,right,-1,0.5643,0.35,0,-0.038695547,0.2038,12,0,12,0,1,,,,,,,,,,
,,007485,001,2023-07-24_19h58.26.370,arm3_q,2022.2.5,Win32,6.002617141,5baba8dbc1155b0001174533,64aeaab685a29f4ca249be02,64bec9c519ee64e50445de58,right,-1,0.5643,0.35,0,-0.003879515,0.8024,13,0,13,0,1,,,,,,,,,,
,,007485,001,2023-07-24_19h58.26.370,arm3_q,2022.2.5,Win32,6.002617141,5baba8dbc1155b0001174533,64aeaab685a29f4ca249be02,64bec9c519ee64e50445de58,right,-1,0.5643,0.35,0,-0.006782633,0.5771,14,0,14,0,1,,,,,,,,,,
,,007485,001,2023-07-24_19h58.26.370,arm3_q,2022.2.5,Win32,6.002617141,5baba8dbc1155b0001174533,64aeaab685a29f4ca249be02,64bec9c519ee64e50445de58,right,-1,0.5643,0.35,0,-0.000111992,0.5913,15,0,15,0,1,,,,,,,,,,
,,007485,001,2023-07-24_19h58.26.370,arm3_q,2022.2.5,Win32,6.002617141,5baba8dbc1155b0001174533,64aeaab685a29f4ca249be02,64bec9c519ee64e50445de58,down,-1,0.5643,0.35,0,0,0.9656,16,0,16,0,1,,,,,,,,,,
,,007485,001,2023-07-24_19h58.26.370,arm3_q,2022.2.5,Win32,6.002617141,5baba8dbc1155b0001174533,64aeaab685a29f4ca249be02,64bec9c519ee64e50445de58,right,-1,0.5643,0.35,0,-0.022835299,0.5833,17,0,17,0,1,,,,,,,,,,
,,007485,001,2023-07-24_19h58.26.370,arm3_q,2022.2.5,Win32,6.002617141,5baba8dbc1155b0001174533,64aeaab685a29f4ca249be02,64bec9c519ee64e50445de58,right,-1,0.5643,0.35,0,-0.048758996,0.5666,18,0,18,0,1,,,,,,,,,,
,,007485,001,2023-07-24_19h58.26.370,arm3_q,2022.2.5,Win32,6.002617141,5baba8dbc1155b0001174533,64aeaab685a29f4ca249be02,64bec9c519ee64e50445de58,right,-1,0.5643,0.35,0,-0.05736392,0.3881,19,0,19,0,1,,,,,,,,,,
,,007485,001,2023-07-24_19h58.26.370,arm3_q,2022.2.5,Win32,6.002617141,5baba8dbc1155b0001174533,64aeaab685a29f4ca249be02,64bec9c519ee64e50445de58,right,-1,0.5643,0.35,0,-0.078504377,0.5722,20,0,20,0,1,,,,,,,,,,
,,007485,001,2023-07-24_19h58.26.370,arm3_q,2022.2.5,Win32,6.002617141,5baba8dbc1155b0001174533,64aeaab685a29f4ca249be02,64bec9c519ee64e50445de58,down,1,0.5643,0.35,0,0,0.1829,21,0,21,0,1,,,,,,,,,,
,,007485,001,2023-07-24_19h58.26.370,arm3_q,2022.2.5,Win32,6.002617141,5baba8dbc1155b0001174533,64aeaab685a29f4ca249be02,64bec9c519ee64e50445de58,right,1,0.5643,0.35,0,0.016103143,0.3899,22,0,22,0,1,,,,,,,,,,
,,007485,001,2023-07-24_19h58.26.370,arm3_q,2022.2.5,Win32,6.002617141,5baba8dbc1155b0001174533,64aeaab685a29f4ca249be02,64bec9c519ee64e50445de58,down,1,0.5643,0.35,-1,0,0.5898,23,0,23,0,1,,,,,,,,,,
,,007485,001,2023-07-24_19h58.26.370,arm3_q,2022.2.5,Win32,6.002617141,5baba8dbc1155b0001174533,64aeaab685a29f4ca249be02,64bec9c519ee64e50445de58,right,1,0.5643,0.35,-1,0.00442016,1.1679,24,0,24,0,1,,,,,,,,,,
,,007485,001,2023-07-24_19h58.26.370,arm3_q,2022.2.5,Win32,6.002617141,5baba8dbc1155b0001174533,64aeaab685a29f4ca249be02,64bec9c519ee64e50445de58,right,1,0.5643,0.35,-1,0.006200516,0.1914,25,0,25,0,1,,,,,,,,,,
,,007485,001,2023-07-24_19h58.26.370,arm3_q,2022.2.5,Win32,6.002617141,5baba8dbc1155b0001174533,64aeaab685a29f4ca249be02,64bec9c519ee64e50445de58,right,1,0.5643,0.35,-1,0.03622666,0.4009,26,0,26,0,1,,,,,,,,,,
,,007485,001,2023-07-24_19h58.26.370,arm3_q,2022.2.5,Win32,6.002617141,5baba8dbc1155b0001174533,64aeaab685a29f4ca249be02,64bec9c519ee64e50445de58,up,1,0.5643,0.35,-1,0,0.2123,27,0,27,0,1,,,,,,,,,,
,,007485,001,2023-07-24_19h58.26.370,arm3_q,2022.2.5,Win32,6.002617141,5baba8dbc1155b0001174533,64aeaab685a29f4ca249be02,64bec9c519ee64e50445de58,right,1,0.5643,0.35,-1,0.004059969,1.134,28,0,28,0,1,,,,,,,,,,
,,007485,001,2023-07-24_19h58.26.370,arm3_q,2022.2.5,Win32,6.002617141,5baba8dbc1155b0001174533,64aeaab685a29f4ca249be02,64bec9c519ee64e50445de58,right,1,0.5643,0.35,-1,0.041267255,1.3373,29,0,29,0,1,,,,,,,,,,
,,007485,001,2023-07-24_19h58.26.370,arm3_q,2022.2.5,Win32,6.002617141,5baba8dbc1155b0001174533,64aeaab685a29f4ca249be02,64bec9c519ee64e50445de58,up,1,0.5643,0.35,-1,0,0.6096,30,0,30,0,1,,,,,,,,,,
,,007485,001,2023-07-24_19h58.26.370,arm3_q,2022.2.5,Win32,6.002617141,5baba8dbc1155b0001174533,64aeaab685a29f4ca249be02,64bec9c519ee64e50445de58,right,1,0.5643,0.35,-1,0.019528567,1.1398,31,0,31,0,1,,,,,,,,,,
,,007485,001,2023-07-24_19h58.26.370,arm3_q,2022.2.5,Win32,6.002617141,5baba8dbc1155b0001174533,64aeaab685a29f4ca249be02,64bec9c519ee64e50445de58,right,1,0.5643,0.35,-1,0.026018582,0.2079,32,0,32,0,1,,,,,,,,,,
,,007485,001,2023-07-24_19h58.26.370,arm3_q,2022.2.5,Win32,6.002617141,5baba8dbc1155b0001174533,64aeaab685a29f4ca249be02,64bec9c519ee64e50445de58,up,1,0.5643,0.35,0,0,0.5811,33,0,33,0,1,,,,,,,,,,
,,007485,001,2023-07-24_19h58.26.370,arm3_q,2022.2.5,Win32,6.002617141,5baba8dbc1155b0001174533,64aeaab685a29f4ca249be02,64bec9c519ee64e50445de58,right,1,0.5643,0.35,0,0.036993795,0.9515,34,0,34,0,1,,,,,,,,,,
,,007485,001,2023-07-24_19h58.26.370,arm3_q,2022.2.5,Win32,6.002617141,5baba8dbc1155b0001174533,64aeaab685a29f4ca249be02,64bec9c519ee64e50445de58,right,1,0.5643,0.35,0,0.046280167,0.0177,35,0,35,0,1,,,,,,,,,,
,,007485,001,2023-07-24_19h58.26.370,arm3_q,2022.2.5,Win32,6.002617141,5baba8dbc1155b0001174533,64aeaab685a29f4ca249be02,64bec9c519ee64e50445de58,down,1,0.5643,0.35,0,0,0.9506,36,0,36,0,1,,,,,,,,,,
,,007485,001,2023-07-24_19h58.26.370,arm3_q,2022.2.5,Win32,6.002617141,5baba8dbc1155b0001174533,64aeaab685a29f4ca249be02,64bec9c519ee64e50445de58,right,1,0.5643,0.35,0,-0.008860999,0.9737,37,0,37,0,1,,,,,,,,,,
,,007485,001,2023-07-24_19h58.26.370,arm3_q,2022.2.5,Win32,6.002617141,5baba8dbc1155b0001174533,64aeaab685a29f4ca249be02,64bec9c519ee64e50445de58,right,1,0.5643,0.35,0,0.005232463,0.2065,38,0,38,0,1,,,,,,,,,,
,,007485,001,2023-07-24_19h58.26.370,arm3_q,2022.2.5,Win32,6.002617141,5baba8dbc1155b0001174533,64aeaab685a29f4ca249be02,64bec9c519ee64e50445de58,right,1,0.5643,0.35,0,-0.000786783,0.7948,39,0,39,0,1,,,,,,,,,,
,,007485,001,2023-07-24_19h58.26.370,arm3_q,2022.2.5,Win32,6.002617141,5baba8dbc1155b0001174533,64aeaab685a29f4ca249be02,64bec9c519ee64e50445de58,up,1,0.5643,0.35,1,0,0.7757,40,0,40,0,1,,,,,,,,,,
,,007485,001,2023-07-24_19h58.26.370,arm3_q,2022.2.5,Win32,6.002617141,5baba8dbc1155b0001174533,64aeaab685a29f4ca249be02,64bec9c519ee64e50445de58,right,1,0.5643,0.35,1,0.0062204,1.1199,41,0,41,0,1,,,,,,,,,,
,,007485,001,2023-07-24_19h58.26.370,arm3_q,2022.2.5,Win32,6.002617141,5baba8dbc1155b0001174533,64aeaab685a29f4ca249be02,64bec9c519ee64e50445de58,right,1,0.5643,0.35,1,-0.011068659,0.2195,42,0,42,0,1,,,,,,,,,,
,,007485,001,2023-07-24_19h58.26.370,arm3_q,2022.2.5,Win32,6.002617141,5baba8dbc1155b0001174533,64aeaab685a29f4ca249be02,64bec9c519ee64e50445de58,down,-1,0.5643,0.35,0,0,0.9307,43,0,43,0,1,,,,,,,,,,
,,007485,001,2023-07-24_19h58.26.370,arm3_q,2022.2.5,Win32,6.002617141,5baba8dbc1155b0001174533,64aeaab685a29f4ca249be02,64bec9c519ee64e50445de58,right,-1,0.5643,0.35,0,-0.003298225,1.1401,44,0,44,0,1,,,,,,,,,,
,,007485,001,2023-07-24_19h58.26.370,arm3_q,2022.2.5,Win32,6.002617141,5baba8dbc1155b0001174533,64aeaab685a29f4ca249be02,64bec9c519ee64e50445de58,right,-1,0.5643,0.35,0,0.003657472,0.0096,45,0,45,0,1,,,,,,,,,,
,,007485,001,2023-07-24_19h58.26.370,arm3_q,2022.2.5,Win32,6.002617141,5baba8dbc1155b0001174533,64aeaab685a29f4ca249be02,64bec9c519ee64e50445de58,right,-1,0.5643,0.35,0,-0.01817785,0.5651,46,0,46,0,1,,,,,,,,,,
,,007485,001,2023-07-24_19h58.26.370,arm3_q,2022.2.5,Win32,6.002617141,5baba8dbc1155b0001174533,64aeaab685a29f4ca249be02,64bec9c519ee64e50445de58,down,1,0.5643,0.35,1,0,1.1585,47,0,47,0,1,,,,,,,,,,
,,007485,001,2023-07-24_19h58.26.370,arm3_q,2022.2.5,Win32,6.002617141,5baba8dbc1155b0001174533,64aeaab685a29f4ca249be02,64bec9c519ee64e50445de58,right,1,0.5643,0.35,1,-0.010089276,0.7534,48,0,48,0,1,,,,,,,,,,
,,007485,001,2023-07-24_19h58.26.370,arm3_q,2022.2.5,Win32,6.002617141,5baba8dbc1155b0001174533,64aeaab685a29f4ca249be02,64bec9c519ee64e50445de58,right,1,0.5643,0.35,1,0.019101657,0.0111,49,0,49,0,1,,,,,,,,,,
space,1.5191,007485,001,2023-07-24_19h58.26.370,arm3_q,2022.2.5,Win32,6.002617141,5baba8dbc1155b0001174533,64aeaab685a29f4ca249be02,64bec9c519ee64e50445de58,,,,,,,,,,,,,,,,,,,,,,
space,3.7673,007485,001,2023-07-24_19h58.26.370,arm3_q,2022.2.5,Win32,6.002617141,5baba8dbc1155b0001174533,64aeaab685a29f4ca249be02,64bec9c519ee64e50445de58,right,1,0.95,0.35,0,-0.010656212,0.9834,,,,,,0,0,0,0,1,,,,,
,,007485,001,2023-07-24_19h58.26.370,arm3_q,2022.2.5,Win32,6.002617141,5baba8dbc1155b0001174533,64aeaab685a29f4ca249be02,64bec9c519ee64e50445de58,right,1,0.95,0.35,0,-0.012148972,0.7856,,,,,,1,0,1,0,1,,,,,
,,007485,001,2023-07-24_19h58.26.370,arm3_q,2022.2.5,Win32,6.002617141,5baba8dbc1155b0001174533,64aeaab685a29f4ca249be02,64bec9c519ee64e50445de58,up,1,0.95,0.35,1,0,1.3673,,,,,,2,0,2,0,1,,,,,
,,007485,001,2023-07-24_19h58.26.370,arm3_q,2022.2.5,Win32,6.002617141,5baba8dbc1155b0001174533,64aeaab685a29f4ca249be02,64bec9c519ee64e50445de58,right,1,0.95,0.35,1,0.003370762,0.9737,,,,,,3,0,3,0,1,,,,,
,,007485,001,2023-07-24_19h58.26.370,arm3_q,2022.2.5,Win32,6.002617141,5baba8dbc1155b0001174533,64aeaab685a29f4ca249be02,64bec9c519ee64e50445de58,right,1,0.95,0.35,1,-0.011774159,0.4026,,,,,,4,0,4,0,1,,,,,
,,007485,001,2023-07-24_19h58.26.370,arm3_q,2022.2.5,Win32,6.002617141,5baba8dbc1155b0001174533,64aeaab685a29f4ca249be02,64bec9c519ee64e50445de58,down,1,0.95,0.35,0,0,0.9661,,,,,,5,0,5,0,1,,,,,
,,007485,001,2023-07-24_19h58.26.370,arm3_q,2022.2.5,Win32,6.002617141,5baba8dbc1155b0001174533,64aeaab685a29f4ca249be02,64bec9c519ee64e50445de58,right,1,0.95,0.35,0,0.006690776,0.9772,,,,,,6,0,6,0,1,,,,,
,,007485,001,2023-07-24_19h58.26.370,arm3_q,2022.2.5,Win32,6.002617141,5baba8dbc1155b0001174533,64aeaab685a29f4ca249be02,64bec9c519ee64e50445de58,right,1,0.95,0.35,0,0.000182522,0.2052,,,,,,7,0,7,0,1,,,,,
,,007485,001,2023-07-24_19h58.26.370,arm3_q,2022.2.5,Win32,6.002617141,5baba8dbc1155b0001174533,64aeaab685a29f4ca249be02,64bec9c519ee64e50445de58,right,1,0.95,0.35,0,0.026383233,0.6124,,,,,,8,0,8,0,1,,,,,
,,007485,001,2023-07-24_19h58.26.370,arm3_q,2022.2.5,Win32,6.002617141,5baba8dbc1155b0001174533,64aeaab685a29f4ca249be02,64bec9c519ee64e50445de58,up,-1,0.95,0.35,1,0,0.5863,,,,,,9,0,9,0,1,,,,,
,,007485,001,2023-07-24_19h58.26.370,arm3_q,2022.2.5,Win32,6.002617141,5baba8dbc1155b0001174533,64aeaab685a29f4ca249be02,64bec9c519ee64e50445de58,right,-1,0.95,0.35,1,-0.027056567,0.966,,,,,,10,0,10,0,1,,,,,
,,007485,001,2023-07-24_19h58.26.370,arm3_q,2022.2.5,Win32,6.002617141,5baba8dbc1155b0001174533,64aeaab685a29f4ca249be02,64bec9c519ee64e50445de58,right,-1,0.95,0.35,1,-0.049341842,0.1888,,,,,,11,0,11,0,1,,,,,
,,007485,001,2023-07-24_19h58.26.370,arm3_q,2022.2.5,Win32,6.002617141,5baba8dbc1155b0001174533,64aeaab685a29f4ca249be02,64bec9c519ee64e50445de58,right,-1,0.95,0.35,1,-0.046363211,0.1893,,,,,,12,0,12,0,1,,,,,
,,007485,001,2023-07-24_19h58.26.370,arm3_q,2022.2.5,Win32,6.002617141,5baba8dbc1155b0001174533,64aeaab685a29f4ca249be02,64bec9c519ee64e50445de58,down,1,0.95,0.35,2,0,0.3786,,,,,,13,0,13,0,1,,,,,
,,007485,001,2023-07-24_19h58.26.370,arm3_q,2022.2.5,Win32,6.002617141,5baba8dbc1155b0001174533,64aeaab685a29f4ca249be02,64bec9c519ee64e50445de58,right,1,0.95,0.35,2,0.048218092,0.579,,,,,,14,0,14,0,1,,,,,
,,007485,001,2023-07-24_19h58.26.370,arm3_q,2022.2.5,Win32,6.002617141,5baba8dbc1155b0001174533,64aeaab685a29f4ca249be02,64bec9c519ee64e50445de58,right,1,0.95,0.35,2,0.041062425,0.2057,,,,,,15,0,15,0,1,,,,,
,,007485,001,2023-07-24_19h58.26.370,arm3_q,2022.2.5,Win32,6.002617141,5baba8dbc1155b0001174533,64aeaab685a29f4ca249be02,64bec9c519ee64e50445de58,up,1,0.95,0.35,3,0,0.5859,,,,,,16,0,16,0,1,,,,,
,,007485,001,2023-07-24_19h58.26.370,arm3_q,2022.2.5,Win32,6.002617141,5baba8dbc1155b0001174533,64aeaab685a29f4ca249be02,64bec9c519ee64e50445de58,right,1,0.95,0.35,3,0.022973379,0.5806,,,,,,17,0,17,0,1,,,,,
,,007485,001,2023-07-24_19h58.26.370,arm3_q,2022.2.5,Win32,6.002617141,5baba8dbc1155b0001174533,64aeaab685a29f4ca249be02,64bec9c519ee64e50445de58,right,1,0.95,0.35,3,0.054517559,0.3887,,,,,,18,0,18,0,1,,,,,
,,007485,001,2023-07-24_19h58.26.370,arm3_q,2022.2.5,Win32,6.002617141,5baba8dbc1155b0001174533,64aeaab685a29f4ca249be02,64bec9c519ee64e50445de58,up,1,0.95,0.35,3,0,0.4135,,,,,,19,0,19,0,1,,,,,
,,007485,001,2023-07-24_19h58.26.370,arm3_q,2022.2.5,Win32,6.002617141,5baba8dbc1155b0001174533,64aeaab685a29f4ca249be02,64bec9c519ee64e50445de58,right,1,0.95,0.35,3,-0.001159179,0.9721,,,,,,20,0,20,0,1,,,,,
,,007485,001,2023-07-24_19h58.26.370,arm3_q,2022.2.5,Win32,6.002617141,5baba8dbc1155b0001174533,64aeaab685a29f4ca249be02,64bec9c519ee64e50445de58,right,1,0.95,0.35,3,0.021875939,0.4077,,,,,,21,0,21,0,1,,,,,
,,007485,001,2023-07-24_19h58.26.370,arm3_q,2022.2.5,Win32,6.002617141,5baba8dbc1155b0001174533,64aeaab685a29f4ca249be02,64bec9c519ee64e50445de58,up,-1,0.95,0.35,4,0,0.3939,,,,,,22,0,22,0,1,,,,,
,,007485,001,2023-07-24_19h58.26.370,arm3_q,2022.2.5,Win32,6.002617141,5baba8dbc1155b0001174533,64aeaab685a29f4ca249be02,64bec9c519ee64e50445de58,right,-1,0.95,0.35,4,-0.009220758,0.9675,,,,,,23,0,23,0,1,,,,,
,,007485,001,2023-07-24_19h58.26.370,arm3_q,2022.2.5,Win32,6.002617141,5baba8dbc1155b0001174533,64aeaab685a29f4ca249be02,64bec9c519ee64e50445de58,right,-1,0.95,0.35,4,-0.015775179,0.0115,,,,,,24,0,24,0,1,,,,,
,,007485,001,2023-07-24_19h58.26.370,arm3_q,2022.2.5,Win32,6.002617141,5baba8dbc1155b0001174533,64aeaab685a29f4ca249be02,64bec9c519ee64e50445de58,up,1,0.95,0.35,3,0,0.2118,,,,,,25,0,25,0,1,,,,,
,,007485,001,2023-07-24_19h58.26.370,arm3_q,2022.2.5,Win32,6.002617141,5baba8dbc1155b0001174533,64aeaab685a29f4ca249be02,64bec9c519ee64e50445de58,right,1,0.95,0.35,3,0.019059767,0.9675,,,,,,26,0,26,0,1,,,,,
,,007485,001,2023-07-24_19h58.26.370,arm3_q,2022.2.5,Win32,6.002617141,5baba8dbc1155b0001174533,64aeaab685a29f4ca249be02,64bec9c519ee64e50445de58,right,1,0.95,0.35,3,0.053522058,0.01,,,,,,27,0,27,0,1,,,,,
,,007485,001,2023-07-24_19h58.26.370,arm3_q,2022.2.5,Win32,6.002617141,5baba8dbc1155b0001174533,64aeaab685a29f4ca249be02,64bec9c519ee64e50445de58,up,1,0.95,0.35,4,0,0.7391,,,,,,28,0,28,0,1,,,,,
,,007485,001,2023-07-24_19h58.26.370,arm3_q,2022.2.5,Win32,6.002617141,5baba8dbc1155b0001174533,64aeaab685a29f4ca249be02,64bec9c519ee64e50445de58,right,1,0.95,0.35,4,0.021263348,0.7616,,,,,,29,0,29,0,1,,,,,
,,007485,001,2023-07-24_19h58.26.370,arm3_q,2022.2.5,Win32,6.002617141,5baba8dbc1155b0001174533,64aeaab685a29f4ca249be02,64bec9c519ee64e50445de58,right,1,0.95,0.35,4,0.017255828,0.0154,,,,,,30,0,30,0,1,,,,,
,,007485,001,2023-07-24_19h58.26.370,arm3_q,2022.2.5,Win32,6.002617141,5baba8dbc1155b0001174533,64aeaab685a29f4ca249be02,64bec9c519ee64e50445de58,down,1,0.95,0.35,3,0,0.5845,,,,,,31,0,31,0,1,,,,,
,,007485,001,2023-07-24_19h58.26.370,arm3_q,2022.2.5,Win32,6.002617141,5baba8dbc1155b0001174533,64aeaab685a29f4ca249be02,64bec9c519ee64e50445de58,right,1,0.95,0.35,3,0.032946312,0.9838,,,,,,32,0,32,0,1,,,,,
,,007485,001,2023-07-24_19h58.26.370,arm3_q,2022.2.5,Win32,6.002617141,5baba8dbc1155b0001174533,64aeaab685a29f4ca249be02,64bec9c519ee64e50445de58,right,1,0.95,0.35,3,0.031833227,0.0121,,,,,,33,0,33,0,1,,,,,
,,007485,001,2023-07-24_19h58.26.370,arm3_q,2022.2.5,Win32,6.002617141,5baba8dbc1155b0001174533,64aeaab685a29f4ca249be02,64bec9c519ee64e50445de58,down,-1,0.95,0.35,2,0,0.9822,,,,,,34,0,34,0,1,,,,,
,,007485,001,2023-07-24_19h58.26.370,arm3_q,2022.2.5,Win32,6.002617141,5baba8dbc1155b0001174533,64aeaab685a29f4ca249be02,64bec9c519ee64e50445de58,right,-1,0.95,0.35,2,-0.010948772,0.7734,,,,,,35,0,35,0,1,,,,,
,,007485,001,2023-07-24_19h58.26.370,arm3_q,2022.2.5,Win32,6.002617141,5baba8dbc1155b0001174533,64aeaab685a29f4ca249be02,64bec9c519ee64e50445de58,right,-1,0.95,0.35,2,-0.034008771,0.0105,,,,,,36,0,36,0,1,,,,,
,,007485,001,2023-07-24_19h58.26.370,arm3_q,2022.2.5,Win32,6.002617141,5baba8dbc1155b0001174533,64aeaab685a29f4ca249be02,64bec9c519ee64e50445de58,right,-1,0.95,0.35,2,-0.036383383,0.2259,,,,,,37,0,37,0,1,,,,,
,,007485,001,2023-07-24_19h58.26.370,arm3_q,2022.2.5,Win32,6.002617141,5baba8dbc1155b0001174533,64aeaab685a29f4ca249be02,64bec9c519ee64e50445de58,down,-1,0.95,0.35,3,0,0.4071,,,,,,38,0,38,0,1,,,,,
,,007485,001,2023-07-24_19h58.26.370,arm3_q,2022.2.5,Win32,6.002617141,5baba8dbc1155b0001174533,64aeaab685a29f4ca249be02,64bec9c519ee64e50445de58,right,-1,0.95,0.35,3,0.013535982,0.9758,,,,,,39,0,39,0,1,,,,,
,,007485,001,2023-07-24_19h58.26.370,arm3_q,2022.2.5,Win32,6.002617141,5baba8dbc1155b0001174533,64aeaab685a29f4ca249be02,64bec9c519ee64e50445de58,right,-1,0.95,0.35,3,0.004413214,0.0143,,,,,,40,0,40,0,1,,,,,
,,007485,001,2023-07-24_19h58.26.370,arm3_q,2022.2.5,Win32,6.002617141,5baba8dbc1155b0001174533,64aeaab685a29f4ca249be02,64bec9c519ee64e50445de58,up,-1,0.95,0.35,2,0,0.3939,,,,,,41,0,41,0,1,,,,,
,,007485,001,2023-07-24_19h58.26.370,arm3_q,2022.2.5,Win32,6.002617141,5baba8dbc1155b0001174533,64aeaab685a29f4ca249be02,64bec9c519ee64e50445de58,right,-1,0.95,0.35,2,-0.005482584,0.9833,,,,,,42,0,42,0,1,,,,,
,,007485,001,2023-07-24_19h58.26.370,arm3_q,2022.2.5,Win32,6.002617141,5baba8dbc1155b0001174533,64aeaab685a29f4ca249be02,64bec9c519ee64e50445de58,right,-1,0.95,0.35,2,-0.030264574,0.2079,,,,,,43,0,43,0,1,,,,,
,,007485,001,2023-07-24_19h58.26.370,arm3_q,2022.2.5,Win32,6.002617141,5baba8dbc1155b0001174533,64aeaab685a29f4ca249be02,64bec9c519ee64e50445de58,right,-1,0.95,0.35,2,-0.04889167,0.0105,,,,,,44,0,44,0,1,,,,,
,,007485,001,2023-07-24_19h58.26.370,arm3_q,2022.2.5,Win32,6.002617141,5baba8dbc1155b0001174533,64aeaab685a29f4ca249be02,64bec9c519ee64e50445de58,up,1,0.95,0.35,1,0,0.97,,,,,,45,0,45,0,1,,,,,
,,007485,001,2023-07-24_19h58.26.370,arm3_q,2022.2.5,Win32,6.002617141,5baba8dbc1155b0001174533,64aeaab685a29f4ca249be02,64bec9c519ee64e50445de58,right,1,0.95,0.35,1,-0.012733915,0.9451,,,,,,46,0,46,0,1,,,,,
,,007485,001,2023-07-24_19h58.26.370,arm3_q,2022.2.5,Win32,6.002617141,5baba8dbc1155b0001174533,64aeaab685a29f4ca249be02,64bec9c519ee64e50445de58,right,1,0.95,0.35,1,-0.000823764,0.0113,,,,,,47,0,47,0,1,,,,,
,,007485,001,2023-07-24_19h58.26.370,arm3_q,2022.2.5,Win32,6.002617141,5baba8dbc1155b0001174533,64aeaab685a29f4ca249be02,64bec9c519ee64e50445de58,right,1,0.95,0.35,1,-0.002345197,0.0098,,,,,,48,0,48,0,1,,,,,
,,007485,001,2023-07-24_19h58.26.370,arm3_q,2022.2.5,Win32,6.002617141,5baba8dbc1155b0001174533,64aeaab685a29f4ca249be02,64bec9c519ee64e50445de58,up,1,0.95,0.35,2,0,1.3665,,,,,,49,0,49,0,1,,,,,
,,007485,001,2023-07-24_19h58.26.370,arm3_q,2022.2.5,Win32,6.002617141,5baba8dbc1155b0001174533,64aeaab685a29f4ca249be02,64bec9c519ee64e50445de58,right,1,0.95,0.35,2,-0.021279256,1.0052,,,,,,50,0,50,0,1,,,,,
,,007485,001,2023-07-24_19h58.26.370,arm3_q,2022.2.5,Win32,6.002617141,5baba8dbc1155b0001174533,64aeaab685a29f4ca249be02,64bec9c519ee64e50445de58,right,1,0.95,0.35,2,-0.004489169,0.0104,,,,,,51,0,51,0,1,,,,,
,,007485,001,2023-07-24_19h58.26.370,arm3_q,2022.2.5,Win32,6.002617141,5baba8dbc1155b0001174533,64aeaab685a29f4ca249be02,64bec9c519ee64e50445de58,right,1,0.95,0.35,2,-0.014191681,0.7812,,,,,,52,0,52,0,1,,,,,
,,007485,001,2023-07-24_19h58.26.370,arm3_q,2022.2.5,Win32,6.002617141,5baba8dbc1155b0001174533,64aeaab685a29f4ca249be02,64bec9c519ee64e50445de58,up,1,0.95,0.35,3,0,3.2286,,,,,,53,0,53,0,1,,,,,
,,007485,001,2023-07-24_19h58.26.370,arm3_q,2022.2.5,Win32,6.002617141,5baba8dbc1155b0001174533,64aeaab685a29f4ca249be02,64bec9c519ee64e50445de58,right,1,0.95,0.35,3,0.037774938,0.9576,,,,,,54,0,54,0,1,,,,,
,,007485,001,2023-07-24_19h58.26.370,arm3_q,2022.2.5,Win32,6.002617141,5baba8dbc1155b0001174533,64aeaab685a29f4ca249be02,64bec9c519ee64e50445de58,right,1,0.95,0.35,3,0.026809352,0.0093,,,,,,55,0,55,0,1,,,,,
,,007485,001,2023-07-24_19h58.26.370,arm3_q,2022.2.5,Win32,6.002617141,5baba8dbc1155b0001174533,64aeaab685a29f4ca249be02,64bec9c519ee64e50445de58,up,-1,0.95,0.35,4,0,0.9297,,,,,,56,0,56,0,1,,,,,
,,007485,001,2023-07-24_19h58.26.370,arm3_q,2022.2.5,Win32,6.002617141,5baba8dbc1155b0001174533,64aeaab685a29f4ca249be02,64bec9c519ee64e50445de58,right,-1,0.95,0.35,4,0.000773791,0.7594,,,,,,57,0,57,0,1,,,,,
,,007485,001,2023-07-24_19h58.26.370,arm3_q,2022.2.5,Win32,6.002617141,5baba8dbc1155b0001174533,64aeaab685a29f4ca249be02,64bec9c519ee64e50445de58,right,-1,0.95,0.35,4,-0.024467631,0.1988,,,,,,58,0,58,0,1,,,,,
,,007485,001,2023-07-24_19h58.26.370,arm3_q,2022.2.5,Win32,6.002617141,5baba8dbc1155b0001174533,64aeaab685a29f4ca249be02,64bec9c519ee64e50445de58,right,-1,0.95,0.35,4,-0.033839383,0.5856,,,,,,59,0,59,0,1,,,,,
,,007485,001,2023-07-24_19h58.26.370,arm3_q,2022.2.5,Win32,6.002617141,5baba8dbc1155b0001174533,64aeaab685a29f4ca249be02,64bec9c519ee64e50445de58,down,-1,0.95,0.35,5,0,0.1966,,,,,,60,0,60,0,1,,,,,
,,007485,001,2023-07-24_19h58.26.370,arm3_q,2022.2.5,Win32,6.002617141,5baba8dbc1155b0001174533,64aeaab685a29f4ca249be02,64bec9c519ee64e50445de58,right,-1,0.95,0.35,5,-0.017685015,0.9689,,,,,,61,0,61,0,1,,,,,
,,007485,001,2023-07-24_19h58.26.370,arm3_q,2022.2.5,Win32,6.002617141,5baba8dbc1155b0001174533,64aeaab685a29f4ca249be02,64bec9c519ee64e50445de58,right,-1,0.95,0.35,5,-0.031315766,0.0136,,,,,,62,0,62,0,1,,,,,
,,007485,001,2023-07-24_19h58.26.370,arm3_q,2022.2.5,Win32,6.002617141,5baba8dbc1155b0001174533,64aeaab685a29f4ca249be02,64bec9c519ee64e50445de58,right,-1,0.95,0.35,5,-0.029080686,1.7004,,,,,,63,0,63,0,1,,,,,
,,007485,001,2023-07-24_19h58.26.370,arm3_q,2022.2.5,Win32,6.002617141,5baba8dbc1155b0001174533,64aeaab685a29f4ca249be02,64bec9c519ee64e50445de58,down,1,0.95,0.35,6,0,0.6037,,,,,,64,0,64,0,1,,,,,
,,007485,001,2023-07-24_19h58.26.370,arm3_q,2022.2.5,Win32,6.002617141,5baba8dbc1155b0001174533,64aeaab685a29f4ca249be02,64bec9c519ee64e50445de58,right,1,0.95,0.35,6,0.007626644,0.7894,,,,,,65,0,65,0,1,,,,,
,,007485,001,2023-07-24_19h58.26.370,arm3_q,2022.2.5,Win32,6.002617141,5baba8dbc1155b0001174533,64aeaab685a29f4ca249be02,64bec9c519ee64e50445de58,right,1,0.95,0.35,6,0.05062357,0.0154,,,,,,66,0,66,0,1,,,,,
,,007485,001,2023-07-24_19h58.26.370,arm3_q,2022.2.5,Win32,6.002617141,5baba8dbc1155b0001174533,64aeaab685a29f4ca249be02,64bec9c519ee64e50445de58,up,1,0.95,0.35,7,0,0.3562,,,,,,67,0,67,0,1,,,,,
,,007485,001,2023-07-24_19h58.26.370,arm3_q,2022.2.5,Win32,6.002617141,5baba8dbc1155b0001174533,64aeaab685a29f4ca249be02,64bec9c519ee64e50445de58,right,1,0.95,0.35,7,-0.0025598,0.7762,,,,,,68,0,68,0,1,,,,,
,,007485,001,2023-07-24_19h58.26.370,arm3_q,2022.2.5,Win32,6.002617141,5baba8dbc1155b0001174533,64aeaab685a29f4ca249be02,64bec9c519ee64e50445de58,right,1,0.95,0.35,7,0.045586823,0.0101,,,,,,69,0,69,0,1,,,,,
,,007485,001,2023-07-24_19h58.26.370,arm3_q,2022.2.5,Win32,6.002617141,5baba8dbc1155b0001174533,64aeaab685a29f4ca249be02,64bec9c519ee64e50445de58,up,1,0.95,0.35,8,0,0.5697,,,,,,70,0,70,0,1,,,,,
,,007485,001,2023-07-24_19h58.26.370,arm3_q,2022.2.5,Win32,6.002617141,5baba8dbc1155b0001174533,64aeaab685a29f4ca249be02,64bec9c519ee64e50445de58,right,1,0.95,0.35,8,0.036413175,0.4096,,,,,,71,0,71,0,1,,,,,
,,007485,001,2023-07-24_19h58.26.370,arm3_q,2022.2.5,Win32,6.002617141,5baba8dbc1155b0001174533,64aeaab685a29f4ca249be02,64bec9c519ee64e50445de58,right,1,0.95,0.35,8,0.053980712,0.2129,,,,,,72,0,72,0,1,,,,,
,,007485,001,2023-07-24_19h58.26.370,arm3_q,2022.2.5,Win32,6.002617141,5baba8dbc1155b0001174533,64aeaab685a29f4ca249be02,64bec9c519ee64e50445de58,up,1,0.95,0.35,9,0,0.7733,,,,,,73,0,73,0,1,,,,,
,,007485,001,2023-07-24_19h58.26.370,arm3_q,2022.2.5,Win32,6.002617141,5baba8dbc1155b0001174533,64aeaab685a29f4ca249be02,64bec9c519ee64e50445de58,right,1,0.95,0.35,9,0.022859228,0.9326,,,,,,74,0,74,0,1,,,,,
,,007485,001,2023-07-24_19h58.26.370,arm3_q,2022.2.5,Win32,6.002617141,5baba8dbc1155b0001174533,64aeaab685a29f4ca249be02,64bec9c519ee64e50445de58,right,1,0.95,0.35,9,0.032678868,0.4,,,,,,75,0,75,0,1,,,,,
,,007485,001,2023-07-24_19h58.26.370,arm3_q,2022.2.5,Win32,6.002617141,5baba8dbc1155b0001174533,64aeaab685a29f4ca249be02,64bec9c519ee64e50445de58,up,1,0.95,0.35,10,0,0.4137,,,,,,76,0,76,0,1,,,,,
,,007485,001,2023-07-24_19h58.26.370,arm3_q,2022.2.5,Win32,6.002617141,5baba8dbc1155b0001174533,64aeaab685a29f4ca249be02,64bec9c519ee64e50445de58,right,1,0.95,0.35,10,0.02612602,0.748,,,,,,77,0,77,0,1,,,,,
,,007485,001,2023-07-24_19h58.26.370,arm3_q,2022.2.5,Win32,6.002617141,5baba8dbc1155b0001174533,64aeaab685a29f4ca249be02,64bec9c519ee64e50445de58,right,1,0.95,0.35,10,0.071557518,0.0125,,,,,,78,0,78,0,1,,,,,
,,007485,001,2023-07-24_19h58.26.370,arm3_q,2022.2.5,Win32,6.002617141,5baba8dbc1155b0001174533,64aeaab685a29f4ca249be02,64bec9c519ee64e50445de58,up,1,0.95,0.35,11,0,0.4074,,,,,,79,0,79,0,1,,,,,
,,007485,001,2023-07-24_19h58.26.370,arm3_q,2022.2.5,Win32,6.002617141,5baba8dbc1155b0001174533,64aeaab685a29f4ca249be02,64bec9c519ee64e50445de58,right,1,0.95,0.35,11,0.023250093,0.7875,,,,,,80,0,80,0,1,,,,,
,,007485,001,2023-07-24_19h58.26.370,arm3_q,2022.2.5,Win32,6.002617141,5baba8dbc1155b0001174533,64aeaab685a29f4ca249be02,64bec9c519ee64e50445de58,right,1,0.95,0.35,11,0.010957039,0.0189,,,,,,81,0,81,0,1,,,,,
,,007485,001,2023-07-24_19h58.26.370,arm3_q,2022.2.5,Win32,6.002617141,5baba8dbc1155b0001174533,64aeaab685a29f4ca249be02,64bec9c519ee64e50445de58,down,-1,0.95,0.35,10,0,1.5441,,,,,,82,0,82,0,1,,,,,
,,007485,001,2023-07-24_19h58.26.370,arm3_q,2022.2.5,Win32,6.002617141,5baba8dbc1155b0001174533,64aeaab685a29f4ca249be02,64bec9c519ee64e50445de58,right,-1,0.95,0.35,10,0.021480238,0.9765,,,,,,83,0,83,0,1,,,,,
,,007485,001,2023-07-24_19h58.26.370,arm3_q,2022.2.5,Win32,6.002617141,5baba8dbc1155b0001174533,64aeaab685a29f4ca249be02,64bec9c519ee64e50445de58,right,-1,0.95,0.35,10,-0.006060744,0.0106,,,,,,84,0,84,0,1,,,,,
,,007485,001,2023-07-24_19h58.26.370,arm3_q,2022.2.5,Win32,6.002617141,5baba8dbc1155b0001174533,64aeaab685a29f4ca249be02,64bec9c519ee64e50445de58,down,1,0.95,0.35,11,0,0.5836,,,,,,85,0,85,0,1,,,,,
,,007485,001,2023-07-24_19h58.26.370,arm3_q,2022.2.5,Win32,6.002617141,5baba8dbc1155b0001174533,64aeaab685a29f4ca249be02,64bec9c519ee64e50445de58,right,1,0.95,0.35,11,-0.004836598,0.7911,,,,,,86,0,86,0,1,,,,,
,,007485,001,2023-07-24_19h58.26.370,arm3_q,2022.2.5,Win32,6.002617141,5baba8dbc1155b0001174533,64aeaab685a29f4ca249be02,64bec9c519ee64e50445de58,right,1,0.95,0.35,11,-0.017078069,0.0099,,,,,,87,0,87,0,1,,,,,
,,007485,001,2023-07-24_19h58.26.370,arm3_q,2022.2.5,Win32,6.002617141,5baba8dbc1155b0001174533,64aeaab685a29f4ca249be02,64bec9c519ee64e50445de58,up,1,0.95,0.35,12,0,1.3596,,,,,,88,0,88,0,1,,,,,
,,007485,001,2023-07-24_19h58.26.370,arm3_q,2022.2.5,Win32,6.002617141,5baba8dbc1155b0001174533,64aeaab685a29f4ca249be02,64bec9c519ee64e50445de58,right,1,0.95,0.35,12,-0.03537875,0.7562,,,,,,89,0,89,0,1,,,,,
,,007485,001,2023-07-24_19h58.26.370,arm3_q,2022.2.5,Win32,6.002617141,5baba8dbc1155b0001174533,64aeaab685a29f4ca249be02,64bec9c519ee64e50445de58,right,1,0.95,0.35,12,-0.048888835,0.0106,,,,,,90,0,90,0,1,,,,,
,,007485,001,2023-07-24_19h58.26.370,arm3_q,2022.2.5,Win32,6.002617141,5baba8dbc1155b0001174533,64aeaab685a29f4ca249be02,64bec9c519ee64e50445de58,down,1,0.95,0.35,11,0,0.4099,,,,,,91,0,91,0,1,,,,,
,,007485,001,2023-07-24_19h58.26.370,arm3_q,2022.2.5,Win32,6.002617141,5baba8dbc1155b0001174533,64aeaab685a29f4ca249be02,64bec9c519ee64e50445de58,right,1,0.95,0.35,11,0.037160544,0.9935,,,,,,92,0,92,0,1,,,,,
,,007485,001,2023-07-24_19h58.26.370,arm3_q,2022.2.5,Win32,6.002617141,5baba8dbc1155b0001174533,64aeaab685a29f4ca249be02,64bec9c519ee64e50445de58,right,1,0.95,0.35,11,0.088462047,0.0126,,,,,,93,0,93,0,1,,,,,
,,007485,001,2023-07-24_19h58.26.370,arm3_q,2022.2.5,Win32,6.002617141,5baba8dbc1155b0001174533,64aeaab685a29f4ca249be02,64bec9c519ee64e50445de58,up,-1,0.95,0.35,12,0,0.9405,,,,,,94,0,94,0,1,,,,,
,,007485,001,2023-07-24_19h58.26.370,arm3_q,2022.2.5,Win32,6.002617141,5baba8dbc1155b0001174533,64aeaab685a29f4ca249be02,64bec9c519ee64e50445de58,right,-1,0.95,0.35,12,-0.025796774,0.7942,,,,,,95,0,95,0,1,,,,,
,,007485,001,2023-07-24_19h58.26.370,arm3_q,2022.2.5,Win32,6.002617141,5baba8dbc1155b0001174533,64aeaab685a29f4ca249be02,64bec9c519ee64e50445de58,right,-1,0.95,0.35,12,-0.033927725,0.0132,,,,,,96,0,96,0,1,,,,,
,,007485,001,2023-07-24_19h58.26.370,arm3_q,2022.2.5,Win32,6.002617141,5baba8dbc1155b0001174533,64aeaab685a29f4ca249be02,64bec9c519ee64e50445de58,down,1,0.95,0.35,13,0,0.565,,,,,,97,0,97,0,1,,,,,
,,007485,001,2023-07-24_19h58.26.370,arm3_q,2022.2.5,Win32,6.002617141,5baba8dbc1155b0001174533,64aeaab685a29f4ca249be02,64bec9c519ee64e50445de58,right,1,0.95,0.35,13,0.038175554,0.7556,,,,,,98,0,98,0,1,,,,,
,,007485,001,2023-07-24_19h58.26.370,arm3_q,2022.2.5,Win32,6.002617141,5baba8dbc1155b0001174533,64aeaab685a29f4ca249be02,64bec9c519ee64e50445de58,right,1,0.95,0.35,13,0.030099348,0.0095,,,,,,99,0,99,0,1,,,,,
,,007485,001,2023-07-24_19h58.26.370,arm3_q,2022.2.5,Win32,6.002617141,5baba8dbc1155b0001174533,64aeaab685a29f4ca249be02,64bec9c519ee64e50445de58,down,1,0.95,0.35,12,0,0.7583,,,,,,100,0,100,0,1,,,,,
,,007485,001,2023-07-24_19h58.26.370,arm3_q,2022.2.5,Win32,6.002617141,5baba8dbc1155b0001174533,64aeaab685a29f4ca249be02,64bec9c519ee64e50445de58,right,1,0.95,0.35,12,0.028097273,0.9594,,,,,,101,0,101,0,1,,,,,
,,007485,001,2023-07-24_19h58.26.370,arm3_q,2022.2.5,Win32,6.002617141,5baba8dbc1155b0001174533,64aeaab685a29f4ca249be02,64bec9c519ee64e50445de58,up,-1,0.95,0.35,13,0,1.2067,,,,,,102,0,102,0,1,,,,,
,,007485,001,2023-07-24_19h58.26.370,arm3_q,2022.2.5,Win32,6.002617141,5baba8dbc1155b0001174533,64aeaab685a29f4ca249be02,64bec9c519ee64e50445de58,right,-1,0.95,0.35,13,-0.007473455,0.9645,,,,,,103,0,103,0,1,,,,,
,,007485,001,2023-07-24_19h58.26.370,arm3_q,2022.2.5,Win32,6.002617141,5baba8dbc1155b0001174533,64aeaab685a29f4ca249be02,64bec9c519ee64e50445de58,right,-1,0.95,0.35,13,-0.009942397,0.013,,,,,,104,0,104,0,1,,,,,
,,007485,001,2023-07-24_19h58.26.370,arm3_q,2022.2.5,Win32,6.002617141,5baba8dbc1155b0001174533,64aeaab685a29f4ca249be02,64bec9c519ee64e50445de58,right,-1,0.95,0.35,13,-0.021637379,0.0095,,,,,,105,0,105,0,1,,,,,
,,007485,001,2023-07-24_19h58.26.370,arm3_q,2022.2.5,Win32,6.002617141,5baba8dbc1155b0001174533,64aeaab685a29f4ca249be02,64bec9c519ee64e50445de58,right,-1,0.95,0.35,13,-0.010736067,0.0142,,,,,,106,0,106,0,1,,,,,
,,007485,001,2023-07-24_19h58.26.370,arm3_q,2022.2.5,Win32,6.002617141,5baba8dbc1155b0001174533,64aeaab685a29f4ca249be02,64bec9c519ee64e50445de58,down,-1,0.95,0.35,14,0,0.1852,,,,,,107,0,107,0,1,,,,,
,,007485,001,2023-07-24_19h58.26.370,arm3_q,2022.2.5,Win32,6.002617141,5baba8dbc1155b0001174533,64aeaab685a29f4ca249be02,64bec9c519ee64e50445de58,right,-1,0.95,0.35,14,-0.021479609,0.9252,,,,,,108,0,108,0,1,,,,,
,,007485,001,2023-07-24_19h58.26.370,arm3_q,2022.2.5,Win32,6.002617141,5baba8dbc1155b0001174533,64aeaab685a29f4ca249be02,64bec9c519ee64e50445de58,right,-1,0.95,0.35,14,-0.058656488,0.0159,,,,,,109,0,109,0,1,,,,,
,,007485,001,2023-07-24_19h58.26.370,arm3_q,2022.2.5,Win32,6.002617141,5baba8dbc1155b0001174533,64aeaab685a29f4ca249be02,64bec9c519ee64e50445de58,right,-1,0.95,0.35,14,-0.072952952,0.0097,,,,,,110,0,110,0,1,,,,,
,,007485,001,2023-07-24_19h58.26.370,arm3_q,2022.2.5,Win32,6.002617141,5baba8dbc1155b0001174533,64aeaab685a29f4ca249be02,64bec9c519ee64e50445de58,right,-1,0.95,0.35,14,-0.083540181,0.0122,,,,,,111,0,111,0,1,,,,,
,,007485,001,2023-07-24_19h58.26.370,arm3_q,2022.2.5,Win32,6.002617141,5baba8dbc1155b0001174533,64aeaab685a29f4ca249be02,64bec9c519ee64e50445de58,down,-1,0.95,0.35,15,0,0.2084,,,,,,112,0,112,0,1,,,,,
,,007485,001,2023-07-24_19h58.26.370,arm3_q,2022.2.5,Win32,6.002617141,5baba8dbc1155b0001174533,64aeaab685a29f4ca249be02,64bec9c519ee64e50445de58,right,-1,0.95,0.35,15,0.010350211,0.9795,,,,,,113,0,113,0,1,,,,,
,,007485,001,2023-07-24_19h58.26.370,arm3_q,2022.2.5,Win32,6.002617141,5baba8dbc1155b0001174533,64aeaab685a29f4ca249be02,64bec9c519ee64e50445de58,right,-1,0.95,0.35,15,0.006799985,0.0095,,,,,,114,0,114,0,1,,,,,
,,007485,001,2023-07-24_19h58.26.370,arm3_q,2022.2.5,Win32,6.002617141,5baba8dbc1155b0001174533,64aeaab685a29f4ca249be02,64bec9c519ee64e50445de58,down,1,0.95,0.35,16,0,0.7564,,,,,,115,0,115,0,1,,,,,
,,007485,001,2023-07-24_19h58.26.370,arm3_q,2022.2.5,Win32,6.002617141,5baba8dbc1155b0001174533,64aeaab685a29f4ca249be02,64bec9c519ee64e50445de58,right,1,0.95,0.35,16,-0.0097408,0.7508,,,,,,116,0,116,0,1,,,,,
,,007485,001,2023-07-24_19h58.26.370,arm3_q,2022.2.5,Win32,6.002617141,5baba8dbc1155b0001174533,64aeaab685a29f4ca249be02,64bec9c519ee64e50445de58,right,1,0.95,0.35,16,0.00527024,0.0116,,,,,,117,0,117,0,1,,,,,
,,007485,001,2023-07-24_19h58.26.370,arm3_q,2022.2.5,Win32,6.002617141,5baba8dbc1155b0001174533,64aeaab685a29f4ca249be02,64bec9c519ee64e50445de58,right,1,0.95,0.35,16,-0.018154497,0.01,,,,,,118,0,118,0,1,,,,,
,,007485,001,2023-07-24_19h58.26.370,arm3_q,2022.2.5,Win32,6.002617141,5baba8dbc1155b0001174533,64aeaab685a29f4ca249be02,64bec9c519ee64e50445de58,up,1,0.95,0.35,17,0,0.7943,,,,,,119,0,119,0,1,,,,,
,,007485,001,2023-07-24_19h58.26.370,arm3_q,2022.2.5,Win32,6.002617141,5baba8dbc1155b0001174533,64aeaab685a29f4ca249be02,64bec9c519ee64e50445de58,right,1,0.95,0.35,17,-0.002939264,0.9632,,,,,,120,0,120,0,1,,,,,
,,007485,001,2023-07-24_19h58.26.370,arm3_q,2022.2.5,Win32,6.002617141,5baba8dbc1155b0001174533,64aeaab685a29f4ca249be02,64bec9c519ee64e50445de58,right,1,0.95,0.35,17,0.018875653,0.7636,,,,,,121,0,121,0,1,,,,,
,,007485,001,2023-07-24_19h58.26.370,arm3_q,2022.2.5,Win32,6.002617141,5baba8dbc1155b0001174533,64aeaab685a29f4ca249be02,64bec9c519ee64e50445de58,up,-1,0.95,0.35,18,0,0.5701,,,,,,122,0,122,0,1,,,,,
,,007485,001,2023-07-24_19h58.26.370,arm3_q,2022.2.5,Win32,6.002617141,5baba8dbc1155b0001174533,64aeaab685a29f4ca249be02,64bec9c519ee64e50445de58,right,-1,0.95,0.35,18,-0.011327535,0.9493,,,,,,123,0,123,0,1,,,,,
,,007485,001,2023-07-24_19h58.26.370,arm3_q,2022.2.5,Win32,6.002617141,5baba8dbc1155b0001174533,64aeaab685a29f4ca249be02,64bec9c519ee64e50445de58,right,-1,0.95,0.35,18,0.008244735,0.009,,,,,,124,0,124,0,1,,,,,
,,007485,001,2023-07-24_19h58.26.370,arm3_q,2022.2.5,Win32,6.002617141,5baba8dbc1155b0001174533,64aeaab685a29f4ca249be02,64bec9c519ee64e50445de58,right,-1,0.95,0.35,18,0.008411518,1.5582,,,,,,125,0,125,0,1,,,,,
,,007485,001,2023-07-24_19h58.26.370,arm3_q,2022.2.5,Win32,6.002617141,5baba8dbc1155b0001174533,64aeaab685a29f4ca249be02,64bec9c519ee64e50445de58,up,-1,0.95,0.35,17,0,0.7623,,,,,,126,0,126,0,1,,,,,
,,007485,001,2023-07-24_19h58.26.370,arm3_q,2022.2.5,Win32,6.002617141,5baba8dbc1155b0001174533,64aeaab685a29f4ca249be02,64bec9c519ee64e50445de58,right,-1,0.95,0.35,17,-0.022221642,0.969,,,,,,127,0,127,0,1,,,,,
,,007485,001,2023-07-24_19h58.26.370,arm3_q,2022.2.5,Win32,6.002617141,5baba8dbc1155b0001174533,64aeaab685a29f4ca249be02,64bec9c519ee64e50445de58,right,-1,0.95,0.35,17,-0.014933825,0.0099,,,,,,128,0,128,0,1,,,,,
,,007485,001,2023-07-24_19h58.26.370,arm3_q,2022.2.5,Win32,6.002617141,5baba8dbc1155b0001174533,64aeaab685a29f4ca249be02,64bec9c519ee64e50445de58,down,-1,0.95,0.35,18,0,0.5831,,,,,,129,0,129,0,1,,,,,
,,007485,001,2023-07-24_19h58.26.370,arm3_q,2022.2.5,Win32,6.002617141,5baba8dbc1155b0001174533,64aeaab685a29f4ca249be02,64bec9c519ee64e50445de58,right,-1,0.95,0.35,18,-0.024219812,0.7747,,,,,,130,0,130,0,1,,,,,
,,007485,001,2023-07-24_19h58.26.370,arm3_q,2022.2.5,Win32,6.002617141,5baba8dbc1155b0001174533,64aeaab685a29f4ca249be02,64bec9c519ee64e50445de58,right,-1,0.95,0.35,18,-0.026010027,0.0098,,,,,,131,0,131,0,1,,,,,
,,007485,001,2023-07-24_19h58.26.370,arm3_q,2022.2.5,Win32,6.002617141,5baba8dbc1155b0001174533,64aeaab685a29f4ca249be02,64bec9c519ee64e50445de58,down,1,0.95,0.35,19,0,0.6194,,,,,,132,0,132,0,1,,,,,
,,007485,001,2023-07-24_19h58.26.370,arm3_q,2022.2.5,Win32,6.002617141,5baba8dbc1155b0001174533,64aeaab685a29f4ca249be02,64bec9c519ee64e50445de58,right,1,0.95,0.35,19,0.003580462,0.7992,,,,,,133,0,133,0,1,,,,,
,,007485,001,2023-07-24_19h58.26.370,arm3_q,2022.2.5,Win32,6.002617141,5baba8dbc1155b0001174533,64aeaab685a29f4ca249be02,64bec9c519ee64e50445de58,right,1,0.95,0.35,19,-0.014296357,0.0139,,,,,,134,0,134,0,1,,,,,
,,007485,001,2023-07-24_19h58.26.370,arm3_q,2022.2.5,Win32,6.002617141,5baba8dbc1155b0001174533,64aeaab685a29f4ca249be02,64bec9c519ee64e50445de58,down,1,0.95,0.35,18,0,0.7948,,,,,,135,0,135,0,1,,,,,
,,007485,001,2023-07-24_19h58.26.370,arm3_q,2022.2.5,Win32,6.002617141,5baba8dbc1155b0001174533,64aeaab685a29f4ca249be02,64bec9c519ee64e50445de58,right,1,0.95,0.35,18,0.012774592,0.9847,,,,,,136,0,136,0,1,,,,,
,,007485,001,2023-07-24_19h58.26.370,arm3_q,2022.2.5,Win32,6.002617141,5baba8dbc1155b0001174533,64aeaab685a29f4ca249be02,64bec9c519ee64e50445de58,right,1,0.95,0.35,18,0.033221656,0.0121,,,,,,137,0,137,0,1,,,,,
,,007485,001,2023-07-24_19h58.26.370,arm3_q,2022.2.5,Win32,6.002617141,5baba8dbc1155b0001174533,64aeaab685a29f4ca249be02,64bec9c519ee64e50445de58,up,1,0.95,0.35,19,0,0.6138,,,,,,138,0,138,0,1,,,,,
,,007485,001,2023-07-24_19h58.26.370,arm3_q,2022.2.5,Win32,6.002617141,5baba8dbc1155b0001174533,64aeaab685a29f4ca249be02,64bec9c519ee64e50445de58,right,1,0.95,0.35,19,0.015955291,0.7853,,,,,,139,0,139,0,1,,,,,
,,007485,001,2023-07-24_19h58.26.370,arm3_q,2022.2.5,Win32,6.002617141,5baba8dbc1155b0001174533,64aeaab685a29f4ca249be02,64bec9c519ee64e50445de58,right,1,0.95,0.35,19,0.015855321,0.01,,,,,,140,0,140,0,1,,,,,
,,007485,001,2023-07-24_19h58.26.370,arm3_q,2022.2.5,Win32,6.002617141,5baba8dbc1155b0001174533,64aeaab685a29f4ca249be02,64bec9c519ee64e50445de58,down,1,0.95,0.35,18,0,0.7642,,,,,,141,0,141,0,1,,,,,
,,007485,001,2023-07-24_19h58.26.370,arm3_q,2022.2.5,Win32,6.002617141,5baba8dbc1155b0001174533,64aeaab685a29f4ca249be02,64bec9c519ee64e50445de58,right,1,0.95,0.35,18,0.007524144,0.7501,,,,,,142,0,142,0,1,,,,,
,,007485,001,2023-07-24_19h58.26.370,arm3_q,2022.2.5,Win32,6.002617141,5baba8dbc1155b0001174533,64aeaab685a29f4ca249be02,64bec9c519ee64e50445de58,right,1,0.95,0.35,18,0.015246051,0.0133,,,,,,143,0,143,0,1,,,,,
,,007485,001,2023-07-24_19h58.26.370,arm3_q,2022.2.5,Win32,6.002617141,5baba8dbc1155b0001174533,64aeaab685a29f4ca249be02,64bec9c519ee64e50445de58,up,1,0.95,0.35,19,0,0.3841,,,,,,144,0,144,0,1,,,,,
,,007485,001,2023-07-24_19h58.26.370,arm3_q,2022.2.5,Win32,6.002617141,5baba8dbc1155b0001174533,64aeaab685a29f4ca249be02,64bec9c519ee64e50445de58,right,1,0.95,0.35,19,0.005426404,1.1678,,,,,,145,0,145,0,1,,,,,
,,007485,001,2023-07-24_19h58.26.370,arm3_q,2022.2.5,Win32,6.002617141,5baba8dbc1155b0001174533,64aeaab685a29f4ca249be02,64bec9c519ee64e50445de58,down,1,0.95,0.35,18,0,0.8106,,,,,,146,0,146,0,1,,,,,
,,007485,001,2023-07-24_19h58.26.370,arm3_q,2022.2.5,Win32,6.002617141,5baba8dbc1155b0001174533,64aeaab685a29f4ca249be02,64bec9c519ee64e50445de58,right,1,0.95,0.35,18,-0.009673178,0.962,,,,,,147,0,147,0,1,,,,,
,,007485,001,2023-07-24_19h58.26.370,arm3_q,2022.2.5,Win32,6.002617141,5baba8dbc1155b0001174533,64aeaab685a29f4ca249be02,64bec9c519ee64e50445de58,right,1,0.95,0.35,18,-0.025867008,0.0097,,,,,,148,0,148,0,1,,,,,
,,007485,001,2023-07-24_19h58.26.370,arm3_q,2022.2.5,Win32,6.002617141,5baba8dbc1155b0001174533,64aeaab685a29f4ca249be02,64bec9c519ee64e50445de58,down,1,0.95,0.35,18,0,0.6073,,,,,,149,0,149,0,1,,,,,
,,007485,001,2023-07-24_19h58.26.370,arm3_q,2022.2.5,Win32,6.002617141,5baba8dbc1155b0001174533,64aeaab685a29f4ca249be02,64bec9c519ee64e50445de58,right,1,0.95,0.35,18,0.00885658,0.9844,,,,,,150,0,150,0,1,,,,,
,,007485,001,2023-07-24_19h58.26.370,arm3_q,2022.2.5,Win32,6.002617141,5baba8dbc1155b0001174533,64aeaab685a29f4ca249be02,64bec9c519ee64e50445de58,up,-1,0.95,0.35,19,0,0.7911,,,,,,151,0,151,0,1,,,,,
,,007485,001,2023-07-24_19h58.26.370,arm3_q,2022.2.5,Win32,6.002617141,5baba8dbc1155b0001174533,64aeaab685a29f4ca249be02,64bec9c519ee64e50445de58,right,-1,0.95,0.35,19,-0.032472011,1.1693,,,,,,152,0,152,0,1,,,,,
,,007485,001,2023-07-24_19h58.26.370,arm3_q,2022.2.5,Win32,6.002617141,5baba8dbc1155b0001174533,64aeaab685a29f4ca249be02,64bec9c519ee64e50445de58,down,-1,0.95,0.35,20,0,0.7707,,,,,,153,0,153,0,1,,,,,
,,007485,001,2023-07-24_19h58.26.370,arm3_q,2022.2.5,Win32,6.002617141,5baba8dbc1155b0001174533,64aeaab685a29f4ca249be02,64bec9c519ee64e50445de58,right,-1,0.95,0.35,20,-0.000695214,1.338,,,,,,154,0,154,0,1,,,,,
,,007485,001,2023-07-24_19h58.26.370,arm3_q,2022.2.5,Win32,6.002617141,5baba8dbc1155b0001174533,64aeaab685a29f4ca249be02,64bec9c519ee64e50445de58,up,1,0.95,0.35,19,0,1.1496,,,,,,155,0,155,0,1,,,,,
,,007485,001,2023-07-24_19h58.26.370,arm3_q,2022.2.5,Win32,6.002617141,5baba8dbc1155b0001174533,64aeaab685a29f4ca249be02,64bec9c519ee64e50445de58,right,1,0.95,0.35,19,-0.004181256,0.9528,,,,,,156,0,156,0,1,,,,,
,,007485,001,2023-07-24_19h58.26.370,arm3_q,2022.2.5,Win32,6.002617141,5baba8dbc1155b0001174533,64aeaab685a29f4ca249be02,64bec9c519ee64e50445de58,up,-1,0.95,0.35,20,0,0.7725,,,,,,157,0,157,0,1,,,,,
,,007485,001,2023-07-24_19h58.26.370,arm3_q,2022.2.5,Win32,6.002617141,5baba8dbc1155b0001174533,64aeaab685a29f4ca249be02,64bec9c519ee64e50445de58,right,-1,0.95,0.35,20,0.013716474,0.951,,,,,,158,0,158,0,1,,,,,
,,007485,001,2023-07-24_19h58.26.370,arm3_q,2022.2.5,Win32,6.002617141,5baba8dbc1155b0001174533,64aeaab685a29f4ca249be02,64bec9c519ee64e50445de58,down,1,0.95,0.35,20,0,0.7814,,,,,,159,0,159,0,1,,,,,
,,007485,001,2023-07-24_19h58.26.370,arm3_q,2022.2.5,Win32,6.002617141,5baba8dbc1155b0001174533,64aeaab685a29f4ca249be02,64bec9c519ee64e50445de58,right,1,0.95,0.35,20,0.010235917,0.9485,,,,,,160,0,160,0,1,,,,,
,,007485,001,2023-07-24_19h58.26.370,arm3_q,2022.2.5,Win32,6.002617141,5baba8dbc1155b0001174533,64aeaab685a29f4ca249be02,64bec9c519ee64e50445de58,down,1,0.95,0.35,19,0,0.6055,,,,,,161,0,161,0,1,,,,,
,,007485,001,2023-07-24_19h58.26.370,arm3_q,2022.2.5,Win32,6.002617141,5baba8dbc1155b0001174533,64aeaab685a29f4ca249be02,64bec9c519ee64e50445de58,right,1,0.95,0.35,19,0.016753471,0.9623,,,,,,162,0,162,0,1,,,,,
,,007485,001,2023-07-24_19h58.26.370,arm3_q,2022.2.5,Win32,6.002617141,5baba8dbc1155b0001174533,64aeaab685a29f4ca249be02,64bec9c519ee64e50445de58,down,1,0.95,0.35,18,0,0.7617,,,,,,163,0,163,0,1,,,,,
,,007485,001,2023-07-24_19h58.26.370,arm3_q,2022.2.5,Win32,6.002617141,5baba8dbc1155b0001174533,64aeaab685a29f4ca249be02,64bec9c519ee64e50445de58,right,1,0.95,0.35,18,0.002592929,0.9437,,,,,,164,0,164,0,1,,,,,
,,007485,001,2023-07-24_19h58.26.370,arm3_q,2022.2.5,Win32,6.002617141,5baba8dbc1155b0001174533,64aeaab685a29f4ca249be02,64bec9c519ee64e50445de58,right,1,0.95,0.35,18,0.015542478,0.5852,,,,,,165,0,165,0,1,,,,,
,,007485,001,2023-07-24_19h58.26.370,arm3_q,2022.2.5,Win32,6.002617141,5baba8dbc1155b0001174533,64aeaab685a29f4ca249be02,64bec9c519ee64e50445de58,up,1,0.95,0.35,19,0,0.5942,,,,,,166,0,166,0,1,,,,,
,,007485,001,2023-07-24_19h58.26.370,arm3_q,2022.2.5,Win32,6.002617141,5baba8dbc1155b0001174533,64aeaab685a29f4ca249be02,64bec9c519ee64e50445de58,right,1,0.95,0.35,19,0.044841624,0.9913,,,,,,167,0,167,0,1,,,,,
,,007485,001,2023-07-24_19h58.26.370,arm3_q,2022.2.5,Win32,6.002617141,5baba8dbc1155b0001174533,64aeaab685a29f4ca249be02,64bec9c519ee64e50445de58,right,1,0.95,0.35,19,0.049166153,0.0107,,,,,,168,0,168,0,1,,,,,
,,007485,001,2023-07-24_19h58.26.370,arm3_q,2022.2.5,Win32,6.002617141,5baba8dbc1155b0001174533,64aeaab685a29f4ca249be02,64bec9c519ee64e50445de58,up,1,0.95,0.35,20,0,0.5482,,,,,,169,0,169,0,1,,,,,
,,007485,001,2023-07-24_19h58.26.370,arm3_q,2022.2.5,Win32,6.002617141,5baba8dbc1155b0001174533,64aeaab685a29f4ca249be02,64bec9c519ee64e50445de58,right,1,0.95,0.35,20,0.026115389,0.7604,,,,,,170,0,170,0,1,,,,,
,,007485,001,2023-07-24_19h58.26.370,arm3_q,2022.2.5,Win32,6.002617141,5baba8dbc1155b0001174533,64aeaab685a29f4ca249be02,64bec9c519ee64e50445de58,right,1,0.95,0.35,20,0.025243372,0.0231,,,,,,171,0,171,0,1,,,,,
,,007485,001,2023-07-24_19h58.26.370,arm3_q,2022.2.5,Win32,6.002617141,5baba8dbc1155b0001174533,64aeaab685a29f4ca249be02,64bec9c519ee64e50445de58,up,1,0.95,0.35,21,0,0.4068,,,,,,172,0,172,0,1,,,,,
,,007485,001,2023-07-24_19h58.26.370,arm3_q,2022.2.5,Win32,6.002617141,5baba8dbc1155b0001174533,64aeaab685a29f4ca249be02,64bec9c519ee64e50445de58,right,1,0.95,0.35,21,0.005068198,1.1164,,,,,,173,0,173,0,1,,,,,
,,007485,001,2023-07-24_19h58.26.370,arm3_q,2022.2.5,Win32,6.002617141,5baba8dbc1155b0001174533,64aeaab685a29f4ca249be02,64bec9c519ee64e50445de58,right,1,0.95,0.35,21,0.009806334,0.0107,,,,,,174,0,174,0,1,,,,,
,,007485,001,2023-07-24_19h58.26.370,arm3_q,2022.2.5,Win32,6.002617141,5baba8dbc1155b0001174533,64aeaab685a29f4ca249be02,64bec9c519ee64e50445de58,right,1,0.95,0.35,21,0.005975107,2.3197,,,,,,175,0,175,0,1,,,,,
,,007485,001,2023-07-24_19h58.26.370,arm3_q,2022.2.5,Win32,6.002617141,5baba8dbc1155b0001174533,64aeaab685a29f4ca249be02,64bec9c519ee64e50445de58,up,-1,0.95,0.35,22,0,0.7642,,,,,,176,0,176,0,1,,,,,
,,007485,001,2023-07-24_19h58.26.370,arm3_q,2022.2.5,Win32,6.002617141,5baba8dbc1155b0001174533,64aeaab685a29f4ca249be02,64bec9c519ee64e50445de58,right,-1,0.95,0.35,22,0.016851497,0.7643,,,,,,177,0,177,0,1,,,,,
,,007485,001,2023-07-24_19h58.26.370,arm3_q,2022.2.5,Win32,6.002617141,5baba8dbc1155b0001174533,64aeaab685a29f4ca249be02,64bec9c519ee64e50445de58,right,-1,0.95,0.35,22,0.022352956,0.0129,,,,,,178,0,178,0,1,,,,,
,,007485,001,2023-07-24_19h58.26.370,arm3_q,2022.2.5,Win32,6.002617141,5baba8dbc1155b0001174533,64aeaab685a29f4ca249be02,64bec9c519ee64e50445de58,down,-1,0.95,0.35,23,0,1.3426,,,,,,179,0,179,0,1,,,,,
,,007485,001,2023-07-24_19h58.26.370,arm3_q,2022.2.5,Win32,6.002617141,5baba8dbc1155b0001174533,64aeaab685a29f4ca249be02,64bec9c519ee64e50445de58,right,-1,0.95,0.35,23,-0.015426854,0.8228,,,,,,180,0,180,0,1,,,,,
,,007485,001,2023-07-24_19h58.26.370,arm3_q,2022.2.5,Win32,6.002617141,5baba8dbc1155b0001174533,64aeaab685a29f4ca249be02,64bec9c519ee64e50445de58,right,-1,0.95,0.35,23,-0.02878097,0.0133,,,,,,181,0,181,0,1,,,,,
,,007485,001,2023-07-24_19h58.26.370,arm3_q,2022.2.5,Win32,6.002617141,5baba8dbc1155b0001174533,64aeaab685a29f4ca249be02,64bec9c519ee64e50445de58,down,-1,0.95,0.35,24,0,0.5957,,,,,,182,0,182,0,1,,,,,
,,007485,001,2023-07-24_19h58.26.370,arm3_q,2022.2.5,Win32,6.002617141,5baba8dbc1155b0001174533,64aeaab685a29f4ca249be02,64bec9c519ee64e50445de58,right,-1,0.95,0.35,24,0.000454251,0.8086,,,,,,183,0,183,0,1,,,,,
,,007485,001,2023-07-24_19h58.26.370,arm3_q,2022.2.5,Win32,6.002617141,5baba8dbc1155b0001174533,64aeaab685a29f4ca249be02,64bec9c519ee64e50445de58,right,-1,0.95,0.35,24,-0.022999099,0.0115,,,,,,184,0,184,0,1,,,,,
,,007485,001,2023-07-24_19h58.26.370,arm3_q,2022.2.5,Win32,6.002617141,5baba8dbc1155b0001174533,64aeaab685a29f4ca249be02,64bec9c519ee64e50445de58,down,1,0.95,0.35,25,0,1.8919,,,,,,185,0,185,0,1,,,,,
,,007485,001,2023-07-24_19h58.26.370,arm3_q,2022.2.5,Win32,6.002617141,5baba8dbc1155b0001174533,64aeaab685a29f4ca249be02,64bec9c519ee64e50445de58,right,1,0.95,0.35,25,0.02882486,0.7706,,,,,,186,0,186,0,1,,,,,
,,007485,001,2023-07-24_19h58.26.370,arm3_q,2022.2.5,Win32,6.002617141,5baba8dbc1155b0001174533,64aeaab685a29f4ca249be02,64bec9c519ee64e50445de58,right,1,0.95,0.35,25,0.078366062,0.0105,,,,,,187,0,187,0,1,,,,,
,,007485,001,2023-07-24_19h58.26.370,arm3_q,2022.2.5,Win32,6.002617141,5baba8dbc1155b0001174533,64aeaab685a29f4ca249be02,64bec9c519ee64e50445de58,up,1,0.95,0.35,26,0,0.3823,,,,,,188,0,188,0,1,,,,,
,,007485,001,2023-07-24_19h58.26.370,arm3_q,2022.2.5,Win32,6.002617141,5baba8dbc1155b0001174533,64aeaab685a29f4ca249be02,64bec9c519ee64e50445de58,right,1,0.95,0.35,26,0.021146964,0.7588,,,,,,189,0,189,0,1,,,,,
,,007485,001,2023-07-24_19h58.26.370,arm3_q,2022.2.5,Win32,6.002617141,5baba8dbc1155b0001174533,64aeaab685a29f4ca249be02,64bec9c519ee64e50445de58,right,1,0.95,0.35,26,0.023430604,0.0106,,,,,,190,0,190,0,1,,,,,
,,007485,001,2023-07-24_19h58.26.370,arm3_q,2022.2.5,Win32,6.002617141,5baba8dbc1155b0001174533,64aeaab685a29f4ca249be02,64bec9c519ee64e50445de58,down,-1,0.95,0.35,25,0,0.5933,,,,,,191,0,191,0,1,,,,,
,,007485,001,2023-07-24_19h58.26.370,arm3_q,2022.2.5,Win32,6.002617141,5baba8dbc1155b0001174533,64aeaab685a29f4ca249be02,64bec9c519ee64e50445de58,right,-1,0.95,0.35,25,-0.011726889,0.7928,,,,,,192,0,192,0,1,,,,,
,,007485,001,2023-07-24_19h58.26.370,arm3_q,2022.2.5,Win32,6.002617141,5baba8dbc1155b0001174533,64aeaab685a29f4ca249be02,64bec9c519ee64e50445de58,right,-1,0.95,0.35,25,-0.006528652,0.0097,,,,,,193,0,193,0,1,,,,,
,,007485,001,2023-07-24_19h58.26.370,arm3_q,2022.2.5,Win32,6.002617141,5baba8dbc1155b0001174533,64aeaab685a29f4ca249be02,64bec9c519ee64e50445de58,down,1,0.95,0.35,26,0,0.4043,,,,,,194,0,194,0,1,,,,,
,,007485,001,2023-07-24_19h58.26.370,arm3_q,2022.2.5,Win32,6.002617141,5baba8dbc1155b0001174533,64aeaab685a29f4ca249be02,64bec9c519ee64e50445de58,right,1,0.95,0.35,26,0.034928117,0.5731,,,,,,195,0,195,0,1,,,,,
,,007485,001,2023-07-24_19h58.26.370,arm3_q,2022.2.5,Win32,6.002617141,5baba8dbc1155b0001174533,64aeaab685a29f4ca249be02,64bec9c519ee64e50445de58,right,1,0.95,0.35,26,0.042731651,0.0099,,,,,,196,0,196,0,1,,,,,
,,007485,001,2023-07-24_19h58.26.370,arm3_q,2022.2.5,Win32,6.002617141,5baba8dbc1155b0001174533,64aeaab685a29f4ca249be02,64bec9c519ee64e50445de58,up,1,0.95,0.35,27,0,0.3883,,,,,,197,0,197,0,1,,,,,
,,007485,001,2023-07-24_19h58.26.370,arm3_q,2022.2.5,Win32,6.002617141,5baba8dbc1155b0001174533,64aeaab685a29f4ca249be02,64bec9c519ee64e50445de58,right,1,0.95,0.35,27,0.041036771,0.5711,,,,,,198,0,198,0,1,,,,,
,,007485,001,2023-07-24_19h58.26.370,arm3_q,2022.2.5,Win32,6.002617141,5baba8dbc1155b0001174533,64aeaab685a29f4ca249be02,64bec9c519ee64e50445de58,right,1,0.95,0.35,27,0.018071828,0.012,,,,,,199,0,199,0,1,,,,,
,,007485,001,2023-07-24_19h58.26.370,arm3_q,2022.2.5,Win32,6.002617141,5baba8dbc1155b0001174533,64aeaab685a29f4ca249be02,64bec9c519ee64e50445de58,up,1,0.95,0.35,28,0,0.9412,,,,,,200,0,200,0,1,,,,,
,,007485,001,2023-07-24_19h58.26.370,arm3_q,2022.2.5,Win32,6.002617141,5baba8dbc1155b0001174533,64aeaab685a29f4ca249be02,64bec9c519ee64e50445de58,right,1,0.95,0.35,28,0.004844562,0.5803,,,,,,201,0,201,0,1,,,,,
,,007485,001,2023-07-24_19h58.26.370,arm3_q,2022.2.5,Win32,6.002617141,5baba8dbc1155b0001174533,64aeaab685a29f4ca249be02,64bec9c519ee64e50445de58,right,1,0.95,0.35,28,0.011636882,0.0095,,,,,,202,0,202,0,1,,,,,
,,007485,001,2023-07-24_19h58.26.370,arm3_q,2022.2.5,Win32,6.002617141,5baba8dbc1155b0001174533,64aeaab685a29f4ca249be02,64bec9c519ee64e50445de58,down,-1,0.95,0.35,27,0,0.3766,,,,,,203,0,203,0,1,,,,,
,,007485,001,2023-07-24_19h58.26.370,arm3_q,2022.2.5,Win32,6.002617141,5baba8dbc1155b0001174533,64aeaab685a29f4ca249be02,64bec9c519ee64e50445de58,right,-1,0.95,0.35,27,-0.006969783,0.9624,,,,,,204,0,204,0,1,,,,,
,,007485,001,2023-07-24_19h58.26.370,arm3_q,2022.2.5,Win32,6.002617141,5baba8dbc1155b0001174533,64aeaab685a29f4ca249be02,64bec9c519ee64e50445de58,right,-1,0.95,0.35,27,-0.0219873,0.0207,,,,,,205,0,205,0,1,,,,,
,,007485,001,2023-07-24_19h58.26.370,arm3_q,2022.2.5,Win32,6.002617141,5baba8dbc1155b0001174533,64aeaab685a29f4ca249be02,64bec9c519ee64e50445de58,down,-1,0.95,0.35,28,0,0.4169,,,,,,206,0,206,0,1,,,,,
,,007485,001,2023-07-24_19h58.26.370,arm3_q,2022.2.5,Win32,6.002617141,5baba8dbc1155b0001174533,64aeaab685a29f4ca249be02,64bec9c519ee64e50445de58,right,-1,0.95,0.35,28,-0.019848757,0.9651,,,,,,207,0,207,0,1,,,,,
,,007485,001,2023-07-24_19h58.26.370,arm3_q,2022.2.5,Win32,6.002617141,5baba8dbc1155b0001174533,64aeaab685a29f4ca249be02,64bec9c519ee64e50445de58,right,-1,0.95,0.35,28,-0.026327319,0.0094,,,,,,208,0,208,0,1,,,,,
,,007485,001,2023-07-24_19h58.26.370,arm3_q,2022.2.5,Win32,6.002617141,5baba8dbc1155b0001174533,64aeaab685a29f4ca249be02,64bec9c519ee64e50445de58,down,1,0.95,0.35,29,0,0.7634,,,,,,209,0,209,0,1,,,,,
,,007485,001,2023-07-24_19h58.26.370,arm3_q,2022.2.5,Win32,6.002617141,5baba8dbc1155b0001174533,64aeaab685a29f4ca249be02,64bec9c519ee64e50445de58,right,1,0.95,0.35,29,0.002103118,0.9772,,,,,,210,0,210,0,1,,,,,
,,007485,001,2023-07-24_19h58.26.370,arm3_q,2022.2.5,Win32,6.002617141,5baba8dbc1155b0001174533,64aeaab685a29f4ca249be02,64bec9c519ee64e50445de58,right,1,0.95,0.35,29,0.031488492,0.0117,,,,,,211,0,211,0,1,,,,,
,,007485,001,2023-07-24_19h58.26.370,arm3_q,2022.2.5,Win32,6.002617141,5baba8dbc1155b0001174533,64aeaab685a29f4ca249be02,64bec9c519ee64e50445de58,up,1,0.95,0.35,30,0,0.5769,,,,,,212,0,212,0,1,,,,,
,,007485,001,2023-07-24_19h58.26.370,arm3_q,2022.2.5,Win32,6.002617141,5baba8dbc1155b0001174533,64aeaab685a29f4ca249be02,64bec9c519ee64e50445de58,right,1,0.95,0.35,30,0.022175445,0.808,,,,,,213,0,213,0,1,,,,,
,,007485,001,2023-07-24_19h58.26.370,arm3_q,2022.2.5,Win32,6.002617141,5baba8dbc1155b0001174533,64aeaab685a29f4ca249be02,64bec9c519ee64e50445de58,right,1,0.95,0.35,30,0.043656326,0.0104,,,,,,214,0,214,0,1,,,,,
,,007485,001,2023-07-24_19h58.26.370,arm3_q,2022.2.5,Win32,6.002617141,5baba8dbc1155b0001174533,64aeaab685a29f4ca249be02,64bec9c519ee64e50445de58,up,1,0.95,0.35,31,0,0.8098,,,,,,215,0,215,0,1,,,,,
,,007485,001,2023-07-24_19h58.26.370,arm3_q,2022.2.5,Win32,6.002617141,5baba8dbc1155b0001174533,64aeaab685a29f4ca249be02,64bec9c519ee64e50445de58,right,1,0.95,0.35,31,0.001419868,0.7671,,,,,,216,0,216,0,1,,,,,
,,007485,001,2023-07-24_19h58.26.370,arm3_q,2022.2.5,Win32,6.002617141,5baba8dbc1155b0001174533,64aeaab685a29f4ca249be02,64bec9c519ee64e50445de58,right,1,0.95,0.35,31,0.009715538,0.0098,,,,,,217,0,217,0,1,,,,,
,,007485,001,2023-07-24_19h58.26.370,arm3_q,2022.2.5,Win32,6.002617141,5baba8dbc1155b0001174533,64aeaab685a29f4ca249be02,64bec9c519ee64e50445de58,down,-1,0.95,0.35,30,0,0.5721,,,,,,218,0,218,0,1,,,,,
,,007485,001,2023-07-24_19h58.26.370,arm3_q,2022.2.5,Win32,6.002617141,5baba8dbc1155b0001174533,64aeaab685a29f4ca249be02,64bec9c519ee64e50445de58,right,-1,0.95,0.35,30,0.003355014,0.9716,,,,,,219,0,219,0,1,,,,,
,,007485,001,2023-07-24_19h58.26.370,arm3_q,2022.2.5,Win32,6.002617141,5baba8dbc1155b0001174533,64aeaab685a29f4ca249be02,64bec9c519ee64e50445de58,right,-1,0.95,0.35,30,0.009530265,0.0143,,,,,,220,0,220,0,1,,,,,
,,007485,001,2023-07-24_19h58.26.370,arm3_q,2022.2.5,Win32,6.002617141,5baba8dbc1155b0001174533,64aeaab685a29f4ca249be02,64bec9c519ee64e50445de58,right,-1,0.95,0.35,30,-0.004199772,0.7661,,,,,,221,0,221,0,1,,,,,
,,007485,001,2023-07-24_19h58.26.370,arm3_q,2022.2.5,Win32,6.002617141,5baba8dbc1155b0001174533,64aeaab685a29f4ca249be02,64bec9c519ee64e50445de58,up,-1,0.95,0.35,29,0,0.5754,,,,,,222,0,222,0,1,,,,,
,,007485,001,2023-07-24_19h58.26.370,arm3_q,2022.2.5,Win32,6.002617141,5baba8dbc1155b0001174533,64aeaab685a29f4ca249be02,64bec9c519ee64e50445de58,right,-1,0.95,0.35,29,0.000619056,0.9654,,,,,,223,0,223,0,1,,,,,
,,007485,001,2023-07-24_19h58.26.370,arm3_q,2022.2.5,Win32,6.002617141,5baba8dbc1155b0001174533,64aeaab685a29f4ca249be02,64bec9c519ee64e50445de58,right,-1,0.95,0.35,29,-0.030533485,0.0095,,,,,,224,0,224,0,1,,,,,
,,007485,001,2023-07-24_19h58.26.370,arm3_q,2022.2.5,Win32,6.002617141,5baba8dbc1155b0001174533,64aeaab685a29f4ca249be02,64bec9c519ee64e50445de58,right,-1,0.95,0.35,29,-0.039199649,0.0122,,,,,,225,0,225,0,1,,,,,
,,007485,001,2023-07-24_19h58.26.370,arm3_q,2022.2.5,Win32,6.002617141,5baba8dbc1155b0001174533,64aeaab685a29f4ca249be02,64bec9c519ee64e50445de58,down,-1,0.95,0.35,30,0,0.3972,,,,,,226,0,226,0,1,,,,,
,,007485,001,2023-07-24_19h58.26.370,arm3_q,2022.2.5,Win32,6.002617141,5baba8dbc1155b0001174533,64aeaab685a29f4ca249be02,64bec9c519ee64e50445de58,right,-1,0.95,0.35,30,-0.001038628,0.7482,,,,,,227,0,227,0,1,,,,,
,,007485,001,2023-07-24_19h58.26.370,arm3_q,2022.2.5,Win32,6.002617141,5baba8dbc1155b0001174533,64aeaab685a29f4ca249be02,64bec9c519ee64e50445de58,right,-1,0.95,0.35,30,-0.02627664,0.2083,,,,,,228,0,228,0,1,,,,,
,,007485,001,2023-07-24_19h58.26.370,arm3_q,2022.2.5,Win32,6.002617141,5baba8dbc1155b0001174533,64aeaab685a29f4ca249be02,64bec9c519ee64e50445de58,down,-1,0.95,0.35,31,0,0.2044,,,,,,229,0,229,0,1,,,,,
,,007485,001,2023-07-24_19h58.26.370,arm3_q,2022.2.5,Win32,6.002617141,5baba8dbc1155b0001174533,64aeaab685a29f4ca249be02,64bec9c519ee64e50445de58,right,-1,0.95,0.35,31,0.008405009,0.7723,,,,,,230,0,230,0,1,,,,,
,,007485,001,2023-07-24_19h58.26.370,arm3_q,2022.2.5,Win32,6.002617141,5baba8dbc1155b0001174533,64aeaab685a29f4ca249be02,64bec9c519ee64e50445de58,right,-1,0.95,0.35,31,-0.033484219,0.0136,,,,,,231,0,231,0,1,,,,,
,,007485,001,2023-07-24_19h58.26.370,arm3_q,2022.2.5,Win32,6.002617141,5baba8dbc1155b0001174533,64aeaab685a29f4ca249be02,64bec9c519ee64e50445de58,down,-1,0.95,0.35,32,0,0.5743,,,,,,232,0,232,0,1,,,,,
,,007485,001,2023-07-24_19h58.26.370,arm3_q,2022.2.5,Win32,6.002617141,5baba8dbc1155b0001174533,64aeaab685a29f4ca249be02,64bec9c519ee64e50445de58,right,-1,0.95,0.35,32,-0.039732294,0.578,,,,,,233,0,233,0,1,,,,,
,,007485,001,2023-07-24_19h58.26.370,arm3_q,2022.2.5,Win32,6.002617141,5baba8dbc1155b0001174533,64aeaab685a29f4ca249be02,64bec9c519ee64e50445de58,right,-1,0.95,0.35,32,-0.062915748,0.0106,,,,,,234,0,234,0,1,,,,,
,,007485,001,2023-07-24_19h58.26.370,arm3_q,2022.2.5,Win32,6.002617141,5baba8dbc1155b0001174533,64aeaab685a29f4ca249be02,64bec9c519ee64e50445de58,right,-1,0.95,0.35,32,-0.05224986,0.0111,,,,,,235,0,235,0,1,,,,,
,,007485,001,2023-07-24_19h58.26.370,arm3_q,2022.2.5,Win32,6.002617141,5baba8dbc1155b0001174533,64aeaab685a29f4ca249be02,64bec9c519ee64e50445de58,down,1,0.95,0.35,33,0,0.2099,,,,,,236,0,236,0,1,,,,,
,,007485,001,2023-07-24_19h58.26.370,arm3_q,2022.2.5,Win32,6.002617141,5baba8dbc1155b0001174533,64aeaab685a29f4ca249be02,64bec9c519ee64e50445de58,right,1,0.95,0.35,33,0.034178675,0.3756,,,,,,237,0,237,0,1,,,,,
,,007485,001,2023-07-24_19h58.26.370,arm3_q,2022.2.5,Win32,6.002617141,5baba8dbc1155b0001174533,64aeaab685a29f4ca249be02,64bec9c519ee64e50445de58,right,1,0.95,0.35,33,0.059728193,0.0139,,,,,,238,0,238,0,1,,,,,
,,007485,001,2023-07-24_19h58.26.370,arm3_q,2022.2.5,Win32,6.002617141,5baba8dbc1155b0001174533,64aeaab685a29f4ca249be02,64bec9c519ee64e50445de58,right,1,0.95,0.35,33,0.065236916,0.0098,,,,,,239,0,239,0,1,,,,,
,,007485,001,2023-07-24_19h58.26.370,arm3_q,2022.2.5,Win32,6.002617141,5baba8dbc1155b0001174533,64aeaab685a29f4ca249be02,64bec9c519ee64e50445de58,up,1,0.95,0.35,34,0,0.3798,,,,,,240,0,240,0,1,,,,,
,,007485,001,2023-07-24_19h58.26.370,arm3_q,2022.2.5,Win32,6.002617141,5baba8dbc1155b0001174533,64aeaab685a29f4ca249be02,64bec9c519ee64e50445de58,right,1,0.95,0.35,34,0.002825892,0.3888,,,,,,241,0,241,0,1,,,,,
,,007485,001,2023-07-24_19h58.26.370,arm3_q,2022.2.5,Win32,6.002617141,5baba8dbc1155b0001174533,64aeaab685a29f4ca249be02,64bec9c519ee64e50445de58,right,1,0.95,0.35,34,-0.010056241,0.0108,,,,,,242,0,242,0,1,,,,,
,,007485,001,2023-07-24_19h58.26.370,arm3_q,2022.2.5,Win32,6.002617141,5baba8dbc1155b0001174533,64aeaab685a29f4ca249be02,64bec9c519ee64e50445de58,down,1,0.95,0.35,33,0,0.3841,,,,,,243,0,243,0,1,,,,,
,,007485,001,2023-07-24_19h58.26.370,arm3_q,2022.2.5,Win32,6.002617141,5baba8dbc1155b0001174533,64aeaab685a29f4ca249be02,64bec9c519ee64e50445de58,right,1,0.95,0.35,33,0.002134486,0.9595,,,,,,244,0,244,0,1,,,,,
,,007485,001,2023-07-24_19h58.26.370,arm3_q,2022.2.5,Win32,6.002617141,5baba8dbc1155b0001174533,64aeaab685a29f4ca249be02,64bec9c519ee64e50445de58,right,1,0.95,0.35,33,-0.000184587,0.0135,,,,,,245,0,245,0,1,,,,,
,,007485,001,2023-07-24_19h58.26.370,arm3_q,2022.2.5,Win32,6.002617141,5baba8dbc1155b0001174533,64aeaab685a29f4ca249be02,64bec9c519ee64e50445de58,right,1,0.95,0.35,33,-0.003368278,1.4213,,,,,,246,0,246,0,1,,,,,
,,007485,001,2023-07-24_19h58.26.370,arm3_q,2022.2.5,Win32,6.002617141,5baba8dbc1155b0001174533,64aeaab685a29f4ca249be02,64bec9c519ee64e50445de58,up,1,0.95,0.35,34,0,0.756,,,,,,247,0,247,0,1,,,,,
,,007485,001,2023-07-24_19h58.26.370,arm3_q,2022.2.5,Win32,6.002617141,5baba8dbc1155b0001174533,64aeaab685a29f4ca249be02,64bec9c519ee64e50445de58,right,1,0.95,0.35,34,-0.00066731,1.1597,,,,,,248,0,248,0,1,,,,,
,,007485,001,2023-07-24_19h58.26.370,arm3_q,2022.2.5,Win32,6.002617141,5baba8dbc1155b0001174533,64aeaab685a29f4ca249be02,64bec9c519ee64e50445de58,right,1,0.95,0.35,34,-0.013824849,1.0256,,,,,,249,0,249,0,1,,,,,
,,007485,001,2023-07-24_19h58.26.370,arm3_q,2022.2.5,Win32,6.002617141,5baba8dbc1155b0001174533,64aeaab685a29f4ca249be02,64bec9c519ee64e50445de58,down,-1,0.95,0.35,33,0,0.2281,,,,,,250,0,250,0,1,,,,,
,,007485,001,2023-07-24_19h58.26.370,arm3_q,2022.2.5,Win32,6.002617141,5baba8dbc1155b0001174533,64aeaab685a29f4ca249be02,64bec9c519ee64e50445de58,right,-1,0.95,0.35,33,0.004500624,0.8295,,,,,,251,0,251,0,1,,,,,
,,007485,001,2023-07-24_19h58.26.370,arm3_q,2022.2.5,Win32,6.002617141,5baba8dbc1155b0001174533,64aeaab685a29f4ca249be02,64bec9c519ee64e50445de58,right,-1,0.95,0.35,33,0.00871964,0.2189,,,,,,252,0,252,0,1,,,,,
,,007485,001,2023-07-24_19h58.26.370,arm3_q,2022.2.5,Win32,6.002617141,5baba8dbc1155b0001174533,64aeaab685a29f4ca249be02,64bec9c519ee64e50445de58,up,1,0.95,0.35,32,0,0.0108,,,,,,253,0,253,0,1,,,,,
,,007485,001,2023-07-24_19h58.26.370,arm3_q,2022.2.5,Win32,6.002617141,5baba8dbc1155b0001174533,64aeaab685a29f4ca249be02,64bec9c519ee64e50445de58,right,1,0.95,0.35,32,-0.007883047,1.0197,,,,,,254,0,254,0,1,,,,,
,,007485,001,2023-07-24_19h58.26.370,arm3_q,2022.2.5,Win32,6.002617141,5baba8dbc1155b0001174533,64aeaab685a29f4ca249be02,64bec9c519ee64e50445de58,right,1,0.95,0.35,32,0.001894282,0.0126,,,,,,255,0,255,0,1,,,,,
,,007485,001,2023-07-24_19h58.26.370,arm3_q,2022.2.5,Win32,6.002617141,5baba8dbc1155b0001174533,64aeaab685a29f4ca249be02,64bec9c519ee64e50445de58,up,1,0.95,0.35,33,0,0.0097,,,,,,256,0,256,0,1,,,,,
,,007485,001,2023-07-24_19h58.26.370,arm3_q,2022.2.5,Win32,6.002617141,5baba8dbc1155b0001174533,64aeaab685a29f4ca249be02,64bec9c519ee64e50445de58,right,1,0.95,0.35,33,-0.008650815,0.9341,,,,,,257,0,257,0,1,,,,,
,,007485,001,2023-07-24_19h58.26.370,arm3_q,2022.2.5,Win32,6.002617141,5baba8dbc1155b0001174533,64aeaab685a29f4ca249be02,64bec9c519ee64e50445de58,right,1,0.95,0.35,33,0.013924219,0.0132,,,,,,258,0,258,0,1,,,,,
,,007485,001,2023-07-24_19h58.26.370,arm3_q,2022.2.5,Win32,6.002617141,5baba8dbc1155b0001174533,64aeaab685a29f4ca249be02,64bec9c519ee64e50445de58,up,1,0.95,0.35,34,0,0.5711,,,,,,259,0,259,0,1,,,,,
,,007485,001,2023-07-24_19h58.26.370,arm3_q,2022.2.5,Win32,6.002617141,5baba8dbc1155b0001174533,64aeaab685a29f4ca249be02,64bec9c519ee64e50445de58,right,1,0.95,0.35,34,0.000465832,0.7464,,,,,,260,0,260,0,1,,,,,
,,007485,001,2023-07-24_19h58.26.370,arm3_q,2022.2.5,Win32,6.002617141,5baba8dbc1155b0001174533,64aeaab685a29f4ca249be02,64bec9c519ee64e50445de58,right,1,0.95,0.35,34,0.005294429,0.0124,,,,,,261,0,261,0,1,,,,,
,,007485,001,2023-07-24_19h58.26.370,arm3_q,2022.2.5,Win32,6.002617141,5baba8dbc1155b0001174533,64aeaab685a29f4ca249be02,64bec9c519ee64e50445de58,down,1,0.95,0.35,33,0,0.3817,,,,,,262,0,262,0,1,,,,,
,,007485,001,2023-07-24_19h58.26.370,arm3_q,2022.2.5,Win32,6.002617141,5baba8dbc1155b0001174533,64aeaab685a29f4ca249be02,64bec9c519ee64e50445de58,right,1,0.95,0.35,33,0.01116033,0.7808,,,,,,263,0,263,0,1,,,,,
,,007485,001,2023-07-24_19h58.26.370,arm3_q,2022.2.5,Win32,6.002617141,5baba8dbc1155b0001174533,64aeaab685a29f4ca249be02,64bec9c519ee64e50445de58,right,1,0.95,0.35,33,-0.008344779,0.0123,,,,,,264,0,264,0,1,,,,,
,,007485,001,2023-07-24_19h58.26.370,arm3_q,2022.2.5,Win32,6.002617141,5baba8dbc1155b0001174533,64aeaab685a29f4ca249be02,64bec9c519ee64e50445de58,down,1,0.95,0.35,32,0,0.5838,,,,,,265,0,265,0,1,,,,,
,,007485,001,2023-07-24_19h58.26.370,arm3_q,2022.2.5,Win32,6.002617141,5baba8dbc1155b0001174533,64aeaab685a29f4ca249be02,64bec9c519ee64e50445de58,right,1,0.95,0.35,32,-0.004516743,0.9163,,,,,,266,0,266,0,1,,,,,
,,007485,001,2023-07-24_19h58.26.370,arm3_q,2022.2.5,Win32,6.002617141,5baba8dbc1155b0001174533,64aeaab685a29f4ca249be02,64bec9c519ee64e50445de58,right,1,0.95,0.35,32,-0.012326815,0.0122,,,,,,267,0,267,0,1,,,,,
,,007485,001,2023-07-24_19h58.26.370,arm3_q,2022.2.5,Win32,6.002617141,5baba8dbc1155b0001174533,64aeaab685a29f4ca249be02,64bec9c519ee64e50445de58,right,1,0.95,0.35,32,0.010916932,0.01,,,,,,268,0,268,0,1,,,,,
,,007485,001,2023-07-24_19h58.26.370,arm3_q,2022.2.5,Win32,6.002617141,5baba8dbc1155b0001174533,64aeaab685a29f4ca249be02,64bec9c519ee64e50445de58,down,1,0.95,0.35,31,0,0.7688,,,,,,269,0,269,0,1,,,,,
,,007485,001,2023-07-24_19h58.26.370,arm3_q,2022.2.5,Win32,6.002617141,5baba8dbc1155b0001174533,64aeaab685a29f4ca249be02,64bec9c519ee64e50445de58,right,1,0.95,0.35,31,0.031413511,0.969,,,,,,270,0,270,0,1,,,,,
,,007485,001,2023-07-24_19h58.26.370,arm3_q,2022.2.5,Win32,6.002617141,5baba8dbc1155b0001174533,64aeaab685a29f4ca249be02,64bec9c519ee64e50445de58,right,1,0.95,0.35,31,0.045646104,0.0121,,,,,,271,0,271,0,1,,,,,
,,007485,001,2023-07-24_19h58.26.370,arm3_q,2022.2.5,Win32,6.002617141,5baba8dbc1155b0001174533,64aeaab685a29f4ca249be02,64bec9c519ee64e50445de58,up,-1,0.95,0.35,32,0,0.3996,,,,,,272,0,272,0,1,,,,,
,,007485,001,2023-07-24_19h58.26.370,arm3_q,2022.2.5,Win32,6.002617141,5baba8dbc1155b0001174533,64aeaab685a29f4ca249be02,64bec9c519ee64e50445de58,right,-1,0.95,0.35,32,-0.004531723,0.3765,,,,,,273,0,273,0,1,,,,,
,,007485,001,2023-07-24_19h58.26.370,arm3_q,2022.2.5,Win32,6.002617141,5baba8dbc1155b0001174533,64aeaab685a29f4ca249be02,64bec9c519ee64e50445de58,right,-1,0.95,0.35,32,-0.021653868,0.2083,,,,,,274,0,274,0,1,,,,,
,,007485,001,2023-07-24_19h58.26.370,arm3_q,2022.2.5,Win32,6.002617141,5baba8dbc1155b0001174533,64aeaab685a29f4ca249be02,64bec9c519ee64e50445de58,up,1,0.95,0.35,31,0,0.7688,,,,,,275,0,275,0,1,,,,,
,,007485,001,2023-07-24_19h58.26.370,arm3_q,2022.2.5,Win32,6.002617141,5baba8dbc1155b0001174533,64aeaab685a29f4ca249be02,64bec9c519ee64e50445de58,right,1,0.95,0.35,31,0.004233624,0.7732,,,,,,276,0,276,0,1,,,,,
,,007485,001,2023-07-24_19h58.26.370,arm3_q,2022.2.5,Win32,6.002617141,5baba8dbc1155b0001174533,64aeaab685a29f4ca249be02,64bec9c519ee64e50445de58,right,1,0.95,0.35,31,0.003340582,0.0175,,,,,,277,0,277,0,1,,,,,
,,007485,001,2023-07-24_19h58.26.370,arm3_q,2022.2.5,Win32,6.002617141,5baba8dbc1155b0001174533,64aeaab685a29f4ca249be02,64bec9c519ee64e50445de58,up,1,0.95,0.35,32,0,1.5058,,,,,,278,0,278,0,1,,,,,
,,007485,001,2023-07-24_19h58.26.370,arm3_q,2022.2.5,Win32,6.002617141,5baba8dbc1155b0001174533,64aeaab685a29f4ca249be02,64bec9c519ee64e50445de58,right,1,0.95,0.35,32,0.012178667,0.7996,,,,,,279,0,279,0,1,,,,,
,,007485,001,2023-07-24_19h58.26.370,arm3_q,2022.2.5,Win32,6.002617141,5baba8dbc1155b0001174533,64aeaab685a29f4ca249be02,64bec9c519ee64e50445de58,right,1,0.95,0.35,32,0.002215445,0.0099,,,,,,280,0,280,0,1,,,,,
,,007485,001,2023-07-24_19h58.26.370,arm3_q,2022.2.5,Win32,6.002617141,5baba8dbc1155b0001174533,64aeaab685a29f4ca249be02,64bec9c519ee64e50445de58,down,-1,0.95,0.35,31,0,1.3353,,,,,,281,0,281,0,1,,,,,
,,007485,001,2023-07-24_19h58.26.370,arm3_q,2022.2.5,Win32,6.002617141,5baba8dbc1155b0001174533,64aeaab685a29f4ca249be02,64bec9c519ee64e50445de58,right,-1,0.95,0.35,31,-0.004420114,0.7667,,,,,,282,0,282,0,1,,,,,
,,007485,001,2023-07-24_19h58.26.370,arm3_q,2022.2.5,Win32,6.002617141,5baba8dbc1155b0001174533,64aeaab685a29f4ca249be02,64bec9c519ee64e50445de58,right,-1,0.95,0.35,31,-0.000799524,0.0136,,,,,,283,0,283,0,1,,,,,
,,007485,001,2023-07-24_19h58.26.370,arm3_q,2022.2.5,Win32,6.002617141,5baba8dbc1155b0001174533,64aeaab685a29f4ca249be02,64bec9c519ee64e50445de58,up,-1,0.95,0.35,31,0,0.5703,,,,,,284,0,284,0,1,,,,,
,,007485,001,2023-07-24_19h58.26.370,arm3_q,2022.2.5,Win32,6.002617141,5baba8dbc1155b0001174533,64aeaab685a29f4ca249be02,64bec9c519ee64e50445de58,right,-1,0.95,0.35,31,0.038575117,1.3112,,,,,,285,0,285,0,1,,,,,
,,007485,001,2023-07-24_19h58.26.370,arm3_q,2022.2.5,Win32,6.002617141,5baba8dbc1155b0001174533,64aeaab685a29f4ca249be02,64bec9c519ee64e50445de58,down,-1,0.95,0.35,32,0,0.9491,,,,,,286,0,286,0,1,,,,,
,,007485,001,2023-07-24_19h58.26.370,arm3_q,2022.2.5,Win32,6.002617141,5baba8dbc1155b0001174533,64aeaab685a29f4ca249be02,64bec9c519ee64e50445de58,right,-1,0.95,0.35,32,0.005508691,0.9498,,,,,,287,0,287,0,1,,,,,
,,007485,001,2023-07-24_19h58.26.370,arm3_q,2022.2.5,Win32,6.002617141,5baba8dbc1155b0001174533,64aeaab685a29f4ca249be02,64bec9c519ee64e50445de58,right,-1,0.95,0.35,32,-0.020000126,0.0099,,,,,,288,0,288,0,1,,,,,
,,007485,001,2023-07-24_19h58.26.370,arm3_q,2022.2.5,Win32,6.002617141,5baba8dbc1155b0001174533,64aeaab685a29f4ca249be02,64bec9c519ee64e50445de58,down,-1,0.95,0.35,33,0,0.5855,,,,,,289,0,289,0,1,,,,,
,,007485,001,2023-07-24_19h58.26.370,arm3_q,2022.2.5,Win32,6.002617141,5baba8dbc1155b0001174533,64aeaab685a29f4ca249be02,64bec9c519ee64e50445de58,right,-1,0.95,0.35,33,-0.022799922,0.7599,,,,,,290,0,290,0,1,,,,,
,,007485,001,2023-07-24_19h58.26.370,arm3_q,2022.2.5,Win32,6.002617141,5baba8dbc1155b0001174533,64aeaab685a29f4ca249be02,64bec9c519ee64e50445de58,right,-1,0.95,0.35,33,-0.01941548,0.01,,,,,,291,0,291,0,1,,,,,
,,007485,001,2023-07-24_19h58.26.370,arm3_q,2022.2.5,Win32,6.002617141,5baba8dbc1155b0001174533,64aeaab685a29f4ca249be02,64bec9c519ee64e50445de58,right,-1,0.95,0.35,33,-0.034042168,0.552,,,,,,292,0,292,0,1,,,,,
,,007485,001,2023-07-24_19h58.26.370,arm3_q,2022.2.5,Win32,6.002617141,5baba8dbc1155b0001174533,64aeaab685a29f4ca249be02,64bec9c519ee64e50445de58,down,1,0.95,0.35,34,0,0.7601,,,,,,293,0,293,0,1,,,,,
,,007485,001,2023-07-24_19h58.26.370,arm3_q,2022.2.5,Win32,6.002617141,5baba8dbc1155b0001174533,64aeaab685a29f4ca249be02,64bec9c519ee64e50445de58,right,1,0.95,0.35,34,-0.014974326,0.7653,,,,,,294,0,294,0,1,,,,,
,,007485,001,2023-07-24_19h58.26.370,arm3_q,2022.2.5,Win32,6.002617141,5baba8dbc1155b0001174533,64aeaab685a29f4ca249be02,64bec9c519ee64e50445de58,right,1,0.95,0.35,34,-0.037573462,0.012,,,,,,295,0,295,0,1,,,,,
,,007485,001,2023-07-24_19h58.26.370,arm3_q,2022.2.5,Win32,6.002617141,5baba8dbc1155b0001174533,64aeaab685a29f4ca249be02,64bec9c519ee64e50445de58,up,-1,0.95,0.35,35,0,0.3928,,,,,,296,0,296,0,1,,,,,
,,007485,001,2023-07-24_19h58.26.370,arm3_q,2022.2.5,Win32,6.002617141,5baba8dbc1155b0001174533,64aeaab685a29f4ca249be02,64bec9c519ee64e50445de58,right,-1,0.95,0.35,35,-0.020064189,0.9524,,,,,,297,0,297,0,1,,,,,
,,007485,001,2023-07-24_19h58.26.370,arm3_q,2022.2.5,Win32,6.002617141,5baba8dbc1155b0001174533,64aeaab685a29f4ca249be02,64bec9c519ee64e50445de58,right,-1,0.95,0.35,35,-0.013803562,0.7891,,,,,,298,0,298,0,1,,,,,
,,007485,001,2023-07-24_19h58.26.370,arm3_q,2022.2.5,Win32,6.002617141,5baba8dbc1155b0001174533,64aeaab685a29f4ca249be02,64bec9c519ee64e50445de58,down,1,0.95,0.35,36,0,0.5578,,,,,,299,0,299,0,1,,,,,
,,007485,001,2023-07-24_19h58.26.370,arm3_q,2022.2.5,Win32,6.002617141,5baba8dbc1155b0001174533,64aeaab685a29f4ca249be02,64bec9c519ee64e50445de58,right,1,0.95,0.35,36,-0.009566988,0.7551,,,,,,300,0,300,0,1,,,,,
,,007485,001,2023-07-24_19h58.26.370,arm3_q,2022.2.5,Win32,6.002617141,5baba8dbc1155b0001174533,64aeaab685a29f4ca249be02,64bec9c519ee64e50445de58,right,1,0.95,0.35,36,0.033487416,0.2054,,,,,,301,0,301,0,1,,,,,
,,007485,001,2023-07-24_19h58.26.370,arm3_q,2022.2.5,Win32,6.002617141,5baba8dbc1155b0001174533,64aeaab685a29f4ca249be02,64bec9c519ee64e50445de58,up,1,0.95,0.35,37,0,2.4905,,,,,,302,0,302,0,1,,,,,
,,007485,001,2023-07-24_19h58.26.370,arm3_q,2022.2.5,Win32,6.002617141,5baba8dbc1155b0001174533,64aeaab685a29f4ca249be02,64bec9c519ee64e50445de58,right,1,0.95,0.35,37,0.012523031,0.769,,,,,,303,0,303,0,1,,,,,
,,007485,001,2023-07-24_19h58.26.370,arm3_q,2022.2.5,Win32,6.002617141,5baba8dbc1155b0001174533,64aeaab685a29f4ca249be02,64bec9c519ee64e50445de58,up,-1,0.95,0.35,38,0,0.9721,,,,,,304,0,304,0,1,,,,,
,,007485,001,2023-07-24_19h58.26.370,arm3_q,2022.2.5,Win32,6.002617141,5baba8dbc1155b0001174533,64aeaab685a29f4ca249be02,64bec9c519ee64e50445de58,right,-1,0.95,0.35,38,0.006916445,0.9716,,,,,,305,0,305,0,1,,,,,
,,007485,001,2023-07-24_19h58.26.370,arm3_q,2022.2.5,Win32,6.002617141,5baba8dbc1155b0001174533,64aeaab685a29f4ca249be02,64bec9c519ee64e50445de58,down,-1,0.95,0.35,39,0,1.1363,,,,,,306,0,306,0,1,,,,,
,,007485,001,2023-07-24_19h58.26.370,arm3_q,2022.2.5,Win32,6.002617141,5baba8dbc1155b0001174533,64aeaab685a29f4ca249be02,64bec9c519ee64e50445de58,right,-1,0.95,0.35,39,-0.037028578,0.943,,,,,,307,0,307,0,1,,,,,
,,007485,001,2023-07-24_19h58.26.370,arm3_q,2022.2.5,Win32,6.002617141,5baba8dbc1155b0001174533,64aeaab685a29f4ca249be02,64bec9c519ee64e50445de58,down,-1,0.95,0.35,40,0,0.7734,,,,,,308,0,308,0,1,,,,,
,,007485,001,2023-07-24_19h58.26.370,arm3_q,2022.2.5,Win32,6.002617141,5baba8dbc1155b0001174533,64aeaab685a29f4ca249be02,64bec9c519ee64e50445de58,right,-1,0.95,0.35,40,0.005357593,0.9558,,,,,,309,0,309,0,1,,,,,
,,007485,001,2023-07-24_19h58.26.370,arm3_q,2022.2.5,Win32,6.002617141,5baba8dbc1155b0001174533,64aeaab685a29f4ca249be02,64bec9c519ee64e50445de58,up,-1,0.95,0.35,39,0,0.7897,,,,,,310,0,310,0,1,,,,,
,,007485,001,2023-07-24_19h58.26.370,arm3_q,2022.2.5,Win32,6.002617141,5baba8dbc1155b0001174533,64aeaab685a29f4ca249be02,64bec9c519ee64e50445de58,right,-1,0.95,0.35,39,-0.016071673,0.7473,,,,,,311,0,311,0,1,,,,,
,,007485,001,2023-07-24_19h58.26.370,arm3_q,2022.2.5,Win32,6.002617141,5baba8dbc1155b0001174533,64aeaab685a29f4ca249be02,64bec9c519ee64e50445de58,right,-1,0.95,0.35,39,-0.03390712,0.3786,,,,,,312,0,312,0,1,,,,,
,,007485,001,2023-07-24_19h58.26.370,arm3_q,2022.2.5,Win32,6.002617141,5baba8dbc1155b0001174533,64aeaab685a29f4ca249be02,64bec9c519ee64e50445de58,down,-1,0.95,0.35,40,0,0.1863,,,,,,313,0,313,0,1,,,,,
,,007485,001,2023-07-24_19h58.26.370,arm3_q,2022.2.5,Win32,6.002617141,5baba8dbc1155b0001174533,64aeaab685a29f4ca249be02,64bec9c519ee64e50445de58,right,-1,0.95,0.35,40,0.002895457,0.7677,,,,,,314,0,314,0,1,,,,,
,,007485,001,2023-07-24_19h58.26.370,arm3_q,2022.2.5,Win32,6.002617141,5baba8dbc1155b0001174533,64aeaab685a29f4ca249be02,64bec9c519ee64e50445de58,right,-1,0.95,0.35,40,0.00279953,0.5981,,,,,,315,0,315,0,1,,,,,
,,007485,001,2023-07-24_19h58.26.370,arm3_q,2022.2.5,Win32,6.002617141,5baba8dbc1155b0001174533,64aeaab685a29f4ca249be02,64bec9c519ee64e50445de58,up,-1,0.95,0.35,39,0,0.1912,,,,,,316,0,316,0,1,,,,,
,,007485,001,2023-07-24_19h58.26.370,arm3_q,2022.2.5,Win32,6.002617141,5baba8dbc1155b0001174533,64aeaab685a29f4ca249be02,64bec9c519ee64e50445de58,right,-1,0.95,0.35,39,-0.012774491,0.9635,,,,,,317,0,317,0,1,,,,,
,,007485,001,2023-07-24_19h58.26.370,arm3_q,2022.2.5,Win32,6.002617141,5baba8dbc1155b0001174533,64aeaab685a29f4ca249be02,64bec9c519ee64e50445de58,right,-1,0.95,0.35,39,-0.012253537,0.0106,,,,,,318,0,318,0,1,,,,,
,,007485,001,2023-07-24_19h58.26.370,arm3_q,2022.2.5,Win32,6.002617141,5baba8dbc1155b0001174533,64aeaab685a29f4ca249be02,64bec9c519ee64e50445de58,down,1,0.95,0.35,40,0,0.5501,,,,,,319,0,319,0,1,,,,,
,,007485,001,2023-07-24_19h58.26.370,arm3_q,2022.2.5,Win32,6.002617141,5baba8dbc1155b0001174533,64aeaab685a29f4ca249be02,64bec9c519ee64e50445de58,right,1,0.95,0.35,40,0.034236025,0.7547,,,,,,320,0,320,0,1,,,,,
,,007485,001,2023-07-24_19h58.26.370,arm3_q,2022.2.5,Win32,6.002617141,5baba8dbc1155b0001174533,64aeaab685a29f4ca249be02,64bec9c519ee64e50445de58,right,1,0.95,0.35,40,0.056839358,0.013,,,,,,321,0,321,0,1,,,,,
,,007485,001,2023-07-24_19h58.26.370,arm3_q,2022.2.5,Win32,6.002617141,5baba8dbc1155b0001174533,64aeaab685a29f4ca249be02,64bec9c519ee64e50445de58,up,-1,0.95,0.35,41,0,0.3773,,,,,,322,0,322,0,1,,,,,
,,007485,001,2023-07-24_19h58.26.370,arm3_q,2022.2.5,Win32,6.002617141,5baba8dbc1155b0001174533,64aeaab685a29f4ca249be02,64bec9c519ee64e50445de58,right,-1,0.95,0.35,41,0.010449619,0.7748,,,,,,323,0,323,0,1,,,,,
,,007485,001,2023-07-24_19h58.26.370,arm3_q,2022.2.5,Win32,6.002617141,5baba8dbc1155b0001174533,64aeaab685a29f4ca249be02,64bec9c519ee64e50445de58,up,1,0.95,0.35,40,0,1.5404,,,,,,324,0,324,0,1,,,,,
,,007485,001,2023-07-24_19h58.26.370,arm3_q,2022.2.5,Win32,6.002617141,5baba8dbc1155b0001174533,64aeaab685a29f4ca249be02,64bec9c519ee64e50445de58,right,1,0.95,0.35,40,0.002647,0.9621,,,,,,325,0,325,0,1,,,,,
,,007485,001,2023-07-24_19h58.26.370,arm3_q,2022.2.5,Win32,6.002617141,5baba8dbc1155b0001174533,64aeaab685a29f4ca249be02,64bec9c519ee64e50445de58,up,1,0.95,0.35,41,0,0.7718,,,,,,326,0,326,0,1,,,,,
,,007485,001,2023-07-24_19h58.26.370,arm3_q,2022.2.5,Win32,6.002617141,5baba8dbc1155b0001174533,64aeaab685a29f4ca249be02,64bec9c519ee64e50445de58,right,1,0.95,0.35,41,0.027487517,0.9807,,,,,,327,0,327,0,1,,,,,
,,007485,001,2023-07-24_19h58.26.370,arm3_q,2022.2.5,Win32,6.002617141,5baba8dbc1155b0001174533,64aeaab685a29f4ca249be02,64bec9c519ee64e50445de58,up,-1,0.95,0.35,42,0,0.9579,,,,,,328,0,328,0,1,,,,,
,,007485,001,2023-07-24_19h58.26.370,arm3_q,2022.2.5,Win32,6.002617141,5baba8dbc1155b0001174533,64aeaab685a29f4ca249be02,64bec9c519ee64e50445de58,right,-1,0.95,0.35,42,-0.0342093,0.9489,,,,,,329,0,329,0,1,,,,,
,,007485,001,2023-07-24_19h58.26.370,arm3_q,2022.2.5,Win32,6.002617141,5baba8dbc1155b0001174533,64aeaab685a29f4ca249be02,64bec9c519ee64e50445de58,down,-1,0.95,0.35,43,0,0.7631,,,,,,330,0,330,0,1,,,,,
,,007485,001,2023-07-24_19h58.26.370,arm3_q,2022.2.5,Win32,6.002617141,5baba8dbc1155b0001174533,64aeaab685a29f4ca249be02,64bec9c519ee64e50445de58,right,-1,0.95,0.35,43,-0.006015154,0.7682,,,,,,331,0,331,0,1,,,,,
,,007485,001,2023-07-24_19h58.26.370,arm3_q,2022.2.5,Win32,6.002617141,5baba8dbc1155b0001174533,64aeaab685a29f4ca249be02,64bec9c519ee64e50445de58,down,-1,0.95,0.35,44,0,0.7923,,,,,,332,0,332,0,1,,,,,
,,007485,001,2023-07-24_19h58.26.370,arm3_q,2022.2.5,Win32,6.002617141,5baba8dbc1155b0001174533,64aeaab685a29f4ca249be02,64bec9c519ee64e50445de58,right,-1,0.95,0.35,44,-0.018903528,0.7642,,,,,,333,0,333,0,1,,,,,
,,007485,001,2023-07-24_19h58.26.370,arm3_q,2022.2.5,Win32,6.002617141,5baba8dbc1155b0001174533,64aeaab685a29f4ca249be02,64bec9c519ee64e50445de58,right,-1,0.95,0.35,44,-0.029774364,0.793,,,,,,334,0,334,0,1,,,,,
,,007485,001,2023-07-24_19h58.26.370,arm3_q,2022.2.5,Win32,6.002617141,5baba8dbc1155b0001174533,64aeaab685a29f4ca249be02,64bec9c519ee64e50445de58,down,-1,0.95,0.35,45,0,0.4078,,,,,,335,0,335,0,1,,,,,
,,007485,001,2023-07-24_19h58.26.370,arm3_q,2022.2.5,Win32,6.002617141,5baba8dbc1155b0001174533,64aeaab685a29f4ca249be02,64bec9c519ee64e50445de58,right,-1,0.95,0.35,45,0.023077228,0.9432,,,,,,336,0,336,0,1,,,,,
,,007485,001,2023-07-24_19h58.26.370,arm3_q,2022.2.5,Win32,6.002617141,5baba8dbc1155b0001174533,64aeaab685a29f4ca249be02,64bec9c519ee64e50445de58,up,1,0.95,0.35,44,0,0.3739,,,,,,337,0,337,0,1,,,,,
,,007485,001,2023-07-24_19h58.26.370,arm3_q,2022.2.5,Win32,6.002617141,5baba8dbc1155b0001174533,64aeaab685a29f4ca249be02,64bec9c519ee64e50445de58,right,1,0.95,0.35,44,0.007575585,0.929,,,,,,338,0,338,0,1,,,,,
,,007485,001,2023-07-24_19h58.26.370,arm3_q,2022.2.5,Win32,6.002617141,5baba8dbc1155b0001174533,64aeaab685a29f4ca249be02,64bec9c519ee64e50445de58,up,-1,0.95,0.35,45,0,0.7645,,,,,,339,0,339,0,1,,,,,
,,007485,001,2023-07-24_19h58.26.370,arm3_q,2022.2.5,Win32,6.002617141,5baba8dbc1155b0001174533,64aeaab685a29f4ca249be02,64bec9c519ee64e50445de58,right,-1,0.95,0.35,45,-0.023573333,0.9368,,,,,,340,0,340,0,1,,,,,
,,007485,001,2023-07-24_19h58.26.370,arm3_q,2022.2.5,Win32,6.002617141,5baba8dbc1155b0001174533,64aeaab685a29f4ca249be02,64bec9c519ee64e50445de58,down,-1,0.95,0.35,46,0,0.5758,,,,,,341,0,341,0,1,,,,,
,,007485,001,2023-07-24_19h58.26.370,arm3_q,2022.2.5,Win32,6.002617141,5baba8dbc1155b0001174533,64aeaab685a29f4ca249be02,64bec9c519ee64e50445de58,right,-1,0.95,0.35,46,0.001987205,0.7412,,,,,,342,0,342,0,1,,,,,
,,007485,001,2023-07-24_19h58.26.370,arm3_q,2022.2.5,Win32,6.002617141,5baba8dbc1155b0001174533,64aeaab685a29f4ca249be02,64bec9c519ee64e50445de58,down,-1,0.95,0.35,47,0,0.7698,,,,,,343,0,343,0,1,,,,,
,,007485,001,2023-07-24_19h58.26.370,arm3_q,2022.2.5,Win32,6.002617141,5baba8dbc1155b0001174533,64aeaab685a29f4ca249be02,64bec9c519ee64e50445de58,right,-1,0.95,0.35,47,0.007784463,0.7445,,,,,,344,0,344,0,1,,,,,
,,007485,001,2023-07-24_19h58.26.370,arm3_q,2022.2.5,Win32,6.002617141,5baba8dbc1155b0001174533,64aeaab685a29f4ca249be02,64bec9c519ee64e50445de58,up,-1,0.95,0.35,46,0,0.592,,,,,,345,0,345,0,1,,,,,
,,007485,001,2023-07-24_19h58.26.370,arm3_q,2022.2.5,Win32,6.002617141,5baba8dbc1155b0001174533,64aeaab685a29f4ca249be02,64bec9c519ee64e50445de58,right,-1,0.95,0.35,46,-0.013375312,0.558,,,,,,346,0,346,0,1,,,,,
,,007485,001,2023-07-24_19h58.26.370,arm3_q,2022.2.5,Win32,6.002617141,5baba8dbc1155b0001174533,64aeaab685a29f4ca249be02,64bec9c519ee64e50445de58,down,1,0.95,0.35,47,0,0.1928,,,,,,347,0,347,0,1,,,,,
,,007485,001,2023-07-24_19h58.26.370,arm3_q,2022.2.5,Win32,6.002617141,5baba8dbc1155b0001174533,64aeaab685a29f4ca249be02,64bec9c519ee64e50445de58,right,1,0.95,0.35,47,0.019301906,0.7654,,,,,,348,0,348,0,1,,,,,
,,007485,001,2023-07-24_19h58.26.370,arm3_q,2022.2.5,Win32,6.002617141,5baba8dbc1155b0001174533,64aeaab685a29f4ca249be02,64bec9c519ee64e50445de58,up,1,0.95,0.35,47,0,0.7867,,,,,,349,0,349,0,1,,,,,
,,007485,001,2023-07-24_19h58.26.370,arm3_q,2022.2.5,Win32,6.002617141,5baba8dbc1155b0001174533,64aeaab685a29f4ca249be02,64bec9c519ee64e50445de58,right,1,0.95,0.35,47,0.023107876,0.9461,,,,,,350,0,350,0,1,,,,,
,,007485,001,2023-07-24_19h58.26.370,arm3_q,2022.2.5,Win32,6.002617141,5baba8dbc1155b0001174533,64aeaab685a29f4ca249be02,64bec9c519ee64e50445de58,up,1,0.95,0.35,48,0,0.978,,,,,,351,0,351,0,1,,,,,
,,007485,001,2023-07-24_19h58.26.370,arm3_q,2022.2.5,Win32,6.002617141,5baba8dbc1155b0001174533,64aeaab685a29f4ca249be02,64bec9c519ee64e50445de58,right,1,0.95,0.35,48,0.007761937,0.755,,,,,,352,0,352,0,1,,,,,
,,007485,001,2023-07-24_19h58.26.370,arm3_q,2022.2.5,Win32,6.002617141,5baba8dbc1155b0001174533,64aeaab685a29f4ca249be02,64bec9c519ee64e50445de58,down,-1,0.95,0.35,47,0,0.5753,,,,,,353,0,353,0,1,,,,,
,,007485,001,2023-07-24_19h58.26.370,arm3_q,2022.2.5,Win32,6.002617141,5baba8dbc1155b0001174533,64aeaab685a29f4ca249be02,64bec9c519ee64e50445de58,right,-1,0.95,0.35,47,0.006254676,1.1341,,,,,,354,0,354,0,1,,,,,
,,007485,001,2023-07-24_19h58.26.370,arm3_q,2022.2.5,Win32,6.002617141,5baba8dbc1155b0001174533,64aeaab685a29f4ca249be02,64bec9c519ee64e50445de58,up,-1,0.95,0.35,46,0,0.5774,,,,,,355,0,355,0,1,,,,,
,,007485,001,2023-07-24_19h58.26.370,arm3_q,2022.2.5,Win32,6.002617141,5baba8dbc1155b0001174533,64aeaab685a29f4ca249be02,64bec9c519ee64e50445de58,right,-1,0.95,0.35,46,-0.009050658,0.9477,,,,,,356,0,356,0,1,,,,,
,,007485,001,2023-07-24_19h58.26.370,arm3_q,2022.2.5,Win32,6.002617141,5baba8dbc1155b0001174533,64aeaab685a29f4ca249be02,64bec9c519ee64e50445de58,up,1,0.95,0.35,45,0,0.5782,,,,,,357,0,357,0,1,,,,,
,,007485,001,2023-07-24_19h58.26.370,arm3_q,2022.2.5,Win32,6.002617141,5baba8dbc1155b0001174533,64aeaab685a29f4ca249be02,64bec9c519ee64e50445de58,right,1,0.95,0.35,45,0.00628279,0.7761,,,,,,358,0,358,0,1,,,,,
,,007485,001,2023-07-24_19h58.26.370,arm3_q,2022.2.5,Win32,6.002617141,5baba8dbc1155b0001174533,64aeaab685a29f4ca249be02,64bec9c519ee64e50445de58,right,1,0.95,0.35,45,0.030483217,0.0139,,,,,,359,0,359,0,1,,,,,
,,007485,001,2023-07-24_19h58.26.370,arm3_q,2022.2.5,Win32,6.002617141,5baba8dbc1155b0001174533,64aeaab685a29f4ca249be02,64bec9c519ee64e50445de58,right,1,0.95,0.35,45,0.056446811,0.0092,,,,,,360,0,360,0,1,,,,,
,,007485,001,2023-07-24_19h58.26.370,arm3_q,2022.2.5,Win32,6.002617141,5baba8dbc1155b0001174533,64aeaab685a29f4ca249be02,64bec9c519ee64e50445de58,up,-1,0.95,0.35,46,0,0.2084,,,,,,361,0,361,0,1,,,,,
,,007485,001,2023-07-24_19h58.26.370,arm3_q,2022.2.5,Win32,6.002617141,5baba8dbc1155b0001174533,64aeaab685a29f4ca249be02,64bec9c519ee64e50445de58,right,-1,0.95,0.35,46,0.015925663,0.9715,,,,,,362,0,362,0,1,,,,,
,,007485,001,2023-07-24_19h58.26.370,arm3_q,2022.2.5,Win32,6.002617141,5baba8dbc1155b0001174533,64aeaab685a29f4ca249be02,64bec9c519ee64e50445de58,up,-1,0.95,0.35,45,0,0.762,,,,,,363,0,363,0,1,,,,,
,,007485,001,2023-07-24_19h58.26.370,arm3_q,2022.2.5,Win32,6.002617141,5baba8dbc1155b0001174533,64aeaab685a29f4ca249be02,64bec9c519ee64e50445de58,right,-1,0.95,0.35,45,-0.003167012,0.7848,,,,,,364,0,364,0,1,,,,,
,,007485,001,2023-07-24_19h58.26.370,arm3_q,2022.2.5,Win32,6.002617141,5baba8dbc1155b0001174533,64aeaab685a29f4ca249be02,64bec9c519ee64e50445de58,right,-1,0.95,0.35,45,-0.023695452,0.0136,,,,,,365,0,365,0,1,,,,,
,,007485,001,2023-07-24_19h58.26.370,arm3_q,2022.2.5,Win32,6.002617141,5baba8dbc1155b0001174533,64aeaab685a29f4ca249be02,64bec9c519ee64e50445de58,down,-1,0.95,0.35,46,0,0.38,,,,,,366,0,366,0,1,,,,,
,,007485,001,2023-07-24_19h58.26.370,arm3_q,2022.2.5,Win32,6.002617141,5baba8dbc1155b0001174533,64aeaab685a29f4ca249be02,64bec9c519ee64e50445de58,right,-1,0.95,0.35,46,-0.007506929,0.7737,,,,,,367,0,367,0,1,,,,,
,,007485,001,2023-07-24_19h58.26.370,arm3_q,2022.2.5,Win32,6.002617141,5baba8dbc1155b0001174533,64aeaab685a29f4ca249be02,64bec9c519ee64e50445de58,right,-1,0.95,0.35,46,-0.006167794,0.0102,,,,,,368,0,368,0,1,,,,,
,,007485,001,2023-07-24_19h58.26.370,arm3_q,2022.2.5,Win32,6.002617141,5baba8dbc1155b0001174533,64aeaab685a29f4ca249be02,64bec9c519ee64e50445de58,up,-1,0.95,0.35,46,-0.006167794,0.579,,,,,,369,0,369,0,1,,,,,
,,007485,001,2023-07-24_19h58.26.370,arm3_q,2022.2.5,Win32,6.002617141,5baba8dbc1155b0001174533,64aeaab685a29f4ca249be02,64bec9c519ee64e50445de58,,,,,,,,,,,,,,,,,,0,0,0,0,1
space,65.3713,007485,001,2023-07-24_19h58.26.370,arm3_q,2022.2.5,Win32,6.002617141,5baba8dbc1155b0001174533,64aeaab685a29f4ca249be02,64bec9c519ee64e50445de58,down,-1,0.3071,0.35,47,0,1.1479,,,,,,0,0,0,0,1,,,,,
,,007485,001,2023-07-24_19h58.26.370,arm3_q,2022.2.5,Win32,6.002617141,5baba8dbc1155b0001174533,64aeaab685a29f4ca249be02,64bec9c519ee64e50445de58,right,-1,0.3071,0.35,47,0.004316902,0.5741,,,,,,1,0,1,0,1,,,,,
,,007485,001,2023-07-24_19h58.26.370,arm3_q,2022.2.5,Win32,6.002617141,5baba8dbc1155b0001174533,64aeaab685a29f4ca249be02,64bec9c519ee64e50445de58,down,1,0.3071,0.35,47,0,0.9493,,,,,,2,0,2,0,1,,,,,
,,007485,001,2023-07-24_19h58.26.370,arm3_q,2022.2.5,Win32,6.002617141,5baba8dbc1155b0001174533,64aeaab685a29f4ca249be02,64bec9c519ee64e50445de58,right,1,0.3071,0.35,47,0.01772098,0.9259,,,,,,3,0,3,0,1,,,,,
,,007485,001,2023-07-24_19h58.26.370,arm3_q,2022.2.5,Win32,6.002617141,5baba8dbc1155b0001174533,64aeaab685a29f4ca249be02,64bec9c519ee64e50445de58,up,1,0.3071,0.35,47,0,0.5706,,,,,,4,0,4,0,1,,,,,
,,007485,001,2023-07-24_19h58.26.370,arm3_q,2022.2.5,Win32,6.002617141,5baba8dbc1155b0001174533,64aeaab685a29f4ca249be02,64bec9c519ee64e50445de58,right,1,0.3071,0.35,47,0.003155194,0.3752,,,,,,5,0,5,0,1,,,,,
,,007485,001,2023-07-24_19h58.26.370,arm3_q,2022.2.5,Win32,6.002617141,5baba8dbc1155b0001174533,64aeaab685a29f4ca249be02,64bec9c519ee64e50445de58,up,-1,0.3071,0.35,47,0,0.7605,,,,,,6,0,6,0,1,,,,,
,,007485,001,2023-07-24_19h58.26.370,arm3_q,2022.2.5,Win32,6.002617141,5baba8dbc1155b0001174533,64aeaab685a29f4ca249be02,64bec9c519ee64e50445de58,right,-1,0.3071,0.35,47,-0.000720587,1.1498,,,,,,7,0,7,0,1,,,,,
,,007485,001,2023-07-24_19h58.26.370,arm3_q,2022.2.5,Win32,6.002617141,5baba8dbc1155b0001174533,64aeaab685a29f4ca249be02,64bec9c519ee64e50445de58,down,-1,0.3071,0.35,47,0,0.5844,,,,,,8,0,8,0,1,,,,,
,,007485,001,2023-07-24_19h58.26.370,arm3_q,2022.2.5,Win32,6.002617141,5baba8dbc1155b0001174533,64aeaab685a29f4ca249be02,64bec9c519ee64e50445de58,right,-1,0.3071,0.35,47,0.008492535,0.9436,,,,,,9,0,9,0,1,,,,,
,,007485,001,2023-07-24_19h58.26.370,arm3_q,2022.2.5,Win32,6.002617141,5baba8dbc1155b0001174533,64aeaab685a29f4ca249be02,64bec9c519ee64e50445de58,down,-1,0.3071,0.35,47,0,0.5816,,,,,,10,0,10,0,1,,,,,
,,007485,001,2023-07-24_19h58.26.370,arm3_q,2022.2.5,Win32,6.002617141,5baba8dbc1155b0001174533,64aeaab685a29f4ca249be02,64bec9c519ee64e50445de58,right,-1,0.3071,0.35,47,-0.009808855,0.7579,,,,,,11,0,11,0,1,,,,,
,,007485,001,2023-07-24_19h58.26.370,arm3_q,2022.2.5,Win32,6.002617141,5baba8dbc1155b0001174533,64aeaab685a29f4ca249be02,64bec9c519ee64e50445de58,down,1,0.3071,0.35,47,0,0.5608,,,,,,12,0,12,0,1,,,,,
,,007485,001,2023-07-24_19h58.26.370,arm3_q,2022.2.5,Win32,6.002617141,5baba8dbc1155b0001174533,64aeaab685a29f4ca249be02,64bec9c519ee64e50445de58,right,1,0.3071,0.35,47,-0.022329094,0.7676,,,,,,13,0,13,0,1,,,,,
,,007485,001,2023-07-24_19h58.26.370,arm3_q,2022.2.5,Win32,6.002617141,5baba8dbc1155b0001174533,64aeaab685a29f4ca249be02,64bec9c519ee64e50445de58,up,-1,0.3071,0.35,47,0,0.7543,,,,,,14,0,14,0,1,,,,,
,,007485,001,2023-07-24_19h58.26.370,arm3_q,2022.2.5,Win32,6.002617141,5baba8dbc1155b0001174533,64aeaab685a29f4ca249be02,64bec9c519ee64e50445de58,right,-1,0.3071,0.35,47,-0.00694911,0.7618,,,,,,15,0,15,0,1,,,,,
,,007485,001,2023-07-24_19h58.26.370,arm3_q,2022.2.5,Win32,6.002617141,5baba8dbc1155b0001174533,64aeaab685a29f4ca249be02,64bec9c519ee64e50445de58,right,-1,0.3071,0.35,47,-0.030360483,0.0136,,,,,,16,0,16,0,1,,,,,
,,007485,001,2023-07-24_19h58.26.370,arm3_q,2022.2.5,Win32,6.002617141,5baba8dbc1155b0001174533,64aeaab685a29f4ca249be02,64bec9c519ee64e50445de58,down,-1,0.3071,0.35,47,0,0.4011,,,,,,17,0,17,0,1,,,,,
,,007485,001,2023-07-24_19h58.26.370,arm3_q,2022.2.5,Win32,6.002617141,5baba8dbc1155b0001174533,64aeaab685a29f4ca249be02,64bec9c519ee64e50445de58,right,-1,0.3071,0.35,47,-0.013037261,1.3308,,,,,,18,0,18,0,1,,,,,
,,007485,001,2023-07-24_19h58.26.370,arm3_q,2022.2.5,Win32,6.002617141,5baba8dbc1155b0001174533,64aeaab685a29f4ca249be02,64bec9c519ee64e50445de58,down,-1,0.3071,0.35,48,0,0.8038,,,,,,19,0,19,0,1,,,,,
,,007485,001,2023-07-24_19h58.26.370,arm3_q,2022.2.5,Win32,6.002617141,5baba8dbc1155b0001174533,64aeaab685a29f4ca249be02,64bec9c519ee64e50445de58,right,-1,0.3071,0.35,48,-0.018026375,0.96,,,,,,20,0,20,0,1,,,,,
,,007485,001,2023-07-24_19h58.26.370,arm3_q,2022.2.5,Win32,6.002617141,5baba8dbc1155b0001174533,64aeaab685a29f4ca249be02,64bec9c519ee64e50445de58,right,-1,0.3071,0.35,48,-0.045247702,0.0099,,,,,,21,0,21,0,1,,,,,
,,007485,001,2023-07-24_19h58.26.370,arm3_q,2022.2.5,Win32,6.002617141,5baba8dbc1155b0001174533,64aeaab685a29f4ca249be02,64bec9c519ee64e50445de58,down,1,0.3071,0.35,48,0,0.2029,,,,,,22,0,22,0,1,,,,,
,,007485,001,2023-07-24_19h58.26.370,arm3_q,2022.2.5,Win32,6.002617141,5baba8dbc1155b0001174533,64aeaab685a29f4ca249be02,64bec9c519ee64e50445de58,right,1,0.3071,0.35,48,0.00940673,0.9796,,,,,,23,0,23,0,1,,,,,
,,007485,001,2023-07-24_19h58.26.370,arm3_q,2022.2.5,Win32,6.002617141,5baba8dbc1155b0001174533,64aeaab685a29f4ca249be02,64bec9c519ee64e50445de58,up,1,0.3071,0.35,48,0,0.7604,,,,,,24,0,24,0,1,,,,,
,,007485,001,2023-07-24_19h58.26.370,arm3_q,2022.2.5,Win32,6.002617141,5baba8dbc1155b0001174533,64aeaab685a29f4ca249be02,64bec9c519ee64e50445de58,right,1,0.3071,0.35,48,0.0088622,0.3958,,,,,,25,0,25,0,1,,,,,
,,007485,001,2023-07-24_19h58.26.370,arm3_q,2022.2.5,Win32,6.002617141,5baba8dbc1155b0001174533,64aeaab685a29f4ca249be02,64bec9c519ee64e50445de58,right,1,0.3071,0.35,48,0.012331659,0.5777,,,,,,26,0,26,0,1,,,,,
,,007485,001,2023-07-24_19h58.26.370,arm3_q,2022.2.5,Win32,6.002617141,5baba8dbc1155b0001174533,64aeaab685a29f4ca249be02,64bec9c519ee64e50445de58,up,1,0.3071,0.35,48,0,0.3756,,,,,,27,0,27,0,1,,,,,
,,007485,001,2023-07-24_19h58.26.370,arm3_q,2022.2.5,Win32,6.002617141,5baba8dbc1155b0001174533,64aeaab685a29f4ca249be02,64bec9c519ee64e50445de58,right,1,0.3071,0.35,48,-0.015844464,0.7488,,,,,,28,0,28,0,1,,,,,
,,007485,001,2023-07-24_19h58.26.370,arm3_q,2022.2.5,Win32,6.002617141,5baba8dbc1155b0001174533,64aeaab685a29f4ca249be02,64bec9c519ee64e50445de58,up,-1,0.3071,0.35,48,0,0.7749,,,,,,29,0,29,0,1,,,,,
,,007485,001,2023-07-24_19h58.26.370,arm3_q,2022.2.5,Win32,6.002617141,5baba8dbc1155b0001174533,64aeaab685a29f4ca249be02,64bec9c519ee64e50445de58,right,-1,0.3071,0.35,48,-0.00668307,0.9955,,,,,,30,0,30,0,1,,,,,
,,007485,001,2023-07-24_19h58.26.370,arm3_q,2022.2.5,Win32,6.002617141,5baba8dbc1155b0001174533,64aeaab685a29f4ca249be02,64bec9c519ee64e50445de58,right,-1,0.3071,0.35,48,0.004149974,0.01,,,,,,31,0,31,0,1,,,,,
,,007485,001,2023-07-24_19h58.26.370,arm3_q,2022.2.5,Win32,6.002617141,5baba8dbc1155b0001174533,64aeaab685a29f4ca249be02,64bec9c519ee64e50445de58,up,-1,0.3071,0.35,47,0,0.3869,,,,,,32,0,32,0,1,,,,,
,,007485,001,2023-07-24_19h58.26.370,arm3_q,2022.2.5,Win32,6.002617141,5baba8dbc1155b0001174533,64aeaab685a29f4ca249be02,64bec9c519ee64e50445de58,right,-1,0.3071,0.35,47,-0.031949677,0.9533,,,,,,33,0,33,0,1,,,,,
,,007485,001,2023-07-24_19h58.26.370,arm3_q,2022.2.5,Win32,6.002617141,5baba8dbc1155b0001174533,64aeaab685a29f4ca249be02,64bec9c519ee64e50445de58,down,1,0.3071,0.35,47,0,0.5972,,,,,,34,0,34,0,1,,,,,
,,007485,001,2023-07-24_19h58.26.370,arm3_q,2022.2.5,Win32,6.002617141,5baba8dbc1155b0001174533,64aeaab685a29f4ca249be02,64bec9c519ee64e50445de58,right,1,0.3071,0.35,47,0.017145737,0.774,,,,,,35,0,35,0,1,,,,,
,,007485,001,2023-07-24_19h58.26.370,arm3_q,2022.2.5,Win32,6.002617141,5baba8dbc1155b0001174533,64aeaab685a29f4ca249be02,64bec9c519ee64e50445de58,up,-1,0.3071,0.35,48,0,0.5874,,,,,,36,0,36,0,1,,,,,
,,007485,001,2023-07-24_19h58.26.370,arm3_q,2022.2.5,Win32,6.002617141,5baba8dbc1155b0001174533,64aeaab685a29f4ca249be02,64bec9c519ee64e50445de58,right,-1,0.3071,0.35,48,-0.016569822,0.7653,,,,,,37,0,37,0,1,,,,,
,,007485,001,2023-07-24_19h58.26.370,arm3_q,2022.2.5,Win32,6.002617141,5baba8dbc1155b0001174533,64aeaab685a29f4ca249be02,64bec9c519ee64e50445de58,down,-1,0.3071,0.35,49,0,0.4103,,,,,,38,0,38,0,1,,,,,
,,007485,001,2023-07-24_19h58.26.370,arm3_q,2022.2.5,Win32,6.002617141,5baba8dbc1155b0001174533,64aeaab685a29f4ca249be02,64bec9c519ee64e50445de58,right,-1,0.3071,0.35,49,-0.004240892,0.9493,,,,,,39,0,39,0,1,,,,,
,,007485,001,2023-07-24_19h58.26.370,arm3_q,2022.2.5,Win32,6.002617141,5baba8dbc1155b0001174533,64aeaab685a29f4ca249be02,64bec9c519ee64e50445de58,down,-1,0.3071,0.35,49,0,0.5836,,,,,,40,0,40,0,1,,,,,
,,007485,001,2023-07-24_19h58.26.370,arm3_q,2022.2.5,Win32,6.002617141,5baba8dbc1155b0001174533,64aeaab685a29f4ca249be02,64bec9c519ee64e50445de58,right,-1,0.3071,0.35,49,-0.020991811,0.9481,,,,,,41,0,41,0,1,,,,,
,,007485,001,2023-07-24_19h58.26.370,arm3_q,2022.2.5,Win32,6.002617141,5baba8dbc1155b0001174533,64aeaab685a29f4ca249be02,64bec9c519ee64e50445de58,down,1,0.3071,0.35,49,0,0.233,,,,,,42,0,42,0,1,,,,,
,,007485,001,2023-07-24_19h58.26.370,arm3_q,2022.2.5,Win32,6.002617141,5baba8dbc1155b0001174533,64aeaab685a29f4ca249be02,64bec9c519ee64e50445de58,right,1,0.3071,0.35,49,-0.001144982,0.7558,,,,,,43,0,43,0,1,,,,,
,,007485,001,2023-07-24_19h58.26.370,arm3_q,2022.2.5,Win32,6.002617141,5baba8dbc1155b0001174533,64aeaab685a29f4ca249be02,64bec9c519ee64e50445de58,down,-1,0.3071,0.35,49,0,0.7801,,,,,,44,0,44,0,1,,,,,
,,007485,001,2023-07-24_19h58.26.370,arm3_q,2022.2.5,Win32,6.002617141,5baba8dbc1155b0001174533,64aeaab685a29f4ca249be02,64bec9c519ee64e50445de58,right,-1,0.3071,0.35,49,0.001087613,1.9221,,,,,,45,0,45,0,1,,,,,
,,007485,001,2023-07-24_19h58.26.370,arm3_q,2022.2.5,Win32,6.002617141,5baba8dbc1155b0001174533,64aeaab685a29f4ca249be02,64bec9c519ee64e50445de58,down,1,0.3071,0.35,49,0,0.579,,,,,,46,0,46,0,1,,,,,
,,007485,001,2023-07-24_19h58.26.370,arm3_q,2022.2.5,Win32,6.002617141,5baba8dbc1155b0001174533,64aeaab685a29f4ca249be02,64bec9c519ee64e50445de58,right,1,0.3071,0.35,49,0.019718737,0.7742,,,,,,47,0,47,0,1,,,,,
,,007485,001,2023-07-24_19h58.26.370,arm3_q,2022.2.5,Win32,6.002617141,5baba8dbc1155b0001174533,64aeaab685a29f4ca249be02,64bec9c519ee64e50445de58,up,-1,0.3071,0.35,49,0,0.384,,,,,,48,0,48,0,1,,,,,
,,007485,001,2023-07-24_19h58.26.370,arm3_q,2022.2.5,Win32,6.002617141,5baba8dbc1155b0001174533,64aeaab685a29f4ca249be02,64bec9c519ee64e50445de58,right,-1,0.3071,0.35,49,-0.022825043,0.7685,,,,,,49,0,49,0,1,,,,,
,,007485,001,2023-07-24_19h58.26.370,arm3_q,2022.2.5,Win32,6.002617141,5baba8dbc1155b0001174533,64aeaab685a29f4ca249be02,64bec9c519ee64e50445de58,down,1,0.3071,0.35,49,0,0.3835,,,,,,50,0,50,0,1,,,,,
