space_bar.keys,space_bar.rt,participant,session,date,expName,psychopyVersion,OS,frameRate,PROLIFIC_PID,STUDY_ID,SESSION_ID,resp.keys,state,q_prob,eps_prob,score,price,resp.rt,train.thisRepN,train.thisTrialN,train.thisN,train.thisIndex,train.ran,steps.thisRepN,steps.thisTrialN,steps.thisN,steps.thisIndex,steps.ran,blocks.thisRepN,blocks.thisTrialN,blocks.thisN,blocks.thisIndex,blocks.ran
space,42.393,015692,001,2023-07-24_20h57.13.702,arm3_q,2022.2.5,Win32,59.99160118,5f0af097e7d15b3bf7734642,64aeaab685a29f4ca249be02,64bec976c6d9dc9ef9694ed1,,,,,,,,,,,,,,,,,,,,,,
space,16.9734,015692,001,2023-07-24_20h57.13.702,arm3_q,2022.2.5,Win32,59.99160118,5f0af097e7d15b3bf7734642,64aeaab685a29f4ca249be02,64bec976c6d9dc9ef9694ed1,,,,,,,,,,,,,,,,,,,,,,
space,31.707,015692,001,2023-07-24_20h57.13.702,arm3_q,2022.2.5,Win32,59.99160118,5f0af097e7d15b3bf7734642,64aeaab685a29f4ca249be02,64bec976c6d9dc9ef9694ed1,,,,,,,,,,,,,,,,,,,,,,
space,21.6367,015692,001,2023-07-24_20h57.13.702,arm3_q,2022.2.5,Win32,59.99160118,5f0af097e7d15b3bf7734642,64aeaab685a29f4ca249be02,64bec976c6d9dc9ef9694ed1,,,,,,,,,,,,,,,,,,,,,,
space,24.9247,015692,001,2023-07-24_20h57.13.702,arm3_q,2022.2.5,Win32,59.99160118,5f0af097e7d15b3bf7734642,64aeaab685a29f4ca249be02,64bec976c6d9dc9ef9694ed1,,,,,,,,,,,,,,,,,,,,,,
space,77.0992,015692,001,2023-07-24_20h57.13.702,arm3_q,2022.2.5,Win32,59.99160118,5f0af097e7d15b3bf7734642,64aeaab685a29f4ca249be02,64bec976c6d9dc9ef9694ed1,,,,,,,,,,,,,,,,,,,,,,
space,24.4127,015692,001,2023-07-24_20h57.13.702,arm3_q,2022.2.5,Win32,59.99160118,5f0af097e7d15b3bf7734642,64aeaab685a29f4ca249be02,64bec976c6d9dc9ef9694ed1,,,,,,,,,,,,,,,,,,,,,,
space,25.3114,015692,001,2023-07-24_20h57.13.702,arm3_q,2022.2.5,Win32,59.99160118,5f0af097e7d15b3bf7734642,64aeaab685a29f4ca249be02,64bec976c6d9dc9ef9694ed1,,,,,,,,,,,,,,,,,,,,,,
space,26.3898,015692,001,2023-07-24_20h57.13.702,arm3_q,2022.2.5,Win32,59.99160118,5f0af097e7d15b3bf7734642,64aeaab685a29f4ca249be02,64bec976c6d9dc9ef9694ed1,,,,,,,,,,,,,,,,,,,,,,
space,12.1931,015692,001,2023-07-24_20h57.13.702,arm3_q,2022.2.5,Win32,59.99160118,5f0af097e7d15b3bf7734642,64aeaab685a29f4ca249be02,64bec976c6d9dc9ef9694ed1,,,,,,,,,,,,,,,,,,,,,,
,,015692,001,2023-07-24_20h57.13.702,arm3_q,2022.2.5,Win32,59.99160118,5f0af097e7d15b3bf7734642,64aeaab685a29f4ca249be02,64bec976c6d9dc9ef9694ed1,right,-1,0.5643,0.35,0,-0.019473482,1.9513,0,0,0,0,1,,,,,,,,,,
,,015692,001,2023-07-24_20h57.13.702,arm3_q,2022.2.5,Win32,59.99160118,5f0af097e7d15b3bf7734642,64aeaab685a29f4ca249be02,64bec976c6d9dc9ef9694ed1,right,-1,0.5643,0.35,0,-0.018135521,1.7004,1,0,1,0,1,,,,,,,,,,
,,015692,001,2023-07-24_20h57.13.702,arm3_q,2022.2.5,Win32,59.99160118,5f0af097e7d15b3bf7734642,64aeaab685a29f4ca249be02,64bec976c6d9dc9ef9694ed1,right,-1,0.5643,0.35,0,-0.018779415,1.1364,2,0,2,0,1,,,,,,,,,,
,,015692,001,2023-07-24_20h57.13.702,arm3_q,2022.2.5,Win32,59.99160118,5f0af097e7d15b3bf7734642,64aeaab685a29f4ca249be02,64bec976c6d9dc9ef9694ed1,down,-1,0.5643,0.35,0,0,1.6184,3,0,3,0,1,,,,,,,,,,
,,015692,001,2023-07-24_20h57.13.702,arm3_q,2022.2.5,Win32,59.99160118,5f0af097e7d15b3bf7734642,64aeaab685a29f4ca249be02,64bec976c6d9dc9ef9694ed1,right,-1,0.5643,0.35,0,-0.007535663,2.0606,4,0,4,0,1,,,,,,,,,,
,,015692,001,2023-07-24_20h57.13.702,arm3_q,2022.2.5,Win32,59.99160118,5f0af097e7d15b3bf7734642,64aeaab685a29f4ca249be02,64bec976c6d9dc9ef9694ed1,right,-1,0.5643,0.35,0,-0.032209681,0.615,5,0,5,0,1,,,,,,,,,,
,,015692,001,2023-07-24_20h57.13.702,arm3_q,2022.2.5,Win32,59.99160118,5f0af097e7d15b3bf7734642,64aeaab685a29f4ca249be02,64bec976c6d9dc9ef9694ed1,right,-1,0.5643,0.35,0,-0.004298966,1.0488,6,0,6,0,1,,,,,,,,,,
,,015692,001,2023-07-24_20h57.13.702,arm3_q,2022.2.5,Win32,59.99160118,5f0af097e7d15b3bf7734642,64aeaab685a29f4ca249be02,64bec976c6d9dc9ef9694ed1,up,1,0.5643,0.35,-1,0,1.4973,7,0,7,0,1,,,,,,,,,,
,,015692,001,2023-07-24_20h57.13.702,arm3_q,2022.2.5,Win32,59.99160118,5f0af097e7d15b3bf7734642,64aeaab685a29f4ca249be02,64bec976c6d9dc9ef9694ed1,right,1,0.5643,0.35,-1,0.012200049,1.9852,8,0,8,0,1,,,,,,,,,,
,,015692,001,2023-07-24_20h57.13.702,arm3_q,2022.2.5,Win32,59.99160118,5f0af097e7d15b3bf7734642,64aeaab685a29f4ca249be02,64bec976c6d9dc9ef9694ed1,right,1,0.5643,0.35,-1,-0.003653698,0.4809,9,0,9,0,1,,,,,,,,,,
,,015692,001,2023-07-24_20h57.13.702,arm3_q,2022.2.5,Win32,59.99160118,5f0af097e7d15b3bf7734642,64aeaab685a29f4ca249be02,64bec976c6d9dc9ef9694ed1,right,1,0.5643,0.35,-1,0.009330498,0.6182,10,0,10,0,1,,,,,,,,,,
,,015692,001,2023-07-24_20h57.13.702,arm3_q,2022.2.5,Win32,59.99160118,5f0af097e7d15b3bf7734642,64aeaab685a29f4ca249be02,64bec976c6d9dc9ef9694ed1,up,1,0.5643,0.35,0,0,1.024,11,0,11,0,1,,,,,,,,,,
,,015692,001,2023-07-24_20h57.13.702,arm3_q,2022.2.5,Win32,59.99160118,5f0af097e7d15b3bf7734642,64aeaab685a29f4ca249be02,64bec976c6d9dc9ef9694ed1,right,1,0.5643,0.35,0,0.012510058,1.5107,12,0,12,0,1,,,,,,,,,,
,,015692,001,2023-07-24_20h57.13.702,arm3_q,2022.2.5,Win32,59.99160118,5f0af097e7d15b3bf7734642,64aeaab685a29f4ca249be02,64bec976c6d9dc9ef9694ed1,right,1,0.5643,0.35,0,0.015137127,0.4905,13,0,13,0,1,,,,,,,,,,
,,015692,001,2023-07-24_20h57.13.702,arm3_q,2022.2.5,Win32,59.99160118,5f0af097e7d15b3bf7734642,64aeaab685a29f4ca249be02,64bec976c6d9dc9ef9694ed1,right,1,0.5643,0.35,0,-0.005915645,0.4857,14,0,14,0,1,,,,,,,,,,
,,015692,001,2023-07-24_20h57.13.702,arm3_q,2022.2.5,Win32,59.99160118,5f0af097e7d15b3bf7734642,64aeaab685a29f4ca249be02,64bec976c6d9dc9ef9694ed1,up,-1,0.5643,0.35,0,0,0.7652,15,0,15,0,1,,,,,,,,,,
,,015692,001,2023-07-24_20h57.13.702,arm3_q,2022.2.5,Win32,59.99160118,5f0af097e7d15b3bf7734642,64aeaab685a29f4ca249be02,64bec976c6d9dc9ef9694ed1,right,-1,0.5643,0.35,0,-0.05584696,1.0955,16,0,16,0,1,,,,,,,,,,
,,015692,001,2023-07-24_20h57.13.702,arm3_q,2022.2.5,Win32,59.99160118,5f0af097e7d15b3bf7734642,64aeaab685a29f4ca249be02,64bec976c6d9dc9ef9694ed1,right,-1,0.5643,0.35,0,-0.056794909,0.4388,17,0,17,0,1,,,,,,,,,,
,,015692,001,2023-07-24_20h57.13.702,arm3_q,2022.2.5,Win32,59.99160118,5f0af097e7d15b3bf7734642,64aeaab685a29f4ca249be02,64bec976c6d9dc9ef9694ed1,right,-1,0.5643,0.35,0,-0.082462782,0.5088,18,0,18,0,1,,,,,,,,,,
,,015692,001,2023-07-24_20h57.13.702,arm3_q,2022.2.5,Win32,59.99160118,5f0af097e7d15b3bf7734642,64aeaab685a29f4ca249be02,64bec976c6d9dc9ef9694ed1,down,-1,0.5643,0.35,0,0,0.6556,19,0,19,0,1,,,,,,,,,,
,,015692,001,2023-07-24_20h57.13.702,arm3_q,2022.2.5,Win32,59.99160118,5f0af097e7d15b3bf7734642,64aeaab685a29f4ca249be02,64bec976c6d9dc9ef9694ed1,right,-1,0.5643,0.35,0,-0.02247986,1.4384,20,0,20,0,1,,,,,,,,,,
,,015692,001,2023-07-24_20h57.13.702,arm3_q,2022.2.5,Win32,59.99160118,5f0af097e7d15b3bf7734642,64aeaab685a29f4ca249be02,64bec976c6d9dc9ef9694ed1,right,-1,0.5643,0.35,0,-0.038191164,0.6379,21,0,21,0,1,,,,,,,,,,
,,015692,001,2023-07-24_20h57.13.702,arm3_q,2022.2.5,Win32,59.99160118,5f0af097e7d15b3bf7734642,64aeaab685a29f4ca249be02,64bec976c6d9dc9ef9694ed1,up,-1,0.5643,0.35,-1,0,1.1151,22,0,22,0,1,,,,,,,,,,
,,015692,001,2023-07-24_20h57.13.702,arm3_q,2022.2.5,Win32,59.99160118,5f0af097e7d15b3bf7734642,64aeaab685a29f4ca249be02,64bec976c6d9dc9ef9694ed1,right,-1,0.5643,0.35,-1,-0.006793934,0.9223,23,0,23,0,1,,,,,,,,,,
,,015692,001,2023-07-24_20h57.13.702,arm3_q,2022.2.5,Win32,59.99160118,5f0af097e7d15b3bf7734642,64aeaab685a29f4ca249be02,64bec976c6d9dc9ef9694ed1,right,-1,0.5643,0.35,-1,-0.032986804,0.4579,24,0,24,0,1,,,,,,,,,,
,,015692,001,2023-07-24_20h57.13.702,arm3_q,2022.2.5,Win32,59.99160118,5f0af097e7d15b3bf7734642,64aeaab685a29f4ca249be02,64bec976c6d9dc9ef9694ed1,down,-1,0.5643,0.35,-1,0,1.3436,25,0,25,0,1,,,,,,,,,,
,,015692,001,2023-07-24_20h57.13.702,arm3_q,2022.2.5,Win32,59.99160118,5f0af097e7d15b3bf7734642,64aeaab685a29f4ca249be02,64bec976c6d9dc9ef9694ed1,right,-1,0.5643,0.35,-1,0.005080365,0.9624,26,0,26,0,1,,,,,,,,,,
,,015692,001,2023-07-24_20h57.13.702,arm3_q,2022.2.5,Win32,59.99160118,5f0af097e7d15b3bf7734642,64aeaab685a29f4ca249be02,64bec976c6d9dc9ef9694ed1,right,-1,0.5643,0.35,-1,-0.009776701,0.5574,27,0,27,0,1,,,,,,,,,,
,,015692,001,2023-07-24_20h57.13.702,arm3_q,2022.2.5,Win32,59.99160118,5f0af097e7d15b3bf7734642,64aeaab685a29f4ca249be02,64bec976c6d9dc9ef9694ed1,down,1,0.5643,0.35,-1,0,0.739,28,0,28,0,1,,,,,,,,,,
,,015692,001,2023-07-24_20h57.13.702,arm3_q,2022.2.5,Win32,59.99160118,5f0af097e7d15b3bf7734642,64aeaab685a29f4ca249be02,64bec976c6d9dc9ef9694ed1,right,1,0.5643,0.35,-1,0.028090683,0.9083,29,0,29,0,1,,,,,,,,,,
,,015692,001,2023-07-24_20h57.13.702,arm3_q,2022.2.5,Win32,59.99160118,5f0af097e7d15b3bf7734642,64aeaab685a29f4ca249be02,64bec976c6d9dc9ef9694ed1,right,1,0.5643,0.35,-1,0.020928236,0.5053,30,0,30,0,1,,,,,,,,,,
,,015692,001,2023-07-24_20h57.13.702,arm3_q,2022.2.5,Win32,59.99160118,5f0af097e7d15b3bf7734642,64aeaab685a29f4ca249be02,64bec976c6d9dc9ef9694ed1,up,1,0.5643,0.35,0,0,0.6994,31,0,31,0,1,,,,,,,,,,
,,015692,001,2023-07-24_20h57.13.702,arm3_q,2022.2.5,Win32,59.99160118,5f0af097e7d15b3bf7734642,64aeaab685a29f4ca249be02,64bec976c6d9dc9ef9694ed1,right,1,0.5643,0.35,0,0.001317001,1.1468,32,0,32,0,1,,,,,,,,,,
,,015692,001,2023-07-24_20h57.13.702,arm3_q,2022.2.5,Win32,59.99160118,5f0af097e7d15b3bf7734642,64aeaab685a29f4ca249be02,64bec976c6d9dc9ef9694ed1,right,1,0.5643,0.35,0,0.029275219,0.4484,33,0,33,0,1,,,,,,,,,,
,,015692,001,2023-07-24_20h57.13.702,arm3_q,2022.2.5,Win32,59.99160118,5f0af097e7d15b3bf7734642,64aeaab685a29f4ca249be02,64bec976c6d9dc9ef9694ed1,up,1,0.5643,0.35,1,0,1.131,34,0,34,0,1,,,,,,,,,,
,,015692,001,2023-07-24_20h57.13.702,arm3_q,2022.2.5,Win32,59.99160118,5f0af097e7d15b3bf7734642,64aeaab685a29f4ca249be02,64bec976c6d9dc9ef9694ed1,right,1,0.5643,0.35,1,0.00867631,1.041,35,0,35,0,1,,,,,,,,,,
,,015692,001,2023-07-24_20h57.13.702,arm3_q,2022.2.5,Win32,59.99160118,5f0af097e7d15b3bf7734642,64aeaab685a29f4ca249be02,64bec976c6d9dc9ef9694ed1,right,1,0.5643,0.35,1,0.018394816,0.4906,36,0,36,0,1,,,,,,,,,,
,,015692,001,2023-07-24_20h57.13.702,arm3_q,2022.2.5,Win32,59.99160118,5f0af097e7d15b3bf7734642,64aeaab685a29f4ca249be02,64bec976c6d9dc9ef9694ed1,right,1,0.5643,0.35,1,-0.000760293,0.9812,37,0,37,0,1,,,,,,,,,,
,,015692,001,2023-07-24_20h57.13.702,arm3_q,2022.2.5,Win32,59.99160118,5f0af097e7d15b3bf7734642,64aeaab685a29f4ca249be02,64bec976c6d9dc9ef9694ed1,right,1,0.5643,0.35,1,0.027683883,1.6656,38,0,38,0,1,,,,,,,,,,
,,015692,001,2023-07-24_20h57.13.702,arm3_q,2022.2.5,Win32,59.99160118,5f0af097e7d15b3bf7734642,64aeaab685a29f4ca249be02,64bec976c6d9dc9ef9694ed1,up,-1,0.5643,0.35,2,0,0.5473,39,0,39,0,1,,,,,,,,,,
,,015692,001,2023-07-24_20h57.13.702,arm3_q,2022.2.5,Win32,59.99160118,5f0af097e7d15b3bf7734642,64aeaab685a29f4ca249be02,64bec976c6d9dc9ef9694ed1,right,-1,0.5643,0.35,2,-0.002028971,1.9539,40,0,40,0,1,,,,,,,,,,
,,015692,001,2023-07-24_20h57.13.702,arm3_q,2022.2.5,Win32,59.99160118,5f0af097e7d15b3bf7734642,64aeaab685a29f4ca249be02,64bec976c6d9dc9ef9694ed1,right,-1,0.5643,0.35,2,-0.002056467,0.4047,41,0,41,0,1,,,,,,,,,,
,,015692,001,2023-07-24_20h57.13.702,arm3_q,2022.2.5,Win32,59.99160118,5f0af097e7d15b3bf7734642,64aeaab685a29f4ca249be02,64bec976c6d9dc9ef9694ed1,right,-1,0.5643,0.35,2,-0.008240343,0.5315,42,0,42,0,1,,,,,,,,,,
,,015692,001,2023-07-24_20h57.13.702,arm3_q,2022.2.5,Win32,59.99160118,5f0af097e7d15b3bf7734642,64aeaab685a29f4ca249be02,64bec976c6d9dc9ef9694ed1,up,1,0.5643,0.35,2,0,0.7901,43,0,43,0,1,,,,,,,,,,
,,015692,001,2023-07-24_20h57.13.702,arm3_q,2022.2.5,Win32,59.99160118,5f0af097e7d15b3bf7734642,64aeaab685a29f4ca249be02,64bec976c6d9dc9ef9694ed1,right,1,0.5643,0.35,2,-0.010860409,1.3304,44,0,44,0,1,,,,,,,,,,
,,015692,001,2023-07-24_20h57.13.702,arm3_q,2022.2.5,Win32,59.99160118,5f0af097e7d15b3bf7734642,64aeaab685a29f4ca249be02,64bec976c6d9dc9ef9694ed1,right,1,0.5643,0.35,2,-0.014897561,1.3038,45,0,45,0,1,,,,,,,,,,
,,015692,001,2023-07-24_20h57.13.702,arm3_q,2022.2.5,Win32,59.99160118,5f0af097e7d15b3bf7734642,64aeaab685a29f4ca249be02,64bec976c6d9dc9ef9694ed1,up,-1,0.5643,0.35,2,0,0.6353,46,0,46,0,1,,,,,,,,,,
,,015692,001,2023-07-24_20h57.13.702,arm3_q,2022.2.5,Win32,59.99160118,5f0af097e7d15b3bf7734642,64aeaab685a29f4ca249be02,64bec976c6d9dc9ef9694ed1,right,-1,0.5643,0.35,2,-0.034564605,0.9636,47,0,47,0,1,,,,,,,,,,
,,015692,001,2023-07-24_20h57.13.702,arm3_q,2022.2.5,Win32,59.99160118,5f0af097e7d15b3bf7734642,64aeaab685a29f4ca249be02,64bec976c6d9dc9ef9694ed1,down,-1,0.5643,0.35,2,0,0.8344,48,0,48,0,1,,,,,,,,,,
,,015692,001,2023-07-24_20h57.13.702,arm3_q,2022.2.5,Win32,59.99160118,5f0af097e7d15b3bf7734642,64aeaab685a29f4ca249be02,64bec976c6d9dc9ef9694ed1,right,-1,0.5643,0.35,2,0.02263274,0.8708,49,0,49,0,1,,,,,,,,,,
space,2.1888,015692,001,2023-07-24_20h57.13.702,arm3_q,2022.2.5,Win32,59.99160118,5f0af097e7d15b3bf7734642,64aeaab685a29f4ca249be02,64bec976c6d9dc9ef9694ed1,,,,,,,,,,,,,,,,,,,,,,
space,4.0293,015692,001,2023-07-24_20h57.13.702,arm3_q,2022.2.5,Win32,59.99160118,5f0af097e7d15b3bf7734642,64aeaab685a29f4ca249be02,64bec976c6d9dc9ef9694ed1,right,-1,0.4357,0.35,0,0.02280681,2.6437,,,,,,0,0,0,0,1,,,,,
,,015692,001,2023-07-24_20h57.13.702,arm3_q,2022.2.5,Win32,59.99160118,5f0af097e7d15b3bf7734642,64aeaab685a29f4ca249be02,64bec976c6d9dc9ef9694ed1,right,-1,0.4357,0.35,0,-0.013324551,0.535,,,,,,1,0,1,0,1,,,,,
,,015692,001,2023-07-24_20h57.13.702,arm3_q,2022.2.5,Win32,59.99160118,5f0af097e7d15b3bf7734642,64aeaab685a29f4ca249be02,64bec976c6d9dc9ef9694ed1,right,-1,0.4357,0.35,0,-0.032042098,1.0821,,,,,,2,0,2,0,1,,,,,
,,015692,001,2023-07-24_20h57.13.702,arm3_q,2022.2.5,Win32,59.99160118,5f0af097e7d15b3bf7734642,64aeaab685a29f4ca249be02,64bec976c6d9dc9ef9694ed1,down,-1,0.4357,0.35,0,0,0.5102,,,,,,3,0,3,0,1,,,,,
,,015692,001,2023-07-24_20h57.13.702,arm3_q,2022.2.5,Win32,59.99160118,5f0af097e7d15b3bf7734642,64aeaab685a29f4ca249be02,64bec976c6d9dc9ef9694ed1,right,-1,0.4357,0.35,0,0.004201291,0.9638,,,,,,4,0,4,0,1,,,,,
,,015692,001,2023-07-24_20h57.13.702,arm3_q,2022.2.5,Win32,59.99160118,5f0af097e7d15b3bf7734642,64aeaab685a29f4ca249be02,64bec976c6d9dc9ef9694ed1,right,-1,0.4357,0.35,0,-0.014702753,0.4902,,,,,,5,0,5,0,1,,,,,
,,015692,001,2023-07-24_20h57.13.702,arm3_q,2022.2.5,Win32,59.99160118,5f0af097e7d15b3bf7734642,64aeaab685a29f4ca249be02,64bec976c6d9dc9ef9694ed1,right,-1,0.4357,0.35,0,-0.000267543,0.5662,,,,,,6,0,6,0,1,,,,,
,,015692,001,2023-07-24_20h57.13.702,arm3_q,2022.2.5,Win32,59.99160118,5f0af097e7d15b3bf7734642,64aeaab685a29f4ca249be02,64bec976c6d9dc9ef9694ed1,down,1,0.4357,0.35,0,0,1.0983,,,,,,7,0,7,0,1,,,,,
,,015692,001,2023-07-24_20h57.13.702,arm3_q,2022.2.5,Win32,59.99160118,5f0af097e7d15b3bf7734642,64aeaab685a29f4ca249be02,64bec976c6d9dc9ef9694ed1,right,1,0.4357,0.35,0,0.009017405,0.8366,,,,,,8,0,8,0,1,,,,,
,,015692,001,2023-07-24_20h57.13.702,arm3_q,2022.2.5,Win32,59.99160118,5f0af097e7d15b3bf7734642,64aeaab685a29f4ca249be02,64bec976c6d9dc9ef9694ed1,right,1,0.4357,0.35,0,0.026223004,0.4202,,,,,,9,0,9,0,1,,,,,
,,015692,001,2023-07-24_20h57.13.702,arm3_q,2022.2.5,Win32,59.99160118,5f0af097e7d15b3bf7734642,64aeaab685a29f4ca249be02,64bec976c6d9dc9ef9694ed1,up,1,0.4357,0.35,1,0,0.658,,,,,,10,0,10,0,1,,,,,
,,015692,001,2023-07-24_20h57.13.702,arm3_q,2022.2.5,Win32,59.99160118,5f0af097e7d15b3bf7734642,64aeaab685a29f4ca249be02,64bec976c6d9dc9ef9694ed1,right,1,0.4357,0.35,1,0.029903585,0.8037,,,,,,11,0,11,0,1,,,,,
,,015692,001,2023-07-24_20h57.13.702,arm3_q,2022.2.5,Win32,59.99160118,5f0af097e7d15b3bf7734642,64aeaab685a29f4ca249be02,64bec976c6d9dc9ef9694ed1,right,1,0.4357,0.35,1,0.034336936,0.543,,,,,,12,0,12,0,1,,,,,
,,015692,001,2023-07-24_20h57.13.702,arm3_q,2022.2.5,Win32,59.99160118,5f0af097e7d15b3bf7734642,64aeaab685a29f4ca249be02,64bec976c6d9dc9ef9694ed1,up,1,0.4357,0.35,2,0,0.5049,,,,,,13,0,13,0,1,,,,,
,,015692,001,2023-07-24_20h57.13.702,arm3_q,2022.2.5,Win32,59.99160118,5f0af097e7d15b3bf7734642,64aeaab685a29f4ca249be02,64bec976c6d9dc9ef9694ed1,right,1,0.4357,0.35,2,0.010965175,0.7957,,,,,,14,0,14,0,1,,,,,
,,015692,001,2023-07-24_20h57.13.702,arm3_q,2022.2.5,Win32,59.99160118,5f0af097e7d15b3bf7734642,64aeaab685a29f4ca249be02,64bec976c6d9dc9ef9694ed1,right,1,0.4357,0.35,2,0.037033408,0.4159,,,,,,15,0,15,0,1,,,,,
,,015692,001,2023-07-24_20h57.13.702,arm3_q,2022.2.5,Win32,59.99160118,5f0af097e7d15b3bf7734642,64aeaab685a29f4ca249be02,64bec976c6d9dc9ef9694ed1,up,-1,0.4357,0.35,3,0,0.595,,,,,,16,0,16,0,1,,,,,
,,015692,001,2023-07-24_20h57.13.702,arm3_q,2022.2.5,Win32,59.99160118,5f0af097e7d15b3bf7734642,64aeaab685a29f4ca249be02,64bec976c6d9dc9ef9694ed1,right,-1,0.4357,0.35,3,0.003493289,0.7927,,,,,,17,0,17,0,1,,,,,
,,015692,001,2023-07-24_20h57.13.702,arm3_q,2022.2.5,Win32,59.99160118,5f0af097e7d15b3bf7734642,64aeaab685a29f4ca249be02,64bec976c6d9dc9ef9694ed1,right,-1,0.4357,0.35,3,-0.018245625,0.5226,,,,,,18,0,18,0,1,,,,,
,,015692,001,2023-07-24_20h57.13.702,arm3_q,2022.2.5,Win32,59.99160118,5f0af097e7d15b3bf7734642,64aeaab685a29f4ca249be02,64bec976c6d9dc9ef9694ed1,down,-1,0.4357,0.35,4,0,0.6167,,,,,,19,0,19,0,1,,,,,
,,015692,001,2023-07-24_20h57.13.702,arm3_q,2022.2.5,Win32,59.99160118,5f0af097e7d15b3bf7734642,64aeaab685a29f4ca249be02,64bec976c6d9dc9ef9694ed1,right,-1,0.4357,0.35,4,-0.002339908,0.7815,,,,,,20,0,20,0,1,,,,,
,,015692,001,2023-07-24_20h57.13.702,arm3_q,2022.2.5,Win32,59.99160118,5f0af097e7d15b3bf7734642,64aeaab685a29f4ca249be02,64bec976c6d9dc9ef9694ed1,right,-1,0.4357,0.35,4,-0.012718276,0.3881,,,,,,21,0,21,0,1,,,,,
,,015692,001,2023-07-24_20h57.13.702,arm3_q,2022.2.5,Win32,59.99160118,5f0af097e7d15b3bf7734642,64aeaab685a29f4ca249be02,64bec976c6d9dc9ef9694ed1,right,-1,0.4357,0.35,4,-0.028075115,0.5717,,,,,,22,0,22,0,1,,,,,
,,015692,001,2023-07-24_20h57.13.702,arm3_q,2022.2.5,Win32,59.99160118,5f0af097e7d15b3bf7734642,64aeaab685a29f4ca249be02,64bec976c6d9dc9ef9694ed1,down,-1,0.4357,0.35,4,0,0.4689,,,,,,23,0,23,0,1,,,,,
,,015692,001,2023-07-24_20h57.13.702,arm3_q,2022.2.5,Win32,59.99160118,5f0af097e7d15b3bf7734642,64aeaab685a29f4ca249be02,64bec976c6d9dc9ef9694ed1,right,-1,0.4357,0.35,4,-0.008927483,0.7816,,,,,,24,0,24,0,1,,,,,
,,015692,001,2023-07-24_20h57.13.702,arm3_q,2022.2.5,Win32,59.99160118,5f0af097e7d15b3bf7734642,64aeaab685a29f4ca249be02,64bec976c6d9dc9ef9694ed1,right,-1,0.4357,0.35,4,-0.000503948,0.4329,,,,,,25,0,25,0,1,,,,,
,,015692,001,2023-07-24_20h57.13.702,arm3_q,2022.2.5,Win32,59.99160118,5f0af097e7d15b3bf7734642,64aeaab685a29f4ca249be02,64bec976c6d9dc9ef9694ed1,right,-1,0.4357,0.35,4,-0.031718008,1.5156,,,,,,26,0,26,0,1,,,,,
,,015692,001,2023-07-24_20h57.13.702,arm3_q,2022.2.5,Win32,59.99160118,5f0af097e7d15b3bf7734642,64aeaab685a29f4ca249be02,64bec976c6d9dc9ef9694ed1,down,-1,0.4357,0.35,4,0,0.5816,,,,,,27,0,27,0,1,,,,,
,,015692,001,2023-07-24_20h57.13.702,arm3_q,2022.2.5,Win32,59.99160118,5f0af097e7d15b3bf7734642,64aeaab685a29f4ca249be02,64bec976c6d9dc9ef9694ed1,right,-1,0.4357,0.35,4,0.000806515,0.7241,,,,,,28,0,28,0,1,,,,,
,,015692,001,2023-07-24_20h57.13.702,arm3_q,2022.2.5,Win32,59.99160118,5f0af097e7d15b3bf7734642,64aeaab685a29f4ca249be02,64bec976c6d9dc9ef9694ed1,right,-1,0.4357,0.35,4,-0.004984419,0.4167,,,,,,29,0,29,0,1,,,,,
,,015692,001,2023-07-24_20h57.13.702,arm3_q,2022.2.5,Win32,59.99160118,5f0af097e7d15b3bf7734642,64aeaab685a29f4ca249be02,64bec976c6d9dc9ef9694ed1,right,-1,0.4357,0.35,4,-0.016208027,1.0995,,,,,,30,0,30,0,1,,,,,
,,015692,001,2023-07-24_20h57.13.702,arm3_q,2022.2.5,Win32,59.99160118,5f0af097e7d15b3bf7734642,64aeaab685a29f4ca249be02,64bec976c6d9dc9ef9694ed1,down,-1,0.4357,0.35,4,0,0.5105,,,,,,31,0,31,0,1,,,,,
,,015692,001,2023-07-24_20h57.13.702,arm3_q,2022.2.5,Win32,59.99160118,5f0af097e7d15b3bf7734642,64aeaab685a29f4ca249be02,64bec976c6d9dc9ef9694ed1,right,-1,0.4357,0.35,4,-0.025878379,0.8241,,,,,,32,0,32,0,1,,,,,
,,015692,001,2023-07-24_20h57.13.702,arm3_q,2022.2.5,Win32,59.99160118,5f0af097e7d15b3bf7734642,64aeaab685a29f4ca249be02,64bec976c6d9dc9ef9694ed1,right,-1,0.4357,0.35,4,-0.036545479,0.4487,,,,,,33,0,33,0,1,,,,,
,,015692,001,2023-07-24_20h57.13.702,arm3_q,2022.2.5,Win32,59.99160118,5f0af097e7d15b3bf7734642,64aeaab685a29f4ca249be02,64bec976c6d9dc9ef9694ed1,right,-1,0.4357,0.35,4,-0.040900542,0.4537,,,,,,34,0,34,0,1,,,,,
,,015692,001,2023-07-24_20h57.13.702,arm3_q,2022.2.5,Win32,59.99160118,5f0af097e7d15b3bf7734642,64aeaab685a29f4ca249be02,64bec976c6d9dc9ef9694ed1,down,-1,0.4357,0.35,5,0,0.5164,,,,,,35,0,35,0,1,,,,,
,,015692,001,2023-07-24_20h57.13.702,arm3_q,2022.2.5,Win32,59.99160118,5f0af097e7d15b3bf7734642,64aeaab685a29f4ca249be02,64bec976c6d9dc9ef9694ed1,right,-1,0.4357,0.35,5,-0.041693584,0.8025,,,,,,36,0,36,0,1,,,,,
,,015692,001,2023-07-24_20h57.13.702,arm3_q,2022.2.5,Win32,59.99160118,5f0af097e7d15b3bf7734642,64aeaab685a29f4ca249be02,64bec976c6d9dc9ef9694ed1,right,-1,0.4357,0.35,5,-0.053831455,0.5007,,,,,,37,0,37,0,1,,,,,
,,015692,001,2023-07-24_20h57.13.702,arm3_q,2022.2.5,Win32,59.99160118,5f0af097e7d15b3bf7734642,64aeaab685a29f4ca249be02,64bec976c6d9dc9ef9694ed1,right,-1,0.4357,0.35,5,-0.040909288,1.2974,,,,,,38,0,38,0,1,,,,,
,,015692,001,2023-07-24_20h57.13.702,arm3_q,2022.2.5,Win32,59.99160118,5f0af097e7d15b3bf7734642,64aeaab685a29f4ca249be02,64bec976c6d9dc9ef9694ed1,up,-1,0.4357,0.35,5,0,0.8196,,,,,,39,0,39,0,1,,,,,
,,015692,001,2023-07-24_20h57.13.702,arm3_q,2022.2.5,Win32,59.99160118,5f0af097e7d15b3bf7734642,64aeaab685a29f4ca249be02,64bec976c6d9dc9ef9694ed1,right,-1,0.4357,0.35,5,-0.006464433,0.7665,,,,,,40,0,40,0,1,,,,,
,,015692,001,2023-07-24_20h57.13.702,arm3_q,2022.2.5,Win32,59.99160118,5f0af097e7d15b3bf7734642,64aeaab685a29f4ca249be02,64bec976c6d9dc9ef9694ed1,right,-1,0.4357,0.35,5,-0.005458473,0.4507,,,,,,41,0,41,0,1,,,,,
,,015692,001,2023-07-24_20h57.13.702,arm3_q,2022.2.5,Win32,59.99160118,5f0af097e7d15b3bf7734642,64aeaab685a29f4ca249be02,64bec976c6d9dc9ef9694ed1,right,-1,0.4357,0.35,5,0.002782177,1.2078,,,,,,42,0,42,0,1,,,,,
,,015692,001,2023-07-24_20h57.13.702,arm3_q,2022.2.5,Win32,59.99160118,5f0af097e7d15b3bf7734642,64aeaab685a29f4ca249be02,64bec976c6d9dc9ef9694ed1,up,-1,0.4357,0.35,5,0,0.4075,,,,,,43,0,43,0,1,,,,,
,,015692,001,2023-07-24_20h57.13.702,arm3_q,2022.2.5,Win32,59.99160118,5f0af097e7d15b3bf7734642,64aeaab685a29f4ca249be02,64bec976c6d9dc9ef9694ed1,right,-1,0.4357,0.35,5,-0.043710432,0.6972,,,,,,44,0,44,0,1,,,,,
,,015692,001,2023-07-24_20h57.13.702,arm3_q,2022.2.5,Win32,59.99160118,5f0af097e7d15b3bf7734642,64aeaab685a29f4ca249be02,64bec976c6d9dc9ef9694ed1,right,-1,0.4357,0.35,5,-0.046835487,0.4495,,,,,,45,0,45,0,1,,,,,
,,015692,001,2023-07-24_20h57.13.702,arm3_q,2022.2.5,Win32,59.99160118,5f0af097e7d15b3bf7734642,64aeaab685a29f4ca249be02,64bec976c6d9dc9ef9694ed1,down,-1,0.4357,0.35,5,0,0.933,,,,,,46,0,46,0,1,,,,,
,,015692,001,2023-07-24_20h57.13.702,arm3_q,2022.2.5,Win32,59.99160118,5f0af097e7d15b3bf7734642,64aeaab685a29f4ca249be02,64bec976c6d9dc9ef9694ed1,right,-1,0.4357,0.35,5,-0.001617224,0.7084,,,,,,47,0,47,0,1,,,,,
,,015692,001,2023-07-24_20h57.13.702,arm3_q,2022.2.5,Win32,59.99160118,5f0af097e7d15b3bf7734642,64aeaab685a29f4ca249be02,64bec976c6d9dc9ef9694ed1,right,-1,0.4357,0.35,5,-0.026263182,0.3773,,,,,,48,0,48,0,1,,,,,
,,015692,001,2023-07-24_20h57.13.702,arm3_q,2022.2.5,Win32,59.99160118,5f0af097e7d15b3bf7734642,64aeaab685a29f4ca249be02,64bec976c6d9dc9ef9694ed1,down,-1,0.4357,0.35,6,0,0.5937,,,,,,49,0,49,0,1,,,,,
,,015692,001,2023-07-24_20h57.13.702,arm3_q,2022.2.5,Win32,59.99160118,5f0af097e7d15b3bf7734642,64aeaab685a29f4ca249be02,64bec976c6d9dc9ef9694ed1,right,-1,0.4357,0.35,6,-0.022287456,0.8705,,,,,,50,0,50,0,1,,,,,
,,015692,001,2023-07-24_20h57.13.702,arm3_q,2022.2.5,Win32,59.99160118,5f0af097e7d15b3bf7734642,64aeaab685a29f4ca249be02,64bec976c6d9dc9ef9694ed1,right,-1,0.4357,0.35,6,-0.063839711,0.3895,,,,,,51,0,51,0,1,,,,,
,,015692,001,2023-07-24_20h57.13.702,arm3_q,2022.2.5,Win32,59.99160118,5f0af097e7d15b3bf7734642,64aeaab685a29f4ca249be02,64bec976c6d9dc9ef9694ed1,down,-1,0.4357,0.35,6,0,0.7899,,,,,,52,0,52,0,1,,,,,
,,015692,001,2023-07-24_20h57.13.702,arm3_q,2022.2.5,Win32,59.99160118,5f0af097e7d15b3bf7734642,64aeaab685a29f4ca249be02,64bec976c6d9dc9ef9694ed1,right,-1,0.4357,0.35,6,-0.002542053,0.9875,,,,,,53,0,53,0,1,,,,,
,,015692,001,2023-07-24_20h57.13.702,arm3_q,2022.2.5,Win32,59.99160118,5f0af097e7d15b3bf7734642,64aeaab685a29f4ca249be02,64bec976c6d9dc9ef9694ed1,right,-1,0.4357,0.35,6,-0.040378178,0.3585,,,,,,54,0,54,0,1,,,,,
,,015692,001,2023-07-24_20h57.13.702,arm3_q,2022.2.5,Win32,59.99160118,5f0af097e7d15b3bf7734642,64aeaab685a29f4ca249be02,64bec976c6d9dc9ef9694ed1,right,-1,0.4357,0.35,6,-0.010988626,0.8645,,,,,,55,0,55,0,1,,,,,
,,015692,001,2023-07-24_20h57.13.702,arm3_q,2022.2.5,Win32,59.99160118,5f0af097e7d15b3bf7734642,64aeaab685a29f4ca249be02,64bec976c6d9dc9ef9694ed1,right,-1,0.4357,0.35,6,-0.007432338,0.804,,,,,,56,0,56,0,1,,,,,
,,015692,001,2023-07-24_20h57.13.702,arm3_q,2022.2.5,Win32,59.99160118,5f0af097e7d15b3bf7734642,64aeaab685a29f4ca249be02,64bec976c6d9dc9ef9694ed1,down,-1,0.4357,0.35,6,0,0.7554,,,,,,57,0,57,0,1,,,,,
,,015692,001,2023-07-24_20h57.13.702,arm3_q,2022.2.5,Win32,59.99160118,5f0af097e7d15b3bf7734642,64aeaab685a29f4ca249be02,64bec976c6d9dc9ef9694ed1,right,-1,0.4357,0.35,6,-0.050531024,0.8512,,,,,,58,0,58,0,1,,,,,
,,015692,001,2023-07-24_20h57.13.702,arm3_q,2022.2.5,Win32,59.99160118,5f0af097e7d15b3bf7734642,64aeaab685a29f4ca249be02,64bec976c6d9dc9ef9694ed1,right,-1,0.4357,0.35,6,-0.036982812,0.3869,,,,,,59,0,59,0,1,,,,,
,,015692,001,2023-07-24_20h57.13.702,arm3_q,2022.2.5,Win32,59.99160118,5f0af097e7d15b3bf7734642,64aeaab685a29f4ca249be02,64bec976c6d9dc9ef9694ed1,right,-1,0.4357,0.35,6,-0.053793514,0.9331,,,,,,60,0,60,0,1,,,,,
,,015692,001,2023-07-24_20h57.13.702,arm3_q,2022.2.5,Win32,59.99160118,5f0af097e7d15b3bf7734642,64aeaab685a29f4ca249be02,64bec976c6d9dc9ef9694ed1,down,-1,0.4357,0.35,7,0,0.4836,,,,,,61,0,61,0,1,,,,,
,,015692,001,2023-07-24_20h57.13.702,arm3_q,2022.2.5,Win32,59.99160118,5f0af097e7d15b3bf7734642,64aeaab685a29f4ca249be02,64bec976c6d9dc9ef9694ed1,right,-1,0.4357,0.35,7,0.007035582,0.8126,,,,,,62,0,62,0,1,,,,,
,,015692,001,2023-07-24_20h57.13.702,arm3_q,2022.2.5,Win32,59.99160118,5f0af097e7d15b3bf7734642,64aeaab685a29f4ca249be02,64bec976c6d9dc9ef9694ed1,right,-1,0.4357,0.35,7,0.006441563,0.4232,,,,,,63,0,63,0,1,,,,,
,,015692,001,2023-07-24_20h57.13.702,arm3_q,2022.2.5,Win32,59.99160118,5f0af097e7d15b3bf7734642,64aeaab685a29f4ca249be02,64bec976c6d9dc9ef9694ed1,right,-1,0.4357,0.35,7,-0.011877277,0.8535,,,,,,64,0,64,0,1,,,,,
,,015692,001,2023-07-24_20h57.13.702,arm3_q,2022.2.5,Win32,59.99160118,5f0af097e7d15b3bf7734642,64aeaab685a29f4ca249be02,64bec976c6d9dc9ef9694ed1,down,-1,0.4357,0.35,8,0,0.6743,,,,,,65,0,65,0,1,,,,,
,,015692,001,2023-07-24_20h57.13.702,arm3_q,2022.2.5,Win32,59.99160118,5f0af097e7d15b3bf7734642,64aeaab685a29f4ca249be02,64bec976c6d9dc9ef9694ed1,right,-1,0.4357,0.35,8,0.028666771,0.7811,,,,,,66,0,66,0,1,,,,,
,,015692,001,2023-07-24_20h57.13.702,arm3_q,2022.2.5,Win32,59.99160118,5f0af097e7d15b3bf7734642,64aeaab685a29f4ca249be02,64bec976c6d9dc9ef9694ed1,right,-1,0.4357,0.35,8,0.007344069,0.4076,,,,,,67,0,67,0,1,,,,,
,,015692,001,2023-07-24_20h57.13.702,arm3_q,2022.2.5,Win32,59.99160118,5f0af097e7d15b3bf7734642,64aeaab685a29f4ca249be02,64bec976c6d9dc9ef9694ed1,right,-1,0.4357,0.35,8,0.001778584,0.6069,,,,,,68,0,68,0,1,,,,,
,,015692,001,2023-07-24_20h57.13.702,arm3_q,2022.2.5,Win32,59.99160118,5f0af097e7d15b3bf7734642,64aeaab685a29f4ca249be02,64bec976c6d9dc9ef9694ed1,right,-1,0.4357,0.35,8,0.001235311,1.6498,,,,,,69,0,69,0,1,,,,,
,,015692,001,2023-07-24_20h57.13.702,arm3_q,2022.2.5,Win32,59.99160118,5f0af097e7d15b3bf7734642,64aeaab685a29f4ca249be02,64bec976c6d9dc9ef9694ed1,down,-1,0.4357,0.35,9,0,0.7716,,,,,,70,0,70,0,1,,,,,
,,015692,001,2023-07-24_20h57.13.702,arm3_q,2022.2.5,Win32,59.99160118,5f0af097e7d15b3bf7734642,64aeaab685a29f4ca249be02,64bec976c6d9dc9ef9694ed1,right,-1,0.4357,0.35,9,-0.042999512,1.139,,,,,,71,0,71,0,1,,,,,
,,015692,001,2023-07-24_20h57.13.702,arm3_q,2022.2.5,Win32,59.99160118,5f0af097e7d15b3bf7734642,64aeaab685a29f4ca249be02,64bec976c6d9dc9ef9694ed1,right,-1,0.4357,0.35,9,-0.079939663,0.4865,,,,,,72,0,72,0,1,,,,,
,,015692,001,2023-07-24_20h57.13.702,arm3_q,2022.2.5,Win32,59.99160118,5f0af097e7d15b3bf7734642,64aeaab685a29f4ca249be02,64bec976c6d9dc9ef9694ed1,down,-1,0.4357,0.35,9,0,0.7947,,,,,,73,0,73,0,1,,,,,
,,015692,001,2023-07-24_20h57.13.702,arm3_q,2022.2.5,Win32,59.99160118,5f0af097e7d15b3bf7734642,64aeaab685a29f4ca249be02,64bec976c6d9dc9ef9694ed1,right,-1,0.4357,0.35,9,-0.019260441,0.7625,,,,,,74,0,74,0,1,,,,,
,,015692,001,2023-07-24_20h57.13.702,arm3_q,2022.2.5,Win32,59.99160118,5f0af097e7d15b3bf7734642,64aeaab685a29f4ca249be02,64bec976c6d9dc9ef9694ed1,right,-1,0.4357,0.35,9,-0.061188286,0.3378,,,,,,75,0,75,0,1,,,,,
,,015692,001,2023-07-24_20h57.13.702,arm3_q,2022.2.5,Win32,59.99160118,5f0af097e7d15b3bf7734642,64aeaab685a29f4ca249be02,64bec976c6d9dc9ef9694ed1,right,-1,0.4357,0.35,9,-0.058559784,0.66,,,,,,76,0,76,0,1,,,,,
,,015692,001,2023-07-24_20h57.13.702,arm3_q,2022.2.5,Win32,59.99160118,5f0af097e7d15b3bf7734642,64aeaab685a29f4ca249be02,64bec976c6d9dc9ef9694ed1,up,-1,0.4357,0.35,9,0,1.1587,,,,,,77,0,77,0,1,,,,,
,,015692,001,2023-07-24_20h57.13.702,arm3_q,2022.2.5,Win32,59.99160118,5f0af097e7d15b3bf7734642,64aeaab685a29f4ca249be02,64bec976c6d9dc9ef9694ed1,right,-1,0.4357,0.35,9,0.016199669,0.7898,,,,,,78,0,78,0,1,,,,,
,,015692,001,2023-07-24_20h57.13.702,arm3_q,2022.2.5,Win32,59.99160118,5f0af097e7d15b3bf7734642,64aeaab685a29f4ca249be02,64bec976c6d9dc9ef9694ed1,right,-1,0.4357,0.35,9,0.014402965,0.3035,,,,,,79,0,79,0,1,,,,,
,,015692,001,2023-07-24_20h57.13.702,arm3_q,2022.2.5,Win32,59.99160118,5f0af097e7d15b3bf7734642,64aeaab685a29f4ca249be02,64bec976c6d9dc9ef9694ed1,right,-1,0.4357,0.35,9,0.014935579,1.0824,,,,,,80,0,80,0,1,,,,,
,,015692,001,2023-07-24_20h57.13.702,arm3_q,2022.2.5,Win32,59.99160118,5f0af097e7d15b3bf7734642,64aeaab685a29f4ca249be02,64bec976c6d9dc9ef9694ed1,up,-1,0.4357,0.35,9,0,0.4152,,,,,,81,0,81,0,1,,,,,
,,015692,001,2023-07-24_20h57.13.702,arm3_q,2022.2.5,Win32,59.99160118,5f0af097e7d15b3bf7734642,64aeaab685a29f4ca249be02,64bec976c6d9dc9ef9694ed1,right,-1,0.4357,0.35,9,0.007623324,0.7718,,,,,,82,0,82,0,1,,,,,
,,015692,001,2023-07-24_20h57.13.702,arm3_q,2022.2.5,Win32,59.99160118,5f0af097e7d15b3bf7734642,64aeaab685a29f4ca249be02,64bec976c6d9dc9ef9694ed1,right,-1,0.4357,0.35,9,0.004439673,0.4697,,,,,,83,0,83,0,1,,,,,
,,015692,001,2023-07-24_20h57.13.702,arm3_q,2022.2.5,Win32,59.99160118,5f0af097e7d15b3bf7734642,64aeaab685a29f4ca249be02,64bec976c6d9dc9ef9694ed1,up,-1,0.4357,0.35,9,0,0.7822,,,,,,84,0,84,0,1,,,,,
,,015692,001,2023-07-24_20h57.13.702,arm3_q,2022.2.5,Win32,59.99160118,5f0af097e7d15b3bf7734642,64aeaab685a29f4ca249be02,64bec976c6d9dc9ef9694ed1,right,-1,0.4357,0.35,9,-0.017042245,0.8175,,,,,,85,0,85,0,1,,,,,
,,015692,001,2023-07-24_20h57.13.702,arm3_q,2022.2.5,Win32,59.99160118,5f0af097e7d15b3bf7734642,64aeaab685a29f4ca249be02,64bec976c6d9dc9ef9694ed1,right,-1,0.4357,0.35,9,-0.005218634,0.449,,,,,,86,0,86,0,1,,,,,
,,015692,001,2023-07-24_20h57.13.702,arm3_q,2022.2.5,Win32,59.99160118,5f0af097e7d15b3bf7734642,64aeaab685a29f4ca249be02,64bec976c6d9dc9ef9694ed1,down,-1,0.4357,0.35,9,0,0.9027,,,,,,87,0,87,0,1,,,,,
,,015692,001,2023-07-24_20h57.13.702,arm3_q,2022.2.5,Win32,59.99160118,5f0af097e7d15b3bf7734642,64aeaab685a29f4ca249be02,64bec976c6d9dc9ef9694ed1,right,-1,0.4357,0.35,9,-0.051253615,0.7765,,,,,,88,0,88,0,1,,,,,
,,015692,001,2023-07-24_20h57.13.702,arm3_q,2022.2.5,Win32,59.99160118,5f0af097e7d15b3bf7734642,64aeaab685a29f4ca249be02,64bec976c6d9dc9ef9694ed1,right,-1,0.4357,0.35,9,-0.042358,0.3825,,,,,,89,0,89,0,1,,,,,
,,015692,001,2023-07-24_20h57.13.702,arm3_q,2022.2.5,Win32,59.99160118,5f0af097e7d15b3bf7734642,64aeaab685a29f4ca249be02,64bec976c6d9dc9ef9694ed1,right,-1,0.4357,0.35,9,-0.013746621,1.0507,,,,,,90,0,90,0,1,,,,,
,,015692,001,2023-07-24_20h57.13.702,arm3_q,2022.2.5,Win32,59.99160118,5f0af097e7d15b3bf7734642,64aeaab685a29f4ca249be02,64bec976c6d9dc9ef9694ed1,right,-1,0.4357,0.35,9,-0.018565925,1.2661,,,,,,91,0,91,0,1,,,,,
,,015692,001,2023-07-24_20h57.13.702,arm3_q,2022.2.5,Win32,59.99160118,5f0af097e7d15b3bf7734642,64aeaab685a29f4ca249be02,64bec976c6d9dc9ef9694ed1,down,1,0.4357,0.35,10,0,0.5557,,,,,,92,0,92,0,1,,,,,
,,015692,001,2023-07-24_20h57.13.702,arm3_q,2022.2.5,Win32,59.99160118,5f0af097e7d15b3bf7734642,64aeaab685a29f4ca249be02,64bec976c6d9dc9ef9694ed1,right,1,0.4357,0.35,10,-0.00245667,1.7057,,,,,,93,0,93,0,1,,,,,
,,015692,001,2023-07-24_20h57.13.702,arm3_q,2022.2.5,Win32,59.99160118,5f0af097e7d15b3bf7734642,64aeaab685a29f4ca249be02,64bec976c6d9dc9ef9694ed1,right,1,0.4357,0.35,10,-0.01587317,0.4254,,,,,,94,0,94,0,1,,,,,
,,015692,001,2023-07-24_20h57.13.702,arm3_q,2022.2.5,Win32,59.99160118,5f0af097e7d15b3bf7734642,64aeaab685a29f4ca249be02,64bec976c6d9dc9ef9694ed1,right,1,0.4357,0.35,10,-0.035284654,1.0318,,,,,,95,0,95,0,1,,,,,
,,015692,001,2023-07-24_20h57.13.702,arm3_q,2022.2.5,Win32,59.99160118,5f0af097e7d15b3bf7734642,64aeaab685a29f4ca249be02,64bec976c6d9dc9ef9694ed1,right,1,0.4357,0.35,10,-0.029649456,1.6048,,,,,,96,0,96,0,1,,,,,
,,015692,001,2023-07-24_20h57.13.702,arm3_q,2022.2.5,Win32,59.99160118,5f0af097e7d15b3bf7734642,64aeaab685a29f4ca249be02,64bec976c6d9dc9ef9694ed1,down,1,0.4357,0.35,9,0,0.5169,,,,,,97,0,97,0,1,,,,,
,,015692,001,2023-07-24_20h57.13.702,arm3_q,2022.2.5,Win32,59.99160118,5f0af097e7d15b3bf7734642,64aeaab685a29f4ca249be02,64bec976c6d9dc9ef9694ed1,right,1,0.4357,0.35,9,0.025488648,0.9555,,,,,,98,0,98,0,1,,,,,
,,015692,001,2023-07-24_20h57.13.702,arm3_q,2022.2.5,Win32,59.99160118,5f0af097e7d15b3bf7734642,64aeaab685a29f4ca249be02,64bec976c6d9dc9ef9694ed1,right,1,0.4357,0.35,9,0.014483521,0.3617,,,,,,99,0,99,0,1,,,,,
,,015692,001,2023-07-24_20h57.13.702,arm3_q,2022.2.5,Win32,59.99160118,5f0af097e7d15b3bf7734642,64aeaab685a29f4ca249be02,64bec976c6d9dc9ef9694ed1,up,1,0.4357,0.35,9,0,0.8019,,,,,,100,0,100,0,1,,,,,
,,015692,001,2023-07-24_20h57.13.702,arm3_q,2022.2.5,Win32,59.99160118,5f0af097e7d15b3bf7734642,64aeaab685a29f4ca249be02,64bec976c6d9dc9ef9694ed1,right,1,0.4357,0.35,9,-0.008545292,0.7667,,,,,,101,0,101,0,1,,,,,
,,015692,001,2023-07-24_20h57.13.702,arm3_q,2022.2.5,Win32,59.99160118,5f0af097e7d15b3bf7734642,64aeaab685a29f4ca249be02,64bec976c6d9dc9ef9694ed1,right,1,0.4357,0.35,9,-0.063570806,0.3864,,,,,,102,0,102,0,1,,,,,
,,015692,001,2023-07-24_20h57.13.702,arm3_q,2022.2.5,Win32,59.99160118,5f0af097e7d15b3bf7734642,64aeaab685a29f4ca249be02,64bec976c6d9dc9ef9694ed1,down,-1,0.4357,0.35,9,0,0.5227,,,,,,103,0,103,0,1,,,,,
,,015692,001,2023-07-24_20h57.13.702,arm3_q,2022.2.5,Win32,59.99160118,5f0af097e7d15b3bf7734642,64aeaab685a29f4ca249be02,64bec976c6d9dc9ef9694ed1,right,-1,0.4357,0.35,9,-0.032769019,0.6838,,,,,,104,0,104,0,1,,,,,
,,015692,001,2023-07-24_20h57.13.702,arm3_q,2022.2.5,Win32,59.99160118,5f0af097e7d15b3bf7734642,64aeaab685a29f4ca249be02,64bec976c6d9dc9ef9694ed1,right,-1,0.4357,0.35,9,-0.067876062,0.3481,,,,,,105,0,105,0,1,,,,,
,,015692,001,2023-07-24_20h57.13.702,arm3_q,2022.2.5,Win32,59.99160118,5f0af097e7d15b3bf7734642,64aeaab685a29f4ca249be02,64bec976c6d9dc9ef9694ed1,down,-1,0.4357,0.35,9,0,0.4656,,,,,,106,0,106,0,1,,,,,
,,015692,001,2023-07-24_20h57.13.702,arm3_q,2022.2.5,Win32,59.99160118,5f0af097e7d15b3bf7734642,64aeaab685a29f4ca249be02,64bec976c6d9dc9ef9694ed1,right,-1,0.4357,0.35,9,0.002253179,0.6688,,,,,,107,0,107,0,1,,,,,
,,015692,001,2023-07-24_20h57.13.702,arm3_q,2022.2.5,Win32,59.99160118,5f0af097e7d15b3bf7734642,64aeaab685a29f4ca249be02,64bec976c6d9dc9ef9694ed1,right,-1,0.4357,0.35,9,-0.015140687,0.3154,,,,,,108,0,108,0,1,,,,,
,,015692,001,2023-07-24_20h57.13.702,arm3_q,2022.2.5,Win32,59.99160118,5f0af097e7d15b3bf7734642,64aeaab685a29f4ca249be02,64bec976c6d9dc9ef9694ed1,right,-1,0.4357,0.35,9,-0.017335557,0.7383,,,,,,109,0,109,0,1,,,,,
,,015692,001,2023-07-24_20h57.13.702,arm3_q,2022.2.5,Win32,59.99160118,5f0af097e7d15b3bf7734642,64aeaab685a29f4ca249be02,64bec976c6d9dc9ef9694ed1,right,-1,0.4357,0.35,9,-0.025364983,0.3843,,,,,,110,0,110,0,1,,,,,
,,015692,001,2023-07-24_20h57.13.702,arm3_q,2022.2.5,Win32,59.99160118,5f0af097e7d15b3bf7734642,64aeaab685a29f4ca249be02,64bec976c6d9dc9ef9694ed1,down,-1,0.4357,0.35,10,0,0.968,,,,,,111,0,111,0,1,,,,,
,,015692,001,2023-07-24_20h57.13.702,arm3_q,2022.2.5,Win32,59.99160118,5f0af097e7d15b3bf7734642,64aeaab685a29f4ca249be02,64bec976c6d9dc9ef9694ed1,right,-1,0.4357,0.35,10,-0.026650076,0.7817,,,,,,112,0,112,0,1,,,,,
,,015692,001,2023-07-24_20h57.13.702,arm3_q,2022.2.5,Win32,59.99160118,5f0af097e7d15b3bf7734642,64aeaab685a29f4ca249be02,64bec976c6d9dc9ef9694ed1,right,-1,0.4357,0.35,10,-0.045781391,0.3656,,,,,,113,0,113,0,1,,,,,
,,015692,001,2023-07-24_20h57.13.702,arm3_q,2022.2.5,Win32,59.99160118,5f0af097e7d15b3bf7734642,64aeaab685a29f4ca249be02,64bec976c6d9dc9ef9694ed1,right,-1,0.4357,0.35,10,-0.02251401,0.7253,,,,,,114,0,114,0,1,,,,,
,,015692,001,2023-07-24_20h57.13.702,arm3_q,2022.2.5,Win32,59.99160118,5f0af097e7d15b3bf7734642,64aeaab685a29f4ca249be02,64bec976c6d9dc9ef9694ed1,right,-1,0.4357,0.35,10,-0.050066231,0.4991,,,,,,115,0,115,0,1,,,,,
,,015692,001,2023-07-24_20h57.13.702,arm3_q,2022.2.5,Win32,59.99160118,5f0af097e7d15b3bf7734642,64aeaab685a29f4ca249be02,64bec976c6d9dc9ef9694ed1,down,-1,0.4357,0.35,11,0,0.6511,,,,,,116,0,116,0,1,,,,,
,,015692,001,2023-07-24_20h57.13.702,arm3_q,2022.2.5,Win32,59.99160118,5f0af097e7d15b3bf7734642,64aeaab685a29f4ca249be02,64bec976c6d9dc9ef9694ed1,right,-1,0.4357,0.35,11,-0.024283576,0.6982,,,,,,117,0,117,0,1,,,,,
,,015692,001,2023-07-24_20h57.13.702,arm3_q,2022.2.5,Win32,59.99160118,5f0af097e7d15b3bf7734642,64aeaab685a29f4ca249be02,64bec976c6d9dc9ef9694ed1,right,-1,0.4357,0.35,11,-0.014238376,0.3806,,,,,,118,0,118,0,1,,,,,
,,015692,001,2023-07-24_20h57.13.702,arm3_q,2022.2.5,Win32,59.99160118,5f0af097e7d15b3bf7734642,64aeaab685a29f4ca249be02,64bec976c6d9dc9ef9694ed1,right,-1,0.4357,0.35,11,-0.004139026,1.3558,,,,,,119,0,119,0,1,,,,,
,,015692,001,2023-07-24_20h57.13.702,arm3_q,2022.2.5,Win32,59.99160118,5f0af097e7d15b3bf7734642,64aeaab685a29f4ca249be02,64bec976c6d9dc9ef9694ed1,right,-1,0.4357,0.35,11,-0.005037169,1.0534,,,,,,120,0,120,0,1,,,,,
,,015692,001,2023-07-24_20h57.13.702,arm3_q,2022.2.5,Win32,59.99160118,5f0af097e7d15b3bf7734642,64aeaab685a29f4ca249be02,64bec976c6d9dc9ef9694ed1,down,-1,0.4357,0.35,11,0,0.566,,,,,,121,0,121,0,1,,,,,
,,015692,001,2023-07-24_20h57.13.702,arm3_q,2022.2.5,Win32,59.99160118,5f0af097e7d15b3bf7734642,64aeaab685a29f4ca249be02,64bec976c6d9dc9ef9694ed1,right,-1,0.4357,0.35,11,-0.014465307,0.7047,,,,,,122,0,122,0,1,,,,,
,,015692,001,2023-07-24_20h57.13.702,arm3_q,2022.2.5,Win32,59.99160118,5f0af097e7d15b3bf7734642,64aeaab685a29f4ca249be02,64bec976c6d9dc9ef9694ed1,right,-1,0.4357,0.35,11,-0.035110293,0.359,,,,,,123,0,123,0,1,,,,,
,,015692,001,2023-07-24_20h57.13.702,arm3_q,2022.2.5,Win32,59.99160118,5f0af097e7d15b3bf7734642,64aeaab685a29f4ca249be02,64bec976c6d9dc9ef9694ed1,right,-1,0.4357,0.35,11,-0.048015454,0.7162,,,,,,124,0,124,0,1,,,,,
,,015692,001,2023-07-24_20h57.13.702,arm3_q,2022.2.5,Win32,59.99160118,5f0af097e7d15b3bf7734642,64aeaab685a29f4ca249be02,64bec976c6d9dc9ef9694ed1,down,1,0.4357,0.35,11,0,1.0911,,,,,,125,0,125,0,1,,,,,
,,015692,001,2023-07-24_20h57.13.702,arm3_q,2022.2.5,Win32,59.99160118,5f0af097e7d15b3bf7734642,64aeaab685a29f4ca249be02,64bec976c6d9dc9ef9694ed1,right,1,0.4357,0.35,11,-0.014707565,0.6644,,,,,,126,0,126,0,1,,,,,
,,015692,001,2023-07-24_20h57.13.702,arm3_q,2022.2.5,Win32,59.99160118,5f0af097e7d15b3bf7734642,64aeaab685a29f4ca249be02,64bec976c6d9dc9ef9694ed1,right,1,0.4357,0.35,11,0.017518209,0.5311,,,,,,127,0,127,0,1,,,,,
,,015692,001,2023-07-24_20h57.13.702,arm3_q,2022.2.5,Win32,59.99160118,5f0af097e7d15b3bf7734642,64aeaab685a29f4ca249be02,64bec976c6d9dc9ef9694ed1,up,1,0.4357,0.35,11,0,0.8142,,,,,,128,0,128,0,1,,,,,
,,015692,001,2023-07-24_20h57.13.702,arm3_q,2022.2.5,Win32,59.99160118,5f0af097e7d15b3bf7734642,64aeaab685a29f4ca249be02,64bec976c6d9dc9ef9694ed1,right,1,0.4357,0.35,11,-0.003219758,0.698,,,,,,129,0,129,0,1,,,,,
,,015692,001,2023-07-24_20h57.13.702,arm3_q,2022.2.5,Win32,59.99160118,5f0af097e7d15b3bf7734642,64aeaab685a29f4ca249be02,64bec976c6d9dc9ef9694ed1,right,1,0.4357,0.35,11,0.010523879,0.3832,,,,,,130,0,130,0,1,,,,,
,,015692,001,2023-07-24_20h57.13.702,arm3_q,2022.2.5,Win32,59.99160118,5f0af097e7d15b3bf7734642,64aeaab685a29f4ca249be02,64bec976c6d9dc9ef9694ed1,up,-1,0.4357,0.35,12,0,0.4874,,,,,,131,0,131,0,1,,,,,
,,015692,001,2023-07-24_20h57.13.702,arm3_q,2022.2.5,Win32,59.99160118,5f0af097e7d15b3bf7734642,64aeaab685a29f4ca249be02,64bec976c6d9dc9ef9694ed1,right,-1,0.4357,0.35,12,-0.008413251,1.5987,,,,,,132,0,132,0,1,,,,,
,,015692,001,2023-07-24_20h57.13.702,arm3_q,2022.2.5,Win32,59.99160118,5f0af097e7d15b3bf7734642,64aeaab685a29f4ca249be02,64bec976c6d9dc9ef9694ed1,right,-1,0.4357,0.35,12,0.027418092,0.4264,,,,,,133,0,133,0,1,,,,,
,,015692,001,2023-07-24_20h57.13.702,arm3_q,2022.2.5,Win32,59.99160118,5f0af097e7d15b3bf7734642,64aeaab685a29f4ca249be02,64bec976c6d9dc9ef9694ed1,right,-1,0.4357,0.35,12,0.004568989,0.5853,,,,,,134,0,134,0,1,,,,,
,,015692,001,2023-07-24_20h57.13.702,arm3_q,2022.2.5,Win32,59.99160118,5f0af097e7d15b3bf7734642,64aeaab685a29f4ca249be02,64bec976c6d9dc9ef9694ed1,right,-1,0.4357,0.35,12,-0.016998505,0.5209,,,,,,135,0,135,0,1,,,,,
,,015692,001,2023-07-24_20h57.13.702,arm3_q,2022.2.5,Win32,59.99160118,5f0af097e7d15b3bf7734642,64aeaab685a29f4ca249be02,64bec976c6d9dc9ef9694ed1,right,-1,0.4357,0.35,12,-0.012490003,0.7398,,,,,,136,0,136,0,1,,,,,
,,015692,001,2023-07-24_20h57.13.702,arm3_q,2022.2.5,Win32,59.99160118,5f0af097e7d15b3bf7734642,64aeaab685a29f4ca249be02,64bec976c6d9dc9ef9694ed1,down,-1,0.4357,0.35,12,0,0.6859,,,,,,137,0,137,0,1,,,,,
,,015692,001,2023-07-24_20h57.13.702,arm3_q,2022.2.5,Win32,59.99160118,5f0af097e7d15b3bf7734642,64aeaab685a29f4ca249be02,64bec976c6d9dc9ef9694ed1,right,-1,0.4357,0.35,12,0.017641246,0.7642,,,,,,138,0,138,0,1,,,,,
,,015692,001,2023-07-24_20h57.13.702,arm3_q,2022.2.5,Win32,59.99160118,5f0af097e7d15b3bf7734642,64aeaab685a29f4ca249be02,64bec976c6d9dc9ef9694ed1,right,-1,0.4357,0.35,12,0.001533806,0.3341,,,,,,139,0,139,0,1,,,,,
,,015692,001,2023-07-24_20h57.13.702,arm3_q,2022.2.5,Win32,59.99160118,5f0af097e7d15b3bf7734642,64aeaab685a29f4ca249be02,64bec976c6d9dc9ef9694ed1,right,-1,0.4357,0.35,12,0.018079275,0.6521,,,,,,140,0,140,0,1,,,,,
,,015692,001,2023-07-24_20h57.13.702,arm3_q,2022.2.5,Win32,59.99160118,5f0af097e7d15b3bf7734642,64aeaab685a29f4ca249be02,64bec976c6d9dc9ef9694ed1,right,-1,0.4357,0.35,12,0.001672829,0.4984,,,,,,141,0,141,0,1,,,,,
,,015692,001,2023-07-24_20h57.13.702,arm3_q,2022.2.5,Win32,59.99160118,5f0af097e7d15b3bf7734642,64aeaab685a29f4ca249be02,64bec976c6d9dc9ef9694ed1,up,-1,0.4357,0.35,11,0,0.9999,,,,,,142,0,142,0,1,,,,,
,,015692,001,2023-07-24_20h57.13.702,arm3_q,2022.2.5,Win32,59.99160118,5f0af097e7d15b3bf7734642,64aeaab685a29f4ca249be02,64bec976c6d9dc9ef9694ed1,right,-1,0.4357,0.35,11,-0.02023901,1.034,,,,,,143,0,143,0,1,,,,,
,,015692,001,2023-07-24_20h57.13.702,arm3_q,2022.2.5,Win32,59.99160118,5f0af097e7d15b3bf7734642,64aeaab685a29f4ca249be02,64bec976c6d9dc9ef9694ed1,right,-1,0.4357,0.35,11,-0.04639705,0.3506,,,,,,144,0,144,0,1,,,,,
,,015692,001,2023-07-24_20h57.13.702,arm3_q,2022.2.5,Win32,59.99160118,5f0af097e7d15b3bf7734642,64aeaab685a29f4ca249be02,64bec976c6d9dc9ef9694ed1,right,-1,0.4357,0.35,11,-0.050117729,0.4377,,,,,,145,0,145,0,1,,,,,
,,015692,001,2023-07-24_20h57.13.702,arm3_q,2022.2.5,Win32,59.99160118,5f0af097e7d15b3bf7734642,64aeaab685a29f4ca249be02,64bec976c6d9dc9ef9694ed1,down,1,0.4357,0.35,12,0,0.367,,,,,,146,0,146,0,1,,,,,
,,015692,001,2023-07-24_20h57.13.702,arm3_q,2022.2.5,Win32,59.99160118,5f0af097e7d15b3bf7734642,64aeaab685a29f4ca249be02,64bec976c6d9dc9ef9694ed1,right,1,0.4357,0.35,12,0.002507974,0.7504,,,,,,147,0,147,0,1,,,,,
,,015692,001,2023-07-24_20h57.13.702,arm3_q,2022.2.5,Win32,59.99160118,5f0af097e7d15b3bf7734642,64aeaab685a29f4ca249be02,64bec976c6d9dc9ef9694ed1,right,1,0.4357,0.35,12,0.039893707,0.4841,,,,,,148,0,148,0,1,,,,,
,,015692,001,2023-07-24_20h57.13.702,arm3_q,2022.2.5,Win32,59.99160118,5f0af097e7d15b3bf7734642,64aeaab685a29f4ca249be02,64bec976c6d9dc9ef9694ed1,right,1,0.4357,0.35,12,0.022067762,0.4673,,,,,,149,0,149,0,1,,,,,
,,015692,001,2023-07-24_20h57.13.702,arm3_q,2022.2.5,Win32,59.99160118,5f0af097e7d15b3bf7734642,64aeaab685a29f4ca249be02,64bec976c6d9dc9ef9694ed1,up,1,0.4357,0.35,12,0,0.5005,,,,,,150,0,150,0,1,,,,,
,,015692,001,2023-07-24_20h57.13.702,arm3_q,2022.2.5,Win32,59.99160118,5f0af097e7d15b3bf7734642,64aeaab685a29f4ca249be02,64bec976c6d9dc9ef9694ed1,right,1,0.4357,0.35,12,-0.013977389,0.7672,,,,,,151,0,151,0,1,,,,,
,,015692,001,2023-07-24_20h57.13.702,arm3_q,2022.2.5,Win32,59.99160118,5f0af097e7d15b3bf7734642,64aeaab685a29f4ca249be02,64bec976c6d9dc9ef9694ed1,right,1,0.4357,0.35,12,-0.017125805,0.3733,,,,,,152,0,152,0,1,,,,,
,,015692,001,2023-07-24_20h57.13.702,arm3_q,2022.2.5,Win32,59.99160118,5f0af097e7d15b3bf7734642,64aeaab685a29f4ca249be02,64bec976c6d9dc9ef9694ed1,down,-1,0.4357,0.35,11,0,0.7004,,,,,,153,0,153,0,1,,,,,
,,015692,001,2023-07-24_20h57.13.702,arm3_q,2022.2.5,Win32,59.99160118,5f0af097e7d15b3bf7734642,64aeaab685a29f4ca249be02,64bec976c6d9dc9ef9694ed1,right,-1,0.4357,0.35,11,0.002157775,0.9508,,,,,,154,0,154,0,1,,,,,
,,015692,001,2023-07-24_20h57.13.702,arm3_q,2022.2.5,Win32,59.99160118,5f0af097e7d15b3bf7734642,64aeaab685a29f4ca249be02,64bec976c6d9dc9ef9694ed1,right,-1,0.4357,0.35,11,-0.008979948,0.3337,,,,,,155,0,155,0,1,,,,,
,,015692,001,2023-07-24_20h57.13.702,arm3_q,2022.2.5,Win32,59.99160118,5f0af097e7d15b3bf7734642,64aeaab685a29f4ca249be02,64bec976c6d9dc9ef9694ed1,right,-1,0.4357,0.35,11,-0.04546391,0.6007,,,,,,156,0,156,0,1,,,,,
,,015692,001,2023-07-24_20h57.13.702,arm3_q,2022.2.5,Win32,59.99160118,5f0af097e7d15b3bf7734642,64aeaab685a29f4ca249be02,64bec976c6d9dc9ef9694ed1,down,-1,0.4357,0.35,11,0,0.3338,,,,,,157,0,157,0,1,,,,,
,,015692,001,2023-07-24_20h57.13.702,arm3_q,2022.2.5,Win32,59.99160118,5f0af097e7d15b3bf7734642,64aeaab685a29f4ca249be02,64bec976c6d9dc9ef9694ed1,right,-1,0.4357,0.35,11,-0.033849613,0.6372,,,,,,158,0,158,0,1,,,,,
,,015692,001,2023-07-24_20h57.13.702,arm3_q,2022.2.5,Win32,59.99160118,5f0af097e7d15b3bf7734642,64aeaab685a29f4ca249be02,64bec976c6d9dc9ef9694ed1,right,-1,0.4357,0.35,11,-0.044759908,0.2838,,,,,,159,0,159,0,1,,,,,
,,015692,001,2023-07-24_20h57.13.702,arm3_q,2022.2.5,Win32,59.99160118,5f0af097e7d15b3bf7734642,64aeaab685a29f4ca249be02,64bec976c6d9dc9ef9694ed1,right,-1,0.4357,0.35,11,-0.042338827,0.9838,,,,,,160,0,160,0,1,,,,,
,,015692,001,2023-07-24_20h57.13.702,arm3_q,2022.2.5,Win32,59.99160118,5f0af097e7d15b3bf7734642,64aeaab685a29f4ca249be02,64bec976c6d9dc9ef9694ed1,down,-1,0.4357,0.35,11,0,0.4837,,,,,,161,0,161,0,1,,,,,
,,015692,001,2023-07-24_20h57.13.702,arm3_q,2022.2.5,Win32,59.99160118,5f0af097e7d15b3bf7734642,64aeaab685a29f4ca249be02,64bec976c6d9dc9ef9694ed1,right,-1,0.4357,0.35,11,0.000215625,0.6533,,,,,,162,0,162,0,1,,,,,
,,015692,001,2023-07-24_20h57.13.702,arm3_q,2022.2.5,Win32,59.99160118,5f0af097e7d15b3bf7734642,64aeaab685a29f4ca249be02,64bec976c6d9dc9ef9694ed1,right,-1,0.4357,0.35,11,-0.036373819,0.2671,,,,,,163,0,163,0,1,,,,,
,,015692,001,2023-07-24_20h57.13.702,arm3_q,2022.2.5,Win32,59.99160118,5f0af097e7d15b3bf7734642,64aeaab685a29f4ca249be02,64bec976c6d9dc9ef9694ed1,right,-1,0.4357,0.35,11,-0.044701924,0.8174,,,,,,164,0,164,0,1,,,,,
,,015692,001,2023-07-24_20h57.13.702,arm3_q,2022.2.5,Win32,59.99160118,5f0af097e7d15b3bf7734642,64aeaab685a29f4ca249be02,64bec976c6d9dc9ef9694ed1,down,-1,0.4357,0.35,11,0,1.3671,,,,,,165,0,165,0,1,,,,,
,,015692,001,2023-07-24_20h57.13.702,arm3_q,2022.2.5,Win32,59.99160118,5f0af097e7d15b3bf7734642,64aeaab685a29f4ca249be02,64bec976c6d9dc9ef9694ed1,right,-1,0.4357,0.35,11,0.006041704,0.7793,,,,,,166,0,166,0,1,,,,,
,,015692,001,2023-07-24_20h57.13.702,arm3_q,2022.2.5,Win32,59.99160118,5f0af097e7d15b3bf7734642,64aeaab685a29f4ca249be02,64bec976c6d9dc9ef9694ed1,right,-1,0.4357,0.35,11,-0.013779864,0.2995,,,,,,167,0,167,0,1,,,,,
,,015692,001,2023-07-24_20h57.13.702,arm3_q,2022.2.5,Win32,59.99160118,5f0af097e7d15b3bf7734642,64aeaab685a29f4ca249be02,64bec976c6d9dc9ef9694ed1,right,-1,0.4357,0.35,11,-0.02670266,0.4704,,,,,,168,0,168,0,1,,,,,
,,015692,001,2023-07-24_20h57.13.702,arm3_q,2022.2.5,Win32,59.99160118,5f0af097e7d15b3bf7734642,64aeaab685a29f4ca249be02,64bec976c6d9dc9ef9694ed1,down,1,0.4357,0.35,11,0,0.9782,,,,,,169,0,169,0,1,,,,,
,,015692,001,2023-07-24_20h57.13.702,arm3_q,2022.2.5,Win32,59.99160118,5f0af097e7d15b3bf7734642,64aeaab685a29f4ca249be02,64bec976c6d9dc9ef9694ed1,right,1,0.4357,0.35,11,-0.042392145,0.5673,,,,,,170,0,170,0,1,,,,,
,,015692,001,2023-07-24_20h57.13.702,arm3_q,2022.2.5,Win32,59.99160118,5f0af097e7d15b3bf7734642,64aeaab685a29f4ca249be02,64bec976c6d9dc9ef9694ed1,right,1,0.4357,0.35,11,-0.024970464,0.379,,,,,,171,0,171,0,1,,,,,
,,015692,001,2023-07-24_20h57.13.702,arm3_q,2022.2.5,Win32,59.99160118,5f0af097e7d15b3bf7734642,64aeaab685a29f4ca249be02,64bec976c6d9dc9ef9694ed1,right,1,0.4357,0.35,11,-0.014594545,0.7171,,,,,,172,0,172,0,1,,,,,
,,015692,001,2023-07-24_20h57.13.702,arm3_q,2022.2.5,Win32,59.99160118,5f0af097e7d15b3bf7734642,64aeaab685a29f4ca249be02,64bec976c6d9dc9ef9694ed1,down,1,0.4357,0.35,11,0,0.5666,,,,,,173,0,173,0,1,,,,,
,,015692,001,2023-07-24_20h57.13.702,arm3_q,2022.2.5,Win32,59.99160118,5f0af097e7d15b3bf7734642,64aeaab685a29f4ca249be02,64bec976c6d9dc9ef9694ed1,right,1,0.4357,0.35,11,0.067933972,0.6329,,,,,,174,0,174,0,1,,,,,
,,015692,001,2023-07-24_20h57.13.702,arm3_q,2022.2.5,Win32,59.99160118,5f0af097e7d15b3bf7734642,64aeaab685a29f4ca249be02,64bec976c6d9dc9ef9694ed1,right,1,0.4357,0.35,11,0.074643101,0.5496,,,,,,175,0,175,0,1,,,,,
,,015692,001,2023-07-24_20h57.13.702,arm3_q,2022.2.5,Win32,59.99160118,5f0af097e7d15b3bf7734642,64aeaab685a29f4ca249be02,64bec976c6d9dc9ef9694ed1,up,1,0.4357,0.35,11,0,0.5668,,,,,,176,0,176,0,1,,,,,
,,015692,001,2023-07-24_20h57.13.702,arm3_q,2022.2.5,Win32,59.99160118,5f0af097e7d15b3bf7734642,64aeaab685a29f4ca249be02,64bec976c6d9dc9ef9694ed1,right,1,0.4357,0.35,11,0.024813833,0.5899,,,,,,177,0,177,0,1,,,,,
,,015692,001,2023-07-24_20h57.13.702,arm3_q,2022.2.5,Win32,59.99160118,5f0af097e7d15b3bf7734642,64aeaab685a29f4ca249be02,64bec976c6d9dc9ef9694ed1,right,1,0.4357,0.35,11,0.047114838,0.3729,,,,,,178,0,178,0,1,,,,,
,,015692,001,2023-07-24_20h57.13.702,arm3_q,2022.2.5,Win32,59.99160118,5f0af097e7d15b3bf7734642,64aeaab685a29f4ca249be02,64bec976c6d9dc9ef9694ed1,right,1,0.4357,0.35,11,0.038056082,0.5337,,,,,,179,0,179,0,1,,,,,
,,015692,001,2023-07-24_20h57.13.702,arm3_q,2022.2.5,Win32,59.99160118,5f0af097e7d15b3bf7734642,64aeaab685a29f4ca249be02,64bec976c6d9dc9ef9694ed1,right,1,0.4357,0.35,11,0.01950653,1.2505,,,,,,180,0,180,0,1,,,,,
,,015692,001,2023-07-24_20h57.13.702,arm3_q,2022.2.5,Win32,59.99160118,5f0af097e7d15b3bf7734642,64aeaab685a29f4ca249be02,64bec976c6d9dc9ef9694ed1,right,1,0.4357,0.35,11,-0.00878894,0.5328,,,,,,181,0,181,0,1,,,,,
,,015692,001,2023-07-24_20h57.13.702,arm3_q,2022.2.5,Win32,59.99160118,5f0af097e7d15b3bf7734642,64aeaab685a29f4ca249be02,64bec976c6d9dc9ef9694ed1,right,1,0.4357,0.35,11,-0.003910133,0.5339,,,,,,182,0,182,0,1,,,,,
,,015692,001,2023-07-24_20h57.13.702,arm3_q,2022.2.5,Win32,59.99160118,5f0af097e7d15b3bf7734642,64aeaab685a29f4ca249be02,64bec976c6d9dc9ef9694ed1,up,1,0.4357,0.35,12,0,0.5924,,,,,,183,0,183,0,1,,,,,
,,015692,001,2023-07-24_20h57.13.702,arm3_q,2022.2.5,Win32,59.99160118,5f0af097e7d15b3bf7734642,64aeaab685a29f4ca249be02,64bec976c6d9dc9ef9694ed1,right,1,0.4357,0.35,12,0.003556573,0.8505,,,,,,184,0,184,0,1,,,,,
,,015692,001,2023-07-24_20h57.13.702,arm3_q,2022.2.5,Win32,59.99160118,5f0af097e7d15b3bf7734642,64aeaab685a29f4ca249be02,64bec976c6d9dc9ef9694ed1,right,1,0.4357,0.35,12,-0.015720086,0.3839,,,,,,185,0,185,0,1,,,,,
,,015692,001,2023-07-24_20h57.13.702,arm3_q,2022.2.5,Win32,59.99160118,5f0af097e7d15b3bf7734642,64aeaab685a29f4ca249be02,64bec976c6d9dc9ef9694ed1,right,1,0.4357,0.35,12,-0.034108918,0.417,,,,,,186,0,186,0,1,,,,,
,,015692,001,2023-07-24_20h57.13.702,arm3_q,2022.2.5,Win32,59.99160118,5f0af097e7d15b3bf7734642,64aeaab685a29f4ca249be02,64bec976c6d9dc9ef9694ed1,right,1,0.4357,0.35,12,-0.057675738,0.5838,,,,,,187,0,187,0,1,,,,,
,,015692,001,2023-07-24_20h57.13.702,arm3_q,2022.2.5,Win32,59.99160118,5f0af097e7d15b3bf7734642,64aeaab685a29f4ca249be02,64bec976c6d9dc9ef9694ed1,down,1,0.4357,0.35,11,0,0.4338,,,,,,188,0,188,0,1,,,,,
,,015692,001,2023-07-24_20h57.13.702,arm3_q,2022.2.5,Win32,59.99160118,5f0af097e7d15b3bf7734642,64aeaab685a29f4ca249be02,64bec976c6d9dc9ef9694ed1,right,1,0.4357,0.35,11,0.024377272,0.7497,,,,,,189,0,189,0,1,,,,,
,,015692,001,2023-07-24_20h57.13.702,arm3_q,2022.2.5,Win32,59.99160118,5f0af097e7d15b3bf7734642,64aeaab685a29f4ca249be02,64bec976c6d9dc9ef9694ed1,right,1,0.4357,0.35,11,0.000944322,0.3632,,,,,,190,0,190,0,1,,,,,
,,015692,001,2023-07-24_20h57.13.702,arm3_q,2022.2.5,Win32,59.99160118,5f0af097e7d15b3bf7734642,64aeaab685a29f4ca249be02,64bec976c6d9dc9ef9694ed1,right,1,0.4357,0.35,11,0.007752352,0.4839,,,,,,191,0,191,0,1,,,,,
,,015692,001,2023-07-24_20h57.13.702,arm3_q,2022.2.5,Win32,59.99160118,5f0af097e7d15b3bf7734642,64aeaab685a29f4ca249be02,64bec976c6d9dc9ef9694ed1,up,1,0.4357,0.35,11,0,0.5171,,,,,,192,0,192,0,1,,,,,
,,015692,001,2023-07-24_20h57.13.702,arm3_q,2022.2.5,Win32,59.99160118,5f0af097e7d15b3bf7734642,64aeaab685a29f4ca249be02,64bec976c6d9dc9ef9694ed1,right,1,0.4357,0.35,11,0.010442556,0.6263,,,,,,193,0,193,0,1,,,,,
,,015692,001,2023-07-24_20h57.13.702,arm3_q,2022.2.5,Win32,59.99160118,5f0af097e7d15b3bf7734642,64aeaab685a29f4ca249be02,64bec976c6d9dc9ef9694ed1,right,1,0.4357,0.35,11,0.011135011,0.3672,,,,,,194,0,194,0,1,,,,,
,,015692,001,2023-07-24_20h57.13.702,arm3_q,2022.2.5,Win32,59.99160118,5f0af097e7d15b3bf7734642,64aeaab685a29f4ca249be02,64bec976c6d9dc9ef9694ed1,up,1,0.4357,0.35,12,0,0.5171,,,,,,195,0,195,0,1,,,,,
,,015692,001,2023-07-24_20h57.13.702,arm3_q,2022.2.5,Win32,59.99160118,5f0af097e7d15b3bf7734642,64aeaab685a29f4ca249be02,64bec976c6d9dc9ef9694ed1,right,1,0.4357,0.35,12,-0.003501166,0.6507,,,,,,196,0,196,0,1,,,,,
,,015692,001,2023-07-24_20h57.13.702,arm3_q,2022.2.5,Win32,59.99160118,5f0af097e7d15b3bf7734642,64aeaab685a29f4ca249be02,64bec976c6d9dc9ef9694ed1,right,1,0.4357,0.35,12,-0.008570431,0.3337,,,,,,197,0,197,0,1,,,,,
,,015692,001,2023-07-24_20h57.13.702,arm3_q,2022.2.5,Win32,59.99160118,5f0af097e7d15b3bf7734642,64aeaab685a29f4ca249be02,64bec976c6d9dc9ef9694ed1,right,1,0.4357,0.35,12,-0.011721992,0.4025,,,,,,198,0,198,0,1,,,,,
,,015692,001,2023-07-24_20h57.13.702,arm3_q,2022.2.5,Win32,59.99160118,5f0af097e7d15b3bf7734642,64aeaab685a29f4ca249be02,64bec976c6d9dc9ef9694ed1,right,1,0.4357,0.35,12,0.00460658,0.5171,,,,,,199,0,199,0,1,,,,,
,,015692,001,2023-07-24_20h57.13.702,arm3_q,2022.2.5,Win32,59.99160118,5f0af097e7d15b3bf7734642,64aeaab685a29f4ca249be02,64bec976c6d9dc9ef9694ed1,up,-1,0.4357,0.35,13,0,0.6005,,,,,,200,0,200,0,1,,,,,
,,015692,001,2023-07-24_20h57.13.702,arm3_q,2022.2.5,Win32,59.99160118,5f0af097e7d15b3bf7734642,64aeaab685a29f4ca249be02,64bec976c6d9dc9ef9694ed1,right,-1,0.4357,0.35,13,0.007673231,0.6338,,,,,,201,0,201,0,1,,,,,
,,015692,001,2023-07-24_20h57.13.702,arm3_q,2022.2.5,Win32,59.99160118,5f0af097e7d15b3bf7734642,64aeaab685a29f4ca249be02,64bec976c6d9dc9ef9694ed1,right,-1,0.4357,0.35,13,-0.000949911,0.3339,,,,,,202,0,202,0,1,,,,,
,,015692,001,2023-07-24_20h57.13.702,arm3_q,2022.2.5,Win32,59.99160118,5f0af097e7d15b3bf7734642,64aeaab685a29f4ca249be02,64bec976c6d9dc9ef9694ed1,right,-1,0.4357,0.35,13,-0.009762241,0.3504,,,,,,203,0,203,0,1,,,,,
,,015692,001,2023-07-24_20h57.13.702,arm3_q,2022.2.5,Win32,59.99160118,5f0af097e7d15b3bf7734642,64aeaab685a29f4ca249be02,64bec976c6d9dc9ef9694ed1,right,-1,0.4357,0.35,13,-0.022037479,0.4171,,,,,,204,0,204,0,1,,,,,
,,015692,001,2023-07-24_20h57.13.702,arm3_q,2022.2.5,Win32,59.99160118,5f0af097e7d15b3bf7734642,64aeaab685a29f4ca249be02,64bec976c6d9dc9ef9694ed1,right,-1,0.4357,0.35,13,-0.048791383,0.6005,,,,,,205,0,205,0,1,,,,,
,,015692,001,2023-07-24_20h57.13.702,arm3_q,2022.2.5,Win32,59.99160118,5f0af097e7d15b3bf7734642,64aeaab685a29f4ca249be02,64bec976c6d9dc9ef9694ed1,down,-1,0.4357,0.35,13,0,0.6338,,,,,,206,0,206,0,1,,,,,
,,015692,001,2023-07-24_20h57.13.702,arm3_q,2022.2.5,Win32,59.99160118,5f0af097e7d15b3bf7734642,64aeaab685a29f4ca249be02,64bec976c6d9dc9ef9694ed1,right,-1,0.4357,0.35,13,-0.034896236,0.6005,,,,,,207,0,207,0,1,,,,,
,,015692,001,2023-07-24_20h57.13.702,arm3_q,2022.2.5,Win32,59.99160118,5f0af097e7d15b3bf7734642,64aeaab685a29f4ca249be02,64bec976c6d9dc9ef9694ed1,right,-1,0.4357,0.35,13,-0.063198776,0.2839,,,,,,208,0,208,0,1,,,,,
,,015692,001,2023-07-24_20h57.13.702,arm3_q,2022.2.5,Win32,59.99160118,5f0af097e7d15b3bf7734642,64aeaab685a29f4ca249be02,64bec976c6d9dc9ef9694ed1,right,-1,0.4357,0.35,13,-0.057884392,0.3672,,,,,,209,0,209,0,1,,,,,
,,015692,001,2023-07-24_20h57.13.702,arm3_q,2022.2.5,Win32,59.99160118,5f0af097e7d15b3bf7734642,64aeaab685a29f4ca249be02,64bec976c6d9dc9ef9694ed1,right,-1,0.4357,0.35,13,-0.031461684,0.7838,,,,,,210,0,210,0,1,,,,,
,,015692,001,2023-07-24_20h57.13.702,arm3_q,2022.2.5,Win32,59.99160118,5f0af097e7d15b3bf7734642,64aeaab685a29f4ca249be02,64bec976c6d9dc9ef9694ed1,down,-1,0.4357,0.35,13,0,0.7205,,,,,,211,0,211,0,1,,,,,
,,015692,001,2023-07-24_20h57.13.702,arm3_q,2022.2.5,Win32,59.99160118,5f0af097e7d15b3bf7734642,64aeaab685a29f4ca249be02,64bec976c6d9dc9ef9694ed1,right,-1,0.4357,0.35,13,-0.018152828,0.6834,,,,,,212,0,212,0,1,,,,,
,,015692,001,2023-07-24_20h57.13.702,arm3_q,2022.2.5,Win32,59.99160118,5f0af097e7d15b3bf7734642,64aeaab685a29f4ca249be02,64bec976c6d9dc9ef9694ed1,right,-1,0.4357,0.35,13,-0.014439327,0.4162,,,,,,213,0,213,0,1,,,,,
,,015692,001,2023-07-24_20h57.13.702,arm3_q,2022.2.5,Win32,59.99160118,5f0af097e7d15b3bf7734642,64aeaab685a29f4ca249be02,64bec976c6d9dc9ef9694ed1,right,-1,0.4357,0.35,13,-0.026792136,0.4507,,,,,,214,0,214,0,1,,,,,
,,015692,001,2023-07-24_20h57.13.702,arm3_q,2022.2.5,Win32,59.99160118,5f0af097e7d15b3bf7734642,64aeaab685a29f4ca249be02,64bec976c6d9dc9ef9694ed1,right,-1,0.4357,0.35,13,-0.038696055,0.6006,,,,,,215,0,215,0,1,,,,,
,,015692,001,2023-07-24_20h57.13.702,arm3_q,2022.2.5,Win32,59.99160118,5f0af097e7d15b3bf7734642,64aeaab685a29f4ca249be02,64bec976c6d9dc9ef9694ed1,down,-1,0.4357,0.35,14,0,0.5337,,,,,,216,0,216,0,1,,,,,
,,015692,001,2023-07-24_20h57.13.702,arm3_q,2022.2.5,Win32,59.99160118,5f0af097e7d15b3bf7734642,64aeaab685a29f4ca249be02,64bec976c6d9dc9ef9694ed1,right,-1,0.4357,0.35,14,-0.010152826,0.7337,,,,,,217,0,217,0,1,,,,,
,,015692,001,2023-07-24_20h57.13.702,arm3_q,2022.2.5,Win32,59.99160118,5f0af097e7d15b3bf7734642,64aeaab685a29f4ca249be02,64bec976c6d9dc9ef9694ed1,right,-1,0.4357,0.35,14,-0.021575876,0.3006,,,,,,218,0,218,0,1,,,,,
,,015692,001,2023-07-24_20h57.13.702,arm3_q,2022.2.5,Win32,59.99160118,5f0af097e7d15b3bf7734642,64aeaab685a29f4ca249be02,64bec976c6d9dc9ef9694ed1,right,-1,0.4357,0.35,14,-0.029438123,0.4335,,,,,,219,0,219,0,1,,,,,
,,015692,001,2023-07-24_20h57.13.702,arm3_q,2022.2.5,Win32,59.99160118,5f0af097e7d15b3bf7734642,64aeaab685a29f4ca249be02,64bec976c6d9dc9ef9694ed1,right,-1,0.4357,0.35,14,-0.057767895,0.4231,,,,,,220,0,220,0,1,,,,,
,,015692,001,2023-07-24_20h57.13.702,arm3_q,2022.2.5,Win32,59.99160118,5f0af097e7d15b3bf7734642,64aeaab685a29f4ca249be02,64bec976c6d9dc9ef9694ed1,down,-1,0.4357,0.35,15,0,0.616,,,,,,221,0,221,0,1,,,,,
,,015692,001,2023-07-24_20h57.13.702,arm3_q,2022.2.5,Win32,59.99160118,5f0af097e7d15b3bf7734642,64aeaab685a29f4ca249be02,64bec976c6d9dc9ef9694ed1,right,-1,0.4357,0.35,15,-0.01351637,0.7006,,,,,,222,0,222,0,1,,,,,
,,015692,001,2023-07-24_20h57.13.702,arm3_q,2022.2.5,Win32,59.99160118,5f0af097e7d15b3bf7734642,64aeaab685a29f4ca249be02,64bec976c6d9dc9ef9694ed1,right,-1,0.4357,0.35,15,-0.016561151,0.3337,,,,,,223,0,223,0,1,,,,,
,,015692,001,2023-07-24_20h57.13.702,arm3_q,2022.2.5,Win32,59.99160118,5f0af097e7d15b3bf7734642,64aeaab685a29f4ca249be02,64bec976c6d9dc9ef9694ed1,right,-1,0.4357,0.35,15,-0.043767487,0.3506,,,,,,224,0,224,0,1,,,,,
,,015692,001,2023-07-24_20h57.13.702,arm3_q,2022.2.5,Win32,59.99160118,5f0af097e7d15b3bf7734642,64aeaab685a29f4ca249be02,64bec976c6d9dc9ef9694ed1,right,-1,0.4357,0.35,15,-0.06815879,0.4003,,,,,,225,0,225,0,1,,,,,
,,015692,001,2023-07-24_20h57.13.702,arm3_q,2022.2.5,Win32,59.99160118,5f0af097e7d15b3bf7734642,64aeaab685a29f4ca249be02,64bec976c6d9dc9ef9694ed1,down,-1,0.4357,0.35,15,0,0.567,,,,,,226,0,226,0,1,,,,,
,,015692,001,2023-07-24_20h57.13.702,arm3_q,2022.2.5,Win32,59.99160118,5f0af097e7d15b3bf7734642,64aeaab685a29f4ca249be02,64bec976c6d9dc9ef9694ed1,right,-1,0.4357,0.35,15,0.01757762,0.7007,,,,,,227,0,227,0,1,,,,,
,,015692,001,2023-07-24_20h57.13.702,arm3_q,2022.2.5,Win32,59.99160118,5f0af097e7d15b3bf7734642,64aeaab685a29f4ca249be02,64bec976c6d9dc9ef9694ed1,right,-1,0.4357,0.35,15,0.053235611,0.417,,,,,,228,0,228,0,1,,,,,
,,015692,001,2023-07-24_20h57.13.702,arm3_q,2022.2.5,Win32,59.99160118,5f0af097e7d15b3bf7734642,64aeaab685a29f4ca249be02,64bec976c6d9dc9ef9694ed1,right,-1,0.4357,0.35,15,0.023770701,0.4004,,,,,,229,0,229,0,1,,,,,
,,015692,001,2023-07-24_20h57.13.702,arm3_q,2022.2.5,Win32,59.99160118,5f0af097e7d15b3bf7734642,64aeaab685a29f4ca249be02,64bec976c6d9dc9ef9694ed1,right,-1,0.4357,0.35,15,0.012195101,0.3838,,,,,,230,0,230,0,1,,,,,
,,015692,001,2023-07-24_20h57.13.702,arm3_q,2022.2.5,Win32,59.99160118,5f0af097e7d15b3bf7734642,64aeaab685a29f4ca249be02,64bec976c6d9dc9ef9694ed1,right,-1,0.4357,0.35,15,0.005533347,1.2173,,,,,,231,0,231,0,1,,,,,
,,015692,001,2023-07-24_20h57.13.702,arm3_q,2022.2.5,Win32,59.99160118,5f0af097e7d15b3bf7734642,64aeaab685a29f4ca249be02,64bec976c6d9dc9ef9694ed1,right,-1,0.4357,0.35,15,0.022203164,0.4336,,,,,,232,0,232,0,1,,,,,
,,015692,001,2023-07-24_20h57.13.702,arm3_q,2022.2.5,Win32,59.99160118,5f0af097e7d15b3bf7734642,64aeaab685a29f4ca249be02,64bec976c6d9dc9ef9694ed1,right,-1,0.4357,0.35,15,0.030544614,0.4005,,,,,,233,0,233,0,1,,,,,
,,015692,001,2023-07-24_20h57.13.702,arm3_q,2022.2.5,Win32,59.99160118,5f0af097e7d15b3bf7734642,64aeaab685a29f4ca249be02,64bec976c6d9dc9ef9694ed1,up,-1,0.4357,0.35,14,0,0.6003,,,,,,234,0,234,0,1,,,,,
,,015692,001,2023-07-24_20h57.13.702,arm3_q,2022.2.5,Win32,59.99160118,5f0af097e7d15b3bf7734642,64aeaab685a29f4ca249be02,64bec976c6d9dc9ef9694ed1,right,-1,0.4357,0.35,14,-0.008916476,1.534,,,,,,235,0,235,0,1,,,,,
,,015692,001,2023-07-24_20h57.13.702,arm3_q,2022.2.5,Win32,59.99160118,5f0af097e7d15b3bf7734642,64aeaab685a29f4ca249be02,64bec976c6d9dc9ef9694ed1,right,-1,0.4357,0.35,14,0.002918185,0.3371,,,,,,236,0,236,0,1,,,,,
,,015692,001,2023-07-24_20h57.13.702,arm3_q,2022.2.5,Win32,59.99160118,5f0af097e7d15b3bf7734642,64aeaab685a29f4ca249be02,64bec976c6d9dc9ef9694ed1,right,-1,0.4357,0.35,14,-0.034763086,0.3671,,,,,,237,0,237,0,1,,,,,
,,015692,001,2023-07-24_20h57.13.702,arm3_q,2022.2.5,Win32,59.99160118,5f0af097e7d15b3bf7734642,64aeaab685a29f4ca249be02,64bec976c6d9dc9ef9694ed1,right,-1,0.4357,0.35,14,-0.017767953,0.3671,,,,,,238,0,238,0,1,,,,,
,,015692,001,2023-07-24_20h57.13.702,arm3_q,2022.2.5,Win32,59.99160118,5f0af097e7d15b3bf7734642,64aeaab685a29f4ca249be02,64bec976c6d9dc9ef9694ed1,right,-1,0.4357,0.35,14,-0.023560547,0.4839,,,,,,239,0,239,0,1,,,,,
,,015692,001,2023-07-24_20h57.13.702,arm3_q,2022.2.5,Win32,59.99160118,5f0af097e7d15b3bf7734642,64aeaab685a29f4ca249be02,64bec976c6d9dc9ef9694ed1,down,-1,0.4357,0.35,15,0,0.7005,,,,,,240,0,240,0,1,,,,,
,,015692,001,2023-07-24_20h57.13.702,arm3_q,2022.2.5,Win32,59.99160118,5f0af097e7d15b3bf7734642,64aeaab685a29f4ca249be02,64bec976c6d9dc9ef9694ed1,right,-1,0.4357,0.35,15,0.01218159,0.7174,,,,,,241,0,241,0,1,,,,,
,,015692,001,2023-07-24_20h57.13.702,arm3_q,2022.2.5,Win32,59.99160118,5f0af097e7d15b3bf7734642,64aeaab685a29f4ca249be02,64bec976c6d9dc9ef9694ed1,right,-1,0.4357,0.35,15,0.009885501,0.3005,,,,,,242,0,242,0,1,,,,,
,,015692,001,2023-07-24_20h57.13.702,arm3_q,2022.2.5,Win32,59.99160118,5f0af097e7d15b3bf7734642,64aeaab685a29f4ca249be02,64bec976c6d9dc9ef9694ed1,right,-1,0.4357,0.35,15,0.008247714,0.3292,,,,,,243,0,243,0,1,,,,,
,,015692,001,2023-07-24_20h57.13.702,arm3_q,2022.2.5,Win32,59.99160118,5f0af097e7d15b3bf7734642,64aeaab685a29f4ca249be02,64bec976c6d9dc9ef9694ed1,right,-1,0.4357,0.35,15,-0.029824713,0.4171,,,,,,244,0,244,0,1,,,,,
,,015692,001,2023-07-24_20h57.13.702,arm3_q,2022.2.5,Win32,59.99160118,5f0af097e7d15b3bf7734642,64aeaab685a29f4ca249be02,64bec976c6d9dc9ef9694ed1,right,-1,0.4357,0.35,15,-0.027178982,0.4839,,,,,,245,0,245,0,1,,,,,
,,015692,001,2023-07-24_20h57.13.702,arm3_q,2022.2.5,Win32,59.99160118,5f0af097e7d15b3bf7734642,64aeaab685a29f4ca249be02,64bec976c6d9dc9ef9694ed1,right,-1,0.4357,0.35,15,-0.030409232,0.417,,,,,,246,0,246,0,1,,,,,
,,015692,001,2023-07-24_20h57.13.702,arm3_q,2022.2.5,Win32,59.99160118,5f0af097e7d15b3bf7734642,64aeaab685a29f4ca249be02,64bec976c6d9dc9ef9694ed1,down,-1,0.4357,0.35,15,0,0.5004,,,,,,247,0,247,0,1,,,,,
,,015692,001,2023-07-24_20h57.13.702,arm3_q,2022.2.5,Win32,59.99160118,5f0af097e7d15b3bf7734642,64aeaab685a29f4ca249be02,64bec976c6d9dc9ef9694ed1,right,-1,0.4357,0.35,15,0.005374237,0.684,,,,,,248,0,248,0,1,,,,,
,,015692,001,2023-07-24_20h57.13.702,arm3_q,2022.2.5,Win32,59.99160118,5f0af097e7d15b3bf7734642,64aeaab685a29f4ca249be02,64bec976c6d9dc9ef9694ed1,right,-1,0.4357,0.35,15,-0.017478163,0.3171,,,,,,249,0,249,0,1,,,,,
,,015692,001,2023-07-24_20h57.13.702,arm3_q,2022.2.5,Win32,59.99160118,5f0af097e7d15b3bf7734642,64aeaab685a29f4ca249be02,64bec976c6d9dc9ef9694ed1,right,-1,0.4357,0.35,15,-0.00020333,0.3339,,,,,,250,0,250,0,1,,,,,
,,015692,001,2023-07-24_20h57.13.702,arm3_q,2022.2.5,Win32,59.99160118,5f0af097e7d15b3bf7734642,64aeaab685a29f4ca249be02,64bec976c6d9dc9ef9694ed1,right,-1,0.4357,0.35,15,-0.0241594,0.4337,,,,,,251,0,251,0,1,,,,,
,,015692,001,2023-07-24_20h57.13.702,arm3_q,2022.2.5,Win32,59.99160118,5f0af097e7d15b3bf7734642,64aeaab685a29f4ca249be02,64bec976c6d9dc9ef9694ed1,right,-1,0.4357,0.35,15,-0.005449061,0.5838,,,,,,252,0,252,0,1,,,,,
,,015692,001,2023-07-24_20h57.13.702,arm3_q,2022.2.5,Win32,59.99160118,5f0af097e7d15b3bf7734642,64aeaab685a29f4ca249be02,64bec976c6d9dc9ef9694ed1,right,-1,0.4357,0.35,15,-0.033460001,0.3004,,,,,,253,0,253,0,1,,,,,
,,015692,001,2023-07-24_20h57.13.702,arm3_q,2022.2.5,Win32,59.99160118,5f0af097e7d15b3bf7734642,64aeaab685a29f4ca249be02,64bec976c6d9dc9ef9694ed1,down,-1,0.4357,0.35,16,0,0.484,,,,,,254,0,254,0,1,,,,,
,,015692,001,2023-07-24_20h57.13.702,arm3_q,2022.2.5,Win32,59.99160118,5f0af097e7d15b3bf7734642,64aeaab685a29f4ca249be02,64bec976c6d9dc9ef9694ed1,right,-1,0.4357,0.35,16,-0.00172845,0.9339,,,,,,255,0,255,0,1,,,,,
,,015692,001,2023-07-24_20h57.13.702,arm3_q,2022.2.5,Win32,59.99160118,5f0af097e7d15b3bf7734642,64aeaab685a29f4ca249be02,64bec976c6d9dc9ef9694ed1,right,-1,0.4357,0.35,16,-0.013031706,0.3555,,,,,,256,0,256,0,1,,,,,
,,015692,001,2023-07-24_20h57.13.702,arm3_q,2022.2.5,Win32,59.99160118,5f0af097e7d15b3bf7734642,64aeaab685a29f4ca249be02,64bec976c6d9dc9ef9694ed1,right,-1,0.4357,0.35,16,-0.027427999,0.4171,,,,,,257,0,257,0,1,,,,,
,,015692,001,2023-07-24_20h57.13.702,arm3_q,2022.2.5,Win32,59.99160118,5f0af097e7d15b3bf7734642,64aeaab685a29f4ca249be02,64bec976c6d9dc9ef9694ed1,right,-1,0.4357,0.35,16,-0.026663747,0.3672,,,,,,258,0,258,0,1,,,,,
,,015692,001,2023-07-24_20h57.13.702,arm3_q,2022.2.5,Win32,59.99160118,5f0af097e7d15b3bf7734642,64aeaab685a29f4ca249be02,64bec976c6d9dc9ef9694ed1,right,-1,0.4357,0.35,16,-0.026608142,0.5004,,,,,,259,0,259,0,1,,,,,
,,015692,001,2023-07-24_20h57.13.702,arm3_q,2022.2.5,Win32,59.99160118,5f0af097e7d15b3bf7734642,64aeaab685a29f4ca249be02,64bec976c6d9dc9ef9694ed1,right,-1,0.4357,0.35,16,-0.044206719,0.2504,,,,,,260,0,260,0,1,,,,,
,,015692,001,2023-07-24_20h57.13.702,arm3_q,2022.2.5,Win32,59.99160118,5f0af097e7d15b3bf7734642,64aeaab685a29f4ca249be02,64bec976c6d9dc9ef9694ed1,down,-1,0.4357,0.35,17,0,0.5337,,,,,,261,0,261,0,1,,,,,
,,015692,001,2023-07-24_20h57.13.702,arm3_q,2022.2.5,Win32,59.99160118,5f0af097e7d15b3bf7734642,64aeaab685a29f4ca249be02,64bec976c6d9dc9ef9694ed1,right,-1,0.4357,0.35,17,0.012105045,0.6839,,,,,,262,0,262,0,1,,,,,
,,015692,001,2023-07-24_20h57.13.702,arm3_q,2022.2.5,Win32,59.99160118,5f0af097e7d15b3bf7734642,64aeaab685a29f4ca249be02,64bec976c6d9dc9ef9694ed1,right,-1,0.4357,0.35,17,0.011991706,0.3673,,,,,,263,0,263,0,1,,,,,
,,015692,001,2023-07-24_20h57.13.702,arm3_q,2022.2.5,Win32,59.99160118,5f0af097e7d15b3bf7734642,64aeaab685a29f4ca249be02,64bec976c6d9dc9ef9694ed1,right,-1,0.4357,0.35,17,0.019722496,0.3673,,,,,,264,0,264,0,1,,,,,
,,015692,001,2023-07-24_20h57.13.702,arm3_q,2022.2.5,Win32,59.99160118,5f0af097e7d15b3bf7734642,64aeaab685a29f4ca249be02,64bec976c6d9dc9ef9694ed1,right,-1,0.4357,0.35,17,-0.000268131,0.3505,,,,,,265,0,265,0,1,,,,,
,,015692,001,2023-07-24_20h57.13.702,arm3_q,2022.2.5,Win32,59.99160118,5f0af097e7d15b3bf7734642,64aeaab685a29f4ca249be02,64bec976c6d9dc9ef9694ed1,right,-1,0.4357,0.35,17,-0.015646753,0.3172,,,,,,266,0,266,0,1,,,,,
,,015692,001,2023-07-24_20h57.13.702,arm3_q,2022.2.5,Win32,59.99160118,5f0af097e7d15b3bf7734642,64aeaab685a29f4ca249be02,64bec976c6d9dc9ef9694ed1,right,-1,0.4357,0.35,17,-0.035350579,0.334,,,,,,267,0,267,0,1,,,,,
,,015692,001,2023-07-24_20h57.13.702,arm3_q,2022.2.5,Win32,59.99160118,5f0af097e7d15b3bf7734642,64aeaab685a29f4ca249be02,64bec976c6d9dc9ef9694ed1,right,-1,0.4357,0.35,17,-0.050669714,0.3171,,,,,,268,0,268,0,1,,,,,
,,015692,001,2023-07-24_20h57.13.702,arm3_q,2022.2.5,Win32,59.99160118,5f0af097e7d15b3bf7734642,64aeaab685a29f4ca249be02,64bec976c6d9dc9ef9694ed1,right,-1,0.4357,0.35,17,-0.059956057,0.3005,,,,,,269,0,269,0,1,,,,,
,,015692,001,2023-07-24_20h57.13.702,arm3_q,2022.2.5,Win32,59.99160118,5f0af097e7d15b3bf7734642,64aeaab685a29f4ca249be02,64bec976c6d9dc9ef9694ed1,down,-1,0.4357,0.35,17,0,0.6002,,,,,,270,0,270,0,1,,,,,
,,015692,001,2023-07-24_20h57.13.702,arm3_q,2022.2.5,Win32,59.99160118,5f0af097e7d15b3bf7734642,64aeaab685a29f4ca249be02,64bec976c6d9dc9ef9694ed1,right,-1,0.4357,0.35,17,-0.010026735,0.6173,,,,,,271,0,271,0,1,,,,,
,,015692,001,2023-07-24_20h57.13.702,arm3_q,2022.2.5,Win32,59.99160118,5f0af097e7d15b3bf7734642,64aeaab685a29f4ca249be02,64bec976c6d9dc9ef9694ed1,right,-1,0.4357,0.35,17,-0.037916765,0.3095,,,,,,272,0,272,0,1,,,,,
,,015692,001,2023-07-24_20h57.13.702,arm3_q,2022.2.5,Win32,59.99160118,5f0af097e7d15b3bf7734642,64aeaab685a29f4ca249be02,64bec976c6d9dc9ef9694ed1,right,-1,0.4357,0.35,17,-0.052519081,0.3504,,,,,,273,0,273,0,1,,,,,
,,015692,001,2023-07-24_20h57.13.702,arm3_q,2022.2.5,Win32,59.99160118,5f0af097e7d15b3bf7734642,64aeaab685a29f4ca249be02,64bec976c6d9dc9ef9694ed1,right,-1,0.4357,0.35,17,-0.051682096,0.5836,,,,,,274,0,274,0,1,,,,,
,,015692,001,2023-07-24_20h57.13.702,arm3_q,2022.2.5,Win32,59.99160118,5f0af097e7d15b3bf7734642,64aeaab685a29f4ca249be02,64bec976c6d9dc9ef9694ed1,down,-1,0.4357,0.35,18,0,0.3838,,,,,,275,0,275,0,1,,,,,
,,015692,001,2023-07-24_20h57.13.702,arm3_q,2022.2.5,Win32,59.99160118,5f0af097e7d15b3bf7734642,64aeaab685a29f4ca249be02,64bec976c6d9dc9ef9694ed1,right,-1,0.4357,0.35,18,-0.041803856,0.8339,,,,,,276,0,276,0,1,,,,,
,,015692,001,2023-07-24_20h57.13.702,arm3_q,2022.2.5,Win32,59.99160118,5f0af097e7d15b3bf7734642,64aeaab685a29f4ca249be02,64bec976c6d9dc9ef9694ed1,right,-1,0.4357,0.35,18,-0.041394049,0.3003,,,,,,277,0,277,0,1,,,,,
,,015692,001,2023-07-24_20h57.13.702,arm3_q,2022.2.5,Win32,59.99160118,5f0af097e7d15b3bf7734642,64aeaab685a29f4ca249be02,64bec976c6d9dc9ef9694ed1,right,-1,0.4357,0.35,18,-0.042601577,0.3504,,,,,,278,0,278,0,1,,,,,
,,015692,001,2023-07-24_20h57.13.702,arm3_q,2022.2.5,Win32,59.99160118,5f0af097e7d15b3bf7734642,64aeaab685a29f4ca249be02,64bec976c6d9dc9ef9694ed1,right,-1,0.4357,0.35,18,-0.061195411,0.7671,,,,,,279,0,279,0,1,,,,,
,,015692,001,2023-07-24_20h57.13.702,arm3_q,2022.2.5,Win32,59.99160118,5f0af097e7d15b3bf7734642,64aeaab685a29f4ca249be02,64bec976c6d9dc9ef9694ed1,down,-1,0.4357,0.35,18,0,0.3338,,,,,,280,0,280,0,1,,,,,
,,015692,001,2023-07-24_20h57.13.702,arm3_q,2022.2.5,Win32,59.99160118,5f0af097e7d15b3bf7734642,64aeaab685a29f4ca249be02,64bec976c6d9dc9ef9694ed1,right,-1,0.4357,0.35,18,0.004144244,0.5505,,,,,,281,0,281,0,1,,,,,
,,015692,001,2023-07-24_20h57.13.702,arm3_q,2022.2.5,Win32,59.99160118,5f0af097e7d15b3bf7734642,64aeaab685a29f4ca249be02,64bec976c6d9dc9ef9694ed1,right,-1,0.4357,0.35,18,-0.014062465,0.2559,,,,,,282,0,282,0,1,,,,,
,,015692,001,2023-07-24_20h57.13.702,arm3_q,2022.2.5,Win32,59.99160118,5f0af097e7d15b3bf7734642,64aeaab685a29f4ca249be02,64bec976c6d9dc9ef9694ed1,right,-1,0.4357,0.35,18,-0.030948215,0.2505,,,,,,283,0,283,0,1,,,,,
,,015692,001,2023-07-24_20h57.13.702,arm3_q,2022.2.5,Win32,59.99160118,5f0af097e7d15b3bf7734642,64aeaab685a29f4ca249be02,64bec976c6d9dc9ef9694ed1,right,-1,0.4357,0.35,18,-0.044326969,0.2338,,,,,,284,0,284,0,1,,,,,
,,015692,001,2023-07-24_20h57.13.702,arm3_q,2022.2.5,Win32,59.99160118,5f0af097e7d15b3bf7734642,64aeaab685a29f4ca249be02,64bec976c6d9dc9ef9694ed1,down,-1,0.4357,0.35,18,0,0.344,,,,,,285,0,285,0,1,,,,,
,,015692,001,2023-07-24_20h57.13.702,arm3_q,2022.2.5,Win32,59.99160118,5f0af097e7d15b3bf7734642,64aeaab685a29f4ca249be02,64bec976c6d9dc9ef9694ed1,right,-1,0.4357,0.35,18,-0.040269595,0.5296,,,,,,286,0,286,0,1,,,,,
,,015692,001,2023-07-24_20h57.13.702,arm3_q,2022.2.5,Win32,59.99160118,5f0af097e7d15b3bf7734642,64aeaab685a29f4ca249be02,64bec976c6d9dc9ef9694ed1,right,-1,0.4357,0.35,18,-0.022784212,0.2504,,,,,,287,0,287,0,1,,,,,
,,015692,001,2023-07-24_20h57.13.702,arm3_q,2022.2.5,Win32,59.99160118,5f0af097e7d15b3bf7734642,64aeaab685a29f4ca249be02,64bec976c6d9dc9ef9694ed1,right,-1,0.4357,0.35,18,-0.072401987,0.2338,,,,,,288,0,288,0,1,,,,,
,,015692,001,2023-07-24_20h57.13.702,arm3_q,2022.2.5,Win32,59.99160118,5f0af097e7d15b3bf7734642,64aeaab685a29f4ca249be02,64bec976c6d9dc9ef9694ed1,down,-1,0.4357,0.35,18,0,0.4173,,,,,,289,0,289,0,1,,,,,
,,015692,001,2023-07-24_20h57.13.702,arm3_q,2022.2.5,Win32,59.99160118,5f0af097e7d15b3bf7734642,64aeaab685a29f4ca249be02,64bec976c6d9dc9ef9694ed1,right,-1,0.4357,0.35,18,0.008796359,0.6007,,,,,,290,0,290,0,1,,,,,
,,015692,001,2023-07-24_20h57.13.702,arm3_q,2022.2.5,Win32,59.99160118,5f0af097e7d15b3bf7734642,64aeaab685a29f4ca249be02,64bec976c6d9dc9ef9694ed1,right,-1,0.4357,0.35,18,0.02184583,0.2338,,,,,,291,0,291,0,1,,,,,
,,015692,001,2023-07-24_20h57.13.702,arm3_q,2022.2.5,Win32,59.99160118,5f0af097e7d15b3bf7734642,64aeaab685a29f4ca249be02,64bec976c6d9dc9ef9694ed1,right,-1,0.4357,0.35,18,0.006540387,0.2339,,,,,,292,0,292,0,1,,,,,
,,015692,001,2023-07-24_20h57.13.702,arm3_q,2022.2.5,Win32,59.99160118,5f0af097e7d15b3bf7734642,64aeaab685a29f4ca249be02,64bec976c6d9dc9ef9694ed1,right,-1,0.4357,0.35,18,0.030383838,0.2505,,,,,,293,0,293,0,1,,,,,
,,015692,001,2023-07-24_20h57.13.702,arm3_q,2022.2.5,Win32,59.99160118,5f0af097e7d15b3bf7734642,64aeaab685a29f4ca249be02,64bec976c6d9dc9ef9694ed1,up,1,0.4357,0.35,17,0,0.6538,,,,,,294,0,294,0,1,,,,,
,,015692,001,2023-07-24_20h57.13.702,arm3_q,2022.2.5,Win32,59.99160118,5f0af097e7d15b3bf7734642,64aeaab685a29f4ca249be02,64bec976c6d9dc9ef9694ed1,right,1,0.4357,0.35,17,-0.01142382,0.6587,,,,,,295,0,295,0,1,,,,,
,,015692,001,2023-07-24_20h57.13.702,arm3_q,2022.2.5,Win32,59.99160118,5f0af097e7d15b3bf7734642,64aeaab685a29f4ca249be02,64bec976c6d9dc9ef9694ed1,right,1,0.4357,0.35,17,-0.004152761,0.2003,,,,,,296,0,296,0,1,,,,,
,,015692,001,2023-07-24_20h57.13.702,arm3_q,2022.2.5,Win32,59.99160118,5f0af097e7d15b3bf7734642,64aeaab685a29f4ca249be02,64bec976c6d9dc9ef9694ed1,right,1,0.4357,0.35,17,-0.00885862,0.2169,,,,,,297,0,297,0,1,,,,,
,,015692,001,2023-07-24_20h57.13.702,arm3_q,2022.2.5,Win32,59.99160118,5f0af097e7d15b3bf7734642,64aeaab685a29f4ca249be02,64bec976c6d9dc9ef9694ed1,down,-1,0.4357,0.35,16,0,0.4673,,,,,,298,0,298,0,1,,,,,
,,015692,001,2023-07-24_20h57.13.702,arm3_q,2022.2.5,Win32,59.99160118,5f0af097e7d15b3bf7734642,64aeaab685a29f4ca249be02,64bec976c6d9dc9ef9694ed1,right,-1,0.4357,0.35,16,0.035383645,0.8506,,,,,,299,0,299,0,1,,,,,
,,015692,001,2023-07-24_20h57.13.702,arm3_q,2022.2.5,Win32,59.99160118,5f0af097e7d15b3bf7734642,64aeaab685a29f4ca249be02,64bec976c6d9dc9ef9694ed1,right,-1,0.4357,0.35,16,0.024204277,0.2005,,,,,,300,0,300,0,1,,,,,
,,015692,001,2023-07-24_20h57.13.702,arm3_q,2022.2.5,Win32,59.99160118,5f0af097e7d15b3bf7734642,64aeaab685a29f4ca249be02,64bec976c6d9dc9ef9694ed1,right,-1,0.4357,0.35,16,0.00540241,0.2004,,,,,,301,0,301,0,1,,,,,
,,015692,001,2023-07-24_20h57.13.702,arm3_q,2022.2.5,Win32,59.99160118,5f0af097e7d15b3bf7734642,64aeaab685a29f4ca249be02,64bec976c6d9dc9ef9694ed1,down,-1,0.4357,0.35,16,0,0.7339,,,,,,302,0,302,0,1,,,,,
,,015692,001,2023-07-24_20h57.13.702,arm3_q,2022.2.5,Win32,59.99160118,5f0af097e7d15b3bf7734642,64aeaab685a29f4ca249be02,64bec976c6d9dc9ef9694ed1,right,-1,0.4357,0.35,16,-0.009526803,0.7341,,,,,,303,0,303,0,1,,,,,
,,015692,001,2023-07-24_20h57.13.702,arm3_q,2022.2.5,Win32,59.99160118,5f0af097e7d15b3bf7734642,64aeaab685a29f4ca249be02,64bec976c6d9dc9ef9694ed1,right,-1,0.4357,0.35,16,0.000805859,0.2335,,,,,,304,0,304,0,1,,,,,
,,015692,001,2023-07-24_20h57.13.702,arm3_q,2022.2.5,Win32,59.99160118,5f0af097e7d15b3bf7734642,64aeaab685a29f4ca249be02,64bec976c6d9dc9ef9694ed1,right,-1,0.4357,0.35,16,-0.008616137,0.3199,,,,,,305,0,305,0,1,,,,,
,,015692,001,2023-07-24_20h57.13.702,arm3_q,2022.2.5,Win32,59.99160118,5f0af097e7d15b3bf7734642,64aeaab685a29f4ca249be02,64bec976c6d9dc9ef9694ed1,down,-1,0.4357,0.35,17,0,0.4174,,,,,,306,0,306,0,1,,,,,
,,015692,001,2023-07-24_20h57.13.702,arm3_q,2022.2.5,Win32,59.99160118,5f0af097e7d15b3bf7734642,64aeaab685a29f4ca249be02,64bec976c6d9dc9ef9694ed1,right,-1,0.4357,0.35,17,0.000352626,0.6673,,,,,,307,0,307,0,1,,,,,
,,015692,001,2023-07-24_20h57.13.702,arm3_q,2022.2.5,Win32,59.99160118,5f0af097e7d15b3bf7734642,64aeaab685a29f4ca249be02,64bec976c6d9dc9ef9694ed1,right,-1,0.4357,0.35,17,0.024150175,0.2293,,,,,,308,0,308,0,1,,,,,
,,015692,001,2023-07-24_20h57.13.702,arm3_q,2022.2.5,Win32,59.99160118,5f0af097e7d15b3bf7734642,64aeaab685a29f4ca249be02,64bec976c6d9dc9ef9694ed1,right,-1,0.4357,0.35,17,0.008366325,0.2673,,,,,,309,0,309,0,1,,,,,
,,015692,001,2023-07-24_20h57.13.702,arm3_q,2022.2.5,Win32,59.99160118,5f0af097e7d15b3bf7734642,64aeaab685a29f4ca249be02,64bec976c6d9dc9ef9694ed1,up,-1,0.4357,0.35,17,0,0.7336,,,,,,310,0,310,0,1,,,,,
,,015692,001,2023-07-24_20h57.13.702,arm3_q,2022.2.5,Win32,59.99160118,5f0af097e7d15b3bf7734642,64aeaab685a29f4ca249be02,64bec976c6d9dc9ef9694ed1,right,-1,0.4357,0.35,17,-0.00086473,0.683,,,,,,311,0,311,0,1,,,,,
,,015692,001,2023-07-24_20h57.13.702,arm3_q,2022.2.5,Win32,59.99160118,5f0af097e7d15b3bf7734642,64aeaab685a29f4ca249be02,64bec976c6d9dc9ef9694ed1,right,-1,0.4357,0.35,17,0.00574583,0.217,,,,,,312,0,312,0,1,,,,,
,,015692,001,2023-07-24_20h57.13.702,arm3_q,2022.2.5,Win32,59.99160118,5f0af097e7d15b3bf7734642,64aeaab685a29f4ca249be02,64bec976c6d9dc9ef9694ed1,right,-1,0.4357,0.35,17,0.002872795,0.2504,,,,,,313,0,313,0,1,,,,,
,,015692,001,2023-07-24_20h57.13.702,arm3_q,2022.2.5,Win32,59.99160118,5f0af097e7d15b3bf7734642,64aeaab685a29f4ca249be02,64bec976c6d9dc9ef9694ed1,right,-1,0.4357,0.35,17,0.013593593,0.5335,,,,,,314,0,314,0,1,,,,,
,,015692,001,2023-07-24_20h57.13.702,arm3_q,2022.2.5,Win32,59.99160118,5f0af097e7d15b3bf7734642,64aeaab685a29f4ca249be02,64bec976c6d9dc9ef9694ed1,right,-1,0.4357,0.35,17,-0.008851145,0.4839,,,,,,315,0,315,0,1,,,,,
,,015692,001,2023-07-24_20h57.13.702,arm3_q,2022.2.5,Win32,59.99160118,5f0af097e7d15b3bf7734642,64aeaab685a29f4ca249be02,64bec976c6d9dc9ef9694ed1,right,-1,0.4357,0.35,17,-0.015599692,0.5338,,,,,,316,0,316,0,1,,,,,
,,015692,001,2023-07-24_20h57.13.702,arm3_q,2022.2.5,Win32,59.99160118,5f0af097e7d15b3bf7734642,64aeaab685a29f4ca249be02,64bec976c6d9dc9ef9694ed1,right,-1,0.4357,0.35,17,-0.031632364,0.4003,,,,,,317,0,317,0,1,,,,,
,,015692,001,2023-07-24_20h57.13.702,arm3_q,2022.2.5,Win32,59.99160118,5f0af097e7d15b3bf7734642,64aeaab685a29f4ca249be02,64bec976c6d9dc9ef9694ed1,right,-1,0.4357,0.35,17,-0.035479867,0.316,,,,,,318,0,318,0,1,,,,,
,,015692,001,2023-07-24_20h57.13.702,arm3_q,2022.2.5,Win32,59.99160118,5f0af097e7d15b3bf7734642,64aeaab685a29f4ca249be02,64bec976c6d9dc9ef9694ed1,right,-1,0.4357,0.35,17,-0.017842627,0.4598,,,,,,319,0,319,0,1,,,,,
,,015692,001,2023-07-24_20h57.13.702,arm3_q,2022.2.5,Win32,59.99160118,5f0af097e7d15b3bf7734642,64aeaab685a29f4ca249be02,64bec976c6d9dc9ef9694ed1,right,-1,0.4357,0.35,17,0.004702697,0.8003,,,,,,320,0,320,0,1,,,,,
,,015692,001,2023-07-24_20h57.13.702,arm3_q,2022.2.5,Win32,59.99160118,5f0af097e7d15b3bf7734642,64aeaab685a29f4ca249be02,64bec976c6d9dc9ef9694ed1,right,-1,0.4357,0.35,17,-0.021162814,0.4837,,,,,,321,0,321,0,1,,,,,
,,015692,001,2023-07-24_20h57.13.702,arm3_q,2022.2.5,Win32,59.99160118,5f0af097e7d15b3bf7734642,64aeaab685a29f4ca249be02,64bec976c6d9dc9ef9694ed1,right,-1,0.4357,0.35,17,-0.017941938,0.4505,,,,,,322,0,322,0,1,,,,,
,,015692,001,2023-07-24_20h57.13.702,arm3_q,2022.2.5,Win32,59.99160118,5f0af097e7d15b3bf7734642,64aeaab685a29f4ca249be02,64bec976c6d9dc9ef9694ed1,down,-1,0.4357,0.35,17,0,0.8004,,,,,,323,0,323,0,1,,,,,
,,015692,001,2023-07-24_20h57.13.702,arm3_q,2022.2.5,Win32,59.99160118,5f0af097e7d15b3bf7734642,64aeaab685a29f4ca249be02,64bec976c6d9dc9ef9694ed1,right,-1,0.4357,0.35,17,-0.000482205,0.6675,,,,,,324,0,324,0,1,,,,,
,,015692,001,2023-07-24_20h57.13.702,arm3_q,2022.2.5,Win32,59.99160118,5f0af097e7d15b3bf7734642,64aeaab685a29f4ca249be02,64bec976c6d9dc9ef9694ed1,right,-1,0.4357,0.35,17,-0.036259756,0.2838,,,,,,325,0,325,0,1,,,,,
,,015692,001,2023-07-24_20h57.13.702,arm3_q,2022.2.5,Win32,59.99160118,5f0af097e7d15b3bf7734642,64aeaab685a29f4ca249be02,64bec976c6d9dc9ef9694ed1,right,-1,0.4357,0.35,17,-0.038001727,0.5004,,,,,,326,0,326,0,1,,,,,
,,015692,001,2023-07-24_20h57.13.702,arm3_q,2022.2.5,Win32,59.99160118,5f0af097e7d15b3bf7734642,64aeaab685a29f4ca249be02,64bec976c6d9dc9ef9694ed1,down,1,0.4357,0.35,18,0,0.4671,,,,,,327,0,327,0,1,,,,,
,,015692,001,2023-07-24_20h57.13.702,arm3_q,2022.2.5,Win32,59.99160118,5f0af097e7d15b3bf7734642,64aeaab685a29f4ca249be02,64bec976c6d9dc9ef9694ed1,right,1,0.4357,0.35,18,-0.005394036,0.9672,,,,,,328,0,328,0,1,,,,,
,,015692,001,2023-07-24_20h57.13.702,arm3_q,2022.2.5,Win32,59.99160118,5f0af097e7d15b3bf7734642,64aeaab685a29f4ca249be02,64bec976c6d9dc9ef9694ed1,right,1,0.4357,0.35,18,-0.007120136,0.2336,,,,,,329,0,329,0,1,,,,,
,,015692,001,2023-07-24_20h57.13.702,arm3_q,2022.2.5,Win32,59.99160118,5f0af097e7d15b3bf7734642,64aeaab685a29f4ca249be02,64bec976c6d9dc9ef9694ed1,right,1,0.4357,0.35,18,0.015114164,0.3006,,,,,,330,0,330,0,1,,,,,
,,015692,001,2023-07-24_20h57.13.702,arm3_q,2022.2.5,Win32,59.99160118,5f0af097e7d15b3bf7734642,64aeaab685a29f4ca249be02,64bec976c6d9dc9ef9694ed1,right,1,0.4357,0.35,18,-0.003279304,0.3339,,,,,,331,0,331,0,1,,,,,
,,015692,001,2023-07-24_20h57.13.702,arm3_q,2022.2.5,Win32,59.99160118,5f0af097e7d15b3bf7734642,64aeaab685a29f4ca249be02,64bec976c6d9dc9ef9694ed1,right,1,0.4357,0.35,18,-0.012608177,0.734,,,,,,332,0,332,0,1,,,,,
,,015692,001,2023-07-24_20h57.13.702,arm3_q,2022.2.5,Win32,59.99160118,5f0af097e7d15b3bf7734642,64aeaab685a29f4ca249be02,64bec976c6d9dc9ef9694ed1,right,1,0.4357,0.35,18,-0.005716639,0.2671,,,,,,333,0,333,0,1,,,,,
,,015692,001,2023-07-24_20h57.13.702,arm3_q,2022.2.5,Win32,59.99160118,5f0af097e7d15b3bf7734642,64aeaab685a29f4ca249be02,64bec976c6d9dc9ef9694ed1,right,1,0.4357,0.35,18,0.007388734,0.3004,,,,,,334,0,334,0,1,,,,,
,,015692,001,2023-07-24_20h57.13.702,arm3_q,2022.2.5,Win32,59.99160118,5f0af097e7d15b3bf7734642,64aeaab685a29f4ca249be02,64bec976c6d9dc9ef9694ed1,right,1,0.4357,0.35,18,-0.002469075,0.4004,,,,,,335,0,335,0,1,,,,,
,,015692,001,2023-07-24_20h57.13.702,arm3_q,2022.2.5,Win32,59.99160118,5f0af097e7d15b3bf7734642,64aeaab685a29f4ca249be02,64bec976c6d9dc9ef9694ed1,up,1,0.4357,0.35,18,0,0.9339,,,,,,336,0,336,0,1,,,,,
,,015692,001,2023-07-24_20h57.13.702,arm3_q,2022.2.5,Win32,59.99160118,5f0af097e7d15b3bf7734642,64aeaab685a29f4ca249be02,64bec976c6d9dc9ef9694ed1,right,1,0.4357,0.35,18,0.01435255,0.6203,,,,,,337,0,337,0,1,,,,,
,,015692,001,2023-07-24_20h57.13.702,arm3_q,2022.2.5,Win32,59.99160118,5f0af097e7d15b3bf7734642,64aeaab685a29f4ca249be02,64bec976c6d9dc9ef9694ed1,right,1,0.4357,0.35,18,0.023144659,0.2837,,,,,,338,0,338,0,1,,,,,
,,015692,001,2023-07-24_20h57.13.702,arm3_q,2022.2.5,Win32,59.99160118,5f0af097e7d15b3bf7734642,64aeaab685a29f4ca249be02,64bec976c6d9dc9ef9694ed1,right,1,0.4357,0.35,18,0.061590008,0.3003,,,,,,339,0,339,0,1,,,,,
,,015692,001,2023-07-24_20h57.13.702,arm3_q,2022.2.5,Win32,59.99160118,5f0af097e7d15b3bf7734642,64aeaab685a29f4ca249be02,64bec976c6d9dc9ef9694ed1,right,1,0.4357,0.35,18,0.051793127,0.2837,,,,,,340,0,340,0,1,,,,,
,,015692,001,2023-07-24_20h57.13.702,arm3_q,2022.2.5,Win32,59.99160118,5f0af097e7d15b3bf7734642,64aeaab685a29f4ca249be02,64bec976c6d9dc9ef9694ed1,right,1,0.4357,0.35,18,0.097180848,0.3004,,,,,,341,0,341,0,1,,,,,
,,015692,001,2023-07-24_20h57.13.702,arm3_q,2022.2.5,Win32,59.99160118,5f0af097e7d15b3bf7734642,64aeaab685a29f4ca249be02,64bec976c6d9dc9ef9694ed1,up,1,0.4357,0.35,19,0,1.717,,,,,,342,0,342,0,1,,,,,
,,015692,001,2023-07-24_20h57.13.702,arm3_q,2022.2.5,Win32,59.99160118,5f0af097e7d15b3bf7734642,64aeaab685a29f4ca249be02,64bec976c6d9dc9ef9694ed1,right,1,0.4357,0.35,19,0.047427454,0.8277,,,,,,343,0,343,0,1,,,,,
,,015692,001,2023-07-24_20h57.13.702,arm3_q,2022.2.5,Win32,59.99160118,5f0af097e7d15b3bf7734642,64aeaab685a29f4ca249be02,64bec976c6d9dc9ef9694ed1,right,1,0.4357,0.35,19,0.037737341,0.3004,,,,,,344,0,344,0,1,,,,,
,,015692,001,2023-07-24_20h57.13.702,arm3_q,2022.2.5,Win32,59.99160118,5f0af097e7d15b3bf7734642,64aeaab685a29f4ca249be02,64bec976c6d9dc9ef9694ed1,right,1,0.4357,0.35,19,0.06727432,0.3006,,,,,,345,0,345,0,1,,,,,
,,015692,001,2023-07-24_20h57.13.702,arm3_q,2022.2.5,Win32,59.99160118,5f0af097e7d15b3bf7734642,64aeaab685a29f4ca249be02,64bec976c6d9dc9ef9694ed1,up,1,0.4357,0.35,20,0,0.5006,,,,,,346,0,346,0,1,,,,,
,,015692,001,2023-07-24_20h57.13.702,arm3_q,2022.2.5,Win32,59.99160118,5f0af097e7d15b3bf7734642,64aeaab685a29f4ca249be02,64bec976c6d9dc9ef9694ed1,right,1,0.4357,0.35,20,0.002062375,0.7399,,,,,,347,0,347,0,1,,,,,
,,015692,001,2023-07-24_20h57.13.702,arm3_q,2022.2.5,Win32,59.99160118,5f0af097e7d15b3bf7734642,64aeaab685a29f4ca249be02,64bec976c6d9dc9ef9694ed1,right,1,0.4357,0.35,20,0.009805376,0.3005,,,,,,348,0,348,0,1,,,,,
,,015692,001,2023-07-24_20h57.13.702,arm3_q,2022.2.5,Win32,59.99160118,5f0af097e7d15b3bf7734642,64aeaab685a29f4ca249be02,64bec976c6d9dc9ef9694ed1,right,1,0.4357,0.35,20,0.032372632,0.3005,,,,,,349,0,349,0,1,,,,,
,,015692,001,2023-07-24_20h57.13.702,arm3_q,2022.2.5,Win32,59.99160118,5f0af097e7d15b3bf7734642,64aeaab685a29f4ca249be02,64bec976c6d9dc9ef9694ed1,right,1,0.4357,0.35,20,0.023678405,0.267,,,,,,350,0,350,0,1,,,,,
,,015692,001,2023-07-24_20h57.13.702,arm3_q,2022.2.5,Win32,59.99160118,5f0af097e7d15b3bf7734642,64aeaab685a29f4ca249be02,64bec976c6d9dc9ef9694ed1,right,1,0.4357,0.35,20,0.027505449,0.2841,,,,,,351,0,351,0,1,,,,,
,,015692,001,2023-07-24_20h57.13.702,arm3_q,2022.2.5,Win32,59.99160118,5f0af097e7d15b3bf7734642,64aeaab685a29f4ca249be02,64bec976c6d9dc9ef9694ed1,right,1,0.4357,0.35,20,0.018375696,0.4841,,,,,,352,0,352,0,1,,,,,
,,015692,001,2023-07-24_20h57.13.702,arm3_q,2022.2.5,Win32,59.99160118,5f0af097e7d15b3bf7734642,64aeaab685a29f4ca249be02,64bec976c6d9dc9ef9694ed1,up,1,0.4357,0.35,20,0,0.6505,,,,,,353,0,353,0,1,,,,,
,,015692,001,2023-07-24_20h57.13.702,arm3_q,2022.2.5,Win32,59.99160118,5f0af097e7d15b3bf7734642,64aeaab685a29f4ca249be02,64bec976c6d9dc9ef9694ed1,right,1,0.4357,0.35,20,0.008693053,0.7008,,,,,,354,0,354,0,1,,,,,
,,015692,001,2023-07-24_20h57.13.702,arm3_q,2022.2.5,Win32,59.99160118,5f0af097e7d15b3bf7734642,64aeaab685a29f4ca249be02,64bec976c6d9dc9ef9694ed1,right,1,0.4357,0.35,20,0.050490649,0.2659,,,,,,355,0,355,0,1,,,,,
,,015692,001,2023-07-24_20h57.13.702,arm3_q,2022.2.5,Win32,59.99160118,5f0af097e7d15b3bf7734642,64aeaab685a29f4ca249be02,64bec976c6d9dc9ef9694ed1,right,1,0.4357,0.35,20,0.045187545,0.2672,,,,,,356,0,356,0,1,,,,,
,,015692,001,2023-07-24_20h57.13.702,arm3_q,2022.2.5,Win32,59.99160118,5f0af097e7d15b3bf7734642,64aeaab685a29f4ca249be02,64bec976c6d9dc9ef9694ed1,right,1,0.4357,0.35,20,0.05917752,0.5337,,,,,,357,0,357,0,1,,,,,
,,015692,001,2023-07-24_20h57.13.702,arm3_q,2022.2.5,Win32,59.99160118,5f0af097e7d15b3bf7734642,64aeaab685a29f4ca249be02,64bec976c6d9dc9ef9694ed1,right,1,0.4357,0.35,20,0.039912325,0.3835,,,,,,358,0,358,0,1,,,,,
,,015692,001,2023-07-24_20h57.13.702,arm3_q,2022.2.5,Win32,59.99160118,5f0af097e7d15b3bf7734642,64aeaab685a29f4ca249be02,64bec976c6d9dc9ef9694ed1,up,1,0.4357,0.35,21,0,0.5169,,,,,,359,0,359,0,1,,,,,
,,015692,001,2023-07-24_20h57.13.702,arm3_q,2022.2.5,Win32,59.99160118,5f0af097e7d15b3bf7734642,64aeaab685a29f4ca249be02,64bec976c6d9dc9ef9694ed1,right,1,0.4357,0.35,21,0.026900584,0.8159,,,,,,360,0,360,0,1,,,,,
,,015692,001,2023-07-24_20h57.13.702,arm3_q,2022.2.5,Win32,59.99160118,5f0af097e7d15b3bf7734642,64aeaab685a29f4ca249be02,64bec976c6d9dc9ef9694ed1,right,1,0.4357,0.35,21,0.020111116,0.2837,,,,,,361,0,361,0,1,,,,,
,,015692,001,2023-07-24_20h57.13.702,arm3_q,2022.2.5,Win32,59.99160118,5f0af097e7d15b3bf7734642,64aeaab685a29f4ca249be02,64bec976c6d9dc9ef9694ed1,right,1,0.4357,0.35,21,0.025736106,0.2503,,,,,,362,0,362,0,1,,,,,
,,015692,001,2023-07-24_20h57.13.702,arm3_q,2022.2.5,Win32,59.99160118,5f0af097e7d15b3bf7734642,64aeaab685a29f4ca249be02,64bec976c6d9dc9ef9694ed1,right,1,0.4357,0.35,21,0.032268359,0.3162,,,,,,363,0,363,0,1,,,,,
,,015692,001,2023-07-24_20h57.13.702,arm3_q,2022.2.5,Win32,59.99160118,5f0af097e7d15b3bf7734642,64aeaab685a29f4ca249be02,64bec976c6d9dc9ef9694ed1,right,1,0.4357,0.35,21,0.002171853,0.6006,,,,,,364,0,364,0,1,,,,,
,,015692,001,2023-07-24_20h57.13.702,arm3_q,2022.2.5,Win32,59.99160118,5f0af097e7d15b3bf7734642,64aeaab685a29f4ca249be02,64bec976c6d9dc9ef9694ed1,right,1,0.4357,0.35,21,0.007465531,0.3504,,,,,,365,0,365,0,1,,,,,
,,015692,001,2023-07-24_20h57.13.702,arm3_q,2022.2.5,Win32,59.99160118,5f0af097e7d15b3bf7734642,64aeaab685a29f4ca249be02,64bec976c6d9dc9ef9694ed1,right,1,0.4357,0.35,21,0.041688756,0.6424,,,,,,366,0,366,0,1,,,,,
,,015692,001,2023-07-24_20h57.13.702,arm3_q,2022.2.5,Win32,59.99160118,5f0af097e7d15b3bf7734642,64aeaab685a29f4ca249be02,64bec976c6d9dc9ef9694ed1,right,1,0.4357,0.35,21,0.064124587,1.5338,,,,,,367,0,367,0,1,,,,,
,,015692,001,2023-07-24_20h57.13.702,arm3_q,2022.2.5,Win32,59.99160118,5f0af097e7d15b3bf7734642,64aeaab685a29f4ca249be02,64bec976c6d9dc9ef9694ed1,up,1,0.4357,0.35,22,0,0.7506,,,,,,368,0,368,0,1,,,,,
,,015692,001,2023-07-24_20h57.13.702,arm3_q,2022.2.5,Win32,59.99160118,5f0af097e7d15b3bf7734642,64aeaab685a29f4ca249be02,64bec976c6d9dc9ef9694ed1,right,1,0.4357,0.35,22,-0.034151946,1.1174,,,,,,369,0,369,0,1,,,,,
,,015692,001,2023-07-24_20h57.13.702,arm3_q,2022.2.5,Win32,59.99160118,5f0af097e7d15b3bf7734642,64aeaab685a29f4ca249be02,64bec976c6d9dc9ef9694ed1,,,,,,,,,,,,,,,,,,0,0,0,0,1
space,5.2669,015692,001,2023-07-24_20h57.13.702,arm3_q,2022.2.5,Win32,59.99160118,5f0af097e7d15b3bf7734642,64aeaab685a29f4ca249be02,64bec976c6d9dc9ef9694ed1,right,1,0.3071,0.35,22,-0.006414858,6.3556,,,,,,0,0,0,0,1,,,,,
,,015692,001,2023-07-24_20h57.13.702,arm3_q,2022.2.5,Win32,59.99160118,5f0af097e7d15b3bf7734642,64aeaab685a29f4ca249be02,64bec976c6d9dc9ef9694ed1,right,1,0.3071,0.35,22,0.008563522,0.3505,,,,,,1,0,1,0,1,,,,,
,,015692,001,2023-07-24_20h57.13.702,arm3_q,2022.2.5,Win32,59.99160118,5f0af097e7d15b3bf7734642,64aeaab685a29f4ca249be02,64bec976c6d9dc9ef9694ed1,right,1,0.3071,0.35,22,0.005529429,0.2836,,,,,,2,0,2,0,1,,,,,
,,015692,001,2023-07-24_20h57.13.702,arm3_q,2022.2.5,Win32,59.99160118,5f0af097e7d15b3bf7734642,64aeaab685a29f4ca249be02,64bec976c6d9dc9ef9694ed1,right,1,0.3071,0.35,22,0.012471652,0.4671,,,,,,3,0,3,0,1,,,,,
,,015692,001,2023-07-24_20h57.13.702,arm3_q,2022.2.5,Win32,59.99160118,5f0af097e7d15b3bf7734642,64aeaab685a29f4ca249be02,64bec976c6d9dc9ef9694ed1,right,1,0.3071,0.35,22,0.024303665,0.4505,,,,,,4,0,4,0,1,,,,,
,,015692,001,2023-07-24_20h57.13.702,arm3_q,2022.2.5,Win32,59.99160118,5f0af097e7d15b3bf7734642,64aeaab685a29f4ca249be02,64bec976c6d9dc9ef9694ed1,right,1,0.3071,0.35,22,0.042645842,0.6338,,,,,,5,0,5,0,1,,,,,
,,015692,001,2023-07-24_20h57.13.702,arm3_q,2022.2.5,Win32,59.99160118,5f0af097e7d15b3bf7734642,64aeaab685a29f4ca249be02,64bec976c6d9dc9ef9694ed1,up,-1,0.3071,0.35,23,0,0.4867,,,,,,6,0,6,0,1,,,,,
,,015692,001,2023-07-24_20h57.13.702,arm3_q,2022.2.5,Win32,59.99160118,5f0af097e7d15b3bf7734642,64aeaab685a29f4ca249be02,64bec976c6d9dc9ef9694ed1,right,-1,0.3071,0.35,23,-0.004898854,0.7838,,,,,,7,0,7,0,1,,,,,
,,015692,001,2023-07-24_20h57.13.702,arm3_q,2022.2.5,Win32,59.99160118,5f0af097e7d15b3bf7734642,64aeaab685a29f4ca249be02,64bec976c6d9dc9ef9694ed1,right,-1,0.3071,0.35,23,-0.028827212,0.3172,,,,,,8,0,8,0,1,,,,,
,,015692,001,2023-07-24_20h57.13.702,arm3_q,2022.2.5,Win32,59.99160118,5f0af097e7d15b3bf7734642,64aeaab685a29f4ca249be02,64bec976c6d9dc9ef9694ed1,right,-1,0.3071,0.35,23,-0.051990085,0.3505,,,,,,9,0,9,0,1,,,,,
,,015692,001,2023-07-24_20h57.13.702,arm3_q,2022.2.5,Win32,59.99160118,5f0af097e7d15b3bf7734642,64aeaab685a29f4ca249be02,64bec976c6d9dc9ef9694ed1,right,-1,0.3071,0.35,23,-0.037950958,0.3836,,,,,,10,0,10,0,1,,,,,
,,015692,001,2023-07-24_20h57.13.702,arm3_q,2022.2.5,Win32,59.99160118,5f0af097e7d15b3bf7734642,64aeaab685a29f4ca249be02,64bec976c6d9dc9ef9694ed1,right,-1,0.3071,0.35,23,-0.061187588,0.4162,,,,,,11,0,11,0,1,,,,,
,,015692,001,2023-07-24_20h57.13.702,arm3_q,2022.2.5,Win32,59.99160118,5f0af097e7d15b3bf7734642,64aeaab685a29f4ca249be02,64bec976c6d9dc9ef9694ed1,down,-1,0.3071,0.35,23,0,0.5669,,,,,,12,0,12,0,1,,,,,
,,015692,001,2023-07-24_20h57.13.702,arm3_q,2022.2.5,Win32,59.99160118,5f0af097e7d15b3bf7734642,64aeaab685a29f4ca249be02,64bec976c6d9dc9ef9694ed1,right,-1,0.3071,0.35,23,0.002940806,0.684,,,,,,13,0,13,0,1,,,,,
,,015692,001,2023-07-24_20h57.13.702,arm3_q,2022.2.5,Win32,59.99160118,5f0af097e7d15b3bf7734642,64aeaab685a29f4ca249be02,64bec976c6d9dc9ef9694ed1,right,-1,0.3071,0.35,23,0.006843942,0.2672,,,,,,14,0,14,0,1,,,,,
,,015692,001,2023-07-24_20h57.13.702,arm3_q,2022.2.5,Win32,59.99160118,5f0af097e7d15b3bf7734642,64aeaab685a29f4ca249be02,64bec976c6d9dc9ef9694ed1,right,-1,0.3071,0.35,23,-0.010287423,0.3004,,,,,,15,0,15,0,1,,,,,
,,015692,001,2023-07-24_20h57.13.702,arm3_q,2022.2.5,Win32,59.99160118,5f0af097e7d15b3bf7734642,64aeaab685a29f4ca249be02,64bec976c6d9dc9ef9694ed1,right,-1,0.3071,0.35,23,-0.029464677,0.3102,,,,,,16,0,16,0,1,,,,,
,,015692,001,2023-07-24_20h57.13.702,arm3_q,2022.2.5,Win32,59.99160118,5f0af097e7d15b3bf7734642,64aeaab685a29f4ca249be02,64bec976c6d9dc9ef9694ed1,right,-1,0.3071,0.35,23,-0.047834003,0.3291,,,,,,17,0,17,0,1,,,,,
,,015692,001,2023-07-24_20h57.13.702,arm3_q,2022.2.5,Win32,59.99160118,5f0af097e7d15b3bf7734642,64aeaab685a29f4ca249be02,64bec976c6d9dc9ef9694ed1,down,1,0.3071,0.35,23,0,0.5004,,,,,,18,0,18,0,1,,,,,
,,015692,001,2023-07-24_20h57.13.702,arm3_q,2022.2.5,Win32,59.99160118,5f0af097e7d15b3bf7734642,64aeaab685a29f4ca249be02,64bec976c6d9dc9ef9694ed1,right,1,0.3071,0.35,23,-0.013472151,0.6504,,,,,,19,0,19,0,1,,,,,
,,015692,001,2023-07-24_20h57.13.702,arm3_q,2022.2.5,Win32,59.99160118,5f0af097e7d15b3bf7734642,64aeaab685a29f4ca249be02,64bec976c6d9dc9ef9694ed1,right,1,0.3071,0.35,23,0.039177578,0.2838,,,,,,20,0,20,0,1,,,,,
,,015692,001,2023-07-24_20h57.13.702,arm3_q,2022.2.5,Win32,59.99160118,5f0af097e7d15b3bf7734642,64aeaab685a29f4ca249be02,64bec976c6d9dc9ef9694ed1,right,1,0.3071,0.35,23,0.083075116,0.3002,,,,,,21,0,21,0,1,,,,,
,,015692,001,2023-07-24_20h57.13.702,arm3_q,2022.2.5,Win32,59.99160118,5f0af097e7d15b3bf7734642,64aeaab685a29f4ca249be02,64bec976c6d9dc9ef9694ed1,right,1,0.3071,0.35,23,0.064203512,0.3337,,,,,,22,0,22,0,1,,,,,
,,015692,001,2023-07-24_20h57.13.702,arm3_q,2022.2.5,Win32,59.99160118,5f0af097e7d15b3bf7734642,64aeaab685a29f4ca249be02,64bec976c6d9dc9ef9694ed1,right,1,0.3071,0.35,23,0.077018627,0.3507,,,,,,23,0,23,0,1,,,,,
,,015692,001,2023-07-24_20h57.13.702,arm3_q,2022.2.5,Win32,59.99160118,5f0af097e7d15b3bf7734642,64aeaab685a29f4ca249be02,64bec976c6d9dc9ef9694ed1,up,1,0.3071,0.35,23,0,0.4837,,,,,,24,0,24,0,1,,,,,
,,015692,001,2023-07-24_20h57.13.702,arm3_q,2022.2.5,Win32,59.99160118,5f0af097e7d15b3bf7734642,64aeaab685a29f4ca249be02,64bec976c6d9dc9ef9694ed1,right,1,0.3071,0.35,23,0.015745746,0.5341,,,,,,25,0,25,0,1,,,,,
,,015692,001,2023-07-24_20h57.13.702,arm3_q,2022.2.5,Win32,59.99160118,5f0af097e7d15b3bf7734642,64aeaab685a29f4ca249be02,64bec976c6d9dc9ef9694ed1,right,1,0.3071,0.35,23,0.030340068,0.2838,,,,,,26,0,26,0,1,,,,,
,,015692,001,2023-07-24_20h57.13.702,arm3_q,2022.2.5,Win32,59.99160118,5f0af097e7d15b3bf7734642,64aeaab685a29f4ca249be02,64bec976c6d9dc9ef9694ed1,right,1,0.3071,0.35,23,0.047701748,0.2673,,,,,,27,0,27,0,1,,,,,
,,015692,001,2023-07-24_20h57.13.702,arm3_q,2022.2.5,Win32,59.99160118,5f0af097e7d15b3bf7734642,64aeaab685a29f4ca249be02,64bec976c6d9dc9ef9694ed1,right,1,0.3071,0.35,23,0.073422219,0.3836,,,,,,28,0,28,0,1,,,,,
,,015692,001,2023-07-24_20h57.13.702,arm3_q,2022.2.5,Win32,59.99160118,5f0af097e7d15b3bf7734642,64aeaab685a29f4ca249be02,64bec976c6d9dc9ef9694ed1,up,-1,0.3071,0.35,23,0,0.3004,,,,,,29,0,29,0,1,,,,,
,,015692,001,2023-07-24_20h57.13.702,arm3_q,2022.2.5,Win32,59.99160118,5f0af097e7d15b3bf7734642,64aeaab685a29f4ca249be02,64bec976c6d9dc9ef9694ed1,right,-1,0.3071,0.35,23,0.004528795,0.7507,,,,,,30,0,30,0,1,,,,,
,,015692,001,2023-07-24_20h57.13.702,arm3_q,2022.2.5,Win32,59.99160118,5f0af097e7d15b3bf7734642,64aeaab685a29f4ca249be02,64bec976c6d9dc9ef9694ed1,right,-1,0.3071,0.35,23,0.0059282,0.3171,,,,,,31,0,31,0,1,,,,,
,,015692,001,2023-07-24_20h57.13.702,arm3_q,2022.2.5,Win32,59.99160118,5f0af097e7d15b3bf7734642,64aeaab685a29f4ca249be02,64bec976c6d9dc9ef9694ed1,right,-1,0.3071,0.35,23,-0.000134475,0.3337,,,,,,32,0,32,0,1,,,,,
,,015692,001,2023-07-24_20h57.13.702,arm3_q,2022.2.5,Win32,59.99160118,5f0af097e7d15b3bf7734642,64aeaab685a29f4ca249be02,64bec976c6d9dc9ef9694ed1,right,-1,0.3071,0.35,23,0.001586784,0.3504,,,,,,33,0,33,0,1,,,,,
,,015692,001,2023-07-24_20h57.13.702,arm3_q,2022.2.5,Win32,59.99160118,5f0af097e7d15b3bf7734642,64aeaab685a29f4ca249be02,64bec976c6d9dc9ef9694ed1,right,-1,0.3071,0.35,23,0.006667852,0.3337,,,,,,34,0,34,0,1,,,,,
,,015692,001,2023-07-24_20h57.13.702,arm3_q,2022.2.5,Win32,59.99160118,5f0af097e7d15b3bf7734642,64aeaab685a29f4ca249be02,64bec976c6d9dc9ef9694ed1,right,-1,0.3071,0.35,23,-0.00345402,0.3838,,,,,,35,0,35,0,1,,,,,
,,015692,001,2023-07-24_20h57.13.702,arm3_q,2022.2.5,Win32,59.99160118,5f0af097e7d15b3bf7734642,64aeaab685a29f4ca249be02,64bec976c6d9dc9ef9694ed1,right,-1,0.3071,0.35,23,-0.000650337,0.3671,,,,,,36,0,36,0,1,,,,,
,,015692,001,2023-07-24_20h57.13.702,arm3_q,2022.2.5,Win32,59.99160118,5f0af097e7d15b3bf7734642,64aeaab685a29f4ca249be02,64bec976c6d9dc9ef9694ed1,right,-1,0.3071,0.35,23,-0.005005458,0.6504,,,,,,37,0,37,0,1,,,,,
,,015692,001,2023-07-24_20h57.13.702,arm3_q,2022.2.5,Win32,59.99160118,5f0af097e7d15b3bf7734642,64aeaab685a29f4ca249be02,64bec976c6d9dc9ef9694ed1,right,-1,0.3071,0.35,23,-0.00591101,0.4503,,,,,,38,0,38,0,1,,,,,
,,015692,001,2023-07-24_20h57.13.702,arm3_q,2022.2.5,Win32,59.99160118,5f0af097e7d15b3bf7734642,64aeaab685a29f4ca249be02,64bec976c6d9dc9ef9694ed1,right,-1,0.3071,0.35,23,-0.006203099,0.4169,,,,,,39,0,39,0,1,,,,,
,,015692,001,2023-07-24_20h57.13.702,arm3_q,2022.2.5,Win32,59.99160118,5f0af097e7d15b3bf7734642,64aeaab685a29f4ca249be02,64bec976c6d9dc9ef9694ed1,down,-1,0.3071,0.35,23,0,0.8171,,,,,,40,0,40,0,1,,,,,
,,015692,001,2023-07-24_20h57.13.702,arm3_q,2022.2.5,Win32,59.99160118,5f0af097e7d15b3bf7734642,64aeaab685a29f4ca249be02,64bec976c6d9dc9ef9694ed1,right,-1,0.3071,0.35,23,0.001182535,0.7507,,,,,,41,0,41,0,1,,,,,
,,015692,001,2023-07-24_20h57.13.702,arm3_q,2022.2.5,Win32,59.99160118,5f0af097e7d15b3bf7734642,64aeaab685a29f4ca249be02,64bec976c6d9dc9ef9694ed1,right,-1,0.3071,0.35,23,-0.005619575,0.3169,,,,,,42,0,42,0,1,,,,,
