space_bar.keys,space_bar.rt,participant,session,date,expName,psychopyVersion,OS,frameRate,PROLIFIC_PID,STUDY_ID,SESSION_ID,resp.keys,state,q_prob,eps_prob,score,price,resp.rt,train.thisRepN,train.thisTrialN,train.thisN,train.thisIndex,train.ran,steps.thisRepN,steps.thisTrialN,steps.thisN,steps.thisIndex,steps.ran,blocks.thisRepN,blocks.thisTrialN,blocks.thisN,blocks.thisIndex,blocks.ran
space,2.7868,045369,001,2023-07-24_19h58.25.483,arm3_q,2022.2.5,Win32,61.73220569,612a736e7035ad7ceeef755e,64aeaab685a29f4ca249be02,64bec98c14a17afde2154594,,,,,,,,,,,,,,,,,,,,,,
space,2.5226,045369,001,2023-07-24_19h58.25.483,arm3_q,2022.2.5,Win32,61.73220569,612a736e7035ad7ceeef755e,64aeaab685a29f4ca249be02,64bec98c14a17afde2154594,,,,,,,,,,,,,,,,,,,,,,
space,8.5536,045369,001,2023-07-24_19h58.25.483,arm3_q,2022.2.5,Win32,61.73220569,612a736e7035ad7ceeef755e,64aeaab685a29f4ca249be02,64bec98c14a17afde2154594,,,,,,,,,,,,,,,,,,,,,,
space,24.1924,045369,001,2023-07-24_19h58.25.483,arm3_q,2022.2.5,Win32,61.73220569,612a736e7035ad7ceeef755e,64aeaab685a29f4ca249be02,64bec98c14a17afde2154594,,,,,,,,,,,,,,,,,,,,,,
space,2.9487,045369,001,2023-07-24_19h58.25.483,arm3_q,2022.2.5,Win32,61.73220569,612a736e7035ad7ceeef755e,64aeaab685a29f4ca249be02,64bec98c14a17afde2154594,,,,,,,,,,,,,,,,,,,,,,
space,7.2714,045369,001,2023-07-24_19h58.25.483,arm3_q,2022.2.5,Win32,61.73220569,612a736e7035ad7ceeef755e,64aeaab685a29f4ca249be02,64bec98c14a17afde2154594,,,,,,,,,,,,,,,,,,,,,,
space,5.3946,045369,001,2023-07-24_19h58.25.483,arm3_q,2022.2.5,Win32,61.73220569,612a736e7035ad7ceeef755e,64aeaab685a29f4ca249be02,64bec98c14a17afde2154594,,,,,,,,,,,,,,,,,,,,,,
space,12.1015,045369,001,2023-07-24_19h58.25.483,arm3_q,2022.2.5,Win32,61.73220569,612a736e7035ad7ceeef755e,64aeaab685a29f4ca249be02,64bec98c14a17afde2154594,,,,,,,,,,,,,,,,,,,,,,
space,3.2332,045369,001,2023-07-24_19h58.25.483,arm3_q,2022.2.5,Win32,61.73220569,612a736e7035ad7ceeef755e,64aeaab685a29f4ca249be02,64bec98c14a17afde2154594,,,,,,,,,,,,,,,,,,,,,,
space,26.4304,045369,001,2023-07-24_19h58.25.483,arm3_q,2022.2.5,Win32,61.73220569,612a736e7035ad7ceeef755e,64aeaab685a29f4ca249be02,64bec98c14a17afde2154594,,,,,,,,,,,,,,,,,,,,,,
,,045369,001,2023-07-24_19h58.25.483,arm3_q,2022.2.5,Win32,61.73220569,612a736e7035ad7ceeef755e,64aeaab685a29f4ca249be02,64bec98c14a17afde2154594,up,-1,0.5643,0.35,-1,0,6.0917,0,0,0,0,1,,,,,,,,,,
,,045369,001,2023-07-24_19h58.25.483,arm3_q,2022.2.5,Win32,61.73220569,612a736e7035ad7ceeef755e,64aeaab685a29f4ca249be02,64bec98c14a17afde2154594,up,-1,0.5643,0.35,-2,0,2.4585,1,0,1,0,1,,,,,,,,,,
,,045369,001,2023-07-24_19h58.25.483,arm3_q,2022.2.5,Win32,61.73220569,612a736e7035ad7ceeef755e,64aeaab685a29f4ca249be02,64bec98c14a17afde2154594,up,1,0.5643,0.35,-3,0,1.6833,2,0,2,0,1,,,,,,,,,,
,,045369,001,2023-07-24_19h58.25.483,arm3_q,2022.2.5,Win32,61.73220569,612a736e7035ad7ceeef755e,64aeaab685a29f4ca249be02,64bec98c14a17afde2154594,right,1,0.5643,0.35,-3,0.003503453,1.6679,3,0,3,0,1,,,,,,,,,,
,,045369,001,2023-07-24_19h58.25.483,arm3_q,2022.2.5,Win32,61.73220569,612a736e7035ad7ceeef755e,64aeaab685a29f4ca249be02,64bec98c14a17afde2154594,right,1,0.5643,0.35,-3,-0.011353848,2.076,4,0,4,0,1,,,,,,,,,,
,,045369,001,2023-07-24_19h58.25.483,arm3_q,2022.2.5,Win32,61.73220569,612a736e7035ad7ceeef755e,64aeaab685a29f4ca249be02,64bec98c14a17afde2154594,right,1,0.5643,0.35,-3,-0.010196115,1.7914,5,0,5,0,1,,,,,,,,,,
,,045369,001,2023-07-24_19h58.25.483,arm3_q,2022.2.5,Win32,61.73220569,612a736e7035ad7ceeef755e,64aeaab685a29f4ca249be02,64bec98c14a17afde2154594,right,1,0.5643,0.35,-3,-0.016301995,2.9811,6,0,6,0,1,,,,,,,,,,
,,045369,001,2023-07-24_19h58.25.483,arm3_q,2022.2.5,Win32,61.73220569,612a736e7035ad7ceeef755e,64aeaab685a29f4ca249be02,64bec98c14a17afde2154594,up,1,0.5643,0.35,-3,0,1.1659,7,0,7,0,1,,,,,,,,,,
,,045369,001,2023-07-24_19h58.25.483,arm3_q,2022.2.5,Win32,61.73220569,612a736e7035ad7ceeef755e,64aeaab685a29f4ca249be02,64bec98c14a17afde2154594,up,1,0.5643,0.35,-2,0,3.1042,8,0,8,0,1,,,,,,,,,,
,,045369,001,2023-07-24_19h58.25.483,arm3_q,2022.2.5,Win32,61.73220569,612a736e7035ad7ceeef755e,64aeaab685a29f4ca249be02,64bec98c14a17afde2154594,right,1,0.5643,0.35,-2,0.004276851,1.5932,9,0,9,0,1,,,,,,,,,,
,,045369,001,2023-07-24_19h58.25.483,arm3_q,2022.2.5,Win32,61.73220569,612a736e7035ad7ceeef755e,64aeaab685a29f4ca249be02,64bec98c14a17afde2154594,right,1,0.5643,0.35,-2,-0.009842387,0.8525,10,0,10,0,1,,,,,,,,,,
,,045369,001,2023-07-24_19h58.25.483,arm3_q,2022.2.5,Win32,61.73220569,612a736e7035ad7ceeef755e,64aeaab685a29f4ca249be02,64bec98c14a17afde2154594,right,1,0.5643,0.35,-2,-0.006096603,0.591,11,0,11,0,1,,,,,,,,,,
,,045369,001,2023-07-24_19h58.25.483,arm3_q,2022.2.5,Win32,61.73220569,612a736e7035ad7ceeef755e,64aeaab685a29f4ca249be02,64bec98c14a17afde2154594,right,1,0.5643,0.35,-2,0.011187839,0.9079,12,0,12,0,1,,,,,,,,,,
,,045369,001,2023-07-24_19h58.25.483,arm3_q,2022.2.5,Win32,61.73220569,612a736e7035ad7ceeef755e,64aeaab685a29f4ca249be02,64bec98c14a17afde2154594,right,1,0.5643,0.35,-2,0.023883107,2.0285,13,0,13,0,1,,,,,,,,,,
,,045369,001,2023-07-24_19h58.25.483,arm3_q,2022.2.5,Win32,61.73220569,612a736e7035ad7ceeef755e,64aeaab685a29f4ca249be02,64bec98c14a17afde2154594,right,1,0.5643,0.35,-2,0.027325923,1.0779,14,0,14,0,1,,,,,,,,,,
,,045369,001,2023-07-24_19h58.25.483,arm3_q,2022.2.5,Win32,61.73220569,612a736e7035ad7ceeef755e,64aeaab685a29f4ca249be02,64bec98c14a17afde2154594,right,1,0.5643,0.35,-2,-0.00922448,0.6672,15,0,15,0,1,,,,,,,,,,
,,045369,001,2023-07-24_19h58.25.483,arm3_q,2022.2.5,Win32,61.73220569,612a736e7035ad7ceeef755e,64aeaab685a29f4ca249be02,64bec98c14a17afde2154594,right,1,0.5643,0.35,-2,-0.022243083,0.5758,16,0,16,0,1,,,,,,,,,,
,,045369,001,2023-07-24_19h58.25.483,arm3_q,2022.2.5,Win32,61.73220569,612a736e7035ad7ceeef755e,64aeaab685a29f4ca249be02,64bec98c14a17afde2154594,right,1,0.5643,0.35,-2,-0.00023423,0.4489,17,0,17,0,1,,,,,,,,,,
,,045369,001,2023-07-24_19h58.25.483,arm3_q,2022.2.5,Win32,61.73220569,612a736e7035ad7ceeef755e,64aeaab685a29f4ca249be02,64bec98c14a17afde2154594,right,1,0.5643,0.35,-2,0.026524918,0.3764,18,0,18,0,1,,,,,,,,,,
,,045369,001,2023-07-24_19h58.25.483,arm3_q,2022.2.5,Win32,61.73220569,612a736e7035ad7ceeef755e,64aeaab685a29f4ca249be02,64bec98c14a17afde2154594,up,1,0.5643,0.35,-1,0,1.0023,19,0,19,0,1,,,,,,,,,,
,,045369,001,2023-07-24_19h58.25.483,arm3_q,2022.2.5,Win32,61.73220569,612a736e7035ad7ceeef755e,64aeaab685a29f4ca249be02,64bec98c14a17afde2154594,right,1,0.5643,0.35,-1,0.023748351,1.3508,20,0,20,0,1,,,,,,,,,,
,,045369,001,2023-07-24_19h58.25.483,arm3_q,2022.2.5,Win32,61.73220569,612a736e7035ad7ceeef755e,64aeaab685a29f4ca249be02,64bec98c14a17afde2154594,right,1,0.5643,0.35,-1,0.045581022,0.5373,21,0,21,0,1,,,,,,,,,,
,,045369,001,2023-07-24_19h58.25.483,arm3_q,2022.2.5,Win32,61.73220569,612a736e7035ad7ceeef755e,64aeaab685a29f4ca249be02,64bec98c14a17afde2154594,right,1,0.5643,0.35,-1,0.053025859,0.6722,22,0,22,0,1,,,,,,,,,,
,,045369,001,2023-07-24_19h58.25.483,arm3_q,2022.2.5,Win32,61.73220569,612a736e7035ad7ceeef755e,64aeaab685a29f4ca249be02,64bec98c14a17afde2154594,right,1,0.5643,0.35,-1,0.063547957,0.6675,23,0,23,0,1,,,,,,,,,,
,,045369,001,2023-07-24_19h58.25.483,arm3_q,2022.2.5,Win32,61.73220569,612a736e7035ad7ceeef755e,64aeaab685a29f4ca249be02,64bec98c14a17afde2154594,right,1,0.5643,0.35,-1,0.081015103,0.7777,24,0,24,0,1,,,,,,,,,,
,,045369,001,2023-07-24_19h58.25.483,arm3_q,2022.2.5,Win32,61.73220569,612a736e7035ad7ceeef755e,64aeaab685a29f4ca249be02,64bec98c14a17afde2154594,right,1,0.5643,0.35,-1,0.088747948,0.8665,25,0,25,0,1,,,,,,,,,,
,,045369,001,2023-07-24_19h58.25.483,arm3_q,2022.2.5,Win32,61.73220569,612a736e7035ad7ceeef755e,64aeaab685a29f4ca249be02,64bec98c14a17afde2154594,right,1,0.5643,0.35,-1,0.075191682,0.8327,26,0,26,0,1,,,,,,,,,,
,,045369,001,2023-07-24_19h58.25.483,arm3_q,2022.2.5,Win32,61.73220569,612a736e7035ad7ceeef755e,64aeaab685a29f4ca249be02,64bec98c14a17afde2154594,right,1,0.5643,0.35,-1,0.073210885,0.7603,27,0,27,0,1,,,,,,,,,,
,,045369,001,2023-07-24_19h58.25.483,arm3_q,2022.2.5,Win32,61.73220569,612a736e7035ad7ceeef755e,64aeaab685a29f4ca249be02,64bec98c14a17afde2154594,right,1,0.5643,0.35,-1,0.077366257,0.673,28,0,28,0,1,,,,,,,,,,
,,045369,001,2023-07-24_19h58.25.483,arm3_q,2022.2.5,Win32,61.73220569,612a736e7035ad7ceeef755e,64aeaab685a29f4ca249be02,64bec98c14a17afde2154594,up,-1,0.5643,0.35,-1,0,0.8044,29,0,29,0,1,,,,,,,,,,
,,045369,001,2023-07-24_19h58.25.483,arm3_q,2022.2.5,Win32,61.73220569,612a736e7035ad7ceeef755e,64aeaab685a29f4ca249be02,64bec98c14a17afde2154594,right,-1,0.5643,0.35,-1,-0.002438063,1.2577,30,0,30,0,1,,,,,,,,,,
,,045369,001,2023-07-24_19h58.25.483,arm3_q,2022.2.5,Win32,61.73220569,612a736e7035ad7ceeef755e,64aeaab685a29f4ca249be02,64bec98c14a17afde2154594,right,-1,0.5643,0.35,-1,0.008649293,0.432,31,0,31,0,1,,,,,,,,,,
,,045369,001,2023-07-24_19h58.25.483,arm3_q,2022.2.5,Win32,61.73220569,612a736e7035ad7ceeef755e,64aeaab685a29f4ca249be02,64bec98c14a17afde2154594,right,-1,0.5643,0.35,-1,0.002410755,0.3548,32,0,32,0,1,,,,,,,,,,
,,045369,001,2023-07-24_19h58.25.483,arm3_q,2022.2.5,Win32,61.73220569,612a736e7035ad7ceeef755e,64aeaab685a29f4ca249be02,64bec98c14a17afde2154594,right,-1,0.5643,0.35,-1,0.017911139,0.2408,33,0,33,0,1,,,,,,,,,,
,,045369,001,2023-07-24_19h58.25.483,arm3_q,2022.2.5,Win32,61.73220569,612a736e7035ad7ceeef755e,64aeaab685a29f4ca249be02,64bec98c14a17afde2154594,right,-1,0.5643,0.35,-1,0.006050606,0.226,34,0,34,0,1,,,,,,,,,,
,,045369,001,2023-07-24_19h58.25.483,arm3_q,2022.2.5,Win32,61.73220569,612a736e7035ad7ceeef755e,64aeaab685a29f4ca249be02,64bec98c14a17afde2154594,right,-1,0.5643,0.35,-1,-0.010685611,0.358,35,0,35,0,1,,,,,,,,,,
,,045369,001,2023-07-24_19h58.25.483,arm3_q,2022.2.5,Win32,61.73220569,612a736e7035ad7ceeef755e,64aeaab685a29f4ca249be02,64bec98c14a17afde2154594,right,-1,0.5643,0.35,-1,-0.034818006,0.3502,36,0,36,0,1,,,,,,,,,,
,,045369,001,2023-07-24_19h58.25.483,arm3_q,2022.2.5,Win32,61.73220569,612a736e7035ad7ceeef755e,64aeaab685a29f4ca249be02,64bec98c14a17afde2154594,right,-1,0.5643,0.35,-1,-0.039327216,0.4197,37,0,37,0,1,,,,,,,,,,
,,045369,001,2023-07-24_19h58.25.483,arm3_q,2022.2.5,Win32,61.73220569,612a736e7035ad7ceeef755e,64aeaab685a29f4ca249be02,64bec98c14a17afde2154594,right,-1,0.5643,0.35,-1,-0.065343266,0.6573,38,0,38,0,1,,,,,,,,,,
,,045369,001,2023-07-24_19h58.25.483,arm3_q,2022.2.5,Win32,61.73220569,612a736e7035ad7ceeef755e,64aeaab685a29f4ca249be02,64bec98c14a17afde2154594,right,-1,0.5643,0.35,-1,-0.1117723,1.1542,39,0,39,0,1,,,,,,,,,,
,,045369,001,2023-07-24_19h58.25.483,arm3_q,2022.2.5,Win32,61.73220569,612a736e7035ad7ceeef755e,64aeaab685a29f4ca249be02,64bec98c14a17afde2154594,right,-1,0.5643,0.35,-1,-0.11019011,0.9362,40,0,40,0,1,,,,,,,,,,
,,045369,001,2023-07-24_19h58.25.483,arm3_q,2022.2.5,Win32,61.73220569,612a736e7035ad7ceeef755e,64aeaab685a29f4ca249be02,64bec98c14a17afde2154594,right,-1,0.5643,0.35,-1,-0.121014512,0.8377,41,0,41,0,1,,,,,,,,,,
,,045369,001,2023-07-24_19h58.25.483,arm3_q,2022.2.5,Win32,61.73220569,612a736e7035ad7ceeef755e,64aeaab685a29f4ca249be02,64bec98c14a17afde2154594,down,-1,0.5643,0.35,-1,0,2.4175,42,0,42,0,1,,,,,,,,,,
,,045369,001,2023-07-24_19h58.25.483,arm3_q,2022.2.5,Win32,61.73220569,612a736e7035ad7ceeef755e,64aeaab685a29f4ca249be02,64bec98c14a17afde2154594,right,-1,0.5643,0.35,-1,-0.02438678,1.3816,43,0,43,0,1,,,,,,,,,,
,,045369,001,2023-07-24_19h58.25.483,arm3_q,2022.2.5,Win32,61.73220569,612a736e7035ad7ceeef755e,64aeaab685a29f4ca249be02,64bec98c14a17afde2154594,right,-1,0.5643,0.35,-1,-0.011958448,0.4994,44,0,44,0,1,,,,,,,,,,
,,045369,001,2023-07-24_19h58.25.483,arm3_q,2022.2.5,Win32,61.73220569,612a736e7035ad7ceeef755e,64aeaab685a29f4ca249be02,64bec98c14a17afde2154594,right,-1,0.5643,0.35,-1,-0.033067944,0.9319,45,0,45,0,1,,,,,,,,,,
,,045369,001,2023-07-24_19h58.25.483,arm3_q,2022.2.5,Win32,61.73220569,612a736e7035ad7ceeef755e,64aeaab685a29f4ca249be02,64bec98c14a17afde2154594,right,-1,0.5643,0.35,-1,-0.026610515,0.7451,46,0,46,0,1,,,,,,,,,,
,,045369,001,2023-07-24_19h58.25.483,arm3_q,2022.2.5,Win32,61.73220569,612a736e7035ad7ceeef755e,64aeaab685a29f4ca249be02,64bec98c14a17afde2154594,right,-1,0.5643,0.35,-1,-0.064246374,0.4963,47,0,47,0,1,,,,,,,,,,
,,045369,001,2023-07-24_19h58.25.483,arm3_q,2022.2.5,Win32,61.73220569,612a736e7035ad7ceeef755e,64aeaab685a29f4ca249be02,64bec98c14a17afde2154594,right,-1,0.5643,0.35,-1,-0.104618189,0.9771,48,0,48,0,1,,,,,,,,,,
,,045369,001,2023-07-24_19h58.25.483,arm3_q,2022.2.5,Win32,61.73220569,612a736e7035ad7ceeef755e,64aeaab685a29f4ca249be02,64bec98c14a17afde2154594,down,-1,0.5643,0.35,-1,-0.104618189,1.0493,49,0,49,0,1,,,,,,,,,,
space,2.421,045369,001,2023-07-24_19h58.25.483,arm3_q,2022.2.5,Win32,61.73220569,612a736e7035ad7ceeef755e,64aeaab685a29f4ca249be02,64bec98c14a17afde2154594,,,,,,,,,,,,,,,,,,,,,,
space,1618.6584,045369,001,2023-07-24_19h58.25.483,arm3_q,2022.2.5,Win32,61.73220569,612a736e7035ad7ceeef755e,64aeaab685a29f4ca249be02,64bec98c14a17afde2154594,right,-1,0.05,0.35,0,-0.021900434,4.3714,,,,,,0,0,0,0,1,,,,,
,,045369,001,2023-07-24_19h58.25.483,arm3_q,2022.2.5,Win32,61.73220569,612a736e7035ad7ceeef755e,64aeaab685a29f4ca249be02,64bec98c14a17afde2154594,right,-1,0.05,0.35,0,-0.027768068,0.4466,,,,,,1,0,1,0,1,,,,,
,,045369,001,2023-07-24_19h58.25.483,arm3_q,2022.2.5,Win32,61.73220569,612a736e7035ad7ceeef755e,64aeaab685a29f4ca249be02,64bec98c14a17afde2154594,right,-1,0.05,0.35,0,-0.043227364,0.2567,,,,,,2,0,2,0,1,,,,,
,,045369,001,2023-07-24_19h58.25.483,arm3_q,2022.2.5,Win32,61.73220569,612a736e7035ad7ceeef755e,64aeaab685a29f4ca249be02,64bec98c14a17afde2154594,right,-1,0.05,0.35,0,-0.043881587,0.2233,,,,,,3,0,3,0,1,,,,,
,,045369,001,2023-07-24_19h58.25.483,arm3_q,2022.2.5,Win32,61.73220569,612a736e7035ad7ceeef755e,64aeaab685a29f4ca249be02,64bec98c14a17afde2154594,right,-1,0.05,0.35,0,-0.026734374,0.1834,,,,,,4,0,4,0,1,,,,,
,,045369,001,2023-07-24_19h58.25.483,arm3_q,2022.2.5,Win32,61.73220569,612a736e7035ad7ceeef755e,64aeaab685a29f4ca249be02,64bec98c14a17afde2154594,right,-1,0.05,0.35,0,-0.059601432,0.1839,,,,,,5,0,5,0,1,,,,,
,,045369,001,2023-07-24_19h58.25.483,arm3_q,2022.2.5,Win32,61.73220569,612a736e7035ad7ceeef755e,64aeaab685a29f4ca249be02,64bec98c14a17afde2154594,right,-1,0.05,0.35,0,-0.0735608,0.4516,,,,,,6,0,6,0,1,,,,,
,,045369,001,2023-07-24_19h58.25.483,arm3_q,2022.2.5,Win32,61.73220569,612a736e7035ad7ceeef755e,64aeaab685a29f4ca249be02,64bec98c14a17afde2154594,right,-1,0.05,0.35,0,-0.078787747,0.3678,,,,,,7,0,7,0,1,,,,,
,,045369,001,2023-07-24_19h58.25.483,arm3_q,2022.2.5,Win32,61.73220569,612a736e7035ad7ceeef755e,64aeaab685a29f4ca249be02,64bec98c14a17afde2154594,right,-1,0.05,0.35,0,-0.091430465,0.3582,,,,,,8,0,8,0,1,,,,,
,,045369,001,2023-07-24_19h58.25.483,arm3_q,2022.2.5,Win32,61.73220569,612a736e7035ad7ceeef755e,64aeaab685a29f4ca249be02,64bec98c14a17afde2154594,right,-1,0.05,0.35,0,-0.076191443,0.5507,,,,,,9,0,9,0,1,,,,,
,,045369,001,2023-07-24_19h58.25.483,arm3_q,2022.2.5,Win32,61.73220569,612a736e7035ad7ceeef755e,64aeaab685a29f4ca249be02,64bec98c14a17afde2154594,right,-1,0.05,0.35,0,-0.100298958,0.3806,,,,,,10,0,10,0,1,,,,,
,,045369,001,2023-07-24_19h58.25.483,arm3_q,2022.2.5,Win32,61.73220569,612a736e7035ad7ceeef755e,64aeaab685a29f4ca249be02,64bec98c14a17afde2154594,right,-1,0.05,0.35,0,-0.122594659,0.3885,,,,,,11,0,11,0,1,,,,,
,,045369,001,2023-07-24_19h58.25.483,arm3_q,2022.2.5,Win32,61.73220569,612a736e7035ad7ceeef755e,64aeaab685a29f4ca249be02,64bec98c14a17afde2154594,up,-1,0.05,0.35,0,0,4.9348,,,,,,12,0,12,0,1,,,,,
,,045369,001,2023-07-24_19h58.25.483,arm3_q,2022.2.5,Win32,61.73220569,612a736e7035ad7ceeef755e,64aeaab685a29f4ca249be02,64bec98c14a17afde2154594,right,-1,0.05,0.35,0,-0.030355301,1.1499,,,,,,13,0,13,0,1,,,,,
,,045369,001,2023-07-24_19h58.25.483,arm3_q,2022.2.5,Win32,61.73220569,612a736e7035ad7ceeef755e,64aeaab685a29f4ca249be02,64bec98c14a17afde2154594,right,-1,0.05,0.35,0,-0.026800096,0.2995,,,,,,14,0,14,0,1,,,,,
,,045369,001,2023-07-24_19h58.25.483,arm3_q,2022.2.5,Win32,61.73220569,612a736e7035ad7ceeef755e,64aeaab685a29f4ca249be02,64bec98c14a17afde2154594,right,-1,0.05,0.35,0,-0.049988588,0.1662,,,,,,15,0,15,0,1,,,,,
,,045369,001,2023-07-24_19h58.25.483,arm3_q,2022.2.5,Win32,61.73220569,612a736e7035ad7ceeef755e,64aeaab685a29f4ca249be02,64bec98c14a17afde2154594,right,-1,0.05,0.35,0,-0.048237937,0.2167,,,,,,16,0,16,0,1,,,,,
,,045369,001,2023-07-24_19h58.25.483,arm3_q,2022.2.5,Win32,61.73220569,612a736e7035ad7ceeef755e,64aeaab685a29f4ca249be02,64bec98c14a17afde2154594,right,-1,0.05,0.35,0,-0.071504022,0.1839,,,,,,17,0,17,0,1,,,,,
,,045369,001,2023-07-24_19h58.25.483,arm3_q,2022.2.5,Win32,61.73220569,612a736e7035ad7ceeef755e,64aeaab685a29f4ca249be02,64bec98c14a17afde2154594,right,-1,0.05,0.35,0,-0.096110874,0.1999,,,,,,18,0,18,0,1,,,,,
,,045369,001,2023-07-24_19h58.25.483,arm3_q,2022.2.5,Win32,61.73220569,612a736e7035ad7ceeef755e,64aeaab685a29f4ca249be02,64bec98c14a17afde2154594,right,-1,0.05,0.35,0,-0.093398663,0.1838,,,,,,19,0,19,0,1,,,,,
,,045369,001,2023-07-24_19h58.25.483,arm3_q,2022.2.5,Win32,61.73220569,612a736e7035ad7ceeef755e,64aeaab685a29f4ca249be02,64bec98c14a17afde2154594,right,-1,0.05,0.35,0,-0.093184162,0.2007,,,,,,20,0,20,0,1,,,,,
,,045369,001,2023-07-24_19h58.25.483,arm3_q,2022.2.5,Win32,61.73220569,612a736e7035ad7ceeef755e,64aeaab685a29f4ca249be02,64bec98c14a17afde2154594,right,-1,0.05,0.35,0,-0.091260274,0.2166,,,,,,21,0,21,0,1,,,,,
,,045369,001,2023-07-24_19h58.25.483,arm3_q,2022.2.5,Win32,61.73220569,612a736e7035ad7ceeef755e,64aeaab685a29f4ca249be02,64bec98c14a17afde2154594,right,-1,0.05,0.35,0,-0.103864783,0.193,,,,,,22,0,22,0,1,,,,,
,,045369,001,2023-07-24_19h58.25.483,arm3_q,2022.2.5,Win32,61.73220569,612a736e7035ad7ceeef755e,64aeaab685a29f4ca249be02,64bec98c14a17afde2154594,right,-1,0.05,0.35,0,-0.074666485,0.2335,,,,,,23,0,23,0,1,,,,,
,,045369,001,2023-07-24_19h58.25.483,arm3_q,2022.2.5,Win32,61.73220569,612a736e7035ad7ceeef755e,64aeaab685a29f4ca249be02,64bec98c14a17afde2154594,up,1,0.05,0.35,0,0,0.7723,,,,,,24,0,24,0,1,,,,,
,,045369,001,2023-07-24_19h58.25.483,arm3_q,2022.2.5,Win32,61.73220569,612a736e7035ad7ceeef755e,64aeaab685a29f4ca249be02,64bec98c14a17afde2154594,right,1,0.05,0.35,0,0.002459591,0.9427,,,,,,25,0,25,0,1,,,,,
,,045369,001,2023-07-24_19h58.25.483,arm3_q,2022.2.5,Win32,61.73220569,612a736e7035ad7ceeef755e,64aeaab685a29f4ca249be02,64bec98c14a17afde2154594,right,1,0.05,0.35,0,0.019593788,0.2015,,,,,,26,0,26,0,1,,,,,
,,045369,001,2023-07-24_19h58.25.483,arm3_q,2022.2.5,Win32,61.73220569,612a736e7035ad7ceeef755e,64aeaab685a29f4ca249be02,64bec98c14a17afde2154594,right,1,0.05,0.35,0,0.014023744,0.1646,,,,,,27,0,27,0,1,,,,,
,,045369,001,2023-07-24_19h58.25.483,arm3_q,2022.2.5,Win32,61.73220569,612a736e7035ad7ceeef755e,64aeaab685a29f4ca249be02,64bec98c14a17afde2154594,right,1,0.05,0.35,0,0.024895509,0.1842,,,,,,28,0,28,0,1,,,,,
,,045369,001,2023-07-24_19h58.25.483,arm3_q,2022.2.5,Win32,61.73220569,612a736e7035ad7ceeef755e,64aeaab685a29f4ca249be02,64bec98c14a17afde2154594,right,1,0.05,0.35,0,0.051245921,0.2003,,,,,,29,0,29,0,1,,,,,
,,045369,001,2023-07-24_19h58.25.483,arm3_q,2022.2.5,Win32,61.73220569,612a736e7035ad7ceeef755e,64aeaab685a29f4ca249be02,64bec98c14a17afde2154594,right,1,0.05,0.35,0,0.063255761,0.1996,,,,,,30,0,30,0,1,,,,,
,,045369,001,2023-07-24_19h58.25.483,arm3_q,2022.2.5,Win32,61.73220569,612a736e7035ad7ceeef755e,64aeaab685a29f4ca249be02,64bec98c14a17afde2154594,right,1,0.05,0.35,0,0.095312785,0.2174,,,,,,31,0,31,0,1,,,,,
,,045369,001,2023-07-24_19h58.25.483,arm3_q,2022.2.5,Win32,61.73220569,612a736e7035ad7ceeef755e,64aeaab685a29f4ca249be02,64bec98c14a17afde2154594,right,1,0.05,0.35,0,0.110669247,0.2126,,,,,,32,0,32,0,1,,,,,
,,045369,001,2023-07-24_19h58.25.483,arm3_q,2022.2.5,Win32,61.73220569,612a736e7035ad7ceeef755e,64aeaab685a29f4ca249be02,64bec98c14a17afde2154594,right,1,0.05,0.35,0,0.149187149,0.3666,,,,,,33,0,33,0,1,,,,,
,,045369,001,2023-07-24_19h58.25.483,arm3_q,2022.2.5,Win32,61.73220569,612a736e7035ad7ceeef755e,64aeaab685a29f4ca249be02,64bec98c14a17afde2154594,up,-1,0.05,0.35,0,0,0.3202,,,,,,34,0,34,0,1,,,,,
,,045369,001,2023-07-24_19h58.25.483,arm3_q,2022.2.5,Win32,61.73220569,612a736e7035ad7ceeef755e,64aeaab685a29f4ca249be02,64bec98c14a17afde2154594,right,-1,0.05,0.35,0,-0.022839054,0.8448,,,,,,35,0,35,0,1,,,,,
,,045369,001,2023-07-24_19h58.25.483,arm3_q,2022.2.5,Win32,61.73220569,612a736e7035ad7ceeef755e,64aeaab685a29f4ca249be02,64bec98c14a17afde2154594,right,-1,0.05,0.35,0,-0.041935113,0.1611,,,,,,36,0,36,0,1,,,,,
,,045369,001,2023-07-24_19h58.25.483,arm3_q,2022.2.5,Win32,61.73220569,612a736e7035ad7ceeef755e,64aeaab685a29f4ca249be02,64bec98c14a17afde2154594,right,-1,0.05,0.35,0,-0.041103794,0.1714,,,,,,37,0,37,0,1,,,,,
,,045369,001,2023-07-24_19h58.25.483,arm3_q,2022.2.5,Win32,61.73220569,612a736e7035ad7ceeef755e,64aeaab685a29f4ca249be02,64bec98c14a17afde2154594,right,-1,0.05,0.35,0,-0.048812282,0.1636,,,,,,38,0,38,0,1,,,,,
,,045369,001,2023-07-24_19h58.25.483,arm3_q,2022.2.5,Win32,61.73220569,612a736e7035ad7ceeef755e,64aeaab685a29f4ca249be02,64bec98c14a17afde2154594,right,-1,0.05,0.35,0,-0.06071651,0.2173,,,,,,39,0,39,0,1,,,,,
,,045369,001,2023-07-24_19h58.25.483,arm3_q,2022.2.5,Win32,61.73220569,612a736e7035ad7ceeef755e,64aeaab685a29f4ca249be02,64bec98c14a17afde2154594,right,-1,0.05,0.35,0,-0.02875774,0.1777,,,,,,40,0,40,0,1,,,,,
,,045369,001,2023-07-24_19h58.25.483,arm3_q,2022.2.5,Win32,61.73220569,612a736e7035ad7ceeef755e,64aeaab685a29f4ca249be02,64bec98c14a17afde2154594,right,-1,0.05,0.35,0,-0.06290006,0.2235,,,,,,41,0,41,0,1,,,,,
,,045369,001,2023-07-24_19h58.25.483,arm3_q,2022.2.5,Win32,61.73220569,612a736e7035ad7ceeef755e,64aeaab685a29f4ca249be02,64bec98c14a17afde2154594,right,-1,0.05,0.35,0,-0.079618981,0.3399,,,,,,42,0,42,0,1,,,,,
,,045369,001,2023-07-24_19h58.25.483,arm3_q,2022.2.5,Win32,61.73220569,612a736e7035ad7ceeef755e,64aeaab685a29f4ca249be02,64bec98c14a17afde2154594,right,-1,0.05,0.35,0,-0.095300203,0.2166,,,,,,43,0,43,0,1,,,,,
,,045369,001,2023-07-24_19h58.25.483,arm3_q,2022.2.5,Win32,61.73220569,612a736e7035ad7ceeef755e,64aeaab685a29f4ca249be02,64bec98c14a17afde2154594,right,-1,0.05,0.35,0,-0.099679938,0.2067,,,,,,44,0,44,0,1,,,,,
,,045369,001,2023-07-24_19h58.25.483,arm3_q,2022.2.5,Win32,61.73220569,612a736e7035ad7ceeef755e,64aeaab685a29f4ca249be02,64bec98c14a17afde2154594,right,-1,0.05,0.35,0,-0.089357308,0.2208,,,,,,45,0,45,0,1,,,,,
,,045369,001,2023-07-24_19h58.25.483,arm3_q,2022.2.5,Win32,61.73220569,612a736e7035ad7ceeef755e,64aeaab685a29f4ca249be02,64bec98c14a17afde2154594,right,-1,0.05,0.35,0,-0.095470033,0.3334,,,,,,46,0,46,0,1,,,,,
,,045369,001,2023-07-24_19h58.25.483,arm3_q,2022.2.5,Win32,61.73220569,612a736e7035ad7ceeef755e,64aeaab685a29f4ca249be02,64bec98c14a17afde2154594,down,1,0.05,0.35,0,0,0.9136,,,,,,47,0,47,0,1,,,,,
,,045369,001,2023-07-24_19h58.25.483,arm3_q,2022.2.5,Win32,61.73220569,612a736e7035ad7ceeef755e,64aeaab685a29f4ca249be02,64bec98c14a17afde2154594,right,1,0.05,0.35,0,0.044499617,1.0833,,,,,,48,0,48,0,1,,,,,
,,045369,001,2023-07-24_19h58.25.483,arm3_q,2022.2.5,Win32,61.73220569,612a736e7035ad7ceeef755e,64aeaab685a29f4ca249be02,64bec98c14a17afde2154594,right,1,0.05,0.35,0,0.076029263,0.2256,,,,,,49,0,49,0,1,,,,,
,,045369,001,2023-07-24_19h58.25.483,arm3_q,2022.2.5,Win32,61.73220569,612a736e7035ad7ceeef755e,64aeaab685a29f4ca249be02,64bec98c14a17afde2154594,right,1,0.05,0.35,0,0.068160514,0.25,,,,,,50,0,50,0,1,,,,,
,,045369,001,2023-07-24_19h58.25.483,arm3_q,2022.2.5,Win32,61.73220569,612a736e7035ad7ceeef755e,64aeaab685a29f4ca249be02,64bec98c14a17afde2154594,right,1,0.05,0.35,0,0.085833996,0.2038,,,,,,51,0,51,0,1,,,,,
,,045369,001,2023-07-24_19h58.25.483,arm3_q,2022.2.5,Win32,61.73220569,612a736e7035ad7ceeef755e,64aeaab685a29f4ca249be02,64bec98c14a17afde2154594,right,1,0.05,0.35,0,0.119030138,0.2261,,,,,,52,0,52,0,1,,,,,
,,045369,001,2023-07-24_19h58.25.483,arm3_q,2022.2.5,Win32,61.73220569,612a736e7035ad7ceeef755e,64aeaab685a29f4ca249be02,64bec98c14a17afde2154594,right,1,0.05,0.35,0,0.127739964,0.2056,,,,,,53,0,53,0,1,,,,,
,,045369,001,2023-07-24_19h58.25.483,arm3_q,2022.2.5,Win32,61.73220569,612a736e7035ad7ceeef755e,64aeaab685a29f4ca249be02,64bec98c14a17afde2154594,right,1,0.05,0.35,0,0.16263032,0.2474,,,,,,54,0,54,0,1,,,,,
,,045369,001,2023-07-24_19h58.25.483,arm3_q,2022.2.5,Win32,61.73220569,612a736e7035ad7ceeef755e,64aeaab685a29f4ca249be02,64bec98c14a17afde2154594,right,1,0.05,0.35,0,0.132303143,0.2757,,,,,,55,0,55,0,1,,,,,
,,045369,001,2023-07-24_19h58.25.483,arm3_q,2022.2.5,Win32,61.73220569,612a736e7035ad7ceeef755e,64aeaab685a29f4ca249be02,64bec98c14a17afde2154594,up,1,0.05,0.35,0,0,0.513,,,,,,56,0,56,0,1,,,,,
,,045369,001,2023-07-24_19h58.25.483,arm3_q,2022.2.5,Win32,61.73220569,612a736e7035ad7ceeef755e,64aeaab685a29f4ca249be02,64bec98c14a17afde2154594,right,1,0.05,0.35,0,0.032515923,0.8598,,,,,,57,0,57,0,1,,,,,
,,045369,001,2023-07-24_19h58.25.483,arm3_q,2022.2.5,Win32,61.73220569,612a736e7035ad7ceeef755e,64aeaab685a29f4ca249be02,64bec98c14a17afde2154594,right,1,0.05,0.35,0,0.04928241,0.2334,,,,,,58,0,58,0,1,,,,,
,,045369,001,2023-07-24_19h58.25.483,arm3_q,2022.2.5,Win32,61.73220569,612a736e7035ad7ceeef755e,64aeaab685a29f4ca249be02,64bec98c14a17afde2154594,right,1,0.05,0.35,0,0.073203714,0.1621,,,,,,59,0,59,0,1,,,,,
,,045369,001,2023-07-24_19h58.25.483,arm3_q,2022.2.5,Win32,61.73220569,612a736e7035ad7ceeef755e,64aeaab685a29f4ca249be02,64bec98c14a17afde2154594,right,1,0.05,0.35,0,0.12969431,0.1834,,,,,,60,0,60,0,1,,,,,
,,045369,001,2023-07-24_19h58.25.483,arm3_q,2022.2.5,Win32,61.73220569,612a736e7035ad7ceeef755e,64aeaab685a29f4ca249be02,64bec98c14a17afde2154594,right,1,0.05,0.35,0,0.111805273,0.227,,,,,,61,0,61,0,1,,,,,
,,045369,001,2023-07-24_19h58.25.483,arm3_q,2022.2.5,Win32,61.73220569,612a736e7035ad7ceeef755e,64aeaab685a29f4ca249be02,64bec98c14a17afde2154594,right,1,0.05,0.35,0,0.103971019,0.4169,,,,,,62,0,62,0,1,,,,,
,,045369,001,2023-07-24_19h58.25.483,arm3_q,2022.2.5,Win32,61.73220569,612a736e7035ad7ceeef755e,64aeaab685a29f4ca249be02,64bec98c14a17afde2154594,right,1,0.05,0.35,0,0.10923806,0.3544,,,,,,63,0,63,0,1,,,,,
,,045369,001,2023-07-24_19h58.25.483,arm3_q,2022.2.5,Win32,61.73220569,612a736e7035ad7ceeef755e,64aeaab685a29f4ca249be02,64bec98c14a17afde2154594,right,1,0.05,0.35,0,0.119979704,0.2829,,,,,,64,0,64,0,1,,,,,
,,045369,001,2023-07-24_19h58.25.483,arm3_q,2022.2.5,Win32,61.73220569,612a736e7035ad7ceeef755e,64aeaab685a29f4ca249be02,64bec98c14a17afde2154594,right,1,0.05,0.35,0,0.124052237,0.2833,,,,,,65,0,65,0,1,,,,,
,,045369,001,2023-07-24_19h58.25.483,arm3_q,2022.2.5,Win32,61.73220569,612a736e7035ad7ceeef755e,64aeaab685a29f4ca249be02,64bec98c14a17afde2154594,right,1,0.05,0.35,0,0.115548881,0.2941,,,,,,66,0,66,0,1,,,,,
,,045369,001,2023-07-24_19h58.25.483,arm3_q,2022.2.5,Win32,61.73220569,612a736e7035ad7ceeef755e,64aeaab685a29f4ca249be02,64bec98c14a17afde2154594,right,1,0.05,0.35,0,0.135404375,0.3334,,,,,,67,0,67,0,1,,,,,
,,045369,001,2023-07-24_19h58.25.483,arm3_q,2022.2.5,Win32,61.73220569,612a736e7035ad7ceeef755e,64aeaab685a29f4ca249be02,64bec98c14a17afde2154594,right,1,0.05,0.35,0,0.15201667,0.4163,,,,,,68,0,68,0,1,,,,,
,,045369,001,2023-07-24_19h58.25.483,arm3_q,2022.2.5,Win32,61.73220569,612a736e7035ad7ceeef755e,64aeaab685a29f4ca249be02,64bec98c14a17afde2154594,up,-1,0.05,0.35,1,0,0.8436,,,,,,69,0,69,0,1,,,,,
,,045369,001,2023-07-24_19h58.25.483,arm3_q,2022.2.5,Win32,61.73220569,612a736e7035ad7ceeef755e,64aeaab685a29f4ca249be02,64bec98c14a17afde2154594,right,-1,0.05,0.35,1,0.016181221,0.9837,,,,,,70,0,70,0,1,,,,,
,,045369,001,2023-07-24_19h58.25.483,arm3_q,2022.2.5,Win32,61.73220569,612a736e7035ad7ceeef755e,64aeaab685a29f4ca249be02,64bec98c14a17afde2154594,right,-1,0.05,0.35,1,-0.010868486,0.2412,,,,,,71,0,71,0,1,,,,,
,,045369,001,2023-07-24_19h58.25.483,arm3_q,2022.2.5,Win32,61.73220569,612a736e7035ad7ceeef755e,64aeaab685a29f4ca249be02,64bec98c14a17afde2154594,right,-1,0.05,0.35,1,-0.013519037,0.1713,,,,,,72,0,72,0,1,,,,,
,,045369,001,2023-07-24_19h58.25.483,arm3_q,2022.2.5,Win32,61.73220569,612a736e7035ad7ceeef755e,64aeaab685a29f4ca249be02,64bec98c14a17afde2154594,right,-1,0.05,0.35,1,-0.038724392,0.2506,,,,,,73,0,73,0,1,,,,,
,,045369,001,2023-07-24_19h58.25.483,arm3_q,2022.2.5,Win32,61.73220569,612a736e7035ad7ceeef755e,64aeaab685a29f4ca249be02,64bec98c14a17afde2154594,right,-1,0.05,0.35,1,-0.038761134,0.2813,,,,,,74,0,74,0,1,,,,,
,,045369,001,2023-07-24_19h58.25.483,arm3_q,2022.2.5,Win32,61.73220569,612a736e7035ad7ceeef755e,64aeaab685a29f4ca249be02,64bec98c14a17afde2154594,right,-1,0.05,0.35,1,-0.062119346,0.3004,,,,,,75,0,75,0,1,,,,,
,,045369,001,2023-07-24_19h58.25.483,arm3_q,2022.2.5,Win32,61.73220569,612a736e7035ad7ceeef755e,64aeaab685a29f4ca249be02,64bec98c14a17afde2154594,right,-1,0.05,0.35,1,-0.069674434,0.2049,,,,,,76,0,76,0,1,,,,,
,,045369,001,2023-07-24_19h58.25.483,arm3_q,2022.2.5,Win32,61.73220569,612a736e7035ad7ceeef755e,64aeaab685a29f4ca249be02,64bec98c14a17afde2154594,right,-1,0.05,0.35,1,-0.052298466,0.1619,,,,,,77,0,77,0,1,,,,,
,,045369,001,2023-07-24_19h58.25.483,arm3_q,2022.2.5,Win32,61.73220569,612a736e7035ad7ceeef755e,64aeaab685a29f4ca249be02,64bec98c14a17afde2154594,right,-1,0.05,0.35,1,-0.047126755,0.2829,,,,,,78,0,78,0,1,,,,,
,,045369,001,2023-07-24_19h58.25.483,arm3_q,2022.2.5,Win32,61.73220569,612a736e7035ad7ceeef755e,64aeaab685a29f4ca249be02,64bec98c14a17afde2154594,right,-1,0.05,0.35,1,-0.070266047,0.2759,,,,,,79,0,79,0,1,,,,,
,,045369,001,2023-07-24_19h58.25.483,arm3_q,2022.2.5,Win32,61.73220569,612a736e7035ad7ceeef755e,64aeaab685a29f4ca249be02,64bec98c14a17afde2154594,right,-1,0.05,0.35,1,-0.083677454,0.2972,,,,,,80,0,80,0,1,,,,,
,,045369,001,2023-07-24_19h58.25.483,arm3_q,2022.2.5,Win32,61.73220569,612a736e7035ad7ceeef755e,64aeaab685a29f4ca249be02,64bec98c14a17afde2154594,right,-1,0.05,0.35,1,-0.085067381,0.3827,,,,,,81,0,81,0,1,,,,,
,,045369,001,2023-07-24_19h58.25.483,arm3_q,2022.2.5,Win32,61.73220569,612a736e7035ad7ceeef755e,64aeaab685a29f4ca249be02,64bec98c14a17afde2154594,down,-1,0.05,0.35,1,0,0.7735,,,,,,82,0,82,0,1,,,,,
,,045369,001,2023-07-24_19h58.25.483,arm3_q,2022.2.5,Win32,61.73220569,612a736e7035ad7ceeef755e,64aeaab685a29f4ca249be02,64bec98c14a17afde2154594,right,-1,0.05,0.35,1,0.028843349,0.9171,,,,,,83,0,83,0,1,,,,,
,,045369,001,2023-07-24_19h58.25.483,arm3_q,2022.2.5,Win32,61.73220569,612a736e7035ad7ceeef755e,64aeaab685a29f4ca249be02,64bec98c14a17afde2154594,right,-1,0.05,0.35,1,0.026364811,0.3573,,,,,,84,0,84,0,1,,,,,
,,045369,001,2023-07-24_19h58.25.483,arm3_q,2022.2.5,Win32,61.73220569,612a736e7035ad7ceeef755e,64aeaab685a29f4ca249be02,64bec98c14a17afde2154594,right,-1,0.05,0.35,1,0.020129936,0.1785,,,,,,85,0,85,0,1,,,,,
,,045369,001,2023-07-24_19h58.25.483,arm3_q,2022.2.5,Win32,61.73220569,612a736e7035ad7ceeef755e,64aeaab685a29f4ca249be02,64bec98c14a17afde2154594,right,-1,0.05,0.35,1,0.013735789,0.2193,,,,,,86,0,86,0,1,,,,,
,,045369,001,2023-07-24_19h58.25.483,arm3_q,2022.2.5,Win32,61.73220569,612a736e7035ad7ceeef755e,64aeaab685a29f4ca249be02,64bec98c14a17afde2154594,right,-1,0.05,0.35,1,0.013278246,0.1334,,,,,,87,0,87,0,1,,,,,
,,045369,001,2023-07-24_19h58.25.483,arm3_q,2022.2.5,Win32,61.73220569,612a736e7035ad7ceeef755e,64aeaab685a29f4ca249be02,64bec98c14a17afde2154594,right,-1,0.05,0.35,1,0.037435228,0.2863,,,,,,88,0,88,0,1,,,,,
,,045369,001,2023-07-24_19h58.25.483,arm3_q,2022.2.5,Win32,61.73220569,612a736e7035ad7ceeef755e,64aeaab685a29f4ca249be02,64bec98c14a17afde2154594,right,-1,0.05,0.35,1,0.052053152,0.2665,,,,,,89,0,89,0,1,,,,,
,,045369,001,2023-07-24_19h58.25.483,arm3_q,2022.2.5,Win32,61.73220569,612a736e7035ad7ceeef755e,64aeaab685a29f4ca249be02,64bec98c14a17afde2154594,right,-1,0.05,0.35,1,0.030425097,0.2673,,,,,,90,0,90,0,1,,,,,
,,045369,001,2023-07-24_19h58.25.483,arm3_q,2022.2.5,Win32,61.73220569,612a736e7035ad7ceeef755e,64aeaab685a29f4ca249be02,64bec98c14a17afde2154594,right,-1,0.05,0.35,1,0.058854768,0.2694,,,,,,91,0,91,0,1,,,,,
,,045369,001,2023-07-24_19h58.25.483,arm3_q,2022.2.5,Win32,61.73220569,612a736e7035ad7ceeef755e,64aeaab685a29f4ca249be02,64bec98c14a17afde2154594,right,-1,0.05,0.35,1,0.046137674,0.2667,,,,,,92,0,92,0,1,,,,,
,,045369,001,2023-07-24_19h58.25.483,arm3_q,2022.2.5,Win32,61.73220569,612a736e7035ad7ceeef755e,64aeaab685a29f4ca249be02,64bec98c14a17afde2154594,right,-1,0.05,0.35,1,0.037293164,0.283,,,,,,93,0,93,0,1,,,,,
,,045369,001,2023-07-24_19h58.25.483,arm3_q,2022.2.5,Win32,61.73220569,612a736e7035ad7ceeef755e,64aeaab685a29f4ca249be02,64bec98c14a17afde2154594,right,-1,0.05,0.35,1,0.024390738,0.3498,,,,,,94,0,94,0,1,,,,,
,,045369,001,2023-07-24_19h58.25.483,arm3_q,2022.2.5,Win32,61.73220569,612a736e7035ad7ceeef755e,64aeaab685a29f4ca249be02,64bec98c14a17afde2154594,up,1,0.05,0.35,1,0,0.3506,,,,,,95,0,95,0,1,,,,,
,,045369,001,2023-07-24_19h58.25.483,arm3_q,2022.2.5,Win32,61.73220569,612a736e7035ad7ceeef755e,64aeaab685a29f4ca249be02,64bec98c14a17afde2154594,right,1,0.05,0.35,1,-0.021629691,0.5683,,,,,,96,0,96,0,1,,,,,
,,045369,001,2023-07-24_19h58.25.483,arm3_q,2022.2.5,Win32,61.73220569,612a736e7035ad7ceeef755e,64aeaab685a29f4ca249be02,64bec98c14a17afde2154594,right,1,0.05,0.35,1,-0.022245613,0.2429,,,,,,97,0,97,0,1,,,,,
,,045369,001,2023-07-24_19h58.25.483,arm3_q,2022.2.5,Win32,61.73220569,612a736e7035ad7ceeef755e,64aeaab685a29f4ca249be02,64bec98c14a17afde2154594,right,1,0.05,0.35,1,0.004145134,0.1666,,,,,,98,0,98,0,1,,,,,
,,045369,001,2023-07-24_19h58.25.483,arm3_q,2022.2.5,Win32,61.73220569,612a736e7035ad7ceeef755e,64aeaab685a29f4ca249be02,64bec98c14a17afde2154594,right,1,0.05,0.35,1,0.003442147,0.1503,,,,,,99,0,99,0,1,,,,,
,,045369,001,2023-07-24_19h58.25.483,arm3_q,2022.2.5,Win32,61.73220569,612a736e7035ad7ceeef755e,64aeaab685a29f4ca249be02,64bec98c14a17afde2154594,right,1,0.05,0.35,1,0.022848852,0.1548,,,,,,100,0,100,0,1,,,,,
,,045369,001,2023-07-24_19h58.25.483,arm3_q,2022.2.5,Win32,61.73220569,612a736e7035ad7ceeef755e,64aeaab685a29f4ca249be02,64bec98c14a17afde2154594,right,1,0.05,0.35,1,8.97492E-05,0.2101,,,,,,101,0,101,0,1,,,,,
,,045369,001,2023-07-24_19h58.25.483,arm3_q,2022.2.5,Win32,61.73220569,612a736e7035ad7ceeef755e,64aeaab685a29f4ca249be02,64bec98c14a17afde2154594,right,1,0.05,0.35,1,-0.009509502,0.2642,,,,,,102,0,102,0,1,,,,,
,,045369,001,2023-07-24_19h58.25.483,arm3_q,2022.2.5,Win32,61.73220569,612a736e7035ad7ceeef755e,64aeaab685a29f4ca249be02,64bec98c14a17afde2154594,up,-1,0.05,0.35,1,0,0.3934,,,,,,103,0,103,0,1,,,,,
,,045369,001,2023-07-24_19h58.25.483,arm3_q,2022.2.5,Win32,61.73220569,612a736e7035ad7ceeef755e,64aeaab685a29f4ca249be02,64bec98c14a17afde2154594,down,1,0.05,0.35,1,0,0.0262,,,,,,104,0,104,0,1,,,,,
,,045369,001,2023-07-24_19h58.25.483,arm3_q,2022.2.5,Win32,61.73220569,612a736e7035ad7ceeef755e,64aeaab685a29f4ca249be02,64bec98c14a17afde2154594,down,-1,0.05,0.35,1,0,0.9023,,,,,,105,0,105,0,1,,,,,
,,045369,001,2023-07-24_19h58.25.483,arm3_q,2022.2.5,Win32,61.73220569,612a736e7035ad7ceeef755e,64aeaab685a29f4ca249be02,64bec98c14a17afde2154594,right,-1,0.05,0.35,1,0.036750181,0.1771,,,,,,106,0,106,0,1,,,,,
,,045369,001,2023-07-24_19h58.25.483,arm3_q,2022.2.5,Win32,61.73220569,612a736e7035ad7ceeef755e,64aeaab685a29f4ca249be02,64bec98c14a17afde2154594,right,-1,0.05,0.35,1,-0.003682443,0.553,,,,,,107,0,107,0,1,,,,,
,,045369,001,2023-07-24_19h58.25.483,arm3_q,2022.2.5,Win32,61.73220569,612a736e7035ad7ceeef755e,64aeaab685a29f4ca249be02,64bec98c14a17afde2154594,right,-1,0.05,0.35,1,-0.036779347,0.1784,,,,,,108,0,108,0,1,,,,,
,,045369,001,2023-07-24_19h58.25.483,arm3_q,2022.2.5,Win32,61.73220569,612a736e7035ad7ceeef755e,64aeaab685a29f4ca249be02,64bec98c14a17afde2154594,right,-1,0.05,0.35,1,-0.069742847,0.2333,,,,,,109,0,109,0,1,,,,,
,,045369,001,2023-07-24_19h58.25.483,arm3_q,2022.2.5,Win32,61.73220569,612a736e7035ad7ceeef755e,64aeaab685a29f4ca249be02,64bec98c14a17afde2154594,right,-1,0.05,0.35,1,-0.072899538,0.1257,,,,,,110,0,110,0,1,,,,,
,,045369,001,2023-07-24_19h58.25.483,arm3_q,2022.2.5,Win32,61.73220569,612a736e7035ad7ceeef755e,64aeaab685a29f4ca249be02,64bec98c14a17afde2154594,right,-1,0.05,0.35,1,-0.072508599,0.1678,,,,,,111,0,111,0,1,,,,,
,,045369,001,2023-07-24_19h58.25.483,arm3_q,2022.2.5,Win32,61.73220569,612a736e7035ad7ceeef755e,64aeaab685a29f4ca249be02,64bec98c14a17afde2154594,right,-1,0.05,0.35,1,-0.088167551,0.1848,,,,,,112,0,112,0,1,,,,,
,,045369,001,2023-07-24_19h58.25.483,arm3_q,2022.2.5,Win32,61.73220569,612a736e7035ad7ceeef755e,64aeaab685a29f4ca249be02,64bec98c14a17afde2154594,right,-1,0.05,0.35,1,-0.078656957,0.2001,,,,,,113,0,113,0,1,,,,,
,,045369,001,2023-07-24_19h58.25.483,arm3_q,2022.2.5,Win32,61.73220569,612a736e7035ad7ceeef755e,64aeaab685a29f4ca249be02,64bec98c14a17afde2154594,right,-1,0.05,0.35,1,-0.076929638,0.1628,,,,,,114,0,114,0,1,,,,,
,,045369,001,2023-07-24_19h58.25.483,arm3_q,2022.2.5,Win32,61.73220569,612a736e7035ad7ceeef755e,64aeaab685a29f4ca249be02,64bec98c14a17afde2154594,right,-1,0.05,0.35,1,-0.091052393,0.2166,,,,,,115,0,115,0,1,,,,,
,,045369,001,2023-07-24_19h58.25.483,arm3_q,2022.2.5,Win32,61.73220569,612a736e7035ad7ceeef755e,64aeaab685a29f4ca249be02,64bec98c14a17afde2154594,right,-1,0.05,0.35,1,-0.078130887,0.1663,,,,,,116,0,116,0,1,,,,,
,,045369,001,2023-07-24_19h58.25.483,arm3_q,2022.2.5,Win32,61.73220569,612a736e7035ad7ceeef755e,64aeaab685a29f4ca249be02,64bec98c14a17afde2154594,right,-1,0.05,0.35,1,-0.093931416,0.3017,,,,,,117,0,117,0,1,,,,,
,,045369,001,2023-07-24_19h58.25.483,arm3_q,2022.2.5,Win32,61.73220569,612a736e7035ad7ceeef755e,64aeaab685a29f4ca249be02,64bec98c14a17afde2154594,down,1,0.05,0.35,1,0,0.2426,,,,,,118,0,118,0,1,,,,,
,,045369,001,2023-07-24_19h58.25.483,arm3_q,2022.2.5,Win32,61.73220569,612a736e7035ad7ceeef755e,64aeaab685a29f4ca249be02,64bec98c14a17afde2154594,right,1,0.05,0.35,1,-0.006261096,0.7334,,,,,,119,0,119,0,1,,,,,
,,045369,001,2023-07-24_19h58.25.483,arm3_q,2022.2.5,Win32,61.73220569,612a736e7035ad7ceeef755e,64aeaab685a29f4ca249be02,64bec98c14a17afde2154594,right,1,0.05,0.35,1,-0.019176685,0.2645,,,,,,120,0,120,0,1,,,,,
,,045369,001,2023-07-24_19h58.25.483,arm3_q,2022.2.5,Win32,61.73220569,612a736e7035ad7ceeef755e,64aeaab685a29f4ca249be02,64bec98c14a17afde2154594,right,1,0.05,0.35,1,-0.016119058,0.1902,,,,,,121,0,121,0,1,,,,,
,,045369,001,2023-07-24_19h58.25.483,arm3_q,2022.2.5,Win32,61.73220569,612a736e7035ad7ceeef755e,64aeaab685a29f4ca249be02,64bec98c14a17afde2154594,right,1,0.05,0.35,1,-0.004916153,0.1779,,,,,,122,0,122,0,1,,,,,
,,045369,001,2023-07-24_19h58.25.483,arm3_q,2022.2.5,Win32,61.73220569,612a736e7035ad7ceeef755e,64aeaab685a29f4ca249be02,64bec98c14a17afde2154594,right,1,0.05,0.35,1,-0.017664756,0.1848,,,,,,123,0,123,0,1,,,,,
,,045369,001,2023-07-24_19h58.25.483,arm3_q,2022.2.5,Win32,61.73220569,612a736e7035ad7ceeef755e,64aeaab685a29f4ca249be02,64bec98c14a17afde2154594,right,1,0.05,0.35,1,0.00997441,0.2002,,,,,,124,0,124,0,1,,,,,
,,045369,001,2023-07-24_19h58.25.483,arm3_q,2022.2.5,Win32,61.73220569,612a736e7035ad7ceeef755e,64aeaab685a29f4ca249be02,64bec98c14a17afde2154594,right,1,0.05,0.35,1,0.034008394,0.1704,,,,,,125,0,125,0,1,,,,,
,,045369,001,2023-07-24_19h58.25.483,arm3_q,2022.2.5,Win32,61.73220569,612a736e7035ad7ceeef755e,64aeaab685a29f4ca249be02,64bec98c14a17afde2154594,right,1,0.05,0.35,1,0.061252515,0.2147,,,,,,126,0,126,0,1,,,,,
,,045369,001,2023-07-24_19h58.25.483,arm3_q,2022.2.5,Win32,61.73220569,612a736e7035ad7ceeef755e,64aeaab685a29f4ca249be02,64bec98c14a17afde2154594,right,1,0.05,0.35,1,0.079843742,0.2189,,,,,,127,0,127,0,1,,,,,
,,045369,001,2023-07-24_19h58.25.483,arm3_q,2022.2.5,Win32,61.73220569,612a736e7035ad7ceeef755e,64aeaab685a29f4ca249be02,64bec98c14a17afde2154594,right,1,0.05,0.35,1,0.086485304,0.435,,,,,,128,0,128,0,1,,,,,
,,045369,001,2023-07-24_19h58.25.483,arm3_q,2022.2.5,Win32,61.73220569,612a736e7035ad7ceeef755e,64aeaab685a29f4ca249be02,64bec98c14a17afde2154594,up,1,0.05,0.35,1,0,0.2872,,,,,,129,0,129,0,1,,,,,
,,045369,001,2023-07-24_19h58.25.483,arm3_q,2022.2.5,Win32,61.73220569,612a736e7035ad7ceeef755e,64aeaab685a29f4ca249be02,64bec98c14a17afde2154594,right,1,0.05,0.35,1,0.011539257,20.9337,,,,,,130,0,130,0,1,,,,,
,,045369,001,2023-07-24_19h58.25.483,arm3_q,2022.2.5,Win32,61.73220569,612a736e7035ad7ceeef755e,64aeaab685a29f4ca249be02,64bec98c14a17afde2154594,right,1,0.05,0.35,1,0.052198847,0.2509,,,,,,131,0,131,0,1,,,,,
,,045369,001,2023-07-24_19h58.25.483,arm3_q,2022.2.5,Win32,61.73220569,612a736e7035ad7ceeef755e,64aeaab685a29f4ca249be02,64bec98c14a17afde2154594,right,1,0.05,0.35,1,0.082080226,0.1831,,,,,,132,0,132,0,1,,,,,
,,045369,001,2023-07-24_19h58.25.483,arm3_q,2022.2.5,Win32,61.73220569,612a736e7035ad7ceeef755e,64aeaab685a29f4ca249be02,64bec98c14a17afde2154594,right,1,0.05,0.35,1,0.08764219,0.1556,,,,,,133,0,133,0,1,,,,,
,,045369,001,2023-07-24_19h58.25.483,arm3_q,2022.2.5,Win32,61.73220569,612a736e7035ad7ceeef755e,64aeaab685a29f4ca249be02,64bec98c14a17afde2154594,right,1,0.05,0.35,1,0.084009463,0.1629,,,,,,134,0,134,0,1,,,,,
,,045369,001,2023-07-24_19h58.25.483,arm3_q,2022.2.5,Win32,61.73220569,612a736e7035ad7ceeef755e,64aeaab685a29f4ca249be02,64bec98c14a17afde2154594,right,1,0.05,0.35,1,0.080778976,0.1613,,,,,,135,0,135,0,1,,,,,
,,045369,001,2023-07-24_19h58.25.483,arm3_q,2022.2.5,Win32,61.73220569,612a736e7035ad7ceeef755e,64aeaab685a29f4ca249be02,64bec98c14a17afde2154594,right,1,0.05,0.35,1,0.10573905,0.1836,,,,,,136,0,136,0,1,,,,,
,,045369,001,2023-07-24_19h58.25.483,arm3_q,2022.2.5,Win32,61.73220569,612a736e7035ad7ceeef755e,64aeaab685a29f4ca249be02,64bec98c14a17afde2154594,right,1,0.05,0.35,1,0.156801335,0.1832,,,,,,137,0,137,0,1,,,,,
,,045369,001,2023-07-24_19h58.25.483,arm3_q,2022.2.5,Win32,61.73220569,612a736e7035ad7ceeef755e,64aeaab685a29f4ca249be02,64bec98c14a17afde2154594,right,1,0.05,0.35,1,0.178014176,0.2999,,,,,,138,0,138,0,1,,,,,
,,045369,001,2023-07-24_19h58.25.483,arm3_q,2022.2.5,Win32,61.73220569,612a736e7035ad7ceeef755e,64aeaab685a29f4ca249be02,64bec98c14a17afde2154594,right,1,0.05,0.35,1,0.177142059,0.3166,,,,,,139,0,139,0,1,,,,,
,,045369,001,2023-07-24_19h58.25.483,arm3_q,2022.2.5,Win32,61.73220569,612a736e7035ad7ceeef755e,64aeaab685a29f4ca249be02,64bec98c14a17afde2154594,right,1,0.05,0.35,1,0.220344011,0.2859,,,,,,140,0,140,0,1,,,,,
,,045369,001,2023-07-24_19h58.25.483,arm3_q,2022.2.5,Win32,61.73220569,612a736e7035ad7ceeef755e,64aeaab685a29f4ca249be02,64bec98c14a17afde2154594,up,1,0.05,0.35,1,0,0.3667,,,,,,141,0,141,0,1,,,,,
,,045369,001,2023-07-24_19h58.25.483,arm3_q,2022.2.5,Win32,61.73220569,612a736e7035ad7ceeef755e,64aeaab685a29f4ca249be02,64bec98c14a17afde2154594,right,1,0.05,0.35,1,0.007476256,0.7835,,,,,,142,0,142,0,1,,,,,
,,045369,001,2023-07-24_19h58.25.483,arm3_q,2022.2.5,Win32,61.73220569,612a736e7035ad7ceeef755e,64aeaab685a29f4ca249be02,64bec98c14a17afde2154594,right,1,0.05,0.35,1,-0.021616639,0.1958,,,,,,143,0,143,0,1,,,,,
,,045369,001,2023-07-24_19h58.25.483,arm3_q,2022.2.5,Win32,61.73220569,612a736e7035ad7ceeef755e,64aeaab685a29f4ca249be02,64bec98c14a17afde2154594,right,1,0.05,0.35,1,-0.007703623,0.1675,,,,,,144,0,144,0,1,,,,,
,,045369,001,2023-07-24_19h58.25.483,arm3_q,2022.2.5,Win32,61.73220569,612a736e7035ad7ceeef755e,64aeaab685a29f4ca249be02,64bec98c14a17afde2154594,right,1,0.05,0.35,1,0.020827903,0.1585,,,,,,145,0,145,0,1,,,,,
,,045369,001,2023-07-24_19h58.25.483,arm3_q,2022.2.5,Win32,61.73220569,612a736e7035ad7ceeef755e,64aeaab685a29f4ca249be02,64bec98c14a17afde2154594,right,1,0.05,0.35,1,0.052525101,0.184,,,,,,146,0,146,0,1,,,,,
,,045369,001,2023-07-24_19h58.25.483,arm3_q,2022.2.5,Win32,61.73220569,612a736e7035ad7ceeef755e,64aeaab685a29f4ca249be02,64bec98c14a17afde2154594,right,1,0.05,0.35,1,0.084944682,0.1664,,,,,,147,0,147,0,1,,,,,
,,045369,001,2023-07-24_19h58.25.483,arm3_q,2022.2.5,Win32,61.73220569,612a736e7035ad7ceeef755e,64aeaab685a29f4ca249be02,64bec98c14a17afde2154594,right,1,0.05,0.35,1,0.090575422,0.1997,,,,,,148,0,148,0,1,,,,,
,,045369,001,2023-07-24_19h58.25.483,arm3_q,2022.2.5,Win32,61.73220569,612a736e7035ad7ceeef755e,64aeaab685a29f4ca249be02,64bec98c14a17afde2154594,right,1,0.05,0.35,1,0.110789591,0.1799,,,,,,149,0,149,0,1,,,,,
,,045369,001,2023-07-24_19h58.25.483,arm3_q,2022.2.5,Win32,61.73220569,612a736e7035ad7ceeef755e,64aeaab685a29f4ca249be02,64bec98c14a17afde2154594,right,1,0.05,0.35,1,0.106502651,0.2007,,,,,,150,0,150,0,1,,,,,
,,045369,001,2023-07-24_19h58.25.483,arm3_q,2022.2.5,Win32,61.73220569,612a736e7035ad7ceeef755e,64aeaab685a29f4ca249be02,64bec98c14a17afde2154594,right,1,0.05,0.35,1,0.12744052,0.1759,,,,,,151,0,151,0,1,,,,,
,,045369,001,2023-07-24_19h58.25.483,arm3_q,2022.2.5,Win32,61.73220569,612a736e7035ad7ceeef755e,64aeaab685a29f4ca249be02,64bec98c14a17afde2154594,right,1,0.05,0.35,1,0.153236674,0.2003,,,,,,152,0,152,0,1,,,,,
,,045369,001,2023-07-24_19h58.25.483,arm3_q,2022.2.5,Win32,61.73220569,612a736e7035ad7ceeef755e,64aeaab685a29f4ca249be02,64bec98c14a17afde2154594,right,1,0.05,0.35,1,0.159889834,0.1905,,,,,,153,0,153,0,1,,,,,
,,045369,001,2023-07-24_19h58.25.483,arm3_q,2022.2.5,Win32,61.73220569,612a736e7035ad7ceeef755e,64aeaab685a29f4ca249be02,64bec98c14a17afde2154594,up,1,0.05,0.35,1,0,0.8403,,,,,,154,0,154,0,1,,,,,
,,045369,001,2023-07-24_19h58.25.483,arm3_q,2022.2.5,Win32,61.73220569,612a736e7035ad7ceeef755e,64aeaab685a29f4ca249be02,64bec98c14a17afde2154594,right,1,0.05,0.35,1,-0.004931708,0.6304,,,,,,155,0,155,0,1,,,,,
,,045369,001,2023-07-24_19h58.25.483,arm3_q,2022.2.5,Win32,61.73220569,612a736e7035ad7ceeef755e,64aeaab685a29f4ca249be02,64bec98c14a17afde2154594,right,1,0.05,0.35,1,0.02328692,0.3064,,,,,,156,0,156,0,1,,,,,
,,045369,001,2023-07-24_19h58.25.483,arm3_q,2022.2.5,Win32,61.73220569,612a736e7035ad7ceeef755e,64aeaab685a29f4ca249be02,64bec98c14a17afde2154594,right,1,0.05,0.35,1,0.012779364,0.159,,,,,,157,0,157,0,1,,,,,
,,045369,001,2023-07-24_19h58.25.483,arm3_q,2022.2.5,Win32,61.73220569,612a736e7035ad7ceeef755e,64aeaab685a29f4ca249be02,64bec98c14a17afde2154594,right,1,0.05,0.35,1,0.026617386,0.1761,,,,,,158,0,158,0,1,,,,,
,,045369,001,2023-07-24_19h58.25.483,arm3_q,2022.2.5,Win32,61.73220569,612a736e7035ad7ceeef755e,64aeaab685a29f4ca249be02,64bec98c14a17afde2154594,right,1,0.05,0.35,1,0.020140775,0.1609,,,,,,159,0,159,0,1,,,,,
,,045369,001,2023-07-24_19h58.25.483,arm3_q,2022.2.5,Win32,61.73220569,612a736e7035ad7ceeef755e,64aeaab685a29f4ca249be02,64bec98c14a17afde2154594,right,1,0.05,0.35,1,0.020116934,0.2011,,,,,,160,0,160,0,1,,,,,
,,045369,001,2023-07-24_19h58.25.483,arm3_q,2022.2.5,Win32,61.73220569,612a736e7035ad7ceeef755e,64aeaab685a29f4ca249be02,64bec98c14a17afde2154594,right,1,0.05,0.35,1,0.057984958,0.1804,,,,,,161,0,161,0,1,,,,,
,,045369,001,2023-07-24_19h58.25.483,arm3_q,2022.2.5,Win32,61.73220569,612a736e7035ad7ceeef755e,64aeaab685a29f4ca249be02,64bec98c14a17afde2154594,right,1,0.05,0.35,1,0.087091089,0.1769,,,,,,162,0,162,0,1,,,,,
,,045369,001,2023-07-24_19h58.25.483,arm3_q,2022.2.5,Win32,61.73220569,612a736e7035ad7ceeef755e,64aeaab685a29f4ca249be02,64bec98c14a17afde2154594,right,1,0.05,0.35,1,0.070281166,0.21,,,,,,163,0,163,0,1,,,,,
,,045369,001,2023-07-24_19h58.25.483,arm3_q,2022.2.5,Win32,61.73220569,612a736e7035ad7ceeef755e,64aeaab685a29f4ca249be02,64bec98c14a17afde2154594,right,1,0.05,0.35,1,0.079386324,0.1834,,,,,,164,0,164,0,1,,,,,
,,045369,001,2023-07-24_19h58.25.483,arm3_q,2022.2.5,Win32,61.73220569,612a736e7035ad7ceeef755e,64aeaab685a29f4ca249be02,64bec98c14a17afde2154594,right,1,0.05,0.35,1,0.090375598,0.202,,,,,,165,0,165,0,1,,,,,
,,045369,001,2023-07-24_19h58.25.483,arm3_q,2022.2.5,Win32,61.73220569,612a736e7035ad7ceeef755e,64aeaab685a29f4ca249be02,64bec98c14a17afde2154594,right,1,0.05,0.35,1,0.122991161,0.2011,,,,,,166,0,166,0,1,,,,,
,,045369,001,2023-07-24_19h58.25.483,arm3_q,2022.2.5,Win32,61.73220569,612a736e7035ad7ceeef755e,64aeaab685a29f4ca249be02,64bec98c14a17afde2154594,up,1,0.05,0.35,1,0,0.7821,,,,,,167,0,167,0,1,,,,,
,,045369,001,2023-07-24_19h58.25.483,arm3_q,2022.2.5,Win32,61.73220569,612a736e7035ad7ceeef755e,64aeaab685a29f4ca249be02,64bec98c14a17afde2154594,right,1,0.05,0.35,1,-0.003835365,0.5358,,,,,,168,0,168,0,1,,,,,
,,045369,001,2023-07-24_19h58.25.483,arm3_q,2022.2.5,Win32,61.73220569,612a736e7035ad7ceeef755e,64aeaab685a29f4ca249be02,64bec98c14a17afde2154594,right,1,0.05,0.35,1,0.009630332,0.2128,,,,,,169,0,169,0,1,,,,,
,,045369,001,2023-07-24_19h58.25.483,arm3_q,2022.2.5,Win32,61.73220569,612a736e7035ad7ceeef755e,64aeaab685a29f4ca249be02,64bec98c14a17afde2154594,right,1,0.05,0.35,1,-0.000182187,0.1666,,,,,,170,0,170,0,1,,,,,
,,045369,001,2023-07-24_19h58.25.483,arm3_q,2022.2.5,Win32,61.73220569,612a736e7035ad7ceeef755e,64aeaab685a29f4ca249be02,64bec98c14a17afde2154594,right,1,0.05,0.35,1,-0.019589646,0.158,,,,,,171,0,171,0,1,,,,,
,,045369,001,2023-07-24_19h58.25.483,arm3_q,2022.2.5,Win32,61.73220569,612a736e7035ad7ceeef755e,64aeaab685a29f4ca249be02,64bec98c14a17afde2154594,right,1,0.05,0.35,1,-0.018856775,0.1541,,,,,,172,0,172,0,1,,,,,
,,045369,001,2023-07-24_19h58.25.483,arm3_q,2022.2.5,Win32,61.73220569,612a736e7035ad7ceeef755e,64aeaab685a29f4ca249be02,64bec98c14a17afde2154594,right,1,0.05,0.35,1,-0.025286976,0.1498,,,,,,173,0,173,0,1,,,,,
,,045369,001,2023-07-24_19h58.25.483,arm3_q,2022.2.5,Win32,61.73220569,612a736e7035ad7ceeef755e,64aeaab685a29f4ca249be02,64bec98c14a17afde2154594,right,1,0.05,0.35,1,-0.003229821,0.1841,,,,,,174,0,174,0,1,,,,,
,,045369,001,2023-07-24_19h58.25.483,arm3_q,2022.2.5,Win32,61.73220569,612a736e7035ad7ceeef755e,64aeaab685a29f4ca249be02,64bec98c14a17afde2154594,right,1,0.05,0.35,1,0.010565454,0.1756,,,,,,175,0,175,0,1,,,,,
,,045369,001,2023-07-24_19h58.25.483,arm3_q,2022.2.5,Win32,61.73220569,612a736e7035ad7ceeef755e,64aeaab685a29f4ca249be02,64bec98c14a17afde2154594,right,1,0.05,0.35,1,0.032411721,0.1731,,,,,,176,0,176,0,1,,,,,
,,045369,001,2023-07-24_19h58.25.483,arm3_q,2022.2.5,Win32,61.73220569,612a736e7035ad7ceeef755e,64aeaab685a29f4ca249be02,64bec98c14a17afde2154594,right,1,0.05,0.35,1,0.035712986,0.1778,,,,,,177,0,177,0,1,,,,,
,,045369,001,2023-07-24_19h58.25.483,arm3_q,2022.2.5,Win32,61.73220569,612a736e7035ad7ceeef755e,64aeaab685a29f4ca249be02,64bec98c14a17afde2154594,right,1,0.05,0.35,1,0.031235708,0.2005,,,,,,178,0,178,0,1,,,,,
,,045369,001,2023-07-24_19h58.25.483,arm3_q,2022.2.5,Win32,61.73220569,612a736e7035ad7ceeef755e,64aeaab685a29f4ca249be02,64bec98c14a17afde2154594,right,1,0.05,0.35,1,0.00299068,0.2001,,,,,,179,0,179,0,1,,,,,
,,045369,001,2023-07-24_19h58.25.483,arm3_q,2022.2.5,Win32,61.73220569,612a736e7035ad7ceeef755e,64aeaab685a29f4ca249be02,64bec98c14a17afde2154594,down,1,0.05,0.35,1,0,1.3077,,,,,,180,0,180,0,1,,,,,
,,045369,001,2023-07-24_19h58.25.483,arm3_q,2022.2.5,Win32,61.73220569,612a736e7035ad7ceeef755e,64aeaab685a29f4ca249be02,64bec98c14a17afde2154594,right,1,0.05,0.35,1,-0.020884312,0.8196,,,,,,181,0,181,0,1,,,,,
,,045369,001,2023-07-24_19h58.25.483,arm3_q,2022.2.5,Win32,61.73220569,612a736e7035ad7ceeef755e,64aeaab685a29f4ca249be02,64bec98c14a17afde2154594,right,1,0.05,0.35,1,-0.040107841,0.2138,,,,,,182,0,182,0,1,,,,,
,,045369,001,2023-07-24_19h58.25.483,arm3_q,2022.2.5,Win32,61.73220569,612a736e7035ad7ceeef755e,64aeaab685a29f4ca249be02,64bec98c14a17afde2154594,right,1,0.05,0.35,1,-0.03699997,0.1781,,,,,,183,0,183,0,1,,,,,
,,045369,001,2023-07-24_19h58.25.483,arm3_q,2022.2.5,Win32,61.73220569,612a736e7035ad7ceeef755e,64aeaab685a29f4ca249be02,64bec98c14a17afde2154594,right,1,0.05,0.35,1,-0.028998029,0.1857,,,,,,184,0,184,0,1,,,,,
,,045369,001,2023-07-24_19h58.25.483,arm3_q,2022.2.5,Win32,61.73220569,612a736e7035ad7ceeef755e,64aeaab685a29f4ca249be02,64bec98c14a17afde2154594,right,1,0.05,0.35,1,0.024173733,0.2041,,,,,,185,0,185,0,1,,,,,
,,045369,001,2023-07-24_19h58.25.483,arm3_q,2022.2.5,Win32,61.73220569,612a736e7035ad7ceeef755e,64aeaab685a29f4ca249be02,64bec98c14a17afde2154594,right,1,0.05,0.35,1,0.022684861,0.2167,,,,,,186,0,186,0,1,,,,,
,,045369,001,2023-07-24_19h58.25.483,arm3_q,2022.2.5,Win32,61.73220569,612a736e7035ad7ceeef755e,64aeaab685a29f4ca249be02,64bec98c14a17afde2154594,right,1,0.05,0.35,1,0.040386027,0.2334,,,,,,187,0,187,0,1,,,,,
,,045369,001,2023-07-24_19h58.25.483,arm3_q,2022.2.5,Win32,61.73220569,612a736e7035ad7ceeef755e,64aeaab685a29f4ca249be02,64bec98c14a17afde2154594,right,1,0.05,0.35,1,0.043274516,0.2173,,,,,,188,0,188,0,1,,,,,
,,045369,001,2023-07-24_19h58.25.483,arm3_q,2022.2.5,Win32,61.73220569,612a736e7035ad7ceeef755e,64aeaab685a29f4ca249be02,64bec98c14a17afde2154594,right,1,0.05,0.35,1,0.054926433,0.1937,,,,,,189,0,189,0,1,,,,,
,,045369,001,2023-07-24_19h58.25.483,arm3_q,2022.2.5,Win32,61.73220569,612a736e7035ad7ceeef755e,64aeaab685a29f4ca249be02,64bec98c14a17afde2154594,right,1,0.05,0.35,1,0.069338151,0.1944,,,,,,190,0,190,0,1,,,,,
,,045369,001,2023-07-24_19h58.25.483,arm3_q,2022.2.5,Win32,61.73220569,612a736e7035ad7ceeef755e,64aeaab685a29f4ca249be02,64bec98c14a17afde2154594,right,1,0.05,0.35,1,0.077501597,0.2391,,,,,,191,0,191,0,1,,,,,
,,045369,001,2023-07-24_19h58.25.483,arm3_q,2022.2.5,Win32,61.73220569,612a736e7035ad7ceeef755e,64aeaab685a29f4ca249be02,64bec98c14a17afde2154594,up,1,0.05,0.35,1,0,0.1947,,,,,,192,0,192,0,1,,,,,
,,045369,001,2023-07-24_19h58.25.483,arm3_q,2022.2.5,Win32,61.73220569,612a736e7035ad7ceeef755e,64aeaab685a29f4ca249be02,64bec98c14a17afde2154594,right,1,0.05,0.35,1,0.001162974,0.5708,,,,,,193,0,193,0,1,,,,,
,,045369,001,2023-07-24_19h58.25.483,arm3_q,2022.2.5,Win32,61.73220569,612a736e7035ad7ceeef755e,64aeaab685a29f4ca249be02,64bec98c14a17afde2154594,right,1,0.05,0.35,1,0.012471276,23.4266,,,,,,194,0,194,0,1,,,,,
,,045369,001,2023-07-24_19h58.25.483,arm3_q,2022.2.5,Win32,61.73220569,612a736e7035ad7ceeef755e,64aeaab685a29f4ca249be02,64bec98c14a17afde2154594,right,1,0.05,0.35,1,0.00741319,0.1997,,,,,,195,0,195,0,1,,,,,
,,045369,001,2023-07-24_19h58.25.483,arm3_q,2022.2.5,Win32,61.73220569,612a736e7035ad7ceeef755e,64aeaab685a29f4ca249be02,64bec98c14a17afde2154594,right,1,0.05,0.35,1,0.021276796,0.1603,,,,,,196,0,196,0,1,,,,,
,,045369,001,2023-07-24_19h58.25.483,arm3_q,2022.2.5,Win32,61.73220569,612a736e7035ad7ceeef755e,64aeaab685a29f4ca249be02,64bec98c14a17afde2154594,right,1,0.05,0.35,1,0.033900679,0.1501,,,,,,197,0,197,0,1,,,,,
,,045369,001,2023-07-24_19h58.25.483,arm3_q,2022.2.5,Win32,61.73220569,612a736e7035ad7ceeef755e,64aeaab685a29f4ca249be02,64bec98c14a17afde2154594,right,1,0.05,0.35,1,0.047189874,0.1708,,,,,,198,0,198,0,1,,,,,
,,045369,001,2023-07-24_19h58.25.483,arm3_q,2022.2.5,Win32,61.73220569,612a736e7035ad7ceeef755e,64aeaab685a29f4ca249be02,64bec98c14a17afde2154594,right,1,0.05,0.35,1,0.095422667,0.1661,,,,,,199,0,199,0,1,,,,,
,,045369,001,2023-07-24_19h58.25.483,arm3_q,2022.2.5,Win32,61.73220569,612a736e7035ad7ceeef755e,64aeaab685a29f4ca249be02,64bec98c14a17afde2154594,right,1,0.05,0.35,1,0.078107752,0.1837,,,,,,200,0,200,0,1,,,,,
,,045369,001,2023-07-24_19h58.25.483,arm3_q,2022.2.5,Win32,61.73220569,612a736e7035ad7ceeef755e,64aeaab685a29f4ca249be02,64bec98c14a17afde2154594,up,1,0.05,0.35,1,0,0.3841,,,,,,201,0,201,0,1,,,,,
,,045369,001,2023-07-24_19h58.25.483,arm3_q,2022.2.5,Win32,61.73220569,612a736e7035ad7ceeef755e,64aeaab685a29f4ca249be02,64bec98c14a17afde2154594,right,1,0.05,0.35,1,0.000147382,0.6135,,,,,,202,0,202,0,1,,,,,
,,045369,001,2023-07-24_19h58.25.483,arm3_q,2022.2.5,Win32,61.73220569,612a736e7035ad7ceeef755e,64aeaab685a29f4ca249be02,64bec98c14a17afde2154594,right,1,0.05,0.35,1,0.013452952,0.2334,,,,,,203,0,203,0,1,,,,,
,,045369,001,2023-07-24_19h58.25.483,arm3_q,2022.2.5,Win32,61.73220569,612a736e7035ad7ceeef755e,64aeaab685a29f4ca249be02,64bec98c14a17afde2154594,right,1,0.05,0.35,1,0.007980285,0.1597,,,,,,204,0,204,0,1,,,,,
,,045369,001,2023-07-24_19h58.25.483,arm3_q,2022.2.5,Win32,61.73220569,612a736e7035ad7ceeef755e,64aeaab685a29f4ca249be02,64bec98c14a17afde2154594,right,1,0.05,0.35,1,-0.008676171,0.1631,,,,,,205,0,205,0,1,,,,,
,,045369,001,2023-07-24_19h58.25.483,arm3_q,2022.2.5,Win32,61.73220569,612a736e7035ad7ceeef755e,64aeaab685a29f4ca249be02,64bec98c14a17afde2154594,right,1,0.05,0.35,1,-0.001866962,0.1628,,,,,,206,0,206,0,1,,,,,
,,045369,001,2023-07-24_19h58.25.483,arm3_q,2022.2.5,Win32,61.73220569,612a736e7035ad7ceeef755e,64aeaab685a29f4ca249be02,64bec98c14a17afde2154594,right,1,0.05,0.35,1,0.008688041,0.1687,,,,,,207,0,207,0,1,,,,,
,,045369,001,2023-07-24_19h58.25.483,arm3_q,2022.2.5,Win32,61.73220569,612a736e7035ad7ceeef755e,64aeaab685a29f4ca249be02,64bec98c14a17afde2154594,right,1,0.05,0.35,1,0.03152535,0.1568,,,,,,208,0,208,0,1,,,,,
,,045369,001,2023-07-24_19h58.25.483,arm3_q,2022.2.5,Win32,61.73220569,612a736e7035ad7ceeef755e,64aeaab685a29f4ca249be02,64bec98c14a17afde2154594,right,1,0.05,0.35,1,0.010981512,0.2667,,,,,,209,0,209,0,1,,,,,
,,045369,001,2023-07-24_19h58.25.483,arm3_q,2022.2.5,Win32,61.73220569,612a736e7035ad7ceeef755e,64aeaab685a29f4ca249be02,64bec98c14a17afde2154594,right,1,0.05,0.35,1,0.028933936,0.268,,,,,,210,0,210,0,1,,,,,
,,045369,001,2023-07-24_19h58.25.483,arm3_q,2022.2.5,Win32,61.73220569,612a736e7035ad7ceeef755e,64aeaab685a29f4ca249be02,64bec98c14a17afde2154594,right,1,0.05,0.35,1,0.046959865,0.2515,,,,,,211,0,211,0,1,,,,,
,,045369,001,2023-07-24_19h58.25.483,arm3_q,2022.2.5,Win32,61.73220569,612a736e7035ad7ceeef755e,64aeaab685a29f4ca249be02,64bec98c14a17afde2154594,right,1,0.05,0.35,1,0.060339767,0.2507,,,,,,212,0,212,0,1,,,,,
,,045369,001,2023-07-24_19h58.25.483,arm3_q,2022.2.5,Win32,61.73220569,612a736e7035ad7ceeef755e,64aeaab685a29f4ca249be02,64bec98c14a17afde2154594,right,1,0.05,0.35,1,0.049287551,0.2352,,,,,,213,0,213,0,1,,,,,
,,045369,001,2023-07-24_19h58.25.483,arm3_q,2022.2.5,Win32,61.73220569,612a736e7035ad7ceeef755e,64aeaab685a29f4ca249be02,64bec98c14a17afde2154594,down,-1,0.05,0.35,1,0,1.5168,,,,,,214,0,214,0,1,,,,,
,,045369,001,2023-07-24_19h58.25.483,arm3_q,2022.2.5,Win32,61.73220569,612a736e7035ad7ceeef755e,64aeaab685a29f4ca249be02,64bec98c14a17afde2154594,right,-1,0.05,0.35,1,-0.011453417,0.6297,,,,,,215,0,215,0,1,,,,,
,,045369,001,2023-07-24_19h58.25.483,arm3_q,2022.2.5,Win32,61.73220569,612a736e7035ad7ceeef755e,64aeaab685a29f4ca249be02,64bec98c14a17afde2154594,right,-1,0.05,0.35,1,-0.028827185,0.2622,,,,,,216,0,216,0,1,,,,,
,,045369,001,2023-07-24_19h58.25.483,arm3_q,2022.2.5,Win32,61.73220569,612a736e7035ad7ceeef755e,64aeaab685a29f4ca249be02,64bec98c14a17afde2154594,right,-1,0.05,0.35,1,-0.026487036,0.1787,,,,,,217,0,217,0,1,,,,,
,,045369,001,2023-07-24_19h58.25.483,arm3_q,2022.2.5,Win32,61.73220569,612a736e7035ad7ceeef755e,64aeaab685a29f4ca249be02,64bec98c14a17afde2154594,right,-1,0.05,0.35,1,-0.049451203,0.1969,,,,,,218,0,218,0,1,,,,,
,,045369,001,2023-07-24_19h58.25.483,arm3_q,2022.2.5,Win32,61.73220569,612a736e7035ad7ceeef755e,64aeaab685a29f4ca249be02,64bec98c14a17afde2154594,right,-1,0.05,0.35,1,-0.07578863,0.2006,,,,,,219,0,219,0,1,,,,,
,,045369,001,2023-07-24_19h58.25.483,arm3_q,2022.2.5,Win32,61.73220569,612a736e7035ad7ceeef755e,64aeaab685a29f4ca249be02,64bec98c14a17afde2154594,right,-1,0.05,0.35,1,-0.092658585,0.1849,,,,,,220,0,220,0,1,,,,,
,,045369,001,2023-07-24_19h58.25.483,arm3_q,2022.2.5,Win32,61.73220569,612a736e7035ad7ceeef755e,64aeaab685a29f4ca249be02,64bec98c14a17afde2154594,right,-1,0.05,0.35,1,-0.09421525,0.2032,,,,,,221,0,221,0,1,,,,,
,,045369,001,2023-07-24_19h58.25.483,arm3_q,2022.2.5,Win32,61.73220569,612a736e7035ad7ceeef755e,64aeaab685a29f4ca249be02,64bec98c14a17afde2154594,right,-1,0.05,0.35,1,-0.128316755,0.2176,,,,,,222,0,222,0,1,,,,,
,,045369,001,2023-07-24_19h58.25.483,arm3_q,2022.2.5,Win32,61.73220569,612a736e7035ad7ceeef755e,64aeaab685a29f4ca249be02,64bec98c14a17afde2154594,right,-1,0.05,0.35,1,-0.146472348,0.2357,,,,,,223,0,223,0,1,,,,,
,,045369,001,2023-07-24_19h58.25.483,arm3_q,2022.2.5,Win32,61.73220569,612a736e7035ad7ceeef755e,64aeaab685a29f4ca249be02,64bec98c14a17afde2154594,right,-1,0.05,0.35,1,-0.158051006,0.3005,,,,,,224,0,224,0,1,,,,,
,,045369,001,2023-07-24_19h58.25.483,arm3_q,2022.2.5,Win32,61.73220569,612a736e7035ad7ceeef755e,64aeaab685a29f4ca249be02,64bec98c14a17afde2154594,down,1,0.05,0.35,1,0,0.4009,,,,,,225,0,225,0,1,,,,,
,,045369,001,2023-07-24_19h58.25.483,arm3_q,2022.2.5,Win32,61.73220569,612a736e7035ad7ceeef755e,64aeaab685a29f4ca249be02,64bec98c14a17afde2154594,right,1,0.05,0.35,1,0.000899649,0.6674,,,,,,226,0,226,0,1,,,,,
,,045369,001,2023-07-24_19h58.25.483,arm3_q,2022.2.5,Win32,61.73220569,612a736e7035ad7ceeef755e,64aeaab685a29f4ca249be02,64bec98c14a17afde2154594,right,1,0.05,0.35,1,0.012188407,0.1846,,,,,,227,0,227,0,1,,,,,
,,045369,001,2023-07-24_19h58.25.483,arm3_q,2022.2.5,Win32,61.73220569,612a736e7035ad7ceeef755e,64aeaab685a29f4ca249be02,64bec98c14a17afde2154594,right,1,0.05,0.35,1,0.027242837,0.1612,,,,,,228,0,228,0,1,,,,,
,,045369,001,2023-07-24_19h58.25.483,arm3_q,2022.2.5,Win32,61.73220569,612a736e7035ad7ceeef755e,64aeaab685a29f4ca249be02,64bec98c14a17afde2154594,right,1,0.05,0.35,1,0.024082839,0.1838,,,,,,229,0,229,0,1,,,,,
,,045369,001,2023-07-24_19h58.25.483,arm3_q,2022.2.5,Win32,61.73220569,612a736e7035ad7ceeef755e,64aeaab685a29f4ca249be02,64bec98c14a17afde2154594,right,1,0.05,0.35,1,0.039451713,0.1668,,,,,,230,0,230,0,1,,,,,
,,045369,001,2023-07-24_19h58.25.483,arm3_q,2022.2.5,Win32,61.73220569,612a736e7035ad7ceeef755e,64aeaab685a29f4ca249be02,64bec98c14a17afde2154594,right,1,0.05,0.35,1,0.028619932,0.1744,,,,,,231,0,231,0,1,,,,,
,,045369,001,2023-07-24_19h58.25.483,arm3_q,2022.2.5,Win32,61.73220569,612a736e7035ad7ceeef755e,64aeaab685a29f4ca249be02,64bec98c14a17afde2154594,right,1,0.05,0.35,1,0.048979414,0.1836,,,,,,232,0,232,0,1,,,,,
,,045369,001,2023-07-24_19h58.25.483,arm3_q,2022.2.5,Win32,61.73220569,612a736e7035ad7ceeef755e,64aeaab685a29f4ca249be02,64bec98c14a17afde2154594,right,1,0.05,0.35,1,0.062314598,0.1736,,,,,,233,0,233,0,1,,,,,
,,045369,001,2023-07-24_19h58.25.483,arm3_q,2022.2.5,Win32,61.73220569,612a736e7035ad7ceeef755e,64aeaab685a29f4ca249be02,64bec98c14a17afde2154594,right,1,0.05,0.35,1,0.066233984,0.1836,,,,,,234,0,234,0,1,,,,,
,,045369,001,2023-07-24_19h58.25.483,arm3_q,2022.2.5,Win32,61.73220569,612a736e7035ad7ceeef755e,64aeaab685a29f4ca249be02,64bec98c14a17afde2154594,right,1,0.05,0.35,1,0.065725325,0.2165,,,,,,235,0,235,0,1,,,,,
,,045369,001,2023-07-24_19h58.25.483,arm3_q,2022.2.5,Win32,61.73220569,612a736e7035ad7ceeef755e,64aeaab685a29f4ca249be02,64bec98c14a17afde2154594,right,1,0.05,0.35,1,0.070378824,0.3281,,,,,,236,0,236,0,1,,,,,
,,045369,001,2023-07-24_19h58.25.483,arm3_q,2022.2.5,Win32,61.73220569,612a736e7035ad7ceeef755e,64aeaab685a29f4ca249be02,64bec98c14a17afde2154594,right,1,0.05,0.35,1,0.070909224,0.6398,,,,,,237,0,237,0,1,,,,,
,,045369,001,2023-07-24_19h58.25.483,arm3_q,2022.2.5,Win32,61.73220569,612a736e7035ad7ceeef755e,64aeaab685a29f4ca249be02,64bec98c14a17afde2154594,up,1,0.05,0.35,1,0,1.6162,,,,,,238,0,238,0,1,,,,,
,,045369,001,2023-07-24_19h58.25.483,arm3_q,2022.2.5,Win32,61.73220569,612a736e7035ad7ceeef755e,64aeaab685a29f4ca249be02,64bec98c14a17afde2154594,right,1,0.05,0.35,1,0.0229522,0.5537,,,,,,239,0,239,0,1,,,,,
,,045369,001,2023-07-24_19h58.25.483,arm3_q,2022.2.5,Win32,61.73220569,612a736e7035ad7ceeef755e,64aeaab685a29f4ca249be02,64bec98c14a17afde2154594,right,1,0.05,0.35,1,0.026255289,0.2831,,,,,,240,0,240,0,1,,,,,
,,045369,001,2023-07-24_19h58.25.483,arm3_q,2022.2.5,Win32,61.73220569,612a736e7035ad7ceeef755e,64aeaab685a29f4ca249be02,64bec98c14a17afde2154594,right,1,0.05,0.35,1,0.020552015,0.1834,,,,,,241,0,241,0,1,,,,,
,,045369,001,2023-07-24_19h58.25.483,arm3_q,2022.2.5,Win32,61.73220569,612a736e7035ad7ceeef755e,64aeaab685a29f4ca249be02,64bec98c14a17afde2154594,right,1,0.05,0.35,1,0.020386555,0.2038,,,,,,242,0,242,0,1,,,,,
,,045369,001,2023-07-24_19h58.25.483,arm3_q,2022.2.5,Win32,61.73220569,612a736e7035ad7ceeef755e,64aeaab685a29f4ca249be02,64bec98c14a17afde2154594,right,1,0.05,0.35,1,0.02557864,0.2334,,,,,,243,0,243,0,1,,,,,
,,045369,001,2023-07-24_19h58.25.483,arm3_q,2022.2.5,Win32,61.73220569,612a736e7035ad7ceeef755e,64aeaab685a29f4ca249be02,64bec98c14a17afde2154594,right,1,0.05,0.35,1,0.044174724,0.1959,,,,,,244,0,244,0,1,,,,,
,,045369,001,2023-07-24_19h58.25.483,arm3_q,2022.2.5,Win32,61.73220569,612a736e7035ad7ceeef755e,64aeaab685a29f4ca249be02,64bec98c14a17afde2154594,right,1,0.05,0.35,1,0.045968068,0.2166,,,,,,245,0,245,0,1,,,,,
,,045369,001,2023-07-24_19h58.25.483,arm3_q,2022.2.5,Win32,61.73220569,612a736e7035ad7ceeef755e,64aeaab685a29f4ca249be02,64bec98c14a17afde2154594,right,1,0.05,0.35,1,0.038668651,0.1736,,,,,,246,0,246,0,1,,,,,
,,045369,001,2023-07-24_19h58.25.483,arm3_q,2022.2.5,Win32,61.73220569,612a736e7035ad7ceeef755e,64aeaab685a29f4ca249be02,64bec98c14a17afde2154594,right,1,0.05,0.35,1,0.023519782,0.174,,,,,,247,0,247,0,1,,,,,
,,045369,001,2023-07-24_19h58.25.483,arm3_q,2022.2.5,Win32,61.73220569,612a736e7035ad7ceeef755e,64aeaab685a29f4ca249be02,64bec98c14a17afde2154594,right,1,0.05,0.35,1,-0.015733507,0.1998,,,,,,248,0,248,0,1,,,,,
,,045369,001,2023-07-24_19h58.25.483,arm3_q,2022.2.5,Win32,61.73220569,612a736e7035ad7ceeef755e,64aeaab685a29f4ca249be02,64bec98c14a17afde2154594,right,1,0.05,0.35,1,-0.025169368,0.3162,,,,,,249,0,249,0,1,,,,,
,,045369,001,2023-07-24_19h58.25.483,arm3_q,2022.2.5,Win32,61.73220569,612a736e7035ad7ceeef755e,64aeaab685a29f4ca249be02,64bec98c14a17afde2154594,right,1,0.05,0.35,1,0.008382269,0.2831,,,,,,250,0,250,0,1,,,,,
,,045369,001,2023-07-24_19h58.25.483,arm3_q,2022.2.5,Win32,61.73220569,612a736e7035ad7ceeef755e,64aeaab685a29f4ca249be02,64bec98c14a17afde2154594,up,-1,0.05,0.35,1,0,0.5835,,,,,,251,0,251,0,1,,,,,
,,045369,001,2023-07-24_19h58.25.483,arm3_q,2022.2.5,Win32,61.73220569,612a736e7035ad7ceeef755e,64aeaab685a29f4ca249be02,64bec98c14a17afde2154594,right,-1,0.05,0.35,1,-0.023772735,0.4303,,,,,,252,0,252,0,1,,,,,
,,045369,001,2023-07-24_19h58.25.483,arm3_q,2022.2.5,Win32,61.73220569,612a736e7035ad7ceeef755e,64aeaab685a29f4ca249be02,64bec98c14a17afde2154594,right,-1,0.05,0.35,1,-0.065887493,0.2081,,,,,,253,0,253,0,1,,,,,
,,045369,001,2023-07-24_19h58.25.483,arm3_q,2022.2.5,Win32,61.73220569,612a736e7035ad7ceeef755e,64aeaab685a29f4ca249be02,64bec98c14a17afde2154594,right,-1,0.05,0.35,1,-0.098423233,0.1772,,,,,,254,0,254,0,1,,,,,
,,045369,001,2023-07-24_19h58.25.483,arm3_q,2022.2.5,Win32,61.73220569,612a736e7035ad7ceeef755e,64aeaab685a29f4ca249be02,64bec98c14a17afde2154594,right,-1,0.05,0.35,1,-0.137763494,0.1752,,,,,,255,0,255,0,1,,,,,
,,045369,001,2023-07-24_19h58.25.483,arm3_q,2022.2.5,Win32,61.73220569,612a736e7035ad7ceeef755e,64aeaab685a29f4ca249be02,64bec98c14a17afde2154594,right,-1,0.05,0.35,1,-0.146987101,0.1832,,,,,,256,0,256,0,1,,,,,
,,045369,001,2023-07-24_19h58.25.483,arm3_q,2022.2.5,Win32,61.73220569,612a736e7035ad7ceeef755e,64aeaab685a29f4ca249be02,64bec98c14a17afde2154594,right,-1,0.05,0.35,1,-0.131612547,0.2287,,,,,,257,0,257,0,1,,,,,
,,045369,001,2023-07-24_19h58.25.483,arm3_q,2022.2.5,Win32,61.73220569,612a736e7035ad7ceeef755e,64aeaab685a29f4ca249be02,64bec98c14a17afde2154594,right,-1,0.05,0.35,1,-0.173362603,0.2026,,,,,,258,0,258,0,1,,,,,
,,045369,001,2023-07-24_19h58.25.483,arm3_q,2022.2.5,Win32,61.73220569,612a736e7035ad7ceeef755e,64aeaab685a29f4ca249be02,64bec98c14a17afde2154594,right,-1,0.05,0.35,1,-0.159679084,0.2166,,,,,,259,0,259,0,1,,,,,
,,045369,001,2023-07-24_19h58.25.483,arm3_q,2022.2.5,Win32,61.73220569,612a736e7035ad7ceeef755e,64aeaab685a29f4ca249be02,64bec98c14a17afde2154594,right,-1,0.05,0.35,1,-0.165589333,0.2224,,,,,,260,0,260,0,1,,,,,
,,045369,001,2023-07-24_19h58.25.483,arm3_q,2022.2.5,Win32,61.73220569,612a736e7035ad7ceeef755e,64aeaab685a29f4ca249be02,64bec98c14a17afde2154594,right,-1,0.05,0.35,1,-0.151555407,0.3395,,,,,,261,0,261,0,1,,,,,
,,045369,001,2023-07-24_19h58.25.483,arm3_q,2022.2.5,Win32,61.73220569,612a736e7035ad7ceeef755e,64aeaab685a29f4ca249be02,64bec98c14a17afde2154594,down,-1,0.05,0.35,1,0,0.4765,,,,,,262,0,262,0,1,,,,,
,,045369,001,2023-07-24_19h58.25.483,arm3_q,2022.2.5,Win32,61.73220569,612a736e7035ad7ceeef755e,64aeaab685a29f4ca249be02,64bec98c14a17afde2154594,down,-1,0.05,0.35,1,0,0.5844,,,,,,263,0,263,0,1,,,,,
,,045369,001,2023-07-24_19h58.25.483,arm3_q,2022.2.5,Win32,61.73220569,612a736e7035ad7ceeef755e,64aeaab685a29f4ca249be02,64bec98c14a17afde2154594,right,-1,0.05,0.35,1,0.011585118,0.7674,,,,,,264,0,264,0,1,,,,,
,,045369,001,2023-07-24_19h58.25.483,arm3_q,2022.2.5,Win32,61.73220569,612a736e7035ad7ceeef755e,64aeaab685a29f4ca249be02,64bec98c14a17afde2154594,right,-1,0.05,0.35,1,0.018957387,0.2205,,,,,,265,0,265,0,1,,,,,
,,045369,001,2023-07-24_19h58.25.483,arm3_q,2022.2.5,Win32,61.73220569,612a736e7035ad7ceeef755e,64aeaab685a29f4ca249be02,64bec98c14a17afde2154594,right,-1,0.05,0.35,1,0.016854998,0.1667,,,,,,266,0,266,0,1,,,,,
,,045369,001,2023-07-24_19h58.25.483,arm3_q,2022.2.5,Win32,61.73220569,612a736e7035ad7ceeef755e,64aeaab685a29f4ca249be02,64bec98c14a17afde2154594,right,-1,0.05,0.35,1,0.040783197,0.1683,,,,,,267,0,267,0,1,,,,,
,,045369,001,2023-07-24_19h58.25.483,arm3_q,2022.2.5,Win32,61.73220569,612a736e7035ad7ceeef755e,64aeaab685a29f4ca249be02,64bec98c14a17afde2154594,right,-1,0.05,0.35,1,0.025233566,0.1688,,,,,,268,0,268,0,1,,,,,
,,045369,001,2023-07-24_19h58.25.483,arm3_q,2022.2.5,Win32,61.73220569,612a736e7035ad7ceeef755e,64aeaab685a29f4ca249be02,64bec98c14a17afde2154594,right,-1,0.05,0.35,1,0.015358024,0.1761,,,,,,269,0,269,0,1,,,,,
,,045369,001,2023-07-24_19h58.25.483,arm3_q,2022.2.5,Win32,61.73220569,612a736e7035ad7ceeef755e,64aeaab685a29f4ca249be02,64bec98c14a17afde2154594,right,-1,0.05,0.35,1,0.004482037,0.2003,,,,,,270,0,270,0,1,,,,,
,,045369,001,2023-07-24_19h58.25.483,arm3_q,2022.2.5,Win32,61.73220569,612a736e7035ad7ceeef755e,64aeaab685a29f4ca249be02,64bec98c14a17afde2154594,right,-1,0.05,0.35,1,0.014857258,0.1715,,,,,,271,0,271,0,1,,,,,
,,045369,001,2023-07-24_19h58.25.483,arm3_q,2022.2.5,Win32,61.73220569,612a736e7035ad7ceeef755e,64aeaab685a29f4ca249be02,64bec98c14a17afde2154594,right,-1,0.05,0.35,1,-0.023704405,0.1802,,,,,,272,0,272,0,1,,,,,
,,045369,001,2023-07-24_19h58.25.483,arm3_q,2022.2.5,Win32,61.73220569,612a736e7035ad7ceeef755e,64aeaab685a29f4ca249be02,64bec98c14a17afde2154594,right,-1,0.05,0.35,1,-0.018432192,0.2,,,,,,273,0,273,0,1,,,,,
,,045369,001,2023-07-24_19h58.25.483,arm3_q,2022.2.5,Win32,61.73220569,612a736e7035ad7ceeef755e,64aeaab685a29f4ca249be02,64bec98c14a17afde2154594,right,-1,0.05,0.35,1,-0.034925932,0.1802,,,,,,274,0,274,0,1,,,,,
,,045369,001,2023-07-24_19h58.25.483,arm3_q,2022.2.5,Win32,61.73220569,612a736e7035ad7ceeef755e,64aeaab685a29f4ca249be02,64bec98c14a17afde2154594,right,-1,0.05,0.35,1,-0.053809395,0.3524,,,,,,275,0,275,0,1,,,,,
,,045369,001,2023-07-24_19h58.25.483,arm3_q,2022.2.5,Win32,61.73220569,612a736e7035ad7ceeef755e,64aeaab685a29f4ca249be02,64bec98c14a17afde2154594,down,-1,0.05,0.35,1,0,0.3224,,,,,,276,0,276,0,1,,,,,
,,045369,001,2023-07-24_19h58.25.483,arm3_q,2022.2.5,Win32,61.73220569,612a736e7035ad7ceeef755e,64aeaab685a29f4ca249be02,64bec98c14a17afde2154594,right,-1,0.05,0.35,1,-0.00819431,0.4785,,,,,,277,0,277,0,1,,,,,
,,045369,001,2023-07-24_19h58.25.483,arm3_q,2022.2.5,Win32,61.73220569,612a736e7035ad7ceeef755e,64aeaab685a29f4ca249be02,64bec98c14a17afde2154594,right,-1,0.05,0.35,1,-0.024103891,0.2,,,,,,278,0,278,0,1,,,,,
,,045369,001,2023-07-24_19h58.25.483,arm3_q,2022.2.5,Win32,61.73220569,612a736e7035ad7ceeef755e,64aeaab685a29f4ca249be02,64bec98c14a17afde2154594,right,-1,0.05,0.35,1,-0.033604448,0.1837,,,,,,279,0,279,0,1,,,,,
,,045369,001,2023-07-24_19h58.25.483,arm3_q,2022.2.5,Win32,61.73220569,612a736e7035ad7ceeef755e,64aeaab685a29f4ca249be02,64bec98c14a17afde2154594,right,-1,0.05,0.35,1,-0.022478442,0.1615,,,,,,280,0,280,0,1,,,,,
,,045369,001,2023-07-24_19h58.25.483,arm3_q,2022.2.5,Win32,61.73220569,612a736e7035ad7ceeef755e,64aeaab685a29f4ca249be02,64bec98c14a17afde2154594,right,-1,0.05,0.35,1,-0.015491834,0.1973,,,,,,281,0,281,0,1,,,,,
,,045369,001,2023-07-24_19h58.25.483,arm3_q,2022.2.5,Win32,61.73220569,612a736e7035ad7ceeef755e,64aeaab685a29f4ca249be02,64bec98c14a17afde2154594,right,-1,0.05,0.35,1,-0.033850891,0.1593,,,,,,282,0,282,0,1,,,,,
,,045369,001,2023-07-24_19h58.25.483,arm3_q,2022.2.5,Win32,61.73220569,612a736e7035ad7ceeef755e,64aeaab685a29f4ca249be02,64bec98c14a17afde2154594,right,-1,0.05,0.35,1,-0.038485884,0.1707,,,,,,283,0,283,0,1,,,,,
,,045369,001,2023-07-24_19h58.25.483,arm3_q,2022.2.5,Win32,61.73220569,612a736e7035ad7ceeef755e,64aeaab685a29f4ca249be02,64bec98c14a17afde2154594,right,-1,0.05,0.35,1,-0.044783297,0.1492,,,,,,284,0,284,0,1,,,,,
,,045369,001,2023-07-24_19h58.25.483,arm3_q,2022.2.5,Win32,61.73220569,612a736e7035ad7ceeef755e,64aeaab685a29f4ca249be02,64bec98c14a17afde2154594,right,-1,0.05,0.35,1,-0.065824629,0.3006,,,,,,285,0,285,0,1,,,,,
,,045369,001,2023-07-24_19h58.25.483,arm3_q,2022.2.5,Win32,61.73220569,612a736e7035ad7ceeef755e,64aeaab685a29f4ca249be02,64bec98c14a17afde2154594,right,-1,0.05,0.35,1,-0.083295877,0.1746,,,,,,286,0,286,0,1,,,,,
,,045369,001,2023-07-24_19h58.25.483,arm3_q,2022.2.5,Win32,61.73220569,612a736e7035ad7ceeef755e,64aeaab685a29f4ca249be02,64bec98c14a17afde2154594,right,-1,0.05,0.35,1,-0.073479481,0.4695,,,,,,287,0,287,0,1,,,,,
,,045369,001,2023-07-24_19h58.25.483,arm3_q,2022.2.5,Win32,61.73220569,612a736e7035ad7ceeef755e,64aeaab685a29f4ca249be02,64bec98c14a17afde2154594,right,-1,0.05,0.35,1,-0.085460014,0.1999,,,,,,288,0,288,0,1,,,,,
,,045369,001,2023-07-24_19h58.25.483,arm3_q,2022.2.5,Win32,61.73220569,612a736e7035ad7ceeef755e,64aeaab685a29f4ca249be02,64bec98c14a17afde2154594,down,1,0.05,0.35,1,0,1.9005,,,,,,289,0,289,0,1,,,,,
,,045369,001,2023-07-24_19h58.25.483,arm3_q,2022.2.5,Win32,61.73220569,612a736e7035ad7ceeef755e,64aeaab685a29f4ca249be02,64bec98c14a17afde2154594,right,1,0.05,0.35,1,-0.001582907,0.6236,,,,,,290,0,290,0,1,,,,,
,,045369,001,2023-07-24_19h58.25.483,arm3_q,2022.2.5,Win32,61.73220569,612a736e7035ad7ceeef755e,64aeaab685a29f4ca249be02,64bec98c14a17afde2154594,right,1,0.05,0.35,1,0.004551893,0.184,,,,,,291,0,291,0,1,,,,,
,,045369,001,2023-07-24_19h58.25.483,arm3_q,2022.2.5,Win32,61.73220569,612a736e7035ad7ceeef755e,64aeaab685a29f4ca249be02,64bec98c14a17afde2154594,right,1,0.05,0.35,1,0.034775661,0.1624,,,,,,292,0,292,0,1,,,,,
,,045369,001,2023-07-24_19h58.25.483,arm3_q,2022.2.5,Win32,61.73220569,612a736e7035ad7ceeef755e,64aeaab685a29f4ca249be02,64bec98c14a17afde2154594,right,1,0.05,0.35,1,0.069157101,0.1666,,,,,,293,0,293,0,1,,,,,
,,045369,001,2023-07-24_19h58.25.483,arm3_q,2022.2.5,Win32,61.73220569,612a736e7035ad7ceeef755e,64aeaab685a29f4ca249be02,64bec98c14a17afde2154594,right,1,0.05,0.35,1,0.110647012,0.1879,,,,,,294,0,294,0,1,,,,,
,,045369,001,2023-07-24_19h58.25.483,arm3_q,2022.2.5,Win32,61.73220569,612a736e7035ad7ceeef755e,64aeaab685a29f4ca249be02,64bec98c14a17afde2154594,right,1,0.05,0.35,1,0.101967416,0.1762,,,,,,295,0,295,0,1,,,,,
,,045369,001,2023-07-24_19h58.25.483,arm3_q,2022.2.5,Win32,61.73220569,612a736e7035ad7ceeef755e,64aeaab685a29f4ca249be02,64bec98c14a17afde2154594,right,1,0.05,0.35,1,0.109313087,0.2164,,,,,,296,0,296,0,1,,,,,
,,045369,001,2023-07-24_19h58.25.483,arm3_q,2022.2.5,Win32,61.73220569,612a736e7035ad7ceeef755e,64aeaab685a29f4ca249be02,64bec98c14a17afde2154594,right,1,0.05,0.35,1,0.139851954,0.1838,,,,,,297,0,297,0,1,,,,,
,,045369,001,2023-07-24_19h58.25.483,arm3_q,2022.2.5,Win32,61.73220569,612a736e7035ad7ceeef755e,64aeaab685a29f4ca249be02,64bec98c14a17afde2154594,right,1,0.05,0.35,1,0.131121665,0.1835,,,,,,298,0,298,0,1,,,,,
,,045369,001,2023-07-24_19h58.25.483,arm3_q,2022.2.5,Win32,61.73220569,612a736e7035ad7ceeef755e,64aeaab685a29f4ca249be02,64bec98c14a17afde2154594,right,1,0.05,0.35,1,0.10872097,0.1799,,,,,,299,0,299,0,1,,,,,
,,045369,001,2023-07-24_19h58.25.483,arm3_q,2022.2.5,Win32,61.73220569,612a736e7035ad7ceeef755e,64aeaab685a29f4ca249be02,64bec98c14a17afde2154594,right,1,0.05,0.35,1,0.128997968,0.2175,,,,,,300,0,300,0,1,,,,,
,,045369,001,2023-07-24_19h58.25.483,arm3_q,2022.2.5,Win32,61.73220569,612a736e7035ad7ceeef755e,64aeaab685a29f4ca249be02,64bec98c14a17afde2154594,right,1,0.05,0.35,1,0.122303197,0.337,,,,,,301,0,301,0,1,,,,,
,,045369,001,2023-07-24_19h58.25.483,arm3_q,2022.2.5,Win32,61.73220569,612a736e7035ad7ceeef755e,64aeaab685a29f4ca249be02,64bec98c14a17afde2154594,up,1,0.05,0.35,1,0,1.6724,,,,,,302,0,302,0,1,,,,,
,,045369,001,2023-07-24_19h58.25.483,arm3_q,2022.2.5,Win32,61.73220569,612a736e7035ad7ceeef755e,64aeaab685a29f4ca249be02,64bec98c14a17afde2154594,right,1,0.05,0.35,1,0.027814625,0.6666,,,,,,303,0,303,0,1,,,,,
,,045369,001,2023-07-24_19h58.25.483,arm3_q,2022.2.5,Win32,61.73220569,612a736e7035ad7ceeef755e,64aeaab685a29f4ca249be02,64bec98c14a17afde2154594,right,1,0.05,0.35,1,0.032868029,0.2499,,,,,,304,0,304,0,1,,,,,
,,045369,001,2023-07-24_19h58.25.483,arm3_q,2022.2.5,Win32,61.73220569,612a736e7035ad7ceeef755e,64aeaab685a29f4ca249be02,64bec98c14a17afde2154594,right,1,0.05,0.35,1,0.05592568,0.2167,,,,,,305,0,305,0,1,,,,,
,,045369,001,2023-07-24_19h58.25.483,arm3_q,2022.2.5,Win32,61.73220569,612a736e7035ad7ceeef755e,64aeaab685a29f4ca249be02,64bec98c14a17afde2154594,right,1,0.05,0.35,1,0.06932137,0.1957,,,,,,306,0,306,0,1,,,,,
,,045369,001,2023-07-24_19h58.25.483,arm3_q,2022.2.5,Win32,61.73220569,612a736e7035ad7ceeef755e,64aeaab685a29f4ca249be02,64bec98c14a17afde2154594,right,1,0.05,0.35,1,0.069124516,0.2495,,,,,,307,0,307,0,1,,,,,
,,045369,001,2023-07-24_19h58.25.483,arm3_q,2022.2.5,Win32,61.73220569,612a736e7035ad7ceeef755e,64aeaab685a29f4ca249be02,64bec98c14a17afde2154594,right,1,0.05,0.35,1,0.055361919,0.2339,,,,,,308,0,308,0,1,,,,,
,,045369,001,2023-07-24_19h58.25.483,arm3_q,2022.2.5,Win32,61.73220569,612a736e7035ad7ceeef755e,64aeaab685a29f4ca249be02,64bec98c14a17afde2154594,right,1,0.05,0.35,1,0.050117452,0.3026,,,,,,309,0,309,0,1,,,,,
,,045369,001,2023-07-24_19h58.25.483,arm3_q,2022.2.5,Win32,61.73220569,612a736e7035ad7ceeef755e,64aeaab685a29f4ca249be02,64bec98c14a17afde2154594,right,1,0.05,0.35,1,0.047575607,0.3671,,,,,,310,0,310,0,1,,,,,
,,045369,001,2023-07-24_19h58.25.483,arm3_q,2022.2.5,Win32,61.73220569,612a736e7035ad7ceeef755e,64aeaab685a29f4ca249be02,64bec98c14a17afde2154594,right,1,0.05,0.35,1,0.099251187,0.6764,,,,,,311,0,311,0,1,,,,,
,,045369,001,2023-07-24_19h58.25.483,arm3_q,2022.2.5,Win32,61.73220569,612a736e7035ad7ceeef755e,64aeaab685a29f4ca249be02,64bec98c14a17afde2154594,right,1,0.05,0.35,1,0.102341896,0.3709,,,,,,312,0,312,0,1,,,,,
,,045369,001,2023-07-24_19h58.25.483,arm3_q,2022.2.5,Win32,61.73220569,612a736e7035ad7ceeef755e,64aeaab685a29f4ca249be02,64bec98c14a17afde2154594,right,1,0.05,0.35,1,0.090088775,0.5189,,,,,,313,0,313,0,1,,,,,
,,045369,001,2023-07-24_19h58.25.483,arm3_q,2022.2.5,Win32,61.73220569,612a736e7035ad7ceeef755e,64aeaab685a29f4ca249be02,64bec98c14a17afde2154594,up,1,0.05,0.35,1,0,0.7292,,,,,,314,0,314,0,1,,,,,
,,045369,001,2023-07-24_19h58.25.483,arm3_q,2022.2.5,Win32,61.73220569,612a736e7035ad7ceeef755e,64aeaab685a29f4ca249be02,64bec98c14a17afde2154594,right,1,0.05,0.35,1,0.025097964,0.467,,,,,,315,0,315,0,1,,,,,
,,045369,001,2023-07-24_19h58.25.483,arm3_q,2022.2.5,Win32,61.73220569,612a736e7035ad7ceeef755e,64aeaab685a29f4ca249be02,64bec98c14a17afde2154594,right,1,0.05,0.35,1,0.033257541,0.146,,,,,,316,0,316,0,1,,,,,
,,045369,001,2023-07-24_19h58.25.483,arm3_q,2022.2.5,Win32,61.73220569,612a736e7035ad7ceeef755e,64aeaab685a29f4ca249be02,64bec98c14a17afde2154594,right,1,0.05,0.35,1,0.053077583,0.2005,,,,,,317,0,317,0,1,,,,,
,,045369,001,2023-07-24_19h58.25.483,arm3_q,2022.2.5,Win32,61.73220569,612a736e7035ad7ceeef755e,64aeaab685a29f4ca249be02,64bec98c14a17afde2154594,right,1,0.05,0.35,1,0.077112767,0.1829,,,,,,318,0,318,0,1,,,,,
,,045369,001,2023-07-24_19h58.25.483,arm3_q,2022.2.5,Win32,61.73220569,612a736e7035ad7ceeef755e,64aeaab685a29f4ca249be02,64bec98c14a17afde2154594,right,1,0.05,0.35,1,0.084713204,0.1637,,,,,,319,0,319,0,1,,,,,
,,045369,001,2023-07-24_19h58.25.483,arm3_q,2022.2.5,Win32,61.73220569,612a736e7035ad7ceeef755e,64aeaab685a29f4ca249be02,64bec98c14a17afde2154594,right,1,0.05,0.35,1,0.104440942,0.1794,,,,,,320,0,320,0,1,,,,,
,,045369,001,2023-07-24_19h58.25.483,arm3_q,2022.2.5,Win32,61.73220569,612a736e7035ad7ceeef755e,64aeaab685a29f4ca249be02,64bec98c14a17afde2154594,right,1,0.05,0.35,1,0.120045624,0.1829,,,,,,321,0,321,0,1,,,,,
,,045369,001,2023-07-24_19h58.25.483,arm3_q,2022.2.5,Win32,61.73220569,612a736e7035ad7ceeef755e,64aeaab685a29f4ca249be02,64bec98c14a17afde2154594,right,1,0.05,0.35,1,0.121924882,0.1836,,,,,,322,0,322,0,1,,,,,
,,045369,001,2023-07-24_19h58.25.483,arm3_q,2022.2.5,Win32,61.73220569,612a736e7035ad7ceeef755e,64aeaab685a29f4ca249be02,64bec98c14a17afde2154594,right,1,0.05,0.35,1,0.117158545,0.2003,,,,,,323,0,323,0,1,,,,,
,,045369,001,2023-07-24_19h58.25.483,arm3_q,2022.2.5,Win32,61.73220569,612a736e7035ad7ceeef755e,64aeaab685a29f4ca249be02,64bec98c14a17afde2154594,right,1,0.05,0.35,1,0.112491348,0.1762,,,,,,324,0,324,0,1,,,,,
,,045369,001,2023-07-24_19h58.25.483,arm3_q,2022.2.5,Win32,61.73220569,612a736e7035ad7ceeef755e,64aeaab685a29f4ca249be02,64bec98c14a17afde2154594,right,1,0.05,0.35,1,0.112123702,0.2002,,,,,,325,0,325,0,1,,,,,
,,045369,001,2023-07-24_19h58.25.483,arm3_q,2022.2.5,Win32,61.73220569,612a736e7035ad7ceeef755e,64aeaab685a29f4ca249be02,64bec98c14a17afde2154594,right,1,0.05,0.35,1,0.130199985,0.19,,,,,,326,0,326,0,1,,,,,
,,045369,001,2023-07-24_19h58.25.483,arm3_q,2022.2.5,Win32,61.73220569,612a736e7035ad7ceeef755e,64aeaab685a29f4ca249be02,64bec98c14a17afde2154594,down,1,0.05,0.35,1,0,0.7062,,,,,,327,0,327,0,1,,,,,
,,045369,001,2023-07-24_19h58.25.483,arm3_q,2022.2.5,Win32,61.73220569,612a736e7035ad7ceeef755e,64aeaab685a29f4ca249be02,64bec98c14a17afde2154594,right,1,0.05,0.35,1,-0.002958822,0.6174,,,,,,328,0,328,0,1,,,,,
,,045369,001,2023-07-24_19h58.25.483,arm3_q,2022.2.5,Win32,61.73220569,612a736e7035ad7ceeef755e,64aeaab685a29f4ca249be02,64bec98c14a17afde2154594,right,1,0.05,0.35,1,0.033557402,0.3167,,,,,,329,0,329,0,1,,,,,
,,045369,001,2023-07-24_19h58.25.483,arm3_q,2022.2.5,Win32,61.73220569,612a736e7035ad7ceeef755e,64aeaab685a29f4ca249be02,64bec98c14a17afde2154594,right,1,0.05,0.35,1,0.056788963,0.2883,,,,,,330,0,330,0,1,,,,,
,,045369,001,2023-07-24_19h58.25.483,arm3_q,2022.2.5,Win32,61.73220569,612a736e7035ad7ceeef755e,64aeaab685a29f4ca249be02,64bec98c14a17afde2154594,right,1,0.05,0.35,1,0.046035445,0.2701,,,,,,331,0,331,0,1,,,,,
,,045369,001,2023-07-24_19h58.25.483,arm3_q,2022.2.5,Win32,61.73220569,612a736e7035ad7ceeef755e,64aeaab685a29f4ca249be02,64bec98c14a17afde2154594,right,1,0.05,0.35,1,0.047152422,0.2668,,,,,,332,0,332,0,1,,,,,
,,045369,001,2023-07-24_19h58.25.483,arm3_q,2022.2.5,Win32,61.73220569,612a736e7035ad7ceeef755e,64aeaab685a29f4ca249be02,64bec98c14a17afde2154594,right,1,0.05,0.35,1,0.018479032,0.2685,,,,,,333,0,333,0,1,,,,,
,,045369,001,2023-07-24_19h58.25.483,arm3_q,2022.2.5,Win32,61.73220569,612a736e7035ad7ceeef755e,64aeaab685a29f4ca249be02,64bec98c14a17afde2154594,right,1,0.05,0.35,1,0.024044689,0.5161,,,,,,334,0,334,0,1,,,,,
,,045369,001,2023-07-24_19h58.25.483,arm3_q,2022.2.5,Win32,61.73220569,612a736e7035ad7ceeef755e,64aeaab685a29f4ca249be02,64bec98c14a17afde2154594,right,1,0.05,0.35,1,0.065980445,0.3505,,,,,,335,0,335,0,1,,,,,
,,045369,001,2023-07-24_19h58.25.483,arm3_q,2022.2.5,Win32,61.73220569,612a736e7035ad7ceeef755e,64aeaab685a29f4ca249be02,64bec98c14a17afde2154594,up,-1,0.05,0.35,1,0,0.4002,,,,,,336,0,336,0,1,,,,,
,,045369,001,2023-07-24_19h58.25.483,arm3_q,2022.2.5,Win32,61.73220569,612a736e7035ad7ceeef755e,64aeaab685a29f4ca249be02,64bec98c14a17afde2154594,right,-1,0.05,0.35,1,-0.004072313,0.4429,,,,,,337,0,337,0,1,,,,,
,,045369,001,2023-07-24_19h58.25.483,arm3_q,2022.2.5,Win32,61.73220569,612a736e7035ad7ceeef755e,64aeaab685a29f4ca249be02,64bec98c14a17afde2154594,right,-1,0.05,0.35,1,-0.026422676,0.2839,,,,,,338,0,338,0,1,,,,,
,,045369,001,2023-07-24_19h58.25.483,arm3_q,2022.2.5,Win32,61.73220569,612a736e7035ad7ceeef755e,64aeaab685a29f4ca249be02,64bec98c14a17afde2154594,right,-1,0.05,0.35,1,-0.068942924,0.2063,,,,,,339,0,339,0,1,,,,,
,,045369,001,2023-07-24_19h58.25.483,arm3_q,2022.2.5,Win32,61.73220569,612a736e7035ad7ceeef755e,64aeaab685a29f4ca249be02,64bec98c14a17afde2154594,right,-1,0.05,0.35,1,-0.075335889,0.2503,,,,,,340,0,340,0,1,,,,,
,,045369,001,2023-07-24_19h58.25.483,arm3_q,2022.2.5,Win32,61.73220569,612a736e7035ad7ceeef755e,64aeaab685a29f4ca249be02,64bec98c14a17afde2154594,right,-1,0.05,0.35,1,-0.074573784,0.2338,,,,,,341,0,341,0,1,,,,,
,,045369,001,2023-07-24_19h58.25.483,arm3_q,2022.2.5,Win32,61.73220569,612a736e7035ad7ceeef755e,64aeaab685a29f4ca249be02,64bec98c14a17afde2154594,right,-1,0.05,0.35,1,-0.087515862,0.2546,,,,,,342,0,342,0,1,,,,,
,,045369,001,2023-07-24_19h58.25.483,arm3_q,2022.2.5,Win32,61.73220569,612a736e7035ad7ceeef755e,64aeaab685a29f4ca249be02,64bec98c14a17afde2154594,right,-1,0.05,0.35,1,-0.096660712,0.2669,,,,,,343,0,343,0,1,,,,,
,,045369,001,2023-07-24_19h58.25.483,arm3_q,2022.2.5,Win32,61.73220569,612a736e7035ad7ceeef755e,64aeaab685a29f4ca249be02,64bec98c14a17afde2154594,right,-1,0.05,0.35,1,-0.088062216,0.2575,,,,,,344,0,344,0,1,,,,,
,,045369,001,2023-07-24_19h58.25.483,arm3_q,2022.2.5,Win32,61.73220569,612a736e7035ad7ceeef755e,64aeaab685a29f4ca249be02,64bec98c14a17afde2154594,right,-1,0.05,0.35,1,-0.112275477,0.2994,,,,,,345,0,345,0,1,,,,,
,,045369,001,2023-07-24_19h58.25.483,arm3_q,2022.2.5,Win32,61.73220569,612a736e7035ad7ceeef755e,64aeaab685a29f4ca249be02,64bec98c14a17afde2154594,right,-1,0.05,0.35,1,-0.085973258,0.317,,,,,,346,0,346,0,1,,,,,
,,045369,001,2023-07-24_19h58.25.483,arm3_q,2022.2.5,Win32,61.73220569,612a736e7035ad7ceeef755e,64aeaab685a29f4ca249be02,64bec98c14a17afde2154594,right,-1,0.05,0.35,1,-0.094958989,0.2346,,,,,,347,0,347,0,1,,,,,
,,045369,001,2023-07-24_19h58.25.483,arm3_q,2022.2.5,Win32,61.73220569,612a736e7035ad7ceeef755e,64aeaab685a29f4ca249be02,64bec98c14a17afde2154594,right,-1,0.05,0.35,1,-0.080821559,0.2071,,,,,,348,0,348,0,1,,,,,
,,045369,001,2023-07-24_19h58.25.483,arm3_q,2022.2.5,Win32,61.73220569,612a736e7035ad7ceeef755e,64aeaab685a29f4ca249be02,64bec98c14a17afde2154594,up,-1,0.05,0.35,1,0,0.6275,,,,,,349,0,349,0,1,,,,,
,,045369,001,2023-07-24_19h58.25.483,arm3_q,2022.2.5,Win32,61.73220569,612a736e7035ad7ceeef755e,64aeaab685a29f4ca249be02,64bec98c14a17afde2154594,right,-1,0.05,0.35,1,0.008154231,1.6663,,,,,,350,0,350,0,1,,,,,
,,045369,001,2023-07-24_19h58.25.483,arm3_q,2022.2.5,Win32,61.73220569,612a736e7035ad7ceeef755e,64aeaab685a29f4ca249be02,64bec98c14a17afde2154594,right,-1,0.05,0.35,1,0.011696712,0.4671,,,,,,351,0,351,0,1,,,,,
,,045369,001,2023-07-24_19h58.25.483,arm3_q,2022.2.5,Win32,61.73220569,612a736e7035ad7ceeef755e,64aeaab685a29f4ca249be02,64bec98c14a17afde2154594,right,-1,0.05,0.35,1,-0.007159048,0.4527,,,,,,352,0,352,0,1,,,,,
,,045369,001,2023-07-24_19h58.25.483,arm3_q,2022.2.5,Win32,61.73220569,612a736e7035ad7ceeef755e,64aeaab685a29f4ca249be02,64bec98c14a17afde2154594,right,-1,0.05,0.35,1,0.00119725,0.3272,,,,,,353,0,353,0,1,,,,,
,,045369,001,2023-07-24_19h58.25.483,arm3_q,2022.2.5,Win32,61.73220569,612a736e7035ad7ceeef755e,64aeaab685a29f4ca249be02,64bec98c14a17afde2154594,right,-1,0.05,0.35,1,0.006985842,0.2357,,,,,,354,0,354,0,1,,,,,
,,045369,001,2023-07-24_19h58.25.483,arm3_q,2022.2.5,Win32,61.73220569,612a736e7035ad7ceeef755e,64aeaab685a29f4ca249be02,64bec98c14a17afde2154594,right,-1,0.05,0.35,1,-0.003657507,0.2002,,,,,,355,0,355,0,1,,,,,
,,045369,001,2023-07-24_19h58.25.483,arm3_q,2022.2.5,Win32,61.73220569,612a736e7035ad7ceeef755e,64aeaab685a29f4ca249be02,64bec98c14a17afde2154594,right,-1,0.05,0.35,1,-0.00054159,0.2572,,,,,,356,0,356,0,1,,,,,
,,045369,001,2023-07-24_19h58.25.483,arm3_q,2022.2.5,Win32,61.73220569,612a736e7035ad7ceeef755e,64aeaab685a29f4ca249be02,64bec98c14a17afde2154594,right,-1,0.05,0.35,1,-0.00338717,0.1955,,,,,,357,0,357,0,1,,,,,
,,045369,001,2023-07-24_19h58.25.483,arm3_q,2022.2.5,Win32,61.73220569,612a736e7035ad7ceeef755e,64aeaab685a29f4ca249be02,64bec98c14a17afde2154594,right,-1,0.05,0.35,1,0.022560074,0.1967,,,,,,358,0,358,0,1,,,,,
,,045369,001,2023-07-24_19h58.25.483,arm3_q,2022.2.5,Win32,61.73220569,612a736e7035ad7ceeef755e,64aeaab685a29f4ca249be02,64bec98c14a17afde2154594,right,-1,0.05,0.35,1,0.024779196,0.1997,,,,,,359,0,359,0,1,,,,,
,,045369,001,2023-07-24_19h58.25.483,arm3_q,2022.2.5,Win32,61.73220569,612a736e7035ad7ceeef755e,64aeaab685a29f4ca249be02,64bec98c14a17afde2154594,right,-1,0.05,0.35,1,0.030722978,0.2165,,,,,,360,0,360,0,1,,,,,
,,045369,001,2023-07-24_19h58.25.483,arm3_q,2022.2.5,Win32,61.73220569,612a736e7035ad7ceeef755e,64aeaab685a29f4ca249be02,64bec98c14a17afde2154594,right,-1,0.05,0.35,1,0.00516867,0.2817,,,,,,361,0,361,0,1,,,,,
,,045369,001,2023-07-24_19h58.25.483,arm3_q,2022.2.5,Win32,61.73220569,612a736e7035ad7ceeef755e,64aeaab685a29f4ca249be02,64bec98c14a17afde2154594,down,-1,0.05,0.35,1,0,1.3002,,,,,,362,0,362,0,1,,,,,
,,045369,001,2023-07-24_19h58.25.483,arm3_q,2022.2.5,Win32,61.73220569,612a736e7035ad7ceeef755e,64aeaab685a29f4ca249be02,64bec98c14a17afde2154594,right,-1,0.05,0.35,1,-0.023548598,0.5579,,,,,,363,0,363,0,1,,,,,
,,045369,001,2023-07-24_19h58.25.483,arm3_q,2022.2.5,Win32,61.73220569,612a736e7035ad7ceeef755e,64aeaab685a29f4ca249be02,64bec98c14a17afde2154594,right,-1,0.05,0.35,1,-0.02698997,0.2422,,,,,,364,0,364,0,1,,,,,
,,045369,001,2023-07-24_19h58.25.483,arm3_q,2022.2.5,Win32,61.73220569,612a736e7035ad7ceeef755e,64aeaab685a29f4ca249be02,64bec98c14a17afde2154594,right,-1,0.05,0.35,1,-0.022972374,0.1837,,,,,,365,0,365,0,1,,,,,
,,045369,001,2023-07-24_19h58.25.483,arm3_q,2022.2.5,Win32,61.73220569,612a736e7035ad7ceeef755e,64aeaab685a29f4ca249be02,64bec98c14a17afde2154594,right,-1,0.05,0.35,1,-0.037698946,0.2116,,,,,,366,0,366,0,1,,,,,
,,045369,001,2023-07-24_19h58.25.483,arm3_q,2022.2.5,Win32,61.73220569,612a736e7035ad7ceeef755e,64aeaab685a29f4ca249be02,64bec98c14a17afde2154594,right,-1,0.05,0.35,1,-0.046897439,0.4053,,,,,,367,0,367,0,1,,,,,
,,045369,001,2023-07-24_19h58.25.483,arm3_q,2022.2.5,Win32,61.73220569,612a736e7035ad7ceeef755e,64aeaab685a29f4ca249be02,64bec98c14a17afde2154594,right,-1,0.05,0.35,1,-0.065230421,0.2497,,,,,,368,0,368,0,1,,,,,
,,045369,001,2023-07-24_19h58.25.483,arm3_q,2022.2.5,Win32,61.73220569,612a736e7035ad7ceeef755e,64aeaab685a29f4ca249be02,64bec98c14a17afde2154594,right,-1,0.05,0.35,1,-0.046293479,0.1996,,,,,,369,0,369,0,1,,,,,
,,045369,001,2023-07-24_19h58.25.483,arm3_q,2022.2.5,Win32,61.73220569,612a736e7035ad7ceeef755e,64aeaab685a29f4ca249be02,64bec98c14a17afde2154594,,,,,,,,,,,,,,,,,,0,0,0,0,1
space,3.8879,045369,001,2023-07-24_19h58.25.483,arm3_q,2022.2.5,Win32,61.73220569,612a736e7035ad7ceeef755e,64aeaab685a29f4ca249be02,64bec98c14a17afde2154594,right,-1,0.3071,0.35,1,-0.039399885,0.6016,,,,,,0,0,0,0,1,,,,,
,,045369,001,2023-07-24_19h58.25.483,arm3_q,2022.2.5,Win32,61.73220569,612a736e7035ad7ceeef755e,64aeaab685a29f4ca249be02,64bec98c14a17afde2154594,right,-1,0.3071,0.35,1,-0.023743561,0.2886,,,,,,1,0,1,0,1,,,,,
,,045369,001,2023-07-24_19h58.25.483,arm3_q,2022.2.5,Win32,61.73220569,612a736e7035ad7ceeef755e,64aeaab685a29f4ca249be02,64bec98c14a17afde2154594,right,-1,0.3071,0.35,1,-0.034375112,0.2175,,,,,,2,0,2,0,1,,,,,
,,045369,001,2023-07-24_19h58.25.483,arm3_q,2022.2.5,Win32,61.73220569,612a736e7035ad7ceeef755e,64aeaab685a29f4ca249be02,64bec98c14a17afde2154594,right,-1,0.3071,0.35,1,-0.058405408,0.3869,,,,,,3,0,3,0,1,,,,,
,,045369,001,2023-07-24_19h58.25.483,arm3_q,2022.2.5,Win32,61.73220569,612a736e7035ad7ceeef755e,64aeaab685a29f4ca249be02,64bec98c14a17afde2154594,right,-1,0.3071,0.35,1,-0.072203594,0.44,,,,,,4,0,4,0,1,,,,,
,,045369,001,2023-07-24_19h58.25.483,arm3_q,2022.2.5,Win32,61.73220569,612a736e7035ad7ceeef755e,64aeaab685a29f4ca249be02,64bec98c14a17afde2154594,right,-1,0.3071,0.35,1,-0.103384371,0.5502,,,,,,5,0,5,0,1,,,,,
,,045369,001,2023-07-24_19h58.25.483,arm3_q,2022.2.5,Win32,61.73220569,612a736e7035ad7ceeef755e,64aeaab685a29f4ca249be02,64bec98c14a17afde2154594,right,-1,0.3071,0.35,1,-0.108616395,0.3834,,,,,,6,0,6,0,1,,,,,
,,045369,001,2023-07-24_19h58.25.483,arm3_q,2022.2.5,Win32,61.73220569,612a736e7035ad7ceeef755e,64aeaab685a29f4ca249be02,64bec98c14a17afde2154594,right,-1,0.3071,0.35,1,-0.130342491,0.3832,,,,,,7,0,7,0,1,,,,,
,,045369,001,2023-07-24_19h58.25.483,arm3_q,2022.2.5,Win32,61.73220569,612a736e7035ad7ceeef755e,64aeaab685a29f4ca249be02,64bec98c14a17afde2154594,right,-1,0.3071,0.35,1,-0.157650964,0.334,,,,,,8,0,8,0,1,,,,,
,,045369,001,2023-07-24_19h58.25.483,arm3_q,2022.2.5,Win32,61.73220569,612a736e7035ad7ceeef755e,64aeaab685a29f4ca249be02,64bec98c14a17afde2154594,right,-1,0.3071,0.35,1,-0.169821986,0.3137,,,,,,9,0,9,0,1,,,,,
,,045369,001,2023-07-24_19h58.25.483,arm3_q,2022.2.5,Win32,61.73220569,612a736e7035ad7ceeef755e,64aeaab685a29f4ca249be02,64bec98c14a17afde2154594,down,-1,0.3071,0.35,1,0,0.5029,,,,,,10,0,10,0,1,,,,,
,,045369,001,2023-07-24_19h58.25.483,arm3_q,2022.2.5,Win32,61.73220569,612a736e7035ad7ceeef755e,64aeaab685a29f4ca249be02,64bec98c14a17afde2154594,right,-1,0.3071,0.35,1,-0.012155626,0.5408,,,,,,11,0,11,0,1,,,,,
,,045369,001,2023-07-24_19h58.25.483,arm3_q,2022.2.5,Win32,61.73220569,612a736e7035ad7ceeef755e,64aeaab685a29f4ca249be02,64bec98c14a17afde2154594,right,-1,0.3071,0.35,1,-0.045856345,0.3008,,,,,,12,0,12,0,1,,,,,
,,045369,001,2023-07-24_19h58.25.483,arm3_q,2022.2.5,Win32,61.73220569,612a736e7035ad7ceeef755e,64aeaab685a29f4ca249be02,64bec98c14a17afde2154594,right,-1,0.3071,0.35,1,-0.081340991,0.2269,,,,,,13,0,13,0,1,,,,,
,,045369,001,2023-07-24_19h58.25.483,arm3_q,2022.2.5,Win32,61.73220569,612a736e7035ad7ceeef755e,64aeaab685a29f4ca249be02,64bec98c14a17afde2154594,right,-1,0.3071,0.35,1,-0.083330856,0.1876,,,,,,14,0,14,0,1,,,,,
,,045369,001,2023-07-24_19h58.25.483,arm3_q,2022.2.5,Win32,61.73220569,612a736e7035ad7ceeef755e,64aeaab685a29f4ca249be02,64bec98c14a17afde2154594,right,-1,0.3071,0.35,1,-0.107047895,0.2419,,,,,,15,0,15,0,1,,,,,
,,045369,001,2023-07-24_19h58.25.483,arm3_q,2022.2.5,Win32,61.73220569,612a736e7035ad7ceeef755e,64aeaab685a29f4ca249be02,64bec98c14a17afde2154594,right,-1,0.3071,0.35,1,-0.107728119,0.2332,,,,,,16,0,16,0,1,,,,,
,,045369,001,2023-07-24_19h58.25.483,arm3_q,2022.2.5,Win32,61.73220569,612a736e7035ad7ceeef755e,64aeaab685a29f4ca249be02,64bec98c14a17afde2154594,right,-1,0.3071,0.35,1,-0.120658966,0.2364,,,,,,17,0,17,0,1,,,,,
,,045369,001,2023-07-24_19h58.25.483,arm3_q,2022.2.5,Win32,61.73220569,612a736e7035ad7ceeef755e,64aeaab685a29f4ca249be02,64bec98c14a17afde2154594,right,-1,0.3071,0.35,1,-0.131331062,0.1839,,,,,,18,0,18,0,1,,,,,
,,045369,001,2023-07-24_19h58.25.483,arm3_q,2022.2.5,Win32,61.73220569,612a736e7035ad7ceeef755e,64aeaab685a29f4ca249be02,64bec98c14a17afde2154594,right,-1,0.3071,0.35,1,-0.142506473,0.2576,,,,,,19,0,19,0,1,,,,,
,,045369,001,2023-07-24_19h58.25.483,arm3_q,2022.2.5,Win32,61.73220569,612a736e7035ad7ceeef755e,64aeaab685a29f4ca249be02,64bec98c14a17afde2154594,right,-1,0.3071,0.35,1,-0.172582198,0.3168,,,,,,20,0,20,0,1,,,,,
,,045369,001,2023-07-24_19h58.25.483,arm3_q,2022.2.5,Win32,61.73220569,612a736e7035ad7ceeef755e,64aeaab685a29f4ca249be02,64bec98c14a17afde2154594,right,-1,0.3071,0.35,1,-0.17665718,0.3332,,,,,,21,0,21,0,1,,,,,
,,045369,001,2023-07-24_19h58.25.483,arm3_q,2022.2.5,Win32,61.73220569,612a736e7035ad7ceeef755e,64aeaab685a29f4ca249be02,64bec98c14a17afde2154594,down,-1,0.3071,0.35,1,0,0.5334,,,,,,22,0,22,0,1,,,,,
,,045369,001,2023-07-24_19h58.25.483,arm3_q,2022.2.5,Win32,61.73220569,612a736e7035ad7ceeef755e,64aeaab685a29f4ca249be02,64bec98c14a17afde2154594,right,-1,0.3071,0.35,1,-0.005081012,0.5164,,,,,,23,0,23,0,1,,,,,
,,045369,001,2023-07-24_19h58.25.483,arm3_q,2022.2.5,Win32,61.73220569,612a736e7035ad7ceeef755e,64aeaab685a29f4ca249be02,64bec98c14a17afde2154594,right,-1,0.3071,0.35,1,-0.010096515,0.2079,,,,,,24,0,24,0,1,,,,,
,,045369,001,2023-07-24_19h58.25.483,arm3_q,2022.2.5,Win32,61.73220569,612a736e7035ad7ceeef755e,64aeaab685a29f4ca249be02,64bec98c14a17afde2154594,right,-1,0.3071,0.35,1,-0.000204081,0.1682,,,,,,25,0,25,0,1,,,,,
,,045369,001,2023-07-24_19h58.25.483,arm3_q,2022.2.5,Win32,61.73220569,612a736e7035ad7ceeef755e,64aeaab685a29f4ca249be02,64bec98c14a17afde2154594,right,-1,0.3071,0.35,1,-0.024200807,0.1505,,,,,,26,0,26,0,1,,,,,
,,045369,001,2023-07-24_19h58.25.483,arm3_q,2022.2.5,Win32,61.73220569,612a736e7035ad7ceeef755e,64aeaab685a29f4ca249be02,64bec98c14a17afde2154594,right,-1,0.3071,0.35,1,-0.033550992,0.1666,,,,,,27,0,27,0,1,,,,,
,,045369,001,2023-07-24_19h58.25.483,arm3_q,2022.2.5,Win32,61.73220569,612a736e7035ad7ceeef755e,64aeaab685a29f4ca249be02,64bec98c14a17afde2154594,right,-1,0.3071,0.35,1,-0.011066976,0.1664,,,,,,28,0,28,0,1,,,,,
,,045369,001,2023-07-24_19h58.25.483,arm3_q,2022.2.5,Win32,61.73220569,612a736e7035ad7ceeef755e,64aeaab685a29f4ca249be02,64bec98c14a17afde2154594,right,-1,0.3071,0.35,1,0.013542825,0.1999,,,,,,29,0,29,0,1,,,,,
,,045369,001,2023-07-24_19h58.25.483,arm3_q,2022.2.5,Win32,61.73220569,612a736e7035ad7ceeef755e,64aeaab685a29f4ca249be02,64bec98c14a17afde2154594,right,-1,0.3071,0.35,1,-0.022390989,0.1829,,,,,,30,0,30,0,1,,,,,
,,045369,001,2023-07-24_19h58.25.483,arm3_q,2022.2.5,Win32,61.73220569,612a736e7035ad7ceeef755e,64aeaab685a29f4ca249be02,64bec98c14a17afde2154594,right,-1,0.3071,0.35,1,-0.009833365,0.1935,,,,,,31,0,31,0,1,,,,,
,,045369,001,2023-07-24_19h58.25.483,arm3_q,2022.2.5,Win32,61.73220569,612a736e7035ad7ceeef755e,64aeaab685a29f4ca249be02,64bec98c14a17afde2154594,right,-1,0.3071,0.35,1,-0.010158877,0.1747,,,,,,32,0,32,0,1,,,,,
,,045369,001,2023-07-24_19h58.25.483,arm3_q,2022.2.5,Win32,61.73220569,612a736e7035ad7ceeef755e,64aeaab685a29f4ca249be02,64bec98c14a17afde2154594,right,-1,0.3071,0.35,1,-0.038688395,0.1994,,,,,,33,0,33,0,1,,,,,
,,045369,001,2023-07-24_19h58.25.483,arm3_q,2022.2.5,Win32,61.73220569,612a736e7035ad7ceeef755e,64aeaab685a29f4ca249be02,64bec98c14a17afde2154594,right,-1,0.3071,0.35,1,-0.0547698,0.2192,,,,,,34,0,34,0,1,,,,,
,,045369,001,2023-07-24_19h58.25.483,arm3_q,2022.2.5,Win32,61.73220569,612a736e7035ad7ceeef755e,64aeaab685a29f4ca249be02,64bec98c14a17afde2154594,up,1,0.3071,0.35,0,0,1.7079,,,,,,35,0,35,0,1,,,,,
,,045369,001,2023-07-24_19h58.25.483,arm3_q,2022.2.5,Win32,61.73220569,612a736e7035ad7ceeef755e,64aeaab685a29f4ca249be02,64bec98c14a17afde2154594,right,1,0.3071,0.35,0,-0.014012307,1.1174,,,,,,36,0,36,0,1,,,,,
,,045369,001,2023-07-24_19h58.25.483,arm3_q,2022.2.5,Win32,61.73220569,612a736e7035ad7ceeef755e,64aeaab685a29f4ca249be02,64bec98c14a17afde2154594,right,1,0.3071,0.35,0,-0.007535682,0.1719,,,,,,37,0,37,0,1,,,,,
,,045369,001,2023-07-24_19h58.25.483,arm3_q,2022.2.5,Win32,61.73220569,612a736e7035ad7ceeef755e,64aeaab685a29f4ca249be02,64bec98c14a17afde2154594,right,1,0.3071,0.35,0,-0.019203084,0.1664,,,,,,38,0,38,0,1,,,,,
,,045369,001,2023-07-24_19h58.25.483,arm3_q,2022.2.5,Win32,61.73220569,612a736e7035ad7ceeef755e,64aeaab685a29f4ca249be02,64bec98c14a17afde2154594,right,1,0.3071,0.35,0,0.015470902,0.192,,,,,,39,0,39,0,1,,,,,
,,045369,001,2023-07-24_19h58.25.483,arm3_q,2022.2.5,Win32,61.73220569,612a736e7035ad7ceeef755e,64aeaab685a29f4ca249be02,64bec98c14a17afde2154594,right,1,0.3071,0.35,0,0.033161159,0.163,,,,,,40,0,40,0,1,,,,,
,,045369,001,2023-07-24_19h58.25.483,arm3_q,2022.2.5,Win32,61.73220569,612a736e7035ad7ceeef755e,64aeaab685a29f4ca249be02,64bec98c14a17afde2154594,right,1,0.3071,0.35,0,0.039095705,0.1893,,,,,,41,0,41,0,1,,,,,
,,045369,001,2023-07-24_19h58.25.483,arm3_q,2022.2.5,Win32,61.73220569,612a736e7035ad7ceeef755e,64aeaab685a29f4ca249be02,64bec98c14a17afde2154594,right,1,0.3071,0.35,0,0.028052528,0.2001,,,,,,42,0,42,0,1,,,,,
,,045369,001,2023-07-24_19h58.25.483,arm3_q,2022.2.5,Win32,61.73220569,612a736e7035ad7ceeef755e,64aeaab685a29f4ca249be02,64bec98c14a17afde2154594,right,1,0.3071,0.35,0,0.033984468,0.2168,,,,,,43,0,43,0,1,,,,,
,,045369,001,2023-07-24_19h58.25.483,arm3_q,2022.2.5,Win32,61.73220569,612a736e7035ad7ceeef755e,64aeaab685a29f4ca249be02,64bec98c14a17afde2154594,right,1,0.3071,0.35,0,0.023730755,0.2052,,,,,,44,0,44,0,1,,,,,
