space_bar.keys,space_bar.rt,participant,session,date,expName,psychopyVersion,OS,frameRate,PROLIFIC_PID,STUDY_ID,SESSION_ID,resp.keys,state,q_prob,eps_prob,score,price,resp.rt,train.thisRepN,train.thisTrialN,train.thisN,train.thisIndex,train.ran,steps.thisRepN,steps.thisTrialN,steps.thisN,steps.thisIndex,steps.ran,blocks.thisRepN,blocks.thisTrialN,blocks.thisN,blocks.thisIndex,blocks.ran
space,2.064,065887,001,2023-07-24_23h34.10.642,arm3_q,2022.2.5,Win32,60.0348202,60d7078c3e724cb9020fe786,64aeaab685a29f4ca249be02,64bedbdc2217c1ac32d19e4a,,,,,,,,,,,,,,,,,,,,,,
space,0.6689,065887,001,2023-07-24_23h34.10.642,arm3_q,2022.2.5,Win32,60.0348202,60d7078c3e724cb9020fe786,64aeaab685a29f4ca249be02,64bedbdc2217c1ac32d19e4a,,,,,,,,,,,,,,,,,,,,,,
space,1.0899,065887,001,2023-07-24_23h34.10.642,arm3_q,2022.2.5,Win32,60.0348202,60d7078c3e724cb9020fe786,64aeaab685a29f4ca249be02,64bedbdc2217c1ac32d19e4a,,,,,,,,,,,,,,,,,,,,,,
space,0.1826,065887,001,2023-07-24_23h34.10.642,arm3_q,2022.2.5,Win32,60.0348202,60d7078c3e724cb9020fe786,64aeaab685a29f4ca249be02,64bedbdc2217c1ac32d19e4a,,,,,,,,,,,,,,,,,,,,,,
space,0.1642,065887,001,2023-07-24_23h34.10.642,arm3_q,2022.2.5,Win32,60.0348202,60d7078c3e724cb9020fe786,64aeaab685a29f4ca249be02,64bedbdc2217c1ac32d19e4a,,,,,,,,,,,,,,,,,,,,,,
space,0.1392,065887,001,2023-07-24_23h34.10.642,arm3_q,2022.2.5,Win32,60.0348202,60d7078c3e724cb9020fe786,64aeaab685a29f4ca249be02,64bedbdc2217c1ac32d19e4a,,,,,,,,,,,,,,,,,,,,,,
space,0.2939,065887,001,2023-07-24_23h34.10.642,arm3_q,2022.2.5,Win32,60.0348202,60d7078c3e724cb9020fe786,64aeaab685a29f4ca249be02,64bedbdc2217c1ac32d19e4a,,,,,,,,,,,,,,,,,,,,,,
space,0.3263,065887,001,2023-07-24_23h34.10.642,arm3_q,2022.2.5,Win32,60.0348202,60d7078c3e724cb9020fe786,64aeaab685a29f4ca249be02,64bedbdc2217c1ac32d19e4a,,,,,,,,,,,,,,,,,,,,,,
space,0.1167,065887,001,2023-07-24_23h34.10.642,arm3_q,2022.2.5,Win32,60.0348202,60d7078c3e724cb9020fe786,64aeaab685a29f4ca249be02,64bedbdc2217c1ac32d19e4a,,,,,,,,,,,,,,,,,,,,,,
space,0.1761,065887,001,2023-07-24_23h34.10.642,arm3_q,2022.2.5,Win32,60.0348202,60d7078c3e724cb9020fe786,64aeaab685a29f4ca249be02,64bedbdc2217c1ac32d19e4a,,,,,,,,,,,,,,,,,,,,,,
,,065887,001,2023-07-24_23h34.10.642,arm3_q,2022.2.5,Win32,60.0348202,60d7078c3e724cb9020fe786,64aeaab685a29f4ca249be02,64bedbdc2217c1ac32d19e4a,right,1,0.5643,0.35,0,-0.001637919,3.1106,0,0,0,0,1,,,,,,,,,,
,,065887,001,2023-07-24_23h34.10.642,arm3_q,2022.2.5,Win32,60.0348202,60d7078c3e724cb9020fe786,64aeaab685a29f4ca249be02,64bedbdc2217c1ac32d19e4a,right,1,0.5643,0.35,0,0.002093573,0.4003,1,0,1,0,1,,,,,,,,,,
,,065887,001,2023-07-24_23h34.10.642,arm3_q,2022.2.5,Win32,60.0348202,60d7078c3e724cb9020fe786,64aeaab685a29f4ca249be02,64bedbdc2217c1ac32d19e4a,right,1,0.5643,0.35,0,0.019830329,0.2004,2,0,2,0,1,,,,,,,,,,
,,065887,001,2023-07-24_23h34.10.642,arm3_q,2022.2.5,Win32,60.0348202,60d7078c3e724cb9020fe786,64aeaab685a29f4ca249be02,64bedbdc2217c1ac32d19e4a,right,1,0.5643,0.35,0,0.024898902,0.1514,3,0,3,0,1,,,,,,,,,,
,,065887,001,2023-07-24_23h34.10.642,arm3_q,2022.2.5,Win32,60.0348202,60d7078c3e724cb9020fe786,64aeaab685a29f4ca249be02,64bedbdc2217c1ac32d19e4a,right,1,0.5643,0.35,0,0.004259881,0.1676,4,0,4,0,1,,,,,,,,,,
,,065887,001,2023-07-24_23h34.10.642,arm3_q,2022.2.5,Win32,60.0348202,60d7078c3e724cb9020fe786,64aeaab685a29f4ca249be02,64bedbdc2217c1ac32d19e4a,right,1,0.5643,0.35,0,0.009789236,0.1502,5,0,5,0,1,,,,,,,,,,
,,065887,001,2023-07-24_23h34.10.642,arm3_q,2022.2.5,Win32,60.0348202,60d7078c3e724cb9020fe786,64aeaab685a29f4ca249be02,64bedbdc2217c1ac32d19e4a,down,-1,0.5643,0.35,-1,0,3.2978,6,0,6,0,1,,,,,,,,,,
,,065887,001,2023-07-24_23h34.10.642,arm3_q,2022.2.5,Win32,60.0348202,60d7078c3e724cb9020fe786,64aeaab685a29f4ca249be02,64bedbdc2217c1ac32d19e4a,right,-1,0.5643,0.35,-1,-0.011129784,0.9028,7,0,7,0,1,,,,,,,,,,
,,065887,001,2023-07-24_23h34.10.642,arm3_q,2022.2.5,Win32,60.0348202,60d7078c3e724cb9020fe786,64aeaab685a29f4ca249be02,64bedbdc2217c1ac32d19e4a,right,-1,0.5643,0.35,-1,-0.011065653,0.1642,8,0,8,0,1,,,,,,,,,,
,,065887,001,2023-07-24_23h34.10.642,arm3_q,2022.2.5,Win32,60.0348202,60d7078c3e724cb9020fe786,64aeaab685a29f4ca249be02,64bedbdc2217c1ac32d19e4a,right,-1,0.5643,0.35,-1,0.013860482,0.1626,9,0,9,0,1,,,,,,,,,,
,,065887,001,2023-07-24_23h34.10.642,arm3_q,2022.2.5,Win32,60.0348202,60d7078c3e724cb9020fe786,64aeaab685a29f4ca249be02,64bedbdc2217c1ac32d19e4a,right,-1,0.5643,0.35,-1,0.005645026,0.1316,10,0,10,0,1,,,,,,,,,,
,,065887,001,2023-07-24_23h34.10.642,arm3_q,2022.2.5,Win32,60.0348202,60d7078c3e724cb9020fe786,64aeaab685a29f4ca249be02,64bedbdc2217c1ac32d19e4a,right,-1,0.5643,0.35,-1,0.006192528,0.1471,11,0,11,0,1,,,,,,,,,,
,,065887,001,2023-07-24_23h34.10.642,arm3_q,2022.2.5,Win32,60.0348202,60d7078c3e724cb9020fe786,64aeaab685a29f4ca249be02,64bedbdc2217c1ac32d19e4a,right,-1,0.5643,0.35,-1,0.011927562,0.3133,12,0,12,0,1,,,,,,,,,,
,,065887,001,2023-07-24_23h34.10.642,arm3_q,2022.2.5,Win32,60.0348202,60d7078c3e724cb9020fe786,64aeaab685a29f4ca249be02,64bedbdc2217c1ac32d19e4a,right,-1,0.5643,0.35,-1,0.019070403,0.1172,13,0,13,0,1,,,,,,,,,,
,,065887,001,2023-07-24_23h34.10.642,arm3_q,2022.2.5,Win32,60.0348202,60d7078c3e724cb9020fe786,64aeaab685a29f4ca249be02,64bedbdc2217c1ac32d19e4a,right,-1,0.5643,0.35,-1,0.001883108,0.1536,14,0,14,0,1,,,,,,,,,,
,,065887,001,2023-07-24_23h34.10.642,arm3_q,2022.2.5,Win32,60.0348202,60d7078c3e724cb9020fe786,64aeaab685a29f4ca249be02,64bedbdc2217c1ac32d19e4a,down,-1,0.5643,0.35,0,0,0.504,15,0,15,0,1,,,,,,,,,,
,,065887,001,2023-07-24_23h34.10.642,arm3_q,2022.2.5,Win32,60.0348202,60d7078c3e724cb9020fe786,64aeaab685a29f4ca249be02,64bedbdc2217c1ac32d19e4a,right,-1,0.5643,0.35,0,-0.046766838,0.3929,16,0,16,0,1,,,,,,,,,,
,,065887,001,2023-07-24_23h34.10.642,arm3_q,2022.2.5,Win32,60.0348202,60d7078c3e724cb9020fe786,64aeaab685a29f4ca249be02,64bedbdc2217c1ac32d19e4a,right,-1,0.5643,0.35,0,-0.057661228,0.1851,17,0,17,0,1,,,,,,,,,,
,,065887,001,2023-07-24_23h34.10.642,arm3_q,2022.2.5,Win32,60.0348202,60d7078c3e724cb9020fe786,64aeaab685a29f4ca249be02,64bedbdc2217c1ac32d19e4a,right,-1,0.5643,0.35,0,-0.07853131,0.1684,18,0,18,0,1,,,,,,,,,,
,,065887,001,2023-07-24_23h34.10.642,arm3_q,2022.2.5,Win32,60.0348202,60d7078c3e724cb9020fe786,64aeaab685a29f4ca249be02,64bedbdc2217c1ac32d19e4a,right,-1,0.5643,0.35,0,-0.093984509,0.1568,19,0,19,0,1,,,,,,,,,,
,,065887,001,2023-07-24_23h34.10.642,arm3_q,2022.2.5,Win32,60.0348202,60d7078c3e724cb9020fe786,64aeaab685a29f4ca249be02,64bedbdc2217c1ac32d19e4a,down,-1,0.5643,0.35,1,0,0.8132,20,0,20,0,1,,,,,,,,,,
,,065887,001,2023-07-24_23h34.10.642,arm3_q,2022.2.5,Win32,60.0348202,60d7078c3e724cb9020fe786,64aeaab685a29f4ca249be02,64bedbdc2217c1ac32d19e4a,right,-1,0.5643,0.35,1,-0.027865687,0.4605,21,0,21,0,1,,,,,,,,,,
,,065887,001,2023-07-24_23h34.10.642,arm3_q,2022.2.5,Win32,60.0348202,60d7078c3e724cb9020fe786,64aeaab685a29f4ca249be02,64bedbdc2217c1ac32d19e4a,right,-1,0.5643,0.35,1,-0.046760043,0.1965,22,0,22,0,1,,,,,,,,,,
,,065887,001,2023-07-24_23h34.10.642,arm3_q,2022.2.5,Win32,60.0348202,60d7078c3e724cb9020fe786,64aeaab685a29f4ca249be02,64bedbdc2217c1ac32d19e4a,right,-1,0.5643,0.35,1,-0.027393338,0.1645,23,0,23,0,1,,,,,,,,,,
,,065887,001,2023-07-24_23h34.10.642,arm3_q,2022.2.5,Win32,60.0348202,60d7078c3e724cb9020fe786,64aeaab685a29f4ca249be02,64bedbdc2217c1ac32d19e4a,right,-1,0.5643,0.35,1,-0.037929636,0.1642,24,0,24,0,1,,,,,,,,,,
,,065887,001,2023-07-24_23h34.10.642,arm3_q,2022.2.5,Win32,60.0348202,60d7078c3e724cb9020fe786,64aeaab685a29f4ca249be02,64bedbdc2217c1ac32d19e4a,right,-1,0.5643,0.35,1,-0.009781083,0.1465,25,0,25,0,1,,,,,,,,,,
,,065887,001,2023-07-24_23h34.10.642,arm3_q,2022.2.5,Win32,60.0348202,60d7078c3e724cb9020fe786,64aeaab685a29f4ca249be02,64bedbdc2217c1ac32d19e4a,down,-1,0.5643,0.35,1,0,1.1465,26,0,26,0,1,,,,,,,,,,
,,065887,001,2023-07-24_23h34.10.642,arm3_q,2022.2.5,Win32,60.0348202,60d7078c3e724cb9020fe786,64aeaab685a29f4ca249be02,64bedbdc2217c1ac32d19e4a,right,-1,0.5643,0.35,1,-0.002718537,0.489,27,0,27,0,1,,,,,,,,,,
,,065887,001,2023-07-24_23h34.10.642,arm3_q,2022.2.5,Win32,60.0348202,60d7078c3e724cb9020fe786,64aeaab685a29f4ca249be02,64bedbdc2217c1ac32d19e4a,right,-1,0.5643,0.35,1,-0.031755002,0.2122,28,0,28,0,1,,,,,,,,,,
,,065887,001,2023-07-24_23h34.10.642,arm3_q,2022.2.5,Win32,60.0348202,60d7078c3e724cb9020fe786,64aeaab685a29f4ca249be02,64bedbdc2217c1ac32d19e4a,right,-1,0.5643,0.35,1,-0.020393622,0.1551,29,0,29,0,1,,,,,,,,,,
,,065887,001,2023-07-24_23h34.10.642,arm3_q,2022.2.5,Win32,60.0348202,60d7078c3e724cb9020fe786,64aeaab685a29f4ca249be02,64bedbdc2217c1ac32d19e4a,right,-1,0.5643,0.35,1,-0.039297669,0.1568,30,0,30,0,1,,,,,,,,,,
,,065887,001,2023-07-24_23h34.10.642,arm3_q,2022.2.5,Win32,60.0348202,60d7078c3e724cb9020fe786,64aeaab685a29f4ca249be02,64bedbdc2217c1ac32d19e4a,down,1,0.5643,0.35,2,0,0.4014,31,0,31,0,1,,,,,,,,,,
,,065887,001,2023-07-24_23h34.10.642,arm3_q,2022.2.5,Win32,60.0348202,60d7078c3e724cb9020fe786,64aeaab685a29f4ca249be02,64bedbdc2217c1ac32d19e4a,right,1,0.5643,0.35,2,0.013749853,0.432,32,0,32,0,1,,,,,,,,,,
,,065887,001,2023-07-24_23h34.10.642,arm3_q,2022.2.5,Win32,60.0348202,60d7078c3e724cb9020fe786,64aeaab685a29f4ca249be02,64bedbdc2217c1ac32d19e4a,right,1,0.5643,0.35,2,0.001002333,0.2022,33,0,33,0,1,,,,,,,,,,
,,065887,001,2023-07-24_23h34.10.642,arm3_q,2022.2.5,Win32,60.0348202,60d7078c3e724cb9020fe786,64aeaab685a29f4ca249be02,64bedbdc2217c1ac32d19e4a,right,1,0.5643,0.35,2,0.007874415,0.1494,34,0,34,0,1,,,,,,,,,,
,,065887,001,2023-07-24_23h34.10.642,arm3_q,2022.2.5,Win32,60.0348202,60d7078c3e724cb9020fe786,64aeaab685a29f4ca249be02,64bedbdc2217c1ac32d19e4a,right,1,0.5643,0.35,2,-0.002039513,0.1327,35,0,35,0,1,,,,,,,,,,
,,065887,001,2023-07-24_23h34.10.642,arm3_q,2022.2.5,Win32,60.0348202,60d7078c3e724cb9020fe786,64aeaab685a29f4ca249be02,64bedbdc2217c1ac32d19e4a,down,-1,0.5643,0.35,1,0,0.4013,36,0,36,0,1,,,,,,,,,,
,,065887,001,2023-07-24_23h34.10.642,arm3_q,2022.2.5,Win32,60.0348202,60d7078c3e724cb9020fe786,64aeaab685a29f4ca249be02,64bedbdc2217c1ac32d19e4a,right,-1,0.5643,0.35,1,0.00684509,0.8436,37,0,37,0,1,,,,,,,,,,
,,065887,001,2023-07-24_23h34.10.642,arm3_q,2022.2.5,Win32,60.0348202,60d7078c3e724cb9020fe786,64aeaab685a29f4ca249be02,64bedbdc2217c1ac32d19e4a,up,-1,0.5643,0.35,0,0,0.8793,38,0,38,0,1,,,,,,,,,,
,,065887,001,2023-07-24_23h34.10.642,arm3_q,2022.2.5,Win32,60.0348202,60d7078c3e724cb9020fe786,64aeaab685a29f4ca249be02,64bedbdc2217c1ac32d19e4a,right,-1,0.5643,0.35,0,-0.001625037,0.4339,39,0,39,0,1,,,,,,,,,,
,,065887,001,2023-07-24_23h34.10.642,arm3_q,2022.2.5,Win32,60.0348202,60d7078c3e724cb9020fe786,64aeaab685a29f4ca249be02,64bedbdc2217c1ac32d19e4a,right,-1,0.5643,0.35,0,-0.002930722,0.2288,40,0,40,0,1,,,,,,,,,,
,,065887,001,2023-07-24_23h34.10.642,arm3_q,2022.2.5,Win32,60.0348202,60d7078c3e724cb9020fe786,64aeaab685a29f4ca249be02,64bedbdc2217c1ac32d19e4a,right,-1,0.5643,0.35,0,0.008116122,0.1639,41,0,41,0,1,,,,,,,,,,
,,065887,001,2023-07-24_23h34.10.642,arm3_q,2022.2.5,Win32,60.0348202,60d7078c3e724cb9020fe786,64aeaab685a29f4ca249be02,64bedbdc2217c1ac32d19e4a,right,-1,0.5643,0.35,0,0.001788708,0.1498,42,0,42,0,1,,,,,,,,,,
,,065887,001,2023-07-24_23h34.10.642,arm3_q,2022.2.5,Win32,60.0348202,60d7078c3e724cb9020fe786,64aeaab685a29f4ca249be02,64bedbdc2217c1ac32d19e4a,right,-1,0.5643,0.35,0,-0.022780435,0.1465,43,0,43,0,1,,,,,,,,,,
,,065887,001,2023-07-24_23h34.10.642,arm3_q,2022.2.5,Win32,60.0348202,60d7078c3e724cb9020fe786,64aeaab685a29f4ca249be02,64bedbdc2217c1ac32d19e4a,down,1,0.5643,0.35,1,0,0.464,44,0,44,0,1,,,,,,,,,,
,,065887,001,2023-07-24_23h34.10.642,arm3_q,2022.2.5,Win32,60.0348202,60d7078c3e724cb9020fe786,64aeaab685a29f4ca249be02,64bedbdc2217c1ac32d19e4a,right,1,0.5643,0.35,1,0.003081363,0.4439,45,0,45,0,1,,,,,,,,,,
,,065887,001,2023-07-24_23h34.10.642,arm3_q,2022.2.5,Win32,60.0348202,60d7078c3e724cb9020fe786,64aeaab685a29f4ca249be02,64bedbdc2217c1ac32d19e4a,right,1,0.5643,0.35,1,-0.017276824,0.195,46,0,46,0,1,,,,,,,,,,
,,065887,001,2023-07-24_23h34.10.642,arm3_q,2022.2.5,Win32,60.0348202,60d7078c3e724cb9020fe786,64aeaab685a29f4ca249be02,64bedbdc2217c1ac32d19e4a,right,1,0.5643,0.35,1,-0.001163508,0.1649,47,0,47,0,1,,,,,,,,,,
,,065887,001,2023-07-24_23h34.10.642,arm3_q,2022.2.5,Win32,60.0348202,60d7078c3e724cb9020fe786,64aeaab685a29f4ca249be02,64bedbdc2217c1ac32d19e4a,right,1,0.5643,0.35,1,-0.006751947,0.1479,48,0,48,0,1,,,,,,,,,,
,,065887,001,2023-07-24_23h34.10.642,arm3_q,2022.2.5,Win32,60.0348202,60d7078c3e724cb9020fe786,64aeaab685a29f4ca249be02,64bedbdc2217c1ac32d19e4a,right,1,0.5643,0.35,1,0.008024706,0.119,49,0,49,0,1,,,,,,,,,,
space,1.1328,065887,001,2023-07-24_23h34.10.642,arm3_q,2022.2.5,Win32,60.0348202,60d7078c3e724cb9020fe786,64aeaab685a29f4ca249be02,64bedbdc2217c1ac32d19e4a,,,,,,,,,,,,,,,,,,,,,,
space,0.9784,065887,001,2023-07-24_23h34.10.642,arm3_q,2022.2.5,Win32,60.0348202,60d7078c3e724cb9020fe786,64aeaab685a29f4ca249be02,64bedbdc2217c1ac32d19e4a,right,1,0.4357,0.35,0,-0.00396321,1.1066,,,,,,0,0,0,0,1,,,,,
,,065887,001,2023-07-24_23h34.10.642,arm3_q,2022.2.5,Win32,60.0348202,60d7078c3e724cb9020fe786,64aeaab685a29f4ca249be02,64bedbdc2217c1ac32d19e4a,right,1,0.4357,0.35,0,0.010002098,0.2324,,,,,,1,0,1,0,1,,,,,
,,065887,001,2023-07-24_23h34.10.642,arm3_q,2022.2.5,Win32,60.0348202,60d7078c3e724cb9020fe786,64aeaab685a29f4ca249be02,64bedbdc2217c1ac32d19e4a,right,1,0.4357,0.35,0,0.009978531,0.1472,,,,,,2,0,2,0,1,,,,,
,,065887,001,2023-07-24_23h34.10.642,arm3_q,2022.2.5,Win32,60.0348202,60d7078c3e724cb9020fe786,64aeaab685a29f4ca249be02,64bedbdc2217c1ac32d19e4a,right,1,0.4357,0.35,0,0.001350099,0.1617,,,,,,3,0,3,0,1,,,,,
,,065887,001,2023-07-24_23h34.10.642,arm3_q,2022.2.5,Win32,60.0348202,60d7078c3e724cb9020fe786,64aeaab685a29f4ca249be02,64bedbdc2217c1ac32d19e4a,right,1,0.4357,0.35,0,0.030393824,0.2348,,,,,,4,0,4,0,1,,,,,
,,065887,001,2023-07-24_23h34.10.642,arm3_q,2022.2.5,Win32,60.0348202,60d7078c3e724cb9020fe786,64aeaab685a29f4ca249be02,64bedbdc2217c1ac32d19e4a,right,1,0.4357,0.35,0,0.043897785,0.1705,,,,,,5,0,5,0,1,,,,,
,,065887,001,2023-07-24_23h34.10.642,arm3_q,2022.2.5,Win32,60.0348202,60d7078c3e724cb9020fe786,64aeaab685a29f4ca249be02,64bedbdc2217c1ac32d19e4a,right,1,0.4357,0.35,0,0.046347092,0.1643,,,,,,6,0,6,0,1,,,,,
,,065887,001,2023-07-24_23h34.10.642,arm3_q,2022.2.5,Win32,60.0348202,60d7078c3e724cb9020fe786,64aeaab685a29f4ca249be02,64bedbdc2217c1ac32d19e4a,right,1,0.4357,0.35,0,0.042925216,0.1657,,,,,,7,0,7,0,1,,,,,
,,065887,001,2023-07-24_23h34.10.642,arm3_q,2022.2.5,Win32,60.0348202,60d7078c3e724cb9020fe786,64aeaab685a29f4ca249be02,64bedbdc2217c1ac32d19e4a,up,1,0.4357,0.35,1,0,0.5182,,,,,,8,0,8,0,1,,,,,
,,065887,001,2023-07-24_23h34.10.642,arm3_q,2022.2.5,Win32,60.0348202,60d7078c3e724cb9020fe786,64aeaab685a29f4ca249be02,64bedbdc2217c1ac32d19e4a,right,1,0.4357,0.35,1,-0.0131533,0.3849,,,,,,9,0,9,0,1,,,,,
,,065887,001,2023-07-24_23h34.10.642,arm3_q,2022.2.5,Win32,60.0348202,60d7078c3e724cb9020fe786,64aeaab685a29f4ca249be02,64bedbdc2217c1ac32d19e4a,right,1,0.4357,0.35,1,0.002548599,0.2453,,,,,,10,0,10,0,1,,,,,
,,065887,001,2023-07-24_23h34.10.642,arm3_q,2022.2.5,Win32,60.0348202,60d7078c3e724cb9020fe786,64aeaab685a29f4ca249be02,64bedbdc2217c1ac32d19e4a,up,1,0.4357,0.35,2,0,0.4453,,,,,,11,0,11,0,1,,,,,
,,065887,001,2023-07-24_23h34.10.642,arm3_q,2022.2.5,Win32,60.0348202,60d7078c3e724cb9020fe786,64aeaab685a29f4ca249be02,64bedbdc2217c1ac32d19e4a,right,1,0.4357,0.35,2,0.016543733,0.3807,,,,,,12,0,12,0,1,,,,,
,,065887,001,2023-07-24_23h34.10.642,arm3_q,2022.2.5,Win32,60.0348202,60d7078c3e724cb9020fe786,64aeaab685a29f4ca249be02,64bedbdc2217c1ac32d19e4a,right,1,0.4357,0.35,2,0.072714272,0.2478,,,,,,13,0,13,0,1,,,,,
,,065887,001,2023-07-24_23h34.10.642,arm3_q,2022.2.5,Win32,60.0348202,60d7078c3e724cb9020fe786,64aeaab685a29f4ca249be02,64bedbdc2217c1ac32d19e4a,up,1,0.4357,0.35,2,0,0.4308,,,,,,14,0,14,0,1,,,,,
,,065887,001,2023-07-24_23h34.10.642,arm3_q,2022.2.5,Win32,60.0348202,60d7078c3e724cb9020fe786,64aeaab685a29f4ca249be02,64bedbdc2217c1ac32d19e4a,right,1,0.4357,0.35,2,0.013670246,0.5589,,,,,,15,0,15,0,1,,,,,
,,065887,001,2023-07-24_23h34.10.642,arm3_q,2022.2.5,Win32,60.0348202,60d7078c3e724cb9020fe786,64aeaab685a29f4ca249be02,64bedbdc2217c1ac32d19e4a,right,1,0.4357,0.35,2,0.01910628,0.1976,,,,,,16,0,16,0,1,,,,,
,,065887,001,2023-07-24_23h34.10.642,arm3_q,2022.2.5,Win32,60.0348202,60d7078c3e724cb9020fe786,64aeaab685a29f4ca249be02,64bedbdc2217c1ac32d19e4a,right,1,0.4357,0.35,2,0.01367089,0.7464,,,,,,17,0,17,0,1,,,,,
,,065887,001,2023-07-24_23h34.10.642,arm3_q,2022.2.5,Win32,60.0348202,60d7078c3e724cb9020fe786,64aeaab685a29f4ca249be02,64bedbdc2217c1ac32d19e4a,right,1,0.4357,0.35,2,0.036764639,0.3135,,,,,,18,0,18,0,1,,,,,
,,065887,001,2023-07-24_23h34.10.642,arm3_q,2022.2.5,Win32,60.0348202,60d7078c3e724cb9020fe786,64aeaab685a29f4ca249be02,64bedbdc2217c1ac32d19e4a,up,1,0.4357,0.35,2,0,0.4492,,,,,,19,0,19,0,1,,,,,
,,065887,001,2023-07-24_23h34.10.642,arm3_q,2022.2.5,Win32,60.0348202,60d7078c3e724cb9020fe786,64aeaab685a29f4ca249be02,64bedbdc2217c1ac32d19e4a,right,1,0.4357,0.35,2,0.018706471,0.4807,,,,,,20,0,20,0,1,,,,,
,,065887,001,2023-07-24_23h34.10.642,arm3_q,2022.2.5,Win32,60.0348202,60d7078c3e724cb9020fe786,64aeaab685a29f4ca249be02,64bedbdc2217c1ac32d19e4a,right,1,0.4357,0.35,2,-0.002735752,0.1699,,,,,,21,0,21,0,1,,,,,
,,065887,001,2023-07-24_23h34.10.642,arm3_q,2022.2.5,Win32,60.0348202,60d7078c3e724cb9020fe786,64aeaab685a29f4ca249be02,64bedbdc2217c1ac32d19e4a,right,1,0.4357,0.35,2,0.009585204,0.4187,,,,,,22,0,22,0,1,,,,,
,,065887,001,2023-07-24_23h34.10.642,arm3_q,2022.2.5,Win32,60.0348202,60d7078c3e724cb9020fe786,64aeaab685a29f4ca249be02,64bedbdc2217c1ac32d19e4a,right,1,0.4357,0.35,2,0.012293461,0.4321,,,,,,23,0,23,0,1,,,,,
,,065887,001,2023-07-24_23h34.10.642,arm3_q,2022.2.5,Win32,60.0348202,60d7078c3e724cb9020fe786,64aeaab685a29f4ca249be02,64bedbdc2217c1ac32d19e4a,up,1,0.4357,0.35,3,0,0.4496,,,,,,24,0,24,0,1,,,,,
,,065887,001,2023-07-24_23h34.10.642,arm3_q,2022.2.5,Win32,60.0348202,60d7078c3e724cb9020fe786,64aeaab685a29f4ca249be02,64bedbdc2217c1ac32d19e4a,right,1,0.4357,0.35,3,0.015827655,0.4321,,,,,,25,0,25,0,1,,,,,
,,065887,001,2023-07-24_23h34.10.642,arm3_q,2022.2.5,Win32,60.0348202,60d7078c3e724cb9020fe786,64aeaab685a29f4ca249be02,64bedbdc2217c1ac32d19e4a,right,1,0.4357,0.35,3,0.029348099,0.2252,,,,,,26,0,26,0,1,,,,,
,,065887,001,2023-07-24_23h34.10.642,arm3_q,2022.2.5,Win32,60.0348202,60d7078c3e724cb9020fe786,64aeaab685a29f4ca249be02,64bedbdc2217c1ac32d19e4a,up,1,0.4357,0.35,4,0,0.4046,,,,,,27,0,27,0,1,,,,,
,,065887,001,2023-07-24_23h34.10.642,arm3_q,2022.2.5,Win32,60.0348202,60d7078c3e724cb9020fe786,64aeaab685a29f4ca249be02,64bedbdc2217c1ac32d19e4a,right,1,0.4357,0.35,4,-0.010534261,0.5211,,,,,,28,0,28,0,1,,,,,
,,065887,001,2023-07-24_23h34.10.642,arm3_q,2022.2.5,Win32,60.0348202,60d7078c3e724cb9020fe786,64aeaab685a29f4ca249be02,64bedbdc2217c1ac32d19e4a,right,1,0.4357,0.35,4,-0.030788148,0.2018,,,,,,29,0,29,0,1,,,,,
,,065887,001,2023-07-24_23h34.10.642,arm3_q,2022.2.5,Win32,60.0348202,60d7078c3e724cb9020fe786,64aeaab685a29f4ca249be02,64bedbdc2217c1ac32d19e4a,up,-1,0.4357,0.35,5,0,0.4534,,,,,,30,0,30,0,1,,,,,
,,065887,001,2023-07-24_23h34.10.642,arm3_q,2022.2.5,Win32,60.0348202,60d7078c3e724cb9020fe786,64aeaab685a29f4ca249be02,64bedbdc2217c1ac32d19e4a,right,-1,0.4357,0.35,5,-0.000242704,0.4648,,,,,,31,0,31,0,1,,,,,
,,065887,001,2023-07-24_23h34.10.642,arm3_q,2022.2.5,Win32,60.0348202,60d7078c3e724cb9020fe786,64aeaab685a29f4ca249be02,64bedbdc2217c1ac32d19e4a,right,-1,0.4357,0.35,5,0.000598472,0.2293,,,,,,32,0,32,0,1,,,,,
,,065887,001,2023-07-24_23h34.10.642,arm3_q,2022.2.5,Win32,60.0348202,60d7078c3e724cb9020fe786,64aeaab685a29f4ca249be02,64bedbdc2217c1ac32d19e4a,up,-1,0.4357,0.35,4,0,0.6145,,,,,,33,0,33,0,1,,,,,
,,065887,001,2023-07-24_23h34.10.642,arm3_q,2022.2.5,Win32,60.0348202,60d7078c3e724cb9020fe786,64aeaab685a29f4ca249be02,64bedbdc2217c1ac32d19e4a,right,-1,0.4357,0.35,4,-0.015815109,0.4425,,,,,,34,0,34,0,1,,,,,
,,065887,001,2023-07-24_23h34.10.642,arm3_q,2022.2.5,Win32,60.0348202,60d7078c3e724cb9020fe786,64aeaab685a29f4ca249be02,64bedbdc2217c1ac32d19e4a,right,-1,0.4357,0.35,4,-0.038300182,0.2151,,,,,,35,0,35,0,1,,,,,
,,065887,001,2023-07-24_23h34.10.642,arm3_q,2022.2.5,Win32,60.0348202,60d7078c3e724cb9020fe786,64aeaab685a29f4ca249be02,64bedbdc2217c1ac32d19e4a,up,-1,0.4357,0.35,4,0,1.3337,,,,,,36,0,36,0,1,,,,,
,,065887,001,2023-07-24_23h34.10.642,arm3_q,2022.2.5,Win32,60.0348202,60d7078c3e724cb9020fe786,64aeaab685a29f4ca249be02,64bedbdc2217c1ac32d19e4a,right,-1,0.4357,0.35,4,-0.026379773,0.5648,,,,,,37,0,37,0,1,,,,,
,,065887,001,2023-07-24_23h34.10.642,arm3_q,2022.2.5,Win32,60.0348202,60d7078c3e724cb9020fe786,64aeaab685a29f4ca249be02,64bedbdc2217c1ac32d19e4a,right,-1,0.4357,0.35,4,-0.045208571,0.1845,,,,,,38,0,38,0,1,,,,,
,,065887,001,2023-07-24_23h34.10.642,arm3_q,2022.2.5,Win32,60.0348202,60d7078c3e724cb9020fe786,64aeaab685a29f4ca249be02,64bedbdc2217c1ac32d19e4a,up,-1,0.4357,0.35,3,0,0.4827,,,,,,39,0,39,0,1,,,,,
,,065887,001,2023-07-24_23h34.10.642,arm3_q,2022.2.5,Win32,60.0348202,60d7078c3e724cb9020fe786,64aeaab685a29f4ca249be02,64bedbdc2217c1ac32d19e4a,right,-1,0.4357,0.35,3,-0.021280402,0.4939,,,,,,40,0,40,0,1,,,,,
,,065887,001,2023-07-24_23h34.10.642,arm3_q,2022.2.5,Win32,60.0348202,60d7078c3e724cb9020fe786,64aeaab685a29f4ca249be02,64bedbdc2217c1ac32d19e4a,right,-1,0.4357,0.35,3,-0.020452371,0.1937,,,,,,41,0,41,0,1,,,,,
,,065887,001,2023-07-24_23h34.10.642,arm3_q,2022.2.5,Win32,60.0348202,60d7078c3e724cb9020fe786,64aeaab685a29f4ca249be02,64bedbdc2217c1ac32d19e4a,right,-1,0.4357,0.35,3,-0.016805001,0.431,,,,,,42,0,42,0,1,,,,,
,,065887,001,2023-07-24_23h34.10.642,arm3_q,2022.2.5,Win32,60.0348202,60d7078c3e724cb9020fe786,64aeaab685a29f4ca249be02,64bedbdc2217c1ac32d19e4a,down,-1,0.4357,0.35,3,0,0.6113,,,,,,43,0,43,0,1,,,,,
,,065887,001,2023-07-24_23h34.10.642,arm3_q,2022.2.5,Win32,60.0348202,60d7078c3e724cb9020fe786,64aeaab685a29f4ca249be02,64bedbdc2217c1ac32d19e4a,right,-1,0.4357,0.35,3,0.003653276,0.5437,,,,,,44,0,44,0,1,,,,,
,,065887,001,2023-07-24_23h34.10.642,arm3_q,2022.2.5,Win32,60.0348202,60d7078c3e724cb9020fe786,64aeaab685a29f4ca249be02,64bedbdc2217c1ac32d19e4a,right,-1,0.4357,0.35,3,-0.005323386,0.4528,,,,,,45,0,45,0,1,,,,,
,,065887,001,2023-07-24_23h34.10.642,arm3_q,2022.2.5,Win32,60.0348202,60d7078c3e724cb9020fe786,64aeaab685a29f4ca249be02,64bedbdc2217c1ac32d19e4a,right,-1,0.4357,0.35,3,-0.016220857,0.1957,,,,,,46,0,46,0,1,,,,,
,,065887,001,2023-07-24_23h34.10.642,arm3_q,2022.2.5,Win32,60.0348202,60d7078c3e724cb9020fe786,64aeaab685a29f4ca249be02,64bedbdc2217c1ac32d19e4a,right,-1,0.4357,0.35,3,-0.022549629,2.5281,,,,,,47,0,47,0,1,,,,,
,,065887,001,2023-07-24_23h34.10.642,arm3_q,2022.2.5,Win32,60.0348202,60d7078c3e724cb9020fe786,64aeaab685a29f4ca249be02,64bedbdc2217c1ac32d19e4a,right,-1,0.4357,0.35,3,-0.012738073,0.4495,,,,,,48,0,48,0,1,,,,,
,,065887,001,2023-07-24_23h34.10.642,arm3_q,2022.2.5,Win32,60.0348202,60d7078c3e724cb9020fe786,64aeaab685a29f4ca249be02,64bedbdc2217c1ac32d19e4a,right,-1,0.4357,0.35,3,-0.021285994,0.451,,,,,,49,0,49,0,1,,,,,
,,065887,001,2023-07-24_23h34.10.642,arm3_q,2022.2.5,Win32,60.0348202,60d7078c3e724cb9020fe786,64aeaab685a29f4ca249be02,64bedbdc2217c1ac32d19e4a,down,-1,0.4357,0.35,3,0,0.7389,,,,,,50,0,50,0,1,,,,,
,,065887,001,2023-07-24_23h34.10.642,arm3_q,2022.2.5,Win32,60.0348202,60d7078c3e724cb9020fe786,64aeaab685a29f4ca249be02,64bedbdc2217c1ac32d19e4a,right,-1,0.4357,0.35,3,-0.013623123,0.4476,,,,,,51,0,51,0,1,,,,,
,,065887,001,2023-07-24_23h34.10.642,arm3_q,2022.2.5,Win32,60.0348202,60d7078c3e724cb9020fe786,64aeaab685a29f4ca249be02,64bedbdc2217c1ac32d19e4a,right,-1,0.4357,0.35,3,-0.024531659,0.2303,,,,,,52,0,52,0,1,,,,,
,,065887,001,2023-07-24_23h34.10.642,arm3_q,2022.2.5,Win32,60.0348202,60d7078c3e724cb9020fe786,64aeaab685a29f4ca249be02,64bedbdc2217c1ac32d19e4a,down,-1,0.4357,0.35,3,0,0.5153,,,,,,53,0,53,0,1,,,,,
,,065887,001,2023-07-24_23h34.10.642,arm3_q,2022.2.5,Win32,60.0348202,60d7078c3e724cb9020fe786,64aeaab685a29f4ca249be02,64bedbdc2217c1ac32d19e4a,right,-1,0.4357,0.35,3,-0.015606841,0.4834,,,,,,54,0,54,0,1,,,,,
,,065887,001,2023-07-24_23h34.10.642,arm3_q,2022.2.5,Win32,60.0348202,60d7078c3e724cb9020fe786,64aeaab685a29f4ca249be02,64bedbdc2217c1ac32d19e4a,right,-1,0.4357,0.35,3,-0.018343842,0.2182,,,,,,55,0,55,0,1,,,,,
,,065887,001,2023-07-24_23h34.10.642,arm3_q,2022.2.5,Win32,60.0348202,60d7078c3e724cb9020fe786,64aeaab685a29f4ca249be02,64bedbdc2217c1ac32d19e4a,down,1,0.4357,0.35,3,0,0.5035,,,,,,56,0,56,0,1,,,,,
,,065887,001,2023-07-24_23h34.10.642,arm3_q,2022.2.5,Win32,60.0348202,60d7078c3e724cb9020fe786,64aeaab685a29f4ca249be02,64bedbdc2217c1ac32d19e4a,right,1,0.4357,0.35,3,0.020126215,0.4457,,,,,,57,0,57,0,1,,,,,
,,065887,001,2023-07-24_23h34.10.642,arm3_q,2022.2.5,Win32,60.0348202,60d7078c3e724cb9020fe786,64aeaab685a29f4ca249be02,64bedbdc2217c1ac32d19e4a,right,1,0.4357,0.35,3,0.01461564,0.222,,,,,,58,0,58,0,1,,,,,
,,065887,001,2023-07-24_23h34.10.642,arm3_q,2022.2.5,Win32,60.0348202,60d7078c3e724cb9020fe786,64aeaab685a29f4ca249be02,64bedbdc2217c1ac32d19e4a,right,1,0.4357,0.35,3,0.010917123,0.4279,,,,,,59,0,59,0,1,,,,,
,,065887,001,2023-07-24_23h34.10.642,arm3_q,2022.2.5,Win32,60.0348202,60d7078c3e724cb9020fe786,64aeaab685a29f4ca249be02,64bedbdc2217c1ac32d19e4a,up,-1,0.4357,0.35,3,0,0.9002,,,,,,60,0,60,0,1,,,,,
,,065887,001,2023-07-24_23h34.10.642,arm3_q,2022.2.5,Win32,60.0348202,60d7078c3e724cb9020fe786,64aeaab685a29f4ca249be02,64bedbdc2217c1ac32d19e4a,right,-1,0.4357,0.35,3,-0.003579431,0.5126,,,,,,61,0,61,0,1,,,,,
,,065887,001,2023-07-24_23h34.10.642,arm3_q,2022.2.5,Win32,60.0348202,60d7078c3e724cb9020fe786,64aeaab685a29f4ca249be02,64bedbdc2217c1ac32d19e4a,right,-1,0.4357,0.35,3,-0.008861614,0.2381,,,,,,62,0,62,0,1,,,,,
,,065887,001,2023-07-24_23h34.10.642,arm3_q,2022.2.5,Win32,60.0348202,60d7078c3e724cb9020fe786,64aeaab685a29f4ca249be02,64bedbdc2217c1ac32d19e4a,down,1,0.4357,0.35,3,0,0.7221,,,,,,63,0,63,0,1,,,,,
,,065887,001,2023-07-24_23h34.10.642,arm3_q,2022.2.5,Win32,60.0348202,60d7078c3e724cb9020fe786,64aeaab685a29f4ca249be02,64bedbdc2217c1ac32d19e4a,right,1,0.4357,0.35,3,0.009814458,0.4771,,,,,,64,0,64,0,1,,,,,
,,065887,001,2023-07-24_23h34.10.642,arm3_q,2022.2.5,Win32,60.0348202,60d7078c3e724cb9020fe786,64aeaab685a29f4ca249be02,64bedbdc2217c1ac32d19e4a,right,1,0.4357,0.35,3,0.018025645,0.497,,,,,,65,0,65,0,1,,,,,
,,065887,001,2023-07-24_23h34.10.642,arm3_q,2022.2.5,Win32,60.0348202,60d7078c3e724cb9020fe786,64aeaab685a29f4ca249be02,64bedbdc2217c1ac32d19e4a,up,1,0.4357,0.35,4,0,0.6862,,,,,,66,0,66,0,1,,,,,
,,065887,001,2023-07-24_23h34.10.642,arm3_q,2022.2.5,Win32,60.0348202,60d7078c3e724cb9020fe786,64aeaab685a29f4ca249be02,64bedbdc2217c1ac32d19e4a,right,1,0.4357,0.35,4,0.008775978,0.5406,,,,,,67,0,67,0,1,,,,,
,,065887,001,2023-07-24_23h34.10.642,arm3_q,2022.2.5,Win32,60.0348202,60d7078c3e724cb9020fe786,64aeaab685a29f4ca249be02,64bedbdc2217c1ac32d19e4a,right,1,0.4357,0.35,4,-0.010250997,0.5167,,,,,,68,0,68,0,1,,,,,
,,065887,001,2023-07-24_23h34.10.642,arm3_q,2022.2.5,Win32,60.0348202,60d7078c3e724cb9020fe786,64aeaab685a29f4ca249be02,64bedbdc2217c1ac32d19e4a,right,1,0.4357,0.35,4,0.025972851,0.1804,,,,,,69,0,69,0,1,,,,,
,,065887,001,2023-07-24_23h34.10.642,arm3_q,2022.2.5,Win32,60.0348202,60d7078c3e724cb9020fe786,64aeaab685a29f4ca249be02,64bedbdc2217c1ac32d19e4a,right,1,0.4357,0.35,4,0.004571147,0.6034,,,,,,70,0,70,0,1,,,,,
,,065887,001,2023-07-24_23h34.10.642,arm3_q,2022.2.5,Win32,60.0348202,60d7078c3e724cb9020fe786,64aeaab685a29f4ca249be02,64bedbdc2217c1ac32d19e4a,up,1,0.4357,0.35,5,0,0.8449,,,,,,71,0,71,0,1,,,,,
,,065887,001,2023-07-24_23h34.10.642,arm3_q,2022.2.5,Win32,60.0348202,60d7078c3e724cb9020fe786,64aeaab685a29f4ca249be02,64bedbdc2217c1ac32d19e4a,right,1,0.4357,0.35,5,0.038916531,0.4929,,,,,,72,0,72,0,1,,,,,
,,065887,001,2023-07-24_23h34.10.642,arm3_q,2022.2.5,Win32,60.0348202,60d7078c3e724cb9020fe786,64aeaab685a29f4ca249be02,64bedbdc2217c1ac32d19e4a,right,1,0.4357,0.35,5,0.029252746,0.2098,,,,,,73,0,73,0,1,,,,,
,,065887,001,2023-07-24_23h34.10.642,arm3_q,2022.2.5,Win32,60.0348202,60d7078c3e724cb9020fe786,64aeaab685a29f4ca249be02,64bedbdc2217c1ac32d19e4a,up,1,0.4357,0.35,5,0,0.5179,,,,,,74,0,74,0,1,,,,,
,,065887,001,2023-07-24_23h34.10.642,arm3_q,2022.2.5,Win32,60.0348202,60d7078c3e724cb9020fe786,64aeaab685a29f4ca249be02,64bedbdc2217c1ac32d19e4a,right,1,0.4357,0.35,5,0.022481467,0.4763,,,,,,75,0,75,0,1,,,,,
,,065887,001,2023-07-24_23h34.10.642,arm3_q,2022.2.5,Win32,60.0348202,60d7078c3e724cb9020fe786,64aeaab685a29f4ca249be02,64bedbdc2217c1ac32d19e4a,right,1,0.4357,0.35,5,0.030213393,0.228,,,,,,76,0,76,0,1,,,,,
,,065887,001,2023-07-24_23h34.10.642,arm3_q,2022.2.5,Win32,60.0348202,60d7078c3e724cb9020fe786,64aeaab685a29f4ca249be02,64bedbdc2217c1ac32d19e4a,up,1,0.4357,0.35,6,0,0.456,,,,,,77,0,77,0,1,,,,,
,,065887,001,2023-07-24_23h34.10.642,arm3_q,2022.2.5,Win32,60.0348202,60d7078c3e724cb9020fe786,64aeaab685a29f4ca249be02,64bedbdc2217c1ac32d19e4a,right,1,0.4357,0.35,6,-0.000623591,0.4684,,,,,,78,0,78,0,1,,,,,
,,065887,001,2023-07-24_23h34.10.642,arm3_q,2022.2.5,Win32,60.0348202,60d7078c3e724cb9020fe786,64aeaab685a29f4ca249be02,64bedbdc2217c1ac32d19e4a,right,1,0.4357,0.35,6,0.004259694,0.2125,,,,,,79,0,79,0,1,,,,,
,,065887,001,2023-07-24_23h34.10.642,arm3_q,2022.2.5,Win32,60.0348202,60d7078c3e724cb9020fe786,64aeaab685a29f4ca249be02,64bedbdc2217c1ac32d19e4a,up,-1,0.4357,0.35,7,0,0.572,,,,,,80,0,80,0,1,,,,,
,,065887,001,2023-07-24_23h34.10.642,arm3_q,2022.2.5,Win32,60.0348202,60d7078c3e724cb9020fe786,64aeaab685a29f4ca249be02,64bedbdc2217c1ac32d19e4a,right,-1,0.4357,0.35,7,-0.02750585,0.4216,,,,,,81,0,81,0,1,,,,,
,,065887,001,2023-07-24_23h34.10.642,arm3_q,2022.2.5,Win32,60.0348202,60d7078c3e724cb9020fe786,64aeaab685a29f4ca249be02,64bedbdc2217c1ac32d19e4a,right,-1,0.4357,0.35,7,-0.067120495,0.2321,,,,,,82,0,82,0,1,,,,,
,,065887,001,2023-07-24_23h34.10.642,arm3_q,2022.2.5,Win32,60.0348202,60d7078c3e724cb9020fe786,64aeaab685a29f4ca249be02,64bedbdc2217c1ac32d19e4a,down,-1,0.4357,0.35,7,0,0.4681,,,,,,83,0,83,0,1,,,,,
,,065887,001,2023-07-24_23h34.10.642,arm3_q,2022.2.5,Win32,60.0348202,60d7078c3e724cb9020fe786,64aeaab685a29f4ca249be02,64bedbdc2217c1ac32d19e4a,right,-1,0.4357,0.35,7,-0.023466916,0.4815,,,,,,84,0,84,0,1,,,,,
,,065887,001,2023-07-24_23h34.10.642,arm3_q,2022.2.5,Win32,60.0348202,60d7078c3e724cb9020fe786,64aeaab685a29f4ca249be02,64bedbdc2217c1ac32d19e4a,right,-1,0.4357,0.35,7,-0.004539254,0.222,,,,,,85,0,85,0,1,,,,,
,,065887,001,2023-07-24_23h34.10.642,arm3_q,2022.2.5,Win32,60.0348202,60d7078c3e724cb9020fe786,64aeaab685a29f4ca249be02,64bedbdc2217c1ac32d19e4a,right,-1,0.4357,0.35,7,-0.002025083,0.4977,,,,,,86,0,86,0,1,,,,,
,,065887,001,2023-07-24_23h34.10.642,arm3_q,2022.2.5,Win32,60.0348202,60d7078c3e724cb9020fe786,64aeaab685a29f4ca249be02,64bedbdc2217c1ac32d19e4a,down,1,0.4357,0.35,8,0,0.5208,,,,,,87,0,87,0,1,,,,,
,,065887,001,2023-07-24_23h34.10.642,arm3_q,2022.2.5,Win32,60.0348202,60d7078c3e724cb9020fe786,64aeaab685a29f4ca249be02,64bedbdc2217c1ac32d19e4a,right,1,0.4357,0.35,8,-0.010171329,0.4593,,,,,,88,0,88,0,1,,,,,
,,065887,001,2023-07-24_23h34.10.642,arm3_q,2022.2.5,Win32,60.0348202,60d7078c3e724cb9020fe786,64aeaab685a29f4ca249be02,64bedbdc2217c1ac32d19e4a,right,1,0.4357,0.35,8,-0.016777664,0.2286,,,,,,89,0,89,0,1,,,,,
,,065887,001,2023-07-24_23h34.10.642,arm3_q,2022.2.5,Win32,60.0348202,60d7078c3e724cb9020fe786,64aeaab685a29f4ca249be02,64bedbdc2217c1ac32d19e4a,right,1,0.4357,0.35,8,0.004512892,0.3548,,,,,,90,0,90,0,1,,,,,
,,065887,001,2023-07-24_23h34.10.642,arm3_q,2022.2.5,Win32,60.0348202,60d7078c3e724cb9020fe786,64aeaab685a29f4ca249be02,64bedbdc2217c1ac32d19e4a,right,1,0.4357,0.35,8,0.011758442,0.354,,,,,,91,0,91,0,1,,,,,
,,065887,001,2023-07-24_23h34.10.642,arm3_q,2022.2.5,Win32,60.0348202,60d7078c3e724cb9020fe786,64aeaab685a29f4ca249be02,64bedbdc2217c1ac32d19e4a,up,-1,0.4357,0.35,8,0,1.0976,,,,,,92,0,92,0,1,,,,,
,,065887,001,2023-07-24_23h34.10.642,arm3_q,2022.2.5,Win32,60.0348202,60d7078c3e724cb9020fe786,64aeaab685a29f4ca249be02,64bedbdc2217c1ac32d19e4a,right,-1,0.4357,0.35,8,-0.025580224,2.7097,,,,,,93,0,93,0,1,,,,,
,,065887,001,2023-07-24_23h34.10.642,arm3_q,2022.2.5,Win32,60.0348202,60d7078c3e724cb9020fe786,64aeaab685a29f4ca249be02,64bedbdc2217c1ac32d19e4a,right,-1,0.4357,0.35,8,-0.065097294,0.214,,,,,,94,0,94,0,1,,,,,
,,065887,001,2023-07-24_23h34.10.642,arm3_q,2022.2.5,Win32,60.0348202,60d7078c3e724cb9020fe786,64aeaab685a29f4ca249be02,64bedbdc2217c1ac32d19e4a,down,1,0.4357,0.35,9,0,0.4018,,,,,,95,0,95,0,1,,,,,
,,065887,001,2023-07-24_23h34.10.642,arm3_q,2022.2.5,Win32,60.0348202,60d7078c3e724cb9020fe786,64aeaab685a29f4ca249be02,64bedbdc2217c1ac32d19e4a,right,1,0.4357,0.35,9,0.026904492,0.4142,,,,,,96,0,96,0,1,,,,,
,,065887,001,2023-07-24_23h34.10.642,arm3_q,2022.2.5,Win32,60.0348202,60d7078c3e724cb9020fe786,64aeaab685a29f4ca249be02,64bedbdc2217c1ac32d19e4a,right,1,0.4357,0.35,9,0.034738645,0.2334,,,,,,97,0,97,0,1,,,,,
,,065887,001,2023-07-24_23h34.10.642,arm3_q,2022.2.5,Win32,60.0348202,60d7078c3e724cb9020fe786,64aeaab685a29f4ca249be02,64bedbdc2217c1ac32d19e4a,up,1,0.4357,0.35,9,0,0.6997,,,,,,98,0,98,0,1,,,,,
,,065887,001,2023-07-24_23h34.10.642,arm3_q,2022.2.5,Win32,60.0348202,60d7078c3e724cb9020fe786,64aeaab685a29f4ca249be02,64bedbdc2217c1ac32d19e4a,right,1,0.4357,0.35,9,-0.005744135,0.5119,,,,,,99,0,99,0,1,,,,,
,,065887,001,2023-07-24_23h34.10.642,arm3_q,2022.2.5,Win32,60.0348202,60d7078c3e724cb9020fe786,64aeaab685a29f4ca249be02,64bedbdc2217c1ac32d19e4a,right,1,0.4357,0.35,9,0.020530542,0.2197,,,,,,100,0,100,0,1,,,,,
,,065887,001,2023-07-24_23h34.10.642,arm3_q,2022.2.5,Win32,60.0348202,60d7078c3e724cb9020fe786,64aeaab685a29f4ca249be02,64bedbdc2217c1ac32d19e4a,up,-1,0.4357,0.35,9,0,0.5617,,,,,,101,0,101,0,1,,,,,
,,065887,001,2023-07-24_23h34.10.642,arm3_q,2022.2.5,Win32,60.0348202,60d7078c3e724cb9020fe786,64aeaab685a29f4ca249be02,64bedbdc2217c1ac32d19e4a,right,-1,0.4357,0.35,9,0.004618368,0.479,,,,,,102,0,102,0,1,,,,,
,,065887,001,2023-07-24_23h34.10.642,arm3_q,2022.2.5,Win32,60.0348202,60d7078c3e724cb9020fe786,64aeaab685a29f4ca249be02,64bedbdc2217c1ac32d19e4a,right,-1,0.4357,0.35,9,-0.000881261,0.2118,,,,,,103,0,103,0,1,,,,,
,,065887,001,2023-07-24_23h34.10.642,arm3_q,2022.2.5,Win32,60.0348202,60d7078c3e724cb9020fe786,64aeaab685a29f4ca249be02,64bedbdc2217c1ac32d19e4a,right,-1,0.4357,0.35,9,0.006039122,0.3303,,,,,,104,0,104,0,1,,,,,
,,065887,001,2023-07-24_23h34.10.642,arm3_q,2022.2.5,Win32,60.0348202,60d7078c3e724cb9020fe786,64aeaab685a29f4ca249be02,64bedbdc2217c1ac32d19e4a,right,-1,0.4357,0.35,9,0.002115416,0.2141,,,,,,105,0,105,0,1,,,,,
,,065887,001,2023-07-24_23h34.10.642,arm3_q,2022.2.5,Win32,60.0348202,60d7078c3e724cb9020fe786,64aeaab685a29f4ca249be02,64bedbdc2217c1ac32d19e4a,right,-1,0.4357,0.35,9,0.000822812,0.4223,,,,,,106,0,106,0,1,,,,,
,,065887,001,2023-07-24_23h34.10.642,arm3_q,2022.2.5,Win32,60.0348202,60d7078c3e724cb9020fe786,64aeaab685a29f4ca249be02,64bedbdc2217c1ac32d19e4a,down,-1,0.4357,0.35,10,0,0.6856,,,,,,107,0,107,0,1,,,,,
,,065887,001,2023-07-24_23h34.10.642,arm3_q,2022.2.5,Win32,60.0348202,60d7078c3e724cb9020fe786,64aeaab685a29f4ca249be02,64bedbdc2217c1ac32d19e4a,right,-1,0.4357,0.35,10,-0.013140311,0.4274,,,,,,108,0,108,0,1,,,,,
,,065887,001,2023-07-24_23h34.10.642,arm3_q,2022.2.5,Win32,60.0348202,60d7078c3e724cb9020fe786,64aeaab685a29f4ca249be02,64bedbdc2217c1ac32d19e4a,right,-1,0.4357,0.35,10,-0.013870554,0.2128,,,,,,109,0,109,0,1,,,,,
,,065887,001,2023-07-24_23h34.10.642,arm3_q,2022.2.5,Win32,60.0348202,60d7078c3e724cb9020fe786,64aeaab685a29f4ca249be02,64bedbdc2217c1ac32d19e4a,down,-1,0.4357,0.35,10,0,0.5144,,,,,,110,0,110,0,1,,,,,
,,065887,001,2023-07-24_23h34.10.642,arm3_q,2022.2.5,Win32,60.0348202,60d7078c3e724cb9020fe786,64aeaab685a29f4ca249be02,64bedbdc2217c1ac32d19e4a,right,-1,0.4357,0.35,10,-0.038695329,0.4124,,,,,,111,0,111,0,1,,,,,
,,065887,001,2023-07-24_23h34.10.642,arm3_q,2022.2.5,Win32,60.0348202,60d7078c3e724cb9020fe786,64aeaab685a29f4ca249be02,64bedbdc2217c1ac32d19e4a,right,-1,0.4357,0.35,10,-0.054629747,0.1857,,,,,,112,0,112,0,1,,,,,
,,065887,001,2023-07-24_23h34.10.642,arm3_q,2022.2.5,Win32,60.0348202,60d7078c3e724cb9020fe786,64aeaab685a29f4ca249be02,64bedbdc2217c1ac32d19e4a,down,1,0.4357,0.35,10,0,0.3978,,,,,,113,0,113,0,1,,,,,
,,065887,001,2023-07-24_23h34.10.642,arm3_q,2022.2.5,Win32,60.0348202,60d7078c3e724cb9020fe786,64aeaab685a29f4ca249be02,64bedbdc2217c1ac32d19e4a,right,1,0.4357,0.35,10,0.029786944,0.4294,,,,,,114,0,114,0,1,,,,,
,,065887,001,2023-07-24_23h34.10.642,arm3_q,2022.2.5,Win32,60.0348202,60d7078c3e724cb9020fe786,64aeaab685a29f4ca249be02,64bedbdc2217c1ac32d19e4a,right,1,0.4357,0.35,10,0.045645711,0.2319,,,,,,115,0,115,0,1,,,,,
,,065887,001,2023-07-24_23h34.10.642,arm3_q,2022.2.5,Win32,60.0348202,60d7078c3e724cb9020fe786,64aeaab685a29f4ca249be02,64bedbdc2217c1ac32d19e4a,up,-1,0.4357,0.35,11,0,0.4961,,,,,,116,0,116,0,1,,,,,
,,065887,001,2023-07-24_23h34.10.642,arm3_q,2022.2.5,Win32,60.0348202,60d7078c3e724cb9020fe786,64aeaab685a29f4ca249be02,64bedbdc2217c1ac32d19e4a,right,-1,0.4357,0.35,11,-0.007510722,0.4107,,,,,,117,0,117,0,1,,,,,
,,065887,001,2023-07-24_23h34.10.642,arm3_q,2022.2.5,Win32,60.0348202,60d7078c3e724cb9020fe786,64aeaab685a29f4ca249be02,64bedbdc2217c1ac32d19e4a,right,-1,0.4357,0.35,11,0.014151268,0.2151,,,,,,118,0,118,0,1,,,,,
,,065887,001,2023-07-24_23h34.10.642,arm3_q,2022.2.5,Win32,60.0348202,60d7078c3e724cb9020fe786,64aeaab685a29f4ca249be02,64bedbdc2217c1ac32d19e4a,up,1,0.4357,0.35,10,0,0.3961,,,,,,119,0,119,0,1,,,,,
,,065887,001,2023-07-24_23h34.10.642,arm3_q,2022.2.5,Win32,60.0348202,60d7078c3e724cb9020fe786,64aeaab685a29f4ca249be02,64bedbdc2217c1ac32d19e4a,right,1,0.4357,0.35,10,0.029706005,0.4272,,,,,,120,0,120,0,1,,,,,
,,065887,001,2023-07-24_23h34.10.642,arm3_q,2022.2.5,Win32,60.0348202,60d7078c3e724cb9020fe786,64aeaab685a29f4ca249be02,64bedbdc2217c1ac32d19e4a,right,1,0.4357,0.35,10,0.042076059,0.2277,,,,,,121,0,121,0,1,,,,,
,,065887,001,2023-07-24_23h34.10.642,arm3_q,2022.2.5,Win32,60.0348202,60d7078c3e724cb9020fe786,64aeaab685a29f4ca249be02,64bedbdc2217c1ac32d19e4a,up,1,0.4357,0.35,11,0,0.4047,,,,,,122,0,122,0,1,,,,,
,,065887,001,2023-07-24_23h34.10.642,arm3_q,2022.2.5,Win32,60.0348202,60d7078c3e724cb9020fe786,64aeaab685a29f4ca249be02,64bedbdc2217c1ac32d19e4a,right,1,0.4357,0.35,11,0.003218718,0.4495,,,,,,123,0,123,0,1,,,,,
,,065887,001,2023-07-24_23h34.10.642,arm3_q,2022.2.5,Win32,60.0348202,60d7078c3e724cb9020fe786,64aeaab685a29f4ca249be02,64bedbdc2217c1ac32d19e4a,right,1,0.4357,0.35,11,0.02381407,0.2188,,,,,,124,0,124,0,1,,,,,
,,065887,001,2023-07-24_23h34.10.642,arm3_q,2022.2.5,Win32,60.0348202,60d7078c3e724cb9020fe786,64aeaab685a29f4ca249be02,64bedbdc2217c1ac32d19e4a,up,-1,0.4357,0.35,12,0,0.4131,,,,,,125,0,125,0,1,,,,,
,,065887,001,2023-07-24_23h34.10.642,arm3_q,2022.2.5,Win32,60.0348202,60d7078c3e724cb9020fe786,64aeaab685a29f4ca249be02,64bedbdc2217c1ac32d19e4a,right,-1,0.4357,0.35,12,-0.002988889,0.4369,,,,,,126,0,126,0,1,,,,,
,,065887,001,2023-07-24_23h34.10.642,arm3_q,2022.2.5,Win32,60.0348202,60d7078c3e724cb9020fe786,64aeaab685a29f4ca249be02,64bedbdc2217c1ac32d19e4a,right,-1,0.4357,0.35,12,0.003750311,0.2337,,,,,,127,0,127,0,1,,,,,
,,065887,001,2023-07-24_23h34.10.642,arm3_q,2022.2.5,Win32,60.0348202,60d7078c3e724cb9020fe786,64aeaab685a29f4ca249be02,64bedbdc2217c1ac32d19e4a,up,-1,0.4357,0.35,12,0,0.9799,,,,,,128,0,128,0,1,,,,,
,,065887,001,2023-07-24_23h34.10.642,arm3_q,2022.2.5,Win32,60.0348202,60d7078c3e724cb9020fe786,64aeaab685a29f4ca249be02,64bedbdc2217c1ac32d19e4a,right,-1,0.4357,0.35,12,-0.008833326,0.5257,,,,,,129,0,129,0,1,,,,,
,,065887,001,2023-07-24_23h34.10.642,arm3_q,2022.2.5,Win32,60.0348202,60d7078c3e724cb9020fe786,64aeaab685a29f4ca249be02,64bedbdc2217c1ac32d19e4a,right,-1,0.4357,0.35,12,-0.032126916,0.1958,,,,,,130,0,130,0,1,,,,,
,,065887,001,2023-07-24_23h34.10.642,arm3_q,2022.2.5,Win32,60.0348202,60d7078c3e724cb9020fe786,64aeaab685a29f4ca249be02,64bedbdc2217c1ac32d19e4a,right,-1,0.4357,0.35,12,-0.007785829,0.5553,,,,,,131,0,131,0,1,,,,,
,,065887,001,2023-07-24_23h34.10.642,arm3_q,2022.2.5,Win32,60.0348202,60d7078c3e724cb9020fe786,64aeaab685a29f4ca249be02,64bedbdc2217c1ac32d19e4a,right,-1,0.4357,0.35,12,-0.00792563,0.4985,,,,,,132,0,132,0,1,,,,,
,,065887,001,2023-07-24_23h34.10.642,arm3_q,2022.2.5,Win32,60.0348202,60d7078c3e724cb9020fe786,64aeaab685a29f4ca249be02,64bedbdc2217c1ac32d19e4a,down,-1,0.4357,0.35,13,0,0.5362,,,,,,133,0,133,0,1,,,,,
,,065887,001,2023-07-24_23h34.10.642,arm3_q,2022.2.5,Win32,60.0348202,60d7078c3e724cb9020fe786,64aeaab685a29f4ca249be02,64bedbdc2217c1ac32d19e4a,right,-1,0.4357,0.35,13,-0.014405959,0.4517,,,,,,134,0,134,0,1,,,,,
,,065887,001,2023-07-24_23h34.10.642,arm3_q,2022.2.5,Win32,60.0348202,60d7078c3e724cb9020fe786,64aeaab685a29f4ca249be02,64bedbdc2217c1ac32d19e4a,right,-1,0.4357,0.35,13,-0.02860629,0.218,,,,,,135,0,135,0,1,,,,,
,,065887,001,2023-07-24_23h34.10.642,arm3_q,2022.2.5,Win32,60.0348202,60d7078c3e724cb9020fe786,64aeaab685a29f4ca249be02,64bedbdc2217c1ac32d19e4a,down,1,0.4357,0.35,13,0,0.4497,,,,,,136,0,136,0,1,,,,,
,,065887,001,2023-07-24_23h34.10.642,arm3_q,2022.2.5,Win32,60.0348202,60d7078c3e724cb9020fe786,64aeaab685a29f4ca249be02,64bedbdc2217c1ac32d19e4a,right,1,0.4357,0.35,13,0.007755971,0.43,,,,,,137,0,137,0,1,,,,,
,,065887,001,2023-07-24_23h34.10.642,arm3_q,2022.2.5,Win32,60.0348202,60d7078c3e724cb9020fe786,64aeaab685a29f4ca249be02,64bedbdc2217c1ac32d19e4a,right,1,0.4357,0.35,13,-0.013022363,0.1883,,,,,,138,0,138,0,1,,,,,
,,065887,001,2023-07-24_23h34.10.642,arm3_q,2022.2.5,Win32,60.0348202,60d7078c3e724cb9020fe786,64aeaab685a29f4ca249be02,64bedbdc2217c1ac32d19e4a,right,1,0.4357,0.35,13,-0.009335048,0.5702,,,,,,139,0,139,0,1,,,,,
,,065887,001,2023-07-24_23h34.10.642,arm3_q,2022.2.5,Win32,60.0348202,60d7078c3e724cb9020fe786,64aeaab685a29f4ca249be02,64bedbdc2217c1ac32d19e4a,right,1,0.4357,0.35,13,0.007990992,0.3954,,,,,,140,0,140,0,1,,,,,
,,065887,001,2023-07-24_23h34.10.642,arm3_q,2022.2.5,Win32,60.0348202,60d7078c3e724cb9020fe786,64aeaab685a29f4ca249be02,64bedbdc2217c1ac32d19e4a,up,-1,0.4357,0.35,13,0,0.3638,,,,,,141,0,141,0,1,,,,,
,,065887,001,2023-07-24_23h34.10.642,arm3_q,2022.2.5,Win32,60.0348202,60d7078c3e724cb9020fe786,64aeaab685a29f4ca249be02,64bedbdc2217c1ac32d19e4a,right,-1,0.4357,0.35,13,0.012624067,0.3963,,,,,,142,0,142,0,1,,,,,
,,065887,001,2023-07-24_23h34.10.642,arm3_q,2022.2.5,Win32,60.0348202,60d7078c3e724cb9020fe786,64aeaab685a29f4ca249be02,64bedbdc2217c1ac32d19e4a,right,-1,0.4357,0.35,13,0.018661835,0.2195,,,,,,143,0,143,0,1,,,,,
,,065887,001,2023-07-24_23h34.10.642,arm3_q,2022.2.5,Win32,60.0348202,60d7078c3e724cb9020fe786,64aeaab685a29f4ca249be02,64bedbdc2217c1ac32d19e4a,up,-1,0.4357,0.35,13,0,0.4308,,,,,,144,0,144,0,1,,,,,
,,065887,001,2023-07-24_23h34.10.642,arm3_q,2022.2.5,Win32,60.0348202,60d7078c3e724cb9020fe786,64aeaab685a29f4ca249be02,64bedbdc2217c1ac32d19e4a,right,-1,0.4357,0.35,13,-0.007740918,0.426,,,,,,145,0,145,0,1,,,,,
,,065887,001,2023-07-24_23h34.10.642,arm3_q,2022.2.5,Win32,60.0348202,60d7078c3e724cb9020fe786,64aeaab685a29f4ca249be02,64bedbdc2217c1ac32d19e4a,right,-1,0.4357,0.35,13,-0.016891597,0.1872,,,,,,146,0,146,0,1,,,,,
,,065887,001,2023-07-24_23h34.10.642,arm3_q,2022.2.5,Win32,60.0348202,60d7078c3e724cb9020fe786,64aeaab685a29f4ca249be02,64bedbdc2217c1ac32d19e4a,down,1,0.4357,0.35,14,0,0.5816,,,,,,147,0,147,0,1,,,,,
,,065887,001,2023-07-24_23h34.10.642,arm3_q,2022.2.5,Win32,60.0348202,60d7078c3e724cb9020fe786,64aeaab685a29f4ca249be02,64bedbdc2217c1ac32d19e4a,right,1,0.4357,0.35,14,0.010729692,0.3919,,,,,,148,0,148,0,1,,,,,
,,065887,001,2023-07-24_23h34.10.642,arm3_q,2022.2.5,Win32,60.0348202,60d7078c3e724cb9020fe786,64aeaab685a29f4ca249be02,64bedbdc2217c1ac32d19e4a,right,1,0.4357,0.35,14,0.014666955,0.2086,,,,,,149,0,149,0,1,,,,,
,,065887,001,2023-07-24_23h34.10.642,arm3_q,2022.2.5,Win32,60.0348202,60d7078c3e724cb9020fe786,64aeaab685a29f4ca249be02,64bedbdc2217c1ac32d19e4a,up,1,0.4357,0.35,14,0,0.4634,,,,,,150,0,150,0,1,,,,,
,,065887,001,2023-07-24_23h34.10.642,arm3_q,2022.2.5,Win32,60.0348202,60d7078c3e724cb9020fe786,64aeaab685a29f4ca249be02,64bedbdc2217c1ac32d19e4a,right,1,0.4357,0.35,14,0.014990049,0.4287,,,,,,151,0,151,0,1,,,,,
,,065887,001,2023-07-24_23h34.10.642,arm3_q,2022.2.5,Win32,60.0348202,60d7078c3e724cb9020fe786,64aeaab685a29f4ca249be02,64bedbdc2217c1ac32d19e4a,right,1,0.4357,0.35,14,0.030584634,0.1875,,,,,,152,0,152,0,1,,,,,
,,065887,001,2023-07-24_23h34.10.642,arm3_q,2022.2.5,Win32,60.0348202,60d7078c3e724cb9020fe786,64aeaab685a29f4ca249be02,64bedbdc2217c1ac32d19e4a,up,-1,0.4357,0.35,15,0,0.4144,,,,,,153,0,153,0,1,,,,,
,,065887,001,2023-07-24_23h34.10.642,arm3_q,2022.2.5,Win32,60.0348202,60d7078c3e724cb9020fe786,64aeaab685a29f4ca249be02,64bedbdc2217c1ac32d19e4a,right,-1,0.4357,0.35,15,-0.013273635,0.4166,,,,,,154,0,154,0,1,,,,,
,,065887,001,2023-07-24_23h34.10.642,arm3_q,2022.2.5,Win32,60.0348202,60d7078c3e724cb9020fe786,64aeaab685a29f4ca249be02,64bedbdc2217c1ac32d19e4a,right,-1,0.4357,0.35,15,-0.029014618,0.2154,,,,,,155,0,155,0,1,,,,,
,,065887,001,2023-07-24_23h34.10.642,arm3_q,2022.2.5,Win32,60.0348202,60d7078c3e724cb9020fe786,64aeaab685a29f4ca249be02,64bedbdc2217c1ac32d19e4a,down,-1,0.4357,0.35,15,0,0.4647,,,,,,156,0,156,0,1,,,,,
,,065887,001,2023-07-24_23h34.10.642,arm3_q,2022.2.5,Win32,60.0348202,60d7078c3e724cb9020fe786,64aeaab685a29f4ca249be02,64bedbdc2217c1ac32d19e4a,right,-1,0.4357,0.35,15,0.009836354,0.4089,,,,,,157,0,157,0,1,,,,,
,,065887,001,2023-07-24_23h34.10.642,arm3_q,2022.2.5,Win32,60.0348202,60d7078c3e724cb9020fe786,64aeaab685a29f4ca249be02,64bedbdc2217c1ac32d19e4a,right,-1,0.4357,0.35,15,-0.020282395,0.2001,,,,,,158,0,158,0,1,,,,,
,,065887,001,2023-07-24_23h34.10.642,arm3_q,2022.2.5,Win32,60.0348202,60d7078c3e724cb9020fe786,64aeaab685a29f4ca249be02,64bedbdc2217c1ac32d19e4a,down,-1,0.4357,0.35,16,0,0.4311,,,,,,159,0,159,0,1,,,,,
,,065887,001,2023-07-24_23h34.10.642,arm3_q,2022.2.5,Win32,60.0348202,60d7078c3e724cb9020fe786,64aeaab685a29f4ca249be02,64bedbdc2217c1ac32d19e4a,right,-1,0.4357,0.35,16,0.015412938,0.4768,,,,,,160,0,160,0,1,,,,,
,,065887,001,2023-07-24_23h34.10.642,arm3_q,2022.2.5,Win32,60.0348202,60d7078c3e724cb9020fe786,64aeaab685a29f4ca249be02,64bedbdc2217c1ac32d19e4a,right,-1,0.4357,0.35,16,0.025870149,0.1879,,,,,,161,0,161,0,1,,,,,
,,065887,001,2023-07-24_23h34.10.642,arm3_q,2022.2.5,Win32,60.0348202,60d7078c3e724cb9020fe786,64aeaab685a29f4ca249be02,64bedbdc2217c1ac32d19e4a,up,-1,0.4357,0.35,15,0,0.4606,,,,,,162,0,162,0,1,,,,,
,,065887,001,2023-07-24_23h34.10.642,arm3_q,2022.2.5,Win32,60.0348202,60d7078c3e724cb9020fe786,64aeaab685a29f4ca249be02,64bedbdc2217c1ac32d19e4a,right,-1,0.4357,0.35,15,-0.00780924,0.4097,,,,,,163,0,163,0,1,,,,,
,,065887,001,2023-07-24_23h34.10.642,arm3_q,2022.2.5,Win32,60.0348202,60d7078c3e724cb9020fe786,64aeaab685a29f4ca249be02,64bedbdc2217c1ac32d19e4a,right,-1,0.4357,0.35,15,0.002579493,0.2106,,,,,,164,0,164,0,1,,,,,
,,065887,001,2023-07-24_23h34.10.642,arm3_q,2022.2.5,Win32,60.0348202,60d7078c3e724cb9020fe786,64aeaab685a29f4ca249be02,64bedbdc2217c1ac32d19e4a,down,-1,0.4357,0.35,16,0,0.3636,,,,,,165,0,165,0,1,,,,,
,,065887,001,2023-07-24_23h34.10.642,arm3_q,2022.2.5,Win32,60.0348202,60d7078c3e724cb9020fe786,64aeaab685a29f4ca249be02,64bedbdc2217c1ac32d19e4a,right,-1,0.4357,0.35,16,-0.018200022,0.3833,,,,,,166,0,166,0,1,,,,,
,,065887,001,2023-07-24_23h34.10.642,arm3_q,2022.2.5,Win32,60.0348202,60d7078c3e724cb9020fe786,64aeaab685a29f4ca249be02,64bedbdc2217c1ac32d19e4a,right,-1,0.4357,0.35,16,-0.023804466,0.1971,,,,,,167,0,167,0,1,,,,,
,,065887,001,2023-07-24_23h34.10.642,arm3_q,2022.2.5,Win32,60.0348202,60d7078c3e724cb9020fe786,64aeaab685a29f4ca249be02,64bedbdc2217c1ac32d19e4a,down,-1,0.4357,0.35,16,0,0.4286,,,,,,168,0,168,0,1,,,,,
,,065887,001,2023-07-24_23h34.10.642,arm3_q,2022.2.5,Win32,60.0348202,60d7078c3e724cb9020fe786,64aeaab685a29f4ca249be02,64bedbdc2217c1ac32d19e4a,right,-1,0.4357,0.35,16,0.035371965,0.3946,,,,,,169,0,169,0,1,,,,,
,,065887,001,2023-07-24_23h34.10.642,arm3_q,2022.2.5,Win32,60.0348202,60d7078c3e724cb9020fe786,64aeaab685a29f4ca249be02,64bedbdc2217c1ac32d19e4a,right,-1,0.4357,0.35,16,0.03760708,0.2306,,,,,,170,0,170,0,1,,,,,
,,065887,001,2023-07-24_23h34.10.642,arm3_q,2022.2.5,Win32,60.0348202,60d7078c3e724cb9020fe786,64aeaab685a29f4ca249be02,64bedbdc2217c1ac32d19e4a,up,-1,0.4357,0.35,15,0,0.4791,,,,,,171,0,171,0,1,,,,,
,,065887,001,2023-07-24_23h34.10.642,arm3_q,2022.2.5,Win32,60.0348202,60d7078c3e724cb9020fe786,64aeaab685a29f4ca249be02,64bedbdc2217c1ac32d19e4a,right,-1,0.4357,0.35,15,-0.021302017,0.3808,,,,,,172,0,172,0,1,,,,,
,,065887,001,2023-07-24_23h34.10.642,arm3_q,2022.2.5,Win32,60.0348202,60d7078c3e724cb9020fe786,64aeaab685a29f4ca249be02,64bedbdc2217c1ac32d19e4a,right,-1,0.4357,0.35,15,-0.03486024,0.2294,,,,,,173,0,173,0,1,,,,,
,,065887,001,2023-07-24_23h34.10.642,arm3_q,2022.2.5,Win32,60.0348202,60d7078c3e724cb9020fe786,64aeaab685a29f4ca249be02,64bedbdc2217c1ac32d19e4a,down,-1,0.4357,0.35,16,0,0.5005,,,,,,174,0,174,0,1,,,,,
,,065887,001,2023-07-24_23h34.10.642,arm3_q,2022.2.5,Win32,60.0348202,60d7078c3e724cb9020fe786,64aeaab685a29f4ca249be02,64bedbdc2217c1ac32d19e4a,right,-1,0.4357,0.35,16,-0.036327266,0.5775,,,,,,175,0,175,0,1,,,,,
,,065887,001,2023-07-24_23h34.10.642,arm3_q,2022.2.5,Win32,60.0348202,60d7078c3e724cb9020fe786,64aeaab685a29f4ca249be02,64bedbdc2217c1ac32d19e4a,right,-1,0.4357,0.35,16,-0.043604328,0.1977,,,,,,176,0,176,0,1,,,,,
,,065887,001,2023-07-24_23h34.10.642,arm3_q,2022.2.5,Win32,60.0348202,60d7078c3e724cb9020fe786,64aeaab685a29f4ca249be02,64bedbdc2217c1ac32d19e4a,down,1,0.4357,0.35,17,0,0.3634,,,,,,177,0,177,0,1,,,,,
,,065887,001,2023-07-24_23h34.10.642,arm3_q,2022.2.5,Win32,60.0348202,60d7078c3e724cb9020fe786,64aeaab685a29f4ca249be02,64bedbdc2217c1ac32d19e4a,right,1,0.4357,0.35,17,-0.015100892,0.409,,,,,,178,0,178,0,1,,,,,
,,065887,001,2023-07-24_23h34.10.642,arm3_q,2022.2.5,Win32,60.0348202,60d7078c3e724cb9020fe786,64aeaab685a29f4ca249be02,64bedbdc2217c1ac32d19e4a,right,1,0.4357,0.35,17,-0.005115499,0.2123,,,,,,179,0,179,0,1,,,,,
,,065887,001,2023-07-24_23h34.10.642,arm3_q,2022.2.5,Win32,60.0348202,60d7078c3e724cb9020fe786,64aeaab685a29f4ca249be02,64bedbdc2217c1ac32d19e4a,down,1,0.4357,0.35,16,0,0.4949,,,,,,180,0,180,0,1,,,,,
,,065887,001,2023-07-24_23h34.10.642,arm3_q,2022.2.5,Win32,60.0348202,60d7078c3e724cb9020fe786,64aeaab685a29f4ca249be02,64bedbdc2217c1ac32d19e4a,right,1,0.4357,0.35,16,0.004655198,0.413,,,,,,181,0,181,0,1,,,,,
,,065887,001,2023-07-24_23h34.10.642,arm3_q,2022.2.5,Win32,60.0348202,60d7078c3e724cb9020fe786,64aeaab685a29f4ca249be02,64bedbdc2217c1ac32d19e4a,right,1,0.4357,0.35,16,0.05103716,0.2098,,,,,,182,0,182,0,1,,,,,
,,065887,001,2023-07-24_23h34.10.642,arm3_q,2022.2.5,Win32,60.0348202,60d7078c3e724cb9020fe786,64aeaab685a29f4ca249be02,64bedbdc2217c1ac32d19e4a,up,1,0.4357,0.35,17,0,0.4559,,,,,,183,0,183,0,1,,,,,
,,065887,001,2023-07-24_23h34.10.642,arm3_q,2022.2.5,Win32,60.0348202,60d7078c3e724cb9020fe786,64aeaab685a29f4ca249be02,64bedbdc2217c1ac32d19e4a,right,1,0.4357,0.35,17,0.007252256,0.3771,,,,,,184,0,184,0,1,,,,,
,,065887,001,2023-07-24_23h34.10.642,arm3_q,2022.2.5,Win32,60.0348202,60d7078c3e724cb9020fe786,64aeaab685a29f4ca249be02,64bedbdc2217c1ac32d19e4a,right,1,0.4357,0.35,17,0.006172651,0.2172,,,,,,185,0,185,0,1,,,,,
,,065887,001,2023-07-24_23h34.10.642,arm3_q,2022.2.5,Win32,60.0348202,60d7078c3e724cb9020fe786,64aeaab685a29f4ca249be02,64bedbdc2217c1ac32d19e4a,up,1,0.4357,0.35,17,0,0.5155,,,,,,186,0,186,0,1,,,,,
,,065887,001,2023-07-24_23h34.10.642,arm3_q,2022.2.5,Win32,60.0348202,60d7078c3e724cb9020fe786,64aeaab685a29f4ca249be02,64bedbdc2217c1ac32d19e4a,right,1,0.4357,0.35,17,-0.00103712,0.433,,,,,,187,0,187,0,1,,,,,
,,065887,001,2023-07-24_23h34.10.642,arm3_q,2022.2.5,Win32,60.0348202,60d7078c3e724cb9020fe786,64aeaab685a29f4ca249be02,64bedbdc2217c1ac32d19e4a,right,1,0.4357,0.35,17,0.02545501,0.2649,,,,,,188,0,188,0,1,,,,,
,,065887,001,2023-07-24_23h34.10.642,arm3_q,2022.2.5,Win32,60.0348202,60d7078c3e724cb9020fe786,64aeaab685a29f4ca249be02,64bedbdc2217c1ac32d19e4a,right,1,0.4357,0.35,17,-0.004487292,0.6342,,,,,,189,0,189,0,1,,,,,
,,065887,001,2023-07-24_23h34.10.642,arm3_q,2022.2.5,Win32,60.0348202,60d7078c3e724cb9020fe786,64aeaab685a29f4ca249be02,64bedbdc2217c1ac32d19e4a,up,-1,0.4357,0.35,17,0,0.8592,,,,,,190,0,190,0,1,,,,,
,,065887,001,2023-07-24_23h34.10.642,arm3_q,2022.2.5,Win32,60.0348202,60d7078c3e724cb9020fe786,64aeaab685a29f4ca249be02,64bedbdc2217c1ac32d19e4a,right,-1,0.4357,0.35,17,-0.010198141,0.3343,,,,,,191,0,191,0,1,,,,,
,,065887,001,2023-07-24_23h34.10.642,arm3_q,2022.2.5,Win32,60.0348202,60d7078c3e724cb9020fe786,64aeaab685a29f4ca249be02,64bedbdc2217c1ac32d19e4a,right,-1,0.4357,0.35,17,-0.029713516,0.2636,,,,,,192,0,192,0,1,,,,,
,,065887,001,2023-07-24_23h34.10.642,arm3_q,2022.2.5,Win32,60.0348202,60d7078c3e724cb9020fe786,64aeaab685a29f4ca249be02,64bedbdc2217c1ac32d19e4a,down,-1,0.4357,0.35,18,0,0.3965,,,,,,193,0,193,0,1,,,,,
,,065887,001,2023-07-24_23h34.10.642,arm3_q,2022.2.5,Win32,60.0348202,60d7078c3e724cb9020fe786,64aeaab685a29f4ca249be02,64bedbdc2217c1ac32d19e4a,right,-1,0.4357,0.35,18,-0.019705036,0.4115,,,,,,194,0,194,0,1,,,,,
,,065887,001,2023-07-24_23h34.10.642,arm3_q,2022.2.5,Win32,60.0348202,60d7078c3e724cb9020fe786,64aeaab685a29f4ca249be02,64bedbdc2217c1ac32d19e4a,right,-1,0.4357,0.35,18,-0.013013901,0.262,,,,,,195,0,195,0,1,,,,,
,,065887,001,2023-07-24_23h34.10.642,arm3_q,2022.2.5,Win32,60.0348202,60d7078c3e724cb9020fe786,64aeaab685a29f4ca249be02,64bedbdc2217c1ac32d19e4a,down,-1,0.4357,0.35,19,0,0.4018,,,,,,196,0,196,0,1,,,,,
,,065887,001,2023-07-24_23h34.10.642,arm3_q,2022.2.5,Win32,60.0348202,60d7078c3e724cb9020fe786,64aeaab685a29f4ca249be02,64bedbdc2217c1ac32d19e4a,right,-1,0.4357,0.35,19,0.011747513,0.4477,,,,,,197,0,197,0,1,,,,,
,,065887,001,2023-07-24_23h34.10.642,arm3_q,2022.2.5,Win32,60.0348202,60d7078c3e724cb9020fe786,64aeaab685a29f4ca249be02,64bedbdc2217c1ac32d19e4a,right,-1,0.4357,0.35,19,-0.007462692,0.2488,,,,,,198,0,198,0,1,,,,,
,,065887,001,2023-07-24_23h34.10.642,arm3_q,2022.2.5,Win32,60.0348202,60d7078c3e724cb9020fe786,64aeaab685a29f4ca249be02,64bedbdc2217c1ac32d19e4a,down,-1,0.4357,0.35,19,0,0.4274,,,,,,199,0,199,0,1,,,,,
,,065887,001,2023-07-24_23h34.10.642,arm3_q,2022.2.5,Win32,60.0348202,60d7078c3e724cb9020fe786,64aeaab685a29f4ca249be02,64bedbdc2217c1ac32d19e4a,right,-1,0.4357,0.35,19,-0.012387551,0.4307,,,,,,200,0,200,0,1,,,,,
,,065887,001,2023-07-24_23h34.10.642,arm3_q,2022.2.5,Win32,60.0348202,60d7078c3e724cb9020fe786,64aeaab685a29f4ca249be02,64bedbdc2217c1ac32d19e4a,right,-1,0.4357,0.35,19,-0.062815142,0.1847,,,,,,201,0,201,0,1,,,,,
,,065887,001,2023-07-24_23h34.10.642,arm3_q,2022.2.5,Win32,60.0348202,60d7078c3e724cb9020fe786,64aeaab685a29f4ca249be02,64bedbdc2217c1ac32d19e4a,down,-1,0.4357,0.35,19,0,0.4308,,,,,,202,0,202,0,1,,,,,
,,065887,001,2023-07-24_23h34.10.642,arm3_q,2022.2.5,Win32,60.0348202,60d7078c3e724cb9020fe786,64aeaab685a29f4ca249be02,64bedbdc2217c1ac32d19e4a,right,-1,0.4357,0.35,19,-0.008862549,0.4155,,,,,,203,0,203,0,1,,,,,
,,065887,001,2023-07-24_23h34.10.642,arm3_q,2022.2.5,Win32,60.0348202,60d7078c3e724cb9020fe786,64aeaab685a29f4ca249be02,64bedbdc2217c1ac32d19e4a,right,-1,0.4357,0.35,19,-0.015333992,0.2299,,,,,,204,0,204,0,1,,,,,
,,065887,001,2023-07-24_23h34.10.642,arm3_q,2022.2.5,Win32,60.0348202,60d7078c3e724cb9020fe786,64aeaab685a29f4ca249be02,64bedbdc2217c1ac32d19e4a,down,-1,0.4357,0.35,19,0,0.4143,,,,,,205,0,205,0,1,,,,,
,,065887,001,2023-07-24_23h34.10.642,arm3_q,2022.2.5,Win32,60.0348202,60d7078c3e724cb9020fe786,64aeaab685a29f4ca249be02,64bedbdc2217c1ac32d19e4a,right,-1,0.4357,0.35,19,0.004148674,0.4524,,,,,,206,0,206,0,1,,,,,
,,065887,001,2023-07-24_23h34.10.642,arm3_q,2022.2.5,Win32,60.0348202,60d7078c3e724cb9020fe786,64aeaab685a29f4ca249be02,64bedbdc2217c1ac32d19e4a,right,-1,0.4357,0.35,19,-0.011407413,0.2024,,,,,,207,0,207,0,1,,,,,
,,065887,001,2023-07-24_23h34.10.642,arm3_q,2022.2.5,Win32,60.0348202,60d7078c3e724cb9020fe786,64aeaab685a29f4ca249be02,64bedbdc2217c1ac32d19e4a,down,-1,0.4357,0.35,19,0,0.4194,,,,,,208,0,208,0,1,,,,,
,,065887,001,2023-07-24_23h34.10.642,arm3_q,2022.2.5,Win32,60.0348202,60d7078c3e724cb9020fe786,64aeaab685a29f4ca249be02,64bedbdc2217c1ac32d19e4a,right,-1,0.4357,0.35,19,0.020230172,0.463,,,,,,209,0,209,0,1,,,,,
,,065887,001,2023-07-24_23h34.10.642,arm3_q,2022.2.5,Win32,60.0348202,60d7078c3e724cb9020fe786,64aeaab685a29f4ca249be02,64bedbdc2217c1ac32d19e4a,right,-1,0.4357,0.35,19,0.036938076,0.2479,,,,,,210,0,210,0,1,,,,,
,,065887,001,2023-07-24_23h34.10.642,arm3_q,2022.2.5,Win32,60.0348202,60d7078c3e724cb9020fe786,64aeaab685a29f4ca249be02,64bedbdc2217c1ac32d19e4a,up,1,0.4357,0.35,19,0,0.4281,,,,,,211,0,211,0,1,,,,,
,,065887,001,2023-07-24_23h34.10.642,arm3_q,2022.2.5,Win32,60.0348202,60d7078c3e724cb9020fe786,64aeaab685a29f4ca249be02,64bedbdc2217c1ac32d19e4a,right,1,0.4357,0.35,19,0.005237313,0.4704,,,,,,212,0,212,0,1,,,,,
,,065887,001,2023-07-24_23h34.10.642,arm3_q,2022.2.5,Win32,60.0348202,60d7078c3e724cb9020fe786,64aeaab685a29f4ca249be02,64bedbdc2217c1ac32d19e4a,right,1,0.4357,0.35,19,0.032686809,0.2063,,,,,,213,0,213,0,1,,,,,
,,065887,001,2023-07-24_23h34.10.642,arm3_q,2022.2.5,Win32,60.0348202,60d7078c3e724cb9020fe786,64aeaab685a29f4ca249be02,64bedbdc2217c1ac32d19e4a,up,1,0.4357,0.35,20,0,0.4021,,,,,,214,0,214,0,1,,,,,
,,065887,001,2023-07-24_23h34.10.642,arm3_q,2022.2.5,Win32,60.0348202,60d7078c3e724cb9020fe786,64aeaab685a29f4ca249be02,64bedbdc2217c1ac32d19e4a,right,1,0.4357,0.35,20,0.025916327,0.4589,,,,,,215,0,215,0,1,,,,,
,,065887,001,2023-07-24_23h34.10.642,arm3_q,2022.2.5,Win32,60.0348202,60d7078c3e724cb9020fe786,64aeaab685a29f4ca249be02,64bedbdc2217c1ac32d19e4a,right,1,0.4357,0.35,20,0.046462086,0.181,,,,,,216,0,216,0,1,,,,,
,,065887,001,2023-07-24_23h34.10.642,arm3_q,2022.2.5,Win32,60.0348202,60d7078c3e724cb9020fe786,64aeaab685a29f4ca249be02,64bedbdc2217c1ac32d19e4a,up,-1,0.4357,0.35,21,0,0.419,,,,,,217,0,217,0,1,,,,,
,,065887,001,2023-07-24_23h34.10.642,arm3_q,2022.2.5,Win32,60.0348202,60d7078c3e724cb9020fe786,64aeaab685a29f4ca249be02,64bedbdc2217c1ac32d19e4a,right,-1,0.4357,0.35,21,-0.014595571,0.4463,,,,,,218,0,218,0,1,,,,,
,,065887,001,2023-07-24_23h34.10.642,arm3_q,2022.2.5,Win32,60.0348202,60d7078c3e724cb9020fe786,64aeaab685a29f4ca249be02,64bedbdc2217c1ac32d19e4a,right,-1,0.4357,0.35,21,-0.059783894,0.243,,,,,,219,0,219,0,1,,,,,
,,065887,001,2023-07-24_23h34.10.642,arm3_q,2022.2.5,Win32,60.0348202,60d7078c3e724cb9020fe786,64aeaab685a29f4ca249be02,64bedbdc2217c1ac32d19e4a,up,-1,0.4357,0.35,21,0,0.4348,,,,,,220,0,220,0,1,,,,,
,,065887,001,2023-07-24_23h34.10.642,arm3_q,2022.2.5,Win32,60.0348202,60d7078c3e724cb9020fe786,64aeaab685a29f4ca249be02,64bedbdc2217c1ac32d19e4a,right,-1,0.4357,0.35,21,0.019338222,0.4517,,,,,,221,0,221,0,1,,,,,
,,065887,001,2023-07-24_23h34.10.642,arm3_q,2022.2.5,Win32,60.0348202,60d7078c3e724cb9020fe786,64aeaab685a29f4ca249be02,64bedbdc2217c1ac32d19e4a,right,-1,0.4357,0.35,21,-0.032308041,0.2356,,,,,,222,0,222,0,1,,,,,
,,065887,001,2023-07-24_23h34.10.642,arm3_q,2022.2.5,Win32,60.0348202,60d7078c3e724cb9020fe786,64aeaab685a29f4ca249be02,64bedbdc2217c1ac32d19e4a,down,-1,0.4357,0.35,21,0,0.3973,,,,,,223,0,223,0,1,,,,,
,,065887,001,2023-07-24_23h34.10.642,arm3_q,2022.2.5,Win32,60.0348202,60d7078c3e724cb9020fe786,64aeaab685a29f4ca249be02,64bedbdc2217c1ac32d19e4a,right,-1,0.4357,0.35,21,0.018573506,0.6926,,,,,,224,0,224,0,1,,,,,
,,065887,001,2023-07-24_23h34.10.642,arm3_q,2022.2.5,Win32,60.0348202,60d7078c3e724cb9020fe786,64aeaab685a29f4ca249be02,64bedbdc2217c1ac32d19e4a,up,-1,0.4357,0.35,21,0,0.4642,,,,,,225,0,225,0,1,,,,,
,,065887,001,2023-07-24_23h34.10.642,arm3_q,2022.2.5,Win32,60.0348202,60d7078c3e724cb9020fe786,64aeaab685a29f4ca249be02,64bedbdc2217c1ac32d19e4a,right,-1,0.4357,0.35,21,-0.035747153,0.4478,,,,,,226,0,226,0,1,,,,,
,,065887,001,2023-07-24_23h34.10.642,arm3_q,2022.2.5,Win32,60.0348202,60d7078c3e724cb9020fe786,64aeaab685a29f4ca249be02,64bedbdc2217c1ac32d19e4a,right,-1,0.4357,0.35,21,-0.08391778,0.2197,,,,,,227,0,227,0,1,,,,,
,,065887,001,2023-07-24_23h34.10.642,arm3_q,2022.2.5,Win32,60.0348202,60d7078c3e724cb9020fe786,64aeaab685a29f4ca249be02,64bedbdc2217c1ac32d19e4a,down,-1,0.4357,0.35,22,0,0.3984,,,,,,228,0,228,0,1,,,,,
,,065887,001,2023-07-24_23h34.10.642,arm3_q,2022.2.5,Win32,60.0348202,60d7078c3e724cb9020fe786,64aeaab685a29f4ca249be02,64bedbdc2217c1ac32d19e4a,right,-1,0.4357,0.35,22,-0.045523645,0.5585,,,,,,229,0,229,0,1,,,,,
,,065887,001,2023-07-24_23h34.10.642,arm3_q,2022.2.5,Win32,60.0348202,60d7078c3e724cb9020fe786,64aeaab685a29f4ca249be02,64bedbdc2217c1ac32d19e4a,right,-1,0.4357,0.35,22,-0.031564631,0.2153,,,,,,230,0,230,0,1,,,,,
,,065887,001,2023-07-24_23h34.10.642,arm3_q,2022.2.5,Win32,60.0348202,60d7078c3e724cb9020fe786,64aeaab685a29f4ca249be02,64bedbdc2217c1ac32d19e4a,down,-1,0.4357,0.35,22,0,0.5172,,,,,,231,0,231,0,1,,,,,
,,065887,001,2023-07-24_23h34.10.642,arm3_q,2022.2.5,Win32,60.0348202,60d7078c3e724cb9020fe786,64aeaab685a29f4ca249be02,64bedbdc2217c1ac32d19e4a,right,-1,0.4357,0.35,22,-0.017690098,0.4279,,,,,,232,0,232,0,1,,,,,
,,065887,001,2023-07-24_23h34.10.642,arm3_q,2022.2.5,Win32,60.0348202,60d7078c3e724cb9020fe786,64aeaab685a29f4ca249be02,64bedbdc2217c1ac32d19e4a,right,-1,0.4357,0.35,22,-0.010028122,0.1888,,,,,,233,0,233,0,1,,,,,
,,065887,001,2023-07-24_23h34.10.642,arm3_q,2022.2.5,Win32,60.0348202,60d7078c3e724cb9020fe786,64aeaab685a29f4ca249be02,64bedbdc2217c1ac32d19e4a,up,1,0.4357,0.35,22,0,0.4557,,,,,,234,0,234,0,1,,,,,
,,065887,001,2023-07-24_23h34.10.642,arm3_q,2022.2.5,Win32,60.0348202,60d7078c3e724cb9020fe786,64aeaab685a29f4ca249be02,64bedbdc2217c1ac32d19e4a,right,1,0.4357,0.35,22,0.058944442,0.4302,,,,,,235,0,235,0,1,,,,,
,,065887,001,2023-07-24_23h34.10.642,arm3_q,2022.2.5,Win32,60.0348202,60d7078c3e724cb9020fe786,64aeaab685a29f4ca249be02,64bedbdc2217c1ac32d19e4a,right,1,0.4357,0.35,22,0.077127029,0.2309,,,,,,236,0,236,0,1,,,,,
,,065887,001,2023-07-24_23h34.10.642,arm3_q,2022.2.5,Win32,60.0348202,60d7078c3e724cb9020fe786,64aeaab685a29f4ca249be02,64bedbdc2217c1ac32d19e4a,up,1,0.4357,0.35,23,0,0.3708,,,,,,237,0,237,0,1,,,,,
,,065887,001,2023-07-24_23h34.10.642,arm3_q,2022.2.5,Win32,60.0348202,60d7078c3e724cb9020fe786,64aeaab685a29f4ca249be02,64bedbdc2217c1ac32d19e4a,right,1,0.4357,0.35,23,0.018180841,0.4114,,,,,,238,0,238,0,1,,,,,
,,065887,001,2023-07-24_23h34.10.642,arm3_q,2022.2.5,Win32,60.0348202,60d7078c3e724cb9020fe786,64aeaab685a29f4ca249be02,64bedbdc2217c1ac32d19e4a,right,1,0.4357,0.35,23,-0.001699668,0.2023,,,,,,239,0,239,0,1,,,,,
,,065887,001,2023-07-24_23h34.10.642,arm3_q,2022.2.5,Win32,60.0348202,60d7078c3e724cb9020fe786,64aeaab685a29f4ca249be02,64bedbdc2217c1ac32d19e4a,up,-1,0.4357,0.35,24,0,0.3808,,,,,,240,0,240,0,1,,,,,
,,065887,001,2023-07-24_23h34.10.642,arm3_q,2022.2.5,Win32,60.0348202,60d7078c3e724cb9020fe786,64aeaab685a29f4ca249be02,64bedbdc2217c1ac32d19e4a,right,-1,0.4357,0.35,24,-0.03171427,0.4029,,,,,,241,0,241,0,1,,,,,
,,065887,001,2023-07-24_23h34.10.642,arm3_q,2022.2.5,Win32,60.0348202,60d7078c3e724cb9020fe786,64aeaab685a29f4ca249be02,64bedbdc2217c1ac32d19e4a,right,-1,0.4357,0.35,24,-0.060932566,0.1961,,,,,,242,0,242,0,1,,,,,
,,065887,001,2023-07-24_23h34.10.642,arm3_q,2022.2.5,Win32,60.0348202,60d7078c3e724cb9020fe786,64aeaab685a29f4ca249be02,64bedbdc2217c1ac32d19e4a,up,1,0.4357,0.35,24,0,0.3951,,,,,,243,0,243,0,1,,,,,
,,065887,001,2023-07-24_23h34.10.642,arm3_q,2022.2.5,Win32,60.0348202,60d7078c3e724cb9020fe786,64aeaab685a29f4ca249be02,64bedbdc2217c1ac32d19e4a,right,1,0.4357,0.35,24,-0.000119692,0.4146,,,,,,244,0,244,0,1,,,,,
,,065887,001,2023-07-24_23h34.10.642,arm3_q,2022.2.5,Win32,60.0348202,60d7078c3e724cb9020fe786,64aeaab685a29f4ca249be02,64bedbdc2217c1ac32d19e4a,right,1,0.4357,0.35,24,0.010886134,0.1983,,,,,,245,0,245,0,1,,,,,
,,065887,001,2023-07-24_23h34.10.642,arm3_q,2022.2.5,Win32,60.0348202,60d7078c3e724cb9020fe786,64aeaab685a29f4ca249be02,64bedbdc2217c1ac32d19e4a,up,1,0.4357,0.35,24,0,0.3953,,,,,,246,0,246,0,1,,,,,
,,065887,001,2023-07-24_23h34.10.642,arm3_q,2022.2.5,Win32,60.0348202,60d7078c3e724cb9020fe786,64aeaab685a29f4ca249be02,64bedbdc2217c1ac32d19e4a,right,1,0.4357,0.35,24,0.017327594,0.4289,,,,,,247,0,247,0,1,,,,,
,,065887,001,2023-07-24_23h34.10.642,arm3_q,2022.2.5,Win32,60.0348202,60d7078c3e724cb9020fe786,64aeaab685a29f4ca249be02,64bedbdc2217c1ac32d19e4a,right,1,0.4357,0.35,24,0.018040394,0.1839,,,,,,248,0,248,0,1,,,,,
,,065887,001,2023-07-24_23h34.10.642,arm3_q,2022.2.5,Win32,60.0348202,60d7078c3e724cb9020fe786,64aeaab685a29f4ca249be02,64bedbdc2217c1ac32d19e4a,down,1,0.4357,0.35,24,0,0.4201,,,,,,249,0,249,0,1,,,,,
,,065887,001,2023-07-24_23h34.10.642,arm3_q,2022.2.5,Win32,60.0348202,60d7078c3e724cb9020fe786,64aeaab685a29f4ca249be02,64bedbdc2217c1ac32d19e4a,right,1,0.4357,0.35,24,0.000795964,0.4484,,,,,,250,0,250,0,1,,,,,
,,065887,001,2023-07-24_23h34.10.642,arm3_q,2022.2.5,Win32,60.0348202,60d7078c3e724cb9020fe786,64aeaab685a29f4ca249be02,64bedbdc2217c1ac32d19e4a,right,1,0.4357,0.35,24,-0.021977554,0.1815,,,,,,251,0,251,0,1,,,,,
,,065887,001,2023-07-24_23h34.10.642,arm3_q,2022.2.5,Win32,60.0348202,60d7078c3e724cb9020fe786,64aeaab685a29f4ca249be02,64bedbdc2217c1ac32d19e4a,down,1,0.4357,0.35,24,0,0.5122,,,,,,252,0,252,0,1,,,,,
,,065887,001,2023-07-24_23h34.10.642,arm3_q,2022.2.5,Win32,60.0348202,60d7078c3e724cb9020fe786,64aeaab685a29f4ca249be02,64bedbdc2217c1ac32d19e4a,right,1,0.4357,0.35,24,0.001004688,0.6091,,,,,,253,0,253,0,1,,,,,
,,065887,001,2023-07-24_23h34.10.642,arm3_q,2022.2.5,Win32,60.0348202,60d7078c3e724cb9020fe786,64aeaab685a29f4ca249be02,64bedbdc2217c1ac32d19e4a,right,1,0.4357,0.35,24,0.035599516,0.2032,,,,,,254,0,254,0,1,,,,,
,,065887,001,2023-07-24_23h34.10.642,arm3_q,2022.2.5,Win32,60.0348202,60d7078c3e724cb9020fe786,64aeaab685a29f4ca249be02,64bedbdc2217c1ac32d19e4a,up,1,0.4357,0.35,25,0,0.3706,,,,,,255,0,255,0,1,,,,,
,,065887,001,2023-07-24_23h34.10.642,arm3_q,2022.2.5,Win32,60.0348202,60d7078c3e724cb9020fe786,64aeaab685a29f4ca249be02,64bedbdc2217c1ac32d19e4a,right,1,0.4357,0.35,25,0.033283795,0.4099,,,,,,256,0,256,0,1,,,,,
,,065887,001,2023-07-24_23h34.10.642,arm3_q,2022.2.5,Win32,60.0348202,60d7078c3e724cb9020fe786,64aeaab685a29f4ca249be02,64bedbdc2217c1ac32d19e4a,right,1,0.4357,0.35,25,0.067653157,0.2284,,,,,,257,0,257,0,1,,,,,
,,065887,001,2023-07-24_23h34.10.642,arm3_q,2022.2.5,Win32,60.0348202,60d7078c3e724cb9020fe786,64aeaab685a29f4ca249be02,64bedbdc2217c1ac32d19e4a,up,-1,0.4357,0.35,26,0,0.347,,,,,,258,0,258,0,1,,,,,
,,065887,001,2023-07-24_23h34.10.642,arm3_q,2022.2.5,Win32,60.0348202,60d7078c3e724cb9020fe786,64aeaab685a29f4ca249be02,64bedbdc2217c1ac32d19e4a,right,-1,0.4357,0.35,26,0.008356732,0.3956,,,,,,259,0,259,0,1,,,,,
,,065887,001,2023-07-24_23h34.10.642,arm3_q,2022.2.5,Win32,60.0348202,60d7078c3e724cb9020fe786,64aeaab685a29f4ca249be02,64bedbdc2217c1ac32d19e4a,right,-1,0.4357,0.35,26,0.015221894,0.2102,,,,,,260,0,260,0,1,,,,,
,,065887,001,2023-07-24_23h34.10.642,arm3_q,2022.2.5,Win32,60.0348202,60d7078c3e724cb9020fe786,64aeaab685a29f4ca249be02,64bedbdc2217c1ac32d19e4a,up,-1,0.4357,0.35,26,0,0.3974,,,,,,261,0,261,0,1,,,,,
,,065887,001,2023-07-24_23h34.10.642,arm3_q,2022.2.5,Win32,60.0348202,60d7078c3e724cb9020fe786,64aeaab685a29f4ca249be02,64bedbdc2217c1ac32d19e4a,right,-1,0.4357,0.35,26,-0.011953502,0.4107,,,,,,262,0,262,0,1,,,,,
,,065887,001,2023-07-24_23h34.10.642,arm3_q,2022.2.5,Win32,60.0348202,60d7078c3e724cb9020fe786,64aeaab685a29f4ca249be02,64bedbdc2217c1ac32d19e4a,right,-1,0.4357,0.35,26,-0.02628392,0.2146,,,,,,263,0,263,0,1,,,,,
,,065887,001,2023-07-24_23h34.10.642,arm3_q,2022.2.5,Win32,60.0348202,60d7078c3e724cb9020fe786,64aeaab685a29f4ca249be02,64bedbdc2217c1ac32d19e4a,down,-1,0.4357,0.35,27,0,0.6442,,,,,,264,0,264,0,1,,,,,
,,065887,001,2023-07-24_23h34.10.642,arm3_q,2022.2.5,Win32,60.0348202,60d7078c3e724cb9020fe786,64aeaab685a29f4ca249be02,64bedbdc2217c1ac32d19e4a,right,-1,0.4357,0.35,27,0.017202521,0.4108,,,,,,265,0,265,0,1,,,,,
,,065887,001,2023-07-24_23h34.10.642,arm3_q,2022.2.5,Win32,60.0348202,60d7078c3e724cb9020fe786,64aeaab685a29f4ca249be02,64bedbdc2217c1ac32d19e4a,right,-1,0.4357,0.35,27,-0.002173544,0.1794,,,,,,266,0,266,0,1,,,,,
,,065887,001,2023-07-24_23h34.10.642,arm3_q,2022.2.5,Win32,60.0348202,60d7078c3e724cb9020fe786,64aeaab685a29f4ca249be02,64bedbdc2217c1ac32d19e4a,down,-1,0.4357,0.35,28,0,0.5641,,,,,,267,0,267,0,1,,,,,
,,065887,001,2023-07-24_23h34.10.642,arm3_q,2022.2.5,Win32,60.0348202,60d7078c3e724cb9020fe786,64aeaab685a29f4ca249be02,64bedbdc2217c1ac32d19e4a,right,-1,0.4357,0.35,28,-0.034327641,0.3939,,,,,,268,0,268,0,1,,,,,
,,065887,001,2023-07-24_23h34.10.642,arm3_q,2022.2.5,Win32,60.0348202,60d7078c3e724cb9020fe786,64aeaab685a29f4ca249be02,64bedbdc2217c1ac32d19e4a,right,-1,0.4357,0.35,28,-0.02619867,0.1775,,,,,,269,0,269,0,1,,,,,
,,065887,001,2023-07-24_23h34.10.642,arm3_q,2022.2.5,Win32,60.0348202,60d7078c3e724cb9020fe786,64aeaab685a29f4ca249be02,64bedbdc2217c1ac32d19e4a,down,-1,0.4357,0.35,29,0,0.433,,,,,,270,0,270,0,1,,,,,
,,065887,001,2023-07-24_23h34.10.642,arm3_q,2022.2.5,Win32,60.0348202,60d7078c3e724cb9020fe786,64aeaab685a29f4ca249be02,64bedbdc2217c1ac32d19e4a,right,-1,0.4357,0.35,29,-0.008548418,0.4139,,,,,,271,0,271,0,1,,,,,
,,065887,001,2023-07-24_23h34.10.642,arm3_q,2022.2.5,Win32,60.0348202,60d7078c3e724cb9020fe786,64aeaab685a29f4ca249be02,64bedbdc2217c1ac32d19e4a,right,-1,0.4357,0.35,29,0.001388873,0.1826,,,,,,272,0,272,0,1,,,,,
,,065887,001,2023-07-24_23h34.10.642,arm3_q,2022.2.5,Win32,60.0348202,60d7078c3e724cb9020fe786,64aeaab685a29f4ca249be02,64bedbdc2217c1ac32d19e4a,down,-1,0.4357,0.35,29,0,0.4469,,,,,,273,0,273,0,1,,,,,
,,065887,001,2023-07-24_23h34.10.642,arm3_q,2022.2.5,Win32,60.0348202,60d7078c3e724cb9020fe786,64aeaab685a29f4ca249be02,64bedbdc2217c1ac32d19e4a,right,-1,0.4357,0.35,29,-0.007011147,0.3767,,,,,,274,0,274,0,1,,,,,
,,065887,001,2023-07-24_23h34.10.642,arm3_q,2022.2.5,Win32,60.0348202,60d7078c3e724cb9020fe786,64aeaab685a29f4ca249be02,64bedbdc2217c1ac32d19e4a,right,-1,0.4357,0.35,29,-0.038978639,0.2016,,,,,,275,0,275,0,1,,,,,
,,065887,001,2023-07-24_23h34.10.642,arm3_q,2022.2.5,Win32,60.0348202,60d7078c3e724cb9020fe786,64aeaab685a29f4ca249be02,64bedbdc2217c1ac32d19e4a,down,1,0.4357,0.35,30,0,0.4033,,,,,,276,0,276,0,1,,,,,
,,065887,001,2023-07-24_23h34.10.642,arm3_q,2022.2.5,Win32,60.0348202,60d7078c3e724cb9020fe786,64aeaab685a29f4ca249be02,64bedbdc2217c1ac32d19e4a,right,1,0.4357,0.35,30,0.006067312,0.3773,,,,,,277,0,277,0,1,,,,,
,,065887,001,2023-07-24_23h34.10.642,arm3_q,2022.2.5,Win32,60.0348202,60d7078c3e724cb9020fe786,64aeaab685a29f4ca249be02,64bedbdc2217c1ac32d19e4a,right,1,0.4357,0.35,30,0.028089602,0.2036,,,,,,278,0,278,0,1,,,,,
,,065887,001,2023-07-24_23h34.10.642,arm3_q,2022.2.5,Win32,60.0348202,60d7078c3e724cb9020fe786,64aeaab685a29f4ca249be02,64bedbdc2217c1ac32d19e4a,up,1,0.4357,0.35,30,0,0.3984,,,,,,279,0,279,0,1,,,,,
,,065887,001,2023-07-24_23h34.10.642,arm3_q,2022.2.5,Win32,60.0348202,60d7078c3e724cb9020fe786,64aeaab685a29f4ca249be02,64bedbdc2217c1ac32d19e4a,right,1,0.4357,0.35,30,-0.008832869,0.3786,,,,,,280,0,280,0,1,,,,,
,,065887,001,2023-07-24_23h34.10.642,arm3_q,2022.2.5,Win32,60.0348202,60d7078c3e724cb9020fe786,64aeaab685a29f4ca249be02,64bedbdc2217c1ac32d19e4a,right,1,0.4357,0.35,30,-0.004753477,0.2138,,,,,,281,0,281,0,1,,,,,
,,065887,001,2023-07-24_23h34.10.642,arm3_q,2022.2.5,Win32,60.0348202,60d7078c3e724cb9020fe786,64aeaab685a29f4ca249be02,64bedbdc2217c1ac32d19e4a,down,1,0.4357,0.35,29,0,0.3473,,,,,,282,0,282,0,1,,,,,
,,065887,001,2023-07-24_23h34.10.642,arm3_q,2022.2.5,Win32,60.0348202,60d7078c3e724cb9020fe786,64aeaab685a29f4ca249be02,64bedbdc2217c1ac32d19e4a,right,1,0.4357,0.35,29,0.024186286,0.4167,,,,,,283,0,283,0,1,,,,,
,,065887,001,2023-07-24_23h34.10.642,arm3_q,2022.2.5,Win32,60.0348202,60d7078c3e724cb9020fe786,64aeaab685a29f4ca249be02,64bedbdc2217c1ac32d19e4a,right,1,0.4357,0.35,29,0.043154875,0.2298,,,,,,284,0,284,0,1,,,,,
,,065887,001,2023-07-24_23h34.10.642,arm3_q,2022.2.5,Win32,60.0348202,60d7078c3e724cb9020fe786,64aeaab685a29f4ca249be02,64bedbdc2217c1ac32d19e4a,up,1,0.4357,0.35,29,0,0.3844,,,,,,285,0,285,0,1,,,,,
,,065887,001,2023-07-24_23h34.10.642,arm3_q,2022.2.5,Win32,60.0348202,60d7078c3e724cb9020fe786,64aeaab685a29f4ca249be02,64bedbdc2217c1ac32d19e4a,right,1,0.4357,0.35,29,0.006490341,0.4782,,,,,,286,0,286,0,1,,,,,
,,065887,001,2023-07-24_23h34.10.642,arm3_q,2022.2.5,Win32,60.0348202,60d7078c3e724cb9020fe786,64aeaab685a29f4ca249be02,64bedbdc2217c1ac32d19e4a,right,1,0.4357,0.35,29,0.012163351,0.2371,,,,,,287,0,287,0,1,,,,,
,,065887,001,2023-07-24_23h34.10.642,arm3_q,2022.2.5,Win32,60.0348202,60d7078c3e724cb9020fe786,64aeaab685a29f4ca249be02,64bedbdc2217c1ac32d19e4a,up,1,0.4357,0.35,30,0,0.5201,,,,,,288,0,288,0,1,,,,,
,,065887,001,2023-07-24_23h34.10.642,arm3_q,2022.2.5,Win32,60.0348202,60d7078c3e724cb9020fe786,64aeaab685a29f4ca249be02,64bedbdc2217c1ac32d19e4a,right,1,0.4357,0.35,30,0.003804629,0.3674,,,,,,289,0,289,0,1,,,,,
,,065887,001,2023-07-24_23h34.10.642,arm3_q,2022.2.5,Win32,60.0348202,60d7078c3e724cb9020fe786,64aeaab685a29f4ca249be02,64bedbdc2217c1ac32d19e4a,right,1,0.4357,0.35,30,0.008830527,0.2126,,,,,,290,0,290,0,1,,,,,
,,065887,001,2023-07-24_23h34.10.642,arm3_q,2022.2.5,Win32,60.0348202,60d7078c3e724cb9020fe786,64aeaab685a29f4ca249be02,64bedbdc2217c1ac32d19e4a,up,1,0.4357,0.35,30,0,0.3996,,,,,,291,0,291,0,1,,,,,
,,065887,001,2023-07-24_23h34.10.642,arm3_q,2022.2.5,Win32,60.0348202,60d7078c3e724cb9020fe786,64aeaab685a29f4ca249be02,64bedbdc2217c1ac32d19e4a,right,1,0.4357,0.35,30,-0.003393457,0.4014,,,,,,292,0,292,0,1,,,,,
,,065887,001,2023-07-24_23h34.10.642,arm3_q,2022.2.5,Win32,60.0348202,60d7078c3e724cb9020fe786,64aeaab685a29f4ca249be02,64bedbdc2217c1ac32d19e4a,right,1,0.4357,0.35,30,-0.006299042,0.2171,,,,,,293,0,293,0,1,,,,,
,,065887,001,2023-07-24_23h34.10.642,arm3_q,2022.2.5,Win32,60.0348202,60d7078c3e724cb9020fe786,64aeaab685a29f4ca249be02,64bedbdc2217c1ac32d19e4a,up,1,0.4357,0.35,31,0,0.4163,,,,,,294,0,294,0,1,,,,,
,,065887,001,2023-07-24_23h34.10.642,arm3_q,2022.2.5,Win32,60.0348202,60d7078c3e724cb9020fe786,64aeaab685a29f4ca249be02,64bedbdc2217c1ac32d19e4a,right,1,0.4357,0.35,31,0.012009749,0.3789,,,,,,295,0,295,0,1,,,,,
,,065887,001,2023-07-24_23h34.10.642,arm3_q,2022.2.5,Win32,60.0348202,60d7078c3e724cb9020fe786,64aeaab685a29f4ca249be02,64bedbdc2217c1ac32d19e4a,right,1,0.4357,0.35,31,0.01567856,0.2117,,,,,,296,0,296,0,1,,,,,
,,065887,001,2023-07-24_23h34.10.642,arm3_q,2022.2.5,Win32,60.0348202,60d7078c3e724cb9020fe786,64aeaab685a29f4ca249be02,64bedbdc2217c1ac32d19e4a,up,1,0.4357,0.35,31,0,0.3836,,,,,,297,0,297,0,1,,,,,
,,065887,001,2023-07-24_23h34.10.642,arm3_q,2022.2.5,Win32,60.0348202,60d7078c3e724cb9020fe786,64aeaab685a29f4ca249be02,64bedbdc2217c1ac32d19e4a,right,1,0.4357,0.35,31,0.008684674,0.4124,,,,,,298,0,298,0,1,,,,,
,,065887,001,2023-07-24_23h34.10.642,arm3_q,2022.2.5,Win32,60.0348202,60d7078c3e724cb9020fe786,64aeaab685a29f4ca249be02,64bedbdc2217c1ac32d19e4a,right,1,0.4357,0.35,31,0.040448987,0.2184,,,,,,299,0,299,0,1,,,,,
,,065887,001,2023-07-24_23h34.10.642,arm3_q,2022.2.5,Win32,60.0348202,60d7078c3e724cb9020fe786,64aeaab685a29f4ca249be02,64bedbdc2217c1ac32d19e4a,up,-1,0.4357,0.35,32,0,0.3897,,,,,,300,0,300,0,1,,,,,
,,065887,001,2023-07-24_23h34.10.642,arm3_q,2022.2.5,Win32,60.0348202,60d7078c3e724cb9020fe786,64aeaab685a29f4ca249be02,64bedbdc2217c1ac32d19e4a,right,-1,0.4357,0.35,32,0.018250027,0.4011,,,,,,301,0,301,0,1,,,,,
,,065887,001,2023-07-24_23h34.10.642,arm3_q,2022.2.5,Win32,60.0348202,60d7078c3e724cb9020fe786,64aeaab685a29f4ca249be02,64bedbdc2217c1ac32d19e4a,right,-1,0.4357,0.35,32,0.009972605,0.2203,,,,,,302,0,302,0,1,,,,,
,,065887,001,2023-07-24_23h34.10.642,arm3_q,2022.2.5,Win32,60.0348202,60d7078c3e724cb9020fe786,64aeaab685a29f4ca249be02,64bedbdc2217c1ac32d19e4a,down,1,0.4357,0.35,33,0,0.7643,,,,,,303,0,303,0,1,,,,,
,,065887,001,2023-07-24_23h34.10.642,arm3_q,2022.2.5,Win32,60.0348202,60d7078c3e724cb9020fe786,64aeaab685a29f4ca249be02,64bedbdc2217c1ac32d19e4a,right,1,0.4357,0.35,33,0.003755324,0.3211,,,,,,304,0,304,0,1,,,,,
,,065887,001,2023-07-24_23h34.10.642,arm3_q,2022.2.5,Win32,60.0348202,60d7078c3e724cb9020fe786,64aeaab685a29f4ca249be02,64bedbdc2217c1ac32d19e4a,right,1,0.4357,0.35,33,-0.01092547,0.2142,,,,,,305,0,305,0,1,,,,,
,,065887,001,2023-07-24_23h34.10.642,arm3_q,2022.2.5,Win32,60.0348202,60d7078c3e724cb9020fe786,64aeaab685a29f4ca249be02,64bedbdc2217c1ac32d19e4a,down,1,0.4357,0.35,32,0,0.4281,,,,,,306,0,306,0,1,,,,,
,,065887,001,2023-07-24_23h34.10.642,arm3_q,2022.2.5,Win32,60.0348202,60d7078c3e724cb9020fe786,64aeaab685a29f4ca249be02,64bedbdc2217c1ac32d19e4a,right,1,0.4357,0.35,32,-0.026986235,0.3829,,,,,,307,0,307,0,1,,,,,
,,065887,001,2023-07-24_23h34.10.642,arm3_q,2022.2.5,Win32,60.0348202,60d7078c3e724cb9020fe786,64aeaab685a29f4ca249be02,64bedbdc2217c1ac32d19e4a,right,1,0.4357,0.35,32,0.009030763,0.2107,,,,,,308,0,308,0,1,,,,,
,,065887,001,2023-07-24_23h34.10.642,arm3_q,2022.2.5,Win32,60.0348202,60d7078c3e724cb9020fe786,64aeaab685a29f4ca249be02,64bedbdc2217c1ac32d19e4a,down,1,0.4357,0.35,32,0,1.3336,,,,,,309,0,309,0,1,,,,,
,,065887,001,2023-07-24_23h34.10.642,arm3_q,2022.2.5,Win32,60.0348202,60d7078c3e724cb9020fe786,64aeaab685a29f4ca249be02,64bedbdc2217c1ac32d19e4a,right,1,0.4357,0.35,32,0.039746892,0.4462,,,,,,310,0,310,0,1,,,,,
,,065887,001,2023-07-24_23h34.10.642,arm3_q,2022.2.5,Win32,60.0348202,60d7078c3e724cb9020fe786,64aeaab685a29f4ca249be02,64bedbdc2217c1ac32d19e4a,right,1,0.4357,0.35,32,0.070067172,0.1853,,,,,,311,0,311,0,1,,,,,
,,065887,001,2023-07-24_23h34.10.642,arm3_q,2022.2.5,Win32,60.0348202,60d7078c3e724cb9020fe786,64aeaab685a29f4ca249be02,64bedbdc2217c1ac32d19e4a,up,-1,0.4357,0.35,32,0,0.5002,,,,,,312,0,312,0,1,,,,,
,,065887,001,2023-07-24_23h34.10.642,arm3_q,2022.2.5,Win32,60.0348202,60d7078c3e724cb9020fe786,64aeaab685a29f4ca249be02,64bedbdc2217c1ac32d19e4a,right,-1,0.4357,0.35,32,-0.016811336,0.4109,,,,,,313,0,313,0,1,,,,,
,,065887,001,2023-07-24_23h34.10.642,arm3_q,2022.2.5,Win32,60.0348202,60d7078c3e724cb9020fe786,64aeaab685a29f4ca249be02,64bedbdc2217c1ac32d19e4a,right,-1,0.4357,0.35,32,0.003164684,0.2042,,,,,,314,0,314,0,1,,,,,
,,065887,001,2023-07-24_23h34.10.642,arm3_q,2022.2.5,Win32,60.0348202,60d7078c3e724cb9020fe786,64aeaab685a29f4ca249be02,64bedbdc2217c1ac32d19e4a,up,-1,0.4357,0.35,31,0,0.3632,,,,,,315,0,315,0,1,,,,,
,,065887,001,2023-07-24_23h34.10.642,arm3_q,2022.2.5,Win32,60.0348202,60d7078c3e724cb9020fe786,64aeaab685a29f4ca249be02,64bedbdc2217c1ac32d19e4a,right,-1,0.4357,0.35,31,-0.00340056,0.6773,,,,,,316,0,316,0,1,,,,,
,,065887,001,2023-07-24_23h34.10.642,arm3_q,2022.2.5,Win32,60.0348202,60d7078c3e724cb9020fe786,64aeaab685a29f4ca249be02,64bedbdc2217c1ac32d19e4a,up,-1,0.4357,0.35,31,0,0.4883,,,,,,317,0,317,0,1,,,,,
,,065887,001,2023-07-24_23h34.10.642,arm3_q,2022.2.5,Win32,60.0348202,60d7078c3e724cb9020fe786,64aeaab685a29f4ca249be02,64bedbdc2217c1ac32d19e4a,right,-1,0.4357,0.35,31,0.011869034,0.4942,,,,,,318,0,318,0,1,,,,,
,,065887,001,2023-07-24_23h34.10.642,arm3_q,2022.2.5,Win32,60.0348202,60d7078c3e724cb9020fe786,64aeaab685a29f4ca249be02,64bedbdc2217c1ac32d19e4a,right,-1,0.4357,0.35,31,-0.005851067,0.328,,,,,,319,0,319,0,1,,,,,
,,065887,001,2023-07-24_23h34.10.642,arm3_q,2022.2.5,Win32,60.0348202,60d7078c3e724cb9020fe786,64aeaab685a29f4ca249be02,64bedbdc2217c1ac32d19e4a,down,-1,0.4357,0.35,32,0,0.4522,,,,,,320,0,320,0,1,,,,,
,,065887,001,2023-07-24_23h34.10.642,arm3_q,2022.2.5,Win32,60.0348202,60d7078c3e724cb9020fe786,64aeaab685a29f4ca249be02,64bedbdc2217c1ac32d19e4a,right,-1,0.4357,0.35,32,-0.025370408,0.3599,,,,,,321,0,321,0,1,,,,,
,,065887,001,2023-07-24_23h34.10.642,arm3_q,2022.2.5,Win32,60.0348202,60d7078c3e724cb9020fe786,64aeaab685a29f4ca249be02,64bedbdc2217c1ac32d19e4a,right,-1,0.4357,0.35,32,-0.039596852,0.2143,,,,,,322,0,322,0,1,,,,,
,,065887,001,2023-07-24_23h34.10.642,arm3_q,2022.2.5,Win32,60.0348202,60d7078c3e724cb9020fe786,64aeaab685a29f4ca249be02,64bedbdc2217c1ac32d19e4a,up,1,0.4357,0.35,31,0,0.385,,,,,,323,0,323,0,1,,,,,
,,065887,001,2023-07-24_23h34.10.642,arm3_q,2022.2.5,Win32,60.0348202,60d7078c3e724cb9020fe786,64aeaab685a29f4ca249be02,64bedbdc2217c1ac32d19e4a,right,1,0.4357,0.35,31,0.031320639,0.4919,,,,,,324,0,324,0,1,,,,,
,,065887,001,2023-07-24_23h34.10.642,arm3_q,2022.2.5,Win32,60.0348202,60d7078c3e724cb9020fe786,64aeaab685a29f4ca249be02,64bedbdc2217c1ac32d19e4a,right,1,0.4357,0.35,31,0.017844416,0.1767,,,,,,325,0,325,0,1,,,,,
,,065887,001,2023-07-24_23h34.10.642,arm3_q,2022.2.5,Win32,60.0348202,60d7078c3e724cb9020fe786,64aeaab685a29f4ca249be02,64bedbdc2217c1ac32d19e4a,right,1,0.4357,0.35,31,0.010529008,0.6802,,,,,,326,0,326,0,1,,,,,
,,065887,001,2023-07-24_23h34.10.642,arm3_q,2022.2.5,Win32,60.0348202,60d7078c3e724cb9020fe786,64aeaab685a29f4ca249be02,64bedbdc2217c1ac32d19e4a,right,1,0.4357,0.35,31,0.011873594,0.3979,,,,,,327,0,327,0,1,,,,,
,,065887,001,2023-07-24_23h34.10.642,arm3_q,2022.2.5,Win32,60.0348202,60d7078c3e724cb9020fe786,64aeaab685a29f4ca249be02,64bedbdc2217c1ac32d19e4a,right,1,0.4357,0.35,31,-0.017010822,0.1729,,,,,,328,0,328,0,1,,,,,
,,065887,001,2023-07-24_23h34.10.642,arm3_q,2022.2.5,Win32,60.0348202,60d7078c3e724cb9020fe786,64aeaab685a29f4ca249be02,64bedbdc2217c1ac32d19e4a,right,1,0.4357,0.35,31,-0.000260004,0.9137,,,,,,329,0,329,0,1,,,,,
,,065887,001,2023-07-24_23h34.10.642,arm3_q,2022.2.5,Win32,60.0348202,60d7078c3e724cb9020fe786,64aeaab685a29f4ca249be02,64bedbdc2217c1ac32d19e4a,right,1,0.4357,0.35,31,0.006616468,0.4305,,,,,,330,0,330,0,1,,,,,
,,065887,001,2023-07-24_23h34.10.642,arm3_q,2022.2.5,Win32,60.0348202,60d7078c3e724cb9020fe786,64aeaab685a29f4ca249be02,64bedbdc2217c1ac32d19e4a,up,1,0.4357,0.35,32,0,0.4817,,,,,,331,0,331,0,1,,,,,
,,065887,001,2023-07-24_23h34.10.642,arm3_q,2022.2.5,Win32,60.0348202,60d7078c3e724cb9020fe786,64aeaab685a29f4ca249be02,64bedbdc2217c1ac32d19e4a,right,1,0.4357,0.35,32,0.000729739,0.3488,,,,,,332,0,332,0,1,,,,,
,,065887,001,2023-07-24_23h34.10.642,arm3_q,2022.2.5,Win32,60.0348202,60d7078c3e724cb9020fe786,64aeaab685a29f4ca249be02,64bedbdc2217c1ac32d19e4a,right,1,0.4357,0.35,32,-0.011278358,0.2186,,,,,,333,0,333,0,1,,,,,
,,065887,001,2023-07-24_23h34.10.642,arm3_q,2022.2.5,Win32,60.0348202,60d7078c3e724cb9020fe786,64aeaab685a29f4ca249be02,64bedbdc2217c1ac32d19e4a,down,1,0.4357,0.35,32,0,0.4809,,,,,,334,0,334,0,1,,,,,
,,065887,001,2023-07-24_23h34.10.642,arm3_q,2022.2.5,Win32,60.0348202,60d7078c3e724cb9020fe786,64aeaab685a29f4ca249be02,64bedbdc2217c1ac32d19e4a,right,1,0.4357,0.35,32,0.021723958,0.4119,,,,,,335,0,335,0,1,,,,,
,,065887,001,2023-07-24_23h34.10.642,arm3_q,2022.2.5,Win32,60.0348202,60d7078c3e724cb9020fe786,64aeaab685a29f4ca249be02,64bedbdc2217c1ac32d19e4a,right,1,0.4357,0.35,32,0.030959433,0.185,,,,,,336,0,336,0,1,,,,,
,,065887,001,2023-07-24_23h34.10.642,arm3_q,2022.2.5,Win32,60.0348202,60d7078c3e724cb9020fe786,64aeaab685a29f4ca249be02,64bedbdc2217c1ac32d19e4a,up,-1,0.4357,0.35,33,0,0.4815,,,,,,337,0,337,0,1,,,,,
,,065887,001,2023-07-24_23h34.10.642,arm3_q,2022.2.5,Win32,60.0348202,60d7078c3e724cb9020fe786,64aeaab685a29f4ca249be02,64bedbdc2217c1ac32d19e4a,right,-1,0.4357,0.35,33,0.025938841,0.3927,,,,,,338,0,338,0,1,,,,,
,,065887,001,2023-07-24_23h34.10.642,arm3_q,2022.2.5,Win32,60.0348202,60d7078c3e724cb9020fe786,64aeaab685a29f4ca249be02,64bedbdc2217c1ac32d19e4a,right,-1,0.4357,0.35,33,-0.004060897,0.1706,,,,,,339,0,339,0,1,,,,,
,,065887,001,2023-07-24_23h34.10.642,arm3_q,2022.2.5,Win32,60.0348202,60d7078c3e724cb9020fe786,64aeaab685a29f4ca249be02,64bedbdc2217c1ac32d19e4a,up,-1,0.4357,0.35,32,0,0.4316,,,,,,340,0,340,0,1,,,,,
,,065887,001,2023-07-24_23h34.10.642,arm3_q,2022.2.5,Win32,60.0348202,60d7078c3e724cb9020fe786,64aeaab685a29f4ca249be02,64bedbdc2217c1ac32d19e4a,right,-1,0.4357,0.35,32,-0.026123258,0.4469,,,,,,341,0,341,0,1,,,,,
,,065887,001,2023-07-24_23h34.10.642,arm3_q,2022.2.5,Win32,60.0348202,60d7078c3e724cb9020fe786,64aeaab685a29f4ca249be02,64bedbdc2217c1ac32d19e4a,right,-1,0.4357,0.35,32,-0.027715522,0.229,,,,,,342,0,342,0,1,,,,,
,,065887,001,2023-07-24_23h34.10.642,arm3_q,2022.2.5,Win32,60.0348202,60d7078c3e724cb9020fe786,64aeaab685a29f4ca249be02,64bedbdc2217c1ac32d19e4a,down,-1,0.4357,0.35,33,0,0.4125,,,,,,343,0,343,0,1,,,,,
,,065887,001,2023-07-24_23h34.10.642,arm3_q,2022.2.5,Win32,60.0348202,60d7078c3e724cb9020fe786,64aeaab685a29f4ca249be02,64bedbdc2217c1ac32d19e4a,right,-1,0.4357,0.35,33,0.010646982,0.4442,,,,,,344,0,344,0,1,,,,,
,,065887,001,2023-07-24_23h34.10.642,arm3_q,2022.2.5,Win32,60.0348202,60d7078c3e724cb9020fe786,64aeaab685a29f4ca249be02,64bedbdc2217c1ac32d19e4a,right,-1,0.4357,0.35,33,0.027825072,0.1831,,,,,,345,0,345,0,1,,,,,
,,065887,001,2023-07-24_23h34.10.642,arm3_q,2022.2.5,Win32,60.0348202,60d7078c3e724cb9020fe786,64aeaab685a29f4ca249be02,64bedbdc2217c1ac32d19e4a,right,-1,0.4357,0.35,33,0.009456614,0.556,,,,,,346,0,346,0,1,,,,,
,,065887,001,2023-07-24_23h34.10.642,arm3_q,2022.2.5,Win32,60.0348202,60d7078c3e724cb9020fe786,64aeaab685a29f4ca249be02,64bedbdc2217c1ac32d19e4a,right,-1,0.4357,0.35,33,0.004702413,0.1876,,,,,,347,0,347,0,1,,,,,
,,065887,001,2023-07-24_23h34.10.642,arm3_q,2022.2.5,Win32,60.0348202,60d7078c3e724cb9020fe786,64aeaab685a29f4ca249be02,64bedbdc2217c1ac32d19e4a,up,1,0.4357,0.35,33,0,0.6682,,,,,,348,0,348,0,1,,,,,
,,065887,001,2023-07-24_23h34.10.642,arm3_q,2022.2.5,Win32,60.0348202,60d7078c3e724cb9020fe786,64aeaab685a29f4ca249be02,64bedbdc2217c1ac32d19e4a,right,1,0.4357,0.35,33,0.011206963,0.6809,,,,,,349,0,349,0,1,,,,,
,,065887,001,2023-07-24_23h34.10.642,arm3_q,2022.2.5,Win32,60.0348202,60d7078c3e724cb9020fe786,64aeaab685a29f4ca249be02,64bedbdc2217c1ac32d19e4a,up,-1,0.4357,0.35,34,0,0.4633,,,,,,350,0,350,0,1,,,,,
,,065887,001,2023-07-24_23h34.10.642,arm3_q,2022.2.5,Win32,60.0348202,60d7078c3e724cb9020fe786,64aeaab685a29f4ca249be02,64bedbdc2217c1ac32d19e4a,right,-1,0.4357,0.35,34,0.050684168,0.5529,,,,,,351,0,351,0,1,,,,,
,,065887,001,2023-07-24_23h34.10.642,arm3_q,2022.2.5,Win32,60.0348202,60d7078c3e724cb9020fe786,64aeaab685a29f4ca249be02,64bedbdc2217c1ac32d19e4a,right,-1,0.4357,0.35,34,0.035759021,0.2203,,,,,,352,0,352,0,1,,,,,
,,065887,001,2023-07-24_23h34.10.642,arm3_q,2022.2.5,Win32,60.0348202,60d7078c3e724cb9020fe786,64aeaab685a29f4ca249be02,64bedbdc2217c1ac32d19e4a,right,-1,0.4357,0.35,34,-0.005851664,0.7352,,,,,,353,0,353,0,1,,,,,
,,065887,001,2023-07-24_23h34.10.642,arm3_q,2022.2.5,Win32,60.0348202,60d7078c3e724cb9020fe786,64aeaab685a29f4ca249be02,64bedbdc2217c1ac32d19e4a,right,-1,0.4357,0.35,34,-0.008867505,0.6643,,,,,,354,0,354,0,1,,,,,
,,065887,001,2023-07-24_23h34.10.642,arm3_q,2022.2.5,Win32,60.0348202,60d7078c3e724cb9020fe786,64aeaab685a29f4ca249be02,64bedbdc2217c1ac32d19e4a,right,-1,0.4357,0.35,34,0.005746781,0.4849,,,,,,355,0,355,0,1,,,,,
,,065887,001,2023-07-24_23h34.10.642,arm3_q,2022.2.5,Win32,60.0348202,60d7078c3e724cb9020fe786,64aeaab685a29f4ca249be02,64bedbdc2217c1ac32d19e4a,right,-1,0.4357,0.35,34,0.009407267,0.3476,,,,,,356,0,356,0,1,,,,,
,,065887,001,2023-07-24_23h34.10.642,arm3_q,2022.2.5,Win32,60.0348202,60d7078c3e724cb9020fe786,64aeaab685a29f4ca249be02,64bedbdc2217c1ac32d19e4a,right,-1,0.4357,0.35,34,-0.011209131,0.3118,,,,,,357,0,357,0,1,,,,,
,,065887,001,2023-07-24_23h34.10.642,arm3_q,2022.2.5,Win32,60.0348202,60d7078c3e724cb9020fe786,64aeaab685a29f4ca249be02,64bedbdc2217c1ac32d19e4a,right,-1,0.4357,0.35,34,-0.023634575,0.1651,,,,,,358,0,358,0,1,,,,,
,,065887,001,2023-07-24_23h34.10.642,arm3_q,2022.2.5,Win32,60.0348202,60d7078c3e724cb9020fe786,64aeaab685a29f4ca249be02,64bedbdc2217c1ac32d19e4a,right,-1,0.4357,0.35,34,-0.040893748,0.1562,,,,,,359,0,359,0,1,,,,,
,,065887,001,2023-07-24_23h34.10.642,arm3_q,2022.2.5,Win32,60.0348202,60d7078c3e724cb9020fe786,64aeaab685a29f4ca249be02,64bedbdc2217c1ac32d19e4a,right,-1,0.4357,0.35,34,-0.048796514,0.3864,,,,,,360,0,360,0,1,,,,,
,,065887,001,2023-07-24_23h34.10.642,arm3_q,2022.2.5,Win32,60.0348202,60d7078c3e724cb9020fe786,64aeaab685a29f4ca249be02,64bedbdc2217c1ac32d19e4a,right,-1,0.4357,0.35,34,-0.060092118,0.4823,,,,,,361,0,361,0,1,,,,,
,,065887,001,2023-07-24_23h34.10.642,arm3_q,2022.2.5,Win32,60.0348202,60d7078c3e724cb9020fe786,64aeaab685a29f4ca249be02,64bedbdc2217c1ac32d19e4a,right,-1,0.4357,0.35,34,-0.054084786,0.1971,,,,,,362,0,362,0,1,,,,,
,,065887,001,2023-07-24_23h34.10.642,arm3_q,2022.2.5,Win32,60.0348202,60d7078c3e724cb9020fe786,64aeaab685a29f4ca249be02,64bedbdc2217c1ac32d19e4a,down,1,0.4357,0.35,34,0,0.4976,,,,,,363,0,363,0,1,,,,,
,,065887,001,2023-07-24_23h34.10.642,arm3_q,2022.2.5,Win32,60.0348202,60d7078c3e724cb9020fe786,64aeaab685a29f4ca249be02,64bedbdc2217c1ac32d19e4a,right,1,0.4357,0.35,34,0.016202266,0.4492,,,,,,364,0,364,0,1,,,,,
,,065887,001,2023-07-24_23h34.10.642,arm3_q,2022.2.5,Win32,60.0348202,60d7078c3e724cb9020fe786,64aeaab685a29f4ca249be02,64bedbdc2217c1ac32d19e4a,right,1,0.4357,0.35,34,0.048589581,0.2309,,,,,,365,0,365,0,1,,,,,
,,065887,001,2023-07-24_23h34.10.642,arm3_q,2022.2.5,Win32,60.0348202,60d7078c3e724cb9020fe786,64aeaab685a29f4ca249be02,64bedbdc2217c1ac32d19e4a,right,1,0.4357,0.35,34,0.044465598,0.1791,,,,,,366,0,366,0,1,,,,,
,,065887,001,2023-07-24_23h34.10.642,arm3_q,2022.2.5,Win32,60.0348202,60d7078c3e724cb9020fe786,64aeaab685a29f4ca249be02,64bedbdc2217c1ac32d19e4a,right,1,0.4357,0.35,34,0.04621044,0.1645,,,,,,367,0,367,0,1,,,,,
,,065887,001,2023-07-24_23h34.10.642,arm3_q,2022.2.5,Win32,60.0348202,60d7078c3e724cb9020fe786,64aeaab685a29f4ca249be02,64bedbdc2217c1ac32d19e4a,right,1,0.4357,0.35,34,0.06920948,0.1806,,,,,,368,0,368,0,1,,,,,
,,065887,001,2023-07-24_23h34.10.642,arm3_q,2022.2.5,Win32,60.0348202,60d7078c3e724cb9020fe786,64aeaab685a29f4ca249be02,64bedbdc2217c1ac32d19e4a,right,1,0.4357,0.35,34,0.091704513,0.3994,,,,,,369,0,369,0,1,,,,,
,,065887,001,2023-07-24_23h34.10.642,arm3_q,2022.2.5,Win32,60.0348202,60d7078c3e724cb9020fe786,64aeaab685a29f4ca249be02,64bedbdc2217c1ac32d19e4a,,,,,,,,,,,,,,,,,,0,0,0,0,1
space,2.9618,065887,001,2023-07-24_23h34.10.642,arm3_q,2022.2.5,Win32,60.0348202,60d7078c3e724cb9020fe786,64aeaab685a29f4ca249be02,64bedbdc2217c1ac32d19e4a,right,1,0.3071,0.35,34,0.012431917,1.1098,,,,,,0,0,0,0,1,,,,,
,,065887,001,2023-07-24_23h34.10.642,arm3_q,2022.2.5,Win32,60.0348202,60d7078c3e724cb9020fe786,64aeaab685a29f4ca249be02,64bedbdc2217c1ac32d19e4a,right,1,0.3071,0.35,34,0.014045801,0.2836,,,,,,1,0,1,0,1,,,,,
,,065887,001,2023-07-24_23h34.10.642,arm3_q,2022.2.5,Win32,60.0348202,60d7078c3e724cb9020fe786,64aeaab685a29f4ca249be02,64bedbdc2217c1ac32d19e4a,right,1,0.3071,0.35,34,0.026565365,0.1674,,,,,,2,0,2,0,1,,,,,
,,065887,001,2023-07-24_23h34.10.642,arm3_q,2022.2.5,Win32,60.0348202,60d7078c3e724cb9020fe786,64aeaab685a29f4ca249be02,64bedbdc2217c1ac32d19e4a,up,-1,0.3071,0.35,34,0,0.5331,,,,,,3,0,3,0,1,,,,,
,,065887,001,2023-07-24_23h34.10.642,arm3_q,2022.2.5,Win32,60.0348202,60d7078c3e724cb9020fe786,64aeaab685a29f4ca249be02,64bedbdc2217c1ac32d19e4a,right,-1,0.3071,0.35,34,0.015638216,0.5496,,,,,,4,0,4,0,1,,,,,
,,065887,001,2023-07-24_23h34.10.642,arm3_q,2022.2.5,Win32,60.0348202,60d7078c3e724cb9020fe786,64aeaab685a29f4ca249be02,64bedbdc2217c1ac32d19e4a,right,-1,0.3071,0.35,34,0.005078674,0.2335,,,,,,5,0,5,0,1,,,,,
,,065887,001,2023-07-24_23h34.10.642,arm3_q,2022.2.5,Win32,60.0348202,60d7078c3e724cb9020fe786,64aeaab685a29f4ca249be02,64bedbdc2217c1ac32d19e4a,right,-1,0.3071,0.35,34,-0.021728766,0.1664,,,,,,6,0,6,0,1,,,,,
,,065887,001,2023-07-24_23h34.10.642,arm3_q,2022.2.5,Win32,60.0348202,60d7078c3e724cb9020fe786,64aeaab685a29f4ca249be02,64bedbdc2217c1ac32d19e4a,right,-1,0.3071,0.35,34,-0.042705225,0.1672,,,,,,7,0,7,0,1,,,,,
,,065887,001,2023-07-24_23h34.10.642,arm3_q,2022.2.5,Win32,60.0348202,60d7078c3e724cb9020fe786,64aeaab685a29f4ca249be02,64bedbdc2217c1ac32d19e4a,down,1,0.3071,0.35,34,0,0.3337,,,,,,8,0,8,0,1,,,,,
,,065887,001,2023-07-24_23h34.10.642,arm3_q,2022.2.5,Win32,60.0348202,60d7078c3e724cb9020fe786,64aeaab685a29f4ca249be02,64bedbdc2217c1ac32d19e4a,right,1,0.3071,0.35,34,0.022407922,0.4005,,,,,,9,0,9,0,1,,,,,
,,065887,001,2023-07-24_23h34.10.642,arm3_q,2022.2.5,Win32,60.0348202,60d7078c3e724cb9020fe786,64aeaab685a29f4ca249be02,64bedbdc2217c1ac32d19e4a,right,1,0.3071,0.35,34,0.025025786,0.1673,,,,,,10,0,10,0,1,,,,,
,,065887,001,2023-07-24_23h34.10.642,arm3_q,2022.2.5,Win32,60.0348202,60d7078c3e724cb9020fe786,64aeaab685a29f4ca249be02,64bedbdc2217c1ac32d19e4a,right,1,0.3071,0.35,34,0.030668493,0.1676,,,,,,11,0,11,0,1,,,,,
,,065887,001,2023-07-24_23h34.10.642,arm3_q,2022.2.5,Win32,60.0348202,60d7078c3e724cb9020fe786,64aeaab685a29f4ca249be02,64bedbdc2217c1ac32d19e4a,up,-1,0.3071,0.35,34,0,0.3172,,,,,,12,0,12,0,1,,,,,
,,065887,001,2023-07-24_23h34.10.642,arm3_q,2022.2.5,Win32,60.0348202,60d7078c3e724cb9020fe786,64aeaab685a29f4ca249be02,64bedbdc2217c1ac32d19e4a,right,-1,0.3071,0.35,34,0.005738185,0.3848,,,,,,13,0,13,0,1,,,,,
,,065887,001,2023-07-24_23h34.10.642,arm3_q,2022.2.5,Win32,60.0348202,60d7078c3e724cb9020fe786,64aeaab685a29f4ca249be02,64bedbdc2217c1ac32d19e4a,right,-1,0.3071,0.35,34,0.003637213,0.1775,,,,,,14,0,14,0,1,,,,,
,,065887,001,2023-07-24_23h34.10.642,arm3_q,2022.2.5,Win32,60.0348202,60d7078c3e724cb9020fe786,64aeaab685a29f4ca249be02,64bedbdc2217c1ac32d19e4a,right,-1,0.3071,0.35,34,0.032853989,0.2504,,,,,,15,0,15,0,1,,,,,
,,065887,001,2023-07-24_23h34.10.642,arm3_q,2022.2.5,Win32,60.0348202,60d7078c3e724cb9020fe786,64aeaab685a29f4ca249be02,64bedbdc2217c1ac32d19e4a,right,-1,0.3071,0.35,34,0.035587506,0.1668,,,,,,16,0,16,0,1,,,,,
,,065887,001,2023-07-24_23h34.10.642,arm3_q,2022.2.5,Win32,60.0348202,60d7078c3e724cb9020fe786,64aeaab685a29f4ca249be02,64bedbdc2217c1ac32d19e4a,right,-1,0.3071,0.35,34,0.009724711,0.1671,,,,,,17,0,17,0,1,,,,,
,,065887,001,2023-07-24_23h34.10.642,arm3_q,2022.2.5,Win32,60.0348202,60d7078c3e724cb9020fe786,64aeaab685a29f4ca249be02,64bedbdc2217c1ac32d19e4a,up,-1,0.3071,0.35,34,0,0.3676,,,,,,18,0,18,0,1,,,,,
,,065887,001,2023-07-24_23h34.10.642,arm3_q,2022.2.5,Win32,60.0348202,60d7078c3e724cb9020fe786,64aeaab685a29f4ca249be02,64bedbdc2217c1ac32d19e4a,right,-1,0.3071,0.35,34,-0.010930025,0.4667,,,,,,19,0,19,0,1,,,,,
,,065887,001,2023-07-24_23h34.10.642,arm3_q,2022.2.5,Win32,60.0348202,60d7078c3e724cb9020fe786,64aeaab685a29f4ca249be02,64bedbdc2217c1ac32d19e4a,right,-1,0.3071,0.35,34,-0.066630838,0.2006,,,,,,20,0,20,0,1,,,,,
,,065887,001,2023-07-24_23h34.10.642,arm3_q,2022.2.5,Win32,60.0348202,60d7078c3e724cb9020fe786,64aeaab685a29f4ca249be02,64bedbdc2217c1ac32d19e4a,down,1,0.3071,0.35,34,0,0.3173,,,,,,21,0,21,0,1,,,,,
,,065887,001,2023-07-24_23h34.10.642,arm3_q,2022.2.5,Win32,60.0348202,60d7078c3e724cb9020fe786,64aeaab685a29f4ca249be02,64bedbdc2217c1ac32d19e4a,right,1,0.3071,0.35,34,0.032870965,0.4174,,,,,,22,0,22,0,1,,,,,
,,065887,001,2023-07-24_23h34.10.642,arm3_q,2022.2.5,Win32,60.0348202,60d7078c3e724cb9020fe786,64aeaab685a29f4ca249be02,64bedbdc2217c1ac32d19e4a,right,1,0.3071,0.35,34,0.028732223,0.1891,,,,,,23,0,23,0,1,,,,,
,,065887,001,2023-07-24_23h34.10.642,arm3_q,2022.2.5,Win32,60.0348202,60d7078c3e724cb9020fe786,64aeaab685a29f4ca249be02,64bedbdc2217c1ac32d19e4a,down,1,0.3071,0.35,34,0,0.4,,,,,,24,0,24,0,1,,,,,
,,065887,001,2023-07-24_23h34.10.642,arm3_q,2022.2.5,Win32,60.0348202,60d7078c3e724cb9020fe786,64aeaab685a29f4ca249be02,64bedbdc2217c1ac32d19e4a,right,1,0.3071,0.35,34,0.003249992,0.3392,,,,,,25,0,25,0,1,,,,,
,,065887,001,2023-07-24_23h34.10.642,arm3_q,2022.2.5,Win32,60.0348202,60d7078c3e724cb9020fe786,64aeaab685a29f4ca249be02,64bedbdc2217c1ac32d19e4a,right,1,0.3071,0.35,34,-0.002676452,0.1836,,,,,,26,0,26,0,1,,,,,
,,065887,001,2023-07-24_23h34.10.642,arm3_q,2022.2.5,Win32,60.0348202,60d7078c3e724cb9020fe786,64aeaab685a29f4ca249be02,64bedbdc2217c1ac32d19e4a,down,1,0.3071,0.35,33,0,0.3495,,,,,,27,0,27,0,1,,,,,
,,065887,001,2023-07-24_23h34.10.642,arm3_q,2022.2.5,Win32,60.0348202,60d7078c3e724cb9020fe786,64aeaab685a29f4ca249be02,64bedbdc2217c1ac32d19e4a,right,1,0.3071,0.35,33,-0.011076776,0.3883,,,,,,28,0,28,0,1,,,,,
,,065887,001,2023-07-24_23h34.10.642,arm3_q,2022.2.5,Win32,60.0348202,60d7078c3e724cb9020fe786,64aeaab685a29f4ca249be02,64bedbdc2217c1ac32d19e4a,right,1,0.3071,0.35,33,0.019532225,0.2003,,,,,,29,0,29,0,1,,,,,
,,065887,001,2023-07-24_23h34.10.642,arm3_q,2022.2.5,Win32,60.0348202,60d7078c3e724cb9020fe786,64aeaab685a29f4ca249be02,64bedbdc2217c1ac32d19e4a,up,1,0.3071,0.35,34,0,0.6343,,,,,,30,0,30,0,1,,,,,
,,065887,001,2023-07-24_23h34.10.642,arm3_q,2022.2.5,Win32,60.0348202,60d7078c3e724cb9020fe786,64aeaab685a29f4ca249be02,64bedbdc2217c1ac32d19e4a,right,1,0.3071,0.35,34,0.03235684,0.6502,,,,,,31,0,31,0,1,,,,,
,,065887,001,2023-07-24_23h34.10.642,arm3_q,2022.2.5,Win32,60.0348202,60d7078c3e724cb9020fe786,64aeaab685a29f4ca249be02,64bedbdc2217c1ac32d19e4a,up,1,0.3071,0.35,35,0,0.467,,,,,,32,0,32,0,1,,,,,
,,065887,001,2023-07-24_23h34.10.642,arm3_q,2022.2.5,Win32,60.0348202,60d7078c3e724cb9020fe786,64aeaab685a29f4ca249be02,64bedbdc2217c1ac32d19e4a,right,1,0.3071,0.35,35,0.00901263,0.4169,,,,,,33,0,33,0,1,,,,,
,,065887,001,2023-07-24_23h34.10.642,arm3_q,2022.2.5,Win32,60.0348202,60d7078c3e724cb9020fe786,64aeaab685a29f4ca249be02,64bedbdc2217c1ac32d19e4a,right,1,0.3071,0.35,35,0.067189316,0.2176,,,,,,34,0,34,0,1,,,,,
,,065887,001,2023-07-24_23h34.10.642,arm3_q,2022.2.5,Win32,60.0348202,60d7078c3e724cb9020fe786,64aeaab685a29f4ca249be02,64bedbdc2217c1ac32d19e4a,up,-1,0.3071,0.35,35,0,0.3471,,,,,,35,0,35,0,1,,,,,
,,065887,001,2023-07-24_23h34.10.642,arm3_q,2022.2.5,Win32,60.0348202,60d7078c3e724cb9020fe786,64aeaab685a29f4ca249be02,64bedbdc2217c1ac32d19e4a,right,-1,0.3071,0.35,35,-0.001462929,0.4335,,,,,,36,0,36,0,1,,,,,
,,065887,001,2023-07-24_23h34.10.642,arm3_q,2022.2.5,Win32,60.0348202,60d7078c3e724cb9020fe786,64aeaab685a29f4ca249be02,64bedbdc2217c1ac32d19e4a,right,-1,0.3071,0.35,35,-0.018821605,0.1829,,,,,,37,0,37,0,1,,,,,
,,065887,001,2023-07-24_23h34.10.642,arm3_q,2022.2.5,Win32,60.0348202,60d7078c3e724cb9020fe786,64aeaab685a29f4ca249be02,64bedbdc2217c1ac32d19e4a,down,1,0.3071,0.35,35,0,0.5164,,,,,,38,0,38,0,1,,,,,
,,065887,001,2023-07-24_23h34.10.642,arm3_q,2022.2.5,Win32,60.0348202,60d7078c3e724cb9020fe786,64aeaab685a29f4ca249be02,64bedbdc2217c1ac32d19e4a,right,1,0.3071,0.35,35,0.026823959,0.4172,,,,,,39,0,39,0,1,,,,,
,,065887,001,2023-07-24_23h34.10.642,arm3_q,2022.2.5,Win32,60.0348202,60d7078c3e724cb9020fe786,64aeaab685a29f4ca249be02,64bedbdc2217c1ac32d19e4a,right,1,0.3071,0.35,35,0.04228011,0.1841,,,,,,40,0,40,0,1,,,,,
,,065887,001,2023-07-24_23h34.10.642,arm3_q,2022.2.5,Win32,60.0348202,60d7078c3e724cb9020fe786,64aeaab685a29f4ca249be02,64bedbdc2217c1ac32d19e4a,up,1,0.3071,0.35,35,0,0.4164,,,,,,41,0,41,0,1,,,,,
,,065887,001,2023-07-24_23h34.10.642,arm3_q,2022.2.5,Win32,60.0348202,60d7078c3e724cb9020fe786,64aeaab685a29f4ca249be02,64bedbdc2217c1ac32d19e4a,right,1,0.3071,0.35,35,-0.003777533,0.3905,,,,,,42,0,42,0,1,,,,,
,,065887,001,2023-07-24_23h34.10.642,arm3_q,2022.2.5,Win32,60.0348202,60d7078c3e724cb9020fe786,64aeaab685a29f4ca249be02,64bedbdc2217c1ac32d19e4a,right,1,0.3071,0.35,35,-0.008502956,0.1844,,,,,,43,0,43,0,1,,,,,
,,065887,001,2023-07-24_23h34.10.642,arm3_q,2022.2.5,Win32,60.0348202,60d7078c3e724cb9020fe786,64aeaab685a29f4ca249be02,64bedbdc2217c1ac32d19e4a,up,-1,0.3071,0.35,35,0,0.4837,,,,,,44,0,44,0,1,,,,,
,,065887,001,2023-07-24_23h34.10.642,arm3_q,2022.2.5,Win32,60.0348202,60d7078c3e724cb9020fe786,64aeaab685a29f4ca249be02,64bedbdc2217c1ac32d19e4a,right,-1,0.3071,0.35,35,0.002718278,0.3678,,,,,,45,0,45,0,1,,,,,
,,065887,001,2023-07-24_23h34.10.642,arm3_q,2022.2.5,Win32,60.0348202,60d7078c3e724cb9020fe786,64aeaab685a29f4ca249be02,64bedbdc2217c1ac32d19e4a,right,-1,0.3071,0.35,35,0.000340514,0.1833,,,,,,46,0,46,0,1,,,,,
,,065887,001,2023-07-24_23h34.10.642,arm3_q,2022.2.5,Win32,60.0348202,60d7078c3e724cb9020fe786,64aeaab685a29f4ca249be02,64bedbdc2217c1ac32d19e4a,up,-1,0.3071,0.35,35,0,0.3842,,,,,,47,0,47,0,1,,,,,
