space_bar.keys,space_bar.rt,participant,session,date,expName,psychopyVersion,OS,frameRate,PROLIFIC_PID,STUDY_ID,SESSION_ID,resp.keys,state,q_prob,eps_prob,score,price,resp.rt,train.thisRepN,train.thisTrialN,train.thisN,train.thisIndex,train.ran,steps.thisRepN,steps.thisTrialN,steps.thisN,steps.thisIndex,steps.ran,blocks.thisRepN,blocks.thisTrialN,blocks.thisN,blocks.thisIndex,blocks.ran
space,73.2473,096304,001,2023-07-24_20h59.10.091,arm3_q,2022.2.5,Win32,60.08532116,616a8502cf9f59ac63569662,64aeaab685a29f4ca249be02,64bec9bf6df71bddf4376772,,,,,,,,,,,,,,,,,,,,,,
space,49.6273,096304,001,2023-07-24_20h59.10.091,arm3_q,2022.2.5,Win32,60.08532116,616a8502cf9f59ac63569662,64aeaab685a29f4ca249be02,64bec9bf6df71bddf4376772,,,,,,,,,,,,,,,,,,,,,,
space,64.1637,096304,001,2023-07-24_20h59.10.091,arm3_q,2022.2.5,Win32,60.08532116,616a8502cf9f59ac63569662,64aeaab685a29f4ca249be02,64bec9bf6df71bddf4376772,,,,,,,,,,,,,,,,,,,,,,
space,83.1528,096304,001,2023-07-24_20h59.10.091,arm3_q,2022.2.5,Win32,60.08532116,616a8502cf9f59ac63569662,64aeaab685a29f4ca249be02,64bec9bf6df71bddf4376772,,,,,,,,,,,,,,,,,,,,,,
space,54.0916,096304,001,2023-07-24_20h59.10.091,arm3_q,2022.2.5,Win32,60.08532116,616a8502cf9f59ac63569662,64aeaab685a29f4ca249be02,64bec9bf6df71bddf4376772,,,,,,,,,,,,,,,,,,,,,,
space,168.1267,096304,001,2023-07-24_20h59.10.091,arm3_q,2022.2.5,Win32,60.08532116,616a8502cf9f59ac63569662,64aeaab685a29f4ca249be02,64bec9bf6df71bddf4376772,,,,,,,,,,,,,,,,,,,,,,
space,30.8283,096304,001,2023-07-24_20h59.10.091,arm3_q,2022.2.5,Win32,60.08532116,616a8502cf9f59ac63569662,64aeaab685a29f4ca249be02,64bec9bf6df71bddf4376772,,,,,,,,,,,,,,,,,,,,,,
space,80.7769,096304,001,2023-07-24_20h59.10.091,arm3_q,2022.2.5,Win32,60.08532116,616a8502cf9f59ac63569662,64aeaab685a29f4ca249be02,64bec9bf6df71bddf4376772,,,,,,,,,,,,,,,,,,,,,,
space,30.8356,096304,001,2023-07-24_20h59.10.091,arm3_q,2022.2.5,Win32,60.08532116,616a8502cf9f59ac63569662,64aeaab685a29f4ca249be02,64bec9bf6df71bddf4376772,,,,,,,,,,,,,,,,,,,,,,
space,15.4273,096304,001,2023-07-24_20h59.10.091,arm3_q,2022.2.5,Win32,60.08532116,616a8502cf9f59ac63569662,64aeaab685a29f4ca249be02,64bec9bf6df71bddf4376772,,,,,,,,,,,,,,,,,,,,,,
,,096304,001,2023-07-24_20h59.10.091,arm3_q,2022.2.5,Win32,60.08532116,616a8502cf9f59ac63569662,64aeaab685a29f4ca249be02,64bec9bf6df71bddf4376772,right,-1,0.5643,0.35,0,-0.022189298,1.9639,0,0,0,0,1,,,,,,,,,,
,,096304,001,2023-07-24_20h59.10.091,arm3_q,2022.2.5,Win32,60.08532116,616a8502cf9f59ac63569662,64aeaab685a29f4ca249be02,64bec9bf6df71bddf4376772,down,1,0.5643,0.35,1,0,1.2967,1,0,1,0,1,,,,,,,,,,
,,096304,001,2023-07-24_20h59.10.091,arm3_q,2022.2.5,Win32,60.08532116,616a8502cf9f59ac63569662,64aeaab685a29f4ca249be02,64bec9bf6df71bddf4376772,right,1,0.5643,0.35,1,0.03896232,1.6662,2,0,2,0,1,,,,,,,,,,
,,096304,001,2023-07-24_20h59.10.091,arm3_q,2022.2.5,Win32,60.08532116,616a8502cf9f59ac63569662,64aeaab685a29f4ca249be02,64bec9bf6df71bddf4376772,right,1,0.5643,0.35,1,0.033024546,0.7295,3,0,3,0,1,,,,,,,,,,
,,096304,001,2023-07-24_20h59.10.091,arm3_q,2022.2.5,Win32,60.08532116,616a8502cf9f59ac63569662,64aeaab685a29f4ca249be02,64bec9bf6df71bddf4376772,right,1,0.5643,0.35,1,0.037185618,0.4699,4,0,4,0,1,,,,,,,,,,
,,096304,001,2023-07-24_20h59.10.091,arm3_q,2022.2.5,Win32,60.08532116,616a8502cf9f59ac63569662,64aeaab685a29f4ca249be02,64bec9bf6df71bddf4376772,up,-1,0.5643,0.35,2,0,2.214,5,0,5,0,1,,,,,,,,,,
,,096304,001,2023-07-24_20h59.10.091,arm3_q,2022.2.5,Win32,60.08532116,616a8502cf9f59ac63569662,64aeaab685a29f4ca249be02,64bec9bf6df71bddf4376772,right,-1,0.5643,0.35,2,-0.023566715,66.1163,6,0,6,0,1,,,,,,,,,,
,,096304,001,2023-07-24_20h59.10.091,arm3_q,2022.2.5,Win32,60.08532116,616a8502cf9f59ac63569662,64aeaab685a29f4ca249be02,64bec9bf6df71bddf4376772,right,-1,0.5643,0.35,2,-0.03338209,0.4015,7,0,7,0,1,,,,,,,,,,
,,096304,001,2023-07-24_20h59.10.091,arm3_q,2022.2.5,Win32,60.08532116,616a8502cf9f59ac63569662,64aeaab685a29f4ca249be02,64bec9bf6df71bddf4376772,right,-1,0.5643,0.35,2,-0.022293017,0.5147,8,0,8,0,1,,,,,,,,,,
,,096304,001,2023-07-24_20h59.10.091,arm3_q,2022.2.5,Win32,60.08532116,616a8502cf9f59ac63569662,64aeaab685a29f4ca249be02,64bec9bf6df71bddf4376772,up,1,0.5643,0.35,2,0,0.8147,9,0,9,0,1,,,,,,,,,,
,,096304,001,2023-07-24_20h59.10.091,arm3_q,2022.2.5,Win32,60.08532116,616a8502cf9f59ac63569662,64aeaab685a29f4ca249be02,64bec9bf6df71bddf4376772,right,1,0.5643,0.35,2,-0.026013849,1.0838,10,0,10,0,1,,,,,,,,,,
,,096304,001,2023-07-24_20h59.10.091,arm3_q,2022.2.5,Win32,60.08532116,616a8502cf9f59ac63569662,64aeaab685a29f4ca249be02,64bec9bf6df71bddf4376772,right,1,0.5643,0.35,2,0.022561198,0.2029,11,0,11,0,1,,,,,,,,,,
,,096304,001,2023-07-24_20h59.10.091,arm3_q,2022.2.5,Win32,60.08532116,616a8502cf9f59ac63569662,64aeaab685a29f4ca249be02,64bec9bf6df71bddf4376772,right,1,0.5643,0.35,2,0.046036247,0.3308,12,0,12,0,1,,,,,,,,,,
,,096304,001,2023-07-24_20h59.10.091,arm3_q,2022.2.5,Win32,60.08532116,616a8502cf9f59ac63569662,64aeaab685a29f4ca249be02,64bec9bf6df71bddf4376772,right,1,0.5643,0.35,2,0.041411321,0.4975,13,0,13,0,1,,,,,,,,,,
,,096304,001,2023-07-24_20h59.10.091,arm3_q,2022.2.5,Win32,60.08532116,616a8502cf9f59ac63569662,64aeaab685a29f4ca249be02,64bec9bf6df71bddf4376772,right,1,0.5643,0.35,2,0.026647124,0.2146,14,0,14,0,1,,,,,,,,,,
,,096304,001,2023-07-24_20h59.10.091,arm3_q,2022.2.5,Win32,60.08532116,616a8502cf9f59ac63569662,64aeaab685a29f4ca249be02,64bec9bf6df71bddf4376772,right,1,0.5643,0.35,2,0.054600368,0.2654,15,0,15,0,1,,,,,,,,,,
,,096304,001,2023-07-24_20h59.10.091,arm3_q,2022.2.5,Win32,60.08532116,616a8502cf9f59ac63569662,64aeaab685a29f4ca249be02,64bec9bf6df71bddf4376772,up,-1,0.5643,0.35,2,0,0.4016,16,0,16,0,1,,,,,,,,,,
,,096304,001,2023-07-24_20h59.10.091,arm3_q,2022.2.5,Win32,60.08532116,616a8502cf9f59ac63569662,64aeaab685a29f4ca249be02,64bec9bf6df71bddf4376772,right,-1,0.5643,0.35,2,0.009228274,1.2776,17,0,17,0,1,,,,,,,,,,
,,096304,001,2023-07-24_20h59.10.091,arm3_q,2022.2.5,Win32,60.08532116,616a8502cf9f59ac63569662,64aeaab685a29f4ca249be02,64bec9bf6df71bddf4376772,right,-1,0.5643,0.35,2,0.005855617,0.3305,18,0,18,0,1,,,,,,,,,,
,,096304,001,2023-07-24_20h59.10.091,arm3_q,2022.2.5,Win32,60.08532116,616a8502cf9f59ac63569662,64aeaab685a29f4ca249be02,64bec9bf6df71bddf4376772,right,-1,0.5643,0.35,2,0.014566034,0.3474,19,0,19,0,1,,,,,,,,,,
,,096304,001,2023-07-24_20h59.10.091,arm3_q,2022.2.5,Win32,60.08532116,616a8502cf9f59ac63569662,64aeaab685a29f4ca249be02,64bec9bf6df71bddf4376772,right,-1,0.5643,0.35,2,0.037939472,0.3167,20,0,20,0,1,,,,,,,,,,
,,096304,001,2023-07-24_20h59.10.091,arm3_q,2022.2.5,Win32,60.08532116,616a8502cf9f59ac63569662,64aeaab685a29f4ca249be02,64bec9bf6df71bddf4376772,up,-1,0.5643,0.35,1,0,0.3533,21,0,21,0,1,,,,,,,,,,
,,096304,001,2023-07-24_20h59.10.091,arm3_q,2022.2.5,Win32,60.08532116,616a8502cf9f59ac63569662,64aeaab685a29f4ca249be02,64bec9bf6df71bddf4376772,right,-1,0.5643,0.35,1,-0.024670191,1.0354,22,0,22,0,1,,,,,,,,,,
,,096304,001,2023-07-24_20h59.10.091,arm3_q,2022.2.5,Win32,60.08532116,616a8502cf9f59ac63569662,64aeaab685a29f4ca249be02,64bec9bf6df71bddf4376772,right,-1,0.5643,0.35,1,-0.029150802,0.1855,23,0,23,0,1,,,,,,,,,,
,,096304,001,2023-07-24_20h59.10.091,arm3_q,2022.2.5,Win32,60.08532116,616a8502cf9f59ac63569662,64aeaab685a29f4ca249be02,64bec9bf6df71bddf4376772,right,-1,0.5643,0.35,1,-0.027015947,0.1531,24,0,24,0,1,,,,,,,,,,
,,096304,001,2023-07-24_20h59.10.091,arm3_q,2022.2.5,Win32,60.08532116,616a8502cf9f59ac63569662,64aeaab685a29f4ca249be02,64bec9bf6df71bddf4376772,right,-1,0.5643,0.35,1,-0.036528768,0.148,25,0,25,0,1,,,,,,,,,,
,,096304,001,2023-07-24_20h59.10.091,arm3_q,2022.2.5,Win32,60.08532116,616a8502cf9f59ac63569662,64aeaab685a29f4ca249be02,64bec9bf6df71bddf4376772,right,-1,0.5643,0.35,1,-0.03083982,0.1487,26,0,26,0,1,,,,,,,,,,
,,096304,001,2023-07-24_20h59.10.091,arm3_q,2022.2.5,Win32,60.08532116,616a8502cf9f59ac63569662,64aeaab685a29f4ca249be02,64bec9bf6df71bddf4376772,right,-1,0.5643,0.35,1,-0.021867333,0.1548,27,0,27,0,1,,,,,,,,,,
,,096304,001,2023-07-24_20h59.10.091,arm3_q,2022.2.5,Win32,60.08532116,616a8502cf9f59ac63569662,64aeaab685a29f4ca249be02,64bec9bf6df71bddf4376772,right,-1,0.5643,0.35,1,-0.018292624,0.1633,28,0,28,0,1,,,,,,,,,,
,,096304,001,2023-07-24_20h59.10.091,arm3_q,2022.2.5,Win32,60.08532116,616a8502cf9f59ac63569662,64aeaab685a29f4ca249be02,64bec9bf6df71bddf4376772,right,-1,0.5643,0.35,1,-0.013412979,0.1481,29,0,29,0,1,,,,,,,,,,
,,096304,001,2023-07-24_20h59.10.091,arm3_q,2022.2.5,Win32,60.08532116,616a8502cf9f59ac63569662,64aeaab685a29f4ca249be02,64bec9bf6df71bddf4376772,right,-1,0.5643,0.35,1,-0.002254183,0.1904,30,0,30,0,1,,,,,,,,,,
,,096304,001,2023-07-24_20h59.10.091,arm3_q,2022.2.5,Win32,60.08532116,616a8502cf9f59ac63569662,64aeaab685a29f4ca249be02,64bec9bf6df71bddf4376772,right,-1,0.5643,0.35,1,-0.009818031,0.3128,31,0,31,0,1,,,,,,,,,,
,,096304,001,2023-07-24_20h59.10.091,arm3_q,2022.2.5,Win32,60.08532116,616a8502cf9f59ac63569662,64aeaab685a29f4ca249be02,64bec9bf6df71bddf4376772,right,-1,0.5643,0.35,1,-0.020998375,0.3117,32,0,32,0,1,,,,,,,,,,
,,096304,001,2023-07-24_20h59.10.091,arm3_q,2022.2.5,Win32,60.08532116,616a8502cf9f59ac63569662,64aeaab685a29f4ca249be02,64bec9bf6df71bddf4376772,down,-1,0.5643,0.35,2,0,0.7807,33,0,33,0,1,,,,,,,,,,
,,096304,001,2023-07-24_20h59.10.091,arm3_q,2022.2.5,Win32,60.08532116,616a8502cf9f59ac63569662,64aeaab685a29f4ca249be02,64bec9bf6df71bddf4376772,right,-1,0.5643,0.35,2,-0.010258684,2.4092,34,0,34,0,1,,,,,,,,,,
,,096304,001,2023-07-24_20h59.10.091,arm3_q,2022.2.5,Win32,60.08532116,616a8502cf9f59ac63569662,64aeaab685a29f4ca249be02,64bec9bf6df71bddf4376772,right,-1,0.5643,0.35,2,-0.042477476,0.1474,35,0,35,0,1,,,,,,,,,,
,,096304,001,2023-07-24_20h59.10.091,arm3_q,2022.2.5,Win32,60.08532116,616a8502cf9f59ac63569662,64aeaab685a29f4ca249be02,64bec9bf6df71bddf4376772,right,-1,0.5643,0.35,2,-0.03862758,0.1351,36,0,36,0,1,,,,,,,,,,
,,096304,001,2023-07-24_20h59.10.091,arm3_q,2022.2.5,Win32,60.08532116,616a8502cf9f59ac63569662,64aeaab685a29f4ca249be02,64bec9bf6df71bddf4376772,right,-1,0.5643,0.35,2,-0.071490511,0.1515,37,0,37,0,1,,,,,,,,,,
,,096304,001,2023-07-24_20h59.10.091,arm3_q,2022.2.5,Win32,60.08532116,616a8502cf9f59ac63569662,64aeaab685a29f4ca249be02,64bec9bf6df71bddf4376772,right,-1,0.5643,0.35,2,-0.052820558,0.1464,38,0,38,0,1,,,,,,,,,,
,,096304,001,2023-07-24_20h59.10.091,arm3_q,2022.2.5,Win32,60.08532116,616a8502cf9f59ac63569662,64aeaab685a29f4ca249be02,64bec9bf6df71bddf4376772,right,-1,0.5643,0.35,2,-0.057728895,0.1379,39,0,39,0,1,,,,,,,,,,
,,096304,001,2023-07-24_20h59.10.091,arm3_q,2022.2.5,Win32,60.08532116,616a8502cf9f59ac63569662,64aeaab685a29f4ca249be02,64bec9bf6df71bddf4376772,right,-1,0.5643,0.35,2,-0.068202759,0.3623,40,0,40,0,1,,,,,,,,,,
,,096304,001,2023-07-24_20h59.10.091,arm3_q,2022.2.5,Win32,60.08532116,616a8502cf9f59ac63569662,64aeaab685a29f4ca249be02,64bec9bf6df71bddf4376772,right,-1,0.5643,0.35,2,-0.063038063,0.1648,41,0,41,0,1,,,,,,,,,,
,,096304,001,2023-07-24_20h59.10.091,arm3_q,2022.2.5,Win32,60.08532116,616a8502cf9f59ac63569662,64aeaab685a29f4ca249be02,64bec9bf6df71bddf4376772,right,-1,0.5643,0.35,2,-0.089652535,0.1475,42,0,42,0,1,,,,,,,,,,
,,096304,001,2023-07-24_20h59.10.091,arm3_q,2022.2.5,Win32,60.08532116,616a8502cf9f59ac63569662,64aeaab685a29f4ca249be02,64bec9bf6df71bddf4376772,right,-1,0.5643,0.35,2,-0.10708421,0.1799,43,0,43,0,1,,,,,,,,,,
,,096304,001,2023-07-24_20h59.10.091,arm3_q,2022.2.5,Win32,60.08532116,616a8502cf9f59ac63569662,64aeaab685a29f4ca249be02,64bec9bf6df71bddf4376772,down,-1,0.5643,0.35,2,0,0.4652,44,0,44,0,1,,,,,,,,,,
,,096304,001,2023-07-24_20h59.10.091,arm3_q,2022.2.5,Win32,60.08532116,616a8502cf9f59ac63569662,64aeaab685a29f4ca249be02,64bec9bf6df71bddf4376772,right,-1,0.5643,0.35,2,-0.015393574,1.249,45,0,45,0,1,,,,,,,,,,
,,096304,001,2023-07-24_20h59.10.091,arm3_q,2022.2.5,Win32,60.08532116,616a8502cf9f59ac63569662,64aeaab685a29f4ca249be02,64bec9bf6df71bddf4376772,right,-1,0.5643,0.35,2,-0.034099418,0.8034,46,0,46,0,1,,,,,,,,,,
,,096304,001,2023-07-24_20h59.10.091,arm3_q,2022.2.5,Win32,60.08532116,616a8502cf9f59ac63569662,64aeaab685a29f4ca249be02,64bec9bf6df71bddf4376772,right,-1,0.5643,0.35,2,-0.065292653,0.131,47,0,47,0,1,,,,,,,,,,
,,096304,001,2023-07-24_20h59.10.091,arm3_q,2022.2.5,Win32,60.08532116,616a8502cf9f59ac63569662,64aeaab685a29f4ca249be02,64bec9bf6df71bddf4376772,right,-1,0.5643,0.35,2,-0.079503223,0.1388,48,0,48,0,1,,,,,,,,,,
,,096304,001,2023-07-24_20h59.10.091,arm3_q,2022.2.5,Win32,60.08532116,616a8502cf9f59ac63569662,64aeaab685a29f4ca249be02,64bec9bf6df71bddf4376772,right,-1,0.5643,0.35,2,-0.092242945,0.1352,49,0,49,0,1,,,,,,,,,,
space,1.6644,096304,001,2023-07-24_20h59.10.091,arm3_q,2022.2.5,Win32,60.08532116,616a8502cf9f59ac63569662,64aeaab685a29f4ca249be02,64bec9bf6df71bddf4376772,,,,,,,,,,,,,,,,,,,,,,
space,10.5788,096304,001,2023-07-24_20h59.10.091,arm3_q,2022.2.5,Win32,60.08532116,616a8502cf9f59ac63569662,64aeaab685a29f4ca249be02,64bec9bf6df71bddf4376772,right,-1,0.8214,0.35,0,-0.01871607,1.1976,,,,,,0,0,0,0,1,,,,,
,,096304,001,2023-07-24_20h59.10.091,arm3_q,2022.2.5,Win32,60.08532116,616a8502cf9f59ac63569662,64aeaab685a29f4ca249be02,64bec9bf6df71bddf4376772,right,-1,0.8214,0.35,0,-0.033937828,0.2811,,,,,,1,0,1,0,1,,,,,
,,096304,001,2023-07-24_20h59.10.091,arm3_q,2022.2.5,Win32,60.08532116,616a8502cf9f59ac63569662,64aeaab685a29f4ca249be02,64bec9bf6df71bddf4376772,right,-1,0.8214,0.35,0,-0.044976111,0.2647,,,,,,2,0,2,0,1,,,,,
,,096304,001,2023-07-24_20h59.10.091,arm3_q,2022.2.5,Win32,60.08532116,616a8502cf9f59ac63569662,64aeaab685a29f4ca249be02,64bec9bf6df71bddf4376772,down,1,0.8214,0.35,1,0,0.4479,,,,,,3,0,3,0,1,,,,,
,,096304,001,2023-07-24_20h59.10.091,arm3_q,2022.2.5,Win32,60.08532116,616a8502cf9f59ac63569662,64aeaab685a29f4ca249be02,64bec9bf6df71bddf4376772,right,1,0.8214,0.35,1,0.046278503,0.8432,,,,,,4,0,4,0,1,,,,,
,,096304,001,2023-07-24_20h59.10.091,arm3_q,2022.2.5,Win32,60.08532116,616a8502cf9f59ac63569662,64aeaab685a29f4ca249be02,64bec9bf6df71bddf4376772,right,1,0.8214,0.35,1,0.043323739,0.4813,,,,,,5,0,5,0,1,,,,,
,,096304,001,2023-07-24_20h59.10.091,arm3_q,2022.2.5,Win32,60.08532116,616a8502cf9f59ac63569662,64aeaab685a29f4ca249be02,64bec9bf6df71bddf4376772,up,-1,0.8214,0.35,2,0,0.3974,,,,,,6,0,6,0,1,,,,,
,,096304,001,2023-07-24_20h59.10.091,arm3_q,2022.2.5,Win32,60.08532116,616a8502cf9f59ac63569662,64aeaab685a29f4ca249be02,64bec9bf6df71bddf4376772,right,-1,0.8214,0.35,2,-0.002043743,0.8104,,,,,,7,0,7,0,1,,,,,
,,096304,001,2023-07-24_20h59.10.091,arm3_q,2022.2.5,Win32,60.08532116,616a8502cf9f59ac63569662,64aeaab685a29f4ca249be02,64bec9bf6df71bddf4376772,right,-1,0.8214,0.35,2,0.004007237,0.2145,,,,,,8,0,8,0,1,,,,,
,,096304,001,2023-07-24_20h59.10.091,arm3_q,2022.2.5,Win32,60.08532116,616a8502cf9f59ac63569662,64aeaab685a29f4ca249be02,64bec9bf6df71bddf4376772,right,-1,0.8214,0.35,2,0.012838206,0.2639,,,,,,9,0,9,0,1,,,,,
,,096304,001,2023-07-24_20h59.10.091,arm3_q,2022.2.5,Win32,60.08532116,616a8502cf9f59ac63569662,64aeaab685a29f4ca249be02,64bec9bf6df71bddf4376772,right,-1,0.8214,0.35,2,0.0252597,0.3345,,,,,,10,0,10,0,1,,,,,
,,096304,001,2023-07-24_20h59.10.091,arm3_q,2022.2.5,Win32,60.08532116,616a8502cf9f59ac63569662,64aeaab685a29f4ca249be02,64bec9bf6df71bddf4376772,up,1,0.8214,0.35,1,0,0.3478,,,,,,11,0,11,0,1,,,,,
,,096304,001,2023-07-24_20h59.10.091,arm3_q,2022.2.5,Win32,60.08532116,616a8502cf9f59ac63569662,64aeaab685a29f4ca249be02,64bec9bf6df71bddf4376772,right,1,0.8214,0.35,1,0.006579325,1.1698,,,,,,12,0,12,0,1,,,,,
,,096304,001,2023-07-24_20h59.10.091,arm3_q,2022.2.5,Win32,60.08532116,616a8502cf9f59ac63569662,64aeaab685a29f4ca249be02,64bec9bf6df71bddf4376772,right,1,0.8214,0.35,1,0.017087513,0.9031,,,,,,13,0,13,0,1,,,,,
,,096304,001,2023-07-24_20h59.10.091,arm3_q,2022.2.5,Win32,60.08532116,616a8502cf9f59ac63569662,64aeaab685a29f4ca249be02,64bec9bf6df71bddf4376772,right,1,0.8214,0.35,1,0.024605335,0.0809,,,,,,14,0,14,0,1,,,,,
,,096304,001,2023-07-24_20h59.10.091,arm3_q,2022.2.5,Win32,60.08532116,616a8502cf9f59ac63569662,64aeaab685a29f4ca249be02,64bec9bf6df71bddf4376772,up,-1,0.8214,0.35,2,0,0.8476,,,,,,15,0,15,0,1,,,,,
,,096304,001,2023-07-24_20h59.10.091,arm3_q,2022.2.5,Win32,60.08532116,616a8502cf9f59ac63569662,64aeaab685a29f4ca249be02,64bec9bf6df71bddf4376772,right,-1,0.8214,0.35,2,-0.030270398,34.5851,,,,,,16,0,16,0,1,,,,,
,,096304,001,2023-07-24_20h59.10.091,arm3_q,2022.2.5,Win32,60.08532116,616a8502cf9f59ac63569662,64aeaab685a29f4ca249be02,64bec9bf6df71bddf4376772,right,-1,0.8214,0.35,2,-0.008930351,0.4837,,,,,,17,0,17,0,1,,,,,
,,096304,001,2023-07-24_20h59.10.091,arm3_q,2022.2.5,Win32,60.08532116,616a8502cf9f59ac63569662,64aeaab685a29f4ca249be02,64bec9bf6df71bddf4376772,up,-1,0.8214,0.35,1,0,0.5338,,,,,,18,0,18,0,1,,,,,
,,096304,001,2023-07-24_20h59.10.091,arm3_q,2022.2.5,Win32,60.08532116,616a8502cf9f59ac63569662,64aeaab685a29f4ca249be02,64bec9bf6df71bddf4376772,right,-1,0.8214,0.35,1,0.009268942,0.9335,,,,,,19,0,19,0,1,,,,,
,,096304,001,2023-07-24_20h59.10.091,arm3_q,2022.2.5,Win32,60.08532116,616a8502cf9f59ac63569662,64aeaab685a29f4ca249be02,64bec9bf6df71bddf4376772,right,-1,0.8214,0.35,1,0.004062449,0.1836,,,,,,20,0,20,0,1,,,,,
,,096304,001,2023-07-24_20h59.10.091,arm3_q,2022.2.5,Win32,60.08532116,616a8502cf9f59ac63569662,64aeaab685a29f4ca249be02,64bec9bf6df71bddf4376772,right,-1,0.8214,0.35,1,0.022565745,0.8004,,,,,,21,0,21,0,1,,,,,
,,096304,001,2023-07-24_20h59.10.091,arm3_q,2022.2.5,Win32,60.08532116,616a8502cf9f59ac63569662,64aeaab685a29f4ca249be02,64bec9bf6df71bddf4376772,right,-1,0.8214,0.35,1,0.032502197,0.1671,,,,,,22,0,22,0,1,,,,,
,,096304,001,2023-07-24_20h59.10.091,arm3_q,2022.2.5,Win32,60.08532116,616a8502cf9f59ac63569662,64aeaab685a29f4ca249be02,64bec9bf6df71bddf4376772,right,-1,0.8214,0.35,1,0.049796732,0.3337,,,,,,23,0,23,0,1,,,,,
,,096304,001,2023-07-24_20h59.10.091,arm3_q,2022.2.5,Win32,60.08532116,616a8502cf9f59ac63569662,64aeaab685a29f4ca249be02,64bec9bf6df71bddf4376772,up,-1,0.8214,0.35,0,0,0.1835,,,,,,24,0,24,0,1,,,,,
,,096304,001,2023-07-24_20h59.10.091,arm3_q,2022.2.5,Win32,60.08532116,616a8502cf9f59ac63569662,64aeaab685a29f4ca249be02,64bec9bf6df71bddf4376772,right,-1,0.8214,0.35,0,-0.015707093,0.8838,,,,,,25,0,25,0,1,,,,,
,,096304,001,2023-07-24_20h59.10.091,arm3_q,2022.2.5,Win32,60.08532116,616a8502cf9f59ac63569662,64aeaab685a29f4ca249be02,64bec9bf6df71bddf4376772,right,-1,0.8214,0.35,0,-0.008193213,0.1838,,,,,,26,0,26,0,1,,,,,
,,096304,001,2023-07-24_20h59.10.091,arm3_q,2022.2.5,Win32,60.08532116,616a8502cf9f59ac63569662,64aeaab685a29f4ca249be02,64bec9bf6df71bddf4376772,right,-1,0.8214,0.35,0,-0.018567198,0.151,,,,,,27,0,27,0,1,,,,,
,,096304,001,2023-07-24_20h59.10.091,arm3_q,2022.2.5,Win32,60.08532116,616a8502cf9f59ac63569662,64aeaab685a29f4ca249be02,64bec9bf6df71bddf4376772,right,-1,0.8214,0.35,0,0.011875445,0.1347,,,,,,28,0,28,0,1,,,,,
,,096304,001,2023-07-24_20h59.10.091,arm3_q,2022.2.5,Win32,60.08532116,616a8502cf9f59ac63569662,64aeaab685a29f4ca249be02,64bec9bf6df71bddf4376772,right,-1,0.8214,0.35,0,0.005870392,0.1506,,,,,,29,0,29,0,1,,,,,
,,096304,001,2023-07-24_20h59.10.091,arm3_q,2022.2.5,Win32,60.08532116,616a8502cf9f59ac63569662,64aeaab685a29f4ca249be02,64bec9bf6df71bddf4376772,right,-1,0.8214,0.35,0,0.005527895,0.1343,,,,,,30,0,30,0,1,,,,,
,,096304,001,2023-07-24_20h59.10.091,arm3_q,2022.2.5,Win32,60.08532116,616a8502cf9f59ac63569662,64aeaab685a29f4ca249be02,64bec9bf6df71bddf4376772,down,1,0.8214,0.35,0,0,0.8005,,,,,,31,0,31,0,1,,,,,
,,096304,001,2023-07-24_20h59.10.091,arm3_q,2022.2.5,Win32,60.08532116,616a8502cf9f59ac63569662,64aeaab685a29f4ca249be02,64bec9bf6df71bddf4376772,right,1,0.8214,0.35,0,-0.005610966,1.0337,,,,,,32,0,32,0,1,,,,,
,,096304,001,2023-07-24_20h59.10.091,arm3_q,2022.2.5,Win32,60.08532116,616a8502cf9f59ac63569662,64aeaab685a29f4ca249be02,64bec9bf6df71bddf4376772,right,1,0.8214,0.35,0,-0.026699695,0.2005,,,,,,33,0,33,0,1,,,,,
,,096304,001,2023-07-24_20h59.10.091,arm3_q,2022.2.5,Win32,60.08532116,616a8502cf9f59ac63569662,64aeaab685a29f4ca249be02,64bec9bf6df71bddf4376772,right,1,0.8214,0.35,0,-0.036435433,0.1671,,,,,,34,0,34,0,1,,,,,
,,096304,001,2023-07-24_20h59.10.091,arm3_q,2022.2.5,Win32,60.08532116,616a8502cf9f59ac63569662,64aeaab685a29f4ca249be02,64bec9bf6df71bddf4376772,right,1,0.8214,0.35,0,-0.010480463,0.167,,,,,,35,0,35,0,1,,,,,
,,096304,001,2023-07-24_20h59.10.091,arm3_q,2022.2.5,Win32,60.08532116,616a8502cf9f59ac63569662,64aeaab685a29f4ca249be02,64bec9bf6df71bddf4376772,right,1,0.8214,0.35,0,-0.013195005,0.3912,,,,,,36,0,36,0,1,,,,,
,,096304,001,2023-07-24_20h59.10.091,arm3_q,2022.2.5,Win32,60.08532116,616a8502cf9f59ac63569662,64aeaab685a29f4ca249be02,64bec9bf6df71bddf4376772,right,1,0.8214,0.35,0,-0.018734825,0.3338,,,,,,37,0,37,0,1,,,,,
,,096304,001,2023-07-24_20h59.10.091,arm3_q,2022.2.5,Win32,60.08532116,616a8502cf9f59ac63569662,64aeaab685a29f4ca249be02,64bec9bf6df71bddf4376772,right,1,0.8214,0.35,0,0.000829152,0.3839,,,,,,38,0,38,0,1,,,,,
,,096304,001,2023-07-24_20h59.10.091,arm3_q,2022.2.5,Win32,60.08532116,616a8502cf9f59ac63569662,64aeaab685a29f4ca249be02,64bec9bf6df71bddf4376772,right,1,0.8214,0.35,0,0.012630993,0.334,,,,,,39,0,39,0,1,,,,,
,,096304,001,2023-07-24_20h59.10.091,arm3_q,2022.2.5,Win32,60.08532116,616a8502cf9f59ac63569662,64aeaab685a29f4ca249be02,64bec9bf6df71bddf4376772,right,1,0.8214,0.35,0,0.043350823,0.3171,,,,,,40,0,40,0,1,,,,,
,,096304,001,2023-07-24_20h59.10.091,arm3_q,2022.2.5,Win32,60.08532116,616a8502cf9f59ac63569662,64aeaab685a29f4ca249be02,64bec9bf6df71bddf4376772,up,1,0.8214,0.35,1,0,0.4851,,,,,,41,0,41,0,1,,,,,
,,096304,001,2023-07-24_20h59.10.091,arm3_q,2022.2.5,Win32,60.08532116,616a8502cf9f59ac63569662,64aeaab685a29f4ca249be02,64bec9bf6df71bddf4376772,right,1,0.8214,0.35,1,-0.006793396,0.8503,,,,,,42,0,42,0,1,,,,,
,,096304,001,2023-07-24_20h59.10.091,arm3_q,2022.2.5,Win32,60.08532116,616a8502cf9f59ac63569662,64aeaab685a29f4ca249be02,64bec9bf6df71bddf4376772,right,1,0.8214,0.35,1,0.027511333,0.1838,,,,,,43,0,43,0,1,,,,,
,,096304,001,2023-07-24_20h59.10.091,arm3_q,2022.2.5,Win32,60.08532116,616a8502cf9f59ac63569662,64aeaab685a29f4ca249be02,64bec9bf6df71bddf4376772,right,1,0.8214,0.35,1,-0.003471522,0.3827,,,,,,44,0,44,0,1,,,,,
,,096304,001,2023-07-24_20h59.10.091,arm3_q,2022.2.5,Win32,60.08532116,616a8502cf9f59ac63569662,64aeaab685a29f4ca249be02,64bec9bf6df71bddf4376772,right,1,0.8214,0.35,1,0.006518308,0.3499,,,,,,45,0,45,0,1,,,,,
,,096304,001,2023-07-24_20h59.10.091,arm3_q,2022.2.5,Win32,60.08532116,616a8502cf9f59ac63569662,64aeaab685a29f4ca249be02,64bec9bf6df71bddf4376772,right,1,0.8214,0.35,1,0.032729142,0.35,,,,,,46,0,46,0,1,,,,,
,,096304,001,2023-07-24_20h59.10.091,arm3_q,2022.2.5,Win32,60.08532116,616a8502cf9f59ac63569662,64aeaab685a29f4ca249be02,64bec9bf6df71bddf4376772,right,1,0.8214,0.35,1,0.044572063,0.2675,,,,,,47,0,47,0,1,,,,,
,,096304,001,2023-07-24_20h59.10.091,arm3_q,2022.2.5,Win32,60.08532116,616a8502cf9f59ac63569662,64aeaab685a29f4ca249be02,64bec9bf6df71bddf4376772,right,1,0.8214,0.35,1,0.080318627,0.2511,,,,,,48,0,48,0,1,,,,,
,,096304,001,2023-07-24_20h59.10.091,arm3_q,2022.2.5,Win32,60.08532116,616a8502cf9f59ac63569662,64aeaab685a29f4ca249be02,64bec9bf6df71bddf4376772,up,1,0.8214,0.35,2,0,0.2815,,,,,,49,0,49,0,1,,,,,
,,096304,001,2023-07-24_20h59.10.091,arm3_q,2022.2.5,Win32,60.08532116,616a8502cf9f59ac63569662,64aeaab685a29f4ca249be02,64bec9bf6df71bddf4376772,right,1,0.8214,0.35,2,0.030708058,0.6677,,,,,,50,0,50,0,1,,,,,
,,096304,001,2023-07-24_20h59.10.091,arm3_q,2022.2.5,Win32,60.08532116,616a8502cf9f59ac63569662,64aeaab685a29f4ca249be02,64bec9bf6df71bddf4376772,right,1,0.8214,0.35,2,0.066440938,0.2005,,,,,,51,0,51,0,1,,,,,
,,096304,001,2023-07-24_20h59.10.091,arm3_q,2022.2.5,Win32,60.08532116,616a8502cf9f59ac63569662,64aeaab685a29f4ca249be02,64bec9bf6df71bddf4376772,right,1,0.8214,0.35,2,0.059047964,0.1504,,,,,,52,0,52,0,1,,,,,
,,096304,001,2023-07-24_20h59.10.091,arm3_q,2022.2.5,Win32,60.08532116,616a8502cf9f59ac63569662,64aeaab685a29f4ca249be02,64bec9bf6df71bddf4376772,right,1,0.8214,0.35,2,0.053600349,0.167,,,,,,53,0,53,0,1,,,,,
,,096304,001,2023-07-24_20h59.10.091,arm3_q,2022.2.5,Win32,60.08532116,616a8502cf9f59ac63569662,64aeaab685a29f4ca249be02,64bec9bf6df71bddf4376772,right,1,0.8214,0.35,2,0.042937154,0.1669,,,,,,54,0,54,0,1,,,,,
,,096304,001,2023-07-24_20h59.10.091,arm3_q,2022.2.5,Win32,60.08532116,616a8502cf9f59ac63569662,64aeaab685a29f4ca249be02,64bec9bf6df71bddf4376772,right,1,0.8214,0.35,2,0.070912714,0.1675,,,,,,55,0,55,0,1,,,,,
,,096304,001,2023-07-24_20h59.10.091,arm3_q,2022.2.5,Win32,60.08532116,616a8502cf9f59ac63569662,64aeaab685a29f4ca249be02,64bec9bf6df71bddf4376772,right,1,0.8214,0.35,2,0.086873297,0.1714,,,,,,56,0,56,0,1,,,,,
,,096304,001,2023-07-24_20h59.10.091,arm3_q,2022.2.5,Win32,60.08532116,616a8502cf9f59ac63569662,64aeaab685a29f4ca249be02,64bec9bf6df71bddf4376772,up,1,0.8214,0.35,3,0,0.884,,,,,,57,0,57,0,1,,,,,
,,096304,001,2023-07-24_20h59.10.091,arm3_q,2022.2.5,Win32,60.08532116,616a8502cf9f59ac63569662,64aeaab685a29f4ca249be02,64bec9bf6df71bddf4376772,right,1,0.8214,0.35,3,-0.011076825,0.5504,,,,,,58,0,58,0,1,,,,,
,,096304,001,2023-07-24_20h59.10.091,arm3_q,2022.2.5,Win32,60.08532116,616a8502cf9f59ac63569662,64aeaab685a29f4ca249be02,64bec9bf6df71bddf4376772,right,1,0.8214,0.35,3,0.019334264,0.2508,,,,,,59,0,59,0,1,,,,,
,,096304,001,2023-07-24_20h59.10.091,arm3_q,2022.2.5,Win32,60.08532116,616a8502cf9f59ac63569662,64aeaab685a29f4ca249be02,64bec9bf6df71bddf4376772,right,1,0.8214,0.35,3,0.009192365,0.2005,,,,,,60,0,60,0,1,,,,,
,,096304,001,2023-07-24_20h59.10.091,arm3_q,2022.2.5,Win32,60.08532116,616a8502cf9f59ac63569662,64aeaab685a29f4ca249be02,64bec9bf6df71bddf4376772,right,1,0.8214,0.35,3,0.027575527,0.1505,,,,,,61,0,61,0,1,,,,,
,,096304,001,2023-07-24_20h59.10.091,arm3_q,2022.2.5,Win32,60.08532116,616a8502cf9f59ac63569662,64aeaab685a29f4ca249be02,64bec9bf6df71bddf4376772,right,1,0.8214,0.35,3,0.049459334,0.1834,,,,,,62,0,62,0,1,,,,,
,,096304,001,2023-07-24_20h59.10.091,arm3_q,2022.2.5,Win32,60.08532116,616a8502cf9f59ac63569662,64aeaab685a29f4ca249be02,64bec9bf6df71bddf4376772,right,1,0.8214,0.35,3,0.077075944,0.1385,,,,,,63,0,63,0,1,,,,,
,,096304,001,2023-07-24_20h59.10.091,arm3_q,2022.2.5,Win32,60.08532116,616a8502cf9f59ac63569662,64aeaab685a29f4ca249be02,64bec9bf6df71bddf4376772,right,1,0.8214,0.35,3,0.087580303,0.1672,,,,,,64,0,64,0,1,,,,,
,,096304,001,2023-07-24_20h59.10.091,arm3_q,2022.2.5,Win32,60.08532116,616a8502cf9f59ac63569662,64aeaab685a29f4ca249be02,64bec9bf6df71bddf4376772,right,1,0.8214,0.35,3,0.114113685,0.1671,,,,,,65,0,65,0,1,,,,,
,,096304,001,2023-07-24_20h59.10.091,arm3_q,2022.2.5,Win32,60.08532116,616a8502cf9f59ac63569662,64aeaab685a29f4ca249be02,64bec9bf6df71bddf4376772,up,-1,0.8214,0.35,3,0,0.3501,,,,,,66,0,66,0,1,,,,,
,,096304,001,2023-07-24_20h59.10.091,arm3_q,2022.2.5,Win32,60.08532116,616a8502cf9f59ac63569662,64aeaab685a29f4ca249be02,64bec9bf6df71bddf4376772,right,-1,0.8214,0.35,3,-0.00830754,0.9171,,,,,,67,0,67,0,1,,,,,
,,096304,001,2023-07-24_20h59.10.091,arm3_q,2022.2.5,Win32,60.08532116,616a8502cf9f59ac63569662,64aeaab685a29f4ca249be02,64bec9bf6df71bddf4376772,right,-1,0.8214,0.35,3,-0.026278075,0.3675,,,,,,68,0,68,0,1,,,,,
,,096304,001,2023-07-24_20h59.10.091,arm3_q,2022.2.5,Win32,60.08532116,616a8502cf9f59ac63569662,64aeaab685a29f4ca249be02,64bec9bf6df71bddf4376772,right,-1,0.8214,0.35,3,-0.050791714,0.1672,,,,,,69,0,69,0,1,,,,,
,,096304,001,2023-07-24_20h59.10.091,arm3_q,2022.2.5,Win32,60.08532116,616a8502cf9f59ac63569662,64aeaab685a29f4ca249be02,64bec9bf6df71bddf4376772,right,-1,0.8214,0.35,3,-0.084085377,0.1841,,,,,,70,0,70,0,1,,,,,
,,096304,001,2023-07-24_20h59.10.091,arm3_q,2022.2.5,Win32,60.08532116,616a8502cf9f59ac63569662,64aeaab685a29f4ca249be02,64bec9bf6df71bddf4376772,right,-1,0.8214,0.35,3,-0.059084373,0.1506,,,,,,71,0,71,0,1,,,,,
,,096304,001,2023-07-24_20h59.10.091,arm3_q,2022.2.5,Win32,60.08532116,616a8502cf9f59ac63569662,64aeaab685a29f4ca249be02,64bec9bf6df71bddf4376772,right,-1,0.8214,0.35,3,-0.108547844,0.3004,,,,,,72,0,72,0,1,,,,,
,,096304,001,2023-07-24_20h59.10.091,arm3_q,2022.2.5,Win32,60.08532116,616a8502cf9f59ac63569662,64aeaab685a29f4ca249be02,64bec9bf6df71bddf4376772,right,-1,0.8214,0.35,3,-0.092003934,0.1343,,,,,,73,0,73,0,1,,,,,
,,096304,001,2023-07-24_20h59.10.091,arm3_q,2022.2.5,Win32,60.08532116,616a8502cf9f59ac63569662,64aeaab685a29f4ca249be02,64bec9bf6df71bddf4376772,right,-1,0.8214,0.35,3,-0.085650642,0.2339,,,,,,74,0,74,0,1,,,,,
,,096304,001,2023-07-24_20h59.10.091,arm3_q,2022.2.5,Win32,60.08532116,616a8502cf9f59ac63569662,64aeaab685a29f4ca249be02,64bec9bf6df71bddf4376772,right,-1,0.8214,0.35,3,-0.09777553,0.1843,,,,,,75,0,75,0,1,,,,,
,,096304,001,2023-07-24_20h59.10.091,arm3_q,2022.2.5,Win32,60.08532116,616a8502cf9f59ac63569662,64aeaab685a29f4ca249be02,64bec9bf6df71bddf4376772,down,1,0.8214,0.35,4,0,0.7835,,,,,,76,0,76,0,1,,,,,
,,096304,001,2023-07-24_20h59.10.091,arm3_q,2022.2.5,Win32,60.08532116,616a8502cf9f59ac63569662,64aeaab685a29f4ca249be02,64bec9bf6df71bddf4376772,right,1,0.8214,0.35,4,-0.002882938,9.8652,,,,,,77,0,77,0,1,,,,,
,,096304,001,2023-07-24_20h59.10.091,arm3_q,2022.2.5,Win32,60.08532116,616a8502cf9f59ac63569662,64aeaab685a29f4ca249be02,64bec9bf6df71bddf4376772,right,1,0.8214,0.35,4,0.009575286,0.1975,,,,,,78,0,78,0,1,,,,,
,,096304,001,2023-07-24_20h59.10.091,arm3_q,2022.2.5,Win32,60.08532116,616a8502cf9f59ac63569662,64aeaab685a29f4ca249be02,64bec9bf6df71bddf4376772,right,1,0.8214,0.35,4,0.022484555,0.1838,,,,,,79,0,79,0,1,,,,,
,,096304,001,2023-07-24_20h59.10.091,arm3_q,2022.2.5,Win32,60.08532116,616a8502cf9f59ac63569662,64aeaab685a29f4ca249be02,64bec9bf6df71bddf4376772,right,1,0.8214,0.35,4,0.042438797,0.1673,,,,,,80,0,80,0,1,,,,,
,,096304,001,2023-07-24_20h59.10.091,arm3_q,2022.2.5,Win32,60.08532116,616a8502cf9f59ac63569662,64aeaab685a29f4ca249be02,64bec9bf6df71bddf4376772,right,1,0.8214,0.35,4,0.06363309,0.2671,,,,,,81,0,81,0,1,,,,,
,,096304,001,2023-07-24_20h59.10.091,arm3_q,2022.2.5,Win32,60.08532116,616a8502cf9f59ac63569662,64aeaab685a29f4ca249be02,64bec9bf6df71bddf4376772,up,1,0.8214,0.35,5,0,0.2006,,,,,,82,0,82,0,1,,,,,
,,096304,001,2023-07-24_20h59.10.091,arm3_q,2022.2.5,Win32,60.08532116,616a8502cf9f59ac63569662,64aeaab685a29f4ca249be02,64bec9bf6df71bddf4376772,right,1,0.8214,0.35,5,0.03044859,0.4504,,,,,,83,0,83,0,1,,,,,
,,096304,001,2023-07-24_20h59.10.091,arm3_q,2022.2.5,Win32,60.08532116,616a8502cf9f59ac63569662,64aeaab685a29f4ca249be02,64bec9bf6df71bddf4376772,right,1,0.8214,0.35,5,0.044833381,0.3503,,,,,,84,0,84,0,1,,,,,
,,096304,001,2023-07-24_20h59.10.091,arm3_q,2022.2.5,Win32,60.08532116,616a8502cf9f59ac63569662,64aeaab685a29f4ca249be02,64bec9bf6df71bddf4376772,right,1,0.8214,0.35,5,0.072618035,0.1674,,,,,,85,0,85,0,1,,,,,
,,096304,001,2023-07-24_20h59.10.091,arm3_q,2022.2.5,Win32,60.08532116,616a8502cf9f59ac63569662,64aeaab685a29f4ca249be02,64bec9bf6df71bddf4376772,up,-1,0.8214,0.35,6,0,0.5508,,,,,,86,0,86,0,1,,,,,
,,096304,001,2023-07-24_20h59.10.091,arm3_q,2022.2.5,Win32,60.08532116,616a8502cf9f59ac63569662,64aeaab685a29f4ca249be02,64bec9bf6df71bddf4376772,right,-1,0.8214,0.35,6,-0.009993423,0.3672,,,,,,87,0,87,0,1,,,,,
,,096304,001,2023-07-24_20h59.10.091,arm3_q,2022.2.5,Win32,60.08532116,616a8502cf9f59ac63569662,64aeaab685a29f4ca249be02,64bec9bf6df71bddf4376772,right,-1,0.8214,0.35,6,-0.042535652,0.3672,,,,,,88,0,88,0,1,,,,,
,,096304,001,2023-07-24_20h59.10.091,arm3_q,2022.2.5,Win32,60.08532116,616a8502cf9f59ac63569662,64aeaab685a29f4ca249be02,64bec9bf6df71bddf4376772,right,-1,0.8214,0.35,6,-0.043072672,0.4674,,,,,,89,0,89,0,1,,,,,
,,096304,001,2023-07-24_20h59.10.091,arm3_q,2022.2.5,Win32,60.08532116,616a8502cf9f59ac63569662,64aeaab685a29f4ca249be02,64bec9bf6df71bddf4376772,right,-1,0.8214,0.35,6,-0.049014864,0.3506,,,,,,90,0,90,0,1,,,,,
,,096304,001,2023-07-24_20h59.10.091,arm3_q,2022.2.5,Win32,60.08532116,616a8502cf9f59ac63569662,64aeaab685a29f4ca249be02,64bec9bf6df71bddf4376772,right,-1,0.8214,0.35,6,-0.065612897,0.3675,,,,,,91,0,91,0,1,,,,,
,,096304,001,2023-07-24_20h59.10.091,arm3_q,2022.2.5,Win32,60.08532116,616a8502cf9f59ac63569662,64aeaab685a29f4ca249be02,64bec9bf6df71bddf4376772,down,1,0.8214,0.35,6,0,0.4003,,,,,,92,0,92,0,1,,,,,
,,096304,001,2023-07-24_20h59.10.091,arm3_q,2022.2.5,Win32,60.08532116,616a8502cf9f59ac63569662,64aeaab685a29f4ca249be02,64bec9bf6df71bddf4376772,right,1,0.8214,0.35,6,-0.024811667,0.454,,,,,,93,0,93,0,1,,,,,
,,096304,001,2023-07-24_20h59.10.091,arm3_q,2022.2.5,Win32,60.08532116,616a8502cf9f59ac63569662,64aeaab685a29f4ca249be02,64bec9bf6df71bddf4376772,right,1,0.8214,0.35,6,-0.01730283,0.3342,,,,,,94,0,94,0,1,,,,,
,,096304,001,2023-07-24_20h59.10.091,arm3_q,2022.2.5,Win32,60.08532116,616a8502cf9f59ac63569662,64aeaab685a29f4ca249be02,64bec9bf6df71bddf4376772,right,1,0.8214,0.35,6,-0.011923234,0.3169,,,,,,95,0,95,0,1,,,,,
,,096304,001,2023-07-24_20h59.10.091,arm3_q,2022.2.5,Win32,60.08532116,616a8502cf9f59ac63569662,64aeaab685a29f4ca249be02,64bec9bf6df71bddf4376772,right,1,0.8214,0.35,6,0.010254919,0.284,,,,,,96,0,96,0,1,,,,,
,,096304,001,2023-07-24_20h59.10.091,arm3_q,2022.2.5,Win32,60.08532116,616a8502cf9f59ac63569662,64aeaab685a29f4ca249be02,64bec9bf6df71bddf4376772,right,1,0.8214,0.35,6,-0.002941004,0.2505,,,,,,97,0,97,0,1,,,,,
,,096304,001,2023-07-24_20h59.10.091,arm3_q,2022.2.5,Win32,60.08532116,616a8502cf9f59ac63569662,64aeaab685a29f4ca249be02,64bec9bf6df71bddf4376772,right,1,0.8214,0.35,6,0.007444486,0.3003,,,,,,98,0,98,0,1,,,,,
,,096304,001,2023-07-24_20h59.10.091,arm3_q,2022.2.5,Win32,60.08532116,616a8502cf9f59ac63569662,64aeaab685a29f4ca249be02,64bec9bf6df71bddf4376772,right,1,0.8214,0.35,6,0.024527482,0.4175,,,,,,99,0,99,0,1,,,,,
,,096304,001,2023-07-24_20h59.10.091,arm3_q,2022.2.5,Win32,60.08532116,616a8502cf9f59ac63569662,64aeaab685a29f4ca249be02,64bec9bf6df71bddf4376772,up,1,0.8214,0.35,7,0,0.4335,,,,,,100,0,100,0,1,,,,,
,,096304,001,2023-07-24_20h59.10.091,arm3_q,2022.2.5,Win32,60.08532116,616a8502cf9f59ac63569662,64aeaab685a29f4ca249be02,64bec9bf6df71bddf4376772,right,1,0.8214,0.35,7,0.016850521,1.2995,,,,,,101,0,101,0,1,,,,,
,,096304,001,2023-07-24_20h59.10.091,arm3_q,2022.2.5,Win32,60.08532116,616a8502cf9f59ac63569662,64aeaab685a29f4ca249be02,64bec9bf6df71bddf4376772,right,1,0.8214,0.35,7,0.000905072,0.2004,,,,,,102,0,102,0,1,,,,,
,,096304,001,2023-07-24_20h59.10.091,arm3_q,2022.2.5,Win32,60.08532116,616a8502cf9f59ac63569662,64aeaab685a29f4ca249be02,64bec9bf6df71bddf4376772,right,1,0.8214,0.35,7,0.015857128,0.1665,,,,,,103,0,103,0,1,,,,,
,,096304,001,2023-07-24_20h59.10.091,arm3_q,2022.2.5,Win32,60.08532116,616a8502cf9f59ac63569662,64aeaab685a29f4ca249be02,64bec9bf6df71bddf4376772,right,1,0.8214,0.35,7,0.045859344,0.1506,,,,,,104,0,104,0,1,,,,,
,,096304,001,2023-07-24_20h59.10.091,arm3_q,2022.2.5,Win32,60.08532116,616a8502cf9f59ac63569662,64aeaab685a29f4ca249be02,64bec9bf6df71bddf4376772,right,1,0.8214,0.35,7,0.038471799,0.5503,,,,,,105,0,105,0,1,,,,,
,,096304,001,2023-07-24_20h59.10.091,arm3_q,2022.2.5,Win32,60.08532116,616a8502cf9f59ac63569662,64aeaab685a29f4ca249be02,64bec9bf6df71bddf4376772,right,1,0.8214,0.35,7,0.043757581,0.3337,,,,,,106,0,106,0,1,,,,,
,,096304,001,2023-07-24_20h59.10.091,arm3_q,2022.2.5,Win32,60.08532116,616a8502cf9f59ac63569662,64aeaab685a29f4ca249be02,64bec9bf6df71bddf4376772,up,1,0.8214,0.35,8,0,0.2652,,,,,,107,0,107,0,1,,,,,
,,096304,001,2023-07-24_20h59.10.091,arm3_q,2022.2.5,Win32,60.08532116,616a8502cf9f59ac63569662,64aeaab685a29f4ca249be02,64bec9bf6df71bddf4376772,right,1,0.8214,0.35,8,0.033258156,1.2503,,,,,,108,0,108,0,1,,,,,
,,096304,001,2023-07-24_20h59.10.091,arm3_q,2022.2.5,Win32,60.08532116,616a8502cf9f59ac63569662,64aeaab685a29f4ca249be02,64bec9bf6df71bddf4376772,right,1,0.8214,0.35,8,0.026336431,0.1504,,,,,,109,0,109,0,1,,,,,
,,096304,001,2023-07-24_20h59.10.091,arm3_q,2022.2.5,Win32,60.08532116,616a8502cf9f59ac63569662,64aeaab685a29f4ca249be02,64bec9bf6df71bddf4376772,right,1,0.8214,0.35,8,0.01609055,0.1672,,,,,,110,0,110,0,1,,,,,
,,096304,001,2023-07-24_20h59.10.091,arm3_q,2022.2.5,Win32,60.08532116,616a8502cf9f59ac63569662,64aeaab685a29f4ca249be02,64bec9bf6df71bddf4376772,right,1,0.8214,0.35,8,-0.003966644,0.1508,,,,,,111,0,111,0,1,,,,,
,,096304,001,2023-07-24_20h59.10.091,arm3_q,2022.2.5,Win32,60.08532116,616a8502cf9f59ac63569662,64aeaab685a29f4ca249be02,64bec9bf6df71bddf4376772,right,1,0.8214,0.35,8,0.032742904,0.1498,,,,,,112,0,112,0,1,,,,,
,,096304,001,2023-07-24_20h59.10.091,arm3_q,2022.2.5,Win32,60.08532116,616a8502cf9f59ac63569662,64aeaab685a29f4ca249be02,64bec9bf6df71bddf4376772,right,1,0.8214,0.35,8,0.059826979,0.1512,,,,,,113,0,113,0,1,,,,,
,,096304,001,2023-07-24_20h59.10.091,arm3_q,2022.2.5,Win32,60.08532116,616a8502cf9f59ac63569662,64aeaab685a29f4ca249be02,64bec9bf6df71bddf4376772,right,1,0.8214,0.35,8,0.044485828,0.3648,,,,,,114,0,114,0,1,,,,,
,,096304,001,2023-07-24_20h59.10.091,arm3_q,2022.2.5,Win32,60.08532116,616a8502cf9f59ac63569662,64aeaab685a29f4ca249be02,64bec9bf6df71bddf4376772,up,1,0.8214,0.35,9,0,0.2837,,,,,,115,0,115,0,1,,,,,
,,096304,001,2023-07-24_20h59.10.091,arm3_q,2022.2.5,Win32,60.08532116,616a8502cf9f59ac63569662,64aeaab685a29f4ca249be02,64bec9bf6df71bddf4376772,right,1,0.8214,0.35,9,0.029687706,0.2508,,,,,,116,0,116,0,1,,,,,
,,096304,001,2023-07-24_20h59.10.091,arm3_q,2022.2.5,Win32,60.08532116,616a8502cf9f59ac63569662,64aeaab685a29f4ca249be02,64bec9bf6df71bddf4376772,right,1,0.8214,0.35,9,-0.002775397,0.1844,,,,,,117,0,117,0,1,,,,,
,,096304,001,2023-07-24_20h59.10.091,arm3_q,2022.2.5,Win32,60.08532116,616a8502cf9f59ac63569662,64aeaab685a29f4ca249be02,64bec9bf6df71bddf4376772,right,1,0.8214,0.35,9,-0.014962239,0.15,,,,,,118,0,118,0,1,,,,,
,,096304,001,2023-07-24_20h59.10.091,arm3_q,2022.2.5,Win32,60.08532116,616a8502cf9f59ac63569662,64aeaab685a29f4ca249be02,64bec9bf6df71bddf4376772,right,1,0.8214,0.35,9,-0.001681911,0.1667,,,,,,119,0,119,0,1,,,,,
,,096304,001,2023-07-24_20h59.10.091,arm3_q,2022.2.5,Win32,60.08532116,616a8502cf9f59ac63569662,64aeaab685a29f4ca249be02,64bec9bf6df71bddf4376772,right,1,0.8214,0.35,9,0.007569976,0.1835,,,,,,120,0,120,0,1,,,,,
,,096304,001,2023-07-24_20h59.10.091,arm3_q,2022.2.5,Win32,60.08532116,616a8502cf9f59ac63569662,64aeaab685a29f4ca249be02,64bec9bf6df71bddf4376772,right,1,0.8214,0.35,9,0.041653227,0.3839,,,,,,121,0,121,0,1,,,,,
,,096304,001,2023-07-24_20h59.10.091,arm3_q,2022.2.5,Win32,60.08532116,616a8502cf9f59ac63569662,64aeaab685a29f4ca249be02,64bec9bf6df71bddf4376772,right,1,0.8214,0.35,9,0.040983971,0.1587,,,,,,122,0,122,0,1,,,,,
,,096304,001,2023-07-24_20h59.10.091,arm3_q,2022.2.5,Win32,60.08532116,616a8502cf9f59ac63569662,64aeaab685a29f4ca249be02,64bec9bf6df71bddf4376772,right,1,0.8214,0.35,9,0.053633729,0.367,,,,,,123,0,123,0,1,,,,,
,,096304,001,2023-07-24_20h59.10.091,arm3_q,2022.2.5,Win32,60.08532116,616a8502cf9f59ac63569662,64aeaab685a29f4ca249be02,64bec9bf6df71bddf4376772,up,1,0.8214,0.35,10,0,0.3334,,,,,,124,0,124,0,1,,,,,
,,096304,001,2023-07-24_20h59.10.091,arm3_q,2022.2.5,Win32,60.08532116,616a8502cf9f59ac63569662,64aeaab685a29f4ca249be02,64bec9bf6df71bddf4376772,right,1,0.8214,0.35,10,0.015100377,0.2999,,,,,,125,0,125,0,1,,,,,
,,096304,001,2023-07-24_20h59.10.091,arm3_q,2022.2.5,Win32,60.08532116,616a8502cf9f59ac63569662,64aeaab685a29f4ca249be02,64bec9bf6df71bddf4376772,right,1,0.8214,0.35,10,0.017413107,0.2169,,,,,,126,0,126,0,1,,,,,
,,096304,001,2023-07-24_20h59.10.091,arm3_q,2022.2.5,Win32,60.08532116,616a8502cf9f59ac63569662,64aeaab685a29f4ca249be02,64bec9bf6df71bddf4376772,right,1,0.8214,0.35,10,0.044641806,0.1503,,,,,,127,0,127,0,1,,,,,
,,096304,001,2023-07-24_20h59.10.091,arm3_q,2022.2.5,Win32,60.08532116,616a8502cf9f59ac63569662,64aeaab685a29f4ca249be02,64bec9bf6df71bddf4376772,right,1,0.8214,0.35,10,0.043359333,0.117,,,,,,128,0,128,0,1,,,,,
,,096304,001,2023-07-24_20h59.10.091,arm3_q,2022.2.5,Win32,60.08532116,616a8502cf9f59ac63569662,64aeaab685a29f4ca249be02,64bec9bf6df71bddf4376772,right,1,0.8214,0.35,10,0.004559634,0.4005,,,,,,129,0,129,0,1,,,,,
,,096304,001,2023-07-24_20h59.10.091,arm3_q,2022.2.5,Win32,60.08532116,616a8502cf9f59ac63569662,64aeaab685a29f4ca249be02,64bec9bf6df71bddf4376772,right,1,0.8214,0.35,10,-0.001982872,0.1836,,,,,,130,0,130,0,1,,,,,
,,096304,001,2023-07-24_20h59.10.091,arm3_q,2022.2.5,Win32,60.08532116,616a8502cf9f59ac63569662,64aeaab685a29f4ca249be02,64bec9bf6df71bddf4376772,right,1,0.8214,0.35,10,-0.029095146,0.184,,,,,,131,0,131,0,1,,,,,
,,096304,001,2023-07-24_20h59.10.091,arm3_q,2022.2.5,Win32,60.08532116,616a8502cf9f59ac63569662,64aeaab685a29f4ca249be02,64bec9bf6df71bddf4376772,right,1,0.8214,0.35,10,-0.039714193,0.2002,,,,,,132,0,132,0,1,,,,,
,,096304,001,2023-07-24_20h59.10.091,arm3_q,2022.2.5,Win32,60.08532116,616a8502cf9f59ac63569662,64aeaab685a29f4ca249be02,64bec9bf6df71bddf4376772,right,1,0.8214,0.35,10,-0.024134282,0.5162,,,,,,133,0,133,0,1,,,,,
,,096304,001,2023-07-24_20h59.10.091,arm3_q,2022.2.5,Win32,60.08532116,616a8502cf9f59ac63569662,64aeaab685a29f4ca249be02,64bec9bf6df71bddf4376772,up,1,0.8214,0.35,10,0,0.6011,,,,,,134,0,134,0,1,,,,,
,,096304,001,2023-07-24_20h59.10.091,arm3_q,2022.2.5,Win32,60.08532116,616a8502cf9f59ac63569662,64aeaab685a29f4ca249be02,64bec9bf6df71bddf4376772,right,1,0.8214,0.35,10,0.027461093,0.4819,,,,,,135,0,135,0,1,,,,,
,,096304,001,2023-07-24_20h59.10.091,arm3_q,2022.2.5,Win32,60.08532116,616a8502cf9f59ac63569662,64aeaab685a29f4ca249be02,64bec9bf6df71bddf4376772,right,1,0.8214,0.35,10,0.021980947,0.3005,,,,,,136,0,136,0,1,,,,,
,,096304,001,2023-07-24_20h59.10.091,arm3_q,2022.2.5,Win32,60.08532116,616a8502cf9f59ac63569662,64aeaab685a29f4ca249be02,64bec9bf6df71bddf4376772,right,1,0.8214,0.35,10,0.036839264,0.1507,,,,,,137,0,137,0,1,,,,,
,,096304,001,2023-07-24_20h59.10.091,arm3_q,2022.2.5,Win32,60.08532116,616a8502cf9f59ac63569662,64aeaab685a29f4ca249be02,64bec9bf6df71bddf4376772,right,1,0.8214,0.35,10,0.026090104,0.1507,,,,,,138,0,138,0,1,,,,,
,,096304,001,2023-07-24_20h59.10.091,arm3_q,2022.2.5,Win32,60.08532116,616a8502cf9f59ac63569662,64aeaab685a29f4ca249be02,64bec9bf6df71bddf4376772,right,1,0.8214,0.35,10,0.023688449,0.1168,,,,,,139,0,139,0,1,,,,,
,,096304,001,2023-07-24_20h59.10.091,arm3_q,2022.2.5,Win32,60.08532116,616a8502cf9f59ac63569662,64aeaab685a29f4ca249be02,64bec9bf6df71bddf4376772,right,1,0.8214,0.35,10,0.015831215,0.2334,,,,,,140,0,140,0,1,,,,,
,,096304,001,2023-07-24_20h59.10.091,arm3_q,2022.2.5,Win32,60.08532116,616a8502cf9f59ac63569662,64aeaab685a29f4ca249be02,64bec9bf6df71bddf4376772,right,1,0.8214,0.35,10,0.030804314,0.3503,,,,,,141,0,141,0,1,,,,,
,,096304,001,2023-07-24_20h59.10.091,arm3_q,2022.2.5,Win32,60.08532116,616a8502cf9f59ac63569662,64aeaab685a29f4ca249be02,64bec9bf6df71bddf4376772,right,1,0.8214,0.35,10,0.022346159,0.3508,,,,,,142,0,142,0,1,,,,,
,,096304,001,2023-07-24_20h59.10.091,arm3_q,2022.2.5,Win32,60.08532116,616a8502cf9f59ac63569662,64aeaab685a29f4ca249be02,64bec9bf6df71bddf4376772,up,1,0.8214,0.35,10,0,0.8842,,,,,,143,0,143,0,1,,,,,
,,096304,001,2023-07-24_20h59.10.091,arm3_q,2022.2.5,Win32,60.08532116,616a8502cf9f59ac63569662,64aeaab685a29f4ca249be02,64bec9bf6df71bddf4376772,right,1,0.8214,0.35,10,-0.000476752,0.319,,,,,,144,0,144,0,1,,,,,
,,096304,001,2023-07-24_20h59.10.091,arm3_q,2022.2.5,Win32,60.08532116,616a8502cf9f59ac63569662,64aeaab685a29f4ca249be02,64bec9bf6df71bddf4376772,right,1,0.8214,0.35,10,0.012730224,0.2011,,,,,,145,0,145,0,1,,,,,
,,096304,001,2023-07-24_20h59.10.091,arm3_q,2022.2.5,Win32,60.08532116,616a8502cf9f59ac63569662,64aeaab685a29f4ca249be02,64bec9bf6df71bddf4376772,right,1,0.8214,0.35,10,0.035954684,0.1841,,,,,,146,0,146,0,1,,,,,
,,096304,001,2023-07-24_20h59.10.091,arm3_q,2022.2.5,Win32,60.08532116,616a8502cf9f59ac63569662,64aeaab685a29f4ca249be02,64bec9bf6df71bddf4376772,right,1,0.8214,0.35,10,0.06020041,0.1837,,,,,,147,0,147,0,1,,,,,
,,096304,001,2023-07-24_20h59.10.091,arm3_q,2022.2.5,Win32,60.08532116,616a8502cf9f59ac63569662,64aeaab685a29f4ca249be02,64bec9bf6df71bddf4376772,right,1,0.8214,0.35,10,0.048430667,0.167,,,,,,148,0,148,0,1,,,,,
,,096304,001,2023-07-24_20h59.10.091,arm3_q,2022.2.5,Win32,60.08532116,616a8502cf9f59ac63569662,64aeaab685a29f4ca249be02,64bec9bf6df71bddf4376772,right,1,0.8214,0.35,10,0.066784071,0.1838,,,,,,149,0,149,0,1,,,,,
,,096304,001,2023-07-24_20h59.10.091,arm3_q,2022.2.5,Win32,60.08532116,616a8502cf9f59ac63569662,64aeaab685a29f4ca249be02,64bec9bf6df71bddf4376772,right,1,0.8214,0.35,10,0.085518114,0.2173,,,,,,150,0,150,0,1,,,,,
,,096304,001,2023-07-24_20h59.10.091,arm3_q,2022.2.5,Win32,60.08532116,616a8502cf9f59ac63569662,64aeaab685a29f4ca249be02,64bec9bf6df71bddf4376772,up,-1,0.8214,0.35,11,0,0.2501,,,,,,151,0,151,0,1,,,,,
,,096304,001,2023-07-24_20h59.10.091,arm3_q,2022.2.5,Win32,60.08532116,616a8502cf9f59ac63569662,64aeaab685a29f4ca249be02,64bec9bf6df71bddf4376772,right,-1,0.8214,0.35,11,0.014236575,0.2674,,,,,,152,0,152,0,1,,,,,
,,096304,001,2023-07-24_20h59.10.091,arm3_q,2022.2.5,Win32,60.08532116,616a8502cf9f59ac63569662,64aeaab685a29f4ca249be02,64bec9bf6df71bddf4376772,right,-1,0.8214,0.35,11,0.045123946,0.1838,,,,,,153,0,153,0,1,,,,,
,,096304,001,2023-07-24_20h59.10.091,arm3_q,2022.2.5,Win32,60.08532116,616a8502cf9f59ac63569662,64aeaab685a29f4ca249be02,64bec9bf6df71bddf4376772,right,-1,0.8214,0.35,11,0.037463413,0.1507,,,,,,154,0,154,0,1,,,,,
,,096304,001,2023-07-24_20h59.10.091,arm3_q,2022.2.5,Win32,60.08532116,616a8502cf9f59ac63569662,64aeaab685a29f4ca249be02,64bec9bf6df71bddf4376772,right,-1,0.8214,0.35,11,-0.021730706,0.134,,,,,,155,0,155,0,1,,,,,
,,096304,001,2023-07-24_20h59.10.091,arm3_q,2022.2.5,Win32,60.08532116,616a8502cf9f59ac63569662,64aeaab685a29f4ca249be02,64bec9bf6df71bddf4376772,right,-1,0.8214,0.35,11,-0.027142676,0.151,,,,,,156,0,156,0,1,,,,,
,,096304,001,2023-07-24_20h59.10.091,arm3_q,2022.2.5,Win32,60.08532116,616a8502cf9f59ac63569662,64aeaab685a29f4ca249be02,64bec9bf6df71bddf4376772,right,-1,0.8214,0.35,11,-0.02851149,0.4334,,,,,,157,0,157,0,1,,,,,
,,096304,001,2023-07-24_20h59.10.091,arm3_q,2022.2.5,Win32,60.08532116,616a8502cf9f59ac63569662,64aeaab685a29f4ca249be02,64bec9bf6df71bddf4376772,right,-1,0.8214,0.35,11,-0.040624786,0.2833,,,,,,158,0,158,0,1,,,,,
,,096304,001,2023-07-24_20h59.10.091,arm3_q,2022.2.5,Win32,60.08532116,616a8502cf9f59ac63569662,64aeaab685a29f4ca249be02,64bec9bf6df71bddf4376772,right,-1,0.8214,0.35,11,-0.056223901,0.4178,,,,,,159,0,159,0,1,,,,,
,,096304,001,2023-07-24_20h59.10.091,arm3_q,2022.2.5,Win32,60.08532116,616a8502cf9f59ac63569662,64aeaab685a29f4ca249be02,64bec9bf6df71bddf4376772,right,-1,0.8214,0.35,11,-0.070007137,0.3172,,,,,,160,0,160,0,1,,,,,
,,096304,001,2023-07-24_20h59.10.091,arm3_q,2022.2.5,Win32,60.08532116,616a8502cf9f59ac63569662,64aeaab685a29f4ca249be02,64bec9bf6df71bddf4376772,right,-1,0.8214,0.35,11,-0.088969189,0.4331,,,,,,161,0,161,0,1,,,,,
,,096304,001,2023-07-24_20h59.10.091,arm3_q,2022.2.5,Win32,60.08532116,616a8502cf9f59ac63569662,64aeaab685a29f4ca249be02,64bec9bf6df71bddf4376772,down,-1,0.8214,0.35,12,0,0.4338,,,,,,162,0,162,0,1,,,,,
,,096304,001,2023-07-24_20h59.10.091,arm3_q,2022.2.5,Win32,60.08532116,616a8502cf9f59ac63569662,64aeaab685a29f4ca249be02,64bec9bf6df71bddf4376772,right,-1,0.8214,0.35,12,-0.032693752,0.4926,,,,,,163,0,163,0,1,,,,,
,,096304,001,2023-07-24_20h59.10.091,arm3_q,2022.2.5,Win32,60.08532116,616a8502cf9f59ac63569662,64aeaab685a29f4ca249be02,64bec9bf6df71bddf4376772,right,-1,0.8214,0.35,12,-0.043953289,0.8674,,,,,,164,0,164,0,1,,,,,
,,096304,001,2023-07-24_20h59.10.091,arm3_q,2022.2.5,Win32,60.08532116,616a8502cf9f59ac63569662,64aeaab685a29f4ca249be02,64bec9bf6df71bddf4376772,right,-1,0.8214,0.35,12,-0.046156998,0.1503,,,,,,165,0,165,0,1,,,,,
,,096304,001,2023-07-24_20h59.10.091,arm3_q,2022.2.5,Win32,60.08532116,616a8502cf9f59ac63569662,64aeaab685a29f4ca249be02,64bec9bf6df71bddf4376772,right,-1,0.8214,0.35,12,-0.031303904,0.1338,,,,,,166,0,166,0,1,,,,,
,,096304,001,2023-07-24_20h59.10.091,arm3_q,2022.2.5,Win32,60.08532116,616a8502cf9f59ac63569662,64aeaab685a29f4ca249be02,64bec9bf6df71bddf4376772,right,-1,0.8214,0.35,12,-0.036596105,0.1341,,,,,,167,0,167,0,1,,,,,
,,096304,001,2023-07-24_20h59.10.091,arm3_q,2022.2.5,Win32,60.08532116,616a8502cf9f59ac63569662,64aeaab685a29f4ca249be02,64bec9bf6df71bddf4376772,right,-1,0.8214,0.35,12,-0.047852809,0.1832,,,,,,168,0,168,0,1,,,,,
,,096304,001,2023-07-24_20h59.10.091,arm3_q,2022.2.5,Win32,60.08532116,616a8502cf9f59ac63569662,64aeaab685a29f4ca249be02,64bec9bf6df71bddf4376772,right,-1,0.8214,0.35,12,-0.046131285,0.1727,,,,,,169,0,169,0,1,,,,,
,,096304,001,2023-07-24_20h59.10.091,arm3_q,2022.2.5,Win32,60.08532116,616a8502cf9f59ac63569662,64aeaab685a29f4ca249be02,64bec9bf6df71bddf4376772,right,-1,0.8214,0.35,12,-0.049466806,0.3834,,,,,,170,0,170,0,1,,,,,
,,096304,001,2023-07-24_20h59.10.091,arm3_q,2022.2.5,Win32,60.08532116,616a8502cf9f59ac63569662,64aeaab685a29f4ca249be02,64bec9bf6df71bddf4376772,right,-1,0.8214,0.35,12,-0.043077245,0.2507,,,,,,171,0,171,0,1,,,,,
,,096304,001,2023-07-24_20h59.10.091,arm3_q,2022.2.5,Win32,60.08532116,616a8502cf9f59ac63569662,64aeaab685a29f4ca249be02,64bec9bf6df71bddf4376772,right,-1,0.8214,0.35,12,-0.069750424,0.4501,,,,,,172,0,172,0,1,,,,,
,,096304,001,2023-07-24_20h59.10.091,arm3_q,2022.2.5,Win32,60.08532116,616a8502cf9f59ac63569662,64aeaab685a29f4ca249be02,64bec9bf6df71bddf4376772,down,-1,0.8214,0.35,12,0,0.4173,,,,,,173,0,173,0,1,,,,,
,,096304,001,2023-07-24_20h59.10.091,arm3_q,2022.2.5,Win32,60.08532116,616a8502cf9f59ac63569662,64aeaab685a29f4ca249be02,64bec9bf6df71bddf4376772,right,-1,0.8214,0.35,12,-0.01224905,0.2504,,,,,,174,0,174,0,1,,,,,
,,096304,001,2023-07-24_20h59.10.091,arm3_q,2022.2.5,Win32,60.08532116,616a8502cf9f59ac63569662,64aeaab685a29f4ca249be02,64bec9bf6df71bddf4376772,right,-1,0.8214,0.35,12,0.005503253,0.3172,,,,,,175,0,175,0,1,,,,,
,,096304,001,2023-07-24_20h59.10.091,arm3_q,2022.2.5,Win32,60.08532116,616a8502cf9f59ac63569662,64aeaab685a29f4ca249be02,64bec9bf6df71bddf4376772,right,-1,0.8214,0.35,12,0.039917049,0.2675,,,,,,176,0,176,0,1,,,,,
,,096304,001,2023-07-24_20h59.10.091,arm3_q,2022.2.5,Win32,60.08532116,616a8502cf9f59ac63569662,64aeaab685a29f4ca249be02,64bec9bf6df71bddf4376772,right,-1,0.8214,0.35,12,0.033376749,0.1488,,,,,,177,0,177,0,1,,,,,
,,096304,001,2023-07-24_20h59.10.091,arm3_q,2022.2.5,Win32,60.08532116,616a8502cf9f59ac63569662,64aeaab685a29f4ca249be02,64bec9bf6df71bddf4376772,right,-1,0.8214,0.35,12,0.055554901,0.1508,,,,,,178,0,178,0,1,,,,,
,,096304,001,2023-07-24_20h59.10.091,arm3_q,2022.2.5,Win32,60.08532116,616a8502cf9f59ac63569662,64aeaab685a29f4ca249be02,64bec9bf6df71bddf4376772,right,-1,0.8214,0.35,12,0.063204247,0.1672,,,,,,179,0,179,0,1,,,,,
,,096304,001,2023-07-24_20h59.10.091,arm3_q,2022.2.5,Win32,60.08532116,616a8502cf9f59ac63569662,64aeaab685a29f4ca249be02,64bec9bf6df71bddf4376772,right,-1,0.8214,0.35,12,0.052101111,0.5503,,,,,,180,0,180,0,1,,,,,
,,096304,001,2023-07-24_20h59.10.091,arm3_q,2022.2.5,Win32,60.08532116,616a8502cf9f59ac63569662,64aeaab685a29f4ca249be02,64bec9bf6df71bddf4376772,right,-1,0.8214,0.35,12,0.040786873,0.2903,,,,,,181,0,181,0,1,,,,,
,,096304,001,2023-07-24_20h59.10.091,arm3_q,2022.2.5,Win32,60.08532116,616a8502cf9f59ac63569662,64aeaab685a29f4ca249be02,64bec9bf6df71bddf4376772,up,1,0.8214,0.35,11,0,0.4148,,,,,,182,0,182,0,1,,,,,
,,096304,001,2023-07-24_20h59.10.091,arm3_q,2022.2.5,Win32,60.08532116,616a8502cf9f59ac63569662,64aeaab685a29f4ca249be02,64bec9bf6df71bddf4376772,right,1,0.8214,0.35,11,0.016370675,0.2178,,,,,,183,0,183,0,1,,,,,
,,096304,001,2023-07-24_20h59.10.091,arm3_q,2022.2.5,Win32,60.08532116,616a8502cf9f59ac63569662,64aeaab685a29f4ca249be02,64bec9bf6df71bddf4376772,right,1,0.8214,0.35,11,0.022958278,0.4676,,,,,,184,0,184,0,1,,,,,
,,096304,001,2023-07-24_20h59.10.091,arm3_q,2022.2.5,Win32,60.08532116,616a8502cf9f59ac63569662,64aeaab685a29f4ca249be02,64bec9bf6df71bddf4376772,right,1,0.8214,0.35,11,0.037008432,0.1665,,,,,,185,0,185,0,1,,,,,
,,096304,001,2023-07-24_20h59.10.091,arm3_q,2022.2.5,Win32,60.08532116,616a8502cf9f59ac63569662,64aeaab685a29f4ca249be02,64bec9bf6df71bddf4376772,right,1,0.8214,0.35,11,0.064486448,0.1506,,,,,,186,0,186,0,1,,,,,
,,096304,001,2023-07-24_20h59.10.091,arm3_q,2022.2.5,Win32,60.08532116,616a8502cf9f59ac63569662,64aeaab685a29f4ca249be02,64bec9bf6df71bddf4376772,right,1,0.8214,0.35,11,0.057279161,0.1673,,,,,,187,0,187,0,1,,,,,
,,096304,001,2023-07-24_20h59.10.091,arm3_q,2022.2.5,Win32,60.08532116,616a8502cf9f59ac63569662,64aeaab685a29f4ca249be02,64bec9bf6df71bddf4376772,right,1,0.8214,0.35,11,0.069941713,0.1509,,,,,,188,0,188,0,1,,,,,
,,096304,001,2023-07-24_20h59.10.091,arm3_q,2022.2.5,Win32,60.08532116,616a8502cf9f59ac63569662,64aeaab685a29f4ca249be02,64bec9bf6df71bddf4376772,right,1,0.8214,0.35,11,0.096282947,0.1661,,,,,,189,0,189,0,1,,,,,
,,096304,001,2023-07-24_20h59.10.091,arm3_q,2022.2.5,Win32,60.08532116,616a8502cf9f59ac63569662,64aeaab685a29f4ca249be02,64bec9bf6df71bddf4376772,right,1,0.8214,0.35,11,0.126619423,0.1431,,,,,,190,0,190,0,1,,,,,
,,096304,001,2023-07-24_20h59.10.091,arm3_q,2022.2.5,Win32,60.08532116,616a8502cf9f59ac63569662,64aeaab685a29f4ca249be02,64bec9bf6df71bddf4376772,right,1,0.8214,0.35,11,0.110236297,0.1507,,,,,,191,0,191,0,1,,,,,
,,096304,001,2023-07-24_20h59.10.091,arm3_q,2022.2.5,Win32,60.08532116,616a8502cf9f59ac63569662,64aeaab685a29f4ca249be02,64bec9bf6df71bddf4376772,up,1,0.8214,0.35,12,0,0.7167,,,,,,192,0,192,0,1,,,,,
,,096304,001,2023-07-24_20h59.10.091,arm3_q,2022.2.5,Win32,60.08532116,616a8502cf9f59ac63569662,64aeaab685a29f4ca249be02,64bec9bf6df71bddf4376772,right,1,0.8214,0.35,12,0.006183286,0.3668,,,,,,193,0,193,0,1,,,,,
,,096304,001,2023-07-24_20h59.10.091,arm3_q,2022.2.5,Win32,60.08532116,616a8502cf9f59ac63569662,64aeaab685a29f4ca249be02,64bec9bf6df71bddf4376772,right,1,0.8214,0.35,12,0.019853506,0.1835,,,,,,194,0,194,0,1,,,,,
,,096304,001,2023-07-24_20h59.10.091,arm3_q,2022.2.5,Win32,60.08532116,616a8502cf9f59ac63569662,64aeaab685a29f4ca249be02,64bec9bf6df71bddf4376772,right,1,0.8214,0.35,12,0.00025929,0.1505,,,,,,195,0,195,0,1,,,,,
,,096304,001,2023-07-24_20h59.10.091,arm3_q,2022.2.5,Win32,60.08532116,616a8502cf9f59ac63569662,64aeaab685a29f4ca249be02,64bec9bf6df71bddf4376772,right,1,0.8214,0.35,12,-0.000686748,0.2989,,,,,,196,0,196,0,1,,,,,
,,096304,001,2023-07-24_20h59.10.091,arm3_q,2022.2.5,Win32,60.08532116,616a8502cf9f59ac63569662,64aeaab685a29f4ca249be02,64bec9bf6df71bddf4376772,right,1,0.8214,0.35,12,0.012309281,0.1501,,,,,,197,0,197,0,1,,,,,
,,096304,001,2023-07-24_20h59.10.091,arm3_q,2022.2.5,Win32,60.08532116,616a8502cf9f59ac63569662,64aeaab685a29f4ca249be02,64bec9bf6df71bddf4376772,right,1,0.8214,0.35,12,0.032941718,0.1675,,,,,,198,0,198,0,1,,,,,
,,096304,001,2023-07-24_20h59.10.091,arm3_q,2022.2.5,Win32,60.08532116,616a8502cf9f59ac63569662,64aeaab685a29f4ca249be02,64bec9bf6df71bddf4376772,right,1,0.8214,0.35,12,0.044015978,0.1673,,,,,,199,0,199,0,1,,,,,
,,096304,001,2023-07-24_20h59.10.091,arm3_q,2022.2.5,Win32,60.08532116,616a8502cf9f59ac63569662,64aeaab685a29f4ca249be02,64bec9bf6df71bddf4376772,right,1,0.8214,0.35,12,0.106269612,0.1834,,,,,,200,0,200,0,1,,,,,
,,096304,001,2023-07-24_20h59.10.091,arm3_q,2022.2.5,Win32,60.08532116,616a8502cf9f59ac63569662,64aeaab685a29f4ca249be02,64bec9bf6df71bddf4376772,right,1,0.8214,0.35,12,0.134309699,0.1339,,,,,,201,0,201,0,1,,,,,
,,096304,001,2023-07-24_20h59.10.091,arm3_q,2022.2.5,Win32,60.08532116,616a8502cf9f59ac63569662,64aeaab685a29f4ca249be02,64bec9bf6df71bddf4376772,up,1,0.8214,0.35,12,0,0.3174,,,,,,202,0,202,0,1,,,,,
,,096304,001,2023-07-24_20h59.10.091,arm3_q,2022.2.5,Win32,60.08532116,616a8502cf9f59ac63569662,64aeaab685a29f4ca249be02,64bec9bf6df71bddf4376772,right,1,0.8214,0.35,12,0.029694168,0.6508,,,,,,203,0,203,0,1,,,,,
,,096304,001,2023-07-24_20h59.10.091,arm3_q,2022.2.5,Win32,60.08532116,616a8502cf9f59ac63569662,64aeaab685a29f4ca249be02,64bec9bf6df71bddf4376772,right,1,0.8214,0.35,12,0.080306259,0.1834,,,,,,204,0,204,0,1,,,,,
,,096304,001,2023-07-24_20h59.10.091,arm3_q,2022.2.5,Win32,60.08532116,616a8502cf9f59ac63569662,64aeaab685a29f4ca249be02,64bec9bf6df71bddf4376772,right,1,0.8214,0.35,12,0.098386118,0.167,,,,,,205,0,205,0,1,,,,,
,,096304,001,2023-07-24_20h59.10.091,arm3_q,2022.2.5,Win32,60.08532116,616a8502cf9f59ac63569662,64aeaab685a29f4ca249be02,64bec9bf6df71bddf4376772,right,1,0.8214,0.35,12,0.088717711,0.1673,,,,,,206,0,206,0,1,,,,,
,,096304,001,2023-07-24_20h59.10.091,arm3_q,2022.2.5,Win32,60.08532116,616a8502cf9f59ac63569662,64aeaab685a29f4ca249be02,64bec9bf6df71bddf4376772,right,1,0.8214,0.35,12,0.126657224,0.1673,,,,,,207,0,207,0,1,,,,,
,,096304,001,2023-07-24_20h59.10.091,arm3_q,2022.2.5,Win32,60.08532116,616a8502cf9f59ac63569662,64aeaab685a29f4ca249be02,64bec9bf6df71bddf4376772,right,1,0.8214,0.35,12,0.162457018,0.1505,,,,,,208,0,208,0,1,,,,,
,,096304,001,2023-07-24_20h59.10.091,arm3_q,2022.2.5,Win32,60.08532116,616a8502cf9f59ac63569662,64aeaab685a29f4ca249be02,64bec9bf6df71bddf4376772,right,1,0.8214,0.35,12,0.172989419,0.1506,,,,,,209,0,209,0,1,,,,,
,,096304,001,2023-07-24_20h59.10.091,arm3_q,2022.2.5,Win32,60.08532116,616a8502cf9f59ac63569662,64aeaab685a29f4ca249be02,64bec9bf6df71bddf4376772,right,1,0.8214,0.35,12,0.152721639,0.1833,,,,,,210,0,210,0,1,,,,,
,,096304,001,2023-07-24_20h59.10.091,arm3_q,2022.2.5,Win32,60.08532116,616a8502cf9f59ac63569662,64aeaab685a29f4ca249be02,64bec9bf6df71bddf4376772,right,1,0.8214,0.35,12,0.175824104,0.5007,,,,,,211,0,211,0,1,,,,,
,,096304,001,2023-07-24_20h59.10.091,arm3_q,2022.2.5,Win32,60.08532116,616a8502cf9f59ac63569662,64aeaab685a29f4ca249be02,64bec9bf6df71bddf4376772,right,1,0.8214,0.35,12,0.175412479,0.5006,,,,,,212,0,212,0,1,,,,,
,,096304,001,2023-07-24_20h59.10.091,arm3_q,2022.2.5,Win32,60.08532116,616a8502cf9f59ac63569662,64aeaab685a29f4ca249be02,64bec9bf6df71bddf4376772,up,-1,0.8214,0.35,12,0,0.6171,,,,,,213,0,213,0,1,,,,,
,,096304,001,2023-07-24_20h59.10.091,arm3_q,2022.2.5,Win32,60.08532116,616a8502cf9f59ac63569662,64aeaab685a29f4ca249be02,64bec9bf6df71bddf4376772,right,-1,0.8214,0.35,12,-0.025077235,1.3502,,,,,,214,0,214,0,1,,,,,
,,096304,001,2023-07-24_20h59.10.091,arm3_q,2022.2.5,Win32,60.08532116,616a8502cf9f59ac63569662,64aeaab685a29f4ca249be02,64bec9bf6df71bddf4376772,right,-1,0.8214,0.35,12,-0.034113134,0.1658,,,,,,215,0,215,0,1,,,,,
,,096304,001,2023-07-24_20h59.10.091,arm3_q,2022.2.5,Win32,60.08532116,616a8502cf9f59ac63569662,64aeaab685a29f4ca249be02,64bec9bf6df71bddf4376772,right,-1,0.8214,0.35,12,-0.039912434,0.1172,,,,,,216,0,216,0,1,,,,,
,,096304,001,2023-07-24_20h59.10.091,arm3_q,2022.2.5,Win32,60.08532116,616a8502cf9f59ac63569662,64aeaab685a29f4ca249be02,64bec9bf6df71bddf4376772,right,-1,0.8214,0.35,12,-0.045838883,0.1671,,,,,,217,0,217,0,1,,,,,
,,096304,001,2023-07-24_20h59.10.091,arm3_q,2022.2.5,Win32,60.08532116,616a8502cf9f59ac63569662,64aeaab685a29f4ca249be02,64bec9bf6df71bddf4376772,right,-1,0.8214,0.35,12,-0.056236984,0.1501,,,,,,218,0,218,0,1,,,,,
,,096304,001,2023-07-24_20h59.10.091,arm3_q,2022.2.5,Win32,60.08532116,616a8502cf9f59ac63569662,64aeaab685a29f4ca249be02,64bec9bf6df71bddf4376772,right,-1,0.8214,0.35,12,-0.061417269,0.1673,,,,,,219,0,219,0,1,,,,,
,,096304,001,2023-07-24_20h59.10.091,arm3_q,2022.2.5,Win32,60.08532116,616a8502cf9f59ac63569662,64aeaab685a29f4ca249be02,64bec9bf6df71bddf4376772,down,-1,0.8214,0.35,13,0,0.7003,,,,,,220,0,220,0,1,,,,,
,,096304,001,2023-07-24_20h59.10.091,arm3_q,2022.2.5,Win32,60.08532116,616a8502cf9f59ac63569662,64aeaab685a29f4ca249be02,64bec9bf6df71bddf4376772,right,-1,0.8214,0.35,13,0.001125128,23.7961,,,,,,221,0,221,0,1,,,,,
,,096304,001,2023-07-24_20h59.10.091,arm3_q,2022.2.5,Win32,60.08532116,616a8502cf9f59ac63569662,64aeaab685a29f4ca249be02,64bec9bf6df71bddf4376772,right,-1,0.8214,0.35,13,-0.019433497,0.2153,,,,,,222,0,222,0,1,,,,,
,,096304,001,2023-07-24_20h59.10.091,arm3_q,2022.2.5,Win32,60.08532116,616a8502cf9f59ac63569662,64aeaab685a29f4ca249be02,64bec9bf6df71bddf4376772,right,-1,0.8214,0.35,13,-0.032620324,0.2172,,,,,,223,0,223,0,1,,,,,
,,096304,001,2023-07-24_20h59.10.091,arm3_q,2022.2.5,Win32,60.08532116,616a8502cf9f59ac63569662,64aeaab685a29f4ca249be02,64bec9bf6df71bddf4376772,right,-1,0.8214,0.35,13,-0.039501328,0.1676,,,,,,224,0,224,0,1,,,,,
,,096304,001,2023-07-24_20h59.10.091,arm3_q,2022.2.5,Win32,60.08532116,616a8502cf9f59ac63569662,64aeaab685a29f4ca249be02,64bec9bf6df71bddf4376772,down,1,0.8214,0.35,14,0,0.881,,,,,,225,0,225,0,1,,,,,
,,096304,001,2023-07-24_20h59.10.091,arm3_q,2022.2.5,Win32,60.08532116,616a8502cf9f59ac63569662,64aeaab685a29f4ca249be02,64bec9bf6df71bddf4376772,right,1,0.8214,0.35,14,0.001287878,0.2675,,,,,,226,0,226,0,1,,,,,
,,096304,001,2023-07-24_20h59.10.091,arm3_q,2022.2.5,Win32,60.08532116,616a8502cf9f59ac63569662,64aeaab685a29f4ca249be02,64bec9bf6df71bddf4376772,right,1,0.8214,0.35,14,0.017133597,0.5002,,,,,,227,0,227,0,1,,,,,
,,096304,001,2023-07-24_20h59.10.091,arm3_q,2022.2.5,Win32,60.08532116,616a8502cf9f59ac63569662,64aeaab685a29f4ca249be02,64bec9bf6df71bddf4376772,right,1,0.8214,0.35,14,0.022408561,0.1671,,,,,,228,0,228,0,1,,,,,
,,096304,001,2023-07-24_20h59.10.091,arm3_q,2022.2.5,Win32,60.08532116,616a8502cf9f59ac63569662,64aeaab685a29f4ca249be02,64bec9bf6df71bddf4376772,right,1,0.8214,0.35,14,0.013037277,0.1487,,,,,,229,0,229,0,1,,,,,
,,096304,001,2023-07-24_20h59.10.091,arm3_q,2022.2.5,Win32,60.08532116,616a8502cf9f59ac63569662,64aeaab685a29f4ca249be02,64bec9bf6df71bddf4376772,right,1,0.8214,0.35,14,0.034936543,0.1503,,,,,,230,0,230,0,1,,,,,
,,096304,001,2023-07-24_20h59.10.091,arm3_q,2022.2.5,Win32,60.08532116,616a8502cf9f59ac63569662,64aeaab685a29f4ca249be02,64bec9bf6df71bddf4376772,right,1,0.8214,0.35,14,0.035917963,0.1502,,,,,,231,0,231,0,1,,,,,
,,096304,001,2023-07-24_20h59.10.091,arm3_q,2022.2.5,Win32,60.08532116,616a8502cf9f59ac63569662,64aeaab685a29f4ca249be02,64bec9bf6df71bddf4376772,right,1,0.8214,0.35,14,0.03775726,0.3339,,,,,,232,0,232,0,1,,,,,
,,096304,001,2023-07-24_20h59.10.091,arm3_q,2022.2.5,Win32,60.08532116,616a8502cf9f59ac63569662,64aeaab685a29f4ca249be02,64bec9bf6df71bddf4376772,right,1,0.8214,0.35,14,0.025885688,0.3328,,,,,,233,0,233,0,1,,,,,
,,096304,001,2023-07-24_20h59.10.091,arm3_q,2022.2.5,Win32,60.08532116,616a8502cf9f59ac63569662,64aeaab685a29f4ca249be02,64bec9bf6df71bddf4376772,up,1,0.8214,0.35,15,0,0.9001,,,,,,234,0,234,0,1,,,,,
,,096304,001,2023-07-24_20h59.10.091,arm3_q,2022.2.5,Win32,60.08532116,616a8502cf9f59ac63569662,64aeaab685a29f4ca249be02,64bec9bf6df71bddf4376772,right,1,0.8214,0.35,15,0.016564511,0.1837,,,,,,235,0,235,0,1,,,,,
,,096304,001,2023-07-24_20h59.10.091,arm3_q,2022.2.5,Win32,60.08532116,616a8502cf9f59ac63569662,64aeaab685a29f4ca249be02,64bec9bf6df71bddf4376772,right,1,0.8214,0.35,15,-0.007180937,0.1837,,,,,,236,0,236,0,1,,,,,
,,096304,001,2023-07-24_20h59.10.091,arm3_q,2022.2.5,Win32,60.08532116,616a8502cf9f59ac63569662,64aeaab685a29f4ca249be02,64bec9bf6df71bddf4376772,right,1,0.8214,0.35,15,-0.009528878,0.1836,,,,,,237,0,237,0,1,,,,,
,,096304,001,2023-07-24_20h59.10.091,arm3_q,2022.2.5,Win32,60.08532116,616a8502cf9f59ac63569662,64aeaab685a29f4ca249be02,64bec9bf6df71bddf4376772,right,1,0.8214,0.35,15,-0.011121618,0.118,,,,,,238,0,238,0,1,,,,,
,,096304,001,2023-07-24_20h59.10.091,arm3_q,2022.2.5,Win32,60.08532116,616a8502cf9f59ac63569662,64aeaab685a29f4ca249be02,64bec9bf6df71bddf4376772,right,1,0.8214,0.35,15,-0.003811107,0.1667,,,,,,239,0,239,0,1,,,,,
,,096304,001,2023-07-24_20h59.10.091,arm3_q,2022.2.5,Win32,60.08532116,616a8502cf9f59ac63569662,64aeaab685a29f4ca249be02,64bec9bf6df71bddf4376772,right,1,0.8214,0.35,15,-0.018432378,0.167,,,,,,240,0,240,0,1,,,,,
,,096304,001,2023-07-24_20h59.10.091,arm3_q,2022.2.5,Win32,60.08532116,616a8502cf9f59ac63569662,64aeaab685a29f4ca249be02,64bec9bf6df71bddf4376772,right,1,0.8214,0.35,15,-0.021069691,0.1506,,,,,,241,0,241,0,1,,,,,
,,096304,001,2023-07-24_20h59.10.091,arm3_q,2022.2.5,Win32,60.08532116,616a8502cf9f59ac63569662,64aeaab685a29f4ca249be02,64bec9bf6df71bddf4376772,right,1,0.8214,0.35,15,-0.031072116,0.168,,,,,,242,0,242,0,1,,,,,
,,096304,001,2023-07-24_20h59.10.091,arm3_q,2022.2.5,Win32,60.08532116,616a8502cf9f59ac63569662,64aeaab685a29f4ca249be02,64bec9bf6df71bddf4376772,right,1,0.8214,0.35,15,-0.005277903,0.3984,,,,,,243,0,243,0,1,,,,,
,,096304,001,2023-07-24_20h59.10.091,arm3_q,2022.2.5,Win32,60.08532116,616a8502cf9f59ac63569662,64aeaab685a29f4ca249be02,64bec9bf6df71bddf4376772,right,1,0.8214,0.35,15,0.01945467,0.1837,,,,,,244,0,244,0,1,,,,,
,,096304,001,2023-07-24_20h59.10.091,arm3_q,2022.2.5,Win32,60.08532116,616a8502cf9f59ac63569662,64aeaab685a29f4ca249be02,64bec9bf6df71bddf4376772,right,1,0.8214,0.35,15,0.056926614,0.1649,,,,,,245,0,245,0,1,,,,,
,,096304,001,2023-07-24_20h59.10.091,arm3_q,2022.2.5,Win32,60.08532116,616a8502cf9f59ac63569662,64aeaab685a29f4ca249be02,64bec9bf6df71bddf4376772,up,-1,0.8214,0.35,16,0,0.3175,,,,,,246,0,246,0,1,,,,,
,,096304,001,2023-07-24_20h59.10.091,arm3_q,2022.2.5,Win32,60.08532116,616a8502cf9f59ac63569662,64aeaab685a29f4ca249be02,64bec9bf6df71bddf4376772,right,-1,0.8214,0.35,16,-0.003926875,0.2507,,,,,,247,0,247,0,1,,,,,
,,096304,001,2023-07-24_20h59.10.091,arm3_q,2022.2.5,Win32,60.08532116,616a8502cf9f59ac63569662,64aeaab685a29f4ca249be02,64bec9bf6df71bddf4376772,right,-1,0.8214,0.35,16,-0.022693351,0.1835,,,,,,248,0,248,0,1,,,,,
,,096304,001,2023-07-24_20h59.10.091,arm3_q,2022.2.5,Win32,60.08532116,616a8502cf9f59ac63569662,64aeaab685a29f4ca249be02,64bec9bf6df71bddf4376772,right,-1,0.8214,0.35,16,-0.010557345,0.1499,,,,,,249,0,249,0,1,,,,,
,,096304,001,2023-07-24_20h59.10.091,arm3_q,2022.2.5,Win32,60.08532116,616a8502cf9f59ac63569662,64aeaab685a29f4ca249be02,64bec9bf6df71bddf4376772,right,-1,0.8214,0.35,16,-0.03194474,0.3169,,,,,,250,0,250,0,1,,,,,
,,096304,001,2023-07-24_20h59.10.091,arm3_q,2022.2.5,Win32,60.08532116,616a8502cf9f59ac63569662,64aeaab685a29f4ca249be02,64bec9bf6df71bddf4376772,right,-1,0.8214,0.35,16,-0.035404827,0.1506,,,,,,251,0,251,0,1,,,,,
,,096304,001,2023-07-24_20h59.10.091,arm3_q,2022.2.5,Win32,60.08532116,616a8502cf9f59ac63569662,64aeaab685a29f4ca249be02,64bec9bf6df71bddf4376772,right,-1,0.8214,0.35,16,-0.039061242,0.1504,,,,,,252,0,252,0,1,,,,,
,,096304,001,2023-07-24_20h59.10.091,arm3_q,2022.2.5,Win32,60.08532116,616a8502cf9f59ac63569662,64aeaab685a29f4ca249be02,64bec9bf6df71bddf4376772,right,-1,0.8214,0.35,16,-0.015121626,0.1322,,,,,,253,0,253,0,1,,,,,
,,096304,001,2023-07-24_20h59.10.091,arm3_q,2022.2.5,Win32,60.08532116,616a8502cf9f59ac63569662,64aeaab685a29f4ca249be02,64bec9bf6df71bddf4376772,right,-1,0.8214,0.35,16,-0.017500527,0.2006,,,,,,254,0,254,0,1,,,,,
,,096304,001,2023-07-24_20h59.10.091,arm3_q,2022.2.5,Win32,60.08532116,616a8502cf9f59ac63569662,64aeaab685a29f4ca249be02,64bec9bf6df71bddf4376772,right,-1,0.8214,0.35,16,0.003940537,0.9672,,,,,,255,0,255,0,1,,,,,
,,096304,001,2023-07-24_20h59.10.091,arm3_q,2022.2.5,Win32,60.08532116,616a8502cf9f59ac63569662,64aeaab685a29f4ca249be02,64bec9bf6df71bddf4376772,right,-1,0.8214,0.35,16,0.001223245,0.367,,,,,,256,0,256,0,1,,,,,
,,096304,001,2023-07-24_20h59.10.091,arm3_q,2022.2.5,Win32,60.08532116,616a8502cf9f59ac63569662,64aeaab685a29f4ca249be02,64bec9bf6df71bddf4376772,right,-1,0.8214,0.35,16,-0.007699047,0.3504,,,,,,257,0,257,0,1,,,,,
,,096304,001,2023-07-24_20h59.10.091,arm3_q,2022.2.5,Win32,60.08532116,616a8502cf9f59ac63569662,64aeaab685a29f4ca249be02,64bec9bf6df71bddf4376772,right,-1,0.8214,0.35,16,-0.006883093,0.4504,,,,,,258,0,258,0,1,,,,,
,,096304,001,2023-07-24_20h59.10.091,arm3_q,2022.2.5,Win32,60.08532116,616a8502cf9f59ac63569662,64aeaab685a29f4ca249be02,64bec9bf6df71bddf4376772,up,-1,0.8214,0.35,15,0,0.5008,,,,,,259,0,259,0,1,,,,,
,,096304,001,2023-07-24_20h59.10.091,arm3_q,2022.2.5,Win32,60.08532116,616a8502cf9f59ac63569662,64aeaab685a29f4ca249be02,64bec9bf6df71bddf4376772,right,-1,0.8214,0.35,15,-0.017709202,1.6335,,,,,,260,0,260,0,1,,,,,
,,096304,001,2023-07-24_20h59.10.091,arm3_q,2022.2.5,Win32,60.08532116,616a8502cf9f59ac63569662,64aeaab685a29f4ca249be02,64bec9bf6df71bddf4376772,right,-1,0.8214,0.35,15,-0.059047885,0.1506,,,,,,261,0,261,0,1,,,,,
,,096304,001,2023-07-24_20h59.10.091,arm3_q,2022.2.5,Win32,60.08532116,616a8502cf9f59ac63569662,64aeaab685a29f4ca249be02,64bec9bf6df71bddf4376772,right,-1,0.8214,0.35,15,-0.045715752,0.1835,,,,,,262,0,262,0,1,,,,,
,,096304,001,2023-07-24_20h59.10.091,arm3_q,2022.2.5,Win32,60.08532116,616a8502cf9f59ac63569662,64aeaab685a29f4ca249be02,64bec9bf6df71bddf4376772,right,-1,0.8214,0.35,15,-0.029179298,0.1666,,,,,,263,0,263,0,1,,,,,
,,096304,001,2023-07-24_20h59.10.091,arm3_q,2022.2.5,Win32,60.08532116,616a8502cf9f59ac63569662,64aeaab685a29f4ca249be02,64bec9bf6df71bddf4376772,right,-1,0.8214,0.35,15,-0.012716443,0.1505,,,,,,264,0,264,0,1,,,,,
,,096304,001,2023-07-24_20h59.10.091,arm3_q,2022.2.5,Win32,60.08532116,616a8502cf9f59ac63569662,64aeaab685a29f4ca249be02,64bec9bf6df71bddf4376772,right,-1,0.8214,0.35,15,-0.043719384,0.5472,,,,,,265,0,265,0,1,,,,,
,,096304,001,2023-07-24_20h59.10.091,arm3_q,2022.2.5,Win32,60.08532116,616a8502cf9f59ac63569662,64aeaab685a29f4ca249be02,64bec9bf6df71bddf4376772,right,-1,0.8214,0.35,15,-0.065604813,0.3004,,,,,,266,0,266,0,1,,,,,
,,096304,001,2023-07-24_20h59.10.091,arm3_q,2022.2.5,Win32,60.08532116,616a8502cf9f59ac63569662,64aeaab685a29f4ca249be02,64bec9bf6df71bddf4376772,down,-1,0.8214,0.35,16,0,0.3672,,,,,,267,0,267,0,1,,,,,
,,096304,001,2023-07-24_20h59.10.091,arm3_q,2022.2.5,Win32,60.08532116,616a8502cf9f59ac63569662,64aeaab685a29f4ca249be02,64bec9bf6df71bddf4376772,right,-1,0.8214,0.35,16,0.009831141,0.5669,,,,,,268,0,268,0,1,,,,,
,,096304,001,2023-07-24_20h59.10.091,arm3_q,2022.2.5,Win32,60.08532116,616a8502cf9f59ac63569662,64aeaab685a29f4ca249be02,64bec9bf6df71bddf4376772,right,-1,0.8214,0.35,16,-0.01349491,0.1675,,,,,,269,0,269,0,1,,,,,
,,096304,001,2023-07-24_20h59.10.091,arm3_q,2022.2.5,Win32,60.08532116,616a8502cf9f59ac63569662,64aeaab685a29f4ca249be02,64bec9bf6df71bddf4376772,right,-1,0.8214,0.35,16,-0.035419944,0.1671,,,,,,270,0,270,0,1,,,,,
,,096304,001,2023-07-24_20h59.10.091,arm3_q,2022.2.5,Win32,60.08532116,616a8502cf9f59ac63569662,64aeaab685a29f4ca249be02,64bec9bf6df71bddf4376772,right,-1,0.8214,0.35,16,-0.042644341,0.1666,,,,,,271,0,271,0,1,,,,,
,,096304,001,2023-07-24_20h59.10.091,arm3_q,2022.2.5,Win32,60.08532116,616a8502cf9f59ac63569662,64aeaab685a29f4ca249be02,64bec9bf6df71bddf4376772,right,-1,0.8214,0.35,16,-0.040065558,0.1499,,,,,,272,0,272,0,1,,,,,
,,096304,001,2023-07-24_20h59.10.091,arm3_q,2022.2.5,Win32,60.08532116,616a8502cf9f59ac63569662,64aeaab685a29f4ca249be02,64bec9bf6df71bddf4376772,right,-1,0.8214,0.35,16,-0.049220789,0.1173,,,,,,273,0,273,0,1,,,,,
,,096304,001,2023-07-24_20h59.10.091,arm3_q,2022.2.5,Win32,60.08532116,616a8502cf9f59ac63569662,64aeaab685a29f4ca249be02,64bec9bf6df71bddf4376772,right,-1,0.8214,0.35,16,-0.033386011,0.2004,,,,,,274,0,274,0,1,,,,,
,,096304,001,2023-07-24_20h59.10.091,arm3_q,2022.2.5,Win32,60.08532116,616a8502cf9f59ac63569662,64aeaab685a29f4ca249be02,64bec9bf6df71bddf4376772,right,-1,0.8214,0.35,16,-0.035844806,0.2005,,,,,,275,0,275,0,1,,,,,
,,096304,001,2023-07-24_20h59.10.091,arm3_q,2022.2.5,Win32,60.08532116,616a8502cf9f59ac63569662,64aeaab685a29f4ca249be02,64bec9bf6df71bddf4376772,right,-1,0.8214,0.35,16,-0.054940782,0.3173,,,,,,276,0,276,0,1,,,,,
,,096304,001,2023-07-24_20h59.10.091,arm3_q,2022.2.5,Win32,60.08532116,616a8502cf9f59ac63569662,64aeaab685a29f4ca249be02,64bec9bf6df71bddf4376772,down,-1,0.8214,0.35,17,0,0.3008,,,,,,277,0,277,0,1,,,,,
,,096304,001,2023-07-24_20h59.10.091,arm3_q,2022.2.5,Win32,60.08532116,616a8502cf9f59ac63569662,64aeaab685a29f4ca249be02,64bec9bf6df71bddf4376772,right,-1,0.8214,0.35,17,-0.017007367,3.0667,,,,,,278,0,278,0,1,,,,,
,,096304,001,2023-07-24_20h59.10.091,arm3_q,2022.2.5,Win32,60.08532116,616a8502cf9f59ac63569662,64aeaab685a29f4ca249be02,64bec9bf6df71bddf4376772,right,-1,0.8214,0.35,17,-0.046927312,0.1996,,,,,,279,0,279,0,1,,,,,
,,096304,001,2023-07-24_20h59.10.091,arm3_q,2022.2.5,Win32,60.08532116,616a8502cf9f59ac63569662,64aeaab685a29f4ca249be02,64bec9bf6df71bddf4376772,right,-1,0.8214,0.35,17,-0.063656865,0.1673,,,,,,280,0,280,0,1,,,,,
,,096304,001,2023-07-24_20h59.10.091,arm3_q,2022.2.5,Win32,60.08532116,616a8502cf9f59ac63569662,64aeaab685a29f4ca249be02,64bec9bf6df71bddf4376772,right,-1,0.8214,0.35,17,-0.086163255,0.1479,,,,,,281,0,281,0,1,,,,,
,,096304,001,2023-07-24_20h59.10.091,arm3_q,2022.2.5,Win32,60.08532116,616a8502cf9f59ac63569662,64aeaab685a29f4ca249be02,64bec9bf6df71bddf4376772,right,-1,0.8214,0.35,17,-0.091873057,0.1508,,,,,,282,0,282,0,1,,,,,
,,096304,001,2023-07-24_20h59.10.091,arm3_q,2022.2.5,Win32,60.08532116,616a8502cf9f59ac63569662,64aeaab685a29f4ca249be02,64bec9bf6df71bddf4376772,down,-1,0.8214,0.35,18,0,0.1341,,,,,,283,0,283,0,1,,,,,
,,096304,001,2023-07-24_20h59.10.091,arm3_q,2022.2.5,Win32,60.08532116,616a8502cf9f59ac63569662,64aeaab685a29f4ca249be02,64bec9bf6df71bddf4376772,right,-1,0.8214,0.35,18,0.006190207,4.5991,,,,,,284,0,284,0,1,,,,,
,,096304,001,2023-07-24_20h59.10.091,arm3_q,2022.2.5,Win32,60.08532116,616a8502cf9f59ac63569662,64aeaab685a29f4ca249be02,64bec9bf6df71bddf4376772,right,-1,0.8214,0.35,18,0.009004409,0.1838,,,,,,285,0,285,0,1,,,,,
,,096304,001,2023-07-24_20h59.10.091,arm3_q,2022.2.5,Win32,60.08532116,616a8502cf9f59ac63569662,64aeaab685a29f4ca249be02,64bec9bf6df71bddf4376772,right,-1,0.8214,0.35,18,0.014859168,0.1371,,,,,,286,0,286,0,1,,,,,
,,096304,001,2023-07-24_20h59.10.091,arm3_q,2022.2.5,Win32,60.08532116,616a8502cf9f59ac63569662,64aeaab685a29f4ca249be02,64bec9bf6df71bddf4376772,right,-1,0.8214,0.35,18,-0.002141159,0.1484,,,,,,287,0,287,0,1,,,,,
,,096304,001,2023-07-24_20h59.10.091,arm3_q,2022.2.5,Win32,60.08532116,616a8502cf9f59ac63569662,64aeaab685a29f4ca249be02,64bec9bf6df71bddf4376772,right,-1,0.8214,0.35,18,0.004965466,0.1505,,,,,,288,0,288,0,1,,,,,
,,096304,001,2023-07-24_20h59.10.091,arm3_q,2022.2.5,Win32,60.08532116,616a8502cf9f59ac63569662,64aeaab685a29f4ca249be02,64bec9bf6df71bddf4376772,right,-1,0.8214,0.35,18,-0.000256086,0.1504,,,,,,289,0,289,0,1,,,,,
,,096304,001,2023-07-24_20h59.10.091,arm3_q,2022.2.5,Win32,60.08532116,616a8502cf9f59ac63569662,64aeaab685a29f4ca249be02,64bec9bf6df71bddf4376772,right,-1,0.8214,0.35,18,-0.010771771,0.1508,,,,,,290,0,290,0,1,,,,,
,,096304,001,2023-07-24_20h59.10.091,arm3_q,2022.2.5,Win32,60.08532116,616a8502cf9f59ac63569662,64aeaab685a29f4ca249be02,64bec9bf6df71bddf4376772,right,-1,0.8214,0.35,18,-0.022774418,0.1674,,,,,,291,0,291,0,1,,,,,
,,096304,001,2023-07-24_20h59.10.091,arm3_q,2022.2.5,Win32,60.08532116,616a8502cf9f59ac63569662,64aeaab685a29f4ca249be02,64bec9bf6df71bddf4376772,right,-1,0.8214,0.35,18,-0.023544951,0.2342,,,,,,292,0,292,0,1,,,,,
,,096304,001,2023-07-24_20h59.10.091,arm3_q,2022.2.5,Win32,60.08532116,616a8502cf9f59ac63569662,64aeaab685a29f4ca249be02,64bec9bf6df71bddf4376772,right,-1,0.8214,0.35,18,-0.00864936,0.1506,,,,,,293,0,293,0,1,,,,,
,,096304,001,2023-07-24_20h59.10.091,arm3_q,2022.2.5,Win32,60.08532116,616a8502cf9f59ac63569662,64aeaab685a29f4ca249be02,64bec9bf6df71bddf4376772,right,-1,0.8214,0.35,18,-0.014850483,0.2503,,,,,,294,0,294,0,1,,,,,
,,096304,001,2023-07-24_20h59.10.091,arm3_q,2022.2.5,Win32,60.08532116,616a8502cf9f59ac63569662,64aeaab685a29f4ca249be02,64bec9bf6df71bddf4376772,right,-1,0.8214,0.35,18,0.008462165,0.6175,,,,,,295,0,295,0,1,,,,,
,,096304,001,2023-07-24_20h59.10.091,arm3_q,2022.2.5,Win32,60.08532116,616a8502cf9f59ac63569662,64aeaab685a29f4ca249be02,64bec9bf6df71bddf4376772,up,-1,0.8214,0.35,17,0,0.4838,,,,,,296,0,296,0,1,,,,,
,,096304,001,2023-07-24_20h59.10.091,arm3_q,2022.2.5,Win32,60.08532116,616a8502cf9f59ac63569662,64aeaab685a29f4ca249be02,64bec9bf6df71bddf4376772,right,-1,0.8214,0.35,17,-0.029042354,0.7168,,,,,,297,0,297,0,1,,,,,
,,096304,001,2023-07-24_20h59.10.091,arm3_q,2022.2.5,Win32,60.08532116,616a8502cf9f59ac63569662,64aeaab685a29f4ca249be02,64bec9bf6df71bddf4376772,right,-1,0.8214,0.35,17,-0.054070504,0.1842,,,,,,298,0,298,0,1,,,,,
,,096304,001,2023-07-24_20h59.10.091,arm3_q,2022.2.5,Win32,60.08532116,616a8502cf9f59ac63569662,64aeaab685a29f4ca249be02,64bec9bf6df71bddf4376772,right,-1,0.8214,0.35,17,-0.073391339,0.1673,,,,,,299,0,299,0,1,,,,,
,,096304,001,2023-07-24_20h59.10.091,arm3_q,2022.2.5,Win32,60.08532116,616a8502cf9f59ac63569662,64aeaab685a29f4ca249be02,64bec9bf6df71bddf4376772,right,-1,0.8214,0.35,17,-0.118826925,0.1339,,,,,,300,0,300,0,1,,,,,
,,096304,001,2023-07-24_20h59.10.091,arm3_q,2022.2.5,Win32,60.08532116,616a8502cf9f59ac63569662,64aeaab685a29f4ca249be02,64bec9bf6df71bddf4376772,right,-1,0.8214,0.35,17,-0.104930696,0.1668,,,,,,301,0,301,0,1,,,,,
,,096304,001,2023-07-24_20h59.10.091,arm3_q,2022.2.5,Win32,60.08532116,616a8502cf9f59ac63569662,64aeaab685a29f4ca249be02,64bec9bf6df71bddf4376772,right,-1,0.8214,0.35,17,-0.140987793,0.1508,,,,,,302,0,302,0,1,,,,,
,,096304,001,2023-07-24_20h59.10.091,arm3_q,2022.2.5,Win32,60.08532116,616a8502cf9f59ac63569662,64aeaab685a29f4ca249be02,64bec9bf6df71bddf4376772,right,-1,0.8214,0.35,17,-0.132313918,0.1668,,,,,,303,0,303,0,1,,,,,
,,096304,001,2023-07-24_20h59.10.091,arm3_q,2022.2.5,Win32,60.08532116,616a8502cf9f59ac63569662,64aeaab685a29f4ca249be02,64bec9bf6df71bddf4376772,down,1,0.8214,0.35,18,0,0.0172,,,,,,304,0,304,0,1,,,,,
,,096304,001,2023-07-24_20h59.10.091,arm3_q,2022.2.5,Win32,60.08532116,616a8502cf9f59ac63569662,64aeaab685a29f4ca249be02,64bec9bf6df71bddf4376772,right,1,0.8214,0.35,18,0.035718983,1.0008,,,,,,305,0,305,0,1,,,,,
,,096304,001,2023-07-24_20h59.10.091,arm3_q,2022.2.5,Win32,60.08532116,616a8502cf9f59ac63569662,64aeaab685a29f4ca249be02,64bec9bf6df71bddf4376772,right,1,0.8214,0.35,18,0.048594082,0.1836,,,,,,306,0,306,0,1,,,,,
,,096304,001,2023-07-24_20h59.10.091,arm3_q,2022.2.5,Win32,60.08532116,616a8502cf9f59ac63569662,64aeaab685a29f4ca249be02,64bec9bf6df71bddf4376772,right,1,0.8214,0.35,18,0.066654879,0.1505,,,,,,307,0,307,0,1,,,,,
,,096304,001,2023-07-24_20h59.10.091,arm3_q,2022.2.5,Win32,60.08532116,616a8502cf9f59ac63569662,64aeaab685a29f4ca249be02,64bec9bf6df71bddf4376772,right,1,0.8214,0.35,18,0.092437545,0.1508,,,,,,308,0,308,0,1,,,,,
,,096304,001,2023-07-24_20h59.10.091,arm3_q,2022.2.5,Win32,60.08532116,616a8502cf9f59ac63569662,64aeaab685a29f4ca249be02,64bec9bf6df71bddf4376772,right,1,0.8214,0.35,18,0.119105806,0.1649,,,,,,309,0,309,0,1,,,,,
,,096304,001,2023-07-24_20h59.10.091,arm3_q,2022.2.5,Win32,60.08532116,616a8502cf9f59ac63569662,64aeaab685a29f4ca249be02,64bec9bf6df71bddf4376772,up,1,0.8214,0.35,19,0,0.1344,,,,,,310,0,310,0,1,,,,,
,,096304,001,2023-07-24_20h59.10.091,arm3_q,2022.2.5,Win32,60.08532116,616a8502cf9f59ac63569662,64aeaab685a29f4ca249be02,64bec9bf6df71bddf4376772,right,1,0.8214,0.35,19,0.006757672,0.8337,,,,,,311,0,311,0,1,,,,,
,,096304,001,2023-07-24_20h59.10.091,arm3_q,2022.2.5,Win32,60.08532116,616a8502cf9f59ac63569662,64aeaab685a29f4ca249be02,64bec9bf6df71bddf4376772,right,1,0.8214,0.35,19,0.005495993,0.167,,,,,,312,0,312,0,1,,,,,
,,096304,001,2023-07-24_20h59.10.091,arm3_q,2022.2.5,Win32,60.08532116,616a8502cf9f59ac63569662,64aeaab685a29f4ca249be02,64bec9bf6df71bddf4376772,right,1,0.8214,0.35,19,0.00482232,0.1341,,,,,,313,0,313,0,1,,,,,
,,096304,001,2023-07-24_20h59.10.091,arm3_q,2022.2.5,Win32,60.08532116,616a8502cf9f59ac63569662,64aeaab685a29f4ca249be02,64bec9bf6df71bddf4376772,right,1,0.8214,0.35,19,0.03666623,0.1666,,,,,,314,0,314,0,1,,,,,
,,096304,001,2023-07-24_20h59.10.091,arm3_q,2022.2.5,Win32,60.08532116,616a8502cf9f59ac63569662,64aeaab685a29f4ca249be02,64bec9bf6df71bddf4376772,right,1,0.8214,0.35,19,0.052354803,0.1503,,,,,,315,0,315,0,1,,,,,
,,096304,001,2023-07-24_20h59.10.091,arm3_q,2022.2.5,Win32,60.08532116,616a8502cf9f59ac63569662,64aeaab685a29f4ca249be02,64bec9bf6df71bddf4376772,right,1,0.8214,0.35,19,0.060229354,0.3006,,,,,,316,0,316,0,1,,,,,
,,096304,001,2023-07-24_20h59.10.091,arm3_q,2022.2.5,Win32,60.08532116,616a8502cf9f59ac63569662,64aeaab685a29f4ca249be02,64bec9bf6df71bddf4376772,right,1,0.8214,0.35,19,0.093858651,0.3838,,,,,,317,0,317,0,1,,,,,
,,096304,001,2023-07-24_20h59.10.091,arm3_q,2022.2.5,Win32,60.08532116,616a8502cf9f59ac63569662,64aeaab685a29f4ca249be02,64bec9bf6df71bddf4376772,up,-1,0.8214,0.35,20,0,0.3174,,,,,,318,0,318,0,1,,,,,
,,096304,001,2023-07-24_20h59.10.091,arm3_q,2022.2.5,Win32,60.08532116,616a8502cf9f59ac63569662,64aeaab685a29f4ca249be02,64bec9bf6df71bddf4376772,right,-1,0.8214,0.35,20,0.009962045,3.4163,,,,,,319,0,319,0,1,,,,,
,,096304,001,2023-07-24_20h59.10.091,arm3_q,2022.2.5,Win32,60.08532116,616a8502cf9f59ac63569662,64aeaab685a29f4ca249be02,64bec9bf6df71bddf4376772,right,-1,0.8214,0.35,20,0.02293,0.1502,,,,,,320,0,320,0,1,,,,,
,,096304,001,2023-07-24_20h59.10.091,arm3_q,2022.2.5,Win32,60.08532116,616a8502cf9f59ac63569662,64aeaab685a29f4ca249be02,64bec9bf6df71bddf4376772,right,-1,0.8214,0.35,20,0.033685594,0.1505,,,,,,321,0,321,0,1,,,,,
,,096304,001,2023-07-24_20h59.10.091,arm3_q,2022.2.5,Win32,60.08532116,616a8502cf9f59ac63569662,64aeaab685a29f4ca249be02,64bec9bf6df71bddf4376772,right,-1,0.8214,0.35,20,-0.003950485,0.1336,,,,,,322,0,322,0,1,,,,,
,,096304,001,2023-07-24_20h59.10.091,arm3_q,2022.2.5,Win32,60.08532116,616a8502cf9f59ac63569662,64aeaab685a29f4ca249be02,64bec9bf6df71bddf4376772,right,-1,0.8214,0.35,20,-0.015822166,0.1504,,,,,,323,0,323,0,1,,,,,
,,096304,001,2023-07-24_20h59.10.091,arm3_q,2022.2.5,Win32,60.08532116,616a8502cf9f59ac63569662,64aeaab685a29f4ca249be02,64bec9bf6df71bddf4376772,right,-1,0.8214,0.35,20,-0.040429927,0.3344,,,,,,324,0,324,0,1,,,,,
,,096304,001,2023-07-24_20h59.10.091,arm3_q,2022.2.5,Win32,60.08532116,616a8502cf9f59ac63569662,64aeaab685a29f4ca249be02,64bec9bf6df71bddf4376772,right,-1,0.8214,0.35,20,-0.052416163,0.1169,,,,,,325,0,325,0,1,,,,,
,,096304,001,2023-07-24_20h59.10.091,arm3_q,2022.2.5,Win32,60.08532116,616a8502cf9f59ac63569662,64aeaab685a29f4ca249be02,64bec9bf6df71bddf4376772,right,-1,0.8214,0.35,20,-0.094249508,0.1837,,,,,,326,0,326,0,1,,,,,
,,096304,001,2023-07-24_20h59.10.091,arm3_q,2022.2.5,Win32,60.08532116,616a8502cf9f59ac63569662,64aeaab685a29f4ca249be02,64bec9bf6df71bddf4376772,down,-1,0.8214,0.35,21,0,0.417,,,,,,327,0,327,0,1,,,,,
,,096304,001,2023-07-24_20h59.10.091,arm3_q,2022.2.5,Win32,60.08532116,616a8502cf9f59ac63569662,64aeaab685a29f4ca249be02,64bec9bf6df71bddf4376772,right,-1,0.8214,0.35,21,-0.019663284,0.9513,,,,,,328,0,328,0,1,,,,,
,,096304,001,2023-07-24_20h59.10.091,arm3_q,2022.2.5,Win32,60.08532116,616a8502cf9f59ac63569662,64aeaab685a29f4ca249be02,64bec9bf6df71bddf4376772,right,-1,0.8214,0.35,21,-0.021030286,0.181,,,,,,329,0,329,0,1,,,,,
,,096304,001,2023-07-24_20h59.10.091,arm3_q,2022.2.5,Win32,60.08532116,616a8502cf9f59ac63569662,64aeaab685a29f4ca249be02,64bec9bf6df71bddf4376772,right,-1,0.8214,0.35,21,-0.030436043,0.1337,,,,,,330,0,330,0,1,,,,,
,,096304,001,2023-07-24_20h59.10.091,arm3_q,2022.2.5,Win32,60.08532116,616a8502cf9f59ac63569662,64aeaab685a29f4ca249be02,64bec9bf6df71bddf4376772,right,-1,0.8214,0.35,21,-0.040528865,0.1502,,,,,,331,0,331,0,1,,,,,
,,096304,001,2023-07-24_20h59.10.091,arm3_q,2022.2.5,Win32,60.08532116,616a8502cf9f59ac63569662,64aeaab685a29f4ca249be02,64bec9bf6df71bddf4376772,right,-1,0.8214,0.35,21,-0.082704838,0.151,,,,,,332,0,332,0,1,,,,,
,,096304,001,2023-07-24_20h59.10.091,arm3_q,2022.2.5,Win32,60.08532116,616a8502cf9f59ac63569662,64aeaab685a29f4ca249be02,64bec9bf6df71bddf4376772,right,-1,0.8214,0.35,21,-0.108349011,0.1505,,,,,,333,0,333,0,1,,,,,
,,096304,001,2023-07-24_20h59.10.091,arm3_q,2022.2.5,Win32,60.08532116,616a8502cf9f59ac63569662,64aeaab685a29f4ca249be02,64bec9bf6df71bddf4376772,right,-1,0.8214,0.35,21,-0.114101234,0.1672,,,,,,334,0,334,0,1,,,,,
,,096304,001,2023-07-24_20h59.10.091,arm3_q,2022.2.5,Win32,60.08532116,616a8502cf9f59ac63569662,64aeaab685a29f4ca249be02,64bec9bf6df71bddf4376772,right,-1,0.8214,0.35,21,-0.159363612,0.1669,,,,,,335,0,335,0,1,,,,,
,,096304,001,2023-07-24_20h59.10.091,arm3_q,2022.2.5,Win32,60.08532116,616a8502cf9f59ac63569662,64aeaab685a29f4ca249be02,64bec9bf6df71bddf4376772,down,1,0.8214,0.35,22,0,114.0114,,,,,,336,0,336,0,1,,,,,
,,096304,001,2023-07-24_20h59.10.091,arm3_q,2022.2.5,Win32,60.08532116,616a8502cf9f59ac63569662,64aeaab685a29f4ca249be02,64bec9bf6df71bddf4376772,right,1,0.8214,0.35,22,-0.008646076,0.8274,,,,,,337,0,337,0,1,,,,,
,,096304,001,2023-07-24_20h59.10.091,arm3_q,2022.2.5,Win32,60.08532116,616a8502cf9f59ac63569662,64aeaab685a29f4ca249be02,64bec9bf6df71bddf4376772,right,1,0.8214,0.35,22,0.005899807,0.1341,,,,,,338,0,338,0,1,,,,,
,,096304,001,2023-07-24_20h59.10.091,arm3_q,2022.2.5,Win32,60.08532116,616a8502cf9f59ac63569662,64aeaab685a29f4ca249be02,64bec9bf6df71bddf4376772,right,1,0.8214,0.35,22,0.007211339,0.1336,,,,,,339,0,339,0,1,,,,,
,,096304,001,2023-07-24_20h59.10.091,arm3_q,2022.2.5,Win32,60.08532116,616a8502cf9f59ac63569662,64aeaab685a29f4ca249be02,64bec9bf6df71bddf4376772,right,1,0.8214,0.35,22,0.016726513,0.1339,,,,,,340,0,340,0,1,,,,,
,,096304,001,2023-07-24_20h59.10.091,arm3_q,2022.2.5,Win32,60.08532116,616a8502cf9f59ac63569662,64aeaab685a29f4ca249be02,64bec9bf6df71bddf4376772,right,1,0.8214,0.35,22,0.02594714,0.1339,,,,,,341,0,341,0,1,,,,,
,,096304,001,2023-07-24_20h59.10.091,arm3_q,2022.2.5,Win32,60.08532116,616a8502cf9f59ac63569662,64aeaab685a29f4ca249be02,64bec9bf6df71bddf4376772,right,1,0.8214,0.35,22,0.073268845,0.1338,,,,,,342,0,342,0,1,,,,,
,,096304,001,2023-07-24_20h59.10.091,arm3_q,2022.2.5,Win32,60.08532116,616a8502cf9f59ac63569662,64aeaab685a29f4ca249be02,64bec9bf6df71bddf4376772,up,-1,0.8214,0.35,22,0,0.2841,,,,,,343,0,343,0,1,,,,,
,,096304,001,2023-07-24_20h59.10.091,arm3_q,2022.2.5,Win32,60.08532116,616a8502cf9f59ac63569662,64aeaab685a29f4ca249be02,64bec9bf6df71bddf4376772,right,-1,0.8214,0.35,22,-0.041763338,0.2668,,,,,,344,0,344,0,1,,,,,
,,096304,001,2023-07-24_20h59.10.091,arm3_q,2022.2.5,Win32,60.08532116,616a8502cf9f59ac63569662,64aeaab685a29f4ca249be02,64bec9bf6df71bddf4376772,right,-1,0.8214,0.35,22,-0.051761569,0.2175,,,,,,345,0,345,0,1,,,,,
,,096304,001,2023-07-24_20h59.10.091,arm3_q,2022.2.5,Win32,60.08532116,616a8502cf9f59ac63569662,64aeaab685a29f4ca249be02,64bec9bf6df71bddf4376772,right,-1,0.8214,0.35,22,-0.063883388,0.234,,,,,,346,0,346,0,1,,,,,
,,096304,001,2023-07-24_20h59.10.091,arm3_q,2022.2.5,Win32,60.08532116,616a8502cf9f59ac63569662,64aeaab685a29f4ca249be02,64bec9bf6df71bddf4376772,right,-1,0.8214,0.35,22,-0.033118319,0.1672,,,,,,347,0,347,0,1,,,,,
,,096304,001,2023-07-24_20h59.10.091,arm3_q,2022.2.5,Win32,60.08532116,616a8502cf9f59ac63569662,64aeaab685a29f4ca249be02,64bec9bf6df71bddf4376772,right,-1,0.8214,0.35,22,-0.052506651,0.1339,,,,,,348,0,348,0,1,,,,,
,,096304,001,2023-07-24_20h59.10.091,arm3_q,2022.2.5,Win32,60.08532116,616a8502cf9f59ac63569662,64aeaab685a29f4ca249be02,64bec9bf6df71bddf4376772,right,-1,0.8214,0.35,22,-0.070864586,0.1333,,,,,,349,0,349,0,1,,,,,
,,096304,001,2023-07-24_20h59.10.091,arm3_q,2022.2.5,Win32,60.08532116,616a8502cf9f59ac63569662,64aeaab685a29f4ca249be02,64bec9bf6df71bddf4376772,right,-1,0.8214,0.35,22,-0.032075504,0.1505,,,,,,350,0,350,0,1,,,,,
,,096304,001,2023-07-24_20h59.10.091,arm3_q,2022.2.5,Win32,60.08532116,616a8502cf9f59ac63569662,64aeaab685a29f4ca249be02,64bec9bf6df71bddf4376772,right,-1,0.8214,0.35,22,-0.04801784,0.134,,,,,,351,0,351,0,1,,,,,
,,096304,001,2023-07-24_20h59.10.091,arm3_q,2022.2.5,Win32,60.08532116,616a8502cf9f59ac63569662,64aeaab685a29f4ca249be02,64bec9bf6df71bddf4376772,right,-1,0.8214,0.35,22,-0.024311605,0.2505,,,,,,352,0,352,0,1,,,,,
,,096304,001,2023-07-24_20h59.10.091,arm3_q,2022.2.5,Win32,60.08532116,616a8502cf9f59ac63569662,64aeaab685a29f4ca249be02,64bec9bf6df71bddf4376772,right,-1,0.8214,0.35,22,-0.066182015,0.3504,,,,,,353,0,353,0,1,,,,,
,,096304,001,2023-07-24_20h59.10.091,arm3_q,2022.2.5,Win32,60.08532116,616a8502cf9f59ac63569662,64aeaab685a29f4ca249be02,64bec9bf6df71bddf4376772,down,-1,0.8214,0.35,23,0,0.4504,,,,,,354,0,354,0,1,,,,,
,,096304,001,2023-07-24_20h59.10.091,arm3_q,2022.2.5,Win32,60.08532116,616a8502cf9f59ac63569662,64aeaab685a29f4ca249be02,64bec9bf6df71bddf4376772,right,-1,0.8214,0.35,23,-0.004241952,0.6835,,,,,,355,0,355,0,1,,,,,
,,096304,001,2023-07-24_20h59.10.091,arm3_q,2022.2.5,Win32,60.08532116,616a8502cf9f59ac63569662,64aeaab685a29f4ca249be02,64bec9bf6df71bddf4376772,right,-1,0.8214,0.35,23,-0.034562185,0.1173,,,,,,356,0,356,0,1,,,,,
,,096304,001,2023-07-24_20h59.10.091,arm3_q,2022.2.5,Win32,60.08532116,616a8502cf9f59ac63569662,64aeaab685a29f4ca249be02,64bec9bf6df71bddf4376772,right,-1,0.8214,0.35,23,-0.024839025,0.1668,,,,,,357,0,357,0,1,,,,,
,,096304,001,2023-07-24_20h59.10.091,arm3_q,2022.2.5,Win32,60.08532116,616a8502cf9f59ac63569662,64aeaab685a29f4ca249be02,64bec9bf6df71bddf4376772,right,-1,0.8214,0.35,23,-0.032614456,0.1512,,,,,,358,0,358,0,1,,,,,
,,096304,001,2023-07-24_20h59.10.091,arm3_q,2022.2.5,Win32,60.08532116,616a8502cf9f59ac63569662,64aeaab685a29f4ca249be02,64bec9bf6df71bddf4376772,right,-1,0.8214,0.35,23,-0.034488454,0.1003,,,,,,359,0,359,0,1,,,,,
,,096304,001,2023-07-24_20h59.10.091,arm3_q,2022.2.5,Win32,60.08532116,616a8502cf9f59ac63569662,64aeaab685a29f4ca249be02,64bec9bf6df71bddf4376772,right,-1,0.8214,0.35,23,-0.045567776,0.1344,,,,,,360,0,360,0,1,,,,,
,,096304,001,2023-07-24_20h59.10.091,arm3_q,2022.2.5,Win32,60.08532116,616a8502cf9f59ac63569662,64aeaab685a29f4ca249be02,64bec9bf6df71bddf4376772,right,-1,0.8214,0.35,23,-0.041409546,0.1339,,,,,,361,0,361,0,1,,,,,
,,096304,001,2023-07-24_20h59.10.091,arm3_q,2022.2.5,Win32,60.08532116,616a8502cf9f59ac63569662,64aeaab685a29f4ca249be02,64bec9bf6df71bddf4376772,right,-1,0.8214,0.35,23,-0.040701799,0.1504,,,,,,362,0,362,0,1,,,,,
,,096304,001,2023-07-24_20h59.10.091,arm3_q,2022.2.5,Win32,60.08532116,616a8502cf9f59ac63569662,64aeaab685a29f4ca249be02,64bec9bf6df71bddf4376772,right,-1,0.8214,0.35,23,-0.024097207,0.1816,,,,,,363,0,363,0,1,,,,,
,,096304,001,2023-07-24_20h59.10.091,arm3_q,2022.2.5,Win32,60.08532116,616a8502cf9f59ac63569662,64aeaab685a29f4ca249be02,64bec9bf6df71bddf4376772,right,-1,0.8214,0.35,23,-0.00781147,0.2334,,,,,,364,0,364,0,1,,,,,
,,096304,001,2023-07-24_20h59.10.091,arm3_q,2022.2.5,Win32,60.08532116,616a8502cf9f59ac63569662,64aeaab685a29f4ca249be02,64bec9bf6df71bddf4376772,right,-1,0.8214,0.35,23,-0.024853443,0.2171,,,,,,365,0,365,0,1,,,,,
,,096304,001,2023-07-24_20h59.10.091,arm3_q,2022.2.5,Win32,60.08532116,616a8502cf9f59ac63569662,64aeaab685a29f4ca249be02,64bec9bf6df71bddf4376772,right,-1,0.8214,0.35,23,-0.01998905,0.2503,,,,,,366,0,366,0,1,,,,,
,,096304,001,2023-07-24_20h59.10.091,arm3_q,2022.2.5,Win32,60.08532116,616a8502cf9f59ac63569662,64aeaab685a29f4ca249be02,64bec9bf6df71bddf4376772,down,-1,0.8214,0.35,24,0,0.4843,,,,,,367,0,367,0,1,,,,,
,,096304,001,2023-07-24_20h59.10.091,arm3_q,2022.2.5,Win32,60.08532116,616a8502cf9f59ac63569662,64aeaab685a29f4ca249be02,64bec9bf6df71bddf4376772,right,-1,0.8214,0.35,24,-0.004312351,0.3176,,,,,,368,0,368,0,1,,,,,
,,096304,001,2023-07-24_20h59.10.091,arm3_q,2022.2.5,Win32,60.08532116,616a8502cf9f59ac63569662,64aeaab685a29f4ca249be02,64bec9bf6df71bddf4376772,right,-1,0.8214,0.35,24,-0.008025978,0.1841,,,,,,369,0,369,0,1,,,,,
,,096304,001,2023-07-24_20h59.10.091,arm3_q,2022.2.5,Win32,60.08532116,616a8502cf9f59ac63569662,64aeaab685a29f4ca249be02,64bec9bf6df71bddf4376772,,,,,,,,,,,,,,,,,,0,0,0,0,1
space,163.9691,096304,001,2023-07-24_20h59.10.091,arm3_q,2022.2.5,Win32,60.08532116,616a8502cf9f59ac63569662,64aeaab685a29f4ca249be02,64bec9bf6df71bddf4376772,right,-1,0.95,0.35,24,-0.027133179,0.748,,,,,,0,0,0,0,1,,,,,
,,096304,001,2023-07-24_20h59.10.091,arm3_q,2022.2.5,Win32,60.08532116,616a8502cf9f59ac63569662,64aeaab685a29f4ca249be02,64bec9bf6df71bddf4376772,right,-1,0.95,0.35,24,-0.064746986,0.9529,,,,,,1,0,1,0,1,,,,,
,,096304,001,2023-07-24_20h59.10.091,arm3_q,2022.2.5,Win32,60.08532116,616a8502cf9f59ac63569662,64aeaab685a29f4ca249be02,64bec9bf6df71bddf4376772,right,-1,0.95,0.35,24,-0.086528549,0.1645,,,,,,2,0,2,0,1,,,,,
,,096304,001,2023-07-24_20h59.10.091,arm3_q,2022.2.5,Win32,60.08532116,616a8502cf9f59ac63569662,64aeaab685a29f4ca249be02,64bec9bf6df71bddf4376772,right,-1,0.95,0.35,24,-0.082528785,0.1343,,,,,,3,0,3,0,1,,,,,
,,096304,001,2023-07-24_20h59.10.091,arm3_q,2022.2.5,Win32,60.08532116,616a8502cf9f59ac63569662,64aeaab685a29f4ca249be02,64bec9bf6df71bddf4376772,right,-1,0.95,0.35,24,-0.081647584,0.2497,,,,,,4,0,4,0,1,,,,,
,,096304,001,2023-07-24_20h59.10.091,arm3_q,2022.2.5,Win32,60.08532116,616a8502cf9f59ac63569662,64aeaab685a29f4ca249be02,64bec9bf6df71bddf4376772,right,-1,0.95,0.35,24,-0.101429498,0.2174,,,,,,5,0,5,0,1,,,,,
,,096304,001,2023-07-24_20h59.10.091,arm3_q,2022.2.5,Win32,60.08532116,616a8502cf9f59ac63569662,64aeaab685a29f4ca249be02,64bec9bf6df71bddf4376772,right,-1,0.95,0.35,24,-0.104465491,0.1539,,,,,,6,0,6,0,1,,,,,
,,096304,001,2023-07-24_20h59.10.091,arm3_q,2022.2.5,Win32,60.08532116,616a8502cf9f59ac63569662,64aeaab685a29f4ca249be02,64bec9bf6df71bddf4376772,up,1,0.95,0.35,24,0,0.4307,,,,,,7,0,7,0,1,,,,,
,,096304,001,2023-07-24_20h59.10.091,arm3_q,2022.2.5,Win32,60.08532116,616a8502cf9f59ac63569662,64aeaab685a29f4ca249be02,64bec9bf6df71bddf4376772,right,1,0.95,0.35,24,0.037477786,0.243,,,,,,8,0,8,0,1,,,,,
,,096304,001,2023-07-24_20h59.10.091,arm3_q,2022.2.5,Win32,60.08532116,616a8502cf9f59ac63569662,64aeaab685a29f4ca249be02,64bec9bf6df71bddf4376772,right,1,0.95,0.35,24,0.076834415,0.214,,,,,,9,0,9,0,1,,,,,
,,096304,001,2023-07-24_20h59.10.091,arm3_q,2022.2.5,Win32,60.08532116,616a8502cf9f59ac63569662,64aeaab685a29f4ca249be02,64bec9bf6df71bddf4376772,right,1,0.95,0.35,24,0.106052135,0.1642,,,,,,10,0,10,0,1,,,,,
,,096304,001,2023-07-24_20h59.10.091,arm3_q,2022.2.5,Win32,60.08532116,616a8502cf9f59ac63569662,64aeaab685a29f4ca249be02,64bec9bf6df71bddf4376772,right,1,0.95,0.35,24,0.135945669,0.1378,,,,,,11,0,11,0,1,,,,,
,,096304,001,2023-07-24_20h59.10.091,arm3_q,2022.2.5,Win32,60.08532116,616a8502cf9f59ac63569662,64aeaab685a29f4ca249be02,64bec9bf6df71bddf4376772,right,1,0.95,0.35,24,0.168272707,0.1482,,,,,,12,0,12,0,1,,,,,
,,096304,001,2023-07-24_20h59.10.091,arm3_q,2022.2.5,Win32,60.08532116,616a8502cf9f59ac63569662,64aeaab685a29f4ca249be02,64bec9bf6df71bddf4376772,up,-1,0.95,0.35,25,0,0.1686,,,,,,13,0,13,0,1,,,,,
,,096304,001,2023-07-24_20h59.10.091,arm3_q,2022.2.5,Win32,60.08532116,616a8502cf9f59ac63569662,64aeaab685a29f4ca249be02,64bec9bf6df71bddf4376772,right,-1,0.95,0.35,25,-0.023323374,0.1993,,,,,,14,0,14,0,1,,,,,
,,096304,001,2023-07-24_20h59.10.091,arm3_q,2022.2.5,Win32,60.08532116,616a8502cf9f59ac63569662,64aeaab685a29f4ca249be02,64bec9bf6df71bddf4376772,right,-1,0.95,0.35,25,-0.039329579,0.1952,,,,,,15,0,15,0,1,,,,,
,,096304,001,2023-07-24_20h59.10.091,arm3_q,2022.2.5,Win32,60.08532116,616a8502cf9f59ac63569662,64aeaab685a29f4ca249be02,64bec9bf6df71bddf4376772,right,-1,0.95,0.35,25,-0.054198466,0.1479,,,,,,16,0,16,0,1,,,,,
,,096304,001,2023-07-24_20h59.10.091,arm3_q,2022.2.5,Win32,60.08532116,616a8502cf9f59ac63569662,64aeaab685a29f4ca249be02,64bec9bf6df71bddf4376772,right,-1,0.95,0.35,25,-0.05862736,0.1347,,,,,,17,0,17,0,1,,,,,
,,096304,001,2023-07-24_20h59.10.091,arm3_q,2022.2.5,Win32,60.08532116,616a8502cf9f59ac63569662,64aeaab685a29f4ca249be02,64bec9bf6df71bddf4376772,right,-1,0.95,0.35,25,-0.075436316,0.1381,,,,,,18,0,18,0,1,,,,,
,,096304,001,2023-07-24_20h59.10.091,arm3_q,2022.2.5,Win32,60.08532116,616a8502cf9f59ac63569662,64aeaab685a29f4ca249be02,64bec9bf6df71bddf4376772,right,-1,0.95,0.35,25,-0.098890957,0.2145,,,,,,19,0,19,0,1,,,,,
,,096304,001,2023-07-24_20h59.10.091,arm3_q,2022.2.5,Win32,60.08532116,616a8502cf9f59ac63569662,64aeaab685a29f4ca249be02,64bec9bf6df71bddf4376772,up,-1,0.95,0.35,24,0,0.3478,,,,,,20,0,20,0,1,,,,,
,,096304,001,2023-07-24_20h59.10.091,arm3_q,2022.2.5,Win32,60.08532116,616a8502cf9f59ac63569662,64aeaab685a29f4ca249be02,64bec9bf6df71bddf4376772,right,-1,0.95,0.35,24,0.020834651,0.6161,,,,,,21,0,21,0,1,,,,,
,,096304,001,2023-07-24_20h59.10.091,arm3_q,2022.2.5,Win32,60.08532116,616a8502cf9f59ac63569662,64aeaab685a29f4ca249be02,64bec9bf6df71bddf4376772,right,-1,0.95,0.35,24,-0.01487319,0.231,,,,,,22,0,22,0,1,,,,,
,,096304,001,2023-07-24_20h59.10.091,arm3_q,2022.2.5,Win32,60.08532116,616a8502cf9f59ac63569662,64aeaab685a29f4ca249be02,64bec9bf6df71bddf4376772,right,-1,0.95,0.35,24,-0.05051945,0.1666,,,,,,23,0,23,0,1,,,,,
,,096304,001,2023-07-24_20h59.10.091,arm3_q,2022.2.5,Win32,60.08532116,616a8502cf9f59ac63569662,64aeaab685a29f4ca249be02,64bec9bf6df71bddf4376772,right,-1,0.95,0.35,24,-0.056390481,0.1469,,,,,,24,0,24,0,1,,,,,
,,096304,001,2023-07-24_20h59.10.091,arm3_q,2022.2.5,Win32,60.08532116,616a8502cf9f59ac63569662,64aeaab685a29f4ca249be02,64bec9bf6df71bddf4376772,right,-1,0.95,0.35,24,-0.068638101,0.1165,,,,,,25,0,25,0,1,,,,,
,,096304,001,2023-07-24_20h59.10.091,arm3_q,2022.2.5,Win32,60.08532116,616a8502cf9f59ac63569662,64aeaab685a29f4ca249be02,64bec9bf6df71bddf4376772,right,-1,0.95,0.35,24,-0.095657628,0.1641,,,,,,26,0,26,0,1,,,,,
,,096304,001,2023-07-24_20h59.10.091,arm3_q,2022.2.5,Win32,60.08532116,616a8502cf9f59ac63569662,64aeaab685a29f4ca249be02,64bec9bf6df71bddf4376772,right,-1,0.95,0.35,24,-0.08645665,0.5481,,,,,,27,0,27,0,1,,,,,
,,096304,001,2023-07-24_20h59.10.091,arm3_q,2022.2.5,Win32,60.08532116,616a8502cf9f59ac63569662,64aeaab685a29f4ca249be02,64bec9bf6df71bddf4376772,down,-1,0.95,0.35,25,0,0.5473,,,,,,28,0,28,0,1,,,,,
,,096304,001,2023-07-24_20h59.10.091,arm3_q,2022.2.5,Win32,60.08532116,616a8502cf9f59ac63569662,64aeaab685a29f4ca249be02,64bec9bf6df71bddf4376772,right,-1,0.95,0.35,25,-0.014252832,0.2192,,,,,,29,0,29,0,1,,,,,
,,096304,001,2023-07-24_20h59.10.091,arm3_q,2022.2.5,Win32,60.08532116,616a8502cf9f59ac63569662,64aeaab685a29f4ca249be02,64bec9bf6df71bddf4376772,right,-1,0.95,0.35,25,-0.01572186,0.2011,,,,,,30,0,30,0,1,,,,,
,,096304,001,2023-07-24_20h59.10.091,arm3_q,2022.2.5,Win32,60.08532116,616a8502cf9f59ac63569662,64aeaab685a29f4ca249be02,64bec9bf6df71bddf4376772,right,-1,0.95,0.35,25,-0.02088845,0.1477,,,,,,31,0,31,0,1,,,,,
,,096304,001,2023-07-24_20h59.10.091,arm3_q,2022.2.5,Win32,60.08532116,616a8502cf9f59ac63569662,64aeaab685a29f4ca249be02,64bec9bf6df71bddf4376772,right,-1,0.95,0.35,25,-0.026656108,0.1645,,,,,,32,0,32,0,1,,,,,
,,096304,001,2023-07-24_20h59.10.091,arm3_q,2022.2.5,Win32,60.08532116,616a8502cf9f59ac63569662,64aeaab685a29f4ca249be02,64bec9bf6df71bddf4376772,right,-1,0.95,0.35,25,-0.035831025,0.118,,,,,,33,0,33,0,1,,,,,
,,096304,001,2023-07-24_20h59.10.091,arm3_q,2022.2.5,Win32,60.08532116,616a8502cf9f59ac63569662,64aeaab685a29f4ca249be02,64bec9bf6df71bddf4376772,right,-1,0.95,0.35,25,-0.062460693,0.1479,,,,,,34,0,34,0,1,,,,,
,,096304,001,2023-07-24_20h59.10.091,arm3_q,2022.2.5,Win32,60.08532116,616a8502cf9f59ac63569662,64aeaab685a29f4ca249be02,64bec9bf6df71bddf4376772,right,-1,0.95,0.35,25,-0.09731245,0.1477,,,,,,35,0,35,0,1,,,,,
,,096304,001,2023-07-24_20h59.10.091,arm3_q,2022.2.5,Win32,60.08532116,616a8502cf9f59ac63569662,64aeaab685a29f4ca249be02,64bec9bf6df71bddf4376772,right,-1,0.95,0.35,25,-0.097269363,0.15,,,,,,36,0,36,0,1,,,,,
,,096304,001,2023-07-24_20h59.10.091,arm3_q,2022.2.5,Win32,60.08532116,616a8502cf9f59ac63569662,64aeaab685a29f4ca249be02,64bec9bf6df71bddf4376772,down,-1,0.95,0.35,26,0,0.2636,,,,,,37,0,37,0,1,,,,,
,,096304,001,2023-07-24_20h59.10.091,arm3_q,2022.2.5,Win32,60.08532116,616a8502cf9f59ac63569662,64aeaab685a29f4ca249be02,64bec9bf6df71bddf4376772,right,-1,0.95,0.35,26,-0.033460017,0.1952,,,,,,38,0,38,0,1,,,,,
,,096304,001,2023-07-24_20h59.10.091,arm3_q,2022.2.5,Win32,60.08532116,616a8502cf9f59ac63569662,64aeaab685a29f4ca249be02,64bec9bf6df71bddf4376772,right,-1,0.95,0.35,26,-0.058067556,0.1856,,,,,,39,0,39,0,1,,,,,
,,096304,001,2023-07-24_20h59.10.091,arm3_q,2022.2.5,Win32,60.08532116,616a8502cf9f59ac63569662,64aeaab685a29f4ca249be02,64bec9bf6df71bddf4376772,right,-1,0.95,0.35,26,-0.05319037,0.1487,,,,,,40,0,40,0,1,,,,,
,,096304,001,2023-07-24_20h59.10.091,arm3_q,2022.2.5,Win32,60.08532116,616a8502cf9f59ac63569662,64aeaab685a29f4ca249be02,64bec9bf6df71bddf4376772,right,-1,0.95,0.35,26,-0.09319492,0.1493,,,,,,41,0,41,0,1,,,,,
