space_bar.keys,space_bar.rt,participant,session,date,expName,psychopyVersion,OS,frameRate,PROLIFIC_PID,STUDY_ID,SESSION_ID,resp.keys,state,q_prob,eps_prob,score,price,resp.rt,train.thisRepN,train.thisTrialN,train.thisN,train.thisIndex,train.ran,steps.thisRepN,steps.thisTrialN,steps.thisN,steps.thisIndex,steps.ran,blocks.thisRepN,blocks.thisTrialN,blocks.thisN,blocks.thisIndex,blocks.ran
space,16.6299,110530,001,2023-07-24_20h58.17.697,arm3_q,2022.2.5,Win32,60.09254252,605bb96c5facde74270615aa,64aeaab685a29f4ca249be02,64bec98a767a4dbcd71dc784,,,,,,,,,,,,,,,,,,,,,,
space,7.9199,110530,001,2023-07-24_20h58.17.697,arm3_q,2022.2.5,Win32,60.09254252,605bb96c5facde74270615aa,64aeaab685a29f4ca249be02,64bec98a767a4dbcd71dc784,,,,,,,,,,,,,,,,,,,,,,
space,10.7761,110530,001,2023-07-24_20h58.17.697,arm3_q,2022.2.5,Win32,60.09254252,605bb96c5facde74270615aa,64aeaab685a29f4ca249be02,64bec98a767a4dbcd71dc784,,,,,,,,,,,,,,,,,,,,,,
space,14.4036,110530,001,2023-07-24_20h58.17.697,arm3_q,2022.2.5,Win32,60.09254252,605bb96c5facde74270615aa,64aeaab685a29f4ca249be02,64bec98a767a4dbcd71dc784,,,,,,,,,,,,,,,,,,,,,,
space,18.6284,110530,001,2023-07-24_20h58.17.697,arm3_q,2022.2.5,Win32,60.09254252,605bb96c5facde74270615aa,64aeaab685a29f4ca249be02,64bec98a767a4dbcd71dc784,,,,,,,,,,,,,,,,,,,,,,
space,25.4837,110530,001,2023-07-24_20h58.17.697,arm3_q,2022.2.5,Win32,60.09254252,605bb96c5facde74270615aa,64aeaab685a29f4ca249be02,64bec98a767a4dbcd71dc784,,,,,,,,,,,,,,,,,,,,,,
space,21.9517,110530,001,2023-07-24_20h58.17.697,arm3_q,2022.2.5,Win32,60.09254252,605bb96c5facde74270615aa,64aeaab685a29f4ca249be02,64bec98a767a4dbcd71dc784,,,,,,,,,,,,,,,,,,,,,,
space,13.665,110530,001,2023-07-24_20h58.17.697,arm3_q,2022.2.5,Win32,60.09254252,605bb96c5facde74270615aa,64aeaab685a29f4ca249be02,64bec98a767a4dbcd71dc784,,,,,,,,,,,,,,,,,,,,,,
space,12.6504,110530,001,2023-07-24_20h58.17.697,arm3_q,2022.2.5,Win32,60.09254252,605bb96c5facde74270615aa,64aeaab685a29f4ca249be02,64bec98a767a4dbcd71dc784,,,,,,,,,,,,,,,,,,,,,,
space,6.0325,110530,001,2023-07-24_20h58.17.697,arm3_q,2022.2.5,Win32,60.09254252,605bb96c5facde74270615aa,64aeaab685a29f4ca249be02,64bec98a767a4dbcd71dc784,,,,,,,,,,,,,,,,,,,,,,
,,110530,001,2023-07-24_20h58.17.697,arm3_q,2022.2.5,Win32,60.09254252,605bb96c5facde74270615aa,64aeaab685a29f4ca249be02,64bec98a767a4dbcd71dc784,right,-1,0.5643,0.35,0,-0.013691883,2.2755,0,0,0,0,1,,,,,,,,,,
,,110530,001,2023-07-24_20h58.17.697,arm3_q,2022.2.5,Win32,60.09254252,605bb96c5facde74270615aa,64aeaab685a29f4ca249be02,64bec98a767a4dbcd71dc784,right,-1,0.5643,0.35,0,-0.003582986,3.1815,1,0,1,0,1,,,,,,,,,,
,,110530,001,2023-07-24_20h58.17.697,arm3_q,2022.2.5,Win32,60.09254252,605bb96c5facde74270615aa,64aeaab685a29f4ca249be02,64bec98a767a4dbcd71dc784,right,-1,0.5643,0.35,0,-0.013836952,2.8947,2,0,2,0,1,,,,,,,,,,
,,110530,001,2023-07-24_20h58.17.697,arm3_q,2022.2.5,Win32,60.09254252,605bb96c5facde74270615aa,64aeaab685a29f4ca249be02,64bec98a767a4dbcd71dc784,down,-1,0.5643,0.35,0,0,1.1101,3,0,3,0,1,,,,,,,,,,
,,110530,001,2023-07-24_20h58.17.697,arm3_q,2022.2.5,Win32,60.09254252,605bb96c5facde74270615aa,64aeaab685a29f4ca249be02,64bec98a767a4dbcd71dc784,right,-1,0.5643,0.35,0,-0.009498644,2.2494,4,0,4,0,1,,,,,,,,,,
,,110530,001,2023-07-24_20h58.17.697,arm3_q,2022.2.5,Win32,60.09254252,605bb96c5facde74270615aa,64aeaab685a29f4ca249be02,64bec98a767a4dbcd71dc784,right,-1,0.5643,0.35,0,0.005474704,2.4892,5,0,5,0,1,,,,,,,,,,
,,110530,001,2023-07-24_20h58.17.697,arm3_q,2022.2.5,Win32,60.09254252,605bb96c5facde74270615aa,64aeaab685a29f4ca249be02,64bec98a767a4dbcd71dc784,right,-1,0.5643,0.35,0,0.032128519,1.7794,6,0,6,0,1,,,,,,,,,,
,,110530,001,2023-07-24_20h58.17.697,arm3_q,2022.2.5,Win32,60.09254252,605bb96c5facde74270615aa,64aeaab685a29f4ca249be02,64bec98a767a4dbcd71dc784,right,-1,0.5643,0.35,0,0.035157292,3.5644,7,0,7,0,1,,,,,,,,,,
,,110530,001,2023-07-24_20h58.17.697,arm3_q,2022.2.5,Win32,60.09254252,605bb96c5facde74270615aa,64aeaab685a29f4ca249be02,64bec98a767a4dbcd71dc784,right,-1,0.5643,0.35,0,0.039125377,1.7706,8,0,8,0,1,,,,,,,,,,
,,110530,001,2023-07-24_20h58.17.697,arm3_q,2022.2.5,Win32,60.09254252,605bb96c5facde74270615aa,64aeaab685a29f4ca249be02,64bec98a767a4dbcd71dc784,right,-1,0.5643,0.35,0,0.033656843,2.9828,9,0,9,0,1,,,,,,,,,,
,,110530,001,2023-07-24_20h58.17.697,arm3_q,2022.2.5,Win32,60.09254252,605bb96c5facde74270615aa,64aeaab685a29f4ca249be02,64bec98a767a4dbcd71dc784,right,-1,0.5643,0.35,0,0.03462434,1.7328,10,0,10,0,1,,,,,,,,,,
,,110530,001,2023-07-24_20h58.17.697,arm3_q,2022.2.5,Win32,60.09254252,605bb96c5facde74270615aa,64aeaab685a29f4ca249be02,64bec98a767a4dbcd71dc784,up,-1,0.5643,0.35,-1,0,0.9502,11,0,11,0,1,,,,,,,,,,
,,110530,001,2023-07-24_20h58.17.697,arm3_q,2022.2.5,Win32,60.09254252,605bb96c5facde74270615aa,64aeaab685a29f4ca249be02,64bec98a767a4dbcd71dc784,right,-1,0.5643,0.35,-1,-0.012949264,4.8487,12,0,12,0,1,,,,,,,,,,
,,110530,001,2023-07-24_20h58.17.697,arm3_q,2022.2.5,Win32,60.09254252,605bb96c5facde74270615aa,64aeaab685a29f4ca249be02,64bec98a767a4dbcd71dc784,right,-1,0.5643,0.35,-1,-0.030019749,0.7839,13,0,13,0,1,,,,,,,,,,
,,110530,001,2023-07-24_20h58.17.697,arm3_q,2022.2.5,Win32,60.09254252,605bb96c5facde74270615aa,64aeaab685a29f4ca249be02,64bec98a767a4dbcd71dc784,right,-1,0.5643,0.35,-1,-0.053300832,0.4508,14,0,14,0,1,,,,,,,,,,
,,110530,001,2023-07-24_20h58.17.697,arm3_q,2022.2.5,Win32,60.09254252,605bb96c5facde74270615aa,64aeaab685a29f4ca249be02,64bec98a767a4dbcd71dc784,right,-1,0.5643,0.35,-1,-0.083029098,1.0749,15,0,15,0,1,,,,,,,,,,
,,110530,001,2023-07-24_20h58.17.697,arm3_q,2022.2.5,Win32,60.09254252,605bb96c5facde74270615aa,64aeaab685a29f4ca249be02,64bec98a767a4dbcd71dc784,right,-1,0.5643,0.35,-1,-0.117789186,0.7567,16,0,16,0,1,,,,,,,,,,
,,110530,001,2023-07-24_20h58.17.697,arm3_q,2022.2.5,Win32,60.09254252,605bb96c5facde74270615aa,64aeaab685a29f4ca249be02,64bec98a767a4dbcd71dc784,down,-1,0.5643,0.35,0,0,1.117,17,0,17,0,1,,,,,,,,,,
,,110530,001,2023-07-24_20h58.17.697,arm3_q,2022.2.5,Win32,60.09254252,605bb96c5facde74270615aa,64aeaab685a29f4ca249be02,64bec98a767a4dbcd71dc784,right,-1,0.5643,0.35,0,-0.004318031,2.4382,18,0,18,0,1,,,,,,,,,,
,,110530,001,2023-07-24_20h58.17.697,arm3_q,2022.2.5,Win32,60.09254252,605bb96c5facde74270615aa,64aeaab685a29f4ca249be02,64bec98a767a4dbcd71dc784,right,-1,0.5643,0.35,0,-0.023229307,1.4545,19,0,19,0,1,,,,,,,,,,
,,110530,001,2023-07-24_20h58.17.697,arm3_q,2022.2.5,Win32,60.09254252,605bb96c5facde74270615aa,64aeaab685a29f4ca249be02,64bec98a767a4dbcd71dc784,right,-1,0.5643,0.35,0,-0.021492406,0.7841,20,0,20,0,1,,,,,,,,,,
,,110530,001,2023-07-24_20h58.17.697,arm3_q,2022.2.5,Win32,60.09254252,605bb96c5facde74270615aa,64aeaab685a29f4ca249be02,64bec98a767a4dbcd71dc784,right,-1,0.5643,0.35,0,-0.035450457,1.5663,21,0,21,0,1,,,,,,,,,,
,,110530,001,2023-07-24_20h58.17.697,arm3_q,2022.2.5,Win32,60.09254252,605bb96c5facde74270615aa,64aeaab685a29f4ca249be02,64bec98a767a4dbcd71dc784,right,-1,0.5643,0.35,0,-0.029215206,0.7007,22,0,22,0,1,,,,,,,,,,
,,110530,001,2023-07-24_20h58.17.697,arm3_q,2022.2.5,Win32,60.09254252,605bb96c5facde74270615aa,64aeaab685a29f4ca249be02,64bec98a767a4dbcd71dc784,right,-1,0.5643,0.35,0,-0.057995103,0.9676,23,0,23,0,1,,,,,,,,,,
,,110530,001,2023-07-24_20h58.17.697,arm3_q,2022.2.5,Win32,60.09254252,605bb96c5facde74270615aa,64aeaab685a29f4ca249be02,64bec98a767a4dbcd71dc784,right,-1,0.5643,0.35,0,-0.080920297,0.5163,24,0,24,0,1,,,,,,,,,,
,,110530,001,2023-07-24_20h58.17.697,arm3_q,2022.2.5,Win32,60.09254252,605bb96c5facde74270615aa,64aeaab685a29f4ca249be02,64bec98a767a4dbcd71dc784,down,-1,0.5643,0.35,0,0,0.6029,25,0,25,0,1,,,,,,,,,,
,,110530,001,2023-07-24_20h58.17.697,arm3_q,2022.2.5,Win32,60.09254252,605bb96c5facde74270615aa,64aeaab685a29f4ca249be02,64bec98a767a4dbcd71dc784,right,-1,0.5643,0.35,0,0.004606762,3.9994,26,0,26,0,1,,,,,,,,,,
,,110530,001,2023-07-24_20h58.17.697,arm3_q,2022.2.5,Win32,60.09254252,605bb96c5facde74270615aa,64aeaab685a29f4ca249be02,64bec98a767a4dbcd71dc784,right,-1,0.5643,0.35,0,-0.025083846,0.5239,27,0,27,0,1,,,,,,,,,,
,,110530,001,2023-07-24_20h58.17.697,arm3_q,2022.2.5,Win32,60.09254252,605bb96c5facde74270615aa,64aeaab685a29f4ca249be02,64bec98a767a4dbcd71dc784,right,-1,0.5643,0.35,0,-0.06217014,0.5173,28,0,28,0,1,,,,,,,,,,
,,110530,001,2023-07-24_20h58.17.697,arm3_q,2022.2.5,Win32,60.09254252,605bb96c5facde74270615aa,64aeaab685a29f4ca249be02,64bec98a767a4dbcd71dc784,right,-1,0.5643,0.35,0,-0.053137179,0.6827,29,0,29,0,1,,,,,,,,,,
,,110530,001,2023-07-24_20h58.17.697,arm3_q,2022.2.5,Win32,60.09254252,605bb96c5facde74270615aa,64aeaab685a29f4ca249be02,64bec98a767a4dbcd71dc784,right,-1,0.5643,0.35,0,-0.046928578,1.2058,30,0,30,0,1,,,,,,,,,,
,,110530,001,2023-07-24_20h58.17.697,arm3_q,2022.2.5,Win32,60.09254252,605bb96c5facde74270615aa,64aeaab685a29f4ca249be02,64bec98a767a4dbcd71dc784,right,-1,0.5643,0.35,0,-0.0543841,0.8332,31,0,31,0,1,,,,,,,,,,
,,110530,001,2023-07-24_20h58.17.697,arm3_q,2022.2.5,Win32,60.09254252,605bb96c5facde74270615aa,64aeaab685a29f4ca249be02,64bec98a767a4dbcd71dc784,right,-1,0.5643,0.35,0,-0.056042243,1.4705,32,0,32,0,1,,,,,,,,,,
,,110530,001,2023-07-24_20h58.17.697,arm3_q,2022.2.5,Win32,60.09254252,605bb96c5facde74270615aa,64aeaab685a29f4ca249be02,64bec98a767a4dbcd71dc784,right,-1,0.5643,0.35,0,-0.043587288,0.9879,33,0,33,0,1,,,,,,,,,,
,,110530,001,2023-07-24_20h58.17.697,arm3_q,2022.2.5,Win32,60.09254252,605bb96c5facde74270615aa,64aeaab685a29f4ca249be02,64bec98a767a4dbcd71dc784,down,1,0.5643,0.35,1,0,0.8553,34,0,34,0,1,,,,,,,,,,
,,110530,001,2023-07-24_20h58.17.697,arm3_q,2022.2.5,Win32,60.09254252,605bb96c5facde74270615aa,64aeaab685a29f4ca249be02,64bec98a767a4dbcd71dc784,right,1,0.5643,0.35,1,0.036601888,7.174,35,0,35,0,1,,,,,,,,,,
,,110530,001,2023-07-24_20h58.17.697,arm3_q,2022.2.5,Win32,60.09254252,605bb96c5facde74270615aa,64aeaab685a29f4ca249be02,64bec98a767a4dbcd71dc784,right,1,0.5643,0.35,1,0.045715098,1.5328,36,0,36,0,1,,,,,,,,,,
,,110530,001,2023-07-24_20h58.17.697,arm3_q,2022.2.5,Win32,60.09254252,605bb96c5facde74270615aa,64aeaab685a29f4ca249be02,64bec98a767a4dbcd71dc784,right,1,0.5643,0.35,1,0.061552474,1.4662,37,0,37,0,1,,,,,,,,,,
,,110530,001,2023-07-24_20h58.17.697,arm3_q,2022.2.5,Win32,60.09254252,605bb96c5facde74270615aa,64aeaab685a29f4ca249be02,64bec98a767a4dbcd71dc784,right,1,0.5643,0.35,1,0.10438114,0.8998,38,0,38,0,1,,,,,,,,,,
,,110530,001,2023-07-24_20h58.17.697,arm3_q,2022.2.5,Win32,60.09254252,605bb96c5facde74270615aa,64aeaab685a29f4ca249be02,64bec98a767a4dbcd71dc784,up,1,0.5643,0.35,2,0,0.5553,39,0,39,0,1,,,,,,,,,,
,,110530,001,2023-07-24_20h58.17.697,arm3_q,2022.2.5,Win32,60.09254252,605bb96c5facde74270615aa,64aeaab685a29f4ca249be02,64bec98a767a4dbcd71dc784,right,1,0.5643,0.35,2,0.035208795,4.0346,40,0,40,0,1,,,,,,,,,,
,,110530,001,2023-07-24_20h58.17.697,arm3_q,2022.2.5,Win32,60.09254252,605bb96c5facde74270615aa,64aeaab685a29f4ca249be02,64bec98a767a4dbcd71dc784,right,1,0.5643,0.35,2,0.033588271,1.0578,41,0,41,0,1,,,,,,,,,,
,,110530,001,2023-07-24_20h58.17.697,arm3_q,2022.2.5,Win32,60.09254252,605bb96c5facde74270615aa,64aeaab685a29f4ca249be02,64bec98a767a4dbcd71dc784,right,1,0.5643,0.35,2,0.019733388,1.0295,42,0,42,0,1,,,,,,,,,,
,,110530,001,2023-07-24_20h58.17.697,arm3_q,2022.2.5,Win32,60.09254252,605bb96c5facde74270615aa,64aeaab685a29f4ca249be02,64bec98a767a4dbcd71dc784,up,-1,0.5643,0.35,2,0,1.0212,43,0,43,0,1,,,,,,,,,,
,,110530,001,2023-07-24_20h58.17.697,arm3_q,2022.2.5,Win32,60.09254252,605bb96c5facde74270615aa,64aeaab685a29f4ca249be02,64bec98a767a4dbcd71dc784,right,-1,0.5643,0.35,2,-0.031586671,2.5622,44,0,44,0,1,,,,,,,,,,
,,110530,001,2023-07-24_20h58.17.697,arm3_q,2022.2.5,Win32,60.09254252,605bb96c5facde74270615aa,64aeaab685a29f4ca249be02,64bec98a767a4dbcd71dc784,right,-1,0.5643,0.35,2,-0.045461594,0.973,45,0,45,0,1,,,,,,,,,,
,,110530,001,2023-07-24_20h58.17.697,arm3_q,2022.2.5,Win32,60.09254252,605bb96c5facde74270615aa,64aeaab685a29f4ca249be02,64bec98a767a4dbcd71dc784,down,-1,0.5643,0.35,2,0,1.6563,46,0,46,0,1,,,,,,,,,,
,,110530,001,2023-07-24_20h58.17.697,arm3_q,2022.2.5,Win32,60.09254252,605bb96c5facde74270615aa,64aeaab685a29f4ca249be02,64bec98a767a4dbcd71dc784,right,-1,0.5643,0.35,2,-0.021462775,3.9878,47,0,47,0,1,,,,,,,,,,
,,110530,001,2023-07-24_20h58.17.697,arm3_q,2022.2.5,Win32,60.09254252,605bb96c5facde74270615aa,64aeaab685a29f4ca249be02,64bec98a767a4dbcd71dc784,right,-1,0.5643,0.35,2,-0.052847589,1.095,48,0,48,0,1,,,,,,,,,,
,,110530,001,2023-07-24_20h58.17.697,arm3_q,2022.2.5,Win32,60.09254252,605bb96c5facde74270615aa,64aeaab685a29f4ca249be02,64bec98a767a4dbcd71dc784,down,-1,0.5643,0.35,2,-0.052847589,2.4156,49,0,49,0,1,,,,,,,,,,
space,2.4289,110530,001,2023-07-24_20h58.17.697,arm3_q,2022.2.5,Win32,60.09254252,605bb96c5facde74270615aa,64aeaab685a29f4ca249be02,64bec98a767a4dbcd71dc784,,,,,,,,,,,,,,,,,,,,,,
space,3.2121,110530,001,2023-07-24_20h58.17.697,arm3_q,2022.2.5,Win32,60.09254252,605bb96c5facde74270615aa,64aeaab685a29f4ca249be02,64bec98a767a4dbcd71dc784,right,-1,0.6929,0.35,0,0.028105621,3.6755,,,,,,0,0,0,0,1,,,,,
,,110530,001,2023-07-24_20h58.17.697,arm3_q,2022.2.5,Win32,60.09254252,605bb96c5facde74270615aa,64aeaab685a29f4ca249be02,64bec98a767a4dbcd71dc784,right,-1,0.6929,0.35,0,0.051076577,1.4962,,,,,,1,0,1,0,1,,,,,
,,110530,001,2023-07-24_20h58.17.697,arm3_q,2022.2.5,Win32,60.09254252,605bb96c5facde74270615aa,64aeaab685a29f4ca249be02,64bec98a767a4dbcd71dc784,right,-1,0.6929,0.35,0,0.064271253,1.2626,,,,,,2,0,2,0,1,,,,,
,,110530,001,2023-07-24_20h58.17.697,arm3_q,2022.2.5,Win32,60.09254252,605bb96c5facde74270615aa,64aeaab685a29f4ca249be02,64bec98a767a4dbcd71dc784,right,-1,0.6929,0.35,0,0.041911402,1.5552,,,,,,3,0,3,0,1,,,,,
,,110530,001,2023-07-24_20h58.17.697,arm3_q,2022.2.5,Win32,60.09254252,605bb96c5facde74270615aa,64aeaab685a29f4ca249be02,64bec98a767a4dbcd71dc784,right,-1,0.6929,0.35,0,0.017353601,0.9126,,,,,,4,0,4,0,1,,,,,
,,110530,001,2023-07-24_20h58.17.697,arm3_q,2022.2.5,Win32,60.09254252,605bb96c5facde74270615aa,64aeaab685a29f4ca249be02,64bec98a767a4dbcd71dc784,right,-1,0.6929,0.35,0,0.009689113,1.2325,,,,,,5,0,5,0,1,,,,,
,,110530,001,2023-07-24_20h58.17.697,arm3_q,2022.2.5,Win32,60.09254252,605bb96c5facde74270615aa,64aeaab685a29f4ca249be02,64bec98a767a4dbcd71dc784,right,-1,0.6929,0.35,0,-0.00941174,1.3325,,,,,,6,0,6,0,1,,,,,
,,110530,001,2023-07-24_20h58.17.697,arm3_q,2022.2.5,Win32,60.09254252,605bb96c5facde74270615aa,64aeaab685a29f4ca249be02,64bec98a767a4dbcd71dc784,right,-1,0.6929,0.35,0,9.60034E-06,10.5956,,,,,,7,0,7,0,1,,,,,
,,110530,001,2023-07-24_20h58.17.697,arm3_q,2022.2.5,Win32,60.09254252,605bb96c5facde74270615aa,64aeaab685a29f4ca249be02,64bec98a767a4dbcd71dc784,right,-1,0.6929,0.35,0,-0.026410035,5.4633,,,,,,8,0,8,0,1,,,,,
,,110530,001,2023-07-24_20h58.17.697,arm3_q,2022.2.5,Win32,60.09254252,605bb96c5facde74270615aa,64aeaab685a29f4ca249be02,64bec98a767a4dbcd71dc784,down,-1,0.6929,0.35,1,0,1.9438,,,,,,9,0,9,0,1,,,,,
,,110530,001,2023-07-24_20h58.17.697,arm3_q,2022.2.5,Win32,60.09254252,605bb96c5facde74270615aa,64aeaab685a29f4ca249be02,64bec98a767a4dbcd71dc784,right,-1,0.6929,0.35,1,-0.040347089,1.6426,,,,,,10,0,10,0,1,,,,,
,,110530,001,2023-07-24_20h58.17.697,arm3_q,2022.2.5,Win32,60.09254252,605bb96c5facde74270615aa,64aeaab685a29f4ca249be02,64bec98a767a4dbcd71dc784,right,-1,0.6929,0.35,1,-0.011499155,3.3135,,,,,,11,0,11,0,1,,,,,
,,110530,001,2023-07-24_20h58.17.697,arm3_q,2022.2.5,Win32,60.09254252,605bb96c5facde74270615aa,64aeaab685a29f4ca249be02,64bec98a767a4dbcd71dc784,right,-1,0.6929,0.35,1,0.017107635,1.627,,,,,,12,0,12,0,1,,,,,
,,110530,001,2023-07-24_20h58.17.697,arm3_q,2022.2.5,Win32,60.09254252,605bb96c5facde74270615aa,64aeaab685a29f4ca249be02,64bec98a767a4dbcd71dc784,right,-1,0.6929,0.35,1,0.002167244,2.8336,,,,,,13,0,13,0,1,,,,,
,,110530,001,2023-07-24_20h58.17.697,arm3_q,2022.2.5,Win32,60.09254252,605bb96c5facde74270615aa,64aeaab685a29f4ca249be02,64bec98a767a4dbcd71dc784,right,-1,0.6929,0.35,1,0.01570505,3.7282,,,,,,14,0,14,0,1,,,,,
,,110530,001,2023-07-24_20h58.17.697,arm3_q,2022.2.5,Win32,60.09254252,605bb96c5facde74270615aa,64aeaab685a29f4ca249be02,64bec98a767a4dbcd71dc784,right,-1,0.6929,0.35,1,-0.030762369,1.6973,,,,,,15,0,15,0,1,,,,,
,,110530,001,2023-07-24_20h58.17.697,arm3_q,2022.2.5,Win32,60.09254252,605bb96c5facde74270615aa,64aeaab685a29f4ca249be02,64bec98a767a4dbcd71dc784,right,-1,0.6929,0.35,1,-0.036371701,1.3368,,,,,,16,0,16,0,1,,,,,
,,110530,001,2023-07-24_20h58.17.697,arm3_q,2022.2.5,Win32,60.09254252,605bb96c5facde74270615aa,64aeaab685a29f4ca249be02,64bec98a767a4dbcd71dc784,right,-1,0.6929,0.35,1,-0.052953655,1.4493,,,,,,17,0,17,0,1,,,,,
,,110530,001,2023-07-24_20h58.17.697,arm3_q,2022.2.5,Win32,60.09254252,605bb96c5facde74270615aa,64aeaab685a29f4ca249be02,64bec98a767a4dbcd71dc784,down,-1,0.6929,0.35,2,0,1.2494,,,,,,18,0,18,0,1,,,,,
,,110530,001,2023-07-24_20h58.17.697,arm3_q,2022.2.5,Win32,60.09254252,605bb96c5facde74270615aa,64aeaab685a29f4ca249be02,64bec98a767a4dbcd71dc784,right,-1,0.6929,0.35,2,-0.009654464,1.4834,,,,,,19,0,19,0,1,,,,,
,,110530,001,2023-07-24_20h58.17.697,arm3_q,2022.2.5,Win32,60.09254252,605bb96c5facde74270615aa,64aeaab685a29f4ca249be02,64bec98a767a4dbcd71dc784,right,-1,0.6929,0.35,2,-0.023188419,0.8967,,,,,,20,0,20,0,1,,,,,
,,110530,001,2023-07-24_20h58.17.697,arm3_q,2022.2.5,Win32,60.09254252,605bb96c5facde74270615aa,64aeaab685a29f4ca249be02,64bec98a767a4dbcd71dc784,right,-1,0.6929,0.35,2,-0.026526534,0.9674,,,,,,21,0,21,0,1,,,,,
,,110530,001,2023-07-24_20h58.17.697,arm3_q,2022.2.5,Win32,60.09254252,605bb96c5facde74270615aa,64aeaab685a29f4ca249be02,64bec98a767a4dbcd71dc784,right,-1,0.6929,0.35,2,-0.026571765,0.9625,,,,,,22,0,22,0,1,,,,,
,,110530,001,2023-07-24_20h58.17.697,arm3_q,2022.2.5,Win32,60.09254252,605bb96c5facde74270615aa,64aeaab685a29f4ca249be02,64bec98a767a4dbcd71dc784,right,-1,0.6929,0.35,2,-0.031151429,1.453,,,,,,23,0,23,0,1,,,,,
,,110530,001,2023-07-24_20h58.17.697,arm3_q,2022.2.5,Win32,60.09254252,605bb96c5facde74270615aa,64aeaab685a29f4ca249be02,64bec98a767a4dbcd71dc784,right,-1,0.6929,0.35,2,-0.035854678,1.2657,,,,,,24,0,24,0,1,,,,,
,,110530,001,2023-07-24_20h58.17.697,arm3_q,2022.2.5,Win32,60.09254252,605bb96c5facde74270615aa,64aeaab685a29f4ca249be02,64bec98a767a4dbcd71dc784,right,-1,0.6929,0.35,2,-0.042314572,0.8034,,,,,,25,0,25,0,1,,,,,
,,110530,001,2023-07-24_20h58.17.697,arm3_q,2022.2.5,Win32,60.09254252,605bb96c5facde74270615aa,64aeaab685a29f4ca249be02,64bec98a767a4dbcd71dc784,right,-1,0.6929,0.35,2,-0.041550458,0.866,,,,,,26,0,26,0,1,,,,,
,,110530,001,2023-07-24_20h58.17.697,arm3_q,2022.2.5,Win32,60.09254252,605bb96c5facde74270615aa,64aeaab685a29f4ca249be02,64bec98a767a4dbcd71dc784,down,-1,0.6929,0.35,2,0,0.7652,,,,,,27,0,27,0,1,,,,,
,,110530,001,2023-07-24_20h58.17.697,arm3_q,2022.2.5,Win32,60.09254252,605bb96c5facde74270615aa,64aeaab685a29f4ca249be02,64bec98a767a4dbcd71dc784,right,-1,0.6929,0.35,2,0.004809582,2.128,,,,,,28,0,28,0,1,,,,,
,,110530,001,2023-07-24_20h58.17.697,arm3_q,2022.2.5,Win32,60.09254252,605bb96c5facde74270615aa,64aeaab685a29f4ca249be02,64bec98a767a4dbcd71dc784,right,-1,0.6929,0.35,2,0.011680293,0.6377,,,,,,29,0,29,0,1,,,,,
,,110530,001,2023-07-24_20h58.17.697,arm3_q,2022.2.5,Win32,60.09254252,605bb96c5facde74270615aa,64aeaab685a29f4ca249be02,64bec98a767a4dbcd71dc784,right,-1,0.6929,0.35,2,0.013067235,0.8825,,,,,,30,0,30,0,1,,,,,
,,110530,001,2023-07-24_20h58.17.697,arm3_q,2022.2.5,Win32,60.09254252,605bb96c5facde74270615aa,64aeaab685a29f4ca249be02,64bec98a767a4dbcd71dc784,right,-1,0.6929,0.35,2,-0.001601467,0.8826,,,,,,31,0,31,0,1,,,,,
,,110530,001,2023-07-24_20h58.17.697,arm3_q,2022.2.5,Win32,60.09254252,605bb96c5facde74270615aa,64aeaab685a29f4ca249be02,64bec98a767a4dbcd71dc784,right,-1,0.6929,0.35,2,-0.021463863,0.5227,,,,,,32,0,32,0,1,,,,,
,,110530,001,2023-07-24_20h58.17.697,arm3_q,2022.2.5,Win32,60.09254252,605bb96c5facde74270615aa,64aeaab685a29f4ca249be02,64bec98a767a4dbcd71dc784,right,-1,0.6929,0.35,2,-0.037502307,0.4185,,,,,,33,0,33,0,1,,,,,
,,110530,001,2023-07-24_20h58.17.697,arm3_q,2022.2.5,Win32,60.09254252,605bb96c5facde74270615aa,64aeaab685a29f4ca249be02,64bec98a767a4dbcd71dc784,right,-1,0.6929,0.35,2,-0.021012839,0.6073,,,,,,34,0,34,0,1,,,,,
,,110530,001,2023-07-24_20h58.17.697,arm3_q,2022.2.5,Win32,60.09254252,605bb96c5facde74270615aa,64aeaab685a29f4ca249be02,64bec98a767a4dbcd71dc784,right,-1,0.6929,0.35,2,-0.024635334,0.5329,,,,,,35,0,35,0,1,,,,,
,,110530,001,2023-07-24_20h58.17.697,arm3_q,2022.2.5,Win32,60.09254252,605bb96c5facde74270615aa,64aeaab685a29f4ca249be02,64bec98a767a4dbcd71dc784,right,-1,0.6929,0.35,2,-0.015846971,0.6046,,,,,,36,0,36,0,1,,,,,
,,110530,001,2023-07-24_20h58.17.697,arm3_q,2022.2.5,Win32,60.09254252,605bb96c5facde74270615aa,64aeaab685a29f4ca249be02,64bec98a767a4dbcd71dc784,right,-1,0.6929,0.35,2,-0.031379259,0.8514,,,,,,37,0,37,0,1,,,,,
,,110530,001,2023-07-24_20h58.17.697,arm3_q,2022.2.5,Win32,60.09254252,605bb96c5facde74270615aa,64aeaab685a29f4ca249be02,64bec98a767a4dbcd71dc784,right,-1,0.6929,0.35,2,-0.047042077,1.0405,,,,,,38,0,38,0,1,,,,,
,,110530,001,2023-07-24_20h58.17.697,arm3_q,2022.2.5,Win32,60.09254252,605bb96c5facde74270615aa,64aeaab685a29f4ca249be02,64bec98a767a4dbcd71dc784,right,-1,0.6929,0.35,2,-0.024777746,0.8901,,,,,,39,0,39,0,1,,,,,
,,110530,001,2023-07-24_20h58.17.697,arm3_q,2022.2.5,Win32,60.09254252,605bb96c5facde74270615aa,64aeaab685a29f4ca249be02,64bec98a767a4dbcd71dc784,down,-1,0.6929,0.35,3,0,0.9568,,,,,,40,0,40,0,1,,,,,
,,110530,001,2023-07-24_20h58.17.697,arm3_q,2022.2.5,Win32,60.09254252,605bb96c5facde74270615aa,64aeaab685a29f4ca249be02,64bec98a767a4dbcd71dc784,right,-1,0.6929,0.35,3,-0.016218382,1.933,,,,,,41,0,41,0,1,,,,,
,,110530,001,2023-07-24_20h58.17.697,arm3_q,2022.2.5,Win32,60.09254252,605bb96c5facde74270615aa,64aeaab685a29f4ca249be02,64bec98a767a4dbcd71dc784,right,-1,0.6929,0.35,3,-0.034691241,0.4552,,,,,,42,0,42,0,1,,,,,
,,110530,001,2023-07-24_20h58.17.697,arm3_q,2022.2.5,Win32,60.09254252,605bb96c5facde74270615aa,64aeaab685a29f4ca249be02,64bec98a767a4dbcd71dc784,right,-1,0.6929,0.35,3,-0.029905101,0.5001,,,,,,43,0,43,0,1,,,,,
,,110530,001,2023-07-24_20h58.17.697,arm3_q,2022.2.5,Win32,60.09254252,605bb96c5facde74270615aa,64aeaab685a29f4ca249be02,64bec98a767a4dbcd71dc784,right,-1,0.6929,0.35,3,-0.066995882,0.7382,,,,,,44,0,44,0,1,,,,,
,,110530,001,2023-07-24_20h58.17.697,arm3_q,2022.2.5,Win32,60.09254252,605bb96c5facde74270615aa,64aeaab685a29f4ca249be02,64bec98a767a4dbcd71dc784,right,-1,0.6929,0.35,3,-0.067860687,0.4331,,,,,,45,0,45,0,1,,,,,
,,110530,001,2023-07-24_20h58.17.697,arm3_q,2022.2.5,Win32,60.09254252,605bb96c5facde74270615aa,64aeaab685a29f4ca249be02,64bec98a767a4dbcd71dc784,down,-1,0.6929,0.35,3,0,1.3689,,,,,,46,0,46,0,1,,,,,
,,110530,001,2023-07-24_20h58.17.697,arm3_q,2022.2.5,Win32,60.09254252,605bb96c5facde74270615aa,64aeaab685a29f4ca249be02,64bec98a767a4dbcd71dc784,right,-1,0.6929,0.35,3,-0.062135153,4.0162,,,,,,47,0,47,0,1,,,,,
,,110530,001,2023-07-24_20h58.17.697,arm3_q,2022.2.5,Win32,60.09254252,605bb96c5facde74270615aa,64aeaab685a29f4ca249be02,64bec98a767a4dbcd71dc784,right,-1,0.6929,0.35,3,-0.035702292,0.5837,,,,,,48,0,48,0,1,,,,,
,,110530,001,2023-07-24_20h58.17.697,arm3_q,2022.2.5,Win32,60.09254252,605bb96c5facde74270615aa,64aeaab685a29f4ca249be02,64bec98a767a4dbcd71dc784,right,-1,0.6929,0.35,3,-0.046473882,0.6171,,,,,,49,0,49,0,1,,,,,
,,110530,001,2023-07-24_20h58.17.697,arm3_q,2022.2.5,Win32,60.09254252,605bb96c5facde74270615aa,64aeaab685a29f4ca249be02,64bec98a767a4dbcd71dc784,right,-1,0.6929,0.35,3,-0.07345859,0.6839,,,,,,50,0,50,0,1,,,,,
,,110530,001,2023-07-24_20h58.17.697,arm3_q,2022.2.5,Win32,60.09254252,605bb96c5facde74270615aa,64aeaab685a29f4ca249be02,64bec98a767a4dbcd71dc784,right,-1,0.6929,0.35,3,-0.066664311,0.5705,,,,,,51,0,51,0,1,,,,,
,,110530,001,2023-07-24_20h58.17.697,arm3_q,2022.2.5,Win32,60.09254252,605bb96c5facde74270615aa,64aeaab685a29f4ca249be02,64bec98a767a4dbcd71dc784,right,-1,0.6929,0.35,3,-0.075498023,0.6672,,,,,,52,0,52,0,1,,,,,
,,110530,001,2023-07-24_20h58.17.697,arm3_q,2022.2.5,Win32,60.09254252,605bb96c5facde74270615aa,64aeaab685a29f4ca249be02,64bec98a767a4dbcd71dc784,right,-1,0.6929,0.35,3,-0.059266285,0.6333,,,,,,53,0,53,0,1,,,,,
,,110530,001,2023-07-24_20h58.17.697,arm3_q,2022.2.5,Win32,60.09254252,605bb96c5facde74270615aa,64aeaab685a29f4ca249be02,64bec98a767a4dbcd71dc784,right,-1,0.6929,0.35,3,-0.055332143,1.0168,,,,,,54,0,54,0,1,,,,,
,,110530,001,2023-07-24_20h58.17.697,arm3_q,2022.2.5,Win32,60.09254252,605bb96c5facde74270615aa,64aeaab685a29f4ca249be02,64bec98a767a4dbcd71dc784,right,-1,0.6929,0.35,3,-0.072024833,1.1646,,,,,,55,0,55,0,1,,,,,
,,110530,001,2023-07-24_20h58.17.697,arm3_q,2022.2.5,Win32,60.09254252,605bb96c5facde74270615aa,64aeaab685a29f4ca249be02,64bec98a767a4dbcd71dc784,right,-1,0.6929,0.35,3,-0.059285842,0.5499,,,,,,56,0,56,0,1,,,,,
,,110530,001,2023-07-24_20h58.17.697,arm3_q,2022.2.5,Win32,60.09254252,605bb96c5facde74270615aa,64aeaab685a29f4ca249be02,64bec98a767a4dbcd71dc784,right,-1,0.6929,0.35,3,-0.054419786,0.5841,,,,,,57,0,57,0,1,,,,,
,,110530,001,2023-07-24_20h58.17.697,arm3_q,2022.2.5,Win32,60.09254252,605bb96c5facde74270615aa,64aeaab685a29f4ca249be02,64bec98a767a4dbcd71dc784,down,-1,0.6929,0.35,3,0,0.6667,,,,,,58,0,58,0,1,,,,,
,,110530,001,2023-07-24_20h58.17.697,arm3_q,2022.2.5,Win32,60.09254252,605bb96c5facde74270615aa,64aeaab685a29f4ca249be02,64bec98a767a4dbcd71dc784,right,-1,0.6929,0.35,3,-0.026650576,1.4033,,,,,,59,0,59,0,1,,,,,
,,110530,001,2023-07-24_20h58.17.697,arm3_q,2022.2.5,Win32,60.09254252,605bb96c5facde74270615aa,64aeaab685a29f4ca249be02,64bec98a767a4dbcd71dc784,right,-1,0.6929,0.35,3,-0.050395117,0.6169,,,,,,60,0,60,0,1,,,,,
,,110530,001,2023-07-24_20h58.17.697,arm3_q,2022.2.5,Win32,60.09254252,605bb96c5facde74270615aa,64aeaab685a29f4ca249be02,64bec98a767a4dbcd71dc784,right,-1,0.6929,0.35,3,-0.06518987,1.2258,,,,,,61,0,61,0,1,,,,,
,,110530,001,2023-07-24_20h58.17.697,arm3_q,2022.2.5,Win32,60.09254252,605bb96c5facde74270615aa,64aeaab685a29f4ca249be02,64bec98a767a4dbcd71dc784,right,-1,0.6929,0.35,3,-0.068897834,0.9669,,,,,,62,0,62,0,1,,,,,
,,110530,001,2023-07-24_20h58.17.697,arm3_q,2022.2.5,Win32,60.09254252,605bb96c5facde74270615aa,64aeaab685a29f4ca249be02,64bec98a767a4dbcd71dc784,right,-1,0.6929,0.35,3,-0.078944311,1.0502,,,,,,63,0,63,0,1,,,,,
,,110530,001,2023-07-24_20h58.17.697,arm3_q,2022.2.5,Win32,60.09254252,605bb96c5facde74270615aa,64aeaab685a29f4ca249be02,64bec98a767a4dbcd71dc784,right,-1,0.6929,0.35,3,-0.088949518,1.203,,,,,,64,0,64,0,1,,,,,
,,110530,001,2023-07-24_20h58.17.697,arm3_q,2022.2.5,Win32,60.09254252,605bb96c5facde74270615aa,64aeaab685a29f4ca249be02,64bec98a767a4dbcd71dc784,right,-1,0.6929,0.35,3,-0.099860179,0.9677,,,,,,65,0,65,0,1,,,,,
,,110530,001,2023-07-24_20h58.17.697,arm3_q,2022.2.5,Win32,60.09254252,605bb96c5facde74270615aa,64aeaab685a29f4ca249be02,64bec98a767a4dbcd71dc784,down,-1,0.6929,0.35,3,0,0.5994,,,,,,66,0,66,0,1,,,,,
,,110530,001,2023-07-24_20h58.17.697,arm3_q,2022.2.5,Win32,60.09254252,605bb96c5facde74270615aa,64aeaab685a29f4ca249be02,64bec98a767a4dbcd71dc784,right,-1,0.6929,0.35,3,-0.003066473,0.9001,,,,,,67,0,67,0,1,,,,,
,,110530,001,2023-07-24_20h58.17.697,arm3_q,2022.2.5,Win32,60.09254252,605bb96c5facde74270615aa,64aeaab685a29f4ca249be02,64bec98a767a4dbcd71dc784,right,-1,0.6929,0.35,3,-0.002987646,0.5513,,,,,,68,0,68,0,1,,,,,
,,110530,001,2023-07-24_20h58.17.697,arm3_q,2022.2.5,Win32,60.09254252,605bb96c5facde74270615aa,64aeaab685a29f4ca249be02,64bec98a767a4dbcd71dc784,right,-1,0.6929,0.35,3,0.006588625,0.4508,,,,,,69,0,69,0,1,,,,,
,,110530,001,2023-07-24_20h58.17.697,arm3_q,2022.2.5,Win32,60.09254252,605bb96c5facde74270615aa,64aeaab685a29f4ca249be02,64bec98a767a4dbcd71dc784,right,-1,0.6929,0.35,3,0.001764369,0.4575,,,,,,70,0,70,0,1,,,,,
,,110530,001,2023-07-24_20h58.17.697,arm3_q,2022.2.5,Win32,60.09254252,605bb96c5facde74270615aa,64aeaab685a29f4ca249be02,64bec98a767a4dbcd71dc784,right,-1,0.6929,0.35,3,-0.012916033,0.567,,,,,,71,0,71,0,1,,,,,
,,110530,001,2023-07-24_20h58.17.697,arm3_q,2022.2.5,Win32,60.09254252,605bb96c5facde74270615aa,64aeaab685a29f4ca249be02,64bec98a767a4dbcd71dc784,right,-1,0.6929,0.35,3,-0.006624818,0.5055,,,,,,72,0,72,0,1,,,,,
,,110530,001,2023-07-24_20h58.17.697,arm3_q,2022.2.5,Win32,60.09254252,605bb96c5facde74270615aa,64aeaab685a29f4ca249be02,64bec98a767a4dbcd71dc784,right,-1,0.6929,0.35,3,-0.030474536,0.5667,,,,,,73,0,73,0,1,,,,,
,,110530,001,2023-07-24_20h58.17.697,arm3_q,2022.2.5,Win32,60.09254252,605bb96c5facde74270615aa,64aeaab685a29f4ca249be02,64bec98a767a4dbcd71dc784,right,-1,0.6929,0.35,3,-0.046011746,0.724,,,,,,74,0,74,0,1,,,,,
,,110530,001,2023-07-24_20h58.17.697,arm3_q,2022.2.5,Win32,60.09254252,605bb96c5facde74270615aa,64aeaab685a29f4ca249be02,64bec98a767a4dbcd71dc784,right,-1,0.6929,0.35,3,-0.033568377,0.5219,,,,,,75,0,75,0,1,,,,,
,,110530,001,2023-07-24_20h58.17.697,arm3_q,2022.2.5,Win32,60.09254252,605bb96c5facde74270615aa,64aeaab685a29f4ca249be02,64bec98a767a4dbcd71dc784,right,-1,0.6929,0.35,3,-0.038536568,0.5046,,,,,,76,0,76,0,1,,,,,
,,110530,001,2023-07-24_20h58.17.697,arm3_q,2022.2.5,Win32,60.09254252,605bb96c5facde74270615aa,64aeaab685a29f4ca249be02,64bec98a767a4dbcd71dc784,down,-1,0.6929,0.35,4,0,0.65,,,,,,77,0,77,0,1,,,,,
,,110530,001,2023-07-24_20h58.17.697,arm3_q,2022.2.5,Win32,60.09254252,605bb96c5facde74270615aa,64aeaab685a29f4ca249be02,64bec98a767a4dbcd71dc784,right,-1,0.6929,0.35,4,0.006687359,1.2328,,,,,,78,0,78,0,1,,,,,
,,110530,001,2023-07-24_20h58.17.697,arm3_q,2022.2.5,Win32,60.09254252,605bb96c5facde74270615aa,64aeaab685a29f4ca249be02,64bec98a767a4dbcd71dc784,right,-1,0.6929,0.35,4,-0.000179862,0.5063,,,,,,79,0,79,0,1,,,,,
,,110530,001,2023-07-24_20h58.17.697,arm3_q,2022.2.5,Win32,60.09254252,605bb96c5facde74270615aa,64aeaab685a29f4ca249be02,64bec98a767a4dbcd71dc784,right,-1,0.6929,0.35,4,0.007495561,0.4829,,,,,,80,0,80,0,1,,,,,
,,110530,001,2023-07-24_20h58.17.697,arm3_q,2022.2.5,Win32,60.09254252,605bb96c5facde74270615aa,64aeaab685a29f4ca249be02,64bec98a767a4dbcd71dc784,right,-1,0.6929,0.35,4,0.025498285,0.4001,,,,,,81,0,81,0,1,,,,,
,,110530,001,2023-07-24_20h58.17.697,arm3_q,2022.2.5,Win32,60.09254252,605bb96c5facde74270615aa,64aeaab685a29f4ca249be02,64bec98a767a4dbcd71dc784,right,-1,0.6929,0.35,4,0.023311717,0.4004,,,,,,82,0,82,0,1,,,,,
,,110530,001,2023-07-24_20h58.17.697,arm3_q,2022.2.5,Win32,60.09254252,605bb96c5facde74270615aa,64aeaab685a29f4ca249be02,64bec98a767a4dbcd71dc784,right,-1,0.6929,0.35,4,0.003554275,0.3671,,,,,,83,0,83,0,1,,,,,
,,110530,001,2023-07-24_20h58.17.697,arm3_q,2022.2.5,Win32,60.09254252,605bb96c5facde74270615aa,64aeaab685a29f4ca249be02,64bec98a767a4dbcd71dc784,right,-1,0.6929,0.35,4,-0.019102741,0.4004,,,,,,84,0,84,0,1,,,,,
,,110530,001,2023-07-24_20h58.17.697,arm3_q,2022.2.5,Win32,60.09254252,605bb96c5facde74270615aa,64aeaab685a29f4ca249be02,64bec98a767a4dbcd71dc784,right,-1,0.6929,0.35,4,-0.048887248,0.4663,,,,,,85,0,85,0,1,,,,,
,,110530,001,2023-07-24_20h58.17.697,arm3_q,2022.2.5,Win32,60.09254252,605bb96c5facde74270615aa,64aeaab685a29f4ca249be02,64bec98a767a4dbcd71dc784,right,-1,0.6929,0.35,4,-0.078910886,0.3839,,,,,,86,0,86,0,1,,,,,
,,110530,001,2023-07-24_20h58.17.697,arm3_q,2022.2.5,Win32,60.09254252,605bb96c5facde74270615aa,64aeaab685a29f4ca249be02,64bec98a767a4dbcd71dc784,down,-1,0.6929,0.35,5,0,0.6099,,,,,,87,0,87,0,1,,,,,
,,110530,001,2023-07-24_20h58.17.697,arm3_q,2022.2.5,Win32,60.09254252,605bb96c5facde74270615aa,64aeaab685a29f4ca249be02,64bec98a767a4dbcd71dc784,right,-1,0.6929,0.35,5,-0.003319384,1.2716,,,,,,88,0,88,0,1,,,,,
,,110530,001,2023-07-24_20h58.17.697,arm3_q,2022.2.5,Win32,60.09254252,605bb96c5facde74270615aa,64aeaab685a29f4ca249be02,64bec98a767a4dbcd71dc784,right,-1,0.6929,0.35,5,-0.023158312,0.6507,,,,,,89,0,89,0,1,,,,,
,,110530,001,2023-07-24_20h58.17.697,arm3_q,2022.2.5,Win32,60.09254252,605bb96c5facde74270615aa,64aeaab685a29f4ca249be02,64bec98a767a4dbcd71dc784,right,-1,0.6929,0.35,5,-0.035807261,0.55,,,,,,90,0,90,0,1,,,,,
,,110530,001,2023-07-24_20h58.17.697,arm3_q,2022.2.5,Win32,60.09254252,605bb96c5facde74270615aa,64aeaab685a29f4ca249be02,64bec98a767a4dbcd71dc784,right,-1,0.6929,0.35,5,-0.042112214,0.2931,,,,,,91,0,91,0,1,,,,,
,,110530,001,2023-07-24_20h58.17.697,arm3_q,2022.2.5,Win32,60.09254252,605bb96c5facde74270615aa,64aeaab685a29f4ca249be02,64bec98a767a4dbcd71dc784,right,-1,0.6929,0.35,5,-0.045726979,0.2918,,,,,,92,0,92,0,1,,,,,
,,110530,001,2023-07-24_20h58.17.697,arm3_q,2022.2.5,Win32,60.09254252,605bb96c5facde74270615aa,64aeaab685a29f4ca249be02,64bec98a767a4dbcd71dc784,right,-1,0.6929,0.35,5,-0.053862031,0.3379,,,,,,93,0,93,0,1,,,,,
,,110530,001,2023-07-24_20h58.17.697,arm3_q,2022.2.5,Win32,60.09254252,605bb96c5facde74270615aa,64aeaab685a29f4ca249be02,64bec98a767a4dbcd71dc784,right,-1,0.6929,0.35,5,-0.053357246,0.3,,,,,,94,0,94,0,1,,,,,
,,110530,001,2023-07-24_20h58.17.697,arm3_q,2022.2.5,Win32,60.09254252,605bb96c5facde74270615aa,64aeaab685a29f4ca249be02,64bec98a767a4dbcd71dc784,right,-1,0.6929,0.35,5,-0.062576411,0.306,,,,,,95,0,95,0,1,,,,,
,,110530,001,2023-07-24_20h58.17.697,arm3_q,2022.2.5,Win32,60.09254252,605bb96c5facde74270615aa,64aeaab685a29f4ca249be02,64bec98a767a4dbcd71dc784,right,-1,0.6929,0.35,5,-0.076916412,0.6504,,,,,,96,0,96,0,1,,,,,
,,110530,001,2023-07-24_20h58.17.697,arm3_q,2022.2.5,Win32,60.09254252,605bb96c5facde74270615aa,64aeaab685a29f4ca249be02,64bec98a767a4dbcd71dc784,right,-1,0.6929,0.35,5,-0.064752437,0.5672,,,,,,97,0,97,0,1,,,,,
,,110530,001,2023-07-24_20h58.17.697,arm3_q,2022.2.5,Win32,60.09254252,605bb96c5facde74270615aa,64aeaab685a29f4ca249be02,64bec98a767a4dbcd71dc784,right,-1,0.6929,0.35,5,-0.057880787,0.517,,,,,,98,0,98,0,1,,,,,
,,110530,001,2023-07-24_20h58.17.697,arm3_q,2022.2.5,Win32,60.09254252,605bb96c5facde74270615aa,64aeaab685a29f4ca249be02,64bec98a767a4dbcd71dc784,down,1,0.6929,0.35,6,0,4.215,,,,,,99,0,99,0,1,,,,,
,,110530,001,2023-07-24_20h58.17.697,arm3_q,2022.2.5,Win32,60.09254252,605bb96c5facde74270615aa,64aeaab685a29f4ca249be02,64bec98a767a4dbcd71dc784,right,1,0.6929,0.35,6,0.029364406,1.2506,,,,,,100,0,100,0,1,,,,,
,,110530,001,2023-07-24_20h58.17.697,arm3_q,2022.2.5,Win32,60.09254252,605bb96c5facde74270615aa,64aeaab685a29f4ca249be02,64bec98a767a4dbcd71dc784,right,1,0.6929,0.35,6,0.086622097,0.484,,,,,,101,0,101,0,1,,,,,
,,110530,001,2023-07-24_20h58.17.697,arm3_q,2022.2.5,Win32,60.09254252,605bb96c5facde74270615aa,64aeaab685a29f4ca249be02,64bec98a767a4dbcd71dc784,right,1,0.6929,0.35,6,0.1025855,0.4827,,,,,,102,0,102,0,1,,,,,
,,110530,001,2023-07-24_20h58.17.697,arm3_q,2022.2.5,Win32,60.09254252,605bb96c5facde74270615aa,64aeaab685a29f4ca249be02,64bec98a767a4dbcd71dc784,right,1,0.6929,0.35,6,0.100317899,0.6162,,,,,,103,0,103,0,1,,,,,
,,110530,001,2023-07-24_20h58.17.697,arm3_q,2022.2.5,Win32,60.09254252,605bb96c5facde74270615aa,64aeaab685a29f4ca249be02,64bec98a767a4dbcd71dc784,up,1,0.6929,0.35,7,0,0.532,,,,,,104,0,104,0,1,,,,,
,,110530,001,2023-07-24_20h58.17.697,arm3_q,2022.2.5,Win32,60.09254252,605bb96c5facde74270615aa,64aeaab685a29f4ca249be02,64bec98a767a4dbcd71dc784,right,1,0.6929,0.35,7,-0.011884007,1.1227,,,,,,105,0,105,0,1,,,,,
,,110530,001,2023-07-24_20h58.17.697,arm3_q,2022.2.5,Win32,60.09254252,605bb96c5facde74270615aa,64aeaab685a29f4ca249be02,64bec98a767a4dbcd71dc784,right,1,0.6929,0.35,7,-0.002027396,0.4181,,,,,,106,0,106,0,1,,,,,
,,110530,001,2023-07-24_20h58.17.697,arm3_q,2022.2.5,Win32,60.09254252,605bb96c5facde74270615aa,64aeaab685a29f4ca249be02,64bec98a767a4dbcd71dc784,right,1,0.6929,0.35,7,-0.013462714,0.3511,,,,,,107,0,107,0,1,,,,,
,,110530,001,2023-07-24_20h58.17.697,arm3_q,2022.2.5,Win32,60.09254252,605bb96c5facde74270615aa,64aeaab685a29f4ca249be02,64bec98a767a4dbcd71dc784,right,1,0.6929,0.35,7,-0.023676037,0.3835,,,,,,108,0,108,0,1,,,,,
,,110530,001,2023-07-24_20h58.17.697,arm3_q,2022.2.5,Win32,60.09254252,605bb96c5facde74270615aa,64aeaab685a29f4ca249be02,64bec98a767a4dbcd71dc784,right,1,0.6929,0.35,7,0.004584042,0.3991,,,,,,109,0,109,0,1,,,,,
,,110530,001,2023-07-24_20h58.17.697,arm3_q,2022.2.5,Win32,60.09254252,605bb96c5facde74270615aa,64aeaab685a29f4ca249be02,64bec98a767a4dbcd71dc784,right,1,0.6929,0.35,7,0.008202326,0.5038,,,,,,110,0,110,0,1,,,,,
,,110530,001,2023-07-24_20h58.17.697,arm3_q,2022.2.5,Win32,60.09254252,605bb96c5facde74270615aa,64aeaab685a29f4ca249be02,64bec98a767a4dbcd71dc784,right,1,0.6929,0.35,7,0.0202389,0.5182,,,,,,111,0,111,0,1,,,,,
,,110530,001,2023-07-24_20h58.17.697,arm3_q,2022.2.5,Win32,60.09254252,605bb96c5facde74270615aa,64aeaab685a29f4ca249be02,64bec98a767a4dbcd71dc784,right,1,0.6929,0.35,7,0.036837687,0.4655,,,,,,112,0,112,0,1,,,,,
,,110530,001,2023-07-24_20h58.17.697,arm3_q,2022.2.5,Win32,60.09254252,605bb96c5facde74270615aa,64aeaab685a29f4ca249be02,64bec98a767a4dbcd71dc784,right,1,0.6929,0.35,7,0.048647153,0.5006,,,,,,113,0,113,0,1,,,,,
,,110530,001,2023-07-24_20h58.17.697,arm3_q,2022.2.5,Win32,60.09254252,605bb96c5facde74270615aa,64aeaab685a29f4ca249be02,64bec98a767a4dbcd71dc784,right,1,0.6929,0.35,7,0.03581455,0.6568,,,,,,114,0,114,0,1,,,,,
,,110530,001,2023-07-24_20h58.17.697,arm3_q,2022.2.5,Win32,60.09254252,605bb96c5facde74270615aa,64aeaab685a29f4ca249be02,64bec98a767a4dbcd71dc784,up,-1,0.6929,0.35,8,0,0.7148,,,,,,115,0,115,0,1,,,,,
,,110530,001,2023-07-24_20h58.17.697,arm3_q,2022.2.5,Win32,60.09254252,605bb96c5facde74270615aa,64aeaab685a29f4ca249be02,64bec98a767a4dbcd71dc784,right,-1,0.6929,0.35,8,0.017261162,1.0744,,,,,,116,0,116,0,1,,,,,
,,110530,001,2023-07-24_20h58.17.697,arm3_q,2022.2.5,Win32,60.09254252,605bb96c5facde74270615aa,64aeaab685a29f4ca249be02,64bec98a767a4dbcd71dc784,right,-1,0.6929,0.35,8,0.04906293,0.4502,,,,,,117,0,117,0,1,,,,,
,,110530,001,2023-07-24_20h58.17.697,arm3_q,2022.2.5,Win32,60.09254252,605bb96c5facde74270615aa,64aeaab685a29f4ca249be02,64bec98a767a4dbcd71dc784,right,-1,0.6929,0.35,8,0.050561927,0.4004,,,,,,118,0,118,0,1,,,,,
,,110530,001,2023-07-24_20h58.17.697,arm3_q,2022.2.5,Win32,60.09254252,605bb96c5facde74270615aa,64aeaab685a29f4ca249be02,64bec98a767a4dbcd71dc784,right,-1,0.6929,0.35,8,0.021609885,0.3768,,,,,,119,0,119,0,1,,,,,
,,110530,001,2023-07-24_20h58.17.697,arm3_q,2022.2.5,Win32,60.09254252,605bb96c5facde74270615aa,64aeaab685a29f4ca249be02,64bec98a767a4dbcd71dc784,right,-1,0.6929,0.35,8,0.020069869,0.3538,,,,,,120,0,120,0,1,,,,,
,,110530,001,2023-07-24_20h58.17.697,arm3_q,2022.2.5,Win32,60.09254252,605bb96c5facde74270615aa,64aeaab685a29f4ca249be02,64bec98a767a4dbcd71dc784,right,-1,0.6929,0.35,8,0.009108975,0.3504,,,,,,121,0,121,0,1,,,,,
,,110530,001,2023-07-24_20h58.17.697,arm3_q,2022.2.5,Win32,60.09254252,605bb96c5facde74270615aa,64aeaab685a29f4ca249be02,64bec98a767a4dbcd71dc784,right,-1,0.6929,0.35,8,0.010933267,0.4703,,,,,,122,0,122,0,1,,,,,
,,110530,001,2023-07-24_20h58.17.697,arm3_q,2022.2.5,Win32,60.09254252,605bb96c5facde74270615aa,64aeaab685a29f4ca249be02,64bec98a767a4dbcd71dc784,right,-1,0.6929,0.35,8,-0.009948476,0.5173,,,,,,123,0,123,0,1,,,,,
,,110530,001,2023-07-24_20h58.17.697,arm3_q,2022.2.5,Win32,60.09254252,605bb96c5facde74270615aa,64aeaab685a29f4ca249be02,64bec98a767a4dbcd71dc784,right,-1,0.6929,0.35,8,-0.044989994,0.4545,,,,,,124,0,124,0,1,,,,,
,,110530,001,2023-07-24_20h58.17.697,arm3_q,2022.2.5,Win32,60.09254252,605bb96c5facde74270615aa,64aeaab685a29f4ca249be02,64bec98a767a4dbcd71dc784,down,1,0.6929,0.35,9,0,0.6079,,,,,,125,0,125,0,1,,,,,
,,110530,001,2023-07-24_20h58.17.697,arm3_q,2022.2.5,Win32,60.09254252,605bb96c5facde74270615aa,64aeaab685a29f4ca249be02,64bec98a767a4dbcd71dc784,right,1,0.6929,0.35,9,-0.007354003,1.3174,,,,,,126,0,126,0,1,,,,,
,,110530,001,2023-07-24_20h58.17.697,arm3_q,2022.2.5,Win32,60.09254252,605bb96c5facde74270615aa,64aeaab685a29f4ca249be02,64bec98a767a4dbcd71dc784,right,1,0.6929,0.35,9,0.004232097,0.4335,,,,,,127,0,127,0,1,,,,,
,,110530,001,2023-07-24_20h58.17.697,arm3_q,2022.2.5,Win32,60.09254252,605bb96c5facde74270615aa,64aeaab685a29f4ca249be02,64bec98a767a4dbcd71dc784,right,1,0.6929,0.35,9,0.016805784,0.4171,,,,,,128,0,128,0,1,,,,,
,,110530,001,2023-07-24_20h58.17.697,arm3_q,2022.2.5,Win32,60.09254252,605bb96c5facde74270615aa,64aeaab685a29f4ca249be02,64bec98a767a4dbcd71dc784,right,1,0.6929,0.35,9,0.021156663,0.367,,,,,,129,0,129,0,1,,,,,
,,110530,001,2023-07-24_20h58.17.697,arm3_q,2022.2.5,Win32,60.09254252,605bb96c5facde74270615aa,64aeaab685a29f4ca249be02,64bec98a767a4dbcd71dc784,right,1,0.6929,0.35,9,0.04979455,0.3673,,,,,,130,0,130,0,1,,,,,
,,110530,001,2023-07-24_20h58.17.697,arm3_q,2022.2.5,Win32,60.09254252,605bb96c5facde74270615aa,64aeaab685a29f4ca249be02,64bec98a767a4dbcd71dc784,right,1,0.6929,0.35,9,0.03572618,0.4225,,,,,,131,0,131,0,1,,,,,
,,110530,001,2023-07-24_20h58.17.697,arm3_q,2022.2.5,Win32,60.09254252,605bb96c5facde74270615aa,64aeaab685a29f4ca249be02,64bec98a767a4dbcd71dc784,right,1,0.6929,0.35,9,0.030296199,0.4171,,,,,,132,0,132,0,1,,,,,
,,110530,001,2023-07-24_20h58.17.697,arm3_q,2022.2.5,Win32,60.09254252,605bb96c5facde74270615aa,64aeaab685a29f4ca249be02,64bec98a767a4dbcd71dc784,right,1,0.6929,0.35,9,0.026533772,0.4168,,,,,,133,0,133,0,1,,,,,
,,110530,001,2023-07-24_20h58.17.697,arm3_q,2022.2.5,Win32,60.09254252,605bb96c5facde74270615aa,64aeaab685a29f4ca249be02,64bec98a767a4dbcd71dc784,right,1,0.6929,0.35,9,0.068015222,0.5419,,,,,,134,0,134,0,1,,,,,
,,110530,001,2023-07-24_20h58.17.697,arm3_q,2022.2.5,Win32,60.09254252,605bb96c5facde74270615aa,64aeaab685a29f4ca249be02,64bec98a767a4dbcd71dc784,up,-1,0.6929,0.35,10,0,0.6672,,,,,,135,0,135,0,1,,,,,
,,110530,001,2023-07-24_20h58.17.697,arm3_q,2022.2.5,Win32,60.09254252,605bb96c5facde74270615aa,64aeaab685a29f4ca249be02,64bec98a767a4dbcd71dc784,right,-1,0.6929,0.35,10,7.83814E-05,0.776,,,,,,136,0,136,0,1,,,,,
,,110530,001,2023-07-24_20h58.17.697,arm3_q,2022.2.5,Win32,60.09254252,605bb96c5facde74270615aa,64aeaab685a29f4ca249be02,64bec98a767a4dbcd71dc784,right,-1,0.6929,0.35,10,0.011957283,0.3511,,,,,,137,0,137,0,1,,,,,
,,110530,001,2023-07-24_20h58.17.697,arm3_q,2022.2.5,Win32,60.09254252,605bb96c5facde74270615aa,64aeaab685a29f4ca249be02,64bec98a767a4dbcd71dc784,right,-1,0.6929,0.35,10,0.036639413,0.2699,,,,,,138,0,138,0,1,,,,,
,,110530,001,2023-07-24_20h58.17.697,arm3_q,2022.2.5,Win32,60.09254252,605bb96c5facde74270615aa,64aeaab685a29f4ca249be02,64bec98a767a4dbcd71dc784,right,-1,0.6929,0.35,10,-0.010413878,0.2078,,,,,,139,0,139,0,1,,,,,
,,110530,001,2023-07-24_20h58.17.697,arm3_q,2022.2.5,Win32,60.09254252,605bb96c5facde74270615aa,64aeaab685a29f4ca249be02,64bec98a767a4dbcd71dc784,right,-1,0.6929,0.35,10,-0.049722755,0.1669,,,,,,140,0,140,0,1,,,,,
,,110530,001,2023-07-24_20h58.17.697,arm3_q,2022.2.5,Win32,60.09254252,605bb96c5facde74270615aa,64aeaab685a29f4ca249be02,64bec98a767a4dbcd71dc784,right,-1,0.6929,0.35,10,-0.068778576,0.1164,,,,,,141,0,141,0,1,,,,,
,,110530,001,2023-07-24_20h58.17.697,arm3_q,2022.2.5,Win32,60.09254252,605bb96c5facde74270615aa,64aeaab685a29f4ca249be02,64bec98a767a4dbcd71dc784,right,-1,0.6929,0.35,10,-0.055591846,0.136,,,,,,142,0,142,0,1,,,,,
,,110530,001,2023-07-24_20h58.17.697,arm3_q,2022.2.5,Win32,60.09254252,605bb96c5facde74270615aa,64aeaab685a29f4ca249be02,64bec98a767a4dbcd71dc784,right,-1,0.6929,0.35,10,-0.035829613,0.3669,,,,,,143,0,143,0,1,,,,,
,,110530,001,2023-07-24_20h58.17.697,arm3_q,2022.2.5,Win32,60.09254252,605bb96c5facde74270615aa,64aeaab685a29f4ca249be02,64bec98a767a4dbcd71dc784,right,-1,0.6929,0.35,10,-0.055990775,0.3503,,,,,,144,0,144,0,1,,,,,
,,110530,001,2023-07-24_20h58.17.697,arm3_q,2022.2.5,Win32,60.09254252,605bb96c5facde74270615aa,64aeaab685a29f4ca249be02,64bec98a767a4dbcd71dc784,right,-1,0.6929,0.35,10,-0.055105191,1.1669,,,,,,145,0,145,0,1,,,,,
,,110530,001,2023-07-24_20h58.17.697,arm3_q,2022.2.5,Win32,60.09254252,605bb96c5facde74270615aa,64aeaab685a29f4ca249be02,64bec98a767a4dbcd71dc784,right,-1,0.6929,0.35,10,-0.03346488,1.5333,,,,,,146,0,146,0,1,,,,,
,,110530,001,2023-07-24_20h58.17.697,arm3_q,2022.2.5,Win32,60.09254252,605bb96c5facde74270615aa,64aeaab685a29f4ca249be02,64bec98a767a4dbcd71dc784,right,-1,0.6929,0.35,10,-0.038399937,1.6162,,,,,,147,0,147,0,1,,,,,
,,110530,001,2023-07-24_20h58.17.697,arm3_q,2022.2.5,Win32,60.09254252,605bb96c5facde74270615aa,64aeaab685a29f4ca249be02,64bec98a767a4dbcd71dc784,down,-1,0.6929,0.35,11,0,0.7767,,,,,,148,0,148,0,1,,,,,
,,110530,001,2023-07-24_20h58.17.697,arm3_q,2022.2.5,Win32,60.09254252,605bb96c5facde74270615aa,64aeaab685a29f4ca249be02,64bec98a767a4dbcd71dc784,right,-1,0.6929,0.35,11,0.006524179,0.9003,,,,,,149,0,149,0,1,,,,,
,,110530,001,2023-07-24_20h58.17.697,arm3_q,2022.2.5,Win32,60.09254252,605bb96c5facde74270615aa,64aeaab685a29f4ca249be02,64bec98a767a4dbcd71dc784,right,-1,0.6929,0.35,11,0.012438456,0.2084,,,,,,150,0,150,0,1,,,,,
,,110530,001,2023-07-24_20h58.17.697,arm3_q,2022.2.5,Win32,60.09254252,605bb96c5facde74270615aa,64aeaab685a29f4ca249be02,64bec98a767a4dbcd71dc784,right,-1,0.6929,0.35,11,-0.019551256,0.172,,,,,,151,0,151,0,1,,,,,
,,110530,001,2023-07-24_20h58.17.697,arm3_q,2022.2.5,Win32,60.09254252,605bb96c5facde74270615aa,64aeaab685a29f4ca249be02,64bec98a767a4dbcd71dc784,right,-1,0.6929,0.35,11,-0.005467971,0.134,,,,,,152,0,152,0,1,,,,,
,,110530,001,2023-07-24_20h58.17.697,arm3_q,2022.2.5,Win32,60.09254252,605bb96c5facde74270615aa,64aeaab685a29f4ca249be02,64bec98a767a4dbcd71dc784,right,-1,0.6929,0.35,11,0.008892926,0.1839,,,,,,153,0,153,0,1,,,,,
,,110530,001,2023-07-24_20h58.17.697,arm3_q,2022.2.5,Win32,60.09254252,605bb96c5facde74270615aa,64aeaab685a29f4ca249be02,64bec98a767a4dbcd71dc784,right,-1,0.6929,0.35,11,0.001085952,0.1663,,,,,,154,0,154,0,1,,,,,
,,110530,001,2023-07-24_20h58.17.697,arm3_q,2022.2.5,Win32,60.09254252,605bb96c5facde74270615aa,64aeaab685a29f4ca249be02,64bec98a767a4dbcd71dc784,right,-1,0.6929,0.35,11,-0.056828721,0.1672,,,,,,155,0,155,0,1,,,,,
,,110530,001,2023-07-24_20h58.17.697,arm3_q,2022.2.5,Win32,60.09254252,605bb96c5facde74270615aa,64aeaab685a29f4ca249be02,64bec98a767a4dbcd71dc784,right,-1,0.6929,0.35,11,-0.081939013,0.5874,,,,,,156,0,156,0,1,,,,,
,,110530,001,2023-07-24_20h58.17.697,arm3_q,2022.2.5,Win32,60.09254252,605bb96c5facde74270615aa,64aeaab685a29f4ca249be02,64bec98a767a4dbcd71dc784,right,-1,0.6929,0.35,11,-0.070528597,0.7842,,,,,,157,0,157,0,1,,,,,
,,110530,001,2023-07-24_20h58.17.697,arm3_q,2022.2.5,Win32,60.09254252,605bb96c5facde74270615aa,64aeaab685a29f4ca249be02,64bec98a767a4dbcd71dc784,right,-1,0.6929,0.35,11,-0.072486974,0.5686,,,,,,158,0,158,0,1,,,,,
,,110530,001,2023-07-24_20h58.17.697,arm3_q,2022.2.5,Win32,60.09254252,605bb96c5facde74270615aa,64aeaab685a29f4ca249be02,64bec98a767a4dbcd71dc784,down,-1,0.6929,0.35,11,0,0.6498,,,,,,159,0,159,0,1,,,,,
,,110530,001,2023-07-24_20h58.17.697,arm3_q,2022.2.5,Win32,60.09254252,605bb96c5facde74270615aa,64aeaab685a29f4ca249be02,64bec98a767a4dbcd71dc784,right,-1,0.6929,0.35,11,-0.004455058,1.0338,,,,,,160,0,160,0,1,,,,,
,,110530,001,2023-07-24_20h58.17.697,arm3_q,2022.2.5,Win32,60.09254252,605bb96c5facde74270615aa,64aeaab685a29f4ca249be02,64bec98a767a4dbcd71dc784,right,-1,0.6929,0.35,11,-0.015099039,0.4332,,,,,,161,0,161,0,1,,,,,
,,110530,001,2023-07-24_20h58.17.697,arm3_q,2022.2.5,Win32,60.09254252,605bb96c5facde74270615aa,64aeaab685a29f4ca249be02,64bec98a767a4dbcd71dc784,right,-1,0.6929,0.35,11,-0.024813323,0.1837,,,,,,162,0,162,0,1,,,,,
,,110530,001,2023-07-24_20h58.17.697,arm3_q,2022.2.5,Win32,60.09254252,605bb96c5facde74270615aa,64aeaab685a29f4ca249be02,64bec98a767a4dbcd71dc784,right,-1,0.6929,0.35,11,-0.063329269,0.1504,,,,,,163,0,163,0,1,,,,,
,,110530,001,2023-07-24_20h58.17.697,arm3_q,2022.2.5,Win32,60.09254252,605bb96c5facde74270615aa,64aeaab685a29f4ca249be02,64bec98a767a4dbcd71dc784,right,-1,0.6929,0.35,11,-0.060804082,0.167,,,,,,164,0,164,0,1,,,,,
,,110530,001,2023-07-24_20h58.17.697,arm3_q,2022.2.5,Win32,60.09254252,605bb96c5facde74270615aa,64aeaab685a29f4ca249be02,64bec98a767a4dbcd71dc784,right,-1,0.6929,0.35,11,-0.037488052,0.1839,,,,,,165,0,165,0,1,,,,,
,,110530,001,2023-07-24_20h58.17.697,arm3_q,2022.2.5,Win32,60.09254252,605bb96c5facde74270615aa,64aeaab685a29f4ca249be02,64bec98a767a4dbcd71dc784,right,-1,0.6929,0.35,11,-0.050686673,0.3167,,,,,,166,0,166,0,1,,,,,
,,110530,001,2023-07-24_20h58.17.697,arm3_q,2022.2.5,Win32,60.09254252,605bb96c5facde74270615aa,64aeaab685a29f4ca249be02,64bec98a767a4dbcd71dc784,right,-1,0.6929,0.35,11,-0.043080096,0.3668,,,,,,167,0,167,0,1,,,,,
,,110530,001,2023-07-24_20h58.17.697,arm3_q,2022.2.5,Win32,60.09254252,605bb96c5facde74270615aa,64aeaab685a29f4ca249be02,64bec98a767a4dbcd71dc784,right,-1,0.6929,0.35,11,-0.040571478,0.3883,,,,,,168,0,168,0,1,,,,,
,,110530,001,2023-07-24_20h58.17.697,arm3_q,2022.2.5,Win32,60.09254252,605bb96c5facde74270615aa,64aeaab685a29f4ca249be02,64bec98a767a4dbcd71dc784,right,-1,0.6929,0.35,11,-0.01546517,0.5169,,,,,,169,0,169,0,1,,,,,
,,110530,001,2023-07-24_20h58.17.697,arm3_q,2022.2.5,Win32,60.09254252,605bb96c5facde74270615aa,64aeaab685a29f4ca249be02,64bec98a767a4dbcd71dc784,right,-1,0.6929,0.35,11,-0.046179326,1.1167,,,,,,170,0,170,0,1,,,,,
,,110530,001,2023-07-24_20h58.17.697,arm3_q,2022.2.5,Win32,60.09254252,605bb96c5facde74270615aa,64aeaab685a29f4ca249be02,64bec98a767a4dbcd71dc784,right,-1,0.6929,0.35,11,-0.039895914,0.8568,,,,,,171,0,171,0,1,,,,,
,,110530,001,2023-07-24_20h58.17.697,arm3_q,2022.2.5,Win32,60.09254252,605bb96c5facde74270615aa,64aeaab685a29f4ca249be02,64bec98a767a4dbcd71dc784,down,-1,0.6929,0.35,12,0,1.1507,,,,,,172,0,172,0,1,,,,,
,,110530,001,2023-07-24_20h58.17.697,arm3_q,2022.2.5,Win32,60.09254252,605bb96c5facde74270615aa,64aeaab685a29f4ca249be02,64bec98a767a4dbcd71dc784,right,-1,0.6929,0.35,12,-0.029209297,1.1597,,,,,,173,0,173,0,1,,,,,
,,110530,001,2023-07-24_20h58.17.697,arm3_q,2022.2.5,Win32,60.09254252,605bb96c5facde74270615aa,64aeaab685a29f4ca249be02,64bec98a767a4dbcd71dc784,right,-1,0.6929,0.35,12,-0.023810771,0.2673,,,,,,174,0,174,0,1,,,,,
,,110530,001,2023-07-24_20h58.17.697,arm3_q,2022.2.5,Win32,60.09254252,605bb96c5facde74270615aa,64aeaab685a29f4ca249be02,64bec98a767a4dbcd71dc784,right,-1,0.6929,0.35,12,-0.040271107,0.1502,,,,,,175,0,175,0,1,,,,,
,,110530,001,2023-07-24_20h58.17.697,arm3_q,2022.2.5,Win32,60.09254252,605bb96c5facde74270615aa,64aeaab685a29f4ca249be02,64bec98a767a4dbcd71dc784,right,-1,0.6929,0.35,12,-0.048182685,0.2219,,,,,,176,0,176,0,1,,,,,
,,110530,001,2023-07-24_20h58.17.697,arm3_q,2022.2.5,Win32,60.09254252,605bb96c5facde74270615aa,64aeaab685a29f4ca249be02,64bec98a767a4dbcd71dc784,right,-1,0.6929,0.35,12,-0.063652773,0.2001,,,,,,177,0,177,0,1,,,,,
,,110530,001,2023-07-24_20h58.17.697,arm3_q,2022.2.5,Win32,60.09254252,605bb96c5facde74270615aa,64aeaab685a29f4ca249be02,64bec98a767a4dbcd71dc784,right,-1,0.6929,0.35,12,-0.075129539,0.1327,,,,,,178,0,178,0,1,,,,,
,,110530,001,2023-07-24_20h58.17.697,arm3_q,2022.2.5,Win32,60.09254252,605bb96c5facde74270615aa,64aeaab685a29f4ca249be02,64bec98a767a4dbcd71dc784,right,-1,0.6929,0.35,12,-0.077277104,0.1842,,,,,,179,0,179,0,1,,,,,
,,110530,001,2023-07-24_20h58.17.697,arm3_q,2022.2.5,Win32,60.09254252,605bb96c5facde74270615aa,64aeaab685a29f4ca249be02,64bec98a767a4dbcd71dc784,right,-1,0.6929,0.35,12,-0.082508358,0.3328,,,,,,180,0,180,0,1,,,,,
,,110530,001,2023-07-24_20h58.17.697,arm3_q,2022.2.5,Win32,60.09254252,605bb96c5facde74270615aa,64aeaab685a29f4ca249be02,64bec98a767a4dbcd71dc784,right,-1,0.6929,0.35,12,-0.066881136,0.4165,,,,,,181,0,181,0,1,,,,,
,,110530,001,2023-07-24_20h58.17.697,arm3_q,2022.2.5,Win32,60.09254252,605bb96c5facde74270615aa,64aeaab685a29f4ca249be02,64bec98a767a4dbcd71dc784,right,-1,0.6929,0.35,12,-0.080323477,0.3666,,,,,,182,0,182,0,1,,,,,
,,110530,001,2023-07-24_20h58.17.697,arm3_q,2022.2.5,Win32,60.09254252,605bb96c5facde74270615aa,64aeaab685a29f4ca249be02,64bec98a767a4dbcd71dc784,right,-1,0.6929,0.35,12,-0.076597337,0.6165,,,,,,183,0,183,0,1,,,,,
,,110530,001,2023-07-24_20h58.17.697,arm3_q,2022.2.5,Win32,60.09254252,605bb96c5facde74270615aa,64aeaab685a29f4ca249be02,64bec98a767a4dbcd71dc784,down,1,0.6929,0.35,13,0,0.4835,,,,,,184,0,184,0,1,,,,,
,,110530,001,2023-07-24_20h58.17.697,arm3_q,2022.2.5,Win32,60.09254252,605bb96c5facde74270615aa,64aeaab685a29f4ca249be02,64bec98a767a4dbcd71dc784,right,1,0.6929,0.35,13,0.029758347,0.7674,,,,,,185,0,185,0,1,,,,,
,,110530,001,2023-07-24_20h58.17.697,arm3_q,2022.2.5,Win32,60.09254252,605bb96c5facde74270615aa,64aeaab685a29f4ca249be02,64bec98a767a4dbcd71dc784,right,1,0.6929,0.35,13,0.039074518,0.267,,,,,,186,0,186,0,1,,,,,
,,110530,001,2023-07-24_20h58.17.697,arm3_q,2022.2.5,Win32,60.09254252,605bb96c5facde74270615aa,64aeaab685a29f4ca249be02,64bec98a767a4dbcd71dc784,right,1,0.6929,0.35,13,0.035453868,0.2057,,,,,,187,0,187,0,1,,,,,
,,110530,001,2023-07-24_20h58.17.697,arm3_q,2022.2.5,Win32,60.09254252,605bb96c5facde74270615aa,64aeaab685a29f4ca249be02,64bec98a767a4dbcd71dc784,right,1,0.6929,0.35,13,0.043712995,0.2165,,,,,,188,0,188,0,1,,,,,
,,110530,001,2023-07-24_20h58.17.697,arm3_q,2022.2.5,Win32,60.09254252,605bb96c5facde74270615aa,64aeaab685a29f4ca249be02,64bec98a767a4dbcd71dc784,right,1,0.6929,0.35,13,0.051846533,0.2835,,,,,,189,0,189,0,1,,,,,
,,110530,001,2023-07-24_20h58.17.697,arm3_q,2022.2.5,Win32,60.09254252,605bb96c5facde74270615aa,64aeaab685a29f4ca249be02,64bec98a767a4dbcd71dc784,right,1,0.6929,0.35,13,0.087851271,0.2742,,,,,,190,0,190,0,1,,,,,
,,110530,001,2023-07-24_20h58.17.697,arm3_q,2022.2.5,Win32,60.09254252,605bb96c5facde74270615aa,64aeaab685a29f4ca249be02,64bec98a767a4dbcd71dc784,right,1,0.6929,0.35,13,0.089489793,0.217,,,,,,191,0,191,0,1,,,,,
,,110530,001,2023-07-24_20h58.17.697,arm3_q,2022.2.5,Win32,60.09254252,605bb96c5facde74270615aa,64aeaab685a29f4ca249be02,64bec98a767a4dbcd71dc784,right,1,0.6929,0.35,13,0.079549337,0.2669,,,,,,192,0,192,0,1,,,,,
,,110530,001,2023-07-24_20h58.17.697,arm3_q,2022.2.5,Win32,60.09254252,605bb96c5facde74270615aa,64aeaab685a29f4ca249be02,64bec98a767a4dbcd71dc784,right,1,0.6929,0.35,13,0.089185786,0.2255,,,,,,193,0,193,0,1,,,,,
,,110530,001,2023-07-24_20h58.17.697,arm3_q,2022.2.5,Win32,60.09254252,605bb96c5facde74270615aa,64aeaab685a29f4ca249be02,64bec98a767a4dbcd71dc784,right,1,0.6929,0.35,13,0.110943969,0.317,,,,,,194,0,194,0,1,,,,,
,,110530,001,2023-07-24_20h58.17.697,arm3_q,2022.2.5,Win32,60.09254252,605bb96c5facde74270615aa,64aeaab685a29f4ca249be02,64bec98a767a4dbcd71dc784,up,1,0.6929,0.35,14,0,0.8999,,,,,,195,0,195,0,1,,,,,
,,110530,001,2023-07-24_20h58.17.697,arm3_q,2022.2.5,Win32,60.09254252,605bb96c5facde74270615aa,64aeaab685a29f4ca249be02,64bec98a767a4dbcd71dc784,right,1,0.6929,0.35,14,-0.011537768,0.8051,,,,,,196,0,196,0,1,,,,,
,,110530,001,2023-07-24_20h58.17.697,arm3_q,2022.2.5,Win32,60.09254252,605bb96c5facde74270615aa,64aeaab685a29f4ca249be02,64bec98a767a4dbcd71dc784,right,1,0.6929,0.35,14,0.01257194,0.2505,,,,,,197,0,197,0,1,,,,,
,,110530,001,2023-07-24_20h58.17.697,arm3_q,2022.2.5,Win32,60.09254252,605bb96c5facde74270615aa,64aeaab685a29f4ca249be02,64bec98a767a4dbcd71dc784,right,1,0.6929,0.35,14,0.008008615,0.1838,,,,,,198,0,198,0,1,,,,,
,,110530,001,2023-07-24_20h58.17.697,arm3_q,2022.2.5,Win32,60.09254252,605bb96c5facde74270615aa,64aeaab685a29f4ca249be02,64bec98a767a4dbcd71dc784,right,1,0.6929,0.35,14,0.001082368,0.1754,,,,,,199,0,199,0,1,,,,,
,,110530,001,2023-07-24_20h58.17.697,arm3_q,2022.2.5,Win32,60.09254252,605bb96c5facde74270615aa,64aeaab685a29f4ca249be02,64bec98a767a4dbcd71dc784,right,1,0.6929,0.35,14,0.017248973,0.2335,,,,,,200,0,200,0,1,,,,,
,,110530,001,2023-07-24_20h58.17.697,arm3_q,2022.2.5,Win32,60.09254252,605bb96c5facde74270615aa,64aeaab685a29f4ca249be02,64bec98a767a4dbcd71dc784,right,1,0.6929,0.35,14,0.044594689,0.2339,,,,,,201,0,201,0,1,,,,,
,,110530,001,2023-07-24_20h58.17.697,arm3_q,2022.2.5,Win32,60.09254252,605bb96c5facde74270615aa,64aeaab685a29f4ca249be02,64bec98a767a4dbcd71dc784,right,1,0.6929,0.35,14,0.054349852,0.2168,,,,,,202,0,202,0,1,,,,,
,,110530,001,2023-07-24_20h58.17.697,arm3_q,2022.2.5,Win32,60.09254252,605bb96c5facde74270615aa,64aeaab685a29f4ca249be02,64bec98a767a4dbcd71dc784,right,1,0.6929,0.35,14,0.054755293,0.2513,,,,,,203,0,203,0,1,,,,,
,,110530,001,2023-07-24_20h58.17.697,arm3_q,2022.2.5,Win32,60.09254252,605bb96c5facde74270615aa,64aeaab685a29f4ca249be02,64bec98a767a4dbcd71dc784,right,1,0.6929,0.35,14,0.08420352,0.2378,,,,,,204,0,204,0,1,,,,,
,,110530,001,2023-07-24_20h58.17.697,arm3_q,2022.2.5,Win32,60.09254252,605bb96c5facde74270615aa,64aeaab685a29f4ca249be02,64bec98a767a4dbcd71dc784,right,1,0.6929,0.35,14,0.076234683,0.3336,,,,,,205,0,205,0,1,,,,,
,,110530,001,2023-07-24_20h58.17.697,arm3_q,2022.2.5,Win32,60.09254252,605bb96c5facde74270615aa,64aeaab685a29f4ca249be02,64bec98a767a4dbcd71dc784,up,1,0.6929,0.35,14,0,0.5547,,,,,,206,0,206,0,1,,,,,
,,110530,001,2023-07-24_20h58.17.697,arm3_q,2022.2.5,Win32,60.09254252,605bb96c5facde74270615aa,64aeaab685a29f4ca249be02,64bec98a767a4dbcd71dc784,right,1,0.6929,0.35,14,-0.007209733,1.0834,,,,,,207,0,207,0,1,,,,,
,,110530,001,2023-07-24_20h58.17.697,arm3_q,2022.2.5,Win32,60.09254252,605bb96c5facde74270615aa,64aeaab685a29f4ca249be02,64bec98a767a4dbcd71dc784,right,1,0.6929,0.35,14,0.0047505,0.2385,,,,,,208,0,208,0,1,,,,,
,,110530,001,2023-07-24_20h58.17.697,arm3_q,2022.2.5,Win32,60.09254252,605bb96c5facde74270615aa,64aeaab685a29f4ca249be02,64bec98a767a4dbcd71dc784,right,1,0.6929,0.35,14,0.01062356,0.2338,,,,,,209,0,209,0,1,,,,,
,,110530,001,2023-07-24_20h58.17.697,arm3_q,2022.2.5,Win32,60.09254252,605bb96c5facde74270615aa,64aeaab685a29f4ca249be02,64bec98a767a4dbcd71dc784,right,1,0.6929,0.35,14,0.036018487,0.2519,,,,,,210,0,210,0,1,,,,,
,,110530,001,2023-07-24_20h58.17.697,arm3_q,2022.2.5,Win32,60.09254252,605bb96c5facde74270615aa,64aeaab685a29f4ca249be02,64bec98a767a4dbcd71dc784,right,1,0.6929,0.35,14,0.03448539,0.7007,,,,,,211,0,211,0,1,,,,,
,,110530,001,2023-07-24_20h58.17.697,arm3_q,2022.2.5,Win32,60.09254252,605bb96c5facde74270615aa,64aeaab685a29f4ca249be02,64bec98a767a4dbcd71dc784,right,1,0.6929,0.35,14,0.046434478,0.3336,,,,,,212,0,212,0,1,,,,,
,,110530,001,2023-07-24_20h58.17.697,arm3_q,2022.2.5,Win32,60.09254252,605bb96c5facde74270615aa,64aeaab685a29f4ca249be02,64bec98a767a4dbcd71dc784,right,1,0.6929,0.35,14,0.062511914,0.234,,,,,,213,0,213,0,1,,,,,
,,110530,001,2023-07-24_20h58.17.697,arm3_q,2022.2.5,Win32,60.09254252,605bb96c5facde74270615aa,64aeaab685a29f4ca249be02,64bec98a767a4dbcd71dc784,right,1,0.6929,0.35,14,0.035562574,0.3545,,,,,,214,0,214,0,1,,,,,
,,110530,001,2023-07-24_20h58.17.697,arm3_q,2022.2.5,Win32,60.09254252,605bb96c5facde74270615aa,64aeaab685a29f4ca249be02,64bec98a767a4dbcd71dc784,right,1,0.6929,0.35,14,0.048219469,0.4219,,,,,,215,0,215,0,1,,,,,
,,110530,001,2023-07-24_20h58.17.697,arm3_q,2022.2.5,Win32,60.09254252,605bb96c5facde74270615aa,64aeaab685a29f4ca249be02,64bec98a767a4dbcd71dc784,up,1,0.6929,0.35,15,0,0.5677,,,,,,216,0,216,0,1,,,,,
,,110530,001,2023-07-24_20h58.17.697,arm3_q,2022.2.5,Win32,60.09254252,605bb96c5facde74270615aa,64aeaab685a29f4ca249be02,64bec98a767a4dbcd71dc784,up,-1,0.6929,0.35,16,0,0.0009,,,,,,217,0,217,0,1,,,,,
,,110530,001,2023-07-24_20h58.17.697,arm3_q,2022.2.5,Win32,60.09254252,605bb96c5facde74270615aa,64aeaab685a29f4ca249be02,64bec98a767a4dbcd71dc784,right,-1,0.6929,0.35,16,-0.023847851,0.7667,,,,,,218,0,218,0,1,,,,,
,,110530,001,2023-07-24_20h58.17.697,arm3_q,2022.2.5,Win32,60.09254252,605bb96c5facde74270615aa,64aeaab685a29f4ca249be02,64bec98a767a4dbcd71dc784,right,-1,0.6929,0.35,16,0.022267369,0.2675,,,,,,219,0,219,0,1,,,,,
,,110530,001,2023-07-24_20h58.17.697,arm3_q,2022.2.5,Win32,60.09254252,605bb96c5facde74270615aa,64aeaab685a29f4ca249be02,64bec98a767a4dbcd71dc784,right,-1,0.6929,0.35,16,0.031792963,0.2051,,,,,,220,0,220,0,1,,,,,
,,110530,001,2023-07-24_20h58.17.697,arm3_q,2022.2.5,Win32,60.09254252,605bb96c5facde74270615aa,64aeaab685a29f4ca249be02,64bec98a767a4dbcd71dc784,right,-1,0.6929,0.35,16,0.001782619,0.2164,,,,,,221,0,221,0,1,,,,,
,,110530,001,2023-07-24_20h58.17.697,arm3_q,2022.2.5,Win32,60.09254252,605bb96c5facde74270615aa,64aeaab685a29f4ca249be02,64bec98a767a4dbcd71dc784,right,-1,0.6929,0.35,16,-0.012161403,0.3006,,,,,,222,0,222,0,1,,,,,
,,110530,001,2023-07-24_20h58.17.697,arm3_q,2022.2.5,Win32,60.09254252,605bb96c5facde74270615aa,64aeaab685a29f4ca249be02,64bec98a767a4dbcd71dc784,right,-1,0.6929,0.35,16,-0.004680723,0.3831,,,,,,223,0,223,0,1,,,,,
,,110530,001,2023-07-24_20h58.17.697,arm3_q,2022.2.5,Win32,60.09254252,605bb96c5facde74270615aa,64aeaab685a29f4ca249be02,64bec98a767a4dbcd71dc784,right,-1,0.6929,0.35,16,-0.01287905,0.4015,,,,,,224,0,224,0,1,,,,,
,,110530,001,2023-07-24_20h58.17.697,arm3_q,2022.2.5,Win32,60.09254252,605bb96c5facde74270615aa,64aeaab685a29f4ca249be02,64bec98a767a4dbcd71dc784,right,-1,0.6929,0.35,16,-0.032232584,0.2178,,,,,,225,0,225,0,1,,,,,
,,110530,001,2023-07-24_20h58.17.697,arm3_q,2022.2.5,Win32,60.09254252,605bb96c5facde74270615aa,64aeaab685a29f4ca249be02,64bec98a767a4dbcd71dc784,right,-1,0.6929,0.35,16,-0.025761113,0.4003,,,,,,226,0,226,0,1,,,,,
,,110530,001,2023-07-24_20h58.17.697,arm3_q,2022.2.5,Win32,60.09254252,605bb96c5facde74270615aa,64aeaab685a29f4ca249be02,64bec98a767a4dbcd71dc784,right,-1,0.6929,0.35,16,-0.044573798,0.4804,,,,,,227,0,227,0,1,,,,,
,,110530,001,2023-07-24_20h58.17.697,arm3_q,2022.2.5,Win32,60.09254252,605bb96c5facde74270615aa,64aeaab685a29f4ca249be02,64bec98a767a4dbcd71dc784,right,-1,0.6929,0.35,16,-0.043493052,0.4505,,,,,,228,0,228,0,1,,,,,
,,110530,001,2023-07-24_20h58.17.697,arm3_q,2022.2.5,Win32,60.09254252,605bb96c5facde74270615aa,64aeaab685a29f4ca249be02,64bec98a767a4dbcd71dc784,down,-1,0.6929,0.35,17,0,0.8665,,,,,,229,0,229,0,1,,,,,
,,110530,001,2023-07-24_20h58.17.697,arm3_q,2022.2.5,Win32,60.09254252,605bb96c5facde74270615aa,64aeaab685a29f4ca249be02,64bec98a767a4dbcd71dc784,right,-1,0.6929,0.35,17,-0.020394356,1.1168,,,,,,230,0,230,0,1,,,,,
,,110530,001,2023-07-24_20h58.17.697,arm3_q,2022.2.5,Win32,60.09254252,605bb96c5facde74270615aa,64aeaab685a29f4ca249be02,64bec98a767a4dbcd71dc784,right,-1,0.6929,0.35,17,-0.024876984,0.2827,,,,,,231,0,231,0,1,,,,,
,,110530,001,2023-07-24_20h58.17.697,arm3_q,2022.2.5,Win32,60.09254252,605bb96c5facde74270615aa,64aeaab685a29f4ca249be02,64bec98a767a4dbcd71dc784,right,-1,0.6929,0.35,17,-0.037767283,0.2344,,,,,,232,0,232,0,1,,,,,
,,110530,001,2023-07-24_20h58.17.697,arm3_q,2022.2.5,Win32,60.09254252,605bb96c5facde74270615aa,64aeaab685a29f4ca249be02,64bec98a767a4dbcd71dc784,right,-1,0.6929,0.35,17,-0.041996995,0.2333,,,,,,233,0,233,0,1,,,,,
,,110530,001,2023-07-24_20h58.17.697,arm3_q,2022.2.5,Win32,60.09254252,605bb96c5facde74270615aa,64aeaab685a29f4ca249be02,64bec98a767a4dbcd71dc784,right,-1,0.6929,0.35,17,-0.044310833,0.2842,,,,,,234,0,234,0,1,,,,,
,,110530,001,2023-07-24_20h58.17.697,arm3_q,2022.2.5,Win32,60.09254252,605bb96c5facde74270615aa,64aeaab685a29f4ca249be02,64bec98a767a4dbcd71dc784,right,-1,0.6929,0.35,17,-0.042402382,0.2728,,,,,,235,0,235,0,1,,,,,
,,110530,001,2023-07-24_20h58.17.697,arm3_q,2022.2.5,Win32,60.09254252,605bb96c5facde74270615aa,64aeaab685a29f4ca249be02,64bec98a767a4dbcd71dc784,right,-1,0.6929,0.35,17,-0.020179503,0.6559,,,,,,236,0,236,0,1,,,,,
,,110530,001,2023-07-24_20h58.17.697,arm3_q,2022.2.5,Win32,60.09254252,605bb96c5facde74270615aa,64aeaab685a29f4ca249be02,64bec98a767a4dbcd71dc784,right,-1,0.6929,0.35,17,-0.034976009,0.3858,,,,,,237,0,237,0,1,,,,,
,,110530,001,2023-07-24_20h58.17.697,arm3_q,2022.2.5,Win32,60.09254252,605bb96c5facde74270615aa,64aeaab685a29f4ca249be02,64bec98a767a4dbcd71dc784,right,-1,0.6929,0.35,17,-0.067986625,0.7498,,,,,,238,0,238,0,1,,,,,
,,110530,001,2023-07-24_20h58.17.697,arm3_q,2022.2.5,Win32,60.09254252,605bb96c5facde74270615aa,64aeaab685a29f4ca249be02,64bec98a767a4dbcd71dc784,right,-1,0.6929,0.35,17,-0.051419324,0.6993,,,,,,239,0,239,0,1,,,,,
,,110530,001,2023-07-24_20h58.17.697,arm3_q,2022.2.5,Win32,60.09254252,605bb96c5facde74270615aa,64aeaab685a29f4ca249be02,64bec98a767a4dbcd71dc784,down,1,0.6929,0.35,17,0,0.7165,,,,,,240,0,240,0,1,,,,,
,,110530,001,2023-07-24_20h58.17.697,arm3_q,2022.2.5,Win32,60.09254252,605bb96c5facde74270615aa,64aeaab685a29f4ca249be02,64bec98a767a4dbcd71dc784,right,1,0.6929,0.35,17,-0.019628787,0.9373,,,,,,241,0,241,0,1,,,,,
,,110530,001,2023-07-24_20h58.17.697,arm3_q,2022.2.5,Win32,60.09254252,605bb96c5facde74270615aa,64aeaab685a29f4ca249be02,64bec98a767a4dbcd71dc784,right,1,0.6929,0.35,17,0.010258844,0.371,,,,,,242,0,242,0,1,,,,,
,,110530,001,2023-07-24_20h58.17.697,arm3_q,2022.2.5,Win32,60.09254252,605bb96c5facde74270615aa,64aeaab685a29f4ca249be02,64bec98a767a4dbcd71dc784,right,1,0.6929,0.35,17,0.017305276,0.5669,,,,,,243,0,243,0,1,,,,,
,,110530,001,2023-07-24_20h58.17.697,arm3_q,2022.2.5,Win32,60.09254252,605bb96c5facde74270615aa,64aeaab685a29f4ca249be02,64bec98a767a4dbcd71dc784,right,1,0.6929,0.35,17,0.017011623,0.1668,,,,,,244,0,244,0,1,,,,,
,,110530,001,2023-07-24_20h58.17.697,arm3_q,2022.2.5,Win32,60.09254252,605bb96c5facde74270615aa,64aeaab685a29f4ca249be02,64bec98a767a4dbcd71dc784,right,1,0.6929,0.35,17,0.033272772,0.2166,,,,,,245,0,245,0,1,,,,,
,,110530,001,2023-07-24_20h58.17.697,arm3_q,2022.2.5,Win32,60.09254252,605bb96c5facde74270615aa,64aeaab685a29f4ca249be02,64bec98a767a4dbcd71dc784,right,1,0.6929,0.35,17,0.026095286,0.3338,,,,,,246,0,246,0,1,,,,,
,,110530,001,2023-07-24_20h58.17.697,arm3_q,2022.2.5,Win32,60.09254252,605bb96c5facde74270615aa,64aeaab685a29f4ca249be02,64bec98a767a4dbcd71dc784,right,1,0.6929,0.35,17,0.01430282,0.5344,,,,,,247,0,247,0,1,,,,,
,,110530,001,2023-07-24_20h58.17.697,arm3_q,2022.2.5,Win32,60.09254252,605bb96c5facde74270615aa,64aeaab685a29f4ca249be02,64bec98a767a4dbcd71dc784,right,1,0.6929,0.35,17,0.027552897,1.674,,,,,,248,0,248,0,1,,,,,
,,110530,001,2023-07-24_20h58.17.697,arm3_q,2022.2.5,Win32,60.09254252,605bb96c5facde74270615aa,64aeaab685a29f4ca249be02,64bec98a767a4dbcd71dc784,up,-1,0.6929,0.35,17,0,0.8832,,,,,,249,0,249,0,1,,,,,
,,110530,001,2023-07-24_20h58.17.697,arm3_q,2022.2.5,Win32,60.09254252,605bb96c5facde74270615aa,64aeaab685a29f4ca249be02,64bec98a767a4dbcd71dc784,right,-1,0.6929,0.35,17,0.012030793,0.8342,,,,,,250,0,250,0,1,,,,,
,,110530,001,2023-07-24_20h58.17.697,arm3_q,2022.2.5,Win32,60.09254252,605bb96c5facde74270615aa,64aeaab685a29f4ca249be02,64bec98a767a4dbcd71dc784,right,-1,0.6929,0.35,17,0.005175464,0.2019,,,,,,251,0,251,0,1,,,,,
,,110530,001,2023-07-24_20h58.17.697,arm3_q,2022.2.5,Win32,60.09254252,605bb96c5facde74270615aa,64aeaab685a29f4ca249be02,64bec98a767a4dbcd71dc784,right,-1,0.6929,0.35,17,-0.013076261,0.2004,,,,,,252,0,252,0,1,,,,,
,,110530,001,2023-07-24_20h58.17.697,arm3_q,2022.2.5,Win32,60.09254252,605bb96c5facde74270615aa,64aeaab685a29f4ca249be02,64bec98a767a4dbcd71dc784,right,-1,0.6929,0.35,17,-0.005207356,0.166,,,,,,253,0,253,0,1,,,,,
,,110530,001,2023-07-24_20h58.17.697,arm3_q,2022.2.5,Win32,60.09254252,605bb96c5facde74270615aa,64aeaab685a29f4ca249be02,64bec98a767a4dbcd71dc784,right,-1,0.6929,0.35,17,-0.021409664,0.1715,,,,,,254,0,254,0,1,,,,,
,,110530,001,2023-07-24_20h58.17.697,arm3_q,2022.2.5,Win32,60.09254252,605bb96c5facde74270615aa,64aeaab685a29f4ca249be02,64bec98a767a4dbcd71dc784,right,-1,0.6929,0.35,17,-0.053025753,0.2344,,,,,,255,0,255,0,1,,,,,
,,110530,001,2023-07-24_20h58.17.697,arm3_q,2022.2.5,Win32,60.09254252,605bb96c5facde74270615aa,64aeaab685a29f4ca249be02,64bec98a767a4dbcd71dc784,right,-1,0.6929,0.35,17,-0.062816306,0.2502,,,,,,256,0,256,0,1,,,,,
,,110530,001,2023-07-24_20h58.17.697,arm3_q,2022.2.5,Win32,60.09254252,605bb96c5facde74270615aa,64aeaab685a29f4ca249be02,64bec98a767a4dbcd71dc784,right,-1,0.6929,0.35,17,-0.120647464,0.2665,,,,,,257,0,257,0,1,,,,,
,,110530,001,2023-07-24_20h58.17.697,arm3_q,2022.2.5,Win32,60.09254252,605bb96c5facde74270615aa,64aeaab685a29f4ca249be02,64bec98a767a4dbcd71dc784,down,1,0.6929,0.35,17,0,0.3507,,,,,,258,0,258,0,1,,,,,
,,110530,001,2023-07-24_20h58.17.697,arm3_q,2022.2.5,Win32,60.09254252,605bb96c5facde74270615aa,64aeaab685a29f4ca249be02,64bec98a767a4dbcd71dc784,right,1,0.6929,0.35,17,0.026549945,0.7012,,,,,,259,0,259,0,1,,,,,
,,110530,001,2023-07-24_20h58.17.697,arm3_q,2022.2.5,Win32,60.09254252,605bb96c5facde74270615aa,64aeaab685a29f4ca249be02,64bec98a767a4dbcd71dc784,right,1,0.6929,0.35,17,0.030813509,0.284,,,,,,260,0,260,0,1,,,,,
,,110530,001,2023-07-24_20h58.17.697,arm3_q,2022.2.5,Win32,60.09254252,605bb96c5facde74270615aa,64aeaab685a29f4ca249be02,64bec98a767a4dbcd71dc784,right,1,0.6929,0.35,17,0.062790416,0.2052,,,,,,261,0,261,0,1,,,,,
,,110530,001,2023-07-24_20h58.17.697,arm3_q,2022.2.5,Win32,60.09254252,605bb96c5facde74270615aa,64aeaab685a29f4ca249be02,64bec98a767a4dbcd71dc784,right,1,0.6929,0.35,17,0.074925482,0.217,,,,,,262,0,262,0,1,,,,,
,,110530,001,2023-07-24_20h58.17.697,arm3_q,2022.2.5,Win32,60.09254252,605bb96c5facde74270615aa,64aeaab685a29f4ca249be02,64bec98a767a4dbcd71dc784,right,1,0.6929,0.35,17,0.100248839,0.2267,,,,,,263,0,263,0,1,,,,,
,,110530,001,2023-07-24_20h58.17.697,arm3_q,2022.2.5,Win32,60.09254252,605bb96c5facde74270615aa,64aeaab685a29f4ca249be02,64bec98a767a4dbcd71dc784,up,1,0.6929,0.35,18,0,0.3501,,,,,,264,0,264,0,1,,,,,
,,110530,001,2023-07-24_20h58.17.697,arm3_q,2022.2.5,Win32,60.09254252,605bb96c5facde74270615aa,64aeaab685a29f4ca249be02,64bec98a767a4dbcd71dc784,right,1,0.6929,0.35,18,-0.010647945,0.8499,,,,,,265,0,265,0,1,,,,,
,,110530,001,2023-07-24_20h58.17.697,arm3_q,2022.2.5,Win32,60.09254252,605bb96c5facde74270615aa,64aeaab685a29f4ca249be02,64bec98a767a4dbcd71dc784,right,1,0.6929,0.35,18,0.002576969,0.2168,,,,,,266,0,266,0,1,,,,,
,,110530,001,2023-07-24_20h58.17.697,arm3_q,2022.2.5,Win32,60.09254252,605bb96c5facde74270615aa,64aeaab685a29f4ca249be02,64bec98a767a4dbcd71dc784,right,1,0.6929,0.35,18,0.023129539,0.214,,,,,,267,0,267,0,1,,,,,
,,110530,001,2023-07-24_20h58.17.697,arm3_q,2022.2.5,Win32,60.09254252,605bb96c5facde74270615aa,64aeaab685a29f4ca249be02,64bec98a767a4dbcd71dc784,right,1,0.6929,0.35,18,0.052680471,0.2177,,,,,,268,0,268,0,1,,,,,
,,110530,001,2023-07-24_20h58.17.697,arm3_q,2022.2.5,Win32,60.09254252,605bb96c5facde74270615aa,64aeaab685a29f4ca249be02,64bec98a767a4dbcd71dc784,right,1,0.6929,0.35,18,0.087495462,0.2335,,,,,,269,0,269,0,1,,,,,
,,110530,001,2023-07-24_20h58.17.697,arm3_q,2022.2.5,Win32,60.09254252,605bb96c5facde74270615aa,64aeaab685a29f4ca249be02,64bec98a767a4dbcd71dc784,up,-1,0.6929,0.35,19,0,0.3075,,,,,,270,0,270,0,1,,,,,
,,110530,001,2023-07-24_20h58.17.697,arm3_q,2022.2.5,Win32,60.09254252,605bb96c5facde74270615aa,64aeaab685a29f4ca249be02,64bec98a767a4dbcd71dc784,right,-1,0.6929,0.35,19,0.001077896,0.784,,,,,,271,0,271,0,1,,,,,
,,110530,001,2023-07-24_20h58.17.697,arm3_q,2022.2.5,Win32,60.09254252,605bb96c5facde74270615aa,64aeaab685a29f4ca249be02,64bec98a767a4dbcd71dc784,right,-1,0.6929,0.35,19,0.023973852,0.2265,,,,,,272,0,272,0,1,,,,,
,,110530,001,2023-07-24_20h58.17.697,arm3_q,2022.2.5,Win32,60.09254252,605bb96c5facde74270615aa,64aeaab685a29f4ca249be02,64bec98a767a4dbcd71dc784,right,-1,0.6929,0.35,19,-0.004574617,0.2173,,,,,,273,0,273,0,1,,,,,
,,110530,001,2023-07-24_20h58.17.697,arm3_q,2022.2.5,Win32,60.09254252,605bb96c5facde74270615aa,64aeaab685a29f4ca249be02,64bec98a767a4dbcd71dc784,right,-1,0.6929,0.35,19,0.012972988,0.2333,,,,,,274,0,274,0,1,,,,,
,,110530,001,2023-07-24_20h58.17.697,arm3_q,2022.2.5,Win32,60.09254252,605bb96c5facde74270615aa,64aeaab685a29f4ca249be02,64bec98a767a4dbcd71dc784,right,-1,0.6929,0.35,19,0.001150369,0.2841,,,,,,275,0,275,0,1,,,,,
,,110530,001,2023-07-24_20h58.17.697,arm3_q,2022.2.5,Win32,60.09254252,605bb96c5facde74270615aa,64aeaab685a29f4ca249be02,64bec98a767a4dbcd71dc784,right,-1,0.6929,0.35,19,-0.025049534,0.4548,,,,,,276,0,276,0,1,,,,,
,,110530,001,2023-07-24_20h58.17.697,arm3_q,2022.2.5,Win32,60.09254252,605bb96c5facde74270615aa,64aeaab685a29f4ca249be02,64bec98a767a4dbcd71dc784,right,-1,0.6929,0.35,19,-0.038134229,0.6069,,,,,,277,0,277,0,1,,,,,
,,110530,001,2023-07-24_20h58.17.697,arm3_q,2022.2.5,Win32,60.09254252,605bb96c5facde74270615aa,64aeaab685a29f4ca249be02,64bec98a767a4dbcd71dc784,down,-1,0.6929,0.35,19,0,0.4165,,,,,,278,0,278,0,1,,,,,
,,110530,001,2023-07-24_20h58.17.697,arm3_q,2022.2.5,Win32,60.09254252,605bb96c5facde74270615aa,64aeaab685a29f4ca249be02,64bec98a767a4dbcd71dc784,right,-1,0.6929,0.35,19,-0.000180441,0.7671,,,,,,279,0,279,0,1,,,,,
,,110530,001,2023-07-24_20h58.17.697,arm3_q,2022.2.5,Win32,60.09254252,605bb96c5facde74270615aa,64aeaab685a29f4ca249be02,64bec98a767a4dbcd71dc784,right,-1,0.6929,0.35,19,-0.013351489,0.2833,,,,,,280,0,280,0,1,,,,,
,,110530,001,2023-07-24_20h58.17.697,arm3_q,2022.2.5,Win32,60.09254252,605bb96c5facde74270615aa,64aeaab685a29f4ca249be02,64bec98a767a4dbcd71dc784,right,-1,0.6929,0.35,19,-0.038736682,0.2178,,,,,,281,0,281,0,1,,,,,
,,110530,001,2023-07-24_20h58.17.697,arm3_q,2022.2.5,Win32,60.09254252,605bb96c5facde74270615aa,64aeaab685a29f4ca249be02,64bec98a767a4dbcd71dc784,right,-1,0.6929,0.35,19,-0.068959233,0.2336,,,,,,282,0,282,0,1,,,,,
,,110530,001,2023-07-24_20h58.17.697,arm3_q,2022.2.5,Win32,60.09254252,605bb96c5facde74270615aa,64aeaab685a29f4ca249be02,64bec98a767a4dbcd71dc784,right,-1,0.6929,0.35,19,-0.090973553,0.2335,,,,,,283,0,283,0,1,,,,,
,,110530,001,2023-07-24_20h58.17.697,arm3_q,2022.2.5,Win32,60.09254252,605bb96c5facde74270615aa,64aeaab685a29f4ca249be02,64bec98a767a4dbcd71dc784,right,-1,0.6929,0.35,19,-0.079276676,0.4199,,,,,,284,0,284,0,1,,,,,
,,110530,001,2023-07-24_20h58.17.697,arm3_q,2022.2.5,Win32,60.09254252,605bb96c5facde74270615aa,64aeaab685a29f4ca249be02,64bec98a767a4dbcd71dc784,right,-1,0.6929,0.35,19,-0.093460697,0.3004,,,,,,285,0,285,0,1,,,,,
,,110530,001,2023-07-24_20h58.17.697,arm3_q,2022.2.5,Win32,60.09254252,605bb96c5facde74270615aa,64aeaab685a29f4ca249be02,64bec98a767a4dbcd71dc784,right,-1,0.6929,0.35,19,-0.086618723,0.4339,,,,,,286,0,286,0,1,,,,,
,,110530,001,2023-07-24_20h58.17.697,arm3_q,2022.2.5,Win32,60.09254252,605bb96c5facde74270615aa,64aeaab685a29f4ca249be02,64bec98a767a4dbcd71dc784,right,-1,0.6929,0.35,19,-0.06554631,0.4669,,,,,,287,0,287,0,1,,,,,
,,110530,001,2023-07-24_20h58.17.697,arm3_q,2022.2.5,Win32,60.09254252,605bb96c5facde74270615aa,64aeaab685a29f4ca249be02,64bec98a767a4dbcd71dc784,right,-1,0.6929,0.35,19,-0.079380719,0.4834,,,,,,288,0,288,0,1,,,,,
,,110530,001,2023-07-24_20h58.17.697,arm3_q,2022.2.5,Win32,60.09254252,605bb96c5facde74270615aa,64aeaab685a29f4ca249be02,64bec98a767a4dbcd71dc784,right,-1,0.6929,0.35,19,-0.066154447,0.4756,,,,,,289,0,289,0,1,,,,,
,,110530,001,2023-07-24_20h58.17.697,arm3_q,2022.2.5,Win32,60.09254252,605bb96c5facde74270615aa,64aeaab685a29f4ca249be02,64bec98a767a4dbcd71dc784,right,-1,0.6929,0.35,19,-0.050197924,2.5491,,,,,,290,0,290,0,1,,,,,
,,110530,001,2023-07-24_20h58.17.697,arm3_q,2022.2.5,Win32,60.09254252,605bb96c5facde74270615aa,64aeaab685a29f4ca249be02,64bec98a767a4dbcd71dc784,down,1,0.6929,0.35,20,0,0.5921,,,,,,291,0,291,0,1,,,,,
,,110530,001,2023-07-24_20h58.17.697,arm3_q,2022.2.5,Win32,60.09254252,605bb96c5facde74270615aa,64aeaab685a29f4ca249be02,64bec98a767a4dbcd71dc784,right,1,0.6929,0.35,20,0.042387764,0.8091,,,,,,292,0,292,0,1,,,,,
,,110530,001,2023-07-24_20h58.17.697,arm3_q,2022.2.5,Win32,60.09254252,605bb96c5facde74270615aa,64aeaab685a29f4ca249be02,64bec98a767a4dbcd71dc784,right,1,0.6929,0.35,20,0.068071072,0.2331,,,,,,293,0,293,0,1,,,,,
,,110530,001,2023-07-24_20h58.17.697,arm3_q,2022.2.5,Win32,60.09254252,605bb96c5facde74270615aa,64aeaab685a29f4ca249be02,64bec98a767a4dbcd71dc784,right,1,0.6929,0.35,20,0.068134587,0.2337,,,,,,294,0,294,0,1,,,,,
,,110530,001,2023-07-24_20h58.17.697,arm3_q,2022.2.5,Win32,60.09254252,605bb96c5facde74270615aa,64aeaab685a29f4ca249be02,64bec98a767a4dbcd71dc784,right,1,0.6929,0.35,20,0.048970898,1.5995,,,,,,295,0,295,0,1,,,,,
,,110530,001,2023-07-24_20h58.17.697,arm3_q,2022.2.5,Win32,60.09254252,605bb96c5facde74270615aa,64aeaab685a29f4ca249be02,64bec98a767a4dbcd71dc784,up,1,0.6929,0.35,20,0,0.5841,,,,,,296,0,296,0,1,,,,,
,,110530,001,2023-07-24_20h58.17.697,arm3_q,2022.2.5,Win32,60.09254252,605bb96c5facde74270615aa,64aeaab685a29f4ca249be02,64bec98a767a4dbcd71dc784,right,1,0.6929,0.35,20,0.016098184,0.9335,,,,,,297,0,297,0,1,,,,,
,,110530,001,2023-07-24_20h58.17.697,arm3_q,2022.2.5,Win32,60.09254252,605bb96c5facde74270615aa,64aeaab685a29f4ca249be02,64bec98a767a4dbcd71dc784,right,1,0.6929,0.35,20,0.023948698,0.1751,,,,,,298,0,298,0,1,,,,,
,,110530,001,2023-07-24_20h58.17.697,arm3_q,2022.2.5,Win32,60.09254252,605bb96c5facde74270615aa,64aeaab685a29f4ca249be02,64bec98a767a4dbcd71dc784,right,1,0.6929,0.35,20,0.018453082,0.1667,,,,,,299,0,299,0,1,,,,,
,,110530,001,2023-07-24_20h58.17.697,arm3_q,2022.2.5,Win32,60.09254252,605bb96c5facde74270615aa,64aeaab685a29f4ca249be02,64bec98a767a4dbcd71dc784,right,1,0.6929,0.35,20,0.047217262,0.2173,,,,,,300,0,300,0,1,,,,,
,,110530,001,2023-07-24_20h58.17.697,arm3_q,2022.2.5,Win32,60.09254252,605bb96c5facde74270615aa,64aeaab685a29f4ca249be02,64bec98a767a4dbcd71dc784,right,1,0.6929,0.35,20,0.058353608,0.3171,,,,,,301,0,301,0,1,,,,,
,,110530,001,2023-07-24_20h58.17.697,arm3_q,2022.2.5,Win32,60.09254252,605bb96c5facde74270615aa,64aeaab685a29f4ca249be02,64bec98a767a4dbcd71dc784,up,1,0.6929,0.35,20,0,0.7005,,,,,,302,0,302,0,1,,,,,
,,110530,001,2023-07-24_20h58.17.697,arm3_q,2022.2.5,Win32,60.09254252,605bb96c5facde74270615aa,64aeaab685a29f4ca249be02,64bec98a767a4dbcd71dc784,right,1,0.6929,0.35,20,0.017664574,0.9997,,,,,,303,0,303,0,1,,,,,
,,110530,001,2023-07-24_20h58.17.697,arm3_q,2022.2.5,Win32,60.09254252,605bb96c5facde74270615aa,64aeaab685a29f4ca249be02,64bec98a767a4dbcd71dc784,right,1,0.6929,0.35,20,0.022968089,0.2176,,,,,,304,0,304,0,1,,,,,
,,110530,001,2023-07-24_20h58.17.697,arm3_q,2022.2.5,Win32,60.09254252,605bb96c5facde74270615aa,64aeaab685a29f4ca249be02,64bec98a767a4dbcd71dc784,right,1,0.6929,0.35,20,0.033708219,0.2499,,,,,,305,0,305,0,1,,,,,
,,110530,001,2023-07-24_20h58.17.697,arm3_q,2022.2.5,Win32,60.09254252,605bb96c5facde74270615aa,64aeaab685a29f4ca249be02,64bec98a767a4dbcd71dc784,right,1,0.6929,0.35,20,0.042543023,0.1839,,,,,,306,0,306,0,1,,,,,
,,110530,001,2023-07-24_20h58.17.697,arm3_q,2022.2.5,Win32,60.09254252,605bb96c5facde74270615aa,64aeaab685a29f4ca249be02,64bec98a767a4dbcd71dc784,right,1,0.6929,0.35,20,0.049120743,0.2231,,,,,,307,0,307,0,1,,,,,
,,110530,001,2023-07-24_20h58.17.697,arm3_q,2022.2.5,Win32,60.09254252,605bb96c5facde74270615aa,64aeaab685a29f4ca249be02,64bec98a767a4dbcd71dc784,right,1,0.6929,0.35,20,0.061024837,0.3343,,,,,,308,0,308,0,1,,,,,
,,110530,001,2023-07-24_20h58.17.697,arm3_q,2022.2.5,Win32,60.09254252,605bb96c5facde74270615aa,64aeaab685a29f4ca249be02,64bec98a767a4dbcd71dc784,right,1,0.6929,0.35,20,0.098055036,0.417,,,,,,309,0,309,0,1,,,,,
,,110530,001,2023-07-24_20h58.17.697,arm3_q,2022.2.5,Win32,60.09254252,605bb96c5facde74270615aa,64aeaab685a29f4ca249be02,64bec98a767a4dbcd71dc784,up,1,0.6929,0.35,21,0,0.6579,,,,,,310,0,310,0,1,,,,,
,,110530,001,2023-07-24_20h58.17.697,arm3_q,2022.2.5,Win32,60.09254252,605bb96c5facde74270615aa,64aeaab685a29f4ca249be02,64bec98a767a4dbcd71dc784,right,1,0.6929,0.35,21,0.028288468,0.617,,,,,,311,0,311,0,1,,,,,
,,110530,001,2023-07-24_20h58.17.697,arm3_q,2022.2.5,Win32,60.09254252,605bb96c5facde74270615aa,64aeaab685a29f4ca249be02,64bec98a767a4dbcd71dc784,right,1,0.6929,0.35,21,0.073160426,0.1839,,,,,,312,0,312,0,1,,,,,
,,110530,001,2023-07-24_20h58.17.697,arm3_q,2022.2.5,Win32,60.09254252,605bb96c5facde74270615aa,64aeaab685a29f4ca249be02,64bec98a767a4dbcd71dc784,right,1,0.6929,0.35,21,0.099103545,0.1759,,,,,,313,0,313,0,1,,,,,
,,110530,001,2023-07-24_20h58.17.697,arm3_q,2022.2.5,Win32,60.09254252,605bb96c5facde74270615aa,64aeaab685a29f4ca249be02,64bec98a767a4dbcd71dc784,right,1,0.6929,0.35,21,0.104173733,0.1696,,,,,,314,0,314,0,1,,,,,
,,110530,001,2023-07-24_20h58.17.697,arm3_q,2022.2.5,Win32,60.09254252,605bb96c5facde74270615aa,64aeaab685a29f4ca249be02,64bec98a767a4dbcd71dc784,right,1,0.6929,0.35,21,0.132199975,0.2169,,,,,,315,0,315,0,1,,,,,
,,110530,001,2023-07-24_20h58.17.697,arm3_q,2022.2.5,Win32,60.09254252,605bb96c5facde74270615aa,64aeaab685a29f4ca249be02,64bec98a767a4dbcd71dc784,up,1,0.6929,0.35,22,0,0.3553,,,,,,316,0,316,0,1,,,,,
,,110530,001,2023-07-24_20h58.17.697,arm3_q,2022.2.5,Win32,60.09254252,605bb96c5facde74270615aa,64aeaab685a29f4ca249be02,64bec98a767a4dbcd71dc784,right,1,0.6929,0.35,22,0.014751463,0.8507,,,,,,317,0,317,0,1,,,,,
,,110530,001,2023-07-24_20h58.17.697,arm3_q,2022.2.5,Win32,60.09254252,605bb96c5facde74270615aa,64aeaab685a29f4ca249be02,64bec98a767a4dbcd71dc784,right,1,0.6929,0.35,22,0.002169422,0.1841,,,,,,318,0,318,0,1,,,,,
,,110530,001,2023-07-24_20h58.17.697,arm3_q,2022.2.5,Win32,60.09254252,605bb96c5facde74270615aa,64aeaab685a29f4ca249be02,64bec98a767a4dbcd71dc784,right,1,0.6929,0.35,22,0.012872576,0.1591,,,,,,319,0,319,0,1,,,,,
,,110530,001,2023-07-24_20h58.17.697,arm3_q,2022.2.5,Win32,60.09254252,605bb96c5facde74270615aa,64aeaab685a29f4ca249be02,64bec98a767a4dbcd71dc784,right,1,0.6929,0.35,22,0.059801758,0.2339,,,,,,320,0,320,0,1,,,,,
,,110530,001,2023-07-24_20h58.17.697,arm3_q,2022.2.5,Win32,60.09254252,605bb96c5facde74270615aa,64aeaab685a29f4ca249be02,64bec98a767a4dbcd71dc784,right,1,0.6929,0.35,22,0.049593953,0.2244,,,,,,321,0,321,0,1,,,,,
,,110530,001,2023-07-24_20h58.17.697,arm3_q,2022.2.5,Win32,60.09254252,605bb96c5facde74270615aa,64aeaab685a29f4ca249be02,64bec98a767a4dbcd71dc784,right,1,0.6929,0.35,22,0.046426441,0.218,,,,,,322,0,322,0,1,,,,,
,,110530,001,2023-07-24_20h58.17.697,arm3_q,2022.2.5,Win32,60.09254252,605bb96c5facde74270615aa,64aeaab685a29f4ca249be02,64bec98a767a4dbcd71dc784,right,1,0.6929,0.35,22,0.063641115,0.2667,,,,,,323,0,323,0,1,,,,,
,,110530,001,2023-07-24_20h58.17.697,arm3_q,2022.2.5,Win32,60.09254252,605bb96c5facde74270615aa,64aeaab685a29f4ca249be02,64bec98a767a4dbcd71dc784,right,1,0.6929,0.35,22,0.033610938,0.4671,,,,,,324,0,324,0,1,,,,,
,,110530,001,2023-07-24_20h58.17.697,arm3_q,2022.2.5,Win32,60.09254252,605bb96c5facde74270615aa,64aeaab685a29f4ca249be02,64bec98a767a4dbcd71dc784,right,1,0.6929,0.35,22,0.051415841,0.4172,,,,,,325,0,325,0,1,,,,,
,,110530,001,2023-07-24_20h58.17.697,arm3_q,2022.2.5,Win32,60.09254252,605bb96c5facde74270615aa,64aeaab685a29f4ca249be02,64bec98a767a4dbcd71dc784,right,1,0.6929,0.35,22,0.03441969,0.3833,,,,,,326,0,326,0,1,,,,,
,,110530,001,2023-07-24_20h58.17.697,arm3_q,2022.2.5,Win32,60.09254252,605bb96c5facde74270615aa,64aeaab685a29f4ca249be02,64bec98a767a4dbcd71dc784,right,1,0.6929,0.35,22,0.024033026,0.7997,,,,,,327,0,327,0,1,,,,,
,,110530,001,2023-07-24_20h58.17.697,arm3_q,2022.2.5,Win32,60.09254252,605bb96c5facde74270615aa,64aeaab685a29f4ca249be02,64bec98a767a4dbcd71dc784,right,1,0.6929,0.35,22,0.035929374,0.8375,,,,,,328,0,328,0,1,,,,,
,,110530,001,2023-07-24_20h58.17.697,arm3_q,2022.2.5,Win32,60.09254252,605bb96c5facde74270615aa,64aeaab685a29f4ca249be02,64bec98a767a4dbcd71dc784,up,-1,0.6929,0.35,23,0,0.4593,,,,,,329,0,329,0,1,,,,,
,,110530,001,2023-07-24_20h58.17.697,arm3_q,2022.2.5,Win32,60.09254252,605bb96c5facde74270615aa,64aeaab685a29f4ca249be02,64bec98a767a4dbcd71dc784,right,-1,0.6929,0.35,23,0.004850021,0.8331,,,,,,330,0,330,0,1,,,,,
,,110530,001,2023-07-24_20h58.17.697,arm3_q,2022.2.5,Win32,60.09254252,605bb96c5facde74270615aa,64aeaab685a29f4ca249be02,64bec98a767a4dbcd71dc784,right,-1,0.6929,0.35,23,-0.016727176,0.1839,,,,,,331,0,331,0,1,,,,,
,,110530,001,2023-07-24_20h58.17.697,arm3_q,2022.2.5,Win32,60.09254252,605bb96c5facde74270615aa,64aeaab685a29f4ca249be02,64bec98a767a4dbcd71dc784,right,-1,0.6929,0.35,23,-0.063335267,0.1996,,,,,,332,0,332,0,1,,,,,
,,110530,001,2023-07-24_20h58.17.697,arm3_q,2022.2.5,Win32,60.09254252,605bb96c5facde74270615aa,64aeaab685a29f4ca249be02,64bec98a767a4dbcd71dc784,right,-1,0.6929,0.35,23,-0.044726117,0.2167,,,,,,333,0,333,0,1,,,,,
,,110530,001,2023-07-24_20h58.17.697,arm3_q,2022.2.5,Win32,60.09254252,605bb96c5facde74270615aa,64aeaab685a29f4ca249be02,64bec98a767a4dbcd71dc784,right,-1,0.6929,0.35,23,-0.073751884,0.206,,,,,,334,0,334,0,1,,,,,
,,110530,001,2023-07-24_20h58.17.697,arm3_q,2022.2.5,Win32,60.09254252,605bb96c5facde74270615aa,64aeaab685a29f4ca249be02,64bec98a767a4dbcd71dc784,right,-1,0.6929,0.35,23,-0.120668954,0.7383,,,,,,335,0,335,0,1,,,,,
,,110530,001,2023-07-24_20h58.17.697,arm3_q,2022.2.5,Win32,60.09254252,605bb96c5facde74270615aa,64aeaab685a29f4ca249be02,64bec98a767a4dbcd71dc784,down,1,0.6929,0.35,24,0,0.5501,,,,,,336,0,336,0,1,,,,,
,,110530,001,2023-07-24_20h58.17.697,arm3_q,2022.2.5,Win32,60.09254252,605bb96c5facde74270615aa,64aeaab685a29f4ca249be02,64bec98a767a4dbcd71dc784,right,1,0.6929,0.35,24,0.037987515,0.8667,,,,,,337,0,337,0,1,,,,,
,,110530,001,2023-07-24_20h58.17.697,arm3_q,2022.2.5,Win32,60.09254252,605bb96c5facde74270615aa,64aeaab685a29f4ca249be02,64bec98a767a4dbcd71dc784,right,1,0.6929,0.35,24,0.046260489,0.1924,,,,,,338,0,338,0,1,,,,,
,,110530,001,2023-07-24_20h58.17.697,arm3_q,2022.2.5,Win32,60.09254252,605bb96c5facde74270615aa,64aeaab685a29f4ca249be02,64bec98a767a4dbcd71dc784,right,1,0.6929,0.35,24,0.066199544,0.234,,,,,,339,0,339,0,1,,,,,
,,110530,001,2023-07-24_20h58.17.697,arm3_q,2022.2.5,Win32,60.09254252,605bb96c5facde74270615aa,64aeaab685a29f4ca249be02,64bec98a767a4dbcd71dc784,right,1,0.6929,0.35,24,0.077067551,0.252,,,,,,340,0,340,0,1,,,,,
,,110530,001,2023-07-24_20h58.17.697,arm3_q,2022.2.5,Win32,60.09254252,605bb96c5facde74270615aa,64aeaab685a29f4ca249be02,64bec98a767a4dbcd71dc784,right,1,0.6929,0.35,24,0.094809666,0.2464,,,,,,341,0,341,0,1,,,,,
,,110530,001,2023-07-24_20h58.17.697,arm3_q,2022.2.5,Win32,60.09254252,605bb96c5facde74270615aa,64aeaab685a29f4ca249be02,64bec98a767a4dbcd71dc784,up,1,0.6929,0.35,24,0,0.3709,,,,,,342,0,342,0,1,,,,,
,,110530,001,2023-07-24_20h58.17.697,arm3_q,2022.2.5,Win32,60.09254252,605bb96c5facde74270615aa,64aeaab685a29f4ca249be02,64bec98a767a4dbcd71dc784,right,1,0.6929,0.35,24,0.0263941,0.7949,,,,,,343,0,343,0,1,,,,,
,,110530,001,2023-07-24_20h58.17.697,arm3_q,2022.2.5,Win32,60.09254252,605bb96c5facde74270615aa,64aeaab685a29f4ca249be02,64bec98a767a4dbcd71dc784,right,1,0.6929,0.35,24,0.037643973,0.2464,,,,,,344,0,344,0,1,,,,,
,,110530,001,2023-07-24_20h58.17.697,arm3_q,2022.2.5,Win32,60.09254252,605bb96c5facde74270615aa,64aeaab685a29f4ca249be02,64bec98a767a4dbcd71dc784,right,1,0.6929,0.35,24,0.056508987,0.2451,,,,,,345,0,345,0,1,,,,,
,,110530,001,2023-07-24_20h58.17.697,arm3_q,2022.2.5,Win32,60.09254252,605bb96c5facde74270615aa,64aeaab685a29f4ca249be02,64bec98a767a4dbcd71dc784,right,1,0.6929,0.35,24,0.053187969,0.2477,,,,,,346,0,346,0,1,,,,,
,,110530,001,2023-07-24_20h58.17.697,arm3_q,2022.2.5,Win32,60.09254252,605bb96c5facde74270615aa,64aeaab685a29f4ca249be02,64bec98a767a4dbcd71dc784,right,1,0.6929,0.35,24,0.058799486,0.247,,,,,,347,0,347,0,1,,,,,
,,110530,001,2023-07-24_20h58.17.697,arm3_q,2022.2.5,Win32,60.09254252,605bb96c5facde74270615aa,64aeaab685a29f4ca249be02,64bec98a767a4dbcd71dc784,right,1,0.6929,0.35,24,0.092878223,0.2509,,,,,,348,0,348,0,1,,,,,
,,110530,001,2023-07-24_20h58.17.697,arm3_q,2022.2.5,Win32,60.09254252,605bb96c5facde74270615aa,64aeaab685a29f4ca249be02,64bec98a767a4dbcd71dc784,up,1,0.6929,0.35,25,0,0.9806,,,,,,349,0,349,0,1,,,,,
,,110530,001,2023-07-24_20h58.17.697,arm3_q,2022.2.5,Win32,60.09254252,605bb96c5facde74270615aa,64aeaab685a29f4ca249be02,64bec98a767a4dbcd71dc784,right,1,0.6929,0.35,25,-0.003933393,0.7674,,,,,,350,0,350,0,1,,,,,
,,110530,001,2023-07-24_20h58.17.697,arm3_q,2022.2.5,Win32,60.09254252,605bb96c5facde74270615aa,64aeaab685a29f4ca249be02,64bec98a767a4dbcd71dc784,right,1,0.6929,0.35,25,0.009431983,0.2326,,,,,,351,0,351,0,1,,,,,
,,110530,001,2023-07-24_20h58.17.697,arm3_q,2022.2.5,Win32,60.09254252,605bb96c5facde74270615aa,64aeaab685a29f4ca249be02,64bec98a767a4dbcd71dc784,right,1,0.6929,0.35,25,-0.002644853,0.2329,,,,,,352,0,352,0,1,,,,,
,,110530,001,2023-07-24_20h58.17.697,arm3_q,2022.2.5,Win32,60.09254252,605bb96c5facde74270615aa,64aeaab685a29f4ca249be02,64bec98a767a4dbcd71dc784,right,1,0.6929,0.35,25,0.009412403,0.2248,,,,,,353,0,353,0,1,,,,,
,,110530,001,2023-07-24_20h58.17.697,arm3_q,2022.2.5,Win32,60.09254252,605bb96c5facde74270615aa,64aeaab685a29f4ca249be02,64bec98a767a4dbcd71dc784,right,1,0.6929,0.35,25,0.022169724,0.2338,,,,,,354,0,354,0,1,,,,,
,,110530,001,2023-07-24_20h58.17.697,arm3_q,2022.2.5,Win32,60.09254252,605bb96c5facde74270615aa,64aeaab685a29f4ca249be02,64bec98a767a4dbcd71dc784,right,1,0.6929,0.35,25,-0.021725877,0.2252,,,,,,355,0,355,0,1,,,,,
,,110530,001,2023-07-24_20h58.17.697,arm3_q,2022.2.5,Win32,60.09254252,605bb96c5facde74270615aa,64aeaab685a29f4ca249be02,64bec98a767a4dbcd71dc784,right,1,0.6929,0.35,25,-0.016677558,0.2313,,,,,,356,0,356,0,1,,,,,
,,110530,001,2023-07-24_20h58.17.697,arm3_q,2022.2.5,Win32,60.09254252,605bb96c5facde74270615aa,64aeaab685a29f4ca249be02,64bec98a767a4dbcd71dc784,right,1,0.6929,0.35,25,-0.010181857,0.2303,,,,,,357,0,357,0,1,,,,,
,,110530,001,2023-07-24_20h58.17.697,arm3_q,2022.2.5,Win32,60.09254252,605bb96c5facde74270615aa,64aeaab685a29f4ca249be02,64bec98a767a4dbcd71dc784,right,1,0.6929,0.35,25,0.033067118,0.2728,,,,,,358,0,358,0,1,,,,,
,,110530,001,2023-07-24_20h58.17.697,arm3_q,2022.2.5,Win32,60.09254252,605bb96c5facde74270615aa,64aeaab685a29f4ca249be02,64bec98a767a4dbcd71dc784,right,1,0.6929,0.35,25,0.034729808,0.3009,,,,,,359,0,359,0,1,,,,,
,,110530,001,2023-07-24_20h58.17.697,arm3_q,2022.2.5,Win32,60.09254252,605bb96c5facde74270615aa,64aeaab685a29f4ca249be02,64bec98a767a4dbcd71dc784,up,1,0.6929,0.35,26,0,0.5501,,,,,,360,0,360,0,1,,,,,
,,110530,001,2023-07-24_20h58.17.697,arm3_q,2022.2.5,Win32,60.09254252,605bb96c5facde74270615aa,64aeaab685a29f4ca249be02,64bec98a767a4dbcd71dc784,right,1,0.6929,0.35,26,0.039076204,2.0053,,,,,,361,0,361,0,1,,,,,
,,110530,001,2023-07-24_20h58.17.697,arm3_q,2022.2.5,Win32,60.09254252,605bb96c5facde74270615aa,64aeaab685a29f4ca249be02,64bec98a767a4dbcd71dc784,right,1,0.6929,0.35,26,0.042603423,0.231,,,,,,362,0,362,0,1,,,,,
,,110530,001,2023-07-24_20h58.17.697,arm3_q,2022.2.5,Win32,60.09254252,605bb96c5facde74270615aa,64aeaab685a29f4ca249be02,64bec98a767a4dbcd71dc784,right,1,0.6929,0.35,26,0.075288365,0.1989,,,,,,363,0,363,0,1,,,,,
,,110530,001,2023-07-24_20h58.17.697,arm3_q,2022.2.5,Win32,60.09254252,605bb96c5facde74270615aa,64aeaab685a29f4ca249be02,64bec98a767a4dbcd71dc784,right,1,0.6929,0.35,26,0.110131149,0.1973,,,,,,364,0,364,0,1,,,,,
,,110530,001,2023-07-24_20h58.17.697,arm3_q,2022.2.5,Win32,60.09254252,605bb96c5facde74270615aa,64aeaab685a29f4ca249be02,64bec98a767a4dbcd71dc784,up,1,0.6929,0.35,27,0,0.3184,,,,,,365,0,365,0,1,,,,,
,,110530,001,2023-07-24_20h58.17.697,arm3_q,2022.2.5,Win32,60.09254252,605bb96c5facde74270615aa,64aeaab685a29f4ca249be02,64bec98a767a4dbcd71dc784,right,1,0.6929,0.35,27,-0.009773524,1.9163,,,,,,366,0,366,0,1,,,,,
,,110530,001,2023-07-24_20h58.17.697,arm3_q,2022.2.5,Win32,60.09254252,605bb96c5facde74270615aa,64aeaab685a29f4ca249be02,64bec98a767a4dbcd71dc784,right,1,0.6929,0.35,27,0.013804495,0.2581,,,,,,367,0,367,0,1,,,,,
,,110530,001,2023-07-24_20h58.17.697,arm3_q,2022.2.5,Win32,60.09254252,605bb96c5facde74270615aa,64aeaab685a29f4ca249be02,64bec98a767a4dbcd71dc784,right,1,0.6929,0.35,27,-0.00239066,0.1981,,,,,,368,0,368,0,1,,,,,
,,110530,001,2023-07-24_20h58.17.697,arm3_q,2022.2.5,Win32,60.09254252,605bb96c5facde74270615aa,64aeaab685a29f4ca249be02,64bec98a767a4dbcd71dc784,down,1,0.6929,0.35,27,-0.00239066,2.3652,,,,,,369,0,369,0,1,,,,,
,,110530,001,2023-07-24_20h58.17.697,arm3_q,2022.2.5,Win32,60.09254252,605bb96c5facde74270615aa,64aeaab685a29f4ca249be02,64bec98a767a4dbcd71dc784,,,,,,,,,,,,,,,,,,0,0,0,0,1
space,2.1429,110530,001,2023-07-24_20h58.17.697,arm3_q,2022.2.5,Win32,60.09254252,605bb96c5facde74270615aa,64aeaab685a29f4ca249be02,64bec98a767a4dbcd71dc784,right,1,0.8214,0.35,27,0.01505233,1.5796,,,,,,0,0,0,0,1,,,,,
,,110530,001,2023-07-24_20h58.17.697,arm3_q,2022.2.5,Win32,60.09254252,605bb96c5facde74270615aa,64aeaab685a29f4ca249be02,64bec98a767a4dbcd71dc784,right,1,0.8214,0.35,27,0.050829219,0.4001,,,,,,1,0,1,0,1,,,,,
,,110530,001,2023-07-24_20h58.17.697,arm3_q,2022.2.5,Win32,60.09254252,605bb96c5facde74270615aa,64aeaab685a29f4ca249be02,64bec98a767a4dbcd71dc784,right,1,0.8214,0.35,27,0.050748687,0.3218,,,,,,2,0,2,0,1,,,,,
,,110530,001,2023-07-24_20h58.17.697,arm3_q,2022.2.5,Win32,60.09254252,605bb96c5facde74270615aa,64aeaab685a29f4ca249be02,64bec98a767a4dbcd71dc784,right,1,0.8214,0.35,27,0.100059424,0.0163,,,,,,3,0,3,0,1,,,,,
,,110530,001,2023-07-24_20h58.17.697,arm3_q,2022.2.5,Win32,60.09254252,605bb96c5facde74270615aa,64aeaab685a29f4ca249be02,64bec98a767a4dbcd71dc784,right,1,0.8214,0.35,27,0.100879066,0.7136,,,,,,4,0,4,0,1,,,,,
,,110530,001,2023-07-24_20h58.17.697,arm3_q,2022.2.5,Win32,60.09254252,605bb96c5facde74270615aa,64aeaab685a29f4ca249be02,64bec98a767a4dbcd71dc784,right,1,0.8214,0.35,27,0.111081747,0.4328,,,,,,5,0,5,0,1,,,,,
,,110530,001,2023-07-24_20h58.17.697,arm3_q,2022.2.5,Win32,60.09254252,605bb96c5facde74270615aa,64aeaab685a29f4ca249be02,64bec98a767a4dbcd71dc784,right,1,0.8214,0.35,27,0.108007078,0.4516,,,,,,6,0,6,0,1,,,,,
,,110530,001,2023-07-24_20h58.17.697,arm3_q,2022.2.5,Win32,60.09254252,605bb96c5facde74270615aa,64aeaab685a29f4ca249be02,64bec98a767a4dbcd71dc784,up,1,0.8214,0.35,28,0,0.2993,,,,,,7,0,7,0,1,,,,,
,,110530,001,2023-07-24_20h58.17.697,arm3_q,2022.2.5,Win32,60.09254252,605bb96c5facde74270615aa,64aeaab685a29f4ca249be02,64bec98a767a4dbcd71dc784,right,1,0.8214,0.35,28,0.007371561,0.5963,,,,,,8,0,8,0,1,,,,,
,,110530,001,2023-07-24_20h58.17.697,arm3_q,2022.2.5,Win32,60.09254252,605bb96c5facde74270615aa,64aeaab685a29f4ca249be02,64bec98a767a4dbcd71dc784,right,1,0.8214,0.35,28,0.007581741,0.1723,,,,,,9,0,9,0,1,,,,,
,,110530,001,2023-07-24_20h58.17.697,arm3_q,2022.2.5,Win32,60.09254252,605bb96c5facde74270615aa,64aeaab685a29f4ca249be02,64bec98a767a4dbcd71dc784,right,1,0.8214,0.35,28,0.037463528,0.1698,,,,,,10,0,10,0,1,,,,,
,,110530,001,2023-07-24_20h58.17.697,arm3_q,2022.2.5,Win32,60.09254252,605bb96c5facde74270615aa,64aeaab685a29f4ca249be02,64bec98a767a4dbcd71dc784,right,1,0.8214,0.35,28,0.09827921,0.1739,,,,,,11,0,11,0,1,,,,,
,,110530,001,2023-07-24_20h58.17.697,arm3_q,2022.2.5,Win32,60.09254252,605bb96c5facde74270615aa,64aeaab685a29f4ca249be02,64bec98a767a4dbcd71dc784,right,1,0.8214,0.35,28,0.125844692,0.2818,,,,,,12,0,12,0,1,,,,,
,,110530,001,2023-07-24_20h58.17.697,arm3_q,2022.2.5,Win32,60.09254252,605bb96c5facde74270615aa,64aeaab685a29f4ca249be02,64bec98a767a4dbcd71dc784,up,1,0.8214,0.35,29,0,0.2867,,,,,,13,0,13,0,1,,,,,
,,110530,001,2023-07-24_20h58.17.697,arm3_q,2022.2.5,Win32,60.09254252,605bb96c5facde74270615aa,64aeaab685a29f4ca249be02,64bec98a767a4dbcd71dc784,right,1,0.8214,0.35,29,0.000558493,0.6636,,,,,,14,0,14,0,1,,,,,
,,110530,001,2023-07-24_20h58.17.697,arm3_q,2022.2.5,Win32,60.09254252,605bb96c5facde74270615aa,64aeaab685a29f4ca249be02,64bec98a767a4dbcd71dc784,right,1,0.8214,0.35,29,0.003793092,0.1402,,,,,,15,0,15,0,1,,,,,
,,110530,001,2023-07-24_20h58.17.697,arm3_q,2022.2.5,Win32,60.09254252,605bb96c5facde74270615aa,64aeaab685a29f4ca249be02,64bec98a767a4dbcd71dc784,right,1,0.8214,0.35,29,-0.007978064,0.1585,,,,,,16,0,16,0,1,,,,,
,,110530,001,2023-07-24_20h58.17.697,arm3_q,2022.2.5,Win32,60.09254252,605bb96c5facde74270615aa,64aeaab685a29f4ca249be02,64bec98a767a4dbcd71dc784,right,1,0.8214,0.35,29,0.020570857,0.325,,,,,,17,0,17,0,1,,,,,
,,110530,001,2023-07-24_20h58.17.697,arm3_q,2022.2.5,Win32,60.09254252,605bb96c5facde74270615aa,64aeaab685a29f4ca249be02,64bec98a767a4dbcd71dc784,right,1,0.8214,0.35,29,0.023987722,0.3221,,,,,,18,0,18,0,1,,,,,
,,110530,001,2023-07-24_20h58.17.697,arm3_q,2022.2.5,Win32,60.09254252,605bb96c5facde74270615aa,64aeaab685a29f4ca249be02,64bec98a767a4dbcd71dc784,right,1,0.8214,0.35,29,0.043514587,0.367,,,,,,19,0,19,0,1,,,,,
,,110530,001,2023-07-24_20h58.17.697,arm3_q,2022.2.5,Win32,60.09254252,605bb96c5facde74270615aa,64aeaab685a29f4ca249be02,64bec98a767a4dbcd71dc784,right,1,0.8214,0.35,29,0.025368107,0.4562,,,,,,20,0,20,0,1,,,,,
,,110530,001,2023-07-24_20h58.17.697,arm3_q,2022.2.5,Win32,60.09254252,605bb96c5facde74270615aa,64aeaab685a29f4ca249be02,64bec98a767a4dbcd71dc784,right,1,0.8214,0.35,29,0.014540739,0.3992,,,,,,21,0,21,0,1,,,,,
,,110530,001,2023-07-24_20h58.17.697,arm3_q,2022.2.5,Win32,60.09254252,605bb96c5facde74270615aa,64aeaab685a29f4ca249be02,64bec98a767a4dbcd71dc784,right,1,0.8214,0.35,29,0.016211293,0.4751,,,,,,22,0,22,0,1,,,,,
,,110530,001,2023-07-24_20h58.17.697,arm3_q,2022.2.5,Win32,60.09254252,605bb96c5facde74270615aa,64aeaab685a29f4ca249be02,64bec98a767a4dbcd71dc784,right,1,0.8214,0.35,29,0.032476372,0.5399,,,,,,23,0,23,0,1,,,,,
,,110530,001,2023-07-24_20h58.17.697,arm3_q,2022.2.5,Win32,60.09254252,605bb96c5facde74270615aa,64aeaab685a29f4ca249be02,64bec98a767a4dbcd71dc784,right,1,0.8214,0.35,29,0.039914335,0.4658,,,,,,24,0,24,0,1,,,,,
,,110530,001,2023-07-24_20h58.17.697,arm3_q,2022.2.5,Win32,60.09254252,605bb96c5facde74270615aa,64aeaab685a29f4ca249be02,64bec98a767a4dbcd71dc784,up,1,0.8214,0.35,29,0,0.4006,,,,,,25,0,25,0,1,,,,,
,,110530,001,2023-07-24_20h58.17.697,arm3_q,2022.2.5,Win32,60.09254252,605bb96c5facde74270615aa,64aeaab685a29f4ca249be02,64bec98a767a4dbcd71dc784,right,1,0.8214,0.35,29,0.004758279,0.8283,,,,,,26,0,26,0,1,,,,,
,,110530,001,2023-07-24_20h58.17.697,arm3_q,2022.2.5,Win32,60.09254252,605bb96c5facde74270615aa,64aeaab685a29f4ca249be02,64bec98a767a4dbcd71dc784,right,1,0.8214,0.35,29,-0.008734799,0.1659,,,,,,27,0,27,0,1,,,,,
,,110530,001,2023-07-24_20h58.17.697,arm3_q,2022.2.5,Win32,60.09254252,605bb96c5facde74270615aa,64aeaab685a29f4ca249be02,64bec98a767a4dbcd71dc784,right,1,0.8214,0.35,29,-0.011791457,0.1368,,,,,,28,0,28,0,1,,,,,
,,110530,001,2023-07-24_20h58.17.697,arm3_q,2022.2.5,Win32,60.09254252,605bb96c5facde74270615aa,64aeaab685a29f4ca249be02,64bec98a767a4dbcd71dc784,right,1,0.8214,0.35,29,0.025299818,0.1508,,,,,,29,0,29,0,1,,,,,
,,110530,001,2023-07-24_20h58.17.697,arm3_q,2022.2.5,Win32,60.09254252,605bb96c5facde74270615aa,64aeaab685a29f4ca249be02,64bec98a767a4dbcd71dc784,right,1,0.8214,0.35,29,0.019471842,0.309,,,,,,30,0,30,0,1,,,,,
,,110530,001,2023-07-24_20h58.17.697,arm3_q,2022.2.5,Win32,60.09254252,605bb96c5facde74270615aa,64aeaab685a29f4ca249be02,64bec98a767a4dbcd71dc784,right,1,0.8214,0.35,29,0.013266079,0.1998,,,,,,31,0,31,0,1,,,,,
,,110530,001,2023-07-24_20h58.17.697,arm3_q,2022.2.5,Win32,60.09254252,605bb96c5facde74270615aa,64aeaab685a29f4ca249be02,64bec98a767a4dbcd71dc784,right,1,0.8214,0.35,29,0.033222496,0.2005,,,,,,32,0,32,0,1,,,,,
,,110530,001,2023-07-24_20h58.17.697,arm3_q,2022.2.5,Win32,60.09254252,605bb96c5facde74270615aa,64aeaab685a29f4ca249be02,64bec98a767a4dbcd71dc784,right,1,0.8214,0.35,29,0.060503526,0.3493,,,,,,33,0,33,0,1,,,,,
,,110530,001,2023-07-24_20h58.17.697,arm3_q,2022.2.5,Win32,60.09254252,605bb96c5facde74270615aa,64aeaab685a29f4ca249be02,64bec98a767a4dbcd71dc784,up,1,0.8214,0.35,30,0,0.2827,,,,,,34,0,34,0,1,,,,,
,,110530,001,2023-07-24_20h58.17.697,arm3_q,2022.2.5,Win32,60.09254252,605bb96c5facde74270615aa,64aeaab685a29f4ca249be02,64bec98a767a4dbcd71dc784,right,1,0.8214,0.35,30,-0.010733669,0.6282,,,,,,35,0,35,0,1,,,,,
,,110530,001,2023-07-24_20h58.17.697,arm3_q,2022.2.5,Win32,60.09254252,605bb96c5facde74270615aa,64aeaab685a29f4ca249be02,64bec98a767a4dbcd71dc784,right,1,0.8214,0.35,30,-0.028179593,0.1313,,,,,,36,0,36,0,1,,,,,
,,110530,001,2023-07-24_20h58.17.697,arm3_q,2022.2.5,Win32,60.09254252,605bb96c5facde74270615aa,64aeaab685a29f4ca249be02,64bec98a767a4dbcd71dc784,right,1,0.8214,0.35,30,-0.029509392,0.1675,,,,,,37,0,37,0,1,,,,,
,,110530,001,2023-07-24_20h58.17.697,arm3_q,2022.2.5,Win32,60.09254252,605bb96c5facde74270615aa,64aeaab685a29f4ca249be02,64bec98a767a4dbcd71dc784,right,1,0.8214,0.35,30,-0.036834197,0.2069,,,,,,38,0,38,0,1,,,,,
,,110530,001,2023-07-24_20h58.17.697,arm3_q,2022.2.5,Win32,60.09254252,605bb96c5facde74270615aa,64aeaab685a29f4ca249be02,64bec98a767a4dbcd71dc784,right,1,0.8214,0.35,30,-0.031436698,0.1967,,,,,,39,0,39,0,1,,,,,
,,110530,001,2023-07-24_20h58.17.697,arm3_q,2022.2.5,Win32,60.09254252,605bb96c5facde74270615aa,64aeaab685a29f4ca249be02,64bec98a767a4dbcd71dc784,right,1,0.8214,0.35,30,-0.006538103,0.1659,,,,,,40,0,40,0,1,,,,,
