space_bar.keys,space_bar.rt,participant,session,date,expName,psychopyVersion,OS,frameRate,PROLIFIC_PID,STUDY_ID,SESSION_ID,resp.keys,state,q_prob,eps_prob,score,price,resp.rt,train.thisRepN,train.thisTrialN,train.thisN,train.thisIndex,train.ran,steps.thisRepN,steps.thisTrialN,steps.thisN,steps.thisIndex,steps.ran,blocks.thisRepN,blocks.thisTrialN,blocks.thisN,blocks.thisIndex,blocks.ran
space,38.3047,128880,001,2023-07-24_21h17.21.840,arm3_q,2022.2.5,Win32,120.7729469,6445101fd46dd4427dfec91c,64aeaab685a29f4ca249be02,64bece2a7df58890b933712b,,,,,,,,,,,,,,,,,,,,,,
space,17.607,128880,001,2023-07-24_21h17.21.840,arm3_q,2022.2.5,Win32,120.7729469,6445101fd46dd4427dfec91c,64aeaab685a29f4ca249be02,64bece2a7df58890b933712b,,,,,,,,,,,,,,,,,,,,,,
space,10.275,128880,001,2023-07-24_21h17.21.840,arm3_q,2022.2.5,Win32,120.7729469,6445101fd46dd4427dfec91c,64aeaab685a29f4ca249be02,64bece2a7df58890b933712b,,,,,,,,,,,,,,,,,,,,,,
space,12.2064,128880,001,2023-07-24_21h17.21.840,arm3_q,2022.2.5,Win32,120.7729469,6445101fd46dd4427dfec91c,64aeaab685a29f4ca249be02,64bece2a7df58890b933712b,,,,,,,,,,,,,,,,,,,,,,
space,19.9791,128880,001,2023-07-24_21h17.21.840,arm3_q,2022.2.5,Win32,120.7729469,6445101fd46dd4427dfec91c,64aeaab685a29f4ca249be02,64bece2a7df58890b933712b,,,,,,,,,,,,,,,,,,,,,,
space,36.3201,128880,001,2023-07-24_21h17.21.840,arm3_q,2022.2.5,Win32,120.7729469,6445101fd46dd4427dfec91c,64aeaab685a29f4ca249be02,64bece2a7df58890b933712b,,,,,,,,,,,,,,,,,,,,,,
space,16.2711,128880,001,2023-07-24_21h17.21.840,arm3_q,2022.2.5,Win32,120.7729469,6445101fd46dd4427dfec91c,64aeaab685a29f4ca249be02,64bece2a7df58890b933712b,,,,,,,,,,,,,,,,,,,,,,
space,20.5796,128880,001,2023-07-24_21h17.21.840,arm3_q,2022.2.5,Win32,120.7729469,6445101fd46dd4427dfec91c,64aeaab685a29f4ca249be02,64bece2a7df58890b933712b,,,,,,,,,,,,,,,,,,,,,,
space,20.1214,128880,001,2023-07-24_21h17.21.840,arm3_q,2022.2.5,Win32,120.7729469,6445101fd46dd4427dfec91c,64aeaab685a29f4ca249be02,64bece2a7df58890b933712b,,,,,,,,,,,,,,,,,,,,,,
space,8.2446,128880,001,2023-07-24_21h17.21.840,arm3_q,2022.2.5,Win32,120.7729469,6445101fd46dd4427dfec91c,64aeaab685a29f4ca249be02,64bece2a7df58890b933712b,,,,,,,,,,,,,,,,,,,,,,
,,128880,001,2023-07-24_21h17.21.840,arm3_q,2022.2.5,Win32,120.7729469,6445101fd46dd4427dfec91c,64aeaab685a29f4ca249be02,64bece2a7df58890b933712b,right,1,0.5643,0.35,0,0.004237743,2.1769,0,0,0,0,1,,,,,,,,,,
,,128880,001,2023-07-24_21h17.21.840,arm3_q,2022.2.5,Win32,120.7729469,6445101fd46dd4427dfec91c,64aeaab685a29f4ca249be02,64bece2a7df58890b933712b,right,1,0.5643,0.35,0,-0.010915137,1.2576,1,0,1,0,1,,,,,,,,,,
,,128880,001,2023-07-24_21h17.21.840,arm3_q,2022.2.5,Win32,120.7729469,6445101fd46dd4427dfec91c,64aeaab685a29f4ca249be02,64bece2a7df58890b933712b,right,1,0.5643,0.35,0,0.027130683,1.2494,2,0,2,0,1,,,,,,,,,,
,,128880,001,2023-07-24_21h17.21.840,arm3_q,2022.2.5,Win32,120.7729469,6445101fd46dd4427dfec91c,64aeaab685a29f4ca249be02,64bece2a7df58890b933712b,up,-1,0.5643,0.35,1,0,1.2967,3,0,3,0,1,,,,,,,,,,
,,128880,001,2023-07-24_21h17.21.840,arm3_q,2022.2.5,Win32,120.7729469,6445101fd46dd4427dfec91c,64aeaab685a29f4ca249be02,64bece2a7df58890b933712b,right,-1,0.5643,0.35,1,-0.005813454,1.5797,4,0,4,0,1,,,,,,,,,,
,,128880,001,2023-07-24_21h17.21.840,arm3_q,2022.2.5,Win32,120.7729469,6445101fd46dd4427dfec91c,64aeaab685a29f4ca249be02,64bece2a7df58890b933712b,down,-1,0.5643,0.35,2,0,1.9655,5,0,5,0,1,,,,,,,,,,
,,128880,001,2023-07-24_21h17.21.840,arm3_q,2022.2.5,Win32,120.7729469,6445101fd46dd4427dfec91c,64aeaab685a29f4ca249be02,64bece2a7df58890b933712b,right,-1,0.5643,0.35,2,0.008432598,1.2468,6,0,6,0,1,,,,,,,,,,
,,128880,001,2023-07-24_21h17.21.840,arm3_q,2022.2.5,Win32,120.7729469,6445101fd46dd4427dfec91c,64aeaab685a29f4ca249be02,64bece2a7df58890b933712b,right,-1,0.5643,0.35,2,0.017750358,0.7222,7,0,7,0,1,,,,,,,,,,
,,128880,001,2023-07-24_21h17.21.840,arm3_q,2022.2.5,Win32,120.7729469,6445101fd46dd4427dfec91c,64aeaab685a29f4ca249be02,64bece2a7df58890b933712b,right,-1,0.5643,0.35,2,0.014992177,0.8749,8,0,8,0,1,,,,,,,,,,
,,128880,001,2023-07-24_21h17.21.840,arm3_q,2022.2.5,Win32,120.7729469,6445101fd46dd4427dfec91c,64aeaab685a29f4ca249be02,64bece2a7df58890b933712b,up,-1,0.5643,0.35,2,0,0.7721,9,0,9,0,1,,,,,,,,,,
,,128880,001,2023-07-24_21h17.21.840,arm3_q,2022.2.5,Win32,120.7729469,6445101fd46dd4427dfec91c,64aeaab685a29f4ca249be02,64bece2a7df58890b933712b,right,-1,0.5643,0.35,2,-0.008890185,1.7037,10,0,10,0,1,,,,,,,,,,
,,128880,001,2023-07-24_21h17.21.840,arm3_q,2022.2.5,Win32,120.7729469,6445101fd46dd4427dfec91c,64aeaab685a29f4ca249be02,64bece2a7df58890b933712b,right,-1,0.5643,0.35,2,-0.019620788,0.7244,11,0,11,0,1,,,,,,,,,,
,,128880,001,2023-07-24_21h17.21.840,arm3_q,2022.2.5,Win32,120.7729469,6445101fd46dd4427dfec91c,64aeaab685a29f4ca249be02,64bece2a7df58890b933712b,down,-1,0.5643,0.35,2,0,0.5573,12,0,12,0,1,,,,,,,,,,
,,128880,001,2023-07-24_21h17.21.840,arm3_q,2022.2.5,Win32,120.7729469,6445101fd46dd4427dfec91c,64aeaab685a29f4ca249be02,64bece2a7df58890b933712b,right,-1,0.5643,0.35,2,-0.039383122,1.5388,13,0,13,0,1,,,,,,,,,,
,,128880,001,2023-07-24_21h17.21.840,arm3_q,2022.2.5,Win32,120.7729469,6445101fd46dd4427dfec91c,64aeaab685a29f4ca249be02,64bece2a7df58890b933712b,right,-1,0.5643,0.35,2,-0.038011528,0.8991,14,0,14,0,1,,,,,,,,,,
,,128880,001,2023-07-24_21h17.21.840,arm3_q,2022.2.5,Win32,120.7729469,6445101fd46dd4427dfec91c,64aeaab685a29f4ca249be02,64bece2a7df58890b933712b,down,-1,0.5643,0.35,2,0,0.6336,15,0,15,0,1,,,,,,,,,,
,,128880,001,2023-07-24_21h17.21.840,arm3_q,2022.2.5,Win32,120.7729469,6445101fd46dd4427dfec91c,64aeaab685a29f4ca249be02,64bece2a7df58890b933712b,right,-1,0.5643,0.35,2,-0.017196532,1.114,16,0,16,0,1,,,,,,,,,,
,,128880,001,2023-07-24_21h17.21.840,arm3_q,2022.2.5,Win32,120.7729469,6445101fd46dd4427dfec91c,64aeaab685a29f4ca249be02,64bece2a7df58890b933712b,right,-1,0.5643,0.35,2,0.001041492,0.575,17,0,17,0,1,,,,,,,,,,
,,128880,001,2023-07-24_21h17.21.840,arm3_q,2022.2.5,Win32,120.7729469,6445101fd46dd4427dfec91c,64aeaab685a29f4ca249be02,64bece2a7df58890b933712b,right,-1,0.5643,0.35,2,0.014024447,1.2837,18,0,18,0,1,,,,,,,,,,
,,128880,001,2023-07-24_21h17.21.840,arm3_q,2022.2.5,Win32,120.7729469,6445101fd46dd4427dfec91c,64aeaab685a29f4ca249be02,64bece2a7df58890b933712b,up,1,0.5643,0.35,1,0,1.0653,19,0,19,0,1,,,,,,,,,,
,,128880,001,2023-07-24_21h17.21.840,arm3_q,2022.2.5,Win32,120.7729469,6445101fd46dd4427dfec91c,64aeaab685a29f4ca249be02,64bece2a7df58890b933712b,right,1,0.5643,0.35,1,-0.001995529,1.6461,20,0,20,0,1,,,,,,,,,,
,,128880,001,2023-07-24_21h17.21.840,arm3_q,2022.2.5,Win32,120.7729469,6445101fd46dd4427dfec91c,64aeaab685a29f4ca249be02,64bece2a7df58890b933712b,right,1,0.5643,0.35,1,0.00290886,0.6806,21,0,21,0,1,,,,,,,,,,
,,128880,001,2023-07-24_21h17.21.840,arm3_q,2022.2.5,Win32,120.7729469,6445101fd46dd4427dfec91c,64aeaab685a29f4ca249be02,64bece2a7df58890b933712b,right,1,0.5643,0.35,1,0.003609088,0.8089,22,0,22,0,1,,,,,,,,,,
,,128880,001,2023-07-24_21h17.21.840,arm3_q,2022.2.5,Win32,120.7729469,6445101fd46dd4427dfec91c,64aeaab685a29f4ca249be02,64bece2a7df58890b933712b,right,1,0.5643,0.35,1,0.010732329,0.8728,23,0,23,0,1,,,,,,,,,,
,,128880,001,2023-07-24_21h17.21.840,arm3_q,2022.2.5,Win32,120.7729469,6445101fd46dd4427dfec91c,64aeaab685a29f4ca249be02,64bece2a7df58890b933712b,right,1,0.5643,0.35,1,0.029173648,1.0405,24,0,24,0,1,,,,,,,,,,
,,128880,001,2023-07-24_21h17.21.840,arm3_q,2022.2.5,Win32,120.7729469,6445101fd46dd4427dfec91c,64aeaab685a29f4ca249be02,64bece2a7df58890b933712b,up,-1,0.5643,0.35,2,0,0.9065,25,0,25,0,1,,,,,,,,,,
,,128880,001,2023-07-24_21h17.21.840,arm3_q,2022.2.5,Win32,120.7729469,6445101fd46dd4427dfec91c,64aeaab685a29f4ca249be02,64bece2a7df58890b933712b,right,-1,0.5643,0.35,2,0.016805581,1.0959,26,0,26,0,1,,,,,,,,,,
,,128880,001,2023-07-24_21h17.21.840,arm3_q,2022.2.5,Win32,120.7729469,6445101fd46dd4427dfec91c,64aeaab685a29f4ca249be02,64bece2a7df58890b933712b,right,-1,0.5643,0.35,2,0.019082526,0.6341,27,0,27,0,1,,,,,,,,,,
,,128880,001,2023-07-24_21h17.21.840,arm3_q,2022.2.5,Win32,120.7729469,6445101fd46dd4427dfec91c,64aeaab685a29f4ca249be02,64bece2a7df58890b933712b,up,-1,0.5643,0.35,1,0,0.6084,28,0,28,0,1,,,,,,,,,,
,,128880,001,2023-07-24_21h17.21.840,arm3_q,2022.2.5,Win32,120.7729469,6445101fd46dd4427dfec91c,64aeaab685a29f4ca249be02,64bece2a7df58890b933712b,right,-1,0.5643,0.35,1,-0.003802131,1.1001,29,0,29,0,1,,,,,,,,,,
,,128880,001,2023-07-24_21h17.21.840,arm3_q,2022.2.5,Win32,120.7729469,6445101fd46dd4427dfec91c,64aeaab685a29f4ca249be02,64bece2a7df58890b933712b,right,-1,0.5643,0.35,1,-0.020672238,2.3916,30,0,30,0,1,,,,,,,,,,
,,128880,001,2023-07-24_21h17.21.840,arm3_q,2022.2.5,Win32,120.7729469,6445101fd46dd4427dfec91c,64aeaab685a29f4ca249be02,64bece2a7df58890b933712b,right,-1,0.5643,0.35,1,-0.019200743,0.6254,31,0,31,0,1,,,,,,,,,,
,,128880,001,2023-07-24_21h17.21.840,arm3_q,2022.2.5,Win32,120.7729469,6445101fd46dd4427dfec91c,64aeaab685a29f4ca249be02,64bece2a7df58890b933712b,down,-1,0.5643,0.35,2,0,1.2336,32,0,32,0,1,,,,,,,,,,
,,128880,001,2023-07-24_21h17.21.840,arm3_q,2022.2.5,Win32,120.7729469,6445101fd46dd4427dfec91c,64aeaab685a29f4ca249be02,64bece2a7df58890b933712b,right,-1,0.5643,0.35,2,0.035644589,1.4755,33,0,33,0,1,,,,,,,,,,
,,128880,001,2023-07-24_21h17.21.840,arm3_q,2022.2.5,Win32,120.7729469,6445101fd46dd4427dfec91c,64aeaab685a29f4ca249be02,64bece2a7df58890b933712b,right,-1,0.5643,0.35,2,0.001561608,0.4878,34,0,34,0,1,,,,,,,,,,
,,128880,001,2023-07-24_21h17.21.840,arm3_q,2022.2.5,Win32,120.7729469,6445101fd46dd4427dfec91c,64aeaab685a29f4ca249be02,64bece2a7df58890b933712b,right,-1,0.5643,0.35,2,-0.010508151,0.6831,35,0,35,0,1,,,,,,,,,,
,,128880,001,2023-07-24_21h17.21.840,arm3_q,2022.2.5,Win32,120.7729469,6445101fd46dd4427dfec91c,64aeaab685a29f4ca249be02,64bece2a7df58890b933712b,right,-1,0.5643,0.35,2,-0.021572372,0.7506,36,0,36,0,1,,,,,,,,,,
,,128880,001,2023-07-24_21h17.21.840,arm3_q,2022.2.5,Win32,120.7729469,6445101fd46dd4427dfec91c,64aeaab685a29f4ca249be02,64bece2a7df58890b933712b,right,-1,0.5643,0.35,2,-0.034032204,0.6098,37,0,37,0,1,,,,,,,,,,
,,128880,001,2023-07-24_21h17.21.840,arm3_q,2022.2.5,Win32,120.7729469,6445101fd46dd4427dfec91c,64aeaab685a29f4ca249be02,64bece2a7df58890b933712b,down,-1,0.5643,0.35,3,0,0.4834,38,0,38,0,1,,,,,,,,,,
,,128880,001,2023-07-24_21h17.21.840,arm3_q,2022.2.5,Win32,120.7729469,6445101fd46dd4427dfec91c,64aeaab685a29f4ca249be02,64bece2a7df58890b933712b,right,-1,0.5643,0.35,3,-0.00882913,1.5377,39,0,39,0,1,,,,,,,,,,
,,128880,001,2023-07-24_21h17.21.840,arm3_q,2022.2.5,Win32,120.7729469,6445101fd46dd4427dfec91c,64aeaab685a29f4ca249be02,64bece2a7df58890b933712b,right,-1,0.5643,0.35,3,-0.02165751,0.5682,40,0,40,0,1,,,,,,,,,,
,,128880,001,2023-07-24_21h17.21.840,arm3_q,2022.2.5,Win32,120.7729469,6445101fd46dd4427dfec91c,64aeaab685a29f4ca249be02,64bece2a7df58890b933712b,right,-1,0.5643,0.35,3,-0.017495984,0.7169,41,0,41,0,1,,,,,,,,,,
,,128880,001,2023-07-24_21h17.21.840,arm3_q,2022.2.5,Win32,120.7729469,6445101fd46dd4427dfec91c,64aeaab685a29f4ca249be02,64bece2a7df58890b933712b,right,-1,0.5643,0.35,3,-0.01894419,0.5335,42,0,42,0,1,,,,,,,,,,
,,128880,001,2023-07-24_21h17.21.840,arm3_q,2022.2.5,Win32,120.7729469,6445101fd46dd4427dfec91c,64aeaab685a29f4ca249be02,64bece2a7df58890b933712b,right,-1,0.5643,0.35,3,-0.015875488,0.7835,43,0,43,0,1,,,,,,,,,,
,,128880,001,2023-07-24_21h17.21.840,arm3_q,2022.2.5,Win32,120.7729469,6445101fd46dd4427dfec91c,64aeaab685a29f4ca249be02,64bece2a7df58890b933712b,right,-1,0.5643,0.35,3,0.003377405,0.8185,44,0,44,0,1,,,,,,,,,,
,,128880,001,2023-07-24_21h17.21.840,arm3_q,2022.2.5,Win32,120.7729469,6445101fd46dd4427dfec91c,64aeaab685a29f4ca249be02,64bece2a7df58890b933712b,right,-1,0.5643,0.35,3,-0.011049724,0.6267,45,0,45,0,1,,,,,,,,,,
,,128880,001,2023-07-24_21h17.21.840,arm3_q,2022.2.5,Win32,120.7729469,6445101fd46dd4427dfec91c,64aeaab685a29f4ca249be02,64bece2a7df58890b933712b,down,-1,0.5643,0.35,4,0,0.6709,46,0,46,0,1,,,,,,,,,,
,,128880,001,2023-07-24_21h17.21.840,arm3_q,2022.2.5,Win32,120.7729469,6445101fd46dd4427dfec91c,64aeaab685a29f4ca249be02,64bece2a7df58890b933712b,right,-1,0.5643,0.35,4,-0.018928588,2.4414,47,0,47,0,1,,,,,,,,,,
,,128880,001,2023-07-24_21h17.21.840,arm3_q,2022.2.5,Win32,120.7729469,6445101fd46dd4427dfec91c,64aeaab685a29f4ca249be02,64bece2a7df58890b933712b,down,1,0.5643,0.35,4,0,2.1086,48,0,48,0,1,,,,,,,,,,
,,128880,001,2023-07-24_21h17.21.840,arm3_q,2022.2.5,Win32,120.7729469,6445101fd46dd4427dfec91c,64aeaab685a29f4ca249be02,64bece2a7df58890b933712b,right,1,0.5643,0.35,4,-0.008072135,1.1151,49,0,49,0,1,,,,,,,,,,
space,1.7834,128880,001,2023-07-24_21h17.21.840,arm3_q,2022.2.5,Win32,120.7729469,6445101fd46dd4427dfec91c,64aeaab685a29f4ca249be02,64bece2a7df58890b933712b,,,,,,,,,,,,,,,,,,,,,,
space,7.4487,128880,001,2023-07-24_21h17.21.840,arm3_q,2022.2.5,Win32,120.7729469,6445101fd46dd4427dfec91c,64aeaab685a29f4ca249be02,64bece2a7df58890b933712b,right,1,0.6929,0.35,0,0.006020678,2.876,,,,,,0,0,0,0,1,,,,,
,,128880,001,2023-07-24_21h17.21.840,arm3_q,2022.2.5,Win32,120.7729469,6445101fd46dd4427dfec91c,64aeaab685a29f4ca249be02,64bece2a7df58890b933712b,right,1,0.6929,0.35,0,-0.004234125,0.7699,,,,,,1,0,1,0,1,,,,,
,,128880,001,2023-07-24_21h17.21.840,arm3_q,2022.2.5,Win32,120.7729469,6445101fd46dd4427dfec91c,64aeaab685a29f4ca249be02,64bece2a7df58890b933712b,up,-1,0.6929,0.35,1,0,0.5557,,,,,,2,0,2,0,1,,,,,
,,128880,001,2023-07-24_21h17.21.840,arm3_q,2022.2.5,Win32,120.7729469,6445101fd46dd4427dfec91c,64aeaab685a29f4ca249be02,64bece2a7df58890b933712b,right,-1,0.6929,0.35,1,-0.025620478,1.4038,,,,,,3,0,3,0,1,,,,,
,,128880,001,2023-07-24_21h17.21.840,arm3_q,2022.2.5,Win32,120.7729469,6445101fd46dd4427dfec91c,64aeaab685a29f4ca249be02,64bece2a7df58890b933712b,right,-1,0.6929,0.35,1,-0.004485584,0.5226,,,,,,4,0,4,0,1,,,,,
,,128880,001,2023-07-24_21h17.21.840,arm3_q,2022.2.5,Win32,120.7729469,6445101fd46dd4427dfec91c,64aeaab685a29f4ca249be02,64bece2a7df58890b933712b,right,-1,0.6929,0.35,1,-0.020818232,0.5138,,,,,,5,0,5,0,1,,,,,
,,128880,001,2023-07-24_21h17.21.840,arm3_q,2022.2.5,Win32,120.7729469,6445101fd46dd4427dfec91c,64aeaab685a29f4ca249be02,64bece2a7df58890b933712b,down,-1,0.6929,0.35,2,0,0.5552,,,,,,6,0,6,0,1,,,,,
,,128880,001,2023-07-24_21h17.21.840,arm3_q,2022.2.5,Win32,120.7729469,6445101fd46dd4427dfec91c,64aeaab685a29f4ca249be02,64bece2a7df58890b933712b,right,-1,0.6929,0.35,2,-0.001116824,0.9484,,,,,,7,0,7,0,1,,,,,
,,128880,001,2023-07-24_21h17.21.840,arm3_q,2022.2.5,Win32,120.7729469,6445101fd46dd4427dfec91c,64aeaab685a29f4ca249be02,64bece2a7df58890b933712b,right,-1,0.6929,0.35,2,0.004972793,0.6145,,,,,,8,0,8,0,1,,,,,
,,128880,001,2023-07-24_21h17.21.840,arm3_q,2022.2.5,Win32,120.7729469,6445101fd46dd4427dfec91c,64aeaab685a29f4ca249be02,64bece2a7df58890b933712b,right,-1,0.6929,0.35,2,-0.02825084,0.999,,,,,,9,0,9,0,1,,,,,
,,128880,001,2023-07-24_21h17.21.840,arm3_q,2022.2.5,Win32,120.7729469,6445101fd46dd4427dfec91c,64aeaab685a29f4ca249be02,64bece2a7df58890b933712b,down,-1,0.6929,0.35,3,0,0.6139,,,,,,10,0,10,0,1,,,,,
,,128880,001,2023-07-24_21h17.21.840,arm3_q,2022.2.5,Win32,120.7729469,6445101fd46dd4427dfec91c,64aeaab685a29f4ca249be02,64bece2a7df58890b933712b,right,-1,0.6929,0.35,3,-0.006740752,1.0817,,,,,,11,0,11,0,1,,,,,
,,128880,001,2023-07-24_21h17.21.840,arm3_q,2022.2.5,Win32,120.7729469,6445101fd46dd4427dfec91c,64aeaab685a29f4ca249be02,64bece2a7df58890b933712b,right,-1,0.6929,0.35,3,-0.037879028,0.8891,,,,,,12,0,12,0,1,,,,,
,,128880,001,2023-07-24_21h17.21.840,arm3_q,2022.2.5,Win32,120.7729469,6445101fd46dd4427dfec91c,64aeaab685a29f4ca249be02,64bece2a7df58890b933712b,down,-1,0.6929,0.35,4,0,0.584,,,,,,13,0,13,0,1,,,,,
,,128880,001,2023-07-24_21h17.21.840,arm3_q,2022.2.5,Win32,120.7729469,6445101fd46dd4427dfec91c,64aeaab685a29f4ca249be02,64bece2a7df58890b933712b,right,-1,0.6929,0.35,4,-0.01198071,2.0481,,,,,,14,0,14,0,1,,,,,
,,128880,001,2023-07-24_21h17.21.840,arm3_q,2022.2.5,Win32,120.7729469,6445101fd46dd4427dfec91c,64aeaab685a29f4ca249be02,64bece2a7df58890b933712b,right,-1,0.6929,0.35,4,-0.000608202,0.5094,,,,,,15,0,15,0,1,,,,,
,,128880,001,2023-07-24_21h17.21.840,arm3_q,2022.2.5,Win32,120.7729469,6445101fd46dd4427dfec91c,64aeaab685a29f4ca249be02,64bece2a7df58890b933712b,right,-1,0.6929,0.35,4,-0.004515518,0.5156,,,,,,16,0,16,0,1,,,,,
,,128880,001,2023-07-24_21h17.21.840,arm3_q,2022.2.5,Win32,120.7729469,6445101fd46dd4427dfec91c,64aeaab685a29f4ca249be02,64bece2a7df58890b933712b,down,-1,0.6929,0.35,4,0,0.7826,,,,,,17,0,17,0,1,,,,,
,,128880,001,2023-07-24_21h17.21.840,arm3_q,2022.2.5,Win32,120.7729469,6445101fd46dd4427dfec91c,64aeaab685a29f4ca249be02,64bece2a7df58890b933712b,right,-1,0.6929,0.35,4,0.003235591,0.9461,,,,,,18,0,18,0,1,,,,,
,,128880,001,2023-07-24_21h17.21.840,arm3_q,2022.2.5,Win32,120.7729469,6445101fd46dd4427dfec91c,64aeaab685a29f4ca249be02,64bece2a7df58890b933712b,right,-1,0.6929,0.35,4,-0.002965254,0.4574,,,,,,19,0,19,0,1,,,,,
,,128880,001,2023-07-24_21h17.21.840,arm3_q,2022.2.5,Win32,120.7729469,6445101fd46dd4427dfec91c,64aeaab685a29f4ca249be02,64bece2a7df58890b933712b,right,-1,0.6929,0.35,4,-0.023220869,0.5912,,,,,,20,0,20,0,1,,,,,
,,128880,001,2023-07-24_21h17.21.840,arm3_q,2022.2.5,Win32,120.7729469,6445101fd46dd4427dfec91c,64aeaab685a29f4ca249be02,64bece2a7df58890b933712b,down,1,0.6929,0.35,5,0,0.8996,,,,,,21,0,21,0,1,,,,,
,,128880,001,2023-07-24_21h17.21.840,arm3_q,2022.2.5,Win32,120.7729469,6445101fd46dd4427dfec91c,64aeaab685a29f4ca249be02,64bece2a7df58890b933712b,right,1,0.6929,0.35,5,6.74652E-05,1,,,,,,22,0,22,0,1,,,,,
,,128880,001,2023-07-24_21h17.21.840,arm3_q,2022.2.5,Win32,120.7729469,6445101fd46dd4427dfec91c,64aeaab685a29f4ca249be02,64bece2a7df58890b933712b,right,1,0.6929,0.35,5,-0.038479433,0.8173,,,,,,23,0,23,0,1,,,,,
,,128880,001,2023-07-24_21h17.21.840,arm3_q,2022.2.5,Win32,120.7729469,6445101fd46dd4427dfec91c,64aeaab685a29f4ca249be02,64bece2a7df58890b933712b,right,1,0.6929,0.35,5,-0.024761109,0.5533,,,,,,24,0,24,0,1,,,,,
,,128880,001,2023-07-24_21h17.21.840,arm3_q,2022.2.5,Win32,120.7729469,6445101fd46dd4427dfec91c,64aeaab685a29f4ca249be02,64bece2a7df58890b933712b,right,1,0.6929,0.35,5,-0.023055354,0.7749,,,,,,25,0,25,0,1,,,,,
,,128880,001,2023-07-24_21h17.21.840,arm3_q,2022.2.5,Win32,120.7729469,6445101fd46dd4427dfec91c,64aeaab685a29f4ca249be02,64bece2a7df58890b933712b,down,1,0.6929,0.35,4,0,0.5087,,,,,,26,0,26,0,1,,,,,
,,128880,001,2023-07-24_21h17.21.840,arm3_q,2022.2.5,Win32,120.7729469,6445101fd46dd4427dfec91c,64aeaab685a29f4ca249be02,64bece2a7df58890b933712b,right,1,0.6929,0.35,4,0.007298964,1.3489,,,,,,27,0,27,0,1,,,,,
,,128880,001,2023-07-24_21h17.21.840,arm3_q,2022.2.5,Win32,120.7729469,6445101fd46dd4427dfec91c,64aeaab685a29f4ca249be02,64bece2a7df58890b933712b,right,1,0.6929,0.35,4,0.044702501,0.5833,,,,,,28,0,28,0,1,,,,,
,,128880,001,2023-07-24_21h17.21.840,arm3_q,2022.2.5,Win32,120.7729469,6445101fd46dd4427dfec91c,64aeaab685a29f4ca249be02,64bece2a7df58890b933712b,up,-1,0.6929,0.35,5,0,0.8251,,,,,,29,0,29,0,1,,,,,
,,128880,001,2023-07-24_21h17.21.840,arm3_q,2022.2.5,Win32,120.7729469,6445101fd46dd4427dfec91c,64aeaab685a29f4ca249be02,64bece2a7df58890b933712b,right,-1,0.6929,0.35,5,-0.004857707,0.9823,,,,,,30,0,30,0,1,,,,,
,,128880,001,2023-07-24_21h17.21.840,arm3_q,2022.2.5,Win32,120.7729469,6445101fd46dd4427dfec91c,64aeaab685a29f4ca249be02,64bece2a7df58890b933712b,right,-1,0.6929,0.35,5,0.007624552,0.8176,,,,,,31,0,31,0,1,,,,,
,,128880,001,2023-07-24_21h17.21.840,arm3_q,2022.2.5,Win32,120.7729469,6445101fd46dd4427dfec91c,64aeaab685a29f4ca249be02,64bece2a7df58890b933712b,right,-1,0.6929,0.35,5,0.017426743,0.45,,,,,,32,0,32,0,1,,,,,
,,128880,001,2023-07-24_21h17.21.840,arm3_q,2022.2.5,Win32,120.7729469,6445101fd46dd4427dfec91c,64aeaab685a29f4ca249be02,64bece2a7df58890b933712b,right,-1,0.6929,0.35,5,0.007224225,0.6665,,,,,,33,0,33,0,1,,,,,
,,128880,001,2023-07-24_21h17.21.840,arm3_q,2022.2.5,Win32,120.7729469,6445101fd46dd4427dfec91c,64aeaab685a29f4ca249be02,64bece2a7df58890b933712b,right,-1,0.6929,0.35,5,0.026941205,0.9973,,,,,,34,0,34,0,1,,,,,
,,128880,001,2023-07-24_21h17.21.840,arm3_q,2022.2.5,Win32,120.7729469,6445101fd46dd4427dfec91c,64aeaab685a29f4ca249be02,64bece2a7df58890b933712b,right,-1,0.6929,0.35,5,0.024855713,0.5836,,,,,,35,0,35,0,1,,,,,
,,128880,001,2023-07-24_21h17.21.840,arm3_q,2022.2.5,Win32,120.7729469,6445101fd46dd4427dfec91c,64aeaab685a29f4ca249be02,64bece2a7df58890b933712b,down,-1,0.6929,0.35,6,0,0.908,,,,,,36,0,36,0,1,,,,,
,,128880,001,2023-07-24_21h17.21.840,arm3_q,2022.2.5,Win32,120.7729469,6445101fd46dd4427dfec91c,64aeaab685a29f4ca249be02,64bece2a7df58890b933712b,right,-1,0.6929,0.35,6,0.004373016,1.0841,,,,,,37,0,37,0,1,,,,,
,,128880,001,2023-07-24_21h17.21.840,arm3_q,2022.2.5,Win32,120.7729469,6445101fd46dd4427dfec91c,64aeaab685a29f4ca249be02,64bece2a7df58890b933712b,right,-1,0.6929,0.35,6,0.003782632,0.4838,,,,,,38,0,38,0,1,,,,,
,,128880,001,2023-07-24_21h17.21.840,arm3_q,2022.2.5,Win32,120.7729469,6445101fd46dd4427dfec91c,64aeaab685a29f4ca249be02,64bece2a7df58890b933712b,right,-1,0.6929,0.35,6,-0.011332029,1.3995,,,,,,39,0,39,0,1,,,,,
,,128880,001,2023-07-24_21h17.21.840,arm3_q,2022.2.5,Win32,120.7729469,6445101fd46dd4427dfec91c,64aeaab685a29f4ca249be02,64bece2a7df58890b933712b,down,-1,0.6929,0.35,7,0,0.9587,,,,,,40,0,40,0,1,,,,,
,,128880,001,2023-07-24_21h17.21.840,arm3_q,2022.2.5,Win32,120.7729469,6445101fd46dd4427dfec91c,64aeaab685a29f4ca249be02,64bece2a7df58890b933712b,right,-1,0.6929,0.35,7,0.002337938,1.3837,,,,,,41,0,41,0,1,,,,,
,,128880,001,2023-07-24_21h17.21.840,arm3_q,2022.2.5,Win32,120.7729469,6445101fd46dd4427dfec91c,64aeaab685a29f4ca249be02,64bece2a7df58890b933712b,right,-1,0.6929,0.35,7,-0.009749494,0.7174,,,,,,42,0,42,0,1,,,,,
,,128880,001,2023-07-24_21h17.21.840,arm3_q,2022.2.5,Win32,120.7729469,6445101fd46dd4427dfec91c,64aeaab685a29f4ca249be02,64bece2a7df58890b933712b,down,1,0.6929,0.35,8,0,0.7374,,,,,,43,0,43,0,1,,,,,
,,128880,001,2023-07-24_21h17.21.840,arm3_q,2022.2.5,Win32,120.7729469,6445101fd46dd4427dfec91c,64aeaab685a29f4ca249be02,64bece2a7df58890b933712b,right,1,0.6929,0.35,8,0.027324599,0.884,,,,,,44,0,44,0,1,,,,,
,,128880,001,2023-07-24_21h17.21.840,arm3_q,2022.2.5,Win32,120.7729469,6445101fd46dd4427dfec91c,64aeaab685a29f4ca249be02,64bece2a7df58890b933712b,right,1,0.6929,0.35,8,0.040882092,0.4752,,,,,,45,0,45,0,1,,,,,
,,128880,001,2023-07-24_21h17.21.840,arm3_q,2022.2.5,Win32,120.7729469,6445101fd46dd4427dfec91c,64aeaab685a29f4ca249be02,64bece2a7df58890b933712b,right,1,0.6929,0.35,8,0.046221906,0.7087,,,,,,46,0,46,0,1,,,,,
,,128880,001,2023-07-24_21h17.21.840,arm3_q,2022.2.5,Win32,120.7729469,6445101fd46dd4427dfec91c,64aeaab685a29f4ca249be02,64bece2a7df58890b933712b,up,-1,0.6929,0.35,9,0,0.6253,,,,,,47,0,47,0,1,,,,,
,,128880,001,2023-07-24_21h17.21.840,arm3_q,2022.2.5,Win32,120.7729469,6445101fd46dd4427dfec91c,64aeaab685a29f4ca249be02,64bece2a7df58890b933712b,right,-1,0.6929,0.35,9,-0.048745479,0.9836,,,,,,48,0,48,0,1,,,,,
,,128880,001,2023-07-24_21h17.21.840,arm3_q,2022.2.5,Win32,120.7729469,6445101fd46dd4427dfec91c,64aeaab685a29f4ca249be02,64bece2a7df58890b933712b,down,1,0.6929,0.35,10,0,0.619,,,,,,49,0,49,0,1,,,,,
,,128880,001,2023-07-24_21h17.21.840,arm3_q,2022.2.5,Win32,120.7729469,6445101fd46dd4427dfec91c,64aeaab685a29f4ca249be02,64bece2a7df58890b933712b,right,1,0.6929,0.35,10,-0.029228923,1.0025,,,,,,50,0,50,0,1,,,,,
,,128880,001,2023-07-24_21h17.21.840,arm3_q,2022.2.5,Win32,120.7729469,6445101fd46dd4427dfec91c,64aeaab685a29f4ca249be02,64bece2a7df58890b933712b,right,1,0.6929,0.35,10,-0.015020282,0.5418,,,,,,51,0,51,0,1,,,,,
,,128880,001,2023-07-24_21h17.21.840,arm3_q,2022.2.5,Win32,120.7729469,6445101fd46dd4427dfec91c,64aeaab685a29f4ca249be02,64bece2a7df58890b933712b,right,1,0.6929,0.35,10,-0.011176048,0.7307,,,,,,52,0,52,0,1,,,,,
,,128880,001,2023-07-24_21h17.21.840,arm3_q,2022.2.5,Win32,120.7729469,6445101fd46dd4427dfec91c,64aeaab685a29f4ca249be02,64bece2a7df58890b933712b,right,1,0.6929,0.35,10,-0.007733635,0.8908,,,,,,53,0,53,0,1,,,,,
,,128880,001,2023-07-24_21h17.21.840,arm3_q,2022.2.5,Win32,120.7729469,6445101fd46dd4427dfec91c,64aeaab685a29f4ca249be02,64bece2a7df58890b933712b,right,1,0.6929,0.35,10,-0.012661727,0.5641,,,,,,54,0,54,0,1,,,,,
,,128880,001,2023-07-24_21h17.21.840,arm3_q,2022.2.5,Win32,120.7729469,6445101fd46dd4427dfec91c,64aeaab685a29f4ca249be02,64bece2a7df58890b933712b,down,1,0.6929,0.35,9,0,0.5305,,,,,,55,0,55,0,1,,,,,
,,128880,001,2023-07-24_21h17.21.840,arm3_q,2022.2.5,Win32,120.7729469,6445101fd46dd4427dfec91c,64aeaab685a29f4ca249be02,64bece2a7df58890b933712b,right,1,0.6929,0.35,9,-0.003631287,1.0957,,,,,,56,0,56,0,1,,,,,
,,128880,001,2023-07-24_21h17.21.840,arm3_q,2022.2.5,Win32,120.7729469,6445101fd46dd4427dfec91c,64aeaab685a29f4ca249be02,64bece2a7df58890b933712b,right,1,0.6929,0.35,9,0.013384009,0.7753,,,,,,57,0,57,0,1,,,,,
,,128880,001,2023-07-24_21h17.21.840,arm3_q,2022.2.5,Win32,120.7729469,6445101fd46dd4427dfec91c,64aeaab685a29f4ca249be02,64bece2a7df58890b933712b,right,1,0.6929,0.35,9,0.030122151,0.6005,,,,,,58,0,58,0,1,,,,,
,,128880,001,2023-07-24_21h17.21.840,arm3_q,2022.2.5,Win32,120.7729469,6445101fd46dd4427dfec91c,64aeaab685a29f4ca249be02,64bece2a7df58890b933712b,right,1,0.6929,0.35,9,0.022545593,0.6337,,,,,,59,0,59,0,1,,,,,
,,128880,001,2023-07-24_21h17.21.840,arm3_q,2022.2.5,Win32,120.7729469,6445101fd46dd4427dfec91c,64aeaab685a29f4ca249be02,64bece2a7df58890b933712b,up,-1,0.6929,0.35,9,0,0.85,,,,,,60,0,60,0,1,,,,,
,,128880,001,2023-07-24_21h17.21.840,arm3_q,2022.2.5,Win32,120.7729469,6445101fd46dd4427dfec91c,64aeaab685a29f4ca249be02,64bece2a7df58890b933712b,right,-1,0.6929,0.35,9,0.024006574,1.0747,,,,,,61,0,61,0,1,,,,,
,,128880,001,2023-07-24_21h17.21.840,arm3_q,2022.2.5,Win32,120.7729469,6445101fd46dd4427dfec91c,64aeaab685a29f4ca249be02,64bece2a7df58890b933712b,right,-1,0.6929,0.35,9,0.023908041,1.3798,,,,,,62,0,62,0,1,,,,,
,,128880,001,2023-07-24_21h17.21.840,arm3_q,2022.2.5,Win32,120.7729469,6445101fd46dd4427dfec91c,64aeaab685a29f4ca249be02,64bece2a7df58890b933712b,right,-1,0.6929,0.35,9,-0.013392214,1.2829,,,,,,63,0,63,0,1,,,,,
,,128880,001,2023-07-24_21h17.21.840,arm3_q,2022.2.5,Win32,120.7729469,6445101fd46dd4427dfec91c,64aeaab685a29f4ca249be02,64bece2a7df58890b933712b,down,-1,0.6929,0.35,10,0,0.717,,,,,,64,0,64,0,1,,,,,
,,128880,001,2023-07-24_21h17.21.840,arm3_q,2022.2.5,Win32,120.7729469,6445101fd46dd4427dfec91c,64aeaab685a29f4ca249be02,64bece2a7df58890b933712b,right,-1,0.6929,0.35,10,-0.017098355,1.0242,,,,,,65,0,65,0,1,,,,,
,,128880,001,2023-07-24_21h17.21.840,arm3_q,2022.2.5,Win32,120.7729469,6445101fd46dd4427dfec91c,64aeaab685a29f4ca249be02,64bece2a7df58890b933712b,right,-1,0.6929,0.35,10,-0.038583488,0.9963,,,,,,66,0,66,0,1,,,,,
,,128880,001,2023-07-24_21h17.21.840,arm3_q,2022.2.5,Win32,120.7729469,6445101fd46dd4427dfec91c,64aeaab685a29f4ca249be02,64bece2a7df58890b933712b,down,-1,0.6929,0.35,11,0,0.9253,,,,,,67,0,67,0,1,,,,,
,,128880,001,2023-07-24_21h17.21.840,arm3_q,2022.2.5,Win32,120.7729469,6445101fd46dd4427dfec91c,64aeaab685a29f4ca249be02,64bece2a7df58890b933712b,right,-1,0.6929,0.35,11,0.030105183,1.5019,,,,,,68,0,68,0,1,,,,,
,,128880,001,2023-07-24_21h17.21.840,arm3_q,2022.2.5,Win32,120.7729469,6445101fd46dd4427dfec91c,64aeaab685a29f4ca249be02,64bece2a7df58890b933712b,right,-1,0.6929,0.35,11,0.030787064,0.5586,,,,,,69,0,69,0,1,,,,,
,,128880,001,2023-07-24_21h17.21.840,arm3_q,2022.2.5,Win32,120.7729469,6445101fd46dd4427dfec91c,64aeaab685a29f4ca249be02,64bece2a7df58890b933712b,right,-1,0.6929,0.35,11,0.007861334,0.6611,,,,,,70,0,70,0,1,,,,,
,,128880,001,2023-07-24_21h17.21.840,arm3_q,2022.2.5,Win32,120.7729469,6445101fd46dd4427dfec91c,64aeaab685a29f4ca249be02,64bece2a7df58890b933712b,right,-1,0.6929,0.35,11,0.005096344,0.5024,,,,,,71,0,71,0,1,,,,,
,,128880,001,2023-07-24_21h17.21.840,arm3_q,2022.2.5,Win32,120.7729469,6445101fd46dd4427dfec91c,64aeaab685a29f4ca249be02,64bece2a7df58890b933712b,right,-1,0.6929,0.35,11,0.006262305,0.6337,,,,,,72,0,72,0,1,,,,,
,,128880,001,2023-07-24_21h17.21.840,arm3_q,2022.2.5,Win32,120.7729469,6445101fd46dd4427dfec91c,64aeaab685a29f4ca249be02,64bece2a7df58890b933712b,down,-1,0.6929,0.35,12,0,0.6834,,,,,,73,0,73,0,1,,,,,
,,128880,001,2023-07-24_21h17.21.840,arm3_q,2022.2.5,Win32,120.7729469,6445101fd46dd4427dfec91c,64aeaab685a29f4ca249be02,64bece2a7df58890b933712b,right,-1,0.6929,0.35,12,-0.003743086,1.046,,,,,,74,0,74,0,1,,,,,
,,128880,001,2023-07-24_21h17.21.840,arm3_q,2022.2.5,Win32,120.7729469,6445101fd46dd4427dfec91c,64aeaab685a29f4ca249be02,64bece2a7df58890b933712b,right,-1,0.6929,0.35,12,-0.021452966,0.5252,,,,,,75,0,75,0,1,,,,,
,,128880,001,2023-07-24_21h17.21.840,arm3_q,2022.2.5,Win32,120.7729469,6445101fd46dd4427dfec91c,64aeaab685a29f4ca249be02,64bece2a7df58890b933712b,right,-1,0.6929,0.35,12,-0.014313191,0.6838,,,,,,76,0,76,0,1,,,,,
,,128880,001,2023-07-24_21h17.21.840,arm3_q,2022.2.5,Win32,120.7729469,6445101fd46dd4427dfec91c,64aeaab685a29f4ca249be02,64bece2a7df58890b933712b,down,-1,0.6929,0.35,13,0,0.569,,,,,,77,0,77,0,1,,,,,
,,128880,001,2023-07-24_21h17.21.840,arm3_q,2022.2.5,Win32,120.7729469,6445101fd46dd4427dfec91c,64aeaab685a29f4ca249be02,64bece2a7df58890b933712b,right,-1,0.6929,0.35,13,-7.14938E-05,0.9417,,,,,,78,0,78,0,1,,,,,
,,128880,001,2023-07-24_21h17.21.840,arm3_q,2022.2.5,Win32,120.7729469,6445101fd46dd4427dfec91c,64aeaab685a29f4ca249be02,64bece2a7df58890b933712b,right,-1,0.6929,0.35,13,0.03229386,0.7924,,,,,,79,0,79,0,1,,,,,
,,128880,001,2023-07-24_21h17.21.840,arm3_q,2022.2.5,Win32,120.7729469,6445101fd46dd4427dfec91c,64aeaab685a29f4ca249be02,64bece2a7df58890b933712b,right,-1,0.6929,0.35,13,0.028814761,0.6918,,,,,,80,0,80,0,1,,,,,
,,128880,001,2023-07-24_21h17.21.840,arm3_q,2022.2.5,Win32,120.7729469,6445101fd46dd4427dfec91c,64aeaab685a29f4ca249be02,64bece2a7df58890b933712b,up,-1,0.6929,0.35,12,0,0.8004,,,,,,81,0,81,0,1,,,,,
,,128880,001,2023-07-24_21h17.21.840,arm3_q,2022.2.5,Win32,120.7729469,6445101fd46dd4427dfec91c,64aeaab685a29f4ca249be02,64bece2a7df58890b933712b,right,-1,0.6929,0.35,12,-0.036692654,1.5659,,,,,,82,0,82,0,1,,,,,
,,128880,001,2023-07-24_21h17.21.840,arm3_q,2022.2.5,Win32,120.7729469,6445101fd46dd4427dfec91c,64aeaab685a29f4ca249be02,64bece2a7df58890b933712b,right,-1,0.6929,0.35,12,-0.029572812,0.5939,,,,,,83,0,83,0,1,,,,,
,,128880,001,2023-07-24_21h17.21.840,arm3_q,2022.2.5,Win32,120.7729469,6445101fd46dd4427dfec91c,64aeaab685a29f4ca249be02,64bece2a7df58890b933712b,right,-1,0.6929,0.35,12,-0.01790529,0.6606,,,,,,84,0,84,0,1,,,,,
,,128880,001,2023-07-24_21h17.21.840,arm3_q,2022.2.5,Win32,120.7729469,6445101fd46dd4427dfec91c,64aeaab685a29f4ca249be02,64bece2a7df58890b933712b,down,-1,0.6929,0.35,12,0,0.7758,,,,,,85,0,85,0,1,,,,,
,,128880,001,2023-07-24_21h17.21.840,arm3_q,2022.2.5,Win32,120.7729469,6445101fd46dd4427dfec91c,64aeaab685a29f4ca249be02,64bece2a7df58890b933712b,right,-1,0.6929,0.35,12,0.00845488,0.9583,,,,,,86,0,86,0,1,,,,,
,,128880,001,2023-07-24_21h17.21.840,arm3_q,2022.2.5,Win32,120.7729469,6445101fd46dd4427dfec91c,64aeaab685a29f4ca249be02,64bece2a7df58890b933712b,right,-1,0.6929,0.35,12,-0.000993905,0.4588,,,,,,87,0,87,0,1,,,,,
,,128880,001,2023-07-24_21h17.21.840,arm3_q,2022.2.5,Win32,120.7729469,6445101fd46dd4427dfec91c,64aeaab685a29f4ca249be02,64bece2a7df58890b933712b,right,-1,0.6929,0.35,12,-0.016789319,0.6507,,,,,,88,0,88,0,1,,,,,
,,128880,001,2023-07-24_21h17.21.840,arm3_q,2022.2.5,Win32,120.7729469,6445101fd46dd4427dfec91c,64aeaab685a29f4ca249be02,64bece2a7df58890b933712b,down,1,0.6929,0.35,13,0,0.68,,,,,,89,0,89,0,1,,,,,
,,128880,001,2023-07-24_21h17.21.840,arm3_q,2022.2.5,Win32,120.7729469,6445101fd46dd4427dfec91c,64aeaab685a29f4ca249be02,64bece2a7df58890b933712b,right,1,0.6929,0.35,13,0.009359587,2.5076,,,,,,90,0,90,0,1,,,,,
,,128880,001,2023-07-24_21h17.21.840,arm3_q,2022.2.5,Win32,120.7729469,6445101fd46dd4427dfec91c,64aeaab685a29f4ca249be02,64bece2a7df58890b933712b,right,1,0.6929,0.35,13,0.023468906,0.7505,,,,,,91,0,91,0,1,,,,,
,,128880,001,2023-07-24_21h17.21.840,arm3_q,2022.2.5,Win32,120.7729469,6445101fd46dd4427dfec91c,64aeaab685a29f4ca249be02,64bece2a7df58890b933712b,up,1,0.6929,0.35,14,0,0.5504,,,,,,92,0,92,0,1,,,,,
,,128880,001,2023-07-24_21h17.21.840,arm3_q,2022.2.5,Win32,120.7729469,6445101fd46dd4427dfec91c,64aeaab685a29f4ca249be02,64bece2a7df58890b933712b,right,1,0.6929,0.35,14,-0.023284636,1.1541,,,,,,93,0,93,0,1,,,,,
,,128880,001,2023-07-24_21h17.21.840,arm3_q,2022.2.5,Win32,120.7729469,6445101fd46dd4427dfec91c,64aeaab685a29f4ca249be02,64bece2a7df58890b933712b,down,1,0.6929,0.35,14,0,0.6587,,,,,,94,0,94,0,1,,,,,
,,128880,001,2023-07-24_21h17.21.840,arm3_q,2022.2.5,Win32,120.7729469,6445101fd46dd4427dfec91c,64aeaab685a29f4ca249be02,64bece2a7df58890b933712b,right,1,0.6929,0.35,14,0.023081569,0.8385,,,,,,95,0,95,0,1,,,,,
,,128880,001,2023-07-24_21h17.21.840,arm3_q,2022.2.5,Win32,120.7729469,6445101fd46dd4427dfec91c,64aeaab685a29f4ca249be02,64bece2a7df58890b933712b,right,1,0.6929,0.35,14,0.025512901,0.6003,,,,,,96,0,96,0,1,,,,,
,,128880,001,2023-07-24_21h17.21.840,arm3_q,2022.2.5,Win32,120.7729469,6445101fd46dd4427dfec91c,64aeaab685a29f4ca249be02,64bece2a7df58890b933712b,right,1,0.6929,0.35,14,0.033533963,0.8588,,,,,,97,0,97,0,1,,,,,
,,128880,001,2023-07-24_21h17.21.840,arm3_q,2022.2.5,Win32,120.7729469,6445101fd46dd4427dfec91c,64aeaab685a29f4ca249be02,64bece2a7df58890b933712b,up,1,0.6929,0.35,15,0,0.5718,,,,,,98,0,98,0,1,,,,,
,,128880,001,2023-07-24_21h17.21.840,arm3_q,2022.2.5,Win32,120.7729469,6445101fd46dd4427dfec91c,64aeaab685a29f4ca249be02,64bece2a7df58890b933712b,right,1,0.6929,0.35,15,-0.003409104,1.0169,,,,,,99,0,99,0,1,,,,,
,,128880,001,2023-07-24_21h17.21.840,arm3_q,2022.2.5,Win32,120.7729469,6445101fd46dd4427dfec91c,64aeaab685a29f4ca249be02,64bece2a7df58890b933712b,right,1,0.6929,0.35,15,0.017526247,0.5173,,,,,,100,0,100,0,1,,,,,
,,128880,001,2023-07-24_21h17.21.840,arm3_q,2022.2.5,Win32,120.7729469,6445101fd46dd4427dfec91c,64aeaab685a29f4ca249be02,64bece2a7df58890b933712b,right,1,0.6929,0.35,15,0.020228337,0.6758,,,,,,101,0,101,0,1,,,,,
,,128880,001,2023-07-24_21h17.21.840,arm3_q,2022.2.5,Win32,120.7729469,6445101fd46dd4427dfec91c,64aeaab685a29f4ca249be02,64bece2a7df58890b933712b,up,1,0.6929,0.35,16,0,0.7255,,,,,,102,0,102,0,1,,,,,
,,128880,001,2023-07-24_21h17.21.840,arm3_q,2022.2.5,Win32,120.7729469,6445101fd46dd4427dfec91c,64aeaab685a29f4ca249be02,64bece2a7df58890b933712b,right,1,0.6929,0.35,16,0.03562862,1.1359,,,,,,103,0,103,0,1,,,,,
,,128880,001,2023-07-24_21h17.21.840,arm3_q,2022.2.5,Win32,120.7729469,6445101fd46dd4427dfec91c,64aeaab685a29f4ca249be02,64bece2a7df58890b933712b,up,1,0.6929,0.35,17,0,0.7766,,,,,,104,0,104,0,1,,,,,
,,128880,001,2023-07-24_21h17.21.840,arm3_q,2022.2.5,Win32,120.7729469,6445101fd46dd4427dfec91c,64aeaab685a29f4ca249be02,64bece2a7df58890b933712b,right,1,0.6929,0.35,17,0.026923598,1.1083,,,,,,105,0,105,0,1,,,,,
,,128880,001,2023-07-24_21h17.21.840,arm3_q,2022.2.5,Win32,120.7729469,6445101fd46dd4427dfec91c,64aeaab685a29f4ca249be02,64bece2a7df58890b933712b,right,1,0.6929,0.35,17,0.030796659,0.6087,,,,,,106,0,106,0,1,,,,,
,,128880,001,2023-07-24_21h17.21.840,arm3_q,2022.2.5,Win32,120.7729469,6445101fd46dd4427dfec91c,64aeaab685a29f4ca249be02,64bece2a7df58890b933712b,up,-1,0.6929,0.35,17,0,0.5418,,,,,,107,0,107,0,1,,,,,
,,128880,001,2023-07-24_21h17.21.840,arm3_q,2022.2.5,Win32,120.7729469,6445101fd46dd4427dfec91c,64aeaab685a29f4ca249be02,64bece2a7df58890b933712b,right,-1,0.6929,0.35,17,0.004308461,1.0715,,,,,,108,0,108,0,1,,,,,
,,128880,001,2023-07-24_21h17.21.840,arm3_q,2022.2.5,Win32,120.7729469,6445101fd46dd4427dfec91c,64aeaab685a29f4ca249be02,64bece2a7df58890b933712b,right,-1,0.6929,0.35,17,-0.01136457,0.4335,,,,,,109,0,109,0,1,,,,,
,,128880,001,2023-07-24_21h17.21.840,arm3_q,2022.2.5,Win32,120.7729469,6445101fd46dd4427dfec91c,64aeaab685a29f4ca249be02,64bece2a7df58890b933712b,down,-1,0.6929,0.35,18,0,0.6084,,,,,,110,0,110,0,1,,,,,
,,128880,001,2023-07-24_21h17.21.840,arm3_q,2022.2.5,Win32,120.7729469,6445101fd46dd4427dfec91c,64aeaab685a29f4ca249be02,64bece2a7df58890b933712b,right,-1,0.6929,0.35,18,-0.011329881,0.7667,,,,,,111,0,111,0,1,,,,,
,,128880,001,2023-07-24_21h17.21.840,arm3_q,2022.2.5,Win32,120.7729469,6445101fd46dd4427dfec91c,64aeaab685a29f4ca249be02,64bece2a7df58890b933712b,right,-1,0.6929,0.35,18,-0.021462939,0.4005,,,,,,112,0,112,0,1,,,,,
,,128880,001,2023-07-24_21h17.21.840,arm3_q,2022.2.5,Win32,120.7729469,6445101fd46dd4427dfec91c,64aeaab685a29f4ca249be02,64bece2a7df58890b933712b,right,-1,0.6929,0.35,18,-0.022737156,0.5335,,,,,,113,0,113,0,1,,,,,
,,128880,001,2023-07-24_21h17.21.840,arm3_q,2022.2.5,Win32,120.7729469,6445101fd46dd4427dfec91c,64aeaab685a29f4ca249be02,64bece2a7df58890b933712b,down,-1,0.6929,0.35,18,0,0.8942,,,,,,114,0,114,0,1,,,,,
,,128880,001,2023-07-24_21h17.21.840,arm3_q,2022.2.5,Win32,120.7729469,6445101fd46dd4427dfec91c,64aeaab685a29f4ca249be02,64bece2a7df58890b933712b,right,-1,0.6929,0.35,18,-0.015407564,0.7756,,,,,,115,0,115,0,1,,,,,
,,128880,001,2023-07-24_21h17.21.840,arm3_q,2022.2.5,Win32,120.7729469,6445101fd46dd4427dfec91c,64aeaab685a29f4ca249be02,64bece2a7df58890b933712b,right,-1,0.6929,0.35,18,-0.010179348,0.5169,,,,,,116,0,116,0,1,,,,,
,,128880,001,2023-07-24_21h17.21.840,arm3_q,2022.2.5,Win32,120.7729469,6445101fd46dd4427dfec91c,64aeaab685a29f4ca249be02,64bece2a7df58890b933712b,right,-1,0.6929,0.35,18,-0.021820909,0.6006,,,,,,117,0,117,0,1,,,,,
,,128880,001,2023-07-24_21h17.21.840,arm3_q,2022.2.5,Win32,120.7729469,6445101fd46dd4427dfec91c,64aeaab685a29f4ca249be02,64bece2a7df58890b933712b,down,-1,0.6929,0.35,19,0,0.4502,,,,,,118,0,118,0,1,,,,,
,,128880,001,2023-07-24_21h17.21.840,arm3_q,2022.2.5,Win32,120.7729469,6445101fd46dd4427dfec91c,64aeaab685a29f4ca249be02,64bece2a7df58890b933712b,right,-1,0.6929,0.35,19,-0.031702371,0.8184,,,,,,119,0,119,0,1,,,,,
,,128880,001,2023-07-24_21h17.21.840,arm3_q,2022.2.5,Win32,120.7729469,6445101fd46dd4427dfec91c,64aeaab685a29f4ca249be02,64bece2a7df58890b933712b,down,1,0.6929,0.35,19,0,0.5918,,,,,,120,0,120,0,1,,,,,
,,128880,001,2023-07-24_21h17.21.840,arm3_q,2022.2.5,Win32,120.7729469,6445101fd46dd4427dfec91c,64aeaab685a29f4ca249be02,64bece2a7df58890b933712b,right,1,0.6929,0.35,19,-0.026664806,0.8497,,,,,,121,0,121,0,1,,,,,
,,128880,001,2023-07-24_21h17.21.840,arm3_q,2022.2.5,Win32,120.7729469,6445101fd46dd4427dfec91c,64aeaab685a29f4ca249be02,64bece2a7df58890b933712b,right,1,0.6929,0.35,19,-0.006292828,0.4709,,,,,,122,0,122,0,1,,,,,
,,128880,001,2023-07-24_21h17.21.840,arm3_q,2022.2.5,Win32,120.7729469,6445101fd46dd4427dfec91c,64aeaab685a29f4ca249be02,64bece2a7df58890b933712b,right,1,0.6929,0.35,19,-0.010877964,0.4833,,,,,,123,0,123,0,1,,,,,
,,128880,001,2023-07-24_21h17.21.840,arm3_q,2022.2.5,Win32,120.7729469,6445101fd46dd4427dfec91c,64aeaab685a29f4ca249be02,64bece2a7df58890b933712b,up,1,0.6929,0.35,19,0,1.0344,,,,,,124,0,124,0,1,,,,,
,,128880,001,2023-07-24_21h17.21.840,arm3_q,2022.2.5,Win32,120.7729469,6445101fd46dd4427dfec91c,64aeaab685a29f4ca249be02,64bece2a7df58890b933712b,right,1,0.6929,0.35,19,-0.002224349,0.8519,,,,,,125,0,125,0,1,,,,,
,,128880,001,2023-07-24_21h17.21.840,arm3_q,2022.2.5,Win32,120.7729469,6445101fd46dd4427dfec91c,64aeaab685a29f4ca249be02,64bece2a7df58890b933712b,right,1,0.6929,0.35,19,0.031524618,0.5416,,,,,,126,0,126,0,1,,,,,
,,128880,001,2023-07-24_21h17.21.840,arm3_q,2022.2.5,Win32,120.7729469,6445101fd46dd4427dfec91c,64aeaab685a29f4ca249be02,64bece2a7df58890b933712b,right,1,0.6929,0.35,19,0.014729817,0.5002,,,,,,127,0,127,0,1,,,,,
,,128880,001,2023-07-24_21h17.21.840,arm3_q,2022.2.5,Win32,120.7729469,6445101fd46dd4427dfec91c,64aeaab685a29f4ca249be02,64bece2a7df58890b933712b,right,1,0.6929,0.35,19,0.004185343,0.6503,,,,,,128,0,128,0,1,,,,,
,,128880,001,2023-07-24_21h17.21.840,arm3_q,2022.2.5,Win32,120.7729469,6445101fd46dd4427dfec91c,64aeaab685a29f4ca249be02,64bece2a7df58890b933712b,right,1,0.6929,0.35,19,0.009372428,0.5045,,,,,,129,0,129,0,1,,,,,
,,128880,001,2023-07-24_21h17.21.840,arm3_q,2022.2.5,Win32,120.7729469,6445101fd46dd4427dfec91c,64aeaab685a29f4ca249be02,64bece2a7df58890b933712b,up,1,0.6929,0.35,20,0,0.7878,,,,,,130,0,130,0,1,,,,,
,,128880,001,2023-07-24_21h17.21.840,arm3_q,2022.2.5,Win32,120.7729469,6445101fd46dd4427dfec91c,64aeaab685a29f4ca249be02,64bece2a7df58890b933712b,right,1,0.6929,0.35,20,0.021866334,1.0259,,,,,,131,0,131,0,1,,,,,
,,128880,001,2023-07-24_21h17.21.840,arm3_q,2022.2.5,Win32,120.7729469,6445101fd46dd4427dfec91c,64aeaab685a29f4ca249be02,64bece2a7df58890b933712b,right,1,0.6929,0.35,20,0.036100672,0.7171,,,,,,132,0,132,0,1,,,,,
,,128880,001,2023-07-24_21h17.21.840,arm3_q,2022.2.5,Win32,120.7729469,6445101fd46dd4427dfec91c,64aeaab685a29f4ca249be02,64bece2a7df58890b933712b,right,1,0.6929,0.35,20,0.055788818,0.4252,,,,,,133,0,133,0,1,,,,,
,,128880,001,2023-07-24_21h17.21.840,arm3_q,2022.2.5,Win32,120.7729469,6445101fd46dd4427dfec91c,64aeaab685a29f4ca249be02,64bece2a7df58890b933712b,up,-1,0.6929,0.35,21,0,0.6296,,,,,,134,0,134,0,1,,,,,
,,128880,001,2023-07-24_21h17.21.840,arm3_q,2022.2.5,Win32,120.7729469,6445101fd46dd4427dfec91c,64aeaab685a29f4ca249be02,64bece2a7df58890b933712b,right,-1,0.6929,0.35,21,-0.000874956,0.9421,,,,,,135,0,135,0,1,,,,,
,,128880,001,2023-07-24_21h17.21.840,arm3_q,2022.2.5,Win32,120.7729469,6445101fd46dd4427dfec91c,64aeaab685a29f4ca249be02,64bece2a7df58890b933712b,right,-1,0.6929,0.35,21,0.001433532,0.3587,,,,,,136,0,136,0,1,,,,,
,,128880,001,2023-07-24_21h17.21.840,arm3_q,2022.2.5,Win32,120.7729469,6445101fd46dd4427dfec91c,64aeaab685a29f4ca249be02,64bece2a7df58890b933712b,right,-1,0.6929,0.35,21,-0.008764806,0.4833,,,,,,137,0,137,0,1,,,,,
,,128880,001,2023-07-24_21h17.21.840,arm3_q,2022.2.5,Win32,120.7729469,6445101fd46dd4427dfec91c,64aeaab685a29f4ca249be02,64bece2a7df58890b933712b,up,-1,0.6929,0.35,20,0,1.4253,,,,,,138,0,138,0,1,,,,,
,,128880,001,2023-07-24_21h17.21.840,arm3_q,2022.2.5,Win32,120.7729469,6445101fd46dd4427dfec91c,64aeaab685a29f4ca249be02,64bece2a7df58890b933712b,right,-1,0.6929,0.35,20,0.002271193,1.0334,,,,,,139,0,139,0,1,,,,,
,,128880,001,2023-07-24_21h17.21.840,arm3_q,2022.2.5,Win32,120.7729469,6445101fd46dd4427dfec91c,64aeaab685a29f4ca249be02,64bece2a7df58890b933712b,right,-1,0.6929,0.35,20,-0.007567501,0.5711,,,,,,140,0,140,0,1,,,,,
,,128880,001,2023-07-24_21h17.21.840,arm3_q,2022.2.5,Win32,120.7729469,6445101fd46dd4427dfec91c,64aeaab685a29f4ca249be02,64bece2a7df58890b933712b,down,-1,0.6929,0.35,21,0,0.7256,,,,,,141,0,141,0,1,,,,,
,,128880,001,2023-07-24_21h17.21.840,arm3_q,2022.2.5,Win32,120.7729469,6445101fd46dd4427dfec91c,64aeaab685a29f4ca249be02,64bece2a7df58890b933712b,right,-1,0.6929,0.35,21,-0.009766538,0.8488,,,,,,142,0,142,0,1,,,,,
,,128880,001,2023-07-24_21h17.21.840,arm3_q,2022.2.5,Win32,120.7729469,6445101fd46dd4427dfec91c,64aeaab685a29f4ca249be02,64bece2a7df58890b933712b,right,-1,0.6929,0.35,21,-0.019465158,1.4256,,,,,,143,0,143,0,1,,,,,
,,128880,001,2023-07-24_21h17.21.840,arm3_q,2022.2.5,Win32,120.7729469,6445101fd46dd4427dfec91c,64aeaab685a29f4ca249be02,64bece2a7df58890b933712b,right,-1,0.6929,0.35,21,-0.026390785,1.0502,,,,,,144,0,144,0,1,,,,,
,,128880,001,2023-07-24_21h17.21.840,arm3_q,2022.2.5,Win32,120.7729469,6445101fd46dd4427dfec91c,64aeaab685a29f4ca249be02,64bece2a7df58890b933712b,down,1,0.6929,0.35,22,0,0.8255,,,,,,145,0,145,0,1,,,,,
,,128880,001,2023-07-24_21h17.21.840,arm3_q,2022.2.5,Win32,120.7729469,6445101fd46dd4427dfec91c,64aeaab685a29f4ca249be02,64bece2a7df58890b933712b,down,-1,0.6929,0.35,21,0,0.1092,,,,,,146,0,146,0,1,,,,,
,,128880,001,2023-07-24_21h17.21.840,arm3_q,2022.2.5,Win32,120.7729469,6445101fd46dd4427dfec91c,64aeaab685a29f4ca249be02,64bece2a7df58890b933712b,right,-1,0.6929,0.35,21,-0.011830081,1.2697,,,,,,147,0,147,0,1,,,,,
,,128880,001,2023-07-24_21h17.21.840,arm3_q,2022.2.5,Win32,120.7729469,6445101fd46dd4427dfec91c,64aeaab685a29f4ca249be02,64bece2a7df58890b933712b,right,-1,0.6929,0.35,21,-0.023016086,0.967,,,,,,148,0,148,0,1,,,,,
,,128880,001,2023-07-24_21h17.21.840,arm3_q,2022.2.5,Win32,120.7729469,6445101fd46dd4427dfec91c,64aeaab685a29f4ca249be02,64bece2a7df58890b933712b,right,-1,0.6929,0.35,21,-0.015719866,0.6919,,,,,,149,0,149,0,1,,,,,
,,128880,001,2023-07-24_21h17.21.840,arm3_q,2022.2.5,Win32,120.7729469,6445101fd46dd4427dfec91c,64aeaab685a29f4ca249be02,64bece2a7df58890b933712b,down,-1,0.6929,0.35,22,0,0.8332,,,,,,150,0,150,0,1,,,,,
,,128880,001,2023-07-24_21h17.21.840,arm3_q,2022.2.5,Win32,120.7729469,6445101fd46dd4427dfec91c,64aeaab685a29f4ca249be02,64bece2a7df58890b933712b,right,-1,0.6929,0.35,22,-0.033081773,0.9051,,,,,,151,0,151,0,1,,,,,
,,128880,001,2023-07-24_21h17.21.840,arm3_q,2022.2.5,Win32,120.7729469,6445101fd46dd4427dfec91c,64aeaab685a29f4ca249be02,64bece2a7df58890b933712b,down,-1,0.6929,0.35,22,0,0.5502,,,,,,152,0,152,0,1,,,,,
,,128880,001,2023-07-24_21h17.21.840,arm3_q,2022.2.5,Win32,120.7729469,6445101fd46dd4427dfec91c,64aeaab685a29f4ca249be02,64bece2a7df58890b933712b,right,-1,0.6929,0.35,22,-0.02074103,0.8099,,,,,,153,0,153,0,1,,,,,
,,128880,001,2023-07-24_21h17.21.840,arm3_q,2022.2.5,Win32,120.7729469,6445101fd46dd4427dfec91c,64aeaab685a29f4ca249be02,64bece2a7df58890b933712b,down,1,0.6929,0.35,23,0,1.5378,,,,,,154,0,154,0,1,,,,,
,,128880,001,2023-07-24_21h17.21.840,arm3_q,2022.2.5,Win32,120.7729469,6445101fd46dd4427dfec91c,64aeaab685a29f4ca249be02,64bece2a7df58890b933712b,right,1,0.6929,0.35,23,0.035734568,1.1841,,,,,,155,0,155,0,1,,,,,
,,128880,001,2023-07-24_21h17.21.840,arm3_q,2022.2.5,Win32,120.7729469,6445101fd46dd4427dfec91c,64aeaab685a29f4ca249be02,64bece2a7df58890b933712b,up,1,0.6929,0.35,24,0,0.4667,,,,,,156,0,156,0,1,,,,,
,,128880,001,2023-07-24_21h17.21.840,arm3_q,2022.2.5,Win32,120.7729469,6445101fd46dd4427dfec91c,64aeaab685a29f4ca249be02,64bece2a7df58890b933712b,right,1,0.6929,0.35,24,0.041749668,1.2755,,,,,,157,0,157,0,1,,,,,
,,128880,001,2023-07-24_21h17.21.840,arm3_q,2022.2.5,Win32,120.7729469,6445101fd46dd4427dfec91c,64aeaab685a29f4ca249be02,64bece2a7df58890b933712b,up,1,0.6929,0.35,25,0,0.6515,,,,,,158,0,158,0,1,,,,,
,,128880,001,2023-07-24_21h17.21.840,arm3_q,2022.2.5,Win32,120.7729469,6445101fd46dd4427dfec91c,64aeaab685a29f4ca249be02,64bece2a7df58890b933712b,right,1,0.6929,0.35,25,-0.017626222,1.1923,,,,,,159,0,159,0,1,,,,,
,,128880,001,2023-07-24_21h17.21.840,arm3_q,2022.2.5,Win32,120.7729469,6445101fd46dd4427dfec91c,64aeaab685a29f4ca249be02,64bece2a7df58890b933712b,right,1,0.6929,0.35,25,-0.029216846,1.0585,,,,,,160,0,160,0,1,,,,,
,,128880,001,2023-07-24_21h17.21.840,arm3_q,2022.2.5,Win32,120.7729469,6445101fd46dd4427dfec91c,64aeaab685a29f4ca249be02,64bece2a7df58890b933712b,right,1,0.6929,0.35,25,-0.006057156,0.6112,,,,,,161,0,161,0,1,,,,,
,,128880,001,2023-07-24_21h17.21.840,arm3_q,2022.2.5,Win32,120.7729469,6445101fd46dd4427dfec91c,64aeaab685a29f4ca249be02,64bece2a7df58890b933712b,up,1,0.6929,0.35,25,0,0.7005,,,,,,162,0,162,0,1,,,,,
,,128880,001,2023-07-24_21h17.21.840,arm3_q,2022.2.5,Win32,120.7729469,6445101fd46dd4427dfec91c,64aeaab685a29f4ca249be02,64bece2a7df58890b933712b,right,1,0.6929,0.35,25,0.012482969,1.0075,,,,,,163,0,163,0,1,,,,,
,,128880,001,2023-07-24_21h17.21.840,arm3_q,2022.2.5,Win32,120.7729469,6445101fd46dd4427dfec91c,64aeaab685a29f4ca249be02,64bece2a7df58890b933712b,right,1,0.6929,0.35,25,0.00700199,1.0546,,,,,,164,0,164,0,1,,,,,
,,128880,001,2023-07-24_21h17.21.840,arm3_q,2022.2.5,Win32,120.7729469,6445101fd46dd4427dfec91c,64aeaab685a29f4ca249be02,64bece2a7df58890b933712b,up,-1,0.6929,0.35,26,0,0.894,,,,,,165,0,165,0,1,,,,,
,,128880,001,2023-07-24_21h17.21.840,arm3_q,2022.2.5,Win32,120.7729469,6445101fd46dd4427dfec91c,64aeaab685a29f4ca249be02,64bece2a7df58890b933712b,right,-1,0.6929,0.35,26,0.002071526,1.146,,,,,,166,0,166,0,1,,,,,
,,128880,001,2023-07-24_21h17.21.840,arm3_q,2022.2.5,Win32,120.7729469,6445101fd46dd4427dfec91c,64aeaab685a29f4ca249be02,64bece2a7df58890b933712b,right,-1,0.6929,0.35,26,-0.008980846,0.4648,,,,,,167,0,167,0,1,,,,,
,,128880,001,2023-07-24_21h17.21.840,arm3_q,2022.2.5,Win32,120.7729469,6445101fd46dd4427dfec91c,64aeaab685a29f4ca249be02,64bece2a7df58890b933712b,right,-1,0.6929,0.35,26,-0.016756457,0.4576,,,,,,168,0,168,0,1,,,,,
,,128880,001,2023-07-24_21h17.21.840,arm3_q,2022.2.5,Win32,120.7729469,6445101fd46dd4427dfec91c,64aeaab685a29f4ca249be02,64bece2a7df58890b933712b,down,1,0.6929,0.35,26,0,0.4667,,,,,,169,0,169,0,1,,,,,
,,128880,001,2023-07-24_21h17.21.840,arm3_q,2022.2.5,Win32,120.7729469,6445101fd46dd4427dfec91c,64aeaab685a29f4ca249be02,64bece2a7df58890b933712b,right,1,0.6929,0.35,26,-0.00636524,0.764,,,,,,170,0,170,0,1,,,,,
,,128880,001,2023-07-24_21h17.21.840,arm3_q,2022.2.5,Win32,120.7729469,6445101fd46dd4427dfec91c,64aeaab685a29f4ca249be02,64bece2a7df58890b933712b,right,1,0.6929,0.35,26,-0.008793889,0.4325,,,,,,171,0,171,0,1,,,,,
,,128880,001,2023-07-24_21h17.21.840,arm3_q,2022.2.5,Win32,120.7729469,6445101fd46dd4427dfec91c,64aeaab685a29f4ca249be02,64bece2a7df58890b933712b,right,1,0.6929,0.35,26,-0.011033482,0.4412,,,,,,172,0,172,0,1,,,,,
,,128880,001,2023-07-24_21h17.21.840,arm3_q,2022.2.5,Win32,120.7729469,6445101fd46dd4427dfec91c,64aeaab685a29f4ca249be02,64bece2a7df58890b933712b,up,-1,0.6929,0.35,27,0,0.8228,,,,,,173,0,173,0,1,,,,,
,,128880,001,2023-07-24_21h17.21.840,arm3_q,2022.2.5,Win32,120.7729469,6445101fd46dd4427dfec91c,64aeaab685a29f4ca249be02,64bece2a7df58890b933712b,right,-1,0.6929,0.35,27,-0.002164168,0.9726,,,,,,174,0,174,0,1,,,,,
,,128880,001,2023-07-24_21h17.21.840,arm3_q,2022.2.5,Win32,120.7729469,6445101fd46dd4427dfec91c,64aeaab685a29f4ca249be02,64bece2a7df58890b933712b,right,-1,0.6929,0.35,27,-0.026709589,1.057,,,,,,175,0,175,0,1,,,,,
,,128880,001,2023-07-24_21h17.21.840,arm3_q,2022.2.5,Win32,120.7729469,6445101fd46dd4427dfec91c,64aeaab685a29f4ca249be02,64bece2a7df58890b933712b,right,-1,0.6929,0.35,27,0.014870249,0.839,,,,,,176,0,176,0,1,,,,,
,,128880,001,2023-07-24_21h17.21.840,arm3_q,2022.2.5,Win32,120.7729469,6445101fd46dd4427dfec91c,64aeaab685a29f4ca249be02,64bece2a7df58890b933712b,right,-1,0.6929,0.35,27,-0.00607917,0.6573,,,,,,177,0,177,0,1,,,,,
,,128880,001,2023-07-24_21h17.21.840,arm3_q,2022.2.5,Win32,120.7729469,6445101fd46dd4427dfec91c,64aeaab685a29f4ca249be02,64bece2a7df58890b933712b,right,-1,0.6929,0.35,27,-0.008820507,0.9142,,,,,,178,0,178,0,1,,,,,
,,128880,001,2023-07-24_21h17.21.840,arm3_q,2022.2.5,Win32,120.7729469,6445101fd46dd4427dfec91c,64aeaab685a29f4ca249be02,64bece2a7df58890b933712b,down,-1,0.6929,0.35,28,0,0.7227,,,,,,179,0,179,0,1,,,,,
,,128880,001,2023-07-24_21h17.21.840,arm3_q,2022.2.5,Win32,120.7729469,6445101fd46dd4427dfec91c,64aeaab685a29f4ca249be02,64bece2a7df58890b933712b,right,-1,0.6929,0.35,28,-0.022358004,1.0225,,,,,,180,0,180,0,1,,,,,
,,128880,001,2023-07-24_21h17.21.840,arm3_q,2022.2.5,Win32,120.7729469,6445101fd46dd4427dfec91c,64aeaab685a29f4ca249be02,64bece2a7df58890b933712b,right,-1,0.6929,0.35,28,-0.006750315,0.422,,,,,,181,0,181,0,1,,,,,
,,128880,001,2023-07-24_21h17.21.840,arm3_q,2022.2.5,Win32,120.7729469,6445101fd46dd4427dfec91c,64aeaab685a29f4ca249be02,64bece2a7df58890b933712b,right,-1,0.6929,0.35,28,-0.021697846,0.4479,,,,,,182,0,182,0,1,,,,,
,,128880,001,2023-07-24_21h17.21.840,arm3_q,2022.2.5,Win32,120.7729469,6445101fd46dd4427dfec91c,64aeaab685a29f4ca249be02,64bece2a7df58890b933712b,right,-1,0.6929,0.35,28,-0.01589206,0.5329,,,,,,183,0,183,0,1,,,,,
,,128880,001,2023-07-24_21h17.21.840,arm3_q,2022.2.5,Win32,120.7729469,6445101fd46dd4427dfec91c,64aeaab685a29f4ca249be02,64bece2a7df58890b933712b,right,-1,0.6929,0.35,28,-0.028634553,0.5321,,,,,,184,0,184,0,1,,,,,
,,128880,001,2023-07-24_21h17.21.840,arm3_q,2022.2.5,Win32,120.7729469,6445101fd46dd4427dfec91c,64aeaab685a29f4ca249be02,64bece2a7df58890b933712b,right,-1,0.6929,0.35,28,-0.019858001,0.6576,,,,,,185,0,185,0,1,,,,,
,,128880,001,2023-07-24_21h17.21.840,arm3_q,2022.2.5,Win32,120.7729469,6445101fd46dd4427dfec91c,64aeaab685a29f4ca249be02,64bece2a7df58890b933712b,right,-1,0.6929,0.35,28,-0.008245314,0.6723,,,,,,186,0,186,0,1,,,,,
,,128880,001,2023-07-24_21h17.21.840,arm3_q,2022.2.5,Win32,120.7729469,6445101fd46dd4427dfec91c,64aeaab685a29f4ca249be02,64bece2a7df58890b933712b,right,-1,0.6929,0.35,28,-0.023111439,0.5659,,,,,,187,0,187,0,1,,,,,
,,128880,001,2023-07-24_21h17.21.840,arm3_q,2022.2.5,Win32,120.7729469,6445101fd46dd4427dfec91c,64aeaab685a29f4ca249be02,64bece2a7df58890b933712b,down,-1,0.6929,0.35,29,0,0.4917,,,,,,188,0,188,0,1,,,,,
,,128880,001,2023-07-24_21h17.21.840,arm3_q,2022.2.5,Win32,120.7729469,6445101fd46dd4427dfec91c,64aeaab685a29f4ca249be02,64bece2a7df58890b933712b,right,-1,0.6929,0.35,29,-0.019500276,1.5897,,,,,,189,0,189,0,1,,,,,
,,128880,001,2023-07-24_21h17.21.840,arm3_q,2022.2.5,Win32,120.7729469,6445101fd46dd4427dfec91c,64aeaab685a29f4ca249be02,64bece2a7df58890b933712b,right,-1,0.6929,0.35,29,0.000305162,0.4591,,,,,,190,0,190,0,1,,,,,
,,128880,001,2023-07-24_21h17.21.840,arm3_q,2022.2.5,Win32,120.7729469,6445101fd46dd4427dfec91c,64aeaab685a29f4ca249be02,64bece2a7df58890b933712b,right,-1,0.6929,0.35,29,-0.02014152,0.808,,,,,,191,0,191,0,1,,,,,
,,128880,001,2023-07-24_21h17.21.840,arm3_q,2022.2.5,Win32,120.7729469,6445101fd46dd4427dfec91c,64aeaab685a29f4ca249be02,64bece2a7df58890b933712b,down,-1,0.6929,0.35,29,0,1.0223,,,,,,192,0,192,0,1,,,,,
,,128880,001,2023-07-24_21h17.21.840,arm3_q,2022.2.5,Win32,120.7729469,6445101fd46dd4427dfec91c,64aeaab685a29f4ca249be02,64bece2a7df58890b933712b,right,-1,0.6929,0.35,29,0.006511049,0.7705,,,,,,193,0,193,0,1,,,,,
,,128880,001,2023-07-24_21h17.21.840,arm3_q,2022.2.5,Win32,120.7729469,6445101fd46dd4427dfec91c,64aeaab685a29f4ca249be02,64bece2a7df58890b933712b,right,-1,0.6929,0.35,29,-0.008874384,0.3892,,,,,,194,0,194,0,1,,,,,
,,128880,001,2023-07-24_21h17.21.840,arm3_q,2022.2.5,Win32,120.7729469,6445101fd46dd4427dfec91c,64aeaab685a29f4ca249be02,64bece2a7df58890b933712b,right,-1,0.6929,0.35,29,-0.017815226,0.564,,,,,,195,0,195,0,1,,,,,
,,128880,001,2023-07-24_21h17.21.840,arm3_q,2022.2.5,Win32,120.7729469,6445101fd46dd4427dfec91c,64aeaab685a29f4ca249be02,64bece2a7df58890b933712b,down,1,0.6929,0.35,29,0,0.4753,,,,,,196,0,196,0,1,,,,,
,,128880,001,2023-07-24_21h17.21.840,arm3_q,2022.2.5,Win32,120.7729469,6445101fd46dd4427dfec91c,64aeaab685a29f4ca249be02,64bece2a7df58890b933712b,right,1,0.6929,0.35,29,0.030228723,0.8255,,,,,,197,0,197,0,1,,,,,
,,128880,001,2023-07-24_21h17.21.840,arm3_q,2022.2.5,Win32,120.7729469,6445101fd46dd4427dfec91c,64aeaab685a29f4ca249be02,64bece2a7df58890b933712b,right,1,0.6929,0.35,29,0.000784853,0.4745,,,,,,198,0,198,0,1,,,,,
,,128880,001,2023-07-24_21h17.21.840,arm3_q,2022.2.5,Win32,120.7729469,6445101fd46dd4427dfec91c,64aeaab685a29f4ca249be02,64bece2a7df58890b933712b,right,1,0.6929,0.35,29,0.020830232,0.7575,,,,,,199,0,199,0,1,,,,,
,,128880,001,2023-07-24_21h17.21.840,arm3_q,2022.2.5,Win32,120.7729469,6445101fd46dd4427dfec91c,64aeaab685a29f4ca249be02,64bece2a7df58890b933712b,up,1,0.6929,0.35,30,0,0.7067,,,,,,200,0,200,0,1,,,,,
,,128880,001,2023-07-24_21h17.21.840,arm3_q,2022.2.5,Win32,120.7729469,6445101fd46dd4427dfec91c,64aeaab685a29f4ca249be02,64bece2a7df58890b933712b,right,1,0.6929,0.35,30,0.014210645,0.8726,,,,,,201,0,201,0,1,,,,,
,,128880,001,2023-07-24_21h17.21.840,arm3_q,2022.2.5,Win32,120.7729469,6445101fd46dd4427dfec91c,64aeaab685a29f4ca249be02,64bece2a7df58890b933712b,up,1,0.6929,0.35,31,0,0.6663,,,,,,202,0,202,0,1,,,,,
,,128880,001,2023-07-24_21h17.21.840,arm3_q,2022.2.5,Win32,120.7729469,6445101fd46dd4427dfec91c,64aeaab685a29f4ca249be02,64bece2a7df58890b933712b,right,1,0.6929,0.35,31,0.016560128,0.8407,,,,,,203,0,203,0,1,,,,,
,,128880,001,2023-07-24_21h17.21.840,arm3_q,2022.2.5,Win32,120.7729469,6445101fd46dd4427dfec91c,64aeaab685a29f4ca249be02,64bece2a7df58890b933712b,right,1,0.6929,0.35,31,-0.010308179,0.466,,,,,,204,0,204,0,1,,,,,
,,128880,001,2023-07-24_21h17.21.840,arm3_q,2022.2.5,Win32,120.7729469,6445101fd46dd4427dfec91c,64aeaab685a29f4ca249be02,64bece2a7df58890b933712b,right,1,0.6929,0.35,31,0.021748797,0.6556,,,,,,205,0,205,0,1,,,,,
,,128880,001,2023-07-24_21h17.21.840,arm3_q,2022.2.5,Win32,120.7729469,6445101fd46dd4427dfec91c,64aeaab685a29f4ca249be02,64bece2a7df58890b933712b,up,-1,0.6929,0.35,32,0,0.5081,,,,,,206,0,206,0,1,,,,,
,,128880,001,2023-07-24_21h17.21.840,arm3_q,2022.2.5,Win32,120.7729469,6445101fd46dd4427dfec91c,64aeaab685a29f4ca249be02,64bece2a7df58890b933712b,right,-1,0.6929,0.35,32,-0.036463808,1.2991,,,,,,207,0,207,0,1,,,,,
,,128880,001,2023-07-24_21h17.21.840,arm3_q,2022.2.5,Win32,120.7729469,6445101fd46dd4427dfec91c,64aeaab685a29f4ca249be02,64bece2a7df58890b933712b,down,-1,0.6929,0.35,33,0,0.8908,,,,,,208,0,208,0,1,,,,,
,,128880,001,2023-07-24_21h17.21.840,arm3_q,2022.2.5,Win32,120.7729469,6445101fd46dd4427dfec91c,64aeaab685a29f4ca249be02,64bece2a7df58890b933712b,right,-1,0.6929,0.35,33,-0.027393602,1.349,,,,,,209,0,209,0,1,,,,,
,,128880,001,2023-07-24_21h17.21.840,arm3_q,2022.2.5,Win32,120.7729469,6445101fd46dd4427dfec91c,64aeaab685a29f4ca249be02,64bece2a7df58890b933712b,right,-1,0.6929,0.35,33,-0.058558798,0.515,,,,,,210,0,210,0,1,,,,,
,,128880,001,2023-07-24_21h17.21.840,arm3_q,2022.2.5,Win32,120.7729469,6445101fd46dd4427dfec91c,64aeaab685a29f4ca249be02,64bece2a7df58890b933712b,down,-1,0.6929,0.35,34,0,0.8508,,,,,,211,0,211,0,1,,,,,
,,128880,001,2023-07-24_21h17.21.840,arm3_q,2022.2.5,Win32,120.7729469,6445101fd46dd4427dfec91c,64aeaab685a29f4ca249be02,64bece2a7df58890b933712b,right,-1,0.6929,0.35,34,-0.041634075,1.0323,,,,,,212,0,212,0,1,,,,,
,,128880,001,2023-07-24_21h17.21.840,arm3_q,2022.2.5,Win32,120.7729469,6445101fd46dd4427dfec91c,64aeaab685a29f4ca249be02,64bece2a7df58890b933712b,down,-1,0.6929,0.35,35,0,0.5887,,,,,,213,0,213,0,1,,,,,
,,128880,001,2023-07-24_21h17.21.840,arm3_q,2022.2.5,Win32,120.7729469,6445101fd46dd4427dfec91c,64aeaab685a29f4ca249be02,64bece2a7df58890b933712b,right,-1,0.6929,0.35,35,-0.035635733,1.0054,,,,,,214,0,214,0,1,,,,,
,,128880,001,2023-07-24_21h17.21.840,arm3_q,2022.2.5,Win32,120.7729469,6445101fd46dd4427dfec91c,64aeaab685a29f4ca249be02,64bece2a7df58890b933712b,right,-1,0.6929,0.35,35,-0.033893394,0.5659,,,,,,215,0,215,0,1,,,,,
,,128880,001,2023-07-24_21h17.21.840,arm3_q,2022.2.5,Win32,120.7729469,6445101fd46dd4427dfec91c,64aeaab685a29f4ca249be02,64bece2a7df58890b933712b,down,1,0.6929,0.35,35,0,0.673,,,,,,216,0,216,0,1,,,,,
,,128880,001,2023-07-24_21h17.21.840,arm3_q,2022.2.5,Win32,120.7729469,6445101fd46dd4427dfec91c,64aeaab685a29f4ca249be02,64bece2a7df58890b933712b,right,1,0.6929,0.35,35,0.050749809,1.1574,,,,,,217,0,217,0,1,,,,,
,,128880,001,2023-07-24_21h17.21.840,arm3_q,2022.2.5,Win32,120.7729469,6445101fd46dd4427dfec91c,64aeaab685a29f4ca249be02,64bece2a7df58890b933712b,up,-1,0.6929,0.35,36,0,0.4162,,,,,,218,0,218,0,1,,,,,
,,128880,001,2023-07-24_21h17.21.840,arm3_q,2022.2.5,Win32,120.7729469,6445101fd46dd4427dfec91c,64aeaab685a29f4ca249be02,64bece2a7df58890b933712b,right,-1,0.6929,0.35,36,-0.004535486,1.0216,,,,,,219,0,219,0,1,,,,,
,,128880,001,2023-07-24_21h17.21.840,arm3_q,2022.2.5,Win32,120.7729469,6445101fd46dd4427dfec91c,64aeaab685a29f4ca249be02,64bece2a7df58890b933712b,right,-1,0.6929,0.35,36,-0.010945926,0.6924,,,,,,220,0,220,0,1,,,,,
,,128880,001,2023-07-24_21h17.21.840,arm3_q,2022.2.5,Win32,120.7729469,6445101fd46dd4427dfec91c,64aeaab685a29f4ca249be02,64bece2a7df58890b933712b,down,-1,0.6929,0.35,37,0,0.4754,,,,,,221,0,221,0,1,,,,,
,,128880,001,2023-07-24_21h17.21.840,arm3_q,2022.2.5,Win32,120.7729469,6445101fd46dd4427dfec91c,64aeaab685a29f4ca249be02,64bece2a7df58890b933712b,right,-1,0.6929,0.35,37,0.006128461,0.9297,,,,,,222,0,222,0,1,,,,,
,,128880,001,2023-07-24_21h17.21.840,arm3_q,2022.2.5,Win32,120.7729469,6445101fd46dd4427dfec91c,64aeaab685a29f4ca249be02,64bece2a7df58890b933712b,right,-1,0.6929,0.35,37,0.020063963,0.7174,,,,,,223,0,223,0,1,,,,,
,,128880,001,2023-07-24_21h17.21.840,arm3_q,2022.2.5,Win32,120.7729469,6445101fd46dd4427dfec91c,64aeaab685a29f4ca249be02,64bece2a7df58890b933712b,right,-1,0.6929,0.35,37,0.014418165,0.6339,,,,,,224,0,224,0,1,,,,,
,,128880,001,2023-07-24_21h17.21.840,arm3_q,2022.2.5,Win32,120.7729469,6445101fd46dd4427dfec91c,64aeaab685a29f4ca249be02,64bece2a7df58890b933712b,right,-1,0.6929,0.35,37,0.013069584,0.7419,,,,,,225,0,225,0,1,,,,,
,,128880,001,2023-07-24_21h17.21.840,arm3_q,2022.2.5,Win32,120.7729469,6445101fd46dd4427dfec91c,64aeaab685a29f4ca249be02,64bece2a7df58890b933712b,right,-1,0.6929,0.35,37,0.006385613,0.5837,,,,,,226,0,226,0,1,,,,,
,,128880,001,2023-07-24_21h17.21.840,arm3_q,2022.2.5,Win32,120.7729469,6445101fd46dd4427dfec91c,64aeaab685a29f4ca249be02,64bece2a7df58890b933712b,down,1,0.6929,0.35,37,0,0.6172,,,,,,227,0,227,0,1,,,,,
,,128880,001,2023-07-24_21h17.21.840,arm3_q,2022.2.5,Win32,120.7729469,6445101fd46dd4427dfec91c,64aeaab685a29f4ca249be02,64bece2a7df58890b933712b,right,1,0.6929,0.35,37,-0.01238471,0.8574,,,,,,228,0,228,0,1,,,,,
,,128880,001,2023-07-24_21h17.21.840,arm3_q,2022.2.5,Win32,120.7729469,6445101fd46dd4427dfec91c,64aeaab685a29f4ca249be02,64bece2a7df58890b933712b,right,1,0.6929,0.35,37,0.010349532,0.5674,,,,,,229,0,229,0,1,,,,,
,,128880,001,2023-07-24_21h17.21.840,arm3_q,2022.2.5,Win32,120.7729469,6445101fd46dd4427dfec91c,64aeaab685a29f4ca249be02,64bece2a7df58890b933712b,up,1,0.6929,0.35,37,0,0.6697,,,,,,230,0,230,0,1,,,,,
,,128880,001,2023-07-24_21h17.21.840,arm3_q,2022.2.5,Win32,120.7729469,6445101fd46dd4427dfec91c,64aeaab685a29f4ca249be02,64bece2a7df58890b933712b,right,1,0.6929,0.35,37,0.011555336,0.7671,,,,,,231,0,231,0,1,,,,,
,,128880,001,2023-07-24_21h17.21.840,arm3_q,2022.2.5,Win32,120.7729469,6445101fd46dd4427dfec91c,64aeaab685a29f4ca249be02,64bece2a7df58890b933712b,right,1,0.6929,0.35,37,0.016619594,0.434,,,,,,232,0,232,0,1,,,,,
,,128880,001,2023-07-24_21h17.21.840,arm3_q,2022.2.5,Win32,120.7729469,6445101fd46dd4427dfec91c,64aeaab685a29f4ca249be02,64bece2a7df58890b933712b,right,1,0.6929,0.35,37,-0.009919655,0.892,,,,,,233,0,233,0,1,,,,,
,,128880,001,2023-07-24_21h17.21.840,arm3_q,2022.2.5,Win32,120.7729469,6445101fd46dd4427dfec91c,64aeaab685a29f4ca249be02,64bece2a7df58890b933712b,right,1,0.6929,0.35,37,0.004755776,0.6757,,,,,,234,0,234,0,1,,,,,
,,128880,001,2023-07-24_21h17.21.840,arm3_q,2022.2.5,Win32,120.7729469,6445101fd46dd4427dfec91c,64aeaab685a29f4ca249be02,64bece2a7df58890b933712b,up,-1,0.6929,0.35,38,0,0.5421,,,,,,235,0,235,0,1,,,,,
,,128880,001,2023-07-24_21h17.21.840,arm3_q,2022.2.5,Win32,120.7729469,6445101fd46dd4427dfec91c,64aeaab685a29f4ca249be02,64bece2a7df58890b933712b,right,-1,0.6929,0.35,38,-0.015410353,0.9237,,,,,,236,0,236,0,1,,,,,
,,128880,001,2023-07-24_21h17.21.840,arm3_q,2022.2.5,Win32,120.7729469,6445101fd46dd4427dfec91c,64aeaab685a29f4ca249be02,64bece2a7df58890b933712b,down,1,0.6929,0.35,39,0,0.852,,,,,,237,0,237,0,1,,,,,
,,128880,001,2023-07-24_21h17.21.840,arm3_q,2022.2.5,Win32,120.7729469,6445101fd46dd4427dfec91c,64aeaab685a29f4ca249be02,64bece2a7df58890b933712b,right,1,0.6929,0.35,39,0.006957887,0.8433,,,,,,238,0,238,0,1,,,,,
,,128880,001,2023-07-24_21h17.21.840,arm3_q,2022.2.5,Win32,120.7729469,6445101fd46dd4427dfec91c,64aeaab685a29f4ca249be02,64bece2a7df58890b933712b,right,1,0.6929,0.35,39,-0.010061173,0.3751,,,,,,239,0,239,0,1,,,,,
,,128880,001,2023-07-24_21h17.21.840,arm3_q,2022.2.5,Win32,120.7729469,6445101fd46dd4427dfec91c,64aeaab685a29f4ca249be02,64bece2a7df58890b933712b,right,1,0.6929,0.35,39,-0.014621689,0.4582,,,,,,240,0,240,0,1,,,,,
,,128880,001,2023-07-24_21h17.21.840,arm3_q,2022.2.5,Win32,120.7729469,6445101fd46dd4427dfec91c,64aeaab685a29f4ca249be02,64bece2a7df58890b933712b,down,1,0.6929,0.35,38,0,0.5503,,,,,,241,0,241,0,1,,,,,
,,128880,001,2023-07-24_21h17.21.840,arm3_q,2022.2.5,Win32,120.7729469,6445101fd46dd4427dfec91c,64aeaab685a29f4ca249be02,64bece2a7df58890b933712b,right,1,0.6929,0.35,38,0.006299354,0.8827,,,,,,242,0,242,0,1,,,,,
,,128880,001,2023-07-24_21h17.21.840,arm3_q,2022.2.5,Win32,120.7729469,6445101fd46dd4427dfec91c,64aeaab685a29f4ca249be02,64bece2a7df58890b933712b,right,1,0.6929,0.35,38,-0.001758198,1.0667,,,,,,243,0,243,0,1,,,,,
,,128880,001,2023-07-24_21h17.21.840,arm3_q,2022.2.5,Win32,120.7729469,6445101fd46dd4427dfec91c,64aeaab685a29f4ca249be02,64bece2a7df58890b933712b,right,1,0.6929,0.35,38,0.002289542,0.5672,,,,,,244,0,244,0,1,,,,,
,,128880,001,2023-07-24_21h17.21.840,arm3_q,2022.2.5,Win32,120.7729469,6445101fd46dd4427dfec91c,64aeaab685a29f4ca249be02,64bece2a7df58890b933712b,right,1,0.6929,0.35,38,0.014055061,0.6004,,,,,,245,0,245,0,1,,,,,
,,128880,001,2023-07-24_21h17.21.840,arm3_q,2022.2.5,Win32,120.7729469,6445101fd46dd4427dfec91c,64aeaab685a29f4ca249be02,64bece2a7df58890b933712b,right,1,0.6929,0.35,38,0.011404266,0.8595,,,,,,246,0,246,0,1,,,,,
,,128880,001,2023-07-24_21h17.21.840,arm3_q,2022.2.5,Win32,120.7729469,6445101fd46dd4427dfec91c,64aeaab685a29f4ca249be02,64bece2a7df58890b933712b,right,1,0.6929,0.35,38,-0.01975057,0.6254,,,,,,247,0,247,0,1,,,,,
,,128880,001,2023-07-24_21h17.21.840,arm3_q,2022.2.5,Win32,120.7729469,6445101fd46dd4427dfec91c,64aeaab685a29f4ca249be02,64bece2a7df58890b933712b,down,-1,0.6929,0.35,38,0,0.4922,,,,,,248,0,248,0,1,,,,,
,,128880,001,2023-07-24_21h17.21.840,arm3_q,2022.2.5,Win32,120.7729469,6445101fd46dd4427dfec91c,64aeaab685a29f4ca249be02,64bece2a7df58890b933712b,right,-1,0.6929,0.35,38,-0.010223405,0.9587,,,,,,249,0,249,0,1,,,,,
,,128880,001,2023-07-24_21h17.21.840,arm3_q,2022.2.5,Win32,120.7729469,6445101fd46dd4427dfec91c,64aeaab685a29f4ca249be02,64bece2a7df58890b933712b,down,1,0.6929,0.35,39,0,0.6427,,,,,,250,0,250,0,1,,,,,
,,128880,001,2023-07-24_21h17.21.840,arm3_q,2022.2.5,Win32,120.7729469,6445101fd46dd4427dfec91c,64aeaab685a29f4ca249be02,64bece2a7df58890b933712b,right,1,0.6929,0.35,39,-0.001616949,0.9505,,,,,,251,0,251,0,1,,,,,
,,128880,001,2023-07-24_21h17.21.840,arm3_q,2022.2.5,Win32,120.7729469,6445101fd46dd4427dfec91c,64aeaab685a29f4ca249be02,64bece2a7df58890b933712b,right,1,0.6929,0.35,39,0.0012616,0.4837,,,,,,252,0,252,0,1,,,,,
,,128880,001,2023-07-24_21h17.21.840,arm3_q,2022.2.5,Win32,120.7729469,6445101fd46dd4427dfec91c,64aeaab685a29f4ca249be02,64bece2a7df58890b933712b,right,1,0.6929,0.35,39,0.007074256,0.392,,,,,,253,0,253,0,1,,,,,
,,128880,001,2023-07-24_21h17.21.840,arm3_q,2022.2.5,Win32,120.7729469,6445101fd46dd4427dfec91c,64aeaab685a29f4ca249be02,64bece2a7df58890b933712b,right,1,0.6929,0.35,39,-0.007969857,0.8165,,,,,,254,0,254,0,1,,,,,
,,128880,001,2023-07-24_21h17.21.840,arm3_q,2022.2.5,Win32,120.7729469,6445101fd46dd4427dfec91c,64aeaab685a29f4ca249be02,64bece2a7df58890b933712b,right,1,0.6929,0.35,39,0.009630291,0.5424,,,,,,255,0,255,0,1,,,,,
,,128880,001,2023-07-24_21h17.21.840,arm3_q,2022.2.5,Win32,120.7729469,6445101fd46dd4427dfec91c,64aeaab685a29f4ca249be02,64bece2a7df58890b933712b,up,-1,0.6929,0.35,40,0,0.5504,,,,,,256,0,256,0,1,,,,,
,,128880,001,2023-07-24_21h17.21.840,arm3_q,2022.2.5,Win32,120.7729469,6445101fd46dd4427dfec91c,64aeaab685a29f4ca249be02,64bece2a7df58890b933712b,right,-1,0.6929,0.35,40,-0.010616296,0.8924,,,,,,257,0,257,0,1,,,,,
,,128880,001,2023-07-24_21h17.21.840,arm3_q,2022.2.5,Win32,120.7729469,6445101fd46dd4427dfec91c,64aeaab685a29f4ca249be02,64bece2a7df58890b933712b,down,-1,0.6929,0.35,41,0,0.7333,,,,,,258,0,258,0,1,,,,,
,,128880,001,2023-07-24_21h17.21.840,arm3_q,2022.2.5,Win32,120.7729469,6445101fd46dd4427dfec91c,64aeaab685a29f4ca249be02,64bece2a7df58890b933712b,right,-1,0.6929,0.35,41,-0.020460293,0.8541,,,,,,259,0,259,0,1,,,,,
,,128880,001,2023-07-24_21h17.21.840,arm3_q,2022.2.5,Win32,120.7729469,6445101fd46dd4427dfec91c,64aeaab685a29f4ca249be02,64bece2a7df58890b933712b,down,-1,0.6929,0.35,41,0,0.8838,,,,,,260,0,260,0,1,,,,,
,,128880,001,2023-07-24_21h17.21.840,arm3_q,2022.2.5,Win32,120.7729469,6445101fd46dd4427dfec91c,64aeaab685a29f4ca249be02,64bece2a7df58890b933712b,right,-1,0.6929,0.35,41,-0.004383029,0.8331,,,,,,261,0,261,0,1,,,,,
,,128880,001,2023-07-24_21h17.21.840,arm3_q,2022.2.5,Win32,120.7729469,6445101fd46dd4427dfec91c,64aeaab685a29f4ca249be02,64bece2a7df58890b933712b,up,1,0.6929,0.35,40,0,0.8001,,,,,,262,0,262,0,1,,,,,
,,128880,001,2023-07-24_21h17.21.840,arm3_q,2022.2.5,Win32,120.7729469,6445101fd46dd4427dfec91c,64aeaab685a29f4ca249be02,64bece2a7df58890b933712b,right,1,0.6929,0.35,40,0.021289594,0.9579,,,,,,263,0,263,0,1,,,,,
,,128880,001,2023-07-24_21h17.21.840,arm3_q,2022.2.5,Win32,120.7729469,6445101fd46dd4427dfec91c,64aeaab685a29f4ca249be02,64bece2a7df58890b933712b,right,1,0.6929,0.35,40,0.036192612,0.5382,,,,,,264,0,264,0,1,,,,,
,,128880,001,2023-07-24_21h17.21.840,arm3_q,2022.2.5,Win32,120.7729469,6445101fd46dd4427dfec91c,64aeaab685a29f4ca249be02,64bece2a7df58890b933712b,right,1,0.6929,0.35,40,0.034620702,0.8925,,,,,,265,0,265,0,1,,,,,
,,128880,001,2023-07-24_21h17.21.840,arm3_q,2022.2.5,Win32,120.7729469,6445101fd46dd4427dfec91c,64aeaab685a29f4ca249be02,64bece2a7df58890b933712b,up,-1,0.6929,0.35,41,0,0.5586,,,,,,266,0,266,0,1,,,,,
,,128880,001,2023-07-24_21h17.21.840,arm3_q,2022.2.5,Win32,120.7729469,6445101fd46dd4427dfec91c,64aeaab685a29f4ca249be02,64bece2a7df58890b933712b,right,-1,0.6929,0.35,41,-0.00809535,1.9041,,,,,,267,0,267,0,1,,,,,
,,128880,001,2023-07-24_21h17.21.840,arm3_q,2022.2.5,Win32,120.7729469,6445101fd46dd4427dfec91c,64aeaab685a29f4ca249be02,64bece2a7df58890b933712b,right,-1,0.6929,0.35,41,-0.005753653,0.4423,,,,,,268,0,268,0,1,,,,,
,,128880,001,2023-07-24_21h17.21.840,arm3_q,2022.2.5,Win32,120.7729469,6445101fd46dd4427dfec91c,64aeaab685a29f4ca249be02,64bece2a7df58890b933712b,right,-1,0.6929,0.35,41,0.013894536,0.5585,,,,,,269,0,269,0,1,,,,,
,,128880,001,2023-07-24_21h17.21.840,arm3_q,2022.2.5,Win32,120.7729469,6445101fd46dd4427dfec91c,64aeaab685a29f4ca249be02,64bece2a7df58890b933712b,right,-1,0.6929,0.35,41,0.010877465,0.484,,,,,,270,0,270,0,1,,,,,
,,128880,001,2023-07-24_21h17.21.840,arm3_q,2022.2.5,Win32,120.7729469,6445101fd46dd4427dfec91c,64aeaab685a29f4ca249be02,64bece2a7df58890b933712b,right,-1,0.6929,0.35,41,-0.017220069,0.9461,,,,,,271,0,271,0,1,,,,,
,,128880,001,2023-07-24_21h17.21.840,arm3_q,2022.2.5,Win32,120.7729469,6445101fd46dd4427dfec91c,64aeaab685a29f4ca249be02,64bece2a7df58890b933712b,down,-1,0.6929,0.35,41,0,0.5255,,,,,,272,0,272,0,1,,,,,
,,128880,001,2023-07-24_21h17.21.840,arm3_q,2022.2.5,Win32,120.7729469,6445101fd46dd4427dfec91c,64aeaab685a29f4ca249be02,64bece2a7df58890b933712b,right,-1,0.6929,0.35,41,-0.006731412,0.8249,,,,,,273,0,273,0,1,,,,,
,,128880,001,2023-07-24_21h17.21.840,arm3_q,2022.2.5,Win32,120.7729469,6445101fd46dd4427dfec91c,64aeaab685a29f4ca249be02,64bece2a7df58890b933712b,right,-1,0.6929,0.35,41,-0.016522897,0.6849,,,,,,274,0,274,0,1,,,,,
,,128880,001,2023-07-24_21h17.21.840,arm3_q,2022.2.5,Win32,120.7729469,6445101fd46dd4427dfec91c,64aeaab685a29f4ca249be02,64bece2a7df58890b933712b,right,-1,0.6929,0.35,41,-0.01657643,0.5501,,,,,,275,0,275,0,1,,,,,
,,128880,001,2023-07-24_21h17.21.840,arm3_q,2022.2.5,Win32,120.7729469,6445101fd46dd4427dfec91c,64aeaab685a29f4ca249be02,64bece2a7df58890b933712b,right,-1,0.6929,0.35,41,-0.012373836,0.5164,,,,,,276,0,276,0,1,,,,,
,,128880,001,2023-07-24_21h17.21.840,arm3_q,2022.2.5,Win32,120.7729469,6445101fd46dd4427dfec91c,64aeaab685a29f4ca249be02,64bece2a7df58890b933712b,down,1,0.6929,0.35,42,0,0.6712,,,,,,277,0,277,0,1,,,,,
,,128880,001,2023-07-24_21h17.21.840,arm3_q,2022.2.5,Win32,120.7729469,6445101fd46dd4427dfec91c,64aeaab685a29f4ca249be02,64bece2a7df58890b933712b,right,1,0.6929,0.35,42,0.008444199,1.0416,,,,,,278,0,278,0,1,,,,,
,,128880,001,2023-07-24_21h17.21.840,arm3_q,2022.2.5,Win32,120.7729469,6445101fd46dd4427dfec91c,64aeaab685a29f4ca249be02,64bece2a7df58890b933712b,right,1,0.6929,0.35,42,0.025307336,0.7584,,,,,,279,0,279,0,1,,,,,
,,128880,001,2023-07-24_21h17.21.840,arm3_q,2022.2.5,Win32,120.7729469,6445101fd46dd4427dfec91c,64aeaab685a29f4ca249be02,64bece2a7df58890b933712b,right,1,0.6929,0.35,42,0.014938543,0.4621,,,,,,280,0,280,0,1,,,,,
,,128880,001,2023-07-24_21h17.21.840,arm3_q,2022.2.5,Win32,120.7729469,6445101fd46dd4427dfec91c,64aeaab685a29f4ca249be02,64bece2a7df58890b933712b,right,1,0.6929,0.35,42,-0.012016917,0.7004,,,,,,281,0,281,0,1,,,,,
,,128880,001,2023-07-24_21h17.21.840,arm3_q,2022.2.5,Win32,120.7729469,6445101fd46dd4427dfec91c,64aeaab685a29f4ca249be02,64bece2a7df58890b933712b,right,1,0.6929,0.35,42,0.023688195,0.5513,,,,,,282,0,282,0,1,,,,,
,,128880,001,2023-07-24_21h17.21.840,arm3_q,2022.2.5,Win32,120.7729469,6445101fd46dd4427dfec91c,64aeaab685a29f4ca249be02,64bece2a7df58890b933712b,up,-1,0.6929,0.35,43,0,0.5587,,,,,,283,0,283,0,1,,,,,
,,128880,001,2023-07-24_21h17.21.840,arm3_q,2022.2.5,Win32,120.7729469,6445101fd46dd4427dfec91c,64aeaab685a29f4ca249be02,64bece2a7df58890b933712b,right,-1,0.6929,0.35,43,-0.008830592,1.1573,,,,,,284,0,284,0,1,,,,,
,,128880,001,2023-07-24_21h17.21.840,arm3_q,2022.2.5,Win32,120.7729469,6445101fd46dd4427dfec91c,64aeaab685a29f4ca249be02,64bece2a7df58890b933712b,right,-1,0.6929,0.35,43,0.006560201,0.8168,,,,,,285,0,285,0,1,,,,,
,,128880,001,2023-07-24_21h17.21.840,arm3_q,2022.2.5,Win32,120.7729469,6445101fd46dd4427dfec91c,64aeaab685a29f4ca249be02,64bece2a7df58890b933712b,right,-1,0.6929,0.35,43,-0.011099028,0.4911,,,,,,286,0,286,0,1,,,,,
,,128880,001,2023-07-24_21h17.21.840,arm3_q,2022.2.5,Win32,120.7729469,6445101fd46dd4427dfec91c,64aeaab685a29f4ca249be02,64bece2a7df58890b933712b,down,-1,0.6929,0.35,44,0,0.7155,,,,,,287,0,287,0,1,,,,,
,,128880,001,2023-07-24_21h17.21.840,arm3_q,2022.2.5,Win32,120.7729469,6445101fd46dd4427dfec91c,64aeaab685a29f4ca249be02,64bece2a7df58890b933712b,right,-1,0.6929,0.35,44,-0.019641902,0.8473,,,,,,288,0,288,0,1,,,,,
,,128880,001,2023-07-24_21h17.21.840,arm3_q,2022.2.5,Win32,120.7729469,6445101fd46dd4427dfec91c,64aeaab685a29f4ca249be02,64bece2a7df58890b933712b,right,-1,0.6929,0.35,44,-0.018361642,0.4494,,,,,,289,0,289,0,1,,,,,
,,128880,001,2023-07-24_21h17.21.840,arm3_q,2022.2.5,Win32,120.7729469,6445101fd46dd4427dfec91c,64aeaab685a29f4ca249be02,64bece2a7df58890b933712b,right,-1,0.6929,0.35,44,-0.016715731,0.658,,,,,,290,0,290,0,1,,,,,
,,128880,001,2023-07-24_21h17.21.840,arm3_q,2022.2.5,Win32,120.7729469,6445101fd46dd4427dfec91c,64aeaab685a29f4ca249be02,64bece2a7df58890b933712b,right,-1,0.6929,0.35,44,-0.022221603,0.5066,,,,,,291,0,291,0,1,,,,,
,,128880,001,2023-07-24_21h17.21.840,arm3_q,2022.2.5,Win32,120.7729469,6445101fd46dd4427dfec91c,64aeaab685a29f4ca249be02,64bece2a7df58890b933712b,down,-1,0.6929,0.35,45,0,0.6918,,,,,,292,0,292,0,1,,,,,
,,128880,001,2023-07-24_21h17.21.840,arm3_q,2022.2.5,Win32,120.7729469,6445101fd46dd4427dfec91c,64aeaab685a29f4ca249be02,64bece2a7df58890b933712b,right,-1,0.6929,0.35,45,0.001592508,0.8556,,,,,,293,0,293,0,1,,,,,
,,128880,001,2023-07-24_21h17.21.840,arm3_q,2022.2.5,Win32,120.7729469,6445101fd46dd4427dfec91c,64aeaab685a29f4ca249be02,64bece2a7df58890b933712b,right,-1,0.6929,0.35,45,-0.003648543,0.4724,,,,,,294,0,294,0,1,,,,,
,,128880,001,2023-07-24_21h17.21.840,arm3_q,2022.2.5,Win32,120.7729469,6445101fd46dd4427dfec91c,64aeaab685a29f4ca249be02,64bece2a7df58890b933712b,right,-1,0.6929,0.35,45,0.017677237,0.6479,,,,,,295,0,295,0,1,,,,,
,,128880,001,2023-07-24_21h17.21.840,arm3_q,2022.2.5,Win32,120.7729469,6445101fd46dd4427dfec91c,64aeaab685a29f4ca249be02,64bece2a7df58890b933712b,right,-1,0.6929,0.35,45,0.015924922,0.5249,,,,,,296,0,296,0,1,,,,,
,,128880,001,2023-07-24_21h17.21.840,arm3_q,2022.2.5,Win32,120.7729469,6445101fd46dd4427dfec91c,64aeaab685a29f4ca249be02,64bece2a7df58890b933712b,up,1,0.6929,0.35,44,0,0.8389,,,,,,297,0,297,0,1,,,,,
,,128880,001,2023-07-24_21h17.21.840,arm3_q,2022.2.5,Win32,120.7729469,6445101fd46dd4427dfec91c,64aeaab685a29f4ca249be02,64bece2a7df58890b933712b,right,1,0.6929,0.35,44,0.041335128,1.3711,,,,,,298,0,298,0,1,,,,,
,,128880,001,2023-07-24_21h17.21.840,arm3_q,2022.2.5,Win32,120.7729469,6445101fd46dd4427dfec91c,64aeaab685a29f4ca249be02,64bece2a7df58890b933712b,right,1,0.6929,0.35,44,0.038963666,0.4232,,,,,,299,0,299,0,1,,,,,
,,128880,001,2023-07-24_21h17.21.840,arm3_q,2022.2.5,Win32,120.7729469,6445101fd46dd4427dfec91c,64aeaab685a29f4ca249be02,64bece2a7df58890b933712b,right,1,0.6929,0.35,44,0.039108238,0.5406,,,,,,300,0,300,0,1,,,,,
,,128880,001,2023-07-24_21h17.21.840,arm3_q,2022.2.5,Win32,120.7729469,6445101fd46dd4427dfec91c,64aeaab685a29f4ca249be02,64bece2a7df58890b933712b,up,1,0.6929,0.35,44,0,0.5526,,,,,,301,0,301,0,1,,,,,
,,128880,001,2023-07-24_21h17.21.840,arm3_q,2022.2.5,Win32,120.7729469,6445101fd46dd4427dfec91c,64aeaab685a29f4ca249be02,64bece2a7df58890b933712b,right,1,0.6929,0.35,44,0.006188453,1.0107,,,,,,302,0,302,0,1,,,,,
,,128880,001,2023-07-24_21h17.21.840,arm3_q,2022.2.5,Win32,120.7729469,6445101fd46dd4427dfec91c,64aeaab685a29f4ca249be02,64bece2a7df58890b933712b,up,1,0.6929,0.35,45,0,0.7919,,,,,,303,0,303,0,1,,,,,
,,128880,001,2023-07-24_21h17.21.840,arm3_q,2022.2.5,Win32,120.7729469,6445101fd46dd4427dfec91c,64aeaab685a29f4ca249be02,64bece2a7df58890b933712b,right,1,0.6929,0.35,45,0.009325108,1.0497,,,,,,304,0,304,0,1,,,,,
,,128880,001,2023-07-24_21h17.21.840,arm3_q,2022.2.5,Win32,120.7729469,6445101fd46dd4427dfec91c,64aeaab685a29f4ca249be02,64bece2a7df58890b933712b,right,1,0.6929,0.35,45,0.032158823,0.4653,,,,,,305,0,305,0,1,,,,,
,,128880,001,2023-07-24_21h17.21.840,arm3_q,2022.2.5,Win32,120.7729469,6445101fd46dd4427dfec91c,64aeaab685a29f4ca249be02,64bece2a7df58890b933712b,up,1,0.6929,0.35,46,0,0.5577,,,,,,306,0,306,0,1,,,,,
,,128880,001,2023-07-24_21h17.21.840,arm3_q,2022.2.5,Win32,120.7729469,6445101fd46dd4427dfec91c,64aeaab685a29f4ca249be02,64bece2a7df58890b933712b,right,1,0.6929,0.35,46,0.005856485,0.9819,,,,,,307,0,307,0,1,,,,,
,,128880,001,2023-07-24_21h17.21.840,arm3_q,2022.2.5,Win32,120.7729469,6445101fd46dd4427dfec91c,64aeaab685a29f4ca249be02,64bece2a7df58890b933712b,up,-1,0.6929,0.35,46,0,0.6102,,,,,,308,0,308,0,1,,,,,
,,128880,001,2023-07-24_21h17.21.840,arm3_q,2022.2.5,Win32,120.7729469,6445101fd46dd4427dfec91c,64aeaab685a29f4ca249be02,64bece2a7df58890b933712b,right,-1,0.6929,0.35,46,-0.025827272,1.0061,,,,,,309,0,309,0,1,,,,,
,,128880,001,2023-07-24_21h17.21.840,arm3_q,2022.2.5,Win32,120.7729469,6445101fd46dd4427dfec91c,64aeaab685a29f4ca249be02,64bece2a7df58890b933712b,down,-1,0.6929,0.35,47,0,0.7333,,,,,,310,0,310,0,1,,,,,
,,128880,001,2023-07-24_21h17.21.840,arm3_q,2022.2.5,Win32,120.7729469,6445101fd46dd4427dfec91c,64aeaab685a29f4ca249be02,64bece2a7df58890b933712b,right,-1,0.6929,0.35,47,0.015453964,0.8727,,,,,,311,0,311,0,1,,,,,
,,128880,001,2023-07-24_21h17.21.840,arm3_q,2022.2.5,Win32,120.7729469,6445101fd46dd4427dfec91c,64aeaab685a29f4ca249be02,64bece2a7df58890b933712b,right,-1,0.6929,0.35,47,0.012227105,0.4904,,,,,,312,0,312,0,1,,,,,
,,128880,001,2023-07-24_21h17.21.840,arm3_q,2022.2.5,Win32,120.7729469,6445101fd46dd4427dfec91c,64aeaab685a29f4ca249be02,64bece2a7df58890b933712b,right,-1,0.6929,0.35,47,0.021697318,0.724,,,,,,313,0,313,0,1,,,,,
,,128880,001,2023-07-24_21h17.21.840,arm3_q,2022.2.5,Win32,120.7729469,6445101fd46dd4427dfec91c,64aeaab685a29f4ca249be02,64bece2a7df58890b933712b,right,-1,0.6929,0.35,47,-0.002706508,0.6492,,,,,,314,0,314,0,1,,,,,
,,128880,001,2023-07-24_21h17.21.840,arm3_q,2022.2.5,Win32,120.7729469,6445101fd46dd4427dfec91c,64aeaab685a29f4ca249be02,64bece2a7df58890b933712b,down,1,0.6929,0.35,48,0,0.5492,,,,,,315,0,315,0,1,,,,,
,,128880,001,2023-07-24_21h17.21.840,arm3_q,2022.2.5,Win32,120.7729469,6445101fd46dd4427dfec91c,64aeaab685a29f4ca249be02,64bece2a7df58890b933712b,right,1,0.6929,0.35,48,0.007143007,2.1749,,,,,,316,0,316,0,1,,,,,
,,128880,001,2023-07-24_21h17.21.840,arm3_q,2022.2.5,Win32,120.7729469,6445101fd46dd4427dfec91c,64aeaab685a29f4ca249be02,64bece2a7df58890b933712b,right,1,0.6929,0.35,48,0.008431494,1.3822,,,,,,317,0,317,0,1,,,,,
,,128880,001,2023-07-24_21h17.21.840,arm3_q,2022.2.5,Win32,120.7729469,6445101fd46dd4427dfec91c,64aeaab685a29f4ca249be02,64bece2a7df58890b933712b,right,1,0.6929,0.35,48,0.006026983,0.5328,,,,,,318,0,318,0,1,,,,,
,,128880,001,2023-07-24_21h17.21.840,arm3_q,2022.2.5,Win32,120.7729469,6445101fd46dd4427dfec91c,64aeaab685a29f4ca249be02,64bece2a7df58890b933712b,up,-1,0.6929,0.35,48,0,0.5322,,,,,,319,0,319,0,1,,,,,
,,128880,001,2023-07-24_21h17.21.840,arm3_q,2022.2.5,Win32,120.7729469,6445101fd46dd4427dfec91c,64aeaab685a29f4ca249be02,64bece2a7df58890b933712b,right,-1,0.6929,0.35,48,-0.003857128,0.9964,,,,,,320,0,320,0,1,,,,,
,,128880,001,2023-07-24_21h17.21.840,arm3_q,2022.2.5,Win32,120.7729469,6445101fd46dd4427dfec91c,64aeaab685a29f4ca249be02,64bece2a7df58890b933712b,right,-1,0.6929,0.35,48,0.00252769,0.3903,,,,,,321,0,321,0,1,,,,,
,,128880,001,2023-07-24_21h17.21.840,arm3_q,2022.2.5,Win32,120.7729469,6445101fd46dd4427dfec91c,64aeaab685a29f4ca249be02,64bece2a7df58890b933712b,right,-1,0.6929,0.35,48,0.007133789,0.4405,,,,,,322,0,322,0,1,,,,,
,,128880,001,2023-07-24_21h17.21.840,arm3_q,2022.2.5,Win32,120.7729469,6445101fd46dd4427dfec91c,64aeaab685a29f4ca249be02,64bece2a7df58890b933712b,right,-1,0.6929,0.35,48,-0.006552923,0.5741,,,,,,323,0,323,0,1,,,,,
,,128880,001,2023-07-24_21h17.21.840,arm3_q,2022.2.5,Win32,120.7729469,6445101fd46dd4427dfec91c,64aeaab685a29f4ca249be02,64bece2a7df58890b933712b,up,-1,0.6929,0.35,47,0,0.7248,,,,,,324,0,324,0,1,,,,,
,,128880,001,2023-07-24_21h17.21.840,arm3_q,2022.2.5,Win32,120.7729469,6445101fd46dd4427dfec91c,64aeaab685a29f4ca249be02,64bece2a7df58890b933712b,right,-1,0.6929,0.35,47,-0.014328659,0.8896,,,,,,325,0,325,0,1,,,,,
,,128880,001,2023-07-24_21h17.21.840,arm3_q,2022.2.5,Win32,120.7729469,6445101fd46dd4427dfec91c,64aeaab685a29f4ca249be02,64bece2a7df58890b933712b,right,-1,0.6929,0.35,47,-0.018752745,0.4822,,,,,,326,0,326,0,1,,,,,
,,128880,001,2023-07-24_21h17.21.840,arm3_q,2022.2.5,Win32,120.7729469,6445101fd46dd4427dfec91c,64aeaab685a29f4ca249be02,64bece2a7df58890b933712b,right,-1,0.6929,0.35,47,0.007246335,0.524,,,,,,327,0,327,0,1,,,,,
,,128880,001,2023-07-24_21h17.21.840,arm3_q,2022.2.5,Win32,120.7729469,6445101fd46dd4427dfec91c,64aeaab685a29f4ca249be02,64bece2a7df58890b933712b,right,-1,0.6929,0.35,47,-0.03425934,0.4573,,,,,,328,0,328,0,1,,,,,
,,128880,001,2023-07-24_21h17.21.840,arm3_q,2022.2.5,Win32,120.7729469,6445101fd46dd4427dfec91c,64aeaab685a29f4ca249be02,64bece2a7df58890b933712b,right,-1,0.6929,0.35,47,-0.046695236,0.55,,,,,,329,0,329,0,1,,,,,
,,128880,001,2023-07-24_21h17.21.840,arm3_q,2022.2.5,Win32,120.7729469,6445101fd46dd4427dfec91c,64aeaab685a29f4ca249be02,64bece2a7df58890b933712b,right,-1,0.6929,0.35,47,-0.060443244,0.5417,,,,,,330,0,330,0,1,,,,,
,,128880,001,2023-07-24_21h17.21.840,arm3_q,2022.2.5,Win32,120.7729469,6445101fd46dd4427dfec91c,64aeaab685a29f4ca249be02,64bece2a7df58890b933712b,down,-1,0.6929,0.35,48,0,1.1654,,,,,,331,0,331,0,1,,,,,
,,128880,001,2023-07-24_21h17.21.840,arm3_q,2022.2.5,Win32,120.7729469,6445101fd46dd4427dfec91c,64aeaab685a29f4ca249be02,64bece2a7df58890b933712b,right,-1,0.6929,0.35,48,0.029683812,1.1389,,,,,,332,0,332,0,1,,,,,
,,128880,001,2023-07-24_21h17.21.840,arm3_q,2022.2.5,Win32,120.7729469,6445101fd46dd4427dfec91c,64aeaab685a29f4ca249be02,64bece2a7df58890b933712b,right,-1,0.6929,0.35,48,0.024782313,0.4665,,,,,,333,0,333,0,1,,,,,
,,128880,001,2023-07-24_21h17.21.840,arm3_q,2022.2.5,Win32,120.7729469,6445101fd46dd4427dfec91c,64aeaab685a29f4ca249be02,64bece2a7df58890b933712b,right,-1,0.6929,0.35,48,-0.024635824,0.5487,,,,,,334,0,334,0,1,,,,,
,,128880,001,2023-07-24_21h17.21.840,arm3_q,2022.2.5,Win32,120.7729469,6445101fd46dd4427dfec91c,64aeaab685a29f4ca249be02,64bece2a7df58890b933712b,right,-1,0.6929,0.35,48,-0.022586646,0.5157,,,,,,335,0,335,0,1,,,,,
,,128880,001,2023-07-24_21h17.21.840,arm3_q,2022.2.5,Win32,120.7729469,6445101fd46dd4427dfec91c,64aeaab685a29f4ca249be02,64bece2a7df58890b933712b,down,-1,0.6929,0.35,49,0,0.6324,,,,,,336,0,336,0,1,,,,,
,,128880,001,2023-07-24_21h17.21.840,arm3_q,2022.2.5,Win32,120.7729469,6445101fd46dd4427dfec91c,64aeaab685a29f4ca249be02,64bece2a7df58890b933712b,right,-1,0.6929,0.35,49,-0.013804183,0.8662,,,,,,337,0,337,0,1,,,,,
,,128880,001,2023-07-24_21h17.21.840,arm3_q,2022.2.5,Win32,120.7729469,6445101fd46dd4427dfec91c,64aeaab685a29f4ca249be02,64bece2a7df58890b933712b,right,-1,0.6929,0.35,49,-0.027362706,0.35,,,,,,338,0,338,0,1,,,,,
,,128880,001,2023-07-24_21h17.21.840,arm3_q,2022.2.5,Win32,120.7729469,6445101fd46dd4427dfec91c,64aeaab685a29f4ca249be02,64bece2a7df58890b933712b,down,1,0.6929,0.35,49,0,0.4572,,,,,,339,0,339,0,1,,,,,
,,128880,001,2023-07-24_21h17.21.840,arm3_q,2022.2.5,Win32,120.7729469,6445101fd46dd4427dfec91c,64aeaab685a29f4ca249be02,64bece2a7df58890b933712b,right,1,0.6929,0.35,49,-0.007432838,0.7475,,,,,,340,0,340,0,1,,,,,
,,128880,001,2023-07-24_21h17.21.840,arm3_q,2022.2.5,Win32,120.7729469,6445101fd46dd4427dfec91c,64aeaab685a29f4ca249be02,64bece2a7df58890b933712b,right,1,0.6929,0.35,49,-0.007788034,0.374,,,,,,341,0,341,0,1,,,,,
,,128880,001,2023-07-24_21h17.21.840,arm3_q,2022.2.5,Win32,120.7729469,6445101fd46dd4427dfec91c,64aeaab685a29f4ca249be02,64bece2a7df58890b933712b,right,1,0.6929,0.35,49,0.002151348,0.3988,,,,,,342,0,342,0,1,,,,,
,,128880,001,2023-07-24_21h17.21.840,arm3_q,2022.2.5,Win32,120.7729469,6445101fd46dd4427dfec91c,64aeaab685a29f4ca249be02,64bece2a7df58890b933712b,right,1,0.6929,0.35,49,0.005158114,0.4067,,,,,,343,0,343,0,1,,,,,
,,128880,001,2023-07-24_21h17.21.840,arm3_q,2022.2.5,Win32,120.7729469,6445101fd46dd4427dfec91c,64aeaab685a29f4ca249be02,64bece2a7df58890b933712b,right,1,0.6929,0.35,49,0.019188324,0.6073,,,,,,344,0,344,0,1,,,,,
,,128880,001,2023-07-24_21h17.21.840,arm3_q,2022.2.5,Win32,120.7729469,6445101fd46dd4427dfec91c,64aeaab685a29f4ca249be02,64bece2a7df58890b933712b,up,1,0.6929,0.35,50,0,0.4821,,,,,,345,0,345,0,1,,,,,
,,128880,001,2023-07-24_21h17.21.840,arm3_q,2022.2.5,Win32,120.7729469,6445101fd46dd4427dfec91c,64aeaab685a29f4ca249be02,64bece2a7df58890b933712b,right,1,0.6929,0.35,50,0.036252836,0.8482,,,,,,346,0,346,0,1,,,,,
,,128880,001,2023-07-24_21h17.21.840,arm3_q,2022.2.5,Win32,120.7729469,6445101fd46dd4427dfec91c,64aeaab685a29f4ca249be02,64bece2a7df58890b933712b,right,1,0.6929,0.35,50,0.029019923,0.5905,,,,,,347,0,347,0,1,,,,,
,,128880,001,2023-07-24_21h17.21.840,arm3_q,2022.2.5,Win32,120.7729469,6445101fd46dd4427dfec91c,64aeaab685a29f4ca249be02,64bece2a7df58890b933712b,up,1,0.6929,0.35,50,0,0.5327,,,,,,348,0,348,0,1,,,,,
,,128880,001,2023-07-24_21h17.21.840,arm3_q,2022.2.5,Win32,120.7729469,6445101fd46dd4427dfec91c,64aeaab685a29f4ca249be02,64bece2a7df58890b933712b,right,1,0.6929,0.35,50,0.008991595,0.9303,,,,,,349,0,349,0,1,,,,,
,,128880,001,2023-07-24_21h17.21.840,arm3_q,2022.2.5,Win32,120.7729469,6445101fd46dd4427dfec91c,64aeaab685a29f4ca249be02,64bece2a7df58890b933712b,right,1,0.6929,0.35,50,0.016918207,0.3739,,,,,,350,0,350,0,1,,,,,
,,128880,001,2023-07-24_21h17.21.840,arm3_q,2022.2.5,Win32,120.7729469,6445101fd46dd4427dfec91c,64aeaab685a29f4ca249be02,64bece2a7df58890b933712b,up,-1,0.6929,0.35,51,0,0.6496,,,,,,351,0,351,0,1,,,,,
,,128880,001,2023-07-24_21h17.21.840,arm3_q,2022.2.5,Win32,120.7729469,6445101fd46dd4427dfec91c,64aeaab685a29f4ca249be02,64bece2a7df58890b933712b,right,-1,0.6929,0.35,51,-0.019249548,0.898,,,,,,352,0,352,0,1,,,,,
,,128880,001,2023-07-24_21h17.21.840,arm3_q,2022.2.5,Win32,120.7729469,6445101fd46dd4427dfec91c,64aeaab685a29f4ca249be02,64bece2a7df58890b933712b,down,-1,0.6929,0.35,51,0,0.5652,,,,,,353,0,353,0,1,,,,,
,,128880,001,2023-07-24_21h17.21.840,arm3_q,2022.2.5,Win32,120.7729469,6445101fd46dd4427dfec91c,64aeaab685a29f4ca249be02,64bece2a7df58890b933712b,right,-1,0.6929,0.35,51,0.007191954,0.9478,,,,,,354,0,354,0,1,,,,,
,,128880,001,2023-07-24_21h17.21.840,arm3_q,2022.2.5,Win32,120.7729469,6445101fd46dd4427dfec91c,64aeaab685a29f4ca249be02,64bece2a7df58890b933712b,up,1,0.6929,0.35,50,0,0.6411,,,,,,355,0,355,0,1,,,,,
,,128880,001,2023-07-24_21h17.21.840,arm3_q,2022.2.5,Win32,120.7729469,6445101fd46dd4427dfec91c,64aeaab685a29f4ca249be02,64bece2a7df58890b933712b,right,1,0.6929,0.35,50,0.007271933,0.9302,,,,,,356,0,356,0,1,,,,,
,,128880,001,2023-07-24_21h17.21.840,arm3_q,2022.2.5,Win32,120.7729469,6445101fd46dd4427dfec91c,64aeaab685a29f4ca249be02,64bece2a7df58890b933712b,right,1,0.6929,0.35,50,0.008547178,0.3737,,,,,,357,0,357,0,1,,,,,
,,128880,001,2023-07-24_21h17.21.840,arm3_q,2022.2.5,Win32,120.7729469,6445101fd46dd4427dfec91c,64aeaab685a29f4ca249be02,64bece2a7df58890b933712b,right,1,0.6929,0.35,50,0.007921082,0.4326,,,,,,358,0,358,0,1,,,,,
,,128880,001,2023-07-24_21h17.21.840,arm3_q,2022.2.5,Win32,120.7729469,6445101fd46dd4427dfec91c,64aeaab685a29f4ca249be02,64bece2a7df58890b933712b,right,1,0.6929,0.35,50,0.03034891,0.5995,,,,,,359,0,359,0,1,,,,,
,,128880,001,2023-07-24_21h17.21.840,arm3_q,2022.2.5,Win32,120.7729469,6445101fd46dd4427dfec91c,64aeaab685a29f4ca249be02,64bece2a7df58890b933712b,up,1,0.6929,0.35,51,0,0.7321,,,,,,360,0,360,0,1,,,,,
,,128880,001,2023-07-24_21h17.21.840,arm3_q,2022.2.5,Win32,120.7729469,6445101fd46dd4427dfec91c,64aeaab685a29f4ca249be02,64bece2a7df58890b933712b,right,1,0.6929,0.35,51,0.027080757,1.1737,,,,,,361,0,361,0,1,,,,,
,,128880,001,2023-07-24_21h17.21.840,arm3_q,2022.2.5,Win32,120.7729469,6445101fd46dd4427dfec91c,64aeaab685a29f4ca249be02,64bece2a7df58890b933712b,right,1,0.6929,0.35,51,0.022221804,0.5913,,,,,,362,0,362,0,1,,,,,
,,128880,001,2023-07-24_21h17.21.840,arm3_q,2022.2.5,Win32,120.7729469,6445101fd46dd4427dfec91c,64aeaab685a29f4ca249be02,64bece2a7df58890b933712b,up,1,0.6929,0.35,51,0,0.6657,,,,,,363,0,363,0,1,,,,,
,,128880,001,2023-07-24_21h17.21.840,arm3_q,2022.2.5,Win32,120.7729469,6445101fd46dd4427dfec91c,64aeaab685a29f4ca249be02,64bece2a7df58890b933712b,right,1,0.6929,0.35,51,-0.008377467,0.8892,,,,,,364,0,364,0,1,,,,,
,,128880,001,2023-07-24_21h17.21.840,arm3_q,2022.2.5,Win32,120.7729469,6445101fd46dd4427dfec91c,64aeaab685a29f4ca249be02,64bece2a7df58890b933712b,right,1,0.6929,0.35,51,-0.023397166,0.6565,,,,,,365,0,365,0,1,,,,,
,,128880,001,2023-07-24_21h17.21.840,arm3_q,2022.2.5,Win32,120.7729469,6445101fd46dd4427dfec91c,64aeaab685a29f4ca249be02,64bece2a7df58890b933712b,down,-1,0.6929,0.35,50,0,0.4573,,,,,,366,0,366,0,1,,,,,
,,128880,001,2023-07-24_21h17.21.840,arm3_q,2022.2.5,Win32,120.7729469,6445101fd46dd4427dfec91c,64aeaab685a29f4ca249be02,64bece2a7df58890b933712b,right,-1,0.6929,0.35,50,-0.011569106,1.5061,,,,,,367,0,367,0,1,,,,,
,,128880,001,2023-07-24_21h17.21.840,arm3_q,2022.2.5,Win32,120.7729469,6445101fd46dd4427dfec91c,64aeaab685a29f4ca249be02,64bece2a7df58890b933712b,right,-1,0.6929,0.35,50,0.010995754,0.4321,,,,,,368,0,368,0,1,,,,,
,,128880,001,2023-07-24_21h17.21.840,arm3_q,2022.2.5,Win32,120.7729469,6445101fd46dd4427dfec91c,64aeaab685a29f4ca249be02,64bece2a7df58890b933712b,right,-1,0.6929,0.35,50,0.019760428,0.3486,,,,,,369,0,369,0,1,,,,,
,,128880,001,2023-07-24_21h17.21.840,arm3_q,2022.2.5,Win32,120.7729469,6445101fd46dd4427dfec91c,64aeaab685a29f4ca249be02,64bece2a7df58890b933712b,,,,,,,,,,,,,,,,,,0,0,0,0,1
space,3.2139,128880,001,2023-07-24_21h17.21.840,arm3_q,2022.2.5,Win32,120.7729469,6445101fd46dd4427dfec91c,64aeaab685a29f4ca249be02,64bece2a7df58890b933712b,right,-1,0.5643,0.35,50,0.003160291,4.8956,,,,,,0,0,0,0,1,,,,,
,,128880,001,2023-07-24_21h17.21.840,arm3_q,2022.2.5,Win32,120.7729469,6445101fd46dd4427dfec91c,64aeaab685a29f4ca249be02,64bece2a7df58890b933712b,right,-1,0.5643,0.35,50,-0.015478667,0.4443,,,,,,1,0,1,0,1,,,,,
,,128880,001,2023-07-24_21h17.21.840,arm3_q,2022.2.5,Win32,120.7729469,6445101fd46dd4427dfec91c,64aeaab685a29f4ca249be02,64bece2a7df58890b933712b,right,-1,0.5643,0.35,50,-0.036793378,0.5003,,,,,,2,0,2,0,1,,,,,
,,128880,001,2023-07-24_21h17.21.840,arm3_q,2022.2.5,Win32,120.7729469,6445101fd46dd4427dfec91c,64aeaab685a29f4ca249be02,64bece2a7df58890b933712b,down,1,0.5643,0.35,50,0,0.9167,,,,,,3,0,3,0,1,,,,,
,,128880,001,2023-07-24_21h17.21.840,arm3_q,2022.2.5,Win32,120.7729469,6445101fd46dd4427dfec91c,64aeaab685a29f4ca249be02,64bece2a7df58890b933712b,right,1,0.5643,0.35,50,0.006245143,0.8254,,,,,,4,0,4,0,1,,,,,
,,128880,001,2023-07-24_21h17.21.840,arm3_q,2022.2.5,Win32,120.7729469,6445101fd46dd4427dfec91c,64aeaab685a29f4ca249be02,64bece2a7df58890b933712b,up,-1,0.5643,0.35,51,0,0.7597,,,,,,5,0,5,0,1,,,,,
,,128880,001,2023-07-24_21h17.21.840,arm3_q,2022.2.5,Win32,120.7729469,6445101fd46dd4427dfec91c,64aeaab685a29f4ca249be02,64bece2a7df58890b933712b,right,-1,0.5643,0.35,51,-0.011224844,0.7917,,,,,,6,0,6,0,1,,,,,
,,128880,001,2023-07-24_21h17.21.840,arm3_q,2022.2.5,Win32,120.7729469,6445101fd46dd4427dfec91c,64aeaab685a29f4ca249be02,64bece2a7df58890b933712b,right,-1,0.5643,0.35,51,-0.00179387,0.4339,,,,,,7,0,7,0,1,,,,,
,,128880,001,2023-07-24_21h17.21.840,arm3_q,2022.2.5,Win32,120.7729469,6445101fd46dd4427dfec91c,64aeaab685a29f4ca249be02,64bece2a7df58890b933712b,right,-1,0.5643,0.35,51,0.019542396,0.6693,,,,,,8,0,8,0,1,,,,,
,,128880,001,2023-07-24_21h17.21.840,arm3_q,2022.2.5,Win32,120.7729469,6445101fd46dd4427dfec91c,64aeaab685a29f4ca249be02,64bece2a7df58890b933712b,right,-1,0.5643,0.35,51,0.018788993,0.7664,,,,,,9,0,9,0,1,,,,,
,,128880,001,2023-07-24_21h17.21.840,arm3_q,2022.2.5,Win32,120.7729469,6445101fd46dd4427dfec91c,64aeaab685a29f4ca249be02,64bece2a7df58890b933712b,right,-1,0.5643,0.35,51,-0.006244549,0.7965,,,,,,10,0,10,0,1,,,,,
,,128880,001,2023-07-24_21h17.21.840,arm3_q,2022.2.5,Win32,120.7729469,6445101fd46dd4427dfec91c,64aeaab685a29f4ca249be02,64bece2a7df58890b933712b,down,-1,0.5643,0.35,52,0,0.4254,,,,,,11,0,11,0,1,,,,,
,,128880,001,2023-07-24_21h17.21.840,arm3_q,2022.2.5,Win32,120.7729469,6445101fd46dd4427dfec91c,64aeaab685a29f4ca249be02,64bece2a7df58890b933712b,right,-1,0.5643,0.35,52,-0.010128659,0.9763,,,,,,12,0,12,0,1,,,,,
,,128880,001,2023-07-24_21h17.21.840,arm3_q,2022.2.5,Win32,120.7729469,6445101fd46dd4427dfec91c,64aeaab685a29f4ca249be02,64bece2a7df58890b933712b,right,-1,0.5643,0.35,52,-0.006358459,0.4882,,,,,,13,0,13,0,1,,,,,
,,128880,001,2023-07-24_21h17.21.840,arm3_q,2022.2.5,Win32,120.7729469,6445101fd46dd4427dfec91c,64aeaab685a29f4ca249be02,64bece2a7df58890b933712b,down,-1,0.5643,0.35,53,0,0.8087,,,,,,14,0,14,0,1,,,,,
,,128880,001,2023-07-24_21h17.21.840,arm3_q,2022.2.5,Win32,120.7729469,6445101fd46dd4427dfec91c,64aeaab685a29f4ca249be02,64bece2a7df58890b933712b,right,-1,0.5643,0.35,53,0.008122425,0.8336,,,,,,15,0,15,0,1,,,,,
,,128880,001,2023-07-24_21h17.21.840,arm3_q,2022.2.5,Win32,120.7729469,6445101fd46dd4427dfec91c,64aeaab685a29f4ca249be02,64bece2a7df58890b933712b,right,-1,0.5643,0.35,53,0.023832974,0.6087,,,,,,16,0,16,0,1,,,,,
,,128880,001,2023-07-24_21h17.21.840,arm3_q,2022.2.5,Win32,120.7729469,6445101fd46dd4427dfec91c,64aeaab685a29f4ca249be02,64bece2a7df58890b933712b,right,-1,0.5643,0.35,53,0.001153405,0.5504,,,,,,17,0,17,0,1,,,,,
,,128880,001,2023-07-24_21h17.21.840,arm3_q,2022.2.5,Win32,120.7729469,6445101fd46dd4427dfec91c,64aeaab685a29f4ca249be02,64bece2a7df58890b933712b,down,1,0.5643,0.35,53,0,0.6464,,,,,,18,0,18,0,1,,,,,
,,128880,001,2023-07-24_21h17.21.840,arm3_q,2022.2.5,Win32,120.7729469,6445101fd46dd4427dfec91c,64aeaab685a29f4ca249be02,64bece2a7df58890b933712b,right,1,0.5643,0.35,53,0.021276662,0.8419,,,,,,19,0,19,0,1,,,,,
,,128880,001,2023-07-24_21h17.21.840,arm3_q,2022.2.5,Win32,120.7729469,6445101fd46dd4427dfec91c,64aeaab685a29f4ca249be02,64bece2a7df58890b933712b,right,1,0.5643,0.35,53,-0.010310487,0.5004,,,,,,20,0,20,0,1,,,,,
,,128880,001,2023-07-24_21h17.21.840,arm3_q,2022.2.5,Win32,120.7729469,6445101fd46dd4427dfec91c,64aeaab685a29f4ca249be02,64bece2a7df58890b933712b,down,1,0.5643,0.35,53,0,0.45,,,,,,21,0,21,0,1,,,,,
,,128880,001,2023-07-24_21h17.21.840,arm3_q,2022.2.5,Win32,120.7729469,6445101fd46dd4427dfec91c,64aeaab685a29f4ca249be02,64bece2a7df58890b933712b,right,1,0.5643,0.35,53,-0.004677825,0.6356,,,,,,22,0,22,0,1,,,,,
,,128880,001,2023-07-24_21h17.21.840,arm3_q,2022.2.5,Win32,120.7729469,6445101fd46dd4427dfec91c,64aeaab685a29f4ca249be02,64bece2a7df58890b933712b,right,1,0.5643,0.35,53,0.001188269,0.3713,,,,,,23,0,23,0,1,,,,,
,,128880,001,2023-07-24_21h17.21.840,arm3_q,2022.2.5,Win32,120.7729469,6445101fd46dd4427dfec91c,64aeaab685a29f4ca249be02,64bece2a7df58890b933712b,up,-1,0.5643,0.35,54,0,0.6381,,,,,,24,0,24,0,1,,,,,
,,128880,001,2023-07-24_21h17.21.840,arm3_q,2022.2.5,Win32,120.7729469,6445101fd46dd4427dfec91c,64aeaab685a29f4ca249be02,64bece2a7df58890b933712b,right,-1,0.5643,0.35,54,-0.009143529,0.7336,,,,,,25,0,25,0,1,,,,,
,,128880,001,2023-07-24_21h17.21.840,arm3_q,2022.2.5,Win32,120.7729469,6445101fd46dd4427dfec91c,64aeaab685a29f4ca249be02,64bece2a7df58890b933712b,right,-1,0.5643,0.35,54,0.000758623,0.5686,,,,,,26,0,26,0,1,,,,,
,,128880,001,2023-07-24_21h17.21.840,arm3_q,2022.2.5,Win32,120.7729469,6445101fd46dd4427dfec91c,64aeaab685a29f4ca249be02,64bece2a7df58890b933712b,right,-1,0.5643,0.35,54,-0.0092081,0.4497,,,,,,27,0,27,0,1,,,,,
,,128880,001,2023-07-24_21h17.21.840,arm3_q,2022.2.5,Win32,120.7729469,6445101fd46dd4427dfec91c,64aeaab685a29f4ca249be02,64bece2a7df58890b933712b,right,-1,0.5643,0.35,54,-0.009025655,0.4172,,,,,,28,0,28,0,1,,,,,
,,128880,001,2023-07-24_21h17.21.840,arm3_q,2022.2.5,Win32,120.7729469,6445101fd46dd4427dfec91c,64aeaab685a29f4ca249be02,64bece2a7df58890b933712b,right,-1,0.5643,0.35,54,0.010905321,0.6667,,,,,,29,0,29,0,1,,,,,
,,128880,001,2023-07-24_21h17.21.840,arm3_q,2022.2.5,Win32,120.7729469,6445101fd46dd4427dfec91c,64aeaab685a29f4ca249be02,64bece2a7df58890b933712b,up,-1,0.5643,0.35,53,0,0.7169,,,,,,30,0,30,0,1,,,,,
,,128880,001,2023-07-24_21h17.21.840,arm3_q,2022.2.5,Win32,120.7729469,6445101fd46dd4427dfec91c,64aeaab685a29f4ca249be02,64bece2a7df58890b933712b,right,-1,0.5643,0.35,53,0.005720897,0.9289,,,,,,31,0,31,0,1,,,,,
,,128880,001,2023-07-24_21h17.21.840,arm3_q,2022.2.5,Win32,120.7729469,6445101fd46dd4427dfec91c,64aeaab685a29f4ca249be02,64bece2a7df58890b933712b,right,-1,0.5643,0.35,53,-0.02326052,0.6163,,,,,,32,0,32,0,1,,,,,
,,128880,001,2023-07-24_21h17.21.840,arm3_q,2022.2.5,Win32,120.7729469,6445101fd46dd4427dfec91c,64aeaab685a29f4ca249be02,64bece2a7df58890b933712b,down,-1,0.5643,0.35,54,0,0.509,,,,,,33,0,33,0,1,,,,,
,,128880,001,2023-07-24_21h17.21.840,arm3_q,2022.2.5,Win32,120.7729469,6445101fd46dd4427dfec91c,64aeaab685a29f4ca249be02,64bece2a7df58890b933712b,right,-1,0.5643,0.35,54,-0.024211652,0.8496,,,,,,34,0,34,0,1,,,,,
,,128880,001,2023-07-24_21h17.21.840,arm3_q,2022.2.5,Win32,120.7729469,6445101fd46dd4427dfec91c,64aeaab685a29f4ca249be02,64bece2a7df58890b933712b,down,1,0.5643,0.35,54,0,0.5919,,,,,,35,0,35,0,1,,,,,
,,128880,001,2023-07-24_21h17.21.840,arm3_q,2022.2.5,Win32,120.7729469,6445101fd46dd4427dfec91c,64aeaab685a29f4ca249be02,64bece2a7df58890b933712b,right,1,0.5643,0.35,54,0.023846995,1.0762,,,,,,36,0,36,0,1,,,,,
,,128880,001,2023-07-24_21h17.21.840,arm3_q,2022.2.5,Win32,120.7729469,6445101fd46dd4427dfec91c,64aeaab685a29f4ca249be02,64bece2a7df58890b933712b,right,1,0.5643,0.35,54,0.034798818,0.4169,,,,,,37,0,37,0,1,,,,,
,,128880,001,2023-07-24_21h17.21.840,arm3_q,2022.2.5,Win32,120.7729469,6445101fd46dd4427dfec91c,64aeaab685a29f4ca249be02,64bece2a7df58890b933712b,up,-1,0.5643,0.35,54,0,0.4502,,,,,,38,0,38,0,1,,,,,
,,128880,001,2023-07-24_21h17.21.840,arm3_q,2022.2.5,Win32,120.7729469,6445101fd46dd4427dfec91c,64aeaab685a29f4ca249be02,64bece2a7df58890b933712b,right,-1,0.5643,0.35,54,0.007647857,0.7196,,,,,,39,0,39,0,1,,,,,
,,128880,001,2023-07-24_21h17.21.840,arm3_q,2022.2.5,Win32,120.7729469,6445101fd46dd4427dfec91c,64aeaab685a29f4ca249be02,64bece2a7df58890b933712b,right,-1,0.5643,0.35,54,-0.007770946,0.6999,,,,,,40,0,40,0,1,,,,,
,,128880,001,2023-07-24_21h17.21.840,arm3_q,2022.2.5,Win32,120.7729469,6445101fd46dd4427dfec91c,64aeaab685a29f4ca249be02,64bece2a7df58890b933712b,right,-1,0.5643,0.35,54,0.002659409,0.4557,,,,,,41,0,41,0,1,,,,,
,,128880,001,2023-07-24_21h17.21.840,arm3_q,2022.2.5,Win32,120.7729469,6445101fd46dd4427dfec91c,64aeaab685a29f4ca249be02,64bece2a7df58890b933712b,right,-1,0.5643,0.35,54,-0.012655367,0.4251,,,,,,42,0,42,0,1,,,,,
,,128880,001,2023-07-24_21h17.21.840,arm3_q,2022.2.5,Win32,120.7729469,6445101fd46dd4427dfec91c,64aeaab685a29f4ca249be02,64bece2a7df58890b933712b,down,1,0.5643,0.35,55,0,0.6753,,,,,,43,0,43,0,1,,,,,
,,128880,001,2023-07-24_21h17.21.840,arm3_q,2022.2.5,Win32,120.7729469,6445101fd46dd4427dfec91c,64aeaab685a29f4ca249be02,64bece2a7df58890b933712b,right,1,0.5643,0.35,55,-0.033994141,0.8869,,,,,,44,0,44,0,1,,,,,
