space_bar.keys,space_bar.rt,participant,session,date,expName,psychopyVersion,OS,frameRate,PROLIFIC_PID,STUDY_ID,SESSION_ID,resp.keys,state,q_prob,eps_prob,score,price,resp.rt,train.thisRepN,train.thisTrialN,train.thisN,train.thisIndex,train.ran,steps.thisRepN,steps.thisTrialN,steps.thisN,steps.thisIndex,steps.ran,blocks.thisRepN,blocks.thisTrialN,blocks.thisN,blocks.thisIndex,blocks.ran
space,153.0514,151116,001,2023-07-24_21h00.29.513,arm3_q,2022.2.5,Win32,60.06366749,611abe6af992f6d35f60c003,64aeaab685a29f4ca249be02,64beca28cfd90f6980a326d4,,,,,,,,,,,,,,,,,,,,,,
space,14.6878,151116,001,2023-07-24_21h00.29.513,arm3_q,2022.2.5,Win32,60.06366749,611abe6af992f6d35f60c003,64aeaab685a29f4ca249be02,64beca28cfd90f6980a326d4,,,,,,,,,,,,,,,,,,,,,,
space,13.2046,151116,001,2023-07-24_21h00.29.513,arm3_q,2022.2.5,Win32,60.06366749,611abe6af992f6d35f60c003,64aeaab685a29f4ca249be02,64beca28cfd90f6980a326d4,,,,,,,,,,,,,,,,,,,,,,
space,11.6593,151116,001,2023-07-24_21h00.29.513,arm3_q,2022.2.5,Win32,60.06366749,611abe6af992f6d35f60c003,64aeaab685a29f4ca249be02,64beca28cfd90f6980a326d4,,,,,,,,,,,,,,,,,,,,,,
space,20.5488,151116,001,2023-07-24_21h00.29.513,arm3_q,2022.2.5,Win32,60.06366749,611abe6af992f6d35f60c003,64aeaab685a29f4ca249be02,64beca28cfd90f6980a326d4,,,,,,,,,,,,,,,,,,,,,,
space,62.0593,151116,001,2023-07-24_21h00.29.513,arm3_q,2022.2.5,Win32,60.06366749,611abe6af992f6d35f60c003,64aeaab685a29f4ca249be02,64beca28cfd90f6980a326d4,,,,,,,,,,,,,,,,,,,,,,
space,13.844,151116,001,2023-07-24_21h00.29.513,arm3_q,2022.2.5,Win32,60.06366749,611abe6af992f6d35f60c003,64aeaab685a29f4ca249be02,64beca28cfd90f6980a326d4,,,,,,,,,,,,,,,,,,,,,,
space,15.4197,151116,001,2023-07-24_21h00.29.513,arm3_q,2022.2.5,Win32,60.06366749,611abe6af992f6d35f60c003,64aeaab685a29f4ca249be02,64beca28cfd90f6980a326d4,,,,,,,,,,,,,,,,,,,,,,
space,8.9591,151116,001,2023-07-24_21h00.29.513,arm3_q,2022.2.5,Win32,60.06366749,611abe6af992f6d35f60c003,64aeaab685a29f4ca249be02,64beca28cfd90f6980a326d4,,,,,,,,,,,,,,,,,,,,,,
space,5.5191,151116,001,2023-07-24_21h00.29.513,arm3_q,2022.2.5,Win32,60.06366749,611abe6af992f6d35f60c003,64aeaab685a29f4ca249be02,64beca28cfd90f6980a326d4,,,,,,,,,,,,,,,,,,,,,,
,,151116,001,2023-07-24_21h00.29.513,arm3_q,2022.2.5,Win32,60.06366749,611abe6af992f6d35f60c003,64aeaab685a29f4ca249be02,64beca28cfd90f6980a326d4,right,-1,0.5643,0.35,0,0.01563345,4.8974,0,0,0,0,1,,,,,,,,,,
,,151116,001,2023-07-24_21h00.29.513,arm3_q,2022.2.5,Win32,60.06366749,611abe6af992f6d35f60c003,64aeaab685a29f4ca249be02,64beca28cfd90f6980a326d4,right,-1,0.5643,0.35,0,-0.012106839,1.7608,1,0,1,0,1,,,,,,,,,,
,,151116,001,2023-07-24_21h00.29.513,arm3_q,2022.2.5,Win32,60.06366749,611abe6af992f6d35f60c003,64aeaab685a29f4ca249be02,64beca28cfd90f6980a326d4,right,-1,0.5643,0.35,0,-0.027409977,0.6162,2,0,2,0,1,,,,,,,,,,
,,151116,001,2023-07-24_21h00.29.513,arm3_q,2022.2.5,Win32,60.06366749,611abe6af992f6d35f60c003,64aeaab685a29f4ca249be02,64beca28cfd90f6980a326d4,right,-1,0.5643,0.35,0,-0.041384977,0.9323,3,0,3,0,1,,,,,,,,,,
,,151116,001,2023-07-24_21h00.29.513,arm3_q,2022.2.5,Win32,60.06366749,611abe6af992f6d35f60c003,64aeaab685a29f4ca249be02,64beca28cfd90f6980a326d4,right,-1,0.5643,0.35,0,-0.051951247,0.4132,4,0,4,0,1,,,,,,,,,,
,,151116,001,2023-07-24_21h00.29.513,arm3_q,2022.2.5,Win32,60.06366749,611abe6af992f6d35f60c003,64aeaab685a29f4ca249be02,64beca28cfd90f6980a326d4,right,-1,0.5643,0.35,0,-0.045352949,1.5554,5,0,5,0,1,,,,,,,,,,
,,151116,001,2023-07-24_21h00.29.513,arm3_q,2022.2.5,Win32,60.06366749,611abe6af992f6d35f60c003,64aeaab685a29f4ca249be02,64beca28cfd90f6980a326d4,right,-1,0.5643,0.35,0,-0.056568366,0.4438,6,0,6,0,1,,,,,,,,,,
,,151116,001,2023-07-24_21h00.29.513,arm3_q,2022.2.5,Win32,60.06366749,611abe6af992f6d35f60c003,64aeaab685a29f4ca249be02,64beca28cfd90f6980a326d4,right,-1,0.5643,0.35,0,-0.048596583,0.3257,7,0,7,0,1,,,,,,,,,,
,,151116,001,2023-07-24_21h00.29.513,arm3_q,2022.2.5,Win32,60.06366749,611abe6af992f6d35f60c003,64aeaab685a29f4ca249be02,64beca28cfd90f6980a326d4,down,1,0.5643,0.35,0,0,0.88,8,0,8,0,1,,,,,,,,,,
,,151116,001,2023-07-24_21h00.29.513,arm3_q,2022.2.5,Win32,60.06366749,611abe6af992f6d35f60c003,64aeaab685a29f4ca249be02,64beca28cfd90f6980a326d4,right,1,0.5643,0.35,0,0.005359291,2.2132,9,0,9,0,1,,,,,,,,,,
,,151116,001,2023-07-24_21h00.29.513,arm3_q,2022.2.5,Win32,60.06366749,611abe6af992f6d35f60c003,64aeaab685a29f4ca249be02,64beca28cfd90f6980a326d4,right,1,0.5643,0.35,0,0.005434517,0.4036,10,0,10,0,1,,,,,,,,,,
,,151116,001,2023-07-24_21h00.29.513,arm3_q,2022.2.5,Win32,60.06366749,611abe6af992f6d35f60c003,64aeaab685a29f4ca249be02,64beca28cfd90f6980a326d4,right,1,0.5643,0.35,0,0.010557109,0.2616,11,0,11,0,1,,,,,,,,,,
,,151116,001,2023-07-24_21h00.29.513,arm3_q,2022.2.5,Win32,60.06366749,611abe6af992f6d35f60c003,64aeaab685a29f4ca249be02,64beca28cfd90f6980a326d4,right,1,0.5643,0.35,0,0.007897486,0.4648,12,0,12,0,1,,,,,,,,,,
,,151116,001,2023-07-24_21h00.29.513,arm3_q,2022.2.5,Win32,60.06366749,611abe6af992f6d35f60c003,64aeaab685a29f4ca249be02,64beca28cfd90f6980a326d4,right,1,0.5643,0.35,0,0.006727068,0.2315,13,0,13,0,1,,,,,,,,,,
,,151116,001,2023-07-24_21h00.29.513,arm3_q,2022.2.5,Win32,60.06366749,611abe6af992f6d35f60c003,64aeaab685a29f4ca249be02,64beca28cfd90f6980a326d4,right,1,0.5643,0.35,0,0.023288032,0.8828,14,0,14,0,1,,,,,,,,,,
,,151116,001,2023-07-24_21h00.29.513,arm3_q,2022.2.5,Win32,60.06366749,611abe6af992f6d35f60c003,64aeaab685a29f4ca249be02,64beca28cfd90f6980a326d4,right,1,0.5643,0.35,0,0.036733103,0.2259,15,0,15,0,1,,,,,,,,,,
,,151116,001,2023-07-24_21h00.29.513,arm3_q,2022.2.5,Win32,60.06366749,611abe6af992f6d35f60c003,64aeaab685a29f4ca249be02,64beca28cfd90f6980a326d4,right,1,0.5643,0.35,0,0.048818039,0.2168,16,0,16,0,1,,,,,,,,,,
,,151116,001,2023-07-24_21h00.29.513,arm3_q,2022.2.5,Win32,60.06366749,611abe6af992f6d35f60c003,64aeaab685a29f4ca249be02,64beca28cfd90f6980a326d4,right,1,0.5643,0.35,0,0.053953169,0.1821,17,0,17,0,1,,,,,,,,,,
,,151116,001,2023-07-24_21h00.29.513,arm3_q,2022.2.5,Win32,60.06366749,611abe6af992f6d35f60c003,64aeaab685a29f4ca249be02,64beca28cfd90f6980a326d4,right,1,0.5643,0.35,0,0.07904797,0.258,18,0,18,0,1,,,,,,,,,,
,,151116,001,2023-07-24_21h00.29.513,arm3_q,2022.2.5,Win32,60.06366749,611abe6af992f6d35f60c003,64aeaab685a29f4ca249be02,64beca28cfd90f6980a326d4,right,1,0.5643,0.35,0,0.10020748,0.2988,19,0,19,0,1,,,,,,,,,,
,,151116,001,2023-07-24_21h00.29.513,arm3_q,2022.2.5,Win32,60.06366749,611abe6af992f6d35f60c003,64aeaab685a29f4ca249be02,64beca28cfd90f6980a326d4,up,1,0.5643,0.35,0,0,0.4093,20,0,20,0,1,,,,,,,,,,
,,151116,001,2023-07-24_21h00.29.513,arm3_q,2022.2.5,Win32,60.06366749,611abe6af992f6d35f60c003,64aeaab685a29f4ca249be02,64beca28cfd90f6980a326d4,right,1,0.5643,0.35,0,-0.002885842,1.3479,21,0,21,0,1,,,,,,,,,,
,,151116,001,2023-07-24_21h00.29.513,arm3_q,2022.2.5,Win32,60.06366749,611abe6af992f6d35f60c003,64aeaab685a29f4ca249be02,64beca28cfd90f6980a326d4,right,1,0.5643,0.35,0,0.004424573,0.7895,22,0,22,0,1,,,,,,,,,,
,,151116,001,2023-07-24_21h00.29.513,arm3_q,2022.2.5,Win32,60.06366749,611abe6af992f6d35f60c003,64aeaab685a29f4ca249be02,64beca28cfd90f6980a326d4,right,1,0.5643,0.35,0,0.017172425,0.2656,23,0,23,0,1,,,,,,,,,,
,,151116,001,2023-07-24_21h00.29.513,arm3_q,2022.2.5,Win32,60.06366749,611abe6af992f6d35f60c003,64aeaab685a29f4ca249be02,64beca28cfd90f6980a326d4,right,1,0.5643,0.35,0,0.04039558,0.3507,24,0,24,0,1,,,,,,,,,,
,,151116,001,2023-07-24_21h00.29.513,arm3_q,2022.2.5,Win32,60.06366749,611abe6af992f6d35f60c003,64aeaab685a29f4ca249be02,64beca28cfd90f6980a326d4,right,1,0.5643,0.35,0,0.050260686,0.4493,25,0,25,0,1,,,,,,,,,,
,,151116,001,2023-07-24_21h00.29.513,arm3_q,2022.2.5,Win32,60.06366749,611abe6af992f6d35f60c003,64aeaab685a29f4ca249be02,64beca28cfd90f6980a326d4,right,1,0.5643,0.35,0,0.041419681,0.2422,26,0,26,0,1,,,,,,,,,,
,,151116,001,2023-07-24_21h00.29.513,arm3_q,2022.2.5,Win32,60.06366749,611abe6af992f6d35f60c003,64aeaab685a29f4ca249be02,64beca28cfd90f6980a326d4,right,1,0.5643,0.35,0,0.038179642,0.3943,27,0,27,0,1,,,,,,,,,,
,,151116,001,2023-07-24_21h00.29.513,arm3_q,2022.2.5,Win32,60.06366749,611abe6af992f6d35f60c003,64aeaab685a29f4ca249be02,64beca28cfd90f6980a326d4,up,-1,0.5643,0.35,1,0,0.4308,28,0,28,0,1,,,,,,,,,,
,,151116,001,2023-07-24_21h00.29.513,arm3_q,2022.2.5,Win32,60.06366749,611abe6af992f6d35f60c003,64aeaab685a29f4ca249be02,64beca28cfd90f6980a326d4,right,-1,0.5643,0.35,1,-0.006947326,1.1536,29,0,29,0,1,,,,,,,,,,
,,151116,001,2023-07-24_21h00.29.513,arm3_q,2022.2.5,Win32,60.06366749,611abe6af992f6d35f60c003,64aeaab685a29f4ca249be02,64beca28cfd90f6980a326d4,right,-1,0.5643,0.35,1,0.020530176,0.1991,30,0,30,0,1,,,,,,,,,,
,,151116,001,2023-07-24_21h00.29.513,arm3_q,2022.2.5,Win32,60.06366749,611abe6af992f6d35f60c003,64aeaab685a29f4ca249be02,64beca28cfd90f6980a326d4,right,-1,0.5643,0.35,1,0.004163075,0.2649,31,0,31,0,1,,,,,,,,,,
,,151116,001,2023-07-24_21h00.29.513,arm3_q,2022.2.5,Win32,60.06366749,611abe6af992f6d35f60c003,64aeaab685a29f4ca249be02,64beca28cfd90f6980a326d4,right,-1,0.5643,0.35,1,-0.007404774,0.5142,32,0,32,0,1,,,,,,,,,,
,,151116,001,2023-07-24_21h00.29.513,arm3_q,2022.2.5,Win32,60.06366749,611abe6af992f6d35f60c003,64aeaab685a29f4ca249be02,64beca28cfd90f6980a326d4,right,-1,0.5643,0.35,1,-0.020019514,0.2588,33,0,33,0,1,,,,,,,,,,
,,151116,001,2023-07-24_21h00.29.513,arm3_q,2022.2.5,Win32,60.06366749,611abe6af992f6d35f60c003,64aeaab685a29f4ca249be02,64beca28cfd90f6980a326d4,down,-1,0.5643,0.35,2,0,0.4363,34,0,34,0,1,,,,,,,,,,
,,151116,001,2023-07-24_21h00.29.513,arm3_q,2022.2.5,Win32,60.06366749,611abe6af992f6d35f60c003,64aeaab685a29f4ca249be02,64beca28cfd90f6980a326d4,right,-1,0.5643,0.35,2,-0.014484945,0.9582,35,0,35,0,1,,,,,,,,,,
,,151116,001,2023-07-24_21h00.29.513,arm3_q,2022.2.5,Win32,60.06366749,611abe6af992f6d35f60c003,64aeaab685a29f4ca249be02,64beca28cfd90f6980a326d4,right,-1,0.5643,0.35,2,-0.021760835,0.8846,36,0,36,0,1,,,,,,,,,,
,,151116,001,2023-07-24_21h00.29.513,arm3_q,2022.2.5,Win32,60.06366749,611abe6af992f6d35f60c003,64aeaab685a29f4ca249be02,64beca28cfd90f6980a326d4,right,-1,0.5643,0.35,2,0.009790284,0.5607,37,0,37,0,1,,,,,,,,,,
,,151116,001,2023-07-24_21h00.29.513,arm3_q,2022.2.5,Win32,60.06366749,611abe6af992f6d35f60c003,64aeaab685a29f4ca249be02,64beca28cfd90f6980a326d4,right,-1,0.5643,0.35,2,-0.010102723,0.3805,38,0,38,0,1,,,,,,,,,,
,,151116,001,2023-07-24_21h00.29.513,arm3_q,2022.2.5,Win32,60.06366749,611abe6af992f6d35f60c003,64aeaab685a29f4ca249be02,64beca28cfd90f6980a326d4,right,-1,0.5643,0.35,2,0.006720803,0.34,39,0,39,0,1,,,,,,,,,,
,,151116,001,2023-07-24_21h00.29.513,arm3_q,2022.2.5,Win32,60.06366749,611abe6af992f6d35f60c003,64aeaab685a29f4ca249be02,64beca28cfd90f6980a326d4,up,-1,0.5643,0.35,2,0,1.0069,40,0,40,0,1,,,,,,,,,,
,,151116,001,2023-07-24_21h00.29.513,arm3_q,2022.2.5,Win32,60.06366749,611abe6af992f6d35f60c003,64aeaab685a29f4ca249be02,64beca28cfd90f6980a326d4,right,-1,0.5643,0.35,2,-0.002856786,1.2568,41,0,41,0,1,,,,,,,,,,
,,151116,001,2023-07-24_21h00.29.513,arm3_q,2022.2.5,Win32,60.06366749,611abe6af992f6d35f60c003,64aeaab685a29f4ca249be02,64beca28cfd90f6980a326d4,right,-1,0.5643,0.35,2,-0.038205831,0.3613,42,0,42,0,1,,,,,,,,,,
,,151116,001,2023-07-24_21h00.29.513,arm3_q,2022.2.5,Win32,60.06366749,611abe6af992f6d35f60c003,64aeaab685a29f4ca249be02,64beca28cfd90f6980a326d4,right,-1,0.5643,0.35,2,-0.037316693,0.3652,43,0,43,0,1,,,,,,,,,,
,,151116,001,2023-07-24_21h00.29.513,arm3_q,2022.2.5,Win32,60.06366749,611abe6af992f6d35f60c003,64aeaab685a29f4ca249be02,64beca28cfd90f6980a326d4,down,-1,0.5643,0.35,2,0,0.4465,44,0,44,0,1,,,,,,,,,,
,,151116,001,2023-07-24_21h00.29.513,arm3_q,2022.2.5,Win32,60.06366749,611abe6af992f6d35f60c003,64aeaab685a29f4ca249be02,64beca28cfd90f6980a326d4,right,-1,0.5643,0.35,2,-0.016112368,0.9192,45,0,45,0,1,,,,,,,,,,
,,151116,001,2023-07-24_21h00.29.513,arm3_q,2022.2.5,Win32,60.06366749,611abe6af992f6d35f60c003,64aeaab685a29f4ca249be02,64beca28cfd90f6980a326d4,right,-1,0.5643,0.35,2,-0.028303358,0.2142,46,0,46,0,1,,,,,,,,,,
,,151116,001,2023-07-24_21h00.29.513,arm3_q,2022.2.5,Win32,60.06366749,611abe6af992f6d35f60c003,64aeaab685a29f4ca249be02,64beca28cfd90f6980a326d4,right,-1,0.5643,0.35,2,-0.044495347,0.2273,47,0,47,0,1,,,,,,,,,,
,,151116,001,2023-07-24_21h00.29.513,arm3_q,2022.2.5,Win32,60.06366749,611abe6af992f6d35f60c003,64aeaab685a29f4ca249be02,64beca28cfd90f6980a326d4,right,-1,0.5643,0.35,2,-0.066371761,0.2402,48,0,48,0,1,,,,,,,,,,
,,151116,001,2023-07-24_21h00.29.513,arm3_q,2022.2.5,Win32,60.06366749,611abe6af992f6d35f60c003,64aeaab685a29f4ca249be02,64beca28cfd90f6980a326d4,right,-1,0.5643,0.35,2,-0.050458266,0.4824,49,0,49,0,1,,,,,,,,,,
space,1.5313,151116,001,2023-07-24_21h00.29.513,arm3_q,2022.2.5,Win32,60.06366749,611abe6af992f6d35f60c003,64aeaab685a29f4ca249be02,64beca28cfd90f6980a326d4,,,,,,,,,,,,,,,,,,,,,,
space,6.2333,151116,001,2023-07-24_21h00.29.513,arm3_q,2022.2.5,Win32,60.06366749,611abe6af992f6d35f60c003,64aeaab685a29f4ca249be02,64beca28cfd90f6980a326d4,right,-1,0.8214,0.35,0,-0.025735364,0.9412,,,,,,0,0,0,0,1,,,,,
,,151116,001,2023-07-24_21h00.29.513,arm3_q,2022.2.5,Win32,60.06366749,611abe6af992f6d35f60c003,64aeaab685a29f4ca249be02,64beca28cfd90f6980a326d4,right,-1,0.8214,0.35,0,-0.043897802,0.9565,,,,,,1,0,1,0,1,,,,,
,,151116,001,2023-07-24_21h00.29.513,arm3_q,2022.2.5,Win32,60.06366749,611abe6af992f6d35f60c003,64aeaab685a29f4ca249be02,64beca28cfd90f6980a326d4,down,1,0.8214,0.35,0,0,0.5156,,,,,,2,0,2,0,1,,,,,
,,151116,001,2023-07-24_21h00.29.513,arm3_q,2022.2.5,Win32,60.06366749,611abe6af992f6d35f60c003,64aeaab685a29f4ca249be02,64beca28cfd90f6980a326d4,right,1,0.8214,0.35,0,0.023548588,1.2896,,,,,,3,0,3,0,1,,,,,
,,151116,001,2023-07-24_21h00.29.513,arm3_q,2022.2.5,Win32,60.06366749,611abe6af992f6d35f60c003,64aeaab685a29f4ca249be02,64beca28cfd90f6980a326d4,right,1,0.8214,0.35,0,0.022170549,0.2274,,,,,,4,0,4,0,1,,,,,
,,151116,001,2023-07-24_21h00.29.513,arm3_q,2022.2.5,Win32,60.06366749,611abe6af992f6d35f60c003,64aeaab685a29f4ca249be02,64beca28cfd90f6980a326d4,right,1,0.8214,0.35,0,0.039019199,0.3584,,,,,,5,0,5,0,1,,,,,
,,151116,001,2023-07-24_21h00.29.513,arm3_q,2022.2.5,Win32,60.06366749,611abe6af992f6d35f60c003,64aeaab685a29f4ca249be02,64beca28cfd90f6980a326d4,up,1,0.8214,0.35,1,0,0.444,,,,,,6,0,6,0,1,,,,,
,,151116,001,2023-07-24_21h00.29.513,arm3_q,2022.2.5,Win32,60.06366749,611abe6af992f6d35f60c003,64aeaab685a29f4ca249be02,64beca28cfd90f6980a326d4,right,1,0.8214,0.35,1,0.008256103,1.1732,,,,,,7,0,7,0,1,,,,,
,,151116,001,2023-07-24_21h00.29.513,arm3_q,2022.2.5,Win32,60.06366749,611abe6af992f6d35f60c003,64aeaab685a29f4ca249be02,64beca28cfd90f6980a326d4,right,1,0.8214,0.35,1,0.027034218,0.2355,,,,,,8,0,8,0,1,,,,,
,,151116,001,2023-07-24_21h00.29.513,arm3_q,2022.2.5,Win32,60.06366749,611abe6af992f6d35f60c003,64aeaab685a29f4ca249be02,64beca28cfd90f6980a326d4,right,1,0.8214,0.35,1,0.029871059,0.3869,,,,,,9,0,9,0,1,,,,,
,,151116,001,2023-07-24_21h00.29.513,arm3_q,2022.2.5,Win32,60.06366749,611abe6af992f6d35f60c003,64aeaab685a29f4ca249be02,64beca28cfd90f6980a326d4,right,1,0.8214,0.35,1,0.038780871,0.2712,,,,,,10,0,10,0,1,,,,,
,,151116,001,2023-07-24_21h00.29.513,arm3_q,2022.2.5,Win32,60.06366749,611abe6af992f6d35f60c003,64aeaab685a29f4ca249be02,64beca28cfd90f6980a326d4,up,-1,0.8214,0.35,2,0,0.3822,,,,,,11,0,11,0,1,,,,,
,,151116,001,2023-07-24_21h00.29.513,arm3_q,2022.2.5,Win32,60.06366749,611abe6af992f6d35f60c003,64aeaab685a29f4ca249be02,64beca28cfd90f6980a326d4,right,-1,0.8214,0.35,2,-0.01730321,0.9421,,,,,,12,0,12,0,1,,,,,
,,151116,001,2023-07-24_21h00.29.513,arm3_q,2022.2.5,Win32,60.06366749,611abe6af992f6d35f60c003,64aeaab685a29f4ca249be02,64beca28cfd90f6980a326d4,right,-1,0.8214,0.35,2,-0.031731933,0.31,,,,,,13,0,13,0,1,,,,,
,,151116,001,2023-07-24_21h00.29.513,arm3_q,2022.2.5,Win32,60.06366749,611abe6af992f6d35f60c003,64aeaab685a29f4ca249be02,64beca28cfd90f6980a326d4,right,-1,0.8214,0.35,2,-0.050978771,0.2195,,,,,,14,0,14,0,1,,,,,
,,151116,001,2023-07-24_21h00.29.513,arm3_q,2022.2.5,Win32,60.06366749,611abe6af992f6d35f60c003,64aeaab685a29f4ca249be02,64beca28cfd90f6980a326d4,right,-1,0.8214,0.35,2,-0.041920607,0.6158,,,,,,15,0,15,0,1,,,,,
,,151116,001,2023-07-24_21h00.29.513,arm3_q,2022.2.5,Win32,60.06366749,611abe6af992f6d35f60c003,64aeaab685a29f4ca249be02,64beca28cfd90f6980a326d4,down,-1,0.8214,0.35,3,0,0.5908,,,,,,16,0,16,0,1,,,,,
,,151116,001,2023-07-24_21h00.29.513,arm3_q,2022.2.5,Win32,60.06366749,611abe6af992f6d35f60c003,64aeaab685a29f4ca249be02,64beca28cfd90f6980a326d4,right,-1,0.8214,0.35,3,0.018073825,2.8429,,,,,,17,0,17,0,1,,,,,
,,151116,001,2023-07-24_21h00.29.513,arm3_q,2022.2.5,Win32,60.06366749,611abe6af992f6d35f60c003,64aeaab685a29f4ca249be02,64beca28cfd90f6980a326d4,right,-1,0.8214,0.35,3,-0.007777315,0.8292,,,,,,18,0,18,0,1,,,,,
,,151116,001,2023-07-24_21h00.29.513,arm3_q,2022.2.5,Win32,60.06366749,611abe6af992f6d35f60c003,64aeaab685a29f4ca249be02,64beca28cfd90f6980a326d4,right,-1,0.8214,0.35,3,0.007320113,0.4322,,,,,,19,0,19,0,1,,,,,
,,151116,001,2023-07-24_21h00.29.513,arm3_q,2022.2.5,Win32,60.06366749,611abe6af992f6d35f60c003,64aeaab685a29f4ca249be02,64beca28cfd90f6980a326d4,right,-1,0.8214,0.35,3,-0.02467285,0.3656,,,,,,20,0,20,0,1,,,,,
,,151116,001,2023-07-24_21h00.29.513,arm3_q,2022.2.5,Win32,60.06366749,611abe6af992f6d35f60c003,64aeaab685a29f4ca249be02,64beca28cfd90f6980a326d4,down,-1,0.8214,0.35,4,0,0.9514,,,,,,21,0,21,0,1,,,,,
,,151116,001,2023-07-24_21h00.29.513,arm3_q,2022.2.5,Win32,60.06366749,611abe6af992f6d35f60c003,64aeaab685a29f4ca249be02,64beca28cfd90f6980a326d4,right,-1,0.8214,0.35,4,0.021482134,1.1401,,,,,,22,0,22,0,1,,,,,
,,151116,001,2023-07-24_21h00.29.513,arm3_q,2022.2.5,Win32,60.06366749,611abe6af992f6d35f60c003,64aeaab685a29f4ca249be02,64beca28cfd90f6980a326d4,right,-1,0.8214,0.35,4,0.003039125,0.3158,,,,,,23,0,23,0,1,,,,,
,,151116,001,2023-07-24_21h00.29.513,arm3_q,2022.2.5,Win32,60.06366749,611abe6af992f6d35f60c003,64aeaab685a29f4ca249be02,64beca28cfd90f6980a326d4,right,-1,0.8214,0.35,4,-0.0151219,0.4881,,,,,,24,0,24,0,1,,,,,
,,151116,001,2023-07-24_21h00.29.513,arm3_q,2022.2.5,Win32,60.06366749,611abe6af992f6d35f60c003,64aeaab685a29f4ca249be02,64beca28cfd90f6980a326d4,down,-1,0.8214,0.35,5,0,0.5854,,,,,,25,0,25,0,1,,,,,
,,151116,001,2023-07-24_21h00.29.513,arm3_q,2022.2.5,Win32,60.06366749,611abe6af992f6d35f60c003,64aeaab685a29f4ca249be02,64beca28cfd90f6980a326d4,right,-1,0.8214,0.35,5,-0.028873305,0.9495,,,,,,26,0,26,0,1,,,,,
,,151116,001,2023-07-24_21h00.29.513,arm3_q,2022.2.5,Win32,60.06366749,611abe6af992f6d35f60c003,64aeaab685a29f4ca249be02,64beca28cfd90f6980a326d4,down,-1,0.8214,0.35,6,0,0.5881,,,,,,27,0,27,0,1,,,,,
,,151116,001,2023-07-24_21h00.29.513,arm3_q,2022.2.5,Win32,60.06366749,611abe6af992f6d35f60c003,64aeaab685a29f4ca249be02,64beca28cfd90f6980a326d4,down,-1,0.8214,0.35,7,0,1.3691,,,,,,28,0,28,0,1,,,,,
,,151116,001,2023-07-24_21h00.29.513,arm3_q,2022.2.5,Win32,60.06366749,611abe6af992f6d35f60c003,64aeaab685a29f4ca249be02,64beca28cfd90f6980a326d4,right,-1,0.8214,0.35,7,0.00506622,1.1483,,,,,,29,0,29,0,1,,,,,
,,151116,001,2023-07-24_21h00.29.513,arm3_q,2022.2.5,Win32,60.06366749,611abe6af992f6d35f60c003,64aeaab685a29f4ca249be02,64beca28cfd90f6980a326d4,right,-1,0.8214,0.35,7,-0.020937452,0.2708,,,,,,30,0,30,0,1,,,,,
,,151116,001,2023-07-24_21h00.29.513,arm3_q,2022.2.5,Win32,60.06366749,611abe6af992f6d35f60c003,64aeaab685a29f4ca249be02,64beca28cfd90f6980a326d4,right,-1,0.8214,0.35,7,-0.026341317,0.2049,,,,,,31,0,31,0,1,,,,,
,,151116,001,2023-07-24_21h00.29.513,arm3_q,2022.2.5,Win32,60.06366749,611abe6af992f6d35f60c003,64aeaab685a29f4ca249be02,64beca28cfd90f6980a326d4,right,-1,0.8214,0.35,7,-0.039674182,0.259,,,,,,32,0,32,0,1,,,,,
,,151116,001,2023-07-24_21h00.29.513,arm3_q,2022.2.5,Win32,60.06366749,611abe6af992f6d35f60c003,64aeaab685a29f4ca249be02,64beca28cfd90f6980a326d4,down,1,0.8214,0.35,8,0,0.3923,,,,,,33,0,33,0,1,,,,,
,,151116,001,2023-07-24_21h00.29.513,arm3_q,2022.2.5,Win32,60.06366749,611abe6af992f6d35f60c003,64aeaab685a29f4ca249be02,64beca28cfd90f6980a326d4,right,1,0.8214,0.35,8,0.012181558,0.8997,,,,,,34,0,34,0,1,,,,,
,,151116,001,2023-07-24_21h00.29.513,arm3_q,2022.2.5,Win32,60.06366749,611abe6af992f6d35f60c003,64aeaab685a29f4ca249be02,64beca28cfd90f6980a326d4,right,1,0.8214,0.35,8,0.035810233,0.4362,,,,,,35,0,35,0,1,,,,,
,,151116,001,2023-07-24_21h00.29.513,arm3_q,2022.2.5,Win32,60.06366749,611abe6af992f6d35f60c003,64aeaab685a29f4ca249be02,64beca28cfd90f6980a326d4,up,1,0.8214,0.35,9,0,0.2557,,,,,,36,0,36,0,1,,,,,
,,151116,001,2023-07-24_21h00.29.513,arm3_q,2022.2.5,Win32,60.06366749,611abe6af992f6d35f60c003,64aeaab685a29f4ca249be02,64beca28cfd90f6980a326d4,right,1,0.8214,0.35,9,0.004171374,0.9054,,,,,,37,0,37,0,1,,,,,
,,151116,001,2023-07-24_21h00.29.513,arm3_q,2022.2.5,Win32,60.06366749,611abe6af992f6d35f60c003,64aeaab685a29f4ca249be02,64beca28cfd90f6980a326d4,right,1,0.8214,0.35,9,0.062005963,0.3158,,,,,,38,0,38,0,1,,,,,
,,151116,001,2023-07-24_21h00.29.513,arm3_q,2022.2.5,Win32,60.06366749,611abe6af992f6d35f60c003,64aeaab685a29f4ca249be02,64beca28cfd90f6980a326d4,up,-1,0.8214,0.35,10,0,0.3788,,,,,,39,0,39,0,1,,,,,
,,151116,001,2023-07-24_21h00.29.513,arm3_q,2022.2.5,Win32,60.06366749,611abe6af992f6d35f60c003,64aeaab685a29f4ca249be02,64beca28cfd90f6980a326d4,right,-1,0.8214,0.35,10,0.036745356,1.07,,,,,,40,0,40,0,1,,,,,
,,151116,001,2023-07-24_21h00.29.513,arm3_q,2022.2.5,Win32,60.06366749,611abe6af992f6d35f60c003,64aeaab685a29f4ca249be02,64beca28cfd90f6980a326d4,right,-1,0.8214,0.35,10,0.009598107,0.5051,,,,,,41,0,41,0,1,,,,,
,,151116,001,2023-07-24_21h00.29.513,arm3_q,2022.2.5,Win32,60.06366749,611abe6af992f6d35f60c003,64aeaab685a29f4ca249be02,64beca28cfd90f6980a326d4,right,-1,0.8214,0.35,10,-0.005609131,0.2061,,,,,,42,0,42,0,1,,,,,
,,151116,001,2023-07-24_21h00.29.513,arm3_q,2022.2.5,Win32,60.06366749,611abe6af992f6d35f60c003,64aeaab685a29f4ca249be02,64beca28cfd90f6980a326d4,right,-1,0.8214,0.35,10,0.005288934,0.3242,,,,,,43,0,43,0,1,,,,,
,,151116,001,2023-07-24_21h00.29.513,arm3_q,2022.2.5,Win32,60.06366749,611abe6af992f6d35f60c003,64aeaab685a29f4ca249be02,64beca28cfd90f6980a326d4,right,-1,0.8214,0.35,10,0.008451035,0.3591,,,,,,44,0,44,0,1,,,,,
,,151116,001,2023-07-24_21h00.29.513,arm3_q,2022.2.5,Win32,60.06366749,611abe6af992f6d35f60c003,64aeaab685a29f4ca249be02,64beca28cfd90f6980a326d4,up,-1,0.8214,0.35,9,0,0.5109,,,,,,45,0,45,0,1,,,,,
,,151116,001,2023-07-24_21h00.29.513,arm3_q,2022.2.5,Win32,60.06366749,611abe6af992f6d35f60c003,64aeaab685a29f4ca249be02,64beca28cfd90f6980a326d4,right,-1,0.8214,0.35,9,-0.009951781,0.954,,,,,,46,0,46,0,1,,,,,
,,151116,001,2023-07-24_21h00.29.513,arm3_q,2022.2.5,Win32,60.06366749,611abe6af992f6d35f60c003,64aeaab685a29f4ca249be02,64beca28cfd90f6980a326d4,right,-1,0.8214,0.35,9,-0.026915156,0.1785,,,,,,47,0,47,0,1,,,,,
,,151116,001,2023-07-24_21h00.29.513,arm3_q,2022.2.5,Win32,60.06366749,611abe6af992f6d35f60c003,64aeaab685a29f4ca249be02,64beca28cfd90f6980a326d4,right,-1,0.8214,0.35,9,-0.015744275,0.2583,,,,,,48,0,48,0,1,,,,,
,,151116,001,2023-07-24_21h00.29.513,arm3_q,2022.2.5,Win32,60.06366749,611abe6af992f6d35f60c003,64aeaab685a29f4ca249be02,64beca28cfd90f6980a326d4,right,-1,0.8214,0.35,9,-0.007753379,0.2041,,,,,,49,0,49,0,1,,,,,
,,151116,001,2023-07-24_21h00.29.513,arm3_q,2022.2.5,Win32,60.06366749,611abe6af992f6d35f60c003,64aeaab685a29f4ca249be02,64beca28cfd90f6980a326d4,right,-1,0.8214,0.35,9,0.003897562,0.5849,,,,,,50,0,50,0,1,,,,,
,,151116,001,2023-07-24_21h00.29.513,arm3_q,2022.2.5,Win32,60.06366749,611abe6af992f6d35f60c003,64aeaab685a29f4ca249be02,64beca28cfd90f6980a326d4,right,-1,0.8214,0.35,9,0.001317742,1.0318,,,,,,51,0,51,0,1,,,,,
,,151116,001,2023-07-24_21h00.29.513,arm3_q,2022.2.5,Win32,60.06366749,611abe6af992f6d35f60c003,64aeaab685a29f4ca249be02,64beca28cfd90f6980a326d4,down,-1,0.8214,0.35,9,0,0.4473,,,,,,52,0,52,0,1,,,,,
,,151116,001,2023-07-24_21h00.29.513,arm3_q,2022.2.5,Win32,60.06366749,611abe6af992f6d35f60c003,64aeaab685a29f4ca249be02,64beca28cfd90f6980a326d4,right,-1,0.8214,0.35,9,0.000983895,0.9157,,,,,,53,0,53,0,1,,,,,
,,151116,001,2023-07-24_21h00.29.513,arm3_q,2022.2.5,Win32,60.06366749,611abe6af992f6d35f60c003,64aeaab685a29f4ca249be02,64beca28cfd90f6980a326d4,right,-1,0.8214,0.35,9,0.015417627,0.1853,,,,,,54,0,54,0,1,,,,,
,,151116,001,2023-07-24_21h00.29.513,arm3_q,2022.2.5,Win32,60.06366749,611abe6af992f6d35f60c003,64aeaab685a29f4ca249be02,64beca28cfd90f6980a326d4,right,-1,0.8214,0.35,9,0.00807847,0.3619,,,,,,55,0,55,0,1,,,,,
,,151116,001,2023-07-24_21h00.29.513,arm3_q,2022.2.5,Win32,60.06366749,611abe6af992f6d35f60c003,64aeaab685a29f4ca249be02,64beca28cfd90f6980a326d4,right,-1,0.8214,0.35,9,-0.009325928,0.2406,,,,,,56,0,56,0,1,,,,,
,,151116,001,2023-07-24_21h00.29.513,arm3_q,2022.2.5,Win32,60.06366749,611abe6af992f6d35f60c003,64aeaab685a29f4ca249be02,64beca28cfd90f6980a326d4,right,-1,0.8214,0.35,9,-0.031101701,0.2843,,,,,,57,0,57,0,1,,,,,
,,151116,001,2023-07-24_21h00.29.513,arm3_q,2022.2.5,Win32,60.06366749,611abe6af992f6d35f60c003,64aeaab685a29f4ca249be02,64beca28cfd90f6980a326d4,down,-1,0.8214,0.35,10,0,0.4508,,,,,,58,0,58,0,1,,,,,
,,151116,001,2023-07-24_21h00.29.513,arm3_q,2022.2.5,Win32,60.06366749,611abe6af992f6d35f60c003,64aeaab685a29f4ca249be02,64beca28cfd90f6980a326d4,right,-1,0.8214,0.35,10,-0.001661525,0.7547,,,,,,59,0,59,0,1,,,,,
,,151116,001,2023-07-24_21h00.29.513,arm3_q,2022.2.5,Win32,60.06366749,611abe6af992f6d35f60c003,64aeaab685a29f4ca249be02,64beca28cfd90f6980a326d4,right,-1,0.8214,0.35,10,-0.019614296,0.2423,,,,,,60,0,60,0,1,,,,,
,,151116,001,2023-07-24_21h00.29.513,arm3_q,2022.2.5,Win32,60.06366749,611abe6af992f6d35f60c003,64aeaab685a29f4ca249be02,64beca28cfd90f6980a326d4,down,1,0.8214,0.35,11,0,0.5702,,,,,,61,0,61,0,1,,,,,
,,151116,001,2023-07-24_21h00.29.513,arm3_q,2022.2.5,Win32,60.06366749,611abe6af992f6d35f60c003,64aeaab685a29f4ca249be02,64beca28cfd90f6980a326d4,right,1,0.8214,0.35,11,0.043647377,0.7741,,,,,,62,0,62,0,1,,,,,
,,151116,001,2023-07-24_21h00.29.513,arm3_q,2022.2.5,Win32,60.06366749,611abe6af992f6d35f60c003,64aeaab685a29f4ca249be02,64beca28cfd90f6980a326d4,right,1,0.8214,0.35,11,0.046887006,0.4098,,,,,,63,0,63,0,1,,,,,
,,151116,001,2023-07-24_21h00.29.513,arm3_q,2022.2.5,Win32,60.06366749,611abe6af992f6d35f60c003,64aeaab685a29f4ca249be02,64beca28cfd90f6980a326d4,right,1,0.8214,0.35,11,0.057943088,0.2992,,,,,,64,0,64,0,1,,,,,
,,151116,001,2023-07-24_21h00.29.513,arm3_q,2022.2.5,Win32,60.06366749,611abe6af992f6d35f60c003,64aeaab685a29f4ca249be02,64beca28cfd90f6980a326d4,up,1,0.8214,0.35,12,0,0.3682,,,,,,65,0,65,0,1,,,,,
,,151116,001,2023-07-24_21h00.29.513,arm3_q,2022.2.5,Win32,60.06366749,611abe6af992f6d35f60c003,64aeaab685a29f4ca249be02,64beca28cfd90f6980a326d4,right,1,0.8214,0.35,12,0.033037431,0.8038,,,,,,66,0,66,0,1,,,,,
,,151116,001,2023-07-24_21h00.29.513,arm3_q,2022.2.5,Win32,60.06366749,611abe6af992f6d35f60c003,64aeaab685a29f4ca249be02,64beca28cfd90f6980a326d4,right,1,0.8214,0.35,12,0.037842756,0.2582,,,,,,67,0,67,0,1,,,,,
,,151116,001,2023-07-24_21h00.29.513,arm3_q,2022.2.5,Win32,60.06366749,611abe6af992f6d35f60c003,64aeaab685a29f4ca249be02,64beca28cfd90f6980a326d4,right,1,0.8214,0.35,12,0.049915777,0.1935,,,,,,68,0,68,0,1,,,,,
,,151116,001,2023-07-24_21h00.29.513,arm3_q,2022.2.5,Win32,60.06366749,611abe6af992f6d35f60c003,64aeaab685a29f4ca249be02,64beca28cfd90f6980a326d4,up,1,0.8214,0.35,13,0,0.3584,,,,,,69,0,69,0,1,,,,,
,,151116,001,2023-07-24_21h00.29.513,arm3_q,2022.2.5,Win32,60.06366749,611abe6af992f6d35f60c003,64aeaab685a29f4ca249be02,64beca28cfd90f6980a326d4,right,1,0.8214,0.35,13,0.012445169,0.9199,,,,,,70,0,70,0,1,,,,,
,,151116,001,2023-07-24_21h00.29.513,arm3_q,2022.2.5,Win32,60.06366749,611abe6af992f6d35f60c003,64aeaab685a29f4ca249be02,64beca28cfd90f6980a326d4,right,1,0.8214,0.35,13,0.026134769,0.1898,,,,,,71,0,71,0,1,,,,,
,,151116,001,2023-07-24_21h00.29.513,arm3_q,2022.2.5,Win32,60.06366749,611abe6af992f6d35f60c003,64aeaab685a29f4ca249be02,64beca28cfd90f6980a326d4,right,1,0.8214,0.35,13,0.022570147,0.1718,,,,,,72,0,72,0,1,,,,,
,,151116,001,2023-07-24_21h00.29.513,arm3_q,2022.2.5,Win32,60.06366749,611abe6af992f6d35f60c003,64aeaab685a29f4ca249be02,64beca28cfd90f6980a326d4,up,1,0.8214,0.35,14,0,0.4925,,,,,,73,0,73,0,1,,,,,
,,151116,001,2023-07-24_21h00.29.513,arm3_q,2022.2.5,Win32,60.06366749,611abe6af992f6d35f60c003,64aeaab685a29f4ca249be02,64beca28cfd90f6980a326d4,right,1,0.8214,0.35,14,0.016059946,0.9916,,,,,,74,0,74,0,1,,,,,
,,151116,001,2023-07-24_21h00.29.513,arm3_q,2022.2.5,Win32,60.06366749,611abe6af992f6d35f60c003,64aeaab685a29f4ca249be02,64beca28cfd90f6980a326d4,right,1,0.8214,0.35,14,0.004508448,0.2151,,,,,,75,0,75,0,1,,,,,
,,151116,001,2023-07-24_21h00.29.513,arm3_q,2022.2.5,Win32,60.06366749,611abe6af992f6d35f60c003,64aeaab685a29f4ca249be02,64beca28cfd90f6980a326d4,right,1,0.8214,0.35,14,0.015856563,0.185,,,,,,76,0,76,0,1,,,,,
,,151116,001,2023-07-24_21h00.29.513,arm3_q,2022.2.5,Win32,60.06366749,611abe6af992f6d35f60c003,64aeaab685a29f4ca249be02,64beca28cfd90f6980a326d4,right,1,0.8214,0.35,14,0.018506016,0.2074,,,,,,77,0,77,0,1,,,,,
,,151116,001,2023-07-24_21h00.29.513,arm3_q,2022.2.5,Win32,60.06366749,611abe6af992f6d35f60c003,64aeaab685a29f4ca249be02,64beca28cfd90f6980a326d4,up,-1,0.8214,0.35,15,0,0.4112,,,,,,78,0,78,0,1,,,,,
,,151116,001,2023-07-24_21h00.29.513,arm3_q,2022.2.5,Win32,60.06366749,611abe6af992f6d35f60c003,64aeaab685a29f4ca249be02,64beca28cfd90f6980a326d4,right,-1,0.8214,0.35,15,-0.007396279,1.2841,,,,,,79,0,79,0,1,,,,,
,,151116,001,2023-07-24_21h00.29.513,arm3_q,2022.2.5,Win32,60.06366749,611abe6af992f6d35f60c003,64aeaab685a29f4ca249be02,64beca28cfd90f6980a326d4,right,-1,0.8214,0.35,15,0.001375763,0.2352,,,,,,80,0,80,0,1,,,,,
,,151116,001,2023-07-24_21h00.29.513,arm3_q,2022.2.5,Win32,60.06366749,611abe6af992f6d35f60c003,64aeaab685a29f4ca249be02,64beca28cfd90f6980a326d4,right,-1,0.8214,0.35,15,0.010360202,0.2974,,,,,,81,0,81,0,1,,,,,
,,151116,001,2023-07-24_21h00.29.513,arm3_q,2022.2.5,Win32,60.06366749,611abe6af992f6d35f60c003,64aeaab685a29f4ca249be02,64beca28cfd90f6980a326d4,right,-1,0.8214,0.35,15,-0.003016466,0.5362,,,,,,82,0,82,0,1,,,,,
,,151116,001,2023-07-24_21h00.29.513,arm3_q,2022.2.5,Win32,60.06366749,611abe6af992f6d35f60c003,64aeaab685a29f4ca249be02,64beca28cfd90f6980a326d4,right,-1,0.8214,0.35,15,0.001752626,0.7336,,,,,,83,0,83,0,1,,,,,
,,151116,001,2023-07-24_21h00.29.513,arm3_q,2022.2.5,Win32,60.06366749,611abe6af992f6d35f60c003,64aeaab685a29f4ca249be02,64beca28cfd90f6980a326d4,right,-1,0.8214,0.35,15,-0.006695132,0.4812,,,,,,84,0,84,0,1,,,,,
,,151116,001,2023-07-24_21h00.29.513,arm3_q,2022.2.5,Win32,60.06366749,611abe6af992f6d35f60c003,64aeaab685a29f4ca249be02,64beca28cfd90f6980a326d4,up,1,0.8214,0.35,15,0,0.9384,,,,,,85,0,85,0,1,,,,,
,,151116,001,2023-07-24_21h00.29.513,arm3_q,2022.2.5,Win32,60.06366749,611abe6af992f6d35f60c003,64aeaab685a29f4ca249be02,64beca28cfd90f6980a326d4,right,1,0.8214,0.35,15,-0.010298461,0.752,,,,,,86,0,86,0,1,,,,,
,,151116,001,2023-07-24_21h00.29.513,arm3_q,2022.2.5,Win32,60.06366749,611abe6af992f6d35f60c003,64aeaab685a29f4ca249be02,64beca28cfd90f6980a326d4,right,1,0.8214,0.35,15,0.016146417,0.1985,,,,,,87,0,87,0,1,,,,,
,,151116,001,2023-07-24_21h00.29.513,arm3_q,2022.2.5,Win32,60.06366749,611abe6af992f6d35f60c003,64aeaab685a29f4ca249be02,64beca28cfd90f6980a326d4,right,1,0.8214,0.35,15,0.015068737,0.859,,,,,,88,0,88,0,1,,,,,
,,151116,001,2023-07-24_21h00.29.513,arm3_q,2022.2.5,Win32,60.06366749,611abe6af992f6d35f60c003,64aeaab685a29f4ca249be02,64beca28cfd90f6980a326d4,up,1,0.8214,0.35,15,0,0.4518,,,,,,89,0,89,0,1,,,,,
,,151116,001,2023-07-24_21h00.29.513,arm3_q,2022.2.5,Win32,60.06366749,611abe6af992f6d35f60c003,64aeaab685a29f4ca249be02,64beca28cfd90f6980a326d4,right,1,0.8214,0.35,15,0.019956592,0.805,,,,,,90,0,90,0,1,,,,,
,,151116,001,2023-07-24_21h00.29.513,arm3_q,2022.2.5,Win32,60.06366749,611abe6af992f6d35f60c003,64aeaab685a29f4ca249be02,64beca28cfd90f6980a326d4,right,1,0.8214,0.35,15,0.044016,0.2022,,,,,,91,0,91,0,1,,,,,
,,151116,001,2023-07-24_21h00.29.513,arm3_q,2022.2.5,Win32,60.06366749,611abe6af992f6d35f60c003,64aeaab685a29f4ca249be02,64beca28cfd90f6980a326d4,up,1,0.8214,0.35,15,0,0.5829,,,,,,92,0,92,0,1,,,,,
,,151116,001,2023-07-24_21h00.29.513,arm3_q,2022.2.5,Win32,60.06366749,611abe6af992f6d35f60c003,64aeaab685a29f4ca249be02,64beca28cfd90f6980a326d4,right,1,0.8214,0.35,15,0.025970271,0.6217,,,,,,93,0,93,0,1,,,,,
,,151116,001,2023-07-24_21h00.29.513,arm3_q,2022.2.5,Win32,60.06366749,611abe6af992f6d35f60c003,64aeaab685a29f4ca249be02,64beca28cfd90f6980a326d4,right,1,0.8214,0.35,15,0.044039328,0.2503,,,,,,94,0,94,0,1,,,,,
,,151116,001,2023-07-24_21h00.29.513,arm3_q,2022.2.5,Win32,60.06366749,611abe6af992f6d35f60c003,64aeaab685a29f4ca249be02,64beca28cfd90f6980a326d4,right,1,0.8214,0.35,15,0.029665314,0.4474,,,,,,95,0,95,0,1,,,,,
,,151116,001,2023-07-24_21h00.29.513,arm3_q,2022.2.5,Win32,60.06366749,611abe6af992f6d35f60c003,64aeaab685a29f4ca249be02,64beca28cfd90f6980a326d4,right,1,0.8214,0.35,15,0.024446589,0.2754,,,,,,96,0,96,0,1,,,,,
,,151116,001,2023-07-24_21h00.29.513,arm3_q,2022.2.5,Win32,60.06366749,611abe6af992f6d35f60c003,64aeaab685a29f4ca249be02,64beca28cfd90f6980a326d4,up,-1,0.8214,0.35,16,0,0.3782,,,,,,97,0,97,0,1,,,,,
,,151116,001,2023-07-24_21h00.29.513,arm3_q,2022.2.5,Win32,60.06366749,611abe6af992f6d35f60c003,64aeaab685a29f4ca249be02,64beca28cfd90f6980a326d4,right,-1,0.8214,0.35,16,-0.036711008,0.7243,,,,,,98,0,98,0,1,,,,,
,,151116,001,2023-07-24_21h00.29.513,arm3_q,2022.2.5,Win32,60.06366749,611abe6af992f6d35f60c003,64aeaab685a29f4ca249be02,64beca28cfd90f6980a326d4,right,-1,0.8214,0.35,16,-0.032708767,0.1998,,,,,,99,0,99,0,1,,,,,
,,151116,001,2023-07-24_21h00.29.513,arm3_q,2022.2.5,Win32,60.06366749,611abe6af992f6d35f60c003,64aeaab685a29f4ca249be02,64beca28cfd90f6980a326d4,right,-1,0.8214,0.35,16,-0.017092534,0.4175,,,,,,100,0,100,0,1,,,,,
,,151116,001,2023-07-24_21h00.29.513,arm3_q,2022.2.5,Win32,60.06366749,611abe6af992f6d35f60c003,64aeaab685a29f4ca249be02,64beca28cfd90f6980a326d4,right,-1,0.8214,0.35,16,-0.029036411,0.2187,,,,,,101,0,101,0,1,,,,,
,,151116,001,2023-07-24_21h00.29.513,arm3_q,2022.2.5,Win32,60.06366749,611abe6af992f6d35f60c003,64aeaab685a29f4ca249be02,64beca28cfd90f6980a326d4,down,1,0.8214,0.35,16,0,0.3071,,,,,,102,0,102,0,1,,,,,
,,151116,001,2023-07-24_21h00.29.513,arm3_q,2022.2.5,Win32,60.06366749,611abe6af992f6d35f60c003,64aeaab685a29f4ca249be02,64beca28cfd90f6980a326d4,right,1,0.8214,0.35,16,0.006030363,0.7477,,,,,,103,0,103,0,1,,,,,
,,151116,001,2023-07-24_21h00.29.513,arm3_q,2022.2.5,Win32,60.06366749,611abe6af992f6d35f60c003,64aeaab685a29f4ca249be02,64beca28cfd90f6980a326d4,right,1,0.8214,0.35,16,0.009037666,0.1517,,,,,,104,0,104,0,1,,,,,
,,151116,001,2023-07-24_21h00.29.513,arm3_q,2022.2.5,Win32,60.06366749,611abe6af992f6d35f60c003,64aeaab685a29f4ca249be02,64beca28cfd90f6980a326d4,right,1,0.8214,0.35,16,-0.001416095,0.1932,,,,,,105,0,105,0,1,,,,,
,,151116,001,2023-07-24_21h00.29.513,arm3_q,2022.2.5,Win32,60.06366749,611abe6af992f6d35f60c003,64aeaab685a29f4ca249be02,64beca28cfd90f6980a326d4,right,1,0.8214,0.35,16,0.025588011,0.1538,,,,,,106,0,106,0,1,,,,,
,,151116,001,2023-07-24_21h00.29.513,arm3_q,2022.2.5,Win32,60.06366749,611abe6af992f6d35f60c003,64aeaab685a29f4ca249be02,64beca28cfd90f6980a326d4,up,1,0.8214,0.35,17,0,0.4982,,,,,,107,0,107,0,1,,,,,
,,151116,001,2023-07-24_21h00.29.513,arm3_q,2022.2.5,Win32,60.06366749,611abe6af992f6d35f60c003,64aeaab685a29f4ca249be02,64beca28cfd90f6980a326d4,right,1,0.8214,0.35,17,0.004467042,0.9388,,,,,,108,0,108,0,1,,,,,
,,151116,001,2023-07-24_21h00.29.513,arm3_q,2022.2.5,Win32,60.06366749,611abe6af992f6d35f60c003,64aeaab685a29f4ca249be02,64beca28cfd90f6980a326d4,right,1,0.8214,0.35,17,0.009655802,0.1674,,,,,,109,0,109,0,1,,,,,
,,151116,001,2023-07-24_21h00.29.513,arm3_q,2022.2.5,Win32,60.06366749,611abe6af992f6d35f60c003,64aeaab685a29f4ca249be02,64beca28cfd90f6980a326d4,right,1,0.8214,0.35,17,-0.015016743,0.1576,,,,,,110,0,110,0,1,,,,,
,,151116,001,2023-07-24_21h00.29.513,arm3_q,2022.2.5,Win32,60.06366749,611abe6af992f6d35f60c003,64aeaab685a29f4ca249be02,64beca28cfd90f6980a326d4,right,1,0.8214,0.35,17,-0.010968319,0.1829,,,,,,111,0,111,0,1,,,,,
,,151116,001,2023-07-24_21h00.29.513,arm3_q,2022.2.5,Win32,60.06366749,611abe6af992f6d35f60c003,64aeaab685a29f4ca249be02,64beca28cfd90f6980a326d4,right,1,0.8214,0.35,17,0.017667533,0.1666,,,,,,112,0,112,0,1,,,,,
,,151116,001,2023-07-24_21h00.29.513,arm3_q,2022.2.5,Win32,60.06366749,611abe6af992f6d35f60c003,64aeaab685a29f4ca249be02,64beca28cfd90f6980a326d4,up,-1,0.8214,0.35,17,0,0.5854,,,,,,113,0,113,0,1,,,,,
,,151116,001,2023-07-24_21h00.29.513,arm3_q,2022.2.5,Win32,60.06366749,611abe6af992f6d35f60c003,64aeaab685a29f4ca249be02,64beca28cfd90f6980a326d4,right,-1,0.8214,0.35,17,-0.005454694,0.7347,,,,,,114,0,114,0,1,,,,,
,,151116,001,2023-07-24_21h00.29.513,arm3_q,2022.2.5,Win32,60.06366749,611abe6af992f6d35f60c003,64aeaab685a29f4ca249be02,64beca28cfd90f6980a326d4,right,-1,0.8214,0.35,17,-0.024084592,0.1887,,,,,,115,0,115,0,1,,,,,
,,151116,001,2023-07-24_21h00.29.513,arm3_q,2022.2.5,Win32,60.06366749,611abe6af992f6d35f60c003,64aeaab685a29f4ca249be02,64beca28cfd90f6980a326d4,right,-1,0.8214,0.35,17,-0.04928099,0.183,,,,,,116,0,116,0,1,,,,,
,,151116,001,2023-07-24_21h00.29.513,arm3_q,2022.2.5,Win32,60.06366749,611abe6af992f6d35f60c003,64aeaab685a29f4ca249be02,64beca28cfd90f6980a326d4,right,-1,0.8214,0.35,17,-0.088005931,0.158,,,,,,117,0,117,0,1,,,,,
,,151116,001,2023-07-24_21h00.29.513,arm3_q,2022.2.5,Win32,60.06366749,611abe6af992f6d35f60c003,64aeaab685a29f4ca249be02,64beca28cfd90f6980a326d4,down,1,0.8214,0.35,17,0,0.2273,,,,,,118,0,118,0,1,,,,,
,,151116,001,2023-07-24_21h00.29.513,arm3_q,2022.2.5,Win32,60.06366749,611abe6af992f6d35f60c003,64aeaab685a29f4ca249be02,64beca28cfd90f6980a326d4,right,1,0.8214,0.35,17,-0.001354958,0.6481,,,,,,119,0,119,0,1,,,,,
,,151116,001,2023-07-24_21h00.29.513,arm3_q,2022.2.5,Win32,60.06366749,611abe6af992f6d35f60c003,64aeaab685a29f4ca249be02,64beca28cfd90f6980a326d4,right,1,0.8214,0.35,17,0.000214481,0.1728,,,,,,120,0,120,0,1,,,,,
,,151116,001,2023-07-24_21h00.29.513,arm3_q,2022.2.5,Win32,60.06366749,611abe6af992f6d35f60c003,64aeaab685a29f4ca249be02,64beca28cfd90f6980a326d4,right,1,0.8214,0.35,17,-0.000463213,0.1867,,,,,,121,0,121,0,1,,,,,
,,151116,001,2023-07-24_21h00.29.513,arm3_q,2022.2.5,Win32,60.06366749,611abe6af992f6d35f60c003,64aeaab685a29f4ca249be02,64beca28cfd90f6980a326d4,right,1,0.8214,0.35,17,-0.007650651,0.1497,,,,,,122,0,122,0,1,,,,,
,,151116,001,2023-07-24_21h00.29.513,arm3_q,2022.2.5,Win32,60.06366749,611abe6af992f6d35f60c003,64aeaab685a29f4ca249be02,64beca28cfd90f6980a326d4,right,1,0.8214,0.35,17,0.01751152,0.1764,,,,,,123,0,123,0,1,,,,,
,,151116,001,2023-07-24_21h00.29.513,arm3_q,2022.2.5,Win32,60.06366749,611abe6af992f6d35f60c003,64aeaab685a29f4ca249be02,64beca28cfd90f6980a326d4,up,1,0.8214,0.35,17,0,0.6482,,,,,,124,0,124,0,1,,,,,
,,151116,001,2023-07-24_21h00.29.513,arm3_q,2022.2.5,Win32,60.06366749,611abe6af992f6d35f60c003,64aeaab685a29f4ca249be02,64beca28cfd90f6980a326d4,right,1,0.8214,0.35,17,-0.012202966,0.7698,,,,,,125,0,125,0,1,,,,,
,,151116,001,2023-07-24_21h00.29.513,arm3_q,2022.2.5,Win32,60.06366749,611abe6af992f6d35f60c003,64aeaab685a29f4ca249be02,64beca28cfd90f6980a326d4,right,1,0.8214,0.35,17,-0.025681466,0.1982,,,,,,126,0,126,0,1,,,,,
,,151116,001,2023-07-24_21h00.29.513,arm3_q,2022.2.5,Win32,60.06366749,611abe6af992f6d35f60c003,64aeaab685a29f4ca249be02,64beca28cfd90f6980a326d4,right,1,0.8214,0.35,17,0.001986698,0.1817,,,,,,127,0,127,0,1,,,,,
,,151116,001,2023-07-24_21h00.29.513,arm3_q,2022.2.5,Win32,60.06366749,611abe6af992f6d35f60c003,64aeaab685a29f4ca249be02,64beca28cfd90f6980a326d4,right,1,0.8214,0.35,17,0.034096223,0.2317,,,,,,128,0,128,0,1,,,,,
,,151116,001,2023-07-24_21h00.29.513,arm3_q,2022.2.5,Win32,60.06366749,611abe6af992f6d35f60c003,64aeaab685a29f4ca249be02,64beca28cfd90f6980a326d4,up,1,0.8214,0.35,18,0,0.6192,,,,,,129,0,129,0,1,,,,,
,,151116,001,2023-07-24_21h00.29.513,arm3_q,2022.2.5,Win32,60.06366749,611abe6af992f6d35f60c003,64aeaab685a29f4ca249be02,64beca28cfd90f6980a326d4,right,1,0.8214,0.35,18,0.03562735,0.9254,,,,,,130,0,130,0,1,,,,,
,,151116,001,2023-07-24_21h00.29.513,arm3_q,2022.2.5,Win32,60.06366749,611abe6af992f6d35f60c003,64aeaab685a29f4ca249be02,64beca28cfd90f6980a326d4,right,1,0.8214,0.35,18,0.009971934,0.1742,,,,,,131,0,131,0,1,,,,,
,,151116,001,2023-07-24_21h00.29.513,arm3_q,2022.2.5,Win32,60.06366749,611abe6af992f6d35f60c003,64aeaab685a29f4ca249be02,64beca28cfd90f6980a326d4,right,1,0.8214,0.35,18,0.030949789,0.1833,,,,,,132,0,132,0,1,,,,,
,,151116,001,2023-07-24_21h00.29.513,arm3_q,2022.2.5,Win32,60.06366749,611abe6af992f6d35f60c003,64aeaab685a29f4ca249be02,64beca28cfd90f6980a326d4,right,1,0.8214,0.35,18,0.021390489,0.4823,,,,,,133,0,133,0,1,,,,,
,,151116,001,2023-07-24_21h00.29.513,arm3_q,2022.2.5,Win32,60.06366749,611abe6af992f6d35f60c003,64aeaab685a29f4ca249be02,64beca28cfd90f6980a326d4,right,1,0.8214,0.35,18,-0.005221949,0.1862,,,,,,134,0,134,0,1,,,,,
,,151116,001,2023-07-24_21h00.29.513,arm3_q,2022.2.5,Win32,60.06366749,611abe6af992f6d35f60c003,64aeaab685a29f4ca249be02,64beca28cfd90f6980a326d4,right,1,0.8214,0.35,18,-0.002375618,0.1664,,,,,,135,0,135,0,1,,,,,
,,151116,001,2023-07-24_21h00.29.513,arm3_q,2022.2.5,Win32,60.06366749,611abe6af992f6d35f60c003,64aeaab685a29f4ca249be02,64beca28cfd90f6980a326d4,right,1,0.8214,0.35,18,0.013280356,0.3023,,,,,,136,0,136,0,1,,,,,
,,151116,001,2023-07-24_21h00.29.513,arm3_q,2022.2.5,Win32,60.06366749,611abe6af992f6d35f60c003,64aeaab685a29f4ca249be02,64beca28cfd90f6980a326d4,up,1,0.8214,0.35,19,0,0.3272,,,,,,137,0,137,0,1,,,,,
,,151116,001,2023-07-24_21h00.29.513,arm3_q,2022.2.5,Win32,60.06366749,611abe6af992f6d35f60c003,64aeaab685a29f4ca249be02,64beca28cfd90f6980a326d4,right,1,0.8214,0.35,19,0.009880032,0.9253,,,,,,138,0,138,0,1,,,,,
,,151116,001,2023-07-24_21h00.29.513,arm3_q,2022.2.5,Win32,60.06366749,611abe6af992f6d35f60c003,64aeaab685a29f4ca249be02,64beca28cfd90f6980a326d4,right,1,0.8214,0.35,19,0.014586641,0.1999,,,,,,139,0,139,0,1,,,,,
,,151116,001,2023-07-24_21h00.29.513,arm3_q,2022.2.5,Win32,60.06366749,611abe6af992f6d35f60c003,64aeaab685a29f4ca249be02,64beca28cfd90f6980a326d4,right,1,0.8214,0.35,19,0.004890358,0.1821,,,,,,140,0,140,0,1,,,,,
,,151116,001,2023-07-24_21h00.29.513,arm3_q,2022.2.5,Win32,60.06366749,611abe6af992f6d35f60c003,64aeaab685a29f4ca249be02,64beca28cfd90f6980a326d4,right,1,0.8214,0.35,19,-0.014082124,0.1912,,,,,,141,0,141,0,1,,,,,
,,151116,001,2023-07-24_21h00.29.513,arm3_q,2022.2.5,Win32,60.06366749,611abe6af992f6d35f60c003,64aeaab685a29f4ca249be02,64beca28cfd90f6980a326d4,right,1,0.8214,0.35,19,0.000897652,0.2167,,,,,,142,0,142,0,1,,,,,
,,151116,001,2023-07-24_21h00.29.513,arm3_q,2022.2.5,Win32,60.06366749,611abe6af992f6d35f60c003,64aeaab685a29f4ca249be02,64beca28cfd90f6980a326d4,right,1,0.8214,0.35,19,-0.004884542,0.2482,,,,,,143,0,143,0,1,,,,,
,,151116,001,2023-07-24_21h00.29.513,arm3_q,2022.2.5,Win32,60.06366749,611abe6af992f6d35f60c003,64aeaab685a29f4ca249be02,64beca28cfd90f6980a326d4,right,1,0.8214,0.35,19,-0.007227659,0.2356,,,,,,144,0,144,0,1,,,,,
,,151116,001,2023-07-24_21h00.29.513,arm3_q,2022.2.5,Win32,60.06366749,611abe6af992f6d35f60c003,64aeaab685a29f4ca249be02,64beca28cfd90f6980a326d4,right,1,0.8214,0.35,19,-0.011187049,0.5576,,,,,,145,0,145,0,1,,,,,
,,151116,001,2023-07-24_21h00.29.513,arm3_q,2022.2.5,Win32,60.06366749,611abe6af992f6d35f60c003,64aeaab685a29f4ca249be02,64beca28cfd90f6980a326d4,right,1,0.8214,0.35,19,0.007416389,0.417,,,,,,146,0,146,0,1,,,,,
,,151116,001,2023-07-24_21h00.29.513,arm3_q,2022.2.5,Win32,60.06366749,611abe6af992f6d35f60c003,64aeaab685a29f4ca249be02,64beca28cfd90f6980a326d4,up,1,0.8214,0.35,19,0,0.4674,,,,,,147,0,147,0,1,,,,,
,,151116,001,2023-07-24_21h00.29.513,arm3_q,2022.2.5,Win32,60.06366749,611abe6af992f6d35f60c003,64aeaab685a29f4ca249be02,64beca28cfd90f6980a326d4,right,1,0.8214,0.35,19,0.00324493,0.8835,,,,,,148,0,148,0,1,,,,,
,,151116,001,2023-07-24_21h00.29.513,arm3_q,2022.2.5,Win32,60.06366749,611abe6af992f6d35f60c003,64aeaab685a29f4ca249be02,64beca28cfd90f6980a326d4,right,1,0.8214,0.35,19,0.047558139,0.1982,,,,,,149,0,149,0,1,,,,,
,,151116,001,2023-07-24_21h00.29.513,arm3_q,2022.2.5,Win32,60.06366749,611abe6af992f6d35f60c003,64aeaab685a29f4ca249be02,64beca28cfd90f6980a326d4,up,-1,0.8214,0.35,20,0,0.4164,,,,,,150,0,150,0,1,,,,,
,,151116,001,2023-07-24_21h00.29.513,arm3_q,2022.2.5,Win32,60.06366749,611abe6af992f6d35f60c003,64aeaab685a29f4ca249be02,64beca28cfd90f6980a326d4,right,-1,0.8214,0.35,20,-0.012107407,1.1217,,,,,,151,0,151,0,1,,,,,
,,151116,001,2023-07-24_21h00.29.513,arm3_q,2022.2.5,Win32,60.06366749,611abe6af992f6d35f60c003,64aeaab685a29f4ca249be02,64beca28cfd90f6980a326d4,right,-1,0.8214,0.35,20,0.000905356,0.2161,,,,,,152,0,152,0,1,,,,,
,,151116,001,2023-07-24_21h00.29.513,arm3_q,2022.2.5,Win32,60.06366749,611abe6af992f6d35f60c003,64aeaab685a29f4ca249be02,64beca28cfd90f6980a326d4,right,-1,0.8214,0.35,20,0.002326622,0.3858,,,,,,153,0,153,0,1,,,,,
,,151116,001,2023-07-24_21h00.29.513,arm3_q,2022.2.5,Win32,60.06366749,611abe6af992f6d35f60c003,64aeaab685a29f4ca249be02,64beca28cfd90f6980a326d4,right,-1,0.8214,0.35,20,-0.050242217,0.2384,,,,,,154,0,154,0,1,,,,,
,,151116,001,2023-07-24_21h00.29.513,arm3_q,2022.2.5,Win32,60.06366749,611abe6af992f6d35f60c003,64aeaab685a29f4ca249be02,64beca28cfd90f6980a326d4,down,1,0.8214,0.35,21,0,0.3817,,,,,,155,0,155,0,1,,,,,
,,151116,001,2023-07-24_21h00.29.513,arm3_q,2022.2.5,Win32,60.06366749,611abe6af992f6d35f60c003,64aeaab685a29f4ca249be02,64beca28cfd90f6980a326d4,right,1,0.8214,0.35,21,0.03019929,0.9668,,,,,,156,0,156,0,1,,,,,
,,151116,001,2023-07-24_21h00.29.513,arm3_q,2022.2.5,Win32,60.06366749,611abe6af992f6d35f60c003,64aeaab685a29f4ca249be02,64beca28cfd90f6980a326d4,up,1,0.8214,0.35,22,0,0.4688,,,,,,157,0,157,0,1,,,,,
,,151116,001,2023-07-24_21h00.29.513,arm3_q,2022.2.5,Win32,60.06366749,611abe6af992f6d35f60c003,64aeaab685a29f4ca249be02,64beca28cfd90f6980a326d4,right,1,0.8214,0.35,22,0.007959528,0.7757,,,,,,158,0,158,0,1,,,,,
,,151116,001,2023-07-24_21h00.29.513,arm3_q,2022.2.5,Win32,60.06366749,611abe6af992f6d35f60c003,64aeaab685a29f4ca249be02,64beca28cfd90f6980a326d4,right,1,0.8214,0.35,22,0.013002624,0.3085,,,,,,159,0,159,0,1,,,,,
,,151116,001,2023-07-24_21h00.29.513,arm3_q,2022.2.5,Win32,60.06366749,611abe6af992f6d35f60c003,64aeaab685a29f4ca249be02,64beca28cfd90f6980a326d4,up,1,0.8214,0.35,23,0,0.7189,,,,,,160,0,160,0,1,,,,,
,,151116,001,2023-07-24_21h00.29.513,arm3_q,2022.2.5,Win32,60.06366749,611abe6af992f6d35f60c003,64aeaab685a29f4ca249be02,64beca28cfd90f6980a326d4,right,1,0.8214,0.35,23,0.009480686,0.6724,,,,,,161,0,161,0,1,,,,,
,,151116,001,2023-07-24_21h00.29.513,arm3_q,2022.2.5,Win32,60.06366749,611abe6af992f6d35f60c003,64aeaab685a29f4ca249be02,64beca28cfd90f6980a326d4,right,1,0.8214,0.35,23,-0.003462054,0.2563,,,,,,162,0,162,0,1,,,,,
,,151116,001,2023-07-24_21h00.29.513,arm3_q,2022.2.5,Win32,60.06366749,611abe6af992f6d35f60c003,64aeaab685a29f4ca249be02,64beca28cfd90f6980a326d4,right,1,0.8214,0.35,23,-0.023937675,0.222,,,,,,163,0,163,0,1,,,,,
,,151116,001,2023-07-24_21h00.29.513,arm3_q,2022.2.5,Win32,60.06366749,611abe6af992f6d35f60c003,64aeaab685a29f4ca249be02,64beca28cfd90f6980a326d4,right,1,0.8214,0.35,23,-0.006475265,0.325,,,,,,164,0,164,0,1,,,,,
,,151116,001,2023-07-24_21h00.29.513,arm3_q,2022.2.5,Win32,60.06366749,611abe6af992f6d35f60c003,64aeaab685a29f4ca249be02,64beca28cfd90f6980a326d4,right,1,0.8214,0.35,23,0.018600176,0.2388,,,,,,165,0,165,0,1,,,,,
,,151116,001,2023-07-24_21h00.29.513,arm3_q,2022.2.5,Win32,60.06366749,611abe6af992f6d35f60c003,64aeaab685a29f4ca249be02,64beca28cfd90f6980a326d4,right,1,0.8214,0.35,23,0.014957306,0.4073,,,,,,166,0,166,0,1,,,,,
,,151116,001,2023-07-24_21h00.29.513,arm3_q,2022.2.5,Win32,60.06366749,611abe6af992f6d35f60c003,64aeaab685a29f4ca249be02,64beca28cfd90f6980a326d4,right,1,0.8214,0.35,23,0.034409131,0.2327,,,,,,167,0,167,0,1,,,,,
,,151116,001,2023-07-24_21h00.29.513,arm3_q,2022.2.5,Win32,60.06366749,611abe6af992f6d35f60c003,64aeaab685a29f4ca249be02,64beca28cfd90f6980a326d4,up,1,0.8214,0.35,24,0,0.4584,,,,,,168,0,168,0,1,,,,,
,,151116,001,2023-07-24_21h00.29.513,arm3_q,2022.2.5,Win32,60.06366749,611abe6af992f6d35f60c003,64aeaab685a29f4ca249be02,64beca28cfd90f6980a326d4,right,1,0.8214,0.35,24,0.02429093,0.7646,,,,,,169,0,169,0,1,,,,,
,,151116,001,2023-07-24_21h00.29.513,arm3_q,2022.2.5,Win32,60.06366749,611abe6af992f6d35f60c003,64aeaab685a29f4ca249be02,64beca28cfd90f6980a326d4,right,1,0.8214,0.35,24,0.011587949,0.2163,,,,,,170,0,170,0,1,,,,,
,,151116,001,2023-07-24_21h00.29.513,arm3_q,2022.2.5,Win32,60.06366749,611abe6af992f6d35f60c003,64aeaab685a29f4ca249be02,64beca28cfd90f6980a326d4,up,1,0.8214,0.35,25,0,0.5665,,,,,,171,0,171,0,1,,,,,
,,151116,001,2023-07-24_21h00.29.513,arm3_q,2022.2.5,Win32,60.06366749,611abe6af992f6d35f60c003,64aeaab685a29f4ca249be02,64beca28cfd90f6980a326d4,right,1,0.8214,0.35,25,0.002773634,1.1149,,,,,,172,0,172,0,1,,,,,
,,151116,001,2023-07-24_21h00.29.513,arm3_q,2022.2.5,Win32,60.06366749,611abe6af992f6d35f60c003,64aeaab685a29f4ca249be02,64beca28cfd90f6980a326d4,right,1,0.8214,0.35,25,0.012621616,0.2493,,,,,,173,0,173,0,1,,,,,
,,151116,001,2023-07-24_21h00.29.513,arm3_q,2022.2.5,Win32,60.06366749,611abe6af992f6d35f60c003,64aeaab685a29f4ca249be02,64beca28cfd90f6980a326d4,right,1,0.8214,0.35,25,0.011504179,0.2919,,,,,,174,0,174,0,1,,,,,
,,151116,001,2023-07-24_21h00.29.513,arm3_q,2022.2.5,Win32,60.06366749,611abe6af992f6d35f60c003,64aeaab685a29f4ca249be02,64beca28cfd90f6980a326d4,right,1,0.8214,0.35,25,-0.004724615,0.2395,,,,,,175,0,175,0,1,,,,,
,,151116,001,2023-07-24_21h00.29.513,arm3_q,2022.2.5,Win32,60.06366749,611abe6af992f6d35f60c003,64aeaab685a29f4ca249be02,64beca28cfd90f6980a326d4,right,1,0.8214,0.35,25,0.030580984,0.3334,,,,,,176,0,176,0,1,,,,,
,,151116,001,2023-07-24_21h00.29.513,arm3_q,2022.2.5,Win32,60.06366749,611abe6af992f6d35f60c003,64aeaab685a29f4ca249be02,64beca28cfd90f6980a326d4,up,-1,0.8214,0.35,26,0,0.4565,,,,,,177,0,177,0,1,,,,,
,,151116,001,2023-07-24_21h00.29.513,arm3_q,2022.2.5,Win32,60.06366749,611abe6af992f6d35f60c003,64aeaab685a29f4ca249be02,64beca28cfd90f6980a326d4,right,-1,0.8214,0.35,26,0.01370862,0.6157,,,,,,178,0,178,0,1,,,,,
,,151116,001,2023-07-24_21h00.29.513,arm3_q,2022.2.5,Win32,60.06366749,611abe6af992f6d35f60c003,64aeaab685a29f4ca249be02,64beca28cfd90f6980a326d4,right,-1,0.8214,0.35,26,-0.020146713,0.2002,,,,,,179,0,179,0,1,,,,,
,,151116,001,2023-07-24_21h00.29.513,arm3_q,2022.2.5,Win32,60.06366749,611abe6af992f6d35f60c003,64aeaab685a29f4ca249be02,64beca28cfd90f6980a326d4,right,-1,0.8214,0.35,26,0.001522103,0.2332,,,,,,180,0,180,0,1,,,,,
,,151116,001,2023-07-24_21h00.29.513,arm3_q,2022.2.5,Win32,60.06366749,611abe6af992f6d35f60c003,64aeaab685a29f4ca249be02,64beca28cfd90f6980a326d4,right,-1,0.8214,0.35,26,-0.016618705,0.202,,,,,,181,0,181,0,1,,,,,
,,151116,001,2023-07-24_21h00.29.513,arm3_q,2022.2.5,Win32,60.06366749,611abe6af992f6d35f60c003,64aeaab685a29f4ca249be02,64beca28cfd90f6980a326d4,right,-1,0.8214,0.35,26,-0.016009634,0.1928,,,,,,182,0,182,0,1,,,,,
,,151116,001,2023-07-24_21h00.29.513,arm3_q,2022.2.5,Win32,60.06366749,611abe6af992f6d35f60c003,64aeaab685a29f4ca249be02,64beca28cfd90f6980a326d4,right,-1,0.8214,0.35,26,-0.005436316,0.2015,,,,,,183,0,183,0,1,,,,,
,,151116,001,2023-07-24_21h00.29.513,arm3_q,2022.2.5,Win32,60.06366749,611abe6af992f6d35f60c003,64aeaab685a29f4ca249be02,64beca28cfd90f6980a326d4,right,-1,0.8214,0.35,26,-0.002466001,0.6822,,,,,,184,0,184,0,1,,,,,
,,151116,001,2023-07-24_21h00.29.513,arm3_q,2022.2.5,Win32,60.06366749,611abe6af992f6d35f60c003,64aeaab685a29f4ca249be02,64beca28cfd90f6980a326d4,right,-1,0.8214,0.35,26,-0.008929548,0.4481,,,,,,185,0,185,0,1,,,,,
,,151116,001,2023-07-24_21h00.29.513,arm3_q,2022.2.5,Win32,60.06366749,611abe6af992f6d35f60c003,64aeaab685a29f4ca249be02,64beca28cfd90f6980a326d4,down,-1,0.8214,0.35,27,0,0.4666,,,,,,186,0,186,0,1,,,,,
,,151116,001,2023-07-24_21h00.29.513,arm3_q,2022.2.5,Win32,60.06366749,611abe6af992f6d35f60c003,64aeaab685a29f4ca249be02,64beca28cfd90f6980a326d4,right,-1,0.8214,0.35,27,-0.006534056,0.5964,,,,,,187,0,187,0,1,,,,,
,,151116,001,2023-07-24_21h00.29.513,arm3_q,2022.2.5,Win32,60.06366749,611abe6af992f6d35f60c003,64aeaab685a29f4ca249be02,64beca28cfd90f6980a326d4,right,-1,0.8214,0.35,27,-0.032609035,0.1752,,,,,,188,0,188,0,1,,,,,
,,151116,001,2023-07-24_21h00.29.513,arm3_q,2022.2.5,Win32,60.06366749,611abe6af992f6d35f60c003,64aeaab685a29f4ca249be02,64beca28cfd90f6980a326d4,down,-1,0.8214,0.35,27,0,0.6482,,,,,,189,0,189,0,1,,,,,
,,151116,001,2023-07-24_21h00.29.513,arm3_q,2022.2.5,Win32,60.06366749,611abe6af992f6d35f60c003,64aeaab685a29f4ca249be02,64beca28cfd90f6980a326d4,right,-1,0.8214,0.35,27,0.024267506,0.6817,,,,,,190,0,190,0,1,,,,,
,,151116,001,2023-07-24_21h00.29.513,arm3_q,2022.2.5,Win32,60.06366749,611abe6af992f6d35f60c003,64aeaab685a29f4ca249be02,64beca28cfd90f6980a326d4,right,-1,0.8214,0.35,27,0.015374294,0.1663,,,,,,191,0,191,0,1,,,,,
,,151116,001,2023-07-24_21h00.29.513,arm3_q,2022.2.5,Win32,60.06366749,611abe6af992f6d35f60c003,64aeaab685a29f4ca249be02,64beca28cfd90f6980a326d4,right,-1,0.8214,0.35,27,-0.007352337,0.227,,,,,,192,0,192,0,1,,,,,
,,151116,001,2023-07-24_21h00.29.513,arm3_q,2022.2.5,Win32,60.06366749,611abe6af992f6d35f60c003,64aeaab685a29f4ca249be02,64beca28cfd90f6980a326d4,right,-1,0.8214,0.35,27,-0.009782878,0.2098,,,,,,193,0,193,0,1,,,,,
,,151116,001,2023-07-24_21h00.29.513,arm3_q,2022.2.5,Win32,60.06366749,611abe6af992f6d35f60c003,64aeaab685a29f4ca249be02,64beca28cfd90f6980a326d4,right,-1,0.8214,0.35,27,-0.046806363,0.1821,,,,,,194,0,194,0,1,,,,,
,,151116,001,2023-07-24_21h00.29.513,arm3_q,2022.2.5,Win32,60.06366749,611abe6af992f6d35f60c003,64aeaab685a29f4ca249be02,64beca28cfd90f6980a326d4,right,-1,0.8214,0.35,27,-0.039388966,0.1699,,,,,,195,0,195,0,1,,,,,
,,151116,001,2023-07-24_21h00.29.513,arm3_q,2022.2.5,Win32,60.06366749,611abe6af992f6d35f60c003,64aeaab685a29f4ca249be02,64beca28cfd90f6980a326d4,down,-1,0.8214,0.35,28,0,0.4877,,,,,,196,0,196,0,1,,,,,
,,151116,001,2023-07-24_21h00.29.513,arm3_q,2022.2.5,Win32,60.06366749,611abe6af992f6d35f60c003,64aeaab685a29f4ca249be02,64beca28cfd90f6980a326d4,right,-1,0.8214,0.35,28,0.006964219,0.548,,,,,,197,0,197,0,1,,,,,
,,151116,001,2023-07-24_21h00.29.513,arm3_q,2022.2.5,Win32,60.06366749,611abe6af992f6d35f60c003,64aeaab685a29f4ca249be02,64beca28cfd90f6980a326d4,right,-1,0.8214,0.35,28,0.009979746,0.1825,,,,,,198,0,198,0,1,,,,,
,,151116,001,2023-07-24_21h00.29.513,arm3_q,2022.2.5,Win32,60.06366749,611abe6af992f6d35f60c003,64aeaab685a29f4ca249be02,64beca28cfd90f6980a326d4,right,-1,0.8214,0.35,28,0.006339521,0.2165,,,,,,199,0,199,0,1,,,,,
,,151116,001,2023-07-24_21h00.29.513,arm3_q,2022.2.5,Win32,60.06366749,611abe6af992f6d35f60c003,64aeaab685a29f4ca249be02,64beca28cfd90f6980a326d4,right,-1,0.8214,0.35,28,-3.64965E-05,0.1876,,,,,,200,0,200,0,1,,,,,
,,151116,001,2023-07-24_21h00.29.513,arm3_q,2022.2.5,Win32,60.06366749,611abe6af992f6d35f60c003,64aeaab685a29f4ca249be02,64beca28cfd90f6980a326d4,right,-1,0.8214,0.35,28,-0.020989171,0.1922,,,,,,201,0,201,0,1,,,,,
,,151116,001,2023-07-24_21h00.29.513,arm3_q,2022.2.5,Win32,60.06366749,611abe6af992f6d35f60c003,64aeaab685a29f4ca249be02,64beca28cfd90f6980a326d4,down,-1,0.8214,0.35,29,0,0.5883,,,,,,202,0,202,0,1,,,,,
,,151116,001,2023-07-24_21h00.29.513,arm3_q,2022.2.5,Win32,60.06366749,611abe6af992f6d35f60c003,64aeaab685a29f4ca249be02,64beca28cfd90f6980a326d4,right,-1,0.8214,0.35,29,-0.009821313,0.5828,,,,,,203,0,203,0,1,,,,,
,,151116,001,2023-07-24_21h00.29.513,arm3_q,2022.2.5,Win32,60.06366749,611abe6af992f6d35f60c003,64aeaab685a29f4ca249be02,64beca28cfd90f6980a326d4,right,-1,0.8214,0.35,29,0.003613044,0.1772,,,,,,204,0,204,0,1,,,,,
,,151116,001,2023-07-24_21h00.29.513,arm3_q,2022.2.5,Win32,60.06366749,611abe6af992f6d35f60c003,64aeaab685a29f4ca249be02,64beca28cfd90f6980a326d4,right,-1,0.8214,0.35,29,-0.044032442,0.2306,,,,,,205,0,205,0,1,,,,,
,,151116,001,2023-07-24_21h00.29.513,arm3_q,2022.2.5,Win32,60.06366749,611abe6af992f6d35f60c003,64aeaab685a29f4ca249be02,64beca28cfd90f6980a326d4,down,-1,0.8214,0.35,30,0,0.3884,,,,,,206,0,206,0,1,,,,,
,,151116,001,2023-07-24_21h00.29.513,arm3_q,2022.2.5,Win32,60.06366749,611abe6af992f6d35f60c003,64aeaab685a29f4ca249be02,64beca28cfd90f6980a326d4,right,-1,0.8214,0.35,30,-0.029174605,0.3198,,,,,,207,0,207,0,1,,,,,
,,151116,001,2023-07-24_21h00.29.513,arm3_q,2022.2.5,Win32,60.06366749,611abe6af992f6d35f60c003,64aeaab685a29f4ca249be02,64beca28cfd90f6980a326d4,right,-1,0.8214,0.35,30,-0.019719349,0.1856,,,,,,208,0,208,0,1,,,,,
,,151116,001,2023-07-24_21h00.29.513,arm3_q,2022.2.5,Win32,60.06366749,611abe6af992f6d35f60c003,64aeaab685a29f4ca249be02,64beca28cfd90f6980a326d4,right,-1,0.8214,0.35,30,-0.026249065,0.1874,,,,,,209,0,209,0,1,,,,,
,,151116,001,2023-07-24_21h00.29.513,arm3_q,2022.2.5,Win32,60.06366749,611abe6af992f6d35f60c003,64aeaab685a29f4ca249be02,64beca28cfd90f6980a326d4,right,-1,0.8214,0.35,30,-0.05184952,0.1661,,,,,,210,0,210,0,1,,,,,
,,151116,001,2023-07-24_21h00.29.513,arm3_q,2022.2.5,Win32,60.06366749,611abe6af992f6d35f60c003,64aeaab685a29f4ca249be02,64beca28cfd90f6980a326d4,down,-1,0.8214,0.35,30,0,0.3174,,,,,,211,0,211,0,1,,,,,
,,151116,001,2023-07-24_21h00.29.513,arm3_q,2022.2.5,Win32,60.06366749,611abe6af992f6d35f60c003,64aeaab685a29f4ca249be02,64beca28cfd90f6980a326d4,right,-1,0.8214,0.35,30,0.000242659,0.5684,,,,,,212,0,212,0,1,,,,,
,,151116,001,2023-07-24_21h00.29.513,arm3_q,2022.2.5,Win32,60.06366749,611abe6af992f6d35f60c003,64aeaab685a29f4ca249be02,64beca28cfd90f6980a326d4,right,-1,0.8214,0.35,30,-0.013062891,0.2111,,,,,,213,0,213,0,1,,,,,
,,151116,001,2023-07-24_21h00.29.513,arm3_q,2022.2.5,Win32,60.06366749,611abe6af992f6d35f60c003,64aeaab685a29f4ca249be02,64beca28cfd90f6980a326d4,right,-1,0.8214,0.35,30,-0.026595466,0.1658,,,,,,214,0,214,0,1,,,,,
,,151116,001,2023-07-24_21h00.29.513,arm3_q,2022.2.5,Win32,60.06366749,611abe6af992f6d35f60c003,64aeaab685a29f4ca249be02,64beca28cfd90f6980a326d4,right,-1,0.8214,0.35,30,-0.021310039,0.1854,,,,,,215,0,215,0,1,,,,,
,,151116,001,2023-07-24_21h00.29.513,arm3_q,2022.2.5,Win32,60.06366749,611abe6af992f6d35f60c003,64aeaab685a29f4ca249be02,64beca28cfd90f6980a326d4,right,-1,0.8214,0.35,30,-0.027263795,0.3149,,,,,,216,0,216,0,1,,,,,
,,151116,001,2023-07-24_21h00.29.513,arm3_q,2022.2.5,Win32,60.06366749,611abe6af992f6d35f60c003,64aeaab685a29f4ca249be02,64beca28cfd90f6980a326d4,right,-1,0.8214,0.35,30,0.0052622,0.6715,,,,,,217,0,217,0,1,,,,,
,,151116,001,2023-07-24_21h00.29.513,arm3_q,2022.2.5,Win32,60.06366749,611abe6af992f6d35f60c003,64aeaab685a29f4ca249be02,64beca28cfd90f6980a326d4,right,-1,0.8214,0.35,30,-0.015269541,0.2494,,,,,,218,0,218,0,1,,,,,
,,151116,001,2023-07-24_21h00.29.513,arm3_q,2022.2.5,Win32,60.06366749,611abe6af992f6d35f60c003,64aeaab685a29f4ca249be02,64beca28cfd90f6980a326d4,down,-1,0.8214,0.35,30,0,0.6351,,,,,,219,0,219,0,1,,,,,
,,151116,001,2023-07-24_21h00.29.513,arm3_q,2022.2.5,Win32,60.06366749,611abe6af992f6d35f60c003,64aeaab685a29f4ca249be02,64beca28cfd90f6980a326d4,right,-1,0.8214,0.35,30,-0.035269866,0.7511,,,,,,220,0,220,0,1,,,,,
,,151116,001,2023-07-24_21h00.29.513,arm3_q,2022.2.5,Win32,60.06366749,611abe6af992f6d35f60c003,64aeaab685a29f4ca249be02,64beca28cfd90f6980a326d4,right,-1,0.8214,0.35,30,-0.038970479,0.1835,,,,,,221,0,221,0,1,,,,,
,,151116,001,2023-07-24_21h00.29.513,arm3_q,2022.2.5,Win32,60.06366749,611abe6af992f6d35f60c003,64aeaab685a29f4ca249be02,64beca28cfd90f6980a326d4,right,-1,0.8214,0.35,30,-0.054564337,0.2719,,,,,,222,0,222,0,1,,,,,
,,151116,001,2023-07-24_21h00.29.513,arm3_q,2022.2.5,Win32,60.06366749,611abe6af992f6d35f60c003,64aeaab685a29f4ca249be02,64beca28cfd90f6980a326d4,down,1,0.8214,0.35,31,0,0.2386,,,,,,223,0,223,0,1,,,,,
,,151116,001,2023-07-24_21h00.29.513,arm3_q,2022.2.5,Win32,60.06366749,611abe6af992f6d35f60c003,64aeaab685a29f4ca249be02,64beca28cfd90f6980a326d4,right,1,0.8214,0.35,31,-0.00869027,0.5202,,,,,,224,0,224,0,1,,,,,
,,151116,001,2023-07-24_21h00.29.513,arm3_q,2022.2.5,Win32,60.06366749,611abe6af992f6d35f60c003,64aeaab685a29f4ca249be02,64beca28cfd90f6980a326d4,right,1,0.8214,0.35,31,0.005670385,0.167,,,,,,225,0,225,0,1,,,,,
,,151116,001,2023-07-24_21h00.29.513,arm3_q,2022.2.5,Win32,60.06366749,611abe6af992f6d35f60c003,64aeaab685a29f4ca249be02,64beca28cfd90f6980a326d4,right,1,0.8214,0.35,31,0.00286698,0.1856,,,,,,226,0,226,0,1,,,,,
,,151116,001,2023-07-24_21h00.29.513,arm3_q,2022.2.5,Win32,60.06366749,611abe6af992f6d35f60c003,64aeaab685a29f4ca249be02,64beca28cfd90f6980a326d4,right,1,0.8214,0.35,31,0.021482613,0.1659,,,,,,227,0,227,0,1,,,,,
,,151116,001,2023-07-24_21h00.29.513,arm3_q,2022.2.5,Win32,60.06366749,611abe6af992f6d35f60c003,64aeaab685a29f4ca249be02,64beca28cfd90f6980a326d4,right,1,0.8214,0.35,31,-0.005885175,0.1888,,,,,,228,0,228,0,1,,,,,
,,151116,001,2023-07-24_21h00.29.513,arm3_q,2022.2.5,Win32,60.06366749,611abe6af992f6d35f60c003,64aeaab685a29f4ca249be02,64beca28cfd90f6980a326d4,right,1,0.8214,0.35,31,-0.012861045,0.2044,,,,,,229,0,229,0,1,,,,,
,,151116,001,2023-07-24_21h00.29.513,arm3_q,2022.2.5,Win32,60.06366749,611abe6af992f6d35f60c003,64aeaab685a29f4ca249be02,64beca28cfd90f6980a326d4,right,1,0.8214,0.35,31,-0.004566314,0.2095,,,,,,230,0,230,0,1,,,,,
,,151116,001,2023-07-24_21h00.29.513,arm3_q,2022.2.5,Win32,60.06366749,611abe6af992f6d35f60c003,64aeaab685a29f4ca249be02,64beca28cfd90f6980a326d4,right,1,0.8214,0.35,31,-0.002226872,0.2525,,,,,,231,0,231,0,1,,,,,
,,151116,001,2023-07-24_21h00.29.513,arm3_q,2022.2.5,Win32,60.06366749,611abe6af992f6d35f60c003,64aeaab685a29f4ca249be02,64beca28cfd90f6980a326d4,down,1,0.8214,0.35,31,0,0.6933,,,,,,232,0,232,0,1,,,,,
,,151116,001,2023-07-24_21h00.29.513,arm3_q,2022.2.5,Win32,60.06366749,611abe6af992f6d35f60c003,64aeaab685a29f4ca249be02,64beca28cfd90f6980a326d4,right,1,0.8214,0.35,31,0.021151419,0.6059,,,,,,233,0,233,0,1,,,,,
,,151116,001,2023-07-24_21h00.29.513,arm3_q,2022.2.5,Win32,60.06366749,611abe6af992f6d35f60c003,64aeaab685a29f4ca249be02,64beca28cfd90f6980a326d4,right,1,0.8214,0.35,31,0.020414701,0.2074,,,,,,234,0,234,0,1,,,,,
,,151116,001,2023-07-24_21h00.29.513,arm3_q,2022.2.5,Win32,60.06366749,611abe6af992f6d35f60c003,64aeaab685a29f4ca249be02,64beca28cfd90f6980a326d4,right,1,0.8214,0.35,31,0.025821579,0.2274,,,,,,235,0,235,0,1,,,,,
,,151116,001,2023-07-24_21h00.29.513,arm3_q,2022.2.5,Win32,60.06366749,611abe6af992f6d35f60c003,64aeaab685a29f4ca249be02,64beca28cfd90f6980a326d4,up,-1,0.8214,0.35,31,0,0.6251,,,,,,236,0,236,0,1,,,,,
,,151116,001,2023-07-24_21h00.29.513,arm3_q,2022.2.5,Win32,60.06366749,611abe6af992f6d35f60c003,64aeaab685a29f4ca249be02,64beca28cfd90f6980a326d4,right,-1,0.8214,0.35,31,-0.014088691,0.5184,,,,,,237,0,237,0,1,,,,,
,,151116,001,2023-07-24_21h00.29.513,arm3_q,2022.2.5,Win32,60.06366749,611abe6af992f6d35f60c003,64aeaab685a29f4ca249be02,64beca28cfd90f6980a326d4,right,-1,0.8214,0.35,31,-0.057854173,0.1905,,,,,,238,0,238,0,1,,,,,
,,151116,001,2023-07-24_21h00.29.513,arm3_q,2022.2.5,Win32,60.06366749,611abe6af992f6d35f60c003,64aeaab685a29f4ca249be02,64beca28cfd90f6980a326d4,right,-1,0.8214,0.35,31,-0.060178249,0.183,,,,,,239,0,239,0,1,,,,,
,,151116,001,2023-07-24_21h00.29.513,arm3_q,2022.2.5,Win32,60.06366749,611abe6af992f6d35f60c003,64aeaab685a29f4ca249be02,64beca28cfd90f6980a326d4,down,1,0.8214,0.35,32,0,0.3509,,,,,,240,0,240,0,1,,,,,
,,151116,001,2023-07-24_21h00.29.513,arm3_q,2022.2.5,Win32,60.06366749,611abe6af992f6d35f60c003,64aeaab685a29f4ca249be02,64beca28cfd90f6980a326d4,right,1,0.8214,0.35,32,-0.023956247,0.4708,,,,,,241,0,241,0,1,,,,,
,,151116,001,2023-07-24_21h00.29.513,arm3_q,2022.2.5,Win32,60.06366749,611abe6af992f6d35f60c003,64aeaab685a29f4ca249be02,64beca28cfd90f6980a326d4,right,1,0.8214,0.35,32,-0.000429105,0.2037,,,,,,242,0,242,0,1,,,,,
,,151116,001,2023-07-24_21h00.29.513,arm3_q,2022.2.5,Win32,60.06366749,611abe6af992f6d35f60c003,64aeaab685a29f4ca249be02,64beca28cfd90f6980a326d4,right,1,0.8214,0.35,32,0.01434535,0.3666,,,,,,243,0,243,0,1,,,,,
,,151116,001,2023-07-24_21h00.29.513,arm3_q,2022.2.5,Win32,60.06366749,611abe6af992f6d35f60c003,64aeaab685a29f4ca249be02,64beca28cfd90f6980a326d4,right,1,0.8214,0.35,32,0.054670624,0.1872,,,,,,244,0,244,0,1,,,,,
,,151116,001,2023-07-24_21h00.29.513,arm3_q,2022.2.5,Win32,60.06366749,611abe6af992f6d35f60c003,64aeaab685a29f4ca249be02,64beca28cfd90f6980a326d4,up,-1,0.8214,0.35,32,0,0.2752,,,,,,245,0,245,0,1,,,,,
,,151116,001,2023-07-24_21h00.29.513,arm3_q,2022.2.5,Win32,60.06366749,611abe6af992f6d35f60c003,64aeaab685a29f4ca249be02,64beca28cfd90f6980a326d4,right,-1,0.8214,0.35,32,-0.017700728,0.5544,,,,,,246,0,246,0,1,,,,,
,,151116,001,2023-07-24_21h00.29.513,arm3_q,2022.2.5,Win32,60.06366749,611abe6af992f6d35f60c003,64aeaab685a29f4ca249be02,64beca28cfd90f6980a326d4,right,-1,0.8214,0.35,32,-0.024854552,0.2193,,,,,,247,0,247,0,1,,,,,
,,151116,001,2023-07-24_21h00.29.513,arm3_q,2022.2.5,Win32,60.06366749,611abe6af992f6d35f60c003,64aeaab685a29f4ca249be02,64beca28cfd90f6980a326d4,right,-1,0.8214,0.35,32,-0.060115284,0.135,,,,,,248,0,248,0,1,,,,,
,,151116,001,2023-07-24_21h00.29.513,arm3_q,2022.2.5,Win32,60.06366749,611abe6af992f6d35f60c003,64aeaab685a29f4ca249be02,64beca28cfd90f6980a326d4,down,1,0.8214,0.35,33,0,0.3664,,,,,,249,0,249,0,1,,,,,
,,151116,001,2023-07-24_21h00.29.513,arm3_q,2022.2.5,Win32,60.06366749,611abe6af992f6d35f60c003,64aeaab685a29f4ca249be02,64beca28cfd90f6980a326d4,right,1,0.8214,0.35,33,0.017381804,0.6142,,,,,,250,0,250,0,1,,,,,
,,151116,001,2023-07-24_21h00.29.513,arm3_q,2022.2.5,Win32,60.06366749,611abe6af992f6d35f60c003,64aeaab685a29f4ca249be02,64beca28cfd90f6980a326d4,right,1,0.8214,0.35,33,0.02981935,0.1695,,,,,,251,0,251,0,1,,,,,
,,151116,001,2023-07-24_21h00.29.513,arm3_q,2022.2.5,Win32,60.06366749,611abe6af992f6d35f60c003,64aeaab685a29f4ca249be02,64beca28cfd90f6980a326d4,right,1,0.8214,0.35,33,0.049046698,0.1757,,,,,,252,0,252,0,1,,,,,
,,151116,001,2023-07-24_21h00.29.513,arm3_q,2022.2.5,Win32,60.06366749,611abe6af992f6d35f60c003,64aeaab685a29f4ca249be02,64beca28cfd90f6980a326d4,up,1,0.8214,0.35,34,0,0.2772,,,,,,253,0,253,0,1,,,,,
,,151116,001,2023-07-24_21h00.29.513,arm3_q,2022.2.5,Win32,60.06366749,611abe6af992f6d35f60c003,64aeaab685a29f4ca249be02,64beca28cfd90f6980a326d4,right,1,0.8214,0.35,34,0.024724368,0.8503,,,,,,254,0,254,0,1,,,,,
,,151116,001,2023-07-24_21h00.29.513,arm3_q,2022.2.5,Win32,60.06366749,611abe6af992f6d35f60c003,64aeaab685a29f4ca249be02,64beca28cfd90f6980a326d4,right,1,0.8214,0.35,34,0.063672342,0.1818,,,,,,255,0,255,0,1,,,,,
,,151116,001,2023-07-24_21h00.29.513,arm3_q,2022.2.5,Win32,60.06366749,611abe6af992f6d35f60c003,64aeaab685a29f4ca249be02,64beca28cfd90f6980a326d4,right,1,0.8214,0.35,34,0.048429591,0.1991,,,,,,256,0,256,0,1,,,,,
,,151116,001,2023-07-24_21h00.29.513,arm3_q,2022.2.5,Win32,60.06366749,611abe6af992f6d35f60c003,64aeaab685a29f4ca249be02,64beca28cfd90f6980a326d4,up,1,0.8214,0.35,35,0,0.583,,,,,,257,0,257,0,1,,,,,
,,151116,001,2023-07-24_21h00.29.513,arm3_q,2022.2.5,Win32,60.06366749,611abe6af992f6d35f60c003,64aeaab685a29f4ca249be02,64beca28cfd90f6980a326d4,right,1,0.8214,0.35,35,-0.007306528,0.6161,,,,,,258,0,258,0,1,,,,,
,,151116,001,2023-07-24_21h00.29.513,arm3_q,2022.2.5,Win32,60.06366749,611abe6af992f6d35f60c003,64aeaab685a29f4ca249be02,64beca28cfd90f6980a326d4,right,1,0.8214,0.35,35,0.009006139,0.2096,,,,,,259,0,259,0,1,,,,,
,,151116,001,2023-07-24_21h00.29.513,arm3_q,2022.2.5,Win32,60.06366749,611abe6af992f6d35f60c003,64aeaab685a29f4ca249be02,64beca28cfd90f6980a326d4,right,1,0.8214,0.35,35,0.029709247,0.1688,,,,,,260,0,260,0,1,,,,,
,,151116,001,2023-07-24_21h00.29.513,arm3_q,2022.2.5,Win32,60.06366749,611abe6af992f6d35f60c003,64aeaab685a29f4ca249be02,64beca28cfd90f6980a326d4,right,1,0.8214,0.35,35,0.01469471,0.182,,,,,,261,0,261,0,1,,,,,
,,151116,001,2023-07-24_21h00.29.513,arm3_q,2022.2.5,Win32,60.06366749,611abe6af992f6d35f60c003,64aeaab685a29f4ca249be02,64beca28cfd90f6980a326d4,right,1,0.8214,0.35,35,0.003050103,0.1412,,,,,,262,0,262,0,1,,,,,
,,151116,001,2023-07-24_21h00.29.513,arm3_q,2022.2.5,Win32,60.06366749,611abe6af992f6d35f60c003,64aeaab685a29f4ca249be02,64beca28cfd90f6980a326d4,up,1,0.8214,0.35,35,0,0.4328,,,,,,263,0,263,0,1,,,,,
,,151116,001,2023-07-24_21h00.29.513,arm3_q,2022.2.5,Win32,60.06366749,611abe6af992f6d35f60c003,64aeaab685a29f4ca249be02,64beca28cfd90f6980a326d4,right,1,0.8214,0.35,35,0.005911889,0.6295,,,,,,264,0,264,0,1,,,,,
,,151116,001,2023-07-24_21h00.29.513,arm3_q,2022.2.5,Win32,60.06366749,611abe6af992f6d35f60c003,64aeaab685a29f4ca249be02,64beca28cfd90f6980a326d4,right,1,0.8214,0.35,35,0.028729183,0.1815,,,,,,265,0,265,0,1,,,,,
,,151116,001,2023-07-24_21h00.29.513,arm3_q,2022.2.5,Win32,60.06366749,611abe6af992f6d35f60c003,64aeaab685a29f4ca249be02,64beca28cfd90f6980a326d4,right,1,0.8214,0.35,35,0.043347006,0.149,,,,,,266,0,266,0,1,,,,,
,,151116,001,2023-07-24_21h00.29.513,arm3_q,2022.2.5,Win32,60.06366749,611abe6af992f6d35f60c003,64aeaab685a29f4ca249be02,64beca28cfd90f6980a326d4,up,-1,0.8214,0.35,36,0,0.2396,,,,,,267,0,267,0,1,,,,,
,,151116,001,2023-07-24_21h00.29.513,arm3_q,2022.2.5,Win32,60.06366749,611abe6af992f6d35f60c003,64aeaab685a29f4ca249be02,64beca28cfd90f6980a326d4,right,-1,0.8214,0.35,36,-0.009184806,0.6256,,,,,,268,0,268,0,1,,,,,
,,151116,001,2023-07-24_21h00.29.513,arm3_q,2022.2.5,Win32,60.06366749,611abe6af992f6d35f60c003,64aeaab685a29f4ca249be02,64beca28cfd90f6980a326d4,right,-1,0.8214,0.35,36,-0.015019164,0.1999,,,,,,269,0,269,0,1,,,,,
,,151116,001,2023-07-24_21h00.29.513,arm3_q,2022.2.5,Win32,60.06366749,611abe6af992f6d35f60c003,64aeaab685a29f4ca249be02,64beca28cfd90f6980a326d4,right,-1,0.8214,0.35,36,-0.049607511,0.1642,,,,,,270,0,270,0,1,,,,,
,,151116,001,2023-07-24_21h00.29.513,arm3_q,2022.2.5,Win32,60.06366749,611abe6af992f6d35f60c003,64aeaab685a29f4ca249be02,64beca28cfd90f6980a326d4,right,-1,0.8214,0.35,36,-0.043708301,0.1942,,,,,,271,0,271,0,1,,,,,
,,151116,001,2023-07-24_21h00.29.513,arm3_q,2022.2.5,Win32,60.06366749,611abe6af992f6d35f60c003,64aeaab685a29f4ca249be02,64beca28cfd90f6980a326d4,down,-1,0.8214,0.35,37,0,0.3717,,,,,,272,0,272,0,1,,,,,
,,151116,001,2023-07-24_21h00.29.513,arm3_q,2022.2.5,Win32,60.06366749,611abe6af992f6d35f60c003,64aeaab685a29f4ca249be02,64beca28cfd90f6980a326d4,right,-1,0.8214,0.35,37,0.039745067,0.6323,,,,,,273,0,273,0,1,,,,,
,,151116,001,2023-07-24_21h00.29.513,arm3_q,2022.2.5,Win32,60.06366749,611abe6af992f6d35f60c003,64aeaab685a29f4ca249be02,64beca28cfd90f6980a326d4,right,-1,0.8214,0.35,37,0.042747304,0.1696,,,,,,274,0,274,0,1,,,,,
,,151116,001,2023-07-24_21h00.29.513,arm3_q,2022.2.5,Win32,60.06366749,611abe6af992f6d35f60c003,64aeaab685a29f4ca249be02,64beca28cfd90f6980a326d4,right,-1,0.8214,0.35,37,0.025344343,0.1723,,,,,,275,0,275,0,1,,,,,
,,151116,001,2023-07-24_21h00.29.513,arm3_q,2022.2.5,Win32,60.06366749,611abe6af992f6d35f60c003,64aeaab685a29f4ca249be02,64beca28cfd90f6980a326d4,right,-1,0.8214,0.35,37,0.042835351,0.1547,,,,,,276,0,276,0,1,,,,,
,,151116,001,2023-07-24_21h00.29.513,arm3_q,2022.2.5,Win32,60.06366749,611abe6af992f6d35f60c003,64aeaab685a29f4ca249be02,64beca28cfd90f6980a326d4,up,1,0.8214,0.35,37,0,0.3354,,,,,,277,0,277,0,1,,,,,
,,151116,001,2023-07-24_21h00.29.513,arm3_q,2022.2.5,Win32,60.06366749,611abe6af992f6d35f60c003,64aeaab685a29f4ca249be02,64beca28cfd90f6980a326d4,right,1,0.8214,0.35,37,0.000291664,0.6738,,,,,,278,0,278,0,1,,,,,
,,151116,001,2023-07-24_21h00.29.513,arm3_q,2022.2.5,Win32,60.06366749,611abe6af992f6d35f60c003,64aeaab685a29f4ca249be02,64beca28cfd90f6980a326d4,right,1,0.8214,0.35,37,0.027296752,0.1997,,,,,,279,0,279,0,1,,,,,
,,151116,001,2023-07-24_21h00.29.513,arm3_q,2022.2.5,Win32,60.06366749,611abe6af992f6d35f60c003,64aeaab685a29f4ca249be02,64beca28cfd90f6980a326d4,right,1,0.8214,0.35,37,0.018911387,0.1671,,,,,,280,0,280,0,1,,,,,
,,151116,001,2023-07-24_21h00.29.513,arm3_q,2022.2.5,Win32,60.06366749,611abe6af992f6d35f60c003,64aeaab685a29f4ca249be02,64beca28cfd90f6980a326d4,right,1,0.8214,0.35,37,0.022023632,0.1559,,,,,,281,0,281,0,1,,,,,
,,151116,001,2023-07-24_21h00.29.513,arm3_q,2022.2.5,Win32,60.06366749,611abe6af992f6d35f60c003,64aeaab685a29f4ca249be02,64beca28cfd90f6980a326d4,right,1,0.8214,0.35,37,0.020445078,0.1538,,,,,,282,0,282,0,1,,,,,
,,151116,001,2023-07-24_21h00.29.513,arm3_q,2022.2.5,Win32,60.06366749,611abe6af992f6d35f60c003,64aeaab685a29f4ca249be02,64beca28cfd90f6980a326d4,up,1,0.8214,0.35,38,0,0.3662,,,,,,283,0,283,0,1,,,,,
,,151116,001,2023-07-24_21h00.29.513,arm3_q,2022.2.5,Win32,60.06366749,611abe6af992f6d35f60c003,64aeaab685a29f4ca249be02,64beca28cfd90f6980a326d4,right,1,0.8214,0.35,38,0.014328002,0.5976,,,,,,284,0,284,0,1,,,,,
,,151116,001,2023-07-24_21h00.29.513,arm3_q,2022.2.5,Win32,60.06366749,611abe6af992f6d35f60c003,64aeaab685a29f4ca249be02,64beca28cfd90f6980a326d4,right,1,0.8214,0.35,38,0.033171688,0.1811,,,,,,285,0,285,0,1,,,,,
,,151116,001,2023-07-24_21h00.29.513,arm3_q,2022.2.5,Win32,60.06366749,611abe6af992f6d35f60c003,64aeaab685a29f4ca249be02,64beca28cfd90f6980a326d4,right,1,0.8214,0.35,38,0.035189628,0.1693,,,,,,286,0,286,0,1,,,,,
,,151116,001,2023-07-24_21h00.29.513,arm3_q,2022.2.5,Win32,60.06366749,611abe6af992f6d35f60c003,64aeaab685a29f4ca249be02,64beca28cfd90f6980a326d4,right,1,0.8214,0.35,38,0.065950127,0.165,,,,,,287,0,287,0,1,,,,,
,,151116,001,2023-07-24_21h00.29.513,arm3_q,2022.2.5,Win32,60.06366749,611abe6af992f6d35f60c003,64aeaab685a29f4ca249be02,64beca28cfd90f6980a326d4,up,1,0.8214,0.35,39,0,0.2553,,,,,,288,0,288,0,1,,,,,
,,151116,001,2023-07-24_21h00.29.513,arm3_q,2022.2.5,Win32,60.06366749,611abe6af992f6d35f60c003,64aeaab685a29f4ca249be02,64beca28cfd90f6980a326d4,right,1,0.8214,0.35,39,0.025018762,0.6005,,,,,,289,0,289,0,1,,,,,
,,151116,001,2023-07-24_21h00.29.513,arm3_q,2022.2.5,Win32,60.06366749,611abe6af992f6d35f60c003,64aeaab685a29f4ca249be02,64beca28cfd90f6980a326d4,right,1,0.8214,0.35,39,0.045838049,0.1816,,,,,,290,0,290,0,1,,,,,
,,151116,001,2023-07-24_21h00.29.513,arm3_q,2022.2.5,Win32,60.06366749,611abe6af992f6d35f60c003,64aeaab685a29f4ca249be02,64beca28cfd90f6980a326d4,right,1,0.8214,0.35,39,0.051359988,0.1742,,,,,,291,0,291,0,1,,,,,
,,151116,001,2023-07-24_21h00.29.513,arm3_q,2022.2.5,Win32,60.06366749,611abe6af992f6d35f60c003,64aeaab685a29f4ca249be02,64beca28cfd90f6980a326d4,right,1,0.8214,0.35,39,0.045096826,0.195,,,,,,292,0,292,0,1,,,,,
,,151116,001,2023-07-24_21h00.29.513,arm3_q,2022.2.5,Win32,60.06366749,611abe6af992f6d35f60c003,64aeaab685a29f4ca249be02,64beca28cfd90f6980a326d4,up,-1,0.8214,0.35,40,0,0.2386,,,,,,293,0,293,0,1,,,,,
,,151116,001,2023-07-24_21h00.29.513,arm3_q,2022.2.5,Win32,60.06366749,611abe6af992f6d35f60c003,64aeaab685a29f4ca249be02,64beca28cfd90f6980a326d4,right,-1,0.8214,0.35,40,-0.010652439,0.64,,,,,,294,0,294,0,1,,,,,
,,151116,001,2023-07-24_21h00.29.513,arm3_q,2022.2.5,Win32,60.06366749,611abe6af992f6d35f60c003,64aeaab685a29f4ca249be02,64beca28cfd90f6980a326d4,right,-1,0.8214,0.35,40,-0.029363853,0.1915,,,,,,295,0,295,0,1,,,,,
,,151116,001,2023-07-24_21h00.29.513,arm3_q,2022.2.5,Win32,60.06366749,611abe6af992f6d35f60c003,64aeaab685a29f4ca249be02,64beca28cfd90f6980a326d4,right,-1,0.8214,0.35,40,-0.059843172,0.1833,,,,,,296,0,296,0,1,,,,,
,,151116,001,2023-07-24_21h00.29.513,arm3_q,2022.2.5,Win32,60.06366749,611abe6af992f6d35f60c003,64aeaab685a29f4ca249be02,64beca28cfd90f6980a326d4,right,-1,0.8214,0.35,40,-0.105965047,0.1409,,,,,,297,0,297,0,1,,,,,
,,151116,001,2023-07-24_21h00.29.513,arm3_q,2022.2.5,Win32,60.06366749,611abe6af992f6d35f60c003,64aeaab685a29f4ca249be02,64beca28cfd90f6980a326d4,down,1,0.8214,0.35,41,0,0.2252,,,,,,298,0,298,0,1,,,,,
,,151116,001,2023-07-24_21h00.29.513,arm3_q,2022.2.5,Win32,60.06366749,611abe6af992f6d35f60c003,64aeaab685a29f4ca249be02,64beca28cfd90f6980a326d4,right,1,0.8214,0.35,41,-0.009868326,0.5951,,,,,,299,0,299,0,1,,,,,
,,151116,001,2023-07-24_21h00.29.513,arm3_q,2022.2.5,Win32,60.06366749,611abe6af992f6d35f60c003,64aeaab685a29f4ca249be02,64beca28cfd90f6980a326d4,right,1,0.8214,0.35,41,0.003607146,0.175,,,,,,300,0,300,0,1,,,,,
,,151116,001,2023-07-24_21h00.29.513,arm3_q,2022.2.5,Win32,60.06366749,611abe6af992f6d35f60c003,64aeaab685a29f4ca249be02,64beca28cfd90f6980a326d4,right,1,0.8214,0.35,41,0.007233582,0.1947,,,,,,301,0,301,0,1,,,,,
,,151116,001,2023-07-24_21h00.29.513,arm3_q,2022.2.5,Win32,60.06366749,611abe6af992f6d35f60c003,64aeaab685a29f4ca249be02,64beca28cfd90f6980a326d4,right,1,0.8214,0.35,41,0.035941861,0.1715,,,,,,302,0,302,0,1,,,,,
,,151116,001,2023-07-24_21h00.29.513,arm3_q,2022.2.5,Win32,60.06366749,611abe6af992f6d35f60c003,64aeaab685a29f4ca249be02,64beca28cfd90f6980a326d4,right,1,0.8214,0.35,41,0.042563288,0.1777,,,,,,303,0,303,0,1,,,,,
,,151116,001,2023-07-24_21h00.29.513,arm3_q,2022.2.5,Win32,60.06366749,611abe6af992f6d35f60c003,64aeaab685a29f4ca249be02,64beca28cfd90f6980a326d4,right,1,0.8214,0.35,41,0.037174084,0.1909,,,,,,304,0,304,0,1,,,,,
,,151116,001,2023-07-24_21h00.29.513,arm3_q,2022.2.5,Win32,60.06366749,611abe6af992f6d35f60c003,64aeaab685a29f4ca249be02,64beca28cfd90f6980a326d4,up,1,0.8214,0.35,42,0,0.4535,,,,,,305,0,305,0,1,,,,,
,,151116,001,2023-07-24_21h00.29.513,arm3_q,2022.2.5,Win32,60.06366749,611abe6af992f6d35f60c003,64aeaab685a29f4ca249be02,64beca28cfd90f6980a326d4,right,1,0.8214,0.35,42,0.010426509,0.4397,,,,,,306,0,306,0,1,,,,,
,,151116,001,2023-07-24_21h00.29.513,arm3_q,2022.2.5,Win32,60.06366749,611abe6af992f6d35f60c003,64aeaab685a29f4ca249be02,64beca28cfd90f6980a326d4,right,1,0.8214,0.35,42,-0.000146766,0.1751,,,,,,307,0,307,0,1,,,,,
,,151116,001,2023-07-24_21h00.29.513,arm3_q,2022.2.5,Win32,60.06366749,611abe6af992f6d35f60c003,64aeaab685a29f4ca249be02,64beca28cfd90f6980a326d4,right,1,0.8214,0.35,42,0.025942439,0.169,,,,,,308,0,308,0,1,,,,,
,,151116,001,2023-07-24_21h00.29.513,arm3_q,2022.2.5,Win32,60.06366749,611abe6af992f6d35f60c003,64aeaab685a29f4ca249be02,64beca28cfd90f6980a326d4,right,1,0.8214,0.35,42,0.021388245,0.1581,,,,,,309,0,309,0,1,,,,,
,,151116,001,2023-07-24_21h00.29.513,arm3_q,2022.2.5,Win32,60.06366749,611abe6af992f6d35f60c003,64aeaab685a29f4ca249be02,64beca28cfd90f6980a326d4,right,1,0.8214,0.35,42,0.025063924,0.2113,,,,,,310,0,310,0,1,,,,,
,,151116,001,2023-07-24_21h00.29.513,arm3_q,2022.2.5,Win32,60.06366749,611abe6af992f6d35f60c003,64aeaab685a29f4ca249be02,64beca28cfd90f6980a326d4,right,1,0.8214,0.35,42,0.022052622,0.186,,,,,,311,0,311,0,1,,,,,
,,151116,001,2023-07-24_21h00.29.513,arm3_q,2022.2.5,Win32,60.06366749,611abe6af992f6d35f60c003,64aeaab685a29f4ca249be02,64beca28cfd90f6980a326d4,up,1,0.8214,0.35,43,0,0.3171,,,,,,312,0,312,0,1,,,,,
,,151116,001,2023-07-24_21h00.29.513,arm3_q,2022.2.5,Win32,60.06366749,611abe6af992f6d35f60c003,64aeaab685a29f4ca249be02,64beca28cfd90f6980a326d4,right,1,0.8214,0.35,43,-0.016364387,0.6212,,,,,,313,0,313,0,1,,,,,
,,151116,001,2023-07-24_21h00.29.513,arm3_q,2022.2.5,Win32,60.06366749,611abe6af992f6d35f60c003,64aeaab685a29f4ca249be02,64beca28cfd90f6980a326d4,right,1,0.8214,0.35,43,-0.002025945,0.1984,,,,,,314,0,314,0,1,,,,,
,,151116,001,2023-07-24_21h00.29.513,arm3_q,2022.2.5,Win32,60.06366749,611abe6af992f6d35f60c003,64aeaab685a29f4ca249be02,64beca28cfd90f6980a326d4,right,1,0.8214,0.35,43,0.034613341,0.1657,,,,,,315,0,315,0,1,,,,,
,,151116,001,2023-07-24_21h00.29.513,arm3_q,2022.2.5,Win32,60.06366749,611abe6af992f6d35f60c003,64aeaab685a29f4ca249be02,64beca28cfd90f6980a326d4,right,1,0.8214,0.35,43,0.039965808,0.156,,,,,,316,0,316,0,1,,,,,
,,151116,001,2023-07-24_21h00.29.513,arm3_q,2022.2.5,Win32,60.06366749,611abe6af992f6d35f60c003,64aeaab685a29f4ca249be02,64beca28cfd90f6980a326d4,up,-1,0.8214,0.35,43,0,0.2725,,,,,,317,0,317,0,1,,,,,
,,151116,001,2023-07-24_21h00.29.513,arm3_q,2022.2.5,Win32,60.06366749,611abe6af992f6d35f60c003,64aeaab685a29f4ca249be02,64beca28cfd90f6980a326d4,right,-1,0.8214,0.35,43,-0.015386958,0.5684,,,,,,318,0,318,0,1,,,,,
,,151116,001,2023-07-24_21h00.29.513,arm3_q,2022.2.5,Win32,60.06366749,611abe6af992f6d35f60c003,64aeaab685a29f4ca249be02,64beca28cfd90f6980a326d4,right,-1,0.8214,0.35,43,-0.011712014,0.1752,,,,,,319,0,319,0,1,,,,,
,,151116,001,2023-07-24_21h00.29.513,arm3_q,2022.2.5,Win32,60.06366749,611abe6af992f6d35f60c003,64aeaab685a29f4ca249be02,64beca28cfd90f6980a326d4,right,-1,0.8214,0.35,43,-0.018357189,0.1763,,,,,,320,0,320,0,1,,,,,
,,151116,001,2023-07-24_21h00.29.513,arm3_q,2022.2.5,Win32,60.06366749,611abe6af992f6d35f60c003,64aeaab685a29f4ca249be02,64beca28cfd90f6980a326d4,right,-1,0.8214,0.35,43,-0.03939326,0.1729,,,,,,321,0,321,0,1,,,,,
,,151116,001,2023-07-24_21h00.29.513,arm3_q,2022.2.5,Win32,60.06366749,611abe6af992f6d35f60c003,64aeaab685a29f4ca249be02,64beca28cfd90f6980a326d4,down,-1,0.8214,0.35,43,0,0.2936,,,,,,322,0,322,0,1,,,,,
,,151116,001,2023-07-24_21h00.29.513,arm3_q,2022.2.5,Win32,60.06366749,611abe6af992f6d35f60c003,64aeaab685a29f4ca249be02,64beca28cfd90f6980a326d4,right,-1,0.8214,0.35,43,0.013886966,0.5525,,,,,,323,0,323,0,1,,,,,
,,151116,001,2023-07-24_21h00.29.513,arm3_q,2022.2.5,Win32,60.06366749,611abe6af992f6d35f60c003,64aeaab685a29f4ca249be02,64beca28cfd90f6980a326d4,right,-1,0.8214,0.35,43,-0.039448711,0.1873,,,,,,324,0,324,0,1,,,,,
,,151116,001,2023-07-24_21h00.29.513,arm3_q,2022.2.5,Win32,60.06366749,611abe6af992f6d35f60c003,64aeaab685a29f4ca249be02,64beca28cfd90f6980a326d4,right,-1,0.8214,0.35,43,-0.018840199,0.191,,,,,,325,0,325,0,1,,,,,
,,151116,001,2023-07-24_21h00.29.513,arm3_q,2022.2.5,Win32,60.06366749,611abe6af992f6d35f60c003,64aeaab685a29f4ca249be02,64beca28cfd90f6980a326d4,right,-1,0.8214,0.35,43,-0.041767474,0.1833,,,,,,326,0,326,0,1,,,,,
,,151116,001,2023-07-24_21h00.29.513,arm3_q,2022.2.5,Win32,60.06366749,611abe6af992f6d35f60c003,64aeaab685a29f4ca249be02,64beca28cfd90f6980a326d4,down,-1,0.8214,0.35,44,0,0.3213,,,,,,327,0,327,0,1,,,,,
,,151116,001,2023-07-24_21h00.29.513,arm3_q,2022.2.5,Win32,60.06366749,611abe6af992f6d35f60c003,64aeaab685a29f4ca249be02,64beca28cfd90f6980a326d4,right,-1,0.8214,0.35,44,-0.00990062,0.4704,,,,,,328,0,328,0,1,,,,,
,,151116,001,2023-07-24_21h00.29.513,arm3_q,2022.2.5,Win32,60.06366749,611abe6af992f6d35f60c003,64aeaab685a29f4ca249be02,64beca28cfd90f6980a326d4,right,-1,0.8214,0.35,44,-0.012768441,0.2023,,,,,,329,0,329,0,1,,,,,
,,151116,001,2023-07-24_21h00.29.513,arm3_q,2022.2.5,Win32,60.06366749,611abe6af992f6d35f60c003,64aeaab685a29f4ca249be02,64beca28cfd90f6980a326d4,right,-1,0.8214,0.35,44,-0.045316342,0.1728,,,,,,330,0,330,0,1,,,,,
,,151116,001,2023-07-24_21h00.29.513,arm3_q,2022.2.5,Win32,60.06366749,611abe6af992f6d35f60c003,64aeaab685a29f4ca249be02,64beca28cfd90f6980a326d4,right,-1,0.8214,0.35,44,-0.037056615,0.1666,,,,,,331,0,331,0,1,,,,,
,,151116,001,2023-07-24_21h00.29.513,arm3_q,2022.2.5,Win32,60.06366749,611abe6af992f6d35f60c003,64aeaab685a29f4ca249be02,64beca28cfd90f6980a326d4,right,-1,0.8214,0.35,44,-0.056851404,0.2086,,,,,,332,0,332,0,1,,,,,
,,151116,001,2023-07-24_21h00.29.513,arm3_q,2022.2.5,Win32,60.06366749,611abe6af992f6d35f60c003,64aeaab685a29f4ca249be02,64beca28cfd90f6980a326d4,down,-1,0.8214,0.35,44,0,0.2395,,,,,,333,0,333,0,1,,,,,
,,151116,001,2023-07-24_21h00.29.513,arm3_q,2022.2.5,Win32,60.06366749,611abe6af992f6d35f60c003,64aeaab685a29f4ca249be02,64beca28cfd90f6980a326d4,right,-1,0.8214,0.35,44,-0.034888953,0.5488,,,,,,334,0,334,0,1,,,,,
,,151116,001,2023-07-24_21h00.29.513,arm3_q,2022.2.5,Win32,60.06366749,611abe6af992f6d35f60c003,64aeaab685a29f4ca249be02,64beca28cfd90f6980a326d4,right,-1,0.8214,0.35,44,-0.006493744,0.1991,,,,,,335,0,335,0,1,,,,,
,,151116,001,2023-07-24_21h00.29.513,arm3_q,2022.2.5,Win32,60.06366749,611abe6af992f6d35f60c003,64aeaab685a29f4ca249be02,64beca28cfd90f6980a326d4,right,-1,0.8214,0.35,44,-0.011031456,0.205,,,,,,336,0,336,0,1,,,,,
,,151116,001,2023-07-24_21h00.29.513,arm3_q,2022.2.5,Win32,60.06366749,611abe6af992f6d35f60c003,64aeaab685a29f4ca249be02,64beca28cfd90f6980a326d4,right,-1,0.8214,0.35,44,-0.013265438,0.1698,,,,,,337,0,337,0,1,,,,,
,,151116,001,2023-07-24_21h00.29.513,arm3_q,2022.2.5,Win32,60.06366749,611abe6af992f6d35f60c003,64aeaab685a29f4ca249be02,64beca28cfd90f6980a326d4,right,-1,0.8214,0.35,44,-0.034643517,0.2093,,,,,,338,0,338,0,1,,,,,
,,151116,001,2023-07-24_21h00.29.513,arm3_q,2022.2.5,Win32,60.06366749,611abe6af992f6d35f60c003,64aeaab685a29f4ca249be02,64beca28cfd90f6980a326d4,right,-1,0.8214,0.35,44,-0.05023128,0.1843,,,,,,339,0,339,0,1,,,,,
,,151116,001,2023-07-24_21h00.29.513,arm3_q,2022.2.5,Win32,60.06366749,611abe6af992f6d35f60c003,64aeaab685a29f4ca249be02,64beca28cfd90f6980a326d4,down,1,0.8214,0.35,44,0,0.1853,,,,,,340,0,340,0,1,,,,,
,,151116,001,2023-07-24_21h00.29.513,arm3_q,2022.2.5,Win32,60.06366749,611abe6af992f6d35f60c003,64aeaab685a29f4ca249be02,64beca28cfd90f6980a326d4,right,1,0.8214,0.35,44,0.002684584,0.5992,,,,,,341,0,341,0,1,,,,,
,,151116,001,2023-07-24_21h00.29.513,arm3_q,2022.2.5,Win32,60.06366749,611abe6af992f6d35f60c003,64aeaab685a29f4ca249be02,64beca28cfd90f6980a326d4,right,1,0.8214,0.35,44,0.009804371,0.1985,,,,,,342,0,342,0,1,,,,,
,,151116,001,2023-07-24_21h00.29.513,arm3_q,2022.2.5,Win32,60.06366749,611abe6af992f6d35f60c003,64aeaab685a29f4ca249be02,64beca28cfd90f6980a326d4,right,1,0.8214,0.35,44,0.009175137,0.1815,,,,,,343,0,343,0,1,,,,,
,,151116,001,2023-07-24_21h00.29.513,arm3_q,2022.2.5,Win32,60.06366749,611abe6af992f6d35f60c003,64aeaab685a29f4ca249be02,64beca28cfd90f6980a326d4,right,1,0.8214,0.35,44,0.009681429,0.183,,,,,,344,0,344,0,1,,,,,
,,151116,001,2023-07-24_21h00.29.513,arm3_q,2022.2.5,Win32,60.06366749,611abe6af992f6d35f60c003,64aeaab685a29f4ca249be02,64beca28cfd90f6980a326d4,right,1,0.8214,0.35,44,0.015408946,0.2011,,,,,,345,0,345,0,1,,,,,
,,151116,001,2023-07-24_21h00.29.513,arm3_q,2022.2.5,Win32,60.06366749,611abe6af992f6d35f60c003,64aeaab685a29f4ca249be02,64beca28cfd90f6980a326d4,right,1,0.8214,0.35,44,0.022547996,0.1981,,,,,,346,0,346,0,1,,,,,
,,151116,001,2023-07-24_21h00.29.513,arm3_q,2022.2.5,Win32,60.06366749,611abe6af992f6d35f60c003,64aeaab685a29f4ca249be02,64beca28cfd90f6980a326d4,up,1,0.8214,0.35,44,0,0.3778,,,,,,347,0,347,0,1,,,,,
,,151116,001,2023-07-24_21h00.29.513,arm3_q,2022.2.5,Win32,60.06366749,611abe6af992f6d35f60c003,64aeaab685a29f4ca249be02,64beca28cfd90f6980a326d4,right,1,0.8214,0.35,44,0.01110878,0.6182,,,,,,348,0,348,0,1,,,,,
,,151116,001,2023-07-24_21h00.29.513,arm3_q,2022.2.5,Win32,60.06366749,611abe6af992f6d35f60c003,64aeaab685a29f4ca249be02,64beca28cfd90f6980a326d4,right,1,0.8214,0.35,44,0.001150528,0.1672,,,,,,349,0,349,0,1,,,,,
,,151116,001,2023-07-24_21h00.29.513,arm3_q,2022.2.5,Win32,60.06366749,611abe6af992f6d35f60c003,64aeaab685a29f4ca249be02,64beca28cfd90f6980a326d4,right,1,0.8214,0.35,44,0.013618499,0.1825,,,,,,350,0,350,0,1,,,,,
,,151116,001,2023-07-24_21h00.29.513,arm3_q,2022.2.5,Win32,60.06366749,611abe6af992f6d35f60c003,64aeaab685a29f4ca249be02,64beca28cfd90f6980a326d4,right,1,0.8214,0.35,44,0.011775322,0.1928,,,,,,351,0,351,0,1,,,,,
,,151116,001,2023-07-24_21h00.29.513,arm3_q,2022.2.5,Win32,60.06366749,611abe6af992f6d35f60c003,64aeaab685a29f4ca249be02,64beca28cfd90f6980a326d4,right,1,0.8214,0.35,44,0.030461583,0.1982,,,,,,352,0,352,0,1,,,,,
,,151116,001,2023-07-24_21h00.29.513,arm3_q,2022.2.5,Win32,60.06366749,611abe6af992f6d35f60c003,64aeaab685a29f4ca249be02,64beca28cfd90f6980a326d4,up,1,0.8214,0.35,45,0,0.2439,,,,,,353,0,353,0,1,,,,,
,,151116,001,2023-07-24_21h00.29.513,arm3_q,2022.2.5,Win32,60.06366749,611abe6af992f6d35f60c003,64aeaab685a29f4ca249be02,64beca28cfd90f6980a326d4,right,1,0.8214,0.35,45,0.020928251,0.6499,,,,,,354,0,354,0,1,,,,,
,,151116,001,2023-07-24_21h00.29.513,arm3_q,2022.2.5,Win32,60.06366749,611abe6af992f6d35f60c003,64aeaab685a29f4ca249be02,64beca28cfd90f6980a326d4,right,1,0.8214,0.35,45,0.005307566,0.1899,,,,,,355,0,355,0,1,,,,,
,,151116,001,2023-07-24_21h00.29.513,arm3_q,2022.2.5,Win32,60.06366749,611abe6af992f6d35f60c003,64aeaab685a29f4ca249be02,64beca28cfd90f6980a326d4,right,1,0.8214,0.35,45,0.013286632,0.1904,,,,,,356,0,356,0,1,,,,,
,,151116,001,2023-07-24_21h00.29.513,arm3_q,2022.2.5,Win32,60.06366749,611abe6af992f6d35f60c003,64aeaab685a29f4ca249be02,64beca28cfd90f6980a326d4,right,1,0.8214,0.35,45,0.041604432,0.1665,,,,,,357,0,357,0,1,,,,,
,,151116,001,2023-07-24_21h00.29.513,arm3_q,2022.2.5,Win32,60.06366749,611abe6af992f6d35f60c003,64aeaab685a29f4ca249be02,64beca28cfd90f6980a326d4,up,-1,0.8214,0.35,46,0,0.2652,,,,,,358,0,358,0,1,,,,,
,,151116,001,2023-07-24_21h00.29.513,arm3_q,2022.2.5,Win32,60.06366749,611abe6af992f6d35f60c003,64aeaab685a29f4ca249be02,64beca28cfd90f6980a326d4,right,-1,0.8214,0.35,46,-0.043798684,0.5823,,,,,,359,0,359,0,1,,,,,
,,151116,001,2023-07-24_21h00.29.513,arm3_q,2022.2.5,Win32,60.06366749,611abe6af992f6d35f60c003,64aeaab685a29f4ca249be02,64beca28cfd90f6980a326d4,right,-1,0.8214,0.35,46,-0.069457079,0.1832,,,,,,360,0,360,0,1,,,,,
,,151116,001,2023-07-24_21h00.29.513,arm3_q,2022.2.5,Win32,60.06366749,611abe6af992f6d35f60c003,64aeaab685a29f4ca249be02,64beca28cfd90f6980a326d4,right,-1,0.8214,0.35,46,-0.089557276,0.1654,,,,,,361,0,361,0,1,,,,,
,,151116,001,2023-07-24_21h00.29.513,arm3_q,2022.2.5,Win32,60.06366749,611abe6af992f6d35f60c003,64aeaab685a29f4ca249be02,64beca28cfd90f6980a326d4,down,-1,0.8214,0.35,47,0,0.2192,,,,,,362,0,362,0,1,,,,,
,,151116,001,2023-07-24_21h00.29.513,arm3_q,2022.2.5,Win32,60.06366749,611abe6af992f6d35f60c003,64aeaab685a29f4ca249be02,64beca28cfd90f6980a326d4,right,-1,0.8214,0.35,47,-0.032920409,0.6026,,,,,,363,0,363,0,1,,,,,
,,151116,001,2023-07-24_21h00.29.513,arm3_q,2022.2.5,Win32,60.06366749,611abe6af992f6d35f60c003,64aeaab685a29f4ca249be02,64beca28cfd90f6980a326d4,right,-1,0.8214,0.35,47,-0.039058271,0.1662,,,,,,364,0,364,0,1,,,,,
,,151116,001,2023-07-24_21h00.29.513,arm3_q,2022.2.5,Win32,60.06366749,611abe6af992f6d35f60c003,64aeaab685a29f4ca249be02,64beca28cfd90f6980a326d4,down,1,0.8214,0.35,48,0,0.4511,,,,,,365,0,365,0,1,,,,,
,,151116,001,2023-07-24_21h00.29.513,arm3_q,2022.2.5,Win32,60.06366749,611abe6af992f6d35f60c003,64aeaab685a29f4ca249be02,64beca28cfd90f6980a326d4,right,1,0.8214,0.35,48,0.006332502,0.5659,,,,,,366,0,366,0,1,,,,,
,,151116,001,2023-07-24_21h00.29.513,arm3_q,2022.2.5,Win32,60.06366749,611abe6af992f6d35f60c003,64aeaab685a29f4ca249be02,64beca28cfd90f6980a326d4,right,1,0.8214,0.35,48,0.005742296,0.1819,,,,,,367,0,367,0,1,,,,,
,,151116,001,2023-07-24_21h00.29.513,arm3_q,2022.2.5,Win32,60.06366749,611abe6af992f6d35f60c003,64aeaab685a29f4ca249be02,64beca28cfd90f6980a326d4,right,1,0.8214,0.35,48,0.014488678,0.1439,,,,,,368,0,368,0,1,,,,,
,,151116,001,2023-07-24_21h00.29.513,arm3_q,2022.2.5,Win32,60.06366749,611abe6af992f6d35f60c003,64aeaab685a29f4ca249be02,64beca28cfd90f6980a326d4,right,1,0.8214,0.35,48,-0.029752062,0.2015,,,,,,369,0,369,0,1,,,,,
,,151116,001,2023-07-24_21h00.29.513,arm3_q,2022.2.5,Win32,60.06366749,611abe6af992f6d35f60c003,64aeaab685a29f4ca249be02,64beca28cfd90f6980a326d4,,,,,,,,,,,,,,,,,,0,0,0,0,1
space,5.8924,151116,001,2023-07-24_21h00.29.513,arm3_q,2022.2.5,Win32,60.06366749,611abe6af992f6d35f60c003,64aeaab685a29f4ca249be02,64beca28cfd90f6980a326d4,right,1,0.95,0.35,48,0.028790913,1.5401,,,,,,0,0,0,0,1,,,,,
,,151116,001,2023-07-24_21h00.29.513,arm3_q,2022.2.5,Win32,60.06366749,611abe6af992f6d35f60c003,64aeaab685a29f4ca249be02,64beca28cfd90f6980a326d4,right,1,0.95,0.35,48,0.075769108,0.1828,,,,,,1,0,1,0,1,,,,,
,,151116,001,2023-07-24_21h00.29.513,arm3_q,2022.2.5,Win32,60.06366749,611abe6af992f6d35f60c003,64aeaab685a29f4ca249be02,64beca28cfd90f6980a326d4,right,1,0.95,0.35,48,0.118939379,0.1936,,,,,,2,0,2,0,1,,,,,
,,151116,001,2023-07-24_21h00.29.513,arm3_q,2022.2.5,Win32,60.06366749,611abe6af992f6d35f60c003,64aeaab685a29f4ca249be02,64beca28cfd90f6980a326d4,right,1,0.95,0.35,48,0.098086397,0.2224,,,,,,3,0,3,0,1,,,,,
,,151116,001,2023-07-24_21h00.29.513,arm3_q,2022.2.5,Win32,60.06366749,611abe6af992f6d35f60c003,64aeaab685a29f4ca249be02,64beca28cfd90f6980a326d4,down,1,0.95,0.35,47,0,0.5574,,,,,,4,0,4,0,1,,,,,
,,151116,001,2023-07-24_21h00.29.513,arm3_q,2022.2.5,Win32,60.06366749,611abe6af992f6d35f60c003,64aeaab685a29f4ca249be02,64beca28cfd90f6980a326d4,right,1,0.95,0.35,47,-0.000308603,0.4735,,,,,,5,0,5,0,1,,,,,
,,151116,001,2023-07-24_21h00.29.513,arm3_q,2022.2.5,Win32,60.06366749,611abe6af992f6d35f60c003,64aeaab685a29f4ca249be02,64beca28cfd90f6980a326d4,right,1,0.95,0.35,47,-0.011711624,0.2718,,,,,,6,0,6,0,1,,,,,
,,151116,001,2023-07-24_21h00.29.513,arm3_q,2022.2.5,Win32,60.06366749,611abe6af992f6d35f60c003,64aeaab685a29f4ca249be02,64beca28cfd90f6980a326d4,right,1,0.95,0.35,47,0.023253894,0.2112,,,,,,7,0,7,0,1,,,,,
,,151116,001,2023-07-24_21h00.29.513,arm3_q,2022.2.5,Win32,60.06366749,611abe6af992f6d35f60c003,64aeaab685a29f4ca249be02,64beca28cfd90f6980a326d4,right,1,0.95,0.35,47,0.052743061,0.2372,,,,,,8,0,8,0,1,,,,,
,,151116,001,2023-07-24_21h00.29.513,arm3_q,2022.2.5,Win32,60.06366749,611abe6af992f6d35f60c003,64aeaab685a29f4ca249be02,64beca28cfd90f6980a326d4,up,1,0.95,0.35,48,0,0.3084,,,,,,9,0,9,0,1,,,,,
,,151116,001,2023-07-24_21h00.29.513,arm3_q,2022.2.5,Win32,60.06366749,611abe6af992f6d35f60c003,64aeaab685a29f4ca249be02,64beca28cfd90f6980a326d4,right,1,0.95,0.35,48,0.021643863,0.4984,,,,,,10,0,10,0,1,,,,,
,,151116,001,2023-07-24_21h00.29.513,arm3_q,2022.2.5,Win32,60.06366749,611abe6af992f6d35f60c003,64aeaab685a29f4ca249be02,64beca28cfd90f6980a326d4,right,1,0.95,0.35,48,0.007048592,0.1818,,,,,,11,0,11,0,1,,,,,
,,151116,001,2023-07-24_21h00.29.513,arm3_q,2022.2.5,Win32,60.06366749,611abe6af992f6d35f60c003,64aeaab685a29f4ca249be02,64beca28cfd90f6980a326d4,right,1,0.95,0.35,48,-0.028994408,0.1515,,,,,,12,0,12,0,1,,,,,
,,151116,001,2023-07-24_21h00.29.513,arm3_q,2022.2.5,Win32,60.06366749,611abe6af992f6d35f60c003,64aeaab685a29f4ca249be02,64beca28cfd90f6980a326d4,right,1,0.95,0.35,48,-0.01977286,0.2012,,,,,,13,0,13,0,1,,,,,
,,151116,001,2023-07-24_21h00.29.513,arm3_q,2022.2.5,Win32,60.06366749,611abe6af992f6d35f60c003,64aeaab685a29f4ca249be02,64beca28cfd90f6980a326d4,right,1,0.95,0.35,48,-0.017505599,0.2037,,,,,,14,0,14,0,1,,,,,
,,151116,001,2023-07-24_21h00.29.513,arm3_q,2022.2.5,Win32,60.06366749,611abe6af992f6d35f60c003,64aeaab685a29f4ca249be02,64beca28cfd90f6980a326d4,right,1,0.95,0.35,48,-0.016202046,0.1839,,,,,,15,0,15,0,1,,,,,
,,151116,001,2023-07-24_21h00.29.513,arm3_q,2022.2.5,Win32,60.06366749,611abe6af992f6d35f60c003,64aeaab685a29f4ca249be02,64beca28cfd90f6980a326d4,right,1,0.95,0.35,48,-0.007321072,0.2055,,,,,,16,0,16,0,1,,,,,
,,151116,001,2023-07-24_21h00.29.513,arm3_q,2022.2.5,Win32,60.06366749,611abe6af992f6d35f60c003,64aeaab685a29f4ca249be02,64beca28cfd90f6980a326d4,down,1,0.95,0.35,47,0,0.3776,,,,,,17,0,17,0,1,,,,,
,,151116,001,2023-07-24_21h00.29.513,arm3_q,2022.2.5,Win32,60.06366749,611abe6af992f6d35f60c003,64aeaab685a29f4ca249be02,64beca28cfd90f6980a326d4,right,1,0.95,0.35,47,0.023837569,0.4333,,,,,,18,0,18,0,1,,,,,
,,151116,001,2023-07-24_21h00.29.513,arm3_q,2022.2.5,Win32,60.06366749,611abe6af992f6d35f60c003,64aeaab685a29f4ca249be02,64beca28cfd90f6980a326d4,right,1,0.95,0.35,47,0.0099876,0.2086,,,,,,19,0,19,0,1,,,,,
,,151116,001,2023-07-24_21h00.29.513,arm3_q,2022.2.5,Win32,60.06366749,611abe6af992f6d35f60c003,64aeaab685a29f4ca249be02,64beca28cfd90f6980a326d4,right,1,0.95,0.35,47,-0.001998448,0.1833,,,,,,20,0,20,0,1,,,,,
,,151116,001,2023-07-24_21h00.29.513,arm3_q,2022.2.5,Win32,60.06366749,611abe6af992f6d35f60c003,64aeaab685a29f4ca249be02,64beca28cfd90f6980a326d4,right,1,0.95,0.35,47,0.001003683,0.1839,,,,,,21,0,21,0,1,,,,,
,,151116,001,2023-07-24_21h00.29.513,arm3_q,2022.2.5,Win32,60.06366749,611abe6af992f6d35f60c003,64aeaab685a29f4ca249be02,64beca28cfd90f6980a326d4,right,1,0.95,0.35,47,0.021889033,0.2051,,,,,,22,0,22,0,1,,,,,
,,151116,001,2023-07-24_21h00.29.513,arm3_q,2022.2.5,Win32,60.06366749,611abe6af992f6d35f60c003,64aeaab685a29f4ca249be02,64beca28cfd90f6980a326d4,right,1,0.95,0.35,47,0.003666033,0.185,,,,,,23,0,23,0,1,,,,,
,,151116,001,2023-07-24_21h00.29.513,arm3_q,2022.2.5,Win32,60.06366749,611abe6af992f6d35f60c003,64aeaab685a29f4ca249be02,64beca28cfd90f6980a326d4,right,1,0.95,0.35,47,0.008948874,0.1996,,,,,,24,0,24,0,1,,,,,
,,151116,001,2023-07-24_21h00.29.513,arm3_q,2022.2.5,Win32,60.06366749,611abe6af992f6d35f60c003,64aeaab685a29f4ca249be02,64beca28cfd90f6980a326d4,right,1,0.95,0.35,47,0.022698528,0.1994,,,,,,25,0,25,0,1,,,,,
,,151116,001,2023-07-24_21h00.29.513,arm3_q,2022.2.5,Win32,60.06366749,611abe6af992f6d35f60c003,64aeaab685a29f4ca249be02,64beca28cfd90f6980a326d4,right,1,0.95,0.35,47,0.046266391,0.2079,,,,,,26,0,26,0,1,,,,,
,,151116,001,2023-07-24_21h00.29.513,arm3_q,2022.2.5,Win32,60.06366749,611abe6af992f6d35f60c003,64aeaab685a29f4ca249be02,64beca28cfd90f6980a326d4,up,-1,0.95,0.35,48,0,0.4169,,,,,,27,0,27,0,1,,,,,
,,151116,001,2023-07-24_21h00.29.513,arm3_q,2022.2.5,Win32,60.06366749,611abe6af992f6d35f60c003,64aeaab685a29f4ca249be02,64beca28cfd90f6980a326d4,right,-1,0.95,0.35,48,-0.002750057,0.4302,,,,,,28,0,28,0,1,,,,,
,,151116,001,2023-07-24_21h00.29.513,arm3_q,2022.2.5,Win32,60.06366749,611abe6af992f6d35f60c003,64aeaab685a29f4ca249be02,64beca28cfd90f6980a326d4,right,-1,0.95,0.35,48,-0.026787398,0.1635,,,,,,29,0,29,0,1,,,,,
,,151116,001,2023-07-24_21h00.29.513,arm3_q,2022.2.5,Win32,60.06366749,611abe6af992f6d35f60c003,64aeaab685a29f4ca249be02,64beca28cfd90f6980a326d4,right,-1,0.95,0.35,48,-0.057447748,0.1838,,,,,,30,0,30,0,1,,,,,
,,151116,001,2023-07-24_21h00.29.513,arm3_q,2022.2.5,Win32,60.06366749,611abe6af992f6d35f60c003,64aeaab685a29f4ca249be02,64beca28cfd90f6980a326d4,down,1,0.95,0.35,49,0,0.3502,,,,,,31,0,31,0,1,,,,,
,,151116,001,2023-07-24_21h00.29.513,arm3_q,2022.2.5,Win32,60.06366749,611abe6af992f6d35f60c003,64aeaab685a29f4ca249be02,64beca28cfd90f6980a326d4,right,1,0.95,0.35,49,-0.014724046,0.4536,,,,,,32,0,32,0,1,,,,,
,,151116,001,2023-07-24_21h00.29.513,arm3_q,2022.2.5,Win32,60.06366749,611abe6af992f6d35f60c003,64aeaab685a29f4ca249be02,64beca28cfd90f6980a326d4,right,1,0.95,0.35,49,-0.008361994,0.1992,,,,,,33,0,33,0,1,,,,,
,,151116,001,2023-07-24_21h00.29.513,arm3_q,2022.2.5,Win32,60.06366749,611abe6af992f6d35f60c003,64aeaab685a29f4ca249be02,64beca28cfd90f6980a326d4,right,1,0.95,0.35,49,-0.007018547,0.1894,,,,,,34,0,34,0,1,,,,,
,,151116,001,2023-07-24_21h00.29.513,arm3_q,2022.2.5,Win32,60.06366749,611abe6af992f6d35f60c003,64aeaab685a29f4ca249be02,64beca28cfd90f6980a326d4,right,1,0.95,0.35,49,0.007412981,0.1922,,,,,,35,0,35,0,1,,,,,
,,151116,001,2023-07-24_21h00.29.513,arm3_q,2022.2.5,Win32,60.06366749,611abe6af992f6d35f60c003,64aeaab685a29f4ca249be02,64beca28cfd90f6980a326d4,right,1,0.95,0.35,49,-0.015831696,0.1944,,,,,,36,0,36,0,1,,,,,
,,151116,001,2023-07-24_21h00.29.513,arm3_q,2022.2.5,Win32,60.06366749,611abe6af992f6d35f60c003,64aeaab685a29f4ca249be02,64beca28cfd90f6980a326d4,right,1,0.95,0.35,49,0.014639081,0.2051,,,,,,37,0,37,0,1,,,,,
,,151116,001,2023-07-24_21h00.29.513,arm3_q,2022.2.5,Win32,60.06366749,611abe6af992f6d35f60c003,64aeaab685a29f4ca249be02,64beca28cfd90f6980a326d4,right,1,0.95,0.35,49,0.022891284,0.2094,,,,,,38,0,38,0,1,,,,,
,,151116,001,2023-07-24_21h00.29.513,arm3_q,2022.2.5,Win32,60.06366749,611abe6af992f6d35f60c003,64aeaab685a29f4ca249be02,64beca28cfd90f6980a326d4,right,1,0.95,0.35,49,0.036563789,0.2026,,,,,,39,0,39,0,1,,,,,
,,151116,001,2023-07-24_21h00.29.513,arm3_q,2022.2.5,Win32,60.06366749,611abe6af992f6d35f60c003,64aeaab685a29f4ca249be02,64beca28cfd90f6980a326d4,up,-1,0.95,0.35,50,0,0.5361,,,,,,40,0,40,0,1,,,,,
,,151116,001,2023-07-24_21h00.29.513,arm3_q,2022.2.5,Win32,60.06366749,611abe6af992f6d35f60c003,64aeaab685a29f4ca249be02,64beca28cfd90f6980a326d4,right,-1,0.95,0.35,50,0.016777796,0.2671,,,,,,41,0,41,0,1,,,,,
,,151116,001,2023-07-24_21h00.29.513,arm3_q,2022.2.5,Win32,60.06366749,611abe6af992f6d35f60c003,64aeaab685a29f4ca249be02,64beca28cfd90f6980a326d4,right,-1,0.95,0.35,50,-0.005722786,0.1753,,,,,,42,0,42,0,1,,,,,
