space_bar.keys,space_bar.rt,participant,session,date,expName,psychopyVersion,OS,frameRate,PROLIFIC_PID,STUDY_ID,SESSION_ID,resp.keys,state,q_prob,eps_prob,score,price,resp.rt,train.thisRepN,train.thisTrialN,train.thisN,train.thisIndex,train.ran,steps.thisRepN,steps.thisTrialN,steps.thisN,steps.thisIndex,steps.ran,blocks.thisRepN,blocks.thisTrialN,blocks.thisN,blocks.thisIndex,blocks.ran
space,14.2523,193819,001,2023-07-24_19h57.33.293,arm3_q,2022.2.5,MacIntel,29.99940001,63ea8ec521931832f4b6b7cb,64aeaab685a29f4ca249be02,64bec96fc9b45a0bacd1cb2e,,,,,,,,,,,,,,,,,,,,,,
space,12.1982,193819,001,2023-07-24_19h57.33.293,arm3_q,2022.2.5,MacIntel,29.99940001,63ea8ec521931832f4b6b7cb,64aeaab685a29f4ca249be02,64bec96fc9b45a0bacd1cb2e,,,,,,,,,,,,,,,,,,,,,,
space,9.0343,193819,001,2023-07-24_19h57.33.293,arm3_q,2022.2.5,MacIntel,29.99940001,63ea8ec521931832f4b6b7cb,64aeaab685a29f4ca249be02,64bec96fc9b45a0bacd1cb2e,,,,,,,,,,,,,,,,,,,,,,
space,6.494,193819,001,2023-07-24_19h57.33.293,arm3_q,2022.2.5,MacIntel,29.99940001,63ea8ec521931832f4b6b7cb,64aeaab685a29f4ca249be02,64bec96fc9b45a0bacd1cb2e,,,,,,,,,,,,,,,,,,,,,,
space,9.3874,193819,001,2023-07-24_19h57.33.293,arm3_q,2022.2.5,MacIntel,29.99940001,63ea8ec521931832f4b6b7cb,64aeaab685a29f4ca249be02,64bec96fc9b45a0bacd1cb2e,,,,,,,,,,,,,,,,,,,,,,
space,9.9188,193819,001,2023-07-24_19h57.33.293,arm3_q,2022.2.5,MacIntel,29.99940001,63ea8ec521931832f4b6b7cb,64aeaab685a29f4ca249be02,64bec96fc9b45a0bacd1cb2e,,,,,,,,,,,,,,,,,,,,,,
space,12.4747,193819,001,2023-07-24_19h57.33.293,arm3_q,2022.2.5,MacIntel,29.99940001,63ea8ec521931832f4b6b7cb,64aeaab685a29f4ca249be02,64bec96fc9b45a0bacd1cb2e,,,,,,,,,,,,,,,,,,,,,,
space,9.1801,193819,001,2023-07-24_19h57.33.293,arm3_q,2022.2.5,MacIntel,29.99940001,63ea8ec521931832f4b6b7cb,64aeaab685a29f4ca249be02,64bec96fc9b45a0bacd1cb2e,,,,,,,,,,,,,,,,,,,,,,
space,6.1291,193819,001,2023-07-24_19h57.33.293,arm3_q,2022.2.5,MacIntel,29.99940001,63ea8ec521931832f4b6b7cb,64aeaab685a29f4ca249be02,64bec96fc9b45a0bacd1cb2e,,,,,,,,,,,,,,,,,,,,,,
space,4.2948,193819,001,2023-07-24_19h57.33.293,arm3_q,2022.2.5,MacIntel,29.99940001,63ea8ec521931832f4b6b7cb,64aeaab685a29f4ca249be02,64bec96fc9b45a0bacd1cb2e,,,,,,,,,,,,,,,,,,,,,,
,,193819,001,2023-07-24_19h57.33.293,arm3_q,2022.2.5,MacIntel,29.99940001,63ea8ec521931832f4b6b7cb,64aeaab685a29f4ca249be02,64bec96fc9b45a0bacd1cb2e,right,1,0.5643,0.35,0,-0.030635649,1.601,0,0,0,0,1,,,,,,,,,,
,,193819,001,2023-07-24_19h57.33.293,arm3_q,2022.2.5,MacIntel,29.99940001,63ea8ec521931832f4b6b7cb,64aeaab685a29f4ca249be02,64bec96fc9b45a0bacd1cb2e,right,1,0.5643,0.35,0,-0.007551497,0.5775,1,0,1,0,1,,,,,,,,,,
,,193819,001,2023-07-24_19h57.33.293,arm3_q,2022.2.5,MacIntel,29.99940001,63ea8ec521931832f4b6b7cb,64aeaab685a29f4ca249be02,64bec96fc9b45a0bacd1cb2e,right,1,0.5643,0.35,0,-0.023445499,0.4115,2,0,2,0,1,,,,,,,,,,
,,193819,001,2023-07-24_19h57.33.293,arm3_q,2022.2.5,MacIntel,29.99940001,63ea8ec521931832f4b6b7cb,64aeaab685a29f4ca249be02,64bec96fc9b45a0bacd1cb2e,right,1,0.5643,0.35,0,-0.011479669,0.3815,3,0,3,0,1,,,,,,,,,,
,,193819,001,2023-07-24_19h57.33.293,arm3_q,2022.2.5,MacIntel,29.99940001,63ea8ec521931832f4b6b7cb,64aeaab685a29f4ca249be02,64bec96fc9b45a0bacd1cb2e,up,1,0.5643,0.35,1,0,0.8284,4,0,4,0,1,,,,,,,,,,
,,193819,001,2023-07-24_19h57.33.293,arm3_q,2022.2.5,MacIntel,29.99940001,63ea8ec521931832f4b6b7cb,64aeaab685a29f4ca249be02,64bec96fc9b45a0bacd1cb2e,right,1,0.5643,0.35,1,-0.023004708,1.6563,5,0,5,0,1,,,,,,,,,,
,,193819,001,2023-07-24_19h57.33.293,arm3_q,2022.2.5,MacIntel,29.99940001,63ea8ec521931832f4b6b7cb,64aeaab685a29f4ca249be02,64bec96fc9b45a0bacd1cb2e,right,1,0.5643,0.35,1,-0.036951318,0.216,6,0,6,0,1,,,,,,,,,,
,,193819,001,2023-07-24_19h57.33.293,arm3_q,2022.2.5,MacIntel,29.99940001,63ea8ec521931832f4b6b7cb,64aeaab685a29f4ca249be02,64bec96fc9b45a0bacd1cb2e,right,1,0.5643,0.35,1,-0.048304387,0.1672,7,0,7,0,1,,,,,,,,,,
,,193819,001,2023-07-24_19h57.33.293,arm3_q,2022.2.5,MacIntel,29.99940001,63ea8ec521931832f4b6b7cb,64aeaab685a29f4ca249be02,64bec96fc9b45a0bacd1cb2e,right,1,0.5643,0.35,1,-0.046622949,0.8624,8,0,8,0,1,,,,,,,,,,
,,193819,001,2023-07-24_19h57.33.293,arm3_q,2022.2.5,MacIntel,29.99940001,63ea8ec521931832f4b6b7cb,64aeaab685a29f4ca249be02,64bec96fc9b45a0bacd1cb2e,down,-1,0.5643,0.35,0,0,0.6641,9,0,9,0,1,,,,,,,,,,
,,193819,001,2023-07-24_19h57.33.293,arm3_q,2022.2.5,MacIntel,29.99940001,63ea8ec521931832f4b6b7cb,64aeaab685a29f4ca249be02,64bec96fc9b45a0bacd1cb2e,right,-1,0.5643,0.35,0,0.005133552,1.0294,10,0,10,0,1,,,,,,,,,,
,,193819,001,2023-07-24_19h57.33.293,arm3_q,2022.2.5,MacIntel,29.99940001,63ea8ec521931832f4b6b7cb,64aeaab685a29f4ca249be02,64bec96fc9b45a0bacd1cb2e,right,-1,0.5643,0.35,0,0.017141229,0.2391,11,0,11,0,1,,,,,,,,,,
,,193819,001,2023-07-24_19h57.33.293,arm3_q,2022.2.5,MacIntel,29.99940001,63ea8ec521931832f4b6b7cb,64aeaab685a29f4ca249be02,64bec96fc9b45a0bacd1cb2e,right,-1,0.5643,0.35,0,0.004704609,0.1978,12,0,12,0,1,,,,,,,,,,
,,193819,001,2023-07-24_19h57.33.293,arm3_q,2022.2.5,MacIntel,29.99940001,63ea8ec521931832f4b6b7cb,64aeaab685a29f4ca249be02,64bec96fc9b45a0bacd1cb2e,right,-1,0.5643,0.35,0,-0.004596346,0.2297,13,0,13,0,1,,,,,,,,,,
,,193819,001,2023-07-24_19h57.33.293,arm3_q,2022.2.5,MacIntel,29.99940001,63ea8ec521931832f4b6b7cb,64aeaab685a29f4ca249be02,64bec96fc9b45a0bacd1cb2e,right,-1,0.5643,0.35,0,-0.021561478,0.1762,14,0,14,0,1,,,,,,,,,,
,,193819,001,2023-07-24_19h57.33.293,arm3_q,2022.2.5,MacIntel,29.99940001,63ea8ec521931832f4b6b7cb,64aeaab685a29f4ca249be02,64bec96fc9b45a0bacd1cb2e,right,-1,0.5643,0.35,0,-0.017293236,0.1647,15,0,15,0,1,,,,,,,,,,
,,193819,001,2023-07-24_19h57.33.293,arm3_q,2022.2.5,MacIntel,29.99940001,63ea8ec521931832f4b6b7cb,64aeaab685a29f4ca249be02,64bec96fc9b45a0bacd1cb2e,right,-1,0.5643,0.35,0,-0.027119356,0.1751,16,0,16,0,1,,,,,,,,,,
,,193819,001,2023-07-24_19h57.33.293,arm3_q,2022.2.5,MacIntel,29.99940001,63ea8ec521931832f4b6b7cb,64aeaab685a29f4ca249be02,64bec96fc9b45a0bacd1cb2e,up,1,0.5643,0.35,0,0,0.4167,17,0,17,0,1,,,,,,,,,,
,,193819,001,2023-07-24_19h57.33.293,arm3_q,2022.2.5,MacIntel,29.99940001,63ea8ec521931832f4b6b7cb,64aeaab685a29f4ca249be02,64bec96fc9b45a0bacd1cb2e,right,1,0.5643,0.35,0,0.006128579,1.7749,18,0,18,0,1,,,,,,,,,,
,,193819,001,2023-07-24_19h57.33.293,arm3_q,2022.2.5,MacIntel,29.99940001,63ea8ec521931832f4b6b7cb,64aeaab685a29f4ca249be02,64bec96fc9b45a0bacd1cb2e,right,1,0.5643,0.35,0,0.02147055,0.2762,19,0,19,0,1,,,,,,,,,,
,,193819,001,2023-07-24_19h57.33.293,arm3_q,2022.2.5,MacIntel,29.99940001,63ea8ec521931832f4b6b7cb,64aeaab685a29f4ca249be02,64bec96fc9b45a0bacd1cb2e,right,1,0.5643,0.35,0,0.034195214,0.3112,20,0,20,0,1,,,,,,,,,,
,,193819,001,2023-07-24_19h57.33.293,arm3_q,2022.2.5,MacIntel,29.99940001,63ea8ec521931832f4b6b7cb,64aeaab685a29f4ca249be02,64bec96fc9b45a0bacd1cb2e,right,1,0.5643,0.35,0,0.057270489,0.1978,21,0,21,0,1,,,,,,,,,,
,,193819,001,2023-07-24_19h57.33.293,arm3_q,2022.2.5,MacIntel,29.99940001,63ea8ec521931832f4b6b7cb,64aeaab685a29f4ca249be02,64bec96fc9b45a0bacd1cb2e,right,1,0.5643,0.35,0,0.049349228,0.1486,22,0,22,0,1,,,,,,,,,,
,,193819,001,2023-07-24_19h57.33.293,arm3_q,2022.2.5,MacIntel,29.99940001,63ea8ec521931832f4b6b7cb,64aeaab685a29f4ca249be02,64bec96fc9b45a0bacd1cb2e,up,-1,0.5643,0.35,1,0,0.3198,23,0,23,0,1,,,,,,,,,,
,,193819,001,2023-07-24_19h57.33.293,arm3_q,2022.2.5,MacIntel,29.99940001,63ea8ec521931832f4b6b7cb,64aeaab685a29f4ca249be02,64bec96fc9b45a0bacd1cb2e,right,-1,0.5643,0.35,1,0.003522249,1.2315,24,0,24,0,1,,,,,,,,,,
,,193819,001,2023-07-24_19h57.33.293,arm3_q,2022.2.5,MacIntel,29.99940001,63ea8ec521931832f4b6b7cb,64aeaab685a29f4ca249be02,64bec96fc9b45a0bacd1cb2e,right,-1,0.5643,0.35,1,-0.015892278,0.3305,25,0,25,0,1,,,,,,,,,,
,,193819,001,2023-07-24_19h57.33.293,arm3_q,2022.2.5,MacIntel,29.99940001,63ea8ec521931832f4b6b7cb,64aeaab685a29f4ca249be02,64bec96fc9b45a0bacd1cb2e,right,-1,0.5643,0.35,1,-0.023924998,0.3395,26,0,26,0,1,,,,,,,,,,
,,193819,001,2023-07-24_19h57.33.293,arm3_q,2022.2.5,MacIntel,29.99940001,63ea8ec521931832f4b6b7cb,64aeaab685a29f4ca249be02,64bec96fc9b45a0bacd1cb2e,right,-1,0.5643,0.35,1,-0.03853682,0.5298,27,0,27,0,1,,,,,,,,,,
,,193819,001,2023-07-24_19h57.33.293,arm3_q,2022.2.5,MacIntel,29.99940001,63ea8ec521931832f4b6b7cb,64aeaab685a29f4ca249be02,64bec96fc9b45a0bacd1cb2e,right,-1,0.5643,0.35,1,-0.048304381,0.2981,28,0,28,0,1,,,,,,,,,,
,,193819,001,2023-07-24_19h57.33.293,arm3_q,2022.2.5,MacIntel,29.99940001,63ea8ec521931832f4b6b7cb,64aeaab685a29f4ca249be02,64bec96fc9b45a0bacd1cb2e,right,-1,0.5643,0.35,1,-0.063419339,0.4485,29,0,29,0,1,,,,,,,,,,
,,193819,001,2023-07-24_19h57.33.293,arm3_q,2022.2.5,MacIntel,29.99940001,63ea8ec521931832f4b6b7cb,64aeaab685a29f4ca249be02,64bec96fc9b45a0bacd1cb2e,down,-1,0.5643,0.35,2,0,0.3781,30,0,30,0,1,,,,,,,,,,
,,193819,001,2023-07-24_19h57.33.293,arm3_q,2022.2.5,MacIntel,29.99940001,63ea8ec521931832f4b6b7cb,64aeaab685a29f4ca249be02,64bec96fc9b45a0bacd1cb2e,right,-1,0.5643,0.35,2,-0.009475953,1.0797,31,0,31,0,1,,,,,,,,,,
,,193819,001,2023-07-24_19h57.33.293,arm3_q,2022.2.5,MacIntel,29.99940001,63ea8ec521931832f4b6b7cb,64aeaab685a29f4ca249be02,64bec96fc9b45a0bacd1cb2e,right,-1,0.5643,0.35,2,0.006636976,0.3512,32,0,32,0,1,,,,,,,,,,
,,193819,001,2023-07-24_19h57.33.293,arm3_q,2022.2.5,MacIntel,29.99940001,63ea8ec521931832f4b6b7cb,64aeaab685a29f4ca249be02,64bec96fc9b45a0bacd1cb2e,right,-1,0.5643,0.35,2,0.001949072,0.4067,33,0,33,0,1,,,,,,,,,,
,,193819,001,2023-07-24_19h57.33.293,arm3_q,2022.2.5,MacIntel,29.99940001,63ea8ec521931832f4b6b7cb,64aeaab685a29f4ca249be02,64bec96fc9b45a0bacd1cb2e,right,-1,0.5643,0.35,2,-0.032231671,1.1764,34,0,34,0,1,,,,,,,,,,
,,193819,001,2023-07-24_19h57.33.293,arm3_q,2022.2.5,MacIntel,29.99940001,63ea8ec521931832f4b6b7cb,64aeaab685a29f4ca249be02,64bec96fc9b45a0bacd1cb2e,right,-1,0.5643,0.35,2,-0.039292616,0.5135,35,0,35,0,1,,,,,,,,,,
,,193819,001,2023-07-24_19h57.33.293,arm3_q,2022.2.5,MacIntel,29.99940001,63ea8ec521931832f4b6b7cb,64aeaab685a29f4ca249be02,64bec96fc9b45a0bacd1cb2e,down,1,0.5643,0.35,2,0,0.7936,36,0,36,0,1,,,,,,,,,,
,,193819,001,2023-07-24_19h57.33.293,arm3_q,2022.2.5,MacIntel,29.99940001,63ea8ec521931832f4b6b7cb,64aeaab685a29f4ca249be02,64bec96fc9b45a0bacd1cb2e,right,1,0.5643,0.35,2,0.023803861,1.4063,37,0,37,0,1,,,,,,,,,,
,,193819,001,2023-07-24_19h57.33.293,arm3_q,2022.2.5,MacIntel,29.99940001,63ea8ec521931832f4b6b7cb,64aeaab685a29f4ca249be02,64bec96fc9b45a0bacd1cb2e,right,1,0.5643,0.35,2,0.048964186,0.2077,38,0,38,0,1,,,,,,,,,,
,,193819,001,2023-07-24_19h57.33.293,arm3_q,2022.2.5,MacIntel,29.99940001,63ea8ec521931832f4b6b7cb,64aeaab685a29f4ca249be02,64bec96fc9b45a0bacd1cb2e,right,1,0.5643,0.35,2,0.045590249,0.1664,39,0,39,0,1,,,,,,,,,,
,,193819,001,2023-07-24_19h57.33.293,arm3_q,2022.2.5,MacIntel,29.99940001,63ea8ec521931832f4b6b7cb,64aeaab685a29f4ca249be02,64bec96fc9b45a0bacd1cb2e,right,1,0.5643,0.35,2,0.035188304,0.1378,40,0,40,0,1,,,,,,,,,,
,,193819,001,2023-07-24_19h57.33.293,arm3_q,2022.2.5,MacIntel,29.99940001,63ea8ec521931832f4b6b7cb,64aeaab685a29f4ca249be02,64bec96fc9b45a0bacd1cb2e,up,-1,0.5643,0.35,3,0,0.4336,41,0,41,0,1,,,,,,,,,,
,,193819,001,2023-07-24_19h57.33.293,arm3_q,2022.2.5,MacIntel,29.99940001,63ea8ec521931832f4b6b7cb,64aeaab685a29f4ca249be02,64bec96fc9b45a0bacd1cb2e,right,-1,0.5643,0.35,3,0.011793282,1.5943,42,0,42,0,1,,,,,,,,,,
,,193819,001,2023-07-24_19h57.33.293,arm3_q,2022.2.5,MacIntel,29.99940001,63ea8ec521931832f4b6b7cb,64aeaab685a29f4ca249be02,64bec96fc9b45a0bacd1cb2e,right,-1,0.5643,0.35,3,0.021604837,0.1793,43,0,43,0,1,,,,,,,,,,
,,193819,001,2023-07-24_19h57.33.293,arm3_q,2022.2.5,MacIntel,29.99940001,63ea8ec521931832f4b6b7cb,64aeaab685a29f4ca249be02,64bec96fc9b45a0bacd1cb2e,right,-1,0.5643,0.35,3,0.039886128,0.154,44,0,44,0,1,,,,,,,,,,
,,193819,001,2023-07-24_19h57.33.293,arm3_q,2022.2.5,MacIntel,29.99940001,63ea8ec521931832f4b6b7cb,64aeaab685a29f4ca249be02,64bec96fc9b45a0bacd1cb2e,up,-1,0.5643,0.35,2,0,0.2127,45,0,45,0,1,,,,,,,,,,
,,193819,001,2023-07-24_19h57.33.293,arm3_q,2022.2.5,MacIntel,29.99940001,63ea8ec521931832f4b6b7cb,64aeaab685a29f4ca249be02,64bec96fc9b45a0bacd1cb2e,right,-1,0.5643,0.35,2,0.009091276,0.858,46,0,46,0,1,,,,,,,,,,
,,193819,001,2023-07-24_19h57.33.293,arm3_q,2022.2.5,MacIntel,29.99940001,63ea8ec521931832f4b6b7cb,64aeaab685a29f4ca249be02,64bec96fc9b45a0bacd1cb2e,right,-1,0.5643,0.35,2,-0.005656444,0.2807,47,0,47,0,1,,,,,,,,,,
,,193819,001,2023-07-24_19h57.33.293,arm3_q,2022.2.5,MacIntel,29.99940001,63ea8ec521931832f4b6b7cb,64aeaab685a29f4ca249be02,64bec96fc9b45a0bacd1cb2e,right,-1,0.5643,0.35,2,-0.013605136,0.4687,48,0,48,0,1,,,,,,,,,,
,,193819,001,2023-07-24_19h57.33.293,arm3_q,2022.2.5,MacIntel,29.99940001,63ea8ec521931832f4b6b7cb,64aeaab685a29f4ca249be02,64bec96fc9b45a0bacd1cb2e,down,-1,0.5643,0.35,2,-0.013605136,0.3127,49,0,49,0,1,,,,,,,,,,
space,1.9986,193819,001,2023-07-24_19h57.33.293,arm3_q,2022.2.5,MacIntel,29.99940001,63ea8ec521931832f4b6b7cb,64aeaab685a29f4ca249be02,64bec96fc9b45a0bacd1cb2e,,,,,,,,,,,,,,,,,,,,,,
space,2.6652,193819,001,2023-07-24_19h57.33.293,arm3_q,2022.2.5,MacIntel,29.99940001,63ea8ec521931832f4b6b7cb,64aeaab685a29f4ca249be02,64bec96fc9b45a0bacd1cb2e,right,-1,0.5643,0.35,0,0.018116324,1.5209,,,,,,0,0,0,0,1,,,,,
,,193819,001,2023-07-24_19h57.33.293,arm3_q,2022.2.5,MacIntel,29.99940001,63ea8ec521931832f4b6b7cb,64aeaab685a29f4ca249be02,64bec96fc9b45a0bacd1cb2e,right,-1,0.5643,0.35,0,-0.001480454,0.5178,,,,,,1,0,1,0,1,,,,,
,,193819,001,2023-07-24_19h57.33.293,arm3_q,2022.2.5,MacIntel,29.99940001,63ea8ec521931832f4b6b7cb,64aeaab685a29f4ca249be02,64bec96fc9b45a0bacd1cb2e,right,-1,0.5643,0.35,0,-0.002692973,0.5304,,,,,,2,0,2,0,1,,,,,
,,193819,001,2023-07-24_19h57.33.293,arm3_q,2022.2.5,MacIntel,29.99940001,63ea8ec521931832f4b6b7cb,64aeaab685a29f4ca249be02,64bec96fc9b45a0bacd1cb2e,right,-1,0.5643,0.35,0,0.016638684,0.2728,,,,,,3,0,3,0,1,,,,,
,,193819,001,2023-07-24_19h57.33.293,arm3_q,2022.2.5,MacIntel,29.99940001,63ea8ec521931832f4b6b7cb,64aeaab685a29f4ca249be02,64bec96fc9b45a0bacd1cb2e,right,-1,0.5643,0.35,0,0.049374313,0.3317,,,,,,4,0,4,0,1,,,,,
,,193819,001,2023-07-24_19h57.33.293,arm3_q,2022.2.5,MacIntel,29.99940001,63ea8ec521931832f4b6b7cb,64aeaab685a29f4ca249be02,64bec96fc9b45a0bacd1cb2e,up,1,0.5643,0.35,0,0,0.5805,,,,,,5,0,5,0,1,,,,,
,,193819,001,2023-07-24_19h57.33.293,arm3_q,2022.2.5,MacIntel,29.99940001,63ea8ec521931832f4b6b7cb,64aeaab685a29f4ca249be02,64bec96fc9b45a0bacd1cb2e,right,1,0.5643,0.35,0,0.039751682,1.4647,,,,,,6,0,6,0,1,,,,,
,,193819,001,2023-07-24_19h57.33.293,arm3_q,2022.2.5,MacIntel,29.99940001,63ea8ec521931832f4b6b7cb,64aeaab685a29f4ca249be02,64bec96fc9b45a0bacd1cb2e,right,1,0.5643,0.35,0,0.016358139,0.3986,,,,,,7,0,7,0,1,,,,,
,,193819,001,2023-07-24_19h57.33.293,arm3_q,2022.2.5,MacIntel,29.99940001,63ea8ec521931832f4b6b7cb,64aeaab685a29f4ca249be02,64bec96fc9b45a0bacd1cb2e,right,1,0.5643,0.35,0,0.016274929,0.2966,,,,,,8,0,8,0,1,,,,,
,,193819,001,2023-07-24_19h57.33.293,arm3_q,2022.2.5,MacIntel,29.99940001,63ea8ec521931832f4b6b7cb,64aeaab685a29f4ca249be02,64bec96fc9b45a0bacd1cb2e,right,1,0.5643,0.35,0,0.019700234,0.4597,,,,,,9,0,9,0,1,,,,,
,,193819,001,2023-07-24_19h57.33.293,arm3_q,2022.2.5,MacIntel,29.99940001,63ea8ec521931832f4b6b7cb,64aeaab685a29f4ca249be02,64bec96fc9b45a0bacd1cb2e,up,-1,0.5643,0.35,1,0,0.5981,,,,,,10,0,10,0,1,,,,,
,,193819,001,2023-07-24_19h57.33.293,arm3_q,2022.2.5,MacIntel,29.99940001,63ea8ec521931832f4b6b7cb,64aeaab685a29f4ca249be02,64bec96fc9b45a0bacd1cb2e,right,-1,0.5643,0.35,1,-0.011753848,1.2925,,,,,,11,0,11,0,1,,,,,
,,193819,001,2023-07-24_19h57.33.293,arm3_q,2022.2.5,MacIntel,29.99940001,63ea8ec521931832f4b6b7cb,64aeaab685a29f4ca249be02,64bec96fc9b45a0bacd1cb2e,right,-1,0.5643,0.35,1,-0.007321681,0.7168,,,,,,12,0,12,0,1,,,,,
,,193819,001,2023-07-24_19h57.33.293,arm3_q,2022.2.5,MacIntel,29.99940001,63ea8ec521931832f4b6b7cb,64aeaab685a29f4ca249be02,64bec96fc9b45a0bacd1cb2e,right,-1,0.5643,0.35,1,0.00508017,0.3796,,,,,,13,0,13,0,1,,,,,
,,193819,001,2023-07-24_19h57.33.293,arm3_q,2022.2.5,MacIntel,29.99940001,63ea8ec521931832f4b6b7cb,64aeaab685a29f4ca249be02,64bec96fc9b45a0bacd1cb2e,up,1,0.5643,0.35,1,0,0.4273,,,,,,14,0,14,0,1,,,,,
,,193819,001,2023-07-24_19h57.33.293,arm3_q,2022.2.5,MacIntel,29.99940001,63ea8ec521931832f4b6b7cb,64aeaab685a29f4ca249be02,64bec96fc9b45a0bacd1cb2e,right,1,0.5643,0.35,1,0.028711817,0.8759,,,,,,15,0,15,0,1,,,,,
,,193819,001,2023-07-24_19h57.33.293,arm3_q,2022.2.5,MacIntel,29.99940001,63ea8ec521931832f4b6b7cb,64aeaab685a29f4ca249be02,64bec96fc9b45a0bacd1cb2e,right,1,0.5643,0.35,1,0.028481212,0.2443,,,,,,16,0,16,0,1,,,,,
,,193819,001,2023-07-24_19h57.33.293,arm3_q,2022.2.5,MacIntel,29.99940001,63ea8ec521931832f4b6b7cb,64aeaab685a29f4ca249be02,64bec96fc9b45a0bacd1cb2e,right,1,0.5643,0.35,1,0.068979288,0.2008,,,,,,17,0,17,0,1,,,,,
,,193819,001,2023-07-24_19h57.33.293,arm3_q,2022.2.5,MacIntel,29.99940001,63ea8ec521931832f4b6b7cb,64aeaab685a29f4ca249be02,64bec96fc9b45a0bacd1cb2e,up,1,0.5643,0.35,1,0,0.4985,,,,,,18,0,18,0,1,,,,,
,,193819,001,2023-07-24_19h57.33.293,arm3_q,2022.2.5,MacIntel,29.99940001,63ea8ec521931832f4b6b7cb,64aeaab685a29f4ca249be02,64bec96fc9b45a0bacd1cb2e,right,1,0.5643,0.35,1,0.028281232,0.8646,,,,,,19,0,19,0,1,,,,,
,,193819,001,2023-07-24_19h57.33.293,arm3_q,2022.2.5,MacIntel,29.99940001,63ea8ec521931832f4b6b7cb,64aeaab685a29f4ca249be02,64bec96fc9b45a0bacd1cb2e,right,1,0.5643,0.35,1,0.01727371,0.5,,,,,,20,0,20,0,1,,,,,
,,193819,001,2023-07-24_19h57.33.293,arm3_q,2022.2.5,MacIntel,29.99940001,63ea8ec521931832f4b6b7cb,64aeaab685a29f4ca249be02,64bec96fc9b45a0bacd1cb2e,right,1,0.5643,0.35,1,0.019093714,0.3582,,,,,,21,0,21,0,1,,,,,
,,193819,001,2023-07-24_19h57.33.293,arm3_q,2022.2.5,MacIntel,29.99940001,63ea8ec521931832f4b6b7cb,64aeaab685a29f4ca249be02,64bec96fc9b45a0bacd1cb2e,right,1,0.5643,0.35,1,0.019536279,0.2326,,,,,,22,0,22,0,1,,,,,
,,193819,001,2023-07-24_19h57.33.293,arm3_q,2022.2.5,MacIntel,29.99940001,63ea8ec521931832f4b6b7cb,64aeaab685a29f4ca249be02,64bec96fc9b45a0bacd1cb2e,right,1,0.5643,0.35,1,0.051696335,0.226,,,,,,23,0,23,0,1,,,,,
,,193819,001,2023-07-24_19h57.33.293,arm3_q,2022.2.5,MacIntel,29.99940001,63ea8ec521931832f4b6b7cb,64aeaab685a29f4ca249be02,64bec96fc9b45a0bacd1cb2e,up,-1,0.5643,0.35,2,0,0.804,,,,,,24,0,24,0,1,,,,,
,,193819,001,2023-07-24_19h57.33.293,arm3_q,2022.2.5,MacIntel,29.99940001,63ea8ec521931832f4b6b7cb,64aeaab685a29f4ca249be02,64bec96fc9b45a0bacd1cb2e,right,-1,0.5643,0.35,2,-0.013492444,1.9475,,,,,,25,0,25,0,1,,,,,
,,193819,001,2023-07-24_19h57.33.293,arm3_q,2022.2.5,MacIntel,29.99940001,63ea8ec521931832f4b6b7cb,64aeaab685a29f4ca249be02,64bec96fc9b45a0bacd1cb2e,right,-1,0.5643,0.35,2,0.003489033,0.2733,,,,,,26,0,26,0,1,,,,,
,,193819,001,2023-07-24_19h57.33.293,arm3_q,2022.2.5,MacIntel,29.99940001,63ea8ec521931832f4b6b7cb,64aeaab685a29f4ca249be02,64bec96fc9b45a0bacd1cb2e,right,-1,0.5643,0.35,2,0.012149419,0.2454,,,,,,27,0,27,0,1,,,,,
,,193819,001,2023-07-24_19h57.33.293,arm3_q,2022.2.5,MacIntel,29.99940001,63ea8ec521931832f4b6b7cb,64aeaab685a29f4ca249be02,64bec96fc9b45a0bacd1cb2e,right,-1,0.5643,0.35,2,-0.000106765,0.3425,,,,,,28,0,28,0,1,,,,,
,,193819,001,2023-07-24_19h57.33.293,arm3_q,2022.2.5,MacIntel,29.99940001,63ea8ec521931832f4b6b7cb,64aeaab685a29f4ca249be02,64bec96fc9b45a0bacd1cb2e,right,-1,0.5643,0.35,2,0.003933735,0.2446,,,,,,29,0,29,0,1,,,,,
,,193819,001,2023-07-24_19h57.33.293,arm3_q,2022.2.5,MacIntel,29.99940001,63ea8ec521931832f4b6b7cb,64aeaab685a29f4ca249be02,64bec96fc9b45a0bacd1cb2e,down,1,0.5643,0.35,2,0,0.2789,,,,,,30,0,30,0,1,,,,,
,,193819,001,2023-07-24_19h57.33.293,arm3_q,2022.2.5,MacIntel,29.99940001,63ea8ec521931832f4b6b7cb,64aeaab685a29f4ca249be02,64bec96fc9b45a0bacd1cb2e,right,1,0.5643,0.35,2,-0.001009017,1.3358,,,,,,31,0,31,0,1,,,,,
,,193819,001,2023-07-24_19h57.33.293,arm3_q,2022.2.5,MacIntel,29.99940001,63ea8ec521931832f4b6b7cb,64aeaab685a29f4ca249be02,64bec96fc9b45a0bacd1cb2e,right,1,0.5643,0.35,2,-0.006232938,0.6385,,,,,,32,0,32,0,1,,,,,
,,193819,001,2023-07-24_19h57.33.293,arm3_q,2022.2.5,MacIntel,29.99940001,63ea8ec521931832f4b6b7cb,64aeaab685a29f4ca249be02,64bec96fc9b45a0bacd1cb2e,right,1,0.5643,0.35,2,-0.004843013,0.3951,,,,,,33,0,33,0,1,,,,,
,,193819,001,2023-07-24_19h57.33.293,arm3_q,2022.2.5,MacIntel,29.99940001,63ea8ec521931832f4b6b7cb,64aeaab685a29f4ca249be02,64bec96fc9b45a0bacd1cb2e,right,1,0.5643,0.35,2,0.000230277,0.234,,,,,,34,0,34,0,1,,,,,
,,193819,001,2023-07-24_19h57.33.293,arm3_q,2022.2.5,MacIntel,29.99940001,63ea8ec521931832f4b6b7cb,64aeaab685a29f4ca249be02,64bec96fc9b45a0bacd1cb2e,right,1,0.5643,0.35,2,0.033298596,0.1689,,,,,,35,0,35,0,1,,,,,
,,193819,001,2023-07-24_19h57.33.293,arm3_q,2022.2.5,MacIntel,29.99940001,63ea8ec521931832f4b6b7cb,64aeaab685a29f4ca249be02,64bec96fc9b45a0bacd1cb2e,right,1,0.5643,0.35,2,0.017339651,0.1481,,,,,,36,0,36,0,1,,,,,
,,193819,001,2023-07-24_19h57.33.293,arm3_q,2022.2.5,MacIntel,29.99940001,63ea8ec521931832f4b6b7cb,64aeaab685a29f4ca249be02,64bec96fc9b45a0bacd1cb2e,right,1,0.5643,0.35,2,0.020856258,0.1707,,,,,,37,0,37,0,1,,,,,
,,193819,001,2023-07-24_19h57.33.293,arm3_q,2022.2.5,MacIntel,29.99940001,63ea8ec521931832f4b6b7cb,64aeaab685a29f4ca249be02,64bec96fc9b45a0bacd1cb2e,right,1,0.5643,0.35,2,0.018886431,0.1468,,,,,,38,0,38,0,1,,,,,
,,193819,001,2023-07-24_19h57.33.293,arm3_q,2022.2.5,MacIntel,29.99940001,63ea8ec521931832f4b6b7cb,64aeaab685a29f4ca249be02,64bec96fc9b45a0bacd1cb2e,right,1,0.5643,0.35,2,0.045069021,0.1179,,,,,,39,0,39,0,1,,,,,
,,193819,001,2023-07-24_19h57.33.293,arm3_q,2022.2.5,MacIntel,29.99940001,63ea8ec521931832f4b6b7cb,64aeaab685a29f4ca249be02,64bec96fc9b45a0bacd1cb2e,up,1,0.5643,0.35,2,0,1.0459,,,,,,40,0,40,0,1,,,,,
,,193819,001,2023-07-24_19h57.33.293,arm3_q,2022.2.5,MacIntel,29.99940001,63ea8ec521931832f4b6b7cb,64aeaab685a29f4ca249be02,64bec96fc9b45a0bacd1cb2e,right,1,0.5643,0.35,2,0.026959384,2.7447,,,,,,41,0,41,0,1,,,,,
,,193819,001,2023-07-24_19h57.33.293,arm3_q,2022.2.5,MacIntel,29.99940001,63ea8ec521931832f4b6b7cb,64aeaab685a29f4ca249be02,64bec96fc9b45a0bacd1cb2e,right,1,0.5643,0.35,2,0.047907692,0.6598,,,,,,42,0,42,0,1,,,,,
,,193819,001,2023-07-24_19h57.33.293,arm3_q,2022.2.5,MacIntel,29.99940001,63ea8ec521931832f4b6b7cb,64aeaab685a29f4ca249be02,64bec96fc9b45a0bacd1cb2e,up,-1,0.5643,0.35,2,0,0.5375,,,,,,43,0,43,0,1,,,,,
,,193819,001,2023-07-24_19h57.33.293,arm3_q,2022.2.5,MacIntel,29.99940001,63ea8ec521931832f4b6b7cb,64aeaab685a29f4ca249be02,64bec96fc9b45a0bacd1cb2e,right,-1,0.5643,0.35,2,-0.011869026,1.1918,,,,,,44,0,44,0,1,,,,,
,,193819,001,2023-07-24_19h57.33.293,arm3_q,2022.2.5,MacIntel,29.99940001,63ea8ec521931832f4b6b7cb,64aeaab685a29f4ca249be02,64bec96fc9b45a0bacd1cb2e,right,-1,0.5643,0.35,2,-0.035471695,0.5181,,,,,,45,0,45,0,1,,,,,
,,193819,001,2023-07-24_19h57.33.293,arm3_q,2022.2.5,MacIntel,29.99940001,63ea8ec521931832f4b6b7cb,64aeaab685a29f4ca249be02,64bec96fc9b45a0bacd1cb2e,down,1,0.5643,0.35,2,0,0.3994,,,,,,46,0,46,0,1,,,,,
,,193819,001,2023-07-24_19h57.33.293,arm3_q,2022.2.5,MacIntel,29.99940001,63ea8ec521931832f4b6b7cb,64aeaab685a29f4ca249be02,64bec96fc9b45a0bacd1cb2e,right,1,0.5643,0.35,2,-0.028330626,0.9308,,,,,,47,0,47,0,1,,,,,
,,193819,001,2023-07-24_19h57.33.293,arm3_q,2022.2.5,MacIntel,29.99940001,63ea8ec521931832f4b6b7cb,64aeaab685a29f4ca249be02,64bec96fc9b45a0bacd1cb2e,right,1,0.5643,0.35,2,-0.008275289,0.2148,,,,,,48,0,48,0,1,,,,,
,,193819,001,2023-07-24_19h57.33.293,arm3_q,2022.2.5,MacIntel,29.99940001,63ea8ec521931832f4b6b7cb,64aeaab685a29f4ca249be02,64bec96fc9b45a0bacd1cb2e,up,-1,0.5643,0.35,2,0,1.3814,,,,,,49,0,49,0,1,,,,,
,,193819,001,2023-07-24_19h57.33.293,arm3_q,2022.2.5,MacIntel,29.99940001,63ea8ec521931832f4b6b7cb,64aeaab685a29f4ca249be02,64bec96fc9b45a0bacd1cb2e,right,-1,0.5643,0.35,2,0.000695607,0.996,,,,,,50,0,50,0,1,,,,,
,,193819,001,2023-07-24_19h57.33.293,arm3_q,2022.2.5,MacIntel,29.99940001,63ea8ec521931832f4b6b7cb,64aeaab685a29f4ca249be02,64bec96fc9b45a0bacd1cb2e,right,-1,0.5643,0.35,2,0.038622437,0.225,,,,,,51,0,51,0,1,,,,,
,,193819,001,2023-07-24_19h57.33.293,arm3_q,2022.2.5,MacIntel,29.99940001,63ea8ec521931832f4b6b7cb,64aeaab685a29f4ca249be02,64bec96fc9b45a0bacd1cb2e,right,-1,0.5643,0.35,2,0.01923559,0.3776,,,,,,52,0,52,0,1,,,,,
,,193819,001,2023-07-24_19h57.33.293,arm3_q,2022.2.5,MacIntel,29.99940001,63ea8ec521931832f4b6b7cb,64aeaab685a29f4ca249be02,64bec96fc9b45a0bacd1cb2e,right,-1,0.5643,0.35,2,-0.007094387,0.1781,,,,,,53,0,53,0,1,,,,,
,,193819,001,2023-07-24_19h57.33.293,arm3_q,2022.2.5,MacIntel,29.99940001,63ea8ec521931832f4b6b7cb,64aeaab685a29f4ca249be02,64bec96fc9b45a0bacd1cb2e,right,-1,0.5643,0.35,2,-0.020723248,0.2997,,,,,,54,0,54,0,1,,,,,
,,193819,001,2023-07-24_19h57.33.293,arm3_q,2022.2.5,MacIntel,29.99940001,63ea8ec521931832f4b6b7cb,64aeaab685a29f4ca249be02,64bec96fc9b45a0bacd1cb2e,right,-1,0.5643,0.35,2,-0.017122304,0.3356,,,,,,55,0,55,0,1,,,,,
,,193819,001,2023-07-24_19h57.33.293,arm3_q,2022.2.5,MacIntel,29.99940001,63ea8ec521931832f4b6b7cb,64aeaab685a29f4ca249be02,64bec96fc9b45a0bacd1cb2e,right,-1,0.5643,0.35,2,-0.042585604,0.1324,,,,,,56,0,56,0,1,,,,,
,,193819,001,2023-07-24_19h57.33.293,arm3_q,2022.2.5,MacIntel,29.99940001,63ea8ec521931832f4b6b7cb,64aeaab685a29f4ca249be02,64bec96fc9b45a0bacd1cb2e,down,-1,0.5643,0.35,2,0,0.6146,,,,,,57,0,57,0,1,,,,,
,,193819,001,2023-07-24_19h57.33.293,arm3_q,2022.2.5,MacIntel,29.99940001,63ea8ec521931832f4b6b7cb,64aeaab685a29f4ca249be02,64bec96fc9b45a0bacd1cb2e,right,-1,0.5643,0.35,2,0.01967768,1.0486,,,,,,58,0,58,0,1,,,,,
,,193819,001,2023-07-24_19h57.33.293,arm3_q,2022.2.5,MacIntel,29.99940001,63ea8ec521931832f4b6b7cb,64aeaab685a29f4ca249be02,64bec96fc9b45a0bacd1cb2e,right,-1,0.5643,0.35,2,0.022348103,0.1814,,,,,,59,0,59,0,1,,,,,
,,193819,001,2023-07-24_19h57.33.293,arm3_q,2022.2.5,MacIntel,29.99940001,63ea8ec521931832f4b6b7cb,64aeaab685a29f4ca249be02,64bec96fc9b45a0bacd1cb2e,right,-1,0.5643,0.35,2,0.008266602,0.1547,,,,,,60,0,60,0,1,,,,,
,,193819,001,2023-07-24_19h57.33.293,arm3_q,2022.2.5,MacIntel,29.99940001,63ea8ec521931832f4b6b7cb,64aeaab685a29f4ca249be02,64bec96fc9b45a0bacd1cb2e,right,-1,0.5643,0.35,2,0.015078971,0.1548,,,,,,61,0,61,0,1,,,,,
,,193819,001,2023-07-24_19h57.33.293,arm3_q,2022.2.5,MacIntel,29.99940001,63ea8ec521931832f4b6b7cb,64aeaab685a29f4ca249be02,64bec96fc9b45a0bacd1cb2e,right,-1,0.5643,0.35,2,0.01592614,0.1302,,,,,,62,0,62,0,1,,,,,
,,193819,001,2023-07-24_19h57.33.293,arm3_q,2022.2.5,MacIntel,29.99940001,63ea8ec521931832f4b6b7cb,64aeaab685a29f4ca249be02,64bec96fc9b45a0bacd1cb2e,right,-1,0.5643,0.35,2,0.013235269,0.0801,,,,,,63,0,63,0,1,,,,,
,,193819,001,2023-07-24_19h57.33.293,arm3_q,2022.2.5,MacIntel,29.99940001,63ea8ec521931832f4b6b7cb,64aeaab685a29f4ca249be02,64bec96fc9b45a0bacd1cb2e,right,-1,0.5643,0.35,2,0.008382841,0.1653,,,,,,64,0,64,0,1,,,,,
,,193819,001,2023-07-24_19h57.33.293,arm3_q,2022.2.5,MacIntel,29.99940001,63ea8ec521931832f4b6b7cb,64aeaab685a29f4ca249be02,64bec96fc9b45a0bacd1cb2e,right,-1,0.5643,0.35,2,-0.010422479,0.1112,,,,,,65,0,65,0,1,,,,,
,,193819,001,2023-07-24_19h57.33.293,arm3_q,2022.2.5,MacIntel,29.99940001,63ea8ec521931832f4b6b7cb,64aeaab685a29f4ca249be02,64bec96fc9b45a0bacd1cb2e,right,-1,0.5643,0.35,2,-0.04676995,0.1344,,,,,,66,0,66,0,1,,,,,
,,193819,001,2023-07-24_19h57.33.293,arm3_q,2022.2.5,MacIntel,29.99940001,63ea8ec521931832f4b6b7cb,64aeaab685a29f4ca249be02,64bec96fc9b45a0bacd1cb2e,right,-1,0.5643,0.35,2,-0.050500643,0.1073,,,,,,67,0,67,0,1,,,,,
,,193819,001,2023-07-24_19h57.33.293,arm3_q,2022.2.5,MacIntel,29.99940001,63ea8ec521931832f4b6b7cb,64aeaab685a29f4ca249be02,64bec96fc9b45a0bacd1cb2e,up,-1,0.5643,0.35,2,0,0.6311,,,,,,68,0,68,0,1,,,,,
,,193819,001,2023-07-24_19h57.33.293,arm3_q,2022.2.5,MacIntel,29.99940001,63ea8ec521931832f4b6b7cb,64aeaab685a29f4ca249be02,64bec96fc9b45a0bacd1cb2e,right,-1,0.5643,0.35,2,0.004677707,0.7439,,,,,,69,0,69,0,1,,,,,
,,193819,001,2023-07-24_19h57.33.293,arm3_q,2022.2.5,MacIntel,29.99940001,63ea8ec521931832f4b6b7cb,64aeaab685a29f4ca249be02,64bec96fc9b45a0bacd1cb2e,right,-1,0.5643,0.35,2,-0.006905296,0.3313,,,,,,70,0,70,0,1,,,,,
,,193819,001,2023-07-24_19h57.33.293,arm3_q,2022.2.5,MacIntel,29.99940001,63ea8ec521931832f4b6b7cb,64aeaab685a29f4ca249be02,64bec96fc9b45a0bacd1cb2e,right,-1,0.5643,0.35,2,-0.00764149,0.2034,,,,,,71,0,71,0,1,,,,,
,,193819,001,2023-07-24_19h57.33.293,arm3_q,2022.2.5,MacIntel,29.99940001,63ea8ec521931832f4b6b7cb,64aeaab685a29f4ca249be02,64bec96fc9b45a0bacd1cb2e,right,-1,0.5643,0.35,2,-0.054663273,0.134,,,,,,72,0,72,0,1,,,,,
,,193819,001,2023-07-24_19h57.33.293,arm3_q,2022.2.5,MacIntel,29.99940001,63ea8ec521931832f4b6b7cb,64aeaab685a29f4ca249be02,64bec96fc9b45a0bacd1cb2e,right,-1,0.5643,0.35,2,-0.057005976,0.1533,,,,,,73,0,73,0,1,,,,,
,,193819,001,2023-07-24_19h57.33.293,arm3_q,2022.2.5,MacIntel,29.99940001,63ea8ec521931832f4b6b7cb,64aeaab685a29f4ca249be02,64bec96fc9b45a0bacd1cb2e,right,-1,0.5643,0.35,2,-0.079009556,0.1298,,,,,,74,0,74,0,1,,,,,
,,193819,001,2023-07-24_19h57.33.293,arm3_q,2022.2.5,MacIntel,29.99940001,63ea8ec521931832f4b6b7cb,64aeaab685a29f4ca249be02,64bec96fc9b45a0bacd1cb2e,right,-1,0.5643,0.35,2,-0.097433517,0.1323,,,,,,75,0,75,0,1,,,,,
,,193819,001,2023-07-24_19h57.33.293,arm3_q,2022.2.5,MacIntel,29.99940001,63ea8ec521931832f4b6b7cb,64aeaab685a29f4ca249be02,64bec96fc9b45a0bacd1cb2e,right,-1,0.5643,0.35,2,-0.111349849,0.1302,,,,,,76,0,76,0,1,,,,,
,,193819,001,2023-07-24_19h57.33.293,arm3_q,2022.2.5,MacIntel,29.99940001,63ea8ec521931832f4b6b7cb,64aeaab685a29f4ca249be02,64bec96fc9b45a0bacd1cb2e,down,-1,0.5643,0.35,3,0,0.2047,,,,,,77,0,77,0,1,,,,,
,,193819,001,2023-07-24_19h57.33.293,arm3_q,2022.2.5,MacIntel,29.99940001,63ea8ec521931832f4b6b7cb,64aeaab685a29f4ca249be02,64bec96fc9b45a0bacd1cb2e,right,-1,0.5643,0.35,3,-0.034879539,1.7755,,,,,,78,0,78,0,1,,,,,
,,193819,001,2023-07-24_19h57.33.293,arm3_q,2022.2.5,MacIntel,29.99940001,63ea8ec521931832f4b6b7cb,64aeaab685a29f4ca249be02,64bec96fc9b45a0bacd1cb2e,right,-1,0.5643,0.35,3,-0.062007516,0.2676,,,,,,79,0,79,0,1,,,,,
,,193819,001,2023-07-24_19h57.33.293,arm3_q,2022.2.5,MacIntel,29.99940001,63ea8ec521931832f4b6b7cb,64aeaab685a29f4ca249be02,64bec96fc9b45a0bacd1cb2e,right,-1,0.5643,0.35,3,-0.073646768,0.3986,,,,,,80,0,80,0,1,,,,,
,,193819,001,2023-07-24_19h57.33.293,arm3_q,2022.2.5,MacIntel,29.99940001,63ea8ec521931832f4b6b7cb,64aeaab685a29f4ca249be02,64bec96fc9b45a0bacd1cb2e,down,-1,0.5643,0.35,4,0,0.3278,,,,,,81,0,81,0,1,,,,,
,,193819,001,2023-07-24_19h57.33.293,arm3_q,2022.2.5,MacIntel,29.99940001,63ea8ec521931832f4b6b7cb,64aeaab685a29f4ca249be02,64bec96fc9b45a0bacd1cb2e,right,-1,0.5643,0.35,4,-0.00797389,1.824,,,,,,82,0,82,0,1,,,,,
,,193819,001,2023-07-24_19h57.33.293,arm3_q,2022.2.5,MacIntel,29.99940001,63ea8ec521931832f4b6b7cb,64aeaab685a29f4ca249be02,64bec96fc9b45a0bacd1cb2e,right,-1,0.5643,0.35,4,-0.027510705,0.3445,,,,,,83,0,83,0,1,,,,,
,,193819,001,2023-07-24_19h57.33.293,arm3_q,2022.2.5,MacIntel,29.99940001,63ea8ec521931832f4b6b7cb,64aeaab685a29f4ca249be02,64bec96fc9b45a0bacd1cb2e,right,-1,0.5643,0.35,4,-0.031921799,0.3703,,,,,,84,0,84,0,1,,,,,
,,193819,001,2023-07-24_19h57.33.293,arm3_q,2022.2.5,MacIntel,29.99940001,63ea8ec521931832f4b6b7cb,64aeaab685a29f4ca249be02,64bec96fc9b45a0bacd1cb2e,right,-1,0.5643,0.35,4,-0.032505771,0.4048,,,,,,85,0,85,0,1,,,,,
,,193819,001,2023-07-24_19h57.33.293,arm3_q,2022.2.5,MacIntel,29.99940001,63ea8ec521931832f4b6b7cb,64aeaab685a29f4ca249be02,64bec96fc9b45a0bacd1cb2e,right,-1,0.5643,0.35,4,-0.030542262,0.3471,,,,,,86,0,86,0,1,,,,,
,,193819,001,2023-07-24_19h57.33.293,arm3_q,2022.2.5,MacIntel,29.99940001,63ea8ec521931832f4b6b7cb,64aeaab685a29f4ca249be02,64bec96fc9b45a0bacd1cb2e,right,-1,0.5643,0.35,4,-0.050756015,0.2649,,,,,,87,0,87,0,1,,,,,
,,193819,001,2023-07-24_19h57.33.293,arm3_q,2022.2.5,MacIntel,29.99940001,63ea8ec521931832f4b6b7cb,64aeaab685a29f4ca249be02,64bec96fc9b45a0bacd1cb2e,down,-1,0.5643,0.35,5,0,0.4315,,,,,,88,0,88,0,1,,,,,
,,193819,001,2023-07-24_19h57.33.293,arm3_q,2022.2.5,MacIntel,29.99940001,63ea8ec521931832f4b6b7cb,64aeaab685a29f4ca249be02,64bec96fc9b45a0bacd1cb2e,right,-1,0.5643,0.35,5,-0.014371153,0.9188,,,,,,89,0,89,0,1,,,,,
,,193819,001,2023-07-24_19h57.33.293,arm3_q,2022.2.5,MacIntel,29.99940001,63ea8ec521931832f4b6b7cb,64aeaab685a29f4ca249be02,64bec96fc9b45a0bacd1cb2e,right,-1,0.5643,0.35,5,-0.008826364,0.3958,,,,,,90,0,90,0,1,,,,,
,,193819,001,2023-07-24_19h57.33.293,arm3_q,2022.2.5,MacIntel,29.99940001,63ea8ec521931832f4b6b7cb,64aeaab685a29f4ca249be02,64bec96fc9b45a0bacd1cb2e,right,-1,0.5643,0.35,5,-0.010634489,0.2986,,,,,,91,0,91,0,1,,,,,
,,193819,001,2023-07-24_19h57.33.293,arm3_q,2022.2.5,MacIntel,29.99940001,63ea8ec521931832f4b6b7cb,64aeaab685a29f4ca249be02,64bec96fc9b45a0bacd1cb2e,right,-1,0.5643,0.35,5,-0.013202186,0.2545,,,,,,92,0,92,0,1,,,,,
,,193819,001,2023-07-24_19h57.33.293,arm3_q,2022.2.5,MacIntel,29.99940001,63ea8ec521931832f4b6b7cb,64aeaab685a29f4ca249be02,64bec96fc9b45a0bacd1cb2e,right,-1,0.5643,0.35,5,-0.033260612,0.361,,,,,,93,0,93,0,1,,,,,
,,193819,001,2023-07-24_19h57.33.293,arm3_q,2022.2.5,MacIntel,29.99940001,63ea8ec521931832f4b6b7cb,64aeaab685a29f4ca249be02,64bec96fc9b45a0bacd1cb2e,down,1,0.5643,0.35,5,0,0.6166,,,,,,94,0,94,0,1,,,,,
,,193819,001,2023-07-24_19h57.33.293,arm3_q,2022.2.5,MacIntel,29.99940001,63ea8ec521931832f4b6b7cb,64aeaab685a29f4ca249be02,64bec96fc9b45a0bacd1cb2e,right,1,0.5643,0.35,5,-0.006337051,2.6338,,,,,,95,0,95,0,1,,,,,
,,193819,001,2023-07-24_19h57.33.293,arm3_q,2022.2.5,MacIntel,29.99940001,63ea8ec521931832f4b6b7cb,64aeaab685a29f4ca249be02,64bec96fc9b45a0bacd1cb2e,right,1,0.5643,0.35,5,-0.03117866,0.2164,,,,,,96,0,96,0,1,,,,,
,,193819,001,2023-07-24_19h57.33.293,arm3_q,2022.2.5,MacIntel,29.99940001,63ea8ec521931832f4b6b7cb,64aeaab685a29f4ca249be02,64bec96fc9b45a0bacd1cb2e,right,1,0.5643,0.35,5,-0.049440319,0.1491,,,,,,97,0,97,0,1,,,,,
,,193819,001,2023-07-24_19h57.33.293,arm3_q,2022.2.5,MacIntel,29.99940001,63ea8ec521931832f4b6b7cb,64aeaab685a29f4ca249be02,64bec96fc9b45a0bacd1cb2e,right,1,0.5643,0.35,5,-0.060586431,0.1702,,,,,,98,0,98,0,1,,,,,
,,193819,001,2023-07-24_19h57.33.293,arm3_q,2022.2.5,MacIntel,29.99940001,63ea8ec521931832f4b6b7cb,64aeaab685a29f4ca249be02,64bec96fc9b45a0bacd1cb2e,down,1,0.5643,0.35,4,0,0.2667,,,,,,99,0,99,0,1,,,,,
,,193819,001,2023-07-24_19h57.33.293,arm3_q,2022.2.5,MacIntel,29.99940001,63ea8ec521931832f4b6b7cb,64aeaab685a29f4ca249be02,64bec96fc9b45a0bacd1cb2e,right,1,0.5643,0.35,4,0.010132861,0.8416,,,,,,100,0,100,0,1,,,,,
,,193819,001,2023-07-24_19h57.33.293,arm3_q,2022.2.5,MacIntel,29.99940001,63ea8ec521931832f4b6b7cb,64aeaab685a29f4ca249be02,64bec96fc9b45a0bacd1cb2e,right,1,0.5643,0.35,4,0.00298005,0.2819,,,,,,101,0,101,0,1,,,,,
,,193819,001,2023-07-24_19h57.33.293,arm3_q,2022.2.5,MacIntel,29.99940001,63ea8ec521931832f4b6b7cb,64aeaab685a29f4ca249be02,64bec96fc9b45a0bacd1cb2e,right,1,0.5643,0.35,4,0.001897492,0.3658,,,,,,102,0,102,0,1,,,,,
,,193819,001,2023-07-24_19h57.33.293,arm3_q,2022.2.5,MacIntel,29.99940001,63ea8ec521931832f4b6b7cb,64aeaab685a29f4ca249be02,64bec96fc9b45a0bacd1cb2e,up,-1,0.5643,0.35,4,0,0.3364,,,,,,103,0,103,0,1,,,,,
,,193819,001,2023-07-24_19h57.33.293,arm3_q,2022.2.5,MacIntel,29.99940001,63ea8ec521931832f4b6b7cb,64aeaab685a29f4ca249be02,64bec96fc9b45a0bacd1cb2e,right,-1,0.5643,0.35,4,0.003212769,0.7183,,,,,,104,0,104,0,1,,,,,
,,193819,001,2023-07-24_19h57.33.293,arm3_q,2022.2.5,MacIntel,29.99940001,63ea8ec521931832f4b6b7cb,64aeaab685a29f4ca249be02,64bec96fc9b45a0bacd1cb2e,right,-1,0.5643,0.35,4,-0.013076073,0.1938,,,,,,105,0,105,0,1,,,,,
,,193819,001,2023-07-24_19h57.33.293,arm3_q,2022.2.5,MacIntel,29.99940001,63ea8ec521931832f4b6b7cb,64aeaab685a29f4ca249be02,64bec96fc9b45a0bacd1cb2e,right,-1,0.5643,0.35,4,-0.04475313,0.1358,,,,,,106,0,106,0,1,,,,,
,,193819,001,2023-07-24_19h57.33.293,arm3_q,2022.2.5,MacIntel,29.99940001,63ea8ec521931832f4b6b7cb,64aeaab685a29f4ca249be02,64bec96fc9b45a0bacd1cb2e,down,-1,0.5643,0.35,5,0,0.1994,,,,,,107,0,107,0,1,,,,,
,,193819,001,2023-07-24_19h57.33.293,arm3_q,2022.2.5,MacIntel,29.99940001,63ea8ec521931832f4b6b7cb,64aeaab685a29f4ca249be02,64bec96fc9b45a0bacd1cb2e,right,-1,0.5643,0.35,5,-0.017552044,1.4887,,,,,,108,0,108,0,1,,,,,
,,193819,001,2023-07-24_19h57.33.293,arm3_q,2022.2.5,MacIntel,29.99940001,63ea8ec521931832f4b6b7cb,64aeaab685a29f4ca249be02,64bec96fc9b45a0bacd1cb2e,right,-1,0.5643,0.35,5,-0.031376951,0.3104,,,,,,109,0,109,0,1,,,,,
,,193819,001,2023-07-24_19h57.33.293,arm3_q,2022.2.5,MacIntel,29.99940001,63ea8ec521931832f4b6b7cb,64aeaab685a29f4ca249be02,64bec96fc9b45a0bacd1cb2e,right,-1,0.5643,0.35,5,-0.061865986,0.1975,,,,,,110,0,110,0,1,,,,,
,,193819,001,2023-07-24_19h57.33.293,arm3_q,2022.2.5,MacIntel,29.99940001,63ea8ec521931832f4b6b7cb,64aeaab685a29f4ca249be02,64bec96fc9b45a0bacd1cb2e,right,-1,0.5643,0.35,5,-0.084043883,0.146,,,,,,111,0,111,0,1,,,,,
,,193819,001,2023-07-24_19h57.33.293,arm3_q,2022.2.5,MacIntel,29.99940001,63ea8ec521931832f4b6b7cb,64aeaab685a29f4ca249be02,64bec96fc9b45a0bacd1cb2e,right,-1,0.5643,0.35,5,-0.087065725,0.2998,,,,,,112,0,112,0,1,,,,,
,,193819,001,2023-07-24_19h57.33.293,arm3_q,2022.2.5,MacIntel,29.99940001,63ea8ec521931832f4b6b7cb,64aeaab685a29f4ca249be02,64bec96fc9b45a0bacd1cb2e,right,-1,0.5643,0.35,5,-0.108347181,0.2334,,,,,,113,0,113,0,1,,,,,
,,193819,001,2023-07-24_19h57.33.293,arm3_q,2022.2.5,MacIntel,29.99940001,63ea8ec521931832f4b6b7cb,64aeaab685a29f4ca249be02,64bec96fc9b45a0bacd1cb2e,right,-1,0.5643,0.35,5,-0.13148617,0.1665,,,,,,114,0,114,0,1,,,,,
,,193819,001,2023-07-24_19h57.33.293,arm3_q,2022.2.5,MacIntel,29.99940001,63ea8ec521931832f4b6b7cb,64aeaab685a29f4ca249be02,64bec96fc9b45a0bacd1cb2e,down,-1,0.5643,0.35,6,0,0.1834,,,,,,115,0,115,0,1,,,,,
,,193819,001,2023-07-24_19h57.33.293,arm3_q,2022.2.5,MacIntel,29.99940001,63ea8ec521931832f4b6b7cb,64aeaab685a29f4ca249be02,64bec96fc9b45a0bacd1cb2e,right,-1,0.5643,0.35,6,-0.002140758,0.9482,,,,,,116,0,116,0,1,,,,,
,,193819,001,2023-07-24_19h57.33.293,arm3_q,2022.2.5,MacIntel,29.99940001,63ea8ec521931832f4b6b7cb,64aeaab685a29f4ca249be02,64bec96fc9b45a0bacd1cb2e,right,-1,0.5643,0.35,6,-0.014136303,0.3125,,,,,,117,0,117,0,1,,,,,
,,193819,001,2023-07-24_19h57.33.293,arm3_q,2022.2.5,MacIntel,29.99940001,63ea8ec521931832f4b6b7cb,64aeaab685a29f4ca249be02,64bec96fc9b45a0bacd1cb2e,right,-1,0.5643,0.35,6,-0.03997499,0.2274,,,,,,118,0,118,0,1,,,,,
,,193819,001,2023-07-24_19h57.33.293,arm3_q,2022.2.5,MacIntel,29.99940001,63ea8ec521931832f4b6b7cb,64aeaab685a29f4ca249be02,64bec96fc9b45a0bacd1cb2e,right,-1,0.5643,0.35,6,-0.069669804,0.1976,,,,,,119,0,119,0,1,,,,,
,,193819,001,2023-07-24_19h57.33.293,arm3_q,2022.2.5,MacIntel,29.99940001,63ea8ec521931832f4b6b7cb,64aeaab685a29f4ca249be02,64bec96fc9b45a0bacd1cb2e,right,-1,0.5643,0.35,6,-0.084050017,0.1119,,,,,,120,0,120,0,1,,,,,
,,193819,001,2023-07-24_19h57.33.293,arm3_q,2022.2.5,MacIntel,29.99940001,63ea8ec521931832f4b6b7cb,64aeaab685a29f4ca249be02,64bec96fc9b45a0bacd1cb2e,right,-1,0.5643,0.35,6,-0.072779609,0.3597,,,,,,121,0,121,0,1,,,,,
,,193819,001,2023-07-24_19h57.33.293,arm3_q,2022.2.5,MacIntel,29.99940001,63ea8ec521931832f4b6b7cb,64aeaab685a29f4ca249be02,64bec96fc9b45a0bacd1cb2e,right,-1,0.5643,0.35,6,-0.106506949,0.281,,,,,,122,0,122,0,1,,,,,
,,193819,001,2023-07-24_19h57.33.293,arm3_q,2022.2.5,MacIntel,29.99940001,63ea8ec521931832f4b6b7cb,64aeaab685a29f4ca249be02,64bec96fc9b45a0bacd1cb2e,down,-1,0.5643,0.35,7,0,0.2318,,,,,,123,0,123,0,1,,,,,
,,193819,001,2023-07-24_19h57.33.293,arm3_q,2022.2.5,MacIntel,29.99940001,63ea8ec521931832f4b6b7cb,64aeaab685a29f4ca249be02,64bec96fc9b45a0bacd1cb2e,right,-1,0.5643,0.35,7,-0.022723867,0.8802,,,,,,124,0,124,0,1,,,,,
,,193819,001,2023-07-24_19h57.33.293,arm3_q,2022.2.5,MacIntel,29.99940001,63ea8ec521931832f4b6b7cb,64aeaab685a29f4ca249be02,64bec96fc9b45a0bacd1cb2e,right,-1,0.5643,0.35,7,0.003576062,0.2609,,,,,,125,0,125,0,1,,,,,
,,193819,001,2023-07-24_19h57.33.293,arm3_q,2022.2.5,MacIntel,29.99940001,63ea8ec521931832f4b6b7cb,64aeaab685a29f4ca249be02,64bec96fc9b45a0bacd1cb2e,right,-1,0.5643,0.35,7,0.010800792,0.2524,,,,,,126,0,126,0,1,,,,,
,,193819,001,2023-07-24_19h57.33.293,arm3_q,2022.2.5,MacIntel,29.99940001,63ea8ec521931832f4b6b7cb,64aeaab685a29f4ca249be02,64bec96fc9b45a0bacd1cb2e,right,-1,0.5643,0.35,7,-0.022783884,0.2643,,,,,,127,0,127,0,1,,,,,
,,193819,001,2023-07-24_19h57.33.293,arm3_q,2022.2.5,MacIntel,29.99940001,63ea8ec521931832f4b6b7cb,64aeaab685a29f4ca249be02,64bec96fc9b45a0bacd1cb2e,right,-1,0.5643,0.35,7,-0.01007325,0.3198,,,,,,128,0,128,0,1,,,,,
,,193819,001,2023-07-24_19h57.33.293,arm3_q,2022.2.5,MacIntel,29.99940001,63ea8ec521931832f4b6b7cb,64aeaab685a29f4ca249be02,64bec96fc9b45a0bacd1cb2e,right,-1,0.5643,0.35,7,-0.02677597,0.1675,,,,,,129,0,129,0,1,,,,,
,,193819,001,2023-07-24_19h57.33.293,arm3_q,2022.2.5,MacIntel,29.99940001,63ea8ec521931832f4b6b7cb,64aeaab685a29f4ca249be02,64bec96fc9b45a0bacd1cb2e,right,-1,0.5643,0.35,7,-0.052916492,0.1829,,,,,,130,0,130,0,1,,,,,
,,193819,001,2023-07-24_19h57.33.293,arm3_q,2022.2.5,MacIntel,29.99940001,63ea8ec521931832f4b6b7cb,64aeaab685a29f4ca249be02,64bec96fc9b45a0bacd1cb2e,right,-1,0.5643,0.35,7,-0.063716763,0.1649,,,,,,131,0,131,0,1,,,,,
,,193819,001,2023-07-24_19h57.33.293,arm3_q,2022.2.5,MacIntel,29.99940001,63ea8ec521931832f4b6b7cb,64aeaab685a29f4ca249be02,64bec96fc9b45a0bacd1cb2e,right,-1,0.5643,0.35,7,-0.075536769,0.3447,,,,,,132,0,132,0,1,,,,,
,,193819,001,2023-07-24_19h57.33.293,arm3_q,2022.2.5,MacIntel,29.99940001,63ea8ec521931832f4b6b7cb,64aeaab685a29f4ca249be02,64bec96fc9b45a0bacd1cb2e,down,-1,0.5643,0.35,8,0,0.4272,,,,,,133,0,133,0,1,,,,,
,,193819,001,2023-07-24_19h57.33.293,arm3_q,2022.2.5,MacIntel,29.99940001,63ea8ec521931832f4b6b7cb,64aeaab685a29f4ca249be02,64bec96fc9b45a0bacd1cb2e,right,-1,0.5643,0.35,8,-0.000971153,1.4305,,,,,,134,0,134,0,1,,,,,
,,193819,001,2023-07-24_19h57.33.293,arm3_q,2022.2.5,MacIntel,29.99940001,63ea8ec521931832f4b6b7cb,64aeaab685a29f4ca249be02,64bec96fc9b45a0bacd1cb2e,right,-1,0.5643,0.35,8,-0.033176479,0.2939,,,,,,135,0,135,0,1,,,,,
,,193819,001,2023-07-24_19h57.33.293,arm3_q,2022.2.5,MacIntel,29.99940001,63ea8ec521931832f4b6b7cb,64aeaab685a29f4ca249be02,64bec96fc9b45a0bacd1cb2e,right,-1,0.5643,0.35,8,-0.026262291,0.2964,,,,,,136,0,136,0,1,,,,,
,,193819,001,2023-07-24_19h57.33.293,arm3_q,2022.2.5,MacIntel,29.99940001,63ea8ec521931832f4b6b7cb,64aeaab685a29f4ca249be02,64bec96fc9b45a0bacd1cb2e,right,-1,0.5643,0.35,8,-0.044690469,0.2324,,,,,,137,0,137,0,1,,,,,
,,193819,001,2023-07-24_19h57.33.293,arm3_q,2022.2.5,MacIntel,29.99940001,63ea8ec521931832f4b6b7cb,64aeaab685a29f4ca249be02,64bec96fc9b45a0bacd1cb2e,right,-1,0.5643,0.35,8,-0.076388118,0.2108,,,,,,138,0,138,0,1,,,,,
,,193819,001,2023-07-24_19h57.33.293,arm3_q,2022.2.5,MacIntel,29.99940001,63ea8ec521931832f4b6b7cb,64aeaab685a29f4ca249be02,64bec96fc9b45a0bacd1cb2e,down,1,0.5643,0.35,8,0,0.2275,,,,,,139,0,139,0,1,,,,,
,,193819,001,2023-07-24_19h57.33.293,arm3_q,2022.2.5,MacIntel,29.99940001,63ea8ec521931832f4b6b7cb,64aeaab685a29f4ca249be02,64bec96fc9b45a0bacd1cb2e,right,1,0.5643,0.35,8,-0.001737622,0.99,,,,,,140,0,140,0,1,,,,,
,,193819,001,2023-07-24_19h57.33.293,arm3_q,2022.2.5,MacIntel,29.99940001,63ea8ec521931832f4b6b7cb,64aeaab685a29f4ca249be02,64bec96fc9b45a0bacd1cb2e,right,1,0.5643,0.35,8,0.01294869,0.3634,,,,,,141,0,141,0,1,,,,,
,,193819,001,2023-07-24_19h57.33.293,arm3_q,2022.2.5,MacIntel,29.99940001,63ea8ec521931832f4b6b7cb,64aeaab685a29f4ca249be02,64bec96fc9b45a0bacd1cb2e,right,1,0.5643,0.35,8,0.031107114,0.1422,,,,,,142,0,142,0,1,,,,,
,,193819,001,2023-07-24_19h57.33.293,arm3_q,2022.2.5,MacIntel,29.99940001,63ea8ec521931832f4b6b7cb,64aeaab685a29f4ca249be02,64bec96fc9b45a0bacd1cb2e,right,1,0.5643,0.35,8,0.047231772,0.3321,,,,,,143,0,143,0,1,,,,,
,,193819,001,2023-07-24_19h57.33.293,arm3_q,2022.2.5,MacIntel,29.99940001,63ea8ec521931832f4b6b7cb,64aeaab685a29f4ca249be02,64bec96fc9b45a0bacd1cb2e,up,1,0.5643,0.35,8,0,0.4713,,,,,,144,0,144,0,1,,,,,
,,193819,001,2023-07-24_19h57.33.293,arm3_q,2022.2.5,MacIntel,29.99940001,63ea8ec521931832f4b6b7cb,64aeaab685a29f4ca249be02,64bec96fc9b45a0bacd1cb2e,right,1,0.5643,0.35,8,-0.054229169,0.7284,,,,,,145,0,145,0,1,,,,,
,,193819,001,2023-07-24_19h57.33.293,arm3_q,2022.2.5,MacIntel,29.99940001,63ea8ec521931832f4b6b7cb,64aeaab685a29f4ca249be02,64bec96fc9b45a0bacd1cb2e,right,1,0.5643,0.35,8,-0.064270507,0.3956,,,,,,146,0,146,0,1,,,,,
,,193819,001,2023-07-24_19h57.33.293,arm3_q,2022.2.5,MacIntel,29.99940001,63ea8ec521931832f4b6b7cb,64aeaab685a29f4ca249be02,64bec96fc9b45a0bacd1cb2e,right,1,0.5643,0.35,8,-0.054536026,0.1494,,,,,,147,0,147,0,1,,,,,
,,193819,001,2023-07-24_19h57.33.293,arm3_q,2022.2.5,MacIntel,29.99940001,63ea8ec521931832f4b6b7cb,64aeaab685a29f4ca249be02,64bec96fc9b45a0bacd1cb2e,right,1,0.5643,0.35,8,-0.076206087,0.1666,,,,,,148,0,148,0,1,,,,,
,,193819,001,2023-07-24_19h57.33.293,arm3_q,2022.2.5,MacIntel,29.99940001,63ea8ec521931832f4b6b7cb,64aeaab685a29f4ca249be02,64bec96fc9b45a0bacd1cb2e,right,1,0.5643,0.35,8,-0.069014276,0.1769,,,,,,149,0,149,0,1,,,,,
,,193819,001,2023-07-24_19h57.33.293,arm3_q,2022.2.5,MacIntel,29.99940001,63ea8ec521931832f4b6b7cb,64aeaab685a29f4ca249be02,64bec96fc9b45a0bacd1cb2e,right,1,0.5643,0.35,8,-0.028588245,0.1646,,,,,,150,0,150,0,1,,,,,
,,193819,001,2023-07-24_19h57.33.293,arm3_q,2022.2.5,MacIntel,29.99940001,63ea8ec521931832f4b6b7cb,64aeaab685a29f4ca249be02,64bec96fc9b45a0bacd1cb2e,up,1,0.5643,0.35,8,0,0.6199,,,,,,151,0,151,0,1,,,,,
,,193819,001,2023-07-24_19h57.33.293,arm3_q,2022.2.5,MacIntel,29.99940001,63ea8ec521931832f4b6b7cb,64aeaab685a29f4ca249be02,64bec96fc9b45a0bacd1cb2e,right,1,0.5643,0.35,8,-0.027870025,0.7291,,,,,,152,0,152,0,1,,,,,
,,193819,001,2023-07-24_19h57.33.293,arm3_q,2022.2.5,MacIntel,29.99940001,63ea8ec521931832f4b6b7cb,64aeaab685a29f4ca249be02,64bec96fc9b45a0bacd1cb2e,right,1,0.5643,0.35,8,-0.017000048,0.1949,,,,,,153,0,153,0,1,,,,,
,,193819,001,2023-07-24_19h57.33.293,arm3_q,2022.2.5,MacIntel,29.99940001,63ea8ec521931832f4b6b7cb,64aeaab685a29f4ca249be02,64bec96fc9b45a0bacd1cb2e,right,1,0.5643,0.35,8,-0.021789249,0.1175,,,,,,154,0,154,0,1,,,,,
,,193819,001,2023-07-24_19h57.33.293,arm3_q,2022.2.5,MacIntel,29.99940001,63ea8ec521931832f4b6b7cb,64aeaab685a29f4ca249be02,64bec96fc9b45a0bacd1cb2e,right,1,0.5643,0.35,8,-0.005985781,0.179,,,,,,155,0,155,0,1,,,,,
,,193819,001,2023-07-24_19h57.33.293,arm3_q,2022.2.5,MacIntel,29.99940001,63ea8ec521931832f4b6b7cb,64aeaab685a29f4ca249be02,64bec96fc9b45a0bacd1cb2e,right,1,0.5643,0.35,8,-0.003276374,0.129,,,,,,156,0,156,0,1,,,,,
,,193819,001,2023-07-24_19h57.33.293,arm3_q,2022.2.5,MacIntel,29.99940001,63ea8ec521931832f4b6b7cb,64aeaab685a29f4ca249be02,64bec96fc9b45a0bacd1cb2e,right,1,0.5643,0.35,8,-0.007508434,0.1452,,,,,,157,0,157,0,1,,,,,
,,193819,001,2023-07-24_19h57.33.293,arm3_q,2022.2.5,MacIntel,29.99940001,63ea8ec521931832f4b6b7cb,64aeaab685a29f4ca249be02,64bec96fc9b45a0bacd1cb2e,right,1,0.5643,0.35,8,-0.00841378,0.1642,,,,,,158,0,158,0,1,,,,,
,,193819,001,2023-07-24_19h57.33.293,arm3_q,2022.2.5,MacIntel,29.99940001,63ea8ec521931832f4b6b7cb,64aeaab685a29f4ca249be02,64bec96fc9b45a0bacd1cb2e,right,1,0.5643,0.35,8,-0.045934927,0.2422,,,,,,159,0,159,0,1,,,,,
,,193819,001,2023-07-24_19h57.33.293,arm3_q,2022.2.5,MacIntel,29.99940001,63ea8ec521931832f4b6b7cb,64aeaab685a29f4ca249be02,64bec96fc9b45a0bacd1cb2e,up,1,0.5643,0.35,8,0,0.778,,,,,,160,0,160,0,1,,,,,
,,193819,001,2023-07-24_19h57.33.293,arm3_q,2022.2.5,MacIntel,29.99940001,63ea8ec521931832f4b6b7cb,64aeaab685a29f4ca249be02,64bec96fc9b45a0bacd1cb2e,right,1,0.5643,0.35,8,0.020234066,1.1584,,,,,,161,0,161,0,1,,,,,
,,193819,001,2023-07-24_19h57.33.293,arm3_q,2022.2.5,MacIntel,29.99940001,63ea8ec521931832f4b6b7cb,64aeaab685a29f4ca249be02,64bec96fc9b45a0bacd1cb2e,right,1,0.5643,0.35,8,0.039473087,0.2098,,,,,,162,0,162,0,1,,,,,
,,193819,001,2023-07-24_19h57.33.293,arm3_q,2022.2.5,MacIntel,29.99940001,63ea8ec521931832f4b6b7cb,64aeaab685a29f4ca249be02,64bec96fc9b45a0bacd1cb2e,right,1,0.5643,0.35,8,0.033104473,0.1673,,,,,,163,0,163,0,1,,,,,
,,193819,001,2023-07-24_19h57.33.293,arm3_q,2022.2.5,MacIntel,29.99940001,63ea8ec521931832f4b6b7cb,64aeaab685a29f4ca249be02,64bec96fc9b45a0bacd1cb2e,right,1,0.5643,0.35,8,0.05232404,0.262,,,,,,164,0,164,0,1,,,,,
,,193819,001,2023-07-24_19h57.33.293,arm3_q,2022.2.5,MacIntel,29.99940001,63ea8ec521931832f4b6b7cb,64aeaab685a29f4ca249be02,64bec96fc9b45a0bacd1cb2e,right,1,0.5643,0.35,8,0.045511292,0.1895,,,,,,165,0,165,0,1,,,,,
,,193819,001,2023-07-24_19h57.33.293,arm3_q,2022.2.5,MacIntel,29.99940001,63ea8ec521931832f4b6b7cb,64aeaab685a29f4ca249be02,64bec96fc9b45a0bacd1cb2e,up,-1,0.5643,0.35,9,0,0.4113,,,,,,166,0,166,0,1,,,,,
,,193819,001,2023-07-24_19h57.33.293,arm3_q,2022.2.5,MacIntel,29.99940001,63ea8ec521931832f4b6b7cb,64aeaab685a29f4ca249be02,64bec96fc9b45a0bacd1cb2e,right,-1,0.5643,0.35,9,-0.002498786,0.9474,,,,,,167,0,167,0,1,,,,,
,,193819,001,2023-07-24_19h57.33.293,arm3_q,2022.2.5,MacIntel,29.99940001,63ea8ec521931832f4b6b7cb,64aeaab685a29f4ca249be02,64bec96fc9b45a0bacd1cb2e,right,-1,0.5643,0.35,9,0.003544516,0.3472,,,,,,168,0,168,0,1,,,,,
,,193819,001,2023-07-24_19h57.33.293,arm3_q,2022.2.5,MacIntel,29.99940001,63ea8ec521931832f4b6b7cb,64aeaab685a29f4ca249be02,64bec96fc9b45a0bacd1cb2e,right,-1,0.5643,0.35,9,-0.011290462,0.2349,,,,,,169,0,169,0,1,,,,,
,,193819,001,2023-07-24_19h57.33.293,arm3_q,2022.2.5,MacIntel,29.99940001,63ea8ec521931832f4b6b7cb,64aeaab685a29f4ca249be02,64bec96fc9b45a0bacd1cb2e,right,-1,0.5643,0.35,9,-0.047923485,0.2311,,,,,,170,0,170,0,1,,,,,
,,193819,001,2023-07-24_19h57.33.293,arm3_q,2022.2.5,MacIntel,29.99940001,63ea8ec521931832f4b6b7cb,64aeaab685a29f4ca249be02,64bec96fc9b45a0bacd1cb2e,right,-1,0.5643,0.35,9,-0.035332999,0.1621,,,,,,171,0,171,0,1,,,,,
,,193819,001,2023-07-24_19h57.33.293,arm3_q,2022.2.5,MacIntel,29.99940001,63ea8ec521931832f4b6b7cb,64aeaab685a29f4ca249be02,64bec96fc9b45a0bacd1cb2e,right,-1,0.5643,0.35,9,-0.015032431,0.1433,,,,,,172,0,172,0,1,,,,,
,,193819,001,2023-07-24_19h57.33.293,arm3_q,2022.2.5,MacIntel,29.99940001,63ea8ec521931832f4b6b7cb,64aeaab685a29f4ca249be02,64bec96fc9b45a0bacd1cb2e,down,-1,0.5643,0.35,10,0,0.5467,,,,,,173,0,173,0,1,,,,,
,,193819,001,2023-07-24_19h57.33.293,arm3_q,2022.2.5,MacIntel,29.99940001,63ea8ec521931832f4b6b7cb,64aeaab685a29f4ca249be02,64bec96fc9b45a0bacd1cb2e,right,-1,0.5643,0.35,10,-0.022429203,0.7257,,,,,,174,0,174,0,1,,,,,
,,193819,001,2023-07-24_19h57.33.293,arm3_q,2022.2.5,MacIntel,29.99940001,63ea8ec521931832f4b6b7cb,64aeaab685a29f4ca249be02,64bec96fc9b45a0bacd1cb2e,right,-1,0.5643,0.35,10,-0.027694698,0.2103,,,,,,175,0,175,0,1,,,,,
,,193819,001,2023-07-24_19h57.33.293,arm3_q,2022.2.5,MacIntel,29.99940001,63ea8ec521931832f4b6b7cb,64aeaab685a29f4ca249be02,64bec96fc9b45a0bacd1cb2e,right,-1,0.5643,0.35,10,-0.047018509,0.1952,,,,,,176,0,176,0,1,,,,,
,,193819,001,2023-07-24_19h57.33.293,arm3_q,2022.2.5,MacIntel,29.99940001,63ea8ec521931832f4b6b7cb,64aeaab685a29f4ca249be02,64bec96fc9b45a0bacd1cb2e,right,-1,0.5643,0.35,10,-0.044048971,0.1769,,,,,,177,0,177,0,1,,,,,
,,193819,001,2023-07-24_19h57.33.293,arm3_q,2022.2.5,MacIntel,29.99940001,63ea8ec521931832f4b6b7cb,64aeaab685a29f4ca249be02,64bec96fc9b45a0bacd1cb2e,right,-1,0.5643,0.35,10,-0.051776092,0.1425,,,,,,178,0,178,0,1,,,,,
,,193819,001,2023-07-24_19h57.33.293,arm3_q,2022.2.5,MacIntel,29.99940001,63ea8ec521931832f4b6b7cb,64aeaab685a29f4ca249be02,64bec96fc9b45a0bacd1cb2e,down,-1,0.5643,0.35,10,0,0.2002,,,,,,179,0,179,0,1,,,,,
,,193819,001,2023-07-24_19h57.33.293,arm3_q,2022.2.5,MacIntel,29.99940001,63ea8ec521931832f4b6b7cb,64aeaab685a29f4ca249be02,64bec96fc9b45a0bacd1cb2e,right,-1,0.5643,0.35,10,-0.010799758,0.6904,,,,,,180,0,180,0,1,,,,,
,,193819,001,2023-07-24_19h57.33.293,arm3_q,2022.2.5,MacIntel,29.99940001,63ea8ec521931832f4b6b7cb,64aeaab685a29f4ca249be02,64bec96fc9b45a0bacd1cb2e,right,-1,0.5643,0.35,10,-0.029708361,0.1824,,,,,,181,0,181,0,1,,,,,
,,193819,001,2023-07-24_19h57.33.293,arm3_q,2022.2.5,MacIntel,29.99940001,63ea8ec521931832f4b6b7cb,64aeaab685a29f4ca249be02,64bec96fc9b45a0bacd1cb2e,right,-1,0.5643,0.35,10,-0.005372529,0.1142,,,,,,182,0,182,0,1,,,,,
,,193819,001,2023-07-24_19h57.33.293,arm3_q,2022.2.5,MacIntel,29.99940001,63ea8ec521931832f4b6b7cb,64aeaab685a29f4ca249be02,64bec96fc9b45a0bacd1cb2e,right,-1,0.5643,0.35,10,0.005167051,0.2018,,,,,,183,0,183,0,1,,,,,
,,193819,001,2023-07-24_19h57.33.293,arm3_q,2022.2.5,MacIntel,29.99940001,63ea8ec521931832f4b6b7cb,64aeaab685a29f4ca249be02,64bec96fc9b45a0bacd1cb2e,right,-1,0.5643,0.35,10,0.019058201,0.2602,,,,,,184,0,184,0,1,,,,,
,,193819,001,2023-07-24_19h57.33.293,arm3_q,2022.2.5,MacIntel,29.99940001,63ea8ec521931832f4b6b7cb,64aeaab685a29f4ca249be02,64bec96fc9b45a0bacd1cb2e,right,-1,0.5643,0.35,10,-0.0080788,0.2001,,,,,,185,0,185,0,1,,,,,
,,193819,001,2023-07-24_19h57.33.293,arm3_q,2022.2.5,MacIntel,29.99940001,63ea8ec521931832f4b6b7cb,64aeaab685a29f4ca249be02,64bec96fc9b45a0bacd1cb2e,right,-1,0.5643,0.35,10,-0.007276309,0.1624,,,,,,186,0,186,0,1,,,,,
,,193819,001,2023-07-24_19h57.33.293,arm3_q,2022.2.5,MacIntel,29.99940001,63ea8ec521931832f4b6b7cb,64aeaab685a29f4ca249be02,64bec96fc9b45a0bacd1cb2e,right,-1,0.5643,0.35,10,-0.03327991,0.213,,,,,,187,0,187,0,1,,,,,
,,193819,001,2023-07-24_19h57.33.293,arm3_q,2022.2.5,MacIntel,29.99940001,63ea8ec521931832f4b6b7cb,64aeaab685a29f4ca249be02,64bec96fc9b45a0bacd1cb2e,up,1,0.5643,0.35,10,0,0.2374,,,,,,188,0,188,0,1,,,,,
,,193819,001,2023-07-24_19h57.33.293,arm3_q,2022.2.5,MacIntel,29.99940001,63ea8ec521931832f4b6b7cb,64aeaab685a29f4ca249be02,64bec96fc9b45a0bacd1cb2e,right,1,0.5643,0.35,10,0.010492405,0.6654,,,,,,189,0,189,0,1,,,,,
,,193819,001,2023-07-24_19h57.33.293,arm3_q,2022.2.5,MacIntel,29.99940001,63ea8ec521931832f4b6b7cb,64aeaab685a29f4ca249be02,64bec96fc9b45a0bacd1cb2e,right,1,0.5643,0.35,10,0.002038024,0.2057,,,,,,190,0,190,0,1,,,,,
,,193819,001,2023-07-24_19h57.33.293,arm3_q,2022.2.5,MacIntel,29.99940001,63ea8ec521931832f4b6b7cb,64aeaab685a29f4ca249be02,64bec96fc9b45a0bacd1cb2e,right,1,0.5643,0.35,10,0.02212826,0.1486,,,,,,191,0,191,0,1,,,,,
,,193819,001,2023-07-24_19h57.33.293,arm3_q,2022.2.5,MacIntel,29.99940001,63ea8ec521931832f4b6b7cb,64aeaab685a29f4ca249be02,64bec96fc9b45a0bacd1cb2e,right,1,0.5643,0.35,10,0.045564111,0.1443,,,,,,192,0,192,0,1,,,,,
,,193819,001,2023-07-24_19h57.33.293,arm3_q,2022.2.5,MacIntel,29.99940001,63ea8ec521931832f4b6b7cb,64aeaab685a29f4ca249be02,64bec96fc9b45a0bacd1cb2e,right,1,0.5643,0.35,10,0.021523177,0.1687,,,,,,193,0,193,0,1,,,,,
,,193819,001,2023-07-24_19h57.33.293,arm3_q,2022.2.5,MacIntel,29.99940001,63ea8ec521931832f4b6b7cb,64aeaab685a29f4ca249be02,64bec96fc9b45a0bacd1cb2e,right,1,0.5643,0.35,10,0.056393052,0.1283,,,,,,194,0,194,0,1,,,,,
,,193819,001,2023-07-24_19h57.33.293,arm3_q,2022.2.5,MacIntel,29.99940001,63ea8ec521931832f4b6b7cb,64aeaab685a29f4ca249be02,64bec96fc9b45a0bacd1cb2e,up,-1,0.5643,0.35,10,0,0.2949,,,,,,195,0,195,0,1,,,,,
,,193819,001,2023-07-24_19h57.33.293,arm3_q,2022.2.5,MacIntel,29.99940001,63ea8ec521931832f4b6b7cb,64aeaab685a29f4ca249be02,64bec96fc9b45a0bacd1cb2e,right,-1,0.5643,0.35,10,0.036142529,0.5636,,,,,,196,0,196,0,1,,,,,
,,193819,001,2023-07-24_19h57.33.293,arm3_q,2022.2.5,MacIntel,29.99940001,63ea8ec521931832f4b6b7cb,64aeaab685a29f4ca249be02,64bec96fc9b45a0bacd1cb2e,right,-1,0.5643,0.35,10,0.043132855,0.3352,,,,,,197,0,197,0,1,,,,,
,,193819,001,2023-07-24_19h57.33.293,arm3_q,2022.2.5,MacIntel,29.99940001,63ea8ec521931832f4b6b7cb,64aeaab685a29f4ca249be02,64bec96fc9b45a0bacd1cb2e,right,-1,0.5643,0.35,10,0.044677544,0.1277,,,,,,198,0,198,0,1,,,,,
,,193819,001,2023-07-24_19h57.33.293,arm3_q,2022.2.5,MacIntel,29.99940001,63ea8ec521931832f4b6b7cb,64aeaab685a29f4ca249be02,64bec96fc9b45a0bacd1cb2e,right,-1,0.5643,0.35,10,0.077427532,0.1075,,,,,,199,0,199,0,1,,,,,
,,193819,001,2023-07-24_19h57.33.293,arm3_q,2022.2.5,MacIntel,29.99940001,63ea8ec521931832f4b6b7cb,64aeaab685a29f4ca249be02,64bec96fc9b45a0bacd1cb2e,right,-1,0.5643,0.35,10,0.04260162,0.1755,,,,,,200,0,200,0,1,,,,,
,,193819,001,2023-07-24_19h57.33.293,arm3_q,2022.2.5,MacIntel,29.99940001,63ea8ec521931832f4b6b7cb,64aeaab685a29f4ca249be02,64bec96fc9b45a0bacd1cb2e,up,-1,0.5643,0.35,10,0,0.2373,,,,,,201,0,201,0,1,,,,,
,,193819,001,2023-07-24_19h57.33.293,arm3_q,2022.2.5,MacIntel,29.99940001,63ea8ec521931832f4b6b7cb,64aeaab685a29f4ca249be02,64bec96fc9b45a0bacd1cb2e,right,-1,0.5643,0.35,10,-0.06415147,0.427,,,,,,202,0,202,0,1,,,,,
,,193819,001,2023-07-24_19h57.33.293,arm3_q,2022.2.5,MacIntel,29.99940001,63ea8ec521931832f4b6b7cb,64aeaab685a29f4ca249be02,64bec96fc9b45a0bacd1cb2e,right,-1,0.5643,0.35,10,-0.093432726,0.1489,,,,,,203,0,203,0,1,,,,,
,,193819,001,2023-07-24_19h57.33.293,arm3_q,2022.2.5,MacIntel,29.99940001,63ea8ec521931832f4b6b7cb,64aeaab685a29f4ca249be02,64bec96fc9b45a0bacd1cb2e,right,-1,0.5643,0.35,10,-0.082477535,0.2153,,,,,,204,0,204,0,1,,,,,
,,193819,001,2023-07-24_19h57.33.293,arm3_q,2022.2.5,MacIntel,29.99940001,63ea8ec521931832f4b6b7cb,64aeaab685a29f4ca249be02,64bec96fc9b45a0bacd1cb2e,right,-1,0.5643,0.35,10,-0.1112975,0.1105,,,,,,205,0,205,0,1,,,,,
,,193819,001,2023-07-24_19h57.33.293,arm3_q,2022.2.5,MacIntel,29.99940001,63ea8ec521931832f4b6b7cb,64aeaab685a29f4ca249be02,64bec96fc9b45a0bacd1cb2e,down,1,0.5643,0.35,10,0,0.3606,,,,,,206,0,206,0,1,,,,,
,,193819,001,2023-07-24_19h57.33.293,arm3_q,2022.2.5,MacIntel,29.99940001,63ea8ec521931832f4b6b7cb,64aeaab685a29f4ca249be02,64bec96fc9b45a0bacd1cb2e,right,1,0.5643,0.35,10,0.013983571,0.7771,,,,,,207,0,207,0,1,,,,,
,,193819,001,2023-07-24_19h57.33.293,arm3_q,2022.2.5,MacIntel,29.99940001,63ea8ec521931832f4b6b7cb,64aeaab685a29f4ca249be02,64bec96fc9b45a0bacd1cb2e,right,1,0.5643,0.35,10,0.034713882,0.1798,,,,,,208,0,208,0,1,,,,,
,,193819,001,2023-07-24_19h57.33.293,arm3_q,2022.2.5,MacIntel,29.99940001,63ea8ec521931832f4b6b7cb,64aeaab685a29f4ca249be02,64bec96fc9b45a0bacd1cb2e,right,1,0.5643,0.35,10,0.040341275,0.1687,,,,,,209,0,209,0,1,,,,,
,,193819,001,2023-07-24_19h57.33.293,arm3_q,2022.2.5,MacIntel,29.99940001,63ea8ec521931832f4b6b7cb,64aeaab685a29f4ca249be02,64bec96fc9b45a0bacd1cb2e,right,1,0.5643,0.35,10,0.07752448,0.1298,,,,,,210,0,210,0,1,,,,,
,,193819,001,2023-07-24_19h57.33.293,arm3_q,2022.2.5,MacIntel,29.99940001,63ea8ec521931832f4b6b7cb,64aeaab685a29f4ca249be02,64bec96fc9b45a0bacd1cb2e,up,1,0.5643,0.35,10,0,0.2804,,,,,,211,0,211,0,1,,,,,
,,193819,001,2023-07-24_19h57.33.293,arm3_q,2022.2.5,MacIntel,29.99940001,63ea8ec521931832f4b6b7cb,64aeaab685a29f4ca249be02,64bec96fc9b45a0bacd1cb2e,right,1,0.5643,0.35,10,0.008127851,0.8669,,,,,,212,0,212,0,1,,,,,
,,193819,001,2023-07-24_19h57.33.293,arm3_q,2022.2.5,MacIntel,29.99940001,63ea8ec521931832f4b6b7cb,64aeaab685a29f4ca249be02,64bec96fc9b45a0bacd1cb2e,right,1,0.5643,0.35,10,-0.000472031,0.2968,,,,,,213,0,213,0,1,,,,,
,,193819,001,2023-07-24_19h57.33.293,arm3_q,2022.2.5,MacIntel,29.99940001,63ea8ec521931832f4b6b7cb,64aeaab685a29f4ca249be02,64bec96fc9b45a0bacd1cb2e,right,1,0.5643,0.35,10,0.017666855,0.1788,,,,,,214,0,214,0,1,,,,,
,,193819,001,2023-07-24_19h57.33.293,arm3_q,2022.2.5,MacIntel,29.99940001,63ea8ec521931832f4b6b7cb,64aeaab685a29f4ca249be02,64bec96fc9b45a0bacd1cb2e,right,1,0.5643,0.35,10,0.005890851,0.2156,,,,,,215,0,215,0,1,,,,,
,,193819,001,2023-07-24_19h57.33.293,arm3_q,2022.2.5,MacIntel,29.99940001,63ea8ec521931832f4b6b7cb,64aeaab685a29f4ca249be02,64bec96fc9b45a0bacd1cb2e,right,1,0.5643,0.35,10,0.007460585,0.1988,,,,,,216,0,216,0,1,,,,,
,,193819,001,2023-07-24_19h57.33.293,arm3_q,2022.2.5,MacIntel,29.99940001,63ea8ec521931832f4b6b7cb,64aeaab685a29f4ca249be02,64bec96fc9b45a0bacd1cb2e,right,1,0.5643,0.35,10,-0.001894961,0.1314,,,,,,217,0,217,0,1,,,,,
,,193819,001,2023-07-24_19h57.33.293,arm3_q,2022.2.5,MacIntel,29.99940001,63ea8ec521931832f4b6b7cb,64aeaab685a29f4ca249be02,64bec96fc9b45a0bacd1cb2e,right,1,0.5643,0.35,10,-0.015615288,0.3658,,,,,,218,0,218,0,1,,,,,
,,193819,001,2023-07-24_19h57.33.293,arm3_q,2022.2.5,MacIntel,29.99940001,63ea8ec521931832f4b6b7cb,64aeaab685a29f4ca249be02,64bec96fc9b45a0bacd1cb2e,right,1,0.5643,0.35,10,-0.031811147,0.1817,,,,,,219,0,219,0,1,,,,,
,,193819,001,2023-07-24_19h57.33.293,arm3_q,2022.2.5,MacIntel,29.99940001,63ea8ec521931832f4b6b7cb,64aeaab685a29f4ca249be02,64bec96fc9b45a0bacd1cb2e,down,1,0.5643,0.35,10,0,0.2629,,,,,,220,0,220,0,1,,,,,
,,193819,001,2023-07-24_19h57.33.293,arm3_q,2022.2.5,MacIntel,29.99940001,63ea8ec521931832f4b6b7cb,64aeaab685a29f4ca249be02,64bec96fc9b45a0bacd1cb2e,right,1,0.5643,0.35,10,0.021355734,0.9512,,,,,,221,0,221,0,1,,,,,
,,193819,001,2023-07-24_19h57.33.293,arm3_q,2022.2.5,MacIntel,29.99940001,63ea8ec521931832f4b6b7cb,64aeaab685a29f4ca249be02,64bec96fc9b45a0bacd1cb2e,right,1,0.5643,0.35,10,0.030546429,0.2217,,,,,,222,0,222,0,1,,,,,
,,193819,001,2023-07-24_19h57.33.293,arm3_q,2022.2.5,MacIntel,29.99940001,63ea8ec521931832f4b6b7cb,64aeaab685a29f4ca249be02,64bec96fc9b45a0bacd1cb2e,up,1,0.5643,0.35,10,0,0.6987,,,,,,223,0,223,0,1,,,,,
,,193819,001,2023-07-24_19h57.33.293,arm3_q,2022.2.5,MacIntel,29.99940001,63ea8ec521931832f4b6b7cb,64aeaab685a29f4ca249be02,64bec96fc9b45a0bacd1cb2e,right,1,0.5643,0.35,10,0.047425958,0.8461,,,,,,224,0,224,0,1,,,,,
,,193819,001,2023-07-24_19h57.33.293,arm3_q,2022.2.5,MacIntel,29.99940001,63ea8ec521931832f4b6b7cb,64aeaab685a29f4ca249be02,64bec96fc9b45a0bacd1cb2e,right,1,0.5643,0.35,10,0.079847455,0.2262,,,,,,225,0,225,0,1,,,,,
,,193819,001,2023-07-24_19h57.33.293,arm3_q,2022.2.5,MacIntel,29.99940001,63ea8ec521931832f4b6b7cb,64aeaab685a29f4ca249be02,64bec96fc9b45a0bacd1cb2e,right,1,0.5643,0.35,10,0.103198637,0.1286,,,,,,226,0,226,0,1,,,,,
,,193819,001,2023-07-24_19h57.33.293,arm3_q,2022.2.5,MacIntel,29.99940001,63ea8ec521931832f4b6b7cb,64aeaab685a29f4ca249be02,64bec96fc9b45a0bacd1cb2e,right,1,0.5643,0.35,10,0.125870921,0.1659,,,,,,227,0,227,0,1,,,,,
,,193819,001,2023-07-24_19h57.33.293,arm3_q,2022.2.5,MacIntel,29.99940001,63ea8ec521931832f4b6b7cb,64aeaab685a29f4ca249be02,64bec96fc9b45a0bacd1cb2e,up,-1,0.5643,0.35,10,0,1.0085,,,,,,228,0,228,0,1,,,,,
,,193819,001,2023-07-24_19h57.33.293,arm3_q,2022.2.5,MacIntel,29.99940001,63ea8ec521931832f4b6b7cb,64aeaab685a29f4ca249be02,64bec96fc9b45a0bacd1cb2e,right,-1,0.5643,0.35,10,-0.014695766,1.017,,,,,,229,0,229,0,1,,,,,
,,193819,001,2023-07-24_19h57.33.293,arm3_q,2022.2.5,MacIntel,29.99940001,63ea8ec521931832f4b6b7cb,64aeaab685a29f4ca249be02,64bec96fc9b45a0bacd1cb2e,right,-1,0.5643,0.35,10,0.009370129,0.2742,,,,,,230,0,230,0,1,,,,,
,,193819,001,2023-07-24_19h57.33.293,arm3_q,2022.2.5,MacIntel,29.99940001,63ea8ec521931832f4b6b7cb,64aeaab685a29f4ca249be02,64bec96fc9b45a0bacd1cb2e,right,-1,0.5643,0.35,10,0.004008566,0.2258,,,,,,231,0,231,0,1,,,,,
,,193819,001,2023-07-24_19h57.33.293,arm3_q,2022.2.5,MacIntel,29.99940001,63ea8ec521931832f4b6b7cb,64aeaab685a29f4ca249be02,64bec96fc9b45a0bacd1cb2e,right,-1,0.5643,0.35,10,0.006457439,0.1275,,,,,,232,0,232,0,1,,,,,
,,193819,001,2023-07-24_19h57.33.293,arm3_q,2022.2.5,MacIntel,29.99940001,63ea8ec521931832f4b6b7cb,64aeaab685a29f4ca249be02,64bec96fc9b45a0bacd1cb2e,right,-1,0.5643,0.35,10,-0.00832552,0.1316,,,,,,233,0,233,0,1,,,,,
,,193819,001,2023-07-24_19h57.33.293,arm3_q,2022.2.5,MacIntel,29.99940001,63ea8ec521931832f4b6b7cb,64aeaab685a29f4ca249be02,64bec96fc9b45a0bacd1cb2e,up,-1,0.5643,0.35,9,0,0.5003,,,,,,234,0,234,0,1,,,,,
,,193819,001,2023-07-24_19h57.33.293,arm3_q,2022.2.5,MacIntel,29.99940001,63ea8ec521931832f4b6b7cb,64aeaab685a29f4ca249be02,64bec96fc9b45a0bacd1cb2e,right,-1,0.5643,0.35,9,0.007210097,0.712,,,,,,235,0,235,0,1,,,,,
,,193819,001,2023-07-24_19h57.33.293,arm3_q,2022.2.5,MacIntel,29.99940001,63ea8ec521931832f4b6b7cb,64aeaab685a29f4ca249be02,64bec96fc9b45a0bacd1cb2e,right,-1,0.5643,0.35,9,0.021667335,0.1988,,,,,,236,0,236,0,1,,,,,
,,193819,001,2023-07-24_19h57.33.293,arm3_q,2022.2.5,MacIntel,29.99940001,63ea8ec521931832f4b6b7cb,64aeaab685a29f4ca249be02,64bec96fc9b45a0bacd1cb2e,right,-1,0.5643,0.35,9,0.021847703,0.1368,,,,,,237,0,237,0,1,,,,,
,,193819,001,2023-07-24_19h57.33.293,arm3_q,2022.2.5,MacIntel,29.99940001,63ea8ec521931832f4b6b7cb,64aeaab685a29f4ca249be02,64bec96fc9b45a0bacd1cb2e,right,-1,0.5643,0.35,9,0.007212674,0.1431,,,,,,238,0,238,0,1,,,,,
,,193819,001,2023-07-24_19h57.33.293,arm3_q,2022.2.5,MacIntel,29.99940001,63ea8ec521931832f4b6b7cb,64aeaab685a29f4ca249be02,64bec96fc9b45a0bacd1cb2e,right,-1,0.5643,0.35,9,-0.001536113,0.1363,,,,,,239,0,239,0,1,,,,,
,,193819,001,2023-07-24_19h57.33.293,arm3_q,2022.2.5,MacIntel,29.99940001,63ea8ec521931832f4b6b7cb,64aeaab685a29f4ca249be02,64bec96fc9b45a0bacd1cb2e,right,-1,0.5643,0.35,9,-0.032845913,0.1123,,,,,,240,0,240,0,1,,,,,
,,193819,001,2023-07-24_19h57.33.293,arm3_q,2022.2.5,MacIntel,29.99940001,63ea8ec521931832f4b6b7cb,64aeaab685a29f4ca249be02,64bec96fc9b45a0bacd1cb2e,right,-1,0.5643,0.35,9,-0.072495145,0.1767,,,,,,241,0,241,0,1,,,,,
,,193819,001,2023-07-24_19h57.33.293,arm3_q,2022.2.5,MacIntel,29.99940001,63ea8ec521931832f4b6b7cb,64aeaab685a29f4ca249be02,64bec96fc9b45a0bacd1cb2e,right,-1,0.5643,0.35,9,-0.087162182,0.1165,,,,,,242,0,242,0,1,,,,,
,,193819,001,2023-07-24_19h57.33.293,arm3_q,2022.2.5,MacIntel,29.99940001,63ea8ec521931832f4b6b7cb,64aeaab685a29f4ca249be02,64bec96fc9b45a0bacd1cb2e,down,-1,0.5643,0.35,10,0,0.2149,,,,,,243,0,243,0,1,,,,,
,,193819,001,2023-07-24_19h57.33.293,arm3_q,2022.2.5,MacIntel,29.99940001,63ea8ec521931832f4b6b7cb,64aeaab685a29f4ca249be02,64bec96fc9b45a0bacd1cb2e,right,-1,0.5643,0.35,10,0.016120162,1.0335,,,,,,244,0,244,0,1,,,,,
,,193819,001,2023-07-24_19h57.33.293,arm3_q,2022.2.5,MacIntel,29.99940001,63ea8ec521931832f4b6b7cb,64aeaab685a29f4ca249be02,64bec96fc9b45a0bacd1cb2e,right,-1,0.5643,0.35,10,0.006786832,0.3765,,,,,,245,0,245,0,1,,,,,
,,193819,001,2023-07-24_19h57.33.293,arm3_q,2022.2.5,MacIntel,29.99940001,63ea8ec521931832f4b6b7cb,64aeaab685a29f4ca249be02,64bec96fc9b45a0bacd1cb2e,right,-1,0.5643,0.35,10,-0.002836422,0.1817,,,,,,246,0,246,0,1,,,,,
,,193819,001,2023-07-24_19h57.33.293,arm3_q,2022.2.5,MacIntel,29.99940001,63ea8ec521931832f4b6b7cb,64aeaab685a29f4ca249be02,64bec96fc9b45a0bacd1cb2e,right,-1,0.5643,0.35,10,0.003958815,0.1339,,,,,,247,0,247,0,1,,,,,
,,193819,001,2023-07-24_19h57.33.293,arm3_q,2022.2.5,MacIntel,29.99940001,63ea8ec521931832f4b6b7cb,64aeaab685a29f4ca249be02,64bec96fc9b45a0bacd1cb2e,right,-1,0.5643,0.35,10,0.014882597,0.1436,,,,,,248,0,248,0,1,,,,,
,,193819,001,2023-07-24_19h57.33.293,arm3_q,2022.2.5,MacIntel,29.99940001,63ea8ec521931832f4b6b7cb,64aeaab685a29f4ca249be02,64bec96fc9b45a0bacd1cb2e,right,-1,0.5643,0.35,10,0.034370463,0.1475,,,,,,249,0,249,0,1,,,,,
,,193819,001,2023-07-24_19h57.33.293,arm3_q,2022.2.5,MacIntel,29.99940001,63ea8ec521931832f4b6b7cb,64aeaab685a29f4ca249be02,64bec96fc9b45a0bacd1cb2e,right,-1,0.5643,0.35,10,-0.006836881,0.1411,,,,,,250,0,250,0,1,,,,,
,,193819,001,2023-07-24_19h57.33.293,arm3_q,2022.2.5,MacIntel,29.99940001,63ea8ec521931832f4b6b7cb,64aeaab685a29f4ca249be02,64bec96fc9b45a0bacd1cb2e,down,-1,0.5643,0.35,10,0,0.4144,,,,,,251,0,251,0,1,,,,,
,,193819,001,2023-07-24_19h57.33.293,arm3_q,2022.2.5,MacIntel,29.99940001,63ea8ec521931832f4b6b7cb,64aeaab685a29f4ca249be02,64bec96fc9b45a0bacd1cb2e,right,-1,0.5643,0.35,10,-0.013109144,0.691,,,,,,252,0,252,0,1,,,,,
,,193819,001,2023-07-24_19h57.33.293,arm3_q,2022.2.5,MacIntel,29.99940001,63ea8ec521931832f4b6b7cb,64aeaab685a29f4ca249be02,64bec96fc9b45a0bacd1cb2e,right,-1,0.5643,0.35,10,-0.032049456,0.1643,,,,,,253,0,253,0,1,,,,,
,,193819,001,2023-07-24_19h57.33.293,arm3_q,2022.2.5,MacIntel,29.99940001,63ea8ec521931832f4b6b7cb,64aeaab685a29f4ca249be02,64bec96fc9b45a0bacd1cb2e,right,-1,0.5643,0.35,10,-0.071471027,0.1339,,,,,,254,0,254,0,1,,,,,
,,193819,001,2023-07-24_19h57.33.293,arm3_q,2022.2.5,MacIntel,29.99940001,63ea8ec521931832f4b6b7cb,64aeaab685a29f4ca249be02,64bec96fc9b45a0bacd1cb2e,right,-1,0.5643,0.35,10,-0.051506271,0.1348,,,,,,255,0,255,0,1,,,,,
,,193819,001,2023-07-24_19h57.33.293,arm3_q,2022.2.5,MacIntel,29.99940001,63ea8ec521931832f4b6b7cb,64aeaab685a29f4ca249be02,64bec96fc9b45a0bacd1cb2e,right,-1,0.5643,0.35,10,-0.052250753,0.1296,,,,,,256,0,256,0,1,,,,,
,,193819,001,2023-07-24_19h57.33.293,arm3_q,2022.2.5,MacIntel,29.99940001,63ea8ec521931832f4b6b7cb,64aeaab685a29f4ca249be02,64bec96fc9b45a0bacd1cb2e,up,1,0.5643,0.35,9,0,0.2327,,,,,,257,0,257,0,1,,,,,
,,193819,001,2023-07-24_19h57.33.293,arm3_q,2022.2.5,MacIntel,29.99940001,63ea8ec521931832f4b6b7cb,64aeaab685a29f4ca249be02,64bec96fc9b45a0bacd1cb2e,right,1,0.5643,0.35,9,-0.007219541,0.5995,,,,,,258,0,258,0,1,,,,,
,,193819,001,2023-07-24_19h57.33.293,arm3_q,2022.2.5,MacIntel,29.99940001,63ea8ec521931832f4b6b7cb,64aeaab685a29f4ca249be02,64bec96fc9b45a0bacd1cb2e,right,1,0.5643,0.35,9,0.005054849,0.1169,,,,,,259,0,259,0,1,,,,,
,,193819,001,2023-07-24_19h57.33.293,arm3_q,2022.2.5,MacIntel,29.99940001,63ea8ec521931832f4b6b7cb,64aeaab685a29f4ca249be02,64bec96fc9b45a0bacd1cb2e,right,1,0.5643,0.35,9,0.018694157,0.1983,,,,,,260,0,260,0,1,,,,,
,,193819,001,2023-07-24_19h57.33.293,arm3_q,2022.2.5,MacIntel,29.99940001,63ea8ec521931832f4b6b7cb,64aeaab685a29f4ca249be02,64bec96fc9b45a0bacd1cb2e,right,1,0.5643,0.35,9,0.022120529,0.1268,,,,,,261,0,261,0,1,,,,,
,,193819,001,2023-07-24_19h57.33.293,arm3_q,2022.2.5,MacIntel,29.99940001,63ea8ec521931832f4b6b7cb,64aeaab685a29f4ca249be02,64bec96fc9b45a0bacd1cb2e,right,1,0.5643,0.35,9,0.03129474,0.1209,,,,,,262,0,262,0,1,,,,,
,,193819,001,2023-07-24_19h57.33.293,arm3_q,2022.2.5,MacIntel,29.99940001,63ea8ec521931832f4b6b7cb,64aeaab685a29f4ca249be02,64bec96fc9b45a0bacd1cb2e,right,1,0.5643,0.35,9,0.051501584,0.1145,,,,,,263,0,263,0,1,,,,,
,,193819,001,2023-07-24_19h57.33.293,arm3_q,2022.2.5,MacIntel,29.99940001,63ea8ec521931832f4b6b7cb,64aeaab685a29f4ca249be02,64bec96fc9b45a0bacd1cb2e,up,1,0.5643,0.35,10,0,0.2324,,,,,,264,0,264,0,1,,,,,
,,193819,001,2023-07-24_19h57.33.293,arm3_q,2022.2.5,MacIntel,29.99940001,63ea8ec521931832f4b6b7cb,64aeaab685a29f4ca249be02,64bec96fc9b45a0bacd1cb2e,right,1,0.5643,0.35,10,-0.031954372,0.8703,,,,,,265,0,265,0,1,,,,,
,,193819,001,2023-07-24_19h57.33.293,arm3_q,2022.2.5,MacIntel,29.99940001,63ea8ec521931832f4b6b7cb,64aeaab685a29f4ca249be02,64bec96fc9b45a0bacd1cb2e,right,1,0.5643,0.35,10,-0.039499403,0.2344,,,,,,266,0,266,0,1,,,,,
,,193819,001,2023-07-24_19h57.33.293,arm3_q,2022.2.5,MacIntel,29.99940001,63ea8ec521931832f4b6b7cb,64aeaab685a29f4ca249be02,64bec96fc9b45a0bacd1cb2e,right,1,0.5643,0.35,10,-0.020223811,0.2101,,,,,,267,0,267,0,1,,,,,
,,193819,001,2023-07-24_19h57.33.293,arm3_q,2022.2.5,MacIntel,29.99940001,63ea8ec521931832f4b6b7cb,64aeaab685a29f4ca249be02,64bec96fc9b45a0bacd1cb2e,right,1,0.5643,0.35,10,-0.035404488,0.2053,,,,,,268,0,268,0,1,,,,,
,,193819,001,2023-07-24_19h57.33.293,arm3_q,2022.2.5,MacIntel,29.99940001,63ea8ec521931832f4b6b7cb,64aeaab685a29f4ca249be02,64bec96fc9b45a0bacd1cb2e,right,1,0.5643,0.35,10,-0.040476089,0.2022,,,,,,269,0,269,0,1,,,,,
,,193819,001,2023-07-24_19h57.33.293,arm3_q,2022.2.5,MacIntel,29.99940001,63ea8ec521931832f4b6b7cb,64aeaab685a29f4ca249be02,64bec96fc9b45a0bacd1cb2e,right,1,0.5643,0.35,10,-0.015787356,0.162,,,,,,270,0,270,0,1,,,,,
,,193819,001,2023-07-24_19h57.33.293,arm3_q,2022.2.5,MacIntel,29.99940001,63ea8ec521931832f4b6b7cb,64aeaab685a29f4ca249be02,64bec96fc9b45a0bacd1cb2e,down,-1,0.5643,0.35,10,0,0.5165,,,,,,271,0,271,0,1,,,,,
,,193819,001,2023-07-24_19h57.33.293,arm3_q,2022.2.5,MacIntel,29.99940001,63ea8ec521931832f4b6b7cb,64aeaab685a29f4ca249be02,64bec96fc9b45a0bacd1cb2e,right,-1,0.5643,0.35,10,-0.022172705,0.7899,,,,,,272,0,272,0,1,,,,,
,,193819,001,2023-07-24_19h57.33.293,arm3_q,2022.2.5,MacIntel,29.99940001,63ea8ec521931832f4b6b7cb,64aeaab685a29f4ca249be02,64bec96fc9b45a0bacd1cb2e,right,-1,0.5643,0.35,10,-0.074516508,0.2186,,,,,,273,0,273,0,1,,,,,
,,193819,001,2023-07-24_19h57.33.293,arm3_q,2022.2.5,MacIntel,29.99940001,63ea8ec521931832f4b6b7cb,64aeaab685a29f4ca249be02,64bec96fc9b45a0bacd1cb2e,right,-1,0.5643,0.35,10,-0.130993235,0.2163,,,,,,274,0,274,0,1,,,,,
,,193819,001,2023-07-24_19h57.33.293,arm3_q,2022.2.5,MacIntel,29.99940001,63ea8ec521931832f4b6b7cb,64aeaab685a29f4ca249be02,64bec96fc9b45a0bacd1cb2e,right,-1,0.5643,0.35,10,-0.130625989,0.2799,,,,,,275,0,275,0,1,,,,,
,,193819,001,2023-07-24_19h57.33.293,arm3_q,2022.2.5,MacIntel,29.99940001,63ea8ec521931832f4b6b7cb,64aeaab685a29f4ca249be02,64bec96fc9b45a0bacd1cb2e,down,-1,0.5643,0.35,10,0,0.7727,,,,,,276,0,276,0,1,,,,,
,,193819,001,2023-07-24_19h57.33.293,arm3_q,2022.2.5,MacIntel,29.99940001,63ea8ec521931832f4b6b7cb,64aeaab685a29f4ca249be02,64bec96fc9b45a0bacd1cb2e,right,-1,0.5643,0.35,10,-0.021188447,0.8729,,,,,,277,0,277,0,1,,,,,
,,193819,001,2023-07-24_19h57.33.293,arm3_q,2022.2.5,MacIntel,29.99940001,63ea8ec521931832f4b6b7cb,64aeaab685a29f4ca249be02,64bec96fc9b45a0bacd1cb2e,right,-1,0.5643,0.35,10,-0.011956848,0.2125,,,,,,278,0,278,0,1,,,,,
,,193819,001,2023-07-24_19h57.33.293,arm3_q,2022.2.5,MacIntel,29.99940001,63ea8ec521931832f4b6b7cb,64aeaab685a29f4ca249be02,64bec96fc9b45a0bacd1cb2e,right,-1,0.5643,0.35,10,-0.006040451,0.2201,,,,,,279,0,279,0,1,,,,,
,,193819,001,2023-07-24_19h57.33.293,arm3_q,2022.2.5,MacIntel,29.99940001,63ea8ec521931832f4b6b7cb,64aeaab685a29f4ca249be02,64bec96fc9b45a0bacd1cb2e,up,-1,0.5643,0.35,9,0,0.3441,,,,,,280,0,280,0,1,,,,,
,,193819,001,2023-07-24_19h57.33.293,arm3_q,2022.2.5,MacIntel,29.99940001,63ea8ec521931832f4b6b7cb,64aeaab685a29f4ca249be02,64bec96fc9b45a0bacd1cb2e,right,-1,0.5643,0.35,9,-9.98347E-05,0.674,,,,,,281,0,281,0,1,,,,,
,,193819,001,2023-07-24_19h57.33.293,arm3_q,2022.2.5,MacIntel,29.99940001,63ea8ec521931832f4b6b7cb,64aeaab685a29f4ca249be02,64bec96fc9b45a0bacd1cb2e,right,-1,0.5643,0.35,9,-0.016345486,0.1659,,,,,,282,0,282,0,1,,,,,
,,193819,001,2023-07-24_19h57.33.293,arm3_q,2022.2.5,MacIntel,29.99940001,63ea8ec521931832f4b6b7cb,64aeaab685a29f4ca249be02,64bec96fc9b45a0bacd1cb2e,right,-1,0.5643,0.35,9,-0.047082073,0.1506,,,,,,283,0,283,0,1,,,,,
,,193819,001,2023-07-24_19h57.33.293,arm3_q,2022.2.5,MacIntel,29.99940001,63ea8ec521931832f4b6b7cb,64aeaab685a29f4ca249be02,64bec96fc9b45a0bacd1cb2e,right,-1,0.5643,0.35,9,-0.051734599,0.151,,,,,,284,0,284,0,1,,,,,
,,193819,001,2023-07-24_19h57.33.293,arm3_q,2022.2.5,MacIntel,29.99940001,63ea8ec521931832f4b6b7cb,64aeaab685a29f4ca249be02,64bec96fc9b45a0bacd1cb2e,down,1,0.5643,0.35,9,0,0.2143,,,,,,285,0,285,0,1,,,,,
,,193819,001,2023-07-24_19h57.33.293,arm3_q,2022.2.5,MacIntel,29.99940001,63ea8ec521931832f4b6b7cb,64aeaab685a29f4ca249be02,64bec96fc9b45a0bacd1cb2e,right,1,0.5643,0.35,9,0.008532467,0.5438,,,,,,286,0,286,0,1,,,,,
,,193819,001,2023-07-24_19h57.33.293,arm3_q,2022.2.5,MacIntel,29.99940001,63ea8ec521931832f4b6b7cb,64aeaab685a29f4ca249be02,64bec96fc9b45a0bacd1cb2e,right,1,0.5643,0.35,9,0.01308179,0.131,,,,,,287,0,287,0,1,,,,,
,,193819,001,2023-07-24_19h57.33.293,arm3_q,2022.2.5,MacIntel,29.99940001,63ea8ec521931832f4b6b7cb,64aeaab685a29f4ca249be02,64bec96fc9b45a0bacd1cb2e,right,1,0.5643,0.35,9,0.01737064,0.2262,,,,,,288,0,288,0,1,,,,,
,,193819,001,2023-07-24_19h57.33.293,arm3_q,2022.2.5,MacIntel,29.99940001,63ea8ec521931832f4b6b7cb,64aeaab685a29f4ca249be02,64bec96fc9b45a0bacd1cb2e,right,1,0.5643,0.35,9,0.019734144,0.1103,,,,,,289,0,289,0,1,,,,,
,,193819,001,2023-07-24_19h57.33.293,arm3_q,2022.2.5,MacIntel,29.99940001,63ea8ec521931832f4b6b7cb,64aeaab685a29f4ca249be02,64bec96fc9b45a0bacd1cb2e,right,1,0.5643,0.35,9,0.039100361,0.1516,,,,,,290,0,290,0,1,,,,,
,,193819,001,2023-07-24_19h57.33.293,arm3_q,2022.2.5,MacIntel,29.99940001,63ea8ec521931832f4b6b7cb,64aeaab685a29f4ca249be02,64bec96fc9b45a0bacd1cb2e,up,-1,0.5643,0.35,9,0,0.2258,,,,,,291,0,291,0,1,,,,,
,,193819,001,2023-07-24_19h57.33.293,arm3_q,2022.2.5,MacIntel,29.99940001,63ea8ec521931832f4b6b7cb,64aeaab685a29f4ca249be02,64bec96fc9b45a0bacd1cb2e,right,-1,0.5643,0.35,9,-0.017011894,0.5112,,,,,,292,0,292,0,1,,,,,
,,193819,001,2023-07-24_19h57.33.293,arm3_q,2022.2.5,MacIntel,29.99940001,63ea8ec521931832f4b6b7cb,64aeaab685a29f4ca249be02,64bec96fc9b45a0bacd1cb2e,right,-1,0.5643,0.35,9,-0.005175471,0.1838,,,,,,293,0,293,0,1,,,,,
,,193819,001,2023-07-24_19h57.33.293,arm3_q,2022.2.5,MacIntel,29.99940001,63ea8ec521931832f4b6b7cb,64aeaab685a29f4ca249be02,64bec96fc9b45a0bacd1cb2e,right,-1,0.5643,0.35,9,-0.008887748,0.1151,,,,,,294,0,294,0,1,,,,,
,,193819,001,2023-07-24_19h57.33.293,arm3_q,2022.2.5,MacIntel,29.99940001,63ea8ec521931832f4b6b7cb,64aeaab685a29f4ca249be02,64bec96fc9b45a0bacd1cb2e,right,-1,0.5643,0.35,9,-0.011561034,0.1946,,,,,,295,0,295,0,1,,,,,
,,193819,001,2023-07-24_19h57.33.293,arm3_q,2022.2.5,MacIntel,29.99940001,63ea8ec521931832f4b6b7cb,64aeaab685a29f4ca249be02,64bec96fc9b45a0bacd1cb2e,right,-1,0.5643,0.35,9,0.031808421,0.1002,,,,,,296,0,296,0,1,,,,,
,,193819,001,2023-07-24_19h57.33.293,arm3_q,2022.2.5,MacIntel,29.99940001,63ea8ec521931832f4b6b7cb,64aeaab685a29f4ca249be02,64bec96fc9b45a0bacd1cb2e,right,-1,0.5643,0.35,9,0.032507733,0.1653,,,,,,297,0,297,0,1,,,,,
,,193819,001,2023-07-24_19h57.33.293,arm3_q,2022.2.5,MacIntel,29.99940001,63ea8ec521931832f4b6b7cb,64aeaab685a29f4ca249be02,64bec96fc9b45a0bacd1cb2e,up,1,0.5643,0.35,8,0,0.3666,,,,,,298,0,298,0,1,,,,,
,,193819,001,2023-07-24_19h57.33.293,arm3_q,2022.2.5,MacIntel,29.99940001,63ea8ec521931832f4b6b7cb,64aeaab685a29f4ca249be02,64bec96fc9b45a0bacd1cb2e,right,1,0.5643,0.35,8,0.047499827,0.9234,,,,,,299,0,299,0,1,,,,,
,,193819,001,2023-07-24_19h57.33.293,arm3_q,2022.2.5,MacIntel,29.99940001,63ea8ec521931832f4b6b7cb,64aeaab685a29f4ca249be02,64bec96fc9b45a0bacd1cb2e,right,1,0.5643,0.35,8,0.059225677,0.2189,,,,,,300,0,300,0,1,,,,,
,,193819,001,2023-07-24_19h57.33.293,arm3_q,2022.2.5,MacIntel,29.99940001,63ea8ec521931832f4b6b7cb,64aeaab685a29f4ca249be02,64bec96fc9b45a0bacd1cb2e,right,1,0.5643,0.35,8,0.081789213,0.2546,,,,,,301,0,301,0,1,,,,,
,,193819,001,2023-07-24_19h57.33.293,arm3_q,2022.2.5,MacIntel,29.99940001,63ea8ec521931832f4b6b7cb,64aeaab685a29f4ca249be02,64bec96fc9b45a0bacd1cb2e,right,1,0.5643,0.35,8,0.113544251,0.2484,,,,,,302,0,302,0,1,,,,,
,,193819,001,2023-07-24_19h57.33.293,arm3_q,2022.2.5,MacIntel,29.99940001,63ea8ec521931832f4b6b7cb,64aeaab685a29f4ca249be02,64bec96fc9b45a0bacd1cb2e,right,1,0.5643,0.35,8,0.118984062,0.2178,,,,,,303,0,303,0,1,,,,,
,,193819,001,2023-07-24_19h57.33.293,arm3_q,2022.2.5,MacIntel,29.99940001,63ea8ec521931832f4b6b7cb,64aeaab685a29f4ca249be02,64bec96fc9b45a0bacd1cb2e,up,1,0.5643,0.35,8,0,0.4847,,,,,,304,0,304,0,1,,,,,
,,193819,001,2023-07-24_19h57.33.293,arm3_q,2022.2.5,MacIntel,29.99940001,63ea8ec521931832f4b6b7cb,64aeaab685a29f4ca249be02,64bec96fc9b45a0bacd1cb2e,right,1,0.5643,0.35,8,0.04859476,1.0811,,,,,,305,0,305,0,1,,,,,
,,193819,001,2023-07-24_19h57.33.293,arm3_q,2022.2.5,MacIntel,29.99940001,63ea8ec521931832f4b6b7cb,64aeaab685a29f4ca249be02,64bec96fc9b45a0bacd1cb2e,right,1,0.5643,0.35,8,0.080484486,0.2673,,,,,,306,0,306,0,1,,,,,
,,193819,001,2023-07-24_19h57.33.293,arm3_q,2022.2.5,MacIntel,29.99940001,63ea8ec521931832f4b6b7cb,64aeaab685a29f4ca249be02,64bec96fc9b45a0bacd1cb2e,right,1,0.5643,0.35,8,0.07055379,0.197,,,,,,307,0,307,0,1,,,,,
,,193819,001,2023-07-24_19h57.33.293,arm3_q,2022.2.5,MacIntel,29.99940001,63ea8ec521931832f4b6b7cb,64aeaab685a29f4ca249be02,64bec96fc9b45a0bacd1cb2e,right,1,0.5643,0.35,8,0.070263523,0.1625,,,,,,308,0,308,0,1,,,,,
,,193819,001,2023-07-24_19h57.33.293,arm3_q,2022.2.5,MacIntel,29.99940001,63ea8ec521931832f4b6b7cb,64aeaab685a29f4ca249be02,64bec96fc9b45a0bacd1cb2e,right,1,0.5643,0.35,8,0.072272925,0.1745,,,,,,309,0,309,0,1,,,,,
,,193819,001,2023-07-24_19h57.33.293,arm3_q,2022.2.5,MacIntel,29.99940001,63ea8ec521931832f4b6b7cb,64aeaab685a29f4ca249be02,64bec96fc9b45a0bacd1cb2e,up,1,0.5643,0.35,8,0,0.2117,,,,,,310,0,310,0,1,,,,,
,,193819,001,2023-07-24_19h57.33.293,arm3_q,2022.2.5,MacIntel,29.99940001,63ea8ec521931832f4b6b7cb,64aeaab685a29f4ca249be02,64bec96fc9b45a0bacd1cb2e,right,1,0.5643,0.35,8,-0.003601405,0.8236,,,,,,311,0,311,0,1,,,,,
,,193819,001,2023-07-24_19h57.33.293,arm3_q,2022.2.5,MacIntel,29.99940001,63ea8ec521931832f4b6b7cb,64aeaab685a29f4ca249be02,64bec96fc9b45a0bacd1cb2e,right,1,0.5643,0.35,8,-0.01669565,0.1795,,,,,,312,0,312,0,1,,,,,
,,193819,001,2023-07-24_19h57.33.293,arm3_q,2022.2.5,MacIntel,29.99940001,63ea8ec521931832f4b6b7cb,64aeaab685a29f4ca249be02,64bec96fc9b45a0bacd1cb2e,right,1,0.5643,0.35,8,-0.015418309,0.1355,,,,,,313,0,313,0,1,,,,,
,,193819,001,2023-07-24_19h57.33.293,arm3_q,2022.2.5,MacIntel,29.99940001,63ea8ec521931832f4b6b7cb,64aeaab685a29f4ca249be02,64bec96fc9b45a0bacd1cb2e,down,1,0.5643,0.35,7,0,0.4933,,,,,,314,0,314,0,1,,,,,
,,193819,001,2023-07-24_19h57.33.293,arm3_q,2022.2.5,MacIntel,29.99940001,63ea8ec521931832f4b6b7cb,64aeaab685a29f4ca249be02,64bec96fc9b45a0bacd1cb2e,up,1,0.5643,0.35,7,0,0.8585,,,,,,315,0,315,0,1,,,,,
,,193819,001,2023-07-24_19h57.33.293,arm3_q,2022.2.5,MacIntel,29.99940001,63ea8ec521931832f4b6b7cb,64aeaab685a29f4ca249be02,64bec96fc9b45a0bacd1cb2e,down,-1,0.5643,0.35,6,0,0.9824,,,,,,316,0,316,0,1,,,,,
,,193819,001,2023-07-24_19h57.33.293,arm3_q,2022.2.5,MacIntel,29.99940001,63ea8ec521931832f4b6b7cb,64aeaab685a29f4ca249be02,64bec96fc9b45a0bacd1cb2e,right,-1,0.5643,0.35,6,0.012276516,0.5917,,,,,,317,0,317,0,1,,,,,
,,193819,001,2023-07-24_19h57.33.293,arm3_q,2022.2.5,MacIntel,29.99940001,63ea8ec521931832f4b6b7cb,64aeaab685a29f4ca249be02,64bec96fc9b45a0bacd1cb2e,right,-1,0.5643,0.35,6,0.011852518,0.1486,,,,,,318,0,318,0,1,,,,,
,,193819,001,2023-07-24_19h57.33.293,arm3_q,2022.2.5,MacIntel,29.99940001,63ea8ec521931832f4b6b7cb,64aeaab685a29f4ca249be02,64bec96fc9b45a0bacd1cb2e,right,-1,0.5643,0.35,6,0.024862157,0.1583,,,,,,319,0,319,0,1,,,,,
,,193819,001,2023-07-24_19h57.33.293,arm3_q,2022.2.5,MacIntel,29.99940001,63ea8ec521931832f4b6b7cb,64aeaab685a29f4ca249be02,64bec96fc9b45a0bacd1cb2e,right,-1,0.5643,0.35,6,0.007460327,0.0947,,,,,,320,0,320,0,1,,,,,
,,193819,001,2023-07-24_19h57.33.293,arm3_q,2022.2.5,MacIntel,29.99940001,63ea8ec521931832f4b6b7cb,64aeaab685a29f4ca249be02,64bec96fc9b45a0bacd1cb2e,right,-1,0.5643,0.35,6,0.004777348,0.1166,,,,,,321,0,321,0,1,,,,,
,,193819,001,2023-07-24_19h57.33.293,arm3_q,2022.2.5,MacIntel,29.99940001,63ea8ec521931832f4b6b7cb,64aeaab685a29f4ca249be02,64bec96fc9b45a0bacd1cb2e,up,1,0.5643,0.35,6,0,0.3486,,,,,,322,0,322,0,1,,,,,
,,193819,001,2023-07-24_19h57.33.293,arm3_q,2022.2.5,MacIntel,29.99940001,63ea8ec521931832f4b6b7cb,64aeaab685a29f4ca249be02,64bec96fc9b45a0bacd1cb2e,right,1,0.5643,0.35,6,-0.005457672,0.8803,,,,,,323,0,323,0,1,,,,,
,,193819,001,2023-07-24_19h57.33.293,arm3_q,2022.2.5,MacIntel,29.99940001,63ea8ec521931832f4b6b7cb,64aeaab685a29f4ca249be02,64bec96fc9b45a0bacd1cb2e,right,1,0.5643,0.35,6,0.019878713,0.23,,,,,,324,0,324,0,1,,,,,
,,193819,001,2023-07-24_19h57.33.293,arm3_q,2022.2.5,MacIntel,29.99940001,63ea8ec521931832f4b6b7cb,64aeaab685a29f4ca249be02,64bec96fc9b45a0bacd1cb2e,right,1,0.5643,0.35,6,0.030461853,0.1021,,,,,,325,0,325,0,1,,,,,
,,193819,001,2023-07-24_19h57.33.293,arm3_q,2022.2.5,MacIntel,29.99940001,63ea8ec521931832f4b6b7cb,64aeaab685a29f4ca249be02,64bec96fc9b45a0bacd1cb2e,right,1,0.5643,0.35,6,0.048956689,0.2009,,,,,,326,0,326,0,1,,,,,
,,193819,001,2023-07-24_19h57.33.293,arm3_q,2022.2.5,MacIntel,29.99940001,63ea8ec521931832f4b6b7cb,64aeaab685a29f4ca249be02,64bec96fc9b45a0bacd1cb2e,down,-1,0.5643,0.35,5,0,0.2994,,,,,,327,0,327,0,1,,,,,
,,193819,001,2023-07-24_19h57.33.293,arm3_q,2022.2.5,MacIntel,29.99940001,63ea8ec521931832f4b6b7cb,64aeaab685a29f4ca249be02,64bec96fc9b45a0bacd1cb2e,up,-1,0.5643,0.35,5,0,0.8581,,,,,,328,0,328,0,1,,,,,
,,193819,001,2023-07-24_19h57.33.293,arm3_q,2022.2.5,MacIntel,29.99940001,63ea8ec521931832f4b6b7cb,64aeaab685a29f4ca249be02,64bec96fc9b45a0bacd1cb2e,up,-1,0.5643,0.35,4,0,0.1269,,,,,,329,0,329,0,1,,,,,
,,193819,001,2023-07-24_19h57.33.293,arm3_q,2022.2.5,MacIntel,29.99940001,63ea8ec521931832f4b6b7cb,64aeaab685a29f4ca249be02,64bec96fc9b45a0bacd1cb2e,right,-1,0.5643,0.35,4,-0.004870862,2.2269,,,,,,330,0,330,0,1,,,,,
,,193819,001,2023-07-24_19h57.33.293,arm3_q,2022.2.5,MacIntel,29.99940001,63ea8ec521931832f4b6b7cb,64aeaab685a29f4ca249be02,64bec96fc9b45a0bacd1cb2e,right,-1,0.5643,0.35,4,-0.02936489,0.1394,,,,,,331,0,331,0,1,,,,,
,,193819,001,2023-07-24_19h57.33.293,arm3_q,2022.2.5,MacIntel,29.99940001,63ea8ec521931832f4b6b7cb,64aeaab685a29f4ca249be02,64bec96fc9b45a0bacd1cb2e,right,-1,0.5643,0.35,4,-0.026379394,0.1364,,,,,,332,0,332,0,1,,,,,
,,193819,001,2023-07-24_19h57.33.293,arm3_q,2022.2.5,MacIntel,29.99940001,63ea8ec521931832f4b6b7cb,64aeaab685a29f4ca249be02,64bec96fc9b45a0bacd1cb2e,right,-1,0.5643,0.35,4,-0.058840256,0.1437,,,,,,333,0,333,0,1,,,,,
,,193819,001,2023-07-24_19h57.33.293,arm3_q,2022.2.5,MacIntel,29.99940001,63ea8ec521931832f4b6b7cb,64aeaab685a29f4ca249be02,64bec96fc9b45a0bacd1cb2e,right,-1,0.5643,0.35,4,-0.075769413,0.1157,,,,,,334,0,334,0,1,,,,,
,,193819,001,2023-07-24_19h57.33.293,arm3_q,2022.2.5,MacIntel,29.99940001,63ea8ec521931832f4b6b7cb,64aeaab685a29f4ca249be02,64bec96fc9b45a0bacd1cb2e,right,-1,0.5643,0.35,4,-0.09550055,0.1374,,,,,,335,0,335,0,1,,,,,
,,193819,001,2023-07-24_19h57.33.293,arm3_q,2022.2.5,MacIntel,29.99940001,63ea8ec521931832f4b6b7cb,64aeaab685a29f4ca249be02,64bec96fc9b45a0bacd1cb2e,down,1,0.5643,0.35,4,0,0.1788,,,,,,336,0,336,0,1,,,,,
,,193819,001,2023-07-24_19h57.33.293,arm3_q,2022.2.5,MacIntel,29.99940001,63ea8ec521931832f4b6b7cb,64aeaab685a29f4ca249be02,64bec96fc9b45a0bacd1cb2e,right,1,0.5643,0.35,4,0.016115967,0.8423,,,,,,337,0,337,0,1,,,,,
,,193819,001,2023-07-24_19h57.33.293,arm3_q,2022.2.5,MacIntel,29.99940001,63ea8ec521931832f4b6b7cb,64aeaab685a29f4ca249be02,64bec96fc9b45a0bacd1cb2e,right,1,0.5643,0.35,4,0.060317299,0.1441,,,,,,338,0,338,0,1,,,,,
,,193819,001,2023-07-24_19h57.33.293,arm3_q,2022.2.5,MacIntel,29.99940001,63ea8ec521931832f4b6b7cb,64aeaab685a29f4ca249be02,64bec96fc9b45a0bacd1cb2e,right,1,0.5643,0.35,4,0.06135347,0.1458,,,,,,339,0,339,0,1,,,,,
,,193819,001,2023-07-24_19h57.33.293,arm3_q,2022.2.5,MacIntel,29.99940001,63ea8ec521931832f4b6b7cb,64aeaab685a29f4ca249be02,64bec96fc9b45a0bacd1cb2e,right,1,0.5643,0.35,4,0.082699292,0.0973,,,,,,340,0,340,0,1,,,,,
,,193819,001,2023-07-24_19h57.33.293,arm3_q,2022.2.5,MacIntel,29.99940001,63ea8ec521931832f4b6b7cb,64aeaab685a29f4ca249be02,64bec96fc9b45a0bacd1cb2e,up,1,0.5643,0.35,4,0,0.2112,,,,,,341,0,341,0,1,,,,,
,,193819,001,2023-07-24_19h57.33.293,arm3_q,2022.2.5,MacIntel,29.99940001,63ea8ec521931832f4b6b7cb,64aeaab685a29f4ca249be02,64bec96fc9b45a0bacd1cb2e,right,1,0.5643,0.35,4,-0.006706721,0.5817,,,,,,342,0,342,0,1,,,,,
,,193819,001,2023-07-24_19h57.33.293,arm3_q,2022.2.5,MacIntel,29.99940001,63ea8ec521931832f4b6b7cb,64aeaab685a29f4ca249be02,64bec96fc9b45a0bacd1cb2e,right,1,0.5643,0.35,4,-0.000121595,0.2816,,,,,,343,0,343,0,1,,,,,
,,193819,001,2023-07-24_19h57.33.293,arm3_q,2022.2.5,MacIntel,29.99940001,63ea8ec521931832f4b6b7cb,64aeaab685a29f4ca249be02,64bec96fc9b45a0bacd1cb2e,right,1,0.5643,0.35,4,0.014287933,0.1666,,,,,,344,0,344,0,1,,,,,
,,193819,001,2023-07-24_19h57.33.293,arm3_q,2022.2.5,MacIntel,29.99940001,63ea8ec521931832f4b6b7cb,64aeaab685a29f4ca249be02,64bec96fc9b45a0bacd1cb2e,right,1,0.5643,0.35,4,0.02017895,0.1105,,,,,,345,0,345,0,1,,,,,
,,193819,001,2023-07-24_19h57.33.293,arm3_q,2022.2.5,MacIntel,29.99940001,63ea8ec521931832f4b6b7cb,64aeaab685a29f4ca249be02,64bec96fc9b45a0bacd1cb2e,right,1,0.5643,0.35,4,-0.004239007,0.1118,,,,,,346,0,346,0,1,,,,,
,,193819,001,2023-07-24_19h57.33.293,arm3_q,2022.2.5,MacIntel,29.99940001,63ea8ec521931832f4b6b7cb,64aeaab685a29f4ca249be02,64bec96fc9b45a0bacd1cb2e,right,1,0.5643,0.35,4,0.001321861,0.122,,,,,,347,0,347,0,1,,,,,
,,193819,001,2023-07-24_19h57.33.293,arm3_q,2022.2.5,MacIntel,29.99940001,63ea8ec521931832f4b6b7cb,64aeaab685a29f4ca249be02,64bec96fc9b45a0bacd1cb2e,down,-1,0.5643,0.35,4,0,0.5657,,,,,,348,0,348,0,1,,,,,
,,193819,001,2023-07-24_19h57.33.293,arm3_q,2022.2.5,MacIntel,29.99940001,63ea8ec521931832f4b6b7cb,64aeaab685a29f4ca249be02,64bec96fc9b45a0bacd1cb2e,right,-1,0.5643,0.35,4,-0.021180932,0.6022,,,,,,349,0,349,0,1,,,,,
,,193819,001,2023-07-24_19h57.33.293,arm3_q,2022.2.5,MacIntel,29.99940001,63ea8ec521931832f4b6b7cb,64aeaab685a29f4ca249be02,64bec96fc9b45a0bacd1cb2e,right,-1,0.5643,0.35,4,-0.033363332,0.1337,,,,,,350,0,350,0,1,,,,,
,,193819,001,2023-07-24_19h57.33.293,arm3_q,2022.2.5,MacIntel,29.99940001,63ea8ec521931832f4b6b7cb,64aeaab685a29f4ca249be02,64bec96fc9b45a0bacd1cb2e,right,-1,0.5643,0.35,4,-0.040572407,0.3002,,,,,,351,0,351,0,1,,,,,
,,193819,001,2023-07-24_19h57.33.293,arm3_q,2022.2.5,MacIntel,29.99940001,63ea8ec521931832f4b6b7cb,64aeaab685a29f4ca249be02,64bec96fc9b45a0bacd1cb2e,right,-1,0.5643,0.35,4,-0.018843321,0.1322,,,,,,352,0,352,0,1,,,,,
,,193819,001,2023-07-24_19h57.33.293,arm3_q,2022.2.5,MacIntel,29.99940001,63ea8ec521931832f4b6b7cb,64aeaab685a29f4ca249be02,64bec96fc9b45a0bacd1cb2e,right,-1,0.5643,0.35,4,-0.007788429,0.1201,,,,,,353,0,353,0,1,,,,,
,,193819,001,2023-07-24_19h57.33.293,arm3_q,2022.2.5,MacIntel,29.99940001,63ea8ec521931832f4b6b7cb,64aeaab685a29f4ca249be02,64bec96fc9b45a0bacd1cb2e,right,-1,0.5643,0.35,4,-0.042339995,0.1188,,,,,,354,0,354,0,1,,,,,
,,193819,001,2023-07-24_19h57.33.293,arm3_q,2022.2.5,MacIntel,29.99940001,63ea8ec521931832f4b6b7cb,64aeaab685a29f4ca249be02,64bec96fc9b45a0bacd1cb2e,right,-1,0.5643,0.35,4,-0.033111112,0.213,,,,,,355,0,355,0,1,,,,,
,,193819,001,2023-07-24_19h57.33.293,arm3_q,2022.2.5,MacIntel,29.99940001,63ea8ec521931832f4b6b7cb,64aeaab685a29f4ca249be02,64bec96fc9b45a0bacd1cb2e,right,-1,0.5643,0.35,4,-0.047155518,0.1386,,,,,,356,0,356,0,1,,,,,
,,193819,001,2023-07-24_19h57.33.293,arm3_q,2022.2.5,MacIntel,29.99940001,63ea8ec521931832f4b6b7cb,64aeaab685a29f4ca249be02,64bec96fc9b45a0bacd1cb2e,right,-1,0.5643,0.35,4,-0.036652738,0.1171,,,,,,357,0,357,0,1,,,,,
,,193819,001,2023-07-24_19h57.33.293,arm3_q,2022.2.5,MacIntel,29.99940001,63ea8ec521931832f4b6b7cb,64aeaab685a29f4ca249be02,64bec96fc9b45a0bacd1cb2e,down,1,0.5643,0.35,5,0,0.2257,,,,,,358,0,358,0,1,,,,,
,,193819,001,2023-07-24_19h57.33.293,arm3_q,2022.2.5,MacIntel,29.99940001,63ea8ec521931832f4b6b7cb,64aeaab685a29f4ca249be02,64bec96fc9b45a0bacd1cb2e,right,1,0.5643,0.35,5,0.035469046,0.9311,,,,,,359,0,359,0,1,,,,,
,,193819,001,2023-07-24_19h57.33.293,arm3_q,2022.2.5,MacIntel,29.99940001,63ea8ec521931832f4b6b7cb,64aeaab685a29f4ca249be02,64bec96fc9b45a0bacd1cb2e,right,1,0.5643,0.35,5,0.059188359,0.2299,,,,,,360,0,360,0,1,,,,,
,,193819,001,2023-07-24_19h57.33.293,arm3_q,2022.2.5,MacIntel,29.99940001,63ea8ec521931832f4b6b7cb,64aeaab685a29f4ca249be02,64bec96fc9b45a0bacd1cb2e,up,-1,0.5643,0.35,5,0,0.312,,,,,,361,0,361,0,1,,,,,
,,193819,001,2023-07-24_19h57.33.293,arm3_q,2022.2.5,MacIntel,29.99940001,63ea8ec521931832f4b6b7cb,64aeaab685a29f4ca249be02,64bec96fc9b45a0bacd1cb2e,right,-1,0.5643,0.35,5,-0.009024817,0.6143,,,,,,362,0,362,0,1,,,,,
,,193819,001,2023-07-24_19h57.33.293,arm3_q,2022.2.5,MacIntel,29.99940001,63ea8ec521931832f4b6b7cb,64aeaab685a29f4ca249be02,64bec96fc9b45a0bacd1cb2e,right,-1,0.5643,0.35,5,-0.007474014,0.1946,,,,,,363,0,363,0,1,,,,,
,,193819,001,2023-07-24_19h57.33.293,arm3_q,2022.2.5,MacIntel,29.99940001,63ea8ec521931832f4b6b7cb,64aeaab685a29f4ca249be02,64bec96fc9b45a0bacd1cb2e,right,-1,0.5643,0.35,5,-0.03055283,0.0999,,,,,,364,0,364,0,1,,,,,
,,193819,001,2023-07-24_19h57.33.293,arm3_q,2022.2.5,MacIntel,29.99940001,63ea8ec521931832f4b6b7cb,64aeaab685a29f4ca249be02,64bec96fc9b45a0bacd1cb2e,right,-1,0.5643,0.35,5,-0.022620096,0.1781,,,,,,365,0,365,0,1,,,,,
,,193819,001,2023-07-24_19h57.33.293,arm3_q,2022.2.5,MacIntel,29.99940001,63ea8ec521931832f4b6b7cb,64aeaab685a29f4ca249be02,64bec96fc9b45a0bacd1cb2e,down,-1,0.5643,0.35,5,0,0.2098,,,,,,366,0,366,0,1,,,,,
,,193819,001,2023-07-24_19h57.33.293,arm3_q,2022.2.5,MacIntel,29.99940001,63ea8ec521931832f4b6b7cb,64aeaab685a29f4ca249be02,64bec96fc9b45a0bacd1cb2e,right,-1,0.5643,0.35,5,0.007875788,0.441,,,,,,367,0,367,0,1,,,,,
,,193819,001,2023-07-24_19h57.33.293,arm3_q,2022.2.5,MacIntel,29.99940001,63ea8ec521931832f4b6b7cb,64aeaab685a29f4ca249be02,64bec96fc9b45a0bacd1cb2e,right,-1,0.5643,0.35,5,-0.028352831,0.2197,,,,,,368,0,368,0,1,,,,,
,,193819,001,2023-07-24_19h57.33.293,arm3_q,2022.2.5,MacIntel,29.99940001,63ea8ec521931832f4b6b7cb,64aeaab685a29f4ca249be02,64bec96fc9b45a0bacd1cb2e,right,-1,0.5643,0.35,5,-0.067181096,0.1813,,,,,,369,0,369,0,1,,,,,
,,193819,001,2023-07-24_19h57.33.293,arm3_q,2022.2.5,MacIntel,29.99940001,63ea8ec521931832f4b6b7cb,64aeaab685a29f4ca249be02,64bec96fc9b45a0bacd1cb2e,,,,,,,,,,,,,,,,,,0,0,0,0,1
space,2.9106,193819,001,2023-07-24_19h57.33.293,arm3_q,2022.2.5,MacIntel,29.99940001,63ea8ec521931832f4b6b7cb,64aeaab685a29f4ca249be02,64bec96fc9b45a0bacd1cb2e,right,-1,0.05,0.35,5,0.010139984,1.8604,,,,,,0,0,0,0,1,,,,,
,,193819,001,2023-07-24_19h57.33.293,arm3_q,2022.2.5,MacIntel,29.99940001,63ea8ec521931832f4b6b7cb,64aeaab685a29f4ca249be02,64bec96fc9b45a0bacd1cb2e,right,-1,0.05,0.35,5,-0.00296632,0.5031,,,,,,1,0,1,0,1,,,,,
,,193819,001,2023-07-24_19h57.33.293,arm3_q,2022.2.5,MacIntel,29.99940001,63ea8ec521931832f4b6b7cb,64aeaab685a29f4ca249be02,64bec96fc9b45a0bacd1cb2e,right,-1,0.05,0.35,5,0.014683219,0.3109,,,,,,2,0,2,0,1,,,,,
,,193819,001,2023-07-24_19h57.33.293,arm3_q,2022.2.5,MacIntel,29.99940001,63ea8ec521931832f4b6b7cb,64aeaab685a29f4ca249be02,64bec96fc9b45a0bacd1cb2e,down,1,0.05,0.35,5,0,0.262,,,,,,3,0,3,0,1,,,,,
,,193819,001,2023-07-24_19h57.33.293,arm3_q,2022.2.5,MacIntel,29.99940001,63ea8ec521931832f4b6b7cb,64aeaab685a29f4ca249be02,64bec96fc9b45a0bacd1cb2e,right,1,0.05,0.35,5,0.031376649,1.1186,,,,,,4,0,4,0,1,,,,,
,,193819,001,2023-07-24_19h57.33.293,arm3_q,2022.2.5,MacIntel,29.99940001,63ea8ec521931832f4b6b7cb,64aeaab685a29f4ca249be02,64bec96fc9b45a0bacd1cb2e,right,1,0.05,0.35,5,0.013132613,0.2523,,,,,,5,0,5,0,1,,,,,
,,193819,001,2023-07-24_19h57.33.293,arm3_q,2022.2.5,MacIntel,29.99940001,63ea8ec521931832f4b6b7cb,64aeaab685a29f4ca249be02,64bec96fc9b45a0bacd1cb2e,right,1,0.05,0.35,5,-0.019250999,0.265,,,,,,6,0,6,0,1,,,,,
,,193819,001,2023-07-24_19h57.33.293,arm3_q,2022.2.5,MacIntel,29.99940001,63ea8ec521931832f4b6b7cb,64aeaab685a29f4ca249be02,64bec96fc9b45a0bacd1cb2e,right,1,0.05,0.35,5,-0.023572859,0.1771,,,,,,7,0,7,0,1,,,,,
,,193819,001,2023-07-24_19h57.33.293,arm3_q,2022.2.5,MacIntel,29.99940001,63ea8ec521931832f4b6b7cb,64aeaab685a29f4ca249be02,64bec96fc9b45a0bacd1cb2e,right,1,0.05,0.35,5,0.009251484,0.2013,,,,,,8,0,8,0,1,,,,,
,,193819,001,2023-07-24_19h57.33.293,arm3_q,2022.2.5,MacIntel,29.99940001,63ea8ec521931832f4b6b7cb,64aeaab685a29f4ca249be02,64bec96fc9b45a0bacd1cb2e,down,-1,0.05,0.35,5,0,0.2953,,,,,,9,0,9,0,1,,,,,
,,193819,001,2023-07-24_19h57.33.293,arm3_q,2022.2.5,MacIntel,29.99940001,63ea8ec521931832f4b6b7cb,64aeaab685a29f4ca249be02,64bec96fc9b45a0bacd1cb2e,right,-1,0.05,0.35,5,-0.005104294,0.5752,,,,,,10,0,10,0,1,,,,,
,,193819,001,2023-07-24_19h57.33.293,arm3_q,2022.2.5,MacIntel,29.99940001,63ea8ec521931832f4b6b7cb,64aeaab685a29f4ca249be02,64bec96fc9b45a0bacd1cb2e,right,-1,0.05,0.35,5,0.010164439,0.2097,,,,,,11,0,11,0,1,,,,,
,,193819,001,2023-07-24_19h57.33.293,arm3_q,2022.2.5,MacIntel,29.99940001,63ea8ec521931832f4b6b7cb,64aeaab685a29f4ca249be02,64bec96fc9b45a0bacd1cb2e,right,-1,0.05,0.35,5,-0.002886592,0.2093,,,,,,12,0,12,0,1,,,,,
,,193819,001,2023-07-24_19h57.33.293,arm3_q,2022.2.5,MacIntel,29.99940001,63ea8ec521931832f4b6b7cb,64aeaab685a29f4ca249be02,64bec96fc9b45a0bacd1cb2e,right,-1,0.05,0.35,5,-0.035885462,0.2006,,,,,,13,0,13,0,1,,,,,
,,193819,001,2023-07-24_19h57.33.293,arm3_q,2022.2.5,MacIntel,29.99940001,63ea8ec521931832f4b6b7cb,64aeaab685a29f4ca249be02,64bec96fc9b45a0bacd1cb2e,up,-1,0.05,0.35,5,0,0.2985,,,,,,14,0,14,0,1,,,,,
,,193819,001,2023-07-24_19h57.33.293,arm3_q,2022.2.5,MacIntel,29.99940001,63ea8ec521931832f4b6b7cb,64aeaab685a29f4ca249be02,64bec96fc9b45a0bacd1cb2e,right,-1,0.05,0.35,5,-0.018981657,0.9406,,,,,,15,0,15,0,1,,,,,
,,193819,001,2023-07-24_19h57.33.293,arm3_q,2022.2.5,MacIntel,29.99940001,63ea8ec521931832f4b6b7cb,64aeaab685a29f4ca249be02,64bec96fc9b45a0bacd1cb2e,right,-1,0.05,0.35,5,-0.011778065,0.1829,,,,,,16,0,16,0,1,,,,,
,,193819,001,2023-07-24_19h57.33.293,arm3_q,2022.2.5,MacIntel,29.99940001,63ea8ec521931832f4b6b7cb,64aeaab685a29f4ca249be02,64bec96fc9b45a0bacd1cb2e,right,-1,0.05,0.35,5,-0.00024286,0.2113,,,,,,17,0,17,0,1,,,,,
,,193819,001,2023-07-24_19h57.33.293,arm3_q,2022.2.5,MacIntel,29.99940001,63ea8ec521931832f4b6b7cb,64aeaab685a29f4ca249be02,64bec96fc9b45a0bacd1cb2e,right,-1,0.05,0.35,5,-0.014300105,0.1363,,,,,,18,0,18,0,1,,,,,
,,193819,001,2023-07-24_19h57.33.293,arm3_q,2022.2.5,MacIntel,29.99940001,63ea8ec521931832f4b6b7cb,64aeaab685a29f4ca249be02,64bec96fc9b45a0bacd1cb2e,down,-1,0.05,0.35,5,0,0.4773,,,,,,19,0,19,0,1,,,,,
,,193819,001,2023-07-24_19h57.33.293,arm3_q,2022.2.5,MacIntel,29.99940001,63ea8ec521931832f4b6b7cb,64aeaab685a29f4ca249be02,64bec96fc9b45a0bacd1cb2e,up,-1,0.05,0.35,5,0,0.8633,,,,,,20,0,20,0,1,,,,,
,,193819,001,2023-07-24_19h57.33.293,arm3_q,2022.2.5,MacIntel,29.99940001,63ea8ec521931832f4b6b7cb,64aeaab685a29f4ca249be02,64bec96fc9b45a0bacd1cb2e,down,-1,0.05,0.35,5,0,1.044,,,,,,21,0,21,0,1,,,,,
,,193819,001,2023-07-24_19h57.33.293,arm3_q,2022.2.5,MacIntel,29.99940001,63ea8ec521931832f4b6b7cb,64aeaab685a29f4ca249be02,64bec96fc9b45a0bacd1cb2e,right,-1,0.05,0.35,5,-0.006722912,0.8803,,,,,,22,0,22,0,1,,,,,
,,193819,001,2023-07-24_19h57.33.293,arm3_q,2022.2.5,MacIntel,29.99940001,63ea8ec521931832f4b6b7cb,64aeaab685a29f4ca249be02,64bec96fc9b45a0bacd1cb2e,right,-1,0.05,0.35,5,0.03971634,0.1787,,,,,,23,0,23,0,1,,,,,
,,193819,001,2023-07-24_19h57.33.293,arm3_q,2022.2.5,MacIntel,29.99940001,63ea8ec521931832f4b6b7cb,64aeaab685a29f4ca249be02,64bec96fc9b45a0bacd1cb2e,right,-1,0.05,0.35,5,0.058014735,0.1407,,,,,,24,0,24,0,1,,,,,
,,193819,001,2023-07-24_19h57.33.293,arm3_q,2022.2.5,MacIntel,29.99940001,63ea8ec521931832f4b6b7cb,64aeaab685a29f4ca249be02,64bec96fc9b45a0bacd1cb2e,right,-1,0.05,0.35,5,0.038582652,0.1914,,,,,,25,0,25,0,1,,,,,
,,193819,001,2023-07-24_19h57.33.293,arm3_q,2022.2.5,MacIntel,29.99940001,63ea8ec521931832f4b6b7cb,64aeaab685a29f4ca249be02,64bec96fc9b45a0bacd1cb2e,up,1,0.05,0.35,5,0,0.4096,,,,,,26,0,26,0,1,,,,,
,,193819,001,2023-07-24_19h57.33.293,arm3_q,2022.2.5,MacIntel,29.99940001,63ea8ec521931832f4b6b7cb,64aeaab685a29f4ca249be02,64bec96fc9b45a0bacd1cb2e,right,1,0.05,0.35,5,-0.003519097,0.7954,,,,,,27,0,27,0,1,,,,,
,,193819,001,2023-07-24_19h57.33.293,arm3_q,2022.2.5,MacIntel,29.99940001,63ea8ec521931832f4b6b7cb,64aeaab685a29f4ca249be02,64bec96fc9b45a0bacd1cb2e,right,1,0.05,0.35,5,0.031963135,0.3191,,,,,,28,0,28,0,1,,,,,
,,193819,001,2023-07-24_19h57.33.293,arm3_q,2022.2.5,MacIntel,29.99940001,63ea8ec521931832f4b6b7cb,64aeaab685a29f4ca249be02,64bec96fc9b45a0bacd1cb2e,right,1,0.05,0.35,5,0.053973175,0.1643,,,,,,29,0,29,0,1,,,,,
,,193819,001,2023-07-24_19h57.33.293,arm3_q,2022.2.5,MacIntel,29.99940001,63ea8ec521931832f4b6b7cb,64aeaab685a29f4ca249be02,64bec96fc9b45a0bacd1cb2e,right,1,0.05,0.35,5,0.061333345,0.1361,,,,,,30,0,30,0,1,,,,,
,,193819,001,2023-07-24_19h57.33.293,arm3_q,2022.2.5,MacIntel,29.99940001,63ea8ec521931832f4b6b7cb,64aeaab685a29f4ca249be02,64bec96fc9b45a0bacd1cb2e,down,-1,0.05,0.35,5,0,0.3389,,,,,,31,0,31,0,1,,,,,
,,193819,001,2023-07-24_19h57.33.293,arm3_q,2022.2.5,MacIntel,29.99940001,63ea8ec521931832f4b6b7cb,64aeaab685a29f4ca249be02,64bec96fc9b45a0bacd1cb2e,right,-1,0.05,0.35,5,-0.027580598,0.6031,,,,,,32,0,32,0,1,,,,,
,,193819,001,2023-07-24_19h57.33.293,arm3_q,2022.2.5,MacIntel,29.99940001,63ea8ec521931832f4b6b7cb,64aeaab685a29f4ca249be02,64bec96fc9b45a0bacd1cb2e,right,-1,0.05,0.35,5,-0.015151153,0.1915,,,,,,33,0,33,0,1,,,,,
,,193819,001,2023-07-24_19h57.33.293,arm3_q,2022.2.5,MacIntel,29.99940001,63ea8ec521931832f4b6b7cb,64aeaab685a29f4ca249be02,64bec96fc9b45a0bacd1cb2e,right,-1,0.05,0.35,5,-0.001795762,0.1261,,,,,,34,0,34,0,1,,,,,
,,193819,001,2023-07-24_19h57.33.293,arm3_q,2022.2.5,MacIntel,29.99940001,63ea8ec521931832f4b6b7cb,64aeaab685a29f4ca249be02,64bec96fc9b45a0bacd1cb2e,right,-1,0.05,0.35,5,-0.02590232,0.1132,,,,,,35,0,35,0,1,,,,,
,,193819,001,2023-07-24_19h57.33.293,arm3_q,2022.2.5,MacIntel,29.99940001,63ea8ec521931832f4b6b7cb,64aeaab685a29f4ca249be02,64bec96fc9b45a0bacd1cb2e,right,-1,0.05,0.35,5,-0.025390403,0.1423,,,,,,36,0,36,0,1,,,,,
