space_bar.keys,space_bar.rt,participant,session,date,expName,psychopyVersion,OS,frameRate,PROLIFIC_PID,STUDY_ID,SESSION_ID,resp.keys,state,q_prob,eps_prob,score,price,resp.rt,train.thisRepN,train.thisTrialN,train.thisN,train.thisIndex,train.ran,steps.thisRepN,steps.thisTrialN,steps.thisN,steps.thisIndex,steps.ran,blocks.thisRepN,blocks.thisTrialN,blocks.thisN,blocks.thisIndex,blocks.ran
space,7.7906,256403,001,2023-07-24_19h57.55.846,arm3_q,2022.2.5,Win32,60.10337781,5fc26815a9eca13fd5362ba3,64aeaab685a29f4ca249be02,64bec997f1188297851b60ba,,,,,,,,,,,,,,,,,,,,,,
space,31.1395,256403,001,2023-07-24_19h57.55.846,arm3_q,2022.2.5,Win32,60.10337781,5fc26815a9eca13fd5362ba3,64aeaab685a29f4ca249be02,64bec997f1188297851b60ba,,,,,,,,,,,,,,,,,,,,,,
space,11.7565,256403,001,2023-07-24_19h57.55.846,arm3_q,2022.2.5,Win32,60.10337781,5fc26815a9eca13fd5362ba3,64aeaab685a29f4ca249be02,64bec997f1188297851b60ba,,,,,,,,,,,,,,,,,,,,,,
space,17.1332,256403,001,2023-07-24_19h57.55.846,arm3_q,2022.2.5,Win32,60.10337781,5fc26815a9eca13fd5362ba3,64aeaab685a29f4ca249be02,64bec997f1188297851b60ba,,,,,,,,,,,,,,,,,,,,,,
space,17.4626,256403,001,2023-07-24_19h57.55.846,arm3_q,2022.2.5,Win32,60.10337781,5fc26815a9eca13fd5362ba3,64aeaab685a29f4ca249be02,64bec997f1188297851b60ba,,,,,,,,,,,,,,,,,,,,,,
space,24.3811,256403,001,2023-07-24_19h57.55.846,arm3_q,2022.2.5,Win32,60.10337781,5fc26815a9eca13fd5362ba3,64aeaab685a29f4ca249be02,64bec997f1188297851b60ba,,,,,,,,,,,,,,,,,,,,,,
space,25.8854,256403,001,2023-07-24_19h57.55.846,arm3_q,2022.2.5,Win32,60.10337781,5fc26815a9eca13fd5362ba3,64aeaab685a29f4ca249be02,64bec997f1188297851b60ba,,,,,,,,,,,,,,,,,,,,,,
space,14.0874,256403,001,2023-07-24_19h57.55.846,arm3_q,2022.2.5,Win32,60.10337781,5fc26815a9eca13fd5362ba3,64aeaab685a29f4ca249be02,64bec997f1188297851b60ba,,,,,,,,,,,,,,,,,,,,,,
space,10.9159,256403,001,2023-07-24_19h57.55.846,arm3_q,2022.2.5,Win32,60.10337781,5fc26815a9eca13fd5362ba3,64aeaab685a29f4ca249be02,64bec997f1188297851b60ba,,,,,,,,,,,,,,,,,,,,,,
space,8.11,256403,001,2023-07-24_19h57.55.846,arm3_q,2022.2.5,Win32,60.10337781,5fc26815a9eca13fd5362ba3,64aeaab685a29f4ca249be02,64bec997f1188297851b60ba,,,,,,,,,,,,,,,,,,,,,,
,,256403,001,2023-07-24_19h57.55.846,arm3_q,2022.2.5,Win32,60.10337781,5fc26815a9eca13fd5362ba3,64aeaab685a29f4ca249be02,64bec997f1188297851b60ba,down,-1,0.5643,0.35,0,0,2.6675,0,0,0,0,1,,,,,,,,,,
,,256403,001,2023-07-24_19h57.55.846,arm3_q,2022.2.5,Win32,60.10337781,5fc26815a9eca13fd5362ba3,64aeaab685a29f4ca249be02,64bec997f1188297851b60ba,down,-1,0.5643,0.35,0,0,2.9033,1,0,1,0,1,,,,,,,,,,
,,256403,001,2023-07-24_19h57.55.846,arm3_q,2022.2.5,Win32,60.10337781,5fc26815a9eca13fd5362ba3,64aeaab685a29f4ca249be02,64bec997f1188297851b60ba,up,-1,0.5643,0.35,-1,0,2.243,2,0,2,0,1,,,,,,,,,,
,,256403,001,2023-07-24_19h57.55.846,arm3_q,2022.2.5,Win32,60.10337781,5fc26815a9eca13fd5362ba3,64aeaab685a29f4ca249be02,64bec997f1188297851b60ba,down,-1,0.5643,0.35,0,0,3.1826,3,0,3,0,1,,,,,,,,,,
,,256403,001,2023-07-24_19h57.55.846,arm3_q,2022.2.5,Win32,60.10337781,5fc26815a9eca13fd5362ba3,64aeaab685a29f4ca249be02,64bec997f1188297851b60ba,up,-1,0.5643,0.35,0,0,1.3576,4,0,4,0,1,,,,,,,,,,
,,256403,001,2023-07-24_19h57.55.846,arm3_q,2022.2.5,Win32,60.10337781,5fc26815a9eca13fd5362ba3,64aeaab685a29f4ca249be02,64bec997f1188297851b60ba,up,-1,0.5643,0.35,-1,0,3.2272,5,0,5,0,1,,,,,,,,,,
,,256403,001,2023-07-24_19h57.55.846,arm3_q,2022.2.5,Win32,60.10337781,5fc26815a9eca13fd5362ba3,64aeaab685a29f4ca249be02,64bec997f1188297851b60ba,down,1,0.5643,0.35,-1,0,1.3441,6,0,6,0,1,,,,,,,,,,
,,256403,001,2023-07-24_19h57.55.846,arm3_q,2022.2.5,Win32,60.10337781,5fc26815a9eca13fd5362ba3,64aeaab685a29f4ca249be02,64bec997f1188297851b60ba,down,1,0.5643,0.35,-2,0,1.3141,7,0,7,0,1,,,,,,,,,,
,,256403,001,2023-07-24_19h57.55.846,arm3_q,2022.2.5,Win32,60.10337781,5fc26815a9eca13fd5362ba3,64aeaab685a29f4ca249be02,64bec997f1188297851b60ba,up,1,0.5643,0.35,-1,0,2.4533,8,0,8,0,1,,,,,,,,,,
,,256403,001,2023-07-24_19h57.55.846,arm3_q,2022.2.5,Win32,60.10337781,5fc26815a9eca13fd5362ba3,64aeaab685a29f4ca249be02,64bec997f1188297851b60ba,up,-1,0.5643,0.35,0,0,1.1218,9,0,9,0,1,,,,,,,,,,
,,256403,001,2023-07-24_19h57.55.846,arm3_q,2022.2.5,Win32,60.10337781,5fc26815a9eca13fd5362ba3,64aeaab685a29f4ca249be02,64bec997f1188297851b60ba,right,-1,0.5643,0.35,0,0.002729372,3.8432,10,0,10,0,1,,,,,,,,,,
,,256403,001,2023-07-24_19h57.55.846,arm3_q,2022.2.5,Win32,60.10337781,5fc26815a9eca13fd5362ba3,64aeaab685a29f4ca249be02,64bec997f1188297851b60ba,up,-1,0.5643,0.35,-1,0,2.0284,11,0,11,0,1,,,,,,,,,,
,,256403,001,2023-07-24_19h57.55.846,arm3_q,2022.2.5,Win32,60.10337781,5fc26815a9eca13fd5362ba3,64aeaab685a29f4ca249be02,64bec997f1188297851b60ba,right,-1,0.5643,0.35,-1,-0.024914717,2.107,12,0,12,0,1,,,,,,,,,,
,,256403,001,2023-07-24_19h57.55.846,arm3_q,2022.2.5,Win32,60.10337781,5fc26815a9eca13fd5362ba3,64aeaab685a29f4ca249be02,64bec997f1188297851b60ba,right,-1,0.5643,0.35,-1,-0.04999449,0.5126,13,0,13,0,1,,,,,,,,,,
,,256403,001,2023-07-24_19h57.55.846,arm3_q,2022.2.5,Win32,60.10337781,5fc26815a9eca13fd5362ba3,64aeaab685a29f4ca249be02,64bec997f1188297851b60ba,right,-1,0.5643,0.35,-1,-0.049534934,0.4226,14,0,14,0,1,,,,,,,,,,
,,256403,001,2023-07-24_19h57.55.846,arm3_q,2022.2.5,Win32,60.10337781,5fc26815a9eca13fd5362ba3,64aeaab685a29f4ca249be02,64bec997f1188297851b60ba,right,-1,0.5643,0.35,-1,-0.079059908,0.3206,15,0,15,0,1,,,,,,,,,,
,,256403,001,2023-07-24_19h57.55.846,arm3_q,2022.2.5,Win32,60.10337781,5fc26815a9eca13fd5362ba3,64aeaab685a29f4ca249be02,64bec997f1188297851b60ba,right,-1,0.5643,0.35,-1,-0.076320679,0.2209,16,0,16,0,1,,,,,,,,,,
,,256403,001,2023-07-24_19h57.55.846,arm3_q,2022.2.5,Win32,60.10337781,5fc26815a9eca13fd5362ba3,64aeaab685a29f4ca249be02,64bec997f1188297851b60ba,right,-1,0.5643,0.35,-1,-0.078391133,0.2119,17,0,17,0,1,,,,,,,,,,
,,256403,001,2023-07-24_19h57.55.846,arm3_q,2022.2.5,Win32,60.10337781,5fc26815a9eca13fd5362ba3,64aeaab685a29f4ca249be02,64bec997f1188297851b60ba,right,-1,0.5643,0.35,-1,-0.093522328,0.4881,18,0,18,0,1,,,,,,,,,,
,,256403,001,2023-07-24_19h57.55.846,arm3_q,2022.2.5,Win32,60.10337781,5fc26815a9eca13fd5362ba3,64aeaab685a29f4ca249be02,64bec997f1188297851b60ba,right,-1,0.5643,0.35,-1,-0.088908994,0.3114,19,0,19,0,1,,,,,,,,,,
,,256403,001,2023-07-24_19h57.55.846,arm3_q,2022.2.5,Win32,60.10337781,5fc26815a9eca13fd5362ba3,64aeaab685a29f4ca249be02,64bec997f1188297851b60ba,right,-1,0.5643,0.35,-1,-0.071625842,0.2626,20,0,20,0,1,,,,,,,,,,
,,256403,001,2023-07-24_19h57.55.846,arm3_q,2022.2.5,Win32,60.10337781,5fc26815a9eca13fd5362ba3,64aeaab685a29f4ca249be02,64bec997f1188297851b60ba,right,-1,0.5643,0.35,-1,-0.104687937,0.3452,21,0,21,0,1,,,,,,,,,,
,,256403,001,2023-07-24_19h57.55.846,arm3_q,2022.2.5,Win32,60.10337781,5fc26815a9eca13fd5362ba3,64aeaab685a29f4ca249be02,64bec997f1188297851b60ba,right,-1,0.5643,0.35,-1,-0.095707496,0.2292,22,0,22,0,1,,,,,,,,,,
,,256403,001,2023-07-24_19h57.55.846,arm3_q,2022.2.5,Win32,60.10337781,5fc26815a9eca13fd5362ba3,64aeaab685a29f4ca249be02,64bec997f1188297851b60ba,right,-1,0.5643,0.35,-1,-0.09591923,0.3144,23,0,23,0,1,,,,,,,,,,
,,256403,001,2023-07-24_19h57.55.846,arm3_q,2022.2.5,Win32,60.10337781,5fc26815a9eca13fd5362ba3,64aeaab685a29f4ca249be02,64bec997f1188297851b60ba,down,-1,0.5643,0.35,-1,0,0.9402,24,0,24,0,1,,,,,,,,,,
,,256403,001,2023-07-24_19h57.55.846,arm3_q,2022.2.5,Win32,60.10337781,5fc26815a9eca13fd5362ba3,64aeaab685a29f4ca249be02,64bec997f1188297851b60ba,right,-1,0.5643,0.35,-1,0.003187873,1.6867,25,0,25,0,1,,,,,,,,,,
,,256403,001,2023-07-24_19h57.55.846,arm3_q,2022.2.5,Win32,60.10337781,5fc26815a9eca13fd5362ba3,64aeaab685a29f4ca249be02,64bec997f1188297851b60ba,right,-1,0.5643,0.35,-1,-0.012615438,0.2123,26,0,26,0,1,,,,,,,,,,
,,256403,001,2023-07-24_19h57.55.846,arm3_q,2022.2.5,Win32,60.10337781,5fc26815a9eca13fd5362ba3,64aeaab685a29f4ca249be02,64bec997f1188297851b60ba,right,-1,0.5643,0.35,-1,-0.023456098,0.1693,27,0,27,0,1,,,,,,,,,,
,,256403,001,2023-07-24_19h57.55.846,arm3_q,2022.2.5,Win32,60.10337781,5fc26815a9eca13fd5362ba3,64aeaab685a29f4ca249be02,64bec997f1188297851b60ba,right,-1,0.5643,0.35,-1,-0.010269802,0.1291,28,0,28,0,1,,,,,,,,,,
,,256403,001,2023-07-24_19h57.55.846,arm3_q,2022.2.5,Win32,60.10337781,5fc26815a9eca13fd5362ba3,64aeaab685a29f4ca249be02,64bec997f1188297851b60ba,right,-1,0.5643,0.35,-1,-0.006031628,0.2622,29,0,29,0,1,,,,,,,,,,
,,256403,001,2023-07-24_19h57.55.846,arm3_q,2022.2.5,Win32,60.10337781,5fc26815a9eca13fd5362ba3,64aeaab685a29f4ca249be02,64bec997f1188297851b60ba,right,-1,0.5643,0.35,-1,-0.033755434,0.1915,30,0,30,0,1,,,,,,,,,,
,,256403,001,2023-07-24_19h57.55.846,arm3_q,2022.2.5,Win32,60.10337781,5fc26815a9eca13fd5362ba3,64aeaab685a29f4ca249be02,64bec997f1188297851b60ba,right,-1,0.5643,0.35,-1,-0.068186643,0.1797,31,0,31,0,1,,,,,,,,,,
,,256403,001,2023-07-24_19h57.55.846,arm3_q,2022.2.5,Win32,60.10337781,5fc26815a9eca13fd5362ba3,64aeaab685a29f4ca249be02,64bec997f1188297851b60ba,down,-1,0.5643,0.35,0,0,0.4493,32,0,32,0,1,,,,,,,,,,
,,256403,001,2023-07-24_19h57.55.846,arm3_q,2022.2.5,Win32,60.10337781,5fc26815a9eca13fd5362ba3,64aeaab685a29f4ca249be02,64bec997f1188297851b60ba,right,-1,0.5643,0.35,0,0.003803024,1.143,33,0,33,0,1,,,,,,,,,,
,,256403,001,2023-07-24_19h57.55.846,arm3_q,2022.2.5,Win32,60.10337781,5fc26815a9eca13fd5362ba3,64aeaab685a29f4ca249be02,64bec997f1188297851b60ba,right,-1,0.5643,0.35,0,-0.012515724,0.2961,34,0,34,0,1,,,,,,,,,,
,,256403,001,2023-07-24_19h57.55.846,arm3_q,2022.2.5,Win32,60.10337781,5fc26815a9eca13fd5362ba3,64aeaab685a29f4ca249be02,64bec997f1188297851b60ba,right,-1,0.5643,0.35,0,-0.048421901,0.2303,35,0,35,0,1,,,,,,,,,,
,,256403,001,2023-07-24_19h57.55.846,arm3_q,2022.2.5,Win32,60.10337781,5fc26815a9eca13fd5362ba3,64aeaab685a29f4ca249be02,64bec997f1188297851b60ba,right,-1,0.5643,0.35,0,-0.052964058,0.1738,36,0,36,0,1,,,,,,,,,,
,,256403,001,2023-07-24_19h57.55.846,arm3_q,2022.2.5,Win32,60.10337781,5fc26815a9eca13fd5362ba3,64aeaab685a29f4ca249be02,64bec997f1188297851b60ba,down,1,0.5643,0.35,0,0,0.4791,37,0,37,0,1,,,,,,,,,,
,,256403,001,2023-07-24_19h57.55.846,arm3_q,2022.2.5,Win32,60.10337781,5fc26815a9eca13fd5362ba3,64aeaab685a29f4ca249be02,64bec997f1188297851b60ba,right,1,0.5643,0.35,0,0.008941085,1.3498,38,0,38,0,1,,,,,,,,,,
,,256403,001,2023-07-24_19h57.55.846,arm3_q,2022.2.5,Win32,60.10337781,5fc26815a9eca13fd5362ba3,64aeaab685a29f4ca249be02,64bec997f1188297851b60ba,right,1,0.5643,0.35,0,0.001897041,0.2616,39,0,39,0,1,,,,,,,,,,
,,256403,001,2023-07-24_19h57.55.846,arm3_q,2022.2.5,Win32,60.10337781,5fc26815a9eca13fd5362ba3,64aeaab685a29f4ca249be02,64bec997f1188297851b60ba,right,1,0.5643,0.35,0,0.015450763,0.1462,40,0,40,0,1,,,,,,,,,,
,,256403,001,2023-07-24_19h57.55.846,arm3_q,2022.2.5,Win32,60.10337781,5fc26815a9eca13fd5362ba3,64aeaab685a29f4ca249be02,64bec997f1188297851b60ba,right,1,0.5643,0.35,0,0.042144118,0.1607,41,0,41,0,1,,,,,,,,,,
,,256403,001,2023-07-24_19h57.55.846,arm3_q,2022.2.5,Win32,60.10337781,5fc26815a9eca13fd5362ba3,64aeaab685a29f4ca249be02,64bec997f1188297851b60ba,up,1,0.5643,0.35,0,0,0.7505,42,0,42,0,1,,,,,,,,,,
,,256403,001,2023-07-24_19h57.55.846,arm3_q,2022.2.5,Win32,60.10337781,5fc26815a9eca13fd5362ba3,64aeaab685a29f4ca249be02,64bec997f1188297851b60ba,right,1,0.5643,0.35,0,-0.040417479,1.5767,43,0,43,0,1,,,,,,,,,,
,,256403,001,2023-07-24_19h57.55.846,arm3_q,2022.2.5,Win32,60.10337781,5fc26815a9eca13fd5362ba3,64aeaab685a29f4ca249be02,64bec997f1188297851b60ba,right,1,0.5643,0.35,0,-0.068403876,0.2202,44,0,44,0,1,,,,,,,,,,
,,256403,001,2023-07-24_19h57.55.846,arm3_q,2022.2.5,Win32,60.10337781,5fc26815a9eca13fd5362ba3,64aeaab685a29f4ca249be02,64bec997f1188297851b60ba,right,1,0.5643,0.35,0,-0.064187283,0.1637,45,0,45,0,1,,,,,,,,,,
,,256403,001,2023-07-24_19h57.55.846,arm3_q,2022.2.5,Win32,60.10337781,5fc26815a9eca13fd5362ba3,64aeaab685a29f4ca249be02,64bec997f1188297851b60ba,right,1,0.5643,0.35,0,-0.081712606,0.183,46,0,46,0,1,,,,,,,,,,
,,256403,001,2023-07-24_19h57.55.846,arm3_q,2022.2.5,Win32,60.10337781,5fc26815a9eca13fd5362ba3,64aeaab685a29f4ca249be02,64bec997f1188297851b60ba,right,1,0.5643,0.35,0,-0.071028757,0.1731,47,0,47,0,1,,,,,,,,,,
,,256403,001,2023-07-24_19h57.55.846,arm3_q,2022.2.5,Win32,60.10337781,5fc26815a9eca13fd5362ba3,64aeaab685a29f4ca249be02,64bec997f1188297851b60ba,right,1,0.5643,0.35,0,-0.060575744,0.1853,48,0,48,0,1,,,,,,,,,,
,,256403,001,2023-07-24_19h57.55.846,arm3_q,2022.2.5,Win32,60.10337781,5fc26815a9eca13fd5362ba3,64aeaab685a29f4ca249be02,64bec997f1188297851b60ba,right,1,0.5643,0.35,0,-0.037196884,0.1627,49,0,49,0,1,,,,,,,,,,
space,1.3523,256403,001,2023-07-24_19h57.55.846,arm3_q,2022.2.5,Win32,60.10337781,5fc26815a9eca13fd5362ba3,64aeaab685a29f4ca249be02,64bec997f1188297851b60ba,,,,,,,,,,,,,,,,,,,,,,
space,4.7044,256403,001,2023-07-24_19h57.55.846,arm3_q,2022.2.5,Win32,60.10337781,5fc26815a9eca13fd5362ba3,64aeaab685a29f4ca249be02,64bec997f1188297851b60ba,right,1,0.95,0.35,0,0.035741113,1.2924,,,,,,0,0,0,0,1,,,,,
,,256403,001,2023-07-24_19h57.55.846,arm3_q,2022.2.5,Win32,60.10337781,5fc26815a9eca13fd5362ba3,64aeaab685a29f4ca249be02,64bec997f1188297851b60ba,right,1,0.95,0.35,0,0.022989608,0.2811,,,,,,1,0,1,0,1,,,,,
,,256403,001,2023-07-24_19h57.55.846,arm3_q,2022.2.5,Win32,60.10337781,5fc26815a9eca13fd5362ba3,64aeaab685a29f4ca249be02,64bec997f1188297851b60ba,right,1,0.95,0.35,0,0.023611221,0.1632,,,,,,2,0,2,0,1,,,,,
,,256403,001,2023-07-24_19h57.55.846,arm3_q,2022.2.5,Win32,60.10337781,5fc26815a9eca13fd5362ba3,64aeaab685a29f4ca249be02,64bec997f1188297851b60ba,down,-1,0.95,0.35,-1,0,0.4688,,,,,,3,0,3,0,1,,,,,
,,256403,001,2023-07-24_19h57.55.846,arm3_q,2022.2.5,Win32,60.10337781,5fc26815a9eca13fd5362ba3,64aeaab685a29f4ca249be02,64bec997f1188297851b60ba,right,-1,0.95,0.35,-1,-0.024161529,1.1305,,,,,,4,0,4,0,1,,,,,
,,256403,001,2023-07-24_19h57.55.846,arm3_q,2022.2.5,Win32,60.10337781,5fc26815a9eca13fd5362ba3,64aeaab685a29f4ca249be02,64bec997f1188297851b60ba,right,-1,0.95,0.35,-1,-0.032937835,0.307,,,,,,5,0,5,0,1,,,,,
,,256403,001,2023-07-24_19h57.55.846,arm3_q,2022.2.5,Win32,60.10337781,5fc26815a9eca13fd5362ba3,64aeaab685a29f4ca249be02,64bec997f1188297851b60ba,right,-1,0.95,0.35,-1,-0.036662391,0.181,,,,,,6,0,6,0,1,,,,,
,,256403,001,2023-07-24_19h57.55.846,arm3_q,2022.2.5,Win32,60.10337781,5fc26815a9eca13fd5362ba3,64aeaab685a29f4ca249be02,64bec997f1188297851b60ba,right,-1,0.95,0.35,-1,-0.059195782,0.1546,,,,,,7,0,7,0,1,,,,,
,,256403,001,2023-07-24_19h57.55.846,arm3_q,2022.2.5,Win32,60.10337781,5fc26815a9eca13fd5362ba3,64aeaab685a29f4ca249be02,64bec997f1188297851b60ba,up,-1,0.95,0.35,-2,0,0.4166,,,,,,8,0,8,0,1,,,,,
,,256403,001,2023-07-24_19h57.55.846,arm3_q,2022.2.5,Win32,60.10337781,5fc26815a9eca13fd5362ba3,64aeaab685a29f4ca249be02,64bec997f1188297851b60ba,right,-1,0.95,0.35,-2,0.012172924,1.5967,,,,,,9,0,9,0,1,,,,,
,,256403,001,2023-07-24_19h57.55.846,arm3_q,2022.2.5,Win32,60.10337781,5fc26815a9eca13fd5362ba3,64aeaab685a29f4ca249be02,64bec997f1188297851b60ba,right,-1,0.95,0.35,-2,0.038404672,0.1629,,,,,,10,0,10,0,1,,,,,
,,256403,001,2023-07-24_19h57.55.846,arm3_q,2022.2.5,Win32,60.10337781,5fc26815a9eca13fd5362ba3,64aeaab685a29f4ca249be02,64bec997f1188297851b60ba,right,-1,0.95,0.35,-2,-0.032137584,0.6317,,,,,,11,0,11,0,1,,,,,
,,256403,001,2023-07-24_19h57.55.846,arm3_q,2022.2.5,Win32,60.10337781,5fc26815a9eca13fd5362ba3,64aeaab685a29f4ca249be02,64bec997f1188297851b60ba,right,-1,0.95,0.35,-2,-0.060914843,0.2632,,,,,,12,0,12,0,1,,,,,
,,256403,001,2023-07-24_19h57.55.846,arm3_q,2022.2.5,Win32,60.10337781,5fc26815a9eca13fd5362ba3,64aeaab685a29f4ca249be02,64bec997f1188297851b60ba,right,-1,0.95,0.35,-2,-0.080691041,0.1498,,,,,,13,0,13,0,1,,,,,
,,256403,001,2023-07-24_19h57.55.846,arm3_q,2022.2.5,Win32,60.10337781,5fc26815a9eca13fd5362ba3,64aeaab685a29f4ca249be02,64bec997f1188297851b60ba,right,-1,0.95,0.35,-2,-0.074015815,0.4132,,,,,,14,0,14,0,1,,,,,
,,256403,001,2023-07-24_19h57.55.846,arm3_q,2022.2.5,Win32,60.10337781,5fc26815a9eca13fd5362ba3,64aeaab685a29f4ca249be02,64bec997f1188297851b60ba,down,1,0.95,0.35,-1,0,0.5003,,,,,,15,0,15,0,1,,,,,
,,256403,001,2023-07-24_19h57.55.846,arm3_q,2022.2.5,Win32,60.10337781,5fc26815a9eca13fd5362ba3,64aeaab685a29f4ca249be02,64bec997f1188297851b60ba,right,1,0.95,0.35,-1,0.013332344,1.1426,,,,,,16,0,16,0,1,,,,,
,,256403,001,2023-07-24_19h57.55.846,arm3_q,2022.2.5,Win32,60.10337781,5fc26815a9eca13fd5362ba3,64aeaab685a29f4ca249be02,64bec997f1188297851b60ba,right,1,0.95,0.35,-1,0.015553396,0.1805,,,,,,17,0,17,0,1,,,,,
,,256403,001,2023-07-24_19h57.55.846,arm3_q,2022.2.5,Win32,60.10337781,5fc26815a9eca13fd5362ba3,64aeaab685a29f4ca249be02,64bec997f1188297851b60ba,right,1,0.95,0.35,-1,0.031423492,0.1538,,,,,,18,0,18,0,1,,,,,
,,256403,001,2023-07-24_19h57.55.846,arm3_q,2022.2.5,Win32,60.10337781,5fc26815a9eca13fd5362ba3,64aeaab685a29f4ca249be02,64bec997f1188297851b60ba,right,1,0.95,0.35,-1,0.022569308,0.1851,,,,,,19,0,19,0,1,,,,,
,,256403,001,2023-07-24_19h57.55.846,arm3_q,2022.2.5,Win32,60.10337781,5fc26815a9eca13fd5362ba3,64aeaab685a29f4ca249be02,64bec997f1188297851b60ba,right,1,0.95,0.35,-1,0.020605593,0.0998,,,,,,20,0,20,0,1,,,,,
,,256403,001,2023-07-24_19h57.55.846,arm3_q,2022.2.5,Win32,60.10337781,5fc26815a9eca13fd5362ba3,64aeaab685a29f4ca249be02,64bec997f1188297851b60ba,right,1,0.95,0.35,-1,0.040634111,0.2111,,,,,,21,0,21,0,1,,,,,
,,256403,001,2023-07-24_19h57.55.846,arm3_q,2022.2.5,Win32,60.10337781,5fc26815a9eca13fd5362ba3,64aeaab685a29f4ca249be02,64bec997f1188297851b60ba,right,1,0.95,0.35,-1,0.084172426,0.0878,,,,,,22,0,22,0,1,,,,,
,,256403,001,2023-07-24_19h57.55.846,arm3_q,2022.2.5,Win32,60.10337781,5fc26815a9eca13fd5362ba3,64aeaab685a29f4ca249be02,64bec997f1188297851b60ba,up,1,0.95,0.35,0,0,0.9683,,,,,,23,0,23,0,1,,,,,
,,256403,001,2023-07-24_19h57.55.846,arm3_q,2022.2.5,Win32,60.10337781,5fc26815a9eca13fd5362ba3,64aeaab685a29f4ca249be02,64bec997f1188297851b60ba,right,1,0.95,0.35,0,0.014776863,1.0267,,,,,,24,0,24,0,1,,,,,
,,256403,001,2023-07-24_19h57.55.846,arm3_q,2022.2.5,Win32,60.10337781,5fc26815a9eca13fd5362ba3,64aeaab685a29f4ca249be02,64bec997f1188297851b60ba,right,1,0.95,0.35,0,0.019581762,0.2019,,,,,,25,0,25,0,1,,,,,
,,256403,001,2023-07-24_19h57.55.846,arm3_q,2022.2.5,Win32,60.10337781,5fc26815a9eca13fd5362ba3,64aeaab685a29f4ca249be02,64bec997f1188297851b60ba,right,1,0.95,0.35,0,0.028231698,0.1394,,,,,,26,0,26,0,1,,,,,
,,256403,001,2023-07-24_19h57.55.846,arm3_q,2022.2.5,Win32,60.10337781,5fc26815a9eca13fd5362ba3,64aeaab685a29f4ca249be02,64bec997f1188297851b60ba,right,1,0.95,0.35,0,0.036464046,0.1975,,,,,,27,0,27,0,1,,,,,
,,256403,001,2023-07-24_19h57.55.846,arm3_q,2022.2.5,Win32,60.10337781,5fc26815a9eca13fd5362ba3,64aeaab685a29f4ca249be02,64bec997f1188297851b60ba,right,1,0.95,0.35,0,0.050462607,0.188,,,,,,28,0,28,0,1,,,,,
,,256403,001,2023-07-24_19h57.55.846,arm3_q,2022.2.5,Win32,60.10337781,5fc26815a9eca13fd5362ba3,64aeaab685a29f4ca249be02,64bec997f1188297851b60ba,right,1,0.95,0.35,0,0.065393419,0.1664,,,,,,29,0,29,0,1,,,,,
,,256403,001,2023-07-24_19h57.55.846,arm3_q,2022.2.5,Win32,60.10337781,5fc26815a9eca13fd5362ba3,64aeaab685a29f4ca249be02,64bec997f1188297851b60ba,right,1,0.95,0.35,0,0.054035361,0.1686,,,,,,30,0,30,0,1,,,,,
,,256403,001,2023-07-24_19h57.55.846,arm3_q,2022.2.5,Win32,60.10337781,5fc26815a9eca13fd5362ba3,64aeaab685a29f4ca249be02,64bec997f1188297851b60ba,right,1,0.95,0.35,0,0.071345571,0.3643,,,,,,31,0,31,0,1,,,,,
,,256403,001,2023-07-24_19h57.55.846,arm3_q,2022.2.5,Win32,60.10337781,5fc26815a9eca13fd5362ba3,64aeaab685a29f4ca249be02,64bec997f1188297851b60ba,up,1,0.95,0.35,0,0,0.5955,,,,,,32,0,32,0,1,,,,,
,,256403,001,2023-07-24_19h57.55.846,arm3_q,2022.2.5,Win32,60.10337781,5fc26815a9eca13fd5362ba3,64aeaab685a29f4ca249be02,64bec997f1188297851b60ba,right,1,0.95,0.35,0,-0.00257168,1.0146,,,,,,33,0,33,0,1,,,,,
,,256403,001,2023-07-24_19h57.55.846,arm3_q,2022.2.5,Win32,60.10337781,5fc26815a9eca13fd5362ba3,64aeaab685a29f4ca249be02,64bec997f1188297851b60ba,right,1,0.95,0.35,0,-0.035760773,0.3798,,,,,,34,0,34,0,1,,,,,
,,256403,001,2023-07-24_19h57.55.846,arm3_q,2022.2.5,Win32,60.10337781,5fc26815a9eca13fd5362ba3,64aeaab685a29f4ca249be02,64bec997f1188297851b60ba,right,1,0.95,0.35,0,0.015220401,0.199,,,,,,35,0,35,0,1,,,,,
,,256403,001,2023-07-24_19h57.55.846,arm3_q,2022.2.5,Win32,60.10337781,5fc26815a9eca13fd5362ba3,64aeaab685a29f4ca249be02,64bec997f1188297851b60ba,right,1,0.95,0.35,0,0.037846747,0.1982,,,,,,36,0,36,0,1,,,,,
,,256403,001,2023-07-24_19h57.55.846,arm3_q,2022.2.5,Win32,60.10337781,5fc26815a9eca13fd5362ba3,64aeaab685a29f4ca249be02,64bec997f1188297851b60ba,right,1,0.95,0.35,0,0.018628592,0.2135,,,,,,37,0,37,0,1,,,,,
,,256403,001,2023-07-24_19h57.55.846,arm3_q,2022.2.5,Win32,60.10337781,5fc26815a9eca13fd5362ba3,64aeaab685a29f4ca249be02,64bec997f1188297851b60ba,right,1,0.95,0.35,0,0.004149521,0.1567,,,,,,38,0,38,0,1,,,,,
,,256403,001,2023-07-24_19h57.55.846,arm3_q,2022.2.5,Win32,60.10337781,5fc26815a9eca13fd5362ba3,64aeaab685a29f4ca249be02,64bec997f1188297851b60ba,right,1,0.95,0.35,0,0.009520742,0.3666,,,,,,39,0,39,0,1,,,,,
,,256403,001,2023-07-24_19h57.55.846,arm3_q,2022.2.5,Win32,60.10337781,5fc26815a9eca13fd5362ba3,64aeaab685a29f4ca249be02,64bec997f1188297851b60ba,right,1,0.95,0.35,0,0.042688172,0.4461,,,,,,40,0,40,0,1,,,,,
,,256403,001,2023-07-24_19h57.55.846,arm3_q,2022.2.5,Win32,60.10337781,5fc26815a9eca13fd5362ba3,64aeaab685a29f4ca249be02,64bec997f1188297851b60ba,right,1,0.95,0.35,0,0.069521356,0.314,,,,,,41,0,41,0,1,,,,,
,,256403,001,2023-07-24_19h57.55.846,arm3_q,2022.2.5,Win32,60.10337781,5fc26815a9eca13fd5362ba3,64aeaab685a29f4ca249be02,64bec997f1188297851b60ba,right,1,0.95,0.35,0,0.082613939,0.6303,,,,,,42,0,42,0,1,,,,,
,,256403,001,2023-07-24_19h57.55.846,arm3_q,2022.2.5,Win32,60.10337781,5fc26815a9eca13fd5362ba3,64aeaab685a29f4ca249be02,64bec997f1188297851b60ba,up,1,0.95,0.35,1,0,0.778,,,,,,43,0,43,0,1,,,,,
,,256403,001,2023-07-24_19h57.55.846,arm3_q,2022.2.5,Win32,60.10337781,5fc26815a9eca13fd5362ba3,64aeaab685a29f4ca249be02,64bec997f1188297851b60ba,right,1,0.95,0.35,1,0.004146385,0.8115,,,,,,44,0,44,0,1,,,,,
,,256403,001,2023-07-24_19h57.55.846,arm3_q,2022.2.5,Win32,60.10337781,5fc26815a9eca13fd5362ba3,64aeaab685a29f4ca249be02,64bec997f1188297851b60ba,right,1,0.95,0.35,1,0.011683558,0.1904,,,,,,45,0,45,0,1,,,,,
,,256403,001,2023-07-24_19h57.55.846,arm3_q,2022.2.5,Win32,60.10337781,5fc26815a9eca13fd5362ba3,64aeaab685a29f4ca249be02,64bec997f1188297851b60ba,right,1,0.95,0.35,1,0.050843801,0.2292,,,,,,46,0,46,0,1,,,,,
,,256403,001,2023-07-24_19h57.55.846,arm3_q,2022.2.5,Win32,60.10337781,5fc26815a9eca13fd5362ba3,64aeaab685a29f4ca249be02,64bec997f1188297851b60ba,right,1,0.95,0.35,1,0.075495581,0.2213,,,,,,47,0,47,0,1,,,,,
,,256403,001,2023-07-24_19h57.55.846,arm3_q,2022.2.5,Win32,60.10337781,5fc26815a9eca13fd5362ba3,64aeaab685a29f4ca249be02,64bec997f1188297851b60ba,right,1,0.95,0.35,1,0.095158601,0.2129,,,,,,48,0,48,0,1,,,,,
,,256403,001,2023-07-24_19h57.55.846,arm3_q,2022.2.5,Win32,60.10337781,5fc26815a9eca13fd5362ba3,64aeaab685a29f4ca249be02,64bec997f1188297851b60ba,right,1,0.95,0.35,1,0.130421707,0.2288,,,,,,49,0,49,0,1,,,,,
,,256403,001,2023-07-24_19h57.55.846,arm3_q,2022.2.5,Win32,60.10337781,5fc26815a9eca13fd5362ba3,64aeaab685a29f4ca249be02,64bec997f1188297851b60ba,right,1,0.95,0.35,1,0.150777498,0.2287,,,,,,50,0,50,0,1,,,,,
,,256403,001,2023-07-24_19h57.55.846,arm3_q,2022.2.5,Win32,60.10337781,5fc26815a9eca13fd5362ba3,64aeaab685a29f4ca249be02,64bec997f1188297851b60ba,up,1,0.95,0.35,2,0,0.5506,,,,,,51,0,51,0,1,,,,,
,,256403,001,2023-07-24_19h57.55.846,arm3_q,2022.2.5,Win32,60.10337781,5fc26815a9eca13fd5362ba3,64aeaab685a29f4ca249be02,64bec997f1188297851b60ba,right,1,0.95,0.35,2,0.000593316,0.8778,,,,,,52,0,52,0,1,,,,,
,,256403,001,2023-07-24_19h57.55.846,arm3_q,2022.2.5,Win32,60.10337781,5fc26815a9eca13fd5362ba3,64aeaab685a29f4ca249be02,64bec997f1188297851b60ba,right,1,0.95,0.35,2,0.024874986,0.1671,,,,,,53,0,53,0,1,,,,,
,,256403,001,2023-07-24_19h57.55.846,arm3_q,2022.2.5,Win32,60.10337781,5fc26815a9eca13fd5362ba3,64aeaab685a29f4ca249be02,64bec997f1188297851b60ba,right,1,0.95,0.35,2,0.011036352,0.1465,,,,,,54,0,54,0,1,,,,,
,,256403,001,2023-07-24_19h57.55.846,arm3_q,2022.2.5,Win32,60.10337781,5fc26815a9eca13fd5362ba3,64aeaab685a29f4ca249be02,64bec997f1188297851b60ba,right,1,0.95,0.35,2,0.002956914,0.2302,,,,,,55,0,55,0,1,,,,,
,,256403,001,2023-07-24_19h57.55.846,arm3_q,2022.2.5,Win32,60.10337781,5fc26815a9eca13fd5362ba3,64aeaab685a29f4ca249be02,64bec997f1188297851b60ba,right,1,0.95,0.35,2,-0.002595449,0.1861,,,,,,56,0,56,0,1,,,,,
,,256403,001,2023-07-24_19h57.55.846,arm3_q,2022.2.5,Win32,60.10337781,5fc26815a9eca13fd5362ba3,64aeaab685a29f4ca249be02,64bec997f1188297851b60ba,right,1,0.95,0.35,2,-0.01972371,0.1976,,,,,,57,0,57,0,1,,,,,
,,256403,001,2023-07-24_19h57.55.846,arm3_q,2022.2.5,Win32,60.10337781,5fc26815a9eca13fd5362ba3,64aeaab685a29f4ca249be02,64bec997f1188297851b60ba,right,1,0.95,0.35,2,-0.015601546,0.1645,,,,,,58,0,58,0,1,,,,,
,,256403,001,2023-07-24_19h57.55.846,arm3_q,2022.2.5,Win32,60.10337781,5fc26815a9eca13fd5362ba3,64aeaab685a29f4ca249be02,64bec997f1188297851b60ba,right,1,0.95,0.35,2,-0.035035538,0.2553,,,,,,59,0,59,0,1,,,,,
,,256403,001,2023-07-24_19h57.55.846,arm3_q,2022.2.5,Win32,60.10337781,5fc26815a9eca13fd5362ba3,64aeaab685a29f4ca249be02,64bec997f1188297851b60ba,right,1,0.95,0.35,2,-0.005248379,0.2131,,,,,,60,0,60,0,1,,,,,
,,256403,001,2023-07-24_19h57.55.846,arm3_q,2022.2.5,Win32,60.10337781,5fc26815a9eca13fd5362ba3,64aeaab685a29f4ca249be02,64bec997f1188297851b60ba,right,1,0.95,0.35,2,0.022329105,0.3551,,,,,,61,0,61,0,1,,,,,
,,256403,001,2023-07-24_19h57.55.846,arm3_q,2022.2.5,Win32,60.10337781,5fc26815a9eca13fd5362ba3,64aeaab685a29f4ca249be02,64bec997f1188297851b60ba,right,1,0.95,0.35,2,0.039424274,0.2048,,,,,,62,0,62,0,1,,,,,
,,256403,001,2023-07-24_19h57.55.846,arm3_q,2022.2.5,Win32,60.10337781,5fc26815a9eca13fd5362ba3,64aeaab685a29f4ca249be02,64bec997f1188297851b60ba,right,1,0.95,0.35,2,0.032912814,0.563,,,,,,63,0,63,0,1,,,,,
,,256403,001,2023-07-24_19h57.55.846,arm3_q,2022.2.5,Win32,60.10337781,5fc26815a9eca13fd5362ba3,64aeaab685a29f4ca249be02,64bec997f1188297851b60ba,up,1,0.95,0.35,3,0,0.7457,,,,,,64,0,64,0,1,,,,,
,,256403,001,2023-07-24_19h57.55.846,arm3_q,2022.2.5,Win32,60.10337781,5fc26815a9eca13fd5362ba3,64aeaab685a29f4ca249be02,64bec997f1188297851b60ba,right,1,0.95,0.35,3,0.015966694,0.8938,,,,,,65,0,65,0,1,,,,,
,,256403,001,2023-07-24_19h57.55.846,arm3_q,2022.2.5,Win32,60.10337781,5fc26815a9eca13fd5362ba3,64aeaab685a29f4ca249be02,64bec997f1188297851b60ba,right,1,0.95,0.35,3,0.048843471,0.1692,,,,,,66,0,66,0,1,,,,,
,,256403,001,2023-07-24_19h57.55.846,arm3_q,2022.2.5,Win32,60.10337781,5fc26815a9eca13fd5362ba3,64aeaab685a29f4ca249be02,64bec997f1188297851b60ba,right,1,0.95,0.35,3,0.071814078,0.1872,,,,,,67,0,67,0,1,,,,,
,,256403,001,2023-07-24_19h57.55.846,arm3_q,2022.2.5,Win32,60.10337781,5fc26815a9eca13fd5362ba3,64aeaab685a29f4ca249be02,64bec997f1188297851b60ba,right,1,0.95,0.35,3,0.081997493,0.2003,,,,,,68,0,68,0,1,,,,,
,,256403,001,2023-07-24_19h57.55.846,arm3_q,2022.2.5,Win32,60.10337781,5fc26815a9eca13fd5362ba3,64aeaab685a29f4ca249be02,64bec997f1188297851b60ba,right,1,0.95,0.35,3,0.122328937,0.1982,,,,,,69,0,69,0,1,,,,,
,,256403,001,2023-07-24_19h57.55.846,arm3_q,2022.2.5,Win32,60.10337781,5fc26815a9eca13fd5362ba3,64aeaab685a29f4ca249be02,64bec997f1188297851b60ba,right,1,0.95,0.35,3,0.14075216,0.2469,,,,,,70,0,70,0,1,,,,,
,,256403,001,2023-07-24_19h57.55.846,arm3_q,2022.2.5,Win32,60.10337781,5fc26815a9eca13fd5362ba3,64aeaab685a29f4ca249be02,64bec997f1188297851b60ba,right,1,0.95,0.35,3,0.128191827,0.2318,,,,,,71,0,71,0,1,,,,,
,,256403,001,2023-07-24_19h57.55.846,arm3_q,2022.2.5,Win32,60.10337781,5fc26815a9eca13fd5362ba3,64aeaab685a29f4ca249be02,64bec997f1188297851b60ba,right,1,0.95,0.35,3,0.12672144,0.2893,,,,,,72,0,72,0,1,,,,,
,,256403,001,2023-07-24_19h57.55.846,arm3_q,2022.2.5,Win32,60.10337781,5fc26815a9eca13fd5362ba3,64aeaab685a29f4ca249be02,64bec997f1188297851b60ba,up,1,0.95,0.35,4,0,0.431,,,,,,73,0,73,0,1,,,,,
,,256403,001,2023-07-24_19h57.55.846,arm3_q,2022.2.5,Win32,60.10337781,5fc26815a9eca13fd5362ba3,64aeaab685a29f4ca249be02,64bec997f1188297851b60ba,right,1,0.95,0.35,4,-0.000102225,1.527,,,,,,74,0,74,0,1,,,,,
,,256403,001,2023-07-24_19h57.55.846,arm3_q,2022.2.5,Win32,60.10337781,5fc26815a9eca13fd5362ba3,64aeaab685a29f4ca249be02,64bec997f1188297851b60ba,right,1,0.95,0.35,4,-0.005575036,0.1825,,,,,,75,0,75,0,1,,,,,
,,256403,001,2023-07-24_19h57.55.846,arm3_q,2022.2.5,Win32,60.10337781,5fc26815a9eca13fd5362ba3,64aeaab685a29f4ca249be02,64bec997f1188297851b60ba,right,1,0.95,0.35,4,-0.020462094,0.2241,,,,,,76,0,76,0,1,,,,,
,,256403,001,2023-07-24_19h57.55.846,arm3_q,2022.2.5,Win32,60.10337781,5fc26815a9eca13fd5362ba3,64aeaab685a29f4ca249be02,64bec997f1188297851b60ba,right,1,0.95,0.35,4,-0.007061449,0.2804,,,,,,77,0,77,0,1,,,,,
,,256403,001,2023-07-24_19h57.55.846,arm3_q,2022.2.5,Win32,60.10337781,5fc26815a9eca13fd5362ba3,64aeaab685a29f4ca249be02,64bec997f1188297851b60ba,right,1,0.95,0.35,4,-0.002922972,0.3012,,,,,,78,0,78,0,1,,,,,
,,256403,001,2023-07-24_19h57.55.846,arm3_q,2022.2.5,Win32,60.10337781,5fc26815a9eca13fd5362ba3,64aeaab685a29f4ca249be02,64bec997f1188297851b60ba,right,1,0.95,0.35,4,0.028823986,0.2375,,,,,,79,0,79,0,1,,,,,
,,256403,001,2023-07-24_19h57.55.846,arm3_q,2022.2.5,Win32,60.10337781,5fc26815a9eca13fd5362ba3,64aeaab685a29f4ca249be02,64bec997f1188297851b60ba,right,1,0.95,0.35,4,0.022023706,0.5089,,,,,,80,0,80,0,1,,,,,
,,256403,001,2023-07-24_19h57.55.846,arm3_q,2022.2.5,Win32,60.10337781,5fc26815a9eca13fd5362ba3,64aeaab685a29f4ca249be02,64bec997f1188297851b60ba,right,1,0.95,0.35,4,0.038854928,0.3897,,,,,,81,0,81,0,1,,,,,
,,256403,001,2023-07-24_19h57.55.846,arm3_q,2022.2.5,Win32,60.10337781,5fc26815a9eca13fd5362ba3,64aeaab685a29f4ca249be02,64bec997f1188297851b60ba,up,1,0.95,0.35,5,0,0.5375,,,,,,82,0,82,0,1,,,,,
,,256403,001,2023-07-24_19h57.55.846,arm3_q,2022.2.5,Win32,60.10337781,5fc26815a9eca13fd5362ba3,64aeaab685a29f4ca249be02,64bec997f1188297851b60ba,right,1,0.95,0.35,5,-0.00097894,1.4597,,,,,,83,0,83,0,1,,,,,
,,256403,001,2023-07-24_19h57.55.846,arm3_q,2022.2.5,Win32,60.10337781,5fc26815a9eca13fd5362ba3,64aeaab685a29f4ca249be02,64bec997f1188297851b60ba,right,1,0.95,0.35,5,0.030333801,0.2126,,,,,,84,0,84,0,1,,,,,
,,256403,001,2023-07-24_19h57.55.846,arm3_q,2022.2.5,Win32,60.10337781,5fc26815a9eca13fd5362ba3,64aeaab685a29f4ca249be02,64bec997f1188297851b60ba,right,1,0.95,0.35,5,0.032743582,0.2185,,,,,,85,0,85,0,1,,,,,
,,256403,001,2023-07-24_19h57.55.846,arm3_q,2022.2.5,Win32,60.10337781,5fc26815a9eca13fd5362ba3,64aeaab685a29f4ca249be02,64bec997f1188297851b60ba,right,1,0.95,0.35,5,0.041464733,0.4488,,,,,,86,0,86,0,1,,,,,
,,256403,001,2023-07-24_19h57.55.846,arm3_q,2022.2.5,Win32,60.10337781,5fc26815a9eca13fd5362ba3,64aeaab685a29f4ca249be02,64bec997f1188297851b60ba,right,1,0.95,0.35,5,0.058686334,0.2191,,,,,,87,0,87,0,1,,,,,
,,256403,001,2023-07-24_19h57.55.846,arm3_q,2022.2.5,Win32,60.10337781,5fc26815a9eca13fd5362ba3,64aeaab685a29f4ca249be02,64bec997f1188297851b60ba,right,1,0.95,0.35,5,0.080429187,0.1638,,,,,,88,0,88,0,1,,,,,
,,256403,001,2023-07-24_19h57.55.846,arm3_q,2022.2.5,Win32,60.10337781,5fc26815a9eca13fd5362ba3,64aeaab685a29f4ca249be02,64bec997f1188297851b60ba,up,1,0.95,0.35,6,0,0.3678,,,,,,89,0,89,0,1,,,,,
,,256403,001,2023-07-24_19h57.55.846,arm3_q,2022.2.5,Win32,60.10337781,5fc26815a9eca13fd5362ba3,64aeaab685a29f4ca249be02,64bec997f1188297851b60ba,right,1,0.95,0.35,6,0.0074411,0.7784,,,,,,90,0,90,0,1,,,,,
,,256403,001,2023-07-24_19h57.55.846,arm3_q,2022.2.5,Win32,60.10337781,5fc26815a9eca13fd5362ba3,64aeaab685a29f4ca249be02,64bec997f1188297851b60ba,right,1,0.95,0.35,6,-0.007217084,0.1707,,,,,,91,0,91,0,1,,,,,
,,256403,001,2023-07-24_19h57.55.846,arm3_q,2022.2.5,Win32,60.10337781,5fc26815a9eca13fd5362ba3,64aeaab685a29f4ca249be02,64bec997f1188297851b60ba,right,1,0.95,0.35,6,0.009939628,0.205,,,,,,92,0,92,0,1,,,,,
,,256403,001,2023-07-24_19h57.55.846,arm3_q,2022.2.5,Win32,60.10337781,5fc26815a9eca13fd5362ba3,64aeaab685a29f4ca249be02,64bec997f1188297851b60ba,right,1,0.95,0.35,6,0.056584518,0.1965,,,,,,93,0,93,0,1,,,,,
,,256403,001,2023-07-24_19h57.55.846,arm3_q,2022.2.5,Win32,60.10337781,5fc26815a9eca13fd5362ba3,64aeaab685a29f4ca249be02,64bec997f1188297851b60ba,right,1,0.95,0.35,6,0.091349242,0.1497,,,,,,94,0,94,0,1,,,,,
,,256403,001,2023-07-24_19h57.55.846,arm3_q,2022.2.5,Win32,60.10337781,5fc26815a9eca13fd5362ba3,64aeaab685a29f4ca249be02,64bec997f1188297851b60ba,up,-1,0.95,0.35,7,0,0.5729,,,,,,95,0,95,0,1,,,,,
,,256403,001,2023-07-24_19h57.55.846,arm3_q,2022.2.5,Win32,60.10337781,5fc26815a9eca13fd5362ba3,64aeaab685a29f4ca249be02,64bec997f1188297851b60ba,right,-1,0.95,0.35,7,-0.007984063,0.7942,,,,,,96,0,96,0,1,,,,,
,,256403,001,2023-07-24_19h57.55.846,arm3_q,2022.2.5,Win32,60.10337781,5fc26815a9eca13fd5362ba3,64aeaab685a29f4ca249be02,64bec997f1188297851b60ba,right,-1,0.95,0.35,7,-0.012011383,0.1732,,,,,,97,0,97,0,1,,,,,
,,256403,001,2023-07-24_19h57.55.846,arm3_q,2022.2.5,Win32,60.10337781,5fc26815a9eca13fd5362ba3,64aeaab685a29f4ca249be02,64bec997f1188297851b60ba,right,-1,0.95,0.35,7,-0.037584241,0.1805,,,,,,98,0,98,0,1,,,,,
,,256403,001,2023-07-24_19h57.55.846,arm3_q,2022.2.5,Win32,60.10337781,5fc26815a9eca13fd5362ba3,64aeaab685a29f4ca249be02,64bec997f1188297851b60ba,right,-1,0.95,0.35,7,-0.05213365,0.1667,,,,,,99,0,99,0,1,,,,,
,,256403,001,2023-07-24_19h57.55.846,arm3_q,2022.2.5,Win32,60.10337781,5fc26815a9eca13fd5362ba3,64aeaab685a29f4ca249be02,64bec997f1188297851b60ba,right,-1,0.95,0.35,7,-0.013094017,0.1862,,,,,,100,0,100,0,1,,,,,
,,256403,001,2023-07-24_19h57.55.846,arm3_q,2022.2.5,Win32,60.10337781,5fc26815a9eca13fd5362ba3,64aeaab685a29f4ca249be02,64bec997f1188297851b60ba,right,-1,0.95,0.35,7,-0.011570694,0.1682,,,,,,101,0,101,0,1,,,,,
,,256403,001,2023-07-24_19h57.55.846,arm3_q,2022.2.5,Win32,60.10337781,5fc26815a9eca13fd5362ba3,64aeaab685a29f4ca249be02,64bec997f1188297851b60ba,right,-1,0.95,0.35,7,0.004278,0.2198,,,,,,102,0,102,0,1,,,,,
,,256403,001,2023-07-24_19h57.55.846,arm3_q,2022.2.5,Win32,60.10337781,5fc26815a9eca13fd5362ba3,64aeaab685a29f4ca249be02,64bec997f1188297851b60ba,right,-1,0.95,0.35,7,0.001032704,0.2292,,,,,,103,0,103,0,1,,,,,
,,256403,001,2023-07-24_19h57.55.846,arm3_q,2022.2.5,Win32,60.10337781,5fc26815a9eca13fd5362ba3,64aeaab685a29f4ca249be02,64bec997f1188297851b60ba,right,-1,0.95,0.35,7,0.027816322,0.2185,,,,,,104,0,104,0,1,,,,,
,,256403,001,2023-07-24_19h57.55.846,arm3_q,2022.2.5,Win32,60.10337781,5fc26815a9eca13fd5362ba3,64aeaab685a29f4ca249be02,64bec997f1188297851b60ba,right,-1,0.95,0.35,7,0.030572329,0.3985,,,,,,105,0,105,0,1,,,,,
,,256403,001,2023-07-24_19h57.55.846,arm3_q,2022.2.5,Win32,60.10337781,5fc26815a9eca13fd5362ba3,64aeaab685a29f4ca249be02,64bec997f1188297851b60ba,up,-1,0.95,0.35,6,0,11.6371,,,,,,106,0,106,0,1,,,,,
,,256403,001,2023-07-24_19h57.55.846,arm3_q,2022.2.5,Win32,60.10337781,5fc26815a9eca13fd5362ba3,64aeaab685a29f4ca249be02,64bec997f1188297851b60ba,right,-1,0.95,0.35,6,0.007653015,2.0551,,,,,,107,0,107,0,1,,,,,
,,256403,001,2023-07-24_19h57.55.846,arm3_q,2022.2.5,Win32,60.10337781,5fc26815a9eca13fd5362ba3,64aeaab685a29f4ca249be02,64bec997f1188297851b60ba,right,-1,0.95,0.35,6,0.02375314,0.8839,,,,,,108,0,108,0,1,,,,,
,,256403,001,2023-07-24_19h57.55.846,arm3_q,2022.2.5,Win32,60.10337781,5fc26815a9eca13fd5362ba3,64aeaab685a29f4ca249be02,64bec997f1188297851b60ba,right,-1,0.95,0.35,6,0.00539439,0.1837,,,,,,109,0,109,0,1,,,,,
,,256403,001,2023-07-24_19h57.55.846,arm3_q,2022.2.5,Win32,60.10337781,5fc26815a9eca13fd5362ba3,64aeaab685a29f4ca249be02,64bec997f1188297851b60ba,right,-1,0.95,0.35,6,-0.001587925,0.1253,,,,,,110,0,110,0,1,,,,,
,,256403,001,2023-07-24_19h57.55.846,arm3_q,2022.2.5,Win32,60.10337781,5fc26815a9eca13fd5362ba3,64aeaab685a29f4ca249be02,64bec997f1188297851b60ba,right,-1,0.95,0.35,6,-0.010369287,0.1416,,,,,,111,0,111,0,1,,,,,
,,256403,001,2023-07-24_19h57.55.846,arm3_q,2022.2.5,Win32,60.10337781,5fc26815a9eca13fd5362ba3,64aeaab685a29f4ca249be02,64bec997f1188297851b60ba,right,-1,0.95,0.35,6,0.002918932,0.1675,,,,,,112,0,112,0,1,,,,,
,,256403,001,2023-07-24_19h57.55.846,arm3_q,2022.2.5,Win32,60.10337781,5fc26815a9eca13fd5362ba3,64aeaab685a29f4ca249be02,64bec997f1188297851b60ba,right,-1,0.95,0.35,6,-0.006880968,0.1506,,,,,,113,0,113,0,1,,,,,
,,256403,001,2023-07-24_19h57.55.846,arm3_q,2022.2.5,Win32,60.10337781,5fc26815a9eca13fd5362ba3,64aeaab685a29f4ca249be02,64bec997f1188297851b60ba,right,-1,0.95,0.35,6,-0.006936952,0.151,,,,,,114,0,114,0,1,,,,,
,,256403,001,2023-07-24_19h57.55.846,arm3_q,2022.2.5,Win32,60.10337781,5fc26815a9eca13fd5362ba3,64aeaab685a29f4ca249be02,64bec997f1188297851b60ba,right,-1,0.95,0.35,6,-0.038089322,0.1841,,,,,,115,0,115,0,1,,,,,
,,256403,001,2023-07-24_19h57.55.846,arm3_q,2022.2.5,Win32,60.10337781,5fc26815a9eca13fd5362ba3,64aeaab685a29f4ca249be02,64bec997f1188297851b60ba,down,-1,0.95,0.35,6,0,0.4341,,,,,,116,0,116,0,1,,,,,
,,256403,001,2023-07-24_19h57.55.846,arm3_q,2022.2.5,Win32,60.10337781,5fc26815a9eca13fd5362ba3,64aeaab685a29f4ca249be02,64bec997f1188297851b60ba,right,-1,0.95,0.35,6,-0.030904996,0.8994,,,,,,117,0,117,0,1,,,,,
,,256403,001,2023-07-24_19h57.55.846,arm3_q,2022.2.5,Win32,60.10337781,5fc26815a9eca13fd5362ba3,64aeaab685a29f4ca249be02,64bec997f1188297851b60ba,right,-1,0.95,0.35,6,-0.048542465,0.1839,,,,,,118,0,118,0,1,,,,,
,,256403,001,2023-07-24_19h57.55.846,arm3_q,2022.2.5,Win32,60.10337781,5fc26815a9eca13fd5362ba3,64aeaab685a29f4ca249be02,64bec997f1188297851b60ba,right,-1,0.95,0.35,6,-0.04275357,0.1674,,,,,,119,0,119,0,1,,,,,
,,256403,001,2023-07-24_19h57.55.846,arm3_q,2022.2.5,Win32,60.10337781,5fc26815a9eca13fd5362ba3,64aeaab685a29f4ca249be02,64bec997f1188297851b60ba,right,-1,0.95,0.35,6,-0.037564746,0.1504,,,,,,120,0,120,0,1,,,,,
,,256403,001,2023-07-24_19h57.55.846,arm3_q,2022.2.5,Win32,60.10337781,5fc26815a9eca13fd5362ba3,64aeaab685a29f4ca249be02,64bec997f1188297851b60ba,right,-1,0.95,0.35,6,-0.090084713,0.1852,,,,,,121,0,121,0,1,,,,,
,,256403,001,2023-07-24_19h57.55.846,arm3_q,2022.2.5,Win32,60.10337781,5fc26815a9eca13fd5362ba3,64aeaab685a29f4ca249be02,64bec997f1188297851b60ba,right,-1,0.95,0.35,6,-0.080438862,0.3341,,,,,,122,0,122,0,1,,,,,
,,256403,001,2023-07-24_19h57.55.846,arm3_q,2022.2.5,Win32,60.10337781,5fc26815a9eca13fd5362ba3,64aeaab685a29f4ca249be02,64bec997f1188297851b60ba,down,-1,0.95,0.35,7,0,0.3507,,,,,,123,0,123,0,1,,,,,
,,256403,001,2023-07-24_19h57.55.846,arm3_q,2022.2.5,Win32,60.10337781,5fc26815a9eca13fd5362ba3,64aeaab685a29f4ca249be02,64bec997f1188297851b60ba,right,-1,0.95,0.35,7,0.000214163,0.9824,,,,,,124,0,124,0,1,,,,,
,,256403,001,2023-07-24_19h57.55.846,arm3_q,2022.2.5,Win32,60.10337781,5fc26815a9eca13fd5362ba3,64aeaab685a29f4ca249be02,64bec997f1188297851b60ba,right,-1,0.95,0.35,7,-0.014608287,0.1842,,,,,,125,0,125,0,1,,,,,
,,256403,001,2023-07-24_19h57.55.846,arm3_q,2022.2.5,Win32,60.10337781,5fc26815a9eca13fd5362ba3,64aeaab685a29f4ca249be02,64bec997f1188297851b60ba,right,-1,0.95,0.35,7,-0.019734418,0.1841,,,,,,126,0,126,0,1,,,,,
,,256403,001,2023-07-24_19h57.55.846,arm3_q,2022.2.5,Win32,60.10337781,5fc26815a9eca13fd5362ba3,64aeaab685a29f4ca249be02,64bec997f1188297851b60ba,right,-1,0.95,0.35,7,-0.012637556,0.1343,,,,,,127,0,127,0,1,,,,,
,,256403,001,2023-07-24_19h57.55.846,arm3_q,2022.2.5,Win32,60.10337781,5fc26815a9eca13fd5362ba3,64aeaab685a29f4ca249be02,64bec997f1188297851b60ba,right,-1,0.95,0.35,7,-0.037500299,0.2011,,,,,,128,0,128,0,1,,,,,
,,256403,001,2023-07-24_19h57.55.846,arm3_q,2022.2.5,Win32,60.10337781,5fc26815a9eca13fd5362ba3,64aeaab685a29f4ca249be02,64bec997f1188297851b60ba,right,-1,0.95,0.35,7,-0.035688693,0.2007,,,,,,129,0,129,0,1,,,,,
,,256403,001,2023-07-24_19h57.55.846,arm3_q,2022.2.5,Win32,60.10337781,5fc26815a9eca13fd5362ba3,64aeaab685a29f4ca249be02,64bec997f1188297851b60ba,right,-1,0.95,0.35,7,-0.056348776,0.2011,,,,,,130,0,130,0,1,,,,,
,,256403,001,2023-07-24_19h57.55.846,arm3_q,2022.2.5,Win32,60.10337781,5fc26815a9eca13fd5362ba3,64aeaab685a29f4ca249be02,64bec997f1188297851b60ba,right,-1,0.95,0.35,7,-0.075429078,0.2342,,,,,,131,0,131,0,1,,,,,
,,256403,001,2023-07-24_19h57.55.846,arm3_q,2022.2.5,Win32,60.10337781,5fc26815a9eca13fd5362ba3,64aeaab685a29f4ca249be02,64bec997f1188297851b60ba,down,-1,0.95,0.35,8,0,0.4005,,,,,,132,0,132,0,1,,,,,
,,256403,001,2023-07-24_19h57.55.846,arm3_q,2022.2.5,Win32,60.10337781,5fc26815a9eca13fd5362ba3,64aeaab685a29f4ca249be02,64bec997f1188297851b60ba,right,-1,0.95,0.35,8,-0.027360647,0.817,,,,,,133,0,133,0,1,,,,,
,,256403,001,2023-07-24_19h57.55.846,arm3_q,2022.2.5,Win32,60.10337781,5fc26815a9eca13fd5362ba3,64aeaab685a29f4ca249be02,64bec997f1188297851b60ba,right,-1,0.95,0.35,8,-0.039473726,0.1343,,,,,,134,0,134,0,1,,,,,
,,256403,001,2023-07-24_19h57.55.846,arm3_q,2022.2.5,Win32,60.10337781,5fc26815a9eca13fd5362ba3,64aeaab685a29f4ca249be02,64bec997f1188297851b60ba,right,-1,0.95,0.35,8,-0.067812696,0.1675,,,,,,135,0,135,0,1,,,,,
,,256403,001,2023-07-24_19h57.55.846,arm3_q,2022.2.5,Win32,60.10337781,5fc26815a9eca13fd5362ba3,64aeaab685a29f4ca249be02,64bec997f1188297851b60ba,right,-1,0.95,0.35,8,-0.10323389,0.1676,,,,,,136,0,136,0,1,,,,,
,,256403,001,2023-07-24_19h57.55.846,arm3_q,2022.2.5,Win32,60.10337781,5fc26815a9eca13fd5362ba3,64aeaab685a29f4ca249be02,64bec997f1188297851b60ba,right,-1,0.95,0.35,8,-0.122487885,0.151,,,,,,137,0,137,0,1,,,,,
,,256403,001,2023-07-24_19h57.55.846,arm3_q,2022.2.5,Win32,60.10337781,5fc26815a9eca13fd5362ba3,64aeaab685a29f4ca249be02,64bec997f1188297851b60ba,right,-1,0.95,0.35,8,-0.109903216,0.184,,,,,,138,0,138,0,1,,,,,
,,256403,001,2023-07-24_19h57.55.846,arm3_q,2022.2.5,Win32,60.10337781,5fc26815a9eca13fd5362ba3,64aeaab685a29f4ca249be02,64bec997f1188297851b60ba,right,-1,0.95,0.35,8,-0.138915564,0.2008,,,,,,139,0,139,0,1,,,,,
,,256403,001,2023-07-24_19h57.55.846,arm3_q,2022.2.5,Win32,60.10337781,5fc26815a9eca13fd5362ba3,64aeaab685a29f4ca249be02,64bec997f1188297851b60ba,down,-1,0.95,0.35,9,0,0.4008,,,,,,140,0,140,0,1,,,,,
,,256403,001,2023-07-24_19h57.55.846,arm3_q,2022.2.5,Win32,60.10337781,5fc26815a9eca13fd5362ba3,64aeaab685a29f4ca249be02,64bec997f1188297851b60ba,right,-1,0.95,0.35,9,-0.017189315,0.7006,,,,,,141,0,141,0,1,,,,,
,,256403,001,2023-07-24_19h57.55.846,arm3_q,2022.2.5,Win32,60.10337781,5fc26815a9eca13fd5362ba3,64aeaab685a29f4ca249be02,64bec997f1188297851b60ba,right,-1,0.95,0.35,9,-0.029472371,0.2008,,,,,,142,0,142,0,1,,,,,
,,256403,001,2023-07-24_19h57.55.846,arm3_q,2022.2.5,Win32,60.10337781,5fc26815a9eca13fd5362ba3,64aeaab685a29f4ca249be02,64bec997f1188297851b60ba,right,-1,0.95,0.35,9,-0.036229975,0.151,,,,,,143,0,143,0,1,,,,,
,,256403,001,2023-07-24_19h57.55.846,arm3_q,2022.2.5,Win32,60.10337781,5fc26815a9eca13fd5362ba3,64aeaab685a29f4ca249be02,64bec997f1188297851b60ba,right,-1,0.95,0.35,9,-0.027570872,0.1839,,,,,,144,0,144,0,1,,,,,
,,256403,001,2023-07-24_19h57.55.846,arm3_q,2022.2.5,Win32,60.10337781,5fc26815a9eca13fd5362ba3,64aeaab685a29f4ca249be02,64bec997f1188297851b60ba,right,-1,0.95,0.35,9,-0.05155546,0.1509,,,,,,145,0,145,0,1,,,,,
,,256403,001,2023-07-24_19h57.55.846,arm3_q,2022.2.5,Win32,60.10337781,5fc26815a9eca13fd5362ba3,64aeaab685a29f4ca249be02,64bec997f1188297851b60ba,right,-1,0.95,0.35,9,-0.039728004,0.1924,,,,,,146,0,146,0,1,,,,,
,,256403,001,2023-07-24_19h57.55.846,arm3_q,2022.2.5,Win32,60.10337781,5fc26815a9eca13fd5362ba3,64aeaab685a29f4ca249be02,64bec997f1188297851b60ba,right,-1,0.95,0.35,9,-0.014402956,0.4842,,,,,,147,0,147,0,1,,,,,
,,256403,001,2023-07-24_19h57.55.846,arm3_q,2022.2.5,Win32,60.10337781,5fc26815a9eca13fd5362ba3,64aeaab685a29f4ca249be02,64bec997f1188297851b60ba,right,-1,0.95,0.35,9,-0.03037449,0.3839,,,,,,148,0,148,0,1,,,,,
,,256403,001,2023-07-24_19h57.55.846,arm3_q,2022.2.5,Win32,60.10337781,5fc26815a9eca13fd5362ba3,64aeaab685a29f4ca249be02,64bec997f1188297851b60ba,right,-1,0.95,0.35,9,-0.028015339,0.4006,,,,,,149,0,149,0,1,,,,,
,,256403,001,2023-07-24_19h57.55.846,arm3_q,2022.2.5,Win32,60.10337781,5fc26815a9eca13fd5362ba3,64aeaab685a29f4ca249be02,64bec997f1188297851b60ba,right,-1,0.95,0.35,9,-0.01674936,0.5172,,,,,,150,0,150,0,1,,,,,
,,256403,001,2023-07-24_19h57.55.846,arm3_q,2022.2.5,Win32,60.10337781,5fc26815a9eca13fd5362ba3,64aeaab685a29f4ca249be02,64bec997f1188297851b60ba,right,-1,0.95,0.35,9,-0.023214615,0.3172,,,,,,151,0,151,0,1,,,,,
,,256403,001,2023-07-24_19h57.55.846,arm3_q,2022.2.5,Win32,60.10337781,5fc26815a9eca13fd5362ba3,64aeaab685a29f4ca249be02,64bec997f1188297851b60ba,down,-1,0.95,0.35,10,0,0.4669,,,,,,152,0,152,0,1,,,,,
,,256403,001,2023-07-24_19h57.55.846,arm3_q,2022.2.5,Win32,60.10337781,5fc26815a9eca13fd5362ba3,64aeaab685a29f4ca249be02,64bec997f1188297851b60ba,right,-1,0.95,0.35,10,0.002866288,0.8332,,,,,,153,0,153,0,1,,,,,
,,256403,001,2023-07-24_19h57.55.846,arm3_q,2022.2.5,Win32,60.10337781,5fc26815a9eca13fd5362ba3,64aeaab685a29f4ca249be02,64bec997f1188297851b60ba,right,-1,0.95,0.35,10,0.0103002,0.1851,,,,,,154,0,154,0,1,,,,,
,,256403,001,2023-07-24_19h57.55.846,arm3_q,2022.2.5,Win32,60.10337781,5fc26815a9eca13fd5362ba3,64aeaab685a29f4ca249be02,64bec997f1188297851b60ba,right,-1,0.95,0.35,10,0.010932315,0.1676,,,,,,155,0,155,0,1,,,,,
,,256403,001,2023-07-24_19h57.55.846,arm3_q,2022.2.5,Win32,60.10337781,5fc26815a9eca13fd5362ba3,64aeaab685a29f4ca249be02,64bec997f1188297851b60ba,right,-1,0.95,0.35,10,0.0158596,0.4172,,,,,,156,0,156,0,1,,,,,
,,256403,001,2023-07-24_19h57.55.846,arm3_q,2022.2.5,Win32,60.10337781,5fc26815a9eca13fd5362ba3,64aeaab685a29f4ca249be02,64bec997f1188297851b60ba,right,-1,0.95,0.35,10,0.003664624,0.1843,,,,,,157,0,157,0,1,,,,,
,,256403,001,2023-07-24_19h57.55.846,arm3_q,2022.2.5,Win32,60.10337781,5fc26815a9eca13fd5362ba3,64aeaab685a29f4ca249be02,64bec997f1188297851b60ba,right,-1,0.95,0.35,10,-0.004504286,0.201,,,,,,158,0,158,0,1,,,,,
,,256403,001,2023-07-24_19h57.55.846,arm3_q,2022.2.5,Win32,60.10337781,5fc26815a9eca13fd5362ba3,64aeaab685a29f4ca249be02,64bec997f1188297851b60ba,right,-1,0.95,0.35,10,0.001386844,0.184,,,,,,159,0,159,0,1,,,,,
,,256403,001,2023-07-24_19h57.55.846,arm3_q,2022.2.5,Win32,60.10337781,5fc26815a9eca13fd5362ba3,64aeaab685a29f4ca249be02,64bec997f1188297851b60ba,right,-1,0.95,0.35,10,-0.029093267,0.2111,,,,,,160,0,160,0,1,,,,,
,,256403,001,2023-07-24_19h57.55.846,arm3_q,2022.2.5,Win32,60.10337781,5fc26815a9eca13fd5362ba3,64aeaab685a29f4ca249be02,64bec997f1188297851b60ba,right,-1,0.95,0.35,10,-0.040509895,0.2172,,,,,,161,0,161,0,1,,,,,
,,256403,001,2023-07-24_19h57.55.846,arm3_q,2022.2.5,Win32,60.10337781,5fc26815a9eca13fd5362ba3,64aeaab685a29f4ca249be02,64bec997f1188297851b60ba,right,-1,0.95,0.35,10,-0.02710998,0.2182,,,,,,162,0,162,0,1,,,,,
,,256403,001,2023-07-24_19h57.55.846,arm3_q,2022.2.5,Win32,60.10337781,5fc26815a9eca13fd5362ba3,64aeaab685a29f4ca249be02,64bec997f1188297851b60ba,right,-1,0.95,0.35,10,-0.036029298,0.2863,,,,,,163,0,163,0,1,,,,,
,,256403,001,2023-07-24_19h57.55.846,arm3_q,2022.2.5,Win32,60.10337781,5fc26815a9eca13fd5362ba3,64aeaab685a29f4ca249be02,64bec997f1188297851b60ba,right,-1,0.95,0.35,10,-0.017636476,0.7171,,,,,,164,0,164,0,1,,,,,
,,256403,001,2023-07-24_19h57.55.846,arm3_q,2022.2.5,Win32,60.10337781,5fc26815a9eca13fd5362ba3,64aeaab685a29f4ca249be02,64bec997f1188297851b60ba,down,-1,0.95,0.35,11,0,0.5674,,,,,,165,0,165,0,1,,,,,
,,256403,001,2023-07-24_19h57.55.846,arm3_q,2022.2.5,Win32,60.10337781,5fc26815a9eca13fd5362ba3,64aeaab685a29f4ca249be02,64bec997f1188297851b60ba,right,-1,0.95,0.35,11,-0.00918687,1.0997,,,,,,166,0,166,0,1,,,,,
,,256403,001,2023-07-24_19h57.55.846,arm3_q,2022.2.5,Win32,60.10337781,5fc26815a9eca13fd5362ba3,64aeaab685a29f4ca249be02,64bec997f1188297851b60ba,right,-1,0.95,0.35,11,-0.007651295,0.4177,,,,,,167,0,167,0,1,,,,,
,,256403,001,2023-07-24_19h57.55.846,arm3_q,2022.2.5,Win32,60.10337781,5fc26815a9eca13fd5362ba3,64aeaab685a29f4ca249be02,64bec997f1188297851b60ba,right,-1,0.95,0.35,11,-0.013315983,0.2099,,,,,,168,0,168,0,1,,,,,
,,256403,001,2023-07-24_19h57.55.846,arm3_q,2022.2.5,Win32,60.10337781,5fc26815a9eca13fd5362ba3,64aeaab685a29f4ca249be02,64bec997f1188297851b60ba,right,-1,0.95,0.35,11,-0.04340957,0.1846,,,,,,169,0,169,0,1,,,,,
,,256403,001,2023-07-24_19h57.55.846,arm3_q,2022.2.5,Win32,60.10337781,5fc26815a9eca13fd5362ba3,64aeaab685a29f4ca249be02,64bec997f1188297851b60ba,right,-1,0.95,0.35,11,-0.079371594,0.2008,,,,,,170,0,170,0,1,,,,,
,,256403,001,2023-07-24_19h57.55.846,arm3_q,2022.2.5,Win32,60.10337781,5fc26815a9eca13fd5362ba3,64aeaab685a29f4ca249be02,64bec997f1188297851b60ba,right,-1,0.95,0.35,11,-0.063242571,0.1841,,,,,,171,0,171,0,1,,,,,
,,256403,001,2023-07-24_19h57.55.846,arm3_q,2022.2.5,Win32,60.10337781,5fc26815a9eca13fd5362ba3,64aeaab685a29f4ca249be02,64bec997f1188297851b60ba,down,1,0.95,0.35,12,0,0.3347,,,,,,172,0,172,0,1,,,,,
,,256403,001,2023-07-24_19h57.55.846,arm3_q,2022.2.5,Win32,60.10337781,5fc26815a9eca13fd5362ba3,64aeaab685a29f4ca249be02,64bec997f1188297851b60ba,right,1,0.95,0.35,12,0.043439755,0.7506,,,,,,173,0,173,0,1,,,,,
,,256403,001,2023-07-24_19h57.55.846,arm3_q,2022.2.5,Win32,60.10337781,5fc26815a9eca13fd5362ba3,64aeaab685a29f4ca249be02,64bec997f1188297851b60ba,right,1,0.95,0.35,12,0.105623777,0.2173,,,,,,174,0,174,0,1,,,,,
,,256403,001,2023-07-24_19h57.55.846,arm3_q,2022.2.5,Win32,60.10337781,5fc26815a9eca13fd5362ba3,64aeaab685a29f4ca249be02,64bec997f1188297851b60ba,right,1,0.95,0.35,12,0.152820627,0.1343,,,,,,175,0,175,0,1,,,,,
,,256403,001,2023-07-24_19h57.55.846,arm3_q,2022.2.5,Win32,60.10337781,5fc26815a9eca13fd5362ba3,64aeaab685a29f4ca249be02,64bec997f1188297851b60ba,right,1,0.95,0.35,12,0.16311855,0.1776,,,,,,176,0,176,0,1,,,,,
,,256403,001,2023-07-24_19h57.55.846,arm3_q,2022.2.5,Win32,60.10337781,5fc26815a9eca13fd5362ba3,64aeaab685a29f4ca249be02,64bec997f1188297851b60ba,right,1,0.95,0.35,12,0.157480193,0.1507,,,,,,177,0,177,0,1,,,,,
,,256403,001,2023-07-24_19h57.55.846,arm3_q,2022.2.5,Win32,60.10337781,5fc26815a9eca13fd5362ba3,64aeaab685a29f4ca249be02,64bec997f1188297851b60ba,up,1,0.95,0.35,13,0,0.8166,,,,,,178,0,178,0,1,,,,,
,,256403,001,2023-07-24_19h57.55.846,arm3_q,2022.2.5,Win32,60.10337781,5fc26815a9eca13fd5362ba3,64aeaab685a29f4ca249be02,64bec997f1188297851b60ba,right,1,0.95,0.35,13,-0.029906615,0.8732,,,,,,179,0,179,0,1,,,,,
,,256403,001,2023-07-24_19h57.55.846,arm3_q,2022.2.5,Win32,60.10337781,5fc26815a9eca13fd5362ba3,64aeaab685a29f4ca249be02,64bec997f1188297851b60ba,right,1,0.95,0.35,13,-0.000696598,0.183,,,,,,180,0,180,0,1,,,,,
,,256403,001,2023-07-24_19h57.55.846,arm3_q,2022.2.5,Win32,60.10337781,5fc26815a9eca13fd5362ba3,64aeaab685a29f4ca249be02,64bec997f1188297851b60ba,right,1,0.95,0.35,13,-0.00691786,0.1507,,,,,,181,0,181,0,1,,,,,
,,256403,001,2023-07-24_19h57.55.846,arm3_q,2022.2.5,Win32,60.10337781,5fc26815a9eca13fd5362ba3,64aeaab685a29f4ca249be02,64bec997f1188297851b60ba,right,1,0.95,0.35,13,-0.00369274,0.184,,,,,,182,0,182,0,1,,,,,
,,256403,001,2023-07-24_19h57.55.846,arm3_q,2022.2.5,Win32,60.10337781,5fc26815a9eca13fd5362ba3,64aeaab685a29f4ca249be02,64bec997f1188297851b60ba,right,1,0.95,0.35,13,-0.002426369,0.1841,,,,,,183,0,183,0,1,,,,,
,,256403,001,2023-07-24_19h57.55.846,arm3_q,2022.2.5,Win32,60.10337781,5fc26815a9eca13fd5362ba3,64aeaab685a29f4ca249be02,64bec997f1188297851b60ba,right,1,0.95,0.35,13,-0.000662946,0.1507,,,,,,184,0,184,0,1,,,,,
,,256403,001,2023-07-24_19h57.55.846,arm3_q,2022.2.5,Win32,60.10337781,5fc26815a9eca13fd5362ba3,64aeaab685a29f4ca249be02,64bec997f1188297851b60ba,right,1,0.95,0.35,13,-0.016426,0.1838,,,,,,185,0,185,0,1,,,,,
,,256403,001,2023-07-24_19h57.55.846,arm3_q,2022.2.5,Win32,60.10337781,5fc26815a9eca13fd5362ba3,64aeaab685a29f4ca249be02,64bec997f1188297851b60ba,right,1,0.95,0.35,13,0.018952078,0.1674,,,,,,186,0,186,0,1,,,,,
,,256403,001,2023-07-24_19h57.55.846,arm3_q,2022.2.5,Win32,60.10337781,5fc26815a9eca13fd5362ba3,64aeaab685a29f4ca249be02,64bec997f1188297851b60ba,right,1,0.95,0.35,13,0.029948419,0.195,,,,,,187,0,187,0,1,,,,,
,,256403,001,2023-07-24_19h57.55.846,arm3_q,2022.2.5,Win32,60.10337781,5fc26815a9eca13fd5362ba3,64aeaab685a29f4ca249be02,64bec997f1188297851b60ba,right,1,0.95,0.35,13,0.03031007,0.3673,,,,,,188,0,188,0,1,,,,,
,,256403,001,2023-07-24_19h57.55.846,arm3_q,2022.2.5,Win32,60.10337781,5fc26815a9eca13fd5362ba3,64aeaab685a29f4ca249be02,64bec997f1188297851b60ba,right,1,0.95,0.35,13,0.054599426,0.2343,,,,,,189,0,189,0,1,,,,,
,,256403,001,2023-07-24_19h57.55.846,arm3_q,2022.2.5,Win32,60.10337781,5fc26815a9eca13fd5362ba3,64aeaab685a29f4ca249be02,64bec997f1188297851b60ba,up,1,0.95,0.35,14,0,0.8003,,,,,,190,0,190,0,1,,,,,
,,256403,001,2023-07-24_19h57.55.846,arm3_q,2022.2.5,Win32,60.10337781,5fc26815a9eca13fd5362ba3,64aeaab685a29f4ca249be02,64bec997f1188297851b60ba,right,1,0.95,0.35,14,0.006558149,0.6503,,,,,,191,0,191,0,1,,,,,
,,256403,001,2023-07-24_19h57.55.846,arm3_q,2022.2.5,Win32,60.10337781,5fc26815a9eca13fd5362ba3,64aeaab685a29f4ca249be02,64bec997f1188297851b60ba,right,1,0.95,0.35,14,0.008738411,0.1677,,,,,,192,0,192,0,1,,,,,
,,256403,001,2023-07-24_19h57.55.846,arm3_q,2022.2.5,Win32,60.10337781,5fc26815a9eca13fd5362ba3,64aeaab685a29f4ca249be02,64bec997f1188297851b60ba,right,1,0.95,0.35,14,0.051961072,0.168,,,,,,193,0,193,0,1,,,,,
,,256403,001,2023-07-24_19h57.55.846,arm3_q,2022.2.5,Win32,60.10337781,5fc26815a9eca13fd5362ba3,64aeaab685a29f4ca249be02,64bec997f1188297851b60ba,right,1,0.95,0.35,14,0.051324779,0.2176,,,,,,194,0,194,0,1,,,,,
,,256403,001,2023-07-24_19h57.55.846,arm3_q,2022.2.5,Win32,60.10337781,5fc26815a9eca13fd5362ba3,64aeaab685a29f4ca249be02,64bec997f1188297851b60ba,right,1,0.95,0.35,14,0.077989983,0.1674,,,,,,195,0,195,0,1,,,,,
,,256403,001,2023-07-24_19h57.55.846,arm3_q,2022.2.5,Win32,60.10337781,5fc26815a9eca13fd5362ba3,64aeaab685a29f4ca249be02,64bec997f1188297851b60ba,right,1,0.95,0.35,14,0.111682294,0.184,,,,,,196,0,196,0,1,,,,,
,,256403,001,2023-07-24_19h57.55.846,arm3_q,2022.2.5,Win32,60.10337781,5fc26815a9eca13fd5362ba3,64aeaab685a29f4ca249be02,64bec997f1188297851b60ba,right,1,0.95,0.35,14,0.131008203,0.2005,,,,,,197,0,197,0,1,,,,,
,,256403,001,2023-07-24_19h57.55.846,arm3_q,2022.2.5,Win32,60.10337781,5fc26815a9eca13fd5362ba3,64aeaab685a29f4ca249be02,64bec997f1188297851b60ba,up,1,0.95,0.35,15,0,0.6341,,,,,,198,0,198,0,1,,,,,
,,256403,001,2023-07-24_19h57.55.846,arm3_q,2022.2.5,Win32,60.10337781,5fc26815a9eca13fd5362ba3,64aeaab685a29f4ca249be02,64bec997f1188297851b60ba,right,1,0.95,0.35,15,0.004168509,1.1999,,,,,,199,0,199,0,1,,,,,
,,256403,001,2023-07-24_19h57.55.846,arm3_q,2022.2.5,Win32,60.10337781,5fc26815a9eca13fd5362ba3,64aeaab685a29f4ca249be02,64bec997f1188297851b60ba,right,1,0.95,0.35,15,0.022580206,0.2019,,,,,,200,0,200,0,1,,,,,
,,256403,001,2023-07-24_19h57.55.846,arm3_q,2022.2.5,Win32,60.10337781,5fc26815a9eca13fd5362ba3,64aeaab685a29f4ca249be02,64bec997f1188297851b60ba,right,1,0.95,0.35,15,0.020487797,0.1852,,,,,,201,0,201,0,1,,,,,
,,256403,001,2023-07-24_19h57.55.846,arm3_q,2022.2.5,Win32,60.10337781,5fc26815a9eca13fd5362ba3,64aeaab685a29f4ca249be02,64bec997f1188297851b60ba,right,1,0.95,0.35,15,0.063223967,0.2175,,,,,,202,0,202,0,1,,,,,
,,256403,001,2023-07-24_19h57.55.846,arm3_q,2022.2.5,Win32,60.10337781,5fc26815a9eca13fd5362ba3,64aeaab685a29f4ca249be02,64bec997f1188297851b60ba,right,1,0.95,0.35,15,0.06658216,0.2174,,,,,,203,0,203,0,1,,,,,
,,256403,001,2023-07-24_19h57.55.846,arm3_q,2022.2.5,Win32,60.10337781,5fc26815a9eca13fd5362ba3,64aeaab685a29f4ca249be02,64bec997f1188297851b60ba,up,-1,0.95,0.35,16,0,0.6007,,,,,,204,0,204,0,1,,,,,
,,256403,001,2023-07-24_19h57.55.846,arm3_q,2022.2.5,Win32,60.10337781,5fc26815a9eca13fd5362ba3,64aeaab685a29f4ca249be02,64bec997f1188297851b60ba,right,-1,0.95,0.35,16,0.024756681,1.7661,,,,,,205,0,205,0,1,,,,,
,,256403,001,2023-07-24_19h57.55.846,arm3_q,2022.2.5,Win32,60.10337781,5fc26815a9eca13fd5362ba3,64aeaab685a29f4ca249be02,64bec997f1188297851b60ba,right,-1,0.95,0.35,16,0.010254955,0.2175,,,,,,206,0,206,0,1,,,,,
,,256403,001,2023-07-24_19h57.55.846,arm3_q,2022.2.5,Win32,60.10337781,5fc26815a9eca13fd5362ba3,64aeaab685a29f4ca249be02,64bec997f1188297851b60ba,right,-1,0.95,0.35,16,-0.014435661,0.1842,,,,,,207,0,207,0,1,,,,,
,,256403,001,2023-07-24_19h57.55.846,arm3_q,2022.2.5,Win32,60.10337781,5fc26815a9eca13fd5362ba3,64aeaab685a29f4ca249be02,64bec997f1188297851b60ba,right,-1,0.95,0.35,16,0.003572909,0.1841,,,,,,208,0,208,0,1,,,,,
,,256403,001,2023-07-24_19h57.55.846,arm3_q,2022.2.5,Win32,60.10337781,5fc26815a9eca13fd5362ba3,64aeaab685a29f4ca249be02,64bec997f1188297851b60ba,right,-1,0.95,0.35,16,0.001175093,0.184,,,,,,209,0,209,0,1,,,,,
,,256403,001,2023-07-24_19h57.55.846,arm3_q,2022.2.5,Win32,60.10337781,5fc26815a9eca13fd5362ba3,64aeaab685a29f4ca249be02,64bec997f1188297851b60ba,right,-1,0.95,0.35,16,-0.008802547,0.1841,,,,,,210,0,210,0,1,,,,,
,,256403,001,2023-07-24_19h57.55.846,arm3_q,2022.2.5,Win32,60.10337781,5fc26815a9eca13fd5362ba3,64aeaab685a29f4ca249be02,64bec997f1188297851b60ba,right,-1,0.95,0.35,16,-0.02860488,0.202,,,,,,211,0,211,0,1,,,,,
,,256403,001,2023-07-24_19h57.55.846,arm3_q,2022.2.5,Win32,60.10337781,5fc26815a9eca13fd5362ba3,64aeaab685a29f4ca249be02,64bec997f1188297851b60ba,right,-1,0.95,0.35,16,-0.041802236,0.234,,,,,,212,0,212,0,1,,,,,
,,256403,001,2023-07-24_19h57.55.846,arm3_q,2022.2.5,Win32,60.10337781,5fc26815a9eca13fd5362ba3,64aeaab685a29f4ca249be02,64bec997f1188297851b60ba,right,-1,0.95,0.35,16,-0.047210638,0.2842,,,,,,213,0,213,0,1,,,,,
,,256403,001,2023-07-24_19h57.55.846,arm3_q,2022.2.5,Win32,60.10337781,5fc26815a9eca13fd5362ba3,64aeaab685a29f4ca249be02,64bec997f1188297851b60ba,right,-1,0.95,0.35,16,-0.046370528,0.4018,,,,,,214,0,214,0,1,,,,,
,,256403,001,2023-07-24_19h57.55.846,arm3_q,2022.2.5,Win32,60.10337781,5fc26815a9eca13fd5362ba3,64aeaab685a29f4ca249be02,64bec997f1188297851b60ba,right,-1,0.95,0.35,16,-0.045962532,0.3673,,,,,,215,0,215,0,1,,,,,
,,256403,001,2023-07-24_19h57.55.846,arm3_q,2022.2.5,Win32,60.10337781,5fc26815a9eca13fd5362ba3,64aeaab685a29f4ca249be02,64bec997f1188297851b60ba,down,-1,0.95,0.35,17,0,0.3839,,,,,,216,0,216,0,1,,,,,
,,256403,001,2023-07-24_19h57.55.846,arm3_q,2022.2.5,Win32,60.10337781,5fc26815a9eca13fd5362ba3,64aeaab685a29f4ca249be02,64bec997f1188297851b60ba,right,-1,0.95,0.35,17,0.014332024,0.7667,,,,,,217,0,217,0,1,,,,,
,,256403,001,2023-07-24_19h57.55.846,arm3_q,2022.2.5,Win32,60.10337781,5fc26815a9eca13fd5362ba3,64aeaab685a29f4ca249be02,64bec997f1188297851b60ba,right,-1,0.95,0.35,17,0.014277164,0.2175,,,,,,218,0,218,0,1,,,,,
,,256403,001,2023-07-24_19h57.55.846,arm3_q,2022.2.5,Win32,60.10337781,5fc26815a9eca13fd5362ba3,64aeaab685a29f4ca249be02,64bec997f1188297851b60ba,right,-1,0.95,0.35,17,-0.027959855,0.1509,,,,,,219,0,219,0,1,,,,,
,,256403,001,2023-07-24_19h57.55.846,arm3_q,2022.2.5,Win32,60.10337781,5fc26815a9eca13fd5362ba3,64aeaab685a29f4ca249be02,64bec997f1188297851b60ba,right,-1,0.95,0.35,17,-0.046505543,0.1678,,,,,,220,0,220,0,1,,,,,
,,256403,001,2023-07-24_19h57.55.846,arm3_q,2022.2.5,Win32,60.10337781,5fc26815a9eca13fd5362ba3,64aeaab685a29f4ca249be02,64bec997f1188297851b60ba,right,-1,0.95,0.35,17,-0.050628296,0.1693,,,,,,221,0,221,0,1,,,,,
,,256403,001,2023-07-24_19h57.55.846,arm3_q,2022.2.5,Win32,60.10337781,5fc26815a9eca13fd5362ba3,64aeaab685a29f4ca249be02,64bec997f1188297851b60ba,right,-1,0.95,0.35,17,-0.026545232,0.1676,,,,,,222,0,222,0,1,,,,,
,,256403,001,2023-07-24_19h57.55.846,arm3_q,2022.2.5,Win32,60.10337781,5fc26815a9eca13fd5362ba3,64aeaab685a29f4ca249be02,64bec997f1188297851b60ba,right,-1,0.95,0.35,17,-0.029354663,0.2339,,,,,,223,0,223,0,1,,,,,
,,256403,001,2023-07-24_19h57.55.846,arm3_q,2022.2.5,Win32,60.10337781,5fc26815a9eca13fd5362ba3,64aeaab685a29f4ca249be02,64bec997f1188297851b60ba,right,-1,0.95,0.35,17,-0.066389112,0.1674,,,,,,224,0,224,0,1,,,,,
,,256403,001,2023-07-24_19h57.55.846,arm3_q,2022.2.5,Win32,60.10337781,5fc26815a9eca13fd5362ba3,64aeaab685a29f4ca249be02,64bec997f1188297851b60ba,down,1,0.95,0.35,18,0,0.4513,,,,,,225,0,225,0,1,,,,,
,,256403,001,2023-07-24_19h57.55.846,arm3_q,2022.2.5,Win32,60.10337781,5fc26815a9eca13fd5362ba3,64aeaab685a29f4ca249be02,64bec997f1188297851b60ba,right,1,0.95,0.35,18,0.000582542,0.8671,,,,,,226,0,226,0,1,,,,,
,,256403,001,2023-07-24_19h57.55.846,arm3_q,2022.2.5,Win32,60.10337781,5fc26815a9eca13fd5362ba3,64aeaab685a29f4ca249be02,64bec997f1188297851b60ba,right,1,0.95,0.35,18,-0.001846956,0.1842,,,,,,227,0,227,0,1,,,,,
,,256403,001,2023-07-24_19h57.55.846,arm3_q,2022.2.5,Win32,60.10337781,5fc26815a9eca13fd5362ba3,64aeaab685a29f4ca249be02,64bec997f1188297851b60ba,right,1,0.95,0.35,18,0.033628276,0.1839,,,,,,228,0,228,0,1,,,,,
,,256403,001,2023-07-24_19h57.55.846,arm3_q,2022.2.5,Win32,60.10337781,5fc26815a9eca13fd5362ba3,64aeaab685a29f4ca249be02,64bec997f1188297851b60ba,right,1,0.95,0.35,18,0.050073058,0.2009,,,,,,229,0,229,0,1,,,,,
,,256403,001,2023-07-24_19h57.55.846,arm3_q,2022.2.5,Win32,60.10337781,5fc26815a9eca13fd5362ba3,64aeaab685a29f4ca249be02,64bec997f1188297851b60ba,right,1,0.95,0.35,18,0.038781296,0.1841,,,,,,230,0,230,0,1,,,,,
,,256403,001,2023-07-24_19h57.55.846,arm3_q,2022.2.5,Win32,60.10337781,5fc26815a9eca13fd5362ba3,64aeaab685a29f4ca249be02,64bec997f1188297851b60ba,right,1,0.95,0.35,18,0.010554379,0.3509,,,,,,231,0,231,0,1,,,,,
,,256403,001,2023-07-24_19h57.55.846,arm3_q,2022.2.5,Win32,60.10337781,5fc26815a9eca13fd5362ba3,64aeaab685a29f4ca249be02,64bec997f1188297851b60ba,right,1,0.95,0.35,18,0.00528168,0.2009,,,,,,232,0,232,0,1,,,,,
,,256403,001,2023-07-24_19h57.55.846,arm3_q,2022.2.5,Win32,60.10337781,5fc26815a9eca13fd5362ba3,64aeaab685a29f4ca249be02,64bec997f1188297851b60ba,right,1,0.95,0.35,18,0.039670986,0.1678,,,,,,233,0,233,0,1,,,,,
,,256403,001,2023-07-24_19h57.55.846,arm3_q,2022.2.5,Win32,60.10337781,5fc26815a9eca13fd5362ba3,64aeaab685a29f4ca249be02,64bec997f1188297851b60ba,right,1,0.95,0.35,18,0.03570679,0.3336,,,,,,234,0,234,0,1,,,,,
,,256403,001,2023-07-24_19h57.55.846,arm3_q,2022.2.5,Win32,60.10337781,5fc26815a9eca13fd5362ba3,64aeaab685a29f4ca249be02,64bec997f1188297851b60ba,up,1,0.95,0.35,19,0,0.8326,,,,,,235,0,235,0,1,,,,,
,,256403,001,2023-07-24_19h57.55.846,arm3_q,2022.2.5,Win32,60.10337781,5fc26815a9eca13fd5362ba3,64aeaab685a29f4ca249be02,64bec997f1188297851b60ba,right,1,0.95,0.35,19,-0.010677079,0.85,,,,,,236,0,236,0,1,,,,,
,,256403,001,2023-07-24_19h57.55.846,arm3_q,2022.2.5,Win32,60.10337781,5fc26815a9eca13fd5362ba3,64aeaab685a29f4ca249be02,64bec997f1188297851b60ba,right,1,0.95,0.35,19,-0.014442434,0.1508,,,,,,237,0,237,0,1,,,,,
,,256403,001,2023-07-24_19h57.55.846,arm3_q,2022.2.5,Win32,60.10337781,5fc26815a9eca13fd5362ba3,64aeaab685a29f4ca249be02,64bec997f1188297851b60ba,right,1,0.95,0.35,19,-0.005903649,0.2341,,,,,,238,0,238,0,1,,,,,
,,256403,001,2023-07-24_19h57.55.846,arm3_q,2022.2.5,Win32,60.10337781,5fc26815a9eca13fd5362ba3,64aeaab685a29f4ca249be02,64bec997f1188297851b60ba,right,1,0.95,0.35,19,0.012212247,0.1508,,,,,,239,0,239,0,1,,,,,
,,256403,001,2023-07-24_19h57.55.846,arm3_q,2022.2.5,Win32,60.10337781,5fc26815a9eca13fd5362ba3,64aeaab685a29f4ca249be02,64bec997f1188297851b60ba,right,1,0.95,0.35,19,0.046004164,0.1843,,,,,,240,0,240,0,1,,,,,
,,256403,001,2023-07-24_19h57.55.846,arm3_q,2022.2.5,Win32,60.10337781,5fc26815a9eca13fd5362ba3,64aeaab685a29f4ca249be02,64bec997f1188297851b60ba,right,1,0.95,0.35,19,0.075785327,0.2676,,,,,,241,0,241,0,1,,,,,
,,256403,001,2023-07-24_19h57.55.846,arm3_q,2022.2.5,Win32,60.10337781,5fc26815a9eca13fd5362ba3,64aeaab685a29f4ca249be02,64bec997f1188297851b60ba,up,-1,0.95,0.35,20,0,0.6675,,,,,,242,0,242,0,1,,,,,
,,256403,001,2023-07-24_19h57.55.846,arm3_q,2022.2.5,Win32,60.10337781,5fc26815a9eca13fd5362ba3,64aeaab685a29f4ca249be02,64bec997f1188297851b60ba,right,-1,0.95,0.35,20,0.014061128,0.633,,,,,,243,0,243,0,1,,,,,
,,256403,001,2023-07-24_19h57.55.846,arm3_q,2022.2.5,Win32,60.10337781,5fc26815a9eca13fd5362ba3,64aeaab685a29f4ca249be02,64bec997f1188297851b60ba,right,-1,0.95,0.35,20,-0.023080056,0.1843,,,,,,244,0,244,0,1,,,,,
,,256403,001,2023-07-24_19h57.55.846,arm3_q,2022.2.5,Win32,60.10337781,5fc26815a9eca13fd5362ba3,64aeaab685a29f4ca249be02,64bec997f1188297851b60ba,right,-1,0.95,0.35,20,-0.023700758,0.1844,,,,,,245,0,245,0,1,,,,,
,,256403,001,2023-07-24_19h57.55.846,arm3_q,2022.2.5,Win32,60.10337781,5fc26815a9eca13fd5362ba3,64aeaab685a29f4ca249be02,64bec997f1188297851b60ba,right,-1,0.95,0.35,20,-0.01940245,0.1677,,,,,,246,0,246,0,1,,,,,
,,256403,001,2023-07-24_19h57.55.846,arm3_q,2022.2.5,Win32,60.10337781,5fc26815a9eca13fd5362ba3,64aeaab685a29f4ca249be02,64bec997f1188297851b60ba,right,-1,0.95,0.35,20,-0.026015813,0.1673,,,,,,247,0,247,0,1,,,,,
,,256403,001,2023-07-24_19h57.55.846,arm3_q,2022.2.5,Win32,60.10337781,5fc26815a9eca13fd5362ba3,64aeaab685a29f4ca249be02,64bec997f1188297851b60ba,right,-1,0.95,0.35,20,-0.015006992,0.1673,,,,,,248,0,248,0,1,,,,,
,,256403,001,2023-07-24_19h57.55.846,arm3_q,2022.2.5,Win32,60.10337781,5fc26815a9eca13fd5362ba3,64aeaab685a29f4ca249be02,64bec997f1188297851b60ba,right,-1,0.95,0.35,20,-0.018397324,0.1841,,,,,,249,0,249,0,1,,,,,
,,256403,001,2023-07-24_19h57.55.846,arm3_q,2022.2.5,Win32,60.10337781,5fc26815a9eca13fd5362ba3,64aeaab685a29f4ca249be02,64bec997f1188297851b60ba,right,-1,0.95,0.35,20,-0.037986817,0.2178,,,,,,250,0,250,0,1,,,,,
,,256403,001,2023-07-24_19h57.55.846,arm3_q,2022.2.5,Win32,60.10337781,5fc26815a9eca13fd5362ba3,64aeaab685a29f4ca249be02,64bec997f1188297851b60ba,right,-1,0.95,0.35,20,-0.047288632,0.3507,,,,,,251,0,251,0,1,,,,,
,,256403,001,2023-07-24_19h57.55.846,arm3_q,2022.2.5,Win32,60.10337781,5fc26815a9eca13fd5362ba3,64aeaab685a29f4ca249be02,64bec997f1188297851b60ba,down,1,0.95,0.35,21,0,0.6167,,,,,,252,0,252,0,1,,,,,
,,256403,001,2023-07-24_19h57.55.846,arm3_q,2022.2.5,Win32,60.10337781,5fc26815a9eca13fd5362ba3,64aeaab685a29f4ca249be02,64bec997f1188297851b60ba,right,1,0.95,0.35,21,-0.007720214,0.9173,,,,,,253,0,253,0,1,,,,,
,,256403,001,2023-07-24_19h57.55.846,arm3_q,2022.2.5,Win32,60.10337781,5fc26815a9eca13fd5362ba3,64aeaab685a29f4ca249be02,64bec997f1188297851b60ba,right,1,0.95,0.35,21,0.001061301,0.1841,,,,,,254,0,254,0,1,,,,,
,,256403,001,2023-07-24_19h57.55.846,arm3_q,2022.2.5,Win32,60.10337781,5fc26815a9eca13fd5362ba3,64aeaab685a29f4ca249be02,64bec997f1188297851b60ba,right,1,0.95,0.35,21,0.032530167,0.2006,,,,,,255,0,255,0,1,,,,,
,,256403,001,2023-07-24_19h57.55.846,arm3_q,2022.2.5,Win32,60.10337781,5fc26815a9eca13fd5362ba3,64aeaab685a29f4ca249be02,64bec997f1188297851b60ba,right,1,0.95,0.35,21,0.044353677,0.2339,,,,,,256,0,256,0,1,,,,,
,,256403,001,2023-07-24_19h57.55.846,arm3_q,2022.2.5,Win32,60.10337781,5fc26815a9eca13fd5362ba3,64aeaab685a29f4ca249be02,64bec997f1188297851b60ba,right,1,0.95,0.35,21,0.048469192,0.1841,,,,,,257,0,257,0,1,,,,,
,,256403,001,2023-07-24_19h57.55.846,arm3_q,2022.2.5,Win32,60.10337781,5fc26815a9eca13fd5362ba3,64aeaab685a29f4ca249be02,64bec997f1188297851b60ba,right,1,0.95,0.35,21,0.055687478,0.1681,,,,,,258,0,258,0,1,,,,,
,,256403,001,2023-07-24_19h57.55.846,arm3_q,2022.2.5,Win32,60.10337781,5fc26815a9eca13fd5362ba3,64aeaab685a29f4ca249be02,64bec997f1188297851b60ba,right,1,0.95,0.35,21,0.068686675,0.1667,,,,,,259,0,259,0,1,,,,,
,,256403,001,2023-07-24_19h57.55.846,arm3_q,2022.2.5,Win32,60.10337781,5fc26815a9eca13fd5362ba3,64aeaab685a29f4ca249be02,64bec997f1188297851b60ba,right,1,0.95,0.35,21,0.076375856,0.2011,,,,,,260,0,260,0,1,,,,,
,,256403,001,2023-07-24_19h57.55.846,arm3_q,2022.2.5,Win32,60.10337781,5fc26815a9eca13fd5362ba3,64aeaab685a29f4ca249be02,64bec997f1188297851b60ba,up,1,0.95,0.35,22,0,0.7006,,,,,,261,0,261,0,1,,,,,
,,256403,001,2023-07-24_19h57.55.846,arm3_q,2022.2.5,Win32,60.10337781,5fc26815a9eca13fd5362ba3,64aeaab685a29f4ca249be02,64bec997f1188297851b60ba,right,1,0.95,0.35,22,-0.034780452,0.8347,,,,,,262,0,262,0,1,,,,,
,,256403,001,2023-07-24_19h57.55.846,arm3_q,2022.2.5,Win32,60.10337781,5fc26815a9eca13fd5362ba3,64aeaab685a29f4ca249be02,64bec997f1188297851b60ba,right,1,0.95,0.35,22,-0.021750484,0.2509,,,,,,263,0,263,0,1,,,,,
,,256403,001,2023-07-24_19h57.55.846,arm3_q,2022.2.5,Win32,60.10337781,5fc26815a9eca13fd5362ba3,64aeaab685a29f4ca249be02,64bec997f1188297851b60ba,right,1,0.95,0.35,22,-0.010797348,0.1344,,,,,,264,0,264,0,1,,,,,
,,256403,001,2023-07-24_19h57.55.846,arm3_q,2022.2.5,Win32,60.10337781,5fc26815a9eca13fd5362ba3,64aeaab685a29f4ca249be02,64bec997f1188297851b60ba,right,1,0.95,0.35,22,-0.01769176,0.2007,,,,,,265,0,265,0,1,,,,,
,,256403,001,2023-07-24_19h57.55.846,arm3_q,2022.2.5,Win32,60.10337781,5fc26815a9eca13fd5362ba3,64aeaab685a29f4ca249be02,64bec997f1188297851b60ba,right,1,0.95,0.35,22,0.006047746,0.2006,,,,,,266,0,266,0,1,,,,,
,,256403,001,2023-07-24_19h57.55.846,arm3_q,2022.2.5,Win32,60.10337781,5fc26815a9eca13fd5362ba3,64aeaab685a29f4ca249be02,64bec997f1188297851b60ba,right,1,0.95,0.35,22,0.01459906,0.1841,,,,,,267,0,267,0,1,,,,,
,,256403,001,2023-07-24_19h57.55.846,arm3_q,2022.2.5,Win32,60.10337781,5fc26815a9eca13fd5362ba3,64aeaab685a29f4ca249be02,64bec997f1188297851b60ba,right,1,0.95,0.35,22,0.000622146,0.2339,,,,,,268,0,268,0,1,,,,,
,,256403,001,2023-07-24_19h57.55.846,arm3_q,2022.2.5,Win32,60.10337781,5fc26815a9eca13fd5362ba3,64aeaab685a29f4ca249be02,64bec997f1188297851b60ba,right,1,0.95,0.35,22,0.001710262,0.2506,,,,,,269,0,269,0,1,,,,,
,,256403,001,2023-07-24_19h57.55.846,arm3_q,2022.2.5,Win32,60.10337781,5fc26815a9eca13fd5362ba3,64aeaab685a29f4ca249be02,64bec997f1188297851b60ba,right,1,0.95,0.35,22,0.017557069,0.2838,,,,,,270,0,270,0,1,,,,,
,,256403,001,2023-07-24_19h57.55.846,arm3_q,2022.2.5,Win32,60.10337781,5fc26815a9eca13fd5362ba3,64aeaab685a29f4ca249be02,64bec997f1188297851b60ba,right,1,0.95,0.35,22,0.032001423,0.3672,,,,,,271,0,271,0,1,,,,,
,,256403,001,2023-07-24_19h57.55.846,arm3_q,2022.2.5,Win32,60.10337781,5fc26815a9eca13fd5362ba3,64aeaab685a29f4ca249be02,64bec997f1188297851b60ba,up,1,0.95,0.35,23,0,0.567,,,,,,272,0,272,0,1,,,,,
,,256403,001,2023-07-24_19h57.55.846,arm3_q,2022.2.5,Win32,60.10337781,5fc26815a9eca13fd5362ba3,64aeaab685a29f4ca249be02,64bec997f1188297851b60ba,right,1,0.95,0.35,23,0.072770724,0.7673,,,,,,273,0,273,0,1,,,,,
,,256403,001,2023-07-24_19h57.55.846,arm3_q,2022.2.5,Win32,60.10337781,5fc26815a9eca13fd5362ba3,64aeaab685a29f4ca249be02,64bec997f1188297851b60ba,right,1,0.95,0.35,23,0.089150282,0.4182,,,,,,274,0,274,0,1,,,,,
,,256403,001,2023-07-24_19h57.55.846,arm3_q,2022.2.5,Win32,60.10337781,5fc26815a9eca13fd5362ba3,64aeaab685a29f4ca249be02,64bec997f1188297851b60ba,right,1,0.95,0.35,23,0.087825493,0.2338,,,,,,275,0,275,0,1,,,,,
,,256403,001,2023-07-24_19h57.55.846,arm3_q,2022.2.5,Win32,60.10337781,5fc26815a9eca13fd5362ba3,64aeaab685a29f4ca249be02,64bec997f1188297851b60ba,right,1,0.95,0.35,23,0.104590281,0.167,,,,,,276,0,276,0,1,,,,,
,,256403,001,2023-07-24_19h57.55.846,arm3_q,2022.2.5,Win32,60.10337781,5fc26815a9eca13fd5362ba3,64aeaab685a29f4ca249be02,64bec997f1188297851b60ba,right,1,0.95,0.35,23,0.143707599,0.184,,,,,,277,0,277,0,1,,,,,
,,256403,001,2023-07-24_19h57.55.846,arm3_q,2022.2.5,Win32,60.10337781,5fc26815a9eca13fd5362ba3,64aeaab685a29f4ca249be02,64bec997f1188297851b60ba,up,1,0.95,0.35,24,0,0.4838,,,,,,278,0,278,0,1,,,,,
,,256403,001,2023-07-24_19h57.55.846,arm3_q,2022.2.5,Win32,60.10337781,5fc26815a9eca13fd5362ba3,64aeaab685a29f4ca249be02,64bec997f1188297851b60ba,right,1,0.95,0.35,24,0.013472967,0.8165,,,,,,279,0,279,0,1,,,,,
,,256403,001,2023-07-24_19h57.55.846,arm3_q,2022.2.5,Win32,60.10337781,5fc26815a9eca13fd5362ba3,64aeaab685a29f4ca249be02,64bec997f1188297851b60ba,right,1,0.95,0.35,24,0.022242695,0.1672,,,,,,280,0,280,0,1,,,,,
,,256403,001,2023-07-24_19h57.55.846,arm3_q,2022.2.5,Win32,60.10337781,5fc26815a9eca13fd5362ba3,64aeaab685a29f4ca249be02,64bec997f1188297851b60ba,right,1,0.95,0.35,24,0.014257521,0.2006,,,,,,281,0,281,0,1,,,,,
,,256403,001,2023-07-24_19h57.55.846,arm3_q,2022.2.5,Win32,60.10337781,5fc26815a9eca13fd5362ba3,64aeaab685a29f4ca249be02,64bec997f1188297851b60ba,right,1,0.95,0.35,24,0.006087056,0.1835,,,,,,282,0,282,0,1,,,,,
,,256403,001,2023-07-24_19h57.55.846,arm3_q,2022.2.5,Win32,60.10337781,5fc26815a9eca13fd5362ba3,64aeaab685a29f4ca249be02,64bec997f1188297851b60ba,right,1,0.95,0.35,24,0.045481157,0.201,,,,,,283,0,283,0,1,,,,,
,,256403,001,2023-07-24_19h57.55.846,arm3_q,2022.2.5,Win32,60.10337781,5fc26815a9eca13fd5362ba3,64aeaab685a29f4ca249be02,64bec997f1188297851b60ba,right,1,0.95,0.35,24,0.057959567,0.2094,,,,,,284,0,284,0,1,,,,,
,,256403,001,2023-07-24_19h57.55.846,arm3_q,2022.2.5,Win32,60.10337781,5fc26815a9eca13fd5362ba3,64aeaab685a29f4ca249be02,64bec997f1188297851b60ba,up,-1,0.95,0.35,25,0,0.6679,,,,,,285,0,285,0,1,,,,,
,,256403,001,2023-07-24_19h57.55.846,arm3_q,2022.2.5,Win32,60.10337781,5fc26815a9eca13fd5362ba3,64aeaab685a29f4ca249be02,64bec997f1188297851b60ba,right,-1,0.95,0.35,25,-0.028354744,0.8003,,,,,,286,0,286,0,1,,,,,
,,256403,001,2023-07-24_19h57.55.846,arm3_q,2022.2.5,Win32,60.10337781,5fc26815a9eca13fd5362ba3,64aeaab685a29f4ca249be02,64bec997f1188297851b60ba,right,-1,0.95,0.35,25,-0.010874289,0.2175,,,,,,287,0,287,0,1,,,,,
,,256403,001,2023-07-24_19h57.55.846,arm3_q,2022.2.5,Win32,60.10337781,5fc26815a9eca13fd5362ba3,64aeaab685a29f4ca249be02,64bec997f1188297851b60ba,right,-1,0.95,0.35,25,0.003561996,0.1673,,,,,,288,0,288,0,1,,,,,
,,256403,001,2023-07-24_19h57.55.846,arm3_q,2022.2.5,Win32,60.10337781,5fc26815a9eca13fd5362ba3,64aeaab685a29f4ca249be02,64bec997f1188297851b60ba,right,-1,0.95,0.35,25,-0.005465039,0.1677,,,,,,289,0,289,0,1,,,,,
,,256403,001,2023-07-24_19h57.55.846,arm3_q,2022.2.5,Win32,60.10337781,5fc26815a9eca13fd5362ba3,64aeaab685a29f4ca249be02,64bec997f1188297851b60ba,right,-1,0.95,0.35,25,0.007228704,0.2339,,,,,,290,0,290,0,1,,,,,
,,256403,001,2023-07-24_19h57.55.846,arm3_q,2022.2.5,Win32,60.10337781,5fc26815a9eca13fd5362ba3,64aeaab685a29f4ca249be02,64bec997f1188297851b60ba,right,-1,0.95,0.35,25,0.032666278,0.2022,,,,,,291,0,291,0,1,,,,,
,,256403,001,2023-07-24_19h57.55.846,arm3_q,2022.2.5,Win32,60.10337781,5fc26815a9eca13fd5362ba3,64aeaab685a29f4ca249be02,64bec997f1188297851b60ba,right,-1,0.95,0.35,25,0.030687346,0.6501,,,,,,292,0,292,0,1,,,,,
,,256403,001,2023-07-24_19h57.55.846,arm3_q,2022.2.5,Win32,60.10337781,5fc26815a9eca13fd5362ba3,64aeaab685a29f4ca249be02,64bec997f1188297851b60ba,up,-1,0.95,0.35,24,0,0.6337,,,,,,293,0,293,0,1,,,,,
,,256403,001,2023-07-24_19h57.55.846,arm3_q,2022.2.5,Win32,60.10337781,5fc26815a9eca13fd5362ba3,64aeaab685a29f4ca249be02,64bec997f1188297851b60ba,right,-1,0.95,0.35,24,0.000792354,2.0997,,,,,,294,0,294,0,1,,,,,
,,256403,001,2023-07-24_19h57.55.846,arm3_q,2022.2.5,Win32,60.10337781,5fc26815a9eca13fd5362ba3,64aeaab685a29f4ca249be02,64bec997f1188297851b60ba,right,-1,0.95,0.35,24,0.037805117,0.3006,,,,,,295,0,295,0,1,,,,,
,,256403,001,2023-07-24_19h57.55.846,arm3_q,2022.2.5,Win32,60.10337781,5fc26815a9eca13fd5362ba3,64aeaab685a29f4ca249be02,64bec997f1188297851b60ba,right,-1,0.95,0.35,24,0.028216214,0.301,,,,,,296,0,296,0,1,,,,,
,,256403,001,2023-07-24_19h57.55.846,arm3_q,2022.2.5,Win32,60.10337781,5fc26815a9eca13fd5362ba3,64aeaab685a29f4ca249be02,64bec997f1188297851b60ba,right,-1,0.95,0.35,24,0.050238615,0.1841,,,,,,297,0,297,0,1,,,,,
,,256403,001,2023-07-24_19h57.55.846,arm3_q,2022.2.5,Win32,60.10337781,5fc26815a9eca13fd5362ba3,64aeaab685a29f4ca249be02,64bec997f1188297851b60ba,right,-1,0.95,0.35,24,0.037666372,0.334,,,,,,298,0,298,0,1,,,,,
,,256403,001,2023-07-24_19h57.55.846,arm3_q,2022.2.5,Win32,60.10337781,5fc26815a9eca13fd5362ba3,64aeaab685a29f4ca249be02,64bec997f1188297851b60ba,up,-1,0.95,0.35,24,0,0.6168,,,,,,299,0,299,0,1,,,,,
,,256403,001,2023-07-24_19h57.55.846,arm3_q,2022.2.5,Win32,60.10337781,5fc26815a9eca13fd5362ba3,64aeaab685a29f4ca249be02,64bec997f1188297851b60ba,right,-1,0.95,0.35,24,-0.001269742,0.8762,,,,,,300,0,300,0,1,,,,,
,,256403,001,2023-07-24_19h57.55.846,arm3_q,2022.2.5,Win32,60.10337781,5fc26815a9eca13fd5362ba3,64aeaab685a29f4ca249be02,64bec997f1188297851b60ba,right,-1,0.95,0.35,24,-0.012418405,0.1949,,,,,,301,0,301,0,1,,,,,
,,256403,001,2023-07-24_19h57.55.846,arm3_q,2022.2.5,Win32,60.10337781,5fc26815a9eca13fd5362ba3,64aeaab685a29f4ca249be02,64bec997f1188297851b60ba,right,-1,0.95,0.35,24,-0.016086097,0.1606,,,,,,302,0,302,0,1,,,,,
,,256403,001,2023-07-24_19h57.55.846,arm3_q,2022.2.5,Win32,60.10337781,5fc26815a9eca13fd5362ba3,64aeaab685a29f4ca249be02,64bec997f1188297851b60ba,right,-1,0.95,0.35,24,-0.034810037,0.1719,,,,,,303,0,303,0,1,,,,,
,,256403,001,2023-07-24_19h57.55.846,arm3_q,2022.2.5,Win32,60.10337781,5fc26815a9eca13fd5362ba3,64aeaab685a29f4ca249be02,64bec997f1188297851b60ba,right,-1,0.95,0.35,24,-0.046666093,0.1968,,,,,,304,0,304,0,1,,,,,
,,256403,001,2023-07-24_19h57.55.846,arm3_q,2022.2.5,Win32,60.10337781,5fc26815a9eca13fd5362ba3,64aeaab685a29f4ca249be02,64bec997f1188297851b60ba,down,1,0.95,0.35,25,0,0.731,,,,,,305,0,305,0,1,,,,,
,,256403,001,2023-07-24_19h57.55.846,arm3_q,2022.2.5,Win32,60.10337781,5fc26815a9eca13fd5362ba3,64aeaab685a29f4ca249be02,64bec997f1188297851b60ba,right,1,0.95,0.35,25,-0.003763179,0.8243,,,,,,306,0,306,0,1,,,,,
,,256403,001,2023-07-24_19h57.55.846,arm3_q,2022.2.5,Win32,60.10337781,5fc26815a9eca13fd5362ba3,64aeaab685a29f4ca249be02,64bec997f1188297851b60ba,right,1,0.95,0.35,25,0.003565939,0.1661,,,,,,307,0,307,0,1,,,,,
,,256403,001,2023-07-24_19h57.55.846,arm3_q,2022.2.5,Win32,60.10337781,5fc26815a9eca13fd5362ba3,64aeaab685a29f4ca249be02,64bec997f1188297851b60ba,right,1,0.95,0.35,25,0.008484286,0.1665,,,,,,308,0,308,0,1,,,,,
,,256403,001,2023-07-24_19h57.55.846,arm3_q,2022.2.5,Win32,60.10337781,5fc26815a9eca13fd5362ba3,64aeaab685a29f4ca249be02,64bec997f1188297851b60ba,right,1,0.95,0.35,25,0.02059146,0.1635,,,,,,309,0,309,0,1,,,,,
,,256403,001,2023-07-24_19h57.55.846,arm3_q,2022.2.5,Win32,60.10337781,5fc26815a9eca13fd5362ba3,64aeaab685a29f4ca249be02,64bec997f1188297851b60ba,right,1,0.95,0.35,25,0.063137296,0.1629,,,,,,310,0,310,0,1,,,,,
,,256403,001,2023-07-24_19h57.55.846,arm3_q,2022.2.5,Win32,60.10337781,5fc26815a9eca13fd5362ba3,64aeaab685a29f4ca249be02,64bec997f1188297851b60ba,right,1,0.95,0.35,25,0.061667524,0.1641,,,,,,311,0,311,0,1,,,,,
,,256403,001,2023-07-24_19h57.55.846,arm3_q,2022.2.5,Win32,60.10337781,5fc26815a9eca13fd5362ba3,64aeaab685a29f4ca249be02,64bec997f1188297851b60ba,up,1,0.95,0.35,26,0,0.579,,,,,,312,0,312,0,1,,,,,
,,256403,001,2023-07-24_19h57.55.846,arm3_q,2022.2.5,Win32,60.10337781,5fc26815a9eca13fd5362ba3,64aeaab685a29f4ca249be02,64bec997f1188297851b60ba,right,1,0.95,0.35,26,-0.002338659,0.7532,,,,,,313,0,313,0,1,,,,,
,,256403,001,2023-07-24_19h57.55.846,arm3_q,2022.2.5,Win32,60.10337781,5fc26815a9eca13fd5362ba3,64aeaab685a29f4ca249be02,64bec997f1188297851b60ba,right,1,0.95,0.35,26,-0.000434918,0.2476,,,,,,314,0,314,0,1,,,,,
,,256403,001,2023-07-24_19h57.55.846,arm3_q,2022.2.5,Win32,60.10337781,5fc26815a9eca13fd5362ba3,64aeaab685a29f4ca249be02,64bec997f1188297851b60ba,right,1,0.95,0.35,26,0.033998997,0.5374,,,,,,315,0,315,0,1,,,,,
,,256403,001,2023-07-24_19h57.55.846,arm3_q,2022.2.5,Win32,60.10337781,5fc26815a9eca13fd5362ba3,64aeaab685a29f4ca249be02,64bec997f1188297851b60ba,right,1,0.95,0.35,26,0.053030243,1.5123,,,,,,316,0,316,0,1,,,,,
,,256403,001,2023-07-24_19h57.55.846,arm3_q,2022.2.5,Win32,60.10337781,5fc26815a9eca13fd5362ba3,64aeaab685a29f4ca249be02,64bec997f1188297851b60ba,up,-1,0.95,0.35,27,0,0.5381,,,,,,317,0,317,0,1,,,,,
,,256403,001,2023-07-24_19h57.55.846,arm3_q,2022.2.5,Win32,60.10337781,5fc26815a9eca13fd5362ba3,64aeaab685a29f4ca249be02,64bec997f1188297851b60ba,right,-1,0.95,0.35,27,-0.029496855,0.7465,,,,,,318,0,318,0,1,,,,,
,,256403,001,2023-07-24_19h57.55.846,arm3_q,2022.2.5,Win32,60.10337781,5fc26815a9eca13fd5362ba3,64aeaab685a29f4ca249be02,64bec997f1188297851b60ba,right,-1,0.95,0.35,27,-0.047511966,0.2028,,,,,,319,0,319,0,1,,,,,
,,256403,001,2023-07-24_19h57.55.846,arm3_q,2022.2.5,Win32,60.10337781,5fc26815a9eca13fd5362ba3,64aeaab685a29f4ca249be02,64bec997f1188297851b60ba,right,-1,0.95,0.35,27,-0.04005068,0.1883,,,,,,320,0,320,0,1,,,,,
,,256403,001,2023-07-24_19h57.55.846,arm3_q,2022.2.5,Win32,60.10337781,5fc26815a9eca13fd5362ba3,64aeaab685a29f4ca249be02,64bec997f1188297851b60ba,down,-1,0.95,0.35,27,0,1.0626,,,,,,321,0,321,0,1,,,,,
,,256403,001,2023-07-24_19h57.55.846,arm3_q,2022.2.5,Win32,60.10337781,5fc26815a9eca13fd5362ba3,64aeaab685a29f4ca249be02,64bec997f1188297851b60ba,right,-1,0.95,0.35,27,-0.014972083,1.0426,,,,,,322,0,322,0,1,,,,,
,,256403,001,2023-07-24_19h57.55.846,arm3_q,2022.2.5,Win32,60.10337781,5fc26815a9eca13fd5362ba3,64aeaab685a29f4ca249be02,64bec997f1188297851b60ba,right,-1,0.95,0.35,27,0.003038478,0.1872,,,,,,323,0,323,0,1,,,,,
,,256403,001,2023-07-24_19h57.55.846,arm3_q,2022.2.5,Win32,60.10337781,5fc26815a9eca13fd5362ba3,64aeaab685a29f4ca249be02,64bec997f1188297851b60ba,right,-1,0.95,0.35,27,-0.002754008,0.1978,,,,,,324,0,324,0,1,,,,,
,,256403,001,2023-07-24_19h57.55.846,arm3_q,2022.2.5,Win32,60.10337781,5fc26815a9eca13fd5362ba3,64aeaab685a29f4ca249be02,64bec997f1188297851b60ba,right,-1,0.95,0.35,27,-0.008483708,0.1482,,,,,,325,0,325,0,1,,,,,
,,256403,001,2023-07-24_19h57.55.846,arm3_q,2022.2.5,Win32,60.10337781,5fc26815a9eca13fd5362ba3,64aeaab685a29f4ca249be02,64bec997f1188297851b60ba,right,-1,0.95,0.35,27,-0.026219342,0.1991,,,,,,326,0,326,0,1,,,,,
,,256403,001,2023-07-24_19h57.55.846,arm3_q,2022.2.5,Win32,60.10337781,5fc26815a9eca13fd5362ba3,64aeaab685a29f4ca249be02,64bec997f1188297851b60ba,down,-1,0.95,0.35,28,0,0.4877,,,,,,327,0,327,0,1,,,,,
,,256403,001,2023-07-24_19h57.55.846,arm3_q,2022.2.5,Win32,60.10337781,5fc26815a9eca13fd5362ba3,64aeaab685a29f4ca249be02,64bec997f1188297851b60ba,right,-1,0.95,0.35,28,-0.007412715,0.7779,,,,,,328,0,328,0,1,,,,,
,,256403,001,2023-07-24_19h57.55.846,arm3_q,2022.2.5,Win32,60.10337781,5fc26815a9eca13fd5362ba3,64aeaab685a29f4ca249be02,64bec997f1188297851b60ba,right,-1,0.95,0.35,28,-0.007525128,0.2331,,,,,,329,0,329,0,1,,,,,
,,256403,001,2023-07-24_19h57.55.846,arm3_q,2022.2.5,Win32,60.10337781,5fc26815a9eca13fd5362ba3,64aeaab685a29f4ca249be02,64bec997f1188297851b60ba,right,-1,0.95,0.35,28,0.014868669,0.18,,,,,,330,0,330,0,1,,,,,
,,256403,001,2023-07-24_19h57.55.846,arm3_q,2022.2.5,Win32,60.10337781,5fc26815a9eca13fd5362ba3,64aeaab685a29f4ca249be02,64bec997f1188297851b60ba,right,-1,0.95,0.35,28,0.00530908,0.3653,,,,,,331,0,331,0,1,,,,,
,,256403,001,2023-07-24_19h57.55.846,arm3_q,2022.2.5,Win32,60.10337781,5fc26815a9eca13fd5362ba3,64aeaab685a29f4ca249be02,64bec997f1188297851b60ba,down,1,0.95,0.35,29,0,0.6638,,,,,,332,0,332,0,1,,,,,
,,256403,001,2023-07-24_19h57.55.846,arm3_q,2022.2.5,Win32,60.10337781,5fc26815a9eca13fd5362ba3,64aeaab685a29f4ca249be02,64bec997f1188297851b60ba,right,1,0.95,0.35,29,0.016749984,0.9763,,,,,,333,0,333,0,1,,,,,
,,256403,001,2023-07-24_19h57.55.846,arm3_q,2022.2.5,Win32,60.10337781,5fc26815a9eca13fd5362ba3,64aeaab685a29f4ca249be02,64bec997f1188297851b60ba,right,1,0.95,0.35,29,0.044591357,0.2226,,,,,,334,0,334,0,1,,,,,
,,256403,001,2023-07-24_19h57.55.846,arm3_q,2022.2.5,Win32,60.10337781,5fc26815a9eca13fd5362ba3,64aeaab685a29f4ca249be02,64bec997f1188297851b60ba,right,1,0.95,0.35,29,0.088946111,0.1815,,,,,,335,0,335,0,1,,,,,
,,256403,001,2023-07-24_19h57.55.846,arm3_q,2022.2.5,Win32,60.10337781,5fc26815a9eca13fd5362ba3,64aeaab685a29f4ca249be02,64bec997f1188297851b60ba,up,-1,0.95,0.35,30,0,0.9792,,,,,,336,0,336,0,1,,,,,
,,256403,001,2023-07-24_19h57.55.846,arm3_q,2022.2.5,Win32,60.10337781,5fc26815a9eca13fd5362ba3,64aeaab685a29f4ca249be02,64bec997f1188297851b60ba,right,-1,0.95,0.35,30,-0.007946394,0.9126,,,,,,337,0,337,0,1,,,,,
,,256403,001,2023-07-24_19h57.55.846,arm3_q,2022.2.5,Win32,60.10337781,5fc26815a9eca13fd5362ba3,64aeaab685a29f4ca249be02,64bec997f1188297851b60ba,right,-1,0.95,0.35,30,-0.012001485,0.321,,,,,,338,0,338,0,1,,,,,
,,256403,001,2023-07-24_19h57.55.846,arm3_q,2022.2.5,Win32,60.10337781,5fc26815a9eca13fd5362ba3,64aeaab685a29f4ca249be02,64bec997f1188297851b60ba,right,-1,0.95,0.35,30,-0.027779074,0.2134,,,,,,339,0,339,0,1,,,,,
,,256403,001,2023-07-24_19h57.55.846,arm3_q,2022.2.5,Win32,60.10337781,5fc26815a9eca13fd5362ba3,64aeaab685a29f4ca249be02,64bec997f1188297851b60ba,right,-1,0.95,0.35,30,-0.027102448,0.1642,,,,,,340,0,340,0,1,,,,,
,,256403,001,2023-07-24_19h57.55.846,arm3_q,2022.2.5,Win32,60.10337781,5fc26815a9eca13fd5362ba3,64aeaab685a29f4ca249be02,64bec997f1188297851b60ba,down,-1,0.95,0.35,31,0,0.4856,,,,,,341,0,341,0,1,,,,,
,,256403,001,2023-07-24_19h57.55.846,arm3_q,2022.2.5,Win32,60.10337781,5fc26815a9eca13fd5362ba3,64aeaab685a29f4ca249be02,64bec997f1188297851b60ba,right,-1,0.95,0.35,31,-0.022754605,0.8285,,,,,,342,0,342,0,1,,,,,
,,256403,001,2023-07-24_19h57.55.846,arm3_q,2022.2.5,Win32,60.10337781,5fc26815a9eca13fd5362ba3,64aeaab685a29f4ca249be02,64bec997f1188297851b60ba,right,-1,0.95,0.35,31,-0.050188667,0.638,,,,,,343,0,343,0,1,,,,,
,,256403,001,2023-07-24_19h57.55.846,arm3_q,2022.2.5,Win32,60.10337781,5fc26815a9eca13fd5362ba3,64aeaab685a29f4ca249be02,64bec997f1188297851b60ba,right,-1,0.95,0.35,31,-0.062162948,0.2378,,,,,,344,0,344,0,1,,,,,
,,256403,001,2023-07-24_19h57.55.846,arm3_q,2022.2.5,Win32,60.10337781,5fc26815a9eca13fd5362ba3,64aeaab685a29f4ca249be02,64bec997f1188297851b60ba,down,1,0.95,0.35,32,0,0.5134,,,,,,345,0,345,0,1,,,,,
,,256403,001,2023-07-24_19h57.55.846,arm3_q,2022.2.5,Win32,60.10337781,5fc26815a9eca13fd5362ba3,64aeaab685a29f4ca249be02,64bec997f1188297851b60ba,right,1,0.95,0.35,32,0.011378469,0.7787,,,,,,346,0,346,0,1,,,,,
,,256403,001,2023-07-24_19h57.55.846,arm3_q,2022.2.5,Win32,60.10337781,5fc26815a9eca13fd5362ba3,64aeaab685a29f4ca249be02,64bec997f1188297851b60ba,right,1,0.95,0.35,32,-0.002846719,0.2638,,,,,,347,0,347,0,1,,,,,
,,256403,001,2023-07-24_19h57.55.846,arm3_q,2022.2.5,Win32,60.10337781,5fc26815a9eca13fd5362ba3,64aeaab685a29f4ca249be02,64bec997f1188297851b60ba,right,1,0.95,0.35,32,0.014692775,0.1647,,,,,,348,0,348,0,1,,,,,
,,256403,001,2023-07-24_19h57.55.846,arm3_q,2022.2.5,Win32,60.10337781,5fc26815a9eca13fd5362ba3,64aeaab685a29f4ca249be02,64bec997f1188297851b60ba,right,1,0.95,0.35,32,0.042103703,0.1801,,,,,,349,0,349,0,1,,,,,
,,256403,001,2023-07-24_19h57.55.846,arm3_q,2022.2.5,Win32,60.10337781,5fc26815a9eca13fd5362ba3,64aeaab685a29f4ca249be02,64bec997f1188297851b60ba,right,1,0.95,0.35,32,0.046314659,0.3635,,,,,,350,0,350,0,1,,,,,
,,256403,001,2023-07-24_19h57.55.846,arm3_q,2022.2.5,Win32,60.10337781,5fc26815a9eca13fd5362ba3,64aeaab685a29f4ca249be02,64bec997f1188297851b60ba,right,1,0.95,0.35,32,0.061876213,0.1521,,,,,,351,0,351,0,1,,,,,
,,256403,001,2023-07-24_19h57.55.846,arm3_q,2022.2.5,Win32,60.10337781,5fc26815a9eca13fd5362ba3,64aeaab685a29f4ca249be02,64bec997f1188297851b60ba,up,-1,0.95,0.35,33,0,0.5037,,,,,,352,0,352,0,1,,,,,
,,256403,001,2023-07-24_19h57.55.846,arm3_q,2022.2.5,Win32,60.10337781,5fc26815a9eca13fd5362ba3,64aeaab685a29f4ca249be02,64bec997f1188297851b60ba,right,-1,0.95,0.35,33,-0.001582772,0.6189,,,,,,353,0,353,0,1,,,,,
,,256403,001,2023-07-24_19h57.55.846,arm3_q,2022.2.5,Win32,60.10337781,5fc26815a9eca13fd5362ba3,64aeaab685a29f4ca249be02,64bec997f1188297851b60ba,right,-1,0.95,0.35,33,-0.017545175,0.2052,,,,,,354,0,354,0,1,,,,,
,,256403,001,2023-07-24_19h57.55.846,arm3_q,2022.2.5,Win32,60.10337781,5fc26815a9eca13fd5362ba3,64aeaab685a29f4ca249be02,64bec997f1188297851b60ba,right,-1,0.95,0.35,33,-0.025280244,0.2967,,,,,,355,0,355,0,1,,,,,
,,256403,001,2023-07-24_19h57.55.846,arm3_q,2022.2.5,Win32,60.10337781,5fc26815a9eca13fd5362ba3,64aeaab685a29f4ca249be02,64bec997f1188297851b60ba,right,-1,0.95,0.35,33,-0.025517837,0.1465,,,,,,356,0,356,0,1,,,,,
,,256403,001,2023-07-24_19h57.55.846,arm3_q,2022.2.5,Win32,60.10337781,5fc26815a9eca13fd5362ba3,64aeaab685a29f4ca249be02,64bec997f1188297851b60ba,down,1,0.95,0.35,34,0,0.8796,,,,,,357,0,357,0,1,,,,,
,,256403,001,2023-07-24_19h57.55.846,arm3_q,2022.2.5,Win32,60.10337781,5fc26815a9eca13fd5362ba3,64aeaab685a29f4ca249be02,64bec997f1188297851b60ba,right,1,0.95,0.35,34,-0.003526533,0.8784,,,,,,358,0,358,0,1,,,,,
,,256403,001,2023-07-24_19h57.55.846,arm3_q,2022.2.5,Win32,60.10337781,5fc26815a9eca13fd5362ba3,64aeaab685a29f4ca249be02,64bec997f1188297851b60ba,right,1,0.95,0.35,34,0.015546516,0.2194,,,,,,359,0,359,0,1,,,,,
,,256403,001,2023-07-24_19h57.55.846,arm3_q,2022.2.5,Win32,60.10337781,5fc26815a9eca13fd5362ba3,64aeaab685a29f4ca249be02,64bec997f1188297851b60ba,right,1,0.95,0.35,34,0.026152596,0.1658,,,,,,360,0,360,0,1,,,,,
,,256403,001,2023-07-24_19h57.55.846,arm3_q,2022.2.5,Win32,60.10337781,5fc26815a9eca13fd5362ba3,64aeaab685a29f4ca249be02,64bec997f1188297851b60ba,up,-1,0.95,0.35,35,0,0.8061,,,,,,361,0,361,0,1,,,,,
,,256403,001,2023-07-24_19h57.55.846,arm3_q,2022.2.5,Win32,60.10337781,5fc26815a9eca13fd5362ba3,64aeaab685a29f4ca249be02,64bec997f1188297851b60ba,right,-1,0.95,0.35,35,-0.015585617,1.4777,,,,,,362,0,362,0,1,,,,,
,,256403,001,2023-07-24_19h57.55.846,arm3_q,2022.2.5,Win32,60.10337781,5fc26815a9eca13fd5362ba3,64aeaab685a29f4ca249be02,64bec997f1188297851b60ba,right,-1,0.95,0.35,35,-0.007089338,0.2726,,,,,,363,0,363,0,1,,,,,
,,256403,001,2023-07-24_19h57.55.846,arm3_q,2022.2.5,Win32,60.10337781,5fc26815a9eca13fd5362ba3,64aeaab685a29f4ca249be02,64bec997f1188297851b60ba,right,-1,0.95,0.35,35,-0.028055236,0.1638,,,,,,364,0,364,0,1,,,,,
,,256403,001,2023-07-24_19h57.55.846,arm3_q,2022.2.5,Win32,60.10337781,5fc26815a9eca13fd5362ba3,64aeaab685a29f4ca249be02,64bec997f1188297851b60ba,right,-1,0.95,0.35,35,-0.060805373,0.1952,,,,,,365,0,365,0,1,,,,,
,,256403,001,2023-07-24_19h57.55.846,arm3_q,2022.2.5,Win32,60.10337781,5fc26815a9eca13fd5362ba3,64aeaab685a29f4ca249be02,64bec997f1188297851b60ba,down,-1,0.95,0.35,36,0,0.4357,,,,,,366,0,366,0,1,,,,,
,,256403,001,2023-07-24_19h57.55.846,arm3_q,2022.2.5,Win32,60.10337781,5fc26815a9eca13fd5362ba3,64aeaab685a29f4ca249be02,64bec997f1188297851b60ba,right,-1,0.95,0.35,36,-0.000730271,1.5628,,,,,,367,0,367,0,1,,,,,
,,256403,001,2023-07-24_19h57.55.846,arm3_q,2022.2.5,Win32,60.10337781,5fc26815a9eca13fd5362ba3,64aeaab685a29f4ca249be02,64bec997f1188297851b60ba,right,-1,0.95,0.35,36,-0.001931399,0.2222,,,,,,368,0,368,0,1,,,,,
,,256403,001,2023-07-24_19h57.55.846,arm3_q,2022.2.5,Win32,60.10337781,5fc26815a9eca13fd5362ba3,64aeaab685a29f4ca249be02,64bec997f1188297851b60ba,right,-1,0.95,0.35,36,-0.035895834,0.197,,,,,,369,0,369,0,1,,,,,
,,256403,001,2023-07-24_19h57.55.846,arm3_q,2022.2.5,Win32,60.10337781,5fc26815a9eca13fd5362ba3,64aeaab685a29f4ca249be02,64bec997f1188297851b60ba,,,,,,,,,,,,,,,,,,0,0,0,0,1
space,3.6736,256403,001,2023-07-24_19h57.55.846,arm3_q,2022.2.5,Win32,60.10337781,5fc26815a9eca13fd5362ba3,64aeaab685a29f4ca249be02,64bec997f1188297851b60ba,right,-1,0.8214,0.35,36,-0.012482937,3.8715,,,,,,0,0,0,0,1,,,,,
,,256403,001,2023-07-24_19h57.55.846,arm3_q,2022.2.5,Win32,60.10337781,5fc26815a9eca13fd5362ba3,64aeaab685a29f4ca249be02,64bec997f1188297851b60ba,right,-1,0.8214,0.35,36,-0.012695293,0.2912,,,,,,1,0,1,0,1,,,,,
,,256403,001,2023-07-24_19h57.55.846,arm3_q,2022.2.5,Win32,60.10337781,5fc26815a9eca13fd5362ba3,64aeaab685a29f4ca249be02,64bec997f1188297851b60ba,right,-1,0.8214,0.35,36,-0.033570712,0.3843,,,,,,2,0,2,0,1,,,,,
,,256403,001,2023-07-24_19h57.55.846,arm3_q,2022.2.5,Win32,60.10337781,5fc26815a9eca13fd5362ba3,64aeaab685a29f4ca249be02,64bec997f1188297851b60ba,down,-1,0.8214,0.35,36,0,0.4341,,,,,,3,0,3,0,1,,,,,
,,256403,001,2023-07-24_19h57.55.846,arm3_q,2022.2.5,Win32,60.10337781,5fc26815a9eca13fd5362ba3,64aeaab685a29f4ca249be02,64bec997f1188297851b60ba,right,-1,0.8214,0.35,36,-0.01019605,1.0833,,,,,,4,0,4,0,1,,,,,
,,256403,001,2023-07-24_19h57.55.846,arm3_q,2022.2.5,Win32,60.10337781,5fc26815a9eca13fd5362ba3,64aeaab685a29f4ca249be02,64bec997f1188297851b60ba,down,-1,0.8214,0.35,37,0,0.8168,,,,,,5,0,5,0,1,,,,,
,,256403,001,2023-07-24_19h57.55.846,arm3_q,2022.2.5,Win32,60.10337781,5fc26815a9eca13fd5362ba3,64aeaab685a29f4ca249be02,64bec997f1188297851b60ba,right,-1,0.8214,0.35,37,0.005419567,0.8337,,,,,,6,0,6,0,1,,,,,
,,256403,001,2023-07-24_19h57.55.846,arm3_q,2022.2.5,Win32,60.10337781,5fc26815a9eca13fd5362ba3,64aeaab685a29f4ca249be02,64bec997f1188297851b60ba,right,-1,0.8214,0.35,37,-0.007309137,0.2337,,,,,,7,0,7,0,1,,,,,
,,256403,001,2023-07-24_19h57.55.846,arm3_q,2022.2.5,Win32,60.10337781,5fc26815a9eca13fd5362ba3,64aeaab685a29f4ca249be02,64bec997f1188297851b60ba,right,-1,0.8214,0.35,37,0.002689754,0.3502,,,,,,8,0,8,0,1,,,,,
,,256403,001,2023-07-24_19h57.55.846,arm3_q,2022.2.5,Win32,60.10337781,5fc26815a9eca13fd5362ba3,64aeaab685a29f4ca249be02,64bec997f1188297851b60ba,right,-1,0.8214,0.35,37,-0.000131438,0.5503,,,,,,9,0,9,0,1,,,,,
,,256403,001,2023-07-24_19h57.55.846,arm3_q,2022.2.5,Win32,60.10337781,5fc26815a9eca13fd5362ba3,64aeaab685a29f4ca249be02,64bec997f1188297851b60ba,right,-1,0.8214,0.35,37,-0.023275648,0.201,,,,,,10,0,10,0,1,,,,,
,,256403,001,2023-07-24_19h57.55.846,arm3_q,2022.2.5,Win32,60.10337781,5fc26815a9eca13fd5362ba3,64aeaab685a29f4ca249be02,64bec997f1188297851b60ba,down,-1,0.8214,0.35,38,0,0.4673,,,,,,11,0,11,0,1,,,,,
,,256403,001,2023-07-24_19h57.55.846,arm3_q,2022.2.5,Win32,60.10337781,5fc26815a9eca13fd5362ba3,64aeaab685a29f4ca249be02,64bec997f1188297851b60ba,right,-1,0.8214,0.35,38,-0.006250379,0.7831,,,,,,12,0,12,0,1,,,,,
,,256403,001,2023-07-24_19h57.55.846,arm3_q,2022.2.5,Win32,60.10337781,5fc26815a9eca13fd5362ba3,64aeaab685a29f4ca249be02,64bec997f1188297851b60ba,right,-1,0.8214,0.35,38,-0.011563565,0.2838,,,,,,13,0,13,0,1,,,,,
,,256403,001,2023-07-24_19h57.55.846,arm3_q,2022.2.5,Win32,60.10337781,5fc26815a9eca13fd5362ba3,64aeaab685a29f4ca249be02,64bec997f1188297851b60ba,right,-1,0.8214,0.35,38,-0.03249488,0.151,,,,,,14,0,14,0,1,,,,,
,,256403,001,2023-07-24_19h57.55.846,arm3_q,2022.2.5,Win32,60.10337781,5fc26815a9eca13fd5362ba3,64aeaab685a29f4ca249be02,64bec997f1188297851b60ba,right,-1,0.8214,0.35,38,-0.023028816,0.6501,,,,,,15,0,15,0,1,,,,,
,,256403,001,2023-07-24_19h57.55.846,arm3_q,2022.2.5,Win32,60.10337781,5fc26815a9eca13fd5362ba3,64aeaab685a29f4ca249be02,64bec997f1188297851b60ba,down,-1,0.8214,0.35,38,0,0.6039,,,,,,16,0,16,0,1,,,,,
,,256403,001,2023-07-24_19h57.55.846,arm3_q,2022.2.5,Win32,60.10337781,5fc26815a9eca13fd5362ba3,64aeaab685a29f4ca249be02,64bec997f1188297851b60ba,right,-1,0.8214,0.35,38,0.026196554,0.9006,,,,,,17,0,17,0,1,,,,,
,,256403,001,2023-07-24_19h57.55.846,arm3_q,2022.2.5,Win32,60.10337781,5fc26815a9eca13fd5362ba3,64aeaab685a29f4ca249be02,64bec997f1188297851b60ba,right,-1,0.8214,0.35,38,0.017658355,0.3104,,,,,,18,0,18,0,1,,,,,
,,256403,001,2023-07-24_19h57.55.846,arm3_q,2022.2.5,Win32,60.10337781,5fc26815a9eca13fd5362ba3,64aeaab685a29f4ca249be02,64bec997f1188297851b60ba,right,-1,0.8214,0.35,38,0.015883133,0.2351,,,,,,19,0,19,0,1,,,,,
,,256403,001,2023-07-24_19h57.55.846,arm3_q,2022.2.5,Win32,60.10337781,5fc26815a9eca13fd5362ba3,64aeaab685a29f4ca249be02,64bec997f1188297851b60ba,right,-1,0.8214,0.35,38,0.018768193,0.2676,,,,,,20,0,20,0,1,,,,,
,,256403,001,2023-07-24_19h57.55.846,arm3_q,2022.2.5,Win32,60.10337781,5fc26815a9eca13fd5362ba3,64aeaab685a29f4ca249be02,64bec997f1188297851b60ba,right,-1,0.8214,0.35,38,0.04912363,0.2508,,,,,,21,0,21,0,1,,,,,
,,256403,001,2023-07-24_19h57.55.846,arm3_q,2022.2.5,Win32,60.10337781,5fc26815a9eca13fd5362ba3,64aeaab685a29f4ca249be02,64bec997f1188297851b60ba,up,-1,0.8214,0.35,37,0,0.783,,,,,,22,0,22,0,1,,,,,
,,256403,001,2023-07-24_19h57.55.846,arm3_q,2022.2.5,Win32,60.10337781,5fc26815a9eca13fd5362ba3,64aeaab685a29f4ca249be02,64bec997f1188297851b60ba,right,-1,0.8214,0.35,37,-0.010328088,1.2,,,,,,23,0,23,0,1,,,,,
,,256403,001,2023-07-24_19h57.55.846,arm3_q,2022.2.5,Win32,60.10337781,5fc26815a9eca13fd5362ba3,64aeaab685a29f4ca249be02,64bec997f1188297851b60ba,right,-1,0.8214,0.35,37,-0.029620381,0.2174,,,,,,24,0,24,0,1,,,,,
,,256403,001,2023-07-24_19h57.55.846,arm3_q,2022.2.5,Win32,60.10337781,5fc26815a9eca13fd5362ba3,64aeaab685a29f4ca249be02,64bec997f1188297851b60ba,right,-1,0.8214,0.35,37,-0.023928847,0.1838,,,,,,25,0,25,0,1,,,,,
,,256403,001,2023-07-24_19h57.55.846,arm3_q,2022.2.5,Win32,60.10337781,5fc26815a9eca13fd5362ba3,64aeaab685a29f4ca249be02,64bec997f1188297851b60ba,right,-1,0.8214,0.35,37,-0.006122699,0.1838,,,,,,26,0,26,0,1,,,,,
,,256403,001,2023-07-24_19h57.55.846,arm3_q,2022.2.5,Win32,60.10337781,5fc26815a9eca13fd5362ba3,64aeaab685a29f4ca249be02,64bec997f1188297851b60ba,right,-1,0.8214,0.35,37,-0.015353688,0.184,,,,,,27,0,27,0,1,,,,,
,,256403,001,2023-07-24_19h57.55.846,arm3_q,2022.2.5,Win32,60.10337781,5fc26815a9eca13fd5362ba3,64aeaab685a29f4ca249be02,64bec997f1188297851b60ba,right,-1,0.8214,0.35,37,-0.01796952,0.2009,,,,,,28,0,28,0,1,,,,,
,,256403,001,2023-07-24_19h57.55.846,arm3_q,2022.2.5,Win32,60.10337781,5fc26815a9eca13fd5362ba3,64aeaab685a29f4ca249be02,64bec997f1188297851b60ba,right,-1,0.8214,0.35,37,0.010445202,0.234,,,,,,29,0,29,0,1,,,,,
,,256403,001,2023-07-24_19h57.55.846,arm3_q,2022.2.5,Win32,60.10337781,5fc26815a9eca13fd5362ba3,64aeaab685a29f4ca249be02,64bec997f1188297851b60ba,right,-1,0.8214,0.35,37,0.013871928,0.3674,,,,,,30,0,30,0,1,,,,,
,,256403,001,2023-07-24_19h57.55.846,arm3_q,2022.2.5,Win32,60.10337781,5fc26815a9eca13fd5362ba3,64aeaab685a29f4ca249be02,64bec997f1188297851b60ba,up,-1,0.8214,0.35,36,0,0.5006,,,,,,31,0,31,0,1,,,,,
,,256403,001,2023-07-24_19h57.55.846,arm3_q,2022.2.5,Win32,60.10337781,5fc26815a9eca13fd5362ba3,64aeaab685a29f4ca249be02,64bec997f1188297851b60ba,right,-1,0.8214,0.35,36,0.00453307,1,,,,,,32,0,32,0,1,,,,,
,,256403,001,2023-07-24_19h57.55.846,arm3_q,2022.2.5,Win32,60.10337781,5fc26815a9eca13fd5362ba3,64aeaab685a29f4ca249be02,64bec997f1188297851b60ba,right,-1,0.8214,0.35,36,-0.061331974,0.2174,,,,,,33,0,33,0,1,,,,,
,,256403,001,2023-07-24_19h57.55.846,arm3_q,2022.2.5,Win32,60.10337781,5fc26815a9eca13fd5362ba3,64aeaab685a29f4ca249be02,64bec997f1188297851b60ba,right,-1,0.8214,0.35,36,-0.053369612,0.2503,,,,,,34,0,34,0,1,,,,,
,,256403,001,2023-07-24_19h57.55.846,arm3_q,2022.2.5,Win32,60.10337781,5fc26815a9eca13fd5362ba3,64aeaab685a29f4ca249be02,64bec997f1188297851b60ba,right,-1,0.8214,0.35,36,-0.09301732,0.2007,,,,,,35,0,35,0,1,,,,,
,,256403,001,2023-07-24_19h57.55.846,arm3_q,2022.2.5,Win32,60.10337781,5fc26815a9eca13fd5362ba3,64aeaab685a29f4ca249be02,64bec997f1188297851b60ba,down,1,0.8214,0.35,37,0,0.4668,,,,,,36,0,36,0,1,,,,,
,,256403,001,2023-07-24_19h57.55.846,arm3_q,2022.2.5,Win32,60.10337781,5fc26815a9eca13fd5362ba3,64aeaab685a29f4ca249be02,64bec997f1188297851b60ba,right,1,0.8214,0.35,37,-0.000177976,0.767,,,,,,37,0,37,0,1,,,,,
,,256403,001,2023-07-24_19h57.55.846,arm3_q,2022.2.5,Win32,60.10337781,5fc26815a9eca13fd5362ba3,64aeaab685a29f4ca249be02,64bec997f1188297851b60ba,right,1,0.8214,0.35,37,0.013910727,0.2175,,,,,,38,0,38,0,1,,,,,
,,256403,001,2023-07-24_19h57.55.846,arm3_q,2022.2.5,Win32,60.10337781,5fc26815a9eca13fd5362ba3,64aeaab685a29f4ca249be02,64bec997f1188297851b60ba,right,1,0.8214,0.35,37,0.027592677,0.1672,,,,,,39,0,39,0,1,,,,,
,,256403,001,2023-07-24_19h57.55.846,arm3_q,2022.2.5,Win32,60.10337781,5fc26815a9eca13fd5362ba3,64aeaab685a29f4ca249be02,64bec997f1188297851b60ba,right,1,0.8214,0.35,37,0.017715693,0.3506,,,,,,40,0,40,0,1,,,,,
,,256403,001,2023-07-24_19h57.55.846,arm3_q,2022.2.5,Win32,60.10337781,5fc26815a9eca13fd5362ba3,64aeaab685a29f4ca249be02,64bec997f1188297851b60ba,right,1,0.8214,0.35,37,0.028152771,0.2674,,,,,,41,0,41,0,1,,,,,
,,256403,001,2023-07-24_19h57.55.846,arm3_q,2022.2.5,Win32,60.10337781,5fc26815a9eca13fd5362ba3,64aeaab685a29f4ca249be02,64bec997f1188297851b60ba,right,1,0.8214,0.35,37,0.043758932,0.2174,,,,,,42,0,42,0,1,,,,,
,,256403,001,2023-07-24_19h57.55.846,arm3_q,2022.2.5,Win32,60.10337781,5fc26815a9eca13fd5362ba3,64aeaab685a29f4ca249be02,64bec997f1188297851b60ba,up,-1,0.8214,0.35,38,0,0.6504,,,,,,43,0,43,0,1,,,,,
,,256403,001,2023-07-24_19h57.55.846,arm3_q,2022.2.5,Win32,60.10337781,5fc26815a9eca13fd5362ba3,64aeaab685a29f4ca249be02,64bec997f1188297851b60ba,right,-1,0.8214,0.35,38,0.020580002,0.8003,,,,,,44,0,44,0,1,,,,,
,,256403,001,2023-07-24_19h57.55.846,arm3_q,2022.2.5,Win32,60.10337781,5fc26815a9eca13fd5362ba3,64aeaab685a29f4ca249be02,64bec997f1188297851b60ba,right,-1,0.8214,0.35,38,-0.021080726,0.2006,,,,,,45,0,45,0,1,,,,,
