space_bar.keys,space_bar.rt,participant,session,date,expName,psychopyVersion,OS,frameRate,PROLIFIC_PID,STUDY_ID,SESSION_ID,resp.keys,state,q_prob,eps_prob,score,price,resp.rt,train.thisRepN,train.thisTrialN,train.thisN,train.thisIndex,train.ran,steps.thisRepN,steps.thisTrialN,steps.thisN,steps.thisIndex,steps.ran,blocks.thisRepN,blocks.thisTrialN,blocks.thisN,blocks.thisIndex,blocks.ran
space,22.0895,276792,001,2023-07-24_21h10.30.728,arm3_q,2022.2.5,Win32,60.0024001,5fd85707af5bd719a5e20419,64aeaab685a29f4ca249be02,64becc53613b1cb6041b60ca,,,,,,,,,,,,,,,,,,,,,,
space,22.4071,276792,001,2023-07-24_21h10.30.728,arm3_q,2022.2.5,Win32,60.0024001,5fd85707af5bd719a5e20419,64aeaab685a29f4ca249be02,64becc53613b1cb6041b60ca,,,,,,,,,,,,,,,,,,,,,,
space,34.0179,276792,001,2023-07-24_21h10.30.728,arm3_q,2022.2.5,Win32,60.0024001,5fd85707af5bd719a5e20419,64aeaab685a29f4ca249be02,64becc53613b1cb6041b60ca,,,,,,,,,,,,,,,,,,,,,,
space,60.4802,276792,001,2023-07-24_21h10.30.728,arm3_q,2022.2.5,Win32,60.0024001,5fd85707af5bd719a5e20419,64aeaab685a29f4ca249be02,64becc53613b1cb6041b60ca,,,,,,,,,,,,,,,,,,,,,,
space,42.9827,276792,001,2023-07-24_21h10.30.728,arm3_q,2022.2.5,Win32,60.0024001,5fd85707af5bd719a5e20419,64aeaab685a29f4ca249be02,64becc53613b1cb6041b60ca,,,,,,,,,,,,,,,,,,,,,,
space,14.1805,276792,001,2023-07-24_21h10.30.728,arm3_q,2022.2.5,Win32,60.0024001,5fd85707af5bd719a5e20419,64aeaab685a29f4ca249be02,64becc53613b1cb6041b60ca,,,,,,,,,,,,,,,,,,,,,,
space,9.1203,276792,001,2023-07-24_21h10.30.728,arm3_q,2022.2.5,Win32,60.0024001,5fd85707af5bd719a5e20419,64aeaab685a29f4ca249be02,64becc53613b1cb6041b60ca,,,,,,,,,,,,,,,,,,,,,,
space,10.4447,276792,001,2023-07-24_21h10.30.728,arm3_q,2022.2.5,Win32,60.0024001,5fd85707af5bd719a5e20419,64aeaab685a29f4ca249be02,64becc53613b1cb6041b60ca,,,,,,,,,,,,,,,,,,,,,,
space,23.4967,276792,001,2023-07-24_21h10.30.728,arm3_q,2022.2.5,Win32,60.0024001,5fd85707af5bd719a5e20419,64aeaab685a29f4ca249be02,64becc53613b1cb6041b60ca,,,,,,,,,,,,,,,,,,,,,,
space,12.5612,276792,001,2023-07-24_21h10.30.728,arm3_q,2022.2.5,Win32,60.0024001,5fd85707af5bd719a5e20419,64aeaab685a29f4ca249be02,64becc53613b1cb6041b60ca,,,,,,,,,,,,,,,,,,,,,,
,,276792,001,2023-07-24_21h10.30.728,arm3_q,2022.2.5,Win32,60.0024001,5fd85707af5bd719a5e20419,64aeaab685a29f4ca249be02,64becc53613b1cb6041b60ca,down,-1,0.5643,0.35,0,0,6.4743,0,0,0,0,1,,,,,,,,,,
,,276792,001,2023-07-24_21h10.30.728,arm3_q,2022.2.5,Win32,60.0024001,5fd85707af5bd719a5e20419,64aeaab685a29f4ca249be02,64becc53613b1cb6041b60ca,down,1,0.5643,0.35,0,0,3.3769,1,0,1,0,1,,,,,,,,,,
,,276792,001,2023-07-24_21h10.30.728,arm3_q,2022.2.5,Win32,60.0024001,5fd85707af5bd719a5e20419,64aeaab685a29f4ca249be02,64becc53613b1cb6041b60ca,up,1,0.5643,0.35,1,0,6.2674,2,0,2,0,1,,,,,,,,,,
,,276792,001,2023-07-24_21h10.30.728,arm3_q,2022.2.5,Win32,60.0024001,5fd85707af5bd719a5e20419,64aeaab685a29f4ca249be02,64becc53613b1cb6041b60ca,up,1,0.5643,0.35,2,0,4.5919,3,0,3,0,1,,,,,,,,,,
,,276792,001,2023-07-24_21h10.30.728,arm3_q,2022.2.5,Win32,60.0024001,5fd85707af5bd719a5e20419,64aeaab685a29f4ca249be02,64becc53613b1cb6041b60ca,up,1,0.5643,0.35,3,0,2.1629,4,0,4,0,1,,,,,,,,,,
,,276792,001,2023-07-24_21h10.30.728,arm3_q,2022.2.5,Win32,60.0024001,5fd85707af5bd719a5e20419,64aeaab685a29f4ca249be02,64becc53613b1cb6041b60ca,down,1,0.5643,0.35,2,0,2.3009,5,0,5,0,1,,,,,,,,,,
,,276792,001,2023-07-24_21h10.30.728,arm3_q,2022.2.5,Win32,60.0024001,5fd85707af5bd719a5e20419,64aeaab685a29f4ca249be02,64becc53613b1cb6041b60ca,up,-1,0.5643,0.35,3,0,2.3823,6,0,6,0,1,,,,,,,,,,
,,276792,001,2023-07-24_21h10.30.728,arm3_q,2022.2.5,Win32,60.0024001,5fd85707af5bd719a5e20419,64aeaab685a29f4ca249be02,64becc53613b1cb6041b60ca,down,-1,0.5643,0.35,4,0,1.5167,7,0,7,0,1,,,,,,,,,,
,,276792,001,2023-07-24_21h10.30.728,arm3_q,2022.2.5,Win32,60.0024001,5fd85707af5bd719a5e20419,64aeaab685a29f4ca249be02,64becc53613b1cb6041b60ca,down,-1,0.5643,0.35,5,0,1.1338,8,0,8,0,1,,,,,,,,,,
,,276792,001,2023-07-24_21h10.30.728,arm3_q,2022.2.5,Win32,60.0024001,5fd85707af5bd719a5e20419,64aeaab685a29f4ca249be02,64becc53613b1cb6041b60ca,down,-1,0.5643,0.35,5,0,1.4003,9,0,9,0,1,,,,,,,,,,
,,276792,001,2023-07-24_21h10.30.728,arm3_q,2022.2.5,Win32,60.0024001,5fd85707af5bd719a5e20419,64aeaab685a29f4ca249be02,64becc53613b1cb6041b60ca,right,-1,0.5643,0.35,5,0.010394932,8.7168,10,0,10,0,1,,,,,,,,,,
,,276792,001,2023-07-24_21h10.30.728,arm3_q,2022.2.5,Win32,60.0024001,5fd85707af5bd719a5e20419,64aeaab685a29f4ca249be02,64becc53613b1cb6041b60ca,right,-1,0.5643,0.35,5,-0.01314656,3.3796,11,0,11,0,1,,,,,,,,,,
,,276792,001,2023-07-24_21h10.30.728,arm3_q,2022.2.5,Win32,60.0024001,5fd85707af5bd719a5e20419,64aeaab685a29f4ca249be02,64becc53613b1cb6041b60ca,right,-1,0.5643,0.35,5,-0.005822299,0.7667,12,0,12,0,1,,,,,,,,,,
,,276792,001,2023-07-24_21h10.30.728,arm3_q,2022.2.5,Win32,60.0024001,5fd85707af5bd719a5e20419,64aeaab685a29f4ca249be02,64becc53613b1cb6041b60ca,right,-1,0.5643,0.35,5,-0.017940646,0.3837,13,0,13,0,1,,,,,,,,,,
,,276792,001,2023-07-24_21h10.30.728,arm3_q,2022.2.5,Win32,60.0024001,5fd85707af5bd719a5e20419,64aeaab685a29f4ca249be02,64becc53613b1cb6041b60ca,right,-1,0.5643,0.35,5,-0.011939854,0.6173,14,0,14,0,1,,,,,,,,,,
,,276792,001,2023-07-24_21h10.30.728,arm3_q,2022.2.5,Win32,60.0024001,5fd85707af5bd719a5e20419,64aeaab685a29f4ca249be02,64becc53613b1cb6041b60ca,up,-1,0.5643,0.35,4,0,0.8669,15,0,15,0,1,,,,,,,,,,
,,276792,001,2023-07-24_21h10.30.728,arm3_q,2022.2.5,Win32,60.0024001,5fd85707af5bd719a5e20419,64aeaab685a29f4ca249be02,64becc53613b1cb6041b60ca,right,-1,0.5643,0.35,4,-0.046306106,2.196,16,0,16,0,1,,,,,,,,,,
,,276792,001,2023-07-24_21h10.30.728,arm3_q,2022.2.5,Win32,60.0024001,5fd85707af5bd719a5e20419,64aeaab685a29f4ca249be02,64becc53613b1cb6041b60ca,down,-1,0.5643,0.35,5,0,0.6838,17,0,17,0,1,,,,,,,,,,
,,276792,001,2023-07-24_21h10.30.728,arm3_q,2022.2.5,Win32,60.0024001,5fd85707af5bd719a5e20419,64aeaab685a29f4ca249be02,64becc53613b1cb6041b60ca,right,-1,0.5643,0.35,5,0.000903652,1.1497,18,0,18,0,1,,,,,,,,,,
,,276792,001,2023-07-24_21h10.30.728,arm3_q,2022.2.5,Win32,60.0024001,5fd85707af5bd719a5e20419,64aeaab685a29f4ca249be02,64becc53613b1cb6041b60ca,right,-1,0.5643,0.35,5,-0.047005297,0.5337,19,0,19,0,1,,,,,,,,,,
,,276792,001,2023-07-24_21h10.30.728,arm3_q,2022.2.5,Win32,60.0024001,5fd85707af5bd719a5e20419,64aeaab685a29f4ca249be02,64becc53613b1cb6041b60ca,down,1,0.5643,0.35,5,0,0.9504,20,0,20,0,1,,,,,,,,,,
,,276792,001,2023-07-24_21h10.30.728,arm3_q,2022.2.5,Win32,60.0024001,5fd85707af5bd719a5e20419,64aeaab685a29f4ca249be02,64becc53613b1cb6041b60ca,up,1,0.5643,0.35,6,0,5.2834,21,0,21,0,1,,,,,,,,,,
,,276792,001,2023-07-24_21h10.30.728,arm3_q,2022.2.5,Win32,60.0024001,5fd85707af5bd719a5e20419,64aeaab685a29f4ca249be02,64becc53613b1cb6041b60ca,right,1,0.5643,0.35,6,0.008984531,2.2599,22,0,22,0,1,,,,,,,,,,
,,276792,001,2023-07-24_21h10.30.728,arm3_q,2022.2.5,Win32,60.0024001,5fd85707af5bd719a5e20419,64aeaab685a29f4ca249be02,64becc53613b1cb6041b60ca,right,1,0.5643,0.35,6,0.024918095,0.3336,23,0,23,0,1,,,,,,,,,,
,,276792,001,2023-07-24_21h10.30.728,arm3_q,2022.2.5,Win32,60.0024001,5fd85707af5bd719a5e20419,64aeaab685a29f4ca249be02,64becc53613b1cb6041b60ca,right,1,0.5643,0.35,6,0.011265544,0.1191,24,0,24,0,1,,,,,,,,,,
,,276792,001,2023-07-24_21h10.30.728,arm3_q,2022.2.5,Win32,60.0024001,5fd85707af5bd719a5e20419,64aeaab685a29f4ca249be02,64becc53613b1cb6041b60ca,up,1,0.5643,0.35,7,0,0.6839,25,0,25,0,1,,,,,,,,,,
,,276792,001,2023-07-24_21h10.30.728,arm3_q,2022.2.5,Win32,60.0024001,5fd85707af5bd719a5e20419,64aeaab685a29f4ca249be02,64becc53613b1cb6041b60ca,up,1,0.5643,0.35,8,0,1.3173,26,0,26,0,1,,,,,,,,,,
,,276792,001,2023-07-24_21h10.30.728,arm3_q,2022.2.5,Win32,60.0024001,5fd85707af5bd719a5e20419,64aeaab685a29f4ca249be02,64becc53613b1cb6041b60ca,right,1,0.5643,0.35,8,0.011650969,1.967,27,0,27,0,1,,,,,,,,,,
,,276792,001,2023-07-24_21h10.30.728,arm3_q,2022.2.5,Win32,60.0024001,5fd85707af5bd719a5e20419,64aeaab685a29f4ca249be02,64becc53613b1cb6041b60ca,right,1,0.5643,0.35,8,0.037421523,0.2003,28,0,28,0,1,,,,,,,,,,
,,276792,001,2023-07-24_21h10.30.728,arm3_q,2022.2.5,Win32,60.0024001,5fd85707af5bd719a5e20419,64aeaab685a29f4ca249be02,64becc53613b1cb6041b60ca,right,1,0.5643,0.35,8,0.049374313,0.1171,29,0,29,0,1,,,,,,,,,,
,,276792,001,2023-07-24_21h10.30.728,arm3_q,2022.2.5,Win32,60.0024001,5fd85707af5bd719a5e20419,64aeaab685a29f4ca249be02,64becc53613b1cb6041b60ca,up,1,0.5643,0.35,9,0,0.5172,30,0,30,0,1,,,,,,,,,,
,,276792,001,2023-07-24_21h10.30.728,arm3_q,2022.2.5,Win32,60.0024001,5fd85707af5bd719a5e20419,64aeaab685a29f4ca249be02,64becc53613b1cb6041b60ca,down,1,0.5643,0.35,8,0,1.45,31,0,31,0,1,,,,,,,,,,
,,276792,001,2023-07-24_21h10.30.728,arm3_q,2022.2.5,Win32,60.0024001,5fd85707af5bd719a5e20419,64aeaab685a29f4ca249be02,64becc53613b1cb6041b60ca,down,1,0.5643,0.35,8,0,0.2004,32,0,32,0,1,,,,,,,,,,
,,276792,001,2023-07-24_21h10.30.728,arm3_q,2022.2.5,Win32,60.0024001,5fd85707af5bd719a5e20419,64aeaab685a29f4ca249be02,64becc53613b1cb6041b60ca,right,1,0.5643,0.35,8,0.003264691,5.1835,33,0,33,0,1,,,,,,,,,,
,,276792,001,2023-07-24_21h10.30.728,arm3_q,2022.2.5,Win32,60.0024001,5fd85707af5bd719a5e20419,64aeaab685a29f4ca249be02,64becc53613b1cb6041b60ca,right,1,0.5643,0.35,8,0.026268345,0.1818,34,0,34,0,1,,,,,,,,,,
,,276792,001,2023-07-24_21h10.30.728,arm3_q,2022.2.5,Win32,60.0024001,5fd85707af5bd719a5e20419,64aeaab685a29f4ca249be02,64becc53613b1cb6041b60ca,right,1,0.5643,0.35,8,0.009409623,0.5167,35,0,35,0,1,,,,,,,,,,
,,276792,001,2023-07-24_21h10.30.728,arm3_q,2022.2.5,Win32,60.0024001,5fd85707af5bd719a5e20419,64aeaab685a29f4ca249be02,64becc53613b1cb6041b60ca,up,1,0.5643,0.35,9,0,0.4006,36,0,36,0,1,,,,,,,,,,
,,276792,001,2023-07-24_21h10.30.728,arm3_q,2022.2.5,Win32,60.0024001,5fd85707af5bd719a5e20419,64aeaab685a29f4ca249be02,64becc53613b1cb6041b60ca,down,1,0.5643,0.35,9,0,1.4501,37,0,37,0,1,,,,,,,,,,
,,276792,001,2023-07-24_21h10.30.728,arm3_q,2022.2.5,Win32,60.0024001,5fd85707af5bd719a5e20419,64aeaab685a29f4ca249be02,64becc53613b1cb6041b60ca,right,1,0.5643,0.35,9,0.023099595,2.0001,38,0,38,0,1,,,,,,,,,,
,,276792,001,2023-07-24_21h10.30.728,arm3_q,2022.2.5,Win32,60.0024001,5fd85707af5bd719a5e20419,64aeaab685a29f4ca249be02,64becc53613b1cb6041b60ca,right,1,0.5643,0.35,9,0.017965496,0.2668,39,0,39,0,1,,,,,,,,,,
,,276792,001,2023-07-24_21h10.30.728,arm3_q,2022.2.5,Win32,60.0024001,5fd85707af5bd719a5e20419,64aeaab685a29f4ca249be02,64becc53613b1cb6041b60ca,right,1,0.5643,0.35,9,0.024192853,0.1339,40,0,40,0,1,,,,,,,,,,
,,276792,001,2023-07-24_21h10.30.728,arm3_q,2022.2.5,Win32,60.0024001,5fd85707af5bd719a5e20419,64aeaab685a29f4ca249be02,64becc53613b1cb6041b60ca,up,1,0.5643,0.35,9,0,0.5669,41,0,41,0,1,,,,,,,,,,
,,276792,001,2023-07-24_21h10.30.728,arm3_q,2022.2.5,Win32,60.0024001,5fd85707af5bd719a5e20419,64aeaab685a29f4ca249be02,64becc53613b1cb6041b60ca,right,1,0.5643,0.35,9,0.001827929,3.2502,42,0,42,0,1,,,,,,,,,,
,,276792,001,2023-07-24_21h10.30.728,arm3_q,2022.2.5,Win32,60.0024001,5fd85707af5bd719a5e20419,64aeaab685a29f4ca249be02,64becc53613b1cb6041b60ca,right,1,0.5643,0.35,9,0.023858699,0.5636,43,0,43,0,1,,,,,,,,,,
,,276792,001,2023-07-24_21h10.30.728,arm3_q,2022.2.5,Win32,60.0024001,5fd85707af5bd719a5e20419,64aeaab685a29f4ca249be02,64becc53613b1cb6041b60ca,right,1,0.5643,0.35,9,0.077260719,0.1337,44,0,44,0,1,,,,,,,,,,
,,276792,001,2023-07-24_21h10.30.728,arm3_q,2022.2.5,Win32,60.0024001,5fd85707af5bd719a5e20419,64aeaab685a29f4ca249be02,64becc53613b1cb6041b60ca,up,1,0.5643,0.35,9,0,0.517,45,0,45,0,1,,,,,,,,,,
,,276792,001,2023-07-24_21h10.30.728,arm3_q,2022.2.5,Win32,60.0024001,5fd85707af5bd719a5e20419,64aeaab685a29f4ca249be02,64becc53613b1cb6041b60ca,right,1,0.5643,0.35,9,-0.006115304,5.2672,46,0,46,0,1,,,,,,,,,,
,,276792,001,2023-07-24_21h10.30.728,arm3_q,2022.2.5,Win32,60.0024001,5fd85707af5bd719a5e20419,64aeaab685a29f4ca249be02,64becc53613b1cb6041b60ca,right,1,0.5643,0.35,9,-0.012732763,0.2807,47,0,47,0,1,,,,,,,,,,
,,276792,001,2023-07-24_21h10.30.728,arm3_q,2022.2.5,Win32,60.0024001,5fd85707af5bd719a5e20419,64aeaab685a29f4ca249be02,64becc53613b1cb6041b60ca,right,1,0.5643,0.35,9,-0.030839127,0.1684,48,0,48,0,1,,,,,,,,,,
,,276792,001,2023-07-24_21h10.30.728,arm3_q,2022.2.5,Win32,60.0024001,5fd85707af5bd719a5e20419,64aeaab685a29f4ca249be02,64becc53613b1cb6041b60ca,down,1,0.5643,0.35,9,-0.030839127,0.5505,49,0,49,0,1,,,,,,,,,,
space,2.9502,276792,001,2023-07-24_21h10.30.728,arm3_q,2022.2.5,Win32,60.0024001,5fd85707af5bd719a5e20419,64aeaab685a29f4ca249be02,64becc53613b1cb6041b60ca,,,,,,,,,,,,,,,,,,,,,,
space,4.4116,276792,001,2023-07-24_21h10.30.728,arm3_q,2022.2.5,Win32,60.0024001,5fd85707af5bd719a5e20419,64aeaab685a29f4ca249be02,64becc53613b1cb6041b60ca,right,1,0.1786,0.35,0,0.031130277,2.2078,,,,,,0,0,0,0,1,,,,,
,,276792,001,2023-07-24_21h10.30.728,arm3_q,2022.2.5,Win32,60.0024001,5fd85707af5bd719a5e20419,64aeaab685a29f4ca249be02,64becc53613b1cb6041b60ca,right,1,0.1786,0.35,0,0.060861951,0.3502,,,,,,1,0,1,0,1,,,,,
,,276792,001,2023-07-24_21h10.30.728,arm3_q,2022.2.5,Win32,60.0024001,5fd85707af5bd719a5e20419,64aeaab685a29f4ca249be02,64becc53613b1cb6041b60ca,down,1,0.1786,0.35,0,0,0.5671,,,,,,2,0,2,0,1,,,,,
,,276792,001,2023-07-24_21h10.30.728,arm3_q,2022.2.5,Win32,60.0024001,5fd85707af5bd719a5e20419,64aeaab685a29f4ca249be02,64becc53613b1cb6041b60ca,right,1,0.1786,0.35,0,0.00667321,1.8829,,,,,,3,0,3,0,1,,,,,
,,276792,001,2023-07-24_21h10.30.728,arm3_q,2022.2.5,Win32,60.0024001,5fd85707af5bd719a5e20419,64aeaab685a29f4ca249be02,64becc53613b1cb6041b60ca,right,1,0.1786,0.35,0,0.001821135,0.3005,,,,,,4,0,4,0,1,,,,,
,,276792,001,2023-07-24_21h10.30.728,arm3_q,2022.2.5,Win32,60.0024001,5fd85707af5bd719a5e20419,64aeaab685a29f4ca249be02,64becc53613b1cb6041b60ca,up,-1,0.1786,0.35,1,0,0.6336,,,,,,5,0,5,0,1,,,,,
,,276792,001,2023-07-24_21h10.30.728,arm3_q,2022.2.5,Win32,60.0024001,5fd85707af5bd719a5e20419,64aeaab685a29f4ca249be02,64becc53613b1cb6041b60ca,right,-1,0.1786,0.35,1,-0.008956757,1.0661,,,,,,6,0,6,0,1,,,,,
,,276792,001,2023-07-24_21h10.30.728,arm3_q,2022.2.5,Win32,60.0024001,5fd85707af5bd719a5e20419,64aeaab685a29f4ca249be02,64becc53613b1cb6041b60ca,right,-1,0.1786,0.35,1,0.007236217,0.1502,,,,,,7,0,7,0,1,,,,,
,,276792,001,2023-07-24_21h10.30.728,arm3_q,2022.2.5,Win32,60.0024001,5fd85707af5bd719a5e20419,64aeaab685a29f4ca249be02,64becc53613b1cb6041b60ca,up,-1,0.1786,0.35,1,0,0.5512,,,,,,8,0,8,0,1,,,,,
,,276792,001,2023-07-24_21h10.30.728,arm3_q,2022.2.5,Win32,60.0024001,5fd85707af5bd719a5e20419,64aeaab685a29f4ca249be02,64becc53613b1cb6041b60ca,up,-1,0.1786,0.35,1,0,5.8164,,,,,,9,0,9,0,1,,,,,
,,276792,001,2023-07-24_21h10.30.728,arm3_q,2022.2.5,Win32,60.0024001,5fd85707af5bd719a5e20419,64aeaab685a29f4ca249be02,64becc53613b1cb6041b60ca,right,-1,0.1786,0.35,1,0.007691851,1.1966,,,,,,10,0,10,0,1,,,,,
,,276792,001,2023-07-24_21h10.30.728,arm3_q,2022.2.5,Win32,60.0024001,5fd85707af5bd719a5e20419,64aeaab685a29f4ca249be02,64becc53613b1cb6041b60ca,right,-1,0.1786,0.35,1,0.004489616,0.3004,,,,,,11,0,11,0,1,,,,,
,,276792,001,2023-07-24_21h10.30.728,arm3_q,2022.2.5,Win32,60.0024001,5fd85707af5bd719a5e20419,64aeaab685a29f4ca249be02,64becc53613b1cb6041b60ca,right,-1,0.1786,0.35,1,-0.012977766,0.1166,,,,,,12,0,12,0,1,,,,,
,,276792,001,2023-07-24_21h10.30.728,arm3_q,2022.2.5,Win32,60.0024001,5fd85707af5bd719a5e20419,64aeaab685a29f4ca249be02,64becc53613b1cb6041b60ca,down,-1,0.1786,0.35,2,0,0.6177,,,,,,13,0,13,0,1,,,,,
,,276792,001,2023-07-24_21h10.30.728,arm3_q,2022.2.5,Win32,60.0024001,5fd85707af5bd719a5e20419,64aeaab685a29f4ca249be02,64becc53613b1cb6041b60ca,right,-1,0.1786,0.35,2,0.017851814,1.1344,,,,,,14,0,14,0,1,,,,,
,,276792,001,2023-07-24_21h10.30.728,arm3_q,2022.2.5,Win32,60.0024001,5fd85707af5bd719a5e20419,64aeaab685a29f4ca249be02,64becc53613b1cb6041b60ca,right,-1,0.1786,0.35,2,-0.000487481,0.151,,,,,,15,0,15,0,1,,,,,
,,276792,001,2023-07-24_21h10.30.728,arm3_q,2022.2.5,Win32,60.0024001,5fd85707af5bd719a5e20419,64aeaab685a29f4ca249be02,64becc53613b1cb6041b60ca,right,-1,0.1786,0.35,2,0.002236217,0.1339,,,,,,16,0,16,0,1,,,,,
,,276792,001,2023-07-24_21h10.30.728,arm3_q,2022.2.5,Win32,60.0024001,5fd85707af5bd719a5e20419,64aeaab685a29f4ca249be02,64becc53613b1cb6041b60ca,right,-1,0.1786,0.35,2,-0.012832069,0.1507,,,,,,17,0,17,0,1,,,,,
,,276792,001,2023-07-24_21h10.30.728,arm3_q,2022.2.5,Win32,60.0024001,5fd85707af5bd719a5e20419,64aeaab685a29f4ca249be02,64becc53613b1cb6041b60ca,right,-1,0.1786,0.35,2,-0.022086965,0.1508,,,,,,18,0,18,0,1,,,,,
,,276792,001,2023-07-24_21h10.30.728,arm3_q,2022.2.5,Win32,60.0024001,5fd85707af5bd719a5e20419,64aeaab685a29f4ca249be02,64becc53613b1cb6041b60ca,right,-1,0.1786,0.35,2,-0.045121711,0.1345,,,,,,19,0,19,0,1,,,,,
,,276792,001,2023-07-24_21h10.30.728,arm3_q,2022.2.5,Win32,60.0024001,5fd85707af5bd719a5e20419,64aeaab685a29f4ca249be02,64becc53613b1cb6041b60ca,right,-1,0.1786,0.35,2,-0.048173688,0.151,,,,,,20,0,20,0,1,,,,,
,,276792,001,2023-07-24_21h10.30.728,arm3_q,2022.2.5,Win32,60.0024001,5fd85707af5bd719a5e20419,64aeaab685a29f4ca249be02,64becc53613b1cb6041b60ca,down,1,0.1786,0.35,2,0,0.6843,,,,,,21,0,21,0,1,,,,,
,,276792,001,2023-07-24_21h10.30.728,arm3_q,2022.2.5,Win32,60.0024001,5fd85707af5bd719a5e20419,64aeaab685a29f4ca249be02,64becc53613b1cb6041b60ca,right,1,0.1786,0.35,2,0.022180433,3.5176,,,,,,22,0,22,0,1,,,,,
,,276792,001,2023-07-24_21h10.30.728,arm3_q,2022.2.5,Win32,60.0024001,5fd85707af5bd719a5e20419,64aeaab685a29f4ca249be02,64becc53613b1cb6041b60ca,right,1,0.1786,0.35,2,0.039682275,0.3009,,,,,,23,0,23,0,1,,,,,
,,276792,001,2023-07-24_21h10.30.728,arm3_q,2022.2.5,Win32,60.0024001,5fd85707af5bd719a5e20419,64aeaab685a29f4ca249be02,64becc53613b1cb6041b60ca,right,1,0.1786,0.35,2,0.02808371,1.0508,,,,,,24,0,24,0,1,,,,,
,,276792,001,2023-07-24_21h10.30.728,arm3_q,2022.2.5,Win32,60.0024001,5fd85707af5bd719a5e20419,64aeaab685a29f4ca249be02,64becc53613b1cb6041b60ca,right,1,0.1786,0.35,2,0.04441143,0.334,,,,,,25,0,25,0,1,,,,,
,,276792,001,2023-07-24_21h10.30.728,arm3_q,2022.2.5,Win32,60.0024001,5fd85707af5bd719a5e20419,64aeaab685a29f4ca249be02,64becc53613b1cb6041b60ca,up,-1,0.1786,0.35,2,0,0.4008,,,,,,26,0,26,0,1,,,,,
,,276792,001,2023-07-24_21h10.30.728,arm3_q,2022.2.5,Win32,60.0024001,5fd85707af5bd719a5e20419,64aeaab685a29f4ca249be02,64becc53613b1cb6041b60ca,right,-1,0.1786,0.35,2,-0.001032477,3.3344,,,,,,27,0,27,0,1,,,,,
,,276792,001,2023-07-24_21h10.30.728,arm3_q,2022.2.5,Win32,60.0024001,5fd85707af5bd719a5e20419,64aeaab685a29f4ca249be02,64becc53613b1cb6041b60ca,right,-1,0.1786,0.35,2,-0.002827982,0.3486,,,,,,28,0,28,0,1,,,,,
,,276792,001,2023-07-24_21h10.30.728,arm3_q,2022.2.5,Win32,60.0024001,5fd85707af5bd719a5e20419,64aeaab685a29f4ca249be02,64becc53613b1cb6041b60ca,right,-1,0.1786,0.35,2,-0.012155926,0.134,,,,,,29,0,29,0,1,,,,,
,,276792,001,2023-07-24_21h10.30.728,arm3_q,2022.2.5,Win32,60.0024001,5fd85707af5bd719a5e20419,64aeaab685a29f4ca249be02,64becc53613b1cb6041b60ca,right,-1,0.1786,0.35,2,-0.020118793,0.1342,,,,,,30,0,30,0,1,,,,,
,,276792,001,2023-07-24_21h10.30.728,arm3_q,2022.2.5,Win32,60.0024001,5fd85707af5bd719a5e20419,64aeaab685a29f4ca249be02,64becc53613b1cb6041b60ca,down,1,0.1786,0.35,2,0,0.4509,,,,,,31,0,31,0,1,,,,,
,,276792,001,2023-07-24_21h10.30.728,arm3_q,2022.2.5,Win32,60.0024001,5fd85707af5bd719a5e20419,64aeaab685a29f4ca249be02,64becc53613b1cb6041b60ca,right,1,0.1786,0.35,2,0.009658381,5.534,,,,,,32,0,32,0,1,,,,,
,,276792,001,2023-07-24_21h10.30.728,arm3_q,2022.2.5,Win32,60.0024001,5fd85707af5bd719a5e20419,64aeaab685a29f4ca249be02,64becc53613b1cb6041b60ca,right,1,0.1786,0.35,2,-0.010094499,0.1992,,,,,,33,0,33,0,1,,,,,
,,276792,001,2023-07-24_21h10.30.728,arm3_q,2022.2.5,Win32,60.0024001,5fd85707af5bd719a5e20419,64aeaab685a29f4ca249be02,64becc53613b1cb6041b60ca,right,1,0.1786,0.35,2,-0.014947866,0.2511,,,,,,34,0,34,0,1,,,,,
,,276792,001,2023-07-24_21h10.30.728,arm3_q,2022.2.5,Win32,60.0024001,5fd85707af5bd719a5e20419,64aeaab685a29f4ca249be02,64becc53613b1cb6041b60ca,right,1,0.1786,0.35,2,-0.022770733,0.1844,,,,,,35,0,35,0,1,,,,,
,,276792,001,2023-07-24_21h10.30.728,arm3_q,2022.2.5,Win32,60.0024001,5fd85707af5bd719a5e20419,64aeaab685a29f4ca249be02,64becc53613b1cb6041b60ca,down,1,0.1786,0.35,2,0,0.4007,,,,,,36,0,36,0,1,,,,,
,,276792,001,2023-07-24_21h10.30.728,arm3_q,2022.2.5,Win32,60.0024001,5fd85707af5bd719a5e20419,64aeaab685a29f4ca249be02,64becc53613b1cb6041b60ca,right,1,0.1786,0.35,2,-0.00017083,3.1175,,,,,,37,0,37,0,1,,,,,
,,276792,001,2023-07-24_21h10.30.728,arm3_q,2022.2.5,Win32,60.0024001,5fd85707af5bd719a5e20419,64aeaab685a29f4ca249be02,64becc53613b1cb6041b60ca,right,1,0.1786,0.35,2,0.001178957,0.1507,,,,,,38,0,38,0,1,,,,,
,,276792,001,2023-07-24_21h10.30.728,arm3_q,2022.2.5,Win32,60.0024001,5fd85707af5bd719a5e20419,64aeaab685a29f4ca249be02,64becc53613b1cb6041b60ca,right,1,0.1786,0.35,2,0.027758724,0.1342,,,,,,39,0,39,0,1,,,,,
,,276792,001,2023-07-24_21h10.30.728,arm3_q,2022.2.5,Win32,60.0024001,5fd85707af5bd719a5e20419,64aeaab685a29f4ca249be02,64becc53613b1cb6041b60ca,up,1,0.1786,0.35,3,0,0.484,,,,,,40,0,40,0,1,,,,,
,,276792,001,2023-07-24_21h10.30.728,arm3_q,2022.2.5,Win32,60.0024001,5fd85707af5bd719a5e20419,64aeaab685a29f4ca249be02,64becc53613b1cb6041b60ca,right,1,0.1786,0.35,3,0.043563454,1.784,,,,,,41,0,41,0,1,,,,,
,,276792,001,2023-07-24_21h10.30.728,arm3_q,2022.2.5,Win32,60.0024001,5fd85707af5bd719a5e20419,64aeaab685a29f4ca249be02,64becc53613b1cb6041b60ca,right,1,0.1786,0.35,3,0.043732514,0.1339,,,,,,42,0,42,0,1,,,,,
,,276792,001,2023-07-24_21h10.30.728,arm3_q,2022.2.5,Win32,60.0024001,5fd85707af5bd719a5e20419,64aeaab685a29f4ca249be02,64becc53613b1cb6041b60ca,up,-1,0.1786,0.35,3,0,0.6174,,,,,,43,0,43,0,1,,,,,
,,276792,001,2023-07-24_21h10.30.728,arm3_q,2022.2.5,Win32,60.0024001,5fd85707af5bd719a5e20419,64aeaab685a29f4ca249be02,64becc53613b1cb6041b60ca,right,-1,0.1786,0.35,3,-0.007664589,2.1676,,,,,,44,0,44,0,1,,,,,
,,276792,001,2023-07-24_21h10.30.728,arm3_q,2022.2.5,Win32,60.0024001,5fd85707af5bd719a5e20419,64aeaab685a29f4ca249be02,64becc53613b1cb6041b60ca,right,-1,0.1786,0.35,3,-0.012805597,0.1342,,,,,,45,0,45,0,1,,,,,
,,276792,001,2023-07-24_21h10.30.728,arm3_q,2022.2.5,Win32,60.0024001,5fd85707af5bd719a5e20419,64aeaab685a29f4ca249be02,64becc53613b1cb6041b60ca,right,-1,0.1786,0.35,3,-0.016915664,0.301,,,,,,46,0,46,0,1,,,,,
,,276792,001,2023-07-24_21h10.30.728,arm3_q,2022.2.5,Win32,60.0024001,5fd85707af5bd719a5e20419,64aeaab685a29f4ca249be02,64becc53613b1cb6041b60ca,right,-1,0.1786,0.35,3,-0.016737434,0.1342,,,,,,47,0,47,0,1,,,,,
,,276792,001,2023-07-24_21h10.30.728,arm3_q,2022.2.5,Win32,60.0024001,5fd85707af5bd719a5e20419,64aeaab685a29f4ca249be02,64becc53613b1cb6041b60ca,right,-1,0.1786,0.35,3,0.008532427,0.3508,,,,,,48,0,48,0,1,,,,,
,,276792,001,2023-07-24_21h10.30.728,arm3_q,2022.2.5,Win32,60.0024001,5fd85707af5bd719a5e20419,64aeaab685a29f4ca249be02,64becc53613b1cb6041b60ca,right,-1,0.1786,0.35,3,0.014915029,0.2008,,,,,,49,0,49,0,1,,,,,
,,276792,001,2023-07-24_21h10.30.728,arm3_q,2022.2.5,Win32,60.0024001,5fd85707af5bd719a5e20419,64aeaab685a29f4ca249be02,64becc53613b1cb6041b60ca,right,-1,0.1786,0.35,3,0.006712862,0.151,,,,,,50,0,50,0,1,,,,,
,,276792,001,2023-07-24_21h10.30.728,arm3_q,2022.2.5,Win32,60.0024001,5fd85707af5bd719a5e20419,64aeaab685a29f4ca249be02,64becc53613b1cb6041b60ca,right,-1,0.1786,0.35,3,-0.003853053,0.8179,,,,,,51,0,51,0,1,,,,,
,,276792,001,2023-07-24_21h10.30.728,arm3_q,2022.2.5,Win32,60.0024001,5fd85707af5bd719a5e20419,64aeaab685a29f4ca249be02,64becc53613b1cb6041b60ca,right,-1,0.1786,0.35,3,0.000739529,0.1509,,,,,,52,0,52,0,1,,,,,
,,276792,001,2023-07-24_21h10.30.728,arm3_q,2022.2.5,Win32,60.0024001,5fd85707af5bd719a5e20419,64aeaab685a29f4ca249be02,64becc53613b1cb6041b60ca,right,-1,0.1786,0.35,3,-0.026098101,0.401,,,,,,53,0,53,0,1,,,,,
,,276792,001,2023-07-24_21h10.30.728,arm3_q,2022.2.5,Win32,60.0024001,5fd85707af5bd719a5e20419,64aeaab685a29f4ca249be02,64becc53613b1cb6041b60ca,right,-1,0.1786,0.35,3,-0.020541272,0.2676,,,,,,54,0,54,0,1,,,,,
,,276792,001,2023-07-24_21h10.30.728,arm3_q,2022.2.5,Win32,60.0024001,5fd85707af5bd719a5e20419,64aeaab685a29f4ca249be02,64becc53613b1cb6041b60ca,right,-1,0.1786,0.35,3,-0.016089279,0.1342,,,,,,55,0,55,0,1,,,,,
,,276792,001,2023-07-24_21h10.30.728,arm3_q,2022.2.5,Win32,60.0024001,5fd85707af5bd719a5e20419,64aeaab685a29f4ca249be02,64becc53613b1cb6041b60ca,up,-1,0.1786,0.35,3,0,4.4675,,,,,,56,0,56,0,1,,,,,
,,276792,001,2023-07-24_21h10.30.728,arm3_q,2022.2.5,Win32,60.0024001,5fd85707af5bd719a5e20419,64aeaab685a29f4ca249be02,64becc53613b1cb6041b60ca,right,-1,0.1786,0.35,3,-0.009966246,1.4147,,,,,,57,0,57,0,1,,,,,
,,276792,001,2023-07-24_21h10.30.728,arm3_q,2022.2.5,Win32,60.0024001,5fd85707af5bd719a5e20419,64aeaab685a29f4ca249be02,64becc53613b1cb6041b60ca,right,-1,0.1786,0.35,3,-0.036738056,0.1504,,,,,,58,0,58,0,1,,,,,
,,276792,001,2023-07-24_21h10.30.728,arm3_q,2022.2.5,Win32,60.0024001,5fd85707af5bd719a5e20419,64aeaab685a29f4ca249be02,64becc53613b1cb6041b60ca,right,-1,0.1786,0.35,3,-0.046634668,0.1338,,,,,,59,0,59,0,1,,,,,
,,276792,001,2023-07-24_21h10.30.728,arm3_q,2022.2.5,Win32,60.0024001,5fd85707af5bd719a5e20419,64aeaab685a29f4ca249be02,64becc53613b1cb6041b60ca,down,-1,0.1786,0.35,4,0,0.3173,,,,,,60,0,60,0,1,,,,,
,,276792,001,2023-07-24_21h10.30.728,arm3_q,2022.2.5,Win32,60.0024001,5fd85707af5bd719a5e20419,64aeaab685a29f4ca249be02,64becc53613b1cb6041b60ca,right,-1,0.1786,0.35,4,-0.048679191,1.2174,,,,,,61,0,61,0,1,,,,,
,,276792,001,2023-07-24_21h10.30.728,arm3_q,2022.2.5,Win32,60.0024001,5fd85707af5bd719a5e20419,64aeaab685a29f4ca249be02,64becc53613b1cb6041b60ca,right,-1,0.1786,0.35,4,-0.043209254,0.1172,,,,,,62,0,62,0,1,,,,,
,,276792,001,2023-07-24_21h10.30.728,arm3_q,2022.2.5,Win32,60.0024001,5fd85707af5bd719a5e20419,64aeaab685a29f4ca249be02,64becc53613b1cb6041b60ca,down,1,0.1786,0.35,4,0,0.9171,,,,,,63,0,63,0,1,,,,,
,,276792,001,2023-07-24_21h10.30.728,arm3_q,2022.2.5,Win32,60.0024001,5fd85707af5bd719a5e20419,64aeaab685a29f4ca249be02,64becc53613b1cb6041b60ca,right,1,0.1786,0.35,4,-0.014458679,1.3671,,,,,,64,0,64,0,1,,,,,
,,276792,001,2023-07-24_21h10.30.728,arm3_q,2022.2.5,Win32,60.0024001,5fd85707af5bd719a5e20419,64aeaab685a29f4ca249be02,64becc53613b1cb6041b60ca,right,1,0.1786,0.35,4,0.005159823,0.1336,,,,,,65,0,65,0,1,,,,,
,,276792,001,2023-07-24_21h10.30.728,arm3_q,2022.2.5,Win32,60.0024001,5fd85707af5bd719a5e20419,64aeaab685a29f4ca249be02,64becc53613b1cb6041b60ca,right,1,0.1786,0.35,4,0.013571597,0.4173,,,,,,66,0,66,0,1,,,,,
,,276792,001,2023-07-24_21h10.30.728,arm3_q,2022.2.5,Win32,60.0024001,5fd85707af5bd719a5e20419,64aeaab685a29f4ca249be02,64becc53613b1cb6041b60ca,right,1,0.1786,0.35,4,-0.007305872,0.3839,,,,,,67,0,67,0,1,,,,,
,,276792,001,2023-07-24_21h10.30.728,arm3_q,2022.2.5,Win32,60.0024001,5fd85707af5bd719a5e20419,64aeaab685a29f4ca249be02,64becc53613b1cb6041b60ca,right,1,0.1786,0.35,4,0.005038569,0.1184,,,,,,68,0,68,0,1,,,,,
,,276792,001,2023-07-24_21h10.30.728,arm3_q,2022.2.5,Win32,60.0024001,5fd85707af5bd719a5e20419,64aeaab685a29f4ca249be02,64becc53613b1cb6041b60ca,right,1,0.1786,0.35,4,-0.007679051,0.3839,,,,,,69,0,69,0,1,,,,,
,,276792,001,2023-07-24_21h10.30.728,arm3_q,2022.2.5,Win32,60.0024001,5fd85707af5bd719a5e20419,64aeaab685a29f4ca249be02,64becc53613b1cb6041b60ca,right,1,0.1786,0.35,4,-0.005083493,0.1172,,,,,,70,0,70,0,1,,,,,
,,276792,001,2023-07-24_21h10.30.728,arm3_q,2022.2.5,Win32,60.0024001,5fd85707af5bd719a5e20419,64aeaab685a29f4ca249be02,64becc53613b1cb6041b60ca,right,1,0.1786,0.35,4,0.011857784,0.1515,,,,,,71,0,71,0,1,,,,,
,,276792,001,2023-07-24_21h10.30.728,arm3_q,2022.2.5,Win32,60.0024001,5fd85707af5bd719a5e20419,64aeaab685a29f4ca249be02,64becc53613b1cb6041b60ca,right,1,0.1786,0.35,4,0.044130252,0.1533,,,,,,72,0,72,0,1,,,,,
,,276792,001,2023-07-24_21h10.30.728,arm3_q,2022.2.5,Win32,60.0024001,5fd85707af5bd719a5e20419,64aeaab685a29f4ca249be02,64becc53613b1cb6041b60ca,right,1,0.1786,0.35,4,0.063610425,0.1668,,,,,,73,0,73,0,1,,,,,
,,276792,001,2023-07-24_21h10.30.728,arm3_q,2022.2.5,Win32,60.0024001,5fd85707af5bd719a5e20419,64aeaab685a29f4ca249be02,64becc53613b1cb6041b60ca,up,1,0.1786,0.35,4,0,0.5006,,,,,,74,0,74,0,1,,,,,
,,276792,001,2023-07-24_21h10.30.728,arm3_q,2022.2.5,Win32,60.0024001,5fd85707af5bd719a5e20419,64aeaab685a29f4ca249be02,64becc53613b1cb6041b60ca,up,1,0.1786,0.35,4,0,8.2671,,,,,,75,0,75,0,1,,,,,
,,276792,001,2023-07-24_21h10.30.728,arm3_q,2022.2.5,Win32,60.0024001,5fd85707af5bd719a5e20419,64aeaab685a29f4ca249be02,64becc53613b1cb6041b60ca,up,1,0.1786,0.35,5,0,1.6119,,,,,,76,0,76,0,1,,,,,
,,276792,001,2023-07-24_21h10.30.728,arm3_q,2022.2.5,Win32,60.0024001,5fd85707af5bd719a5e20419,64aeaab685a29f4ca249be02,64becc53613b1cb6041b60ca,right,1,0.1786,0.35,5,0.016425265,1.951,,,,,,77,0,77,0,1,,,,,
,,276792,001,2023-07-24_21h10.30.728,arm3_q,2022.2.5,Win32,60.0024001,5fd85707af5bd719a5e20419,64aeaab685a29f4ca249be02,64becc53613b1cb6041b60ca,right,1,0.1786,0.35,5,-0.001645901,0.1169,,,,,,78,0,78,0,1,,,,,
,,276792,001,2023-07-24_21h10.30.728,arm3_q,2022.2.5,Win32,60.0024001,5fd85707af5bd719a5e20419,64aeaab685a29f4ca249be02,64becc53613b1cb6041b60ca,right,1,0.1786,0.35,5,-0.011070085,0.4336,,,,,,79,0,79,0,1,,,,,
,,276792,001,2023-07-24_21h10.30.728,arm3_q,2022.2.5,Win32,60.0024001,5fd85707af5bd719a5e20419,64aeaab685a29f4ca249be02,64becc53613b1cb6041b60ca,right,1,0.1786,0.35,5,-0.008192994,0.3338,,,,,,80,0,80,0,1,,,,,
,,276792,001,2023-07-24_21h10.30.728,arm3_q,2022.2.5,Win32,60.0024001,5fd85707af5bd719a5e20419,64aeaab685a29f4ca249be02,64becc53613b1cb6041b60ca,down,1,0.1786,0.35,4,0,0.5337,,,,,,81,0,81,0,1,,,,,
,,276792,001,2023-07-24_21h10.30.728,arm3_q,2022.2.5,Win32,60.0024001,5fd85707af5bd719a5e20419,64aeaab685a29f4ca249be02,64becc53613b1cb6041b60ca,right,1,0.1786,0.35,4,-0.001547184,2.1832,,,,,,82,0,82,0,1,,,,,
,,276792,001,2023-07-24_21h10.30.728,arm3_q,2022.2.5,Win32,60.0024001,5fd85707af5bd719a5e20419,64aeaab685a29f4ca249be02,64becc53613b1cb6041b60ca,right,1,0.1786,0.35,4,0.026578276,0.1347,,,,,,83,0,83,0,1,,,,,
,,276792,001,2023-07-24_21h10.30.728,arm3_q,2022.2.5,Win32,60.0024001,5fd85707af5bd719a5e20419,64aeaab685a29f4ca249be02,64becc53613b1cb6041b60ca,up,1,0.1786,0.35,4,0,0.5166,,,,,,84,0,84,0,1,,,,,
,,276792,001,2023-07-24_21h10.30.728,arm3_q,2022.2.5,Win32,60.0024001,5fd85707af5bd719a5e20419,64aeaab685a29f4ca249be02,64becc53613b1cb6041b60ca,right,1,0.1786,0.35,4,0.021620599,3.584,,,,,,85,0,85,0,1,,,,,
,,276792,001,2023-07-24_21h10.30.728,arm3_q,2022.2.5,Win32,60.0024001,5fd85707af5bd719a5e20419,64aeaab685a29f4ca249be02,64becc53613b1cb6041b60ca,right,1,0.1786,0.35,4,-0.004597137,0.3635,,,,,,86,0,86,0,1,,,,,
,,276792,001,2023-07-24_21h10.30.728,arm3_q,2022.2.5,Win32,60.0024001,5fd85707af5bd719a5e20419,64aeaab685a29f4ca249be02,64becc53613b1cb6041b60ca,right,1,0.1786,0.35,4,0.011595658,0.1337,,,,,,87,0,87,0,1,,,,,
,,276792,001,2023-07-24_21h10.30.728,arm3_q,2022.2.5,Win32,60.0024001,5fd85707af5bd719a5e20419,64aeaab685a29f4ca249be02,64becc53613b1cb6041b60ca,right,1,0.1786,0.35,4,0.04802148,0.367,,,,,,88,0,88,0,1,,,,,
,,276792,001,2023-07-24_21h10.30.728,arm3_q,2022.2.5,Win32,60.0024001,5fd85707af5bd719a5e20419,64aeaab685a29f4ca249be02,64becc53613b1cb6041b60ca,up,1,0.1786,0.35,4,0,0.4334,,,,,,89,0,89,0,1,,,,,
,,276792,001,2023-07-24_21h10.30.728,arm3_q,2022.2.5,Win32,60.0024001,5fd85707af5bd719a5e20419,64aeaab685a29f4ca249be02,64becc53613b1cb6041b60ca,up,-1,0.1786,0.35,4,0,4.3336,,,,,,90,0,90,0,1,,,,,
,,276792,001,2023-07-24_21h10.30.728,arm3_q,2022.2.5,Win32,60.0024001,5fd85707af5bd719a5e20419,64aeaab685a29f4ca249be02,64becc53613b1cb6041b60ca,right,-1,0.1786,0.35,4,0.005140822,0.9962,,,,,,91,0,91,0,1,,,,,
,,276792,001,2023-07-24_21h10.30.728,arm3_q,2022.2.5,Win32,60.0024001,5fd85707af5bd719a5e20419,64aeaab685a29f4ca249be02,64becc53613b1cb6041b60ca,right,-1,0.1786,0.35,4,0.00543056,0.3003,,,,,,92,0,92,0,1,,,,,
,,276792,001,2023-07-24_21h10.30.728,arm3_q,2022.2.5,Win32,60.0024001,5fd85707af5bd719a5e20419,64aeaab685a29f4ca249be02,64becc53613b1cb6041b60ca,right,-1,0.1786,0.35,4,-0.021594026,0.1182,,,,,,93,0,93,0,1,,,,,
,,276792,001,2023-07-24_21h10.30.728,arm3_q,2022.2.5,Win32,60.0024001,5fd85707af5bd719a5e20419,64aeaab685a29f4ca249be02,64becc53613b1cb6041b60ca,right,-1,0.1786,0.35,4,-0.055862044,1.3674,,,,,,94,0,94,0,1,,,,,
,,276792,001,2023-07-24_21h10.30.728,arm3_q,2022.2.5,Win32,60.0024001,5fd85707af5bd719a5e20419,64aeaab685a29f4ca249be02,64becc53613b1cb6041b60ca,right,-1,0.1786,0.35,4,-0.080596399,0.484,,,,,,95,0,95,0,1,,,,,
,,276792,001,2023-07-24_21h10.30.728,arm3_q,2022.2.5,Win32,60.0024001,5fd85707af5bd719a5e20419,64aeaab685a29f4ca249be02,64becc53613b1cb6041b60ca,right,-1,0.1786,0.35,4,-0.073593607,0.1337,,,,,,96,0,96,0,1,,,,,
,,276792,001,2023-07-24_21h10.30.728,arm3_q,2022.2.5,Win32,60.0024001,5fd85707af5bd719a5e20419,64aeaab685a29f4ca249be02,64becc53613b1cb6041b60ca,down,-1,0.1786,0.35,4,0,0.4838,,,,,,97,0,97,0,1,,,,,
,,276792,001,2023-07-24_21h10.30.728,arm3_q,2022.2.5,Win32,60.0024001,5fd85707af5bd719a5e20419,64aeaab685a29f4ca249be02,64becc53613b1cb6041b60ca,right,-1,0.1786,0.35,4,-0.023114204,4.0336,,,,,,98,0,98,0,1,,,,,
,,276792,001,2023-07-24_21h10.30.728,arm3_q,2022.2.5,Win32,60.0024001,5fd85707af5bd719a5e20419,64aeaab685a29f4ca249be02,64becc53613b1cb6041b60ca,right,-1,0.1786,0.35,4,0.012654089,1.0642,,,,,,99,0,99,0,1,,,,,
,,276792,001,2023-07-24_21h10.30.728,arm3_q,2022.2.5,Win32,60.0024001,5fd85707af5bd719a5e20419,64aeaab685a29f4ca249be02,64becc53613b1cb6041b60ca,right,-1,0.1786,0.35,4,-0.017237467,0.2358,,,,,,100,0,100,0,1,,,,,
,,276792,001,2023-07-24_21h10.30.728,arm3_q,2022.2.5,Win32,60.0024001,5fd85707af5bd719a5e20419,64aeaab685a29f4ca249be02,64becc53613b1cb6041b60ca,right,-1,0.1786,0.35,4,-0.047397973,0.134,,,,,,101,0,101,0,1,,,,,
,,276792,001,2023-07-24_21h10.30.728,arm3_q,2022.2.5,Win32,60.0024001,5fd85707af5bd719a5e20419,64aeaab685a29f4ca249be02,64becc53613b1cb6041b60ca,right,-1,0.1786,0.35,4,-0.04145872,0.3174,,,,,,102,0,102,0,1,,,,,
,,276792,001,2023-07-24_21h10.30.728,arm3_q,2022.2.5,Win32,60.0024001,5fd85707af5bd719a5e20419,64aeaab685a29f4ca249be02,64becc53613b1cb6041b60ca,right,-1,0.1786,0.35,4,-0.041924919,0.1337,,,,,,103,0,103,0,1,,,,,
,,276792,001,2023-07-24_21h10.30.728,arm3_q,2022.2.5,Win32,60.0024001,5fd85707af5bd719a5e20419,64aeaab685a29f4ca249be02,64becc53613b1cb6041b60ca,right,-1,0.1786,0.35,4,-0.067612042,0.167,,,,,,104,0,104,0,1,,,,,
,,276792,001,2023-07-24_21h10.30.728,arm3_q,2022.2.5,Win32,60.0024001,5fd85707af5bd719a5e20419,64aeaab685a29f4ca249be02,64becc53613b1cb6041b60ca,right,-1,0.1786,0.35,4,-0.076861237,0.1337,,,,,,105,0,105,0,1,,,,,
,,276792,001,2023-07-24_21h10.30.728,arm3_q,2022.2.5,Win32,60.0024001,5fd85707af5bd719a5e20419,64aeaab685a29f4ca249be02,64becc53613b1cb6041b60ca,right,-1,0.1786,0.35,4,-0.069384344,0.1349,,,,,,106,0,106,0,1,,,,,
,,276792,001,2023-07-24_21h10.30.728,arm3_q,2022.2.5,Win32,60.0024001,5fd85707af5bd719a5e20419,64aeaab685a29f4ca249be02,64becc53613b1cb6041b60ca,right,-1,0.1786,0.35,4,-0.059914864,0.1504,,,,,,107,0,107,0,1,,,,,
,,276792,001,2023-07-24_21h10.30.728,arm3_q,2022.2.5,Win32,60.0024001,5fd85707af5bd719a5e20419,64aeaab685a29f4ca249be02,64becc53613b1cb6041b60ca,right,-1,0.1786,0.35,4,-0.03779354,0.1505,,,,,,108,0,108,0,1,,,,,
,,276792,001,2023-07-24_21h10.30.728,arm3_q,2022.2.5,Win32,60.0024001,5fd85707af5bd719a5e20419,64aeaab685a29f4ca249be02,64becc53613b1cb6041b60ca,right,-1,0.1786,0.35,4,-0.062129584,0.3004,,,,,,109,0,109,0,1,,,,,
,,276792,001,2023-07-24_21h10.30.728,arm3_q,2022.2.5,Win32,60.0024001,5fd85707af5bd719a5e20419,64aeaab685a29f4ca249be02,64becc53613b1cb6041b60ca,down,1,0.1786,0.35,4,0,0.9664,,,,,,110,0,110,0,1,,,,,
,,276792,001,2023-07-24_21h10.30.728,arm3_q,2022.2.5,Win32,60.0024001,5fd85707af5bd719a5e20419,64aeaab685a29f4ca249be02,64becc53613b1cb6041b60ca,right,1,0.1786,0.35,4,0.000239964,2.0178,,,,,,111,0,111,0,1,,,,,
,,276792,001,2023-07-24_21h10.30.728,arm3_q,2022.2.5,Win32,60.0024001,5fd85707af5bd719a5e20419,64aeaab685a29f4ca249be02,64becc53613b1cb6041b60ca,right,1,0.1786,0.35,4,-0.004025179,0.1349,,,,,,112,0,112,0,1,,,,,
,,276792,001,2023-07-24_21h10.30.728,arm3_q,2022.2.5,Win32,60.0024001,5fd85707af5bd719a5e20419,64aeaab685a29f4ca249be02,64becc53613b1cb6041b60ca,right,1,0.1786,0.35,4,0.010068789,0.135,,,,,,113,0,113,0,1,,,,,
,,276792,001,2023-07-24_21h10.30.728,arm3_q,2022.2.5,Win32,60.0024001,5fd85707af5bd719a5e20419,64aeaab685a29f4ca249be02,64becc53613b1cb6041b60ca,right,1,0.1786,0.35,4,0.011669561,0.1672,,,,,,114,0,114,0,1,,,,,
,,276792,001,2023-07-24_21h10.30.728,arm3_q,2022.2.5,Win32,60.0024001,5fd85707af5bd719a5e20419,64aeaab685a29f4ca249be02,64becc53613b1cb6041b60ca,right,1,0.1786,0.35,4,0.044292068,0.1504,,,,,,115,0,115,0,1,,,,,
,,276792,001,2023-07-24_21h10.30.728,arm3_q,2022.2.5,Win32,60.0024001,5fd85707af5bd719a5e20419,64aeaab685a29f4ca249be02,64becc53613b1cb6041b60ca,right,1,0.1786,0.35,4,0.065762665,0.1501,,,,,,116,0,116,0,1,,,,,
,,276792,001,2023-07-24_21h10.30.728,arm3_q,2022.2.5,Win32,60.0024001,5fd85707af5bd719a5e20419,64aeaab685a29f4ca249be02,64becc53613b1cb6041b60ca,up,1,0.1786,0.35,4,0,0.4001,,,,,,117,0,117,0,1,,,,,
,,276792,001,2023-07-24_21h10.30.728,arm3_q,2022.2.5,Win32,60.0024001,5fd85707af5bd719a5e20419,64aeaab685a29f4ca249be02,64becc53613b1cb6041b60ca,right,1,0.1786,0.35,4,-0.024453988,1.1677,,,,,,118,0,118,0,1,,,,,
,,276792,001,2023-07-24_21h10.30.728,arm3_q,2022.2.5,Win32,60.0024001,5fd85707af5bd719a5e20419,64aeaab685a29f4ca249be02,64becc53613b1cb6041b60ca,right,1,0.1786,0.35,4,-0.020687574,0.1502,,,,,,119,0,119,0,1,,,,,
,,276792,001,2023-07-24_21h10.30.728,arm3_q,2022.2.5,Win32,60.0024001,5fd85707af5bd719a5e20419,64aeaab685a29f4ca249be02,64becc53613b1cb6041b60ca,right,1,0.1786,0.35,4,0.010702627,0.1999,,,,,,120,0,120,0,1,,,,,
,,276792,001,2023-07-24_21h10.30.728,arm3_q,2022.2.5,Win32,60.0024001,5fd85707af5bd719a5e20419,64aeaab685a29f4ca249be02,64becc53613b1cb6041b60ca,right,1,0.1786,0.35,4,0.028071033,0.3007,,,,,,121,0,121,0,1,,,,,
,,276792,001,2023-07-24_21h10.30.728,arm3_q,2022.2.5,Win32,60.0024001,5fd85707af5bd719a5e20419,64aeaab685a29f4ca249be02,64becc53613b1cb6041b60ca,right,1,0.1786,0.35,4,0.06390755,0.1337,,,,,,122,0,122,0,1,,,,,
,,276792,001,2023-07-24_21h10.30.728,arm3_q,2022.2.5,Win32,60.0024001,5fd85707af5bd719a5e20419,64aeaab685a29f4ca249be02,64becc53613b1cb6041b60ca,up,-1,0.1786,0.35,4,0,1.3336,,,,,,123,0,123,0,1,,,,,
,,276792,001,2023-07-24_21h10.30.728,arm3_q,2022.2.5,Win32,60.0024001,5fd85707af5bd719a5e20419,64aeaab685a29f4ca249be02,64becc53613b1cb6041b60ca,right,-1,0.1786,0.35,4,-0.004784305,1.3668,,,,,,124,0,124,0,1,,,,,
,,276792,001,2023-07-24_21h10.30.728,arm3_q,2022.2.5,Win32,60.0024001,5fd85707af5bd719a5e20419,64aeaab685a29f4ca249be02,64becc53613b1cb6041b60ca,right,-1,0.1786,0.35,4,-0.013094464,0.1169,,,,,,125,0,125,0,1,,,,,
,,276792,001,2023-07-24_21h10.30.728,arm3_q,2022.2.5,Win32,60.0024001,5fd85707af5bd719a5e20419,64aeaab685a29f4ca249be02,64becc53613b1cb6041b60ca,right,-1,0.1786,0.35,4,-0.027784101,0.3672,,,,,,126,0,126,0,1,,,,,
,,276792,001,2023-07-24_21h10.30.728,arm3_q,2022.2.5,Win32,60.0024001,5fd85707af5bd719a5e20419,64aeaab685a29f4ca249be02,64becc53613b1cb6041b60ca,right,-1,0.1786,0.35,4,-0.022997359,0.1504,,,,,,127,0,127,0,1,,,,,
,,276792,001,2023-07-24_21h10.30.728,arm3_q,2022.2.5,Win32,60.0024001,5fd85707af5bd719a5e20419,64aeaab685a29f4ca249be02,64becc53613b1cb6041b60ca,right,-1,0.1786,0.35,4,-0.036370493,0.334,,,,,,128,0,128,0,1,,,,,
,,276792,001,2023-07-24_21h10.30.728,arm3_q,2022.2.5,Win32,60.0024001,5fd85707af5bd719a5e20419,64aeaab685a29f4ca249be02,64becc53613b1cb6041b60ca,right,-1,0.1786,0.35,4,-0.026077003,0.1172,,,,,,129,0,129,0,1,,,,,
,,276792,001,2023-07-24_21h10.30.728,arm3_q,2022.2.5,Win32,60.0024001,5fd85707af5bd719a5e20419,64aeaab685a29f4ca249be02,64becc53613b1cb6041b60ca,right,-1,0.1786,0.35,4,-0.028111055,0.6004,,,,,,130,0,130,0,1,,,,,
,,276792,001,2023-07-24_21h10.30.728,arm3_q,2022.2.5,Win32,60.0024001,5fd85707af5bd719a5e20419,64aeaab685a29f4ca249be02,64becc53613b1cb6041b60ca,right,-1,0.1786,0.35,4,-0.041066904,0.1504,,,,,,131,0,131,0,1,,,,,
,,276792,001,2023-07-24_21h10.30.728,arm3_q,2022.2.5,Win32,60.0024001,5fd85707af5bd719a5e20419,64aeaab685a29f4ca249be02,64becc53613b1cb6041b60ca,right,-1,0.1786,0.35,4,-0.040820319,0.3005,,,,,,132,0,132,0,1,,,,,
,,276792,001,2023-07-24_21h10.30.728,arm3_q,2022.2.5,Win32,60.0024001,5fd85707af5bd719a5e20419,64aeaab685a29f4ca249be02,64becc53613b1cb6041b60ca,right,-1,0.1786,0.35,4,-0.031730938,0.1338,,,,,,133,0,133,0,1,,,,,
,,276792,001,2023-07-24_21h10.30.728,arm3_q,2022.2.5,Win32,60.0024001,5fd85707af5bd719a5e20419,64aeaab685a29f4ca249be02,64becc53613b1cb6041b60ca,right,-1,0.1786,0.35,4,-0.056175472,0.1503,,,,,,134,0,134,0,1,,,,,
,,276792,001,2023-07-24_21h10.30.728,arm3_q,2022.2.5,Win32,60.0024001,5fd85707af5bd719a5e20419,64aeaab685a29f4ca249be02,64becc53613b1cb6041b60ca,right,-1,0.1786,0.35,4,-0.043380904,0.1506,,,,,,135,0,135,0,1,,,,,
,,276792,001,2023-07-24_21h10.30.728,arm3_q,2022.2.5,Win32,60.0024001,5fd85707af5bd719a5e20419,64aeaab685a29f4ca249be02,64becc53613b1cb6041b60ca,down,1,0.1786,0.35,4,0,1.8835,,,,,,136,0,136,0,1,,,,,
,,276792,001,2023-07-24_21h10.30.728,arm3_q,2022.2.5,Win32,60.0024001,5fd85707af5bd719a5e20419,64aeaab685a29f4ca249be02,64becc53613b1cb6041b60ca,right,1,0.1786,0.35,4,0.043829834,1.2336,,,,,,137,0,137,0,1,,,,,
,,276792,001,2023-07-24_21h10.30.728,arm3_q,2022.2.5,Win32,60.0024001,5fd85707af5bd719a5e20419,64aeaab685a29f4ca249be02,64becc53613b1cb6041b60ca,right,1,0.1786,0.35,4,0.034037541,0.7006,,,,,,138,0,138,0,1,,,,,
,,276792,001,2023-07-24_21h10.30.728,arm3_q,2022.2.5,Win32,60.0024001,5fd85707af5bd719a5e20419,64aeaab685a29f4ca249be02,64becc53613b1cb6041b60ca,right,1,0.1786,0.35,4,0.016844404,0.4504,,,,,,139,0,139,0,1,,,,,
,,276792,001,2023-07-24_21h10.30.728,arm3_q,2022.2.5,Win32,60.0024001,5fd85707af5bd719a5e20419,64aeaab685a29f4ca249be02,64becc53613b1cb6041b60ca,right,1,0.1786,0.35,4,0.019754296,0.1505,,,,,,140,0,140,0,1,,,,,
,,276792,001,2023-07-24_21h10.30.728,arm3_q,2022.2.5,Win32,60.0024001,5fd85707af5bd719a5e20419,64aeaab685a29f4ca249be02,64becc53613b1cb6041b60ca,right,1,0.1786,0.35,4,0.01070797,0.2504,,,,,,141,0,141,0,1,,,,,
,,276792,001,2023-07-24_21h10.30.728,arm3_q,2022.2.5,Win32,60.0024001,5fd85707af5bd719a5e20419,64aeaab685a29f4ca249be02,64becc53613b1cb6041b60ca,right,1,0.1786,0.35,4,0.006010923,0.1338,,,,,,142,0,142,0,1,,,,,
,,276792,001,2023-07-24_21h10.30.728,arm3_q,2022.2.5,Win32,60.0024001,5fd85707af5bd719a5e20419,64aeaab685a29f4ca249be02,64becc53613b1cb6041b60ca,right,1,0.1786,0.35,4,0.015851882,0.1514,,,,,,143,0,143,0,1,,,,,
,,276792,001,2023-07-24_21h10.30.728,arm3_q,2022.2.5,Win32,60.0024001,5fd85707af5bd719a5e20419,64aeaab685a29f4ca249be02,64becc53613b1cb6041b60ca,right,1,0.1786,0.35,4,0.002705116,0.1504,,,,,,144,0,144,0,1,,,,,
,,276792,001,2023-07-24_21h10.30.728,arm3_q,2022.2.5,Win32,60.0024001,5fd85707af5bd719a5e20419,64aeaab685a29f4ca249be02,64becc53613b1cb6041b60ca,right,1,0.1786,0.35,4,-0.034581303,0.1671,,,,,,145,0,145,0,1,,,,,
,,276792,001,2023-07-24_21h10.30.728,arm3_q,2022.2.5,Win32,60.0024001,5fd85707af5bd719a5e20419,64aeaab685a29f4ca249be02,64becc53613b1cb6041b60ca,right,1,0.1786,0.35,4,-0.02130665,0.1672,,,,,,146,0,146,0,1,,,,,
,,276792,001,2023-07-24_21h10.30.728,arm3_q,2022.2.5,Win32,60.0024001,5fd85707af5bd719a5e20419,64aeaab685a29f4ca249be02,64becc53613b1cb6041b60ca,right,1,0.1786,0.35,4,0.011729494,0.1672,,,,,,147,0,147,0,1,,,,,
,,276792,001,2023-07-24_21h10.30.728,arm3_q,2022.2.5,Win32,60.0024001,5fd85707af5bd719a5e20419,64aeaab685a29f4ca249be02,64becc53613b1cb6041b60ca,right,1,0.1786,0.35,4,3.84051E-06,0.1503,,,,,,148,0,148,0,1,,,,,
,,276792,001,2023-07-24_21h10.30.728,arm3_q,2022.2.5,Win32,60.0024001,5fd85707af5bd719a5e20419,64aeaab685a29f4ca249be02,64becc53613b1cb6041b60ca,up,1,0.1786,0.35,5,0,3.5836,,,,,,149,0,149,0,1,,,,,
,,276792,001,2023-07-24_21h10.30.728,arm3_q,2022.2.5,Win32,60.0024001,5fd85707af5bd719a5e20419,64aeaab685a29f4ca249be02,64becc53613b1cb6041b60ca,right,1,0.1786,0.35,5,-0.00754916,1.0105,,,,,,150,0,150,0,1,,,,,
,,276792,001,2023-07-24_21h10.30.728,arm3_q,2022.2.5,Win32,60.0024001,5fd85707af5bd719a5e20419,64aeaab685a29f4ca249be02,64becc53613b1cb6041b60ca,right,1,0.1786,0.35,5,-0.003986839,0.1505,,,,,,151,0,151,0,1,,,,,
,,276792,001,2023-07-24_21h10.30.728,arm3_q,2022.2.5,Win32,60.0024001,5fd85707af5bd719a5e20419,64aeaab685a29f4ca249be02,64becc53613b1cb6041b60ca,right,1,0.1786,0.35,5,0.057916414,0.1504,,,,,,152,0,152,0,1,,,,,
,,276792,001,2023-07-24_21h10.30.728,arm3_q,2022.2.5,Win32,60.0024001,5fd85707af5bd719a5e20419,64aeaab685a29f4ca249be02,64becc53613b1cb6041b60ca,right,1,0.1786,0.35,5,0.06593749,0.417,,,,,,153,0,153,0,1,,,,,
,,276792,001,2023-07-24_21h10.30.728,arm3_q,2022.2.5,Win32,60.0024001,5fd85707af5bd719a5e20419,64aeaab685a29f4ca249be02,64becc53613b1cb6041b60ca,right,1,0.1786,0.35,5,0.062182654,0.1339,,,,,,154,0,154,0,1,,,,,
,,276792,001,2023-07-24_21h10.30.728,arm3_q,2022.2.5,Win32,60.0024001,5fd85707af5bd719a5e20419,64aeaab685a29f4ca249be02,64becc53613b1cb6041b60ca,right,1,0.1786,0.35,5,0.090492712,0.167,,,,,,155,0,155,0,1,,,,,
,,276792,001,2023-07-24_21h10.30.728,arm3_q,2022.2.5,Win32,60.0024001,5fd85707af5bd719a5e20419,64aeaab685a29f4ca249be02,64becc53613b1cb6041b60ca,right,1,0.1786,0.35,5,0.06932279,0.1835,,,,,,156,0,156,0,1,,,,,
,,276792,001,2023-07-24_21h10.30.728,arm3_q,2022.2.5,Win32,60.0024001,5fd85707af5bd719a5e20419,64aeaab685a29f4ca249be02,64becc53613b1cb6041b60ca,right,1,0.1786,0.35,5,0.072268997,0.1835,,,,,,157,0,157,0,1,,,,,
,,276792,001,2023-07-24_21h10.30.728,arm3_q,2022.2.5,Win32,60.0024001,5fd85707af5bd719a5e20419,64aeaab685a29f4ca249be02,64becc53613b1cb6041b60ca,right,1,0.1786,0.35,5,0.061264622,0.1693,,,,,,158,0,158,0,1,,,,,
,,276792,001,2023-07-24_21h10.30.728,arm3_q,2022.2.5,Win32,60.0024001,5fd85707af5bd719a5e20419,64aeaab685a29f4ca249be02,64becc53613b1cb6041b60ca,up,1,0.1786,0.35,5,0,0.6837,,,,,,159,0,159,0,1,,,,,
,,276792,001,2023-07-24_21h10.30.728,arm3_q,2022.2.5,Win32,60.0024001,5fd85707af5bd719a5e20419,64aeaab685a29f4ca249be02,64becc53613b1cb6041b60ca,right,1,0.1786,0.35,5,-0.017679107,1.1002,,,,,,160,0,160,0,1,,,,,
,,276792,001,2023-07-24_21h10.30.728,arm3_q,2022.2.5,Win32,60.0024001,5fd85707af5bd719a5e20419,64aeaab685a29f4ca249be02,64becc53613b1cb6041b60ca,right,1,0.1786,0.35,5,-0.011879142,0.1835,,,,,,161,0,161,0,1,,,,,
,,276792,001,2023-07-24_21h10.30.728,arm3_q,2022.2.5,Win32,60.0024001,5fd85707af5bd719a5e20419,64aeaab685a29f4ca249be02,64becc53613b1cb6041b60ca,right,1,0.1786,0.35,5,0.022166561,0.1506,,,,,,162,0,162,0,1,,,,,
,,276792,001,2023-07-24_21h10.30.728,arm3_q,2022.2.5,Win32,60.0024001,5fd85707af5bd719a5e20419,64aeaab685a29f4ca249be02,64becc53613b1cb6041b60ca,right,1,0.1786,0.35,5,0.022433416,0.1674,,,,,,163,0,163,0,1,,,,,
,,276792,001,2023-07-24_21h10.30.728,arm3_q,2022.2.5,Win32,60.0024001,5fd85707af5bd719a5e20419,64aeaab685a29f4ca249be02,64becc53613b1cb6041b60ca,right,1,0.1786,0.35,5,0.059906325,0.1671,,,,,,164,0,164,0,1,,,,,
,,276792,001,2023-07-24_21h10.30.728,arm3_q,2022.2.5,Win32,60.0024001,5fd85707af5bd719a5e20419,64aeaab685a29f4ca249be02,64becc53613b1cb6041b60ca,right,1,0.1786,0.35,5,0.065964497,0.1502,,,,,,165,0,165,0,1,,,,,
,,276792,001,2023-07-24_21h10.30.728,arm3_q,2022.2.5,Win32,60.0024001,5fd85707af5bd719a5e20419,64aeaab685a29f4ca249be02,64becc53613b1cb6041b60ca,right,1,0.1786,0.35,5,0.094310361,0.1671,,,,,,166,0,166,0,1,,,,,
,,276792,001,2023-07-24_21h10.30.728,arm3_q,2022.2.5,Win32,60.0024001,5fd85707af5bd719a5e20419,64aeaab685a29f4ca249be02,64becc53613b1cb6041b60ca,right,1,0.1786,0.35,5,0.114322978,0.1504,,,,,,167,0,167,0,1,,,,,
,,276792,001,2023-07-24_21h10.30.728,arm3_q,2022.2.5,Win32,60.0024001,5fd85707af5bd719a5e20419,64aeaab685a29f4ca249be02,64becc53613b1cb6041b60ca,right,1,0.1786,0.35,5,0.120887088,0.1508,,,,,,168,0,168,0,1,,,,,
,,276792,001,2023-07-24_21h10.30.728,arm3_q,2022.2.5,Win32,60.0024001,5fd85707af5bd719a5e20419,64aeaab685a29f4ca249be02,64becc53613b1cb6041b60ca,right,1,0.1786,0.35,5,0.101256558,0.2013,,,,,,169,0,169,0,1,,,,,
,,276792,001,2023-07-24_21h10.30.728,arm3_q,2022.2.5,Win32,60.0024001,5fd85707af5bd719a5e20419,64aeaab685a29f4ca249be02,64becc53613b1cb6041b60ca,right,1,0.1786,0.35,5,0.112789962,0.1692,,,,,,170,0,170,0,1,,,,,
,,276792,001,2023-07-24_21h10.30.728,arm3_q,2022.2.5,Win32,60.0024001,5fd85707af5bd719a5e20419,64aeaab685a29f4ca249be02,64becc53613b1cb6041b60ca,right,1,0.1786,0.35,5,0.140440749,0.1838,,,,,,171,0,171,0,1,,,,,
,,276792,001,2023-07-24_21h10.30.728,arm3_q,2022.2.5,Win32,60.0024001,5fd85707af5bd719a5e20419,64aeaab685a29f4ca249be02,64becc53613b1cb6041b60ca,up,-1,0.1786,0.35,5,0,0.5502,,,,,,172,0,172,0,1,,,,,
,,276792,001,2023-07-24_21h10.30.728,arm3_q,2022.2.5,Win32,60.0024001,5fd85707af5bd719a5e20419,64aeaab685a29f4ca249be02,64becc53613b1cb6041b60ca,right,-1,0.1786,0.35,5,-0.006405553,3.1172,,,,,,173,0,173,0,1,,,,,
,,276792,001,2023-07-24_21h10.30.728,arm3_q,2022.2.5,Win32,60.0024001,5fd85707af5bd719a5e20419,64aeaab685a29f4ca249be02,64becc53613b1cb6041b60ca,right,-1,0.1786,0.35,5,-0.012408866,0.6004,,,,,,174,0,174,0,1,,,,,
,,276792,001,2023-07-24_21h10.30.728,arm3_q,2022.2.5,Win32,60.0024001,5fd85707af5bd719a5e20419,64aeaab685a29f4ca249be02,64becc53613b1cb6041b60ca,right,-1,0.1786,0.35,5,-0.031003483,0.9674,,,,,,175,0,175,0,1,,,,,
,,276792,001,2023-07-24_21h10.30.728,arm3_q,2022.2.5,Win32,60.0024001,5fd85707af5bd719a5e20419,64aeaab685a29f4ca249be02,64becc53613b1cb6041b60ca,down,1,0.1786,0.35,6,0,0.8337,,,,,,176,0,176,0,1,,,,,
,,276792,001,2023-07-24_21h10.30.728,arm3_q,2022.2.5,Win32,60.0024001,5fd85707af5bd719a5e20419,64aeaab685a29f4ca249be02,64becc53613b1cb6041b60ca,right,1,0.1786,0.35,6,0.005287451,1.851,,,,,,177,0,177,0,1,,,,,
,,276792,001,2023-07-24_21h10.30.728,arm3_q,2022.2.5,Win32,60.0024001,5fd85707af5bd719a5e20419,64aeaab685a29f4ca249be02,64becc53613b1cb6041b60ca,right,1,0.1786,0.35,6,0.015323578,0.6173,,,,,,178,0,178,0,1,,,,,
,,276792,001,2023-07-24_21h10.30.728,arm3_q,2022.2.5,Win32,60.0024001,5fd85707af5bd719a5e20419,64aeaab685a29f4ca249be02,64becc53613b1cb6041b60ca,right,1,0.1786,0.35,6,-0.010991301,0.7838,,,,,,179,0,179,0,1,,,,,
,,276792,001,2023-07-24_21h10.30.728,arm3_q,2022.2.5,Win32,60.0024001,5fd85707af5bd719a5e20419,64aeaab685a29f4ca249be02,64becc53613b1cb6041b60ca,right,1,0.1786,0.35,6,-0.010589482,0.4171,,,,,,180,0,180,0,1,,,,,
,,276792,001,2023-07-24_21h10.30.728,arm3_q,2022.2.5,Win32,60.0024001,5fd85707af5bd719a5e20419,64aeaab685a29f4ca249be02,64becc53613b1cb6041b60ca,right,1,0.1786,0.35,6,0.008181989,0.517,,,,,,181,0,181,0,1,,,,,
,,276792,001,2023-07-24_21h10.30.728,arm3_q,2022.2.5,Win32,60.0024001,5fd85707af5bd719a5e20419,64aeaab685a29f4ca249be02,64becc53613b1cb6041b60ca,up,1,0.1786,0.35,6,0,0.8171,,,,,,182,0,182,0,1,,,,,
,,276792,001,2023-07-24_21h10.30.728,arm3_q,2022.2.5,Win32,60.0024001,5fd85707af5bd719a5e20419,64aeaab685a29f4ca249be02,64becc53613b1cb6041b60ca,up,1,0.1786,0.35,6,0,1.634,,,,,,183,0,183,0,1,,,,,
,,276792,001,2023-07-24_21h10.30.728,arm3_q,2022.2.5,Win32,60.0024001,5fd85707af5bd719a5e20419,64aeaab685a29f4ca249be02,64becc53613b1cb6041b60ca,right,1,0.1786,0.35,6,0.012852269,1.3335,,,,,,184,0,184,0,1,,,,,
,,276792,001,2023-07-24_21h10.30.728,arm3_q,2022.2.5,Win32,60.0024001,5fd85707af5bd719a5e20419,64aeaab685a29f4ca249be02,64becc53613b1cb6041b60ca,right,1,0.1786,0.35,6,0.017168018,0.4174,,,,,,185,0,185,0,1,,,,,
,,276792,001,2023-07-24_21h10.30.728,arm3_q,2022.2.5,Win32,60.0024001,5fd85707af5bd719a5e20419,64aeaab685a29f4ca249be02,64becc53613b1cb6041b60ca,right,1,0.1786,0.35,6,0.024991749,0.4005,,,,,,186,0,186,0,1,,,,,
,,276792,001,2023-07-24_21h10.30.728,arm3_q,2022.2.5,Win32,60.0024001,5fd85707af5bd719a5e20419,64aeaab685a29f4ca249be02,64becc53613b1cb6041b60ca,right,1,0.1786,0.35,6,0.019824503,0.5504,,,,,,187,0,187,0,1,,,,,
,,276792,001,2023-07-24_21h10.30.728,arm3_q,2022.2.5,Win32,60.0024001,5fd85707af5bd719a5e20419,64aeaab685a29f4ca249be02,64becc53613b1cb6041b60ca,up,1,0.1786,0.35,6,0,0.4501,,,,,,188,0,188,0,1,,,,,
,,276792,001,2023-07-24_21h10.30.728,arm3_q,2022.2.5,Win32,60.0024001,5fd85707af5bd719a5e20419,64aeaab685a29f4ca249be02,64becc53613b1cb6041b60ca,right,1,0.1786,0.35,6,0.026320376,3.3169,,,,,,189,0,189,0,1,,,,,
,,276792,001,2023-07-24_21h10.30.728,arm3_q,2022.2.5,Win32,60.0024001,5fd85707af5bd719a5e20419,64aeaab685a29f4ca249be02,64becc53613b1cb6041b60ca,right,1,0.1786,0.35,6,0.018900706,0.397,,,,,,190,0,190,0,1,,,,,
,,276792,001,2023-07-24_21h10.30.728,arm3_q,2022.2.5,Win32,60.0024001,5fd85707af5bd719a5e20419,64aeaab685a29f4ca249be02,64becc53613b1cb6041b60ca,up,1,0.1786,0.35,6,0,0.7339,,,,,,191,0,191,0,1,,,,,
,,276792,001,2023-07-24_21h10.30.728,arm3_q,2022.2.5,Win32,60.0024001,5fd85707af5bd719a5e20419,64aeaab685a29f4ca249be02,64becc53613b1cb6041b60ca,right,1,0.1786,0.35,6,0.009546436,1.5337,,,,,,192,0,192,0,1,,,,,
,,276792,001,2023-07-24_21h10.30.728,arm3_q,2022.2.5,Win32,60.0024001,5fd85707af5bd719a5e20419,64aeaab685a29f4ca249be02,64becc53613b1cb6041b60ca,right,1,0.1786,0.35,6,-0.00303399,0.4838,,,,,,193,0,193,0,1,,,,,
,,276792,001,2023-07-24_21h10.30.728,arm3_q,2022.2.5,Win32,60.0024001,5fd85707af5bd719a5e20419,64aeaab685a29f4ca249be02,64becc53613b1cb6041b60ca,right,1,0.1786,0.35,6,0.031917262,0.3669,,,,,,194,0,194,0,1,,,,,
,,276792,001,2023-07-24_21h10.30.728,arm3_q,2022.2.5,Win32,60.0024001,5fd85707af5bd719a5e20419,64aeaab685a29f4ca249be02,64becc53613b1cb6041b60ca,up,1,0.1786,0.35,6,0,0.3674,,,,,,195,0,195,0,1,,,,,
,,276792,001,2023-07-24_21h10.30.728,arm3_q,2022.2.5,Win32,60.0024001,5fd85707af5bd719a5e20419,64aeaab685a29f4ca249be02,64becc53613b1cb6041b60ca,right,1,0.1786,0.35,6,0.013031445,1.8838,,,,,,196,0,196,0,1,,,,,
,,276792,001,2023-07-24_21h10.30.728,arm3_q,2022.2.5,Win32,60.0024001,5fd85707af5bd719a5e20419,64aeaab685a29f4ca249be02,64becc53613b1cb6041b60ca,right,1,0.1786,0.35,6,0.023861691,0.3183,,,,,,197,0,197,0,1,,,,,
,,276792,001,2023-07-24_21h10.30.728,arm3_q,2022.2.5,Win32,60.0024001,5fd85707af5bd719a5e20419,64aeaab685a29f4ca249be02,64becc53613b1cb6041b60ca,up,1,0.1786,0.35,7,0,0.6336,,,,,,198,0,198,0,1,,,,,
,,276792,001,2023-07-24_21h10.30.728,arm3_q,2022.2.5,Win32,60.0024001,5fd85707af5bd719a5e20419,64aeaab685a29f4ca249be02,64becc53613b1cb6041b60ca,right,1,0.1786,0.35,7,0.006722182,1.2503,,,,,,199,0,199,0,1,,,,,
,,276792,001,2023-07-24_21h10.30.728,arm3_q,2022.2.5,Win32,60.0024001,5fd85707af5bd719a5e20419,64aeaab685a29f4ca249be02,64becc53613b1cb6041b60ca,right,1,0.1786,0.35,7,-0.01961172,1.6514,,,,,,200,0,200,0,1,,,,,
,,276792,001,2023-07-24_21h10.30.728,arm3_q,2022.2.5,Win32,60.0024001,5fd85707af5bd719a5e20419,64aeaab685a29f4ca249be02,64becc53613b1cb6041b60ca,up,1,0.1786,0.35,7,0,0.6172,,,,,,201,0,201,0,1,,,,,
,,276792,001,2023-07-24_21h10.30.728,arm3_q,2022.2.5,Win32,60.0024001,5fd85707af5bd719a5e20419,64aeaab685a29f4ca249be02,64becc53613b1cb6041b60ca,right,1,0.1786,0.35,7,0.007392478,1.534,,,,,,202,0,202,0,1,,,,,
,,276792,001,2023-07-24_21h10.30.728,arm3_q,2022.2.5,Win32,60.0024001,5fd85707af5bd719a5e20419,64aeaab685a29f4ca249be02,64becc53613b1cb6041b60ca,right,1,0.1786,0.35,7,0.024506019,0.484,,,,,,203,0,203,0,1,,,,,
,,276792,001,2023-07-24_21h10.30.728,arm3_q,2022.2.5,Win32,60.0024001,5fd85707af5bd719a5e20419,64aeaab685a29f4ca249be02,64becc53613b1cb6041b60ca,up,1,0.1786,0.35,7,0,0.5839,,,,,,204,0,204,0,1,,,,,
,,276792,001,2023-07-24_21h10.30.728,arm3_q,2022.2.5,Win32,60.0024001,5fd85707af5bd719a5e20419,64aeaab685a29f4ca249be02,64becc53613b1cb6041b60ca,right,1,0.1786,0.35,7,0.003487475,1.2337,,,,,,205,0,205,0,1,,,,,
,,276792,001,2023-07-24_21h10.30.728,arm3_q,2022.2.5,Win32,60.0024001,5fd85707af5bd719a5e20419,64aeaab685a29f4ca249be02,64becc53613b1cb6041b60ca,right,1,0.1786,0.35,7,0.026974928,0.5012,,,,,,206,0,206,0,1,,,,,
,,276792,001,2023-07-24_21h10.30.728,arm3_q,2022.2.5,Win32,60.0024001,5fd85707af5bd719a5e20419,64aeaab685a29f4ca249be02,64becc53613b1cb6041b60ca,right,1,0.1786,0.35,7,0.031287295,0.4503,,,,,,207,0,207,0,1,,,,,
,,276792,001,2023-07-24_21h10.30.728,arm3_q,2022.2.5,Win32,60.0024001,5fd85707af5bd719a5e20419,64aeaab685a29f4ca249be02,64becc53613b1cb6041b60ca,up,1,0.1786,0.35,7,0,0.6669,,,,,,208,0,208,0,1,,,,,
,,276792,001,2023-07-24_21h10.30.728,arm3_q,2022.2.5,Win32,60.0024001,5fd85707af5bd719a5e20419,64aeaab685a29f4ca249be02,64becc53613b1cb6041b60ca,right,1,0.1786,0.35,7,0.000169762,3.2672,,,,,,209,0,209,0,1,,,,,
,,276792,001,2023-07-24_21h10.30.728,arm3_q,2022.2.5,Win32,60.0024001,5fd85707af5bd719a5e20419,64aeaab685a29f4ca249be02,64becc53613b1cb6041b60ca,right,1,0.1786,0.35,7,0.009400315,0.9304,,,,,,210,0,210,0,1,,,,,
,,276792,001,2023-07-24_21h10.30.728,arm3_q,2022.2.5,Win32,60.0024001,5fd85707af5bd719a5e20419,64aeaab685a29f4ca249be02,64becc53613b1cb6041b60ca,up,1,0.1786,0.35,7,0,1.1171,,,,,,211,0,211,0,1,,,,,
,,276792,001,2023-07-24_21h10.30.728,arm3_q,2022.2.5,Win32,60.0024001,5fd85707af5bd719a5e20419,64aeaab685a29f4ca249be02,64becc53613b1cb6041b60ca,down,1,0.1786,0.35,6,0,1.3669,,,,,,212,0,212,0,1,,,,,
,,276792,001,2023-07-24_21h10.30.728,arm3_q,2022.2.5,Win32,60.0024001,5fd85707af5bd719a5e20419,64aeaab685a29f4ca249be02,64becc53613b1cb6041b60ca,right,1,0.1786,0.35,6,-0.000549905,1.2168,,,,,,213,0,213,0,1,,,,,
,,276792,001,2023-07-24_21h10.30.728,arm3_q,2022.2.5,Win32,60.0024001,5fd85707af5bd719a5e20419,64aeaab685a29f4ca249be02,64becc53613b1cb6041b60ca,right,1,0.1786,0.35,6,0.024939866,0.3837,,,,,,214,0,214,0,1,,,,,
,,276792,001,2023-07-24_21h10.30.728,arm3_q,2022.2.5,Win32,60.0024001,5fd85707af5bd719a5e20419,64aeaab685a29f4ca249be02,64becc53613b1cb6041b60ca,down,-1,0.1786,0.35,5,0,0.6169,,,,,,215,0,215,0,1,,,,,
,,276792,001,2023-07-24_21h10.30.728,arm3_q,2022.2.5,Win32,60.0024001,5fd85707af5bd719a5e20419,64aeaab685a29f4ca249be02,64becc53613b1cb6041b60ca,right,-1,0.1786,0.35,5,0.000628214,1.667,,,,,,216,0,216,0,1,,,,,
,,276792,001,2023-07-24_21h10.30.728,arm3_q,2022.2.5,Win32,60.0024001,5fd85707af5bd719a5e20419,64aeaab685a29f4ca249be02,64becc53613b1cb6041b60ca,right,-1,0.1786,0.35,5,0.011207397,0.2002,,,,,,217,0,217,0,1,,,,,
,,276792,001,2023-07-24_21h10.30.728,arm3_q,2022.2.5,Win32,60.0024001,5fd85707af5bd719a5e20419,64aeaab685a29f4ca249be02,64becc53613b1cb6041b60ca,up,-1,0.1786,0.35,5,0,0.6007,,,,,,218,0,218,0,1,,,,,
,,276792,001,2023-07-24_21h10.30.728,arm3_q,2022.2.5,Win32,60.0024001,5fd85707af5bd719a5e20419,64aeaab685a29f4ca249be02,64becc53613b1cb6041b60ca,down,1,0.1786,0.35,5,0,10.7843,,,,,,219,0,219,0,1,,,,,
,,276792,001,2023-07-24_21h10.30.728,arm3_q,2022.2.5,Win32,60.0024001,5fd85707af5bd719a5e20419,64aeaab685a29f4ca249be02,64becc53613b1cb6041b60ca,up,1,0.1786,0.35,5,0,1.6288,,,,,,220,0,220,0,1,,,,,
,,276792,001,2023-07-24_21h10.30.728,arm3_q,2022.2.5,Win32,60.0024001,5fd85707af5bd719a5e20419,64aeaab685a29f4ca249be02,64becc53613b1cb6041b60ca,right,1,0.1786,0.35,5,0.030886157,1.3671,,,,,,221,0,221,0,1,,,,,
,,276792,001,2023-07-24_21h10.30.728,arm3_q,2022.2.5,Win32,60.0024001,5fd85707af5bd719a5e20419,64aeaab685a29f4ca249be02,64becc53613b1cb6041b60ca,right,1,0.1786,0.35,5,0.055101993,0.267,,,,,,222,0,222,0,1,,,,,
,,276792,001,2023-07-24_21h10.30.728,arm3_q,2022.2.5,Win32,60.0024001,5fd85707af5bd719a5e20419,64aeaab685a29f4ca249be02,64becc53613b1cb6041b60ca,up,-1,0.1786,0.35,5,0,1.1017,,,,,,223,0,223,0,1,,,,,
,,276792,001,2023-07-24_21h10.30.728,arm3_q,2022.2.5,Win32,60.0024001,5fd85707af5bd719a5e20419,64aeaab685a29f4ca249be02,64becc53613b1cb6041b60ca,right,-1,0.1786,0.35,5,0.009447051,1.1336,,,,,,224,0,224,0,1,,,,,
,,276792,001,2023-07-24_21h10.30.728,arm3_q,2022.2.5,Win32,60.0024001,5fd85707af5bd719a5e20419,64aeaab685a29f4ca249be02,64becc53613b1cb6041b60ca,right,-1,0.1786,0.35,5,-0.017468871,0.4172,,,,,,225,0,225,0,1,,,,,
,,276792,001,2023-07-24_21h10.30.728,arm3_q,2022.2.5,Win32,60.0024001,5fd85707af5bd719a5e20419,64aeaab685a29f4ca249be02,64becc53613b1cb6041b60ca,right,-1,0.1786,0.35,5,-0.072395876,0.1504,,,,,,226,0,226,0,1,,,,,
,,276792,001,2023-07-24_21h10.30.728,arm3_q,2022.2.5,Win32,60.0024001,5fd85707af5bd719a5e20419,64aeaab685a29f4ca249be02,64becc53613b1cb6041b60ca,down,1,0.1786,0.35,5,0,0.4669,,,,,,227,0,227,0,1,,,,,
,,276792,001,2023-07-24_21h10.30.728,arm3_q,2022.2.5,Win32,60.0024001,5fd85707af5bd719a5e20419,64aeaab685a29f4ca249be02,64becc53613b1cb6041b60ca,up,1,0.1786,0.35,5,0,1.3506,,,,,,228,0,228,0,1,,,,,
,,276792,001,2023-07-24_21h10.30.728,arm3_q,2022.2.5,Win32,60.0024001,5fd85707af5bd719a5e20419,64aeaab685a29f4ca249be02,64becc53613b1cb6041b60ca,right,1,0.1786,0.35,5,-0.011031092,1.535,,,,,,229,0,229,0,1,,,,,
,,276792,001,2023-07-24_21h10.30.728,arm3_q,2022.2.5,Win32,60.0024001,5fd85707af5bd719a5e20419,64aeaab685a29f4ca249be02,64becc53613b1cb6041b60ca,up,-1,0.1786,0.35,5,0,1.0669,,,,,,230,0,230,0,1,,,,,
,,276792,001,2023-07-24_21h10.30.728,arm3_q,2022.2.5,Win32,60.0024001,5fd85707af5bd719a5e20419,64aeaab685a29f4ca249be02,64becc53613b1cb6041b60ca,right,-1,0.1786,0.35,5,0.001963868,0.9504,,,,,,231,0,231,0,1,,,,,
,,276792,001,2023-07-24_21h10.30.728,arm3_q,2022.2.5,Win32,60.0024001,5fd85707af5bd719a5e20419,64aeaab685a29f4ca249be02,64becc53613b1cb6041b60ca,down,-1,0.1786,0.35,5,0,1.3836,,,,,,232,0,232,0,1,,,,,
,,276792,001,2023-07-24_21h10.30.728,arm3_q,2022.2.5,Win32,60.0024001,5fd85707af5bd719a5e20419,64aeaab685a29f4ca249be02,64becc53613b1cb6041b60ca,right,-1,0.1786,0.35,5,0.010357009,0.9669,,,,,,233,0,233,0,1,,,,,
,,276792,001,2023-07-24_21h10.30.728,arm3_q,2022.2.5,Win32,60.0024001,5fd85707af5bd719a5e20419,64aeaab685a29f4ca249be02,64becc53613b1cb6041b60ca,right,-1,0.1786,0.35,5,0.004176419,0.467,,,,,,234,0,234,0,1,,,,,
,,276792,001,2023-07-24_21h10.30.728,arm3_q,2022.2.5,Win32,60.0024001,5fd85707af5bd719a5e20419,64aeaab685a29f4ca249be02,64becc53613b1cb6041b60ca,right,-1,0.1786,0.35,5,0.002945855,0.8003,,,,,,235,0,235,0,1,,,,,
,,276792,001,2023-07-24_21h10.30.728,arm3_q,2022.2.5,Win32,60.0024001,5fd85707af5bd719a5e20419,64aeaab685a29f4ca249be02,64becc53613b1cb6041b60ca,down,1,0.1786,0.35,5,0,1.7672,,,,,,236,0,236,0,1,,,,,
,,276792,001,2023-07-24_21h10.30.728,arm3_q,2022.2.5,Win32,60.0024001,5fd85707af5bd719a5e20419,64aeaab685a29f4ca249be02,64becc53613b1cb6041b60ca,right,1,0.1786,0.35,5,0.004077668,0.967,,,,,,237,0,237,0,1,,,,,
,,276792,001,2023-07-24_21h10.30.728,arm3_q,2022.2.5,Win32,60.0024001,5fd85707af5bd719a5e20419,64aeaab685a29f4ca249be02,64becc53613b1cb6041b60ca,right,1,0.1786,0.35,5,-0.019187636,1.217,,,,,,238,0,238,0,1,,,,,
,,276792,001,2023-07-24_21h10.30.728,arm3_q,2022.2.5,Win32,60.0024001,5fd85707af5bd719a5e20419,64aeaab685a29f4ca249be02,64becc53613b1cb6041b60ca,up,1,0.1786,0.35,5,0,1.0503,,,,,,239,0,239,0,1,,,,,
,,276792,001,2023-07-24_21h10.30.728,arm3_q,2022.2.5,Win32,60.0024001,5fd85707af5bd719a5e20419,64aeaab685a29f4ca249be02,64becc53613b1cb6041b60ca,right,1,0.1786,0.35,5,0.011610801,1.0337,,,,,,240,0,240,0,1,,,,,
,,276792,001,2023-07-24_21h10.30.728,arm3_q,2022.2.5,Win32,60.0024001,5fd85707af5bd719a5e20419,64aeaab685a29f4ca249be02,64becc53613b1cb6041b60ca,up,-1,0.1786,0.35,5,0,0.7505,,,,,,241,0,241,0,1,,,,,
,,276792,001,2023-07-24_21h10.30.728,arm3_q,2022.2.5,Win32,60.0024001,5fd85707af5bd719a5e20419,64aeaab685a29f4ca249be02,64becc53613b1cb6041b60ca,right,-1,0.1786,0.35,5,-0.035199207,1.0672,,,,,,242,0,242,0,1,,,,,
,,276792,001,2023-07-24_21h10.30.728,arm3_q,2022.2.5,Win32,60.0024001,5fd85707af5bd719a5e20419,64aeaab685a29f4ca249be02,64becc53613b1cb6041b60ca,down,-1,0.1786,0.35,5,0,0.6171,,,,,,243,0,243,0,1,,,,,
,,276792,001,2023-07-24_21h10.30.728,arm3_q,2022.2.5,Win32,60.0024001,5fd85707af5bd719a5e20419,64aeaab685a29f4ca249be02,64becc53613b1cb6041b60ca,right,-1,0.1786,0.35,5,-0.003958229,1.267,,,,,,244,0,244,0,1,,,,,
,,276792,001,2023-07-24_21h10.30.728,arm3_q,2022.2.5,Win32,60.0024001,5fd85707af5bd719a5e20419,64aeaab685a29f4ca249be02,64becc53613b1cb6041b60ca,right,-1,0.1786,0.35,5,-0.00578577,0.9671,,,,,,245,0,245,0,1,,,,,
,,276792,001,2023-07-24_21h10.30.728,arm3_q,2022.2.5,Win32,60.0024001,5fd85707af5bd719a5e20419,64aeaab685a29f4ca249be02,64becc53613b1cb6041b60ca,up,-1,0.1786,0.35,5,0,1.0171,,,,,,246,0,246,0,1,,,,,
,,276792,001,2023-07-24_21h10.30.728,arm3_q,2022.2.5,Win32,60.0024001,5fd85707af5bd719a5e20419,64aeaab685a29f4ca249be02,64becc53613b1cb6041b60ca,right,-1,0.1786,0.35,5,-0.004245129,3.2003,,,,,,247,0,247,0,1,,,,,
,,276792,001,2023-07-24_21h10.30.728,arm3_q,2022.2.5,Win32,60.0024001,5fd85707af5bd719a5e20419,64aeaab685a29f4ca249be02,64becc53613b1cb6041b60ca,right,-1,0.1786,0.35,5,0.013144866,0.3972,,,,,,248,0,248,0,1,,,,,
,,276792,001,2023-07-24_21h10.30.728,arm3_q,2022.2.5,Win32,60.0024001,5fd85707af5bd719a5e20419,64aeaab685a29f4ca249be02,64becc53613b1cb6041b60ca,up,1,0.1786,0.35,5,0,0.8173,,,,,,249,0,249,0,1,,,,,
,,276792,001,2023-07-24_21h10.30.728,arm3_q,2022.2.5,Win32,60.0024001,5fd85707af5bd719a5e20419,64aeaab685a29f4ca249be02,64becc53613b1cb6041b60ca,right,1,0.1786,0.35,5,0.007503454,1.417,,,,,,250,0,250,0,1,,,,,
,,276792,001,2023-07-24_21h10.30.728,arm3_q,2022.2.5,Win32,60.0024001,5fd85707af5bd719a5e20419,64aeaab685a29f4ca249be02,64becc53613b1cb6041b60ca,right,1,0.1786,0.35,5,0.019072107,0.4177,,,,,,251,0,251,0,1,,,,,
,,276792,001,2023-07-24_21h10.30.728,arm3_q,2022.2.5,Win32,60.0024001,5fd85707af5bd719a5e20419,64aeaab685a29f4ca249be02,64becc53613b1cb6041b60ca,up,-1,0.1786,0.35,6,0,0.5839,,,,,,252,0,252,0,1,,,,,
,,276792,001,2023-07-24_21h10.30.728,arm3_q,2022.2.5,Win32,60.0024001,5fd85707af5bd719a5e20419,64aeaab685a29f4ca249be02,64becc53613b1cb6041b60ca,right,-1,0.1786,0.35,6,-0.007313388,1.0677,,,,,,253,0,253,0,1,,,,,
,,276792,001,2023-07-24_21h10.30.728,arm3_q,2022.2.5,Win32,60.0024001,5fd85707af5bd719a5e20419,64aeaab685a29f4ca249be02,64becc53613b1cb6041b60ca,right,-1,0.1786,0.35,6,-0.007304441,0.4023,,,,,,254,0,254,0,1,,,,,
,,276792,001,2023-07-24_21h10.30.728,arm3_q,2022.2.5,Win32,60.0024001,5fd85707af5bd719a5e20419,64aeaab685a29f4ca249be02,64becc53613b1cb6041b60ca,down,-1,0.1786,0.35,6,0,0.6004,,,,,,255,0,255,0,1,,,,,
,,276792,001,2023-07-24_21h10.30.728,arm3_q,2022.2.5,Win32,60.0024001,5fd85707af5bd719a5e20419,64aeaab685a29f4ca249be02,64becc53613b1cb6041b60ca,down,-1,0.1786,0.35,6,0,1.5837,,,,,,256,0,256,0,1,,,,,
,,276792,001,2023-07-24_21h10.30.728,arm3_q,2022.2.5,Win32,60.0024001,5fd85707af5bd719a5e20419,64aeaab685a29f4ca249be02,64becc53613b1cb6041b60ca,up,1,0.1786,0.35,6,0,1.5338,,,,,,257,0,257,0,1,,,,,
,,276792,001,2023-07-24_21h10.30.728,arm3_q,2022.2.5,Win32,60.0024001,5fd85707af5bd719a5e20419,64aeaab685a29f4ca249be02,64becc53613b1cb6041b60ca,right,1,0.1786,0.35,6,0.013867808,1.1337,,,,,,258,0,258,0,1,,,,,
,,276792,001,2023-07-24_21h10.30.728,arm3_q,2022.2.5,Win32,60.0024001,5fd85707af5bd719a5e20419,64aeaab685a29f4ca249be02,64becc53613b1cb6041b60ca,up,-1,0.1786,0.35,6,0,0.6674,,,,,,259,0,259,0,1,,,,,
,,276792,001,2023-07-24_21h10.30.728,arm3_q,2022.2.5,Win32,60.0024001,5fd85707af5bd719a5e20419,64aeaab685a29f4ca249be02,64becc53613b1cb6041b60ca,right,-1,0.1786,0.35,6,-0.002138411,1.1838,,,,,,260,0,260,0,1,,,,,
,,276792,001,2023-07-24_21h10.30.728,arm3_q,2022.2.5,Win32,60.0024001,5fd85707af5bd719a5e20419,64aeaab685a29f4ca249be02,64becc53613b1cb6041b60ca,right,-1,0.1786,0.35,6,-0.014524098,1.5171,,,,,,261,0,261,0,1,,,,,
,,276792,001,2023-07-24_21h10.30.728,arm3_q,2022.2.5,Win32,60.0024001,5fd85707af5bd719a5e20419,64aeaab685a29f4ca249be02,64becc53613b1cb6041b60ca,down,1,0.1786,0.35,6,0,0.5848,,,,,,262,0,262,0,1,,,,,
,,276792,001,2023-07-24_21h10.30.728,arm3_q,2022.2.5,Win32,60.0024001,5fd85707af5bd719a5e20419,64aeaab685a29f4ca249be02,64becc53613b1cb6041b60ca,right,1,0.1786,0.35,6,-0.016439793,1.2671,,,,,,263,0,263,0,1,,,,,
,,276792,001,2023-07-24_21h10.30.728,arm3_q,2022.2.5,Win32,60.0024001,5fd85707af5bd719a5e20419,64aeaab685a29f4ca249be02,64becc53613b1cb6041b60ca,down,-1,0.1786,0.35,6,0,0.6671,,,,,,264,0,264,0,1,,,,,
,,276792,001,2023-07-24_21h10.30.728,arm3_q,2022.2.5,Win32,60.0024001,5fd85707af5bd719a5e20419,64aeaab685a29f4ca249be02,64becc53613b1cb6041b60ca,right,-1,0.1786,0.35,6,-0.014655667,2.117,,,,,,265,0,265,0,1,,,,,
,,276792,001,2023-07-24_21h10.30.728,arm3_q,2022.2.5,Win32,60.0024001,5fd85707af5bd719a5e20419,64aeaab685a29f4ca249be02,64becc53613b1cb6041b60ca,right,-1,0.1786,0.35,6,-0.04037212,0.4004,,,,,,266,0,266,0,1,,,,,
,,276792,001,2023-07-24_21h10.30.728,arm3_q,2022.2.5,Win32,60.0024001,5fd85707af5bd719a5e20419,64aeaab685a29f4ca249be02,64becc53613b1cb6041b60ca,down,-1,0.1786,0.35,6,0,0.3502,,,,,,267,0,267,0,1,,,,,
,,276792,001,2023-07-24_21h10.30.728,arm3_q,2022.2.5,Win32,60.0024001,5fd85707af5bd719a5e20419,64aeaab685a29f4ca249be02,64becc53613b1cb6041b60ca,right,-1,0.1786,0.35,6,-0.023809913,0.9175,,,,,,268,0,268,0,1,,,,,
,,276792,001,2023-07-24_21h10.30.728,arm3_q,2022.2.5,Win32,60.0024001,5fd85707af5bd719a5e20419,64aeaab685a29f4ca249be02,64becc53613b1cb6041b60ca,down,-1,0.1786,0.35,6,0,0.4339,,,,,,269,0,269,0,1,,,,,
,,276792,001,2023-07-24_21h10.30.728,arm3_q,2022.2.5,Win32,60.0024001,5fd85707af5bd719a5e20419,64aeaab685a29f4ca249be02,64becc53613b1cb6041b60ca,right,-1,0.1786,0.35,6,-0.003914681,1.3668,,,,,,270,0,270,0,1,,,,,
,,276792,001,2023-07-24_21h10.30.728,arm3_q,2022.2.5,Win32,60.0024001,5fd85707af5bd719a5e20419,64aeaab685a29f4ca249be02,64becc53613b1cb6041b60ca,right,-1,0.1786,0.35,6,-0.001560435,1.0006,,,,,,271,0,271,0,1,,,,,
,,276792,001,2023-07-24_21h10.30.728,arm3_q,2022.2.5,Win32,60.0024001,5fd85707af5bd719a5e20419,64aeaab685a29f4ca249be02,64becc53613b1cb6041b60ca,right,-1,0.1786,0.35,6,-0.002354891,0.6337,,,,,,272,0,272,0,1,,,,,
,,276792,001,2023-07-24_21h10.30.728,arm3_q,2022.2.5,Win32,60.0024001,5fd85707af5bd719a5e20419,64aeaab685a29f4ca249be02,64becc53613b1cb6041b60ca,right,-1,0.1786,0.35,6,-0.008920249,1.0673,,,,,,273,0,273,0,1,,,,,
,,276792,001,2023-07-24_21h10.30.728,arm3_q,2022.2.5,Win32,60.0024001,5fd85707af5bd719a5e20419,64aeaab685a29f4ca249be02,64becc53613b1cb6041b60ca,down,-1,0.1786,0.35,6,0,0.9169,,,,,,274,0,274,0,1,,,,,
,,276792,001,2023-07-24_21h10.30.728,arm3_q,2022.2.5,Win32,60.0024001,5fd85707af5bd719a5e20419,64aeaab685a29f4ca249be02,64becc53613b1cb6041b60ca,right,-1,0.1786,0.35,6,-0.014917008,1.0504,,,,,,275,0,275,0,1,,,,,
,,276792,001,2023-07-24_21h10.30.728,arm3_q,2022.2.5,Win32,60.0024001,5fd85707af5bd719a5e20419,64aeaab685a29f4ca249be02,64becc53613b1cb6041b60ca,right,-1,0.1786,0.35,6,0.014454916,0.967,,,,,,276,0,276,0,1,,,,,
,,276792,001,2023-07-24_21h10.30.728,arm3_q,2022.2.5,Win32,60.0024001,5fd85707af5bd719a5e20419,64aeaab685a29f4ca249be02,64becc53613b1cb6041b60ca,up,-1,0.1786,0.35,5,0,0.4674,,,,,,277,0,277,0,1,,,,,
,,276792,001,2023-07-24_21h10.30.728,arm3_q,2022.2.5,Win32,60.0024001,5fd85707af5bd719a5e20419,64aeaab685a29f4ca249be02,64becc53613b1cb6041b60ca,right,-1,0.1786,0.35,5,-0.021244433,1.8505,,,,,,278,0,278,0,1,,,,,
,,276792,001,2023-07-24_21h10.30.728,arm3_q,2022.2.5,Win32,60.0024001,5fd85707af5bd719a5e20419,64aeaab685a29f4ca249be02,64becc53613b1cb6041b60ca,down,-1,0.1786,0.35,5,0,0.6004,,,,,,279,0,279,0,1,,,,,
,,276792,001,2023-07-24_21h10.30.728,arm3_q,2022.2.5,Win32,60.0024001,5fd85707af5bd719a5e20419,64aeaab685a29f4ca249be02,64becc53613b1cb6041b60ca,right,-1,0.1786,0.35,5,-0.018623031,1.0505,,,,,,280,0,280,0,1,,,,,
,,276792,001,2023-07-24_21h10.30.728,arm3_q,2022.2.5,Win32,60.0024001,5fd85707af5bd719a5e20419,64aeaab685a29f4ca249be02,64becc53613b1cb6041b60ca,right,-1,0.1786,0.35,5,-0.058186995,0.4169,,,,,,281,0,281,0,1,,,,,
,,276792,001,2023-07-24_21h10.30.728,arm3_q,2022.2.5,Win32,60.0024001,5fd85707af5bd719a5e20419,64aeaab685a29f4ca249be02,64becc53613b1cb6041b60ca,down,1,0.1786,0.35,5,0,0.3507,,,,,,282,0,282,0,1,,,,,
,,276792,001,2023-07-24_21h10.30.728,arm3_q,2022.2.5,Win32,60.0024001,5fd85707af5bd719a5e20419,64aeaab685a29f4ca249be02,64becc53613b1cb6041b60ca,right,1,0.1786,0.35,5,0.012652165,0.9838,,,,,,283,0,283,0,1,,,,,
,,276792,001,2023-07-24_21h10.30.728,arm3_q,2022.2.5,Win32,60.0024001,5fd85707af5bd719a5e20419,64aeaab685a29f4ca249be02,64becc53613b1cb6041b60ca,right,1,0.1786,0.35,5,0.021813946,0.4013,,,,,,284,0,284,0,1,,,,,
,,276792,001,2023-07-24_21h10.30.728,arm3_q,2022.2.5,Win32,60.0024001,5fd85707af5bd719a5e20419,64aeaab685a29f4ca249be02,64becc53613b1cb6041b60ca,right,1,0.1786,0.35,5,-0.000720951,1.3672,,,,,,285,0,285,0,1,,,,,
,,276792,001,2023-07-24_21h10.30.728,arm3_q,2022.2.5,Win32,60.0024001,5fd85707af5bd719a5e20419,64aeaab685a29f4ca249be02,64becc53613b1cb6041b60ca,right,1,0.1786,0.35,5,-0.02960052,0.4006,,,,,,286,0,286,0,1,,,,,
,,276792,001,2023-07-24_21h10.30.728,arm3_q,2022.2.5,Win32,60.0024001,5fd85707af5bd719a5e20419,64aeaab685a29f4ca249be02,64becc53613b1cb6041b60ca,down,1,0.1786,0.35,5,0,0.7337,,,,,,287,0,287,0,1,,,,,
,,276792,001,2023-07-24_21h10.30.728,arm3_q,2022.2.5,Win32,60.0024001,5fd85707af5bd719a5e20419,64aeaab685a29f4ca249be02,64becc53613b1cb6041b60ca,right,1,0.1786,0.35,5,0.016170459,0.9504,,,,,,288,0,288,0,1,,,,,
,,276792,001,2023-07-24_21h10.30.728,arm3_q,2022.2.5,Win32,60.0024001,5fd85707af5bd719a5e20419,64aeaab685a29f4ca249be02,64becc53613b1cb6041b60ca,right,1,0.1786,0.35,5,0.020768256,0.4169,,,,,,289,0,289,0,1,,,,,
,,276792,001,2023-07-24_21h10.30.728,arm3_q,2022.2.5,Win32,60.0024001,5fd85707af5bd719a5e20419,64aeaab685a29f4ca249be02,64becc53613b1cb6041b60ca,up,-1,0.1786,0.35,5,0,0.6002,,,,,,290,0,290,0,1,,,,,
,,276792,001,2023-07-24_21h10.30.728,arm3_q,2022.2.5,Win32,60.0024001,5fd85707af5bd719a5e20419,64aeaab685a29f4ca249be02,64becc53613b1cb6041b60ca,right,-1,0.1786,0.35,5,-0.017053148,0.9836,,,,,,291,0,291,0,1,,,,,
,,276792,001,2023-07-24_21h10.30.728,arm3_q,2022.2.5,Win32,60.0024001,5fd85707af5bd719a5e20419,64aeaab685a29f4ca249be02,64becc53613b1cb6041b60ca,right,-1,0.1786,0.35,5,-0.038790055,0.4669,,,,,,292,0,292,0,1,,,,,
,,276792,001,2023-07-24_21h10.30.728,arm3_q,2022.2.5,Win32,60.0024001,5fd85707af5bd719a5e20419,64aeaab685a29f4ca249be02,64becc53613b1cb6041b60ca,down,1,0.1786,0.35,5,0,0.4503,,,,,,293,0,293,0,1,,,,,
,,276792,001,2023-07-24_21h10.30.728,arm3_q,2022.2.5,Win32,60.0024001,5fd85707af5bd719a5e20419,64aeaab685a29f4ca249be02,64becc53613b1cb6041b60ca,right,1,0.1786,0.35,5,0.000271938,0.9835,,,,,,294,0,294,0,1,,,,,
,,276792,001,2023-07-24_21h10.30.728,arm3_q,2022.2.5,Win32,60.0024001,5fd85707af5bd719a5e20419,64aeaab685a29f4ca249be02,64becc53613b1cb6041b60ca,right,1,0.1786,0.35,5,0.016868086,0.4668,,,,,,295,0,295,0,1,,,,,
,,276792,001,2023-07-24_21h10.30.728,arm3_q,2022.2.5,Win32,60.0024001,5fd85707af5bd719a5e20419,64aeaab685a29f4ca249be02,64becc53613b1cb6041b60ca,up,1,0.1786,0.35,6,0,0.4174,,,,,,296,0,296,0,1,,,,,
,,276792,001,2023-07-24_21h10.30.728,arm3_q,2022.2.5,Win32,60.0024001,5fd85707af5bd719a5e20419,64aeaab685a29f4ca249be02,64becc53613b1cb6041b60ca,right,1,0.1786,0.35,6,-0.005301709,1.3337,,,,,,297,0,297,0,1,,,,,
,,276792,001,2023-07-24_21h10.30.728,arm3_q,2022.2.5,Win32,60.0024001,5fd85707af5bd719a5e20419,64aeaab685a29f4ca249be02,64becc53613b1cb6041b60ca,right,1,0.1786,0.35,6,0.031710219,0.4339,,,,,,298,0,298,0,1,,,,,
,,276792,001,2023-07-24_21h10.30.728,arm3_q,2022.2.5,Win32,60.0024001,5fd85707af5bd719a5e20419,64aeaab685a29f4ca249be02,64becc53613b1cb6041b60ca,up,-1,0.1786,0.35,6,0,0.4005,,,,,,299,0,299,0,1,,,,,
,,276792,001,2023-07-24_21h10.30.728,arm3_q,2022.2.5,Win32,60.0024001,5fd85707af5bd719a5e20419,64aeaab685a29f4ca249be02,64becc53613b1cb6041b60ca,right,-1,0.1786,0.35,6,-0.012196026,0.9005,,,,,,300,0,300,0,1,,,,,
,,276792,001,2023-07-24_21h10.30.728,arm3_q,2022.2.5,Win32,60.0024001,5fd85707af5bd719a5e20419,64aeaab685a29f4ca249be02,64becc53613b1cb6041b60ca,right,-1,0.1786,0.35,6,-0.036698397,0.4669,,,,,,301,0,301,0,1,,,,,
,,276792,001,2023-07-24_21h10.30.728,arm3_q,2022.2.5,Win32,60.0024001,5fd85707af5bd719a5e20419,64aeaab685a29f4ca249be02,64becc53613b1cb6041b60ca,down,-1,0.1786,0.35,6,0,0.5337,,,,,,302,0,302,0,1,,,,,
,,276792,001,2023-07-24_21h10.30.728,arm3_q,2022.2.5,Win32,60.0024001,5fd85707af5bd719a5e20419,64aeaab685a29f4ca249be02,64becc53613b1cb6041b60ca,right,-1,0.1786,0.35,6,-0.024296011,0.8336,,,,,,303,0,303,0,1,,,,,
,,276792,001,2023-07-24_21h10.30.728,arm3_q,2022.2.5,Win32,60.0024001,5fd85707af5bd719a5e20419,64aeaab685a29f4ca249be02,64becc53613b1cb6041b60ca,right,-1,0.1786,0.35,6,-0.009353046,0.467,,,,,,304,0,304,0,1,,,,,
,,276792,001,2023-07-24_21h10.30.728,arm3_q,2022.2.5,Win32,60.0024001,5fd85707af5bd719a5e20419,64aeaab685a29f4ca249be02,64becc53613b1cb6041b60ca,down,1,0.1786,0.35,7,0,0.6345,,,,,,305,0,305,0,1,,,,,
,,276792,001,2023-07-24_21h10.30.728,arm3_q,2022.2.5,Win32,60.0024001,5fd85707af5bd719a5e20419,64aeaab685a29f4ca249be02,64becc53613b1cb6041b60ca,right,1,0.1786,0.35,7,0.009718587,1.2507,,,,,,306,0,306,0,1,,,,,
,,276792,001,2023-07-24_21h10.30.728,arm3_q,2022.2.5,Win32,60.0024001,5fd85707af5bd719a5e20419,64aeaab685a29f4ca249be02,64becc53613b1cb6041b60ca,right,1,0.1786,0.35,7,0.029554372,0.4504,,,,,,307,0,307,0,1,,,,,
,,276792,001,2023-07-24_21h10.30.728,arm3_q,2022.2.5,Win32,60.0024001,5fd85707af5bd719a5e20419,64aeaab685a29f4ca249be02,64becc53613b1cb6041b60ca,up,1,0.1786,0.35,7,0,0.417,,,,,,308,0,308,0,1,,,,,
,,276792,001,2023-07-24_21h10.30.728,arm3_q,2022.2.5,Win32,60.0024001,5fd85707af5bd719a5e20419,64aeaab685a29f4ca249be02,64becc53613b1cb6041b60ca,right,1,0.1786,0.35,7,-0.010899452,0.9502,,,,,,309,0,309,0,1,,,,,
,,276792,001,2023-07-24_21h10.30.728,arm3_q,2022.2.5,Win32,60.0024001,5fd85707af5bd719a5e20419,64aeaab685a29f4ca249be02,64becc53613b1cb6041b60ca,up,-1,0.1786,0.35,7,0,0.9837,,,,,,310,0,310,0,1,,,,,
,,276792,001,2023-07-24_21h10.30.728,arm3_q,2022.2.5,Win32,60.0024001,5fd85707af5bd719a5e20419,64aeaab685a29f4ca249be02,64becc53613b1cb6041b60ca,right,-1,0.1786,0.35,7,-0.025508121,0.8837,,,,,,311,0,311,0,1,,,,,
,,276792,001,2023-07-24_21h10.30.728,arm3_q,2022.2.5,Win32,60.0024001,5fd85707af5bd719a5e20419,64aeaab685a29f4ca249be02,64becc53613b1cb6041b60ca,right,-1,0.1786,0.35,7,-0.000837439,0.4836,,,,,,312,0,312,0,1,,,,,
,,276792,001,2023-07-24_21h10.30.728,arm3_q,2022.2.5,Win32,60.0024001,5fd85707af5bd719a5e20419,64aeaab685a29f4ca249be02,64becc53613b1cb6041b60ca,right,-1,0.1786,0.35,7,-0.00331454,0.567,,,,,,313,0,313,0,1,,,,,
,,276792,001,2023-07-24_21h10.30.728,arm3_q,2022.2.5,Win32,60.0024001,5fd85707af5bd719a5e20419,64aeaab685a29f4ca249be02,64becc53613b1cb6041b60ca,right,-1,0.1786,0.35,7,0.003365354,0.6003,,,,,,314,0,314,0,1,,,,,
,,276792,001,2023-07-24_21h10.30.728,arm3_q,2022.2.5,Win32,60.0024001,5fd85707af5bd719a5e20419,64aeaab685a29f4ca249be02,64becc53613b1cb6041b60ca,right,-1,0.1786,0.35,7,-0.001253584,0.8504,,,,,,315,0,315,0,1,,,,,
,,276792,001,2023-07-24_21h10.30.728,arm3_q,2022.2.5,Win32,60.0024001,5fd85707af5bd719a5e20419,64aeaab685a29f4ca249be02,64becc53613b1cb6041b60ca,right,-1,0.1786,0.35,7,0.005170825,0.6504,,,,,,316,0,316,0,1,,,,,
,,276792,001,2023-07-24_21h10.30.728,arm3_q,2022.2.5,Win32,60.0024001,5fd85707af5bd719a5e20419,64aeaab685a29f4ca249be02,64becc53613b1cb6041b60ca,right,-1,0.1786,0.35,7,-0.021315044,0.8171,,,,,,317,0,317,0,1,,,,,
,,276792,001,2023-07-24_21h10.30.728,arm3_q,2022.2.5,Win32,60.0024001,5fd85707af5bd719a5e20419,64aeaab685a29f4ca249be02,64becc53613b1cb6041b60ca,down,1,0.1786,0.35,7,0,0.517,,,,,,318,0,318,0,1,,,,,
,,276792,001,2023-07-24_21h10.30.728,arm3_q,2022.2.5,Win32,60.0024001,5fd85707af5bd719a5e20419,64aeaab685a29f4ca249be02,64becc53613b1cb6041b60ca,right,1,0.1786,0.35,7,0.018780549,1.1169,,,,,,319,0,319,0,1,,,,,
,,276792,001,2023-07-24_21h10.30.728,arm3_q,2022.2.5,Win32,60.0024001,5fd85707af5bd719a5e20419,64aeaab685a29f4ca249be02,64becc53613b1cb6041b60ca,up,1,0.1786,0.35,7,0,0.5672,,,,,,320,0,320,0,1,,,,,
,,276792,001,2023-07-24_21h10.30.728,arm3_q,2022.2.5,Win32,60.0024001,5fd85707af5bd719a5e20419,64aeaab685a29f4ca249be02,64becc53613b1cb6041b60ca,right,1,0.1786,0.35,7,0.003639869,1.2837,,,,,,321,0,321,0,1,,,,,
,,276792,001,2023-07-24_21h10.30.728,arm3_q,2022.2.5,Win32,60.0024001,5fd85707af5bd719a5e20419,64aeaab685a29f4ca249be02,64becc53613b1cb6041b60ca,right,1,0.1786,0.35,7,0.01286908,0.5171,,,,,,322,0,322,0,1,,,,,
,,276792,001,2023-07-24_21h10.30.728,arm3_q,2022.2.5,Win32,60.0024001,5fd85707af5bd719a5e20419,64aeaab685a29f4ca249be02,64becc53613b1cb6041b60ca,right,1,0.1786,0.35,7,3.45086E-05,0.6672,,,,,,323,0,323,0,1,,,,,
,,276792,001,2023-07-24_21h10.30.728,arm3_q,2022.2.5,Win32,60.0024001,5fd85707af5bd719a5e20419,64aeaab685a29f4ca249be02,64becc53613b1cb6041b60ca,up,-1,0.1786,0.35,7,0,0.4693,,,,,,324,0,324,0,1,,,,,
,,276792,001,2023-07-24_21h10.30.728,arm3_q,2022.2.5,Win32,60.0024001,5fd85707af5bd719a5e20419,64aeaab685a29f4ca249be02,64becc53613b1cb6041b60ca,right,-1,0.1786,0.35,7,0.010466283,12.3172,,,,,,325,0,325,0,1,,,,,
,,276792,001,2023-07-24_21h10.30.728,arm3_q,2022.2.5,Win32,60.0024001,5fd85707af5bd719a5e20419,64aeaab685a29f4ca249be02,64becc53613b1cb6041b60ca,right,-1,0.1786,0.35,7,0.007322029,0.4463,,,,,,326,0,326,0,1,,,,,
,,276792,001,2023-07-24_21h10.30.728,arm3_q,2022.2.5,Win32,60.0024001,5fd85707af5bd719a5e20419,64aeaab685a29f4ca249be02,64becc53613b1cb6041b60ca,right,-1,0.1786,0.35,7,0.005700273,0.4335,,,,,,327,0,327,0,1,,,,,
,,276792,001,2023-07-24_21h10.30.728,arm3_q,2022.2.5,Win32,60.0024001,5fd85707af5bd719a5e20419,64aeaab685a29f4ca249be02,64becc53613b1cb6041b60ca,right,-1,0.1786,0.35,7,-0.000470599,0.367,,,,,,328,0,328,0,1,,,,,
,,276792,001,2023-07-24_21h10.30.728,arm3_q,2022.2.5,Win32,60.0024001,5fd85707af5bd719a5e20419,64aeaab685a29f4ca249be02,64becc53613b1cb6041b60ca,down,-1,0.1786,0.35,8,0,0.6506,,,,,,329,0,329,0,1,,,,,
,,276792,001,2023-07-24_21h10.30.728,arm3_q,2022.2.5,Win32,60.0024001,5fd85707af5bd719a5e20419,64aeaab685a29f4ca249be02,64becc53613b1cb6041b60ca,right,-1,0.1786,0.35,8,0.004806835,4.2505,,,,,,330,0,330,0,1,,,,,
,,276792,001,2023-07-24_21h10.30.728,arm3_q,2022.2.5,Win32,60.0024001,5fd85707af5bd719a5e20419,64aeaab685a29f4ca249be02,64becc53613b1cb6041b60ca,right,-1,0.1786,0.35,8,-0.012653637,0.4144,,,,,,331,0,331,0,1,,,,,
,,276792,001,2023-07-24_21h10.30.728,arm3_q,2022.2.5,Win32,60.0024001,5fd85707af5bd719a5e20419,64aeaab685a29f4ca249be02,64becc53613b1cb6041b60ca,right,-1,0.1786,0.35,8,-0.005315627,0.6013,,,,,,332,0,332,0,1,,,,,
,,276792,001,2023-07-24_21h10.30.728,arm3_q,2022.2.5,Win32,60.0024001,5fd85707af5bd719a5e20419,64aeaab685a29f4ca249be02,64becc53613b1cb6041b60ca,down,1,0.1786,0.35,9,0,0.8503,,,,,,333,0,333,0,1,,,,,
,,276792,001,2023-07-24_21h10.30.728,arm3_q,2022.2.5,Win32,60.0024001,5fd85707af5bd719a5e20419,64aeaab685a29f4ca249be02,64becc53613b1cb6041b60ca,right,1,0.1786,0.35,9,-0.00642363,1.5005,,,,,,334,0,334,0,1,,,,,
,,276792,001,2023-07-24_21h10.30.728,arm3_q,2022.2.5,Win32,60.0024001,5fd85707af5bd719a5e20419,64aeaab685a29f4ca249be02,64becc53613b1cb6041b60ca,right,1,0.1786,0.35,9,-0.005679436,0.4004,,,,,,335,0,335,0,1,,,,,
,,276792,001,2023-07-24_21h10.30.728,arm3_q,2022.2.5,Win32,60.0024001,5fd85707af5bd719a5e20419,64aeaab685a29f4ca249be02,64becc53613b1cb6041b60ca,right,1,0.1786,0.35,9,0.006603016,0.5003,,,,,,336,0,336,0,1,,,,,
,,276792,001,2023-07-24_21h10.30.728,arm3_q,2022.2.5,Win32,60.0024001,5fd85707af5bd719a5e20419,64aeaab685a29f4ca249be02,64becc53613b1cb6041b60ca,up,-1,0.1786,0.35,9,0,0.6505,,,,,,337,0,337,0,1,,,,,
,,276792,001,2023-07-24_21h10.30.728,arm3_q,2022.2.5,Win32,60.0024001,5fd85707af5bd719a5e20419,64aeaab685a29f4ca249be02,64becc53613b1cb6041b60ca,right,-1,0.1786,0.35,9,-0.030371508,1.3505,,,,,,338,0,338,0,1,,,,,
,,276792,001,2023-07-24_21h10.30.728,arm3_q,2022.2.5,Win32,60.0024001,5fd85707af5bd719a5e20419,64aeaab685a29f4ca249be02,64becc53613b1cb6041b60ca,right,-1,0.1786,0.35,9,-0.049958531,1.4838,,,,,,339,0,339,0,1,,,,,
,,276792,001,2023-07-24_21h10.30.728,arm3_q,2022.2.5,Win32,60.0024001,5fd85707af5bd719a5e20419,64aeaab685a29f4ca249be02,64becc53613b1cb6041b60ca,down,-1,0.1786,0.35,9,0,0.5671,,,,,,340,0,340,0,1,,,,,
,,276792,001,2023-07-24_21h10.30.728,arm3_q,2022.2.5,Win32,60.0024001,5fd85707af5bd719a5e20419,64aeaab685a29f4ca249be02,64becc53613b1cb6041b60ca,right,-1,0.1786,0.35,9,-0.020384919,0.9502,,,,,,341,0,341,0,1,,,,,
,,276792,001,2023-07-24_21h10.30.728,arm3_q,2022.2.5,Win32,60.0024001,5fd85707af5bd719a5e20419,64aeaab685a29f4ca249be02,64becc53613b1cb6041b60ca,down,-1,0.1786,0.35,9,0,0.8675,,,,,,342,0,342,0,1,,,,,
,,276792,001,2023-07-24_21h10.30.728,arm3_q,2022.2.5,Win32,60.0024001,5fd85707af5bd719a5e20419,64aeaab685a29f4ca249be02,64becc53613b1cb6041b60ca,right,-1,0.1786,0.35,9,-0.002329462,0.9671,,,,,,343,0,343,0,1,,,,,
,,276792,001,2023-07-24_21h10.30.728,arm3_q,2022.2.5,Win32,60.0024001,5fd85707af5bd719a5e20419,64aeaab685a29f4ca249be02,64becc53613b1cb6041b60ca,right,-1,0.1786,0.35,9,0.006295509,0.451,,,,,,344,0,344,0,1,,,,,
,,276792,001,2023-07-24_21h10.30.728,arm3_q,2022.2.5,Win32,60.0024001,5fd85707af5bd719a5e20419,64aeaab685a29f4ca249be02,64becc53613b1cb6041b60ca,right,-1,0.1786,0.35,9,-0.023644212,0.4671,,,,,,345,0,345,0,1,,,,,
,,276792,001,2023-07-24_21h10.30.728,arm3_q,2022.2.5,Win32,60.0024001,5fd85707af5bd719a5e20419,64aeaab685a29f4ca249be02,64becc53613b1cb6041b60ca,down,1,0.1786,0.35,9,0,0.5835,,,,,,346,0,346,0,1,,,,,
,,276792,001,2023-07-24_21h10.30.728,arm3_q,2022.2.5,Win32,60.0024001,5fd85707af5bd719a5e20419,64aeaab685a29f4ca249be02,64becc53613b1cb6041b60ca,right,1,0.1786,0.35,9,0.025528688,0.9336,,,,,,347,0,347,0,1,,,,,
,,276792,001,2023-07-24_21h10.30.728,arm3_q,2022.2.5,Win32,60.0024001,5fd85707af5bd719a5e20419,64aeaab685a29f4ca249be02,64becc53613b1cb6041b60ca,right,1,0.1786,0.35,9,0.027793767,0.4001,,,,,,348,0,348,0,1,,,,,
,,276792,001,2023-07-24_21h10.30.728,arm3_q,2022.2.5,Win32,60.0024001,5fd85707af5bd719a5e20419,64aeaab685a29f4ca249be02,64becc53613b1cb6041b60ca,up,1,0.1786,0.35,9,0,0.534,,,,,,349,0,349,0,1,,,,,
,,276792,001,2023-07-24_21h10.30.728,arm3_q,2022.2.5,Win32,60.0024001,5fd85707af5bd719a5e20419,64aeaab685a29f4ca249be02,64becc53613b1cb6041b60ca,right,1,0.1786,0.35,9,0.026938698,0.9338,,,,,,350,0,350,0,1,,,,,
,,276792,001,2023-07-24_21h10.30.728,arm3_q,2022.2.5,Win32,60.0024001,5fd85707af5bd719a5e20419,64aeaab685a29f4ca249be02,64becc53613b1cb6041b60ca,up,-1,0.1786,0.35,9,0,0.5003,,,,,,351,0,351,0,1,,,,,
,,276792,001,2023-07-24_21h10.30.728,arm3_q,2022.2.5,Win32,60.0024001,5fd85707af5bd719a5e20419,64aeaab685a29f4ca249be02,64becc53613b1cb6041b60ca,right,-1,0.1786,0.35,9,0.001216883,1.1672,,,,,,352,0,352,0,1,,,,,
,,276792,001,2023-07-24_21h10.30.728,arm3_q,2022.2.5,Win32,60.0024001,5fd85707af5bd719a5e20419,64aeaab685a29f4ca249be02,64becc53613b1cb6041b60ca,down,1,0.1786,0.35,9,0,0.7503,,,,,,353,0,353,0,1,,,,,
,,276792,001,2023-07-24_21h10.30.728,arm3_q,2022.2.5,Win32,60.0024001,5fd85707af5bd719a5e20419,64aeaab685a29f4ca249be02,64becc53613b1cb6041b60ca,right,1,0.1786,0.35,9,0.007770045,0.7673,,,,,,354,0,354,0,1,,,,,
,,276792,001,2023-07-24_21h10.30.728,arm3_q,2022.2.5,Win32,60.0024001,5fd85707af5bd719a5e20419,64aeaab685a29f4ca249be02,64becc53613b1cb6041b60ca,up,1,0.1786,0.35,10,0,0.9503,,,,,,355,0,355,0,1,,,,,
,,276792,001,2023-07-24_21h10.30.728,arm3_q,2022.2.5,Win32,60.0024001,5fd85707af5bd719a5e20419,64aeaab685a29f4ca249be02,64becc53613b1cb6041b60ca,right,1,0.1786,0.35,10,-0.00393006,0.9839,,,,,,356,0,356,0,1,,,,,
,,276792,001,2023-07-24_21h10.30.728,arm3_q,2022.2.5,Win32,60.0024001,5fd85707af5bd719a5e20419,64aeaab685a29f4ca249be02,64becc53613b1cb6041b60ca,right,1,0.1786,0.35,10,-0.00731256,0.5676,,,,,,357,0,357,0,1,,,,,
,,276792,001,2023-07-24_21h10.30.728,arm3_q,2022.2.5,Win32,60.0024001,5fd85707af5bd719a5e20419,64aeaab685a29f4ca249be02,64becc53613b1cb6041b60ca,down,1,0.1786,0.35,10,0,0.5171,,,,,,358,0,358,0,1,,,,,
,,276792,001,2023-07-24_21h10.30.728,arm3_q,2022.2.5,Win32,60.0024001,5fd85707af5bd719a5e20419,64aeaab685a29f4ca249be02,64becc53613b1cb6041b60ca,right,1,0.1786,0.35,10,0.000983271,1.3838,,,,,,359,0,359,0,1,,,,,
,,276792,001,2023-07-24_21h10.30.728,arm3_q,2022.2.5,Win32,60.0024001,5fd85707af5bd719a5e20419,64aeaab685a29f4ca249be02,64becc53613b1cb6041b60ca,down,1,0.1786,0.35,9,0,0.5838,,,,,,360,0,360,0,1,,,,,
,,276792,001,2023-07-24_21h10.30.728,arm3_q,2022.2.5,Win32,60.0024001,5fd85707af5bd719a5e20419,64aeaab685a29f4ca249be02,64becc53613b1cb6041b60ca,up,-1,0.1786,0.35,9,0,2.2003,,,,,,361,0,361,0,1,,,,,
,,276792,001,2023-07-24_21h10.30.728,arm3_q,2022.2.5,Win32,60.0024001,5fd85707af5bd719a5e20419,64aeaab685a29f4ca249be02,64becc53613b1cb6041b60ca,down,-1,0.1786,0.35,10,0,1.3671,,,,,,362,0,362,0,1,,,,,
,,276792,001,2023-07-24_21h10.30.728,arm3_q,2022.2.5,Win32,60.0024001,5fd85707af5bd719a5e20419,64aeaab685a29f4ca249be02,64becc53613b1cb6041b60ca,right,-1,0.1786,0.35,10,-0.013603179,1.5838,,,,,,363,0,363,0,1,,,,,
,,276792,001,2023-07-24_21h10.30.728,arm3_q,2022.2.5,Win32,60.0024001,5fd85707af5bd719a5e20419,64aeaab685a29f4ca249be02,64becc53613b1cb6041b60ca,right,-1,0.1786,0.35,10,-0.008036903,0.7504,,,,,,364,0,364,0,1,,,,,
,,276792,001,2023-07-24_21h10.30.728,arm3_q,2022.2.5,Win32,60.0024001,5fd85707af5bd719a5e20419,64aeaab685a29f4ca249be02,64becc53613b1cb6041b60ca,down,-1,0.1786,0.35,10,0,0.5839,,,,,,365,0,365,0,1,,,,,
,,276792,001,2023-07-24_21h10.30.728,arm3_q,2022.2.5,Win32,60.0024001,5fd85707af5bd719a5e20419,64aeaab685a29f4ca249be02,64becc53613b1cb6041b60ca,right,-1,0.1786,0.35,10,-0.002626161,2.4667,,,,,,366,0,366,0,1,,,,,
,,276792,001,2023-07-24_21h10.30.728,arm3_q,2022.2.5,Win32,60.0024001,5fd85707af5bd719a5e20419,64aeaab685a29f4ca249be02,64becc53613b1cb6041b60ca,right,-1,0.1786,0.35,10,-0.00440467,0.4004,,,,,,367,0,367,0,1,,,,,
,,276792,001,2023-07-24_21h10.30.728,arm3_q,2022.2.5,Win32,60.0024001,5fd85707af5bd719a5e20419,64aeaab685a29f4ca249be02,64becc53613b1cb6041b60ca,down,-1,0.1786,0.35,10,0,0.6671,,,,,,368,0,368,0,1,,,,,
,,276792,001,2023-07-24_21h10.30.728,arm3_q,2022.2.5,Win32,60.0024001,5fd85707af5bd719a5e20419,64aeaab685a29f4ca249be02,64becc53613b1cb6041b60ca,right,-1,0.1786,0.35,10,0.003944689,2.3837,,,,,,369,0,369,0,1,,,,,
,,276792,001,2023-07-24_21h10.30.728,arm3_q,2022.2.5,Win32,60.0024001,5fd85707af5bd719a5e20419,64aeaab685a29f4ca249be02,64becc53613b1cb6041b60ca,,,,,,,,,,,,,,,,,,0,0,0,0,1
space,19.1836,276792,001,2023-07-24_21h10.30.728,arm3_q,2022.2.5,Win32,60.0024001,5fd85707af5bd719a5e20419,64aeaab685a29f4ca249be02,64becc53613b1cb6041b60ca,right,-1,0.6929,0.35,10,0.009474251,0.8407,,,,,,0,0,0,0,1,,,,,
,,276792,001,2023-07-24_21h10.30.728,arm3_q,2022.2.5,Win32,60.0024001,5fd85707af5bd719a5e20419,64aeaab685a29f4ca249be02,64becc53613b1cb6041b60ca,right,-1,0.6929,0.35,10,-0.018156907,0.317,,,,,,1,0,1,0,1,,,,,
,,276792,001,2023-07-24_21h10.30.728,arm3_q,2022.2.5,Win32,60.0024001,5fd85707af5bd719a5e20419,64aeaab685a29f4ca249be02,64becc53613b1cb6041b60ca,up,1,0.6929,0.35,10,0,0.4837,,,,,,2,0,2,0,1,,,,,
,,276792,001,2023-07-24_21h10.30.728,arm3_q,2022.2.5,Win32,60.0024001,5fd85707af5bd719a5e20419,64aeaab685a29f4ca249be02,64becc53613b1cb6041b60ca,right,1,0.6929,0.35,10,0.036262412,0.8004,,,,,,3,0,3,0,1,,,,,
,,276792,001,2023-07-24_21h10.30.728,arm3_q,2022.2.5,Win32,60.0024001,5fd85707af5bd719a5e20419,64aeaab685a29f4ca249be02,64becc53613b1cb6041b60ca,right,1,0.6929,0.35,10,0.03024303,0.3507,,,,,,4,0,4,0,1,,,,,
,,276792,001,2023-07-24_21h10.30.728,arm3_q,2022.2.5,Win32,60.0024001,5fd85707af5bd719a5e20419,64aeaab685a29f4ca249be02,64becc53613b1cb6041b60ca,right,1,0.6929,0.35,10,0.021863961,0.8172,,,,,,5,0,5,0,1,,,,,
,,276792,001,2023-07-24_21h10.30.728,arm3_q,2022.2.5,Win32,60.0024001,5fd85707af5bd719a5e20419,64aeaab685a29f4ca249be02,64becc53613b1cb6041b60ca,up,-1,0.6929,0.35,11,0,0.517,,,,,,6,0,6,0,1,,,,,
,,276792,001,2023-07-24_21h10.30.728,arm3_q,2022.2.5,Win32,60.0024001,5fd85707af5bd719a5e20419,64aeaab685a29f4ca249be02,64becc53613b1cb6041b60ca,right,-1,0.6929,0.35,11,0.031452329,0.7657,,,,,,7,0,7,0,1,,,,,
,,276792,001,2023-07-24_21h10.30.728,arm3_q,2022.2.5,Win32,60.0024001,5fd85707af5bd719a5e20419,64aeaab685a29f4ca249be02,64becc53613b1cb6041b60ca,right,-1,0.6929,0.35,11,0.025679634,0.1501,,,,,,8,0,8,0,1,,,,,
,,276792,001,2023-07-24_21h10.30.728,arm3_q,2022.2.5,Win32,60.0024001,5fd85707af5bd719a5e20419,64aeaab685a29f4ca249be02,64becc53613b1cb6041b60ca,right,-1,0.6929,0.35,11,0.01323177,0.3337,,,,,,9,0,9,0,1,,,,,
,,276792,001,2023-07-24_21h10.30.728,arm3_q,2022.2.5,Win32,60.0024001,5fd85707af5bd719a5e20419,64aeaab685a29f4ca249be02,64becc53613b1cb6041b60ca,right,-1,0.6929,0.35,11,0.009762291,0.3506,,,,,,10,0,10,0,1,,,,,
,,276792,001,2023-07-24_21h10.30.728,arm3_q,2022.2.5,Win32,60.0024001,5fd85707af5bd719a5e20419,64aeaab685a29f4ca249be02,64becc53613b1cb6041b60ca,right,-1,0.6929,0.35,11,0.00329209,0.3672,,,,,,11,0,11,0,1,,,,,
,,276792,001,2023-07-24_21h10.30.728,arm3_q,2022.2.5,Win32,60.0024001,5fd85707af5bd719a5e20419,64aeaab685a29f4ca249be02,64becc53613b1cb6041b60ca,down,-1,0.6929,0.35,11,0,0.5334,,,,,,12,0,12,0,1,,,,,
,,276792,001,2023-07-24_21h10.30.728,arm3_q,2022.2.5,Win32,60.0024001,5fd85707af5bd719a5e20419,64aeaab685a29f4ca249be02,64becc53613b1cb6041b60ca,right,-1,0.6929,0.35,11,0.00035803,0.8004,,,,,,13,0,13,0,1,,,,,
,,276792,001,2023-07-24_21h10.30.728,arm3_q,2022.2.5,Win32,60.0024001,5fd85707af5bd719a5e20419,64aeaab685a29f4ca249be02,64becc53613b1cb6041b60ca,right,-1,0.6929,0.35,11,-0.019182012,0.1171,,,,,,14,0,14,0,1,,,,,
,,276792,001,2023-07-24_21h10.30.728,arm3_q,2022.2.5,Win32,60.0024001,5fd85707af5bd719a5e20419,64aeaab685a29f4ca249be02,64becc53613b1cb6041b60ca,right,-1,0.6929,0.35,11,-0.00206362,0.5003,,,,,,15,0,15,0,1,,,,,
,,276792,001,2023-07-24_21h10.30.728,arm3_q,2022.2.5,Win32,60.0024001,5fd85707af5bd719a5e20419,64aeaab685a29f4ca249be02,64becc53613b1cb6041b60ca,right,-1,0.6929,0.35,11,0.033686305,0.2674,,,,,,16,0,16,0,1,,,,,
,,276792,001,2023-07-24_21h10.30.728,arm3_q,2022.2.5,Win32,60.0024001,5fd85707af5bd719a5e20419,64aeaab685a29f4ca249be02,64becc53613b1cb6041b60ca,up,-1,0.6929,0.35,10,0,0.4336,,,,,,17,0,17,0,1,,,,,
,,276792,001,2023-07-24_21h10.30.728,arm3_q,2022.2.5,Win32,60.0024001,5fd85707af5bd719a5e20419,64aeaab685a29f4ca249be02,64becc53613b1cb6041b60ca,right,-1,0.6929,0.35,10,0.016599898,0.817,,,,,,18,0,18,0,1,,,,,
,,276792,001,2023-07-24_21h10.30.728,arm3_q,2022.2.5,Win32,60.0024001,5fd85707af5bd719a5e20419,64aeaab685a29f4ca249be02,64becc53613b1cb6041b60ca,right,-1,0.6929,0.35,10,0.016272166,0.1174,,,,,,19,0,19,0,1,,,,,
,,276792,001,2023-07-24_21h10.30.728,arm3_q,2022.2.5,Win32,60.0024001,5fd85707af5bd719a5e20419,64aeaab685a29f4ca249be02,64becc53613b1cb6041b60ca,right,-1,0.6929,0.35,10,-0.013952971,0.3839,,,,,,20,0,20,0,1,,,,,
,,276792,001,2023-07-24_21h10.30.728,arm3_q,2022.2.5,Win32,60.0024001,5fd85707af5bd719a5e20419,64aeaab685a29f4ca249be02,64becc53613b1cb6041b60ca,right,-1,0.6929,0.35,10,0.004090844,0.4509,,,,,,21,0,21,0,1,,,,,
,,276792,001,2023-07-24_21h10.30.728,arm3_q,2022.2.5,Win32,60.0024001,5fd85707af5bd719a5e20419,64aeaab685a29f4ca249be02,64becc53613b1cb6041b60ca,right,-1,0.6929,0.35,10,0.011111659,0.1172,,,,,,22,0,22,0,1,,,,,
,,276792,001,2023-07-24_21h10.30.728,arm3_q,2022.2.5,Win32,60.0024001,5fd85707af5bd719a5e20419,64aeaab685a29f4ca249be02,64becc53613b1cb6041b60ca,right,-1,0.6929,0.35,10,-0.002895024,0.367,,,,,,23,0,23,0,1,,,,,
,,276792,001,2023-07-24_21h10.30.728,arm3_q,2022.2.5,Win32,60.0024001,5fd85707af5bd719a5e20419,64aeaab685a29f4ca249be02,64becc53613b1cb6041b60ca,right,-1,0.6929,0.35,10,-0.009158064,0.4004,,,,,,24,0,24,0,1,,,,,
,,276792,001,2023-07-24_21h10.30.728,arm3_q,2022.2.5,Win32,60.0024001,5fd85707af5bd719a5e20419,64aeaab685a29f4ca249be02,64becc53613b1cb6041b60ca,right,-1,0.6929,0.35,10,-0.043705362,0.117,,,,,,25,0,25,0,1,,,,,
,,276792,001,2023-07-24_21h10.30.728,arm3_q,2022.2.5,Win32,60.0024001,5fd85707af5bd719a5e20419,64aeaab685a29f4ca249be02,64becc53613b1cb6041b60ca,down,-1,0.6929,0.35,11,0,0.5837,,,,,,26,0,26,0,1,,,,,
,,276792,001,2023-07-24_21h10.30.728,arm3_q,2022.2.5,Win32,60.0024001,5fd85707af5bd719a5e20419,64aeaab685a29f4ca249be02,64becc53613b1cb6041b60ca,right,-1,0.6929,0.35,11,0.0070491,0.8009,,,,,,27,0,27,0,1,,,,,
,,276792,001,2023-07-24_21h10.30.728,arm3_q,2022.2.5,Win32,60.0024001,5fd85707af5bd719a5e20419,64aeaab685a29f4ca249be02,64becc53613b1cb6041b60ca,right,-1,0.6929,0.35,11,0.013830767,0.1336,,,,,,28,0,28,0,1,,,,,
,,276792,001,2023-07-24_21h10.30.728,arm3_q,2022.2.5,Win32,60.0024001,5fd85707af5bd719a5e20419,64aeaab685a29f4ca249be02,64becc53613b1cb6041b60ca,right,-1,0.6929,0.35,11,0.025507329,0.3339,,,,,,29,0,29,0,1,,,,,
,,276792,001,2023-07-24_21h10.30.728,arm3_q,2022.2.5,Win32,60.0024001,5fd85707af5bd719a5e20419,64aeaab685a29f4ca249be02,64becc53613b1cb6041b60ca,right,-1,0.6929,0.35,11,0.025891323,0.5171,,,,,,30,0,30,0,1,,,,,
,,276792,001,2023-07-24_21h10.30.728,arm3_q,2022.2.5,Win32,60.0024001,5fd85707af5bd719a5e20419,64aeaab685a29f4ca249be02,64becc53613b1cb6041b60ca,right,-1,0.6929,0.35,11,0.021221884,0.417,,,,,,31,0,31,0,1,,,,,
,,276792,001,2023-07-24_21h10.30.728,arm3_q,2022.2.5,Win32,60.0024001,5fd85707af5bd719a5e20419,64aeaab685a29f4ca249be02,64becc53613b1cb6041b60ca,right,-1,0.6929,0.35,11,-0.025173997,0.1171,,,,,,32,0,32,0,1,,,,,
,,276792,001,2023-07-24_21h10.30.728,arm3_q,2022.2.5,Win32,60.0024001,5fd85707af5bd719a5e20419,64aeaab685a29f4ca249be02,64becc53613b1cb6041b60ca,right,-1,0.6929,0.35,11,-0.070283943,0.4004,,,,,,33,0,33,0,1,,,,,
,,276792,001,2023-07-24_21h10.30.728,arm3_q,2022.2.5,Win32,60.0024001,5fd85707af5bd719a5e20419,64aeaab685a29f4ca249be02,64becc53613b1cb6041b60ca,right,-1,0.6929,0.35,11,-0.060193615,0.4172,,,,,,34,0,34,0,1,,,,,
,,276792,001,2023-07-24_21h10.30.728,arm3_q,2022.2.5,Win32,60.0024001,5fd85707af5bd719a5e20419,64aeaab685a29f4ca249be02,64becc53613b1cb6041b60ca,down,-1,0.6929,0.35,12,0,0.4671,,,,,,35,0,35,0,1,,,,,
,,276792,001,2023-07-24_21h10.30.728,arm3_q,2022.2.5,Win32,60.0024001,5fd85707af5bd719a5e20419,64aeaab685a29f4ca249be02,64becc53613b1cb6041b60ca,right,-1,0.6929,0.35,12,-0.04061778,0.8009,,,,,,36,0,36,0,1,,,,,
,,276792,001,2023-07-24_21h10.30.728,arm3_q,2022.2.5,Win32,60.0024001,5fd85707af5bd719a5e20419,64aeaab685a29f4ca249be02,64becc53613b1cb6041b60ca,right,-1,0.6929,0.35,12,-0.041351451,0.1336,,,,,,37,0,37,0,1,,,,,
,,276792,001,2023-07-24_21h10.30.728,arm3_q,2022.2.5,Win32,60.0024001,5fd85707af5bd719a5e20419,64aeaab685a29f4ca249be02,64becc53613b1cb6041b60ca,right,-1,0.6929,0.35,12,-0.04703703,0.3838,,,,,,38,0,38,0,1,,,,,
,,276792,001,2023-07-24_21h10.30.728,arm3_q,2022.2.5,Win32,60.0024001,5fd85707af5bd719a5e20419,64aeaab685a29f4ca249be02,64becc53613b1cb6041b60ca,right,-1,0.6929,0.35,12,-0.037342774,0.2503,,,,,,39,0,39,0,1,,,,,
,,276792,001,2023-07-24_21h10.30.728,arm3_q,2022.2.5,Win32,60.0024001,5fd85707af5bd719a5e20419,64aeaab685a29f4ca249be02,64becc53613b1cb6041b60ca,right,-1,0.6929,0.35,12,-0.017609256,0.1019,,,,,,40,0,40,0,1,,,,,
,,276792,001,2023-07-24_21h10.30.728,arm3_q,2022.2.5,Win32,60.0024001,5fd85707af5bd719a5e20419,64aeaab685a29f4ca249be02,64becc53613b1cb6041b60ca,right,-1,0.6929,0.35,12,-0.011274723,0.3507,,,,,,41,0,41,0,1,,,,,
,,276792,001,2023-07-24_21h10.30.728,arm3_q,2022.2.5,Win32,60.0024001,5fd85707af5bd719a5e20419,64aeaab685a29f4ca249be02,64becc53613b1cb6041b60ca,right,-1,0.6929,0.35,12,-0.038923882,0.3004,,,,,,42,0,42,0,1,,,,,
,,276792,001,2023-07-24_21h10.30.728,arm3_q,2022.2.5,Win32,60.0024001,5fd85707af5bd719a5e20419,64aeaab685a29f4ca249be02,64becc53613b1cb6041b60ca,right,-1,0.6929,0.35,12,-0.077615862,0.1169,,,,,,43,0,43,0,1,,,,,
,,276792,001,2023-07-24_21h10.30.728,arm3_q,2022.2.5,Win32,60.0024001,5fd85707af5bd719a5e20419,64aeaab685a29f4ca249be02,64becc53613b1cb6041b60ca,down,-1,0.6929,0.35,13,0,0.5169,,,,,,44,0,44,0,1,,,,,
,,276792,001,2023-07-24_21h10.30.728,arm3_q,2022.2.5,Win32,60.0024001,5fd85707af5bd719a5e20419,64aeaab685a29f4ca249be02,64becc53613b1cb6041b60ca,right,-1,0.6929,0.35,13,-0.015128401,0.7838,,,,,,45,0,45,0,1,,,,,
,,276792,001,2023-07-24_21h10.30.728,arm3_q,2022.2.5,Win32,60.0024001,5fd85707af5bd719a5e20419,64aeaab685a29f4ca249be02,64becc53613b1cb6041b60ca,right,-1,0.6929,0.35,13,-0.043452916,0.1006,,,,,,46,0,46,0,1,,,,,
,,276792,001,2023-07-24_21h10.30.728,arm3_q,2022.2.5,Win32,60.0024001,5fd85707af5bd719a5e20419,64aeaab685a29f4ca249be02,64becc53613b1cb6041b60ca,right,-1,0.6929,0.35,13,-0.058566128,0.3673,,,,,,47,0,47,0,1,,,,,
,,276792,001,2023-07-24_21h10.30.728,arm3_q,2022.2.5,Win32,60.0024001,5fd85707af5bd719a5e20419,64aeaab685a29f4ca249be02,64becc53613b1cb6041b60ca,right,-1,0.6929,0.35,13,-0.049645367,0.4005,,,,,,48,0,48,0,1,,,,,
