space_bar.keys,space_bar.rt,participant,session,date,expName,psychopyVersion,OS,frameRate,PROLIFIC_PID,STUDY_ID,SESSION_ID,resp.keys,state,q_prob,eps_prob,score,price,resp.rt,train.thisRepN,train.thisTrialN,train.thisN,train.thisIndex,train.ran,steps.thisRepN,steps.thisTrialN,steps.thisN,steps.thisIndex,steps.ran,blocks.thisRepN,blocks.thisTrialN,blocks.thisN,blocks.thisIndex,blocks.ran
space,5.9396,282692,001,2023-07-24_20h02.54.842,arm3_q,2022.2.5,Win32,60.02040694,5e8654505276a10fe5e2633b,64aeaab685a29f4ca249be02,64bec9d47e9af4da1164cedb,,,,,,,,,,,,,,,,,,,,,,
space,11.2601,282692,001,2023-07-24_20h02.54.842,arm3_q,2022.2.5,Win32,60.02040694,5e8654505276a10fe5e2633b,64aeaab685a29f4ca249be02,64bec9d47e9af4da1164cedb,,,,,,,,,,,,,,,,,,,,,,
space,9.4118,282692,001,2023-07-24_20h02.54.842,arm3_q,2022.2.5,Win32,60.02040694,5e8654505276a10fe5e2633b,64aeaab685a29f4ca249be02,64bec9d47e9af4da1164cedb,,,,,,,,,,,,,,,,,,,,,,
space,20.5171,282692,001,2023-07-24_20h02.54.842,arm3_q,2022.2.5,Win32,60.02040694,5e8654505276a10fe5e2633b,64aeaab685a29f4ca249be02,64bec9d47e9af4da1164cedb,,,,,,,,,,,,,,,,,,,,,,
space,16.2538,282692,001,2023-07-24_20h02.54.842,arm3_q,2022.2.5,Win32,60.02040694,5e8654505276a10fe5e2633b,64aeaab685a29f4ca249be02,64bec9d47e9af4da1164cedb,,,,,,,,,,,,,,,,,,,,,,
space,19.9823,282692,001,2023-07-24_20h02.54.842,arm3_q,2022.2.5,Win32,60.02040694,5e8654505276a10fe5e2633b,64aeaab685a29f4ca249be02,64bec9d47e9af4da1164cedb,,,,,,,,,,,,,,,,,,,,,,
space,12.654,282692,001,2023-07-24_20h02.54.842,arm3_q,2022.2.5,Win32,60.02040694,5e8654505276a10fe5e2633b,64aeaab685a29f4ca249be02,64bec9d47e9af4da1164cedb,,,,,,,,,,,,,,,,,,,,,,
space,8.9825,282692,001,2023-07-24_20h02.54.842,arm3_q,2022.2.5,Win32,60.02040694,5e8654505276a10fe5e2633b,64aeaab685a29f4ca249be02,64bec9d47e9af4da1164cedb,,,,,,,,,,,,,,,,,,,,,,
space,10.7901,282692,001,2023-07-24_20h02.54.842,arm3_q,2022.2.5,Win32,60.02040694,5e8654505276a10fe5e2633b,64aeaab685a29f4ca249be02,64bec9d47e9af4da1164cedb,,,,,,,,,,,,,,,,,,,,,,
space,8.562,282692,001,2023-07-24_20h02.54.842,arm3_q,2022.2.5,Win32,60.02040694,5e8654505276a10fe5e2633b,64aeaab685a29f4ca249be02,64bec9d47e9af4da1164cedb,,,,,,,,,,,,,,,,,,,,,,
,,282692,001,2023-07-24_20h02.54.842,arm3_q,2022.2.5,Win32,60.02040694,5e8654505276a10fe5e2633b,64aeaab685a29f4ca249be02,64bec9d47e9af4da1164cedb,up,1,0.5643,0.35,0,0,4.0923,0,0,0,0,1,,,,,,,,,,
,,282692,001,2023-07-24_20h02.54.842,arm3_q,2022.2.5,Win32,60.02040694,5e8654505276a10fe5e2633b,64aeaab685a29f4ca249be02,64bec9d47e9af4da1164cedb,up,1,0.5643,0.35,1,0,3.0126,1,0,1,0,1,,,,,,,,,,
,,282692,001,2023-07-24_20h02.54.842,arm3_q,2022.2.5,Win32,60.02040694,5e8654505276a10fe5e2633b,64aeaab685a29f4ca249be02,64bec9d47e9af4da1164cedb,down,1,0.5643,0.35,1,0,1.7076,2,0,2,0,1,,,,,,,,,,
,,282692,001,2023-07-24_20h02.54.842,arm3_q,2022.2.5,Win32,60.02040694,5e8654505276a10fe5e2633b,64aeaab685a29f4ca249be02,64bec9d47e9af4da1164cedb,right,1,0.5643,0.35,1,0.001796005,2.0941,3,0,3,0,1,,,,,,,,,,
,,282692,001,2023-07-24_20h02.54.842,arm3_q,2022.2.5,Win32,60.02040694,5e8654505276a10fe5e2633b,64aeaab685a29f4ca249be02,64bec9d47e9af4da1164cedb,down,1,0.5643,0.35,1,0,1.3708,4,0,4,0,1,,,,,,,,,,
,,282692,001,2023-07-24_20h02.54.842,arm3_q,2022.2.5,Win32,60.02040694,5e8654505276a10fe5e2633b,64aeaab685a29f4ca249be02,64bec9d47e9af4da1164cedb,up,1,0.5643,0.35,1,0,1.4512,5,0,5,0,1,,,,,,,,,,
,,282692,001,2023-07-24_20h02.54.842,arm3_q,2022.2.5,Win32,60.02040694,5e8654505276a10fe5e2633b,64aeaab685a29f4ca249be02,64bec9d47e9af4da1164cedb,down,1,0.5643,0.35,1,0,2.029,6,0,6,0,1,,,,,,,,,,
,,282692,001,2023-07-24_20h02.54.842,arm3_q,2022.2.5,Win32,60.02040694,5e8654505276a10fe5e2633b,64aeaab685a29f4ca249be02,64bec9d47e9af4da1164cedb,down,1,0.5643,0.35,0,0,1.4392,7,0,7,0,1,,,,,,,,,,
,,282692,001,2023-07-24_20h02.54.842,arm3_q,2022.2.5,Win32,60.02040694,5e8654505276a10fe5e2633b,64aeaab685a29f4ca249be02,64bec9d47e9af4da1164cedb,up,1,0.5643,0.35,0,0,1.6683,8,0,8,0,1,,,,,,,,,,
,,282692,001,2023-07-24_20h02.54.842,arm3_q,2022.2.5,Win32,60.02040694,5e8654505276a10fe5e2633b,64aeaab685a29f4ca249be02,64bec9d47e9af4da1164cedb,right,1,0.5643,0.35,0,-0.013715437,2.7093,9,0,9,0,1,,,,,,,,,,
,,282692,001,2023-07-24_20h02.54.842,arm3_q,2022.2.5,Win32,60.02040694,5e8654505276a10fe5e2633b,64aeaab685a29f4ca249be02,64bec9d47e9af4da1164cedb,right,1,0.5643,0.35,0,-0.009252469,0.8667,10,0,10,0,1,,,,,,,,,,
,,282692,001,2023-07-24_20h02.54.842,arm3_q,2022.2.5,Win32,60.02040694,5e8654505276a10fe5e2633b,64aeaab685a29f4ca249be02,64bec9d47e9af4da1164cedb,up,1,0.5643,0.35,0,0,0.6306,11,0,11,0,1,,,,,,,,,,
,,282692,001,2023-07-24_20h02.54.842,arm3_q,2022.2.5,Win32,60.02040694,5e8654505276a10fe5e2633b,64aeaab685a29f4ca249be02,64bec9d47e9af4da1164cedb,right,1,0.5643,0.35,0,-0.01451111,1.6011,12,0,12,0,1,,,,,,,,,,
,,282692,001,2023-07-24_20h02.54.842,arm3_q,2022.2.5,Win32,60.02040694,5e8654505276a10fe5e2633b,64aeaab685a29f4ca249be02,64bec9d47e9af4da1164cedb,right,1,0.5643,0.35,0,-0.016121269,0.4631,13,0,13,0,1,,,,,,,,,,
,,282692,001,2023-07-24_20h02.54.842,arm3_q,2022.2.5,Win32,60.02040694,5e8654505276a10fe5e2633b,64aeaab685a29f4ca249be02,64bec9d47e9af4da1164cedb,right,1,0.5643,0.35,0,0.010233106,1.0382,14,0,14,0,1,,,,,,,,,,
,,282692,001,2023-07-24_20h02.54.842,arm3_q,2022.2.5,Win32,60.02040694,5e8654505276a10fe5e2633b,64aeaab685a29f4ca249be02,64bec9d47e9af4da1164cedb,up,1,0.5643,0.35,0,0,0.4795,15,0,15,0,1,,,,,,,,,,
,,282692,001,2023-07-24_20h02.54.842,arm3_q,2022.2.5,Win32,60.02040694,5e8654505276a10fe5e2633b,64aeaab685a29f4ca249be02,64bec9d47e9af4da1164cedb,right,1,0.5643,0.35,0,0.035672367,1.4167,16,0,16,0,1,,,,,,,,,,
,,282692,001,2023-07-24_20h02.54.842,arm3_q,2022.2.5,Win32,60.02040694,5e8654505276a10fe5e2633b,64aeaab685a29f4ca249be02,64bec9d47e9af4da1164cedb,right,1,0.5643,0.35,0,0.04740078,0.7151,17,0,17,0,1,,,,,,,,,,
,,282692,001,2023-07-24_20h02.54.842,arm3_q,2022.2.5,Win32,60.02040694,5e8654505276a10fe5e2633b,64aeaab685a29f4ca249be02,64bec9d47e9af4da1164cedb,right,1,0.5643,0.35,0,0.083378747,0.5896,18,0,18,0,1,,,,,,,,,,
,,282692,001,2023-07-24_20h02.54.842,arm3_q,2022.2.5,Win32,60.02040694,5e8654505276a10fe5e2633b,64aeaab685a29f4ca249be02,64bec9d47e9af4da1164cedb,up,1,0.5643,0.35,1,0,0.9437,19,0,19,0,1,,,,,,,,,,
,,282692,001,2023-07-24_20h02.54.842,arm3_q,2022.2.5,Win32,60.02040694,5e8654505276a10fe5e2633b,64aeaab685a29f4ca249be02,64bec9d47e9af4da1164cedb,right,1,0.5643,0.35,1,0.027995149,1.0741,20,0,20,0,1,,,,,,,,,,
,,282692,001,2023-07-24_20h02.54.842,arm3_q,2022.2.5,Win32,60.02040694,5e8654505276a10fe5e2633b,64aeaab685a29f4ca249be02,64bec9d47e9af4da1164cedb,right,1,0.5643,0.35,1,0.029867841,0.4283,21,0,21,0,1,,,,,,,,,,
,,282692,001,2023-07-24_20h02.54.842,arm3_q,2022.2.5,Win32,60.02040694,5e8654505276a10fe5e2633b,64aeaab685a29f4ca249be02,64bec9d47e9af4da1164cedb,down,1,0.5643,0.35,0,0,1.0635,22,0,22,0,1,,,,,,,,,,
,,282692,001,2023-07-24_20h02.54.842,arm3_q,2022.2.5,Win32,60.02040694,5e8654505276a10fe5e2633b,64aeaab685a29f4ca249be02,64bec9d47e9af4da1164cedb,right,1,0.5643,0.35,0,-0.00496198,2.0832,23,0,23,0,1,,,,,,,,,,
,,282692,001,2023-07-24_20h02.54.842,arm3_q,2022.2.5,Win32,60.02040694,5e8654505276a10fe5e2633b,64aeaab685a29f4ca249be02,64bec9d47e9af4da1164cedb,right,1,0.5643,0.35,0,0.01084225,0.3481,24,0,24,0,1,,,,,,,,,,
,,282692,001,2023-07-24_20h02.54.842,arm3_q,2022.2.5,Win32,60.02040694,5e8654505276a10fe5e2633b,64aeaab685a29f4ca249be02,64bec9d47e9af4da1164cedb,right,1,0.5643,0.35,0,-0.001266895,0.3965,25,0,25,0,1,,,,,,,,,,
,,282692,001,2023-07-24_20h02.54.842,arm3_q,2022.2.5,Win32,60.02040694,5e8654505276a10fe5e2633b,64aeaab685a29f4ca249be02,64bec9d47e9af4da1164cedb,right,1,0.5643,0.35,0,0.007281478,0.8305,26,0,26,0,1,,,,,,,,,,
,,282692,001,2023-07-24_20h02.54.842,arm3_q,2022.2.5,Win32,60.02040694,5e8654505276a10fe5e2633b,64aeaab685a29f4ca249be02,64bec9d47e9af4da1164cedb,up,1,0.5643,0.35,1,0,1.465,27,0,27,0,1,,,,,,,,,,
,,282692,001,2023-07-24_20h02.54.842,arm3_q,2022.2.5,Win32,60.02040694,5e8654505276a10fe5e2633b,64aeaab685a29f4ca249be02,64bec9d47e9af4da1164cedb,right,1,0.5643,0.35,1,-0.005691103,1.2878,28,0,28,0,1,,,,,,,,,,
,,282692,001,2023-07-24_20h02.54.842,arm3_q,2022.2.5,Win32,60.02040694,5e8654505276a10fe5e2633b,64aeaab685a29f4ca249be02,64bec9d47e9af4da1164cedb,up,1,0.5643,0.35,1,0,0.8659,29,0,29,0,1,,,,,,,,,,
,,282692,001,2023-07-24_20h02.54.842,arm3_q,2022.2.5,Win32,60.02040694,5e8654505276a10fe5e2633b,64aeaab685a29f4ca249be02,64bec9d47e9af4da1164cedb,right,1,0.5643,0.35,1,0.000575212,0.9103,30,0,30,0,1,,,,,,,,,,
,,282692,001,2023-07-24_20h02.54.842,arm3_q,2022.2.5,Win32,60.02040694,5e8654505276a10fe5e2633b,64aeaab685a29f4ca249be02,64bec9d47e9af4da1164cedb,right,1,0.5643,0.35,1,0.02452818,0.4845,31,0,31,0,1,,,,,,,,,,
,,282692,001,2023-07-24_20h02.54.842,arm3_q,2022.2.5,Win32,60.02040694,5e8654505276a10fe5e2633b,64aeaab685a29f4ca249be02,64bec9d47e9af4da1164cedb,up,1,0.5643,0.35,1,0,0.3852,32,0,32,0,1,,,,,,,,,,
,,282692,001,2023-07-24_20h02.54.842,arm3_q,2022.2.5,Win32,60.02040694,5e8654505276a10fe5e2633b,64aeaab685a29f4ca249be02,64bec9d47e9af4da1164cedb,right,1,0.5643,0.35,1,0.018977081,0.8164,33,0,33,0,1,,,,,,,,,,
,,282692,001,2023-07-24_20h02.54.842,arm3_q,2022.2.5,Win32,60.02040694,5e8654505276a10fe5e2633b,64aeaab685a29f4ca249be02,64bec9d47e9af4da1164cedb,right,1,0.5643,0.35,1,0.023051716,0.4246,34,0,34,0,1,,,,,,,,,,
,,282692,001,2023-07-24_20h02.54.842,arm3_q,2022.2.5,Win32,60.02040694,5e8654505276a10fe5e2633b,64aeaab685a29f4ca249be02,64bec9d47e9af4da1164cedb,up,1,0.5643,0.35,1,0,0.5145,35,0,35,0,1,,,,,,,,,,
,,282692,001,2023-07-24_20h02.54.842,arm3_q,2022.2.5,Win32,60.02040694,5e8654505276a10fe5e2633b,64aeaab685a29f4ca249be02,64bec9d47e9af4da1164cedb,right,1,0.5643,0.35,1,-0.020020821,0.9733,36,0,36,0,1,,,,,,,,,,
,,282692,001,2023-07-24_20h02.54.842,arm3_q,2022.2.5,Win32,60.02040694,5e8654505276a10fe5e2633b,64aeaab685a29f4ca249be02,64bec9d47e9af4da1164cedb,right,1,0.5643,0.35,1,-0.005131679,0.523,37,0,37,0,1,,,,,,,,,,
,,282692,001,2023-07-24_20h02.54.842,arm3_q,2022.2.5,Win32,60.02040694,5e8654505276a10fe5e2633b,64aeaab685a29f4ca249be02,64bec9d47e9af4da1164cedb,right,1,0.5643,0.35,1,0.003958354,0.4754,38,0,38,0,1,,,,,,,,,,
,,282692,001,2023-07-24_20h02.54.842,arm3_q,2022.2.5,Win32,60.02040694,5e8654505276a10fe5e2633b,64aeaab685a29f4ca249be02,64bec9d47e9af4da1164cedb,up,-1,0.5643,0.35,1,0,0.4488,39,0,39,0,1,,,,,,,,,,
,,282692,001,2023-07-24_20h02.54.842,arm3_q,2022.2.5,Win32,60.02040694,5e8654505276a10fe5e2633b,64aeaab685a29f4ca249be02,64bec9d47e9af4da1164cedb,right,-1,0.5643,0.35,1,-0.005587604,0.8615,40,0,40,0,1,,,,,,,,,,
,,282692,001,2023-07-24_20h02.54.842,arm3_q,2022.2.5,Win32,60.02040694,5e8654505276a10fe5e2633b,64aeaab685a29f4ca249be02,64bec9d47e9af4da1164cedb,right,-1,0.5643,0.35,1,-0.006993624,0.4102,41,0,41,0,1,,,,,,,,,,
,,282692,001,2023-07-24_20h02.54.842,arm3_q,2022.2.5,Win32,60.02040694,5e8654505276a10fe5e2633b,64aeaab685a29f4ca249be02,64bec9d47e9af4da1164cedb,down,-1,0.5643,0.35,2,0,0.7105,42,0,42,0,1,,,,,,,,,,
,,282692,001,2023-07-24_20h02.54.842,arm3_q,2022.2.5,Win32,60.02040694,5e8654505276a10fe5e2633b,64aeaab685a29f4ca249be02,64bec9d47e9af4da1164cedb,right,-1,0.5643,0.35,2,-0.030186025,1.5524,43,0,43,0,1,,,,,,,,,,
,,282692,001,2023-07-24_20h02.54.842,arm3_q,2022.2.5,Win32,60.02040694,5e8654505276a10fe5e2633b,64aeaab685a29f4ca249be02,64bec9d47e9af4da1164cedb,down,-1,0.5643,0.35,2,0,1.5304,44,0,44,0,1,,,,,,,,,,
,,282692,001,2023-07-24_20h02.54.842,arm3_q,2022.2.5,Win32,60.02040694,5e8654505276a10fe5e2633b,64aeaab685a29f4ca249be02,64bec9d47e9af4da1164cedb,right,-1,0.5643,0.35,2,-0.042330826,0.8281,45,0,45,0,1,,,,,,,,,,
,,282692,001,2023-07-24_20h02.54.842,arm3_q,2022.2.5,Win32,60.02040694,5e8654505276a10fe5e2633b,64aeaab685a29f4ca249be02,64bec9d47e9af4da1164cedb,right,-1,0.5643,0.35,2,-0.021820371,0.7752,46,0,46,0,1,,,,,,,,,,
,,282692,001,2023-07-24_20h02.54.842,arm3_q,2022.2.5,Win32,60.02040694,5e8654505276a10fe5e2633b,64aeaab685a29f4ca249be02,64bec9d47e9af4da1164cedb,down,-1,0.5643,0.35,2,0,0.6167,47,0,47,0,1,,,,,,,,,,
,,282692,001,2023-07-24_20h02.54.842,arm3_q,2022.2.5,Win32,60.02040694,5e8654505276a10fe5e2633b,64aeaab685a29f4ca249be02,64bec9d47e9af4da1164cedb,right,-1,0.5643,0.35,2,-0.006692652,0.8653,48,0,48,0,1,,,,,,,,,,
,,282692,001,2023-07-24_20h02.54.842,arm3_q,2022.2.5,Win32,60.02040694,5e8654505276a10fe5e2633b,64aeaab685a29f4ca249be02,64bec9d47e9af4da1164cedb,right,-1,0.5643,0.35,2,-0.027329413,0.418,49,0,49,0,1,,,,,,,,,,
space,2.9915,282692,001,2023-07-24_20h02.54.842,arm3_q,2022.2.5,Win32,60.02040694,5e8654505276a10fe5e2633b,64aeaab685a29f4ca249be02,64bec9d47e9af4da1164cedb,,,,,,,,,,,,,,,,,,,,,,
space,2.7048,282692,001,2023-07-24_20h02.54.842,arm3_q,2022.2.5,Win32,60.02040694,5e8654505276a10fe5e2633b,64aeaab685a29f4ca249be02,64bec9d47e9af4da1164cedb,right,-1,0.05,0.35,0,-0.021348373,1.5487,,,,,,0,0,0,0,1,,,,,
,,282692,001,2023-07-24_20h02.54.842,arm3_q,2022.2.5,Win32,60.02040694,5e8654505276a10fe5e2633b,64aeaab685a29f4ca249be02,64bec9d47e9af4da1164cedb,down,1,0.05,0.35,1,0,1.3584,,,,,,1,0,1,0,1,,,,,
,,282692,001,2023-07-24_20h02.54.842,arm3_q,2022.2.5,Win32,60.02040694,5e8654505276a10fe5e2633b,64aeaab685a29f4ca249be02,64bec9d47e9af4da1164cedb,up,-1,0.05,0.35,1,0,1.5726,,,,,,2,0,2,0,1,,,,,
,,282692,001,2023-07-24_20h02.54.842,arm3_q,2022.2.5,Win32,60.02040694,5e8654505276a10fe5e2633b,64aeaab685a29f4ca249be02,64bec9d47e9af4da1164cedb,right,-1,0.05,0.35,1,0.010149103,1.498,,,,,,3,0,3,0,1,,,,,
,,282692,001,2023-07-24_20h02.54.842,arm3_q,2022.2.5,Win32,60.02040694,5e8654505276a10fe5e2633b,64aeaab685a29f4ca249be02,64bec9d47e9af4da1164cedb,down,-1,0.05,0.35,1,0,0.815,,,,,,4,0,4,0,1,,,,,
,,282692,001,2023-07-24_20h02.54.842,arm3_q,2022.2.5,Win32,60.02040694,5e8654505276a10fe5e2633b,64aeaab685a29f4ca249be02,64bec9d47e9af4da1164cedb,right,-1,0.05,0.35,1,-0.013647043,0.9504,,,,,,5,0,5,0,1,,,,,
,,282692,001,2023-07-24_20h02.54.842,arm3_q,2022.2.5,Win32,60.02040694,5e8654505276a10fe5e2633b,64aeaab685a29f4ca249be02,64bec9d47e9af4da1164cedb,down,-1,0.05,0.35,1,0,0.8011,,,,,,6,0,6,0,1,,,,,
,,282692,001,2023-07-24_20h02.54.842,arm3_q,2022.2.5,Win32,60.02040694,5e8654505276a10fe5e2633b,64aeaab685a29f4ca249be02,64bec9d47e9af4da1164cedb,right,-1,0.05,0.35,1,0.005270362,0.8669,,,,,,7,0,7,0,1,,,,,
,,282692,001,2023-07-24_20h02.54.842,arm3_q,2022.2.5,Win32,60.02040694,5e8654505276a10fe5e2633b,64aeaab685a29f4ca249be02,64bec9d47e9af4da1164cedb,right,-1,0.05,0.35,1,0.001742579,0.6343,,,,,,8,0,8,0,1,,,,,
,,282692,001,2023-07-24_20h02.54.842,arm3_q,2022.2.5,Win32,60.02040694,5e8654505276a10fe5e2633b,64aeaab685a29f4ca249be02,64bec9d47e9af4da1164cedb,down,1,0.05,0.35,1,0,0.9177,,,,,,9,0,9,0,1,,,,,
,,282692,001,2023-07-24_20h02.54.842,arm3_q,2022.2.5,Win32,60.02040694,5e8654505276a10fe5e2633b,64aeaab685a29f4ca249be02,64bec9d47e9af4da1164cedb,right,1,0.05,0.35,1,0.009675075,0.7814,,,,,,10,0,10,0,1,,,,,
,,282692,001,2023-07-24_20h02.54.842,arm3_q,2022.2.5,Win32,60.02040694,5e8654505276a10fe5e2633b,64aeaab685a29f4ca249be02,64bec9d47e9af4da1164cedb,right,1,0.05,0.35,1,0.013453107,0.4885,,,,,,11,0,11,0,1,,,,,
,,282692,001,2023-07-24_20h02.54.842,arm3_q,2022.2.5,Win32,60.02040694,5e8654505276a10fe5e2633b,64aeaab685a29f4ca249be02,64bec9d47e9af4da1164cedb,up,-1,0.05,0.35,1,0,0.5504,,,,,,12,0,12,0,1,,,,,
,,282692,001,2023-07-24_20h02.54.842,arm3_q,2022.2.5,Win32,60.02040694,5e8654505276a10fe5e2633b,64aeaab685a29f4ca249be02,64bec9d47e9af4da1164cedb,right,-1,0.05,0.35,1,-0.018072495,0.6749,,,,,,13,0,13,0,1,,,,,
,,282692,001,2023-07-24_20h02.54.842,arm3_q,2022.2.5,Win32,60.02040694,5e8654505276a10fe5e2633b,64aeaab685a29f4ca249be02,64bec9d47e9af4da1164cedb,right,-1,0.05,0.35,1,-0.016404811,0.5672,,,,,,14,0,14,0,1,,,,,
,,282692,001,2023-07-24_20h02.54.842,arm3_q,2022.2.5,Win32,60.02040694,5e8654505276a10fe5e2633b,64aeaab685a29f4ca249be02,64bec9d47e9af4da1164cedb,down,-1,0.05,0.35,1,0,0.8514,,,,,,15,0,15,0,1,,,,,
,,282692,001,2023-07-24_20h02.54.842,arm3_q,2022.2.5,Win32,60.02040694,5e8654505276a10fe5e2633b,64aeaab685a29f4ca249be02,64bec9d47e9af4da1164cedb,right,-1,0.05,0.35,1,0.011922957,0.6909,,,,,,16,0,16,0,1,,,,,
,,282692,001,2023-07-24_20h02.54.842,arm3_q,2022.2.5,Win32,60.02040694,5e8654505276a10fe5e2633b,64aeaab685a29f4ca249be02,64bec9d47e9af4da1164cedb,up,1,0.05,0.35,1,0,0.834,,,,,,17,0,17,0,1,,,,,
,,282692,001,2023-07-24_20h02.54.842,arm3_q,2022.2.5,Win32,60.02040694,5e8654505276a10fe5e2633b,64aeaab685a29f4ca249be02,64bec9d47e9af4da1164cedb,right,1,0.05,0.35,1,-0.002189002,0.8441,,,,,,18,0,18,0,1,,,,,
,,282692,001,2023-07-24_20h02.54.842,arm3_q,2022.2.5,Win32,60.02040694,5e8654505276a10fe5e2633b,64aeaab685a29f4ca249be02,64bec9d47e9af4da1164cedb,up,1,0.05,0.35,1,0,2.1686,,,,,,19,0,19,0,1,,,,,
,,282692,001,2023-07-24_20h02.54.842,arm3_q,2022.2.5,Win32,60.02040694,5e8654505276a10fe5e2633b,64aeaab685a29f4ca249be02,64bec9d47e9af4da1164cedb,right,1,0.05,0.35,1,-0.001123283,1.0331,,,,,,20,0,20,0,1,,,,,
,,282692,001,2023-07-24_20h02.54.842,arm3_q,2022.2.5,Win32,60.02040694,5e8654505276a10fe5e2633b,64aeaab685a29f4ca249be02,64bec9d47e9af4da1164cedb,up,1,0.05,0.35,1,0,0.7233,,,,,,21,0,21,0,1,,,,,
,,282692,001,2023-07-24_20h02.54.842,arm3_q,2022.2.5,Win32,60.02040694,5e8654505276a10fe5e2633b,64aeaab685a29f4ca249be02,64bec9d47e9af4da1164cedb,right,1,0.05,0.35,1,0.025950645,0.8521,,,,,,22,0,22,0,1,,,,,
,,282692,001,2023-07-24_20h02.54.842,arm3_q,2022.2.5,Win32,60.02040694,5e8654505276a10fe5e2633b,64aeaab685a29f4ca249be02,64bec9d47e9af4da1164cedb,right,1,0.05,0.35,1,0.033759353,0.5511,,,,,,23,0,23,0,1,,,,,
,,282692,001,2023-07-24_20h02.54.842,arm3_q,2022.2.5,Win32,60.02040694,5e8654505276a10fe5e2633b,64aeaab685a29f4ca249be02,64bec9d47e9af4da1164cedb,up,1,0.05,0.35,1,0,0.4148,,,,,,24,0,24,0,1,,,,,
,,282692,001,2023-07-24_20h02.54.842,arm3_q,2022.2.5,Win32,60.02040694,5e8654505276a10fe5e2633b,64aeaab685a29f4ca249be02,64bec9d47e9af4da1164cedb,right,1,0.05,0.35,1,0.006740926,0.9834,,,,,,25,0,25,0,1,,,,,
,,282692,001,2023-07-24_20h02.54.842,arm3_q,2022.2.5,Win32,60.02040694,5e8654505276a10fe5e2633b,64aeaab685a29f4ca249be02,64bec9d47e9af4da1164cedb,up,-1,0.05,0.35,1,0,0.6547,,,,,,26,0,26,0,1,,,,,
,,282692,001,2023-07-24_20h02.54.842,arm3_q,2022.2.5,Win32,60.02040694,5e8654505276a10fe5e2633b,64aeaab685a29f4ca249be02,64bec9d47e9af4da1164cedb,right,-1,0.05,0.35,1,-0.019424136,0.8032,,,,,,27,0,27,0,1,,,,,
,,282692,001,2023-07-24_20h02.54.842,arm3_q,2022.2.5,Win32,60.02040694,5e8654505276a10fe5e2633b,64aeaab685a29f4ca249be02,64bec9d47e9af4da1164cedb,down,-1,0.05,0.35,1,0,1.284,,,,,,28,0,28,0,1,,,,,
,,282692,001,2023-07-24_20h02.54.842,arm3_q,2022.2.5,Win32,60.02040694,5e8654505276a10fe5e2633b,64aeaab685a29f4ca249be02,64bec9d47e9af4da1164cedb,right,-1,0.05,0.35,1,-0.013924482,0.8382,,,,,,29,0,29,0,1,,,,,
,,282692,001,2023-07-24_20h02.54.842,arm3_q,2022.2.5,Win32,60.02040694,5e8654505276a10fe5e2633b,64aeaab685a29f4ca249be02,64bec9d47e9af4da1164cedb,down,1,0.05,0.35,1,0,0.6667,,,,,,30,0,30,0,1,,,,,
,,282692,001,2023-07-24_20h02.54.842,arm3_q,2022.2.5,Win32,60.02040694,5e8654505276a10fe5e2633b,64aeaab685a29f4ca249be02,64bec9d47e9af4da1164cedb,right,1,0.05,0.35,1,-0.024173505,0.9657,,,,,,31,0,31,0,1,,,,,
,,282692,001,2023-07-24_20h02.54.842,arm3_q,2022.2.5,Win32,60.02040694,5e8654505276a10fe5e2633b,64aeaab685a29f4ca249be02,64bec9d47e9af4da1164cedb,up,-1,0.05,0.35,1,0,1.5656,,,,,,32,0,32,0,1,,,,,
,,282692,001,2023-07-24_20h02.54.842,arm3_q,2022.2.5,Win32,60.02040694,5e8654505276a10fe5e2633b,64aeaab685a29f4ca249be02,64bec9d47e9af4da1164cedb,right,-1,0.05,0.35,1,-0.004005135,0.6151,,,,,,33,0,33,0,1,,,,,
,,282692,001,2023-07-24_20h02.54.842,arm3_q,2022.2.5,Win32,60.02040694,5e8654505276a10fe5e2633b,64aeaab685a29f4ca249be02,64bec9d47e9af4da1164cedb,down,-1,0.05,0.35,1,0,1.0015,,,,,,34,0,34,0,1,,,,,
,,282692,001,2023-07-24_20h02.54.842,arm3_q,2022.2.5,Win32,60.02040694,5e8654505276a10fe5e2633b,64aeaab685a29f4ca249be02,64bec9d47e9af4da1164cedb,right,-1,0.05,0.35,1,-0.003148284,0.716,,,,,,35,0,35,0,1,,,,,
,,282692,001,2023-07-24_20h02.54.842,arm3_q,2022.2.5,Win32,60.02040694,5e8654505276a10fe5e2633b,64aeaab685a29f4ca249be02,64bec9d47e9af4da1164cedb,up,1,0.05,0.35,1,0,1.0675,,,,,,36,0,36,0,1,,,,,
,,282692,001,2023-07-24_20h02.54.842,arm3_q,2022.2.5,Win32,60.02040694,5e8654505276a10fe5e2633b,64aeaab685a29f4ca249be02,64bec9d47e9af4da1164cedb,right,1,0.05,0.35,1,0.026413804,0.741,,,,,,37,0,37,0,1,,,,,
,,282692,001,2023-07-24_20h02.54.842,arm3_q,2022.2.5,Win32,60.02040694,5e8654505276a10fe5e2633b,64aeaab685a29f4ca249be02,64bec9d47e9af4da1164cedb,down,1,0.05,0.35,1,0,0.9175,,,,,,38,0,38,0,1,,,,,
,,282692,001,2023-07-24_20h02.54.842,arm3_q,2022.2.5,Win32,60.02040694,5e8654505276a10fe5e2633b,64aeaab685a29f4ca249be02,64bec9d47e9af4da1164cedb,right,1,0.05,0.35,1,-0.010509537,0.6735,,,,,,39,0,39,0,1,,,,,
,,282692,001,2023-07-24_20h02.54.842,arm3_q,2022.2.5,Win32,60.02040694,5e8654505276a10fe5e2633b,64aeaab685a29f4ca249be02,64bec9d47e9af4da1164cedb,up,-1,0.05,0.35,1,0,0.7502,,,,,,40,0,40,0,1,,,,,
,,282692,001,2023-07-24_20h02.54.842,arm3_q,2022.2.5,Win32,60.02040694,5e8654505276a10fe5e2633b,64aeaab685a29f4ca249be02,64bec9d47e9af4da1164cedb,right,-1,0.05,0.35,1,-0.029171541,0.8513,,,,,,41,0,41,0,1,,,,,
,,282692,001,2023-07-24_20h02.54.842,arm3_q,2022.2.5,Win32,60.02040694,5e8654505276a10fe5e2633b,64aeaab685a29f4ca249be02,64bec9d47e9af4da1164cedb,down,-1,0.05,0.35,1,0,0.7195,,,,,,42,0,42,0,1,,,,,
,,282692,001,2023-07-24_20h02.54.842,arm3_q,2022.2.5,Win32,60.02040694,5e8654505276a10fe5e2633b,64aeaab685a29f4ca249be02,64bec9d47e9af4da1164cedb,right,-1,0.05,0.35,1,-0.008475635,0.8382,,,,,,43,0,43,0,1,,,,,
,,282692,001,2023-07-24_20h02.54.842,arm3_q,2022.2.5,Win32,60.02040694,5e8654505276a10fe5e2633b,64aeaab685a29f4ca249be02,64bec9d47e9af4da1164cedb,down,-1,0.05,0.35,1,0,0.6841,,,,,,44,0,44,0,1,,,,,
,,282692,001,2023-07-24_20h02.54.842,arm3_q,2022.2.5,Win32,60.02040694,5e8654505276a10fe5e2633b,64aeaab685a29f4ca249be02,64bec9d47e9af4da1164cedb,right,-1,0.05,0.35,1,-0.010406735,0.8313,,,,,,45,0,45,0,1,,,,,
,,282692,001,2023-07-24_20h02.54.842,arm3_q,2022.2.5,Win32,60.02040694,5e8654505276a10fe5e2633b,64aeaab685a29f4ca249be02,64bec9d47e9af4da1164cedb,down,1,0.05,0.35,1,0,1.8557,,,,,,46,0,46,0,1,,,,,
,,282692,001,2023-07-24_20h02.54.842,arm3_q,2022.2.5,Win32,60.02040694,5e8654505276a10fe5e2633b,64aeaab685a29f4ca249be02,64bec9d47e9af4da1164cedb,right,1,0.05,0.35,1,0.035918952,0.7847,,,,,,47,0,47,0,1,,,,,
,,282692,001,2023-07-24_20h02.54.842,arm3_q,2022.2.5,Win32,60.02040694,5e8654505276a10fe5e2633b,64aeaab685a29f4ca249be02,64bec9d47e9af4da1164cedb,up,-1,0.05,0.35,1,0,0.5984,,,,,,48,0,48,0,1,,,,,
,,282692,001,2023-07-24_20h02.54.842,arm3_q,2022.2.5,Win32,60.02040694,5e8654505276a10fe5e2633b,64aeaab685a29f4ca249be02,64bec9d47e9af4da1164cedb,right,-1,0.05,0.35,1,0.01786176,0.6535,,,,,,49,0,49,0,1,,,,,
,,282692,001,2023-07-24_20h02.54.842,arm3_q,2022.2.5,Win32,60.02040694,5e8654505276a10fe5e2633b,64aeaab685a29f4ca249be02,64bec9d47e9af4da1164cedb,right,-1,0.05,0.35,1,0.01794888,1.4501,,,,,,50,0,50,0,1,,,,,
,,282692,001,2023-07-24_20h02.54.842,arm3_q,2022.2.5,Win32,60.02040694,5e8654505276a10fe5e2633b,64aeaab685a29f4ca249be02,64bec9d47e9af4da1164cedb,right,-1,0.05,0.35,1,0.02375974,0.4581,,,,,,51,0,51,0,1,,,,,
,,282692,001,2023-07-24_20h02.54.842,arm3_q,2022.2.5,Win32,60.02040694,5e8654505276a10fe5e2633b,64aeaab685a29f4ca249be02,64bec9d47e9af4da1164cedb,up,-1,0.05,0.35,1,0,0.5523,,,,,,52,0,52,0,1,,,,,
,,282692,001,2023-07-24_20h02.54.842,arm3_q,2022.2.5,Win32,60.02040694,5e8654505276a10fe5e2633b,64aeaab685a29f4ca249be02,64bec9d47e9af4da1164cedb,right,-1,0.05,0.35,1,-0.017950129,1.4982,,,,,,53,0,53,0,1,,,,,
,,282692,001,2023-07-24_20h02.54.842,arm3_q,2022.2.5,Win32,60.02040694,5e8654505276a10fe5e2633b,64aeaab685a29f4ca249be02,64bec9d47e9af4da1164cedb,down,-1,0.05,0.35,1,0,0.6095,,,,,,54,0,54,0,1,,,,,
,,282692,001,2023-07-24_20h02.54.842,arm3_q,2022.2.5,Win32,60.02040694,5e8654505276a10fe5e2633b,64aeaab685a29f4ca249be02,64bec9d47e9af4da1164cedb,right,-1,0.05,0.35,1,-0.024479688,0.5586,,,,,,55,0,55,0,1,,,,,
,,282692,001,2023-07-24_20h02.54.842,arm3_q,2022.2.5,Win32,60.02040694,5e8654505276a10fe5e2633b,64aeaab685a29f4ca249be02,64bec9d47e9af4da1164cedb,right,-1,0.05,0.35,1,-0.011094464,0.9005,,,,,,56,0,56,0,1,,,,,
,,282692,001,2023-07-24_20h02.54.842,arm3_q,2022.2.5,Win32,60.02040694,5e8654505276a10fe5e2633b,64aeaab685a29f4ca249be02,64bec9d47e9af4da1164cedb,right,-1,0.05,0.35,1,-0.022154066,0.3229,,,,,,57,0,57,0,1,,,,,
,,282692,001,2023-07-24_20h02.54.842,arm3_q,2022.2.5,Win32,60.02040694,5e8654505276a10fe5e2633b,64aeaab685a29f4ca249be02,64bec9d47e9af4da1164cedb,down,-1,0.05,0.35,1,0,0.6598,,,,,,58,0,58,0,1,,,,,
,,282692,001,2023-07-24_20h02.54.842,arm3_q,2022.2.5,Win32,60.02040694,5e8654505276a10fe5e2633b,64aeaab685a29f4ca249be02,64bec9d47e9af4da1164cedb,right,-1,0.05,0.35,1,0.000872738,0.7004,,,,,,59,0,59,0,1,,,,,
,,282692,001,2023-07-24_20h02.54.842,arm3_q,2022.2.5,Win32,60.02040694,5e8654505276a10fe5e2633b,64aeaab685a29f4ca249be02,64bec9d47e9af4da1164cedb,right,-1,0.05,0.35,1,0.004285013,0.2675,,,,,,60,0,60,0,1,,,,,
,,282692,001,2023-07-24_20h02.54.842,arm3_q,2022.2.5,Win32,60.02040694,5e8654505276a10fe5e2633b,64aeaab685a29f4ca249be02,64bec9d47e9af4da1164cedb,down,-1,0.05,0.35,1,0,0.9005,,,,,,61,0,61,0,1,,,,,
,,282692,001,2023-07-24_20h02.54.842,arm3_q,2022.2.5,Win32,60.02040694,5e8654505276a10fe5e2633b,64aeaab685a29f4ca249be02,64bec9d47e9af4da1164cedb,right,-1,0.05,0.35,1,0.017718971,0.832,,,,,,62,0,62,0,1,,,,,
,,282692,001,2023-07-24_20h02.54.842,arm3_q,2022.2.5,Win32,60.02040694,5e8654505276a10fe5e2633b,64aeaab685a29f4ca249be02,64bec9d47e9af4da1164cedb,right,-1,0.05,0.35,1,-0.021932031,0.4339,,,,,,63,0,63,0,1,,,,,
,,282692,001,2023-07-24_20h02.54.842,arm3_q,2022.2.5,Win32,60.02040694,5e8654505276a10fe5e2633b,64aeaab685a29f4ca249be02,64bec9d47e9af4da1164cedb,up,-1,0.05,0.35,1,0,0.7178,,,,,,64,0,64,0,1,,,,,
,,282692,001,2023-07-24_20h02.54.842,arm3_q,2022.2.5,Win32,60.02040694,5e8654505276a10fe5e2633b,64aeaab685a29f4ca249be02,64bec9d47e9af4da1164cedb,right,-1,0.05,0.35,1,0.002018677,0.7345,,,,,,65,0,65,0,1,,,,,
,,282692,001,2023-07-24_20h02.54.842,arm3_q,2022.2.5,Win32,60.02040694,5e8654505276a10fe5e2633b,64aeaab685a29f4ca249be02,64bec9d47e9af4da1164cedb,right,-1,0.05,0.35,1,-0.006176241,0.5077,,,,,,66,0,66,0,1,,,,,
,,282692,001,2023-07-24_20h02.54.842,arm3_q,2022.2.5,Win32,60.02040694,5e8654505276a10fe5e2633b,64aeaab685a29f4ca249be02,64bec9d47e9af4da1164cedb,down,-1,0.05,0.35,1,0,0.4842,,,,,,67,0,67,0,1,,,,,
,,282692,001,2023-07-24_20h02.54.842,arm3_q,2022.2.5,Win32,60.02040694,5e8654505276a10fe5e2633b,64aeaab685a29f4ca249be02,64bec9d47e9af4da1164cedb,right,-1,0.05,0.35,1,-0.01838762,0.8383,,,,,,68,0,68,0,1,,,,,
,,282692,001,2023-07-24_20h02.54.842,arm3_q,2022.2.5,Win32,60.02040694,5e8654505276a10fe5e2633b,64aeaab685a29f4ca249be02,64bec9d47e9af4da1164cedb,down,1,0.05,0.35,1,0,0.7665,,,,,,69,0,69,0,1,,,,,
,,282692,001,2023-07-24_20h02.54.842,arm3_q,2022.2.5,Win32,60.02040694,5e8654505276a10fe5e2633b,64aeaab685a29f4ca249be02,64bec9d47e9af4da1164cedb,right,1,0.05,0.35,1,0.035375244,1.8504,,,,,,70,0,70,0,1,,,,,
,,282692,001,2023-07-24_20h02.54.842,arm3_q,2022.2.5,Win32,60.02040694,5e8654505276a10fe5e2633b,64aeaab685a29f4ca249be02,64bec9d47e9af4da1164cedb,up,-1,0.05,0.35,1,0,0.3817,,,,,,71,0,71,0,1,,,,,
,,282692,001,2023-07-24_20h02.54.842,arm3_q,2022.2.5,Win32,60.02040694,5e8654505276a10fe5e2633b,64aeaab685a29f4ca249be02,64bec9d47e9af4da1164cedb,up,-1,0.05,0.35,1,0,1.3715,,,,,,72,0,72,0,1,,,,,
,,282692,001,2023-07-24_20h02.54.842,arm3_q,2022.2.5,Win32,60.02040694,5e8654505276a10fe5e2633b,64aeaab685a29f4ca249be02,64bec9d47e9af4da1164cedb,right,-1,0.05,0.35,1,-0.004694699,1.025,,,,,,73,0,73,0,1,,,,,
,,282692,001,2023-07-24_20h02.54.842,arm3_q,2022.2.5,Win32,60.02040694,5e8654505276a10fe5e2633b,64aeaab685a29f4ca249be02,64bec9d47e9af4da1164cedb,right,-1,0.05,0.35,1,-0.000152824,0.7493,,,,,,74,0,74,0,1,,,,,
,,282692,001,2023-07-24_20h02.54.842,arm3_q,2022.2.5,Win32,60.02040694,5e8654505276a10fe5e2633b,64aeaab685a29f4ca249be02,64bec9d47e9af4da1164cedb,right,-1,0.05,0.35,1,0.007820005,0.4511,,,,,,75,0,75,0,1,,,,,
,,282692,001,2023-07-24_20h02.54.842,arm3_q,2022.2.5,Win32,60.02040694,5e8654505276a10fe5e2633b,64aeaab685a29f4ca249be02,64bec9d47e9af4da1164cedb,up,1,0.05,0.35,1,0,1.6034,,,,,,76,0,76,0,1,,,,,
,,282692,001,2023-07-24_20h02.54.842,arm3_q,2022.2.5,Win32,60.02040694,5e8654505276a10fe5e2633b,64aeaab685a29f4ca249be02,64bec9d47e9af4da1164cedb,right,1,0.05,0.35,1,0.000198318,2.3403,,,,,,77,0,77,0,1,,,,,
,,282692,001,2023-07-24_20h02.54.842,arm3_q,2022.2.5,Win32,60.02040694,5e8654505276a10fe5e2633b,64aeaab685a29f4ca249be02,64bec9d47e9af4da1164cedb,down,-1,0.05,0.35,1,0,0.9053,,,,,,78,0,78,0,1,,,,,
,,282692,001,2023-07-24_20h02.54.842,arm3_q,2022.2.5,Win32,60.02040694,5e8654505276a10fe5e2633b,64aeaab685a29f4ca249be02,64bec9d47e9af4da1164cedb,right,-1,0.05,0.35,1,0.014702307,2.1026,,,,,,79,0,79,0,1,,,,,
,,282692,001,2023-07-24_20h02.54.842,arm3_q,2022.2.5,Win32,60.02040694,5e8654505276a10fe5e2633b,64aeaab685a29f4ca249be02,64bec9d47e9af4da1164cedb,up,-1,0.05,0.35,1,0,0.7145,,,,,,80,0,80,0,1,,,,,
,,282692,001,2023-07-24_20h02.54.842,arm3_q,2022.2.5,Win32,60.02040694,5e8654505276a10fe5e2633b,64aeaab685a29f4ca249be02,64bec9d47e9af4da1164cedb,right,-1,0.05,0.35,1,-0.005492051,2.234,,,,,,81,0,81,0,1,,,,,
,,282692,001,2023-07-24_20h02.54.842,arm3_q,2022.2.5,Win32,60.02040694,5e8654505276a10fe5e2633b,64aeaab685a29f4ca249be02,64bec9d47e9af4da1164cedb,right,-1,0.05,0.35,1,-0.001726408,0.4168,,,,,,82,0,82,0,1,,,,,
,,282692,001,2023-07-24_20h02.54.842,arm3_q,2022.2.5,Win32,60.02040694,5e8654505276a10fe5e2633b,64aeaab685a29f4ca249be02,64bec9d47e9af4da1164cedb,down,1,0.05,0.35,1,0,0.7007,,,,,,83,0,83,0,1,,,,,
,,282692,001,2023-07-24_20h02.54.842,arm3_q,2022.2.5,Win32,60.02040694,5e8654505276a10fe5e2633b,64aeaab685a29f4ca249be02,64bec9d47e9af4da1164cedb,right,1,0.05,0.35,1,0.016376228,1.7003,,,,,,84,0,84,0,1,,,,,
,,282692,001,2023-07-24_20h02.54.842,arm3_q,2022.2.5,Win32,60.02040694,5e8654505276a10fe5e2633b,64aeaab685a29f4ca249be02,64bec9d47e9af4da1164cedb,up,1,0.05,0.35,2,0,0.4144,,,,,,85,0,85,0,1,,,,,
,,282692,001,2023-07-24_20h02.54.842,arm3_q,2022.2.5,Win32,60.02040694,5e8654505276a10fe5e2633b,64aeaab685a29f4ca249be02,64bec9d47e9af4da1164cedb,right,1,0.05,0.35,2,0.018163196,1.0748,,,,,,86,0,86,0,1,,,,,
,,282692,001,2023-07-24_20h02.54.842,arm3_q,2022.2.5,Win32,60.02040694,5e8654505276a10fe5e2633b,64aeaab685a29f4ca249be02,64bec9d47e9af4da1164cedb,up,1,0.05,0.35,2,0,0.3984,,,,,,87,0,87,0,1,,,,,
,,282692,001,2023-07-24_20h02.54.842,arm3_q,2022.2.5,Win32,60.02040694,5e8654505276a10fe5e2633b,64aeaab685a29f4ca249be02,64bec9d47e9af4da1164cedb,right,1,0.05,0.35,2,0.033878392,1.881,,,,,,88,0,88,0,1,,,,,
,,282692,001,2023-07-24_20h02.54.842,arm3_q,2022.2.5,Win32,60.02040694,5e8654505276a10fe5e2633b,64aeaab685a29f4ca249be02,64bec9d47e9af4da1164cedb,up,1,0.05,0.35,2,0,0.5476,,,,,,89,0,89,0,1,,,,,
,,282692,001,2023-07-24_20h02.54.842,arm3_q,2022.2.5,Win32,60.02040694,5e8654505276a10fe5e2633b,64aeaab685a29f4ca249be02,64bec9d47e9af4da1164cedb,right,1,0.05,0.35,2,-0.008431099,0.8387,,,,,,90,0,90,0,1,,,,,
,,282692,001,2023-07-24_20h02.54.842,arm3_q,2022.2.5,Win32,60.02040694,5e8654505276a10fe5e2633b,64aeaab685a29f4ca249be02,64bec9d47e9af4da1164cedb,down,1,0.05,0.35,2,0,0.6096,,,,,,91,0,91,0,1,,,,,
,,282692,001,2023-07-24_20h02.54.842,arm3_q,2022.2.5,Win32,60.02040694,5e8654505276a10fe5e2633b,64aeaab685a29f4ca249be02,64bec9d47e9af4da1164cedb,right,1,0.05,0.35,2,0.014542783,1.1137,,,,,,92,0,92,0,1,,,,,
,,282692,001,2023-07-24_20h02.54.842,arm3_q,2022.2.5,Win32,60.02040694,5e8654505276a10fe5e2633b,64aeaab685a29f4ca249be02,64bec9d47e9af4da1164cedb,right,1,0.05,0.35,2,0.023284143,1.3192,,,,,,93,0,93,0,1,,,,,
,,282692,001,2023-07-24_20h02.54.842,arm3_q,2022.2.5,Win32,60.02040694,5e8654505276a10fe5e2633b,64aeaab685a29f4ca249be02,64bec9d47e9af4da1164cedb,up,1,0.05,0.35,2,0,0.6274,,,,,,94,0,94,0,1,,,,,
,,282692,001,2023-07-24_20h02.54.842,arm3_q,2022.2.5,Win32,60.02040694,5e8654505276a10fe5e2633b,64aeaab685a29f4ca249be02,64bec9d47e9af4da1164cedb,right,1,0.05,0.35,2,0.025711494,0.5634,,,,,,95,0,95,0,1,,,,,
,,282692,001,2023-07-24_20h02.54.842,arm3_q,2022.2.5,Win32,60.02040694,5e8654505276a10fe5e2633b,64aeaab685a29f4ca249be02,64bec9d47e9af4da1164cedb,right,1,0.05,0.35,2,0.027517597,1.3782,,,,,,96,0,96,0,1,,,,,
,,282692,001,2023-07-24_20h02.54.842,arm3_q,2022.2.5,Win32,60.02040694,5e8654505276a10fe5e2633b,64aeaab685a29f4ca249be02,64bec9d47e9af4da1164cedb,right,1,0.05,0.35,2,0.019878845,1.0643,,,,,,97,0,97,0,1,,,,,
,,282692,001,2023-07-24_20h02.54.842,arm3_q,2022.2.5,Win32,60.02040694,5e8654505276a10fe5e2633b,64aeaab685a29f4ca249be02,64bec9d47e9af4da1164cedb,up,1,0.05,0.35,2,0,0.9148,,,,,,98,0,98,0,1,,,,,
,,282692,001,2023-07-24_20h02.54.842,arm3_q,2022.2.5,Win32,60.02040694,5e8654505276a10fe5e2633b,64aeaab685a29f4ca249be02,64bec9d47e9af4da1164cedb,right,1,0.05,0.35,2,2.50833E-05,0.5215,,,,,,99,0,99,0,1,,,,,
,,282692,001,2023-07-24_20h02.54.842,arm3_q,2022.2.5,Win32,60.02040694,5e8654505276a10fe5e2633b,64aeaab685a29f4ca249be02,64bec9d47e9af4da1164cedb,down,1,0.05,0.35,2,0,0.8005,,,,,,100,0,100,0,1,,,,,
,,282692,001,2023-07-24_20h02.54.842,arm3_q,2022.2.5,Win32,60.02040694,5e8654505276a10fe5e2633b,64aeaab685a29f4ca249be02,64bec9d47e9af4da1164cedb,right,1,0.05,0.35,2,-0.00234326,0.4669,,,,,,101,0,101,0,1,,,,,
,,282692,001,2023-07-24_20h02.54.842,arm3_q,2022.2.5,Win32,60.02040694,5e8654505276a10fe5e2633b,64aeaab685a29f4ca249be02,64bec9d47e9af4da1164cedb,right,1,0.05,0.35,2,0.011594491,0.8996,,,,,,102,0,102,0,1,,,,,
,,282692,001,2023-07-24_20h02.54.842,arm3_q,2022.2.5,Win32,60.02040694,5e8654505276a10fe5e2633b,64aeaab685a29f4ca249be02,64bec9d47e9af4da1164cedb,up,-1,0.05,0.35,2,0,0.3324,,,,,,103,0,103,0,1,,,,,
,,282692,001,2023-07-24_20h02.54.842,arm3_q,2022.2.5,Win32,60.02040694,5e8654505276a10fe5e2633b,64aeaab685a29f4ca249be02,64bec9d47e9af4da1164cedb,right,-1,0.05,0.35,2,-0.027862026,0.6751,,,,,,104,0,104,0,1,,,,,
,,282692,001,2023-07-24_20h02.54.842,arm3_q,2022.2.5,Win32,60.02040694,5e8654505276a10fe5e2633b,64aeaab685a29f4ca249be02,64bec9d47e9af4da1164cedb,right,-1,0.05,0.35,2,-0.029335568,0.7254,,,,,,105,0,105,0,1,,,,,
,,282692,001,2023-07-24_20h02.54.842,arm3_q,2022.2.5,Win32,60.02040694,5e8654505276a10fe5e2633b,64aeaab685a29f4ca249be02,64bec9d47e9af4da1164cedb,right,-1,0.05,0.35,2,-0.029630003,3.0502,,,,,,106,0,106,0,1,,,,,
,,282692,001,2023-07-24_20h02.54.842,arm3_q,2022.2.5,Win32,60.02040694,5e8654505276a10fe5e2633b,64aeaab685a29f4ca249be02,64bec9d47e9af4da1164cedb,up,-1,0.05,0.35,2,0,0.5073,,,,,,107,0,107,0,1,,,,,
,,282692,001,2023-07-24_20h02.54.842,arm3_q,2022.2.5,Win32,60.02040694,5e8654505276a10fe5e2633b,64aeaab685a29f4ca249be02,64bec9d47e9af4da1164cedb,right,-1,0.05,0.35,2,-0.012691241,0.8232,,,,,,108,0,108,0,1,,,,,
,,282692,001,2023-07-24_20h02.54.842,arm3_q,2022.2.5,Win32,60.02040694,5e8654505276a10fe5e2633b,64aeaab685a29f4ca249be02,64bec9d47e9af4da1164cedb,right,-1,0.05,0.35,2,-0.006781859,0.6909,,,,,,109,0,109,0,1,,,,,
,,282692,001,2023-07-24_20h02.54.842,arm3_q,2022.2.5,Win32,60.02040694,5e8654505276a10fe5e2633b,64aeaab685a29f4ca249be02,64bec9d47e9af4da1164cedb,up,-1,0.05,0.35,2,0,0.5816,,,,,,110,0,110,0,1,,,,,
,,282692,001,2023-07-24_20h02.54.842,arm3_q,2022.2.5,Win32,60.02040694,5e8654505276a10fe5e2633b,64aeaab685a29f4ca249be02,64bec9d47e9af4da1164cedb,right,-1,0.05,0.35,2,-0.008473774,0.7944,,,,,,111,0,111,0,1,,,,,
,,282692,001,2023-07-24_20h02.54.842,arm3_q,2022.2.5,Win32,60.02040694,5e8654505276a10fe5e2633b,64aeaab685a29f4ca249be02,64bec9d47e9af4da1164cedb,right,-1,0.05,0.35,2,-0.005034291,0.8388,,,,,,112,0,112,0,1,,,,,
,,282692,001,2023-07-24_20h02.54.842,arm3_q,2022.2.5,Win32,60.02040694,5e8654505276a10fe5e2633b,64aeaab685a29f4ca249be02,64bec9d47e9af4da1164cedb,up,-1,0.05,0.35,2,0,0.5542,,,,,,113,0,113,0,1,,,,,
,,282692,001,2023-07-24_20h02.54.842,arm3_q,2022.2.5,Win32,60.02040694,5e8654505276a10fe5e2633b,64aeaab685a29f4ca249be02,64bec9d47e9af4da1164cedb,right,-1,0.05,0.35,2,-0.022236178,0.5368,,,,,,114,0,114,0,1,,,,,
,,282692,001,2023-07-24_20h02.54.842,arm3_q,2022.2.5,Win32,60.02040694,5e8654505276a10fe5e2633b,64aeaab685a29f4ca249be02,64bec9d47e9af4da1164cedb,up,-1,0.05,0.35,2,0,1.0174,,,,,,115,0,115,0,1,,,,,
,,282692,001,2023-07-24_20h02.54.842,arm3_q,2022.2.5,Win32,60.02040694,5e8654505276a10fe5e2633b,64aeaab685a29f4ca249be02,64bec9d47e9af4da1164cedb,right,-1,0.05,0.35,2,0.028029779,1.6477,,,,,,116,0,116,0,1,,,,,
,,282692,001,2023-07-24_20h02.54.842,arm3_q,2022.2.5,Win32,60.02040694,5e8654505276a10fe5e2633b,64aeaab685a29f4ca249be02,64bec9d47e9af4da1164cedb,right,-1,0.05,0.35,2,0.027899192,0.8563,,,,,,117,0,117,0,1,,,,,
,,282692,001,2023-07-24_20h02.54.842,arm3_q,2022.2.5,Win32,60.02040694,5e8654505276a10fe5e2633b,64aeaab685a29f4ca249be02,64bec9d47e9af4da1164cedb,down,1,0.05,0.35,2,0,0.4697,,,,,,118,0,118,0,1,,,,,
,,282692,001,2023-07-24_20h02.54.842,arm3_q,2022.2.5,Win32,60.02040694,5e8654505276a10fe5e2633b,64aeaab685a29f4ca249be02,64bec9d47e9af4da1164cedb,up,1,0.05,0.35,2,0,1.9878,,,,,,119,0,119,0,1,,,,,
,,282692,001,2023-07-24_20h02.54.842,arm3_q,2022.2.5,Win32,60.02040694,5e8654505276a10fe5e2633b,64aeaab685a29f4ca249be02,64bec9d47e9af4da1164cedb,up,1,0.05,0.35,2,0,1.3026,,,,,,120,0,120,0,1,,,,,
,,282692,001,2023-07-24_20h02.54.842,arm3_q,2022.2.5,Win32,60.02040694,5e8654505276a10fe5e2633b,64aeaab685a29f4ca249be02,64bec9d47e9af4da1164cedb,down,1,0.05,0.35,2,0,1.5634,,,,,,121,0,121,0,1,,,,,
,,282692,001,2023-07-24_20h02.54.842,arm3_q,2022.2.5,Win32,60.02040694,5e8654505276a10fe5e2633b,64aeaab685a29f4ca249be02,64bec9d47e9af4da1164cedb,up,1,0.05,0.35,2,0,1.1533,,,,,,122,0,122,0,1,,,,,
,,282692,001,2023-07-24_20h02.54.842,arm3_q,2022.2.5,Win32,60.02040694,5e8654505276a10fe5e2633b,64aeaab685a29f4ca249be02,64bec9d47e9af4da1164cedb,right,1,0.05,0.35,2,-0.002447928,2.2801,,,,,,123,0,123,0,1,,,,,
,,282692,001,2023-07-24_20h02.54.842,arm3_q,2022.2.5,Win32,60.02040694,5e8654505276a10fe5e2633b,64aeaab685a29f4ca249be02,64bec9d47e9af4da1164cedb,up,1,0.05,0.35,2,0,0.7704,,,,,,124,0,124,0,1,,,,,
,,282692,001,2023-07-24_20h02.54.842,arm3_q,2022.2.5,Win32,60.02040694,5e8654505276a10fe5e2633b,64aeaab685a29f4ca249be02,64bec9d47e9af4da1164cedb,up,1,0.05,0.35,2,0,1.1643,,,,,,125,0,125,0,1,,,,,
,,282692,001,2023-07-24_20h02.54.842,arm3_q,2022.2.5,Win32,60.02040694,5e8654505276a10fe5e2633b,64aeaab685a29f4ca249be02,64bec9d47e9af4da1164cedb,down,-1,0.05,0.35,1,0,1.3053,,,,,,126,0,126,0,1,,,,,
,,282692,001,2023-07-24_20h02.54.842,arm3_q,2022.2.5,Win32,60.02040694,5e8654505276a10fe5e2633b,64aeaab685a29f4ca249be02,64bec9d47e9af4da1164cedb,down,1,0.05,0.35,1,0,2.1583,,,,,,127,0,127,0,1,,,,,
,,282692,001,2023-07-24_20h02.54.842,arm3_q,2022.2.5,Win32,60.02040694,5e8654505276a10fe5e2633b,64aeaab685a29f4ca249be02,64bec9d47e9af4da1164cedb,up,1,0.05,0.35,1,0,1.3859,,,,,,128,0,128,0,1,,,,,
,,282692,001,2023-07-24_20h02.54.842,arm3_q,2022.2.5,Win32,60.02040694,5e8654505276a10fe5e2633b,64aeaab685a29f4ca249be02,64bec9d47e9af4da1164cedb,up,1,0.05,0.35,1,0,1.1597,,,,,,129,0,129,0,1,,,,,
,,282692,001,2023-07-24_20h02.54.842,arm3_q,2022.2.5,Win32,60.02040694,5e8654505276a10fe5e2633b,64aeaab685a29f4ca249be02,64bec9d47e9af4da1164cedb,right,1,0.05,0.35,1,0.002197744,1.0931,,,,,,130,0,130,0,1,,,,,
,,282692,001,2023-07-24_20h02.54.842,arm3_q,2022.2.5,Win32,60.02040694,5e8654505276a10fe5e2633b,64aeaab685a29f4ca249be02,64bec9d47e9af4da1164cedb,up,1,0.05,0.35,1,0,0.5884,,,,,,131,0,131,0,1,,,,,
,,282692,001,2023-07-24_20h02.54.842,arm3_q,2022.2.5,Win32,60.02040694,5e8654505276a10fe5e2633b,64aeaab685a29f4ca249be02,64bec9d47e9af4da1164cedb,right,1,0.05,0.35,1,0.026329516,1.105,,,,,,132,0,132,0,1,,,,,
,,282692,001,2023-07-24_20h02.54.842,arm3_q,2022.2.5,Win32,60.02040694,5e8654505276a10fe5e2633b,64aeaab685a29f4ca249be02,64bec9d47e9af4da1164cedb,up,1,0.05,0.35,1,0,0.5283,,,,,,133,0,133,0,1,,,,,
,,282692,001,2023-07-24_20h02.54.842,arm3_q,2022.2.5,Win32,60.02040694,5e8654505276a10fe5e2633b,64aeaab685a29f4ca249be02,64bec9d47e9af4da1164cedb,right,1,0.05,0.35,1,0.006277139,1.2543,,,,,,134,0,134,0,1,,,,,
,,282692,001,2023-07-24_20h02.54.842,arm3_q,2022.2.5,Win32,60.02040694,5e8654505276a10fe5e2633b,64aeaab685a29f4ca249be02,64bec9d47e9af4da1164cedb,right,1,0.05,0.35,1,-0.015022438,0.8167,,,,,,135,0,135,0,1,,,,,
,,282692,001,2023-07-24_20h02.54.842,arm3_q,2022.2.5,Win32,60.02040694,5e8654505276a10fe5e2633b,64aeaab685a29f4ca249be02,64bec9d47e9af4da1164cedb,right,1,0.05,0.35,1,0.005504489,0.6664,,,,,,136,0,136,0,1,,,,,
,,282692,001,2023-07-24_20h02.54.842,arm3_q,2022.2.5,Win32,60.02040694,5e8654505276a10fe5e2633b,64aeaab685a29f4ca249be02,64bec9d47e9af4da1164cedb,up,1,0.05,0.35,1,0,0.6952,,,,,,137,0,137,0,1,,,,,
,,282692,001,2023-07-24_20h02.54.842,arm3_q,2022.2.5,Win32,60.02040694,5e8654505276a10fe5e2633b,64aeaab685a29f4ca249be02,64bec9d47e9af4da1164cedb,right,1,0.05,0.35,1,0.006689756,1.2299,,,,,,138,0,138,0,1,,,,,
,,282692,001,2023-07-24_20h02.54.842,arm3_q,2022.2.5,Win32,60.02040694,5e8654505276a10fe5e2633b,64aeaab685a29f4ca249be02,64bec9d47e9af4da1164cedb,right,1,0.05,0.35,1,0.014530117,0.4349,,,,,,139,0,139,0,1,,,,,
,,282692,001,2023-07-24_20h02.54.842,arm3_q,2022.2.5,Win32,60.02040694,5e8654505276a10fe5e2633b,64aeaab685a29f4ca249be02,64bec9d47e9af4da1164cedb,up,-1,0.05,0.35,1,0,0.4145,,,,,,140,0,140,0,1,,,,,
,,282692,001,2023-07-24_20h02.54.842,arm3_q,2022.2.5,Win32,60.02040694,5e8654505276a10fe5e2633b,64aeaab685a29f4ca249be02,64bec9d47e9af4da1164cedb,right,-1,0.05,0.35,1,0.0040119,1.1308,,,,,,141,0,141,0,1,,,,,
,,282692,001,2023-07-24_20h02.54.842,arm3_q,2022.2.5,Win32,60.02040694,5e8654505276a10fe5e2633b,64aeaab685a29f4ca249be02,64bec9d47e9af4da1164cedb,down,-1,0.05,0.35,1,0,0.6932,,,,,,142,0,142,0,1,,,,,
,,282692,001,2023-07-24_20h02.54.842,arm3_q,2022.2.5,Win32,60.02040694,5e8654505276a10fe5e2633b,64aeaab685a29f4ca249be02,64bec9d47e9af4da1164cedb,right,-1,0.05,0.35,1,0.013280417,1.1908,,,,,,143,0,143,0,1,,,,,
,,282692,001,2023-07-24_20h02.54.842,arm3_q,2022.2.5,Win32,60.02040694,5e8654505276a10fe5e2633b,64aeaab685a29f4ca249be02,64bec9d47e9af4da1164cedb,up,-1,0.05,0.35,1,0,0.8026,,,,,,144,0,144,0,1,,,,,
,,282692,001,2023-07-24_20h02.54.842,arm3_q,2022.2.5,Win32,60.02040694,5e8654505276a10fe5e2633b,64aeaab685a29f4ca249be02,64bec9d47e9af4da1164cedb,right,-1,0.05,0.35,1,-0.003373686,1.1643,,,,,,145,0,145,0,1,,,,,
,,282692,001,2023-07-24_20h02.54.842,arm3_q,2022.2.5,Win32,60.02040694,5e8654505276a10fe5e2633b,64aeaab685a29f4ca249be02,64bec9d47e9af4da1164cedb,down,-1,0.05,0.35,1,0,0.5951,,,,,,146,0,146,0,1,,,,,
,,282692,001,2023-07-24_20h02.54.842,arm3_q,2022.2.5,Win32,60.02040694,5e8654505276a10fe5e2633b,64aeaab685a29f4ca249be02,64bec9d47e9af4da1164cedb,down,-1,0.05,0.35,2,0,1.1791,,,,,,147,0,147,0,1,,,,,
,,282692,001,2023-07-24_20h02.54.842,arm3_q,2022.2.5,Win32,60.02040694,5e8654505276a10fe5e2633b,64aeaab685a29f4ca249be02,64bec9d47e9af4da1164cedb,down,-1,0.05,0.35,2,0,1.5021,,,,,,148,0,148,0,1,,,,,
,,282692,001,2023-07-24_20h02.54.842,arm3_q,2022.2.5,Win32,60.02040694,5e8654505276a10fe5e2633b,64aeaab685a29f4ca249be02,64bec9d47e9af4da1164cedb,up,-1,0.05,0.35,2,0,1.1922,,,,,,149,0,149,0,1,,,,,
,,282692,001,2023-07-24_20h02.54.842,arm3_q,2022.2.5,Win32,60.02040694,5e8654505276a10fe5e2633b,64aeaab685a29f4ca249be02,64bec9d47e9af4da1164cedb,down,1,0.05,0.35,3,0,1.1907,,,,,,150,0,150,0,1,,,,,
,,282692,001,2023-07-24_20h02.54.842,arm3_q,2022.2.5,Win32,60.02040694,5e8654505276a10fe5e2633b,64aeaab685a29f4ca249be02,64bec9d47e9af4da1164cedb,up,-1,0.05,0.35,3,0,1.5143,,,,,,151,0,151,0,1,,,,,
,,282692,001,2023-07-24_20h02.54.842,arm3_q,2022.2.5,Win32,60.02040694,5e8654505276a10fe5e2633b,64aeaab685a29f4ca249be02,64bec9d47e9af4da1164cedb,down,-1,0.05,0.35,3,0,1.2272,,,,,,152,0,152,0,1,,,,,
,,282692,001,2023-07-24_20h02.54.842,arm3_q,2022.2.5,Win32,60.02040694,5e8654505276a10fe5e2633b,64aeaab685a29f4ca249be02,64bec9d47e9af4da1164cedb,down,1,0.05,0.35,3,0,1.166,,,,,,153,0,153,0,1,,,,,
,,282692,001,2023-07-24_20h02.54.842,arm3_q,2022.2.5,Win32,60.02040694,5e8654505276a10fe5e2633b,64aeaab685a29f4ca249be02,64bec9d47e9af4da1164cedb,right,1,0.05,0.35,3,-0.004395344,1.766,,,,,,154,0,154,0,1,,,,,
,,282692,001,2023-07-24_20h02.54.842,arm3_q,2022.2.5,Win32,60.02040694,5e8654505276a10fe5e2633b,64aeaab685a29f4ca249be02,64bec9d47e9af4da1164cedb,right,1,0.05,0.35,3,0.007658681,0.3335,,,,,,155,0,155,0,1,,,,,
,,282692,001,2023-07-24_20h02.54.842,arm3_q,2022.2.5,Win32,60.02040694,5e8654505276a10fe5e2633b,64aeaab685a29f4ca249be02,64bec9d47e9af4da1164cedb,right,1,0.05,0.35,3,0.007056121,0.8003,,,,,,156,0,156,0,1,,,,,
,,282692,001,2023-07-24_20h02.54.842,arm3_q,2022.2.5,Win32,60.02040694,5e8654505276a10fe5e2633b,64aeaab685a29f4ca249be02,64bec9d47e9af4da1164cedb,up,1,0.05,0.35,3,0,0.5502,,,,,,157,0,157,0,1,,,,,
,,282692,001,2023-07-24_20h02.54.842,arm3_q,2022.2.5,Win32,60.02040694,5e8654505276a10fe5e2633b,64aeaab685a29f4ca249be02,64bec9d47e9af4da1164cedb,up,1,0.05,0.35,4,0,1.6837,,,,,,158,0,158,0,1,,,,,
,,282692,001,2023-07-24_20h02.54.842,arm3_q,2022.2.5,Win32,60.02040694,5e8654505276a10fe5e2633b,64aeaab685a29f4ca249be02,64bec9d47e9af4da1164cedb,down,1,0.05,0.35,4,0,1.4674,,,,,,159,0,159,0,1,,,,,
,,282692,001,2023-07-24_20h02.54.842,arm3_q,2022.2.5,Win32,60.02040694,5e8654505276a10fe5e2633b,64aeaab685a29f4ca249be02,64bec9d47e9af4da1164cedb,right,1,0.05,0.35,4,0.004806464,1.5558,,,,,,160,0,160,0,1,,,,,
,,282692,001,2023-07-24_20h02.54.842,arm3_q,2022.2.5,Win32,60.02040694,5e8654505276a10fe5e2633b,64aeaab685a29f4ca249be02,64bec9d47e9af4da1164cedb,up,1,0.05,0.35,4,0,0.6508,,,,,,161,0,161,0,1,,,,,
,,282692,001,2023-07-24_20h02.54.842,arm3_q,2022.2.5,Win32,60.02040694,5e8654505276a10fe5e2633b,64aeaab685a29f4ca249be02,64bec9d47e9af4da1164cedb,right,1,0.05,0.35,4,0.00911303,1.4796,,,,,,162,0,162,0,1,,,,,
,,282692,001,2023-07-24_20h02.54.842,arm3_q,2022.2.5,Win32,60.02040694,5e8654505276a10fe5e2633b,64aeaab685a29f4ca249be02,64bec9d47e9af4da1164cedb,up,1,0.05,0.35,4,0,0.3424,,,,,,163,0,163,0,1,,,,,
,,282692,001,2023-07-24_20h02.54.842,arm3_q,2022.2.5,Win32,60.02040694,5e8654505276a10fe5e2633b,64aeaab685a29f4ca249be02,64bec9d47e9af4da1164cedb,right,1,0.05,0.35,4,0.03024129,0.8741,,,,,,164,0,164,0,1,,,,,
,,282692,001,2023-07-24_20h02.54.842,arm3_q,2022.2.5,Win32,60.02040694,5e8654505276a10fe5e2633b,64aeaab685a29f4ca249be02,64bec9d47e9af4da1164cedb,down,-1,0.05,0.35,4,0,1.5644,,,,,,165,0,165,0,1,,,,,
,,282692,001,2023-07-24_20h02.54.842,arm3_q,2022.2.5,Win32,60.02040694,5e8654505276a10fe5e2633b,64aeaab685a29f4ca249be02,64bec9d47e9af4da1164cedb,right,-1,0.05,0.35,4,-0.002533131,1.3229,,,,,,166,0,166,0,1,,,,,
,,282692,001,2023-07-24_20h02.54.842,arm3_q,2022.2.5,Win32,60.02040694,5e8654505276a10fe5e2633b,64aeaab685a29f4ca249be02,64bec9d47e9af4da1164cedb,up,1,0.05,0.35,4,0,0.5805,,,,,,167,0,167,0,1,,,,,
,,282692,001,2023-07-24_20h02.54.842,arm3_q,2022.2.5,Win32,60.02040694,5e8654505276a10fe5e2633b,64aeaab685a29f4ca249be02,64bec9d47e9af4da1164cedb,right,1,0.05,0.35,4,0.002713613,0.9693,,,,,,168,0,168,0,1,,,,,
,,282692,001,2023-07-24_20h02.54.842,arm3_q,2022.2.5,Win32,60.02040694,5e8654505276a10fe5e2633b,64aeaab685a29f4ca249be02,64bec9d47e9af4da1164cedb,down,-1,0.05,0.35,4,0,0.5827,,,,,,169,0,169,0,1,,,,,
,,282692,001,2023-07-24_20h02.54.842,arm3_q,2022.2.5,Win32,60.02040694,5e8654505276a10fe5e2633b,64aeaab685a29f4ca249be02,64bec9d47e9af4da1164cedb,right,-1,0.05,0.35,4,0.007890307,1.0173,,,,,,170,0,170,0,1,,,,,
,,282692,001,2023-07-24_20h02.54.842,arm3_q,2022.2.5,Win32,60.02040694,5e8654505276a10fe5e2633b,64aeaab685a29f4ca249be02,64bec9d47e9af4da1164cedb,up,-1,0.05,0.35,4,0,0.5666,,,,,,171,0,171,0,1,,,,,
,,282692,001,2023-07-24_20h02.54.842,arm3_q,2022.2.5,Win32,60.02040694,5e8654505276a10fe5e2633b,64aeaab685a29f4ca249be02,64bec9d47e9af4da1164cedb,right,-1,0.05,0.35,4,-0.031814622,1.1997,,,,,,172,0,172,0,1,,,,,
,,282692,001,2023-07-24_20h02.54.842,arm3_q,2022.2.5,Win32,60.02040694,5e8654505276a10fe5e2633b,64aeaab685a29f4ca249be02,64bec9d47e9af4da1164cedb,right,-1,0.05,0.35,4,-0.021133284,0.7338,,,,,,173,0,173,0,1,,,,,
,,282692,001,2023-07-24_20h02.54.842,arm3_q,2022.2.5,Win32,60.02040694,5e8654505276a10fe5e2633b,64aeaab685a29f4ca249be02,64bec9d47e9af4da1164cedb,right,-1,0.05,0.35,4,-0.039162102,0.8082,,,,,,174,0,174,0,1,,,,,
,,282692,001,2023-07-24_20h02.54.842,arm3_q,2022.2.5,Win32,60.02040694,5e8654505276a10fe5e2633b,64aeaab685a29f4ca249be02,64bec9d47e9af4da1164cedb,down,-1,0.05,0.35,4,0,0.6878,,,,,,175,0,175,0,1,,,,,
,,282692,001,2023-07-24_20h02.54.842,arm3_q,2022.2.5,Win32,60.02040694,5e8654505276a10fe5e2633b,64aeaab685a29f4ca249be02,64bec9d47e9af4da1164cedb,right,-1,0.05,0.35,4,-0.021248561,1.1837,,,,,,176,0,176,0,1,,,,,
,,282692,001,2023-07-24_20h02.54.842,arm3_q,2022.2.5,Win32,60.02040694,5e8654505276a10fe5e2633b,64aeaab685a29f4ca249be02,64bec9d47e9af4da1164cedb,down,-1,0.05,0.35,4,0,1.4004,,,,,,177,0,177,0,1,,,,,
,,282692,001,2023-07-24_20h02.54.842,arm3_q,2022.2.5,Win32,60.02040694,5e8654505276a10fe5e2633b,64aeaab685a29f4ca249be02,64bec9d47e9af4da1164cedb,down,1,0.05,0.35,4,0,1.2008,,,,,,178,0,178,0,1,,,,,
,,282692,001,2023-07-24_20h02.54.842,arm3_q,2022.2.5,Win32,60.02040694,5e8654505276a10fe5e2633b,64aeaab685a29f4ca249be02,64bec9d47e9af4da1164cedb,right,1,0.05,0.35,4,0.007823876,2.0507,,,,,,179,0,179,0,1,,,,,
,,282692,001,2023-07-24_20h02.54.842,arm3_q,2022.2.5,Win32,60.02040694,5e8654505276a10fe5e2633b,64aeaab685a29f4ca249be02,64bec9d47e9af4da1164cedb,up,-1,0.05,0.35,4,0,0.4332,,,,,,180,0,180,0,1,,,,,
,,282692,001,2023-07-24_20h02.54.842,arm3_q,2022.2.5,Win32,60.02040694,5e8654505276a10fe5e2633b,64aeaab685a29f4ca249be02,64bec9d47e9af4da1164cedb,right,-1,0.05,0.35,4,-0.004454096,1.7336,,,,,,181,0,181,0,1,,,,,
,,282692,001,2023-07-24_20h02.54.842,arm3_q,2022.2.5,Win32,60.02040694,5e8654505276a10fe5e2633b,64aeaab685a29f4ca249be02,64bec9d47e9af4da1164cedb,up,1,0.05,0.35,4,0,0.5681,,,,,,182,0,182,0,1,,,,,
,,282692,001,2023-07-24_20h02.54.842,arm3_q,2022.2.5,Win32,60.02040694,5e8654505276a10fe5e2633b,64aeaab685a29f4ca249be02,64bec9d47e9af4da1164cedb,up,-1,0.05,0.35,4,0,1.0709,,,,,,183,0,183,0,1,,,,,
,,282692,001,2023-07-24_20h02.54.842,arm3_q,2022.2.5,Win32,60.02040694,5e8654505276a10fe5e2633b,64aeaab685a29f4ca249be02,64bec9d47e9af4da1164cedb,right,-1,0.05,0.35,4,0.002928897,1.3327,,,,,,184,0,184,0,1,,,,,
,,282692,001,2023-07-24_20h02.54.842,arm3_q,2022.2.5,Win32,60.02040694,5e8654505276a10fe5e2633b,64aeaab685a29f4ca249be02,64bec9d47e9af4da1164cedb,right,-1,0.05,0.35,4,-0.007406418,0.5678,,,,,,185,0,185,0,1,,,,,
,,282692,001,2023-07-24_20h02.54.842,arm3_q,2022.2.5,Win32,60.02040694,5e8654505276a10fe5e2633b,64aeaab685a29f4ca249be02,64bec9d47e9af4da1164cedb,down,-1,0.05,0.35,4,0,0.4676,,,,,,186,0,186,0,1,,,,,
,,282692,001,2023-07-24_20h02.54.842,arm3_q,2022.2.5,Win32,60.02040694,5e8654505276a10fe5e2633b,64aeaab685a29f4ca249be02,64bec9d47e9af4da1164cedb,down,-1,0.05,0.35,4,0,1.4034,,,,,,187,0,187,0,1,,,,,
,,282692,001,2023-07-24_20h02.54.842,arm3_q,2022.2.5,Win32,60.02040694,5e8654505276a10fe5e2633b,64aeaab685a29f4ca249be02,64bec9d47e9af4da1164cedb,up,1,0.05,0.35,4,0,1.1503,,,,,,188,0,188,0,1,,,,,
,,282692,001,2023-07-24_20h02.54.842,arm3_q,2022.2.5,Win32,60.02040694,5e8654505276a10fe5e2633b,64aeaab685a29f4ca249be02,64bec9d47e9af4da1164cedb,right,1,0.05,0.35,4,0.000451781,1.2162,,,,,,189,0,189,0,1,,,,,
,,282692,001,2023-07-24_20h02.54.842,arm3_q,2022.2.5,Win32,60.02040694,5e8654505276a10fe5e2633b,64aeaab685a29f4ca249be02,64bec9d47e9af4da1164cedb,right,1,0.05,0.35,4,0.005260385,0.4507,,,,,,190,0,190,0,1,,,,,
,,282692,001,2023-07-24_20h02.54.842,arm3_q,2022.2.5,Win32,60.02040694,5e8654505276a10fe5e2633b,64aeaab685a29f4ca249be02,64bec9d47e9af4da1164cedb,up,1,0.05,0.35,4,0,0.4656,,,,,,191,0,191,0,1,,,,,
,,282692,001,2023-07-24_20h02.54.842,arm3_q,2022.2.5,Win32,60.02040694,5e8654505276a10fe5e2633b,64aeaab685a29f4ca249be02,64bec9d47e9af4da1164cedb,right,1,0.05,0.35,4,0.002403714,1.2549,,,,,,192,0,192,0,1,,,,,
,,282692,001,2023-07-24_20h02.54.842,arm3_q,2022.2.5,Win32,60.02040694,5e8654505276a10fe5e2633b,64aeaab685a29f4ca249be02,64bec9d47e9af4da1164cedb,right,1,0.05,0.35,4,-0.008504527,0.444,,,,,,193,0,193,0,1,,,,,
,,282692,001,2023-07-24_20h02.54.842,arm3_q,2022.2.5,Win32,60.02040694,5e8654505276a10fe5e2633b,64aeaab685a29f4ca249be02,64bec9d47e9af4da1164cedb,up,1,0.05,0.35,4,0,0.7174,,,,,,194,0,194,0,1,,,,,
,,282692,001,2023-07-24_20h02.54.842,arm3_q,2022.2.5,Win32,60.02040694,5e8654505276a10fe5e2633b,64aeaab685a29f4ca249be02,64bec9d47e9af4da1164cedb,up,1,0.05,0.35,4,0,1.2759,,,,,,195,0,195,0,1,,,,,
,,282692,001,2023-07-24_20h02.54.842,arm3_q,2022.2.5,Win32,60.02040694,5e8654505276a10fe5e2633b,64aeaab685a29f4ca249be02,64bec9d47e9af4da1164cedb,right,1,0.05,0.35,4,0.006026641,1.1339,,,,,,196,0,196,0,1,,,,,
,,282692,001,2023-07-24_20h02.54.842,arm3_q,2022.2.5,Win32,60.02040694,5e8654505276a10fe5e2633b,64aeaab685a29f4ca249be02,64bec9d47e9af4da1164cedb,up,1,0.05,0.35,4,0,0.5063,,,,,,197,0,197,0,1,,,,,
,,282692,001,2023-07-24_20h02.54.842,arm3_q,2022.2.5,Win32,60.02040694,5e8654505276a10fe5e2633b,64aeaab685a29f4ca249be02,64bec9d47e9af4da1164cedb,right,1,0.05,0.35,4,-0.002839337,0.8502,,,,,,198,0,198,0,1,,,,,
,,282692,001,2023-07-24_20h02.54.842,arm3_q,2022.2.5,Win32,60.02040694,5e8654505276a10fe5e2633b,64aeaab685a29f4ca249be02,64bec9d47e9af4da1164cedb,right,1,0.05,0.35,4,0.000441284,0.5401,,,,,,199,0,199,0,1,,,,,
,,282692,001,2023-07-24_20h02.54.842,arm3_q,2022.2.5,Win32,60.02040694,5e8654505276a10fe5e2633b,64aeaab685a29f4ca249be02,64bec9d47e9af4da1164cedb,up,1,0.05,0.35,4,0,0.584,,,,,,200,0,200,0,1,,,,,
,,282692,001,2023-07-24_20h02.54.842,arm3_q,2022.2.5,Win32,60.02040694,5e8654505276a10fe5e2633b,64aeaab685a29f4ca249be02,64bec9d47e9af4da1164cedb,down,1,0.05,0.35,4,0,1.3711,,,,,,201,0,201,0,1,,,,,
,,282692,001,2023-07-24_20h02.54.842,arm3_q,2022.2.5,Win32,60.02040694,5e8654505276a10fe5e2633b,64aeaab685a29f4ca249be02,64bec9d47e9af4da1164cedb,right,1,0.05,0.35,4,-0.004096183,1.4071,,,,,,202,0,202,0,1,,,,,
,,282692,001,2023-07-24_20h02.54.842,arm3_q,2022.2.5,Win32,60.02040694,5e8654505276a10fe5e2633b,64aeaab685a29f4ca249be02,64bec9d47e9af4da1164cedb,right,1,0.05,0.35,4,0.011892227,0.7262,,,,,,203,0,203,0,1,,,,,
,,282692,001,2023-07-24_20h02.54.842,arm3_q,2022.2.5,Win32,60.02040694,5e8654505276a10fe5e2633b,64aeaab685a29f4ca249be02,64bec9d47e9af4da1164cedb,up,-1,0.05,0.35,4,0,0.3346,,,,,,204,0,204,0,1,,,,,
,,282692,001,2023-07-24_20h02.54.842,arm3_q,2022.2.5,Win32,60.02040694,5e8654505276a10fe5e2633b,64aeaab685a29f4ca249be02,64bec9d47e9af4da1164cedb,right,-1,0.05,0.35,4,1.18129E-05,2.5487,,,,,,205,0,205,0,1,,,,,
,,282692,001,2023-07-24_20h02.54.842,arm3_q,2022.2.5,Win32,60.02040694,5e8654505276a10fe5e2633b,64aeaab685a29f4ca249be02,64bec9d47e9af4da1164cedb,up,-1,0.05,0.35,3,0,0.517,,,,,,206,0,206,0,1,,,,,
,,282692,001,2023-07-24_20h02.54.842,arm3_q,2022.2.5,Win32,60.02040694,5e8654505276a10fe5e2633b,64aeaab685a29f4ca249be02,64bec9d47e9af4da1164cedb,down,-1,0.05,0.35,3,0,1.5748,,,,,,207,0,207,0,1,,,,,
,,282692,001,2023-07-24_20h02.54.842,arm3_q,2022.2.5,Win32,60.02040694,5e8654505276a10fe5e2633b,64aeaab685a29f4ca249be02,64bec9d47e9af4da1164cedb,up,-1,0.05,0.35,3,0,1.0836,,,,,,208,0,208,0,1,,,,,
,,282692,001,2023-07-24_20h02.54.842,arm3_q,2022.2.5,Win32,60.02040694,5e8654505276a10fe5e2633b,64aeaab685a29f4ca249be02,64bec9d47e9af4da1164cedb,right,-1,0.05,0.35,3,0.002849003,1.3928,,,,,,209,0,209,0,1,,,,,
,,282692,001,2023-07-24_20h02.54.842,arm3_q,2022.2.5,Win32,60.02040694,5e8654505276a10fe5e2633b,64aeaab685a29f4ca249be02,64bec9d47e9af4da1164cedb,right,-1,0.05,0.35,3,-0.006451943,0.8841,,,,,,210,0,210,0,1,,,,,
,,282692,001,2023-07-24_20h02.54.842,arm3_q,2022.2.5,Win32,60.02040694,5e8654505276a10fe5e2633b,64aeaab685a29f4ca249be02,64bec9d47e9af4da1164cedb,down,-1,0.05,0.35,3,0,0.4244,,,,,,211,0,211,0,1,,,,,
,,282692,001,2023-07-24_20h02.54.842,arm3_q,2022.2.5,Win32,60.02040694,5e8654505276a10fe5e2633b,64aeaab685a29f4ca249be02,64bec9d47e9af4da1164cedb,right,-1,0.05,0.35,3,-0.017381278,1.7492,,,,,,212,0,212,0,1,,,,,
,,282692,001,2023-07-24_20h02.54.842,arm3_q,2022.2.5,Win32,60.02040694,5e8654505276a10fe5e2633b,64aeaab685a29f4ca249be02,64bec9d47e9af4da1164cedb,down,-1,0.05,0.35,3,0,0.5508,,,,,,213,0,213,0,1,,,,,
,,282692,001,2023-07-24_20h02.54.842,arm3_q,2022.2.5,Win32,60.02040694,5e8654505276a10fe5e2633b,64aeaab685a29f4ca249be02,64bec9d47e9af4da1164cedb,down,-1,0.05,0.35,3,0,1.2147,,,,,,214,0,214,0,1,,,,,
,,282692,001,2023-07-24_20h02.54.842,arm3_q,2022.2.5,Win32,60.02040694,5e8654505276a10fe5e2633b,64aeaab685a29f4ca249be02,64bec9d47e9af4da1164cedb,down,1,0.05,0.35,3,0,0.9171,,,,,,215,0,215,0,1,,,,,
,,282692,001,2023-07-24_20h02.54.842,arm3_q,2022.2.5,Win32,60.02040694,5e8654505276a10fe5e2633b,64aeaab685a29f4ca249be02,64bec9d47e9af4da1164cedb,down,1,0.05,0.35,3,0,1.1567,,,,,,216,0,216,0,1,,,,,
,,282692,001,2023-07-24_20h02.54.842,arm3_q,2022.2.5,Win32,60.02040694,5e8654505276a10fe5e2633b,64aeaab685a29f4ca249be02,64bec9d47e9af4da1164cedb,down,1,0.05,0.35,3,0,0.9663,,,,,,217,0,217,0,1,,,,,
,,282692,001,2023-07-24_20h02.54.842,arm3_q,2022.2.5,Win32,60.02040694,5e8654505276a10fe5e2633b,64aeaab685a29f4ca249be02,64bec9d47e9af4da1164cedb,up,-1,0.05,0.35,3,0,1.3684,,,,,,218,0,218,0,1,,,,,
,,282692,001,2023-07-24_20h02.54.842,arm3_q,2022.2.5,Win32,60.02040694,5e8654505276a10fe5e2633b,64aeaab685a29f4ca249be02,64bec9d47e9af4da1164cedb,down,1,0.05,0.35,3,0,1.4208,,,,,,219,0,219,0,1,,,,,
,,282692,001,2023-07-24_20h02.54.842,arm3_q,2022.2.5,Win32,60.02040694,5e8654505276a10fe5e2633b,64aeaab685a29f4ca249be02,64bec9d47e9af4da1164cedb,up,1,0.05,0.35,3,0,1.1005,,,,,,220,0,220,0,1,,,,,
,,282692,001,2023-07-24_20h02.54.842,arm3_q,2022.2.5,Win32,60.02040694,5e8654505276a10fe5e2633b,64aeaab685a29f4ca249be02,64bec9d47e9af4da1164cedb,down,1,0.05,0.35,3,0,1.2651,,,,,,221,0,221,0,1,,,,,
,,282692,001,2023-07-24_20h02.54.842,arm3_q,2022.2.5,Win32,60.02040694,5e8654505276a10fe5e2633b,64aeaab685a29f4ca249be02,64bec9d47e9af4da1164cedb,up,1,0.05,0.35,3,0,1.0158,,,,,,222,0,222,0,1,,,,,
,,282692,001,2023-07-24_20h02.54.842,arm3_q,2022.2.5,Win32,60.02040694,5e8654505276a10fe5e2633b,64aeaab685a29f4ca249be02,64bec9d47e9af4da1164cedb,down,1,0.05,0.35,3,0,1.1573,,,,,,223,0,223,0,1,,,,,
,,282692,001,2023-07-24_20h02.54.842,arm3_q,2022.2.5,Win32,60.02040694,5e8654505276a10fe5e2633b,64aeaab685a29f4ca249be02,64bec9d47e9af4da1164cedb,up,-1,0.05,0.35,3,0,0.9674,,,,,,224,0,224,0,1,,,,,
,,282692,001,2023-07-24_20h02.54.842,arm3_q,2022.2.5,Win32,60.02040694,5e8654505276a10fe5e2633b,64aeaab685a29f4ca249be02,64bec9d47e9af4da1164cedb,right,-1,0.05,0.35,3,0.000739129,0.9345,,,,,,225,0,225,0,1,,,,,
,,282692,001,2023-07-24_20h02.54.842,arm3_q,2022.2.5,Win32,60.02040694,5e8654505276a10fe5e2633b,64aeaab685a29f4ca249be02,64bec9d47e9af4da1164cedb,right,-1,0.05,0.35,3,-0.004889929,0.7563,,,,,,226,0,226,0,1,,,,,
,,282692,001,2023-07-24_20h02.54.842,arm3_q,2022.2.5,Win32,60.02040694,5e8654505276a10fe5e2633b,64aeaab685a29f4ca249be02,64bec9d47e9af4da1164cedb,down,-1,0.05,0.35,3,0,0.4669,,,,,,227,0,227,0,1,,,,,
,,282692,001,2023-07-24_20h02.54.842,arm3_q,2022.2.5,Win32,60.02040694,5e8654505276a10fe5e2633b,64aeaab685a29f4ca249be02,64bec9d47e9af4da1164cedb,right,-1,0.05,0.35,3,-0.016935401,0.9568,,,,,,228,0,228,0,1,,,,,
,,282692,001,2023-07-24_20h02.54.842,arm3_q,2022.2.5,Win32,60.02040694,5e8654505276a10fe5e2633b,64aeaab685a29f4ca249be02,64bec9d47e9af4da1164cedb,down,-1,0.05,0.35,3,0,1.3992,,,,,,229,0,229,0,1,,,,,
,,282692,001,2023-07-24_20h02.54.842,arm3_q,2022.2.5,Win32,60.02040694,5e8654505276a10fe5e2633b,64aeaab685a29f4ca249be02,64bec9d47e9af4da1164cedb,up,-1,0.05,0.35,3,0,1.2648,,,,,,230,0,230,0,1,,,,,
,,282692,001,2023-07-24_20h02.54.842,arm3_q,2022.2.5,Win32,60.02040694,5e8654505276a10fe5e2633b,64aeaab685a29f4ca249be02,64bec9d47e9af4da1164cedb,right,-1,0.05,0.35,3,0.009621988,1.1503,,,,,,231,0,231,0,1,,,,,
,,282692,001,2023-07-24_20h02.54.842,arm3_q,2022.2.5,Win32,60.02040694,5e8654505276a10fe5e2633b,64aeaab685a29f4ca249be02,64bec9d47e9af4da1164cedb,right,-1,0.05,0.35,3,0.005764384,0.6562,,,,,,232,0,232,0,1,,,,,
,,282692,001,2023-07-24_20h02.54.842,arm3_q,2022.2.5,Win32,60.02040694,5e8654505276a10fe5e2633b,64aeaab685a29f4ca249be02,64bec9d47e9af4da1164cedb,down,-1,0.05,0.35,3,0,0.5748,,,,,,233,0,233,0,1,,,,,
,,282692,001,2023-07-24_20h02.54.842,arm3_q,2022.2.5,Win32,60.02040694,5e8654505276a10fe5e2633b,64aeaab685a29f4ca249be02,64bec9d47e9af4da1164cedb,down,-1,0.05,0.35,3,0,1.5405,,,,,,234,0,234,0,1,,,,,
,,282692,001,2023-07-24_20h02.54.842,arm3_q,2022.2.5,Win32,60.02040694,5e8654505276a10fe5e2633b,64aeaab685a29f4ca249be02,64bec9d47e9af4da1164cedb,right,-1,0.05,0.35,3,-0.019453112,0.9236,,,,,,235,0,235,0,1,,,,,
,,282692,001,2023-07-24_20h02.54.842,arm3_q,2022.2.5,Win32,60.02040694,5e8654505276a10fe5e2633b,64aeaab685a29f4ca249be02,64bec9d47e9af4da1164cedb,up,1,0.05,0.35,3,0,0.6384,,,,,,236,0,236,0,1,,,,,
,,282692,001,2023-07-24_20h02.54.842,arm3_q,2022.2.5,Win32,60.02040694,5e8654505276a10fe5e2633b,64aeaab685a29f4ca249be02,64bec9d47e9af4da1164cedb,right,1,0.05,0.35,3,0.001413986,1.2324,,,,,,237,0,237,0,1,,,,,
,,282692,001,2023-07-24_20h02.54.842,arm3_q,2022.2.5,Win32,60.02040694,5e8654505276a10fe5e2633b,64aeaab685a29f4ca249be02,64bec9d47e9af4da1164cedb,up,1,0.05,0.35,3,0,0.5651,,,,,,238,0,238,0,1,,,,,
,,282692,001,2023-07-24_20h02.54.842,arm3_q,2022.2.5,Win32,60.02040694,5e8654505276a10fe5e2633b,64aeaab685a29f4ca249be02,64bec9d47e9af4da1164cedb,up,-1,0.05,0.35,3,0,1.0385,,,,,,239,0,239,0,1,,,,,
,,282692,001,2023-07-24_20h02.54.842,arm3_q,2022.2.5,Win32,60.02040694,5e8654505276a10fe5e2633b,64aeaab685a29f4ca249be02,64bec9d47e9af4da1164cedb,right,-1,0.05,0.35,3,0.002098601,1.7996,,,,,,240,0,240,0,1,,,,,
,,282692,001,2023-07-24_20h02.54.842,arm3_q,2022.2.5,Win32,60.02040694,5e8654505276a10fe5e2633b,64aeaab685a29f4ca249be02,64bec9d47e9af4da1164cedb,up,1,0.05,0.35,3,0,0.5839,,,,,,241,0,241,0,1,,,,,
,,282692,001,2023-07-24_20h02.54.842,arm3_q,2022.2.5,Win32,60.02040694,5e8654505276a10fe5e2633b,64aeaab685a29f4ca249be02,64bec9d47e9af4da1164cedb,up,1,0.05,0.35,3,0,1.0506,,,,,,242,0,242,0,1,,,,,
,,282692,001,2023-07-24_20h02.54.842,arm3_q,2022.2.5,Win32,60.02040694,5e8654505276a10fe5e2633b,64aeaab685a29f4ca249be02,64bec9d47e9af4da1164cedb,right,1,0.05,0.35,3,0.008637301,1.2274,,,,,,243,0,243,0,1,,,,,
,,282692,001,2023-07-24_20h02.54.842,arm3_q,2022.2.5,Win32,60.02040694,5e8654505276a10fe5e2633b,64aeaab685a29f4ca249be02,64bec9d47e9af4da1164cedb,right,1,0.05,0.35,3,-0.012517041,0.6435,,,,,,244,0,244,0,1,,,,,
,,282692,001,2023-07-24_20h02.54.842,arm3_q,2022.2.5,Win32,60.02040694,5e8654505276a10fe5e2633b,64aeaab685a29f4ca249be02,64bec9d47e9af4da1164cedb,up,1,0.05,0.35,3,0,0.6838,,,,,,245,0,245,0,1,,,,,
,,282692,001,2023-07-24_20h02.54.842,arm3_q,2022.2.5,Win32,60.02040694,5e8654505276a10fe5e2633b,64aeaab685a29f4ca249be02,64bec9d47e9af4da1164cedb,right,1,0.05,0.35,3,0.007986953,1.1669,,,,,,246,0,246,0,1,,,,,
,,282692,001,2023-07-24_20h02.54.842,arm3_q,2022.2.5,Win32,60.02040694,5e8654505276a10fe5e2633b,64aeaab685a29f4ca249be02,64bec9d47e9af4da1164cedb,right,1,0.05,0.35,3,0.002868559,0.417,,,,,,247,0,247,0,1,,,,,
,,282692,001,2023-07-24_20h02.54.842,arm3_q,2022.2.5,Win32,60.02040694,5e8654505276a10fe5e2633b,64aeaab685a29f4ca249be02,64bec9d47e9af4da1164cedb,up,1,0.05,0.35,4,0,0.4176,,,,,,248,0,248,0,1,,,,,
,,282692,001,2023-07-24_20h02.54.842,arm3_q,2022.2.5,Win32,60.02040694,5e8654505276a10fe5e2633b,64aeaab685a29f4ca249be02,64bec9d47e9af4da1164cedb,right,1,0.05,0.35,4,0.014335704,1.1834,,,,,,249,0,249,0,1,,,,,
,,282692,001,2023-07-24_20h02.54.842,arm3_q,2022.2.5,Win32,60.02040694,5e8654505276a10fe5e2633b,64aeaab685a29f4ca249be02,64bec9d47e9af4da1164cedb,right,1,0.05,0.35,4,0.004831681,0.5171,,,,,,250,0,250,0,1,,,,,
,,282692,001,2023-07-24_20h02.54.842,arm3_q,2022.2.5,Win32,60.02040694,5e8654505276a10fe5e2633b,64aeaab685a29f4ca249be02,64bec9d47e9af4da1164cedb,up,-1,0.05,0.35,4,0,0.3818,,,,,,251,0,251,0,1,,,,,
,,282692,001,2023-07-24_20h02.54.842,arm3_q,2022.2.5,Win32,60.02040694,5e8654505276a10fe5e2633b,64aeaab685a29f4ca249be02,64bec9d47e9af4da1164cedb,right,-1,0.05,0.35,4,-0.018291439,0.9836,,,,,,252,0,252,0,1,,,,,
,,282692,001,2023-07-24_20h02.54.842,arm3_q,2022.2.5,Win32,60.02040694,5e8654505276a10fe5e2633b,64aeaab685a29f4ca249be02,64bec9d47e9af4da1164cedb,right,-1,0.05,0.35,4,-0.016451764,0.5343,,,,,,253,0,253,0,1,,,,,
,,282692,001,2023-07-24_20h02.54.842,arm3_q,2022.2.5,Win32,60.02040694,5e8654505276a10fe5e2633b,64aeaab685a29f4ca249be02,64bec9d47e9af4da1164cedb,down,-1,0.05,0.35,4,0,0.8174,,,,,,254,0,254,0,1,,,,,
,,282692,001,2023-07-24_20h02.54.842,arm3_q,2022.2.5,Win32,60.02040694,5e8654505276a10fe5e2633b,64aeaab685a29f4ca249be02,64bec9d47e9af4da1164cedb,right,-1,0.05,0.35,4,-0.016830743,1.0532,,,,,,255,0,255,0,1,,,,,
,,282692,001,2023-07-24_20h02.54.842,arm3_q,2022.2.5,Win32,60.02040694,5e8654505276a10fe5e2633b,64aeaab685a29f4ca249be02,64bec9d47e9af4da1164cedb,right,-1,0.05,0.35,4,-0.012585883,0.5171,,,,,,256,0,256,0,1,,,,,
,,282692,001,2023-07-24_20h02.54.842,arm3_q,2022.2.5,Win32,60.02040694,5e8654505276a10fe5e2633b,64aeaab685a29f4ca249be02,64bec9d47e9af4da1164cedb,down,-1,0.05,0.35,4,0,0.7168,,,,,,257,0,257,0,1,,,,,
,,282692,001,2023-07-24_20h02.54.842,arm3_q,2022.2.5,Win32,60.02040694,5e8654505276a10fe5e2633b,64aeaab685a29f4ca249be02,64bec9d47e9af4da1164cedb,right,-1,0.05,0.35,4,-0.026444225,1.1165,,,,,,258,0,258,0,1,,,,,
,,282692,001,2023-07-24_20h02.54.842,arm3_q,2022.2.5,Win32,60.02040694,5e8654505276a10fe5e2633b,64aeaab685a29f4ca249be02,64bec9d47e9af4da1164cedb,down,-1,0.05,0.35,4,0,0.5095,,,,,,259,0,259,0,1,,,,,
,,282692,001,2023-07-24_20h02.54.842,arm3_q,2022.2.5,Win32,60.02040694,5e8654505276a10fe5e2633b,64aeaab685a29f4ca249be02,64bec9d47e9af4da1164cedb,right,-1,0.05,0.35,4,0.005395474,0.9512,,,,,,260,0,260,0,1,,,,,
,,282692,001,2023-07-24_20h02.54.842,arm3_q,2022.2.5,Win32,60.02040694,5e8654505276a10fe5e2633b,64aeaab685a29f4ca249be02,64bec9d47e9af4da1164cedb,down,1,0.05,0.35,4,0,0.6003,,,,,,261,0,261,0,1,,,,,
,,282692,001,2023-07-24_20h02.54.842,arm3_q,2022.2.5,Win32,60.02040694,5e8654505276a10fe5e2633b,64aeaab685a29f4ca249be02,64bec9d47e9af4da1164cedb,right,1,0.05,0.35,4,0.012122659,1.866,,,,,,262,0,262,0,1,,,,,
,,282692,001,2023-07-24_20h02.54.842,arm3_q,2022.2.5,Win32,60.02040694,5e8654505276a10fe5e2633b,64aeaab685a29f4ca249be02,64bec9d47e9af4da1164cedb,up,1,0.05,0.35,4,0,0.5256,,,,,,263,0,263,0,1,,,,,
,,282692,001,2023-07-24_20h02.54.842,arm3_q,2022.2.5,Win32,60.02040694,5e8654505276a10fe5e2633b,64aeaab685a29f4ca249be02,64bec9d47e9af4da1164cedb,right,1,0.05,0.35,4,-0.009677911,1.5237,,,,,,264,0,264,0,1,,,,,
,,282692,001,2023-07-24_20h02.54.842,arm3_q,2022.2.5,Win32,60.02040694,5e8654505276a10fe5e2633b,64aeaab685a29f4ca249be02,64bec9d47e9af4da1164cedb,down,-1,0.05,0.35,4,0,0.6836,,,,,,265,0,265,0,1,,,,,
,,282692,001,2023-07-24_20h02.54.842,arm3_q,2022.2.5,Win32,60.02040694,5e8654505276a10fe5e2633b,64aeaab685a29f4ca249be02,64bec9d47e9af4da1164cedb,right,-1,0.05,0.35,4,-0.002045719,1.4246,,,,,,266,0,266,0,1,,,,,
,,282692,001,2023-07-24_20h02.54.842,arm3_q,2022.2.5,Win32,60.02040694,5e8654505276a10fe5e2633b,64aeaab685a29f4ca249be02,64bec9d47e9af4da1164cedb,down,-1,0.05,0.35,4,0,0.7501,,,,,,267,0,267,0,1,,,,,
,,282692,001,2023-07-24_20h02.54.842,arm3_q,2022.2.5,Win32,60.02040694,5e8654505276a10fe5e2633b,64aeaab685a29f4ca249be02,64bec9d47e9af4da1164cedb,right,-1,0.05,0.35,4,-0.001488858,0.955,,,,,,268,0,268,0,1,,,,,
,,282692,001,2023-07-24_20h02.54.842,arm3_q,2022.2.5,Win32,60.02040694,5e8654505276a10fe5e2633b,64aeaab685a29f4ca249be02,64bec9d47e9af4da1164cedb,down,-1,0.05,0.35,4,0,0.5479,,,,,,269,0,269,0,1,,,,,
,,282692,001,2023-07-24_20h02.54.842,arm3_q,2022.2.5,Win32,60.02040694,5e8654505276a10fe5e2633b,64aeaab685a29f4ca249be02,64bec9d47e9af4da1164cedb,right,-1,0.05,0.35,4,-0.029190425,0.8333,,,,,,270,0,270,0,1,,,,,
,,282692,001,2023-07-24_20h02.54.842,arm3_q,2022.2.5,Win32,60.02040694,5e8654505276a10fe5e2633b,64aeaab685a29f4ca249be02,64bec9d47e9af4da1164cedb,down,-1,0.05,0.35,4,0,0.9668,,,,,,271,0,271,0,1,,,,,
,,282692,001,2023-07-24_20h02.54.842,arm3_q,2022.2.5,Win32,60.02040694,5e8654505276a10fe5e2633b,64aeaab685a29f4ca249be02,64bec9d47e9af4da1164cedb,right,-1,0.05,0.35,4,-0.057733591,1.1008,,,,,,272,0,272,0,1,,,,,
,,282692,001,2023-07-24_20h02.54.842,arm3_q,2022.2.5,Win32,60.02040694,5e8654505276a10fe5e2633b,64aeaab685a29f4ca249be02,64bec9d47e9af4da1164cedb,down,-1,0.05,0.35,4,0,0.4909,,,,,,273,0,273,0,1,,,,,
,,282692,001,2023-07-24_20h02.54.842,arm3_q,2022.2.5,Win32,60.02040694,5e8654505276a10fe5e2633b,64aeaab685a29f4ca249be02,64bec9d47e9af4da1164cedb,right,-1,0.05,0.35,4,-0.017460124,0.9674,,,,,,274,0,274,0,1,,,,,
,,282692,001,2023-07-24_20h02.54.842,arm3_q,2022.2.5,Win32,60.02040694,5e8654505276a10fe5e2633b,64aeaab685a29f4ca249be02,64bec9d47e9af4da1164cedb,down,1,0.05,0.35,4,0,0.5005,,,,,,275,0,275,0,1,,,,,
,,282692,001,2023-07-24_20h02.54.842,arm3_q,2022.2.5,Win32,60.02040694,5e8654505276a10fe5e2633b,64aeaab685a29f4ca249be02,64bec9d47e9af4da1164cedb,right,1,0.05,0.35,4,0.011323091,1.4992,,,,,,276,0,276,0,1,,,,,
,,282692,001,2023-07-24_20h02.54.842,arm3_q,2022.2.5,Win32,60.02040694,5e8654505276a10fe5e2633b,64aeaab685a29f4ca249be02,64bec9d47e9af4da1164cedb,up,-1,0.05,0.35,4,0,0.4508,,,,,,277,0,277,0,1,,,,,
,,282692,001,2023-07-24_20h02.54.842,arm3_q,2022.2.5,Win32,60.02040694,5e8654505276a10fe5e2633b,64aeaab685a29f4ca249be02,64bec9d47e9af4da1164cedb,right,-1,0.05,0.35,4,0.003712581,0.9503,,,,,,278,0,278,0,1,,,,,
,,282692,001,2023-07-24_20h02.54.842,arm3_q,2022.2.5,Win32,60.02040694,5e8654505276a10fe5e2633b,64aeaab685a29f4ca249be02,64bec9d47e9af4da1164cedb,down,1,0.05,0.35,4,0,0.4839,,,,,,279,0,279,0,1,,,,,
,,282692,001,2023-07-24_20h02.54.842,arm3_q,2022.2.5,Win32,60.02040694,5e8654505276a10fe5e2633b,64aeaab685a29f4ca249be02,64bec9d47e9af4da1164cedb,right,1,0.05,0.35,4,0.004726142,1.1504,,,,,,280,0,280,0,1,,,,,
,,282692,001,2023-07-24_20h02.54.842,arm3_q,2022.2.5,Win32,60.02040694,5e8654505276a10fe5e2633b,64aeaab685a29f4ca249be02,64bec9d47e9af4da1164cedb,right,1,0.05,0.35,4,-0.004078636,0.9645,,,,,,281,0,281,0,1,,,,,
,,282692,001,2023-07-24_20h02.54.842,arm3_q,2022.2.5,Win32,60.02040694,5e8654505276a10fe5e2633b,64aeaab685a29f4ca249be02,64bec9d47e9af4da1164cedb,right,1,0.05,0.35,4,-0.013587501,0.4279,,,,,,282,0,282,0,1,,,,,
,,282692,001,2023-07-24_20h02.54.842,arm3_q,2022.2.5,Win32,60.02040694,5e8654505276a10fe5e2633b,64aeaab685a29f4ca249be02,64bec9d47e9af4da1164cedb,right,1,0.05,0.35,4,-0.010121027,0.8148,,,,,,283,0,283,0,1,,,,,
,,282692,001,2023-07-24_20h02.54.842,arm3_q,2022.2.5,Win32,60.02040694,5e8654505276a10fe5e2633b,64aeaab685a29f4ca249be02,64bec9d47e9af4da1164cedb,right,1,0.05,0.35,4,-0.002602573,0.6166,,,,,,284,0,284,0,1,,,,,
,,282692,001,2023-07-24_20h02.54.842,arm3_q,2022.2.5,Win32,60.02040694,5e8654505276a10fe5e2633b,64aeaab685a29f4ca249be02,64bec9d47e9af4da1164cedb,right,1,0.05,0.35,4,0.003193764,1.2834,,,,,,285,0,285,0,1,,,,,
,,282692,001,2023-07-24_20h02.54.842,arm3_q,2022.2.5,Win32,60.02040694,5e8654505276a10fe5e2633b,64aeaab685a29f4ca249be02,64bec9d47e9af4da1164cedb,up,1,0.05,0.35,4,0,0.5672,,,,,,286,0,286,0,1,,,,,
,,282692,001,2023-07-24_20h02.54.842,arm3_q,2022.2.5,Win32,60.02040694,5e8654505276a10fe5e2633b,64aeaab685a29f4ca249be02,64bec9d47e9af4da1164cedb,right,1,0.05,0.35,4,-0.004092689,1.1532,,,,,,287,0,287,0,1,,,,,
,,282692,001,2023-07-24_20h02.54.842,arm3_q,2022.2.5,Win32,60.02040694,5e8654505276a10fe5e2633b,64aeaab685a29f4ca249be02,64bec9d47e9af4da1164cedb,up,1,0.05,0.35,4,0,0.5169,,,,,,288,0,288,0,1,,,,,
,,282692,001,2023-07-24_20h02.54.842,arm3_q,2022.2.5,Win32,60.02040694,5e8654505276a10fe5e2633b,64aeaab685a29f4ca249be02,64bec9d47e9af4da1164cedb,right,1,0.05,0.35,4,0.011399859,1.2001,,,,,,289,0,289,0,1,,,,,
,,282692,001,2023-07-24_20h02.54.842,arm3_q,2022.2.5,Win32,60.02040694,5e8654505276a10fe5e2633b,64aeaab685a29f4ca249be02,64bec9d47e9af4da1164cedb,up,1,0.05,0.35,4,0,0.4503,,,,,,290,0,290,0,1,,,,,
,,282692,001,2023-07-24_20h02.54.842,arm3_q,2022.2.5,Win32,60.02040694,5e8654505276a10fe5e2633b,64aeaab685a29f4ca249be02,64bec9d47e9af4da1164cedb,right,1,0.05,0.35,4,0.026068923,1.0173,,,,,,291,0,291,0,1,,,,,
,,282692,001,2023-07-24_20h02.54.842,arm3_q,2022.2.5,Win32,60.02040694,5e8654505276a10fe5e2633b,64aeaab685a29f4ca249be02,64bec9d47e9af4da1164cedb,up,1,0.05,0.35,4,0,0.4182,,,,,,292,0,292,0,1,,,,,
,,282692,001,2023-07-24_20h02.54.842,arm3_q,2022.2.5,Win32,60.02040694,5e8654505276a10fe5e2633b,64aeaab685a29f4ca249be02,64bec9d47e9af4da1164cedb,right,1,0.05,0.35,4,0.00995246,1.0209,,,,,,293,0,293,0,1,,,,,
,,282692,001,2023-07-24_20h02.54.842,arm3_q,2022.2.5,Win32,60.02040694,5e8654505276a10fe5e2633b,64aeaab685a29f4ca249be02,64bec9d47e9af4da1164cedb,up,1,0.05,0.35,4,0,0.384,,,,,,294,0,294,0,1,,,,,
,,282692,001,2023-07-24_20h02.54.842,arm3_q,2022.2.5,Win32,60.02040694,5e8654505276a10fe5e2633b,64aeaab685a29f4ca249be02,64bec9d47e9af4da1164cedb,right,1,0.05,0.35,4,0.020866198,0.8842,,,,,,295,0,295,0,1,,,,,
,,282692,001,2023-07-24_20h02.54.842,arm3_q,2022.2.5,Win32,60.02040694,5e8654505276a10fe5e2633b,64aeaab685a29f4ca249be02,64bec9d47e9af4da1164cedb,right,1,0.05,0.35,4,0.001246975,1.0991,,,,,,296,0,296,0,1,,,,,
,,282692,001,2023-07-24_20h02.54.842,arm3_q,2022.2.5,Win32,60.02040694,5e8654505276a10fe5e2633b,64aeaab685a29f4ca249be02,64bec9d47e9af4da1164cedb,right,1,0.05,0.35,4,-0.001732282,0.8335,,,,,,297,0,297,0,1,,,,,
,,282692,001,2023-07-24_20h02.54.842,arm3_q,2022.2.5,Win32,60.02040694,5e8654505276a10fe5e2633b,64aeaab685a29f4ca249be02,64bec9d47e9af4da1164cedb,right,1,0.05,0.35,4,0.008832715,0.508,,,,,,298,0,298,0,1,,,,,
,,282692,001,2023-07-24_20h02.54.842,arm3_q,2022.2.5,Win32,60.02040694,5e8654505276a10fe5e2633b,64aeaab685a29f4ca249be02,64bec9d47e9af4da1164cedb,right,1,0.05,0.35,4,0.017120092,0.6948,,,,,,299,0,299,0,1,,,,,
,,282692,001,2023-07-24_20h02.54.842,arm3_q,2022.2.5,Win32,60.02040694,5e8654505276a10fe5e2633b,64aeaab685a29f4ca249be02,64bec9d47e9af4da1164cedb,right,1,0.05,0.35,4,0.002145555,0.767,,,,,,300,0,300,0,1,,,,,
,,282692,001,2023-07-24_20h02.54.842,arm3_q,2022.2.5,Win32,60.02040694,5e8654505276a10fe5e2633b,64aeaab685a29f4ca249be02,64bec9d47e9af4da1164cedb,right,1,0.05,0.35,4,-0.006171108,0.6002,,,,,,301,0,301,0,1,,,,,
,,282692,001,2023-07-24_20h02.54.842,arm3_q,2022.2.5,Win32,60.02040694,5e8654505276a10fe5e2633b,64aeaab685a29f4ca249be02,64bec9d47e9af4da1164cedb,right,1,0.05,0.35,4,0.021076501,1.0005,,,,,,302,0,302,0,1,,,,,
,,282692,001,2023-07-24_20h02.54.842,arm3_q,2022.2.5,Win32,60.02040694,5e8654505276a10fe5e2633b,64aeaab685a29f4ca249be02,64bec9d47e9af4da1164cedb,up,1,0.05,0.35,4,0,0.8169,,,,,,303,0,303,0,1,,,,,
,,282692,001,2023-07-24_20h02.54.842,arm3_q,2022.2.5,Win32,60.02040694,5e8654505276a10fe5e2633b,64aeaab685a29f4ca249be02,64bec9d47e9af4da1164cedb,right,1,0.05,0.35,4,-0.004644903,1.0503,,,,,,304,0,304,0,1,,,,,
,,282692,001,2023-07-24_20h02.54.842,arm3_q,2022.2.5,Win32,60.02040694,5e8654505276a10fe5e2633b,64aeaab685a29f4ca249be02,64bec9d47e9af4da1164cedb,right,1,0.05,0.35,4,-0.00176302,0.7176,,,,,,305,0,305,0,1,,,,,
,,282692,001,2023-07-24_20h02.54.842,arm3_q,2022.2.5,Win32,60.02040694,5e8654505276a10fe5e2633b,64aeaab685a29f4ca249be02,64bec9d47e9af4da1164cedb,up,1,0.05,0.35,5,0,0.5537,,,,,,306,0,306,0,1,,,,,
,,282692,001,2023-07-24_20h02.54.842,arm3_q,2022.2.5,Win32,60.02040694,5e8654505276a10fe5e2633b,64aeaab685a29f4ca249be02,64bec9d47e9af4da1164cedb,right,1,0.05,0.35,5,0.004882071,1.1167,,,,,,307,0,307,0,1,,,,,
,,282692,001,2023-07-24_20h02.54.842,arm3_q,2022.2.5,Win32,60.02040694,5e8654505276a10fe5e2633b,64aeaab685a29f4ca249be02,64bec9d47e9af4da1164cedb,up,-1,0.05,0.35,5,0,0.5352,,,,,,308,0,308,0,1,,,,,
,,282692,001,2023-07-24_20h02.54.842,arm3_q,2022.2.5,Win32,60.02040694,5e8654505276a10fe5e2633b,64aeaab685a29f4ca249be02,64bec9d47e9af4da1164cedb,up,-1,0.05,0.35,5,0,1.5813,,,,,,309,0,309,0,1,,,,,
,,282692,001,2023-07-24_20h02.54.842,arm3_q,2022.2.5,Win32,60.02040694,5e8654505276a10fe5e2633b,64aeaab685a29f4ca249be02,64bec9d47e9af4da1164cedb,down,-1,0.05,0.35,5,0,1.1003,,,,,,310,0,310,0,1,,,,,
,,282692,001,2023-07-24_20h02.54.842,arm3_q,2022.2.5,Win32,60.02040694,5e8654505276a10fe5e2633b,64aeaab685a29f4ca249be02,64bec9d47e9af4da1164cedb,down,1,0.05,0.35,5,0,0.9666,,,,,,311,0,311,0,1,,,,,
,,282692,001,2023-07-24_20h02.54.842,arm3_q,2022.2.5,Win32,60.02040694,5e8654505276a10fe5e2633b,64aeaab685a29f4ca249be02,64bec9d47e9af4da1164cedb,right,1,0.05,0.35,5,-0.000267177,1.3435,,,,,,312,0,312,0,1,,,,,
,,282692,001,2023-07-24_20h02.54.842,arm3_q,2022.2.5,Win32,60.02040694,5e8654505276a10fe5e2633b,64aeaab685a29f4ca249be02,64bec9d47e9af4da1164cedb,up,1,0.05,0.35,5,0,0.5002,,,,,,313,0,313,0,1,,,,,
,,282692,001,2023-07-24_20h02.54.842,arm3_q,2022.2.5,Win32,60.02040694,5e8654505276a10fe5e2633b,64aeaab685a29f4ca249be02,64bec9d47e9af4da1164cedb,right,1,0.05,0.35,5,0.01678522,0.9176,,,,,,314,0,314,0,1,,,,,
,,282692,001,2023-07-24_20h02.54.842,arm3_q,2022.2.5,Win32,60.02040694,5e8654505276a10fe5e2633b,64aeaab685a29f4ca249be02,64bec9d47e9af4da1164cedb,up,-1,0.05,0.35,5,0,0.3835,,,,,,315,0,315,0,1,,,,,
,,282692,001,2023-07-24_20h02.54.842,arm3_q,2022.2.5,Win32,60.02040694,5e8654505276a10fe5e2633b,64aeaab685a29f4ca249be02,64bec9d47e9af4da1164cedb,right,-1,0.05,0.35,5,0.003302718,1.1807,,,,,,316,0,316,0,1,,,,,
,,282692,001,2023-07-24_20h02.54.842,arm3_q,2022.2.5,Win32,60.02040694,5e8654505276a10fe5e2633b,64aeaab685a29f4ca249be02,64bec9d47e9af4da1164cedb,down,1,0.05,0.35,5,0,0.5505,,,,,,317,0,317,0,1,,,,,
,,282692,001,2023-07-24_20h02.54.842,arm3_q,2022.2.5,Win32,60.02040694,5e8654505276a10fe5e2633b,64aeaab685a29f4ca249be02,64bec9d47e9af4da1164cedb,right,1,0.05,0.35,5,0.013243843,1.0308,,,,,,318,0,318,0,1,,,,,
,,282692,001,2023-07-24_20h02.54.842,arm3_q,2022.2.5,Win32,60.02040694,5e8654505276a10fe5e2633b,64aeaab685a29f4ca249be02,64bec9d47e9af4da1164cedb,right,1,0.05,0.35,5,0.011167584,1.2669,,,,,,319,0,319,0,1,,,,,
,,282692,001,2023-07-24_20h02.54.842,arm3_q,2022.2.5,Win32,60.02040694,5e8654505276a10fe5e2633b,64aeaab685a29f4ca249be02,64bec9d47e9af4da1164cedb,up,1,0.05,0.35,6,0,0.4844,,,,,,320,0,320,0,1,,,,,
,,282692,001,2023-07-24_20h02.54.842,arm3_q,2022.2.5,Win32,60.02040694,5e8654505276a10fe5e2633b,64aeaab685a29f4ca249be02,64bec9d47e9af4da1164cedb,up,1,0.05,0.35,6,0,1.0391,,,,,,321,0,321,0,1,,,,,
,,282692,001,2023-07-24_20h02.54.842,arm3_q,2022.2.5,Win32,60.02040694,5e8654505276a10fe5e2633b,64aeaab685a29f4ca249be02,64bec9d47e9af4da1164cedb,right,1,0.05,0.35,6,-0.002017234,1.233,,,,,,322,0,322,0,1,,,,,
,,282692,001,2023-07-24_20h02.54.842,arm3_q,2022.2.5,Win32,60.02040694,5e8654505276a10fe5e2633b,64aeaab685a29f4ca249be02,64bec9d47e9af4da1164cedb,right,1,0.05,0.35,6,-0.003756099,0.7595,,,,,,323,0,323,0,1,,,,,
,,282692,001,2023-07-24_20h02.54.842,arm3_q,2022.2.5,Win32,60.02040694,5e8654505276a10fe5e2633b,64aeaab685a29f4ca249be02,64bec9d47e9af4da1164cedb,up,1,0.05,0.35,7,0,0.5165,,,,,,324,0,324,0,1,,,,,
,,282692,001,2023-07-24_20h02.54.842,arm3_q,2022.2.5,Win32,60.02040694,5e8654505276a10fe5e2633b,64aeaab685a29f4ca249be02,64bec9d47e9af4da1164cedb,up,1,0.05,0.35,7,0,1.0214,,,,,,325,0,325,0,1,,,,,
,,282692,001,2023-07-24_20h02.54.842,arm3_q,2022.2.5,Win32,60.02040694,5e8654505276a10fe5e2633b,64aeaab685a29f4ca249be02,64bec9d47e9af4da1164cedb,right,1,0.05,0.35,7,0.036455978,1.3668,,,,,,326,0,326,0,1,,,,,
,,282692,001,2023-07-24_20h02.54.842,arm3_q,2022.2.5,Win32,60.02040694,5e8654505276a10fe5e2633b,64aeaab685a29f4ca249be02,64bec9d47e9af4da1164cedb,up,-1,0.05,0.35,8,0,0.5342,,,,,,327,0,327,0,1,,,,,
,,282692,001,2023-07-24_20h02.54.842,arm3_q,2022.2.5,Win32,60.02040694,5e8654505276a10fe5e2633b,64aeaab685a29f4ca249be02,64bec9d47e9af4da1164cedb,down,-1,0.05,0.35,8,0,1.2835,,,,,,328,0,328,0,1,,,,,
,,282692,001,2023-07-24_20h02.54.842,arm3_q,2022.2.5,Win32,60.02040694,5e8654505276a10fe5e2633b,64aeaab685a29f4ca249be02,64bec9d47e9af4da1164cedb,down,-1,0.05,0.35,8,0,0.9334,,,,,,329,0,329,0,1,,,,,
,,282692,001,2023-07-24_20h02.54.842,arm3_q,2022.2.5,Win32,60.02040694,5e8654505276a10fe5e2633b,64aeaab685a29f4ca249be02,64bec9d47e9af4da1164cedb,down,1,0.05,0.35,8,0,0.9339,,,,,,330,0,330,0,1,,,,,
,,282692,001,2023-07-24_20h02.54.842,arm3_q,2022.2.5,Win32,60.02040694,5e8654505276a10fe5e2633b,64aeaab685a29f4ca249be02,64bec9d47e9af4da1164cedb,down,1,0.05,0.35,8,0,1.2503,,,,,,331,0,331,0,1,,,,,
,,282692,001,2023-07-24_20h02.54.842,arm3_q,2022.2.5,Win32,60.02040694,5e8654505276a10fe5e2633b,64aeaab685a29f4ca249be02,64bec9d47e9af4da1164cedb,up,-1,0.05,0.35,8,0,1.9497,,,,,,332,0,332,0,1,,,,,
,,282692,001,2023-07-24_20h02.54.842,arm3_q,2022.2.5,Win32,60.02040694,5e8654505276a10fe5e2633b,64aeaab685a29f4ca249be02,64bec9d47e9af4da1164cedb,down,1,0.05,0.35,8,0,1.5169,,,,,,333,0,333,0,1,,,,,
,,282692,001,2023-07-24_20h02.54.842,arm3_q,2022.2.5,Win32,60.02040694,5e8654505276a10fe5e2633b,64aeaab685a29f4ca249be02,64bec9d47e9af4da1164cedb,up,1,0.05,0.35,8,0,1.1502,,,,,,334,0,334,0,1,,,,,
,,282692,001,2023-07-24_20h02.54.842,arm3_q,2022.2.5,Win32,60.02040694,5e8654505276a10fe5e2633b,64aeaab685a29f4ca249be02,64bec9d47e9af4da1164cedb,up,-1,0.05,0.35,8,0,0.984,,,,,,335,0,335,0,1,,,,,
,,282692,001,2023-07-24_20h02.54.842,arm3_q,2022.2.5,Win32,60.02040694,5e8654505276a10fe5e2633b,64aeaab685a29f4ca249be02,64bec9d47e9af4da1164cedb,up,-1,0.05,0.35,8,0,0.951,,,,,,336,0,336,0,1,,,,,
,,282692,001,2023-07-24_20h02.54.842,arm3_q,2022.2.5,Win32,60.02040694,5e8654505276a10fe5e2633b,64aeaab685a29f4ca249be02,64bec9d47e9af4da1164cedb,up,1,0.05,0.35,8,0,1.1388,,,,,,337,0,337,0,1,,,,,
,,282692,001,2023-07-24_20h02.54.842,arm3_q,2022.2.5,Win32,60.02040694,5e8654505276a10fe5e2633b,64aeaab685a29f4ca249be02,64bec9d47e9af4da1164cedb,up,-1,0.05,0.35,8,0,1.3562,,,,,,338,0,338,0,1,,,,,
,,282692,001,2023-07-24_20h02.54.842,arm3_q,2022.2.5,Win32,60.02040694,5e8654505276a10fe5e2633b,64aeaab685a29f4ca249be02,64bec9d47e9af4da1164cedb,down,1,0.05,0.35,8,0,1.1226,,,,,,339,0,339,0,1,,,,,
,,282692,001,2023-07-24_20h02.54.842,arm3_q,2022.2.5,Win32,60.02040694,5e8654505276a10fe5e2633b,64aeaab685a29f4ca249be02,64bec9d47e9af4da1164cedb,right,1,0.05,0.35,8,-0.000337557,1.0671,,,,,,340,0,340,0,1,,,,,
,,282692,001,2023-07-24_20h02.54.842,arm3_q,2022.2.5,Win32,60.02040694,5e8654505276a10fe5e2633b,64aeaab685a29f4ca249be02,64bec9d47e9af4da1164cedb,up,1,0.05,0.35,8,0,0.4172,,,,,,341,0,341,0,1,,,,,
,,282692,001,2023-07-24_20h02.54.842,arm3_q,2022.2.5,Win32,60.02040694,5e8654505276a10fe5e2633b,64aeaab685a29f4ca249be02,64bec9d47e9af4da1164cedb,up,1,0.05,0.35,8,0,1.4335,,,,,,342,0,342,0,1,,,,,
,,282692,001,2023-07-24_20h02.54.842,arm3_q,2022.2.5,Win32,60.02040694,5e8654505276a10fe5e2633b,64aeaab685a29f4ca249be02,64bec9d47e9af4da1164cedb,up,-1,0.05,0.35,8,0,1.4999,,,,,,343,0,343,0,1,,,,,
,,282692,001,2023-07-24_20h02.54.842,arm3_q,2022.2.5,Win32,60.02040694,5e8654505276a10fe5e2633b,64aeaab685a29f4ca249be02,64bec9d47e9af4da1164cedb,down,-1,0.05,0.35,8,0,1.1341,,,,,,344,0,344,0,1,,,,,
,,282692,001,2023-07-24_20h02.54.842,arm3_q,2022.2.5,Win32,60.02040694,5e8654505276a10fe5e2633b,64aeaab685a29f4ca249be02,64bec9d47e9af4da1164cedb,right,-1,0.05,0.35,8,0.003991036,1.3839,,,,,,345,0,345,0,1,,,,,
,,282692,001,2023-07-24_20h02.54.842,arm3_q,2022.2.5,Win32,60.02040694,5e8654505276a10fe5e2633b,64aeaab685a29f4ca249be02,64bec9d47e9af4da1164cedb,right,-1,0.05,0.35,8,-0.020634601,0.6337,,,,,,346,0,346,0,1,,,,,
,,282692,001,2023-07-24_20h02.54.842,arm3_q,2022.2.5,Win32,60.02040694,5e8654505276a10fe5e2633b,64aeaab685a29f4ca249be02,64bec9d47e9af4da1164cedb,down,-1,0.05,0.35,8,0,0.5002,,,,,,347,0,347,0,1,,,,,
,,282692,001,2023-07-24_20h02.54.842,arm3_q,2022.2.5,Win32,60.02040694,5e8654505276a10fe5e2633b,64aeaab685a29f4ca249be02,64bec9d47e9af4da1164cedb,right,-1,0.05,0.35,8,0.007644724,1.2672,,,,,,348,0,348,0,1,,,,,
,,282692,001,2023-07-24_20h02.54.842,arm3_q,2022.2.5,Win32,60.02040694,5e8654505276a10fe5e2633b,64aeaab685a29f4ca249be02,64bec9d47e9af4da1164cedb,right,-1,0.05,0.35,8,-0.004897467,0.4387,,,,,,349,0,349,0,1,,,,,
,,282692,001,2023-07-24_20h02.54.842,arm3_q,2022.2.5,Win32,60.02040694,5e8654505276a10fe5e2633b,64aeaab685a29f4ca249be02,64bec9d47e9af4da1164cedb,down,-1,0.05,0.35,8,0,0.4169,,,,,,350,0,350,0,1,,,,,
,,282692,001,2023-07-24_20h02.54.842,arm3_q,2022.2.5,Win32,60.02040694,5e8654505276a10fe5e2633b,64aeaab685a29f4ca249be02,64bec9d47e9af4da1164cedb,right,-1,0.05,0.35,8,-0.023468266,1.2501,,,,,,351,0,351,0,1,,,,,
,,282692,001,2023-07-24_20h02.54.842,arm3_q,2022.2.5,Win32,60.02040694,5e8654505276a10fe5e2633b,64aeaab685a29f4ca249be02,64bec9d47e9af4da1164cedb,down,1,0.05,0.35,8,0,0.3479,,,,,,352,0,352,0,1,,,,,
,,282692,001,2023-07-24_20h02.54.842,arm3_q,2022.2.5,Win32,60.02040694,5e8654505276a10fe5e2633b,64aeaab685a29f4ca249be02,64bec9d47e9af4da1164cedb,right,1,0.05,0.35,8,0.016329776,0.9,,,,,,353,0,353,0,1,,,,,
,,282692,001,2023-07-24_20h02.54.842,arm3_q,2022.2.5,Win32,60.02040694,5e8654505276a10fe5e2633b,64aeaab685a29f4ca249be02,64bec9d47e9af4da1164cedb,up,1,0.05,0.35,8,0,0.4031,,,,,,354,0,354,0,1,,,,,
,,282692,001,2023-07-24_20h02.54.842,arm3_q,2022.2.5,Win32,60.02040694,5e8654505276a10fe5e2633b,64aeaab685a29f4ca249be02,64bec9d47e9af4da1164cedb,right,1,0.05,0.35,8,0.009840972,1.2568,,,,,,355,0,355,0,1,,,,,
,,282692,001,2023-07-24_20h02.54.842,arm3_q,2022.2.5,Win32,60.02040694,5e8654505276a10fe5e2633b,64aeaab685a29f4ca249be02,64bec9d47e9af4da1164cedb,right,1,0.05,0.35,8,0.003139214,0.6671,,,,,,356,0,356,0,1,,,,,
,,282692,001,2023-07-24_20h02.54.842,arm3_q,2022.2.5,Win32,60.02040694,5e8654505276a10fe5e2633b,64aeaab685a29f4ca249be02,64bec9d47e9af4da1164cedb,up,-1,0.05,0.35,8,0,0.4083,,,,,,357,0,357,0,1,,,,,
,,282692,001,2023-07-24_20h02.54.842,arm3_q,2022.2.5,Win32,60.02040694,5e8654505276a10fe5e2633b,64aeaab685a29f4ca249be02,64bec9d47e9af4da1164cedb,down,-1,0.05,0.35,8,0,1.3843,,,,,,358,0,358,0,1,,,,,
,,282692,001,2023-07-24_20h02.54.842,arm3_q,2022.2.5,Win32,60.02040694,5e8654505276a10fe5e2633b,64aeaab685a29f4ca249be02,64bec9d47e9af4da1164cedb,right,-1,0.05,0.35,8,-0.005852289,1.1172,,,,,,359,0,359,0,1,,,,,
,,282692,001,2023-07-24_20h02.54.842,arm3_q,2022.2.5,Win32,60.02040694,5e8654505276a10fe5e2633b,64aeaab685a29f4ca249be02,64bec9d47e9af4da1164cedb,up,1,0.05,0.35,8,0,0.7319,,,,,,360,0,360,0,1,,,,,
,,282692,001,2023-07-24_20h02.54.842,arm3_q,2022.2.5,Win32,60.02040694,5e8654505276a10fe5e2633b,64aeaab685a29f4ca249be02,64bec9d47e9af4da1164cedb,right,1,0.05,0.35,8,-0.000451553,1.0661,,,,,,361,0,361,0,1,,,,,
,,282692,001,2023-07-24_20h02.54.842,arm3_q,2022.2.5,Win32,60.02040694,5e8654505276a10fe5e2633b,64aeaab685a29f4ca249be02,64bec9d47e9af4da1164cedb,up,1,0.05,0.35,8,0,0.5177,,,,,,362,0,362,0,1,,,,,
,,282692,001,2023-07-24_20h02.54.842,arm3_q,2022.2.5,Win32,60.02040694,5e8654505276a10fe5e2633b,64aeaab685a29f4ca249be02,64bec9d47e9af4da1164cedb,up,-1,0.05,0.35,8,0,1.2336,,,,,,363,0,363,0,1,,,,,
,,282692,001,2023-07-24_20h02.54.842,arm3_q,2022.2.5,Win32,60.02040694,5e8654505276a10fe5e2633b,64aeaab685a29f4ca249be02,64bec9d47e9af4da1164cedb,up,-1,0.05,0.35,8,0,1.0664,,,,,,364,0,364,0,1,,,,,
,,282692,001,2023-07-24_20h02.54.842,arm3_q,2022.2.5,Win32,60.02040694,5e8654505276a10fe5e2633b,64aeaab685a29f4ca249be02,64bec9d47e9af4da1164cedb,right,-1,0.05,0.35,8,0.003025442,1.2172,,,,,,365,0,365,0,1,,,,,
,,282692,001,2023-07-24_20h02.54.842,arm3_q,2022.2.5,Win32,60.02040694,5e8654505276a10fe5e2633b,64aeaab685a29f4ca249be02,64bec9d47e9af4da1164cedb,down,1,0.05,0.35,8,0,0.6503,,,,,,366,0,366,0,1,,,,,
,,282692,001,2023-07-24_20h02.54.842,arm3_q,2022.2.5,Win32,60.02040694,5e8654505276a10fe5e2633b,64aeaab685a29f4ca249be02,64bec9d47e9af4da1164cedb,right,1,0.05,0.35,8,-0.004906392,1.1013,,,,,,367,0,367,0,1,,,,,
,,282692,001,2023-07-24_20h02.54.842,arm3_q,2022.2.5,Win32,60.02040694,5e8654505276a10fe5e2633b,64aeaab685a29f4ca249be02,64bec9d47e9af4da1164cedb,down,1,0.05,0.35,8,0,0.8676,,,,,,368,0,368,0,1,,,,,
,,282692,001,2023-07-24_20h02.54.842,arm3_q,2022.2.5,Win32,60.02040694,5e8654505276a10fe5e2633b,64aeaab685a29f4ca249be02,64bec9d47e9af4da1164cedb,right,1,0.05,0.35,8,-0.000139566,1.0498,,,,,,369,0,369,0,1,,,,,
,,282692,001,2023-07-24_20h02.54.842,arm3_q,2022.2.5,Win32,60.02040694,5e8654505276a10fe5e2633b,64aeaab685a29f4ca249be02,64bec9d47e9af4da1164cedb,,,,,,,,,,,,,,,,,,0,0,0,0,1
space,4.3379,282692,001,2023-07-24_20h02.54.842,arm3_q,2022.2.5,Win32,60.02040694,5e8654505276a10fe5e2633b,64aeaab685a29f4ca249be02,64bec9d47e9af4da1164cedb,right,1,0.8214,0.35,8,-0.028370949,4.9239,,,,,,0,0,0,0,1,,,,,
,,282692,001,2023-07-24_20h02.54.842,arm3_q,2022.2.5,Win32,60.02040694,5e8654505276a10fe5e2633b,64aeaab685a29f4ca249be02,64bec9d47e9af4da1164cedb,right,1,0.8214,0.35,8,-0.020962877,0.9606,,,,,,1,0,1,0,1,,,,,
,,282692,001,2023-07-24_20h02.54.842,arm3_q,2022.2.5,Win32,60.02040694,5e8654505276a10fe5e2633b,64aeaab685a29f4ca249be02,64bec9d47e9af4da1164cedb,down,1,0.8214,0.35,7,0,0.7164,,,,,,2,0,2,0,1,,,,,
,,282692,001,2023-07-24_20h02.54.842,arm3_q,2022.2.5,Win32,60.02040694,5e8654505276a10fe5e2633b,64aeaab685a29f4ca249be02,64bec9d47e9af4da1164cedb,right,1,0.8214,0.35,7,-0.002571357,1.2999,,,,,,3,0,3,0,1,,,,,
,,282692,001,2023-07-24_20h02.54.842,arm3_q,2022.2.5,Win32,60.02040694,5e8654505276a10fe5e2633b,64aeaab685a29f4ca249be02,64bec9d47e9af4da1164cedb,up,-1,0.8214,0.35,7,0,0.5152,,,,,,4,0,4,0,1,,,,,
,,282692,001,2023-07-24_20h02.54.842,arm3_q,2022.2.5,Win32,60.02040694,5e8654505276a10fe5e2633b,64aeaab685a29f4ca249be02,64bec9d47e9af4da1164cedb,down,-1,0.8214,0.35,8,0,1.4794,,,,,,5,0,5,0,1,,,,,
,,282692,001,2023-07-24_20h02.54.842,arm3_q,2022.2.5,Win32,60.02040694,5e8654505276a10fe5e2633b,64aeaab685a29f4ca249be02,64bec9d47e9af4da1164cedb,down,-1,0.8214,0.35,9,0,1.0286,,,,,,6,0,6,0,1,,,,,
,,282692,001,2023-07-24_20h02.54.842,arm3_q,2022.2.5,Win32,60.02040694,5e8654505276a10fe5e2633b,64aeaab685a29f4ca249be02,64bec9d47e9af4da1164cedb,down,1,0.8214,0.35,10,0,0.9791,,,,,,7,0,7,0,1,,,,,
,,282692,001,2023-07-24_20h02.54.842,arm3_q,2022.2.5,Win32,60.02040694,5e8654505276a10fe5e2633b,64aeaab685a29f4ca249be02,64bec9d47e9af4da1164cedb,up,1,0.8214,0.35,11,0,1.1673,,,,,,8,0,8,0,1,,,,,
,,282692,001,2023-07-24_20h02.54.842,arm3_q,2022.2.5,Win32,60.02040694,5e8654505276a10fe5e2633b,64aeaab685a29f4ca249be02,64bec9d47e9af4da1164cedb,up,1,0.8214,0.35,12,0,1.3874,,,,,,9,0,9,0,1,,,,,
,,282692,001,2023-07-24_20h02.54.842,arm3_q,2022.2.5,Win32,60.02040694,5e8654505276a10fe5e2633b,64aeaab685a29f4ca249be02,64bec9d47e9af4da1164cedb,down,-1,0.8214,0.35,11,0,1.284,,,,,,10,0,10,0,1,,,,,
,,282692,001,2023-07-24_20h02.54.842,arm3_q,2022.2.5,Win32,60.02040694,5e8654505276a10fe5e2633b,64aeaab685a29f4ca249be02,64bec9d47e9af4da1164cedb,right,-1,0.8214,0.35,11,-0.004035216,1.5221,,,,,,11,0,11,0,1,,,,,
,,282692,001,2023-07-24_20h02.54.842,arm3_q,2022.2.5,Win32,60.02040694,5e8654505276a10fe5e2633b,64aeaab685a29f4ca249be02,64bec9d47e9af4da1164cedb,down,1,0.8214,0.35,12,0,0.6837,,,,,,12,0,12,0,1,,,,,
,,282692,001,2023-07-24_20h02.54.842,arm3_q,2022.2.5,Win32,60.02040694,5e8654505276a10fe5e2633b,64aeaab685a29f4ca249be02,64bec9d47e9af4da1164cedb,right,1,0.8214,0.35,12,-0.002032392,1.3635,,,,,,13,0,13,0,1,,,,,
,,282692,001,2023-07-24_20h02.54.842,arm3_q,2022.2.5,Win32,60.02040694,5e8654505276a10fe5e2633b,64aeaab685a29f4ca249be02,64bec9d47e9af4da1164cedb,up,-1,0.8214,0.35,13,0,0.4908,,,,,,14,0,14,0,1,,,,,
,,282692,001,2023-07-24_20h02.54.842,arm3_q,2022.2.5,Win32,60.02040694,5e8654505276a10fe5e2633b,64aeaab685a29f4ca249be02,64bec9d47e9af4da1164cedb,down,-1,0.8214,0.35,13,0,1.3752,,,,,,15,0,15,0,1,,,,,
,,282692,001,2023-07-24_20h02.54.842,arm3_q,2022.2.5,Win32,60.02040694,5e8654505276a10fe5e2633b,64aeaab685a29f4ca249be02,64bec9d47e9af4da1164cedb,down,-1,0.8214,0.35,14,0,1.431,,,,,,16,0,16,0,1,,,,,
,,282692,001,2023-07-24_20h02.54.842,arm3_q,2022.2.5,Win32,60.02040694,5e8654505276a10fe5e2633b,64aeaab685a29f4ca249be02,64bec9d47e9af4da1164cedb,down,-1,0.8214,0.35,15,0,1.0118,,,,,,17,0,17,0,1,,,,,
,,282692,001,2023-07-24_20h02.54.842,arm3_q,2022.2.5,Win32,60.02040694,5e8654505276a10fe5e2633b,64aeaab685a29f4ca249be02,64bec9d47e9af4da1164cedb,down,-1,0.8214,0.35,16,0,1.1671,,,,,,18,0,18,0,1,,,,,
,,282692,001,2023-07-24_20h02.54.842,arm3_q,2022.2.5,Win32,60.02040694,5e8654505276a10fe5e2633b,64aeaab685a29f4ca249be02,64bec9d47e9af4da1164cedb,up,-1,0.8214,0.35,15,0,1.1143,,,,,,19,0,19,0,1,,,,,
,,282692,001,2023-07-24_20h02.54.842,arm3_q,2022.2.5,Win32,60.02040694,5e8654505276a10fe5e2633b,64aeaab685a29f4ca249be02,64bec9d47e9af4da1164cedb,down,-1,0.8214,0.35,16,0,1.1577,,,,,,20,0,20,0,1,,,,,
,,282692,001,2023-07-24_20h02.54.842,arm3_q,2022.2.5,Win32,60.02040694,5e8654505276a10fe5e2633b,64aeaab685a29f4ca249be02,64bec9d47e9af4da1164cedb,right,-1,0.8214,0.35,16,-0.005866682,1.1669,,,,,,21,0,21,0,1,,,,,
,,282692,001,2023-07-24_20h02.54.842,arm3_q,2022.2.5,Win32,60.02040694,5e8654505276a10fe5e2633b,64aeaab685a29f4ca249be02,64bec9d47e9af4da1164cedb,right,-1,0.8214,0.35,16,-0.020860415,0.4669,,,,,,22,0,22,0,1,,,,,
,,282692,001,2023-07-24_20h02.54.842,arm3_q,2022.2.5,Win32,60.02040694,5e8654505276a10fe5e2633b,64aeaab685a29f4ca249be02,64bec9d47e9af4da1164cedb,down,1,0.8214,0.35,17,0,0.7169,,,,,,23,0,23,0,1,,,,,
,,282692,001,2023-07-24_20h02.54.842,arm3_q,2022.2.5,Win32,60.02040694,5e8654505276a10fe5e2633b,64aeaab685a29f4ca249be02,64bec9d47e9af4da1164cedb,right,1,0.8214,0.35,17,0.01447064,1.0666,,,,,,24,0,24,0,1,,,,,
,,282692,001,2023-07-24_20h02.54.842,arm3_q,2022.2.5,Win32,60.02040694,5e8654505276a10fe5e2633b,64aeaab685a29f4ca249be02,64bec9d47e9af4da1164cedb,up,1,0.8214,0.35,18,0,0.5838,,,,,,25,0,25,0,1,,,,,
,,282692,001,2023-07-24_20h02.54.842,arm3_q,2022.2.5,Win32,60.02040694,5e8654505276a10fe5e2633b,64aeaab685a29f4ca249be02,64bec9d47e9af4da1164cedb,right,1,0.8214,0.35,18,-0.005889397,0.9498,,,,,,26,0,26,0,1,,,,,
,,282692,001,2023-07-24_20h02.54.842,arm3_q,2022.2.5,Win32,60.02040694,5e8654505276a10fe5e2633b,64aeaab685a29f4ca249be02,64bec9d47e9af4da1164cedb,right,1,0.8214,0.35,18,-0.007113209,1.0845,,,,,,27,0,27,0,1,,,,,
,,282692,001,2023-07-24_20h02.54.842,arm3_q,2022.2.5,Win32,60.02040694,5e8654505276a10fe5e2633b,64aeaab685a29f4ca249be02,64bec9d47e9af4da1164cedb,up,1,0.8214,0.35,18,0,0.5509,,,,,,28,0,28,0,1,,,,,
,,282692,001,2023-07-24_20h02.54.842,arm3_q,2022.2.5,Win32,60.02040694,5e8654505276a10fe5e2633b,64aeaab685a29f4ca249be02,64bec9d47e9af4da1164cedb,up,1,0.8214,0.35,19,0,1.1637,,,,,,29,0,29,0,1,,,,,
,,282692,001,2023-07-24_20h02.54.842,arm3_q,2022.2.5,Win32,60.02040694,5e8654505276a10fe5e2633b,64aeaab685a29f4ca249be02,64bec9d47e9af4da1164cedb,down,1,0.8214,0.35,18,0,1.4265,,,,,,30,0,30,0,1,,,,,
,,282692,001,2023-07-24_20h02.54.842,arm3_q,2022.2.5,Win32,60.02040694,5e8654505276a10fe5e2633b,64aeaab685a29f4ca249be02,64bec9d47e9af4da1164cedb,up,1,0.8214,0.35,19,0,1.033,,,,,,31,0,31,0,1,,,,,
,,282692,001,2023-07-24_20h02.54.842,arm3_q,2022.2.5,Win32,60.02040694,5e8654505276a10fe5e2633b,64aeaab685a29f4ca249be02,64bec9d47e9af4da1164cedb,right,1,0.8214,0.35,19,-0.00102461,1.1471,,,,,,32,0,32,0,1,,,,,
,,282692,001,2023-07-24_20h02.54.842,arm3_q,2022.2.5,Win32,60.02040694,5e8654505276a10fe5e2633b,64aeaab685a29f4ca249be02,64bec9d47e9af4da1164cedb,right,1,0.8214,0.35,19,-0.008782446,0.5169,,,,,,33,0,33,0,1,,,,,
,,282692,001,2023-07-24_20h02.54.842,arm3_q,2022.2.5,Win32,60.02040694,5e8654505276a10fe5e2633b,64aeaab685a29f4ca249be02,64bec9d47e9af4da1164cedb,down,-1,0.8214,0.35,18,0,0.6485,,,,,,34,0,34,0,1,,,,,
,,282692,001,2023-07-24_20h02.54.842,arm3_q,2022.2.5,Win32,60.02040694,5e8654505276a10fe5e2633b,64aeaab685a29f4ca249be02,64bec9d47e9af4da1164cedb,right,-1,0.8214,0.35,18,-0.017317802,1.2714,,,,,,35,0,35,0,1,,,,,
,,282692,001,2023-07-24_20h02.54.842,arm3_q,2022.2.5,Win32,60.02040694,5e8654505276a10fe5e2633b,64aeaab685a29f4ca249be02,64bec9d47e9af4da1164cedb,right,-1,0.8214,0.35,18,-0.017958697,1.1505,,,,,,36,0,36,0,1,,,,,
,,282692,001,2023-07-24_20h02.54.842,arm3_q,2022.2.5,Win32,60.02040694,5e8654505276a10fe5e2633b,64aeaab685a29f4ca249be02,64bec9d47e9af4da1164cedb,down,-1,0.8214,0.35,19,0,1.1778,,,,,,37,0,37,0,1,,,,,
,,282692,001,2023-07-24_20h02.54.842,arm3_q,2022.2.5,Win32,60.02040694,5e8654505276a10fe5e2633b,64aeaab685a29f4ca249be02,64bec9d47e9af4da1164cedb,down,1,0.8214,0.35,20,0,1.116,,,,,,38,0,38,0,1,,,,,
,,282692,001,2023-07-24_20h02.54.842,arm3_q,2022.2.5,Win32,60.02040694,5e8654505276a10fe5e2633b,64aeaab685a29f4ca249be02,64bec9d47e9af4da1164cedb,up,1,0.8214,0.35,21,0,1.1569,,,,,,39,0,39,0,1,,,,,
,,282692,001,2023-07-24_20h02.54.842,arm3_q,2022.2.5,Win32,60.02040694,5e8654505276a10fe5e2633b,64aeaab685a29f4ca249be02,64bec9d47e9af4da1164cedb,down,1,0.8214,0.35,20,0,1.1168,,,,,,40,0,40,0,1,,,,,
,,282692,001,2023-07-24_20h02.54.842,arm3_q,2022.2.5,Win32,60.02040694,5e8654505276a10fe5e2633b,64aeaab685a29f4ca249be02,64bec9d47e9af4da1164cedb,up,-1,0.8214,0.35,21,0,1.0822,,,,,,41,0,41,0,1,,,,,
,,282692,001,2023-07-24_20h02.54.842,arm3_q,2022.2.5,Win32,60.02040694,5e8654505276a10fe5e2633b,64aeaab685a29f4ca249be02,64bec9d47e9af4da1164cedb,down,1,0.8214,0.35,22,0,1.1504,,,,,,42,0,42,0,1,,,,,
,,282692,001,2023-07-24_20h02.54.842,arm3_q,2022.2.5,Win32,60.02040694,5e8654505276a10fe5e2633b,64aeaab685a29f4ca249be02,64bec9d47e9af4da1164cedb,down,-1,0.8214,0.35,21,0,0.9674,,,,,,43,0,43,0,1,,,,,
,,282692,001,2023-07-24_20h02.54.842,arm3_q,2022.2.5,Win32,60.02040694,5e8654505276a10fe5e2633b,64aeaab685a29f4ca249be02,64bec9d47e9af4da1164cedb,down,-1,0.8214,0.35,22,0,1.1968,,,,,,44,0,44,0,1,,,,,
,,282692,001,2023-07-24_20h02.54.842,arm3_q,2022.2.5,Win32,60.02040694,5e8654505276a10fe5e2633b,64aeaab685a29f4ca249be02,64bec9d47e9af4da1164cedb,down,-1,0.8214,0.35,23,0,1.035,,,,,,45,0,45,0,1,,,,,
,,282692,001,2023-07-24_20h02.54.842,arm3_q,2022.2.5,Win32,60.02040694,5e8654505276a10fe5e2633b,64aeaab685a29f4ca249be02,64bec9d47e9af4da1164cedb,right,-1,0.8214,0.35,23,-0.003852947,1.2597,,,,,,46,0,46,0,1,,,,,
,,282692,001,2023-07-24_20h02.54.842,arm3_q,2022.2.5,Win32,60.02040694,5e8654505276a10fe5e2633b,64aeaab685a29f4ca249be02,64bec9d47e9af4da1164cedb,right,-1,0.8214,0.35,23,0.008273941,0.5012,,,,,,47,0,47,0,1,,,,,
,,282692,001,2023-07-24_20h02.54.842,arm3_q,2022.2.5,Win32,60.02040694,5e8654505276a10fe5e2633b,64aeaab685a29f4ca249be02,64bec9d47e9af4da1164cedb,down,-1,0.8214,0.35,24,0,0.8196,,,,,,48,0,48,0,1,,,,,
,,282692,001,2023-07-24_20h02.54.842,arm3_q,2022.2.5,Win32,60.02040694,5e8654505276a10fe5e2633b,64aeaab685a29f4ca249be02,64bec9d47e9af4da1164cedb,right,-1,0.8214,0.35,24,0.008311635,1.181,,,,,,49,0,49,0,1,,,,,
,,282692,001,2023-07-24_20h02.54.842,arm3_q,2022.2.5,Win32,60.02040694,5e8654505276a10fe5e2633b,64aeaab685a29f4ca249be02,64bec9d47e9af4da1164cedb,up,-1,0.8214,0.35,24,0,0.55,,,,,,50,0,50,0,1,,,,,
,,282692,001,2023-07-24_20h02.54.842,arm3_q,2022.2.5,Win32,60.02040694,5e8654505276a10fe5e2633b,64aeaab685a29f4ca249be02,64bec9d47e9af4da1164cedb,down,1,0.8214,0.35,25,0,1.2214,,,,,,51,0,51,0,1,,,,,
,,282692,001,2023-07-24_20h02.54.842,arm3_q,2022.2.5,Win32,60.02040694,5e8654505276a10fe5e2633b,64aeaab685a29f4ca249be02,64bec9d47e9af4da1164cedb,right,1,0.8214,0.35,25,0.01535382,1.6516,,,,,,52,0,52,0,1,,,,,
,,282692,001,2023-07-24_20h02.54.842,arm3_q,2022.2.5,Win32,60.02040694,5e8654505276a10fe5e2633b,64aeaab685a29f4ca249be02,64bec9d47e9af4da1164cedb,up,-1,0.8214,0.35,26,0,0.5167,,,,,,53,0,53,0,1,,,,,
,,282692,001,2023-07-24_20h02.54.842,arm3_q,2022.2.5,Win32,60.02040694,5e8654505276a10fe5e2633b,64aeaab685a29f4ca249be02,64bec9d47e9af4da1164cedb,right,-1,0.8214,0.35,26,-0.004076204,1.0752,,,,,,54,0,54,0,1,,,,,
,,282692,001,2023-07-24_20h02.54.842,arm3_q,2022.2.5,Win32,60.02040694,5e8654505276a10fe5e2633b,64aeaab685a29f4ca249be02,64bec9d47e9af4da1164cedb,down,-1,0.8214,0.35,27,0,0.5292,,,,,,55,0,55,0,1,,,,,
,,282692,001,2023-07-24_20h02.54.842,arm3_q,2022.2.5,Win32,60.02040694,5e8654505276a10fe5e2633b,64aeaab685a29f4ca249be02,64bec9d47e9af4da1164cedb,down,-1,0.8214,0.35,27,0,1.2297,,,,,,56,0,56,0,1,,,,,
