space_bar.keys,space_bar.rt,participant,session,date,expName,psychopyVersion,OS,frameRate,PROLIFIC_PID,STUDY_ID,SESSION_ID,resp.keys,state,q_prob,eps_prob,score,price,resp.rt,train.thisRepN,train.thisTrialN,train.thisN,train.thisIndex,train.ran,steps.thisRepN,steps.thisTrialN,steps.thisN,steps.thisIndex,steps.ran,blocks.thisRepN,blocks.thisTrialN,blocks.thisN,blocks.thisIndex,blocks.ran
space,10.0241,288968,001,2023-07-24_19h57.50.595,arm3_q,2022.2.5,Win32,74.95128167,60e5ccdf4263ab147e71b284,64aeaab685a29f4ca249be02,64bec985b6063346c30d9513,,,,,,,,,,,,,,,,,,,,,,
space,21.2907,288968,001,2023-07-24_19h57.50.595,arm3_q,2022.2.5,Win32,74.95128167,60e5ccdf4263ab147e71b284,64aeaab685a29f4ca249be02,64bec985b6063346c30d9513,,,,,,,,,,,,,,,,,,,,,,
space,13.6272,288968,001,2023-07-24_19h57.50.595,arm3_q,2022.2.5,Win32,74.95128167,60e5ccdf4263ab147e71b284,64aeaab685a29f4ca249be02,64bec985b6063346c30d9513,,,,,,,,,,,,,,,,,,,,,,
space,20.9939,288968,001,2023-07-24_19h57.50.595,arm3_q,2022.2.5,Win32,74.95128167,60e5ccdf4263ab147e71b284,64aeaab685a29f4ca249be02,64bec985b6063346c30d9513,,,,,,,,,,,,,,,,,,,,,,
space,24.2356,288968,001,2023-07-24_19h57.50.595,arm3_q,2022.2.5,Win32,74.95128167,60e5ccdf4263ab147e71b284,64aeaab685a29f4ca249be02,64bec985b6063346c30d9513,,,,,,,,,,,,,,,,,,,,,,
space,25.8295,288968,001,2023-07-24_19h57.50.595,arm3_q,2022.2.5,Win32,74.95128167,60e5ccdf4263ab147e71b284,64aeaab685a29f4ca249be02,64bec985b6063346c30d9513,,,,,,,,,,,,,,,,,,,,,,
space,25.4061,288968,001,2023-07-24_19h57.50.595,arm3_q,2022.2.5,Win32,74.95128167,60e5ccdf4263ab147e71b284,64aeaab685a29f4ca249be02,64bec985b6063346c30d9513,,,,,,,,,,,,,,,,,,,,,,
space,15.8374,288968,001,2023-07-24_19h57.50.595,arm3_q,2022.2.5,Win32,74.95128167,60e5ccdf4263ab147e71b284,64aeaab685a29f4ca249be02,64bec985b6063346c30d9513,,,,,,,,,,,,,,,,,,,,,,
space,13.2883,288968,001,2023-07-24_19h57.50.595,arm3_q,2022.2.5,Win32,74.95128167,60e5ccdf4263ab147e71b284,64aeaab685a29f4ca249be02,64bec985b6063346c30d9513,,,,,,,,,,,,,,,,,,,,,,
space,3.9596,288968,001,2023-07-24_19h57.50.595,arm3_q,2022.2.5,Win32,74.95128167,60e5ccdf4263ab147e71b284,64aeaab685a29f4ca249be02,64bec985b6063346c30d9513,,,,,,,,,,,,,,,,,,,,,,
,,288968,001,2023-07-24_19h57.50.595,arm3_q,2022.2.5,Win32,74.95128167,60e5ccdf4263ab147e71b284,64aeaab685a29f4ca249be02,64bec985b6063346c30d9513,right,1,0.5643,0.35,0,0.014102597,1.8443,0,0,0,0,1,,,,,,,,,,
,,288968,001,2023-07-24_19h57.50.595,arm3_q,2022.2.5,Win32,74.95128167,60e5ccdf4263ab147e71b284,64aeaab685a29f4ca249be02,64bec985b6063346c30d9513,right,1,0.5643,0.35,0,0.029656366,1.1188,1,0,1,0,1,,,,,,,,,,
,,288968,001,2023-07-24_19h57.50.595,arm3_q,2022.2.5,Win32,74.95128167,60e5ccdf4263ab147e71b284,64aeaab685a29f4ca249be02,64bec985b6063346c30d9513,down,-1,0.5643,0.35,-1,0,1.2179,2,0,2,0,1,,,,,,,,,,
,,288968,001,2023-07-24_19h57.50.595,arm3_q,2022.2.5,Win32,74.95128167,60e5ccdf4263ab147e71b284,64aeaab685a29f4ca249be02,64bec985b6063346c30d9513,right,-1,0.5643,0.35,-1,-0.001218053,2.6429,3,0,3,0,1,,,,,,,,,,
,,288968,001,2023-07-24_19h57.50.595,arm3_q,2022.2.5,Win32,74.95128167,60e5ccdf4263ab147e71b284,64aeaab685a29f4ca249be02,64bec985b6063346c30d9513,right,-1,0.5643,0.35,-1,-0.027619472,1.0136,4,0,4,0,1,,,,,,,,,,
,,288968,001,2023-07-24_19h57.50.595,arm3_q,2022.2.5,Win32,74.95128167,60e5ccdf4263ab147e71b284,64aeaab685a29f4ca249be02,64bec985b6063346c30d9513,right,-1,0.5643,0.35,-1,-0.025123791,0.9338,5,0,5,0,1,,,,,,,,,,
,,288968,001,2023-07-24_19h57.50.595,arm3_q,2022.2.5,Win32,74.95128167,60e5ccdf4263ab147e71b284,64aeaab685a29f4ca249be02,64bec985b6063346c30d9513,right,-1,0.5643,0.35,-1,-0.014930025,0.5623,6,0,6,0,1,,,,,,,,,,
,,288968,001,2023-07-24_19h57.50.595,arm3_q,2022.2.5,Win32,74.95128167,60e5ccdf4263ab147e71b284,64aeaab685a29f4ca249be02,64bec985b6063346c30d9513,up,1,0.5643,0.35,-2,0,0.8052,7,0,7,0,1,,,,,,,,,,
,,288968,001,2023-07-24_19h57.50.595,arm3_q,2022.2.5,Win32,74.95128167,60e5ccdf4263ab147e71b284,64aeaab685a29f4ca249be02,64bec985b6063346c30d9513,right,1,0.5643,0.35,-2,-0.001303529,1.5652,8,0,8,0,1,,,,,,,,,,
,,288968,001,2023-07-24_19h57.50.595,arm3_q,2022.2.5,Win32,74.95128167,60e5ccdf4263ab147e71b284,64aeaab685a29f4ca249be02,64bec985b6063346c30d9513,up,1,0.5643,0.35,-2,0,0.9931,9,0,9,0,1,,,,,,,,,,
,,288968,001,2023-07-24_19h57.50.595,arm3_q,2022.2.5,Win32,74.95128167,60e5ccdf4263ab147e71b284,64aeaab685a29f4ca249be02,64bec985b6063346c30d9513,right,1,0.5643,0.35,-2,0.053236365,1.983,10,0,10,0,1,,,,,,,,,,
,,288968,001,2023-07-24_19h57.50.595,arm3_q,2022.2.5,Win32,74.95128167,60e5ccdf4263ab147e71b284,64aeaab685a29f4ca249be02,64bec985b6063346c30d9513,up,1,0.5643,0.35,-2,0,0.787,11,0,11,0,1,,,,,,,,,,
,,288968,001,2023-07-24_19h57.50.595,arm3_q,2022.2.5,Win32,74.95128167,60e5ccdf4263ab147e71b284,64aeaab685a29f4ca249be02,64bec985b6063346c30d9513,right,1,0.5643,0.35,-2,-0.008140246,1.7505,12,0,12,0,1,,,,,,,,,,
,,288968,001,2023-07-24_19h57.50.595,arm3_q,2022.2.5,Win32,74.95128167,60e5ccdf4263ab147e71b284,64aeaab685a29f4ca249be02,64bec985b6063346c30d9513,right,1,0.5643,0.35,-2,-0.006556915,1.1271,13,0,13,0,1,,,,,,,,,,
,,288968,001,2023-07-24_19h57.50.595,arm3_q,2022.2.5,Win32,74.95128167,60e5ccdf4263ab147e71b284,64aeaab685a29f4ca249be02,64bec985b6063346c30d9513,right,1,0.5643,0.35,-2,-0.024190164,0.534,14,0,14,0,1,,,,,,,,,,
,,288968,001,2023-07-24_19h57.50.595,arm3_q,2022.2.5,Win32,74.95128167,60e5ccdf4263ab147e71b284,64aeaab685a29f4ca249be02,64bec985b6063346c30d9513,down,1,0.5643,0.35,-2,0,0.4464,15,0,15,0,1,,,,,,,,,,
,,288968,001,2023-07-24_19h57.50.595,arm3_q,2022.2.5,Win32,74.95128167,60e5ccdf4263ab147e71b284,64aeaab685a29f4ca249be02,64bec985b6063346c30d9513,right,1,0.5643,0.35,-2,0.020342139,2.2319,16,0,16,0,1,,,,,,,,,,
,,288968,001,2023-07-24_19h57.50.595,arm3_q,2022.2.5,Win32,74.95128167,60e5ccdf4263ab147e71b284,64aeaab685a29f4ca249be02,64bec985b6063346c30d9513,up,1,0.5643,0.35,-1,0,0.7684,17,0,17,0,1,,,,,,,,,,
,,288968,001,2023-07-24_19h57.50.595,arm3_q,2022.2.5,Win32,74.95128167,60e5ccdf4263ab147e71b284,64aeaab685a29f4ca249be02,64bec985b6063346c30d9513,right,1,0.5643,0.35,-1,0.002235001,2.2484,18,0,18,0,1,,,,,,,,,,
,,288968,001,2023-07-24_19h57.50.595,arm3_q,2022.2.5,Win32,74.95128167,60e5ccdf4263ab147e71b284,64aeaab685a29f4ca249be02,64bec985b6063346c30d9513,right,1,0.5643,0.35,-1,-0.007438699,0.5506,19,0,19,0,1,,,,,,,,,,
,,288968,001,2023-07-24_19h57.50.595,arm3_q,2022.2.5,Win32,74.95128167,60e5ccdf4263ab147e71b284,64aeaab685a29f4ca249be02,64bec985b6063346c30d9513,down,1,0.5643,0.35,-2,0,0.9871,20,0,20,0,1,,,,,,,,,,
,,288968,001,2023-07-24_19h57.50.595,arm3_q,2022.2.5,Win32,74.95128167,60e5ccdf4263ab147e71b284,64aeaab685a29f4ca249be02,64bec985b6063346c30d9513,up,1,0.5643,0.35,-2,0,2.5569,21,0,21,0,1,,,,,,,,,,
,,288968,001,2023-07-24_19h57.50.595,arm3_q,2022.2.5,Win32,74.95128167,60e5ccdf4263ab147e71b284,64aeaab685a29f4ca249be02,64bec985b6063346c30d9513,right,1,0.5643,0.35,-2,0.005387537,1.5037,22,0,22,0,1,,,,,,,,,,
,,288968,001,2023-07-24_19h57.50.595,arm3_q,2022.2.5,Win32,74.95128167,60e5ccdf4263ab147e71b284,64aeaab685a29f4ca249be02,64bec985b6063346c30d9513,right,1,0.5643,0.35,-2,0.021884204,0.4322,23,0,23,0,1,,,,,,,,,,
,,288968,001,2023-07-24_19h57.50.595,arm3_q,2022.2.5,Win32,74.95128167,60e5ccdf4263ab147e71b284,64aeaab685a29f4ca249be02,64bec985b6063346c30d9513,right,1,0.5643,0.35,-2,0.038011262,0.6272,24,0,24,0,1,,,,,,,,,,
,,288968,001,2023-07-24_19h57.50.595,arm3_q,2022.2.5,Win32,74.95128167,60e5ccdf4263ab147e71b284,64aeaab685a29f4ca249be02,64bec985b6063346c30d9513,right,1,0.5643,0.35,-2,0.06166643,0.2938,25,0,25,0,1,,,,,,,,,,
,,288968,001,2023-07-24_19h57.50.595,arm3_q,2022.2.5,Win32,74.95128167,60e5ccdf4263ab147e71b284,64aeaab685a29f4ca249be02,64bec985b6063346c30d9513,right,1,0.5643,0.35,-2,0.076301848,0.3338,26,0,26,0,1,,,,,,,,,,
,,288968,001,2023-07-24_19h57.50.595,arm3_q,2022.2.5,Win32,74.95128167,60e5ccdf4263ab147e71b284,64aeaab685a29f4ca249be02,64bec985b6063346c30d9513,up,1,0.5643,0.35,-1,0,0.6347,27,0,27,0,1,,,,,,,,,,
,,288968,001,2023-07-24_19h57.50.595,arm3_q,2022.2.5,Win32,74.95128167,60e5ccdf4263ab147e71b284,64aeaab685a29f4ca249be02,64bec985b6063346c30d9513,right,1,0.5643,0.35,-1,0.043373712,1.0636,28,0,28,0,1,,,,,,,,,,
,,288968,001,2023-07-24_19h57.50.595,arm3_q,2022.2.5,Win32,74.95128167,60e5ccdf4263ab147e71b284,64aeaab685a29f4ca249be02,64bec985b6063346c30d9513,right,1,0.5643,0.35,-1,0.012924666,0.4975,29,0,29,0,1,,,,,,,,,,
,,288968,001,2023-07-24_19h57.50.595,arm3_q,2022.2.5,Win32,74.95128167,60e5ccdf4263ab147e71b284,64aeaab685a29f4ca249be02,64bec985b6063346c30d9513,right,1,0.5643,0.35,-1,0.034327455,0.4404,30,0,30,0,1,,,,,,,,,,
,,288968,001,2023-07-24_19h57.50.595,arm3_q,2022.2.5,Win32,74.95128167,60e5ccdf4263ab147e71b284,64aeaab685a29f4ca249be02,64bec985b6063346c30d9513,up,1,0.5643,0.35,0,0,0.5338,31,0,31,0,1,,,,,,,,,,
,,288968,001,2023-07-24_19h57.50.595,arm3_q,2022.2.5,Win32,74.95128167,60e5ccdf4263ab147e71b284,64aeaab685a29f4ca249be02,64bec985b6063346c30d9513,right,1,0.5643,0.35,0,0.008767814,0.5992,32,0,32,0,1,,,,,,,,,,
,,288968,001,2023-07-24_19h57.50.595,arm3_q,2022.2.5,Win32,74.95128167,60e5ccdf4263ab147e71b284,64aeaab685a29f4ca249be02,64bec985b6063346c30d9513,right,1,0.5643,0.35,0,0.013036423,0.7872,33,0,33,0,1,,,,,,,,,,
,,288968,001,2023-07-24_19h57.50.595,arm3_q,2022.2.5,Win32,74.95128167,60e5ccdf4263ab147e71b284,64aeaab685a29f4ca249be02,64bec985b6063346c30d9513,right,1,0.5643,0.35,0,0.020088346,0.5682,34,0,34,0,1,,,,,,,,,,
,,288968,001,2023-07-24_19h57.50.595,arm3_q,2022.2.5,Win32,74.95128167,60e5ccdf4263ab147e71b284,64aeaab685a29f4ca249be02,64bec985b6063346c30d9513,up,1,0.5643,0.35,0,0,0.5616,35,0,35,0,1,,,,,,,,,,
,,288968,001,2023-07-24_19h57.50.595,arm3_q,2022.2.5,Win32,74.95128167,60e5ccdf4263ab147e71b284,64aeaab685a29f4ca249be02,64bec985b6063346c30d9513,right,1,0.5643,0.35,0,0.018328914,0.5173,36,0,36,0,1,,,,,,,,,,
,,288968,001,2023-07-24_19h57.50.595,arm3_q,2022.2.5,Win32,74.95128167,60e5ccdf4263ab147e71b284,64aeaab685a29f4ca249be02,64bec985b6063346c30d9513,right,1,0.5643,0.35,0,0.04662073,0.8805,37,0,37,0,1,,,,,,,,,,
,,288968,001,2023-07-24_19h57.50.595,arm3_q,2022.2.5,Win32,74.95128167,60e5ccdf4263ab147e71b284,64aeaab685a29f4ca249be02,64bec985b6063346c30d9513,right,1,0.5643,0.35,0,0.042776203,0.9621,38,0,38,0,1,,,,,,,,,,
,,288968,001,2023-07-24_19h57.50.595,arm3_q,2022.2.5,Win32,74.95128167,60e5ccdf4263ab147e71b284,64aeaab685a29f4ca249be02,64bec985b6063346c30d9513,right,1,0.5643,0.35,0,0.017339666,0.4284,39,0,39,0,1,,,,,,,,,,
,,288968,001,2023-07-24_19h57.50.595,arm3_q,2022.2.5,Win32,74.95128167,60e5ccdf4263ab147e71b284,64aeaab685a29f4ca249be02,64bec985b6063346c30d9513,down,-1,0.5643,0.35,-1,0,0.5995,40,0,40,0,1,,,,,,,,,,
,,288968,001,2023-07-24_19h57.50.595,arm3_q,2022.2.5,Win32,74.95128167,60e5ccdf4263ab147e71b284,64aeaab685a29f4ca249be02,64bec985b6063346c30d9513,up,1,0.5643,0.35,-2,0,2.1313,41,0,41,0,1,,,,,,,,,,
,,288968,001,2023-07-24_19h57.50.595,arm3_q,2022.2.5,Win32,74.95128167,60e5ccdf4263ab147e71b284,64aeaab685a29f4ca249be02,64bec985b6063346c30d9513,right,1,0.5643,0.35,-2,-0.005232731,0.9729,42,0,42,0,1,,,,,,,,,,
,,288968,001,2023-07-24_19h57.50.595,arm3_q,2022.2.5,Win32,74.95128167,60e5ccdf4263ab147e71b284,64aeaab685a29f4ca249be02,64bec985b6063346c30d9513,down,-1,0.5643,0.35,-3,0,1.3073,43,0,43,0,1,,,,,,,,,,
,,288968,001,2023-07-24_19h57.50.595,arm3_q,2022.2.5,Win32,74.95128167,60e5ccdf4263ab147e71b284,64aeaab685a29f4ca249be02,64bec985b6063346c30d9513,right,-1,0.5643,0.35,-3,-0.02697869,0.5909,44,0,44,0,1,,,,,,,,,,
,,288968,001,2023-07-24_19h57.50.595,arm3_q,2022.2.5,Win32,74.95128167,60e5ccdf4263ab147e71b284,64aeaab685a29f4ca249be02,64bec985b6063346c30d9513,right,-1,0.5643,0.35,-3,0.012285076,0.5683,45,0,45,0,1,,,,,,,,,,
,,288968,001,2023-07-24_19h57.50.595,arm3_q,2022.2.5,Win32,74.95128167,60e5ccdf4263ab147e71b284,64aeaab685a29f4ca249be02,64bec985b6063346c30d9513,right,-1,0.5643,0.35,-3,-0.037695834,0.5336,46,0,46,0,1,,,,,,,,,,
,,288968,001,2023-07-24_19h57.50.595,arm3_q,2022.2.5,Win32,74.95128167,60e5ccdf4263ab147e71b284,64aeaab685a29f4ca249be02,64bec985b6063346c30d9513,up,1,0.5643,0.35,-3,0,0.367,47,0,47,0,1,,,,,,,,,,
,,288968,001,2023-07-24_19h57.50.595,arm3_q,2022.2.5,Win32,74.95128167,60e5ccdf4263ab147e71b284,64aeaab685a29f4ca249be02,64bec985b6063346c30d9513,right,1,0.5643,0.35,-3,0.012038046,0.6634,48,0,48,0,1,,,,,,,,,,
,,288968,001,2023-07-24_19h57.50.595,arm3_q,2022.2.5,Win32,74.95128167,60e5ccdf4263ab147e71b284,64aeaab685a29f4ca249be02,64bec985b6063346c30d9513,right,1,0.5643,0.35,-3,0.036656334,0.4971,49,0,49,0,1,,,,,,,,,,
space,0.7993,288968,001,2023-07-24_19h57.50.595,arm3_q,2022.2.5,Win32,74.95128167,60e5ccdf4263ab147e71b284,64aeaab685a29f4ca249be02,64bec985b6063346c30d9513,,,,,,,,,,,,,,,,,,,,,,
space,2.6544,288968,001,2023-07-24_19h57.50.595,arm3_q,2022.2.5,Win32,74.95128167,60e5ccdf4263ab147e71b284,64aeaab685a29f4ca249be02,64bec985b6063346c30d9513,right,1,0.4357,0.35,0,0.011913112,1.9352,,,,,,0,0,0,0,1,,,,,
,,288968,001,2023-07-24_19h57.50.595,arm3_q,2022.2.5,Win32,74.95128167,60e5ccdf4263ab147e71b284,64aeaab685a29f4ca249be02,64bec985b6063346c30d9513,up,-1,0.4357,0.35,0,0,1.0279,,,,,,1,0,1,0,1,,,,,
,,288968,001,2023-07-24_19h57.50.595,arm3_q,2022.2.5,Win32,74.95128167,60e5ccdf4263ab147e71b284,64aeaab685a29f4ca249be02,64bec985b6063346c30d9513,down,-1,0.4357,0.35,0,0,1.6587,,,,,,2,0,2,0,1,,,,,
,,288968,001,2023-07-24_19h57.50.595,arm3_q,2022.2.5,Win32,74.95128167,60e5ccdf4263ab147e71b284,64aeaab685a29f4ca249be02,64bec985b6063346c30d9513,right,-1,0.4357,0.35,0,-0.028172749,1.1859,,,,,,3,0,3,0,1,,,,,
,,288968,001,2023-07-24_19h57.50.595,arm3_q,2022.2.5,Win32,74.95128167,60e5ccdf4263ab147e71b284,64aeaab685a29f4ca249be02,64bec985b6063346c30d9513,right,-1,0.4357,0.35,0,-0.039633266,1.5209,,,,,,4,0,4,0,1,,,,,
,,288968,001,2023-07-24_19h57.50.595,arm3_q,2022.2.5,Win32,74.95128167,60e5ccdf4263ab147e71b284,64aeaab685a29f4ca249be02,64bec985b6063346c30d9513,down,-1,0.4357,0.35,1,0,1.1143,,,,,,5,0,5,0,1,,,,,
,,288968,001,2023-07-24_19h57.50.595,arm3_q,2022.2.5,Win32,74.95128167,60e5ccdf4263ab147e71b284,64aeaab685a29f4ca249be02,64bec985b6063346c30d9513,up,1,0.4357,0.35,1,0,1.4523,,,,,,6,0,6,0,1,,,,,
,,288968,001,2023-07-24_19h57.50.595,arm3_q,2022.2.5,Win32,74.95128167,60e5ccdf4263ab147e71b284,64aeaab685a29f4ca249be02,64bec985b6063346c30d9513,right,1,0.4357,0.35,1,-0.015778168,0.9466,,,,,,7,0,7,0,1,,,,,
,,288968,001,2023-07-24_19h57.50.595,arm3_q,2022.2.5,Win32,74.95128167,60e5ccdf4263ab147e71b284,64aeaab685a29f4ca249be02,64bec985b6063346c30d9513,right,1,0.4357,0.35,1,-0.048940805,0.3742,,,,,,8,0,8,0,1,,,,,
,,288968,001,2023-07-24_19h57.50.595,arm3_q,2022.2.5,Win32,74.95128167,60e5ccdf4263ab147e71b284,64aeaab685a29f4ca249be02,64bec985b6063346c30d9513,right,1,0.4357,0.35,1,-0.044690668,0.8999,,,,,,9,0,9,0,1,,,,,
,,288968,001,2023-07-24_19h57.50.595,arm3_q,2022.2.5,Win32,74.95128167,60e5ccdf4263ab147e71b284,64aeaab685a29f4ca249be02,64bec985b6063346c30d9513,right,1,0.4357,0.35,1,-0.033632597,0.7071,,,,,,10,0,10,0,1,,,,,
,,288968,001,2023-07-24_19h57.50.595,arm3_q,2022.2.5,Win32,74.95128167,60e5ccdf4263ab147e71b284,64aeaab685a29f4ca249be02,64bec985b6063346c30d9513,right,1,0.4357,0.35,1,-0.029782141,0.4084,,,,,,11,0,11,0,1,,,,,
,,288968,001,2023-07-24_19h57.50.595,arm3_q,2022.2.5,Win32,74.95128167,60e5ccdf4263ab147e71b284,64aeaab685a29f4ca249be02,64bec985b6063346c30d9513,right,1,0.4357,0.35,1,-0.006493044,0.9324,,,,,,12,0,12,0,1,,,,,
,,288968,001,2023-07-24_19h57.50.595,arm3_q,2022.2.5,Win32,74.95128167,60e5ccdf4263ab147e71b284,64aeaab685a29f4ca249be02,64bec985b6063346c30d9513,right,1,0.4357,0.35,1,-0.004906723,0.3683,,,,,,13,0,13,0,1,,,,,
,,288968,001,2023-07-24_19h57.50.595,arm3_q,2022.2.5,Win32,74.95128167,60e5ccdf4263ab147e71b284,64aeaab685a29f4ca249be02,64bec985b6063346c30d9513,right,1,0.4357,0.35,1,-0.00045351,0.2574,,,,,,14,0,14,0,1,,,,,
,,288968,001,2023-07-24_19h57.50.595,arm3_q,2022.2.5,Win32,74.95128167,60e5ccdf4263ab147e71b284,64aeaab685a29f4ca249be02,64bec985b6063346c30d9513,right,1,0.4357,0.35,1,-0.009359945,0.2269,,,,,,15,0,15,0,1,,,,,
,,288968,001,2023-07-24_19h57.50.595,arm3_q,2022.2.5,Win32,74.95128167,60e5ccdf4263ab147e71b284,64aeaab685a29f4ca249be02,64bec985b6063346c30d9513,right,1,0.4357,0.35,1,0.01067467,0.3336,,,,,,16,0,16,0,1,,,,,
,,288968,001,2023-07-24_19h57.50.595,arm3_q,2022.2.5,Win32,74.95128167,60e5ccdf4263ab147e71b284,64aeaab685a29f4ca249be02,64bec985b6063346c30d9513,right,1,0.4357,0.35,1,0.035759005,0.3084,,,,,,17,0,17,0,1,,,,,
,,288968,001,2023-07-24_19h57.50.595,arm3_q,2022.2.5,Win32,74.95128167,60e5ccdf4263ab147e71b284,64aeaab685a29f4ca249be02,64bec985b6063346c30d9513,up,1,0.4357,0.35,1,0,0.6406,,,,,,18,0,18,0,1,,,,,
,,288968,001,2023-07-24_19h57.50.595,arm3_q,2022.2.5,Win32,74.95128167,60e5ccdf4263ab147e71b284,64aeaab685a29f4ca249be02,64bec985b6063346c30d9513,right,1,0.4357,0.35,1,0.046218176,0.6883,,,,,,19,0,19,0,1,,,,,
,,288968,001,2023-07-24_19h57.50.595,arm3_q,2022.2.5,Win32,74.95128167,60e5ccdf4263ab147e71b284,64aeaab685a29f4ca249be02,64bec985b6063346c30d9513,up,-1,0.4357,0.35,2,0,0.7874,,,,,,20,0,20,0,1,,,,,
,,288968,001,2023-07-24_19h57.50.595,arm3_q,2022.2.5,Win32,74.95128167,60e5ccdf4263ab147e71b284,64aeaab685a29f4ca249be02,64bec985b6063346c30d9513,right,-1,0.4357,0.35,2,0.02333335,0.6899,,,,,,21,0,21,0,1,,,,,
,,288968,001,2023-07-24_19h57.50.595,arm3_q,2022.2.5,Win32,74.95128167,60e5ccdf4263ab147e71b284,64aeaab685a29f4ca249be02,64bec985b6063346c30d9513,right,-1,0.4357,0.35,2,0.01502273,0.4003,,,,,,22,0,22,0,1,,,,,
,,288968,001,2023-07-24_19h57.50.595,arm3_q,2022.2.5,Win32,74.95128167,60e5ccdf4263ab147e71b284,64aeaab685a29f4ca249be02,64bec985b6063346c30d9513,down,1,0.4357,0.35,3,0,0.7604,,,,,,23,0,23,0,1,,,,,
,,288968,001,2023-07-24_19h57.50.595,arm3_q,2022.2.5,Win32,74.95128167,60e5ccdf4263ab147e71b284,64aeaab685a29f4ca249be02,64bec985b6063346c30d9513,right,1,0.4357,0.35,3,0.032149948,0.8907,,,,,,24,0,24,0,1,,,,,
,,288968,001,2023-07-24_19h57.50.595,arm3_q,2022.2.5,Win32,74.95128167,60e5ccdf4263ab147e71b284,64aeaab685a29f4ca249be02,64bec985b6063346c30d9513,right,1,0.4357,0.35,3,0.026868871,0.4804,,,,,,25,0,25,0,1,,,,,
,,288968,001,2023-07-24_19h57.50.595,arm3_q,2022.2.5,Win32,74.95128167,60e5ccdf4263ab147e71b284,64aeaab685a29f4ca249be02,64bec985b6063346c30d9513,right,1,0.4357,0.35,3,0.034761004,0.3225,,,,,,26,0,26,0,1,,,,,
,,288968,001,2023-07-24_19h57.50.595,arm3_q,2022.2.5,Win32,74.95128167,60e5ccdf4263ab147e71b284,64aeaab685a29f4ca249be02,64bec985b6063346c30d9513,right,1,0.4357,0.35,3,0.027691521,0.4004,,,,,,27,0,27,0,1,,,,,
,,288968,001,2023-07-24_19h57.50.595,arm3_q,2022.2.5,Win32,74.95128167,60e5ccdf4263ab147e71b284,64aeaab685a29f4ca249be02,64bec985b6063346c30d9513,up,1,0.4357,0.35,4,0,0.5206,,,,,,28,0,28,0,1,,,,,
,,288968,001,2023-07-24_19h57.50.595,arm3_q,2022.2.5,Win32,74.95128167,60e5ccdf4263ab147e71b284,64aeaab685a29f4ca249be02,64bec985b6063346c30d9513,right,1,0.4357,0.35,4,-0.015704031,0.453,,,,,,29,0,29,0,1,,,,,
,,288968,001,2023-07-24_19h57.50.595,arm3_q,2022.2.5,Win32,74.95128167,60e5ccdf4263ab147e71b284,64aeaab685a29f4ca249be02,64bec985b6063346c30d9513,right,1,0.4357,0.35,4,0.003367062,0.4071,,,,,,30,0,30,0,1,,,,,
,,288968,001,2023-07-24_19h57.50.595,arm3_q,2022.2.5,Win32,74.95128167,60e5ccdf4263ab147e71b284,64aeaab685a29f4ca249be02,64bec985b6063346c30d9513,down,1,0.4357,0.35,3,0,1.002,,,,,,31,0,31,0,1,,,,,
,,288968,001,2023-07-24_19h57.50.595,arm3_q,2022.2.5,Win32,74.95128167,60e5ccdf4263ab147e71b284,64aeaab685a29f4ca249be02,64bec985b6063346c30d9513,right,1,0.4357,0.35,3,0.007797376,0.4403,,,,,,32,0,32,0,1,,,,,
,,288968,001,2023-07-24_19h57.50.595,arm3_q,2022.2.5,Win32,74.95128167,60e5ccdf4263ab147e71b284,64aeaab685a29f4ca249be02,64bec985b6063346c30d9513,right,1,0.4357,0.35,3,0.049278016,0.6461,,,,,,33,0,33,0,1,,,,,
,,288968,001,2023-07-24_19h57.50.595,arm3_q,2022.2.5,Win32,74.95128167,60e5ccdf4263ab147e71b284,64aeaab685a29f4ca249be02,64bec985b6063346c30d9513,right,1,0.4357,0.35,3,0.024976408,0.7074,,,,,,34,0,34,0,1,,,,,
,,288968,001,2023-07-24_19h57.50.595,arm3_q,2022.2.5,Win32,74.95128167,60e5ccdf4263ab147e71b284,64aeaab685a29f4ca249be02,64bec985b6063346c30d9513,right,1,0.4357,0.35,3,0.027258416,0.3768,,,,,,35,0,35,0,1,,,,,
,,288968,001,2023-07-24_19h57.50.595,arm3_q,2022.2.5,Win32,74.95128167,60e5ccdf4263ab147e71b284,64aeaab685a29f4ca249be02,64bec985b6063346c30d9513,right,1,0.4357,0.35,3,0.027356314,0.2669,,,,,,36,0,36,0,1,,,,,
,,288968,001,2023-07-24_19h57.50.595,arm3_q,2022.2.5,Win32,74.95128167,60e5ccdf4263ab147e71b284,64aeaab685a29f4ca249be02,64bec985b6063346c30d9513,right,1,0.4357,0.35,3,0.015650106,0.1602,,,,,,37,0,37,0,1,,,,,
,,288968,001,2023-07-24_19h57.50.595,arm3_q,2022.2.5,Win32,74.95128167,60e5ccdf4263ab147e71b284,64aeaab685a29f4ca249be02,64bec985b6063346c30d9513,right,1,0.4357,0.35,3,0.028591903,0.3605,,,,,,38,0,38,0,1,,,,,
,,288968,001,2023-07-24_19h57.50.595,arm3_q,2022.2.5,Win32,74.95128167,60e5ccdf4263ab147e71b284,64aeaab685a29f4ca249be02,64bec985b6063346c30d9513,right,1,0.4357,0.35,3,0.021457346,0.3071,,,,,,39,0,39,0,1,,,,,
,,288968,001,2023-07-24_19h57.50.595,arm3_q,2022.2.5,Win32,74.95128167,60e5ccdf4263ab147e71b284,64aeaab685a29f4ca249be02,64bec985b6063346c30d9513,right,1,0.4357,0.35,3,0.033066239,0.3072,,,,,,40,0,40,0,1,,,,,
,,288968,001,2023-07-24_19h57.50.595,arm3_q,2022.2.5,Win32,74.95128167,60e5ccdf4263ab147e71b284,64aeaab685a29f4ca249be02,64bec985b6063346c30d9513,right,1,0.4357,0.35,3,0.019216452,0.2827,,,,,,41,0,41,0,1,,,,,
,,288968,001,2023-07-24_19h57.50.595,arm3_q,2022.2.5,Win32,74.95128167,60e5ccdf4263ab147e71b284,64aeaab685a29f4ca249be02,64bec985b6063346c30d9513,right,1,0.4357,0.35,3,0.020441227,0.4059,,,,,,42,0,42,0,1,,,,,
,,288968,001,2023-07-24_19h57.50.595,arm3_q,2022.2.5,Win32,74.95128167,60e5ccdf4263ab147e71b284,64aeaab685a29f4ca249be02,64bec985b6063346c30d9513,up,-1,0.4357,0.35,4,0,0.4806,,,,,,43,0,43,0,1,,,,,
,,288968,001,2023-07-24_19h57.50.595,arm3_q,2022.2.5,Win32,74.95128167,60e5ccdf4263ab147e71b284,64aeaab685a29f4ca249be02,64bec985b6063346c30d9513,right,-1,0.4357,0.35,4,-0.002935267,0.5195,,,,,,44,0,44,0,1,,,,,
,,288968,001,2023-07-24_19h57.50.595,arm3_q,2022.2.5,Win32,74.95128167,60e5ccdf4263ab147e71b284,64aeaab685a29f4ca249be02,64bec985b6063346c30d9513,right,-1,0.4357,0.35,4,0.016534867,0.5652,,,,,,45,0,45,0,1,,,,,
,,288968,001,2023-07-24_19h57.50.595,arm3_q,2022.2.5,Win32,74.95128167,60e5ccdf4263ab147e71b284,64aeaab685a29f4ca249be02,64bec985b6063346c30d9513,up,1,0.4357,0.35,4,0,2.1266,,,,,,46,0,46,0,1,,,,,
,,288968,001,2023-07-24_19h57.50.595,arm3_q,2022.2.5,Win32,74.95128167,60e5ccdf4263ab147e71b284,64aeaab685a29f4ca249be02,64bec985b6063346c30d9513,right,1,0.4357,0.35,4,0.007449849,0.5572,,,,,,47,0,47,0,1,,,,,
,,288968,001,2023-07-24_19h57.50.595,arm3_q,2022.2.5,Win32,74.95128167,60e5ccdf4263ab147e71b284,64aeaab685a29f4ca249be02,64bec985b6063346c30d9513,right,1,0.4357,0.35,4,-0.005958989,0.3403,,,,,,48,0,48,0,1,,,,,
,,288968,001,2023-07-24_19h57.50.595,arm3_q,2022.2.5,Win32,74.95128167,60e5ccdf4263ab147e71b284,64aeaab685a29f4ca249be02,64bec985b6063346c30d9513,right,1,0.4357,0.35,4,-0.003841514,0.2169,,,,,,49,0,49,0,1,,,,,
,,288968,001,2023-07-24_19h57.50.595,arm3_q,2022.2.5,Win32,74.95128167,60e5ccdf4263ab147e71b284,64aeaab685a29f4ca249be02,64bec985b6063346c30d9513,right,1,0.4357,0.35,4,0.010996239,0.1735,,,,,,50,0,50,0,1,,,,,
,,288968,001,2023-07-24_19h57.50.595,arm3_q,2022.2.5,Win32,74.95128167,60e5ccdf4263ab147e71b284,64aeaab685a29f4ca249be02,64bec985b6063346c30d9513,right,1,0.4357,0.35,4,0.005097926,0.2034,,,,,,51,0,51,0,1,,,,,
,,288968,001,2023-07-24_19h57.50.595,arm3_q,2022.2.5,Win32,74.95128167,60e5ccdf4263ab147e71b284,64aeaab685a29f4ca249be02,64bec985b6063346c30d9513,right,1,0.4357,0.35,4,0.03334579,0.15,,,,,,52,0,52,0,1,,,,,
,,288968,001,2023-07-24_19h57.50.595,arm3_q,2022.2.5,Win32,74.95128167,60e5ccdf4263ab147e71b284,64aeaab685a29f4ca249be02,64bec985b6063346c30d9513,right,1,0.4357,0.35,4,0.048383053,0.1815,,,,,,53,0,53,0,1,,,,,
,,288968,001,2023-07-24_19h57.50.595,arm3_q,2022.2.5,Win32,74.95128167,60e5ccdf4263ab147e71b284,64aeaab685a29f4ca249be02,64bec985b6063346c30d9513,right,1,0.4357,0.35,4,0.053791131,0.1992,,,,,,54,0,54,0,1,,,,,
,,288968,001,2023-07-24_19h57.50.595,arm3_q,2022.2.5,Win32,74.95128167,60e5ccdf4263ab147e71b284,64aeaab685a29f4ca249be02,64bec985b6063346c30d9513,right,1,0.4357,0.35,4,0.042918639,0.1736,,,,,,55,0,55,0,1,,,,,
,,288968,001,2023-07-24_19h57.50.595,arm3_q,2022.2.5,Win32,74.95128167,60e5ccdf4263ab147e71b284,64aeaab685a29f4ca249be02,64bec985b6063346c30d9513,up,1,0.4357,0.35,4,0,1.0271,,,,,,56,0,56,0,1,,,,,
,,288968,001,2023-07-24_19h57.50.595,arm3_q,2022.2.5,Win32,74.95128167,60e5ccdf4263ab147e71b284,64aeaab685a29f4ca249be02,64bec985b6063346c30d9513,right,1,0.4357,0.35,4,0.019875746,0.5779,,,,,,57,0,57,0,1,,,,,
,,288968,001,2023-07-24_19h57.50.595,arm3_q,2022.2.5,Win32,74.95128167,60e5ccdf4263ab147e71b284,64aeaab685a29f4ca249be02,64bec985b6063346c30d9513,right,1,0.4357,0.35,4,0.03744019,0.4004,,,,,,58,0,58,0,1,,,,,
,,288968,001,2023-07-24_19h57.50.595,arm3_q,2022.2.5,Win32,74.95128167,60e5ccdf4263ab147e71b284,64aeaab685a29f4ca249be02,64bec985b6063346c30d9513,right,1,0.4357,0.35,4,0.051475,0.3223,,,,,,59,0,59,0,1,,,,,
,,288968,001,2023-07-24_19h57.50.595,arm3_q,2022.2.5,Win32,74.95128167,60e5ccdf4263ab147e71b284,64aeaab685a29f4ca249be02,64bec985b6063346c30d9513,right,1,0.4357,0.35,4,0.053251677,0.1809,,,,,,60,0,60,0,1,,,,,
,,288968,001,2023-07-24_19h57.50.595,arm3_q,2022.2.5,Win32,74.95128167,60e5ccdf4263ab147e71b284,64aeaab685a29f4ca249be02,64bec985b6063346c30d9513,up,1,0.4357,0.35,5,0,0.7947,,,,,,61,0,61,0,1,,,,,
,,288968,001,2023-07-24_19h57.50.595,arm3_q,2022.2.5,Win32,74.95128167,60e5ccdf4263ab147e71b284,64aeaab685a29f4ca249be02,64bec985b6063346c30d9513,right,1,0.4357,0.35,5,-0.000226144,0.4901,,,,,,62,0,62,0,1,,,,,
,,288968,001,2023-07-24_19h57.50.595,arm3_q,2022.2.5,Win32,74.95128167,60e5ccdf4263ab147e71b284,64aeaab685a29f4ca249be02,64bec985b6063346c30d9513,right,1,0.4357,0.35,5,0.034427156,0.3184,,,,,,63,0,63,0,1,,,,,
,,288968,001,2023-07-24_19h57.50.595,arm3_q,2022.2.5,Win32,74.95128167,60e5ccdf4263ab147e71b284,64aeaab685a29f4ca249be02,64bec985b6063346c30d9513,right,1,0.4357,0.35,5,0.043440348,0.1532,,,,,,64,0,64,0,1,,,,,
,,288968,001,2023-07-24_19h57.50.595,arm3_q,2022.2.5,Win32,74.95128167,60e5ccdf4263ab147e71b284,64aeaab685a29f4ca249be02,64bec985b6063346c30d9513,right,1,0.4357,0.35,5,0.0271024,0.1611,,,,,,65,0,65,0,1,,,,,
,,288968,001,2023-07-24_19h57.50.595,arm3_q,2022.2.5,Win32,74.95128167,60e5ccdf4263ab147e71b284,64aeaab685a29f4ca249be02,64bec985b6063346c30d9513,right,1,0.4357,0.35,5,0.060303882,0.2802,,,,,,66,0,66,0,1,,,,,
,,288968,001,2023-07-24_19h57.50.595,arm3_q,2022.2.5,Win32,74.95128167,60e5ccdf4263ab147e71b284,64aeaab685a29f4ca249be02,64bec985b6063346c30d9513,right,1,0.4357,0.35,5,0.071190135,0.2143,,,,,,67,0,67,0,1,,,,,
,,288968,001,2023-07-24_19h57.50.595,arm3_q,2022.2.5,Win32,74.95128167,60e5ccdf4263ab147e71b284,64aeaab685a29f4ca249be02,64bec985b6063346c30d9513,up,1,0.4357,0.35,5,0,0.3603,,,,,,68,0,68,0,1,,,,,
,,288968,001,2023-07-24_19h57.50.595,arm3_q,2022.2.5,Win32,74.95128167,60e5ccdf4263ab147e71b284,64aeaab685a29f4ca249be02,64bec985b6063346c30d9513,right,1,0.4357,0.35,5,-0.018602797,0.5177,,,,,,69,0,69,0,1,,,,,
,,288968,001,2023-07-24_19h57.50.595,arm3_q,2022.2.5,Win32,74.95128167,60e5ccdf4263ab147e71b284,64aeaab685a29f4ca249be02,64bec985b6063346c30d9513,right,1,0.4357,0.35,5,0.015079688,0.5336,,,,,,70,0,70,0,1,,,,,
,,288968,001,2023-07-24_19h57.50.595,arm3_q,2022.2.5,Win32,74.95128167,60e5ccdf4263ab147e71b284,64aeaab685a29f4ca249be02,64bec985b6063346c30d9513,right,1,0.4357,0.35,5,0.025119349,0.1602,,,,,,71,0,71,0,1,,,,,
,,288968,001,2023-07-24_19h57.50.595,arm3_q,2022.2.5,Win32,74.95128167,60e5ccdf4263ab147e71b284,64aeaab685a29f4ca249be02,64bec985b6063346c30d9513,right,1,0.4357,0.35,5,0.025086974,0.467,,,,,,72,0,72,0,1,,,,,
,,288968,001,2023-07-24_19h57.50.595,arm3_q,2022.2.5,Win32,74.95128167,60e5ccdf4263ab147e71b284,64aeaab685a29f4ca249be02,64bec985b6063346c30d9513,right,1,0.4357,0.35,5,0.031124992,0.3071,,,,,,73,0,73,0,1,,,,,
,,288968,001,2023-07-24_19h57.50.595,arm3_q,2022.2.5,Win32,74.95128167,60e5ccdf4263ab147e71b284,64aeaab685a29f4ca249be02,64bec985b6063346c30d9513,up,1,0.4357,0.35,5,0,0.307,,,,,,74,0,74,0,1,,,,,
,,288968,001,2023-07-24_19h57.50.595,arm3_q,2022.2.5,Win32,74.95128167,60e5ccdf4263ab147e71b284,64aeaab685a29f4ca249be02,64bec985b6063346c30d9513,right,1,0.4357,0.35,5,0.032165777,0.5099,,,,,,75,0,75,0,1,,,,,
,,288968,001,2023-07-24_19h57.50.595,arm3_q,2022.2.5,Win32,74.95128167,60e5ccdf4263ab147e71b284,64aeaab685a29f4ca249be02,64bec985b6063346c30d9513,right,1,0.4357,0.35,5,0.045700891,0.6557,,,,,,76,0,76,0,1,,,,,
,,288968,001,2023-07-24_19h57.50.595,arm3_q,2022.2.5,Win32,74.95128167,60e5ccdf4263ab147e71b284,64aeaab685a29f4ca249be02,64bec985b6063346c30d9513,right,1,0.4357,0.35,5,0.052035443,0.2445,,,,,,77,0,77,0,1,,,,,
,,288968,001,2023-07-24_19h57.50.595,arm3_q,2022.2.5,Win32,74.95128167,60e5ccdf4263ab147e71b284,64aeaab685a29f4ca249be02,64bec985b6063346c30d9513,right,1,0.4357,0.35,5,0.049636605,0.4961,,,,,,78,0,78,0,1,,,,,
,,288968,001,2023-07-24_19h57.50.595,arm3_q,2022.2.5,Win32,74.95128167,60e5ccdf4263ab147e71b284,64aeaab685a29f4ca249be02,64bec985b6063346c30d9513,down,1,0.4357,0.35,5,0,0.9416,,,,,,79,0,79,0,1,,,,,
,,288968,001,2023-07-24_19h57.50.595,arm3_q,2022.2.5,Win32,74.95128167,60e5ccdf4263ab147e71b284,64aeaab685a29f4ca249be02,64bec985b6063346c30d9513,right,1,0.4357,0.35,5,0.010424079,0.5757,,,,,,80,0,80,0,1,,,,,
,,288968,001,2023-07-24_19h57.50.595,arm3_q,2022.2.5,Win32,74.95128167,60e5ccdf4263ab147e71b284,64aeaab685a29f4ca249be02,64bec985b6063346c30d9513,up,1,0.4357,0.35,5,0,1.3656,,,,,,81,0,81,0,1,,,,,
,,288968,001,2023-07-24_19h57.50.595,arm3_q,2022.2.5,Win32,74.95128167,60e5ccdf4263ab147e71b284,64aeaab685a29f4ca249be02,64bec985b6063346c30d9513,right,1,0.4357,0.35,5,0.015178728,0.5596,,,,,,82,0,82,0,1,,,,,
,,288968,001,2023-07-24_19h57.50.595,arm3_q,2022.2.5,Win32,74.95128167,60e5ccdf4263ab147e71b284,64aeaab685a29f4ca249be02,64bec985b6063346c30d9513,right,1,0.4357,0.35,5,0.022178915,0.5798,,,,,,83,0,83,0,1,,,,,
,,288968,001,2023-07-24_19h57.50.595,arm3_q,2022.2.5,Win32,74.95128167,60e5ccdf4263ab147e71b284,64aeaab685a29f4ca249be02,64bec985b6063346c30d9513,right,1,0.4357,0.35,5,0.038687369,0.2269,,,,,,84,0,84,0,1,,,,,
,,288968,001,2023-07-24_19h57.50.595,arm3_q,2022.2.5,Win32,74.95128167,60e5ccdf4263ab147e71b284,64aeaab685a29f4ca249be02,64bec985b6063346c30d9513,up,1,0.4357,0.35,6,0,0.5203,,,,,,85,0,85,0,1,,,,,
,,288968,001,2023-07-24_19h57.50.595,arm3_q,2022.2.5,Win32,74.95128167,60e5ccdf4263ab147e71b284,64aeaab685a29f4ca249be02,64bec985b6063346c30d9513,right,1,0.4357,0.35,6,4.7984E-05,0.8158,,,,,,86,0,86,0,1,,,,,
,,288968,001,2023-07-24_19h57.50.595,arm3_q,2022.2.5,Win32,74.95128167,60e5ccdf4263ab147e71b284,64aeaab685a29f4ca249be02,64bec985b6063346c30d9513,right,1,0.4357,0.35,6,-0.003682441,0.3471,,,,,,87,0,87,0,1,,,,,
,,288968,001,2023-07-24_19h57.50.595,arm3_q,2022.2.5,Win32,74.95128167,60e5ccdf4263ab147e71b284,64aeaab685a29f4ca249be02,64bec985b6063346c30d9513,right,1,0.4357,0.35,6,0.005034251,0.1682,,,,,,88,0,88,0,1,,,,,
,,288968,001,2023-07-24_19h57.50.595,arm3_q,2022.2.5,Win32,74.95128167,60e5ccdf4263ab147e71b284,64aeaab685a29f4ca249be02,64bec985b6063346c30d9513,right,1,0.4357,0.35,6,0.011082947,0.441,,,,,,89,0,89,0,1,,,,,
,,288968,001,2023-07-24_19h57.50.595,arm3_q,2022.2.5,Win32,74.95128167,60e5ccdf4263ab147e71b284,64aeaab685a29f4ca249be02,64bec985b6063346c30d9513,up,1,0.4357,0.35,6,0,0.405,,,,,,90,0,90,0,1,,,,,
,,288968,001,2023-07-24_19h57.50.595,arm3_q,2022.2.5,Win32,74.95128167,60e5ccdf4263ab147e71b284,64aeaab685a29f4ca249be02,64bec985b6063346c30d9513,right,1,0.4357,0.35,6,0.017666831,0.4921,,,,,,91,0,91,0,1,,,,,
,,288968,001,2023-07-24_19h57.50.595,arm3_q,2022.2.5,Win32,74.95128167,60e5ccdf4263ab147e71b284,64aeaab685a29f4ca249be02,64bec985b6063346c30d9513,right,1,0.4357,0.35,6,0.016310434,0.3465,,,,,,92,0,92,0,1,,,,,
,,288968,001,2023-07-24_19h57.50.595,arm3_q,2022.2.5,Win32,74.95128167,60e5ccdf4263ab147e71b284,64aeaab685a29f4ca249be02,64bec985b6063346c30d9513,right,1,0.4357,0.35,6,0.037130631,0.1605,,,,,,93,0,93,0,1,,,,,
,,288968,001,2023-07-24_19h57.50.595,arm3_q,2022.2.5,Win32,74.95128167,60e5ccdf4263ab147e71b284,64aeaab685a29f4ca249be02,64bec985b6063346c30d9513,right,1,0.4357,0.35,6,0.020446805,0.1513,,,,,,94,0,94,0,1,,,,,
,,288968,001,2023-07-24_19h57.50.595,arm3_q,2022.2.5,Win32,74.95128167,60e5ccdf4263ab147e71b284,64aeaab685a29f4ca249be02,64bec985b6063346c30d9513,right,1,0.4357,0.35,6,0.029258581,0.1743,,,,,,95,0,95,0,1,,,,,
,,288968,001,2023-07-24_19h57.50.595,arm3_q,2022.2.5,Win32,74.95128167,60e5ccdf4263ab147e71b284,64aeaab685a29f4ca249be02,64bec985b6063346c30d9513,down,1,0.4357,0.35,5,0,0.6539,,,,,,96,0,96,0,1,,,,,
,,288968,001,2023-07-24_19h57.50.595,arm3_q,2022.2.5,Win32,74.95128167,60e5ccdf4263ab147e71b284,64aeaab685a29f4ca249be02,64bec985b6063346c30d9513,right,1,0.4357,0.35,5,0.030880011,0.5575,,,,,,97,0,97,0,1,,,,,
,,288968,001,2023-07-24_19h57.50.595,arm3_q,2022.2.5,Win32,74.95128167,60e5ccdf4263ab147e71b284,64aeaab685a29f4ca249be02,64bec985b6063346c30d9513,right,1,0.4357,0.35,5,0.074789693,0.2802,,,,,,98,0,98,0,1,,,,,
,,288968,001,2023-07-24_19h57.50.595,arm3_q,2022.2.5,Win32,74.95128167,60e5ccdf4263ab147e71b284,64aeaab685a29f4ca249be02,64bec985b6063346c30d9513,right,1,0.4357,0.35,5,0.089060624,0.1602,,,,,,99,0,99,0,1,,,,,
,,288968,001,2023-07-24_19h57.50.595,arm3_q,2022.2.5,Win32,74.95128167,60e5ccdf4263ab147e71b284,64aeaab685a29f4ca249be02,64bec985b6063346c30d9513,right,1,0.4357,0.35,5,0.077200537,0.5338,,,,,,100,0,100,0,1,,,,,
,,288968,001,2023-07-24_19h57.50.595,arm3_q,2022.2.5,Win32,74.95128167,60e5ccdf4263ab147e71b284,64aeaab685a29f4ca249be02,64bec985b6063346c30d9513,up,1,0.4357,0.35,5,0,0.2704,,,,,,101,0,101,0,1,,,,,
,,288968,001,2023-07-24_19h57.50.595,arm3_q,2022.2.5,Win32,74.95128167,60e5ccdf4263ab147e71b284,64aeaab685a29f4ca249be02,64bec985b6063346c30d9513,right,1,0.4357,0.35,5,-0.005737339,0.4651,,,,,,102,0,102,0,1,,,,,
,,288968,001,2023-07-24_19h57.50.595,arm3_q,2022.2.5,Win32,74.95128167,60e5ccdf4263ab147e71b284,64aeaab685a29f4ca249be02,64bec985b6063346c30d9513,right,1,0.4357,0.35,5,-0.012943437,0.4536,,,,,,103,0,103,0,1,,,,,
,,288968,001,2023-07-24_19h57.50.595,arm3_q,2022.2.5,Win32,74.95128167,60e5ccdf4263ab147e71b284,64aeaab685a29f4ca249be02,64bec985b6063346c30d9513,down,1,0.4357,0.35,4,0,0.5149,,,,,,104,0,104,0,1,,,,,
,,288968,001,2023-07-24_19h57.50.595,arm3_q,2022.2.5,Win32,74.95128167,60e5ccdf4263ab147e71b284,64aeaab685a29f4ca249be02,64bec985b6063346c30d9513,right,1,0.4357,0.35,4,0.003354128,0.6235,,,,,,105,0,105,0,1,,,,,
,,288968,001,2023-07-24_19h57.50.595,arm3_q,2022.2.5,Win32,74.95128167,60e5ccdf4263ab147e71b284,64aeaab685a29f4ca249be02,64bec985b6063346c30d9513,right,1,0.4357,0.35,4,0.058645264,0.2988,,,,,,106,0,106,0,1,,,,,
,,288968,001,2023-07-24_19h57.50.595,arm3_q,2022.2.5,Win32,74.95128167,60e5ccdf4263ab147e71b284,64aeaab685a29f4ca249be02,64bec985b6063346c30d9513,up,1,0.4357,0.35,5,0,0.5073,,,,,,107,0,107,0,1,,,,,
,,288968,001,2023-07-24_19h57.50.595,arm3_q,2022.2.5,Win32,74.95128167,60e5ccdf4263ab147e71b284,64aeaab685a29f4ca249be02,64bec985b6063346c30d9513,right,1,0.4357,0.35,5,0.022588775,0.5108,,,,,,108,0,108,0,1,,,,,
,,288968,001,2023-07-24_19h57.50.595,arm3_q,2022.2.5,Win32,74.95128167,60e5ccdf4263ab147e71b284,64aeaab685a29f4ca249be02,64bec985b6063346c30d9513,right,1,0.4357,0.35,5,0.037054208,0.2807,,,,,,109,0,109,0,1,,,,,
,,288968,001,2023-07-24_19h57.50.595,arm3_q,2022.2.5,Win32,74.95128167,60e5ccdf4263ab147e71b284,64aeaab685a29f4ca249be02,64bec985b6063346c30d9513,right,1,0.4357,0.35,5,0.079182208,0.162,,,,,,110,0,110,0,1,,,,,
,,288968,001,2023-07-24_19h57.50.595,arm3_q,2022.2.5,Win32,74.95128167,60e5ccdf4263ab147e71b284,64aeaab685a29f4ca249be02,64bec985b6063346c30d9513,right,1,0.4357,0.35,5,0.06345885,0.36,,,,,,111,0,111,0,1,,,,,
,,288968,001,2023-07-24_19h57.50.595,arm3_q,2022.2.5,Win32,74.95128167,60e5ccdf4263ab147e71b284,64aeaab685a29f4ca249be02,64bec985b6063346c30d9513,up,1,0.4357,0.35,5,0,0.4877,,,,,,112,0,112,0,1,,,,,
,,288968,001,2023-07-24_19h57.50.595,arm3_q,2022.2.5,Win32,74.95128167,60e5ccdf4263ab147e71b284,64aeaab685a29f4ca249be02,64bec985b6063346c30d9513,right,1,0.4357,0.35,5,0.01834442,0.414,,,,,,113,0,113,0,1,,,,,
,,288968,001,2023-07-24_19h57.50.595,arm3_q,2022.2.5,Win32,74.95128167,60e5ccdf4263ab147e71b284,64aeaab685a29f4ca249be02,64bec985b6063346c30d9513,right,1,0.4357,0.35,5,0.044617418,0.287,,,,,,114,0,114,0,1,,,,,
,,288968,001,2023-07-24_19h57.50.595,arm3_q,2022.2.5,Win32,74.95128167,60e5ccdf4263ab147e71b284,64aeaab685a29f4ca249be02,64bec985b6063346c30d9513,right,1,0.4357,0.35,5,0.026751005,0.3872,,,,,,115,0,115,0,1,,,,,
,,288968,001,2023-07-24_19h57.50.595,arm3_q,2022.2.5,Win32,74.95128167,60e5ccdf4263ab147e71b284,64aeaab685a29f4ca249be02,64bec985b6063346c30d9513,right,1,0.4357,0.35,5,0.024019263,0.3772,,,,,,116,0,116,0,1,,,,,
,,288968,001,2023-07-24_19h57.50.595,arm3_q,2022.2.5,Win32,74.95128167,60e5ccdf4263ab147e71b284,64aeaab685a29f4ca249be02,64bec985b6063346c30d9513,up,1,0.4357,0.35,6,0,0.4271,,,,,,117,0,117,0,1,,,,,
,,288968,001,2023-07-24_19h57.50.595,arm3_q,2022.2.5,Win32,74.95128167,60e5ccdf4263ab147e71b284,64aeaab685a29f4ca249be02,64bec985b6063346c30d9513,right,1,0.4357,0.35,6,-0.004136002,0.4035,,,,,,118,0,118,0,1,,,,,
,,288968,001,2023-07-24_19h57.50.595,arm3_q,2022.2.5,Win32,74.95128167,60e5ccdf4263ab147e71b284,64aeaab685a29f4ca249be02,64bec985b6063346c30d9513,right,1,0.4357,0.35,6,-0.004147186,0.3527,,,,,,119,0,119,0,1,,,,,
,,288968,001,2023-07-24_19h57.50.595,arm3_q,2022.2.5,Win32,74.95128167,60e5ccdf4263ab147e71b284,64aeaab685a29f4ca249be02,64bec985b6063346c30d9513,right,1,0.4357,0.35,6,-0.007825054,0.1525,,,,,,120,0,120,0,1,,,,,
,,288968,001,2023-07-24_19h57.50.595,arm3_q,2022.2.5,Win32,74.95128167,60e5ccdf4263ab147e71b284,64aeaab685a29f4ca249be02,64bec985b6063346c30d9513,right,1,0.4357,0.35,6,-0.011930009,0.1528,,,,,,121,0,121,0,1,,,,,
,,288968,001,2023-07-24_19h57.50.595,arm3_q,2022.2.5,Win32,74.95128167,60e5ccdf4263ab147e71b284,64aeaab685a29f4ca249be02,64bec985b6063346c30d9513,down,1,0.4357,0.35,6,0,0.5764,,,,,,122,0,122,0,1,,,,,
,,288968,001,2023-07-24_19h57.50.595,arm3_q,2022.2.5,Win32,74.95128167,60e5ccdf4263ab147e71b284,64aeaab685a29f4ca249be02,64bec985b6063346c30d9513,right,1,0.4357,0.35,6,0.023337107,0.7318,,,,,,123,0,123,0,1,,,,,
,,288968,001,2023-07-24_19h57.50.595,arm3_q,2022.2.5,Win32,74.95128167,60e5ccdf4263ab147e71b284,64aeaab685a29f4ca249be02,64bec985b6063346c30d9513,right,1,0.4357,0.35,6,0.008783054,0.2824,,,,,,124,0,124,0,1,,,,,
,,288968,001,2023-07-24_19h57.50.595,arm3_q,2022.2.5,Win32,74.95128167,60e5ccdf4263ab147e71b284,64aeaab685a29f4ca249be02,64bec985b6063346c30d9513,right,1,0.4357,0.35,6,0.004841574,0.5892,,,,,,125,0,125,0,1,,,,,
,,288968,001,2023-07-24_19h57.50.595,arm3_q,2022.2.5,Win32,74.95128167,60e5ccdf4263ab147e71b284,64aeaab685a29f4ca249be02,64bec985b6063346c30d9513,right,1,0.4357,0.35,6,0.040471001,0.1601,,,,,,126,0,126,0,1,,,,,
,,288968,001,2023-07-24_19h57.50.595,arm3_q,2022.2.5,Win32,74.95128167,60e5ccdf4263ab147e71b284,64aeaab685a29f4ca249be02,64bec985b6063346c30d9513,right,1,0.4357,0.35,6,0.01064985,0.5607,,,,,,127,0,127,0,1,,,,,
,,288968,001,2023-07-24_19h57.50.595,arm3_q,2022.2.5,Win32,74.95128167,60e5ccdf4263ab147e71b284,64aeaab685a29f4ca249be02,64bec985b6063346c30d9513,right,1,0.4357,0.35,6,0.01559075,0.218,,,,,,128,0,128,0,1,,,,,
,,288968,001,2023-07-24_19h57.50.595,arm3_q,2022.2.5,Win32,74.95128167,60e5ccdf4263ab147e71b284,64aeaab685a29f4ca249be02,64bec985b6063346c30d9513,right,1,0.4357,0.35,6,0.0023513,0.3519,,,,,,129,0,129,0,1,,,,,
,,288968,001,2023-07-24_19h57.50.595,arm3_q,2022.2.5,Win32,74.95128167,60e5ccdf4263ab147e71b284,64aeaab685a29f4ca249be02,64bec985b6063346c30d9513,up,1,0.4357,0.35,7,0,0.4796,,,,,,130,0,130,0,1,,,,,
,,288968,001,2023-07-24_19h57.50.595,arm3_q,2022.2.5,Win32,74.95128167,60e5ccdf4263ab147e71b284,64aeaab685a29f4ca249be02,64bec985b6063346c30d9513,right,1,0.4357,0.35,7,-0.000486543,0.4946,,,,,,131,0,131,0,1,,,,,
,,288968,001,2023-07-24_19h57.50.595,arm3_q,2022.2.5,Win32,74.95128167,60e5ccdf4263ab147e71b284,64aeaab685a29f4ca249be02,64bec985b6063346c30d9513,right,1,0.4357,0.35,7,0.025183246,0.3049,,,,,,132,0,132,0,1,,,,,
,,288968,001,2023-07-24_19h57.50.595,arm3_q,2022.2.5,Win32,74.95128167,60e5ccdf4263ab147e71b284,64aeaab685a29f4ca249be02,64bec985b6063346c30d9513,right,1,0.4357,0.35,7,0.032754097,0.1506,,,,,,133,0,133,0,1,,,,,
,,288968,001,2023-07-24_19h57.50.595,arm3_q,2022.2.5,Win32,74.95128167,60e5ccdf4263ab147e71b284,64aeaab685a29f4ca249be02,64bec985b6063346c30d9513,right,1,0.4357,0.35,7,0.03629569,0.2004,,,,,,134,0,134,0,1,,,,,
,,288968,001,2023-07-24_19h57.50.595,arm3_q,2022.2.5,Win32,74.95128167,60e5ccdf4263ab147e71b284,64aeaab685a29f4ca249be02,64bec985b6063346c30d9513,right,1,0.4357,0.35,7,0.034702567,0.1738,,,,,,135,0,135,0,1,,,,,
,,288968,001,2023-07-24_19h57.50.595,arm3_q,2022.2.5,Win32,74.95128167,60e5ccdf4263ab147e71b284,64aeaab685a29f4ca249be02,64bec985b6063346c30d9513,right,1,0.4357,0.35,7,0.076801125,0.2403,,,,,,136,0,136,0,1,,,,,
,,288968,001,2023-07-24_19h57.50.595,arm3_q,2022.2.5,Win32,74.95128167,60e5ccdf4263ab147e71b284,64aeaab685a29f4ca249be02,64bec985b6063346c30d9513,right,1,0.4357,0.35,7,0.097698848,0.6672,,,,,,137,0,137,0,1,,,,,
,,288968,001,2023-07-24_19h57.50.595,arm3_q,2022.2.5,Win32,74.95128167,60e5ccdf4263ab147e71b284,64aeaab685a29f4ca249be02,64bec985b6063346c30d9513,right,1,0.4357,0.35,7,0.107983239,0.1736,,,,,,138,0,138,0,1,,,,,
,,288968,001,2023-07-24_19h57.50.595,arm3_q,2022.2.5,Win32,74.95128167,60e5ccdf4263ab147e71b284,64aeaab685a29f4ca249be02,64bec985b6063346c30d9513,right,1,0.4357,0.35,7,0.110196498,0.1604,,,,,,139,0,139,0,1,,,,,
,,288968,001,2023-07-24_19h57.50.595,arm3_q,2022.2.5,Win32,74.95128167,60e5ccdf4263ab147e71b284,64aeaab685a29f4ca249be02,64bec985b6063346c30d9513,right,1,0.4357,0.35,7,0.135172175,0.1525,,,,,,140,0,140,0,1,,,,,
,,288968,001,2023-07-24_19h57.50.595,arm3_q,2022.2.5,Win32,74.95128167,60e5ccdf4263ab147e71b284,64aeaab685a29f4ca249be02,64bec985b6063346c30d9513,right,1,0.4357,0.35,7,0.146651922,0.1767,,,,,,141,0,141,0,1,,,,,
,,288968,001,2023-07-24_19h57.50.595,arm3_q,2022.2.5,Win32,74.95128167,60e5ccdf4263ab147e71b284,64aeaab685a29f4ca249be02,64bec985b6063346c30d9513,right,1,0.4357,0.35,7,0.122180312,0.4269,,,,,,142,0,142,0,1,,,,,
,,288968,001,2023-07-24_19h57.50.595,arm3_q,2022.2.5,Win32,74.95128167,60e5ccdf4263ab147e71b284,64aeaab685a29f4ca249be02,64bec985b6063346c30d9513,up,1,0.4357,0.35,7,0,1.565,,,,,,143,0,143,0,1,,,,,
,,288968,001,2023-07-24_19h57.50.595,arm3_q,2022.2.5,Win32,74.95128167,60e5ccdf4263ab147e71b284,64aeaab685a29f4ca249be02,64bec985b6063346c30d9513,right,1,0.4357,0.35,7,0.00101568,0.5984,,,,,,144,0,144,0,1,,,,,
,,288968,001,2023-07-24_19h57.50.595,arm3_q,2022.2.5,Win32,74.95128167,60e5ccdf4263ab147e71b284,64aeaab685a29f4ca249be02,64bec985b6063346c30d9513,right,1,0.4357,0.35,7,0.014391691,0.6584,,,,,,145,0,145,0,1,,,,,
,,288968,001,2023-07-24_19h57.50.595,arm3_q,2022.2.5,Win32,74.95128167,60e5ccdf4263ab147e71b284,64aeaab685a29f4ca249be02,64bec985b6063346c30d9513,up,1,0.4357,0.35,7,0,0.2669,,,,,,146,0,146,0,1,,,,,
,,288968,001,2023-07-24_19h57.50.595,arm3_q,2022.2.5,Win32,74.95128167,60e5ccdf4263ab147e71b284,64aeaab685a29f4ca249be02,64bec985b6063346c30d9513,right,1,0.4357,0.35,7,0.014150458,0.6804,,,,,,147,0,147,0,1,,,,,
,,288968,001,2023-07-24_19h57.50.595,arm3_q,2022.2.5,Win32,74.95128167,60e5ccdf4263ab147e71b284,64aeaab685a29f4ca249be02,64bec985b6063346c30d9513,right,1,0.4357,0.35,7,-0.024138962,0.2731,,,,,,148,0,148,0,1,,,,,
,,288968,001,2023-07-24_19h57.50.595,arm3_q,2022.2.5,Win32,74.95128167,60e5ccdf4263ab147e71b284,64aeaab685a29f4ca249be02,64bec985b6063346c30d9513,up,1,0.4357,0.35,7,0,1.0327,,,,,,149,0,149,0,1,,,,,
,,288968,001,2023-07-24_19h57.50.595,arm3_q,2022.2.5,Win32,74.95128167,60e5ccdf4263ab147e71b284,64aeaab685a29f4ca249be02,64bec985b6063346c30d9513,right,1,0.4357,0.35,7,0.033594008,0.6925,,,,,,150,0,150,0,1,,,,,
,,288968,001,2023-07-24_19h57.50.595,arm3_q,2022.2.5,Win32,74.95128167,60e5ccdf4263ab147e71b284,64aeaab685a29f4ca249be02,64bec985b6063346c30d9513,right,1,0.4357,0.35,7,0.011525614,0.2462,,,,,,151,0,151,0,1,,,,,
,,288968,001,2023-07-24_19h57.50.595,arm3_q,2022.2.5,Win32,74.95128167,60e5ccdf4263ab147e71b284,64aeaab685a29f4ca249be02,64bec985b6063346c30d9513,right,1,0.4357,0.35,7,-0.001911815,0.3766,,,,,,152,0,152,0,1,,,,,
,,288968,001,2023-07-24_19h57.50.595,arm3_q,2022.2.5,Win32,74.95128167,60e5ccdf4263ab147e71b284,64aeaab685a29f4ca249be02,64bec985b6063346c30d9513,up,1,0.4357,0.35,7,0,0.5206,,,,,,153,0,153,0,1,,,,,
,,288968,001,2023-07-24_19h57.50.595,arm3_q,2022.2.5,Win32,74.95128167,60e5ccdf4263ab147e71b284,64aeaab685a29f4ca249be02,64bec985b6063346c30d9513,right,1,0.4357,0.35,7,0.005879209,0.3718,,,,,,154,0,154,0,1,,,,,
,,288968,001,2023-07-24_19h57.50.595,arm3_q,2022.2.5,Win32,74.95128167,60e5ccdf4263ab147e71b284,64aeaab685a29f4ca249be02,64bec985b6063346c30d9513,right,1,0.4357,0.35,7,0.021681794,0.1656,,,,,,155,0,155,0,1,,,,,
,,288968,001,2023-07-24_19h57.50.595,arm3_q,2022.2.5,Win32,74.95128167,60e5ccdf4263ab147e71b284,64aeaab685a29f4ca249be02,64bec985b6063346c30d9513,right,1,0.4357,0.35,7,0.011056495,0.1603,,,,,,156,0,156,0,1,,,,,
,,288968,001,2023-07-24_19h57.50.595,arm3_q,2022.2.5,Win32,74.95128167,60e5ccdf4263ab147e71b284,64aeaab685a29f4ca249be02,64bec985b6063346c30d9513,right,1,0.4357,0.35,7,0.017736916,0.2819,,,,,,157,0,157,0,1,,,,,
,,288968,001,2023-07-24_19h57.50.595,arm3_q,2022.2.5,Win32,74.95128167,60e5ccdf4263ab147e71b284,64aeaab685a29f4ca249be02,64bec985b6063346c30d9513,right,1,0.4357,0.35,7,0.030762255,0.1085,,,,,,158,0,158,0,1,,,,,
,,288968,001,2023-07-24_19h57.50.595,arm3_q,2022.2.5,Win32,74.95128167,60e5ccdf4263ab147e71b284,64aeaab685a29f4ca249be02,64bec985b6063346c30d9513,down,1,0.4357,0.35,7,0,0.6845,,,,,,159,0,159,0,1,,,,,
,,288968,001,2023-07-24_19h57.50.595,arm3_q,2022.2.5,Win32,74.95128167,60e5ccdf4263ab147e71b284,64aeaab685a29f4ca249be02,64bec985b6063346c30d9513,right,1,0.4357,0.35,7,-0.002347319,0.39,,,,,,160,0,160,0,1,,,,,
,,288968,001,2023-07-24_19h57.50.595,arm3_q,2022.2.5,Win32,74.95128167,60e5ccdf4263ab147e71b284,64aeaab685a29f4ca249be02,64bec985b6063346c30d9513,right,1,0.4357,0.35,7,0.008965183,0.3071,,,,,,161,0,161,0,1,,,,,
,,288968,001,2023-07-24_19h57.50.595,arm3_q,2022.2.5,Win32,74.95128167,60e5ccdf4263ab147e71b284,64aeaab685a29f4ca249be02,64bec985b6063346c30d9513,right,1,0.4357,0.35,7,0.01292313,0.175,,,,,,162,0,162,0,1,,,,,
,,288968,001,2023-07-24_19h57.50.595,arm3_q,2022.2.5,Win32,74.95128167,60e5ccdf4263ab147e71b284,64aeaab685a29f4ca249be02,64bec985b6063346c30d9513,up,1,0.4357,0.35,8,0,0.4404,,,,,,163,0,163,0,1,,,,,
,,288968,001,2023-07-24_19h57.50.595,arm3_q,2022.2.5,Win32,74.95128167,60e5ccdf4263ab147e71b284,64aeaab685a29f4ca249be02,64bec985b6063346c30d9513,right,1,0.4357,0.35,8,-0.032879866,0.4447,,,,,,164,0,164,0,1,,,,,
,,288968,001,2023-07-24_19h57.50.595,arm3_q,2022.2.5,Win32,74.95128167,60e5ccdf4263ab147e71b284,64aeaab685a29f4ca249be02,64bec985b6063346c30d9513,right,1,0.4357,0.35,8,-0.018508998,0.265,,,,,,165,0,165,0,1,,,,,
,,288968,001,2023-07-24_19h57.50.595,arm3_q,2022.2.5,Win32,74.95128167,60e5ccdf4263ab147e71b284,64aeaab685a29f4ca249be02,64bec985b6063346c30d9513,right,1,0.4357,0.35,8,0.001942442,0.1532,,,,,,166,0,166,0,1,,,,,
,,288968,001,2023-07-24_19h57.50.595,arm3_q,2022.2.5,Win32,74.95128167,60e5ccdf4263ab147e71b284,64aeaab685a29f4ca249be02,64bec985b6063346c30d9513,right,1,0.4357,0.35,8,0.025389791,0.427,,,,,,167,0,167,0,1,,,,,
,,288968,001,2023-07-24_19h57.50.595,arm3_q,2022.2.5,Win32,74.95128167,60e5ccdf4263ab147e71b284,64aeaab685a29f4ca249be02,64bec985b6063346c30d9513,down,1,0.4357,0.35,7,0,0.8969,,,,,,168,0,168,0,1,,,,,
,,288968,001,2023-07-24_19h57.50.595,arm3_q,2022.2.5,Win32,74.95128167,60e5ccdf4263ab147e71b284,64aeaab685a29f4ca249be02,64bec985b6063346c30d9513,right,1,0.4357,0.35,7,-0.011486576,0.5081,,,,,,169,0,169,0,1,,,,,
,,288968,001,2023-07-24_19h57.50.595,arm3_q,2022.2.5,Win32,74.95128167,60e5ccdf4263ab147e71b284,64aeaab685a29f4ca249be02,64bec985b6063346c30d9513,right,1,0.4357,0.35,7,-0.020965857,0.16,,,,,,170,0,170,0,1,,,,,
,,288968,001,2023-07-24_19h57.50.595,arm3_q,2022.2.5,Win32,74.95128167,60e5ccdf4263ab147e71b284,64aeaab685a29f4ca249be02,64bec985b6063346c30d9513,right,1,0.4357,0.35,7,-0.035263483,0.2936,,,,,,171,0,171,0,1,,,,,
,,288968,001,2023-07-24_19h57.50.595,arm3_q,2022.2.5,Win32,74.95128167,60e5ccdf4263ab147e71b284,64aeaab685a29f4ca249be02,64bec985b6063346c30d9513,up,-1,0.4357,0.35,8,0,0.7093,,,,,,172,0,172,0,1,,,,,
,,288968,001,2023-07-24_19h57.50.595,arm3_q,2022.2.5,Win32,74.95128167,60e5ccdf4263ab147e71b284,64aeaab685a29f4ca249be02,64bec985b6063346c30d9513,right,-1,0.4357,0.35,8,-0.007784335,0.4384,,,,,,173,0,173,0,1,,,,,
,,288968,001,2023-07-24_19h57.50.595,arm3_q,2022.2.5,Win32,74.95128167,60e5ccdf4263ab147e71b284,64aeaab685a29f4ca249be02,64bec985b6063346c30d9513,right,-1,0.4357,0.35,8,-0.022646688,0.1513,,,,,,174,0,174,0,1,,,,,
,,288968,001,2023-07-24_19h57.50.595,arm3_q,2022.2.5,Win32,74.95128167,60e5ccdf4263ab147e71b284,64aeaab685a29f4ca249be02,64bec985b6063346c30d9513,right,-1,0.4357,0.35,8,-0.031389802,0.2162,,,,,,175,0,175,0,1,,,,,
,,288968,001,2023-07-24_19h57.50.595,arm3_q,2022.2.5,Win32,74.95128167,60e5ccdf4263ab147e71b284,64aeaab685a29f4ca249be02,64bec985b6063346c30d9513,right,-1,0.4357,0.35,8,-0.022785145,0.1814,,,,,,176,0,176,0,1,,,,,
,,288968,001,2023-07-24_19h57.50.595,arm3_q,2022.2.5,Win32,74.95128167,60e5ccdf4263ab147e71b284,64aeaab685a29f4ca249be02,64bec985b6063346c30d9513,up,-1,0.4357,0.35,8,0,1.0181,,,,,,177,0,177,0,1,,,,,
,,288968,001,2023-07-24_19h57.50.595,arm3_q,2022.2.5,Win32,74.95128167,60e5ccdf4263ab147e71b284,64aeaab685a29f4ca249be02,64bec985b6063346c30d9513,right,-1,0.4357,0.35,8,0.022367901,0.3974,,,,,,178,0,178,0,1,,,,,
,,288968,001,2023-07-24_19h57.50.595,arm3_q,2022.2.5,Win32,74.95128167,60e5ccdf4263ab147e71b284,64aeaab685a29f4ca249be02,64bec985b6063346c30d9513,right,-1,0.4357,0.35,8,0.016199475,0.1618,,,,,,179,0,179,0,1,,,,,
,,288968,001,2023-07-24_19h57.50.595,arm3_q,2022.2.5,Win32,74.95128167,60e5ccdf4263ab147e71b284,64aeaab685a29f4ca249be02,64bec985b6063346c30d9513,right,-1,0.4357,0.35,8,-0.003468902,0.4616,,,,,,180,0,180,0,1,,,,,
,,288968,001,2023-07-24_19h57.50.595,arm3_q,2022.2.5,Win32,74.95128167,60e5ccdf4263ab147e71b284,64aeaab685a29f4ca249be02,64bec985b6063346c30d9513,right,-1,0.4357,0.35,8,-0.01622301,0.1773,,,,,,181,0,181,0,1,,,,,
,,288968,001,2023-07-24_19h57.50.595,arm3_q,2022.2.5,Win32,74.95128167,60e5ccdf4263ab147e71b284,64aeaab685a29f4ca249be02,64bec985b6063346c30d9513,right,-1,0.4357,0.35,8,-0.05285982,0.2004,,,,,,182,0,182,0,1,,,,,
,,288968,001,2023-07-24_19h57.50.595,arm3_q,2022.2.5,Win32,74.95128167,60e5ccdf4263ab147e71b284,64aeaab685a29f4ca249be02,64bec985b6063346c30d9513,down,1,0.4357,0.35,9,0,0.4752,,,,,,183,0,183,0,1,,,,,
,,288968,001,2023-07-24_19h57.50.595,arm3_q,2022.2.5,Win32,74.95128167,60e5ccdf4263ab147e71b284,64aeaab685a29f4ca249be02,64bec985b6063346c30d9513,right,1,0.4357,0.35,9,0.018101248,0.4137,,,,,,184,0,184,0,1,,,,,
,,288968,001,2023-07-24_19h57.50.595,arm3_q,2022.2.5,Win32,74.95128167,60e5ccdf4263ab147e71b284,64aeaab685a29f4ca249be02,64bec985b6063346c30d9513,right,1,0.4357,0.35,9,0.044260259,0.2131,,,,,,185,0,185,0,1,,,,,
,,288968,001,2023-07-24_19h57.50.595,arm3_q,2022.2.5,Win32,74.95128167,60e5ccdf4263ab147e71b284,64aeaab685a29f4ca249be02,64bec985b6063346c30d9513,right,1,0.4357,0.35,9,0.07264244,0.1639,,,,,,186,0,186,0,1,,,,,
,,288968,001,2023-07-24_19h57.50.595,arm3_q,2022.2.5,Win32,74.95128167,60e5ccdf4263ab147e71b284,64aeaab685a29f4ca249be02,64bec985b6063346c30d9513,right,1,0.4357,0.35,9,0.079916293,0.5509,,,,,,187,0,187,0,1,,,,,
,,288968,001,2023-07-24_19h57.50.595,arm3_q,2022.2.5,Win32,74.95128167,60e5ccdf4263ab147e71b284,64aeaab685a29f4ca249be02,64bec985b6063346c30d9513,up,1,0.4357,0.35,9,0,0.5072,,,,,,188,0,188,0,1,,,,,
,,288968,001,2023-07-24_19h57.50.595,arm3_q,2022.2.5,Win32,74.95128167,60e5ccdf4263ab147e71b284,64aeaab685a29f4ca249be02,64bec985b6063346c30d9513,right,1,0.4357,0.35,9,0.020894002,0.3977,,,,,,189,0,189,0,1,,,,,
,,288968,001,2023-07-24_19h57.50.595,arm3_q,2022.2.5,Win32,74.95128167,60e5ccdf4263ab147e71b284,64aeaab685a29f4ca249be02,64bec985b6063346c30d9513,right,1,0.4357,0.35,9,0.042509171,0.2273,,,,,,190,0,190,0,1,,,,,
,,288968,001,2023-07-24_19h57.50.595,arm3_q,2022.2.5,Win32,74.95128167,60e5ccdf4263ab147e71b284,64aeaab685a29f4ca249be02,64bec985b6063346c30d9513,right,1,0.4357,0.35,9,0.027284099,0.3767,,,,,,191,0,191,0,1,,,,,
,,288968,001,2023-07-24_19h57.50.595,arm3_q,2022.2.5,Win32,74.95128167,60e5ccdf4263ab147e71b284,64aeaab685a29f4ca249be02,64bec985b6063346c30d9513,right,1,0.4357,0.35,9,0.022993067,0.1604,,,,,,192,0,192,0,1,,,,,
,,288968,001,2023-07-24_19h57.50.595,arm3_q,2022.2.5,Win32,74.95128167,60e5ccdf4263ab147e71b284,64aeaab685a29f4ca249be02,64bec985b6063346c30d9513,right,1,0.4357,0.35,9,0.050683118,0.1527,,,,,,193,0,193,0,1,,,,,
,,288968,001,2023-07-24_19h57.50.595,arm3_q,2022.2.5,Win32,74.95128167,60e5ccdf4263ab147e71b284,64aeaab685a29f4ca249be02,64bec985b6063346c30d9513,up,1,0.4357,0.35,10,0,0.5525,,,,,,194,0,194,0,1,,,,,
,,288968,001,2023-07-24_19h57.50.595,arm3_q,2022.2.5,Win32,74.95128167,60e5ccdf4263ab147e71b284,64aeaab685a29f4ca249be02,64bec985b6063346c30d9513,right,1,0.4357,0.35,10,0.010915359,0.3892,,,,,,195,0,195,0,1,,,,,
,,288968,001,2023-07-24_19h57.50.595,arm3_q,2022.2.5,Win32,74.95128167,60e5ccdf4263ab147e71b284,64aeaab685a29f4ca249be02,64bec985b6063346c30d9513,right,1,0.4357,0.35,10,0.00677881,0.2068,,,,,,196,0,196,0,1,,,,,
,,288968,001,2023-07-24_19h57.50.595,arm3_q,2022.2.5,Win32,74.95128167,60e5ccdf4263ab147e71b284,64aeaab685a29f4ca249be02,64bec985b6063346c30d9513,right,1,0.4357,0.35,10,0.00785388,0.1863,,,,,,197,0,197,0,1,,,,,
,,288968,001,2023-07-24_19h57.50.595,arm3_q,2022.2.5,Win32,74.95128167,60e5ccdf4263ab147e71b284,64aeaab685a29f4ca249be02,64bec985b6063346c30d9513,right,1,0.4357,0.35,10,-0.002799363,0.1786,,,,,,198,0,198,0,1,,,,,
,,288968,001,2023-07-24_19h57.50.595,arm3_q,2022.2.5,Win32,74.95128167,60e5ccdf4263ab147e71b284,64aeaab685a29f4ca249be02,64bec985b6063346c30d9513,right,1,0.4357,0.35,10,0.038562044,0.2537,,,,,,199,0,199,0,1,,,,,
,,288968,001,2023-07-24_19h57.50.595,arm3_q,2022.2.5,Win32,74.95128167,60e5ccdf4263ab147e71b284,64aeaab685a29f4ca249be02,64bec985b6063346c30d9513,right,1,0.4357,0.35,10,0.066338313,0.189,,,,,,200,0,200,0,1,,,,,
,,288968,001,2023-07-24_19h57.50.595,arm3_q,2022.2.5,Win32,74.95128167,60e5ccdf4263ab147e71b284,64aeaab685a29f4ca249be02,64bec985b6063346c30d9513,up,1,0.4357,0.35,11,0,0.4847,,,,,,201,0,201,0,1,,,,,
,,288968,001,2023-07-24_19h57.50.595,arm3_q,2022.2.5,Win32,74.95128167,60e5ccdf4263ab147e71b284,64aeaab685a29f4ca249be02,64bec985b6063346c30d9513,right,1,0.4357,0.35,11,0.025611734,0.4474,,,,,,202,0,202,0,1,,,,,
,,288968,001,2023-07-24_19h57.50.595,arm3_q,2022.2.5,Win32,74.95128167,60e5ccdf4263ab147e71b284,64aeaab685a29f4ca249be02,64bec985b6063346c30d9513,right,1,0.4357,0.35,11,0.054313338,0.3352,,,,,,203,0,203,0,1,,,,,
,,288968,001,2023-07-24_19h57.50.595,arm3_q,2022.2.5,Win32,74.95128167,60e5ccdf4263ab147e71b284,64aeaab685a29f4ca249be02,64bec985b6063346c30d9513,right,1,0.4357,0.35,11,0.059299725,0.1603,,,,,,204,0,204,0,1,,,,,
,,288968,001,2023-07-24_19h57.50.595,arm3_q,2022.2.5,Win32,74.95128167,60e5ccdf4263ab147e71b284,64aeaab685a29f4ca249be02,64bec985b6063346c30d9513,right,1,0.4357,0.35,11,0.060217493,0.1547,,,,,,205,0,205,0,1,,,,,
,,288968,001,2023-07-24_19h57.50.595,arm3_q,2022.2.5,Win32,74.95128167,60e5ccdf4263ab147e71b284,64aeaab685a29f4ca249be02,64bec985b6063346c30d9513,right,1,0.4357,0.35,11,0.064225404,0.1727,,,,,,206,0,206,0,1,,,,,
,,288968,001,2023-07-24_19h57.50.595,arm3_q,2022.2.5,Win32,74.95128167,60e5ccdf4263ab147e71b284,64aeaab685a29f4ca249be02,64bec985b6063346c30d9513,right,1,0.4357,0.35,11,0.091867891,0.4476,,,,,,207,0,207,0,1,,,,,
,,288968,001,2023-07-24_19h57.50.595,arm3_q,2022.2.5,Win32,74.95128167,60e5ccdf4263ab147e71b284,64aeaab685a29f4ca249be02,64bec985b6063346c30d9513,up,1,0.4357,0.35,11,0,0.3862,,,,,,208,0,208,0,1,,,,,
,,288968,001,2023-07-24_19h57.50.595,arm3_q,2022.2.5,Win32,74.95128167,60e5ccdf4263ab147e71b284,64aeaab685a29f4ca249be02,64bec985b6063346c30d9513,right,1,0.4357,0.35,11,-0.012808468,0.4389,,,,,,209,0,209,0,1,,,,,
,,288968,001,2023-07-24_19h57.50.595,arm3_q,2022.2.5,Win32,74.95128167,60e5ccdf4263ab147e71b284,64aeaab685a29f4ca249be02,64bec985b6063346c30d9513,right,1,0.4357,0.35,11,0.010489876,0.4198,,,,,,210,0,210,0,1,,,,,
,,288968,001,2023-07-24_19h57.50.595,arm3_q,2022.2.5,Win32,74.95128167,60e5ccdf4263ab147e71b284,64aeaab685a29f4ca249be02,64bec985b6063346c30d9513,right,1,0.4357,0.35,11,0.024981162,0.2346,,,,,,211,0,211,0,1,,,,,
,,288968,001,2023-07-24_19h57.50.595,arm3_q,2022.2.5,Win32,74.95128167,60e5ccdf4263ab147e71b284,64aeaab685a29f4ca249be02,64bec985b6063346c30d9513,right,1,0.4357,0.35,11,0.041703653,0.1604,,,,,,212,0,212,0,1,,,,,
,,288968,001,2023-07-24_19h57.50.595,arm3_q,2022.2.5,Win32,74.95128167,60e5ccdf4263ab147e71b284,64aeaab685a29f4ca249be02,64bec985b6063346c30d9513,up,-1,0.4357,0.35,11,0,0.3002,,,,,,213,0,213,0,1,,,,,
,,288968,001,2023-07-24_19h57.50.595,arm3_q,2022.2.5,Win32,74.95128167,60e5ccdf4263ab147e71b284,64aeaab685a29f4ca249be02,64bec985b6063346c30d9513,right,-1,0.4357,0.35,11,-0.005900911,0.472,,,,,,214,0,214,0,1,,,,,
,,288968,001,2023-07-24_19h57.50.595,arm3_q,2022.2.5,Win32,74.95128167,60e5ccdf4263ab147e71b284,64aeaab685a29f4ca249be02,64bec985b6063346c30d9513,right,-1,0.4357,0.35,11,-0.026320687,0.4803,,,,,,215,0,215,0,1,,,,,
,,288968,001,2023-07-24_19h57.50.595,arm3_q,2022.2.5,Win32,74.95128167,60e5ccdf4263ab147e71b284,64aeaab685a29f4ca249be02,64bec985b6063346c30d9513,up,-1,0.4357,0.35,11,0,0.547,,,,,,216,0,216,0,1,,,,,
,,288968,001,2023-07-24_19h57.50.595,arm3_q,2022.2.5,Win32,74.95128167,60e5ccdf4263ab147e71b284,64aeaab685a29f4ca249be02,64bec985b6063346c30d9513,right,-1,0.4357,0.35,11,0.024030851,0.7475,,,,,,217,0,217,0,1,,,,,
,,288968,001,2023-07-24_19h57.50.595,arm3_q,2022.2.5,Win32,74.95128167,60e5ccdf4263ab147e71b284,64aeaab685a29f4ca249be02,64bec985b6063346c30d9513,right,-1,0.4357,0.35,11,0.053681372,0.7339,,,,,,218,0,218,0,1,,,,,
,,288968,001,2023-07-24_19h57.50.595,arm3_q,2022.2.5,Win32,74.95128167,60e5ccdf4263ab147e71b284,64aeaab685a29f4ca249be02,64bec985b6063346c30d9513,right,-1,0.4357,0.35,11,0.029690693,0.3071,,,,,,219,0,219,0,1,,,,,
,,288968,001,2023-07-24_19h57.50.595,arm3_q,2022.2.5,Win32,74.95128167,60e5ccdf4263ab147e71b284,64aeaab685a29f4ca249be02,64bec985b6063346c30d9513,right,-1,0.4357,0.35,11,0.037345736,0.1682,,,,,,220,0,220,0,1,,,,,
,,288968,001,2023-07-24_19h57.50.595,arm3_q,2022.2.5,Win32,74.95128167,60e5ccdf4263ab147e71b284,64aeaab685a29f4ca249be02,64bec985b6063346c30d9513,right,-1,0.4357,0.35,11,0.008610921,0.1374,,,,,,221,0,221,0,1,,,,,
,,288968,001,2023-07-24_19h57.50.595,arm3_q,2022.2.5,Win32,74.95128167,60e5ccdf4263ab147e71b284,64aeaab685a29f4ca249be02,64bec985b6063346c30d9513,right,-1,0.4357,0.35,11,-0.015265981,0.1516,,,,,,222,0,222,0,1,,,,,
,,288968,001,2023-07-24_19h57.50.595,arm3_q,2022.2.5,Win32,74.95128167,60e5ccdf4263ab147e71b284,64aeaab685a29f4ca249be02,64bec985b6063346c30d9513,down,-1,0.4357,0.35,12,0,0.5512,,,,,,223,0,223,0,1,,,,,
,,288968,001,2023-07-24_19h57.50.595,arm3_q,2022.2.5,Win32,74.95128167,60e5ccdf4263ab147e71b284,64aeaab685a29f4ca249be02,64bec985b6063346c30d9513,right,-1,0.4357,0.35,12,-0.01035618,0.4129,,,,,,224,0,224,0,1,,,,,
,,288968,001,2023-07-24_19h57.50.595,arm3_q,2022.2.5,Win32,74.95128167,60e5ccdf4263ab147e71b284,64aeaab685a29f4ca249be02,64bec985b6063346c30d9513,right,-1,0.4357,0.35,12,-0.017734198,0.2433,,,,,,225,0,225,0,1,,,,,
,,288968,001,2023-07-24_19h57.50.595,arm3_q,2022.2.5,Win32,74.95128167,60e5ccdf4263ab147e71b284,64aeaab685a29f4ca249be02,64bec985b6063346c30d9513,right,-1,0.4357,0.35,12,-0.023821541,0.1469,,,,,,226,0,226,0,1,,,,,
,,288968,001,2023-07-24_19h57.50.595,arm3_q,2022.2.5,Win32,74.95128167,60e5ccdf4263ab147e71b284,64aeaab685a29f4ca249be02,64bec985b6063346c30d9513,right,-1,0.4357,0.35,12,-0.010010134,0.147,,,,,,227,0,227,0,1,,,,,
,,288968,001,2023-07-24_19h57.50.595,arm3_q,2022.2.5,Win32,74.95128167,60e5ccdf4263ab147e71b284,64aeaab685a29f4ca249be02,64bec985b6063346c30d9513,right,-1,0.4357,0.35,12,-0.008276548,0.1668,,,,,,228,0,228,0,1,,,,,
,,288968,001,2023-07-24_19h57.50.595,arm3_q,2022.2.5,Win32,74.95128167,60e5ccdf4263ab147e71b284,64aeaab685a29f4ca249be02,64bec985b6063346c30d9513,right,-1,0.4357,0.35,12,0.004379275,0.1735,,,,,,229,0,229,0,1,,,,,
,,288968,001,2023-07-24_19h57.50.595,arm3_q,2022.2.5,Win32,74.95128167,60e5ccdf4263ab147e71b284,64aeaab685a29f4ca249be02,64bec985b6063346c30d9513,right,-1,0.4357,0.35,12,-0.008904911,0.2307,,,,,,230,0,230,0,1,,,,,
,,288968,001,2023-07-24_19h57.50.595,arm3_q,2022.2.5,Win32,74.95128167,60e5ccdf4263ab147e71b284,64aeaab685a29f4ca249be02,64bec985b6063346c30d9513,down,-1,0.4357,0.35,13,0,1.2143,,,,,,231,0,231,0,1,,,,,
,,288968,001,2023-07-24_19h57.50.595,arm3_q,2022.2.5,Win32,74.95128167,60e5ccdf4263ab147e71b284,64aeaab685a29f4ca249be02,64bec985b6063346c30d9513,right,-1,0.4357,0.35,13,-0.025959696,0.4438,,,,,,232,0,232,0,1,,,,,
,,288968,001,2023-07-24_19h57.50.595,arm3_q,2022.2.5,Win32,74.95128167,60e5ccdf4263ab147e71b284,64aeaab685a29f4ca249be02,64bec985b6063346c30d9513,right,-1,0.4357,0.35,13,0.000176665,0.2055,,,,,,233,0,233,0,1,,,,,
,,288968,001,2023-07-24_19h57.50.595,arm3_q,2022.2.5,Win32,74.95128167,60e5ccdf4263ab147e71b284,64aeaab685a29f4ca249be02,64bec985b6063346c30d9513,right,-1,0.4357,0.35,13,-0.027966761,0.1526,,,,,,234,0,234,0,1,,,,,
,,288968,001,2023-07-24_19h57.50.595,arm3_q,2022.2.5,Win32,74.95128167,60e5ccdf4263ab147e71b284,64aeaab685a29f4ca249be02,64bec985b6063346c30d9513,right,-1,0.4357,0.35,13,-0.035464458,0.1522,,,,,,235,0,235,0,1,,,,,
,,288968,001,2023-07-24_19h57.50.595,arm3_q,2022.2.5,Win32,74.95128167,60e5ccdf4263ab147e71b284,64aeaab685a29f4ca249be02,64bec985b6063346c30d9513,right,-1,0.4357,0.35,13,0.001710922,0.1604,,,,,,236,0,236,0,1,,,,,
,,288968,001,2023-07-24_19h57.50.595,arm3_q,2022.2.5,Win32,74.95128167,60e5ccdf4263ab147e71b284,64aeaab685a29f4ca249be02,64bec985b6063346c30d9513,right,-1,0.4357,0.35,13,0.005871882,0.1949,,,,,,237,0,237,0,1,,,,,
,,288968,001,2023-07-24_19h57.50.595,arm3_q,2022.2.5,Win32,74.95128167,60e5ccdf4263ab147e71b284,64aeaab685a29f4ca249be02,64bec985b6063346c30d9513,right,-1,0.4357,0.35,13,-0.015793968,0.274,,,,,,238,0,238,0,1,,,,,
,,288968,001,2023-07-24_19h57.50.595,arm3_q,2022.2.5,Win32,74.95128167,60e5ccdf4263ab147e71b284,64aeaab685a29f4ca249be02,64bec985b6063346c30d9513,right,-1,0.4357,0.35,13,-0.032826287,0.178,,,,,,239,0,239,0,1,,,,,
,,288968,001,2023-07-24_19h57.50.595,arm3_q,2022.2.5,Win32,74.95128167,60e5ccdf4263ab147e71b284,64aeaab685a29f4ca249be02,64bec985b6063346c30d9513,right,-1,0.4357,0.35,13,-0.035853221,0.1684,,,,,,240,0,240,0,1,,,,,
,,288968,001,2023-07-24_19h57.50.595,arm3_q,2022.2.5,Win32,74.95128167,60e5ccdf4263ab147e71b284,64aeaab685a29f4ca249be02,64bec985b6063346c30d9513,right,-1,0.4357,0.35,13,-0.081668723,0.1621,,,,,,241,0,241,0,1,,,,,
,,288968,001,2023-07-24_19h57.50.595,arm3_q,2022.2.5,Win32,74.95128167,60e5ccdf4263ab147e71b284,64aeaab685a29f4ca249be02,64bec985b6063346c30d9513,right,-1,0.4357,0.35,13,-0.081255756,0.1603,,,,,,242,0,242,0,1,,,,,
,,288968,001,2023-07-24_19h57.50.595,arm3_q,2022.2.5,Win32,74.95128167,60e5ccdf4263ab147e71b284,64aeaab685a29f4ca249be02,64bec985b6063346c30d9513,down,-1,0.4357,0.35,13,0,0.5073,,,,,,243,0,243,0,1,,,,,
,,288968,001,2023-07-24_19h57.50.595,arm3_q,2022.2.5,Win32,74.95128167,60e5ccdf4263ab147e71b284,64aeaab685a29f4ca249be02,64bec985b6063346c30d9513,right,-1,0.4357,0.35,13,-0.034169593,0.4701,,,,,,244,0,244,0,1,,,,,
,,288968,001,2023-07-24_19h57.50.595,arm3_q,2022.2.5,Win32,74.95128167,60e5ccdf4263ab147e71b284,64aeaab685a29f4ca249be02,64bec985b6063346c30d9513,right,-1,0.4357,0.35,13,-0.054238276,0.6807,,,,,,245,0,245,0,1,,,,,
,,288968,001,2023-07-24_19h57.50.595,arm3_q,2022.2.5,Win32,74.95128167,60e5ccdf4263ab147e71b284,64aeaab685a29f4ca249be02,64bec985b6063346c30d9513,right,-1,0.4357,0.35,13,-0.064413072,0.1471,,,,,,246,0,246,0,1,,,,,
,,288968,001,2023-07-24_19h57.50.595,arm3_q,2022.2.5,Win32,74.95128167,60e5ccdf4263ab147e71b284,64aeaab685a29f4ca249be02,64bec985b6063346c30d9513,right,-1,0.4357,0.35,13,-0.089101158,0.1535,,,,,,247,0,247,0,1,,,,,
,,288968,001,2023-07-24_19h57.50.595,arm3_q,2022.2.5,Win32,74.95128167,60e5ccdf4263ab147e71b284,64aeaab685a29f4ca249be02,64bec985b6063346c30d9513,right,-1,0.4357,0.35,13,-0.087641081,0.1624,,,,,,248,0,248,0,1,,,,,
,,288968,001,2023-07-24_19h57.50.595,arm3_q,2022.2.5,Win32,74.95128167,60e5ccdf4263ab147e71b284,64aeaab685a29f4ca249be02,64bec985b6063346c30d9513,right,-1,0.4357,0.35,13,-0.094020992,0.1488,,,,,,249,0,249,0,1,,,,,
,,288968,001,2023-07-24_19h57.50.595,arm3_q,2022.2.5,Win32,74.95128167,60e5ccdf4263ab147e71b284,64aeaab685a29f4ca249be02,64bec985b6063346c30d9513,right,-1,0.4357,0.35,13,-0.086511148,0.1605,,,,,,250,0,250,0,1,,,,,
,,288968,001,2023-07-24_19h57.50.595,arm3_q,2022.2.5,Win32,74.95128167,60e5ccdf4263ab147e71b284,64aeaab685a29f4ca249be02,64bec985b6063346c30d9513,right,-1,0.4357,0.35,13,-0.09309958,0.215,,,,,,251,0,251,0,1,,,,,
,,288968,001,2023-07-24_19h57.50.595,arm3_q,2022.2.5,Win32,74.95128167,60e5ccdf4263ab147e71b284,64aeaab685a29f4ca249be02,64bec985b6063346c30d9513,right,-1,0.4357,0.35,13,-0.082245898,0.2137,,,,,,252,0,252,0,1,,,,,
,,288968,001,2023-07-24_19h57.50.595,arm3_q,2022.2.5,Win32,74.95128167,60e5ccdf4263ab147e71b284,64aeaab685a29f4ca249be02,64bec985b6063346c30d9513,down,-1,0.4357,0.35,14,0,0.3533,,,,,,253,0,253,0,1,,,,,
,,288968,001,2023-07-24_19h57.50.595,arm3_q,2022.2.5,Win32,74.95128167,60e5ccdf4263ab147e71b284,64aeaab685a29f4ca249be02,64bec985b6063346c30d9513,right,-1,0.4357,0.35,14,-0.018068636,0.6109,,,,,,254,0,254,0,1,,,,,
,,288968,001,2023-07-24_19h57.50.595,arm3_q,2022.2.5,Win32,74.95128167,60e5ccdf4263ab147e71b284,64aeaab685a29f4ca249be02,64bec985b6063346c30d9513,right,-1,0.4357,0.35,14,-0.033084543,0.3468,,,,,,255,0,255,0,1,,,,,
,,288968,001,2023-07-24_19h57.50.595,arm3_q,2022.2.5,Win32,74.95128167,60e5ccdf4263ab147e71b284,64aeaab685a29f4ca249be02,64bec985b6063346c30d9513,right,-1,0.4357,0.35,14,-0.061181122,0.1465,,,,,,256,0,256,0,1,,,,,
,,288968,001,2023-07-24_19h57.50.595,arm3_q,2022.2.5,Win32,74.95128167,60e5ccdf4263ab147e71b284,64aeaab685a29f4ca249be02,64bec985b6063346c30d9513,right,-1,0.4357,0.35,14,-0.073983705,0.1465,,,,,,257,0,257,0,1,,,,,
,,288968,001,2023-07-24_19h57.50.595,arm3_q,2022.2.5,Win32,74.95128167,60e5ccdf4263ab147e71b284,64aeaab685a29f4ca249be02,64bec985b6063346c30d9513,right,-1,0.4357,0.35,14,-0.056185954,0.1737,,,,,,258,0,258,0,1,,,,,
,,288968,001,2023-07-24_19h57.50.595,arm3_q,2022.2.5,Win32,74.95128167,60e5ccdf4263ab147e71b284,64aeaab685a29f4ca249be02,64bec985b6063346c30d9513,right,-1,0.4357,0.35,14,-0.059354218,0.2789,,,,,,259,0,259,0,1,,,,,
,,288968,001,2023-07-24_19h57.50.595,arm3_q,2022.2.5,Win32,74.95128167,60e5ccdf4263ab147e71b284,64aeaab685a29f4ca249be02,64bec985b6063346c30d9513,right,-1,0.4357,0.35,14,-0.081820552,0.16,,,,,,260,0,260,0,1,,,,,
,,288968,001,2023-07-24_19h57.50.595,arm3_q,2022.2.5,Win32,74.95128167,60e5ccdf4263ab147e71b284,64aeaab685a29f4ca249be02,64bec985b6063346c30d9513,right,-1,0.4357,0.35,14,-0.088989046,0.1602,,,,,,261,0,261,0,1,,,,,
,,288968,001,2023-07-24_19h57.50.595,arm3_q,2022.2.5,Win32,74.95128167,60e5ccdf4263ab147e71b284,64aeaab685a29f4ca249be02,64bec985b6063346c30d9513,down,-1,0.4357,0.35,15,0,0.6667,,,,,,262,0,262,0,1,,,,,
,,288968,001,2023-07-24_19h57.50.595,arm3_q,2022.2.5,Win32,74.95128167,60e5ccdf4263ab147e71b284,64aeaab685a29f4ca249be02,64bec985b6063346c30d9513,right,-1,0.4357,0.35,15,-0.052000802,0.3941,,,,,,263,0,263,0,1,,,,,
,,288968,001,2023-07-24_19h57.50.595,arm3_q,2022.2.5,Win32,74.95128167,60e5ccdf4263ab147e71b284,64aeaab685a29f4ca249be02,64bec985b6063346c30d9513,right,-1,0.4357,0.35,15,-0.073813946,0.1609,,,,,,264,0,264,0,1,,,,,
,,288968,001,2023-07-24_19h57.50.595,arm3_q,2022.2.5,Win32,74.95128167,60e5ccdf4263ab147e71b284,64aeaab685a29f4ca249be02,64bec985b6063346c30d9513,right,-1,0.4357,0.35,15,-0.073877255,0.1735,,,,,,265,0,265,0,1,,,,,
,,288968,001,2023-07-24_19h57.50.595,arm3_q,2022.2.5,Win32,74.95128167,60e5ccdf4263ab147e71b284,64aeaab685a29f4ca249be02,64bec985b6063346c30d9513,right,-1,0.4357,0.35,15,-0.093033531,0.163,,,,,,266,0,266,0,1,,,,,
,,288968,001,2023-07-24_19h57.50.595,arm3_q,2022.2.5,Win32,74.95128167,60e5ccdf4263ab147e71b284,64aeaab685a29f4ca249be02,64bec985b6063346c30d9513,right,-1,0.4357,0.35,15,-0.129678096,0.1652,,,,,,267,0,267,0,1,,,,,
,,288968,001,2023-07-24_19h57.50.595,arm3_q,2022.2.5,Win32,74.95128167,60e5ccdf4263ab147e71b284,64aeaab685a29f4ca249be02,64bec985b6063346c30d9513,right,-1,0.4357,0.35,15,-0.145332233,0.1739,,,,,,268,0,268,0,1,,,,,
,,288968,001,2023-07-24_19h57.50.595,arm3_q,2022.2.5,Win32,74.95128167,60e5ccdf4263ab147e71b284,64aeaab685a29f4ca249be02,64bec985b6063346c30d9513,right,-1,0.4357,0.35,15,-0.137657338,0.3605,,,,,,269,0,269,0,1,,,,,
,,288968,001,2023-07-24_19h57.50.595,arm3_q,2022.2.5,Win32,74.95128167,60e5ccdf4263ab147e71b284,64aeaab685a29f4ca249be02,64bec985b6063346c30d9513,down,-1,0.4357,0.35,15,0,0.3605,,,,,,270,0,270,0,1,,,,,
,,288968,001,2023-07-24_19h57.50.595,arm3_q,2022.2.5,Win32,74.95128167,60e5ccdf4263ab147e71b284,64aeaab685a29f4ca249be02,64bec985b6063346c30d9513,right,-1,0.4357,0.35,15,-0.02423828,0.6645,,,,,,271,0,271,0,1,,,,,
,,288968,001,2023-07-24_19h57.50.595,arm3_q,2022.2.5,Win32,74.95128167,60e5ccdf4263ab147e71b284,64aeaab685a29f4ca249be02,64bec985b6063346c30d9513,right,-1,0.4357,0.35,15,-0.0592935,0.1938,,,,,,272,0,272,0,1,,,,,
,,288968,001,2023-07-24_19h57.50.595,arm3_q,2022.2.5,Win32,74.95128167,60e5ccdf4263ab147e71b284,64aeaab685a29f4ca249be02,64bec985b6063346c30d9513,right,-1,0.4357,0.35,15,-0.076528401,0.1728,,,,,,273,0,273,0,1,,,,,
,,288968,001,2023-07-24_19h57.50.595,arm3_q,2022.2.5,Win32,74.95128167,60e5ccdf4263ab147e71b284,64aeaab685a29f4ca249be02,64bec985b6063346c30d9513,right,-1,0.4357,0.35,15,-0.078900751,0.1601,,,,,,274,0,274,0,1,,,,,
,,288968,001,2023-07-24_19h57.50.595,arm3_q,2022.2.5,Win32,74.95128167,60e5ccdf4263ab147e71b284,64aeaab685a29f4ca249be02,64bec985b6063346c30d9513,right,-1,0.4357,0.35,15,-0.089896468,0.2969,,,,,,275,0,275,0,1,,,,,
,,288968,001,2023-07-24_19h57.50.595,arm3_q,2022.2.5,Win32,74.95128167,60e5ccdf4263ab147e71b284,64aeaab685a29f4ca249be02,64bec985b6063346c30d9513,down,-1,0.4357,0.35,15,0,0.3203,,,,,,276,0,276,0,1,,,,,
,,288968,001,2023-07-24_19h57.50.595,arm3_q,2022.2.5,Win32,74.95128167,60e5ccdf4263ab147e71b284,64aeaab685a29f4ca249be02,64bec985b6063346c30d9513,right,-1,0.4357,0.35,15,0.008795155,0.4,,,,,,277,0,277,0,1,,,,,
,,288968,001,2023-07-24_19h57.50.595,arm3_q,2022.2.5,Win32,74.95128167,60e5ccdf4263ab147e71b284,64aeaab685a29f4ca249be02,64bec985b6063346c30d9513,right,-1,0.4357,0.35,15,-0.037576183,0.1605,,,,,,278,0,278,0,1,,,,,
,,288968,001,2023-07-24_19h57.50.595,arm3_q,2022.2.5,Win32,74.95128167,60e5ccdf4263ab147e71b284,64aeaab685a29f4ca249be02,64bec985b6063346c30d9513,right,-1,0.4357,0.35,15,-0.014443982,0.1484,,,,,,279,0,279,0,1,,,,,
,,288968,001,2023-07-24_19h57.50.595,arm3_q,2022.2.5,Win32,74.95128167,60e5ccdf4263ab147e71b284,64aeaab685a29f4ca249be02,64bec985b6063346c30d9513,right,-1,0.4357,0.35,15,-0.021812842,0.3455,,,,,,280,0,280,0,1,,,,,
,,288968,001,2023-07-24_19h57.50.595,arm3_q,2022.2.5,Win32,74.95128167,60e5ccdf4263ab147e71b284,64aeaab685a29f4ca249be02,64bec985b6063346c30d9513,right,-1,0.4357,0.35,15,-0.036255279,0.1742,,,,,,281,0,281,0,1,,,,,
,,288968,001,2023-07-24_19h57.50.595,arm3_q,2022.2.5,Win32,74.95128167,60e5ccdf4263ab147e71b284,64aeaab685a29f4ca249be02,64bec985b6063346c30d9513,right,-1,0.4357,0.35,15,-0.076859315,0.1602,,,,,,282,0,282,0,1,,,,,
,,288968,001,2023-07-24_19h57.50.595,arm3_q,2022.2.5,Win32,74.95128167,60e5ccdf4263ab147e71b284,64aeaab685a29f4ca249be02,64bec985b6063346c30d9513,right,-1,0.4357,0.35,15,-0.065208975,0.1739,,,,,,283,0,283,0,1,,,,,
,,288968,001,2023-07-24_19h57.50.595,arm3_q,2022.2.5,Win32,74.95128167,60e5ccdf4263ab147e71b284,64aeaab685a29f4ca249be02,64bec985b6063346c30d9513,down,-1,0.4357,0.35,16,0,0.3632,,,,,,284,0,284,0,1,,,,,
,,288968,001,2023-07-24_19h57.50.595,arm3_q,2022.2.5,Win32,74.95128167,60e5ccdf4263ab147e71b284,64aeaab685a29f4ca249be02,64bec985b6063346c30d9513,right,-1,0.4357,0.35,16,0.016791277,0.4113,,,,,,285,0,285,0,1,,,,,
,,288968,001,2023-07-24_19h57.50.595,arm3_q,2022.2.5,Win32,74.95128167,60e5ccdf4263ab147e71b284,64aeaab685a29f4ca249be02,64bec985b6063346c30d9513,right,-1,0.4357,0.35,16,-0.000456664,0.1538,,,,,,286,0,286,0,1,,,,,
,,288968,001,2023-07-24_19h57.50.595,arm3_q,2022.2.5,Win32,74.95128167,60e5ccdf4263ab147e71b284,64aeaab685a29f4ca249be02,64bec985b6063346c30d9513,right,-1,0.4357,0.35,16,-0.01660432,0.1617,,,,,,287,0,287,0,1,,,,,
,,288968,001,2023-07-24_19h57.50.595,arm3_q,2022.2.5,Win32,74.95128167,60e5ccdf4263ab147e71b284,64aeaab685a29f4ca249be02,64bec985b6063346c30d9513,right,-1,0.4357,0.35,16,-0.010658191,0.166,,,,,,288,0,288,0,1,,,,,
,,288968,001,2023-07-24_19h57.50.595,arm3_q,2022.2.5,Win32,74.95128167,60e5ccdf4263ab147e71b284,64aeaab685a29f4ca249be02,64bec985b6063346c30d9513,right,-1,0.4357,0.35,16,-0.017611436,0.1737,,,,,,289,0,289,0,1,,,,,
,,288968,001,2023-07-24_19h57.50.595,arm3_q,2022.2.5,Win32,74.95128167,60e5ccdf4263ab147e71b284,64aeaab685a29f4ca249be02,64bec985b6063346c30d9513,right,-1,0.4357,0.35,16,-0.025321307,0.1469,,,,,,290,0,290,0,1,,,,,
,,288968,001,2023-07-24_19h57.50.595,arm3_q,2022.2.5,Win32,74.95128167,60e5ccdf4263ab147e71b284,64aeaab685a29f4ca249be02,64bec985b6063346c30d9513,right,-1,0.4357,0.35,16,-0.050116121,0.16,,,,,,291,0,291,0,1,,,,,
,,288968,001,2023-07-24_19h57.50.595,arm3_q,2022.2.5,Win32,74.95128167,60e5ccdf4263ab147e71b284,64aeaab685a29f4ca249be02,64bec985b6063346c30d9513,right,-1,0.4357,0.35,16,-0.092710136,0.1563,,,,,,292,0,292,0,1,,,,,
,,288968,001,2023-07-24_19h57.50.595,arm3_q,2022.2.5,Win32,74.95128167,60e5ccdf4263ab147e71b284,64aeaab685a29f4ca249be02,64bec985b6063346c30d9513,right,-1,0.4357,0.35,16,-0.115424106,0.1792,,,,,,293,0,293,0,1,,,,,
,,288968,001,2023-07-24_19h57.50.595,arm3_q,2022.2.5,Win32,74.95128167,60e5ccdf4263ab147e71b284,64aeaab685a29f4ca249be02,64bec985b6063346c30d9513,down,-1,0.4357,0.35,16,0,0.3759,,,,,,294,0,294,0,1,,,,,
,,288968,001,2023-07-24_19h57.50.595,arm3_q,2022.2.5,Win32,74.95128167,60e5ccdf4263ab147e71b284,64aeaab685a29f4ca249be02,64bec985b6063346c30d9513,right,-1,0.4357,0.35,16,-0.006983604,0.4782,,,,,,295,0,295,0,1,,,,,
,,288968,001,2023-07-24_19h57.50.595,arm3_q,2022.2.5,Win32,74.95128167,60e5ccdf4263ab147e71b284,64aeaab685a29f4ca249be02,64bec985b6063346c30d9513,right,-1,0.4357,0.35,16,-0.017411834,0.1605,,,,,,296,0,296,0,1,,,,,
,,288968,001,2023-07-24_19h57.50.595,arm3_q,2022.2.5,Win32,74.95128167,60e5ccdf4263ab147e71b284,64aeaab685a29f4ca249be02,64bec985b6063346c30d9513,right,-1,0.4357,0.35,16,-0.031273549,0.3386,,,,,,297,0,297,0,1,,,,,
,,288968,001,2023-07-24_19h57.50.595,arm3_q,2022.2.5,Win32,74.95128167,60e5ccdf4263ab147e71b284,64aeaab685a29f4ca249be02,64bec985b6063346c30d9513,right,-1,0.4357,0.35,16,-0.041423721,0.2273,,,,,,298,0,298,0,1,,,,,
,,288968,001,2023-07-24_19h57.50.595,arm3_q,2022.2.5,Win32,74.95128167,60e5ccdf4263ab147e71b284,64aeaab685a29f4ca249be02,64bec985b6063346c30d9513,right,-1,0.4357,0.35,16,-0.035771712,0.1739,,,,,,299,0,299,0,1,,,,,
,,288968,001,2023-07-24_19h57.50.595,arm3_q,2022.2.5,Win32,74.95128167,60e5ccdf4263ab147e71b284,64aeaab685a29f4ca249be02,64bec985b6063346c30d9513,right,-1,0.4357,0.35,16,-0.011921183,0.1643,,,,,,300,0,300,0,1,,,,,
,,288968,001,2023-07-24_19h57.50.595,arm3_q,2022.2.5,Win32,74.95128167,60e5ccdf4263ab147e71b284,64aeaab685a29f4ca249be02,64bec985b6063346c30d9513,right,-1,0.4357,0.35,16,-0.043094621,0.2004,,,,,,301,0,301,0,1,,,,,
,,288968,001,2023-07-24_19h57.50.595,arm3_q,2022.2.5,Win32,74.95128167,60e5ccdf4263ab147e71b284,64aeaab685a29f4ca249be02,64bec985b6063346c30d9513,right,-1,0.4357,0.35,16,-0.066939774,0.2403,,,,,,302,0,302,0,1,,,,,
,,288968,001,2023-07-24_19h57.50.595,arm3_q,2022.2.5,Win32,74.95128167,60e5ccdf4263ab147e71b284,64aeaab685a29f4ca249be02,64bec985b6063346c30d9513,right,-1,0.4357,0.35,16,-0.043132707,0.3483,,,,,,303,0,303,0,1,,,,,
,,288968,001,2023-07-24_19h57.50.595,arm3_q,2022.2.5,Win32,74.95128167,60e5ccdf4263ab147e71b284,64aeaab685a29f4ca249be02,64bec985b6063346c30d9513,right,-1,0.4357,0.35,16,-0.023964889,0.4806,,,,,,304,0,304,0,1,,,,,
,,288968,001,2023-07-24_19h57.50.595,arm3_q,2022.2.5,Win32,74.95128167,60e5ccdf4263ab147e71b284,64aeaab685a29f4ca249be02,64bec985b6063346c30d9513,right,-1,0.4357,0.35,16,-0.034430089,0.1511,,,,,,305,0,305,0,1,,,,,
,,288968,001,2023-07-24_19h57.50.595,arm3_q,2022.2.5,Win32,74.95128167,60e5ccdf4263ab147e71b284,64aeaab685a29f4ca249be02,64bec985b6063346c30d9513,right,-1,0.4357,0.35,16,-0.037208812,0.3911,,,,,,306,0,306,0,1,,,,,
,,288968,001,2023-07-24_19h57.50.595,arm3_q,2022.2.5,Win32,74.95128167,60e5ccdf4263ab147e71b284,64aeaab685a29f4ca249be02,64bec985b6063346c30d9513,down,-1,0.4357,0.35,16,0,0.4141,,,,,,307,0,307,0,1,,,,,
,,288968,001,2023-07-24_19h57.50.595,arm3_q,2022.2.5,Win32,74.95128167,60e5ccdf4263ab147e71b284,64aeaab685a29f4ca249be02,64bec985b6063346c30d9513,right,-1,0.4357,0.35,16,-0.003502684,0.444,,,,,,308,0,308,0,1,,,,,
,,288968,001,2023-07-24_19h57.50.595,arm3_q,2022.2.5,Win32,74.95128167,60e5ccdf4263ab147e71b284,64aeaab685a29f4ca249be02,64bec985b6063346c30d9513,right,-1,0.4357,0.35,16,-0.01420117,0.2405,,,,,,309,0,309,0,1,,,,,
,,288968,001,2023-07-24_19h57.50.595,arm3_q,2022.2.5,Win32,74.95128167,60e5ccdf4263ab147e71b284,64aeaab685a29f4ca249be02,64bec985b6063346c30d9513,right,-1,0.4357,0.35,16,-0.029512333,0.1532,,,,,,310,0,310,0,1,,,,,
,,288968,001,2023-07-24_19h57.50.595,arm3_q,2022.2.5,Win32,74.95128167,60e5ccdf4263ab147e71b284,64aeaab685a29f4ca249be02,64bec985b6063346c30d9513,right,-1,0.4357,0.35,16,-0.022232483,0.1369,,,,,,311,0,311,0,1,,,,,
,,288968,001,2023-07-24_19h57.50.595,arm3_q,2022.2.5,Win32,74.95128167,60e5ccdf4263ab147e71b284,64aeaab685a29f4ca249be02,64bec985b6063346c30d9513,right,-1,0.4357,0.35,16,-0.020810148,0.1664,,,,,,312,0,312,0,1,,,,,
,,288968,001,2023-07-24_19h57.50.595,arm3_q,2022.2.5,Win32,74.95128167,60e5ccdf4263ab147e71b284,64aeaab685a29f4ca249be02,64bec985b6063346c30d9513,down,-1,0.4357,0.35,17,0,0.7769,,,,,,313,0,313,0,1,,,,,
,,288968,001,2023-07-24_19h57.50.595,arm3_q,2022.2.5,Win32,74.95128167,60e5ccdf4263ab147e71b284,64aeaab685a29f4ca249be02,64bec985b6063346c30d9513,right,-1,0.4357,0.35,17,-0.039765285,0.4978,,,,,,314,0,314,0,1,,,,,
,,288968,001,2023-07-24_19h57.50.595,arm3_q,2022.2.5,Win32,74.95128167,60e5ccdf4263ab147e71b284,64aeaab685a29f4ca249be02,64bec985b6063346c30d9513,right,-1,0.4357,0.35,17,-0.039222621,0.1602,,,,,,315,0,315,0,1,,,,,
,,288968,001,2023-07-24_19h57.50.595,arm3_q,2022.2.5,Win32,74.95128167,60e5ccdf4263ab147e71b284,64aeaab685a29f4ca249be02,64bec985b6063346c30d9513,right,-1,0.4357,0.35,17,-0.038606707,0.1653,,,,,,316,0,316,0,1,,,,,
,,288968,001,2023-07-24_19h57.50.595,arm3_q,2022.2.5,Win32,74.95128167,60e5ccdf4263ab147e71b284,64aeaab685a29f4ca249be02,64bec985b6063346c30d9513,right,-1,0.4357,0.35,17,-0.086180851,0.1604,,,,,,317,0,317,0,1,,,,,
,,288968,001,2023-07-24_19h57.50.595,arm3_q,2022.2.5,Win32,74.95128167,60e5ccdf4263ab147e71b284,64aeaab685a29f4ca249be02,64bec985b6063346c30d9513,right,-1,0.4357,0.35,17,-0.076310846,0.1629,,,,,,318,0,318,0,1,,,,,
,,288968,001,2023-07-24_19h57.50.595,arm3_q,2022.2.5,Win32,74.95128167,60e5ccdf4263ab147e71b284,64aeaab685a29f4ca249be02,64bec985b6063346c30d9513,right,-1,0.4357,0.35,17,-0.10811045,0.1469,,,,,,319,0,319,0,1,,,,,
,,288968,001,2023-07-24_19h57.50.595,arm3_q,2022.2.5,Win32,74.95128167,60e5ccdf4263ab147e71b284,64aeaab685a29f4ca249be02,64bec985b6063346c30d9513,down,1,0.4357,0.35,17,0,0.3336,,,,,,320,0,320,0,1,,,,,
,,288968,001,2023-07-24_19h57.50.595,arm3_q,2022.2.5,Win32,74.95128167,60e5ccdf4263ab147e71b284,64aeaab685a29f4ca249be02,64bec985b6063346c30d9513,right,1,0.4357,0.35,17,0.008329688,0.3608,,,,,,321,0,321,0,1,,,,,
,,288968,001,2023-07-24_19h57.50.595,arm3_q,2022.2.5,Win32,74.95128167,60e5ccdf4263ab147e71b284,64aeaab685a29f4ca249be02,64bec985b6063346c30d9513,right,1,0.4357,0.35,17,-0.001314423,0.1605,,,,,,322,0,322,0,1,,,,,
,,288968,001,2023-07-24_19h57.50.595,arm3_q,2022.2.5,Win32,74.95128167,60e5ccdf4263ab147e71b284,64aeaab685a29f4ca249be02,64bec985b6063346c30d9513,right,1,0.4357,0.35,17,-0.01400935,0.1761,,,,,,323,0,323,0,1,,,,,
,,288968,001,2023-07-24_19h57.50.595,arm3_q,2022.2.5,Win32,74.95128167,60e5ccdf4263ab147e71b284,64aeaab685a29f4ca249be02,64bec985b6063346c30d9513,right,1,0.4357,0.35,17,-0.022846165,0.1487,,,,,,324,0,324,0,1,,,,,
,,288968,001,2023-07-24_19h57.50.595,arm3_q,2022.2.5,Win32,74.95128167,60e5ccdf4263ab147e71b284,64aeaab685a29f4ca249be02,64bec985b6063346c30d9513,right,1,0.4357,0.35,17,-0.058946737,0.1736,,,,,,325,0,325,0,1,,,,,
,,288968,001,2023-07-24_19h57.50.595,arm3_q,2022.2.5,Win32,74.95128167,60e5ccdf4263ab147e71b284,64aeaab685a29f4ca249be02,64bec985b6063346c30d9513,right,1,0.4357,0.35,17,-0.037343848,0.2003,,,,,,326,0,326,0,1,,,,,
,,288968,001,2023-07-24_19h57.50.595,arm3_q,2022.2.5,Win32,74.95128167,60e5ccdf4263ab147e71b284,64aeaab685a29f4ca249be02,64bec985b6063346c30d9513,right,1,0.4357,0.35,17,-0.064919813,0.134,,,,,,327,0,327,0,1,,,,,
,,288968,001,2023-07-24_19h57.50.595,arm3_q,2022.2.5,Win32,74.95128167,60e5ccdf4263ab147e71b284,64aeaab685a29f4ca249be02,64bec985b6063346c30d9513,down,1,0.4357,0.35,16,0,0.3221,,,,,,328,0,328,0,1,,,,,
,,288968,001,2023-07-24_19h57.50.595,arm3_q,2022.2.5,Win32,74.95128167,60e5ccdf4263ab147e71b284,64aeaab685a29f4ca249be02,64bec985b6063346c30d9513,right,1,0.4357,0.35,16,0.001530395,0.3613,,,,,,329,0,329,0,1,,,,,
,,288968,001,2023-07-24_19h57.50.595,arm3_q,2022.2.5,Win32,74.95128167,60e5ccdf4263ab147e71b284,64aeaab685a29f4ca249be02,64bec985b6063346c30d9513,right,1,0.4357,0.35,16,0.010109919,0.2937,,,,,,330,0,330,0,1,,,,,
,,288968,001,2023-07-24_19h57.50.595,arm3_q,2022.2.5,Win32,74.95128167,60e5ccdf4263ab147e71b284,64aeaab685a29f4ca249be02,64bec985b6063346c30d9513,right,1,0.4357,0.35,16,0.048692929,0.1485,,,,,,331,0,331,0,1,,,,,
,,288968,001,2023-07-24_19h57.50.595,arm3_q,2022.2.5,Win32,74.95128167,60e5ccdf4263ab147e71b284,64aeaab685a29f4ca249be02,64bec985b6063346c30d9513,right,1,0.4357,0.35,16,0.041814552,0.1604,,,,,,332,0,332,0,1,,,,,
,,288968,001,2023-07-24_19h57.50.595,arm3_q,2022.2.5,Win32,74.95128167,60e5ccdf4263ab147e71b284,64aeaab685a29f4ca249be02,64bec985b6063346c30d9513,right,1,0.4357,0.35,16,0.080501416,0.3341,,,,,,333,0,333,0,1,,,,,
,,288968,001,2023-07-24_19h57.50.595,arm3_q,2022.2.5,Win32,74.95128167,60e5ccdf4263ab147e71b284,64aeaab685a29f4ca249be02,64bec985b6063346c30d9513,right,1,0.4357,0.35,16,0.08127162,0.1736,,,,,,334,0,334,0,1,,,,,
,,288968,001,2023-07-24_19h57.50.595,arm3_q,2022.2.5,Win32,74.95128167,60e5ccdf4263ab147e71b284,64aeaab685a29f4ca249be02,64bec985b6063346c30d9513,right,1,0.4357,0.35,16,0.075850794,0.2573,,,,,,335,0,335,0,1,,,,,
,,288968,001,2023-07-24_19h57.50.595,arm3_q,2022.2.5,Win32,74.95128167,60e5ccdf4263ab147e71b284,64aeaab685a29f4ca249be02,64bec985b6063346c30d9513,up,-1,0.4357,0.35,16,0,0.4005,,,,,,336,0,336,0,1,,,,,
,,288968,001,2023-07-24_19h57.50.595,arm3_q,2022.2.5,Win32,74.95128167,60e5ccdf4263ab147e71b284,64aeaab685a29f4ca249be02,64bec985b6063346c30d9513,right,-1,0.4357,0.35,16,-0.011528122,0.3588,,,,,,337,0,337,0,1,,,,,
,,288968,001,2023-07-24_19h57.50.595,arm3_q,2022.2.5,Win32,74.95128167,60e5ccdf4263ab147e71b284,64aeaab685a29f4ca249be02,64bec985b6063346c30d9513,right,-1,0.4357,0.35,16,-0.005850591,0.1636,,,,,,338,0,338,0,1,,,,,
,,288968,001,2023-07-24_19h57.50.595,arm3_q,2022.2.5,Win32,74.95128167,60e5ccdf4263ab147e71b284,64aeaab685a29f4ca249be02,64bec985b6063346c30d9513,right,-1,0.4357,0.35,16,-0.011371402,0.1603,,,,,,339,0,339,0,1,,,,,
,,288968,001,2023-07-24_19h57.50.595,arm3_q,2022.2.5,Win32,74.95128167,60e5ccdf4263ab147e71b284,64aeaab685a29f4ca249be02,64bec985b6063346c30d9513,right,-1,0.4357,0.35,16,-0.000430754,0.147,,,,,,340,0,340,0,1,,,,,
,,288968,001,2023-07-24_19h57.50.595,arm3_q,2022.2.5,Win32,74.95128167,60e5ccdf4263ab147e71b284,64aeaab685a29f4ca249be02,64bec985b6063346c30d9513,right,-1,0.4357,0.35,16,-0.02901816,0.1683,,,,,,341,0,341,0,1,,,,,
,,288968,001,2023-07-24_19h57.50.595,arm3_q,2022.2.5,Win32,74.95128167,60e5ccdf4263ab147e71b284,64aeaab685a29f4ca249be02,64bec985b6063346c30d9513,right,-1,0.4357,0.35,16,-0.043429627,0.1726,,,,,,342,0,342,0,1,,,,,
,,288968,001,2023-07-24_19h57.50.595,arm3_q,2022.2.5,Win32,74.95128167,60e5ccdf4263ab147e71b284,64aeaab685a29f4ca249be02,64bec985b6063346c30d9513,right,-1,0.4357,0.35,16,-0.048020517,0.1766,,,,,,343,0,343,0,1,,,,,
,,288968,001,2023-07-24_19h57.50.595,arm3_q,2022.2.5,Win32,74.95128167,60e5ccdf4263ab147e71b284,64aeaab685a29f4ca249be02,64bec985b6063346c30d9513,right,-1,0.4357,0.35,16,-0.032234312,0.1897,,,,,,344,0,344,0,1,,,,,
,,288968,001,2023-07-24_19h57.50.595,arm3_q,2022.2.5,Win32,74.95128167,60e5ccdf4263ab147e71b284,64aeaab685a29f4ca249be02,64bec985b6063346c30d9513,down,-1,0.4357,0.35,16,0,0.3094,,,,,,345,0,345,0,1,,,,,
,,288968,001,2023-07-24_19h57.50.595,arm3_q,2022.2.5,Win32,74.95128167,60e5ccdf4263ab147e71b284,64aeaab685a29f4ca249be02,64bec985b6063346c30d9513,right,-1,0.4357,0.35,16,-0.000701929,0.4218,,,,,,346,0,346,0,1,,,,,
,,288968,001,2023-07-24_19h57.50.595,arm3_q,2022.2.5,Win32,74.95128167,60e5ccdf4263ab147e71b284,64aeaab685a29f4ca249be02,64bec985b6063346c30d9513,right,-1,0.4357,0.35,16,-0.006249252,0.1779,,,,,,347,0,347,0,1,,,,,
,,288968,001,2023-07-24_19h57.50.595,arm3_q,2022.2.5,Win32,74.95128167,60e5ccdf4263ab147e71b284,64aeaab685a29f4ca249be02,64bec985b6063346c30d9513,right,-1,0.4357,0.35,16,-0.020904601,0.1605,,,,,,348,0,348,0,1,,,,,
,,288968,001,2023-07-24_19h57.50.595,arm3_q,2022.2.5,Win32,74.95128167,60e5ccdf4263ab147e71b284,64aeaab685a29f4ca249be02,64bec985b6063346c30d9513,right,-1,0.4357,0.35,16,-0.058938769,0.1737,,,,,,349,0,349,0,1,,,,,
,,288968,001,2023-07-24_19h57.50.595,arm3_q,2022.2.5,Win32,74.95128167,60e5ccdf4263ab147e71b284,64aeaab685a29f4ca249be02,64bec985b6063346c30d9513,right,-1,0.4357,0.35,16,-0.041215868,0.1518,,,,,,350,0,350,0,1,,,,,
,,288968,001,2023-07-24_19h57.50.595,arm3_q,2022.2.5,Win32,74.95128167,60e5ccdf4263ab147e71b284,64aeaab685a29f4ca249be02,64bec985b6063346c30d9513,right,-1,0.4357,0.35,16,-0.034394853,0.667,,,,,,351,0,351,0,1,,,,,
,,288968,001,2023-07-24_19h57.50.595,arm3_q,2022.2.5,Win32,74.95128167,60e5ccdf4263ab147e71b284,64aeaab685a29f4ca249be02,64bec985b6063346c30d9513,right,-1,0.4357,0.35,16,-0.035430425,0.4406,,,,,,352,0,352,0,1,,,,,
,,288968,001,2023-07-24_19h57.50.595,arm3_q,2022.2.5,Win32,74.95128167,60e5ccdf4263ab147e71b284,64aeaab685a29f4ca249be02,64bec985b6063346c30d9513,up,1,0.4357,0.35,16,0,0.3736,,,,,,353,0,353,0,1,,,,,
,,288968,001,2023-07-24_19h57.50.595,arm3_q,2022.2.5,Win32,74.95128167,60e5ccdf4263ab147e71b284,64aeaab685a29f4ca249be02,64bec985b6063346c30d9513,right,1,0.4357,0.35,16,0.020682697,0.4699,,,,,,354,0,354,0,1,,,,,
,,288968,001,2023-07-24_19h57.50.595,arm3_q,2022.2.5,Win32,74.95128167,60e5ccdf4263ab147e71b284,64aeaab685a29f4ca249be02,64bec985b6063346c30d9513,right,1,0.4357,0.35,16,0.019885213,0.1462,,,,,,355,0,355,0,1,,,,,
,,288968,001,2023-07-24_19h57.50.595,arm3_q,2022.2.5,Win32,74.95128167,60e5ccdf4263ab147e71b284,64aeaab685a29f4ca249be02,64bec985b6063346c30d9513,right,1,0.4357,0.35,16,0.044387185,0.1505,,,,,,356,0,356,0,1,,,,,
,,288968,001,2023-07-24_19h57.50.595,arm3_q,2022.2.5,Win32,74.95128167,60e5ccdf4263ab147e71b284,64aeaab685a29f4ca249be02,64bec985b6063346c30d9513,right,1,0.4357,0.35,16,0.046945918,0.1501,,,,,,357,0,357,0,1,,,,,
,,288968,001,2023-07-24_19h57.50.595,arm3_q,2022.2.5,Win32,74.95128167,60e5ccdf4263ab147e71b284,64aeaab685a29f4ca249be02,64bec985b6063346c30d9513,right,1,0.4357,0.35,16,0.062665641,0.166,,,,,,358,0,358,0,1,,,,,
,,288968,001,2023-07-24_19h57.50.595,arm3_q,2022.2.5,Win32,74.95128167,60e5ccdf4263ab147e71b284,64aeaab685a29f4ca249be02,64bec985b6063346c30d9513,right,1,0.4357,0.35,16,0.065103103,0.1738,,,,,,359,0,359,0,1,,,,,
,,288968,001,2023-07-24_19h57.50.595,arm3_q,2022.2.5,Win32,74.95128167,60e5ccdf4263ab147e71b284,64aeaab685a29f4ca249be02,64bec985b6063346c30d9513,right,1,0.4357,0.35,16,0.058892186,0.1601,,,,,,360,0,360,0,1,,,,,
,,288968,001,2023-07-24_19h57.50.595,arm3_q,2022.2.5,Win32,74.95128167,60e5ccdf4263ab147e71b284,64aeaab685a29f4ca249be02,64bec985b6063346c30d9513,up,1,0.4357,0.35,16,0,0.2671,,,,,,361,0,361,0,1,,,,,
,,288968,001,2023-07-24_19h57.50.595,arm3_q,2022.2.5,Win32,74.95128167,60e5ccdf4263ab147e71b284,64aeaab685a29f4ca249be02,64bec985b6063346c30d9513,right,1,0.4357,0.35,16,0.008056075,0.4174,,,,,,362,0,362,0,1,,,,,
,,288968,001,2023-07-24_19h57.50.595,arm3_q,2022.2.5,Win32,74.95128167,60e5ccdf4263ab147e71b284,64aeaab685a29f4ca249be02,64bec985b6063346c30d9513,right,1,0.4357,0.35,16,0.011589275,0.174,,,,,,363,0,363,0,1,,,,,
,,288968,001,2023-07-24_19h57.50.595,arm3_q,2022.2.5,Win32,74.95128167,60e5ccdf4263ab147e71b284,64aeaab685a29f4ca249be02,64bec985b6063346c30d9513,right,1,0.4357,0.35,16,0.026040022,0.4137,,,,,,364,0,364,0,1,,,,,
,,288968,001,2023-07-24_19h57.50.595,arm3_q,2022.2.5,Win32,74.95128167,60e5ccdf4263ab147e71b284,64aeaab685a29f4ca249be02,64bec985b6063346c30d9513,right,1,0.4357,0.35,16,0.036937774,0.1931,,,,,,365,0,365,0,1,,,,,
,,288968,001,2023-07-24_19h57.50.595,arm3_q,2022.2.5,Win32,74.95128167,60e5ccdf4263ab147e71b284,64aeaab685a29f4ca249be02,64bec985b6063346c30d9513,up,1,0.4357,0.35,16,0,0.577,,,,,,366,0,366,0,1,,,,,
,,288968,001,2023-07-24_19h57.50.595,arm3_q,2022.2.5,Win32,74.95128167,60e5ccdf4263ab147e71b284,64aeaab685a29f4ca249be02,64bec985b6063346c30d9513,right,1,0.4357,0.35,16,0.00809333,0.4925,,,,,,367,0,367,0,1,,,,,
,,288968,001,2023-07-24_19h57.50.595,arm3_q,2022.2.5,Win32,74.95128167,60e5ccdf4263ab147e71b284,64aeaab685a29f4ca249be02,64bec985b6063346c30d9513,right,1,0.4357,0.35,16,-0.022508735,0.194,,,,,,368,0,368,0,1,,,,,
,,288968,001,2023-07-24_19h57.50.595,arm3_q,2022.2.5,Win32,74.95128167,60e5ccdf4263ab147e71b284,64aeaab685a29f4ca249be02,64bec985b6063346c30d9513,right,1,0.4357,0.35,16,-0.014130838,0.6661,,,,,,369,0,369,0,1,,,,,
,,288968,001,2023-07-24_19h57.50.595,arm3_q,2022.2.5,Win32,74.95128167,60e5ccdf4263ab147e71b284,64aeaab685a29f4ca249be02,64bec985b6063346c30d9513,,,,,,,,,,,,,,,,,,0,0,0,0,1
space,4.9766,288968,001,2023-07-24_19h57.50.595,arm3_q,2022.2.5,Win32,74.95128167,60e5ccdf4263ab147e71b284,64aeaab685a29f4ca249be02,64bec985b6063346c30d9513,right,1,0.1786,0.35,16,0.022994679,1.4992,,,,,,0,0,0,0,1,,,,,
,,288968,001,2023-07-24_19h57.50.595,arm3_q,2022.2.5,Win32,74.95128167,60e5ccdf4263ab147e71b284,64aeaab685a29f4ca249be02,64bec985b6063346c30d9513,right,1,0.1786,0.35,16,0.047770297,0.7244,,,,,,1,0,1,0,1,,,,,
,,288968,001,2023-07-24_19h57.50.595,arm3_q,2022.2.5,Win32,74.95128167,60e5ccdf4263ab147e71b284,64aeaab685a29f4ca249be02,64bec985b6063346c30d9513,right,1,0.1786,0.35,16,0.042385392,0.4006,,,,,,2,0,2,0,1,,,,,
,,288968,001,2023-07-24_19h57.50.595,arm3_q,2022.2.5,Win32,74.95128167,60e5ccdf4263ab147e71b284,64aeaab685a29f4ca249be02,64bec985b6063346c30d9513,right,1,0.1786,0.35,16,0.062605473,0.2138,,,,,,3,0,3,0,1,,,,,
,,288968,001,2023-07-24_19h57.50.595,arm3_q,2022.2.5,Win32,74.95128167,60e5ccdf4263ab147e71b284,64aeaab685a29f4ca249be02,64bec985b6063346c30d9513,right,1,0.1786,0.35,16,0.066553984,0.1602,,,,,,4,0,4,0,1,,,,,
,,288968,001,2023-07-24_19h57.50.595,arm3_q,2022.2.5,Win32,74.95128167,60e5ccdf4263ab147e71b284,64aeaab685a29f4ca249be02,64bec985b6063346c30d9513,right,1,0.1786,0.35,16,0.085186113,0.1548,,,,,,5,0,5,0,1,,,,,
,,288968,001,2023-07-24_19h57.50.595,arm3_q,2022.2.5,Win32,74.95128167,60e5ccdf4263ab147e71b284,64aeaab685a29f4ca249be02,64bec985b6063346c30d9513,right,1,0.1786,0.35,16,0.106823017,0.1724,,,,,,6,0,6,0,1,,,,,
,,288968,001,2023-07-24_19h57.50.595,arm3_q,2022.2.5,Win32,74.95128167,60e5ccdf4263ab147e71b284,64aeaab685a29f4ca249be02,64bec985b6063346c30d9513,right,1,0.1786,0.35,16,0.134747697,0.1624,,,,,,7,0,7,0,1,,,,,
,,288968,001,2023-07-24_19h57.50.595,arm3_q,2022.2.5,Win32,74.95128167,60e5ccdf4263ab147e71b284,64aeaab685a29f4ca249be02,64bec985b6063346c30d9513,right,1,0.1786,0.35,16,0.13028485,0.1626,,,,,,8,0,8,0,1,,,,,
,,288968,001,2023-07-24_19h57.50.595,arm3_q,2022.2.5,Win32,74.95128167,60e5ccdf4263ab147e71b284,64aeaab685a29f4ca249be02,64bec985b6063346c30d9513,up,1,0.1786,0.35,16,0,0.4403,,,,,,9,0,9,0,1,,,,,
,,288968,001,2023-07-24_19h57.50.595,arm3_q,2022.2.5,Win32,74.95128167,60e5ccdf4263ab147e71b284,64aeaab685a29f4ca249be02,64bec985b6063346c30d9513,right,1,0.1786,0.35,16,-0.005748056,0.3846,,,,,,10,0,10,0,1,,,,,
,,288968,001,2023-07-24_19h57.50.595,arm3_q,2022.2.5,Win32,74.95128167,60e5ccdf4263ab147e71b284,64aeaab685a29f4ca249be02,64bec985b6063346c30d9513,right,1,0.1786,0.35,16,-0.02179146,0.1603,,,,,,11,0,11,0,1,,,,,
,,288968,001,2023-07-24_19h57.50.595,arm3_q,2022.2.5,Win32,74.95128167,60e5ccdf4263ab147e71b284,64aeaab685a29f4ca249be02,64bec985b6063346c30d9513,right,1,0.1786,0.35,16,-0.018275985,0.1605,,,,,,12,0,12,0,1,,,,,
,,288968,001,2023-07-24_19h57.50.595,arm3_q,2022.2.5,Win32,74.95128167,60e5ccdf4263ab147e71b284,64aeaab685a29f4ca249be02,64bec985b6063346c30d9513,right,1,0.1786,0.35,16,0.018840152,0.3339,,,,,,13,0,13,0,1,,,,,
,,288968,001,2023-07-24_19h57.50.595,arm3_q,2022.2.5,Win32,74.95128167,60e5ccdf4263ab147e71b284,64aeaab685a29f4ca249be02,64bec985b6063346c30d9513,right,1,0.1786,0.35,16,0.070434934,0.227,,,,,,14,0,14,0,1,,,,,
,,288968,001,2023-07-24_19h57.50.595,arm3_q,2022.2.5,Win32,74.95128167,60e5ccdf4263ab147e71b284,64aeaab685a29f4ca249be02,64bec985b6063346c30d9513,up,1,0.1786,0.35,16,0,0.3938,,,,,,15,0,15,0,1,,,,,
,,288968,001,2023-07-24_19h57.50.595,arm3_q,2022.2.5,Win32,74.95128167,60e5ccdf4263ab147e71b284,64aeaab685a29f4ca249be02,64bec985b6063346c30d9513,right,1,0.1786,0.35,16,0.010851534,0.3758,,,,,,16,0,16,0,1,,,,,
,,288968,001,2023-07-24_19h57.50.595,arm3_q,2022.2.5,Win32,74.95128167,60e5ccdf4263ab147e71b284,64aeaab685a29f4ca249be02,64bec985b6063346c30d9513,right,1,0.1786,0.35,16,0.048543045,0.214,,,,,,17,0,17,0,1,,,,,
,,288968,001,2023-07-24_19h57.50.595,arm3_q,2022.2.5,Win32,74.95128167,60e5ccdf4263ab147e71b284,64aeaab685a29f4ca249be02,64bec985b6063346c30d9513,right,1,0.1786,0.35,16,0.062985719,0.2038,,,,,,18,0,18,0,1,,,,,
,,288968,001,2023-07-24_19h57.50.595,arm3_q,2022.2.5,Win32,74.95128167,60e5ccdf4263ab147e71b284,64aeaab685a29f4ca249be02,64bec985b6063346c30d9513,right,1,0.1786,0.35,16,0.091523682,0.2937,,,,,,19,0,19,0,1,,,,,
,,288968,001,2023-07-24_19h57.50.595,arm3_q,2022.2.5,Win32,74.95128167,60e5ccdf4263ab147e71b284,64aeaab685a29f4ca249be02,64bec985b6063346c30d9513,up,-1,0.1786,0.35,17,0,0.2937,,,,,,20,0,20,0,1,,,,,
,,288968,001,2023-07-24_19h57.50.595,arm3_q,2022.2.5,Win32,74.95128167,60e5ccdf4263ab147e71b284,64aeaab685a29f4ca249be02,64bec985b6063346c30d9513,right,-1,0.1786,0.35,17,0.020928361,0.3497,,,,,,21,0,21,0,1,,,,,
,,288968,001,2023-07-24_19h57.50.595,arm3_q,2022.2.5,Win32,74.95128167,60e5ccdf4263ab147e71b284,64aeaab685a29f4ca249be02,64bec985b6063346c30d9513,right,-1,0.1786,0.35,17,0.024858585,0.2151,,,,,,22,0,22,0,1,,,,,
,,288968,001,2023-07-24_19h57.50.595,arm3_q,2022.2.5,Win32,74.95128167,60e5ccdf4263ab147e71b284,64aeaab685a29f4ca249be02,64bec985b6063346c30d9513,right,-1,0.1786,0.35,17,0.006909388,0.1643,,,,,,23,0,23,0,1,,,,,
,,288968,001,2023-07-24_19h57.50.595,arm3_q,2022.2.5,Win32,74.95128167,60e5ccdf4263ab147e71b284,64aeaab685a29f4ca249be02,64bec985b6063346c30d9513,right,-1,0.1786,0.35,17,0.006734174,0.1603,,,,,,24,0,24,0,1,,,,,
,,288968,001,2023-07-24_19h57.50.595,arm3_q,2022.2.5,Win32,74.95128167,60e5ccdf4263ab147e71b284,64aeaab685a29f4ca249be02,64bec985b6063346c30d9513,right,-1,0.1786,0.35,17,-0.000435858,0.1871,,,,,,25,0,25,0,1,,,,,
,,288968,001,2023-07-24_19h57.50.595,arm3_q,2022.2.5,Win32,74.95128167,60e5ccdf4263ab147e71b284,64aeaab685a29f4ca249be02,64bec985b6063346c30d9513,right,-1,0.1786,0.35,17,-0.013776793,0.1734,,,,,,26,0,26,0,1,,,,,
,,288968,001,2023-07-24_19h57.50.595,arm3_q,2022.2.5,Win32,74.95128167,60e5ccdf4263ab147e71b284,64aeaab685a29f4ca249be02,64bec985b6063346c30d9513,right,-1,0.1786,0.35,17,-0.032873427,0.2159,,,,,,27,0,27,0,1,,,,,
,,288968,001,2023-07-24_19h57.50.595,arm3_q,2022.2.5,Win32,74.95128167,60e5ccdf4263ab147e71b284,64aeaab685a29f4ca249be02,64bec985b6063346c30d9513,right,-1,0.1786,0.35,17,-0.026127416,1.0673,,,,,,28,0,28,0,1,,,,,
,,288968,001,2023-07-24_19h57.50.595,arm3_q,2022.2.5,Win32,74.95128167,60e5ccdf4263ab147e71b284,64aeaab685a29f4ca249be02,64bec985b6063346c30d9513,down,1,0.1786,0.35,17,0,0.3736,,,,,,29,0,29,0,1,,,,,
,,288968,001,2023-07-24_19h57.50.595,arm3_q,2022.2.5,Win32,74.95128167,60e5ccdf4263ab147e71b284,64aeaab685a29f4ca249be02,64bec985b6063346c30d9513,right,1,0.1786,0.35,17,0.029232856,0.4245,,,,,,30,0,30,0,1,,,,,
,,288968,001,2023-07-24_19h57.50.595,arm3_q,2022.2.5,Win32,74.95128167,60e5ccdf4263ab147e71b284,64aeaab685a29f4ca249be02,64bec985b6063346c30d9513,right,1,0.1786,0.35,17,0.0545071,0.1615,,,,,,31,0,31,0,1,,,,,
,,288968,001,2023-07-24_19h57.50.595,arm3_q,2022.2.5,Win32,74.95128167,60e5ccdf4263ab147e71b284,64aeaab685a29f4ca249be02,64bec985b6063346c30d9513,right,1,0.1786,0.35,17,0.0507253,0.1484,,,,,,32,0,32,0,1,,,,,
,,288968,001,2023-07-24_19h57.50.595,arm3_q,2022.2.5,Win32,74.95128167,60e5ccdf4263ab147e71b284,64aeaab685a29f4ca249be02,64bec985b6063346c30d9513,up,-1,0.1786,0.35,17,0,0.3736,,,,,,33,0,33,0,1,,,,,
,,288968,001,2023-07-24_19h57.50.595,arm3_q,2022.2.5,Win32,74.95128167,60e5ccdf4263ab147e71b284,64aeaab685a29f4ca249be02,64bec985b6063346c30d9513,right,-1,0.1786,0.35,17,0.004888856,0.3535,,,,,,34,0,34,0,1,,,,,
,,288968,001,2023-07-24_19h57.50.595,arm3_q,2022.2.5,Win32,74.95128167,60e5ccdf4263ab147e71b284,64aeaab685a29f4ca249be02,64bec985b6063346c30d9513,right,-1,0.1786,0.35,17,-0.03134692,0.1618,,,,,,35,0,35,0,1,,,,,
,,288968,001,2023-07-24_19h57.50.595,arm3_q,2022.2.5,Win32,74.95128167,60e5ccdf4263ab147e71b284,64aeaab685a29f4ca249be02,64bec985b6063346c30d9513,right,-1,0.1786,0.35,17,-0.037533885,0.1653,,,,,,36,0,36,0,1,,,,,
,,288968,001,2023-07-24_19h57.50.595,arm3_q,2022.2.5,Win32,74.95128167,60e5ccdf4263ab147e71b284,64aeaab685a29f4ca249be02,64bec985b6063346c30d9513,right,-1,0.1786,0.35,17,-0.072968622,0.328,,,,,,37,0,37,0,1,,,,,
,,288968,001,2023-07-24_19h57.50.595,arm3_q,2022.2.5,Win32,74.95128167,60e5ccdf4263ab147e71b284,64aeaab685a29f4ca249be02,64bec985b6063346c30d9513,down,1,0.1786,0.35,17,0,0.3472,,,,,,38,0,38,0,1,,,,,
,,288968,001,2023-07-24_19h57.50.595,arm3_q,2022.2.5,Win32,74.95128167,60e5ccdf4263ab147e71b284,64aeaab685a29f4ca249be02,64bec985b6063346c30d9513,right,1,0.1786,0.35,17,0.012604743,0.3768,,,,,,39,0,39,0,1,,,,,
,,288968,001,2023-07-24_19h57.50.595,arm3_q,2022.2.5,Win32,74.95128167,60e5ccdf4263ab147e71b284,64aeaab685a29f4ca249be02,64bec985b6063346c30d9513,right,1,0.1786,0.35,17,0.049813452,0.1606,,,,,,40,0,40,0,1,,,,,
,,288968,001,2023-07-24_19h57.50.595,arm3_q,2022.2.5,Win32,74.95128167,60e5ccdf4263ab147e71b284,64aeaab685a29f4ca249be02,64bec985b6063346c30d9513,right,1,0.1786,0.35,17,0.065834435,0.1469,,,,,,41,0,41,0,1,,,,,
,,288968,001,2023-07-24_19h57.50.595,arm3_q,2022.2.5,Win32,74.95128167,60e5ccdf4263ab147e71b284,64aeaab685a29f4ca249be02,64bec985b6063346c30d9513,right,1,0.1786,0.35,17,0.088818486,0.1933,,,,,,42,0,42,0,1,,,,,
,,288968,001,2023-07-24_19h57.50.595,arm3_q,2022.2.5,Win32,74.95128167,60e5ccdf4263ab147e71b284,64aeaab685a29f4ca249be02,64bec985b6063346c30d9513,up,-1,0.1786,0.35,17,0,0.3071,,,,,,43,0,43,0,1,,,,,
