space_bar.keys,space_bar.rt,participant,session,date,expName,psychopyVersion,OS,frameRate,PROLIFIC_PID,STUDY_ID,SESSION_ID,resp.keys,state,q_prob,eps_prob,score,price,resp.rt,train.thisRepN,train.thisTrialN,train.thisN,train.thisIndex,train.ran,steps.thisRepN,steps.thisTrialN,steps.thisN,steps.thisIndex,steps.ran,blocks.thisRepN,blocks.thisTrialN,blocks.thisN,blocks.thisIndex,blocks.ran
space,12.8055,318429,001,2023-07-24_20h59.20.773,arm3_q,2022.2.5,Win32,60.04202942,611d4891122d6413d83ffb29,64aeaab685a29f4ca249be02,64bec9b752ea42583ba6c31e,,,,,,,,,,,,,,,,,,,,,,
space,18.5606,318429,001,2023-07-24_20h59.20.773,arm3_q,2022.2.5,Win32,60.04202942,611d4891122d6413d83ffb29,64aeaab685a29f4ca249be02,64bec9b752ea42583ba6c31e,,,,,,,,,,,,,,,,,,,,,,
space,8.8323,318429,001,2023-07-24_20h59.20.773,arm3_q,2022.2.5,Win32,60.04202942,611d4891122d6413d83ffb29,64aeaab685a29f4ca249be02,64bec9b752ea42583ba6c31e,,,,,,,,,,,,,,,,,,,,,,
space,11.814,318429,001,2023-07-24_20h59.20.773,arm3_q,2022.2.5,Win32,60.04202942,611d4891122d6413d83ffb29,64aeaab685a29f4ca249be02,64bec9b752ea42583ba6c31e,,,,,,,,,,,,,,,,,,,,,,
space,24.278,318429,001,2023-07-24_20h59.20.773,arm3_q,2022.2.5,Win32,60.04202942,611d4891122d6413d83ffb29,64aeaab685a29f4ca249be02,64bec9b752ea42583ba6c31e,,,,,,,,,,,,,,,,,,,,,,
space,15.8294,318429,001,2023-07-24_20h59.20.773,arm3_q,2022.2.5,Win32,60.04202942,611d4891122d6413d83ffb29,64aeaab685a29f4ca249be02,64bec9b752ea42583ba6c31e,,,,,,,,,,,,,,,,,,,,,,
space,7.603,318429,001,2023-07-24_20h59.20.773,arm3_q,2022.2.5,Win32,60.04202942,611d4891122d6413d83ffb29,64aeaab685a29f4ca249be02,64bec9b752ea42583ba6c31e,,,,,,,,,,,,,,,,,,,,,,
space,2.9591,318429,001,2023-07-24_20h59.20.773,arm3_q,2022.2.5,Win32,60.04202942,611d4891122d6413d83ffb29,64aeaab685a29f4ca249be02,64bec9b752ea42583ba6c31e,,,,,,,,,,,,,,,,,,,,,,
space,11.6962,318429,001,2023-07-24_20h59.20.773,arm3_q,2022.2.5,Win32,60.04202942,611d4891122d6413d83ffb29,64aeaab685a29f4ca249be02,64bec9b752ea42583ba6c31e,,,,,,,,,,,,,,,,,,,,,,
space,6.3732,318429,001,2023-07-24_20h59.20.773,arm3_q,2022.2.5,Win32,60.04202942,611d4891122d6413d83ffb29,64aeaab685a29f4ca249be02,64bec9b752ea42583ba6c31e,,,,,,,,,,,,,,,,,,,,,,
,,318429,001,2023-07-24_20h59.20.773,arm3_q,2022.2.5,Win32,60.04202942,611d4891122d6413d83ffb29,64aeaab685a29f4ca249be02,64bec9b752ea42583ba6c31e,up,-1,0.5643,0.35,1,0,8.3582,0,0,0,0,1,,,,,,,,,,
,,318429,001,2023-07-24_20h59.20.773,arm3_q,2022.2.5,Win32,60.04202942,611d4891122d6413d83ffb29,64aeaab685a29f4ca249be02,64bec9b752ea42583ba6c31e,down,-1,0.5643,0.35,1,0,1.9715,1,0,1,0,1,,,,,,,,,,
,,318429,001,2023-07-24_20h59.20.773,arm3_q,2022.2.5,Win32,60.04202942,611d4891122d6413d83ffb29,64aeaab685a29f4ca249be02,64bec9b752ea42583ba6c31e,up,-1,0.5643,0.35,0,0,1.5219,2,0,2,0,1,,,,,,,,,,
,,318429,001,2023-07-24_20h59.20.773,arm3_q,2022.2.5,Win32,60.04202942,611d4891122d6413d83ffb29,64aeaab685a29f4ca249be02,64bec9b752ea42583ba6c31e,up,-1,0.5643,0.35,-1,0,1.3308,3,0,3,0,1,,,,,,,,,,
,,318429,001,2023-07-24_20h59.20.773,arm3_q,2022.2.5,Win32,60.04202942,611d4891122d6413d83ffb29,64aeaab685a29f4ca249be02,64bec9b752ea42583ba6c31e,right,-1,0.5643,0.35,-1,-0.007193758,2.1645,4,0,4,0,1,,,,,,,,,,
,,318429,001,2023-07-24_20h59.20.773,arm3_q,2022.2.5,Win32,60.04202942,611d4891122d6413d83ffb29,64aeaab685a29f4ca249be02,64bec9b752ea42583ba6c31e,up,1,0.5643,0.35,-1,0,2.1172,5,0,5,0,1,,,,,,,,,,
,,318429,001,2023-07-24_20h59.20.773,arm3_q,2022.2.5,Win32,60.04202942,611d4891122d6413d83ffb29,64aeaab685a29f4ca249be02,64bec9b752ea42583ba6c31e,right,1,0.5643,0.35,-1,0.024023299,2.8421,6,0,6,0,1,,,,,,,,,,
,,318429,001,2023-07-24_20h59.20.773,arm3_q,2022.2.5,Win32,60.04202942,611d4891122d6413d83ffb29,64aeaab685a29f4ca249be02,64bec9b752ea42583ba6c31e,up,1,0.5643,0.35,0,0,1.5126,7,0,7,0,1,,,,,,,,,,
,,318429,001,2023-07-24_20h59.20.773,arm3_q,2022.2.5,Win32,60.04202942,611d4891122d6413d83ffb29,64aeaab685a29f4ca249be02,64bec9b752ea42583ba6c31e,right,1,0.5643,0.35,0,0.030120826,1.6759,8,0,8,0,1,,,,,,,,,,
,,318429,001,2023-07-24_20h59.20.773,arm3_q,2022.2.5,Win32,60.04202942,611d4891122d6413d83ffb29,64aeaab685a29f4ca249be02,64bec9b752ea42583ba6c31e,right,1,0.5643,0.35,0,0.032028761,0.8592,9,0,9,0,1,,,,,,,,,,
,,318429,001,2023-07-24_20h59.20.773,arm3_q,2022.2.5,Win32,60.04202942,611d4891122d6413d83ffb29,64aeaab685a29f4ca249be02,64bec9b752ea42583ba6c31e,up,1,0.5643,0.35,0,0,1.9125,10,0,10,0,1,,,,,,,,,,
,,318429,001,2023-07-24_20h59.20.773,arm3_q,2022.2.5,Win32,60.04202942,611d4891122d6413d83ffb29,64aeaab685a29f4ca249be02,64bec9b752ea42583ba6c31e,up,1,0.5643,0.35,1,0,1.9803,11,0,11,0,1,,,,,,,,,,
,,318429,001,2023-07-24_20h59.20.773,arm3_q,2022.2.5,Win32,60.04202942,611d4891122d6413d83ffb29,64aeaab685a29f4ca249be02,64bec9b752ea42583ba6c31e,down,1,0.5643,0.35,0,0,1.7421,12,0,12,0,1,,,,,,,,,,
,,318429,001,2023-07-24_20h59.20.773,arm3_q,2022.2.5,Win32,60.04202942,611d4891122d6413d83ffb29,64aeaab685a29f4ca249be02,64bec9b752ea42583ba6c31e,down,1,0.5643,0.35,-1,0,1.3347,13,0,13,0,1,,,,,,,,,,
,,318429,001,2023-07-24_20h59.20.773,arm3_q,2022.2.5,Win32,60.04202942,611d4891122d6413d83ffb29,64aeaab685a29f4ca249be02,64bec9b752ea42583ba6c31e,down,-1,0.5643,0.35,-2,0,2.1578,14,0,14,0,1,,,,,,,,,,
,,318429,001,2023-07-24_20h59.20.773,arm3_q,2022.2.5,Win32,60.04202942,611d4891122d6413d83ffb29,64aeaab685a29f4ca249be02,64bec9b752ea42583ba6c31e,down,1,0.5643,0.35,-2,0,1.3798,15,0,15,0,1,,,,,,,,,,
,,318429,001,2023-07-24_20h59.20.773,arm3_q,2022.2.5,Win32,60.04202942,611d4891122d6413d83ffb29,64aeaab685a29f4ca249be02,64bec9b752ea42583ba6c31e,up,-1,0.5643,0.35,-1,0,2.2468,16,0,16,0,1,,,,,,,,,,
,,318429,001,2023-07-24_20h59.20.773,arm3_q,2022.2.5,Win32,60.04202942,611d4891122d6413d83ffb29,64aeaab685a29f4ca249be02,64bec9b752ea42583ba6c31e,down,-1,0.5643,0.35,-1,0,1.5965,17,0,17,0,1,,,,,,,,,,
,,318429,001,2023-07-24_20h59.20.773,arm3_q,2022.2.5,Win32,60.04202942,611d4891122d6413d83ffb29,64aeaab685a29f4ca249be02,64bec9b752ea42583ba6c31e,down,-1,0.5643,0.35,-1,0,2.5061,18,0,18,0,1,,,,,,,,,,
,,318429,001,2023-07-24_20h59.20.773,arm3_q,2022.2.5,Win32,60.04202942,611d4891122d6413d83ffb29,64aeaab685a29f4ca249be02,64bec9b752ea42583ba6c31e,down,-1,0.5643,0.35,0,0,1.5435,19,0,19,0,1,,,,,,,,,,
,,318429,001,2023-07-24_20h59.20.773,arm3_q,2022.2.5,Win32,60.04202942,611d4891122d6413d83ffb29,64aeaab685a29f4ca249be02,64bec9b752ea42583ba6c31e,down,-1,0.5643,0.35,0,0,1.4308,20,0,20,0,1,,,,,,,,,,
,,318429,001,2023-07-24_20h59.20.773,arm3_q,2022.2.5,Win32,60.04202942,611d4891122d6413d83ffb29,64aeaab685a29f4ca249be02,64bec9b752ea42583ba6c31e,down,-1,0.5643,0.35,1,0,1.3136,21,0,21,0,1,,,,,,,,,,
,,318429,001,2023-07-24_20h59.20.773,arm3_q,2022.2.5,Win32,60.04202942,611d4891122d6413d83ffb29,64aeaab685a29f4ca249be02,64bec9b752ea42583ba6c31e,down,1,0.5643,0.35,2,0,1.3451,22,0,22,0,1,,,,,,,,,,
,,318429,001,2023-07-24_20h59.20.773,arm3_q,2022.2.5,Win32,60.04202942,611d4891122d6413d83ffb29,64aeaab685a29f4ca249be02,64bec9b752ea42583ba6c31e,down,1,0.5643,0.35,2,0,1.4034,23,0,23,0,1,,,,,,,,,,
,,318429,001,2023-07-24_20h59.20.773,arm3_q,2022.2.5,Win32,60.04202942,611d4891122d6413d83ffb29,64aeaab685a29f4ca249be02,64bec9b752ea42583ba6c31e,down,1,0.5643,0.35,2,0,1.2518,24,0,24,0,1,,,,,,,,,,
,,318429,001,2023-07-24_20h59.20.773,arm3_q,2022.2.5,Win32,60.04202942,611d4891122d6413d83ffb29,64aeaab685a29f4ca249be02,64bec9b752ea42583ba6c31e,down,-1,0.5643,0.35,2,0,1.1277,25,0,25,0,1,,,,,,,,,,
,,318429,001,2023-07-24_20h59.20.773,arm3_q,2022.2.5,Win32,60.04202942,611d4891122d6413d83ffb29,64aeaab685a29f4ca249be02,64bec9b752ea42583ba6c31e,up,-1,0.5643,0.35,1,0,1.0606,26,0,26,0,1,,,,,,,,,,
,,318429,001,2023-07-24_20h59.20.773,arm3_q,2022.2.5,Win32,60.04202942,611d4891122d6413d83ffb29,64aeaab685a29f4ca249be02,64bec9b752ea42583ba6c31e,up,-1,0.5643,0.35,1,0,1.4196,27,0,27,0,1,,,,,,,,,,
,,318429,001,2023-07-24_20h59.20.773,arm3_q,2022.2.5,Win32,60.04202942,611d4891122d6413d83ffb29,64aeaab685a29f4ca249be02,64bec9b752ea42583ba6c31e,up,1,0.5643,0.35,1,0,2.4812,28,0,28,0,1,,,,,,,,,,
,,318429,001,2023-07-24_20h59.20.773,arm3_q,2022.2.5,Win32,60.04202942,611d4891122d6413d83ffb29,64aeaab685a29f4ca249be02,64bec9b752ea42583ba6c31e,up,-1,0.5643,0.35,2,0,1.4017,29,0,29,0,1,,,,,,,,,,
,,318429,001,2023-07-24_20h59.20.773,arm3_q,2022.2.5,Win32,60.04202942,611d4891122d6413d83ffb29,64aeaab685a29f4ca249be02,64bec9b752ea42583ba6c31e,down,-1,0.5643,0.35,3,0,2.2329,30,0,30,0,1,,,,,,,,,,
,,318429,001,2023-07-24_20h59.20.773,arm3_q,2022.2.5,Win32,60.04202942,611d4891122d6413d83ffb29,64aeaab685a29f4ca249be02,64bec9b752ea42583ba6c31e,down,-1,0.5643,0.35,3,0,1.3929,31,0,31,0,1,,,,,,,,,,
,,318429,001,2023-07-24_20h59.20.773,arm3_q,2022.2.5,Win32,60.04202942,611d4891122d6413d83ffb29,64aeaab685a29f4ca249be02,64bec9b752ea42583ba6c31e,down,-1,0.5643,0.35,4,0,1.4491,32,0,32,0,1,,,,,,,,,,
,,318429,001,2023-07-24_20h59.20.773,arm3_q,2022.2.5,Win32,60.04202942,611d4891122d6413d83ffb29,64aeaab685a29f4ca249be02,64bec9b752ea42583ba6c31e,right,-1,0.5643,0.35,4,0.000798641,1.3435,33,0,33,0,1,,,,,,,,,,
,,318429,001,2023-07-24_20h59.20.773,arm3_q,2022.2.5,Win32,60.04202942,611d4891122d6413d83ffb29,64aeaab685a29f4ca249be02,64bec9b752ea42583ba6c31e,right,-1,0.5643,0.35,4,0.006729408,1.1099,34,0,34,0,1,,,,,,,,,,
,,318429,001,2023-07-24_20h59.20.773,arm3_q,2022.2.5,Win32,60.04202942,611d4891122d6413d83ffb29,64aeaab685a29f4ca249be02,64bec9b752ea42583ba6c31e,up,1,0.5643,0.35,3,0,1.3127,35,0,35,0,1,,,,,,,,,,
,,318429,001,2023-07-24_20h59.20.773,arm3_q,2022.2.5,Win32,60.04202942,611d4891122d6413d83ffb29,64aeaab685a29f4ca249be02,64bec9b752ea42583ba6c31e,up,1,0.5643,0.35,3,0,1.4694,36,0,36,0,1,,,,,,,,,,
,,318429,001,2023-07-24_20h59.20.773,arm3_q,2022.2.5,Win32,60.04202942,611d4891122d6413d83ffb29,64aeaab685a29f4ca249be02,64bec9b752ea42583ba6c31e,up,1,0.5643,0.35,3,0,1.5323,37,0,37,0,1,,,,,,,,,,
,,318429,001,2023-07-24_20h59.20.773,arm3_q,2022.2.5,Win32,60.04202942,611d4891122d6413d83ffb29,64aeaab685a29f4ca249be02,64bec9b752ea42583ba6c31e,up,1,0.5643,0.35,3,0,1.4113,38,0,38,0,1,,,,,,,,,,
,,318429,001,2023-07-24_20h59.20.773,arm3_q,2022.2.5,Win32,60.04202942,611d4891122d6413d83ffb29,64aeaab685a29f4ca249be02,64bec9b752ea42583ba6c31e,up,1,0.5643,0.35,4,0,1.5588,39,0,39,0,1,,,,,,,,,,
,,318429,001,2023-07-24_20h59.20.773,arm3_q,2022.2.5,Win32,60.04202942,611d4891122d6413d83ffb29,64aeaab685a29f4ca249be02,64bec9b752ea42583ba6c31e,up,1,0.5643,0.35,5,0,1.3185,40,0,40,0,1,,,,,,,,,,
,,318429,001,2023-07-24_20h59.20.773,arm3_q,2022.2.5,Win32,60.04202942,611d4891122d6413d83ffb29,64aeaab685a29f4ca249be02,64bec9b752ea42583ba6c31e,up,1,0.5643,0.35,5,0,1.2491,41,0,41,0,1,,,,,,,,,,
,,318429,001,2023-07-24_20h59.20.773,arm3_q,2022.2.5,Win32,60.04202942,611d4891122d6413d83ffb29,64aeaab685a29f4ca249be02,64bec9b752ea42583ba6c31e,up,1,0.5643,0.35,5,0,0.7343,42,0,42,0,1,,,,,,,,,,
,,318429,001,2023-07-24_20h59.20.773,arm3_q,2022.2.5,Win32,60.04202942,611d4891122d6413d83ffb29,64aeaab685a29f4ca249be02,64bec9b752ea42583ba6c31e,up,-1,0.5643,0.35,6,0,0.5809,43,0,43,0,1,,,,,,,,,,
,,318429,001,2023-07-24_20h59.20.773,arm3_q,2022.2.5,Win32,60.04202942,611d4891122d6413d83ffb29,64aeaab685a29f4ca249be02,64bec9b752ea42583ba6c31e,down,-1,0.5643,0.35,6,0,1.3411,44,0,44,0,1,,,,,,,,,,
,,318429,001,2023-07-24_20h59.20.773,arm3_q,2022.2.5,Win32,60.04202942,611d4891122d6413d83ffb29,64aeaab685a29f4ca249be02,64bec9b752ea42583ba6c31e,up,-1,0.5643,0.35,5,0,1.8599,45,0,45,0,1,,,,,,,,,,
,,318429,001,2023-07-24_20h59.20.773,arm3_q,2022.2.5,Win32,60.04202942,611d4891122d6413d83ffb29,64aeaab685a29f4ca249be02,64bec9b752ea42583ba6c31e,up,-1,0.5643,0.35,4,0,1.0721,46,0,46,0,1,,,,,,,,,,
,,318429,001,2023-07-24_20h59.20.773,arm3_q,2022.2.5,Win32,60.04202942,611d4891122d6413d83ffb29,64aeaab685a29f4ca249be02,64bec9b752ea42583ba6c31e,up,1,0.5643,0.35,4,0,0.0306,47,0,47,0,1,,,,,,,,,,
,,318429,001,2023-07-24_20h59.20.773,arm3_q,2022.2.5,Win32,60.04202942,611d4891122d6413d83ffb29,64aeaab685a29f4ca249be02,64bec9b752ea42583ba6c31e,up,1,0.5643,0.35,5,0,1.2915,48,0,48,0,1,,,,,,,,,,
,,318429,001,2023-07-24_20h59.20.773,arm3_q,2022.2.5,Win32,60.04202942,611d4891122d6413d83ffb29,64aeaab685a29f4ca249be02,64bec9b752ea42583ba6c31e,up,1,0.5643,0.35,5,0,2.5253,49,0,49,0,1,,,,,,,,,,
space,3.4927,318429,001,2023-07-24_20h59.20.773,arm3_q,2022.2.5,Win32,60.04202942,611d4891122d6413d83ffb29,64aeaab685a29f4ca249be02,64bec9b752ea42583ba6c31e,,,,,,,,,,,,,,,,,,,,,,
space,3.4541,318429,001,2023-07-24_20h59.20.773,arm3_q,2022.2.5,Win32,60.04202942,611d4891122d6413d83ffb29,64aeaab685a29f4ca249be02,64bec9b752ea42583ba6c31e,right,1,0.1786,0.35,0,-0.00260755,1.6313,,,,,,0,0,0,0,1,,,,,
,,318429,001,2023-07-24_20h59.20.773,arm3_q,2022.2.5,Win32,60.04202942,611d4891122d6413d83ffb29,64aeaab685a29f4ca249be02,64bec9b752ea42583ba6c31e,up,-1,0.1786,0.35,1,0,1.5149,,,,,,1,0,1,0,1,,,,,
,,318429,001,2023-07-24_20h59.20.773,arm3_q,2022.2.5,Win32,60.04202942,611d4891122d6413d83ffb29,64aeaab685a29f4ca249be02,64bec9b752ea42583ba6c31e,right,-1,0.1786,0.35,1,0.026189185,1.2984,,,,,,2,0,2,0,1,,,,,
,,318429,001,2023-07-24_20h59.20.773,arm3_q,2022.2.5,Win32,60.04202942,611d4891122d6413d83ffb29,64aeaab685a29f4ca249be02,64bec9b752ea42583ba6c31e,right,-1,0.1786,0.35,1,0.020492613,1.1605,,,,,,3,0,3,0,1,,,,,
,,318429,001,2023-07-24_20h59.20.773,arm3_q,2022.2.5,Win32,60.04202942,611d4891122d6413d83ffb29,64aeaab685a29f4ca249be02,64bec9b752ea42583ba6c31e,down,-1,0.1786,0.35,2,0,1.3931,,,,,,4,0,4,0,1,,,,,
,,318429,001,2023-07-24_20h59.20.773,arm3_q,2022.2.5,Win32,60.04202942,611d4891122d6413d83ffb29,64aeaab685a29f4ca249be02,64bec9b752ea42583ba6c31e,down,-1,0.1786,0.35,3,0,2.1952,,,,,,5,0,5,0,1,,,,,
,,318429,001,2023-07-24_20h59.20.773,arm3_q,2022.2.5,Win32,60.04202942,611d4891122d6413d83ffb29,64aeaab685a29f4ca249be02,64bec9b752ea42583ba6c31e,right,-1,0.1786,0.35,3,-0.0094859,1.5443,,,,,,6,0,6,0,1,,,,,
,,318429,001,2023-07-24_20h59.20.773,arm3_q,2022.2.5,Win32,60.04202942,611d4891122d6413d83ffb29,64aeaab685a29f4ca249be02,64bec9b752ea42583ba6c31e,down,1,0.1786,0.35,3,0,0.8259,,,,,,7,0,7,0,1,,,,,
,,318429,001,2023-07-24_20h59.20.773,arm3_q,2022.2.5,Win32,60.04202942,611d4891122d6413d83ffb29,64aeaab685a29f4ca249be02,64bec9b752ea42583ba6c31e,right,1,0.1786,0.35,3,-0.001676671,1.6989,,,,,,8,0,8,0,1,,,,,
,,318429,001,2023-07-24_20h59.20.773,arm3_q,2022.2.5,Win32,60.04202942,611d4891122d6413d83ffb29,64aeaab685a29f4ca249be02,64bec9b752ea42583ba6c31e,up,1,0.1786,0.35,3,0,1.2482,,,,,,9,0,9,0,1,,,,,
,,318429,001,2023-07-24_20h59.20.773,arm3_q,2022.2.5,Win32,60.04202942,611d4891122d6413d83ffb29,64aeaab685a29f4ca249be02,64bec9b752ea42583ba6c31e,right,1,0.1786,0.35,3,-0.020732444,1.3418,,,,,,10,0,10,0,1,,,,,
,,318429,001,2023-07-24_20h59.20.773,arm3_q,2022.2.5,Win32,60.04202942,611d4891122d6413d83ffb29,64aeaab685a29f4ca249be02,64bec9b752ea42583ba6c31e,up,1,0.1786,0.35,4,0,0.8815,,,,,,11,0,11,0,1,,,,,
,,318429,001,2023-07-24_20h59.20.773,arm3_q,2022.2.5,Win32,60.04202942,611d4891122d6413d83ffb29,64aeaab685a29f4ca249be02,64bec9b752ea42583ba6c31e,right,1,0.1786,0.35,4,-0.014382249,1.248,,,,,,12,0,12,0,1,,,,,
,,318429,001,2023-07-24_20h59.20.773,arm3_q,2022.2.5,Win32,60.04202942,611d4891122d6413d83ffb29,64aeaab685a29f4ca249be02,64bec9b752ea42583ba6c31e,up,1,0.1786,0.35,4,0,0.9918,,,,,,13,0,13,0,1,,,,,
,,318429,001,2023-07-24_20h59.20.773,arm3_q,2022.2.5,Win32,60.04202942,611d4891122d6413d83ffb29,64aeaab685a29f4ca249be02,64bec9b752ea42583ba6c31e,right,1,0.1786,0.35,4,-0.004574147,1.1918,,,,,,14,0,14,0,1,,,,,
,,318429,001,2023-07-24_20h59.20.773,arm3_q,2022.2.5,Win32,60.04202942,611d4891122d6413d83ffb29,64aeaab685a29f4ca249be02,64bec9b752ea42583ba6c31e,up,1,0.1786,0.35,5,0,0.7435,,,,,,15,0,15,0,1,,,,,
,,318429,001,2023-07-24_20h59.20.773,arm3_q,2022.2.5,Win32,60.04202942,611d4891122d6413d83ffb29,64aeaab685a29f4ca249be02,64bec9b752ea42583ba6c31e,right,1,0.1786,0.35,5,0.013727203,1.1479,,,,,,16,0,16,0,1,,,,,
,,318429,001,2023-07-24_20h59.20.773,arm3_q,2022.2.5,Win32,60.04202942,611d4891122d6413d83ffb29,64aeaab685a29f4ca249be02,64bec9b752ea42583ba6c31e,up,1,0.1786,0.35,5,0,2.2745,,,,,,17,0,17,0,1,,,,,
,,318429,001,2023-07-24_20h59.20.773,arm3_q,2022.2.5,Win32,60.04202942,611d4891122d6413d83ffb29,64aeaab685a29f4ca249be02,64bec9b752ea42583ba6c31e,up,1,0.1786,0.35,5,0,1.2241,,,,,,18,0,18,0,1,,,,,
,,318429,001,2023-07-24_20h59.20.773,arm3_q,2022.2.5,Win32,60.04202942,611d4891122d6413d83ffb29,64aeaab685a29f4ca249be02,64bec9b752ea42583ba6c31e,up,1,0.1786,0.35,5,0,1.3533,,,,,,19,0,19,0,1,,,,,
,,318429,001,2023-07-24_20h59.20.773,arm3_q,2022.2.5,Win32,60.04202942,611d4891122d6413d83ffb29,64aeaab685a29f4ca249be02,64bec9b752ea42583ba6c31e,up,1,0.1786,0.35,5,0,1.6385,,,,,,20,0,20,0,1,,,,,
,,318429,001,2023-07-24_20h59.20.773,arm3_q,2022.2.5,Win32,60.04202942,611d4891122d6413d83ffb29,64aeaab685a29f4ca249be02,64bec9b752ea42583ba6c31e,up,1,0.1786,0.35,5,0,1.9278,,,,,,21,0,21,0,1,,,,,
,,318429,001,2023-07-24_20h59.20.773,arm3_q,2022.2.5,Win32,60.04202942,611d4891122d6413d83ffb29,64aeaab685a29f4ca249be02,64bec9b752ea42583ba6c31e,up,1,0.1786,0.35,6,0,1.4792,,,,,,22,0,22,0,1,,,,,
,,318429,001,2023-07-24_20h59.20.773,arm3_q,2022.2.5,Win32,60.04202942,611d4891122d6413d83ffb29,64aeaab685a29f4ca249be02,64bec9b752ea42583ba6c31e,up,-1,0.1786,0.35,6,0,1.7009,,,,,,23,0,23,0,1,,,,,
,,318429,001,2023-07-24_20h59.20.773,arm3_q,2022.2.5,Win32,60.04202942,611d4891122d6413d83ffb29,64aeaab685a29f4ca249be02,64bec9b752ea42583ba6c31e,down,1,0.1786,0.35,6,0,2.2244,,,,,,24,0,24,0,1,,,,,
,,318429,001,2023-07-24_20h59.20.773,arm3_q,2022.2.5,Win32,60.04202942,611d4891122d6413d83ffb29,64aeaab685a29f4ca249be02,64bec9b752ea42583ba6c31e,up,1,0.1786,0.35,6,0,1.4936,,,,,,25,0,25,0,1,,,,,
,,318429,001,2023-07-24_20h59.20.773,arm3_q,2022.2.5,Win32,60.04202942,611d4891122d6413d83ffb29,64aeaab685a29f4ca249be02,64bec9b752ea42583ba6c31e,up,1,0.1786,0.35,6,0,2.4925,,,,,,26,0,26,0,1,,,,,
,,318429,001,2023-07-24_20h59.20.773,arm3_q,2022.2.5,Win32,60.04202942,611d4891122d6413d83ffb29,64aeaab685a29f4ca249be02,64bec9b752ea42583ba6c31e,up,1,0.1786,0.35,6,0,2.0124,,,,,,27,0,27,0,1,,,,,
,,318429,001,2023-07-24_20h59.20.773,arm3_q,2022.2.5,Win32,60.04202942,611d4891122d6413d83ffb29,64aeaab685a29f4ca249be02,64bec9b752ea42583ba6c31e,right,1,0.1786,0.35,6,-0.000271545,1.7283,,,,,,28,0,28,0,1,,,,,
,,318429,001,2023-07-24_20h59.20.773,arm3_q,2022.2.5,Win32,60.04202942,611d4891122d6413d83ffb29,64aeaab685a29f4ca249be02,64bec9b752ea42583ba6c31e,up,-1,0.1786,0.35,6,0,0.911,,,,,,29,0,29,0,1,,,,,
,,318429,001,2023-07-24_20h59.20.773,arm3_q,2022.2.5,Win32,60.04202942,611d4891122d6413d83ffb29,64aeaab685a29f4ca249be02,64bec9b752ea42583ba6c31e,down,-1,0.1786,0.35,6,0,2.2601,,,,,,30,0,30,0,1,,,,,
,,318429,001,2023-07-24_20h59.20.773,arm3_q,2022.2.5,Win32,60.04202942,611d4891122d6413d83ffb29,64aeaab685a29f4ca249be02,64bec9b752ea42583ba6c31e,right,-1,0.1786,0.35,6,0.014038161,2.0673,,,,,,31,0,31,0,1,,,,,
,,318429,001,2023-07-24_20h59.20.773,arm3_q,2022.2.5,Win32,60.04202942,611d4891122d6413d83ffb29,64aeaab685a29f4ca249be02,64bec9b752ea42583ba6c31e,right,-1,0.1786,0.35,6,-0.003469546,1.8221,,,,,,32,0,32,0,1,,,,,
,,318429,001,2023-07-24_20h59.20.773,arm3_q,2022.2.5,Win32,60.04202942,611d4891122d6413d83ffb29,64aeaab685a29f4ca249be02,64bec9b752ea42583ba6c31e,down,-1,0.1786,0.35,6,0,1.9553,,,,,,33,0,33,0,1,,,,,
,,318429,001,2023-07-24_20h59.20.773,arm3_q,2022.2.5,Win32,60.04202942,611d4891122d6413d83ffb29,64aeaab685a29f4ca249be02,64bec9b752ea42583ba6c31e,right,-1,0.1786,0.35,6,0.004531617,3.0758,,,,,,34,0,34,0,1,,,,,
,,318429,001,2023-07-24_20h59.20.773,arm3_q,2022.2.5,Win32,60.04202942,611d4891122d6413d83ffb29,64aeaab685a29f4ca249be02,64bec9b752ea42583ba6c31e,up,-1,0.1786,0.35,6,0,2.3248,,,,,,35,0,35,0,1,,,,,
,,318429,001,2023-07-24_20h59.20.773,arm3_q,2022.2.5,Win32,60.04202942,611d4891122d6413d83ffb29,64aeaab685a29f4ca249be02,64bec9b752ea42583ba6c31e,up,1,0.1786,0.35,5,0,1.9241,,,,,,36,0,36,0,1,,,,,
,,318429,001,2023-07-24_20h59.20.773,arm3_q,2022.2.5,Win32,60.04202942,611d4891122d6413d83ffb29,64aeaab685a29f4ca249be02,64bec9b752ea42583ba6c31e,up,1,0.1786,0.35,5,0,1.6794,,,,,,37,0,37,0,1,,,,,
,,318429,001,2023-07-24_20h59.20.773,arm3_q,2022.2.5,Win32,60.04202942,611d4891122d6413d83ffb29,64aeaab685a29f4ca249be02,64bec9b752ea42583ba6c31e,up,-1,0.1786,0.35,5,0,0.9033,,,,,,38,0,38,0,1,,,,,
,,318429,001,2023-07-24_20h59.20.773,arm3_q,2022.2.5,Win32,60.04202942,611d4891122d6413d83ffb29,64aeaab685a29f4ca249be02,64bec9b752ea42583ba6c31e,up,-1,0.1786,0.35,4,0,1.2307,,,,,,39,0,39,0,1,,,,,
,,318429,001,2023-07-24_20h59.20.773,arm3_q,2022.2.5,Win32,60.04202942,611d4891122d6413d83ffb29,64aeaab685a29f4ca249be02,64bec9b752ea42583ba6c31e,down,-1,0.1786,0.35,5,0,1.4192,,,,,,40,0,40,0,1,,,,,
,,318429,001,2023-07-24_20h59.20.773,arm3_q,2022.2.5,Win32,60.04202942,611d4891122d6413d83ffb29,64aeaab685a29f4ca249be02,64bec9b752ea42583ba6c31e,up,1,0.1786,0.35,5,0,1.536,,,,,,41,0,41,0,1,,,,,
,,318429,001,2023-07-24_20h59.20.773,arm3_q,2022.2.5,Win32,60.04202942,611d4891122d6413d83ffb29,64aeaab685a29f4ca249be02,64bec9b752ea42583ba6c31e,down,-1,0.1786,0.35,5,0,1.0464,,,,,,42,0,42,0,1,,,,,
,,318429,001,2023-07-24_20h59.20.773,arm3_q,2022.2.5,Win32,60.04202942,611d4891122d6413d83ffb29,64aeaab685a29f4ca249be02,64bec9b752ea42583ba6c31e,up,1,0.1786,0.35,5,0,1.4989,,,,,,43,0,43,0,1,,,,,
,,318429,001,2023-07-24_20h59.20.773,arm3_q,2022.2.5,Win32,60.04202942,611d4891122d6413d83ffb29,64aeaab685a29f4ca249be02,64bec9b752ea42583ba6c31e,up,1,0.1786,0.35,5,0,1.0045,,,,,,44,0,44,0,1,,,,,
,,318429,001,2023-07-24_20h59.20.773,arm3_q,2022.2.5,Win32,60.04202942,611d4891122d6413d83ffb29,64aeaab685a29f4ca249be02,64bec9b752ea42583ba6c31e,up,1,0.1786,0.35,5,0,0.9879,,,,,,45,0,45,0,1,,,,,
,,318429,001,2023-07-24_20h59.20.773,arm3_q,2022.2.5,Win32,60.04202942,611d4891122d6413d83ffb29,64aeaab685a29f4ca249be02,64bec9b752ea42583ba6c31e,up,1,0.1786,0.35,5,0,0.9569,,,,,,46,0,46,0,1,,,,,
,,318429,001,2023-07-24_20h59.20.773,arm3_q,2022.2.5,Win32,60.04202942,611d4891122d6413d83ffb29,64aeaab685a29f4ca249be02,64bec9b752ea42583ba6c31e,up,1,0.1786,0.35,6,0,0.9933,,,,,,47,0,47,0,1,,,,,
,,318429,001,2023-07-24_20h59.20.773,arm3_q,2022.2.5,Win32,60.04202942,611d4891122d6413d83ffb29,64aeaab685a29f4ca249be02,64bec9b752ea42583ba6c31e,up,1,0.1786,0.35,6,0,1.0911,,,,,,48,0,48,0,1,,,,,
,,318429,001,2023-07-24_20h59.20.773,arm3_q,2022.2.5,Win32,60.04202942,611d4891122d6413d83ffb29,64aeaab685a29f4ca249be02,64bec9b752ea42583ba6c31e,up,-1,0.1786,0.35,6,0,2.077,,,,,,49,0,49,0,1,,,,,
,,318429,001,2023-07-24_20h59.20.773,arm3_q,2022.2.5,Win32,60.04202942,611d4891122d6413d83ffb29,64aeaab685a29f4ca249be02,64bec9b752ea42583ba6c31e,up,-1,0.1786,0.35,6,0,1.695,,,,,,50,0,50,0,1,,,,,
,,318429,001,2023-07-24_20h59.20.773,arm3_q,2022.2.5,Win32,60.04202942,611d4891122d6413d83ffb29,64aeaab685a29f4ca249be02,64bec9b752ea42583ba6c31e,right,-1,0.1786,0.35,6,0.000797078,1.0788,,,,,,51,0,51,0,1,,,,,
,,318429,001,2023-07-24_20h59.20.773,arm3_q,2022.2.5,Win32,60.04202942,611d4891122d6413d83ffb29,64aeaab685a29f4ca249be02,64bec9b752ea42583ba6c31e,down,-1,0.1786,0.35,6,0,1.0783,,,,,,52,0,52,0,1,,,,,
,,318429,001,2023-07-24_20h59.20.773,arm3_q,2022.2.5,Win32,60.04202942,611d4891122d6413d83ffb29,64aeaab685a29f4ca249be02,64bec9b752ea42583ba6c31e,down,-1,0.1786,0.35,7,0,1.9095,,,,,,53,0,53,0,1,,,,,
,,318429,001,2023-07-24_20h59.20.773,arm3_q,2022.2.5,Win32,60.04202942,611d4891122d6413d83ffb29,64aeaab685a29f4ca249be02,64bec9b752ea42583ba6c31e,down,-1,0.1786,0.35,8,0,1.3669,,,,,,54,0,54,0,1,,,,,
,,318429,001,2023-07-24_20h59.20.773,arm3_q,2022.2.5,Win32,60.04202942,611d4891122d6413d83ffb29,64aeaab685a29f4ca249be02,64bec9b752ea42583ba6c31e,right,-1,0.1786,0.35,8,-0.006722166,2.4527,,,,,,55,0,55,0,1,,,,,
,,318429,001,2023-07-24_20h59.20.773,arm3_q,2022.2.5,Win32,60.04202942,611d4891122d6413d83ffb29,64aeaab685a29f4ca249be02,64bec9b752ea42583ba6c31e,down,1,0.1786,0.35,9,0,0.8602,,,,,,56,0,56,0,1,,,,,
,,318429,001,2023-07-24_20h59.20.773,arm3_q,2022.2.5,Win32,60.04202942,611d4891122d6413d83ffb29,64aeaab685a29f4ca249be02,64bec9b752ea42583ba6c31e,right,1,0.1786,0.35,9,0.023631309,8.3582,,,,,,57,0,57,0,1,,,,,
,,318429,001,2023-07-24_20h59.20.773,arm3_q,2022.2.5,Win32,60.04202942,611d4891122d6413d83ffb29,64aeaab685a29f4ca249be02,64bec9b752ea42583ba6c31e,up,1,0.1786,0.35,9,0,1.8948,,,,,,58,0,58,0,1,,,,,
,,318429,001,2023-07-24_20h59.20.773,arm3_q,2022.2.5,Win32,60.04202942,611d4891122d6413d83ffb29,64aeaab685a29f4ca249be02,64bec9b752ea42583ba6c31e,right,1,0.1786,0.35,9,-0.00964599,1.7216,,,,,,59,0,59,0,1,,,,,
,,318429,001,2023-07-24_20h59.20.773,arm3_q,2022.2.5,Win32,60.04202942,611d4891122d6413d83ffb29,64aeaab685a29f4ca249be02,64bec9b752ea42583ba6c31e,up,1,0.1786,0.35,10,0,1.2744,,,,,,60,0,60,0,1,,,,,
,,318429,001,2023-07-24_20h59.20.773,arm3_q,2022.2.5,Win32,60.04202942,611d4891122d6413d83ffb29,64aeaab685a29f4ca249be02,64bec9b752ea42583ba6c31e,up,1,0.1786,0.35,11,0,1.8833,,,,,,61,0,61,0,1,,,,,
,,318429,001,2023-07-24_20h59.20.773,arm3_q,2022.2.5,Win32,60.04202942,611d4891122d6413d83ffb29,64aeaab685a29f4ca249be02,64bec9b752ea42583ba6c31e,up,-1,0.1786,0.35,11,0,2.2206,,,,,,62,0,62,0,1,,,,,
,,318429,001,2023-07-24_20h59.20.773,arm3_q,2022.2.5,Win32,60.04202942,611d4891122d6413d83ffb29,64aeaab685a29f4ca249be02,64bec9b752ea42583ba6c31e,up,-1,0.1786,0.35,11,0,0.029,,,,,,63,0,63,0,1,,,,,
,,318429,001,2023-07-24_20h59.20.773,arm3_q,2022.2.5,Win32,60.04202942,611d4891122d6413d83ffb29,64aeaab685a29f4ca249be02,64bec9b752ea42583ba6c31e,up,1,0.1786,0.35,10,0,1.7413,,,,,,64,0,64,0,1,,,,,
,,318429,001,2023-07-24_20h59.20.773,arm3_q,2022.2.5,Win32,60.04202942,611d4891122d6413d83ffb29,64aeaab685a29f4ca249be02,64bec9b752ea42583ba6c31e,up,1,0.1786,0.35,10,0,1.2361,,,,,,65,0,65,0,1,,,,,
,,318429,001,2023-07-24_20h59.20.773,arm3_q,2022.2.5,Win32,60.04202942,611d4891122d6413d83ffb29,64aeaab685a29f4ca249be02,64bec9b752ea42583ba6c31e,right,1,0.1786,0.35,10,-0.023610782,1.3523,,,,,,66,0,66,0,1,,,,,
,,318429,001,2023-07-24_20h59.20.773,arm3_q,2022.2.5,Win32,60.04202942,611d4891122d6413d83ffb29,64aeaab685a29f4ca249be02,64bec9b752ea42583ba6c31e,up,-1,0.1786,0.35,10,0,1.0926,,,,,,67,0,67,0,1,,,,,
,,318429,001,2023-07-24_20h59.20.773,arm3_q,2022.2.5,Win32,60.04202942,611d4891122d6413d83ffb29,64aeaab685a29f4ca249be02,64bec9b752ea42583ba6c31e,up,-1,0.1786,0.35,10,0,1.043,,,,,,68,0,68,0,1,,,,,
,,318429,001,2023-07-24_20h59.20.773,arm3_q,2022.2.5,Win32,60.04202942,611d4891122d6413d83ffb29,64aeaab685a29f4ca249be02,64bec9b752ea42583ba6c31e,down,-1,0.1786,0.35,10,0,2.0294,,,,,,69,0,69,0,1,,,,,
,,318429,001,2023-07-24_20h59.20.773,arm3_q,2022.2.5,Win32,60.04202942,611d4891122d6413d83ffb29,64aeaab685a29f4ca249be02,64bec9b752ea42583ba6c31e,up,1,0.1786,0.35,10,0,1.6807,,,,,,70,0,70,0,1,,,,,
,,318429,001,2023-07-24_20h59.20.773,arm3_q,2022.2.5,Win32,60.04202942,611d4891122d6413d83ffb29,64aeaab685a29f4ca249be02,64bec9b752ea42583ba6c31e,right,1,0.1786,0.35,10,0.001425376,1.4472,,,,,,71,0,71,0,1,,,,,
,,318429,001,2023-07-24_20h59.20.773,arm3_q,2022.2.5,Win32,60.04202942,611d4891122d6413d83ffb29,64aeaab685a29f4ca249be02,64bec9b752ea42583ba6c31e,up,1,0.1786,0.35,10,0,1.0399,,,,,,72,0,72,0,1,,,,,
,,318429,001,2023-07-24_20h59.20.773,arm3_q,2022.2.5,Win32,60.04202942,611d4891122d6413d83ffb29,64aeaab685a29f4ca249be02,64bec9b752ea42583ba6c31e,right,1,0.1786,0.35,10,0.048904432,2.1533,,,,,,73,0,73,0,1,,,,,
,,318429,001,2023-07-24_20h59.20.773,arm3_q,2022.2.5,Win32,60.04202942,611d4891122d6413d83ffb29,64aeaab685a29f4ca249be02,64bec9b752ea42583ba6c31e,up,1,0.1786,0.35,10,0,0.9226,,,,,,74,0,74,0,1,,,,,
,,318429,001,2023-07-24_20h59.20.773,arm3_q,2022.2.5,Win32,60.04202942,611d4891122d6413d83ffb29,64aeaab685a29f4ca249be02,64bec9b752ea42583ba6c31e,right,1,0.1786,0.35,10,0.018675648,1.3062,,,,,,75,0,75,0,1,,,,,
,,318429,001,2023-07-24_20h59.20.773,arm3_q,2022.2.5,Win32,60.04202942,611d4891122d6413d83ffb29,64aeaab685a29f4ca249be02,64bec9b752ea42583ba6c31e,up,-1,0.1786,0.35,10,0,0.7049,,,,,,76,0,76,0,1,,,,,
,,318429,001,2023-07-24_20h59.20.773,arm3_q,2022.2.5,Win32,60.04202942,611d4891122d6413d83ffb29,64aeaab685a29f4ca249be02,64bec9b752ea42583ba6c31e,right,-1,0.1786,0.35,10,0.00028138,1.8881,,,,,,77,0,77,0,1,,,,,
,,318429,001,2023-07-24_20h59.20.773,arm3_q,2022.2.5,Win32,60.04202942,611d4891122d6413d83ffb29,64aeaab685a29f4ca249be02,64bec9b752ea42583ba6c31e,down,-1,0.1786,0.35,10,0,0.8906,,,,,,78,0,78,0,1,,,,,
,,318429,001,2023-07-24_20h59.20.773,arm3_q,2022.2.5,Win32,60.04202942,611d4891122d6413d83ffb29,64aeaab685a29f4ca249be02,64bec9b752ea42583ba6c31e,right,-1,0.1786,0.35,10,-0.02326128,1.3644,,,,,,79,0,79,0,1,,,,,
,,318429,001,2023-07-24_20h59.20.773,arm3_q,2022.2.5,Win32,60.04202942,611d4891122d6413d83ffb29,64aeaab685a29f4ca249be02,64bec9b752ea42583ba6c31e,down,-1,0.1786,0.35,10,0,0.5441,,,,,,80,0,80,0,1,,,,,
,,318429,001,2023-07-24_20h59.20.773,arm3_q,2022.2.5,Win32,60.04202942,611d4891122d6413d83ffb29,64aeaab685a29f4ca249be02,64bec9b752ea42583ba6c31e,right,-1,0.1786,0.35,10,0.005752397,1.8036,,,,,,81,0,81,0,1,,,,,
,,318429,001,2023-07-24_20h59.20.773,arm3_q,2022.2.5,Win32,60.04202942,611d4891122d6413d83ffb29,64aeaab685a29f4ca249be02,64bec9b752ea42583ba6c31e,down,-1,0.1786,0.35,11,0,0.672,,,,,,82,0,82,0,1,,,,,
,,318429,001,2023-07-24_20h59.20.773,arm3_q,2022.2.5,Win32,60.04202942,611d4891122d6413d83ffb29,64aeaab685a29f4ca249be02,64bec9b752ea42583ba6c31e,right,-1,0.1786,0.35,11,-0.035841766,1.4349,,,,,,83,0,83,0,1,,,,,
,,318429,001,2023-07-24_20h59.20.773,arm3_q,2022.2.5,Win32,60.04202942,611d4891122d6413d83ffb29,64aeaab685a29f4ca249be02,64bec9b752ea42583ba6c31e,down,1,0.1786,0.35,11,0,0.5432,,,,,,84,0,84,0,1,,,,,
,,318429,001,2023-07-24_20h59.20.773,arm3_q,2022.2.5,Win32,60.04202942,611d4891122d6413d83ffb29,64aeaab685a29f4ca249be02,64bec9b752ea42583ba6c31e,right,1,0.1786,0.35,11,0.036217233,1.4011,,,,,,85,0,85,0,1,,,,,
,,318429,001,2023-07-24_20h59.20.773,arm3_q,2022.2.5,Win32,60.04202942,611d4891122d6413d83ffb29,64aeaab685a29f4ca249be02,64bec9b752ea42583ba6c31e,right,1,0.1786,0.35,11,0.027074308,1.2122,,,,,,86,0,86,0,1,,,,,
,,318429,001,2023-07-24_20h59.20.773,arm3_q,2022.2.5,Win32,60.04202942,611d4891122d6413d83ffb29,64aeaab685a29f4ca249be02,64bec9b752ea42583ba6c31e,right,1,0.1786,0.35,11,0.040675725,0.9643,,,,,,87,0,87,0,1,,,,,
,,318429,001,2023-07-24_20h59.20.773,arm3_q,2022.2.5,Win32,60.04202942,611d4891122d6413d83ffb29,64aeaab685a29f4ca249be02,64bec9b752ea42583ba6c31e,right,1,0.1786,0.35,11,0.04876755,0.6477,,,,,,88,0,88,0,1,,,,,
,,318429,001,2023-07-24_20h59.20.773,arm3_q,2022.2.5,Win32,60.04202942,611d4891122d6413d83ffb29,64aeaab685a29f4ca249be02,64bec9b752ea42583ba6c31e,up,1,0.1786,0.35,11,0,0.9224,,,,,,89,0,89,0,1,,,,,
,,318429,001,2023-07-24_20h59.20.773,arm3_q,2022.2.5,Win32,60.04202942,611d4891122d6413d83ffb29,64aeaab685a29f4ca249be02,64bec9b752ea42583ba6c31e,right,1,0.1786,0.35,11,-0.00877038,0.9327,,,,,,90,0,90,0,1,,,,,
,,318429,001,2023-07-24_20h59.20.773,arm3_q,2022.2.5,Win32,60.04202942,611d4891122d6413d83ffb29,64aeaab685a29f4ca249be02,64bec9b752ea42583ba6c31e,right,1,0.1786,0.35,11,0.011000974,1.0814,,,,,,91,0,91,0,1,,,,,
,,318429,001,2023-07-24_20h59.20.773,arm3_q,2022.2.5,Win32,60.04202942,611d4891122d6413d83ffb29,64aeaab685a29f4ca249be02,64bec9b752ea42583ba6c31e,right,1,0.1786,0.35,11,0.000303346,0.6149,,,,,,92,0,92,0,1,,,,,
,,318429,001,2023-07-24_20h59.20.773,arm3_q,2022.2.5,Win32,60.04202942,611d4891122d6413d83ffb29,64aeaab685a29f4ca249be02,64bec9b752ea42583ba6c31e,right,1,0.1786,0.35,11,-0.014248056,0.6808,,,,,,93,0,93,0,1,,,,,
,,318429,001,2023-07-24_20h59.20.773,arm3_q,2022.2.5,Win32,60.04202942,611d4891122d6413d83ffb29,64aeaab685a29f4ca249be02,64bec9b752ea42583ba6c31e,up,1,0.1786,0.35,11,0,1.3492,,,,,,94,0,94,0,1,,,,,
,,318429,001,2023-07-24_20h59.20.773,arm3_q,2022.2.5,Win32,60.04202942,611d4891122d6413d83ffb29,64aeaab685a29f4ca249be02,64bec9b752ea42583ba6c31e,right,1,0.1786,0.35,11,0.002652641,2.676,,,,,,95,0,95,0,1,,,,,
,,318429,001,2023-07-24_20h59.20.773,arm3_q,2022.2.5,Win32,60.04202942,611d4891122d6413d83ffb29,64aeaab685a29f4ca249be02,64bec9b752ea42583ba6c31e,right,1,0.1786,0.35,11,0.00506503,0.9372,,,,,,96,0,96,0,1,,,,,
,,318429,001,2023-07-24_20h59.20.773,arm3_q,2022.2.5,Win32,60.04202942,611d4891122d6413d83ffb29,64aeaab685a29f4ca249be02,64bec9b752ea42583ba6c31e,down,-1,0.1786,0.35,10,0,1.0121,,,,,,97,0,97,0,1,,,,,
,,318429,001,2023-07-24_20h59.20.773,arm3_q,2022.2.5,Win32,60.04202942,611d4891122d6413d83ffb29,64aeaab685a29f4ca249be02,64bec9b752ea42583ba6c31e,up,-1,0.1786,0.35,9,0,1.9146,,,,,,98,0,98,0,1,,,,,
,,318429,001,2023-07-24_20h59.20.773,arm3_q,2022.2.5,Win32,60.04202942,611d4891122d6413d83ffb29,64aeaab685a29f4ca249be02,64bec9b752ea42583ba6c31e,down,-1,0.1786,0.35,9,0,1.4045,,,,,,99,0,99,0,1,,,,,
,,318429,001,2023-07-24_20h59.20.773,arm3_q,2022.2.5,Win32,60.04202942,611d4891122d6413d83ffb29,64aeaab685a29f4ca249be02,64bec9b752ea42583ba6c31e,up,1,0.1786,0.35,9,0,1.3135,,,,,,100,0,100,0,1,,,,,
,,318429,001,2023-07-24_20h59.20.773,arm3_q,2022.2.5,Win32,60.04202942,611d4891122d6413d83ffb29,64aeaab685a29f4ca249be02,64bec9b752ea42583ba6c31e,up,1,0.1786,0.35,9,0,1.2949,,,,,,101,0,101,0,1,,,,,
,,318429,001,2023-07-24_20h59.20.773,arm3_q,2022.2.5,Win32,60.04202942,611d4891122d6413d83ffb29,64aeaab685a29f4ca249be02,64bec9b752ea42583ba6c31e,up,-1,0.1786,0.35,9,0,1.2381,,,,,,102,0,102,0,1,,,,,
,,318429,001,2023-07-24_20h59.20.773,arm3_q,2022.2.5,Win32,60.04202942,611d4891122d6413d83ffb29,64aeaab685a29f4ca249be02,64bec9b752ea42583ba6c31e,up,-1,0.1786,0.35,9,0,1.7972,,,,,,103,0,103,0,1,,,,,
,,318429,001,2023-07-24_20h59.20.773,arm3_q,2022.2.5,Win32,60.04202942,611d4891122d6413d83ffb29,64aeaab685a29f4ca249be02,64bec9b752ea42583ba6c31e,up,-1,0.1786,0.35,9,0,1.4996,,,,,,104,0,104,0,1,,,,,
,,318429,001,2023-07-24_20h59.20.773,arm3_q,2022.2.5,Win32,60.04202942,611d4891122d6413d83ffb29,64aeaab685a29f4ca249be02,64bec9b752ea42583ba6c31e,down,-1,0.1786,0.35,9,0,1.2622,,,,,,105,0,105,0,1,,,,,
,,318429,001,2023-07-24_20h59.20.773,arm3_q,2022.2.5,Win32,60.04202942,611d4891122d6413d83ffb29,64aeaab685a29f4ca249be02,64bec9b752ea42583ba6c31e,right,-1,0.1786,0.35,9,-0.005342189,1.1057,,,,,,106,0,106,0,1,,,,,
,,318429,001,2023-07-24_20h59.20.773,arm3_q,2022.2.5,Win32,60.04202942,611d4891122d6413d83ffb29,64aeaab685a29f4ca249be02,64bec9b752ea42583ba6c31e,down,1,0.1786,0.35,9,0,0.7307,,,,,,107,0,107,0,1,,,,,
,,318429,001,2023-07-24_20h59.20.773,arm3_q,2022.2.5,Win32,60.04202942,611d4891122d6413d83ffb29,64aeaab685a29f4ca249be02,64bec9b752ea42583ba6c31e,right,1,0.1786,0.35,9,0.003509494,1.1821,,,,,,108,0,108,0,1,,,,,
,,318429,001,2023-07-24_20h59.20.773,arm3_q,2022.2.5,Win32,60.04202942,611d4891122d6413d83ffb29,64aeaab685a29f4ca249be02,64bec9b752ea42583ba6c31e,up,-1,0.1786,0.35,10,0,0.7141,,,,,,109,0,109,0,1,,,,,
,,318429,001,2023-07-24_20h59.20.773,arm3_q,2022.2.5,Win32,60.04202942,611d4891122d6413d83ffb29,64aeaab685a29f4ca249be02,64bec9b752ea42583ba6c31e,up,1,0.1786,0.35,9,0,1.4211,,,,,,110,0,110,0,1,,,,,
,,318429,001,2023-07-24_20h59.20.773,arm3_q,2022.2.5,Win32,60.04202942,611d4891122d6413d83ffb29,64aeaab685a29f4ca249be02,64bec9b752ea42583ba6c31e,up,1,0.1786,0.35,9,0,1.401,,,,,,111,0,111,0,1,,,,,
,,318429,001,2023-07-24_20h59.20.773,arm3_q,2022.2.5,Win32,60.04202942,611d4891122d6413d83ffb29,64aeaab685a29f4ca249be02,64bec9b752ea42583ba6c31e,right,1,0.1786,0.35,9,0.018279704,0.8596,,,,,,112,0,112,0,1,,,,,
,,318429,001,2023-07-24_20h59.20.773,arm3_q,2022.2.5,Win32,60.04202942,611d4891122d6413d83ffb29,64aeaab685a29f4ca249be02,64bec9b752ea42583ba6c31e,up,-1,0.1786,0.35,9,0,0.5729,,,,,,113,0,113,0,1,,,,,
,,318429,001,2023-07-24_20h59.20.773,arm3_q,2022.2.5,Win32,60.04202942,611d4891122d6413d83ffb29,64aeaab685a29f4ca249be02,64bec9b752ea42583ba6c31e,down,1,0.1786,0.35,9,0,1.7773,,,,,,114,0,114,0,1,,,,,
,,318429,001,2023-07-24_20h59.20.773,arm3_q,2022.2.5,Win32,60.04202942,611d4891122d6413d83ffb29,64aeaab685a29f4ca249be02,64bec9b752ea42583ba6c31e,up,1,0.1786,0.35,10,0,1.1498,,,,,,115,0,115,0,1,,,,,
,,318429,001,2023-07-24_20h59.20.773,arm3_q,2022.2.5,Win32,60.04202942,611d4891122d6413d83ffb29,64aeaab685a29f4ca249be02,64bec9b752ea42583ba6c31e,up,1,0.1786,0.35,11,0,1.2299,,,,,,116,0,116,0,1,,,,,
,,318429,001,2023-07-24_20h59.20.773,arm3_q,2022.2.5,Win32,60.04202942,611d4891122d6413d83ffb29,64aeaab685a29f4ca249be02,64bec9b752ea42583ba6c31e,up,-1,0.1786,0.35,12,0,1.222,,,,,,117,0,117,0,1,,,,,
,,318429,001,2023-07-24_20h59.20.773,arm3_q,2022.2.5,Win32,60.04202942,611d4891122d6413d83ffb29,64aeaab685a29f4ca249be02,64bec9b752ea42583ba6c31e,down,1,0.1786,0.35,13,0,1.3435,,,,,,118,0,118,0,1,,,,,
,,318429,001,2023-07-24_20h59.20.773,arm3_q,2022.2.5,Win32,60.04202942,611d4891122d6413d83ffb29,64aeaab685a29f4ca249be02,64bec9b752ea42583ba6c31e,up,1,0.1786,0.35,13,0,1.4379,,,,,,119,0,119,0,1,,,,,
,,318429,001,2023-07-24_20h59.20.773,arm3_q,2022.2.5,Win32,60.04202942,611d4891122d6413d83ffb29,64aeaab685a29f4ca249be02,64bec9b752ea42583ba6c31e,up,1,0.1786,0.35,13,0,1.2824,,,,,,120,0,120,0,1,,,,,
,,318429,001,2023-07-24_20h59.20.773,arm3_q,2022.2.5,Win32,60.04202942,611d4891122d6413d83ffb29,64aeaab685a29f4ca249be02,64bec9b752ea42583ba6c31e,up,1,0.1786,0.35,13,0,1.5392,,,,,,121,0,121,0,1,,,,,
,,318429,001,2023-07-24_20h59.20.773,arm3_q,2022.2.5,Win32,60.04202942,611d4891122d6413d83ffb29,64aeaab685a29f4ca249be02,64bec9b752ea42583ba6c31e,down,1,0.1786,0.35,13,0,1.2421,,,,,,122,0,122,0,1,,,,,
,,318429,001,2023-07-24_20h59.20.773,arm3_q,2022.2.5,Win32,60.04202942,611d4891122d6413d83ffb29,64aeaab685a29f4ca249be02,64bec9b752ea42583ba6c31e,up,1,0.1786,0.35,13,0,1.4321,,,,,,123,0,123,0,1,,,,,
,,318429,001,2023-07-24_20h59.20.773,arm3_q,2022.2.5,Win32,60.04202942,611d4891122d6413d83ffb29,64aeaab685a29f4ca249be02,64bec9b752ea42583ba6c31e,down,1,0.1786,0.35,13,0,1.3956,,,,,,124,0,124,0,1,,,,,
,,318429,001,2023-07-24_20h59.20.773,arm3_q,2022.2.5,Win32,60.04202942,611d4891122d6413d83ffb29,64aeaab685a29f4ca249be02,64bec9b752ea42583ba6c31e,up,1,0.1786,0.35,13,0,1.3967,,,,,,125,0,125,0,1,,,,,
,,318429,001,2023-07-24_20h59.20.773,arm3_q,2022.2.5,Win32,60.04202942,611d4891122d6413d83ffb29,64aeaab685a29f4ca249be02,64bec9b752ea42583ba6c31e,up,1,0.1786,0.35,13,0,1.4314,,,,,,126,0,126,0,1,,,,,
,,318429,001,2023-07-24_20h59.20.773,arm3_q,2022.2.5,Win32,60.04202942,611d4891122d6413d83ffb29,64aeaab685a29f4ca249be02,64bec9b752ea42583ba6c31e,down,1,0.1786,0.35,13,0,1.3788,,,,,,127,0,127,0,1,,,,,
,,318429,001,2023-07-24_20h59.20.773,arm3_q,2022.2.5,Win32,60.04202942,611d4891122d6413d83ffb29,64aeaab685a29f4ca249be02,64bec9b752ea42583ba6c31e,up,-1,0.1786,0.35,13,0,1.658,,,,,,128,0,128,0,1,,,,,
,,318429,001,2023-07-24_20h59.20.773,arm3_q,2022.2.5,Win32,60.04202942,611d4891122d6413d83ffb29,64aeaab685a29f4ca249be02,64bec9b752ea42583ba6c31e,down,1,0.1786,0.35,13,0,1.2276,,,,,,129,0,129,0,1,,,,,
,,318429,001,2023-07-24_20h59.20.773,arm3_q,2022.2.5,Win32,60.04202942,611d4891122d6413d83ffb29,64aeaab685a29f4ca249be02,64bec9b752ea42583ba6c31e,up,-1,0.1786,0.35,13,0,1.3051,,,,,,130,0,130,0,1,,,,,
,,318429,001,2023-07-24_20h59.20.773,arm3_q,2022.2.5,Win32,60.04202942,611d4891122d6413d83ffb29,64aeaab685a29f4ca249be02,64bec9b752ea42583ba6c31e,down,-1,0.1786,0.35,13,0,1.3109,,,,,,131,0,131,0,1,,,,,
,,318429,001,2023-07-24_20h59.20.773,arm3_q,2022.2.5,Win32,60.04202942,611d4891122d6413d83ffb29,64aeaab685a29f4ca249be02,64bec9b752ea42583ba6c31e,down,-1,0.1786,0.35,13,0,1.4699,,,,,,132,0,132,0,1,,,,,
,,318429,001,2023-07-24_20h59.20.773,arm3_q,2022.2.5,Win32,60.04202942,611d4891122d6413d83ffb29,64aeaab685a29f4ca249be02,64bec9b752ea42583ba6c31e,up,-1,0.1786,0.35,13,0,1.424,,,,,,133,0,133,0,1,,,,,
,,318429,001,2023-07-24_20h59.20.773,arm3_q,2022.2.5,Win32,60.04202942,611d4891122d6413d83ffb29,64aeaab685a29f4ca249be02,64bec9b752ea42583ba6c31e,down,1,0.1786,0.35,13,0,1.1655,,,,,,134,0,134,0,1,,,,,
,,318429,001,2023-07-24_20h59.20.773,arm3_q,2022.2.5,Win32,60.04202942,611d4891122d6413d83ffb29,64aeaab685a29f4ca249be02,64bec9b752ea42583ba6c31e,up,-1,0.1786,0.35,13,0,1.2798,,,,,,135,0,135,0,1,,,,,
,,318429,001,2023-07-24_20h59.20.773,arm3_q,2022.2.5,Win32,60.04202942,611d4891122d6413d83ffb29,64aeaab685a29f4ca249be02,64bec9b752ea42583ba6c31e,down,-1,0.1786,0.35,13,0,1.2316,,,,,,136,0,136,0,1,,,,,
,,318429,001,2023-07-24_20h59.20.773,arm3_q,2022.2.5,Win32,60.04202942,611d4891122d6413d83ffb29,64aeaab685a29f4ca249be02,64bec9b752ea42583ba6c31e,up,-1,0.1786,0.35,12,0,1.3008,,,,,,137,0,137,0,1,,,,,
,,318429,001,2023-07-24_20h59.20.773,arm3_q,2022.2.5,Win32,60.04202942,611d4891122d6413d83ffb29,64aeaab685a29f4ca249be02,64bec9b752ea42583ba6c31e,down,-1,0.1786,0.35,12,0,1.3693,,,,,,138,0,138,0,1,,,,,
,,318429,001,2023-07-24_20h59.20.773,arm3_q,2022.2.5,Win32,60.04202942,611d4891122d6413d83ffb29,64aeaab685a29f4ca249be02,64bec9b752ea42583ba6c31e,up,1,0.1786,0.35,12,0,1.3557,,,,,,139,0,139,0,1,,,,,
,,318429,001,2023-07-24_20h59.20.773,arm3_q,2022.2.5,Win32,60.04202942,611d4891122d6413d83ffb29,64aeaab685a29f4ca249be02,64bec9b752ea42583ba6c31e,right,1,0.1786,0.35,12,0.018391205,1.0105,,,,,,140,0,140,0,1,,,,,
,,318429,001,2023-07-24_20h59.20.773,arm3_q,2022.2.5,Win32,60.04202942,611d4891122d6413d83ffb29,64aeaab685a29f4ca249be02,64bec9b752ea42583ba6c31e,up,1,0.1786,0.35,12,0,0.5904,,,,,,141,0,141,0,1,,,,,
,,318429,001,2023-07-24_20h59.20.773,arm3_q,2022.2.5,Win32,60.04202942,611d4891122d6413d83ffb29,64aeaab685a29f4ca249be02,64bec9b752ea42583ba6c31e,right,1,0.1786,0.35,12,0.00302012,1.5151,,,,,,142,0,142,0,1,,,,,
,,318429,001,2023-07-24_20h59.20.773,arm3_q,2022.2.5,Win32,60.04202942,611d4891122d6413d83ffb29,64aeaab685a29f4ca249be02,64bec9b752ea42583ba6c31e,up,-1,0.1786,0.35,13,0,0.462,,,,,,143,0,143,0,1,,,,,
,,318429,001,2023-07-24_20h59.20.773,arm3_q,2022.2.5,Win32,60.04202942,611d4891122d6413d83ffb29,64aeaab685a29f4ca249be02,64bec9b752ea42583ba6c31e,down,1,0.1786,0.35,13,0,2.109,,,,,,144,0,144,0,1,,,,,
,,318429,001,2023-07-24_20h59.20.773,arm3_q,2022.2.5,Win32,60.04202942,611d4891122d6413d83ffb29,64aeaab685a29f4ca249be02,64bec9b752ea42583ba6c31e,right,1,0.1786,0.35,13,-0.0100222,1.2867,,,,,,145,0,145,0,1,,,,,
,,318429,001,2023-07-24_20h59.20.773,arm3_q,2022.2.5,Win32,60.04202942,611d4891122d6413d83ffb29,64aeaab685a29f4ca249be02,64bec9b752ea42583ba6c31e,down,1,0.1786,0.35,13,0,0.5591,,,,,,146,0,146,0,1,,,,,
,,318429,001,2023-07-24_20h59.20.773,arm3_q,2022.2.5,Win32,60.04202942,611d4891122d6413d83ffb29,64aeaab685a29f4ca249be02,64bec9b752ea42583ba6c31e,down,1,0.1786,0.35,13,0,1.0785,,,,,,147,0,147,0,1,,,,,
,,318429,001,2023-07-24_20h59.20.773,arm3_q,2022.2.5,Win32,60.04202942,611d4891122d6413d83ffb29,64aeaab685a29f4ca249be02,64bec9b752ea42583ba6c31e,down,1,0.1786,0.35,13,0,1.5411,,,,,,148,0,148,0,1,,,,,
,,318429,001,2023-07-24_20h59.20.773,arm3_q,2022.2.5,Win32,60.04202942,611d4891122d6413d83ffb29,64aeaab685a29f4ca249be02,64bec9b752ea42583ba6c31e,up,1,0.1786,0.35,14,0,0.9412,,,,,,149,0,149,0,1,,,,,
,,318429,001,2023-07-24_20h59.20.773,arm3_q,2022.2.5,Win32,60.04202942,611d4891122d6413d83ffb29,64aeaab685a29f4ca249be02,64bec9b752ea42583ba6c31e,up,1,0.1786,0.35,14,0,1.1438,,,,,,150,0,150,0,1,,,,,
,,318429,001,2023-07-24_20h59.20.773,arm3_q,2022.2.5,Win32,60.04202942,611d4891122d6413d83ffb29,64aeaab685a29f4ca249be02,64bec9b752ea42583ba6c31e,up,1,0.1786,0.35,15,0,0.9011,,,,,,151,0,151,0,1,,,,,
,,318429,001,2023-07-24_20h59.20.773,arm3_q,2022.2.5,Win32,60.04202942,611d4891122d6413d83ffb29,64aeaab685a29f4ca249be02,64bec9b752ea42583ba6c31e,up,-1,0.1786,0.35,16,0,0.9522,,,,,,152,0,152,0,1,,,,,
,,318429,001,2023-07-24_20h59.20.773,arm3_q,2022.2.5,Win32,60.04202942,611d4891122d6413d83ffb29,64aeaab685a29f4ca249be02,64bec9b752ea42583ba6c31e,up,1,0.1786,0.35,16,0,1.0535,,,,,,153,0,153,0,1,,,,,
,,318429,001,2023-07-24_20h59.20.773,arm3_q,2022.2.5,Win32,60.04202942,611d4891122d6413d83ffb29,64aeaab685a29f4ca249be02,64bec9b752ea42583ba6c31e,up,-1,0.1786,0.35,16,0,0.9794,,,,,,154,0,154,0,1,,,,,
,,318429,001,2023-07-24_20h59.20.773,arm3_q,2022.2.5,Win32,60.04202942,611d4891122d6413d83ffb29,64aeaab685a29f4ca249be02,64bec9b752ea42583ba6c31e,up,1,0.1786,0.35,16,0,1.3612,,,,,,155,0,155,0,1,,,,,
,,318429,001,2023-07-24_20h59.20.773,arm3_q,2022.2.5,Win32,60.04202942,611d4891122d6413d83ffb29,64aeaab685a29f4ca249be02,64bec9b752ea42583ba6c31e,up,-1,0.1786,0.35,16,0,0.8948,,,,,,156,0,156,0,1,,,,,
,,318429,001,2023-07-24_20h59.20.773,arm3_q,2022.2.5,Win32,60.04202942,611d4891122d6413d83ffb29,64aeaab685a29f4ca249be02,64bec9b752ea42583ba6c31e,up,-1,0.1786,0.35,16,0,0.8612,,,,,,157,0,157,0,1,,,,,
,,318429,001,2023-07-24_20h59.20.773,arm3_q,2022.2.5,Win32,60.04202942,611d4891122d6413d83ffb29,64aeaab685a29f4ca249be02,64bec9b752ea42583ba6c31e,up,1,0.1786,0.35,15,0,0.9178,,,,,,158,0,158,0,1,,,,,
,,318429,001,2023-07-24_20h59.20.773,arm3_q,2022.2.5,Win32,60.04202942,611d4891122d6413d83ffb29,64aeaab685a29f4ca249be02,64bec9b752ea42583ba6c31e,down,1,0.1786,0.35,14,0,0.9019,,,,,,159,0,159,0,1,,,,,
,,318429,001,2023-07-24_20h59.20.773,arm3_q,2022.2.5,Win32,60.04202942,611d4891122d6413d83ffb29,64aeaab685a29f4ca249be02,64bec9b752ea42583ba6c31e,up,-1,0.1786,0.35,15,0,0.8122,,,,,,160,0,160,0,1,,,,,
,,318429,001,2023-07-24_20h59.20.773,arm3_q,2022.2.5,Win32,60.04202942,611d4891122d6413d83ffb29,64aeaab685a29f4ca249be02,64bec9b752ea42583ba6c31e,down,-1,0.1786,0.35,15,0,0.7969,,,,,,161,0,161,0,1,,,,,
,,318429,001,2023-07-24_20h59.20.773,arm3_q,2022.2.5,Win32,60.04202942,611d4891122d6413d83ffb29,64aeaab685a29f4ca249be02,64bec9b752ea42583ba6c31e,up,1,0.1786,0.35,15,0,0.8296,,,,,,162,0,162,0,1,,,,,
,,318429,001,2023-07-24_20h59.20.773,arm3_q,2022.2.5,Win32,60.04202942,611d4891122d6413d83ffb29,64aeaab685a29f4ca249be02,64bec9b752ea42583ba6c31e,down,-1,0.1786,0.35,15,0,0.7489,,,,,,163,0,163,0,1,,,,,
,,318429,001,2023-07-24_20h59.20.773,arm3_q,2022.2.5,Win32,60.04202942,611d4891122d6413d83ffb29,64aeaab685a29f4ca249be02,64bec9b752ea42583ba6c31e,down,1,0.1786,0.35,15,0,0.7475,,,,,,164,0,164,0,1,,,,,
,,318429,001,2023-07-24_20h59.20.773,arm3_q,2022.2.5,Win32,60.04202942,611d4891122d6413d83ffb29,64aeaab685a29f4ca249be02,64bec9b752ea42583ba6c31e,up,-1,0.1786,0.35,16,0,0.7974,,,,,,165,0,165,0,1,,,,,
,,318429,001,2023-07-24_20h59.20.773,arm3_q,2022.2.5,Win32,60.04202942,611d4891122d6413d83ffb29,64aeaab685a29f4ca249be02,64bec9b752ea42583ba6c31e,down,1,0.1786,0.35,16,0,1.2683,,,,,,166,0,166,0,1,,,,,
,,318429,001,2023-07-24_20h59.20.773,arm3_q,2022.2.5,Win32,60.04202942,611d4891122d6413d83ffb29,64aeaab685a29f4ca249be02,64bec9b752ea42583ba6c31e,up,1,0.1786,0.35,16,0,0.7641,,,,,,167,0,167,0,1,,,,,
,,318429,001,2023-07-24_20h59.20.773,arm3_q,2022.2.5,Win32,60.04202942,611d4891122d6413d83ffb29,64aeaab685a29f4ca249be02,64bec9b752ea42583ba6c31e,down,-1,0.1786,0.35,16,0,0.7797,,,,,,168,0,168,0,1,,,,,
,,318429,001,2023-07-24_20h59.20.773,arm3_q,2022.2.5,Win32,60.04202942,611d4891122d6413d83ffb29,64aeaab685a29f4ca249be02,64bec9b752ea42583ba6c31e,up,-1,0.1786,0.35,16,0,0.8263,,,,,,169,0,169,0,1,,,,,
,,318429,001,2023-07-24_20h59.20.773,arm3_q,2022.2.5,Win32,60.04202942,611d4891122d6413d83ffb29,64aeaab685a29f4ca249be02,64bec9b752ea42583ba6c31e,down,-1,0.1786,0.35,16,0,0.7747,,,,,,170,0,170,0,1,,,,,
,,318429,001,2023-07-24_20h59.20.773,arm3_q,2022.2.5,Win32,60.04202942,611d4891122d6413d83ffb29,64aeaab685a29f4ca249be02,64bec9b752ea42583ba6c31e,up,1,0.1786,0.35,15,0,0.7813,,,,,,171,0,171,0,1,,,,,
,,318429,001,2023-07-24_20h59.20.773,arm3_q,2022.2.5,Win32,60.04202942,611d4891122d6413d83ffb29,64aeaab685a29f4ca249be02,64bec9b752ea42583ba6c31e,down,1,0.1786,0.35,15,0,1.0834,,,,,,172,0,172,0,1,,,,,
,,318429,001,2023-07-24_20h59.20.773,arm3_q,2022.2.5,Win32,60.04202942,611d4891122d6413d83ffb29,64aeaab685a29f4ca249be02,64bec9b752ea42583ba6c31e,up,-1,0.1786,0.35,16,0,1.0233,,,,,,173,0,173,0,1,,,,,
,,318429,001,2023-07-24_20h59.20.773,arm3_q,2022.2.5,Win32,60.04202942,611d4891122d6413d83ffb29,64aeaab685a29f4ca249be02,64bec9b752ea42583ba6c31e,up,-1,0.1786,0.35,15,0,1.2885,,,,,,174,0,174,0,1,,,,,
,,318429,001,2023-07-24_20h59.20.773,arm3_q,2022.2.5,Win32,60.04202942,611d4891122d6413d83ffb29,64aeaab685a29f4ca249be02,64bec9b752ea42583ba6c31e,up,1,0.1786,0.35,15,0,0.841,,,,,,175,0,175,0,1,,,,,
,,318429,001,2023-07-24_20h59.20.773,arm3_q,2022.2.5,Win32,60.04202942,611d4891122d6413d83ffb29,64aeaab685a29f4ca249be02,64bec9b752ea42583ba6c31e,up,1,0.1786,0.35,15,0,0.8997,,,,,,176,0,176,0,1,,,,,
,,318429,001,2023-07-24_20h59.20.773,arm3_q,2022.2.5,Win32,60.04202942,611d4891122d6413d83ffb29,64aeaab685a29f4ca249be02,64bec9b752ea42583ba6c31e,up,1,0.1786,0.35,15,0,1.0169,,,,,,177,0,177,0,1,,,,,
,,318429,001,2023-07-24_20h59.20.773,arm3_q,2022.2.5,Win32,60.04202942,611d4891122d6413d83ffb29,64aeaab685a29f4ca249be02,64bec9b752ea42583ba6c31e,up,1,0.1786,0.35,15,0,0.9437,,,,,,178,0,178,0,1,,,,,
,,318429,001,2023-07-24_20h59.20.773,arm3_q,2022.2.5,Win32,60.04202942,611d4891122d6413d83ffb29,64aeaab685a29f4ca249be02,64bec9b752ea42583ba6c31e,up,1,0.1786,0.35,15,0,1.1218,,,,,,179,0,179,0,1,,,,,
,,318429,001,2023-07-24_20h59.20.773,arm3_q,2022.2.5,Win32,60.04202942,611d4891122d6413d83ffb29,64aeaab685a29f4ca249be02,64bec9b752ea42583ba6c31e,up,-1,0.1786,0.35,15,0,1.1967,,,,,,180,0,180,0,1,,,,,
,,318429,001,2023-07-24_20h59.20.773,arm3_q,2022.2.5,Win32,60.04202942,611d4891122d6413d83ffb29,64aeaab685a29f4ca249be02,64bec9b752ea42583ba6c31e,down,1,0.1786,0.35,15,0,1.2748,,,,,,181,0,181,0,1,,,,,
,,318429,001,2023-07-24_20h59.20.773,arm3_q,2022.2.5,Win32,60.04202942,611d4891122d6413d83ffb29,64aeaab685a29f4ca249be02,64bec9b752ea42583ba6c31e,up,1,0.1786,0.35,16,0,1.1636,,,,,,182,0,182,0,1,,,,,
,,318429,001,2023-07-24_20h59.20.773,arm3_q,2022.2.5,Win32,60.04202942,611d4891122d6413d83ffb29,64aeaab685a29f4ca249be02,64bec9b752ea42583ba6c31e,up,1,0.1786,0.35,17,0,1.2631,,,,,,183,0,183,0,1,,,,,
,,318429,001,2023-07-24_20h59.20.773,arm3_q,2022.2.5,Win32,60.04202942,611d4891122d6413d83ffb29,64aeaab685a29f4ca249be02,64bec9b752ea42583ba6c31e,up,1,0.1786,0.35,18,0,1.0444,,,,,,184,0,184,0,1,,,,,
,,318429,001,2023-07-24_20h59.20.773,arm3_q,2022.2.5,Win32,60.04202942,611d4891122d6413d83ffb29,64aeaab685a29f4ca249be02,64bec9b752ea42583ba6c31e,up,-1,0.1786,0.35,18,0,0.9494,,,,,,185,0,185,0,1,,,,,
,,318429,001,2023-07-24_20h59.20.773,arm3_q,2022.2.5,Win32,60.04202942,611d4891122d6413d83ffb29,64aeaab685a29f4ca249be02,64bec9b752ea42583ba6c31e,up,1,0.1786,0.35,18,0,0.8935,,,,,,186,0,186,0,1,,,,,
,,318429,001,2023-07-24_20h59.20.773,arm3_q,2022.2.5,Win32,60.04202942,611d4891122d6413d83ffb29,64aeaab685a29f4ca249be02,64bec9b752ea42583ba6c31e,up,1,0.1786,0.35,18,0,0.8625,,,,,,187,0,187,0,1,,,,,
,,318429,001,2023-07-24_20h59.20.773,arm3_q,2022.2.5,Win32,60.04202942,611d4891122d6413d83ffb29,64aeaab685a29f4ca249be02,64bec9b752ea42583ba6c31e,up,-1,0.1786,0.35,18,0,0.8471,,,,,,188,0,188,0,1,,,,,
,,318429,001,2023-07-24_20h59.20.773,arm3_q,2022.2.5,Win32,60.04202942,611d4891122d6413d83ffb29,64aeaab685a29f4ca249be02,64bec9b752ea42583ba6c31e,up,1,0.1786,0.35,18,0,0.8478,,,,,,189,0,189,0,1,,,,,
,,318429,001,2023-07-24_20h59.20.773,arm3_q,2022.2.5,Win32,60.04202942,611d4891122d6413d83ffb29,64aeaab685a29f4ca249be02,64bec9b752ea42583ba6c31e,down,-1,0.1786,0.35,17,0,1.5822,,,,,,190,0,190,0,1,,,,,
,,318429,001,2023-07-24_20h59.20.773,arm3_q,2022.2.5,Win32,60.04202942,611d4891122d6413d83ffb29,64aeaab685a29f4ca249be02,64bec9b752ea42583ba6c31e,up,-1,0.1786,0.35,17,0,1.4413,,,,,,191,0,191,0,1,,,,,
,,318429,001,2023-07-24_20h59.20.773,arm3_q,2022.2.5,Win32,60.04202942,611d4891122d6413d83ffb29,64aeaab685a29f4ca249be02,64bec9b752ea42583ba6c31e,down,1,0.1786,0.35,17,0,1.6588,,,,,,192,0,192,0,1,,,,,
,,318429,001,2023-07-24_20h59.20.773,arm3_q,2022.2.5,Win32,60.04202942,611d4891122d6413d83ffb29,64aeaab685a29f4ca249be02,64bec9b752ea42583ba6c31e,up,1,0.1786,0.35,17,0,1.1769,,,,,,193,0,193,0,1,,,,,
,,318429,001,2023-07-24_20h59.20.773,arm3_q,2022.2.5,Win32,60.04202942,611d4891122d6413d83ffb29,64aeaab685a29f4ca249be02,64bec9b752ea42583ba6c31e,down,1,0.1786,0.35,16,0,1.7272,,,,,,194,0,194,0,1,,,,,
,,318429,001,2023-07-24_20h59.20.773,arm3_q,2022.2.5,Win32,60.04202942,611d4891122d6413d83ffb29,64aeaab685a29f4ca249be02,64bec9b752ea42583ba6c31e,up,-1,0.1786,0.35,16,0,1.1869,,,,,,195,0,195,0,1,,,,,
,,318429,001,2023-07-24_20h59.20.773,arm3_q,2022.2.5,Win32,60.04202942,611d4891122d6413d83ffb29,64aeaab685a29f4ca249be02,64bec9b752ea42583ba6c31e,up,-1,0.1786,0.35,16,0,0.8978,,,,,,196,0,196,0,1,,,,,
,,318429,001,2023-07-24_20h59.20.773,arm3_q,2022.2.5,Win32,60.04202942,611d4891122d6413d83ffb29,64aeaab685a29f4ca249be02,64bec9b752ea42583ba6c31e,up,1,0.1786,0.35,16,0,1.0989,,,,,,197,0,197,0,1,,,,,
,,318429,001,2023-07-24_20h59.20.773,arm3_q,2022.2.5,Win32,60.04202942,611d4891122d6413d83ffb29,64aeaab685a29f4ca249be02,64bec9b752ea42583ba6c31e,right,1,0.1786,0.35,16,-0.011057931,2.139,,,,,,198,0,198,0,1,,,,,
,,318429,001,2023-07-24_20h59.20.773,arm3_q,2022.2.5,Win32,60.04202942,611d4891122d6413d83ffb29,64aeaab685a29f4ca249be02,64bec9b752ea42583ba6c31e,down,1,0.1786,0.35,16,0,1.2131,,,,,,199,0,199,0,1,,,,,
,,318429,001,2023-07-24_20h59.20.773,arm3_q,2022.2.5,Win32,60.04202942,611d4891122d6413d83ffb29,64aeaab685a29f4ca249be02,64bec9b752ea42583ba6c31e,down,-1,0.1786,0.35,15,0,0.8292,,,,,,200,0,200,0,1,,,,,
,,318429,001,2023-07-24_20h59.20.773,arm3_q,2022.2.5,Win32,60.04202942,611d4891122d6413d83ffb29,64aeaab685a29f4ca249be02,64bec9b752ea42583ba6c31e,down,-1,0.1786,0.35,15,0,1.1031,,,,,,201,0,201,0,1,,,,,
,,318429,001,2023-07-24_20h59.20.773,arm3_q,2022.2.5,Win32,60.04202942,611d4891122d6413d83ffb29,64aeaab685a29f4ca249be02,64bec9b752ea42583ba6c31e,down,-1,0.1786,0.35,15,0,0.7712,,,,,,202,0,202,0,1,,,,,
,,318429,001,2023-07-24_20h59.20.773,arm3_q,2022.2.5,Win32,60.04202942,611d4891122d6413d83ffb29,64aeaab685a29f4ca249be02,64bec9b752ea42583ba6c31e,down,1,0.1786,0.35,15,0,1.2978,,,,,,203,0,203,0,1,,,,,
,,318429,001,2023-07-24_20h59.20.773,arm3_q,2022.2.5,Win32,60.04202942,611d4891122d6413d83ffb29,64aeaab685a29f4ca249be02,64bec9b752ea42583ba6c31e,down,1,0.1786,0.35,15,0,1.0587,,,,,,204,0,204,0,1,,,,,
,,318429,001,2023-07-24_20h59.20.773,arm3_q,2022.2.5,Win32,60.04202942,611d4891122d6413d83ffb29,64aeaab685a29f4ca249be02,64bec9b752ea42583ba6c31e,up,1,0.1786,0.35,15,0,1.3119,,,,,,205,0,205,0,1,,,,,
,,318429,001,2023-07-24_20h59.20.773,arm3_q,2022.2.5,Win32,60.04202942,611d4891122d6413d83ffb29,64aeaab685a29f4ca249be02,64bec9b752ea42583ba6c31e,down,1,0.1786,0.35,15,0,1.4116,,,,,,206,0,206,0,1,,,,,
,,318429,001,2023-07-24_20h59.20.773,arm3_q,2022.2.5,Win32,60.04202942,611d4891122d6413d83ffb29,64aeaab685a29f4ca249be02,64bec9b752ea42583ba6c31e,up,-1,0.1786,0.35,15,0,1.8641,,,,,,207,0,207,0,1,,,,,
,,318429,001,2023-07-24_20h59.20.773,arm3_q,2022.2.5,Win32,60.04202942,611d4891122d6413d83ffb29,64aeaab685a29f4ca249be02,64bec9b752ea42583ba6c31e,up,-1,0.1786,0.35,15,0,0.7098,,,,,,208,0,208,0,1,,,,,
,,318429,001,2023-07-24_20h59.20.773,arm3_q,2022.2.5,Win32,60.04202942,611d4891122d6413d83ffb29,64aeaab685a29f4ca249be02,64bec9b752ea42583ba6c31e,up,1,0.1786,0.35,15,0,0.7989,,,,,,209,0,209,0,1,,,,,
,,318429,001,2023-07-24_20h59.20.773,arm3_q,2022.2.5,Win32,60.04202942,611d4891122d6413d83ffb29,64aeaab685a29f4ca249be02,64bec9b752ea42583ba6c31e,up,-1,0.1786,0.35,16,0,0.8108,,,,,,210,0,210,0,1,,,,,
,,318429,001,2023-07-24_20h59.20.773,arm3_q,2022.2.5,Win32,60.04202942,611d4891122d6413d83ffb29,64aeaab685a29f4ca249be02,64bec9b752ea42583ba6c31e,up,-1,0.1786,0.35,16,0,0.7908,,,,,,211,0,211,0,1,,,,,
,,318429,001,2023-07-24_20h59.20.773,arm3_q,2022.2.5,Win32,60.04202942,611d4891122d6413d83ffb29,64aeaab685a29f4ca249be02,64bec9b752ea42583ba6c31e,up,-1,0.1786,0.35,15,0,0.7172,,,,,,212,0,212,0,1,,,,,
,,318429,001,2023-07-24_20h59.20.773,arm3_q,2022.2.5,Win32,60.04202942,611d4891122d6413d83ffb29,64aeaab685a29f4ca249be02,64bec9b752ea42583ba6c31e,up,1,0.1786,0.35,15,0,0.7251,,,,,,213,0,213,0,1,,,,,
,,318429,001,2023-07-24_20h59.20.773,arm3_q,2022.2.5,Win32,60.04202942,611d4891122d6413d83ffb29,64aeaab685a29f4ca249be02,64bec9b752ea42583ba6c31e,up,1,0.1786,0.35,16,0,0.6933,,,,,,214,0,214,0,1,,,,,
,,318429,001,2023-07-24_20h59.20.773,arm3_q,2022.2.5,Win32,60.04202942,611d4891122d6413d83ffb29,64aeaab685a29f4ca249be02,64bec9b752ea42583ba6c31e,up,-1,0.1786,0.35,16,0,0.6996,,,,,,215,0,215,0,1,,,,,
,,318429,001,2023-07-24_20h59.20.773,arm3_q,2022.2.5,Win32,60.04202942,611d4891122d6413d83ffb29,64aeaab685a29f4ca249be02,64bec9b752ea42583ba6c31e,up,1,0.1786,0.35,15,0,0.7024,,,,,,216,0,216,0,1,,,,,
,,318429,001,2023-07-24_20h59.20.773,arm3_q,2022.2.5,Win32,60.04202942,611d4891122d6413d83ffb29,64aeaab685a29f4ca249be02,64bec9b752ea42583ba6c31e,up,1,0.1786,0.35,15,0,0.6147,,,,,,217,0,217,0,1,,,,,
,,318429,001,2023-07-24_20h59.20.773,arm3_q,2022.2.5,Win32,60.04202942,611d4891122d6413d83ffb29,64aeaab685a29f4ca249be02,64bec9b752ea42583ba6c31e,up,1,0.1786,0.35,15,0,0.702,,,,,,218,0,218,0,1,,,,,
,,318429,001,2023-07-24_20h59.20.773,arm3_q,2022.2.5,Win32,60.04202942,611d4891122d6413d83ffb29,64aeaab685a29f4ca249be02,64bec9b752ea42583ba6c31e,up,1,0.1786,0.35,15,0,0.7627,,,,,,219,0,219,0,1,,,,,
,,318429,001,2023-07-24_20h59.20.773,arm3_q,2022.2.5,Win32,60.04202942,611d4891122d6413d83ffb29,64aeaab685a29f4ca249be02,64bec9b752ea42583ba6c31e,up,-1,0.1786,0.35,15,0,0.6771,,,,,,220,0,220,0,1,,,,,
,,318429,001,2023-07-24_20h59.20.773,arm3_q,2022.2.5,Win32,60.04202942,611d4891122d6413d83ffb29,64aeaab685a29f4ca249be02,64bec9b752ea42583ba6c31e,down,1,0.1786,0.35,15,0,0.6641,,,,,,221,0,221,0,1,,,,,
,,318429,001,2023-07-24_20h59.20.773,arm3_q,2022.2.5,Win32,60.04202942,611d4891122d6413d83ffb29,64aeaab685a29f4ca249be02,64bec9b752ea42583ba6c31e,up,1,0.1786,0.35,15,0,0.7124,,,,,,222,0,222,0,1,,,,,
,,318429,001,2023-07-24_20h59.20.773,arm3_q,2022.2.5,Win32,60.04202942,611d4891122d6413d83ffb29,64aeaab685a29f4ca249be02,64bec9b752ea42583ba6c31e,down,-1,0.1786,0.35,14,0,0.5759,,,,,,223,0,223,0,1,,,,,
,,318429,001,2023-07-24_20h59.20.773,arm3_q,2022.2.5,Win32,60.04202942,611d4891122d6413d83ffb29,64aeaab685a29f4ca249be02,64bec9b752ea42583ba6c31e,down,-1,0.1786,0.35,14,0,0.6272,,,,,,224,0,224,0,1,,,,,
,,318429,001,2023-07-24_20h59.20.773,arm3_q,2022.2.5,Win32,60.04202942,611d4891122d6413d83ffb29,64aeaab685a29f4ca249be02,64bec9b752ea42583ba6c31e,down,-1,0.1786,0.35,15,0,0.5824,,,,,,225,0,225,0,1,,,,,
,,318429,001,2023-07-24_20h59.20.773,arm3_q,2022.2.5,Win32,60.04202942,611d4891122d6413d83ffb29,64aeaab685a29f4ca249be02,64bec9b752ea42583ba6c31e,down,-1,0.1786,0.35,15,0,0.6105,,,,,,226,0,226,0,1,,,,,
,,318429,001,2023-07-24_20h59.20.773,arm3_q,2022.2.5,Win32,60.04202942,611d4891122d6413d83ffb29,64aeaab685a29f4ca249be02,64bec9b752ea42583ba6c31e,up,-1,0.1786,0.35,15,0,0.6136,,,,,,227,0,227,0,1,,,,,
,,318429,001,2023-07-24_20h59.20.773,arm3_q,2022.2.5,Win32,60.04202942,611d4891122d6413d83ffb29,64aeaab685a29f4ca249be02,64bec9b752ea42583ba6c31e,down,-1,0.1786,0.35,15,0,0.5881,,,,,,228,0,228,0,1,,,,,
,,318429,001,2023-07-24_20h59.20.773,arm3_q,2022.2.5,Win32,60.04202942,611d4891122d6413d83ffb29,64aeaab685a29f4ca249be02,64bec9b752ea42583ba6c31e,up,1,0.1786,0.35,14,0,0.6021,,,,,,229,0,229,0,1,,,,,
,,318429,001,2023-07-24_20h59.20.773,arm3_q,2022.2.5,Win32,60.04202942,611d4891122d6413d83ffb29,64aeaab685a29f4ca249be02,64bec9b752ea42583ba6c31e,down,1,0.1786,0.35,14,0,0.5843,,,,,,230,0,230,0,1,,,,,
,,318429,001,2023-07-24_20h59.20.773,arm3_q,2022.2.5,Win32,60.04202942,611d4891122d6413d83ffb29,64aeaab685a29f4ca249be02,64bec9b752ea42583ba6c31e,up,1,0.1786,0.35,15,0,0.6087,,,,,,231,0,231,0,1,,,,,
,,318429,001,2023-07-24_20h59.20.773,arm3_q,2022.2.5,Win32,60.04202942,611d4891122d6413d83ffb29,64aeaab685a29f4ca249be02,64bec9b752ea42583ba6c31e,down,1,0.1786,0.35,15,0,0.5207,,,,,,232,0,232,0,1,,,,,
,,318429,001,2023-07-24_20h59.20.773,arm3_q,2022.2.5,Win32,60.04202942,611d4891122d6413d83ffb29,64aeaab685a29f4ca249be02,64bec9b752ea42583ba6c31e,up,1,0.1786,0.35,15,0,0.6284,,,,,,233,0,233,0,1,,,,,
,,318429,001,2023-07-24_20h59.20.773,arm3_q,2022.2.5,Win32,60.04202942,611d4891122d6413d83ffb29,64aeaab685a29f4ca249be02,64bec9b752ea42583ba6c31e,down,-1,0.1786,0.35,15,0,0.5539,,,,,,234,0,234,0,1,,,,,
,,318429,001,2023-07-24_20h59.20.773,arm3_q,2022.2.5,Win32,60.04202942,611d4891122d6413d83ffb29,64aeaab685a29f4ca249be02,64bec9b752ea42583ba6c31e,down,1,0.1786,0.35,15,0,1.1771,,,,,,235,0,235,0,1,,,,,
,,318429,001,2023-07-24_20h59.20.773,arm3_q,2022.2.5,Win32,60.04202942,611d4891122d6413d83ffb29,64aeaab685a29f4ca249be02,64bec9b752ea42583ba6c31e,up,1,0.1786,0.35,15,0,1.0863,,,,,,236,0,236,0,1,,,,,
,,318429,001,2023-07-24_20h59.20.773,arm3_q,2022.2.5,Win32,60.04202942,611d4891122d6413d83ffb29,64aeaab685a29f4ca249be02,64bec9b752ea42583ba6c31e,down,-1,0.1786,0.35,15,0,1.0951,,,,,,237,0,237,0,1,,,,,
,,318429,001,2023-07-24_20h59.20.773,arm3_q,2022.2.5,Win32,60.04202942,611d4891122d6413d83ffb29,64aeaab685a29f4ca249be02,64bec9b752ea42583ba6c31e,up,-1,0.1786,0.35,15,0,0.5189,,,,,,238,0,238,0,1,,,,,
,,318429,001,2023-07-24_20h59.20.773,arm3_q,2022.2.5,Win32,60.04202942,611d4891122d6413d83ffb29,64aeaab685a29f4ca249be02,64bec9b752ea42583ba6c31e,down,-1,0.1786,0.35,16,0,0.5713,,,,,,239,0,239,0,1,,,,,
,,318429,001,2023-07-24_20h59.20.773,arm3_q,2022.2.5,Win32,60.04202942,611d4891122d6413d83ffb29,64aeaab685a29f4ca249be02,64bec9b752ea42583ba6c31e,up,-1,0.1786,0.35,16,0,0.521,,,,,,240,0,240,0,1,,,,,
,,318429,001,2023-07-24_20h59.20.773,arm3_q,2022.2.5,Win32,60.04202942,611d4891122d6413d83ffb29,64aeaab685a29f4ca249be02,64bec9b752ea42583ba6c31e,up,-1,0.1786,0.35,16,0,1.1998,,,,,,241,0,241,0,1,,,,,
,,318429,001,2023-07-24_20h59.20.773,arm3_q,2022.2.5,Win32,60.04202942,611d4891122d6413d83ffb29,64aeaab685a29f4ca249be02,64bec9b752ea42583ba6c31e,down,-1,0.1786,0.35,17,0,1.0962,,,,,,242,0,242,0,1,,,,,
,,318429,001,2023-07-24_20h59.20.773,arm3_q,2022.2.5,Win32,60.04202942,611d4891122d6413d83ffb29,64aeaab685a29f4ca249be02,64bec9b752ea42583ba6c31e,up,-1,0.1786,0.35,17,0,0.5901,,,,,,243,0,243,0,1,,,,,
,,318429,001,2023-07-24_20h59.20.773,arm3_q,2022.2.5,Win32,60.04202942,611d4891122d6413d83ffb29,64aeaab685a29f4ca249be02,64bec9b752ea42583ba6c31e,down,-1,0.1786,0.35,17,0,0.5405,,,,,,244,0,244,0,1,,,,,
,,318429,001,2023-07-24_20h59.20.773,arm3_q,2022.2.5,Win32,60.04202942,611d4891122d6413d83ffb29,64aeaab685a29f4ca249be02,64bec9b752ea42583ba6c31e,up,-1,0.1786,0.35,17,0,0.54,,,,,,245,0,245,0,1,,,,,
,,318429,001,2023-07-24_20h59.20.773,arm3_q,2022.2.5,Win32,60.04202942,611d4891122d6413d83ffb29,64aeaab685a29f4ca249be02,64bec9b752ea42583ba6c31e,down,-1,0.1786,0.35,17,0,1.3159,,,,,,246,0,246,0,1,,,,,
,,318429,001,2023-07-24_20h59.20.773,arm3_q,2022.2.5,Win32,60.04202942,611d4891122d6413d83ffb29,64aeaab685a29f4ca249be02,64bec9b752ea42583ba6c31e,up,-1,0.1786,0.35,17,0,0.9917,,,,,,247,0,247,0,1,,,,,
,,318429,001,2023-07-24_20h59.20.773,arm3_q,2022.2.5,Win32,60.04202942,611d4891122d6413d83ffb29,64aeaab685a29f4ca249be02,64bec9b752ea42583ba6c31e,down,-1,0.1786,0.35,17,0,0.9667,,,,,,248,0,248,0,1,,,,,
,,318429,001,2023-07-24_20h59.20.773,arm3_q,2022.2.5,Win32,60.04202942,611d4891122d6413d83ffb29,64aeaab685a29f4ca249be02,64bec9b752ea42583ba6c31e,up,1,0.1786,0.35,17,0,0.8646,,,,,,249,0,249,0,1,,,,,
,,318429,001,2023-07-24_20h59.20.773,arm3_q,2022.2.5,Win32,60.04202942,611d4891122d6413d83ffb29,64aeaab685a29f4ca249be02,64bec9b752ea42583ba6c31e,down,1,0.1786,0.35,17,0,0.5598,,,,,,250,0,250,0,1,,,,,
,,318429,001,2023-07-24_20h59.20.773,arm3_q,2022.2.5,Win32,60.04202942,611d4891122d6413d83ffb29,64aeaab685a29f4ca249be02,64bec9b752ea42583ba6c31e,up,-1,0.1786,0.35,17,0,0.4941,,,,,,251,0,251,0,1,,,,,
,,318429,001,2023-07-24_20h59.20.773,arm3_q,2022.2.5,Win32,60.04202942,611d4891122d6413d83ffb29,64aeaab685a29f4ca249be02,64bec9b752ea42583ba6c31e,up,-1,0.1786,0.35,17,0,0.5776,,,,,,252,0,252,0,1,,,,,
,,318429,001,2023-07-24_20h59.20.773,arm3_q,2022.2.5,Win32,60.04202942,611d4891122d6413d83ffb29,64aeaab685a29f4ca249be02,64bec9b752ea42583ba6c31e,up,-1,0.1786,0.35,17,0,1.1757,,,,,,253,0,253,0,1,,,,,
,,318429,001,2023-07-24_20h59.20.773,arm3_q,2022.2.5,Win32,60.04202942,611d4891122d6413d83ffb29,64aeaab685a29f4ca249be02,64bec9b752ea42583ba6c31e,up,-1,0.1786,0.35,17,0,0.3133,,,,,,254,0,254,0,1,,,,,
,,318429,001,2023-07-24_20h59.20.773,arm3_q,2022.2.5,Win32,60.04202942,611d4891122d6413d83ffb29,64aeaab685a29f4ca249be02,64bec9b752ea42583ba6c31e,up,-1,0.1786,0.35,17,0,0.828,,,,,,255,0,255,0,1,,,,,
,,318429,001,2023-07-24_20h59.20.773,arm3_q,2022.2.5,Win32,60.04202942,611d4891122d6413d83ffb29,64aeaab685a29f4ca249be02,64bec9b752ea42583ba6c31e,up,-1,0.1786,0.35,17,0,1.1288,,,,,,256,0,256,0,1,,,,,
,,318429,001,2023-07-24_20h59.20.773,arm3_q,2022.2.5,Win32,60.04202942,611d4891122d6413d83ffb29,64aeaab685a29f4ca249be02,64bec9b752ea42583ba6c31e,up,-1,0.1786,0.35,16,0,1.0561,,,,,,257,0,257,0,1,,,,,
,,318429,001,2023-07-24_20h59.20.773,arm3_q,2022.2.5,Win32,60.04202942,611d4891122d6413d83ffb29,64aeaab685a29f4ca249be02,64bec9b752ea42583ba6c31e,up,1,0.1786,0.35,15,0,0.9064,,,,,,258,0,258,0,1,,,,,
,,318429,001,2023-07-24_20h59.20.773,arm3_q,2022.2.5,Win32,60.04202942,611d4891122d6413d83ffb29,64aeaab685a29f4ca249be02,64bec9b752ea42583ba6c31e,up,-1,0.1786,0.35,15,0,2.7977,,,,,,259,0,259,0,1,,,,,
,,318429,001,2023-07-24_20h59.20.773,arm3_q,2022.2.5,Win32,60.04202942,611d4891122d6413d83ffb29,64aeaab685a29f4ca249be02,64bec9b752ea42583ba6c31e,up,-1,0.1786,0.35,15,0,0.7902,,,,,,260,0,260,0,1,,,,,
,,318429,001,2023-07-24_20h59.20.773,arm3_q,2022.2.5,Win32,60.04202942,611d4891122d6413d83ffb29,64aeaab685a29f4ca249be02,64bec9b752ea42583ba6c31e,up,1,0.1786,0.35,15,0,0.8144,,,,,,261,0,261,0,1,,,,,
,,318429,001,2023-07-24_20h59.20.773,arm3_q,2022.2.5,Win32,60.04202942,611d4891122d6413d83ffb29,64aeaab685a29f4ca249be02,64bec9b752ea42583ba6c31e,up,-1,0.1786,0.35,15,0,0.8789,,,,,,262,0,262,0,1,,,,,
,,318429,001,2023-07-24_20h59.20.773,arm3_q,2022.2.5,Win32,60.04202942,611d4891122d6413d83ffb29,64aeaab685a29f4ca249be02,64bec9b752ea42583ba6c31e,up,-1,0.1786,0.35,14,0,1.835,,,,,,263,0,263,0,1,,,,,
,,318429,001,2023-07-24_20h59.20.773,arm3_q,2022.2.5,Win32,60.04202942,611d4891122d6413d83ffb29,64aeaab685a29f4ca249be02,64bec9b752ea42583ba6c31e,down,1,0.1786,0.35,14,0,1.016,,,,,,264,0,264,0,1,,,,,
,,318429,001,2023-07-24_20h59.20.773,arm3_q,2022.2.5,Win32,60.04202942,611d4891122d6413d83ffb29,64aeaab685a29f4ca249be02,64bec9b752ea42583ba6c31e,up,-1,0.1786,0.35,14,0,1.087,,,,,,265,0,265,0,1,,,,,
,,318429,001,2023-07-24_20h59.20.773,arm3_q,2022.2.5,Win32,60.04202942,611d4891122d6413d83ffb29,64aeaab685a29f4ca249be02,64bec9b752ea42583ba6c31e,down,-1,0.1786,0.35,14,0,1.4873,,,,,,266,0,266,0,1,,,,,
,,318429,001,2023-07-24_20h59.20.773,arm3_q,2022.2.5,Win32,60.04202942,611d4891122d6413d83ffb29,64aeaab685a29f4ca249be02,64bec9b752ea42583ba6c31e,down,-1,0.1786,0.35,14,0,1.1791,,,,,,267,0,267,0,1,,,,,
,,318429,001,2023-07-24_20h59.20.773,arm3_q,2022.2.5,Win32,60.04202942,611d4891122d6413d83ffb29,64aeaab685a29f4ca249be02,64bec9b752ea42583ba6c31e,down,-1,0.1786,0.35,14,0,0.9104,,,,,,268,0,268,0,1,,,,,
,,318429,001,2023-07-24_20h59.20.773,arm3_q,2022.2.5,Win32,60.04202942,611d4891122d6413d83ffb29,64aeaab685a29f4ca249be02,64bec9b752ea42583ba6c31e,down,-1,0.1786,0.35,14,0,0.9597,,,,,,269,0,269,0,1,,,,,
,,318429,001,2023-07-24_20h59.20.773,arm3_q,2022.2.5,Win32,60.04202942,611d4891122d6413d83ffb29,64aeaab685a29f4ca249be02,64bec9b752ea42583ba6c31e,down,-1,0.1786,0.35,14,0,0.8935,,,,,,270,0,270,0,1,,,,,
,,318429,001,2023-07-24_20h59.20.773,arm3_q,2022.2.5,Win32,60.04202942,611d4891122d6413d83ffb29,64aeaab685a29f4ca249be02,64bec9b752ea42583ba6c31e,down,-1,0.1786,0.35,14,0,0.9464,,,,,,271,0,271,0,1,,,,,
,,318429,001,2023-07-24_20h59.20.773,arm3_q,2022.2.5,Win32,60.04202942,611d4891122d6413d83ffb29,64aeaab685a29f4ca249be02,64bec9b752ea42583ba6c31e,up,1,0.1786,0.35,14,0,1.0447,,,,,,272,0,272,0,1,,,,,
,,318429,001,2023-07-24_20h59.20.773,arm3_q,2022.2.5,Win32,60.04202942,611d4891122d6413d83ffb29,64aeaab685a29f4ca249be02,64bec9b752ea42583ba6c31e,down,1,0.1786,0.35,14,0,2.5609,,,,,,273,0,273,0,1,,,,,
,,318429,001,2023-07-24_20h59.20.773,arm3_q,2022.2.5,Win32,60.04202942,611d4891122d6413d83ffb29,64aeaab685a29f4ca249be02,64bec9b752ea42583ba6c31e,down,1,0.1786,0.35,14,0,1.1974,,,,,,274,0,274,0,1,,,,,
,,318429,001,2023-07-24_20h59.20.773,arm3_q,2022.2.5,Win32,60.04202942,611d4891122d6413d83ffb29,64aeaab685a29f4ca249be02,64bec9b752ea42583ba6c31e,down,-1,0.1786,0.35,14,0,1.0421,,,,,,275,0,275,0,1,,,,,
,,318429,001,2023-07-24_20h59.20.773,arm3_q,2022.2.5,Win32,60.04202942,611d4891122d6413d83ffb29,64aeaab685a29f4ca249be02,64bec9b752ea42583ba6c31e,down,1,0.1786,0.35,14,0,1.0271,,,,,,276,0,276,0,1,,,,,
,,318429,001,2023-07-24_20h59.20.773,arm3_q,2022.2.5,Win32,60.04202942,611d4891122d6413d83ffb29,64aeaab685a29f4ca249be02,64bec9b752ea42583ba6c31e,up,-1,0.1786,0.35,14,0,1.1289,,,,,,277,0,277,0,1,,,,,
,,318429,001,2023-07-24_20h59.20.773,arm3_q,2022.2.5,Win32,60.04202942,611d4891122d6413d83ffb29,64aeaab685a29f4ca249be02,64bec9b752ea42583ba6c31e,up,1,0.1786,0.35,14,0,1.312,,,,,,278,0,278,0,1,,,,,
,,318429,001,2023-07-24_20h59.20.773,arm3_q,2022.2.5,Win32,60.04202942,611d4891122d6413d83ffb29,64aeaab685a29f4ca249be02,64bec9b752ea42583ba6c31e,up,1,0.1786,0.35,14,0,1.163,,,,,,279,0,279,0,1,,,,,
,,318429,001,2023-07-24_20h59.20.773,arm3_q,2022.2.5,Win32,60.04202942,611d4891122d6413d83ffb29,64aeaab685a29f4ca249be02,64bec9b752ea42583ba6c31e,down,1,0.1786,0.35,13,0,1.3965,,,,,,280,0,280,0,1,,,,,
,,318429,001,2023-07-24_20h59.20.773,arm3_q,2022.2.5,Win32,60.04202942,611d4891122d6413d83ffb29,64aeaab685a29f4ca249be02,64bec9b752ea42583ba6c31e,up,-1,0.1786,0.35,13,0,0.9701,,,,,,281,0,281,0,1,,,,,
,,318429,001,2023-07-24_20h59.20.773,arm3_q,2022.2.5,Win32,60.04202942,611d4891122d6413d83ffb29,64aeaab685a29f4ca249be02,64bec9b752ea42583ba6c31e,down,-1,0.1786,0.35,13,0,1.0269,,,,,,282,0,282,0,1,,,,,
,,318429,001,2023-07-24_20h59.20.773,arm3_q,2022.2.5,Win32,60.04202942,611d4891122d6413d83ffb29,64aeaab685a29f4ca249be02,64bec9b752ea42583ba6c31e,up,-1,0.1786,0.35,13,0,1.0946,,,,,,283,0,283,0,1,,,,,
,,318429,001,2023-07-24_20h59.20.773,arm3_q,2022.2.5,Win32,60.04202942,611d4891122d6413d83ffb29,64aeaab685a29f4ca249be02,64bec9b752ea42583ba6c31e,up,-1,0.1786,0.35,13,0,1.7147,,,,,,284,0,284,0,1,,,,,
,,318429,001,2023-07-24_20h59.20.773,arm3_q,2022.2.5,Win32,60.04202942,611d4891122d6413d83ffb29,64aeaab685a29f4ca249be02,64bec9b752ea42583ba6c31e,down,-1,0.1786,0.35,13,0,2.9818,,,,,,285,0,285,0,1,,,,,
,,318429,001,2023-07-24_20h59.20.773,arm3_q,2022.2.5,Win32,60.04202942,611d4891122d6413d83ffb29,64aeaab685a29f4ca249be02,64bec9b752ea42583ba6c31e,down,-1,0.1786,0.35,13,0,0.9789,,,,,,286,0,286,0,1,,,,,
,,318429,001,2023-07-24_20h59.20.773,arm3_q,2022.2.5,Win32,60.04202942,611d4891122d6413d83ffb29,64aeaab685a29f4ca249be02,64bec9b752ea42583ba6c31e,down,-1,0.1786,0.35,13,0,0.9939,,,,,,287,0,287,0,1,,,,,
,,318429,001,2023-07-24_20h59.20.773,arm3_q,2022.2.5,Win32,60.04202942,611d4891122d6413d83ffb29,64aeaab685a29f4ca249be02,64bec9b752ea42583ba6c31e,up,-1,0.1786,0.35,13,0,0.931,,,,,,288,0,288,0,1,,,,,
,,318429,001,2023-07-24_20h59.20.773,arm3_q,2022.2.5,Win32,60.04202942,611d4891122d6413d83ffb29,64aeaab685a29f4ca249be02,64bec9b752ea42583ba6c31e,down,-1,0.1786,0.35,13,0,0.8178,,,,,,289,0,289,0,1,,,,,
,,318429,001,2023-07-24_20h59.20.773,arm3_q,2022.2.5,Win32,60.04202942,611d4891122d6413d83ffb29,64aeaab685a29f4ca249be02,64bec9b752ea42583ba6c31e,down,-1,0.1786,0.35,13,0,0.8637,,,,,,290,0,290,0,1,,,,,
,,318429,001,2023-07-24_20h59.20.773,arm3_q,2022.2.5,Win32,60.04202942,611d4891122d6413d83ffb29,64aeaab685a29f4ca249be02,64bec9b752ea42583ba6c31e,down,-1,0.1786,0.35,13,0,0.8469,,,,,,291,0,291,0,1,,,,,
,,318429,001,2023-07-24_20h59.20.773,arm3_q,2022.2.5,Win32,60.04202942,611d4891122d6413d83ffb29,64aeaab685a29f4ca249be02,64bec9b752ea42583ba6c31e,down,1,0.1786,0.35,13,0,0.8475,,,,,,292,0,292,0,1,,,,,
,,318429,001,2023-07-24_20h59.20.773,arm3_q,2022.2.5,Win32,60.04202942,611d4891122d6413d83ffb29,64aeaab685a29f4ca249be02,64bec9b752ea42583ba6c31e,down,1,0.1786,0.35,13,0,0.9486,,,,,,293,0,293,0,1,,,,,
,,318429,001,2023-07-24_20h59.20.773,arm3_q,2022.2.5,Win32,60.04202942,611d4891122d6413d83ffb29,64aeaab685a29f4ca249be02,64bec9b752ea42583ba6c31e,down,1,0.1786,0.35,13,0,0.8871,,,,,,294,0,294,0,1,,,,,
,,318429,001,2023-07-24_20h59.20.773,arm3_q,2022.2.5,Win32,60.04202942,611d4891122d6413d83ffb29,64aeaab685a29f4ca249be02,64bec9b752ea42583ba6c31e,down,1,0.1786,0.35,13,0,0.9305,,,,,,295,0,295,0,1,,,,,
,,318429,001,2023-07-24_20h59.20.773,arm3_q,2022.2.5,Win32,60.04202942,611d4891122d6413d83ffb29,64aeaab685a29f4ca249be02,64bec9b752ea42583ba6c31e,down,1,0.1786,0.35,13,0,0.8471,,,,,,296,0,296,0,1,,,,,
,,318429,001,2023-07-24_20h59.20.773,arm3_q,2022.2.5,Win32,60.04202942,611d4891122d6413d83ffb29,64aeaab685a29f4ca249be02,64bec9b752ea42583ba6c31e,down,1,0.1786,0.35,13,0,0.95,,,,,,297,0,297,0,1,,,,,
,,318429,001,2023-07-24_20h59.20.773,arm3_q,2022.2.5,Win32,60.04202942,611d4891122d6413d83ffb29,64aeaab685a29f4ca249be02,64bec9b752ea42583ba6c31e,down,1,0.1786,0.35,13,0,0.9139,,,,,,298,0,298,0,1,,,,,
,,318429,001,2023-07-24_20h59.20.773,arm3_q,2022.2.5,Win32,60.04202942,611d4891122d6413d83ffb29,64aeaab685a29f4ca249be02,64bec9b752ea42583ba6c31e,down,1,0.1786,0.35,13,0,2.2141,,,,,,299,0,299,0,1,,,,,
,,318429,001,2023-07-24_20h59.20.773,arm3_q,2022.2.5,Win32,60.04202942,611d4891122d6413d83ffb29,64aeaab685a29f4ca249be02,64bec9b752ea42583ba6c31e,down,1,0.1786,0.35,13,0,8.9837,,,,,,300,0,300,0,1,,,,,
,,318429,001,2023-07-24_20h59.20.773,arm3_q,2022.2.5,Win32,60.04202942,611d4891122d6413d83ffb29,64aeaab685a29f4ca249be02,64bec9b752ea42583ba6c31e,right,1,0.1786,0.35,13,-0.010645652,1.0803,,,,,,301,0,301,0,1,,,,,
,,318429,001,2023-07-24_20h59.20.773,arm3_q,2022.2.5,Win32,60.04202942,611d4891122d6413d83ffb29,64aeaab685a29f4ca249be02,64bec9b752ea42583ba6c31e,down,-1,0.1786,0.35,13,0,0.9565,,,,,,302,0,302,0,1,,,,,
,,318429,001,2023-07-24_20h59.20.773,arm3_q,2022.2.5,Win32,60.04202942,611d4891122d6413d83ffb29,64aeaab685a29f4ca249be02,64bec9b752ea42583ba6c31e,down,-1,0.1786,0.35,14,0,1.3818,,,,,,303,0,303,0,1,,,,,
,,318429,001,2023-07-24_20h59.20.773,arm3_q,2022.2.5,Win32,60.04202942,611d4891122d6413d83ffb29,64aeaab685a29f4ca249be02,64bec9b752ea42583ba6c31e,down,1,0.1786,0.35,14,0,1.1944,,,,,,304,0,304,0,1,,,,,
,,318429,001,2023-07-24_20h59.20.773,arm3_q,2022.2.5,Win32,60.04202942,611d4891122d6413d83ffb29,64aeaab685a29f4ca249be02,64bec9b752ea42583ba6c31e,down,1,0.1786,0.35,13,0,0.9695,,,,,,305,0,305,0,1,,,,,
,,318429,001,2023-07-24_20h59.20.773,arm3_q,2022.2.5,Win32,60.04202942,611d4891122d6413d83ffb29,64aeaab685a29f4ca249be02,64bec9b752ea42583ba6c31e,down,1,0.1786,0.35,13,0,1.0391,,,,,,306,0,306,0,1,,,,,
,,318429,001,2023-07-24_20h59.20.773,arm3_q,2022.2.5,Win32,60.04202942,611d4891122d6413d83ffb29,64aeaab685a29f4ca249be02,64bec9b752ea42583ba6c31e,down,1,0.1786,0.35,13,0,0.9244,,,,,,307,0,307,0,1,,,,,
,,318429,001,2023-07-24_20h59.20.773,arm3_q,2022.2.5,Win32,60.04202942,611d4891122d6413d83ffb29,64aeaab685a29f4ca249be02,64bec9b752ea42583ba6c31e,down,1,0.1786,0.35,13,0,0.0455,,,,,,308,0,308,0,1,,,,,
,,318429,001,2023-07-24_20h59.20.773,arm3_q,2022.2.5,Win32,60.04202942,611d4891122d6413d83ffb29,64aeaab685a29f4ca249be02,64bec9b752ea42583ba6c31e,down,1,0.1786,0.35,13,0,0.9826,,,,,,309,0,309,0,1,,,,,
,,318429,001,2023-07-24_20h59.20.773,arm3_q,2022.2.5,Win32,60.04202942,611d4891122d6413d83ffb29,64aeaab685a29f4ca249be02,64bec9b752ea42583ba6c31e,down,-1,0.1786,0.35,12,0,1.0798,,,,,,310,0,310,0,1,,,,,
,,318429,001,2023-07-24_20h59.20.773,arm3_q,2022.2.5,Win32,60.04202942,611d4891122d6413d83ffb29,64aeaab685a29f4ca249be02,64bec9b752ea42583ba6c31e,up,1,0.1786,0.35,12,0,2.4073,,,,,,311,0,311,0,1,,,,,
,,318429,001,2023-07-24_20h59.20.773,arm3_q,2022.2.5,Win32,60.04202942,611d4891122d6413d83ffb29,64aeaab685a29f4ca249be02,64bec9b752ea42583ba6c31e,down,1,0.1786,0.35,12,0,4.2886,,,,,,312,0,312,0,1,,,,,
,,318429,001,2023-07-24_20h59.20.773,arm3_q,2022.2.5,Win32,60.04202942,611d4891122d6413d83ffb29,64aeaab685a29f4ca249be02,64bec9b752ea42583ba6c31e,up,1,0.1786,0.35,12,0,0.3949,,,,,,313,0,313,0,1,,,,,
,,318429,001,2023-07-24_20h59.20.773,arm3_q,2022.2.5,Win32,60.04202942,611d4891122d6413d83ffb29,64aeaab685a29f4ca249be02,64bec9b752ea42583ba6c31e,down,1,0.1786,0.35,12,0,0.4819,,,,,,314,0,314,0,1,,,,,
,,318429,001,2023-07-24_20h59.20.773,arm3_q,2022.2.5,Win32,60.04202942,611d4891122d6413d83ffb29,64aeaab685a29f4ca249be02,64bec9b752ea42583ba6c31e,up,-1,0.1786,0.35,12,0,0.3803,,,,,,315,0,315,0,1,,,,,
,,318429,001,2023-07-24_20h59.20.773,arm3_q,2022.2.5,Win32,60.04202942,611d4891122d6413d83ffb29,64aeaab685a29f4ca249be02,64bec9b752ea42583ba6c31e,up,-1,0.1786,0.35,12,0,0.8125,,,,,,316,0,316,0,1,,,,,
,,318429,001,2023-07-24_20h59.20.773,arm3_q,2022.2.5,Win32,60.04202942,611d4891122d6413d83ffb29,64aeaab685a29f4ca249be02,64bec9b752ea42583ba6c31e,up,-1,0.1786,0.35,12,0,1.8532,,,,,,317,0,317,0,1,,,,,
,,318429,001,2023-07-24_20h59.20.773,arm3_q,2022.2.5,Win32,60.04202942,611d4891122d6413d83ffb29,64aeaab685a29f4ca249be02,64bec9b752ea42583ba6c31e,up,-1,0.1786,0.35,12,0,6.9275,,,,,,318,0,318,0,1,,,,,
,,318429,001,2023-07-24_20h59.20.773,arm3_q,2022.2.5,Win32,60.04202942,611d4891122d6413d83ffb29,64aeaab685a29f4ca249be02,64bec9b752ea42583ba6c31e,right,-1,0.1786,0.35,12,-0.007553751,10.7117,,,,,,319,0,319,0,1,,,,,
,,318429,001,2023-07-24_20h59.20.773,arm3_q,2022.2.5,Win32,60.04202942,611d4891122d6413d83ffb29,64aeaab685a29f4ca249be02,64bec9b752ea42583ba6c31e,right,-1,0.1786,0.35,12,-0.023114431,0.2424,,,,,,320,0,320,0,1,,,,,
,,318429,001,2023-07-24_20h59.20.773,arm3_q,2022.2.5,Win32,60.04202942,611d4891122d6413d83ffb29,64aeaab685a29f4ca249be02,64bec9b752ea42583ba6c31e,up,1,0.1786,0.35,12,0,0.9782,,,,,,321,0,321,0,1,,,,,
,,318429,001,2023-07-24_20h59.20.773,arm3_q,2022.2.5,Win32,60.04202942,611d4891122d6413d83ffb29,64aeaab685a29f4ca249be02,64bec9b752ea42583ba6c31e,up,1,0.1786,0.35,12,0,0.7644,,,,,,322,0,322,0,1,,,,,
,,318429,001,2023-07-24_20h59.20.773,arm3_q,2022.2.5,Win32,60.04202942,611d4891122d6413d83ffb29,64aeaab685a29f4ca249be02,64bec9b752ea42583ba6c31e,up,1,0.1786,0.35,12,0,0.7627,,,,,,323,0,323,0,1,,,,,
,,318429,001,2023-07-24_20h59.20.773,arm3_q,2022.2.5,Win32,60.04202942,611d4891122d6413d83ffb29,64aeaab685a29f4ca249be02,64bec9b752ea42583ba6c31e,up,1,0.1786,0.35,12,0,0.7926,,,,,,324,0,324,0,1,,,,,
,,318429,001,2023-07-24_20h59.20.773,arm3_q,2022.2.5,Win32,60.04202942,611d4891122d6413d83ffb29,64aeaab685a29f4ca249be02,64bec9b752ea42583ba6c31e,up,1,0.1786,0.35,12,0,0.777,,,,,,325,0,325,0,1,,,,,
,,318429,001,2023-07-24_20h59.20.773,arm3_q,2022.2.5,Win32,60.04202942,611d4891122d6413d83ffb29,64aeaab685a29f4ca249be02,64bec9b752ea42583ba6c31e,up,1,0.1786,0.35,12,0,0.7701,,,,,,326,0,326,0,1,,,,,
,,318429,001,2023-07-24_20h59.20.773,arm3_q,2022.2.5,Win32,60.04202942,611d4891122d6413d83ffb29,64aeaab685a29f4ca249be02,64bec9b752ea42583ba6c31e,up,1,0.1786,0.35,12,0,0.774,,,,,,327,0,327,0,1,,,,,
,,318429,001,2023-07-24_20h59.20.773,arm3_q,2022.2.5,Win32,60.04202942,611d4891122d6413d83ffb29,64aeaab685a29f4ca249be02,64bec9b752ea42583ba6c31e,up,-1,0.1786,0.35,12,0,0.7684,,,,,,328,0,328,0,1,,,,,
,,318429,001,2023-07-24_20h59.20.773,arm3_q,2022.2.5,Win32,60.04202942,611d4891122d6413d83ffb29,64aeaab685a29f4ca249be02,64bec9b752ea42583ba6c31e,up,-1,0.1786,0.35,12,0,0.7131,,,,,,329,0,329,0,1,,,,,
,,318429,001,2023-07-24_20h59.20.773,arm3_q,2022.2.5,Win32,60.04202942,611d4891122d6413d83ffb29,64aeaab685a29f4ca249be02,64bec9b752ea42583ba6c31e,up,1,0.1786,0.35,12,0,0.7643,,,,,,330,0,330,0,1,,,,,
,,318429,001,2023-07-24_20h59.20.773,arm3_q,2022.2.5,Win32,60.04202942,611d4891122d6413d83ffb29,64aeaab685a29f4ca249be02,64bec9b752ea42583ba6c31e,up,1,0.1786,0.35,12,0,0.7455,,,,,,331,0,331,0,1,,,,,
,,318429,001,2023-07-24_20h59.20.773,arm3_q,2022.2.5,Win32,60.04202942,611d4891122d6413d83ffb29,64aeaab685a29f4ca249be02,64bec9b752ea42583ba6c31e,right,1,0.1786,0.35,12,0.018739545,3.4855,,,,,,332,0,332,0,1,,,,,
,,318429,001,2023-07-24_20h59.20.773,arm3_q,2022.2.5,Win32,60.04202942,611d4891122d6413d83ffb29,64aeaab685a29f4ca249be02,64bec9b752ea42583ba6c31e,right,1,0.1786,0.35,12,0.021131499,0.1659,,,,,,333,0,333,0,1,,,,,
,,318429,001,2023-07-24_20h59.20.773,arm3_q,2022.2.5,Win32,60.04202942,611d4891122d6413d83ffb29,64aeaab685a29f4ca249be02,64bec9b752ea42583ba6c31e,right,1,0.1786,0.35,12,0.05070794,0.16,,,,,,334,0,334,0,1,,,,,
,,318429,001,2023-07-24_20h59.20.773,arm3_q,2022.2.5,Win32,60.04202942,611d4891122d6413d83ffb29,64aeaab685a29f4ca249be02,64bec9b752ea42583ba6c31e,up,1,0.1786,0.35,13,0,1.4575,,,,,,335,0,335,0,1,,,,,
,,318429,001,2023-07-24_20h59.20.773,arm3_q,2022.2.5,Win32,60.04202942,611d4891122d6413d83ffb29,64aeaab685a29f4ca249be02,64bec9b752ea42583ba6c31e,up,1,0.1786,0.35,13,0,9.2805,,,,,,336,0,336,0,1,,,,,
,,318429,001,2023-07-24_20h59.20.773,arm3_q,2022.2.5,Win32,60.04202942,611d4891122d6413d83ffb29,64aeaab685a29f4ca249be02,64bec9b752ea42583ba6c31e,up,1,0.1786,0.35,13,0,1.715,,,,,,337,0,337,0,1,,,,,
,,318429,001,2023-07-24_20h59.20.773,arm3_q,2022.2.5,Win32,60.04202942,611d4891122d6413d83ffb29,64aeaab685a29f4ca249be02,64bec9b752ea42583ba6c31e,up,-1,0.1786,0.35,13,0,0.9135,,,,,,338,0,338,0,1,,,,,
,,318429,001,2023-07-24_20h59.20.773,arm3_q,2022.2.5,Win32,60.04202942,611d4891122d6413d83ffb29,64aeaab685a29f4ca249be02,64bec9b752ea42583ba6c31e,right,-1,0.1786,0.35,13,-0.002479077,1.3786,,,,,,339,0,339,0,1,,,,,
,,318429,001,2023-07-24_20h59.20.773,arm3_q,2022.2.5,Win32,60.04202942,611d4891122d6413d83ffb29,64aeaab685a29f4ca249be02,64bec9b752ea42583ba6c31e,up,-1,0.1786,0.35,13,0,0.8912,,,,,,340,0,340,0,1,,,,,
,,318429,001,2023-07-24_20h59.20.773,arm3_q,2022.2.5,Win32,60.04202942,611d4891122d6413d83ffb29,64aeaab685a29f4ca249be02,64bec9b752ea42583ba6c31e,down,-1,0.1786,0.35,14,0,1.513,,,,,,341,0,341,0,1,,,,,
,,318429,001,2023-07-24_20h59.20.773,arm3_q,2022.2.5,Win32,60.04202942,611d4891122d6413d83ffb29,64aeaab685a29f4ca249be02,64bec9b752ea42583ba6c31e,up,-1,0.1786,0.35,14,0,1.3123,,,,,,342,0,342,0,1,,,,,
,,318429,001,2023-07-24_20h59.20.773,arm3_q,2022.2.5,Win32,60.04202942,611d4891122d6413d83ffb29,64aeaab685a29f4ca249be02,64bec9b752ea42583ba6c31e,down,1,0.1786,0.35,14,0,1.0452,,,,,,343,0,343,0,1,,,,,
,,318429,001,2023-07-24_20h59.20.773,arm3_q,2022.2.5,Win32,60.04202942,611d4891122d6413d83ffb29,64aeaab685a29f4ca249be02,64bec9b752ea42583ba6c31e,down,1,0.1786,0.35,14,0,1.5167,,,,,,344,0,344,0,1,,,,,
,,318429,001,2023-07-24_20h59.20.773,arm3_q,2022.2.5,Win32,60.04202942,611d4891122d6413d83ffb29,64aeaab685a29f4ca249be02,64bec9b752ea42583ba6c31e,down,1,0.1786,0.35,14,0,0.9806,,,,,,345,0,345,0,1,,,,,
,,318429,001,2023-07-24_20h59.20.773,arm3_q,2022.2.5,Win32,60.04202942,611d4891122d6413d83ffb29,64aeaab685a29f4ca249be02,64bec9b752ea42583ba6c31e,up,1,0.1786,0.35,14,0,1.6117,,,,,,346,0,346,0,1,,,,,
,,318429,001,2023-07-24_20h59.20.773,arm3_q,2022.2.5,Win32,60.04202942,611d4891122d6413d83ffb29,64aeaab685a29f4ca249be02,64bec9b752ea42583ba6c31e,up,-1,0.1786,0.35,14,0,1.9494,,,,,,347,0,347,0,1,,,,,
,,318429,001,2023-07-24_20h59.20.773,arm3_q,2022.2.5,Win32,60.04202942,611d4891122d6413d83ffb29,64aeaab685a29f4ca249be02,64bec9b752ea42583ba6c31e,up,-1,0.1786,0.35,14,0,0.9263,,,,,,348,0,348,0,1,,,,,
,,318429,001,2023-07-24_20h59.20.773,arm3_q,2022.2.5,Win32,60.04202942,611d4891122d6413d83ffb29,64aeaab685a29f4ca249be02,64bec9b752ea42583ba6c31e,up,-1,0.1786,0.35,14,0,0.982,,,,,,349,0,349,0,1,,,,,
,,318429,001,2023-07-24_20h59.20.773,arm3_q,2022.2.5,Win32,60.04202942,611d4891122d6413d83ffb29,64aeaab685a29f4ca249be02,64bec9b752ea42583ba6c31e,down,-1,0.1786,0.35,14,0,1.0683,,,,,,350,0,350,0,1,,,,,
,,318429,001,2023-07-24_20h59.20.773,arm3_q,2022.2.5,Win32,60.04202942,611d4891122d6413d83ffb29,64aeaab685a29f4ca249be02,64bec9b752ea42583ba6c31e,down,-1,0.1786,0.35,14,0,1.0099,,,,,,351,0,351,0,1,,,,,
,,318429,001,2023-07-24_20h59.20.773,arm3_q,2022.2.5,Win32,60.04202942,611d4891122d6413d83ffb29,64aeaab685a29f4ca249be02,64bec9b752ea42583ba6c31e,down,1,0.1786,0.35,14,0,1.4819,,,,,,352,0,352,0,1,,,,,
,,318429,001,2023-07-24_20h59.20.773,arm3_q,2022.2.5,Win32,60.04202942,611d4891122d6413d83ffb29,64aeaab685a29f4ca249be02,64bec9b752ea42583ba6c31e,up,1,0.1786,0.35,15,0,1.2824,,,,,,353,0,353,0,1,,,,,
,,318429,001,2023-07-24_20h59.20.773,arm3_q,2022.2.5,Win32,60.04202942,611d4891122d6413d83ffb29,64aeaab685a29f4ca249be02,64bec9b752ea42583ba6c31e,up,-1,0.1786,0.35,16,0,1.089,,,,,,354,0,354,0,1,,,,,
,,318429,001,2023-07-24_20h59.20.773,arm3_q,2022.2.5,Win32,60.04202942,611d4891122d6413d83ffb29,64aeaab685a29f4ca249be02,64bec9b752ea42583ba6c31e,up,1,0.1786,0.35,15,0,1.1892,,,,,,355,0,355,0,1,,,,,
,,318429,001,2023-07-24_20h59.20.773,arm3_q,2022.2.5,Win32,60.04202942,611d4891122d6413d83ffb29,64aeaab685a29f4ca249be02,64bec9b752ea42583ba6c31e,up,1,0.1786,0.35,15,0,1.8305,,,,,,356,0,356,0,1,,,,,
,,318429,001,2023-07-24_20h59.20.773,arm3_q,2022.2.5,Win32,60.04202942,611d4891122d6413d83ffb29,64aeaab685a29f4ca249be02,64bec9b752ea42583ba6c31e,up,1,0.1786,0.35,16,0,3.3571,,,,,,357,0,357,0,1,,,,,
,,318429,001,2023-07-24_20h59.20.773,arm3_q,2022.2.5,Win32,60.04202942,611d4891122d6413d83ffb29,64aeaab685a29f4ca249be02,64bec9b752ea42583ba6c31e,up,1,0.1786,0.35,16,0,0.9574,,,,,,358,0,358,0,1,,,,,
,,318429,001,2023-07-24_20h59.20.773,arm3_q,2022.2.5,Win32,60.04202942,611d4891122d6413d83ffb29,64aeaab685a29f4ca249be02,64bec9b752ea42583ba6c31e,up,1,0.1786,0.35,16,0,1.0565,,,,,,359,0,359,0,1,,,,,
,,318429,001,2023-07-24_20h59.20.773,arm3_q,2022.2.5,Win32,60.04202942,611d4891122d6413d83ffb29,64aeaab685a29f4ca249be02,64bec9b752ea42583ba6c31e,up,1,0.1786,0.35,16,0,0.9742,,,,,,360,0,360,0,1,,,,,
,,318429,001,2023-07-24_20h59.20.773,arm3_q,2022.2.5,Win32,60.04202942,611d4891122d6413d83ffb29,64aeaab685a29f4ca249be02,64bec9b752ea42583ba6c31e,up,1,0.1786,0.35,16,0,1.0474,,,,,,361,0,361,0,1,,,,,
,,318429,001,2023-07-24_20h59.20.773,arm3_q,2022.2.5,Win32,60.04202942,611d4891122d6413d83ffb29,64aeaab685a29f4ca249be02,64bec9b752ea42583ba6c31e,up,1,0.1786,0.35,16,0,1.6725,,,,,,362,0,362,0,1,,,,,
,,318429,001,2023-07-24_20h59.20.773,arm3_q,2022.2.5,Win32,60.04202942,611d4891122d6413d83ffb29,64aeaab685a29f4ca249be02,64bec9b752ea42583ba6c31e,up,-1,0.1786,0.35,16,0,1.1334,,,,,,363,0,363,0,1,,,,,
,,318429,001,2023-07-24_20h59.20.773,arm3_q,2022.2.5,Win32,60.04202942,611d4891122d6413d83ffb29,64aeaab685a29f4ca249be02,64bec9b752ea42583ba6c31e,up,1,0.1786,0.35,16,0,1.1596,,,,,,364,0,364,0,1,,,,,
,,318429,001,2023-07-24_20h59.20.773,arm3_q,2022.2.5,Win32,60.04202942,611d4891122d6413d83ffb29,64aeaab685a29f4ca249be02,64bec9b752ea42583ba6c31e,up,1,0.1786,0.35,16,0,1.2455,,,,,,365,0,365,0,1,,,,,
,,318429,001,2023-07-24_20h59.20.773,arm3_q,2022.2.5,Win32,60.04202942,611d4891122d6413d83ffb29,64aeaab685a29f4ca249be02,64bec9b752ea42583ba6c31e,up,1,0.1786,0.35,16,0,1.4292,,,,,,366,0,366,0,1,,,,,
,,318429,001,2023-07-24_20h59.20.773,arm3_q,2022.2.5,Win32,60.04202942,611d4891122d6413d83ffb29,64aeaab685a29f4ca249be02,64bec9b752ea42583ba6c31e,up,1,0.1786,0.35,16,0,1.4689,,,,,,367,0,367,0,1,,,,,
,,318429,001,2023-07-24_20h59.20.773,arm3_q,2022.2.5,Win32,60.04202942,611d4891122d6413d83ffb29,64aeaab685a29f4ca249be02,64bec9b752ea42583ba6c31e,up,1,0.1786,0.35,16,0,0.9656,,,,,,368,0,368,0,1,,,,,
,,318429,001,2023-07-24_20h59.20.773,arm3_q,2022.2.5,Win32,60.04202942,611d4891122d6413d83ffb29,64aeaab685a29f4ca249be02,64bec9b752ea42583ba6c31e,up,1,0.1786,0.35,16,0,1.1283,,,,,,369,0,369,0,1,,,,,
,,318429,001,2023-07-24_20h59.20.773,arm3_q,2022.2.5,Win32,60.04202942,611d4891122d6413d83ffb29,64aeaab685a29f4ca249be02,64bec9b752ea42583ba6c31e,,,,,,,,,,,,,,,,,,0,0,0,0,1
space,8.2278,318429,001,2023-07-24_20h59.20.773,arm3_q,2022.2.5,Win32,60.04202942,611d4891122d6413d83ffb29,64aeaab685a29f4ca249be02,64bec9b752ea42583ba6c31e,up,1,0.8214,0.35,17,0,2.2146,,,,,,0,0,0,0,1,,,,,
,,318429,001,2023-07-24_20h59.20.773,arm3_q,2022.2.5,Win32,60.04202942,611d4891122d6413d83ffb29,64aeaab685a29f4ca249be02,64bec9b752ea42583ba6c31e,up,1,0.8214,0.35,18,0,0.7411,,,,,,1,0,1,0,1,,,,,
,,318429,001,2023-07-24_20h59.20.773,arm3_q,2022.2.5,Win32,60.04202942,611d4891122d6413d83ffb29,64aeaab685a29f4ca249be02,64bec9b752ea42583ba6c31e,up,1,0.8214,0.35,19,0,0.9834,,,,,,2,0,2,0,1,,,,,
,,318429,001,2023-07-24_20h59.20.773,arm3_q,2022.2.5,Win32,60.04202942,611d4891122d6413d83ffb29,64aeaab685a29f4ca249be02,64bec9b752ea42583ba6c31e,up,-1,0.8214,0.35,20,0,0.8384,,,,,,3,0,3,0,1,,,,,
,,318429,001,2023-07-24_20h59.20.773,arm3_q,2022.2.5,Win32,60.04202942,611d4891122d6413d83ffb29,64aeaab685a29f4ca249be02,64bec9b752ea42583ba6c31e,up,-1,0.8214,0.35,20,0,0.0915,,,,,,4,0,4,0,1,,,,,
,,318429,001,2023-07-24_20h59.20.773,arm3_q,2022.2.5,Win32,60.04202942,611d4891122d6413d83ffb29,64aeaab685a29f4ca249be02,64bec9b752ea42583ba6c31e,up,1,0.8214,0.35,20,0,0.7688,,,,,,5,0,5,0,1,,,,,
,,318429,001,2023-07-24_20h59.20.773,arm3_q,2022.2.5,Win32,60.04202942,611d4891122d6413d83ffb29,64aeaab685a29f4ca249be02,64bec9b752ea42583ba6c31e,up,1,0.8214,0.35,21,0,0.9123,,,,,,6,0,6,0,1,,,,,
,,318429,001,2023-07-24_20h59.20.773,arm3_q,2022.2.5,Win32,60.04202942,611d4891122d6413d83ffb29,64aeaab685a29f4ca249be02,64bec9b752ea42583ba6c31e,up,1,0.8214,0.35,22,0,0.9293,,,,,,7,0,7,0,1,,,,,
,,318429,001,2023-07-24_20h59.20.773,arm3_q,2022.2.5,Win32,60.04202942,611d4891122d6413d83ffb29,64aeaab685a29f4ca249be02,64bec9b752ea42583ba6c31e,up,-1,0.8214,0.35,23,0,0.9298,,,,,,8,0,8,0,1,,,,,
,,318429,001,2023-07-24_20h59.20.773,arm3_q,2022.2.5,Win32,60.04202942,611d4891122d6413d83ffb29,64aeaab685a29f4ca249be02,64bec9b752ea42583ba6c31e,down,-1,0.8214,0.35,24,0,1.4821,,,,,,9,0,9,0,1,,,,,
,,318429,001,2023-07-24_20h59.20.773,arm3_q,2022.2.5,Win32,60.04202942,611d4891122d6413d83ffb29,64aeaab685a29f4ca249be02,64bec9b752ea42583ba6c31e,down,-1,0.8214,0.35,24,0,0.0332,,,,,,10,0,10,0,1,,,,,
,,318429,001,2023-07-24_20h59.20.773,arm3_q,2022.2.5,Win32,60.04202942,611d4891122d6413d83ffb29,64aeaab685a29f4ca249be02,64bec9b752ea42583ba6c31e,down,-1,0.8214,0.35,25,0,1.1,,,,,,11,0,11,0,1,,,,,
,,318429,001,2023-07-24_20h59.20.773,arm3_q,2022.2.5,Win32,60.04202942,611d4891122d6413d83ffb29,64aeaab685a29f4ca249be02,64bec9b752ea42583ba6c31e,up,-1,0.8214,0.35,25,0,1.408,,,,,,12,0,12,0,1,,,,,
,,318429,001,2023-07-24_20h59.20.773,arm3_q,2022.2.5,Win32,60.04202942,611d4891122d6413d83ffb29,64aeaab685a29f4ca249be02,64bec9b752ea42583ba6c31e,down,1,0.8214,0.35,26,0,1.3642,,,,,,13,0,13,0,1,,,,,
,,318429,001,2023-07-24_20h59.20.773,arm3_q,2022.2.5,Win32,60.04202942,611d4891122d6413d83ffb29,64aeaab685a29f4ca249be02,64bec9b752ea42583ba6c31e,up,-1,0.8214,0.35,27,0,1.4172,,,,,,14,0,14,0,1,,,,,
,,318429,001,2023-07-24_20h59.20.773,arm3_q,2022.2.5,Win32,60.04202942,611d4891122d6413d83ffb29,64aeaab685a29f4ca249be02,64bec9b752ea42583ba6c31e,down,-1,0.8214,0.35,27,0,1.1476,,,,,,15,0,15,0,1,,,,,
,,318429,001,2023-07-24_20h59.20.773,arm3_q,2022.2.5,Win32,60.04202942,611d4891122d6413d83ffb29,64aeaab685a29f4ca249be02,64bec9b752ea42583ba6c31e,down,-1,0.8214,0.35,28,0,1.0596,,,,,,16,0,16,0,1,,,,,
,,318429,001,2023-07-24_20h59.20.773,arm3_q,2022.2.5,Win32,60.04202942,611d4891122d6413d83ffb29,64aeaab685a29f4ca249be02,64bec9b752ea42583ba6c31e,up,-1,0.8214,0.35,28,0,1.0857,,,,,,17,0,17,0,1,,,,,
,,318429,001,2023-07-24_20h59.20.773,arm3_q,2022.2.5,Win32,60.04202942,611d4891122d6413d83ffb29,64aeaab685a29f4ca249be02,64bec9b752ea42583ba6c31e,down,1,0.8214,0.35,29,0,1.3115,,,,,,18,0,18,0,1,,,,,
,,318429,001,2023-07-24_20h59.20.773,arm3_q,2022.2.5,Win32,60.04202942,611d4891122d6413d83ffb29,64aeaab685a29f4ca249be02,64bec9b752ea42583ba6c31e,up,1,0.8214,0.35,30,0,1.0068,,,,,,19,0,19,0,1,,,,,
,,318429,001,2023-07-24_20h59.20.773,arm3_q,2022.2.5,Win32,60.04202942,611d4891122d6413d83ffb29,64aeaab685a29f4ca249be02,64bec9b752ea42583ba6c31e,up,1,0.8214,0.35,31,0,1.1885,,,,,,20,0,20,0,1,,,,,
,,318429,001,2023-07-24_20h59.20.773,arm3_q,2022.2.5,Win32,60.04202942,611d4891122d6413d83ffb29,64aeaab685a29f4ca249be02,64bec9b752ea42583ba6c31e,up,1,0.8214,0.35,32,0,1.1013,,,,,,21,0,21,0,1,,,,,
,,318429,001,2023-07-24_20h59.20.773,arm3_q,2022.2.5,Win32,60.04202942,611d4891122d6413d83ffb29,64aeaab685a29f4ca249be02,64bec9b752ea42583ba6c31e,down,1,0.8214,0.35,31,0,2.188,,,,,,22,0,22,0,1,,,,,
,,318429,001,2023-07-24_20h59.20.773,arm3_q,2022.2.5,Win32,60.04202942,611d4891122d6413d83ffb29,64aeaab685a29f4ca249be02,64bec9b752ea42583ba6c31e,up,1,0.8214,0.35,31,0,1.5708,,,,,,23,0,23,0,1,,,,,
,,318429,001,2023-07-24_20h59.20.773,arm3_q,2022.2.5,Win32,60.04202942,611d4891122d6413d83ffb29,64aeaab685a29f4ca249be02,64bec9b752ea42583ba6c31e,down,1,0.8214,0.35,30,0,1.0099,,,,,,24,0,24,0,1,,,,,
,,318429,001,2023-07-24_20h59.20.773,arm3_q,2022.2.5,Win32,60.04202942,611d4891122d6413d83ffb29,64aeaab685a29f4ca249be02,64bec9b752ea42583ba6c31e,up,-1,0.8214,0.35,30,0,1.1311,,,,,,25,0,25,0,1,,,,,
,,318429,001,2023-07-24_20h59.20.773,arm3_q,2022.2.5,Win32,60.04202942,611d4891122d6413d83ffb29,64aeaab685a29f4ca249be02,64bec9b752ea42583ba6c31e,down,1,0.8214,0.35,31,0,1.1797,,,,,,26,0,26,0,1,,,,,
,,318429,001,2023-07-24_20h59.20.773,arm3_q,2022.2.5,Win32,60.04202942,611d4891122d6413d83ffb29,64aeaab685a29f4ca249be02,64bec9b752ea42583ba6c31e,up,1,0.8214,0.35,32,0,0.9956,,,,,,27,0,27,0,1,,,,,
,,318429,001,2023-07-24_20h59.20.773,arm3_q,2022.2.5,Win32,60.04202942,611d4891122d6413d83ffb29,64aeaab685a29f4ca249be02,64bec9b752ea42583ba6c31e,down,1,0.8214,0.35,31,0,1.4019,,,,,,28,0,28,0,1,,,,,
,,318429,001,2023-07-24_20h59.20.773,arm3_q,2022.2.5,Win32,60.04202942,611d4891122d6413d83ffb29,64aeaab685a29f4ca249be02,64bec9b752ea42583ba6c31e,up,-1,0.8214,0.35,31,0,0.9621,,,,,,29,0,29,0,1,,,,,
,,318429,001,2023-07-24_20h59.20.773,arm3_q,2022.2.5,Win32,60.04202942,611d4891122d6413d83ffb29,64aeaab685a29f4ca249be02,64bec9b752ea42583ba6c31e,down,-1,0.8214,0.35,32,0,3.1556,,,,,,30,0,30,0,1,,,,,
,,318429,001,2023-07-24_20h59.20.773,arm3_q,2022.2.5,Win32,60.04202942,611d4891122d6413d83ffb29,64aeaab685a29f4ca249be02,64bec9b752ea42583ba6c31e,down,-1,0.8214,0.35,32,0,1.2765,,,,,,31,0,31,0,1,,,,,
,,318429,001,2023-07-24_20h59.20.773,arm3_q,2022.2.5,Win32,60.04202942,611d4891122d6413d83ffb29,64aeaab685a29f4ca249be02,64bec9b752ea42583ba6c31e,down,1,0.8214,0.35,33,0,1.0931,,,,,,32,0,32,0,1,,,,,
,,318429,001,2023-07-24_20h59.20.773,arm3_q,2022.2.5,Win32,60.04202942,611d4891122d6413d83ffb29,64aeaab685a29f4ca249be02,64bec9b752ea42583ba6c31e,down,1,0.8214,0.35,32,0,1.1523,,,,,,33,0,33,0,1,,,,,
,,318429,001,2023-07-24_20h59.20.773,arm3_q,2022.2.5,Win32,60.04202942,611d4891122d6413d83ffb29,64aeaab685a29f4ca249be02,64bec9b752ea42583ba6c31e,up,1,0.8214,0.35,33,0,1.0715,,,,,,34,0,34,0,1,,,,,
,,318429,001,2023-07-24_20h59.20.773,arm3_q,2022.2.5,Win32,60.04202942,611d4891122d6413d83ffb29,64aeaab685a29f4ca249be02,64bec9b752ea42583ba6c31e,down,-1,0.8214,0.35,32,0,1.1097,,,,,,35,0,35,0,1,,,,,
,,318429,001,2023-07-24_20h59.20.773,arm3_q,2022.2.5,Win32,60.04202942,611d4891122d6413d83ffb29,64aeaab685a29f4ca249be02,64bec9b752ea42583ba6c31e,up,-1,0.8214,0.35,32,0,0.0028,,,,,,36,0,36,0,1,,,,,
,,318429,001,2023-07-24_20h59.20.773,arm3_q,2022.2.5,Win32,60.04202942,611d4891122d6413d83ffb29,64aeaab685a29f4ca249be02,64bec9b752ea42583ba6c31e,down,1,0.8214,0.35,33,0,0.5765,,,,,,37,0,37,0,1,,,,,
,,318429,001,2023-07-24_20h59.20.773,arm3_q,2022.2.5,Win32,60.04202942,611d4891122d6413d83ffb29,64aeaab685a29f4ca249be02,64bec9b752ea42583ba6c31e,up,1,0.8214,0.35,34,0,0.8477,,,,,,38,0,38,0,1,,,,,
,,318429,001,2023-07-24_20h59.20.773,arm3_q,2022.2.5,Win32,60.04202942,611d4891122d6413d83ffb29,64aeaab685a29f4ca249be02,64bec9b752ea42583ba6c31e,down,-1,0.8214,0.35,33,0,0.6138,,,,,,39,0,39,0,1,,,,,
,,318429,001,2023-07-24_20h59.20.773,arm3_q,2022.2.5,Win32,60.04202942,611d4891122d6413d83ffb29,64aeaab685a29f4ca249be02,64bec9b752ea42583ba6c31e,down,-1,0.8214,0.35,34,0,1.083,,,,,,40,0,40,0,1,,,,,
,,318429,001,2023-07-24_20h59.20.773,arm3_q,2022.2.5,Win32,60.04202942,611d4891122d6413d83ffb29,64aeaab685a29f4ca249be02,64bec9b752ea42583ba6c31e,down,1,0.8214,0.35,35,0,0.8119,,,,,,41,0,41,0,1,,,,,
,,318429,001,2023-07-24_20h59.20.773,arm3_q,2022.2.5,Win32,60.04202942,611d4891122d6413d83ffb29,64aeaab685a29f4ca249be02,64bec9b752ea42583ba6c31e,down,1,0.8214,0.35,34,0,0.8796,,,,,,42,0,42,0,1,,,,,
,,318429,001,2023-07-24_20h59.20.773,arm3_q,2022.2.5,Win32,60.04202942,611d4891122d6413d83ffb29,64aeaab685a29f4ca249be02,64bec9b752ea42583ba6c31e,up,-1,0.8214,0.35,35,0,1.0286,,,,,,43,0,43,0,1,,,,,
,,318429,001,2023-07-24_20h59.20.773,arm3_q,2022.2.5,Win32,60.04202942,611d4891122d6413d83ffb29,64aeaab685a29f4ca249be02,64bec9b752ea42583ba6c31e,down,1,0.8214,0.35,36,0,0.8425,,,,,,44,0,44,0,1,,,,,
,,318429,001,2023-07-24_20h59.20.773,arm3_q,2022.2.5,Win32,60.04202942,611d4891122d6413d83ffb29,64aeaab685a29f4ca249be02,64bec9b752ea42583ba6c31e,up,1,0.8214,0.35,37,0,0.7982,,,,,,45,0,45,0,1,,,,,
,,318429,001,2023-07-24_20h59.20.773,arm3_q,2022.2.5,Win32,60.04202942,611d4891122d6413d83ffb29,64aeaab685a29f4ca249be02,64bec9b752ea42583ba6c31e,down,1,0.8214,0.35,37,0,0.8052,,,,,,46,0,46,0,1,,,,,
,,318429,001,2023-07-24_20h59.20.773,arm3_q,2022.2.5,Win32,60.04202942,611d4891122d6413d83ffb29,64aeaab685a29f4ca249be02,64bec9b752ea42583ba6c31e,up,1,0.8214,0.35,38,0,0.8014,,,,,,47,0,47,0,1,,,,,
,,318429,001,2023-07-24_20h59.20.773,arm3_q,2022.2.5,Win32,60.04202942,611d4891122d6413d83ffb29,64aeaab685a29f4ca249be02,64bec9b752ea42583ba6c31e,down,-1,0.8214,0.35,37,0,0.8378,,,,,,48,0,48,0,1,,,,,
,,318429,001,2023-07-24_20h59.20.773,arm3_q,2022.2.5,Win32,60.04202942,611d4891122d6413d83ffb29,64aeaab685a29f4ca249be02,64bec9b752ea42583ba6c31e,down,1,0.8214,0.35,38,0,0.7515,,,,,,49,0,49,0,1,,,,,
,,318429,001,2023-07-24_20h59.20.773,arm3_q,2022.2.5,Win32,60.04202942,611d4891122d6413d83ffb29,64aeaab685a29f4ca249be02,64bec9b752ea42583ba6c31e,down,1,0.8214,0.35,37,0,0.8789,,,,,,50,0,50,0,1,,,,,
,,318429,001,2023-07-24_20h59.20.773,arm3_q,2022.2.5,Win32,60.04202942,611d4891122d6413d83ffb29,64aeaab685a29f4ca249be02,64bec9b752ea42583ba6c31e,up,1,0.8214,0.35,38,0,1.008,,,,,,51,0,51,0,1,,,,,
,,318429,001,2023-07-24_20h59.20.773,arm3_q,2022.2.5,Win32,60.04202942,611d4891122d6413d83ffb29,64aeaab685a29f4ca249be02,64bec9b752ea42583ba6c31e,down,-1,0.8214,0.35,37,0,0.8358,,,,,,52,0,52,0,1,,,,,
,,318429,001,2023-07-24_20h59.20.773,arm3_q,2022.2.5,Win32,60.04202942,611d4891122d6413d83ffb29,64aeaab685a29f4ca249be02,64bec9b752ea42583ba6c31e,up,1,0.8214,0.35,36,0,0.8278,,,,,,53,0,53,0,1,,,,,
,,318429,001,2023-07-24_20h59.20.773,arm3_q,2022.2.5,Win32,60.04202942,611d4891122d6413d83ffb29,64aeaab685a29f4ca249be02,64bec9b752ea42583ba6c31e,down,1,0.8214,0.35,35,0,0.8157,,,,,,54,0,54,0,1,,,,,
,,318429,001,2023-07-24_20h59.20.773,arm3_q,2022.2.5,Win32,60.04202942,611d4891122d6413d83ffb29,64aeaab685a29f4ca249be02,64bec9b752ea42583ba6c31e,up,1,0.8214,0.35,35,0,0.7998,,,,,,55,0,55,0,1,,,,,
,,318429,001,2023-07-24_20h59.20.773,arm3_q,2022.2.5,Win32,60.04202942,611d4891122d6413d83ffb29,64aeaab685a29f4ca249be02,64bec9b752ea42583ba6c31e,up,1,0.8214,0.35,36,0,0.9446,,,,,,56,0,56,0,1,,,,,
,,318429,001,2023-07-24_20h59.20.773,arm3_q,2022.2.5,Win32,60.04202942,611d4891122d6413d83ffb29,64aeaab685a29f4ca249be02,64bec9b752ea42583ba6c31e,up,1,0.8214,0.35,37,0,0.9368,,,,,,57,0,57,0,1,,,,,
,,318429,001,2023-07-24_20h59.20.773,arm3_q,2022.2.5,Win32,60.04202942,611d4891122d6413d83ffb29,64aeaab685a29f4ca249be02,64bec9b752ea42583ba6c31e,up,1,0.8214,0.35,38,0,0.8399,,,,,,58,0,58,0,1,,,,,
,,318429,001,2023-07-24_20h59.20.773,arm3_q,2022.2.5,Win32,60.04202942,611d4891122d6413d83ffb29,64aeaab685a29f4ca249be02,64bec9b752ea42583ba6c31e,up,-1,0.8214,0.35,39,0,0.8743,,,,,,59,0,59,0,1,,,,,
,,318429,001,2023-07-24_20h59.20.773,arm3_q,2022.2.5,Win32,60.04202942,611d4891122d6413d83ffb29,64aeaab685a29f4ca249be02,64bec9b752ea42583ba6c31e,up,1,0.8214,0.35,38,0,0.8288,,,,,,60,0,60,0,1,,,,,
,,318429,001,2023-07-24_20h59.20.773,arm3_q,2022.2.5,Win32,60.04202942,611d4891122d6413d83ffb29,64aeaab685a29f4ca249be02,64bec9b752ea42583ba6c31e,up,1,0.8214,0.35,39,0,1.1398,,,,,,61,0,61,0,1,,,,,
,,318429,001,2023-07-24_20h59.20.773,arm3_q,2022.2.5,Win32,60.04202942,611d4891122d6413d83ffb29,64aeaab685a29f4ca249be02,64bec9b752ea42583ba6c31e,up,-1,0.8214,0.35,40,0,1.1564,,,,,,62,0,62,0,1,,,,,
,,318429,001,2023-07-24_20h59.20.773,arm3_q,2022.2.5,Win32,60.04202942,611d4891122d6413d83ffb29,64aeaab685a29f4ca249be02,64bec9b752ea42583ba6c31e,down,-1,0.8214,0.35,41,0,1.1008,,,,,,63,0,63,0,1,,,,,
