space_bar.keys,space_bar.rt,participant,session,date,expName,psychopyVersion,OS,frameRate,resp.keys,state,q_prob,eps_prob,score,price,resp.rt,train.thisRepN,train.thisTrialN,train.thisN,train.thisIndex,train.ran,steps.thisRepN,steps.thisTrialN,steps.thisN,steps.thisIndex,steps.ran,blocks.thisRepN,blocks.thisTrialN,blocks.thisN,blocks.thisIndex,blocks.ran
space,16.816,361549,001,2023-07-23_12h01.44.621,arm3_q,2022.2.5,MacIntel,58.82352941,,,,,,,,,,,,,,,,,,,,,,
space,11.089,361549,001,2023-07-23_12h01.44.621,arm3_q,2022.2.5,MacIntel,58.82352941,,,,,,,,,,,,,,,,,,,,,,
space,30.042,361549,001,2023-07-23_12h01.44.621,arm3_q,2022.2.5,MacIntel,58.82352941,,,,,,,,,,,,,,,,,,,,,,
space,18.457,361549,001,2023-07-23_12h01.44.621,arm3_q,2022.2.5,MacIntel,58.82352941,,,,,,,,,,,,,,,,,,,,,,
space,15.403,361549,001,2023-07-23_12h01.44.621,arm3_q,2022.2.5,MacIntel,58.82352941,,,,,,,,,,,,,,,,,,,,,,
space,19.227,361549,001,2023-07-23_12h01.44.621,arm3_q,2022.2.5,MacIntel,58.82352941,,,,,,,,,,,,,,,,,,,,,,
space,13.628,361549,001,2023-07-23_12h01.44.621,arm3_q,2022.2.5,MacIntel,58.82352941,,,,,,,,,,,,,,,,,,,,,,
space,5.82,361549,001,2023-07-23_12h01.44.621,arm3_q,2022.2.5,MacIntel,58.82352941,,,,,,,,,,,,,,,,,,,,,,
space,23.68,361549,001,2023-07-23_12h01.44.621,arm3_q,2022.2.5,MacIntel,58.82352941,,,,,,,,,,,,,,,,,,,,,,
,,361549,001,2023-07-23_12h01.44.621,arm3_q,2022.2.5,MacIntel,58.82352941,right,1,0.5643,0.35,0,0.053193191,2.48,0,0,0,0,1,,,,,,,,,,
,,361549,001,2023-07-23_12h01.44.621,arm3_q,2022.2.5,MacIntel,58.82352941,right,1,0.5643,0.35,0,0.090171636,1.022,1,0,1,0,1,,,,,,,,,,
,,361549,001,2023-07-23_12h01.44.621,arm3_q,2022.2.5,MacIntel,58.82352941,right,1,0.5643,0.35,0,0.081959943,0.935,2,0,2,0,1,,,,,,,,,,
,,361549,001,2023-07-23_12h01.44.621,arm3_q,2022.2.5,MacIntel,58.82352941,right,1,0.5643,0.35,0,0.133518839,1.092,3,0,3,0,1,,,,,,,,,,
,,361549,001,2023-07-23_12h01.44.621,arm3_q,2022.2.5,MacIntel,58.82352941,right,1,0.5643,0.35,0,0.130941913,0.709,4,0,4,0,1,,,,,,,,,,
,,361549,001,2023-07-23_12h01.44.621,arm3_q,2022.2.5,MacIntel,58.82352941,right,1,0.5643,0.35,0,0.144717046,1.051,5,0,5,0,1,,,,,,,,,,
,,361549,001,2023-07-23_12h01.44.621,arm3_q,2022.2.5,MacIntel,58.82352941,right,1,0.5643,0.35,0,0.168387005,0.902,6,0,6,0,1,,,,,,,,,,
,,361549,001,2023-07-23_12h01.44.621,arm3_q,2022.2.5,MacIntel,58.82352941,up,1,0.5643,0.35,1,0,1.63,7,0,7,0,1,,,,,,,,,,
,,361549,001,2023-07-23_12h01.44.621,arm3_q,2022.2.5,MacIntel,58.82352941,right,1,0.5643,0.35,1,-0.02146548,2.208,8,0,8,0,1,,,,,,,,,,
,,361549,001,2023-07-23_12h01.44.621,arm3_q,2022.2.5,MacIntel,58.82352941,right,1,0.5643,0.35,1,-0.032604367,0.641,9,0,9,0,1,,,,,,,,,,
,,361549,001,2023-07-23_12h01.44.621,arm3_q,2022.2.5,MacIntel,58.82352941,right,1,0.5643,0.35,1,-0.030581718,0.445,10,0,10,0,1,,,,,,,,,,
,,361549,001,2023-07-23_12h01.44.621,arm3_q,2022.2.5,MacIntel,58.82352941,right,1,0.5643,0.35,1,-0.04547139,0.478,11,0,11,0,1,,,,,,,,,,
,,361549,001,2023-07-23_12h01.44.621,arm3_q,2022.2.5,MacIntel,58.82352941,right,1,0.5643,0.35,1,-0.048733943,0.393,12,0,12,0,1,,,,,,,,,,
,,361549,001,2023-07-23_12h01.44.621,arm3_q,2022.2.5,MacIntel,58.82352941,right,1,0.5643,0.35,1,-0.071307871,0.411,13,0,13,0,1,,,,,,,,,,
,,361549,001,2023-07-23_12h01.44.621,arm3_q,2022.2.5,MacIntel,58.82352941,right,1,0.5643,0.35,1,-0.07717174,0.427,14,0,14,0,1,,,,,,,,,,
,,361549,001,2023-07-23_12h01.44.621,arm3_q,2022.2.5,MacIntel,58.82352941,right,1,0.5643,0.35,1,-0.013712119,0.765,15,0,15,0,1,,,,,,,,,,
,,361549,001,2023-07-23_12h01.44.621,arm3_q,2022.2.5,MacIntel,58.82352941,right,1,0.5643,0.35,1,-0.007761053,1.177,16,0,16,0,1,,,,,,,,,,
,,361549,001,2023-07-23_12h01.44.621,arm3_q,2022.2.5,MacIntel,58.82352941,right,1,0.5643,0.35,1,-0.006046347,0.843,17,0,17,0,1,,,,,,,,,,
,,361549,001,2023-07-23_12h01.44.621,arm3_q,2022.2.5,MacIntel,58.82352941,right,1,0.5643,0.35,1,-0.008603351,3.044,18,0,18,0,1,,,,,,,,,,
,,361549,001,2023-07-23_12h01.44.621,arm3_q,2022.2.5,MacIntel,58.82352941,up,1,0.5643,0.35,2,0,1.868,19,0,19,0,1,,,,,,,,,,
,,361549,001,2023-07-23_12h01.44.621,arm3_q,2022.2.5,MacIntel,58.82352941,right,1,0.5643,0.35,2,0.043147261,1.094,20,0,20,0,1,,,,,,,,,,
,,361549,001,2023-07-23_12h01.44.621,arm3_q,2022.2.5,MacIntel,58.82352941,right,1,0.5643,0.35,2,0.024501819,0.477,21,0,21,0,1,,,,,,,,,,
,,361549,001,2023-07-23_12h01.44.621,arm3_q,2022.2.5,MacIntel,58.82352941,right,1,0.5643,0.35,2,0.018985869,0.979,22,0,22,0,1,,,,,,,,,,
,,361549,001,2023-07-23_12h01.44.621,arm3_q,2022.2.5,MacIntel,58.82352941,right,1,0.5643,0.35,2,0.007535118,0.598,23,0,23,0,1,,,,,,,,,,
,,361549,001,2023-07-23_12h01.44.621,arm3_q,2022.2.5,MacIntel,58.82352941,right,1,0.5643,0.35,2,0.020488512,0.685,24,0,24,0,1,,,,,,,,,,
,,361549,001,2023-07-23_12h01.44.621,arm3_q,2022.2.5,MacIntel,58.82352941,right,1,0.5643,0.35,2,-0.00587041,0.529,25,0,25,0,1,,,,,,,,,,
,,361549,001,2023-07-23_12h01.44.621,arm3_q,2022.2.5,MacIntel,58.82352941,right,1,0.5643,0.35,2,-0.020687436,0.411,26,0,26,0,1,,,,,,,,,,
,,361549,001,2023-07-23_12h01.44.621,arm3_q,2022.2.5,MacIntel,58.82352941,right,1,0.5643,0.35,2,0.025311251,0.435,27,0,27,0,1,,,,,,,,,,
,,361549,001,2023-07-23_12h01.44.621,arm3_q,2022.2.5,MacIntel,58.82352941,right,1,0.5643,0.35,2,0.041975519,0.509,28,0,28,0,1,,,,,,,,,,
,,361549,001,2023-07-23_12h01.44.621,arm3_q,2022.2.5,MacIntel,58.82352941,right,1,0.5643,0.35,2,0.042183935,0.678,29,0,29,0,1,,,,,,,,,,
,,361549,001,2023-07-23_12h01.44.621,arm3_q,2022.2.5,MacIntel,58.82352941,right,1,0.5643,0.35,2,0.045398911,0.493,30,0,30,0,1,,,,,,,,,,
,,361549,001,2023-07-23_12h01.44.621,arm3_q,2022.2.5,MacIntel,58.82352941,up,-1,0.5643,0.35,2,0,1.68,31,0,31,0,1,,,,,,,,,,
,,361549,001,2023-07-23_12h01.44.621,arm3_q,2022.2.5,MacIntel,58.82352941,right,-1,0.5643,0.35,2,-0.000892194,1.204,32,0,32,0,1,,,,,,,,,,
,,361549,001,2023-07-23_12h01.44.621,arm3_q,2022.2.5,MacIntel,58.82352941,right,-1,0.5643,0.35,2,-0.008797903,0.349,33,0,33,0,1,,,,,,,,,,
,,361549,001,2023-07-23_12h01.44.621,arm3_q,2022.2.5,MacIntel,58.82352941,right,-1,0.5643,0.35,2,-0.022103032,0.269,34,0,34,0,1,,,,,,,,,,
,,361549,001,2023-07-23_12h01.44.621,arm3_q,2022.2.5,MacIntel,58.82352941,right,-1,0.5643,0.35,2,-0.050508812,0.418,35,0,35,0,1,,,,,,,,,,
,,361549,001,2023-07-23_12h01.44.621,arm3_q,2022.2.5,MacIntel,58.82352941,right,-1,0.5643,0.35,2,-0.052448173,0.415,36,0,36,0,1,,,,,,,,,,
,,361549,001,2023-07-23_12h01.44.621,arm3_q,2022.2.5,MacIntel,58.82352941,right,-1,0.5643,0.35,2,-0.04710789,0.594,37,0,37,0,1,,,,,,,,,,
,,361549,001,2023-07-23_12h01.44.621,arm3_q,2022.2.5,MacIntel,58.82352941,right,-1,0.5643,0.35,2,-0.047861348,0.428,38,0,38,0,1,,,,,,,,,,
,,361549,001,2023-07-23_12h01.44.621,arm3_q,2022.2.5,MacIntel,58.82352941,down,-1,0.5643,0.35,3,0,2.661,39,0,39,0,1,,,,,,,,,,
,,361549,001,2023-07-23_12h01.44.621,arm3_q,2022.2.5,MacIntel,58.82352941,right,-1,0.5643,0.35,3,0.00179904,1.007,40,0,40,0,1,,,,,,,,,,
,,361549,001,2023-07-23_12h01.44.621,arm3_q,2022.2.5,MacIntel,58.82352941,right,-1,0.5643,0.35,3,0.027643418,0.289,41,0,41,0,1,,,,,,,,,,
,,361549,001,2023-07-23_12h01.44.621,arm3_q,2022.2.5,MacIntel,58.82352941,right,-1,0.5643,0.35,3,0.00603092,0.485,42,0,42,0,1,,,,,,,,,,
,,361549,001,2023-07-23_12h01.44.621,arm3_q,2022.2.5,MacIntel,58.82352941,right,-1,0.5643,0.35,3,-0.009886988,0.603,43,0,43,0,1,,,,,,,,,,
,,361549,001,2023-07-23_12h01.44.621,arm3_q,2022.2.5,MacIntel,58.82352941,right,-1,0.5643,0.35,3,-0.017061707,0.346,44,0,44,0,1,,,,,,,,,,
,,361549,001,2023-07-23_12h01.44.621,arm3_q,2022.2.5,MacIntel,58.82352941,right,-1,0.5643,0.35,3,-0.009795091,0.195,45,0,45,0,1,,,,,,,,,,
,,361549,001,2023-07-23_12h01.44.621,arm3_q,2022.2.5,MacIntel,58.82352941,right,-1,0.5643,0.35,3,-0.038708549,0.431,46,0,46,0,1,,,,,,,,,,
,,361549,001,2023-07-23_12h01.44.621,arm3_q,2022.2.5,MacIntel,58.82352941,right,-1,0.5643,0.35,3,-0.04209136,0.636,47,0,47,0,1,,,,,,,,,,
,,361549,001,2023-07-23_12h01.44.621,arm3_q,2022.2.5,MacIntel,58.82352941,right,-1,0.5643,0.35,3,-0.040980895,0.562,48,0,48,0,1,,,,,,,,,,
,,361549,001,2023-07-23_12h01.44.621,arm3_q,2022.2.5,MacIntel,58.82352941,right,-1,0.5643,0.35,3,-0.026251296,0.553,49,0,49,0,1,,,,,,,,,,
space,2.286,361549,001,2023-07-23_12h01.44.621,arm3_q,2022.2.5,MacIntel,58.82352941,,,,,,,,,,,,,,,,,,,,,,
space,2.552,361549,001,2023-07-23_12h01.44.621,arm3_q,2022.2.5,MacIntel,58.82352941,right,-1,0.1786,0.35,0,0.013952221,1.432,,,,,,0,0,0,0,1,,,,,
,,361549,001,2023-07-23_12h01.44.621,arm3_q,2022.2.5,MacIntel,58.82352941,right,-1,0.1786,0.35,0,-0.013867617,0.352,,,,,,1,0,1,0,1,,,,,
,,361549,001,2023-07-23_12h01.44.621,arm3_q,2022.2.5,MacIntel,58.82352941,right,-1,0.1786,0.35,0,-0.038360342,0.345,,,,,,2,0,2,0,1,,,,,
,,361549,001,2023-07-23_12h01.44.621,arm3_q,2022.2.5,MacIntel,58.82352941,right,-1,0.1786,0.35,0,-0.037675113,0.515,,,,,,3,0,3,0,1,,,,,
,,361549,001,2023-07-23_12h01.44.621,arm3_q,2022.2.5,MacIntel,58.82352941,right,-1,0.1786,0.35,0,-0.050140777,0.397,,,,,,4,0,4,0,1,,,,,
,,361549,001,2023-07-23_12h01.44.621,arm3_q,2022.2.5,MacIntel,58.82352941,right,-1,0.1786,0.35,0,-0.06368172,0.504,,,,,,5,0,5,0,1,,,,,
,,361549,001,2023-07-23_12h01.44.621,arm3_q,2022.2.5,MacIntel,58.82352941,right,-1,0.1786,0.35,0,-0.093626515,2.583,,,,,,6,0,6,0,1,,,,,
,,361549,001,2023-07-23_12h01.44.621,arm3_q,2022.2.5,MacIntel,58.82352941,down,1,0.1786,0.35,0,0,1.61,,,,,,7,0,7,0,1,,,,,
,,361549,001,2023-07-23_12h01.44.621,arm3_q,2022.2.5,MacIntel,58.82352941,right,1,0.1786,0.35,0,0.028180113,1.971,,,,,,8,0,8,0,1,,,,,
,,361549,001,2023-07-23_12h01.44.621,arm3_q,2022.2.5,MacIntel,58.82352941,right,1,0.1786,0.35,0,0.04583931,0.395,,,,,,9,0,9,0,1,,,,,
,,361549,001,2023-07-23_12h01.44.621,arm3_q,2022.2.5,MacIntel,58.82352941,right,1,0.1786,0.35,0,0.036724067,0.377,,,,,,10,0,10,0,1,,,,,
,,361549,001,2023-07-23_12h01.44.621,arm3_q,2022.2.5,MacIntel,58.82352941,right,1,0.1786,0.35,0,0.015136246,0.362,,,,,,11,0,11,0,1,,,,,
,,361549,001,2023-07-23_12h01.44.621,arm3_q,2022.2.5,MacIntel,58.82352941,right,1,0.1786,0.35,0,0.053943512,0.418,,,,,,12,0,12,0,1,,,,,
,,361549,001,2023-07-23_12h01.44.621,arm3_q,2022.2.5,MacIntel,58.82352941,right,1,0.1786,0.35,0,0.098360829,0.483,,,,,,13,0,13,0,1,,,,,
,,361549,001,2023-07-23_12h01.44.621,arm3_q,2022.2.5,MacIntel,58.82352941,up,1,0.1786,0.35,0,0,1.31,,,,,,14,0,14,0,1,,,,,
,,361549,001,2023-07-23_12h01.44.621,arm3_q,2022.2.5,MacIntel,58.82352941,right,1,0.1786,0.35,0,0.050759489,0.846,,,,,,15,0,15,0,1,,,,,
,,361549,001,2023-07-23_12h01.44.621,arm3_q,2022.2.5,MacIntel,58.82352941,right,1,0.1786,0.35,0,0.075667975,0.262,,,,,,16,0,16,0,1,,,,,
,,361549,001,2023-07-23_12h01.44.621,arm3_q,2022.2.5,MacIntel,58.82352941,right,1,0.1786,0.35,0,0.065816742,0.297,,,,,,17,0,17,0,1,,,,,
,,361549,001,2023-07-23_12h01.44.621,arm3_q,2022.2.5,MacIntel,58.82352941,right,1,0.1786,0.35,0,0.091480487,0.346,,,,,,18,0,18,0,1,,,,,
,,361549,001,2023-07-23_12h01.44.621,arm3_q,2022.2.5,MacIntel,58.82352941,right,1,0.1786,0.35,0,0.102649772,0.336,,,,,,19,0,19,0,1,,,,,
,,361549,001,2023-07-23_12h01.44.621,arm3_q,2022.2.5,MacIntel,58.82352941,up,1,0.1786,0.35,0,0,0.446,,,,,,20,0,20,0,1,,,,,
,,361549,001,2023-07-23_12h01.44.621,arm3_q,2022.2.5,MacIntel,58.82352941,right,1,0.1786,0.35,0,0.025278874,0.831,,,,,,21,0,21,0,1,,,,,
,,361549,001,2023-07-23_12h01.44.621,arm3_q,2022.2.5,MacIntel,58.82352941,right,1,0.1786,0.35,0,0.026368938,0.23,,,,,,22,0,22,0,1,,,,,
,,361549,001,2023-07-23_12h01.44.621,arm3_q,2022.2.5,MacIntel,58.82352941,right,1,0.1786,0.35,0,0.038544169,0.163,,,,,,23,0,23,0,1,,,,,
,,361549,001,2023-07-23_12h01.44.621,arm3_q,2022.2.5,MacIntel,58.82352941,right,1,0.1786,0.35,0,0.010343716,0.619,,,,,,24,0,24,0,1,,,,,
,,361549,001,2023-07-23_12h01.44.621,arm3_q,2022.2.5,MacIntel,58.82352941,right,1,0.1786,0.35,0,0.008739619,0.439,,,,,,25,0,25,0,1,,,,,
,,361549,001,2023-07-23_12h01.44.621,arm3_q,2022.2.5,MacIntel,58.82352941,right,1,0.1786,0.35,0,0.004083946,0.395,,,,,,26,0,26,0,1,,,,,
,,361549,001,2023-07-23_12h01.44.621,arm3_q,2022.2.5,MacIntel,58.82352941,right,1,0.1786,0.35,0,-0.011652324,1.162,,,,,,27,0,27,0,1,,,,,
,,361549,001,2023-07-23_12h01.44.621,arm3_q,2022.2.5,MacIntel,58.82352941,right,1,0.1786,0.35,0,-0.01862795,0.361,,,,,,28,0,28,0,1,,,,,
,,361549,001,2023-07-23_12h01.44.621,arm3_q,2022.2.5,MacIntel,58.82352941,down,1,0.1786,0.35,0,0,0.45,,,,,,29,0,29,0,1,,,,,
,,361549,001,2023-07-23_12h01.44.621,arm3_q,2022.2.5,MacIntel,58.82352941,right,1,0.1786,0.35,0,-0.016419515,0.862,,,,,,30,0,30,0,1,,,,,
,,361549,001,2023-07-23_12h01.44.621,arm3_q,2022.2.5,MacIntel,58.82352941,right,1,0.1786,0.35,0,0.009816466,0.318,,,,,,31,0,31,0,1,,,,,
,,361549,001,2023-07-23_12h01.44.621,arm3_q,2022.2.5,MacIntel,58.82352941,right,1,0.1786,0.35,0,0.046221132,0.185,,,,,,32,0,32,0,1,,,,,
,,361549,001,2023-07-23_12h01.44.621,arm3_q,2022.2.5,MacIntel,58.82352941,right,1,0.1786,0.35,0,0.050960308,0.196,,,,,,33,0,33,0,1,,,,,
,,361549,001,2023-07-23_12h01.44.621,arm3_q,2022.2.5,MacIntel,58.82352941,right,1,0.1786,0.35,0,0.078121028,0.194,,,,,,34,0,34,0,1,,,,,
,,361549,001,2023-07-23_12h01.44.621,arm3_q,2022.2.5,MacIntel,58.82352941,right,1,0.1786,0.35,0,0.090424357,0.178,,,,,,35,0,35,0,1,,,,,
,,361549,001,2023-07-23_12h01.44.621,arm3_q,2022.2.5,MacIntel,58.82352941,right,1,0.1786,0.35,0,0.094241829,0.451,,,,,,36,0,36,0,1,,,,,
,,361549,001,2023-07-23_12h01.44.621,arm3_q,2022.2.5,MacIntel,58.82352941,up,-1,0.1786,0.35,0,0,0.379,,,,,,37,0,37,0,1,,,,,
,,361549,001,2023-07-23_12h01.44.621,arm3_q,2022.2.5,MacIntel,58.82352941,right,-1,0.1786,0.35,0,-0.033154662,0.921,,,,,,38,0,38,0,1,,,,,
,,361549,001,2023-07-23_12h01.44.621,arm3_q,2022.2.5,MacIntel,58.82352941,right,-1,0.1786,0.35,0,-0.044522692,0.245,,,,,,39,0,39,0,1,,,,,
,,361549,001,2023-07-23_12h01.44.621,arm3_q,2022.2.5,MacIntel,58.82352941,right,-1,0.1786,0.35,0,-0.0395556,0.162,,,,,,40,0,40,0,1,,,,,
,,361549,001,2023-07-23_12h01.44.621,arm3_q,2022.2.5,MacIntel,58.82352941,right,-1,0.1786,0.35,0,-0.053217081,0.149,,,,,,41,0,41,0,1,,,,,
,,361549,001,2023-07-23_12h01.44.621,arm3_q,2022.2.5,MacIntel,58.82352941,right,-1,0.1786,0.35,0,-0.042751102,0.169,,,,,,42,0,42,0,1,,,,,
,,361549,001,2023-07-23_12h01.44.621,arm3_q,2022.2.5,MacIntel,58.82352941,right,-1,0.1786,0.35,0,-0.05576246,0.167,,,,,,43,0,43,0,1,,,,,
,,361549,001,2023-07-23_12h01.44.621,arm3_q,2022.2.5,MacIntel,58.82352941,right,-1,0.1786,0.35,0,-0.066389886,0.563,,,,,,44,0,44,0,1,,,,,
,,361549,001,2023-07-23_12h01.44.621,arm3_q,2022.2.5,MacIntel,58.82352941,down,-1,0.1786,0.35,0,0,0.82,,,,,,45,0,45,0,1,,,,,
,,361549,001,2023-07-23_12h01.44.621,arm3_q,2022.2.5,MacIntel,58.82352941,right,-1,0.1786,0.35,0,-0.015278454,0.803,,,,,,46,0,46,0,1,,,,,
,,361549,001,2023-07-23_12h01.44.621,arm3_q,2022.2.5,MacIntel,58.82352941,right,-1,0.1786,0.35,0,0.004469977,0.234,,,,,,47,0,47,0,1,,,,,
,,361549,001,2023-07-23_12h01.44.621,arm3_q,2022.2.5,MacIntel,58.82352941,right,-1,0.1786,0.35,0,-0.025395416,0.179,,,,,,48,0,48,0,1,,,,,
,,361549,001,2023-07-23_12h01.44.621,arm3_q,2022.2.5,MacIntel,58.82352941,right,-1,0.1786,0.35,0,-0.054922722,0.171,,,,,,49,0,49,0,1,,,,,
,,361549,001,2023-07-23_12h01.44.621,arm3_q,2022.2.5,MacIntel,58.82352941,right,-1,0.1786,0.35,0,-0.085636948,0.229,,,,,,50,0,50,0,1,,,,,
,,361549,001,2023-07-23_12h01.44.621,arm3_q,2022.2.5,MacIntel,58.82352941,right,-1,0.1786,0.35,0,-0.119854019,0.246,,,,,,51,0,51,0,1,,,,,
,,361549,001,2023-07-23_12h01.44.621,arm3_q,2022.2.5,MacIntel,58.82352941,down,1,0.1786,0.35,0,0,0.582,,,,,,52,0,52,0,1,,,,,
,,361549,001,2023-07-23_12h01.44.621,arm3_q,2022.2.5,MacIntel,58.82352941,right,1,0.1786,0.35,0,0.011545931,0.863,,,,,,53,0,53,0,1,,,,,
,,361549,001,2023-07-23_12h01.44.621,arm3_q,2022.2.5,MacIntel,58.82352941,right,1,0.1786,0.35,0,0.011464688,0.033,,,,,,54,0,54,0,1,,,,,
,,361549,001,2023-07-23_12h01.44.621,arm3_q,2022.2.5,MacIntel,58.82352941,right,1,0.1786,0.35,0,0.015702033,0.202,,,,,,55,0,55,0,1,,,,,
,,361549,001,2023-07-23_12h01.44.621,arm3_q,2022.2.5,MacIntel,58.82352941,right,1,0.1786,0.35,0,0.043573446,0.382,,,,,,56,0,56,0,1,,,,,
,,361549,001,2023-07-23_12h01.44.621,arm3_q,2022.2.5,MacIntel,58.82352941,right,1,0.1786,0.35,0,0.049334334,0.201,,,,,,57,0,57,0,1,,,,,
,,361549,001,2023-07-23_12h01.44.621,arm3_q,2022.2.5,MacIntel,58.82352941,right,1,0.1786,0.35,0,0.062114966,0.184,,,,,,58,0,58,0,1,,,,,
,,361549,001,2023-07-23_12h01.44.621,arm3_q,2022.2.5,MacIntel,58.82352941,right,1,0.1786,0.35,0,0.073328754,0.195,,,,,,59,0,59,0,1,,,,,
,,361549,001,2023-07-23_12h01.44.621,arm3_q,2022.2.5,MacIntel,58.82352941,up,1,0.1786,0.35,0,0,0.396,,,,,,60,0,60,0,1,,,,,
,,361549,001,2023-07-23_12h01.44.621,arm3_q,2022.2.5,MacIntel,58.82352941,right,1,0.1786,0.35,0,0.011745394,0.912,,,,,,61,0,61,0,1,,,,,
,,361549,001,2023-07-23_12h01.44.621,arm3_q,2022.2.5,MacIntel,58.82352941,right,1,0.1786,0.35,0,0.041128589,0.446,,,,,,62,0,62,0,1,,,,,
,,361549,001,2023-07-23_12h01.44.621,arm3_q,2022.2.5,MacIntel,58.82352941,right,1,0.1786,0.35,0,0.057888696,0.228,,,,,,63,0,63,0,1,,,,,
,,361549,001,2023-07-23_12h01.44.621,arm3_q,2022.2.5,MacIntel,58.82352941,up,1,0.1786,0.35,0,0,0.595,,,,,,64,0,64,0,1,,,,,
,,361549,001,2023-07-23_12h01.44.621,arm3_q,2022.2.5,MacIntel,58.82352941,right,1,0.1786,0.35,0,0.013428302,0.894,,,,,,65,0,65,0,1,,,,,
,,361549,001,2023-07-23_12h01.44.621,arm3_q,2022.2.5,MacIntel,58.82352941,up,1,0.1786,0.35,0,0,0.615,,,,,,66,0,66,0,1,,,,,
,,361549,001,2023-07-23_12h01.44.621,arm3_q,2022.2.5,MacIntel,58.82352941,right,1,0.1786,0.35,0,0.005055567,0.931,,,,,,67,0,67,0,1,,,,,
,,361549,001,2023-07-23_12h01.44.621,arm3_q,2022.2.5,MacIntel,58.82352941,right,1,0.1786,0.35,0,-0.022796309,0.767,,,,,,68,0,68,0,1,,,,,
,,361549,001,2023-07-23_12h01.44.621,arm3_q,2022.2.5,MacIntel,58.82352941,right,1,0.1786,0.35,0,-0.019184285,0.136,,,,,,69,0,69,0,1,,,,,
,,361549,001,2023-07-23_12h01.44.621,arm3_q,2022.2.5,MacIntel,58.82352941,right,1,0.1786,0.35,0,-0.004813699,0.261,,,,,,70,0,70,0,1,,,,,
,,361549,001,2023-07-23_12h01.44.621,arm3_q,2022.2.5,MacIntel,58.82352941,right,1,0.1786,0.35,0,-0.013239802,0.195,,,,,,71,0,71,0,1,,,,,
,,361549,001,2023-07-23_12h01.44.621,arm3_q,2022.2.5,MacIntel,58.82352941,right,1,0.1786,0.35,0,-0.023285342,0.136,,,,,,72,0,72,0,1,,,,,
,,361549,001,2023-07-23_12h01.44.621,arm3_q,2022.2.5,MacIntel,58.82352941,right,1,0.1786,0.35,0,-0.031138582,0.162,,,,,,73,0,73,0,1,,,,,
,,361549,001,2023-07-23_12h01.44.621,arm3_q,2022.2.5,MacIntel,58.82352941,right,1,0.1786,0.35,0,-0.070509188,0.145,,,,,,74,0,74,0,1,,,,,
,,361549,001,2023-07-23_12h01.44.621,arm3_q,2022.2.5,MacIntel,58.82352941,right,1,0.1786,0.35,0,-0.067298812,0.212,,,,,,75,0,75,0,1,,,,,
,,361549,001,2023-07-23_12h01.44.621,arm3_q,2022.2.5,MacIntel,58.82352941,right,1,0.1786,0.35,0,-0.038538984,0.726,,,,,,76,0,76,0,1,,,,,
,,361549,001,2023-07-23_12h01.44.621,arm3_q,2022.2.5,MacIntel,58.82352941,down,-1,0.1786,0.35,0,0,0.614,,,,,,77,0,77,0,1,,,,,
,,361549,001,2023-07-23_12h01.44.621,arm3_q,2022.2.5,MacIntel,58.82352941,right,-1,0.1786,0.35,0,-0.02459564,0.698,,,,,,78,0,78,0,1,,,,,
,,361549,001,2023-07-23_12h01.44.621,arm3_q,2022.2.5,MacIntel,58.82352941,right,-1,0.1786,0.35,0,-0.030815485,0.145,,,,,,79,0,79,0,1,,,,,
,,361549,001,2023-07-23_12h01.44.621,arm3_q,2022.2.5,MacIntel,58.82352941,right,-1,0.1786,0.35,0,-0.06635623,0.578,,,,,,80,0,80,0,1,,,,,
,,361549,001,2023-07-23_12h01.44.621,arm3_q,2022.2.5,MacIntel,58.82352941,right,-1,0.1786,0.35,0,-0.076416127,0.166,,,,,,81,0,81,0,1,,,,,
,,361549,001,2023-07-23_12h01.44.621,arm3_q,2022.2.5,MacIntel,58.82352941,right,-1,0.1786,0.35,0,-0.08405264,0.163,,,,,,82,0,82,0,1,,,,,
,,361549,001,2023-07-23_12h01.44.621,arm3_q,2022.2.5,MacIntel,58.82352941,right,-1,0.1786,0.35,0,-0.078982235,0.148,,,,,,83,0,83,0,1,,,,,
,,361549,001,2023-07-23_12h01.44.621,arm3_q,2022.2.5,MacIntel,58.82352941,right,-1,0.1786,0.35,0,-0.092913633,0.149,,,,,,84,0,84,0,1,,,,,
,,361549,001,2023-07-23_12h01.44.621,arm3_q,2022.2.5,MacIntel,58.82352941,right,-1,0.1786,0.35,0,-0.127692371,0.138,,,,,,85,0,85,0,1,,,,,
,,361549,001,2023-07-23_12h01.44.621,arm3_q,2022.2.5,MacIntel,58.82352941,right,-1,0.1786,0.35,0,-0.147936794,0.161,,,,,,86,0,86,0,1,,,,,
,,361549,001,2023-07-23_12h01.44.621,arm3_q,2022.2.5,MacIntel,58.82352941,right,-1,0.1786,0.35,0,-0.108856822,0.73,,,,,,87,0,87,0,1,,,,,
,,361549,001,2023-07-23_12h01.44.621,arm3_q,2022.2.5,MacIntel,58.82352941,right,-1,0.1786,0.35,0,-0.127324295,0.745,,,,,,88,0,88,0,1,,,,,
,,361549,001,2023-07-23_12h01.44.621,arm3_q,2022.2.5,MacIntel,58.82352941,down,-1,0.1786,0.35,0,0,0.499,,,,,,89,0,89,0,1,,,,,
,,361549,001,2023-07-23_12h01.44.621,arm3_q,2022.2.5,MacIntel,58.82352941,right,-1,0.1786,0.35,0,-0.037825088,1.221,,,,,,90,0,90,0,1,,,,,
,,361549,001,2023-07-23_12h01.44.621,arm3_q,2022.2.5,MacIntel,58.82352941,right,-1,0.1786,0.35,0,-0.043291632,0.179,,,,,,91,0,91,0,1,,,,,
,,361549,001,2023-07-23_12h01.44.621,arm3_q,2022.2.5,MacIntel,58.82352941,right,-1,0.1786,0.35,0,-0.050286008,0.148,,,,,,92,0,92,0,1,,,,,
,,361549,001,2023-07-23_12h01.44.621,arm3_q,2022.2.5,MacIntel,58.82352941,right,-1,0.1786,0.35,0,-0.030078908,0.152,,,,,,93,0,93,0,1,,,,,
,,361549,001,2023-07-23_12h01.44.621,arm3_q,2022.2.5,MacIntel,58.82352941,right,-1,0.1786,0.35,0,-0.040756683,0.152,,,,,,94,0,94,0,1,,,,,
,,361549,001,2023-07-23_12h01.44.621,arm3_q,2022.2.5,MacIntel,58.82352941,right,-1,0.1786,0.35,0,-0.065666982,0.163,,,,,,95,0,95,0,1,,,,,
,,361549,001,2023-07-23_12h01.44.621,arm3_q,2022.2.5,MacIntel,58.82352941,right,-1,0.1786,0.35,0,-0.107770133,0.16,,,,,,96,0,96,0,1,,,,,
,,361549,001,2023-07-23_12h01.44.621,arm3_q,2022.2.5,MacIntel,58.82352941,right,-1,0.1786,0.35,0,-0.117815278,0.163,,,,,,97,0,97,0,1,,,,,
,,361549,001,2023-07-23_12h01.44.621,arm3_q,2022.2.5,MacIntel,58.82352941,right,-1,0.1786,0.35,0,-0.097925352,0.162,,,,,,98,0,98,0,1,,,,,
,,361549,001,2023-07-23_12h01.44.621,arm3_q,2022.2.5,MacIntel,58.82352941,right,-1,0.1786,0.35,0,-0.083152327,0.152,,,,,,99,0,99,0,1,,,,,
,,361549,001,2023-07-23_12h01.44.621,arm3_q,2022.2.5,MacIntel,58.82352941,right,-1,0.1786,0.35,0,-0.090363398,0.181,,,,,,100,0,100,0,1,,,,,
,,361549,001,2023-07-23_12h01.44.621,arm3_q,2022.2.5,MacIntel,58.82352941,down,-1,0.1786,0.35,0,0,0.585,,,,,,101,0,101,0,1,,,,,
,,361549,001,2023-07-23_12h01.44.621,arm3_q,2022.2.5,MacIntel,58.82352941,right,-1,0.1786,0.35,0,-0.009957059,0.88,,,,,,102,0,102,0,1,,,,,
,,361549,001,2023-07-23_12h01.44.621,arm3_q,2022.2.5,MacIntel,58.82352941,right,-1,0.1786,0.35,0,-0.000887006,0.229,,,,,,103,0,103,0,1,,,,,
,,361549,001,2023-07-23_12h01.44.621,arm3_q,2022.2.5,MacIntel,58.82352941,right,-1,0.1786,0.35,0,0.000825017,0.379,,,,,,104,0,104,0,1,,,,,
,,361549,001,2023-07-23_12h01.44.621,arm3_q,2022.2.5,MacIntel,58.82352941,right,-1,0.1786,0.35,0,0.016160914,0.179,,,,,,105,0,105,0,1,,,,,
,,361549,001,2023-07-23_12h01.44.621,arm3_q,2022.2.5,MacIntel,58.82352941,right,-1,0.1786,0.35,0,0.013501298,0.155,,,,,,106,0,106,0,1,,,,,
,,361549,001,2023-07-23_12h01.44.621,arm3_q,2022.2.5,MacIntel,58.82352941,up,-1,0.1786,0.35,-1,0,0.533,,,,,,107,0,107,0,1,,,,,
,,361549,001,2023-07-23_12h01.44.621,arm3_q,2022.2.5,MacIntel,58.82352941,right,-1,0.1786,0.35,-1,0.011669746,0.907,,,,,,108,0,108,0,1,,,,,
,,361549,001,2023-07-23_12h01.44.621,arm3_q,2022.2.5,MacIntel,58.82352941,right,-1,0.1786,0.35,-1,-0.02123344,0.135,,,,,,109,0,109,0,1,,,,,
,,361549,001,2023-07-23_12h01.44.621,arm3_q,2022.2.5,MacIntel,58.82352941,right,-1,0.1786,0.35,-1,-0.057222281,0.565,,,,,,110,0,110,0,1,,,,,
,,361549,001,2023-07-23_12h01.44.621,arm3_q,2022.2.5,MacIntel,58.82352941,right,-1,0.1786,0.35,-1,-0.052194754,0.162,,,,,,111,0,111,0,1,,,,,
,,361549,001,2023-07-23_12h01.44.621,arm3_q,2022.2.5,MacIntel,58.82352941,right,-1,0.1786,0.35,-1,-0.062120933,0.165,,,,,,112,0,112,0,1,,,,,
,,361549,001,2023-07-23_12h01.44.621,arm3_q,2022.2.5,MacIntel,58.82352941,right,-1,0.1786,0.35,-1,-0.065068636,0.153,,,,,,113,0,113,0,1,,,,,
,,361549,001,2023-07-23_12h01.44.621,arm3_q,2022.2.5,MacIntel,58.82352941,right,-1,0.1786,0.35,-1,-0.075813177,0.163,,,,,,114,0,114,0,1,,,,,
,,361549,001,2023-07-23_12h01.44.621,arm3_q,2022.2.5,MacIntel,58.82352941,down,1,0.1786,0.35,-1,0,0.347,,,,,,115,0,115,0,1,,,,,
,,361549,001,2023-07-23_12h01.44.621,arm3_q,2022.2.5,MacIntel,58.82352941,right,1,0.1786,0.35,-1,0.008566792,0.94,,,,,,116,0,116,0,1,,,,,
,,361549,001,2023-07-23_12h01.44.621,arm3_q,2022.2.5,MacIntel,58.82352941,right,1,0.1786,0.35,-1,-0.003234136,0.183,,,,,,117,0,117,0,1,,,,,
,,361549,001,2023-07-23_12h01.44.621,arm3_q,2022.2.5,MacIntel,58.82352941,right,1,0.1786,0.35,-1,0.017573344,0.169,,,,,,118,0,118,0,1,,,,,
,,361549,001,2023-07-23_12h01.44.621,arm3_q,2022.2.5,MacIntel,58.82352941,right,1,0.1786,0.35,-1,-0.012531189,0.417,,,,,,119,0,119,0,1,,,,,
,,361549,001,2023-07-23_12h01.44.621,arm3_q,2022.2.5,MacIntel,58.82352941,right,1,0.1786,0.35,-1,-0.006020295,0.18,,,,,,120,0,120,0,1,,,,,
,,361549,001,2023-07-23_12h01.44.621,arm3_q,2022.2.5,MacIntel,58.82352941,right,1,0.1786,0.35,-1,0.007605789,0.162,,,,,,121,0,121,0,1,,,,,
,,361549,001,2023-07-23_12h01.44.621,arm3_q,2022.2.5,MacIntel,58.82352941,right,1,0.1786,0.35,-1,-0.030196946,0.171,,,,,,122,0,122,0,1,,,,,
,,361549,001,2023-07-23_12h01.44.621,arm3_q,2022.2.5,MacIntel,58.82352941,right,1,0.1786,0.35,-1,-0.027647515,0.195,,,,,,123,0,123,0,1,,,,,
,,361549,001,2023-07-23_12h01.44.621,arm3_q,2022.2.5,MacIntel,58.82352941,right,1,0.1786,0.35,-1,0.006531264,0.51,,,,,,124,0,124,0,1,,,,,
,,361549,001,2023-07-23_12h01.44.621,arm3_q,2022.2.5,MacIntel,58.82352941,right,1,0.1786,0.35,-1,0.002603104,0.367,,,,,,125,0,125,0,1,,,,,
,,361549,001,2023-07-23_12h01.44.621,arm3_q,2022.2.5,MacIntel,58.82352941,right,1,0.1786,0.35,-1,-0.005132999,0.446,,,,,,126,0,126,0,1,,,,,
,,361549,001,2023-07-23_12h01.44.621,arm3_q,2022.2.5,MacIntel,58.82352941,up,1,0.1786,0.35,-1,0,2.565,,,,,,127,0,127,0,1,,,,,
,,361549,001,2023-07-23_12h01.44.621,arm3_q,2022.2.5,MacIntel,58.82352941,right,1,0.1786,0.35,-1,0.006914049,0.761,,,,,,128,0,128,0,1,,,,,
,,361549,001,2023-07-23_12h01.44.621,arm3_q,2022.2.5,MacIntel,58.82352941,right,1,0.1786,0.35,-1,0.020141412,0.154,,,,,,129,0,129,0,1,,,,,
,,361549,001,2023-07-23_12h01.44.621,arm3_q,2022.2.5,MacIntel,58.82352941,right,1,0.1786,0.35,-1,0.036144309,0.169,,,,,,130,0,130,0,1,,,,,
,,361549,001,2023-07-23_12h01.44.621,arm3_q,2022.2.5,MacIntel,58.82352941,right,1,0.1786,0.35,-1,0.044729803,0.17,,,,,,131,0,131,0,1,,,,,
,,361549,001,2023-07-23_12h01.44.621,arm3_q,2022.2.5,MacIntel,58.82352941,right,1,0.1786,0.35,-1,0.050610635,0.162,,,,,,132,0,132,0,1,,,,,
,,361549,001,2023-07-23_12h01.44.621,arm3_q,2022.2.5,MacIntel,58.82352941,right,1,0.1786,0.35,-1,0.06633223,0.166,,,,,,133,0,133,0,1,,,,,
,,361549,001,2023-07-23_12h01.44.621,arm3_q,2022.2.5,MacIntel,58.82352941,right,1,0.1786,0.35,-1,0.08715987,0.182,,,,,,134,0,134,0,1,,,,,
,,361549,001,2023-07-23_12h01.44.621,arm3_q,2022.2.5,MacIntel,58.82352941,right,1,0.1786,0.35,-1,0.082999643,0.164,,,,,,135,0,135,0,1,,,,,
,,361549,001,2023-07-23_12h01.44.621,arm3_q,2022.2.5,MacIntel,58.82352941,right,1,0.1786,0.35,-1,0.132809174,0.161,,,,,,136,0,136,0,1,,,,,
,,361549,001,2023-07-23_12h01.44.621,arm3_q,2022.2.5,MacIntel,58.82352941,right,1,0.1786,0.35,-1,0.122841636,0.346,,,,,,137,0,137,0,1,,,,,
,,361549,001,2023-07-23_12h01.44.621,arm3_q,2022.2.5,MacIntel,58.82352941,up,1,0.1786,0.35,-1,0,0.413,,,,,,138,0,138,0,1,,,,,
,,361549,001,2023-07-23_12h01.44.621,arm3_q,2022.2.5,MacIntel,58.82352941,right,1,0.1786,0.35,-1,0.008054393,0.766,,,,,,139,0,139,0,1,,,,,
,,361549,001,2023-07-23_12h01.44.621,arm3_q,2022.2.5,MacIntel,58.82352941,right,1,0.1786,0.35,-1,0.00010561,0.169,,,,,,140,0,140,0,1,,,,,
,,361549,001,2023-07-23_12h01.44.621,arm3_q,2022.2.5,MacIntel,58.82352941,right,1,0.1786,0.35,-1,-0.005481699,0.178,,,,,,141,0,141,0,1,,,,,
,,361549,001,2023-07-23_12h01.44.621,arm3_q,2022.2.5,MacIntel,58.82352941,right,1,0.1786,0.35,-1,0.020903431,0.164,,,,,,142,0,142,0,1,,,,,
,,361549,001,2023-07-23_12h01.44.621,arm3_q,2022.2.5,MacIntel,58.82352941,right,1,0.1786,0.35,-1,0.042515012,0.178,,,,,,143,0,143,0,1,,,,,
,,361549,001,2023-07-23_12h01.44.621,arm3_q,2022.2.5,MacIntel,58.82352941,right,1,0.1786,0.35,-1,0.045547234,0.169,,,,,,144,0,144,0,1,,,,,
,,361549,001,2023-07-23_12h01.44.621,arm3_q,2022.2.5,MacIntel,58.82352941,right,1,0.1786,0.35,-1,0.039793517,0.177,,,,,,145,0,145,0,1,,,,,
,,361549,001,2023-07-23_12h01.44.621,arm3_q,2022.2.5,MacIntel,58.82352941,right,1,0.1786,0.35,-1,0.099659484,0.153,,,,,,146,0,146,0,1,,,,,
,,361549,001,2023-07-23_12h01.44.621,arm3_q,2022.2.5,MacIntel,58.82352941,up,1,0.1786,0.35,-1,0,0.461,,,,,,147,0,147,0,1,,,,,
,,361549,001,2023-07-23_12h01.44.621,arm3_q,2022.2.5,MacIntel,58.82352941,right,1,0.1786,0.35,-1,0.017067566,0.385,,,,,,148,0,148,0,1,,,,,
,,361549,001,2023-07-23_12h01.44.621,arm3_q,2022.2.5,MacIntel,58.82352941,right,1,0.1786,0.35,-1,0.033065485,0.314,,,,,,149,0,149,0,1,,,,,
,,361549,001,2023-07-23_12h01.44.621,arm3_q,2022.2.5,MacIntel,58.82352941,right,1,0.1786,0.35,-1,0.060625897,0.179,,,,,,150,0,150,0,1,,,,,
,,361549,001,2023-07-23_12h01.44.621,arm3_q,2022.2.5,MacIntel,58.82352941,right,1,0.1786,0.35,-1,0.064421492,0.195,,,,,,151,0,151,0,1,,,,,
,,361549,001,2023-07-23_12h01.44.621,arm3_q,2022.2.5,MacIntel,58.82352941,right,1,0.1786,0.35,-1,0.09033838,0.164,,,,,,152,0,152,0,1,,,,,
,,361549,001,2023-07-23_12h01.44.621,arm3_q,2022.2.5,MacIntel,58.82352941,right,1,0.1786,0.35,-1,0.080073994,0.164,,,,,,153,0,153,0,1,,,,,
,,361549,001,2023-07-23_12h01.44.621,arm3_q,2022.2.5,MacIntel,58.82352941,right,1,0.1786,0.35,-1,0.062553984,0.187,,,,,,154,0,154,0,1,,,,,
,,361549,001,2023-07-23_12h01.44.621,arm3_q,2022.2.5,MacIntel,58.82352941,right,1,0.1786,0.35,-1,0.110710947,0.179,,,,,,155,0,155,0,1,,,,,
,,361549,001,2023-07-23_12h01.44.621,arm3_q,2022.2.5,MacIntel,58.82352941,right,1,0.1786,0.35,-1,0.135822012,0.181,,,,,,156,0,156,0,1,,,,,
,,361549,001,2023-07-23_12h01.44.621,arm3_q,2022.2.5,MacIntel,58.82352941,right,1,0.1786,0.35,-1,0.149316806,0.163,,,,,,157,0,157,0,1,,,,,
,,361549,001,2023-07-23_12h01.44.621,arm3_q,2022.2.5,MacIntel,58.82352941,up,-1,0.1786,0.35,-1,0,0.428,,,,,,158,0,158,0,1,,,,,
,,361549,001,2023-07-23_12h01.44.621,arm3_q,2022.2.5,MacIntel,58.82352941,right,-1,0.1786,0.35,-1,-0.041293937,0.58,,,,,,159,0,159,0,1,,,,,
,,361549,001,2023-07-23_12h01.44.621,arm3_q,2022.2.5,MacIntel,58.82352941,right,-1,0.1786,0.35,-1,-0.044471628,0.38,,,,,,160,0,160,0,1,,,,,
,,361549,001,2023-07-23_12h01.44.621,arm3_q,2022.2.5,MacIntel,58.82352941,right,-1,0.1786,0.35,-1,-0.060335905,0.183,,,,,,161,0,161,0,1,,,,,
,,361549,001,2023-07-23_12h01.44.621,arm3_q,2022.2.5,MacIntel,58.82352941,right,-1,0.1786,0.35,-1,-0.051985075,0.182,,,,,,162,0,162,0,1,,,,,
,,361549,001,2023-07-23_12h01.44.621,arm3_q,2022.2.5,MacIntel,58.82352941,right,-1,0.1786,0.35,-1,-0.056072018,0.178,,,,,,163,0,163,0,1,,,,,
,,361549,001,2023-07-23_12h01.44.621,arm3_q,2022.2.5,MacIntel,58.82352941,right,-1,0.1786,0.35,-1,-0.04895892,0.152,,,,,,164,0,164,0,1,,,,,
,,361549,001,2023-07-23_12h01.44.621,arm3_q,2022.2.5,MacIntel,58.82352941,right,-1,0.1786,0.35,-1,-0.071265819,0.162,,,,,,165,0,165,0,1,,,,,
,,361549,001,2023-07-23_12h01.44.621,arm3_q,2022.2.5,MacIntel,58.82352941,right,-1,0.1786,0.35,-1,-0.106915018,0.162,,,,,,166,0,166,0,1,,,,,
,,361549,001,2023-07-23_12h01.44.621,arm3_q,2022.2.5,MacIntel,58.82352941,right,-1,0.1786,0.35,-1,-0.119166116,1.134,,,,,,167,0,167,0,1,,,,,
,,361549,001,2023-07-23_12h01.44.621,arm3_q,2022.2.5,MacIntel,58.82352941,down,1,0.1786,0.35,0,0,0.88,,,,,,168,0,168,0,1,,,,,
,,361549,001,2023-07-23_12h01.44.621,arm3_q,2022.2.5,MacIntel,58.82352941,right,1,0.1786,0.35,0,0.038832823,0.867,,,,,,169,0,169,0,1,,,,,
,,361549,001,2023-07-23_12h01.44.621,arm3_q,2022.2.5,MacIntel,58.82352941,right,1,0.1786,0.35,0,0.030506312,0.189,,,,,,170,0,170,0,1,,,,,
,,361549,001,2023-07-23_12h01.44.621,arm3_q,2022.2.5,MacIntel,58.82352941,right,1,0.1786,0.35,0,0.041516838,0.135,,,,,,171,0,171,0,1,,,,,
,,361549,001,2023-07-23_12h01.44.621,arm3_q,2022.2.5,MacIntel,58.82352941,right,1,0.1786,0.35,0,0.05495225,0.154,,,,,,172,0,172,0,1,,,,,
,,361549,001,2023-07-23_12h01.44.621,arm3_q,2022.2.5,MacIntel,58.82352941,right,1,0.1786,0.35,0,0.0780242,0.172,,,,,,173,0,173,0,1,,,,,
,,361549,001,2023-07-23_12h01.44.621,arm3_q,2022.2.5,MacIntel,58.82352941,right,1,0.1786,0.35,0,0.118949849,0.148,,,,,,174,0,174,0,1,,,,,
,,361549,001,2023-07-23_12h01.44.621,arm3_q,2022.2.5,MacIntel,58.82352941,right,1,0.1786,0.35,0,0.088994124,0.513,,,,,,175,0,175,0,1,,,,,
,,361549,001,2023-07-23_12h01.44.621,arm3_q,2022.2.5,MacIntel,58.82352941,right,1,0.1786,0.35,0,0.134774487,0.236,,,,,,176,0,176,0,1,,,,,
,,361549,001,2023-07-23_12h01.44.621,arm3_q,2022.2.5,MacIntel,58.82352941,up,-1,0.1786,0.35,0,0,0.512,,,,,,177,0,177,0,1,,,,,
,,361549,001,2023-07-23_12h01.44.621,arm3_q,2022.2.5,MacIntel,58.82352941,right,-1,0.1786,0.35,0,-0.010712763,0.791,,,,,,178,0,178,0,1,,,,,
,,361549,001,2023-07-23_12h01.44.621,arm3_q,2022.2.5,MacIntel,58.82352941,right,-1,0.1786,0.35,0,-0.029698097,0.136,,,,,,179,0,179,0,1,,,,,
,,361549,001,2023-07-23_12h01.44.621,arm3_q,2022.2.5,MacIntel,58.82352941,right,-1,0.1786,0.35,0,-0.01735426,0.149,,,,,,180,0,180,0,1,,,,,
,,361549,001,2023-07-23_12h01.44.621,arm3_q,2022.2.5,MacIntel,58.82352941,right,-1,0.1786,0.35,0,-0.024956873,0.164,,,,,,181,0,181,0,1,,,,,
,,361549,001,2023-07-23_12h01.44.621,arm3_q,2022.2.5,MacIntel,58.82352941,right,-1,0.1786,0.35,0,-0.072081565,0.153,,,,,,182,0,182,0,1,,,,,
,,361549,001,2023-07-23_12h01.44.621,arm3_q,2022.2.5,MacIntel,58.82352941,right,-1,0.1786,0.35,0,-0.091308875,0.161,,,,,,183,0,183,0,1,,,,,
,,361549,001,2023-07-23_12h01.44.621,arm3_q,2022.2.5,MacIntel,58.82352941,right,-1,0.1786,0.35,0,-0.093614262,0.148,,,,,,184,0,184,0,1,,,,,
,,361549,001,2023-07-23_12h01.44.621,arm3_q,2022.2.5,MacIntel,58.82352941,right,-1,0.1786,0.35,0,-0.117390256,0.153,,,,,,185,0,185,0,1,,,,,
,,361549,001,2023-07-23_12h01.44.621,arm3_q,2022.2.5,MacIntel,58.82352941,down,-1,0.1786,0.35,0,0,0.55,,,,,,186,0,186,0,1,,,,,
,,361549,001,2023-07-23_12h01.44.621,arm3_q,2022.2.5,MacIntel,58.82352941,right,-1,0.1786,0.35,0,-0.01638092,0.77,,,,,,187,0,187,0,1,,,,,
,,361549,001,2023-07-23_12h01.44.621,arm3_q,2022.2.5,MacIntel,58.82352941,right,-1,0.1786,0.35,0,-0.029810648,0.149,,,,,,188,0,188,0,1,,,,,
,,361549,001,2023-07-23_12h01.44.621,arm3_q,2022.2.5,MacIntel,58.82352941,right,-1,0.1786,0.35,0,-0.043623354,0.164,,,,,,189,0,189,0,1,,,,,
,,361549,001,2023-07-23_12h01.44.621,arm3_q,2022.2.5,MacIntel,58.82352941,right,-1,0.1786,0.35,0,-0.029208117,0.145,,,,,,190,0,190,0,1,,,,,
,,361549,001,2023-07-23_12h01.44.621,arm3_q,2022.2.5,MacIntel,58.82352941,right,-1,0.1786,0.35,0,-0.023602981,0.161,,,,,,191,0,191,0,1,,,,,
,,361549,001,2023-07-23_12h01.44.621,arm3_q,2022.2.5,MacIntel,58.82352941,right,-1,0.1786,0.35,0,-0.016233215,0.151,,,,,,192,0,192,0,1,,,,,
,,361549,001,2023-07-23_12h01.44.621,arm3_q,2022.2.5,MacIntel,58.82352941,right,-1,0.1786,0.35,0,-0.006767837,0.163,,,,,,193,0,193,0,1,,,,,
,,361549,001,2023-07-23_12h01.44.621,arm3_q,2022.2.5,MacIntel,58.82352941,right,-1,0.1786,0.35,0,-0.031345097,0.154,,,,,,194,0,194,0,1,,,,,
,,361549,001,2023-07-23_12h01.44.621,arm3_q,2022.2.5,MacIntel,58.82352941,right,-1,0.1786,0.35,0,-0.035934238,0.164,,,,,,195,0,195,0,1,,,,,
,,361549,001,2023-07-23_12h01.44.621,arm3_q,2022.2.5,MacIntel,58.82352941,right,-1,0.1786,0.35,0,-0.034079465,0.154,,,,,,196,0,196,0,1,,,,,
,,361549,001,2023-07-23_12h01.44.621,arm3_q,2022.2.5,MacIntel,58.82352941,down,1,0.1786,0.35,0,0,0.322,,,,,,197,0,197,0,1,,,,,
,,361549,001,2023-07-23_12h01.44.621,arm3_q,2022.2.5,MacIntel,58.82352941,right,1,0.1786,0.35,0,-0.00285914,0.812,,,,,,198,0,198,0,1,,,,,
,,361549,001,2023-07-23_12h01.44.621,arm3_q,2022.2.5,MacIntel,58.82352941,right,1,0.1786,0.35,0,-0.009750762,0.146,,,,,,199,0,199,0,1,,,,,
,,361549,001,2023-07-23_12h01.44.621,arm3_q,2022.2.5,MacIntel,58.82352941,right,1,0.1786,0.35,0,0.004484945,0.178,,,,,,200,0,200,0,1,,,,,
,,361549,001,2023-07-23_12h01.44.621,arm3_q,2022.2.5,MacIntel,58.82352941,right,1,0.1786,0.35,0,-0.003586947,0.166,,,,,,201,0,201,0,1,,,,,
,,361549,001,2023-07-23_12h01.44.621,arm3_q,2022.2.5,MacIntel,58.82352941,right,1,0.1786,0.35,0,0.028495044,0.17,,,,,,202,0,202,0,1,,,,,
,,361549,001,2023-07-23_12h01.44.621,arm3_q,2022.2.5,MacIntel,58.82352941,right,1,0.1786,0.35,0,0.031834929,0.164,,,,,,203,0,203,0,1,,,,,
,,361549,001,2023-07-23_12h01.44.621,arm3_q,2022.2.5,MacIntel,58.82352941,right,1,0.1786,0.35,0,0.050779431,0.165,,,,,,204,0,204,0,1,,,,,
,,361549,001,2023-07-23_12h01.44.621,arm3_q,2022.2.5,MacIntel,58.82352941,right,1,0.1786,0.35,0,0.047377657,0.16,,,,,,205,0,205,0,1,,,,,
,,361549,001,2023-07-23_12h01.44.621,arm3_q,2022.2.5,MacIntel,58.82352941,up,-1,0.1786,0.35,1,0,0.227,,,,,,206,0,206,0,1,,,,,
,,361549,001,2023-07-23_12h01.44.621,arm3_q,2022.2.5,MacIntel,58.82352941,right,-1,0.1786,0.35,1,0.023243286,0.745,,,,,,207,0,207,0,1,,,,,
,,361549,001,2023-07-23_12h01.44.621,arm3_q,2022.2.5,MacIntel,58.82352941,right,-1,0.1786,0.35,1,0.025774323,0.171,,,,,,208,0,208,0,1,,,,,
,,361549,001,2023-07-23_12h01.44.621,arm3_q,2022.2.5,MacIntel,58.82352941,right,-1,0.1786,0.35,1,0.04149766,0.167,,,,,,209,0,209,0,1,,,,,
,,361549,001,2023-07-23_12h01.44.621,arm3_q,2022.2.5,MacIntel,58.82352941,right,-1,0.1786,0.35,1,0.046162467,0.154,,,,,,210,0,210,0,1,,,,,
,,361549,001,2023-07-23_12h01.44.621,arm3_q,2022.2.5,MacIntel,58.82352941,right,-1,0.1786,0.35,1,0.054424016,0.166,,,,,,211,0,211,0,1,,,,,
,,361549,001,2023-07-23_12h01.44.621,arm3_q,2022.2.5,MacIntel,58.82352941,up,1,0.1786,0.35,1,0,0.295,,,,,,212,0,212,0,1,,,,,
,,361549,001,2023-07-23_12h01.44.621,arm3_q,2022.2.5,MacIntel,58.82352941,right,1,0.1786,0.35,1,0.022335963,0.698,,,,,,213,0,213,0,1,,,,,
,,361549,001,2023-07-23_12h01.44.621,arm3_q,2022.2.5,MacIntel,58.82352941,right,1,0.1786,0.35,1,0.056883036,0.162,,,,,,214,0,214,0,1,,,,,
,,361549,001,2023-07-23_12h01.44.621,arm3_q,2022.2.5,MacIntel,58.82352941,right,1,0.1786,0.35,1,0.072613974,0.147,,,,,,215,0,215,0,1,,,,,
,,361549,001,2023-07-23_12h01.44.621,arm3_q,2022.2.5,MacIntel,58.82352941,right,1,0.1786,0.35,1,0.066209809,0.162,,,,,,216,0,216,0,1,,,,,
,,361549,001,2023-07-23_12h01.44.621,arm3_q,2022.2.5,MacIntel,58.82352941,right,1,0.1786,0.35,1,0.061424761,0.171,,,,,,217,0,217,0,1,,,,,
,,361549,001,2023-07-23_12h01.44.621,arm3_q,2022.2.5,MacIntel,58.82352941,right,1,0.1786,0.35,1,0.065322368,0.213,,,,,,218,0,218,0,1,,,,,
,,361549,001,2023-07-23_12h01.44.621,arm3_q,2022.2.5,MacIntel,58.82352941,right,1,0.1786,0.35,1,0.081897894,0.181,,,,,,219,0,219,0,1,,,,,
,,361549,001,2023-07-23_12h01.44.621,arm3_q,2022.2.5,MacIntel,58.82352941,right,1,0.1786,0.35,1,0.089484983,0.146,,,,,,220,0,220,0,1,,,,,
,,361549,001,2023-07-23_12h01.44.621,arm3_q,2022.2.5,MacIntel,58.82352941,up,1,0.1786,0.35,1,0,0.296,,,,,,221,0,221,0,1,,,,,
,,361549,001,2023-07-23_12h01.44.621,arm3_q,2022.2.5,MacIntel,58.82352941,right,1,0.1786,0.35,1,7.02487E-05,0.681,,,,,,222,0,222,0,1,,,,,
,,361549,001,2023-07-23_12h01.44.621,arm3_q,2022.2.5,MacIntel,58.82352941,right,1,0.1786,0.35,1,0.021050009,0.152,,,,,,223,0,223,0,1,,,,,
,,361549,001,2023-07-23_12h01.44.621,arm3_q,2022.2.5,MacIntel,58.82352941,right,1,0.1786,0.35,1,0.041528437,0.196,,,,,,224,0,224,0,1,,,,,
,,361549,001,2023-07-23_12h01.44.621,arm3_q,2022.2.5,MacIntel,58.82352941,right,1,0.1786,0.35,1,0.070768169,0.153,,,,,,225,0,225,0,1,,,,,
,,361549,001,2023-07-23_12h01.44.621,arm3_q,2022.2.5,MacIntel,58.82352941,up,1,0.1786,0.35,1,0,0.268,,,,,,226,0,226,0,1,,,,,
,,361549,001,2023-07-23_12h01.44.621,arm3_q,2022.2.5,MacIntel,58.82352941,right,1,0.1786,0.35,1,-0.011198596,0.782,,,,,,227,0,227,0,1,,,,,
,,361549,001,2023-07-23_12h01.44.621,arm3_q,2022.2.5,MacIntel,58.82352941,right,1,0.1786,0.35,1,-0.02737164,0.313,,,,,,228,0,228,0,1,,,,,
,,361549,001,2023-07-23_12h01.44.621,arm3_q,2022.2.5,MacIntel,58.82352941,right,1,0.1786,0.35,1,-0.004106879,0.152,,,,,,229,0,229,0,1,,,,,
,,361549,001,2023-07-23_12h01.44.621,arm3_q,2022.2.5,MacIntel,58.82352941,right,1,0.1786,0.35,1,-0.028518287,0.151,,,,,,230,0,230,0,1,,,,,
,,361549,001,2023-07-23_12h01.44.621,arm3_q,2022.2.5,MacIntel,58.82352941,right,1,0.1786,0.35,1,-0.021462703,0.253,,,,,,231,0,231,0,1,,,,,
,,361549,001,2023-07-23_12h01.44.621,arm3_q,2022.2.5,MacIntel,58.82352941,right,1,0.1786,0.35,1,-0.018237129,0.178,,,,,,232,0,232,0,1,,,,,
,,361549,001,2023-07-23_12h01.44.621,arm3_q,2022.2.5,MacIntel,58.82352941,right,1,0.1786,0.35,1,-0.028298009,0.153,,,,,,233,0,233,0,1,,,,,
,,361549,001,2023-07-23_12h01.44.621,arm3_q,2022.2.5,MacIntel,58.82352941,right,1,0.1786,0.35,1,-0.016134953,0.351,,,,,,234,0,234,0,1,,,,,
,,361549,001,2023-07-23_12h01.44.621,arm3_q,2022.2.5,MacIntel,58.82352941,right,1,0.1786,0.35,1,0.014086508,0.813,,,,,,235,0,235,0,1,,,,,
,,361549,001,2023-07-23_12h01.44.621,arm3_q,2022.2.5,MacIntel,58.82352941,right,1,0.1786,0.35,1,0.006458635,1.353,,,,,,236,0,236,0,1,,,,,
,,361549,001,2023-07-23_12h01.44.621,arm3_q,2022.2.5,MacIntel,58.82352941,right,1,0.1786,0.35,1,-0.000519232,1.227,,,,,,237,0,237,0,1,,,,,
,,361549,001,2023-07-23_12h01.44.621,arm3_q,2022.2.5,MacIntel,58.82352941,right,1,0.1786,0.35,1,0.000591497,1.695,,,,,,238,0,238,0,1,,,,,
,,361549,001,2023-07-23_12h01.44.621,arm3_q,2022.2.5,MacIntel,58.82352941,up,1,0.1786,0.35,1,0,1.863,,,,,,239,0,239,0,1,,,,,
,,361549,001,2023-07-23_12h01.44.621,arm3_q,2022.2.5,MacIntel,58.82352941,right,1,0.1786,0.35,1,0.013828841,0.796,,,,,,240,0,240,0,1,,,,,
,,361549,001,2023-07-23_12h01.44.621,arm3_q,2022.2.5,MacIntel,58.82352941,right,1,0.1786,0.35,1,0.008972749,0.213,,,,,,241,0,241,0,1,,,,,
,,361549,001,2023-07-23_12h01.44.621,arm3_q,2022.2.5,MacIntel,58.82352941,right,1,0.1786,0.35,1,0.01255798,0.146,,,,,,242,0,242,0,1,,,,,
,,361549,001,2023-07-23_12h01.44.621,arm3_q,2022.2.5,MacIntel,58.82352941,right,1,0.1786,0.35,1,0.016148127,0.163,,,,,,243,0,243,0,1,,,,,
,,361549,001,2023-07-23_12h01.44.621,arm3_q,2022.2.5,MacIntel,58.82352941,right,1,0.1786,0.35,1,0.028608889,0.162,,,,,,244,0,244,0,1,,,,,
,,361549,001,2023-07-23_12h01.44.621,arm3_q,2022.2.5,MacIntel,58.82352941,right,1,0.1786,0.35,1,0.024872822,0.164,,,,,,245,0,245,0,1,,,,,
,,361549,001,2023-07-23_12h01.44.621,arm3_q,2022.2.5,MacIntel,58.82352941,right,1,0.1786,0.35,1,0.012432808,0.171,,,,,,246,0,246,0,1,,,,,
,,361549,001,2023-07-23_12h01.44.621,arm3_q,2022.2.5,MacIntel,58.82352941,right,1,0.1786,0.35,1,0.060223748,0.213,,,,,,247,0,247,0,1,,,,,
,,361549,001,2023-07-23_12h01.44.621,arm3_q,2022.2.5,MacIntel,58.82352941,right,1,0.1786,0.35,1,0.063045557,0.169,,,,,,248,0,248,0,1,,,,,
,,361549,001,2023-07-23_12h01.44.621,arm3_q,2022.2.5,MacIntel,58.82352941,right,1,0.1786,0.35,1,0.059667009,0.166,,,,,,249,0,249,0,1,,,,,
,,361549,001,2023-07-23_12h01.44.621,arm3_q,2022.2.5,MacIntel,58.82352941,right,1,0.1786,0.35,1,0.090515903,0.154,,,,,,250,0,250,0,1,,,,,
,,361549,001,2023-07-23_12h01.44.621,arm3_q,2022.2.5,MacIntel,58.82352941,right,1,0.1786,0.35,1,0.09630678,0.177,,,,,,251,0,251,0,1,,,,,
,,361549,001,2023-07-23_12h01.44.621,arm3_q,2022.2.5,MacIntel,58.82352941,up,1,0.1786,0.35,1,0,1.364,,,,,,252,0,252,0,1,,,,,
,,361549,001,2023-07-23_12h01.44.621,arm3_q,2022.2.5,MacIntel,58.82352941,right,1,0.1786,0.35,1,0.029732886,0.796,,,,,,253,0,253,0,1,,,,,
,,361549,001,2023-07-23_12h01.44.621,arm3_q,2022.2.5,MacIntel,58.82352941,right,1,0.1786,0.35,1,0.011041883,0.145,,,,,,254,0,254,0,1,,,,,
,,361549,001,2023-07-23_12h01.44.621,arm3_q,2022.2.5,MacIntel,58.82352941,right,1,0.1786,0.35,1,0.037713067,0.147,,,,,,255,0,255,0,1,,,,,
,,361549,001,2023-07-23_12h01.44.621,arm3_q,2022.2.5,MacIntel,58.82352941,right,1,0.1786,0.35,1,0.036395863,0.162,,,,,,256,0,256,0,1,,,,,
,,361549,001,2023-07-23_12h01.44.621,arm3_q,2022.2.5,MacIntel,58.82352941,right,1,0.1786,0.35,1,0.016880731,0.162,,,,,,257,0,257,0,1,,,,,
,,361549,001,2023-07-23_12h01.44.621,arm3_q,2022.2.5,MacIntel,58.82352941,right,1,0.1786,0.35,1,0.015498622,0.152,,,,,,258,0,258,0,1,,,,,
,,361549,001,2023-07-23_12h01.44.621,arm3_q,2022.2.5,MacIntel,58.82352941,right,1,0.1786,0.35,1,0.013593145,0.162,,,,,,259,0,259,0,1,,,,,
,,361549,001,2023-07-23_12h01.44.621,arm3_q,2022.2.5,MacIntel,58.82352941,right,1,0.1786,0.35,1,0.007889795,0.163,,,,,,260,0,260,0,1,,,,,
,,361549,001,2023-07-23_12h01.44.621,arm3_q,2022.2.5,MacIntel,58.82352941,right,1,0.1786,0.35,1,-0.014824147,0.163,,,,,,261,0,261,0,1,,,,,
,,361549,001,2023-07-23_12h01.44.621,arm3_q,2022.2.5,MacIntel,58.82352941,right,1,0.1786,0.35,1,0.009212596,0.161,,,,,,262,0,262,0,1,,,,,
,,361549,001,2023-07-23_12h01.44.621,arm3_q,2022.2.5,MacIntel,58.82352941,right,1,0.1786,0.35,1,-0.003013814,0.179,,,,,,263,0,263,0,1,,,,,
,,361549,001,2023-07-23_12h01.44.621,arm3_q,2022.2.5,MacIntel,58.82352941,right,1,0.1786,0.35,1,0.037177078,0.18,,,,,,264,0,264,0,1,,,,,
,,361549,001,2023-07-23_12h01.44.621,arm3_q,2022.2.5,MacIntel,58.82352941,up,1,0.1786,0.35,2,0,6.931,,,,,,265,0,265,0,1,,,,,
,,361549,001,2023-07-23_12h01.44.621,arm3_q,2022.2.5,MacIntel,58.82352941,right,1,0.1786,0.35,2,0.008664654,0.909,,,,,,266,0,266,0,1,,,,,
,,361549,001,2023-07-23_12h01.44.621,arm3_q,2022.2.5,MacIntel,58.82352941,right,1,0.1786,0.35,2,0.025864669,0.604,,,,,,267,0,267,0,1,,,,,
,,361549,001,2023-07-23_12h01.44.621,arm3_q,2022.2.5,MacIntel,58.82352941,right,1,0.1786,0.35,2,0.006482042,0.197,,,,,,268,0,268,0,1,,,,,
,,361549,001,2023-07-23_12h01.44.621,arm3_q,2022.2.5,MacIntel,58.82352941,right,1,0.1786,0.35,2,0.015931604,0.163,,,,,,269,0,269,0,1,,,,,
,,361549,001,2023-07-23_12h01.44.621,arm3_q,2022.2.5,MacIntel,58.82352941,right,1,0.1786,0.35,2,0.025449622,0.154,,,,,,270,0,270,0,1,,,,,
,,361549,001,2023-07-23_12h01.44.621,arm3_q,2022.2.5,MacIntel,58.82352941,right,1,0.1786,0.35,2,0.035060171,0.16,,,,,,271,0,271,0,1,,,,,
,,361549,001,2023-07-23_12h01.44.621,arm3_q,2022.2.5,MacIntel,58.82352941,right,1,0.1786,0.35,2,0.046492988,0.161,,,,,,272,0,272,0,1,,,,,
,,361549,001,2023-07-23_12h01.44.621,arm3_q,2022.2.5,MacIntel,58.82352941,right,1,0.1786,0.35,2,0.034448303,0.178,,,,,,273,0,273,0,1,,,,,
,,361549,001,2023-07-23_12h01.44.621,arm3_q,2022.2.5,MacIntel,58.82352941,right,1,0.1786,0.35,2,0.057712877,0.17,,,,,,274,0,274,0,1,,,,,
,,361549,001,2023-07-23_12h01.44.621,arm3_q,2022.2.5,MacIntel,58.82352941,right,1,0.1786,0.35,2,0.052267137,0.18,,,,,,275,0,275,0,1,,,,,
,,361549,001,2023-07-23_12h01.44.621,arm3_q,2022.2.5,MacIntel,58.82352941,right,1,0.1786,0.35,2,0.067769836,0.347,,,,,,276,0,276,0,1,,,,,
,,361549,001,2023-07-23_12h01.44.621,arm3_q,2022.2.5,MacIntel,58.82352941,right,1,0.1786,0.35,2,0.071952811,0.395,,,,,,277,0,277,0,1,,,,,
,,361549,001,2023-07-23_12h01.44.621,arm3_q,2022.2.5,MacIntel,58.82352941,up,-1,0.1786,0.35,2,0,0.812,,,,,,278,0,278,0,1,,,,,
,,361549,001,2023-07-23_12h01.44.621,arm3_q,2022.2.5,MacIntel,58.82352941,right,-1,0.1786,0.35,2,0.01616428,0.688,,,,,,279,0,279,0,1,,,,,
,,361549,001,2023-07-23_12h01.44.621,arm3_q,2022.2.5,MacIntel,58.82352941,right,-1,0.1786,0.35,2,0.02876978,0.147,,,,,,280,0,280,0,1,,,,,
,,361549,001,2023-07-23_12h01.44.621,arm3_q,2022.2.5,MacIntel,58.82352941,right,-1,0.1786,0.35,2,-0.003846261,0.217,,,,,,281,0,281,0,1,,,,,
,,361549,001,2023-07-23_12h01.44.621,arm3_q,2022.2.5,MacIntel,58.82352941,right,-1,0.1786,0.35,2,0.017802483,0.197,,,,,,282,0,282,0,1,,,,,
,,361549,001,2023-07-23_12h01.44.621,arm3_q,2022.2.5,MacIntel,58.82352941,right,-1,0.1786,0.35,2,0.03032525,0.161,,,,,,283,0,283,0,1,,,,,
,,361549,001,2023-07-23_12h01.44.621,arm3_q,2022.2.5,MacIntel,58.82352941,right,-1,0.1786,0.35,2,0.0298336,0.167,,,,,,284,0,284,0,1,,,,,
,,361549,001,2023-07-23_12h01.44.621,arm3_q,2022.2.5,MacIntel,58.82352941,right,-1,0.1786,0.35,2,0.026360133,0.165,,,,,,285,0,285,0,1,,,,,
,,361549,001,2023-07-23_12h01.44.621,arm3_q,2022.2.5,MacIntel,58.82352941,right,-1,0.1786,0.35,2,0.027268565,0.18,,,,,,286,0,286,0,1,,,,,
,,361549,001,2023-07-23_12h01.44.621,arm3_q,2022.2.5,MacIntel,58.82352941,right,-1,0.1786,0.35,2,-0.013243519,0.18,,,,,,287,0,287,0,1,,,,,
,,361549,001,2023-07-23_12h01.44.621,arm3_q,2022.2.5,MacIntel,58.82352941,right,-1,0.1786,0.35,2,-0.039125211,0.16,,,,,,288,0,288,0,1,,,,,
,,361549,001,2023-07-23_12h01.44.621,arm3_q,2022.2.5,MacIntel,58.82352941,right,-1,0.1786,0.35,2,-0.039932204,0.155,,,,,,289,0,289,0,1,,,,,
,,361549,001,2023-07-23_12h01.44.621,arm3_q,2022.2.5,MacIntel,58.82352941,right,-1,0.1786,0.35,2,-0.057591584,0.182,,,,,,290,0,290,0,1,,,,,
,,361549,001,2023-07-23_12h01.44.621,arm3_q,2022.2.5,MacIntel,58.82352941,down,-1,0.1786,0.35,2,0,1.412,,,,,,291,0,291,0,1,,,,,
,,361549,001,2023-07-23_12h01.44.621,arm3_q,2022.2.5,MacIntel,58.82352941,right,-1,0.1786,0.35,2,-0.028824365,0.769,,,,,,292,0,292,0,1,,,,,
,,361549,001,2023-07-23_12h01.44.621,arm3_q,2022.2.5,MacIntel,58.82352941,right,-1,0.1786,0.35,2,-0.02657844,0.147,,,,,,293,0,293,0,1,,,,,
,,361549,001,2023-07-23_12h01.44.621,arm3_q,2022.2.5,MacIntel,58.82352941,right,-1,0.1786,0.35,2,0.001337405,0.179,,,,,,294,0,294,0,1,,,,,
,,361549,001,2023-07-23_12h01.44.621,arm3_q,2022.2.5,MacIntel,58.82352941,right,-1,0.1786,0.35,2,-0.010339715,0.18,,,,,,295,0,295,0,1,,,,,
,,361549,001,2023-07-23_12h01.44.621,arm3_q,2022.2.5,MacIntel,58.82352941,right,-1,0.1786,0.35,2,-0.049304805,0.195,,,,,,296,0,296,0,1,,,,,
,,361549,001,2023-07-23_12h01.44.621,arm3_q,2022.2.5,MacIntel,58.82352941,right,-1,0.1786,0.35,2,-0.072543892,0.18,,,,,,297,0,297,0,1,,,,,
,,361549,001,2023-07-23_12h01.44.621,arm3_q,2022.2.5,MacIntel,58.82352941,right,-1,0.1786,0.35,2,-0.074289241,0.17,,,,,,298,0,298,0,1,,,,,
,,361549,001,2023-07-23_12h01.44.621,arm3_q,2022.2.5,MacIntel,58.82352941,right,-1,0.1786,0.35,2,-0.079621743,0.178,,,,,,299,0,299,0,1,,,,,
,,361549,001,2023-07-23_12h01.44.621,arm3_q,2022.2.5,MacIntel,58.82352941,right,-1,0.1786,0.35,2,-0.066917128,0.197,,,,,,300,0,300,0,1,,,,,
,,361549,001,2023-07-23_12h01.44.621,arm3_q,2022.2.5,MacIntel,58.82352941,right,-1,0.1786,0.35,2,-0.08670877,0.194,,,,,,301,0,301,0,1,,,,,
,,361549,001,2023-07-23_12h01.44.621,arm3_q,2022.2.5,MacIntel,58.82352941,right,-1,0.1786,0.35,2,-0.056113231,0.181,,,,,,302,0,302,0,1,,,,,
,,361549,001,2023-07-23_12h01.44.621,arm3_q,2022.2.5,MacIntel,58.82352941,right,-1,0.1786,0.35,2,-0.077218425,0.182,,,,,,303,0,303,0,1,,,,,
,,361549,001,2023-07-23_12h01.44.621,arm3_q,2022.2.5,MacIntel,58.82352941,down,-1,0.1786,0.35,2,0,0.536,,,,,,304,0,304,0,1,,,,,
,,361549,001,2023-07-23_12h01.44.621,arm3_q,2022.2.5,MacIntel,58.82352941,right,-1,0.1786,0.35,2,-0.012551653,0.684,,,,,,305,0,305,0,1,,,,,
,,361549,001,2023-07-23_12h01.44.621,arm3_q,2022.2.5,MacIntel,58.82352941,right,-1,0.1786,0.35,2,-0.02684992,0.171,,,,,,306,0,306,0,1,,,,,
,,361549,001,2023-07-23_12h01.44.621,arm3_q,2022.2.5,MacIntel,58.82352941,right,-1,0.1786,0.35,2,-0.041382982,0.179,,,,,,307,0,307,0,1,,,,,
,,361549,001,2023-07-23_12h01.44.621,arm3_q,2022.2.5,MacIntel,58.82352941,right,-1,0.1786,0.35,2,-0.020604382,0.186,,,,,,308,0,308,0,1,,,,,
,,361549,001,2023-07-23_12h01.44.621,arm3_q,2022.2.5,MacIntel,58.82352941,right,-1,0.1786,0.35,2,-0.032136501,0.195,,,,,,309,0,309,0,1,,,,,
,,361549,001,2023-07-23_12h01.44.621,arm3_q,2022.2.5,MacIntel,58.82352941,right,-1,0.1786,0.35,2,-0.056258131,0.228,,,,,,310,0,310,0,1,,,,,
,,361549,001,2023-07-23_12h01.44.621,arm3_q,2022.2.5,MacIntel,58.82352941,right,-1,0.1786,0.35,2,-0.096499145,0.194,,,,,,311,0,311,0,1,,,,,
,,361549,001,2023-07-23_12h01.44.621,arm3_q,2022.2.5,MacIntel,58.82352941,down,1,0.1786,0.35,3,0,0.202,,,,,,312,0,312,0,1,,,,,
,,361549,001,2023-07-23_12h01.44.621,arm3_q,2022.2.5,MacIntel,58.82352941,right,1,0.1786,0.35,3,-0.003693025,0.744,,,,,,313,0,313,0,1,,,,,
,,361549,001,2023-07-23_12h01.44.621,arm3_q,2022.2.5,MacIntel,58.82352941,right,1,0.1786,0.35,3,0.028414488,0.183,,,,,,314,0,314,0,1,,,,,
,,361549,001,2023-07-23_12h01.44.621,arm3_q,2022.2.5,MacIntel,58.82352941,right,1,0.1786,0.35,3,0.039069905,0.183,,,,,,315,0,315,0,1,,,,,
,,361549,001,2023-07-23_12h01.44.621,arm3_q,2022.2.5,MacIntel,58.82352941,right,1,0.1786,0.35,3,0.063632047,0.169,,,,,,316,0,316,0,1,,,,,
,,361549,001,2023-07-23_12h01.44.621,arm3_q,2022.2.5,MacIntel,58.82352941,right,1,0.1786,0.35,3,0.067426817,0.185,,,,,,317,0,317,0,1,,,,,
,,361549,001,2023-07-23_12h01.44.621,arm3_q,2022.2.5,MacIntel,58.82352941,right,1,0.1786,0.35,3,0.056339284,0.187,,,,,,318,0,318,0,1,,,,,
,,361549,001,2023-07-23_12h01.44.621,arm3_q,2022.2.5,MacIntel,58.82352941,right,1,0.1786,0.35,3,0.059168741,0.185,,,,,,319,0,319,0,1,,,,,
,,361549,001,2023-07-23_12h01.44.621,arm3_q,2022.2.5,MacIntel,58.82352941,right,1,0.1786,0.35,3,0.067005717,0.195,,,,,,320,0,320,0,1,,,,,
,,361549,001,2023-07-23_12h01.44.621,arm3_q,2022.2.5,MacIntel,58.82352941,right,1,0.1786,0.35,3,0.056532748,0.179,,,,,,321,0,321,0,1,,,,,
,,361549,001,2023-07-23_12h01.44.621,arm3_q,2022.2.5,MacIntel,58.82352941,right,1,0.1786,0.35,3,0.061682573,0.35,,,,,,322,0,322,0,1,,,,,
,,361549,001,2023-07-23_12h01.44.621,arm3_q,2022.2.5,MacIntel,58.82352941,right,1,0.1786,0.35,3,0.051882762,0.431,,,,,,323,0,323,0,1,,,,,
,,361549,001,2023-07-23_12h01.44.621,arm3_q,2022.2.5,MacIntel,58.82352941,up,-1,0.1786,0.35,4,0,1.464,,,,,,324,0,324,0,1,,,,,
,,361549,001,2023-07-23_12h01.44.621,arm3_q,2022.2.5,MacIntel,58.82352941,right,-1,0.1786,0.35,4,-0.018486689,0.679,,,,,,325,0,325,0,1,,,,,
,,361549,001,2023-07-23_12h01.44.621,arm3_q,2022.2.5,MacIntel,58.82352941,right,-1,0.1786,0.35,4,-0.031563452,0.169,,,,,,326,0,326,0,1,,,,,
,,361549,001,2023-07-23_12h01.44.621,arm3_q,2022.2.5,MacIntel,58.82352941,right,-1,0.1786,0.35,4,-0.040421906,0.179,,,,,,327,0,327,0,1,,,,,
,,361549,001,2023-07-23_12h01.44.621,arm3_q,2022.2.5,MacIntel,58.82352941,right,-1,0.1786,0.35,4,-0.049005901,0.178,,,,,,328,0,328,0,1,,,,,
,,361549,001,2023-07-23_12h01.44.621,arm3_q,2022.2.5,MacIntel,58.82352941,right,-1,0.1786,0.35,4,-0.034433855,0.178,,,,,,329,0,329,0,1,,,,,
,,361549,001,2023-07-23_12h01.44.621,arm3_q,2022.2.5,MacIntel,58.82352941,right,-1,0.1786,0.35,4,-0.014207538,0.187,,,,,,330,0,330,0,1,,,,,
,,361549,001,2023-07-23_12h01.44.621,arm3_q,2022.2.5,MacIntel,58.82352941,right,-1,0.1786,0.35,4,-0.023213417,0.212,,,,,,331,0,331,0,1,,,,,
,,361549,001,2023-07-23_12h01.44.621,arm3_q,2022.2.5,MacIntel,58.82352941,right,-1,0.1786,0.35,4,-0.026920442,0.165,,,,,,332,0,332,0,1,,,,,
,,361549,001,2023-07-23_12h01.44.621,arm3_q,2022.2.5,MacIntel,58.82352941,right,-1,0.1786,0.35,4,-0.013552828,0.196,,,,,,333,0,333,0,1,,,,,
,,361549,001,2023-07-23_12h01.44.621,arm3_q,2022.2.5,MacIntel,58.82352941,right,-1,0.1786,0.35,4,-0.003819055,0.496,,,,,,334,0,334,0,1,,,,,
,,361549,001,2023-07-23_12h01.44.621,arm3_q,2022.2.5,MacIntel,58.82352941,right,-1,0.1786,0.35,4,0.003733458,0.381,,,,,,335,0,335,0,1,,,,,
,,361549,001,2023-07-23_12h01.44.621,arm3_q,2022.2.5,MacIntel,58.82352941,right,-1,0.1786,0.35,4,0.003606607,0.894,,,,,,336,0,336,0,1,,,,,
,,361549,001,2023-07-23_12h01.44.621,arm3_q,2022.2.5,MacIntel,58.82352941,down,-1,0.1786,0.35,4,0,2.328,,,,,,337,0,337,0,1,,,,,
,,361549,001,2023-07-23_12h01.44.621,arm3_q,2022.2.5,MacIntel,58.82352941,right,-1,0.1786,0.35,4,0.002655301,0.74,,,,,,338,0,338,0,1,,,,,
,,361549,001,2023-07-23_12h01.44.621,arm3_q,2022.2.5,MacIntel,58.82352941,right,-1,0.1786,0.35,4,0.005224305,0.169,,,,,,339,0,339,0,1,,,,,
,,361549,001,2023-07-23_12h01.44.621,arm3_q,2022.2.5,MacIntel,58.82352941,right,-1,0.1786,0.35,4,-0.002571344,0.172,,,,,,340,0,340,0,1,,,,,
,,361549,001,2023-07-23_12h01.44.621,arm3_q,2022.2.5,MacIntel,58.82352941,right,-1,0.1786,0.35,4,-0.022779714,0.182,,,,,,341,0,341,0,1,,,,,
,,361549,001,2023-07-23_12h01.44.621,arm3_q,2022.2.5,MacIntel,58.82352941,right,-1,0.1786,0.35,4,-0.047812135,0.179,,,,,,342,0,342,0,1,,,,,
,,361549,001,2023-07-23_12h01.44.621,arm3_q,2022.2.5,MacIntel,58.82352941,right,-1,0.1786,0.35,4,-0.069302015,0.163,,,,,,343,0,343,0,1,,,,,
,,361549,001,2023-07-23_12h01.44.621,arm3_q,2022.2.5,MacIntel,58.82352941,right,-1,0.1786,0.35,4,-0.061037978,0.169,,,,,,344,0,344,0,1,,,,,
,,361549,001,2023-07-23_12h01.44.621,arm3_q,2022.2.5,MacIntel,58.82352941,right,-1,0.1786,0.35,4,-0.093291883,0.171,,,,,,345,0,345,0,1,,,,,
,,361549,001,2023-07-23_12h01.44.621,arm3_q,2022.2.5,MacIntel,58.82352941,right,-1,0.1786,0.35,4,-0.112435681,0.178,,,,,,346,0,346,0,1,,,,,
,,361549,001,2023-07-23_12h01.44.621,arm3_q,2022.2.5,MacIntel,58.82352941,right,-1,0.1786,0.35,4,-0.146621581,0.163,,,,,,347,0,347,0,1,,,,,
,,361549,001,2023-07-23_12h01.44.621,arm3_q,2022.2.5,MacIntel,58.82352941,right,-1,0.1786,0.35,4,-0.19211254,0.18,,,,,,348,0,348,0,1,,,,,
,,361549,001,2023-07-23_12h01.44.621,arm3_q,2022.2.5,MacIntel,58.82352941,right,-1,0.1786,0.35,4,-0.199028916,0.28,,,,,,349,0,349,0,1,,,,,
,,361549,001,2023-07-23_12h01.44.621,arm3_q,2022.2.5,MacIntel,58.82352941,down,-1,0.1786,0.35,4,0,0.729,,,,,,350,0,350,0,1,,,,,
,,361549,001,2023-07-23_12h01.44.621,arm3_q,2022.2.5,MacIntel,58.82352941,right,-1,0.1786,0.35,4,0.006653214,0.78,,,,,,351,0,351,0,1,,,,,
,,361549,001,2023-07-23_12h01.44.621,arm3_q,2022.2.5,MacIntel,58.82352941,right,-1,0.1786,0.35,4,0.010093094,0.154,,,,,,352,0,352,0,1,,,,,
,,361549,001,2023-07-23_12h01.44.621,arm3_q,2022.2.5,MacIntel,58.82352941,right,-1,0.1786,0.35,4,-0.017793147,0.179,,,,,,353,0,353,0,1,,,,,
,,361549,001,2023-07-23_12h01.44.621,arm3_q,2022.2.5,MacIntel,58.82352941,right,-1,0.1786,0.35,4,-0.010145084,0.179,,,,,,354,0,354,0,1,,,,,
,,361549,001,2023-07-23_12h01.44.621,arm3_q,2022.2.5,MacIntel,58.82352941,right,-1,0.1786,0.35,4,-0.014192945,0.155,,,,,,355,0,355,0,1,,,,,
,,361549,001,2023-07-23_12h01.44.621,arm3_q,2022.2.5,MacIntel,58.82352941,right,-1,0.1786,0.35,4,-0.00684828,0.196,,,,,,356,0,356,0,1,,,,,
,,361549,001,2023-07-23_12h01.44.621,arm3_q,2022.2.5,MacIntel,58.82352941,right,-1,0.1786,0.35,4,-0.035433186,0.164,,,,,,357,0,357,0,1,,,,,
,,361549,001,2023-07-23_12h01.44.621,arm3_q,2022.2.5,MacIntel,58.82352941,right,-1,0.1786,0.35,4,-0.019580613,0.179,,,,,,358,0,358,0,1,,,,,
,,361549,001,2023-07-23_12h01.44.621,arm3_q,2022.2.5,MacIntel,58.82352941,right,-1,0.1786,0.35,4,-0.047297238,0.17,,,,,,359,0,359,0,1,,,,,
,,361549,001,2023-07-23_12h01.44.621,arm3_q,2022.2.5,MacIntel,58.82352941,right,-1,0.1786,0.35,4,-0.053656238,0.179,,,,,,360,0,360,0,1,,,,,
,,361549,001,2023-07-23_12h01.44.621,arm3_q,2022.2.5,MacIntel,58.82352941,right,-1,0.1786,0.35,4,-0.105509428,0.183,,,,,,361,0,361,0,1,,,,,
,,361549,001,2023-07-23_12h01.44.621,arm3_q,2022.2.5,MacIntel,58.82352941,down,1,0.1786,0.35,4,0,0.72,,,,,,362,0,362,0,1,,,,,
,,361549,001,2023-07-23_12h01.44.621,arm3_q,2022.2.5,MacIntel,58.82352941,right,1,0.1786,0.35,4,0.009533425,0.727,,,,,,363,0,363,0,1,,,,,
,,361549,001,2023-07-23_12h01.44.621,arm3_q,2022.2.5,MacIntel,58.82352941,right,1,0.1786,0.35,4,0.049113451,0.168,,,,,,364,0,364,0,1,,,,,
,,361549,001,2023-07-23_12h01.44.621,arm3_q,2022.2.5,MacIntel,58.82352941,right,1,0.1786,0.35,4,0.062423249,0.18,,,,,,365,0,365,0,1,,,,,
,,361549,001,2023-07-23_12h01.44.621,arm3_q,2022.2.5,MacIntel,58.82352941,right,1,0.1786,0.35,4,0.049773563,0.194,,,,,,366,0,366,0,1,,,,,
,,361549,001,2023-07-23_12h01.44.621,arm3_q,2022.2.5,MacIntel,58.82352941,right,1,0.1786,0.35,4,0.012512334,0.181,,,,,,367,0,367,0,1,,,,,
,,361549,001,2023-07-23_12h01.44.621,arm3_q,2022.2.5,MacIntel,58.82352941,right,1,0.1786,0.35,4,0.03780097,0.194,,,,,,368,0,368,0,1,,,,,
,,361549,001,2023-07-23_12h01.44.621,arm3_q,2022.2.5,MacIntel,58.82352941,right,1,0.1786,0.35,4,0.062359311,0.163,,,,,,369,0,369,0,1,,,,,
,,361549,001,2023-07-23_12h01.44.621,arm3_q,2022.2.5,MacIntel,58.82352941,,,,,,,,,,,,,,,,,,0,0,0,0,1
space,2.062,361549,001,2023-07-23_12h01.44.621,arm3_q,2022.2.5,MacIntel,58.82352941,right,1,0.05,0.35,4,0.01654794,0.784,,,,,,0,0,0,0,1,,,,,
,,361549,001,2023-07-23_12h01.44.621,arm3_q,2022.2.5,MacIntel,58.82352941,right,1,0.05,0.35,4,0.02511773,0.196,,,,,,1,0,1,0,1,,,,,
,,361549,001,2023-07-23_12h01.44.621,arm3_q,2022.2.5,MacIntel,58.82352941,right,1,0.05,0.35,4,0.039126535,0.178,,,,,,2,0,2,0,1,,,,,
,,361549,001,2023-07-23_12h01.44.621,arm3_q,2022.2.5,MacIntel,58.82352941,right,1,0.05,0.35,4,-0.006874893,0.179,,,,,,3,0,3,0,1,,,,,
,,361549,001,2023-07-23_12h01.44.621,arm3_q,2022.2.5,MacIntel,58.82352941,right,1,0.05,0.35,4,-0.03701952,0.179,,,,,,4,0,4,0,1,,,,,
,,361549,001,2023-07-23_12h01.44.621,arm3_q,2022.2.5,MacIntel,58.82352941,right,1,0.05,0.35,4,-0.030097527,0.395,,,,,,5,0,5,0,1,,,,,
,,361549,001,2023-07-23_12h01.44.621,arm3_q,2022.2.5,MacIntel,58.82352941,right,1,0.05,0.35,4,-0.053845987,0.194,,,,,,6,0,6,0,1,,,,,
,,361549,001,2023-07-23_12h01.44.621,arm3_q,2022.2.5,MacIntel,58.82352941,right,1,0.05,0.35,4,-0.020995681,0.178,,,,,,7,0,7,0,1,,,,,
,,361549,001,2023-07-23_12h01.44.621,arm3_q,2022.2.5,MacIntel,58.82352941,right,1,0.05,0.35,4,-0.029080029,0.163,,,,,,8,0,8,0,1,,,,,
,,361549,001,2023-07-23_12h01.44.621,arm3_q,2022.2.5,MacIntel,58.82352941,right,1,0.05,0.35,4,-0.059266918,0.163,,,,,,9,0,9,0,1,,,,,
,,361549,001,2023-07-23_12h01.44.621,arm3_q,2022.2.5,MacIntel,58.82352941,right,1,0.05,0.35,4,-0.065698734,0.663,,,,,,10,0,10,0,1,,,,,
,,361549,001,2023-07-23_12h01.44.621,arm3_q,2022.2.5,MacIntel,58.82352941,right,1,0.05,0.35,4,-0.05825351,0.965,,,,,,11,0,11,0,1,,,,,
,,361549,001,2023-07-23_12h01.44.621,arm3_q,2022.2.5,MacIntel,58.82352941,up,1,0.05,0.35,4,0,0.621,,,,,,12,0,12,0,1,,,,,
,,361549,001,2023-07-23_12h01.44.621,arm3_q,2022.2.5,MacIntel,58.82352941,right,1,0.05,0.35,4,0.014641702,0.812,,,,,,13,0,13,0,1,,,,,
,,361549,001,2023-07-23_12h01.44.621,arm3_q,2022.2.5,MacIntel,58.82352941,right,1,0.05,0.35,4,0.038954219,0.162,,,,,,14,0,14,0,1,,,,,
,,361549,001,2023-07-23_12h01.44.621,arm3_q,2022.2.5,MacIntel,58.82352941,right,1,0.05,0.35,4,0.048445735,0.179,,,,,,15,0,15,0,1,,,,,
,,361549,001,2023-07-23_12h01.44.621,arm3_q,2022.2.5,MacIntel,58.82352941,right,1,0.05,0.35,4,0.08355662,0.184,,,,,,16,0,16,0,1,,,,,
,,361549,001,2023-07-23_12h01.44.621,arm3_q,2022.2.5,MacIntel,58.82352941,right,1,0.05,0.35,4,0.087261041,0.183,,,,,,17,0,17,0,1,,,,,
,,361549,001,2023-07-23_12h01.44.621,arm3_q,2022.2.5,MacIntel,58.82352941,right,1,0.05,0.35,4,0.100656088,0.197,,,,,,18,0,18,0,1,,,,,
,,361549,001,2023-07-23_12h01.44.621,arm3_q,2022.2.5,MacIntel,58.82352941,right,1,0.05,0.35,4,0.122673638,0.18,,,,,,19,0,19,0,1,,,,,
,,361549,001,2023-07-23_12h01.44.621,arm3_q,2022.2.5,MacIntel,58.82352941,right,1,0.05,0.35,4,0.120914185,0.18,,,,,,20,0,20,0,1,,,,,
,,361549,001,2023-07-23_12h01.44.621,arm3_q,2022.2.5,MacIntel,58.82352941,right,1,0.05,0.35,4,0.120038558,0.231,,,,,,21,0,21,0,1,,,,,
,,361549,001,2023-07-23_12h01.44.621,arm3_q,2022.2.5,MacIntel,58.82352941,right,1,0.05,0.35,4,0.124407467,0.195,,,,,,22,0,22,0,1,,,,,
,,361549,001,2023-07-23_12h01.44.621,arm3_q,2022.2.5,MacIntel,58.82352941,right,1,0.05,0.35,4,0.144780506,0.195,,,,,,23,0,23,0,1,,,,,
,,361549,001,2023-07-23_12h01.44.621,arm3_q,2022.2.5,MacIntel,58.82352941,right,1,0.05,0.35,4,0.154354978,0.611,,,,,,24,0,24,0,1,,,,,
,,361549,001,2023-07-23_12h01.44.621,arm3_q,2022.2.5,MacIntel,58.82352941,up,1,0.05,0.35,4,0,0.397,,,,,,25,0,25,0,1,,,,,
,,361549,001,2023-07-23_12h01.44.621,arm3_q,2022.2.5,MacIntel,58.82352941,right,1,0.05,0.35,4,0.01495074,0.779,,,,,,26,0,26,0,1,,,,,
,,361549,001,2023-07-23_12h01.44.621,arm3_q,2022.2.5,MacIntel,58.82352941,right,1,0.05,0.35,4,0.010373937,0.815,,,,,,27,0,27,0,1,,,,,
,,361549,001,2023-07-23_12h01.44.621,arm3_q,2022.2.5,MacIntel,58.82352941,right,1,0.05,0.35,4,0.027678713,0.179,,,,,,28,0,28,0,1,,,,,
,,361549,001,2023-07-23_12h01.44.621,arm3_q,2022.2.5,MacIntel,58.82352941,right,1,0.05,0.35,4,0.028641494,0.169,,,,,,29,0,29,0,1,,,,,
,,361549,001,2023-07-23_12h01.44.621,arm3_q,2022.2.5,MacIntel,58.82352941,right,1,0.05,0.35,4,0.040232329,0.218,,,,,,30,0,30,0,1,,,,,
,,361549,001,2023-07-23_12h01.44.621,arm3_q,2022.2.5,MacIntel,58.82352941,right,1,0.05,0.35,4,0.049983325,0.262,,,,,,31,0,31,0,1,,,,,
,,361549,001,2023-07-23_12h01.44.621,arm3_q,2022.2.5,MacIntel,58.82352941,right,1,0.05,0.35,4,0.046458827,0.212,,,,,,32,0,32,0,1,,,,,
,,361549,001,2023-07-23_12h01.44.621,arm3_q,2022.2.5,MacIntel,58.82352941,right,1,0.05,0.35,4,0.025319611,0.181,,,,,,33,0,33,0,1,,,,,
,,361549,001,2023-07-23_12h01.44.621,arm3_q,2022.2.5,MacIntel,58.82352941,right,1,0.05,0.35,4,0.04358365,0.195,,,,,,34,0,34,0,1,,,,,
,,361549,001,2023-07-23_12h01.44.621,arm3_q,2022.2.5,MacIntel,58.82352941,right,1,0.05,0.35,4,0.038036837,0.196,,,,,,35,0,35,0,1,,,,,
,,361549,001,2023-07-23_12h01.44.621,arm3_q,2022.2.5,MacIntel,58.82352941,right,1,0.05,0.35,4,0.043065484,0.21,,,,,,36,0,36,0,1,,,,,
,,361549,001,2023-07-23_12h01.44.621,arm3_q,2022.2.5,MacIntel,58.82352941,up,1,0.05,0.35,4,0,0.812,,,,,,37,0,37,0,1,,,,,
,,361549,001,2023-07-23_12h01.44.621,arm3_q,2022.2.5,MacIntel,58.82352941,right,1,0.05,0.35,4,0.016171549,0.644,,,,,,38,0,38,0,1,,,,,
,,361549,001,2023-07-23_12h01.44.621,arm3_q,2022.2.5,MacIntel,58.82352941,right,1,0.05,0.35,4,-0.026332493,0.194,,,,,,39,0,39,0,1,,,,,
,,361549,001,2023-07-23_12h01.44.621,arm3_q,2022.2.5,MacIntel,58.82352941,right,1,0.05,0.35,4,-0.014839582,0.162,,,,,,40,0,40,0,1,,,,,
,,361549,001,2023-07-23_12h01.44.621,arm3_q,2022.2.5,MacIntel,58.82352941,right,1,0.05,0.35,4,-0.037057122,0.179,,,,,,41,0,41,0,1,,,,,
,,361549,001,2023-07-23_12h01.44.621,arm3_q,2022.2.5,MacIntel,58.82352941,right,1,0.05,0.35,4,-0.021671511,0.194,,,,,,42,0,42,0,1,,,,,
,,361549,001,2023-07-23_12h01.44.621,arm3_q,2022.2.5,MacIntel,58.82352941,right,1,0.05,0.35,4,-0.014917748,0.178,,,,,,43,0,43,0,1,,,,,
,,361549,001,2023-07-23_12h01.44.621,arm3_q,2022.2.5,MacIntel,58.82352941,right,1,0.05,0.35,4,-0.025928576,0.182,,,,,,44,0,44,0,1,,,,,
,,361549,001,2023-07-23_12h01.44.621,arm3_q,2022.2.5,MacIntel,58.82352941,right,1,0.05,0.35,4,-0.020290685,0.216,,,,,,45,0,45,0,1,,,,,
,,361549,001,2023-07-23_12h01.44.621,arm3_q,2022.2.5,MacIntel,58.82352941,right,1,0.05,0.35,4,-0.005475805,0.236,,,,,,46,0,46,0,1,,,,,
,,361549,001,2023-07-23_12h01.44.621,arm3_q,2022.2.5,MacIntel,58.82352941,right,1,0.05,0.35,4,-0.000178896,0.244,,,,,,47,0,47,0,1,,,,,
,,361549,001,2023-07-23_12h01.44.621,arm3_q,2022.2.5,MacIntel,58.82352941,right,1,0.05,0.35,4,0.032373965,0.261,,,,,,48,0,48,0,1,,,,,
,,361549,001,2023-07-23_12h01.44.621,arm3_q,2022.2.5,MacIntel,58.82352941,right,1,0.05,0.35,4,0.038149319,0.363,,,,,,49,0,49,0,1,,,,,
,,361549,001,2023-07-23_12h01.44.621,arm3_q,2022.2.5,MacIntel,58.82352941,up,1,0.05,0.35,4,0,0.837,,,,,,50,0,50,0,1,,,,,
,,361549,001,2023-07-23_12h01.44.621,arm3_q,2022.2.5,MacIntel,58.82352941,right,1,0.05,0.35,4,0.017136489,0.82,,,,,,51,0,51,0,1,,,,,
,,361549,001,2023-07-23_12h01.44.621,arm3_q,2022.2.5,MacIntel,58.82352941,right,1,0.05,0.35,4,0.036604747,0.15,,,,,,52,0,52,0,1,,,,,
,,361549,001,2023-07-23_12h01.44.621,arm3_q,2022.2.5,MacIntel,58.82352941,right,1,0.05,0.35,4,0.05405362,0.185,,,,,,53,0,53,0,1,,,,,
,,361549,001,2023-07-23_12h01.44.621,arm3_q,2022.2.5,MacIntel,58.82352941,right,1,0.05,0.35,4,0.082216766,0.129,,,,,,54,0,54,0,1,,,,,
,,361549,001,2023-07-23_12h01.44.621,arm3_q,2022.2.5,MacIntel,58.82352941,right,1,0.05,0.35,4,0.107321085,0.912,,,,,,55,0,55,0,1,,,,,
,,361549,001,2023-07-23_12h01.44.621,arm3_q,2022.2.5,MacIntel,58.82352941,right,1,0.05,0.35,4,0.112170258,0.17,,,,,,56,0,56,0,1,,,,,
,,361549,001,2023-07-23_12h01.44.621,arm3_q,2022.2.5,MacIntel,58.82352941,right,1,0.05,0.35,4,0.111989455,0.154,,,,,,57,0,57,0,1,,,,,
,,361549,001,2023-07-23_12h01.44.621,arm3_q,2022.2.5,MacIntel,58.82352941,right,1,0.05,0.35,4,0.098045422,0.162,,,,,,58,0,58,0,1,,,,,
,,361549,001,2023-07-23_12h01.44.621,arm3_q,2022.2.5,MacIntel,58.82352941,right,1,0.05,0.35,4,0.108859516,0.139,,,,,,59,0,59,0,1,,,,,
,,361549,001,2023-07-23_12h01.44.621,arm3_q,2022.2.5,MacIntel,58.82352941,right,1,0.05,0.35,4,0.123519913,0.285,,,,,,60,0,60,0,1,,,,,
,,361549,001,2023-07-23_12h01.44.621,arm3_q,2022.2.5,MacIntel,58.82352941,up,-1,0.05,0.35,4,0,0.688,,,,,,61,0,61,0,1,,,,,
,,361549,001,2023-07-23_12h01.44.621,arm3_q,2022.2.5,MacIntel,58.82352941,right,-1,0.05,0.35,4,-0.031597651,0.713,,,,,,62,0,62,0,1,,,,,
,,361549,001,2023-07-23_12h01.44.621,arm3_q,2022.2.5,MacIntel,58.82352941,right,-1,0.05,0.35,4,-0.017655023,0.202,,,,,,63,0,63,0,1,,,,,
,,361549,001,2023-07-23_12h01.44.621,arm3_q,2022.2.5,MacIntel,58.82352941,right,-1,0.05,0.35,4,-0.023212208,0.163,,,,,,64,0,64,0,1,,,,,
,,361549,001,2023-07-23_12h01.44.621,arm3_q,2022.2.5,MacIntel,58.82352941,right,-1,0.05,0.35,4,-0.037445671,0.163,,,,,,65,0,65,0,1,,,,,
,,361549,001,2023-07-23_12h01.44.621,arm3_q,2022.2.5,MacIntel,58.82352941,right,-1,0.05,0.35,4,-0.035306401,0.164,,,,,,66,0,66,0,1,,,,,
,,361549,001,2023-07-23_12h01.44.621,arm3_q,2022.2.5,MacIntel,58.82352941,right,-1,0.05,0.35,4,-0.030272776,0.161,,,,,,67,0,67,0,1,,,,,
,,361549,001,2023-07-23_12h01.44.621,arm3_q,2022.2.5,MacIntel,58.82352941,right,-1,0.05,0.35,4,-0.066783187,0.154,,,,,,68,0,68,0,1,,,,,
,,361549,001,2023-07-23_12h01.44.621,arm3_q,2022.2.5,MacIntel,58.82352941,right,-1,0.05,0.35,4,-0.057396399,0.163,,,,,,69,0,69,0,1,,,,,
,,361549,001,2023-07-23_12h01.44.621,arm3_q,2022.2.5,MacIntel,58.82352941,right,-1,0.05,0.35,4,-0.047064187,0.146,,,,,,70,0,70,0,1,,,,,
,,361549,001,2023-07-23_12h01.44.621,arm3_q,2022.2.5,MacIntel,58.82352941,right,-1,0.05,0.35,4,-0.078305774,0.161,,,,,,71,0,71,0,1,,,,,
,,361549,001,2023-07-23_12h01.44.621,arm3_q,2022.2.5,MacIntel,58.82352941,right,-1,0.05,0.35,4,-0.093052625,0.146,,,,,,72,0,72,0,1,,,,,
,,361549,001,2023-07-23_12h01.44.621,arm3_q,2022.2.5,MacIntel,58.82352941,right,-1,0.05,0.35,4,-0.12950295,0.203,,,,,,73,0,73,0,1,,,,,
,,361549,001,2023-07-23_12h01.44.621,arm3_q,2022.2.5,MacIntel,58.82352941,down,-1,0.05,0.35,4,0,0.344,,,,,,74,0,74,0,1,,,,,
,,361549,001,2023-07-23_12h01.44.621,arm3_q,2022.2.5,MacIntel,58.82352941,right,-1,0.05,0.35,4,-0.022630022,0.538,,,,,,75,0,75,0,1,,,,,
,,361549,001,2023-07-23_12h01.44.621,arm3_q,2022.2.5,MacIntel,58.82352941,right,-1,0.05,0.35,4,-0.062426551,0.179,,,,,,76,0,76,0,1,,,,,
,,361549,001,2023-07-23_12h01.44.621,arm3_q,2022.2.5,MacIntel,58.82352941,right,-1,0.05,0.35,4,-0.095060719,0.162,,,,,,77,0,77,0,1,,,,,
,,361549,001,2023-07-23_12h01.44.621,arm3_q,2022.2.5,MacIntel,58.82352941,right,-1,0.05,0.35,4,-0.113076871,0.163,,,,,,78,0,78,0,1,,,,,
,,361549,001,2023-07-23_12h01.44.621,arm3_q,2022.2.5,MacIntel,58.82352941,right,-1,0.05,0.35,4,-0.118779061,0.154,,,,,,79,0,79,0,1,,,,,
,,361549,001,2023-07-23_12h01.44.621,arm3_q,2022.2.5,MacIntel,58.82352941,right,-1,0.05,0.35,4,-0.124682366,0.162,,,,,,80,0,80,0,1,,,,,
,,361549,001,2023-07-23_12h01.44.621,arm3_q,2022.2.5,MacIntel,58.82352941,right,-1,0.05,0.35,4,-0.151577464,0.145,,,,,,81,0,81,0,1,,,,,
,,361549,001,2023-07-23_12h01.44.621,arm3_q,2022.2.5,MacIntel,58.82352941,right,-1,0.05,0.35,4,-0.134056709,0.162,,,,,,82,0,82,0,1,,,,,
,,361549,001,2023-07-23_12h01.44.621,arm3_q,2022.2.5,MacIntel,58.82352941,right,-1,0.05,0.35,4,-0.15015613,0.144,,,,,,83,0,83,0,1,,,,,
,,361549,001,2023-07-23_12h01.44.621,arm3_q,2022.2.5,MacIntel,58.82352941,right,-1,0.05,0.35,4,-0.164080388,0.146,,,,,,84,0,84,0,1,,,,,
,,361549,001,2023-07-23_12h01.44.621,arm3_q,2022.2.5,MacIntel,58.82352941,right,-1,0.05,0.35,4,-0.186015528,0.163,,,,,,85,0,85,0,1,,,,,
,,361549,001,2023-07-23_12h01.44.621,arm3_q,2022.2.5,MacIntel,58.82352941,right,-1,0.05,0.35,4,-0.216088296,0.161,,,,,,86,0,86,0,1,,,,,
,,361549,001,2023-07-23_12h01.44.621,arm3_q,2022.2.5,MacIntel,58.82352941,down,1,0.05,0.35,4,0,0.248,,,,,,87,0,87,0,1,,,,,
,,361549,001,2023-07-23_12h01.44.621,arm3_q,2022.2.5,MacIntel,58.82352941,right,1,0.05,0.35,4,0.018600711,0.505,,,,,,88,0,88,0,1,,,,,
,,361549,001,2023-07-23_12h01.44.621,arm3_q,2022.2.5,MacIntel,58.82352941,right,1,0.05,0.35,4,0.019437516,0.179,,,,,,89,0,89,0,1,,,,,
,,361549,001,2023-07-23_12h01.44.621,arm3_q,2022.2.5,MacIntel,58.82352941,right,1,0.05,0.35,4,0.051915231,0.171,,,,,,90,0,90,0,1,,,,,
,,361549,001,2023-07-23_12h01.44.621,arm3_q,2022.2.5,MacIntel,58.82352941,right,1,0.05,0.35,4,0.066893299,0.165,,,,,,91,0,91,0,1,,,,,
,,361549,001,2023-07-23_12h01.44.621,arm3_q,2022.2.5,MacIntel,58.82352941,right,1,0.05,0.35,4,0.076787398,0.179,,,,,,92,0,92,0,1,,,,,
,,361549,001,2023-07-23_12h01.44.621,arm3_q,2022.2.5,MacIntel,58.82352941,right,1,0.05,0.35,4,0.100146147,0.156,,,,,,93,0,93,0,1,,,,,
,,361549,001,2023-07-23_12h01.44.621,arm3_q,2022.2.5,MacIntel,58.82352941,right,1,0.05,0.35,4,0.080933023,0.178,,,,,,94,0,94,0,1,,,,,
,,361549,001,2023-07-23_12h01.44.621,arm3_q,2022.2.5,MacIntel,58.82352941,right,1,0.05,0.35,4,0.123980532,0.163,,,,,,95,0,95,0,1,,,,,
,,361549,001,2023-07-23_12h01.44.621,arm3_q,2022.2.5,MacIntel,58.82352941,right,1,0.05,0.35,4,0.135853177,0.166,,,,,,96,0,96,0,1,,,,,
,,361549,001,2023-07-23_12h01.44.621,arm3_q,2022.2.5,MacIntel,58.82352941,right,1,0.05,0.35,4,0.123166745,0.178,,,,,,97,0,97,0,1,,,,,
,,361549,001,2023-07-23_12h01.44.621,arm3_q,2022.2.5,MacIntel,58.82352941,right,1,0.05,0.35,4,0.137327971,0.162,,,,,,98,0,98,0,1,,,,,
,,361549,001,2023-07-23_12h01.44.621,arm3_q,2022.2.5,MacIntel,58.82352941,down,-1,0.05,0.35,4,0,0.417,,,,,,99,0,99,0,1,,,,,
,,361549,001,2023-07-23_12h01.44.621,arm3_q,2022.2.5,MacIntel,58.82352941,right,-1,0.05,0.35,4,-0.019693022,0.78,,,,,,100,0,100,0,1,,,,,
,,361549,001,2023-07-23_12h01.44.621,arm3_q,2022.2.5,MacIntel,58.82352941,right,-1,0.05,0.35,4,-0.035241849,0.179,,,,,,101,0,101,0,1,,,,,
,,361549,001,2023-07-23_12h01.44.621,arm3_q,2022.2.5,MacIntel,58.82352941,right,-1,0.05,0.35,4,-0.054485462,0.178,,,,,,102,0,102,0,1,,,,,
,,361549,001,2023-07-23_12h01.44.621,arm3_q,2022.2.5,MacIntel,58.82352941,right,-1,0.05,0.35,4,-0.089538637,0.165,,,,,,103,0,103,0,1,,,,,
,,361549,001,2023-07-23_12h01.44.621,arm3_q,2022.2.5,MacIntel,58.82352941,right,-1,0.05,0.35,4,-0.108477595,0.162,,,,,,104,0,104,0,1,,,,,
,,361549,001,2023-07-23_12h01.44.621,arm3_q,2022.2.5,MacIntel,58.82352941,right,-1,0.05,0.35,4,-0.10443589,0.171,,,,,,105,0,105,0,1,,,,,
,,361549,001,2023-07-23_12h01.44.621,arm3_q,2022.2.5,MacIntel,58.82352941,right,-1,0.05,0.35,4,-0.113989817,0.18,,,,,,106,0,106,0,1,,,,,
,,361549,001,2023-07-23_12h01.44.621,arm3_q,2022.2.5,MacIntel,58.82352941,right,-1,0.05,0.35,4,-0.13279937,0.177,,,,,,107,0,107,0,1,,,,,
,,361549,001,2023-07-23_12h01.44.621,arm3_q,2022.2.5,MacIntel,58.82352941,right,-1,0.05,0.35,4,-0.101686994,0.162,,,,,,108,0,108,0,1,,,,,
,,361549,001,2023-07-23_12h01.44.621,arm3_q,2022.2.5,MacIntel,58.82352941,right,-1,0.05,0.35,4,-0.093143405,0.182,,,,,,109,0,109,0,1,,,,,
,,361549,001,2023-07-23_12h01.44.621,arm3_q,2022.2.5,MacIntel,58.82352941,right,-1,0.05,0.35,4,-0.124176685,0.187,,,,,,110,0,110,0,1,,,,,
,,361549,001,2023-07-23_12h01.44.621,arm3_q,2022.2.5,MacIntel,58.82352941,right,-1,0.05,0.35,4,-0.137188393,0.23,,,,,,111,0,111,0,1,,,,,
,,361549,001,2023-07-23_12h01.44.621,arm3_q,2022.2.5,MacIntel,58.82352941,down,1,0.05,0.35,4,0,0.296,,,,,,112,0,112,0,1,,,,,
,,361549,001,2023-07-23_12h01.44.621,arm3_q,2022.2.5,MacIntel,58.82352941,right,1,0.05,0.35,4,0.029317108,0.696,,,,,,113,0,113,0,1,,,,,
,,361549,001,2023-07-23_12h01.44.621,arm3_q,2022.2.5,MacIntel,58.82352941,right,1,0.05,0.35,4,0.029708959,0.161,,,,,,114,0,114,0,1,,,,,
,,361549,001,2023-07-23_12h01.44.621,arm3_q,2022.2.5,MacIntel,58.82352941,right,1,0.05,0.35,4,0.043544335,0.161,,,,,,115,0,115,0,1,,,,,
,,361549,001,2023-07-23_12h01.44.621,arm3_q,2022.2.5,MacIntel,58.82352941,right,1,0.05,0.35,4,0.04817793,0.152,,,,,,116,0,116,0,1,,,,,
,,361549,001,2023-07-23_12h01.44.621,arm3_q,2022.2.5,MacIntel,58.82352941,right,1,0.05,0.35,4,0.019975647,0.179,,,,,,117,0,117,0,1,,,,,
,,361549,001,2023-07-23_12h01.44.621,arm3_q,2022.2.5,MacIntel,58.82352941,right,1,0.05,0.35,4,0.015795018,0.185,,,,,,118,0,118,0,1,,,,,
,,361549,001,2023-07-23_12h01.44.621,arm3_q,2022.2.5,MacIntel,58.82352941,right,1,0.05,0.35,4,0.029709861,0.178,,,,,,119,0,119,0,1,,,,,
,,361549,001,2023-07-23_12h01.44.621,arm3_q,2022.2.5,MacIntel,58.82352941,right,1,0.05,0.35,4,-0.003188542,0.162,,,,,,120,0,120,0,1,,,,,
,,361549,001,2023-07-23_12h01.44.621,arm3_q,2022.2.5,MacIntel,58.82352941,right,1,0.05,0.35,4,-0.006801287,0.163,,,,,,121,0,121,0,1,,,,,
,,361549,001,2023-07-23_12h01.44.621,arm3_q,2022.2.5,MacIntel,58.82352941,right,1,0.05,0.35,4,0.005750911,0.147,,,,,,122,0,122,0,1,,,,,
,,361549,001,2023-07-23_12h01.44.621,arm3_q,2022.2.5,MacIntel,58.82352941,right,1,0.05,0.35,4,-0.015167998,0.211,,,,,,123,0,123,0,1,,,,,
,,361549,001,2023-07-23_12h01.44.621,arm3_q,2022.2.5,MacIntel,58.82352941,right,1,0.05,0.35,4,0.00839075,0.179,,,,,,124,0,124,0,1,,,,,
,,361549,001,2023-07-23_12h01.44.621,arm3_q,2022.2.5,MacIntel,58.82352941,up,1,0.05,0.35,4,0,1.997,,,,,,125,0,125,0,1,,,,,
,,361549,001,2023-07-23_12h01.44.621,arm3_q,2022.2.5,MacIntel,58.82352941,right,1,0.05,0.35,4,0.015184966,0.565,,,,,,126,0,126,0,1,,,,,
,,361549,001,2023-07-23_12h01.44.621,arm3_q,2022.2.5,MacIntel,58.82352941,right,1,0.05,0.35,4,0.030715698,0.161,,,,,,127,0,127,0,1,,,,,
,,361549,001,2023-07-23_12h01.44.621,arm3_q,2022.2.5,MacIntel,58.82352941,right,1,0.05,0.35,4,0.057253607,0.145,,,,,,128,0,128,0,1,,,,,
,,361549,001,2023-07-23_12h01.44.621,arm3_q,2022.2.5,MacIntel,58.82352941,right,1,0.05,0.35,4,0.043272535,0.215,,,,,,129,0,129,0,1,,,,,
,,361549,001,2023-07-23_12h01.44.621,arm3_q,2022.2.5,MacIntel,58.82352941,right,1,0.05,0.35,4,0.01911538,0.179,,,,,,130,0,130,0,1,,,,,
,,361549,001,2023-07-23_12h01.44.621,arm3_q,2022.2.5,MacIntel,58.82352941,right,1,0.05,0.35,4,0.017001731,0.167,,,,,,131,0,131,0,1,,,,,
,,361549,001,2023-07-23_12h01.44.621,arm3_q,2022.2.5,MacIntel,58.82352941,right,1,0.05,0.35,4,0.049417042,0.178,,,,,,132,0,132,0,1,,,,,
,,361549,001,2023-07-23_12h01.44.621,arm3_q,2022.2.5,MacIntel,58.82352941,right,1,0.05,0.35,4,0.07251063,0.162,,,,,,133,0,133,0,1,,,,,
,,361549,001,2023-07-23_12h01.44.621,arm3_q,2022.2.5,MacIntel,58.82352941,right,1,0.05,0.35,4,0.064639271,0.164,,,,,,134,0,134,0,1,,,,,
,,361549,001,2023-07-23_12h01.44.621,arm3_q,2022.2.5,MacIntel,58.82352941,right,1,0.05,0.35,4,0.029511018,0.148,,,,,,135,0,135,0,1,,,,,
,,361549,001,2023-07-23_12h01.44.621,arm3_q,2022.2.5,MacIntel,58.82352941,right,1,0.05,0.35,4,0.031554322,0.162,,,,,,136,0,136,0,1,,,,,
,,361549,001,2023-07-23_12h01.44.621,arm3_q,2022.2.5,MacIntel,58.82352941,right,1,0.05,0.35,4,0.076429054,0.162,,,,,,137,0,137,0,1,,,,,
,,361549,001,2023-07-23_12h01.44.621,arm3_q,2022.2.5,MacIntel,58.82352941,up,1,0.05,0.35,4,0,0.628,,,,,,138,0,138,0,1,,,,,
,,361549,001,2023-07-23_12h01.44.621,arm3_q,2022.2.5,MacIntel,58.82352941,right,1,0.05,0.35,4,0.021738284,0.604,,,,,,139,0,139,0,1,,,,,
,,361549,001,2023-07-23_12h01.44.621,arm3_q,2022.2.5,MacIntel,58.82352941,right,1,0.05,0.35,4,0.01694899,0.196,,,,,,140,0,140,0,1,,,,,
,,361549,001,2023-07-23_12h01.44.621,arm3_q,2022.2.5,MacIntel,58.82352941,right,1,0.05,0.35,4,0.027518926,0.179,,,,,,141,0,141,0,1,,,,,
,,361549,001,2023-07-23_12h01.44.621,arm3_q,2022.2.5,MacIntel,58.82352941,right,1,0.05,0.35,4,0.041307271,0.162,,,,,,142,0,142,0,1,,,,,
,,361549,001,2023-07-23_12h01.44.621,arm3_q,2022.2.5,MacIntel,58.82352941,right,1,0.05,0.35,4,0.030280971,0.177,,,,,,143,0,143,0,1,,,,,
,,361549,001,2023-07-23_12h01.44.621,arm3_q,2022.2.5,MacIntel,58.82352941,right,1,0.05,0.35,4,0.047370671,0.179,,,,,,144,0,144,0,1,,,,,
,,361549,001,2023-07-23_12h01.44.621,arm3_q,2022.2.5,MacIntel,58.82352941,right,1,0.05,0.35,4,0.064084059,0.146,,,,,,145,0,145,0,1,,,,,
,,361549,001,2023-07-23_12h01.44.621,arm3_q,2022.2.5,MacIntel,58.82352941,right,1,0.05,0.35,4,0.078330277,0.165,,,,,,146,0,146,0,1,,,,,
,,361549,001,2023-07-23_12h01.44.621,arm3_q,2022.2.5,MacIntel,58.82352941,right,1,0.05,0.35,4,0.070040536,0.178,,,,,,147,0,147,0,1,,,,,
,,361549,001,2023-07-23_12h01.44.621,arm3_q,2022.2.5,MacIntel,58.82352941,right,1,0.05,0.35,4,0.050259308,0.178,,,,,,148,0,148,0,1,,,,,
,,361549,001,2023-07-23_12h01.44.621,arm3_q,2022.2.5,MacIntel,58.82352941,right,1,0.05,0.35,4,0.047436355,0.163,,,,,,149,0,149,0,1,,,,,
,,361549,001,2023-07-23_12h01.44.621,arm3_q,2022.2.5,MacIntel,58.82352941,right,1,0.05,0.35,4,0.037239534,0.194,,,,,,150,0,150,0,1,,,,,
,,361549,001,2023-07-23_12h01.44.621,arm3_q,2022.2.5,MacIntel,58.82352941,up,1,0.05,0.35,4,0,0.612,,,,,,151,0,151,0,1,,,,,
,,361549,001,2023-07-23_12h01.44.621,arm3_q,2022.2.5,MacIntel,58.82352941,right,1,0.05,0.35,4,0.033771131,0.966,,,,,,152,0,152,0,1,,,,,
,,361549,001,2023-07-23_12h01.44.621,arm3_q,2022.2.5,MacIntel,58.82352941,right,1,0.05,0.35,4,0.038771412,0.179,,,,,,153,0,153,0,1,,,,,
,,361549,001,2023-07-23_12h01.44.621,arm3_q,2022.2.5,MacIntel,58.82352941,right,1,0.05,0.35,4,0.047557723,0.164,,,,,,154,0,154,0,1,,,,,
,,361549,001,2023-07-23_12h01.44.621,arm3_q,2022.2.5,MacIntel,58.82352941,right,1,0.05,0.35,4,0.063504758,0.194,,,,,,155,0,155,0,1,,,,,
,,361549,001,2023-07-23_12h01.44.621,arm3_q,2022.2.5,MacIntel,58.82352941,right,1,0.05,0.35,4,0.071696549,0.196,,,,,,156,0,156,0,1,,,,,
,,361549,001,2023-07-23_12h01.44.621,arm3_q,2022.2.5,MacIntel,58.82352941,right,1,0.05,0.35,4,0.094592157,0.195,,,,,,157,0,157,0,1,,,,,
,,361549,001,2023-07-23_12h01.44.621,arm3_q,2022.2.5,MacIntel,58.82352941,right,1,0.05,0.35,4,0.120679607,0.197,,,,,,158,0,158,0,1,,,,,
,,361549,001,2023-07-23_12h01.44.621,arm3_q,2022.2.5,MacIntel,58.82352941,right,1,0.05,0.35,4,0.077980944,0.195,,,,,,159,0,159,0,1,,,,,
,,361549,001,2023-07-23_12h01.44.621,arm3_q,2022.2.5,MacIntel,58.82352941,right,1,0.05,0.35,4,0.086202512,0.182,,,,,,160,0,160,0,1,,,,,
,,361549,001,2023-07-23_12h01.44.621,arm3_q,2022.2.5,MacIntel,58.82352941,right,1,0.05,0.35,4,0.115805499,0.194,,,,,,161,0,161,0,1,,,,,
,,361549,001,2023-07-23_12h01.44.621,arm3_q,2022.2.5,MacIntel,58.82352941,right,1,0.05,0.35,4,0.124062708,0.171,,,,,,162,0,162,0,1,,,,,
,,361549,001,2023-07-23_12h01.44.621,arm3_q,2022.2.5,MacIntel,58.82352941,up,1,0.05,0.35,4,0,0.503,,,,,,163,0,163,0,1,,,,,
,,361549,001,2023-07-23_12h01.44.621,arm3_q,2022.2.5,MacIntel,58.82352941,right,1,0.05,0.35,4,0.017680429,0.73,,,,,,164,0,164,0,1,,,,,
,,361549,001,2023-07-23_12h01.44.621,arm3_q,2022.2.5,MacIntel,58.82352941,right,1,0.05,0.35,4,0.038668542,0.182,,,,,,165,0,165,0,1,,,,,
,,361549,001,2023-07-23_12h01.44.621,arm3_q,2022.2.5,MacIntel,58.82352941,right,1,0.05,0.35,4,0.048774542,0.195,,,,,,166,0,166,0,1,,,,,
,,361549,001,2023-07-23_12h01.44.621,arm3_q,2022.2.5,MacIntel,58.82352941,right,1,0.05,0.35,4,0.066700538,0.212,,,,,,167,0,167,0,1,,,,,
,,361549,001,2023-07-23_12h01.44.621,arm3_q,2022.2.5,MacIntel,58.82352941,right,1,0.05,0.35,4,0.060080177,0.168,,,,,,168,0,168,0,1,,,,,
,,361549,001,2023-07-23_12h01.44.621,arm3_q,2022.2.5,MacIntel,58.82352941,right,1,0.05,0.35,4,0.064869528,0.212,,,,,,169,0,169,0,1,,,,,
,,361549,001,2023-07-23_12h01.44.621,arm3_q,2022.2.5,MacIntel,58.82352941,right,1,0.05,0.35,4,0.09973108,0.213,,,,,,170,0,170,0,1,,,,,
,,361549,001,2023-07-23_12h01.44.621,arm3_q,2022.2.5,MacIntel,58.82352941,right,1,0.05,0.35,4,0.091575469,0.187,,,,,,171,0,171,0,1,,,,,
,,361549,001,2023-07-23_12h01.44.621,arm3_q,2022.2.5,MacIntel,58.82352941,right,1,0.05,0.35,4,0.117609437,0.195,,,,,,172,0,172,0,1,,,,,
,,361549,001,2023-07-23_12h01.44.621,arm3_q,2022.2.5,MacIntel,58.82352941,right,1,0.05,0.35,4,0.14935911,0.204,,,,,,173,0,173,0,1,,,,,
,,361549,001,2023-07-23_12h01.44.621,arm3_q,2022.2.5,MacIntel,58.82352941,right,1,0.05,0.35,4,0.129002029,0.212,,,,,,174,0,174,0,1,,,,,
,,361549,001,2023-07-23_12h01.44.621,arm3_q,2022.2.5,MacIntel,58.82352941,right,1,0.05,0.35,4,0.135554771,0.198,,,,,,175,0,175,0,1,,,,,
,,361549,001,2023-07-23_12h01.44.621,arm3_q,2022.2.5,MacIntel,58.82352941,up,1,0.05,0.35,4,0,0.435,,,,,,176,0,176,0,1,,,,,
,,361549,001,2023-07-23_12h01.44.621,arm3_q,2022.2.5,MacIntel,58.82352941,right,1,0.05,0.35,4,0.009450428,0.78,,,,,,177,0,177,0,1,,,,,
,,361549,001,2023-07-23_12h01.44.621,arm3_q,2022.2.5,MacIntel,58.82352941,right,1,0.05,0.35,4,0.044661772,0.181,,,,,,178,0,178,0,1,,,,,
,,361549,001,2023-07-23_12h01.44.621,arm3_q,2022.2.5,MacIntel,58.82352941,right,1,0.05,0.35,4,0.057221738,0.196,,,,,,179,0,179,0,1,,,,,
,,361549,001,2023-07-23_12h01.44.621,arm3_q,2022.2.5,MacIntel,58.82352941,right,1,0.05,0.35,4,0.048850667,0.179,,,,,,180,0,180,0,1,,,,,
,,361549,001,2023-07-23_12h01.44.621,arm3_q,2022.2.5,MacIntel,58.82352941,right,1,0.05,0.35,4,0.055543349,0.18,,,,,,181,0,181,0,1,,,,,
,,361549,001,2023-07-23_12h01.44.621,arm3_q,2022.2.5,MacIntel,58.82352941,right,1,0.05,0.35,4,0.074982693,0.167,,,,,,182,0,182,0,1,,,,,
,,361549,001,2023-07-23_12h01.44.621,arm3_q,2022.2.5,MacIntel,58.82352941,right,1,0.05,0.35,4,0.113713566,0.185,,,,,,183,0,183,0,1,,,,,
,,361549,001,2023-07-23_12h01.44.621,arm3_q,2022.2.5,MacIntel,58.82352941,right,1,0.05,0.35,4,0.117808314,0.181,,,,,,184,0,184,0,1,,,,,
,,361549,001,2023-07-23_12h01.44.621,arm3_q,2022.2.5,MacIntel,58.82352941,right,1,0.05,0.35,4,0.111502956,0.179,,,,,,185,0,185,0,1,,,,,
,,361549,001,2023-07-23_12h01.44.621,arm3_q,2022.2.5,MacIntel,58.82352941,right,1,0.05,0.35,4,0.130059082,0.165,,,,,,186,0,186,0,1,,,,,
,,361549,001,2023-07-23_12h01.44.621,arm3_q,2022.2.5,MacIntel,58.82352941,right,1,0.05,0.35,4,0.151766018,0.179,,,,,,187,0,187,0,1,,,,,
,,361549,001,2023-07-23_12h01.44.621,arm3_q,2022.2.5,MacIntel,58.82352941,right,1,0.05,0.35,4,0.160941402,0.179,,,,,,188,0,188,0,1,,,,,
,,361549,001,2023-07-23_12h01.44.621,arm3_q,2022.2.5,MacIntel,58.82352941,up,1,0.05,0.35,4,0,0.279,,,,,,189,0,189,0,1,,,,,
,,361549,001,2023-07-23_12h01.44.621,arm3_q,2022.2.5,MacIntel,58.82352941,right,1,0.05,0.35,4,0.053395517,0.728,,,,,,190,0,190,0,1,,,,,
,,361549,001,2023-07-23_12h01.44.621,arm3_q,2022.2.5,MacIntel,58.82352941,right,1,0.05,0.35,4,0.082386172,0.166,,,,,,191,0,191,0,1,,,,,
,,361549,001,2023-07-23_12h01.44.621,arm3_q,2022.2.5,MacIntel,58.82352941,right,1,0.05,0.35,4,0.09838905,0.165,,,,,,192,0,192,0,1,,,,,
,,361549,001,2023-07-23_12h01.44.621,arm3_q,2022.2.5,MacIntel,58.82352941,right,1,0.05,0.35,4,0.114967721,0.162,,,,,,193,0,193,0,1,,,,,
,,361549,001,2023-07-23_12h01.44.621,arm3_q,2022.2.5,MacIntel,58.82352941,right,1,0.05,0.35,4,0.103623927,0.164,,,,,,194,0,194,0,1,,,,,
,,361549,001,2023-07-23_12h01.44.621,arm3_q,2022.2.5,MacIntel,58.82352941,right,1,0.05,0.35,4,0.097733407,0.164,,,,,,195,0,195,0,1,,,,,
,,361549,001,2023-07-23_12h01.44.621,arm3_q,2022.2.5,MacIntel,58.82352941,right,1,0.05,0.35,4,0.125842732,0.129,,,,,,196,0,196,0,1,,,,,
,,361549,001,2023-07-23_12h01.44.621,arm3_q,2022.2.5,MacIntel,58.82352941,right,1,0.05,0.35,4,0.116881267,0.174,,,,,,197,0,197,0,1,,,,,
,,361549,001,2023-07-23_12h01.44.621,arm3_q,2022.2.5,MacIntel,58.82352941,right,1,0.05,0.35,4,0.106864029,0.613,,,,,,198,0,198,0,1,,,,,
,,361549,001,2023-07-23_12h01.44.621,arm3_q,2022.2.5,MacIntel,58.82352941,right,1,0.05,0.35,4,0.112332311,0.161,,,,,,199,0,199,0,1,,,,,
,,361549,001,2023-07-23_12h01.44.621,arm3_q,2022.2.5,MacIntel,58.82352941,right,1,0.05,0.35,4,0.107329744,0.143,,,,,,200,0,200,0,1,,,,,
,,361549,001,2023-07-23_12h01.44.621,arm3_q,2022.2.5,MacIntel,58.82352941,right,1,0.05,0.35,4,0.135535057,0.153,,,,,,201,0,201,0,1,,,,,
,,361549,001,2023-07-23_12h01.44.621,arm3_q,2022.2.5,MacIntel,58.82352941,up,1,0.05,0.35,4,0,0.46,,,,,,202,0,202,0,1,,,,,
,,361549,001,2023-07-23_12h01.44.621,arm3_q,2022.2.5,MacIntel,58.82352941,right,1,0.05,0.35,4,-0.012635399,0.632,,,,,,203,0,203,0,1,,,,,
,,361549,001,2023-07-23_12h01.44.621,arm3_q,2022.2.5,MacIntel,58.82352941,right,1,0.05,0.35,4,-0.039284217,0.161,,,,,,204,0,204,0,1,,,,,
,,361549,001,2023-07-23_12h01.44.621,arm3_q,2022.2.5,MacIntel,58.82352941,right,1,0.05,0.35,4,-0.02494004,0.137,,,,,,205,0,205,0,1,,,,,
,,361549,001,2023-07-23_12h01.44.621,arm3_q,2022.2.5,MacIntel,58.82352941,right,1,0.05,0.35,4,-0.025044045,0.163,,,,,,206,0,206,0,1,,,,,
,,361549,001,2023-07-23_12h01.44.621,arm3_q,2022.2.5,MacIntel,58.82352941,right,1,0.05,0.35,4,-0.006763735,0.153,,,,,,207,0,207,0,1,,,,,
,,361549,001,2023-07-23_12h01.44.621,arm3_q,2022.2.5,MacIntel,58.82352941,right,1,0.05,0.35,4,-2.0555E-05,0.195,,,,,,208,0,208,0,1,,,,,
,,361549,001,2023-07-23_12h01.44.621,arm3_q,2022.2.5,MacIntel,58.82352941,right,1,0.05,0.35,4,0.028560059,0.188,,,,,,209,0,209,0,1,,,,,
,,361549,001,2023-07-23_12h01.44.621,arm3_q,2022.2.5,MacIntel,58.82352941,right,1,0.05,0.35,4,0.037460594,0.171,,,,,,210,0,210,0,1,,,,,
,,361549,001,2023-07-23_12h01.44.621,arm3_q,2022.2.5,MacIntel,58.82352941,right,1,0.05,0.35,4,0.068698123,0.153,,,,,,211,0,211,0,1,,,,,
,,361549,001,2023-07-23_12h01.44.621,arm3_q,2022.2.5,MacIntel,58.82352941,right,1,0.05,0.35,4,0.082975344,0.168,,,,,,212,0,212,0,1,,,,,
,,361549,001,2023-07-23_12h01.44.621,arm3_q,2022.2.5,MacIntel,58.82352941,right,1,0.05,0.35,4,0.077593354,0.163,,,,,,213,0,213,0,1,,,,,
,,361549,001,2023-07-23_12h01.44.621,arm3_q,2022.2.5,MacIntel,58.82352941,up,1,0.05,0.35,4,0,0.463,,,,,,214,0,214,0,1,,,,,
,,361549,001,2023-07-23_12h01.44.621,arm3_q,2022.2.5,MacIntel,58.82352941,right,1,0.05,0.35,4,0.016737695,0.444,,,,,,215,0,215,0,1,,,,,
,,361549,001,2023-07-23_12h01.44.621,arm3_q,2022.2.5,MacIntel,58.82352941,right,1,0.05,0.35,4,0.030316681,0.163,,,,,,216,0,216,0,1,,,,,
,,361549,001,2023-07-23_12h01.44.621,arm3_q,2022.2.5,MacIntel,58.82352941,right,1,0.05,0.35,4,0.071362204,0.162,,,,,,217,0,217,0,1,,,,,
,,361549,001,2023-07-23_12h01.44.621,arm3_q,2022.2.5,MacIntel,58.82352941,right,1,0.05,0.35,4,0.078224241,0.146,,,,,,218,0,218,0,1,,,,,
,,361549,001,2023-07-23_12h01.44.621,arm3_q,2022.2.5,MacIntel,58.82352941,right,1,0.05,0.35,4,0.086813232,0.163,,,,,,219,0,219,0,1,,,,,
,,361549,001,2023-07-23_12h01.44.621,arm3_q,2022.2.5,MacIntel,58.82352941,right,1,0.05,0.35,4,0.106140453,0.146,,,,,,220,0,220,0,1,,,,,
,,361549,001,2023-07-23_12h01.44.621,arm3_q,2022.2.5,MacIntel,58.82352941,right,1,0.05,0.35,4,0.124091966,0.18,,,,,,221,0,221,0,1,,,,,
,,361549,001,2023-07-23_12h01.44.621,arm3_q,2022.2.5,MacIntel,58.82352941,right,1,0.05,0.35,4,0.154558252,0.195,,,,,,222,0,222,0,1,,,,,
,,361549,001,2023-07-23_12h01.44.621,arm3_q,2022.2.5,MacIntel,58.82352941,right,1,0.05,0.35,4,0.157044847,0.215,,,,,,223,0,223,0,1,,,,,
,,361549,001,2023-07-23_12h01.44.621,arm3_q,2022.2.5,MacIntel,58.82352941,right,1,0.05,0.35,4,0.156196225,0.195,,,,,,224,0,224,0,1,,,,,
,,361549,001,2023-07-23_12h01.44.621,arm3_q,2022.2.5,MacIntel,58.82352941,right,1,0.05,0.35,4,0.174005235,0.162,,,,,,225,0,225,0,1,,,,,
,,361549,001,2023-07-23_12h01.44.621,arm3_q,2022.2.5,MacIntel,58.82352941,up,-1,0.05,0.35,4,0,0.262,,,,,,226,0,226,0,1,,,,,
,,361549,001,2023-07-23_12h01.44.621,arm3_q,2022.2.5,MacIntel,58.82352941,right,-1,0.05,0.35,4,-0.0002556,0.746,,,,,,227,0,227,0,1,,,,,
,,361549,001,2023-07-23_12h01.44.621,arm3_q,2022.2.5,MacIntel,58.82352941,right,-1,0.05,0.35,4,-0.01223741,0.149,,,,,,228,0,228,0,1,,,,,
,,361549,001,2023-07-23_12h01.44.621,arm3_q,2022.2.5,MacIntel,58.82352941,right,-1,0.05,0.35,4,-0.019673348,0.153,,,,,,229,0,229,0,1,,,,,
,,361549,001,2023-07-23_12h01.44.621,arm3_q,2022.2.5,MacIntel,58.82352941,right,-1,0.05,0.35,4,0.017043074,0.177,,,,,,230,0,230,0,1,,,,,
,,361549,001,2023-07-23_12h01.44.621,arm3_q,2022.2.5,MacIntel,58.82352941,right,-1,0.05,0.35,4,-0.017968082,0.164,,,,,,231,0,231,0,1,,,,,
,,361549,001,2023-07-23_12h01.44.621,arm3_q,2022.2.5,MacIntel,58.82352941,right,-1,0.05,0.35,4,-0.002010176,0.18,,,,,,232,0,232,0,1,,,,,
,,361549,001,2023-07-23_12h01.44.621,arm3_q,2022.2.5,MacIntel,58.82352941,right,-1,0.05,0.35,4,-0.058259548,0.18,,,,,,233,0,233,0,1,,,,,
,,361549,001,2023-07-23_12h01.44.621,arm3_q,2022.2.5,MacIntel,58.82352941,right,-1,0.05,0.35,4,-0.061035174,0.162,,,,,,234,0,234,0,1,,,,,
,,361549,001,2023-07-23_12h01.44.621,arm3_q,2022.2.5,MacIntel,58.82352941,right,-1,0.05,0.35,4,-0.073205334,0.161,,,,,,235,0,235,0,1,,,,,
,,361549,001,2023-07-23_12h01.44.621,arm3_q,2022.2.5,MacIntel,58.82352941,right,-1,0.05,0.35,4,-0.060604866,0.162,,,,,,236,0,236,0,1,,,,,
,,361549,001,2023-07-23_12h01.44.621,arm3_q,2022.2.5,MacIntel,58.82352941,right,-1,0.05,0.35,4,-0.07395396,0.163,,,,,,237,0,237,0,1,,,,,
,,361549,001,2023-07-23_12h01.44.621,arm3_q,2022.2.5,MacIntel,58.82352941,down,-1,0.05,0.35,4,0,0.747,,,,,,238,0,238,0,1,,,,,
,,361549,001,2023-07-23_12h01.44.621,arm3_q,2022.2.5,MacIntel,58.82352941,right,-1,0.05,0.35,4,0.013000254,0.503,,,,,,239,0,239,0,1,,,,,
,,361549,001,2023-07-23_12h01.44.621,arm3_q,2022.2.5,MacIntel,58.82352941,right,-1,0.05,0.35,4,-0.008899251,0.176,,,,,,240,0,240,0,1,,,,,
,,361549,001,2023-07-23_12h01.44.621,arm3_q,2022.2.5,MacIntel,58.82352941,right,-1,0.05,0.35,4,-0.026907108,0.179,,,,,,241,0,241,0,1,,,,,
,,361549,001,2023-07-23_12h01.44.621,arm3_q,2022.2.5,MacIntel,58.82352941,right,-1,0.05,0.35,4,-0.045366711,0.161,,,,,,242,0,242,0,1,,,,,
,,361549,001,2023-07-23_12h01.44.621,arm3_q,2022.2.5,MacIntel,58.82352941,right,-1,0.05,0.35,4,-0.061721618,0.164,,,,,,243,0,243,0,1,,,,,
,,361549,001,2023-07-23_12h01.44.621,arm3_q,2022.2.5,MacIntel,58.82352941,right,-1,0.05,0.35,4,-0.07661242,0.164,,,,,,244,0,244,0,1,,,,,
,,361549,001,2023-07-23_12h01.44.621,arm3_q,2022.2.5,MacIntel,58.82352941,right,-1,0.05,0.35,4,-0.072816467,0.183,,,,,,245,0,245,0,1,,,,,
,,361549,001,2023-07-23_12h01.44.621,arm3_q,2022.2.5,MacIntel,58.82352941,right,-1,0.05,0.35,4,-0.102678692,0.18,,,,,,246,0,246,0,1,,,,,
,,361549,001,2023-07-23_12h01.44.621,arm3_q,2022.2.5,MacIntel,58.82352941,right,-1,0.05,0.35,4,-0.12664584,0.18,,,,,,247,0,247,0,1,,,,,
,,361549,001,2023-07-23_12h01.44.621,arm3_q,2022.2.5,MacIntel,58.82352941,down,-1,0.05,0.35,4,0,0.419,,,,,,248,0,248,0,1,,,,,
,,361549,001,2023-07-23_12h01.44.621,arm3_q,2022.2.5,MacIntel,58.82352941,up,-1,0.05,0.35,4,0,0.031,,,,,,249,0,249,0,1,,,,,
,,361549,001,2023-07-23_12h01.44.621,arm3_q,2022.2.5,MacIntel,58.82352941,right,-1,0.05,0.35,4,-0.019022874,0.73,,,,,,250,0,250,0,1,,,,,
,,361549,001,2023-07-23_12h01.44.621,arm3_q,2022.2.5,MacIntel,58.82352941,right,-1,0.05,0.35,4,-0.019633815,0.147,,,,,,251,0,251,0,1,,,,,
,,361549,001,2023-07-23_12h01.44.621,arm3_q,2022.2.5,MacIntel,58.82352941,right,-1,0.05,0.35,4,-0.032122525,0.179,,,,,,252,0,252,0,1,,,,,
,,361549,001,2023-07-23_12h01.44.621,arm3_q,2022.2.5,MacIntel,58.82352941,right,-1,0.05,0.35,4,-0.067220136,0.166,,,,,,253,0,253,0,1,,,,,
,,361549,001,2023-07-23_12h01.44.621,arm3_q,2022.2.5,MacIntel,58.82352941,right,-1,0.05,0.35,4,-0.091379343,0.196,,,,,,254,0,254,0,1,,,,,
,,361549,001,2023-07-23_12h01.44.621,arm3_q,2022.2.5,MacIntel,58.82352941,right,-1,0.05,0.35,4,-0.135968998,0.185,,,,,,255,0,255,0,1,,,,,
,,361549,001,2023-07-23_12h01.44.621,arm3_q,2022.2.5,MacIntel,58.82352941,right,-1,0.05,0.35,4,-0.162839669,0.177,,,,,,256,0,256,0,1,,,,,
,,361549,001,2023-07-23_12h01.44.621,arm3_q,2022.2.5,MacIntel,58.82352941,right,-1,0.05,0.35,4,-0.159974088,0.171,,,,,,257,0,257,0,1,,,,,
,,361549,001,2023-07-23_12h01.44.621,arm3_q,2022.2.5,MacIntel,58.82352941,right,-1,0.05,0.35,4,-0.153638871,0.219,,,,,,258,0,258,0,1,,,,,
,,361549,001,2023-07-23_12h01.44.621,arm3_q,2022.2.5,MacIntel,58.82352941,right,-1,0.05,0.35,4,-0.147075986,0.211,,,,,,259,0,259,0,1,,,,,
,,361549,001,2023-07-23_12h01.44.621,arm3_q,2022.2.5,MacIntel,58.82352941,right,-1,0.05,0.35,4,-0.151299227,0.18,,,,,,260,0,260,0,1,,,,,
,,361549,001,2023-07-23_12h01.44.621,arm3_q,2022.2.5,MacIntel,58.82352941,down,-1,0.05,0.35,4,0,0.579,,,,,,261,0,261,0,1,,,,,
,,361549,001,2023-07-23_12h01.44.621,arm3_q,2022.2.5,MacIntel,58.82352941,right,-1,0.05,0.35,4,-0.016328063,0.783,,,,,,262,0,262,0,1,,,,,
,,361549,001,2023-07-23_12h01.44.621,arm3_q,2022.2.5,MacIntel,58.82352941,right,-1,0.05,0.35,4,-0.023641767,0.187,,,,,,263,0,263,0,1,,,,,
,,361549,001,2023-07-23_12h01.44.621,arm3_q,2022.2.5,MacIntel,58.82352941,right,-1,0.05,0.35,4,-0.043834918,0.18,,,,,,264,0,264,0,1,,,,,
,,361549,001,2023-07-23_12h01.44.621,arm3_q,2022.2.5,MacIntel,58.82352941,right,-1,0.05,0.35,4,-0.048709964,0.179,,,,,,265,0,265,0,1,,,,,
,,361549,001,2023-07-23_12h01.44.621,arm3_q,2022.2.5,MacIntel,58.82352941,right,-1,0.05,0.35,4,-0.048290229,0.194,,,,,,266,0,266,0,1,,,,,
,,361549,001,2023-07-23_12h01.44.621,arm3_q,2022.2.5,MacIntel,58.82352941,right,-1,0.05,0.35,4,-0.061396228,0.197,,,,,,267,0,267,0,1,,,,,
,,361549,001,2023-07-23_12h01.44.621,arm3_q,2022.2.5,MacIntel,58.82352941,right,-1,0.05,0.35,4,-0.026188421,0.195,,,,,,268,0,268,0,1,,,,,
,,361549,001,2023-07-23_12h01.44.621,arm3_q,2022.2.5,MacIntel,58.82352941,right,-1,0.05,0.35,4,-0.021500832,0.179,,,,,,269,0,269,0,1,,,,,
,,361549,001,2023-07-23_12h01.44.621,arm3_q,2022.2.5,MacIntel,58.82352941,right,-1,0.05,0.35,4,-0.032921977,0.178,,,,,,270,0,270,0,1,,,,,
,,361549,001,2023-07-23_12h01.44.621,arm3_q,2022.2.5,MacIntel,58.82352941,right,-1,0.05,0.35,4,-0.026146704,0.171,,,,,,271,0,271,0,1,,,,,
,,361549,001,2023-07-23_12h01.44.621,arm3_q,2022.2.5,MacIntel,58.82352941,right,-1,0.05,0.35,4,-0.041003092,0.186,,,,,,272,0,272,0,1,,,,,
,,361549,001,2023-07-23_12h01.44.621,arm3_q,2022.2.5,MacIntel,58.82352941,right,-1,0.05,0.35,4,-0.038507395,0.246,,,,,,273,0,273,0,1,,,,,
,,361549,001,2023-07-23_12h01.44.621,arm3_q,2022.2.5,MacIntel,58.82352941,up,-1,0.05,0.35,4,0,2.151,,,,,,274,0,274,0,1,,,,,
,,361549,001,2023-07-23_12h01.44.621,arm3_q,2022.2.5,MacIntel,58.82352941,right,-1,0.05,0.35,4,0.001216907,0.747,,,,,,275,0,275,0,1,,,,,
,,361549,001,2023-07-23_12h01.44.621,arm3_q,2022.2.5,MacIntel,58.82352941,right,-1,0.05,0.35,4,-0.013408452,0.163,,,,,,276,0,276,0,1,,,,,
,,361549,001,2023-07-23_12h01.44.621,arm3_q,2022.2.5,MacIntel,58.82352941,right,-1,0.05,0.35,4,-0.014786981,0.964,,,,,,277,0,277,0,1,,,,,
,,361549,001,2023-07-23_12h01.44.621,arm3_q,2022.2.5,MacIntel,58.82352941,right,-1,0.05,0.35,4,-0.030264252,0.183,,,,,,278,0,278,0,1,,,,,
,,361549,001,2023-07-23_12h01.44.621,arm3_q,2022.2.5,MacIntel,58.82352941,right,-1,0.05,0.35,4,-0.069032241,0.181,,,,,,279,0,279,0,1,,,,,
,,361549,001,2023-07-23_12h01.44.621,arm3_q,2022.2.5,MacIntel,58.82352941,right,-1,0.05,0.35,4,-0.091446016,0.183,,,,,,280,0,280,0,1,,,,,
,,361549,001,2023-07-23_12h01.44.621,arm3_q,2022.2.5,MacIntel,58.82352941,right,-1,0.05,0.35,4,-0.099573531,0.177,,,,,,281,0,281,0,1,,,,,
,,361549,001,2023-07-23_12h01.44.621,arm3_q,2022.2.5,MacIntel,58.82352941,right,-1,0.05,0.35,4,-0.103071368,0.179,,,,,,282,0,282,0,1,,,,,
,,361549,001,2023-07-23_12h01.44.621,arm3_q,2022.2.5,MacIntel,58.82352941,right,-1,0.05,0.35,4,-0.092668551,0.164,,,,,,283,0,283,0,1,,,,,
,,361549,001,2023-07-23_12h01.44.621,arm3_q,2022.2.5,MacIntel,58.82352941,right,-1,0.05,0.35,4,-0.133735006,0.163,,,,,,284,0,284,0,1,,,,,
,,361549,001,2023-07-23_12h01.44.621,arm3_q,2022.2.5,MacIntel,58.82352941,right,-1,0.05,0.35,4,-0.136778563,0.165,,,,,,285,0,285,0,1,,,,,
,,361549,001,2023-07-23_12h01.44.621,arm3_q,2022.2.5,MacIntel,58.82352941,down,1,0.05,0.35,4,0,0.344,,,,,,286,0,286,0,1,,,,,
,,361549,001,2023-07-23_12h01.44.621,arm3_q,2022.2.5,MacIntel,58.82352941,right,1,0.05,0.35,4,0.019643791,0.781,,,,,,287,0,287,0,1,,,,,
,,361549,001,2023-07-23_12h01.44.621,arm3_q,2022.2.5,MacIntel,58.82352941,right,1,0.05,0.35,4,0.048006443,0.195,,,,,,288,0,288,0,1,,,,,
,,361549,001,2023-07-23_12h01.44.621,arm3_q,2022.2.5,MacIntel,58.82352941,right,1,0.05,0.35,4,0.059436377,0.161,,,,,,289,0,289,0,1,,,,,
,,361549,001,2023-07-23_12h01.44.621,arm3_q,2022.2.5,MacIntel,58.82352941,right,1,0.05,0.35,4,0.074755884,0.182,,,,,,290,0,290,0,1,,,,,
,,361549,001,2023-07-23_12h01.44.621,arm3_q,2022.2.5,MacIntel,58.82352941,right,1,0.05,0.35,4,0.113508925,0.18,,,,,,291,0,291,0,1,,,,,
,,361549,001,2023-07-23_12h01.44.621,arm3_q,2022.2.5,MacIntel,58.82352941,right,1,0.05,0.35,4,0.153002218,0.179,,,,,,292,0,292,0,1,,,,,
,,361549,001,2023-07-23_12h01.44.621,arm3_q,2022.2.5,MacIntel,58.82352941,right,1,0.05,0.35,4,0.156632798,0.149,,,,,,293,0,293,0,1,,,,,
,,361549,001,2023-07-23_12h01.44.621,arm3_q,2022.2.5,MacIntel,58.82352941,right,1,0.05,0.35,4,0.179853332,0.154,,,,,,294,0,294,0,1,,,,,
,,361549,001,2023-07-23_12h01.44.621,arm3_q,2022.2.5,MacIntel,58.82352941,right,1,0.05,0.35,4,0.19188254,0.179,,,,,,295,0,295,0,1,,,,,
,,361549,001,2023-07-23_12h01.44.621,arm3_q,2022.2.5,MacIntel,58.82352941,up,1,0.05,0.35,4,0,0.265,,,,,,296,0,296,0,1,,,,,
,,361549,001,2023-07-23_12h01.44.621,arm3_q,2022.2.5,MacIntel,58.82352941,right,1,0.05,0.35,4,0.012197498,0.56,,,,,,297,0,297,0,1,,,,,
