space_bar.keys,space_bar.rt,participant,session,date,expName,psychopyVersion,OS,frameRate,PROLIFIC_PID,STUDY_ID,SESSION_ID,resp.keys,state,q_prob,eps_prob,score,price,resp.rt,train.thisRepN,train.thisTrialN,train.thisN,train.thisIndex,train.ran,steps.thisRepN,steps.thisTrialN,steps.thisN,steps.thisIndex,steps.ran,blocks.thisRepN,blocks.thisTrialN,blocks.thisN,blocks.thisIndex,blocks.ran
space,13.867,433660,001,2023-07-24_12h58.38.300,arm3_q,2022.2.5,Win32,9.998900121,60e4a5d4b0e40567e60146e4,64aeaab685a29f4ca249be02,64bec9d4550679f6de2a3689,,,,,,,,,,,,,,,,,,,,,,
space,16.7669,433660,001,2023-07-24_12h58.38.300,arm3_q,2022.2.5,Win32,9.998900121,60e4a5d4b0e40567e60146e4,64aeaab685a29f4ca249be02,64bec9d4550679f6de2a3689,,,,,,,,,,,,,,,,,,,,,,
space,9.4729,433660,001,2023-07-24_12h58.38.300,arm3_q,2022.2.5,Win32,9.998900121,60e4a5d4b0e40567e60146e4,64aeaab685a29f4ca249be02,64bec9d4550679f6de2a3689,,,,,,,,,,,,,,,,,,,,,,
space,12.3757,433660,001,2023-07-24_12h58.38.300,arm3_q,2022.2.5,Win32,9.998900121,60e4a5d4b0e40567e60146e4,64aeaab685a29f4ca249be02,64bec9d4550679f6de2a3689,,,,,,,,,,,,,,,,,,,,,,
space,13.4066,433660,001,2023-07-24_12h58.38.300,arm3_q,2022.2.5,Win32,9.998900121,60e4a5d4b0e40567e60146e4,64aeaab685a29f4ca249be02,64bec9d4550679f6de2a3689,,,,,,,,,,,,,,,,,,,,,,
space,15.665,433660,001,2023-07-24_12h58.38.300,arm3_q,2022.2.5,Win32,9.998900121,60e4a5d4b0e40567e60146e4,64aeaab685a29f4ca249be02,64bec9d4550679f6de2a3689,,,,,,,,,,,,,,,,,,,,,,
space,12.5463,433660,001,2023-07-24_12h58.38.300,arm3_q,2022.2.5,Win32,9.998900121,60e4a5d4b0e40567e60146e4,64aeaab685a29f4ca249be02,64bec9d4550679f6de2a3689,,,,,,,,,,,,,,,,,,,,,,
space,8.2956,433660,001,2023-07-24_12h58.38.300,arm3_q,2022.2.5,Win32,9.998900121,60e4a5d4b0e40567e60146e4,64aeaab685a29f4ca249be02,64bec9d4550679f6de2a3689,,,,,,,,,,,,,,,,,,,,,,
space,8.8027,433660,001,2023-07-24_12h58.38.300,arm3_q,2022.2.5,Win32,9.998900121,60e4a5d4b0e40567e60146e4,64aeaab685a29f4ca249be02,64bec9d4550679f6de2a3689,,,,,,,,,,,,,,,,,,,,,,
space,5.4275,433660,001,2023-07-24_12h58.38.300,arm3_q,2022.2.5,Win32,9.998900121,60e4a5d4b0e40567e60146e4,64aeaab685a29f4ca249be02,64bec9d4550679f6de2a3689,,,,,,,,,,,,,,,,,,,,,,
,,433660,001,2023-07-24_12h58.38.300,arm3_q,2022.2.5,Win32,9.998900121,60e4a5d4b0e40567e60146e4,64aeaab685a29f4ca249be02,64bec9d4550679f6de2a3689,right,1,0.5643,0.35,0,-0.005466615,2.8446,0,0,0,0,1,,,,,,,,,,
,,433660,001,2023-07-24_12h58.38.300,arm3_q,2022.2.5,Win32,9.998900121,60e4a5d4b0e40567e60146e4,64aeaab685a29f4ca249be02,64bec9d4550679f6de2a3689,right,1,0.5643,0.35,0,-0.004162258,0.7193,1,0,1,0,1,,,,,,,,,,
,,433660,001,2023-07-24_12h58.38.300,arm3_q,2022.2.5,Win32,9.998900121,60e4a5d4b0e40567e60146e4,64aeaab685a29f4ca249be02,64bec9d4550679f6de2a3689,right,1,0.5643,0.35,0,-0.019783577,0.8514,2,0,2,0,1,,,,,,,,,,
,,433660,001,2023-07-24_12h58.38.300,arm3_q,2022.2.5,Win32,9.998900121,60e4a5d4b0e40567e60146e4,64aeaab685a29f4ca249be02,64bec9d4550679f6de2a3689,right,1,0.5643,0.35,0,-0.011227786,0.8502,3,0,3,0,1,,,,,,,,,,
,,433660,001,2023-07-24_12h58.38.300,arm3_q,2022.2.5,Win32,9.998900121,60e4a5d4b0e40567e60146e4,64aeaab685a29f4ca249be02,64bec9d4550679f6de2a3689,right,1,0.5643,0.35,0,-0.001075699,1.0035,4,0,4,0,1,,,,,,,,,,
,,433660,001,2023-07-24_12h58.38.300,arm3_q,2022.2.5,Win32,9.998900121,60e4a5d4b0e40567e60146e4,64aeaab685a29f4ca249be02,64bec9d4550679f6de2a3689,right,1,0.5643,0.35,0,-0.006874089,1.0134,5,0,5,0,1,,,,,,,,,,
,,433660,001,2023-07-24_12h58.38.300,arm3_q,2022.2.5,Win32,9.998900121,60e4a5d4b0e40567e60146e4,64aeaab685a29f4ca249be02,64bec9d4550679f6de2a3689,right,1,0.5643,0.35,0,0.036689493,0.8489,6,0,6,0,1,,,,,,,,,,
,,433660,001,2023-07-24_12h58.38.300,arm3_q,2022.2.5,Win32,9.998900121,60e4a5d4b0e40567e60146e4,64aeaab685a29f4ca249be02,64bec9d4550679f6de2a3689,right,1,0.5643,0.35,0,0.07386141,0.7272,7,0,7,0,1,,,,,,,,,,
,,433660,001,2023-07-24_12h58.38.300,arm3_q,2022.2.5,Win32,9.998900121,60e4a5d4b0e40567e60146e4,64aeaab685a29f4ca249be02,64bec9d4550679f6de2a3689,right,1,0.5643,0.35,0,0.064390186,0.8382,8,0,8,0,1,,,,,,,,,,
,,433660,001,2023-07-24_12h58.38.300,arm3_q,2022.2.5,Win32,9.998900121,60e4a5d4b0e40567e60146e4,64aeaab685a29f4ca249be02,64bec9d4550679f6de2a3689,right,1,0.5643,0.35,0,0.072285841,0.8609,9,0,9,0,1,,,,,,,,,,
,,433660,001,2023-07-24_12h58.38.300,arm3_q,2022.2.5,Win32,9.998900121,60e4a5d4b0e40567e60146e4,64aeaab685a29f4ca249be02,64bec9d4550679f6de2a3689,right,1,0.5643,0.35,0,0.092744986,1.1356,10,0,10,0,1,,,,,,,,,,
,,433660,001,2023-07-24_12h58.38.300,arm3_q,2022.2.5,Win32,9.998900121,60e4a5d4b0e40567e60146e4,64aeaab685a29f4ca249be02,64bec9d4550679f6de2a3689,up,1,0.5643,0.35,0,0,0.8684,11,0,11,0,1,,,,,,,,,,
,,433660,001,2023-07-24_12h58.38.300,arm3_q,2022.2.5,Win32,9.998900121,60e4a5d4b0e40567e60146e4,64aeaab685a29f4ca249be02,64bec9d4550679f6de2a3689,right,1,0.5643,0.35,0,0.008025092,1.4411,12,0,12,0,1,,,,,,,,,,
,,433660,001,2023-07-24_12h58.38.300,arm3_q,2022.2.5,Win32,9.998900121,60e4a5d4b0e40567e60146e4,64aeaab685a29f4ca249be02,64bec9d4550679f6de2a3689,right,1,0.5643,0.35,0,0.024863252,0.4499,13,0,13,0,1,,,,,,,,,,
,,433660,001,2023-07-24_12h58.38.300,arm3_q,2022.2.5,Win32,9.998900121,60e4a5d4b0e40567e60146e4,64aeaab685a29f4ca249be02,64bec9d4550679f6de2a3689,right,1,0.5643,0.35,0,0.037740209,0.5035,14,0,14,0,1,,,,,,,,,,
,,433660,001,2023-07-24_12h58.38.300,arm3_q,2022.2.5,Win32,9.998900121,60e4a5d4b0e40567e60146e4,64aeaab685a29f4ca249be02,64bec9d4550679f6de2a3689,right,1,0.5643,0.35,0,0.062866763,0.4585,15,0,15,0,1,,,,,,,,,,
,,433660,001,2023-07-24_12h58.38.300,arm3_q,2022.2.5,Win32,9.998900121,60e4a5d4b0e40567e60146e4,64aeaab685a29f4ca249be02,64bec9d4550679f6de2a3689,right,1,0.5643,0.35,0,0.067509431,0.4496,16,0,16,0,1,,,,,,,,,,
,,433660,001,2023-07-24_12h58.38.300,arm3_q,2022.2.5,Win32,9.998900121,60e4a5d4b0e40567e60146e4,64aeaab685a29f4ca249be02,64bec9d4550679f6de2a3689,right,1,0.5643,0.35,0,0.087467932,0.4354,17,0,17,0,1,,,,,,,,,,
,,433660,001,2023-07-24_12h58.38.300,arm3_q,2022.2.5,Win32,9.998900121,60e4a5d4b0e40567e60146e4,64aeaab685a29f4ca249be02,64bec9d4550679f6de2a3689,right,1,0.5643,0.35,0,0.103833922,0.4271,18,0,18,0,1,,,,,,,,,,
,,433660,001,2023-07-24_12h58.38.300,arm3_q,2022.2.5,Win32,9.998900121,60e4a5d4b0e40567e60146e4,64aeaab685a29f4ca249be02,64bec9d4550679f6de2a3689,right,1,0.5643,0.35,0,0.122279311,0.4392,19,0,19,0,1,,,,,,,,,,
,,433660,001,2023-07-24_12h58.38.300,arm3_q,2022.2.5,Win32,9.998900121,60e4a5d4b0e40567e60146e4,64aeaab685a29f4ca249be02,64bec9d4550679f6de2a3689,up,-1,0.5643,0.35,1,0,0.4569,20,0,20,0,1,,,,,,,,,,
,,433660,001,2023-07-24_12h58.38.300,arm3_q,2022.2.5,Win32,9.998900121,60e4a5d4b0e40567e60146e4,64aeaab685a29f4ca249be02,64bec9d4550679f6de2a3689,right,-1,0.5643,0.35,1,-0.008267157,0.7044,21,0,21,0,1,,,,,,,,,,
,,433660,001,2023-07-24_12h58.38.300,arm3_q,2022.2.5,Win32,9.998900121,60e4a5d4b0e40567e60146e4,64aeaab685a29f4ca249be02,64bec9d4550679f6de2a3689,right,-1,0.5643,0.35,1,-0.009496336,0.3082,22,0,22,0,1,,,,,,,,,,
,,433660,001,2023-07-24_12h58.38.300,arm3_q,2022.2.5,Win32,9.998900121,60e4a5d4b0e40567e60146e4,64aeaab685a29f4ca249be02,64bec9d4550679f6de2a3689,right,-1,0.5643,0.35,1,-0.035550693,0.4257,23,0,23,0,1,,,,,,,,,,
,,433660,001,2023-07-24_12h58.38.300,arm3_q,2022.2.5,Win32,9.998900121,60e4a5d4b0e40567e60146e4,64aeaab685a29f4ca249be02,64bec9d4550679f6de2a3689,right,-1,0.5643,0.35,1,-0.030808839,0.4357,24,0,24,0,1,,,,,,,,,,
,,433660,001,2023-07-24_12h58.38.300,arm3_q,2022.2.5,Win32,9.998900121,60e4a5d4b0e40567e60146e4,64aeaab685a29f4ca249be02,64bec9d4550679f6de2a3689,right,-1,0.5643,0.35,1,-0.065841901,0.4404,25,0,25,0,1,,,,,,,,,,
,,433660,001,2023-07-24_12h58.38.300,arm3_q,2022.2.5,Win32,9.998900121,60e4a5d4b0e40567e60146e4,64aeaab685a29f4ca249be02,64bec9d4550679f6de2a3689,right,-1,0.5643,0.35,1,-0.054225067,0.5875,26,0,26,0,1,,,,,,,,,,
,,433660,001,2023-07-24_12h58.38.300,arm3_q,2022.2.5,Win32,9.998900121,60e4a5d4b0e40567e60146e4,64aeaab685a29f4ca249be02,64bec9d4550679f6de2a3689,right,-1,0.5643,0.35,1,-0.063959334,0.4242,27,0,27,0,1,,,,,,,,,,
,,433660,001,2023-07-24_12h58.38.300,arm3_q,2022.2.5,Win32,9.998900121,60e4a5d4b0e40567e60146e4,64aeaab685a29f4ca249be02,64bec9d4550679f6de2a3689,right,-1,0.5643,0.35,1,-0.071687975,0.4338,28,0,28,0,1,,,,,,,,,,
,,433660,001,2023-07-24_12h58.38.300,arm3_q,2022.2.5,Win32,9.998900121,60e4a5d4b0e40567e60146e4,64aeaab685a29f4ca249be02,64bec9d4550679f6de2a3689,down,-1,0.5643,0.35,2,0,0.4386,29,0,29,0,1,,,,,,,,,,
,,433660,001,2023-07-24_12h58.38.300,arm3_q,2022.2.5,Win32,9.998900121,60e4a5d4b0e40567e60146e4,64aeaab685a29f4ca249be02,64bec9d4550679f6de2a3689,right,-1,0.5643,0.35,2,-0.014667555,0.7081,30,0,30,0,1,,,,,,,,,,
,,433660,001,2023-07-24_12h58.38.300,arm3_q,2022.2.5,Win32,9.998900121,60e4a5d4b0e40567e60146e4,64aeaab685a29f4ca249be02,64bec9d4550679f6de2a3689,right,-1,0.5643,0.35,2,-0.008265141,0.3026,31,0,31,0,1,,,,,,,,,,
,,433660,001,2023-07-24_12h58.38.300,arm3_q,2022.2.5,Win32,9.998900121,60e4a5d4b0e40567e60146e4,64aeaab685a29f4ca249be02,64bec9d4550679f6de2a3689,right,-1,0.5643,0.35,2,-0.023325505,0.5755,32,0,32,0,1,,,,,,,,,,
,,433660,001,2023-07-24_12h58.38.300,arm3_q,2022.2.5,Win32,9.998900121,60e4a5d4b0e40567e60146e4,64aeaab685a29f4ca249be02,64bec9d4550679f6de2a3689,right,-1,0.5643,0.35,2,-0.02018288,0.4435,33,0,33,0,1,,,,,,,,,,
,,433660,001,2023-07-24_12h58.38.300,arm3_q,2022.2.5,Win32,9.998900121,60e4a5d4b0e40567e60146e4,64aeaab685a29f4ca249be02,64bec9d4550679f6de2a3689,right,-1,0.5643,0.35,2,-0.049717097,0.4428,34,0,34,0,1,,,,,,,,,,
,,433660,001,2023-07-24_12h58.38.300,arm3_q,2022.2.5,Win32,9.998900121,60e4a5d4b0e40567e60146e4,64aeaab685a29f4ca249be02,64bec9d4550679f6de2a3689,right,-1,0.5643,0.35,2,-0.056739051,0.5893,35,0,35,0,1,,,,,,,,,,
,,433660,001,2023-07-24_12h58.38.300,arm3_q,2022.2.5,Win32,9.998900121,60e4a5d4b0e40567e60146e4,64aeaab685a29f4ca249be02,64bec9d4550679f6de2a3689,right,-1,0.5643,0.35,2,-0.065855733,0.4341,36,0,36,0,1,,,,,,,,,,
,,433660,001,2023-07-24_12h58.38.300,arm3_q,2022.2.5,Win32,9.998900121,60e4a5d4b0e40567e60146e4,64aeaab685a29f4ca249be02,64bec9d4550679f6de2a3689,right,-1,0.5643,0.35,2,-0.068216277,0.7444,37,0,37,0,1,,,,,,,,,,
,,433660,001,2023-07-24_12h58.38.300,arm3_q,2022.2.5,Win32,9.998900121,60e4a5d4b0e40567e60146e4,64aeaab685a29f4ca249be02,64bec9d4550679f6de2a3689,right,-1,0.5643,0.35,2,-0.071331343,0.6231,38,0,38,0,1,,,,,,,,,,
,,433660,001,2023-07-24_12h58.38.300,arm3_q,2022.2.5,Win32,9.998900121,60e4a5d4b0e40567e60146e4,64aeaab685a29f4ca249be02,64bec9d4550679f6de2a3689,down,1,0.5643,0.35,3,0,0.4596,39,0,39,0,1,,,,,,,,,,
,,433660,001,2023-07-24_12h58.38.300,arm3_q,2022.2.5,Win32,9.998900121,60e4a5d4b0e40567e60146e4,64aeaab685a29f4ca249be02,64bec9d4550679f6de2a3689,right,1,0.5643,0.35,3,0.010538877,0.5855,40,0,40,0,1,,,,,,,,,,
,,433660,001,2023-07-24_12h58.38.300,arm3_q,2022.2.5,Win32,9.998900121,60e4a5d4b0e40567e60146e4,64aeaab685a29f4ca249be02,64bec9d4550679f6de2a3689,right,1,0.5643,0.35,3,0.050437547,0.603,41,0,41,0,1,,,,,,,,,,
,,433660,001,2023-07-24_12h58.38.300,arm3_q,2022.2.5,Win32,9.998900121,60e4a5d4b0e40567e60146e4,64aeaab685a29f4ca249be02,64bec9d4550679f6de2a3689,right,1,0.5643,0.35,3,0.059490863,0.4359,42,0,42,0,1,,,,,,,,,,
,,433660,001,2023-07-24_12h58.38.300,arm3_q,2022.2.5,Win32,9.998900121,60e4a5d4b0e40567e60146e4,64aeaab685a29f4ca249be02,64bec9d4550679f6de2a3689,right,1,0.5643,0.35,3,0.060345443,0.5719,43,0,43,0,1,,,,,,,,,,
,,433660,001,2023-07-24_12h58.38.300,arm3_q,2022.2.5,Win32,9.998900121,60e4a5d4b0e40567e60146e4,64aeaab685a29f4ca249be02,64bec9d4550679f6de2a3689,right,1,0.5643,0.35,3,0.058908541,0.5855,44,0,44,0,1,,,,,,,,,,
,,433660,001,2023-07-24_12h58.38.300,arm3_q,2022.2.5,Win32,9.998900121,60e4a5d4b0e40567e60146e4,64aeaab685a29f4ca249be02,64bec9d4550679f6de2a3689,right,1,0.5643,0.35,3,0.079660287,0.5792,45,0,45,0,1,,,,,,,,,,
,,433660,001,2023-07-24_12h58.38.300,arm3_q,2022.2.5,Win32,9.998900121,60e4a5d4b0e40567e60146e4,64aeaab685a29f4ca249be02,64bec9d4550679f6de2a3689,up,-1,0.5643,0.35,4,0,0.7253,46,0,46,0,1,,,,,,,,,,
,,433660,001,2023-07-24_12h58.38.300,arm3_q,2022.2.5,Win32,9.998900121,60e4a5d4b0e40567e60146e4,64aeaab685a29f4ca249be02,64bec9d4550679f6de2a3689,right,-1,0.5643,0.35,4,-0.015530488,0.7166,47,0,47,0,1,,,,,,,,,,
,,433660,001,2023-07-24_12h58.38.300,arm3_q,2022.2.5,Win32,9.998900121,60e4a5d4b0e40567e60146e4,64aeaab685a29f4ca249be02,64bec9d4550679f6de2a3689,right,-1,0.5643,0.35,4,-0.000486662,0.4416,48,0,48,0,1,,,,,,,,,,
,,433660,001,2023-07-24_12h58.38.300,arm3_q,2022.2.5,Win32,9.998900121,60e4a5d4b0e40567e60146e4,64aeaab685a29f4ca249be02,64bec9d4550679f6de2a3689,right,-1,0.5643,0.35,4,0.00275862,0.4372,49,0,49,0,1,,,,,,,,,,
space,7.506,433660,001,2023-07-24_12h58.38.300,arm3_q,2022.2.5,Win32,9.998900121,60e4a5d4b0e40567e60146e4,64aeaab685a29f4ca249be02,64bec9d4550679f6de2a3689,,,,,,,,,,,,,,,,,,,,,,
space,2.5161,433660,001,2023-07-24_12h58.38.300,arm3_q,2022.2.5,Win32,9.998900121,60e4a5d4b0e40567e60146e4,64aeaab685a29f4ca249be02,64bec9d4550679f6de2a3689,right,-1,0.3071,0.35,0,-0.015158064,3.7116,,,,,,0,0,0,0,1,,,,,
,,433660,001,2023-07-24_12h58.38.300,arm3_q,2022.2.5,Win32,9.998900121,60e4a5d4b0e40567e60146e4,64aeaab685a29f4ca249be02,64bec9d4550679f6de2a3689,right,-1,0.3071,0.35,0,-0.004273239,0.575,,,,,,1,0,1,0,1,,,,,
,,433660,001,2023-07-24_12h58.38.300,arm3_q,2022.2.5,Win32,9.998900121,60e4a5d4b0e40567e60146e4,64aeaab685a29f4ca249be02,64bec9d4550679f6de2a3689,right,-1,0.3071,0.35,0,-0.045200065,0.5609,,,,,,2,0,2,0,1,,,,,
,,433660,001,2023-07-24_12h58.38.300,arm3_q,2022.2.5,Win32,9.998900121,60e4a5d4b0e40567e60146e4,64aeaab685a29f4ca249be02,64bec9d4550679f6de2a3689,right,-1,0.3071,0.35,0,-0.071184086,0.5925,,,,,,3,0,3,0,1,,,,,
,,433660,001,2023-07-24_12h58.38.300,arm3_q,2022.2.5,Win32,9.998900121,60e4a5d4b0e40567e60146e4,64aeaab685a29f4ca249be02,64bec9d4550679f6de2a3689,right,-1,0.3071,0.35,0,-0.088169523,0.5883,,,,,,4,0,4,0,1,,,,,
,,433660,001,2023-07-24_12h58.38.300,arm3_q,2022.2.5,Win32,9.998900121,60e4a5d4b0e40567e60146e4,64aeaab685a29f4ca249be02,64bec9d4550679f6de2a3689,right,-1,0.3071,0.35,0,-0.097974524,0.7259,,,,,,5,0,5,0,1,,,,,
,,433660,001,2023-07-24_12h58.38.300,arm3_q,2022.2.5,Win32,9.998900121,60e4a5d4b0e40567e60146e4,64aeaab685a29f4ca249be02,64bec9d4550679f6de2a3689,right,-1,0.3071,0.35,0,-0.101328819,0.5908,,,,,,6,0,6,0,1,,,,,
,,433660,001,2023-07-24_12h58.38.300,arm3_q,2022.2.5,Win32,9.998900121,60e4a5d4b0e40567e60146e4,64aeaab685a29f4ca249be02,64bec9d4550679f6de2a3689,right,-1,0.3071,0.35,0,-0.145142185,0.5667,,,,,,7,0,7,0,1,,,,,
,,433660,001,2023-07-24_12h58.38.300,arm3_q,2022.2.5,Win32,9.998900121,60e4a5d4b0e40567e60146e4,64aeaab685a29f4ca249be02,64bec9d4550679f6de2a3689,down,1,0.3071,0.35,0,0,0.8485,,,,,,8,0,8,0,1,,,,,
,,433660,001,2023-07-24_12h58.38.300,arm3_q,2022.2.5,Win32,9.998900121,60e4a5d4b0e40567e60146e4,64aeaab685a29f4ca249be02,64bec9d4550679f6de2a3689,right,1,0.3071,0.35,0,0.040022611,0.8445,,,,,,9,0,9,0,1,,,,,
,,433660,001,2023-07-24_12h58.38.300,arm3_q,2022.2.5,Win32,9.998900121,60e4a5d4b0e40567e60146e4,64aeaab685a29f4ca249be02,64bec9d4550679f6de2a3689,right,1,0.3071,0.35,0,0.01751896,0.5854,,,,,,10,0,10,0,1,,,,,
,,433660,001,2023-07-24_12h58.38.300,arm3_q,2022.2.5,Win32,9.998900121,60e4a5d4b0e40567e60146e4,64aeaab685a29f4ca249be02,64bec9d4550679f6de2a3689,right,1,0.3071,0.35,0,0.029407787,0.4431,,,,,,11,0,11,0,1,,,,,
,,433660,001,2023-07-24_12h58.38.300,arm3_q,2022.2.5,Win32,9.998900121,60e4a5d4b0e40567e60146e4,64aeaab685a29f4ca249be02,64bec9d4550679f6de2a3689,right,1,0.3071,0.35,0,0.005305818,0.5832,,,,,,12,0,12,0,1,,,,,
,,433660,001,2023-07-24_12h58.38.300,arm3_q,2022.2.5,Win32,9.998900121,60e4a5d4b0e40567e60146e4,64aeaab685a29f4ca249be02,64bec9d4550679f6de2a3689,right,1,0.3071,0.35,0,0.036306052,0.5848,,,,,,13,0,13,0,1,,,,,
,,433660,001,2023-07-24_12h58.38.300,arm3_q,2022.2.5,Win32,9.998900121,60e4a5d4b0e40567e60146e4,64aeaab685a29f4ca249be02,64bec9d4550679f6de2a3689,right,1,0.3071,0.35,0,0.075616815,0.4383,,,,,,14,0,14,0,1,,,,,
,,433660,001,2023-07-24_12h58.38.300,arm3_q,2022.2.5,Win32,9.998900121,60e4a5d4b0e40567e60146e4,64aeaab685a29f4ca249be02,64bec9d4550679f6de2a3689,up,-1,0.3071,0.35,0,0,0.7222,,,,,,15,0,15,0,1,,,,,
,,433660,001,2023-07-24_12h58.38.300,arm3_q,2022.2.5,Win32,9.998900121,60e4a5d4b0e40567e60146e4,64aeaab685a29f4ca249be02,64bec9d4550679f6de2a3689,right,-1,0.3071,0.35,0,-0.009863455,0.5814,,,,,,16,0,16,0,1,,,,,
,,433660,001,2023-07-24_12h58.38.300,arm3_q,2022.2.5,Win32,9.998900121,60e4a5d4b0e40567e60146e4,64aeaab685a29f4ca249be02,64bec9d4550679f6de2a3689,right,-1,0.3071,0.35,0,-0.033318753,0.5809,,,,,,17,0,17,0,1,,,,,
,,433660,001,2023-07-24_12h58.38.300,arm3_q,2022.2.5,Win32,9.998900121,60e4a5d4b0e40567e60146e4,64aeaab685a29f4ca249be02,64bec9d4550679f6de2a3689,right,-1,0.3071,0.35,0,-0.063525686,0.4392,,,,,,18,0,18,0,1,,,,,
,,433660,001,2023-07-24_12h58.38.300,arm3_q,2022.2.5,Win32,9.998900121,60e4a5d4b0e40567e60146e4,64aeaab685a29f4ca249be02,64bec9d4550679f6de2a3689,right,-1,0.3071,0.35,0,-0.098735401,0.588,,,,,,19,0,19,0,1,,,,,
,,433660,001,2023-07-24_12h58.38.300,arm3_q,2022.2.5,Win32,9.998900121,60e4a5d4b0e40567e60146e4,64aeaab685a29f4ca249be02,64bec9d4550679f6de2a3689,down,-1,0.3071,0.35,0,0,0.5774,,,,,,20,0,20,0,1,,,,,
,,433660,001,2023-07-24_12h58.38.300,arm3_q,2022.2.5,Win32,9.998900121,60e4a5d4b0e40567e60146e4,64aeaab685a29f4ca249be02,64bec9d4550679f6de2a3689,right,-1,0.3071,0.35,0,-0.020611874,0.555,,,,,,21,0,21,0,1,,,,,
,,433660,001,2023-07-24_12h58.38.300,arm3_q,2022.2.5,Win32,9.998900121,60e4a5d4b0e40567e60146e4,64aeaab685a29f4ca249be02,64bec9d4550679f6de2a3689,right,-1,0.3071,0.35,0,-0.011248403,0.4367,,,,,,22,0,22,0,1,,,,,
,,433660,001,2023-07-24_12h58.38.300,arm3_q,2022.2.5,Win32,9.998900121,60e4a5d4b0e40567e60146e4,64aeaab685a29f4ca249be02,64bec9d4550679f6de2a3689,right,-1,0.3071,0.35,0,-0.007476279,0.5806,,,,,,23,0,23,0,1,,,,,
,,433660,001,2023-07-24_12h58.38.300,arm3_q,2022.2.5,Win32,9.998900121,60e4a5d4b0e40567e60146e4,64aeaab685a29f4ca249be02,64bec9d4550679f6de2a3689,right,-1,0.3071,0.35,0,-0.038400621,0.5819,,,,,,24,0,24,0,1,,,,,
,,433660,001,2023-07-24_12h58.38.300,arm3_q,2022.2.5,Win32,9.998900121,60e4a5d4b0e40567e60146e4,64aeaab685a29f4ca249be02,64bec9d4550679f6de2a3689,right,-1,0.3071,0.35,0,-0.050576714,0.4419,,,,,,25,0,25,0,1,,,,,
,,433660,001,2023-07-24_12h58.38.300,arm3_q,2022.2.5,Win32,9.998900121,60e4a5d4b0e40567e60146e4,64aeaab685a29f4ca249be02,64bec9d4550679f6de2a3689,right,-1,0.3071,0.35,0,-0.066367705,0.5807,,,,,,26,0,26,0,1,,,,,
,,433660,001,2023-07-24_12h58.38.300,arm3_q,2022.2.5,Win32,9.998900121,60e4a5d4b0e40567e60146e4,64aeaab685a29f4ca249be02,64bec9d4550679f6de2a3689,down,-1,0.3071,0.35,1,0,0.7145,,,,,,27,0,27,0,1,,,,,
,,433660,001,2023-07-24_12h58.38.300,arm3_q,2022.2.5,Win32,9.998900121,60e4a5d4b0e40567e60146e4,64aeaab685a29f4ca249be02,64bec9d4550679f6de2a3689,right,-1,0.3071,0.35,1,-0.009798676,0.7222,,,,,,28,0,28,0,1,,,,,
,,433660,001,2023-07-24_12h58.38.300,arm3_q,2022.2.5,Win32,9.998900121,60e4a5d4b0e40567e60146e4,64aeaab685a29f4ca249be02,64bec9d4550679f6de2a3689,right,-1,0.3071,0.35,1,-0.0242432,0.5733,,,,,,29,0,29,0,1,,,,,
,,433660,001,2023-07-24_12h58.38.300,arm3_q,2022.2.5,Win32,9.998900121,60e4a5d4b0e40567e60146e4,64aeaab685a29f4ca249be02,64bec9d4550679f6de2a3689,right,-1,0.3071,0.35,1,-0.032392838,0.431,,,,,,30,0,30,0,1,,,,,
,,433660,001,2023-07-24_12h58.38.300,arm3_q,2022.2.5,Win32,9.998900121,60e4a5d4b0e40567e60146e4,64aeaab685a29f4ca249be02,64bec9d4550679f6de2a3689,right,-1,0.3071,0.35,1,-0.03459525,0.5857,,,,,,31,0,31,0,1,,,,,
,,433660,001,2023-07-24_12h58.38.300,arm3_q,2022.2.5,Win32,9.998900121,60e4a5d4b0e40567e60146e4,64aeaab685a29f4ca249be02,64bec9d4550679f6de2a3689,right,-1,0.3071,0.35,1,-0.057991172,0.5732,,,,,,32,0,32,0,1,,,,,
,,433660,001,2023-07-24_12h58.38.300,arm3_q,2022.2.5,Win32,9.998900121,60e4a5d4b0e40567e60146e4,64aeaab685a29f4ca249be02,64bec9d4550679f6de2a3689,right,-1,0.3071,0.35,1,-0.098952181,0.438,,,,,,33,0,33,0,1,,,,,
,,433660,001,2023-07-24_12h58.38.300,arm3_q,2022.2.5,Win32,9.998900121,60e4a5d4b0e40567e60146e4,64aeaab685a29f4ca249be02,64bec9d4550679f6de2a3689,down,1,0.3071,0.35,2,0,0.5727,,,,,,34,0,34,0,1,,,,,
,,433660,001,2023-07-24_12h58.38.300,arm3_q,2022.2.5,Win32,9.998900121,60e4a5d4b0e40567e60146e4,64aeaab685a29f4ca249be02,64bec9d4550679f6de2a3689,right,1,0.3071,0.35,2,0.028557528,0.5706,,,,,,35,0,35,0,1,,,,,
,,433660,001,2023-07-24_12h58.38.300,arm3_q,2022.2.5,Win32,9.998900121,60e4a5d4b0e40567e60146e4,64aeaab685a29f4ca249be02,64bec9d4550679f6de2a3689,right,1,0.3071,0.35,2,0.060443925,0.5745,,,,,,36,0,36,0,1,,,,,
,,433660,001,2023-07-24_12h58.38.300,arm3_q,2022.2.5,Win32,9.998900121,60e4a5d4b0e40567e60146e4,64aeaab685a29f4ca249be02,64bec9d4550679f6de2a3689,right,1,0.3071,0.35,2,0.081902671,0.4489,,,,,,37,0,37,0,1,,,,,
,,433660,001,2023-07-24_12h58.38.300,arm3_q,2022.2.5,Win32,9.998900121,60e4a5d4b0e40567e60146e4,64aeaab685a29f4ca249be02,64bec9d4550679f6de2a3689,right,1,0.3071,0.35,2,0.045708749,0.5727,,,,,,38,0,38,0,1,,,,,
,,433660,001,2023-07-24_12h58.38.300,arm3_q,2022.2.5,Win32,9.998900121,60e4a5d4b0e40567e60146e4,64aeaab685a29f4ca249be02,64bec9d4550679f6de2a3689,right,1,0.3071,0.35,2,0.066252316,0.5728,,,,,,39,0,39,0,1,,,,,
,,433660,001,2023-07-24_12h58.38.300,arm3_q,2022.2.5,Win32,9.998900121,60e4a5d4b0e40567e60146e4,64aeaab685a29f4ca249be02,64bec9d4550679f6de2a3689,right,1,0.3071,0.35,2,0.072794444,0.5783,,,,,,40,0,40,0,1,,,,,
,,433660,001,2023-07-24_12h58.38.300,arm3_q,2022.2.5,Win32,9.998900121,60e4a5d4b0e40567e60146e4,64aeaab685a29f4ca249be02,64bec9d4550679f6de2a3689,right,1,0.3071,0.35,2,0.111275319,0.5697,,,,,,41,0,41,0,1,,,,,
,,433660,001,2023-07-24_12h58.38.300,arm3_q,2022.2.5,Win32,9.998900121,60e4a5d4b0e40567e60146e4,64aeaab685a29f4ca249be02,64bec9d4550679f6de2a3689,up,-1,0.3071,0.35,2,0,0.4387,,,,,,42,0,42,0,1,,,,,
,,433660,001,2023-07-24_12h58.38.300,arm3_q,2022.2.5,Win32,9.998900121,60e4a5d4b0e40567e60146e4,64aeaab685a29f4ca249be02,64bec9d4550679f6de2a3689,right,-1,0.3071,0.35,2,0.034945363,0.5682,,,,,,43,0,43,0,1,,,,,
,,433660,001,2023-07-24_12h58.38.300,arm3_q,2022.2.5,Win32,9.998900121,60e4a5d4b0e40567e60146e4,64aeaab685a29f4ca249be02,64bec9d4550679f6de2a3689,right,-1,0.3071,0.35,2,0.031688172,0.4452,,,,,,44,0,44,0,1,,,,,
,,433660,001,2023-07-24_12h58.38.300,arm3_q,2022.2.5,Win32,9.998900121,60e4a5d4b0e40567e60146e4,64aeaab685a29f4ca249be02,64bec9d4550679f6de2a3689,right,-1,0.3071,0.35,2,0.038959043,0.7187,,,,,,45,0,45,0,1,,,,,
,,433660,001,2023-07-24_12h58.38.300,arm3_q,2022.2.5,Win32,9.998900121,60e4a5d4b0e40567e60146e4,64aeaab685a29f4ca249be02,64bec9d4550679f6de2a3689,right,-1,0.3071,0.35,2,0.005894345,0.7026,,,,,,46,0,46,0,1,,,,,
,,433660,001,2023-07-24_12h58.38.300,arm3_q,2022.2.5,Win32,9.998900121,60e4a5d4b0e40567e60146e4,64aeaab685a29f4ca249be02,64bec9d4550679f6de2a3689,right,-1,0.3071,0.35,2,0.005249797,0.4423,,,,,,47,0,47,0,1,,,,,
,,433660,001,2023-07-24_12h58.38.300,arm3_q,2022.2.5,Win32,9.998900121,60e4a5d4b0e40567e60146e4,64aeaab685a29f4ca249be02,64bec9d4550679f6de2a3689,right,-1,0.3071,0.35,2,-0.001670334,0.4324,,,,,,48,0,48,0,1,,,,,
,,433660,001,2023-07-24_12h58.38.300,arm3_q,2022.2.5,Win32,9.998900121,60e4a5d4b0e40567e60146e4,64aeaab685a29f4ca249be02,64bec9d4550679f6de2a3689,right,-1,0.3071,0.35,2,-0.025209275,0.4464,,,,,,49,0,49,0,1,,,,,
,,433660,001,2023-07-24_12h58.38.300,arm3_q,2022.2.5,Win32,9.998900121,60e4a5d4b0e40567e60146e4,64aeaab685a29f4ca249be02,64bec9d4550679f6de2a3689,right,-1,0.3071,0.35,2,-0.039748019,0.4488,,,,,,50,0,50,0,1,,,,,
,,433660,001,2023-07-24_12h58.38.300,arm3_q,2022.2.5,Win32,9.998900121,60e4a5d4b0e40567e60146e4,64aeaab685a29f4ca249be02,64bec9d4550679f6de2a3689,down,-1,0.3071,0.35,3,0,0.5718,,,,,,51,0,51,0,1,,,,,
,,433660,001,2023-07-24_12h58.38.300,arm3_q,2022.2.5,Win32,9.998900121,60e4a5d4b0e40567e60146e4,64aeaab685a29f4ca249be02,64bec9d4550679f6de2a3689,right,-1,0.3071,0.35,3,0.003736035,1.4216,,,,,,52,0,52,0,1,,,,,
,,433660,001,2023-07-24_12h58.38.300,arm3_q,2022.2.5,Win32,9.998900121,60e4a5d4b0e40567e60146e4,64aeaab685a29f4ca249be02,64bec9d4550679f6de2a3689,right,-1,0.3071,0.35,3,0.007040762,0.4431,,,,,,53,0,53,0,1,,,,,
,,433660,001,2023-07-24_12h58.38.300,arm3_q,2022.2.5,Win32,9.998900121,60e4a5d4b0e40567e60146e4,64aeaab685a29f4ca249be02,64bec9d4550679f6de2a3689,right,-1,0.3071,0.35,3,0.002432186,0.4254,,,,,,54,0,54,0,1,,,,,
,,433660,001,2023-07-24_12h58.38.300,arm3_q,2022.2.5,Win32,9.998900121,60e4a5d4b0e40567e60146e4,64aeaab685a29f4ca249be02,64bec9d4550679f6de2a3689,right,-1,0.3071,0.35,3,-0.004910506,0.5926,,,,,,55,0,55,0,1,,,,,
,,433660,001,2023-07-24_12h58.38.300,arm3_q,2022.2.5,Win32,9.998900121,60e4a5d4b0e40567e60146e4,64aeaab685a29f4ca249be02,64bec9d4550679f6de2a3689,right,-1,0.3071,0.35,3,-0.043770348,1.1551,,,,,,56,0,56,0,1,,,,,
,,433660,001,2023-07-24_12h58.38.300,arm3_q,2022.2.5,Win32,9.998900121,60e4a5d4b0e40567e60146e4,64aeaab685a29f4ca249be02,64bec9d4550679f6de2a3689,right,-1,0.3071,0.35,3,-0.089324494,0.7184,,,,,,57,0,57,0,1,,,,,
,,433660,001,2023-07-24_12h58.38.300,arm3_q,2022.2.5,Win32,9.998900121,60e4a5d4b0e40567e60146e4,64aeaab685a29f4ca249be02,64bec9d4550679f6de2a3689,down,1,0.3071,0.35,3,0,0.4345,,,,,,58,0,58,0,1,,,,,
,,433660,001,2023-07-24_12h58.38.300,arm3_q,2022.2.5,Win32,9.998900121,60e4a5d4b0e40567e60146e4,64aeaab685a29f4ca249be02,64bec9d4550679f6de2a3689,right,1,0.3071,0.35,3,0.015504397,0.56,,,,,,59,0,59,0,1,,,,,
,,433660,001,2023-07-24_12h58.38.300,arm3_q,2022.2.5,Win32,9.998900121,60e4a5d4b0e40567e60146e4,64aeaab685a29f4ca249be02,64bec9d4550679f6de2a3689,right,1,0.3071,0.35,3,0.008860409,0.5783,,,,,,60,0,60,0,1,,,,,
,,433660,001,2023-07-24_12h58.38.300,arm3_q,2022.2.5,Win32,9.998900121,60e4a5d4b0e40567e60146e4,64aeaab685a29f4ca249be02,64bec9d4550679f6de2a3689,right,1,0.3071,0.35,3,0.025869337,0.5738,,,,,,61,0,61,0,1,,,,,
,,433660,001,2023-07-24_12h58.38.300,arm3_q,2022.2.5,Win32,9.998900121,60e4a5d4b0e40567e60146e4,64aeaab685a29f4ca249be02,64bec9d4550679f6de2a3689,right,1,0.3071,0.35,3,0.055433805,0.5848,,,,,,62,0,62,0,1,,,,,
,,433660,001,2023-07-24_12h58.38.300,arm3_q,2022.2.5,Win32,9.998900121,60e4a5d4b0e40567e60146e4,64aeaab685a29f4ca249be02,64bec9d4550679f6de2a3689,up,-1,0.3071,0.35,3,0,0.7279,,,,,,63,0,63,0,1,,,,,
,,433660,001,2023-07-24_12h58.38.300,arm3_q,2022.2.5,Win32,9.998900121,60e4a5d4b0e40567e60146e4,64aeaab685a29f4ca249be02,64bec9d4550679f6de2a3689,right,-1,0.3071,0.35,3,0.016945983,0.5658,,,,,,64,0,64,0,1,,,,,
,,433660,001,2023-07-24_12h58.38.300,arm3_q,2022.2.5,Win32,9.998900121,60e4a5d4b0e40567e60146e4,64aeaab685a29f4ca249be02,64bec9d4550679f6de2a3689,right,-1,0.3071,0.35,3,-0.006928849,0.5798,,,,,,65,0,65,0,1,,,,,
,,433660,001,2023-07-24_12h58.38.300,arm3_q,2022.2.5,Win32,9.998900121,60e4a5d4b0e40567e60146e4,64aeaab685a29f4ca249be02,64bec9d4550679f6de2a3689,right,-1,0.3071,0.35,3,-0.00615026,0.5753,,,,,,66,0,66,0,1,,,,,
,,433660,001,2023-07-24_12h58.38.300,arm3_q,2022.2.5,Win32,9.998900121,60e4a5d4b0e40567e60146e4,64aeaab685a29f4ca249be02,64bec9d4550679f6de2a3689,right,-1,0.3071,0.35,3,-0.020667081,0.5747,,,,,,67,0,67,0,1,,,,,
,,433660,001,2023-07-24_12h58.38.300,arm3_q,2022.2.5,Win32,9.998900121,60e4a5d4b0e40567e60146e4,64aeaab685a29f4ca249be02,64bec9d4550679f6de2a3689,right,-1,0.3071,0.35,3,0.005658759,0.5695,,,,,,68,0,68,0,1,,,,,
,,433660,001,2023-07-24_12h58.38.300,arm3_q,2022.2.5,Win32,9.998900121,60e4a5d4b0e40567e60146e4,64aeaab685a29f4ca249be02,64bec9d4550679f6de2a3689,right,-1,0.3071,0.35,3,0.038048454,0.585,,,,,,69,0,69,0,1,,,,,
,,433660,001,2023-07-24_12h58.38.300,arm3_q,2022.2.5,Win32,9.998900121,60e4a5d4b0e40567e60146e4,64aeaab685a29f4ca249be02,64bec9d4550679f6de2a3689,right,-1,0.3071,0.35,3,0.029292905,0.5652,,,,,,70,0,70,0,1,,,,,
,,433660,001,2023-07-24_12h58.38.300,arm3_q,2022.2.5,Win32,9.998900121,60e4a5d4b0e40567e60146e4,64aeaab685a29f4ca249be02,64bec9d4550679f6de2a3689,right,-1,0.3071,0.35,3,0.027042465,0.4255,,,,,,71,0,71,0,1,,,,,
,,433660,001,2023-07-24_12h58.38.300,arm3_q,2022.2.5,Win32,9.998900121,60e4a5d4b0e40567e60146e4,64aeaab685a29f4ca249be02,64bec9d4550679f6de2a3689,right,-1,0.3071,0.35,3,0.020915939,0.5688,,,,,,72,0,72,0,1,,,,,
,,433660,001,2023-07-24_12h58.38.300,arm3_q,2022.2.5,Win32,9.998900121,60e4a5d4b0e40567e60146e4,64aeaab685a29f4ca249be02,64bec9d4550679f6de2a3689,down,-1,0.3071,0.35,3,0,0.4352,,,,,,73,0,73,0,1,,,,,
,,433660,001,2023-07-24_12h58.38.300,arm3_q,2022.2.5,Win32,9.998900121,60e4a5d4b0e40567e60146e4,64aeaab685a29f4ca249be02,64bec9d4550679f6de2a3689,right,-1,0.3071,0.35,3,-0.013888281,0.5654,,,,,,74,0,74,0,1,,,,,
,,433660,001,2023-07-24_12h58.38.300,arm3_q,2022.2.5,Win32,9.998900121,60e4a5d4b0e40567e60146e4,64aeaab685a29f4ca249be02,64bec9d4550679f6de2a3689,right,-1,0.3071,0.35,3,-0.002327208,0.5771,,,,,,75,0,75,0,1,,,,,
,,433660,001,2023-07-24_12h58.38.300,arm3_q,2022.2.5,Win32,9.998900121,60e4a5d4b0e40567e60146e4,64aeaab685a29f4ca249be02,64bec9d4550679f6de2a3689,right,-1,0.3071,0.35,3,-0.00457481,0.4262,,,,,,76,0,76,0,1,,,,,
,,433660,001,2023-07-24_12h58.38.300,arm3_q,2022.2.5,Win32,9.998900121,60e4a5d4b0e40567e60146e4,64aeaab685a29f4ca249be02,64bec9d4550679f6de2a3689,right,-1,0.3071,0.35,3,-0.005260842,0.5966,,,,,,77,0,77,0,1,,,,,
,,433660,001,2023-07-24_12h58.38.300,arm3_q,2022.2.5,Win32,9.998900121,60e4a5d4b0e40567e60146e4,64aeaab685a29f4ca249be02,64bec9d4550679f6de2a3689,right,-1,0.3071,0.35,3,0.011652102,0.4734,,,,,,78,0,78,0,1,,,,,
,,433660,001,2023-07-24_12h58.38.300,arm3_q,2022.2.5,Win32,9.998900121,60e4a5d4b0e40567e60146e4,64aeaab685a29f4ca249be02,64bec9d4550679f6de2a3689,right,-1,0.3071,0.35,3,-0.011915426,0.4479,,,,,,79,0,79,0,1,,,,,
,,433660,001,2023-07-24_12h58.38.300,arm3_q,2022.2.5,Win32,9.998900121,60e4a5d4b0e40567e60146e4,64aeaab685a29f4ca249be02,64bec9d4550679f6de2a3689,right,-1,0.3071,0.35,3,-0.068057494,0.5961,,,,,,80,0,80,0,1,,,,,
,,433660,001,2023-07-24_12h58.38.300,arm3_q,2022.2.5,Win32,9.998900121,60e4a5d4b0e40567e60146e4,64aeaab685a29f4ca249be02,64bec9d4550679f6de2a3689,right,-1,0.3071,0.35,3,-0.070780528,0.4137,,,,,,81,0,81,0,1,,,,,
,,433660,001,2023-07-24_12h58.38.300,arm3_q,2022.2.5,Win32,9.998900121,60e4a5d4b0e40567e60146e4,64aeaab685a29f4ca249be02,64bec9d4550679f6de2a3689,right,-1,0.3071,0.35,3,-0.06756286,0.479,,,,,,82,0,82,0,1,,,,,
,,433660,001,2023-07-24_12h58.38.300,arm3_q,2022.2.5,Win32,9.998900121,60e4a5d4b0e40567e60146e4,64aeaab685a29f4ca249be02,64bec9d4550679f6de2a3689,right,-1,0.3071,0.35,3,-0.071693501,0.4345,,,,,,83,0,83,0,1,,,,,
,,433660,001,2023-07-24_12h58.38.300,arm3_q,2022.2.5,Win32,9.998900121,60e4a5d4b0e40567e60146e4,64aeaab685a29f4ca249be02,64bec9d4550679f6de2a3689,down,1,0.3071,0.35,3,0,0.292,,,,,,84,0,84,0,1,,,,,
,,433660,001,2023-07-24_12h58.38.300,arm3_q,2022.2.5,Win32,9.998900121,60e4a5d4b0e40567e60146e4,64aeaab685a29f4ca249be02,64bec9d4550679f6de2a3689,right,1,0.3071,0.35,3,-0.006556593,0.5813,,,,,,85,0,85,0,1,,,,,
,,433660,001,2023-07-24_12h58.38.300,arm3_q,2022.2.5,Win32,9.998900121,60e4a5d4b0e40567e60146e4,64aeaab685a29f4ca249be02,64bec9d4550679f6de2a3689,right,1,0.3071,0.35,3,0.013727746,0.639,,,,,,86,0,86,0,1,,,,,
,,433660,001,2023-07-24_12h58.38.300,arm3_q,2022.2.5,Win32,9.998900121,60e4a5d4b0e40567e60146e4,64aeaab685a29f4ca249be02,64bec9d4550679f6de2a3689,right,1,0.3071,0.35,3,-0.015378648,0.476,,,,,,87,0,87,0,1,,,,,
,,433660,001,2023-07-24_12h58.38.300,arm3_q,2022.2.5,Win32,9.998900121,60e4a5d4b0e40567e60146e4,64aeaab685a29f4ca249be02,64bec9d4550679f6de2a3689,right,1,0.3071,0.35,3,-0.031944792,0.6179,,,,,,88,0,88,0,1,,,,,
,,433660,001,2023-07-24_12h58.38.300,arm3_q,2022.2.5,Win32,9.998900121,60e4a5d4b0e40567e60146e4,64aeaab685a29f4ca249be02,64bec9d4550679f6de2a3689,right,1,0.3071,0.35,3,-0.017418058,0.5893,,,,,,89,0,89,0,1,,,,,
,,433660,001,2023-07-24_12h58.38.300,arm3_q,2022.2.5,Win32,9.998900121,60e4a5d4b0e40567e60146e4,64aeaab685a29f4ca249be02,64bec9d4550679f6de2a3689,right,1,0.3071,0.35,3,0.001654885,0.4661,,,,,,90,0,90,0,1,,,,,
,,433660,001,2023-07-24_12h58.38.300,arm3_q,2022.2.5,Win32,9.998900121,60e4a5d4b0e40567e60146e4,64aeaab685a29f4ca249be02,64bec9d4550679f6de2a3689,right,1,0.3071,0.35,3,0.031923552,0.4306,,,,,,91,0,91,0,1,,,,,
,,433660,001,2023-07-24_12h58.38.300,arm3_q,2022.2.5,Win32,9.998900121,60e4a5d4b0e40567e60146e4,64aeaab685a29f4ca249be02,64bec9d4550679f6de2a3689,up,1,0.3071,0.35,3,0,0.4279,,,,,,92,0,92,0,1,,,,,
,,433660,001,2023-07-24_12h58.38.300,arm3_q,2022.2.5,Win32,9.998900121,60e4a5d4b0e40567e60146e4,64aeaab685a29f4ca249be02,64bec9d4550679f6de2a3689,right,1,0.3071,0.35,3,0.040742279,0.5632,,,,,,93,0,93,0,1,,,,,
,,433660,001,2023-07-24_12h58.38.300,arm3_q,2022.2.5,Win32,9.998900121,60e4a5d4b0e40567e60146e4,64aeaab685a29f4ca249be02,64bec9d4550679f6de2a3689,right,1,0.3071,0.35,3,0.051775614,1.7218,,,,,,94,0,94,0,1,,,,,
,,433660,001,2023-07-24_12h58.38.300,arm3_q,2022.2.5,Win32,9.998900121,60e4a5d4b0e40567e60146e4,64aeaab685a29f4ca249be02,64bec9d4550679f6de2a3689,right,1,0.3071,0.35,3,0.077184507,0.7308,,,,,,95,0,95,0,1,,,,,
,,433660,001,2023-07-24_12h58.38.300,arm3_q,2022.2.5,Win32,9.998900121,60e4a5d4b0e40567e60146e4,64aeaab685a29f4ca249be02,64bec9d4550679f6de2a3689,right,1,0.3071,0.35,3,0.120796456,0.5672,,,,,,96,0,96,0,1,,,,,
,,433660,001,2023-07-24_12h58.38.300,arm3_q,2022.2.5,Win32,9.998900121,60e4a5d4b0e40567e60146e4,64aeaab685a29f4ca249be02,64bec9d4550679f6de2a3689,up,1,0.3071,0.35,3,0,0.5903,,,,,,97,0,97,0,1,,,,,
,,433660,001,2023-07-24_12h58.38.300,arm3_q,2022.2.5,Win32,9.998900121,60e4a5d4b0e40567e60146e4,64aeaab685a29f4ca249be02,64bec9d4550679f6de2a3689,right,1,0.3071,0.35,3,-0.005623935,0.5724,,,,,,98,0,98,0,1,,,,,
,,433660,001,2023-07-24_12h58.38.300,arm3_q,2022.2.5,Win32,9.998900121,60e4a5d4b0e40567e60146e4,64aeaab685a29f4ca249be02,64bec9d4550679f6de2a3689,right,1,0.3071,0.35,3,0.02194215,0.5916,,,,,,99,0,99,0,1,,,,,
,,433660,001,2023-07-24_12h58.38.300,arm3_q,2022.2.5,Win32,9.998900121,60e4a5d4b0e40567e60146e4,64aeaab685a29f4ca249be02,64bec9d4550679f6de2a3689,right,1,0.3071,0.35,3,0.033776687,0.5879,,,,,,100,0,100,0,1,,,,,
,,433660,001,2023-07-24_12h58.38.300,arm3_q,2022.2.5,Win32,9.998900121,60e4a5d4b0e40567e60146e4,64aeaab685a29f4ca249be02,64bec9d4550679f6de2a3689,right,1,0.3071,0.35,3,0.052867721,0.5866,,,,,,101,0,101,0,1,,,,,
,,433660,001,2023-07-24_12h58.38.300,arm3_q,2022.2.5,Win32,9.998900121,60e4a5d4b0e40567e60146e4,64aeaab685a29f4ca249be02,64bec9d4550679f6de2a3689,right,1,0.3071,0.35,3,0.098563118,0.58,,,,,,102,0,102,0,1,,,,,
,,433660,001,2023-07-24_12h58.38.300,arm3_q,2022.2.5,Win32,9.998900121,60e4a5d4b0e40567e60146e4,64aeaab685a29f4ca249be02,64bec9d4550679f6de2a3689,right,1,0.3071,0.35,3,0.111672307,0.4421,,,,,,103,0,103,0,1,,,,,
,,433660,001,2023-07-24_12h58.38.300,arm3_q,2022.2.5,Win32,9.998900121,60e4a5d4b0e40567e60146e4,64aeaab685a29f4ca249be02,64bec9d4550679f6de2a3689,right,1,0.3071,0.35,3,0.103159666,0.574,,,,,,104,0,104,0,1,,,,,
,,433660,001,2023-07-24_12h58.38.300,arm3_q,2022.2.5,Win32,9.998900121,60e4a5d4b0e40567e60146e4,64aeaab685a29f4ca249be02,64bec9d4550679f6de2a3689,right,1,0.3071,0.35,3,0.117882672,0.5702,,,,,,105,0,105,0,1,,,,,
,,433660,001,2023-07-24_12h58.38.300,arm3_q,2022.2.5,Win32,9.998900121,60e4a5d4b0e40567e60146e4,64aeaab685a29f4ca249be02,64bec9d4550679f6de2a3689,up,-1,0.3071,0.35,3,0,0.7152,,,,,,106,0,106,0,1,,,,,
,,433660,001,2023-07-24_12h58.38.300,arm3_q,2022.2.5,Win32,9.998900121,60e4a5d4b0e40567e60146e4,64aeaab685a29f4ca249be02,64bec9d4550679f6de2a3689,right,-1,0.3071,0.35,3,0.015340512,0.5724,,,,,,107,0,107,0,1,,,,,
,,433660,001,2023-07-24_12h58.38.300,arm3_q,2022.2.5,Win32,9.998900121,60e4a5d4b0e40567e60146e4,64aeaab685a29f4ca249be02,64bec9d4550679f6de2a3689,right,-1,0.3071,0.35,3,0.012825618,0.5763,,,,,,108,0,108,0,1,,,,,
,,433660,001,2023-07-24_12h58.38.300,arm3_q,2022.2.5,Win32,9.998900121,60e4a5d4b0e40567e60146e4,64aeaab685a29f4ca249be02,64bec9d4550679f6de2a3689,right,-1,0.3071,0.35,3,0.022868515,0.5812,,,,,,109,0,109,0,1,,,,,
,,433660,001,2023-07-24_12h58.38.300,arm3_q,2022.2.5,Win32,9.998900121,60e4a5d4b0e40567e60146e4,64aeaab685a29f4ca249be02,64bec9d4550679f6de2a3689,right,-1,0.3071,0.35,3,0.022684484,0.4368,,,,,,110,0,110,0,1,,,,,
,,433660,001,2023-07-24_12h58.38.300,arm3_q,2022.2.5,Win32,9.998900121,60e4a5d4b0e40567e60146e4,64aeaab685a29f4ca249be02,64bec9d4550679f6de2a3689,right,-1,0.3071,0.35,3,0.014580516,0.5759,,,,,,111,0,111,0,1,,,,,
,,433660,001,2023-07-24_12h58.38.300,arm3_q,2022.2.5,Win32,9.998900121,60e4a5d4b0e40567e60146e4,64aeaab685a29f4ca249be02,64bec9d4550679f6de2a3689,right,-1,0.3071,0.35,3,0.003847571,0.4344,,,,,,112,0,112,0,1,,,,,
,,433660,001,2023-07-24_12h58.38.300,arm3_q,2022.2.5,Win32,9.998900121,60e4a5d4b0e40567e60146e4,64aeaab685a29f4ca249be02,64bec9d4550679f6de2a3689,right,-1,0.3071,0.35,3,-0.020923421,0.4425,,,,,,113,0,113,0,1,,,,,
,,433660,001,2023-07-24_12h58.38.300,arm3_q,2022.2.5,Win32,9.998900121,60e4a5d4b0e40567e60146e4,64aeaab685a29f4ca249be02,64bec9d4550679f6de2a3689,right,-1,0.3071,0.35,3,-0.022907748,0.4411,,,,,,114,0,114,0,1,,,,,
,,433660,001,2023-07-24_12h58.38.300,arm3_q,2022.2.5,Win32,9.998900121,60e4a5d4b0e40567e60146e4,64aeaab685a29f4ca249be02,64bec9d4550679f6de2a3689,right,-1,0.3071,0.35,3,-0.035739193,0.4371,,,,,,115,0,115,0,1,,,,,
,,433660,001,2023-07-24_12h58.38.300,arm3_q,2022.2.5,Win32,9.998900121,60e4a5d4b0e40567e60146e4,64aeaab685a29f4ca249be02,64bec9d4550679f6de2a3689,down,-1,0.3071,0.35,3,0,0.3007,,,,,,116,0,116,0,1,,,,,
,,433660,001,2023-07-24_12h58.38.300,arm3_q,2022.2.5,Win32,9.998900121,60e4a5d4b0e40567e60146e4,64aeaab685a29f4ca249be02,64bec9d4550679f6de2a3689,right,-1,0.3071,0.35,3,-0.002393681,0.431,,,,,,117,0,117,0,1,,,,,
,,433660,001,2023-07-24_12h58.38.300,arm3_q,2022.2.5,Win32,9.998900121,60e4a5d4b0e40567e60146e4,64aeaab685a29f4ca249be02,64bec9d4550679f6de2a3689,right,-1,0.3071,0.35,3,-0.040726691,0.5747,,,,,,118,0,118,0,1,,,,,
,,433660,001,2023-07-24_12h58.38.300,arm3_q,2022.2.5,Win32,9.998900121,60e4a5d4b0e40567e60146e4,64aeaab685a29f4ca249be02,64bec9d4550679f6de2a3689,right,-1,0.3071,0.35,3,-0.056038955,0.5759,,,,,,119,0,119,0,1,,,,,
,,433660,001,2023-07-24_12h58.38.300,arm3_q,2022.2.5,Win32,9.998900121,60e4a5d4b0e40567e60146e4,64aeaab685a29f4ca249be02,64bec9d4550679f6de2a3689,right,-1,0.3071,0.35,3,-0.034975125,0.5675,,,,,,120,0,120,0,1,,,,,
,,433660,001,2023-07-24_12h58.38.300,arm3_q,2022.2.5,Win32,9.998900121,60e4a5d4b0e40567e60146e4,64aeaab685a29f4ca249be02,64bec9d4550679f6de2a3689,right,-1,0.3071,0.35,3,0.00308663,0.441,,,,,,121,0,121,0,1,,,,,
,,433660,001,2023-07-24_12h58.38.300,arm3_q,2022.2.5,Win32,9.998900121,60e4a5d4b0e40567e60146e4,64aeaab685a29f4ca249be02,64bec9d4550679f6de2a3689,right,-1,0.3071,0.35,3,-0.02468255,0.4384,,,,,,122,0,122,0,1,,,,,
,,433660,001,2023-07-24_12h58.38.300,arm3_q,2022.2.5,Win32,9.998900121,60e4a5d4b0e40567e60146e4,64aeaab685a29f4ca249be02,64bec9d4550679f6de2a3689,right,-1,0.3071,0.35,3,-0.060628918,0.5863,,,,,,123,0,123,0,1,,,,,
,,433660,001,2023-07-24_12h58.38.300,arm3_q,2022.2.5,Win32,9.998900121,60e4a5d4b0e40567e60146e4,64aeaab685a29f4ca249be02,64bec9d4550679f6de2a3689,right,-1,0.3071,0.35,3,-0.057079277,0.4286,,,,,,124,0,124,0,1,,,,,
,,433660,001,2023-07-24_12h58.38.300,arm3_q,2022.2.5,Win32,9.998900121,60e4a5d4b0e40567e60146e4,64aeaab685a29f4ca249be02,64bec9d4550679f6de2a3689,right,-1,0.3071,0.35,3,-0.057174546,0.418,,,,,,125,0,125,0,1,,,,,
,,433660,001,2023-07-24_12h58.38.300,arm3_q,2022.2.5,Win32,9.998900121,60e4a5d4b0e40567e60146e4,64aeaab685a29f4ca249be02,64bec9d4550679f6de2a3689,right,-1,0.3071,0.35,3,-0.018505189,1.5543,,,,,,126,0,126,0,1,,,,,
,,433660,001,2023-07-24_12h58.38.300,arm3_q,2022.2.5,Win32,9.998900121,60e4a5d4b0e40567e60146e4,64aeaab685a29f4ca249be02,64bec9d4550679f6de2a3689,right,-1,0.3071,0.35,3,-0.035606332,0.5882,,,,,,127,0,127,0,1,,,,,
,,433660,001,2023-07-24_12h58.38.300,arm3_q,2022.2.5,Win32,9.998900121,60e4a5d4b0e40567e60146e4,64aeaab685a29f4ca249be02,64bec9d4550679f6de2a3689,down,-1,0.3071,0.35,3,0,0.4384,,,,,,128,0,128,0,1,,,,,
,,433660,001,2023-07-24_12h58.38.300,arm3_q,2022.2.5,Win32,9.998900121,60e4a5d4b0e40567e60146e4,64aeaab685a29f4ca249be02,64bec9d4550679f6de2a3689,right,-1,0.3071,0.35,3,-0.021034115,0.7019,,,,,,129,0,129,0,1,,,,,
,,433660,001,2023-07-24_12h58.38.300,arm3_q,2022.2.5,Win32,9.998900121,60e4a5d4b0e40567e60146e4,64aeaab685a29f4ca249be02,64bec9d4550679f6de2a3689,right,-1,0.3071,0.35,3,-0.039627874,0.5889,,,,,,130,0,130,0,1,,,,,
,,433660,001,2023-07-24_12h58.38.300,arm3_q,2022.2.5,Win32,9.998900121,60e4a5d4b0e40567e60146e4,64aeaab685a29f4ca249be02,64bec9d4550679f6de2a3689,right,-1,0.3071,0.35,3,-0.079635747,0.4286,,,,,,131,0,131,0,1,,,,,
,,433660,001,2023-07-24_12h58.38.300,arm3_q,2022.2.5,Win32,9.998900121,60e4a5d4b0e40567e60146e4,64aeaab685a29f4ca249be02,64bec9d4550679f6de2a3689,down,1,0.3071,0.35,3,0,0.4442,,,,,,132,0,132,0,1,,,,,
,,433660,001,2023-07-24_12h58.38.300,arm3_q,2022.2.5,Win32,9.998900121,60e4a5d4b0e40567e60146e4,64aeaab685a29f4ca249be02,64bec9d4550679f6de2a3689,right,1,0.3071,0.35,3,0.017055418,0.573,,,,,,133,0,133,0,1,,,,,
,,433660,001,2023-07-24_12h58.38.300,arm3_q,2022.2.5,Win32,9.998900121,60e4a5d4b0e40567e60146e4,64aeaab685a29f4ca249be02,64bec9d4550679f6de2a3689,right,1,0.3071,0.35,3,0.004280032,0.4366,,,,,,134,0,134,0,1,,,,,
,,433660,001,2023-07-24_12h58.38.300,arm3_q,2022.2.5,Win32,9.998900121,60e4a5d4b0e40567e60146e4,64aeaab685a29f4ca249be02,64bec9d4550679f6de2a3689,right,1,0.3071,0.35,3,0.028851908,0.5812,,,,,,135,0,135,0,1,,,,,
,,433660,001,2023-07-24_12h58.38.300,arm3_q,2022.2.5,Win32,9.998900121,60e4a5d4b0e40567e60146e4,64aeaab685a29f4ca249be02,64bec9d4550679f6de2a3689,right,1,0.3071,0.35,3,0.023994763,0.5813,,,,,,136,0,136,0,1,,,,,
,,433660,001,2023-07-24_12h58.38.300,arm3_q,2022.2.5,Win32,9.998900121,60e4a5d4b0e40567e60146e4,64aeaab685a29f4ca249be02,64bec9d4550679f6de2a3689,right,1,0.3071,0.35,3,0.038354829,0.5793,,,,,,137,0,137,0,1,,,,,
,,433660,001,2023-07-24_12h58.38.300,arm3_q,2022.2.5,Win32,9.998900121,60e4a5d4b0e40567e60146e4,64aeaab685a29f4ca249be02,64bec9d4550679f6de2a3689,right,1,0.3071,0.35,3,0.069880751,0.5761,,,,,,138,0,138,0,1,,,,,
,,433660,001,2023-07-24_12h58.38.300,arm3_q,2022.2.5,Win32,9.998900121,60e4a5d4b0e40567e60146e4,64aeaab685a29f4ca249be02,64bec9d4550679f6de2a3689,right,1,0.3071,0.35,3,0.064778918,0.569,,,,,,139,0,139,0,1,,,,,
,,433660,001,2023-07-24_12h58.38.300,arm3_q,2022.2.5,Win32,9.998900121,60e4a5d4b0e40567e60146e4,64aeaab685a29f4ca249be02,64bec9d4550679f6de2a3689,up,1,0.3071,0.35,4,0,0.4393,,,,,,140,0,140,0,1,,,,,
,,433660,001,2023-07-24_12h58.38.300,arm3_q,2022.2.5,Win32,9.998900121,60e4a5d4b0e40567e60146e4,64aeaab685a29f4ca249be02,64bec9d4550679f6de2a3689,right,1,0.3071,0.35,4,0.024344238,0.5555,,,,,,141,0,141,0,1,,,,,
,,433660,001,2023-07-24_12h58.38.300,arm3_q,2022.2.5,Win32,9.998900121,60e4a5d4b0e40567e60146e4,64aeaab685a29f4ca249be02,64bec9d4550679f6de2a3689,right,1,0.3071,0.35,4,0.003376092,0.5827,,,,,,142,0,142,0,1,,,,,
,,433660,001,2023-07-24_12h58.38.300,arm3_q,2022.2.5,Win32,9.998900121,60e4a5d4b0e40567e60146e4,64aeaab685a29f4ca249be02,64bec9d4550679f6de2a3689,right,1,0.3071,0.35,4,0.015744167,0.5948,,,,,,143,0,143,0,1,,,,,
,,433660,001,2023-07-24_12h58.38.300,arm3_q,2022.2.5,Win32,9.998900121,60e4a5d4b0e40567e60146e4,64aeaab685a29f4ca249be02,64bec9d4550679f6de2a3689,right,1,0.3071,0.35,4,0.047644966,0.5757,,,,,,144,0,144,0,1,,,,,
,,433660,001,2023-07-24_12h58.38.300,arm3_q,2022.2.5,Win32,9.998900121,60e4a5d4b0e40567e60146e4,64aeaab685a29f4ca249be02,64bec9d4550679f6de2a3689,right,1,0.3071,0.35,4,0.094077083,0.4415,,,,,,145,0,145,0,1,,,,,
,,433660,001,2023-07-24_12h58.38.300,arm3_q,2022.2.5,Win32,9.998900121,60e4a5d4b0e40567e60146e4,64aeaab685a29f4ca249be02,64bec9d4550679f6de2a3689,up,1,0.3071,0.35,5,0,0.4387,,,,,,146,0,146,0,1,,,,,
,,433660,001,2023-07-24_12h58.38.300,arm3_q,2022.2.5,Win32,9.998900121,60e4a5d4b0e40567e60146e4,64aeaab685a29f4ca249be02,64bec9d4550679f6de2a3689,right,1,0.3071,0.35,5,0.009044702,0.5638,,,,,,147,0,147,0,1,,,,,
,,433660,001,2023-07-24_12h58.38.300,arm3_q,2022.2.5,Win32,9.998900121,60e4a5d4b0e40567e60146e4,64aeaab685a29f4ca249be02,64bec9d4550679f6de2a3689,right,1,0.3071,0.35,5,-0.003998462,0.5907,,,,,,148,0,148,0,1,,,,,
,,433660,001,2023-07-24_12h58.38.300,arm3_q,2022.2.5,Win32,9.998900121,60e4a5d4b0e40567e60146e4,64aeaab685a29f4ca249be02,64bec9d4550679f6de2a3689,right,1,0.3071,0.35,5,0.039854702,0.5762,,,,,,149,0,149,0,1,,,,,
,,433660,001,2023-07-24_12h58.38.300,arm3_q,2022.2.5,Win32,9.998900121,60e4a5d4b0e40567e60146e4,64aeaab685a29f4ca249be02,64bec9d4550679f6de2a3689,right,1,0.3071,0.35,5,0.039677794,0.5655,,,,,,150,0,150,0,1,,,,,
,,433660,001,2023-07-24_12h58.38.300,arm3_q,2022.2.5,Win32,9.998900121,60e4a5d4b0e40567e60146e4,64aeaab685a29f4ca249be02,64bec9d4550679f6de2a3689,right,1,0.3071,0.35,5,0.046633467,0.5889,,,,,,151,0,151,0,1,,,,,
,,433660,001,2023-07-24_12h58.38.300,arm3_q,2022.2.5,Win32,9.998900121,60e4a5d4b0e40567e60146e4,64aeaab685a29f4ca249be02,64bec9d4550679f6de2a3689,right,1,0.3071,0.35,5,0.055786595,0.7332,,,,,,152,0,152,0,1,,,,,
,,433660,001,2023-07-24_12h58.38.300,arm3_q,2022.2.5,Win32,9.998900121,60e4a5d4b0e40567e60146e4,64aeaab685a29f4ca249be02,64bec9d4550679f6de2a3689,right,1,0.3071,0.35,5,0.030792393,0.5827,,,,,,153,0,153,0,1,,,,,
,,433660,001,2023-07-24_12h58.38.300,arm3_q,2022.2.5,Win32,9.998900121,60e4a5d4b0e40567e60146e4,64aeaab685a29f4ca249be02,64bec9d4550679f6de2a3689,down,1,0.3071,0.35,5,0,0.582,,,,,,154,0,154,0,1,,,,,
,,433660,001,2023-07-24_12h58.38.300,arm3_q,2022.2.5,Win32,9.998900121,60e4a5d4b0e40567e60146e4,64aeaab685a29f4ca249be02,64bec9d4550679f6de2a3689,right,1,0.3071,0.35,5,0.010681982,0.7011,,,,,,155,0,155,0,1,,,,,
,,433660,001,2023-07-24_12h58.38.300,arm3_q,2022.2.5,Win32,9.998900121,60e4a5d4b0e40567e60146e4,64aeaab685a29f4ca249be02,64bec9d4550679f6de2a3689,right,1,0.3071,0.35,5,0.040673523,0.4294,,,,,,156,0,156,0,1,,,,,
,,433660,001,2023-07-24_12h58.38.300,arm3_q,2022.2.5,Win32,9.998900121,60e4a5d4b0e40567e60146e4,64aeaab685a29f4ca249be02,64bec9d4550679f6de2a3689,right,1,0.3071,0.35,5,0.038993606,0.5833,,,,,,157,0,157,0,1,,,,,
,,433660,001,2023-07-24_12h58.38.300,arm3_q,2022.2.5,Win32,9.998900121,60e4a5d4b0e40567e60146e4,64aeaab685a29f4ca249be02,64bec9d4550679f6de2a3689,right,1,0.3071,0.35,5,-0.003951322,1.1449,,,,,,158,0,158,0,1,,,,,
,,433660,001,2023-07-24_12h58.38.300,arm3_q,2022.2.5,Win32,9.998900121,60e4a5d4b0e40567e60146e4,64aeaab685a29f4ca249be02,64bec9d4550679f6de2a3689,right,1,0.3071,0.35,5,-0.014209299,0.5902,,,,,,159,0,159,0,1,,,,,
,,433660,001,2023-07-24_12h58.38.300,arm3_q,2022.2.5,Win32,9.998900121,60e4a5d4b0e40567e60146e4,64aeaab685a29f4ca249be02,64bec9d4550679f6de2a3689,right,1,0.3071,0.35,5,-0.033476071,0.301,,,,,,160,0,160,0,1,,,,,
,,433660,001,2023-07-24_12h58.38.300,arm3_q,2022.2.5,Win32,9.998900121,60e4a5d4b0e40567e60146e4,64aeaab685a29f4ca249be02,64bec9d4550679f6de2a3689,right,1,0.3071,0.35,5,-0.037833621,0.4205,,,,,,161,0,161,0,1,,,,,
,,433660,001,2023-07-24_12h58.38.300,arm3_q,2022.2.5,Win32,9.998900121,60e4a5d4b0e40567e60146e4,64aeaab685a29f4ca249be02,64bec9d4550679f6de2a3689,right,1,0.3071,0.35,5,-0.025719429,0.7094,,,,,,162,0,162,0,1,,,,,
,,433660,001,2023-07-24_12h58.38.300,arm3_q,2022.2.5,Win32,9.998900121,60e4a5d4b0e40567e60146e4,64aeaab685a29f4ca249be02,64bec9d4550679f6de2a3689,right,1,0.3071,0.35,5,-0.010401623,0.565,,,,,,163,0,163,0,1,,,,,
,,433660,001,2023-07-24_12h58.38.300,arm3_q,2022.2.5,Win32,9.998900121,60e4a5d4b0e40567e60146e4,64aeaab685a29f4ca249be02,64bec9d4550679f6de2a3689,down,1,0.3071,0.35,4,0,1.8323,,,,,,164,0,164,0,1,,,,,
,,433660,001,2023-07-24_12h58.38.300,arm3_q,2022.2.5,Win32,9.998900121,60e4a5d4b0e40567e60146e4,64aeaab685a29f4ca249be02,64bec9d4550679f6de2a3689,right,1,0.3071,0.35,4,0.039308124,0.5804,,,,,,165,0,165,0,1,,,,,
,,433660,001,2023-07-24_12h58.38.300,arm3_q,2022.2.5,Win32,9.998900121,60e4a5d4b0e40567e60146e4,64aeaab685a29f4ca249be02,64bec9d4550679f6de2a3689,right,1,0.3071,0.35,4,0.045042417,0.7203,,,,,,166,0,166,0,1,,,,,
,,433660,001,2023-07-24_12h58.38.300,arm3_q,2022.2.5,Win32,9.998900121,60e4a5d4b0e40567e60146e4,64aeaab685a29f4ca249be02,64bec9d4550679f6de2a3689,right,1,0.3071,0.35,4,0.070852655,0.5719,,,,,,167,0,167,0,1,,,,,
,,433660,001,2023-07-24_12h58.38.300,arm3_q,2022.2.5,Win32,9.998900121,60e4a5d4b0e40567e60146e4,64aeaab685a29f4ca249be02,64bec9d4550679f6de2a3689,right,1,0.3071,0.35,4,0.054932831,0.7222,,,,,,168,0,168,0,1,,,,,
,,433660,001,2023-07-24_12h58.38.300,arm3_q,2022.2.5,Win32,9.998900121,60e4a5d4b0e40567e60146e4,64aeaab685a29f4ca249be02,64bec9d4550679f6de2a3689,right,1,0.3071,0.35,4,0.074514247,0.5672,,,,,,169,0,169,0,1,,,,,
,,433660,001,2023-07-24_12h58.38.300,arm3_q,2022.2.5,Win32,9.998900121,60e4a5d4b0e40567e60146e4,64aeaab685a29f4ca249be02,64bec9d4550679f6de2a3689,up,1,0.3071,0.35,5,0,0.3011,,,,,,170,0,170,0,1,,,,,
,,433660,001,2023-07-24_12h58.38.300,arm3_q,2022.2.5,Win32,9.998900121,60e4a5d4b0e40567e60146e4,64aeaab685a29f4ca249be02,64bec9d4550679f6de2a3689,right,1,0.3071,0.35,5,0.020991706,3.5247,,,,,,171,0,171,0,1,,,,,
,,433660,001,2023-07-24_12h58.38.300,arm3_q,2022.2.5,Win32,9.998900121,60e4a5d4b0e40567e60146e4,64aeaab685a29f4ca249be02,64bec9d4550679f6de2a3689,right,1,0.3071,0.35,5,-0.004483124,0.7234,,,,,,172,0,172,0,1,,,,,
,,433660,001,2023-07-24_12h58.38.300,arm3_q,2022.2.5,Win32,9.998900121,60e4a5d4b0e40567e60146e4,64aeaab685a29f4ca249be02,64bec9d4550679f6de2a3689,right,1,0.3071,0.35,5,0.026370896,0.4418,,,,,,173,0,173,0,1,,,,,
,,433660,001,2023-07-24_12h58.38.300,arm3_q,2022.2.5,Win32,9.998900121,60e4a5d4b0e40567e60146e4,64aeaab685a29f4ca249be02,64bec9d4550679f6de2a3689,right,1,0.3071,0.35,5,0.004968017,0.4379,,,,,,174,0,174,0,1,,,,,
,,433660,001,2023-07-24_12h58.38.300,arm3_q,2022.2.5,Win32,9.998900121,60e4a5d4b0e40567e60146e4,64aeaab685a29f4ca249be02,64bec9d4550679f6de2a3689,right,1,0.3071,0.35,5,0.004545028,0.4385,,,,,,175,0,175,0,1,,,,,
,,433660,001,2023-07-24_12h58.38.300,arm3_q,2022.2.5,Win32,9.998900121,60e4a5d4b0e40567e60146e4,64aeaab685a29f4ca249be02,64bec9d4550679f6de2a3689,right,1,0.3071,0.35,5,-0.02770675,0.4387,,,,,,176,0,176,0,1,,,,,
,,433660,001,2023-07-24_12h58.38.300,arm3_q,2022.2.5,Win32,9.998900121,60e4a5d4b0e40567e60146e4,64aeaab685a29f4ca249be02,64bec9d4550679f6de2a3689,right,1,0.3071,0.35,5,-0.052813229,0.4441,,,,,,177,0,177,0,1,,,,,
,,433660,001,2023-07-24_12h58.38.300,arm3_q,2022.2.5,Win32,9.998900121,60e4a5d4b0e40567e60146e4,64aeaab685a29f4ca249be02,64bec9d4550679f6de2a3689,down,1,0.3071,0.35,4,0,0.2921,,,,,,178,0,178,0,1,,,,,
,,433660,001,2023-07-24_12h58.38.300,arm3_q,2022.2.5,Win32,9.998900121,60e4a5d4b0e40567e60146e4,64aeaab685a29f4ca249be02,64bec9d4550679f6de2a3689,right,1,0.3071,0.35,4,-0.010743697,0.5539,,,,,,179,0,179,0,1,,,,,
,,433660,001,2023-07-24_12h58.38.300,arm3_q,2022.2.5,Win32,9.998900121,60e4a5d4b0e40567e60146e4,64aeaab685a29f4ca249be02,64bec9d4550679f6de2a3689,right,1,0.3071,0.35,4,0.001893409,0.4439,,,,,,180,0,180,0,1,,,,,
,,433660,001,2023-07-24_12h58.38.300,arm3_q,2022.2.5,Win32,9.998900121,60e4a5d4b0e40567e60146e4,64aeaab685a29f4ca249be02,64bec9d4550679f6de2a3689,right,1,0.3071,0.35,4,0.007222164,0.5739,,,,,,181,0,181,0,1,,,,,
,,433660,001,2023-07-24_12h58.38.300,arm3_q,2022.2.5,Win32,9.998900121,60e4a5d4b0e40567e60146e4,64aeaab685a29f4ca249be02,64bec9d4550679f6de2a3689,right,1,0.3071,0.35,4,0.014057478,0.435,,,,,,182,0,182,0,1,,,,,
,,433660,001,2023-07-24_12h58.38.300,arm3_q,2022.2.5,Win32,9.998900121,60e4a5d4b0e40567e60146e4,64aeaab685a29f4ca249be02,64bec9d4550679f6de2a3689,right,1,0.3071,0.35,4,0.013666445,0.5776,,,,,,183,0,183,0,1,,,,,
,,433660,001,2023-07-24_12h58.38.300,arm3_q,2022.2.5,Win32,9.998900121,60e4a5d4b0e40567e60146e4,64aeaab685a29f4ca249be02,64bec9d4550679f6de2a3689,right,1,0.3071,0.35,4,0.033214547,0.5883,,,,,,184,0,184,0,1,,,,,
,,433660,001,2023-07-24_12h58.38.300,arm3_q,2022.2.5,Win32,9.998900121,60e4a5d4b0e40567e60146e4,64aeaab685a29f4ca249be02,64bec9d4550679f6de2a3689,right,1,0.3071,0.35,4,0.064879834,0.7037,,,,,,185,0,185,0,1,,,,,
,,433660,001,2023-07-24_12h58.38.300,arm3_q,2022.2.5,Win32,9.998900121,60e4a5d4b0e40567e60146e4,64aeaab685a29f4ca249be02,64bec9d4550679f6de2a3689,up,-1,0.3071,0.35,4,0,0.2966,,,,,,186,0,186,0,1,,,,,
,,433660,001,2023-07-24_12h58.38.300,arm3_q,2022.2.5,Win32,9.998900121,60e4a5d4b0e40567e60146e4,64aeaab685a29f4ca249be02,64bec9d4550679f6de2a3689,right,-1,0.3071,0.35,4,-0.01805798,0.5721,,,,,,187,0,187,0,1,,,,,
,,433660,001,2023-07-24_12h58.38.300,arm3_q,2022.2.5,Win32,9.998900121,60e4a5d4b0e40567e60146e4,64aeaab685a29f4ca249be02,64bec9d4550679f6de2a3689,right,-1,0.3071,0.35,4,-0.032523161,0.4373,,,,,,188,0,188,0,1,,,,,
,,433660,001,2023-07-24_12h58.38.300,arm3_q,2022.2.5,Win32,9.998900121,60e4a5d4b0e40567e60146e4,64aeaab685a29f4ca249be02,64bec9d4550679f6de2a3689,right,-1,0.3071,0.35,4,-0.065115932,0.445,,,,,,189,0,189,0,1,,,,,
,,433660,001,2023-07-24_12h58.38.300,arm3_q,2022.2.5,Win32,9.998900121,60e4a5d4b0e40567e60146e4,64aeaab685a29f4ca249be02,64bec9d4550679f6de2a3689,right,-1,0.3071,0.35,4,-0.065188001,0.4417,,,,,,190,0,190,0,1,,,,,
,,433660,001,2023-07-24_12h58.38.300,arm3_q,2022.2.5,Win32,9.998900121,60e4a5d4b0e40567e60146e4,64aeaab685a29f4ca249be02,64bec9d4550679f6de2a3689,right,-1,0.3071,0.35,4,-0.054351597,0.5893,,,,,,191,0,191,0,1,,,,,
,,433660,001,2023-07-24_12h58.38.300,arm3_q,2022.2.5,Win32,9.998900121,60e4a5d4b0e40567e60146e4,64aeaab685a29f4ca249be02,64bec9d4550679f6de2a3689,right,-1,0.3071,0.35,4,-0.043101667,0.4341,,,,,,192,0,192,0,1,,,,,
,,433660,001,2023-07-24_12h58.38.300,arm3_q,2022.2.5,Win32,9.998900121,60e4a5d4b0e40567e60146e4,64aeaab685a29f4ca249be02,64bec9d4550679f6de2a3689,right,-1,0.3071,0.35,4,-0.059616291,0.576,,,,,,193,0,193,0,1,,,,,
,,433660,001,2023-07-24_12h58.38.300,arm3_q,2022.2.5,Win32,9.998900121,60e4a5d4b0e40567e60146e4,64aeaab685a29f4ca249be02,64bec9d4550679f6de2a3689,down,-1,0.3071,0.35,5,0,0.4254,,,,,,194,0,194,0,1,,,,,
,,433660,001,2023-07-24_12h58.38.300,arm3_q,2022.2.5,Win32,9.998900121,60e4a5d4b0e40567e60146e4,64aeaab685a29f4ca249be02,64bec9d4550679f6de2a3689,right,-1,0.3071,0.35,5,-0.018645829,0.5591,,,,,,195,0,195,0,1,,,,,
,,433660,001,2023-07-24_12h58.38.300,arm3_q,2022.2.5,Win32,9.998900121,60e4a5d4b0e40567e60146e4,64aeaab685a29f4ca249be02,64bec9d4550679f6de2a3689,right,-1,0.3071,0.35,5,-0.017713762,0.7247,,,,,,196,0,196,0,1,,,,,
,,433660,001,2023-07-24_12h58.38.300,arm3_q,2022.2.5,Win32,9.998900121,60e4a5d4b0e40567e60146e4,64aeaab685a29f4ca249be02,64bec9d4550679f6de2a3689,right,-1,0.3071,0.35,5,-0.030583869,0.5768,,,,,,197,0,197,0,1,,,,,
,,433660,001,2023-07-24_12h58.38.300,arm3_q,2022.2.5,Win32,9.998900121,60e4a5d4b0e40567e60146e4,64aeaab685a29f4ca249be02,64bec9d4550679f6de2a3689,right,-1,0.3071,0.35,5,-0.049762924,0.4351,,,,,,198,0,198,0,1,,,,,
,,433660,001,2023-07-24_12h58.38.300,arm3_q,2022.2.5,Win32,9.998900121,60e4a5d4b0e40567e60146e4,64aeaab685a29f4ca249be02,64bec9d4550679f6de2a3689,right,-1,0.3071,0.35,5,-0.052837778,0.4359,,,,,,199,0,199,0,1,,,,,
,,433660,001,2023-07-24_12h58.38.300,arm3_q,2022.2.5,Win32,9.998900121,60e4a5d4b0e40567e60146e4,64aeaab685a29f4ca249be02,64bec9d4550679f6de2a3689,down,-1,0.3071,0.35,5,0,0.446,,,,,,200,0,200,0,1,,,,,
,,433660,001,2023-07-24_12h58.38.300,arm3_q,2022.2.5,Win32,9.998900121,60e4a5d4b0e40567e60146e4,64aeaab685a29f4ca249be02,64bec9d4550679f6de2a3689,right,-1,0.3071,0.35,5,-0.036630006,0.5835,,,,,,201,0,201,0,1,,,,,
,,433660,001,2023-07-24_12h58.38.300,arm3_q,2022.2.5,Win32,9.998900121,60e4a5d4b0e40567e60146e4,64aeaab685a29f4ca249be02,64bec9d4550679f6de2a3689,right,-1,0.3071,0.35,5,-0.063188059,0.452,,,,,,202,0,202,0,1,,,,,
,,433660,001,2023-07-24_12h58.38.300,arm3_q,2022.2.5,Win32,9.998900121,60e4a5d4b0e40567e60146e4,64aeaab685a29f4ca249be02,64bec9d4550679f6de2a3689,right,-1,0.3071,0.35,5,-0.030886863,0.4783,,,,,,203,0,203,0,1,,,,,
,,433660,001,2023-07-24_12h58.38.300,arm3_q,2022.2.5,Win32,9.998900121,60e4a5d4b0e40567e60146e4,64aeaab685a29f4ca249be02,64bec9d4550679f6de2a3689,right,-1,0.3071,0.35,5,-0.061701557,0.456,,,,,,204,0,204,0,1,,,,,
,,433660,001,2023-07-24_12h58.38.300,arm3_q,2022.2.5,Win32,9.998900121,60e4a5d4b0e40567e60146e4,64aeaab685a29f4ca249be02,64bec9d4550679f6de2a3689,right,-1,0.3071,0.35,5,-0.072438026,0.4364,,,,,,205,0,205,0,1,,,,,
,,433660,001,2023-07-24_12h58.38.300,arm3_q,2022.2.5,Win32,9.998900121,60e4a5d4b0e40567e60146e4,64aeaab685a29f4ca249be02,64bec9d4550679f6de2a3689,down,-1,0.3071,0.35,6,0,0.4337,,,,,,206,0,206,0,1,,,,,
,,433660,001,2023-07-24_12h58.38.300,arm3_q,2022.2.5,Win32,9.998900121,60e4a5d4b0e40567e60146e4,64aeaab685a29f4ca249be02,64bec9d4550679f6de2a3689,right,-1,0.3071,0.35,6,-0.027299962,0.5649,,,,,,207,0,207,0,1,,,,,
,,433660,001,2023-07-24_12h58.38.300,arm3_q,2022.2.5,Win32,9.998900121,60e4a5d4b0e40567e60146e4,64aeaab685a29f4ca249be02,64bec9d4550679f6de2a3689,right,-1,0.3071,0.35,6,-0.061002049,0.5929,,,,,,208,0,208,0,1,,,,,
,,433660,001,2023-07-24_12h58.38.300,arm3_q,2022.2.5,Win32,9.998900121,60e4a5d4b0e40567e60146e4,64aeaab685a29f4ca249be02,64bec9d4550679f6de2a3689,right,-1,0.3071,0.35,6,-0.066375491,0.5708,,,,,,209,0,209,0,1,,,,,
,,433660,001,2023-07-24_12h58.38.300,arm3_q,2022.2.5,Win32,9.998900121,60e4a5d4b0e40567e60146e4,64aeaab685a29f4ca249be02,64bec9d4550679f6de2a3689,right,-1,0.3071,0.35,6,-0.072849817,0.5864,,,,,,210,0,210,0,1,,,,,
,,433660,001,2023-07-24_12h58.38.300,arm3_q,2022.2.5,Win32,9.998900121,60e4a5d4b0e40567e60146e4,64aeaab685a29f4ca249be02,64bec9d4550679f6de2a3689,right,-1,0.3071,0.35,6,-0.109400487,0.5756,,,,,,211,0,211,0,1,,,,,
,,433660,001,2023-07-24_12h58.38.300,arm3_q,2022.2.5,Win32,9.998900121,60e4a5d4b0e40567e60146e4,64aeaab685a29f4ca249be02,64bec9d4550679f6de2a3689,down,-1,0.3071,0.35,6,0,0.4377,,,,,,212,0,212,0,1,,,,,
,,433660,001,2023-07-24_12h58.38.300,arm3_q,2022.2.5,Win32,9.998900121,60e4a5d4b0e40567e60146e4,64aeaab685a29f4ca249be02,64bec9d4550679f6de2a3689,right,-1,0.3071,0.35,6,-0.000106534,0.5759,,,,,,213,0,213,0,1,,,,,
,,433660,001,2023-07-24_12h58.38.300,arm3_q,2022.2.5,Win32,9.998900121,60e4a5d4b0e40567e60146e4,64aeaab685a29f4ca249be02,64bec9d4550679f6de2a3689,right,-1,0.3071,0.35,6,-0.019102014,0.5789,,,,,,214,0,214,0,1,,,,,
,,433660,001,2023-07-24_12h58.38.300,arm3_q,2022.2.5,Win32,9.998900121,60e4a5d4b0e40567e60146e4,64aeaab685a29f4ca249be02,64bec9d4550679f6de2a3689,right,-1,0.3071,0.35,6,-0.026312409,0.5828,,,,,,215,0,215,0,1,,,,,
,,433660,001,2023-07-24_12h58.38.300,arm3_q,2022.2.5,Win32,9.998900121,60e4a5d4b0e40567e60146e4,64aeaab685a29f4ca249be02,64bec9d4550679f6de2a3689,right,-1,0.3071,0.35,6,-0.035032355,0.4431,,,,,,216,0,216,0,1,,,,,
,,433660,001,2023-07-24_12h58.38.300,arm3_q,2022.2.5,Win32,9.998900121,60e4a5d4b0e40567e60146e4,64aeaab685a29f4ca249be02,64bec9d4550679f6de2a3689,right,-1,0.3071,0.35,6,-0.067313163,0.6376,,,,,,217,0,217,0,1,,,,,
,,433660,001,2023-07-24_12h58.38.300,arm3_q,2022.2.5,Win32,9.998900121,60e4a5d4b0e40567e60146e4,64aeaab685a29f4ca249be02,64bec9d4550679f6de2a3689,right,-1,0.3071,0.35,6,-0.084972278,0.4667,,,,,,218,0,218,0,1,,,,,
,,433660,001,2023-07-24_12h58.38.300,arm3_q,2022.2.5,Win32,9.998900121,60e4a5d4b0e40567e60146e4,64aeaab685a29f4ca249be02,64bec9d4550679f6de2a3689,right,-1,0.3071,0.35,6,-0.086989141,0.4625,,,,,,219,0,219,0,1,,,,,
,,433660,001,2023-07-24_12h58.38.300,arm3_q,2022.2.5,Win32,9.998900121,60e4a5d4b0e40567e60146e4,64aeaab685a29f4ca249be02,64bec9d4550679f6de2a3689,down,1,0.3071,0.35,6,0,0.4468,,,,,,220,0,220,0,1,,,,,
,,433660,001,2023-07-24_12h58.38.300,arm3_q,2022.2.5,Win32,9.998900121,60e4a5d4b0e40567e60146e4,64aeaab685a29f4ca249be02,64bec9d4550679f6de2a3689,right,1,0.3071,0.35,6,0.027677166,0.6165,,,,,,221,0,221,0,1,,,,,
,,433660,001,2023-07-24_12h58.38.300,arm3_q,2022.2.5,Win32,9.998900121,60e4a5d4b0e40567e60146e4,64aeaab685a29f4ca249be02,64bec9d4550679f6de2a3689,right,1,0.3071,0.35,6,0.041218905,0.4426,,,,,,222,0,222,0,1,,,,,
,,433660,001,2023-07-24_12h58.38.300,arm3_q,2022.2.5,Win32,9.998900121,60e4a5d4b0e40567e60146e4,64aeaab685a29f4ca249be02,64bec9d4550679f6de2a3689,right,1,0.3071,0.35,6,0.054598425,0.78,,,,,,223,0,223,0,1,,,,,
,,433660,001,2023-07-24_12h58.38.300,arm3_q,2022.2.5,Win32,9.998900121,60e4a5d4b0e40567e60146e4,64aeaab685a29f4ca249be02,64bec9d4550679f6de2a3689,right,1,0.3071,0.35,6,0.063807682,0.6133,,,,,,224,0,224,0,1,,,,,
,,433660,001,2023-07-24_12h58.38.300,arm3_q,2022.2.5,Win32,9.998900121,60e4a5d4b0e40567e60146e4,64aeaab685a29f4ca249be02,64bec9d4550679f6de2a3689,right,1,0.3071,0.35,6,0.088257505,0.4666,,,,,,225,0,225,0,1,,,,,
,,433660,001,2023-07-24_12h58.38.300,arm3_q,2022.2.5,Win32,9.998900121,60e4a5d4b0e40567e60146e4,64aeaab685a29f4ca249be02,64bec9d4550679f6de2a3689,up,-1,0.3071,0.35,6,0,0.4412,,,,,,226,0,226,0,1,,,,,
,,433660,001,2023-07-24_12h58.38.300,arm3_q,2022.2.5,Win32,9.998900121,60e4a5d4b0e40567e60146e4,64aeaab685a29f4ca249be02,64bec9d4550679f6de2a3689,right,-1,0.3071,0.35,6,-0.007003409,0.6228,,,,,,227,0,227,0,1,,,,,
,,433660,001,2023-07-24_12h58.38.300,arm3_q,2022.2.5,Win32,9.998900121,60e4a5d4b0e40567e60146e4,64aeaab685a29f4ca249be02,64bec9d4550679f6de2a3689,right,-1,0.3071,0.35,6,0.00419521,0.4525,,,,,,228,0,228,0,1,,,,,
,,433660,001,2023-07-24_12h58.38.300,arm3_q,2022.2.5,Win32,9.998900121,60e4a5d4b0e40567e60146e4,64aeaab685a29f4ca249be02,64bec9d4550679f6de2a3689,right,-1,0.3071,0.35,6,-0.029621698,0.4445,,,,,,229,0,229,0,1,,,,,
,,433660,001,2023-07-24_12h58.38.300,arm3_q,2022.2.5,Win32,9.998900121,60e4a5d4b0e40567e60146e4,64aeaab685a29f4ca249be02,64bec9d4550679f6de2a3689,right,-1,0.3071,0.35,6,-0.035359985,0.6036,,,,,,230,0,230,0,1,,,,,
,,433660,001,2023-07-24_12h58.38.300,arm3_q,2022.2.5,Win32,9.998900121,60e4a5d4b0e40567e60146e4,64aeaab685a29f4ca249be02,64bec9d4550679f6de2a3689,right,-1,0.3071,0.35,6,-0.064153688,0.5971,,,,,,231,0,231,0,1,,,,,
,,433660,001,2023-07-24_12h58.38.300,arm3_q,2022.2.5,Win32,9.998900121,60e4a5d4b0e40567e60146e4,64aeaab685a29f4ca249be02,64bec9d4550679f6de2a3689,right,-1,0.3071,0.35,6,-0.069410091,0.7535,,,,,,232,0,232,0,1,,,,,
,,433660,001,2023-07-24_12h58.38.300,arm3_q,2022.2.5,Win32,9.998900121,60e4a5d4b0e40567e60146e4,64aeaab685a29f4ca249be02,64bec9d4550679f6de2a3689,right,-1,0.3071,0.35,6,-0.057808356,0.7203,,,,,,233,0,233,0,1,,,,,
,,433660,001,2023-07-24_12h58.38.300,arm3_q,2022.2.5,Win32,9.998900121,60e4a5d4b0e40567e60146e4,64aeaab685a29f4ca249be02,64bec9d4550679f6de2a3689,right,-1,0.3071,0.35,6,-0.08396155,0.4327,,,,,,234,0,234,0,1,,,,,
,,433660,001,2023-07-24_12h58.38.300,arm3_q,2022.2.5,Win32,9.998900121,60e4a5d4b0e40567e60146e4,64aeaab685a29f4ca249be02,64bec9d4550679f6de2a3689,down,1,0.3071,0.35,6,0,0.4365,,,,,,235,0,235,0,1,,,,,
,,433660,001,2023-07-24_12h58.38.300,arm3_q,2022.2.5,Win32,9.998900121,60e4a5d4b0e40567e60146e4,64aeaab685a29f4ca249be02,64bec9d4550679f6de2a3689,right,1,0.3071,0.35,6,0.017519734,0.5702,,,,,,236,0,236,0,1,,,,,
,,433660,001,2023-07-24_12h58.38.300,arm3_q,2022.2.5,Win32,9.998900121,60e4a5d4b0e40567e60146e4,64aeaab685a29f4ca249be02,64bec9d4550679f6de2a3689,right,1,0.3071,0.35,6,0.02820666,0.4421,,,,,,237,0,237,0,1,,,,,
,,433660,001,2023-07-24_12h58.38.300,arm3_q,2022.2.5,Win32,9.998900121,60e4a5d4b0e40567e60146e4,64aeaab685a29f4ca249be02,64bec9d4550679f6de2a3689,right,1,0.3071,0.35,6,0.05267892,0.4514,,,,,,238,0,238,0,1,,,,,
,,433660,001,2023-07-24_12h58.38.300,arm3_q,2022.2.5,Win32,9.998900121,60e4a5d4b0e40567e60146e4,64aeaab685a29f4ca249be02,64bec9d4550679f6de2a3689,right,1,0.3071,0.35,6,0.077050544,0.4411,,,,,,239,0,239,0,1,,,,,
,,433660,001,2023-07-24_12h58.38.300,arm3_q,2022.2.5,Win32,9.998900121,60e4a5d4b0e40567e60146e4,64aeaab685a29f4ca249be02,64bec9d4550679f6de2a3689,right,1,0.3071,0.35,6,0.113781188,0.4259,,,,,,240,0,240,0,1,,,,,
,,433660,001,2023-07-24_12h58.38.300,arm3_q,2022.2.5,Win32,9.998900121,60e4a5d4b0e40567e60146e4,64aeaab685a29f4ca249be02,64bec9d4550679f6de2a3689,up,1,0.3071,0.35,7,0,0.4542,,,,,,241,0,241,0,1,,,,,
,,433660,001,2023-07-24_12h58.38.300,arm3_q,2022.2.5,Win32,9.998900121,60e4a5d4b0e40567e60146e4,64aeaab685a29f4ca249be02,64bec9d4550679f6de2a3689,right,1,0.3071,0.35,7,0.03168326,0.5685,,,,,,242,0,242,0,1,,,,,
,,433660,001,2023-07-24_12h58.38.300,arm3_q,2022.2.5,Win32,9.998900121,60e4a5d4b0e40567e60146e4,64aeaab685a29f4ca249be02,64bec9d4550679f6de2a3689,right,1,0.3071,0.35,7,0.048148181,0.5794,,,,,,243,0,243,0,1,,,,,
,,433660,001,2023-07-24_12h58.38.300,arm3_q,2022.2.5,Win32,9.998900121,60e4a5d4b0e40567e60146e4,64aeaab685a29f4ca249be02,64bec9d4550679f6de2a3689,right,1,0.3071,0.35,7,0.033420423,0.435,,,,,,244,0,244,0,1,,,,,
,,433660,001,2023-07-24_12h58.38.300,arm3_q,2022.2.5,Win32,9.998900121,60e4a5d4b0e40567e60146e4,64aeaab685a29f4ca249be02,64bec9d4550679f6de2a3689,right,1,0.3071,0.35,7,0.063798624,0.441,,,,,,245,0,245,0,1,,,,,
,,433660,001,2023-07-24_12h58.38.300,arm3_q,2022.2.5,Win32,9.998900121,60e4a5d4b0e40567e60146e4,64aeaab685a29f4ca249be02,64bec9d4550679f6de2a3689,right,1,0.3071,0.35,7,0.105560938,0.4346,,,,,,246,0,246,0,1,,,,,
,,433660,001,2023-07-24_12h58.38.300,arm3_q,2022.2.5,Win32,9.998900121,60e4a5d4b0e40567e60146e4,64aeaab685a29f4ca249be02,64bec9d4550679f6de2a3689,up,1,0.3071,0.35,7,0,0.4378,,,,,,247,0,247,0,1,,,,,
,,433660,001,2023-07-24_12h58.38.300,arm3_q,2022.2.5,Win32,9.998900121,60e4a5d4b0e40567e60146e4,64aeaab685a29f4ca249be02,64bec9d4550679f6de2a3689,right,1,0.3071,0.35,7,0.034404817,0.5852,,,,,,248,0,248,0,1,,,,,
,,433660,001,2023-07-24_12h58.38.300,arm3_q,2022.2.5,Win32,9.998900121,60e4a5d4b0e40567e60146e4,64aeaab685a29f4ca249be02,64bec9d4550679f6de2a3689,right,1,0.3071,0.35,7,0.019025054,0.4493,,,,,,249,0,249,0,1,,,,,
,,433660,001,2023-07-24_12h58.38.300,arm3_q,2022.2.5,Win32,9.998900121,60e4a5d4b0e40567e60146e4,64aeaab685a29f4ca249be02,64bec9d4550679f6de2a3689,right,1,0.3071,0.35,7,0.063268918,0.4233,,,,,,250,0,250,0,1,,,,,
,,433660,001,2023-07-24_12h58.38.300,arm3_q,2022.2.5,Win32,9.998900121,60e4a5d4b0e40567e60146e4,64aeaab685a29f4ca249be02,64bec9d4550679f6de2a3689,right,1,0.3071,0.35,7,0.034013272,0.5898,,,,,,251,0,251,0,1,,,,,
,,433660,001,2023-07-24_12h58.38.300,arm3_q,2022.2.5,Win32,9.998900121,60e4a5d4b0e40567e60146e4,64aeaab685a29f4ca249be02,64bec9d4550679f6de2a3689,right,1,0.3071,0.35,7,0.032629347,0.4274,,,,,,252,0,252,0,1,,,,,
,,433660,001,2023-07-24_12h58.38.300,arm3_q,2022.2.5,Win32,9.998900121,60e4a5d4b0e40567e60146e4,64aeaab685a29f4ca249be02,64bec9d4550679f6de2a3689,down,1,0.3071,0.35,7,0,1.5761,,,,,,253,0,253,0,1,,,,,
,,433660,001,2023-07-24_12h58.38.300,arm3_q,2022.2.5,Win32,9.998900121,60e4a5d4b0e40567e60146e4,64aeaab685a29f4ca249be02,64bec9d4550679f6de2a3689,right,1,0.3071,0.35,7,0.005797482,0.609,,,,,,254,0,254,0,1,,,,,
,,433660,001,2023-07-24_12h58.38.300,arm3_q,2022.2.5,Win32,9.998900121,60e4a5d4b0e40567e60146e4,64aeaab685a29f4ca249be02,64bec9d4550679f6de2a3689,right,1,0.3071,0.35,7,0.030212323,0.4592,,,,,,255,0,255,0,1,,,,,
,,433660,001,2023-07-24_12h58.38.300,arm3_q,2022.2.5,Win32,9.998900121,60e4a5d4b0e40567e60146e4,64aeaab685a29f4ca249be02,64bec9d4550679f6de2a3689,right,1,0.3071,0.35,7,0.056565675,0.4476,,,,,,256,0,256,0,1,,,,,
,,433660,001,2023-07-24_12h58.38.300,arm3_q,2022.2.5,Win32,9.998900121,60e4a5d4b0e40567e60146e4,64aeaab685a29f4ca249be02,64bec9d4550679f6de2a3689,right,1,0.3071,0.35,7,0.031319038,0.3031,,,,,,257,0,257,0,1,,,,,
,,433660,001,2023-07-24_12h58.38.300,arm3_q,2022.2.5,Win32,9.998900121,60e4a5d4b0e40567e60146e4,64aeaab685a29f4ca249be02,64bec9d4550679f6de2a3689,right,1,0.3071,0.35,7,0.059789639,0.4395,,,,,,258,0,258,0,1,,,,,
,,433660,001,2023-07-24_12h58.38.300,arm3_q,2022.2.5,Win32,9.998900121,60e4a5d4b0e40567e60146e4,64aeaab685a29f4ca249be02,64bec9d4550679f6de2a3689,right,1,0.3071,0.35,7,0.053680533,0.87,,,,,,259,0,259,0,1,,,,,
,,433660,001,2023-07-24_12h58.38.300,arm3_q,2022.2.5,Win32,9.998900121,60e4a5d4b0e40567e60146e4,64aeaab685a29f4ca249be02,64bec9d4550679f6de2a3689,up,1,0.3071,0.35,7,0,0.4411,,,,,,260,0,260,0,1,,,,,
,,433660,001,2023-07-24_12h58.38.300,arm3_q,2022.2.5,Win32,9.998900121,60e4a5d4b0e40567e60146e4,64aeaab685a29f4ca249be02,64bec9d4550679f6de2a3689,right,1,0.3071,0.35,7,0.002571913,0.5766,,,,,,261,0,261,0,1,,,,,
,,433660,001,2023-07-24_12h58.38.300,arm3_q,2022.2.5,Win32,9.998900121,60e4a5d4b0e40567e60146e4,64aeaab685a29f4ca249be02,64bec9d4550679f6de2a3689,right,1,0.3071,0.35,7,0.014242306,0.446,,,,,,262,0,262,0,1,,,,,
,,433660,001,2023-07-24_12h58.38.300,arm3_q,2022.2.5,Win32,9.998900121,60e4a5d4b0e40567e60146e4,64aeaab685a29f4ca249be02,64bec9d4550679f6de2a3689,right,1,0.3071,0.35,7,0.038449044,0.9972,,,,,,263,0,263,0,1,,,,,
,,433660,001,2023-07-24_12h58.38.300,arm3_q,2022.2.5,Win32,9.998900121,60e4a5d4b0e40567e60146e4,64aeaab685a29f4ca249be02,64bec9d4550679f6de2a3689,right,1,0.3071,0.35,7,0.071731366,0.4284,,,,,,264,0,264,0,1,,,,,
,,433660,001,2023-07-24_12h58.38.300,arm3_q,2022.2.5,Win32,9.998900121,60e4a5d4b0e40567e60146e4,64aeaab685a29f4ca249be02,64bec9d4550679f6de2a3689,right,1,0.3071,0.35,7,0.065901367,0.5704,,,,,,265,0,265,0,1,,,,,
,,433660,001,2023-07-24_12h58.38.300,arm3_q,2022.2.5,Win32,9.998900121,60e4a5d4b0e40567e60146e4,64aeaab685a29f4ca249be02,64bec9d4550679f6de2a3689,right,1,0.3071,0.35,7,0.077085529,0.4441,,,,,,266,0,266,0,1,,,,,
,,433660,001,2023-07-24_12h58.38.300,arm3_q,2022.2.5,Win32,9.998900121,60e4a5d4b0e40567e60146e4,64aeaab685a29f4ca249be02,64bec9d4550679f6de2a3689,up,1,0.3071,0.35,7,0,0.5672,,,,,,267,0,267,0,1,,,,,
,,433660,001,2023-07-24_12h58.38.300,arm3_q,2022.2.5,Win32,9.998900121,60e4a5d4b0e40567e60146e4,64aeaab685a29f4ca249be02,64bec9d4550679f6de2a3689,right,1,0.3071,0.35,7,0.01767745,0.5722,,,,,,268,0,268,0,1,,,,,
,,433660,001,2023-07-24_12h58.38.300,arm3_q,2022.2.5,Win32,9.998900121,60e4a5d4b0e40567e60146e4,64aeaab685a29f4ca249be02,64bec9d4550679f6de2a3689,right,1,0.3071,0.35,7,0.014848678,0.4341,,,,,,269,0,269,0,1,,,,,
,,433660,001,2023-07-24_12h58.38.300,arm3_q,2022.2.5,Win32,9.998900121,60e4a5d4b0e40567e60146e4,64aeaab685a29f4ca249be02,64bec9d4550679f6de2a3689,right,1,0.3071,0.35,7,0.039372036,0.5846,,,,,,270,0,270,0,1,,,,,
,,433660,001,2023-07-24_12h58.38.300,arm3_q,2022.2.5,Win32,9.998900121,60e4a5d4b0e40567e60146e4,64aeaab685a29f4ca249be02,64bec9d4550679f6de2a3689,right,1,0.3071,0.35,7,0.045390046,0.5892,,,,,,271,0,271,0,1,,,,,
,,433660,001,2023-07-24_12h58.38.300,arm3_q,2022.2.5,Win32,9.998900121,60e4a5d4b0e40567e60146e4,64aeaab685a29f4ca249be02,64bec9d4550679f6de2a3689,right,1,0.3071,0.35,7,0.065198315,0.5746,,,,,,272,0,272,0,1,,,,,
,,433660,001,2023-07-24_12h58.38.300,arm3_q,2022.2.5,Win32,9.998900121,60e4a5d4b0e40567e60146e4,64aeaab685a29f4ca249be02,64bec9d4550679f6de2a3689,up,-1,0.3071,0.35,7,0,0.4304,,,,,,273,0,273,0,1,,,,,
,,433660,001,2023-07-24_12h58.38.300,arm3_q,2022.2.5,Win32,9.998900121,60e4a5d4b0e40567e60146e4,64aeaab685a29f4ca249be02,64bec9d4550679f6de2a3689,right,-1,0.3071,0.35,7,-0.02602958,0.5652,,,,,,274,0,274,0,1,,,,,
,,433660,001,2023-07-24_12h58.38.300,arm3_q,2022.2.5,Win32,9.998900121,60e4a5d4b0e40567e60146e4,64aeaab685a29f4ca249be02,64bec9d4550679f6de2a3689,right,-1,0.3071,0.35,7,-0.047860842,0.4319,,,,,,275,0,275,0,1,,,,,
,,433660,001,2023-07-24_12h58.38.300,arm3_q,2022.2.5,Win32,9.998900121,60e4a5d4b0e40567e60146e4,64aeaab685a29f4ca249be02,64bec9d4550679f6de2a3689,right,-1,0.3071,0.35,7,-0.073927762,0.4313,,,,,,276,0,276,0,1,,,,,
,,433660,001,2023-07-24_12h58.38.300,arm3_q,2022.2.5,Win32,9.998900121,60e4a5d4b0e40567e60146e4,64aeaab685a29f4ca249be02,64bec9d4550679f6de2a3689,right,-1,0.3071,0.35,7,-0.070398127,0.2951,,,,,,277,0,277,0,1,,,,,
,,433660,001,2023-07-24_12h58.38.300,arm3_q,2022.2.5,Win32,9.998900121,60e4a5d4b0e40567e60146e4,64aeaab685a29f4ca249be02,64bec9d4550679f6de2a3689,down,-1,0.3071,0.35,7,0,0.5878,,,,,,278,0,278,0,1,,,,,
,,433660,001,2023-07-24_12h58.38.300,arm3_q,2022.2.5,Win32,9.998900121,60e4a5d4b0e40567e60146e4,64aeaab685a29f4ca249be02,64bec9d4550679f6de2a3689,right,-1,0.3071,0.35,7,-0.006309612,0.5526,,,,,,279,0,279,0,1,,,,,
,,433660,001,2023-07-24_12h58.38.300,arm3_q,2022.2.5,Win32,9.998900121,60e4a5d4b0e40567e60146e4,64aeaab685a29f4ca249be02,64bec9d4550679f6de2a3689,right,-1,0.3071,0.35,7,-0.006986305,0.4368,,,,,,280,0,280,0,1,,,,,
,,433660,001,2023-07-24_12h58.38.300,arm3_q,2022.2.5,Win32,9.998900121,60e4a5d4b0e40567e60146e4,64aeaab685a29f4ca249be02,64bec9d4550679f6de2a3689,right,-1,0.3071,0.35,7,-0.017256283,0.4365,,,,,,281,0,281,0,1,,,,,
,,433660,001,2023-07-24_12h58.38.300,arm3_q,2022.2.5,Win32,9.998900121,60e4a5d4b0e40567e60146e4,64aeaab685a29f4ca249be02,64bec9d4550679f6de2a3689,right,-1,0.3071,0.35,7,-0.002833301,0.4382,,,,,,282,0,282,0,1,,,,,
,,433660,001,2023-07-24_12h58.38.300,arm3_q,2022.2.5,Win32,9.998900121,60e4a5d4b0e40567e60146e4,64aeaab685a29f4ca249be02,64bec9d4550679f6de2a3689,right,-1,0.3071,0.35,7,-0.017548695,0.4393,,,,,,283,0,283,0,1,,,,,
,,433660,001,2023-07-24_12h58.38.300,arm3_q,2022.2.5,Win32,9.998900121,60e4a5d4b0e40567e60146e4,64aeaab685a29f4ca249be02,64bec9d4550679f6de2a3689,right,-1,0.3071,0.35,7,0.004267685,0.5627,,,,,,284,0,284,0,1,,,,,
,,433660,001,2023-07-24_12h58.38.300,arm3_q,2022.2.5,Win32,9.998900121,60e4a5d4b0e40567e60146e4,64aeaab685a29f4ca249be02,64bec9d4550679f6de2a3689,right,-1,0.3071,0.35,7,0.03048155,0.5782,,,,,,285,0,285,0,1,,,,,
,,433660,001,2023-07-24_12h58.38.300,arm3_q,2022.2.5,Win32,9.998900121,60e4a5d4b0e40567e60146e4,64aeaab685a29f4ca249be02,64bec9d4550679f6de2a3689,right,-1,0.3071,0.35,7,0.001308889,0.4261,,,,,,286,0,286,0,1,,,,,
,,433660,001,2023-07-24_12h58.38.300,arm3_q,2022.2.5,Win32,9.998900121,60e4a5d4b0e40567e60146e4,64aeaab685a29f4ca249be02,64bec9d4550679f6de2a3689,right,-1,0.3071,0.35,7,0.000363515,0.4313,,,,,,287,0,287,0,1,,,,,
,,433660,001,2023-07-24_12h58.38.300,arm3_q,2022.2.5,Win32,9.998900121,60e4a5d4b0e40567e60146e4,64aeaab685a29f4ca249be02,64bec9d4550679f6de2a3689,down,-1,0.3071,0.35,7,0,0.4415,,,,,,288,0,288,0,1,,,,,
,,433660,001,2023-07-24_12h58.38.300,arm3_q,2022.2.5,Win32,9.998900121,60e4a5d4b0e40567e60146e4,64aeaab685a29f4ca249be02,64bec9d4550679f6de2a3689,right,-1,0.3071,0.35,7,-0.012556588,3.5476,,,,,,289,0,289,0,1,,,,,
,,433660,001,2023-07-24_12h58.38.300,arm3_q,2022.2.5,Win32,9.998900121,60e4a5d4b0e40567e60146e4,64aeaab685a29f4ca249be02,64bec9d4550679f6de2a3689,right,-1,0.3071,0.35,7,-0.017029798,0.3037,,,,,,290,0,290,0,1,,,,,
,,433660,001,2023-07-24_12h58.38.300,arm3_q,2022.2.5,Win32,9.998900121,60e4a5d4b0e40567e60146e4,64aeaab685a29f4ca249be02,64bec9d4550679f6de2a3689,right,-1,0.3071,0.35,7,-0.026122955,0.4417,,,,,,291,0,291,0,1,,,,,
,,433660,001,2023-07-24_12h58.38.300,arm3_q,2022.2.5,Win32,9.998900121,60e4a5d4b0e40567e60146e4,64aeaab685a29f4ca249be02,64bec9d4550679f6de2a3689,right,-1,0.3071,0.35,7,-0.060724608,0.4383,,,,,,292,0,292,0,1,,,,,
,,433660,001,2023-07-24_12h58.38.300,arm3_q,2022.2.5,Win32,9.998900121,60e4a5d4b0e40567e60146e4,64aeaab685a29f4ca249be02,64bec9d4550679f6de2a3689,right,-1,0.3071,0.35,7,-0.059949525,0.7194,,,,,,293,0,293,0,1,,,,,
,,433660,001,2023-07-24_12h58.38.300,arm3_q,2022.2.5,Win32,9.998900121,60e4a5d4b0e40567e60146e4,64aeaab685a29f4ca249be02,64bec9d4550679f6de2a3689,right,-1,0.3071,0.35,7,-0.04508877,0.8767,,,,,,294,0,294,0,1,,,,,
,,433660,001,2023-07-24_12h58.38.300,arm3_q,2022.2.5,Win32,9.998900121,60e4a5d4b0e40567e60146e4,64aeaab685a29f4ca249be02,64bec9d4550679f6de2a3689,down,1,0.3071,0.35,7,0,0.7224,,,,,,295,0,295,0,1,,,,,
,,433660,001,2023-07-24_12h58.38.300,arm3_q,2022.2.5,Win32,9.998900121,60e4a5d4b0e40567e60146e4,64aeaab685a29f4ca249be02,64bec9d4550679f6de2a3689,right,1,0.3071,0.35,7,-0.014840172,0.5735,,,,,,296,0,296,0,1,,,,,
,,433660,001,2023-07-24_12h58.38.300,arm3_q,2022.2.5,Win32,9.998900121,60e4a5d4b0e40567e60146e4,64aeaab685a29f4ca249be02,64bec9d4550679f6de2a3689,right,1,0.3071,0.35,7,-0.012854473,0.4356,,,,,,297,0,297,0,1,,,,,
,,433660,001,2023-07-24_12h58.38.300,arm3_q,2022.2.5,Win32,9.998900121,60e4a5d4b0e40567e60146e4,64aeaab685a29f4ca249be02,64bec9d4550679f6de2a3689,right,1,0.3071,0.35,7,-0.029825969,0.5631,,,,,,298,0,298,0,1,,,,,
,,433660,001,2023-07-24_12h58.38.300,arm3_q,2022.2.5,Win32,9.998900121,60e4a5d4b0e40567e60146e4,64aeaab685a29f4ca249be02,64bec9d4550679f6de2a3689,right,1,0.3071,0.35,7,-0.020814784,0.4342,,,,,,299,0,299,0,1,,,,,
,,433660,001,2023-07-24_12h58.38.300,arm3_q,2022.2.5,Win32,9.998900121,60e4a5d4b0e40567e60146e4,64aeaab685a29f4ca249be02,64bec9d4550679f6de2a3689,right,1,0.3071,0.35,7,-0.011247075,0.4328,,,,,,300,0,300,0,1,,,,,
,,433660,001,2023-07-24_12h58.38.300,arm3_q,2022.2.5,Win32,9.998900121,60e4a5d4b0e40567e60146e4,64aeaab685a29f4ca249be02,64bec9d4550679f6de2a3689,right,1,0.3071,0.35,7,0.00817343,0.5723,,,,,,301,0,301,0,1,,,,,
,,433660,001,2023-07-24_12h58.38.300,arm3_q,2022.2.5,Win32,9.998900121,60e4a5d4b0e40567e60146e4,64aeaab685a29f4ca249be02,64bec9d4550679f6de2a3689,right,1,0.3071,0.35,7,0.043222395,0.2931,,,,,,302,0,302,0,1,,,,,
,,433660,001,2023-07-24_12h58.38.300,arm3_q,2022.2.5,Win32,9.998900121,60e4a5d4b0e40567e60146e4,64aeaab685a29f4ca249be02,64bec9d4550679f6de2a3689,up,1,0.3071,0.35,7,0,0.4318,,,,,,303,0,303,0,1,,,,,
,,433660,001,2023-07-24_12h58.38.300,arm3_q,2022.2.5,Win32,9.998900121,60e4a5d4b0e40567e60146e4,64aeaab685a29f4ca249be02,64bec9d4550679f6de2a3689,right,1,0.3071,0.35,7,0.008474838,0.4214,,,,,,304,0,304,0,1,,,,,
,,433660,001,2023-07-24_12h58.38.300,arm3_q,2022.2.5,Win32,9.998900121,60e4a5d4b0e40567e60146e4,64aeaab685a29f4ca249be02,64bec9d4550679f6de2a3689,right,1,0.3071,0.35,7,0.030175597,0.5843,,,,,,305,0,305,0,1,,,,,
,,433660,001,2023-07-24_12h58.38.300,arm3_q,2022.2.5,Win32,9.998900121,60e4a5d4b0e40567e60146e4,64aeaab685a29f4ca249be02,64bec9d4550679f6de2a3689,right,1,0.3071,0.35,7,0.053873138,0.4339,,,,,,306,0,306,0,1,,,,,
,,433660,001,2023-07-24_12h58.38.300,arm3_q,2022.2.5,Win32,9.998900121,60e4a5d4b0e40567e60146e4,64aeaab685a29f4ca249be02,64bec9d4550679f6de2a3689,right,1,0.3071,0.35,7,0.06855319,0.5798,,,,,,307,0,307,0,1,,,,,
,,433660,001,2023-07-24_12h58.38.300,arm3_q,2022.2.5,Win32,9.998900121,60e4a5d4b0e40567e60146e4,64aeaab685a29f4ca249be02,64bec9d4550679f6de2a3689,up,-1,0.3071,0.35,8,0,0.4324,,,,,,308,0,308,0,1,,,,,
,,433660,001,2023-07-24_12h58.38.300,arm3_q,2022.2.5,Win32,9.998900121,60e4a5d4b0e40567e60146e4,64aeaab685a29f4ca249be02,64bec9d4550679f6de2a3689,right,-1,0.3071,0.35,8,-0.017455428,0.5609,,,,,,309,0,309,0,1,,,,,
,,433660,001,2023-07-24_12h58.38.300,arm3_q,2022.2.5,Win32,9.998900121,60e4a5d4b0e40567e60146e4,64aeaab685a29f4ca249be02,64bec9d4550679f6de2a3689,right,-1,0.3071,0.35,8,-0.054057185,0.5817,,,,,,310,0,310,0,1,,,,,
,,433660,001,2023-07-24_12h58.38.300,arm3_q,2022.2.5,Win32,9.998900121,60e4a5d4b0e40567e60146e4,64aeaab685a29f4ca249be02,64bec9d4550679f6de2a3689,right,-1,0.3071,0.35,8,-0.062684113,0.4244,,,,,,311,0,311,0,1,,,,,
,,433660,001,2023-07-24_12h58.38.300,arm3_q,2022.2.5,Win32,9.998900121,60e4a5d4b0e40567e60146e4,64aeaab685a29f4ca249be02,64bec9d4550679f6de2a3689,right,-1,0.3071,0.35,8,-0.065778516,0.4425,,,,,,312,0,312,0,1,,,,,
,,433660,001,2023-07-24_12h58.38.300,arm3_q,2022.2.5,Win32,9.998900121,60e4a5d4b0e40567e60146e4,64aeaab685a29f4ca249be02,64bec9d4550679f6de2a3689,right,-1,0.3071,0.35,8,-0.053249342,1.1424,,,,,,313,0,313,0,1,,,,,
,,433660,001,2023-07-24_12h58.38.300,arm3_q,2022.2.5,Win32,9.998900121,60e4a5d4b0e40567e60146e4,64aeaab685a29f4ca249be02,64bec9d4550679f6de2a3689,right,-1,0.3071,0.35,8,-0.048065059,1.2975,,,,,,314,0,314,0,1,,,,,
,,433660,001,2023-07-24_12h58.38.300,arm3_q,2022.2.5,Win32,9.998900121,60e4a5d4b0e40567e60146e4,64aeaab685a29f4ca249be02,64bec9d4550679f6de2a3689,down,-1,0.3071,0.35,8,0,0.7132,,,,,,315,0,315,0,1,,,,,
,,433660,001,2023-07-24_12h58.38.300,arm3_q,2022.2.5,Win32,9.998900121,60e4a5d4b0e40567e60146e4,64aeaab685a29f4ca249be02,64bec9d4550679f6de2a3689,right,-1,0.3071,0.35,8,0.001593553,0.559,,,,,,316,0,316,0,1,,,,,
,,433660,001,2023-07-24_12h58.38.300,arm3_q,2022.2.5,Win32,9.998900121,60e4a5d4b0e40567e60146e4,64aeaab685a29f4ca249be02,64bec9d4550679f6de2a3689,right,-1,0.3071,0.35,8,-0.000521582,0.5859,,,,,,317,0,317,0,1,,,,,
,,433660,001,2023-07-24_12h58.38.300,arm3_q,2022.2.5,Win32,9.998900121,60e4a5d4b0e40567e60146e4,64aeaab685a29f4ca249be02,64bec9d4550679f6de2a3689,right,-1,0.3071,0.35,8,-0.009118383,0.5805,,,,,,318,0,318,0,1,,,,,
,,433660,001,2023-07-24_12h58.38.300,arm3_q,2022.2.5,Win32,9.998900121,60e4a5d4b0e40567e60146e4,64aeaab685a29f4ca249be02,64bec9d4550679f6de2a3689,right,-1,0.3071,0.35,8,-0.01838487,0.5847,,,,,,319,0,319,0,1,,,,,
,,433660,001,2023-07-24_12h58.38.300,arm3_q,2022.2.5,Win32,9.998900121,60e4a5d4b0e40567e60146e4,64aeaab685a29f4ca249be02,64bec9d4550679f6de2a3689,down,-1,0.3071,0.35,8,0,0.5855,,,,,,320,0,320,0,1,,,,,
,,433660,001,2023-07-24_12h58.38.300,arm3_q,2022.2.5,Win32,9.998900121,60e4a5d4b0e40567e60146e4,64aeaab685a29f4ca249be02,64bec9d4550679f6de2a3689,right,-1,0.3071,0.35,8,0.006442174,0.5655,,,,,,321,0,321,0,1,,,,,
,,433660,001,2023-07-24_12h58.38.300,arm3_q,2022.2.5,Win32,9.998900121,60e4a5d4b0e40567e60146e4,64aeaab685a29f4ca249be02,64bec9d4550679f6de2a3689,right,-1,0.3071,0.35,8,0.022042217,0.4435,,,,,,322,0,322,0,1,,,,,
,,433660,001,2023-07-24_12h58.38.300,arm3_q,2022.2.5,Win32,9.998900121,60e4a5d4b0e40567e60146e4,64aeaab685a29f4ca249be02,64bec9d4550679f6de2a3689,right,-1,0.3071,0.35,8,0.034573282,0.4331,,,,,,323,0,323,0,1,,,,,
,,433660,001,2023-07-24_12h58.38.300,arm3_q,2022.2.5,Win32,9.998900121,60e4a5d4b0e40567e60146e4,64aeaab685a29f4ca249be02,64bec9d4550679f6de2a3689,right,-1,0.3071,0.35,8,0.022958041,0.5828,,,,,,324,0,324,0,1,,,,,
,,433660,001,2023-07-24_12h58.38.300,arm3_q,2022.2.5,Win32,9.998900121,60e4a5d4b0e40567e60146e4,64aeaab685a29f4ca249be02,64bec9d4550679f6de2a3689,right,-1,0.3071,0.35,8,0.026437877,0.5735,,,,,,325,0,325,0,1,,,,,
,,433660,001,2023-07-24_12h58.38.300,arm3_q,2022.2.5,Win32,9.998900121,60e4a5d4b0e40567e60146e4,64aeaab685a29f4ca249be02,64bec9d4550679f6de2a3689,right,-1,0.3071,0.35,8,-0.003172044,1.2819,,,,,,326,0,326,0,1,,,,,
,,433660,001,2023-07-24_12h58.38.300,arm3_q,2022.2.5,Win32,9.998900121,60e4a5d4b0e40567e60146e4,64aeaab685a29f4ca249be02,64bec9d4550679f6de2a3689,right,-1,0.3071,0.35,8,-0.015903659,1.2769,,,,,,327,0,327,0,1,,,,,
,,433660,001,2023-07-24_12h58.38.300,arm3_q,2022.2.5,Win32,9.998900121,60e4a5d4b0e40567e60146e4,64aeaab685a29f4ca249be02,64bec9d4550679f6de2a3689,right,-1,0.3071,0.35,8,-0.016347244,0.8472,,,,,,328,0,328,0,1,,,,,
,,433660,001,2023-07-24_12h58.38.300,arm3_q,2022.2.5,Win32,9.998900121,60e4a5d4b0e40567e60146e4,64aeaab685a29f4ca249be02,64bec9d4550679f6de2a3689,down,-1,0.3071,0.35,8,0,0.5749,,,,,,329,0,329,0,1,,,,,
,,433660,001,2023-07-24_12h58.38.300,arm3_q,2022.2.5,Win32,9.998900121,60e4a5d4b0e40567e60146e4,64aeaab685a29f4ca249be02,64bec9d4550679f6de2a3689,right,-1,0.3071,0.35,8,0.008974058,1.5878,,,,,,330,0,330,0,1,,,,,
,,433660,001,2023-07-24_12h58.38.300,arm3_q,2022.2.5,Win32,9.998900121,60e4a5d4b0e40567e60146e4,64aeaab685a29f4ca249be02,64bec9d4550679f6de2a3689,right,-1,0.3071,0.35,8,-0.000773398,0.4345,,,,,,331,0,331,0,1,,,,,
,,433660,001,2023-07-24_12h58.38.300,arm3_q,2022.2.5,Win32,9.998900121,60e4a5d4b0e40567e60146e4,64aeaab685a29f4ca249be02,64bec9d4550679f6de2a3689,right,-1,0.3071,0.35,8,0.010828163,0.5752,,,,,,332,0,332,0,1,,,,,
,,433660,001,2023-07-24_12h58.38.300,arm3_q,2022.2.5,Win32,9.998900121,60e4a5d4b0e40567e60146e4,64aeaab685a29f4ca249be02,64bec9d4550679f6de2a3689,right,-1,0.3071,0.35,8,-0.007412866,0.4349,,,,,,333,0,333,0,1,,,,,
,,433660,001,2023-07-24_12h58.38.300,arm3_q,2022.2.5,Win32,9.998900121,60e4a5d4b0e40567e60146e4,64aeaab685a29f4ca249be02,64bec9d4550679f6de2a3689,right,-1,0.3071,0.35,8,-0.033145734,1.287,,,,,,334,0,334,0,1,,,,,
,,433660,001,2023-07-24_12h58.38.300,arm3_q,2022.2.5,Win32,9.998900121,60e4a5d4b0e40567e60146e4,64aeaab685a29f4ca249be02,64bec9d4550679f6de2a3689,right,-1,0.3071,0.35,8,-0.044862193,0.4503,,,,,,335,0,335,0,1,,,,,
,,433660,001,2023-07-24_12h58.38.300,arm3_q,2022.2.5,Win32,9.998900121,60e4a5d4b0e40567e60146e4,64aeaab685a29f4ca249be02,64bec9d4550679f6de2a3689,right,-1,0.3071,0.35,8,-0.019544456,0.5898,,,,,,336,0,336,0,1,,,,,
,,433660,001,2023-07-24_12h58.38.300,arm3_q,2022.2.5,Win32,9.998900121,60e4a5d4b0e40567e60146e4,64aeaab685a29f4ca249be02,64bec9d4550679f6de2a3689,right,-1,0.3071,0.35,8,-0.023696664,1.1453,,,,,,337,0,337,0,1,,,,,
,,433660,001,2023-07-24_12h58.38.300,arm3_q,2022.2.5,Win32,9.998900121,60e4a5d4b0e40567e60146e4,64aeaab685a29f4ca249be02,64bec9d4550679f6de2a3689,right,-1,0.3071,0.35,8,-0.005789514,0.8537,,,,,,338,0,338,0,1,,,,,
,,433660,001,2023-07-24_12h58.38.300,arm3_q,2022.2.5,Win32,9.998900121,60e4a5d4b0e40567e60146e4,64aeaab685a29f4ca249be02,64bec9d4550679f6de2a3689,right,-1,0.3071,0.35,8,0.016717865,0.7279,,,,,,339,0,339,0,1,,,,,
,,433660,001,2023-07-24_12h58.38.300,arm3_q,2022.2.5,Win32,9.998900121,60e4a5d4b0e40567e60146e4,64aeaab685a29f4ca249be02,64bec9d4550679f6de2a3689,down,1,0.3071,0.35,8,0,0.8678,,,,,,340,0,340,0,1,,,,,
,,433660,001,2023-07-24_12h58.38.300,arm3_q,2022.2.5,Win32,9.998900121,60e4a5d4b0e40567e60146e4,64aeaab685a29f4ca249be02,64bec9d4550679f6de2a3689,right,1,0.3071,0.35,8,0.022194083,0.5778,,,,,,341,0,341,0,1,,,,,
,,433660,001,2023-07-24_12h58.38.300,arm3_q,2022.2.5,Win32,9.998900121,60e4a5d4b0e40567e60146e4,64aeaab685a29f4ca249be02,64bec9d4550679f6de2a3689,right,1,0.3071,0.35,8,0.031322728,0.4348,,,,,,342,0,342,0,1,,,,,
,,433660,001,2023-07-24_12h58.38.300,arm3_q,2022.2.5,Win32,9.998900121,60e4a5d4b0e40567e60146e4,64aeaab685a29f4ca249be02,64bec9d4550679f6de2a3689,right,1,0.3071,0.35,8,0.080698345,0.4317,,,,,,343,0,343,0,1,,,,,
,,433660,001,2023-07-24_12h58.38.300,arm3_q,2022.2.5,Win32,9.998900121,60e4a5d4b0e40567e60146e4,64aeaab685a29f4ca249be02,64bec9d4550679f6de2a3689,right,1,0.3071,0.35,8,0.092958121,0.5815,,,,,,344,0,344,0,1,,,,,
,,433660,001,2023-07-24_12h58.38.300,arm3_q,2022.2.5,Win32,9.998900121,60e4a5d4b0e40567e60146e4,64aeaab685a29f4ca249be02,64bec9d4550679f6de2a3689,up,1,0.3071,0.35,9,0,0.585,,,,,,345,0,345,0,1,,,,,
,,433660,001,2023-07-24_12h58.38.300,arm3_q,2022.2.5,Win32,9.998900121,60e4a5d4b0e40567e60146e4,64aeaab685a29f4ca249be02,64bec9d4550679f6de2a3689,right,1,0.3071,0.35,9,0.030158205,0.7242,,,,,,346,0,346,0,1,,,,,
,,433660,001,2023-07-24_12h58.38.300,arm3_q,2022.2.5,Win32,9.998900121,60e4a5d4b0e40567e60146e4,64aeaab685a29f4ca249be02,64bec9d4550679f6de2a3689,right,1,0.3071,0.35,9,0.043870109,0.4537,,,,,,347,0,347,0,1,,,,,
,,433660,001,2023-07-24_12h58.38.300,arm3_q,2022.2.5,Win32,9.998900121,60e4a5d4b0e40567e60146e4,64aeaab685a29f4ca249be02,64bec9d4550679f6de2a3689,right,1,0.3071,0.35,9,0.058737516,0.4344,,,,,,348,0,348,0,1,,,,,
,,433660,001,2023-07-24_12h58.38.300,arm3_q,2022.2.5,Win32,9.998900121,60e4a5d4b0e40567e60146e4,64aeaab685a29f4ca249be02,64bec9d4550679f6de2a3689,right,1,0.3071,0.35,9,0.077393689,0.4496,,,,,,349,0,349,0,1,,,,,
,,433660,001,2023-07-24_12h58.38.300,arm3_q,2022.2.5,Win32,9.998900121,60e4a5d4b0e40567e60146e4,64aeaab685a29f4ca249be02,64bec9d4550679f6de2a3689,up,1,0.3071,0.35,9,0,0.7284,,,,,,350,0,350,0,1,,,,,
,,433660,001,2023-07-24_12h58.38.300,arm3_q,2022.2.5,Win32,9.998900121,60e4a5d4b0e40567e60146e4,64aeaab685a29f4ca249be02,64bec9d4550679f6de2a3689,right,1,0.3071,0.35,9,0.024297957,0.5717,,,,,,351,0,351,0,1,,,,,
,,433660,001,2023-07-24_12h58.38.300,arm3_q,2022.2.5,Win32,9.998900121,60e4a5d4b0e40567e60146e4,64aeaab685a29f4ca249be02,64bec9d4550679f6de2a3689,right,1,0.3071,0.35,9,0.050182256,1.2936,,,,,,352,0,352,0,1,,,,,
,,433660,001,2023-07-24_12h58.38.300,arm3_q,2022.2.5,Win32,9.998900121,60e4a5d4b0e40567e60146e4,64aeaab685a29f4ca249be02,64bec9d4550679f6de2a3689,right,1,0.3071,0.35,9,0.066695319,0.5791,,,,,,353,0,353,0,1,,,,,
,,433660,001,2023-07-24_12h58.38.300,arm3_q,2022.2.5,Win32,9.998900121,60e4a5d4b0e40567e60146e4,64aeaab685a29f4ca249be02,64bec9d4550679f6de2a3689,right,1,0.3071,0.35,9,0.08710332,0.5845,,,,,,354,0,354,0,1,,,,,
,,433660,001,2023-07-24_12h58.38.300,arm3_q,2022.2.5,Win32,9.998900121,60e4a5d4b0e40567e60146e4,64aeaab685a29f4ca249be02,64bec9d4550679f6de2a3689,up,-1,0.3071,0.35,9,0,1.145,,,,,,355,0,355,0,1,,,,,
,,433660,001,2023-07-24_12h58.38.300,arm3_q,2022.2.5,Win32,9.998900121,60e4a5d4b0e40567e60146e4,64aeaab685a29f4ca249be02,64bec9d4550679f6de2a3689,right,-1,0.3071,0.35,9,0.001495152,0.5798,,,,,,356,0,356,0,1,,,,,
,,433660,001,2023-07-24_12h58.38.300,arm3_q,2022.2.5,Win32,9.998900121,60e4a5d4b0e40567e60146e4,64aeaab685a29f4ca249be02,64bec9d4550679f6de2a3689,right,-1,0.3071,0.35,9,-0.017147811,0.4277,,,,,,357,0,357,0,1,,,,,
,,433660,001,2023-07-24_12h58.38.300,arm3_q,2022.2.5,Win32,9.998900121,60e4a5d4b0e40567e60146e4,64aeaab685a29f4ca249be02,64bec9d4550679f6de2a3689,right,-1,0.3071,0.35,9,-0.03742423,0.4337,,,,,,358,0,358,0,1,,,,,
,,433660,001,2023-07-24_12h58.38.300,arm3_q,2022.2.5,Win32,9.998900121,60e4a5d4b0e40567e60146e4,64aeaab685a29f4ca249be02,64bec9d4550679f6de2a3689,right,-1,0.3071,0.35,9,-0.047924443,0.4678,,,,,,359,0,359,0,1,,,,,
,,433660,001,2023-07-24_12h58.38.300,arm3_q,2022.2.5,Win32,9.998900121,60e4a5d4b0e40567e60146e4,64aeaab685a29f4ca249be02,64bec9d4550679f6de2a3689,down,1,0.3071,0.35,10,0,0.798,,,,,,360,0,360,0,1,,,,,
,,433660,001,2023-07-24_12h58.38.300,arm3_q,2022.2.5,Win32,9.998900121,60e4a5d4b0e40567e60146e4,64aeaab685a29f4ca249be02,64bec9d4550679f6de2a3689,right,1,0.3071,0.35,10,0.018781648,0.5992,,,,,,361,0,361,0,1,,,,,
,,433660,001,2023-07-24_12h58.38.300,arm3_q,2022.2.5,Win32,9.998900121,60e4a5d4b0e40567e60146e4,64aeaab685a29f4ca249be02,64bec9d4550679f6de2a3689,right,1,0.3071,0.35,10,0.030091634,0.4741,,,,,,362,0,362,0,1,,,,,
,,433660,001,2023-07-24_12h58.38.300,arm3_q,2022.2.5,Win32,9.998900121,60e4a5d4b0e40567e60146e4,64aeaab685a29f4ca249be02,64bec9d4550679f6de2a3689,right,1,0.3071,0.35,10,0.042299761,1.012,,,,,,363,0,363,0,1,,,,,
,,433660,001,2023-07-24_12h58.38.300,arm3_q,2022.2.5,Win32,9.998900121,60e4a5d4b0e40567e60146e4,64aeaab685a29f4ca249be02,64bec9d4550679f6de2a3689,up,1,0.3071,0.35,10,0,0.7096,,,,,,364,0,364,0,1,,,,,
,,433660,001,2023-07-24_12h58.38.300,arm3_q,2022.2.5,Win32,9.998900121,60e4a5d4b0e40567e60146e4,64aeaab685a29f4ca249be02,64bec9d4550679f6de2a3689,right,1,0.3071,0.35,10,0.003083183,0.5635,,,,,,365,0,365,0,1,,,,,
,,433660,001,2023-07-24_12h58.38.300,arm3_q,2022.2.5,Win32,9.998900121,60e4a5d4b0e40567e60146e4,64aeaab685a29f4ca249be02,64bec9d4550679f6de2a3689,right,1,0.3071,0.35,10,0.042003267,0.431,,,,,,366,0,366,0,1,,,,,
,,433660,001,2023-07-24_12h58.38.300,arm3_q,2022.2.5,Win32,9.998900121,60e4a5d4b0e40567e60146e4,64aeaab685a29f4ca249be02,64bec9d4550679f6de2a3689,right,1,0.3071,0.35,10,0.06298752,0.4315,,,,,,367,0,367,0,1,,,,,
,,433660,001,2023-07-24_12h58.38.300,arm3_q,2022.2.5,Win32,9.998900121,60e4a5d4b0e40567e60146e4,64aeaab685a29f4ca249be02,64bec9d4550679f6de2a3689,right,1,0.3071,0.35,10,0.033061782,0.4283,,,,,,368,0,368,0,1,,,,,
,,433660,001,2023-07-24_12h58.38.300,arm3_q,2022.2.5,Win32,9.998900121,60e4a5d4b0e40567e60146e4,64aeaab685a29f4ca249be02,64bec9d4550679f6de2a3689,right,1,0.3071,0.35,10,0.058961534,0.5689,,,,,,369,0,369,0,1,,,,,
,,433660,001,2023-07-24_12h58.38.300,arm3_q,2022.2.5,Win32,9.998900121,60e4a5d4b0e40567e60146e4,64aeaab685a29f4ca249be02,64bec9d4550679f6de2a3689,,,,,,,,,,,,,,,,,,0,0,0,0,1
space,4.5639,433660,001,2023-07-24_12h58.38.300,arm3_q,2022.2.5,Win32,9.998900121,60e4a5d4b0e40567e60146e4,64aeaab685a29f4ca249be02,64bec9d4550679f6de2a3689,right,1,0.6929,0.35,10,0.023273994,2.7184,,,,,,0,0,0,0,1,,,,,
,,433660,001,2023-07-24_12h58.38.300,arm3_q,2022.2.5,Win32,9.998900121,60e4a5d4b0e40567e60146e4,64aeaab685a29f4ca249be02,64bec9d4550679f6de2a3689,right,1,0.6929,0.35,10,0.047573889,0.5963,,,,,,1,0,1,0,1,,,,,
,,433660,001,2023-07-24_12h58.38.300,arm3_q,2022.2.5,Win32,9.998900121,60e4a5d4b0e40567e60146e4,64aeaab685a29f4ca249be02,64bec9d4550679f6de2a3689,right,1,0.6929,0.35,10,0.022063786,0.576,,,,,,2,0,2,0,1,,,,,
,,433660,001,2023-07-24_12h58.38.300,arm3_q,2022.2.5,Win32,9.998900121,60e4a5d4b0e40567e60146e4,64aeaab685a29f4ca249be02,64bec9d4550679f6de2a3689,right,1,0.6929,0.35,10,0.046961559,0.5645,,,,,,3,0,3,0,1,,,,,
,,433660,001,2023-07-24_12h58.38.300,arm3_q,2022.2.5,Win32,9.998900121,60e4a5d4b0e40567e60146e4,64aeaab685a29f4ca249be02,64bec9d4550679f6de2a3689,right,1,0.6929,0.35,10,0.054505053,0.8653,,,,,,4,0,4,0,1,,,,,
,,433660,001,2023-07-24_12h58.38.300,arm3_q,2022.2.5,Win32,9.998900121,60e4a5d4b0e40567e60146e4,64aeaab685a29f4ca249be02,64bec9d4550679f6de2a3689,up,1,0.6929,0.35,11,0,0.5862,,,,,,5,0,5,0,1,,,,,
,,433660,001,2023-07-24_12h58.38.300,arm3_q,2022.2.5,Win32,9.998900121,60e4a5d4b0e40567e60146e4,64aeaab685a29f4ca249be02,64bec9d4550679f6de2a3689,right,1,0.6929,0.35,11,-0.016547399,0.5578,,,,,,6,0,6,0,1,,,,,
,,433660,001,2023-07-24_12h58.38.300,arm3_q,2022.2.5,Win32,9.998900121,60e4a5d4b0e40567e60146e4,64aeaab685a29f4ca249be02,64bec9d4550679f6de2a3689,right,1,0.6929,0.35,11,-0.014272412,0.4465,,,,,,7,0,7,0,1,,,,,
,,433660,001,2023-07-24_12h58.38.300,arm3_q,2022.2.5,Win32,9.998900121,60e4a5d4b0e40567e60146e4,64aeaab685a29f4ca249be02,64bec9d4550679f6de2a3689,right,1,0.6929,0.35,11,-0.025569824,0.4296,,,,,,8,0,8,0,1,,,,,
,,433660,001,2023-07-24_12h58.38.300,arm3_q,2022.2.5,Win32,9.998900121,60e4a5d4b0e40567e60146e4,64aeaab685a29f4ca249be02,64bec9d4550679f6de2a3689,right,1,0.6929,0.35,11,-0.016809029,0.4338,,,,,,9,0,9,0,1,,,,,
,,433660,001,2023-07-24_12h58.38.300,arm3_q,2022.2.5,Win32,9.998900121,60e4a5d4b0e40567e60146e4,64aeaab685a29f4ca249be02,64bec9d4550679f6de2a3689,right,1,0.6929,0.35,11,-0.00229571,0.4548,,,,,,10,0,10,0,1,,,,,
,,433660,001,2023-07-24_12h58.38.300,arm3_q,2022.2.5,Win32,9.998900121,60e4a5d4b0e40567e60146e4,64aeaab685a29f4ca249be02,64bec9d4550679f6de2a3689,right,1,0.6929,0.35,11,0.024657335,0.5676,,,,,,11,0,11,0,1,,,,,
,,433660,001,2023-07-24_12h58.38.300,arm3_q,2022.2.5,Win32,9.998900121,60e4a5d4b0e40567e60146e4,64aeaab685a29f4ca249be02,64bec9d4550679f6de2a3689,right,1,0.6929,0.35,11,0.045442153,0.4367,,,,,,12,0,12,0,1,,,,,
,,433660,001,2023-07-24_12h58.38.300,arm3_q,2022.2.5,Win32,9.998900121,60e4a5d4b0e40567e60146e4,64aeaab685a29f4ca249be02,64bec9d4550679f6de2a3689,right,1,0.6929,0.35,11,0.047459644,0.5777,,,,,,13,0,13,0,1,,,,,
,,433660,001,2023-07-24_12h58.38.300,arm3_q,2022.2.5,Win32,9.998900121,60e4a5d4b0e40567e60146e4,64aeaab685a29f4ca249be02,64bec9d4550679f6de2a3689,down,1,0.6929,0.35,10,0,0.7016,,,,,,14,0,14,0,1,,,,,
,,433660,001,2023-07-24_12h58.38.300,arm3_q,2022.2.5,Win32,9.998900121,60e4a5d4b0e40567e60146e4,64aeaab685a29f4ca249be02,64bec9d4550679f6de2a3689,right,1,0.6929,0.35,10,0.012322632,0.5797,,,,,,15,0,15,0,1,,,,,
,,433660,001,2023-07-24_12h58.38.300,arm3_q,2022.2.5,Win32,9.998900121,60e4a5d4b0e40567e60146e4,64aeaab685a29f4ca249be02,64bec9d4550679f6de2a3689,right,1,0.6929,0.35,10,0.040165298,0.435,,,,,,16,0,16,0,1,,,,,
,,433660,001,2023-07-24_12h58.38.300,arm3_q,2022.2.5,Win32,9.998900121,60e4a5d4b0e40567e60146e4,64aeaab685a29f4ca249be02,64bec9d4550679f6de2a3689,right,1,0.6929,0.35,10,0.045275386,0.4286,,,,,,17,0,17,0,1,,,,,
,,433660,001,2023-07-24_12h58.38.300,arm3_q,2022.2.5,Win32,9.998900121,60e4a5d4b0e40567e60146e4,64aeaab685a29f4ca249be02,64bec9d4550679f6de2a3689,right,1,0.6929,0.35,10,0.079715151,0.5948,,,,,,18,0,18,0,1,,,,,
,,433660,001,2023-07-24_12h58.38.300,arm3_q,2022.2.5,Win32,9.998900121,60e4a5d4b0e40567e60146e4,64aeaab685a29f4ca249be02,64bec9d4550679f6de2a3689,up,1,0.6929,0.35,11,0,0.1508,,,,,,19,0,19,0,1,,,,,
,,433660,001,2023-07-24_12h58.38.300,arm3_q,2022.2.5,Win32,9.998900121,60e4a5d4b0e40567e60146e4,64aeaab685a29f4ca249be02,64bec9d4550679f6de2a3689,right,1,0.6929,0.35,11,-0.015140657,3.4244,,,,,,20,0,20,0,1,,,,,
,,433660,001,2023-07-24_12h58.38.300,arm3_q,2022.2.5,Win32,9.998900121,60e4a5d4b0e40567e60146e4,64aeaab685a29f4ca249be02,64bec9d4550679f6de2a3689,right,1,0.6929,0.35,11,-0.054837047,0.8763,,,,,,21,0,21,0,1,,,,,
,,433660,001,2023-07-24_12h58.38.300,arm3_q,2022.2.5,Win32,9.998900121,60e4a5d4b0e40567e60146e4,64aeaab685a29f4ca249be02,64bec9d4550679f6de2a3689,right,1,0.6929,0.35,11,-0.053078395,0.432,,,,,,22,0,22,0,1,,,,,
,,433660,001,2023-07-24_12h58.38.300,arm3_q,2022.2.5,Win32,9.998900121,60e4a5d4b0e40567e60146e4,64aeaab685a29f4ca249be02,64bec9d4550679f6de2a3689,right,1,0.6929,0.35,11,-0.034051526,0.4489,,,,,,23,0,23,0,1,,,,,
,,433660,001,2023-07-24_12h58.38.300,arm3_q,2022.2.5,Win32,9.998900121,60e4a5d4b0e40567e60146e4,64aeaab685a29f4ca249be02,64bec9d4550679f6de2a3689,right,1,0.6929,0.35,11,-0.025961322,0.4384,,,,,,24,0,24,0,1,,,,,
,,433660,001,2023-07-24_12h58.38.300,arm3_q,2022.2.5,Win32,9.998900121,60e4a5d4b0e40567e60146e4,64aeaab685a29f4ca249be02,64bec9d4550679f6de2a3689,right,1,0.6929,0.35,11,0.008670081,0.4386,,,,,,25,0,25,0,1,,,,,
,,433660,001,2023-07-24_12h58.38.300,arm3_q,2022.2.5,Win32,9.998900121,60e4a5d4b0e40567e60146e4,64aeaab685a29f4ca249be02,64bec9d4550679f6de2a3689,right,1,0.6929,0.35,11,0.003934697,0.5656,,,,,,26,0,26,0,1,,,,,
,,433660,001,2023-07-24_12h58.38.300,arm3_q,2022.2.5,Win32,9.998900121,60e4a5d4b0e40567e60146e4,64aeaab685a29f4ca249be02,64bec9d4550679f6de2a3689,right,1,0.6929,0.35,11,0.007311529,0.5748,,,,,,27,0,27,0,1,,,,,
,,433660,001,2023-07-24_12h58.38.300,arm3_q,2022.2.5,Win32,9.998900121,60e4a5d4b0e40567e60146e4,64aeaab685a29f4ca249be02,64bec9d4550679f6de2a3689,right,1,0.6929,0.35,11,0.006123057,0.2954,,,,,,28,0,28,0,1,,,,,
,,433660,001,2023-07-24_12h58.38.300,arm3_q,2022.2.5,Win32,9.998900121,60e4a5d4b0e40567e60146e4,64aeaab685a29f4ca249be02,64bec9d4550679f6de2a3689,right,1,0.6929,0.35,11,0.009864909,0.5799,,,,,,29,0,29,0,1,,,,,
,,433660,001,2023-07-24_12h58.38.300,arm3_q,2022.2.5,Win32,9.998900121,60e4a5d4b0e40567e60146e4,64aeaab685a29f4ca249be02,64bec9d4550679f6de2a3689,down,1,0.6929,0.35,10,0,0.8623,,,,,,30,0,30,0,1,,,,,
,,433660,001,2023-07-24_12h58.38.300,arm3_q,2022.2.5,Win32,9.998900121,60e4a5d4b0e40567e60146e4,64aeaab685a29f4ca249be02,64bec9d4550679f6de2a3689,right,1,0.6929,0.35,10,-0.000457154,0.5834,,,,,,31,0,31,0,1,,,,,
,,433660,001,2023-07-24_12h58.38.300,arm3_q,2022.2.5,Win32,9.998900121,60e4a5d4b0e40567e60146e4,64aeaab685a29f4ca249be02,64bec9d4550679f6de2a3689,right,1,0.6929,0.35,10,0.046717035,0.4415,,,,,,32,0,32,0,1,,,,,
,,433660,001,2023-07-24_12h58.38.300,arm3_q,2022.2.5,Win32,9.998900121,60e4a5d4b0e40567e60146e4,64aeaab685a29f4ca249be02,64bec9d4550679f6de2a3689,right,1,0.6929,0.35,10,0.072929401,0.4262,,,,,,33,0,33,0,1,,,,,
,,433660,001,2023-07-24_12h58.38.300,arm3_q,2022.2.5,Win32,9.998900121,60e4a5d4b0e40567e60146e4,64aeaab685a29f4ca249be02,64bec9d4550679f6de2a3689,right,1,0.6929,0.35,10,0.087219979,0.4403,,,,,,34,0,34,0,1,,,,,
,,433660,001,2023-07-24_12h58.38.300,arm3_q,2022.2.5,Win32,9.998900121,60e4a5d4b0e40567e60146e4,64aeaab685a29f4ca249be02,64bec9d4550679f6de2a3689,up,-1,0.6929,0.35,11,0,0.4424,,,,,,35,0,35,0,1,,,,,
,,433660,001,2023-07-24_12h58.38.300,arm3_q,2022.2.5,Win32,9.998900121,60e4a5d4b0e40567e60146e4,64aeaab685a29f4ca249be02,64bec9d4550679f6de2a3689,right,-1,0.6929,0.35,11,-0.018043093,0.5636,,,,,,36,0,36,0,1,,,,,
,,433660,001,2023-07-24_12h58.38.300,arm3_q,2022.2.5,Win32,9.998900121,60e4a5d4b0e40567e60146e4,64aeaab685a29f4ca249be02,64bec9d4550679f6de2a3689,right,-1,0.6929,0.35,11,-0.039446899,0.5709,,,,,,37,0,37,0,1,,,,,
,,433660,001,2023-07-24_12h58.38.300,arm3_q,2022.2.5,Win32,9.998900121,60e4a5d4b0e40567e60146e4,64aeaab685a29f4ca249be02,64bec9d4550679f6de2a3689,right,-1,0.6929,0.35,11,-0.067601063,0.4441,,,,,,38,0,38,0,1,,,,,
,,433660,001,2023-07-24_12h58.38.300,arm3_q,2022.2.5,Win32,9.998900121,60e4a5d4b0e40567e60146e4,64aeaab685a29f4ca249be02,64bec9d4550679f6de2a3689,right,-1,0.6929,0.35,11,-0.084827108,0.4799,,,,,,39,0,39,0,1,,,,,
,,433660,001,2023-07-24_12h58.38.300,arm3_q,2022.2.5,Win32,9.998900121,60e4a5d4b0e40567e60146e4,64aeaab685a29f4ca249be02,64bec9d4550679f6de2a3689,down,-1,0.6929,0.35,11,0,0.4519,,,,,,40,0,40,0,1,,,,,
,,433660,001,2023-07-24_12h58.38.300,arm3_q,2022.2.5,Win32,9.998900121,60e4a5d4b0e40567e60146e4,64aeaab685a29f4ca249be02,64bec9d4550679f6de2a3689,right,-1,0.6929,0.35,11,-0.005488479,0.5804,,,,,,41,0,41,0,1,,,,,
,,433660,001,2023-07-24_12h58.38.300,arm3_q,2022.2.5,Win32,9.998900121,60e4a5d4b0e40567e60146e4,64aeaab685a29f4ca249be02,64bec9d4550679f6de2a3689,right,-1,0.6929,0.35,11,-0.028910263,0.4407,,,,,,42,0,42,0,1,,,,,
