space_bar.keys,space_bar.rt,participant,session,date,expName,psychopyVersion,OS,frameRate,PROLIFIC_PID,STUDY_ID,SESSION_ID,resp.keys,state,q_prob,eps_prob,score,price,resp.rt,train.thisRepN,train.thisTrialN,train.thisN,train.thisIndex,train.ran,steps.thisRepN,steps.thisTrialN,steps.thisN,steps.thisIndex,steps.ran,blocks.thisRepN,blocks.thisTrialN,blocks.thisN,blocks.thisIndex,blocks.ran
space,17.8989,441728,001,2023-07-24_19h58.30.271,arm3_q,2022.2.5,Win32,164.5278052,5f3ee36d0306de1a411882a5,64aeaab685a29f4ca249be02,64bec9c8c4b657fd277ede67,,,,,,,,,,,,,,,,,,,,,,
space,19.8109,441728,001,2023-07-24_19h58.30.271,arm3_q,2022.2.5,Win32,164.5278052,5f3ee36d0306de1a411882a5,64aeaab685a29f4ca249be02,64bec9c8c4b657fd277ede67,,,,,,,,,,,,,,,,,,,,,,
space,12.7405,441728,001,2023-07-24_19h58.30.271,arm3_q,2022.2.5,Win32,164.5278052,5f3ee36d0306de1a411882a5,64aeaab685a29f4ca249be02,64bec9c8c4b657fd277ede67,,,,,,,,,,,,,,,,,,,,,,
space,18.11,441728,001,2023-07-24_19h58.30.271,arm3_q,2022.2.5,Win32,164.5278052,5f3ee36d0306de1a411882a5,64aeaab685a29f4ca249be02,64bec9c8c4b657fd277ede67,,,,,,,,,,,,,,,,,,,,,,
space,21.8936,441728,001,2023-07-24_19h58.30.271,arm3_q,2022.2.5,Win32,164.5278052,5f3ee36d0306de1a411882a5,64aeaab685a29f4ca249be02,64bec9c8c4b657fd277ede67,,,,,,,,,,,,,,,,,,,,,,
space,24.7291,441728,001,2023-07-24_19h58.30.271,arm3_q,2022.2.5,Win32,164.5278052,5f3ee36d0306de1a411882a5,64aeaab685a29f4ca249be02,64bec9c8c4b657fd277ede67,,,,,,,,,,,,,,,,,,,,,,
space,19.6112,441728,001,2023-07-24_19h58.30.271,arm3_q,2022.2.5,Win32,164.5278052,5f3ee36d0306de1a411882a5,64aeaab685a29f4ca249be02,64bec9c8c4b657fd277ede67,,,,,,,,,,,,,,,,,,,,,,
space,14.2925,441728,001,2023-07-24_19h58.30.271,arm3_q,2022.2.5,Win32,164.5278052,5f3ee36d0306de1a411882a5,64aeaab685a29f4ca249be02,64bec9c8c4b657fd277ede67,,,,,,,,,,,,,,,,,,,,,,
space,9.9702,441728,001,2023-07-24_19h58.30.271,arm3_q,2022.2.5,Win32,164.5278052,5f3ee36d0306de1a411882a5,64aeaab685a29f4ca249be02,64bec9c8c4b657fd277ede67,,,,,,,,,,,,,,,,,,,,,,
space,8.0902,441728,001,2023-07-24_19h58.30.271,arm3_q,2022.2.5,Win32,164.5278052,5f3ee36d0306de1a411882a5,64aeaab685a29f4ca249be02,64bec9c8c4b657fd277ede67,,,,,,,,,,,,,,,,,,,,,,
,,441728,001,2023-07-24_19h58.30.271,arm3_q,2022.2.5,Win32,164.5278052,5f3ee36d0306de1a411882a5,64aeaab685a29f4ca249be02,64bec9c8c4b657fd277ede67,down,1,0.5643,0.35,0,0,2.9709,0,0,0,0,1,,,,,,,,,,
,,441728,001,2023-07-24_19h58.30.271,arm3_q,2022.2.5,Win32,164.5278052,5f3ee36d0306de1a411882a5,64aeaab685a29f4ca249be02,64bec9c8c4b657fd277ede67,down,-1,0.5643,0.35,-1,0,4.1928,1,0,1,0,1,,,,,,,,,,
,,441728,001,2023-07-24_19h58.30.271,arm3_q,2022.2.5,Win32,164.5278052,5f3ee36d0306de1a411882a5,64aeaab685a29f4ca249be02,64bec9c8c4b657fd277ede67,down,-1,0.5643,0.35,0,0,2.042,2,0,2,0,1,,,,,,,,,,
,,441728,001,2023-07-24_19h58.30.271,arm3_q,2022.2.5,Win32,164.5278052,5f3ee36d0306de1a411882a5,64aeaab685a29f4ca249be02,64bec9c8c4b657fd277ede67,right,-1,0.5643,0.35,0,-0.033771875,1.7304,3,0,3,0,1,,,,,,,,,,
,,441728,001,2023-07-24_19h58.30.271,arm3_q,2022.2.5,Win32,164.5278052,5f3ee36d0306de1a411882a5,64aeaab685a29f4ca249be02,64bec9c8c4b657fd277ede67,right,-1,0.5643,0.35,0,-0.036766729,2.3132,4,0,4,0,1,,,,,,,,,,
,,441728,001,2023-07-24_19h58.30.271,arm3_q,2022.2.5,Win32,164.5278052,5f3ee36d0306de1a411882a5,64aeaab685a29f4ca249be02,64bec9c8c4b657fd277ede67,up,-1,0.5643,0.35,0,0,0.9618,5,0,5,0,1,,,,,,,,,,
,,441728,001,2023-07-24_19h58.30.271,arm3_q,2022.2.5,Win32,164.5278052,5f3ee36d0306de1a411882a5,64aeaab685a29f4ca249be02,64bec9c8c4b657fd277ede67,right,-1,0.5643,0.35,0,-0.015538581,3.961,6,0,6,0,1,,,,,,,,,,
,,441728,001,2023-07-24_19h58.30.271,arm3_q,2022.2.5,Win32,164.5278052,5f3ee36d0306de1a411882a5,64aeaab685a29f4ca249be02,64bec9c8c4b657fd277ede67,right,-1,0.5643,0.35,0,-0.029383623,1.1859,7,0,7,0,1,,,,,,,,,,
,,441728,001,2023-07-24_19h58.30.271,arm3_q,2022.2.5,Win32,164.5278052,5f3ee36d0306de1a411882a5,64aeaab685a29f4ca249be02,64bec9c8c4b657fd277ede67,right,-1,0.5643,0.35,0,-0.021005788,0.9218,8,0,8,0,1,,,,,,,,,,
,,441728,001,2023-07-24_19h58.30.271,arm3_q,2022.2.5,Win32,164.5278052,5f3ee36d0306de1a411882a5,64aeaab685a29f4ca249be02,64bec9c8c4b657fd277ede67,up,-1,0.5643,0.35,0,0,1.04,9,0,9,0,1,,,,,,,,,,
,,441728,001,2023-07-24_19h58.30.271,arm3_q,2022.2.5,Win32,164.5278052,5f3ee36d0306de1a411882a5,64aeaab685a29f4ca249be02,64bec9c8c4b657fd277ede67,right,-1,0.5643,0.35,0,-0.028810951,1.2016,10,0,10,0,1,,,,,,,,,,
,,441728,001,2023-07-24_19h58.30.271,arm3_q,2022.2.5,Win32,164.5278052,5f3ee36d0306de1a411882a5,64aeaab685a29f4ca249be02,64bec9c8c4b657fd277ede67,right,-1,0.5643,0.35,0,-0.026201511,1.1053,11,0,11,0,1,,,,,,,,,,
,,441728,001,2023-07-24_19h58.30.271,arm3_q,2022.2.5,Win32,164.5278052,5f3ee36d0306de1a411882a5,64aeaab685a29f4ca249be02,64bec9c8c4b657fd277ede67,down,1,0.5643,0.35,0,0,1.3035,12,0,12,0,1,,,,,,,,,,
,,441728,001,2023-07-24_19h58.30.271,arm3_q,2022.2.5,Win32,164.5278052,5f3ee36d0306de1a411882a5,64aeaab685a29f4ca249be02,64bec9c8c4b657fd277ede67,right,1,0.5643,0.35,0,0.012603361,1.2216,13,0,13,0,1,,,,,,,,,,
,,441728,001,2023-07-24_19h58.30.271,arm3_q,2022.2.5,Win32,164.5278052,5f3ee36d0306de1a411882a5,64aeaab685a29f4ca249be02,64bec9c8c4b657fd277ede67,right,1,0.5643,0.35,0,-0.021347987,1.0919,14,0,14,0,1,,,,,,,,,,
,,441728,001,2023-07-24_19h58.30.271,arm3_q,2022.2.5,Win32,164.5278052,5f3ee36d0306de1a411882a5,64aeaab685a29f4ca249be02,64bec9c8c4b657fd277ede67,right,1,0.5643,0.35,0,-0.012864924,1.1936,15,0,15,0,1,,,,,,,,,,
,,441728,001,2023-07-24_19h58.30.271,arm3_q,2022.2.5,Win32,164.5278052,5f3ee36d0306de1a411882a5,64aeaab685a29f4ca249be02,64bec9c8c4b657fd277ede67,up,-1,0.5643,0.35,1,0,0.697,16,0,16,0,1,,,,,,,,,,
,,441728,001,2023-07-24_19h58.30.271,arm3_q,2022.2.5,Win32,164.5278052,5f3ee36d0306de1a411882a5,64aeaab685a29f4ca249be02,64bec9c8c4b657fd277ede67,right,-1,0.5643,0.35,1,-0.04648989,2.6031,17,0,17,0,1,,,,,,,,,,
,,441728,001,2023-07-24_19h58.30.271,arm3_q,2022.2.5,Win32,164.5278052,5f3ee36d0306de1a411882a5,64aeaab685a29f4ca249be02,64bec9c8c4b657fd277ede67,right,-1,0.5643,0.35,1,-0.058001231,1.0473,18,0,18,0,1,,,,,,,,,,
,,441728,001,2023-07-24_19h58.30.271,arm3_q,2022.2.5,Win32,164.5278052,5f3ee36d0306de1a411882a5,64aeaab685a29f4ca249be02,64bec9c8c4b657fd277ede67,right,-1,0.5643,0.35,1,-0.067847666,0.8328,19,0,19,0,1,,,,,,,,,,
,,441728,001,2023-07-24_19h58.30.271,arm3_q,2022.2.5,Win32,164.5278052,5f3ee36d0306de1a411882a5,64aeaab685a29f4ca249be02,64bec9c8c4b657fd277ede67,right,-1,0.5643,0.35,1,-0.072903871,0.5318,20,0,20,0,1,,,,,,,,,,
,,441728,001,2023-07-24_19h58.30.271,arm3_q,2022.2.5,Win32,164.5278052,5f3ee36d0306de1a411882a5,64aeaab685a29f4ca249be02,64bec9c8c4b657fd277ede67,right,-1,0.5643,0.35,1,-0.058964762,0.6242,21,0,21,0,1,,,,,,,,,,
,,441728,001,2023-07-24_19h58.30.271,arm3_q,2022.2.5,Win32,164.5278052,5f3ee36d0306de1a411882a5,64aeaab685a29f4ca249be02,64bec9c8c4b657fd277ede67,right,-1,0.5643,0.35,1,-0.078795226,0.3561,22,0,22,0,1,,,,,,,,,,
,,441728,001,2023-07-24_19h58.30.271,arm3_q,2022.2.5,Win32,164.5278052,5f3ee36d0306de1a411882a5,64aeaab685a29f4ca249be02,64bec9c8c4b657fd277ede67,right,-1,0.5643,0.35,1,-0.107137672,0.3678,23,0,23,0,1,,,,,,,,,,
,,441728,001,2023-07-24_19h58.30.271,arm3_q,2022.2.5,Win32,164.5278052,5f3ee36d0306de1a411882a5,64aeaab685a29f4ca249be02,64bec9c8c4b657fd277ede67,right,-1,0.5643,0.35,1,-0.1085567,0.4408,24,0,24,0,1,,,,,,,,,,
,,441728,001,2023-07-24_19h58.30.271,arm3_q,2022.2.5,Win32,164.5278052,5f3ee36d0306de1a411882a5,64aeaab685a29f4ca249be02,64bec9c8c4b657fd277ede67,right,-1,0.5643,0.35,1,-0.132599532,0.3496,25,0,25,0,1,,,,,,,,,,
,,441728,001,2023-07-24_19h58.30.271,arm3_q,2022.2.5,Win32,164.5278052,5f3ee36d0306de1a411882a5,64aeaab685a29f4ca249be02,64bec9c8c4b657fd277ede67,right,-1,0.5643,0.35,1,-0.154186734,0.2974,26,0,26,0,1,,,,,,,,,,
,,441728,001,2023-07-24_19h58.30.271,arm3_q,2022.2.5,Win32,164.5278052,5f3ee36d0306de1a411882a5,64aeaab685a29f4ca249be02,64bec9c8c4b657fd277ede67,down,-1,0.5643,0.35,1,0,0.6583,27,0,27,0,1,,,,,,,,,,
,,441728,001,2023-07-24_19h58.30.271,arm3_q,2022.2.5,Win32,164.5278052,5f3ee36d0306de1a411882a5,64aeaab685a29f4ca249be02,64bec9c8c4b657fd277ede67,right,-1,0.5643,0.35,1,0.00319028,1.0071,28,0,28,0,1,,,,,,,,,,
,,441728,001,2023-07-24_19h58.30.271,arm3_q,2022.2.5,Win32,164.5278052,5f3ee36d0306de1a411882a5,64aeaab685a29f4ca249be02,64bec9c8c4b657fd277ede67,right,-1,0.5643,0.35,1,0.025674727,0.569,29,0,29,0,1,,,,,,,,,,
,,441728,001,2023-07-24_19h58.30.271,arm3_q,2022.2.5,Win32,164.5278052,5f3ee36d0306de1a411882a5,64aeaab685a29f4ca249be02,64bec9c8c4b657fd277ede67,right,-1,0.5643,0.35,1,0.03451952,1.7061,30,0,30,0,1,,,,,,,,,,
,,441728,001,2023-07-24_19h58.30.271,arm3_q,2022.2.5,Win32,164.5278052,5f3ee36d0306de1a411882a5,64aeaab685a29f4ca249be02,64bec9c8c4b657fd277ede67,right,-1,0.5643,0.35,1,0.023841939,0.5099,31,0,31,0,1,,,,,,,,,,
,,441728,001,2023-07-24_19h58.30.271,arm3_q,2022.2.5,Win32,164.5278052,5f3ee36d0306de1a411882a5,64aeaab685a29f4ca249be02,64bec9c8c4b657fd277ede67,right,-1,0.5643,0.35,1,-0.014588325,0.8356,32,0,32,0,1,,,,,,,,,,
,,441728,001,2023-07-24_19h58.30.271,arm3_q,2022.2.5,Win32,164.5278052,5f3ee36d0306de1a411882a5,64aeaab685a29f4ca249be02,64bec9c8c4b657fd277ede67,right,-1,0.5643,0.35,1,-0.024109036,0.7387,33,0,33,0,1,,,,,,,,,,
,,441728,001,2023-07-24_19h58.30.271,arm3_q,2022.2.5,Win32,164.5278052,5f3ee36d0306de1a411882a5,64aeaab685a29f4ca249be02,64bec9c8c4b657fd277ede67,right,-1,0.5643,0.35,1,-0.050718484,0.3987,34,0,34,0,1,,,,,,,,,,
,,441728,001,2023-07-24_19h58.30.271,arm3_q,2022.2.5,Win32,164.5278052,5f3ee36d0306de1a411882a5,64aeaab685a29f4ca249be02,64bec9c8c4b657fd277ede67,down,-1,0.5643,0.35,2,0,0.489,35,0,35,0,1,,,,,,,,,,
,,441728,001,2023-07-24_19h58.30.271,arm3_q,2022.2.5,Win32,164.5278052,5f3ee36d0306de1a411882a5,64aeaab685a29f4ca249be02,64bec9c8c4b657fd277ede67,right,-1,0.5643,0.35,2,-0.006427294,8.1648,36,0,36,0,1,,,,,,,,,,
,,441728,001,2023-07-24_19h58.30.271,arm3_q,2022.2.5,Win32,164.5278052,5f3ee36d0306de1a411882a5,64aeaab685a29f4ca249be02,64bec9c8c4b657fd277ede67,right,-1,0.5643,0.35,2,0.01078902,0.6711,37,0,37,0,1,,,,,,,,,,
,,441728,001,2023-07-24_19h58.30.271,arm3_q,2022.2.5,Win32,164.5278052,5f3ee36d0306de1a411882a5,64aeaab685a29f4ca249be02,64bec9c8c4b657fd277ede67,right,-1,0.5643,0.35,2,0.006774725,0.5582,38,0,38,0,1,,,,,,,,,,
,,441728,001,2023-07-24_19h58.30.271,arm3_q,2022.2.5,Win32,164.5278052,5f3ee36d0306de1a411882a5,64aeaab685a29f4ca249be02,64bec9c8c4b657fd277ede67,right,-1,0.5643,0.35,2,-0.015013274,0.5946,39,0,39,0,1,,,,,,,,,,
,,441728,001,2023-07-24_19h58.30.271,arm3_q,2022.2.5,Win32,164.5278052,5f3ee36d0306de1a411882a5,64aeaab685a29f4ca249be02,64bec9c8c4b657fd277ede67,right,-1,0.5643,0.35,2,-0.027348054,0.7467,40,0,40,0,1,,,,,,,,,,
,,441728,001,2023-07-24_19h58.30.271,arm3_q,2022.2.5,Win32,164.5278052,5f3ee36d0306de1a411882a5,64aeaab685a29f4ca249be02,64bec9c8c4b657fd277ede67,right,-1,0.5643,0.35,2,-0.052480657,0.6821,41,0,41,0,1,,,,,,,,,,
,,441728,001,2023-07-24_19h58.30.271,arm3_q,2022.2.5,Win32,164.5278052,5f3ee36d0306de1a411882a5,64aeaab685a29f4ca249be02,64bec9c8c4b657fd277ede67,down,-1,0.5643,0.35,3,0,0.9178,42,0,42,0,1,,,,,,,,,,
,,441728,001,2023-07-24_19h58.30.271,arm3_q,2022.2.5,Win32,164.5278052,5f3ee36d0306de1a411882a5,64aeaab685a29f4ca249be02,64bec9c8c4b657fd277ede67,right,-1,0.5643,0.35,3,-0.021525708,1.9022,43,0,43,0,1,,,,,,,,,,
,,441728,001,2023-07-24_19h58.30.271,arm3_q,2022.2.5,Win32,164.5278052,5f3ee36d0306de1a411882a5,64aeaab685a29f4ca249be02,64bec9c8c4b657fd277ede67,right,-1,0.5643,0.35,3,0.011375773,0.7237,44,0,44,0,1,,,,,,,,,,
,,441728,001,2023-07-24_19h58.30.271,arm3_q,2022.2.5,Win32,164.5278052,5f3ee36d0306de1a411882a5,64aeaab685a29f4ca249be02,64bec9c8c4b657fd277ede67,right,-1,0.5643,0.35,3,0.029385146,0.7811,45,0,45,0,1,,,,,,,,,,
,,441728,001,2023-07-24_19h58.30.271,arm3_q,2022.2.5,Win32,164.5278052,5f3ee36d0306de1a411882a5,64aeaab685a29f4ca249be02,64bec9c8c4b657fd277ede67,up,-1,0.5643,0.35,3,0,0.7994,46,0,46,0,1,,,,,,,,,,
,,441728,001,2023-07-24_19h58.30.271,arm3_q,2022.2.5,Win32,164.5278052,5f3ee36d0306de1a411882a5,64aeaab685a29f4ca249be02,64bec9c8c4b657fd277ede67,right,-1,0.5643,0.35,3,-0.007481549,1.0719,47,0,47,0,1,,,,,,,,,,
,,441728,001,2023-07-24_19h58.30.271,arm3_q,2022.2.5,Win32,164.5278052,5f3ee36d0306de1a411882a5,64aeaab685a29f4ca249be02,64bec9c8c4b657fd277ede67,down,1,0.5643,0.35,4,0,0.7557,48,0,48,0,1,,,,,,,,,,
,,441728,001,2023-07-24_19h58.30.271,arm3_q,2022.2.5,Win32,164.5278052,5f3ee36d0306de1a411882a5,64aeaab685a29f4ca249be02,64bec9c8c4b657fd277ede67,right,1,0.5643,0.35,4,0.020174781,1.3407,49,0,49,0,1,,,,,,,,,,
space,1.5192,441728,001,2023-07-24_19h58.30.271,arm3_q,2022.2.5,Win32,164.5278052,5f3ee36d0306de1a411882a5,64aeaab685a29f4ca249be02,64bec9c8c4b657fd277ede67,,,,,,,,,,,,,,,,,,,,,,
space,3.7189,441728,001,2023-07-24_19h58.30.271,arm3_q,2022.2.5,Win32,164.5278052,5f3ee36d0306de1a411882a5,64aeaab685a29f4ca249be02,64bec9c8c4b657fd277ede67,right,1,0.4357,0.35,0,0.021482338,1.3581,,,,,,0,0,0,0,1,,,,,
,,441728,001,2023-07-24_19h58.30.271,arm3_q,2022.2.5,Win32,164.5278052,5f3ee36d0306de1a411882a5,64aeaab685a29f4ca249be02,64bec9c8c4b657fd277ede67,right,1,0.4357,0.35,0,0.023077703,0.7368,,,,,,1,0,1,0,1,,,,,
,,441728,001,2023-07-24_19h58.30.271,arm3_q,2022.2.5,Win32,164.5278052,5f3ee36d0306de1a411882a5,64aeaab685a29f4ca249be02,64bec9c8c4b657fd277ede67,right,1,0.4357,0.35,0,0.010189561,1.1137,,,,,,2,0,2,0,1,,,,,
,,441728,001,2023-07-24_19h58.30.271,arm3_q,2022.2.5,Win32,164.5278052,5f3ee36d0306de1a411882a5,64aeaab685a29f4ca249be02,64bec9c8c4b657fd277ede67,up,1,0.4357,0.35,0,0,1.9515,,,,,,3,0,3,0,1,,,,,
,,441728,001,2023-07-24_19h58.30.271,arm3_q,2022.2.5,Win32,164.5278052,5f3ee36d0306de1a411882a5,64aeaab685a29f4ca249be02,64bec9c8c4b657fd277ede67,right,1,0.4357,0.35,0,0.012284197,0.9018,,,,,,4,0,4,0,1,,,,,
,,441728,001,2023-07-24_19h58.30.271,arm3_q,2022.2.5,Win32,164.5278052,5f3ee36d0306de1a411882a5,64aeaab685a29f4ca249be02,64bec9c8c4b657fd277ede67,right,1,0.4357,0.35,0,0.005424472,0.4289,,,,,,5,0,5,0,1,,,,,
,,441728,001,2023-07-24_19h58.30.271,arm3_q,2022.2.5,Win32,164.5278052,5f3ee36d0306de1a411882a5,64aeaab685a29f4ca249be02,64bec9c8c4b657fd277ede67,right,1,0.4357,0.35,0,0.026991107,1.1437,,,,,,6,0,6,0,1,,,,,
,,441728,001,2023-07-24_19h58.30.271,arm3_q,2022.2.5,Win32,164.5278052,5f3ee36d0306de1a411882a5,64aeaab685a29f4ca249be02,64bec9c8c4b657fd277ede67,up,-1,0.4357,0.35,1,0,0.9442,,,,,,7,0,7,0,1,,,,,
,,441728,001,2023-07-24_19h58.30.271,arm3_q,2022.2.5,Win32,164.5278052,5f3ee36d0306de1a411882a5,64aeaab685a29f4ca249be02,64bec9c8c4b657fd277ede67,right,-1,0.4357,0.35,1,-0.06079211,1.0681,,,,,,8,0,8,0,1,,,,,
,,441728,001,2023-07-24_19h58.30.271,arm3_q,2022.2.5,Win32,164.5278052,5f3ee36d0306de1a411882a5,64aeaab685a29f4ca249be02,64bec9c8c4b657fd277ede67,right,-1,0.4357,0.35,1,-0.05084143,0.449,,,,,,9,0,9,0,1,,,,,
,,441728,001,2023-07-24_19h58.30.271,arm3_q,2022.2.5,Win32,164.5278052,5f3ee36d0306de1a411882a5,64aeaab685a29f4ca249be02,64bec9c8c4b657fd277ede67,right,-1,0.4357,0.35,1,-0.057904085,0.5854,,,,,,10,0,10,0,1,,,,,
,,441728,001,2023-07-24_19h58.30.271,arm3_q,2022.2.5,Win32,164.5278052,5f3ee36d0306de1a411882a5,64aeaab685a29f4ca249be02,64bec9c8c4b657fd277ede67,down,-1,0.4357,0.35,2,0,0.375,,,,,,11,0,11,0,1,,,,,
,,441728,001,2023-07-24_19h58.30.271,arm3_q,2022.2.5,Win32,164.5278052,5f3ee36d0306de1a411882a5,64aeaab685a29f4ca249be02,64bec9c8c4b657fd277ede67,right,-1,0.4357,0.35,2,-0.030015383,1.0632,,,,,,12,0,12,0,1,,,,,
,,441728,001,2023-07-24_19h58.30.271,arm3_q,2022.2.5,Win32,164.5278052,5f3ee36d0306de1a411882a5,64aeaab685a29f4ca249be02,64bec9c8c4b657fd277ede67,right,-1,0.4357,0.35,2,-0.038330394,0.4002,,,,,,13,0,13,0,1,,,,,
,,441728,001,2023-07-24_19h58.30.271,arm3_q,2022.2.5,Win32,164.5278052,5f3ee36d0306de1a411882a5,64aeaab685a29f4ca249be02,64bec9c8c4b657fd277ede67,down,-1,0.4357,0.35,2,0,0.6348,,,,,,14,0,14,0,1,,,,,
,,441728,001,2023-07-24_19h58.30.271,arm3_q,2022.2.5,Win32,164.5278052,5f3ee36d0306de1a411882a5,64aeaab685a29f4ca249be02,64bec9c8c4b657fd277ede67,right,-1,0.4357,0.35,2,0.006447737,1.0044,,,,,,15,0,15,0,1,,,,,
,,441728,001,2023-07-24_19h58.30.271,arm3_q,2022.2.5,Win32,164.5278052,5f3ee36d0306de1a411882a5,64aeaab685a29f4ca249be02,64bec9c8c4b657fd277ede67,right,-1,0.4357,0.35,2,-0.013854909,0.3571,,,,,,16,0,16,0,1,,,,,
,,441728,001,2023-07-24_19h58.30.271,arm3_q,2022.2.5,Win32,164.5278052,5f3ee36d0306de1a411882a5,64aeaab685a29f4ca249be02,64bec9c8c4b657fd277ede67,right,-1,0.4357,0.35,2,0.001309844,0.4657,,,,,,17,0,17,0,1,,,,,
,,441728,001,2023-07-24_19h58.30.271,arm3_q,2022.2.5,Win32,164.5278052,5f3ee36d0306de1a411882a5,64aeaab685a29f4ca249be02,64bec9c8c4b657fd277ede67,right,-1,0.4357,0.35,2,0.023349605,0.4355,,,,,,18,0,18,0,1,,,,,
,,441728,001,2023-07-24_19h58.30.271,arm3_q,2022.2.5,Win32,164.5278052,5f3ee36d0306de1a411882a5,64aeaab685a29f4ca249be02,64bec9c8c4b657fd277ede67,right,-1,0.4357,0.35,2,0.021017619,0.3983,,,,,,19,0,19,0,1,,,,,
,,441728,001,2023-07-24_19h58.30.271,arm3_q,2022.2.5,Win32,164.5278052,5f3ee36d0306de1a411882a5,64aeaab685a29f4ca249be02,64bec9c8c4b657fd277ede67,right,-1,0.4357,0.35,2,0.026725929,0.3758,,,,,,20,0,20,0,1,,,,,
,,441728,001,2023-07-24_19h58.30.271,arm3_q,2022.2.5,Win32,164.5278052,5f3ee36d0306de1a411882a5,64aeaab685a29f4ca249be02,64bec9c8c4b657fd277ede67,right,-1,0.4357,0.35,2,0.009389929,0.4844,,,,,,21,0,21,0,1,,,,,
,,441728,001,2023-07-24_19h58.30.271,arm3_q,2022.2.5,Win32,164.5278052,5f3ee36d0306de1a411882a5,64aeaab685a29f4ca249be02,64bec9c8c4b657fd277ede67,right,-1,0.4357,0.35,2,-0.018937876,0.4713,,,,,,22,0,22,0,1,,,,,
,,441728,001,2023-07-24_19h58.30.271,arm3_q,2022.2.5,Win32,164.5278052,5f3ee36d0306de1a411882a5,64aeaab685a29f4ca249be02,64bec9c8c4b657fd277ede67,down,-1,0.4357,0.35,3,0,0.5679,,,,,,23,0,23,0,1,,,,,
,,441728,001,2023-07-24_19h58.30.271,arm3_q,2022.2.5,Win32,164.5278052,5f3ee36d0306de1a411882a5,64aeaab685a29f4ca249be02,64bec9c8c4b657fd277ede67,right,-1,0.4357,0.35,3,-0.041879738,0.7819,,,,,,24,0,24,0,1,,,,,
,,441728,001,2023-07-24_19h58.30.271,arm3_q,2022.2.5,Win32,164.5278052,5f3ee36d0306de1a411882a5,64aeaab685a29f4ca249be02,64bec9c8c4b657fd277ede67,right,-1,0.4357,0.35,3,-0.037150251,0.3583,,,,,,25,0,25,0,1,,,,,
,,441728,001,2023-07-24_19h58.30.271,arm3_q,2022.2.5,Win32,164.5278052,5f3ee36d0306de1a411882a5,64aeaab685a29f4ca249be02,64bec9c8c4b657fd277ede67,right,-1,0.4357,0.35,3,-0.08115327,0.5319,,,,,,26,0,26,0,1,,,,,
,,441728,001,2023-07-24_19h58.30.271,arm3_q,2022.2.5,Win32,164.5278052,5f3ee36d0306de1a411882a5,64aeaab685a29f4ca249be02,64bec9c8c4b657fd277ede67,down,1,0.4357,0.35,3,0,0.4891,,,,,,27,0,27,0,1,,,,,
,,441728,001,2023-07-24_19h58.30.271,arm3_q,2022.2.5,Win32,164.5278052,5f3ee36d0306de1a411882a5,64aeaab685a29f4ca249be02,64bec9c8c4b657fd277ede67,right,1,0.4357,0.35,3,-0.02775784,1.0035,,,,,,28,0,28,0,1,,,,,
,,441728,001,2023-07-24_19h58.30.271,arm3_q,2022.2.5,Win32,164.5278052,5f3ee36d0306de1a411882a5,64aeaab685a29f4ca249be02,64bec9c8c4b657fd277ede67,right,1,0.4357,0.35,3,-0.043360972,0.3316,,,,,,29,0,29,0,1,,,,,
,,441728,001,2023-07-24_19h58.30.271,arm3_q,2022.2.5,Win32,164.5278052,5f3ee36d0306de1a411882a5,64aeaab685a29f4ca249be02,64bec9c8c4b657fd277ede67,right,1,0.4357,0.35,3,-0.023553317,0.3198,,,,,,30,0,30,0,1,,,,,
,,441728,001,2023-07-24_19h58.30.271,arm3_q,2022.2.5,Win32,164.5278052,5f3ee36d0306de1a411882a5,64aeaab685a29f4ca249be02,64bec9c8c4b657fd277ede67,right,1,0.4357,0.35,3,-0.010099224,0.3443,,,,,,31,0,31,0,1,,,,,
,,441728,001,2023-07-24_19h58.30.271,arm3_q,2022.2.5,Win32,164.5278052,5f3ee36d0306de1a411882a5,64aeaab685a29f4ca249be02,64bec9c8c4b657fd277ede67,right,1,0.4357,0.35,3,-0.001774573,0.3837,,,,,,32,0,32,0,1,,,,,
,,441728,001,2023-07-24_19h58.30.271,arm3_q,2022.2.5,Win32,164.5278052,5f3ee36d0306de1a411882a5,64aeaab685a29f4ca249be02,64bec9c8c4b657fd277ede67,up,-1,0.4357,0.35,4,0,0.4515,,,,,,33,0,33,0,1,,,,,
,,441728,001,2023-07-24_19h58.30.271,arm3_q,2022.2.5,Win32,164.5278052,5f3ee36d0306de1a411882a5,64aeaab685a29f4ca249be02,64bec9c8c4b657fd277ede67,right,-1,0.4357,0.35,4,-0.01477447,0.7657,,,,,,34,0,34,0,1,,,,,
,,441728,001,2023-07-24_19h58.30.271,arm3_q,2022.2.5,Win32,164.5278052,5f3ee36d0306de1a411882a5,64aeaab685a29f4ca249be02,64bec9c8c4b657fd277ede67,right,-1,0.4357,0.35,4,-0.06154057,0.4466,,,,,,35,0,35,0,1,,,,,
,,441728,001,2023-07-24_19h58.30.271,arm3_q,2022.2.5,Win32,164.5278052,5f3ee36d0306de1a411882a5,64aeaab685a29f4ca249be02,64bec9c8c4b657fd277ede67,right,-1,0.4357,0.35,4,-0.068827947,0.3844,,,,,,36,0,36,0,1,,,,,
,,441728,001,2023-07-24_19h58.30.271,arm3_q,2022.2.5,Win32,164.5278052,5f3ee36d0306de1a411882a5,64aeaab685a29f4ca249be02,64bec9c8c4b657fd277ede67,right,-1,0.4357,0.35,4,-0.070839931,0.4468,,,,,,37,0,37,0,1,,,,,
,,441728,001,2023-07-24_19h58.30.271,arm3_q,2022.2.5,Win32,164.5278052,5f3ee36d0306de1a411882a5,64aeaab685a29f4ca249be02,64bec9c8c4b657fd277ede67,down,1,0.4357,0.35,5,0,0.3895,,,,,,38,0,38,0,1,,,,,
,,441728,001,2023-07-24_19h58.30.271,arm3_q,2022.2.5,Win32,164.5278052,5f3ee36d0306de1a411882a5,64aeaab685a29f4ca249be02,64bec9c8c4b657fd277ede67,right,1,0.4357,0.35,5,0.010957638,0.8009,,,,,,39,0,39,0,1,,,,,
,,441728,001,2023-07-24_19h58.30.271,arm3_q,2022.2.5,Win32,164.5278052,5f3ee36d0306de1a411882a5,64aeaab685a29f4ca249be02,64bec9c8c4b657fd277ede67,right,1,0.4357,0.35,5,-0.004319244,0.3512,,,,,,40,0,40,0,1,,,,,
,,441728,001,2023-07-24_19h58.30.271,arm3_q,2022.2.5,Win32,164.5278052,5f3ee36d0306de1a411882a5,64aeaab685a29f4ca249be02,64bec9c8c4b657fd277ede67,right,1,0.4357,0.35,5,-0.032752233,0.3695,,,,,,41,0,41,0,1,,,,,
,,441728,001,2023-07-24_19h58.30.271,arm3_q,2022.2.5,Win32,164.5278052,5f3ee36d0306de1a411882a5,64aeaab685a29f4ca249be02,64bec9c8c4b657fd277ede67,right,1,0.4357,0.35,5,-0.018166837,0.3935,,,,,,42,0,42,0,1,,,,,
,,441728,001,2023-07-24_19h58.30.271,arm3_q,2022.2.5,Win32,164.5278052,5f3ee36d0306de1a411882a5,64aeaab685a29f4ca249be02,64bec9c8c4b657fd277ede67,right,1,0.4357,0.35,5,0.005500838,0.5928,,,,,,43,0,43,0,1,,,,,
,,441728,001,2023-07-24_19h58.30.271,arm3_q,2022.2.5,Win32,164.5278052,5f3ee36d0306de1a411882a5,64aeaab685a29f4ca249be02,64bec9c8c4b657fd277ede67,up,1,0.4357,0.35,6,0,0.7933,,,,,,44,0,44,0,1,,,,,
,,441728,001,2023-07-24_19h58.30.271,arm3_q,2022.2.5,Win32,164.5278052,5f3ee36d0306de1a411882a5,64aeaab685a29f4ca249be02,64bec9c8c4b657fd277ede67,right,1,0.4357,0.35,6,-0.000622905,0.7505,,,,,,45,0,45,0,1,,,,,
,,441728,001,2023-07-24_19h58.30.271,arm3_q,2022.2.5,Win32,164.5278052,5f3ee36d0306de1a411882a5,64aeaab685a29f4ca249be02,64bec9c8c4b657fd277ede67,right,1,0.4357,0.35,6,-0.019502639,0.3949,,,,,,46,0,46,0,1,,,,,
,,441728,001,2023-07-24_19h58.30.271,arm3_q,2022.2.5,Win32,164.5278052,5f3ee36d0306de1a411882a5,64aeaab685a29f4ca249be02,64bec9c8c4b657fd277ede67,right,1,0.4357,0.35,6,0.016276227,0.5392,,,,,,47,0,47,0,1,,,,,
,,441728,001,2023-07-24_19h58.30.271,arm3_q,2022.2.5,Win32,164.5278052,5f3ee36d0306de1a411882a5,64aeaab685a29f4ca249be02,64bec9c8c4b657fd277ede67,right,1,0.4357,0.35,6,0.019714168,0.3625,,,,,,48,0,48,0,1,,,,,
,,441728,001,2023-07-24_19h58.30.271,arm3_q,2022.2.5,Win32,164.5278052,5f3ee36d0306de1a411882a5,64aeaab685a29f4ca249be02,64bec9c8c4b657fd277ede67,right,1,0.4357,0.35,6,0.037796058,0.3676,,,,,,49,0,49,0,1,,,,,
,,441728,001,2023-07-24_19h58.30.271,arm3_q,2022.2.5,Win32,164.5278052,5f3ee36d0306de1a411882a5,64aeaab685a29f4ca249be02,64bec9c8c4b657fd277ede67,up,1,0.4357,0.35,6,0,0.5028,,,,,,50,0,50,0,1,,,,,
,,441728,001,2023-07-24_19h58.30.271,arm3_q,2022.2.5,Win32,164.5278052,5f3ee36d0306de1a411882a5,64aeaab685a29f4ca249be02,64bec9c8c4b657fd277ede67,right,1,0.4357,0.35,6,0.004798435,0.7532,,,,,,51,0,51,0,1,,,,,
,,441728,001,2023-07-24_19h58.30.271,arm3_q,2022.2.5,Win32,164.5278052,5f3ee36d0306de1a411882a5,64aeaab685a29f4ca249be02,64bec9c8c4b657fd277ede67,right,1,0.4357,0.35,6,0.057906389,0.3101,,,,,,52,0,52,0,1,,,,,
,,441728,001,2023-07-24_19h58.30.271,arm3_q,2022.2.5,Win32,164.5278052,5f3ee36d0306de1a411882a5,64aeaab685a29f4ca249be02,64bec9c8c4b657fd277ede67,right,1,0.4357,0.35,6,0.064796551,0.6342,,,,,,53,0,53,0,1,,,,,
,,441728,001,2023-07-24_19h58.30.271,arm3_q,2022.2.5,Win32,164.5278052,5f3ee36d0306de1a411882a5,64aeaab685a29f4ca249be02,64bec9c8c4b657fd277ede67,right,1,0.4357,0.35,6,0.069733411,0.3287,,,,,,54,0,54,0,1,,,,,
,,441728,001,2023-07-24_19h58.30.271,arm3_q,2022.2.5,Win32,164.5278052,5f3ee36d0306de1a411882a5,64aeaab685a29f4ca249be02,64bec9c8c4b657fd277ede67,right,1,0.4357,0.35,6,0.08339095,0.308,,,,,,55,0,55,0,1,,,,,
,,441728,001,2023-07-24_19h58.30.271,arm3_q,2022.2.5,Win32,164.5278052,5f3ee36d0306de1a411882a5,64aeaab685a29f4ca249be02,64bec9c8c4b657fd277ede67,right,1,0.4357,0.35,6,0.076119717,0.5289,,,,,,56,0,56,0,1,,,,,
,,441728,001,2023-07-24_19h58.30.271,arm3_q,2022.2.5,Win32,164.5278052,5f3ee36d0306de1a411882a5,64aeaab685a29f4ca249be02,64bec9c8c4b657fd277ede67,right,1,0.4357,0.35,6,0.101932084,0.3721,,,,,,57,0,57,0,1,,,,,
,,441728,001,2023-07-24_19h58.30.271,arm3_q,2022.2.5,Win32,164.5278052,5f3ee36d0306de1a411882a5,64aeaab685a29f4ca249be02,64bec9c8c4b657fd277ede67,up,1,0.4357,0.35,6,0,0.4203,,,,,,58,0,58,0,1,,,,,
,,441728,001,2023-07-24_19h58.30.271,arm3_q,2022.2.5,Win32,164.5278052,5f3ee36d0306de1a411882a5,64aeaab685a29f4ca249be02,64bec9c8c4b657fd277ede67,right,1,0.4357,0.35,6,-0.006330657,0.7565,,,,,,59,0,59,0,1,,,,,
,,441728,001,2023-07-24_19h58.30.271,arm3_q,2022.2.5,Win32,164.5278052,5f3ee36d0306de1a411882a5,64aeaab685a29f4ca249be02,64bec9c8c4b657fd277ede67,right,1,0.4357,0.35,6,0.028232417,0.3264,,,,,,60,0,60,0,1,,,,,
,,441728,001,2023-07-24_19h58.30.271,arm3_q,2022.2.5,Win32,164.5278052,5f3ee36d0306de1a411882a5,64aeaab685a29f4ca249be02,64bec9c8c4b657fd277ede67,right,1,0.4357,0.35,6,0.03169345,0.3693,,,,,,61,0,61,0,1,,,,,
,,441728,001,2023-07-24_19h58.30.271,arm3_q,2022.2.5,Win32,164.5278052,5f3ee36d0306de1a411882a5,64aeaab685a29f4ca249be02,64bec9c8c4b657fd277ede67,right,1,0.4357,0.35,6,0.040472126,0.417,,,,,,62,0,62,0,1,,,,,
,,441728,001,2023-07-24_19h58.30.271,arm3_q,2022.2.5,Win32,164.5278052,5f3ee36d0306de1a411882a5,64aeaab685a29f4ca249be02,64bec9c8c4b657fd277ede67,right,1,0.4357,0.35,6,0.080453204,0.3143,,,,,,63,0,63,0,1,,,,,
,,441728,001,2023-07-24_19h58.30.271,arm3_q,2022.2.5,Win32,164.5278052,5f3ee36d0306de1a411882a5,64aeaab685a29f4ca249be02,64bec9c8c4b657fd277ede67,right,1,0.4357,0.35,6,0.056976736,0.4954,,,,,,64,0,64,0,1,,,,,
,,441728,001,2023-07-24_19h58.30.271,arm3_q,2022.2.5,Win32,164.5278052,5f3ee36d0306de1a411882a5,64aeaab685a29f4ca249be02,64bec9c8c4b657fd277ede67,right,1,0.4357,0.35,6,0.049473,0.3434,,,,,,65,0,65,0,1,,,,,
,,441728,001,2023-07-24_19h58.30.271,arm3_q,2022.2.5,Win32,164.5278052,5f3ee36d0306de1a411882a5,64aeaab685a29f4ca249be02,64bec9c8c4b657fd277ede67,right,1,0.4357,0.35,6,0.079240513,0.425,,,,,,66,0,66,0,1,,,,,
,,441728,001,2023-07-24_19h58.30.271,arm3_q,2022.2.5,Win32,164.5278052,5f3ee36d0306de1a411882a5,64aeaab685a29f4ca249be02,64bec9c8c4b657fd277ede67,up,-1,0.4357,0.35,6,0,0.4042,,,,,,67,0,67,0,1,,,,,
,,441728,001,2023-07-24_19h58.30.271,arm3_q,2022.2.5,Win32,164.5278052,5f3ee36d0306de1a411882a5,64aeaab685a29f4ca249be02,64bec9c8c4b657fd277ede67,right,-1,0.4357,0.35,6,-0.024325626,0.7758,,,,,,68,0,68,0,1,,,,,
,,441728,001,2023-07-24_19h58.30.271,arm3_q,2022.2.5,Win32,164.5278052,5f3ee36d0306de1a411882a5,64aeaab685a29f4ca249be02,64bec9c8c4b657fd277ede67,right,-1,0.4357,0.35,6,-0.024086854,0.2638,,,,,,69,0,69,0,1,,,,,
,,441728,001,2023-07-24_19h58.30.271,arm3_q,2022.2.5,Win32,164.5278052,5f3ee36d0306de1a411882a5,64aeaab685a29f4ca249be02,64bec9c8c4b657fd277ede67,right,-1,0.4357,0.35,6,-0.035701501,0.3355,,,,,,70,0,70,0,1,,,,,
,,441728,001,2023-07-24_19h58.30.271,arm3_q,2022.2.5,Win32,164.5278052,5f3ee36d0306de1a411882a5,64aeaab685a29f4ca249be02,64bec9c8c4b657fd277ede67,right,-1,0.4357,0.35,6,-0.099424344,0.3012,,,,,,71,0,71,0,1,,,,,
,,441728,001,2023-07-24_19h58.30.271,arm3_q,2022.2.5,Win32,164.5278052,5f3ee36d0306de1a411882a5,64aeaab685a29f4ca249be02,64bec9c8c4b657fd277ede67,down,-1,0.4357,0.35,7,0,0.2802,,,,,,72,0,72,0,1,,,,,
,,441728,001,2023-07-24_19h58.30.271,arm3_q,2022.2.5,Win32,164.5278052,5f3ee36d0306de1a411882a5,64aeaab685a29f4ca249be02,64bec9c8c4b657fd277ede67,right,-1,0.4357,0.35,7,0.005465905,0.7678,,,,,,73,0,73,0,1,,,,,
,,441728,001,2023-07-24_19h58.30.271,arm3_q,2022.2.5,Win32,164.5278052,5f3ee36d0306de1a411882a5,64aeaab685a29f4ca249be02,64bec9c8c4b657fd277ede67,right,-1,0.4357,0.35,7,0.026184242,0.3007,,,,,,74,0,74,0,1,,,,,
,,441728,001,2023-07-24_19h58.30.271,arm3_q,2022.2.5,Win32,164.5278052,5f3ee36d0306de1a411882a5,64aeaab685a29f4ca249be02,64bec9c8c4b657fd277ede67,right,-1,0.4357,0.35,7,0.052962763,0.295,,,,,,75,0,75,0,1,,,,,
,,441728,001,2023-07-24_19h58.30.271,arm3_q,2022.2.5,Win32,164.5278052,5f3ee36d0306de1a411882a5,64aeaab685a29f4ca249be02,64bec9c8c4b657fd277ede67,right,-1,0.4357,0.35,7,0.033576555,0.3861,,,,,,76,0,76,0,1,,,,,
,,441728,001,2023-07-24_19h58.30.271,arm3_q,2022.2.5,Win32,164.5278052,5f3ee36d0306de1a411882a5,64aeaab685a29f4ca249be02,64bec9c8c4b657fd277ede67,right,-1,0.4357,0.35,7,0.038165388,0.3252,,,,,,77,0,77,0,1,,,,,
,,441728,001,2023-07-24_19h58.30.271,arm3_q,2022.2.5,Win32,164.5278052,5f3ee36d0306de1a411882a5,64aeaab685a29f4ca249be02,64bec9c8c4b657fd277ede67,right,-1,0.4357,0.35,7,0.016346001,0.2938,,,,,,78,0,78,0,1,,,,,
,,441728,001,2023-07-24_19h58.30.271,arm3_q,2022.2.5,Win32,164.5278052,5f3ee36d0306de1a411882a5,64aeaab685a29f4ca249be02,64bec9c8c4b657fd277ede67,right,-1,0.4357,0.35,7,0.003897291,0.441,,,,,,79,0,79,0,1,,,,,
,,441728,001,2023-07-24_19h58.30.271,arm3_q,2022.2.5,Win32,164.5278052,5f3ee36d0306de1a411882a5,64aeaab685a29f4ca249be02,64bec9c8c4b657fd277ede67,right,-1,0.4357,0.35,7,0.009844432,0.3939,,,,,,80,0,80,0,1,,,,,
,,441728,001,2023-07-24_19h58.30.271,arm3_q,2022.2.5,Win32,164.5278052,5f3ee36d0306de1a411882a5,64aeaab685a29f4ca249be02,64bec9c8c4b657fd277ede67,right,-1,0.4357,0.35,7,0.006618924,0.4587,,,,,,81,0,81,0,1,,,,,
,,441728,001,2023-07-24_19h58.30.271,arm3_q,2022.2.5,Win32,164.5278052,5f3ee36d0306de1a411882a5,64aeaab685a29f4ca249be02,64bec9c8c4b657fd277ede67,right,-1,0.4357,0.35,7,0.001085871,0.3915,,,,,,82,0,82,0,1,,,,,
,,441728,001,2023-07-24_19h58.30.271,arm3_q,2022.2.5,Win32,164.5278052,5f3ee36d0306de1a411882a5,64aeaab685a29f4ca249be02,64bec9c8c4b657fd277ede67,right,-1,0.4357,0.35,7,0.018496748,0.3274,,,,,,83,0,83,0,1,,,,,
,,441728,001,2023-07-24_19h58.30.271,arm3_q,2022.2.5,Win32,164.5278052,5f3ee36d0306de1a411882a5,64aeaab685a29f4ca249be02,64bec9c8c4b657fd277ede67,right,-1,0.4357,0.35,7,0.023918075,0.4258,,,,,,84,0,84,0,1,,,,,
,,441728,001,2023-07-24_19h58.30.271,arm3_q,2022.2.5,Win32,164.5278052,5f3ee36d0306de1a411882a5,64aeaab685a29f4ca249be02,64bec9c8c4b657fd277ede67,down,-1,0.4357,0.35,7,0,1.2673,,,,,,85,0,85,0,1,,,,,
,,441728,001,2023-07-24_19h58.30.271,arm3_q,2022.2.5,Win32,164.5278052,5f3ee36d0306de1a411882a5,64aeaab685a29f4ca249be02,64bec9c8c4b657fd277ede67,right,-1,0.4357,0.35,7,-0.006993456,1.3354,,,,,,86,0,86,0,1,,,,,
,,441728,001,2023-07-24_19h58.30.271,arm3_q,2022.2.5,Win32,164.5278052,5f3ee36d0306de1a411882a5,64aeaab685a29f4ca249be02,64bec9c8c4b657fd277ede67,right,-1,0.4357,0.35,7,-0.019471146,0.3434,,,,,,87,0,87,0,1,,,,,
,,441728,001,2023-07-24_19h58.30.271,arm3_q,2022.2.5,Win32,164.5278052,5f3ee36d0306de1a411882a5,64aeaab685a29f4ca249be02,64bec9c8c4b657fd277ede67,right,-1,0.4357,0.35,7,-0.052214114,0.3615,,,,,,88,0,88,0,1,,,,,
,,441728,001,2023-07-24_19h58.30.271,arm3_q,2022.2.5,Win32,164.5278052,5f3ee36d0306de1a411882a5,64aeaab685a29f4ca249be02,64bec9c8c4b657fd277ede67,right,-1,0.4357,0.35,7,-0.07506793,0.5035,,,,,,89,0,89,0,1,,,,,
,,441728,001,2023-07-24_19h58.30.271,arm3_q,2022.2.5,Win32,164.5278052,5f3ee36d0306de1a411882a5,64aeaab685a29f4ca249be02,64bec9c8c4b657fd277ede67,down,-1,0.4357,0.35,7,0,0.186,,,,,,90,0,90,0,1,,,,,
,,441728,001,2023-07-24_19h58.30.271,arm3_q,2022.2.5,Win32,164.5278052,5f3ee36d0306de1a411882a5,64aeaab685a29f4ca249be02,64bec9c8c4b657fd277ede67,right,-1,0.4357,0.35,7,0.016226364,0.7502,,,,,,91,0,91,0,1,,,,,
,,441728,001,2023-07-24_19h58.30.271,arm3_q,2022.2.5,Win32,164.5278052,5f3ee36d0306de1a411882a5,64aeaab685a29f4ca249be02,64bec9c8c4b657fd277ede67,right,-1,0.4357,0.35,7,0.015918043,0.4116,,,,,,92,0,92,0,1,,,,,
,,441728,001,2023-07-24_19h58.30.271,arm3_q,2022.2.5,Win32,164.5278052,5f3ee36d0306de1a411882a5,64aeaab685a29f4ca249be02,64bec9c8c4b657fd277ede67,right,-1,0.4357,0.35,7,0.027779891,0.3137,,,,,,93,0,93,0,1,,,,,
,,441728,001,2023-07-24_19h58.30.271,arm3_q,2022.2.5,Win32,164.5278052,5f3ee36d0306de1a411882a5,64aeaab685a29f4ca249be02,64bec9c8c4b657fd277ede67,right,-1,0.4357,0.35,7,0.034846675,0.2792,,,,,,94,0,94,0,1,,,,,
,,441728,001,2023-07-24_19h58.30.271,arm3_q,2022.2.5,Win32,164.5278052,5f3ee36d0306de1a411882a5,64aeaab685a29f4ca249be02,64bec9c8c4b657fd277ede67,right,-1,0.4357,0.35,7,0.031026206,0.3116,,,,,,95,0,95,0,1,,,,,
,,441728,001,2023-07-24_19h58.30.271,arm3_q,2022.2.5,Win32,164.5278052,5f3ee36d0306de1a411882a5,64aeaab685a29f4ca249be02,64bec9c8c4b657fd277ede67,right,-1,0.4357,0.35,7,0.032249336,0.2957,,,,,,96,0,96,0,1,,,,,
,,441728,001,2023-07-24_19h58.30.271,arm3_q,2022.2.5,Win32,164.5278052,5f3ee36d0306de1a411882a5,64aeaab685a29f4ca249be02,64bec9c8c4b657fd277ede67,right,-1,0.4357,0.35,7,0.038728143,0.3618,,,,,,97,0,97,0,1,,,,,
,,441728,001,2023-07-24_19h58.30.271,arm3_q,2022.2.5,Win32,164.5278052,5f3ee36d0306de1a411882a5,64aeaab685a29f4ca249be02,64bec9c8c4b657fd277ede67,up,1,0.4357,0.35,7,0,0.5351,,,,,,98,0,98,0,1,,,,,
,,441728,001,2023-07-24_19h58.30.271,arm3_q,2022.2.5,Win32,164.5278052,5f3ee36d0306de1a411882a5,64aeaab685a29f4ca249be02,64bec9c8c4b657fd277ede67,right,1,0.4357,0.35,7,0.002453429,1.5249,,,,,,99,0,99,0,1,,,,,
,,441728,001,2023-07-24_19h58.30.271,arm3_q,2022.2.5,Win32,164.5278052,5f3ee36d0306de1a411882a5,64aeaab685a29f4ca249be02,64bec9c8c4b657fd277ede67,right,1,0.4357,0.35,7,-0.030287506,0.4104,,,,,,100,0,100,0,1,,,,,
,,441728,001,2023-07-24_19h58.30.271,arm3_q,2022.2.5,Win32,164.5278052,5f3ee36d0306de1a411882a5,64aeaab685a29f4ca249be02,64bec9c8c4b657fd277ede67,right,1,0.4357,0.35,7,-0.048824332,0.3193,,,,,,101,0,101,0,1,,,,,
,,441728,001,2023-07-24_19h58.30.271,arm3_q,2022.2.5,Win32,164.5278052,5f3ee36d0306de1a411882a5,64aeaab685a29f4ca249be02,64bec9c8c4b657fd277ede67,right,1,0.4357,0.35,7,-0.029354407,0.3826,,,,,,102,0,102,0,1,,,,,
,,441728,001,2023-07-24_19h58.30.271,arm3_q,2022.2.5,Win32,164.5278052,5f3ee36d0306de1a411882a5,64aeaab685a29f4ca249be02,64bec9c8c4b657fd277ede67,right,1,0.4357,0.35,7,-0.031906613,0.2905,,,,,,103,0,103,0,1,,,,,
,,441728,001,2023-07-24_19h58.30.271,arm3_q,2022.2.5,Win32,164.5278052,5f3ee36d0306de1a411882a5,64aeaab685a29f4ca249be02,64bec9c8c4b657fd277ede67,right,1,0.4357,0.35,7,-0.036059747,0.3545,,,,,,104,0,104,0,1,,,,,
,,441728,001,2023-07-24_19h58.30.271,arm3_q,2022.2.5,Win32,164.5278052,5f3ee36d0306de1a411882a5,64aeaab685a29f4ca249be02,64bec9c8c4b657fd277ede67,down,1,0.4357,0.35,7,0,0.3093,,,,,,105,0,105,0,1,,,,,
,,441728,001,2023-07-24_19h58.30.271,arm3_q,2022.2.5,Win32,164.5278052,5f3ee36d0306de1a411882a5,64aeaab685a29f4ca249be02,64bec9c8c4b657fd277ede67,right,1,0.4357,0.35,7,-0.016985979,0.734,,,,,,106,0,106,0,1,,,,,
,,441728,001,2023-07-24_19h58.30.271,arm3_q,2022.2.5,Win32,164.5278052,5f3ee36d0306de1a411882a5,64aeaab685a29f4ca249be02,64bec9c8c4b657fd277ede67,right,1,0.4357,0.35,7,-0.013358325,0.2475,,,,,,107,0,107,0,1,,,,,
,,441728,001,2023-07-24_19h58.30.271,arm3_q,2022.2.5,Win32,164.5278052,5f3ee36d0306de1a411882a5,64aeaab685a29f4ca249be02,64bec9c8c4b657fd277ede67,right,1,0.4357,0.35,7,-0.023370153,0.3357,,,,,,108,0,108,0,1,,,,,
,,441728,001,2023-07-24_19h58.30.271,arm3_q,2022.2.5,Win32,164.5278052,5f3ee36d0306de1a411882a5,64aeaab685a29f4ca249be02,64bec9c8c4b657fd277ede67,right,1,0.4357,0.35,7,-0.060942003,0.3189,,,,,,109,0,109,0,1,,,,,
,,441728,001,2023-07-24_19h58.30.271,arm3_q,2022.2.5,Win32,164.5278052,5f3ee36d0306de1a411882a5,64aeaab685a29f4ca249be02,64bec9c8c4b657fd277ede67,right,1,0.4357,0.35,7,-0.028932645,0.368,,,,,,110,0,110,0,1,,,,,
,,441728,001,2023-07-24_19h58.30.271,arm3_q,2022.2.5,Win32,164.5278052,5f3ee36d0306de1a411882a5,64aeaab685a29f4ca249be02,64bec9c8c4b657fd277ede67,right,1,0.4357,0.35,7,-0.025119137,0.3582,,,,,,111,0,111,0,1,,,,,
,,441728,001,2023-07-24_19h58.30.271,arm3_q,2022.2.5,Win32,164.5278052,5f3ee36d0306de1a411882a5,64aeaab685a29f4ca249be02,64bec9c8c4b657fd277ede67,right,1,0.4357,0.35,7,-0.004220942,0.5527,,,,,,112,0,112,0,1,,,,,
,,441728,001,2023-07-24_19h58.30.271,arm3_q,2022.2.5,Win32,164.5278052,5f3ee36d0306de1a411882a5,64aeaab685a29f4ca249be02,64bec9c8c4b657fd277ede67,right,1,0.4357,0.35,7,-0.0106676,0.4178,,,,,,113,0,113,0,1,,,,,
,,441728,001,2023-07-24_19h58.30.271,arm3_q,2022.2.5,Win32,164.5278052,5f3ee36d0306de1a411882a5,64aeaab685a29f4ca249be02,64bec9c8c4b657fd277ede67,up,1,0.4357,0.35,7,0,0.4012,,,,,,114,0,114,0,1,,,,,
,,441728,001,2023-07-24_19h58.30.271,arm3_q,2022.2.5,Win32,164.5278052,5f3ee36d0306de1a411882a5,64aeaab685a29f4ca249be02,64bec9c8c4b657fd277ede67,right,1,0.4357,0.35,7,-0.009757308,0.7143,,,,,,115,0,115,0,1,,,,,
,,441728,001,2023-07-24_19h58.30.271,arm3_q,2022.2.5,Win32,164.5278052,5f3ee36d0306de1a411882a5,64aeaab685a29f4ca249be02,64bec9c8c4b657fd277ede67,right,1,0.4357,0.35,7,0.012188775,0.2595,,,,,,116,0,116,0,1,,,,,
,,441728,001,2023-07-24_19h58.30.271,arm3_q,2022.2.5,Win32,164.5278052,5f3ee36d0306de1a411882a5,64aeaab685a29f4ca249be02,64bec9c8c4b657fd277ede67,right,1,0.4357,0.35,7,0.018101436,0.344,,,,,,117,0,117,0,1,,,,,
,,441728,001,2023-07-24_19h58.30.271,arm3_q,2022.2.5,Win32,164.5278052,5f3ee36d0306de1a411882a5,64aeaab685a29f4ca249be02,64bec9c8c4b657fd277ede67,right,1,0.4357,0.35,7,0.050982741,0.5378,,,,,,118,0,118,0,1,,,,,
,,441728,001,2023-07-24_19h58.30.271,arm3_q,2022.2.5,Win32,164.5278052,5f3ee36d0306de1a411882a5,64aeaab685a29f4ca249be02,64bec9c8c4b657fd277ede67,right,1,0.4357,0.35,7,0.069716072,0.3263,,,,,,119,0,119,0,1,,,,,
,,441728,001,2023-07-24_19h58.30.271,arm3_q,2022.2.5,Win32,164.5278052,5f3ee36d0306de1a411882a5,64aeaab685a29f4ca249be02,64bec9c8c4b657fd277ede67,right,1,0.4357,0.35,7,0.052339986,0.3379,,,,,,120,0,120,0,1,,,,,
,,441728,001,2023-07-24_19h58.30.271,arm3_q,2022.2.5,Win32,164.5278052,5f3ee36d0306de1a411882a5,64aeaab685a29f4ca249be02,64bec9c8c4b657fd277ede67,right,1,0.4357,0.35,7,0.048903862,0.447,,,,,,121,0,121,0,1,,,,,
,,441728,001,2023-07-24_19h58.30.271,arm3_q,2022.2.5,Win32,164.5278052,5f3ee36d0306de1a411882a5,64aeaab685a29f4ca249be02,64bec9c8c4b657fd277ede67,right,1,0.4357,0.35,7,0.036043455,0.2968,,,,,,122,0,122,0,1,,,,,
,,441728,001,2023-07-24_19h58.30.271,arm3_q,2022.2.5,Win32,164.5278052,5f3ee36d0306de1a411882a5,64aeaab685a29f4ca249be02,64bec9c8c4b657fd277ede67,right,1,0.4357,0.35,7,0.025452794,0.3458,,,,,,123,0,123,0,1,,,,,
,,441728,001,2023-07-24_19h58.30.271,arm3_q,2022.2.5,Win32,164.5278052,5f3ee36d0306de1a411882a5,64aeaab685a29f4ca249be02,64bec9c8c4b657fd277ede67,right,1,0.4357,0.35,7,0.030794377,0.3379,,,,,,124,0,124,0,1,,,,,
,,441728,001,2023-07-24_19h58.30.271,arm3_q,2022.2.5,Win32,164.5278052,5f3ee36d0306de1a411882a5,64aeaab685a29f4ca249be02,64bec9c8c4b657fd277ede67,up,1,0.4357,0.35,8,0,0.367,,,,,,125,0,125,0,1,,,,,
,,441728,001,2023-07-24_19h58.30.271,arm3_q,2022.2.5,Win32,164.5278052,5f3ee36d0306de1a411882a5,64aeaab685a29f4ca249be02,64bec9c8c4b657fd277ede67,right,1,0.4357,0.35,8,0.009265586,0.7645,,,,,,126,0,126,0,1,,,,,
,,441728,001,2023-07-24_19h58.30.271,arm3_q,2022.2.5,Win32,164.5278052,5f3ee36d0306de1a411882a5,64aeaab685a29f4ca249be02,64bec9c8c4b657fd277ede67,right,1,0.4357,0.35,8,0.020213548,0.3042,,,,,,127,0,127,0,1,,,,,
,,441728,001,2023-07-24_19h58.30.271,arm3_q,2022.2.5,Win32,164.5278052,5f3ee36d0306de1a411882a5,64aeaab685a29f4ca249be02,64bec9c8c4b657fd277ede67,right,1,0.4357,0.35,8,0.040547975,0.3236,,,,,,128,0,128,0,1,,,,,
,,441728,001,2023-07-24_19h58.30.271,arm3_q,2022.2.5,Win32,164.5278052,5f3ee36d0306de1a411882a5,64aeaab685a29f4ca249be02,64bec9c8c4b657fd277ede67,right,1,0.4357,0.35,8,0.036497161,0.4205,,,,,,129,0,129,0,1,,,,,
,,441728,001,2023-07-24_19h58.30.271,arm3_q,2022.2.5,Win32,164.5278052,5f3ee36d0306de1a411882a5,64aeaab685a29f4ca249be02,64bec9c8c4b657fd277ede67,right,1,0.4357,0.35,8,0.056602898,0.3078,,,,,,130,0,130,0,1,,,,,
,,441728,001,2023-07-24_19h58.30.271,arm3_q,2022.2.5,Win32,164.5278052,5f3ee36d0306de1a411882a5,64aeaab685a29f4ca249be02,64bec9c8c4b657fd277ede67,right,1,0.4357,0.35,8,0.039305845,0.3371,,,,,,131,0,131,0,1,,,,,
,,441728,001,2023-07-24_19h58.30.271,arm3_q,2022.2.5,Win32,164.5278052,5f3ee36d0306de1a411882a5,64aeaab685a29f4ca249be02,64bec9c8c4b657fd277ede67,right,1,0.4357,0.35,8,0.033665105,0.2961,,,,,,132,0,132,0,1,,,,,
,,441728,001,2023-07-24_19h58.30.271,arm3_q,2022.2.5,Win32,164.5278052,5f3ee36d0306de1a411882a5,64aeaab685a29f4ca249be02,64bec9c8c4b657fd277ede67,right,1,0.4357,0.35,8,0.059915555,0.3445,,,,,,133,0,133,0,1,,,,,
,,441728,001,2023-07-24_19h58.30.271,arm3_q,2022.2.5,Win32,164.5278052,5f3ee36d0306de1a411882a5,64aeaab685a29f4ca249be02,64bec9c8c4b657fd277ede67,up,1,0.4357,0.35,9,0,0.5383,,,,,,134,0,134,0,1,,,,,
,,441728,001,2023-07-24_19h58.30.271,arm3_q,2022.2.5,Win32,164.5278052,5f3ee36d0306de1a411882a5,64aeaab685a29f4ca249be02,64bec9c8c4b657fd277ede67,right,1,0.4357,0.35,9,0.006833424,0.7434,,,,,,135,0,135,0,1,,,,,
,,441728,001,2023-07-24_19h58.30.271,arm3_q,2022.2.5,Win32,164.5278052,5f3ee36d0306de1a411882a5,64aeaab685a29f4ca249be02,64bec9c8c4b657fd277ede67,right,1,0.4357,0.35,9,0.019646484,0.2959,,,,,,136,0,136,0,1,,,,,
,,441728,001,2023-07-24_19h58.30.271,arm3_q,2022.2.5,Win32,164.5278052,5f3ee36d0306de1a411882a5,64aeaab685a29f4ca249be02,64bec9c8c4b657fd277ede67,right,1,0.4357,0.35,9,0.049213369,0.3138,,,,,,137,0,137,0,1,,,,,
,,441728,001,2023-07-24_19h58.30.271,arm3_q,2022.2.5,Win32,164.5278052,5f3ee36d0306de1a411882a5,64aeaab685a29f4ca249be02,64bec9c8c4b657fd277ede67,right,1,0.4357,0.35,9,0.069261099,0.3012,,,,,,138,0,138,0,1,,,,,
,,441728,001,2023-07-24_19h58.30.271,arm3_q,2022.2.5,Win32,164.5278052,5f3ee36d0306de1a411882a5,64aeaab685a29f4ca249be02,64bec9c8c4b657fd277ede67,right,1,0.4357,0.35,9,0.094589332,0.3287,,,,,,139,0,139,0,1,,,,,
,,441728,001,2023-07-24_19h58.30.271,arm3_q,2022.2.5,Win32,164.5278052,5f3ee36d0306de1a411882a5,64aeaab685a29f4ca249be02,64bec9c8c4b657fd277ede67,up,1,0.4357,0.35,10,0,0.4041,,,,,,140,0,140,0,1,,,,,
,,441728,001,2023-07-24_19h58.30.271,arm3_q,2022.2.5,Win32,164.5278052,5f3ee36d0306de1a411882a5,64aeaab685a29f4ca249be02,64bec9c8c4b657fd277ede67,right,1,0.4357,0.35,10,-0.004704891,0.3816,,,,,,141,0,141,0,1,,,,,
,,441728,001,2023-07-24_19h58.30.271,arm3_q,2022.2.5,Win32,164.5278052,5f3ee36d0306de1a411882a5,64aeaab685a29f4ca249be02,64bec9c8c4b657fd277ede67,right,1,0.4357,0.35,10,-0.006617438,0.3369,,,,,,142,0,142,0,1,,,,,
,,441728,001,2023-07-24_19h58.30.271,arm3_q,2022.2.5,Win32,164.5278052,5f3ee36d0306de1a411882a5,64aeaab685a29f4ca249be02,64bec9c8c4b657fd277ede67,right,1,0.4357,0.35,10,0.015214464,0.3319,,,,,,143,0,143,0,1,,,,,
,,441728,001,2023-07-24_19h58.30.271,arm3_q,2022.2.5,Win32,164.5278052,5f3ee36d0306de1a411882a5,64aeaab685a29f4ca249be02,64bec9c8c4b657fd277ede67,right,1,0.4357,0.35,10,0.022524184,0.2872,,,,,,144,0,144,0,1,,,,,
,,441728,001,2023-07-24_19h58.30.271,arm3_q,2022.2.5,Win32,164.5278052,5f3ee36d0306de1a411882a5,64aeaab685a29f4ca249be02,64bec9c8c4b657fd277ede67,right,1,0.4357,0.35,10,0.018679071,0.2771,,,,,,145,0,145,0,1,,,,,
,,441728,001,2023-07-24_19h58.30.271,arm3_q,2022.2.5,Win32,164.5278052,5f3ee36d0306de1a411882a5,64aeaab685a29f4ca249be02,64bec9c8c4b657fd277ede67,right,1,0.4357,0.35,10,0.046934437,0.2632,,,,,,146,0,146,0,1,,,,,
,,441728,001,2023-07-24_19h58.30.271,arm3_q,2022.2.5,Win32,164.5278052,5f3ee36d0306de1a411882a5,64aeaab685a29f4ca249be02,64bec9c8c4b657fd277ede67,right,1,0.4357,0.35,10,0.04152556,0.3317,,,,,,147,0,147,0,1,,,,,
,,441728,001,2023-07-24_19h58.30.271,arm3_q,2022.2.5,Win32,164.5278052,5f3ee36d0306de1a411882a5,64aeaab685a29f4ca249be02,64bec9c8c4b657fd277ede67,right,1,0.4357,0.35,10,0.047183598,0.2803,,,,,,148,0,148,0,1,,,,,
,,441728,001,2023-07-24_19h58.30.271,arm3_q,2022.2.5,Win32,164.5278052,5f3ee36d0306de1a411882a5,64aeaab685a29f4ca249be02,64bec9c8c4b657fd277ede67,up,1,0.4357,0.35,10,0,0.5565,,,,,,149,0,149,0,1,,,,,
,,441728,001,2023-07-24_19h58.30.271,arm3_q,2022.2.5,Win32,164.5278052,5f3ee36d0306de1a411882a5,64aeaab685a29f4ca249be02,64bec9c8c4b657fd277ede67,right,1,0.4357,0.35,10,0.041343314,0.7239,,,,,,150,0,150,0,1,,,,,
,,441728,001,2023-07-24_19h58.30.271,arm3_q,2022.2.5,Win32,164.5278052,5f3ee36d0306de1a411882a5,64aeaab685a29f4ca249be02,64bec9c8c4b657fd277ede67,right,1,0.4357,0.35,10,0.034231643,0.3461,,,,,,151,0,151,0,1,,,,,
,,441728,001,2023-07-24_19h58.30.271,arm3_q,2022.2.5,Win32,164.5278052,5f3ee36d0306de1a411882a5,64aeaab685a29f4ca249be02,64bec9c8c4b657fd277ede67,right,1,0.4357,0.35,10,0.062468079,0.2417,,,,,,152,0,152,0,1,,,,,
,,441728,001,2023-07-24_19h58.30.271,arm3_q,2022.2.5,Win32,164.5278052,5f3ee36d0306de1a411882a5,64aeaab685a29f4ca249be02,64bec9c8c4b657fd277ede67,right,1,0.4357,0.35,10,0.092756418,0.2973,,,,,,153,0,153,0,1,,,,,
,,441728,001,2023-07-24_19h58.30.271,arm3_q,2022.2.5,Win32,164.5278052,5f3ee36d0306de1a411882a5,64aeaab685a29f4ca249be02,64bec9c8c4b657fd277ede67,right,1,0.4357,0.35,10,0.081870451,0.4673,,,,,,154,0,154,0,1,,,,,
,,441728,001,2023-07-24_19h58.30.271,arm3_q,2022.2.5,Win32,164.5278052,5f3ee36d0306de1a411882a5,64aeaab685a29f4ca249be02,64bec9c8c4b657fd277ede67,right,1,0.4357,0.35,10,0.073256959,0.2901,,,,,,155,0,155,0,1,,,,,
,,441728,001,2023-07-24_19h58.30.271,arm3_q,2022.2.5,Win32,164.5278052,5f3ee36d0306de1a411882a5,64aeaab685a29f4ca249be02,64bec9c8c4b657fd277ede67,right,1,0.4357,0.35,10,0.090508665,0.3205,,,,,,156,0,156,0,1,,,,,
,,441728,001,2023-07-24_19h58.30.271,arm3_q,2022.2.5,Win32,164.5278052,5f3ee36d0306de1a411882a5,64aeaab685a29f4ca249be02,64bec9c8c4b657fd277ede67,right,1,0.4357,0.35,10,0.077022051,0.3132,,,,,,157,0,157,0,1,,,,,
,,441728,001,2023-07-24_19h58.30.271,arm3_q,2022.2.5,Win32,164.5278052,5f3ee36d0306de1a411882a5,64aeaab685a29f4ca249be02,64bec9c8c4b657fd277ede67,up,1,0.4357,0.35,11,0,0.4343,,,,,,158,0,158,0,1,,,,,
,,441728,001,2023-07-24_19h58.30.271,arm3_q,2022.2.5,Win32,164.5278052,5f3ee36d0306de1a411882a5,64aeaab685a29f4ca249be02,64bec9c8c4b657fd277ede67,right,1,0.4357,0.35,11,0.021093992,0.6439,,,,,,159,0,159,0,1,,,,,
,,441728,001,2023-07-24_19h58.30.271,arm3_q,2022.2.5,Win32,164.5278052,5f3ee36d0306de1a411882a5,64aeaab685a29f4ca249be02,64bec9c8c4b657fd277ede67,right,1,0.4357,0.35,11,0.003228906,0.3118,,,,,,160,0,160,0,1,,,,,
,,441728,001,2023-07-24_19h58.30.271,arm3_q,2022.2.5,Win32,164.5278052,5f3ee36d0306de1a411882a5,64aeaab685a29f4ca249be02,64bec9c8c4b657fd277ede67,right,1,0.4357,0.35,11,0.019830469,0.2928,,,,,,161,0,161,0,1,,,,,
,,441728,001,2023-07-24_19h58.30.271,arm3_q,2022.2.5,Win32,164.5278052,5f3ee36d0306de1a411882a5,64aeaab685a29f4ca249be02,64bec9c8c4b657fd277ede67,right,1,0.4357,0.35,11,0.03247758,0.3198,,,,,,162,0,162,0,1,,,,,
,,441728,001,2023-07-24_19h58.30.271,arm3_q,2022.2.5,Win32,164.5278052,5f3ee36d0306de1a411882a5,64aeaab685a29f4ca249be02,64bec9c8c4b657fd277ede67,right,1,0.4357,0.35,11,0.040013609,0.5133,,,,,,163,0,163,0,1,,,,,
,,441728,001,2023-07-24_19h58.30.271,arm3_q,2022.2.5,Win32,164.5278052,5f3ee36d0306de1a411882a5,64aeaab685a29f4ca249be02,64bec9c8c4b657fd277ede67,right,1,0.4357,0.35,11,0.047624153,0.3806,,,,,,164,0,164,0,1,,,,,
,,441728,001,2023-07-24_19h58.30.271,arm3_q,2022.2.5,Win32,164.5278052,5f3ee36d0306de1a411882a5,64aeaab685a29f4ca249be02,64bec9c8c4b657fd277ede67,right,1,0.4357,0.35,11,0.011525294,0.4722,,,,,,165,0,165,0,1,,,,,
,,441728,001,2023-07-24_19h58.30.271,arm3_q,2022.2.5,Win32,164.5278052,5f3ee36d0306de1a411882a5,64aeaab685a29f4ca249be02,64bec9c8c4b657fd277ede67,right,1,0.4357,0.35,11,0.011896731,0.3233,,,,,,166,0,166,0,1,,,,,
,,441728,001,2023-07-24_19h58.30.271,arm3_q,2022.2.5,Win32,164.5278052,5f3ee36d0306de1a411882a5,64aeaab685a29f4ca249be02,64bec9c8c4b657fd277ede67,right,1,0.4357,0.35,11,0.022920614,0.4776,,,,,,167,0,167,0,1,,,,,
,,441728,001,2023-07-24_19h58.30.271,arm3_q,2022.2.5,Win32,164.5278052,5f3ee36d0306de1a411882a5,64aeaab685a29f4ca249be02,64bec9c8c4b657fd277ede67,right,1,0.4357,0.35,11,0.058236614,0.3585,,,,,,168,0,168,0,1,,,,,
,,441728,001,2023-07-24_19h58.30.271,arm3_q,2022.2.5,Win32,164.5278052,5f3ee36d0306de1a411882a5,64aeaab685a29f4ca249be02,64bec9c8c4b657fd277ede67,up,1,0.4357,0.35,11,0,0.3462,,,,,,169,0,169,0,1,,,,,
,,441728,001,2023-07-24_19h58.30.271,arm3_q,2022.2.5,Win32,164.5278052,5f3ee36d0306de1a411882a5,64aeaab685a29f4ca249be02,64bec9c8c4b657fd277ede67,right,1,0.4357,0.35,11,0.025706832,0.7444,,,,,,170,0,170,0,1,,,,,
,,441728,001,2023-07-24_19h58.30.271,arm3_q,2022.2.5,Win32,164.5278052,5f3ee36d0306de1a411882a5,64aeaab685a29f4ca249be02,64bec9c8c4b657fd277ede67,right,1,0.4357,0.35,11,0.028839867,0.2676,,,,,,171,0,171,0,1,,,,,
,,441728,001,2023-07-24_19h58.30.271,arm3_q,2022.2.5,Win32,164.5278052,5f3ee36d0306de1a411882a5,64aeaab685a29f4ca249be02,64bec9c8c4b657fd277ede67,right,1,0.4357,0.35,11,0.038209384,0.3073,,,,,,172,0,172,0,1,,,,,
,,441728,001,2023-07-24_19h58.30.271,arm3_q,2022.2.5,Win32,164.5278052,5f3ee36d0306de1a411882a5,64aeaab685a29f4ca249be02,64bec9c8c4b657fd277ede67,up,1,0.4357,0.35,11,0,0.8647,,,,,,173,0,173,0,1,,,,,
,,441728,001,2023-07-24_19h58.30.271,arm3_q,2022.2.5,Win32,164.5278052,5f3ee36d0306de1a411882a5,64aeaab685a29f4ca249be02,64bec9c8c4b657fd277ede67,right,1,0.4357,0.35,11,0.008192543,0.7304,,,,,,174,0,174,0,1,,,,,
,,441728,001,2023-07-24_19h58.30.271,arm3_q,2022.2.5,Win32,164.5278052,5f3ee36d0306de1a411882a5,64aeaab685a29f4ca249be02,64bec9c8c4b657fd277ede67,right,1,0.4357,0.35,11,0.0214493,0.2829,,,,,,175,0,175,0,1,,,,,
,,441728,001,2023-07-24_19h58.30.271,arm3_q,2022.2.5,Win32,164.5278052,5f3ee36d0306de1a411882a5,64aeaab685a29f4ca249be02,64bec9c8c4b657fd277ede67,right,1,0.4357,0.35,11,0.042895458,0.3375,,,,,,176,0,176,0,1,,,,,
,,441728,001,2023-07-24_19h58.30.271,arm3_q,2022.2.5,Win32,164.5278052,5f3ee36d0306de1a411882a5,64aeaab685a29f4ca249be02,64bec9c8c4b657fd277ede67,right,1,0.4357,0.35,11,0.017707799,0.3501,,,,,,177,0,177,0,1,,,,,
,,441728,001,2023-07-24_19h58.30.271,arm3_q,2022.2.5,Win32,164.5278052,5f3ee36d0306de1a411882a5,64aeaab685a29f4ca249be02,64bec9c8c4b657fd277ede67,right,1,0.4357,0.35,11,0.032939821,0.3372,,,,,,178,0,178,0,1,,,,,
,,441728,001,2023-07-24_19h58.30.271,arm3_q,2022.2.5,Win32,164.5278052,5f3ee36d0306de1a411882a5,64aeaab685a29f4ca249be02,64bec9c8c4b657fd277ede67,right,1,0.4357,0.35,11,0.04035536,0.3351,,,,,,179,0,179,0,1,,,,,
,,441728,001,2023-07-24_19h58.30.271,arm3_q,2022.2.5,Win32,164.5278052,5f3ee36d0306de1a411882a5,64aeaab685a29f4ca249be02,64bec9c8c4b657fd277ede67,right,1,0.4357,0.35,11,0.061145508,0.4114,,,,,,180,0,180,0,1,,,,,
,,441728,001,2023-07-24_19h58.30.271,arm3_q,2022.2.5,Win32,164.5278052,5f3ee36d0306de1a411882a5,64aeaab685a29f4ca249be02,64bec9c8c4b657fd277ede67,right,1,0.4357,0.35,11,0.062960911,0.3452,,,,,,181,0,181,0,1,,,,,
,,441728,001,2023-07-24_19h58.30.271,arm3_q,2022.2.5,Win32,164.5278052,5f3ee36d0306de1a411882a5,64aeaab685a29f4ca249be02,64bec9c8c4b657fd277ede67,up,-1,0.4357,0.35,12,0,0.4176,,,,,,182,0,182,0,1,,,,,
,,441728,001,2023-07-24_19h58.30.271,arm3_q,2022.2.5,Win32,164.5278052,5f3ee36d0306de1a411882a5,64aeaab685a29f4ca249be02,64bec9c8c4b657fd277ede67,right,-1,0.4357,0.35,12,-0.032028943,0.7181,,,,,,183,0,183,0,1,,,,,
,,441728,001,2023-07-24_19h58.30.271,arm3_q,2022.2.5,Win32,164.5278052,5f3ee36d0306de1a411882a5,64aeaab685a29f4ca249be02,64bec9c8c4b657fd277ede67,right,-1,0.4357,0.35,12,-0.050906539,0.4259,,,,,,184,0,184,0,1,,,,,
,,441728,001,2023-07-24_19h58.30.271,arm3_q,2022.2.5,Win32,164.5278052,5f3ee36d0306de1a411882a5,64aeaab685a29f4ca249be02,64bec9c8c4b657fd277ede67,right,-1,0.4357,0.35,12,-0.040321465,0.247,,,,,,185,0,185,0,1,,,,,
,,441728,001,2023-07-24_19h58.30.271,arm3_q,2022.2.5,Win32,164.5278052,5f3ee36d0306de1a411882a5,64aeaab685a29f4ca249be02,64bec9c8c4b657fd277ede67,right,-1,0.4357,0.35,12,-0.024174767,0.2789,,,,,,186,0,186,0,1,,,,,
,,441728,001,2023-07-24_19h58.30.271,arm3_q,2022.2.5,Win32,164.5278052,5f3ee36d0306de1a411882a5,64aeaab685a29f4ca249be02,64bec9c8c4b657fd277ede67,right,-1,0.4357,0.35,12,-0.048830482,0.3387,,,,,,187,0,187,0,1,,,,,
,,441728,001,2023-07-24_19h58.30.271,arm3_q,2022.2.5,Win32,164.5278052,5f3ee36d0306de1a411882a5,64aeaab685a29f4ca249be02,64bec9c8c4b657fd277ede67,down,1,0.4357,0.35,12,0,0.4033,,,,,,188,0,188,0,1,,,,,
,,441728,001,2023-07-24_19h58.30.271,arm3_q,2022.2.5,Win32,164.5278052,5f3ee36d0306de1a411882a5,64aeaab685a29f4ca249be02,64bec9c8c4b657fd277ede67,right,1,0.4357,0.35,12,0.008383539,0.8327,,,,,,189,0,189,0,1,,,,,
,,441728,001,2023-07-24_19h58.30.271,arm3_q,2022.2.5,Win32,164.5278052,5f3ee36d0306de1a411882a5,64aeaab685a29f4ca249be02,64bec9c8c4b657fd277ede67,right,1,0.4357,0.35,12,0.008178801,0.2832,,,,,,190,0,190,0,1,,,,,
,,441728,001,2023-07-24_19h58.30.271,arm3_q,2022.2.5,Win32,164.5278052,5f3ee36d0306de1a411882a5,64aeaab685a29f4ca249be02,64bec9c8c4b657fd277ede67,right,1,0.4357,0.35,12,-0.000238715,0.2643,,,,,,191,0,191,0,1,,,,,
,,441728,001,2023-07-24_19h58.30.271,arm3_q,2022.2.5,Win32,164.5278052,5f3ee36d0306de1a411882a5,64aeaab685a29f4ca249be02,64bec9c8c4b657fd277ede67,right,1,0.4357,0.35,12,-0.002447652,0.2788,,,,,,192,0,192,0,1,,,,,
,,441728,001,2023-07-24_19h58.30.271,arm3_q,2022.2.5,Win32,164.5278052,5f3ee36d0306de1a411882a5,64aeaab685a29f4ca249be02,64bec9c8c4b657fd277ede67,right,1,0.4357,0.35,12,0.004307493,0.2829,,,,,,193,0,193,0,1,,,,,
,,441728,001,2023-07-24_19h58.30.271,arm3_q,2022.2.5,Win32,164.5278052,5f3ee36d0306de1a411882a5,64aeaab685a29f4ca249be02,64bec9c8c4b657fd277ede67,right,1,0.4357,0.35,12,0.014746044,0.2789,,,,,,194,0,194,0,1,,,,,
,,441728,001,2023-07-24_19h58.30.271,arm3_q,2022.2.5,Win32,164.5278052,5f3ee36d0306de1a411882a5,64aeaab685a29f4ca249be02,64bec9c8c4b657fd277ede67,right,1,0.4357,0.35,12,0.030308801,0.2664,,,,,,195,0,195,0,1,,,,,
,,441728,001,2023-07-24_19h58.30.271,arm3_q,2022.2.5,Win32,164.5278052,5f3ee36d0306de1a411882a5,64aeaab685a29f4ca249be02,64bec9c8c4b657fd277ede67,right,1,0.4357,0.35,12,0.006142576,0.2493,,,,,,196,0,196,0,1,,,,,
,,441728,001,2023-07-24_19h58.30.271,arm3_q,2022.2.5,Win32,164.5278052,5f3ee36d0306de1a411882a5,64aeaab685a29f4ca249be02,64bec9c8c4b657fd277ede67,right,1,0.4357,0.35,12,0.043374108,0.2905,,,,,,197,0,197,0,1,,,,,
,,441728,001,2023-07-24_19h58.30.271,arm3_q,2022.2.5,Win32,164.5278052,5f3ee36d0306de1a411882a5,64aeaab685a29f4ca249be02,64bec9c8c4b657fd277ede67,up,1,0.4357,0.35,12,0,0.5217,,,,,,198,0,198,0,1,,,,,
,,441728,001,2023-07-24_19h58.30.271,arm3_q,2022.2.5,Win32,164.5278052,5f3ee36d0306de1a411882a5,64aeaab685a29f4ca249be02,64bec9c8c4b657fd277ede67,right,1,0.4357,0.35,12,0.010638375,0.6974,,,,,,199,0,199,0,1,,,,,
,,441728,001,2023-07-24_19h58.30.271,arm3_q,2022.2.5,Win32,164.5278052,5f3ee36d0306de1a411882a5,64aeaab685a29f4ca249be02,64bec9c8c4b657fd277ede67,right,1,0.4357,0.35,12,0.005719296,0.2362,,,,,,200,0,200,0,1,,,,,
,,441728,001,2023-07-24_19h58.30.271,arm3_q,2022.2.5,Win32,164.5278052,5f3ee36d0306de1a411882a5,64aeaab685a29f4ca249be02,64bec9c8c4b657fd277ede67,right,1,0.4357,0.35,12,0.040879387,0.2894,,,,,,201,0,201,0,1,,,,,
,,441728,001,2023-07-24_19h58.30.271,arm3_q,2022.2.5,Win32,164.5278052,5f3ee36d0306de1a411882a5,64aeaab685a29f4ca249be02,64bec9c8c4b657fd277ede67,right,1,0.4357,0.35,12,0.047576101,0.2897,,,,,,202,0,202,0,1,,,,,
,,441728,001,2023-07-24_19h58.30.271,arm3_q,2022.2.5,Win32,164.5278052,5f3ee36d0306de1a411882a5,64aeaab685a29f4ca249be02,64bec9c8c4b657fd277ede67,right,1,0.4357,0.35,12,0.042389354,0.2717,,,,,,203,0,203,0,1,,,,,
,,441728,001,2023-07-24_19h58.30.271,arm3_q,2022.2.5,Win32,164.5278052,5f3ee36d0306de1a411882a5,64aeaab685a29f4ca249be02,64bec9c8c4b657fd277ede67,right,1,0.4357,0.35,12,0.050113081,0.2964,,,,,,204,0,204,0,1,,,,,
,,441728,001,2023-07-24_19h58.30.271,arm3_q,2022.2.5,Win32,164.5278052,5f3ee36d0306de1a411882a5,64aeaab685a29f4ca249be02,64bec9c8c4b657fd277ede67,right,1,0.4357,0.35,12,0.068323727,0.2653,,,,,,205,0,205,0,1,,,,,
,,441728,001,2023-07-24_19h58.30.271,arm3_q,2022.2.5,Win32,164.5278052,5f3ee36d0306de1a411882a5,64aeaab685a29f4ca249be02,64bec9c8c4b657fd277ede67,up,1,0.4357,0.35,12,0,0.4646,,,,,,206,0,206,0,1,,,,,
,,441728,001,2023-07-24_19h58.30.271,arm3_q,2022.2.5,Win32,164.5278052,5f3ee36d0306de1a411882a5,64aeaab685a29f4ca249be02,64bec9c8c4b657fd277ede67,right,1,0.4357,0.35,12,0.016597858,0.8071,,,,,,207,0,207,0,1,,,,,
,,441728,001,2023-07-24_19h58.30.271,arm3_q,2022.2.5,Win32,164.5278052,5f3ee36d0306de1a411882a5,64aeaab685a29f4ca249be02,64bec9c8c4b657fd277ede67,right,1,0.4357,0.35,12,0.039380423,0.2835,,,,,,208,0,208,0,1,,,,,
,,441728,001,2023-07-24_19h58.30.271,arm3_q,2022.2.5,Win32,164.5278052,5f3ee36d0306de1a411882a5,64aeaab685a29f4ca249be02,64bec9c8c4b657fd277ede67,right,1,0.4357,0.35,12,0.026074048,0.256,,,,,,209,0,209,0,1,,,,,
,,441728,001,2023-07-24_19h58.30.271,arm3_q,2022.2.5,Win32,164.5278052,5f3ee36d0306de1a411882a5,64aeaab685a29f4ca249be02,64bec9c8c4b657fd277ede67,right,1,0.4357,0.35,12,0.046961804,0.2593,,,,,,210,0,210,0,1,,,,,
,,441728,001,2023-07-24_19h58.30.271,arm3_q,2022.2.5,Win32,164.5278052,5f3ee36d0306de1a411882a5,64aeaab685a29f4ca249be02,64bec9c8c4b657fd277ede67,right,1,0.4357,0.35,12,0.043381105,0.2808,,,,,,211,0,211,0,1,,,,,
,,441728,001,2023-07-24_19h58.30.271,arm3_q,2022.2.5,Win32,164.5278052,5f3ee36d0306de1a411882a5,64aeaab685a29f4ca249be02,64bec9c8c4b657fd277ede67,right,1,0.4357,0.35,12,0.044209215,0.2768,,,,,,212,0,212,0,1,,,,,
,,441728,001,2023-07-24_19h58.30.271,arm3_q,2022.2.5,Win32,164.5278052,5f3ee36d0306de1a411882a5,64aeaab685a29f4ca249be02,64bec9c8c4b657fd277ede67,right,1,0.4357,0.35,12,0.050878718,0.279,,,,,,213,0,213,0,1,,,,,
,,441728,001,2023-07-24_19h58.30.271,arm3_q,2022.2.5,Win32,164.5278052,5f3ee36d0306de1a411882a5,64aeaab685a29f4ca249be02,64bec9c8c4b657fd277ede67,right,1,0.4357,0.35,12,0.073554029,0.2499,,,,,,214,0,214,0,1,,,,,
,,441728,001,2023-07-24_19h58.30.271,arm3_q,2022.2.5,Win32,164.5278052,5f3ee36d0306de1a411882a5,64aeaab685a29f4ca249be02,64bec9c8c4b657fd277ede67,up,1,0.4357,0.35,13,0,0.5463,,,,,,215,0,215,0,1,,,,,
,,441728,001,2023-07-24_19h58.30.271,arm3_q,2022.2.5,Win32,164.5278052,5f3ee36d0306de1a411882a5,64aeaab685a29f4ca249be02,64bec9c8c4b657fd277ede67,right,1,0.4357,0.35,13,-0.014521239,0.7026,,,,,,216,0,216,0,1,,,,,
,,441728,001,2023-07-24_19h58.30.271,arm3_q,2022.2.5,Win32,164.5278052,5f3ee36d0306de1a411882a5,64aeaab685a29f4ca249be02,64bec9c8c4b657fd277ede67,right,1,0.4357,0.35,13,-0.006563337,0.339,,,,,,217,0,217,0,1,,,,,
,,441728,001,2023-07-24_19h58.30.271,arm3_q,2022.2.5,Win32,164.5278052,5f3ee36d0306de1a411882a5,64aeaab685a29f4ca249be02,64bec9c8c4b657fd277ede67,right,1,0.4357,0.35,13,-0.000979777,0.247,,,,,,218,0,218,0,1,,,,,
,,441728,001,2023-07-24_19h58.30.271,arm3_q,2022.2.5,Win32,164.5278052,5f3ee36d0306de1a411882a5,64aeaab685a29f4ca249be02,64bec9c8c4b657fd277ede67,right,1,0.4357,0.35,13,0.009956774,0.2966,,,,,,219,0,219,0,1,,,,,
,,441728,001,2023-07-24_19h58.30.271,arm3_q,2022.2.5,Win32,164.5278052,5f3ee36d0306de1a411882a5,64aeaab685a29f4ca249be02,64bec9c8c4b657fd277ede67,right,1,0.4357,0.35,13,0.024175968,0.2987,,,,,,220,0,220,0,1,,,,,
,,441728,001,2023-07-24_19h58.30.271,arm3_q,2022.2.5,Win32,164.5278052,5f3ee36d0306de1a411882a5,64aeaab685a29f4ca249be02,64bec9c8c4b657fd277ede67,right,1,0.4357,0.35,13,0.029152143,0.26,,,,,,221,0,221,0,1,,,,,
,,441728,001,2023-07-24_19h58.30.271,arm3_q,2022.2.5,Win32,164.5278052,5f3ee36d0306de1a411882a5,64aeaab685a29f4ca249be02,64bec9c8c4b657fd277ede67,right,1,0.4357,0.35,13,0.045426728,0.2955,,,,,,222,0,222,0,1,,,,,
,,441728,001,2023-07-24_19h58.30.271,arm3_q,2022.2.5,Win32,164.5278052,5f3ee36d0306de1a411882a5,64aeaab685a29f4ca249be02,64bec9c8c4b657fd277ede67,right,1,0.4357,0.35,13,0.084161468,0.272,,,,,,223,0,223,0,1,,,,,
,,441728,001,2023-07-24_19h58.30.271,arm3_q,2022.2.5,Win32,164.5278052,5f3ee36d0306de1a411882a5,64aeaab685a29f4ca249be02,64bec9c8c4b657fd277ede67,right,1,0.4357,0.35,13,0.089649296,0.3628,,,,,,224,0,224,0,1,,,,,
,,441728,001,2023-07-24_19h58.30.271,arm3_q,2022.2.5,Win32,164.5278052,5f3ee36d0306de1a411882a5,64aeaab685a29f4ca249be02,64bec9c8c4b657fd277ede67,up,1,0.4357,0.35,13,0,0.3437,,,,,,225,0,225,0,1,,,,,
,,441728,001,2023-07-24_19h58.30.271,arm3_q,2022.2.5,Win32,164.5278052,5f3ee36d0306de1a411882a5,64aeaab685a29f4ca249be02,64bec9c8c4b657fd277ede67,right,1,0.4357,0.35,13,0.004329681,0.6289,,,,,,226,0,226,0,1,,,,,
,,441728,001,2023-07-24_19h58.30.271,arm3_q,2022.2.5,Win32,164.5278052,5f3ee36d0306de1a411882a5,64aeaab685a29f4ca249be02,64bec9c8c4b657fd277ede67,right,1,0.4357,0.35,13,0.020272797,0.3264,,,,,,227,0,227,0,1,,,,,
,,441728,001,2023-07-24_19h58.30.271,arm3_q,2022.2.5,Win32,164.5278052,5f3ee36d0306de1a411882a5,64aeaab685a29f4ca249be02,64bec9c8c4b657fd277ede67,right,1,0.4357,0.35,13,0.042861829,0.31,,,,,,228,0,228,0,1,,,,,
,,441728,001,2023-07-24_19h58.30.271,arm3_q,2022.2.5,Win32,164.5278052,5f3ee36d0306de1a411882a5,64aeaab685a29f4ca249be02,64bec9c8c4b657fd277ede67,right,1,0.4357,0.35,13,0.037166311,0.2909,,,,,,229,0,229,0,1,,,,,
,,441728,001,2023-07-24_19h58.30.271,arm3_q,2022.2.5,Win32,164.5278052,5f3ee36d0306de1a411882a5,64aeaab685a29f4ca249be02,64bec9c8c4b657fd277ede67,right,1,0.4357,0.35,13,0.065842512,0.2979,,,,,,230,0,230,0,1,,,,,
,,441728,001,2023-07-24_19h58.30.271,arm3_q,2022.2.5,Win32,164.5278052,5f3ee36d0306de1a411882a5,64aeaab685a29f4ca249be02,64bec9c8c4b657fd277ede67,right,1,0.4357,0.35,13,0.04695952,0.2998,,,,,,231,0,231,0,1,,,,,
,,441728,001,2023-07-24_19h58.30.271,arm3_q,2022.2.5,Win32,164.5278052,5f3ee36d0306de1a411882a5,64aeaab685a29f4ca249be02,64bec9c8c4b657fd277ede67,right,1,0.4357,0.35,13,0.031904287,0.2832,,,,,,232,0,232,0,1,,,,,
,,441728,001,2023-07-24_19h58.30.271,arm3_q,2022.2.5,Win32,164.5278052,5f3ee36d0306de1a411882a5,64aeaab685a29f4ca249be02,64bec9c8c4b657fd277ede67,right,1,0.4357,0.35,13,0.057095153,0.2896,,,,,,233,0,233,0,1,,,,,
,,441728,001,2023-07-24_19h58.30.271,arm3_q,2022.2.5,Win32,164.5278052,5f3ee36d0306de1a411882a5,64aeaab685a29f4ca249be02,64bec9c8c4b657fd277ede67,right,1,0.4357,0.35,13,0.076976181,0.2953,,,,,,234,0,234,0,1,,,,,
,,441728,001,2023-07-24_19h58.30.271,arm3_q,2022.2.5,Win32,164.5278052,5f3ee36d0306de1a411882a5,64aeaab685a29f4ca249be02,64bec9c8c4b657fd277ede67,up,-1,0.4357,0.35,13,0,0.3923,,,,,,235,0,235,0,1,,,,,
,,441728,001,2023-07-24_19h58.30.271,arm3_q,2022.2.5,Win32,164.5278052,5f3ee36d0306de1a411882a5,64aeaab685a29f4ca249be02,64bec9c8c4b657fd277ede67,right,-1,0.4357,0.35,13,-0.007335224,0.8784,,,,,,236,0,236,0,1,,,,,
,,441728,001,2023-07-24_19h58.30.271,arm3_q,2022.2.5,Win32,164.5278052,5f3ee36d0306de1a411882a5,64aeaab685a29f4ca249be02,64bec9c8c4b657fd277ede67,right,-1,0.4357,0.35,13,-0.04323939,0.3319,,,,,,237,0,237,0,1,,,,,
,,441728,001,2023-07-24_19h58.30.271,arm3_q,2022.2.5,Win32,164.5278052,5f3ee36d0306de1a411882a5,64aeaab685a29f4ca249be02,64bec9c8c4b657fd277ede67,right,-1,0.4357,0.35,13,-0.077643339,0.2796,,,,,,238,0,238,0,1,,,,,
,,441728,001,2023-07-24_19h58.30.271,arm3_q,2022.2.5,Win32,164.5278052,5f3ee36d0306de1a411882a5,64aeaab685a29f4ca249be02,64bec9c8c4b657fd277ede67,down,-1,0.4357,0.35,14,0,0.6185,,,,,,239,0,239,0,1,,,,,
,,441728,001,2023-07-24_19h58.30.271,arm3_q,2022.2.5,Win32,164.5278052,5f3ee36d0306de1a411882a5,64aeaab685a29f4ca249be02,64bec9c8c4b657fd277ede67,right,-1,0.4357,0.35,14,-0.004031831,1.0687,,,,,,240,0,240,0,1,,,,,
,,441728,001,2023-07-24_19h58.30.271,arm3_q,2022.2.5,Win32,164.5278052,5f3ee36d0306de1a411882a5,64aeaab685a29f4ca249be02,64bec9c8c4b657fd277ede67,right,-1,0.4357,0.35,14,0.010571251,0.2914,,,,,,241,0,241,0,1,,,,,
,,441728,001,2023-07-24_19h58.30.271,arm3_q,2022.2.5,Win32,164.5278052,5f3ee36d0306de1a411882a5,64aeaab685a29f4ca249be02,64bec9c8c4b657fd277ede67,right,-1,0.4357,0.35,14,-0.017365551,0.2548,,,,,,242,0,242,0,1,,,,,
,,441728,001,2023-07-24_19h58.30.271,arm3_q,2022.2.5,Win32,164.5278052,5f3ee36d0306de1a411882a5,64aeaab685a29f4ca249be02,64bec9c8c4b657fd277ede67,right,-1,0.4357,0.35,14,-0.029585349,0.3051,,,,,,243,0,243,0,1,,,,,
,,441728,001,2023-07-24_19h58.30.271,arm3_q,2022.2.5,Win32,164.5278052,5f3ee36d0306de1a411882a5,64aeaab685a29f4ca249be02,64bec9c8c4b657fd277ede67,right,-1,0.4357,0.35,14,-0.032358019,0.26,,,,,,244,0,244,0,1,,,,,
,,441728,001,2023-07-24_19h58.30.271,arm3_q,2022.2.5,Win32,164.5278052,5f3ee36d0306de1a411882a5,64aeaab685a29f4ca249be02,64bec9c8c4b657fd277ede67,right,-1,0.4357,0.35,14,-0.02980247,0.2952,,,,,,245,0,245,0,1,,,,,
,,441728,001,2023-07-24_19h58.30.271,arm3_q,2022.2.5,Win32,164.5278052,5f3ee36d0306de1a411882a5,64aeaab685a29f4ca249be02,64bec9c8c4b657fd277ede67,right,-1,0.4357,0.35,14,-0.065977363,0.3286,,,,,,246,0,246,0,1,,,,,
,,441728,001,2023-07-24_19h58.30.271,arm3_q,2022.2.5,Win32,164.5278052,5f3ee36d0306de1a411882a5,64aeaab685a29f4ca249be02,64bec9c8c4b657fd277ede67,down,-1,0.4357,0.35,15,0,0.3315,,,,,,247,0,247,0,1,,,,,
,,441728,001,2023-07-24_19h58.30.271,arm3_q,2022.2.5,Win32,164.5278052,5f3ee36d0306de1a411882a5,64aeaab685a29f4ca249be02,64bec9c8c4b657fd277ede67,right,-1,0.4357,0.35,15,-0.009750768,0.7258,,,,,,248,0,248,0,1,,,,,
,,441728,001,2023-07-24_19h58.30.271,arm3_q,2022.2.5,Win32,164.5278052,5f3ee36d0306de1a411882a5,64aeaab685a29f4ca249be02,64bec9c8c4b657fd277ede67,right,-1,0.4357,0.35,15,-0.030467679,0.3322,,,,,,249,0,249,0,1,,,,,
,,441728,001,2023-07-24_19h58.30.271,arm3_q,2022.2.5,Win32,164.5278052,5f3ee36d0306de1a411882a5,64aeaab685a29f4ca249be02,64bec9c8c4b657fd277ede67,right,-1,0.4357,0.35,15,-0.037188989,0.2862,,,,,,250,0,250,0,1,,,,,
,,441728,001,2023-07-24_19h58.30.271,arm3_q,2022.2.5,Win32,164.5278052,5f3ee36d0306de1a411882a5,64aeaab685a29f4ca249be02,64bec9c8c4b657fd277ede67,right,-1,0.4357,0.35,15,-0.030930066,0.3157,,,,,,251,0,251,0,1,,,,,
,,441728,001,2023-07-24_19h58.30.271,arm3_q,2022.2.5,Win32,164.5278052,5f3ee36d0306de1a411882a5,64aeaab685a29f4ca249be02,64bec9c8c4b657fd277ede67,right,-1,0.4357,0.35,15,-0.041800627,0.2832,,,,,,252,0,252,0,1,,,,,
,,441728,001,2023-07-24_19h58.30.271,arm3_q,2022.2.5,Win32,164.5278052,5f3ee36d0306de1a411882a5,64aeaab685a29f4ca249be02,64bec9c8c4b657fd277ede67,right,-1,0.4357,0.35,15,-0.055937197,0.2891,,,,,,253,0,253,0,1,,,,,
,,441728,001,2023-07-24_19h58.30.271,arm3_q,2022.2.5,Win32,164.5278052,5f3ee36d0306de1a411882a5,64aeaab685a29f4ca249be02,64bec9c8c4b657fd277ede67,right,-1,0.4357,0.35,15,-0.096039215,0.4063,,,,,,254,0,254,0,1,,,,,
,,441728,001,2023-07-24_19h58.30.271,arm3_q,2022.2.5,Win32,164.5278052,5f3ee36d0306de1a411882a5,64aeaab685a29f4ca249be02,64bec9c8c4b657fd277ede67,down,-1,0.4357,0.35,16,0,0.2833,,,,,,255,0,255,0,1,,,,,
,,441728,001,2023-07-24_19h58.30.271,arm3_q,2022.2.5,Win32,164.5278052,5f3ee36d0306de1a411882a5,64aeaab685a29f4ca249be02,64bec9c8c4b657fd277ede67,right,-1,0.4357,0.35,16,-0.029175918,0.732,,,,,,256,0,256,0,1,,,,,
,,441728,001,2023-07-24_19h58.30.271,arm3_q,2022.2.5,Win32,164.5278052,5f3ee36d0306de1a411882a5,64aeaab685a29f4ca249be02,64bec9c8c4b657fd277ede67,right,-1,0.4357,0.35,16,-0.030187019,0.2829,,,,,,257,0,257,0,1,,,,,
,,441728,001,2023-07-24_19h58.30.271,arm3_q,2022.2.5,Win32,164.5278052,5f3ee36d0306de1a411882a5,64aeaab685a29f4ca249be02,64bec9c8c4b657fd277ede67,right,-1,0.4357,0.35,16,-0.063638374,0.304,,,,,,258,0,258,0,1,,,,,
,,441728,001,2023-07-24_19h58.30.271,arm3_q,2022.2.5,Win32,164.5278052,5f3ee36d0306de1a411882a5,64aeaab685a29f4ca249be02,64bec9c8c4b657fd277ede67,right,-1,0.4357,0.35,16,-0.07632688,0.3005,,,,,,259,0,259,0,1,,,,,
,,441728,001,2023-07-24_19h58.30.271,arm3_q,2022.2.5,Win32,164.5278052,5f3ee36d0306de1a411882a5,64aeaab685a29f4ca249be02,64bec9c8c4b657fd277ede67,right,-1,0.4357,0.35,16,-0.079845615,0.2683,,,,,,260,0,260,0,1,,,,,
,,441728,001,2023-07-24_19h58.30.271,arm3_q,2022.2.5,Win32,164.5278052,5f3ee36d0306de1a411882a5,64aeaab685a29f4ca249be02,64bec9c8c4b657fd277ede67,down,-1,0.4357,0.35,17,0,0.4221,,,,,,261,0,261,0,1,,,,,
,,441728,001,2023-07-24_19h58.30.271,arm3_q,2022.2.5,Win32,164.5278052,5f3ee36d0306de1a411882a5,64aeaab685a29f4ca249be02,64bec9c8c4b657fd277ede67,right,-1,0.4357,0.35,17,-0.02094932,0.6717,,,,,,262,0,262,0,1,,,,,
,,441728,001,2023-07-24_19h58.30.271,arm3_q,2022.2.5,Win32,164.5278052,5f3ee36d0306de1a411882a5,64aeaab685a29f4ca249be02,64bec9c8c4b657fd277ede67,right,-1,0.4357,0.35,17,-0.038548757,0.3066,,,,,,263,0,263,0,1,,,,,
,,441728,001,2023-07-24_19h58.30.271,arm3_q,2022.2.5,Win32,164.5278052,5f3ee36d0306de1a411882a5,64aeaab685a29f4ca249be02,64bec9c8c4b657fd277ede67,right,-1,0.4357,0.35,17,-0.027353261,0.2707,,,,,,264,0,264,0,1,,,,,
,,441728,001,2023-07-24_19h58.30.271,arm3_q,2022.2.5,Win32,164.5278052,5f3ee36d0306de1a411882a5,64aeaab685a29f4ca249be02,64bec9c8c4b657fd277ede67,right,-1,0.4357,0.35,17,-0.049346073,0.2946,,,,,,265,0,265,0,1,,,,,
,,441728,001,2023-07-24_19h58.30.271,arm3_q,2022.2.5,Win32,164.5278052,5f3ee36d0306de1a411882a5,64aeaab685a29f4ca249be02,64bec9c8c4b657fd277ede67,right,-1,0.4357,0.35,17,-0.098376504,0.2888,,,,,,266,0,266,0,1,,,,,
,,441728,001,2023-07-24_19h58.30.271,arm3_q,2022.2.5,Win32,164.5278052,5f3ee36d0306de1a411882a5,64aeaab685a29f4ca249be02,64bec9c8c4b657fd277ede67,down,1,0.4357,0.35,17,0,0.5032,,,,,,267,0,267,0,1,,,,,
,,441728,001,2023-07-24_19h58.30.271,arm3_q,2022.2.5,Win32,164.5278052,5f3ee36d0306de1a411882a5,64aeaab685a29f4ca249be02,64bec9c8c4b657fd277ede67,right,1,0.4357,0.35,17,0.030173536,0.7444,,,,,,268,0,268,0,1,,,,,
,,441728,001,2023-07-24_19h58.30.271,arm3_q,2022.2.5,Win32,164.5278052,5f3ee36d0306de1a411882a5,64aeaab685a29f4ca249be02,64bec9c8c4b657fd277ede67,right,1,0.4357,0.35,17,0.03632311,0.3381,,,,,,269,0,269,0,1,,,,,
,,441728,001,2023-07-24_19h58.30.271,arm3_q,2022.2.5,Win32,164.5278052,5f3ee36d0306de1a411882a5,64aeaab685a29f4ca249be02,64bec9c8c4b657fd277ede67,right,1,0.4357,0.35,17,0.011648268,0.2498,,,,,,270,0,270,0,1,,,,,
,,441728,001,2023-07-24_19h58.30.271,arm3_q,2022.2.5,Win32,164.5278052,5f3ee36d0306de1a411882a5,64aeaab685a29f4ca249be02,64bec9c8c4b657fd277ede67,right,1,0.4357,0.35,17,0.048009382,0.2914,,,,,,271,0,271,0,1,,,,,
,,441728,001,2023-07-24_19h58.30.271,arm3_q,2022.2.5,Win32,164.5278052,5f3ee36d0306de1a411882a5,64aeaab685a29f4ca249be02,64bec9c8c4b657fd277ede67,right,1,0.4357,0.35,17,0.064874769,0.2571,,,,,,272,0,272,0,1,,,,,
,,441728,001,2023-07-24_19h58.30.271,arm3_q,2022.2.5,Win32,164.5278052,5f3ee36d0306de1a411882a5,64aeaab685a29f4ca249be02,64bec9c8c4b657fd277ede67,up,-1,0.4357,0.35,17,0,0.4221,,,,,,273,0,273,0,1,,,,,
,,441728,001,2023-07-24_19h58.30.271,arm3_q,2022.2.5,Win32,164.5278052,5f3ee36d0306de1a411882a5,64aeaab685a29f4ca249be02,64bec9c8c4b657fd277ede67,right,-1,0.4357,0.35,17,-0.009977953,0.6223,,,,,,274,0,274,0,1,,,,,
,,441728,001,2023-07-24_19h58.30.271,arm3_q,2022.2.5,Win32,164.5278052,5f3ee36d0306de1a411882a5,64aeaab685a29f4ca249be02,64bec9c8c4b657fd277ede67,right,-1,0.4357,0.35,17,-0.021551422,0.26,,,,,,275,0,275,0,1,,,,,
,,441728,001,2023-07-24_19h58.30.271,arm3_q,2022.2.5,Win32,164.5278052,5f3ee36d0306de1a411882a5,64aeaab685a29f4ca249be02,64bec9c8c4b657fd277ede67,right,-1,0.4357,0.35,17,-0.031884616,0.2549,,,,,,276,0,276,0,1,,,,,
,,441728,001,2023-07-24_19h58.30.271,arm3_q,2022.2.5,Win32,164.5278052,5f3ee36d0306de1a411882a5,64aeaab685a29f4ca249be02,64bec9c8c4b657fd277ede67,right,-1,0.4357,0.35,17,-0.036933668,0.314,,,,,,277,0,277,0,1,,,,,
,,441728,001,2023-07-24_19h58.30.271,arm3_q,2022.2.5,Win32,164.5278052,5f3ee36d0306de1a411882a5,64aeaab685a29f4ca249be02,64bec9c8c4b657fd277ede67,right,-1,0.4357,0.35,17,-0.03033952,0.2891,,,,,,278,0,278,0,1,,,,,
,,441728,001,2023-07-24_19h58.30.271,arm3_q,2022.2.5,Win32,164.5278052,5f3ee36d0306de1a411882a5,64aeaab685a29f4ca249be02,64bec9c8c4b657fd277ede67,right,-1,0.4357,0.35,17,-0.035760854,0.3379,,,,,,279,0,279,0,1,,,,,
,,441728,001,2023-07-24_19h58.30.271,arm3_q,2022.2.5,Win32,164.5278052,5f3ee36d0306de1a411882a5,64aeaab685a29f4ca249be02,64bec9c8c4b657fd277ede67,right,-1,0.4357,0.35,17,-0.024694559,0.3338,,,,,,280,0,280,0,1,,,,,
,,441728,001,2023-07-24_19h58.30.271,arm3_q,2022.2.5,Win32,164.5278052,5f3ee36d0306de1a411882a5,64aeaab685a29f4ca249be02,64bec9c8c4b657fd277ede67,right,-1,0.4357,0.35,17,-0.047330147,0.5321,,,,,,281,0,281,0,1,,,,,
,,441728,001,2023-07-24_19h58.30.271,arm3_q,2022.2.5,Win32,164.5278052,5f3ee36d0306de1a411882a5,64aeaab685a29f4ca249be02,64bec9c8c4b657fd277ede67,right,-1,0.4357,0.35,17,-0.060588154,0.3126,,,,,,282,0,282,0,1,,,,,
,,441728,001,2023-07-24_19h58.30.271,arm3_q,2022.2.5,Win32,164.5278052,5f3ee36d0306de1a411882a5,64aeaab685a29f4ca249be02,64bec9c8c4b657fd277ede67,down,1,0.4357,0.35,18,0,0.3986,,,,,,283,0,283,0,1,,,,,
,,441728,001,2023-07-24_19h58.30.271,arm3_q,2022.2.5,Win32,164.5278052,5f3ee36d0306de1a411882a5,64aeaab685a29f4ca249be02,64bec9c8c4b657fd277ede67,right,1,0.4357,0.35,18,-0.007335838,0.6625,,,,,,284,0,284,0,1,,,,,
,,441728,001,2023-07-24_19h58.30.271,arm3_q,2022.2.5,Win32,164.5278052,5f3ee36d0306de1a411882a5,64aeaab685a29f4ca249be02,64bec9c8c4b657fd277ede67,right,1,0.4357,0.35,18,0.000146623,0.2788,,,,,,285,0,285,0,1,,,,,
,,441728,001,2023-07-24_19h58.30.271,arm3_q,2022.2.5,Win32,164.5278052,5f3ee36d0306de1a411882a5,64aeaab685a29f4ca249be02,64bec9c8c4b657fd277ede67,right,1,0.4357,0.35,18,-0.004555755,0.2746,,,,,,286,0,286,0,1,,,,,
,,441728,001,2023-07-24_19h58.30.271,arm3_q,2022.2.5,Win32,164.5278052,5f3ee36d0306de1a411882a5,64aeaab685a29f4ca249be02,64bec9c8c4b657fd277ede67,right,1,0.4357,0.35,18,-0.003113513,0.284,,,,,,287,0,287,0,1,,,,,
,,441728,001,2023-07-24_19h58.30.271,arm3_q,2022.2.5,Win32,164.5278052,5f3ee36d0306de1a411882a5,64aeaab685a29f4ca249be02,64bec9c8c4b657fd277ede67,right,1,0.4357,0.35,18,0.047619971,0.314,,,,,,288,0,288,0,1,,,,,
,,441728,001,2023-07-24_19h58.30.271,arm3_q,2022.2.5,Win32,164.5278052,5f3ee36d0306de1a411882a5,64aeaab685a29f4ca249be02,64bec9c8c4b657fd277ede67,right,1,0.4357,0.35,18,0.060059859,0.3499,,,,,,289,0,289,0,1,,,,,
,,441728,001,2023-07-24_19h58.30.271,arm3_q,2022.2.5,Win32,164.5278052,5f3ee36d0306de1a411882a5,64aeaab685a29f4ca249be02,64bec9c8c4b657fd277ede67,up,1,0.4357,0.35,18,0,0.313,,,,,,290,0,290,0,1,,,,,
,,441728,001,2023-07-24_19h58.30.271,arm3_q,2022.2.5,Win32,164.5278052,5f3ee36d0306de1a411882a5,64aeaab685a29f4ca249be02,64bec9c8c4b657fd277ede67,right,1,0.4357,0.35,18,0.018196643,0.6377,,,,,,291,0,291,0,1,,,,,
,,441728,001,2023-07-24_19h58.30.271,arm3_q,2022.2.5,Win32,164.5278052,5f3ee36d0306de1a411882a5,64aeaab685a29f4ca249be02,64bec9c8c4b657fd277ede67,right,1,0.4357,0.35,18,0.01458214,0.241,,,,,,292,0,292,0,1,,,,,
,,441728,001,2023-07-24_19h58.30.271,arm3_q,2022.2.5,Win32,164.5278052,5f3ee36d0306de1a411882a5,64aeaab685a29f4ca249be02,64bec9c8c4b657fd277ede67,right,1,0.4357,0.35,18,0.030989748,0.2713,,,,,,293,0,293,0,1,,,,,
,,441728,001,2023-07-24_19h58.30.271,arm3_q,2022.2.5,Win32,164.5278052,5f3ee36d0306de1a411882a5,64aeaab685a29f4ca249be02,64bec9c8c4b657fd277ede67,right,1,0.4357,0.35,18,0.035683225,0.265,,,,,,294,0,294,0,1,,,,,
,,441728,001,2023-07-24_19h58.30.271,arm3_q,2022.2.5,Win32,164.5278052,5f3ee36d0306de1a411882a5,64aeaab685a29f4ca249be02,64bec9c8c4b657fd277ede67,right,1,0.4357,0.35,18,0.053613605,0.2796,,,,,,295,0,295,0,1,,,,,
,,441728,001,2023-07-24_19h58.30.271,arm3_q,2022.2.5,Win32,164.5278052,5f3ee36d0306de1a411882a5,64aeaab685a29f4ca249be02,64bec9c8c4b657fd277ede67,right,1,0.4357,0.35,18,0.078188112,0.4047,,,,,,296,0,296,0,1,,,,,
,,441728,001,2023-07-24_19h58.30.271,arm3_q,2022.2.5,Win32,164.5278052,5f3ee36d0306de1a411882a5,64aeaab685a29f4ca249be02,64bec9c8c4b657fd277ede67,up,1,0.4357,0.35,18,0,0.3107,,,,,,297,0,297,0,1,,,,,
,,441728,001,2023-07-24_19h58.30.271,arm3_q,2022.2.5,Win32,164.5278052,5f3ee36d0306de1a411882a5,64aeaab685a29f4ca249be02,64bec9c8c4b657fd277ede67,right,1,0.4357,0.35,18,-0.005819366,0.5855,,,,,,298,0,298,0,1,,,,,
,,441728,001,2023-07-24_19h58.30.271,arm3_q,2022.2.5,Win32,164.5278052,5f3ee36d0306de1a411882a5,64aeaab685a29f4ca249be02,64bec9c8c4b657fd277ede67,right,1,0.4357,0.35,18,-0.007906813,0.2408,,,,,,299,0,299,0,1,,,,,
,,441728,001,2023-07-24_19h58.30.271,arm3_q,2022.2.5,Win32,164.5278052,5f3ee36d0306de1a411882a5,64aeaab685a29f4ca249be02,64bec9c8c4b657fd277ede67,right,1,0.4357,0.35,18,-0.009845379,0.2887,,,,,,300,0,300,0,1,,,,,
,,441728,001,2023-07-24_19h58.30.271,arm3_q,2022.2.5,Win32,164.5278052,5f3ee36d0306de1a411882a5,64aeaab685a29f4ca249be02,64bec9c8c4b657fd277ede67,right,1,0.4357,0.35,18,0.023410677,0.2548,,,,,,301,0,301,0,1,,,,,
,,441728,001,2023-07-24_19h58.30.271,arm3_q,2022.2.5,Win32,164.5278052,5f3ee36d0306de1a411882a5,64aeaab685a29f4ca249be02,64bec9c8c4b657fd277ede67,right,1,0.4357,0.35,18,0.013762366,0.3083,,,,,,302,0,302,0,1,,,,,
,,441728,001,2023-07-24_19h58.30.271,arm3_q,2022.2.5,Win32,164.5278052,5f3ee36d0306de1a411882a5,64aeaab685a29f4ca249be02,64bec9c8c4b657fd277ede67,right,1,0.4357,0.35,18,0.026645628,0.2799,,,,,,303,0,303,0,1,,,,,
,,441728,001,2023-07-24_19h58.30.271,arm3_q,2022.2.5,Win32,164.5278052,5f3ee36d0306de1a411882a5,64aeaab685a29f4ca249be02,64bec9c8c4b657fd277ede67,right,1,0.4357,0.35,18,0.044900927,0.3081,,,,,,304,0,304,0,1,,,,,
,,441728,001,2023-07-24_19h58.30.271,arm3_q,2022.2.5,Win32,164.5278052,5f3ee36d0306de1a411882a5,64aeaab685a29f4ca249be02,64bec9c8c4b657fd277ede67,right,1,0.4357,0.35,18,0.023394403,0.2884,,,,,,305,0,305,0,1,,,,,
,,441728,001,2023-07-24_19h58.30.271,arm3_q,2022.2.5,Win32,164.5278052,5f3ee36d0306de1a411882a5,64aeaab685a29f4ca249be02,64bec9c8c4b657fd277ede67,right,1,0.4357,0.35,18,0.033860839,0.2964,,,,,,306,0,306,0,1,,,,,
,,441728,001,2023-07-24_19h58.30.271,arm3_q,2022.2.5,Win32,164.5278052,5f3ee36d0306de1a411882a5,64aeaab685a29f4ca249be02,64bec9c8c4b657fd277ede67,right,1,0.4357,0.35,18,0.044990058,0.246,,,,,,307,0,307,0,1,,,,,
,,441728,001,2023-07-24_19h58.30.271,arm3_q,2022.2.5,Win32,164.5278052,5f3ee36d0306de1a411882a5,64aeaab685a29f4ca249be02,64bec9c8c4b657fd277ede67,up,1,0.4357,0.35,19,0,0.4244,,,,,,308,0,308,0,1,,,,,
,,441728,001,2023-07-24_19h58.30.271,arm3_q,2022.2.5,Win32,164.5278052,5f3ee36d0306de1a411882a5,64aeaab685a29f4ca249be02,64bec9c8c4b657fd277ede67,right,1,0.4357,0.35,19,0.031904,0.7062,,,,,,309,0,309,0,1,,,,,
,,441728,001,2023-07-24_19h58.30.271,arm3_q,2022.2.5,Win32,164.5278052,5f3ee36d0306de1a411882a5,64aeaab685a29f4ca249be02,64bec9c8c4b657fd277ede67,right,1,0.4357,0.35,19,0.023239086,0.521,,,,,,310,0,310,0,1,,,,,
,,441728,001,2023-07-24_19h58.30.271,arm3_q,2022.2.5,Win32,164.5278052,5f3ee36d0306de1a411882a5,64aeaab685a29f4ca249be02,64bec9c8c4b657fd277ede67,right,1,0.4357,0.35,19,0.055823881,0.2653,,,,,,311,0,311,0,1,,,,,
,,441728,001,2023-07-24_19h58.30.271,arm3_q,2022.2.5,Win32,164.5278052,5f3ee36d0306de1a411882a5,64aeaab685a29f4ca249be02,64bec9c8c4b657fd277ede67,right,1,0.4357,0.35,19,0.044032338,0.2958,,,,,,312,0,312,0,1,,,,,
,,441728,001,2023-07-24_19h58.30.271,arm3_q,2022.2.5,Win32,164.5278052,5f3ee36d0306de1a411882a5,64aeaab685a29f4ca249be02,64bec9c8c4b657fd277ede67,right,1,0.4357,0.35,19,0.076670375,0.2889,,,,,,313,0,313,0,1,,,,,
,,441728,001,2023-07-24_19h58.30.271,arm3_q,2022.2.5,Win32,164.5278052,5f3ee36d0306de1a411882a5,64aeaab685a29f4ca249be02,64bec9c8c4b657fd277ede67,up,-1,0.4357,0.35,19,0,0.4537,,,,,,314,0,314,0,1,,,,,
,,441728,001,2023-07-24_19h58.30.271,arm3_q,2022.2.5,Win32,164.5278052,5f3ee36d0306de1a411882a5,64aeaab685a29f4ca249be02,64bec9c8c4b657fd277ede67,right,-1,0.4357,0.35,19,0.007234264,0.6074,,,,,,315,0,315,0,1,,,,,
,,441728,001,2023-07-24_19h58.30.271,arm3_q,2022.2.5,Win32,164.5278052,5f3ee36d0306de1a411882a5,64aeaab685a29f4ca249be02,64bec9c8c4b657fd277ede67,right,-1,0.4357,0.35,19,-0.033049105,0.247,,,,,,316,0,316,0,1,,,,,
,,441728,001,2023-07-24_19h58.30.271,arm3_q,2022.2.5,Win32,164.5278052,5f3ee36d0306de1a411882a5,64aeaab685a29f4ca249be02,64bec9c8c4b657fd277ede67,right,-1,0.4357,0.35,19,-0.043352747,0.2108,,,,,,317,0,317,0,1,,,,,
,,441728,001,2023-07-24_19h58.30.271,arm3_q,2022.2.5,Win32,164.5278052,5f3ee36d0306de1a411882a5,64aeaab685a29f4ca249be02,64bec9c8c4b657fd277ede67,right,-1,0.4357,0.35,19,-0.065385245,0.2381,,,,,,318,0,318,0,1,,,,,
,,441728,001,2023-07-24_19h58.30.271,arm3_q,2022.2.5,Win32,164.5278052,5f3ee36d0306de1a411882a5,64aeaab685a29f4ca249be02,64bec9c8c4b657fd277ede67,right,-1,0.4357,0.35,19,-0.084860353,0.2223,,,,,,319,0,319,0,1,,,,,
,,441728,001,2023-07-24_19h58.30.271,arm3_q,2022.2.5,Win32,164.5278052,5f3ee36d0306de1a411882a5,64aeaab685a29f4ca249be02,64bec9c8c4b657fd277ede67,right,-1,0.4357,0.35,19,-0.077730412,0.2361,,,,,,320,0,320,0,1,,,,,
,,441728,001,2023-07-24_19h58.30.271,arm3_q,2022.2.5,Win32,164.5278052,5f3ee36d0306de1a411882a5,64aeaab685a29f4ca249be02,64bec9c8c4b657fd277ede67,right,-1,0.4357,0.35,19,-0.076676242,0.2535,,,,,,321,0,321,0,1,,,,,
,,441728,001,2023-07-24_19h58.30.271,arm3_q,2022.2.5,Win32,164.5278052,5f3ee36d0306de1a411882a5,64aeaab685a29f4ca249be02,64bec9c8c4b657fd277ede67,right,-1,0.4357,0.35,19,-0.074254293,0.2957,,,,,,322,0,322,0,1,,,,,
,,441728,001,2023-07-24_19h58.30.271,arm3_q,2022.2.5,Win32,164.5278052,5f3ee36d0306de1a411882a5,64aeaab685a29f4ca249be02,64bec9c8c4b657fd277ede67,down,-1,0.4357,0.35,19,0,0.3352,,,,,,323,0,323,0,1,,,,,
,,441728,001,2023-07-24_19h58.30.271,arm3_q,2022.2.5,Win32,164.5278052,5f3ee36d0306de1a411882a5,64aeaab685a29f4ca249be02,64bec9c8c4b657fd277ede67,right,-1,0.4357,0.35,19,-0.008163374,0.6075,,,,,,324,0,324,0,1,,,,,
,,441728,001,2023-07-24_19h58.30.271,arm3_q,2022.2.5,Win32,164.5278052,5f3ee36d0306de1a411882a5,64aeaab685a29f4ca249be02,64bec9c8c4b657fd277ede67,right,-1,0.4357,0.35,19,-0.027627182,0.2254,,,,,,325,0,325,0,1,,,,,
,,441728,001,2023-07-24_19h58.30.271,arm3_q,2022.2.5,Win32,164.5278052,5f3ee36d0306de1a411882a5,64aeaab685a29f4ca249be02,64bec9c8c4b657fd277ede67,right,-1,0.4357,0.35,19,-0.037215808,0.2522,,,,,,326,0,326,0,1,,,,,
,,441728,001,2023-07-24_19h58.30.271,arm3_q,2022.2.5,Win32,164.5278052,5f3ee36d0306de1a411882a5,64aeaab685a29f4ca249be02,64bec9c8c4b657fd277ede67,right,-1,0.4357,0.35,19,-0.068133521,0.2704,,,,,,327,0,327,0,1,,,,,
,,441728,001,2023-07-24_19h58.30.271,arm3_q,2022.2.5,Win32,164.5278052,5f3ee36d0306de1a411882a5,64aeaab685a29f4ca249be02,64bec9c8c4b657fd277ede67,right,-1,0.4357,0.35,19,-0.06435437,0.2706,,,,,,328,0,328,0,1,,,,,
,,441728,001,2023-07-24_19h58.30.271,arm3_q,2022.2.5,Win32,164.5278052,5f3ee36d0306de1a411882a5,64aeaab685a29f4ca249be02,64bec9c8c4b657fd277ede67,right,-1,0.4357,0.35,19,-0.054483851,0.2652,,,,,,329,0,329,0,1,,,,,
,,441728,001,2023-07-24_19h58.30.271,arm3_q,2022.2.5,Win32,164.5278052,5f3ee36d0306de1a411882a5,64aeaab685a29f4ca249be02,64bec9c8c4b657fd277ede67,right,-1,0.4357,0.35,19,-0.070568811,0.3279,,,,,,330,0,330,0,1,,,,,
,,441728,001,2023-07-24_19h58.30.271,arm3_q,2022.2.5,Win32,164.5278052,5f3ee36d0306de1a411882a5,64aeaab685a29f4ca249be02,64bec9c8c4b657fd277ede67,down,-1,0.4357,0.35,20,0,0.4045,,,,,,331,0,331,0,1,,,,,
,,441728,001,2023-07-24_19h58.30.271,arm3_q,2022.2.5,Win32,164.5278052,5f3ee36d0306de1a411882a5,64aeaab685a29f4ca249be02,64bec9c8c4b657fd277ede67,right,-1,0.4357,0.35,20,-0.013510346,0.7171,,,,,,332,0,332,0,1,,,,,
,,441728,001,2023-07-24_19h58.30.271,arm3_q,2022.2.5,Win32,164.5278052,5f3ee36d0306de1a411882a5,64aeaab685a29f4ca249be02,64bec9c8c4b657fd277ede67,right,-1,0.4357,0.35,20,-0.006502106,0.2411,,,,,,333,0,333,0,1,,,,,
,,441728,001,2023-07-24_19h58.30.271,arm3_q,2022.2.5,Win32,164.5278052,5f3ee36d0306de1a411882a5,64aeaab685a29f4ca249be02,64bec9c8c4b657fd277ede67,right,-1,0.4357,0.35,20,0.000506068,0.286,,,,,,334,0,334,0,1,,,,,
,,441728,001,2023-07-24_19h58.30.271,arm3_q,2022.2.5,Win32,164.5278052,5f3ee36d0306de1a411882a5,64aeaab685a29f4ca249be02,64bec9c8c4b657fd277ede67,right,-1,0.4357,0.35,20,-0.001199681,0.3072,,,,,,335,0,335,0,1,,,,,
,,441728,001,2023-07-24_19h58.30.271,arm3_q,2022.2.5,Win32,164.5278052,5f3ee36d0306de1a411882a5,64aeaab685a29f4ca249be02,64bec9c8c4b657fd277ede67,right,-1,0.4357,0.35,20,-0.004153024,0.2807,,,,,,336,0,336,0,1,,,,,
,,441728,001,2023-07-24_19h58.30.271,arm3_q,2022.2.5,Win32,164.5278052,5f3ee36d0306de1a411882a5,64aeaab685a29f4ca249be02,64bec9c8c4b657fd277ede67,right,-1,0.4357,0.35,20,-0.014435519,0.3476,,,,,,337,0,337,0,1,,,,,
,,441728,001,2023-07-24_19h58.30.271,arm3_q,2022.2.5,Win32,164.5278052,5f3ee36d0306de1a411882a5,64aeaab685a29f4ca249be02,64bec9c8c4b657fd277ede67,right,-1,0.4357,0.35,20,-0.009063208,0.2916,,,,,,338,0,338,0,1,,,,,
,,441728,001,2023-07-24_19h58.30.271,arm3_q,2022.2.5,Win32,164.5278052,5f3ee36d0306de1a411882a5,64aeaab685a29f4ca249be02,64bec9c8c4b657fd277ede67,right,-1,0.4357,0.35,20,-0.016711786,0.3141,,,,,,339,0,339,0,1,,,,,
,,441728,001,2023-07-24_19h58.30.271,arm3_q,2022.2.5,Win32,164.5278052,5f3ee36d0306de1a411882a5,64aeaab685a29f4ca249be02,64bec9c8c4b657fd277ede67,down,1,0.4357,0.35,21,0,0.6007,,,,,,340,0,340,0,1,,,,,
,,441728,001,2023-07-24_19h58.30.271,arm3_q,2022.2.5,Win32,164.5278052,5f3ee36d0306de1a411882a5,64aeaab685a29f4ca249be02,64bec9c8c4b657fd277ede67,right,1,0.4357,0.35,21,0.004147592,0.7376,,,,,,341,0,341,0,1,,,,,
,,441728,001,2023-07-24_19h58.30.271,arm3_q,2022.2.5,Win32,164.5278052,5f3ee36d0306de1a411882a5,64aeaab685a29f4ca249be02,64bec9c8c4b657fd277ede67,right,1,0.4357,0.35,21,-0.003438736,0.2404,,,,,,342,0,342,0,1,,,,,
,,441728,001,2023-07-24_19h58.30.271,arm3_q,2022.2.5,Win32,164.5278052,5f3ee36d0306de1a411882a5,64aeaab685a29f4ca249be02,64bec9c8c4b657fd277ede67,right,1,0.4357,0.35,21,0.031410641,0.3379,,,,,,343,0,343,0,1,,,,,
,,441728,001,2023-07-24_19h58.30.271,arm3_q,2022.2.5,Win32,164.5278052,5f3ee36d0306de1a411882a5,64aeaab685a29f4ca249be02,64bec9c8c4b657fd277ede67,right,1,0.4357,0.35,21,0.026438818,0.3015,,,,,,344,0,344,0,1,,,,,
,,441728,001,2023-07-24_19h58.30.271,arm3_q,2022.2.5,Win32,164.5278052,5f3ee36d0306de1a411882a5,64aeaab685a29f4ca249be02,64bec9c8c4b657fd277ede67,right,1,0.4357,0.35,21,0.012841308,0.2584,,,,,,345,0,345,0,1,,,,,
,,441728,001,2023-07-24_19h58.30.271,arm3_q,2022.2.5,Win32,164.5278052,5f3ee36d0306de1a411882a5,64aeaab685a29f4ca249be02,64bec9c8c4b657fd277ede67,right,1,0.4357,0.35,21,0.031890653,0.3028,,,,,,346,0,346,0,1,,,,,
,,441728,001,2023-07-24_19h58.30.271,arm3_q,2022.2.5,Win32,164.5278052,5f3ee36d0306de1a411882a5,64aeaab685a29f4ca249be02,64bec9c8c4b657fd277ede67,right,1,0.4357,0.35,21,0.03705579,0.3076,,,,,,347,0,347,0,1,,,,,
,,441728,001,2023-07-24_19h58.30.271,arm3_q,2022.2.5,Win32,164.5278052,5f3ee36d0306de1a411882a5,64aeaab685a29f4ca249be02,64bec9c8c4b657fd277ede67,up,1,0.4357,0.35,21,0,0.336,,,,,,348,0,348,0,1,,,,,
,,441728,001,2023-07-24_19h58.30.271,arm3_q,2022.2.5,Win32,164.5278052,5f3ee36d0306de1a411882a5,64aeaab685a29f4ca249be02,64bec9c8c4b657fd277ede67,right,1,0.4357,0.35,21,-0.003381707,0.5444,,,,,,349,0,349,0,1,,,,,
,,441728,001,2023-07-24_19h58.30.271,arm3_q,2022.2.5,Win32,164.5278052,5f3ee36d0306de1a411882a5,64aeaab685a29f4ca249be02,64bec9c8c4b657fd277ede67,right,1,0.4357,0.35,21,0.014637479,0.2772,,,,,,350,0,350,0,1,,,,,
,,441728,001,2023-07-24_19h58.30.271,arm3_q,2022.2.5,Win32,164.5278052,5f3ee36d0306de1a411882a5,64aeaab685a29f4ca249be02,64bec9c8c4b657fd277ede67,right,1,0.4357,0.35,21,0.037327087,0.2616,,,,,,351,0,351,0,1,,,,,
,,441728,001,2023-07-24_19h58.30.271,arm3_q,2022.2.5,Win32,164.5278052,5f3ee36d0306de1a411882a5,64aeaab685a29f4ca249be02,64bec9c8c4b657fd277ede67,right,1,0.4357,0.35,21,0.043037908,0.2596,,,,,,352,0,352,0,1,,,,,
,,441728,001,2023-07-24_19h58.30.271,arm3_q,2022.2.5,Win32,164.5278052,5f3ee36d0306de1a411882a5,64aeaab685a29f4ca249be02,64bec9c8c4b657fd277ede67,up,1,0.4357,0.35,21,0,0.3615,,,,,,353,0,353,0,1,,,,,
,,441728,001,2023-07-24_19h58.30.271,arm3_q,2022.2.5,Win32,164.5278052,5f3ee36d0306de1a411882a5,64aeaab685a29f4ca249be02,64bec9c8c4b657fd277ede67,right,1,0.4357,0.35,21,-0.021922826,0.6049,,,,,,354,0,354,0,1,,,,,
,,441728,001,2023-07-24_19h58.30.271,arm3_q,2022.2.5,Win32,164.5278052,5f3ee36d0306de1a411882a5,64aeaab685a29f4ca249be02,64bec9c8c4b657fd277ede67,right,1,0.4357,0.35,21,-0.033293672,0.2774,,,,,,355,0,355,0,1,,,,,
,,441728,001,2023-07-24_19h58.30.271,arm3_q,2022.2.5,Win32,164.5278052,5f3ee36d0306de1a411882a5,64aeaab685a29f4ca249be02,64bec9c8c4b657fd277ede67,right,1,0.4357,0.35,21,0.006761119,0.5197,,,,,,356,0,356,0,1,,,,,
,,441728,001,2023-07-24_19h58.30.271,arm3_q,2022.2.5,Win32,164.5278052,5f3ee36d0306de1a411882a5,64aeaab685a29f4ca249be02,64bec9c8c4b657fd277ede67,right,1,0.4357,0.35,21,0.016403415,0.2471,,,,,,357,0,357,0,1,,,,,
,,441728,001,2023-07-24_19h58.30.271,arm3_q,2022.2.5,Win32,164.5278052,5f3ee36d0306de1a411882a5,64aeaab685a29f4ca249be02,64bec9c8c4b657fd277ede67,right,1,0.4357,0.35,21,0.027602127,0.2559,,,,,,358,0,358,0,1,,,,,
,,441728,001,2023-07-24_19h58.30.271,arm3_q,2022.2.5,Win32,164.5278052,5f3ee36d0306de1a411882a5,64aeaab685a29f4ca249be02,64bec9c8c4b657fd277ede67,right,1,0.4357,0.35,21,0.026319351,0.2838,,,,,,359,0,359,0,1,,,,,
,,441728,001,2023-07-24_19h58.30.271,arm3_q,2022.2.5,Win32,164.5278052,5f3ee36d0306de1a411882a5,64aeaab685a29f4ca249be02,64bec9c8c4b657fd277ede67,up,-1,0.4357,0.35,21,0,0.5685,,,,,,360,0,360,0,1,,,,,
,,441728,001,2023-07-24_19h58.30.271,arm3_q,2022.2.5,Win32,164.5278052,5f3ee36d0306de1a411882a5,64aeaab685a29f4ca249be02,64bec9c8c4b657fd277ede67,right,-1,0.4357,0.35,21,0.025177006,0.5026,,,,,,361,0,361,0,1,,,,,
,,441728,001,2023-07-24_19h58.30.271,arm3_q,2022.2.5,Win32,164.5278052,5f3ee36d0306de1a411882a5,64aeaab685a29f4ca249be02,64bec9c8c4b657fd277ede67,right,-1,0.4357,0.35,21,0.033410743,0.3072,,,,,,362,0,362,0,1,,,,,
,,441728,001,2023-07-24_19h58.30.271,arm3_q,2022.2.5,Win32,164.5278052,5f3ee36d0306de1a411882a5,64aeaab685a29f4ca249be02,64bec9c8c4b657fd277ede67,right,-1,0.4357,0.35,21,0.029220958,0.3665,,,,,,363,0,363,0,1,,,,,
,,441728,001,2023-07-24_19h58.30.271,arm3_q,2022.2.5,Win32,164.5278052,5f3ee36d0306de1a411882a5,64aeaab685a29f4ca249be02,64bec9c8c4b657fd277ede67,right,-1,0.4357,0.35,21,-0.012458289,0.4726,,,,,,364,0,364,0,1,,,,,
,,441728,001,2023-07-24_19h58.30.271,arm3_q,2022.2.5,Win32,164.5278052,5f3ee36d0306de1a411882a5,64aeaab685a29f4ca249be02,64bec9c8c4b657fd277ede67,right,-1,0.4357,0.35,21,-0.029402829,0.6414,,,,,,365,0,365,0,1,,,,,
,,441728,001,2023-07-24_19h58.30.271,arm3_q,2022.2.5,Win32,164.5278052,5f3ee36d0306de1a411882a5,64aeaab685a29f4ca249be02,64bec9c8c4b657fd277ede67,right,-1,0.4357,0.35,21,-0.046788048,0.4174,,,,,,366,0,366,0,1,,,,,
,,441728,001,2023-07-24_19h58.30.271,arm3_q,2022.2.5,Win32,164.5278052,5f3ee36d0306de1a411882a5,64aeaab685a29f4ca249be02,64bec9c8c4b657fd277ede67,down,-1,0.4357,0.35,22,0,0.5438,,,,,,367,0,367,0,1,,,,,
,,441728,001,2023-07-24_19h58.30.271,arm3_q,2022.2.5,Win32,164.5278052,5f3ee36d0306de1a411882a5,64aeaab685a29f4ca249be02,64bec9c8c4b657fd277ede67,right,-1,0.4357,0.35,22,0.002614036,0.5992,,,,,,368,0,368,0,1,,,,,
,,441728,001,2023-07-24_19h58.30.271,arm3_q,2022.2.5,Win32,164.5278052,5f3ee36d0306de1a411882a5,64aeaab685a29f4ca249be02,64bec9c8c4b657fd277ede67,right,-1,0.4357,0.35,22,0.016185123,0.3558,,,,,,369,0,369,0,1,,,,,
,,441728,001,2023-07-24_19h58.30.271,arm3_q,2022.2.5,Win32,164.5278052,5f3ee36d0306de1a411882a5,64aeaab685a29f4ca249be02,64bec9c8c4b657fd277ede67,,,,,,,,,,,,,,,,,,0,0,0,0,1
space,2.5307,441728,001,2023-07-24_19h58.30.271,arm3_q,2022.2.5,Win32,164.5278052,5f3ee36d0306de1a411882a5,64aeaab685a29f4ca249be02,64bec9c8c4b657fd277ede67,right,-1,0.5643,0.35,22,0.01431266,1.2428,,,,,,0,0,0,0,1,,,,,
,,441728,001,2023-07-24_19h58.30.271,arm3_q,2022.2.5,Win32,164.5278052,5f3ee36d0306de1a411882a5,64aeaab685a29f4ca249be02,64bec9c8c4b657fd277ede67,right,-1,0.5643,0.35,22,0.031094149,0.2756,,,,,,1,0,1,0,1,,,,,
,,441728,001,2023-07-24_19h58.30.271,arm3_q,2022.2.5,Win32,164.5278052,5f3ee36d0306de1a411882a5,64aeaab685a29f4ca249be02,64bec9c8c4b657fd277ede67,right,-1,0.5643,0.35,22,-0.040201021,0.2886,,,,,,2,0,2,0,1,,,,,
,,441728,001,2023-07-24_19h58.30.271,arm3_q,2022.2.5,Win32,164.5278052,5f3ee36d0306de1a411882a5,64aeaab685a29f4ca249be02,64bec9c8c4b657fd277ede67,right,-1,0.5643,0.35,22,-0.059808316,0.2889,,,,,,3,0,3,0,1,,,,,
,,441728,001,2023-07-24_19h58.30.271,arm3_q,2022.2.5,Win32,164.5278052,5f3ee36d0306de1a411882a5,64aeaab685a29f4ca249be02,64bec9c8c4b657fd277ede67,right,-1,0.5643,0.35,22,-0.074675013,0.2605,,,,,,4,0,4,0,1,,,,,
,,441728,001,2023-07-24_19h58.30.271,arm3_q,2022.2.5,Win32,164.5278052,5f3ee36d0306de1a411882a5,64aeaab685a29f4ca249be02,64bec9c8c4b657fd277ede67,right,-1,0.5643,0.35,22,-0.075177941,0.3063,,,,,,5,0,5,0,1,,,,,
,,441728,001,2023-07-24_19h58.30.271,arm3_q,2022.2.5,Win32,164.5278052,5f3ee36d0306de1a411882a5,64aeaab685a29f4ca249be02,64bec9c8c4b657fd277ede67,right,-1,0.5643,0.35,22,-0.073058402,0.255,,,,,,6,0,6,0,1,,,,,
,,441728,001,2023-07-24_19h58.30.271,arm3_q,2022.2.5,Win32,164.5278052,5f3ee36d0306de1a411882a5,64aeaab685a29f4ca249be02,64bec9c8c4b657fd277ede67,right,-1,0.5643,0.35,22,-0.047047538,0.2899,,,,,,7,0,7,0,1,,,,,
,,441728,001,2023-07-24_19h58.30.271,arm3_q,2022.2.5,Win32,164.5278052,5f3ee36d0306de1a411882a5,64aeaab685a29f4ca249be02,64bec9c8c4b657fd277ede67,right,-1,0.5643,0.35,22,-0.071225334,0.29,,,,,,8,0,8,0,1,,,,,
,,441728,001,2023-07-24_19h58.30.271,arm3_q,2022.2.5,Win32,164.5278052,5f3ee36d0306de1a411882a5,64aeaab685a29f4ca249be02,64bec9c8c4b657fd277ede67,down,-1,0.5643,0.35,22,0,0.3446,,,,,,9,0,9,0,1,,,,,
,,441728,001,2023-07-24_19h58.30.271,arm3_q,2022.2.5,Win32,164.5278052,5f3ee36d0306de1a411882a5,64aeaab685a29f4ca249be02,64bec9c8c4b657fd277ede67,right,-1,0.5643,0.35,22,-0.013544433,0.7156,,,,,,10,0,10,0,1,,,,,
,,441728,001,2023-07-24_19h58.30.271,arm3_q,2022.2.5,Win32,164.5278052,5f3ee36d0306de1a411882a5,64aeaab685a29f4ca249be02,64bec9c8c4b657fd277ede67,right,-1,0.5643,0.35,22,-0.003932688,0.2489,,,,,,11,0,11,0,1,,,,,
,,441728,001,2023-07-24_19h58.30.271,arm3_q,2022.2.5,Win32,164.5278052,5f3ee36d0306de1a411882a5,64aeaab685a29f4ca249be02,64bec9c8c4b657fd277ede67,right,-1,0.5643,0.35,22,-0.012393156,0.2584,,,,,,12,0,12,0,1,,,,,
,,441728,001,2023-07-24_19h58.30.271,arm3_q,2022.2.5,Win32,164.5278052,5f3ee36d0306de1a411882a5,64aeaab685a29f4ca249be02,64bec9c8c4b657fd277ede67,right,-1,0.5643,0.35,22,-0.002721307,0.2727,,,,,,13,0,13,0,1,,,,,
,,441728,001,2023-07-24_19h58.30.271,arm3_q,2022.2.5,Win32,164.5278052,5f3ee36d0306de1a411882a5,64aeaab685a29f4ca249be02,64bec9c8c4b657fd277ede67,right,-1,0.5643,0.35,22,-0.010737725,0.2415,,,,,,14,0,14,0,1,,,,,
,,441728,001,2023-07-24_19h58.30.271,arm3_q,2022.2.5,Win32,164.5278052,5f3ee36d0306de1a411882a5,64aeaab685a29f4ca249be02,64bec9c8c4b657fd277ede67,right,-1,0.5643,0.35,22,-0.002047939,0.2589,,,,,,15,0,15,0,1,,,,,
,,441728,001,2023-07-24_19h58.30.271,arm3_q,2022.2.5,Win32,164.5278052,5f3ee36d0306de1a411882a5,64aeaab685a29f4ca249be02,64bec9c8c4b657fd277ede67,right,-1,0.5643,0.35,22,-0.017760575,0.2375,,,,,,16,0,16,0,1,,,,,
,,441728,001,2023-07-24_19h58.30.271,arm3_q,2022.2.5,Win32,164.5278052,5f3ee36d0306de1a411882a5,64aeaab685a29f4ca249be02,64bec9c8c4b657fd277ede67,right,-1,0.5643,0.35,22,-0.038640807,0.2746,,,,,,17,0,17,0,1,,,,,
,,441728,001,2023-07-24_19h58.30.271,arm3_q,2022.2.5,Win32,164.5278052,5f3ee36d0306de1a411882a5,64aeaab685a29f4ca249be02,64bec9c8c4b657fd277ede67,right,-1,0.5643,0.35,22,-0.051244213,0.2541,,,,,,18,0,18,0,1,,,,,
,,441728,001,2023-07-24_19h58.30.271,arm3_q,2022.2.5,Win32,164.5278052,5f3ee36d0306de1a411882a5,64aeaab685a29f4ca249be02,64bec9c8c4b657fd277ede67,down,-1,0.5643,0.35,23,0,0.3617,,,,,,19,0,19,0,1,,,,,
,,441728,001,2023-07-24_19h58.30.271,arm3_q,2022.2.5,Win32,164.5278052,5f3ee36d0306de1a411882a5,64aeaab685a29f4ca249be02,64bec9c8c4b657fd277ede67,right,-1,0.5643,0.35,23,0.006930474,0.6006,,,,,,20,0,20,0,1,,,,,
,,441728,001,2023-07-24_19h58.30.271,arm3_q,2022.2.5,Win32,164.5278052,5f3ee36d0306de1a411882a5,64aeaab685a29f4ca249be02,64bec9c8c4b657fd277ede67,right,-1,0.5643,0.35,23,0.004931834,0.2643,,,,,,21,0,21,0,1,,,,,
,,441728,001,2023-07-24_19h58.30.271,arm3_q,2022.2.5,Win32,164.5278052,5f3ee36d0306de1a411882a5,64aeaab685a29f4ca249be02,64bec9c8c4b657fd277ede67,right,-1,0.5643,0.35,23,-0.035461693,0.2614,,,,,,22,0,22,0,1,,,,,
,,441728,001,2023-07-24_19h58.30.271,arm3_q,2022.2.5,Win32,164.5278052,5f3ee36d0306de1a411882a5,64aeaab685a29f4ca249be02,64bec9c8c4b657fd277ede67,right,-1,0.5643,0.35,23,-0.020298917,0.2908,,,,,,23,0,23,0,1,,,,,
,,441728,001,2023-07-24_19h58.30.271,arm3_q,2022.2.5,Win32,164.5278052,5f3ee36d0306de1a411882a5,64aeaab685a29f4ca249be02,64bec9c8c4b657fd277ede67,right,-1,0.5643,0.35,23,-0.014433666,0.2722,,,,,,24,0,24,0,1,,,,,
,,441728,001,2023-07-24_19h58.30.271,arm3_q,2022.2.5,Win32,164.5278052,5f3ee36d0306de1a411882a5,64aeaab685a29f4ca249be02,64bec9c8c4b657fd277ede67,right,-1,0.5643,0.35,23,-0.042067904,0.2745,,,,,,25,0,25,0,1,,,,,
,,441728,001,2023-07-24_19h58.30.271,arm3_q,2022.2.5,Win32,164.5278052,5f3ee36d0306de1a411882a5,64aeaab685a29f4ca249be02,64bec9c8c4b657fd277ede67,right,-1,0.5643,0.35,23,-0.038457599,0.2732,,,,,,26,0,26,0,1,,,,,
,,441728,001,2023-07-24_19h58.30.271,arm3_q,2022.2.5,Win32,164.5278052,5f3ee36d0306de1a411882a5,64aeaab685a29f4ca249be02,64bec9c8c4b657fd277ede67,right,-1,0.5643,0.35,23,-0.064330356,0.2891,,,,,,27,0,27,0,1,,,,,
,,441728,001,2023-07-24_19h58.30.271,arm3_q,2022.2.5,Win32,164.5278052,5f3ee36d0306de1a411882a5,64aeaab685a29f4ca249be02,64bec9c8c4b657fd277ede67,right,-1,0.5643,0.35,23,-0.061201005,0.2776,,,,,,28,0,28,0,1,,,,,
,,441728,001,2023-07-24_19h58.30.271,arm3_q,2022.2.5,Win32,164.5278052,5f3ee36d0306de1a411882a5,64aeaab685a29f4ca249be02,64bec9c8c4b657fd277ede67,right,-1,0.5643,0.35,23,-0.084355775,0.2719,,,,,,29,0,29,0,1,,,,,
,,441728,001,2023-07-24_19h58.30.271,arm3_q,2022.2.5,Win32,164.5278052,5f3ee36d0306de1a411882a5,64aeaab685a29f4ca249be02,64bec9c8c4b657fd277ede67,down,-1,0.5643,0.35,24,0,0.4438,,,,,,30,0,30,0,1,,,,,
,,441728,001,2023-07-24_19h58.30.271,arm3_q,2022.2.5,Win32,164.5278052,5f3ee36d0306de1a411882a5,64aeaab685a29f4ca249be02,64bec9c8c4b657fd277ede67,right,-1,0.5643,0.35,24,-0.003403559,0.434,,,,,,31,0,31,0,1,,,,,
,,441728,001,2023-07-24_19h58.30.271,arm3_q,2022.2.5,Win32,164.5278052,5f3ee36d0306de1a411882a5,64aeaab685a29f4ca249be02,64bec9c8c4b657fd277ede67,right,-1,0.5643,0.35,24,-0.019992508,0.289,,,,,,32,0,32,0,1,,,,,
,,441728,001,2023-07-24_19h58.30.271,arm3_q,2022.2.5,Win32,164.5278052,5f3ee36d0306de1a411882a5,64aeaab685a29f4ca249be02,64bec9c8c4b657fd277ede67,right,-1,0.5643,0.35,24,-0.046215072,0.2308,,,,,,33,0,33,0,1,,,,,
,,441728,001,2023-07-24_19h58.30.271,arm3_q,2022.2.5,Win32,164.5278052,5f3ee36d0306de1a411882a5,64aeaab685a29f4ca249be02,64bec9c8c4b657fd277ede67,right,-1,0.5643,0.35,24,-0.056533623,0.2666,,,,,,34,0,34,0,1,,,,,
,,441728,001,2023-07-24_19h58.30.271,arm3_q,2022.2.5,Win32,164.5278052,5f3ee36d0306de1a411882a5,64aeaab685a29f4ca249be02,64bec9c8c4b657fd277ede67,right,-1,0.5643,0.35,24,-0.069750002,0.2498,,,,,,35,0,35,0,1,,,,,
,,441728,001,2023-07-24_19h58.30.271,arm3_q,2022.2.5,Win32,164.5278052,5f3ee36d0306de1a411882a5,64aeaab685a29f4ca249be02,64bec9c8c4b657fd277ede67,down,-1,0.5643,0.35,24,0,0.3154,,,,,,36,0,36,0,1,,,,,
,,441728,001,2023-07-24_19h58.30.271,arm3_q,2022.2.5,Win32,164.5278052,5f3ee36d0306de1a411882a5,64aeaab685a29f4ca249be02,64bec9c8c4b657fd277ede67,right,-1,0.5643,0.35,24,-0.018604956,0.5278,,,,,,37,0,37,0,1,,,,,
,,441728,001,2023-07-24_19h58.30.271,arm3_q,2022.2.5,Win32,164.5278052,5f3ee36d0306de1a411882a5,64aeaab685a29f4ca249be02,64bec9c8c4b657fd277ede67,right,-1,0.5643,0.35,24,-0.011429089,0.2952,,,,,,38,0,38,0,1,,,,,
,,441728,001,2023-07-24_19h58.30.271,arm3_q,2022.2.5,Win32,164.5278052,5f3ee36d0306de1a411882a5,64aeaab685a29f4ca249be02,64bec9c8c4b657fd277ede67,right,-1,0.5643,0.35,24,-0.071012225,0.2217,,,,,,39,0,39,0,1,,,,,
,,441728,001,2023-07-24_19h58.30.271,arm3_q,2022.2.5,Win32,164.5278052,5f3ee36d0306de1a411882a5,64aeaab685a29f4ca249be02,64bec9c8c4b657fd277ede67,right,-1,0.5643,0.35,24,-0.098037373,0.4241,,,,,,40,0,40,0,1,,,,,
,,441728,001,2023-07-24_19h58.30.271,arm3_q,2022.2.5,Win32,164.5278052,5f3ee36d0306de1a411882a5,64aeaab685a29f4ca249be02,64bec9c8c4b657fd277ede67,down,1,0.5643,0.35,25,0,0.2895,,,,,,41,0,41,0,1,,,,,
