space_bar.keys,space_bar.rt,participant,session,date,expName,psychopyVersion,OS,frameRate,PROLIFIC_PID,STUDY_ID,SESSION_ID,resp.keys,state,q_prob,eps_prob,score,price,resp.rt,train.thisRepN,train.thisTrialN,train.thisN,train.thisIndex,train.ran,steps.thisRepN,steps.thisTrialN,steps.thisN,steps.thisIndex,steps.ran,blocks.thisRepN,blocks.thisTrialN,blocks.thisN,blocks.thisIndex,blocks.ran
space,2.0231,450698,001,2023-07-24_15h06.48.247,arm3_q,2022.2.5,Win32,30.03363767,60b64f8d9ae6d605e0da89e1,64aeaab685a29f4ca249be02,64bec99d9b6de7c503f75bae,,,,,,,,,,,,,,,,,,,,,,
space,4.5302,450698,001,2023-07-24_15h06.48.247,arm3_q,2022.2.5,Win32,30.03363767,60b64f8d9ae6d605e0da89e1,64aeaab685a29f4ca249be02,64bec99d9b6de7c503f75bae,,,,,,,,,,,,,,,,,,,,,,
space,2.7345,450698,001,2023-07-24_15h06.48.247,arm3_q,2022.2.5,Win32,30.03363767,60b64f8d9ae6d605e0da89e1,64aeaab685a29f4ca249be02,64bec99d9b6de7c503f75bae,,,,,,,,,,,,,,,,,,,,,,
space,24.7332,450698,001,2023-07-24_15h06.48.247,arm3_q,2022.2.5,Win32,30.03363767,60b64f8d9ae6d605e0da89e1,64aeaab685a29f4ca249be02,64bec99d9b6de7c503f75bae,,,,,,,,,,,,,,,,,,,,,,
space,0.5848,450698,001,2023-07-24_15h06.48.247,arm3_q,2022.2.5,Win32,30.03363767,60b64f8d9ae6d605e0da89e1,64aeaab685a29f4ca249be02,64bec99d9b6de7c503f75bae,,,,,,,,,,,,,,,,,,,,,,
space,1.0456,450698,001,2023-07-24_15h06.48.247,arm3_q,2022.2.5,Win32,30.03363767,60b64f8d9ae6d605e0da89e1,64aeaab685a29f4ca249be02,64bec99d9b6de7c503f75bae,,,,,,,,,,,,,,,,,,,,,,
space,0.5427,450698,001,2023-07-24_15h06.48.247,arm3_q,2022.2.5,Win32,30.03363767,60b64f8d9ae6d605e0da89e1,64aeaab685a29f4ca249be02,64bec99d9b6de7c503f75bae,,,,,,,,,,,,,,,,,,,,,,
space,0.5445,450698,001,2023-07-24_15h06.48.247,arm3_q,2022.2.5,Win32,30.03363767,60b64f8d9ae6d605e0da89e1,64aeaab685a29f4ca249be02,64bec99d9b6de7c503f75bae,,,,,,,,,,,,,,,,,,,,,,
space,0.5425,450698,001,2023-07-24_15h06.48.247,arm3_q,2022.2.5,Win32,30.03363767,60b64f8d9ae6d605e0da89e1,64aeaab685a29f4ca249be02,64bec99d9b6de7c503f75bae,,,,,,,,,,,,,,,,,,,,,,
space,10.0709,450698,001,2023-07-24_15h06.48.247,arm3_q,2022.2.5,Win32,30.03363767,60b64f8d9ae6d605e0da89e1,64aeaab685a29f4ca249be02,64bec99d9b6de7c503f75bae,,,,,,,,,,,,,,,,,,,,,,
,,450698,001,2023-07-24_15h06.48.247,arm3_q,2022.2.5,Win32,30.03363767,60b64f8d9ae6d605e0da89e1,64aeaab685a29f4ca249be02,64bec99d9b6de7c503f75bae,up,1,0.5643,0.35,0,0,88.6904,0,0,0,0,1,,,,,,,,,,
,,450698,001,2023-07-24_15h06.48.247,arm3_q,2022.2.5,Win32,30.03363767,60b64f8d9ae6d605e0da89e1,64aeaab685a29f4ca249be02,64bec99d9b6de7c503f75bae,up,1,0.5643,0.35,0,0,0.2341,1,0,1,0,1,,,,,,,,,,
,,450698,001,2023-07-24_15h06.48.247,arm3_q,2022.2.5,Win32,30.03363767,60b64f8d9ae6d605e0da89e1,64aeaab685a29f4ca249be02,64bec99d9b6de7c503f75bae,up,1,0.5643,0.35,1,0,1.2909,2,0,2,0,1,,,,,,,,,,
,,450698,001,2023-07-24_15h06.48.247,arm3_q,2022.2.5,Win32,30.03363767,60b64f8d9ae6d605e0da89e1,64aeaab685a29f4ca249be02,64bec99d9b6de7c503f75bae,up,-1,0.5643,0.35,2,0,3.146,3,0,3,0,1,,,,,,,,,,
,,450698,001,2023-07-24_15h06.48.247,arm3_q,2022.2.5,Win32,30.03363767,60b64f8d9ae6d605e0da89e1,64aeaab685a29f4ca249be02,64bec99d9b6de7c503f75bae,up,-1,0.5643,0.35,1,0,2.2719,4,0,4,0,1,,,,,,,,,,
,,450698,001,2023-07-24_15h06.48.247,arm3_q,2022.2.5,Win32,30.03363767,60b64f8d9ae6d605e0da89e1,64aeaab685a29f4ca249be02,64bec99d9b6de7c503f75bae,up,1,0.5643,0.35,0,0,6.0038,5,0,5,0,1,,,,,,,,,,
,,450698,001,2023-07-24_15h06.48.247,arm3_q,2022.2.5,Win32,30.03363767,60b64f8d9ae6d605e0da89e1,64aeaab685a29f4ca249be02,64bec99d9b6de7c503f75bae,up,1,0.5643,0.35,0,0,8.5893,6,0,6,0,1,,,,,,,,,,
,,450698,001,2023-07-24_15h06.48.247,arm3_q,2022.2.5,Win32,30.03363767,60b64f8d9ae6d605e0da89e1,64aeaab685a29f4ca249be02,64bec99d9b6de7c503f75bae,up,-1,0.5643,0.35,1,0,4.24,7,0,7,0,1,,,,,,,,,,
,,450698,001,2023-07-24_15h06.48.247,arm3_q,2022.2.5,Win32,30.03363767,60b64f8d9ae6d605e0da89e1,64aeaab685a29f4ca249be02,64bec99d9b6de7c503f75bae,up,-1,0.5643,0.35,0,0,4.6092,8,0,8,0,1,,,,,,,,,,
,,450698,001,2023-07-24_15h06.48.247,arm3_q,2022.2.5,Win32,30.03363767,60b64f8d9ae6d605e0da89e1,64aeaab685a29f4ca249be02,64bec99d9b6de7c503f75bae,up,-1,0.5643,0.35,0,0,3.4984,9,0,9,0,1,,,,,,,,,,
,,450698,001,2023-07-24_15h06.48.247,arm3_q,2022.2.5,Win32,30.03363767,60b64f8d9ae6d605e0da89e1,64aeaab685a29f4ca249be02,64bec99d9b6de7c503f75bae,up,1,0.5643,0.35,0,0,5.5278,10,0,10,0,1,,,,,,,,,,
,,450698,001,2023-07-24_15h06.48.247,arm3_q,2022.2.5,Win32,30.03363767,60b64f8d9ae6d605e0da89e1,64aeaab685a29f4ca249be02,64bec99d9b6de7c503f75bae,up,1,0.5643,0.35,1,0,3.3975,11,0,11,0,1,,,,,,,,,,
,,450698,001,2023-07-24_15h06.48.247,arm3_q,2022.2.5,Win32,30.03363767,60b64f8d9ae6d605e0da89e1,64aeaab685a29f4ca249be02,64bec99d9b6de7c503f75bae,up,1,0.5643,0.35,1,0,3.2557,12,0,12,0,1,,,,,,,,,,
,,450698,001,2023-07-24_15h06.48.247,arm3_q,2022.2.5,Win32,30.03363767,60b64f8d9ae6d605e0da89e1,64aeaab685a29f4ca249be02,64bec99d9b6de7c503f75bae,up,-1,0.5643,0.35,2,0,1.643,13,0,13,0,1,,,,,,,,,,
,,450698,001,2023-07-24_15h06.48.247,arm3_q,2022.2.5,Win32,30.03363767,60b64f8d9ae6d605e0da89e1,64aeaab685a29f4ca249be02,64bec99d9b6de7c503f75bae,up,1,0.5643,0.35,1,0,2.7974,14,0,14,0,1,,,,,,,,,,
,,450698,001,2023-07-24_15h06.48.247,arm3_q,2022.2.5,Win32,30.03363767,60b64f8d9ae6d605e0da89e1,64aeaab685a29f4ca249be02,64bec99d9b6de7c503f75bae,up,1,0.5643,0.35,2,0,3.8458,15,0,15,0,1,,,,,,,,,,
,,450698,001,2023-07-24_15h06.48.247,arm3_q,2022.2.5,Win32,30.03363767,60b64f8d9ae6d605e0da89e1,64aeaab685a29f4ca249be02,64bec99d9b6de7c503f75bae,up,1,0.5643,0.35,3,0,1.446,16,0,16,0,1,,,,,,,,,,
,,450698,001,2023-07-24_15h06.48.247,arm3_q,2022.2.5,Win32,30.03363767,60b64f8d9ae6d605e0da89e1,64aeaab685a29f4ca249be02,64bec99d9b6de7c503f75bae,up,-1,0.5643,0.35,4,0,1.4779,17,0,17,0,1,,,,,,,,,,
,,450698,001,2023-07-24_15h06.48.247,arm3_q,2022.2.5,Win32,30.03363767,60b64f8d9ae6d605e0da89e1,64aeaab685a29f4ca249be02,64bec99d9b6de7c503f75bae,up,-1,0.5643,0.35,4,0,1.3605,18,0,18,0,1,,,,,,,,,,
,,450698,001,2023-07-24_15h06.48.247,arm3_q,2022.2.5,Win32,30.03363767,60b64f8d9ae6d605e0da89e1,64aeaab685a29f4ca249be02,64bec99d9b6de7c503f75bae,up,-1,0.5643,0.35,3,0,2.7638,19,0,19,0,1,,,,,,,,,,
,,450698,001,2023-07-24_15h06.48.247,arm3_q,2022.2.5,Win32,30.03363767,60b64f8d9ae6d605e0da89e1,64aeaab685a29f4ca249be02,64bec99d9b6de7c503f75bae,up,-1,0.5643,0.35,3,0,4.3462,20,0,20,0,1,,,,,,,,,,
,,450698,001,2023-07-24_15h06.48.247,arm3_q,2022.2.5,Win32,30.03363767,60b64f8d9ae6d605e0da89e1,64aeaab685a29f4ca249be02,64bec99d9b6de7c503f75bae,up,-1,0.5643,0.35,3,0,0.9004,21,0,21,0,1,,,,,,,,,,
,,450698,001,2023-07-24_15h06.48.247,arm3_q,2022.2.5,Win32,30.03363767,60b64f8d9ae6d605e0da89e1,64aeaab685a29f4ca249be02,64bec99d9b6de7c503f75bae,up,-1,0.5643,0.35,2,0,0.9613,22,0,22,0,1,,,,,,,,,,
,,450698,001,2023-07-24_15h06.48.247,arm3_q,2022.2.5,Win32,30.03363767,60b64f8d9ae6d605e0da89e1,64aeaab685a29f4ca249be02,64bec99d9b6de7c503f75bae,up,-1,0.5643,0.35,2,0,2.6131,23,0,23,0,1,,,,,,,,,,
,,450698,001,2023-07-24_15h06.48.247,arm3_q,2022.2.5,Win32,30.03363767,60b64f8d9ae6d605e0da89e1,64aeaab685a29f4ca249be02,64bec99d9b6de7c503f75bae,up,1,0.5643,0.35,2,0,0.8098,24,0,24,0,1,,,,,,,,,,
,,450698,001,2023-07-24_15h06.48.247,arm3_q,2022.2.5,Win32,30.03363767,60b64f8d9ae6d605e0da89e1,64aeaab685a29f4ca249be02,64bec99d9b6de7c503f75bae,up,1,0.5643,0.35,3,0,2.7987,25,0,25,0,1,,,,,,,,,,
,,450698,001,2023-07-24_15h06.48.247,arm3_q,2022.2.5,Win32,30.03363767,60b64f8d9ae6d605e0da89e1,64aeaab685a29f4ca249be02,64bec99d9b6de7c503f75bae,up,-1,0.5643,0.35,3,0,1.6309,26,0,26,0,1,,,,,,,,,,
,,450698,001,2023-07-24_15h06.48.247,arm3_q,2022.2.5,Win32,30.03363767,60b64f8d9ae6d605e0da89e1,64aeaab685a29f4ca249be02,64bec99d9b6de7c503f75bae,up,1,0.5643,0.35,2,0,6.5151,27,0,27,0,1,,,,,,,,,,
,,450698,001,2023-07-24_15h06.48.247,arm3_q,2022.2.5,Win32,30.03363767,60b64f8d9ae6d605e0da89e1,64aeaab685a29f4ca249be02,64bec99d9b6de7c503f75bae,up,-1,0.5643,0.35,3,0,1.6419,28,0,28,0,1,,,,,,,,,,
,,450698,001,2023-07-24_15h06.48.247,arm3_q,2022.2.5,Win32,30.03363767,60b64f8d9ae6d605e0da89e1,64aeaab685a29f4ca249be02,64bec99d9b6de7c503f75bae,up,1,0.5643,0.35,2,0,3.2795,29,0,29,0,1,,,,,,,,,,
,,450698,001,2023-07-24_15h06.48.247,arm3_q,2022.2.5,Win32,30.03363767,60b64f8d9ae6d605e0da89e1,64aeaab685a29f4ca249be02,64bec99d9b6de7c503f75bae,up,-1,0.5643,0.35,2,0,4.3087,30,0,30,0,1,,,,,,,,,,
,,450698,001,2023-07-24_15h06.48.247,arm3_q,2022.2.5,Win32,30.03363767,60b64f8d9ae6d605e0da89e1,64aeaab685a29f4ca249be02,64bec99d9b6de7c503f75bae,up,1,0.5643,0.35,2,0,2.903,31,0,31,0,1,,,,,,,,,,
,,450698,001,2023-07-24_15h06.48.247,arm3_q,2022.2.5,Win32,30.03363767,60b64f8d9ae6d605e0da89e1,64aeaab685a29f4ca249be02,64bec99d9b6de7c503f75bae,up,1,0.5643,0.35,2,0,9.1654,32,0,32,0,1,,,,,,,,,,
,,450698,001,2023-07-24_15h06.48.247,arm3_q,2022.2.5,Win32,30.03363767,60b64f8d9ae6d605e0da89e1,64aeaab685a29f4ca249be02,64bec99d9b6de7c503f75bae,up,1,0.5643,0.35,3,0,3.3202,33,0,33,0,1,,,,,,,,,,
,,450698,001,2023-07-24_15h06.48.247,arm3_q,2022.2.5,Win32,30.03363767,60b64f8d9ae6d605e0da89e1,64aeaab685a29f4ca249be02,64bec99d9b6de7c503f75bae,up,1,0.5643,0.35,4,0,12.41,34,0,34,0,1,,,,,,,,,,
,,450698,001,2023-07-24_15h06.48.247,arm3_q,2022.2.5,Win32,30.03363767,60b64f8d9ae6d605e0da89e1,64aeaab685a29f4ca249be02,64bec99d9b6de7c503f75bae,up,1,0.5643,0.35,5,0,3.3561,35,0,35,0,1,,,,,,,,,,
,,450698,001,2023-07-24_15h06.48.247,arm3_q,2022.2.5,Win32,30.03363767,60b64f8d9ae6d605e0da89e1,64aeaab685a29f4ca249be02,64bec99d9b6de7c503f75bae,up,-1,0.5643,0.35,6,0,2.8745,36,0,36,0,1,,,,,,,,,,
,,450698,001,2023-07-24_15h06.48.247,arm3_q,2022.2.5,Win32,30.03363767,60b64f8d9ae6d605e0da89e1,64aeaab685a29f4ca249be02,64bec99d9b6de7c503f75bae,up,-1,0.5643,0.35,6,0,1.9467,37,0,37,0,1,,,,,,,,,,
,,450698,001,2023-07-24_15h06.48.247,arm3_q,2022.2.5,Win32,30.03363767,60b64f8d9ae6d605e0da89e1,64aeaab685a29f4ca249be02,64bec99d9b6de7c503f75bae,up,1,0.5643,0.35,5,0,1.6104,38,0,38,0,1,,,,,,,,,,
,,450698,001,2023-07-24_15h06.48.247,arm3_q,2022.2.5,Win32,30.03363767,60b64f8d9ae6d605e0da89e1,64aeaab685a29f4ca249be02,64bec99d9b6de7c503f75bae,up,-1,0.5643,0.35,5,0,9.8162,39,0,39,0,1,,,,,,,,,,
,,450698,001,2023-07-24_15h06.48.247,arm3_q,2022.2.5,Win32,30.03363767,60b64f8d9ae6d605e0da89e1,64aeaab685a29f4ca249be02,64bec99d9b6de7c503f75bae,up,1,0.5643,0.35,4,0,0.8833,40,0,40,0,1,,,,,,,,,,
,,450698,001,2023-07-24_15h06.48.247,arm3_q,2022.2.5,Win32,30.03363767,60b64f8d9ae6d605e0da89e1,64aeaab685a29f4ca249be02,64bec99d9b6de7c503f75bae,up,1,0.5643,0.35,4,0,2.2345,41,0,41,0,1,,,,,,,,,,
,,450698,001,2023-07-24_15h06.48.247,arm3_q,2022.2.5,Win32,30.03363767,60b64f8d9ae6d605e0da89e1,64aeaab685a29f4ca249be02,64bec99d9b6de7c503f75bae,up,-1,0.5643,0.35,5,0,0.7359,42,0,42,0,1,,,,,,,,,,
,,450698,001,2023-07-24_15h06.48.247,arm3_q,2022.2.5,Win32,30.03363767,60b64f8d9ae6d605e0da89e1,64aeaab685a29f4ca249be02,64bec99d9b6de7c503f75bae,up,1,0.5643,0.35,5,0,1.8982,43,0,43,0,1,,,,,,,,,,
,,450698,001,2023-07-24_15h06.48.247,arm3_q,2022.2.5,Win32,30.03363767,60b64f8d9ae6d605e0da89e1,64aeaab685a29f4ca249be02,64bec99d9b6de7c503f75bae,up,1,0.5643,0.35,6,0,1.446,44,0,44,0,1,,,,,,,,,,
,,450698,001,2023-07-24_15h06.48.247,arm3_q,2022.2.5,Win32,30.03363767,60b64f8d9ae6d605e0da89e1,64aeaab685a29f4ca249be02,64bec99d9b6de7c503f75bae,up,-1,0.5643,0.35,7,0,1.1099,45,0,45,0,1,,,,,,,,,,
,,450698,001,2023-07-24_15h06.48.247,arm3_q,2022.2.5,Win32,30.03363767,60b64f8d9ae6d605e0da89e1,64aeaab685a29f4ca249be02,64bec99d9b6de7c503f75bae,up,-1,0.5643,0.35,7,0,0.86,46,0,46,0,1,,,,,,,,,,
,,450698,001,2023-07-24_15h06.48.247,arm3_q,2022.2.5,Win32,30.03363767,60b64f8d9ae6d605e0da89e1,64aeaab685a29f4ca249be02,64bec99d9b6de7c503f75bae,up,1,0.5643,0.35,6,0,0.87,47,0,47,0,1,,,,,,,,,,
,,450698,001,2023-07-24_15h06.48.247,arm3_q,2022.2.5,Win32,30.03363767,60b64f8d9ae6d605e0da89e1,64aeaab685a29f4ca249be02,64bec99d9b6de7c503f75bae,up,1,0.5643,0.35,7,0,0.7145,48,0,48,0,1,,,,,,,,,,
,,450698,001,2023-07-24_15h06.48.247,arm3_q,2022.2.5,Win32,30.03363767,60b64f8d9ae6d605e0da89e1,64aeaab685a29f4ca249be02,64bec99d9b6de7c503f75bae,up,1,0.5643,0.35,7,0,1.3371,49,0,49,0,1,,,,,,,,,,
space,1.9888,450698,001,2023-07-24_15h06.48.247,arm3_q,2022.2.5,Win32,30.03363767,60b64f8d9ae6d605e0da89e1,64aeaab685a29f4ca249be02,64bec99d9b6de7c503f75bae,,,,,,,,,,,,,,,,,,,,,,
space,3.8143,450698,001,2023-07-24_15h06.48.247,arm3_q,2022.2.5,Win32,30.03363767,60b64f8d9ae6d605e0da89e1,64aeaab685a29f4ca249be02,64bec99d9b6de7c503f75bae,up,-1,0.4357,0.35,0,0,4.5778,,,,,,0,0,0,0,1,,,,,
,,450698,001,2023-07-24_15h06.48.247,arm3_q,2022.2.5,Win32,30.03363767,60b64f8d9ae6d605e0da89e1,64aeaab685a29f4ca249be02,64bec99d9b6de7c503f75bae,up,-1,0.4357,0.35,-1,0,1.0408,,,,,,1,0,1,0,1,,,,,
,,450698,001,2023-07-24_15h06.48.247,arm3_q,2022.2.5,Win32,30.03363767,60b64f8d9ae6d605e0da89e1,64aeaab685a29f4ca249be02,64bec99d9b6de7c503f75bae,up,-1,0.4357,0.35,-2,0,4.4014,,,,,,2,0,2,0,1,,,,,
,,450698,001,2023-07-24_15h06.48.247,arm3_q,2022.2.5,Win32,30.03363767,60b64f8d9ae6d605e0da89e1,64aeaab685a29f4ca249be02,64bec99d9b6de7c503f75bae,up,1,0.4357,0.35,-2,0,0.699,,,,,,3,0,3,0,1,,,,,
,,450698,001,2023-07-24_15h06.48.247,arm3_q,2022.2.5,Win32,30.03363767,60b64f8d9ae6d605e0da89e1,64aeaab685a29f4ca249be02,64bec99d9b6de7c503f75bae,up,1,0.4357,0.35,-2,0,0.7763,,,,,,4,0,4,0,1,,,,,
,,450698,001,2023-07-24_15h06.48.247,arm3_q,2022.2.5,Win32,30.03363767,60b64f8d9ae6d605e0da89e1,64aeaab685a29f4ca249be02,64bec99d9b6de7c503f75bae,up,1,0.4357,0.35,-2,0,0.8877,,,,,,5,0,5,0,1,,,,,
,,450698,001,2023-07-24_15h06.48.247,arm3_q,2022.2.5,Win32,30.03363767,60b64f8d9ae6d605e0da89e1,64aeaab685a29f4ca249be02,64bec99d9b6de7c503f75bae,up,1,0.4357,0.35,-2,0,4.4356,,,,,,6,0,6,0,1,,,,,
,,450698,001,2023-07-24_15h06.48.247,arm3_q,2022.2.5,Win32,30.03363767,60b64f8d9ae6d605e0da89e1,64aeaab685a29f4ca249be02,64bec99d9b6de7c503f75bae,up,1,0.4357,0.35,-2,0,0.6567,,,,,,7,0,7,0,1,,,,,
,,450698,001,2023-07-24_15h06.48.247,arm3_q,2022.2.5,Win32,30.03363767,60b64f8d9ae6d605e0da89e1,64aeaab685a29f4ca249be02,64bec99d9b6de7c503f75bae,up,1,0.4357,0.35,-2,0,7.2842,,,,,,8,0,8,0,1,,,,,
,,450698,001,2023-07-24_15h06.48.247,arm3_q,2022.2.5,Win32,30.03363767,60b64f8d9ae6d605e0da89e1,64aeaab685a29f4ca249be02,64bec99d9b6de7c503f75bae,up,-1,0.4357,0.35,-2,0,0.615,,,,,,9,0,9,0,1,,,,,
,,450698,001,2023-07-24_15h06.48.247,arm3_q,2022.2.5,Win32,30.03363767,60b64f8d9ae6d605e0da89e1,64aeaab685a29f4ca249be02,64bec99d9b6de7c503f75bae,up,-1,0.4357,0.35,-2,0,0.166,,,,,,10,0,10,0,1,,,,,
,,450698,001,2023-07-24_15h06.48.247,arm3_q,2022.2.5,Win32,30.03363767,60b64f8d9ae6d605e0da89e1,64aeaab685a29f4ca249be02,64bec99d9b6de7c503f75bae,up,-1,0.4357,0.35,-2,0,1.4048,,,,,,11,0,11,0,1,,,,,
,,450698,001,2023-07-24_15h06.48.247,arm3_q,2022.2.5,Win32,30.03363767,60b64f8d9ae6d605e0da89e1,64aeaab685a29f4ca249be02,64bec99d9b6de7c503f75bae,up,-1,0.4357,0.35,-3,0,1.0909,,,,,,12,0,12,0,1,,,,,
,,450698,001,2023-07-24_15h06.48.247,arm3_q,2022.2.5,Win32,30.03363767,60b64f8d9ae6d605e0da89e1,64aeaab685a29f4ca249be02,64bec99d9b6de7c503f75bae,up,1,0.4357,0.35,-3,0,3.4543,,,,,,13,0,13,0,1,,,,,
,,450698,001,2023-07-24_15h06.48.247,arm3_q,2022.2.5,Win32,30.03363767,60b64f8d9ae6d605e0da89e1,64aeaab685a29f4ca249be02,64bec99d9b6de7c503f75bae,up,1,0.4357,0.35,-2,0,1.1796,,,,,,14,0,14,0,1,,,,,
,,450698,001,2023-07-24_15h06.48.247,arm3_q,2022.2.5,Win32,30.03363767,60b64f8d9ae6d605e0da89e1,64aeaab685a29f4ca249be02,64bec99d9b6de7c503f75bae,up,1,0.4357,0.35,-1,0,2.5624,,,,,,15,0,15,0,1,,,,,
,,450698,001,2023-07-24_15h06.48.247,arm3_q,2022.2.5,Win32,30.03363767,60b64f8d9ae6d605e0da89e1,64aeaab685a29f4ca249be02,64bec99d9b6de7c503f75bae,up,1,0.4357,0.35,-1,0,1.4431,,,,,,16,0,16,0,1,,,,,
,,450698,001,2023-07-24_15h06.48.247,arm3_q,2022.2.5,Win32,30.03363767,60b64f8d9ae6d605e0da89e1,64aeaab685a29f4ca249be02,64bec99d9b6de7c503f75bae,up,1,0.4357,0.35,-1,0,0.9018,,,,,,17,0,17,0,1,,,,,
,,450698,001,2023-07-24_15h06.48.247,arm3_q,2022.2.5,Win32,30.03363767,60b64f8d9ae6d605e0da89e1,64aeaab685a29f4ca249be02,64bec99d9b6de7c503f75bae,up,-1,0.4357,0.35,-1,0,2.0322,,,,,,18,0,18,0,1,,,,,
,,450698,001,2023-07-24_15h06.48.247,arm3_q,2022.2.5,Win32,30.03363767,60b64f8d9ae6d605e0da89e1,64aeaab685a29f4ca249be02,64bec99d9b6de7c503f75bae,up,-1,0.4357,0.35,-1,0,1.1064,,,,,,19,0,19,0,1,,,,,
,,450698,001,2023-07-24_15h06.48.247,arm3_q,2022.2.5,Win32,30.03363767,60b64f8d9ae6d605e0da89e1,64aeaab685a29f4ca249be02,64bec99d9b6de7c503f75bae,up,1,0.4357,0.35,-1,0,1.5566,,,,,,20,0,20,0,1,,,,,
,,450698,001,2023-07-24_15h06.48.247,arm3_q,2022.2.5,Win32,30.03363767,60b64f8d9ae6d605e0da89e1,64aeaab685a29f4ca249be02,64bec99d9b6de7c503f75bae,up,-1,0.4357,0.35,0,0,1.7607,,,,,,21,0,21,0,1,,,,,
,,450698,001,2023-07-24_15h06.48.247,arm3_q,2022.2.5,Win32,30.03363767,60b64f8d9ae6d605e0da89e1,64aeaab685a29f4ca249be02,64bec99d9b6de7c503f75bae,up,1,0.4357,0.35,0,0,1.1724,,,,,,22,0,22,0,1,,,,,
,,450698,001,2023-07-24_15h06.48.247,arm3_q,2022.2.5,Win32,30.03363767,60b64f8d9ae6d605e0da89e1,64aeaab685a29f4ca249be02,64bec99d9b6de7c503f75bae,up,1,0.4357,0.35,0,0,0.9489,,,,,,23,0,23,0,1,,,,,
,,450698,001,2023-07-24_15h06.48.247,arm3_q,2022.2.5,Win32,30.03363767,60b64f8d9ae6d605e0da89e1,64aeaab685a29f4ca249be02,64bec99d9b6de7c503f75bae,up,1,0.4357,0.35,0,0,0.7599,,,,,,24,0,24,0,1,,,,,
,,450698,001,2023-07-24_15h06.48.247,arm3_q,2022.2.5,Win32,30.03363767,60b64f8d9ae6d605e0da89e1,64aeaab685a29f4ca249be02,64bec99d9b6de7c503f75bae,up,-1,0.4357,0.35,1,0,0.7912,,,,,,25,0,25,0,1,,,,,
,,450698,001,2023-07-24_15h06.48.247,arm3_q,2022.2.5,Win32,30.03363767,60b64f8d9ae6d605e0da89e1,64aeaab685a29f4ca249be02,64bec99d9b6de7c503f75bae,up,-1,0.4357,0.35,0,0,0.8123,,,,,,26,0,26,0,1,,,,,
,,450698,001,2023-07-24_15h06.48.247,arm3_q,2022.2.5,Win32,30.03363767,60b64f8d9ae6d605e0da89e1,64aeaab685a29f4ca249be02,64bec99d9b6de7c503f75bae,up,1,0.4357,0.35,-1,0,0.6944,,,,,,27,0,27,0,1,,,,,
,,450698,001,2023-07-24_15h06.48.247,arm3_q,2022.2.5,Win32,30.03363767,60b64f8d9ae6d605e0da89e1,64aeaab685a29f4ca249be02,64bec99d9b6de7c503f75bae,up,1,0.4357,0.35,-1,0,3.0534,,,,,,28,0,28,0,1,,,,,
,,450698,001,2023-07-24_15h06.48.247,arm3_q,2022.2.5,Win32,30.03363767,60b64f8d9ae6d605e0da89e1,64aeaab685a29f4ca249be02,64bec99d9b6de7c503f75bae,up,-1,0.4357,0.35,-1,0,1.099,,,,,,29,0,29,0,1,,,,,
,,450698,001,2023-07-24_15h06.48.247,arm3_q,2022.2.5,Win32,30.03363767,60b64f8d9ae6d605e0da89e1,64aeaab685a29f4ca249be02,64bec99d9b6de7c503f75bae,up,1,0.4357,0.35,-1,0,1.9896,,,,,,30,0,30,0,1,,,,,
,,450698,001,2023-07-24_15h06.48.247,arm3_q,2022.2.5,Win32,30.03363767,60b64f8d9ae6d605e0da89e1,64aeaab685a29f4ca249be02,64bec99d9b6de7c503f75bae,up,-1,0.4357,0.35,0,0,1.0502,,,,,,31,0,31,0,1,,,,,
,,450698,001,2023-07-24_15h06.48.247,arm3_q,2022.2.5,Win32,30.03363767,60b64f8d9ae6d605e0da89e1,64aeaab685a29f4ca249be02,64bec99d9b6de7c503f75bae,up,-1,0.4357,0.35,-1,0,1.2052,,,,,,32,0,32,0,1,,,,,
,,450698,001,2023-07-24_15h06.48.247,arm3_q,2022.2.5,Win32,30.03363767,60b64f8d9ae6d605e0da89e1,64aeaab685a29f4ca249be02,64bec99d9b6de7c503f75bae,up,-1,0.4357,0.35,-1,0,3.4937,,,,,,33,0,33,0,1,,,,,
,,450698,001,2023-07-24_15h06.48.247,arm3_q,2022.2.5,Win32,30.03363767,60b64f8d9ae6d605e0da89e1,64aeaab685a29f4ca249be02,64bec99d9b6de7c503f75bae,up,-1,0.4357,0.35,-1,0,1.3492,,,,,,34,0,34,0,1,,,,,
,,450698,001,2023-07-24_15h06.48.247,arm3_q,2022.2.5,Win32,30.03363767,60b64f8d9ae6d605e0da89e1,64aeaab685a29f4ca249be02,64bec99d9b6de7c503f75bae,up,-1,0.4357,0.35,-1,0,1.4587,,,,,,35,0,35,0,1,,,,,
,,450698,001,2023-07-24_15h06.48.247,arm3_q,2022.2.5,Win32,30.03363767,60b64f8d9ae6d605e0da89e1,64aeaab685a29f4ca249be02,64bec99d9b6de7c503f75bae,up,1,0.4357,0.35,-2,0,0.8025,,,,,,36,0,36,0,1,,,,,
,,450698,001,2023-07-24_15h06.48.247,arm3_q,2022.2.5,Win32,30.03363767,60b64f8d9ae6d605e0da89e1,64aeaab685a29f4ca249be02,64bec99d9b6de7c503f75bae,up,1,0.4357,0.35,-2,0,1.1128,,,,,,37,0,37,0,1,,,,,
,,450698,001,2023-07-24_15h06.48.247,arm3_q,2022.2.5,Win32,30.03363767,60b64f8d9ae6d605e0da89e1,64aeaab685a29f4ca249be02,64bec99d9b6de7c503f75bae,up,1,0.4357,0.35,-1,0,1.4088,,,,,,38,0,38,0,1,,,,,
,,450698,001,2023-07-24_15h06.48.247,arm3_q,2022.2.5,Win32,30.03363767,60b64f8d9ae6d605e0da89e1,64aeaab685a29f4ca249be02,64bec99d9b6de7c503f75bae,up,1,0.4357,0.35,-1,0,1.6171,,,,,,39,0,39,0,1,,,,,
,,450698,001,2023-07-24_15h06.48.247,arm3_q,2022.2.5,Win32,30.03363767,60b64f8d9ae6d605e0da89e1,64aeaab685a29f4ca249be02,64bec99d9b6de7c503f75bae,up,1,0.4357,0.35,-1,0,1.5614,,,,,,40,0,40,0,1,,,,,
,,450698,001,2023-07-24_15h06.48.247,arm3_q,2022.2.5,Win32,30.03363767,60b64f8d9ae6d605e0da89e1,64aeaab685a29f4ca249be02,64bec99d9b6de7c503f75bae,up,1,0.4357,0.35,-1,0,0.9479,,,,,,41,0,41,0,1,,,,,
,,450698,001,2023-07-24_15h06.48.247,arm3_q,2022.2.5,Win32,30.03363767,60b64f8d9ae6d605e0da89e1,64aeaab685a29f4ca249be02,64bec99d9b6de7c503f75bae,up,1,0.4357,0.35,0,0,1.8293,,,,,,42,0,42,0,1,,,,,
,,450698,001,2023-07-24_15h06.48.247,arm3_q,2022.2.5,Win32,30.03363767,60b64f8d9ae6d605e0da89e1,64aeaab685a29f4ca249be02,64bec99d9b6de7c503f75bae,up,1,0.4357,0.35,1,0,1.4243,,,,,,43,0,43,0,1,,,,,
,,450698,001,2023-07-24_15h06.48.247,arm3_q,2022.2.5,Win32,30.03363767,60b64f8d9ae6d605e0da89e1,64aeaab685a29f4ca249be02,64bec99d9b6de7c503f75bae,up,1,0.4357,0.35,2,0,1.4015,,,,,,44,0,44,0,1,,,,,
,,450698,001,2023-07-24_15h06.48.247,arm3_q,2022.2.5,Win32,30.03363767,60b64f8d9ae6d605e0da89e1,64aeaab685a29f4ca249be02,64bec99d9b6de7c503f75bae,up,1,0.4357,0.35,2,0,1.3057,,,,,,45,0,45,0,1,,,,,
,,450698,001,2023-07-24_15h06.48.247,arm3_q,2022.2.5,Win32,30.03363767,60b64f8d9ae6d605e0da89e1,64aeaab685a29f4ca249be02,64bec99d9b6de7c503f75bae,up,-1,0.4357,0.35,3,0,1.252,,,,,,46,0,46,0,1,,,,,
,,450698,001,2023-07-24_15h06.48.247,arm3_q,2022.2.5,Win32,30.03363767,60b64f8d9ae6d605e0da89e1,64aeaab685a29f4ca249be02,64bec99d9b6de7c503f75bae,up,-1,0.4357,0.35,3,0,1.6807,,,,,,47,0,47,0,1,,,,,
,,450698,001,2023-07-24_15h06.48.247,arm3_q,2022.2.5,Win32,30.03363767,60b64f8d9ae6d605e0da89e1,64aeaab685a29f4ca249be02,64bec99d9b6de7c503f75bae,up,1,0.4357,0.35,3,0,2.5547,,,,,,48,0,48,0,1,,,,,
,,450698,001,2023-07-24_15h06.48.247,arm3_q,2022.2.5,Win32,30.03363767,60b64f8d9ae6d605e0da89e1,64aeaab685a29f4ca249be02,64bec99d9b6de7c503f75bae,up,-1,0.4357,0.35,4,0,1.3215,,,,,,49,0,49,0,1,,,,,
,,450698,001,2023-07-24_15h06.48.247,arm3_q,2022.2.5,Win32,30.03363767,60b64f8d9ae6d605e0da89e1,64aeaab685a29f4ca249be02,64bec99d9b6de7c503f75bae,up,-1,0.4357,0.35,3,0,2.0978,,,,,,50,0,50,0,1,,,,,
,,450698,001,2023-07-24_15h06.48.247,arm3_q,2022.2.5,Win32,30.03363767,60b64f8d9ae6d605e0da89e1,64aeaab685a29f4ca249be02,64bec99d9b6de7c503f75bae,up,-1,0.4357,0.35,3,0,1.0013,,,,,,51,0,51,0,1,,,,,
,,450698,001,2023-07-24_15h06.48.247,arm3_q,2022.2.5,Win32,30.03363767,60b64f8d9ae6d605e0da89e1,64aeaab685a29f4ca249be02,64bec99d9b6de7c503f75bae,up,-1,0.4357,0.35,3,0,0.9587,,,,,,52,0,52,0,1,,,,,
,,450698,001,2023-07-24_15h06.48.247,arm3_q,2022.2.5,Win32,30.03363767,60b64f8d9ae6d605e0da89e1,64aeaab685a29f4ca249be02,64bec99d9b6de7c503f75bae,up,1,0.4357,0.35,3,0,1.2864,,,,,,53,0,53,0,1,,,,,
,,450698,001,2023-07-24_15h06.48.247,arm3_q,2022.2.5,Win32,30.03363767,60b64f8d9ae6d605e0da89e1,64aeaab685a29f4ca249be02,64bec99d9b6de7c503f75bae,up,-1,0.4357,0.35,3,0,0.8434,,,,,,54,0,54,0,1,,,,,
,,450698,001,2023-07-24_15h06.48.247,arm3_q,2022.2.5,Win32,30.03363767,60b64f8d9ae6d605e0da89e1,64aeaab685a29f4ca249be02,64bec99d9b6de7c503f75bae,up,1,0.4357,0.35,2,0,0.7865,,,,,,55,0,55,0,1,,,,,
,,450698,001,2023-07-24_15h06.48.247,arm3_q,2022.2.5,Win32,30.03363767,60b64f8d9ae6d605e0da89e1,64aeaab685a29f4ca249be02,64bec99d9b6de7c503f75bae,up,-1,0.4357,0.35,3,0,1.674,,,,,,56,0,56,0,1,,,,,
,,450698,001,2023-07-24_15h06.48.247,arm3_q,2022.2.5,Win32,30.03363767,60b64f8d9ae6d605e0da89e1,64aeaab685a29f4ca249be02,64bec99d9b6de7c503f75bae,up,-1,0.4357,0.35,3,0,1.6683,,,,,,57,0,57,0,1,,,,,
,,450698,001,2023-07-24_15h06.48.247,arm3_q,2022.2.5,Win32,30.03363767,60b64f8d9ae6d605e0da89e1,64aeaab685a29f4ca249be02,64bec99d9b6de7c503f75bae,up,-1,0.4357,0.35,3,0,0.8439,,,,,,58,0,58,0,1,,,,,
,,450698,001,2023-07-24_15h06.48.247,arm3_q,2022.2.5,Win32,30.03363767,60b64f8d9ae6d605e0da89e1,64aeaab685a29f4ca249be02,64bec99d9b6de7c503f75bae,up,-1,0.4357,0.35,3,0,0.9612,,,,,,59,0,59,0,1,,,,,
,,450698,001,2023-07-24_15h06.48.247,arm3_q,2022.2.5,Win32,30.03363767,60b64f8d9ae6d605e0da89e1,64aeaab685a29f4ca249be02,64bec99d9b6de7c503f75bae,up,-1,0.4357,0.35,2,0,1.3525,,,,,,60,0,60,0,1,,,,,
,,450698,001,2023-07-24_15h06.48.247,arm3_q,2022.2.5,Win32,30.03363767,60b64f8d9ae6d605e0da89e1,64aeaab685a29f4ca249be02,64bec99d9b6de7c503f75bae,up,1,0.4357,0.35,2,0,1.7113,,,,,,61,0,61,0,1,,,,,
,,450698,001,2023-07-24_15h06.48.247,arm3_q,2022.2.5,Win32,30.03363767,60b64f8d9ae6d605e0da89e1,64aeaab685a29f4ca249be02,64bec99d9b6de7c503f75bae,up,1,0.4357,0.35,3,0,0.7575,,,,,,62,0,62,0,1,,,,,
,,450698,001,2023-07-24_15h06.48.247,arm3_q,2022.2.5,Win32,30.03363767,60b64f8d9ae6d605e0da89e1,64aeaab685a29f4ca249be02,64bec99d9b6de7c503f75bae,up,1,0.4357,0.35,3,0,0.7957,,,,,,63,0,63,0,1,,,,,
,,450698,001,2023-07-24_15h06.48.247,arm3_q,2022.2.5,Win32,30.03363767,60b64f8d9ae6d605e0da89e1,64aeaab685a29f4ca249be02,64bec99d9b6de7c503f75bae,up,1,0.4357,0.35,3,0,1.6001,,,,,,64,0,64,0,1,,,,,
,,450698,001,2023-07-24_15h06.48.247,arm3_q,2022.2.5,Win32,30.03363767,60b64f8d9ae6d605e0da89e1,64aeaab685a29f4ca249be02,64bec99d9b6de7c503f75bae,up,-1,0.4357,0.35,3,0,0.7603,,,,,,65,0,65,0,1,,,,,
,,450698,001,2023-07-24_15h06.48.247,arm3_q,2022.2.5,Win32,30.03363767,60b64f8d9ae6d605e0da89e1,64aeaab685a29f4ca249be02,64bec99d9b6de7c503f75bae,up,-1,0.4357,0.35,3,0,0.9493,,,,,,66,0,66,0,1,,,,,
,,450698,001,2023-07-24_15h06.48.247,arm3_q,2022.2.5,Win32,30.03363767,60b64f8d9ae6d605e0da89e1,64aeaab685a29f4ca249be02,64bec99d9b6de7c503f75bae,up,-1,0.4357,0.35,3,0,0.8161,,,,,,67,0,67,0,1,,,,,
,,450698,001,2023-07-24_15h06.48.247,arm3_q,2022.2.5,Win32,30.03363767,60b64f8d9ae6d605e0da89e1,64aeaab685a29f4ca249be02,64bec99d9b6de7c503f75bae,up,-1,0.4357,0.35,2,0,0.9008,,,,,,68,0,68,0,1,,,,,
,,450698,001,2023-07-24_15h06.48.247,arm3_q,2022.2.5,Win32,30.03363767,60b64f8d9ae6d605e0da89e1,64aeaab685a29f4ca249be02,64bec99d9b6de7c503f75bae,up,1,0.4357,0.35,1,0,1.0318,,,,,,69,0,69,0,1,,,,,
,,450698,001,2023-07-24_15h06.48.247,arm3_q,2022.2.5,Win32,30.03363767,60b64f8d9ae6d605e0da89e1,64aeaab685a29f4ca249be02,64bec99d9b6de7c503f75bae,up,-1,0.4357,0.35,2,0,4.4936,,,,,,70,0,70,0,1,,,,,
,,450698,001,2023-07-24_15h06.48.247,arm3_q,2022.2.5,Win32,30.03363767,60b64f8d9ae6d605e0da89e1,64aeaab685a29f4ca249be02,64bec99d9b6de7c503f75bae,up,-1,0.4357,0.35,2,0,0.2789,,,,,,71,0,71,0,1,,,,,
,,450698,001,2023-07-24_15h06.48.247,arm3_q,2022.2.5,Win32,30.03363767,60b64f8d9ae6d605e0da89e1,64aeaab685a29f4ca249be02,64bec99d9b6de7c503f75bae,up,-1,0.4357,0.35,2,0,1.055,,,,,,72,0,72,0,1,,,,,
,,450698,001,2023-07-24_15h06.48.247,arm3_q,2022.2.5,Win32,30.03363767,60b64f8d9ae6d605e0da89e1,64aeaab685a29f4ca249be02,64bec99d9b6de7c503f75bae,up,1,0.4357,0.35,2,0,1.2948,,,,,,73,0,73,0,1,,,,,
,,450698,001,2023-07-24_15h06.48.247,arm3_q,2022.2.5,Win32,30.03363767,60b64f8d9ae6d605e0da89e1,64aeaab685a29f4ca249be02,64bec99d9b6de7c503f75bae,up,1,0.4357,0.35,2,0,1.2094,,,,,,74,0,74,0,1,,,,,
,,450698,001,2023-07-24_15h06.48.247,arm3_q,2022.2.5,Win32,30.03363767,60b64f8d9ae6d605e0da89e1,64aeaab685a29f4ca249be02,64bec99d9b6de7c503f75bae,up,-1,0.4357,0.35,2,0,1.0388,,,,,,75,0,75,0,1,,,,,
,,450698,001,2023-07-24_15h06.48.247,arm3_q,2022.2.5,Win32,30.03363767,60b64f8d9ae6d605e0da89e1,64aeaab685a29f4ca249be02,64bec99d9b6de7c503f75bae,up,1,0.4357,0.35,2,0,1.1812,,,,,,76,0,76,0,1,,,,,
,,450698,001,2023-07-24_15h06.48.247,arm3_q,2022.2.5,Win32,30.03363767,60b64f8d9ae6d605e0da89e1,64aeaab685a29f4ca249be02,64bec99d9b6de7c503f75bae,up,1,0.4357,0.35,3,0,0.9655,,,,,,77,0,77,0,1,,,,,
,,450698,001,2023-07-24_15h06.48.247,arm3_q,2022.2.5,Win32,30.03363767,60b64f8d9ae6d605e0da89e1,64aeaab685a29f4ca249be02,64bec99d9b6de7c503f75bae,up,-1,0.4357,0.35,3,0,0.825,,,,,,78,0,78,0,1,,,,,
,,450698,001,2023-07-24_15h06.48.247,arm3_q,2022.2.5,Win32,30.03363767,60b64f8d9ae6d605e0da89e1,64aeaab685a29f4ca249be02,64bec99d9b6de7c503f75bae,up,-1,0.4357,0.35,2,0,0.7707,,,,,,79,0,79,0,1,,,,,
,,450698,001,2023-07-24_15h06.48.247,arm3_q,2022.2.5,Win32,30.03363767,60b64f8d9ae6d605e0da89e1,64aeaab685a29f4ca249be02,64bec99d9b6de7c503f75bae,up,1,0.4357,0.35,1,0,1.3524,,,,,,80,0,80,0,1,,,,,
,,450698,001,2023-07-24_15h06.48.247,arm3_q,2022.2.5,Win32,30.03363767,60b64f8d9ae6d605e0da89e1,64aeaab685a29f4ca249be02,64bec99d9b6de7c503f75bae,up,1,0.4357,0.35,2,0,0.5178,,,,,,81,0,81,0,1,,,,,
,,450698,001,2023-07-24_15h06.48.247,arm3_q,2022.2.5,Win32,30.03363767,60b64f8d9ae6d605e0da89e1,64aeaab685a29f4ca249be02,64bec99d9b6de7c503f75bae,up,-1,0.4357,0.35,3,0,0.7643,,,,,,82,0,82,0,1,,,,,
,,450698,001,2023-07-24_15h06.48.247,arm3_q,2022.2.5,Win32,30.03363767,60b64f8d9ae6d605e0da89e1,64aeaab685a29f4ca249be02,64bec99d9b6de7c503f75bae,up,1,0.4357,0.35,2,0,0.1969,,,,,,83,0,83,0,1,,,,,
,,450698,001,2023-07-24_15h06.48.247,arm3_q,2022.2.5,Win32,30.03363767,60b64f8d9ae6d605e0da89e1,64aeaab685a29f4ca249be02,64bec99d9b6de7c503f75bae,up,1,0.4357,0.35,2,0,0.1027,,,,,,84,0,84,0,1,,,,,
,,450698,001,2023-07-24_15h06.48.247,arm3_q,2022.2.5,Win32,30.03363767,60b64f8d9ae6d605e0da89e1,64aeaab685a29f4ca249be02,64bec99d9b6de7c503f75bae,up,-1,0.4357,0.35,2,0,0.2217,,,,,,85,0,85,0,1,,,,,
,,450698,001,2023-07-24_15h06.48.247,arm3_q,2022.2.5,Win32,30.03363767,60b64f8d9ae6d605e0da89e1,64aeaab685a29f4ca249be02,64bec99d9b6de7c503f75bae,up,1,0.4357,0.35,1,0,0.2235,,,,,,86,0,86,0,1,,,,,
,,450698,001,2023-07-24_15h06.48.247,arm3_q,2022.2.5,Win32,30.03363767,60b64f8d9ae6d605e0da89e1,64aeaab685a29f4ca249be02,64bec99d9b6de7c503f75bae,up,1,0.4357,0.35,2,0,0.2032,,,,,,87,0,87,0,1,,,,,
,,450698,001,2023-07-24_15h06.48.247,arm3_q,2022.2.5,Win32,30.03363767,60b64f8d9ae6d605e0da89e1,64aeaab685a29f4ca249be02,64bec99d9b6de7c503f75bae,up,1,0.4357,0.35,2,0,1.2171,,,,,,88,0,88,0,1,,,,,
,,450698,001,2023-07-24_15h06.48.247,arm3_q,2022.2.5,Win32,30.03363767,60b64f8d9ae6d605e0da89e1,64aeaab685a29f4ca249be02,64bec99d9b6de7c503f75bae,up,1,0.4357,0.35,2,0,1.7221,,,,,,89,0,89,0,1,,,,,
,,450698,001,2023-07-24_15h06.48.247,arm3_q,2022.2.5,Win32,30.03363767,60b64f8d9ae6d605e0da89e1,64aeaab685a29f4ca249be02,64bec99d9b6de7c503f75bae,up,1,0.4357,0.35,3,0,1.6128,,,,,,90,0,90,0,1,,,,,
,,450698,001,2023-07-24_15h06.48.247,arm3_q,2022.2.5,Win32,30.03363767,60b64f8d9ae6d605e0da89e1,64aeaab685a29f4ca249be02,64bec99d9b6de7c503f75bae,up,1,0.4357,0.35,3,0,2.0975,,,,,,91,0,91,0,1,,,,,
,,450698,001,2023-07-24_15h06.48.247,arm3_q,2022.2.5,Win32,30.03363767,60b64f8d9ae6d605e0da89e1,64aeaab685a29f4ca249be02,64bec99d9b6de7c503f75bae,up,-1,0.4357,0.35,3,0,1.2699,,,,,,92,0,92,0,1,,,,,
,,450698,001,2023-07-24_15h06.48.247,arm3_q,2022.2.5,Win32,30.03363767,60b64f8d9ae6d605e0da89e1,64aeaab685a29f4ca249be02,64bec99d9b6de7c503f75bae,up,-1,0.4357,0.35,2,0,0.1528,,,,,,93,0,93,0,1,,,,,
,,450698,001,2023-07-24_15h06.48.247,arm3_q,2022.2.5,Win32,30.03363767,60b64f8d9ae6d605e0da89e1,64aeaab685a29f4ca249be02,64bec99d9b6de7c503f75bae,up,-1,0.4357,0.35,2,0,1.2039,,,,,,94,0,94,0,1,,,,,
,,450698,001,2023-07-24_15h06.48.247,arm3_q,2022.2.5,Win32,30.03363767,60b64f8d9ae6d605e0da89e1,64aeaab685a29f4ca249be02,64bec99d9b6de7c503f75bae,up,-1,0.4357,0.35,2,0,1.636,,,,,,95,0,95,0,1,,,,,
,,450698,001,2023-07-24_15h06.48.247,arm3_q,2022.2.5,Win32,30.03363767,60b64f8d9ae6d605e0da89e1,64aeaab685a29f4ca249be02,64bec99d9b6de7c503f75bae,up,-1,0.4357,0.35,1,0,1.5986,,,,,,96,0,96,0,1,,,,,
,,450698,001,2023-07-24_15h06.48.247,arm3_q,2022.2.5,Win32,30.03363767,60b64f8d9ae6d605e0da89e1,64aeaab685a29f4ca249be02,64bec99d9b6de7c503f75bae,up,-1,0.4357,0.35,1,0,2.2981,,,,,,97,0,97,0,1,,,,,
,,450698,001,2023-07-24_15h06.48.247,arm3_q,2022.2.5,Win32,30.03363767,60b64f8d9ae6d605e0da89e1,64aeaab685a29f4ca249be02,64bec99d9b6de7c503f75bae,up,-1,0.4357,0.35,1,0,1.6096,,,,,,98,0,98,0,1,,,,,
,,450698,001,2023-07-24_15h06.48.247,arm3_q,2022.2.5,Win32,30.03363767,60b64f8d9ae6d605e0da89e1,64aeaab685a29f4ca249be02,64bec99d9b6de7c503f75bae,up,-1,0.4357,0.35,1,0,1.5697,,,,,,99,0,99,0,1,,,,,
,,450698,001,2023-07-24_15h06.48.247,arm3_q,2022.2.5,Win32,30.03363767,60b64f8d9ae6d605e0da89e1,64aeaab685a29f4ca249be02,64bec99d9b6de7c503f75bae,up,1,0.4357,0.35,0,0,1.7569,,,,,,100,0,100,0,1,,,,,
,,450698,001,2023-07-24_15h06.48.247,arm3_q,2022.2.5,Win32,30.03363767,60b64f8d9ae6d605e0da89e1,64aeaab685a29f4ca249be02,64bec99d9b6de7c503f75bae,up,1,0.4357,0.35,1,0,1.7208,,,,,,101,0,101,0,1,,,,,
,,450698,001,2023-07-24_15h06.48.247,arm3_q,2022.2.5,Win32,30.03363767,60b64f8d9ae6d605e0da89e1,64aeaab685a29f4ca249be02,64bec99d9b6de7c503f75bae,up,1,0.4357,0.35,2,0,1.4283,,,,,,102,0,102,0,1,,,,,
,,450698,001,2023-07-24_15h06.48.247,arm3_q,2022.2.5,Win32,30.03363767,60b64f8d9ae6d605e0da89e1,64aeaab685a29f4ca249be02,64bec99d9b6de7c503f75bae,up,-1,0.4357,0.35,2,0,1.3867,,,,,,103,0,103,0,1,,,,,
,,450698,001,2023-07-24_15h06.48.247,arm3_q,2022.2.5,Win32,30.03363767,60b64f8d9ae6d605e0da89e1,64aeaab685a29f4ca249be02,64bec99d9b6de7c503f75bae,up,-1,0.4357,0.35,2,0,1.6523,,,,,,104,0,104,0,1,,,,,
,,450698,001,2023-07-24_15h06.48.247,arm3_q,2022.2.5,Win32,30.03363767,60b64f8d9ae6d605e0da89e1,64aeaab685a29f4ca249be02,64bec99d9b6de7c503f75bae,up,-1,0.4357,0.35,1,0,1.0753,,,,,,105,0,105,0,1,,,,,
,,450698,001,2023-07-24_15h06.48.247,arm3_q,2022.2.5,Win32,30.03363767,60b64f8d9ae6d605e0da89e1,64aeaab685a29f4ca249be02,64bec99d9b6de7c503f75bae,up,-1,0.4357,0.35,1,0,1.1222,,,,,,106,0,106,0,1,,,,,
,,450698,001,2023-07-24_15h06.48.247,arm3_q,2022.2.5,Win32,30.03363767,60b64f8d9ae6d605e0da89e1,64aeaab685a29f4ca249be02,64bec99d9b6de7c503f75bae,up,-1,0.4357,0.35,1,0,1.4158,,,,,,107,0,107,0,1,,,,,
,,450698,001,2023-07-24_15h06.48.247,arm3_q,2022.2.5,Win32,30.03363767,60b64f8d9ae6d605e0da89e1,64aeaab685a29f4ca249be02,64bec99d9b6de7c503f75bae,up,-1,0.4357,0.35,1,0,1.3921,,,,,,108,0,108,0,1,,,,,
,,450698,001,2023-07-24_15h06.48.247,arm3_q,2022.2.5,Win32,30.03363767,60b64f8d9ae6d605e0da89e1,64aeaab685a29f4ca249be02,64bec99d9b6de7c503f75bae,up,-1,0.4357,0.35,1,0,1.422,,,,,,109,0,109,0,1,,,,,
,,450698,001,2023-07-24_15h06.48.247,arm3_q,2022.2.5,Win32,30.03363767,60b64f8d9ae6d605e0da89e1,64aeaab685a29f4ca249be02,64bec99d9b6de7c503f75bae,up,-1,0.4357,0.35,1,0,2.5091,,,,,,110,0,110,0,1,,,,,
,,450698,001,2023-07-24_15h06.48.247,arm3_q,2022.2.5,Win32,30.03363767,60b64f8d9ae6d605e0da89e1,64aeaab685a29f4ca249be02,64bec99d9b6de7c503f75bae,up,-1,0.4357,0.35,0,0,1.12,,,,,,111,0,111,0,1,,,,,
,,450698,001,2023-07-24_15h06.48.247,arm3_q,2022.2.5,Win32,30.03363767,60b64f8d9ae6d605e0da89e1,64aeaab685a29f4ca249be02,64bec99d9b6de7c503f75bae,up,-1,0.4357,0.35,-1,0,1.3593,,,,,,112,0,112,0,1,,,,,
,,450698,001,2023-07-24_15h06.48.247,arm3_q,2022.2.5,Win32,30.03363767,60b64f8d9ae6d605e0da89e1,64aeaab685a29f4ca249be02,64bec99d9b6de7c503f75bae,up,1,0.4357,0.35,-1,0,2.3433,,,,,,113,0,113,0,1,,,,,
,,450698,001,2023-07-24_15h06.48.247,arm3_q,2022.2.5,Win32,30.03363767,60b64f8d9ae6d605e0da89e1,64aeaab685a29f4ca249be02,64bec99d9b6de7c503f75bae,up,-1,0.4357,0.35,-1,0,2.393,,,,,,114,0,114,0,1,,,,,
,,450698,001,2023-07-24_15h06.48.247,arm3_q,2022.2.5,Win32,30.03363767,60b64f8d9ae6d605e0da89e1,64aeaab685a29f4ca249be02,64bec99d9b6de7c503f75bae,up,-1,0.4357,0.35,-2,0,3.0422,,,,,,115,0,115,0,1,,,,,
,,450698,001,2023-07-24_15h06.48.247,arm3_q,2022.2.5,Win32,30.03363767,60b64f8d9ae6d605e0da89e1,64aeaab685a29f4ca249be02,64bec99d9b6de7c503f75bae,up,1,0.4357,0.35,-3,0,1.4044,,,,,,116,0,116,0,1,,,,,
,,450698,001,2023-07-24_15h06.48.247,arm3_q,2022.2.5,Win32,30.03363767,60b64f8d9ae6d605e0da89e1,64aeaab685a29f4ca249be02,64bec99d9b6de7c503f75bae,up,1,0.4357,0.35,-3,0,2.5457,,,,,,117,0,117,0,1,,,,,
,,450698,001,2023-07-24_15h06.48.247,arm3_q,2022.2.5,Win32,30.03363767,60b64f8d9ae6d605e0da89e1,64aeaab685a29f4ca249be02,64bec99d9b6de7c503f75bae,up,-1,0.4357,0.35,-3,0,1.2969,,,,,,118,0,118,0,1,,,,,
,,450698,001,2023-07-24_15h06.48.247,arm3_q,2022.2.5,Win32,30.03363767,60b64f8d9ae6d605e0da89e1,64aeaab685a29f4ca249be02,64bec99d9b6de7c503f75bae,up,-1,0.4357,0.35,-4,0,1.3792,,,,,,119,0,119,0,1,,,,,
,,450698,001,2023-07-24_15h06.48.247,arm3_q,2022.2.5,Win32,30.03363767,60b64f8d9ae6d605e0da89e1,64aeaab685a29f4ca249be02,64bec99d9b6de7c503f75bae,up,-1,0.4357,0.35,-5,0,1.2056,,,,,,120,0,120,0,1,,,,,
,,450698,001,2023-07-24_15h06.48.247,arm3_q,2022.2.5,Win32,30.03363767,60b64f8d9ae6d605e0da89e1,64aeaab685a29f4ca249be02,64bec99d9b6de7c503f75bae,up,-1,0.4357,0.35,-6,0,1.1747,,,,,,121,0,121,0,1,,,,,
,,450698,001,2023-07-24_15h06.48.247,arm3_q,2022.2.5,Win32,30.03363767,60b64f8d9ae6d605e0da89e1,64aeaab685a29f4ca249be02,64bec99d9b6de7c503f75bae,up,-1,0.4357,0.35,-6,0,2.0011,,,,,,122,0,122,0,1,,,,,
,,450698,001,2023-07-24_15h06.48.247,arm3_q,2022.2.5,Win32,30.03363767,60b64f8d9ae6d605e0da89e1,64aeaab685a29f4ca249be02,64bec99d9b6de7c503f75bae,up,-1,0.4357,0.35,-6,0,1.0382,,,,,,123,0,123,0,1,,,,,
,,450698,001,2023-07-24_15h06.48.247,arm3_q,2022.2.5,Win32,30.03363767,60b64f8d9ae6d605e0da89e1,64aeaab685a29f4ca249be02,64bec99d9b6de7c503f75bae,up,-1,0.4357,0.35,-6,0,1.4095,,,,,,124,0,124,0,1,,,,,
,,450698,001,2023-07-24_15h06.48.247,arm3_q,2022.2.5,Win32,30.03363767,60b64f8d9ae6d605e0da89e1,64aeaab685a29f4ca249be02,64bec99d9b6de7c503f75bae,up,-1,0.4357,0.35,-7,0,0.9621,,,,,,125,0,125,0,1,,,,,
,,450698,001,2023-07-24_15h06.48.247,arm3_q,2022.2.5,Win32,30.03363767,60b64f8d9ae6d605e0da89e1,64aeaab685a29f4ca249be02,64bec99d9b6de7c503f75bae,up,-1,0.4357,0.35,-7,0,1.0177,,,,,,126,0,126,0,1,,,,,
,,450698,001,2023-07-24_15h06.48.247,arm3_q,2022.2.5,Win32,30.03363767,60b64f8d9ae6d605e0da89e1,64aeaab685a29f4ca249be02,64bec99d9b6de7c503f75bae,up,1,0.4357,0.35,-8,0,5.0156,,,,,,127,0,127,0,1,,,,,
,,450698,001,2023-07-24_15h06.48.247,arm3_q,2022.2.5,Win32,30.03363767,60b64f8d9ae6d605e0da89e1,64aeaab685a29f4ca249be02,64bec99d9b6de7c503f75bae,up,1,0.4357,0.35,-8,0,3.5401,,,,,,128,0,128,0,1,,,,,
,,450698,001,2023-07-24_15h06.48.247,arm3_q,2022.2.5,Win32,30.03363767,60b64f8d9ae6d605e0da89e1,64aeaab685a29f4ca249be02,64bec99d9b6de7c503f75bae,up,1,0.4357,0.35,-8,0,0.888,,,,,,129,0,129,0,1,,,,,
,,450698,001,2023-07-24_15h06.48.247,arm3_q,2022.2.5,Win32,30.03363767,60b64f8d9ae6d605e0da89e1,64aeaab685a29f4ca249be02,64bec99d9b6de7c503f75bae,up,1,0.4357,0.35,-8,0,1.2482,,,,,,130,0,130,0,1,,,,,
,,450698,001,2023-07-24_15h06.48.247,arm3_q,2022.2.5,Win32,30.03363767,60b64f8d9ae6d605e0da89e1,64aeaab685a29f4ca249be02,64bec99d9b6de7c503f75bae,up,-1,0.4357,0.35,-8,0,4.2657,,,,,,131,0,131,0,1,,,,,
,,450698,001,2023-07-24_15h06.48.247,arm3_q,2022.2.5,Win32,30.03363767,60b64f8d9ae6d605e0da89e1,64aeaab685a29f4ca249be02,64bec99d9b6de7c503f75bae,up,1,0.4357,0.35,-9,0,3.2391,,,,,,132,0,132,0,1,,,,,
,,450698,001,2023-07-24_15h06.48.247,arm3_q,2022.2.5,Win32,30.03363767,60b64f8d9ae6d605e0da89e1,64aeaab685a29f4ca249be02,64bec99d9b6de7c503f75bae,up,1,0.4357,0.35,-9,0,0.2644,,,,,,133,0,133,0,1,,,,,
,,450698,001,2023-07-24_15h06.48.247,arm3_q,2022.2.5,Win32,30.03363767,60b64f8d9ae6d605e0da89e1,64aeaab685a29f4ca249be02,64bec99d9b6de7c503f75bae,up,1,0.4357,0.35,-8,0,3.5797,,,,,,134,0,134,0,1,,,,,
,,450698,001,2023-07-24_15h06.48.247,arm3_q,2022.2.5,Win32,30.03363767,60b64f8d9ae6d605e0da89e1,64aeaab685a29f4ca249be02,64bec99d9b6de7c503f75bae,up,-1,0.4357,0.35,-8,0,31.6968,,,,,,135,0,135,0,1,,,,,
,,450698,001,2023-07-24_15h06.48.247,arm3_q,2022.2.5,Win32,30.03363767,60b64f8d9ae6d605e0da89e1,64aeaab685a29f4ca249be02,64bec99d9b6de7c503f75bae,up,-1,0.4357,0.35,-8,0,0.9593,,,,,,136,0,136,0,1,,,,,
,,450698,001,2023-07-24_15h06.48.247,arm3_q,2022.2.5,Win32,30.03363767,60b64f8d9ae6d605e0da89e1,64aeaab685a29f4ca249be02,64bec99d9b6de7c503f75bae,up,-1,0.4357,0.35,-9,0,0.8925,,,,,,137,0,137,0,1,,,,,
,,450698,001,2023-07-24_15h06.48.247,arm3_q,2022.2.5,Win32,30.03363767,60b64f8d9ae6d605e0da89e1,64aeaab685a29f4ca249be02,64bec99d9b6de7c503f75bae,up,-1,0.4357,0.35,-9,0,7.5217,,,,,,138,0,138,0,1,,,,,
,,450698,001,2023-07-24_15h06.48.247,arm3_q,2022.2.5,Win32,30.03363767,60b64f8d9ae6d605e0da89e1,64aeaab685a29f4ca249be02,64bec99d9b6de7c503f75bae,up,-1,0.4357,0.35,-9,0,1.1516,,,,,,139,0,139,0,1,,,,,
,,450698,001,2023-07-24_15h06.48.247,arm3_q,2022.2.5,Win32,30.03363767,60b64f8d9ae6d605e0da89e1,64aeaab685a29f4ca249be02,64bec99d9b6de7c503f75bae,up,-1,0.4357,0.35,-10,0,1.7297,,,,,,140,0,140,0,1,,,,,
,,450698,001,2023-07-24_15h06.48.247,arm3_q,2022.2.5,Win32,30.03363767,60b64f8d9ae6d605e0da89e1,64aeaab685a29f4ca249be02,64bec99d9b6de7c503f75bae,up,-1,0.4357,0.35,-10,0,2.7217,,,,,,141,0,141,0,1,,,,,
,,450698,001,2023-07-24_15h06.48.247,arm3_q,2022.2.5,Win32,30.03363767,60b64f8d9ae6d605e0da89e1,64aeaab685a29f4ca249be02,64bec99d9b6de7c503f75bae,up,1,0.4357,0.35,-11,0,0.8886,,,,,,142,0,142,0,1,,,,,
,,450698,001,2023-07-24_15h06.48.247,arm3_q,2022.2.5,Win32,30.03363767,60b64f8d9ae6d605e0da89e1,64aeaab685a29f4ca249be02,64bec99d9b6de7c503f75bae,up,1,0.4357,0.35,-11,0,1.0136,,,,,,143,0,143,0,1,,,,,
,,450698,001,2023-07-24_15h06.48.247,arm3_q,2022.2.5,Win32,30.03363767,60b64f8d9ae6d605e0da89e1,64aeaab685a29f4ca249be02,64bec99d9b6de7c503f75bae,up,1,0.4357,0.35,-11,0,1.9837,,,,,,144,0,144,0,1,,,,,
,,450698,001,2023-07-24_15h06.48.247,arm3_q,2022.2.5,Win32,30.03363767,60b64f8d9ae6d605e0da89e1,64aeaab685a29f4ca249be02,64bec99d9b6de7c503f75bae,up,-1,0.4357,0.35,-10,0,1.02,,,,,,145,0,145,0,1,,,,,
,,450698,001,2023-07-24_15h06.48.247,arm3_q,2022.2.5,Win32,30.03363767,60b64f8d9ae6d605e0da89e1,64aeaab685a29f4ca249be02,64bec99d9b6de7c503f75bae,up,-1,0.4357,0.35,-11,0,3.274,,,,,,146,0,146,0,1,,,,,
,,450698,001,2023-07-24_15h06.48.247,arm3_q,2022.2.5,Win32,30.03363767,60b64f8d9ae6d605e0da89e1,64aeaab685a29f4ca249be02,64bec99d9b6de7c503f75bae,up,-1,0.4357,0.35,-12,0,6.7285,,,,,,147,0,147,0,1,,,,,
,,450698,001,2023-07-24_15h06.48.247,arm3_q,2022.2.5,Win32,30.03363767,60b64f8d9ae6d605e0da89e1,64aeaab685a29f4ca249be02,64bec99d9b6de7c503f75bae,up,-1,0.4357,0.35,-13,0,2.6196,,,,,,148,0,148,0,1,,,,,
,,450698,001,2023-07-24_15h06.48.247,arm3_q,2022.2.5,Win32,30.03363767,60b64f8d9ae6d605e0da89e1,64aeaab685a29f4ca249be02,64bec99d9b6de7c503f75bae,up,1,0.4357,0.35,-13,0,2.1264,,,,,,149,0,149,0,1,,,,,
,,450698,001,2023-07-24_15h06.48.247,arm3_q,2022.2.5,Win32,30.03363767,60b64f8d9ae6d605e0da89e1,64aeaab685a29f4ca249be02,64bec99d9b6de7c503f75bae,up,1,0.4357,0.35,-12,0,1.2731,,,,,,150,0,150,0,1,,,,,
,,450698,001,2023-07-24_15h06.48.247,arm3_q,2022.2.5,Win32,30.03363767,60b64f8d9ae6d605e0da89e1,64aeaab685a29f4ca249be02,64bec99d9b6de7c503f75bae,up,-1,0.4357,0.35,-12,0,1.6892,,,,,,151,0,151,0,1,,,,,
,,450698,001,2023-07-24_15h06.48.247,arm3_q,2022.2.5,Win32,30.03363767,60b64f8d9ae6d605e0da89e1,64aeaab685a29f4ca249be02,64bec99d9b6de7c503f75bae,up,-1,0.4357,0.35,-13,0,0.8578,,,,,,152,0,152,0,1,,,,,
,,450698,001,2023-07-24_15h06.48.247,arm3_q,2022.2.5,Win32,30.03363767,60b64f8d9ae6d605e0da89e1,64aeaab685a29f4ca249be02,64bec99d9b6de7c503f75bae,up,1,0.4357,0.35,-13,0,1.521,,,,,,153,0,153,0,1,,,,,
,,450698,001,2023-07-24_15h06.48.247,arm3_q,2022.2.5,Win32,30.03363767,60b64f8d9ae6d605e0da89e1,64aeaab685a29f4ca249be02,64bec99d9b6de7c503f75bae,up,1,0.4357,0.35,-12,0,2.4535,,,,,,154,0,154,0,1,,,,,
,,450698,001,2023-07-24_15h06.48.247,arm3_q,2022.2.5,Win32,30.03363767,60b64f8d9ae6d605e0da89e1,64aeaab685a29f4ca249be02,64bec99d9b6de7c503f75bae,up,1,0.4357,0.35,-11,0,3.6651,,,,,,155,0,155,0,1,,,,,
,,450698,001,2023-07-24_15h06.48.247,arm3_q,2022.2.5,Win32,30.03363767,60b64f8d9ae6d605e0da89e1,64aeaab685a29f4ca249be02,64bec99d9b6de7c503f75bae,up,1,0.4357,0.35,-11,0,3.6527,,,,,,156,0,156,0,1,,,,,
,,450698,001,2023-07-24_15h06.48.247,arm3_q,2022.2.5,Win32,30.03363767,60b64f8d9ae6d605e0da89e1,64aeaab685a29f4ca249be02,64bec99d9b6de7c503f75bae,up,1,0.4357,0.35,-10,0,1.0032,,,,,,157,0,157,0,1,,,,,
,,450698,001,2023-07-24_15h06.48.247,arm3_q,2022.2.5,Win32,30.03363767,60b64f8d9ae6d605e0da89e1,64aeaab685a29f4ca249be02,64bec99d9b6de7c503f75bae,up,1,0.4357,0.35,-9,0,0.8215,,,,,,158,0,158,0,1,,,,,
,,450698,001,2023-07-24_15h06.48.247,arm3_q,2022.2.5,Win32,30.03363767,60b64f8d9ae6d605e0da89e1,64aeaab685a29f4ca249be02,64bec99d9b6de7c503f75bae,up,1,0.4357,0.35,-8,0,0.8484,,,,,,159,0,159,0,1,,,,,
,,450698,001,2023-07-24_15h06.48.247,arm3_q,2022.2.5,Win32,30.03363767,60b64f8d9ae6d605e0da89e1,64aeaab685a29f4ca249be02,64bec99d9b6de7c503f75bae,up,1,0.4357,0.35,-8,0,0.8655,,,,,,160,0,160,0,1,,,,,
,,450698,001,2023-07-24_15h06.48.247,arm3_q,2022.2.5,Win32,30.03363767,60b64f8d9ae6d605e0da89e1,64aeaab685a29f4ca249be02,64bec99d9b6de7c503f75bae,up,-1,0.4357,0.35,-8,0,0.821,,,,,,161,0,161,0,1,,,,,
,,450698,001,2023-07-24_15h06.48.247,arm3_q,2022.2.5,Win32,30.03363767,60b64f8d9ae6d605e0da89e1,64aeaab685a29f4ca249be02,64bec99d9b6de7c503f75bae,up,-1,0.4357,0.35,-8,0,1.1752,,,,,,162,0,162,0,1,,,,,
,,450698,001,2023-07-24_15h06.48.247,arm3_q,2022.2.5,Win32,30.03363767,60b64f8d9ae6d605e0da89e1,64aeaab685a29f4ca249be02,64bec99d9b6de7c503f75bae,up,1,0.4357,0.35,-8,0,1.4232,,,,,,163,0,163,0,1,,,,,
,,450698,001,2023-07-24_15h06.48.247,arm3_q,2022.2.5,Win32,30.03363767,60b64f8d9ae6d605e0da89e1,64aeaab685a29f4ca249be02,64bec99d9b6de7c503f75bae,up,-1,0.4357,0.35,-7,0,1.0609,,,,,,164,0,164,0,1,,,,,
,,450698,001,2023-07-24_15h06.48.247,arm3_q,2022.2.5,Win32,30.03363767,60b64f8d9ae6d605e0da89e1,64aeaab685a29f4ca249be02,64bec99d9b6de7c503f75bae,up,-1,0.4357,0.35,-8,0,0.8672,,,,,,165,0,165,0,1,,,,,
,,450698,001,2023-07-24_15h06.48.247,arm3_q,2022.2.5,Win32,30.03363767,60b64f8d9ae6d605e0da89e1,64aeaab685a29f4ca249be02,64bec99d9b6de7c503f75bae,up,-1,0.4357,0.35,-8,0,0.7909,,,,,,166,0,166,0,1,,,,,
,,450698,001,2023-07-24_15h06.48.247,arm3_q,2022.2.5,Win32,30.03363767,60b64f8d9ae6d605e0da89e1,64aeaab685a29f4ca249be02,64bec99d9b6de7c503f75bae,up,-1,0.4357,0.35,-8,0,0.7151,,,,,,167,0,167,0,1,,,,,
,,450698,001,2023-07-24_15h06.48.247,arm3_q,2022.2.5,Win32,30.03363767,60b64f8d9ae6d605e0da89e1,64aeaab685a29f4ca249be02,64bec99d9b6de7c503f75bae,up,1,0.4357,0.35,-9,0,0.7518,,,,,,168,0,168,0,1,,,,,
,,450698,001,2023-07-24_15h06.48.247,arm3_q,2022.2.5,Win32,30.03363767,60b64f8d9ae6d605e0da89e1,64aeaab685a29f4ca249be02,64bec99d9b6de7c503f75bae,up,1,0.4357,0.35,-9,0,0.9057,,,,,,169,0,169,0,1,,,,,
,,450698,001,2023-07-24_15h06.48.247,arm3_q,2022.2.5,Win32,30.03363767,60b64f8d9ae6d605e0da89e1,64aeaab685a29f4ca249be02,64bec99d9b6de7c503f75bae,up,1,0.4357,0.35,-8,0,2.8828,,,,,,170,0,170,0,1,,,,,
,,450698,001,2023-07-24_15h06.48.247,arm3_q,2022.2.5,Win32,30.03363767,60b64f8d9ae6d605e0da89e1,64aeaab685a29f4ca249be02,64bec99d9b6de7c503f75bae,up,1,0.4357,0.35,-8,0,1.133,,,,,,171,0,171,0,1,,,,,
,,450698,001,2023-07-24_15h06.48.247,arm3_q,2022.2.5,Win32,30.03363767,60b64f8d9ae6d605e0da89e1,64aeaab685a29f4ca249be02,64bec99d9b6de7c503f75bae,up,1,0.4357,0.35,-7,0,1.4694,,,,,,172,0,172,0,1,,,,,
,,450698,001,2023-07-24_15h06.48.247,arm3_q,2022.2.5,Win32,30.03363767,60b64f8d9ae6d605e0da89e1,64aeaab685a29f4ca249be02,64bec99d9b6de7c503f75bae,up,1,0.4357,0.35,-7,0,0.7298,,,,,,173,0,173,0,1,,,,,
,,450698,001,2023-07-24_15h06.48.247,arm3_q,2022.2.5,Win32,30.03363767,60b64f8d9ae6d605e0da89e1,64aeaab685a29f4ca249be02,64bec99d9b6de7c503f75bae,up,1,0.4357,0.35,-7,0,0.1376,,,,,,174,0,174,0,1,,,,,
,,450698,001,2023-07-24_15h06.48.247,arm3_q,2022.2.5,Win32,30.03363767,60b64f8d9ae6d605e0da89e1,64aeaab685a29f4ca249be02,64bec99d9b6de7c503f75bae,up,-1,0.4357,0.35,-6,0,0.1354,,,,,,175,0,175,0,1,,,,,
,,450698,001,2023-07-24_15h06.48.247,arm3_q,2022.2.5,Win32,30.03363767,60b64f8d9ae6d605e0da89e1,64aeaab685a29f4ca249be02,64bec99d9b6de7c503f75bae,up,-1,0.4357,0.35,-6,0,0.1341,,,,,,176,0,176,0,1,,,,,
,,450698,001,2023-07-24_15h06.48.247,arm3_q,2022.2.5,Win32,30.03363767,60b64f8d9ae6d605e0da89e1,64aeaab685a29f4ca249be02,64bec99d9b6de7c503f75bae,up,-1,0.4357,0.35,-6,0,0.2038,,,,,,177,0,177,0,1,,,,,
,,450698,001,2023-07-24_15h06.48.247,arm3_q,2022.2.5,Win32,30.03363767,60b64f8d9ae6d605e0da89e1,64aeaab685a29f4ca249be02,64bec99d9b6de7c503f75bae,up,1,0.4357,0.35,-6,0,0.1612,,,,,,178,0,178,0,1,,,,,
,,450698,001,2023-07-24_15h06.48.247,arm3_q,2022.2.5,Win32,30.03363767,60b64f8d9ae6d605e0da89e1,64aeaab685a29f4ca249be02,64bec99d9b6de7c503f75bae,up,-1,0.4357,0.35,-5,0,0.1661,,,,,,179,0,179,0,1,,,,,
,,450698,001,2023-07-24_15h06.48.247,arm3_q,2022.2.5,Win32,30.03363767,60b64f8d9ae6d605e0da89e1,64aeaab685a29f4ca249be02,64bec99d9b6de7c503f75bae,up,-1,0.4357,0.35,-5,0,0.484,,,,,,180,0,180,0,1,,,,,
,,450698,001,2023-07-24_15h06.48.247,arm3_q,2022.2.5,Win32,30.03363767,60b64f8d9ae6d605e0da89e1,64aeaab685a29f4ca249be02,64bec99d9b6de7c503f75bae,up,-1,0.4357,0.35,-5,0,0.1436,,,,,,181,0,181,0,1,,,,,
,,450698,001,2023-07-24_15h06.48.247,arm3_q,2022.2.5,Win32,30.03363767,60b64f8d9ae6d605e0da89e1,64aeaab685a29f4ca249be02,64bec99d9b6de7c503f75bae,up,-1,0.4357,0.35,-5,0,0.1148,,,,,,182,0,182,0,1,,,,,
,,450698,001,2023-07-24_15h06.48.247,arm3_q,2022.2.5,Win32,30.03363767,60b64f8d9ae6d605e0da89e1,64aeaab685a29f4ca249be02,64bec99d9b6de7c503f75bae,up,1,0.4357,0.35,-5,0,0.1168,,,,,,183,0,183,0,1,,,,,
,,450698,001,2023-07-24_15h06.48.247,arm3_q,2022.2.5,Win32,30.03363767,60b64f8d9ae6d605e0da89e1,64aeaab685a29f4ca249be02,64bec99d9b6de7c503f75bae,up,1,0.4357,0.35,-4,0,0.1281,,,,,,184,0,184,0,1,,,,,
,,450698,001,2023-07-24_15h06.48.247,arm3_q,2022.2.5,Win32,30.03363767,60b64f8d9ae6d605e0da89e1,64aeaab685a29f4ca249be02,64bec99d9b6de7c503f75bae,up,-1,0.4357,0.35,-3,0,0.1464,,,,,,185,0,185,0,1,,,,,
,,450698,001,2023-07-24_15h06.48.247,arm3_q,2022.2.5,Win32,30.03363767,60b64f8d9ae6d605e0da89e1,64aeaab685a29f4ca249be02,64bec99d9b6de7c503f75bae,up,1,0.4357,0.35,-3,0,0.1427,,,,,,186,0,186,0,1,,,,,
,,450698,001,2023-07-24_15h06.48.247,arm3_q,2022.2.5,Win32,30.03363767,60b64f8d9ae6d605e0da89e1,64aeaab685a29f4ca249be02,64bec99d9b6de7c503f75bae,up,-1,0.4357,0.35,-2,0,0.1137,,,,,,187,0,187,0,1,,,,,
,,450698,001,2023-07-24_15h06.48.247,arm3_q,2022.2.5,Win32,30.03363767,60b64f8d9ae6d605e0da89e1,64aeaab685a29f4ca249be02,64bec99d9b6de7c503f75bae,up,-1,0.4357,0.35,-3,0,0.1206,,,,,,188,0,188,0,1,,,,,
,,450698,001,2023-07-24_15h06.48.247,arm3_q,2022.2.5,Win32,30.03363767,60b64f8d9ae6d605e0da89e1,64aeaab685a29f4ca249be02,64bec99d9b6de7c503f75bae,up,1,0.4357,0.35,-3,0,0.1131,,,,,,189,0,189,0,1,,,,,
,,450698,001,2023-07-24_15h06.48.247,arm3_q,2022.2.5,Win32,30.03363767,60b64f8d9ae6d605e0da89e1,64aeaab685a29f4ca249be02,64bec99d9b6de7c503f75bae,up,-1,0.4357,0.35,-2,0,0.1153,,,,,,190,0,190,0,1,,,,,
,,450698,001,2023-07-24_15h06.48.247,arm3_q,2022.2.5,Win32,30.03363767,60b64f8d9ae6d605e0da89e1,64aeaab685a29f4ca249be02,64bec99d9b6de7c503f75bae,up,-1,0.4357,0.35,-2,0,0.1341,,,,,,191,0,191,0,1,,,,,
,,450698,001,2023-07-24_15h06.48.247,arm3_q,2022.2.5,Win32,30.03363767,60b64f8d9ae6d605e0da89e1,64aeaab685a29f4ca249be02,64bec99d9b6de7c503f75bae,up,-1,0.4357,0.35,-2,0,0.1286,,,,,,192,0,192,0,1,,,,,
,,450698,001,2023-07-24_15h06.48.247,arm3_q,2022.2.5,Win32,30.03363767,60b64f8d9ae6d605e0da89e1,64aeaab685a29f4ca249be02,64bec99d9b6de7c503f75bae,up,1,0.4357,0.35,-2,0,0.165,,,,,,193,0,193,0,1,,,,,
,,450698,001,2023-07-24_15h06.48.247,arm3_q,2022.2.5,Win32,30.03363767,60b64f8d9ae6d605e0da89e1,64aeaab685a29f4ca249be02,64bec99d9b6de7c503f75bae,up,1,0.4357,0.35,-2,0,0.1239,,,,,,194,0,194,0,1,,,,,
,,450698,001,2023-07-24_15h06.48.247,arm3_q,2022.2.5,Win32,30.03363767,60b64f8d9ae6d605e0da89e1,64aeaab685a29f4ca249be02,64bec99d9b6de7c503f75bae,up,1,0.4357,0.35,-2,0,0.1381,,,,,,195,0,195,0,1,,,,,
,,450698,001,2023-07-24_15h06.48.247,arm3_q,2022.2.5,Win32,30.03363767,60b64f8d9ae6d605e0da89e1,64aeaab685a29f4ca249be02,64bec99d9b6de7c503f75bae,up,-1,0.4357,0.35,-1,0,0.1185,,,,,,196,0,196,0,1,,,,,
,,450698,001,2023-07-24_15h06.48.247,arm3_q,2022.2.5,Win32,30.03363767,60b64f8d9ae6d605e0da89e1,64aeaab685a29f4ca249be02,64bec99d9b6de7c503f75bae,up,1,0.4357,0.35,-1,0,0.1409,,,,,,197,0,197,0,1,,,,,
,,450698,001,2023-07-24_15h06.48.247,arm3_q,2022.2.5,Win32,30.03363767,60b64f8d9ae6d605e0da89e1,64aeaab685a29f4ca249be02,64bec99d9b6de7c503f75bae,up,1,0.4357,0.35,-1,0,1.5189,,,,,,198,0,198,0,1,,,,,
,,450698,001,2023-07-24_15h06.48.247,arm3_q,2022.2.5,Win32,30.03363767,60b64f8d9ae6d605e0da89e1,64aeaab685a29f4ca249be02,64bec99d9b6de7c503f75bae,up,1,0.4357,0.35,0,0,0.1823,,,,,,199,0,199,0,1,,,,,
,,450698,001,2023-07-24_15h06.48.247,arm3_q,2022.2.5,Win32,30.03363767,60b64f8d9ae6d605e0da89e1,64aeaab685a29f4ca249be02,64bec99d9b6de7c503f75bae,up,-1,0.4357,0.35,1,0,0.0956,,,,,,200,0,200,0,1,,,,,
,,450698,001,2023-07-24_15h06.48.247,arm3_q,2022.2.5,Win32,30.03363767,60b64f8d9ae6d605e0da89e1,64aeaab685a29f4ca249be02,64bec99d9b6de7c503f75bae,up,-1,0.4357,0.35,0,0,0.1426,,,,,,201,0,201,0,1,,,,,
,,450698,001,2023-07-24_15h06.48.247,arm3_q,2022.2.5,Win32,30.03363767,60b64f8d9ae6d605e0da89e1,64aeaab685a29f4ca249be02,64bec99d9b6de7c503f75bae,up,-1,0.4357,0.35,-1,0,0.1161,,,,,,202,0,202,0,1,,,,,
,,450698,001,2023-07-24_15h06.48.247,arm3_q,2022.2.5,Win32,30.03363767,60b64f8d9ae6d605e0da89e1,64aeaab685a29f4ca249be02,64bec99d9b6de7c503f75bae,up,-1,0.4357,0.35,-1,0,0.1155,,,,,,203,0,203,0,1,,,,,
,,450698,001,2023-07-24_15h06.48.247,arm3_q,2022.2.5,Win32,30.03363767,60b64f8d9ae6d605e0da89e1,64aeaab685a29f4ca249be02,64bec99d9b6de7c503f75bae,up,-1,0.4357,0.35,-1,0,0.1143,,,,,,204,0,204,0,1,,,,,
,,450698,001,2023-07-24_15h06.48.247,arm3_q,2022.2.5,Win32,30.03363767,60b64f8d9ae6d605e0da89e1,64aeaab685a29f4ca249be02,64bec99d9b6de7c503f75bae,up,1,0.4357,0.35,-1,0,0.0902,,,,,,205,0,205,0,1,,,,,
,,450698,001,2023-07-24_15h06.48.247,arm3_q,2022.2.5,Win32,30.03363767,60b64f8d9ae6d605e0da89e1,64aeaab685a29f4ca249be02,64bec99d9b6de7c503f75bae,up,-1,0.4357,0.35,0,0,0.1381,,,,,,206,0,206,0,1,,,,,
,,450698,001,2023-07-24_15h06.48.247,arm3_q,2022.2.5,Win32,30.03363767,60b64f8d9ae6d605e0da89e1,64aeaab685a29f4ca249be02,64bec99d9b6de7c503f75bae,up,1,0.4357,0.35,-1,0,0.1183,,,,,,207,0,207,0,1,,,,,
,,450698,001,2023-07-24_15h06.48.247,arm3_q,2022.2.5,Win32,30.03363767,60b64f8d9ae6d605e0da89e1,64aeaab685a29f4ca249be02,64bec99d9b6de7c503f75bae,up,1,0.4357,0.35,-1,0,0.1248,,,,,,208,0,208,0,1,,,,,
,,450698,001,2023-07-24_15h06.48.247,arm3_q,2022.2.5,Win32,30.03363767,60b64f8d9ae6d605e0da89e1,64aeaab685a29f4ca249be02,64bec99d9b6de7c503f75bae,up,1,0.4357,0.35,0,0,0.1391,,,,,,209,0,209,0,1,,,,,
,,450698,001,2023-07-24_15h06.48.247,arm3_q,2022.2.5,Win32,30.03363767,60b64f8d9ae6d605e0da89e1,64aeaab685a29f4ca249be02,64bec99d9b6de7c503f75bae,up,1,0.4357,0.35,0,0,0.0949,,,,,,210,0,210,0,1,,,,,
,,450698,001,2023-07-24_15h06.48.247,arm3_q,2022.2.5,Win32,30.03363767,60b64f8d9ae6d605e0da89e1,64aeaab685a29f4ca249be02,64bec99d9b6de7c503f75bae,up,1,0.4357,0.35,1,0,0.1146,,,,,,211,0,211,0,1,,,,,
,,450698,001,2023-07-24_15h06.48.247,arm3_q,2022.2.5,Win32,30.03363767,60b64f8d9ae6d605e0da89e1,64aeaab685a29f4ca249be02,64bec99d9b6de7c503f75bae,up,-1,0.4357,0.35,1,0,0.1364,,,,,,212,0,212,0,1,,,,,
,,450698,001,2023-07-24_15h06.48.247,arm3_q,2022.2.5,Win32,30.03363767,60b64f8d9ae6d605e0da89e1,64aeaab685a29f4ca249be02,64bec99d9b6de7c503f75bae,up,-1,0.4357,0.35,1,0,0.1161,,,,,,213,0,213,0,1,,,,,
,,450698,001,2023-07-24_15h06.48.247,arm3_q,2022.2.5,Win32,30.03363767,60b64f8d9ae6d605e0da89e1,64aeaab685a29f4ca249be02,64bec99d9b6de7c503f75bae,up,-1,0.4357,0.35,0,0,0.1497,,,,,,214,0,214,0,1,,,,,
,,450698,001,2023-07-24_15h06.48.247,arm3_q,2022.2.5,Win32,30.03363767,60b64f8d9ae6d605e0da89e1,64aeaab685a29f4ca249be02,64bec99d9b6de7c503f75bae,up,1,0.4357,0.35,-1,0,0.2064,,,,,,215,0,215,0,1,,,,,
,,450698,001,2023-07-24_15h06.48.247,arm3_q,2022.2.5,Win32,30.03363767,60b64f8d9ae6d605e0da89e1,64aeaab685a29f4ca249be02,64bec99d9b6de7c503f75bae,up,1,0.4357,0.35,0,0,0.1011,,,,,,216,0,216,0,1,,,,,
,,450698,001,2023-07-24_15h06.48.247,arm3_q,2022.2.5,Win32,30.03363767,60b64f8d9ae6d605e0da89e1,64aeaab685a29f4ca249be02,64bec99d9b6de7c503f75bae,up,1,0.4357,0.35,1,0,0.1483,,,,,,217,0,217,0,1,,,,,
,,450698,001,2023-07-24_15h06.48.247,arm3_q,2022.2.5,Win32,30.03363767,60b64f8d9ae6d605e0da89e1,64aeaab685a29f4ca249be02,64bec99d9b6de7c503f75bae,up,1,0.4357,0.35,1,0,0.1147,,,,,,218,0,218,0,1,,,,,
,,450698,001,2023-07-24_15h06.48.247,arm3_q,2022.2.5,Win32,30.03363767,60b64f8d9ae6d605e0da89e1,64aeaab685a29f4ca249be02,64bec99d9b6de7c503f75bae,up,1,0.4357,0.35,1,0,0.1477,,,,,,219,0,219,0,1,,,,,
,,450698,001,2023-07-24_15h06.48.247,arm3_q,2022.2.5,Win32,30.03363767,60b64f8d9ae6d605e0da89e1,64aeaab685a29f4ca249be02,64bec99d9b6de7c503f75bae,up,1,0.4357,0.35,1,0,0.3446,,,,,,220,0,220,0,1,,,,,
,,450698,001,2023-07-24_15h06.48.247,arm3_q,2022.2.5,Win32,30.03363767,60b64f8d9ae6d605e0da89e1,64aeaab685a29f4ca249be02,64bec99d9b6de7c503f75bae,up,1,0.4357,0.35,1,0,0.1051,,,,,,221,0,221,0,1,,,,,
,,450698,001,2023-07-24_15h06.48.247,arm3_q,2022.2.5,Win32,30.03363767,60b64f8d9ae6d605e0da89e1,64aeaab685a29f4ca249be02,64bec99d9b6de7c503f75bae,up,1,0.4357,0.35,2,0,1.5913,,,,,,222,0,222,0,1,,,,,
,,450698,001,2023-07-24_15h06.48.247,arm3_q,2022.2.5,Win32,30.03363767,60b64f8d9ae6d605e0da89e1,64aeaab685a29f4ca249be02,64bec99d9b6de7c503f75bae,up,-1,0.4357,0.35,3,0,0.1687,,,,,,223,0,223,0,1,,,,,
,,450698,001,2023-07-24_15h06.48.247,arm3_q,2022.2.5,Win32,30.03363767,60b64f8d9ae6d605e0da89e1,64aeaab685a29f4ca249be02,64bec99d9b6de7c503f75bae,up,-1,0.4357,0.35,3,0,0.1001,,,,,,224,0,224,0,1,,,,,
,,450698,001,2023-07-24_15h06.48.247,arm3_q,2022.2.5,Win32,30.03363767,60b64f8d9ae6d605e0da89e1,64aeaab685a29f4ca249be02,64bec99d9b6de7c503f75bae,up,1,0.4357,0.35,2,0,0.5344,,,,,,225,0,225,0,1,,,,,
,,450698,001,2023-07-24_15h06.48.247,arm3_q,2022.2.5,Win32,30.03363767,60b64f8d9ae6d605e0da89e1,64aeaab685a29f4ca249be02,64bec99d9b6de7c503f75bae,up,-1,0.4357,0.35,2,0,0.1159,,,,,,226,0,226,0,1,,,,,
,,450698,001,2023-07-24_15h06.48.247,arm3_q,2022.2.5,Win32,30.03363767,60b64f8d9ae6d605e0da89e1,64aeaab685a29f4ca249be02,64bec99d9b6de7c503f75bae,up,-1,0.4357,0.35,2,0,0.1563,,,,,,227,0,227,0,1,,,,,
,,450698,001,2023-07-24_15h06.48.247,arm3_q,2022.2.5,Win32,30.03363767,60b64f8d9ae6d605e0da89e1,64aeaab685a29f4ca249be02,64bec99d9b6de7c503f75bae,up,1,0.4357,0.35,2,0,0.2621,,,,,,228,0,228,0,1,,,,,
,,450698,001,2023-07-24_15h06.48.247,arm3_q,2022.2.5,Win32,30.03363767,60b64f8d9ae6d605e0da89e1,64aeaab685a29f4ca249be02,64bec99d9b6de7c503f75bae,up,-1,0.4357,0.35,2,0,0.2009,,,,,,229,0,229,0,1,,,,,
,,450698,001,2023-07-24_15h06.48.247,arm3_q,2022.2.5,Win32,30.03363767,60b64f8d9ae6d605e0da89e1,64aeaab685a29f4ca249be02,64bec99d9b6de7c503f75bae,up,-1,0.4357,0.35,1,0,0.2243,,,,,,230,0,230,0,1,,,,,
,,450698,001,2023-07-24_15h06.48.247,arm3_q,2022.2.5,Win32,30.03363767,60b64f8d9ae6d605e0da89e1,64aeaab685a29f4ca249be02,64bec99d9b6de7c503f75bae,up,-1,0.4357,0.35,1,0,0.1858,,,,,,231,0,231,0,1,,,,,
,,450698,001,2023-07-24_15h06.48.247,arm3_q,2022.2.5,Win32,30.03363767,60b64f8d9ae6d605e0da89e1,64aeaab685a29f4ca249be02,64bec99d9b6de7c503f75bae,up,-1,0.4357,0.35,1,0,0.144,,,,,,232,0,232,0,1,,,,,
,,450698,001,2023-07-24_15h06.48.247,arm3_q,2022.2.5,Win32,30.03363767,60b64f8d9ae6d605e0da89e1,64aeaab685a29f4ca249be02,64bec99d9b6de7c503f75bae,up,1,0.4357,0.35,1,0,0.1484,,,,,,233,0,233,0,1,,,,,
,,450698,001,2023-07-24_15h06.48.247,arm3_q,2022.2.5,Win32,30.03363767,60b64f8d9ae6d605e0da89e1,64aeaab685a29f4ca249be02,64bec99d9b6de7c503f75bae,up,-1,0.4357,0.35,1,0,0.1471,,,,,,234,0,234,0,1,,,,,
,,450698,001,2023-07-24_15h06.48.247,arm3_q,2022.2.5,Win32,30.03363767,60b64f8d9ae6d605e0da89e1,64aeaab685a29f4ca249be02,64bec99d9b6de7c503f75bae,up,1,0.4357,0.35,1,0,0.1122,,,,,,235,0,235,0,1,,,,,
,,450698,001,2023-07-24_15h06.48.247,arm3_q,2022.2.5,Win32,30.03363767,60b64f8d9ae6d605e0da89e1,64aeaab685a29f4ca249be02,64bec99d9b6de7c503f75bae,up,1,0.4357,0.35,2,0,1.1353,,,,,,236,0,236,0,1,,,,,
,,450698,001,2023-07-24_15h06.48.247,arm3_q,2022.2.5,Win32,30.03363767,60b64f8d9ae6d605e0da89e1,64aeaab685a29f4ca249be02,64bec99d9b6de7c503f75bae,up,1,0.4357,0.35,3,0,1.0421,,,,,,237,0,237,0,1,,,,,
,,450698,001,2023-07-24_15h06.48.247,arm3_q,2022.2.5,Win32,30.03363767,60b64f8d9ae6d605e0da89e1,64aeaab685a29f4ca249be02,64bec99d9b6de7c503f75bae,up,1,0.4357,0.35,3,0,0.8347,,,,,,238,0,238,0,1,,,,,
,,450698,001,2023-07-24_15h06.48.247,arm3_q,2022.2.5,Win32,30.03363767,60b64f8d9ae6d605e0da89e1,64aeaab685a29f4ca249be02,64bec99d9b6de7c503f75bae,up,1,0.4357,0.35,3,0,1.4913,,,,,,239,0,239,0,1,,,,,
,,450698,001,2023-07-24_15h06.48.247,arm3_q,2022.2.5,Win32,30.03363767,60b64f8d9ae6d605e0da89e1,64aeaab685a29f4ca249be02,64bec99d9b6de7c503f75bae,up,1,0.4357,0.35,3,0,0.8775,,,,,,240,0,240,0,1,,,,,
,,450698,001,2023-07-24_15h06.48.247,arm3_q,2022.2.5,Win32,30.03363767,60b64f8d9ae6d605e0da89e1,64aeaab685a29f4ca249be02,64bec99d9b6de7c503f75bae,up,1,0.4357,0.35,4,0,1.3408,,,,,,241,0,241,0,1,,,,,
,,450698,001,2023-07-24_15h06.48.247,arm3_q,2022.2.5,Win32,30.03363767,60b64f8d9ae6d605e0da89e1,64aeaab685a29f4ca249be02,64bec99d9b6de7c503f75bae,up,-1,0.4357,0.35,5,0,0.9697,,,,,,242,0,242,0,1,,,,,
,,450698,001,2023-07-24_15h06.48.247,arm3_q,2022.2.5,Win32,30.03363767,60b64f8d9ae6d605e0da89e1,64aeaab685a29f4ca249be02,64bec99d9b6de7c503f75bae,up,-1,0.4357,0.35,4,0,1.1618,,,,,,243,0,243,0,1,,,,,
,,450698,001,2023-07-24_15h06.48.247,arm3_q,2022.2.5,Win32,30.03363767,60b64f8d9ae6d605e0da89e1,64aeaab685a29f4ca249be02,64bec99d9b6de7c503f75bae,up,1,0.4357,0.35,3,0,1.2835,,,,,,244,0,244,0,1,,,,,
,,450698,001,2023-07-24_15h06.48.247,arm3_q,2022.2.5,Win32,30.03363767,60b64f8d9ae6d605e0da89e1,64aeaab685a29f4ca249be02,64bec99d9b6de7c503f75bae,up,1,0.4357,0.35,4,0,0.9913,,,,,,245,0,245,0,1,,,,,
,,450698,001,2023-07-24_15h06.48.247,arm3_q,2022.2.5,Win32,30.03363767,60b64f8d9ae6d605e0da89e1,64aeaab685a29f4ca249be02,64bec99d9b6de7c503f75bae,up,1,0.4357,0.35,5,0,1.2735,,,,,,246,0,246,0,1,,,,,
,,450698,001,2023-07-24_15h06.48.247,arm3_q,2022.2.5,Win32,30.03363767,60b64f8d9ae6d605e0da89e1,64aeaab685a29f4ca249be02,64bec99d9b6de7c503f75bae,up,1,0.4357,0.35,5,0,2.2436,,,,,,247,0,247,0,1,,,,,
,,450698,001,2023-07-24_15h06.48.247,arm3_q,2022.2.5,Win32,30.03363767,60b64f8d9ae6d605e0da89e1,64aeaab685a29f4ca249be02,64bec99d9b6de7c503f75bae,up,1,0.4357,0.35,6,0,2.0059,,,,,,248,0,248,0,1,,,,,
,,450698,001,2023-07-24_15h06.48.247,arm3_q,2022.2.5,Win32,30.03363767,60b64f8d9ae6d605e0da89e1,64aeaab685a29f4ca249be02,64bec99d9b6de7c503f75bae,up,-1,0.4357,0.35,7,0,1.1236,,,,,,249,0,249,0,1,,,,,
,,450698,001,2023-07-24_15h06.48.247,arm3_q,2022.2.5,Win32,30.03363767,60b64f8d9ae6d605e0da89e1,64aeaab685a29f4ca249be02,64bec99d9b6de7c503f75bae,up,-1,0.4357,0.35,7,0,0.8493,,,,,,250,0,250,0,1,,,,,
,,450698,001,2023-07-24_15h06.48.247,arm3_q,2022.2.5,Win32,30.03363767,60b64f8d9ae6d605e0da89e1,64aeaab685a29f4ca249be02,64bec99d9b6de7c503f75bae,up,-1,0.4357,0.35,7,0,0.796,,,,,,251,0,251,0,1,,,,,
,,450698,001,2023-07-24_15h06.48.247,arm3_q,2022.2.5,Win32,30.03363767,60b64f8d9ae6d605e0da89e1,64aeaab685a29f4ca249be02,64bec99d9b6de7c503f75bae,up,1,0.4357,0.35,7,0,0.8109,,,,,,252,0,252,0,1,,,,,
,,450698,001,2023-07-24_15h06.48.247,arm3_q,2022.2.5,Win32,30.03363767,60b64f8d9ae6d605e0da89e1,64aeaab685a29f4ca249be02,64bec99d9b6de7c503f75bae,up,-1,0.4357,0.35,7,0,0.8594,,,,,,253,0,253,0,1,,,,,
,,450698,001,2023-07-24_15h06.48.247,arm3_q,2022.2.5,Win32,30.03363767,60b64f8d9ae6d605e0da89e1,64aeaab685a29f4ca249be02,64bec99d9b6de7c503f75bae,up,1,0.4357,0.35,7,0,0.8093,,,,,,254,0,254,0,1,,,,,
,,450698,001,2023-07-24_15h06.48.247,arm3_q,2022.2.5,Win32,30.03363767,60b64f8d9ae6d605e0da89e1,64aeaab685a29f4ca249be02,64bec99d9b6de7c503f75bae,up,-1,0.4357,0.35,8,0,0.66,,,,,,255,0,255,0,1,,,,,
,,450698,001,2023-07-24_15h06.48.247,arm3_q,2022.2.5,Win32,30.03363767,60b64f8d9ae6d605e0da89e1,64aeaab685a29f4ca249be02,64bec99d9b6de7c503f75bae,up,1,0.4357,0.35,8,0,0.649,,,,,,256,0,256,0,1,,,,,
,,450698,001,2023-07-24_15h06.48.247,arm3_q,2022.2.5,Win32,30.03363767,60b64f8d9ae6d605e0da89e1,64aeaab685a29f4ca249be02,64bec99d9b6de7c503f75bae,up,1,0.4357,0.35,8,0,0.6711,,,,,,257,0,257,0,1,,,,,
,,450698,001,2023-07-24_15h06.48.247,arm3_q,2022.2.5,Win32,30.03363767,60b64f8d9ae6d605e0da89e1,64aeaab685a29f4ca249be02,64bec99d9b6de7c503f75bae,up,1,0.4357,0.35,9,0,0.7091,,,,,,258,0,258,0,1,,,,,
,,450698,001,2023-07-24_15h06.48.247,arm3_q,2022.2.5,Win32,30.03363767,60b64f8d9ae6d605e0da89e1,64aeaab685a29f4ca249be02,64bec99d9b6de7c503f75bae,up,1,0.4357,0.35,10,0,0.8995,,,,,,259,0,259,0,1,,,,,
,,450698,001,2023-07-24_15h06.48.247,arm3_q,2022.2.5,Win32,30.03363767,60b64f8d9ae6d605e0da89e1,64aeaab685a29f4ca249be02,64bec99d9b6de7c503f75bae,up,1,0.4357,0.35,11,0,0.8305,,,,,,260,0,260,0,1,,,,,
,,450698,001,2023-07-24_15h06.48.247,arm3_q,2022.2.5,Win32,30.03363767,60b64f8d9ae6d605e0da89e1,64aeaab685a29f4ca249be02,64bec99d9b6de7c503f75bae,up,1,0.4357,0.35,12,0,1.4165,,,,,,261,0,261,0,1,,,,,
,,450698,001,2023-07-24_15h06.48.247,arm3_q,2022.2.5,Win32,30.03363767,60b64f8d9ae6d605e0da89e1,64aeaab685a29f4ca249be02,64bec99d9b6de7c503f75bae,up,1,0.4357,0.35,12,0,1.2272,,,,,,262,0,262,0,1,,,,,
,,450698,001,2023-07-24_15h06.48.247,arm3_q,2022.2.5,Win32,30.03363767,60b64f8d9ae6d605e0da89e1,64aeaab685a29f4ca249be02,64bec99d9b6de7c503f75bae,up,-1,0.4357,0.35,12,0,0.7614,,,,,,263,0,263,0,1,,,,,
,,450698,001,2023-07-24_15h06.48.247,arm3_q,2022.2.5,Win32,30.03363767,60b64f8d9ae6d605e0da89e1,64aeaab685a29f4ca249be02,64bec99d9b6de7c503f75bae,up,-1,0.4357,0.35,11,0,0.693,,,,,,264,0,264,0,1,,,,,
,,450698,001,2023-07-24_15h06.48.247,arm3_q,2022.2.5,Win32,30.03363767,60b64f8d9ae6d605e0da89e1,64aeaab685a29f4ca249be02,64bec99d9b6de7c503f75bae,up,-1,0.4357,0.35,10,0,0.8239,,,,,,265,0,265,0,1,,,,,
,,450698,001,2023-07-24_15h06.48.247,arm3_q,2022.2.5,Win32,30.03363767,60b64f8d9ae6d605e0da89e1,64aeaab685a29f4ca249be02,64bec99d9b6de7c503f75bae,up,-1,0.4357,0.35,10,0,0.7542,,,,,,266,0,266,0,1,,,,,
,,450698,001,2023-07-24_15h06.48.247,arm3_q,2022.2.5,Win32,30.03363767,60b64f8d9ae6d605e0da89e1,64aeaab685a29f4ca249be02,64bec99d9b6de7c503f75bae,up,-1,0.4357,0.35,9,0,0.8122,,,,,,267,0,267,0,1,,,,,
,,450698,001,2023-07-24_15h06.48.247,arm3_q,2022.2.5,Win32,30.03363767,60b64f8d9ae6d605e0da89e1,64aeaab685a29f4ca249be02,64bec99d9b6de7c503f75bae,up,1,0.4357,0.35,9,0,0.641,,,,,,268,0,268,0,1,,,,,
,,450698,001,2023-07-24_15h06.48.247,arm3_q,2022.2.5,Win32,30.03363767,60b64f8d9ae6d605e0da89e1,64aeaab685a29f4ca249be02,64bec99d9b6de7c503f75bae,up,1,0.4357,0.35,10,0,1.0282,,,,,,269,0,269,0,1,,,,,
,,450698,001,2023-07-24_15h06.48.247,arm3_q,2022.2.5,Win32,30.03363767,60b64f8d9ae6d605e0da89e1,64aeaab685a29f4ca249be02,64bec99d9b6de7c503f75bae,up,-1,0.4357,0.35,10,0,0.7664,,,,,,270,0,270,0,1,,,,,
,,450698,001,2023-07-24_15h06.48.247,arm3_q,2022.2.5,Win32,30.03363767,60b64f8d9ae6d605e0da89e1,64aeaab685a29f4ca249be02,64bec99d9b6de7c503f75bae,up,-1,0.4357,0.35,10,0,0.4994,,,,,,271,0,271,0,1,,,,,
,,450698,001,2023-07-24_15h06.48.247,arm3_q,2022.2.5,Win32,30.03363767,60b64f8d9ae6d605e0da89e1,64aeaab685a29f4ca249be02,64bec99d9b6de7c503f75bae,up,1,0.4357,0.35,9,0,0.8564,,,,,,272,0,272,0,1,,,,,
,,450698,001,2023-07-24_15h06.48.247,arm3_q,2022.2.5,Win32,30.03363767,60b64f8d9ae6d605e0da89e1,64aeaab685a29f4ca249be02,64bec99d9b6de7c503f75bae,up,-1,0.4357,0.35,9,0,0.7962,,,,,,273,0,273,0,1,,,,,
,,450698,001,2023-07-24_15h06.48.247,arm3_q,2022.2.5,Win32,30.03363767,60b64f8d9ae6d605e0da89e1,64aeaab685a29f4ca249be02,64bec99d9b6de7c503f75bae,up,1,0.4357,0.35,9,0,0.7727,,,,,,274,0,274,0,1,,,,,
,,450698,001,2023-07-24_15h06.48.247,arm3_q,2022.2.5,Win32,30.03363767,60b64f8d9ae6d605e0da89e1,64aeaab685a29f4ca249be02,64bec99d9b6de7c503f75bae,up,1,0.4357,0.35,10,0,0.6666,,,,,,275,0,275,0,1,,,,,
,,450698,001,2023-07-24_15h06.48.247,arm3_q,2022.2.5,Win32,30.03363767,60b64f8d9ae6d605e0da89e1,64aeaab685a29f4ca249be02,64bec99d9b6de7c503f75bae,up,-1,0.4357,0.35,11,0,0.7902,,,,,,276,0,276,0,1,,,,,
,,450698,001,2023-07-24_15h06.48.247,arm3_q,2022.2.5,Win32,30.03363767,60b64f8d9ae6d605e0da89e1,64aeaab685a29f4ca249be02,64bec99d9b6de7c503f75bae,up,-1,0.4357,0.35,11,0,0.7422,,,,,,277,0,277,0,1,,,,,
,,450698,001,2023-07-24_15h06.48.247,arm3_q,2022.2.5,Win32,30.03363767,60b64f8d9ae6d605e0da89e1,64aeaab685a29f4ca249be02,64bec99d9b6de7c503f75bae,up,1,0.4357,0.35,11,0,0.7822,,,,,,278,0,278,0,1,,,,,
,,450698,001,2023-07-24_15h06.48.247,arm3_q,2022.2.5,Win32,30.03363767,60b64f8d9ae6d605e0da89e1,64aeaab685a29f4ca249be02,64bec99d9b6de7c503f75bae,up,1,0.4357,0.35,11,0,0.8466,,,,,,279,0,279,0,1,,,,,
,,450698,001,2023-07-24_15h06.48.247,arm3_q,2022.2.5,Win32,30.03363767,60b64f8d9ae6d605e0da89e1,64aeaab685a29f4ca249be02,64bec99d9b6de7c503f75bae,up,1,0.4357,0.35,12,0,0.7352,,,,,,280,0,280,0,1,,,,,
,,450698,001,2023-07-24_15h06.48.247,arm3_q,2022.2.5,Win32,30.03363767,60b64f8d9ae6d605e0da89e1,64aeaab685a29f4ca249be02,64bec99d9b6de7c503f75bae,up,1,0.4357,0.35,12,0,0.787,,,,,,281,0,281,0,1,,,,,
,,450698,001,2023-07-24_15h06.48.247,arm3_q,2022.2.5,Win32,30.03363767,60b64f8d9ae6d605e0da89e1,64aeaab685a29f4ca249be02,64bec99d9b6de7c503f75bae,up,1,0.4357,0.35,12,0,0.7349,,,,,,282,0,282,0,1,,,,,
,,450698,001,2023-07-24_15h06.48.247,arm3_q,2022.2.5,Win32,30.03363767,60b64f8d9ae6d605e0da89e1,64aeaab685a29f4ca249be02,64bec99d9b6de7c503f75bae,up,1,0.4357,0.35,12,0,0.7556,,,,,,283,0,283,0,1,,,,,
,,450698,001,2023-07-24_15h06.48.247,arm3_q,2022.2.5,Win32,30.03363767,60b64f8d9ae6d605e0da89e1,64aeaab685a29f4ca249be02,64bec99d9b6de7c503f75bae,up,-1,0.4357,0.35,12,0,0.8576,,,,,,284,0,284,0,1,,,,,
,,450698,001,2023-07-24_15h06.48.247,arm3_q,2022.2.5,Win32,30.03363767,60b64f8d9ae6d605e0da89e1,64aeaab685a29f4ca249be02,64bec99d9b6de7c503f75bae,up,1,0.4357,0.35,11,0,0.7292,,,,,,285,0,285,0,1,,,,,
,,450698,001,2023-07-24_15h06.48.247,arm3_q,2022.2.5,Win32,30.03363767,60b64f8d9ae6d605e0da89e1,64aeaab685a29f4ca249be02,64bec99d9b6de7c503f75bae,up,1,0.4357,0.35,12,0,0.8201,,,,,,286,0,286,0,1,,,,,
,,450698,001,2023-07-24_15h06.48.247,arm3_q,2022.2.5,Win32,30.03363767,60b64f8d9ae6d605e0da89e1,64aeaab685a29f4ca249be02,64bec99d9b6de7c503f75bae,up,1,0.4357,0.35,12,0,0.9213,,,,,,287,0,287,0,1,,,,,
,,450698,001,2023-07-24_15h06.48.247,arm3_q,2022.2.5,Win32,30.03363767,60b64f8d9ae6d605e0da89e1,64aeaab685a29f4ca249be02,64bec99d9b6de7c503f75bae,up,-1,0.4357,0.35,12,0,0.7738,,,,,,288,0,288,0,1,,,,,
,,450698,001,2023-07-24_15h06.48.247,arm3_q,2022.2.5,Win32,30.03363767,60b64f8d9ae6d605e0da89e1,64aeaab685a29f4ca249be02,64bec99d9b6de7c503f75bae,up,1,0.4357,0.35,12,0,0.64,,,,,,289,0,289,0,1,,,,,
,,450698,001,2023-07-24_15h06.48.247,arm3_q,2022.2.5,Win32,30.03363767,60b64f8d9ae6d605e0da89e1,64aeaab685a29f4ca249be02,64bec99d9b6de7c503f75bae,up,-1,0.4357,0.35,12,0,0.7109,,,,,,290,0,290,0,1,,,,,
,,450698,001,2023-07-24_15h06.48.247,arm3_q,2022.2.5,Win32,30.03363767,60b64f8d9ae6d605e0da89e1,64aeaab685a29f4ca249be02,64bec99d9b6de7c503f75bae,up,-1,0.4357,0.35,12,0,0.9285,,,,,,291,0,291,0,1,,,,,
,,450698,001,2023-07-24_15h06.48.247,arm3_q,2022.2.5,Win32,30.03363767,60b64f8d9ae6d605e0da89e1,64aeaab685a29f4ca249be02,64bec99d9b6de7c503f75bae,up,1,0.4357,0.35,12,0,0.7125,,,,,,292,0,292,0,1,,,,,
,,450698,001,2023-07-24_15h06.48.247,arm3_q,2022.2.5,Win32,30.03363767,60b64f8d9ae6d605e0da89e1,64aeaab685a29f4ca249be02,64bec99d9b6de7c503f75bae,up,1,0.4357,0.35,12,0,0.704,,,,,,293,0,293,0,1,,,,,
,,450698,001,2023-07-24_15h06.48.247,arm3_q,2022.2.5,Win32,30.03363767,60b64f8d9ae6d605e0da89e1,64aeaab685a29f4ca249be02,64bec99d9b6de7c503f75bae,up,-1,0.4357,0.35,12,0,0.585,,,,,,294,0,294,0,1,,,,,
,,450698,001,2023-07-24_15h06.48.247,arm3_q,2022.2.5,Win32,30.03363767,60b64f8d9ae6d605e0da89e1,64aeaab685a29f4ca249be02,64bec99d9b6de7c503f75bae,up,-1,0.4357,0.35,12,0,0.6199,,,,,,295,0,295,0,1,,,,,
,,450698,001,2023-07-24_15h06.48.247,arm3_q,2022.2.5,Win32,30.03363767,60b64f8d9ae6d605e0da89e1,64aeaab685a29f4ca249be02,64bec99d9b6de7c503f75bae,up,1,0.4357,0.35,11,0,1.5655,,,,,,296,0,296,0,1,,,,,
,,450698,001,2023-07-24_15h06.48.247,arm3_q,2022.2.5,Win32,30.03363767,60b64f8d9ae6d605e0da89e1,64aeaab685a29f4ca249be02,64bec99d9b6de7c503f75bae,up,1,0.4357,0.35,12,0,0.6634,,,,,,297,0,297,0,1,,,,,
,,450698,001,2023-07-24_15h06.48.247,arm3_q,2022.2.5,Win32,30.03363767,60b64f8d9ae6d605e0da89e1,64aeaab685a29f4ca249be02,64bec99d9b6de7c503f75bae,up,1,0.4357,0.35,12,0,0.72,,,,,,298,0,298,0,1,,,,,
,,450698,001,2023-07-24_15h06.48.247,arm3_q,2022.2.5,Win32,30.03363767,60b64f8d9ae6d605e0da89e1,64aeaab685a29f4ca249be02,64bec99d9b6de7c503f75bae,up,1,0.4357,0.35,13,0,0.7383,,,,,,299,0,299,0,1,,,,,
,,450698,001,2023-07-24_15h06.48.247,arm3_q,2022.2.5,Win32,30.03363767,60b64f8d9ae6d605e0da89e1,64aeaab685a29f4ca249be02,64bec99d9b6de7c503f75bae,up,1,0.4357,0.35,14,0,0.8339,,,,,,300,0,300,0,1,,,,,
,,450698,001,2023-07-24_15h06.48.247,arm3_q,2022.2.5,Win32,30.03363767,60b64f8d9ae6d605e0da89e1,64aeaab685a29f4ca249be02,64bec99d9b6de7c503f75bae,up,1,0.4357,0.35,15,0,0.8024,,,,,,301,0,301,0,1,,,,,
,,450698,001,2023-07-24_15h06.48.247,arm3_q,2022.2.5,Win32,30.03363767,60b64f8d9ae6d605e0da89e1,64aeaab685a29f4ca249be02,64bec99d9b6de7c503f75bae,up,1,0.4357,0.35,16,0,0.8366,,,,,,302,0,302,0,1,,,,,
,,450698,001,2023-07-24_15h06.48.247,arm3_q,2022.2.5,Win32,30.03363767,60b64f8d9ae6d605e0da89e1,64aeaab685a29f4ca249be02,64bec99d9b6de7c503f75bae,up,1,0.4357,0.35,16,0,0.754,,,,,,303,0,303,0,1,,,,,
,,450698,001,2023-07-24_15h06.48.247,arm3_q,2022.2.5,Win32,30.03363767,60b64f8d9ae6d605e0da89e1,64aeaab685a29f4ca249be02,64bec99d9b6de7c503f75bae,up,1,0.4357,0.35,16,0,0.6873,,,,,,304,0,304,0,1,,,,,
,,450698,001,2023-07-24_15h06.48.247,arm3_q,2022.2.5,Win32,30.03363767,60b64f8d9ae6d605e0da89e1,64aeaab685a29f4ca249be02,64bec99d9b6de7c503f75bae,up,1,0.4357,0.35,17,0,1.7786,,,,,,305,0,305,0,1,,,,,
,,450698,001,2023-07-24_15h06.48.247,arm3_q,2022.2.5,Win32,30.03363767,60b64f8d9ae6d605e0da89e1,64aeaab685a29f4ca249be02,64bec99d9b6de7c503f75bae,up,-1,0.4357,0.35,17,0,0.5498,,,,,,306,0,306,0,1,,,,,
,,450698,001,2023-07-24_15h06.48.247,arm3_q,2022.2.5,Win32,30.03363767,60b64f8d9ae6d605e0da89e1,64aeaab685a29f4ca249be02,64bec99d9b6de7c503f75bae,up,1,0.4357,0.35,16,0,0.2787,,,,,,307,0,307,0,1,,,,,
,,450698,001,2023-07-24_15h06.48.247,arm3_q,2022.2.5,Win32,30.03363767,60b64f8d9ae6d605e0da89e1,64aeaab685a29f4ca249be02,64bec99d9b6de7c503f75bae,up,-1,0.4357,0.35,16,0,0.165,,,,,,308,0,308,0,1,,,,,
,,450698,001,2023-07-24_15h06.48.247,arm3_q,2022.2.5,Win32,30.03363767,60b64f8d9ae6d605e0da89e1,64aeaab685a29f4ca249be02,64bec99d9b6de7c503f75bae,up,-1,0.4357,0.35,15,0,0.1224,,,,,,309,0,309,0,1,,,,,
,,450698,001,2023-07-24_15h06.48.247,arm3_q,2022.2.5,Win32,30.03363767,60b64f8d9ae6d605e0da89e1,64aeaab685a29f4ca249be02,64bec99d9b6de7c503f75bae,up,-1,0.4357,0.35,15,0,0.1493,,,,,,310,0,310,0,1,,,,,
,,450698,001,2023-07-24_15h06.48.247,arm3_q,2022.2.5,Win32,30.03363767,60b64f8d9ae6d605e0da89e1,64aeaab685a29f4ca249be02,64bec99d9b6de7c503f75bae,up,-1,0.4357,0.35,14,0,0.1618,,,,,,311,0,311,0,1,,,,,
,,450698,001,2023-07-24_15h06.48.247,arm3_q,2022.2.5,Win32,30.03363767,60b64f8d9ae6d605e0da89e1,64aeaab685a29f4ca249be02,64bec99d9b6de7c503f75bae,up,-1,0.4357,0.35,14,0,0.1747,,,,,,312,0,312,0,1,,,,,
,,450698,001,2023-07-24_15h06.48.247,arm3_q,2022.2.5,Win32,30.03363767,60b64f8d9ae6d605e0da89e1,64aeaab685a29f4ca249be02,64bec99d9b6de7c503f75bae,up,1,0.4357,0.35,14,0,1.2243,,,,,,313,0,313,0,1,,,,,
,,450698,001,2023-07-24_15h06.48.247,arm3_q,2022.2.5,Win32,30.03363767,60b64f8d9ae6d605e0da89e1,64aeaab685a29f4ca249be02,64bec99d9b6de7c503f75bae,up,1,0.4357,0.35,15,0,0.8943,,,,,,314,0,314,0,1,,,,,
,,450698,001,2023-07-24_15h06.48.247,arm3_q,2022.2.5,Win32,30.03363767,60b64f8d9ae6d605e0da89e1,64aeaab685a29f4ca249be02,64bec99d9b6de7c503f75bae,up,1,0.4357,0.35,16,0,0.9934,,,,,,315,0,315,0,1,,,,,
,,450698,001,2023-07-24_15h06.48.247,arm3_q,2022.2.5,Win32,30.03363767,60b64f8d9ae6d605e0da89e1,64aeaab685a29f4ca249be02,64bec99d9b6de7c503f75bae,up,1,0.4357,0.35,16,0,0.8826,,,,,,316,0,316,0,1,,,,,
,,450698,001,2023-07-24_15h06.48.247,arm3_q,2022.2.5,Win32,30.03363767,60b64f8d9ae6d605e0da89e1,64aeaab685a29f4ca249be02,64bec99d9b6de7c503f75bae,up,-1,0.4357,0.35,17,0,0.8175,,,,,,317,0,317,0,1,,,,,
,,450698,001,2023-07-24_15h06.48.247,arm3_q,2022.2.5,Win32,30.03363767,60b64f8d9ae6d605e0da89e1,64aeaab685a29f4ca249be02,64bec99d9b6de7c503f75bae,up,-1,0.4357,0.35,17,0,0.9296,,,,,,318,0,318,0,1,,,,,
,,450698,001,2023-07-24_15h06.48.247,arm3_q,2022.2.5,Win32,30.03363767,60b64f8d9ae6d605e0da89e1,64aeaab685a29f4ca249be02,64bec99d9b6de7c503f75bae,up,-1,0.4357,0.35,17,0,0.7495,,,,,,319,0,319,0,1,,,,,
,,450698,001,2023-07-24_15h06.48.247,arm3_q,2022.2.5,Win32,30.03363767,60b64f8d9ae6d605e0da89e1,64aeaab685a29f4ca249be02,64bec99d9b6de7c503f75bae,up,-1,0.4357,0.35,16,0,0.7931,,,,,,320,0,320,0,1,,,,,
,,450698,001,2023-07-24_15h06.48.247,arm3_q,2022.2.5,Win32,30.03363767,60b64f8d9ae6d605e0da89e1,64aeaab685a29f4ca249be02,64bec99d9b6de7c503f75bae,up,-1,0.4357,0.35,16,0,0.8124,,,,,,321,0,321,0,1,,,,,
,,450698,001,2023-07-24_15h06.48.247,arm3_q,2022.2.5,Win32,30.03363767,60b64f8d9ae6d605e0da89e1,64aeaab685a29f4ca249be02,64bec99d9b6de7c503f75bae,up,1,0.4357,0.35,15,0,1.0024,,,,,,322,0,322,0,1,,,,,
,,450698,001,2023-07-24_15h06.48.247,arm3_q,2022.2.5,Win32,30.03363767,60b64f8d9ae6d605e0da89e1,64aeaab685a29f4ca249be02,64bec99d9b6de7c503f75bae,up,1,0.4357,0.35,15,0,1.4414,,,,,,323,0,323,0,1,,,,,
,,450698,001,2023-07-24_15h06.48.247,arm3_q,2022.2.5,Win32,30.03363767,60b64f8d9ae6d605e0da89e1,64aeaab685a29f4ca249be02,64bec99d9b6de7c503f75bae,up,1,0.4357,0.35,15,0,1.033,,,,,,324,0,324,0,1,,,,,
,,450698,001,2023-07-24_15h06.48.247,arm3_q,2022.2.5,Win32,30.03363767,60b64f8d9ae6d605e0da89e1,64aeaab685a29f4ca249be02,64bec99d9b6de7c503f75bae,up,-1,0.4357,0.35,16,0,0.7859,,,,,,325,0,325,0,1,,,,,
,,450698,001,2023-07-24_15h06.48.247,arm3_q,2022.2.5,Win32,30.03363767,60b64f8d9ae6d605e0da89e1,64aeaab685a29f4ca249be02,64bec99d9b6de7c503f75bae,up,1,0.4357,0.35,16,0,0.8694,,,,,,326,0,326,0,1,,,,,
,,450698,001,2023-07-24_15h06.48.247,arm3_q,2022.2.5,Win32,30.03363767,60b64f8d9ae6d605e0da89e1,64aeaab685a29f4ca249be02,64bec99d9b6de7c503f75bae,up,-1,0.4357,0.35,17,0,0.731,,,,,,327,0,327,0,1,,,,,
,,450698,001,2023-07-24_15h06.48.247,arm3_q,2022.2.5,Win32,30.03363767,60b64f8d9ae6d605e0da89e1,64aeaab685a29f4ca249be02,64bec99d9b6de7c503f75bae,up,1,0.4357,0.35,17,0,0.8417,,,,,,328,0,328,0,1,,,,,
,,450698,001,2023-07-24_15h06.48.247,arm3_q,2022.2.5,Win32,30.03363767,60b64f8d9ae6d605e0da89e1,64aeaab685a29f4ca249be02,64bec99d9b6de7c503f75bae,up,-1,0.4357,0.35,18,0,0.7349,,,,,,329,0,329,0,1,,,,,
,,450698,001,2023-07-24_15h06.48.247,arm3_q,2022.2.5,Win32,30.03363767,60b64f8d9ae6d605e0da89e1,64aeaab685a29f4ca249be02,64bec99d9b6de7c503f75bae,up,-1,0.4357,0.35,17,0,0.8538,,,,,,330,0,330,0,1,,,,,
,,450698,001,2023-07-24_15h06.48.247,arm3_q,2022.2.5,Win32,30.03363767,60b64f8d9ae6d605e0da89e1,64aeaab685a29f4ca249be02,64bec99d9b6de7c503f75bae,up,-1,0.4357,0.35,17,0,0.7107,,,,,,331,0,331,0,1,,,,,
,,450698,001,2023-07-24_15h06.48.247,arm3_q,2022.2.5,Win32,30.03363767,60b64f8d9ae6d605e0da89e1,64aeaab685a29f4ca249be02,64bec99d9b6de7c503f75bae,up,-1,0.4357,0.35,17,0,0.7714,,,,,,332,0,332,0,1,,,,,
,,450698,001,2023-07-24_15h06.48.247,arm3_q,2022.2.5,Win32,30.03363767,60b64f8d9ae6d605e0da89e1,64aeaab685a29f4ca249be02,64bec99d9b6de7c503f75bae,up,-1,0.4357,0.35,16,0,0.7735,,,,,,333,0,333,0,1,,,,,
,,450698,001,2023-07-24_15h06.48.247,arm3_q,2022.2.5,Win32,30.03363767,60b64f8d9ae6d605e0da89e1,64aeaab685a29f4ca249be02,64bec99d9b6de7c503f75bae,up,1,0.4357,0.35,15,0,0.7482,,,,,,334,0,334,0,1,,,,,
,,450698,001,2023-07-24_15h06.48.247,arm3_q,2022.2.5,Win32,30.03363767,60b64f8d9ae6d605e0da89e1,64aeaab685a29f4ca249be02,64bec99d9b6de7c503f75bae,up,1,0.4357,0.35,16,0,0.8179,,,,,,335,0,335,0,1,,,,,
,,450698,001,2023-07-24_15h06.48.247,arm3_q,2022.2.5,Win32,30.03363767,60b64f8d9ae6d605e0da89e1,64aeaab685a29f4ca249be02,64bec99d9b6de7c503f75bae,up,1,0.4357,0.35,16,0,0.9293,,,,,,336,0,336,0,1,,,,,
,,450698,001,2023-07-24_15h06.48.247,arm3_q,2022.2.5,Win32,30.03363767,60b64f8d9ae6d605e0da89e1,64aeaab685a29f4ca249be02,64bec99d9b6de7c503f75bae,up,-1,0.4357,0.35,16,0,0.5786,,,,,,337,0,337,0,1,,,,,
,,450698,001,2023-07-24_15h06.48.247,arm3_q,2022.2.5,Win32,30.03363767,60b64f8d9ae6d605e0da89e1,64aeaab685a29f4ca249be02,64bec99d9b6de7c503f75bae,up,-1,0.4357,0.35,15,0,0.799,,,,,,338,0,338,0,1,,,,,
,,450698,001,2023-07-24_15h06.48.247,arm3_q,2022.2.5,Win32,30.03363767,60b64f8d9ae6d605e0da89e1,64aeaab685a29f4ca249be02,64bec99d9b6de7c503f75bae,up,1,0.4357,0.35,15,0,0.8391,,,,,,339,0,339,0,1,,,,,
,,450698,001,2023-07-24_15h06.48.247,arm3_q,2022.2.5,Win32,30.03363767,60b64f8d9ae6d605e0da89e1,64aeaab685a29f4ca249be02,64bec99d9b6de7c503f75bae,up,1,0.4357,0.35,15,0,0.6608,,,,,,340,0,340,0,1,,,,,
,,450698,001,2023-07-24_15h06.48.247,arm3_q,2022.2.5,Win32,30.03363767,60b64f8d9ae6d605e0da89e1,64aeaab685a29f4ca249be02,64bec99d9b6de7c503f75bae,up,1,0.4357,0.35,15,0,0.7178,,,,,,341,0,341,0,1,,,,,
,,450698,001,2023-07-24_15h06.48.247,arm3_q,2022.2.5,Win32,30.03363767,60b64f8d9ae6d605e0da89e1,64aeaab685a29f4ca249be02,64bec99d9b6de7c503f75bae,up,-1,0.4357,0.35,15,0,0.7018,,,,,,342,0,342,0,1,,,,,
,,450698,001,2023-07-24_15h06.48.247,arm3_q,2022.2.5,Win32,30.03363767,60b64f8d9ae6d605e0da89e1,64aeaab685a29f4ca249be02,64bec99d9b6de7c503f75bae,up,1,0.4357,0.35,15,0,0.6419,,,,,,343,0,343,0,1,,,,,
,,450698,001,2023-07-24_15h06.48.247,arm3_q,2022.2.5,Win32,30.03363767,60b64f8d9ae6d605e0da89e1,64aeaab685a29f4ca249be02,64bec99d9b6de7c503f75bae,up,-1,0.4357,0.35,15,0,0.8765,,,,,,344,0,344,0,1,,,,,
,,450698,001,2023-07-24_15h06.48.247,arm3_q,2022.2.5,Win32,30.03363767,60b64f8d9ae6d605e0da89e1,64aeaab685a29f4ca249be02,64bec99d9b6de7c503f75bae,up,-1,0.4357,0.35,15,0,0.6742,,,,,,345,0,345,0,1,,,,,
,,450698,001,2023-07-24_15h06.48.247,arm3_q,2022.2.5,Win32,30.03363767,60b64f8d9ae6d605e0da89e1,64aeaab685a29f4ca249be02,64bec99d9b6de7c503f75bae,up,1,0.4357,0.35,14,0,0.7702,,,,,,346,0,346,0,1,,,,,
,,450698,001,2023-07-24_15h06.48.247,arm3_q,2022.2.5,Win32,30.03363767,60b64f8d9ae6d605e0da89e1,64aeaab685a29f4ca249be02,64bec99d9b6de7c503f75bae,up,1,0.4357,0.35,15,0,0.8798,,,,,,347,0,347,0,1,,,,,
,,450698,001,2023-07-24_15h06.48.247,arm3_q,2022.2.5,Win32,30.03363767,60b64f8d9ae6d605e0da89e1,64aeaab685a29f4ca249be02,64bec99d9b6de7c503f75bae,up,-1,0.4357,0.35,16,0,0.8728,,,,,,348,0,348,0,1,,,,,
,,450698,001,2023-07-24_15h06.48.247,arm3_q,2022.2.5,Win32,30.03363767,60b64f8d9ae6d605e0da89e1,64aeaab685a29f4ca249be02,64bec99d9b6de7c503f75bae,up,1,0.4357,0.35,16,0,0.8647,,,,,,349,0,349,0,1,,,,,
,,450698,001,2023-07-24_15h06.48.247,arm3_q,2022.2.5,Win32,30.03363767,60b64f8d9ae6d605e0da89e1,64aeaab685a29f4ca249be02,64bec99d9b6de7c503f75bae,up,1,0.4357,0.35,17,0,0.8617,,,,,,350,0,350,0,1,,,,,
,,450698,001,2023-07-24_15h06.48.247,arm3_q,2022.2.5,Win32,30.03363767,60b64f8d9ae6d605e0da89e1,64aeaab685a29f4ca249be02,64bec99d9b6de7c503f75bae,up,1,0.4357,0.35,17,0,0.8475,,,,,,351,0,351,0,1,,,,,
,,450698,001,2023-07-24_15h06.48.247,arm3_q,2022.2.5,Win32,30.03363767,60b64f8d9ae6d605e0da89e1,64aeaab685a29f4ca249be02,64bec99d9b6de7c503f75bae,up,-1,0.4357,0.35,17,0,0.7512,,,,,,352,0,352,0,1,,,,,
,,450698,001,2023-07-24_15h06.48.247,arm3_q,2022.2.5,Win32,30.03363767,60b64f8d9ae6d605e0da89e1,64aeaab685a29f4ca249be02,64bec99d9b6de7c503f75bae,up,1,0.4357,0.35,17,0,0.758,,,,,,353,0,353,0,1,,,,,
,,450698,001,2023-07-24_15h06.48.247,arm3_q,2022.2.5,Win32,30.03363767,60b64f8d9ae6d605e0da89e1,64aeaab685a29f4ca249be02,64bec99d9b6de7c503f75bae,up,1,0.4357,0.35,17,0,0.7195,,,,,,354,0,354,0,1,,,,,
,,450698,001,2023-07-24_15h06.48.247,arm3_q,2022.2.5,Win32,30.03363767,60b64f8d9ae6d605e0da89e1,64aeaab685a29f4ca249be02,64bec99d9b6de7c503f75bae,up,1,0.4357,0.35,18,0,0.6624,,,,,,355,0,355,0,1,,,,,
,,450698,001,2023-07-24_15h06.48.247,arm3_q,2022.2.5,Win32,30.03363767,60b64f8d9ae6d605e0da89e1,64aeaab685a29f4ca249be02,64bec99d9b6de7c503f75bae,up,1,0.4357,0.35,19,0,0.7994,,,,,,356,0,356,0,1,,,,,
,,450698,001,2023-07-24_15h06.48.247,arm3_q,2022.2.5,Win32,30.03363767,60b64f8d9ae6d605e0da89e1,64aeaab685a29f4ca249be02,64bec99d9b6de7c503f75bae,up,1,0.4357,0.35,20,0,0.7648,,,,,,357,0,357,0,1,,,,,
,,450698,001,2023-07-24_15h06.48.247,arm3_q,2022.2.5,Win32,30.03363767,60b64f8d9ae6d605e0da89e1,64aeaab685a29f4ca249be02,64bec99d9b6de7c503f75bae,up,-1,0.4357,0.35,20,0,0.7927,,,,,,358,0,358,0,1,,,,,
,,450698,001,2023-07-24_15h06.48.247,arm3_q,2022.2.5,Win32,30.03363767,60b64f8d9ae6d605e0da89e1,64aeaab685a29f4ca249be02,64bec99d9b6de7c503f75bae,up,-1,0.4357,0.35,20,0,0.7145,,,,,,359,0,359,0,1,,,,,
,,450698,001,2023-07-24_15h06.48.247,arm3_q,2022.2.5,Win32,30.03363767,60b64f8d9ae6d605e0da89e1,64aeaab685a29f4ca249be02,64bec99d9b6de7c503f75bae,up,-1,0.4357,0.35,19,0,0.6608,,,,,,360,0,360,0,1,,,,,
,,450698,001,2023-07-24_15h06.48.247,arm3_q,2022.2.5,Win32,30.03363767,60b64f8d9ae6d605e0da89e1,64aeaab685a29f4ca249be02,64bec99d9b6de7c503f75bae,up,-1,0.4357,0.35,19,0,0.8647,,,,,,361,0,361,0,1,,,,,
,,450698,001,2023-07-24_15h06.48.247,arm3_q,2022.2.5,Win32,30.03363767,60b64f8d9ae6d605e0da89e1,64aeaab685a29f4ca249be02,64bec99d9b6de7c503f75bae,up,-1,0.4357,0.35,19,0,0.7328,,,,,,362,0,362,0,1,,,,,
,,450698,001,2023-07-24_15h06.48.247,arm3_q,2022.2.5,Win32,30.03363767,60b64f8d9ae6d605e0da89e1,64aeaab685a29f4ca249be02,64bec99d9b6de7c503f75bae,up,-1,0.4357,0.35,18,0,0.7302,,,,,,363,0,363,0,1,,,,,
,,450698,001,2023-07-24_15h06.48.247,arm3_q,2022.2.5,Win32,30.03363767,60b64f8d9ae6d605e0da89e1,64aeaab685a29f4ca249be02,64bec99d9b6de7c503f75bae,up,1,0.4357,0.35,18,0,0.7666,,,,,,364,0,364,0,1,,,,,
,,450698,001,2023-07-24_15h06.48.247,arm3_q,2022.2.5,Win32,30.03363767,60b64f8d9ae6d605e0da89e1,64aeaab685a29f4ca249be02,64bec99d9b6de7c503f75bae,up,1,0.4357,0.35,19,0,0.6712,,,,,,365,0,365,0,1,,,,,
,,450698,001,2023-07-24_15h06.48.247,arm3_q,2022.2.5,Win32,30.03363767,60b64f8d9ae6d605e0da89e1,64aeaab685a29f4ca249be02,64bec99d9b6de7c503f75bae,up,1,0.4357,0.35,19,0,0.8194,,,,,,366,0,366,0,1,,,,,
,,450698,001,2023-07-24_15h06.48.247,arm3_q,2022.2.5,Win32,30.03363767,60b64f8d9ae6d605e0da89e1,64aeaab685a29f4ca249be02,64bec99d9b6de7c503f75bae,up,-1,0.4357,0.35,20,0,0.5839,,,,,,367,0,367,0,1,,,,,
,,450698,001,2023-07-24_15h06.48.247,arm3_q,2022.2.5,Win32,30.03363767,60b64f8d9ae6d605e0da89e1,64aeaab685a29f4ca249be02,64bec99d9b6de7c503f75bae,up,1,0.4357,0.35,19,0,0.8128,,,,,,368,0,368,0,1,,,,,
,,450698,001,2023-07-24_15h06.48.247,arm3_q,2022.2.5,Win32,30.03363767,60b64f8d9ae6d605e0da89e1,64aeaab685a29f4ca249be02,64bec99d9b6de7c503f75bae,up,1,0.4357,0.35,19,0,0.6032,,,,,,369,0,369,0,1,,,,,
,,450698,001,2023-07-24_15h06.48.247,arm3_q,2022.2.5,Win32,30.03363767,60b64f8d9ae6d605e0da89e1,64aeaab685a29f4ca249be02,64bec99d9b6de7c503f75bae,,,,,,,,,,,,,,,,,,0,0,0,0,1
space,7.5261,450698,001,2023-07-24_15h06.48.247,arm3_q,2022.2.5,Win32,30.03363767,60b64f8d9ae6d605e0da89e1,64aeaab685a29f4ca249be02,64bec99d9b6de7c503f75bae,up,1,0.8214,0.35,19,0,3.0943,,,,,,0,0,0,0,1,,,,,
,,450698,001,2023-07-24_15h06.48.247,arm3_q,2022.2.5,Win32,30.03363767,60b64f8d9ae6d605e0da89e1,64aeaab685a29f4ca249be02,64bec99d9b6de7c503f75bae,up,1,0.8214,0.35,20,0,0.8244,,,,,,1,0,1,0,1,,,,,
,,450698,001,2023-07-24_15h06.48.247,arm3_q,2022.2.5,Win32,30.03363767,60b64f8d9ae6d605e0da89e1,64aeaab685a29f4ca249be02,64bec99d9b6de7c503f75bae,up,-1,0.8214,0.35,21,0,0.1389,,,,,,2,0,2,0,1,,,,,
,,450698,001,2023-07-24_15h06.48.247,arm3_q,2022.2.5,Win32,30.03363767,60b64f8d9ae6d605e0da89e1,64aeaab685a29f4ca249be02,64bec99d9b6de7c503f75bae,up,1,0.8214,0.35,20,0,0.1351,,,,,,3,0,3,0,1,,,,,
,,450698,001,2023-07-24_15h06.48.247,arm3_q,2022.2.5,Win32,30.03363767,60b64f8d9ae6d605e0da89e1,64aeaab685a29f4ca249be02,64bec99d9b6de7c503f75bae,up,1,0.8214,0.35,21,0,0.314,,,,,,4,0,4,0,1,,,,,
,,450698,001,2023-07-24_15h06.48.247,arm3_q,2022.2.5,Win32,30.03363767,60b64f8d9ae6d605e0da89e1,64aeaab685a29f4ca249be02,64bec99d9b6de7c503f75bae,up,1,0.8214,0.35,22,0,0.7754,,,,,,5,0,5,0,1,,,,,
,,450698,001,2023-07-24_15h06.48.247,arm3_q,2022.2.5,Win32,30.03363767,60b64f8d9ae6d605e0da89e1,64aeaab685a29f4ca249be02,64bec99d9b6de7c503f75bae,up,1,0.8214,0.35,23,0,0.6964,,,,,,6,0,6,0,1,,,,,
,,450698,001,2023-07-24_15h06.48.247,arm3_q,2022.2.5,Win32,30.03363767,60b64f8d9ae6d605e0da89e1,64aeaab685a29f4ca249be02,64bec99d9b6de7c503f75bae,up,-1,0.8214,0.35,24,0,0.6654,,,,,,7,0,7,0,1,,,,,
,,450698,001,2023-07-24_15h06.48.247,arm3_q,2022.2.5,Win32,30.03363767,60b64f8d9ae6d605e0da89e1,64aeaab685a29f4ca249be02,64bec99d9b6de7c503f75bae,up,-1,0.8214,0.35,23,0,0.6385,,,,,,8,0,8,0,1,,,,,
,,450698,001,2023-07-24_15h06.48.247,arm3_q,2022.2.5,Win32,30.03363767,60b64f8d9ae6d605e0da89e1,64aeaab685a29f4ca249be02,64bec99d9b6de7c503f75bae,up,-1,0.8214,0.35,22,0,0.6759,,,,,,9,0,9,0,1,,,,,
,,450698,001,2023-07-24_15h06.48.247,arm3_q,2022.2.5,Win32,30.03363767,60b64f8d9ae6d605e0da89e1,64aeaab685a29f4ca249be02,64bec99d9b6de7c503f75bae,up,-1,0.8214,0.35,21,0,1.1365,,,,,,10,0,10,0,1,,,,,
,,450698,001,2023-07-24_15h06.48.247,arm3_q,2022.2.5,Win32,30.03363767,60b64f8d9ae6d605e0da89e1,64aeaab685a29f4ca249be02,64bec99d9b6de7c503f75bae,up,1,0.8214,0.35,20,0,0.224,,,,,,11,0,11,0,1,,,,,
,,450698,001,2023-07-24_15h06.48.247,arm3_q,2022.2.5,Win32,30.03363767,60b64f8d9ae6d605e0da89e1,64aeaab685a29f4ca249be02,64bec99d9b6de7c503f75bae,up,1,0.8214,0.35,21,0,33.8591,,,,,,12,0,12,0,1,,,,,
,,450698,001,2023-07-24_15h06.48.247,arm3_q,2022.2.5,Win32,30.03363767,60b64f8d9ae6d605e0da89e1,64aeaab685a29f4ca249be02,64bec99d9b6de7c503f75bae,up,1,0.8214,0.35,22,0,0.2611,,,,,,13,0,13,0,1,,,,,
,,450698,001,2023-07-24_15h06.48.247,arm3_q,2022.2.5,Win32,30.03363767,60b64f8d9ae6d605e0da89e1,64aeaab685a29f4ca249be02,64bec99d9b6de7c503f75bae,up,1,0.8214,0.35,22,0,1.0814,,,,,,14,0,14,0,1,,,,,
,,450698,001,2023-07-24_15h06.48.247,arm3_q,2022.2.5,Win32,30.03363767,60b64f8d9ae6d605e0da89e1,64aeaab685a29f4ca249be02,64bec99d9b6de7c503f75bae,up,1,0.8214,0.35,23,0,1.7621,,,,,,15,0,15,0,1,,,,,
,,450698,001,2023-07-24_15h06.48.247,arm3_q,2022.2.5,Win32,30.03363767,60b64f8d9ae6d605e0da89e1,64aeaab685a29f4ca249be02,64bec99d9b6de7c503f75bae,up,1,0.8214,0.35,24,0,0.9119,,,,,,16,0,16,0,1,,,,,
,,450698,001,2023-07-24_15h06.48.247,arm3_q,2022.2.5,Win32,30.03363767,60b64f8d9ae6d605e0da89e1,64aeaab685a29f4ca249be02,64bec99d9b6de7c503f75bae,up,1,0.8214,0.35,25,0,1.1209,,,,,,17,0,17,0,1,,,,,
,,450698,001,2023-07-24_15h06.48.247,arm3_q,2022.2.5,Win32,30.03363767,60b64f8d9ae6d605e0da89e1,64aeaab685a29f4ca249be02,64bec99d9b6de7c503f75bae,up,1,0.8214,0.35,25,0,0.0047,,,,,,18,0,18,0,1,,,,,
,,450698,001,2023-07-24_15h06.48.247,arm3_q,2022.2.5,Win32,30.03363767,60b64f8d9ae6d605e0da89e1,64aeaab685a29f4ca249be02,64bec99d9b6de7c503f75bae,up,-1,0.8214,0.35,26,0,0.768,,,,,,19,0,19,0,1,,,,,
,,450698,001,2023-07-24_15h06.48.247,arm3_q,2022.2.5,Win32,30.03363767,60b64f8d9ae6d605e0da89e1,64aeaab685a29f4ca249be02,64bec99d9b6de7c503f75bae,up,-1,0.8214,0.35,25,0,0.9067,,,,,,20,0,20,0,1,,,,,
,,450698,001,2023-07-24_15h06.48.247,arm3_q,2022.2.5,Win32,30.03363767,60b64f8d9ae6d605e0da89e1,64aeaab685a29f4ca249be02,64bec99d9b6de7c503f75bae,up,-1,0.8214,0.35,24,0,0.7878,,,,,,21,0,21,0,1,,,,,
,,450698,001,2023-07-24_15h06.48.247,arm3_q,2022.2.5,Win32,30.03363767,60b64f8d9ae6d605e0da89e1,64aeaab685a29f4ca249be02,64bec99d9b6de7c503f75bae,up,-1,0.8214,0.35,23,0,0.7365,,,,,,22,0,22,0,1,,,,,
,,450698,001,2023-07-24_15h06.48.247,arm3_q,2022.2.5,Win32,30.03363767,60b64f8d9ae6d605e0da89e1,64aeaab685a29f4ca249be02,64bec99d9b6de7c503f75bae,up,-1,0.8214,0.35,22,0,2.4525,,,,,,23,0,23,0,1,,,,,
,,450698,001,2023-07-24_15h06.48.247,arm3_q,2022.2.5,Win32,30.03363767,60b64f8d9ae6d605e0da89e1,64aeaab685a29f4ca249be02,64bec99d9b6de7c503f75bae,up,-1,0.8214,0.35,21,0,1.3578,,,,,,24,0,24,0,1,,,,,
,,450698,001,2023-07-24_15h06.48.247,arm3_q,2022.2.5,Win32,30.03363767,60b64f8d9ae6d605e0da89e1,64aeaab685a29f4ca249be02,64bec99d9b6de7c503f75bae,up,-1,0.8214,0.35,21,0,1.1896,,,,,,25,0,25,0,1,,,,,
,,450698,001,2023-07-24_15h06.48.247,arm3_q,2022.2.5,Win32,30.03363767,60b64f8d9ae6d605e0da89e1,64aeaab685a29f4ca249be02,64bec99d9b6de7c503f75bae,up,-1,0.8214,0.35,20,0,0.7795,,,,,,26,0,26,0,1,,,,,
,,450698,001,2023-07-24_15h06.48.247,arm3_q,2022.2.5,Win32,30.03363767,60b64f8d9ae6d605e0da89e1,64aeaab685a29f4ca249be02,64bec99d9b6de7c503f75bae,up,1,0.8214,0.35,19,0,0.9583,,,,,,27,0,27,0,1,,,,,
,,450698,001,2023-07-24_15h06.48.247,arm3_q,2022.2.5,Win32,30.03363767,60b64f8d9ae6d605e0da89e1,64aeaab685a29f4ca249be02,64bec99d9b6de7c503f75bae,up,1,0.8214,0.35,20,0,1.0801,,,,,,28,0,28,0,1,,,,,
,,450698,001,2023-07-24_15h06.48.247,arm3_q,2022.2.5,Win32,30.03363767,60b64f8d9ae6d605e0da89e1,64aeaab685a29f4ca249be02,64bec99d9b6de7c503f75bae,up,1,0.8214,0.35,21,0,0.8676,,,,,,29,0,29,0,1,,,,,
,,450698,001,2023-07-24_15h06.48.247,arm3_q,2022.2.5,Win32,30.03363767,60b64f8d9ae6d605e0da89e1,64aeaab685a29f4ca249be02,64bec99d9b6de7c503f75bae,up,-1,0.8214,0.35,22,0,0.951,,,,,,30,0,30,0,1,,,,,
,,450698,001,2023-07-24_15h06.48.247,arm3_q,2022.2.5,Win32,30.03363767,60b64f8d9ae6d605e0da89e1,64aeaab685a29f4ca249be02,64bec99d9b6de7c503f75bae,up,1,0.8214,0.35,21,0,0.9388,,,,,,31,0,31,0,1,,,,,
,,450698,001,2023-07-24_15h06.48.247,arm3_q,2022.2.5,Win32,30.03363767,60b64f8d9ae6d605e0da89e1,64aeaab685a29f4ca249be02,64bec99d9b6de7c503f75bae,up,1,0.8214,0.35,22,0,1.0952,,,,,,32,0,32,0,1,,,,,
,,450698,001,2023-07-24_15h06.48.247,arm3_q,2022.2.5,Win32,30.03363767,60b64f8d9ae6d605e0da89e1,64aeaab685a29f4ca249be02,64bec99d9b6de7c503f75bae,up,1,0.8214,0.35,23,0,1.4608,,,,,,33,0,33,0,1,,,,,
,,450698,001,2023-07-24_15h06.48.247,arm3_q,2022.2.5,Win32,30.03363767,60b64f8d9ae6d605e0da89e1,64aeaab685a29f4ca249be02,64bec99d9b6de7c503f75bae,up,1,0.8214,0.35,24,0,1.3169,,,,,,34,0,34,0,1,,,,,
,,450698,001,2023-07-24_15h06.48.247,arm3_q,2022.2.5,Win32,30.03363767,60b64f8d9ae6d605e0da89e1,64aeaab685a29f4ca249be02,64bec99d9b6de7c503f75bae,up,1,0.8214,0.35,25,0,1.2014,,,,,,35,0,35,0,1,,,,,
,,450698,001,2023-07-24_15h06.48.247,arm3_q,2022.2.5,Win32,30.03363767,60b64f8d9ae6d605e0da89e1,64aeaab685a29f4ca249be02,64bec99d9b6de7c503f75bae,up,1,0.8214,0.35,25,0,1.0883,,,,,,36,0,36,0,1,,,,,
,,450698,001,2023-07-24_15h06.48.247,arm3_q,2022.2.5,Win32,30.03363767,60b64f8d9ae6d605e0da89e1,64aeaab685a29f4ca249be02,64bec99d9b6de7c503f75bae,up,-1,0.8214,0.35,26,0,1.0556,,,,,,37,0,37,0,1,,,,,
,,450698,001,2023-07-24_15h06.48.247,arm3_q,2022.2.5,Win32,30.03363767,60b64f8d9ae6d605e0da89e1,64aeaab685a29f4ca249be02,64bec99d9b6de7c503f75bae,up,1,0.8214,0.35,25,0,1.2044,,,,,,38,0,38,0,1,,,,,
,,450698,001,2023-07-24_15h06.48.247,arm3_q,2022.2.5,Win32,30.03363767,60b64f8d9ae6d605e0da89e1,64aeaab685a29f4ca249be02,64bec99d9b6de7c503f75bae,up,-1,0.8214,0.35,26,0,0.916,,,,,,39,0,39,0,1,,,,,
,,450698,001,2023-07-24_15h06.48.247,arm3_q,2022.2.5,Win32,30.03363767,60b64f8d9ae6d605e0da89e1,64aeaab685a29f4ca249be02,64bec99d9b6de7c503f75bae,up,-1,0.8214,0.35,25,0,1.0599,,,,,,40,0,40,0,1,,,,,
,,450698,001,2023-07-24_15h06.48.247,arm3_q,2022.2.5,Win32,30.03363767,60b64f8d9ae6d605e0da89e1,64aeaab685a29f4ca249be02,64bec99d9b6de7c503f75bae,up,-1,0.8214,0.35,25,0,0.8426,,,,,,41,0,41,0,1,,,,,
,,450698,001,2023-07-24_15h06.48.247,arm3_q,2022.2.5,Win32,30.03363767,60b64f8d9ae6d605e0da89e1,64aeaab685a29f4ca249be02,64bec99d9b6de7c503f75bae,up,-1,0.8214,0.35,24,0,1.361,,,,,,42,0,42,0,1,,,,,
,,450698,001,2023-07-24_15h06.48.247,arm3_q,2022.2.5,Win32,30.03363767,60b64f8d9ae6d605e0da89e1,64aeaab685a29f4ca249be02,64bec99d9b6de7c503f75bae,up,1,0.8214,0.35,23,0,0.8696,,,,,,43,0,43,0,1,,,,,
,,450698,001,2023-07-24_15h06.48.247,arm3_q,2022.2.5,Win32,30.03363767,60b64f8d9ae6d605e0da89e1,64aeaab685a29f4ca249be02,64bec99d9b6de7c503f75bae,up,1,0.8214,0.35,23,0,0.8385,,,,,,44,0,44,0,1,,,,,
,,450698,001,2023-07-24_15h06.48.247,arm3_q,2022.2.5,Win32,30.03363767,60b64f8d9ae6d605e0da89e1,64aeaab685a29f4ca249be02,64bec99d9b6de7c503f75bae,up,1,0.8214,0.35,24,0,0.8187,,,,,,45,0,45,0,1,,,,,
,,450698,001,2023-07-24_15h06.48.247,arm3_q,2022.2.5,Win32,30.03363767,60b64f8d9ae6d605e0da89e1,64aeaab685a29f4ca249be02,64bec99d9b6de7c503f75bae,up,-1,0.8214,0.35,24,0,1.0085,,,,,,46,0,46,0,1,,,,,
,,450698,001,2023-07-24_15h06.48.247,arm3_q,2022.2.5,Win32,30.03363767,60b64f8d9ae6d605e0da89e1,64aeaab685a29f4ca249be02,64bec99d9b6de7c503f75bae,up,-1,0.8214,0.35,23,0,0.7837,,,,,,47,0,47,0,1,,,,,
,,450698,001,2023-07-24_15h06.48.247,arm3_q,2022.2.5,Win32,30.03363767,60b64f8d9ae6d605e0da89e1,64aeaab685a29f4ca249be02,64bec99d9b6de7c503f75bae,up,-1,0.8214,0.35,22,0,0.9015,,,,,,48,0,48,0,1,,,,,
,,450698,001,2023-07-24_15h06.48.247,arm3_q,2022.2.5,Win32,30.03363767,60b64f8d9ae6d605e0da89e1,64aeaab685a29f4ca249be02,64bec99d9b6de7c503f75bae,up,-1,0.8214,0.35,21,0,0.9476,,,,,,49,0,49,0,1,,,,,
,,450698,001,2023-07-24_15h06.48.247,arm3_q,2022.2.5,Win32,30.03363767,60b64f8d9ae6d605e0da89e1,64aeaab685a29f4ca249be02,64bec99d9b6de7c503f75bae,up,-1,0.8214,0.35,20,0,0.6747,,,,,,50,0,50,0,1,,,,,
,,450698,001,2023-07-24_15h06.48.247,arm3_q,2022.2.5,Win32,30.03363767,60b64f8d9ae6d605e0da89e1,64aeaab685a29f4ca249be02,64bec99d9b6de7c503f75bae,up,1,0.8214,0.35,19,0,0.7779,,,,,,51,0,51,0,1,,,,,
,,450698,001,2023-07-24_15h06.48.247,arm3_q,2022.2.5,Win32,30.03363767,60b64f8d9ae6d605e0da89e1,64aeaab685a29f4ca249be02,64bec99d9b6de7c503f75bae,up,-1,0.8214,0.35,20,0,0.8551,,,,,,52,0,52,0,1,,,,,
,,450698,001,2023-07-24_15h06.48.247,arm3_q,2022.2.5,Win32,30.03363767,60b64f8d9ae6d605e0da89e1,64aeaab685a29f4ca249be02,64bec99d9b6de7c503f75bae,up,-1,0.8214,0.35,19,0,0.8199,,,,,,53,0,53,0,1,,,,,
,,450698,001,2023-07-24_15h06.48.247,arm3_q,2022.2.5,Win32,30.03363767,60b64f8d9ae6d605e0da89e1,64aeaab685a29f4ca249be02,64bec99d9b6de7c503f75bae,up,-1,0.8214,0.35,18,0,0.7998,,,,,,54,0,54,0,1,,,,,
,,450698,001,2023-07-24_15h06.48.247,arm3_q,2022.2.5,Win32,30.03363767,60b64f8d9ae6d605e0da89e1,64aeaab685a29f4ca249be02,64bec99d9b6de7c503f75bae,up,1,0.8214,0.35,17,0,1.4656,,,,,,55,0,55,0,1,,,,,
,,450698,001,2023-07-24_15h06.48.247,arm3_q,2022.2.5,Win32,30.03363767,60b64f8d9ae6d605e0da89e1,64aeaab685a29f4ca249be02,64bec99d9b6de7c503f75bae,up,-1,0.8214,0.35,18,0,0.8606,,,,,,56,0,56,0,1,,,,,
,,450698,001,2023-07-24_15h06.48.247,arm3_q,2022.2.5,Win32,30.03363767,60b64f8d9ae6d605e0da89e1,64aeaab685a29f4ca249be02,64bec99d9b6de7c503f75bae,up,-1,0.8214,0.35,17,0,1.1714,,,,,,57,0,57,0,1,,,,,
,,450698,001,2023-07-24_15h06.48.247,arm3_q,2022.2.5,Win32,30.03363767,60b64f8d9ae6d605e0da89e1,64aeaab685a29f4ca249be02,64bec99d9b6de7c503f75bae,up,1,0.8214,0.35,16,0,1.4258,,,,,,58,0,58,0,1,,,,,
,,450698,001,2023-07-24_15h06.48.247,arm3_q,2022.2.5,Win32,30.03363767,60b64f8d9ae6d605e0da89e1,64aeaab685a29f4ca249be02,64bec99d9b6de7c503f75bae,up,-1,0.8214,0.35,17,0,1.1726,,,,,,59,0,59,0,1,,,,,
,,450698,001,2023-07-24_15h06.48.247,arm3_q,2022.2.5,Win32,30.03363767,60b64f8d9ae6d605e0da89e1,64aeaab685a29f4ca249be02,64bec99d9b6de7c503f75bae,up,1,0.8214,0.35,16,0,2.4826,,,,,,60,0,60,0,1,,,,,
,,450698,001,2023-07-24_15h06.48.247,arm3_q,2022.2.5,Win32,30.03363767,60b64f8d9ae6d605e0da89e1,64aeaab685a29f4ca249be02,64bec99d9b6de7c503f75bae,up,1,0.8214,0.35,17,0,0.9661,,,,,,61,0,61,0,1,,,,,
,,450698,001,2023-07-24_15h06.48.247,arm3_q,2022.2.5,Win32,30.03363767,60b64f8d9ae6d605e0da89e1,64aeaab685a29f4ca249be02,64bec99d9b6de7c503f75bae,up,-1,0.8214,0.35,18,0,1.1908,,,,,,62,0,62,0,1,,,,,
,,450698,001,2023-07-24_15h06.48.247,arm3_q,2022.2.5,Win32,30.03363767,60b64f8d9ae6d605e0da89e1,64aeaab685a29f4ca249be02,64bec99d9b6de7c503f75bae,up,1,0.8214,0.35,18,0,0.8159,,,,,,63,0,63,0,1,,,,,
,,450698,001,2023-07-24_15h06.48.247,arm3_q,2022.2.5,Win32,30.03363767,60b64f8d9ae6d605e0da89e1,64aeaab685a29f4ca249be02,64bec99d9b6de7c503f75bae,up,-1,0.8214,0.35,19,0,0.6159,,,,,,64,0,64,0,1,,,,,
,,450698,001,2023-07-24_15h06.48.247,arm3_q,2022.2.5,Win32,30.03363767,60b64f8d9ae6d605e0da89e1,64aeaab685a29f4ca249be02,64bec99d9b6de7c503f75bae,up,-1,0.8214,0.35,18,0,0.6427,,,,,,65,0,65,0,1,,,,,
,,450698,001,2023-07-24_15h06.48.247,arm3_q,2022.2.5,Win32,30.03363767,60b64f8d9ae6d605e0da89e1,64aeaab685a29f4ca249be02,64bec99d9b6de7c503f75bae,up,-1,0.8214,0.35,17,0,0.6816,,,,,,66,0,66,0,1,,,,,
,,450698,001,2023-07-24_15h06.48.247,arm3_q,2022.2.5,Win32,30.03363767,60b64f8d9ae6d605e0da89e1,64aeaab685a29f4ca249be02,64bec99d9b6de7c503f75bae,up,-1,0.8214,0.35,16,0,0.6195,,,,,,67,0,67,0,1,,,,,
,,450698,001,2023-07-24_15h06.48.247,arm3_q,2022.2.5,Win32,30.03363767,60b64f8d9ae6d605e0da89e1,64aeaab685a29f4ca249be02,64bec99d9b6de7c503f75bae,up,-1,0.8214,0.35,15,0,0.7063,,,,,,68,0,68,0,1,,,,,
