space_bar.keys,space_bar.rt,participant,session,date,expName,psychopyVersion,OS,frameRate,PROLIFIC_PID,STUDY_ID,SESSION_ID,resp.keys,state,q_prob,eps_prob,score,price,resp.rt,train.thisRepN,train.thisTrialN,train.thisN,train.thisIndex,train.ran,steps.thisRepN,steps.thisTrialN,steps.thisN,steps.thisIndex,steps.ran,blocks.thisRepN,blocks.thisTrialN,blocks.thisN,blocks.thisIndex,blocks.ran
space,4.6676,506522,001,2023-07-24_20h58.46.516,arm3_q,2022.2.5,Win32,61.10601894,6165adc8da33afc997acf508,64aeaab685a29f4ca249be02,64bec9c4f1188297851b60c0,,,,,,,,,,,,,,,,,,,,,,
space,17.0725,506522,001,2023-07-24_20h58.46.516,arm3_q,2022.2.5,Win32,61.10601894,6165adc8da33afc997acf508,64aeaab685a29f4ca249be02,64bec9c4f1188297851b60c0,,,,,,,,,,,,,,,,,,,,,,
space,17.9797,506522,001,2023-07-24_20h58.46.516,arm3_q,2022.2.5,Win32,61.10601894,6165adc8da33afc997acf508,64aeaab685a29f4ca249be02,64bec9c4f1188297851b60c0,,,,,,,,,,,,,,,,,,,,,,
space,21.9656,506522,001,2023-07-24_20h58.46.516,arm3_q,2022.2.5,Win32,61.10601894,6165adc8da33afc997acf508,64aeaab685a29f4ca249be02,64bec9c4f1188297851b60c0,,,,,,,,,,,,,,,,,,,,,,
space,29.7804,506522,001,2023-07-24_20h58.46.516,arm3_q,2022.2.5,Win32,61.10601894,6165adc8da33afc997acf508,64aeaab685a29f4ca249be02,64bec9c4f1188297851b60c0,,,,,,,,,,,,,,,,,,,,,,
space,25.3069,506522,001,2023-07-24_20h58.46.516,arm3_q,2022.2.5,Win32,61.10601894,6165adc8da33afc997acf508,64aeaab685a29f4ca249be02,64bec9c4f1188297851b60c0,,,,,,,,,,,,,,,,,,,,,,
space,16.2337,506522,001,2023-07-24_20h58.46.516,arm3_q,2022.2.5,Win32,61.10601894,6165adc8da33afc997acf508,64aeaab685a29f4ca249be02,64bec9c4f1188297851b60c0,,,,,,,,,,,,,,,,,,,,,,
space,18.0171,506522,001,2023-07-24_20h58.46.516,arm3_q,2022.2.5,Win32,61.10601894,6165adc8da33afc997acf508,64aeaab685a29f4ca249be02,64bec9c4f1188297851b60c0,,,,,,,,,,,,,,,,,,,,,,
space,14.676,506522,001,2023-07-24_20h58.46.516,arm3_q,2022.2.5,Win32,61.10601894,6165adc8da33afc997acf508,64aeaab685a29f4ca249be02,64bec9c4f1188297851b60c0,,,,,,,,,,,,,,,,,,,,,,
space,11.4181,506522,001,2023-07-24_20h58.46.516,arm3_q,2022.2.5,Win32,61.10601894,6165adc8da33afc997acf508,64aeaab685a29f4ca249be02,64bec9c4f1188297851b60c0,,,,,,,,,,,,,,,,,,,,,,
,,506522,001,2023-07-24_20h58.46.516,arm3_q,2022.2.5,Win32,61.10601894,6165adc8da33afc997acf508,64aeaab685a29f4ca249be02,64bec9c4f1188297851b60c0,up,-1,0.5643,0.35,0,0,6.6949,0,0,0,0,1,,,,,,,,,,
,,506522,001,2023-07-24_20h58.46.516,arm3_q,2022.2.5,Win32,61.10601894,6165adc8da33afc997acf508,64aeaab685a29f4ca249be02,64bec9c4f1188297851b60c0,down,1,0.5643,0.35,0,0,8.0954,1,0,1,0,1,,,,,,,,,,
,,506522,001,2023-07-24_20h58.46.516,arm3_q,2022.2.5,Win32,61.10601894,6165adc8da33afc997acf508,64aeaab685a29f4ca249be02,64bec9c4f1188297851b60c0,up,1,0.5643,0.35,1,0,3.7927,2,0,2,0,1,,,,,,,,,,
,,506522,001,2023-07-24_20h58.46.516,arm3_q,2022.2.5,Win32,61.10601894,6165adc8da33afc997acf508,64aeaab685a29f4ca249be02,64bec9c4f1188297851b60c0,up,1,0.5643,0.35,2,0,2.6081,3,0,3,0,1,,,,,,,,,,
,,506522,001,2023-07-24_20h58.46.516,arm3_q,2022.2.5,Win32,61.10601894,6165adc8da33afc997acf508,64aeaab685a29f4ca249be02,64bec9c4f1188297851b60c0,up,1,0.5643,0.35,3,0,4.3403,4,0,4,0,1,,,,,,,,,,
,,506522,001,2023-07-24_20h58.46.516,arm3_q,2022.2.5,Win32,61.10601894,6165adc8da33afc997acf508,64aeaab685a29f4ca249be02,64bec9c4f1188297851b60c0,up,1,0.5643,0.35,3,0,2.4415,5,0,5,0,1,,,,,,,,,,
,,506522,001,2023-07-24_20h58.46.516,arm3_q,2022.2.5,Win32,61.10601894,6165adc8da33afc997acf508,64aeaab685a29f4ca249be02,64bec9c4f1188297851b60c0,up,1,0.5643,0.35,4,0,2.0503,6,0,6,0,1,,,,,,,,,,
,,506522,001,2023-07-24_20h58.46.516,arm3_q,2022.2.5,Win32,61.10601894,6165adc8da33afc997acf508,64aeaab685a29f4ca249be02,64bec9c4f1188297851b60c0,down,1,0.5643,0.35,3,0,1.543,7,0,7,0,1,,,,,,,,,,
,,506522,001,2023-07-24_20h58.46.516,arm3_q,2022.2.5,Win32,61.10601894,6165adc8da33afc997acf508,64aeaab685a29f4ca249be02,64bec9c4f1188297851b60c0,up,1,0.5643,0.35,3,0,1.5126,8,0,8,0,1,,,,,,,,,,
,,506522,001,2023-07-24_20h58.46.516,arm3_q,2022.2.5,Win32,61.10601894,6165adc8da33afc997acf508,64aeaab685a29f4ca249be02,64bec9c4f1188297851b60c0,up,1,0.5643,0.35,4,0,1.2594,9,0,9,0,1,,,,,,,,,,
,,506522,001,2023-07-24_20h58.46.516,arm3_q,2022.2.5,Win32,61.10601894,6165adc8da33afc997acf508,64aeaab685a29f4ca249be02,64bec9c4f1188297851b60c0,up,-1,0.5643,0.35,5,0,1.4941,10,0,10,0,1,,,,,,,,,,
,,506522,001,2023-07-24_20h58.46.516,arm3_q,2022.2.5,Win32,61.10601894,6165adc8da33afc997acf508,64aeaab685a29f4ca249be02,64bec9c4f1188297851b60c0,right,-1,0.5643,0.35,5,0.001771173,4.6345,11,0,11,0,1,,,,,,,,,,
,,506522,001,2023-07-24_20h58.46.516,arm3_q,2022.2.5,Win32,61.10601894,6165adc8da33afc997acf508,64aeaab685a29f4ca249be02,64bec9c4f1188297851b60c0,right,-1,0.5643,0.35,5,-0.018817028,4.0117,12,0,12,0,1,,,,,,,,,,
,,506522,001,2023-07-24_20h58.46.516,arm3_q,2022.2.5,Win32,61.10601894,6165adc8da33afc997acf508,64aeaab685a29f4ca249be02,64bec9c4f1188297851b60c0,up,1,0.5643,0.35,5,0,4.3536,13,0,13,0,1,,,,,,,,,,
,,506522,001,2023-07-24_20h58.46.516,arm3_q,2022.2.5,Win32,61.10601894,6165adc8da33afc997acf508,64aeaab685a29f4ca249be02,64bec9c4f1188297851b60c0,down,-1,0.5643,0.35,4,0,14.2204,14,0,14,0,1,,,,,,,,,,
,,506522,001,2023-07-24_20h58.46.516,arm3_q,2022.2.5,Win32,61.10601894,6165adc8da33afc997acf508,64aeaab685a29f4ca249be02,64bec9c4f1188297851b60c0,up,-1,0.5643,0.35,4,0,2.271,15,0,15,0,1,,,,,,,,,,
,,506522,001,2023-07-24_20h58.46.516,arm3_q,2022.2.5,Win32,61.10601894,6165adc8da33afc997acf508,64aeaab685a29f4ca249be02,64bec9c4f1188297851b60c0,down,-1,0.5643,0.35,5,0,3.5145,16,0,16,0,1,,,,,,,,,,
,,506522,001,2023-07-24_20h58.46.516,arm3_q,2022.2.5,Win32,61.10601894,6165adc8da33afc997acf508,64aeaab685a29f4ca249be02,64bec9c4f1188297851b60c0,down,-1,0.5643,0.35,6,0,2.1079,17,0,17,0,1,,,,,,,,,,
,,506522,001,2023-07-24_20h58.46.516,arm3_q,2022.2.5,Win32,61.10601894,6165adc8da33afc997acf508,64aeaab685a29f4ca249be02,64bec9c4f1188297851b60c0,right,-1,0.5643,0.35,6,-0.020613767,2.9258,18,0,18,0,1,,,,,,,,,,
,,506522,001,2023-07-24_20h58.46.516,arm3_q,2022.2.5,Win32,61.10601894,6165adc8da33afc997acf508,64aeaab685a29f4ca249be02,64bec9c4f1188297851b60c0,down,-1,0.5643,0.35,6,0,2.3392,19,0,19,0,1,,,,,,,,,,
,,506522,001,2023-07-24_20h58.46.516,arm3_q,2022.2.5,Win32,61.10601894,6165adc8da33afc997acf508,64aeaab685a29f4ca249be02,64bec9c4f1188297851b60c0,up,1,0.5643,0.35,5,0,4.3234,20,0,20,0,1,,,,,,,,,,
,,506522,001,2023-07-24_20h58.46.516,arm3_q,2022.2.5,Win32,61.10601894,6165adc8da33afc997acf508,64aeaab685a29f4ca249be02,64bec9c4f1188297851b60c0,down,1,0.5643,0.35,5,0,2.0924,21,0,21,0,1,,,,,,,,,,
,,506522,001,2023-07-24_20h58.46.516,arm3_q,2022.2.5,Win32,61.10601894,6165adc8da33afc997acf508,64aeaab685a29f4ca249be02,64bec9c4f1188297851b60c0,up,-1,0.5643,0.35,5,0,1.863,22,0,22,0,1,,,,,,,,,,
,,506522,001,2023-07-24_20h58.46.516,arm3_q,2022.2.5,Win32,61.10601894,6165adc8da33afc997acf508,64aeaab685a29f4ca249be02,64bec9c4f1188297851b60c0,down,-1,0.5643,0.35,5,0,2.4971,23,0,23,0,1,,,,,,,,,,
,,506522,001,2023-07-24_20h58.46.516,arm3_q,2022.2.5,Win32,61.10601894,6165adc8da33afc997acf508,64aeaab685a29f4ca249be02,64bec9c4f1188297851b60c0,up,-1,0.5643,0.35,4,0,3.5336,24,0,24,0,1,,,,,,,,,,
,,506522,001,2023-07-24_20h58.46.516,arm3_q,2022.2.5,Win32,61.10601894,6165adc8da33afc997acf508,64aeaab685a29f4ca249be02,64bec9c4f1188297851b60c0,up,1,0.5643,0.35,4,0,1.8683,25,0,25,0,1,,,,,,,,,,
,,506522,001,2023-07-24_20h58.46.516,arm3_q,2022.2.5,Win32,61.10601894,6165adc8da33afc997acf508,64aeaab685a29f4ca249be02,64bec9c4f1188297851b60c0,down,-1,0.5643,0.35,3,0,1.6843,26,0,26,0,1,,,,,,,,,,
,,506522,001,2023-07-24_20h58.46.516,arm3_q,2022.2.5,Win32,61.10601894,6165adc8da33afc997acf508,64aeaab685a29f4ca249be02,64bec9c4f1188297851b60c0,right,-1,0.5643,0.35,3,0.001423756,2.4956,27,0,27,0,1,,,,,,,,,,
,,506522,001,2023-07-24_20h58.46.516,arm3_q,2022.2.5,Win32,61.10601894,6165adc8da33afc997acf508,64aeaab685a29f4ca249be02,64bec9c4f1188297851b60c0,right,-1,0.5643,0.35,3,0.026497165,1.5756,28,0,28,0,1,,,,,,,,,,
,,506522,001,2023-07-24_20h58.46.516,arm3_q,2022.2.5,Win32,61.10601894,6165adc8da33afc997acf508,64aeaab685a29f4ca249be02,64bec9c4f1188297851b60c0,right,-1,0.5643,0.35,3,-0.001809118,0.7684,29,0,29,0,1,,,,,,,,,,
,,506522,001,2023-07-24_20h58.46.516,arm3_q,2022.2.5,Win32,61.10601894,6165adc8da33afc997acf508,64aeaab685a29f4ca249be02,64bec9c4f1188297851b60c0,right,-1,0.5643,0.35,3,-0.023613238,1.2486,30,0,30,0,1,,,,,,,,,,
,,506522,001,2023-07-24_20h58.46.516,arm3_q,2022.2.5,Win32,61.10601894,6165adc8da33afc997acf508,64aeaab685a29f4ca249be02,64bec9c4f1188297851b60c0,right,-1,0.5643,0.35,3,-0.027155275,0.7258,31,0,31,0,1,,,,,,,,,,
,,506522,001,2023-07-24_20h58.46.516,arm3_q,2022.2.5,Win32,61.10601894,6165adc8da33afc997acf508,64aeaab685a29f4ca249be02,64bec9c4f1188297851b60c0,down,-1,0.5643,0.35,4,0,1.65,32,0,32,0,1,,,,,,,,,,
,,506522,001,2023-07-24_20h58.46.516,arm3_q,2022.2.5,Win32,61.10601894,6165adc8da33afc997acf508,64aeaab685a29f4ca249be02,64bec9c4f1188297851b60c0,right,-1,0.5643,0.35,4,0.001055683,3.1456,33,0,33,0,1,,,,,,,,,,
,,506522,001,2023-07-24_20h58.46.516,arm3_q,2022.2.5,Win32,61.10601894,6165adc8da33afc997acf508,64aeaab685a29f4ca249be02,64bec9c4f1188297851b60c0,right,-1,0.5643,0.35,4,0.01400529,1.6874,34,0,34,0,1,,,,,,,,,,
,,506522,001,2023-07-24_20h58.46.516,arm3_q,2022.2.5,Win32,61.10601894,6165adc8da33afc997acf508,64aeaab685a29f4ca249be02,64bec9c4f1188297851b60c0,right,-1,0.5643,0.35,4,7.52781E-05,1.9295,35,0,35,0,1,,,,,,,,,,
,,506522,001,2023-07-24_20h58.46.516,arm3_q,2022.2.5,Win32,61.10601894,6165adc8da33afc997acf508,64aeaab685a29f4ca249be02,64bec9c4f1188297851b60c0,down,-1,0.5643,0.35,4,0,2.98,36,0,36,0,1,,,,,,,,,,
,,506522,001,2023-07-24_20h58.46.516,arm3_q,2022.2.5,Win32,61.10601894,6165adc8da33afc997acf508,64aeaab685a29f4ca249be02,64bec9c4f1188297851b60c0,down,-1,0.5643,0.35,4,0,3.5374,37,0,37,0,1,,,,,,,,,,
,,506522,001,2023-07-24_20h58.46.516,arm3_q,2022.2.5,Win32,61.10601894,6165adc8da33afc997acf508,64aeaab685a29f4ca249be02,64bec9c4f1188297851b60c0,up,1,0.5643,0.35,3,0,3.1421,38,0,38,0,1,,,,,,,,,,
,,506522,001,2023-07-24_20h58.46.516,arm3_q,2022.2.5,Win32,61.10601894,6165adc8da33afc997acf508,64aeaab685a29f4ca249be02,64bec9c4f1188297851b60c0,down,1,0.5643,0.35,3,0,2.2485,39,0,39,0,1,,,,,,,,,,
,,506522,001,2023-07-24_20h58.46.516,arm3_q,2022.2.5,Win32,61.10601894,6165adc8da33afc997acf508,64aeaab685a29f4ca249be02,64bec9c4f1188297851b60c0,right,1,0.5643,0.35,3,0.025634364,2.0782,40,0,40,0,1,,,,,,,,,,
,,506522,001,2023-07-24_20h58.46.516,arm3_q,2022.2.5,Win32,61.10601894,6165adc8da33afc997acf508,64aeaab685a29f4ca249be02,64bec9c4f1188297851b60c0,right,1,0.5643,0.35,3,0.034600197,1.5825,41,0,41,0,1,,,,,,,,,,
,,506522,001,2023-07-24_20h58.46.516,arm3_q,2022.2.5,Win32,61.10601894,6165adc8da33afc997acf508,64aeaab685a29f4ca249be02,64bec9c4f1188297851b60c0,up,1,0.5643,0.35,4,0,0.7846,42,0,42,0,1,,,,,,,,,,
,,506522,001,2023-07-24_20h58.46.516,arm3_q,2022.2.5,Win32,61.10601894,6165adc8da33afc997acf508,64aeaab685a29f4ca249be02,64bec9c4f1188297851b60c0,right,1,0.5643,0.35,4,0.030464104,1.7113,43,0,43,0,1,,,,,,,,,,
,,506522,001,2023-07-24_20h58.46.516,arm3_q,2022.2.5,Win32,61.10601894,6165adc8da33afc997acf508,64aeaab685a29f4ca249be02,64bec9c4f1188297851b60c0,right,1,0.5643,0.35,4,0.026368731,1.1506,44,0,44,0,1,,,,,,,,,,
,,506522,001,2023-07-24_20h58.46.516,arm3_q,2022.2.5,Win32,61.10601894,6165adc8da33afc997acf508,64aeaab685a29f4ca249be02,64bec9c4f1188297851b60c0,right,1,0.5643,0.35,4,0.047826104,0.8345,45,0,45,0,1,,,,,,,,,,
,,506522,001,2023-07-24_20h58.46.516,arm3_q,2022.2.5,Win32,61.10601894,6165adc8da33afc997acf508,64aeaab685a29f4ca249be02,64bec9c4f1188297851b60c0,up,1,0.5643,0.35,5,0,0.8181,46,0,46,0,1,,,,,,,,,,
,,506522,001,2023-07-24_20h58.46.516,arm3_q,2022.2.5,Win32,61.10601894,6165adc8da33afc997acf508,64aeaab685a29f4ca249be02,64bec9c4f1188297851b60c0,right,1,0.5643,0.35,5,-0.02667212,1.8304,47,0,47,0,1,,,,,,,,,,
,,506522,001,2023-07-24_20h58.46.516,arm3_q,2022.2.5,Win32,61.10601894,6165adc8da33afc997acf508,64aeaab685a29f4ca249be02,64bec9c4f1188297851b60c0,right,1,0.5643,0.35,5,-0.02215432,0.9,48,0,48,0,1,,,,,,,,,,
,,506522,001,2023-07-24_20h58.46.516,arm3_q,2022.2.5,Win32,61.10601894,6165adc8da33afc997acf508,64aeaab685a29f4ca249be02,64bec9c4f1188297851b60c0,right,1,0.5643,0.35,5,-0.050471556,0.6829,49,0,49,0,1,,,,,,,,,,
space,3.3647,506522,001,2023-07-24_20h58.46.516,arm3_q,2022.2.5,Win32,61.10601894,6165adc8da33afc997acf508,64aeaab685a29f4ca249be02,64bec9c4f1188297851b60c0,,,,,,,,,,,,,,,,,,,,,,
space,6.0895,506522,001,2023-07-24_20h58.46.516,arm3_q,2022.2.5,Win32,61.10601894,6165adc8da33afc997acf508,64aeaab685a29f4ca249be02,64bec9c4f1188297851b60c0,up,1,0.3071,0.35,1,0,7.7374,,,,,,0,0,0,0,1,,,,,
,,506522,001,2023-07-24_20h58.46.516,arm3_q,2022.2.5,Win32,61.10601894,6165adc8da33afc997acf508,64aeaab685a29f4ca249be02,64bec9c4f1188297851b60c0,down,-1,0.3071,0.35,1,0,4.092,,,,,,1,0,1,0,1,,,,,
,,506522,001,2023-07-24_20h58.46.516,arm3_q,2022.2.5,Win32,61.10601894,6165adc8da33afc997acf508,64aeaab685a29f4ca249be02,64bec9c4f1188297851b60c0,down,-1,0.3071,0.35,1,0,4.4942,,,,,,2,0,2,0,1,,,,,
,,506522,001,2023-07-24_20h58.46.516,arm3_q,2022.2.5,Win32,61.10601894,6165adc8da33afc997acf508,64aeaab685a29f4ca249be02,64bec9c4f1188297851b60c0,up,-1,0.3071,0.35,0,0,2.6132,,,,,,3,0,3,0,1,,,,,
,,506522,001,2023-07-24_20h58.46.516,arm3_q,2022.2.5,Win32,61.10601894,6165adc8da33afc997acf508,64aeaab685a29f4ca249be02,64bec9c4f1188297851b60c0,down,1,0.3071,0.35,1,0,1.8135,,,,,,4,0,4,0,1,,,,,
,,506522,001,2023-07-24_20h58.46.516,arm3_q,2022.2.5,Win32,61.10601894,6165adc8da33afc997acf508,64aeaab685a29f4ca249be02,64bec9c4f1188297851b60c0,down,1,0.3071,0.35,1,0,2.0301,,,,,,5,0,5,0,1,,,,,
,,506522,001,2023-07-24_20h58.46.516,arm3_q,2022.2.5,Win32,61.10601894,6165adc8da33afc997acf508,64aeaab685a29f4ca249be02,64bec9c4f1188297851b60c0,down,1,0.3071,0.35,0,0,2.1264,,,,,,6,0,6,0,1,,,,,
,,506522,001,2023-07-24_20h58.46.516,arm3_q,2022.2.5,Win32,61.10601894,6165adc8da33afc997acf508,64aeaab685a29f4ca249be02,64bec9c4f1188297851b60c0,down,1,0.3071,0.35,0,0,1.3295,,,,,,7,0,7,0,1,,,,,
,,506522,001,2023-07-24_20h58.46.516,arm3_q,2022.2.5,Win32,61.10601894,6165adc8da33afc997acf508,64aeaab685a29f4ca249be02,64bec9c4f1188297851b60c0,right,1,0.3071,0.35,0,0.009328711,1.6608,,,,,,8,0,8,0,1,,,,,
,,506522,001,2023-07-24_20h58.46.516,arm3_q,2022.2.5,Win32,61.10601894,6165adc8da33afc997acf508,64aeaab685a29f4ca249be02,64bec9c4f1188297851b60c0,right,1,0.3071,0.35,0,0.002619492,0.9074,,,,,,9,0,9,0,1,,,,,
,,506522,001,2023-07-24_20h58.46.516,arm3_q,2022.2.5,Win32,61.10601894,6165adc8da33afc997acf508,64aeaab685a29f4ca249be02,64bec9c4f1188297851b60c0,right,1,0.3071,0.35,0,0.006573182,0.6769,,,,,,10,0,10,0,1,,,,,
,,506522,001,2023-07-24_20h58.46.516,arm3_q,2022.2.5,Win32,61.10601894,6165adc8da33afc997acf508,64aeaab685a29f4ca249be02,64bec9c4f1188297851b60c0,right,1,0.3071,0.35,0,0.009658935,0.5815,,,,,,11,0,11,0,1,,,,,
,,506522,001,2023-07-24_20h58.46.516,arm3_q,2022.2.5,Win32,61.10601894,6165adc8da33afc997acf508,64aeaab685a29f4ca249be02,64bec9c4f1188297851b60c0,right,1,0.3071,0.35,0,0.034403983,0.9283,,,,,,12,0,12,0,1,,,,,
,,506522,001,2023-07-24_20h58.46.516,arm3_q,2022.2.5,Win32,61.10601894,6165adc8da33afc997acf508,64aeaab685a29f4ca249be02,64bec9c4f1188297851b60c0,right,1,0.3071,0.35,0,0.031252864,0.5765,,,,,,13,0,13,0,1,,,,,
,,506522,001,2023-07-24_20h58.46.516,arm3_q,2022.2.5,Win32,61.10601894,6165adc8da33afc997acf508,64aeaab685a29f4ca249be02,64bec9c4f1188297851b60c0,up,-1,0.3071,0.35,0,0,1.0768,,,,,,14,0,14,0,1,,,,,
,,506522,001,2023-07-24_20h58.46.516,arm3_q,2022.2.5,Win32,61.10601894,6165adc8da33afc997acf508,64aeaab685a29f4ca249be02,64bec9c4f1188297851b60c0,down,-1,0.3071,0.35,0,0,2.4615,,,,,,15,0,15,0,1,,,,,
,,506522,001,2023-07-24_20h58.46.516,arm3_q,2022.2.5,Win32,61.10601894,6165adc8da33afc997acf508,64aeaab685a29f4ca249be02,64bec9c4f1188297851b60c0,down,1,0.3071,0.35,0,0,2.0325,,,,,,16,0,16,0,1,,,,,
,,506522,001,2023-07-24_20h58.46.516,arm3_q,2022.2.5,Win32,61.10601894,6165adc8da33afc997acf508,64aeaab685a29f4ca249be02,64bec9c4f1188297851b60c0,up,-1,0.3071,0.35,0,0,1.8727,,,,,,17,0,17,0,1,,,,,
,,506522,001,2023-07-24_20h58.46.516,arm3_q,2022.2.5,Win32,61.10601894,6165adc8da33afc997acf508,64aeaab685a29f4ca249be02,64bec9c4f1188297851b60c0,up,-1,0.3071,0.35,0,0,2.3533,,,,,,18,0,18,0,1,,,,,
,,506522,001,2023-07-24_20h58.46.516,arm3_q,2022.2.5,Win32,61.10601894,6165adc8da33afc997acf508,64aeaab685a29f4ca249be02,64bec9c4f1188297851b60c0,down,1,0.3071,0.35,0,0,1.7081,,,,,,19,0,19,0,1,,,,,
,,506522,001,2023-07-24_20h58.46.516,arm3_q,2022.2.5,Win32,61.10601894,6165adc8da33afc997acf508,64aeaab685a29f4ca249be02,64bec9c4f1188297851b60c0,up,-1,0.3071,0.35,0,0,1.5694,,,,,,20,0,20,0,1,,,,,
,,506522,001,2023-07-24_20h58.46.516,arm3_q,2022.2.5,Win32,61.10601894,6165adc8da33afc997acf508,64aeaab685a29f4ca249be02,64bec9c4f1188297851b60c0,up,1,0.3071,0.35,0,0,1.7867,,,,,,21,0,21,0,1,,,,,
,,506522,001,2023-07-24_20h58.46.516,arm3_q,2022.2.5,Win32,61.10601894,6165adc8da33afc997acf508,64aeaab685a29f4ca249be02,64bec9c4f1188297851b60c0,up,1,0.3071,0.35,1,0,1.4047,,,,,,22,0,22,0,1,,,,,
,,506522,001,2023-07-24_20h58.46.516,arm3_q,2022.2.5,Win32,61.10601894,6165adc8da33afc997acf508,64aeaab685a29f4ca249be02,64bec9c4f1188297851b60c0,up,-1,0.3071,0.35,1,0,2.0694,,,,,,23,0,23,0,1,,,,,
,,506522,001,2023-07-24_20h58.46.516,arm3_q,2022.2.5,Win32,61.10601894,6165adc8da33afc997acf508,64aeaab685a29f4ca249be02,64bec9c4f1188297851b60c0,up,-1,0.3071,0.35,0,0,1.1794,,,,,,24,0,24,0,1,,,,,
,,506522,001,2023-07-24_20h58.46.516,arm3_q,2022.2.5,Win32,61.10601894,6165adc8da33afc997acf508,64aeaab685a29f4ca249be02,64bec9c4f1188297851b60c0,down,-1,0.3071,0.35,1,0,1.4134,,,,,,25,0,25,0,1,,,,,
,,506522,001,2023-07-24_20h58.46.516,arm3_q,2022.2.5,Win32,61.10601894,6165adc8da33afc997acf508,64aeaab685a29f4ca249be02,64bec9c4f1188297851b60c0,right,-1,0.3071,0.35,1,0.006582315,1.4174,,,,,,26,0,26,0,1,,,,,
,,506522,001,2023-07-24_20h58.46.516,arm3_q,2022.2.5,Win32,61.10601894,6165adc8da33afc997acf508,64aeaab685a29f4ca249be02,64bec9c4f1188297851b60c0,down,-1,0.3071,0.35,2,0,0.7112,,,,,,27,0,27,0,1,,,,,
,,506522,001,2023-07-24_20h58.46.516,arm3_q,2022.2.5,Win32,61.10601894,6165adc8da33afc997acf508,64aeaab685a29f4ca249be02,64bec9c4f1188297851b60c0,right,-1,0.3071,0.35,2,-0.046888098,1.5509,,,,,,28,0,28,0,1,,,,,
,,506522,001,2023-07-24_20h58.46.516,arm3_q,2022.2.5,Win32,61.10601894,6165adc8da33afc997acf508,64aeaab685a29f4ca249be02,64bec9c4f1188297851b60c0,right,-1,0.3071,0.35,2,-0.0504476,2.125,,,,,,29,0,29,0,1,,,,,
,,506522,001,2023-07-24_20h58.46.516,arm3_q,2022.2.5,Win32,61.10601894,6165adc8da33afc997acf508,64aeaab685a29f4ca249be02,64bec9c4f1188297851b60c0,right,-1,0.3071,0.35,2,-0.048878441,0.8201,,,,,,30,0,30,0,1,,,,,
,,506522,001,2023-07-24_20h58.46.516,arm3_q,2022.2.5,Win32,61.10601894,6165adc8da33afc997acf508,64aeaab685a29f4ca249be02,64bec9c4f1188297851b60c0,right,-1,0.3071,0.35,2,-0.066928833,1.0289,,,,,,31,0,31,0,1,,,,,
,,506522,001,2023-07-24_20h58.46.516,arm3_q,2022.2.5,Win32,61.10601894,6165adc8da33afc997acf508,64aeaab685a29f4ca249be02,64bec9c4f1188297851b60c0,down,-1,0.3071,0.35,2,0,0.7128,,,,,,32,0,32,0,1,,,,,
,,506522,001,2023-07-24_20h58.46.516,arm3_q,2022.2.5,Win32,61.10601894,6165adc8da33afc997acf508,64aeaab685a29f4ca249be02,64bec9c4f1188297851b60c0,up,-1,0.3071,0.35,1,0,3.4124,,,,,,33,0,33,0,1,,,,,
,,506522,001,2023-07-24_20h58.46.516,arm3_q,2022.2.5,Win32,61.10601894,6165adc8da33afc997acf508,64aeaab685a29f4ca249be02,64bec9c4f1188297851b60c0,down,-1,0.3071,0.35,2,0,1.1026,,,,,,34,0,34,0,1,,,,,
,,506522,001,2023-07-24_20h58.46.516,arm3_q,2022.2.5,Win32,61.10601894,6165adc8da33afc997acf508,64aeaab685a29f4ca249be02,64bec9c4f1188297851b60c0,down,1,0.3071,0.35,2,0,3.1737,,,,,,35,0,35,0,1,,,,,
,,506522,001,2023-07-24_20h58.46.516,arm3_q,2022.2.5,Win32,61.10601894,6165adc8da33afc997acf508,64aeaab685a29f4ca249be02,64bec9c4f1188297851b60c0,up,1,0.3071,0.35,2,0,2.0151,,,,,,36,0,36,0,1,,,,,
,,506522,001,2023-07-24_20h58.46.516,arm3_q,2022.2.5,Win32,61.10601894,6165adc8da33afc997acf508,64aeaab685a29f4ca249be02,64bec9c4f1188297851b60c0,up,-1,0.3071,0.35,2,0,2.8753,,,,,,37,0,37,0,1,,,,,
,,506522,001,2023-07-24_20h58.46.516,arm3_q,2022.2.5,Win32,61.10601894,6165adc8da33afc997acf508,64aeaab685a29f4ca249be02,64bec9c4f1188297851b60c0,up,-1,0.3071,0.35,2,0,2.0693,,,,,,38,0,38,0,1,,,,,
,,506522,001,2023-07-24_20h58.46.516,arm3_q,2022.2.5,Win32,61.10601894,6165adc8da33afc997acf508,64aeaab685a29f4ca249be02,64bec9c4f1188297851b60c0,down,-1,0.3071,0.35,2,0,1.7025,,,,,,39,0,39,0,1,,,,,
,,506522,001,2023-07-24_20h58.46.516,arm3_q,2022.2.5,Win32,61.10601894,6165adc8da33afc997acf508,64aeaab685a29f4ca249be02,64bec9c4f1188297851b60c0,up,-1,0.3071,0.35,2,0,3.8568,,,,,,40,0,40,0,1,,,,,
,,506522,001,2023-07-24_20h58.46.516,arm3_q,2022.2.5,Win32,61.10601894,6165adc8da33afc997acf508,64aeaab685a29f4ca249be02,64bec9c4f1188297851b60c0,right,-1,0.3071,0.35,2,-0.000205856,2.2426,,,,,,41,0,41,0,1,,,,,
,,506522,001,2023-07-24_20h58.46.516,arm3_q,2022.2.5,Win32,61.10601894,6165adc8da33afc997acf508,64aeaab685a29f4ca249be02,64bec9c4f1188297851b60c0,right,-1,0.3071,0.35,2,-0.038934663,2.3618,,,,,,42,0,42,0,1,,,,,
,,506522,001,2023-07-24_20h58.46.516,arm3_q,2022.2.5,Win32,61.10601894,6165adc8da33afc997acf508,64aeaab685a29f4ca249be02,64bec9c4f1188297851b60c0,right,-1,0.3071,0.35,2,-0.015573259,1.4433,,,,,,43,0,43,0,1,,,,,
,,506522,001,2023-07-24_20h58.46.516,arm3_q,2022.2.5,Win32,61.10601894,6165adc8da33afc997acf508,64aeaab685a29f4ca249be02,64bec9c4f1188297851b60c0,up,-1,0.3071,0.35,2,0,1.3289,,,,,,44,0,44,0,1,,,,,
,,506522,001,2023-07-24_20h58.46.516,arm3_q,2022.2.5,Win32,61.10601894,6165adc8da33afc997acf508,64aeaab685a29f4ca249be02,64bec9c4f1188297851b60c0,down,-1,0.3071,0.35,2,0,2.6488,,,,,,45,0,45,0,1,,,,,
,,506522,001,2023-07-24_20h58.46.516,arm3_q,2022.2.5,Win32,61.10601894,6165adc8da33afc997acf508,64aeaab685a29f4ca249be02,64bec9c4f1188297851b60c0,down,-1,0.3071,0.35,2,0,1.7753,,,,,,46,0,46,0,1,,,,,
,,506522,001,2023-07-24_20h58.46.516,arm3_q,2022.2.5,Win32,61.10601894,6165adc8da33afc997acf508,64aeaab685a29f4ca249be02,64bec9c4f1188297851b60c0,down,1,0.3071,0.35,2,0,2.0905,,,,,,47,0,47,0,1,,,,,
,,506522,001,2023-07-24_20h58.46.516,arm3_q,2022.2.5,Win32,61.10601894,6165adc8da33afc997acf508,64aeaab685a29f4ca249be02,64bec9c4f1188297851b60c0,down,-1,0.3071,0.35,2,0,1.5864,,,,,,48,0,48,0,1,,,,,
,,506522,001,2023-07-24_20h58.46.516,arm3_q,2022.2.5,Win32,61.10601894,6165adc8da33afc997acf508,64aeaab685a29f4ca249be02,64bec9c4f1188297851b60c0,up,1,0.3071,0.35,2,0,2.2288,,,,,,49,0,49,0,1,,,,,
,,506522,001,2023-07-24_20h58.46.516,arm3_q,2022.2.5,Win32,61.10601894,6165adc8da33afc997acf508,64aeaab685a29f4ca249be02,64bec9c4f1188297851b60c0,down,-1,0.3071,0.35,2,0,1.3351,,,,,,50,0,50,0,1,,,,,
,,506522,001,2023-07-24_20h58.46.516,arm3_q,2022.2.5,Win32,61.10601894,6165adc8da33afc997acf508,64aeaab685a29f4ca249be02,64bec9c4f1188297851b60c0,down,1,0.3071,0.35,3,0,2.8812,,,,,,51,0,51,0,1,,,,,
,,506522,001,2023-07-24_20h58.46.516,arm3_q,2022.2.5,Win32,61.10601894,6165adc8da33afc997acf508,64aeaab685a29f4ca249be02,64bec9c4f1188297851b60c0,up,-1,0.3071,0.35,4,0,9.4573,,,,,,52,0,52,0,1,,,,,
,,506522,001,2023-07-24_20h58.46.516,arm3_q,2022.2.5,Win32,61.10601894,6165adc8da33afc997acf508,64aeaab685a29f4ca249be02,64bec9c4f1188297851b60c0,up,-1,0.3071,0.35,4,0,2.3849,,,,,,53,0,53,0,1,,,,,
,,506522,001,2023-07-24_20h58.46.516,arm3_q,2022.2.5,Win32,61.10601894,6165adc8da33afc997acf508,64aeaab685a29f4ca249be02,64bec9c4f1188297851b60c0,down,1,0.3071,0.35,4,0,1.5588,,,,,,54,0,54,0,1,,,,,
,,506522,001,2023-07-24_20h58.46.516,arm3_q,2022.2.5,Win32,61.10601894,6165adc8da33afc997acf508,64aeaab685a29f4ca249be02,64bec9c4f1188297851b60c0,down,-1,0.3071,0.35,3,0,2.22,,,,,,55,0,55,0,1,,,,,
,,506522,001,2023-07-24_20h58.46.516,arm3_q,2022.2.5,Win32,61.10601894,6165adc8da33afc997acf508,64aeaab685a29f4ca249be02,64bec9c4f1188297851b60c0,up,1,0.3071,0.35,3,0,1.3244,,,,,,56,0,56,0,1,,,,,
,,506522,001,2023-07-24_20h58.46.516,arm3_q,2022.2.5,Win32,61.10601894,6165adc8da33afc997acf508,64aeaab685a29f4ca249be02,64bec9c4f1188297851b60c0,up,1,0.3071,0.35,3,0,0.8748,,,,,,57,0,57,0,1,,,,,
,,506522,001,2023-07-24_20h58.46.516,arm3_q,2022.2.5,Win32,61.10601894,6165adc8da33afc997acf508,64aeaab685a29f4ca249be02,64bec9c4f1188297851b60c0,up,1,0.3071,0.35,3,0,1.5158,,,,,,58,0,58,0,1,,,,,
,,506522,001,2023-07-24_20h58.46.516,arm3_q,2022.2.5,Win32,61.10601894,6165adc8da33afc997acf508,64aeaab685a29f4ca249be02,64bec9c4f1188297851b60c0,down,1,0.3071,0.35,2,0,1.8743,,,,,,59,0,59,0,1,,,,,
,,506522,001,2023-07-24_20h58.46.516,arm3_q,2022.2.5,Win32,61.10601894,6165adc8da33afc997acf508,64aeaab685a29f4ca249be02,64bec9c4f1188297851b60c0,up,1,0.3071,0.35,2,0,1.1698,,,,,,60,0,60,0,1,,,,,
,,506522,001,2023-07-24_20h58.46.516,arm3_q,2022.2.5,Win32,61.10601894,6165adc8da33afc997acf508,64aeaab685a29f4ca249be02,64bec9c4f1188297851b60c0,up,1,0.3071,0.35,2,0,1.9282,,,,,,61,0,61,0,1,,,,,
,,506522,001,2023-07-24_20h58.46.516,arm3_q,2022.2.5,Win32,61.10601894,6165adc8da33afc997acf508,64aeaab685a29f4ca249be02,64bec9c4f1188297851b60c0,up,1,0.3071,0.35,2,0,1.5889,,,,,,62,0,62,0,1,,,,,
,,506522,001,2023-07-24_20h58.46.516,arm3_q,2022.2.5,Win32,61.10601894,6165adc8da33afc997acf508,64aeaab685a29f4ca249be02,64bec9c4f1188297851b60c0,up,1,0.3071,0.35,2,0,1.8606,,,,,,63,0,63,0,1,,,,,
,,506522,001,2023-07-24_20h58.46.516,arm3_q,2022.2.5,Win32,61.10601894,6165adc8da33afc997acf508,64aeaab685a29f4ca249be02,64bec9c4f1188297851b60c0,up,1,0.3071,0.35,2,0,1.2918,,,,,,64,0,64,0,1,,,,,
,,506522,001,2023-07-24_20h58.46.516,arm3_q,2022.2.5,Win32,61.10601894,6165adc8da33afc997acf508,64aeaab685a29f4ca249be02,64bec9c4f1188297851b60c0,up,-1,0.3071,0.35,2,0,1.4411,,,,,,65,0,65,0,1,,,,,
,,506522,001,2023-07-24_20h58.46.516,arm3_q,2022.2.5,Win32,61.10601894,6165adc8da33afc997acf508,64aeaab685a29f4ca249be02,64bec9c4f1188297851b60c0,up,-1,0.3071,0.35,2,0,1.4202,,,,,,66,0,66,0,1,,,,,
,,506522,001,2023-07-24_20h58.46.516,arm3_q,2022.2.5,Win32,61.10601894,6165adc8da33afc997acf508,64aeaab685a29f4ca249be02,64bec9c4f1188297851b60c0,down,-1,0.3071,0.35,3,0,1.9281,,,,,,67,0,67,0,1,,,,,
,,506522,001,2023-07-24_20h58.46.516,arm3_q,2022.2.5,Win32,61.10601894,6165adc8da33afc997acf508,64aeaab685a29f4ca249be02,64bec9c4f1188297851b60c0,down,1,0.3071,0.35,3,0,1.57,,,,,,68,0,68,0,1,,,,,
,,506522,001,2023-07-24_20h58.46.516,arm3_q,2022.2.5,Win32,61.10601894,6165adc8da33afc997acf508,64aeaab685a29f4ca249be02,64bec9c4f1188297851b60c0,down,-1,0.3071,0.35,3,0,1.84,,,,,,69,0,69,0,1,,,,,
,,506522,001,2023-07-24_20h58.46.516,arm3_q,2022.2.5,Win32,61.10601894,6165adc8da33afc997acf508,64aeaab685a29f4ca249be02,64bec9c4f1188297851b60c0,down,-1,0.3071,0.35,3,0,1.1071,,,,,,70,0,70,0,1,,,,,
,,506522,001,2023-07-24_20h58.46.516,arm3_q,2022.2.5,Win32,61.10601894,6165adc8da33afc997acf508,64aeaab685a29f4ca249be02,64bec9c4f1188297851b60c0,down,-1,0.3071,0.35,3,0,1.0083,,,,,,71,0,71,0,1,,,,,
,,506522,001,2023-07-24_20h58.46.516,arm3_q,2022.2.5,Win32,61.10601894,6165adc8da33afc997acf508,64aeaab685a29f4ca249be02,64bec9c4f1188297851b60c0,down,-1,0.3071,0.35,3,0,1.3589,,,,,,72,0,72,0,1,,,,,
,,506522,001,2023-07-24_20h58.46.516,arm3_q,2022.2.5,Win32,61.10601894,6165adc8da33afc997acf508,64aeaab685a29f4ca249be02,64bec9c4f1188297851b60c0,down,-1,0.3071,0.35,4,0,1.3099,,,,,,73,0,73,0,1,,,,,
,,506522,001,2023-07-24_20h58.46.516,arm3_q,2022.2.5,Win32,61.10601894,6165adc8da33afc997acf508,64aeaab685a29f4ca249be02,64bec9c4f1188297851b60c0,up,-1,0.3071,0.35,4,0,1.8147,,,,,,74,0,74,0,1,,,,,
,,506522,001,2023-07-24_20h58.46.516,arm3_q,2022.2.5,Win32,61.10601894,6165adc8da33afc997acf508,64aeaab685a29f4ca249be02,64bec9c4f1188297851b60c0,up,1,0.3071,0.35,3,0,0.892,,,,,,75,0,75,0,1,,,,,
,,506522,001,2023-07-24_20h58.46.516,arm3_q,2022.2.5,Win32,61.10601894,6165adc8da33afc997acf508,64aeaab685a29f4ca249be02,64bec9c4f1188297851b60c0,down,1,0.3071,0.35,3,0,1.1697,,,,,,76,0,76,0,1,,,,,
,,506522,001,2023-07-24_20h58.46.516,arm3_q,2022.2.5,Win32,61.10601894,6165adc8da33afc997acf508,64aeaab685a29f4ca249be02,64bec9c4f1188297851b60c0,down,1,0.3071,0.35,3,0,0.899,,,,,,77,0,77,0,1,,,,,
,,506522,001,2023-07-24_20h58.46.516,arm3_q,2022.2.5,Win32,61.10601894,6165adc8da33afc997acf508,64aeaab685a29f4ca249be02,64bec9c4f1188297851b60c0,down,-1,0.3071,0.35,3,0,0.8626,,,,,,78,0,78,0,1,,,,,
,,506522,001,2023-07-24_20h58.46.516,arm3_q,2022.2.5,Win32,61.10601894,6165adc8da33afc997acf508,64aeaab685a29f4ca249be02,64bec9c4f1188297851b60c0,down,1,0.3071,0.35,3,0,1.4542,,,,,,79,0,79,0,1,,,,,
,,506522,001,2023-07-24_20h58.46.516,arm3_q,2022.2.5,Win32,61.10601894,6165adc8da33afc997acf508,64aeaab685a29f4ca249be02,64bec9c4f1188297851b60c0,down,-1,0.3071,0.35,3,0,0.9013,,,,,,80,0,80,0,1,,,,,
,,506522,001,2023-07-24_20h58.46.516,arm3_q,2022.2.5,Win32,61.10601894,6165adc8da33afc997acf508,64aeaab685a29f4ca249be02,64bec9c4f1188297851b60c0,down,1,0.3071,0.35,3,0,1.0118,,,,,,81,0,81,0,1,,,,,
,,506522,001,2023-07-24_20h58.46.516,arm3_q,2022.2.5,Win32,61.10601894,6165adc8da33afc997acf508,64aeaab685a29f4ca249be02,64bec9c4f1188297851b60c0,down,-1,0.3071,0.35,3,0,0.916,,,,,,82,0,82,0,1,,,,,
,,506522,001,2023-07-24_20h58.46.516,arm3_q,2022.2.5,Win32,61.10601894,6165adc8da33afc997acf508,64aeaab685a29f4ca249be02,64bec9c4f1188297851b60c0,down,-1,0.3071,0.35,3,0,0.9604,,,,,,83,0,83,0,1,,,,,
,,506522,001,2023-07-24_20h58.46.516,arm3_q,2022.2.5,Win32,61.10601894,6165adc8da33afc997acf508,64aeaab685a29f4ca249be02,64bec9c4f1188297851b60c0,down,1,0.3071,0.35,3,0,0.9056,,,,,,84,0,84,0,1,,,,,
,,506522,001,2023-07-24_20h58.46.516,arm3_q,2022.2.5,Win32,61.10601894,6165adc8da33afc997acf508,64aeaab685a29f4ca249be02,64bec9c4f1188297851b60c0,down,1,0.3071,0.35,2,0,0.8664,,,,,,85,0,85,0,1,,,,,
,,506522,001,2023-07-24_20h58.46.516,arm3_q,2022.2.5,Win32,61.10601894,6165adc8da33afc997acf508,64aeaab685a29f4ca249be02,64bec9c4f1188297851b60c0,down,-1,0.3071,0.35,2,0,0.9159,,,,,,86,0,86,0,1,,,,,
,,506522,001,2023-07-24_20h58.46.516,arm3_q,2022.2.5,Win32,61.10601894,6165adc8da33afc997acf508,64aeaab685a29f4ca249be02,64bec9c4f1188297851b60c0,down,-1,0.3071,0.35,2,0,0.8697,,,,,,87,0,87,0,1,,,,,
,,506522,001,2023-07-24_20h58.46.516,arm3_q,2022.2.5,Win32,61.10601894,6165adc8da33afc997acf508,64aeaab685a29f4ca249be02,64bec9c4f1188297851b60c0,down,1,0.3071,0.35,3,0,0.8784,,,,,,88,0,88,0,1,,,,,
,,506522,001,2023-07-24_20h58.46.516,arm3_q,2022.2.5,Win32,61.10601894,6165adc8da33afc997acf508,64aeaab685a29f4ca249be02,64bec9c4f1188297851b60c0,down,1,0.3071,0.35,2,0,1.0081,,,,,,89,0,89,0,1,,,,,
,,506522,001,2023-07-24_20h58.46.516,arm3_q,2022.2.5,Win32,61.10601894,6165adc8da33afc997acf508,64aeaab685a29f4ca249be02,64bec9c4f1188297851b60c0,down,1,0.3071,0.35,2,0,1.5349,,,,,,90,0,90,0,1,,,,,
,,506522,001,2023-07-24_20h58.46.516,arm3_q,2022.2.5,Win32,61.10601894,6165adc8da33afc997acf508,64aeaab685a29f4ca249be02,64bec9c4f1188297851b60c0,down,-1,0.3071,0.35,2,0,0.7613,,,,,,91,0,91,0,1,,,,,
,,506522,001,2023-07-24_20h58.46.516,arm3_q,2022.2.5,Win32,61.10601894,6165adc8da33afc997acf508,64aeaab685a29f4ca249be02,64bec9c4f1188297851b60c0,down,-1,0.3071,0.35,3,0,0.8316,,,,,,92,0,92,0,1,,,,,
,,506522,001,2023-07-24_20h58.46.516,arm3_q,2022.2.5,Win32,61.10601894,6165adc8da33afc997acf508,64aeaab685a29f4ca249be02,64bec9c4f1188297851b60c0,down,-1,0.3071,0.35,3,0,0.9657,,,,,,93,0,93,0,1,,,,,
,,506522,001,2023-07-24_20h58.46.516,arm3_q,2022.2.5,Win32,61.10601894,6165adc8da33afc997acf508,64aeaab685a29f4ca249be02,64bec9c4f1188297851b60c0,down,-1,0.3071,0.35,4,0,0.6912,,,,,,94,0,94,0,1,,,,,
,,506522,001,2023-07-24_20h58.46.516,arm3_q,2022.2.5,Win32,61.10601894,6165adc8da33afc997acf508,64aeaab685a29f4ca249be02,64bec9c4f1188297851b60c0,down,-1,0.3071,0.35,4,0,0.7676,,,,,,95,0,95,0,1,,,,,
,,506522,001,2023-07-24_20h58.46.516,arm3_q,2022.2.5,Win32,61.10601894,6165adc8da33afc997acf508,64aeaab685a29f4ca249be02,64bec9c4f1188297851b60c0,down,-1,0.3071,0.35,4,0,0.7514,,,,,,96,0,96,0,1,,,,,
,,506522,001,2023-07-24_20h58.46.516,arm3_q,2022.2.5,Win32,61.10601894,6165adc8da33afc997acf508,64aeaab685a29f4ca249be02,64bec9c4f1188297851b60c0,down,-1,0.3071,0.35,4,0,0.6715,,,,,,97,0,97,0,1,,,,,
,,506522,001,2023-07-24_20h58.46.516,arm3_q,2022.2.5,Win32,61.10601894,6165adc8da33afc997acf508,64aeaab685a29f4ca249be02,64bec9c4f1188297851b60c0,down,-1,0.3071,0.35,4,0,0.7251,,,,,,98,0,98,0,1,,,,,
,,506522,001,2023-07-24_20h58.46.516,arm3_q,2022.2.5,Win32,61.10601894,6165adc8da33afc997acf508,64aeaab685a29f4ca249be02,64bec9c4f1188297851b60c0,down,-1,0.3071,0.35,4,0,0.4932,,,,,,99,0,99,0,1,,,,,
,,506522,001,2023-07-24_20h58.46.516,arm3_q,2022.2.5,Win32,61.10601894,6165adc8da33afc997acf508,64aeaab685a29f4ca249be02,64bec9c4f1188297851b60c0,down,1,0.3071,0.35,4,0,1.0866,,,,,,100,0,100,0,1,,,,,
,,506522,001,2023-07-24_20h58.46.516,arm3_q,2022.2.5,Win32,61.10601894,6165adc8da33afc997acf508,64aeaab685a29f4ca249be02,64bec9c4f1188297851b60c0,down,-1,0.3071,0.35,4,0,0.8658,,,,,,101,0,101,0,1,,,,,
,,506522,001,2023-07-24_20h58.46.516,arm3_q,2022.2.5,Win32,61.10601894,6165adc8da33afc997acf508,64aeaab685a29f4ca249be02,64bec9c4f1188297851b60c0,down,-1,0.3071,0.35,4,0,0.799,,,,,,102,0,102,0,1,,,,,
,,506522,001,2023-07-24_20h58.46.516,arm3_q,2022.2.5,Win32,61.10601894,6165adc8da33afc997acf508,64aeaab685a29f4ca249be02,64bec9c4f1188297851b60c0,down,-1,0.3071,0.35,4,0,0.7828,,,,,,103,0,103,0,1,,,,,
,,506522,001,2023-07-24_20h58.46.516,arm3_q,2022.2.5,Win32,61.10601894,6165adc8da33afc997acf508,64aeaab685a29f4ca249be02,64bec9c4f1188297851b60c0,down,1,0.3071,0.35,4,0,0.802,,,,,,104,0,104,0,1,,,,,
,,506522,001,2023-07-24_20h58.46.516,arm3_q,2022.2.5,Win32,61.10601894,6165adc8da33afc997acf508,64aeaab685a29f4ca249be02,64bec9c4f1188297851b60c0,down,-1,0.3071,0.35,4,0,0.8032,,,,,,105,0,105,0,1,,,,,
,,506522,001,2023-07-24_20h58.46.516,arm3_q,2022.2.5,Win32,61.10601894,6165adc8da33afc997acf508,64aeaab685a29f4ca249be02,64bec9c4f1188297851b60c0,down,-1,0.3071,0.35,4,0,1.2996,,,,,,106,0,106,0,1,,,,,
,,506522,001,2023-07-24_20h58.46.516,arm3_q,2022.2.5,Win32,61.10601894,6165adc8da33afc997acf508,64aeaab685a29f4ca249be02,64bec9c4f1188297851b60c0,down,1,0.3071,0.35,5,0,0.8667,,,,,,107,0,107,0,1,,,,,
,,506522,001,2023-07-24_20h58.46.516,arm3_q,2022.2.5,Win32,61.10601894,6165adc8da33afc997acf508,64aeaab685a29f4ca249be02,64bec9c4f1188297851b60c0,down,1,0.3071,0.35,5,0,0.8825,,,,,,108,0,108,0,1,,,,,
,,506522,001,2023-07-24_20h58.46.516,arm3_q,2022.2.5,Win32,61.10601894,6165adc8da33afc997acf508,64aeaab685a29f4ca249be02,64bec9c4f1188297851b60c0,down,1,0.3071,0.35,4,0,0.8784,,,,,,109,0,109,0,1,,,,,
,,506522,001,2023-07-24_20h58.46.516,arm3_q,2022.2.5,Win32,61.10601894,6165adc8da33afc997acf508,64aeaab685a29f4ca249be02,64bec9c4f1188297851b60c0,down,-1,0.3071,0.35,3,0,0.8317,,,,,,110,0,110,0,1,,,,,
,,506522,001,2023-07-24_20h58.46.516,arm3_q,2022.2.5,Win32,61.10601894,6165adc8da33afc997acf508,64aeaab685a29f4ca249be02,64bec9c4f1188297851b60c0,down,-1,0.3071,0.35,4,0,0.7135,,,,,,111,0,111,0,1,,,,,
,,506522,001,2023-07-24_20h58.46.516,arm3_q,2022.2.5,Win32,61.10601894,6165adc8da33afc997acf508,64aeaab685a29f4ca249be02,64bec9c4f1188297851b60c0,down,1,0.3071,0.35,4,0,0.7328,,,,,,112,0,112,0,1,,,,,
,,506522,001,2023-07-24_20h58.46.516,arm3_q,2022.2.5,Win32,61.10601894,6165adc8da33afc997acf508,64aeaab685a29f4ca249be02,64bec9c4f1188297851b60c0,down,1,0.3071,0.35,3,0,0.5657,,,,,,113,0,113,0,1,,,,,
,,506522,001,2023-07-24_20h58.46.516,arm3_q,2022.2.5,Win32,61.10601894,6165adc8da33afc997acf508,64aeaab685a29f4ca249be02,64bec9c4f1188297851b60c0,down,-1,0.3071,0.35,2,0,0.279,,,,,,114,0,114,0,1,,,,,
,,506522,001,2023-07-24_20h58.46.516,arm3_q,2022.2.5,Win32,61.10601894,6165adc8da33afc997acf508,64aeaab685a29f4ca249be02,64bec9c4f1188297851b60c0,down,1,0.3071,0.35,3,0,0.9179,,,,,,115,0,115,0,1,,,,,
,,506522,001,2023-07-24_20h58.46.516,arm3_q,2022.2.5,Win32,61.10601894,6165adc8da33afc997acf508,64aeaab685a29f4ca249be02,64bec9c4f1188297851b60c0,down,1,0.3071,0.35,2,0,0.8495,,,,,,116,0,116,0,1,,,,,
,,506522,001,2023-07-24_20h58.46.516,arm3_q,2022.2.5,Win32,61.10601894,6165adc8da33afc997acf508,64aeaab685a29f4ca249be02,64bec9c4f1188297851b60c0,down,-1,0.3071,0.35,1,0,0.7909,,,,,,117,0,117,0,1,,,,,
,,506522,001,2023-07-24_20h58.46.516,arm3_q,2022.2.5,Win32,61.10601894,6165adc8da33afc997acf508,64aeaab685a29f4ca249be02,64bec9c4f1188297851b60c0,down,-1,0.3071,0.35,1,0,0.7595,,,,,,118,0,118,0,1,,,,,
,,506522,001,2023-07-24_20h58.46.516,arm3_q,2022.2.5,Win32,61.10601894,6165adc8da33afc997acf508,64aeaab685a29f4ca249be02,64bec9c4f1188297851b60c0,down,1,0.3071,0.35,1,0,0.7751,,,,,,119,0,119,0,1,,,,,
,,506522,001,2023-07-24_20h58.46.516,arm3_q,2022.2.5,Win32,61.10601894,6165adc8da33afc997acf508,64aeaab685a29f4ca249be02,64bec9c4f1188297851b60c0,down,1,0.3071,0.35,1,0,0.738,,,,,,120,0,120,0,1,,,,,
,,506522,001,2023-07-24_20h58.46.516,arm3_q,2022.2.5,Win32,61.10601894,6165adc8da33afc997acf508,64aeaab685a29f4ca249be02,64bec9c4f1188297851b60c0,down,-1,0.3071,0.35,1,0,0.7685,,,,,,121,0,121,0,1,,,,,
,,506522,001,2023-07-24_20h58.46.516,arm3_q,2022.2.5,Win32,61.10601894,6165adc8da33afc997acf508,64aeaab685a29f4ca249be02,64bec9c4f1188297851b60c0,down,-1,0.3071,0.35,1,0,0.7633,,,,,,122,0,122,0,1,,,,,
,,506522,001,2023-07-24_20h58.46.516,arm3_q,2022.2.5,Win32,61.10601894,6165adc8da33afc997acf508,64aeaab685a29f4ca249be02,64bec9c4f1188297851b60c0,down,-1,0.3071,0.35,1,0,0.7621,,,,,,123,0,123,0,1,,,,,
,,506522,001,2023-07-24_20h58.46.516,arm3_q,2022.2.5,Win32,61.10601894,6165adc8da33afc997acf508,64aeaab685a29f4ca249be02,64bec9c4f1188297851b60c0,down,1,0.3071,0.35,1,0,0.7244,,,,,,124,0,124,0,1,,,,,
,,506522,001,2023-07-24_20h58.46.516,arm3_q,2022.2.5,Win32,61.10601894,6165adc8da33afc997acf508,64aeaab685a29f4ca249be02,64bec9c4f1188297851b60c0,down,1,0.3071,0.35,1,0,0.7331,,,,,,125,0,125,0,1,,,,,
,,506522,001,2023-07-24_20h58.46.516,arm3_q,2022.2.5,Win32,61.10601894,6165adc8da33afc997acf508,64aeaab685a29f4ca249be02,64bec9c4f1188297851b60c0,down,1,0.3071,0.35,0,0,0.7579,,,,,,126,0,126,0,1,,,,,
,,506522,001,2023-07-24_20h58.46.516,arm3_q,2022.2.5,Win32,61.10601894,6165adc8da33afc997acf508,64aeaab685a29f4ca249be02,64bec9c4f1188297851b60c0,down,1,0.3071,0.35,0,0,0.8167,,,,,,127,0,127,0,1,,,,,
,,506522,001,2023-07-24_20h58.46.516,arm3_q,2022.2.5,Win32,61.10601894,6165adc8da33afc997acf508,64aeaab685a29f4ca249be02,64bec9c4f1188297851b60c0,down,-1,0.3071,0.35,0,0,0.6822,,,,,,128,0,128,0,1,,,,,
,,506522,001,2023-07-24_20h58.46.516,arm3_q,2022.2.5,Win32,61.10601894,6165adc8da33afc997acf508,64aeaab685a29f4ca249be02,64bec9c4f1188297851b60c0,down,-1,0.3071,0.35,0,0,0.6954,,,,,,129,0,129,0,1,,,,,
,,506522,001,2023-07-24_20h58.46.516,arm3_q,2022.2.5,Win32,61.10601894,6165adc8da33afc997acf508,64aeaab685a29f4ca249be02,64bec9c4f1188297851b60c0,down,1,0.3071,0.35,1,0,0.9606,,,,,,130,0,130,0,1,,,,,
,,506522,001,2023-07-24_20h58.46.516,arm3_q,2022.2.5,Win32,61.10601894,6165adc8da33afc997acf508,64aeaab685a29f4ca249be02,64bec9c4f1188297851b60c0,down,1,0.3071,0.35,1,0,0.2676,,,,,,131,0,131,0,1,,,,,
,,506522,001,2023-07-24_20h58.46.516,arm3_q,2022.2.5,Win32,61.10601894,6165adc8da33afc997acf508,64aeaab685a29f4ca249be02,64bec9c4f1188297851b60c0,down,1,0.3071,0.35,1,0,0.4975,,,,,,132,0,132,0,1,,,,,
,,506522,001,2023-07-24_20h58.46.516,arm3_q,2022.2.5,Win32,61.10601894,6165adc8da33afc997acf508,64aeaab685a29f4ca249be02,64bec9c4f1188297851b60c0,down,-1,0.3071,0.35,0,0,0.2411,,,,,,133,0,133,0,1,,,,,
,,506522,001,2023-07-24_20h58.46.516,arm3_q,2022.2.5,Win32,61.10601894,6165adc8da33afc997acf508,64aeaab685a29f4ca249be02,64bec9c4f1188297851b60c0,down,-1,0.3071,0.35,0,0,1.803,,,,,,134,0,134,0,1,,,,,
,,506522,001,2023-07-24_20h58.46.516,arm3_q,2022.2.5,Win32,61.10601894,6165adc8da33afc997acf508,64aeaab685a29f4ca249be02,64bec9c4f1188297851b60c0,down,-1,0.3071,0.35,1,0,0.8189,,,,,,135,0,135,0,1,,,,,
,,506522,001,2023-07-24_20h58.46.516,arm3_q,2022.2.5,Win32,61.10601894,6165adc8da33afc997acf508,64aeaab685a29f4ca249be02,64bec9c4f1188297851b60c0,down,-1,0.3071,0.35,2,0,0.7609,,,,,,136,0,136,0,1,,,,,
,,506522,001,2023-07-24_20h58.46.516,arm3_q,2022.2.5,Win32,61.10601894,6165adc8da33afc997acf508,64aeaab685a29f4ca249be02,64bec9c4f1188297851b60c0,down,-1,0.3071,0.35,3,0,0.8133,,,,,,137,0,137,0,1,,,,,
,,506522,001,2023-07-24_20h58.46.516,arm3_q,2022.2.5,Win32,61.10601894,6165adc8da33afc997acf508,64aeaab685a29f4ca249be02,64bec9c4f1188297851b60c0,down,-1,0.3071,0.35,3,0,0.8609,,,,,,138,0,138,0,1,,,,,
,,506522,001,2023-07-24_20h58.46.516,arm3_q,2022.2.5,Win32,61.10601894,6165adc8da33afc997acf508,64aeaab685a29f4ca249be02,64bec9c4f1188297851b60c0,up,1,0.3071,0.35,3,0,1.3889,,,,,,139,0,139,0,1,,,,,
,,506522,001,2023-07-24_20h58.46.516,arm3_q,2022.2.5,Win32,61.10601894,6165adc8da33afc997acf508,64aeaab685a29f4ca249be02,64bec9c4f1188297851b60c0,up,1,0.3071,0.35,4,0,0.7946,,,,,,140,0,140,0,1,,,,,
,,506522,001,2023-07-24_20h58.46.516,arm3_q,2022.2.5,Win32,61.10601894,6165adc8da33afc997acf508,64aeaab685a29f4ca249be02,64bec9c4f1188297851b60c0,up,-1,0.3071,0.35,4,0,0.8412,,,,,,141,0,141,0,1,,,,,
,,506522,001,2023-07-24_20h58.46.516,arm3_q,2022.2.5,Win32,61.10601894,6165adc8da33afc997acf508,64aeaab685a29f4ca249be02,64bec9c4f1188297851b60c0,up,1,0.3071,0.35,4,0,0.8036,,,,,,142,0,142,0,1,,,,,
,,506522,001,2023-07-24_20h58.46.516,arm3_q,2022.2.5,Win32,61.10601894,6165adc8da33afc997acf508,64aeaab685a29f4ca249be02,64bec9c4f1188297851b60c0,up,1,0.3071,0.35,4,0,0.8417,,,,,,143,0,143,0,1,,,,,
,,506522,001,2023-07-24_20h58.46.516,arm3_q,2022.2.5,Win32,61.10601894,6165adc8da33afc997acf508,64aeaab685a29f4ca249be02,64bec9c4f1188297851b60c0,up,1,0.3071,0.35,4,0,0.8741,,,,,,144,0,144,0,1,,,,,
,,506522,001,2023-07-24_20h58.46.516,arm3_q,2022.2.5,Win32,61.10601894,6165adc8da33afc997acf508,64aeaab685a29f4ca249be02,64bec9c4f1188297851b60c0,up,1,0.3071,0.35,4,0,0.8355,,,,,,145,0,145,0,1,,,,,
,,506522,001,2023-07-24_20h58.46.516,arm3_q,2022.2.5,Win32,61.10601894,6165adc8da33afc997acf508,64aeaab685a29f4ca249be02,64bec9c4f1188297851b60c0,down,1,0.3071,0.35,4,0,0.8019,,,,,,146,0,146,0,1,,,,,
,,506522,001,2023-07-24_20h58.46.516,arm3_q,2022.2.5,Win32,61.10601894,6165adc8da33afc997acf508,64aeaab685a29f4ca249be02,64bec9c4f1188297851b60c0,down,-1,0.3071,0.35,4,0,0.8253,,,,,,147,0,147,0,1,,,,,
,,506522,001,2023-07-24_20h58.46.516,arm3_q,2022.2.5,Win32,61.10601894,6165adc8da33afc997acf508,64aeaab685a29f4ca249be02,64bec9c4f1188297851b60c0,down,-1,0.3071,0.35,4,0,0.7653,,,,,,148,0,148,0,1,,,,,
,,506522,001,2023-07-24_20h58.46.516,arm3_q,2022.2.5,Win32,61.10601894,6165adc8da33afc997acf508,64aeaab685a29f4ca249be02,64bec9c4f1188297851b60c0,down,-1,0.3071,0.35,4,0,0.811,,,,,,149,0,149,0,1,,,,,
,,506522,001,2023-07-24_20h58.46.516,arm3_q,2022.2.5,Win32,61.10601894,6165adc8da33afc997acf508,64aeaab685a29f4ca249be02,64bec9c4f1188297851b60c0,down,-1,0.3071,0.35,4,0,0.7931,,,,,,150,0,150,0,1,,,,,
,,506522,001,2023-07-24_20h58.46.516,arm3_q,2022.2.5,Win32,61.10601894,6165adc8da33afc997acf508,64aeaab685a29f4ca249be02,64bec9c4f1188297851b60c0,down,1,0.3071,0.35,4,0,0.7878,,,,,,151,0,151,0,1,,,,,
,,506522,001,2023-07-24_20h58.46.516,arm3_q,2022.2.5,Win32,61.10601894,6165adc8da33afc997acf508,64aeaab685a29f4ca249be02,64bec9c4f1188297851b60c0,down,-1,0.3071,0.35,4,0,0.7876,,,,,,152,0,152,0,1,,,,,
,,506522,001,2023-07-24_20h58.46.516,arm3_q,2022.2.5,Win32,61.10601894,6165adc8da33afc997acf508,64aeaab685a29f4ca249be02,64bec9c4f1188297851b60c0,down,-1,0.3071,0.35,4,0,0.8763,,,,,,153,0,153,0,1,,,,,
,,506522,001,2023-07-24_20h58.46.516,arm3_q,2022.2.5,Win32,61.10601894,6165adc8da33afc997acf508,64aeaab685a29f4ca249be02,64bec9c4f1188297851b60c0,down,1,0.3071,0.35,4,0,1.3419,,,,,,154,0,154,0,1,,,,,
,,506522,001,2023-07-24_20h58.46.516,arm3_q,2022.2.5,Win32,61.10601894,6165adc8da33afc997acf508,64aeaab685a29f4ca249be02,64bec9c4f1188297851b60c0,down,1,0.3071,0.35,4,0,0.6638,,,,,,155,0,155,0,1,,,,,
,,506522,001,2023-07-24_20h58.46.516,arm3_q,2022.2.5,Win32,61.10601894,6165adc8da33afc997acf508,64aeaab685a29f4ca249be02,64bec9c4f1188297851b60c0,down,1,0.3071,0.35,4,0,0.6089,,,,,,156,0,156,0,1,,,,,
,,506522,001,2023-07-24_20h58.46.516,arm3_q,2022.2.5,Win32,61.10601894,6165adc8da33afc997acf508,64aeaab685a29f4ca249be02,64bec9c4f1188297851b60c0,down,-1,0.3071,0.35,4,0,0.8545,,,,,,157,0,157,0,1,,,,,
,,506522,001,2023-07-24_20h58.46.516,arm3_q,2022.2.5,Win32,61.10601894,6165adc8da33afc997acf508,64aeaab685a29f4ca249be02,64bec9c4f1188297851b60c0,down,-1,0.3071,0.35,5,0,0.7084,,,,,,158,0,158,0,1,,,,,
,,506522,001,2023-07-24_20h58.46.516,arm3_q,2022.2.5,Win32,61.10601894,6165adc8da33afc997acf508,64aeaab685a29f4ca249be02,64bec9c4f1188297851b60c0,up,1,0.3071,0.35,5,0,2.257,,,,,,159,0,159,0,1,,,,,
,,506522,001,2023-07-24_20h58.46.516,arm3_q,2022.2.5,Win32,61.10601894,6165adc8da33afc997acf508,64aeaab685a29f4ca249be02,64bec9c4f1188297851b60c0,up,-1,0.3071,0.35,5,0,0.7178,,,,,,160,0,160,0,1,,,,,
,,506522,001,2023-07-24_20h58.46.516,arm3_q,2022.2.5,Win32,61.10601894,6165adc8da33afc997acf508,64aeaab685a29f4ca249be02,64bec9c4f1188297851b60c0,up,-1,0.3071,0.35,5,0,0.7442,,,,,,161,0,161,0,1,,,,,
,,506522,001,2023-07-24_20h58.46.516,arm3_q,2022.2.5,Win32,61.10601894,6165adc8da33afc997acf508,64aeaab685a29f4ca249be02,64bec9c4f1188297851b60c0,up,-1,0.3071,0.35,5,0,0.6623,,,,,,162,0,162,0,1,,,,,
,,506522,001,2023-07-24_20h58.46.516,arm3_q,2022.2.5,Win32,61.10601894,6165adc8da33afc997acf508,64aeaab685a29f4ca249be02,64bec9c4f1188297851b60c0,up,-1,0.3071,0.35,4,0,0.8133,,,,,,163,0,163,0,1,,,,,
,,506522,001,2023-07-24_20h58.46.516,arm3_q,2022.2.5,Win32,61.10601894,6165adc8da33afc997acf508,64aeaab685a29f4ca249be02,64bec9c4f1188297851b60c0,down,1,0.3071,0.35,5,0,1.1072,,,,,,164,0,164,0,1,,,,,
,,506522,001,2023-07-24_20h58.46.516,arm3_q,2022.2.5,Win32,61.10601894,6165adc8da33afc997acf508,64aeaab685a29f4ca249be02,64bec9c4f1188297851b60c0,down,-1,0.3071,0.35,4,0,1.3383,,,,,,165,0,165,0,1,,,,,
,,506522,001,2023-07-24_20h58.46.516,arm3_q,2022.2.5,Win32,61.10601894,6165adc8da33afc997acf508,64aeaab685a29f4ca249be02,64bec9c4f1188297851b60c0,up,1,0.3071,0.35,4,0,0.993,,,,,,166,0,166,0,1,,,,,
,,506522,001,2023-07-24_20h58.46.516,arm3_q,2022.2.5,Win32,61.10601894,6165adc8da33afc997acf508,64aeaab685a29f4ca249be02,64bec9c4f1188297851b60c0,up,1,0.3071,0.35,5,0,0.9178,,,,,,167,0,167,0,1,,,,,
,,506522,001,2023-07-24_20h58.46.516,arm3_q,2022.2.5,Win32,61.10601894,6165adc8da33afc997acf508,64aeaab685a29f4ca249be02,64bec9c4f1188297851b60c0,up,1,0.3071,0.35,5,0,0.9712,,,,,,168,0,168,0,1,,,,,
,,506522,001,2023-07-24_20h58.46.516,arm3_q,2022.2.5,Win32,61.10601894,6165adc8da33afc997acf508,64aeaab685a29f4ca249be02,64bec9c4f1188297851b60c0,up,1,0.3071,0.35,6,0,0.6649,,,,,,169,0,169,0,1,,,,,
,,506522,001,2023-07-24_20h58.46.516,arm3_q,2022.2.5,Win32,61.10601894,6165adc8da33afc997acf508,64aeaab685a29f4ca249be02,64bec9c4f1188297851b60c0,up,-1,0.3071,0.35,6,0,0.8914,,,,,,170,0,170,0,1,,,,,
,,506522,001,2023-07-24_20h58.46.516,arm3_q,2022.2.5,Win32,61.10601894,6165adc8da33afc997acf508,64aeaab685a29f4ca249be02,64bec9c4f1188297851b60c0,up,-1,0.3071,0.35,6,0,0.7398,,,,,,171,0,171,0,1,,,,,
,,506522,001,2023-07-24_20h58.46.516,arm3_q,2022.2.5,Win32,61.10601894,6165adc8da33afc997acf508,64aeaab685a29f4ca249be02,64bec9c4f1188297851b60c0,up,-1,0.3071,0.35,6,0,0.901,,,,,,172,0,172,0,1,,,,,
,,506522,001,2023-07-24_20h58.46.516,arm3_q,2022.2.5,Win32,61.10601894,6165adc8da33afc997acf508,64aeaab685a29f4ca249be02,64bec9c4f1188297851b60c0,down,-1,0.3071,0.35,7,0,0.7303,,,,,,173,0,173,0,1,,,,,
,,506522,001,2023-07-24_20h58.46.516,arm3_q,2022.2.5,Win32,61.10601894,6165adc8da33afc997acf508,64aeaab685a29f4ca249be02,64bec9c4f1188297851b60c0,up,1,0.3071,0.35,7,0,0.9802,,,,,,174,0,174,0,1,,,,,
,,506522,001,2023-07-24_20h58.46.516,arm3_q,2022.2.5,Win32,61.10601894,6165adc8da33afc997acf508,64aeaab685a29f4ca249be02,64bec9c4f1188297851b60c0,up,-1,0.3071,0.35,7,0,0.8316,,,,,,175,0,175,0,1,,,,,
,,506522,001,2023-07-24_20h58.46.516,arm3_q,2022.2.5,Win32,61.10601894,6165adc8da33afc997acf508,64aeaab685a29f4ca249be02,64bec9c4f1188297851b60c0,up,-1,0.3071,0.35,6,0,0.7662,,,,,,176,0,176,0,1,,,,,
,,506522,001,2023-07-24_20h58.46.516,arm3_q,2022.2.5,Win32,61.10601894,6165adc8da33afc997acf508,64aeaab685a29f4ca249be02,64bec9c4f1188297851b60c0,down,1,0.3071,0.35,6,0,0.9104,,,,,,177,0,177,0,1,,,,,
,,506522,001,2023-07-24_20h58.46.516,arm3_q,2022.2.5,Win32,61.10601894,6165adc8da33afc997acf508,64aeaab685a29f4ca249be02,64bec9c4f1188297851b60c0,down,1,0.3071,0.35,6,0,0.8822,,,,,,178,0,178,0,1,,,,,
,,506522,001,2023-07-24_20h58.46.516,arm3_q,2022.2.5,Win32,61.10601894,6165adc8da33afc997acf508,64aeaab685a29f4ca249be02,64bec9c4f1188297851b60c0,down,1,0.3071,0.35,5,0,0.8327,,,,,,179,0,179,0,1,,,,,
,,506522,001,2023-07-24_20h58.46.516,arm3_q,2022.2.5,Win32,61.10601894,6165adc8da33afc997acf508,64aeaab685a29f4ca249be02,64bec9c4f1188297851b60c0,up,1,0.3071,0.35,5,0,1.0129,,,,,,180,0,180,0,1,,,,,
,,506522,001,2023-07-24_20h58.46.516,arm3_q,2022.2.5,Win32,61.10601894,6165adc8da33afc997acf508,64aeaab685a29f4ca249be02,64bec9c4f1188297851b60c0,up,1,0.3071,0.35,5,0,0.4806,,,,,,181,0,181,0,1,,,,,
,,506522,001,2023-07-24_20h58.46.516,arm3_q,2022.2.5,Win32,61.10601894,6165adc8da33afc997acf508,64aeaab685a29f4ca249be02,64bec9c4f1188297851b60c0,up,-1,0.3071,0.35,5,0,0.6006,,,,,,182,0,182,0,1,,,,,
,,506522,001,2023-07-24_20h58.46.516,arm3_q,2022.2.5,Win32,61.10601894,6165adc8da33afc997acf508,64aeaab685a29f4ca249be02,64bec9c4f1188297851b60c0,up,-1,0.3071,0.35,5,0,0.3173,,,,,,183,0,183,0,1,,,,,
,,506522,001,2023-07-24_20h58.46.516,arm3_q,2022.2.5,Win32,61.10601894,6165adc8da33afc997acf508,64aeaab685a29f4ca249be02,64bec9c4f1188297851b60c0,up,-1,0.3071,0.35,5,0,0.8827,,,,,,184,0,184,0,1,,,,,
,,506522,001,2023-07-24_20h58.46.516,arm3_q,2022.2.5,Win32,61.10601894,6165adc8da33afc997acf508,64aeaab685a29f4ca249be02,64bec9c4f1188297851b60c0,up,1,0.3071,0.35,4,0,0.6331,,,,,,185,0,185,0,1,,,,,
,,506522,001,2023-07-24_20h58.46.516,arm3_q,2022.2.5,Win32,61.10601894,6165adc8da33afc997acf508,64aeaab685a29f4ca249be02,64bec9c4f1188297851b60c0,up,-1,0.3071,0.35,4,0,0.8466,,,,,,186,0,186,0,1,,,,,
,,506522,001,2023-07-24_20h58.46.516,arm3_q,2022.2.5,Win32,61.10601894,6165adc8da33afc997acf508,64aeaab685a29f4ca249be02,64bec9c4f1188297851b60c0,up,1,0.3071,0.35,4,0,0.6476,,,,,,187,0,187,0,1,,,,,
,,506522,001,2023-07-24_20h58.46.516,arm3_q,2022.2.5,Win32,61.10601894,6165adc8da33afc997acf508,64aeaab685a29f4ca249be02,64bec9c4f1188297851b60c0,up,1,0.3071,0.35,4,0,0.7982,,,,,,188,0,188,0,1,,,,,
,,506522,001,2023-07-24_20h58.46.516,arm3_q,2022.2.5,Win32,61.10601894,6165adc8da33afc997acf508,64aeaab685a29f4ca249be02,64bec9c4f1188297851b60c0,up,-1,0.3071,0.35,4,0,0.6472,,,,,,189,0,189,0,1,,,,,
,,506522,001,2023-07-24_20h58.46.516,arm3_q,2022.2.5,Win32,61.10601894,6165adc8da33afc997acf508,64aeaab685a29f4ca249be02,64bec9c4f1188297851b60c0,up,-1,0.3071,0.35,4,0,0.5511,,,,,,190,0,190,0,1,,,,,
,,506522,001,2023-07-24_20h58.46.516,arm3_q,2022.2.5,Win32,61.10601894,6165adc8da33afc997acf508,64aeaab685a29f4ca249be02,64bec9c4f1188297851b60c0,up,-1,0.3071,0.35,4,0,0.5969,,,,,,191,0,191,0,1,,,,,
,,506522,001,2023-07-24_20h58.46.516,arm3_q,2022.2.5,Win32,61.10601894,6165adc8da33afc997acf508,64aeaab685a29f4ca249be02,64bec9c4f1188297851b60c0,up,1,0.3071,0.35,4,0,0.6005,,,,,,192,0,192,0,1,,,,,
,,506522,001,2023-07-24_20h58.46.516,arm3_q,2022.2.5,Win32,61.10601894,6165adc8da33afc997acf508,64aeaab685a29f4ca249be02,64bec9c4f1188297851b60c0,up,1,0.3071,0.35,5,0,0.5157,,,,,,193,0,193,0,1,,,,,
,,506522,001,2023-07-24_20h58.46.516,arm3_q,2022.2.5,Win32,61.10601894,6165adc8da33afc997acf508,64aeaab685a29f4ca249be02,64bec9c4f1188297851b60c0,up,-1,0.3071,0.35,5,0,1.4461,,,,,,194,0,194,0,1,,,,,
,,506522,001,2023-07-24_20h58.46.516,arm3_q,2022.2.5,Win32,61.10601894,6165adc8da33afc997acf508,64aeaab685a29f4ca249be02,64bec9c4f1188297851b60c0,up,1,0.3071,0.35,5,0,0.6435,,,,,,195,0,195,0,1,,,,,
,,506522,001,2023-07-24_20h58.46.516,arm3_q,2022.2.5,Win32,61.10601894,6165adc8da33afc997acf508,64aeaab685a29f4ca249be02,64bec9c4f1188297851b60c0,up,1,0.3071,0.35,6,0,0.5823,,,,,,196,0,196,0,1,,,,,
,,506522,001,2023-07-24_20h58.46.516,arm3_q,2022.2.5,Win32,61.10601894,6165adc8da33afc997acf508,64aeaab685a29f4ca249be02,64bec9c4f1188297851b60c0,up,1,0.3071,0.35,6,0,1.848,,,,,,197,0,197,0,1,,,,,
,,506522,001,2023-07-24_20h58.46.516,arm3_q,2022.2.5,Win32,61.10601894,6165adc8da33afc997acf508,64aeaab685a29f4ca249be02,64bec9c4f1188297851b60c0,down,1,0.3071,0.35,5,0,0.8478,,,,,,198,0,198,0,1,,,,,
,,506522,001,2023-07-24_20h58.46.516,arm3_q,2022.2.5,Win32,61.10601894,6165adc8da33afc997acf508,64aeaab685a29f4ca249be02,64bec9c4f1188297851b60c0,down,1,0.3071,0.35,5,0,2.2292,,,,,,199,0,199,0,1,,,,,
,,506522,001,2023-07-24_20h58.46.516,arm3_q,2022.2.5,Win32,61.10601894,6165adc8da33afc997acf508,64aeaab685a29f4ca249be02,64bec9c4f1188297851b60c0,down,1,0.3071,0.35,5,0,0.6303,,,,,,200,0,200,0,1,,,,,
,,506522,001,2023-07-24_20h58.46.516,arm3_q,2022.2.5,Win32,61.10601894,6165adc8da33afc997acf508,64aeaab685a29f4ca249be02,64bec9c4f1188297851b60c0,up,1,0.3071,0.35,5,0,0.8346,,,,,,201,0,201,0,1,,,,,
,,506522,001,2023-07-24_20h58.46.516,arm3_q,2022.2.5,Win32,61.10601894,6165adc8da33afc997acf508,64aeaab685a29f4ca249be02,64bec9c4f1188297851b60c0,up,1,0.3071,0.35,5,0,0.6002,,,,,,202,0,202,0,1,,,,,
,,506522,001,2023-07-24_20h58.46.516,arm3_q,2022.2.5,Win32,61.10601894,6165adc8da33afc997acf508,64aeaab685a29f4ca249be02,64bec9c4f1188297851b60c0,up,1,0.3071,0.35,6,0,0.7828,,,,,,203,0,203,0,1,,,,,
,,506522,001,2023-07-24_20h58.46.516,arm3_q,2022.2.5,Win32,61.10601894,6165adc8da33afc997acf508,64aeaab685a29f4ca249be02,64bec9c4f1188297851b60c0,up,1,0.3071,0.35,6,0,1.2462,,,,,,204,0,204,0,1,,,,,
,,506522,001,2023-07-24_20h58.46.516,arm3_q,2022.2.5,Win32,61.10601894,6165adc8da33afc997acf508,64aeaab685a29f4ca249be02,64bec9c4f1188297851b60c0,up,-1,0.3071,0.35,7,0,0.6154,,,,,,205,0,205,0,1,,,,,
,,506522,001,2023-07-24_20h58.46.516,arm3_q,2022.2.5,Win32,61.10601894,6165adc8da33afc997acf508,64aeaab685a29f4ca249be02,64bec9c4f1188297851b60c0,up,-1,0.3071,0.35,6,0,1.5628,,,,,,206,0,206,0,1,,,,,
,,506522,001,2023-07-24_20h58.46.516,arm3_q,2022.2.5,Win32,61.10601894,6165adc8da33afc997acf508,64aeaab685a29f4ca249be02,64bec9c4f1188297851b60c0,up,1,0.3071,0.35,6,0,1.4465,,,,,,207,0,207,0,1,,,,,
,,506522,001,2023-07-24_20h58.46.516,arm3_q,2022.2.5,Win32,61.10601894,6165adc8da33afc997acf508,64aeaab685a29f4ca249be02,64bec9c4f1188297851b60c0,up,-1,0.3071,0.35,7,0,0.6644,,,,,,208,0,208,0,1,,,,,
,,506522,001,2023-07-24_20h58.46.516,arm3_q,2022.2.5,Win32,61.10601894,6165adc8da33afc997acf508,64aeaab685a29f4ca249be02,64bec9c4f1188297851b60c0,down,1,0.3071,0.35,7,0,1.9446,,,,,,209,0,209,0,1,,,,,
,,506522,001,2023-07-24_20h58.46.516,arm3_q,2022.2.5,Win32,61.10601894,6165adc8da33afc997acf508,64aeaab685a29f4ca249be02,64bec9c4f1188297851b60c0,down,1,0.3071,0.35,6,0,0.7168,,,,,,210,0,210,0,1,,,,,
,,506522,001,2023-07-24_20h58.46.516,arm3_q,2022.2.5,Win32,61.10601894,6165adc8da33afc997acf508,64aeaab685a29f4ca249be02,64bec9c4f1188297851b60c0,up,1,0.3071,0.35,7,0,1.0927,,,,,,211,0,211,0,1,,,,,
,,506522,001,2023-07-24_20h58.46.516,arm3_q,2022.2.5,Win32,61.10601894,6165adc8da33afc997acf508,64aeaab685a29f4ca249be02,64bec9c4f1188297851b60c0,up,1,0.3071,0.35,7,0,1.1581,,,,,,212,0,212,0,1,,,,,
,,506522,001,2023-07-24_20h58.46.516,arm3_q,2022.2.5,Win32,61.10601894,6165adc8da33afc997acf508,64aeaab685a29f4ca249be02,64bec9c4f1188297851b60c0,up,-1,0.3071,0.35,7,0,0.7747,,,,,,213,0,213,0,1,,,,,
,,506522,001,2023-07-24_20h58.46.516,arm3_q,2022.2.5,Win32,61.10601894,6165adc8da33afc997acf508,64aeaab685a29f4ca249be02,64bec9c4f1188297851b60c0,down,-1,0.3071,0.35,8,0,0.9811,,,,,,214,0,214,0,1,,,,,
,,506522,001,2023-07-24_20h58.46.516,arm3_q,2022.2.5,Win32,61.10601894,6165adc8da33afc997acf508,64aeaab685a29f4ca249be02,64bec9c4f1188297851b60c0,down,1,0.3071,0.35,8,0,1.4874,,,,,,215,0,215,0,1,,,,,
,,506522,001,2023-07-24_20h58.46.516,arm3_q,2022.2.5,Win32,61.10601894,6165adc8da33afc997acf508,64aeaab685a29f4ca249be02,64bec9c4f1188297851b60c0,down,1,0.3071,0.35,8,0,0.7156,,,,,,216,0,216,0,1,,,,,
,,506522,001,2023-07-24_20h58.46.516,arm3_q,2022.2.5,Win32,61.10601894,6165adc8da33afc997acf508,64aeaab685a29f4ca249be02,64bec9c4f1188297851b60c0,up,-1,0.3071,0.35,8,0,0.7116,,,,,,217,0,217,0,1,,,,,
,,506522,001,2023-07-24_20h58.46.516,arm3_q,2022.2.5,Win32,61.10601894,6165adc8da33afc997acf508,64aeaab685a29f4ca249be02,64bec9c4f1188297851b60c0,up,-1,0.3071,0.35,8,0,1.0573,,,,,,218,0,218,0,1,,,,,
,,506522,001,2023-07-24_20h58.46.516,arm3_q,2022.2.5,Win32,61.10601894,6165adc8da33afc997acf508,64aeaab685a29f4ca249be02,64bec9c4f1188297851b60c0,up,-1,0.3071,0.35,8,0,0.883,,,,,,219,0,219,0,1,,,,,
,,506522,001,2023-07-24_20h58.46.516,arm3_q,2022.2.5,Win32,61.10601894,6165adc8da33afc997acf508,64aeaab685a29f4ca249be02,64bec9c4f1188297851b60c0,up,1,0.3071,0.35,8,0,0.8777,,,,,,220,0,220,0,1,,,,,
,,506522,001,2023-07-24_20h58.46.516,arm3_q,2022.2.5,Win32,61.10601894,6165adc8da33afc997acf508,64aeaab685a29f4ca249be02,64bec9c4f1188297851b60c0,up,1,0.3071,0.35,8,0,1.2097,,,,,,221,0,221,0,1,,,,,
,,506522,001,2023-07-24_20h58.46.516,arm3_q,2022.2.5,Win32,61.10601894,6165adc8da33afc997acf508,64aeaab685a29f4ca249be02,64bec9c4f1188297851b60c0,up,-1,0.3071,0.35,9,0,0.9037,,,,,,222,0,222,0,1,,,,,
,,506522,001,2023-07-24_20h58.46.516,arm3_q,2022.2.5,Win32,61.10601894,6165adc8da33afc997acf508,64aeaab685a29f4ca249be02,64bec9c4f1188297851b60c0,down,-1,0.3071,0.35,9,0,1.6304,,,,,,223,0,223,0,1,,,,,
,,506522,001,2023-07-24_20h58.46.516,arm3_q,2022.2.5,Win32,61.10601894,6165adc8da33afc997acf508,64aeaab685a29f4ca249be02,64bec9c4f1188297851b60c0,down,1,0.3071,0.35,9,0,0.6879,,,,,,224,0,224,0,1,,,,,
,,506522,001,2023-07-24_20h58.46.516,arm3_q,2022.2.5,Win32,61.10601894,6165adc8da33afc997acf508,64aeaab685a29f4ca249be02,64bec9c4f1188297851b60c0,up,-1,0.3071,0.35,9,0,0.7683,,,,,,225,0,225,0,1,,,,,
,,506522,001,2023-07-24_20h58.46.516,arm3_q,2022.2.5,Win32,61.10601894,6165adc8da33afc997acf508,64aeaab685a29f4ca249be02,64bec9c4f1188297851b60c0,down,-1,0.3071,0.35,9,0,0.7118,,,,,,226,0,226,0,1,,,,,
,,506522,001,2023-07-24_20h58.46.516,arm3_q,2022.2.5,Win32,61.10601894,6165adc8da33afc997acf508,64aeaab685a29f4ca249be02,64bec9c4f1188297851b60c0,down,1,0.3071,0.35,10,0,0.9814,,,,,,227,0,227,0,1,,,,,
,,506522,001,2023-07-24_20h58.46.516,arm3_q,2022.2.5,Win32,61.10601894,6165adc8da33afc997acf508,64aeaab685a29f4ca249be02,64bec9c4f1188297851b60c0,down,1,0.3071,0.35,9,0,2.9282,,,,,,228,0,228,0,1,,,,,
,,506522,001,2023-07-24_20h58.46.516,arm3_q,2022.2.5,Win32,61.10601894,6165adc8da33afc997acf508,64aeaab685a29f4ca249be02,64bec9c4f1188297851b60c0,up,-1,0.3071,0.35,10,0,0.8849,,,,,,229,0,229,0,1,,,,,
,,506522,001,2023-07-24_20h58.46.516,arm3_q,2022.2.5,Win32,61.10601894,6165adc8da33afc997acf508,64aeaab685a29f4ca249be02,64bec9c4f1188297851b60c0,up,-1,0.3071,0.35,10,0,0.964,,,,,,230,0,230,0,1,,,,,
,,506522,001,2023-07-24_20h58.46.516,arm3_q,2022.2.5,Win32,61.10601894,6165adc8da33afc997acf508,64aeaab685a29f4ca249be02,64bec9c4f1188297851b60c0,down,1,0.3071,0.35,10,0,0.8812,,,,,,231,0,231,0,1,,,,,
,,506522,001,2023-07-24_20h58.46.516,arm3_q,2022.2.5,Win32,61.10601894,6165adc8da33afc997acf508,64aeaab685a29f4ca249be02,64bec9c4f1188297851b60c0,up,1,0.3071,0.35,10,0,1.1151,,,,,,232,0,232,0,1,,,,,
,,506522,001,2023-07-24_20h58.46.516,arm3_q,2022.2.5,Win32,61.10601894,6165adc8da33afc997acf508,64aeaab685a29f4ca249be02,64bec9c4f1188297851b60c0,up,1,0.3071,0.35,10,0,0.9991,,,,,,233,0,233,0,1,,,,,
,,506522,001,2023-07-24_20h58.46.516,arm3_q,2022.2.5,Win32,61.10601894,6165adc8da33afc997acf508,64aeaab685a29f4ca249be02,64bec9c4f1188297851b60c0,down,1,0.3071,0.35,10,0,1.2343,,,,,,234,0,234,0,1,,,,,
,,506522,001,2023-07-24_20h58.46.516,arm3_q,2022.2.5,Win32,61.10601894,6165adc8da33afc997acf508,64aeaab685a29f4ca249be02,64bec9c4f1188297851b60c0,down,-1,0.3071,0.35,10,0,0.8999,,,,,,235,0,235,0,1,,,,,
,,506522,001,2023-07-24_20h58.46.516,arm3_q,2022.2.5,Win32,61.10601894,6165adc8da33afc997acf508,64aeaab685a29f4ca249be02,64bec9c4f1188297851b60c0,up,-1,0.3071,0.35,10,0,0.7831,,,,,,236,0,236,0,1,,,,,
,,506522,001,2023-07-24_20h58.46.516,arm3_q,2022.2.5,Win32,61.10601894,6165adc8da33afc997acf508,64aeaab685a29f4ca249be02,64bec9c4f1188297851b60c0,down,1,0.3071,0.35,10,0,0.746,,,,,,237,0,237,0,1,,,,,
,,506522,001,2023-07-24_20h58.46.516,arm3_q,2022.2.5,Win32,61.10601894,6165adc8da33afc997acf508,64aeaab685a29f4ca249be02,64bec9c4f1188297851b60c0,down,1,0.3071,0.35,10,0,0.8157,,,,,,238,0,238,0,1,,,,,
,,506522,001,2023-07-24_20h58.46.516,arm3_q,2022.2.5,Win32,61.10601894,6165adc8da33afc997acf508,64aeaab685a29f4ca249be02,64bec9c4f1188297851b60c0,up,-1,0.3071,0.35,10,0,0.9829,,,,,,239,0,239,0,1,,,,,
,,506522,001,2023-07-24_20h58.46.516,arm3_q,2022.2.5,Win32,61.10601894,6165adc8da33afc997acf508,64aeaab685a29f4ca249be02,64bec9c4f1188297851b60c0,down,-1,0.3071,0.35,11,0,1.0494,,,,,,240,0,240,0,1,,,,,
,,506522,001,2023-07-24_20h58.46.516,arm3_q,2022.2.5,Win32,61.10601894,6165adc8da33afc997acf508,64aeaab685a29f4ca249be02,64bec9c4f1188297851b60c0,up,-1,0.3071,0.35,11,0,1.526,,,,,,241,0,241,0,1,,,,,
,,506522,001,2023-07-24_20h58.46.516,arm3_q,2022.2.5,Win32,61.10601894,6165adc8da33afc997acf508,64aeaab685a29f4ca249be02,64bec9c4f1188297851b60c0,up,-1,0.3071,0.35,11,0,0.8315,,,,,,242,0,242,0,1,,,,,
,,506522,001,2023-07-24_20h58.46.516,arm3_q,2022.2.5,Win32,61.10601894,6165adc8da33afc997acf508,64aeaab685a29f4ca249be02,64bec9c4f1188297851b60c0,down,-1,0.3071,0.35,11,0,0.9182,,,,,,243,0,243,0,1,,,,,
,,506522,001,2023-07-24_20h58.46.516,arm3_q,2022.2.5,Win32,61.10601894,6165adc8da33afc997acf508,64aeaab685a29f4ca249be02,64bec9c4f1188297851b60c0,up,-1,0.3071,0.35,11,0,0.8175,,,,,,244,0,244,0,1,,,,,
,,506522,001,2023-07-24_20h58.46.516,arm3_q,2022.2.5,Win32,61.10601894,6165adc8da33afc997acf508,64aeaab685a29f4ca249be02,64bec9c4f1188297851b60c0,up,-1,0.3071,0.35,11,0,0.865,,,,,,245,0,245,0,1,,,,,
,,506522,001,2023-07-24_20h58.46.516,arm3_q,2022.2.5,Win32,61.10601894,6165adc8da33afc997acf508,64aeaab685a29f4ca249be02,64bec9c4f1188297851b60c0,up,-1,0.3071,0.35,11,0,0.9829,,,,,,246,0,246,0,1,,,,,
,,506522,001,2023-07-24_20h58.46.516,arm3_q,2022.2.5,Win32,61.10601894,6165adc8da33afc997acf508,64aeaab685a29f4ca249be02,64bec9c4f1188297851b60c0,down,-1,0.3071,0.35,11,0,1.3829,,,,,,247,0,247,0,1,,,,,
,,506522,001,2023-07-24_20h58.46.516,arm3_q,2022.2.5,Win32,61.10601894,6165adc8da33afc997acf508,64aeaab685a29f4ca249be02,64bec9c4f1188297851b60c0,up,-1,0.3071,0.35,11,0,2.2957,,,,,,248,0,248,0,1,,,,,
,,506522,001,2023-07-24_20h58.46.516,arm3_q,2022.2.5,Win32,61.10601894,6165adc8da33afc997acf508,64aeaab685a29f4ca249be02,64bec9c4f1188297851b60c0,up,1,0.3071,0.35,11,0,1.0179,,,,,,249,0,249,0,1,,,,,
,,506522,001,2023-07-24_20h58.46.516,arm3_q,2022.2.5,Win32,61.10601894,6165adc8da33afc997acf508,64aeaab685a29f4ca249be02,64bec9c4f1188297851b60c0,up,1,0.3071,0.35,11,0,1.4463,,,,,,250,0,250,0,1,,,,,
,,506522,001,2023-07-24_20h58.46.516,arm3_q,2022.2.5,Win32,61.10601894,6165adc8da33afc997acf508,64aeaab685a29f4ca249be02,64bec9c4f1188297851b60c0,up,-1,0.3071,0.35,12,0,1.2818,,,,,,251,0,251,0,1,,,,,
,,506522,001,2023-07-24_20h58.46.516,arm3_q,2022.2.5,Win32,61.10601894,6165adc8da33afc997acf508,64aeaab685a29f4ca249be02,64bec9c4f1188297851b60c0,down,-1,0.3071,0.35,12,0,1.4949,,,,,,252,0,252,0,1,,,,,
,,506522,001,2023-07-24_20h58.46.516,arm3_q,2022.2.5,Win32,61.10601894,6165adc8da33afc997acf508,64aeaab685a29f4ca249be02,64bec9c4f1188297851b60c0,down,1,0.3071,0.35,12,0,0.6987,,,,,,253,0,253,0,1,,,,,
,,506522,001,2023-07-24_20h58.46.516,arm3_q,2022.2.5,Win32,61.10601894,6165adc8da33afc997acf508,64aeaab685a29f4ca249be02,64bec9c4f1188297851b60c0,up,-1,0.3071,0.35,13,0,0.9613,,,,,,254,0,254,0,1,,,,,
,,506522,001,2023-07-24_20h58.46.516,arm3_q,2022.2.5,Win32,61.10601894,6165adc8da33afc997acf508,64aeaab685a29f4ca249be02,64bec9c4f1188297851b60c0,down,-1,0.3071,0.35,14,0,1.0443,,,,,,255,0,255,0,1,,,,,
,,506522,001,2023-07-24_20h58.46.516,arm3_q,2022.2.5,Win32,61.10601894,6165adc8da33afc997acf508,64aeaab685a29f4ca249be02,64bec9c4f1188297851b60c0,up,-1,0.3071,0.35,13,0,1.1145,,,,,,256,0,256,0,1,,,,,
,,506522,001,2023-07-24_20h58.46.516,arm3_q,2022.2.5,Win32,61.10601894,6165adc8da33afc997acf508,64aeaab685a29f4ca249be02,64bec9c4f1188297851b60c0,down,-1,0.3071,0.35,14,0,1.414,,,,,,257,0,257,0,1,,,,,
,,506522,001,2023-07-24_20h58.46.516,arm3_q,2022.2.5,Win32,61.10601894,6165adc8da33afc997acf508,64aeaab685a29f4ca249be02,64bec9c4f1188297851b60c0,down,1,0.3071,0.35,14,0,1.0308,,,,,,258,0,258,0,1,,,,,
,,506522,001,2023-07-24_20h58.46.516,arm3_q,2022.2.5,Win32,61.10601894,6165adc8da33afc997acf508,64aeaab685a29f4ca249be02,64bec9c4f1188297851b60c0,down,1,0.3071,0.35,13,0,0.8449,,,,,,259,0,259,0,1,,,,,
,,506522,001,2023-07-24_20h58.46.516,arm3_q,2022.2.5,Win32,61.10601894,6165adc8da33afc997acf508,64aeaab685a29f4ca249be02,64bec9c4f1188297851b60c0,up,1,0.3071,0.35,13,0,0.98,,,,,,260,0,260,0,1,,,,,
,,506522,001,2023-07-24_20h58.46.516,arm3_q,2022.2.5,Win32,61.10601894,6165adc8da33afc997acf508,64aeaab685a29f4ca249be02,64bec9c4f1188297851b60c0,down,1,0.3071,0.35,13,0,0.6148,,,,,,261,0,261,0,1,,,,,
,,506522,001,2023-07-24_20h58.46.516,arm3_q,2022.2.5,Win32,61.10601894,6165adc8da33afc997acf508,64aeaab685a29f4ca249be02,64bec9c4f1188297851b60c0,down,1,0.3071,0.35,12,0,0.9144,,,,,,262,0,262,0,1,,,,,
,,506522,001,2023-07-24_20h58.46.516,arm3_q,2022.2.5,Win32,61.10601894,6165adc8da33afc997acf508,64aeaab685a29f4ca249be02,64bec9c4f1188297851b60c0,up,1,0.3071,0.35,13,0,0.9472,,,,,,263,0,263,0,1,,,,,
,,506522,001,2023-07-24_20h58.46.516,arm3_q,2022.2.5,Win32,61.10601894,6165adc8da33afc997acf508,64aeaab685a29f4ca249be02,64bec9c4f1188297851b60c0,up,1,0.3071,0.35,13,0,0.8843,,,,,,264,0,264,0,1,,,,,
,,506522,001,2023-07-24_20h58.46.516,arm3_q,2022.2.5,Win32,61.10601894,6165adc8da33afc997acf508,64aeaab685a29f4ca249be02,64bec9c4f1188297851b60c0,up,-1,0.3071,0.35,14,0,0.6996,,,,,,265,0,265,0,1,,,,,
,,506522,001,2023-07-24_20h58.46.516,arm3_q,2022.2.5,Win32,61.10601894,6165adc8da33afc997acf508,64aeaab685a29f4ca249be02,64bec9c4f1188297851b60c0,up,-1,0.3071,0.35,14,0,0.912,,,,,,266,0,266,0,1,,,,,
,,506522,001,2023-07-24_20h58.46.516,arm3_q,2022.2.5,Win32,61.10601894,6165adc8da33afc997acf508,64aeaab685a29f4ca249be02,64bec9c4f1188297851b60c0,up,-1,0.3071,0.35,14,0,0.9147,,,,,,267,0,267,0,1,,,,,
,,506522,001,2023-07-24_20h58.46.516,arm3_q,2022.2.5,Win32,61.10601894,6165adc8da33afc997acf508,64aeaab685a29f4ca249be02,64bec9c4f1188297851b60c0,up,-1,0.3071,0.35,14,0,0.7275,,,,,,268,0,268,0,1,,,,,
,,506522,001,2023-07-24_20h58.46.516,arm3_q,2022.2.5,Win32,61.10601894,6165adc8da33afc997acf508,64aeaab685a29f4ca249be02,64bec9c4f1188297851b60c0,up,-1,0.3071,0.35,14,0,1.7463,,,,,,269,0,269,0,1,,,,,
,,506522,001,2023-07-24_20h58.46.516,arm3_q,2022.2.5,Win32,61.10601894,6165adc8da33afc997acf508,64aeaab685a29f4ca249be02,64bec9c4f1188297851b60c0,up,1,0.3071,0.35,13,0,0.7099,,,,,,270,0,270,0,1,,,,,
,,506522,001,2023-07-24_20h58.46.516,arm3_q,2022.2.5,Win32,61.10601894,6165adc8da33afc997acf508,64aeaab685a29f4ca249be02,64bec9c4f1188297851b60c0,down,1,0.3071,0.35,13,0,0.9461,,,,,,271,0,271,0,1,,,,,
,,506522,001,2023-07-24_20h58.46.516,arm3_q,2022.2.5,Win32,61.10601894,6165adc8da33afc997acf508,64aeaab685a29f4ca249be02,64bec9c4f1188297851b60c0,down,1,0.3071,0.35,13,0,0.6233,,,,,,272,0,272,0,1,,,,,
,,506522,001,2023-07-24_20h58.46.516,arm3_q,2022.2.5,Win32,61.10601894,6165adc8da33afc997acf508,64aeaab685a29f4ca249be02,64bec9c4f1188297851b60c0,up,1,0.3071,0.35,13,0,1.0751,,,,,,273,0,273,0,1,,,,,
,,506522,001,2023-07-24_20h58.46.516,arm3_q,2022.2.5,Win32,61.10601894,6165adc8da33afc997acf508,64aeaab685a29f4ca249be02,64bec9c4f1188297851b60c0,down,1,0.3071,0.35,12,0,0.9245,,,,,,274,0,274,0,1,,,,,
,,506522,001,2023-07-24_20h58.46.516,arm3_q,2022.2.5,Win32,61.10601894,6165adc8da33afc997acf508,64aeaab685a29f4ca249be02,64bec9c4f1188297851b60c0,up,1,0.3071,0.35,12,0,0.8764,,,,,,275,0,275,0,1,,,,,
,,506522,001,2023-07-24_20h58.46.516,arm3_q,2022.2.5,Win32,61.10601894,6165adc8da33afc997acf508,64aeaab685a29f4ca249be02,64bec9c4f1188297851b60c0,up,-1,0.3071,0.35,12,0,0.5371,,,,,,276,0,276,0,1,,,,,
,,506522,001,2023-07-24_20h58.46.516,arm3_q,2022.2.5,Win32,61.10601894,6165adc8da33afc997acf508,64aeaab685a29f4ca249be02,64bec9c4f1188297851b60c0,up,-1,0.3071,0.35,12,0,1.0336,,,,,,277,0,277,0,1,,,,,
,,506522,001,2023-07-24_20h58.46.516,arm3_q,2022.2.5,Win32,61.10601894,6165adc8da33afc997acf508,64aeaab685a29f4ca249be02,64bec9c4f1188297851b60c0,up,-1,0.3071,0.35,12,0,1.1161,,,,,,278,0,278,0,1,,,,,
,,506522,001,2023-07-24_20h58.46.516,arm3_q,2022.2.5,Win32,61.10601894,6165adc8da33afc997acf508,64aeaab685a29f4ca249be02,64bec9c4f1188297851b60c0,up,-1,0.3071,0.35,11,0,0.8597,,,,,,279,0,279,0,1,,,,,
,,506522,001,2023-07-24_20h58.46.516,arm3_q,2022.2.5,Win32,61.10601894,6165adc8da33afc997acf508,64aeaab685a29f4ca249be02,64bec9c4f1188297851b60c0,down,1,0.3071,0.35,11,0,0.8956,,,,,,280,0,280,0,1,,,,,
,,506522,001,2023-07-24_20h58.46.516,arm3_q,2022.2.5,Win32,61.10601894,6165adc8da33afc997acf508,64aeaab685a29f4ca249be02,64bec9c4f1188297851b60c0,down,1,0.3071,0.35,11,0,0.8479,,,,,,281,0,281,0,1,,,,,
,,506522,001,2023-07-24_20h58.46.516,arm3_q,2022.2.5,Win32,61.10601894,6165adc8da33afc997acf508,64aeaab685a29f4ca249be02,64bec9c4f1188297851b60c0,up,-1,0.3071,0.35,11,0,0.8986,,,,,,282,0,282,0,1,,,,,
,,506522,001,2023-07-24_20h58.46.516,arm3_q,2022.2.5,Win32,61.10601894,6165adc8da33afc997acf508,64aeaab685a29f4ca249be02,64bec9c4f1188297851b60c0,down,-1,0.3071,0.35,11,0,0.6448,,,,,,283,0,283,0,1,,,,,
,,506522,001,2023-07-24_20h58.46.516,arm3_q,2022.2.5,Win32,61.10601894,6165adc8da33afc997acf508,64aeaab685a29f4ca249be02,64bec9c4f1188297851b60c0,down,1,0.3071,0.35,12,0,0.8171,,,,,,284,0,284,0,1,,,,,
,,506522,001,2023-07-24_20h58.46.516,arm3_q,2022.2.5,Win32,61.10601894,6165adc8da33afc997acf508,64aeaab685a29f4ca249be02,64bec9c4f1188297851b60c0,down,1,0.3071,0.35,12,0,1.0191,,,,,,285,0,285,0,1,,,,,
,,506522,001,2023-07-24_20h58.46.516,arm3_q,2022.2.5,Win32,61.10601894,6165adc8da33afc997acf508,64aeaab685a29f4ca249be02,64bec9c4f1188297851b60c0,down,-1,0.3071,0.35,12,0,0.7868,,,,,,286,0,286,0,1,,,,,
,,506522,001,2023-07-24_20h58.46.516,arm3_q,2022.2.5,Win32,61.10601894,6165adc8da33afc997acf508,64aeaab685a29f4ca249be02,64bec9c4f1188297851b60c0,down,-1,0.3071,0.35,12,0,0.8491,,,,,,287,0,287,0,1,,,,,
,,506522,001,2023-07-24_20h58.46.516,arm3_q,2022.2.5,Win32,61.10601894,6165adc8da33afc997acf508,64aeaab685a29f4ca249be02,64bec9c4f1188297851b60c0,down,-1,0.3071,0.35,12,0,0.9,,,,,,288,0,288,0,1,,,,,
,,506522,001,2023-07-24_20h58.46.516,arm3_q,2022.2.5,Win32,61.10601894,6165adc8da33afc997acf508,64aeaab685a29f4ca249be02,64bec9c4f1188297851b60c0,down,1,0.3071,0.35,13,0,1.0462,,,,,,289,0,289,0,1,,,,,
,,506522,001,2023-07-24_20h58.46.516,arm3_q,2022.2.5,Win32,61.10601894,6165adc8da33afc997acf508,64aeaab685a29f4ca249be02,64bec9c4f1188297851b60c0,down,1,0.3071,0.35,13,0,2.5141,,,,,,290,0,290,0,1,,,,,
,,506522,001,2023-07-24_20h58.46.516,arm3_q,2022.2.5,Win32,61.10601894,6165adc8da33afc997acf508,64aeaab685a29f4ca249be02,64bec9c4f1188297851b60c0,up,1,0.3071,0.35,13,0,1.758,,,,,,291,0,291,0,1,,,,,
,,506522,001,2023-07-24_20h58.46.516,arm3_q,2022.2.5,Win32,61.10601894,6165adc8da33afc997acf508,64aeaab685a29f4ca249be02,64bec9c4f1188297851b60c0,up,1,0.3071,0.35,13,0,1.3112,,,,,,292,0,292,0,1,,,,,
,,506522,001,2023-07-24_20h58.46.516,arm3_q,2022.2.5,Win32,61.10601894,6165adc8da33afc997acf508,64aeaab685a29f4ca249be02,64bec9c4f1188297851b60c0,up,-1,0.3071,0.35,13,0,1.2739,,,,,,293,0,293,0,1,,,,,
,,506522,001,2023-07-24_20h58.46.516,arm3_q,2022.2.5,Win32,61.10601894,6165adc8da33afc997acf508,64aeaab685a29f4ca249be02,64bec9c4f1188297851b60c0,down,1,0.3071,0.35,14,0,1.0898,,,,,,294,0,294,0,1,,,,,
,,506522,001,2023-07-24_20h58.46.516,arm3_q,2022.2.5,Win32,61.10601894,6165adc8da33afc997acf508,64aeaab685a29f4ca249be02,64bec9c4f1188297851b60c0,up,-1,0.3071,0.35,14,0,1.1884,,,,,,295,0,295,0,1,,,,,
,,506522,001,2023-07-24_20h58.46.516,arm3_q,2022.2.5,Win32,61.10601894,6165adc8da33afc997acf508,64aeaab685a29f4ca249be02,64bec9c4f1188297851b60c0,up,1,0.3071,0.35,14,0,0.8466,,,,,,296,0,296,0,1,,,,,
,,506522,001,2023-07-24_20h58.46.516,arm3_q,2022.2.5,Win32,61.10601894,6165adc8da33afc997acf508,64aeaab685a29f4ca249be02,64bec9c4f1188297851b60c0,down,1,0.3071,0.35,14,0,0.762,,,,,,297,0,297,0,1,,,,,
,,506522,001,2023-07-24_20h58.46.516,arm3_q,2022.2.5,Win32,61.10601894,6165adc8da33afc997acf508,64aeaab685a29f4ca249be02,64bec9c4f1188297851b60c0,down,-1,0.3071,0.35,13,0,1.0429,,,,,,298,0,298,0,1,,,,,
,,506522,001,2023-07-24_20h58.46.516,arm3_q,2022.2.5,Win32,61.10601894,6165adc8da33afc997acf508,64aeaab685a29f4ca249be02,64bec9c4f1188297851b60c0,up,-1,0.3071,0.35,13,0,0.8413,,,,,,299,0,299,0,1,,,,,
,,506522,001,2023-07-24_20h58.46.516,arm3_q,2022.2.5,Win32,61.10601894,6165adc8da33afc997acf508,64aeaab685a29f4ca249be02,64bec9c4f1188297851b60c0,up,-1,0.3071,0.35,13,0,1.48,,,,,,300,0,300,0,1,,,,,
,,506522,001,2023-07-24_20h58.46.516,arm3_q,2022.2.5,Win32,61.10601894,6165adc8da33afc997acf508,64aeaab685a29f4ca249be02,64bec9c4f1188297851b60c0,down,1,0.3071,0.35,14,0,1.9426,,,,,,301,0,301,0,1,,,,,
,,506522,001,2023-07-24_20h58.46.516,arm3_q,2022.2.5,Win32,61.10601894,6165adc8da33afc997acf508,64aeaab685a29f4ca249be02,64bec9c4f1188297851b60c0,down,-1,0.3071,0.35,14,0,1.0844,,,,,,302,0,302,0,1,,,,,
,,506522,001,2023-07-24_20h58.46.516,arm3_q,2022.2.5,Win32,61.10601894,6165adc8da33afc997acf508,64aeaab685a29f4ca249be02,64bec9c4f1188297851b60c0,down,-1,0.3071,0.35,14,0,0.6875,,,,,,303,0,303,0,1,,,,,
,,506522,001,2023-07-24_20h58.46.516,arm3_q,2022.2.5,Win32,61.10601894,6165adc8da33afc997acf508,64aeaab685a29f4ca249be02,64bec9c4f1188297851b60c0,down,1,0.3071,0.35,14,0,1.205,,,,,,304,0,304,0,1,,,,,
,,506522,001,2023-07-24_20h58.46.516,arm3_q,2022.2.5,Win32,61.10601894,6165adc8da33afc997acf508,64aeaab685a29f4ca249be02,64bec9c4f1188297851b60c0,up,-1,0.3071,0.35,14,0,1.1744,,,,,,305,0,305,0,1,,,,,
,,506522,001,2023-07-24_20h58.46.516,arm3_q,2022.2.5,Win32,61.10601894,6165adc8da33afc997acf508,64aeaab685a29f4ca249be02,64bec9c4f1188297851b60c0,down,-1,0.3071,0.35,15,0,0.7718,,,,,,306,0,306,0,1,,,,,
,,506522,001,2023-07-24_20h58.46.516,arm3_q,2022.2.5,Win32,61.10601894,6165adc8da33afc997acf508,64aeaab685a29f4ca249be02,64bec9c4f1188297851b60c0,down,1,0.3071,0.35,15,0,1.0203,,,,,,307,0,307,0,1,,,,,
,,506522,001,2023-07-24_20h58.46.516,arm3_q,2022.2.5,Win32,61.10601894,6165adc8da33afc997acf508,64aeaab685a29f4ca249be02,64bec9c4f1188297851b60c0,down,-1,0.3071,0.35,15,0,0.6864,,,,,,308,0,308,0,1,,,,,
,,506522,001,2023-07-24_20h58.46.516,arm3_q,2022.2.5,Win32,61.10601894,6165adc8da33afc997acf508,64aeaab685a29f4ca249be02,64bec9c4f1188297851b60c0,down,-1,0.3071,0.35,16,0,0.8735,,,,,,309,0,309,0,1,,,,,
,,506522,001,2023-07-24_20h58.46.516,arm3_q,2022.2.5,Win32,61.10601894,6165adc8da33afc997acf508,64aeaab685a29f4ca249be02,64bec9c4f1188297851b60c0,down,-1,0.3071,0.35,16,0,0.9946,,,,,,310,0,310,0,1,,,,,
,,506522,001,2023-07-24_20h58.46.516,arm3_q,2022.2.5,Win32,61.10601894,6165adc8da33afc997acf508,64aeaab685a29f4ca249be02,64bec9c4f1188297851b60c0,down,-1,0.3071,0.35,16,0,0.7164,,,,,,311,0,311,0,1,,,,,
,,506522,001,2023-07-24_20h58.46.516,arm3_q,2022.2.5,Win32,61.10601894,6165adc8da33afc997acf508,64aeaab685a29f4ca249be02,64bec9c4f1188297851b60c0,up,1,0.3071,0.35,16,0,0.8445,,,,,,312,0,312,0,1,,,,,
,,506522,001,2023-07-24_20h58.46.516,arm3_q,2022.2.5,Win32,61.10601894,6165adc8da33afc997acf508,64aeaab685a29f4ca249be02,64bec9c4f1188297851b60c0,up,-1,0.3071,0.35,16,0,0.8289,,,,,,313,0,313,0,1,,,,,
,,506522,001,2023-07-24_20h58.46.516,arm3_q,2022.2.5,Win32,61.10601894,6165adc8da33afc997acf508,64aeaab685a29f4ca249be02,64bec9c4f1188297851b60c0,down,-1,0.3071,0.35,17,0,0.9478,,,,,,314,0,314,0,1,,,,,
,,506522,001,2023-07-24_20h58.46.516,arm3_q,2022.2.5,Win32,61.10601894,6165adc8da33afc997acf508,64aeaab685a29f4ca249be02,64bec9c4f1188297851b60c0,up,-1,0.3071,0.35,17,0,0.8502,,,,,,315,0,315,0,1,,,,,
,,506522,001,2023-07-24_20h58.46.516,arm3_q,2022.2.5,Win32,61.10601894,6165adc8da33afc997acf508,64aeaab685a29f4ca249be02,64bec9c4f1188297851b60c0,up,1,0.3071,0.35,16,0,0.7151,,,,,,316,0,316,0,1,,,,,
,,506522,001,2023-07-24_20h58.46.516,arm3_q,2022.2.5,Win32,61.10601894,6165adc8da33afc997acf508,64aeaab685a29f4ca249be02,64bec9c4f1188297851b60c0,down,1,0.3071,0.35,15,0,0.9458,,,,,,317,0,317,0,1,,,,,
,,506522,001,2023-07-24_20h58.46.516,arm3_q,2022.2.5,Win32,61.10601894,6165adc8da33afc997acf508,64aeaab685a29f4ca249be02,64bec9c4f1188297851b60c0,down,1,0.3071,0.35,14,0,1.45,,,,,,318,0,318,0,1,,,,,
,,506522,001,2023-07-24_20h58.46.516,arm3_q,2022.2.5,Win32,61.10601894,6165adc8da33afc997acf508,64aeaab685a29f4ca249be02,64bec9c4f1188297851b60c0,up,1,0.3071,0.35,15,0,0.9826,,,,,,319,0,319,0,1,,,,,
,,506522,001,2023-07-24_20h58.46.516,arm3_q,2022.2.5,Win32,61.10601894,6165adc8da33afc997acf508,64aeaab685a29f4ca249be02,64bec9c4f1188297851b60c0,up,-1,0.3071,0.35,15,0,1.6946,,,,,,320,0,320,0,1,,,,,
,,506522,001,2023-07-24_20h58.46.516,arm3_q,2022.2.5,Win32,61.10601894,6165adc8da33afc997acf508,64aeaab685a29f4ca249be02,64bec9c4f1188297851b60c0,up,-1,0.3071,0.35,14,0,0.8763,,,,,,321,0,321,0,1,,,,,
,,506522,001,2023-07-24_20h58.46.516,arm3_q,2022.2.5,Win32,61.10601894,6165adc8da33afc997acf508,64aeaab685a29f4ca249be02,64bec9c4f1188297851b60c0,down,-1,0.3071,0.35,15,0,0.9523,,,,,,322,0,322,0,1,,,,,
,,506522,001,2023-07-24_20h58.46.516,arm3_q,2022.2.5,Win32,61.10601894,6165adc8da33afc997acf508,64aeaab685a29f4ca249be02,64bec9c4f1188297851b60c0,down,1,0.3071,0.35,15,0,0.9001,,,,,,323,0,323,0,1,,,,,
,,506522,001,2023-07-24_20h58.46.516,arm3_q,2022.2.5,Win32,61.10601894,6165adc8da33afc997acf508,64aeaab685a29f4ca249be02,64bec9c4f1188297851b60c0,down,1,0.3071,0.35,15,0,0.7334,,,,,,324,0,324,0,1,,,,,
,,506522,001,2023-07-24_20h58.46.516,arm3_q,2022.2.5,Win32,61.10601894,6165adc8da33afc997acf508,64aeaab685a29f4ca249be02,64bec9c4f1188297851b60c0,up,1,0.3071,0.35,15,0,0.9336,,,,,,325,0,325,0,1,,,,,
,,506522,001,2023-07-24_20h58.46.516,arm3_q,2022.2.5,Win32,61.10601894,6165adc8da33afc997acf508,64aeaab685a29f4ca249be02,64bec9c4f1188297851b60c0,up,1,0.3071,0.35,15,0,0.9519,,,,,,326,0,326,0,1,,,,,
,,506522,001,2023-07-24_20h58.46.516,arm3_q,2022.2.5,Win32,61.10601894,6165adc8da33afc997acf508,64aeaab685a29f4ca249be02,64bec9c4f1188297851b60c0,up,-1,0.3071,0.35,15,0,0.9746,,,,,,327,0,327,0,1,,,,,
,,506522,001,2023-07-24_20h58.46.516,arm3_q,2022.2.5,Win32,61.10601894,6165adc8da33afc997acf508,64aeaab685a29f4ca249be02,64bec9c4f1188297851b60c0,down,1,0.3071,0.35,15,0,1.2472,,,,,,328,0,328,0,1,,,,,
,,506522,001,2023-07-24_20h58.46.516,arm3_q,2022.2.5,Win32,61.10601894,6165adc8da33afc997acf508,64aeaab685a29f4ca249be02,64bec9c4f1188297851b60c0,up,-1,0.3071,0.35,15,0,0.8508,,,,,,329,0,329,0,1,,,,,
,,506522,001,2023-07-24_20h58.46.516,arm3_q,2022.2.5,Win32,61.10601894,6165adc8da33afc997acf508,64aeaab685a29f4ca249be02,64bec9c4f1188297851b60c0,down,-1,0.3071,0.35,15,0,0.7613,,,,,,330,0,330,0,1,,,,,
,,506522,001,2023-07-24_20h58.46.516,arm3_q,2022.2.5,Win32,61.10601894,6165adc8da33afc997acf508,64aeaab685a29f4ca249be02,64bec9c4f1188297851b60c0,up,-1,0.3071,0.35,14,0,0.8591,,,,,,331,0,331,0,1,,,,,
,,506522,001,2023-07-24_20h58.46.516,arm3_q,2022.2.5,Win32,61.10601894,6165adc8da33afc997acf508,64aeaab685a29f4ca249be02,64bec9c4f1188297851b60c0,down,-1,0.3071,0.35,15,0,0.8592,,,,,,332,0,332,0,1,,,,,
,,506522,001,2023-07-24_20h58.46.516,arm3_q,2022.2.5,Win32,61.10601894,6165adc8da33afc997acf508,64aeaab685a29f4ca249be02,64bec9c4f1188297851b60c0,down,-1,0.3071,0.35,16,0,0.8848,,,,,,333,0,333,0,1,,,,,
,,506522,001,2023-07-24_20h58.46.516,arm3_q,2022.2.5,Win32,61.10601894,6165adc8da33afc997acf508,64aeaab685a29f4ca249be02,64bec9c4f1188297851b60c0,down,-1,0.3071,0.35,16,0,0.8278,,,,,,334,0,334,0,1,,,,,
,,506522,001,2023-07-24_20h58.46.516,arm3_q,2022.2.5,Win32,61.10601894,6165adc8da33afc997acf508,64aeaab685a29f4ca249be02,64bec9c4f1188297851b60c0,down,-1,0.3071,0.35,16,0,0.6872,,,,,,335,0,335,0,1,,,,,
,,506522,001,2023-07-24_20h58.46.516,arm3_q,2022.2.5,Win32,61.10601894,6165adc8da33afc997acf508,64aeaab685a29f4ca249be02,64bec9c4f1188297851b60c0,down,-1,0.3071,0.35,16,0,0.8279,,,,,,336,0,336,0,1,,,,,
,,506522,001,2023-07-24_20h58.46.516,arm3_q,2022.2.5,Win32,61.10601894,6165adc8da33afc997acf508,64aeaab685a29f4ca249be02,64bec9c4f1188297851b60c0,down,-1,0.3071,0.35,16,0,0.7325,,,,,,337,0,337,0,1,,,,,
,,506522,001,2023-07-24_20h58.46.516,arm3_q,2022.2.5,Win32,61.10601894,6165adc8da33afc997acf508,64aeaab685a29f4ca249be02,64bec9c4f1188297851b60c0,down,-1,0.3071,0.35,16,0,0.6432,,,,,,338,0,338,0,1,,,,,
,,506522,001,2023-07-24_20h58.46.516,arm3_q,2022.2.5,Win32,61.10601894,6165adc8da33afc997acf508,64aeaab685a29f4ca249be02,64bec9c4f1188297851b60c0,down,-1,0.3071,0.35,16,0,1.7565,,,,,,339,0,339,0,1,,,,,
,,506522,001,2023-07-24_20h58.46.516,arm3_q,2022.2.5,Win32,61.10601894,6165adc8da33afc997acf508,64aeaab685a29f4ca249be02,64bec9c4f1188297851b60c0,down,-1,0.3071,0.35,16,0,0.8078,,,,,,340,0,340,0,1,,,,,
,,506522,001,2023-07-24_20h58.46.516,arm3_q,2022.2.5,Win32,61.10601894,6165adc8da33afc997acf508,64aeaab685a29f4ca249be02,64bec9c4f1188297851b60c0,up,1,0.3071,0.35,15,0,0.8783,,,,,,341,0,341,0,1,,,,,
,,506522,001,2023-07-24_20h58.46.516,arm3_q,2022.2.5,Win32,61.10601894,6165adc8da33afc997acf508,64aeaab685a29f4ca249be02,64bec9c4f1188297851b60c0,down,-1,0.3071,0.35,15,0,0.8582,,,,,,342,0,342,0,1,,,,,
,,506522,001,2023-07-24_20h58.46.516,arm3_q,2022.2.5,Win32,61.10601894,6165adc8da33afc997acf508,64aeaab685a29f4ca249be02,64bec9c4f1188297851b60c0,down,-1,0.3071,0.35,16,0,0.5236,,,,,,343,0,343,0,1,,,,,
,,506522,001,2023-07-24_20h58.46.516,arm3_q,2022.2.5,Win32,61.10601894,6165adc8da33afc997acf508,64aeaab685a29f4ca249be02,64bec9c4f1188297851b60c0,down,-1,0.3071,0.35,17,0,0.9096,,,,,,344,0,344,0,1,,,,,
,,506522,001,2023-07-24_20h58.46.516,arm3_q,2022.2.5,Win32,61.10601894,6165adc8da33afc997acf508,64aeaab685a29f4ca249be02,64bec9c4f1188297851b60c0,down,-1,0.3071,0.35,17,0,0.7672,,,,,,345,0,345,0,1,,,,,
,,506522,001,2023-07-24_20h58.46.516,arm3_q,2022.2.5,Win32,61.10601894,6165adc8da33afc997acf508,64aeaab685a29f4ca249be02,64bec9c4f1188297851b60c0,down,-1,0.3071,0.35,17,0,0.5993,,,,,,346,0,346,0,1,,,,,
,,506522,001,2023-07-24_20h58.46.516,arm3_q,2022.2.5,Win32,61.10601894,6165adc8da33afc997acf508,64aeaab685a29f4ca249be02,64bec9c4f1188297851b60c0,down,1,0.3071,0.35,18,0,0.7743,,,,,,347,0,347,0,1,,,,,
,,506522,001,2023-07-24_20h58.46.516,arm3_q,2022.2.5,Win32,61.10601894,6165adc8da33afc997acf508,64aeaab685a29f4ca249be02,64bec9c4f1188297851b60c0,down,-1,0.3071,0.35,18,0,0.7835,,,,,,348,0,348,0,1,,,,,
,,506522,001,2023-07-24_20h58.46.516,arm3_q,2022.2.5,Win32,61.10601894,6165adc8da33afc997acf508,64aeaab685a29f4ca249be02,64bec9c4f1188297851b60c0,down,-1,0.3071,0.35,19,0,0.6233,,,,,,349,0,349,0,1,,,,,
,,506522,001,2023-07-24_20h58.46.516,arm3_q,2022.2.5,Win32,61.10601894,6165adc8da33afc997acf508,64aeaab685a29f4ca249be02,64bec9c4f1188297851b60c0,down,1,0.3071,0.35,19,0,0.9627,,,,,,350,0,350,0,1,,,,,
,,506522,001,2023-07-24_20h58.46.516,arm3_q,2022.2.5,Win32,61.10601894,6165adc8da33afc997acf508,64aeaab685a29f4ca249be02,64bec9c4f1188297851b60c0,down,1,0.3071,0.35,19,0,0.6394,,,,,,351,0,351,0,1,,,,,
,,506522,001,2023-07-24_20h58.46.516,arm3_q,2022.2.5,Win32,61.10601894,6165adc8da33afc997acf508,64aeaab685a29f4ca249be02,64bec9c4f1188297851b60c0,up,-1,0.3071,0.35,20,0,0.7137,,,,,,352,0,352,0,1,,,,,
,,506522,001,2023-07-24_20h58.46.516,arm3_q,2022.2.5,Win32,61.10601894,6165adc8da33afc997acf508,64aeaab685a29f4ca249be02,64bec9c4f1188297851b60c0,up,-1,0.3071,0.35,20,0,0.8711,,,,,,353,0,353,0,1,,,,,
,,506522,001,2023-07-24_20h58.46.516,arm3_q,2022.2.5,Win32,61.10601894,6165adc8da33afc997acf508,64aeaab685a29f4ca249be02,64bec9c4f1188297851b60c0,down,-1,0.3071,0.35,20,0,0.6926,,,,,,354,0,354,0,1,,,,,
,,506522,001,2023-07-24_20h58.46.516,arm3_q,2022.2.5,Win32,61.10601894,6165adc8da33afc997acf508,64aeaab685a29f4ca249be02,64bec9c4f1188297851b60c0,down,-1,0.3071,0.35,20,0,0.8495,,,,,,355,0,355,0,1,,,,,
,,506522,001,2023-07-24_20h58.46.516,arm3_q,2022.2.5,Win32,61.10601894,6165adc8da33afc997acf508,64aeaab685a29f4ca249be02,64bec9c4f1188297851b60c0,down,-1,0.3071,0.35,21,0,0.7092,,,,,,356,0,356,0,1,,,,,
,,506522,001,2023-07-24_20h58.46.516,arm3_q,2022.2.5,Win32,61.10601894,6165adc8da33afc997acf508,64aeaab685a29f4ca249be02,64bec9c4f1188297851b60c0,down,-1,0.3071,0.35,21,0,1.0505,,,,,,357,0,357,0,1,,,,,
,,506522,001,2023-07-24_20h58.46.516,arm3_q,2022.2.5,Win32,61.10601894,6165adc8da33afc997acf508,64aeaab685a29f4ca249be02,64bec9c4f1188297851b60c0,down,-1,0.3071,0.35,22,0,0.6045,,,,,,358,0,358,0,1,,,,,
,,506522,001,2023-07-24_20h58.46.516,arm3_q,2022.2.5,Win32,61.10601894,6165adc8da33afc997acf508,64aeaab685a29f4ca249be02,64bec9c4f1188297851b60c0,down,1,0.3071,0.35,22,0,0.8203,,,,,,359,0,359,0,1,,,,,
,,506522,001,2023-07-24_20h58.46.516,arm3_q,2022.2.5,Win32,61.10601894,6165adc8da33afc997acf508,64aeaab685a29f4ca249be02,64bec9c4f1188297851b60c0,down,-1,0.3071,0.35,22,0,0.7527,,,,,,360,0,360,0,1,,,,,
,,506522,001,2023-07-24_20h58.46.516,arm3_q,2022.2.5,Win32,61.10601894,6165adc8da33afc997acf508,64aeaab685a29f4ca249be02,64bec9c4f1188297851b60c0,up,-1,0.3071,0.35,21,0,0.7816,,,,,,361,0,361,0,1,,,,,
,,506522,001,2023-07-24_20h58.46.516,arm3_q,2022.2.5,Win32,61.10601894,6165adc8da33afc997acf508,64aeaab685a29f4ca249be02,64bec9c4f1188297851b60c0,down,-1,0.3071,0.35,21,0,0.6923,,,,,,362,0,362,0,1,,,,,
,,506522,001,2023-07-24_20h58.46.516,arm3_q,2022.2.5,Win32,61.10601894,6165adc8da33afc997acf508,64aeaab685a29f4ca249be02,64bec9c4f1188297851b60c0,down,1,0.3071,0.35,21,0,0.5568,,,,,,363,0,363,0,1,,,,,
,,506522,001,2023-07-24_20h58.46.516,arm3_q,2022.2.5,Win32,61.10601894,6165adc8da33afc997acf508,64aeaab685a29f4ca249be02,64bec9c4f1188297851b60c0,down,-1,0.3071,0.35,21,0,0.5155,,,,,,364,0,364,0,1,,,,,
,,506522,001,2023-07-24_20h58.46.516,arm3_q,2022.2.5,Win32,61.10601894,6165adc8da33afc997acf508,64aeaab685a29f4ca249be02,64bec9c4f1188297851b60c0,down,1,0.3071,0.35,21,0,0.5138,,,,,,365,0,365,0,1,,,,,
,,506522,001,2023-07-24_20h58.46.516,arm3_q,2022.2.5,Win32,61.10601894,6165adc8da33afc997acf508,64aeaab685a29f4ca249be02,64bec9c4f1188297851b60c0,down,1,0.3071,0.35,21,0,0.4329,,,,,,366,0,366,0,1,,,,,
,,506522,001,2023-07-24_20h58.46.516,arm3_q,2022.2.5,Win32,61.10601894,6165adc8da33afc997acf508,64aeaab685a29f4ca249be02,64bec9c4f1188297851b60c0,down,-1,0.3071,0.35,21,0,5.3203,,,,,,367,0,367,0,1,,,,,
,,506522,001,2023-07-24_20h58.46.516,arm3_q,2022.2.5,Win32,61.10601894,6165adc8da33afc997acf508,64aeaab685a29f4ca249be02,64bec9c4f1188297851b60c0,up,1,0.3071,0.35,20,0,0.9361,,,,,,368,0,368,0,1,,,,,
,,506522,001,2023-07-24_20h58.46.516,arm3_q,2022.2.5,Win32,61.10601894,6165adc8da33afc997acf508,64aeaab685a29f4ca249be02,64bec9c4f1188297851b60c0,down,1,0.3071,0.35,20,0,0.7861,,,,,,369,0,369,0,1,,,,,
,,506522,001,2023-07-24_20h58.46.516,arm3_q,2022.2.5,Win32,61.10601894,6165adc8da33afc997acf508,64aeaab685a29f4ca249be02,64bec9c4f1188297851b60c0,,,,,,,,,,,,,,,,,,0,0,0,0,1
space,8.8842,506522,001,2023-07-24_20h58.46.516,arm3_q,2022.2.5,Win32,61.10601894,6165adc8da33afc997acf508,64aeaab685a29f4ca249be02,64bec9c4f1188297851b60c0,right,1,0.4357,0.35,20,0.023569145,13.3359,,,,,,0,0,0,0,1,,,,,
,,506522,001,2023-07-24_20h58.46.516,arm3_q,2022.2.5,Win32,61.10601894,6165adc8da33afc997acf508,64aeaab685a29f4ca249be02,64bec9c4f1188297851b60c0,right,1,0.4357,0.35,20,-0.009339692,1.2936,,,,,,1,0,1,0,1,,,,,
,,506522,001,2023-07-24_20h58.46.516,arm3_q,2022.2.5,Win32,61.10601894,6165adc8da33afc997acf508,64aeaab685a29f4ca249be02,64bec9c4f1188297851b60c0,right,1,0.4357,0.35,20,-0.021961274,0.5367,,,,,,2,0,2,0,1,,,,,
,,506522,001,2023-07-24_20h58.46.516,arm3_q,2022.2.5,Win32,61.10601894,6165adc8da33afc997acf508,64aeaab685a29f4ca249be02,64bec9c4f1188297851b60c0,right,1,0.4357,0.35,20,-0.00102204,0.4136,,,,,,3,0,3,0,1,,,,,
,,506522,001,2023-07-24_20h58.46.516,arm3_q,2022.2.5,Win32,61.10601894,6165adc8da33afc997acf508,64aeaab685a29f4ca249be02,64bec9c4f1188297851b60c0,right,1,0.4357,0.35,20,0.01359691,0.2358,,,,,,4,0,4,0,1,,,,,
,,506522,001,2023-07-24_20h58.46.516,arm3_q,2022.2.5,Win32,61.10601894,6165adc8da33afc997acf508,64aeaab685a29f4ca249be02,64bec9c4f1188297851b60c0,right,1,0.4357,0.35,20,0.024712867,0.4623,,,,,,5,0,5,0,1,,,,,
,,506522,001,2023-07-24_20h58.46.516,arm3_q,2022.2.5,Win32,61.10601894,6165adc8da33afc997acf508,64aeaab685a29f4ca249be02,64bec9c4f1188297851b60c0,right,1,0.4357,0.35,20,0.021365974,0.3785,,,,,,6,0,6,0,1,,,,,
,,506522,001,2023-07-24_20h58.46.516,arm3_q,2022.2.5,Win32,61.10601894,6165adc8da33afc997acf508,64aeaab685a29f4ca249be02,64bec9c4f1188297851b60c0,right,1,0.4357,0.35,20,0.033564603,0.8121,,,,,,7,0,7,0,1,,,,,
,,506522,001,2023-07-24_20h58.46.516,arm3_q,2022.2.5,Win32,61.10601894,6165adc8da33afc997acf508,64aeaab685a29f4ca249be02,64bec9c4f1188297851b60c0,up,1,0.4357,0.35,20,0,0.9339,,,,,,8,0,8,0,1,,,,,
,,506522,001,2023-07-24_20h58.46.516,arm3_q,2022.2.5,Win32,61.10601894,6165adc8da33afc997acf508,64aeaab685a29f4ca249be02,64bec9c4f1188297851b60c0,up,1,0.4357,0.35,20,0,1.4959,,,,,,9,0,9,0,1,,,,,
,,506522,001,2023-07-24_20h58.46.516,arm3_q,2022.2.5,Win32,61.10601894,6165adc8da33afc997acf508,64aeaab685a29f4ca249be02,64bec9c4f1188297851b60c0,down,1,0.4357,0.35,19,0,1.5665,,,,,,10,0,10,0,1,,,,,
,,506522,001,2023-07-24_20h58.46.516,arm3_q,2022.2.5,Win32,61.10601894,6165adc8da33afc997acf508,64aeaab685a29f4ca249be02,64bec9c4f1188297851b60c0,up,1,0.4357,0.35,20,0,0.8765,,,,,,11,0,11,0,1,,,,,
,,506522,001,2023-07-24_20h58.46.516,arm3_q,2022.2.5,Win32,61.10601894,6165adc8da33afc997acf508,64aeaab685a29f4ca249be02,64bec9c4f1188297851b60c0,up,1,0.4357,0.35,20,0,0.794,,,,,,12,0,12,0,1,,,,,
,,506522,001,2023-07-24_20h58.46.516,arm3_q,2022.2.5,Win32,61.10601894,6165adc8da33afc997acf508,64aeaab685a29f4ca249be02,64bec9c4f1188297851b60c0,up,-1,0.4357,0.35,21,0,0.6118,,,,,,13,0,13,0,1,,,,,
,,506522,001,2023-07-24_20h58.46.516,arm3_q,2022.2.5,Win32,61.10601894,6165adc8da33afc997acf508,64aeaab685a29f4ca249be02,64bec9c4f1188297851b60c0,up,-1,0.4357,0.35,21,0,0.8328,,,,,,14,0,14,0,1,,,,,
,,506522,001,2023-07-24_20h58.46.516,arm3_q,2022.2.5,Win32,61.10601894,6165adc8da33afc997acf508,64aeaab685a29f4ca249be02,64bec9c4f1188297851b60c0,down,1,0.4357,0.35,22,0,0.5365,,,,,,15,0,15,0,1,,,,,
,,506522,001,2023-07-24_20h58.46.516,arm3_q,2022.2.5,Win32,61.10601894,6165adc8da33afc997acf508,64aeaab685a29f4ca249be02,64bec9c4f1188297851b60c0,up,1,0.4357,0.35,23,0,0.7942,,,,,,16,0,16,0,1,,,,,
,,506522,001,2023-07-24_20h58.46.516,arm3_q,2022.2.5,Win32,61.10601894,6165adc8da33afc997acf508,64aeaab685a29f4ca249be02,64bec9c4f1188297851b60c0,up,1,0.4357,0.35,23,0,0.6983,,,,,,17,0,17,0,1,,,,,
,,506522,001,2023-07-24_20h58.46.516,arm3_q,2022.2.5,Win32,61.10601894,6165adc8da33afc997acf508,64aeaab685a29f4ca249be02,64bec9c4f1188297851b60c0,down,-1,0.4357,0.35,23,0,0.5952,,,,,,18,0,18,0,1,,,,,
,,506522,001,2023-07-24_20h58.46.516,arm3_q,2022.2.5,Win32,61.10601894,6165adc8da33afc997acf508,64aeaab685a29f4ca249be02,64bec9c4f1188297851b60c0,down,-1,0.4357,0.35,23,0,0.6916,,,,,,19,0,19,0,1,,,,,
,,506522,001,2023-07-24_20h58.46.516,arm3_q,2022.2.5,Win32,61.10601894,6165adc8da33afc997acf508,64aeaab685a29f4ca249be02,64bec9c4f1188297851b60c0,down,-1,0.4357,0.35,23,0,0.7942,,,,,,20,0,20,0,1,,,,,
,,506522,001,2023-07-24_20h58.46.516,arm3_q,2022.2.5,Win32,61.10601894,6165adc8da33afc997acf508,64aeaab685a29f4ca249be02,64bec9c4f1188297851b60c0,up,-1,0.4357,0.35,23,0,0.6769,,,,,,21,0,21,0,1,,,,,
,,506522,001,2023-07-24_20h58.46.516,arm3_q,2022.2.5,Win32,61.10601894,6165adc8da33afc997acf508,64aeaab685a29f4ca249be02,64bec9c4f1188297851b60c0,down,-1,0.4357,0.35,23,0,0.6915,,,,,,22,0,22,0,1,,,,,
,,506522,001,2023-07-24_20h58.46.516,arm3_q,2022.2.5,Win32,61.10601894,6165adc8da33afc997acf508,64aeaab685a29f4ca249be02,64bec9c4f1188297851b60c0,up,-1,0.4357,0.35,23,0,0.5109,,,,,,23,0,23,0,1,,,,,
,,506522,001,2023-07-24_20h58.46.516,arm3_q,2022.2.5,Win32,61.10601894,6165adc8da33afc997acf508,64aeaab685a29f4ca249be02,64bec9c4f1188297851b60c0,up,1,0.4357,0.35,23,0,0.7849,,,,,,24,0,24,0,1,,,,,
,,506522,001,2023-07-24_20h58.46.516,arm3_q,2022.2.5,Win32,61.10601894,6165adc8da33afc997acf508,64aeaab685a29f4ca249be02,64bec9c4f1188297851b60c0,down,1,0.4357,0.35,23,0,0.9363,,,,,,25,0,25,0,1,,,,,
,,506522,001,2023-07-24_20h58.46.516,arm3_q,2022.2.5,Win32,61.10601894,6165adc8da33afc997acf508,64aeaab685a29f4ca249be02,64bec9c4f1188297851b60c0,up,-1,0.4357,0.35,23,0,0.8239,,,,,,26,0,26,0,1,,,,,
,,506522,001,2023-07-24_20h58.46.516,arm3_q,2022.2.5,Win32,61.10601894,6165adc8da33afc997acf508,64aeaab685a29f4ca249be02,64bec9c4f1188297851b60c0,down,1,0.4357,0.35,24,0,0.9624,,,,,,27,0,27,0,1,,,,,
,,506522,001,2023-07-24_20h58.46.516,arm3_q,2022.2.5,Win32,61.10601894,6165adc8da33afc997acf508,64aeaab685a29f4ca249be02,64bec9c4f1188297851b60c0,down,1,0.4357,0.35,24,0,0.9471,,,,,,28,0,28,0,1,,,,,
,,506522,001,2023-07-24_20h58.46.516,arm3_q,2022.2.5,Win32,61.10601894,6165adc8da33afc997acf508,64aeaab685a29f4ca249be02,64bec9c4f1188297851b60c0,up,1,0.4357,0.35,24,0,0.6518,,,,,,29,0,29,0,1,,,,,
,,506522,001,2023-07-24_20h58.46.516,arm3_q,2022.2.5,Win32,61.10601894,6165adc8da33afc997acf508,64aeaab685a29f4ca249be02,64bec9c4f1188297851b60c0,up,1,0.4357,0.35,24,0,0.7631,,,,,,30,0,30,0,1,,,,,
,,506522,001,2023-07-24_20h58.46.516,arm3_q,2022.2.5,Win32,61.10601894,6165adc8da33afc997acf508,64aeaab685a29f4ca249be02,64bec9c4f1188297851b60c0,down,1,0.4357,0.35,24,0,0.7135,,,,,,31,0,31,0,1,,,,,
,,506522,001,2023-07-24_20h58.46.516,arm3_q,2022.2.5,Win32,61.10601894,6165adc8da33afc997acf508,64aeaab685a29f4ca249be02,64bec9c4f1188297851b60c0,up,-1,0.4357,0.35,24,0,0.6271,,,,,,32,0,32,0,1,,,,,
,,506522,001,2023-07-24_20h58.46.516,arm3_q,2022.2.5,Win32,61.10601894,6165adc8da33afc997acf508,64aeaab685a29f4ca249be02,64bec9c4f1188297851b60c0,up,-1,0.4357,0.35,24,0,0.7276,,,,,,33,0,33,0,1,,,,,
,,506522,001,2023-07-24_20h58.46.516,arm3_q,2022.2.5,Win32,61.10601894,6165adc8da33afc997acf508,64aeaab685a29f4ca249be02,64bec9c4f1188297851b60c0,up,1,0.4357,0.35,23,0,0.684,,,,,,34,0,34,0,1,,,,,
,,506522,001,2023-07-24_20h58.46.516,arm3_q,2022.2.5,Win32,61.10601894,6165adc8da33afc997acf508,64aeaab685a29f4ca249be02,64bec9c4f1188297851b60c0,down,-1,0.4357,0.35,23,0,0.7029,,,,,,35,0,35,0,1,,,,,
,,506522,001,2023-07-24_20h58.46.516,arm3_q,2022.2.5,Win32,61.10601894,6165adc8da33afc997acf508,64aeaab685a29f4ca249be02,64bec9c4f1188297851b60c0,down,-1,0.4357,0.35,24,0,0.5334,,,,,,36,0,36,0,1,,,,,
,,506522,001,2023-07-24_20h58.46.516,arm3_q,2022.2.5,Win32,61.10601894,6165adc8da33afc997acf508,64aeaab685a29f4ca249be02,64bec9c4f1188297851b60c0,down,1,0.4357,0.35,25,0,0.626,,,,,,37,0,37,0,1,,,,,
,,506522,001,2023-07-24_20h58.46.516,arm3_q,2022.2.5,Win32,61.10601894,6165adc8da33afc997acf508,64aeaab685a29f4ca249be02,64bec9c4f1188297851b60c0,down,1,0.4357,0.35,24,0,0.6703,,,,,,38,0,38,0,1,,,,,
,,506522,001,2023-07-24_20h58.46.516,arm3_q,2022.2.5,Win32,61.10601894,6165adc8da33afc997acf508,64aeaab685a29f4ca249be02,64bec9c4f1188297851b60c0,up,1,0.4357,0.35,24,0,0.6379,,,,,,39,0,39,0,1,,,,,
,,506522,001,2023-07-24_20h58.46.516,arm3_q,2022.2.5,Win32,61.10601894,6165adc8da33afc997acf508,64aeaab685a29f4ca249be02,64bec9c4f1188297851b60c0,up,1,0.4357,0.35,24,0,0.6546,,,,,,40,0,40,0,1,,,,,
,,506522,001,2023-07-24_20h58.46.516,arm3_q,2022.2.5,Win32,61.10601894,6165adc8da33afc997acf508,64aeaab685a29f4ca249be02,64bec9c4f1188297851b60c0,up,1,0.4357,0.35,25,0,0.5924,,,,,,41,0,41,0,1,,,,,
,,506522,001,2023-07-24_20h58.46.516,arm3_q,2022.2.5,Win32,61.10601894,6165adc8da33afc997acf508,64aeaab685a29f4ca249be02,64bec9c4f1188297851b60c0,up,-1,0.4357,0.35,25,0,0.8023,,,,,,42,0,42,0,1,,,,,
,,506522,001,2023-07-24_20h58.46.516,arm3_q,2022.2.5,Win32,61.10601894,6165adc8da33afc997acf508,64aeaab685a29f4ca249be02,64bec9c4f1188297851b60c0,down,1,0.4357,0.35,25,0,0.4061,,,,,,43,0,43,0,1,,,,,
,,506522,001,2023-07-24_20h58.46.516,arm3_q,2022.2.5,Win32,61.10601894,6165adc8da33afc997acf508,64aeaab685a29f4ca249be02,64bec9c4f1188297851b60c0,down,1,0.4357,0.35,24,0,0.5426,,,,,,44,0,44,0,1,,,,,
,,506522,001,2023-07-24_20h58.46.516,arm3_q,2022.2.5,Win32,61.10601894,6165adc8da33afc997acf508,64aeaab685a29f4ca249be02,64bec9c4f1188297851b60c0,up,-1,0.4357,0.35,25,0,0.9692,,,,,,45,0,45,0,1,,,,,
,,506522,001,2023-07-24_20h58.46.516,arm3_q,2022.2.5,Win32,61.10601894,6165adc8da33afc997acf508,64aeaab685a29f4ca249be02,64bec9c4f1188297851b60c0,up,-1,0.4357,0.35,24,0,0.8862,,,,,,46,0,46,0,1,,,,,
,,506522,001,2023-07-24_20h58.46.516,arm3_q,2022.2.5,Win32,61.10601894,6165adc8da33afc997acf508,64aeaab685a29f4ca249be02,64bec9c4f1188297851b60c0,down,1,0.4357,0.35,24,0,0.941,,,,,,47,0,47,0,1,,,,,
,,506522,001,2023-07-24_20h58.46.516,arm3_q,2022.2.5,Win32,61.10601894,6165adc8da33afc997acf508,64aeaab685a29f4ca249be02,64bec9c4f1188297851b60c0,down,1,0.4357,0.35,23,0,1.1137,,,,,,48,0,48,0,1,,,,,
,,506522,001,2023-07-24_20h58.46.516,arm3_q,2022.2.5,Win32,61.10601894,6165adc8da33afc997acf508,64aeaab685a29f4ca249be02,64bec9c4f1188297851b60c0,up,1,0.4357,0.35,24,0,0.9939,,,,,,49,0,49,0,1,,,,,
,,506522,001,2023-07-24_20h58.46.516,arm3_q,2022.2.5,Win32,61.10601894,6165adc8da33afc997acf508,64aeaab685a29f4ca249be02,64bec9c4f1188297851b60c0,up,-1,0.4357,0.35,24,0,0.8611,,,,,,50,0,50,0,1,,,,,
,,506522,001,2023-07-24_20h58.46.516,arm3_q,2022.2.5,Win32,61.10601894,6165adc8da33afc997acf508,64aeaab685a29f4ca249be02,64bec9c4f1188297851b60c0,up,-1,0.4357,0.35,24,0,0.7176,,,,,,51,0,51,0,1,,,,,
,,506522,001,2023-07-24_20h58.46.516,arm3_q,2022.2.5,Win32,61.10601894,6165adc8da33afc997acf508,64aeaab685a29f4ca249be02,64bec9c4f1188297851b60c0,down,1,0.4357,0.35,24,0,1.3657,,,,,,52,0,52,0,1,,,,,
,,506522,001,2023-07-24_20h58.46.516,arm3_q,2022.2.5,Win32,61.10601894,6165adc8da33afc997acf508,64aeaab685a29f4ca249be02,64bec9c4f1188297851b60c0,up,1,0.4357,0.35,25,0,0.5996,,,,,,53,0,53,0,1,,,,,
,,506522,001,2023-07-24_20h58.46.516,arm3_q,2022.2.5,Win32,61.10601894,6165adc8da33afc997acf508,64aeaab685a29f4ca249be02,64bec9c4f1188297851b60c0,up,1,0.4357,0.35,25,0,0.8012,,,,,,54,0,54,0,1,,,,,
,,506522,001,2023-07-24_20h58.46.516,arm3_q,2022.2.5,Win32,61.10601894,6165adc8da33afc997acf508,64aeaab685a29f4ca249be02,64bec9c4f1188297851b60c0,up,1,0.4357,0.35,25,0,0.6953,,,,,,55,0,55,0,1,,,,,
,,506522,001,2023-07-24_20h58.46.516,arm3_q,2022.2.5,Win32,61.10601894,6165adc8da33afc997acf508,64aeaab685a29f4ca249be02,64bec9c4f1188297851b60c0,up,-1,0.4357,0.35,26,0,0.6386,,,,,,56,0,56,0,1,,,,,
,,506522,001,2023-07-24_20h58.46.516,arm3_q,2022.2.5,Win32,61.10601894,6165adc8da33afc997acf508,64aeaab685a29f4ca249be02,64bec9c4f1188297851b60c0,up,-1,0.4357,0.35,26,0,0.7756,,,,,,57,0,57,0,1,,,,,
,,506522,001,2023-07-24_20h58.46.516,arm3_q,2022.2.5,Win32,61.10601894,6165adc8da33afc997acf508,64aeaab685a29f4ca249be02,64bec9c4f1188297851b60c0,up,-1,0.4357,0.35,25,0,0.6354,,,,,,58,0,58,0,1,,,,,
,,506522,001,2023-07-24_20h58.46.516,arm3_q,2022.2.5,Win32,61.10601894,6165adc8da33afc997acf508,64aeaab685a29f4ca249be02,64bec9c4f1188297851b60c0,down,-1,0.4357,0.35,25,0,0.8438,,,,,,59,0,59,0,1,,,,,
,,506522,001,2023-07-24_20h58.46.516,arm3_q,2022.2.5,Win32,61.10601894,6165adc8da33afc997acf508,64aeaab685a29f4ca249be02,64bec9c4f1188297851b60c0,down,-1,0.4357,0.35,25,0,0.6137,,,,,,60,0,60,0,1,,,,,
,,506522,001,2023-07-24_20h58.46.516,arm3_q,2022.2.5,Win32,61.10601894,6165adc8da33afc997acf508,64aeaab685a29f4ca249be02,64bec9c4f1188297851b60c0,down,-1,0.4357,0.35,26,0,0.6631,,,,,,61,0,61,0,1,,,,,
,,506522,001,2023-07-24_20h58.46.516,arm3_q,2022.2.5,Win32,61.10601894,6165adc8da33afc997acf508,64aeaab685a29f4ca249be02,64bec9c4f1188297851b60c0,down,-1,0.4357,0.35,27,0,0.9538,,,,,,62,0,62,0,1,,,,,
,,506522,001,2023-07-24_20h58.46.516,arm3_q,2022.2.5,Win32,61.10601894,6165adc8da33afc997acf508,64aeaab685a29f4ca249be02,64bec9c4f1188297851b60c0,down,-1,0.4357,0.35,28,0,0.8432,,,,,,63,0,63,0,1,,,,,
