space_bar.keys,space_bar.rt,participant,session,date,expName,psychopyVersion,OS,frameRate,PROLIFIC_PID,STUDY_ID,SESSION_ID,resp.keys,state,q_prob,eps_prob,score,price,resp.rt,train.thisRepN,train.thisTrialN,train.thisN,train.thisIndex,train.ran,steps.thisRepN,steps.thisTrialN,steps.thisN,steps.thisIndex,steps.ran,blocks.thisRepN,blocks.thisTrialN,blocks.thisN,blocks.thisIndex,blocks.ran
space,3.4024,650061,001,2023-07-24_22h33.20.549,arm3_q,2022.2.5,Win32,59.85873339,64526929d8f9b780b29d4d8d,64aeaab685a29f4ca249be02,64beedd79815511e86a326bd,,,,,,,,,,,,,,,,,,,,,,
space,12.4655,650061,001,2023-07-24_22h33.20.549,arm3_q,2022.2.5,Win32,59.85873339,64526929d8f9b780b29d4d8d,64aeaab685a29f4ca249be02,64beedd79815511e86a326bd,,,,,,,,,,,,,,,,,,,,,,
space,14.3144,650061,001,2023-07-24_22h33.20.549,arm3_q,2022.2.5,Win32,59.85873339,64526929d8f9b780b29d4d8d,64aeaab685a29f4ca249be02,64beedd79815511e86a326bd,,,,,,,,,,,,,,,,,,,,,,
space,28.1888,650061,001,2023-07-24_22h33.20.549,arm3_q,2022.2.5,Win32,59.85873339,64526929d8f9b780b29d4d8d,64aeaab685a29f4ca249be02,64beedd79815511e86a326bd,,,,,,,,,,,,,,,,,,,,,,
space,17.6267,650061,001,2023-07-24_22h33.20.549,arm3_q,2022.2.5,Win32,59.85873339,64526929d8f9b780b29d4d8d,64aeaab685a29f4ca249be02,64beedd79815511e86a326bd,,,,,,,,,,,,,,,,,,,,,,
space,54.5265,650061,001,2023-07-24_22h33.20.549,arm3_q,2022.2.5,Win32,59.85873339,64526929d8f9b780b29d4d8d,64aeaab685a29f4ca249be02,64beedd79815511e86a326bd,,,,,,,,,,,,,,,,,,,,,,
space,13.812,650061,001,2023-07-24_22h33.20.549,arm3_q,2022.2.5,Win32,59.85873339,64526929d8f9b780b29d4d8d,64aeaab685a29f4ca249be02,64beedd79815511e86a326bd,,,,,,,,,,,,,,,,,,,,,,
space,11.698,650061,001,2023-07-24_22h33.20.549,arm3_q,2022.2.5,Win32,59.85873339,64526929d8f9b780b29d4d8d,64aeaab685a29f4ca249be02,64beedd79815511e86a326bd,,,,,,,,,,,,,,,,,,,,,,
space,17.3073,650061,001,2023-07-24_22h33.20.549,arm3_q,2022.2.5,Win32,59.85873339,64526929d8f9b780b29d4d8d,64aeaab685a29f4ca249be02,64beedd79815511e86a326bd,,,,,,,,,,,,,,,,,,,,,,
space,8.4886,650061,001,2023-07-24_22h33.20.549,arm3_q,2022.2.5,Win32,59.85873339,64526929d8f9b780b29d4d8d,64aeaab685a29f4ca249be02,64beedd79815511e86a326bd,,,,,,,,,,,,,,,,,,,,,,
,,650061,001,2023-07-24_22h33.20.549,arm3_q,2022.2.5,Win32,59.85873339,64526929d8f9b780b29d4d8d,64aeaab685a29f4ca249be02,64beedd79815511e86a326bd,right,1,0.5643,0.35,0,-0.003397804,2.8795,0,0,0,0,1,,,,,,,,,,
,,650061,001,2023-07-24_22h33.20.549,arm3_q,2022.2.5,Win32,59.85873339,64526929d8f9b780b29d4d8d,64aeaab685a29f4ca249be02,64beedd79815511e86a326bd,right,1,0.5643,0.35,0,-0.017456826,1.9485,1,0,1,0,1,,,,,,,,,,
,,650061,001,2023-07-24_22h33.20.549,arm3_q,2022.2.5,Win32,59.85873339,64526929d8f9b780b29d4d8d,64aeaab685a29f4ca249be02,64beedd79815511e86a326bd,right,1,0.5643,0.35,0,-0.009968857,0.6811,2,0,2,0,1,,,,,,,,,,
,,650061,001,2023-07-24_22h33.20.549,arm3_q,2022.2.5,Win32,59.85873339,64526929d8f9b780b29d4d8d,64aeaab685a29f4ca249be02,64beedd79815511e86a326bd,right,1,0.5643,0.35,0,-0.038030983,1.2917,3,0,3,0,1,,,,,,,,,,
,,650061,001,2023-07-24_22h33.20.549,arm3_q,2022.2.5,Win32,59.85873339,64526929d8f9b780b29d4d8d,64aeaab685a29f4ca249be02,64beedd79815511e86a326bd,right,1,0.5643,0.35,0,-0.049279754,0.9807,4,0,4,0,1,,,,,,,,,,
,,650061,001,2023-07-24_22h33.20.549,arm3_q,2022.2.5,Win32,59.85873339,64526929d8f9b780b29d4d8d,64aeaab685a29f4ca249be02,64beedd79815511e86a326bd,right,1,0.5643,0.35,0,-0.025665264,0.3895,5,0,5,0,1,,,,,,,,,,
,,650061,001,2023-07-24_22h33.20.549,arm3_q,2022.2.5,Win32,59.85873339,64526929d8f9b780b29d4d8d,64aeaab685a29f4ca249be02,64beedd79815511e86a326bd,right,1,0.5643,0.35,0,0.00531619,0.2147,6,0,6,0,1,,,,,,,,,,
,,650061,001,2023-07-24_22h33.20.549,arm3_q,2022.2.5,Win32,59.85873339,64526929d8f9b780b29d4d8d,64aeaab685a29f4ca249be02,64beedd79815511e86a326bd,right,1,0.5643,0.35,0,0.03153657,0.1978,7,0,7,0,1,,,,,,,,,,
,,650061,001,2023-07-24_22h33.20.549,arm3_q,2022.2.5,Win32,59.85873339,64526929d8f9b780b29d4d8d,64aeaab685a29f4ca249be02,64beedd79815511e86a326bd,right,1,0.5643,0.35,0,0.059325319,0.1884,8,0,8,0,1,,,,,,,,,,
,,650061,001,2023-07-24_22h33.20.549,arm3_q,2022.2.5,Win32,59.85873339,64526929d8f9b780b29d4d8d,64aeaab685a29f4ca249be02,64beedd79815511e86a326bd,right,1,0.5643,0.35,0,0.086028948,0.6425,9,0,9,0,1,,,,,,,,,,
,,650061,001,2023-07-24_22h33.20.549,arm3_q,2022.2.5,Win32,59.85873339,64526929d8f9b780b29d4d8d,64aeaab685a29f4ca249be02,64beedd79815511e86a326bd,up,-1,0.5643,0.35,1,0,1.5049,10,0,10,0,1,,,,,,,,,,
,,650061,001,2023-07-24_22h33.20.549,arm3_q,2022.2.5,Win32,59.85873339,64526929d8f9b780b29d4d8d,64aeaab685a29f4ca249be02,64beedd79815511e86a326bd,right,-1,0.5643,0.35,1,-0.027619705,1.6346,11,0,11,0,1,,,,,,,,,,
,,650061,001,2023-07-24_22h33.20.549,arm3_q,2022.2.5,Win32,59.85873339,64526929d8f9b780b29d4d8d,64aeaab685a29f4ca249be02,64beedd79815511e86a326bd,right,-1,0.5643,0.35,1,-0.012430579,0.4946,12,0,12,0,1,,,,,,,,,,
,,650061,001,2023-07-24_22h33.20.549,arm3_q,2022.2.5,Win32,59.85873339,64526929d8f9b780b29d4d8d,64aeaab685a29f4ca249be02,64beedd79815511e86a326bd,right,-1,0.5643,0.35,1,-0.011327817,0.3946,13,0,13,0,1,,,,,,,,,,
,,650061,001,2023-07-24_22h33.20.549,arm3_q,2022.2.5,Win32,59.85873339,64526929d8f9b780b29d4d8d,64aeaab685a29f4ca249be02,64beedd79815511e86a326bd,right,-1,0.5643,0.35,1,-0.040912579,0.4657,14,0,14,0,1,,,,,,,,,,
,,650061,001,2023-07-24_22h33.20.549,arm3_q,2022.2.5,Win32,59.85873339,64526929d8f9b780b29d4d8d,64aeaab685a29f4ca249be02,64beedd79815511e86a326bd,right,-1,0.5643,0.35,1,-0.043723221,0.3872,15,0,15,0,1,,,,,,,,,,
,,650061,001,2023-07-24_22h33.20.549,arm3_q,2022.2.5,Win32,59.85873339,64526929d8f9b780b29d4d8d,64aeaab685a29f4ca249be02,64beedd79815511e86a326bd,right,-1,0.5643,0.35,1,-0.033844494,0.366,16,0,16,0,1,,,,,,,,,,
,,650061,001,2023-07-24_22h33.20.549,arm3_q,2022.2.5,Win32,59.85873339,64526929d8f9b780b29d4d8d,64aeaab685a29f4ca249be02,64beedd79815511e86a326bd,down,-1,0.5643,0.35,2,0,0.8697,17,0,17,0,1,,,,,,,,,,
,,650061,001,2023-07-24_22h33.20.549,arm3_q,2022.2.5,Win32,59.85873339,64526929d8f9b780b29d4d8d,64aeaab685a29f4ca249be02,64beedd79815511e86a326bd,right,-1,0.5643,0.35,2,-0.020120883,1.7311,18,0,18,0,1,,,,,,,,,,
,,650061,001,2023-07-24_22h33.20.549,arm3_q,2022.2.5,Win32,59.85873339,64526929d8f9b780b29d4d8d,64aeaab685a29f4ca249be02,64beedd79815511e86a326bd,right,-1,0.5643,0.35,2,-0.02481077,1.0987,19,0,19,0,1,,,,,,,,,,
,,650061,001,2023-07-24_22h33.20.549,arm3_q,2022.2.5,Win32,59.85873339,64526929d8f9b780b29d4d8d,64aeaab685a29f4ca249be02,64beedd79815511e86a326bd,right,-1,0.5643,0.35,2,-0.002003148,1.2844,20,0,20,0,1,,,,,,,,,,
,,650061,001,2023-07-24_22h33.20.549,arm3_q,2022.2.5,Win32,59.85873339,64526929d8f9b780b29d4d8d,64aeaab685a29f4ca249be02,64beedd79815511e86a326bd,right,-1,0.5643,0.35,2,-0.028781019,1.8253,21,0,21,0,1,,,,,,,,,,
,,650061,001,2023-07-24_22h33.20.549,arm3_q,2022.2.5,Win32,59.85873339,64526929d8f9b780b29d4d8d,64aeaab685a29f4ca249be02,64beedd79815511e86a326bd,right,-1,0.5643,0.35,2,-0.017153287,0.4182,22,0,22,0,1,,,,,,,,,,
,,650061,001,2023-07-24_22h33.20.549,arm3_q,2022.2.5,Win32,59.85873339,64526929d8f9b780b29d4d8d,64aeaab685a29f4ca249be02,64beedd79815511e86a326bd,down,-1,0.5643,0.35,3,0,0.6838,23,0,23,0,1,,,,,,,,,,
,,650061,001,2023-07-24_22h33.20.549,arm3_q,2022.2.5,Win32,59.85873339,64526929d8f9b780b29d4d8d,64aeaab685a29f4ca249be02,64beedd79815511e86a326bd,right,-1,0.5643,0.35,3,0.014621787,1.4918,24,0,24,0,1,,,,,,,,,,
,,650061,001,2023-07-24_22h33.20.549,arm3_q,2022.2.5,Win32,59.85873339,64526929d8f9b780b29d4d8d,64aeaab685a29f4ca249be02,64beedd79815511e86a326bd,right,-1,0.5643,0.35,3,0.003512544,0.3694,25,0,25,0,1,,,,,,,,,,
,,650061,001,2023-07-24_22h33.20.549,arm3_q,2022.2.5,Win32,59.85873339,64526929d8f9b780b29d4d8d,64aeaab685a29f4ca249be02,64beedd79815511e86a326bd,right,-1,0.5643,0.35,3,-0.027848064,0.4407,26,0,26,0,1,,,,,,,,,,
,,650061,001,2023-07-24_22h33.20.549,arm3_q,2022.2.5,Win32,59.85873339,64526929d8f9b780b29d4d8d,64aeaab685a29f4ca249be02,64beedd79815511e86a326bd,right,-1,0.5643,0.35,3,-0.026013455,0.5249,27,0,27,0,1,,,,,,,,,,
,,650061,001,2023-07-24_22h33.20.549,arm3_q,2022.2.5,Win32,59.85873339,64526929d8f9b780b29d4d8d,64aeaab685a29f4ca249be02,64beedd79815511e86a326bd,down,-1,0.5643,0.35,3,0,0.5038,28,0,28,0,1,,,,,,,,,,
,,650061,001,2023-07-24_22h33.20.549,arm3_q,2022.2.5,Win32,59.85873339,64526929d8f9b780b29d4d8d,64aeaab685a29f4ca249be02,64beedd79815511e86a326bd,right,-1,0.5643,0.35,3,-0.000421582,1.4156,29,0,29,0,1,,,,,,,,,,
,,650061,001,2023-07-24_22h33.20.549,arm3_q,2022.2.5,Win32,59.85873339,64526929d8f9b780b29d4d8d,64aeaab685a29f4ca249be02,64beedd79815511e86a326bd,right,-1,0.5643,0.35,3,-0.010734734,0.5053,30,0,30,0,1,,,,,,,,,,
,,650061,001,2023-07-24_22h33.20.549,arm3_q,2022.2.5,Win32,59.85873339,64526929d8f9b780b29d4d8d,64aeaab685a29f4ca249be02,64beedd79815511e86a326bd,right,-1,0.5643,0.35,3,-0.009679107,1.0082,31,0,31,0,1,,,,,,,,,,
,,650061,001,2023-07-24_22h33.20.549,arm3_q,2022.2.5,Win32,59.85873339,64526929d8f9b780b29d4d8d,64aeaab685a29f4ca249be02,64beedd79815511e86a326bd,right,-1,0.5643,0.35,3,-0.014807868,0.4997,32,0,32,0,1,,,,,,,,,,
,,650061,001,2023-07-24_22h33.20.549,arm3_q,2022.2.5,Win32,59.85873339,64526929d8f9b780b29d4d8d,64aeaab685a29f4ca249be02,64beedd79815511e86a326bd,right,-1,0.5643,0.35,3,-0.006323518,0.676,33,0,33,0,1,,,,,,,,,,
,,650061,001,2023-07-24_22h33.20.549,arm3_q,2022.2.5,Win32,59.85873339,64526929d8f9b780b29d4d8d,64aeaab685a29f4ca249be02,64beedd79815511e86a326bd,right,-1,0.5643,0.35,3,0.007725833,0.9946,34,0,34,0,1,,,,,,,,,,
,,650061,001,2023-07-24_22h33.20.549,arm3_q,2022.2.5,Win32,59.85873339,64526929d8f9b780b29d4d8d,64aeaab685a29f4ca249be02,64beedd79815511e86a326bd,right,-1,0.5643,0.35,3,-0.011189557,0.5524,35,0,35,0,1,,,,,,,,,,
,,650061,001,2023-07-24_22h33.20.549,arm3_q,2022.2.5,Win32,59.85873339,64526929d8f9b780b29d4d8d,64aeaab685a29f4ca249be02,64beedd79815511e86a326bd,right,-1,0.5643,0.35,3,0.013569758,0.5936,36,0,36,0,1,,,,,,,,,,
,,650061,001,2023-07-24_22h33.20.549,arm3_q,2022.2.5,Win32,59.85873339,64526929d8f9b780b29d4d8d,64aeaab685a29f4ca249be02,64beedd79815511e86a326bd,down,1,0.5643,0.35,3,0,1.1759,37,0,37,0,1,,,,,,,,,,
,,650061,001,2023-07-24_22h33.20.549,arm3_q,2022.2.5,Win32,59.85873339,64526929d8f9b780b29d4d8d,64aeaab685a29f4ca249be02,64beedd79815511e86a326bd,right,1,0.5643,0.35,3,-0.025222884,2.3709,38,0,38,0,1,,,,,,,,,,
,,650061,001,2023-07-24_22h33.20.549,arm3_q,2022.2.5,Win32,59.85873339,64526929d8f9b780b29d4d8d,64aeaab685a29f4ca249be02,64beedd79815511e86a326bd,right,1,0.5643,0.35,3,-0.038646782,0.7668,39,0,39,0,1,,,,,,,,,,
,,650061,001,2023-07-24_22h33.20.549,arm3_q,2022.2.5,Win32,59.85873339,64526929d8f9b780b29d4d8d,64aeaab685a29f4ca249be02,64beedd79815511e86a326bd,right,1,0.5643,0.35,3,-0.054060325,0.7564,40,0,40,0,1,,,,,,,,,,
,,650061,001,2023-07-24_22h33.20.549,arm3_q,2022.2.5,Win32,59.85873339,64526929d8f9b780b29d4d8d,64aeaab685a29f4ca249be02,64beedd79815511e86a326bd,right,1,0.5643,0.35,3,-0.059014164,0.5975,41,0,41,0,1,,,,,,,,,,
,,650061,001,2023-07-24_22h33.20.549,arm3_q,2022.2.5,Win32,59.85873339,64526929d8f9b780b29d4d8d,64aeaab685a29f4ca249be02,64beedd79815511e86a326bd,down,1,0.5643,0.35,2,0,1.0851,42,0,42,0,1,,,,,,,,,,
,,650061,001,2023-07-24_22h33.20.549,arm3_q,2022.2.5,Win32,59.85873339,64526929d8f9b780b29d4d8d,64aeaab685a29f4ca249be02,64beedd79815511e86a326bd,right,1,0.5643,0.35,2,0.015119686,1.117,43,0,43,0,1,,,,,,,,,,
,,650061,001,2023-07-24_22h33.20.549,arm3_q,2022.2.5,Win32,59.85873339,64526929d8f9b780b29d4d8d,64aeaab685a29f4ca249be02,64beedd79815511e86a326bd,up,-1,0.5643,0.35,3,0,1.4789,44,0,44,0,1,,,,,,,,,,
,,650061,001,2023-07-24_22h33.20.549,arm3_q,2022.2.5,Win32,59.85873339,64526929d8f9b780b29d4d8d,64aeaab685a29f4ca249be02,64beedd79815511e86a326bd,right,-1,0.5643,0.35,3,0.013667189,1.0198,45,0,45,0,1,,,,,,,,,,
,,650061,001,2023-07-24_22h33.20.549,arm3_q,2022.2.5,Win32,59.85873339,64526929d8f9b780b29d4d8d,64aeaab685a29f4ca249be02,64beedd79815511e86a326bd,right,-1,0.5643,0.35,3,0.014668567,0.8459,46,0,46,0,1,,,,,,,,,,
,,650061,001,2023-07-24_22h33.20.549,arm3_q,2022.2.5,Win32,59.85873339,64526929d8f9b780b29d4d8d,64aeaab685a29f4ca249be02,64beedd79815511e86a326bd,right,-1,0.5643,0.35,3,-0.009532476,0.5946,47,0,47,0,1,,,,,,,,,,
,,650061,001,2023-07-24_22h33.20.549,arm3_q,2022.2.5,Win32,59.85873339,64526929d8f9b780b29d4d8d,64aeaab685a29f4ca249be02,64beedd79815511e86a326bd,down,1,0.5643,0.35,3,0,0.5591,48,0,48,0,1,,,,,,,,,,
,,650061,001,2023-07-24_22h33.20.549,arm3_q,2022.2.5,Win32,59.85873339,64526929d8f9b780b29d4d8d,64aeaab685a29f4ca249be02,64beedd79815511e86a326bd,right,1,0.5643,0.35,3,-0.002776066,1.791,49,0,49,0,1,,,,,,,,,,
space,2.9564,650061,001,2023-07-24_22h33.20.549,arm3_q,2022.2.5,Win32,59.85873339,64526929d8f9b780b29d4d8d,64aeaab685a29f4ca249be02,64beedd79815511e86a326bd,,,,,,,,,,,,,,,,,,,,,,
space,2.2139,650061,001,2023-07-24_22h33.20.549,arm3_q,2022.2.5,Win32,59.85873339,64526929d8f9b780b29d4d8d,64aeaab685a29f4ca249be02,64beedd79815511e86a326bd,up,-1,0.3071,0.35,0,0,4.9829,,,,,,0,0,0,0,1,,,,,
,,650061,001,2023-07-24_22h33.20.549,arm3_q,2022.2.5,Win32,59.85873339,64526929d8f9b780b29d4d8d,64aeaab685a29f4ca249be02,64beedd79815511e86a326bd,up,-1,0.3071,0.35,-1,0,1.0266,,,,,,1,0,1,0,1,,,,,
,,650061,001,2023-07-24_22h33.20.549,arm3_q,2022.2.5,Win32,59.85873339,64526929d8f9b780b29d4d8d,64aeaab685a29f4ca249be02,64beedd79815511e86a326bd,up,1,0.3071,0.35,-1,0,0.8423,,,,,,2,0,2,0,1,,,,,
,,650061,001,2023-07-24_22h33.20.549,arm3_q,2022.2.5,Win32,59.85873339,64526929d8f9b780b29d4d8d,64aeaab685a29f4ca249be02,64beedd79815511e86a326bd,up,1,0.3071,0.35,-1,0,0.812,,,,,,3,0,3,0,1,,,,,
,,650061,001,2023-07-24_22h33.20.549,arm3_q,2022.2.5,Win32,59.85873339,64526929d8f9b780b29d4d8d,64aeaab685a29f4ca249be02,64beedd79815511e86a326bd,up,1,0.3071,0.35,-1,0,0.8275,,,,,,4,0,4,0,1,,,,,
,,650061,001,2023-07-24_22h33.20.549,arm3_q,2022.2.5,Win32,59.85873339,64526929d8f9b780b29d4d8d,64aeaab685a29f4ca249be02,64beedd79815511e86a326bd,up,1,0.3071,0.35,0,0,0.8294,,,,,,5,0,5,0,1,,,,,
,,650061,001,2023-07-24_22h33.20.549,arm3_q,2022.2.5,Win32,59.85873339,64526929d8f9b780b29d4d8d,64aeaab685a29f4ca249be02,64beedd79815511e86a326bd,up,1,0.3071,0.35,1,0,1.0367,,,,,,6,0,6,0,1,,,,,
,,650061,001,2023-07-24_22h33.20.549,arm3_q,2022.2.5,Win32,59.85873339,64526929d8f9b780b29d4d8d,64aeaab685a29f4ca249be02,64beedd79815511e86a326bd,up,1,0.3071,0.35,2,0,0.9868,,,,,,7,0,7,0,1,,,,,
,,650061,001,2023-07-24_22h33.20.549,arm3_q,2022.2.5,Win32,59.85873339,64526929d8f9b780b29d4d8d,64aeaab685a29f4ca249be02,64beedd79815511e86a326bd,up,1,0.3071,0.35,2,0,0.9086,,,,,,8,0,8,0,1,,,,,
,,650061,001,2023-07-24_22h33.20.549,arm3_q,2022.2.5,Win32,59.85873339,64526929d8f9b780b29d4d8d,64aeaab685a29f4ca249be02,64beedd79815511e86a326bd,up,-1,0.3071,0.35,2,0,0.8345,,,,,,9,0,9,0,1,,,,,
,,650061,001,2023-07-24_22h33.20.549,arm3_q,2022.2.5,Win32,59.85873339,64526929d8f9b780b29d4d8d,64aeaab685a29f4ca249be02,64beedd79815511e86a326bd,up,-1,0.3071,0.35,1,0,0.8341,,,,,,10,0,10,0,1,,,,,
,,650061,001,2023-07-24_22h33.20.549,arm3_q,2022.2.5,Win32,59.85873339,64526929d8f9b780b29d4d8d,64aeaab685a29f4ca249be02,64beedd79815511e86a326bd,up,-1,0.3071,0.35,1,0,0.8373,,,,,,11,0,11,0,1,,,,,
,,650061,001,2023-07-24_22h33.20.549,arm3_q,2022.2.5,Win32,59.85873339,64526929d8f9b780b29d4d8d,64aeaab685a29f4ca249be02,64beedd79815511e86a326bd,up,-1,0.3071,0.35,0,0,0.8304,,,,,,12,0,12,0,1,,,,,
,,650061,001,2023-07-24_22h33.20.549,arm3_q,2022.2.5,Win32,59.85873339,64526929d8f9b780b29d4d8d,64aeaab685a29f4ca249be02,64beedd79815511e86a326bd,up,1,0.3071,0.35,0,0,0.9887,,,,,,13,0,13,0,1,,,,,
,,650061,001,2023-07-24_22h33.20.549,arm3_q,2022.2.5,Win32,59.85873339,64526929d8f9b780b29d4d8d,64aeaab685a29f4ca249be02,64beedd79815511e86a326bd,up,-1,0.3071,0.35,0,0,0.85,,,,,,14,0,14,0,1,,,,,
,,650061,001,2023-07-24_22h33.20.549,arm3_q,2022.2.5,Win32,59.85873339,64526929d8f9b780b29d4d8d,64aeaab685a29f4ca249be02,64beedd79815511e86a326bd,up,1,0.3071,0.35,-1,0,0.8861,,,,,,15,0,15,0,1,,,,,
,,650061,001,2023-07-24_22h33.20.549,arm3_q,2022.2.5,Win32,59.85873339,64526929d8f9b780b29d4d8d,64aeaab685a29f4ca249be02,64beedd79815511e86a326bd,up,-1,0.3071,0.35,0,0,0.9917,,,,,,16,0,16,0,1,,,,,
,,650061,001,2023-07-24_22h33.20.549,arm3_q,2022.2.5,Win32,59.85873339,64526929d8f9b780b29d4d8d,64aeaab685a29f4ca249be02,64beedd79815511e86a326bd,up,1,0.3071,0.35,0,0,0.8923,,,,,,17,0,17,0,1,,,,,
,,650061,001,2023-07-24_22h33.20.549,arm3_q,2022.2.5,Win32,59.85873339,64526929d8f9b780b29d4d8d,64aeaab685a29f4ca249be02,64beedd79815511e86a326bd,up,1,0.3071,0.35,1,0,0.9159,,,,,,18,0,18,0,1,,,,,
,,650061,001,2023-07-24_22h33.20.549,arm3_q,2022.2.5,Win32,59.85873339,64526929d8f9b780b29d4d8d,64aeaab685a29f4ca249be02,64beedd79815511e86a326bd,up,1,0.3071,0.35,2,0,1.0635,,,,,,19,0,19,0,1,,,,,
,,650061,001,2023-07-24_22h33.20.549,arm3_q,2022.2.5,Win32,59.85873339,64526929d8f9b780b29d4d8d,64aeaab685a29f4ca249be02,64beedd79815511e86a326bd,up,-1,0.3071,0.35,2,0,2.062,,,,,,20,0,20,0,1,,,,,
,,650061,001,2023-07-24_22h33.20.549,arm3_q,2022.2.5,Win32,59.85873339,64526929d8f9b780b29d4d8d,64aeaab685a29f4ca249be02,64beedd79815511e86a326bd,up,1,0.3071,0.35,2,0,1.2472,,,,,,21,0,21,0,1,,,,,
,,650061,001,2023-07-24_22h33.20.549,arm3_q,2022.2.5,Win32,59.85873339,64526929d8f9b780b29d4d8d,64aeaab685a29f4ca249be02,64beedd79815511e86a326bd,up,1,0.3071,0.35,2,0,1.7455,,,,,,22,0,22,0,1,,,,,
,,650061,001,2023-07-24_22h33.20.549,arm3_q,2022.2.5,Win32,59.85873339,64526929d8f9b780b29d4d8d,64aeaab685a29f4ca249be02,64beedd79815511e86a326bd,right,1,0.3071,0.35,2,0.01239303,1.4996,,,,,,23,0,23,0,1,,,,,
,,650061,001,2023-07-24_22h33.20.549,arm3_q,2022.2.5,Win32,59.85873339,64526929d8f9b780b29d4d8d,64aeaab685a29f4ca249be02,64beedd79815511e86a326bd,right,1,0.3071,0.35,2,0.019490584,0.4046,,,,,,24,0,24,0,1,,,,,
,,650061,001,2023-07-24_22h33.20.549,arm3_q,2022.2.5,Win32,59.85873339,64526929d8f9b780b29d4d8d,64aeaab685a29f4ca249be02,64beedd79815511e86a326bd,up,1,0.3071,0.35,2,0,0.666,,,,,,25,0,25,0,1,,,,,
,,650061,001,2023-07-24_22h33.20.549,arm3_q,2022.2.5,Win32,59.85873339,64526929d8f9b780b29d4d8d,64aeaab685a29f4ca249be02,64beedd79815511e86a326bd,right,1,0.3071,0.35,2,0.024941411,1.4491,,,,,,26,0,26,0,1,,,,,
,,650061,001,2023-07-24_22h33.20.549,arm3_q,2022.2.5,Win32,59.85873339,64526929d8f9b780b29d4d8d,64aeaab685a29f4ca249be02,64beedd79815511e86a326bd,right,1,0.3071,0.35,2,0.038282785,0.4018,,,,,,27,0,27,0,1,,,,,
,,650061,001,2023-07-24_22h33.20.549,arm3_q,2022.2.5,Win32,59.85873339,64526929d8f9b780b29d4d8d,64aeaab685a29f4ca249be02,64beedd79815511e86a326bd,right,1,0.3071,0.35,2,0.049511837,0.6406,,,,,,28,0,28,0,1,,,,,
,,650061,001,2023-07-24_22h33.20.549,arm3_q,2022.2.5,Win32,59.85873339,64526929d8f9b780b29d4d8d,64aeaab685a29f4ca249be02,64beedd79815511e86a326bd,right,1,0.3071,0.35,2,0.074458575,0.433,,,,,,29,0,29,0,1,,,,,
,,650061,001,2023-07-24_22h33.20.549,arm3_q,2022.2.5,Win32,59.85873339,64526929d8f9b780b29d4d8d,64aeaab685a29f4ca249be02,64beedd79815511e86a326bd,right,1,0.3071,0.35,2,0.074330714,0.2967,,,,,,30,0,30,0,1,,,,,
,,650061,001,2023-07-24_22h33.20.549,arm3_q,2022.2.5,Win32,59.85873339,64526929d8f9b780b29d4d8d,64aeaab685a29f4ca249be02,64beedd79815511e86a326bd,right,1,0.3071,0.35,2,0.086350889,0.3027,,,,,,31,0,31,0,1,,,,,
,,650061,001,2023-07-24_22h33.20.549,arm3_q,2022.2.5,Win32,59.85873339,64526929d8f9b780b29d4d8d,64aeaab685a29f4ca249be02,64beedd79815511e86a326bd,up,1,0.3071,0.35,2,0,0.4451,,,,,,32,0,32,0,1,,,,,
,,650061,001,2023-07-24_22h33.20.549,arm3_q,2022.2.5,Win32,59.85873339,64526929d8f9b780b29d4d8d,64aeaab685a29f4ca249be02,64beedd79815511e86a326bd,right,1,0.3071,0.35,2,0.024934694,1.2842,,,,,,33,0,33,0,1,,,,,
,,650061,001,2023-07-24_22h33.20.549,arm3_q,2022.2.5,Win32,59.85873339,64526929d8f9b780b29d4d8d,64aeaab685a29f4ca249be02,64beedd79815511e86a326bd,right,1,0.3071,0.35,2,0.029663817,0.2754,,,,,,34,0,34,0,1,,,,,
,,650061,001,2023-07-24_22h33.20.549,arm3_q,2022.2.5,Win32,59.85873339,64526929d8f9b780b29d4d8d,64aeaab685a29f4ca249be02,64beedd79815511e86a326bd,up,1,0.3071,0.35,2,0,0.4492,,,,,,35,0,35,0,1,,,,,
,,650061,001,2023-07-24_22h33.20.549,arm3_q,2022.2.5,Win32,59.85873339,64526929d8f9b780b29d4d8d,64aeaab685a29f4ca249be02,64beedd79815511e86a326bd,right,1,0.3071,0.35,2,0.009325241,1.4147,,,,,,36,0,36,0,1,,,,,
,,650061,001,2023-07-24_22h33.20.549,arm3_q,2022.2.5,Win32,59.85873339,64526929d8f9b780b29d4d8d,64aeaab685a29f4ca249be02,64beedd79815511e86a326bd,right,1,0.3071,0.35,2,0.055166342,0.4727,,,,,,37,0,37,0,1,,,,,
,,650061,001,2023-07-24_22h33.20.549,arm3_q,2022.2.5,Win32,59.85873339,64526929d8f9b780b29d4d8d,64aeaab685a29f4ca249be02,64beedd79815511e86a326bd,up,1,0.3071,0.35,3,0,1.2984,,,,,,38,0,38,0,1,,,,,
,,650061,001,2023-07-24_22h33.20.549,arm3_q,2022.2.5,Win32,59.85873339,64526929d8f9b780b29d4d8d,64aeaab685a29f4ca249be02,64beedd79815511e86a326bd,right,1,0.3071,0.35,3,0.042480784,1.117,,,,,,39,0,39,0,1,,,,,
,,650061,001,2023-07-24_22h33.20.549,arm3_q,2022.2.5,Win32,59.85873339,64526929d8f9b780b29d4d8d,64aeaab685a29f4ca249be02,64beedd79815511e86a326bd,right,1,0.3071,0.35,3,0.049312409,0.3062,,,,,,40,0,40,0,1,,,,,
,,650061,001,2023-07-24_22h33.20.549,arm3_q,2022.2.5,Win32,59.85873339,64526929d8f9b780b29d4d8d,64aeaab685a29f4ca249be02,64beedd79815511e86a326bd,up,1,0.3071,0.35,4,0,0.4334,,,,,,41,0,41,0,1,,,,,
,,650061,001,2023-07-24_22h33.20.549,arm3_q,2022.2.5,Win32,59.85873339,64526929d8f9b780b29d4d8d,64aeaab685a29f4ca249be02,64beedd79815511e86a326bd,right,1,0.3071,0.35,4,0.005769742,1.0311,,,,,,42,0,42,0,1,,,,,
,,650061,001,2023-07-24_22h33.20.549,arm3_q,2022.2.5,Win32,59.85873339,64526929d8f9b780b29d4d8d,64aeaab685a29f4ca249be02,64beedd79815511e86a326bd,right,1,0.3071,0.35,4,0.029310714,0.2407,,,,,,43,0,43,0,1,,,,,
,,650061,001,2023-07-24_22h33.20.549,arm3_q,2022.2.5,Win32,59.85873339,64526929d8f9b780b29d4d8d,64aeaab685a29f4ca249be02,64beedd79815511e86a326bd,up,1,0.3071,0.35,4,0,0.856,,,,,,44,0,44,0,1,,,,,
,,650061,001,2023-07-24_22h33.20.549,arm3_q,2022.2.5,Win32,59.85873339,64526929d8f9b780b29d4d8d,64aeaab685a29f4ca249be02,64beedd79815511e86a326bd,right,1,0.3071,0.35,4,0.03554009,1.0909,,,,,,45,0,45,0,1,,,,,
,,650061,001,2023-07-24_22h33.20.549,arm3_q,2022.2.5,Win32,59.85873339,64526929d8f9b780b29d4d8d,64aeaab685a29f4ca249be02,64beedd79815511e86a326bd,right,1,0.3071,0.35,4,0.049277172,0.209,,,,,,46,0,46,0,1,,,,,
,,650061,001,2023-07-24_22h33.20.549,arm3_q,2022.2.5,Win32,59.85873339,64526929d8f9b780b29d4d8d,64aeaab685a29f4ca249be02,64beedd79815511e86a326bd,right,1,0.3071,0.35,4,0.063465559,0.3222,,,,,,47,0,47,0,1,,,,,
,,650061,001,2023-07-24_22h33.20.549,arm3_q,2022.2.5,Win32,59.85873339,64526929d8f9b780b29d4d8d,64aeaab685a29f4ca249be02,64beedd79815511e86a326bd,up,1,0.3071,0.35,4,0,0.5176,,,,,,48,0,48,0,1,,,,,
,,650061,001,2023-07-24_22h33.20.549,arm3_q,2022.2.5,Win32,59.85873339,64526929d8f9b780b29d4d8d,64aeaab685a29f4ca249be02,64beedd79815511e86a326bd,up,1,0.3071,0.35,5,0,0.9346,,,,,,49,0,49,0,1,,,,,
,,650061,001,2023-07-24_22h33.20.549,arm3_q,2022.2.5,Win32,59.85873339,64526929d8f9b780b29d4d8d,64aeaab685a29f4ca249be02,64beedd79815511e86a326bd,right,1,0.3071,0.35,5,0.027799166,1.7316,,,,,,50,0,50,0,1,,,,,
,,650061,001,2023-07-24_22h33.20.549,arm3_q,2022.2.5,Win32,59.85873339,64526929d8f9b780b29d4d8d,64aeaab685a29f4ca249be02,64beedd79815511e86a326bd,right,1,0.3071,0.35,5,0.045817228,0.205,,,,,,51,0,51,0,1,,,,,
,,650061,001,2023-07-24_22h33.20.549,arm3_q,2022.2.5,Win32,59.85873339,64526929d8f9b780b29d4d8d,64aeaab685a29f4ca249be02,64beedd79815511e86a326bd,right,1,0.3071,0.35,5,0.048045899,0.2028,,,,,,52,0,52,0,1,,,,,
,,650061,001,2023-07-24_22h33.20.549,arm3_q,2022.2.5,Win32,59.85873339,64526929d8f9b780b29d4d8d,64aeaab685a29f4ca249be02,64beedd79815511e86a326bd,down,-1,0.3071,0.35,5,0,0.7215,,,,,,53,0,53,0,1,,,,,
,,650061,001,2023-07-24_22h33.20.549,arm3_q,2022.2.5,Win32,59.85873339,64526929d8f9b780b29d4d8d,64aeaab685a29f4ca249be02,64beedd79815511e86a326bd,up,1,0.3071,0.35,5,0,1.3007,,,,,,54,0,54,0,1,,,,,
,,650061,001,2023-07-24_22h33.20.549,arm3_q,2022.2.5,Win32,59.85873339,64526929d8f9b780b29d4d8d,64aeaab685a29f4ca249be02,64beedd79815511e86a326bd,up,1,0.3071,0.35,5,0,0.9937,,,,,,55,0,55,0,1,,,,,
,,650061,001,2023-07-24_22h33.20.549,arm3_q,2022.2.5,Win32,59.85873339,64526929d8f9b780b29d4d8d,64aeaab685a29f4ca249be02,64beedd79815511e86a326bd,up,1,0.3071,0.35,5,0,1.551,,,,,,56,0,56,0,1,,,,,
,,650061,001,2023-07-24_22h33.20.549,arm3_q,2022.2.5,Win32,59.85873339,64526929d8f9b780b29d4d8d,64aeaab685a29f4ca249be02,64beedd79815511e86a326bd,right,1,0.3071,0.35,5,0.006903895,1.2096,,,,,,57,0,57,0,1,,,,,
,,650061,001,2023-07-24_22h33.20.549,arm3_q,2022.2.5,Win32,59.85873339,64526929d8f9b780b29d4d8d,64aeaab685a29f4ca249be02,64beedd79815511e86a326bd,right,1,0.3071,0.35,5,0.047703235,0.3651,,,,,,58,0,58,0,1,,,,,
,,650061,001,2023-07-24_22h33.20.549,arm3_q,2022.2.5,Win32,59.85873339,64526929d8f9b780b29d4d8d,64aeaab685a29f4ca249be02,64beedd79815511e86a326bd,up,1,0.3071,0.35,6,0,0.5641,,,,,,59,0,59,0,1,,,,,
,,650061,001,2023-07-24_22h33.20.549,arm3_q,2022.2.5,Win32,59.85873339,64526929d8f9b780b29d4d8d,64aeaab685a29f4ca249be02,64beedd79815511e86a326bd,right,1,0.3071,0.35,6,0.033104046,0.9856,,,,,,60,0,60,0,1,,,,,
,,650061,001,2023-07-24_22h33.20.549,arm3_q,2022.2.5,Win32,59.85873339,64526929d8f9b780b29d4d8d,64aeaab685a29f4ca249be02,64beedd79815511e86a326bd,right,1,0.3071,0.35,6,0.019468673,0.4115,,,,,,61,0,61,0,1,,,,,
,,650061,001,2023-07-24_22h33.20.549,arm3_q,2022.2.5,Win32,59.85873339,64526929d8f9b780b29d4d8d,64aeaab685a29f4ca249be02,64beedd79815511e86a326bd,up,-1,0.3071,0.35,6,0,0.779,,,,,,62,0,62,0,1,,,,,
,,650061,001,2023-07-24_22h33.20.549,arm3_q,2022.2.5,Win32,59.85873339,64526929d8f9b780b29d4d8d,64aeaab685a29f4ca249be02,64beedd79815511e86a326bd,right,-1,0.3071,0.35,6,-0.013240633,1.3295,,,,,,63,0,63,0,1,,,,,
,,650061,001,2023-07-24_22h33.20.549,arm3_q,2022.2.5,Win32,59.85873339,64526929d8f9b780b29d4d8d,64aeaab685a29f4ca249be02,64beedd79815511e86a326bd,right,-1,0.3071,0.35,6,-0.018886508,0.2155,,,,,,64,0,64,0,1,,,,,
,,650061,001,2023-07-24_22h33.20.549,arm3_q,2022.2.5,Win32,59.85873339,64526929d8f9b780b29d4d8d,64aeaab685a29f4ca249be02,64beedd79815511e86a326bd,down,-1,0.3071,0.35,6,0,0.3254,,,,,,65,0,65,0,1,,,,,
,,650061,001,2023-07-24_22h33.20.549,arm3_q,2022.2.5,Win32,59.85873339,64526929d8f9b780b29d4d8d,64aeaab685a29f4ca249be02,64beedd79815511e86a326bd,right,-1,0.3071,0.35,6,-0.01414623,1.2737,,,,,,66,0,66,0,1,,,,,
,,650061,001,2023-07-24_22h33.20.549,arm3_q,2022.2.5,Win32,59.85873339,64526929d8f9b780b29d4d8d,64aeaab685a29f4ca249be02,64beedd79815511e86a326bd,right,-1,0.3071,0.35,6,-0.083510068,0.2178,,,,,,67,0,67,0,1,,,,,
,,650061,001,2023-07-24_22h33.20.549,arm3_q,2022.2.5,Win32,59.85873339,64526929d8f9b780b29d4d8d,64aeaab685a29f4ca249be02,64beedd79815511e86a326bd,down,-1,0.3071,0.35,6,0,0.3562,,,,,,68,0,68,0,1,,,,,
,,650061,001,2023-07-24_22h33.20.549,arm3_q,2022.2.5,Win32,59.85873339,64526929d8f9b780b29d4d8d,64aeaab685a29f4ca249be02,64beedd79815511e86a326bd,right,-1,0.3071,0.35,6,-0.0292831,1.3515,,,,,,69,0,69,0,1,,,,,
,,650061,001,2023-07-24_22h33.20.549,arm3_q,2022.2.5,Win32,59.85873339,64526929d8f9b780b29d4d8d,64aeaab685a29f4ca249be02,64beedd79815511e86a326bd,right,-1,0.3071,0.35,6,-0.069974117,0.1574,,,,,,70,0,70,0,1,,,,,
,,650061,001,2023-07-24_22h33.20.549,arm3_q,2022.2.5,Win32,59.85873339,64526929d8f9b780b29d4d8d,64aeaab685a29f4ca249be02,64beedd79815511e86a326bd,right,-1,0.3071,0.35,6,-0.056693795,0.5487,,,,,,71,0,71,0,1,,,,,
,,650061,001,2023-07-24_22h33.20.549,arm3_q,2022.2.5,Win32,59.85873339,64526929d8f9b780b29d4d8d,64aeaab685a29f4ca249be02,64beedd79815511e86a326bd,right,-1,0.3071,0.35,6,-0.073111964,0.2154,,,,,,72,0,72,0,1,,,,,
,,650061,001,2023-07-24_22h33.20.549,arm3_q,2022.2.5,Win32,59.85873339,64526929d8f9b780b29d4d8d,64aeaab685a29f4ca249be02,64beedd79815511e86a326bd,right,-1,0.3071,0.35,6,-0.084773304,0.6513,,,,,,73,0,73,0,1,,,,,
,,650061,001,2023-07-24_22h33.20.549,arm3_q,2022.2.5,Win32,59.85873339,64526929d8f9b780b29d4d8d,64aeaab685a29f4ca249be02,64beedd79815511e86a326bd,down,-1,0.3071,0.35,6,0,0.3859,,,,,,74,0,74,0,1,,,,,
,,650061,001,2023-07-24_22h33.20.549,arm3_q,2022.2.5,Win32,59.85873339,64526929d8f9b780b29d4d8d,64aeaab685a29f4ca249be02,64beedd79815511e86a326bd,right,-1,0.3071,0.35,6,-0.012321626,0.8025,,,,,,75,0,75,0,1,,,,,
,,650061,001,2023-07-24_22h33.20.549,arm3_q,2022.2.5,Win32,59.85873339,64526929d8f9b780b29d4d8d,64aeaab685a29f4ca249be02,64beedd79815511e86a326bd,right,-1,0.3071,0.35,6,-0.003608014,0.1784,,,,,,76,0,76,0,1,,,,,
,,650061,001,2023-07-24_22h33.20.549,arm3_q,2022.2.5,Win32,59.85873339,64526929d8f9b780b29d4d8d,64aeaab685a29f4ca249be02,64beedd79815511e86a326bd,right,-1,0.3071,0.35,6,-0.016561074,0.2252,,,,,,77,0,77,0,1,,,,,
,,650061,001,2023-07-24_22h33.20.549,arm3_q,2022.2.5,Win32,59.85873339,64526929d8f9b780b29d4d8d,64aeaab685a29f4ca249be02,64beedd79815511e86a326bd,right,-1,0.3071,0.35,6,-0.028704812,0.8716,,,,,,78,0,78,0,1,,,,,
,,650061,001,2023-07-24_22h33.20.549,arm3_q,2022.2.5,Win32,59.85873339,64526929d8f9b780b29d4d8d,64aeaab685a29f4ca249be02,64beedd79815511e86a326bd,down,-1,0.3071,0.35,7,0,0.4183,,,,,,79,0,79,0,1,,,,,
,,650061,001,2023-07-24_22h33.20.549,arm3_q,2022.2.5,Win32,59.85873339,64526929d8f9b780b29d4d8d,64aeaab685a29f4ca249be02,64beedd79815511e86a326bd,right,-1,0.3071,0.35,7,-0.031887033,0.9625,,,,,,80,0,80,0,1,,,,,
,,650061,001,2023-07-24_22h33.20.549,arm3_q,2022.2.5,Win32,59.85873339,64526929d8f9b780b29d4d8d,64aeaab685a29f4ca249be02,64beedd79815511e86a326bd,right,-1,0.3071,0.35,7,-0.035680664,0.1616,,,,,,81,0,81,0,1,,,,,
,,650061,001,2023-07-24_22h33.20.549,arm3_q,2022.2.5,Win32,59.85873339,64526929d8f9b780b29d4d8d,64aeaab685a29f4ca249be02,64beedd79815511e86a326bd,right,-1,0.3071,0.35,7,-0.044395538,0.2013,,,,,,82,0,82,0,1,,,,,
,,650061,001,2023-07-24_22h33.20.549,arm3_q,2022.2.5,Win32,59.85873339,64526929d8f9b780b29d4d8d,64aeaab685a29f4ca249be02,64beedd79815511e86a326bd,right,-1,0.3071,0.35,7,-0.031044159,0.7925,,,,,,83,0,83,0,1,,,,,
,,650061,001,2023-07-24_22h33.20.549,arm3_q,2022.2.5,Win32,59.85873339,64526929d8f9b780b29d4d8d,64aeaab685a29f4ca249be02,64beedd79815511e86a326bd,right,-1,0.3071,0.35,7,-0.073309909,0.3454,,,,,,84,0,84,0,1,,,,,
,,650061,001,2023-07-24_22h33.20.549,arm3_q,2022.2.5,Win32,59.85873339,64526929d8f9b780b29d4d8d,64aeaab685a29f4ca249be02,64beedd79815511e86a326bd,down,-1,0.3071,0.35,8,0,0.3847,,,,,,85,0,85,0,1,,,,,
,,650061,001,2023-07-24_22h33.20.549,arm3_q,2022.2.5,Win32,59.85873339,64526929d8f9b780b29d4d8d,64aeaab685a29f4ca249be02,64beedd79815511e86a326bd,right,-1,0.3071,0.35,8,-0.038871967,1.0017,,,,,,86,0,86,0,1,,,,,
,,650061,001,2023-07-24_22h33.20.549,arm3_q,2022.2.5,Win32,59.85873339,64526929d8f9b780b29d4d8d,64aeaab685a29f4ca249be02,64beedd79815511e86a326bd,right,-1,0.3071,0.35,8,-0.057970297,0.169,,,,,,87,0,87,0,1,,,,,
,,650061,001,2023-07-24_22h33.20.549,arm3_q,2022.2.5,Win32,59.85873339,64526929d8f9b780b29d4d8d,64aeaab685a29f4ca249be02,64beedd79815511e86a326bd,right,-1,0.3071,0.35,8,-0.085987088,0.2001,,,,,,88,0,88,0,1,,,,,
,,650061,001,2023-07-24_22h33.20.549,arm3_q,2022.2.5,Win32,59.85873339,64526929d8f9b780b29d4d8d,64aeaab685a29f4ca249be02,64beedd79815511e86a326bd,down,-1,0.3071,0.35,9,0,0.5588,,,,,,89,0,89,0,1,,,,,
,,650061,001,2023-07-24_22h33.20.549,arm3_q,2022.2.5,Win32,59.85873339,64526929d8f9b780b29d4d8d,64aeaab685a29f4ca249be02,64beedd79815511e86a326bd,right,-1,0.3071,0.35,9,-0.005604494,0.7715,,,,,,90,0,90,0,1,,,,,
,,650061,001,2023-07-24_22h33.20.549,arm3_q,2022.2.5,Win32,59.85873339,64526929d8f9b780b29d4d8d,64aeaab685a29f4ca249be02,64beedd79815511e86a326bd,right,-1,0.3071,0.35,9,0.008635037,0.2894,,,,,,91,0,91,0,1,,,,,
,,650061,001,2023-07-24_22h33.20.549,arm3_q,2022.2.5,Win32,59.85873339,64526929d8f9b780b29d4d8d,64aeaab685a29f4ca249be02,64beedd79815511e86a326bd,right,-1,0.3071,0.35,9,0.017830357,0.3074,,,,,,92,0,92,0,1,,,,,
,,650061,001,2023-07-24_22h33.20.549,arm3_q,2022.2.5,Win32,59.85873339,64526929d8f9b780b29d4d8d,64aeaab685a29f4ca249be02,64beedd79815511e86a326bd,right,-1,0.3071,0.35,9,0.024164662,0.4632,,,,,,93,0,93,0,1,,,,,
,,650061,001,2023-07-24_22h33.20.549,arm3_q,2022.2.5,Win32,59.85873339,64526929d8f9b780b29d4d8d,64aeaab685a29f4ca249be02,64beedd79815511e86a326bd,right,-1,0.3071,0.35,9,0.004868125,0.6121,,,,,,94,0,94,0,1,,,,,
,,650061,001,2023-07-24_22h33.20.549,arm3_q,2022.2.5,Win32,59.85873339,64526929d8f9b780b29d4d8d,64aeaab685a29f4ca249be02,64beedd79815511e86a326bd,down,-1,0.3071,0.35,10,0,0.6727,,,,,,95,0,95,0,1,,,,,
,,650061,001,2023-07-24_22h33.20.549,arm3_q,2022.2.5,Win32,59.85873339,64526929d8f9b780b29d4d8d,64aeaab685a29f4ca249be02,64beedd79815511e86a326bd,right,-1,0.3071,0.35,10,-0.03638602,0.9694,,,,,,96,0,96,0,1,,,,,
,,650061,001,2023-07-24_22h33.20.549,arm3_q,2022.2.5,Win32,59.85873339,64526929d8f9b780b29d4d8d,64aeaab685a29f4ca249be02,64beedd79815511e86a326bd,right,-1,0.3071,0.35,10,-0.04442687,0.3283,,,,,,97,0,97,0,1,,,,,
,,650061,001,2023-07-24_22h33.20.549,arm3_q,2022.2.5,Win32,59.85873339,64526929d8f9b780b29d4d8d,64aeaab685a29f4ca249be02,64beedd79815511e86a326bd,right,-1,0.3071,0.35,10,-0.043105331,0.2751,,,,,,98,0,98,0,1,,,,,
,,650061,001,2023-07-24_22h33.20.549,arm3_q,2022.2.5,Win32,59.85873339,64526929d8f9b780b29d4d8d,64aeaab685a29f4ca249be02,64beedd79815511e86a326bd,right,-1,0.3071,0.35,10,-0.037328012,1.1553,,,,,,99,0,99,0,1,,,,,
,,650061,001,2023-07-24_22h33.20.549,arm3_q,2022.2.5,Win32,59.85873339,64526929d8f9b780b29d4d8d,64aeaab685a29f4ca249be02,64beedd79815511e86a326bd,right,-1,0.3071,0.35,10,-0.018862673,0.4677,,,,,,100,0,100,0,1,,,,,
,,650061,001,2023-07-24_22h33.20.549,arm3_q,2022.2.5,Win32,59.85873339,64526929d8f9b780b29d4d8d,64aeaab685a29f4ca249be02,64beedd79815511e86a326bd,down,-1,0.3071,0.35,10,0,0.9699,,,,,,101,0,101,0,1,,,,,
,,650061,001,2023-07-24_22h33.20.549,arm3_q,2022.2.5,Win32,59.85873339,64526929d8f9b780b29d4d8d,64aeaab685a29f4ca249be02,64beedd79815511e86a326bd,right,-1,0.3071,0.35,10,-0.022307872,0.9486,,,,,,102,0,102,0,1,,,,,
,,650061,001,2023-07-24_22h33.20.549,arm3_q,2022.2.5,Win32,59.85873339,64526929d8f9b780b29d4d8d,64aeaab685a29f4ca249be02,64beedd79815511e86a326bd,right,-1,0.3071,0.35,10,-0.036010235,0.2242,,,,,,103,0,103,0,1,,,,,
,,650061,001,2023-07-24_22h33.20.549,arm3_q,2022.2.5,Win32,59.85873339,64526929d8f9b780b29d4d8d,64aeaab685a29f4ca249be02,64beedd79815511e86a326bd,right,-1,0.3071,0.35,10,-0.005925608,0.5914,,,,,,104,0,104,0,1,,,,,
,,650061,001,2023-07-24_22h33.20.549,arm3_q,2022.2.5,Win32,59.85873339,64526929d8f9b780b29d4d8d,64aeaab685a29f4ca249be02,64beedd79815511e86a326bd,right,-1,0.3071,0.35,10,-0.029653095,0.4141,,,,,,105,0,105,0,1,,,,,
,,650061,001,2023-07-24_22h33.20.549,arm3_q,2022.2.5,Win32,59.85873339,64526929d8f9b780b29d4d8d,64aeaab685a29f4ca249be02,64beedd79815511e86a326bd,down,-1,0.3071,0.35,10,0,0.5409,,,,,,106,0,106,0,1,,,,,
,,650061,001,2023-07-24_22h33.20.549,arm3_q,2022.2.5,Win32,59.85873339,64526929d8f9b780b29d4d8d,64aeaab685a29f4ca249be02,64beedd79815511e86a326bd,right,-1,0.3071,0.35,10,0.006594926,1.2334,,,,,,107,0,107,0,1,,,,,
,,650061,001,2023-07-24_22h33.20.549,arm3_q,2022.2.5,Win32,59.85873339,64526929d8f9b780b29d4d8d,64aeaab685a29f4ca249be02,64beedd79815511e86a326bd,right,-1,0.3071,0.35,10,-0.003567199,0.3151,,,,,,108,0,108,0,1,,,,,
,,650061,001,2023-07-24_22h33.20.549,arm3_q,2022.2.5,Win32,59.85873339,64526929d8f9b780b29d4d8d,64aeaab685a29f4ca249be02,64beedd79815511e86a326bd,right,-1,0.3071,0.35,10,-0.023965815,0.2515,,,,,,109,0,109,0,1,,,,,
,,650061,001,2023-07-24_22h33.20.549,arm3_q,2022.2.5,Win32,59.85873339,64526929d8f9b780b29d4d8d,64aeaab685a29f4ca249be02,64beedd79815511e86a326bd,right,-1,0.3071,0.35,10,-0.006748643,0.4994,,,,,,110,0,110,0,1,,,,,
,,650061,001,2023-07-24_22h33.20.549,arm3_q,2022.2.5,Win32,59.85873339,64526929d8f9b780b29d4d8d,64aeaab685a29f4ca249be02,64beedd79815511e86a326bd,down,-1,0.3071,0.35,10,0,0.7954,,,,,,111,0,111,0,1,,,,,
,,650061,001,2023-07-24_22h33.20.549,arm3_q,2022.2.5,Win32,59.85873339,64526929d8f9b780b29d4d8d,64aeaab685a29f4ca249be02,64beedd79815511e86a326bd,right,-1,0.3071,0.35,10,-0.005751865,0.7906,,,,,,112,0,112,0,1,,,,,
,,650061,001,2023-07-24_22h33.20.549,arm3_q,2022.2.5,Win32,59.85873339,64526929d8f9b780b29d4d8d,64aeaab685a29f4ca249be02,64beedd79815511e86a326bd,right,-1,0.3071,0.35,10,-0.02843777,0.2622,,,,,,113,0,113,0,1,,,,,
,,650061,001,2023-07-24_22h33.20.549,arm3_q,2022.2.5,Win32,59.85873339,64526929d8f9b780b29d4d8d,64aeaab685a29f4ca249be02,64beedd79815511e86a326bd,right,-1,0.3071,0.35,10,-0.030632309,0.2649,,,,,,114,0,114,0,1,,,,,
,,650061,001,2023-07-24_22h33.20.549,arm3_q,2022.2.5,Win32,59.85873339,64526929d8f9b780b29d4d8d,64aeaab685a29f4ca249be02,64beedd79815511e86a326bd,right,-1,0.3071,0.35,10,-0.012060642,0.2698,,,,,,115,0,115,0,1,,,,,
,,650061,001,2023-07-24_22h33.20.549,arm3_q,2022.2.5,Win32,59.85873339,64526929d8f9b780b29d4d8d,64aeaab685a29f4ca249be02,64beedd79815511e86a326bd,right,-1,0.3071,0.35,10,-0.005996274,0.5637,,,,,,116,0,116,0,1,,,,,
,,650061,001,2023-07-24_22h33.20.549,arm3_q,2022.2.5,Win32,59.85873339,64526929d8f9b780b29d4d8d,64aeaab685a29f4ca249be02,64beedd79815511e86a326bd,down,1,0.3071,0.35,10,0,0.6339,,,,,,117,0,117,0,1,,,,,
,,650061,001,2023-07-24_22h33.20.549,arm3_q,2022.2.5,Win32,59.85873339,64526929d8f9b780b29d4d8d,64aeaab685a29f4ca249be02,64beedd79815511e86a326bd,right,1,0.3071,0.35,10,-0.000495271,0.8062,,,,,,118,0,118,0,1,,,,,
,,650061,001,2023-07-24_22h33.20.549,arm3_q,2022.2.5,Win32,59.85873339,64526929d8f9b780b29d4d8d,64aeaab685a29f4ca249be02,64beedd79815511e86a326bd,right,1,0.3071,0.35,10,0.012598747,0.2481,,,,,,119,0,119,0,1,,,,,
,,650061,001,2023-07-24_22h33.20.549,arm3_q,2022.2.5,Win32,59.85873339,64526929d8f9b780b29d4d8d,64aeaab685a29f4ca249be02,64beedd79815511e86a326bd,right,1,0.3071,0.35,10,0.041295811,0.3532,,,,,,120,0,120,0,1,,,,,
,,650061,001,2023-07-24_22h33.20.549,arm3_q,2022.2.5,Win32,59.85873339,64526929d8f9b780b29d4d8d,64aeaab685a29f4ca249be02,64beedd79815511e86a326bd,up,-1,0.3071,0.35,10,0,0.3537,,,,,,121,0,121,0,1,,,,,
,,650061,001,2023-07-24_22h33.20.549,arm3_q,2022.2.5,Win32,59.85873339,64526929d8f9b780b29d4d8d,64aeaab685a29f4ca249be02,64beedd79815511e86a326bd,right,-1,0.3071,0.35,10,-0.00833992,0.8001,,,,,,122,0,122,0,1,,,,,
,,650061,001,2023-07-24_22h33.20.549,arm3_q,2022.2.5,Win32,59.85873339,64526929d8f9b780b29d4d8d,64aeaab685a29f4ca249be02,64beedd79815511e86a326bd,right,-1,0.3071,0.35,10,-0.043249463,0.2356,,,,,,123,0,123,0,1,,,,,
,,650061,001,2023-07-24_22h33.20.549,arm3_q,2022.2.5,Win32,59.85873339,64526929d8f9b780b29d4d8d,64aeaab685a29f4ca249be02,64beedd79815511e86a326bd,right,-1,0.3071,0.35,10,-0.060957827,0.2553,,,,,,124,0,124,0,1,,,,,
,,650061,001,2023-07-24_22h33.20.549,arm3_q,2022.2.5,Win32,59.85873339,64526929d8f9b780b29d4d8d,64aeaab685a29f4ca249be02,64beedd79815511e86a326bd,right,-1,0.3071,0.35,10,-0.073718863,0.5142,,,,,,125,0,125,0,1,,,,,
,,650061,001,2023-07-24_22h33.20.549,arm3_q,2022.2.5,Win32,59.85873339,64526929d8f9b780b29d4d8d,64aeaab685a29f4ca249be02,64beedd79815511e86a326bd,down,-1,0.3071,0.35,10,0,0.3148,,,,,,126,0,126,0,1,,,,,
,,650061,001,2023-07-24_22h33.20.549,arm3_q,2022.2.5,Win32,59.85873339,64526929d8f9b780b29d4d8d,64aeaab685a29f4ca249be02,64beedd79815511e86a326bd,right,-1,0.3071,0.35,10,-0.018163248,0.7661,,,,,,127,0,127,0,1,,,,,
,,650061,001,2023-07-24_22h33.20.549,arm3_q,2022.2.5,Win32,59.85873339,64526929d8f9b780b29d4d8d,64aeaab685a29f4ca249be02,64beedd79815511e86a326bd,right,-1,0.3071,0.35,10,-0.020286175,0.3207,,,,,,128,0,128,0,1,,,,,
,,650061,001,2023-07-24_22h33.20.549,arm3_q,2022.2.5,Win32,59.85873339,64526929d8f9b780b29d4d8d,64aeaab685a29f4ca249be02,64beedd79815511e86a326bd,right,-1,0.3071,0.35,10,-0.050577098,0.254,,,,,,129,0,129,0,1,,,,,
,,650061,001,2023-07-24_22h33.20.549,arm3_q,2022.2.5,Win32,59.85873339,64526929d8f9b780b29d4d8d,64aeaab685a29f4ca249be02,64beedd79815511e86a326bd,right,-1,0.3071,0.35,10,-0.076407604,0.3226,,,,,,130,0,130,0,1,,,,,
,,650061,001,2023-07-24_22h33.20.549,arm3_q,2022.2.5,Win32,59.85873339,64526929d8f9b780b29d4d8d,64aeaab685a29f4ca249be02,64beedd79815511e86a326bd,down,-1,0.3071,0.35,10,0,0.3571,,,,,,131,0,131,0,1,,,,,
,,650061,001,2023-07-24_22h33.20.549,arm3_q,2022.2.5,Win32,59.85873339,64526929d8f9b780b29d4d8d,64aeaab685a29f4ca249be02,64beedd79815511e86a326bd,right,-1,0.3071,0.35,10,-0.005485203,0.7543,,,,,,132,0,132,0,1,,,,,
,,650061,001,2023-07-24_22h33.20.549,arm3_q,2022.2.5,Win32,59.85873339,64526929d8f9b780b29d4d8d,64aeaab685a29f4ca249be02,64beedd79815511e86a326bd,right,-1,0.3071,0.35,10,-0.049964408,0.2606,,,,,,133,0,133,0,1,,,,,
,,650061,001,2023-07-24_22h33.20.549,arm3_q,2022.2.5,Win32,59.85873339,64526929d8f9b780b29d4d8d,64aeaab685a29f4ca249be02,64beedd79815511e86a326bd,right,-1,0.3071,0.35,10,-0.079393456,0.3118,,,,,,134,0,134,0,1,,,,,
,,650061,001,2023-07-24_22h33.20.549,arm3_q,2022.2.5,Win32,59.85873339,64526929d8f9b780b29d4d8d,64aeaab685a29f4ca249be02,64beedd79815511e86a326bd,right,-1,0.3071,0.35,10,-0.054177426,0.4151,,,,,,135,0,135,0,1,,,,,
,,650061,001,2023-07-24_22h33.20.549,arm3_q,2022.2.5,Win32,59.85873339,64526929d8f9b780b29d4d8d,64aeaab685a29f4ca249be02,64beedd79815511e86a326bd,right,-1,0.3071,0.35,10,-0.074572506,0.4635,,,,,,136,0,136,0,1,,,,,
,,650061,001,2023-07-24_22h33.20.549,arm3_q,2022.2.5,Win32,59.85873339,64526929d8f9b780b29d4d8d,64aeaab685a29f4ca249be02,64beedd79815511e86a326bd,right,-1,0.3071,0.35,10,-0.061478641,0.5787,,,,,,137,0,137,0,1,,,,,
,,650061,001,2023-07-24_22h33.20.549,arm3_q,2022.2.5,Win32,59.85873339,64526929d8f9b780b29d4d8d,64aeaab685a29f4ca249be02,64beedd79815511e86a326bd,right,-1,0.3071,0.35,10,-0.077030532,0.4486,,,,,,138,0,138,0,1,,,,,
,,650061,001,2023-07-24_22h33.20.549,arm3_q,2022.2.5,Win32,59.85873339,64526929d8f9b780b29d4d8d,64aeaab685a29f4ca249be02,64beedd79815511e86a326bd,right,-1,0.3071,0.35,10,-0.094423108,0.7021,,,,,,139,0,139,0,1,,,,,
,,650061,001,2023-07-24_22h33.20.549,arm3_q,2022.2.5,Win32,59.85873339,64526929d8f9b780b29d4d8d,64aeaab685a29f4ca249be02,64beedd79815511e86a326bd,right,-1,0.3071,0.35,10,-0.108488576,0.5047,,,,,,140,0,140,0,1,,,,,
,,650061,001,2023-07-24_22h33.20.549,arm3_q,2022.2.5,Win32,59.85873339,64526929d8f9b780b29d4d8d,64aeaab685a29f4ca249be02,64beedd79815511e86a326bd,down,-1,0.3071,0.35,10,0,0.4344,,,,,,141,0,141,0,1,,,,,
,,650061,001,2023-07-24_22h33.20.549,arm3_q,2022.2.5,Win32,59.85873339,64526929d8f9b780b29d4d8d,64aeaab685a29f4ca249be02,64beedd79815511e86a326bd,right,-1,0.3071,0.35,10,-0.046573025,0.8553,,,,,,142,0,142,0,1,,,,,
,,650061,001,2023-07-24_22h33.20.549,arm3_q,2022.2.5,Win32,59.85873339,64526929d8f9b780b29d4d8d,64aeaab685a29f4ca249be02,64beedd79815511e86a326bd,right,-1,0.3071,0.35,10,-0.070614118,0.262,,,,,,143,0,143,0,1,,,,,
,,650061,001,2023-07-24_22h33.20.549,arm3_q,2022.2.5,Win32,59.85873339,64526929d8f9b780b29d4d8d,64aeaab685a29f4ca249be02,64beedd79815511e86a326bd,right,-1,0.3071,0.35,10,-0.065855605,0.2586,,,,,,144,0,144,0,1,,,,,
,,650061,001,2023-07-24_22h33.20.549,arm3_q,2022.2.5,Win32,59.85873339,64526929d8f9b780b29d4d8d,64aeaab685a29f4ca249be02,64beedd79815511e86a326bd,right,-1,0.3071,0.35,10,-0.083201856,0.735,,,,,,145,0,145,0,1,,,,,
,,650061,001,2023-07-24_22h33.20.549,arm3_q,2022.2.5,Win32,59.85873339,64526929d8f9b780b29d4d8d,64aeaab685a29f4ca249be02,64beedd79815511e86a326bd,down,1,0.3071,0.35,10,0,0.4567,,,,,,146,0,146,0,1,,,,,
,,650061,001,2023-07-24_22h33.20.549,arm3_q,2022.2.5,Win32,59.85873339,64526929d8f9b780b29d4d8d,64aeaab685a29f4ca249be02,64beedd79815511e86a326bd,right,1,0.3071,0.35,10,-0.002837906,1.0793,,,,,,147,0,147,0,1,,,,,
,,650061,001,2023-07-24_22h33.20.549,arm3_q,2022.2.5,Win32,59.85873339,64526929d8f9b780b29d4d8d,64aeaab685a29f4ca249be02,64beedd79815511e86a326bd,right,1,0.3071,0.35,10,0.025129305,0.1922,,,,,,148,0,148,0,1,,,,,
,,650061,001,2023-07-24_22h33.20.549,arm3_q,2022.2.5,Win32,59.85873339,64526929d8f9b780b29d4d8d,64aeaab685a29f4ca249be02,64beedd79815511e86a326bd,right,1,0.3071,0.35,10,0.024057386,0.4425,,,,,,149,0,149,0,1,,,,,
,,650061,001,2023-07-24_22h33.20.549,arm3_q,2022.2.5,Win32,59.85873339,64526929d8f9b780b29d4d8d,64aeaab685a29f4ca249be02,64beedd79815511e86a326bd,right,1,0.3071,0.35,10,0.008452525,0.2045,,,,,,150,0,150,0,1,,,,,
,,650061,001,2023-07-24_22h33.20.549,arm3_q,2022.2.5,Win32,59.85873339,64526929d8f9b780b29d4d8d,64aeaab685a29f4ca249be02,64beedd79815511e86a326bd,right,1,0.3071,0.35,10,-0.003503601,0.2909,,,,,,151,0,151,0,1,,,,,
,,650061,001,2023-07-24_22h33.20.549,arm3_q,2022.2.5,Win32,59.85873339,64526929d8f9b780b29d4d8d,64aeaab685a29f4ca249be02,64beedd79815511e86a326bd,right,1,0.3071,0.35,10,-0.012899526,0.3367,,,,,,152,0,152,0,1,,,,,
,,650061,001,2023-07-24_22h33.20.549,arm3_q,2022.2.5,Win32,59.85873339,64526929d8f9b780b29d4d8d,64aeaab685a29f4ca249be02,64beedd79815511e86a326bd,right,1,0.3071,0.35,10,-0.035854835,0.3983,,,,,,153,0,153,0,1,,,,,
,,650061,001,2023-07-24_22h33.20.549,arm3_q,2022.2.5,Win32,59.85873339,64526929d8f9b780b29d4d8d,64aeaab685a29f4ca249be02,64beedd79815511e86a326bd,right,1,0.3071,0.35,10,-0.023552999,0.609,,,,,,154,0,154,0,1,,,,,
,,650061,001,2023-07-24_22h33.20.549,arm3_q,2022.2.5,Win32,59.85873339,64526929d8f9b780b29d4d8d,64aeaab685a29f4ca249be02,64beedd79815511e86a326bd,right,1,0.3071,0.35,10,-0.014569075,0.4241,,,,,,155,0,155,0,1,,,,,
,,650061,001,2023-07-24_22h33.20.549,arm3_q,2022.2.5,Win32,59.85873339,64526929d8f9b780b29d4d8d,64aeaab685a29f4ca249be02,64beedd79815511e86a326bd,right,1,0.3071,0.35,10,-0.006244463,0.5506,,,,,,156,0,156,0,1,,,,,
,,650061,001,2023-07-24_22h33.20.549,arm3_q,2022.2.5,Win32,59.85873339,64526929d8f9b780b29d4d8d,64aeaab685a29f4ca249be02,64beedd79815511e86a326bd,right,1,0.3071,0.35,10,-0.01495553,0.6804,,,,,,157,0,157,0,1,,,,,
,,650061,001,2023-07-24_22h33.20.549,arm3_q,2022.2.5,Win32,59.85873339,64526929d8f9b780b29d4d8d,64aeaab685a29f4ca249be02,64beedd79815511e86a326bd,right,1,0.3071,0.35,10,0.002819079,0.5044,,,,,,158,0,158,0,1,,,,,
,,650061,001,2023-07-24_22h33.20.549,arm3_q,2022.2.5,Win32,59.85873339,64526929d8f9b780b29d4d8d,64aeaab685a29f4ca249be02,64beedd79815511e86a326bd,up,1,0.3071,0.35,10,0,1.3334,,,,,,159,0,159,0,1,,,,,
,,650061,001,2023-07-24_22h33.20.549,arm3_q,2022.2.5,Win32,59.85873339,64526929d8f9b780b29d4d8d,64aeaab685a29f4ca249be02,64beedd79815511e86a326bd,right,1,0.3071,0.35,10,0.032124107,1.1885,,,,,,160,0,160,0,1,,,,,
,,650061,001,2023-07-24_22h33.20.549,arm3_q,2022.2.5,Win32,59.85873339,64526929d8f9b780b29d4d8d,64aeaab685a29f4ca249be02,64beedd79815511e86a326bd,right,1,0.3071,0.35,10,0.068019567,0.3285,,,,,,161,0,161,0,1,,,,,
,,650061,001,2023-07-24_22h33.20.549,arm3_q,2022.2.5,Win32,59.85873339,64526929d8f9b780b29d4d8d,64aeaab685a29f4ca249be02,64beedd79815511e86a326bd,up,-1,0.3071,0.35,10,0,0.3487,,,,,,162,0,162,0,1,,,,,
,,650061,001,2023-07-24_22h33.20.549,arm3_q,2022.2.5,Win32,59.85873339,64526929d8f9b780b29d4d8d,64aeaab685a29f4ca249be02,64beedd79815511e86a326bd,right,-1,0.3071,0.35,10,0.005439784,0.869,,,,,,163,0,163,0,1,,,,,
,,650061,001,2023-07-24_22h33.20.549,arm3_q,2022.2.5,Win32,59.85873339,64526929d8f9b780b29d4d8d,64aeaab685a29f4ca249be02,64beedd79815511e86a326bd,right,-1,0.3071,0.35,10,0.006699059,0.2193,,,,,,164,0,164,0,1,,,,,
,,650061,001,2023-07-24_22h33.20.549,arm3_q,2022.2.5,Win32,59.85873339,64526929d8f9b780b29d4d8d,64aeaab685a29f4ca249be02,64beedd79815511e86a326bd,right,-1,0.3071,0.35,10,0.00620492,0.2199,,,,,,165,0,165,0,1,,,,,
,,650061,001,2023-07-24_22h33.20.549,arm3_q,2022.2.5,Win32,59.85873339,64526929d8f9b780b29d4d8d,64aeaab685a29f4ca249be02,64beedd79815511e86a326bd,down,-1,0.3071,0.35,11,0,0.7162,,,,,,166,0,166,0,1,,,,,
,,650061,001,2023-07-24_22h33.20.549,arm3_q,2022.2.5,Win32,59.85873339,64526929d8f9b780b29d4d8d,64aeaab685a29f4ca249be02,64beedd79815511e86a326bd,right,-1,0.3071,0.35,11,0.000980021,1.0048,,,,,,167,0,167,0,1,,,,,
,,650061,001,2023-07-24_22h33.20.549,arm3_q,2022.2.5,Win32,59.85873339,64526929d8f9b780b29d4d8d,64aeaab685a29f4ca249be02,64beedd79815511e86a326bd,right,-1,0.3071,0.35,11,-0.013299079,0.1933,,,,,,168,0,168,0,1,,,,,
,,650061,001,2023-07-24_22h33.20.549,arm3_q,2022.2.5,Win32,59.85873339,64526929d8f9b780b29d4d8d,64aeaab685a29f4ca249be02,64beedd79815511e86a326bd,right,-1,0.3071,0.35,11,-0.013896747,0.3166,,,,,,169,0,169,0,1,,,,,
,,650061,001,2023-07-24_22h33.20.549,arm3_q,2022.2.5,Win32,59.85873339,64526929d8f9b780b29d4d8d,64aeaab685a29f4ca249be02,64beedd79815511e86a326bd,right,-1,0.3071,0.35,11,-0.030165398,0.3238,,,,,,170,0,170,0,1,,,,,
,,650061,001,2023-07-24_22h33.20.549,arm3_q,2022.2.5,Win32,59.85873339,64526929d8f9b780b29d4d8d,64aeaab685a29f4ca249be02,64beedd79815511e86a326bd,down,-1,0.3071,0.35,11,0,0.4829,,,,,,171,0,171,0,1,,,,,
,,650061,001,2023-07-24_22h33.20.549,arm3_q,2022.2.5,Win32,59.85873339,64526929d8f9b780b29d4d8d,64aeaab685a29f4ca249be02,64beedd79815511e86a326bd,right,-1,0.3071,0.35,11,-0.020499535,0.7852,,,,,,172,0,172,0,1,,,,,
,,650061,001,2023-07-24_22h33.20.549,arm3_q,2022.2.5,Win32,59.85873339,64526929d8f9b780b29d4d8d,64aeaab685a29f4ca249be02,64beedd79815511e86a326bd,right,-1,0.3071,0.35,11,-0.051543036,0.2161,,,,,,173,0,173,0,1,,,,,
,,650061,001,2023-07-24_22h33.20.549,arm3_q,2022.2.5,Win32,59.85873339,64526929d8f9b780b29d4d8d,64aeaab685a29f4ca249be02,64beedd79815511e86a326bd,right,-1,0.3071,0.35,11,-0.059978314,0.2791,,,,,,174,0,174,0,1,,,,,
,,650061,001,2023-07-24_22h33.20.549,arm3_q,2022.2.5,Win32,59.85873339,64526929d8f9b780b29d4d8d,64aeaab685a29f4ca249be02,64beedd79815511e86a326bd,right,-1,0.3071,0.35,11,-0.073144602,0.2678,,,,,,175,0,175,0,1,,,,,
,,650061,001,2023-07-24_22h33.20.549,arm3_q,2022.2.5,Win32,59.85873339,64526929d8f9b780b29d4d8d,64aeaab685a29f4ca249be02,64beedd79815511e86a326bd,down,-1,0.3071,0.35,11,0,0.4958,,,,,,176,0,176,0,1,,,,,
,,650061,001,2023-07-24_22h33.20.549,arm3_q,2022.2.5,Win32,59.85873339,64526929d8f9b780b29d4d8d,64aeaab685a29f4ca249be02,64beedd79815511e86a326bd,right,-1,0.3071,0.35,11,-0.000330064,0.6946,,,,,,177,0,177,0,1,,,,,
,,650061,001,2023-07-24_22h33.20.549,arm3_q,2022.2.5,Win32,59.85873339,64526929d8f9b780b29d4d8d,64aeaab685a29f4ca249be02,64beedd79815511e86a326bd,right,-1,0.3071,0.35,11,0.007957003,0.2028,,,,,,178,0,178,0,1,,,,,
,,650061,001,2023-07-24_22h33.20.549,arm3_q,2022.2.5,Win32,59.85873339,64526929d8f9b780b29d4d8d,64aeaab685a29f4ca249be02,64beedd79815511e86a326bd,right,-1,0.3071,0.35,11,-0.013632733,0.2362,,,,,,179,0,179,0,1,,,,,
,,650061,001,2023-07-24_22h33.20.549,arm3_q,2022.2.5,Win32,59.85873339,64526929d8f9b780b29d4d8d,64aeaab685a29f4ca249be02,64beedd79815511e86a326bd,right,-1,0.3071,0.35,11,-0.020117606,0.2932,,,,,,180,0,180,0,1,,,,,
,,650061,001,2023-07-24_22h33.20.549,arm3_q,2022.2.5,Win32,59.85873339,64526929d8f9b780b29d4d8d,64aeaab685a29f4ca249be02,64beedd79815511e86a326bd,right,-1,0.3071,0.35,11,-0.017302573,0.4198,,,,,,181,0,181,0,1,,,,,
,,650061,001,2023-07-24_22h33.20.549,arm3_q,2022.2.5,Win32,59.85873339,64526929d8f9b780b29d4d8d,64aeaab685a29f4ca249be02,64beedd79815511e86a326bd,right,-1,0.3071,0.35,11,-0.009708118,0.4457,,,,,,182,0,182,0,1,,,,,
,,650061,001,2023-07-24_22h33.20.549,arm3_q,2022.2.5,Win32,59.85873339,64526929d8f9b780b29d4d8d,64aeaab685a29f4ca249be02,64beedd79815511e86a326bd,right,-1,0.3071,0.35,11,-0.01225404,0.4411,,,,,,183,0,183,0,1,,,,,
,,650061,001,2023-07-24_22h33.20.549,arm3_q,2022.2.5,Win32,59.85873339,64526929d8f9b780b29d4d8d,64aeaab685a29f4ca249be02,64beedd79815511e86a326bd,down,-1,0.3071,0.35,11,0,0.3286,,,,,,184,0,184,0,1,,,,,
,,650061,001,2023-07-24_22h33.20.549,arm3_q,2022.2.5,Win32,59.85873339,64526929d8f9b780b29d4d8d,64aeaab685a29f4ca249be02,64beedd79815511e86a326bd,right,-1,0.3071,0.35,11,0.013338428,0.7009,,,,,,185,0,185,0,1,,,,,
,,650061,001,2023-07-24_22h33.20.549,arm3_q,2022.2.5,Win32,59.85873339,64526929d8f9b780b29d4d8d,64aeaab685a29f4ca249be02,64beedd79815511e86a326bd,right,-1,0.3071,0.35,11,0.026517829,0.2746,,,,,,186,0,186,0,1,,,,,
,,650061,001,2023-07-24_22h33.20.549,arm3_q,2022.2.5,Win32,59.85873339,64526929d8f9b780b29d4d8d,64aeaab685a29f4ca249be02,64beedd79815511e86a326bd,right,-1,0.3071,0.35,11,0.018298025,0.2473,,,,,,187,0,187,0,1,,,,,
,,650061,001,2023-07-24_22h33.20.549,arm3_q,2022.2.5,Win32,59.85873339,64526929d8f9b780b29d4d8d,64aeaab685a29f4ca249be02,64beedd79815511e86a326bd,right,-1,0.3071,0.35,11,0.003407978,0.2694,,,,,,188,0,188,0,1,,,,,
,,650061,001,2023-07-24_22h33.20.549,arm3_q,2022.2.5,Win32,59.85873339,64526929d8f9b780b29d4d8d,64aeaab685a29f4ca249be02,64beedd79815511e86a326bd,right,-1,0.3071,0.35,11,-0.019872568,0.334,,,,,,189,0,189,0,1,,,,,
,,650061,001,2023-07-24_22h33.20.549,arm3_q,2022.2.5,Win32,59.85873339,64526929d8f9b780b29d4d8d,64aeaab685a29f4ca249be02,64beedd79815511e86a326bd,right,-1,0.3071,0.35,11,-0.036198467,0.2741,,,,,,190,0,190,0,1,,,,,
,,650061,001,2023-07-24_22h33.20.549,arm3_q,2022.2.5,Win32,59.85873339,64526929d8f9b780b29d4d8d,64aeaab685a29f4ca249be02,64beedd79815511e86a326bd,right,-1,0.3071,0.35,11,-0.057496838,0.4228,,,,,,191,0,191,0,1,,,,,
,,650061,001,2023-07-24_22h33.20.549,arm3_q,2022.2.5,Win32,59.85873339,64526929d8f9b780b29d4d8d,64aeaab685a29f4ca249be02,64beedd79815511e86a326bd,down,-1,0.3071,0.35,11,0,0.3922,,,,,,192,0,192,0,1,,,,,
,,650061,001,2023-07-24_22h33.20.549,arm3_q,2022.2.5,Win32,59.85873339,64526929d8f9b780b29d4d8d,64aeaab685a29f4ca249be02,64beedd79815511e86a326bd,right,-1,0.3071,0.35,11,-0.012041607,0.5779,,,,,,193,0,193,0,1,,,,,
,,650061,001,2023-07-24_22h33.20.549,arm3_q,2022.2.5,Win32,59.85873339,64526929d8f9b780b29d4d8d,64aeaab685a29f4ca249be02,64beedd79815511e86a326bd,right,-1,0.3071,0.35,11,-0.022676333,0.1996,,,,,,194,0,194,0,1,,,,,
,,650061,001,2023-07-24_22h33.20.549,arm3_q,2022.2.5,Win32,59.85873339,64526929d8f9b780b29d4d8d,64aeaab685a29f4ca249be02,64beedd79815511e86a326bd,right,-1,0.3071,0.35,11,-0.035461704,0.2362,,,,,,195,0,195,0,1,,,,,
,,650061,001,2023-07-24_22h33.20.549,arm3_q,2022.2.5,Win32,59.85873339,64526929d8f9b780b29d4d8d,64aeaab685a29f4ca249be02,64beedd79815511e86a326bd,right,-1,0.3071,0.35,11,-0.043532098,0.2889,,,,,,196,0,196,0,1,,,,,
,,650061,001,2023-07-24_22h33.20.549,arm3_q,2022.2.5,Win32,59.85873339,64526929d8f9b780b29d4d8d,64aeaab685a29f4ca249be02,64beedd79815511e86a326bd,right,-1,0.3071,0.35,11,-0.033324541,0.2913,,,,,,197,0,197,0,1,,,,,
,,650061,001,2023-07-24_22h33.20.549,arm3_q,2022.2.5,Win32,59.85873339,64526929d8f9b780b29d4d8d,64aeaab685a29f4ca249be02,64beedd79815511e86a326bd,down,-1,0.3071,0.35,11,0,0.7218,,,,,,198,0,198,0,1,,,,,
,,650061,001,2023-07-24_22h33.20.549,arm3_q,2022.2.5,Win32,59.85873339,64526929d8f9b780b29d4d8d,64aeaab685a29f4ca249be02,64beedd79815511e86a326bd,right,-1,0.3071,0.35,11,-0.038939424,0.7925,,,,,,199,0,199,0,1,,,,,
,,650061,001,2023-07-24_22h33.20.549,arm3_q,2022.2.5,Win32,59.85873339,64526929d8f9b780b29d4d8d,64aeaab685a29f4ca249be02,64beedd79815511e86a326bd,right,-1,0.3071,0.35,11,-0.042293691,0.2349,,,,,,200,0,200,0,1,,,,,
,,650061,001,2023-07-24_22h33.20.549,arm3_q,2022.2.5,Win32,59.85873339,64526929d8f9b780b29d4d8d,64aeaab685a29f4ca249be02,64beedd79815511e86a326bd,right,-1,0.3071,0.35,11,-0.074181101,0.2005,,,,,,201,0,201,0,1,,,,,
,,650061,001,2023-07-24_22h33.20.549,arm3_q,2022.2.5,Win32,59.85873339,64526929d8f9b780b29d4d8d,64aeaab685a29f4ca249be02,64beedd79815511e86a326bd,right,-1,0.3071,0.35,11,-0.101983528,0.2272,,,,,,202,0,202,0,1,,,,,
,,650061,001,2023-07-24_22h33.20.549,arm3_q,2022.2.5,Win32,59.85873339,64526929d8f9b780b29d4d8d,64aeaab685a29f4ca249be02,64beedd79815511e86a326bd,down,-1,0.3071,0.35,11,0,0.377,,,,,,203,0,203,0,1,,,,,
,,650061,001,2023-07-24_22h33.20.549,arm3_q,2022.2.5,Win32,59.85873339,64526929d8f9b780b29d4d8d,64aeaab685a29f4ca249be02,64beedd79815511e86a326bd,right,-1,0.3071,0.35,11,0.008471164,1.224,,,,,,204,0,204,0,1,,,,,
,,650061,001,2023-07-24_22h33.20.549,arm3_q,2022.2.5,Win32,59.85873339,64526929d8f9b780b29d4d8d,64aeaab685a29f4ca249be02,64beedd79815511e86a326bd,right,-1,0.3071,0.35,11,0.025003841,0.3208,,,,,,205,0,205,0,1,,,,,
,,650061,001,2023-07-24_22h33.20.549,arm3_q,2022.2.5,Win32,59.85873339,64526929d8f9b780b29d4d8d,64aeaab685a29f4ca249be02,64beedd79815511e86a326bd,right,-1,0.3071,0.35,11,-0.00807426,0.2815,,,,,,206,0,206,0,1,,,,,
,,650061,001,2023-07-24_22h33.20.549,arm3_q,2022.2.5,Win32,59.85873339,64526929d8f9b780b29d4d8d,64aeaab685a29f4ca249be02,64beedd79815511e86a326bd,right,-1,0.3071,0.35,11,-0.00246852,0.2978,,,,,,207,0,207,0,1,,,,,
,,650061,001,2023-07-24_22h33.20.549,arm3_q,2022.2.5,Win32,59.85873339,64526929d8f9b780b29d4d8d,64aeaab685a29f4ca249be02,64beedd79815511e86a326bd,right,-1,0.3071,0.35,11,0.005825497,0.3167,,,,,,208,0,208,0,1,,,,,
,,650061,001,2023-07-24_22h33.20.549,arm3_q,2022.2.5,Win32,59.85873339,64526929d8f9b780b29d4d8d,64aeaab685a29f4ca249be02,64beedd79815511e86a326bd,right,-1,0.3071,0.35,11,0.024950328,0.4717,,,,,,209,0,209,0,1,,,,,
,,650061,001,2023-07-24_22h33.20.549,arm3_q,2022.2.5,Win32,59.85873339,64526929d8f9b780b29d4d8d,64aeaab685a29f4ca249be02,64beedd79815511e86a326bd,up,1,0.3071,0.35,10,0,0.4076,,,,,,210,0,210,0,1,,,,,
,,650061,001,2023-07-24_22h33.20.549,arm3_q,2022.2.5,Win32,59.85873339,64526929d8f9b780b29d4d8d,64aeaab685a29f4ca249be02,64beedd79815511e86a326bd,right,1,0.3071,0.35,10,0.038789844,1.2325,,,,,,211,0,211,0,1,,,,,
,,650061,001,2023-07-24_22h33.20.549,arm3_q,2022.2.5,Win32,59.85873339,64526929d8f9b780b29d4d8d,64aeaab685a29f4ca249be02,64beedd79815511e86a326bd,right,1,0.3071,0.35,10,0.057918041,0.2604,,,,,,212,0,212,0,1,,,,,
,,650061,001,2023-07-24_22h33.20.549,arm3_q,2022.2.5,Win32,59.85873339,64526929d8f9b780b29d4d8d,64aeaab685a29f4ca249be02,64beedd79815511e86a326bd,right,1,0.3071,0.35,10,0.037774204,0.2847,,,,,,213,0,213,0,1,,,,,
,,650061,001,2023-07-24_22h33.20.549,arm3_q,2022.2.5,Win32,59.85873339,64526929d8f9b780b29d4d8d,64aeaab685a29f4ca249be02,64beedd79815511e86a326bd,right,1,0.3071,0.35,10,0.043681228,0.2564,,,,,,214,0,214,0,1,,,,,
,,650061,001,2023-07-24_22h33.20.549,arm3_q,2022.2.5,Win32,59.85873339,64526929d8f9b780b29d4d8d,64aeaab685a29f4ca249be02,64beedd79815511e86a326bd,right,1,0.3071,0.35,10,0.044311525,0.2539,,,,,,215,0,215,0,1,,,,,
,,650061,001,2023-07-24_22h33.20.549,arm3_q,2022.2.5,Win32,59.85873339,64526929d8f9b780b29d4d8d,64aeaab685a29f4ca249be02,64beedd79815511e86a326bd,up,1,0.3071,0.35,11,0,0.4235,,,,,,216,0,216,0,1,,,,,
,,650061,001,2023-07-24_22h33.20.549,arm3_q,2022.2.5,Win32,59.85873339,64526929d8f9b780b29d4d8d,64aeaab685a29f4ca249be02,64beedd79815511e86a326bd,right,1,0.3071,0.35,11,-0.015699156,0.8436,,,,,,217,0,217,0,1,,,,,
,,650061,001,2023-07-24_22h33.20.549,arm3_q,2022.2.5,Win32,59.85873339,64526929d8f9b780b29d4d8d,64aeaab685a29f4ca249be02,64beedd79815511e86a326bd,right,1,0.3071,0.35,11,-0.00457137,0.2217,,,,,,218,0,218,0,1,,,,,
,,650061,001,2023-07-24_22h33.20.549,arm3_q,2022.2.5,Win32,59.85873339,64526929d8f9b780b29d4d8d,64aeaab685a29f4ca249be02,64beedd79815511e86a326bd,right,1,0.3071,0.35,11,-0.000466828,0.2811,,,,,,219,0,219,0,1,,,,,
,,650061,001,2023-07-24_22h33.20.549,arm3_q,2022.2.5,Win32,59.85873339,64526929d8f9b780b29d4d8d,64aeaab685a29f4ca249be02,64beedd79815511e86a326bd,right,1,0.3071,0.35,11,0.007622571,0.2642,,,,,,220,0,220,0,1,,,,,
,,650061,001,2023-07-24_22h33.20.549,arm3_q,2022.2.5,Win32,59.85873339,64526929d8f9b780b29d4d8d,64aeaab685a29f4ca249be02,64beedd79815511e86a326bd,right,1,0.3071,0.35,11,0.003158481,0.3139,,,,,,221,0,221,0,1,,,,,
,,650061,001,2023-07-24_22h33.20.549,arm3_q,2022.2.5,Win32,59.85873339,64526929d8f9b780b29d4d8d,64aeaab685a29f4ca249be02,64beedd79815511e86a326bd,right,1,0.3071,0.35,11,0.008336467,0.3456,,,,,,222,0,222,0,1,,,,,
,,650061,001,2023-07-24_22h33.20.549,arm3_q,2022.2.5,Win32,59.85873339,64526929d8f9b780b29d4d8d,64aeaab685a29f4ca249be02,64beedd79815511e86a326bd,right,1,0.3071,0.35,11,0.011950488,0.3922,,,,,,223,0,223,0,1,,,,,
,,650061,001,2023-07-24_22h33.20.549,arm3_q,2022.2.5,Win32,59.85873339,64526929d8f9b780b29d4d8d,64aeaab685a29f4ca249be02,64beedd79815511e86a326bd,down,1,0.3071,0.35,10,0,0.39,,,,,,224,0,224,0,1,,,,,
,,650061,001,2023-07-24_22h33.20.549,arm3_q,2022.2.5,Win32,59.85873339,64526929d8f9b780b29d4d8d,64aeaab685a29f4ca249be02,64beedd79815511e86a326bd,right,1,0.3071,0.35,10,0.007258686,0.9622,,,,,,225,0,225,0,1,,,,,
,,650061,001,2023-07-24_22h33.20.549,arm3_q,2022.2.5,Win32,59.85873339,64526929d8f9b780b29d4d8d,64aeaab685a29f4ca249be02,64beedd79815511e86a326bd,right,1,0.3071,0.35,10,0.037626156,0.2327,,,,,,226,0,226,0,1,,,,,
,,650061,001,2023-07-24_22h33.20.549,arm3_q,2022.2.5,Win32,59.85873339,64526929d8f9b780b29d4d8d,64aeaab685a29f4ca249be02,64beedd79815511e86a326bd,right,1,0.3071,0.35,10,0.034816112,0.2311,,,,,,227,0,227,0,1,,,,,
,,650061,001,2023-07-24_22h33.20.549,arm3_q,2022.2.5,Win32,59.85873339,64526929d8f9b780b29d4d8d,64aeaab685a29f4ca249be02,64beedd79815511e86a326bd,right,1,0.3071,0.35,10,0.037645801,0.2139,,,,,,228,0,228,0,1,,,,,
,,650061,001,2023-07-24_22h33.20.549,arm3_q,2022.2.5,Win32,59.85873339,64526929d8f9b780b29d4d8d,64aeaab685a29f4ca249be02,64beedd79815511e86a326bd,right,1,0.3071,0.35,10,0.065229833,0.2345,,,,,,229,0,229,0,1,,,,,
,,650061,001,2023-07-24_22h33.20.549,arm3_q,2022.2.5,Win32,59.85873339,64526929d8f9b780b29d4d8d,64aeaab685a29f4ca249be02,64beedd79815511e86a326bd,up,1,0.3071,0.35,11,0,0.3731,,,,,,230,0,230,0,1,,,,,
,,650061,001,2023-07-24_22h33.20.549,arm3_q,2022.2.5,Win32,59.85873339,64526929d8f9b780b29d4d8d,64aeaab685a29f4ca249be02,64beedd79815511e86a326bd,right,1,0.3071,0.35,11,0.026489127,0.7773,,,,,,231,0,231,0,1,,,,,
,,650061,001,2023-07-24_22h33.20.549,arm3_q,2022.2.5,Win32,59.85873339,64526929d8f9b780b29d4d8d,64aeaab685a29f4ca249be02,64beedd79815511e86a326bd,right,1,0.3071,0.35,11,0.040475228,0.2208,,,,,,232,0,232,0,1,,,,,
,,650061,001,2023-07-24_22h33.20.549,arm3_q,2022.2.5,Win32,59.85873339,64526929d8f9b780b29d4d8d,64aeaab685a29f4ca249be02,64beedd79815511e86a326bd,right,1,0.3071,0.35,11,0.043481153,0.2105,,,,,,233,0,233,0,1,,,,,
,,650061,001,2023-07-24_22h33.20.549,arm3_q,2022.2.5,Win32,59.85873339,64526929d8f9b780b29d4d8d,64aeaab685a29f4ca249be02,64beedd79815511e86a326bd,right,1,0.3071,0.35,11,0.060499129,0.1974,,,,,,234,0,234,0,1,,,,,
,,650061,001,2023-07-24_22h33.20.549,arm3_q,2022.2.5,Win32,59.85873339,64526929d8f9b780b29d4d8d,64aeaab685a29f4ca249be02,64beedd79815511e86a326bd,up,-1,0.3071,0.35,12,0,0.4203,,,,,,235,0,235,0,1,,,,,
,,650061,001,2023-07-24_22h33.20.549,arm3_q,2022.2.5,Win32,59.85873339,64526929d8f9b780b29d4d8d,64aeaab685a29f4ca249be02,64beedd79815511e86a326bd,right,-1,0.3071,0.35,12,-0.004937054,0.8491,,,,,,236,0,236,0,1,,,,,
,,650061,001,2023-07-24_22h33.20.549,arm3_q,2022.2.5,Win32,59.85873339,64526929d8f9b780b29d4d8d,64aeaab685a29f4ca249be02,64beedd79815511e86a326bd,right,-1,0.3071,0.35,12,-0.001398307,0.1932,,,,,,237,0,237,0,1,,,,,
,,650061,001,2023-07-24_22h33.20.549,arm3_q,2022.2.5,Win32,59.85873339,64526929d8f9b780b29d4d8d,64aeaab685a29f4ca249be02,64beedd79815511e86a326bd,right,-1,0.3071,0.35,12,-0.023070821,0.252,,,,,,238,0,238,0,1,,,,,
,,650061,001,2023-07-24_22h33.20.549,arm3_q,2022.2.5,Win32,59.85873339,64526929d8f9b780b29d4d8d,64aeaab685a29f4ca249be02,64beedd79815511e86a326bd,right,-1,0.3071,0.35,12,-0.007915913,0.2119,,,,,,239,0,239,0,1,,,,,
,,650061,001,2023-07-24_22h33.20.549,arm3_q,2022.2.5,Win32,59.85873339,64526929d8f9b780b29d4d8d,64aeaab685a29f4ca249be02,64beedd79815511e86a326bd,down,1,0.3071,0.35,12,0,0.3786,,,,,,240,0,240,0,1,,,,,
,,650061,001,2023-07-24_22h33.20.549,arm3_q,2022.2.5,Win32,59.85873339,64526929d8f9b780b29d4d8d,64aeaab685a29f4ca249be02,64beedd79815511e86a326bd,right,1,0.3071,0.35,12,0.032527912,0.9394,,,,,,241,0,241,0,1,,,,,
,,650061,001,2023-07-24_22h33.20.549,arm3_q,2022.2.5,Win32,59.85873339,64526929d8f9b780b29d4d8d,64aeaab685a29f4ca249be02,64beedd79815511e86a326bd,right,1,0.3071,0.35,12,0.028067021,0.2286,,,,,,242,0,242,0,1,,,,,
,,650061,001,2023-07-24_22h33.20.549,arm3_q,2022.2.5,Win32,59.85873339,64526929d8f9b780b29d4d8d,64aeaab685a29f4ca249be02,64beedd79815511e86a326bd,right,1,0.3071,0.35,12,0.041461512,0.2778,,,,,,243,0,243,0,1,,,,,
,,650061,001,2023-07-24_22h33.20.549,arm3_q,2022.2.5,Win32,59.85873339,64526929d8f9b780b29d4d8d,64aeaab685a29f4ca249be02,64beedd79815511e86a326bd,up,-1,0.3071,0.35,12,0,0.4378,,,,,,244,0,244,0,1,,,,,
,,650061,001,2023-07-24_22h33.20.549,arm3_q,2022.2.5,Win32,59.85873339,64526929d8f9b780b29d4d8d,64aeaab685a29f4ca249be02,64beedd79815511e86a326bd,right,-1,0.3071,0.35,12,-0.001764697,0.7866,,,,,,245,0,245,0,1,,,,,
,,650061,001,2023-07-24_22h33.20.549,arm3_q,2022.2.5,Win32,59.85873339,64526929d8f9b780b29d4d8d,64aeaab685a29f4ca249be02,64beedd79815511e86a326bd,right,-1,0.3071,0.35,12,-0.010950363,0.2092,,,,,,246,0,246,0,1,,,,,
,,650061,001,2023-07-24_22h33.20.549,arm3_q,2022.2.5,Win32,59.85873339,64526929d8f9b780b29d4d8d,64aeaab685a29f4ca249be02,64beedd79815511e86a326bd,right,-1,0.3071,0.35,12,0.003062583,0.2651,,,,,,247,0,247,0,1,,,,,
,,650061,001,2023-07-24_22h33.20.549,arm3_q,2022.2.5,Win32,59.85873339,64526929d8f9b780b29d4d8d,64aeaab685a29f4ca249be02,64beedd79815511e86a326bd,right,-1,0.3071,0.35,12,0.026738458,0.3708,,,,,,248,0,248,0,1,,,,,
,,650061,001,2023-07-24_22h33.20.549,arm3_q,2022.2.5,Win32,59.85873339,64526929d8f9b780b29d4d8d,64aeaab685a29f4ca249be02,64beedd79815511e86a326bd,up,-1,0.3071,0.35,12,0,0.4218,,,,,,249,0,249,0,1,,,,,
,,650061,001,2023-07-24_22h33.20.549,arm3_q,2022.2.5,Win32,59.85873339,64526929d8f9b780b29d4d8d,64aeaab685a29f4ca249be02,64beedd79815511e86a326bd,right,-1,0.3071,0.35,12,-0.018065183,0.7526,,,,,,250,0,250,0,1,,,,,
,,650061,001,2023-07-24_22h33.20.549,arm3_q,2022.2.5,Win32,59.85873339,64526929d8f9b780b29d4d8d,64aeaab685a29f4ca249be02,64beedd79815511e86a326bd,right,-1,0.3071,0.35,12,-0.011739342,0.2454,,,,,,251,0,251,0,1,,,,,
,,650061,001,2023-07-24_22h33.20.549,arm3_q,2022.2.5,Win32,59.85873339,64526929d8f9b780b29d4d8d,64aeaab685a29f4ca249be02,64beedd79815511e86a326bd,right,-1,0.3071,0.35,12,-0.029689002,0.2671,,,,,,252,0,252,0,1,,,,,
,,650061,001,2023-07-24_22h33.20.549,arm3_q,2022.2.5,Win32,59.85873339,64526929d8f9b780b29d4d8d,64aeaab685a29f4ca249be02,64beedd79815511e86a326bd,right,-1,0.3071,0.35,12,-0.010389374,0.3421,,,,,,253,0,253,0,1,,,,,
,,650061,001,2023-07-24_22h33.20.549,arm3_q,2022.2.5,Win32,59.85873339,64526929d8f9b780b29d4d8d,64aeaab685a29f4ca249be02,64beedd79815511e86a326bd,right,-1,0.3071,0.35,12,0.00401999,0.3874,,,,,,254,0,254,0,1,,,,,
,,650061,001,2023-07-24_22h33.20.549,arm3_q,2022.2.5,Win32,59.85873339,64526929d8f9b780b29d4d8d,64aeaab685a29f4ca249be02,64beedd79815511e86a326bd,right,-1,0.3071,0.35,12,-0.030656472,0.3618,,,,,,255,0,255,0,1,,,,,
,,650061,001,2023-07-24_22h33.20.549,arm3_q,2022.2.5,Win32,59.85873339,64526929d8f9b780b29d4d8d,64aeaab685a29f4ca249be02,64beedd79815511e86a326bd,down,-1,0.3071,0.35,12,0,0.4212,,,,,,256,0,256,0,1,,,,,
,,650061,001,2023-07-24_22h33.20.549,arm3_q,2022.2.5,Win32,59.85873339,64526929d8f9b780b29d4d8d,64aeaab685a29f4ca249be02,64beedd79815511e86a326bd,right,-1,0.3071,0.35,12,-0.011823087,0.7739,,,,,,257,0,257,0,1,,,,,
,,650061,001,2023-07-24_22h33.20.549,arm3_q,2022.2.5,Win32,59.85873339,64526929d8f9b780b29d4d8d,64aeaab685a29f4ca249be02,64beedd79815511e86a326bd,right,-1,0.3071,0.35,12,-0.021655993,0.251,,,,,,258,0,258,0,1,,,,,
,,650061,001,2023-07-24_22h33.20.549,arm3_q,2022.2.5,Win32,59.85873339,64526929d8f9b780b29d4d8d,64aeaab685a29f4ca249be02,64beedd79815511e86a326bd,right,-1,0.3071,0.35,12,-0.04404457,0.2349,,,,,,259,0,259,0,1,,,,,
,,650061,001,2023-07-24_22h33.20.549,arm3_q,2022.2.5,Win32,59.85873339,64526929d8f9b780b29d4d8d,64aeaab685a29f4ca249be02,64beedd79815511e86a326bd,right,-1,0.3071,0.35,12,-0.053225093,0.2328,,,,,,260,0,260,0,1,,,,,
,,650061,001,2023-07-24_22h33.20.549,arm3_q,2022.2.5,Win32,59.85873339,64526929d8f9b780b29d4d8d,64aeaab685a29f4ca249be02,64beedd79815511e86a326bd,down,1,0.3071,0.35,12,0,0.2451,,,,,,261,0,261,0,1,,,,,
,,650061,001,2023-07-24_22h33.20.549,arm3_q,2022.2.5,Win32,59.85873339,64526929d8f9b780b29d4d8d,64aeaab685a29f4ca249be02,64beedd79815511e86a326bd,right,1,0.3071,0.35,12,0.026656171,0.7668,,,,,,262,0,262,0,1,,,,,
,,650061,001,2023-07-24_22h33.20.549,arm3_q,2022.2.5,Win32,59.85873339,64526929d8f9b780b29d4d8d,64aeaab685a29f4ca249be02,64beedd79815511e86a326bd,right,1,0.3071,0.35,12,0.058760595,0.218,,,,,,263,0,263,0,1,,,,,
,,650061,001,2023-07-24_22h33.20.549,arm3_q,2022.2.5,Win32,59.85873339,64526929d8f9b780b29d4d8d,64aeaab685a29f4ca249be02,64beedd79815511e86a326bd,right,1,0.3071,0.35,12,0.044120924,0.2683,,,,,,264,0,264,0,1,,,,,
,,650061,001,2023-07-24_22h33.20.549,arm3_q,2022.2.5,Win32,59.85873339,64526929d8f9b780b29d4d8d,64aeaab685a29f4ca249be02,64beedd79815511e86a326bd,up,-1,0.3071,0.35,12,0,0.2368,,,,,,265,0,265,0,1,,,,,
,,650061,001,2023-07-24_22h33.20.549,arm3_q,2022.2.5,Win32,59.85873339,64526929d8f9b780b29d4d8d,64aeaab685a29f4ca249be02,64beedd79815511e86a326bd,right,-1,0.3071,0.35,12,-0.041735871,0.7754,,,,,,266,0,266,0,1,,,,,
,,650061,001,2023-07-24_22h33.20.549,arm3_q,2022.2.5,Win32,59.85873339,64526929d8f9b780b29d4d8d,64aeaab685a29f4ca249be02,64beedd79815511e86a326bd,right,-1,0.3071,0.35,12,-0.067758154,0.2538,,,,,,267,0,267,0,1,,,,,
,,650061,001,2023-07-24_22h33.20.549,arm3_q,2022.2.5,Win32,59.85873339,64526929d8f9b780b29d4d8d,64aeaab685a29f4ca249be02,64beedd79815511e86a326bd,right,-1,0.3071,0.35,12,-0.088121228,0.2489,,,,,,268,0,268,0,1,,,,,
,,650061,001,2023-07-24_22h33.20.549,arm3_q,2022.2.5,Win32,59.85873339,64526929d8f9b780b29d4d8d,64aeaab685a29f4ca249be02,64beedd79815511e86a326bd,down,-1,0.3071,0.35,13,0,0.2543,,,,,,269,0,269,0,1,,,,,
,,650061,001,2023-07-24_22h33.20.549,arm3_q,2022.2.5,Win32,59.85873339,64526929d8f9b780b29d4d8d,64aeaab685a29f4ca249be02,64beedd79815511e86a326bd,right,-1,0.3071,0.35,13,-0.037803456,1.3887,,,,,,270,0,270,0,1,,,,,
,,650061,001,2023-07-24_22h33.20.549,arm3_q,2022.2.5,Win32,59.85873339,64526929d8f9b780b29d4d8d,64aeaab685a29f4ca249be02,64beedd79815511e86a326bd,right,-1,0.3071,0.35,13,-0.05526722,0.2258,,,,,,271,0,271,0,1,,,,,
,,650061,001,2023-07-24_22h33.20.549,arm3_q,2022.2.5,Win32,59.85873339,64526929d8f9b780b29d4d8d,64aeaab685a29f4ca249be02,64beedd79815511e86a326bd,right,-1,0.3071,0.35,13,-0.080272329,0.2631,,,,,,272,0,272,0,1,,,,,
,,650061,001,2023-07-24_22h33.20.549,arm3_q,2022.2.5,Win32,59.85873339,64526929d8f9b780b29d4d8d,64aeaab685a29f4ca249be02,64beedd79815511e86a326bd,down,-1,0.3071,0.35,13,0,0.4261,,,,,,273,0,273,0,1,,,,,
,,650061,001,2023-07-24_22h33.20.549,arm3_q,2022.2.5,Win32,59.85873339,64526929d8f9b780b29d4d8d,64aeaab685a29f4ca249be02,64beedd79815511e86a326bd,right,-1,0.3071,0.35,13,-0.025639858,0.939,,,,,,274,0,274,0,1,,,,,
,,650061,001,2023-07-24_22h33.20.549,arm3_q,2022.2.5,Win32,59.85873339,64526929d8f9b780b29d4d8d,64aeaab685a29f4ca249be02,64beedd79815511e86a326bd,right,-1,0.3071,0.35,13,-0.028233322,0.2361,,,,,,275,0,275,0,1,,,,,
,,650061,001,2023-07-24_22h33.20.549,arm3_q,2022.2.5,Win32,59.85873339,64526929d8f9b780b29d4d8d,64aeaab685a29f4ca249be02,64beedd79815511e86a326bd,right,-1,0.3071,0.35,13,-0.016430602,0.225,,,,,,276,0,276,0,1,,,,,
,,650061,001,2023-07-24_22h33.20.549,arm3_q,2022.2.5,Win32,59.85873339,64526929d8f9b780b29d4d8d,64aeaab685a29f4ca249be02,64beedd79815511e86a326bd,right,-1,0.3071,0.35,13,0.007263438,0.67,,,,,,277,0,277,0,1,,,,,
,,650061,001,2023-07-24_22h33.20.549,arm3_q,2022.2.5,Win32,59.85873339,64526929d8f9b780b29d4d8d,64aeaab685a29f4ca249be02,64beedd79815511e86a326bd,right,-1,0.3071,0.35,13,-0.013502238,0.4518,,,,,,278,0,278,0,1,,,,,
,,650061,001,2023-07-24_22h33.20.549,arm3_q,2022.2.5,Win32,59.85873339,64526929d8f9b780b29d4d8d,64aeaab685a29f4ca249be02,64beedd79815511e86a326bd,right,-1,0.3071,0.35,13,-0.047177018,0.3211,,,,,,279,0,279,0,1,,,,,
,,650061,001,2023-07-24_22h33.20.549,arm3_q,2022.2.5,Win32,59.85873339,64526929d8f9b780b29d4d8d,64aeaab685a29f4ca249be02,64beedd79815511e86a326bd,down,1,0.3071,0.35,13,0,0.4119,,,,,,280,0,280,0,1,,,,,
,,650061,001,2023-07-24_22h33.20.549,arm3_q,2022.2.5,Win32,59.85873339,64526929d8f9b780b29d4d8d,64aeaab685a29f4ca249be02,64beedd79815511e86a326bd,right,1,0.3071,0.35,13,-0.010317555,0.9488,,,,,,281,0,281,0,1,,,,,
,,650061,001,2023-07-24_22h33.20.549,arm3_q,2022.2.5,Win32,59.85873339,64526929d8f9b780b29d4d8d,64aeaab685a29f4ca249be02,64beedd79815511e86a326bd,right,1,0.3071,0.35,13,0.005449439,0.2197,,,,,,282,0,282,0,1,,,,,
,,650061,001,2023-07-24_22h33.20.549,arm3_q,2022.2.5,Win32,59.85873339,64526929d8f9b780b29d4d8d,64aeaab685a29f4ca249be02,64beedd79815511e86a326bd,right,1,0.3071,0.35,13,0.01406131,0.2166,,,,,,283,0,283,0,1,,,,,
,,650061,001,2023-07-24_22h33.20.549,arm3_q,2022.2.5,Win32,59.85873339,64526929d8f9b780b29d4d8d,64aeaab685a29f4ca249be02,64beedd79815511e86a326bd,right,1,0.3071,0.35,13,-0.007170785,0.221,,,,,,284,0,284,0,1,,,,,
,,650061,001,2023-07-24_22h33.20.549,arm3_q,2022.2.5,Win32,59.85873339,64526929d8f9b780b29d4d8d,64aeaab685a29f4ca249be02,64beedd79815511e86a326bd,right,1,0.3071,0.35,13,-0.001341884,0.2621,,,,,,285,0,285,0,1,,,,,
,,650061,001,2023-07-24_22h33.20.549,arm3_q,2022.2.5,Win32,59.85873339,64526929d8f9b780b29d4d8d,64aeaab685a29f4ca249be02,64beedd79815511e86a326bd,right,1,0.3071,0.35,13,0.018155717,0.4901,,,,,,286,0,286,0,1,,,,,
,,650061,001,2023-07-24_22h33.20.549,arm3_q,2022.2.5,Win32,59.85873339,64526929d8f9b780b29d4d8d,64aeaab685a29f4ca249be02,64beedd79815511e86a326bd,up,-1,0.3071,0.35,13,0,0.385,,,,,,287,0,287,0,1,,,,,
,,650061,001,2023-07-24_22h33.20.549,arm3_q,2022.2.5,Win32,59.85873339,64526929d8f9b780b29d4d8d,64aeaab685a29f4ca249be02,64beedd79815511e86a326bd,right,-1,0.3071,0.35,13,0.012219244,0.7537,,,,,,288,0,288,0,1,,,,,
,,650061,001,2023-07-24_22h33.20.549,arm3_q,2022.2.5,Win32,59.85873339,64526929d8f9b780b29d4d8d,64aeaab685a29f4ca249be02,64beedd79815511e86a326bd,right,-1,0.3071,0.35,13,-0.012149119,0.2163,,,,,,289,0,289,0,1,,,,,
,,650061,001,2023-07-24_22h33.20.549,arm3_q,2022.2.5,Win32,59.85873339,64526929d8f9b780b29d4d8d,64aeaab685a29f4ca249be02,64beedd79815511e86a326bd,right,-1,0.3071,0.35,13,-0.016462021,0.2157,,,,,,290,0,290,0,1,,,,,
,,650061,001,2023-07-24_22h33.20.549,arm3_q,2022.2.5,Win32,59.85873339,64526929d8f9b780b29d4d8d,64aeaab685a29f4ca249be02,64beedd79815511e86a326bd,right,-1,0.3071,0.35,13,-0.012248656,0.2444,,,,,,291,0,291,0,1,,,,,
,,650061,001,2023-07-24_22h33.20.549,arm3_q,2022.2.5,Win32,59.85873339,64526929d8f9b780b29d4d8d,64aeaab685a29f4ca249be02,64beedd79815511e86a326bd,right,-1,0.3071,0.35,13,-0.026141006,0.2967,,,,,,292,0,292,0,1,,,,,
,,650061,001,2023-07-24_22h33.20.549,arm3_q,2022.2.5,Win32,59.85873339,64526929d8f9b780b29d4d8d,64aeaab685a29f4ca249be02,64beedd79815511e86a326bd,right,-1,0.3071,0.35,13,-0.014053062,0.3234,,,,,,293,0,293,0,1,,,,,
,,650061,001,2023-07-24_22h33.20.549,arm3_q,2022.2.5,Win32,59.85873339,64526929d8f9b780b29d4d8d,64aeaab685a29f4ca249be02,64beedd79815511e86a326bd,right,-1,0.3071,0.35,13,-0.034484804,0.3123,,,,,,294,0,294,0,1,,,,,
,,650061,001,2023-07-24_22h33.20.549,arm3_q,2022.2.5,Win32,59.85873339,64526929d8f9b780b29d4d8d,64aeaab685a29f4ca249be02,64beedd79815511e86a326bd,down,1,0.3071,0.35,13,0,0.4326,,,,,,295,0,295,0,1,,,,,
,,650061,001,2023-07-24_22h33.20.549,arm3_q,2022.2.5,Win32,59.85873339,64526929d8f9b780b29d4d8d,64aeaab685a29f4ca249be02,64beedd79815511e86a326bd,right,1,0.3071,0.35,13,0.038476439,0.8426,,,,,,296,0,296,0,1,,,,,
,,650061,001,2023-07-24_22h33.20.549,arm3_q,2022.2.5,Win32,59.85873339,64526929d8f9b780b29d4d8d,64aeaab685a29f4ca249be02,64beedd79815511e86a326bd,right,1,0.3071,0.35,13,0.067623645,0.2031,,,,,,297,0,297,0,1,,,,,
,,650061,001,2023-07-24_22h33.20.549,arm3_q,2022.2.5,Win32,59.85873339,64526929d8f9b780b29d4d8d,64aeaab685a29f4ca249be02,64beedd79815511e86a326bd,right,1,0.3071,0.35,13,0.086464806,0.2969,,,,,,298,0,298,0,1,,,,,
,,650061,001,2023-07-24_22h33.20.549,arm3_q,2022.2.5,Win32,59.85873339,64526929d8f9b780b29d4d8d,64aeaab685a29f4ca249be02,64beedd79815511e86a326bd,up,-1,0.3071,0.35,14,0,0.3383,,,,,,299,0,299,0,1,,,,,
,,650061,001,2023-07-24_22h33.20.549,arm3_q,2022.2.5,Win32,59.85873339,64526929d8f9b780b29d4d8d,64aeaab685a29f4ca249be02,64beedd79815511e86a326bd,right,-1,0.3071,0.35,14,-0.01258282,0.7449,,,,,,300,0,300,0,1,,,,,
,,650061,001,2023-07-24_22h33.20.549,arm3_q,2022.2.5,Win32,59.85873339,64526929d8f9b780b29d4d8d,64aeaab685a29f4ca249be02,64beedd79815511e86a326bd,right,-1,0.3071,0.35,14,-0.019614507,0.2,,,,,,301,0,301,0,1,,,,,
,,650061,001,2023-07-24_22h33.20.549,arm3_q,2022.2.5,Win32,59.85873339,64526929d8f9b780b29d4d8d,64aeaab685a29f4ca249be02,64beedd79815511e86a326bd,right,-1,0.3071,0.35,14,-0.029565314,0.2156,,,,,,302,0,302,0,1,,,,,
,,650061,001,2023-07-24_22h33.20.549,arm3_q,2022.2.5,Win32,59.85873339,64526929d8f9b780b29d4d8d,64aeaab685a29f4ca249be02,64beedd79815511e86a326bd,down,-1,0.3071,0.35,15,0,0.3738,,,,,,303,0,303,0,1,,,,,
,,650061,001,2023-07-24_22h33.20.549,arm3_q,2022.2.5,Win32,59.85873339,64526929d8f9b780b29d4d8d,64aeaab685a29f4ca249be02,64beedd79815511e86a326bd,right,-1,0.3071,0.35,15,0.011082827,0.8025,,,,,,304,0,304,0,1,,,,,
,,650061,001,2023-07-24_22h33.20.549,arm3_q,2022.2.5,Win32,59.85873339,64526929d8f9b780b29d4d8d,64aeaab685a29f4ca249be02,64beedd79815511e86a326bd,right,-1,0.3071,0.35,15,-0.006032967,0.2223,,,,,,305,0,305,0,1,,,,,
,,650061,001,2023-07-24_22h33.20.549,arm3_q,2022.2.5,Win32,59.85873339,64526929d8f9b780b29d4d8d,64aeaab685a29f4ca249be02,64beedd79815511e86a326bd,right,-1,0.3071,0.35,15,0.016730955,0.2119,,,,,,306,0,306,0,1,,,,,
,,650061,001,2023-07-24_22h33.20.549,arm3_q,2022.2.5,Win32,59.85873339,64526929d8f9b780b29d4d8d,64aeaab685a29f4ca249be02,64beedd79815511e86a326bd,right,-1,0.3071,0.35,15,0.018475064,0.314,,,,,,307,0,307,0,1,,,,,
,,650061,001,2023-07-24_22h33.20.549,arm3_q,2022.2.5,Win32,59.85873339,64526929d8f9b780b29d4d8d,64aeaab685a29f4ca249be02,64beedd79815511e86a326bd,up,1,0.3071,0.35,15,0,0.3641,,,,,,308,0,308,0,1,,,,,
,,650061,001,2023-07-24_22h33.20.549,arm3_q,2022.2.5,Win32,59.85873339,64526929d8f9b780b29d4d8d,64aeaab685a29f4ca249be02,64beedd79815511e86a326bd,right,1,0.3071,0.35,15,0.026097658,0.8225,,,,,,309,0,309,0,1,,,,,
,,650061,001,2023-07-24_22h33.20.549,arm3_q,2022.2.5,Win32,59.85873339,64526929d8f9b780b29d4d8d,64aeaab685a29f4ca249be02,64beedd79815511e86a326bd,right,1,0.3071,0.35,15,0.033288938,0.2497,,,,,,310,0,310,0,1,,,,,
,,650061,001,2023-07-24_22h33.20.549,arm3_q,2022.2.5,Win32,59.85873339,64526929d8f9b780b29d4d8d,64aeaab685a29f4ca249be02,64beedd79815511e86a326bd,right,1,0.3071,0.35,15,0.025921891,0.2473,,,,,,311,0,311,0,1,,,,,
,,650061,001,2023-07-24_22h33.20.549,arm3_q,2022.2.5,Win32,59.85873339,64526929d8f9b780b29d4d8d,64aeaab685a29f4ca249be02,64beedd79815511e86a326bd,right,1,0.3071,0.35,15,0.016117765,0.3532,,,,,,312,0,312,0,1,,,,,
,,650061,001,2023-07-24_22h33.20.549,arm3_q,2022.2.5,Win32,59.85873339,64526929d8f9b780b29d4d8d,64aeaab685a29f4ca249be02,64beedd79815511e86a326bd,right,1,0.3071,0.35,15,0.042397812,0.4583,,,,,,313,0,313,0,1,,,,,
,,650061,001,2023-07-24_22h33.20.549,arm3_q,2022.2.5,Win32,59.85873339,64526929d8f9b780b29d4d8d,64aeaab685a29f4ca249be02,64beedd79815511e86a326bd,up,1,0.3071,0.35,16,0,0.3509,,,,,,314,0,314,0,1,,,,,
,,650061,001,2023-07-24_22h33.20.549,arm3_q,2022.2.5,Win32,59.85873339,64526929d8f9b780b29d4d8d,64aeaab685a29f4ca249be02,64beedd79815511e86a326bd,right,1,0.3071,0.35,16,0.000330822,0.8471,,,,,,315,0,315,0,1,,,,,
,,650061,001,2023-07-24_22h33.20.549,arm3_q,2022.2.5,Win32,59.85873339,64526929d8f9b780b29d4d8d,64aeaab685a29f4ca249be02,64beedd79815511e86a326bd,right,1,0.3071,0.35,16,-0.00520191,0.2568,,,,,,316,0,316,0,1,,,,,
,,650061,001,2023-07-24_22h33.20.549,arm3_q,2022.2.5,Win32,59.85873339,64526929d8f9b780b29d4d8d,64aeaab685a29f4ca249be02,64beedd79815511e86a326bd,right,1,0.3071,0.35,16,-0.013648252,0.2629,,,,,,317,0,317,0,1,,,,,
,,650061,001,2023-07-24_22h33.20.549,arm3_q,2022.2.5,Win32,59.85873339,64526929d8f9b780b29d4d8d,64aeaab685a29f4ca249be02,64beedd79815511e86a326bd,right,1,0.3071,0.35,16,0.014351788,0.2743,,,,,,318,0,318,0,1,,,,,
,,650061,001,2023-07-24_22h33.20.549,arm3_q,2022.2.5,Win32,59.85873339,64526929d8f9b780b29d4d8d,64aeaab685a29f4ca249be02,64beedd79815511e86a326bd,right,1,0.3071,0.35,16,0.036230215,0.3516,,,,,,319,0,319,0,1,,,,,
,,650061,001,2023-07-24_22h33.20.549,arm3_q,2022.2.5,Win32,59.85873339,64526929d8f9b780b29d4d8d,64aeaab685a29f4ca249be02,64beedd79815511e86a326bd,up,-1,0.3071,0.35,17,0,0.6465,,,,,,320,0,320,0,1,,,,,
,,650061,001,2023-07-24_22h33.20.549,arm3_q,2022.2.5,Win32,59.85873339,64526929d8f9b780b29d4d8d,64aeaab685a29f4ca249be02,64beedd79815511e86a326bd,right,-1,0.3071,0.35,17,-0.028465922,0.9715,,,,,,321,0,321,0,1,,,,,
,,650061,001,2023-07-24_22h33.20.549,arm3_q,2022.2.5,Win32,59.85873339,64526929d8f9b780b29d4d8d,64aeaab685a29f4ca249be02,64beedd79815511e86a326bd,right,-1,0.3071,0.35,17,-0.038445086,0.258,,,,,,322,0,322,0,1,,,,,
,,650061,001,2023-07-24_22h33.20.549,arm3_q,2022.2.5,Win32,59.85873339,64526929d8f9b780b29d4d8d,64aeaab685a29f4ca249be02,64beedd79815511e86a326bd,right,-1,0.3071,0.35,17,-0.040245741,0.2197,,,,,,323,0,323,0,1,,,,,
,,650061,001,2023-07-24_22h33.20.549,arm3_q,2022.2.5,Win32,59.85873339,64526929d8f9b780b29d4d8d,64aeaab685a29f4ca249be02,64beedd79815511e86a326bd,right,-1,0.3071,0.35,17,-0.048850332,0.2058,,,,,,324,0,324,0,1,,,,,
,,650061,001,2023-07-24_22h33.20.549,arm3_q,2022.2.5,Win32,59.85873339,64526929d8f9b780b29d4d8d,64aeaab685a29f4ca249be02,64beedd79815511e86a326bd,right,-1,0.3071,0.35,17,-0.050114778,0.2291,,,,,,325,0,325,0,1,,,,,
,,650061,001,2023-07-24_22h33.20.549,arm3_q,2022.2.5,Win32,59.85873339,64526929d8f9b780b29d4d8d,64aeaab685a29f4ca249be02,64beedd79815511e86a326bd,down,-1,0.3071,0.35,17,0,0.3494,,,,,,326,0,326,0,1,,,,,
,,650061,001,2023-07-24_22h33.20.549,arm3_q,2022.2.5,Win32,59.85873339,64526929d8f9b780b29d4d8d,64aeaab685a29f4ca249be02,64beedd79815511e86a326bd,right,-1,0.3071,0.35,17,-0.028189266,0.738,,,,,,327,0,327,0,1,,,,,
,,650061,001,2023-07-24_22h33.20.549,arm3_q,2022.2.5,Win32,59.85873339,64526929d8f9b780b29d4d8d,64aeaab685a29f4ca249be02,64beedd79815511e86a326bd,right,-1,0.3071,0.35,17,0.001518341,0.24,,,,,,328,0,328,0,1,,,,,
,,650061,001,2023-07-24_22h33.20.549,arm3_q,2022.2.5,Win32,59.85873339,64526929d8f9b780b29d4d8d,64aeaab685a29f4ca249be02,64beedd79815511e86a326bd,right,-1,0.3071,0.35,17,-0.006806179,0.2379,,,,,,329,0,329,0,1,,,,,
,,650061,001,2023-07-24_22h33.20.549,arm3_q,2022.2.5,Win32,59.85873339,64526929d8f9b780b29d4d8d,64aeaab685a29f4ca249be02,64beedd79815511e86a326bd,right,-1,0.3071,0.35,17,-0.040368337,0.239,,,,,,330,0,330,0,1,,,,,
,,650061,001,2023-07-24_22h33.20.549,arm3_q,2022.2.5,Win32,59.85873339,64526929d8f9b780b29d4d8d,64aeaab685a29f4ca249be02,64beedd79815511e86a326bd,right,-1,0.3071,0.35,17,-0.061572209,0.2494,,,,,,331,0,331,0,1,,,,,
,,650061,001,2023-07-24_22h33.20.549,arm3_q,2022.2.5,Win32,59.85873339,64526929d8f9b780b29d4d8d,64aeaab685a29f4ca249be02,64beedd79815511e86a326bd,down,1,0.3071,0.35,17,0,0.3344,,,,,,332,0,332,0,1,,,,,
,,650061,001,2023-07-24_22h33.20.549,arm3_q,2022.2.5,Win32,59.85873339,64526929d8f9b780b29d4d8d,64aeaab685a29f4ca249be02,64beedd79815511e86a326bd,right,1,0.3071,0.35,17,0.010975573,0.607,,,,,,333,0,333,0,1,,,,,
,,650061,001,2023-07-24_22h33.20.549,arm3_q,2022.2.5,Win32,59.85873339,64526929d8f9b780b29d4d8d,64aeaab685a29f4ca249be02,64beedd79815511e86a326bd,right,1,0.3071,0.35,17,0.006137045,0.1878,,,,,,334,0,334,0,1,,,,,
,,650061,001,2023-07-24_22h33.20.549,arm3_q,2022.2.5,Win32,59.85873339,64526929d8f9b780b29d4d8d,64aeaab685a29f4ca249be02,64beedd79815511e86a326bd,right,1,0.3071,0.35,17,0.016544876,0.2501,,,,,,335,0,335,0,1,,,,,
,,650061,001,2023-07-24_22h33.20.549,arm3_q,2022.2.5,Win32,59.85873339,64526929d8f9b780b29d4d8d,64aeaab685a29f4ca249be02,64beedd79815511e86a326bd,right,1,0.3071,0.35,17,0.028152392,0.2018,,,,,,336,0,336,0,1,,,,,
,,650061,001,2023-07-24_22h33.20.549,arm3_q,2022.2.5,Win32,59.85873339,64526929d8f9b780b29d4d8d,64aeaab685a29f4ca249be02,64beedd79815511e86a326bd,up,1,0.3071,0.35,17,0,0.3543,,,,,,337,0,337,0,1,,,,,
,,650061,001,2023-07-24_22h33.20.549,arm3_q,2022.2.5,Win32,59.85873339,64526929d8f9b780b29d4d8d,64aeaab685a29f4ca249be02,64beedd79815511e86a326bd,right,1,0.3071,0.35,17,-0.026174224,0.7159,,,,,,338,0,338,0,1,,,,,
,,650061,001,2023-07-24_22h33.20.549,arm3_q,2022.2.5,Win32,59.85873339,64526929d8f9b780b29d4d8d,64aeaab685a29f4ca249be02,64beedd79815511e86a326bd,right,1,0.3071,0.35,17,-0.049972248,0.1816,,,,,,339,0,339,0,1,,,,,
,,650061,001,2023-07-24_22h33.20.549,arm3_q,2022.2.5,Win32,59.85873339,64526929d8f9b780b29d4d8d,64aeaab685a29f4ca249be02,64beedd79815511e86a326bd,right,1,0.3071,0.35,17,0.002818425,0.1896,,,,,,340,0,340,0,1,,,,,
,,650061,001,2023-07-24_22h33.20.549,arm3_q,2022.2.5,Win32,59.85873339,64526929d8f9b780b29d4d8d,64aeaab685a29f4ca249be02,64beedd79815511e86a326bd,right,1,0.3071,0.35,17,0.021919606,0.3093,,,,,,341,0,341,0,1,,,,,
,,650061,001,2023-07-24_22h33.20.549,arm3_q,2022.2.5,Win32,59.85873339,64526929d8f9b780b29d4d8d,64aeaab685a29f4ca249be02,64beedd79815511e86a326bd,right,1,0.3071,0.35,17,0.018398308,0.2182,,,,,,342,0,342,0,1,,,,,
,,650061,001,2023-07-24_22h33.20.549,arm3_q,2022.2.5,Win32,59.85873339,64526929d8f9b780b29d4d8d,64aeaab685a29f4ca249be02,64beedd79815511e86a326bd,right,1,0.3071,0.35,17,-0.000408884,0.2531,,,,,,343,0,343,0,1,,,,,
,,650061,001,2023-07-24_22h33.20.549,arm3_q,2022.2.5,Win32,59.85873339,64526929d8f9b780b29d4d8d,64aeaab685a29f4ca249be02,64beedd79815511e86a326bd,up,1,0.3071,0.35,17,0,0.6817,,,,,,344,0,344,0,1,,,,,
,,650061,001,2023-07-24_22h33.20.549,arm3_q,2022.2.5,Win32,59.85873339,64526929d8f9b780b29d4d8d,64aeaab685a29f4ca249be02,64beedd79815511e86a326bd,right,1,0.3071,0.35,17,0.00029216,0.7656,,,,,,345,0,345,0,1,,,,,
,,650061,001,2023-07-24_22h33.20.549,arm3_q,2022.2.5,Win32,59.85873339,64526929d8f9b780b29d4d8d,64aeaab685a29f4ca249be02,64beedd79815511e86a326bd,right,1,0.3071,0.35,17,0.007457836,0.2325,,,,,,346,0,346,0,1,,,,,
,,650061,001,2023-07-24_22h33.20.549,arm3_q,2022.2.5,Win32,59.85873339,64526929d8f9b780b29d4d8d,64aeaab685a29f4ca249be02,64beedd79815511e86a326bd,right,1,0.3071,0.35,17,0.006799423,0.2509,,,,,,347,0,347,0,1,,,,,
,,650061,001,2023-07-24_22h33.20.549,arm3_q,2022.2.5,Win32,59.85873339,64526929d8f9b780b29d4d8d,64aeaab685a29f4ca249be02,64beedd79815511e86a326bd,right,1,0.3071,0.35,17,0.013244866,0.3002,,,,,,348,0,348,0,1,,,,,
,,650061,001,2023-07-24_22h33.20.549,arm3_q,2022.2.5,Win32,59.85873339,64526929d8f9b780b29d4d8d,64aeaab685a29f4ca249be02,64beedd79815511e86a326bd,up,-1,0.3071,0.35,17,0,0.5939,,,,,,349,0,349,0,1,,,,,
,,650061,001,2023-07-24_22h33.20.549,arm3_q,2022.2.5,Win32,59.85873339,64526929d8f9b780b29d4d8d,64aeaab685a29f4ca249be02,64beedd79815511e86a326bd,right,-1,0.3071,0.35,17,0.006334882,0.8264,,,,,,350,0,350,0,1,,,,,
,,650061,001,2023-07-24_22h33.20.549,arm3_q,2022.2.5,Win32,59.85873339,64526929d8f9b780b29d4d8d,64aeaab685a29f4ca249be02,64beedd79815511e86a326bd,right,-1,0.3071,0.35,17,0.002880532,0.2761,,,,,,351,0,351,0,1,,,,,
,,650061,001,2023-07-24_22h33.20.549,arm3_q,2022.2.5,Win32,59.85873339,64526929d8f9b780b29d4d8d,64aeaab685a29f4ca249be02,64beedd79815511e86a326bd,right,-1,0.3071,0.35,17,-0.009719534,0.3944,,,,,,352,0,352,0,1,,,,,
,,650061,001,2023-07-24_22h33.20.549,arm3_q,2022.2.5,Win32,59.85873339,64526929d8f9b780b29d4d8d,64aeaab685a29f4ca249be02,64beedd79815511e86a326bd,right,-1,0.3071,0.35,17,-0.014493633,0.3594,,,,,,353,0,353,0,1,,,,,
,,650061,001,2023-07-24_22h33.20.549,arm3_q,2022.2.5,Win32,59.85873339,64526929d8f9b780b29d4d8d,64aeaab685a29f4ca249be02,64beedd79815511e86a326bd,down,-1,0.3071,0.35,18,0,0.5049,,,,,,354,0,354,0,1,,,,,
,,650061,001,2023-07-24_22h33.20.549,arm3_q,2022.2.5,Win32,59.85873339,64526929d8f9b780b29d4d8d,64aeaab685a29f4ca249be02,64beedd79815511e86a326bd,right,-1,0.3071,0.35,18,-0.063480674,0.8576,,,,,,355,0,355,0,1,,,,,
,,650061,001,2023-07-24_22h33.20.549,arm3_q,2022.2.5,Win32,59.85873339,64526929d8f9b780b29d4d8d,64aeaab685a29f4ca249be02,64beedd79815511e86a326bd,right,-1,0.3071,0.35,18,-0.07996016,0.2915,,,,,,356,0,356,0,1,,,,,
,,650061,001,2023-07-24_22h33.20.549,arm3_q,2022.2.5,Win32,59.85873339,64526929d8f9b780b29d4d8d,64aeaab685a29f4ca249be02,64beedd79815511e86a326bd,right,-1,0.3071,0.35,18,-0.093611071,0.231,,,,,,357,0,357,0,1,,,,,
,,650061,001,2023-07-24_22h33.20.549,arm3_q,2022.2.5,Win32,59.85873339,64526929d8f9b780b29d4d8d,64aeaab685a29f4ca249be02,64beedd79815511e86a326bd,down,-1,0.3071,0.35,18,0,0.4342,,,,,,358,0,358,0,1,,,,,
,,650061,001,2023-07-24_22h33.20.549,arm3_q,2022.2.5,Win32,59.85873339,64526929d8f9b780b29d4d8d,64aeaab685a29f4ca249be02,64beedd79815511e86a326bd,right,-1,0.3071,0.35,18,-0.010242823,0.7954,,,,,,359,0,359,0,1,,,,,
,,650061,001,2023-07-24_22h33.20.549,arm3_q,2022.2.5,Win32,59.85873339,64526929d8f9b780b29d4d8d,64aeaab685a29f4ca249be02,64beedd79815511e86a326bd,right,-1,0.3071,0.35,18,-0.018139556,0.2545,,,,,,360,0,360,0,1,,,,,
,,650061,001,2023-07-24_22h33.20.549,arm3_q,2022.2.5,Win32,59.85873339,64526929d8f9b780b29d4d8d,64aeaab685a29f4ca249be02,64beedd79815511e86a326bd,right,-1,0.3071,0.35,18,-0.014616362,0.2347,,,,,,361,0,361,0,1,,,,,
,,650061,001,2023-07-24_22h33.20.549,arm3_q,2022.2.5,Win32,59.85873339,64526929d8f9b780b29d4d8d,64aeaab685a29f4ca249be02,64beedd79815511e86a326bd,right,-1,0.3071,0.35,18,-0.025230872,0.3029,,,,,,362,0,362,0,1,,,,,
,,650061,001,2023-07-24_22h33.20.549,arm3_q,2022.2.5,Win32,59.85873339,64526929d8f9b780b29d4d8d,64aeaab685a29f4ca249be02,64beedd79815511e86a326bd,right,-1,0.3071,0.35,18,-0.043189864,0.3328,,,,,,363,0,363,0,1,,,,,
,,650061,001,2023-07-24_22h33.20.549,arm3_q,2022.2.5,Win32,59.85873339,64526929d8f9b780b29d4d8d,64aeaab685a29f4ca249be02,64beedd79815511e86a326bd,down,1,0.3071,0.35,18,0,0.7422,,,,,,364,0,364,0,1,,,,,
,,650061,001,2023-07-24_22h33.20.549,arm3_q,2022.2.5,Win32,59.85873339,64526929d8f9b780b29d4d8d,64aeaab685a29f4ca249be02,64beedd79815511e86a326bd,right,1,0.3071,0.35,18,0.021091138,1.0085,,,,,,365,0,365,0,1,,,,,
,,650061,001,2023-07-24_22h33.20.549,arm3_q,2022.2.5,Win32,59.85873339,64526929d8f9b780b29d4d8d,64aeaab685a29f4ca249be02,64beedd79815511e86a326bd,right,1,0.3071,0.35,18,0.020983937,0.2544,,,,,,366,0,366,0,1,,,,,
,,650061,001,2023-07-24_22h33.20.549,arm3_q,2022.2.5,Win32,59.85873339,64526929d8f9b780b29d4d8d,64aeaab685a29f4ca249be02,64beedd79815511e86a326bd,right,1,0.3071,0.35,18,0.034141145,0.275,,,,,,367,0,367,0,1,,,,,
,,650061,001,2023-07-24_22h33.20.549,arm3_q,2022.2.5,Win32,59.85873339,64526929d8f9b780b29d4d8d,64aeaab685a29f4ca249be02,64beedd79815511e86a326bd,right,1,0.3071,0.35,18,0.042013596,0.4077,,,,,,368,0,368,0,1,,,,,
,,650061,001,2023-07-24_22h33.20.549,arm3_q,2022.2.5,Win32,59.85873339,64526929d8f9b780b29d4d8d,64aeaab685a29f4ca249be02,64beedd79815511e86a326bd,up,1,0.3071,0.35,18,0.042013596,0.5824,,,,,,369,0,369,0,1,,,,,
,,650061,001,2023-07-24_22h33.20.549,arm3_q,2022.2.5,Win32,59.85873339,64526929d8f9b780b29d4d8d,64aeaab685a29f4ca249be02,64beedd79815511e86a326bd,,,,,,,,,,,,,,,,,,0,0,0,0,1
space,3.4582,650061,001,2023-07-24_22h33.20.549,arm3_q,2022.2.5,Win32,59.85873339,64526929d8f9b780b29d4d8d,64aeaab685a29f4ca249be02,64beedd79815511e86a326bd,right,1,0.8214,0.35,18,0.038790536,2.1958,,,,,,0,0,0,0,1,,,,,
,,650061,001,2023-07-24_22h33.20.549,arm3_q,2022.2.5,Win32,59.85873339,64526929d8f9b780b29d4d8d,64aeaab685a29f4ca249be02,64beedd79815511e86a326bd,right,1,0.8214,0.35,18,0.039220501,0.3802,,,,,,1,0,1,0,1,,,,,
,,650061,001,2023-07-24_22h33.20.549,arm3_q,2022.2.5,Win32,59.85873339,64526929d8f9b780b29d4d8d,64aeaab685a29f4ca249be02,64beedd79815511e86a326bd,right,1,0.8214,0.35,18,0.054328364,0.5383,,,,,,2,0,2,0,1,,,,,
,,650061,001,2023-07-24_22h33.20.549,arm3_q,2022.2.5,Win32,59.85873339,64526929d8f9b780b29d4d8d,64aeaab685a29f4ca249be02,64beedd79815511e86a326bd,up,-1,0.8214,0.35,18,0,0.5794,,,,,,3,0,3,0,1,,,,,
,,650061,001,2023-07-24_22h33.20.549,arm3_q,2022.2.5,Win32,59.85873339,64526929d8f9b780b29d4d8d,64aeaab685a29f4ca249be02,64beedd79815511e86a326bd,right,-1,0.8214,0.35,18,-0.028944437,1.1894,,,,,,4,0,4,0,1,,,,,
,,650061,001,2023-07-24_22h33.20.549,arm3_q,2022.2.5,Win32,59.85873339,64526929d8f9b780b29d4d8d,64aeaab685a29f4ca249be02,64beedd79815511e86a326bd,right,-1,0.8214,0.35,18,-0.049365142,0.2641,,,,,,5,0,5,0,1,,,,,
,,650061,001,2023-07-24_22h33.20.549,arm3_q,2022.2.5,Win32,59.85873339,64526929d8f9b780b29d4d8d,64aeaab685a29f4ca249be02,64beedd79815511e86a326bd,right,-1,0.8214,0.35,18,-0.056664728,0.2565,,,,,,6,0,6,0,1,,,,,
,,650061,001,2023-07-24_22h33.20.549,arm3_q,2022.2.5,Win32,59.85873339,64526929d8f9b780b29d4d8d,64aeaab685a29f4ca249be02,64beedd79815511e86a326bd,down,-1,0.8214,0.35,19,0,0.3097,,,,,,7,0,7,0,1,,,,,
,,650061,001,2023-07-24_22h33.20.549,arm3_q,2022.2.5,Win32,59.85873339,64526929d8f9b780b29d4d8d,64aeaab685a29f4ca249be02,64beedd79815511e86a326bd,right,-1,0.8214,0.35,19,-0.030668682,0.87,,,,,,8,0,8,0,1,,,,,
,,650061,001,2023-07-24_22h33.20.549,arm3_q,2022.2.5,Win32,59.85873339,64526929d8f9b780b29d4d8d,64aeaab685a29f4ca249be02,64beedd79815511e86a326bd,right,-1,0.8214,0.35,19,-0.051111289,0.2733,,,,,,9,0,9,0,1,,,,,
,,650061,001,2023-07-24_22h33.20.549,arm3_q,2022.2.5,Win32,59.85873339,64526929d8f9b780b29d4d8d,64aeaab685a29f4ca249be02,64beedd79815511e86a326bd,right,-1,0.8214,0.35,19,-0.089077408,0.2342,,,,,,10,0,10,0,1,,,,,
,,650061,001,2023-07-24_22h33.20.549,arm3_q,2022.2.5,Win32,59.85873339,64526929d8f9b780b29d4d8d,64aeaab685a29f4ca249be02,64beedd79815511e86a326bd,down,-1,0.8214,0.35,19,0,0.2479,,,,,,11,0,11,0,1,,,,,
,,650061,001,2023-07-24_22h33.20.549,arm3_q,2022.2.5,Win32,59.85873339,64526929d8f9b780b29d4d8d,64aeaab685a29f4ca249be02,64beedd79815511e86a326bd,right,-1,0.8214,0.35,19,0.011107757,0.8934,,,,,,12,0,12,0,1,,,,,
,,650061,001,2023-07-24_22h33.20.549,arm3_q,2022.2.5,Win32,59.85873339,64526929d8f9b780b29d4d8d,64aeaab685a29f4ca249be02,64beedd79815511e86a326bd,right,-1,0.8214,0.35,19,0.038129268,0.2446,,,,,,13,0,13,0,1,,,,,
,,650061,001,2023-07-24_22h33.20.549,arm3_q,2022.2.5,Win32,59.85873339,64526929d8f9b780b29d4d8d,64aeaab685a29f4ca249be02,64beedd79815511e86a326bd,right,-1,0.8214,0.35,19,0.046297148,0.2722,,,,,,14,0,14,0,1,,,,,
,,650061,001,2023-07-24_22h33.20.549,arm3_q,2022.2.5,Win32,59.85873339,64526929d8f9b780b29d4d8d,64aeaab685a29f4ca249be02,64beedd79815511e86a326bd,up,-1,0.8214,0.35,18,0,1.4972,,,,,,15,0,15,0,1,,,,,
,,650061,001,2023-07-24_22h33.20.549,arm3_q,2022.2.5,Win32,59.85873339,64526929d8f9b780b29d4d8d,64aeaab685a29f4ca249be02,64beedd79815511e86a326bd,right,-1,0.8214,0.35,18,0.006336238,0.9036,,,,,,16,0,16,0,1,,,,,
,,650061,001,2023-07-24_22h33.20.549,arm3_q,2022.2.5,Win32,59.85873339,64526929d8f9b780b29d4d8d,64aeaab685a29f4ca249be02,64beedd79815511e86a326bd,right,-1,0.8214,0.35,18,-0.017890839,0.2209,,,,,,17,0,17,0,1,,,,,
,,650061,001,2023-07-24_22h33.20.549,arm3_q,2022.2.5,Win32,59.85873339,64526929d8f9b780b29d4d8d,64aeaab685a29f4ca249be02,64beedd79815511e86a326bd,up,-1,0.8214,0.35,18,0,0.705,,,,,,18,0,18,0,1,,,,,
,,650061,001,2023-07-24_22h33.20.549,arm3_q,2022.2.5,Win32,59.85873339,64526929d8f9b780b29d4d8d,64aeaab685a29f4ca249be02,64beedd79815511e86a326bd,up,-1,0.8214,0.35,18,0,0.6254,,,,,,19,0,19,0,1,,,,,
,,650061,001,2023-07-24_22h33.20.549,arm3_q,2022.2.5,Win32,59.85873339,64526929d8f9b780b29d4d8d,64aeaab685a29f4ca249be02,64beedd79815511e86a326bd,up,1,0.8214,0.35,17,0,0.7473,,,,,,20,0,20,0,1,,,,,
,,650061,001,2023-07-24_22h33.20.549,arm3_q,2022.2.5,Win32,59.85873339,64526929d8f9b780b29d4d8d,64aeaab685a29f4ca249be02,64beedd79815511e86a326bd,up,-1,0.8214,0.35,18,0,0.6392,,,,,,21,0,21,0,1,,,,,
,,650061,001,2023-07-24_22h33.20.549,arm3_q,2022.2.5,Win32,59.85873339,64526929d8f9b780b29d4d8d,64aeaab685a29f4ca249be02,64beedd79815511e86a326bd,up,-1,0.8214,0.35,17,0,0.5425,,,,,,22,0,22,0,1,,,,,
,,650061,001,2023-07-24_22h33.20.549,arm3_q,2022.2.5,Win32,59.85873339,64526929d8f9b780b29d4d8d,64aeaab685a29f4ca249be02,64beedd79815511e86a326bd,up,1,0.8214,0.35,16,0,0.5847,,,,,,23,0,23,0,1,,,,,
,,650061,001,2023-07-24_22h33.20.549,arm3_q,2022.2.5,Win32,59.85873339,64526929d8f9b780b29d4d8d,64aeaab685a29f4ca249be02,64beedd79815511e86a326bd,up,1,0.8214,0.35,16,0,0.5661,,,,,,24,0,24,0,1,,,,,
,,650061,001,2023-07-24_22h33.20.549,arm3_q,2022.2.5,Win32,59.85873339,64526929d8f9b780b29d4d8d,64aeaab685a29f4ca249be02,64beedd79815511e86a326bd,up,1,0.8214,0.35,17,0,0.5878,,,,,,25,0,25,0,1,,,,,
,,650061,001,2023-07-24_22h33.20.549,arm3_q,2022.2.5,Win32,59.85873339,64526929d8f9b780b29d4d8d,64aeaab685a29f4ca249be02,64beedd79815511e86a326bd,up,1,0.8214,0.35,18,0,0.5827,,,,,,26,0,26,0,1,,,,,
,,650061,001,2023-07-24_22h33.20.549,arm3_q,2022.2.5,Win32,59.85873339,64526929d8f9b780b29d4d8d,64aeaab685a29f4ca249be02,64beedd79815511e86a326bd,up,1,0.8214,0.35,19,0,0.598,,,,,,27,0,27,0,1,,,,,
,,650061,001,2023-07-24_22h33.20.549,arm3_q,2022.2.5,Win32,59.85873339,64526929d8f9b780b29d4d8d,64aeaab685a29f4ca249be02,64beedd79815511e86a326bd,up,1,0.8214,0.35,19,0,0.58,,,,,,28,0,28,0,1,,,,,
,,650061,001,2023-07-24_22h33.20.549,arm3_q,2022.2.5,Win32,59.85873339,64526929d8f9b780b29d4d8d,64aeaab685a29f4ca249be02,64beedd79815511e86a326bd,up,-1,0.8214,0.35,20,0,0.5747,,,,,,29,0,29,0,1,,,,,
,,650061,001,2023-07-24_22h33.20.549,arm3_q,2022.2.5,Win32,59.85873339,64526929d8f9b780b29d4d8d,64aeaab685a29f4ca249be02,64beedd79815511e86a326bd,up,1,0.8214,0.35,19,0,0.6321,,,,,,30,0,30,0,1,,,,,
,,650061,001,2023-07-24_22h33.20.549,arm3_q,2022.2.5,Win32,59.85873339,64526929d8f9b780b29d4d8d,64aeaab685a29f4ca249be02,64beedd79815511e86a326bd,up,1,0.8214,0.35,20,0,0.6911,,,,,,31,0,31,0,1,,,,,
,,650061,001,2023-07-24_22h33.20.549,arm3_q,2022.2.5,Win32,59.85873339,64526929d8f9b780b29d4d8d,64aeaab685a29f4ca249be02,64beedd79815511e86a326bd,up,1,0.8214,0.35,20,0,0.6572,,,,,,32,0,32,0,1,,,,,
,,650061,001,2023-07-24_22h33.20.549,arm3_q,2022.2.5,Win32,59.85873339,64526929d8f9b780b29d4d8d,64aeaab685a29f4ca249be02,64beedd79815511e86a326bd,up,-1,0.8214,0.35,20,0,0.569,,,,,,33,0,33,0,1,,,,,
,,650061,001,2023-07-24_22h33.20.549,arm3_q,2022.2.5,Win32,59.85873339,64526929d8f9b780b29d4d8d,64aeaab685a29f4ca249be02,64beedd79815511e86a326bd,up,-1,0.8214,0.35,19,0,0.6133,,,,,,34,0,34,0,1,,,,,
,,650061,001,2023-07-24_22h33.20.549,arm3_q,2022.2.5,Win32,59.85873339,64526929d8f9b780b29d4d8d,64aeaab685a29f4ca249be02,64beedd79815511e86a326bd,up,1,0.8214,0.35,18,0,0.532,,,,,,35,0,35,0,1,,,,,
,,650061,001,2023-07-24_22h33.20.549,arm3_q,2022.2.5,Win32,59.85873339,64526929d8f9b780b29d4d8d,64aeaab685a29f4ca249be02,64beedd79815511e86a326bd,up,1,0.8214,0.35,18,0,0.6184,,,,,,36,0,36,0,1,,,,,
,,650061,001,2023-07-24_22h33.20.549,arm3_q,2022.2.5,Win32,59.85873339,64526929d8f9b780b29d4d8d,64aeaab685a29f4ca249be02,64beedd79815511e86a326bd,up,1,0.8214,0.35,19,0,0.6061,,,,,,37,0,37,0,1,,,,,
,,650061,001,2023-07-24_22h33.20.549,arm3_q,2022.2.5,Win32,59.85873339,64526929d8f9b780b29d4d8d,64aeaab685a29f4ca249be02,64beedd79815511e86a326bd,up,1,0.8214,0.35,20,0,0.7515,,,,,,38,0,38,0,1,,,,,
,,650061,001,2023-07-24_22h33.20.549,arm3_q,2022.2.5,Win32,59.85873339,64526929d8f9b780b29d4d8d,64aeaab685a29f4ca249be02,64beedd79815511e86a326bd,up,1,0.8214,0.35,21,0,0.5921,,,,,,39,0,39,0,1,,,,,
,,650061,001,2023-07-24_22h33.20.549,arm3_q,2022.2.5,Win32,59.85873339,64526929d8f9b780b29d4d8d,64aeaab685a29f4ca249be02,64beedd79815511e86a326bd,up,-1,0.8214,0.35,22,0,0.6632,,,,,,40,0,40,0,1,,,,,
,,650061,001,2023-07-24_22h33.20.549,arm3_q,2022.2.5,Win32,59.85873339,64526929d8f9b780b29d4d8d,64aeaab685a29f4ca249be02,64beedd79815511e86a326bd,up,-1,0.8214,0.35,21,0,0.6371,,,,,,41,0,41,0,1,,,,,
,,650061,001,2023-07-24_22h33.20.549,arm3_q,2022.2.5,Win32,59.85873339,64526929d8f9b780b29d4d8d,64aeaab685a29f4ca249be02,64beedd79815511e86a326bd,up,-1,0.8214,0.35,20,0,0.6041,,,,,,42,0,42,0,1,,,,,
,,650061,001,2023-07-24_22h33.20.549,arm3_q,2022.2.5,Win32,59.85873339,64526929d8f9b780b29d4d8d,64aeaab685a29f4ca249be02,64beedd79815511e86a326bd,up,-1,0.8214,0.35,20,0,0.6323,,,,,,43,0,43,0,1,,,,,
,,650061,001,2023-07-24_22h33.20.549,arm3_q,2022.2.5,Win32,59.85873339,64526929d8f9b780b29d4d8d,64aeaab685a29f4ca249be02,64beedd79815511e86a326bd,up,-1,0.8214,0.35,20,0,0.5805,,,,,,44,0,44,0,1,,,,,
