space_bar.keys,space_bar.rt,participant,session,date,expName,psychopyVersion,OS,frameRate,fbclid,resp.keys,state,q_prob,eps_prob,score,price,resp.rt,train.thisRepN,train.thisTrialN,train.thisN,train.thisIndex,train.ran,steps.thisRepN,steps.thisTrialN,steps.thisN,steps.thisIndex,steps.ran,blocks.thisRepN,blocks.thisTrialN,blocks.thisN,blocks.thisIndex,blocks.ran
space,86.5342,679220,001,2023-07-23_21h54.18.703,arm3_q,2022.2.5,Win32,60.84575601,IwAR3i0Tne7Am76yPQHctpsUhhvHOEwv4zftyo9rgU0F3TAKf6rfbrBgdDQWw,,,,,,,,,,,,,,,,,,,,,,
space,27.7232,679220,001,2023-07-23_21h54.18.703,arm3_q,2022.2.5,Win32,60.84575601,IwAR3i0Tne7Am76yPQHctpsUhhvHOEwv4zftyo9rgU0F3TAKf6rfbrBgdDQWw,,,,,,,,,,,,,,,,,,,,,,
space,33.4214,679220,001,2023-07-23_21h54.18.703,arm3_q,2022.2.5,Win32,60.84575601,IwAR3i0Tne7Am76yPQHctpsUhhvHOEwv4zftyo9rgU0F3TAKf6rfbrBgdDQWw,,,,,,,,,,,,,,,,,,,,,,
space,39.0157,679220,001,2023-07-23_21h54.18.703,arm3_q,2022.2.5,Win32,60.84575601,IwAR3i0Tne7Am76yPQHctpsUhhvHOEwv4zftyo9rgU0F3TAKf6rfbrBgdDQWw,,,,,,,,,,,,,,,,,,,,,,
space,34.4039,679220,001,2023-07-23_21h54.18.703,arm3_q,2022.2.5,Win32,60.84575601,IwAR3i0Tne7Am76yPQHctpsUhhvHOEwv4zftyo9rgU0F3TAKf6rfbrBgdDQWw,,,,,,,,,,,,,,,,,,,,,,
space,42.8879,679220,001,2023-07-23_21h54.18.703,arm3_q,2022.2.5,Win32,60.84575601,IwAR3i0Tne7Am76yPQHctpsUhhvHOEwv4zftyo9rgU0F3TAKf6rfbrBgdDQWw,,,,,,,,,,,,,,,,,,,,,,
space,19.4248,679220,001,2023-07-23_21h54.18.703,arm3_q,2022.2.5,Win32,60.84575601,IwAR3i0Tne7Am76yPQHctpsUhhvHOEwv4zftyo9rgU0F3TAKf6rfbrBgdDQWw,,,,,,,,,,,,,,,,,,,,,,
space,18.888,679220,001,2023-07-23_21h54.18.703,arm3_q,2022.2.5,Win32,60.84575601,IwAR3i0Tne7Am76yPQHctpsUhhvHOEwv4zftyo9rgU0F3TAKf6rfbrBgdDQWw,,,,,,,,,,,,,,,,,,,,,,
space,9.3441,679220,001,2023-07-23_21h54.18.703,arm3_q,2022.2.5,Win32,60.84575601,IwAR3i0Tne7Am76yPQHctpsUhhvHOEwv4zftyo9rgU0F3TAKf6rfbrBgdDQWw,,,,,,,,,,,,,,,,,,,,,,
,,679220,001,2023-07-23_21h54.18.703,arm3_q,2022.2.5,Win32,60.84575601,IwAR3i0Tne7Am76yPQHctpsUhhvHOEwv4zftyo9rgU0F3TAKf6rfbrBgdDQWw,right,-1,0.5643,0.35,0,-0.012809036,2.8539,0,0,0,0,1,,,,,,,,,,
,,679220,001,2023-07-23_21h54.18.703,arm3_q,2022.2.5,Win32,60.84575601,IwAR3i0Tne7Am76yPQHctpsUhhvHOEwv4zftyo9rgU0F3TAKf6rfbrBgdDQWw,right,-1,0.5643,0.35,0,-0.003354788,1.6066,1,0,1,0,1,,,,,,,,,,
,,679220,001,2023-07-23_21h54.18.703,arm3_q,2022.2.5,Win32,60.84575601,IwAR3i0Tne7Am76yPQHctpsUhhvHOEwv4zftyo9rgU0F3TAKf6rfbrBgdDQWw,right,-1,0.5643,0.35,0,-0.009132094,0.653,2,0,2,0,1,,,,,,,,,,
,,679220,001,2023-07-23_21h54.18.703,arm3_q,2022.2.5,Win32,60.84575601,IwAR3i0Tne7Am76yPQHctpsUhhvHOEwv4zftyo9rgU0F3TAKf6rfbrBgdDQWw,up,1,0.5643,0.35,-1,0,1.3375,3,0,3,0,1,,,,,,,,,,
,,679220,001,2023-07-23_21h54.18.703,arm3_q,2022.2.5,Win32,60.84575601,IwAR3i0Tne7Am76yPQHctpsUhhvHOEwv4zftyo9rgU0F3TAKf6rfbrBgdDQWw,right,1,0.5643,0.35,-1,0.039557472,1.8063,4,0,4,0,1,,,,,,,,,,
,,679220,001,2023-07-23_21h54.18.703,arm3_q,2022.2.5,Win32,60.84575601,IwAR3i0Tne7Am76yPQHctpsUhhvHOEwv4zftyo9rgU0F3TAKf6rfbrBgdDQWw,right,1,0.5643,0.35,-1,0.083930558,0.6693,5,0,5,0,1,,,,,,,,,,
,,679220,001,2023-07-23_21h54.18.703,arm3_q,2022.2.5,Win32,60.84575601,IwAR3i0Tne7Am76yPQHctpsUhhvHOEwv4zftyo9rgU0F3TAKf6rfbrBgdDQWw,right,1,0.5643,0.35,-1,0.074314886,0.6207,6,0,6,0,1,,,,,,,,,,
,,679220,001,2023-07-23_21h54.18.703,arm3_q,2022.2.5,Win32,60.84575601,IwAR3i0Tne7Am76yPQHctpsUhhvHOEwv4zftyo9rgU0F3TAKf6rfbrBgdDQWw,right,1,0.5643,0.35,-1,0.096245564,0.622,7,0,7,0,1,,,,,,,,,,
,,679220,001,2023-07-23_21h54.18.703,arm3_q,2022.2.5,Win32,60.84575601,IwAR3i0Tne7Am76yPQHctpsUhhvHOEwv4zftyo9rgU0F3TAKf6rfbrBgdDQWw,up,-1,0.5643,0.35,-1,0,0.3831,8,0,8,0,1,,,,,,,,,,
,,679220,001,2023-07-23_21h54.18.703,arm3_q,2022.2.5,Win32,60.84575601,IwAR3i0Tne7Am76yPQHctpsUhhvHOEwv4zftyo9rgU0F3TAKf6rfbrBgdDQWw,right,-1,0.5643,0.35,-1,-0.008398139,1.055,9,0,9,0,1,,,,,,,,,,
,,679220,001,2023-07-23_21h54.18.703,arm3_q,2022.2.5,Win32,60.84575601,IwAR3i0Tne7Am76yPQHctpsUhhvHOEwv4zftyo9rgU0F3TAKf6rfbrBgdDQWw,right,-1,0.5643,0.35,-1,-0.045845888,0.6229,10,0,10,0,1,,,,,,,,,,
,,679220,001,2023-07-23_21h54.18.703,arm3_q,2022.2.5,Win32,60.84575601,IwAR3i0Tne7Am76yPQHctpsUhhvHOEwv4zftyo9rgU0F3TAKf6rfbrBgdDQWw,right,-1,0.5643,0.35,-1,-0.011734237,0.5662,11,0,11,0,1,,,,,,,,,,
,,679220,001,2023-07-23_21h54.18.703,arm3_q,2022.2.5,Win32,60.84575601,IwAR3i0Tne7Am76yPQHctpsUhhvHOEwv4zftyo9rgU0F3TAKf6rfbrBgdDQWw,right,-1,0.5643,0.35,-1,-0.043541726,0.5335,12,0,12,0,1,,,,,,,,,,
,,679220,001,2023-07-23_21h54.18.703,arm3_q,2022.2.5,Win32,60.84575601,IwAR3i0Tne7Am76yPQHctpsUhhvHOEwv4zftyo9rgU0F3TAKf6rfbrBgdDQWw,right,-1,0.5643,0.35,-1,-0.058703038,0.5997,13,0,13,0,1,,,,,,,,,,
,,679220,001,2023-07-23_21h54.18.703,arm3_q,2022.2.5,Win32,60.84575601,IwAR3i0Tne7Am76yPQHctpsUhhvHOEwv4zftyo9rgU0F3TAKf6rfbrBgdDQWw,down,1,0.5643,0.35,-1,0,0.8166,14,0,14,0,1,,,,,,,,,,
,,679220,001,2023-07-23_21h54.18.703,arm3_q,2022.2.5,Win32,60.84575601,IwAR3i0Tne7Am76yPQHctpsUhhvHOEwv4zftyo9rgU0F3TAKf6rfbrBgdDQWw,right,1,0.5643,0.35,-1,0.02716106,0.7764,15,0,15,0,1,,,,,,,,,,
,,679220,001,2023-07-23_21h54.18.703,arm3_q,2022.2.5,Win32,60.84575601,IwAR3i0Tne7Am76yPQHctpsUhhvHOEwv4zftyo9rgU0F3TAKf6rfbrBgdDQWw,right,1,0.5643,0.35,-1,0.063184123,0.4832,16,0,16,0,1,,,,,,,,,,
,,679220,001,2023-07-23_21h54.18.703,arm3_q,2022.2.5,Win32,60.84575601,IwAR3i0Tne7Am76yPQHctpsUhhvHOEwv4zftyo9rgU0F3TAKf6rfbrBgdDQWw,right,1,0.5643,0.35,-1,0.040352437,0.3995,17,0,17,0,1,,,,,,,,,,
,,679220,001,2023-07-23_21h54.18.703,arm3_q,2022.2.5,Win32,60.84575601,IwAR3i0Tne7Am76yPQHctpsUhhvHOEwv4zftyo9rgU0F3TAKf6rfbrBgdDQWw,right,1,0.5643,0.35,-1,0.039954325,0.4804,18,0,18,0,1,,,,,,,,,,
,,679220,001,2023-07-23_21h54.18.703,arm3_q,2022.2.5,Win32,60.84575601,IwAR3i0Tne7Am76yPQHctpsUhhvHOEwv4zftyo9rgU0F3TAKf6rfbrBgdDQWw,right,1,0.5643,0.35,-1,0.048748378,0.4914,19,0,19,0,1,,,,,,,,,,
,,679220,001,2023-07-23_21h54.18.703,arm3_q,2022.2.5,Win32,60.84575601,IwAR3i0Tne7Am76yPQHctpsUhhvHOEwv4zftyo9rgU0F3TAKf6rfbrBgdDQWw,right,1,0.5643,0.35,-1,0.067431726,0.5664,20,0,20,0,1,,,,,,,,,,
,,679220,001,2023-07-23_21h54.18.703,arm3_q,2022.2.5,Win32,60.84575601,IwAR3i0Tne7Am76yPQHctpsUhhvHOEwv4zftyo9rgU0F3TAKf6rfbrBgdDQWw,up,1,0.5643,0.35,0,0,0.5831,21,0,21,0,1,,,,,,,,,,
,,679220,001,2023-07-23_21h54.18.703,arm3_q,2022.2.5,Win32,60.84575601,IwAR3i0Tne7Am76yPQHctpsUhhvHOEwv4zftyo9rgU0F3TAKf6rfbrBgdDQWw,right,1,0.5643,0.35,0,0.003909122,0.7555,22,0,22,0,1,,,,,,,,,,
,,679220,001,2023-07-23_21h54.18.703,arm3_q,2022.2.5,Win32,60.84575601,IwAR3i0Tne7Am76yPQHctpsUhhvHOEwv4zftyo9rgU0F3TAKf6rfbrBgdDQWw,right,1,0.5643,0.35,0,-0.014843027,0.5505,23,0,23,0,1,,,,,,,,,,
,,679220,001,2023-07-23_21h54.18.703,arm3_q,2022.2.5,Win32,60.84575601,IwAR3i0Tne7Am76yPQHctpsUhhvHOEwv4zftyo9rgU0F3TAKf6rfbrBgdDQWw,right,1,0.5643,0.35,0,0.027917793,0.3342,24,0,24,0,1,,,,,,,,,,
,,679220,001,2023-07-23_21h54.18.703,arm3_q,2022.2.5,Win32,60.84575601,IwAR3i0Tne7Am76yPQHctpsUhhvHOEwv4zftyo9rgU0F3TAKf6rfbrBgdDQWw,right,1,0.5643,0.35,0,0.045354761,0.351,25,0,25,0,1,,,,,,,,,,
,,679220,001,2023-07-23_21h54.18.703,arm3_q,2022.2.5,Win32,60.84575601,IwAR3i0Tne7Am76yPQHctpsUhhvHOEwv4zftyo9rgU0F3TAKf6rfbrBgdDQWw,right,1,0.5643,0.35,0,0.067699117,0.2996,26,0,26,0,1,,,,,,,,,,
,,679220,001,2023-07-23_21h54.18.703,arm3_q,2022.2.5,Win32,60.84575601,IwAR3i0Tne7Am76yPQHctpsUhhvHOEwv4zftyo9rgU0F3TAKf6rfbrBgdDQWw,right,1,0.5643,0.35,0,0.080592873,0.3335,27,0,27,0,1,,,,,,,,,,
,,679220,001,2023-07-23_21h54.18.703,arm3_q,2022.2.5,Win32,60.84575601,IwAR3i0Tne7Am76yPQHctpsUhhvHOEwv4zftyo9rgU0F3TAKf6rfbrBgdDQWw,up,1,0.5643,0.35,0,0,0.5166,28,0,28,0,1,,,,,,,,,,
,,679220,001,2023-07-23_21h54.18.703,arm3_q,2022.2.5,Win32,60.84575601,IwAR3i0Tne7Am76yPQHctpsUhhvHOEwv4zftyo9rgU0F3TAKf6rfbrBgdDQWw,right,1,0.5643,0.35,0,0.028575442,0.4833,29,0,29,0,1,,,,,,,,,,
,,679220,001,2023-07-23_21h54.18.703,arm3_q,2022.2.5,Win32,60.84575601,IwAR3i0Tne7Am76yPQHctpsUhhvHOEwv4zftyo9rgU0F3TAKf6rfbrBgdDQWw,right,1,0.5643,0.35,0,0.072853887,0.3499,30,0,30,0,1,,,,,,,,,,
,,679220,001,2023-07-23_21h54.18.703,arm3_q,2022.2.5,Win32,60.84575601,IwAR3i0Tne7Am76yPQHctpsUhhvHOEwv4zftyo9rgU0F3TAKf6rfbrBgdDQWw,right,1,0.5643,0.35,0,0.06963853,0.2589,31,0,31,0,1,,,,,,,,,,
,,679220,001,2023-07-23_21h54.18.703,arm3_q,2022.2.5,Win32,60.84575601,IwAR3i0Tne7Am76yPQHctpsUhhvHOEwv4zftyo9rgU0F3TAKf6rfbrBgdDQWw,right,1,0.5643,0.35,0,0.082629493,0.2679,32,0,32,0,1,,,,,,,,,,
,,679220,001,2023-07-23_21h54.18.703,arm3_q,2022.2.5,Win32,60.84575601,IwAR3i0Tne7Am76yPQHctpsUhhvHOEwv4zftyo9rgU0F3TAKf6rfbrBgdDQWw,right,1,0.5643,0.35,0,0.107324509,0.2637,33,0,33,0,1,,,,,,,,,,
,,679220,001,2023-07-23_21h54.18.703,arm3_q,2022.2.5,Win32,60.84575601,IwAR3i0Tne7Am76yPQHctpsUhhvHOEwv4zftyo9rgU0F3TAKf6rfbrBgdDQWw,right,1,0.5643,0.35,0,0.113897329,0.2573,34,0,34,0,1,,,,,,,,,,
,,679220,001,2023-07-23_21h54.18.703,arm3_q,2022.2.5,Win32,60.84575601,IwAR3i0Tne7Am76yPQHctpsUhhvHOEwv4zftyo9rgU0F3TAKf6rfbrBgdDQWw,up,-1,0.5643,0.35,0,0,0.5053,35,0,35,0,1,,,,,,,,,,
,,679220,001,2023-07-23_21h54.18.703,arm3_q,2022.2.5,Win32,60.84575601,IwAR3i0Tne7Am76yPQHctpsUhhvHOEwv4zftyo9rgU0F3TAKf6rfbrBgdDQWw,right,-1,0.5643,0.35,0,-0.025203155,0.4907,36,0,36,0,1,,,,,,,,,,
,,679220,001,2023-07-23_21h54.18.703,arm3_q,2022.2.5,Win32,60.84575601,IwAR3i0Tne7Am76yPQHctpsUhhvHOEwv4zftyo9rgU0F3TAKf6rfbrBgdDQWw,right,-1,0.5643,0.35,0,-0.034808102,0.2836,37,0,37,0,1,,,,,,,,,,
,,679220,001,2023-07-23_21h54.18.703,arm3_q,2022.2.5,Win32,60.84575601,IwAR3i0Tne7Am76yPQHctpsUhhvHOEwv4zftyo9rgU0F3TAKf6rfbrBgdDQWw,right,-1,0.5643,0.35,0,-0.04040139,0.2503,38,0,38,0,1,,,,,,,,,,
,,679220,001,2023-07-23_21h54.18.703,arm3_q,2022.2.5,Win32,60.84575601,IwAR3i0Tne7Am76yPQHctpsUhhvHOEwv4zftyo9rgU0F3TAKf6rfbrBgdDQWw,right,-1,0.5643,0.35,0,-0.038674634,0.2497,39,0,39,0,1,,,,,,,,,,
,,679220,001,2023-07-23_21h54.18.703,arm3_q,2022.2.5,Win32,60.84575601,IwAR3i0Tne7Am76yPQHctpsUhhvHOEwv4zftyo9rgU0F3TAKf6rfbrBgdDQWw,right,-1,0.5643,0.35,0,-0.049920028,0.2971,40,0,40,0,1,,,,,,,,,,
,,679220,001,2023-07-23_21h54.18.703,arm3_q,2022.2.5,Win32,60.84575601,IwAR3i0Tne7Am76yPQHctpsUhhvHOEwv4zftyo9rgU0F3TAKf6rfbrBgdDQWw,right,-1,0.5643,0.35,0,-0.045058344,0.2499,41,0,41,0,1,,,,,,,,,,
,,679220,001,2023-07-23_21h54.18.703,arm3_q,2022.2.5,Win32,60.84575601,IwAR3i0Tne7Am76yPQHctpsUhhvHOEwv4zftyo9rgU0F3TAKf6rfbrBgdDQWw,right,-1,0.5643,0.35,0,-0.02499919,0.6838,42,0,42,0,1,,,,,,,,,,
,,679220,001,2023-07-23_21h54.18.703,arm3_q,2022.2.5,Win32,60.84575601,IwAR3i0Tne7Am76yPQHctpsUhhvHOEwv4zftyo9rgU0F3TAKf6rfbrBgdDQWw,right,-1,0.5643,0.35,0,-0.059612502,0.3498,43,0,43,0,1,,,,,,,,,,
,,679220,001,2023-07-23_21h54.18.703,arm3_q,2022.2.5,Win32,60.84575601,IwAR3i0Tne7Am76yPQHctpsUhhvHOEwv4zftyo9rgU0F3TAKf6rfbrBgdDQWw,down,-1,0.5643,0.35,0,0,0.7078,44,0,44,0,1,,,,,,,,,,
,,679220,001,2023-07-23_21h54.18.703,arm3_q,2022.2.5,Win32,60.84575601,IwAR3i0Tne7Am76yPQHctpsUhhvHOEwv4zftyo9rgU0F3TAKf6rfbrBgdDQWw,right,-1,0.5643,0.35,0,0.007126202,0.4689,45,0,45,0,1,,,,,,,,,,
,,679220,001,2023-07-23_21h54.18.703,arm3_q,2022.2.5,Win32,60.84575601,IwAR3i0Tne7Am76yPQHctpsUhhvHOEwv4zftyo9rgU0F3TAKf6rfbrBgdDQWw,right,-1,0.5643,0.35,0,0.001283696,0.267,46,0,46,0,1,,,,,,,,,,
,,679220,001,2023-07-23_21h54.18.703,arm3_q,2022.2.5,Win32,60.84575601,IwAR3i0Tne7Am76yPQHctpsUhhvHOEwv4zftyo9rgU0F3TAKf6rfbrBgdDQWw,right,-1,0.5643,0.35,0,0.005032935,0.2012,47,0,47,0,1,,,,,,,,,,
,,679220,001,2023-07-23_21h54.18.703,arm3_q,2022.2.5,Win32,60.84575601,IwAR3i0Tne7Am76yPQHctpsUhhvHOEwv4zftyo9rgU0F3TAKf6rfbrBgdDQWw,right,-1,0.5643,0.35,0,0.010705806,0.1827,48,0,48,0,1,,,,,,,,,,
,,679220,001,2023-07-23_21h54.18.703,arm3_q,2022.2.5,Win32,60.84575601,IwAR3i0Tne7Am76yPQHctpsUhhvHOEwv4zftyo9rgU0F3TAKf6rfbrBgdDQWw,right,-1,0.5643,0.35,0,-0.011980762,0.2165,49,0,49,0,1,,,,,,,,,,
space,14.07,679220,001,2023-07-23_21h54.18.703,arm3_q,2022.2.5,Win32,60.84575601,IwAR3i0Tne7Am76yPQHctpsUhhvHOEwv4zftyo9rgU0F3TAKf6rfbrBgdDQWw,,,,,,,,,,,,,,,,,,,,,,
space,7.973,679220,001,2023-07-23_21h54.18.703,arm3_q,2022.2.5,Win32,60.84575601,IwAR3i0Tne7Am76yPQHctpsUhhvHOEwv4zftyo9rgU0F3TAKf6rfbrBgdDQWw,right,-1,0.95,0.35,0,-0.02657777,1.7495,,,,,,0,0,0,0,1,,,,,
,,679220,001,2023-07-23_21h54.18.703,arm3_q,2022.2.5,Win32,60.84575601,IwAR3i0Tne7Am76yPQHctpsUhhvHOEwv4zftyo9rgU0F3TAKf6rfbrBgdDQWw,right,-1,0.95,0.35,0,-0.031926004,0.4056,,,,,,1,0,1,0,1,,,,,
,,679220,001,2023-07-23_21h54.18.703,arm3_q,2022.2.5,Win32,60.84575601,IwAR3i0Tne7Am76yPQHctpsUhhvHOEwv4zftyo9rgU0F3TAKf6rfbrBgdDQWw,right,-1,0.95,0.35,0,-0.037174607,0.3835,,,,,,2,0,2,0,1,,,,,
,,679220,001,2023-07-23_21h54.18.703,arm3_q,2022.2.5,Win32,60.84575601,IwAR3i0Tne7Am76yPQHctpsUhhvHOEwv4zftyo9rgU0F3TAKf6rfbrBgdDQWw,right,-1,0.95,0.35,0,-0.044339211,0.3741,,,,,,3,0,3,0,1,,,,,
,,679220,001,2023-07-23_21h54.18.703,arm3_q,2022.2.5,Win32,60.84575601,IwAR3i0Tne7Am76yPQHctpsUhhvHOEwv4zftyo9rgU0F3TAKf6rfbrBgdDQWw,right,-1,0.95,0.35,0,-0.027269948,0.4162,,,,,,4,0,4,0,1,,,,,
,,679220,001,2023-07-23_21h54.18.703,arm3_q,2022.2.5,Win32,60.84575601,IwAR3i0Tne7Am76yPQHctpsUhhvHOEwv4zftyo9rgU0F3TAKf6rfbrBgdDQWw,right,-1,0.95,0.35,0,-0.001158443,0.4499,,,,,,5,0,5,0,1,,,,,
,,679220,001,2023-07-23_21h54.18.703,arm3_q,2022.2.5,Win32,60.84575601,IwAR3i0Tne7Am76yPQHctpsUhhvHOEwv4zftyo9rgU0F3TAKf6rfbrBgdDQWw,right,-1,0.95,0.35,0,-0.011517454,0.4078,,,,,,6,0,6,0,1,,,,,
,,679220,001,2023-07-23_21h54.18.703,arm3_q,2022.2.5,Win32,60.84575601,IwAR3i0Tne7Am76yPQHctpsUhhvHOEwv4zftyo9rgU0F3TAKf6rfbrBgdDQWw,right,-1,0.95,0.35,0,-0.020178933,0.4337,,,,,,7,0,7,0,1,,,,,
,,679220,001,2023-07-23_21h54.18.703,arm3_q,2022.2.5,Win32,60.84575601,IwAR3i0Tne7Am76yPQHctpsUhhvHOEwv4zftyo9rgU0F3TAKf6rfbrBgdDQWw,right,-1,0.95,0.35,0,-0.030170892,0.3501,,,,,,8,0,8,0,1,,,,,
,,679220,001,2023-07-23_21h54.18.703,arm3_q,2022.2.5,Win32,60.84575601,IwAR3i0Tne7Am76yPQHctpsUhhvHOEwv4zftyo9rgU0F3TAKf6rfbrBgdDQWw,right,-1,0.95,0.35,0,-0.048754037,0.3764,,,,,,9,0,9,0,1,,,,,
,,679220,001,2023-07-23_21h54.18.703,arm3_q,2022.2.5,Win32,60.84575601,IwAR3i0Tne7Am76yPQHctpsUhhvHOEwv4zftyo9rgU0F3TAKf6rfbrBgdDQWw,right,-1,0.95,0.35,0,-0.045674337,0.3998,,,,,,10,0,10,0,1,,,,,
,,679220,001,2023-07-23_21h54.18.703,arm3_q,2022.2.5,Win32,60.84575601,IwAR3i0Tne7Am76yPQHctpsUhhvHOEwv4zftyo9rgU0F3TAKf6rfbrBgdDQWw,right,-1,0.95,0.35,0,-0.068392863,0.4664,,,,,,11,0,11,0,1,,,,,
,,679220,001,2023-07-23_21h54.18.703,arm3_q,2022.2.5,Win32,60.84575601,IwAR3i0Tne7Am76yPQHctpsUhhvHOEwv4zftyo9rgU0F3TAKf6rfbrBgdDQWw,down,1,0.95,0.35,1,0,0.6498,,,,,,12,0,12,0,1,,,,,
,,679220,001,2023-07-23_21h54.18.703,arm3_q,2022.2.5,Win32,60.84575601,IwAR3i0Tne7Am76yPQHctpsUhhvHOEwv4zftyo9rgU0F3TAKf6rfbrBgdDQWw,right,1,0.95,0.35,1,-0.00207751,2.7317,,,,,,13,0,13,0,1,,,,,
,,679220,001,2023-07-23_21h54.18.703,arm3_q,2022.2.5,Win32,60.84575601,IwAR3i0Tne7Am76yPQHctpsUhhvHOEwv4zftyo9rgU0F3TAKf6rfbrBgdDQWw,right,1,0.95,0.35,1,0.038624762,0.3831,,,,,,14,0,14,0,1,,,,,
,,679220,001,2023-07-23_21h54.18.703,arm3_q,2022.2.5,Win32,60.84575601,IwAR3i0Tne7Am76yPQHctpsUhhvHOEwv4zftyo9rgU0F3TAKf6rfbrBgdDQWw,right,1,0.95,0.35,1,0.054137583,0.3163,,,,,,15,0,15,0,1,,,,,
,,679220,001,2023-07-23_21h54.18.703,arm3_q,2022.2.5,Win32,60.84575601,IwAR3i0Tne7Am76yPQHctpsUhhvHOEwv4zftyo9rgU0F3TAKf6rfbrBgdDQWw,right,1,0.95,0.35,1,0.060304529,0.2992,,,,,,16,0,16,0,1,,,,,
,,679220,001,2023-07-23_21h54.18.703,arm3_q,2022.2.5,Win32,60.84575601,IwAR3i0Tne7Am76yPQHctpsUhhvHOEwv4zftyo9rgU0F3TAKf6rfbrBgdDQWw,right,1,0.95,0.35,1,0.076080783,0.3384,,,,,,17,0,17,0,1,,,,,
,,679220,001,2023-07-23_21h54.18.703,arm3_q,2022.2.5,Win32,60.84575601,IwAR3i0Tne7Am76yPQHctpsUhhvHOEwv4zftyo9rgU0F3TAKf6rfbrBgdDQWw,right,1,0.95,0.35,1,0.048497914,0.467,,,,,,18,0,18,0,1,,,,,
,,679220,001,2023-07-23_21h54.18.703,arm3_q,2022.2.5,Win32,60.84575601,IwAR3i0Tne7Am76yPQHctpsUhhvHOEwv4zftyo9rgU0F3TAKf6rfbrBgdDQWw,right,1,0.95,0.35,1,0.046788185,0.3328,,,,,,19,0,19,0,1,,,,,
,,679220,001,2023-07-23_21h54.18.703,arm3_q,2022.2.5,Win32,60.84575601,IwAR3i0Tne7Am76yPQHctpsUhhvHOEwv4zftyo9rgU0F3TAKf6rfbrBgdDQWw,right,1,0.95,0.35,1,0.02853473,0.3832,,,,,,20,0,20,0,1,,,,,
,,679220,001,2023-07-23_21h54.18.703,arm3_q,2022.2.5,Win32,60.84575601,IwAR3i0Tne7Am76yPQHctpsUhhvHOEwv4zftyo9rgU0F3TAKf6rfbrBgdDQWw,right,1,0.95,0.35,1,0.026122061,0.4003,,,,,,21,0,21,0,1,,,,,
,,679220,001,2023-07-23_21h54.18.703,arm3_q,2022.2.5,Win32,60.84575601,IwAR3i0Tne7Am76yPQHctpsUhhvHOEwv4zftyo9rgU0F3TAKf6rfbrBgdDQWw,right,1,0.95,0.35,1,0.010474701,0.4826,,,,,,22,0,22,0,1,,,,,
,,679220,001,2023-07-23_21h54.18.703,arm3_q,2022.2.5,Win32,60.84575601,IwAR3i0Tne7Am76yPQHctpsUhhvHOEwv4zftyo9rgU0F3TAKf6rfbrBgdDQWw,up,1,0.95,0.35,2,0,0.9417,,,,,,23,0,23,0,1,,,,,
,,679220,001,2023-07-23_21h54.18.703,arm3_q,2022.2.5,Win32,60.84575601,IwAR3i0Tne7Am76yPQHctpsUhhvHOEwv4zftyo9rgU0F3TAKf6rfbrBgdDQWw,right,1,0.95,0.35,2,0.01779071,0.7402,,,,,,24,0,24,0,1,,,,,
,,679220,001,2023-07-23_21h54.18.703,arm3_q,2022.2.5,Win32,60.84575601,IwAR3i0Tne7Am76yPQHctpsUhhvHOEwv4zftyo9rgU0F3TAKf6rfbrBgdDQWw,right,1,0.95,0.35,2,0.001299935,0.223,,,,,,25,0,25,0,1,,,,,
,,679220,001,2023-07-23_21h54.18.703,arm3_q,2022.2.5,Win32,60.84575601,IwAR3i0Tne7Am76yPQHctpsUhhvHOEwv4zftyo9rgU0F3TAKf6rfbrBgdDQWw,right,1,0.95,0.35,2,0.00886519,0.1829,,,,,,26,0,26,0,1,,,,,
,,679220,001,2023-07-23_21h54.18.703,arm3_q,2022.2.5,Win32,60.84575601,IwAR3i0Tne7Am76yPQHctpsUhhvHOEwv4zftyo9rgU0F3TAKf6rfbrBgdDQWw,right,1,0.95,0.35,2,0.0098772,0.1999,,,,,,27,0,27,0,1,,,,,
,,679220,001,2023-07-23_21h54.18.703,arm3_q,2022.2.5,Win32,60.84575601,IwAR3i0Tne7Am76yPQHctpsUhhvHOEwv4zftyo9rgU0F3TAKf6rfbrBgdDQWw,right,1,0.95,0.35,2,0.043305794,0.2501,,,,,,28,0,28,0,1,,,,,
,,679220,001,2023-07-23_21h54.18.703,arm3_q,2022.2.5,Win32,60.84575601,IwAR3i0Tne7Am76yPQHctpsUhhvHOEwv4zftyo9rgU0F3TAKf6rfbrBgdDQWw,right,1,0.95,0.35,2,0.061931545,0.2671,,,,,,29,0,29,0,1,,,,,
,,679220,001,2023-07-23_21h54.18.703,arm3_q,2022.2.5,Win32,60.84575601,IwAR3i0Tne7Am76yPQHctpsUhhvHOEwv4zftyo9rgU0F3TAKf6rfbrBgdDQWw,up,1,0.95,0.35,3,0,0.4351,,,,,,30,0,30,0,1,,,,,
,,679220,001,2023-07-23_21h54.18.703,arm3_q,2022.2.5,Win32,60.84575601,IwAR3i0Tne7Am76yPQHctpsUhhvHOEwv4zftyo9rgU0F3TAKf6rfbrBgdDQWw,right,1,0.95,0.35,3,-0.000149234,0.4334,,,,,,31,0,31,0,1,,,,,
,,679220,001,2023-07-23_21h54.18.703,arm3_q,2022.2.5,Win32,60.84575601,IwAR3i0Tne7Am76yPQHctpsUhhvHOEwv4zftyo9rgU0F3TAKf6rfbrBgdDQWw,right,1,0.95,0.35,3,-0.012891192,0.2863,,,,,,32,0,32,0,1,,,,,
,,679220,001,2023-07-23_21h54.18.703,arm3_q,2022.2.5,Win32,60.84575601,IwAR3i0Tne7Am76yPQHctpsUhhvHOEwv4zftyo9rgU0F3TAKf6rfbrBgdDQWw,right,1,0.95,0.35,3,0.036943969,0.2163,,,,,,33,0,33,0,1,,,,,
,,679220,001,2023-07-23_21h54.18.703,arm3_q,2022.2.5,Win32,60.84575601,IwAR3i0Tne7Am76yPQHctpsUhhvHOEwv4zftyo9rgU0F3TAKf6rfbrBgdDQWw,right,1,0.95,0.35,3,0.080956319,0.2056,,,,,,34,0,34,0,1,,,,,
,,679220,001,2023-07-23_21h54.18.703,arm3_q,2022.2.5,Win32,60.84575601,IwAR3i0Tne7Am76yPQHctpsUhhvHOEwv4zftyo9rgU0F3TAKf6rfbrBgdDQWw,right,1,0.95,0.35,3,0.090696081,0.2163,,,,,,35,0,35,0,1,,,,,
,,679220,001,2023-07-23_21h54.18.703,arm3_q,2022.2.5,Win32,60.84575601,IwAR3i0Tne7Am76yPQHctpsUhhvHOEwv4zftyo9rgU0F3TAKf6rfbrBgdDQWw,up,1,0.95,0.35,4,0,0.4134,,,,,,36,0,36,0,1,,,,,
,,679220,001,2023-07-23_21h54.18.703,arm3_q,2022.2.5,Win32,60.84575601,IwAR3i0Tne7Am76yPQHctpsUhhvHOEwv4zftyo9rgU0F3TAKf6rfbrBgdDQWw,right,1,0.95,0.35,4,0.013444587,0.3099,,,,,,37,0,37,0,1,,,,,
,,679220,001,2023-07-23_21h54.18.703,arm3_q,2022.2.5,Win32,60.84575601,IwAR3i0Tne7Am76yPQHctpsUhhvHOEwv4zftyo9rgU0F3TAKf6rfbrBgdDQWw,right,1,0.95,0.35,4,0.033802312,0.2842,,,,,,38,0,38,0,1,,,,,
,,679220,001,2023-07-23_21h54.18.703,arm3_q,2022.2.5,Win32,60.84575601,IwAR3i0Tne7Am76yPQHctpsUhhvHOEwv4zftyo9rgU0F3TAKf6rfbrBgdDQWw,right,1,0.95,0.35,4,0.05051,0.1755,,,,,,39,0,39,0,1,,,,,
,,679220,001,2023-07-23_21h54.18.703,arm3_q,2022.2.5,Win32,60.84575601,IwAR3i0Tne7Am76yPQHctpsUhhvHOEwv4zftyo9rgU0F3TAKf6rfbrBgdDQWw,right,1,0.95,0.35,4,0.061939706,0.2161,,,,,,40,0,40,0,1,,,,,
,,679220,001,2023-07-23_21h54.18.703,arm3_q,2022.2.5,Win32,60.84575601,IwAR3i0Tne7Am76yPQHctpsUhhvHOEwv4zftyo9rgU0F3TAKf6rfbrBgdDQWw,right,1,0.95,0.35,4,0.050790645,0.2,,,,,,41,0,41,0,1,,,,,
,,679220,001,2023-07-23_21h54.18.703,arm3_q,2022.2.5,Win32,60.84575601,IwAR3i0Tne7Am76yPQHctpsUhhvHOEwv4zftyo9rgU0F3TAKf6rfbrBgdDQWw,right,1,0.95,0.35,4,0.079112984,0.2504,,,,,,42,0,42,0,1,,,,,
,,679220,001,2023-07-23_21h54.18.703,arm3_q,2022.2.5,Win32,60.84575601,IwAR3i0Tne7Am76yPQHctpsUhhvHOEwv4zftyo9rgU0F3TAKf6rfbrBgdDQWw,up,-1,0.95,0.35,5,0,0.4509,,,,,,43,0,43,0,1,,,,,
,,679220,001,2023-07-23_21h54.18.703,arm3_q,2022.2.5,Win32,60.84575601,IwAR3i0Tne7Am76yPQHctpsUhhvHOEwv4zftyo9rgU0F3TAKf6rfbrBgdDQWw,right,-1,0.95,0.35,5,0.007057071,0.1866,,,,,,44,0,44,0,1,,,,,
,,679220,001,2023-07-23_21h54.18.703,arm3_q,2022.2.5,Win32,60.84575601,IwAR3i0Tne7Am76yPQHctpsUhhvHOEwv4zftyo9rgU0F3TAKf6rfbrBgdDQWw,right,-1,0.95,0.35,5,-0.018710553,0.2665,,,,,,45,0,45,0,1,,,,,
,,679220,001,2023-07-23_21h54.18.703,arm3_q,2022.2.5,Win32,60.84575601,IwAR3i0Tne7Am76yPQHctpsUhhvHOEwv4zftyo9rgU0F3TAKf6rfbrBgdDQWw,right,-1,0.95,0.35,5,-0.013341663,0.19,,,,,,46,0,46,0,1,,,,,
,,679220,001,2023-07-23_21h54.18.703,arm3_q,2022.2.5,Win32,60.84575601,IwAR3i0Tne7Am76yPQHctpsUhhvHOEwv4zftyo9rgU0F3TAKf6rfbrBgdDQWw,right,-1,0.95,0.35,5,-0.036290341,0.2081,,,,,,47,0,47,0,1,,,,,
,,679220,001,2023-07-23_21h54.18.703,arm3_q,2022.2.5,Win32,60.84575601,IwAR3i0Tne7Am76yPQHctpsUhhvHOEwv4zftyo9rgU0F3TAKf6rfbrBgdDQWw,right,-1,0.95,0.35,5,-0.031582025,0.2168,,,,,,48,0,48,0,1,,,,,
,,679220,001,2023-07-23_21h54.18.703,arm3_q,2022.2.5,Win32,60.84575601,IwAR3i0Tne7Am76yPQHctpsUhhvHOEwv4zftyo9rgU0F3TAKf6rfbrBgdDQWw,right,-1,0.95,0.35,5,-0.02298993,0.2005,,,,,,49,0,49,0,1,,,,,
,,679220,001,2023-07-23_21h54.18.703,arm3_q,2022.2.5,Win32,60.84575601,IwAR3i0Tne7Am76yPQHctpsUhhvHOEwv4zftyo9rgU0F3TAKf6rfbrBgdDQWw,right,-1,0.95,0.35,5,-0.048328689,0.233,,,,,,50,0,50,0,1,,,,,
,,679220,001,2023-07-23_21h54.18.703,arm3_q,2022.2.5,Win32,60.84575601,IwAR3i0Tne7Am76yPQHctpsUhhvHOEwv4zftyo9rgU0F3TAKf6rfbrBgdDQWw,right,-1,0.95,0.35,5,-0.045827989,0.3007,,,,,,51,0,51,0,1,,,,,
,,679220,001,2023-07-23_21h54.18.703,arm3_q,2022.2.5,Win32,60.84575601,IwAR3i0Tne7Am76yPQHctpsUhhvHOEwv4zftyo9rgU0F3TAKf6rfbrBgdDQWw,down,1,0.95,0.35,6,0,0.3547,,,,,,52,0,52,0,1,,,,,
,,679220,001,2023-07-23_21h54.18.703,arm3_q,2022.2.5,Win32,60.84575601,IwAR3i0Tne7Am76yPQHctpsUhhvHOEwv4zftyo9rgU0F3TAKf6rfbrBgdDQWw,right,1,0.95,0.35,6,0.016208185,0.3211,,,,,,53,0,53,0,1,,,,,
,,679220,001,2023-07-23_21h54.18.703,arm3_q,2022.2.5,Win32,60.84575601,IwAR3i0Tne7Am76yPQHctpsUhhvHOEwv4zftyo9rgU0F3TAKf6rfbrBgdDQWw,right,1,0.95,0.35,6,0.01466714,0.2335,,,,,,54,0,54,0,1,,,,,
,,679220,001,2023-07-23_21h54.18.703,arm3_q,2022.2.5,Win32,60.84575601,IwAR3i0Tne7Am76yPQHctpsUhhvHOEwv4zftyo9rgU0F3TAKf6rfbrBgdDQWw,right,1,0.95,0.35,6,0.006832245,0.2004,,,,,,55,0,55,0,1,,,,,
,,679220,001,2023-07-23_21h54.18.703,arm3_q,2022.2.5,Win32,60.84575601,IwAR3i0Tne7Am76yPQHctpsUhhvHOEwv4zftyo9rgU0F3TAKf6rfbrBgdDQWw,right,1,0.95,0.35,6,0.007286649,0.1883,,,,,,56,0,56,0,1,,,,,
,,679220,001,2023-07-23_21h54.18.703,arm3_q,2022.2.5,Win32,60.84575601,IwAR3i0Tne7Am76yPQHctpsUhhvHOEwv4zftyo9rgU0F3TAKf6rfbrBgdDQWw,right,1,0.95,0.35,6,-0.00498433,0.1673,,,,,,57,0,57,0,1,,,,,
,,679220,001,2023-07-23_21h54.18.703,arm3_q,2022.2.5,Win32,60.84575601,IwAR3i0Tne7Am76yPQHctpsUhhvHOEwv4zftyo9rgU0F3TAKf6rfbrBgdDQWw,right,1,0.95,0.35,6,-0.008981089,0.2,,,,,,58,0,58,0,1,,,,,
,,679220,001,2023-07-23_21h54.18.703,arm3_q,2022.2.5,Win32,60.84575601,IwAR3i0Tne7Am76yPQHctpsUhhvHOEwv4zftyo9rgU0F3TAKf6rfbrBgdDQWw,right,1,0.95,0.35,6,-0.01692819,0.1994,,,,,,59,0,59,0,1,,,,,
,,679220,001,2023-07-23_21h54.18.703,arm3_q,2022.2.5,Win32,60.84575601,IwAR3i0Tne7Am76yPQHctpsUhhvHOEwv4zftyo9rgU0F3TAKf6rfbrBgdDQWw,right,1,0.95,0.35,6,0.020138635,0.1834,,,,,,60,0,60,0,1,,,,,
,,679220,001,2023-07-23_21h54.18.703,arm3_q,2022.2.5,Win32,60.84575601,IwAR3i0Tne7Am76yPQHctpsUhhvHOEwv4zftyo9rgU0F3TAKf6rfbrBgdDQWw,right,1,0.95,0.35,6,0.030376191,0.2995,,,,,,61,0,61,0,1,,,,,
,,679220,001,2023-07-23_21h54.18.703,arm3_q,2022.2.5,Win32,60.84575601,IwAR3i0Tne7Am76yPQHctpsUhhvHOEwv4zftyo9rgU0F3TAKf6rfbrBgdDQWw,right,1,0.95,0.35,6,0.024448918,0.5333,,,,,,62,0,62,0,1,,,,,
,,679220,001,2023-07-23_21h54.18.703,arm3_q,2022.2.5,Win32,60.84575601,IwAR3i0Tne7Am76yPQHctpsUhhvHOEwv4zftyo9rgU0F3TAKf6rfbrBgdDQWw,right,1,0.95,0.35,6,0.031189418,0.4001,,,,,,63,0,63,0,1,,,,,
,,679220,001,2023-07-23_21h54.18.703,arm3_q,2022.2.5,Win32,60.84575601,IwAR3i0Tne7Am76yPQHctpsUhhvHOEwv4zftyo9rgU0F3TAKf6rfbrBgdDQWw,up,1,0.95,0.35,7,0,0.383,,,,,,64,0,64,0,1,,,,,
,,679220,001,2023-07-23_21h54.18.703,arm3_q,2022.2.5,Win32,60.84575601,IwAR3i0Tne7Am76yPQHctpsUhhvHOEwv4zftyo9rgU0F3TAKf6rfbrBgdDQWw,right,1,0.95,0.35,7,0.009237788,0.4168,,,,,,65,0,65,0,1,,,,,
,,679220,001,2023-07-23_21h54.18.703,arm3_q,2022.2.5,Win32,60.84575601,IwAR3i0Tne7Am76yPQHctpsUhhvHOEwv4zftyo9rgU0F3TAKf6rfbrBgdDQWw,right,1,0.95,0.35,7,0.037946471,0.2002,,,,,,66,0,66,0,1,,,,,
,,679220,001,2023-07-23_21h54.18.703,arm3_q,2022.2.5,Win32,60.84575601,IwAR3i0Tne7Am76yPQHctpsUhhvHOEwv4zftyo9rgU0F3TAKf6rfbrBgdDQWw,right,1,0.95,0.35,7,0.068443943,0.1764,,,,,,67,0,67,0,1,,,,,
,,679220,001,2023-07-23_21h54.18.703,arm3_q,2022.2.5,Win32,60.84575601,IwAR3i0Tne7Am76yPQHctpsUhhvHOEwv4zftyo9rgU0F3TAKf6rfbrBgdDQWw,right,1,0.95,0.35,7,0.049735157,0.1827,,,,,,68,0,68,0,1,,,,,
,,679220,001,2023-07-23_21h54.18.703,arm3_q,2022.2.5,Win32,60.84575601,IwAR3i0Tne7Am76yPQHctpsUhhvHOEwv4zftyo9rgU0F3TAKf6rfbrBgdDQWw,right,1,0.95,0.35,7,0.072416113,0.3165,,,,,,69,0,69,0,1,,,,,
,,679220,001,2023-07-23_21h54.18.703,arm3_q,2022.2.5,Win32,60.84575601,IwAR3i0Tne7Am76yPQHctpsUhhvHOEwv4zftyo9rgU0F3TAKf6rfbrBgdDQWw,right,1,0.95,0.35,7,0.134397424,0.2668,,,,,,70,0,70,0,1,,,,,
,,679220,001,2023-07-23_21h54.18.703,arm3_q,2022.2.5,Win32,60.84575601,IwAR3i0Tne7Am76yPQHctpsUhhvHOEwv4zftyo9rgU0F3TAKf6rfbrBgdDQWw,up,-1,0.95,0.35,8,0,0.2835,,,,,,71,0,71,0,1,,,,,
,,679220,001,2023-07-23_21h54.18.703,arm3_q,2022.2.5,Win32,60.84575601,IwAR3i0Tne7Am76yPQHctpsUhhvHOEwv4zftyo9rgU0F3TAKf6rfbrBgdDQWw,right,-1,0.95,0.35,8,-0.002323119,0.2225,,,,,,72,0,72,0,1,,,,,
,,679220,001,2023-07-23_21h54.18.703,arm3_q,2022.2.5,Win32,60.84575601,IwAR3i0Tne7Am76yPQHctpsUhhvHOEwv4zftyo9rgU0F3TAKf6rfbrBgdDQWw,right,-1,0.95,0.35,8,0.014465102,0.2325,,,,,,73,0,73,0,1,,,,,
,,679220,001,2023-07-23_21h54.18.703,arm3_q,2022.2.5,Win32,60.84575601,IwAR3i0Tne7Am76yPQHctpsUhhvHOEwv4zftyo9rgU0F3TAKf6rfbrBgdDQWw,right,-1,0.95,0.35,8,-0.012389905,0.1839,,,,,,74,0,74,0,1,,,,,
,,679220,001,2023-07-23_21h54.18.703,arm3_q,2022.2.5,Win32,60.84575601,IwAR3i0Tne7Am76yPQHctpsUhhvHOEwv4zftyo9rgU0F3TAKf6rfbrBgdDQWw,right,-1,0.95,0.35,8,-0.038983566,0.2,,,,,,75,0,75,0,1,,,,,
,,679220,001,2023-07-23_21h54.18.703,arm3_q,2022.2.5,Win32,60.84575601,IwAR3i0Tne7Am76yPQHctpsUhhvHOEwv4zftyo9rgU0F3TAKf6rfbrBgdDQWw,right,-1,0.95,0.35,8,-0.054954705,0.1832,,,,,,76,0,76,0,1,,,,,
,,679220,001,2023-07-23_21h54.18.703,arm3_q,2022.2.5,Win32,60.84575601,IwAR3i0Tne7Am76yPQHctpsUhhvHOEwv4zftyo9rgU0F3TAKf6rfbrBgdDQWw,right,-1,0.95,0.35,8,-0.072950317,0.189,,,,,,77,0,77,0,1,,,,,
,,679220,001,2023-07-23_21h54.18.703,arm3_q,2022.2.5,Win32,60.84575601,IwAR3i0Tne7Am76yPQHctpsUhhvHOEwv4zftyo9rgU0F3TAKf6rfbrBgdDQWw,down,1,0.95,0.35,8,0,0.3329,,,,,,78,0,78,0,1,,,,,
,,679220,001,2023-07-23_21h54.18.703,arm3_q,2022.2.5,Win32,60.84575601,IwAR3i0Tne7Am76yPQHctpsUhhvHOEwv4zftyo9rgU0F3TAKf6rfbrBgdDQWw,right,1,0.95,0.35,8,0.022492805,0.6932,,,,,,79,0,79,0,1,,,,,
,,679220,001,2023-07-23_21h54.18.703,arm3_q,2022.2.5,Win32,60.84575601,IwAR3i0Tne7Am76yPQHctpsUhhvHOEwv4zftyo9rgU0F3TAKf6rfbrBgdDQWw,right,1,0.95,0.35,8,0.039495517,0.2161,,,,,,80,0,80,0,1,,,,,
,,679220,001,2023-07-23_21h54.18.703,arm3_q,2022.2.5,Win32,60.84575601,IwAR3i0Tne7Am76yPQHctpsUhhvHOEwv4zftyo9rgU0F3TAKf6rfbrBgdDQWw,right,1,0.95,0.35,8,0.037830493,0.2171,,,,,,81,0,81,0,1,,,,,
,,679220,001,2023-07-23_21h54.18.703,arm3_q,2022.2.5,Win32,60.84575601,IwAR3i0Tne7Am76yPQHctpsUhhvHOEwv4zftyo9rgU0F3TAKf6rfbrBgdDQWw,right,1,0.95,0.35,8,0.046668033,0.1715,,,,,,82,0,82,0,1,,,,,
,,679220,001,2023-07-23_21h54.18.703,arm3_q,2022.2.5,Win32,60.84575601,IwAR3i0Tne7Am76yPQHctpsUhhvHOEwv4zftyo9rgU0F3TAKf6rfbrBgdDQWw,right,1,0.95,0.35,8,0.061097501,0.1886,,,,,,83,0,83,0,1,,,,,
,,679220,001,2023-07-23_21h54.18.703,arm3_q,2022.2.5,Win32,60.84575601,IwAR3i0Tne7Am76yPQHctpsUhhvHOEwv4zftyo9rgU0F3TAKf6rfbrBgdDQWw,right,1,0.95,0.35,8,0.039222389,0.2329,,,,,,84,0,84,0,1,,,,,
,,679220,001,2023-07-23_21h54.18.703,arm3_q,2022.2.5,Win32,60.84575601,IwAR3i0Tne7Am76yPQHctpsUhhvHOEwv4zftyo9rgU0F3TAKf6rfbrBgdDQWw,right,1,0.95,0.35,8,0.060108647,0.2803,,,,,,85,0,85,0,1,,,,,
,,679220,001,2023-07-23_21h54.18.703,arm3_q,2022.2.5,Win32,60.84575601,IwAR3i0Tne7Am76yPQHctpsUhhvHOEwv4zftyo9rgU0F3TAKf6rfbrBgdDQWw,up,-1,0.95,0.35,9,0,0.3494,,,,,,86,0,86,0,1,,,,,
,,679220,001,2023-07-23_21h54.18.703,arm3_q,2022.2.5,Win32,60.84575601,IwAR3i0Tne7Am76yPQHctpsUhhvHOEwv4zftyo9rgU0F3TAKf6rfbrBgdDQWw,right,-1,0.95,0.35,9,0.005070641,0.2172,,,,,,87,0,87,0,1,,,,,
,,679220,001,2023-07-23_21h54.18.703,arm3_q,2022.2.5,Win32,60.84575601,IwAR3i0Tne7Am76yPQHctpsUhhvHOEwv4zftyo9rgU0F3TAKf6rfbrBgdDQWw,right,-1,0.95,0.35,9,0.01279138,0.25,,,,,,88,0,88,0,1,,,,,
,,679220,001,2023-07-23_21h54.18.703,arm3_q,2022.2.5,Win32,60.84575601,IwAR3i0Tne7Am76yPQHctpsUhhvHOEwv4zftyo9rgU0F3TAKf6rfbrBgdDQWw,right,-1,0.95,0.35,9,0.01956502,0.1831,,,,,,89,0,89,0,1,,,,,
,,679220,001,2023-07-23_21h54.18.703,arm3_q,2022.2.5,Win32,60.84575601,IwAR3i0Tne7Am76yPQHctpsUhhvHOEwv4zftyo9rgU0F3TAKf6rfbrBgdDQWw,right,-1,0.95,0.35,9,0.038930822,0.1664,,,,,,90,0,90,0,1,,,,,
,,679220,001,2023-07-23_21h54.18.703,arm3_q,2022.2.5,Win32,60.84575601,IwAR3i0Tne7Am76yPQHctpsUhhvHOEwv4zftyo9rgU0F3TAKf6rfbrBgdDQWw,right,-1,0.95,0.35,9,0.034735479,0.1713,,,,,,91,0,91,0,1,,,,,
,,679220,001,2023-07-23_21h54.18.703,arm3_q,2022.2.5,Win32,60.84575601,IwAR3i0Tne7Am76yPQHctpsUhhvHOEwv4zftyo9rgU0F3TAKf6rfbrBgdDQWw,right,-1,0.95,0.35,9,0.048248508,0.1838,,,,,,92,0,92,0,1,,,,,
,,679220,001,2023-07-23_21h54.18.703,arm3_q,2022.2.5,Win32,60.84575601,IwAR3i0Tne7Am76yPQHctpsUhhvHOEwv4zftyo9rgU0F3TAKf6rfbrBgdDQWw,right,-1,0.95,0.35,9,0.047566864,0.167,,,,,,93,0,93,0,1,,,,,
,,679220,001,2023-07-23_21h54.18.703,arm3_q,2022.2.5,Win32,60.84575601,IwAR3i0Tne7Am76yPQHctpsUhhvHOEwv4zftyo9rgU0F3TAKf6rfbrBgdDQWw,up,1,0.95,0.35,8,0,0.7839,,,,,,94,0,94,0,1,,,,,
,,679220,001,2023-07-23_21h54.18.703,arm3_q,2022.2.5,Win32,60.84575601,IwAR3i0Tne7Am76yPQHctpsUhhvHOEwv4zftyo9rgU0F3TAKf6rfbrBgdDQWw,right,1,0.95,0.35,8,0.020423094,0.4405,,,,,,95,0,95,0,1,,,,,
,,679220,001,2023-07-23_21h54.18.703,arm3_q,2022.2.5,Win32,60.84575601,IwAR3i0Tne7Am76yPQHctpsUhhvHOEwv4zftyo9rgU0F3TAKf6rfbrBgdDQWw,right,1,0.95,0.35,8,0.07688894,0.3834,,,,,,96,0,96,0,1,,,,,
,,679220,001,2023-07-23_21h54.18.703,arm3_q,2022.2.5,Win32,60.84575601,IwAR3i0Tne7Am76yPQHctpsUhhvHOEwv4zftyo9rgU0F3TAKf6rfbrBgdDQWw,right,1,0.95,0.35,8,0.073578026,0.2502,,,,,,97,0,97,0,1,,,,,
,,679220,001,2023-07-23_21h54.18.703,arm3_q,2022.2.5,Win32,60.84575601,IwAR3i0Tne7Am76yPQHctpsUhhvHOEwv4zftyo9rgU0F3TAKf6rfbrBgdDQWw,right,1,0.95,0.35,8,0.062427652,0.1501,,,,,,98,0,98,0,1,,,,,
,,679220,001,2023-07-23_21h54.18.703,arm3_q,2022.2.5,Win32,60.84575601,IwAR3i0Tne7Am76yPQHctpsUhhvHOEwv4zftyo9rgU0F3TAKf6rfbrBgdDQWw,right,1,0.95,0.35,8,0.101523193,0.183,,,,,,99,0,99,0,1,,,,,
,,679220,001,2023-07-23_21h54.18.703,arm3_q,2022.2.5,Win32,60.84575601,IwAR3i0Tne7Am76yPQHctpsUhhvHOEwv4zftyo9rgU0F3TAKf6rfbrBgdDQWw,right,1,0.95,0.35,8,0.103333955,0.2165,,,,,,100,0,100,0,1,,,,,
,,679220,001,2023-07-23_21h54.18.703,arm3_q,2022.2.5,Win32,60.84575601,IwAR3i0Tne7Am76yPQHctpsUhhvHOEwv4zftyo9rgU0F3TAKf6rfbrBgdDQWw,right,1,0.95,0.35,8,0.074642717,0.2558,,,,,,101,0,101,0,1,,,,,
,,679220,001,2023-07-23_21h54.18.703,arm3_q,2022.2.5,Win32,60.84575601,IwAR3i0Tne7Am76yPQHctpsUhhvHOEwv4zftyo9rgU0F3TAKf6rfbrBgdDQWw,right,1,0.95,0.35,8,0.085145136,0.5501,,,,,,102,0,102,0,1,,,,,
,,679220,001,2023-07-23_21h54.18.703,arm3_q,2022.2.5,Win32,60.84575601,IwAR3i0Tne7Am76yPQHctpsUhhvHOEwv4zftyo9rgU0F3TAKf6rfbrBgdDQWw,up,-1,0.95,0.35,9,0,0.367,,,,,,103,0,103,0,1,,,,,
,,679220,001,2023-07-23_21h54.18.703,arm3_q,2022.2.5,Win32,60.84575601,IwAR3i0Tne7Am76yPQHctpsUhhvHOEwv4zftyo9rgU0F3TAKf6rfbrBgdDQWw,right,-1,0.95,0.35,9,-0.001421057,0.3417,,,,,,104,0,104,0,1,,,,,
,,679220,001,2023-07-23_21h54.18.703,arm3_q,2022.2.5,Win32,60.84575601,IwAR3i0Tne7Am76yPQHctpsUhhvHOEwv4zftyo9rgU0F3TAKf6rfbrBgdDQWw,right,-1,0.95,0.35,9,0.029181242,0.2176,,,,,,105,0,105,0,1,,,,,
,,679220,001,2023-07-23_21h54.18.703,arm3_q,2022.2.5,Win32,60.84575601,IwAR3i0Tne7Am76yPQHctpsUhhvHOEwv4zftyo9rgU0F3TAKf6rfbrBgdDQWw,right,-1,0.95,0.35,9,0.034599625,0.1838,,,,,,106,0,106,0,1,,,,,
,,679220,001,2023-07-23_21h54.18.703,arm3_q,2022.2.5,Win32,60.84575601,IwAR3i0Tne7Am76yPQHctpsUhhvHOEwv4zftyo9rgU0F3TAKf6rfbrBgdDQWw,right,-1,0.95,0.35,9,0.023642461,0.1759,,,,,,107,0,107,0,1,,,,,
,,679220,001,2023-07-23_21h54.18.703,arm3_q,2022.2.5,Win32,60.84575601,IwAR3i0Tne7Am76yPQHctpsUhhvHOEwv4zftyo9rgU0F3TAKf6rfbrBgdDQWw,right,-1,0.95,0.35,9,-0.016918669,0.1748,,,,,,108,0,108,0,1,,,,,
,,679220,001,2023-07-23_21h54.18.703,arm3_q,2022.2.5,Win32,60.84575601,IwAR3i0Tne7Am76yPQHctpsUhhvHOEwv4zftyo9rgU0F3TAKf6rfbrBgdDQWw,right,-1,0.95,0.35,9,-0.048127043,0.1836,,,,,,109,0,109,0,1,,,,,
,,679220,001,2023-07-23_21h54.18.703,arm3_q,2022.2.5,Win32,60.84575601,IwAR3i0Tne7Am76yPQHctpsUhhvHOEwv4zftyo9rgU0F3TAKf6rfbrBgdDQWw,right,-1,0.95,0.35,9,-0.071571631,0.3335,,,,,,110,0,110,0,1,,,,,
,,679220,001,2023-07-23_21h54.18.703,arm3_q,2022.2.5,Win32,60.84575601,IwAR3i0Tne7Am76yPQHctpsUhhvHOEwv4zftyo9rgU0F3TAKf6rfbrBgdDQWw,down,1,0.95,0.35,10,0,0.3704,,,,,,111,0,111,0,1,,,,,
,,679220,001,2023-07-23_21h54.18.703,arm3_q,2022.2.5,Win32,60.84575601,IwAR3i0Tne7Am76yPQHctpsUhhvHOEwv4zftyo9rgU0F3TAKf6rfbrBgdDQWw,right,1,0.95,0.35,10,0.004995311,0.2708,,,,,,112,0,112,0,1,,,,,
,,679220,001,2023-07-23_21h54.18.703,arm3_q,2022.2.5,Win32,60.84575601,IwAR3i0Tne7Am76yPQHctpsUhhvHOEwv4zftyo9rgU0F3TAKf6rfbrBgdDQWw,right,1,0.95,0.35,10,0.051934053,0.1918,,,,,,113,0,113,0,1,,,,,
,,679220,001,2023-07-23_21h54.18.703,arm3_q,2022.2.5,Win32,60.84575601,IwAR3i0Tne7Am76yPQHctpsUhhvHOEwv4zftyo9rgU0F3TAKf6rfbrBgdDQWw,right,1,0.95,0.35,10,0.059557946,0.2053,,,,,,114,0,114,0,1,,,,,
,,679220,001,2023-07-23_21h54.18.703,arm3_q,2022.2.5,Win32,60.84575601,IwAR3i0Tne7Am76yPQHctpsUhhvHOEwv4zftyo9rgU0F3TAKf6rfbrBgdDQWw,right,1,0.95,0.35,10,0.06944488,0.171,,,,,,115,0,115,0,1,,,,,
,,679220,001,2023-07-23_21h54.18.703,arm3_q,2022.2.5,Win32,60.84575601,IwAR3i0Tne7Am76yPQHctpsUhhvHOEwv4zftyo9rgU0F3TAKf6rfbrBgdDQWw,right,1,0.95,0.35,10,0.066275676,0.2047,,,,,,116,0,116,0,1,,,,,
,,679220,001,2023-07-23_21h54.18.703,arm3_q,2022.2.5,Win32,60.84575601,IwAR3i0Tne7Am76yPQHctpsUhhvHOEwv4zftyo9rgU0F3TAKf6rfbrBgdDQWw,right,1,0.95,0.35,10,0.064601092,0.2074,,,,,,117,0,117,0,1,,,,,
,,679220,001,2023-07-23_21h54.18.703,arm3_q,2022.2.5,Win32,60.84575601,IwAR3i0Tne7Am76yPQHctpsUhhvHOEwv4zftyo9rgU0F3TAKf6rfbrBgdDQWw,right,1,0.95,0.35,10,0.04268052,0.4177,,,,,,118,0,118,0,1,,,,,
,,679220,001,2023-07-23_21h54.18.703,arm3_q,2022.2.5,Win32,60.84575601,IwAR3i0Tne7Am76yPQHctpsUhhvHOEwv4zftyo9rgU0F3TAKf6rfbrBgdDQWw,right,1,0.95,0.35,10,0.054073648,1.1151,,,,,,119,0,119,0,1,,,,,
,,679220,001,2023-07-23_21h54.18.703,arm3_q,2022.2.5,Win32,60.84575601,IwAR3i0Tne7Am76yPQHctpsUhhvHOEwv4zftyo9rgU0F3TAKf6rfbrBgdDQWw,right,1,0.95,0.35,10,0.025252986,0.6208,,,,,,120,0,120,0,1,,,,,
,,679220,001,2023-07-23_21h54.18.703,arm3_q,2022.2.5,Win32,60.84575601,IwAR3i0Tne7Am76yPQHctpsUhhvHOEwv4zftyo9rgU0F3TAKf6rfbrBgdDQWw,right,1,0.95,0.35,10,0.049225198,0.4885,,,,,,121,0,121,0,1,,,,,
,,679220,001,2023-07-23_21h54.18.703,arm3_q,2022.2.5,Win32,60.84575601,IwAR3i0Tne7Am76yPQHctpsUhhvHOEwv4zftyo9rgU0F3TAKf6rfbrBgdDQWw,right,1,0.95,0.35,10,0.038196346,0.6503,,,,,,122,0,122,0,1,,,,,
,,679220,001,2023-07-23_21h54.18.703,arm3_q,2022.2.5,Win32,60.84575601,IwAR3i0Tne7Am76yPQHctpsUhhvHOEwv4zftyo9rgU0F3TAKf6rfbrBgdDQWw,up,1,0.95,0.35,11,0,0.5567,,,,,,123,0,123,0,1,,,,,
,,679220,001,2023-07-23_21h54.18.703,arm3_q,2022.2.5,Win32,60.84575601,IwAR3i0Tne7Am76yPQHctpsUhhvHOEwv4zftyo9rgU0F3TAKf6rfbrBgdDQWw,right,1,0.95,0.35,11,0.003767377,0.6174,,,,,,124,0,124,0,1,,,,,
,,679220,001,2023-07-23_21h54.18.703,arm3_q,2022.2.5,Win32,60.84575601,IwAR3i0Tne7Am76yPQHctpsUhhvHOEwv4zftyo9rgU0F3TAKf6rfbrBgdDQWw,right,1,0.95,0.35,11,0.00794056,0.2104,,,,,,125,0,125,0,1,,,,,
,,679220,001,2023-07-23_21h54.18.703,arm3_q,2022.2.5,Win32,60.84575601,IwAR3i0Tne7Am76yPQHctpsUhhvHOEwv4zftyo9rgU0F3TAKf6rfbrBgdDQWw,right,1,0.95,0.35,11,-0.009657831,0.1834,,,,,,126,0,126,0,1,,,,,
,,679220,001,2023-07-23_21h54.18.703,arm3_q,2022.2.5,Win32,60.84575601,IwAR3i0Tne7Am76yPQHctpsUhhvHOEwv4zftyo9rgU0F3TAKf6rfbrBgdDQWw,right,1,0.95,0.35,11,0.0481897,0.173,,,,,,127,0,127,0,1,,,,,
,,679220,001,2023-07-23_21h54.18.703,arm3_q,2022.2.5,Win32,60.84575601,IwAR3i0Tne7Am76yPQHctpsUhhvHOEwv4zftyo9rgU0F3TAKf6rfbrBgdDQWw,right,1,0.95,0.35,11,0.072271198,0.2001,,,,,,128,0,128,0,1,,,,,
,,679220,001,2023-07-23_21h54.18.703,arm3_q,2022.2.5,Win32,60.84575601,IwAR3i0Tne7Am76yPQHctpsUhhvHOEwv4zftyo9rgU0F3TAKf6rfbrBgdDQWw,up,-1,0.95,0.35,12,0,0.6493,,,,,,129,0,129,0,1,,,,,
,,679220,001,2023-07-23_21h54.18.703,arm3_q,2022.2.5,Win32,60.84575601,IwAR3i0Tne7Am76yPQHctpsUhhvHOEwv4zftyo9rgU0F3TAKf6rfbrBgdDQWw,right,-1,0.95,0.35,12,-0.016698927,0.3402,,,,,,130,0,130,0,1,,,,,
,,679220,001,2023-07-23_21h54.18.703,arm3_q,2022.2.5,Win32,60.84575601,IwAR3i0Tne7Am76yPQHctpsUhhvHOEwv4zftyo9rgU0F3TAKf6rfbrBgdDQWw,right,-1,0.95,0.35,12,-0.014972098,0.2724,,,,,,131,0,131,0,1,,,,,
,,679220,001,2023-07-23_21h54.18.703,arm3_q,2022.2.5,Win32,60.84575601,IwAR3i0Tne7Am76yPQHctpsUhhvHOEwv4zftyo9rgU0F3TAKf6rfbrBgdDQWw,right,-1,0.95,0.35,12,-0.033488769,0.1503,,,,,,132,0,132,0,1,,,,,
,,679220,001,2023-07-23_21h54.18.703,arm3_q,2022.2.5,Win32,60.84575601,IwAR3i0Tne7Am76yPQHctpsUhhvHOEwv4zftyo9rgU0F3TAKf6rfbrBgdDQWw,right,-1,0.95,0.35,12,-0.016940395,0.2006,,,,,,133,0,133,0,1,,,,,
,,679220,001,2023-07-23_21h54.18.703,arm3_q,2022.2.5,Win32,60.84575601,IwAR3i0Tne7Am76yPQHctpsUhhvHOEwv4zftyo9rgU0F3TAKf6rfbrBgdDQWw,right,-1,0.95,0.35,12,-0.026663851,0.2371,,,,,,134,0,134,0,1,,,,,
,,679220,001,2023-07-23_21h54.18.703,arm3_q,2022.2.5,Win32,60.84575601,IwAR3i0Tne7Am76yPQHctpsUhhvHOEwv4zftyo9rgU0F3TAKf6rfbrBgdDQWw,right,-1,0.95,0.35,12,-0.053681557,0.2045,,,,,,135,0,135,0,1,,,,,
,,679220,001,2023-07-23_21h54.18.703,arm3_q,2022.2.5,Win32,60.84575601,IwAR3i0Tne7Am76yPQHctpsUhhvHOEwv4zftyo9rgU0F3TAKf6rfbrBgdDQWw,right,-1,0.95,0.35,12,-0.061282376,0.2934,,,,,,136,0,136,0,1,,,,,
,,679220,001,2023-07-23_21h54.18.703,arm3_q,2022.2.5,Win32,60.84575601,IwAR3i0Tne7Am76yPQHctpsUhhvHOEwv4zftyo9rgU0F3TAKf6rfbrBgdDQWw,right,-1,0.95,0.35,12,-0.098016961,0.2666,,,,,,137,0,137,0,1,,,,,
,,679220,001,2023-07-23_21h54.18.703,arm3_q,2022.2.5,Win32,60.84575601,IwAR3i0Tne7Am76yPQHctpsUhhvHOEwv4zftyo9rgU0F3TAKf6rfbrBgdDQWw,down,-1,0.95,0.35,12,0,0.2686,,,,,,138,0,138,0,1,,,,,
,,679220,001,2023-07-23_21h54.18.703,arm3_q,2022.2.5,Win32,60.84575601,IwAR3i0Tne7Am76yPQHctpsUhhvHOEwv4zftyo9rgU0F3TAKf6rfbrBgdDQWw,right,-1,0.95,0.35,12,-0.000854991,0.2714,,,,,,139,0,139,0,1,,,,,
,,679220,001,2023-07-23_21h54.18.703,arm3_q,2022.2.5,Win32,60.84575601,IwAR3i0Tne7Am76yPQHctpsUhhvHOEwv4zftyo9rgU0F3TAKf6rfbrBgdDQWw,right,-1,0.95,0.35,12,-0.009538728,0.184,,,,,,140,0,140,0,1,,,,,
,,679220,001,2023-07-23_21h54.18.703,arm3_q,2022.2.5,Win32,60.84575601,IwAR3i0Tne7Am76yPQHctpsUhhvHOEwv4zftyo9rgU0F3TAKf6rfbrBgdDQWw,right,-1,0.95,0.35,12,0.027267994,0.189,,,,,,141,0,141,0,1,,,,,
,,679220,001,2023-07-23_21h54.18.703,arm3_q,2022.2.5,Win32,60.84575601,IwAR3i0Tne7Am76yPQHctpsUhhvHOEwv4zftyo9rgU0F3TAKf6rfbrBgdDQWw,right,-1,0.95,0.35,12,0.045212022,0.2057,,,,,,142,0,142,0,1,,,,,
,,679220,001,2023-07-23_21h54.18.703,arm3_q,2022.2.5,Win32,60.84575601,IwAR3i0Tne7Am76yPQHctpsUhhvHOEwv4zftyo9rgU0F3TAKf6rfbrBgdDQWw,right,-1,0.95,0.35,12,0.015642999,0.1997,,,,,,143,0,143,0,1,,,,,
,,679220,001,2023-07-23_21h54.18.703,arm3_q,2022.2.5,Win32,60.84575601,IwAR3i0Tne7Am76yPQHctpsUhhvHOEwv4zftyo9rgU0F3TAKf6rfbrBgdDQWw,right,-1,0.95,0.35,12,-0.022606533,0.1832,,,,,,144,0,144,0,1,,,,,
,,679220,001,2023-07-23_21h54.18.703,arm3_q,2022.2.5,Win32,60.84575601,IwAR3i0Tne7Am76yPQHctpsUhhvHOEwv4zftyo9rgU0F3TAKf6rfbrBgdDQWw,right,-1,0.95,0.35,12,-0.017170646,0.2163,,,,,,145,0,145,0,1,,,,,
,,679220,001,2023-07-23_21h54.18.703,arm3_q,2022.2.5,Win32,60.84575601,IwAR3i0Tne7Am76yPQHctpsUhhvHOEwv4zftyo9rgU0F3TAKf6rfbrBgdDQWw,right,-1,0.95,0.35,12,-0.037470523,0.2174,,,,,,146,0,146,0,1,,,,,
,,679220,001,2023-07-23_21h54.18.703,arm3_q,2022.2.5,Win32,60.84575601,IwAR3i0Tne7Am76yPQHctpsUhhvHOEwv4zftyo9rgU0F3TAKf6rfbrBgdDQWw,right,-1,0.95,0.35,12,-0.054962294,0.1896,,,,,,147,0,147,0,1,,,,,
,,679220,001,2023-07-23_21h54.18.703,arm3_q,2022.2.5,Win32,60.84575601,IwAR3i0Tne7Am76yPQHctpsUhhvHOEwv4zftyo9rgU0F3TAKf6rfbrBgdDQWw,right,-1,0.95,0.35,12,-0.071129083,0.1998,,,,,,148,0,148,0,1,,,,,
,,679220,001,2023-07-23_21h54.18.703,arm3_q,2022.2.5,Win32,60.84575601,IwAR3i0Tne7Am76yPQHctpsUhhvHOEwv4zftyo9rgU0F3TAKf6rfbrBgdDQWw,right,-1,0.95,0.35,12,-0.075147377,0.1835,,,,,,149,0,149,0,1,,,,,
,,679220,001,2023-07-23_21h54.18.703,arm3_q,2022.2.5,Win32,60.84575601,IwAR3i0Tne7Am76yPQHctpsUhhvHOEwv4zftyo9rgU0F3TAKf6rfbrBgdDQWw,down,-1,0.95,0.35,13,0,0.383,,,,,,150,0,150,0,1,,,,,
,,679220,001,2023-07-23_21h54.18.703,arm3_q,2022.2.5,Win32,60.84575601,IwAR3i0Tne7Am76yPQHctpsUhhvHOEwv4zftyo9rgU0F3TAKf6rfbrBgdDQWw,right,-1,0.95,0.35,13,-0.031954162,0.5661,,,,,,151,0,151,0,1,,,,,
,,679220,001,2023-07-23_21h54.18.703,arm3_q,2022.2.5,Win32,60.84575601,IwAR3i0Tne7Am76yPQHctpsUhhvHOEwv4zftyo9rgU0F3TAKf6rfbrBgdDQWw,right,-1,0.95,0.35,13,-0.054942617,0.2668,,,,,,152,0,152,0,1,,,,,
,,679220,001,2023-07-23_21h54.18.703,arm3_q,2022.2.5,Win32,60.84575601,IwAR3i0Tne7Am76yPQHctpsUhhvHOEwv4zftyo9rgU0F3TAKf6rfbrBgdDQWw,right,-1,0.95,0.35,13,-0.048588067,0.167,,,,,,153,0,153,0,1,,,,,
,,679220,001,2023-07-23_21h54.18.703,arm3_q,2022.2.5,Win32,60.84575601,IwAR3i0Tne7Am76yPQHctpsUhhvHOEwv4zftyo9rgU0F3TAKf6rfbrBgdDQWw,right,-1,0.95,0.35,13,-0.067207239,0.2,,,,,,154,0,154,0,1,,,,,
,,679220,001,2023-07-23_21h54.18.703,arm3_q,2022.2.5,Win32,60.84575601,IwAR3i0Tne7Am76yPQHctpsUhhvHOEwv4zftyo9rgU0F3TAKf6rfbrBgdDQWw,right,-1,0.95,0.35,13,-0.088929142,0.2,,,,,,155,0,155,0,1,,,,,
,,679220,001,2023-07-23_21h54.18.703,arm3_q,2022.2.5,Win32,60.84575601,IwAR3i0Tne7Am76yPQHctpsUhhvHOEwv4zftyo9rgU0F3TAKf6rfbrBgdDQWw,right,-1,0.95,0.35,13,-0.123692867,0.2162,,,,,,156,0,156,0,1,,,,,
,,679220,001,2023-07-23_21h54.18.703,arm3_q,2022.2.5,Win32,60.84575601,IwAR3i0Tne7Am76yPQHctpsUhhvHOEwv4zftyo9rgU0F3TAKf6rfbrBgdDQWw,right,-1,0.95,0.35,13,-0.103844228,0.2345,,,,,,157,0,157,0,1,,,,,
,,679220,001,2023-07-23_21h54.18.703,arm3_q,2022.2.5,Win32,60.84575601,IwAR3i0Tne7Am76yPQHctpsUhhvHOEwv4zftyo9rgU0F3TAKf6rfbrBgdDQWw,down,-1,0.95,0.35,14,0,0.5333,,,,,,158,0,158,0,1,,,,,
,,679220,001,2023-07-23_21h54.18.703,arm3_q,2022.2.5,Win32,60.84575601,IwAR3i0Tne7Am76yPQHctpsUhhvHOEwv4zftyo9rgU0F3TAKf6rfbrBgdDQWw,right,-1,0.95,0.35,14,0.013270817,0.4165,,,,,,159,0,159,0,1,,,,,
,,679220,001,2023-07-23_21h54.18.703,arm3_q,2022.2.5,Win32,60.84575601,IwAR3i0Tne7Am76yPQHctpsUhhvHOEwv4zftyo9rgU0F3TAKf6rfbrBgdDQWw,right,-1,0.95,0.35,14,-0.013928681,0.2517,,,,,,160,0,160,0,1,,,,,
,,679220,001,2023-07-23_21h54.18.703,arm3_q,2022.2.5,Win32,60.84575601,IwAR3i0Tne7Am76yPQHctpsUhhvHOEwv4zftyo9rgU0F3TAKf6rfbrBgdDQWw,right,-1,0.95,0.35,14,-0.025748036,0.2168,,,,,,161,0,161,0,1,,,,,
,,679220,001,2023-07-23_21h54.18.703,arm3_q,2022.2.5,Win32,60.84575601,IwAR3i0Tne7Am76yPQHctpsUhhvHOEwv4zftyo9rgU0F3TAKf6rfbrBgdDQWw,right,-1,0.95,0.35,14,-0.052943451,0.2004,,,,,,162,0,162,0,1,,,,,
,,679220,001,2023-07-23_21h54.18.703,arm3_q,2022.2.5,Win32,60.84575601,IwAR3i0Tne7Am76yPQHctpsUhhvHOEwv4zftyo9rgU0F3TAKf6rfbrBgdDQWw,right,-1,0.95,0.35,14,-0.061823067,0.2334,,,,,,163,0,163,0,1,,,,,
,,679220,001,2023-07-23_21h54.18.703,arm3_q,2022.2.5,Win32,60.84575601,IwAR3i0Tne7Am76yPQHctpsUhhvHOEwv4zftyo9rgU0F3TAKf6rfbrBgdDQWw,right,-1,0.95,0.35,14,-0.048769779,0.1768,,,,,,164,0,164,0,1,,,,,
,,679220,001,2023-07-23_21h54.18.703,arm3_q,2022.2.5,Win32,60.84575601,IwAR3i0Tne7Am76yPQHctpsUhhvHOEwv4zftyo9rgU0F3TAKf6rfbrBgdDQWw,right,-1,0.95,0.35,14,-0.042852246,0.1868,,,,,,165,0,165,0,1,,,,,
,,679220,001,2023-07-23_21h54.18.703,arm3_q,2022.2.5,Win32,60.84575601,IwAR3i0Tne7Am76yPQHctpsUhhvHOEwv4zftyo9rgU0F3TAKf6rfbrBgdDQWw,right,-1,0.95,0.35,14,-0.034471468,0.483,,,,,,166,0,166,0,1,,,,,
,,679220,001,2023-07-23_21h54.18.703,arm3_q,2022.2.5,Win32,60.84575601,IwAR3i0Tne7Am76yPQHctpsUhhvHOEwv4zftyo9rgU0F3TAKf6rfbrBgdDQWw,right,-1,0.95,0.35,14,-0.044281766,0.393,,,,,,167,0,167,0,1,,,,,
,,679220,001,2023-07-23_21h54.18.703,arm3_q,2022.2.5,Win32,60.84575601,IwAR3i0Tne7Am76yPQHctpsUhhvHOEwv4zftyo9rgU0F3TAKf6rfbrBgdDQWw,down,1,0.95,0.35,15,0,0.7992,,,,,,168,0,168,0,1,,,,,
,,679220,001,2023-07-23_21h54.18.703,arm3_q,2022.2.5,Win32,60.84575601,IwAR3i0Tne7Am76yPQHctpsUhhvHOEwv4zftyo9rgU0F3TAKf6rfbrBgdDQWw,right,1,0.95,0.35,15,-0.017523684,0.4507,,,,,,169,0,169,0,1,,,,,
,,679220,001,2023-07-23_21h54.18.703,arm3_q,2022.2.5,Win32,60.84575601,IwAR3i0Tne7Am76yPQHctpsUhhvHOEwv4zftyo9rgU0F3TAKf6rfbrBgdDQWw,right,1,0.95,0.35,15,0.024023602,0.2005,,,,,,170,0,170,0,1,,,,,
,,679220,001,2023-07-23_21h54.18.703,arm3_q,2022.2.5,Win32,60.84575601,IwAR3i0Tne7Am76yPQHctpsUhhvHOEwv4zftyo9rgU0F3TAKf6rfbrBgdDQWw,right,1,0.95,0.35,15,0.030464281,0.1846,,,,,,171,0,171,0,1,,,,,
,,679220,001,2023-07-23_21h54.18.703,arm3_q,2022.2.5,Win32,60.84575601,IwAR3i0Tne7Am76yPQHctpsUhhvHOEwv4zftyo9rgU0F3TAKf6rfbrBgdDQWw,right,1,0.95,0.35,15,0.032726497,0.1999,,,,,,172,0,172,0,1,,,,,
,,679220,001,2023-07-23_21h54.18.703,arm3_q,2022.2.5,Win32,60.84575601,IwAR3i0Tne7Am76yPQHctpsUhhvHOEwv4zftyo9rgU0F3TAKf6rfbrBgdDQWw,right,1,0.95,0.35,15,0.000836875,0.1847,,,,,,173,0,173,0,1,,,,,
,,679220,001,2023-07-23_21h54.18.703,arm3_q,2022.2.5,Win32,60.84575601,IwAR3i0Tne7Am76yPQHctpsUhhvHOEwv4zftyo9rgU0F3TAKf6rfbrBgdDQWw,right,1,0.95,0.35,15,0.011498045,0.1833,,,,,,174,0,174,0,1,,,,,
,,679220,001,2023-07-23_21h54.18.703,arm3_q,2022.2.5,Win32,60.84575601,IwAR3i0Tne7Am76yPQHctpsUhhvHOEwv4zftyo9rgU0F3TAKf6rfbrBgdDQWw,right,1,0.95,0.35,15,0.043938464,0.2004,,,,,,175,0,175,0,1,,,,,
,,679220,001,2023-07-23_21h54.18.703,arm3_q,2022.2.5,Win32,60.84575601,IwAR3i0Tne7Am76yPQHctpsUhhvHOEwv4zftyo9rgU0F3TAKf6rfbrBgdDQWw,right,1,0.95,0.35,15,0.075041087,0.1936,,,,,,176,0,176,0,1,,,,,
,,679220,001,2023-07-23_21h54.18.703,arm3_q,2022.2.5,Win32,60.84575601,IwAR3i0Tne7Am76yPQHctpsUhhvHOEwv4zftyo9rgU0F3TAKf6rfbrBgdDQWw,up,1,0.95,0.35,16,0,0.7342,,,,,,177,0,177,0,1,,,,,
,,679220,001,2023-07-23_21h54.18.703,arm3_q,2022.2.5,Win32,60.84575601,IwAR3i0Tne7Am76yPQHctpsUhhvHOEwv4zftyo9rgU0F3TAKf6rfbrBgdDQWw,right,1,0.95,0.35,16,0.017504125,0.3201,,,,,,178,0,178,0,1,,,,,
,,679220,001,2023-07-23_21h54.18.703,arm3_q,2022.2.5,Win32,60.84575601,IwAR3i0Tne7Am76yPQHctpsUhhvHOEwv4zftyo9rgU0F3TAKf6rfbrBgdDQWw,right,1,0.95,0.35,16,0.019655887,0.1895,,,,,,179,0,179,0,1,,,,,
,,679220,001,2023-07-23_21h54.18.703,arm3_q,2022.2.5,Win32,60.84575601,IwAR3i0Tne7Am76yPQHctpsUhhvHOEwv4zftyo9rgU0F3TAKf6rfbrBgdDQWw,right,1,0.95,0.35,16,-0.017846348,0.1833,,,,,,180,0,180,0,1,,,,,
,,679220,001,2023-07-23_21h54.18.703,arm3_q,2022.2.5,Win32,60.84575601,IwAR3i0Tne7Am76yPQHctpsUhhvHOEwv4zftyo9rgU0F3TAKf6rfbrBgdDQWw,right,1,0.95,0.35,16,-0.032642996,0.199,,,,,,181,0,181,0,1,,,,,
,,679220,001,2023-07-23_21h54.18.703,arm3_q,2022.2.5,Win32,60.84575601,IwAR3i0Tne7Am76yPQHctpsUhhvHOEwv4zftyo9rgU0F3TAKf6rfbrBgdDQWw,right,1,0.95,0.35,16,-0.019296937,0.1843,,,,,,182,0,182,0,1,,,,,
,,679220,001,2023-07-23_21h54.18.703,arm3_q,2022.2.5,Win32,60.84575601,IwAR3i0Tne7Am76yPQHctpsUhhvHOEwv4zftyo9rgU0F3TAKf6rfbrBgdDQWw,right,1,0.95,0.35,16,-0.002442551,0.1836,,,,,,183,0,183,0,1,,,,,
,,679220,001,2023-07-23_21h54.18.703,arm3_q,2022.2.5,Win32,60.84575601,IwAR3i0Tne7Am76yPQHctpsUhhvHOEwv4zftyo9rgU0F3TAKf6rfbrBgdDQWw,right,1,0.95,0.35,16,-0.008822394,0.2172,,,,,,184,0,184,0,1,,,,,
,,679220,001,2023-07-23_21h54.18.703,arm3_q,2022.2.5,Win32,60.84575601,IwAR3i0Tne7Am76yPQHctpsUhhvHOEwv4zftyo9rgU0F3TAKf6rfbrBgdDQWw,right,1,0.95,0.35,16,0.024703796,0.3665,,,,,,185,0,185,0,1,,,,,
,,679220,001,2023-07-23_21h54.18.703,arm3_q,2022.2.5,Win32,60.84575601,IwAR3i0Tne7Am76yPQHctpsUhhvHOEwv4zftyo9rgU0F3TAKf6rfbrBgdDQWw,right,1,0.95,0.35,16,0.02925611,0.3498,,,,,,186,0,186,0,1,,,,,
,,679220,001,2023-07-23_21h54.18.703,arm3_q,2022.2.5,Win32,60.84575601,IwAR3i0Tne7Am76yPQHctpsUhhvHOEwv4zftyo9rgU0F3TAKf6rfbrBgdDQWw,up,1,0.95,0.35,17,0,0.583,,,,,,187,0,187,0,1,,,,,
,,679220,001,2023-07-23_21h54.18.703,arm3_q,2022.2.5,Win32,60.84575601,IwAR3i0Tne7Am76yPQHctpsUhhvHOEwv4zftyo9rgU0F3TAKf6rfbrBgdDQWw,right,1,0.95,0.35,17,0.026073297,0.2138,,,,,,188,0,188,0,1,,,,,
,,679220,001,2023-07-23_21h54.18.703,arm3_q,2022.2.5,Win32,60.84575601,IwAR3i0Tne7Am76yPQHctpsUhhvHOEwv4zftyo9rgU0F3TAKf6rfbrBgdDQWw,right,1,0.95,0.35,17,0.029503612,0.2164,,,,,,189,0,189,0,1,,,,,
,,679220,001,2023-07-23_21h54.18.703,arm3_q,2022.2.5,Win32,60.84575601,IwAR3i0Tne7Am76yPQHctpsUhhvHOEwv4zftyo9rgU0F3TAKf6rfbrBgdDQWw,right,1,0.95,0.35,17,0.034081694,0.2166,,,,,,190,0,190,0,1,,,,,
,,679220,001,2023-07-23_21h54.18.703,arm3_q,2022.2.5,Win32,60.84575601,IwAR3i0Tne7Am76yPQHctpsUhhvHOEwv4zftyo9rgU0F3TAKf6rfbrBgdDQWw,right,1,0.95,0.35,17,0.035784614,0.2004,,,,,,191,0,191,0,1,,,,,
,,679220,001,2023-07-23_21h54.18.703,arm3_q,2022.2.5,Win32,60.84575601,IwAR3i0Tne7Am76yPQHctpsUhhvHOEwv4zftyo9rgU0F3TAKf6rfbrBgdDQWw,right,1,0.95,0.35,17,0.050634411,0.2174,,,,,,192,0,192,0,1,,,,,
,,679220,001,2023-07-23_21h54.18.703,arm3_q,2022.2.5,Win32,60.84575601,IwAR3i0Tne7Am76yPQHctpsUhhvHOEwv4zftyo9rgU0F3TAKf6rfbrBgdDQWw,right,1,0.95,0.35,17,0.045257804,0.2833,,,,,,193,0,193,0,1,,,,,
,,679220,001,2023-07-23_21h54.18.703,arm3_q,2022.2.5,Win32,60.84575601,IwAR3i0Tne7Am76yPQHctpsUhhvHOEwv4zftyo9rgU0F3TAKf6rfbrBgdDQWw,right,1,0.95,0.35,17,0.040669535,0.2093,,,,,,194,0,194,0,1,,,,,
,,679220,001,2023-07-23_21h54.18.703,arm3_q,2022.2.5,Win32,60.84575601,IwAR3i0Tne7Am76yPQHctpsUhhvHOEwv4zftyo9rgU0F3TAKf6rfbrBgdDQWw,right,1,0.95,0.35,17,0.052689707,0.268,,,,,,195,0,195,0,1,,,,,
,,679220,001,2023-07-23_21h54.18.703,arm3_q,2022.2.5,Win32,60.84575601,IwAR3i0Tne7Am76yPQHctpsUhhvHOEwv4zftyo9rgU0F3TAKf6rfbrBgdDQWw,up,1,0.95,0.35,18,0,0.2833,,,,,,196,0,196,0,1,,,,,
,,679220,001,2023-07-23_21h54.18.703,arm3_q,2022.2.5,Win32,60.84575601,IwAR3i0Tne7Am76yPQHctpsUhhvHOEwv4zftyo9rgU0F3TAKf6rfbrBgdDQWw,right,1,0.95,0.35,18,0.010837167,0.5167,,,,,,197,0,197,0,1,,,,,
,,679220,001,2023-07-23_21h54.18.703,arm3_q,2022.2.5,Win32,60.84575601,IwAR3i0Tne7Am76yPQHctpsUhhvHOEwv4zftyo9rgU0F3TAKf6rfbrBgdDQWw,right,1,0.95,0.35,18,0.019136985,0.2334,,,,,,198,0,198,0,1,,,,,
,,679220,001,2023-07-23_21h54.18.703,arm3_q,2022.2.5,Win32,60.84575601,IwAR3i0Tne7Am76yPQHctpsUhhvHOEwv4zftyo9rgU0F3TAKf6rfbrBgdDQWw,right,1,0.95,0.35,18,0.015971021,0.2053,,,,,,199,0,199,0,1,,,,,
,,679220,001,2023-07-23_21h54.18.703,arm3_q,2022.2.5,Win32,60.84575601,IwAR3i0Tne7Am76yPQHctpsUhhvHOEwv4zftyo9rgU0F3TAKf6rfbrBgdDQWw,right,1,0.95,0.35,18,0.003279922,0.183,,,,,,200,0,200,0,1,,,,,
,,679220,001,2023-07-23_21h54.18.703,arm3_q,2022.2.5,Win32,60.84575601,IwAR3i0Tne7Am76yPQHctpsUhhvHOEwv4zftyo9rgU0F3TAKf6rfbrBgdDQWw,right,1,0.95,0.35,18,0.014958704,0.1999,,,,,,201,0,201,0,1,,,,,
,,679220,001,2023-07-23_21h54.18.703,arm3_q,2022.2.5,Win32,60.84575601,IwAR3i0Tne7Am76yPQHctpsUhhvHOEwv4zftyo9rgU0F3TAKf6rfbrBgdDQWw,right,1,0.95,0.35,18,0.02830707,0.2006,,,,,,202,0,202,0,1,,,,,
,,679220,001,2023-07-23_21h54.18.703,arm3_q,2022.2.5,Win32,60.84575601,IwAR3i0Tne7Am76yPQHctpsUhhvHOEwv4zftyo9rgU0F3TAKf6rfbrBgdDQWw,right,1,0.95,0.35,18,0.030033346,0.1831,,,,,,203,0,203,0,1,,,,,
,,679220,001,2023-07-23_21h54.18.703,arm3_q,2022.2.5,Win32,60.84575601,IwAR3i0Tne7Am76yPQHctpsUhhvHOEwv4zftyo9rgU0F3TAKf6rfbrBgdDQWw,right,1,0.95,0.35,18,0.046488172,0.2167,,,,,,204,0,204,0,1,,,,,
,,679220,001,2023-07-23_21h54.18.703,arm3_q,2022.2.5,Win32,60.84575601,IwAR3i0Tne7Am76yPQHctpsUhhvHOEwv4zftyo9rgU0F3TAKf6rfbrBgdDQWw,right,1,0.95,0.35,18,0.05329079,0.2167,,,,,,205,0,205,0,1,,,,,
,,679220,001,2023-07-23_21h54.18.703,arm3_q,2022.2.5,Win32,60.84575601,IwAR3i0Tne7Am76yPQHctpsUhhvHOEwv4zftyo9rgU0F3TAKf6rfbrBgdDQWw,up,-1,0.95,0.35,19,0,0.3265,,,,,,206,0,206,0,1,,,,,
,,679220,001,2023-07-23_21h54.18.703,arm3_q,2022.2.5,Win32,60.84575601,IwAR3i0Tne7Am76yPQHctpsUhhvHOEwv4zftyo9rgU0F3TAKf6rfbrBgdDQWw,right,-1,0.95,0.35,19,-0.042798221,0.2212,,,,,,207,0,207,0,1,,,,,
,,679220,001,2023-07-23_21h54.18.703,arm3_q,2022.2.5,Win32,60.84575601,IwAR3i0Tne7Am76yPQHctpsUhhvHOEwv4zftyo9rgU0F3TAKf6rfbrBgdDQWw,right,-1,0.95,0.35,19,-0.061854834,0.2003,,,,,,208,0,208,0,1,,,,,
,,679220,001,2023-07-23_21h54.18.703,arm3_q,2022.2.5,Win32,60.84575601,IwAR3i0Tne7Am76yPQHctpsUhhvHOEwv4zftyo9rgU0F3TAKf6rfbrBgdDQWw,right,-1,0.95,0.35,19,-0.08819218,0.1975,,,,,,209,0,209,0,1,,,,,
,,679220,001,2023-07-23_21h54.18.703,arm3_q,2022.2.5,Win32,60.84575601,IwAR3i0Tne7Am76yPQHctpsUhhvHOEwv4zftyo9rgU0F3TAKf6rfbrBgdDQWw,right,-1,0.95,0.35,19,-0.104004371,0.1837,,,,,,210,0,210,0,1,,,,,
,,679220,001,2023-07-23_21h54.18.703,arm3_q,2022.2.5,Win32,60.84575601,IwAR3i0Tne7Am76yPQHctpsUhhvHOEwv4zftyo9rgU0F3TAKf6rfbrBgdDQWw,right,-1,0.95,0.35,19,-0.093449718,0.2168,,,,,,211,0,211,0,1,,,,,
,,679220,001,2023-07-23_21h54.18.703,arm3_q,2022.2.5,Win32,60.84575601,IwAR3i0Tne7Am76yPQHctpsUhhvHOEwv4zftyo9rgU0F3TAKf6rfbrBgdDQWw,down,-1,0.95,0.35,19,0,0.3398,,,,,,212,0,212,0,1,,,,,
,,679220,001,2023-07-23_21h54.18.703,arm3_q,2022.2.5,Win32,60.84575601,IwAR3i0Tne7Am76yPQHctpsUhhvHOEwv4zftyo9rgU0F3TAKf6rfbrBgdDQWw,right,-1,0.95,0.35,19,-0.001960861,0.2046,,,,,,213,0,213,0,1,,,,,
,,679220,001,2023-07-23_21h54.18.703,arm3_q,2022.2.5,Win32,60.84575601,IwAR3i0Tne7Am76yPQHctpsUhhvHOEwv4zftyo9rgU0F3TAKf6rfbrBgdDQWw,right,-1,0.95,0.35,19,-0.008896402,0.3668,,,,,,214,0,214,0,1,,,,,
,,679220,001,2023-07-23_21h54.18.703,arm3_q,2022.2.5,Win32,60.84575601,IwAR3i0Tne7Am76yPQHctpsUhhvHOEwv4zftyo9rgU0F3TAKf6rfbrBgdDQWw,right,-1,0.95,0.35,19,-0.00485176,0.2167,,,,,,215,0,215,0,1,,,,,
,,679220,001,2023-07-23_21h54.18.703,arm3_q,2022.2.5,Win32,60.84575601,IwAR3i0Tne7Am76yPQHctpsUhhvHOEwv4zftyo9rgU0F3TAKf6rfbrBgdDQWw,right,-1,0.95,0.35,19,-0.018752686,0.1914,,,,,,216,0,216,0,1,,,,,
,,679220,001,2023-07-23_21h54.18.703,arm3_q,2022.2.5,Win32,60.84575601,IwAR3i0Tne7Am76yPQHctpsUhhvHOEwv4zftyo9rgU0F3TAKf6rfbrBgdDQWw,right,-1,0.95,0.35,19,-0.015377483,0.2006,,,,,,217,0,217,0,1,,,,,
,,679220,001,2023-07-23_21h54.18.703,arm3_q,2022.2.5,Win32,60.84575601,IwAR3i0Tne7Am76yPQHctpsUhhvHOEwv4zftyo9rgU0F3TAKf6rfbrBgdDQWw,right,-1,0.95,0.35,19,-0.005733832,0.2001,,,,,,218,0,218,0,1,,,,,
,,679220,001,2023-07-23_21h54.18.703,arm3_q,2022.2.5,Win32,60.84575601,IwAR3i0Tne7Am76yPQHctpsUhhvHOEwv4zftyo9rgU0F3TAKf6rfbrBgdDQWw,right,-1,0.95,0.35,19,-0.033710583,0.233,,,,,,219,0,219,0,1,,,,,
,,679220,001,2023-07-23_21h54.18.703,arm3_q,2022.2.5,Win32,60.84575601,IwAR3i0Tne7Am76yPQHctpsUhhvHOEwv4zftyo9rgU0F3TAKf6rfbrBgdDQWw,right,-1,0.95,0.35,19,-0.014340665,0.242,,,,,,220,0,220,0,1,,,,,
,,679220,001,2023-07-23_21h54.18.703,arm3_q,2022.2.5,Win32,60.84575601,IwAR3i0Tne7Am76yPQHctpsUhhvHOEwv4zftyo9rgU0F3TAKf6rfbrBgdDQWw,right,-1,0.95,0.35,19,-0.032109693,0.4325,,,,,,221,0,221,0,1,,,,,
,,679220,001,2023-07-23_21h54.18.703,arm3_q,2022.2.5,Win32,60.84575601,IwAR3i0Tne7Am76yPQHctpsUhhvHOEwv4zftyo9rgU0F3TAKf6rfbrBgdDQWw,down,1,0.95,0.35,20,0,0.3504,,,,,,222,0,222,0,1,,,,,
,,679220,001,2023-07-23_21h54.18.703,arm3_q,2022.2.5,Win32,60.84575601,IwAR3i0Tne7Am76yPQHctpsUhhvHOEwv4zftyo9rgU0F3TAKf6rfbrBgdDQWw,right,1,0.95,0.35,20,-0.003324164,0.2537,,,,,,223,0,223,0,1,,,,,
,,679220,001,2023-07-23_21h54.18.703,arm3_q,2022.2.5,Win32,60.84575601,IwAR3i0Tne7Am76yPQHctpsUhhvHOEwv4zftyo9rgU0F3TAKf6rfbrBgdDQWw,right,1,0.95,0.35,20,0.010644437,0.2039,,,,,,224,0,224,0,1,,,,,
,,679220,001,2023-07-23_21h54.18.703,arm3_q,2022.2.5,Win32,60.84575601,IwAR3i0Tne7Am76yPQHctpsUhhvHOEwv4zftyo9rgU0F3TAKf6rfbrBgdDQWw,right,1,0.95,0.35,20,0.013529062,0.1836,,,,,,225,0,225,0,1,,,,,
,,679220,001,2023-07-23_21h54.18.703,arm3_q,2022.2.5,Win32,60.84575601,IwAR3i0Tne7Am76yPQHctpsUhhvHOEwv4zftyo9rgU0F3TAKf6rfbrBgdDQWw,right,1,0.95,0.35,20,-0.007053729,0.1999,,,,,,226,0,226,0,1,,,,,
,,679220,001,2023-07-23_21h54.18.703,arm3_q,2022.2.5,Win32,60.84575601,IwAR3i0Tne7Am76yPQHctpsUhhvHOEwv4zftyo9rgU0F3TAKf6rfbrBgdDQWw,right,1,0.95,0.35,20,-0.001287058,0.2218,,,,,,227,0,227,0,1,,,,,
,,679220,001,2023-07-23_21h54.18.703,arm3_q,2022.2.5,Win32,60.84575601,IwAR3i0Tne7Am76yPQHctpsUhhvHOEwv4zftyo9rgU0F3TAKf6rfbrBgdDQWw,right,1,0.95,0.35,20,-0.044279898,0.2002,,,,,,228,0,228,0,1,,,,,
,,679220,001,2023-07-23_21h54.18.703,arm3_q,2022.2.5,Win32,60.84575601,IwAR3i0Tne7Am76yPQHctpsUhhvHOEwv4zftyo9rgU0F3TAKf6rfbrBgdDQWw,right,1,0.95,0.35,20,-0.050970267,0.1834,,,,,,229,0,229,0,1,,,,,
,,679220,001,2023-07-23_21h54.18.703,arm3_q,2022.2.5,Win32,60.84575601,IwAR3i0Tne7Am76yPQHctpsUhhvHOEwv4zftyo9rgU0F3TAKf6rfbrBgdDQWw,right,1,0.95,0.35,20,-0.049027605,0.3168,,,,,,230,0,230,0,1,,,,,
,,679220,001,2023-07-23_21h54.18.703,arm3_q,2022.2.5,Win32,60.84575601,IwAR3i0Tne7Am76yPQHctpsUhhvHOEwv4zftyo9rgU0F3TAKf6rfbrBgdDQWw,right,1,0.95,0.35,20,-0.019552198,0.3659,,,,,,231,0,231,0,1,,,,,
,,679220,001,2023-07-23_21h54.18.703,arm3_q,2022.2.5,Win32,60.84575601,IwAR3i0Tne7Am76yPQHctpsUhhvHOEwv4zftyo9rgU0F3TAKf6rfbrBgdDQWw,right,1,0.95,0.35,20,0.006345359,0.4494,,,,,,232,0,232,0,1,,,,,
,,679220,001,2023-07-23_21h54.18.703,arm3_q,2022.2.5,Win32,60.84575601,IwAR3i0Tne7Am76yPQHctpsUhhvHOEwv4zftyo9rgU0F3TAKf6rfbrBgdDQWw,up,1,0.95,0.35,21,0,0.3428,,,,,,233,0,233,0,1,,,,,
,,679220,001,2023-07-23_21h54.18.703,arm3_q,2022.2.5,Win32,60.84575601,IwAR3i0Tne7Am76yPQHctpsUhhvHOEwv4zftyo9rgU0F3TAKf6rfbrBgdDQWw,right,1,0.95,0.35,21,0.022475165,0.2997,,,,,,234,0,234,0,1,,,,,
,,679220,001,2023-07-23_21h54.18.703,arm3_q,2022.2.5,Win32,60.84575601,IwAR3i0Tne7Am76yPQHctpsUhhvHOEwv4zftyo9rgU0F3TAKf6rfbrBgdDQWw,right,1,0.95,0.35,21,0.00290628,0.2004,,,,,,235,0,235,0,1,,,,,
,,679220,001,2023-07-23_21h54.18.703,arm3_q,2022.2.5,Win32,60.84575601,IwAR3i0Tne7Am76yPQHctpsUhhvHOEwv4zftyo9rgU0F3TAKf6rfbrBgdDQWw,right,1,0.95,0.35,21,0.006747611,0.2173,,,,,,236,0,236,0,1,,,,,
,,679220,001,2023-07-23_21h54.18.703,arm3_q,2022.2.5,Win32,60.84575601,IwAR3i0Tne7Am76yPQHctpsUhhvHOEwv4zftyo9rgU0F3TAKf6rfbrBgdDQWw,right,1,0.95,0.35,21,0.018766333,0.1546,,,,,,237,0,237,0,1,,,,,
,,679220,001,2023-07-23_21h54.18.703,arm3_q,2022.2.5,Win32,60.84575601,IwAR3i0Tne7Am76yPQHctpsUhhvHOEwv4zftyo9rgU0F3TAKf6rfbrBgdDQWw,right,1,0.95,0.35,21,-0.001084705,0.1833,,,,,,238,0,238,0,1,,,,,
,,679220,001,2023-07-23_21h54.18.703,arm3_q,2022.2.5,Win32,60.84575601,IwAR3i0Tne7Am76yPQHctpsUhhvHOEwv4zftyo9rgU0F3TAKf6rfbrBgdDQWw,right,1,0.95,0.35,21,0.00889927,0.233,,,,,,239,0,239,0,1,,,,,
,,679220,001,2023-07-23_21h54.18.703,arm3_q,2022.2.5,Win32,60.84575601,IwAR3i0Tne7Am76yPQHctpsUhhvHOEwv4zftyo9rgU0F3TAKf6rfbrBgdDQWw,right,1,0.95,0.35,21,0.009667498,0.1844,,,,,,240,0,240,0,1,,,,,
,,679220,001,2023-07-23_21h54.18.703,arm3_q,2022.2.5,Win32,60.84575601,IwAR3i0Tne7Am76yPQHctpsUhhvHOEwv4zftyo9rgU0F3TAKf6rfbrBgdDQWw,right,1,0.95,0.35,21,0.022035206,0.2337,,,,,,241,0,241,0,1,,,,,
,,679220,001,2023-07-23_21h54.18.703,arm3_q,2022.2.5,Win32,60.84575601,IwAR3i0Tne7Am76yPQHctpsUhhvHOEwv4zftyo9rgU0F3TAKf6rfbrBgdDQWw,right,1,0.95,0.35,21,0.031152448,0.2222,,,,,,242,0,242,0,1,,,,,
,,679220,001,2023-07-23_21h54.18.703,arm3_q,2022.2.5,Win32,60.84575601,IwAR3i0Tne7Am76yPQHctpsUhhvHOEwv4zftyo9rgU0F3TAKf6rfbrBgdDQWw,up,-1,0.95,0.35,22,0,0.3845,,,,,,243,0,243,0,1,,,,,
,,679220,001,2023-07-23_21h54.18.703,arm3_q,2022.2.5,Win32,60.84575601,IwAR3i0Tne7Am76yPQHctpsUhhvHOEwv4zftyo9rgU0F3TAKf6rfbrBgdDQWw,right,-1,0.95,0.35,22,-0.006765303,0.3047,,,,,,244,0,244,0,1,,,,,
,,679220,001,2023-07-23_21h54.18.703,arm3_q,2022.2.5,Win32,60.84575601,IwAR3i0Tne7Am76yPQHctpsUhhvHOEwv4zftyo9rgU0F3TAKf6rfbrBgdDQWw,right,-1,0.95,0.35,22,-0.005467375,0.2505,,,,,,245,0,245,0,1,,,,,
,,679220,001,2023-07-23_21h54.18.703,arm3_q,2022.2.5,Win32,60.84575601,IwAR3i0Tne7Am76yPQHctpsUhhvHOEwv4zftyo9rgU0F3TAKf6rfbrBgdDQWw,right,-1,0.95,0.35,22,-0.009252143,0.1665,,,,,,246,0,246,0,1,,,,,
,,679220,001,2023-07-23_21h54.18.703,arm3_q,2022.2.5,Win32,60.84575601,IwAR3i0Tne7Am76yPQHctpsUhhvHOEwv4zftyo9rgU0F3TAKf6rfbrBgdDQWw,right,-1,0.95,0.35,22,-0.006124072,0.2008,,,,,,247,0,247,0,1,,,,,
,,679220,001,2023-07-23_21h54.18.703,arm3_q,2022.2.5,Win32,60.84575601,IwAR3i0Tne7Am76yPQHctpsUhhvHOEwv4zftyo9rgU0F3TAKf6rfbrBgdDQWw,right,-1,0.95,0.35,22,-0.00737812,0.2003,,,,,,248,0,248,0,1,,,,,
,,679220,001,2023-07-23_21h54.18.703,arm3_q,2022.2.5,Win32,60.84575601,IwAR3i0Tne7Am76yPQHctpsUhhvHOEwv4zftyo9rgU0F3TAKf6rfbrBgdDQWw,right,-1,0.95,0.35,22,-0.018196375,0.1871,,,,,,249,0,249,0,1,,,,,
,,679220,001,2023-07-23_21h54.18.703,arm3_q,2022.2.5,Win32,60.84575601,IwAR3i0Tne7Am76yPQHctpsUhhvHOEwv4zftyo9rgU0F3TAKf6rfbrBgdDQWw,right,-1,0.95,0.35,22,-0.023997331,0.2054,,,,,,250,0,250,0,1,,,,,
,,679220,001,2023-07-23_21h54.18.703,arm3_q,2022.2.5,Win32,60.84575601,IwAR3i0Tne7Am76yPQHctpsUhhvHOEwv4zftyo9rgU0F3TAKf6rfbrBgdDQWw,right,-1,0.95,0.35,22,-0.041268707,0.1923,,,,,,251,0,251,0,1,,,,,
,,679220,001,2023-07-23_21h54.18.703,arm3_q,2022.2.5,Win32,60.84575601,IwAR3i0Tne7Am76yPQHctpsUhhvHOEwv4zftyo9rgU0F3TAKf6rfbrBgdDQWw,right,-1,0.95,0.35,22,-0.026718637,0.7156,,,,,,252,0,252,0,1,,,,,
,,679220,001,2023-07-23_21h54.18.703,arm3_q,2022.2.5,Win32,60.84575601,IwAR3i0Tne7Am76yPQHctpsUhhvHOEwv4zftyo9rgU0F3TAKf6rfbrBgdDQWw,right,-1,0.95,0.35,22,-0.005750495,0.4497,,,,,,253,0,253,0,1,,,,,
,,679220,001,2023-07-23_21h54.18.703,arm3_q,2022.2.5,Win32,60.84575601,IwAR3i0Tne7Am76yPQHctpsUhhvHOEwv4zftyo9rgU0F3TAKf6rfbrBgdDQWw,up,-1,0.95,0.35,21,0,0.5385,,,,,,254,0,254,0,1,,,,,
,,679220,001,2023-07-23_21h54.18.703,arm3_q,2022.2.5,Win32,60.84575601,IwAR3i0Tne7Am76yPQHctpsUhhvHOEwv4zftyo9rgU0F3TAKf6rfbrBgdDQWw,right,-1,0.95,0.35,21,-0.011124323,0.2927,,,,,,255,0,255,0,1,,,,,
,,679220,001,2023-07-23_21h54.18.703,arm3_q,2022.2.5,Win32,60.84575601,IwAR3i0Tne7Am76yPQHctpsUhhvHOEwv4zftyo9rgU0F3TAKf6rfbrBgdDQWw,right,-1,0.95,0.35,21,-0.027469251,0.2002,,,,,,256,0,256,0,1,,,,,
,,679220,001,2023-07-23_21h54.18.703,arm3_q,2022.2.5,Win32,60.84575601,IwAR3i0Tne7Am76yPQHctpsUhhvHOEwv4zftyo9rgU0F3TAKf6rfbrBgdDQWw,right,-1,0.95,0.35,21,-0.015059295,0.2168,,,,,,257,0,257,0,1,,,,,
,,679220,001,2023-07-23_21h54.18.703,arm3_q,2022.2.5,Win32,60.84575601,IwAR3i0Tne7Am76yPQHctpsUhhvHOEwv4zftyo9rgU0F3TAKf6rfbrBgdDQWw,right,-1,0.95,0.35,21,-0.015666335,0.2329,,,,,,258,0,258,0,1,,,,,
,,679220,001,2023-07-23_21h54.18.703,arm3_q,2022.2.5,Win32,60.84575601,IwAR3i0Tne7Am76yPQHctpsUhhvHOEwv4zftyo9rgU0F3TAKf6rfbrBgdDQWw,right,-1,0.95,0.35,21,0.005193678,0.217,,,,,,259,0,259,0,1,,,,,
,,679220,001,2023-07-23_21h54.18.703,arm3_q,2022.2.5,Win32,60.84575601,IwAR3i0Tne7Am76yPQHctpsUhhvHOEwv4zftyo9rgU0F3TAKf6rfbrBgdDQWw,right,-1,0.95,0.35,21,-0.002711682,0.1934,,,,,,260,0,260,0,1,,,,,
,,679220,001,2023-07-23_21h54.18.703,arm3_q,2022.2.5,Win32,60.84575601,IwAR3i0Tne7Am76yPQHctpsUhhvHOEwv4zftyo9rgU0F3TAKf6rfbrBgdDQWw,right,-1,0.95,0.35,21,-0.000756716,0.1899,,,,,,261,0,261,0,1,,,,,
,,679220,001,2023-07-23_21h54.18.703,arm3_q,2022.2.5,Win32,60.84575601,IwAR3i0Tne7Am76yPQHctpsUhhvHOEwv4zftyo9rgU0F3TAKf6rfbrBgdDQWw,right,-1,0.95,0.35,21,-0.019834617,0.217,,,,,,262,0,262,0,1,,,,,
,,679220,001,2023-07-23_21h54.18.703,arm3_q,2022.2.5,Win32,60.84575601,IwAR3i0Tne7Am76yPQHctpsUhhvHOEwv4zftyo9rgU0F3TAKf6rfbrBgdDQWw,right,-1,0.95,0.35,21,-0.032429895,0.2506,,,,,,263,0,263,0,1,,,,,
,,679220,001,2023-07-23_21h54.18.703,arm3_q,2022.2.5,Win32,60.84575601,IwAR3i0Tne7Am76yPQHctpsUhhvHOEwv4zftyo9rgU0F3TAKf6rfbrBgdDQWw,right,-1,0.95,0.35,21,-0.035263151,0.2662,,,,,,264,0,264,0,1,,,,,
,,679220,001,2023-07-23_21h54.18.703,arm3_q,2022.2.5,Win32,60.84575601,IwAR3i0Tne7Am76yPQHctpsUhhvHOEwv4zftyo9rgU0F3TAKf6rfbrBgdDQWw,down,-1,0.95,0.35,22,0,0.4221,,,,,,265,0,265,0,1,,,,,
,,679220,001,2023-07-23_21h54.18.703,arm3_q,2022.2.5,Win32,60.84575601,IwAR3i0Tne7Am76yPQHctpsUhhvHOEwv4zftyo9rgU0F3TAKf6rfbrBgdDQWw,right,-1,0.95,0.35,22,-0.0217953,0.1854,,,,,,266,0,266,0,1,,,,,
,,679220,001,2023-07-23_21h54.18.703,arm3_q,2022.2.5,Win32,60.84575601,IwAR3i0Tne7Am76yPQHctpsUhhvHOEwv4zftyo9rgU0F3TAKf6rfbrBgdDQWw,right,-1,0.95,0.35,22,-0.060447435,0.1912,,,,,,267,0,267,0,1,,,,,
,,679220,001,2023-07-23_21h54.18.703,arm3_q,2022.2.5,Win32,60.84575601,IwAR3i0Tne7Am76yPQHctpsUhhvHOEwv4zftyo9rgU0F3TAKf6rfbrBgdDQWw,right,-1,0.95,0.35,22,-0.059075538,0.2012,,,,,,268,0,268,0,1,,,,,
,,679220,001,2023-07-23_21h54.18.703,arm3_q,2022.2.5,Win32,60.84575601,IwAR3i0Tne7Am76yPQHctpsUhhvHOEwv4zftyo9rgU0F3TAKf6rfbrBgdDQWw,right,-1,0.95,0.35,22,-0.041353325,0.2174,,,,,,269,0,269,0,1,,,,,
,,679220,001,2023-07-23_21h54.18.703,arm3_q,2022.2.5,Win32,60.84575601,IwAR3i0Tne7Am76yPQHctpsUhhvHOEwv4zftyo9rgU0F3TAKf6rfbrBgdDQWw,right,-1,0.95,0.35,22,-0.025949669,0.2172,,,,,,270,0,270,0,1,,,,,
,,679220,001,2023-07-23_21h54.18.703,arm3_q,2022.2.5,Win32,60.84575601,IwAR3i0Tne7Am76yPQHctpsUhhvHOEwv4zftyo9rgU0F3TAKf6rfbrBgdDQWw,right,-1,0.95,0.35,22,-0.036290639,0.1837,,,,,,271,0,271,0,1,,,,,
,,679220,001,2023-07-23_21h54.18.703,arm3_q,2022.2.5,Win32,60.84575601,IwAR3i0Tne7Am76yPQHctpsUhhvHOEwv4zftyo9rgU0F3TAKf6rfbrBgdDQWw,right,-1,0.95,0.35,22,-0.023050689,0.2006,,,,,,272,0,272,0,1,,,,,
,,679220,001,2023-07-23_21h54.18.703,arm3_q,2022.2.5,Win32,60.84575601,IwAR3i0Tne7Am76yPQHctpsUhhvHOEwv4zftyo9rgU0F3TAKf6rfbrBgdDQWw,right,-1,0.95,0.35,22,-0.037681913,0.2337,,,,,,273,0,273,0,1,,,,,
,,679220,001,2023-07-23_21h54.18.703,arm3_q,2022.2.5,Win32,60.84575601,IwAR3i0Tne7Am76yPQHctpsUhhvHOEwv4zftyo9rgU0F3TAKf6rfbrBgdDQWw,right,-1,0.95,0.35,22,-0.050347385,0.2,,,,,,274,0,274,0,1,,,,,
,,679220,001,2023-07-23_21h54.18.703,arm3_q,2022.2.5,Win32,60.84575601,IwAR3i0Tne7Am76yPQHctpsUhhvHOEwv4zftyo9rgU0F3TAKf6rfbrBgdDQWw,right,-1,0.95,0.35,22,-0.059421387,0.2327,,,,,,275,0,275,0,1,,,,,
,,679220,001,2023-07-23_21h54.18.703,arm3_q,2022.2.5,Win32,60.84575601,IwAR3i0Tne7Am76yPQHctpsUhhvHOEwv4zftyo9rgU0F3TAKf6rfbrBgdDQWw,right,-1,0.95,0.35,22,-0.051760811,0.9327,,,,,,276,0,276,0,1,,,,,
,,679220,001,2023-07-23_21h54.18.703,arm3_q,2022.2.5,Win32,60.84575601,IwAR3i0Tne7Am76yPQHctpsUhhvHOEwv4zftyo9rgU0F3TAKf6rfbrBgdDQWw,down,1,0.95,0.35,23,0,0.1999,,,,,,277,0,277,0,1,,,,,
,,679220,001,2023-07-23_21h54.18.703,arm3_q,2022.2.5,Win32,60.84575601,IwAR3i0Tne7Am76yPQHctpsUhhvHOEwv4zftyo9rgU0F3TAKf6rfbrBgdDQWw,right,1,0.95,0.35,23,-0.004256393,0.6171,,,,,,278,0,278,0,1,,,,,
,,679220,001,2023-07-23_21h54.18.703,arm3_q,2022.2.5,Win32,60.84575601,IwAR3i0Tne7Am76yPQHctpsUhhvHOEwv4zftyo9rgU0F3TAKf6rfbrBgdDQWw,right,1,0.95,0.35,23,-0.024649802,0.2161,,,,,,279,0,279,0,1,,,,,
,,679220,001,2023-07-23_21h54.18.703,arm3_q,2022.2.5,Win32,60.84575601,IwAR3i0Tne7Am76yPQHctpsUhhvHOEwv4zftyo9rgU0F3TAKf6rfbrBgdDQWw,right,1,0.95,0.35,23,-0.070325137,0.2434,,,,,,280,0,280,0,1,,,,,
,,679220,001,2023-07-23_21h54.18.703,arm3_q,2022.2.5,Win32,60.84575601,IwAR3i0Tne7Am76yPQHctpsUhhvHOEwv4zftyo9rgU0F3TAKf6rfbrBgdDQWw,right,1,0.95,0.35,23,-0.057260008,0.2501,,,,,,281,0,281,0,1,,,,,
,,679220,001,2023-07-23_21h54.18.703,arm3_q,2022.2.5,Win32,60.84575601,IwAR3i0Tne7Am76yPQHctpsUhhvHOEwv4zftyo9rgU0F3TAKf6rfbrBgdDQWw,right,1,0.95,0.35,23,-0.027285322,0.2505,,,,,,282,0,282,0,1,,,,,
,,679220,001,2023-07-23_21h54.18.703,arm3_q,2022.2.5,Win32,60.84575601,IwAR3i0Tne7Am76yPQHctpsUhhvHOEwv4zftyo9rgU0F3TAKf6rfbrBgdDQWw,right,1,0.95,0.35,23,0.01607237,0.3001,,,,,,283,0,283,0,1,,,,,
,,679220,001,2023-07-23_21h54.18.703,arm3_q,2022.2.5,Win32,60.84575601,IwAR3i0Tne7Am76yPQHctpsUhhvHOEwv4zftyo9rgU0F3TAKf6rfbrBgdDQWw,right,1,0.95,0.35,23,0.032108008,0.4166,,,,,,284,0,284,0,1,,,,,
,,679220,001,2023-07-23_21h54.18.703,arm3_q,2022.2.5,Win32,60.84575601,IwAR3i0Tne7Am76yPQHctpsUhhvHOEwv4zftyo9rgU0F3TAKf6rfbrBgdDQWw,right,1,0.95,0.35,23,0.020654975,0.2832,,,,,,285,0,285,0,1,,,,,
,,679220,001,2023-07-23_21h54.18.703,arm3_q,2022.2.5,Win32,60.84575601,IwAR3i0Tne7Am76yPQHctpsUhhvHOEwv4zftyo9rgU0F3TAKf6rfbrBgdDQWw,right,1,0.95,0.35,23,0.006252017,0.3327,,,,,,286,0,286,0,1,,,,,
,,679220,001,2023-07-23_21h54.18.703,arm3_q,2022.2.5,Win32,60.84575601,IwAR3i0Tne7Am76yPQHctpsUhhvHOEwv4zftyo9rgU0F3TAKf6rfbrBgdDQWw,right,1,0.95,0.35,23,-0.000289206,0.3317,,,,,,287,0,287,0,1,,,,,
,,679220,001,2023-07-23_21h54.18.703,arm3_q,2022.2.5,Win32,60.84575601,IwAR3i0Tne7Am76yPQHctpsUhhvHOEwv4zftyo9rgU0F3TAKf6rfbrBgdDQWw,right,1,0.95,0.35,23,0.020592704,0.3507,,,,,,288,0,288,0,1,,,,,
,,679220,001,2023-07-23_21h54.18.703,arm3_q,2022.2.5,Win32,60.84575601,IwAR3i0Tne7Am76yPQHctpsUhhvHOEwv4zftyo9rgU0F3TAKf6rfbrBgdDQWw,right,1,0.95,0.35,23,0.012347372,1.3729,,,,,,289,0,289,0,1,,,,,
,,679220,001,2023-07-23_21h54.18.703,arm3_q,2022.2.5,Win32,60.84575601,IwAR3i0Tne7Am76yPQHctpsUhhvHOEwv4zftyo9rgU0F3TAKf6rfbrBgdDQWw,up,-1,0.95,0.35,24,0,0.5501,,,,,,290,0,290,0,1,,,,,
,,679220,001,2023-07-23_21h54.18.703,arm3_q,2022.2.5,Win32,60.84575601,IwAR3i0Tne7Am76yPQHctpsUhhvHOEwv4zftyo9rgU0F3TAKf6rfbrBgdDQWw,right,-1,0.95,0.35,24,-0.03563898,0.3547,,,,,,291,0,291,0,1,,,,,
,,679220,001,2023-07-23_21h54.18.703,arm3_q,2022.2.5,Win32,60.84575601,IwAR3i0Tne7Am76yPQHctpsUhhvHOEwv4zftyo9rgU0F3TAKf6rfbrBgdDQWw,right,-1,0.95,0.35,24,-0.060890469,0.2002,,,,,,292,0,292,0,1,,,,,
,,679220,001,2023-07-23_21h54.18.703,arm3_q,2022.2.5,Win32,60.84575601,IwAR3i0Tne7Am76yPQHctpsUhhvHOEwv4zftyo9rgU0F3TAKf6rfbrBgdDQWw,right,-1,0.95,0.35,24,-0.057735555,0.2168,,,,,,293,0,293,0,1,,,,,
,,679220,001,2023-07-23_21h54.18.703,arm3_q,2022.2.5,Win32,60.84575601,IwAR3i0Tne7Am76yPQHctpsUhhvHOEwv4zftyo9rgU0F3TAKf6rfbrBgdDQWw,right,-1,0.95,0.35,24,-0.073138836,0.4263,,,,,,294,0,294,0,1,,,,,
,,679220,001,2023-07-23_21h54.18.703,arm3_q,2022.2.5,Win32,60.84575601,IwAR3i0Tne7Am76yPQHctpsUhhvHOEwv4zftyo9rgU0F3TAKf6rfbrBgdDQWw,down,-1,0.95,0.35,25,0,0.3661,,,,,,295,0,295,0,1,,,,,
,,679220,001,2023-07-23_21h54.18.703,arm3_q,2022.2.5,Win32,60.84575601,IwAR3i0Tne7Am76yPQHctpsUhhvHOEwv4zftyo9rgU0F3TAKf6rfbrBgdDQWw,right,-1,0.95,0.35,25,-0.028732579,0.1721,,,,,,296,0,296,0,1,,,,,
,,679220,001,2023-07-23_21h54.18.703,arm3_q,2022.2.5,Win32,60.84575601,IwAR3i0Tne7Am76yPQHctpsUhhvHOEwv4zftyo9rgU0F3TAKf6rfbrBgdDQWw,right,-1,0.95,0.35,25,-0.024124998,0.2506,,,,,,297,0,297,0,1,,,,,
,,679220,001,2023-07-23_21h54.18.703,arm3_q,2022.2.5,Win32,60.84575601,IwAR3i0Tne7Am76yPQHctpsUhhvHOEwv4zftyo9rgU0F3TAKf6rfbrBgdDQWw,right,-1,0.95,0.35,25,-0.023948099,0.2338,,,,,,298,0,298,0,1,,,,,
,,679220,001,2023-07-23_21h54.18.703,arm3_q,2022.2.5,Win32,60.84575601,IwAR3i0Tne7Am76yPQHctpsUhhvHOEwv4zftyo9rgU0F3TAKf6rfbrBgdDQWw,right,-1,0.95,0.35,25,-0.045316786,0.1894,,,,,,299,0,299,0,1,,,,,
,,679220,001,2023-07-23_21h54.18.703,arm3_q,2022.2.5,Win32,60.84575601,IwAR3i0Tne7Am76yPQHctpsUhhvHOEwv4zftyo9rgU0F3TAKf6rfbrBgdDQWw,right,-1,0.95,0.35,25,-0.06677301,0.2028,,,,,,300,0,300,0,1,,,,,
,,679220,001,2023-07-23_21h54.18.703,arm3_q,2022.2.5,Win32,60.84575601,IwAR3i0Tne7Am76yPQHctpsUhhvHOEwv4zftyo9rgU0F3TAKf6rfbrBgdDQWw,down,1,0.95,0.35,26,0,0.7162,,,,,,301,0,301,0,1,,,,,
,,679220,001,2023-07-23_21h54.18.703,arm3_q,2022.2.5,Win32,60.84575601,IwAR3i0Tne7Am76yPQHctpsUhhvHOEwv4zftyo9rgU0F3TAKf6rfbrBgdDQWw,right,1,0.95,0.35,26,-0.006641107,0.2712,,,,,,302,0,302,0,1,,,,,
,,679220,001,2023-07-23_21h54.18.703,arm3_q,2022.2.5,Win32,60.84575601,IwAR3i0Tne7Am76yPQHctpsUhhvHOEwv4zftyo9rgU0F3TAKf6rfbrBgdDQWw,right,1,0.95,0.35,26,0.009067208,0.2414,,,,,,303,0,303,0,1,,,,,
,,679220,001,2023-07-23_21h54.18.703,arm3_q,2022.2.5,Win32,60.84575601,IwAR3i0Tne7Am76yPQHctpsUhhvHOEwv4zftyo9rgU0F3TAKf6rfbrBgdDQWw,right,1,0.95,0.35,26,-0.002516814,0.2505,,,,,,304,0,304,0,1,,,,,
,,679220,001,2023-07-23_21h54.18.703,arm3_q,2022.2.5,Win32,60.84575601,IwAR3i0Tne7Am76yPQHctpsUhhvHOEwv4zftyo9rgU0F3TAKf6rfbrBgdDQWw,right,1,0.95,0.35,26,-0.004476637,0.143,,,,,,305,0,305,0,1,,,,,
,,679220,001,2023-07-23_21h54.18.703,arm3_q,2022.2.5,Win32,60.84575601,IwAR3i0Tne7Am76yPQHctpsUhhvHOEwv4zftyo9rgU0F3TAKf6rfbrBgdDQWw,right,1,0.95,0.35,26,-0.013442645,0.2001,,,,,,306,0,306,0,1,,,,,
,,679220,001,2023-07-23_21h54.18.703,arm3_q,2022.2.5,Win32,60.84575601,IwAR3i0Tne7Am76yPQHctpsUhhvHOEwv4zftyo9rgU0F3TAKf6rfbrBgdDQWw,right,1,0.95,0.35,26,0.019356904,0.4,,,,,,307,0,307,0,1,,,,,
,,679220,001,2023-07-23_21h54.18.703,arm3_q,2022.2.5,Win32,60.84575601,IwAR3i0Tne7Am76yPQHctpsUhhvHOEwv4zftyo9rgU0F3TAKf6rfbrBgdDQWw,up,1,0.95,0.35,27,0,0.3834,,,,,,308,0,308,0,1,,,,,
,,679220,001,2023-07-23_21h54.18.703,arm3_q,2022.2.5,Win32,60.84575601,IwAR3i0Tne7Am76yPQHctpsUhhvHOEwv4zftyo9rgU0F3TAKf6rfbrBgdDQWw,right,1,0.95,0.35,27,0.007769131,0.3333,,,,,,309,0,309,0,1,,,,,
,,679220,001,2023-07-23_21h54.18.703,arm3_q,2022.2.5,Win32,60.84575601,IwAR3i0Tne7Am76yPQHctpsUhhvHOEwv4zftyo9rgU0F3TAKf6rfbrBgdDQWw,right,1,0.95,0.35,27,0.014674454,0.1675,,,,,,310,0,310,0,1,,,,,
,,679220,001,2023-07-23_21h54.18.703,arm3_q,2022.2.5,Win32,60.84575601,IwAR3i0Tne7Am76yPQHctpsUhhvHOEwv4zftyo9rgU0F3TAKf6rfbrBgdDQWw,right,1,0.95,0.35,27,0.045669785,0.2006,,,,,,311,0,311,0,1,,,,,
,,679220,001,2023-07-23_21h54.18.703,arm3_q,2022.2.5,Win32,60.84575601,IwAR3i0Tne7Am76yPQHctpsUhhvHOEwv4zftyo9rgU0F3TAKf6rfbrBgdDQWw,right,1,0.95,0.35,27,0.050429229,0.1836,,,,,,312,0,312,0,1,,,,,
,,679220,001,2023-07-23_21h54.18.703,arm3_q,2022.2.5,Win32,60.84575601,IwAR3i0Tne7Am76yPQHctpsUhhvHOEwv4zftyo9rgU0F3TAKf6rfbrBgdDQWw,right,1,0.95,0.35,27,0.011471367,0.2138,,,,,,313,0,313,0,1,,,,,
,,679220,001,2023-07-23_21h54.18.703,arm3_q,2022.2.5,Win32,60.84575601,IwAR3i0Tne7Am76yPQHctpsUhhvHOEwv4zftyo9rgU0F3TAKf6rfbrBgdDQWw,right,1,0.95,0.35,27,0.027038509,0.2502,,,,,,314,0,314,0,1,,,,,
,,679220,001,2023-07-23_21h54.18.703,arm3_q,2022.2.5,Win32,60.84575601,IwAR3i0Tne7Am76yPQHctpsUhhvHOEwv4zftyo9rgU0F3TAKf6rfbrBgdDQWw,right,1,0.95,0.35,27,0.021545912,0.3672,,,,,,315,0,315,0,1,,,,,
,,679220,001,2023-07-23_21h54.18.703,arm3_q,2022.2.5,Win32,60.84575601,IwAR3i0Tne7Am76yPQHctpsUhhvHOEwv4zftyo9rgU0F3TAKf6rfbrBgdDQWw,right,1,0.95,0.35,27,0.013110372,0.4331,,,,,,316,0,316,0,1,,,,,
,,679220,001,2023-07-23_21h54.18.703,arm3_q,2022.2.5,Win32,60.84575601,IwAR3i0Tne7Am76yPQHctpsUhhvHOEwv4zftyo9rgU0F3TAKf6rfbrBgdDQWw,down,1,0.95,0.35,26,0,0.434,,,,,,317,0,317,0,1,,,,,
,,679220,001,2023-07-23_21h54.18.703,arm3_q,2022.2.5,Win32,60.84575601,IwAR3i0Tne7Am76yPQHctpsUhhvHOEwv4zftyo9rgU0F3TAKf6rfbrBgdDQWw,right,1,0.95,0.35,26,-0.021300383,0.9362,,,,,,318,0,318,0,1,,,,,
,,679220,001,2023-07-23_21h54.18.703,arm3_q,2022.2.5,Win32,60.84575601,IwAR3i0Tne7Am76yPQHctpsUhhvHOEwv4zftyo9rgU0F3TAKf6rfbrBgdDQWw,right,1,0.95,0.35,26,-0.015130974,0.1831,,,,,,319,0,319,0,1,,,,,
,,679220,001,2023-07-23_21h54.18.703,arm3_q,2022.2.5,Win32,60.84575601,IwAR3i0Tne7Am76yPQHctpsUhhvHOEwv4zftyo9rgU0F3TAKf6rfbrBgdDQWw,right,1,0.95,0.35,26,-0.002440858,0.1994,,,,,,320,0,320,0,1,,,,,
,,679220,001,2023-07-23_21h54.18.703,arm3_q,2022.2.5,Win32,60.84575601,IwAR3i0Tne7Am76yPQHctpsUhhvHOEwv4zftyo9rgU0F3TAKf6rfbrBgdDQWw,right,1,0.95,0.35,26,0.011801828,0.1975,,,,,,321,0,321,0,1,,,,,
,,679220,001,2023-07-23_21h54.18.703,arm3_q,2022.2.5,Win32,60.84575601,IwAR3i0Tne7Am76yPQHctpsUhhvHOEwv4zftyo9rgU0F3TAKf6rfbrBgdDQWw,right,1,0.95,0.35,26,0.046528401,0.2049,,,,,,322,0,322,0,1,,,,,
,,679220,001,2023-07-23_21h54.18.703,arm3_q,2022.2.5,Win32,60.84575601,IwAR3i0Tne7Am76yPQHctpsUhhvHOEwv4zftyo9rgU0F3TAKf6rfbrBgdDQWw,right,1,0.95,0.35,26,0.067017583,0.1663,,,,,,323,0,323,0,1,,,,,
,,679220,001,2023-07-23_21h54.18.703,arm3_q,2022.2.5,Win32,60.84575601,IwAR3i0Tne7Am76yPQHctpsUhhvHOEwv4zftyo9rgU0F3TAKf6rfbrBgdDQWw,up,1,0.95,0.35,27,0,0.2272,,,,,,324,0,324,0,1,,,,,
,,679220,001,2023-07-23_21h54.18.703,arm3_q,2022.2.5,Win32,60.84575601,IwAR3i0Tne7Am76yPQHctpsUhhvHOEwv4zftyo9rgU0F3TAKf6rfbrBgdDQWw,right,1,0.95,0.35,27,0.01700181,0.1887,,,,,,325,0,325,0,1,,,,,
,,679220,001,2023-07-23_21h54.18.703,arm3_q,2022.2.5,Win32,60.84575601,IwAR3i0Tne7Am76yPQHctpsUhhvHOEwv4zftyo9rgU0F3TAKf6rfbrBgdDQWw,right,1,0.95,0.35,27,0.044660763,0.1996,,,,,,326,0,326,0,1,,,,,
,,679220,001,2023-07-23_21h54.18.703,arm3_q,2022.2.5,Win32,60.84575601,IwAR3i0Tne7Am76yPQHctpsUhhvHOEwv4zftyo9rgU0F3TAKf6rfbrBgdDQWw,right,1,0.95,0.35,27,0.048694399,0.2162,,,,,,327,0,327,0,1,,,,,
,,679220,001,2023-07-23_21h54.18.703,arm3_q,2022.2.5,Win32,60.84575601,IwAR3i0Tne7Am76yPQHctpsUhhvHOEwv4zftyo9rgU0F3TAKf6rfbrBgdDQWw,right,1,0.95,0.35,27,0.06154697,0.1738,,,,,,328,0,328,0,1,,,,,
,,679220,001,2023-07-23_21h54.18.703,arm3_q,2022.2.5,Win32,60.84575601,IwAR3i0Tne7Am76yPQHctpsUhhvHOEwv4zftyo9rgU0F3TAKf6rfbrBgdDQWw,up,-1,0.95,0.35,28,0,0.2164,,,,,,329,0,329,0,1,,,,,
,,679220,001,2023-07-23_21h54.18.703,arm3_q,2022.2.5,Win32,60.84575601,IwAR3i0Tne7Am76yPQHctpsUhhvHOEwv4zftyo9rgU0F3TAKf6rfbrBgdDQWw,right,-1,0.95,0.35,28,0.046288433,0.2385,,,,,,330,0,330,0,1,,,,,
,,679220,001,2023-07-23_21h54.18.703,arm3_q,2022.2.5,Win32,60.84575601,IwAR3i0Tne7Am76yPQHctpsUhhvHOEwv4zftyo9rgU0F3TAKf6rfbrBgdDQWw,right,-1,0.95,0.35,28,0.030133044,0.2167,,,,,,331,0,331,0,1,,,,,
,,679220,001,2023-07-23_21h54.18.703,arm3_q,2022.2.5,Win32,60.84575601,IwAR3i0Tne7Am76yPQHctpsUhhvHOEwv4zftyo9rgU0F3TAKf6rfbrBgdDQWw,right,-1,0.95,0.35,28,0.011850074,0.1994,,,,,,332,0,332,0,1,,,,,
,,679220,001,2023-07-23_21h54.18.703,arm3_q,2022.2.5,Win32,60.84575601,IwAR3i0Tne7Am76yPQHctpsUhhvHOEwv4zftyo9rgU0F3TAKf6rfbrBgdDQWw,right,-1,0.95,0.35,28,0.021770007,0.1687,,,,,,333,0,333,0,1,,,,,
,,679220,001,2023-07-23_21h54.18.703,arm3_q,2022.2.5,Win32,60.84575601,IwAR3i0Tne7Am76yPQHctpsUhhvHOEwv4zftyo9rgU0F3TAKf6rfbrBgdDQWw,right,-1,0.95,0.35,28,0.017368977,0.1835,,,,,,334,0,334,0,1,,,,,
,,679220,001,2023-07-23_21h54.18.703,arm3_q,2022.2.5,Win32,60.84575601,IwAR3i0Tne7Am76yPQHctpsUhhvHOEwv4zftyo9rgU0F3TAKf6rfbrBgdDQWw,right,-1,0.95,0.35,28,0.041632816,0.1999,,,,,,335,0,335,0,1,,,,,
,,679220,001,2023-07-23_21h54.18.703,arm3_q,2022.2.5,Win32,60.84575601,IwAR3i0Tne7Am76yPQHctpsUhhvHOEwv4zftyo9rgU0F3TAKf6rfbrBgdDQWw,right,-1,0.95,0.35,28,0.037017032,0.2213,,,,,,336,0,336,0,1,,,,,
,,679220,001,2023-07-23_21h54.18.703,arm3_q,2022.2.5,Win32,60.84575601,IwAR3i0Tne7Am76yPQHctpsUhhvHOEwv4zftyo9rgU0F3TAKf6rfbrBgdDQWw,right,-1,0.95,0.35,28,0.016515277,0.2162,,,,,,337,0,337,0,1,,,,,
,,679220,001,2023-07-23_21h54.18.703,arm3_q,2022.2.5,Win32,60.84575601,IwAR3i0Tne7Am76yPQHctpsUhhvHOEwv4zftyo9rgU0F3TAKf6rfbrBgdDQWw,down,-1,0.95,0.35,29,0,0.9548,,,,,,338,0,338,0,1,,,,,
,,679220,001,2023-07-23_21h54.18.703,arm3_q,2022.2.5,Win32,60.84575601,IwAR3i0Tne7Am76yPQHctpsUhhvHOEwv4zftyo9rgU0F3TAKf6rfbrBgdDQWw,right,-1,0.95,0.35,29,-0.058536111,0.3251,,,,,,339,0,339,0,1,,,,,
,,679220,001,2023-07-23_21h54.18.703,arm3_q,2022.2.5,Win32,60.84575601,IwAR3i0Tne7Am76yPQHctpsUhhvHOEwv4zftyo9rgU0F3TAKf6rfbrBgdDQWw,right,-1,0.95,0.35,29,-0.061785363,0.1908,,,,,,340,0,340,0,1,,,,,
,,679220,001,2023-07-23_21h54.18.703,arm3_q,2022.2.5,Win32,60.84575601,IwAR3i0Tne7Am76yPQHctpsUhhvHOEwv4zftyo9rgU0F3TAKf6rfbrBgdDQWw,right,-1,0.95,0.35,29,-0.069152902,0.1837,,,,,,341,0,341,0,1,,,,,
,,679220,001,2023-07-23_21h54.18.703,arm3_q,2022.2.5,Win32,60.84575601,IwAR3i0Tne7Am76yPQHctpsUhhvHOEwv4zftyo9rgU0F3TAKf6rfbrBgdDQWw,right,-1,0.95,0.35,29,-0.064721957,0.1719,,,,,,342,0,342,0,1,,,,,
,,679220,001,2023-07-23_21h54.18.703,arm3_q,2022.2.5,Win32,60.84575601,IwAR3i0Tne7Am76yPQHctpsUhhvHOEwv4zftyo9rgU0F3TAKf6rfbrBgdDQWw,down,-1,0.95,0.35,30,0,0.4325,,,,,,343,0,343,0,1,,,,,
,,679220,001,2023-07-23_21h54.18.703,arm3_q,2022.2.5,Win32,60.84575601,IwAR3i0Tne7Am76yPQHctpsUhhvHOEwv4zftyo9rgU0F3TAKf6rfbrBgdDQWw,right,-1,0.95,0.35,30,0.002339177,0.2066,,,,,,344,0,344,0,1,,,,,
,,679220,001,2023-07-23_21h54.18.703,arm3_q,2022.2.5,Win32,60.84575601,IwAR3i0Tne7Am76yPQHctpsUhhvHOEwv4zftyo9rgU0F3TAKf6rfbrBgdDQWw,right,-1,0.95,0.35,30,0.008244423,0.2177,,,,,,345,0,345,0,1,,,,,
,,679220,001,2023-07-23_21h54.18.703,arm3_q,2022.2.5,Win32,60.84575601,IwAR3i0Tne7Am76yPQHctpsUhhvHOEwv4zftyo9rgU0F3TAKf6rfbrBgdDQWw,right,-1,0.95,0.35,30,0.002114479,0.2053,,,,,,346,0,346,0,1,,,,,
,,679220,001,2023-07-23_21h54.18.703,arm3_q,2022.2.5,Win32,60.84575601,IwAR3i0Tne7Am76yPQHctpsUhhvHOEwv4zftyo9rgU0F3TAKf6rfbrBgdDQWw,right,-1,0.95,0.35,30,-0.029560087,0.2005,,,,,,347,0,347,0,1,,,,,
,,679220,001,2023-07-23_21h54.18.703,arm3_q,2022.2.5,Win32,60.84575601,IwAR3i0Tne7Am76yPQHctpsUhhvHOEwv4zftyo9rgU0F3TAKf6rfbrBgdDQWw,down,-1,0.95,0.35,31,0,0.5243,,,,,,348,0,348,0,1,,,,,
,,679220,001,2023-07-23_21h54.18.703,arm3_q,2022.2.5,Win32,60.84575601,IwAR3i0Tne7Am76yPQHctpsUhhvHOEwv4zftyo9rgU0F3TAKf6rfbrBgdDQWw,right,-1,0.95,0.35,31,-0.003692814,0.2331,,,,,,349,0,349,0,1,,,,,
,,679220,001,2023-07-23_21h54.18.703,arm3_q,2022.2.5,Win32,60.84575601,IwAR3i0Tne7Am76yPQHctpsUhhvHOEwv4zftyo9rgU0F3TAKf6rfbrBgdDQWw,right,-1,0.95,0.35,31,-0.008587532,0.2026,,,,,,350,0,350,0,1,,,,,
,,679220,001,2023-07-23_21h54.18.703,arm3_q,2022.2.5,Win32,60.84575601,IwAR3i0Tne7Am76yPQHctpsUhhvHOEwv4zftyo9rgU0F3TAKf6rfbrBgdDQWw,right,-1,0.95,0.35,31,-0.024030476,0.2006,,,,,,351,0,351,0,1,,,,,
,,679220,001,2023-07-23_21h54.18.703,arm3_q,2022.2.5,Win32,60.84575601,IwAR3i0Tne7Am76yPQHctpsUhhvHOEwv4zftyo9rgU0F3TAKf6rfbrBgdDQWw,right,-1,0.95,0.35,31,-0.04481525,0.1673,,,,,,352,0,352,0,1,,,,,
,,679220,001,2023-07-23_21h54.18.703,arm3_q,2022.2.5,Win32,60.84575601,IwAR3i0Tne7Am76yPQHctpsUhhvHOEwv4zftyo9rgU0F3TAKf6rfbrBgdDQWw,down,-1,0.95,0.35,32,0,0.3164,,,,,,353,0,353,0,1,,,,,
,,679220,001,2023-07-23_21h54.18.703,arm3_q,2022.2.5,Win32,60.84575601,IwAR3i0Tne7Am76yPQHctpsUhhvHOEwv4zftyo9rgU0F3TAKf6rfbrBgdDQWw,right,-1,0.95,0.35,32,-0.011433231,0.1934,,,,,,354,0,354,0,1,,,,,
,,679220,001,2023-07-23_21h54.18.703,arm3_q,2022.2.5,Win32,60.84575601,IwAR3i0Tne7Am76yPQHctpsUhhvHOEwv4zftyo9rgU0F3TAKf6rfbrBgdDQWw,right,-1,0.95,0.35,32,0.000750316,0.2168,,,,,,355,0,355,0,1,,,,,
,,679220,001,2023-07-23_21h54.18.703,arm3_q,2022.2.5,Win32,60.84575601,IwAR3i0Tne7Am76yPQHctpsUhhvHOEwv4zftyo9rgU0F3TAKf6rfbrBgdDQWw,right,-1,0.95,0.35,32,0.011375301,0.1996,,,,,,356,0,356,0,1,,,,,
,,679220,001,2023-07-23_21h54.18.703,arm3_q,2022.2.5,Win32,60.84575601,IwAR3i0Tne7Am76yPQHctpsUhhvHOEwv4zftyo9rgU0F3TAKf6rfbrBgdDQWw,right,-1,0.95,0.35,32,0.004244042,0.2053,,,,,,357,0,357,0,1,,,,,
,,679220,001,2023-07-23_21h54.18.703,arm3_q,2022.2.5,Win32,60.84575601,IwAR3i0Tne7Am76yPQHctpsUhhvHOEwv4zftyo9rgU0F3TAKf6rfbrBgdDQWw,right,-1,0.95,0.35,32,-0.017925286,0.1668,,,,,,358,0,358,0,1,,,,,
,,679220,001,2023-07-23_21h54.18.703,arm3_q,2022.2.5,Win32,60.84575601,IwAR3i0Tne7Am76yPQHctpsUhhvHOEwv4zftyo9rgU0F3TAKf6rfbrBgdDQWw,right,-1,0.95,0.35,32,-0.043641841,0.2008,,,,,,359,0,359,0,1,,,,,
,,679220,001,2023-07-23_21h54.18.703,arm3_q,2022.2.5,Win32,60.84575601,IwAR3i0Tne7Am76yPQHctpsUhhvHOEwv4zftyo9rgU0F3TAKf6rfbrBgdDQWw,down,-1,0.95,0.35,32,0,0.616,,,,,,360,0,360,0,1,,,,,
,,679220,001,2023-07-23_21h54.18.703,arm3_q,2022.2.5,Win32,60.84575601,IwAR3i0Tne7Am76yPQHctpsUhhvHOEwv4zftyo9rgU0F3TAKf6rfbrBgdDQWw,right,-1,0.95,0.35,32,0.002311093,0.2004,,,,,,361,0,361,0,1,,,,,
,,679220,001,2023-07-23_21h54.18.703,arm3_q,2022.2.5,Win32,60.84575601,IwAR3i0Tne7Am76yPQHctpsUhhvHOEwv4zftyo9rgU0F3TAKf6rfbrBgdDQWw,right,-1,0.95,0.35,32,0.018372259,0.3833,,,,,,362,0,362,0,1,,,,,
,,679220,001,2023-07-23_21h54.18.703,arm3_q,2022.2.5,Win32,60.84575601,IwAR3i0Tne7Am76yPQHctpsUhhvHOEwv4zftyo9rgU0F3TAKf6rfbrBgdDQWw,right,-1,0.95,0.35,32,0.028428117,0.151,,,,,,363,0,363,0,1,,,,,
,,679220,001,2023-07-23_21h54.18.703,arm3_q,2022.2.5,Win32,60.84575601,IwAR3i0Tne7Am76yPQHctpsUhhvHOEwv4zftyo9rgU0F3TAKf6rfbrBgdDQWw,right,-1,0.95,0.35,32,0.003856054,0.2508,,,,,,364,0,364,0,1,,,,,
,,679220,001,2023-07-23_21h54.18.703,arm3_q,2022.2.5,Win32,60.84575601,IwAR3i0Tne7Am76yPQHctpsUhhvHOEwv4zftyo9rgU0F3TAKf6rfbrBgdDQWw,right,-1,0.95,0.35,32,-0.026639575,0.1721,,,,,,365,0,365,0,1,,,,,
,,679220,001,2023-07-23_21h54.18.703,arm3_q,2022.2.5,Win32,60.84575601,IwAR3i0Tne7Am76yPQHctpsUhhvHOEwv4zftyo9rgU0F3TAKf6rfbrBgdDQWw,right,-1,0.95,0.35,32,-0.005000587,0.2168,,,,,,366,0,366,0,1,,,,,
,,679220,001,2023-07-23_21h54.18.703,arm3_q,2022.2.5,Win32,60.84575601,IwAR3i0Tne7Am76yPQHctpsUhhvHOEwv4zftyo9rgU0F3TAKf6rfbrBgdDQWw,right,-1,0.95,0.35,32,-0.023647258,0.2335,,,,,,367,0,367,0,1,,,,,
,,679220,001,2023-07-23_21h54.18.703,arm3_q,2022.2.5,Win32,60.84575601,IwAR3i0Tne7Am76yPQHctpsUhhvHOEwv4zftyo9rgU0F3TAKf6rfbrBgdDQWw,right,-1,0.95,0.35,32,-0.03781628,0.383,,,,,,368,0,368,0,1,,,,,
,,679220,001,2023-07-23_21h54.18.703,arm3_q,2022.2.5,Win32,60.84575601,IwAR3i0Tne7Am76yPQHctpsUhhvHOEwv4zftyo9rgU0F3TAKf6rfbrBgdDQWw,right,-1,0.95,0.35,32,-0.037154954,0.5174,,,,,,369,0,369,0,1,,,,,
,,679220,001,2023-07-23_21h54.18.703,arm3_q,2022.2.5,Win32,60.84575601,IwAR3i0Tne7Am76yPQHctpsUhhvHOEwv4zftyo9rgU0F3TAKf6rfbrBgdDQWw,,,,,,,,,,,,,,,,,,0,0,0,0,1
space,8.2631,679220,001,2023-07-23_21h54.18.703,arm3_q,2022.2.5,Win32,60.84575601,IwAR3i0Tne7Am76yPQHctpsUhhvHOEwv4zftyo9rgU0F3TAKf6rfbrBgdDQWw,down,-1,0.4357,0.35,32,0,1.4246,,,,,,0,0,0,0,1,,,,,
,,679220,001,2023-07-23_21h54.18.703,arm3_q,2022.2.5,Win32,60.84575601,IwAR3i0Tne7Am76yPQHctpsUhhvHOEwv4zftyo9rgU0F3TAKf6rfbrBgdDQWw,right,-1,0.4357,0.35,32,-0.023724845,1.0365,,,,,,1,0,1,0,1,,,,,
,,679220,001,2023-07-23_21h54.18.703,arm3_q,2022.2.5,Win32,60.84575601,IwAR3i0Tne7Am76yPQHctpsUhhvHOEwv4zftyo9rgU0F3TAKf6rfbrBgdDQWw,right,-1,0.4357,0.35,32,-0.046871731,0.3011,,,,,,2,0,2,0,1,,,,,
,,679220,001,2023-07-23_21h54.18.703,arm3_q,2022.2.5,Win32,60.84575601,IwAR3i0Tne7Am76yPQHctpsUhhvHOEwv4zftyo9rgU0F3TAKf6rfbrBgdDQWw,right,-1,0.4357,0.35,32,-0.049874841,0.25,,,,,,3,0,3,0,1,,,,,
,,679220,001,2023-07-23_21h54.18.703,arm3_q,2022.2.5,Win32,60.84575601,IwAR3i0Tne7Am76yPQHctpsUhhvHOEwv4zftyo9rgU0F3TAKf6rfbrBgdDQWw,right,-1,0.4357,0.35,32,-0.04949963,0.3823,,,,,,4,0,4,0,1,,,,,
,,679220,001,2023-07-23_21h54.18.703,arm3_q,2022.2.5,Win32,60.84575601,IwAR3i0Tne7Am76yPQHctpsUhhvHOEwv4zftyo9rgU0F3TAKf6rfbrBgdDQWw,right,-1,0.4357,0.35,32,-0.04327479,0.9166,,,,,,5,0,5,0,1,,,,,
,,679220,001,2023-07-23_21h54.18.703,arm3_q,2022.2.5,Win32,60.84575601,IwAR3i0Tne7Am76yPQHctpsUhhvHOEwv4zftyo9rgU0F3TAKf6rfbrBgdDQWw,down,-1,0.4357,0.35,32,0,0.3835,,,,,,6,0,6,0,1,,,,,
,,679220,001,2023-07-23_21h54.18.703,arm3_q,2022.2.5,Win32,60.84575601,IwAR3i0Tne7Am76yPQHctpsUhhvHOEwv4zftyo9rgU0F3TAKf6rfbrBgdDQWw,right,-1,0.4357,0.35,32,0.004168923,0.4426,,,,,,7,0,7,0,1,,,,,
,,679220,001,2023-07-23_21h54.18.703,arm3_q,2022.2.5,Win32,60.84575601,IwAR3i0Tne7Am76yPQHctpsUhhvHOEwv4zftyo9rgU0F3TAKf6rfbrBgdDQWw,right,-1,0.4357,0.35,32,0.000851332,0.2506,,,,,,8,0,8,0,1,,,,,
,,679220,001,2023-07-23_21h54.18.703,arm3_q,2022.2.5,Win32,60.84575601,IwAR3i0Tne7Am76yPQHctpsUhhvHOEwv4zftyo9rgU0F3TAKf6rfbrBgdDQWw,right,-1,0.4357,0.35,32,0.001828917,0.2164,,,,,,9,0,9,0,1,,,,,
,,679220,001,2023-07-23_21h54.18.703,arm3_q,2022.2.5,Win32,60.84575601,IwAR3i0Tne7Am76yPQHctpsUhhvHOEwv4zftyo9rgU0F3TAKf6rfbrBgdDQWw,right,-1,0.4357,0.35,32,-0.0108493,0.2344,,,,,,10,0,10,0,1,,,,,
,,679220,001,2023-07-23_21h54.18.703,arm3_q,2022.2.5,Win32,60.84575601,IwAR3i0Tne7Am76yPQHctpsUhhvHOEwv4zftyo9rgU0F3TAKf6rfbrBgdDQWw,right,-1,0.4357,0.35,32,-0.022168899,0.2668,,,,,,11,0,11,0,1,,,,,
,,679220,001,2023-07-23_21h54.18.703,arm3_q,2022.2.5,Win32,60.84575601,IwAR3i0Tne7Am76yPQHctpsUhhvHOEwv4zftyo9rgU0F3TAKf6rfbrBgdDQWw,right,-1,0.4357,0.35,32,-0.035107681,0.2002,,,,,,12,0,12,0,1,,,,,
,,679220,001,2023-07-23_21h54.18.703,arm3_q,2022.2.5,Win32,60.84575601,IwAR3i0Tne7Am76yPQHctpsUhhvHOEwv4zftyo9rgU0F3TAKf6rfbrBgdDQWw,down,1,0.4357,0.35,33,0,0.5222,,,,,,13,0,13,0,1,,,,,
,,679220,001,2023-07-23_21h54.18.703,arm3_q,2022.2.5,Win32,60.84575601,IwAR3i0Tne7Am76yPQHctpsUhhvHOEwv4zftyo9rgU0F3TAKf6rfbrBgdDQWw,right,1,0.4357,0.35,33,0.020279328,0.4169,,,,,,14,0,14,0,1,,,,,
,,679220,001,2023-07-23_21h54.18.703,arm3_q,2022.2.5,Win32,60.84575601,IwAR3i0Tne7Am76yPQHctpsUhhvHOEwv4zftyo9rgU0F3TAKf6rfbrBgdDQWw,right,1,0.4357,0.35,33,0.060339087,0.2169,,,,,,15,0,15,0,1,,,,,
,,679220,001,2023-07-23_21h54.18.703,arm3_q,2022.2.5,Win32,60.84575601,IwAR3i0Tne7Am76yPQHctpsUhhvHOEwv4zftyo9rgU0F3TAKf6rfbrBgdDQWw,right,1,0.4357,0.35,33,0.062929229,0.191,,,,,,16,0,16,0,1,,,,,
,,679220,001,2023-07-23_21h54.18.703,arm3_q,2022.2.5,Win32,60.84575601,IwAR3i0Tne7Am76yPQHctpsUhhvHOEwv4zftyo9rgU0F3TAKf6rfbrBgdDQWw,right,1,0.4357,0.35,33,0.090737132,0.1999,,,,,,17,0,17,0,1,,,,,
,,679220,001,2023-07-23_21h54.18.703,arm3_q,2022.2.5,Win32,60.84575601,IwAR3i0Tne7Am76yPQHctpsUhhvHOEwv4zftyo9rgU0F3TAKf6rfbrBgdDQWw,right,1,0.4357,0.35,33,0.123886293,0.2002,,,,,,18,0,18,0,1,,,,,
,,679220,001,2023-07-23_21h54.18.703,arm3_q,2022.2.5,Win32,60.84575601,IwAR3i0Tne7Am76yPQHctpsUhhvHOEwv4zftyo9rgU0F3TAKf6rfbrBgdDQWw,up,1,0.4357,0.35,33,0,0.4827,,,,,,19,0,19,0,1,,,,,
,,679220,001,2023-07-23_21h54.18.703,arm3_q,2022.2.5,Win32,60.84575601,IwAR3i0Tne7Am76yPQHctpsUhhvHOEwv4zftyo9rgU0F3TAKf6rfbrBgdDQWw,right,1,0.4357,0.35,33,-0.010428496,0.2229,,,,,,20,0,20,0,1,,,,,
,,679220,001,2023-07-23_21h54.18.703,arm3_q,2022.2.5,Win32,60.84575601,IwAR3i0Tne7Am76yPQHctpsUhhvHOEwv4zftyo9rgU0F3TAKf6rfbrBgdDQWw,right,1,0.4357,0.35,33,-0.011191517,0.1835,,,,,,21,0,21,0,1,,,,,
,,679220,001,2023-07-23_21h54.18.703,arm3_q,2022.2.5,Win32,60.84575601,IwAR3i0Tne7Am76yPQHctpsUhhvHOEwv4zftyo9rgU0F3TAKf6rfbrBgdDQWw,right,1,0.4357,0.35,33,0.016712896,0.2218,,,,,,22,0,22,0,1,,,,,
,,679220,001,2023-07-23_21h54.18.703,arm3_q,2022.2.5,Win32,60.84575601,IwAR3i0Tne7Am76yPQHctpsUhhvHOEwv4zftyo9rgU0F3TAKf6rfbrBgdDQWw,right,1,0.4357,0.35,33,0.05561974,0.1836,,,,,,23,0,23,0,1,,,,,
,,679220,001,2023-07-23_21h54.18.703,arm3_q,2022.2.5,Win32,60.84575601,IwAR3i0Tne7Am76yPQHctpsUhhvHOEwv4zftyo9rgU0F3TAKf6rfbrBgdDQWw,right,1,0.4357,0.35,33,0.052258267,0.1992,,,,,,24,0,24,0,1,,,,,
,,679220,001,2023-07-23_21h54.18.703,arm3_q,2022.2.5,Win32,60.84575601,IwAR3i0Tne7Am76yPQHctpsUhhvHOEwv4zftyo9rgU0F3TAKf6rfbrBgdDQWw,right,1,0.4357,0.35,33,0.043976326,0.2803,,,,,,25,0,25,0,1,,,,,
,,679220,001,2023-07-23_21h54.18.703,arm3_q,2022.2.5,Win32,60.84575601,IwAR3i0Tne7Am76yPQHctpsUhhvHOEwv4zftyo9rgU0F3TAKf6rfbrBgdDQWw,up,-1,0.4357,0.35,34,0,0.4964,,,,,,26,0,26,0,1,,,,,
,,679220,001,2023-07-23_21h54.18.703,arm3_q,2022.2.5,Win32,60.84575601,IwAR3i0Tne7Am76yPQHctpsUhhvHOEwv4zftyo9rgU0F3TAKf6rfbrBgdDQWw,right,-1,0.4357,0.35,34,-0.008485533,0.1714,,,,,,27,0,27,0,1,,,,,
,,679220,001,2023-07-23_21h54.18.703,arm3_q,2022.2.5,Win32,60.84575601,IwAR3i0Tne7Am76yPQHctpsUhhvHOEwv4zftyo9rgU0F3TAKf6rfbrBgdDQWw,right,-1,0.4357,0.35,34,-0.012611415,0.2164,,,,,,28,0,28,0,1,,,,,
,,679220,001,2023-07-23_21h54.18.703,arm3_q,2022.2.5,Win32,60.84575601,IwAR3i0Tne7Am76yPQHctpsUhhvHOEwv4zftyo9rgU0F3TAKf6rfbrBgdDQWw,right,-1,0.4357,0.35,34,-0.046027454,0.2009,,,,,,29,0,29,0,1,,,,,
,,679220,001,2023-07-23_21h54.18.703,arm3_q,2022.2.5,Win32,60.84575601,IwAR3i0Tne7Am76yPQHctpsUhhvHOEwv4zftyo9rgU0F3TAKf6rfbrBgdDQWw,right,-1,0.4357,0.35,34,-0.043769039,0.1897,,,,,,30,0,30,0,1,,,,,
,,679220,001,2023-07-23_21h54.18.703,arm3_q,2022.2.5,Win32,60.84575601,IwAR3i0Tne7Am76yPQHctpsUhhvHOEwv4zftyo9rgU0F3TAKf6rfbrBgdDQWw,right,-1,0.4357,0.35,34,-0.028911605,0.1998,,,,,,31,0,31,0,1,,,,,
,,679220,001,2023-07-23_21h54.18.703,arm3_q,2022.2.5,Win32,60.84575601,IwAR3i0Tne7Am76yPQHctpsUhhvHOEwv4zftyo9rgU0F3TAKf6rfbrBgdDQWw,right,-1,0.4357,0.35,34,-0.025106371,0.1999,,,,,,32,0,32,0,1,,,,,
,,679220,001,2023-07-23_21h54.18.703,arm3_q,2022.2.5,Win32,60.84575601,IwAR3i0Tne7Am76yPQHctpsUhhvHOEwv4zftyo9rgU0F3TAKf6rfbrBgdDQWw,right,-1,0.4357,0.35,34,-0.012226491,0.2164,,,,,,33,0,33,0,1,,,,,
,,679220,001,2023-07-23_21h54.18.703,arm3_q,2022.2.5,Win32,60.84575601,IwAR3i0Tne7Am76yPQHctpsUhhvHOEwv4zftyo9rgU0F3TAKf6rfbrBgdDQWw,right,-1,0.4357,0.35,34,-0.029670747,0.424,,,,,,34,0,34,0,1,,,,,
,,679220,001,2023-07-23_21h54.18.703,arm3_q,2022.2.5,Win32,60.84575601,IwAR3i0Tne7Am76yPQHctpsUhhvHOEwv4zftyo9rgU0F3TAKf6rfbrBgdDQWw,down,-1,0.4357,0.35,34,0,0.3658,,,,,,35,0,35,0,1,,,,,
,,679220,001,2023-07-23_21h54.18.703,arm3_q,2022.2.5,Win32,60.84575601,IwAR3i0Tne7Am76yPQHctpsUhhvHOEwv4zftyo9rgU0F3TAKf6rfbrBgdDQWw,right,-1,0.4357,0.35,34,0.005401718,0.2408,,,,,,36,0,36,0,1,,,,,
,,679220,001,2023-07-23_21h54.18.703,arm3_q,2022.2.5,Win32,60.84575601,IwAR3i0Tne7Am76yPQHctpsUhhvHOEwv4zftyo9rgU0F3TAKf6rfbrBgdDQWw,right,-1,0.4357,0.35,34,-0.020131787,0.2053,,,,,,37,0,37,0,1,,,,,
,,679220,001,2023-07-23_21h54.18.703,arm3_q,2022.2.5,Win32,60.84575601,IwAR3i0Tne7Am76yPQHctpsUhhvHOEwv4zftyo9rgU0F3TAKf6rfbrBgdDQWw,right,-1,0.4357,0.35,34,-0.055559623,0.2004,,,,,,38,0,38,0,1,,,,,
,,679220,001,2023-07-23_21h54.18.703,arm3_q,2022.2.5,Win32,60.84575601,IwAR3i0Tne7Am76yPQHctpsUhhvHOEwv4zftyo9rgU0F3TAKf6rfbrBgdDQWw,right,-1,0.4357,0.35,34,-0.078976336,0.1692,,,,,,39,0,39,0,1,,,,,
,,679220,001,2023-07-23_21h54.18.703,arm3_q,2022.2.5,Win32,60.84575601,IwAR3i0Tne7Am76yPQHctpsUhhvHOEwv4zftyo9rgU0F3TAKf6rfbrBgdDQWw,down,1,0.4357,0.35,35,0,0.2337,,,,,,40,0,40,0,1,,,,,
,,679220,001,2023-07-23_21h54.18.703,arm3_q,2022.2.5,Win32,60.84575601,IwAR3i0Tne7Am76yPQHctpsUhhvHOEwv4zftyo9rgU0F3TAKf6rfbrBgdDQWw,right,1,0.4357,0.35,35,0.030276168,0.3054,,,,,,41,0,41,0,1,,,,,
,,679220,001,2023-07-23_21h54.18.703,arm3_q,2022.2.5,Win32,60.84575601,IwAR3i0Tne7Am76yPQHctpsUhhvHOEwv4zftyo9rgU0F3TAKf6rfbrBgdDQWw,right,1,0.4357,0.35,35,0.03821391,0.2329,,,,,,42,0,42,0,1,,,,,
,,679220,001,2023-07-23_21h54.18.703,arm3_q,2022.2.5,Win32,60.84575601,IwAR3i0Tne7Am76yPQHctpsUhhvHOEwv4zftyo9rgU0F3TAKf6rfbrBgdDQWw,right,1,0.4357,0.35,35,0.037822752,0.2011,,,,,,43,0,43,0,1,,,,,
,,679220,001,2023-07-23_21h54.18.703,arm3_q,2022.2.5,Win32,60.84575601,IwAR3i0Tne7Am76yPQHctpsUhhvHOEwv4zftyo9rgU0F3TAKf6rfbrBgdDQWw,right,1,0.4357,0.35,35,0.019964301,0.207,,,,,,44,0,44,0,1,,,,,
,,679220,001,2023-07-23_21h54.18.703,arm3_q,2022.2.5,Win32,60.84575601,IwAR3i0Tne7Am76yPQHctpsUhhvHOEwv4zftyo9rgU0F3TAKf6rfbrBgdDQWw,right,1,0.4357,0.35,35,0.053812115,0.2165,,,,,,45,0,45,0,1,,,,,
,,679220,001,2023-07-23_21h54.18.703,arm3_q,2022.2.5,Win32,60.84575601,IwAR3i0Tne7Am76yPQHctpsUhhvHOEwv4zftyo9rgU0F3TAKf6rfbrBgdDQWw,right,1,0.4357,0.35,35,0.040716941,0.7161,,,,,,46,0,46,0,1,,,,,
,,679220,001,2023-07-23_21h54.18.703,arm3_q,2022.2.5,Win32,60.84575601,IwAR3i0Tne7Am76yPQHctpsUhhvHOEwv4zftyo9rgU0F3TAKf6rfbrBgdDQWw,right,1,0.4357,0.35,35,0.060255129,0.4135,,,,,,47,0,47,0,1,,,,,
,,679220,001,2023-07-23_21h54.18.703,arm3_q,2022.2.5,Win32,60.84575601,IwAR3i0Tne7Am76yPQHctpsUhhvHOEwv4zftyo9rgU0F3TAKf6rfbrBgdDQWw,up,1,0.4357,0.35,35,0,0.2966,,,,,,48,0,48,0,1,,,,,
,,679220,001,2023-07-23_21h54.18.703,arm3_q,2022.2.5,Win32,60.84575601,IwAR3i0Tne7Am76yPQHctpsUhhvHOEwv4zftyo9rgU0F3TAKf6rfbrBgdDQWw,right,1,0.4357,0.35,35,0.007157679,0.2162,,,,,,49,0,49,0,1,,,,,
,,679220,001,2023-07-23_21h54.18.703,arm3_q,2022.2.5,Win32,60.84575601,IwAR3i0Tne7Am76yPQHctpsUhhvHOEwv4zftyo9rgU0F3TAKf6rfbrBgdDQWw,right,1,0.4357,0.35,35,0.041826449,0.233,,,,,,50,0,50,0,1,,,,,
,,679220,001,2023-07-23_21h54.18.703,arm3_q,2022.2.5,Win32,60.84575601,IwAR3i0Tne7Am76yPQHctpsUhhvHOEwv4zftyo9rgU0F3TAKf6rfbrBgdDQWw,right,1,0.4357,0.35,35,0.052630835,0.1976,,,,,,51,0,51,0,1,,,,,
,,679220,001,2023-07-23_21h54.18.703,arm3_q,2022.2.5,Win32,60.84575601,IwAR3i0Tne7Am76yPQHctpsUhhvHOEwv4zftyo9rgU0F3TAKf6rfbrBgdDQWw,right,1,0.4357,0.35,35,0.072693618,0.1887,,,,,,52,0,52,0,1,,,,,
,,679220,001,2023-07-23_21h54.18.703,arm3_q,2022.2.5,Win32,60.84575601,IwAR3i0Tne7Am76yPQHctpsUhhvHOEwv4zftyo9rgU0F3TAKf6rfbrBgdDQWw,up,1,0.4357,0.35,35,0,0.5431,,,,,,53,0,53,0,1,,,,,
,,679220,001,2023-07-23_21h54.18.703,arm3_q,2022.2.5,Win32,60.84575601,IwAR3i0Tne7Am76yPQHctpsUhhvHOEwv4zftyo9rgU0F3TAKf6rfbrBgdDQWw,right,1,0.4357,0.35,35,-0.006457785,0.2495,,,,,,54,0,54,0,1,,,,,
,,679220,001,2023-07-23_21h54.18.703,arm3_q,2022.2.5,Win32,60.84575601,IwAR3i0Tne7Am76yPQHctpsUhhvHOEwv4zftyo9rgU0F3TAKf6rfbrBgdDQWw,right,1,0.4357,0.35,35,-0.004226125,0.2503,,,,,,55,0,55,0,1,,,,,
,,679220,001,2023-07-23_21h54.18.703,arm3_q,2022.2.5,Win32,60.84575601,IwAR3i0Tne7Am76yPQHctpsUhhvHOEwv4zftyo9rgU0F3TAKf6rfbrBgdDQWw,right,1,0.4357,0.35,35,0.013345271,0.1834,,,,,,56,0,56,0,1,,,,,
,,679220,001,2023-07-23_21h54.18.703,arm3_q,2022.2.5,Win32,60.84575601,IwAR3i0Tne7Am76yPQHctpsUhhvHOEwv4zftyo9rgU0F3TAKf6rfbrBgdDQWw,right,1,0.4357,0.35,35,0.022138668,0.2177,,,,,,57,0,57,0,1,,,,,
,,679220,001,2023-07-23_21h54.18.703,arm3_q,2022.2.5,Win32,60.84575601,IwAR3i0Tne7Am76yPQHctpsUhhvHOEwv4zftyo9rgU0F3TAKf6rfbrBgdDQWw,right,1,0.4357,0.35,35,0.023127025,0.1722,,,,,,58,0,58,0,1,,,,,
,,679220,001,2023-07-23_21h54.18.703,arm3_q,2022.2.5,Win32,60.84575601,IwAR3i0Tne7Am76yPQHctpsUhhvHOEwv4zftyo9rgU0F3TAKf6rfbrBgdDQWw,right,1,0.4357,0.35,35,-0.006490087,0.2005,,,,,,59,0,59,0,1,,,,,
,,679220,001,2023-07-23_21h54.18.703,arm3_q,2022.2.5,Win32,60.84575601,IwAR3i0Tne7Am76yPQHctpsUhhvHOEwv4zftyo9rgU0F3TAKf6rfbrBgdDQWw,right,1,0.4357,0.35,35,0.007605902,0.4531,,,,,,60,0,60,0,1,,,,,
,,679220,001,2023-07-23_21h54.18.703,arm3_q,2022.2.5,Win32,60.84575601,IwAR3i0Tne7Am76yPQHctpsUhhvHOEwv4zftyo9rgU0F3TAKf6rfbrBgdDQWw,right,1,0.4357,0.35,35,0.004349629,0.3334,,,,,,61,0,61,0,1,,,,,
,,679220,001,2023-07-23_21h54.18.703,arm3_q,2022.2.5,Win32,60.84575601,IwAR3i0Tne7Am76yPQHctpsUhhvHOEwv4zftyo9rgU0F3TAKf6rfbrBgdDQWw,right,1,0.4357,0.35,35,0.011495656,0.6293,,,,,,62,0,62,0,1,,,,,
,,679220,001,2023-07-23_21h54.18.703,arm3_q,2022.2.5,Win32,60.84575601,IwAR3i0Tne7Am76yPQHctpsUhhvHOEwv4zftyo9rgU0F3TAKf6rfbrBgdDQWw,right,1,0.4357,0.35,35,0.022362435,0.4031,,,,,,63,0,63,0,1,,,,,
,,679220,001,2023-07-23_21h54.18.703,arm3_q,2022.2.5,Win32,60.84575601,IwAR3i0Tne7Am76yPQHctpsUhhvHOEwv4zftyo9rgU0F3TAKf6rfbrBgdDQWw,right,1,0.4357,0.35,35,0.005701248,0.434,,,,,,64,0,64,0,1,,,,,
,,679220,001,2023-07-23_21h54.18.703,arm3_q,2022.2.5,Win32,60.84575601,IwAR3i0Tne7Am76yPQHctpsUhhvHOEwv4zftyo9rgU0F3TAKf6rfbrBgdDQWw,right,1,0.4357,0.35,35,0.011150595,0.5331,,,,,,65,0,65,0,1,,,,,
,,679220,001,2023-07-23_21h54.18.703,arm3_q,2022.2.5,Win32,60.84575601,IwAR3i0Tne7Am76yPQHctpsUhhvHOEwv4zftyo9rgU0F3TAKf6rfbrBgdDQWw,up,1,0.4357,0.35,36,0,1.5814,,,,,,66,0,66,0,1,,,,,
,,679220,001,2023-07-23_21h54.18.703,arm3_q,2022.2.5,Win32,60.84575601,IwAR3i0Tne7Am76yPQHctpsUhhvHOEwv4zftyo9rgU0F3TAKf6rfbrBgdDQWw,right,1,0.4357,0.35,36,-0.009339632,0.4338,,,,,,67,0,67,0,1,,,,,
,,679220,001,2023-07-23_21h54.18.703,arm3_q,2022.2.5,Win32,60.84575601,IwAR3i0Tne7Am76yPQHctpsUhhvHOEwv4zftyo9rgU0F3TAKf6rfbrBgdDQWw,right,1,0.4357,0.35,36,-0.015109075,0.2,,,,,,68,0,68,0,1,,,,,
,,679220,001,2023-07-23_21h54.18.703,arm3_q,2022.2.5,Win32,60.84575601,IwAR3i0Tne7Am76yPQHctpsUhhvHOEwv4zftyo9rgU0F3TAKf6rfbrBgdDQWw,right,1,0.4357,0.35,36,-0.03512117,0.2063,,,,,,69,0,69,0,1,,,,,
,,679220,001,2023-07-23_21h54.18.703,arm3_q,2022.2.5,Win32,60.84575601,IwAR3i0Tne7Am76yPQHctpsUhhvHOEwv4zftyo9rgU0F3TAKf6rfbrBgdDQWw,right,1,0.4357,0.35,36,0.001074626,0.2048,,,,,,70,0,70,0,1,,,,,
,,679220,001,2023-07-23_21h54.18.703,arm3_q,2022.2.5,Win32,60.84575601,IwAR3i0Tne7Am76yPQHctpsUhhvHOEwv4zftyo9rgU0F3TAKf6rfbrBgdDQWw,right,1,0.4357,0.35,36,0.015787045,0.2584,,,,,,71,0,71,0,1,,,,,
,,679220,001,2023-07-23_21h54.18.703,arm3_q,2022.2.5,Win32,60.84575601,IwAR3i0Tne7Am76yPQHctpsUhhvHOEwv4zftyo9rgU0F3TAKf6rfbrBgdDQWw,right,1,0.4357,0.35,36,0.0234717,0.3494,,,,,,72,0,72,0,1,,,,,
,,679220,001,2023-07-23_21h54.18.703,arm3_q,2022.2.5,Win32,60.84575601,IwAR3i0Tne7Am76yPQHctpsUhhvHOEwv4zftyo9rgU0F3TAKf6rfbrBgdDQWw,right,1,0.4357,0.35,36,0.011536724,0.3425,,,,,,73,0,73,0,1,,,,,
,,679220,001,2023-07-23_21h54.18.703,arm3_q,2022.2.5,Win32,60.84575601,IwAR3i0Tne7Am76yPQHctpsUhhvHOEwv4zftyo9rgU0F3TAKf6rfbrBgdDQWw,right,1,0.4357,0.35,36,0.031641699,0.4672,,,,,,74,0,74,0,1,,,,,
,,679220,001,2023-07-23_21h54.18.703,arm3_q,2022.2.5,Win32,60.84575601,IwAR3i0Tne7Am76yPQHctpsUhhvHOEwv4zftyo9rgU0F3TAKf6rfbrBgdDQWw,right,1,0.4357,0.35,36,0.031811846,0.7827,,,,,,75,0,75,0,1,,,,,
,,679220,001,2023-07-23_21h54.18.703,arm3_q,2022.2.5,Win32,60.84575601,IwAR3i0Tne7Am76yPQHctpsUhhvHOEwv4zftyo9rgU0F3TAKf6rfbrBgdDQWw,up,-1,0.4357,0.35,37,0,0.2169,,,,,,76,0,76,0,1,,,,,
