space_bar.keys,space_bar.rt,participant,session,date,expName,psychopyVersion,OS,frameRate,PROLIFIC_PID,STUDY_ID,SESSION_ID,resp.keys,state,q_prob,eps_prob,score,price,resp.rt,train.thisRepN,train.thisTrialN,train.thisN,train.thisIndex,train.ran,steps.thisRepN,steps.thisTrialN,steps.thisN,steps.thisIndex,steps.ran,blocks.thisRepN,blocks.thisTrialN,blocks.thisN,blocks.thisIndex,blocks.ran
space,32.7788,704655,001,2023-07-24_20h58.27.653,arm3_q,2022.2.5,Win32,60.14314067,61545727036ae019fdeea5df,64aeaab685a29f4ca249be02,64bec9c8c1664353a733711d,,,,,,,,,,,,,,,,,,,,,,
space,30.7167,704655,001,2023-07-24_20h58.27.653,arm3_q,2022.2.5,Win32,60.14314067,61545727036ae019fdeea5df,64aeaab685a29f4ca249be02,64bec9c8c1664353a733711d,,,,,,,,,,,,,,,,,,,,,,
space,20.5587,704655,001,2023-07-24_20h58.27.653,arm3_q,2022.2.5,Win32,60.14314067,61545727036ae019fdeea5df,64aeaab685a29f4ca249be02,64bec9c8c1664353a733711d,,,,,,,,,,,,,,,,,,,,,,
space,25.4147,704655,001,2023-07-24_20h58.27.653,arm3_q,2022.2.5,Win32,60.14314067,61545727036ae019fdeea5df,64aeaab685a29f4ca249be02,64bec9c8c1664353a733711d,,,,,,,,,,,,,,,,,,,,,,
space,35.6248,704655,001,2023-07-24_20h58.27.653,arm3_q,2022.2.5,Win32,60.14314067,61545727036ae019fdeea5df,64aeaab685a29f4ca249be02,64bec9c8c1664353a733711d,,,,,,,,,,,,,,,,,,,,,,
space,40.3775,704655,001,2023-07-24_20h58.27.653,arm3_q,2022.2.5,Win32,60.14314067,61545727036ae019fdeea5df,64aeaab685a29f4ca249be02,64bec9c8c1664353a733711d,,,,,,,,,,,,,,,,,,,,,,
space,58.0172,704655,001,2023-07-24_20h58.27.653,arm3_q,2022.2.5,Win32,60.14314067,61545727036ae019fdeea5df,64aeaab685a29f4ca249be02,64bec9c8c1664353a733711d,,,,,,,,,,,,,,,,,,,,,,
space,14.3074,704655,001,2023-07-24_20h58.27.653,arm3_q,2022.2.5,Win32,60.14314067,61545727036ae019fdeea5df,64aeaab685a29f4ca249be02,64bec9c8c1664353a733711d,,,,,,,,,,,,,,,,,,,,,,
space,18.1258,704655,001,2023-07-24_20h58.27.653,arm3_q,2022.2.5,Win32,60.14314067,61545727036ae019fdeea5df,64aeaab685a29f4ca249be02,64bec9c8c1664353a733711d,,,,,,,,,,,,,,,,,,,,,,
space,20.3155,704655,001,2023-07-24_20h58.27.653,arm3_q,2022.2.5,Win32,60.14314067,61545727036ae019fdeea5df,64aeaab685a29f4ca249be02,64bec9c8c1664353a733711d,,,,,,,,,,,,,,,,,,,,,,
,,704655,001,2023-07-24_20h58.27.653,arm3_q,2022.2.5,Win32,60.14314067,61545727036ae019fdeea5df,64aeaab685a29f4ca249be02,64bec9c8c1664353a733711d,right,-1,0.5643,0.35,0,0.002913921,8.4354,0,0,0,0,1,,,,,,,,,,
,,704655,001,2023-07-24_20h58.27.653,arm3_q,2022.2.5,Win32,60.14314067,61545727036ae019fdeea5df,64aeaab685a29f4ca249be02,64bec9c8c1664353a733711d,right,-1,0.5643,0.35,0,8.43481E-06,1.9201,1,0,1,0,1,,,,,,,,,,
,,704655,001,2023-07-24_20h58.27.653,arm3_q,2022.2.5,Win32,60.14314067,61545727036ae019fdeea5df,64aeaab685a29f4ca249be02,64bec9c8c1664353a733711d,right,-1,0.5643,0.35,0,0.007864346,0.2511,2,0,2,0,1,,,,,,,,,,
,,704655,001,2023-07-24_20h58.27.653,arm3_q,2022.2.5,Win32,60.14314067,61545727036ae019fdeea5df,64aeaab685a29f4ca249be02,64bec9c8c1664353a733711d,right,-1,0.5643,0.35,0,0.034199171,0.251,3,0,3,0,1,,,,,,,,,,
,,704655,001,2023-07-24_20h58.27.653,arm3_q,2022.2.5,Win32,60.14314067,61545727036ae019fdeea5df,64aeaab685a29f4ca249be02,64bec9c8c1664353a733711d,right,-1,0.5643,0.35,0,0.02360448,0.2667,4,0,4,0,1,,,,,,,,,,
,,704655,001,2023-07-24_20h58.27.653,arm3_q,2022.2.5,Win32,60.14314067,61545727036ae019fdeea5df,64aeaab685a29f4ca249be02,64bec9c8c1664353a733711d,right,-1,0.5643,0.35,0,0.034100128,0.3002,5,0,5,0,1,,,,,,,,,,
,,704655,001,2023-07-24_20h58.27.653,arm3_q,2022.2.5,Win32,60.14314067,61545727036ae019fdeea5df,64aeaab685a29f4ca249be02,64bec9c8c1664353a733711d,right,-1,0.5643,0.35,0,0.024845375,0.2583,6,0,6,0,1,,,,,,,,,,
,,704655,001,2023-07-24_20h58.27.653,arm3_q,2022.2.5,Win32,60.14314067,61545727036ae019fdeea5df,64aeaab685a29f4ca249be02,64bec9c8c1664353a733711d,right,-1,0.5643,0.35,0,0.026873642,0.4505,7,0,7,0,1,,,,,,,,,,
,,704655,001,2023-07-24_20h58.27.653,arm3_q,2022.2.5,Win32,60.14314067,61545727036ae019fdeea5df,64aeaab685a29f4ca249be02,64bec9c8c1664353a733711d,right,-1,0.5643,0.35,0,0.017418449,0.3942,8,0,8,0,1,,,,,,,,,,
,,704655,001,2023-07-24_20h58.27.653,arm3_q,2022.2.5,Win32,60.14314067,61545727036ae019fdeea5df,64aeaab685a29f4ca249be02,64bec9c8c1664353a733711d,right,-1,0.5643,0.35,0,-0.000281563,0.4429,9,0,9,0,1,,,,,,,,,,
,,704655,001,2023-07-24_20h58.27.653,arm3_q,2022.2.5,Win32,60.14314067,61545727036ae019fdeea5df,64aeaab685a29f4ca249be02,64bec9c8c1664353a733711d,down,-1,0.5643,0.35,0,0,2.5172,10,0,10,0,1,,,,,,,,,,
,,704655,001,2023-07-24_20h58.27.653,arm3_q,2022.2.5,Win32,60.14314067,61545727036ae019fdeea5df,64aeaab685a29f4ca249be02,64bec9c8c1664353a733711d,right,-1,0.5643,0.35,0,0.001997825,3.0111,11,0,11,0,1,,,,,,,,,,
,,704655,001,2023-07-24_20h58.27.653,arm3_q,2022.2.5,Win32,60.14314067,61545727036ae019fdeea5df,64aeaab685a29f4ca249be02,64bec9c8c1664353a733711d,right,-1,0.5643,0.35,0,-0.020816285,0.3606,12,0,12,0,1,,,,,,,,,,
,,704655,001,2023-07-24_20h58.27.653,arm3_q,2022.2.5,Win32,60.14314067,61545727036ae019fdeea5df,64aeaab685a29f4ca249be02,64bec9c8c1664353a733711d,right,-1,0.5643,0.35,0,-0.030881158,0.2579,13,0,13,0,1,,,,,,,,,,
,,704655,001,2023-07-24_20h58.27.653,arm3_q,2022.2.5,Win32,60.14314067,61545727036ae019fdeea5df,64aeaab685a29f4ca249be02,64bec9c8c1664353a733711d,right,-1,0.5643,0.35,0,-0.015829795,0.2838,14,0,14,0,1,,,,,,,,,,
,,704655,001,2023-07-24_20h58.27.653,arm3_q,2022.2.5,Win32,60.14314067,61545727036ae019fdeea5df,64aeaab685a29f4ca249be02,64bec9c8c1664353a733711d,right,-1,0.5643,0.35,0,-0.050563308,0.3336,15,0,15,0,1,,,,,,,,,,
,,704655,001,2023-07-24_20h58.27.653,arm3_q,2022.2.5,Win32,60.14314067,61545727036ae019fdeea5df,64aeaab685a29f4ca249be02,64bec9c8c1664353a733711d,right,-1,0.5643,0.35,0,-0.037606724,0.3057,16,0,16,0,1,,,,,,,,,,
,,704655,001,2023-07-24_20h58.27.653,arm3_q,2022.2.5,Win32,60.14314067,61545727036ae019fdeea5df,64aeaab685a29f4ca249be02,64bec9c8c1664353a733711d,right,-1,0.5643,0.35,0,-0.070054418,0.3169,17,0,17,0,1,,,,,,,,,,
,,704655,001,2023-07-24_20h58.27.653,arm3_q,2022.2.5,Win32,60.14314067,61545727036ae019fdeea5df,64aeaab685a29f4ca249be02,64bec9c8c1664353a733711d,right,-1,0.5643,0.35,0,-0.079838993,0.3427,18,0,18,0,1,,,,,,,,,,
,,704655,001,2023-07-24_20h58.27.653,arm3_q,2022.2.5,Win32,60.14314067,61545727036ae019fdeea5df,64aeaab685a29f4ca249be02,64bec9c8c1664353a733711d,right,-1,0.5643,0.35,0,-0.062443023,0.5182,19,0,19,0,1,,,,,,,,,,
,,704655,001,2023-07-24_20h58.27.653,arm3_q,2022.2.5,Win32,60.14314067,61545727036ae019fdeea5df,64aeaab685a29f4ca249be02,64bec9c8c1664353a733711d,right,-1,0.5643,0.35,0,-0.080336695,0.5335,20,0,20,0,1,,,,,,,,,,
,,704655,001,2023-07-24_20h58.27.653,arm3_q,2022.2.5,Win32,60.14314067,61545727036ae019fdeea5df,64aeaab685a29f4ca249be02,64bec9c8c1664353a733711d,right,-1,0.5643,0.35,0,-0.086116221,0.4727,21,0,21,0,1,,,,,,,,,,
,,704655,001,2023-07-24_20h58.27.653,arm3_q,2022.2.5,Win32,60.14314067,61545727036ae019fdeea5df,64aeaab685a29f4ca249be02,64bec9c8c1664353a733711d,down,-1,0.5643,0.35,1,0,1.5916,22,0,22,0,1,,,,,,,,,,
,,704655,001,2023-07-24_20h58.27.653,arm3_q,2022.2.5,Win32,60.14314067,61545727036ae019fdeea5df,64aeaab685a29f4ca249be02,64bec9c8c1664353a733711d,right,-1,0.5643,0.35,1,-0.022066506,2.1334,23,0,23,0,1,,,,,,,,,,
,,704655,001,2023-07-24_20h58.27.653,arm3_q,2022.2.5,Win32,60.14314067,61545727036ae019fdeea5df,64aeaab685a29f4ca249be02,64bec9c8c1664353a733711d,right,-1,0.5643,0.35,1,-0.021941524,0.3069,24,0,24,0,1,,,,,,,,,,
,,704655,001,2023-07-24_20h58.27.653,arm3_q,2022.2.5,Win32,60.14314067,61545727036ae019fdeea5df,64aeaab685a29f4ca249be02,64bec9c8c1664353a733711d,right,-1,0.5643,0.35,1,-0.063489134,0.467,25,0,25,0,1,,,,,,,,,,
,,704655,001,2023-07-24_20h58.27.653,arm3_q,2022.2.5,Win32,60.14314067,61545727036ae019fdeea5df,64aeaab685a29f4ca249be02,64bec9c8c1664353a733711d,right,-1,0.5643,0.35,1,-0.058157555,0.4071,26,0,26,0,1,,,,,,,,,,
,,704655,001,2023-07-24_20h58.27.653,arm3_q,2022.2.5,Win32,60.14314067,61545727036ae019fdeea5df,64aeaab685a29f4ca249be02,64bec9c8c1664353a733711d,right,-1,0.5643,0.35,1,-0.057008937,0.3932,27,0,27,0,1,,,,,,,,,,
,,704655,001,2023-07-24_20h58.27.653,arm3_q,2022.2.5,Win32,60.14314067,61545727036ae019fdeea5df,64aeaab685a29f4ca249be02,64bec9c8c1664353a733711d,right,-1,0.5643,0.35,1,-0.069753988,0.8337,28,0,28,0,1,,,,,,,,,,
,,704655,001,2023-07-24_20h58.27.653,arm3_q,2022.2.5,Win32,60.14314067,61545727036ae019fdeea5df,64aeaab685a29f4ca249be02,64bec9c8c1664353a733711d,right,-1,0.5643,0.35,1,-0.103262533,0.7676,29,0,29,0,1,,,,,,,,,,
,,704655,001,2023-07-24_20h58.27.653,arm3_q,2022.2.5,Win32,60.14314067,61545727036ae019fdeea5df,64aeaab685a29f4ca249be02,64bec9c8c1664353a733711d,right,-1,0.5643,0.35,1,-0.09570456,0.5671,30,0,30,0,1,,,,,,,,,,
,,704655,001,2023-07-24_20h58.27.653,arm3_q,2022.2.5,Win32,60.14314067,61545727036ae019fdeea5df,64aeaab685a29f4ca249be02,64bec9c8c1664353a733711d,down,1,0.5643,0.35,2,0,1.1138,31,0,31,0,1,,,,,,,,,,
,,704655,001,2023-07-24_20h58.27.653,arm3_q,2022.2.5,Win32,60.14314067,61545727036ae019fdeea5df,64aeaab685a29f4ca249be02,64bec9c8c1664353a733711d,up,1,0.5643,0.35,3,0,3.6673,32,0,32,0,1,,,,,,,,,,
,,704655,001,2023-07-24_20h58.27.653,arm3_q,2022.2.5,Win32,60.14314067,61545727036ae019fdeea5df,64aeaab685a29f4ca249be02,64bec9c8c1664353a733711d,down,1,0.5643,0.35,2,0,2.1798,33,0,33,0,1,,,,,,,,,,
,,704655,001,2023-07-24_20h58.27.653,arm3_q,2022.2.5,Win32,60.14314067,61545727036ae019fdeea5df,64aeaab685a29f4ca249be02,64bec9c8c1664353a733711d,right,1,0.5643,0.35,2,-0.008884231,1.8935,34,0,34,0,1,,,,,,,,,,
,,704655,001,2023-07-24_20h58.27.653,arm3_q,2022.2.5,Win32,60.14314067,61545727036ae019fdeea5df,64aeaab685a29f4ca249be02,64bec9c8c1664353a733711d,right,1,0.5643,0.35,2,0.038622691,0.3502,35,0,35,0,1,,,,,,,,,,
,,704655,001,2023-07-24_20h58.27.653,arm3_q,2022.2.5,Win32,60.14314067,61545727036ae019fdeea5df,64aeaab685a29f4ca249be02,64bec9c8c1664353a733711d,right,1,0.5643,0.35,2,0.039470083,0.5503,36,0,36,0,1,,,,,,,,,,
,,704655,001,2023-07-24_20h58.27.653,arm3_q,2022.2.5,Win32,60.14314067,61545727036ae019fdeea5df,64aeaab685a29f4ca249be02,64bec9c8c1664353a733711d,right,1,0.5643,0.35,2,0.087153434,0.4767,37,0,37,0,1,,,,,,,,,,
,,704655,001,2023-07-24_20h58.27.653,arm3_q,2022.2.5,Win32,60.14314067,61545727036ae019fdeea5df,64aeaab685a29f4ca249be02,64bec9c8c1664353a733711d,up,-1,0.5643,0.35,2,0,1.3317,38,0,38,0,1,,,,,,,,,,
,,704655,001,2023-07-24_20h58.27.653,arm3_q,2022.2.5,Win32,60.14314067,61545727036ae019fdeea5df,64aeaab685a29f4ca249be02,64bec9c8c1664353a733711d,right,-1,0.5643,0.35,2,-0.008489003,2.0708,39,0,39,0,1,,,,,,,,,,
,,704655,001,2023-07-24_20h58.27.653,arm3_q,2022.2.5,Win32,60.14314067,61545727036ae019fdeea5df,64aeaab685a29f4ca249be02,64bec9c8c1664353a733711d,right,-1,0.5643,0.35,2,-0.003923408,0.455,40,0,40,0,1,,,,,,,,,,
,,704655,001,2023-07-24_20h58.27.653,arm3_q,2022.2.5,Win32,60.14314067,61545727036ae019fdeea5df,64aeaab685a29f4ca249be02,64bec9c8c1664353a733711d,right,-1,0.5643,0.35,2,-0.01879083,0.8612,41,0,41,0,1,,,,,,,,,,
,,704655,001,2023-07-24_20h58.27.653,arm3_q,2022.2.5,Win32,60.14314067,61545727036ae019fdeea5df,64aeaab685a29f4ca249be02,64bec9c8c1664353a733711d,right,-1,0.5643,0.35,2,-0.025993602,0.9807,42,0,42,0,1,,,,,,,,,,
,,704655,001,2023-07-24_20h58.27.653,arm3_q,2022.2.5,Win32,60.14314067,61545727036ae019fdeea5df,64aeaab685a29f4ca249be02,64bec9c8c1664353a733711d,down,1,0.5643,0.35,3,0,1.1626,43,0,43,0,1,,,,,,,,,,
,,704655,001,2023-07-24_20h58.27.653,arm3_q,2022.2.5,Win32,60.14314067,61545727036ae019fdeea5df,64aeaab685a29f4ca249be02,64bec9c8c1664353a733711d,right,1,0.5643,0.35,3,-0.012107561,4.275,44,0,44,0,1,,,,,,,,,,
,,704655,001,2023-07-24_20h58.27.653,arm3_q,2022.2.5,Win32,60.14314067,61545727036ae019fdeea5df,64aeaab685a29f4ca249be02,64bec9c8c1664353a733711d,right,1,0.5643,0.35,3,0.00203087,0.5725,45,0,45,0,1,,,,,,,,,,
,,704655,001,2023-07-24_20h58.27.653,arm3_q,2022.2.5,Win32,60.14314067,61545727036ae019fdeea5df,64aeaab685a29f4ca249be02,64bec9c8c1664353a733711d,right,1,0.5643,0.35,3,0.008710064,0.6528,46,0,46,0,1,,,,,,,,,,
,,704655,001,2023-07-24_20h58.27.653,arm3_q,2022.2.5,Win32,60.14314067,61545727036ae019fdeea5df,64aeaab685a29f4ca249be02,64bec9c8c1664353a733711d,right,1,0.5643,0.35,3,-0.011605706,0.6209,47,0,47,0,1,,,,,,,,,,
,,704655,001,2023-07-24_20h58.27.653,arm3_q,2022.2.5,Win32,60.14314067,61545727036ae019fdeea5df,64aeaab685a29f4ca249be02,64bec9c8c1664353a733711d,up,1,0.5643,0.35,4,0,1.3557,48,0,48,0,1,,,,,,,,,,
,,704655,001,2023-07-24_20h58.27.653,arm3_q,2022.2.5,Win32,60.14314067,61545727036ae019fdeea5df,64aeaab685a29f4ca249be02,64bec9c8c1664353a733711d,right,1,0.5643,0.35,4,0.023570607,2.3634,49,0,49,0,1,,,,,,,,,,
space,3.9966,704655,001,2023-07-24_20h58.27.653,arm3_q,2022.2.5,Win32,60.14314067,61545727036ae019fdeea5df,64aeaab685a29f4ca249be02,64bec9c8c1664353a733711d,,,,,,,,,,,,,,,,,,,,,,
space,5.9223,704655,001,2023-07-24_20h58.27.653,arm3_q,2022.2.5,Win32,60.14314067,61545727036ae019fdeea5df,64aeaab685a29f4ca249be02,64bec9c8c1664353a733711d,right,1,0.3071,0.35,0,0.02590118,1.7849,,,,,,0,0,0,0,1,,,,,
,,704655,001,2023-07-24_20h58.27.653,arm3_q,2022.2.5,Win32,60.14314067,61545727036ae019fdeea5df,64aeaab685a29f4ca249be02,64bec9c8c1664353a733711d,right,1,0.3071,0.35,0,0.028017943,0.8745,,,,,,1,0,1,0,1,,,,,
,,704655,001,2023-07-24_20h58.27.653,arm3_q,2022.2.5,Win32,60.14314067,61545727036ae019fdeea5df,64aeaab685a29f4ca249be02,64bec9c8c1664353a733711d,right,1,0.3071,0.35,0,0.036536256,0.7832,,,,,,2,0,2,0,1,,,,,
,,704655,001,2023-07-24_20h58.27.653,arm3_q,2022.2.5,Win32,60.14314067,61545727036ae019fdeea5df,64aeaab685a29f4ca249be02,64bec9c8c1664353a733711d,right,1,0.3071,0.35,0,0.033460045,1.0832,,,,,,3,0,3,0,1,,,,,
,,704655,001,2023-07-24_20h58.27.653,arm3_q,2022.2.5,Win32,60.14314067,61545727036ae019fdeea5df,64aeaab685a29f4ca249be02,64bec9c8c1664353a733711d,right,1,0.3071,0.35,0,0.049818726,0.6612,,,,,,4,0,4,0,1,,,,,
,,704655,001,2023-07-24_20h58.27.653,arm3_q,2022.2.5,Win32,60.14314067,61545727036ae019fdeea5df,64aeaab685a29f4ca249be02,64bec9c8c1664353a733711d,up,1,0.3071,0.35,0,0,0.9477,,,,,,5,0,5,0,1,,,,,
,,704655,001,2023-07-24_20h58.27.653,arm3_q,2022.2.5,Win32,60.14314067,61545727036ae019fdeea5df,64aeaab685a29f4ca249be02,64bec9c8c1664353a733711d,right,1,0.3071,0.35,0,0.020226121,1.2964,,,,,,6,0,6,0,1,,,,,
,,704655,001,2023-07-24_20h58.27.653,arm3_q,2022.2.5,Win32,60.14314067,61545727036ae019fdeea5df,64aeaab685a29f4ca249be02,64bec9c8c1664353a733711d,right,1,0.3071,0.35,0,0.029355007,1.0315,,,,,,7,0,7,0,1,,,,,
,,704655,001,2023-07-24_20h58.27.653,arm3_q,2022.2.5,Win32,60.14314067,61545727036ae019fdeea5df,64aeaab685a29f4ca249be02,64bec9c8c1664353a733711d,right,1,0.3071,0.35,0,0.036869159,0.8276,,,,,,8,0,8,0,1,,,,,
,,704655,001,2023-07-24_20h58.27.653,arm3_q,2022.2.5,Win32,60.14314067,61545727036ae019fdeea5df,64aeaab685a29f4ca249be02,64bec9c8c1664353a733711d,right,1,0.3071,0.35,0,0.065731531,0.6686,,,,,,9,0,9,0,1,,,,,
,,704655,001,2023-07-24_20h58.27.653,arm3_q,2022.2.5,Win32,60.14314067,61545727036ae019fdeea5df,64aeaab685a29f4ca249be02,64bec9c8c1664353a733711d,right,1,0.3071,0.35,0,0.067108733,0.6419,,,,,,10,0,10,0,1,,,,,
,,704655,001,2023-07-24_20h58.27.653,arm3_q,2022.2.5,Win32,60.14314067,61545727036ae019fdeea5df,64aeaab685a29f4ca249be02,64bec9c8c1664353a733711d,right,1,0.3071,0.35,0,0.042154214,0.6173,,,,,,11,0,11,0,1,,,,,
,,704655,001,2023-07-24_20h58.27.653,arm3_q,2022.2.5,Win32,60.14314067,61545727036ae019fdeea5df,64aeaab685a29f4ca249be02,64bec9c8c1664353a733711d,right,1,0.3071,0.35,0,0.045699266,0.8463,,,,,,12,0,12,0,1,,,,,
,,704655,001,2023-07-24_20h58.27.653,arm3_q,2022.2.5,Win32,60.14314067,61545727036ae019fdeea5df,64aeaab685a29f4ca249be02,64bec9c8c1664353a733711d,up,-1,0.3071,0.35,0,0,0.8832,,,,,,13,0,13,0,1,,,,,
,,704655,001,2023-07-24_20h58.27.653,arm3_q,2022.2.5,Win32,60.14314067,61545727036ae019fdeea5df,64aeaab685a29f4ca249be02,64bec9c8c1664353a733711d,right,-1,0.3071,0.35,0,-0.032348839,1.247,,,,,,14,0,14,0,1,,,,,
,,704655,001,2023-07-24_20h58.27.653,arm3_q,2022.2.5,Win32,60.14314067,61545727036ae019fdeea5df,64aeaab685a29f4ca249be02,64bec9c8c1664353a733711d,right,-1,0.3071,0.35,0,-0.061288467,0.7524,,,,,,15,0,15,0,1,,,,,
,,704655,001,2023-07-24_20h58.27.653,arm3_q,2022.2.5,Win32,60.14314067,61545727036ae019fdeea5df,64aeaab685a29f4ca249be02,64bec9c8c1664353a733711d,right,-1,0.3071,0.35,0,-0.120097111,0.7518,,,,,,16,0,16,0,1,,,,,
,,704655,001,2023-07-24_20h58.27.653,arm3_q,2022.2.5,Win32,60.14314067,61545727036ae019fdeea5df,64aeaab685a29f4ca249be02,64bec9c8c1664353a733711d,right,-1,0.3071,0.35,0,-0.097053276,0.6379,,,,,,17,0,17,0,1,,,,,
,,704655,001,2023-07-24_20h58.27.653,arm3_q,2022.2.5,Win32,60.14314067,61545727036ae019fdeea5df,64aeaab685a29f4ca249be02,64bec9c8c1664353a733711d,right,-1,0.3071,0.35,0,-0.096113709,0.701,,,,,,18,0,18,0,1,,,,,
,,704655,001,2023-07-24_20h58.27.653,arm3_q,2022.2.5,Win32,60.14314067,61545727036ae019fdeea5df,64aeaab685a29f4ca249be02,64bec9c8c1664353a733711d,right,-1,0.3071,0.35,0,-0.104388541,0.7198,,,,,,19,0,19,0,1,,,,,
,,704655,001,2023-07-24_20h58.27.653,arm3_q,2022.2.5,Win32,60.14314067,61545727036ae019fdeea5df,64aeaab685a29f4ca249be02,64bec9c8c1664353a733711d,right,-1,0.3071,0.35,0,-0.117703393,0.7314,,,,,,20,0,20,0,1,,,,,
,,704655,001,2023-07-24_20h58.27.653,arm3_q,2022.2.5,Win32,60.14314067,61545727036ae019fdeea5df,64aeaab685a29f4ca249be02,64bec9c8c1664353a733711d,down,-1,0.3071,0.35,0,0,0.716,,,,,,21,0,21,0,1,,,,,
,,704655,001,2023-07-24_20h58.27.653,arm3_q,2022.2.5,Win32,60.14314067,61545727036ae019fdeea5df,64aeaab685a29f4ca249be02,64bec9c8c1664353a733711d,right,-1,0.3071,0.35,0,-0.037150358,1.047,,,,,,22,0,22,0,1,,,,,
,,704655,001,2023-07-24_20h58.27.653,arm3_q,2022.2.5,Win32,60.14314067,61545727036ae019fdeea5df,64aeaab685a29f4ca249be02,64bec9c8c1664353a733711d,right,-1,0.3071,0.35,0,-0.061391937,0.8658,,,,,,23,0,23,0,1,,,,,
,,704655,001,2023-07-24_20h58.27.653,arm3_q,2022.2.5,Win32,60.14314067,61545727036ae019fdeea5df,64aeaab685a29f4ca249be02,64bec9c8c1664353a733711d,right,-1,0.3071,0.35,0,-0.074448986,0.8314,,,,,,24,0,24,0,1,,,,,
,,704655,001,2023-07-24_20h58.27.653,arm3_q,2022.2.5,Win32,60.14314067,61545727036ae019fdeea5df,64aeaab685a29f4ca249be02,64bec9c8c1664353a733711d,right,-1,0.3071,0.35,0,-0.103245699,0.7405,,,,,,25,0,25,0,1,,,,,
,,704655,001,2023-07-24_20h58.27.653,arm3_q,2022.2.5,Win32,60.14314067,61545727036ae019fdeea5df,64aeaab685a29f4ca249be02,64bec9c8c1664353a733711d,right,-1,0.3071,0.35,0,-0.103430187,0.7499,,,,,,26,0,26,0,1,,,,,
,,704655,001,2023-07-24_20h58.27.653,arm3_q,2022.2.5,Win32,60.14314067,61545727036ae019fdeea5df,64aeaab685a29f4ca249be02,64bec9c8c1664353a733711d,right,-1,0.3071,0.35,0,-0.12788354,0.7896,,,,,,27,0,27,0,1,,,,,
,,704655,001,2023-07-24_20h58.27.653,arm3_q,2022.2.5,Win32,60.14314067,61545727036ae019fdeea5df,64aeaab685a29f4ca249be02,64bec9c8c1664353a733711d,down,1,0.3071,0.35,1,0,0.3842,,,,,,28,0,28,0,1,,,,,
,,704655,001,2023-07-24_20h58.27.653,arm3_q,2022.2.5,Win32,60.14314067,61545727036ae019fdeea5df,64aeaab685a29f4ca249be02,64bec9c8c1664353a733711d,right,1,0.3071,0.35,1,0.0182234,1.0827,,,,,,29,0,29,0,1,,,,,
,,704655,001,2023-07-24_20h58.27.653,arm3_q,2022.2.5,Win32,60.14314067,61545727036ae019fdeea5df,64aeaab685a29f4ca249be02,64bec9c8c1664353a733711d,right,1,0.3071,0.35,1,0.00962055,1.0781,,,,,,30,0,30,0,1,,,,,
,,704655,001,2023-07-24_20h58.27.653,arm3_q,2022.2.5,Win32,60.14314067,61545727036ae019fdeea5df,64aeaab685a29f4ca249be02,64bec9c8c1664353a733711d,right,1,0.3071,0.35,1,0.031964132,0.7485,,,,,,31,0,31,0,1,,,,,
,,704655,001,2023-07-24_20h58.27.653,arm3_q,2022.2.5,Win32,60.14314067,61545727036ae019fdeea5df,64aeaab685a29f4ca249be02,64bec9c8c1664353a733711d,right,1,0.3071,0.35,1,0.052273588,0.719,,,,,,32,0,32,0,1,,,,,
,,704655,001,2023-07-24_20h58.27.653,arm3_q,2022.2.5,Win32,60.14314067,61545727036ae019fdeea5df,64aeaab685a29f4ca249be02,64bec9c8c1664353a733711d,right,1,0.3071,0.35,1,0.090173326,0.6794,,,,,,33,0,33,0,1,,,,,
,,704655,001,2023-07-24_20h58.27.653,arm3_q,2022.2.5,Win32,60.14314067,61545727036ae019fdeea5df,64aeaab685a29f4ca249be02,64bec9c8c1664353a733711d,right,1,0.3071,0.35,1,0.088885849,0.6755,,,,,,34,0,34,0,1,,,,,
,,704655,001,2023-07-24_20h58.27.653,arm3_q,2022.2.5,Win32,60.14314067,61545727036ae019fdeea5df,64aeaab685a29f4ca249be02,64bec9c8c1664353a733711d,right,1,0.3071,0.35,1,0.080735563,0.7315,,,,,,35,0,35,0,1,,,,,
,,704655,001,2023-07-24_20h58.27.653,arm3_q,2022.2.5,Win32,60.14314067,61545727036ae019fdeea5df,64aeaab685a29f4ca249be02,64bec9c8c1664353a733711d,up,1,0.3071,0.35,1,0,1.0804,,,,,,36,0,36,0,1,,,,,
,,704655,001,2023-07-24_20h58.27.653,arm3_q,2022.2.5,Win32,60.14314067,61545727036ae019fdeea5df,64aeaab685a29f4ca249be02,64bec9c8c1664353a733711d,right,1,0.3071,0.35,1,-0.03911854,0.8521,,,,,,37,0,37,0,1,,,,,
,,704655,001,2023-07-24_20h58.27.653,arm3_q,2022.2.5,Win32,60.14314067,61545727036ae019fdeea5df,64aeaab685a29f4ca249be02,64bec9c8c1664353a733711d,right,1,0.3071,0.35,1,-0.056193834,0.7817,,,,,,38,0,38,0,1,,,,,
,,704655,001,2023-07-24_20h58.27.653,arm3_q,2022.2.5,Win32,60.14314067,61545727036ae019fdeea5df,64aeaab685a29f4ca249be02,64bec9c8c1664353a733711d,right,1,0.3071,0.35,1,-0.045375742,0.855,,,,,,39,0,39,0,1,,,,,
,,704655,001,2023-07-24_20h58.27.653,arm3_q,2022.2.5,Win32,60.14314067,61545727036ae019fdeea5df,64aeaab685a29f4ca249be02,64bec9c8c1664353a733711d,right,1,0.3071,0.35,1,-0.057528722,0.7324,,,,,,40,0,40,0,1,,,,,
,,704655,001,2023-07-24_20h58.27.653,arm3_q,2022.2.5,Win32,60.14314067,61545727036ae019fdeea5df,64aeaab685a29f4ca249be02,64bec9c8c1664353a733711d,right,1,0.3071,0.35,1,-0.060538546,0.7218,,,,,,41,0,41,0,1,,,,,
,,704655,001,2023-07-24_20h58.27.653,arm3_q,2022.2.5,Win32,60.14314067,61545727036ae019fdeea5df,64aeaab685a29f4ca249be02,64bec9c8c1664353a733711d,right,1,0.3071,0.35,1,-0.043110821,0.6399,,,,,,42,0,42,0,1,,,,,
,,704655,001,2023-07-24_20h58.27.653,arm3_q,2022.2.5,Win32,60.14314067,61545727036ae019fdeea5df,64aeaab685a29f4ca249be02,64bec9c8c1664353a733711d,up,1,0.3071,0.35,1,0,0.8656,,,,,,43,0,43,0,1,,,,,
,,704655,001,2023-07-24_20h58.27.653,arm3_q,2022.2.5,Win32,60.14314067,61545727036ae019fdeea5df,64aeaab685a29f4ca249be02,64bec9c8c1664353a733711d,right,1,0.3071,0.35,1,-0.003972585,0.89,,,,,,44,0,44,0,1,,,,,
,,704655,001,2023-07-24_20h58.27.653,arm3_q,2022.2.5,Win32,60.14314067,61545727036ae019fdeea5df,64aeaab685a29f4ca249be02,64bec9c8c1664353a733711d,right,1,0.3071,0.35,1,-0.001041919,1.0468,,,,,,45,0,45,0,1,,,,,
,,704655,001,2023-07-24_20h58.27.653,arm3_q,2022.2.5,Win32,60.14314067,61545727036ae019fdeea5df,64aeaab685a29f4ca249be02,64bec9c8c1664353a733711d,right,1,0.3071,0.35,1,-0.013785719,0.6993,,,,,,46,0,46,0,1,,,,,
,,704655,001,2023-07-24_20h58.27.653,arm3_q,2022.2.5,Win32,60.14314067,61545727036ae019fdeea5df,64aeaab685a29f4ca249be02,64bec9c8c1664353a733711d,right,1,0.3071,0.35,1,-0.000202576,0.6491,,,,,,47,0,47,0,1,,,,,
,,704655,001,2023-07-24_20h58.27.653,arm3_q,2022.2.5,Win32,60.14314067,61545727036ae019fdeea5df,64aeaab685a29f4ca249be02,64bec9c8c1664353a733711d,right,1,0.3071,0.35,1,0.037274294,1.2497,,,,,,48,0,48,0,1,,,,,
,,704655,001,2023-07-24_20h58.27.653,arm3_q,2022.2.5,Win32,60.14314067,61545727036ae019fdeea5df,64aeaab685a29f4ca249be02,64bec9c8c1664353a733711d,right,1,0.3071,0.35,1,0.028437057,0.5822,,,,,,49,0,49,0,1,,,,,
,,704655,001,2023-07-24_20h58.27.653,arm3_q,2022.2.5,Win32,60.14314067,61545727036ae019fdeea5df,64aeaab685a29f4ca249be02,64bec9c8c1664353a733711d,right,1,0.3071,0.35,1,0.058884828,0.5833,,,,,,50,0,50,0,1,,,,,
,,704655,001,2023-07-24_20h58.27.653,arm3_q,2022.2.5,Win32,60.14314067,61545727036ae019fdeea5df,64aeaab685a29f4ca249be02,64bec9c8c1664353a733711d,right,1,0.3071,0.35,1,0.039560893,0.6995,,,,,,51,0,51,0,1,,,,,
,,704655,001,2023-07-24_20h58.27.653,arm3_q,2022.2.5,Win32,60.14314067,61545727036ae019fdeea5df,64aeaab685a29f4ca249be02,64bec9c8c1664353a733711d,right,1,0.3071,0.35,1,0.033550236,0.6141,,,,,,52,0,52,0,1,,,,,
,,704655,001,2023-07-24_20h58.27.653,arm3_q,2022.2.5,Win32,60.14314067,61545727036ae019fdeea5df,64aeaab685a29f4ca249be02,64bec9c8c1664353a733711d,up,1,0.3071,0.35,1,0,0.6497,,,,,,53,0,53,0,1,,,,,
,,704655,001,2023-07-24_20h58.27.653,arm3_q,2022.2.5,Win32,60.14314067,61545727036ae019fdeea5df,64aeaab685a29f4ca249be02,64bec9c8c1664353a733711d,right,1,0.3071,0.35,1,0.01415232,0.7829,,,,,,54,0,54,0,1,,,,,
,,704655,001,2023-07-24_20h58.27.653,arm3_q,2022.2.5,Win32,60.14314067,61545727036ae019fdeea5df,64aeaab685a29f4ca249be02,64bec9c8c1664353a733711d,right,1,0.3071,0.35,1,0.038442097,0.782,,,,,,55,0,55,0,1,,,,,
,,704655,001,2023-07-24_20h58.27.653,arm3_q,2022.2.5,Win32,60.14314067,61545727036ae019fdeea5df,64aeaab685a29f4ca249be02,64bec9c8c1664353a733711d,right,1,0.3071,0.35,1,0.043590987,0.6131,,,,,,56,0,56,0,1,,,,,
,,704655,001,2023-07-24_20h58.27.653,arm3_q,2022.2.5,Win32,60.14314067,61545727036ae019fdeea5df,64aeaab685a29f4ca249be02,64bec9c8c1664353a733711d,right,1,0.3071,0.35,1,0.050403407,0.7367,,,,,,57,0,57,0,1,,,,,
,,704655,001,2023-07-24_20h58.27.653,arm3_q,2022.2.5,Win32,60.14314067,61545727036ae019fdeea5df,64aeaab685a29f4ca249be02,64bec9c8c1664353a733711d,right,1,0.3071,0.35,1,0.053834592,0.5983,,,,,,58,0,58,0,1,,,,,
,,704655,001,2023-07-24_20h58.27.653,arm3_q,2022.2.5,Win32,60.14314067,61545727036ae019fdeea5df,64aeaab685a29f4ca249be02,64bec9c8c1664353a733711d,right,1,0.3071,0.35,1,0.076562614,0.5496,,,,,,59,0,59,0,1,,,,,
,,704655,001,2023-07-24_20h58.27.653,arm3_q,2022.2.5,Win32,60.14314067,61545727036ae019fdeea5df,64aeaab685a29f4ca249be02,64bec9c8c1664353a733711d,up,1,0.3071,0.35,1,0,0.6816,,,,,,60,0,60,0,1,,,,,
,,704655,001,2023-07-24_20h58.27.653,arm3_q,2022.2.5,Win32,60.14314067,61545727036ae019fdeea5df,64aeaab685a29f4ca249be02,64bec9c8c1664353a733711d,right,1,0.3071,0.35,1,0.03044215,0.8132,,,,,,61,0,61,0,1,,,,,
,,704655,001,2023-07-24_20h58.27.653,arm3_q,2022.2.5,Win32,60.14314067,61545727036ae019fdeea5df,64aeaab685a29f4ca249be02,64bec9c8c1664353a733711d,right,1,0.3071,0.35,1,0.006778379,0.5818,,,,,,62,0,62,0,1,,,,,
,,704655,001,2023-07-24_20h58.27.653,arm3_q,2022.2.5,Win32,60.14314067,61545727036ae019fdeea5df,64aeaab685a29f4ca249be02,64bec9c8c1664353a733711d,right,1,0.3071,0.35,1,0.026799348,0.7135,,,,,,63,0,63,0,1,,,,,
,,704655,001,2023-07-24_20h58.27.653,arm3_q,2022.2.5,Win32,60.14314067,61545727036ae019fdeea5df,64aeaab685a29f4ca249be02,64bec9c8c1664353a733711d,right,1,0.3071,0.35,1,0.030971502,0.6481,,,,,,64,0,64,0,1,,,,,
,,704655,001,2023-07-24_20h58.27.653,arm3_q,2022.2.5,Win32,60.14314067,61545727036ae019fdeea5df,64aeaab685a29f4ca249be02,64bec9c8c1664353a733711d,right,1,0.3071,0.35,1,0.053921385,0.7143,,,,,,65,0,65,0,1,,,,,
,,704655,001,2023-07-24_20h58.27.653,arm3_q,2022.2.5,Win32,60.14314067,61545727036ae019fdeea5df,64aeaab685a29f4ca249be02,64bec9c8c1664353a733711d,right,1,0.3071,0.35,1,0.069197443,0.7665,,,,,,66,0,66,0,1,,,,,
,,704655,001,2023-07-24_20h58.27.653,arm3_q,2022.2.5,Win32,60.14314067,61545727036ae019fdeea5df,64aeaab685a29f4ca249be02,64bec9c8c1664353a733711d,right,1,0.3071,0.35,1,0.078995521,0.7395,,,,,,67,0,67,0,1,,,,,
,,704655,001,2023-07-24_20h58.27.653,arm3_q,2022.2.5,Win32,60.14314067,61545727036ae019fdeea5df,64aeaab685a29f4ca249be02,64bec9c8c1664353a733711d,right,1,0.3071,0.35,1,0.091753007,0.6813,,,,,,68,0,68,0,1,,,,,
,,704655,001,2023-07-24_20h58.27.653,arm3_q,2022.2.5,Win32,60.14314067,61545727036ae019fdeea5df,64aeaab685a29f4ca249be02,64bec9c8c1664353a733711d,up,1,0.3071,0.35,1,0,0.53,,,,,,69,0,69,0,1,,,,,
,,704655,001,2023-07-24_20h58.27.653,arm3_q,2022.2.5,Win32,60.14314067,61545727036ae019fdeea5df,64aeaab685a29f4ca249be02,64bec9c8c1664353a733711d,right,1,0.3071,0.35,1,0.017679362,0.8047,,,,,,70,0,70,0,1,,,,,
,,704655,001,2023-07-24_20h58.27.653,arm3_q,2022.2.5,Win32,60.14314067,61545727036ae019fdeea5df,64aeaab685a29f4ca249be02,64bec9c8c1664353a733711d,right,1,0.3071,0.35,1,0.04256972,0.664,,,,,,71,0,71,0,1,,,,,
,,704655,001,2023-07-24_20h58.27.653,arm3_q,2022.2.5,Win32,60.14314067,61545727036ae019fdeea5df,64aeaab685a29f4ca249be02,64bec9c8c1664353a733711d,right,1,0.3071,0.35,1,0.025619925,0.7087,,,,,,72,0,72,0,1,,,,,
,,704655,001,2023-07-24_20h58.27.653,arm3_q,2022.2.5,Win32,60.14314067,61545727036ae019fdeea5df,64aeaab685a29f4ca249be02,64bec9c8c1664353a733711d,right,1,0.3071,0.35,1,0.023662383,0.6548,,,,,,73,0,73,0,1,,,,,
,,704655,001,2023-07-24_20h58.27.653,arm3_q,2022.2.5,Win32,60.14314067,61545727036ae019fdeea5df,64aeaab685a29f4ca249be02,64bec9c8c1664353a733711d,right,1,0.3071,0.35,1,0.041137732,0.7578,,,,,,74,0,74,0,1,,,,,
,,704655,001,2023-07-24_20h58.27.653,arm3_q,2022.2.5,Win32,60.14314067,61545727036ae019fdeea5df,64aeaab685a29f4ca249be02,64bec9c8c1664353a733711d,right,1,0.3071,0.35,1,0.092921955,0.6155,,,,,,75,0,75,0,1,,,,,
,,704655,001,2023-07-24_20h58.27.653,arm3_q,2022.2.5,Win32,60.14314067,61545727036ae019fdeea5df,64aeaab685a29f4ca249be02,64bec9c8c1664353a733711d,right,1,0.3071,0.35,1,0.077741788,0.6302,,,,,,76,0,76,0,1,,,,,
,,704655,001,2023-07-24_20h58.27.653,arm3_q,2022.2.5,Win32,60.14314067,61545727036ae019fdeea5df,64aeaab685a29f4ca249be02,64bec9c8c1664353a733711d,up,1,0.3071,0.35,1,0,0.5933,,,,,,77,0,77,0,1,,,,,
,,704655,001,2023-07-24_20h58.27.653,arm3_q,2022.2.5,Win32,60.14314067,61545727036ae019fdeea5df,64aeaab685a29f4ca249be02,64bec9c8c1664353a733711d,right,1,0.3071,0.35,1,0.014936453,0.6805,,,,,,78,0,78,0,1,,,,,
,,704655,001,2023-07-24_20h58.27.653,arm3_q,2022.2.5,Win32,60.14314067,61545727036ae019fdeea5df,64aeaab685a29f4ca249be02,64bec9c8c1664353a733711d,right,1,0.3071,0.35,1,0.029177995,0.61,,,,,,79,0,79,0,1,,,,,
,,704655,001,2023-07-24_20h58.27.653,arm3_q,2022.2.5,Win32,60.14314067,61545727036ae019fdeea5df,64aeaab685a29f4ca249be02,64bec9c8c1664353a733711d,right,1,0.3071,0.35,1,0.07170653,0.6301,,,,,,80,0,80,0,1,,,,,
,,704655,001,2023-07-24_20h58.27.653,arm3_q,2022.2.5,Win32,60.14314067,61545727036ae019fdeea5df,64aeaab685a29f4ca249be02,64bec9c8c1664353a733711d,right,1,0.3071,0.35,1,0.08786112,0.5571,,,,,,81,0,81,0,1,,,,,
,,704655,001,2023-07-24_20h58.27.653,arm3_q,2022.2.5,Win32,60.14314067,61545727036ae019fdeea5df,64aeaab685a29f4ca249be02,64bec9c8c1664353a733711d,right,1,0.3071,0.35,1,0.10406181,0.6962,,,,,,82,0,82,0,1,,,,,
,,704655,001,2023-07-24_20h58.27.653,arm3_q,2022.2.5,Win32,60.14314067,61545727036ae019fdeea5df,64aeaab685a29f4ca249be02,64bec9c8c1664353a733711d,right,1,0.3071,0.35,1,0.085572224,0.6321,,,,,,83,0,83,0,1,,,,,
,,704655,001,2023-07-24_20h58.27.653,arm3_q,2022.2.5,Win32,60.14314067,61545727036ae019fdeea5df,64aeaab685a29f4ca249be02,64bec9c8c1664353a733711d,right,1,0.3071,0.35,1,0.138850214,0.6553,,,,,,84,0,84,0,1,,,,,
,,704655,001,2023-07-24_20h58.27.653,arm3_q,2022.2.5,Win32,60.14314067,61545727036ae019fdeea5df,64aeaab685a29f4ca249be02,64bec9c8c1664353a733711d,up,1,0.3071,0.35,2,0,0.5975,,,,,,85,0,85,0,1,,,,,
,,704655,001,2023-07-24_20h58.27.653,arm3_q,2022.2.5,Win32,60.14314067,61545727036ae019fdeea5df,64aeaab685a29f4ca249be02,64bec9c8c1664353a733711d,right,1,0.3071,0.35,2,0.018618923,1.165,,,,,,86,0,86,0,1,,,,,
,,704655,001,2023-07-24_20h58.27.653,arm3_q,2022.2.5,Win32,60.14314067,61545727036ae019fdeea5df,64aeaab685a29f4ca249be02,64bec9c8c1664353a733711d,right,1,0.3071,0.35,2,0.016586552,0.6487,,,,,,87,0,87,0,1,,,,,
,,704655,001,2023-07-24_20h58.27.653,arm3_q,2022.2.5,Win32,60.14314067,61545727036ae019fdeea5df,64aeaab685a29f4ca249be02,64bec9c8c1664353a733711d,right,1,0.3071,0.35,2,0.050102306,0.6342,,,,,,88,0,88,0,1,,,,,
,,704655,001,2023-07-24_20h58.27.653,arm3_q,2022.2.5,Win32,60.14314067,61545727036ae019fdeea5df,64aeaab685a29f4ca249be02,64bec9c8c1664353a733711d,right,1,0.3071,0.35,2,0.080275152,0.625,,,,,,89,0,89,0,1,,,,,
,,704655,001,2023-07-24_20h58.27.653,arm3_q,2022.2.5,Win32,60.14314067,61545727036ae019fdeea5df,64aeaab685a29f4ca249be02,64bec9c8c1664353a733711d,right,1,0.3071,0.35,2,0.073159928,0.5247,,,,,,90,0,90,0,1,,,,,
,,704655,001,2023-07-24_20h58.27.653,arm3_q,2022.2.5,Win32,60.14314067,61545727036ae019fdeea5df,64aeaab685a29f4ca249be02,64bec9c8c1664353a733711d,right,1,0.3071,0.35,2,0.097052938,0.7397,,,,,,91,0,91,0,1,,,,,
,,704655,001,2023-07-24_20h58.27.653,arm3_q,2022.2.5,Win32,60.14314067,61545727036ae019fdeea5df,64aeaab685a29f4ca249be02,64bec9c8c1664353a733711d,up,-1,0.3071,0.35,2,0,0.441,,,,,,92,0,92,0,1,,,,,
,,704655,001,2023-07-24_20h58.27.653,arm3_q,2022.2.5,Win32,60.14314067,61545727036ae019fdeea5df,64aeaab685a29f4ca249be02,64bec9c8c1664353a733711d,right,-1,0.3071,0.35,2,0.001196845,0.63,,,,,,93,0,93,0,1,,,,,
,,704655,001,2023-07-24_20h58.27.653,arm3_q,2022.2.5,Win32,60.14314067,61545727036ae019fdeea5df,64aeaab685a29f4ca249be02,64bec9c8c1664353a733711d,right,-1,0.3071,0.35,2,0.037090127,0.6147,,,,,,94,0,94,0,1,,,,,
,,704655,001,2023-07-24_20h58.27.653,arm3_q,2022.2.5,Win32,60.14314067,61545727036ae019fdeea5df,64aeaab685a29f4ca249be02,64bec9c8c1664353a733711d,right,-1,0.3071,0.35,2,0.01895853,0.5194,,,,,,95,0,95,0,1,,,,,
,,704655,001,2023-07-24_20h58.27.653,arm3_q,2022.2.5,Win32,60.14314067,61545727036ae019fdeea5df,64aeaab685a29f4ca249be02,64bec9c8c1664353a733711d,right,-1,0.3071,0.35,2,0.008611168,0.6646,,,,,,96,0,96,0,1,,,,,
,,704655,001,2023-07-24_20h58.27.653,arm3_q,2022.2.5,Win32,60.14314067,61545727036ae019fdeea5df,64aeaab685a29f4ca249be02,64bec9c8c1664353a733711d,right,-1,0.3071,0.35,2,-0.016216086,0.5413,,,,,,97,0,97,0,1,,,,,
,,704655,001,2023-07-24_20h58.27.653,arm3_q,2022.2.5,Win32,60.14314067,61545727036ae019fdeea5df,64aeaab685a29f4ca249be02,64bec9c8c1664353a733711d,right,-1,0.3071,0.35,2,-0.013755428,0.5684,,,,,,98,0,98,0,1,,,,,
,,704655,001,2023-07-24_20h58.27.653,arm3_q,2022.2.5,Win32,60.14314067,61545727036ae019fdeea5df,64aeaab685a29f4ca249be02,64bec9c8c1664353a733711d,right,-1,0.3071,0.35,2,0.008846786,0.6207,,,,,,99,0,99,0,1,,,,,
,,704655,001,2023-07-24_20h58.27.653,arm3_q,2022.2.5,Win32,60.14314067,61545727036ae019fdeea5df,64aeaab685a29f4ca249be02,64bec9c8c1664353a733711d,right,-1,0.3071,0.35,2,-0.000858704,0.7837,,,,,,100,0,100,0,1,,,,,
,,704655,001,2023-07-24_20h58.27.653,arm3_q,2022.2.5,Win32,60.14314067,61545727036ae019fdeea5df,64aeaab685a29f4ca249be02,64bec9c8c1664353a733711d,down,1,0.3071,0.35,2,0,0.516,,,,,,101,0,101,0,1,,,,,
,,704655,001,2023-07-24_20h58.27.653,arm3_q,2022.2.5,Win32,60.14314067,61545727036ae019fdeea5df,64aeaab685a29f4ca249be02,64bec9c8c1664353a733711d,right,1,0.3071,0.35,2,0.007516302,0.6474,,,,,,102,0,102,0,1,,,,,
,,704655,001,2023-07-24_20h58.27.653,arm3_q,2022.2.5,Win32,60.14314067,61545727036ae019fdeea5df,64aeaab685a29f4ca249be02,64bec9c8c1664353a733711d,right,1,0.3071,0.35,2,-0.017014327,0.5777,,,,,,103,0,103,0,1,,,,,
,,704655,001,2023-07-24_20h58.27.653,arm3_q,2022.2.5,Win32,60.14314067,61545727036ae019fdeea5df,64aeaab685a29f4ca249be02,64bec9c8c1664353a733711d,right,1,0.3071,0.35,2,-0.016189371,0.571,,,,,,104,0,104,0,1,,,,,
,,704655,001,2023-07-24_20h58.27.653,arm3_q,2022.2.5,Win32,60.14314067,61545727036ae019fdeea5df,64aeaab685a29f4ca249be02,64bec9c8c1664353a733711d,right,1,0.3071,0.35,2,-0.013877701,0.623,,,,,,105,0,105,0,1,,,,,
,,704655,001,2023-07-24_20h58.27.653,arm3_q,2022.2.5,Win32,60.14314067,61545727036ae019fdeea5df,64aeaab685a29f4ca249be02,64bec9c8c1664353a733711d,right,1,0.3071,0.35,2,-0.042165483,0.5292,,,,,,106,0,106,0,1,,,,,
,,704655,001,2023-07-24_20h58.27.653,arm3_q,2022.2.5,Win32,60.14314067,61545727036ae019fdeea5df,64aeaab685a29f4ca249be02,64bec9c8c1664353a733711d,right,1,0.3071,0.35,2,-0.035675468,0.5514,,,,,,107,0,107,0,1,,,,,
,,704655,001,2023-07-24_20h58.27.653,arm3_q,2022.2.5,Win32,60.14314067,61545727036ae019fdeea5df,64aeaab685a29f4ca249be02,64bec9c8c1664353a733711d,right,1,0.3071,0.35,2,-0.004743814,0.5346,,,,,,108,0,108,0,1,,,,,
,,704655,001,2023-07-24_20h58.27.653,arm3_q,2022.2.5,Win32,60.14314067,61545727036ae019fdeea5df,64aeaab685a29f4ca249be02,64bec9c8c1664353a733711d,right,1,0.3071,0.35,2,0.00325919,0.5968,,,,,,109,0,109,0,1,,,,,
,,704655,001,2023-07-24_20h58.27.653,arm3_q,2022.2.5,Win32,60.14314067,61545727036ae019fdeea5df,64aeaab685a29f4ca249be02,64bec9c8c1664353a733711d,right,1,0.3071,0.35,2,0.010988668,0.831,,,,,,110,0,110,0,1,,,,,
,,704655,001,2023-07-24_20h58.27.653,arm3_q,2022.2.5,Win32,60.14314067,61545727036ae019fdeea5df,64aeaab685a29f4ca249be02,64bec9c8c1664353a733711d,right,1,0.3071,0.35,2,-0.001332597,0.6225,,,,,,111,0,111,0,1,,,,,
,,704655,001,2023-07-24_20h58.27.653,arm3_q,2022.2.5,Win32,60.14314067,61545727036ae019fdeea5df,64aeaab685a29f4ca249be02,64bec9c8c1664353a733711d,down,1,0.3071,0.35,1,0,0.8802,,,,,,112,0,112,0,1,,,,,
,,704655,001,2023-07-24_20h58.27.653,arm3_q,2022.2.5,Win32,60.14314067,61545727036ae019fdeea5df,64aeaab685a29f4ca249be02,64bec9c8c1664353a733711d,right,1,0.3071,0.35,1,0.024951709,0.8477,,,,,,113,0,113,0,1,,,,,
,,704655,001,2023-07-24_20h58.27.653,arm3_q,2022.2.5,Win32,60.14314067,61545727036ae019fdeea5df,64aeaab685a29f4ca249be02,64bec9c8c1664353a733711d,right,1,0.3071,0.35,1,0.048339807,0.6049,,,,,,114,0,114,0,1,,,,,
,,704655,001,2023-07-24_20h58.27.653,arm3_q,2022.2.5,Win32,60.14314067,61545727036ae019fdeea5df,64aeaab685a29f4ca249be02,64bec9c8c1664353a733711d,right,1,0.3071,0.35,1,0.040145165,0.5861,,,,,,115,0,115,0,1,,,,,
,,704655,001,2023-07-24_20h58.27.653,arm3_q,2022.2.5,Win32,60.14314067,61545727036ae019fdeea5df,64aeaab685a29f4ca249be02,64bec9c8c1664353a733711d,right,1,0.3071,0.35,1,0.05350424,0.6524,,,,,,116,0,116,0,1,,,,,
,,704655,001,2023-07-24_20h58.27.653,arm3_q,2022.2.5,Win32,60.14314067,61545727036ae019fdeea5df,64aeaab685a29f4ca249be02,64bec9c8c1664353a733711d,right,1,0.3071,0.35,1,0.079401339,0.6326,,,,,,117,0,117,0,1,,,,,
,,704655,001,2023-07-24_20h58.27.653,arm3_q,2022.2.5,Win32,60.14314067,61545727036ae019fdeea5df,64aeaab685a29f4ca249be02,64bec9c8c1664353a733711d,right,1,0.3071,0.35,1,0.098796489,0.6056,,,,,,118,0,118,0,1,,,,,
,,704655,001,2023-07-24_20h58.27.653,arm3_q,2022.2.5,Win32,60.14314067,61545727036ae019fdeea5df,64aeaab685a29f4ca249be02,64bec9c8c1664353a733711d,right,1,0.3071,0.35,1,0.109440018,0.5066,,,,,,119,0,119,0,1,,,,,
,,704655,001,2023-07-24_20h58.27.653,arm3_q,2022.2.5,Win32,60.14314067,61545727036ae019fdeea5df,64aeaab685a29f4ca249be02,64bec9c8c1664353a733711d,up,1,0.3071,0.35,2,0,0.6976,,,,,,120,0,120,0,1,,,,,
,,704655,001,2023-07-24_20h58.27.653,arm3_q,2022.2.5,Win32,60.14314067,61545727036ae019fdeea5df,64aeaab685a29f4ca249be02,64bec9c8c1664353a733711d,right,1,0.3071,0.35,2,0.004203615,0.7927,,,,,,121,0,121,0,1,,,,,
,,704655,001,2023-07-24_20h58.27.653,arm3_q,2022.2.5,Win32,60.14314067,61545727036ae019fdeea5df,64aeaab685a29f4ca249be02,64bec9c8c1664353a733711d,right,1,0.3071,0.35,2,0.017174577,0.6151,,,,,,122,0,122,0,1,,,,,
,,704655,001,2023-07-24_20h58.27.653,arm3_q,2022.2.5,Win32,60.14314067,61545727036ae019fdeea5df,64aeaab685a29f4ca249be02,64bec9c8c1664353a733711d,right,1,0.3071,0.35,2,0.052047671,0.5207,,,,,,123,0,123,0,1,,,,,
,,704655,001,2023-07-24_20h58.27.653,arm3_q,2022.2.5,Win32,60.14314067,61545727036ae019fdeea5df,64aeaab685a29f4ca249be02,64bec9c8c1664353a733711d,right,1,0.3071,0.35,2,0.026384199,0.6142,,,,,,124,0,124,0,1,,,,,
,,704655,001,2023-07-24_20h58.27.653,arm3_q,2022.2.5,Win32,60.14314067,61545727036ae019fdeea5df,64aeaab685a29f4ca249be02,64bec9c8c1664353a733711d,right,1,0.3071,0.35,2,0.069017993,0.5741,,,,,,125,0,125,0,1,,,,,
,,704655,001,2023-07-24_20h58.27.653,arm3_q,2022.2.5,Win32,60.14314067,61545727036ae019fdeea5df,64aeaab685a29f4ca249be02,64bec9c8c1664353a733711d,right,1,0.3071,0.35,2,0.055179063,0.6017,,,,,,126,0,126,0,1,,,,,
,,704655,001,2023-07-24_20h58.27.653,arm3_q,2022.2.5,Win32,60.14314067,61545727036ae019fdeea5df,64aeaab685a29f4ca249be02,64bec9c8c1664353a733711d,right,1,0.3071,0.35,2,0.050344988,0.6487,,,,,,127,0,127,0,1,,,,,
,,704655,001,2023-07-24_20h58.27.653,arm3_q,2022.2.5,Win32,60.14314067,61545727036ae019fdeea5df,64aeaab685a29f4ca249be02,64bec9c8c1664353a733711d,right,1,0.3071,0.35,2,0.079417518,0.5814,,,,,,128,0,128,0,1,,,,,
,,704655,001,2023-07-24_20h58.27.653,arm3_q,2022.2.5,Win32,60.14314067,61545727036ae019fdeea5df,64aeaab685a29f4ca249be02,64bec9c8c1664353a733711d,right,1,0.3071,0.35,2,0.042041369,0.5669,,,,,,129,0,129,0,1,,,,,
,,704655,001,2023-07-24_20h58.27.653,arm3_q,2022.2.5,Win32,60.14314067,61545727036ae019fdeea5df,64aeaab685a29f4ca249be02,64bec9c8c1664353a733711d,right,1,0.3071,0.35,2,0.032652817,0.5469,,,,,,130,0,130,0,1,,,,,
,,704655,001,2023-07-24_20h58.27.653,arm3_q,2022.2.5,Win32,60.14314067,61545727036ae019fdeea5df,64aeaab685a29f4ca249be02,64bec9c8c1664353a733711d,right,1,0.3071,0.35,2,0.046924673,0.5895,,,,,,131,0,131,0,1,,,,,
,,704655,001,2023-07-24_20h58.27.653,arm3_q,2022.2.5,Win32,60.14314067,61545727036ae019fdeea5df,64aeaab685a29f4ca249be02,64bec9c8c1664353a733711d,up,1,0.3071,0.35,3,0,0.6042,,,,,,132,0,132,0,1,,,,,
,,704655,001,2023-07-24_20h58.27.653,arm3_q,2022.2.5,Win32,60.14314067,61545727036ae019fdeea5df,64aeaab685a29f4ca249be02,64bec9c8c1664353a733711d,right,1,0.3071,0.35,3,-0.002613089,0.8034,,,,,,133,0,133,0,1,,,,,
,,704655,001,2023-07-24_20h58.27.653,arm3_q,2022.2.5,Win32,60.14314067,61545727036ae019fdeea5df,64aeaab685a29f4ca249be02,64bec9c8c1664353a733711d,right,1,0.3071,0.35,3,-0.012251938,0.5784,,,,,,134,0,134,0,1,,,,,
,,704655,001,2023-07-24_20h58.27.653,arm3_q,2022.2.5,Win32,60.14314067,61545727036ae019fdeea5df,64aeaab685a29f4ca249be02,64bec9c8c1664353a733711d,right,1,0.3071,0.35,3,-0.025677094,0.6059,,,,,,135,0,135,0,1,,,,,
,,704655,001,2023-07-24_20h58.27.653,arm3_q,2022.2.5,Win32,60.14314067,61545727036ae019fdeea5df,64aeaab685a29f4ca249be02,64bec9c8c1664353a733711d,right,1,0.3071,0.35,3,-0.050743662,0.5868,,,,,,136,0,136,0,1,,,,,
,,704655,001,2023-07-24_20h58.27.653,arm3_q,2022.2.5,Win32,60.14314067,61545727036ae019fdeea5df,64aeaab685a29f4ca249be02,64bec9c8c1664353a733711d,right,1,0.3071,0.35,3,-0.063691169,0.5862,,,,,,137,0,137,0,1,,,,,
,,704655,001,2023-07-24_20h58.27.653,arm3_q,2022.2.5,Win32,60.14314067,61545727036ae019fdeea5df,64aeaab685a29f4ca249be02,64bec9c8c1664353a733711d,right,1,0.3071,0.35,3,-0.034900486,0.5375,,,,,,138,0,138,0,1,,,,,
,,704655,001,2023-07-24_20h58.27.653,arm3_q,2022.2.5,Win32,60.14314067,61545727036ae019fdeea5df,64aeaab685a29f4ca249be02,64bec9c8c1664353a733711d,right,1,0.3071,0.35,3,-0.014352151,0.4839,,,,,,139,0,139,0,1,,,,,
,,704655,001,2023-07-24_20h58.27.653,arm3_q,2022.2.5,Win32,60.14314067,61545727036ae019fdeea5df,64aeaab685a29f4ca249be02,64bec9c8c1664353a733711d,right,1,0.3071,0.35,3,0.010827339,0.5302,,,,,,140,0,140,0,1,,,,,
,,704655,001,2023-07-24_20h58.27.653,arm3_q,2022.2.5,Win32,60.14314067,61545727036ae019fdeea5df,64aeaab685a29f4ca249be02,64bec9c8c1664353a733711d,right,1,0.3071,0.35,3,-0.010448643,0.5647,,,,,,141,0,141,0,1,,,,,
,,704655,001,2023-07-24_20h58.27.653,arm3_q,2022.2.5,Win32,60.14314067,61545727036ae019fdeea5df,64aeaab685a29f4ca249be02,64bec9c8c1664353a733711d,right,1,0.3071,0.35,3,-0.005750184,0.6117,,,,,,142,0,142,0,1,,,,,
,,704655,001,2023-07-24_20h58.27.653,arm3_q,2022.2.5,Win32,60.14314067,61545727036ae019fdeea5df,64aeaab685a29f4ca249be02,64bec9c8c1664353a733711d,up,1,0.3071,0.35,4,0,0.7204,,,,,,143,0,143,0,1,,,,,
,,704655,001,2023-07-24_20h58.27.653,arm3_q,2022.2.5,Win32,60.14314067,61545727036ae019fdeea5df,64aeaab685a29f4ca249be02,64bec9c8c1664353a733711d,right,1,0.3071,0.35,4,0.008620638,0.9814,,,,,,144,0,144,0,1,,,,,
,,704655,001,2023-07-24_20h58.27.653,arm3_q,2022.2.5,Win32,60.14314067,61545727036ae019fdeea5df,64aeaab685a29f4ca249be02,64bec9c8c1664353a733711d,right,1,0.3071,0.35,4,0.038716577,0.5855,,,,,,145,0,145,0,1,,,,,
,,704655,001,2023-07-24_20h58.27.653,arm3_q,2022.2.5,Win32,60.14314067,61545727036ae019fdeea5df,64aeaab685a29f4ca249be02,64bec9c8c1664353a733711d,right,1,0.3071,0.35,4,0.074647465,0.5531,,,,,,146,0,146,0,1,,,,,
,,704655,001,2023-07-24_20h58.27.653,arm3_q,2022.2.5,Win32,60.14314067,61545727036ae019fdeea5df,64aeaab685a29f4ca249be02,64bec9c8c1664353a733711d,right,1,0.3071,0.35,4,0.116333381,0.5876,,,,,,147,0,147,0,1,,,,,
,,704655,001,2023-07-24_20h58.27.653,arm3_q,2022.2.5,Win32,60.14314067,61545727036ae019fdeea5df,64aeaab685a29f4ca249be02,64bec9c8c1664353a733711d,right,1,0.3071,0.35,4,0.125237746,0.5044,,,,,,148,0,148,0,1,,,,,
,,704655,001,2023-07-24_20h58.27.653,arm3_q,2022.2.5,Win32,60.14314067,61545727036ae019fdeea5df,64aeaab685a29f4ca249be02,64bec9c8c1664353a733711d,right,1,0.3071,0.35,4,0.146724526,0.7201,,,,,,149,0,149,0,1,,,,,
,,704655,001,2023-07-24_20h58.27.653,arm3_q,2022.2.5,Win32,60.14314067,61545727036ae019fdeea5df,64aeaab685a29f4ca249be02,64bec9c8c1664353a733711d,right,1,0.3071,0.35,4,0.162692854,0.551,,,,,,150,0,150,0,1,,,,,
,,704655,001,2023-07-24_20h58.27.653,arm3_q,2022.2.5,Win32,60.14314067,61545727036ae019fdeea5df,64aeaab685a29f4ca249be02,64bec9c8c1664353a733711d,right,1,0.3071,0.35,4,0.154592341,0.5379,,,,,,151,0,151,0,1,,,,,
,,704655,001,2023-07-24_20h58.27.653,arm3_q,2022.2.5,Win32,60.14314067,61545727036ae019fdeea5df,64aeaab685a29f4ca249be02,64bec9c8c1664353a733711d,right,1,0.3071,0.35,4,0.169897333,0.565,,,,,,152,0,152,0,1,,,,,
,,704655,001,2023-07-24_20h58.27.653,arm3_q,2022.2.5,Win32,60.14314067,61545727036ae019fdeea5df,64aeaab685a29f4ca249be02,64bec9c8c1664353a733711d,up,1,0.3071,0.35,4,0,0.4248,,,,,,153,0,153,0,1,,,,,
,,704655,001,2023-07-24_20h58.27.653,arm3_q,2022.2.5,Win32,60.14314067,61545727036ae019fdeea5df,64aeaab685a29f4ca249be02,64bec9c8c1664353a733711d,right,1,0.3071,0.35,4,0.037638434,0.8541,,,,,,154,0,154,0,1,,,,,
,,704655,001,2023-07-24_20h58.27.653,arm3_q,2022.2.5,Win32,60.14314067,61545727036ae019fdeea5df,64aeaab685a29f4ca249be02,64bec9c8c1664353a733711d,right,1,0.3071,0.35,4,0.053960955,0.5469,,,,,,155,0,155,0,1,,,,,
,,704655,001,2023-07-24_20h58.27.653,arm3_q,2022.2.5,Win32,60.14314067,61545727036ae019fdeea5df,64aeaab685a29f4ca249be02,64bec9c8c1664353a733711d,right,1,0.3071,0.35,4,0.044014548,0.5657,,,,,,156,0,156,0,1,,,,,
,,704655,001,2023-07-24_20h58.27.653,arm3_q,2022.2.5,Win32,60.14314067,61545727036ae019fdeea5df,64aeaab685a29f4ca249be02,64bec9c8c1664353a733711d,right,1,0.3071,0.35,4,0.029676887,0.5474,,,,,,157,0,157,0,1,,,,,
,,704655,001,2023-07-24_20h58.27.653,arm3_q,2022.2.5,Win32,60.14314067,61545727036ae019fdeea5df,64aeaab685a29f4ca249be02,64bec9c8c1664353a733711d,right,1,0.3071,0.35,4,0.063715706,0.5546,,,,,,158,0,158,0,1,,,,,
,,704655,001,2023-07-24_20h58.27.653,arm3_q,2022.2.5,Win32,60.14314067,61545727036ae019fdeea5df,64aeaab685a29f4ca249be02,64bec9c8c1664353a733711d,right,1,0.3071,0.35,4,0.062619542,0.5024,,,,,,159,0,159,0,1,,,,,
,,704655,001,2023-07-24_20h58.27.653,arm3_q,2022.2.5,Win32,60.14314067,61545727036ae019fdeea5df,64aeaab685a29f4ca249be02,64bec9c8c1664353a733711d,right,1,0.3071,0.35,4,0.082479398,0.5304,,,,,,160,0,160,0,1,,,,,
,,704655,001,2023-07-24_20h58.27.653,arm3_q,2022.2.5,Win32,60.14314067,61545727036ae019fdeea5df,64aeaab685a29f4ca249be02,64bec9c8c1664353a733711d,right,1,0.3071,0.35,4,0.086546852,0.5636,,,,,,161,0,161,0,1,,,,,
,,704655,001,2023-07-24_20h58.27.653,arm3_q,2022.2.5,Win32,60.14314067,61545727036ae019fdeea5df,64aeaab685a29f4ca249be02,64bec9c8c1664353a733711d,up,-1,0.3071,0.35,4,0,0.5555,,,,,,162,0,162,0,1,,,,,
,,704655,001,2023-07-24_20h58.27.653,arm3_q,2022.2.5,Win32,60.14314067,61545727036ae019fdeea5df,64aeaab685a29f4ca249be02,64bec9c8c1664353a733711d,right,-1,0.3071,0.35,4,-0.014301203,0.646,,,,,,163,0,163,0,1,,,,,
,,704655,001,2023-07-24_20h58.27.653,arm3_q,2022.2.5,Win32,60.14314067,61545727036ae019fdeea5df,64aeaab685a29f4ca249be02,64bec9c8c1664353a733711d,right,-1,0.3071,0.35,4,-0.056843624,0.5859,,,,,,164,0,164,0,1,,,,,
,,704655,001,2023-07-24_20h58.27.653,arm3_q,2022.2.5,Win32,60.14314067,61545727036ae019fdeea5df,64aeaab685a29f4ca249be02,64bec9c8c1664353a733711d,right,-1,0.3071,0.35,4,-0.090838077,0.5607,,,,,,165,0,165,0,1,,,,,
,,704655,001,2023-07-24_20h58.27.653,arm3_q,2022.2.5,Win32,60.14314067,61545727036ae019fdeea5df,64aeaab685a29f4ca249be02,64bec9c8c1664353a733711d,right,-1,0.3071,0.35,4,-0.09812032,0.4878,,,,,,166,0,166,0,1,,,,,
,,704655,001,2023-07-24_20h58.27.653,arm3_q,2022.2.5,Win32,60.14314067,61545727036ae019fdeea5df,64aeaab685a29f4ca249be02,64bec9c8c1664353a733711d,right,-1,0.3071,0.35,4,-0.143759339,0.4736,,,,,,167,0,167,0,1,,,,,
,,704655,001,2023-07-24_20h58.27.653,arm3_q,2022.2.5,Win32,60.14314067,61545727036ae019fdeea5df,64aeaab685a29f4ca249be02,64bec9c8c1664353a733711d,right,-1,0.3071,0.35,4,-0.164132119,0.4857,,,,,,168,0,168,0,1,,,,,
,,704655,001,2023-07-24_20h58.27.653,arm3_q,2022.2.5,Win32,60.14314067,61545727036ae019fdeea5df,64aeaab685a29f4ca249be02,64bec9c8c1664353a733711d,right,-1,0.3071,0.35,4,-0.122465661,0.4831,,,,,,169,0,169,0,1,,,,,
,,704655,001,2023-07-24_20h58.27.653,arm3_q,2022.2.5,Win32,60.14314067,61545727036ae019fdeea5df,64aeaab685a29f4ca249be02,64bec9c8c1664353a733711d,right,-1,0.3071,0.35,4,-0.09104303,0.5167,,,,,,170,0,170,0,1,,,,,
,,704655,001,2023-07-24_20h58.27.653,arm3_q,2022.2.5,Win32,60.14314067,61545727036ae019fdeea5df,64aeaab685a29f4ca249be02,64bec9c8c1664353a733711d,right,-1,0.3071,0.35,4,-0.095497211,0.5201,,,,,,171,0,171,0,1,,,,,
,,704655,001,2023-07-24_20h58.27.653,arm3_q,2022.2.5,Win32,60.14314067,61545727036ae019fdeea5df,64aeaab685a29f4ca249be02,64bec9c8c1664353a733711d,right,-1,0.3071,0.35,4,-0.123923517,0.5637,,,,,,172,0,172,0,1,,,,,
,,704655,001,2023-07-24_20h58.27.653,arm3_q,2022.2.5,Win32,60.14314067,61545727036ae019fdeea5df,64aeaab685a29f4ca249be02,64bec9c8c1664353a733711d,down,-1,0.3071,0.35,4,0,0.9028,,,,,,173,0,173,0,1,,,,,
,,704655,001,2023-07-24_20h58.27.653,arm3_q,2022.2.5,Win32,60.14314067,61545727036ae019fdeea5df,64aeaab685a29f4ca249be02,64bec9c8c1664353a733711d,right,-1,0.3071,0.35,4,-0.014163176,0.7455,,,,,,174,0,174,0,1,,,,,
,,704655,001,2023-07-24_20h58.27.653,arm3_q,2022.2.5,Win32,60.14314067,61545727036ae019fdeea5df,64aeaab685a29f4ca249be02,64bec9c8c1664353a733711d,right,-1,0.3071,0.35,4,-0.036691328,0.4491,,,,,,175,0,175,0,1,,,,,
,,704655,001,2023-07-24_20h58.27.653,arm3_q,2022.2.5,Win32,60.14314067,61545727036ae019fdeea5df,64aeaab685a29f4ca249be02,64bec9c8c1664353a733711d,right,-1,0.3071,0.35,4,-0.029575493,0.4698,,,,,,176,0,176,0,1,,,,,
,,704655,001,2023-07-24_20h58.27.653,arm3_q,2022.2.5,Win32,60.14314067,61545727036ae019fdeea5df,64aeaab685a29f4ca249be02,64bec9c8c1664353a733711d,right,-1,0.3071,0.35,4,-0.034585471,0.4693,,,,,,177,0,177,0,1,,,,,
,,704655,001,2023-07-24_20h58.27.653,arm3_q,2022.2.5,Win32,60.14314067,61545727036ae019fdeea5df,64aeaab685a29f4ca249be02,64bec9c8c1664353a733711d,right,-1,0.3071,0.35,4,-0.034871057,0.4379,,,,,,178,0,178,0,1,,,,,
,,704655,001,2023-07-24_20h58.27.653,arm3_q,2022.2.5,Win32,60.14314067,61545727036ae019fdeea5df,64aeaab685a29f4ca249be02,64bec9c8c1664353a733711d,right,-1,0.3071,0.35,4,-0.032646996,0.3792,,,,,,179,0,179,0,1,,,,,
,,704655,001,2023-07-24_20h58.27.653,arm3_q,2022.2.5,Win32,60.14314067,61545727036ae019fdeea5df,64aeaab685a29f4ca249be02,64bec9c8c1664353a733711d,right,-1,0.3071,0.35,4,-0.044964929,0.381,,,,,,180,0,180,0,1,,,,,
,,704655,001,2023-07-24_20h58.27.653,arm3_q,2022.2.5,Win32,60.14314067,61545727036ae019fdeea5df,64aeaab685a29f4ca249be02,64bec9c8c1664353a733711d,right,-1,0.3071,0.35,4,-0.040450226,0.2756,,,,,,181,0,181,0,1,,,,,
,,704655,001,2023-07-24_20h58.27.653,arm3_q,2022.2.5,Win32,60.14314067,61545727036ae019fdeea5df,64aeaab685a29f4ca249be02,64bec9c8c1664353a733711d,right,-1,0.3071,0.35,4,-0.024425244,0.4586,,,,,,182,0,182,0,1,,,,,
,,704655,001,2023-07-24_20h58.27.653,arm3_q,2022.2.5,Win32,60.14314067,61545727036ae019fdeea5df,64aeaab685a29f4ca249be02,64bec9c8c1664353a733711d,right,-1,0.3071,0.35,4,-0.067123252,1.4516,,,,,,183,0,183,0,1,,,,,
,,704655,001,2023-07-24_20h58.27.653,arm3_q,2022.2.5,Win32,60.14314067,61545727036ae019fdeea5df,64aeaab685a29f4ca249be02,64bec9c8c1664353a733711d,down,-1,0.3071,0.35,5,0,0.6991,,,,,,184,0,184,0,1,,,,,
,,704655,001,2023-07-24_20h58.27.653,arm3_q,2022.2.5,Win32,60.14314067,61545727036ae019fdeea5df,64aeaab685a29f4ca249be02,64bec9c8c1664353a733711d,right,-1,0.3071,0.35,5,-0.020813449,0.8054,,,,,,185,0,185,0,1,,,,,
,,704655,001,2023-07-24_20h58.27.653,arm3_q,2022.2.5,Win32,60.14314067,61545727036ae019fdeea5df,64aeaab685a29f4ca249be02,64bec9c8c1664353a733711d,right,-1,0.3071,0.35,5,-0.010359547,0.2965,,,,,,186,0,186,0,1,,,,,
,,704655,001,2023-07-24_20h58.27.653,arm3_q,2022.2.5,Win32,60.14314067,61545727036ae019fdeea5df,64aeaab685a29f4ca249be02,64bec9c8c1664353a733711d,right,-1,0.3071,0.35,5,0.006014581,0.2705,,,,,,187,0,187,0,1,,,,,
,,704655,001,2023-07-24_20h58.27.653,arm3_q,2022.2.5,Win32,60.14314067,61545727036ae019fdeea5df,64aeaab685a29f4ca249be02,64bec9c8c1664353a733711d,right,-1,0.3071,0.35,5,-0.02842081,0.2172,,,,,,188,0,188,0,1,,,,,
,,704655,001,2023-07-24_20h58.27.653,arm3_q,2022.2.5,Win32,60.14314067,61545727036ae019fdeea5df,64aeaab685a29f4ca249be02,64bec9c8c1664353a733711d,right,-1,0.3071,0.35,5,-0.052289559,0.2179,,,,,,189,0,189,0,1,,,,,
,,704655,001,2023-07-24_20h58.27.653,arm3_q,2022.2.5,Win32,60.14314067,61545727036ae019fdeea5df,64aeaab685a29f4ca249be02,64bec9c8c1664353a733711d,right,-1,0.3071,0.35,5,-0.056790202,0.1727,,,,,,190,0,190,0,1,,,,,
,,704655,001,2023-07-24_20h58.27.653,arm3_q,2022.2.5,Win32,60.14314067,61545727036ae019fdeea5df,64aeaab685a29f4ca249be02,64bec9c8c1664353a733711d,right,-1,0.3071,0.35,5,-0.061695305,0.1558,,,,,,191,0,191,0,1,,,,,
,,704655,001,2023-07-24_20h58.27.653,arm3_q,2022.2.5,Win32,60.14314067,61545727036ae019fdeea5df,64aeaab685a29f4ca249be02,64bec9c8c1664353a733711d,right,-1,0.3071,0.35,5,-0.080116226,0.2346,,,,,,192,0,192,0,1,,,,,
,,704655,001,2023-07-24_20h58.27.653,arm3_q,2022.2.5,Win32,60.14314067,61545727036ae019fdeea5df,64aeaab685a29f4ca249be02,64bec9c8c1664353a733711d,down,-1,0.3071,0.35,6,0,0.3844,,,,,,193,0,193,0,1,,,,,
,,704655,001,2023-07-24_20h58.27.653,arm3_q,2022.2.5,Win32,60.14314067,61545727036ae019fdeea5df,64aeaab685a29f4ca249be02,64bec9c8c1664353a733711d,right,-1,0.3071,0.35,6,-0.007693439,0.7827,,,,,,194,0,194,0,1,,,,,
,,704655,001,2023-07-24_20h58.27.653,arm3_q,2022.2.5,Win32,60.14314067,61545727036ae019fdeea5df,64aeaab685a29f4ca249be02,64bec9c8c1664353a733711d,right,-1,0.3071,0.35,6,-0.012121709,0.1813,,,,,,195,0,195,0,1,,,,,
,,704655,001,2023-07-24_20h58.27.653,arm3_q,2022.2.5,Win32,60.14314067,61545727036ae019fdeea5df,64aeaab685a29f4ca249be02,64bec9c8c1664353a733711d,right,-1,0.3071,0.35,6,-0.004466379,0.1483,,,,,,196,0,196,0,1,,,,,
,,704655,001,2023-07-24_20h58.27.653,arm3_q,2022.2.5,Win32,60.14314067,61545727036ae019fdeea5df,64aeaab685a29f4ca249be02,64bec9c8c1664353a733711d,right,-1,0.3071,0.35,6,-0.031460715,0.1627,,,,,,197,0,197,0,1,,,,,
,,704655,001,2023-07-24_20h58.27.653,arm3_q,2022.2.5,Win32,60.14314067,61545727036ae019fdeea5df,64aeaab685a29f4ca249be02,64bec9c8c1664353a733711d,right,-1,0.3071,0.35,6,-0.034451931,0.1554,,,,,,198,0,198,0,1,,,,,
,,704655,001,2023-07-24_20h58.27.653,arm3_q,2022.2.5,Win32,60.14314067,61545727036ae019fdeea5df,64aeaab685a29f4ca249be02,64bec9c8c1664353a733711d,right,-1,0.3071,0.35,6,-0.035010453,0.1639,,,,,,199,0,199,0,1,,,,,
,,704655,001,2023-07-24_20h58.27.653,arm3_q,2022.2.5,Win32,60.14314067,61545727036ae019fdeea5df,64aeaab685a29f4ca249be02,64bec9c8c1664353a733711d,right,-1,0.3071,0.35,6,-0.055115982,0.1404,,,,,,200,0,200,0,1,,,,,
,,704655,001,2023-07-24_20h58.27.653,arm3_q,2022.2.5,Win32,60.14314067,61545727036ae019fdeea5df,64aeaab685a29f4ca249be02,64bec9c8c1664353a733711d,right,-1,0.3071,0.35,6,-0.080783076,0.2998,,,,,,201,0,201,0,1,,,,,
,,704655,001,2023-07-24_20h58.27.653,arm3_q,2022.2.5,Win32,60.14314067,61545727036ae019fdeea5df,64aeaab685a29f4ca249be02,64bec9c8c1664353a733711d,down,-1,0.3071,0.35,7,0,0.4583,,,,,,202,0,202,0,1,,,,,
,,704655,001,2023-07-24_20h58.27.653,arm3_q,2022.2.5,Win32,60.14314067,61545727036ae019fdeea5df,64aeaab685a29f4ca249be02,64bec9c8c1664353a733711d,right,-1,0.3071,0.35,7,-0.019230471,0.6498,,,,,,203,0,203,0,1,,,,,
,,704655,001,2023-07-24_20h58.27.653,arm3_q,2022.2.5,Win32,60.14314067,61545727036ae019fdeea5df,64aeaab685a29f4ca249be02,64bec9c8c1664353a733711d,right,-1,0.3071,0.35,7,0.011594865,0.1716,,,,,,204,0,204,0,1,,,,,
,,704655,001,2023-07-24_20h58.27.653,arm3_q,2022.2.5,Win32,60.14314067,61545727036ae019fdeea5df,64aeaab685a29f4ca249be02,64bec9c8c1664353a733711d,right,-1,0.3071,0.35,7,0.015514212,0.1685,,,,,,205,0,205,0,1,,,,,
,,704655,001,2023-07-24_20h58.27.653,arm3_q,2022.2.5,Win32,60.14314067,61545727036ae019fdeea5df,64aeaab685a29f4ca249be02,64bec9c8c1664353a733711d,right,-1,0.3071,0.35,7,0.053504228,0.1649,,,,,,206,0,206,0,1,,,,,
,,704655,001,2023-07-24_20h58.27.653,arm3_q,2022.2.5,Win32,60.14314067,61545727036ae019fdeea5df,64aeaab685a29f4ca249be02,64bec9c8c1664353a733711d,right,-1,0.3071,0.35,7,0.031762597,0.1664,,,,,,207,0,207,0,1,,,,,
,,704655,001,2023-07-24_20h58.27.653,arm3_q,2022.2.5,Win32,60.14314067,61545727036ae019fdeea5df,64aeaab685a29f4ca249be02,64bec9c8c1664353a733711d,right,-1,0.3071,0.35,7,0.01488953,0.1585,,,,,,208,0,208,0,1,,,,,
,,704655,001,2023-07-24_20h58.27.653,arm3_q,2022.2.5,Win32,60.14314067,61545727036ae019fdeea5df,64aeaab685a29f4ca249be02,64bec9c8c1664353a733711d,right,-1,0.3071,0.35,7,0.008405888,0.168,,,,,,209,0,209,0,1,,,,,
,,704655,001,2023-07-24_20h58.27.653,arm3_q,2022.2.5,Win32,60.14314067,61545727036ae019fdeea5df,64aeaab685a29f4ca249be02,64bec9c8c1664353a733711d,right,-1,0.3071,0.35,7,-0.018844973,0.1669,,,,,,210,0,210,0,1,,,,,
,,704655,001,2023-07-24_20h58.27.653,arm3_q,2022.2.5,Win32,60.14314067,61545727036ae019fdeea5df,64aeaab685a29f4ca249be02,64bec9c8c1664353a733711d,right,-1,0.3071,0.35,7,-0.032201797,0.4303,,,,,,211,0,211,0,1,,,,,
,,704655,001,2023-07-24_20h58.27.653,arm3_q,2022.2.5,Win32,60.14314067,61545727036ae019fdeea5df,64aeaab685a29f4ca249be02,64bec9c8c1664353a733711d,right,-1,0.3071,0.35,7,-0.087633564,0.3086,,,,,,212,0,212,0,1,,,,,
,,704655,001,2023-07-24_20h58.27.653,arm3_q,2022.2.5,Win32,60.14314067,61545727036ae019fdeea5df,64aeaab685a29f4ca249be02,64bec9c8c1664353a733711d,down,1,0.3071,0.35,7,0,0.9181,,,,,,213,0,213,0,1,,,,,
,,704655,001,2023-07-24_20h58.27.653,arm3_q,2022.2.5,Win32,60.14314067,61545727036ae019fdeea5df,64aeaab685a29f4ca249be02,64bec9c8c1664353a733711d,right,1,0.3071,0.35,7,-0.029647232,0.6465,,,,,,214,0,214,0,1,,,,,
,,704655,001,2023-07-24_20h58.27.653,arm3_q,2022.2.5,Win32,60.14314067,61545727036ae019fdeea5df,64aeaab685a29f4ca249be02,64bec9c8c1664353a733711d,right,1,0.3071,0.35,7,-0.014042363,0.1819,,,,,,215,0,215,0,1,,,,,
,,704655,001,2023-07-24_20h58.27.653,arm3_q,2022.2.5,Win32,60.14314067,61545727036ae019fdeea5df,64aeaab685a29f4ca249be02,64bec9c8c1664353a733711d,right,1,0.3071,0.35,7,-0.027059452,0.1646,,,,,,216,0,216,0,1,,,,,
,,704655,001,2023-07-24_20h58.27.653,arm3_q,2022.2.5,Win32,60.14314067,61545727036ae019fdeea5df,64aeaab685a29f4ca249be02,64bec9c8c1664353a733711d,right,1,0.3071,0.35,7,-0.026914516,0.155,,,,,,217,0,217,0,1,,,,,
,,704655,001,2023-07-24_20h58.27.653,arm3_q,2022.2.5,Win32,60.14314067,61545727036ae019fdeea5df,64aeaab685a29f4ca249be02,64bec9c8c1664353a733711d,right,1,0.3071,0.35,7,-0.015083846,0.1529,,,,,,218,0,218,0,1,,,,,
,,704655,001,2023-07-24_20h58.27.653,arm3_q,2022.2.5,Win32,60.14314067,61545727036ae019fdeea5df,64aeaab685a29f4ca249be02,64bec9c8c1664353a733711d,right,1,0.3071,0.35,7,0.007538224,0.1524,,,,,,219,0,219,0,1,,,,,
,,704655,001,2023-07-24_20h58.27.653,arm3_q,2022.2.5,Win32,60.14314067,61545727036ae019fdeea5df,64aeaab685a29f4ca249be02,64bec9c8c1664353a733711d,right,1,0.3071,0.35,7,0.002821789,0.1562,,,,,,220,0,220,0,1,,,,,
,,704655,001,2023-07-24_20h58.27.653,arm3_q,2022.2.5,Win32,60.14314067,61545727036ae019fdeea5df,64aeaab685a29f4ca249be02,64bec9c8c1664353a733711d,right,1,0.3071,0.35,7,-0.000297024,0.1548,,,,,,221,0,221,0,1,,,,,
,,704655,001,2023-07-24_20h58.27.653,arm3_q,2022.2.5,Win32,60.14314067,61545727036ae019fdeea5df,64aeaab685a29f4ca249be02,64bec9c8c1664353a733711d,right,1,0.3071,0.35,7,0.014541277,0.1683,,,,,,222,0,222,0,1,,,,,
,,704655,001,2023-07-24_20h58.27.653,arm3_q,2022.2.5,Win32,60.14314067,61545727036ae019fdeea5df,64aeaab685a29f4ca249be02,64bec9c8c1664353a733711d,up,1,0.3071,0.35,7,0,0.5996,,,,,,223,0,223,0,1,,,,,
,,704655,001,2023-07-24_20h58.27.653,arm3_q,2022.2.5,Win32,60.14314067,61545727036ae019fdeea5df,64aeaab685a29f4ca249be02,64bec9c8c1664353a733711d,right,1,0.3071,0.35,7,0.013495044,0.6311,,,,,,224,0,224,0,1,,,,,
,,704655,001,2023-07-24_20h58.27.653,arm3_q,2022.2.5,Win32,60.14314067,61545727036ae019fdeea5df,64aeaab685a29f4ca249be02,64bec9c8c1664353a733711d,right,1,0.3071,0.35,7,0.026839876,0.168,,,,,,225,0,225,0,1,,,,,
,,704655,001,2023-07-24_20h58.27.653,arm3_q,2022.2.5,Win32,60.14314067,61545727036ae019fdeea5df,64aeaab685a29f4ca249be02,64bec9c8c1664353a733711d,right,1,0.3071,0.35,7,0.059122756,0.1656,,,,,,226,0,226,0,1,,,,,
,,704655,001,2023-07-24_20h58.27.653,arm3_q,2022.2.5,Win32,60.14314067,61545727036ae019fdeea5df,64aeaab685a29f4ca249be02,64bec9c8c1664353a733711d,right,1,0.3071,0.35,7,0.072265597,0.1668,,,,,,227,0,227,0,1,,,,,
,,704655,001,2023-07-24_20h58.27.653,arm3_q,2022.2.5,Win32,60.14314067,61545727036ae019fdeea5df,64aeaab685a29f4ca249be02,64bec9c8c1664353a733711d,right,1,0.3071,0.35,7,0.096970427,0.1563,,,,,,228,0,228,0,1,,,,,
,,704655,001,2023-07-24_20h58.27.653,arm3_q,2022.2.5,Win32,60.14314067,61545727036ae019fdeea5df,64aeaab685a29f4ca249be02,64bec9c8c1664353a733711d,right,1,0.3071,0.35,7,0.111175028,0.1641,,,,,,229,0,229,0,1,,,,,
,,704655,001,2023-07-24_20h58.27.653,arm3_q,2022.2.5,Win32,60.14314067,61545727036ae019fdeea5df,64aeaab685a29f4ca249be02,64bec9c8c1664353a733711d,right,1,0.3071,0.35,7,0.114552457,0.1522,,,,,,230,0,230,0,1,,,,,
,,704655,001,2023-07-24_20h58.27.653,arm3_q,2022.2.5,Win32,60.14314067,61545727036ae019fdeea5df,64aeaab685a29f4ca249be02,64bec9c8c1664353a733711d,right,1,0.3071,0.35,7,0.116428713,0.1525,,,,,,231,0,231,0,1,,,,,
,,704655,001,2023-07-24_20h58.27.653,arm3_q,2022.2.5,Win32,60.14314067,61545727036ae019fdeea5df,64aeaab685a29f4ca249be02,64bec9c8c1664353a733711d,right,1,0.3071,0.35,7,0.123218759,0.1867,,,,,,232,0,232,0,1,,,,,
,,704655,001,2023-07-24_20h58.27.653,arm3_q,2022.2.5,Win32,60.14314067,61545727036ae019fdeea5df,64aeaab685a29f4ca249be02,64bec9c8c1664353a733711d,up,1,0.3071,0.35,8,0,0.3964,,,,,,233,0,233,0,1,,,,,
,,704655,001,2023-07-24_20h58.27.653,arm3_q,2022.2.5,Win32,60.14314067,61545727036ae019fdeea5df,64aeaab685a29f4ca249be02,64bec9c8c1664353a733711d,right,1,0.3071,0.35,8,0.003870962,0.5492,,,,,,234,0,234,0,1,,,,,
,,704655,001,2023-07-24_20h58.27.653,arm3_q,2022.2.5,Win32,60.14314067,61545727036ae019fdeea5df,64aeaab685a29f4ca249be02,64bec9c8c1664353a733711d,right,1,0.3071,0.35,8,0.031923343,0.1995,,,,,,235,0,235,0,1,,,,,
,,704655,001,2023-07-24_20h58.27.653,arm3_q,2022.2.5,Win32,60.14314067,61545727036ae019fdeea5df,64aeaab685a29f4ca249be02,64bec9c8c1664353a733711d,right,1,0.3071,0.35,8,0.050328813,0.1541,,,,,,236,0,236,0,1,,,,,
,,704655,001,2023-07-24_20h58.27.653,arm3_q,2022.2.5,Win32,60.14314067,61545727036ae019fdeea5df,64aeaab685a29f4ca249be02,64bec9c8c1664353a733711d,right,1,0.3071,0.35,8,0.031253032,0.1645,,,,,,237,0,237,0,1,,,,,
,,704655,001,2023-07-24_20h58.27.653,arm3_q,2022.2.5,Win32,60.14314067,61545727036ae019fdeea5df,64aeaab685a29f4ca249be02,64bec9c8c1664353a733711d,right,1,0.3071,0.35,8,0.018401747,0.1455,,,,,,238,0,238,0,1,,,,,
,,704655,001,2023-07-24_20h58.27.653,arm3_q,2022.2.5,Win32,60.14314067,61545727036ae019fdeea5df,64aeaab685a29f4ca249be02,64bec9c8c1664353a733711d,right,1,0.3071,0.35,8,0.01770576,0.1436,,,,,,239,0,239,0,1,,,,,
,,704655,001,2023-07-24_20h58.27.653,arm3_q,2022.2.5,Win32,60.14314067,61545727036ae019fdeea5df,64aeaab685a29f4ca249be02,64bec9c8c1664353a733711d,right,1,0.3071,0.35,8,0.017534444,0.1474,,,,,,240,0,240,0,1,,,,,
,,704655,001,2023-07-24_20h58.27.653,arm3_q,2022.2.5,Win32,60.14314067,61545727036ae019fdeea5df,64aeaab685a29f4ca249be02,64bec9c8c1664353a733711d,right,1,0.3071,0.35,8,0.032933694,0.1391,,,,,,241,0,241,0,1,,,,,
,,704655,001,2023-07-24_20h58.27.653,arm3_q,2022.2.5,Win32,60.14314067,61545727036ae019fdeea5df,64aeaab685a29f4ca249be02,64bec9c8c1664353a733711d,right,1,0.3071,0.35,8,0.062708609,0.4515,,,,,,242,0,242,0,1,,,,,
,,704655,001,2023-07-24_20h58.27.653,arm3_q,2022.2.5,Win32,60.14314067,61545727036ae019fdeea5df,64aeaab685a29f4ca249be02,64bec9c8c1664353a733711d,up,1,0.3071,0.35,8,0,0.2514,,,,,,243,0,243,0,1,,,,,
,,704655,001,2023-07-24_20h58.27.653,arm3_q,2022.2.5,Win32,60.14314067,61545727036ae019fdeea5df,64aeaab685a29f4ca249be02,64bec9c8c1664353a733711d,right,1,0.3071,0.35,8,0.020543974,0.4687,,,,,,244,0,244,0,1,,,,,
,,704655,001,2023-07-24_20h58.27.653,arm3_q,2022.2.5,Win32,60.14314067,61545727036ae019fdeea5df,64aeaab685a29f4ca249be02,64bec9c8c1664353a733711d,right,1,0.3071,0.35,8,0.006091234,0.1982,,,,,,245,0,245,0,1,,,,,
,,704655,001,2023-07-24_20h58.27.653,arm3_q,2022.2.5,Win32,60.14314067,61545727036ae019fdeea5df,64aeaab685a29f4ca249be02,64bec9c8c1664353a733711d,right,1,0.3071,0.35,8,0.023310387,0.1663,,,,,,246,0,246,0,1,,,,,
,,704655,001,2023-07-24_20h58.27.653,arm3_q,2022.2.5,Win32,60.14314067,61545727036ae019fdeea5df,64aeaab685a29f4ca249be02,64bec9c8c1664353a733711d,right,1,0.3071,0.35,8,0.026115911,0.1688,,,,,,247,0,247,0,1,,,,,
,,704655,001,2023-07-24_20h58.27.653,arm3_q,2022.2.5,Win32,60.14314067,61545727036ae019fdeea5df,64aeaab685a29f4ca249be02,64bec9c8c1664353a733711d,right,1,0.3071,0.35,8,0.027659332,0.164,,,,,,248,0,248,0,1,,,,,
,,704655,001,2023-07-24_20h58.27.653,arm3_q,2022.2.5,Win32,60.14314067,61545727036ae019fdeea5df,64aeaab685a29f4ca249be02,64bec9c8c1664353a733711d,right,1,0.3071,0.35,8,0.065452902,0.1527,,,,,,249,0,249,0,1,,,,,
,,704655,001,2023-07-24_20h58.27.653,arm3_q,2022.2.5,Win32,60.14314067,61545727036ae019fdeea5df,64aeaab685a29f4ca249be02,64bec9c8c1664353a733711d,right,1,0.3071,0.35,8,0.083522986,0.1613,,,,,,250,0,250,0,1,,,,,
,,704655,001,2023-07-24_20h58.27.653,arm3_q,2022.2.5,Win32,60.14314067,61545727036ae019fdeea5df,64aeaab685a29f4ca249be02,64bec9c8c1664353a733711d,right,1,0.3071,0.35,8,0.056063969,0.1551,,,,,,251,0,251,0,1,,,,,
,,704655,001,2023-07-24_20h58.27.653,arm3_q,2022.2.5,Win32,60.14314067,61545727036ae019fdeea5df,64aeaab685a29f4ca249be02,64bec9c8c1664353a733711d,right,1,0.3071,0.35,8,0.046743877,0.1481,,,,,,252,0,252,0,1,,,,,
,,704655,001,2023-07-24_20h58.27.653,arm3_q,2022.2.5,Win32,60.14314067,61545727036ae019fdeea5df,64aeaab685a29f4ca249be02,64bec9c8c1664353a733711d,right,1,0.3071,0.35,8,0.045619046,0.2405,,,,,,253,0,253,0,1,,,,,
,,704655,001,2023-07-24_20h58.27.653,arm3_q,2022.2.5,Win32,60.14314067,61545727036ae019fdeea5df,64aeaab685a29f4ca249be02,64bec9c8c1664353a733711d,right,1,0.3071,0.35,8,0.035515209,1.4492,,,,,,254,0,254,0,1,,,,,
,,704655,001,2023-07-24_20h58.27.653,arm3_q,2022.2.5,Win32,60.14314067,61545727036ae019fdeea5df,64aeaab685a29f4ca249be02,64bec9c8c1664353a733711d,down,1,0.3071,0.35,7,0,0.4786,,,,,,255,0,255,0,1,,,,,
,,704655,001,2023-07-24_20h58.27.653,arm3_q,2022.2.5,Win32,60.14314067,61545727036ae019fdeea5df,64aeaab685a29f4ca249be02,64bec9c8c1664353a733711d,right,1,0.3071,0.35,7,-0.006009453,0.8438,,,,,,256,0,256,0,1,,,,,
,,704655,001,2023-07-24_20h58.27.653,arm3_q,2022.2.5,Win32,60.14314067,61545727036ae019fdeea5df,64aeaab685a29f4ca249be02,64bec9c8c1664353a733711d,right,1,0.3071,0.35,7,0.011811601,0.1998,,,,,,257,0,257,0,1,,,,,
,,704655,001,2023-07-24_20h58.27.653,arm3_q,2022.2.5,Win32,60.14314067,61545727036ae019fdeea5df,64aeaab685a29f4ca249be02,64bec9c8c1664353a733711d,right,1,0.3071,0.35,7,0.005846967,0.1622,,,,,,258,0,258,0,1,,,,,
,,704655,001,2023-07-24_20h58.27.653,arm3_q,2022.2.5,Win32,60.14314067,61545727036ae019fdeea5df,64aeaab685a29f4ca249be02,64bec9c8c1664353a733711d,right,1,0.3071,0.35,7,0.067050895,0.1603,,,,,,259,0,259,0,1,,,,,
,,704655,001,2023-07-24_20h58.27.653,arm3_q,2022.2.5,Win32,60.14314067,61545727036ae019fdeea5df,64aeaab685a29f4ca249be02,64bec9c8c1664353a733711d,right,1,0.3071,0.35,7,0.068503222,0.162,,,,,,260,0,260,0,1,,,,,
,,704655,001,2023-07-24_20h58.27.653,arm3_q,2022.2.5,Win32,60.14314067,61545727036ae019fdeea5df,64aeaab685a29f4ca249be02,64bec9c8c1664353a733711d,right,1,0.3071,0.35,7,0.073001942,0.1513,,,,,,261,0,261,0,1,,,,,
,,704655,001,2023-07-24_20h58.27.653,arm3_q,2022.2.5,Win32,60.14314067,61545727036ae019fdeea5df,64aeaab685a29f4ca249be02,64bec9c8c1664353a733711d,right,1,0.3071,0.35,7,0.111730162,0.1691,,,,,,262,0,262,0,1,,,,,
,,704655,001,2023-07-24_20h58.27.653,arm3_q,2022.2.5,Win32,60.14314067,61545727036ae019fdeea5df,64aeaab685a29f4ca249be02,64bec9c8c1664353a733711d,right,1,0.3071,0.35,7,0.139141012,0.1509,,,,,,263,0,263,0,1,,,,,
,,704655,001,2023-07-24_20h58.27.653,arm3_q,2022.2.5,Win32,60.14314067,61545727036ae019fdeea5df,64aeaab685a29f4ca249be02,64bec9c8c1664353a733711d,right,1,0.3071,0.35,7,0.17321387,0.1485,,,,,,264,0,264,0,1,,,,,
,,704655,001,2023-07-24_20h58.27.653,arm3_q,2022.2.5,Win32,60.14314067,61545727036ae019fdeea5df,64aeaab685a29f4ca249be02,64bec9c8c1664353a733711d,up,-1,0.3071,0.35,7,0,0.5144,,,,,,265,0,265,0,1,,,,,
,,704655,001,2023-07-24_20h58.27.653,arm3_q,2022.2.5,Win32,60.14314067,61545727036ae019fdeea5df,64aeaab685a29f4ca249be02,64bec9c8c1664353a733711d,right,-1,0.3071,0.35,7,-0.005094809,0.6367,,,,,,266,0,266,0,1,,,,,
,,704655,001,2023-07-24_20h58.27.653,arm3_q,2022.2.5,Win32,60.14314067,61545727036ae019fdeea5df,64aeaab685a29f4ca249be02,64bec9c8c1664353a733711d,right,-1,0.3071,0.35,7,-0.027543523,0.1747,,,,,,267,0,267,0,1,,,,,
,,704655,001,2023-07-24_20h58.27.653,arm3_q,2022.2.5,Win32,60.14314067,61545727036ae019fdeea5df,64aeaab685a29f4ca249be02,64bec9c8c1664353a733711d,right,-1,0.3071,0.35,7,-0.04033113,0.1641,,,,,,268,0,268,0,1,,,,,
,,704655,001,2023-07-24_20h58.27.653,arm3_q,2022.2.5,Win32,60.14314067,61545727036ae019fdeea5df,64aeaab685a29f4ca249be02,64bec9c8c1664353a733711d,right,-1,0.3071,0.35,7,-0.015857083,0.1583,,,,,,269,0,269,0,1,,,,,
,,704655,001,2023-07-24_20h58.27.653,arm3_q,2022.2.5,Win32,60.14314067,61545727036ae019fdeea5df,64aeaab685a29f4ca249be02,64bec9c8c1664353a733711d,right,-1,0.3071,0.35,7,-0.006481894,0.1685,,,,,,270,0,270,0,1,,,,,
,,704655,001,2023-07-24_20h58.27.653,arm3_q,2022.2.5,Win32,60.14314067,61545727036ae019fdeea5df,64aeaab685a29f4ca249be02,64bec9c8c1664353a733711d,right,-1,0.3071,0.35,7,-0.015250129,0.1648,,,,,,271,0,271,0,1,,,,,
,,704655,001,2023-07-24_20h58.27.653,arm3_q,2022.2.5,Win32,60.14314067,61545727036ae019fdeea5df,64aeaab685a29f4ca249be02,64bec9c8c1664353a733711d,right,-1,0.3071,0.35,7,-0.020565436,0.1537,,,,,,272,0,272,0,1,,,,,
,,704655,001,2023-07-24_20h58.27.653,arm3_q,2022.2.5,Win32,60.14314067,61545727036ae019fdeea5df,64aeaab685a29f4ca249be02,64bec9c8c1664353a733711d,right,-1,0.3071,0.35,7,-0.022897212,0.1563,,,,,,273,0,273,0,1,,,,,
,,704655,001,2023-07-24_20h58.27.653,arm3_q,2022.2.5,Win32,60.14314067,61545727036ae019fdeea5df,64aeaab685a29f4ca249be02,64bec9c8c1664353a733711d,right,-1,0.3071,0.35,7,-0.014554424,0.1653,,,,,,274,0,274,0,1,,,,,
,,704655,001,2023-07-24_20h58.27.653,arm3_q,2022.2.5,Win32,60.14314067,61545727036ae019fdeea5df,64aeaab685a29f4ca249be02,64bec9c8c1664353a733711d,right,-1,0.3071,0.35,7,-0.042930845,0.1645,,,,,,275,0,275,0,1,,,,,
,,704655,001,2023-07-24_20h58.27.653,arm3_q,2022.2.5,Win32,60.14314067,61545727036ae019fdeea5df,64aeaab685a29f4ca249be02,64bec9c8c1664353a733711d,right,-1,0.3071,0.35,7,-0.052400127,0.183,,,,,,276,0,276,0,1,,,,,
,,704655,001,2023-07-24_20h58.27.653,arm3_q,2022.2.5,Win32,60.14314067,61545727036ae019fdeea5df,64aeaab685a29f4ca249be02,64bec9c8c1664353a733711d,down,-1,0.3071,0.35,7,0,0.6986,,,,,,277,0,277,0,1,,,,,
,,704655,001,2023-07-24_20h58.27.653,arm3_q,2022.2.5,Win32,60.14314067,61545727036ae019fdeea5df,64aeaab685a29f4ca249be02,64bec9c8c1664353a733711d,right,-1,0.3071,0.35,7,-0.000718113,0.4048,,,,,,278,0,278,0,1,,,,,
,,704655,001,2023-07-24_20h58.27.653,arm3_q,2022.2.5,Win32,60.14314067,61545727036ae019fdeea5df,64aeaab685a29f4ca249be02,64bec9c8c1664353a733711d,right,-1,0.3071,0.35,7,-0.013143,0.1997,,,,,,279,0,279,0,1,,,,,
,,704655,001,2023-07-24_20h58.27.653,arm3_q,2022.2.5,Win32,60.14314067,61545727036ae019fdeea5df,64aeaab685a29f4ca249be02,64bec9c8c1664353a733711d,right,-1,0.3071,0.35,7,0.007811929,0.166,,,,,,280,0,280,0,1,,,,,
,,704655,001,2023-07-24_20h58.27.653,arm3_q,2022.2.5,Win32,60.14314067,61545727036ae019fdeea5df,64aeaab685a29f4ca249be02,64bec9c8c1664353a733711d,right,-1,0.3071,0.35,7,-0.031410905,0.1502,,,,,,281,0,281,0,1,,,,,
,,704655,001,2023-07-24_20h58.27.653,arm3_q,2022.2.5,Win32,60.14314067,61545727036ae019fdeea5df,64aeaab685a29f4ca249be02,64bec9c8c1664353a733711d,right,-1,0.3071,0.35,7,-0.064336574,0.1649,,,,,,282,0,282,0,1,,,,,
,,704655,001,2023-07-24_20h58.27.653,arm3_q,2022.2.5,Win32,60.14314067,61545727036ae019fdeea5df,64aeaab685a29f4ca249be02,64bec9c8c1664353a733711d,right,-1,0.3071,0.35,7,-0.060848878,0.158,,,,,,283,0,283,0,1,,,,,
,,704655,001,2023-07-24_20h58.27.653,arm3_q,2022.2.5,Win32,60.14314067,61545727036ae019fdeea5df,64aeaab685a29f4ca249be02,64bec9c8c1664353a733711d,right,-1,0.3071,0.35,7,-0.076511434,0.1668,,,,,,284,0,284,0,1,,,,,
,,704655,001,2023-07-24_20h58.27.653,arm3_q,2022.2.5,Win32,60.14314067,61545727036ae019fdeea5df,64aeaab685a29f4ca249be02,64bec9c8c1664353a733711d,right,-1,0.3071,0.35,7,-0.089673212,0.1657,,,,,,285,0,285,0,1,,,,,
,,704655,001,2023-07-24_20h58.27.653,arm3_q,2022.2.5,Win32,60.14314067,61545727036ae019fdeea5df,64aeaab685a29f4ca249be02,64bec9c8c1664353a733711d,right,-1,0.3071,0.35,7,-0.108782686,0.181,,,,,,286,0,286,0,1,,,,,
,,704655,001,2023-07-24_20h58.27.653,arm3_q,2022.2.5,Win32,60.14314067,61545727036ae019fdeea5df,64aeaab685a29f4ca249be02,64bec9c8c1664353a733711d,down,-1,0.3071,0.35,7,0,0.6976,,,,,,287,0,287,0,1,,,,,
,,704655,001,2023-07-24_20h58.27.653,arm3_q,2022.2.5,Win32,60.14314067,61545727036ae019fdeea5df,64aeaab685a29f4ca249be02,64bec9c8c1664353a733711d,right,-1,0.3071,0.35,7,-0.005694989,0.4894,,,,,,288,0,288,0,1,,,,,
,,704655,001,2023-07-24_20h58.27.653,arm3_q,2022.2.5,Win32,60.14314067,61545727036ae019fdeea5df,64aeaab685a29f4ca249be02,64bec9c8c1664353a733711d,right,-1,0.3071,0.35,7,-0.016200266,0.1861,,,,,,289,0,289,0,1,,,,,
,,704655,001,2023-07-24_20h58.27.653,arm3_q,2022.2.5,Win32,60.14314067,61545727036ae019fdeea5df,64aeaab685a29f4ca249be02,64bec9c8c1664353a733711d,right,-1,0.3071,0.35,7,-0.003472278,0.166,,,,,,290,0,290,0,1,,,,,
,,704655,001,2023-07-24_20h58.27.653,arm3_q,2022.2.5,Win32,60.14314067,61545727036ae019fdeea5df,64aeaab685a29f4ca249be02,64bec9c8c1664353a733711d,right,-1,0.3071,0.35,7,-0.031365978,0.1699,,,,,,291,0,291,0,1,,,,,
,,704655,001,2023-07-24_20h58.27.653,arm3_q,2022.2.5,Win32,60.14314067,61545727036ae019fdeea5df,64aeaab685a29f4ca249be02,64bec9c8c1664353a733711d,right,-1,0.3071,0.35,7,-0.043558728,0.1667,,,,,,292,0,292,0,1,,,,,
,,704655,001,2023-07-24_20h58.27.653,arm3_q,2022.2.5,Win32,60.14314067,61545727036ae019fdeea5df,64aeaab685a29f4ca249be02,64bec9c8c1664353a733711d,right,-1,0.3071,0.35,7,-0.063908513,0.1651,,,,,,293,0,293,0,1,,,,,
,,704655,001,2023-07-24_20h58.27.653,arm3_q,2022.2.5,Win32,60.14314067,61545727036ae019fdeea5df,64aeaab685a29f4ca249be02,64bec9c8c1664353a733711d,right,-1,0.3071,0.35,7,-0.061820188,0.1522,,,,,,294,0,294,0,1,,,,,
,,704655,001,2023-07-24_20h58.27.653,arm3_q,2022.2.5,Win32,60.14314067,61545727036ae019fdeea5df,64aeaab685a29f4ca249be02,64bec9c8c1664353a733711d,right,-1,0.3071,0.35,7,-0.057662999,0.1656,,,,,,295,0,295,0,1,,,,,
,,704655,001,2023-07-24_20h58.27.653,arm3_q,2022.2.5,Win32,60.14314067,61545727036ae019fdeea5df,64aeaab685a29f4ca249be02,64bec9c8c1664353a733711d,down,1,0.3071,0.35,7,0,0.4951,,,,,,296,0,296,0,1,,,,,
,,704655,001,2023-07-24_20h58.27.653,arm3_q,2022.2.5,Win32,60.14314067,61545727036ae019fdeea5df,64aeaab685a29f4ca249be02,64bec9c8c1664353a733711d,right,1,0.3071,0.35,7,-0.02319873,0.4675,,,,,,297,0,297,0,1,,,,,
,,704655,001,2023-07-24_20h58.27.653,arm3_q,2022.2.5,Win32,60.14314067,61545727036ae019fdeea5df,64aeaab685a29f4ca249be02,64bec9c8c1664353a733711d,right,1,0.3071,0.35,7,-0.035106621,0.1967,,,,,,298,0,298,0,1,,,,,
,,704655,001,2023-07-24_20h58.27.653,arm3_q,2022.2.5,Win32,60.14314067,61545727036ae019fdeea5df,64aeaab685a29f4ca249be02,64bec9c8c1664353a733711d,right,1,0.3071,0.35,7,-0.038752162,0.1715,,,,,,299,0,299,0,1,,,,,
,,704655,001,2023-07-24_20h58.27.653,arm3_q,2022.2.5,Win32,60.14314067,61545727036ae019fdeea5df,64aeaab685a29f4ca249be02,64bec9c8c1664353a733711d,right,1,0.3071,0.35,7,-0.023265625,0.1737,,,,,,300,0,300,0,1,,,,,
,,704655,001,2023-07-24_20h58.27.653,arm3_q,2022.2.5,Win32,60.14314067,61545727036ae019fdeea5df,64aeaab685a29f4ca249be02,64bec9c8c1664353a733711d,right,1,0.3071,0.35,7,-0.004946625,0.1665,,,,,,301,0,301,0,1,,,,,
,,704655,001,2023-07-24_20h58.27.653,arm3_q,2022.2.5,Win32,60.14314067,61545727036ae019fdeea5df,64aeaab685a29f4ca249be02,64bec9c8c1664353a733711d,right,1,0.3071,0.35,7,-0.001980699,0.1638,,,,,,302,0,302,0,1,,,,,
,,704655,001,2023-07-24_20h58.27.653,arm3_q,2022.2.5,Win32,60.14314067,61545727036ae019fdeea5df,64aeaab685a29f4ca249be02,64bec9c8c1664353a733711d,right,1,0.3071,0.35,7,0.023594546,0.165,,,,,,303,0,303,0,1,,,,,
,,704655,001,2023-07-24_20h58.27.653,arm3_q,2022.2.5,Win32,60.14314067,61545727036ae019fdeea5df,64aeaab685a29f4ca249be02,64bec9c8c1664353a733711d,right,1,0.3071,0.35,7,0.049796535,0.1626,,,,,,304,0,304,0,1,,,,,
,,704655,001,2023-07-24_20h58.27.653,arm3_q,2022.2.5,Win32,60.14314067,61545727036ae019fdeea5df,64aeaab685a29f4ca249be02,64bec9c8c1664353a733711d,up,1,0.3071,0.35,7,0,0.7038,,,,,,305,0,305,0,1,,,,,
,,704655,001,2023-07-24_20h58.27.653,arm3_q,2022.2.5,Win32,60.14314067,61545727036ae019fdeea5df,64aeaab685a29f4ca249be02,64bec9c8c1664353a733711d,right,1,0.3071,0.35,7,0.003786391,0.4716,,,,,,306,0,306,0,1,,,,,
,,704655,001,2023-07-24_20h58.27.653,arm3_q,2022.2.5,Win32,60.14314067,61545727036ae019fdeea5df,64aeaab685a29f4ca249be02,64bec9c8c1664353a733711d,right,1,0.3071,0.35,7,-0.01133201,0.1719,,,,,,307,0,307,0,1,,,,,
,,704655,001,2023-07-24_20h58.27.653,arm3_q,2022.2.5,Win32,60.14314067,61545727036ae019fdeea5df,64aeaab685a29f4ca249be02,64bec9c8c1664353a733711d,right,1,0.3071,0.35,7,0.013671355,0.1738,,,,,,308,0,308,0,1,,,,,
,,704655,001,2023-07-24_20h58.27.653,arm3_q,2022.2.5,Win32,60.14314067,61545727036ae019fdeea5df,64aeaab685a29f4ca249be02,64bec9c8c1664353a733711d,right,1,0.3071,0.35,7,-0.004725536,0.1847,,,,,,309,0,309,0,1,,,,,
,,704655,001,2023-07-24_20h58.27.653,arm3_q,2022.2.5,Win32,60.14314067,61545727036ae019fdeea5df,64aeaab685a29f4ca249be02,64bec9c8c1664353a733711d,right,1,0.3071,0.35,7,-0.030028997,0.1551,,,,,,310,0,310,0,1,,,,,
,,704655,001,2023-07-24_20h58.27.653,arm3_q,2022.2.5,Win32,60.14314067,61545727036ae019fdeea5df,64aeaab685a29f4ca249be02,64bec9c8c1664353a733711d,right,1,0.3071,0.35,7,-0.040323959,0.1633,,,,,,311,0,311,0,1,,,,,
,,704655,001,2023-07-24_20h58.27.653,arm3_q,2022.2.5,Win32,60.14314067,61545727036ae019fdeea5df,64aeaab685a29f4ca249be02,64bec9c8c1664353a733711d,right,1,0.3071,0.35,7,-0.012376511,0.1527,,,,,,312,0,312,0,1,,,,,
,,704655,001,2023-07-24_20h58.27.653,arm3_q,2022.2.5,Win32,60.14314067,61545727036ae019fdeea5df,64aeaab685a29f4ca249be02,64bec9c8c1664353a733711d,right,1,0.3071,0.35,7,-0.023315243,0.1749,,,,,,313,0,313,0,1,,,,,
,,704655,001,2023-07-24_20h58.27.653,arm3_q,2022.2.5,Win32,60.14314067,61545727036ae019fdeea5df,64aeaab685a29f4ca249be02,64bec9c8c1664353a733711d,right,1,0.3071,0.35,7,-0.030554079,0.2172,,,,,,314,0,314,0,1,,,,,
,,704655,001,2023-07-24_20h58.27.653,arm3_q,2022.2.5,Win32,60.14314067,61545727036ae019fdeea5df,64aeaab685a29f4ca249be02,64bec9c8c1664353a733711d,up,-1,0.3071,0.35,7,0,0.5976,,,,,,315,0,315,0,1,,,,,
,,704655,001,2023-07-24_20h58.27.653,arm3_q,2022.2.5,Win32,60.14314067,61545727036ae019fdeea5df,64aeaab685a29f4ca249be02,64bec9c8c1664353a733711d,right,-1,0.3071,0.35,7,-0.010661037,0.4638,,,,,,316,0,316,0,1,,,,,
,,704655,001,2023-07-24_20h58.27.653,arm3_q,2022.2.5,Win32,60.14314067,61545727036ae019fdeea5df,64aeaab685a29f4ca249be02,64bec9c8c1664353a733711d,right,-1,0.3071,0.35,7,-0.019849264,0.1634,,,,,,317,0,317,0,1,,,,,
,,704655,001,2023-07-24_20h58.27.653,arm3_q,2022.2.5,Win32,60.14314067,61545727036ae019fdeea5df,64aeaab685a29f4ca249be02,64bec9c8c1664353a733711d,right,-1,0.3071,0.35,7,-0.009252622,0.154,,,,,,318,0,318,0,1,,,,,
,,704655,001,2023-07-24_20h58.27.653,arm3_q,2022.2.5,Win32,60.14314067,61545727036ae019fdeea5df,64aeaab685a29f4ca249be02,64bec9c8c1664353a733711d,right,-1,0.3071,0.35,7,-0.014361856,0.1674,,,,,,319,0,319,0,1,,,,,
,,704655,001,2023-07-24_20h58.27.653,arm3_q,2022.2.5,Win32,60.14314067,61545727036ae019fdeea5df,64aeaab685a29f4ca249be02,64bec9c8c1664353a733711d,right,-1,0.3071,0.35,7,-0.040373223,0.1663,,,,,,320,0,320,0,1,,,,,
,,704655,001,2023-07-24_20h58.27.653,arm3_q,2022.2.5,Win32,60.14314067,61545727036ae019fdeea5df,64aeaab685a29f4ca249be02,64bec9c8c1664353a733711d,right,-1,0.3071,0.35,7,-0.045397439,0.1558,,,,,,321,0,321,0,1,,,,,
,,704655,001,2023-07-24_20h58.27.653,arm3_q,2022.2.5,Win32,60.14314067,61545727036ae019fdeea5df,64aeaab685a29f4ca249be02,64bec9c8c1664353a733711d,right,-1,0.3071,0.35,7,-0.074150331,0.162,,,,,,322,0,322,0,1,,,,,
,,704655,001,2023-07-24_20h58.27.653,arm3_q,2022.2.5,Win32,60.14314067,61545727036ae019fdeea5df,64aeaab685a29f4ca249be02,64bec9c8c1664353a733711d,right,-1,0.3071,0.35,7,-0.083066853,0.1499,,,,,,323,0,323,0,1,,,,,
,,704655,001,2023-07-24_20h58.27.653,arm3_q,2022.2.5,Win32,60.14314067,61545727036ae019fdeea5df,64aeaab685a29f4ca249be02,64bec9c8c1664353a733711d,right,-1,0.3071,0.35,7,-0.060986473,0.1535,,,,,,324,0,324,0,1,,,,,
,,704655,001,2023-07-24_20h58.27.653,arm3_q,2022.2.5,Win32,60.14314067,61545727036ae019fdeea5df,64aeaab685a29f4ca249be02,64bec9c8c1664353a733711d,down,1,0.3071,0.35,7,0,1.2987,,,,,,325,0,325,0,1,,,,,
,,704655,001,2023-07-24_20h58.27.653,arm3_q,2022.2.5,Win32,60.14314067,61545727036ae019fdeea5df,64aeaab685a29f4ca249be02,64bec9c8c1664353a733711d,right,1,0.3071,0.35,7,-0.013743451,0.5583,,,,,,326,0,326,0,1,,,,,
,,704655,001,2023-07-24_20h58.27.653,arm3_q,2022.2.5,Win32,60.14314067,61545727036ae019fdeea5df,64aeaab685a29f4ca249be02,64bec9c8c1664353a733711d,right,1,0.3071,0.35,7,-0.018554846,0.174,,,,,,327,0,327,0,1,,,,,
,,704655,001,2023-07-24_20h58.27.653,arm3_q,2022.2.5,Win32,60.14314067,61545727036ae019fdeea5df,64aeaab685a29f4ca249be02,64bec9c8c1664353a733711d,right,1,0.3071,0.35,7,-0.027409232,0.1716,,,,,,328,0,328,0,1,,,,,
,,704655,001,2023-07-24_20h58.27.653,arm3_q,2022.2.5,Win32,60.14314067,61545727036ae019fdeea5df,64aeaab685a29f4ca249be02,64bec9c8c1664353a733711d,right,1,0.3071,0.35,7,-0.04192005,0.1676,,,,,,329,0,329,0,1,,,,,
,,704655,001,2023-07-24_20h58.27.653,arm3_q,2022.2.5,Win32,60.14314067,61545727036ae019fdeea5df,64aeaab685a29f4ca249be02,64bec9c8c1664353a733711d,right,1,0.3071,0.35,7,-0.042492953,0.168,,,,,,330,0,330,0,1,,,,,
,,704655,001,2023-07-24_20h58.27.653,arm3_q,2022.2.5,Win32,60.14314067,61545727036ae019fdeea5df,64aeaab685a29f4ca249be02,64bec9c8c1664353a733711d,right,1,0.3071,0.35,7,-0.041520182,0.1692,,,,,,331,0,331,0,1,,,,,
,,704655,001,2023-07-24_20h58.27.653,arm3_q,2022.2.5,Win32,60.14314067,61545727036ae019fdeea5df,64aeaab685a29f4ca249be02,64bec9c8c1664353a733711d,right,1,0.3071,0.35,7,-0.044163139,0.1648,,,,,,332,0,332,0,1,,,,,
,,704655,001,2023-07-24_20h58.27.653,arm3_q,2022.2.5,Win32,60.14314067,61545727036ae019fdeea5df,64aeaab685a29f4ca249be02,64bec9c8c1664353a733711d,right,1,0.3071,0.35,7,-0.021888115,0.156,,,,,,333,0,333,0,1,,,,,
,,704655,001,2023-07-24_20h58.27.653,arm3_q,2022.2.5,Win32,60.14314067,61545727036ae019fdeea5df,64aeaab685a29f4ca249be02,64bec9c8c1664353a733711d,right,1,0.3071,0.35,7,-0.009697089,0.3831,,,,,,334,0,334,0,1,,,,,
,,704655,001,2023-07-24_20h58.27.653,arm3_q,2022.2.5,Win32,60.14314067,61545727036ae019fdeea5df,64aeaab685a29f4ca249be02,64bec9c8c1664353a733711d,right,1,0.3071,0.35,7,-0.033962373,0.8418,,,,,,335,0,335,0,1,,,,,
,,704655,001,2023-07-24_20h58.27.653,arm3_q,2022.2.5,Win32,60.14314067,61545727036ae019fdeea5df,64aeaab685a29f4ca249be02,64bec9c8c1664353a733711d,down,-1,0.3071,0.35,7,0,0.4551,,,,,,336,0,336,0,1,,,,,
,,704655,001,2023-07-24_20h58.27.653,arm3_q,2022.2.5,Win32,60.14314067,61545727036ae019fdeea5df,64aeaab685a29f4ca249be02,64bec9c8c1664353a733711d,right,-1,0.3071,0.35,7,0.010422498,0.5244,,,,,,337,0,337,0,1,,,,,
,,704655,001,2023-07-24_20h58.27.653,arm3_q,2022.2.5,Win32,60.14314067,61545727036ae019fdeea5df,64aeaab685a29f4ca249be02,64bec9c8c1664353a733711d,right,-1,0.3071,0.35,7,0.020131936,0.174,,,,,,338,0,338,0,1,,,,,
,,704655,001,2023-07-24_20h58.27.653,arm3_q,2022.2.5,Win32,60.14314067,61545727036ae019fdeea5df,64aeaab685a29f4ca249be02,64bec9c8c1664353a733711d,right,-1,0.3071,0.35,7,0.023419302,0.1861,,,,,,339,0,339,0,1,,,,,
,,704655,001,2023-07-24_20h58.27.653,arm3_q,2022.2.5,Win32,60.14314067,61545727036ae019fdeea5df,64aeaab685a29f4ca249be02,64bec9c8c1664353a733711d,right,-1,0.3071,0.35,7,0.002132278,0.1751,,,,,,340,0,340,0,1,,,,,
,,704655,001,2023-07-24_20h58.27.653,arm3_q,2022.2.5,Win32,60.14314067,61545727036ae019fdeea5df,64aeaab685a29f4ca249be02,64bec9c8c1664353a733711d,right,-1,0.3071,0.35,7,0.016514068,0.174,,,,,,341,0,341,0,1,,,,,
,,704655,001,2023-07-24_20h58.27.653,arm3_q,2022.2.5,Win32,60.14314067,61545727036ae019fdeea5df,64aeaab685a29f4ca249be02,64bec9c8c1664353a733711d,right,-1,0.3071,0.35,7,0.010606956,0.1746,,,,,,342,0,342,0,1,,,,,
,,704655,001,2023-07-24_20h58.27.653,arm3_q,2022.2.5,Win32,60.14314067,61545727036ae019fdeea5df,64aeaab685a29f4ca249be02,64bec9c8c1664353a733711d,right,-1,0.3071,0.35,7,0.002553739,0.1714,,,,,,343,0,343,0,1,,,,,
,,704655,001,2023-07-24_20h58.27.653,arm3_q,2022.2.5,Win32,60.14314067,61545727036ae019fdeea5df,64aeaab685a29f4ca249be02,64bec9c8c1664353a733711d,right,-1,0.3071,0.35,7,-0.007548831,0.1867,,,,,,344,0,344,0,1,,,,,
,,704655,001,2023-07-24_20h58.27.653,arm3_q,2022.2.5,Win32,60.14314067,61545727036ae019fdeea5df,64aeaab685a29f4ca249be02,64bec9c8c1664353a733711d,right,-1,0.3071,0.35,7,-0.020933781,0.1716,,,,,,345,0,345,0,1,,,,,
,,704655,001,2023-07-24_20h58.27.653,arm3_q,2022.2.5,Win32,60.14314067,61545727036ae019fdeea5df,64aeaab685a29f4ca249be02,64bec9c8c1664353a733711d,right,-1,0.3071,0.35,7,-0.01451084,0.8926,,,,,,346,0,346,0,1,,,,,
,,704655,001,2023-07-24_20h58.27.653,arm3_q,2022.2.5,Win32,60.14314067,61545727036ae019fdeea5df,64aeaab685a29f4ca249be02,64bec9c8c1664353a733711d,down,1,0.3071,0.35,7,0,0.7042,,,,,,347,0,347,0,1,,,,,
,,704655,001,2023-07-24_20h58.27.653,arm3_q,2022.2.5,Win32,60.14314067,61545727036ae019fdeea5df,64aeaab685a29f4ca249be02,64bec9c8c1664353a733711d,right,1,0.3071,0.35,7,0.005221445,0.6149,,,,,,348,0,348,0,1,,,,,
,,704655,001,2023-07-24_20h58.27.653,arm3_q,2022.2.5,Win32,60.14314067,61545727036ae019fdeea5df,64aeaab685a29f4ca249be02,64bec9c8c1664353a733711d,right,1,0.3071,0.35,7,0.02847002,0.1679,,,,,,349,0,349,0,1,,,,,
,,704655,001,2023-07-24_20h58.27.653,arm3_q,2022.2.5,Win32,60.14314067,61545727036ae019fdeea5df,64aeaab685a29f4ca249be02,64bec9c8c1664353a733711d,right,1,0.3071,0.35,7,0.037555881,0.178,,,,,,350,0,350,0,1,,,,,
,,704655,001,2023-07-24_20h58.27.653,arm3_q,2022.2.5,Win32,60.14314067,61545727036ae019fdeea5df,64aeaab685a29f4ca249be02,64bec9c8c1664353a733711d,right,1,0.3071,0.35,7,0.046158206,0.1556,,,,,,351,0,351,0,1,,,,,
,,704655,001,2023-07-24_20h58.27.653,arm3_q,2022.2.5,Win32,60.14314067,61545727036ae019fdeea5df,64aeaab685a29f4ca249be02,64bec9c8c1664353a733711d,right,1,0.3071,0.35,7,0.065429759,0.183,,,,,,352,0,352,0,1,,,,,
,,704655,001,2023-07-24_20h58.27.653,arm3_q,2022.2.5,Win32,60.14314067,61545727036ae019fdeea5df,64aeaab685a29f4ca249be02,64bec9c8c1664353a733711d,right,1,0.3071,0.35,7,0.058555592,0.1805,,,,,,353,0,353,0,1,,,,,
,,704655,001,2023-07-24_20h58.27.653,arm3_q,2022.2.5,Win32,60.14314067,61545727036ae019fdeea5df,64aeaab685a29f4ca249be02,64bec9c8c1664353a733711d,right,1,0.3071,0.35,7,0.085652499,0.1688,,,,,,354,0,354,0,1,,,,,
,,704655,001,2023-07-24_20h58.27.653,arm3_q,2022.2.5,Win32,60.14314067,61545727036ae019fdeea5df,64aeaab685a29f4ca249be02,64bec9c8c1664353a733711d,right,1,0.3071,0.35,7,0.098312824,0.1808,,,,,,355,0,355,0,1,,,,,
,,704655,001,2023-07-24_20h58.27.653,arm3_q,2022.2.5,Win32,60.14314067,61545727036ae019fdeea5df,64aeaab685a29f4ca249be02,64bec9c8c1664353a733711d,up,1,0.3071,0.35,7,0,0.619,,,,,,356,0,356,0,1,,,,,
,,704655,001,2023-07-24_20h58.27.653,arm3_q,2022.2.5,Win32,60.14314067,61545727036ae019fdeea5df,64aeaab685a29f4ca249be02,64bec9c8c1664353a733711d,right,1,0.3071,0.35,7,0.011376891,0.566,,,,,,357,0,357,0,1,,,,,
,,704655,001,2023-07-24_20h58.27.653,arm3_q,2022.2.5,Win32,60.14314067,61545727036ae019fdeea5df,64aeaab685a29f4ca249be02,64bec9c8c1664353a733711d,right,1,0.3071,0.35,7,0.031512092,0.1748,,,,,,358,0,358,0,1,,,,,
,,704655,001,2023-07-24_20h58.27.653,arm3_q,2022.2.5,Win32,60.14314067,61545727036ae019fdeea5df,64aeaab685a29f4ca249be02,64bec9c8c1664353a733711d,right,1,0.3071,0.35,7,0.045692474,0.1835,,,,,,359,0,359,0,1,,,,,
,,704655,001,2023-07-24_20h58.27.653,arm3_q,2022.2.5,Win32,60.14314067,61545727036ae019fdeea5df,64aeaab685a29f4ca249be02,64bec9c8c1664353a733711d,right,1,0.3071,0.35,7,0.039112617,0.1669,,,,,,360,0,360,0,1,,,,,
,,704655,001,2023-07-24_20h58.27.653,arm3_q,2022.2.5,Win32,60.14314067,61545727036ae019fdeea5df,64aeaab685a29f4ca249be02,64bec9c8c1664353a733711d,right,1,0.3071,0.35,7,0.058053437,0.1851,,,,,,361,0,361,0,1,,,,,
,,704655,001,2023-07-24_20h58.27.653,arm3_q,2022.2.5,Win32,60.14314067,61545727036ae019fdeea5df,64aeaab685a29f4ca249be02,64bec9c8c1664353a733711d,right,1,0.3071,0.35,7,0.046963124,0.1848,,,,,,362,0,362,0,1,,,,,
,,704655,001,2023-07-24_20h58.27.653,arm3_q,2022.2.5,Win32,60.14314067,61545727036ae019fdeea5df,64aeaab685a29f4ca249be02,64bec9c8c1664353a733711d,right,1,0.3071,0.35,7,0.063909723,0.1842,,,,,,363,0,363,0,1,,,,,
,,704655,001,2023-07-24_20h58.27.653,arm3_q,2022.2.5,Win32,60.14314067,61545727036ae019fdeea5df,64aeaab685a29f4ca249be02,64bec9c8c1664353a733711d,right,1,0.3071,0.35,7,0.045460505,0.1836,,,,,,364,0,364,0,1,,,,,
,,704655,001,2023-07-24_20h58.27.653,arm3_q,2022.2.5,Win32,60.14314067,61545727036ae019fdeea5df,64aeaab685a29f4ca249be02,64bec9c8c1664353a733711d,down,1,0.3071,0.35,7,0,0.8248,,,,,,365,0,365,0,1,,,,,
,,704655,001,2023-07-24_20h58.27.653,arm3_q,2022.2.5,Win32,60.14314067,61545727036ae019fdeea5df,64aeaab685a29f4ca249be02,64bec9c8c1664353a733711d,right,1,0.3071,0.35,7,0.008011858,0.4518,,,,,,366,0,366,0,1,,,,,
,,704655,001,2023-07-24_20h58.27.653,arm3_q,2022.2.5,Win32,60.14314067,61545727036ae019fdeea5df,64aeaab685a29f4ca249be02,64bec9c8c1664353a733711d,right,1,0.3071,0.35,7,0.011137589,0.1837,,,,,,367,0,367,0,1,,,,,
,,704655,001,2023-07-24_20h58.27.653,arm3_q,2022.2.5,Win32,60.14314067,61545727036ae019fdeea5df,64aeaab685a29f4ca249be02,64bec9c8c1664353a733711d,right,1,0.3071,0.35,7,0.001904973,0.1832,,,,,,368,0,368,0,1,,,,,
,,704655,001,2023-07-24_20h58.27.653,arm3_q,2022.2.5,Win32,60.14314067,61545727036ae019fdeea5df,64aeaab685a29f4ca249be02,64bec9c8c1664353a733711d,right,1,0.3071,0.35,7,0.018531052,0.1647,,,,,,369,0,369,0,1,,,,,
,,704655,001,2023-07-24_20h58.27.653,arm3_q,2022.2.5,Win32,60.14314067,61545727036ae019fdeea5df,64aeaab685a29f4ca249be02,64bec9c8c1664353a733711d,,,,,,,,,,,,,,,,,,0,0,0,0,1
space,4.0698,704655,001,2023-07-24_20h58.27.653,arm3_q,2022.2.5,Win32,60.14314067,61545727036ae019fdeea5df,64aeaab685a29f4ca249be02,64bec9c8c1664353a733711d,up,1,0.5643,0.35,8,0,5.5892,,,,,,0,0,0,0,1,,,,,
,,704655,001,2023-07-24_20h58.27.653,arm3_q,2022.2.5,Win32,60.14314067,61545727036ae019fdeea5df,64aeaab685a29f4ca249be02,64bec9c8c1664353a733711d,up,1,0.5643,0.35,9,0,0.163,,,,,,1,0,1,0,1,,,,,
,,704655,001,2023-07-24_20h58.27.653,arm3_q,2022.2.5,Win32,60.14314067,61545727036ae019fdeea5df,64aeaab685a29f4ca249be02,64bec9c8c1664353a733711d,right,1,0.5643,0.35,9,0.02892831,2.3308,,,,,,2,0,2,0,1,,,,,
,,704655,001,2023-07-24_20h58.27.653,arm3_q,2022.2.5,Win32,60.14314067,61545727036ae019fdeea5df,64aeaab685a29f4ca249be02,64bec9c8c1664353a733711d,right,1,0.5643,0.35,9,0.009620145,0.1572,,,,,,3,0,3,0,1,,,,,
,,704655,001,2023-07-24_20h58.27.653,arm3_q,2022.2.5,Win32,60.14314067,61545727036ae019fdeea5df,64aeaab685a29f4ca249be02,64bec9c8c1664353a733711d,right,1,0.5643,0.35,9,-0.008449595,0.1692,,,,,,4,0,4,0,1,,,,,
,,704655,001,2023-07-24_20h58.27.653,arm3_q,2022.2.5,Win32,60.14314067,61545727036ae019fdeea5df,64aeaab685a29f4ca249be02,64bec9c8c1664353a733711d,right,1,0.5643,0.35,9,-0.02047584,0.1603,,,,,,5,0,5,0,1,,,,,
,,704655,001,2023-07-24_20h58.27.653,arm3_q,2022.2.5,Win32,60.14314067,61545727036ae019fdeea5df,64aeaab685a29f4ca249be02,64bec9c8c1664353a733711d,right,1,0.5643,0.35,9,0.015359433,0.167,,,,,,6,0,6,0,1,,,,,
,,704655,001,2023-07-24_20h58.27.653,arm3_q,2022.2.5,Win32,60.14314067,61545727036ae019fdeea5df,64aeaab685a29f4ca249be02,64bec9c8c1664353a733711d,right,1,0.5643,0.35,9,0.033008319,0.1665,,,,,,7,0,7,0,1,,,,,
,,704655,001,2023-07-24_20h58.27.653,arm3_q,2022.2.5,Win32,60.14314067,61545727036ae019fdeea5df,64aeaab685a29f4ca249be02,64bec9c8c1664353a733711d,right,1,0.5643,0.35,9,0.065992381,0.1996,,,,,,8,0,8,0,1,,,,,
,,704655,001,2023-07-24_20h58.27.653,arm3_q,2022.2.5,Win32,60.14314067,61545727036ae019fdeea5df,64aeaab685a29f4ca249be02,64bec9c8c1664353a733711d,right,1,0.5643,0.35,9,0.060639503,0.5828,,,,,,9,0,9,0,1,,,,,
,,704655,001,2023-07-24_20h58.27.653,arm3_q,2022.2.5,Win32,60.14314067,61545727036ae019fdeea5df,64aeaab685a29f4ca249be02,64bec9c8c1664353a733711d,up,1,0.5643,0.35,10,0,0.3003,,,,,,10,0,10,0,1,,,,,
,,704655,001,2023-07-24_20h58.27.653,arm3_q,2022.2.5,Win32,60.14314067,61545727036ae019fdeea5df,64aeaab685a29f4ca249be02,64bec9c8c1664353a733711d,right,1,0.5643,0.35,10,0.010627407,0.4907,,,,,,11,0,11,0,1,,,,,
,,704655,001,2023-07-24_20h58.27.653,arm3_q,2022.2.5,Win32,60.14314067,61545727036ae019fdeea5df,64aeaab685a29f4ca249be02,64bec9c8c1664353a733711d,right,1,0.5643,0.35,10,-0.01107788,0.1998,,,,,,12,0,12,0,1,,,,,
,,704655,001,2023-07-24_20h58.27.653,arm3_q,2022.2.5,Win32,60.14314067,61545727036ae019fdeea5df,64aeaab685a29f4ca249be02,64bec9c8c1664353a733711d,right,1,0.5643,0.35,10,0.010254479,0.1818,,,,,,13,0,13,0,1,,,,,
,,704655,001,2023-07-24_20h58.27.653,arm3_q,2022.2.5,Win32,60.14314067,61545727036ae019fdeea5df,64aeaab685a29f4ca249be02,64bec9c8c1664353a733711d,right,1,0.5643,0.35,10,-0.005953528,0.1626,,,,,,14,0,14,0,1,,,,,
,,704655,001,2023-07-24_20h58.27.653,arm3_q,2022.2.5,Win32,60.14314067,61545727036ae019fdeea5df,64aeaab685a29f4ca249be02,64bec9c8c1664353a733711d,right,1,0.5643,0.35,10,0.024133048,0.1657,,,,,,15,0,15,0,1,,,,,
,,704655,001,2023-07-24_20h58.27.653,arm3_q,2022.2.5,Win32,60.14314067,61545727036ae019fdeea5df,64aeaab685a29f4ca249be02,64bec9c8c1664353a733711d,right,1,0.5643,0.35,10,0.042236779,0.1643,,,,,,16,0,16,0,1,,,,,
,,704655,001,2023-07-24_20h58.27.653,arm3_q,2022.2.5,Win32,60.14314067,61545727036ae019fdeea5df,64aeaab685a29f4ca249be02,64bec9c8c1664353a733711d,right,1,0.5643,0.35,10,0.052396179,0.181,,,,,,17,0,17,0,1,,,,,
,,704655,001,2023-07-24_20h58.27.653,arm3_q,2022.2.5,Win32,60.14314067,61545727036ae019fdeea5df,64aeaab685a29f4ca249be02,64bec9c8c1664353a733711d,up,1,0.5643,0.35,11,0,0.4189,,,,,,18,0,18,0,1,,,,,
,,704655,001,2023-07-24_20h58.27.653,arm3_q,2022.2.5,Win32,60.14314067,61545727036ae019fdeea5df,64aeaab685a29f4ca249be02,64bec9c8c1664353a733711d,right,1,0.5643,0.35,11,0.031470263,0.7467,,,,,,19,0,19,0,1,,,,,
,,704655,001,2023-07-24_20h58.27.653,arm3_q,2022.2.5,Win32,60.14314067,61545727036ae019fdeea5df,64aeaab685a29f4ca249be02,64bec9c8c1664353a733711d,right,1,0.5643,0.35,11,0.024701708,0.1803,,,,,,20,0,20,0,1,,,,,
,,704655,001,2023-07-24_20h58.27.653,arm3_q,2022.2.5,Win32,60.14314067,61545727036ae019fdeea5df,64aeaab685a29f4ca249be02,64bec9c8c1664353a733711d,right,1,0.5643,0.35,11,0.034134021,0.166,,,,,,21,0,21,0,1,,,,,
,,704655,001,2023-07-24_20h58.27.653,arm3_q,2022.2.5,Win32,60.14314067,61545727036ae019fdeea5df,64aeaab685a29f4ca249be02,64bec9c8c1664353a733711d,right,1,0.5643,0.35,11,0.058601683,0.1569,,,,,,22,0,22,0,1,,,,,
,,704655,001,2023-07-24_20h58.27.653,arm3_q,2022.2.5,Win32,60.14314067,61545727036ae019fdeea5df,64aeaab685a29f4ca249be02,64bec9c8c1664353a733711d,right,1,0.5643,0.35,11,0.057057626,0.1806,,,,,,23,0,23,0,1,,,,,
,,704655,001,2023-07-24_20h58.27.653,arm3_q,2022.2.5,Win32,60.14314067,61545727036ae019fdeea5df,64aeaab685a29f4ca249be02,64bec9c8c1664353a733711d,right,1,0.5643,0.35,11,0.073431208,0.1657,,,,,,24,0,24,0,1,,,,,
,,704655,001,2023-07-24_20h58.27.653,arm3_q,2022.2.5,Win32,60.14314067,61545727036ae019fdeea5df,64aeaab685a29f4ca249be02,64bec9c8c1664353a733711d,right,1,0.5643,0.35,11,0.081843163,0.161,,,,,,25,0,25,0,1,,,,,
,,704655,001,2023-07-24_20h58.27.653,arm3_q,2022.2.5,Win32,60.14314067,61545727036ae019fdeea5df,64aeaab685a29f4ca249be02,64bec9c8c1664353a733711d,right,1,0.5643,0.35,11,0.078015073,0.1577,,,,,,26,0,26,0,1,,,,,
,,704655,001,2023-07-24_20h58.27.653,arm3_q,2022.2.5,Win32,60.14314067,61545727036ae019fdeea5df,64aeaab685a29f4ca249be02,64bec9c8c1664353a733711d,up,1,0.5643,0.35,12,0,0.3667,,,,,,27,0,27,0,1,,,,,
,,704655,001,2023-07-24_20h58.27.653,arm3_q,2022.2.5,Win32,60.14314067,61545727036ae019fdeea5df,64aeaab685a29f4ca249be02,64bec9c8c1664353a733711d,right,1,0.5643,0.35,12,-0.015363533,0.5613,,,,,,28,0,28,0,1,,,,,
,,704655,001,2023-07-24_20h58.27.653,arm3_q,2022.2.5,Win32,60.14314067,61545727036ae019fdeea5df,64aeaab685a29f4ca249be02,64bec9c8c1664353a733711d,right,1,0.5643,0.35,12,-0.004403849,0.1671,,,,,,29,0,29,0,1,,,,,
,,704655,001,2023-07-24_20h58.27.653,arm3_q,2022.2.5,Win32,60.14314067,61545727036ae019fdeea5df,64aeaab685a29f4ca249be02,64bec9c8c1664353a733711d,right,1,0.5643,0.35,12,0.009245526,0.1754,,,,,,30,0,30,0,1,,,,,
,,704655,001,2023-07-24_20h58.27.653,arm3_q,2022.2.5,Win32,60.14314067,61545727036ae019fdeea5df,64aeaab685a29f4ca249be02,64bec9c8c1664353a733711d,right,1,0.5643,0.35,12,0.012718698,0.1573,,,,,,31,0,31,0,1,,,,,
,,704655,001,2023-07-24_20h58.27.653,arm3_q,2022.2.5,Win32,60.14314067,61545727036ae019fdeea5df,64aeaab685a29f4ca249be02,64bec9c8c1664353a733711d,right,1,0.5643,0.35,12,0.047866452,0.1814,,,,,,32,0,32,0,1,,,,,
,,704655,001,2023-07-24_20h58.27.653,arm3_q,2022.2.5,Win32,60.14314067,61545727036ae019fdeea5df,64aeaab685a29f4ca249be02,64bec9c8c1664353a733711d,right,1,0.5643,0.35,12,0.04160272,0.166,,,,,,33,0,33,0,1,,,,,
,,704655,001,2023-07-24_20h58.27.653,arm3_q,2022.2.5,Win32,60.14314067,61545727036ae019fdeea5df,64aeaab685a29f4ca249be02,64bec9c8c1664353a733711d,right,1,0.5643,0.35,12,0.06320047,0.1683,,,,,,34,0,34,0,1,,,,,
,,704655,001,2023-07-24_20h58.27.653,arm3_q,2022.2.5,Win32,60.14314067,61545727036ae019fdeea5df,64aeaab685a29f4ca249be02,64bec9c8c1664353a733711d,right,1,0.5643,0.35,12,0.078955898,0.1753,,,,,,35,0,35,0,1,,,,,
,,704655,001,2023-07-24_20h58.27.653,arm3_q,2022.2.5,Win32,60.14314067,61545727036ae019fdeea5df,64aeaab685a29f4ca249be02,64bec9c8c1664353a733711d,right,1,0.5643,0.35,12,0.097429431,0.1829,,,,,,36,0,36,0,1,,,,,
,,704655,001,2023-07-24_20h58.27.653,arm3_q,2022.2.5,Win32,60.14314067,61545727036ae019fdeea5df,64aeaab685a29f4ca249be02,64bec9c8c1664353a733711d,up,-1,0.5643,0.35,12,0,0.6644,,,,,,37,0,37,0,1,,,,,
,,704655,001,2023-07-24_20h58.27.653,arm3_q,2022.2.5,Win32,60.14314067,61545727036ae019fdeea5df,64aeaab685a29f4ca249be02,64bec9c8c1664353a733711d,right,-1,0.5643,0.35,12,-0.020953438,0.7779,,,,,,38,0,38,0,1,,,,,
,,704655,001,2023-07-24_20h58.27.653,arm3_q,2022.2.5,Win32,60.14314067,61545727036ae019fdeea5df,64aeaab685a29f4ca249be02,64bec9c8c1664353a733711d,right,-1,0.5643,0.35,12,-0.052491929,0.1739,,,,,,39,0,39,0,1,,,,,
,,704655,001,2023-07-24_20h58.27.653,arm3_q,2022.2.5,Win32,60.14314067,61545727036ae019fdeea5df,64aeaab685a29f4ca249be02,64bec9c8c1664353a733711d,right,-1,0.5643,0.35,12,-0.075434131,0.1693,,,,,,40,0,40,0,1,,,,,
,,704655,001,2023-07-24_20h58.27.653,arm3_q,2022.2.5,Win32,60.14314067,61545727036ae019fdeea5df,64aeaab685a29f4ca249be02,64bec9c8c1664353a733711d,right,-1,0.5643,0.35,12,-0.079893904,0.1634,,,,,,41,0,41,0,1,,,,,
,,704655,001,2023-07-24_20h58.27.653,arm3_q,2022.2.5,Win32,60.14314067,61545727036ae019fdeea5df,64aeaab685a29f4ca249be02,64bec9c8c1664353a733711d,right,-1,0.5643,0.35,12,-0.088889855,0.1604,,,,,,42,0,42,0,1,,,,,
