space_bar.keys,space_bar.rt,participant,session,date,expName,psychopyVersion,OS,frameRate,PROLIFIC_PID,STUDY_ID,SESSION_ID,resp.keys,state,q_prob,eps_prob,score,price,resp.rt,train.thisRepN,train.thisTrialN,train.thisN,train.thisIndex,train.ran,steps.thisRepN,steps.thisTrialN,steps.thisN,steps.thisIndex,steps.ran,blocks.thisRepN,blocks.thisTrialN,blocks.thisN,blocks.thisIndex,blocks.ran
space,25.2804,905518,001,2023-07-24_23h32.45.481,arm3_q,2022.2.5,Win32,59.97720866,5de42a01a7cb2401ccc682c3,64aeaab685a29f4ca249be02,64beedd8f4188820daa6c315,,,,,,,,,,,,,,,,,,,,,,
space,27.6242,905518,001,2023-07-24_23h32.45.481,arm3_q,2022.2.5,Win32,59.97720866,5de42a01a7cb2401ccc682c3,64aeaab685a29f4ca249be02,64beedd8f4188820daa6c315,,,,,,,,,,,,,,,,,,,,,,
space,39.0541,905518,001,2023-07-24_23h32.45.481,arm3_q,2022.2.5,Win32,59.97720866,5de42a01a7cb2401ccc682c3,64aeaab685a29f4ca249be02,64beedd8f4188820daa6c315,,,,,,,,,,,,,,,,,,,,,,
space,20.9751,905518,001,2023-07-24_23h32.45.481,arm3_q,2022.2.5,Win32,59.97720866,5de42a01a7cb2401ccc682c3,64aeaab685a29f4ca249be02,64beedd8f4188820daa6c315,,,,,,,,,,,,,,,,,,,,,,
space,24.1487,905518,001,2023-07-24_23h32.45.481,arm3_q,2022.2.5,Win32,59.97720866,5de42a01a7cb2401ccc682c3,64aeaab685a29f4ca249be02,64beedd8f4188820daa6c315,,,,,,,,,,,,,,,,,,,,,,
space,29.9034,905518,001,2023-07-24_23h32.45.481,arm3_q,2022.2.5,Win32,59.97720866,5de42a01a7cb2401ccc682c3,64aeaab685a29f4ca249be02,64beedd8f4188820daa6c315,,,,,,,,,,,,,,,,,,,,,,
space,22.7998,905518,001,2023-07-24_23h32.45.481,arm3_q,2022.2.5,Win32,59.97720866,5de42a01a7cb2401ccc682c3,64aeaab685a29f4ca249be02,64beedd8f4188820daa6c315,,,,,,,,,,,,,,,,,,,,,,
space,34.067,905518,001,2023-07-24_23h32.45.481,arm3_q,2022.2.5,Win32,59.97720866,5de42a01a7cb2401ccc682c3,64aeaab685a29f4ca249be02,64beedd8f4188820daa6c315,,,,,,,,,,,,,,,,,,,,,,
space,13.1208,905518,001,2023-07-24_23h32.45.481,arm3_q,2022.2.5,Win32,59.97720866,5de42a01a7cb2401ccc682c3,64aeaab685a29f4ca249be02,64beedd8f4188820daa6c315,,,,,,,,,,,,,,,,,,,,,,
space,11.0043,905518,001,2023-07-24_23h32.45.481,arm3_q,2022.2.5,Win32,59.97720866,5de42a01a7cb2401ccc682c3,64aeaab685a29f4ca249be02,64beedd8f4188820daa6c315,,,,,,,,,,,,,,,,,,,,,,
,,905518,001,2023-07-24_23h32.45.481,arm3_q,2022.2.5,Win32,59.97720866,5de42a01a7cb2401ccc682c3,64aeaab685a29f4ca249be02,64beedd8f4188820daa6c315,right,1,0.5643,0.35,0,0.029747408,1.9977,0,0,0,0,1,,,,,,,,,,
,,905518,001,2023-07-24_23h32.45.481,arm3_q,2022.2.5,Win32,59.97720866,5de42a01a7cb2401ccc682c3,64aeaab685a29f4ca249be02,64beedd8f4188820daa6c315,right,1,0.5643,0.35,0,0.049699617,3.0569,1,0,1,0,1,,,,,,,,,,
,,905518,001,2023-07-24_23h32.45.481,arm3_q,2022.2.5,Win32,59.97720866,5de42a01a7cb2401ccc682c3,64aeaab685a29f4ca249be02,64beedd8f4188820daa6c315,right,1,0.5643,0.35,0,0.050460808,1.4554,2,0,2,0,1,,,,,,,,,,
,,905518,001,2023-07-24_23h32.45.481,arm3_q,2022.2.5,Win32,59.97720866,5de42a01a7cb2401ccc682c3,64aeaab685a29f4ca249be02,64beedd8f4188820daa6c315,right,1,0.5643,0.35,0,0.087781468,2.2686,3,0,3,0,1,,,,,,,,,,
,,905518,001,2023-07-24_23h32.45.481,arm3_q,2022.2.5,Win32,59.97720866,5de42a01a7cb2401ccc682c3,64aeaab685a29f4ca249be02,64beedd8f4188820daa6c315,up,1,0.5643,0.35,1,0,3.2256,4,0,4,0,1,,,,,,,,,,
,,905518,001,2023-07-24_23h32.45.481,arm3_q,2022.2.5,Win32,59.97720866,5de42a01a7cb2401ccc682c3,64aeaab685a29f4ca249be02,64beedd8f4188820daa6c315,right,1,0.5643,0.35,1,-0.002781648,2.3719,5,0,5,0,1,,,,,,,,,,
,,905518,001,2023-07-24_23h32.45.481,arm3_q,2022.2.5,Win32,59.97720866,5de42a01a7cb2401ccc682c3,64aeaab685a29f4ca249be02,64beedd8f4188820daa6c315,right,1,0.5643,0.35,1,0.005210746,0.6647,6,0,6,0,1,,,,,,,,,,
,,905518,001,2023-07-24_23h32.45.481,arm3_q,2022.2.5,Win32,59.97720866,5de42a01a7cb2401ccc682c3,64aeaab685a29f4ca249be02,64beedd8f4188820daa6c315,up,1,0.5643,0.35,2,0,0.6775,7,0,7,0,1,,,,,,,,,,
,,905518,001,2023-07-24_23h32.45.481,arm3_q,2022.2.5,Win32,59.97720866,5de42a01a7cb2401ccc682c3,64aeaab685a29f4ca249be02,64beedd8f4188820daa6c315,right,1,0.5643,0.35,2,-0.007793126,1.2328,8,0,8,0,1,,,,,,,,,,
,,905518,001,2023-07-24_23h32.45.481,arm3_q,2022.2.5,Win32,59.97720866,5de42a01a7cb2401ccc682c3,64aeaab685a29f4ca249be02,64beedd8f4188820daa6c315,right,1,0.5643,0.35,2,-0.039220102,1.1115,9,0,9,0,1,,,,,,,,,,
,,905518,001,2023-07-24_23h32.45.481,arm3_q,2022.2.5,Win32,59.97720866,5de42a01a7cb2401ccc682c3,64aeaab685a29f4ca249be02,64beedd8f4188820daa6c315,right,1,0.5643,0.35,2,-0.021387541,1.9878,10,0,10,0,1,,,,,,,,,,
,,905518,001,2023-07-24_23h32.45.481,arm3_q,2022.2.5,Win32,59.97720866,5de42a01a7cb2401ccc682c3,64aeaab685a29f4ca249be02,64beedd8f4188820daa6c315,down,1,0.5643,0.35,1,0,1.4363,11,0,11,0,1,,,,,,,,,,
,,905518,001,2023-07-24_23h32.45.481,arm3_q,2022.2.5,Win32,59.97720866,5de42a01a7cb2401ccc682c3,64aeaab685a29f4ca249be02,64beedd8f4188820daa6c315,right,1,0.5643,0.35,1,0.030420624,1.2157,12,0,12,0,1,,,,,,,,,,
,,905518,001,2023-07-24_23h32.45.481,arm3_q,2022.2.5,Win32,59.97720866,5de42a01a7cb2401ccc682c3,64aeaab685a29f4ca249be02,64beedd8f4188820daa6c315,right,1,0.5643,0.35,1,0.011874616,0.9507,13,0,13,0,1,,,,,,,,,,
,,905518,001,2023-07-24_23h32.45.481,arm3_q,2022.2.5,Win32,59.97720866,5de42a01a7cb2401ccc682c3,64aeaab685a29f4ca249be02,64beedd8f4188820daa6c315,right,1,0.5643,0.35,1,-0.005928657,0.7449,14,0,14,0,1,,,,,,,,,,
,,905518,001,2023-07-24_23h32.45.481,arm3_q,2022.2.5,Win32,59.97720866,5de42a01a7cb2401ccc682c3,64aeaab685a29f4ca249be02,64beedd8f4188820daa6c315,down,1,0.5643,0.35,1,0,1.3795,15,0,15,0,1,,,,,,,,,,
,,905518,001,2023-07-24_23h32.45.481,arm3_q,2022.2.5,Win32,59.97720866,5de42a01a7cb2401ccc682c3,64aeaab685a29f4ca249be02,64beedd8f4188820daa6c315,right,1,0.5643,0.35,1,0.005227175,2.8164,16,0,16,0,1,,,,,,,,,,
,,905518,001,2023-07-24_23h32.45.481,arm3_q,2022.2.5,Win32,59.97720866,5de42a01a7cb2401ccc682c3,64aeaab685a29f4ca249be02,64beedd8f4188820daa6c315,right,1,0.5643,0.35,1,0.044207285,1.0968,17,0,17,0,1,,,,,,,,,,
,,905518,001,2023-07-24_23h32.45.481,arm3_q,2022.2.5,Win32,59.97720866,5de42a01a7cb2401ccc682c3,64aeaab685a29f4ca249be02,64beedd8f4188820daa6c315,right,1,0.5643,0.35,1,0.040091073,0.5255,18,0,18,0,1,,,,,,,,,,
,,905518,001,2023-07-24_23h32.45.481,arm3_q,2022.2.5,Win32,59.97720866,5de42a01a7cb2401ccc682c3,64aeaab685a29f4ca249be02,64beedd8f4188820daa6c315,right,1,0.5643,0.35,1,0.039538454,0.8883,19,0,19,0,1,,,,,,,,,,
,,905518,001,2023-07-24_23h32.45.481,arm3_q,2022.2.5,Win32,59.97720866,5de42a01a7cb2401ccc682c3,64aeaab685a29f4ca249be02,64beedd8f4188820daa6c315,up,1,0.5643,0.35,1,0,1.4033,20,0,20,0,1,,,,,,,,,,
,,905518,001,2023-07-24_23h32.45.481,arm3_q,2022.2.5,Win32,59.97720866,5de42a01a7cb2401ccc682c3,64aeaab685a29f4ca249be02,64beedd8f4188820daa6c315,right,1,0.5643,0.35,1,0.005487203,1.1389,21,0,21,0,1,,,,,,,,,,
,,905518,001,2023-07-24_23h32.45.481,arm3_q,2022.2.5,Win32,59.97720866,5de42a01a7cb2401ccc682c3,64aeaab685a29f4ca249be02,64beedd8f4188820daa6c315,right,1,0.5643,0.35,1,-0.013289405,0.8286,22,0,22,0,1,,,,,,,,,,
,,905518,001,2023-07-24_23h32.45.481,arm3_q,2022.2.5,Win32,59.97720866,5de42a01a7cb2401ccc682c3,64aeaab685a29f4ca249be02,64beedd8f4188820daa6c315,right,1,0.5643,0.35,1,-0.020277046,1.2608,23,0,23,0,1,,,,,,,,,,
,,905518,001,2023-07-24_23h32.45.481,arm3_q,2022.2.5,Win32,59.97720866,5de42a01a7cb2401ccc682c3,64aeaab685a29f4ca249be02,64beedd8f4188820daa6c315,right,1,0.5643,0.35,1,0.000958803,0.9138,24,0,24,0,1,,,,,,,,,,
,,905518,001,2023-07-24_23h32.45.481,arm3_q,2022.2.5,Win32,59.97720866,5de42a01a7cb2401ccc682c3,64aeaab685a29f4ca249be02,64beedd8f4188820daa6c315,up,-1,0.5643,0.35,2,0,0.8522,25,0,25,0,1,,,,,,,,,,
,,905518,001,2023-07-24_23h32.45.481,arm3_q,2022.2.5,Win32,59.97720866,5de42a01a7cb2401ccc682c3,64aeaab685a29f4ca249be02,64beedd8f4188820daa6c315,right,-1,0.5643,0.35,2,0.018152606,1.4073,26,0,26,0,1,,,,,,,,,,
,,905518,001,2023-07-24_23h32.45.481,arm3_q,2022.2.5,Win32,59.97720866,5de42a01a7cb2401ccc682c3,64aeaab685a29f4ca249be02,64beedd8f4188820daa6c315,right,-1,0.5643,0.35,2,0.027932106,0.7332,27,0,27,0,1,,,,,,,,,,
,,905518,001,2023-07-24_23h32.45.481,arm3_q,2022.2.5,Win32,59.97720866,5de42a01a7cb2401ccc682c3,64aeaab685a29f4ca249be02,64beedd8f4188820daa6c315,right,-1,0.5643,0.35,2,0.02022933,0.562,28,0,28,0,1,,,,,,,,,,
,,905518,001,2023-07-24_23h32.45.481,arm3_q,2022.2.5,Win32,59.97720866,5de42a01a7cb2401ccc682c3,64aeaab685a29f4ca249be02,64beedd8f4188820daa6c315,right,-1,0.5643,0.35,2,0.021551265,0.4826,29,0,29,0,1,,,,,,,,,,
,,905518,001,2023-07-24_23h32.45.481,arm3_q,2022.2.5,Win32,59.97720866,5de42a01a7cb2401ccc682c3,64aeaab685a29f4ca249be02,64beedd8f4188820daa6c315,up,1,0.5643,0.35,1,0,0.4792,30,0,30,0,1,,,,,,,,,,
,,905518,001,2023-07-24_23h32.45.481,arm3_q,2022.2.5,Win32,59.97720866,5de42a01a7cb2401ccc682c3,64aeaab685a29f4ca249be02,64beedd8f4188820daa6c315,right,1,0.5643,0.35,1,0.017788344,0.9946,31,0,31,0,1,,,,,,,,,,
,,905518,001,2023-07-24_23h32.45.481,arm3_q,2022.2.5,Win32,59.97720866,5de42a01a7cb2401ccc682c3,64aeaab685a29f4ca249be02,64beedd8f4188820daa6c315,right,1,0.5643,0.35,1,0.03576265,0.3798,32,0,32,0,1,,,,,,,,,,
,,905518,001,2023-07-24_23h32.45.481,arm3_q,2022.2.5,Win32,59.97720866,5de42a01a7cb2401ccc682c3,64aeaab685a29f4ca249be02,64beedd8f4188820daa6c315,right,1,0.5643,0.35,1,0.037849976,1.0515,33,0,33,0,1,,,,,,,,,,
,,905518,001,2023-07-24_23h32.45.481,arm3_q,2022.2.5,Win32,59.97720866,5de42a01a7cb2401ccc682c3,64aeaab685a29f4ca249be02,64beedd8f4188820daa6c315,up,1,0.5643,0.35,1,0,0.6471,34,0,34,0,1,,,,,,,,,,
,,905518,001,2023-07-24_23h32.45.481,arm3_q,2022.2.5,Win32,59.97720866,5de42a01a7cb2401ccc682c3,64aeaab685a29f4ca249be02,64beedd8f4188820daa6c315,right,1,0.5643,0.35,1,0.037943812,1.3556,35,0,35,0,1,,,,,,,,,,
,,905518,001,2023-07-24_23h32.45.481,arm3_q,2022.2.5,Win32,59.97720866,5de42a01a7cb2401ccc682c3,64aeaab685a29f4ca249be02,64beedd8f4188820daa6c315,right,1,0.5643,0.35,1,0.048569621,0.5743,36,0,36,0,1,,,,,,,,,,
,,905518,001,2023-07-24_23h32.45.481,arm3_q,2022.2.5,Win32,59.97720866,5de42a01a7cb2401ccc682c3,64aeaab685a29f4ca249be02,64beedd8f4188820daa6c315,right,1,0.5643,0.35,1,0.067727693,0.5671,37,0,37,0,1,,,,,,,,,,
,,905518,001,2023-07-24_23h32.45.481,arm3_q,2022.2.5,Win32,59.97720866,5de42a01a7cb2401ccc682c3,64aeaab685a29f4ca249be02,64beedd8f4188820daa6c315,up,1,0.5643,0.35,1,0,0.3674,38,0,38,0,1,,,,,,,,,,
,,905518,001,2023-07-24_23h32.45.481,arm3_q,2022.2.5,Win32,59.97720866,5de42a01a7cb2401ccc682c3,64aeaab685a29f4ca249be02,64beedd8f4188820daa6c315,right,1,0.5643,0.35,1,0.003749164,1.3129,39,0,39,0,1,,,,,,,,,,
,,905518,001,2023-07-24_23h32.45.481,arm3_q,2022.2.5,Win32,59.97720866,5de42a01a7cb2401ccc682c3,64aeaab685a29f4ca249be02,64beedd8f4188820daa6c315,right,1,0.5643,0.35,1,0.036397461,0.5872,40,0,40,0,1,,,,,,,,,,
,,905518,001,2023-07-24_23h32.45.481,arm3_q,2022.2.5,Win32,59.97720866,5de42a01a7cb2401ccc682c3,64aeaab685a29f4ca249be02,64beedd8f4188820daa6c315,right,1,0.5643,0.35,1,0.009089147,0.87,41,0,41,0,1,,,,,,,,,,
,,905518,001,2023-07-24_23h32.45.481,arm3_q,2022.2.5,Win32,59.97720866,5de42a01a7cb2401ccc682c3,64aeaab685a29f4ca249be02,64beedd8f4188820daa6c315,right,1,0.5643,0.35,1,0.011028323,0.4838,42,0,42,0,1,,,,,,,,,,
,,905518,001,2023-07-24_23h32.45.481,arm3_q,2022.2.5,Win32,59.97720866,5de42a01a7cb2401ccc682c3,64aeaab685a29f4ca249be02,64beedd8f4188820daa6c315,down,1,0.5643,0.35,0,0,0.7416,43,0,43,0,1,,,,,,,,,,
,,905518,001,2023-07-24_23h32.45.481,arm3_q,2022.2.5,Win32,59.97720866,5de42a01a7cb2401ccc682c3,64aeaab685a29f4ca249be02,64beedd8f4188820daa6c315,right,1,0.5643,0.35,0,0.026621752,1.3503,44,0,44,0,1,,,,,,,,,,
,,905518,001,2023-07-24_23h32.45.481,arm3_q,2022.2.5,Win32,59.97720866,5de42a01a7cb2401ccc682c3,64aeaab685a29f4ca249be02,64beedd8f4188820daa6c315,right,1,0.5643,0.35,0,0.032970601,1.0893,45,0,45,0,1,,,,,,,,,,
,,905518,001,2023-07-24_23h32.45.481,arm3_q,2022.2.5,Win32,59.97720866,5de42a01a7cb2401ccc682c3,64aeaab685a29f4ca249be02,64beedd8f4188820daa6c315,up,1,0.5643,0.35,1,0,0.8987,46,0,46,0,1,,,,,,,,,,
,,905518,001,2023-07-24_23h32.45.481,arm3_q,2022.2.5,Win32,59.97720866,5de42a01a7cb2401ccc682c3,64aeaab685a29f4ca249be02,64beedd8f4188820daa6c315,right,1,0.5643,0.35,1,0.016050181,1.671,47,0,47,0,1,,,,,,,,,,
,,905518,001,2023-07-24_23h32.45.481,arm3_q,2022.2.5,Win32,59.97720866,5de42a01a7cb2401ccc682c3,64aeaab685a29f4ca249be02,64beedd8f4188820daa6c315,right,1,0.5643,0.35,1,0.033487992,0.5307,48,0,48,0,1,,,,,,,,,,
,,905518,001,2023-07-24_23h32.45.481,arm3_q,2022.2.5,Win32,59.97720866,5de42a01a7cb2401ccc682c3,64aeaab685a29f4ca249be02,64beedd8f4188820daa6c315,up,1,0.5643,0.35,1,0.033487992,0.8558,49,0,49,0,1,,,,,,,,,,
space,2.3505,905518,001,2023-07-24_23h32.45.481,arm3_q,2022.2.5,Win32,59.97720866,5de42a01a7cb2401ccc682c3,64aeaab685a29f4ca249be02,64beedd8f4188820daa6c315,,,,,,,,,,,,,,,,,,,,,,
space,8.0857,905518,001,2023-07-24_23h32.45.481,arm3_q,2022.2.5,Win32,59.97720866,5de42a01a7cb2401ccc682c3,64aeaab685a29f4ca249be02,64beedd8f4188820daa6c315,up,-1,0.6929,0.35,1,0,3.2116,,,,,,0,0,0,0,1,,,,,
,,905518,001,2023-07-24_23h32.45.481,arm3_q,2022.2.5,Win32,59.97720866,5de42a01a7cb2401ccc682c3,64aeaab685a29f4ca249be02,64beedd8f4188820daa6c315,right,-1,0.6929,0.35,1,-0.053807701,3.7787,,,,,,1,0,1,0,1,,,,,
,,905518,001,2023-07-24_23h32.45.481,arm3_q,2022.2.5,Win32,59.97720866,5de42a01a7cb2401ccc682c3,64aeaab685a29f4ca249be02,64beedd8f4188820daa6c315,right,-1,0.6929,0.35,1,-0.035154384,0.9197,,,,,,2,0,2,0,1,,,,,
,,905518,001,2023-07-24_23h32.45.481,arm3_q,2022.2.5,Win32,59.97720866,5de42a01a7cb2401ccc682c3,64aeaab685a29f4ca249be02,64beedd8f4188820daa6c315,down,-1,0.6929,0.35,2,0,1.4131,,,,,,3,0,3,0,1,,,,,
,,905518,001,2023-07-24_23h32.45.481,arm3_q,2022.2.5,Win32,59.97720866,5de42a01a7cb2401ccc682c3,64aeaab685a29f4ca249be02,64beedd8f4188820daa6c315,right,-1,0.6929,0.35,2,-0.01792191,1.7395,,,,,,4,0,4,0,1,,,,,
,,905518,001,2023-07-24_23h32.45.481,arm3_q,2022.2.5,Win32,59.97720866,5de42a01a7cb2401ccc682c3,64aeaab685a29f4ca249be02,64beedd8f4188820daa6c315,right,-1,0.6929,0.35,2,0.005105808,0.4945,,,,,,5,0,5,0,1,,,,,
,,905518,001,2023-07-24_23h32.45.481,arm3_q,2022.2.5,Win32,59.97720866,5de42a01a7cb2401ccc682c3,64aeaab685a29f4ca249be02,64beedd8f4188820daa6c315,up,-1,0.6929,0.35,2,0,0.4527,,,,,,6,0,6,0,1,,,,,
,,905518,001,2023-07-24_23h32.45.481,arm3_q,2022.2.5,Win32,59.97720866,5de42a01a7cb2401ccc682c3,64aeaab685a29f4ca249be02,64beedd8f4188820daa6c315,right,-1,0.6929,0.35,2,-0.029209162,1.1251,,,,,,7,0,7,0,1,,,,,
,,905518,001,2023-07-24_23h32.45.481,arm3_q,2022.2.5,Win32,59.97720866,5de42a01a7cb2401ccc682c3,64aeaab685a29f4ca249be02,64beedd8f4188820daa6c315,right,-1,0.6929,0.35,2,-0.056130021,0.3636,,,,,,8,0,8,0,1,,,,,
,,905518,001,2023-07-24_23h32.45.481,arm3_q,2022.2.5,Win32,59.97720866,5de42a01a7cb2401ccc682c3,64aeaab685a29f4ca249be02,64beedd8f4188820daa6c315,down,1,0.6929,0.35,3,0,0.9006,,,,,,9,0,9,0,1,,,,,
,,905518,001,2023-07-24_23h32.45.481,arm3_q,2022.2.5,Win32,59.97720866,5de42a01a7cb2401ccc682c3,64aeaab685a29f4ca249be02,64beedd8f4188820daa6c315,right,1,0.6929,0.35,3,-0.012835013,1.1008,,,,,,10,0,10,0,1,,,,,
,,905518,001,2023-07-24_23h32.45.481,arm3_q,2022.2.5,Win32,59.97720866,5de42a01a7cb2401ccc682c3,64aeaab685a29f4ca249be02,64beedd8f4188820daa6c315,right,1,0.6929,0.35,3,0.033709392,0.7124,,,,,,11,0,11,0,1,,,,,
,,905518,001,2023-07-24_23h32.45.481,arm3_q,2022.2.5,Win32,59.97720866,5de42a01a7cb2401ccc682c3,64aeaab685a29f4ca249be02,64beedd8f4188820daa6c315,right,1,0.6929,0.35,3,0.028808808,0.5088,,,,,,12,0,12,0,1,,,,,
,,905518,001,2023-07-24_23h32.45.481,arm3_q,2022.2.5,Win32,59.97720866,5de42a01a7cb2401ccc682c3,64aeaab685a29f4ca249be02,64beedd8f4188820daa6c315,up,-1,0.6929,0.35,4,0,0.8161,,,,,,13,0,13,0,1,,,,,
,,905518,001,2023-07-24_23h32.45.481,arm3_q,2022.2.5,Win32,59.97720866,5de42a01a7cb2401ccc682c3,64aeaab685a29f4ca249be02,64beedd8f4188820daa6c315,right,-1,0.6929,0.35,4,-0.006814774,2.0668,,,,,,14,0,14,0,1,,,,,
,,905518,001,2023-07-24_23h32.45.481,arm3_q,2022.2.5,Win32,59.97720866,5de42a01a7cb2401ccc682c3,64aeaab685a29f4ca249be02,64beedd8f4188820daa6c315,right,-1,0.6929,0.35,4,0.005437749,0.4579,,,,,,15,0,15,0,1,,,,,
,,905518,001,2023-07-24_23h32.45.481,arm3_q,2022.2.5,Win32,59.97720866,5de42a01a7cb2401ccc682c3,64aeaab685a29f4ca249be02,64beedd8f4188820daa6c315,down,-1,0.6929,0.35,4,0,1.2999,,,,,,16,0,16,0,1,,,,,
,,905518,001,2023-07-24_23h32.45.481,arm3_q,2022.2.5,Win32,59.97720866,5de42a01a7cb2401ccc682c3,64aeaab685a29f4ca249be02,64beedd8f4188820daa6c315,right,-1,0.6929,0.35,4,-0.026848819,0.9633,,,,,,17,0,17,0,1,,,,,
,,905518,001,2023-07-24_23h32.45.481,arm3_q,2022.2.5,Win32,59.97720866,5de42a01a7cb2401ccc682c3,64aeaab685a29f4ca249be02,64beedd8f4188820daa6c315,right,-1,0.6929,0.35,4,-0.039791534,0.4918,,,,,,18,0,18,0,1,,,,,
,,905518,001,2023-07-24_23h32.45.481,arm3_q,2022.2.5,Win32,59.97720866,5de42a01a7cb2401ccc682c3,64aeaab685a29f4ca249be02,64beedd8f4188820daa6c315,up,-1,0.6929,0.35,4,0,0.7675,,,,,,19,0,19,0,1,,,,,
,,905518,001,2023-07-24_23h32.45.481,arm3_q,2022.2.5,Win32,59.97720866,5de42a01a7cb2401ccc682c3,64aeaab685a29f4ca249be02,64beedd8f4188820daa6c315,right,-1,0.6929,0.35,4,0.007763246,0.962,,,,,,20,0,20,0,1,,,,,
,,905518,001,2023-07-24_23h32.45.481,arm3_q,2022.2.5,Win32,59.97720866,5de42a01a7cb2401ccc682c3,64aeaab685a29f4ca249be02,64beedd8f4188820daa6c315,right,-1,0.6929,0.35,4,0.008961669,0.4169,,,,,,21,0,21,0,1,,,,,
,,905518,001,2023-07-24_23h32.45.481,arm3_q,2022.2.5,Win32,59.97720866,5de42a01a7cb2401ccc682c3,64aeaab685a29f4ca249be02,64beedd8f4188820daa6c315,right,-1,0.6929,0.35,4,0.006585182,0.3678,,,,,,22,0,22,0,1,,,,,
,,905518,001,2023-07-24_23h32.45.481,arm3_q,2022.2.5,Win32,59.97720866,5de42a01a7cb2401ccc682c3,64aeaab685a29f4ca249be02,64beedd8f4188820daa6c315,down,1,0.6929,0.35,5,0,0.8404,,,,,,23,0,23,0,1,,,,,
,,905518,001,2023-07-24_23h32.45.481,arm3_q,2022.2.5,Win32,59.97720866,5de42a01a7cb2401ccc682c3,64aeaab685a29f4ca249be02,64beedd8f4188820daa6c315,right,1,0.6929,0.35,5,-0.002412028,1.0629,,,,,,24,0,24,0,1,,,,,
,,905518,001,2023-07-24_23h32.45.481,arm3_q,2022.2.5,Win32,59.97720866,5de42a01a7cb2401ccc682c3,64aeaab685a29f4ca249be02,64beedd8f4188820daa6c315,right,1,0.6929,0.35,5,-0.019976746,0.4028,,,,,,25,0,25,0,1,,,,,
,,905518,001,2023-07-24_23h32.45.481,arm3_q,2022.2.5,Win32,59.97720866,5de42a01a7cb2401ccc682c3,64aeaab685a29f4ca249be02,64beedd8f4188820daa6c315,right,1,0.6929,0.35,5,-0.04177723,0.4723,,,,,,26,0,26,0,1,,,,,
,,905518,001,2023-07-24_23h32.45.481,arm3_q,2022.2.5,Win32,59.97720866,5de42a01a7cb2401ccc682c3,64aeaab685a29f4ca249be02,64beedd8f4188820daa6c315,right,1,0.6929,0.35,5,-0.026876885,0.6897,,,,,,27,0,27,0,1,,,,,
,,905518,001,2023-07-24_23h32.45.481,arm3_q,2022.2.5,Win32,59.97720866,5de42a01a7cb2401ccc682c3,64aeaab685a29f4ca249be02,64beedd8f4188820daa6c315,right,1,0.6929,0.35,5,-0.025555629,0.4525,,,,,,28,0,28,0,1,,,,,
,,905518,001,2023-07-24_23h32.45.481,arm3_q,2022.2.5,Win32,59.97720866,5de42a01a7cb2401ccc682c3,64aeaab685a29f4ca249be02,64beedd8f4188820daa6c315,down,-1,0.6929,0.35,5,0,1.0494,,,,,,29,0,29,0,1,,,,,
,,905518,001,2023-07-24_23h32.45.481,arm3_q,2022.2.5,Win32,59.97720866,5de42a01a7cb2401ccc682c3,64aeaab685a29f4ca249be02,64beedd8f4188820daa6c315,right,-1,0.6929,0.35,5,-0.000756443,0.9122,,,,,,30,0,30,0,1,,,,,
,,905518,001,2023-07-24_23h32.45.481,arm3_q,2022.2.5,Win32,59.97720866,5de42a01a7cb2401ccc682c3,64aeaab685a29f4ca249be02,64beedd8f4188820daa6c315,right,-1,0.6929,0.35,5,-0.019885521,0.6014,,,,,,31,0,31,0,1,,,,,
,,905518,001,2023-07-24_23h32.45.481,arm3_q,2022.2.5,Win32,59.97720866,5de42a01a7cb2401ccc682c3,64aeaab685a29f4ca249be02,64beedd8f4188820daa6c315,right,-1,0.6929,0.35,5,-0.044028343,0.5207,,,,,,32,0,32,0,1,,,,,
,,905518,001,2023-07-24_23h32.45.481,arm3_q,2022.2.5,Win32,59.97720866,5de42a01a7cb2401ccc682c3,64aeaab685a29f4ca249be02,64beedd8f4188820daa6c315,down,-1,0.6929,0.35,6,0,0.379,,,,,,33,0,33,0,1,,,,,
,,905518,001,2023-07-24_23h32.45.481,arm3_q,2022.2.5,Win32,59.97720866,5de42a01a7cb2401ccc682c3,64aeaab685a29f4ca249be02,64beedd8f4188820daa6c315,right,-1,0.6929,0.35,6,-0.011118604,0.8511,,,,,,34,0,34,0,1,,,,,
,,905518,001,2023-07-24_23h32.45.481,arm3_q,2022.2.5,Win32,59.97720866,5de42a01a7cb2401ccc682c3,64aeaab685a29f4ca249be02,64beedd8f4188820daa6c315,right,-1,0.6929,0.35,6,-0.013827806,0.386,,,,,,35,0,35,0,1,,,,,
,,905518,001,2023-07-24_23h32.45.481,arm3_q,2022.2.5,Win32,59.97720866,5de42a01a7cb2401ccc682c3,64aeaab685a29f4ca249be02,64beedd8f4188820daa6c315,right,-1,0.6929,0.35,6,-0.006851087,0.5785,,,,,,36,0,36,0,1,,,,,
,,905518,001,2023-07-24_23h32.45.481,arm3_q,2022.2.5,Win32,59.97720866,5de42a01a7cb2401ccc682c3,64aeaab685a29f4ca249be02,64beedd8f4188820daa6c315,up,-1,0.6929,0.35,5,0,0.7871,,,,,,37,0,37,0,1,,,,,
,,905518,001,2023-07-24_23h32.45.481,arm3_q,2022.2.5,Win32,59.97720866,5de42a01a7cb2401ccc682c3,64aeaab685a29f4ca249be02,64beedd8f4188820daa6c315,right,-1,0.6929,0.35,5,0.00425855,0.898,,,,,,38,0,38,0,1,,,,,
,,905518,001,2023-07-24_23h32.45.481,arm3_q,2022.2.5,Win32,59.97720866,5de42a01a7cb2401ccc682c3,64aeaab685a29f4ca249be02,64beedd8f4188820daa6c315,right,-1,0.6929,0.35,5,0.002302012,0.3408,,,,,,39,0,39,0,1,,,,,
,,905518,001,2023-07-24_23h32.45.481,arm3_q,2022.2.5,Win32,59.97720866,5de42a01a7cb2401ccc682c3,64aeaab685a29f4ca249be02,64beedd8f4188820daa6c315,right,-1,0.6929,0.35,5,-0.01739886,0.4638,,,,,,40,0,40,0,1,,,,,
,,905518,001,2023-07-24_23h32.45.481,arm3_q,2022.2.5,Win32,59.97720866,5de42a01a7cb2401ccc682c3,64aeaab685a29f4ca249be02,64beedd8f4188820daa6c315,right,-1,0.6929,0.35,5,-0.014681349,0.6137,,,,,,41,0,41,0,1,,,,,
,,905518,001,2023-07-24_23h32.45.481,arm3_q,2022.2.5,Win32,59.97720866,5de42a01a7cb2401ccc682c3,64aeaab685a29f4ca249be02,64beedd8f4188820daa6c315,right,-1,0.6929,0.35,5,-0.031063205,0.534,,,,,,42,0,42,0,1,,,,,
,,905518,001,2023-07-24_23h32.45.481,arm3_q,2022.2.5,Win32,59.97720866,5de42a01a7cb2401ccc682c3,64aeaab685a29f4ca249be02,64beedd8f4188820daa6c315,right,-1,0.6929,0.35,5,-0.018968783,0.6287,,,,,,43,0,43,0,1,,,,,
,,905518,001,2023-07-24_23h32.45.481,arm3_q,2022.2.5,Win32,59.97720866,5de42a01a7cb2401ccc682c3,64aeaab685a29f4ca249be02,64beedd8f4188820daa6c315,right,-1,0.6929,0.35,5,-0.00155485,0.532,,,,,,44,0,44,0,1,,,,,
,,905518,001,2023-07-24_23h32.45.481,arm3_q,2022.2.5,Win32,59.97720866,5de42a01a7cb2401ccc682c3,64aeaab685a29f4ca249be02,64beedd8f4188820daa6c315,up,-1,0.6929,0.35,4,0,0.8772,,,,,,45,0,45,0,1,,,,,
,,905518,001,2023-07-24_23h32.45.481,arm3_q,2022.2.5,Win32,59.97720866,5de42a01a7cb2401ccc682c3,64aeaab685a29f4ca249be02,64beedd8f4188820daa6c315,right,-1,0.6929,0.35,4,-0.006061099,0.85,,,,,,46,0,46,0,1,,,,,
,,905518,001,2023-07-24_23h32.45.481,arm3_q,2022.2.5,Win32,59.97720866,5de42a01a7cb2401ccc682c3,64aeaab685a29f4ca249be02,64beedd8f4188820daa6c315,right,-1,0.6929,0.35,4,-0.011284312,0.4384,,,,,,47,0,47,0,1,,,,,
,,905518,001,2023-07-24_23h32.45.481,arm3_q,2022.2.5,Win32,59.97720866,5de42a01a7cb2401ccc682c3,64aeaab685a29f4ca249be02,64beedd8f4188820daa6c315,right,-1,0.6929,0.35,4,0.011845251,0.5343,,,,,,48,0,48,0,1,,,,,
,,905518,001,2023-07-24_23h32.45.481,arm3_q,2022.2.5,Win32,59.97720866,5de42a01a7cb2401ccc682c3,64aeaab685a29f4ca249be02,64beedd8f4188820daa6c315,right,-1,0.6929,0.35,4,0.004990463,0.4962,,,,,,49,0,49,0,1,,,,,
,,905518,001,2023-07-24_23h32.45.481,arm3_q,2022.2.5,Win32,59.97720866,5de42a01a7cb2401ccc682c3,64aeaab685a29f4ca249be02,64beedd8f4188820daa6c315,right,-1,0.6929,0.35,4,-0.006329089,0.7075,,,,,,50,0,50,0,1,,,,,
,,905518,001,2023-07-24_23h32.45.481,arm3_q,2022.2.5,Win32,59.97720866,5de42a01a7cb2401ccc682c3,64aeaab685a29f4ca249be02,64beedd8f4188820daa6c315,down,1,0.6929,0.35,4,0,0.7408,,,,,,51,0,51,0,1,,,,,
,,905518,001,2023-07-24_23h32.45.481,arm3_q,2022.2.5,Win32,59.97720866,5de42a01a7cb2401ccc682c3,64aeaab685a29f4ca249be02,64beedd8f4188820daa6c315,right,1,0.6929,0.35,4,-0.001896267,1.0555,,,,,,52,0,52,0,1,,,,,
,,905518,001,2023-07-24_23h32.45.481,arm3_q,2022.2.5,Win32,59.97720866,5de42a01a7cb2401ccc682c3,64aeaab685a29f4ca249be02,64beedd8f4188820daa6c315,up,1,0.6929,0.35,5,0,0.9016,,,,,,53,0,53,0,1,,,,,
,,905518,001,2023-07-24_23h32.45.481,arm3_q,2022.2.5,Win32,59.97720866,5de42a01a7cb2401ccc682c3,64aeaab685a29f4ca249be02,64beedd8f4188820daa6c315,right,1,0.6929,0.35,5,-0.0019337,1.0636,,,,,,54,0,54,0,1,,,,,
,,905518,001,2023-07-24_23h32.45.481,arm3_q,2022.2.5,Win32,59.97720866,5de42a01a7cb2401ccc682c3,64aeaab685a29f4ca249be02,64beedd8f4188820daa6c315,right,1,0.6929,0.35,5,0.007961324,0.5845,,,,,,55,0,55,0,1,,,,,
,,905518,001,2023-07-24_23h32.45.481,arm3_q,2022.2.5,Win32,59.97720866,5de42a01a7cb2401ccc682c3,64aeaab685a29f4ca249be02,64beedd8f4188820daa6c315,up,1,0.6929,0.35,6,0,0.5507,,,,,,56,0,56,0,1,,,,,
,,905518,001,2023-07-24_23h32.45.481,arm3_q,2022.2.5,Win32,59.97720866,5de42a01a7cb2401ccc682c3,64aeaab685a29f4ca249be02,64beedd8f4188820daa6c315,right,1,0.6929,0.35,6,0.020205146,1.6157,,,,,,57,0,57,0,1,,,,,
,,905518,001,2023-07-24_23h32.45.481,arm3_q,2022.2.5,Win32,59.97720866,5de42a01a7cb2401ccc682c3,64aeaab685a29f4ca249be02,64beedd8f4188820daa6c315,right,1,0.6929,0.35,6,0.003446393,0.7504,,,,,,58,0,58,0,1,,,,,
,,905518,001,2023-07-24_23h32.45.481,arm3_q,2022.2.5,Win32,59.97720866,5de42a01a7cb2401ccc682c3,64aeaab685a29f4ca249be02,64beedd8f4188820daa6c315,right,1,0.6929,0.35,6,0.031123208,0.5028,,,,,,59,0,59,0,1,,,,,
,,905518,001,2023-07-24_23h32.45.481,arm3_q,2022.2.5,Win32,59.97720866,5de42a01a7cb2401ccc682c3,64aeaab685a29f4ca249be02,64beedd8f4188820daa6c315,up,1,0.6929,0.35,6,0,0.4283,,,,,,60,0,60,0,1,,,,,
,,905518,001,2023-07-24_23h32.45.481,arm3_q,2022.2.5,Win32,59.97720866,5de42a01a7cb2401ccc682c3,64aeaab685a29f4ca249be02,64beedd8f4188820daa6c315,right,1,0.6929,0.35,6,0.006825679,1.016,,,,,,61,0,61,0,1,,,,,
,,905518,001,2023-07-24_23h32.45.481,arm3_q,2022.2.5,Win32,59.97720866,5de42a01a7cb2401ccc682c3,64aeaab685a29f4ca249be02,64beedd8f4188820daa6c315,right,1,0.6929,0.35,6,0.025831868,0.6245,,,,,,62,0,62,0,1,,,,,
,,905518,001,2023-07-24_23h32.45.481,arm3_q,2022.2.5,Win32,59.97720866,5de42a01a7cb2401ccc682c3,64aeaab685a29f4ca249be02,64beedd8f4188820daa6c315,up,1,0.6929,0.35,7,0,0.6555,,,,,,63,0,63,0,1,,,,,
,,905518,001,2023-07-24_23h32.45.481,arm3_q,2022.2.5,Win32,59.97720866,5de42a01a7cb2401ccc682c3,64aeaab685a29f4ca249be02,64beedd8f4188820daa6c315,right,1,0.6929,0.35,7,0.017581354,1.3473,,,,,,64,0,64,0,1,,,,,
,,905518,001,2023-07-24_23h32.45.481,arm3_q,2022.2.5,Win32,59.97720866,5de42a01a7cb2401ccc682c3,64aeaab685a29f4ca249be02,64beedd8f4188820daa6c315,right,1,0.6929,0.35,7,0.012866348,0.5025,,,,,,65,0,65,0,1,,,,,
,,905518,001,2023-07-24_23h32.45.481,arm3_q,2022.2.5,Win32,59.97720866,5de42a01a7cb2401ccc682c3,64aeaab685a29f4ca249be02,64beedd8f4188820daa6c315,up,-1,0.6929,0.35,8,0,0.7676,,,,,,66,0,66,0,1,,,,,
,,905518,001,2023-07-24_23h32.45.481,arm3_q,2022.2.5,Win32,59.97720866,5de42a01a7cb2401ccc682c3,64aeaab685a29f4ca249be02,64beedd8f4188820daa6c315,right,-1,0.6929,0.35,8,-0.005130204,0.9461,,,,,,67,0,67,0,1,,,,,
,,905518,001,2023-07-24_23h32.45.481,arm3_q,2022.2.5,Win32,59.97720866,5de42a01a7cb2401ccc682c3,64aeaab685a29f4ca249be02,64beedd8f4188820daa6c315,right,-1,0.6929,0.35,8,-0.029880953,0.4984,,,,,,68,0,68,0,1,,,,,
,,905518,001,2023-07-24_23h32.45.481,arm3_q,2022.2.5,Win32,59.97720866,5de42a01a7cb2401ccc682c3,64aeaab685a29f4ca249be02,64beedd8f4188820daa6c315,down,-1,0.6929,0.35,9,0,0.7752,,,,,,69,0,69,0,1,,,,,
,,905518,001,2023-07-24_23h32.45.481,arm3_q,2022.2.5,Win32,59.97720866,5de42a01a7cb2401ccc682c3,64aeaab685a29f4ca249be02,64beedd8f4188820daa6c315,right,-1,0.6929,0.35,9,-0.013657968,0.9435,,,,,,70,0,70,0,1,,,,,
,,905518,001,2023-07-24_23h32.45.481,arm3_q,2022.2.5,Win32,59.97720866,5de42a01a7cb2401ccc682c3,64aeaab685a29f4ca249be02,64beedd8f4188820daa6c315,right,-1,0.6929,0.35,9,-0.016592596,0.5381,,,,,,71,0,71,0,1,,,,,
,,905518,001,2023-07-24_23h32.45.481,arm3_q,2022.2.5,Win32,59.97720866,5de42a01a7cb2401ccc682c3,64aeaab685a29f4ca249be02,64beedd8f4188820daa6c315,down,-1,0.6929,0.35,10,0,0.6521,,,,,,72,0,72,0,1,,,,,
,,905518,001,2023-07-24_23h32.45.481,arm3_q,2022.2.5,Win32,59.97720866,5de42a01a7cb2401ccc682c3,64aeaab685a29f4ca249be02,64beedd8f4188820daa6c315,right,-1,0.6929,0.35,10,-0.032858196,0.934,,,,,,73,0,73,0,1,,,,,
,,905518,001,2023-07-24_23h32.45.481,arm3_q,2022.2.5,Win32,59.97720866,5de42a01a7cb2401ccc682c3,64aeaab685a29f4ca249be02,64beedd8f4188820daa6c315,right,-1,0.6929,0.35,10,-0.035157867,0.4516,,,,,,74,0,74,0,1,,,,,
,,905518,001,2023-07-24_23h32.45.481,arm3_q,2022.2.5,Win32,59.97720866,5de42a01a7cb2401ccc682c3,64aeaab685a29f4ca249be02,64beedd8f4188820daa6c315,down,-1,0.6929,0.35,11,0,0.4228,,,,,,75,0,75,0,1,,,,,
,,905518,001,2023-07-24_23h32.45.481,arm3_q,2022.2.5,Win32,59.97720866,5de42a01a7cb2401ccc682c3,64aeaab685a29f4ca249be02,64beedd8f4188820daa6c315,right,-1,0.6929,0.35,11,-0.00964933,1.271,,,,,,76,0,76,0,1,,,,,
,,905518,001,2023-07-24_23h32.45.481,arm3_q,2022.2.5,Win32,59.97720866,5de42a01a7cb2401ccc682c3,64aeaab685a29f4ca249be02,64beedd8f4188820daa6c315,right,-1,0.6929,0.35,11,-0.010122407,0.4189,,,,,,77,0,77,0,1,,,,,
,,905518,001,2023-07-24_23h32.45.481,arm3_q,2022.2.5,Win32,59.97720866,5de42a01a7cb2401ccc682c3,64aeaab685a29f4ca249be02,64beedd8f4188820daa6c315,down,-1,0.6929,0.35,12,0,0.4332,,,,,,78,0,78,0,1,,,,,
,,905518,001,2023-07-24_23h32.45.481,arm3_q,2022.2.5,Win32,59.97720866,5de42a01a7cb2401ccc682c3,64aeaab685a29f4ca249be02,64beedd8f4188820daa6c315,right,-1,0.6929,0.35,12,-0.002608172,0.9614,,,,,,79,0,79,0,1,,,,,
,,905518,001,2023-07-24_23h32.45.481,arm3_q,2022.2.5,Win32,59.97720866,5de42a01a7cb2401ccc682c3,64aeaab685a29f4ca249be02,64beedd8f4188820daa6c315,right,-1,0.6929,0.35,12,-0.008594961,0.3869,,,,,,80,0,80,0,1,,,,,
,,905518,001,2023-07-24_23h32.45.481,arm3_q,2022.2.5,Win32,59.97720866,5de42a01a7cb2401ccc682c3,64aeaab685a29f4ca249be02,64beedd8f4188820daa6c315,right,-1,0.6929,0.35,12,-0.003621923,0.6828,,,,,,81,0,81,0,1,,,,,
,,905518,001,2023-07-24_23h32.45.481,arm3_q,2022.2.5,Win32,59.97720866,5de42a01a7cb2401ccc682c3,64aeaab685a29f4ca249be02,64beedd8f4188820daa6c315,down,-1,0.6929,0.35,13,0,0.4386,,,,,,82,0,82,0,1,,,,,
,,905518,001,2023-07-24_23h32.45.481,arm3_q,2022.2.5,Win32,59.97720866,5de42a01a7cb2401ccc682c3,64aeaab685a29f4ca249be02,64beedd8f4188820daa6c315,right,-1,0.6929,0.35,13,0.005790004,0.5312,,,,,,83,0,83,0,1,,,,,
,,905518,001,2023-07-24_23h32.45.481,arm3_q,2022.2.5,Win32,59.97720866,5de42a01a7cb2401ccc682c3,64aeaab685a29f4ca249be02,64beedd8f4188820daa6c315,right,-1,0.6929,0.35,13,0.03074348,0.7839,,,,,,84,0,84,0,1,,,,,
,,905518,001,2023-07-24_23h32.45.481,arm3_q,2022.2.5,Win32,59.97720866,5de42a01a7cb2401ccc682c3,64aeaab685a29f4ca249be02,64beedd8f4188820daa6c315,right,-1,0.6929,0.35,13,0.021518043,0.8373,,,,,,85,0,85,0,1,,,,,
,,905518,001,2023-07-24_23h32.45.481,arm3_q,2022.2.5,Win32,59.97720866,5de42a01a7cb2401ccc682c3,64aeaab685a29f4ca249be02,64beedd8f4188820daa6c315,up,-1,0.6929,0.35,12,0,0.5874,,,,,,86,0,86,0,1,,,,,
,,905518,001,2023-07-24_23h32.45.481,arm3_q,2022.2.5,Win32,59.97720866,5de42a01a7cb2401ccc682c3,64aeaab685a29f4ca249be02,64beedd8f4188820daa6c315,right,-1,0.6929,0.35,12,-0.007638342,1.0513,,,,,,87,0,87,0,1,,,,,
,,905518,001,2023-07-24_23h32.45.481,arm3_q,2022.2.5,Win32,59.97720866,5de42a01a7cb2401ccc682c3,64aeaab685a29f4ca249be02,64beedd8f4188820daa6c315,right,-1,0.6929,0.35,12,-0.006957368,0.3628,,,,,,88,0,88,0,1,,,,,
,,905518,001,2023-07-24_23h32.45.481,arm3_q,2022.2.5,Win32,59.97720866,5de42a01a7cb2401ccc682c3,64aeaab685a29f4ca249be02,64beedd8f4188820daa6c315,down,-1,0.6929,0.35,13,0,0.529,,,,,,89,0,89,0,1,,,,,
,,905518,001,2023-07-24_23h32.45.481,arm3_q,2022.2.5,Win32,59.97720866,5de42a01a7cb2401ccc682c3,64aeaab685a29f4ca249be02,64beedd8f4188820daa6c315,right,-1,0.6929,0.35,13,-0.00378887,0.8916,,,,,,90,0,90,0,1,,,,,
,,905518,001,2023-07-24_23h32.45.481,arm3_q,2022.2.5,Win32,59.97720866,5de42a01a7cb2401ccc682c3,64aeaab685a29f4ca249be02,64beedd8f4188820daa6c315,right,-1,0.6929,0.35,13,-0.014588311,0.4659,,,,,,91,0,91,0,1,,,,,
,,905518,001,2023-07-24_23h32.45.481,arm3_q,2022.2.5,Win32,59.97720866,5de42a01a7cb2401ccc682c3,64aeaab685a29f4ca249be02,64beedd8f4188820daa6c315,right,-1,0.6929,0.35,13,-0.004523892,0.5415,,,,,,92,0,92,0,1,,,,,
,,905518,001,2023-07-24_23h32.45.481,arm3_q,2022.2.5,Win32,59.97720866,5de42a01a7cb2401ccc682c3,64aeaab685a29f4ca249be02,64beedd8f4188820daa6c315,down,-1,0.6929,0.35,14,0,0.5681,,,,,,93,0,93,0,1,,,,,
,,905518,001,2023-07-24_23h32.45.481,arm3_q,2022.2.5,Win32,59.97720866,5de42a01a7cb2401ccc682c3,64aeaab685a29f4ca249be02,64beedd8f4188820daa6c315,right,-1,0.6929,0.35,14,0.000773163,0.8159,,,,,,94,0,94,0,1,,,,,
,,905518,001,2023-07-24_23h32.45.481,arm3_q,2022.2.5,Win32,59.97720866,5de42a01a7cb2401ccc682c3,64aeaab685a29f4ca249be02,64beedd8f4188820daa6c315,right,-1,0.6929,0.35,14,-0.027455476,0.4507,,,,,,95,0,95,0,1,,,,,
,,905518,001,2023-07-24_23h32.45.481,arm3_q,2022.2.5,Win32,59.97720866,5de42a01a7cb2401ccc682c3,64aeaab685a29f4ca249be02,64beedd8f4188820daa6c315,down,1,0.6929,0.35,14,0,0.5086,,,,,,96,0,96,0,1,,,,,
,,905518,001,2023-07-24_23h32.45.481,arm3_q,2022.2.5,Win32,59.97720866,5de42a01a7cb2401ccc682c3,64aeaab685a29f4ca249be02,64beedd8f4188820daa6c315,right,1,0.6929,0.35,14,3.08354E-05,0.9423,,,,,,97,0,97,0,1,,,,,
,,905518,001,2023-07-24_23h32.45.481,arm3_q,2022.2.5,Win32,59.97720866,5de42a01a7cb2401ccc682c3,64aeaab685a29f4ca249be02,64beedd8f4188820daa6c315,right,1,0.6929,0.35,14,0.01253466,0.5239,,,,,,98,0,98,0,1,,,,,
,,905518,001,2023-07-24_23h32.45.481,arm3_q,2022.2.5,Win32,59.97720866,5de42a01a7cb2401ccc682c3,64aeaab685a29f4ca249be02,64beedd8f4188820daa6c315,right,1,0.6929,0.35,14,0.016169516,0.3169,,,,,,99,0,99,0,1,,,,,
,,905518,001,2023-07-24_23h32.45.481,arm3_q,2022.2.5,Win32,59.97720866,5de42a01a7cb2401ccc682c3,64aeaab685a29f4ca249be02,64beedd8f4188820daa6c315,up,-1,0.6929,0.35,15,0,0.5819,,,,,,100,0,100,0,1,,,,,
,,905518,001,2023-07-24_23h32.45.481,arm3_q,2022.2.5,Win32,59.97720866,5de42a01a7cb2401ccc682c3,64aeaab685a29f4ca249be02,64beedd8f4188820daa6c315,right,-1,0.6929,0.35,15,-0.001631755,0.9422,,,,,,101,0,101,0,1,,,,,
,,905518,001,2023-07-24_23h32.45.481,arm3_q,2022.2.5,Win32,59.97720866,5de42a01a7cb2401ccc682c3,64aeaab685a29f4ca249be02,64beedd8f4188820daa6c315,right,-1,0.6929,0.35,15,-0.002197868,0.4007,,,,,,102,0,102,0,1,,,,,
,,905518,001,2023-07-24_23h32.45.481,arm3_q,2022.2.5,Win32,59.97720866,5de42a01a7cb2401ccc682c3,64aeaab685a29f4ca249be02,64beedd8f4188820daa6c315,right,-1,0.6929,0.35,15,-0.010189483,0.4652,,,,,,103,0,103,0,1,,,,,
,,905518,001,2023-07-24_23h32.45.481,arm3_q,2022.2.5,Win32,59.97720866,5de42a01a7cb2401ccc682c3,64aeaab685a29f4ca249be02,64beedd8f4188820daa6c315,up,-1,0.6929,0.35,14,0,0.5963,,,,,,104,0,104,0,1,,,,,
,,905518,001,2023-07-24_23h32.45.481,arm3_q,2022.2.5,Win32,59.97720866,5de42a01a7cb2401ccc682c3,64aeaab685a29f4ca249be02,64beedd8f4188820daa6c315,right,-1,0.6929,0.35,14,0.017635306,0.7647,,,,,,105,0,105,0,1,,,,,
,,905518,001,2023-07-24_23h32.45.481,arm3_q,2022.2.5,Win32,59.97720866,5de42a01a7cb2401ccc682c3,64aeaab685a29f4ca249be02,64beedd8f4188820daa6c315,right,-1,0.6929,0.35,14,0.002947875,0.4643,,,,,,106,0,106,0,1,,,,,
,,905518,001,2023-07-24_23h32.45.481,arm3_q,2022.2.5,Win32,59.97720866,5de42a01a7cb2401ccc682c3,64aeaab685a29f4ca249be02,64beedd8f4188820daa6c315,right,-1,0.6929,0.35,14,-0.004539062,0.3782,,,,,,107,0,107,0,1,,,,,
,,905518,001,2023-07-24_23h32.45.481,arm3_q,2022.2.5,Win32,59.97720866,5de42a01a7cb2401ccc682c3,64aeaab685a29f4ca249be02,64beedd8f4188820daa6c315,up,-1,0.6929,0.35,13,0,0.6904,,,,,,108,0,108,0,1,,,,,
,,905518,001,2023-07-24_23h32.45.481,arm3_q,2022.2.5,Win32,59.97720866,5de42a01a7cb2401ccc682c3,64aeaab685a29f4ca249be02,64beedd8f4188820daa6c315,right,-1,0.6929,0.35,13,-0.044380055,0.7665,,,,,,109,0,109,0,1,,,,,
,,905518,001,2023-07-24_23h32.45.481,arm3_q,2022.2.5,Win32,59.97720866,5de42a01a7cb2401ccc682c3,64aeaab685a29f4ca249be02,64beedd8f4188820daa6c315,right,-1,0.6929,0.35,13,-0.037140011,0.3189,,,,,,110,0,110,0,1,,,,,
,,905518,001,2023-07-24_23h32.45.481,arm3_q,2022.2.5,Win32,59.97720866,5de42a01a7cb2401ccc682c3,64aeaab685a29f4ca249be02,64beedd8f4188820daa6c315,down,-1,0.6929,0.35,14,0,0.4588,,,,,,111,0,111,0,1,,,,,
,,905518,001,2023-07-24_23h32.45.481,arm3_q,2022.2.5,Win32,59.97720866,5de42a01a7cb2401ccc682c3,64aeaab685a29f4ca249be02,64beedd8f4188820daa6c315,right,-1,0.6929,0.35,14,-0.047966511,1.0061,,,,,,112,0,112,0,1,,,,,
,,905518,001,2023-07-24_23h32.45.481,arm3_q,2022.2.5,Win32,59.97720866,5de42a01a7cb2401ccc682c3,64aeaab685a29f4ca249be02,64beedd8f4188820daa6c315,right,-1,0.6929,0.35,14,-0.035309193,0.4491,,,,,,113,0,113,0,1,,,,,
,,905518,001,2023-07-24_23h32.45.481,arm3_q,2022.2.5,Win32,59.97720866,5de42a01a7cb2401ccc682c3,64aeaab685a29f4ca249be02,64beedd8f4188820daa6c315,right,-1,0.6929,0.35,14,-0.023091049,0.5547,,,,,,114,0,114,0,1,,,,,
,,905518,001,2023-07-24_23h32.45.481,arm3_q,2022.2.5,Win32,59.97720866,5de42a01a7cb2401ccc682c3,64aeaab685a29f4ca249be02,64beedd8f4188820daa6c315,right,-1,0.6929,0.35,14,-0.006304606,0.5484,,,,,,115,0,115,0,1,,,,,
,,905518,001,2023-07-24_23h32.45.481,arm3_q,2022.2.5,Win32,59.97720866,5de42a01a7cb2401ccc682c3,64aeaab685a29f4ca249be02,64beedd8f4188820daa6c315,down,1,0.6929,0.35,15,0,0.7209,,,,,,116,0,116,0,1,,,,,
,,905518,001,2023-07-24_23h32.45.481,arm3_q,2022.2.5,Win32,59.97720866,5de42a01a7cb2401ccc682c3,64aeaab685a29f4ca249be02,64beedd8f4188820daa6c315,right,1,0.6929,0.35,15,-0.012394541,1.5219,,,,,,117,0,117,0,1,,,,,
,,905518,001,2023-07-24_23h32.45.481,arm3_q,2022.2.5,Win32,59.97720866,5de42a01a7cb2401ccc682c3,64aeaab685a29f4ca249be02,64beedd8f4188820daa6c315,right,1,0.6929,0.35,15,-0.041045281,0.5648,,,,,,118,0,118,0,1,,,,,
,,905518,001,2023-07-24_23h32.45.481,arm3_q,2022.2.5,Win32,59.97720866,5de42a01a7cb2401ccc682c3,64aeaab685a29f4ca249be02,64beedd8f4188820daa6c315,right,1,0.6929,0.35,15,-0.005059184,2.1113,,,,,,119,0,119,0,1,,,,,
,,905518,001,2023-07-24_23h32.45.481,arm3_q,2022.2.5,Win32,59.97720866,5de42a01a7cb2401ccc682c3,64aeaab685a29f4ca249be02,64beedd8f4188820daa6c315,up,1,0.6929,0.35,16,0,0.9029,,,,,,120,0,120,0,1,,,,,
,,905518,001,2023-07-24_23h32.45.481,arm3_q,2022.2.5,Win32,59.97720866,5de42a01a7cb2401ccc682c3,64aeaab685a29f4ca249be02,64beedd8f4188820daa6c315,right,1,0.6929,0.35,16,0.048219693,1.4762,,,,,,121,0,121,0,1,,,,,
,,905518,001,2023-07-24_23h32.45.481,arm3_q,2022.2.5,Win32,59.97720866,5de42a01a7cb2401ccc682c3,64aeaab685a29f4ca249be02,64beedd8f4188820daa6c315,right,1,0.6929,0.35,16,0.066824434,0.4349,,,,,,122,0,122,0,1,,,,,
,,905518,001,2023-07-24_23h32.45.481,arm3_q,2022.2.5,Win32,59.97720866,5de42a01a7cb2401ccc682c3,64aeaab685a29f4ca249be02,64beedd8f4188820daa6c315,up,-1,0.6929,0.35,17,0,0.3188,,,,,,123,0,123,0,1,,,,,
,,905518,001,2023-07-24_23h32.45.481,arm3_q,2022.2.5,Win32,59.97720866,5de42a01a7cb2401ccc682c3,64aeaab685a29f4ca249be02,64beedd8f4188820daa6c315,right,-1,0.6929,0.35,17,-0.034437785,1.2419,,,,,,124,0,124,0,1,,,,,
,,905518,001,2023-07-24_23h32.45.481,arm3_q,2022.2.5,Win32,59.97720866,5de42a01a7cb2401ccc682c3,64aeaab685a29f4ca249be02,64beedd8f4188820daa6c315,up,1,0.6929,0.35,16,0,0.8336,,,,,,125,0,125,0,1,,,,,
,,905518,001,2023-07-24_23h32.45.481,arm3_q,2022.2.5,Win32,59.97720866,5de42a01a7cb2401ccc682c3,64aeaab685a29f4ca249be02,64beedd8f4188820daa6c315,right,1,0.6929,0.35,16,-0.031817341,0.8674,,,,,,126,0,126,0,1,,,,,
,,905518,001,2023-07-24_23h32.45.481,arm3_q,2022.2.5,Win32,59.97720866,5de42a01a7cb2401ccc682c3,64aeaab685a29f4ca249be02,64beedd8f4188820daa6c315,right,1,0.6929,0.35,16,-0.011225303,0.6091,,,,,,127,0,127,0,1,,,,,
,,905518,001,2023-07-24_23h32.45.481,arm3_q,2022.2.5,Win32,59.97720866,5de42a01a7cb2401ccc682c3,64aeaab685a29f4ca249be02,64beedd8f4188820daa6c315,right,1,0.6929,0.35,16,0.012266187,0.4658,,,,,,128,0,128,0,1,,,,,
,,905518,001,2023-07-24_23h32.45.481,arm3_q,2022.2.5,Win32,59.97720866,5de42a01a7cb2401ccc682c3,64aeaab685a29f4ca249be02,64beedd8f4188820daa6c315,up,1,0.6929,0.35,16,0,0.6478,,,,,,129,0,129,0,1,,,,,
,,905518,001,2023-07-24_23h32.45.481,arm3_q,2022.2.5,Win32,59.97720866,5de42a01a7cb2401ccc682c3,64aeaab685a29f4ca249be02,64beedd8f4188820daa6c315,right,1,0.6929,0.35,16,0.013204137,0.9666,,,,,,130,0,130,0,1,,,,,
,,905518,001,2023-07-24_23h32.45.481,arm3_q,2022.2.5,Win32,59.97720866,5de42a01a7cb2401ccc682c3,64aeaab685a29f4ca249be02,64beedd8f4188820daa6c315,right,1,0.6929,0.35,16,0.030658869,0.3879,,,,,,131,0,131,0,1,,,,,
,,905518,001,2023-07-24_23h32.45.481,arm3_q,2022.2.5,Win32,59.97720866,5de42a01a7cb2401ccc682c3,64aeaab685a29f4ca249be02,64beedd8f4188820daa6c315,right,1,0.6929,0.35,16,-0.001266672,0.7094,,,,,,132,0,132,0,1,,,,,
,,905518,001,2023-07-24_23h32.45.481,arm3_q,2022.2.5,Win32,59.97720866,5de42a01a7cb2401ccc682c3,64aeaab685a29f4ca249be02,64beedd8f4188820daa6c315,up,-1,0.6929,0.35,17,0,0.5617,,,,,,133,0,133,0,1,,,,,
,,905518,001,2023-07-24_23h32.45.481,arm3_q,2022.2.5,Win32,59.97720866,5de42a01a7cb2401ccc682c3,64aeaab685a29f4ca249be02,64beedd8f4188820daa6c315,right,-1,0.6929,0.35,17,-0.022642901,2.5679,,,,,,134,0,134,0,1,,,,,
,,905518,001,2023-07-24_23h32.45.481,arm3_q,2022.2.5,Win32,59.97720866,5de42a01a7cb2401ccc682c3,64aeaab685a29f4ca249be02,64beedd8f4188820daa6c315,right,-1,0.6929,0.35,17,-0.062713606,0.6587,,,,,,135,0,135,0,1,,,,,
,,905518,001,2023-07-24_23h32.45.481,arm3_q,2022.2.5,Win32,59.97720866,5de42a01a7cb2401ccc682c3,64aeaab685a29f4ca249be02,64beedd8f4188820daa6c315,down,-1,0.6929,0.35,18,0,0.8021,,,,,,136,0,136,0,1,,,,,
,,905518,001,2023-07-24_23h32.45.481,arm3_q,2022.2.5,Win32,59.97720866,5de42a01a7cb2401ccc682c3,64aeaab685a29f4ca249be02,64beedd8f4188820daa6c315,right,-1,0.6929,0.35,18,-0.024048962,0.7258,,,,,,137,0,137,0,1,,,,,
,,905518,001,2023-07-24_23h32.45.481,arm3_q,2022.2.5,Win32,59.97720866,5de42a01a7cb2401ccc682c3,64aeaab685a29f4ca249be02,64beedd8f4188820daa6c315,right,-1,0.6929,0.35,18,-0.014738653,0.6732,,,,,,138,0,138,0,1,,,,,
,,905518,001,2023-07-24_23h32.45.481,arm3_q,2022.2.5,Win32,59.97720866,5de42a01a7cb2401ccc682c3,64aeaab685a29f4ca249be02,64beedd8f4188820daa6c315,right,-1,0.6929,0.35,18,-0.008461528,0.446,,,,,,139,0,139,0,1,,,,,
,,905518,001,2023-07-24_23h32.45.481,arm3_q,2022.2.5,Win32,59.97720866,5de42a01a7cb2401ccc682c3,64aeaab685a29f4ca249be02,64beedd8f4188820daa6c315,down,-1,0.6929,0.35,19,0,0.5081,,,,,,140,0,140,0,1,,,,,
,,905518,001,2023-07-24_23h32.45.481,arm3_q,2022.2.5,Win32,59.97720866,5de42a01a7cb2401ccc682c3,64aeaab685a29f4ca249be02,64beedd8f4188820daa6c315,right,-1,0.6929,0.35,19,-0.010698482,0.6227,,,,,,141,0,141,0,1,,,,,
,,905518,001,2023-07-24_23h32.45.481,arm3_q,2022.2.5,Win32,59.97720866,5de42a01a7cb2401ccc682c3,64aeaab685a29f4ca249be02,64beedd8f4188820daa6c315,right,-1,0.6929,0.35,19,-0.014564445,0.8449,,,,,,142,0,142,0,1,,,,,
,,905518,001,2023-07-24_23h32.45.481,arm3_q,2022.2.5,Win32,59.97720866,5de42a01a7cb2401ccc682c3,64aeaab685a29f4ca249be02,64beedd8f4188820daa6c315,down,1,0.6929,0.35,20,0,0.516,,,,,,143,0,143,0,1,,,,,
,,905518,001,2023-07-24_23h32.45.481,arm3_q,2022.2.5,Win32,59.97720866,5de42a01a7cb2401ccc682c3,64aeaab685a29f4ca249be02,64beedd8f4188820daa6c315,right,1,0.6929,0.35,20,0.016183286,0.5985,,,,,,144,0,144,0,1,,,,,
,,905518,001,2023-07-24_23h32.45.481,arm3_q,2022.2.5,Win32,59.97720866,5de42a01a7cb2401ccc682c3,64aeaab685a29f4ca249be02,64beedd8f4188820daa6c315,up,-1,0.6929,0.35,21,0,0.7405,,,,,,145,0,145,0,1,,,,,
,,905518,001,2023-07-24_23h32.45.481,arm3_q,2022.2.5,Win32,59.97720866,5de42a01a7cb2401ccc682c3,64aeaab685a29f4ca249be02,64beedd8f4188820daa6c315,right,-1,0.6929,0.35,21,-0.008961489,0.8342,,,,,,146,0,146,0,1,,,,,
,,905518,001,2023-07-24_23h32.45.481,arm3_q,2022.2.5,Win32,59.97720866,5de42a01a7cb2401ccc682c3,64aeaab685a29f4ca249be02,64beedd8f4188820daa6c315,down,1,0.6929,0.35,22,0,0.9663,,,,,,147,0,147,0,1,,,,,
,,905518,001,2023-07-24_23h32.45.481,arm3_q,2022.2.5,Win32,59.97720866,5de42a01a7cb2401ccc682c3,64aeaab685a29f4ca249be02,64beedd8f4188820daa6c315,right,1,0.6929,0.35,22,0.008463665,0.9335,,,,,,148,0,148,0,1,,,,,
,,905518,001,2023-07-24_23h32.45.481,arm3_q,2022.2.5,Win32,59.97720866,5de42a01a7cb2401ccc682c3,64aeaab685a29f4ca249be02,64beedd8f4188820daa6c315,right,1,0.6929,0.35,22,0.025783649,0.4977,,,,,,149,0,149,0,1,,,,,
,,905518,001,2023-07-24_23h32.45.481,arm3_q,2022.2.5,Win32,59.97720866,5de42a01a7cb2401ccc682c3,64aeaab685a29f4ca249be02,64beedd8f4188820daa6c315,up,1,0.6929,0.35,23,0,0.6022,,,,,,150,0,150,0,1,,,,,
,,905518,001,2023-07-24_23h32.45.481,arm3_q,2022.2.5,Win32,59.97720866,5de42a01a7cb2401ccc682c3,64aeaab685a29f4ca249be02,64beedd8f4188820daa6c315,right,1,0.6929,0.35,23,0.033161664,0.8504,,,,,,151,0,151,0,1,,,,,
,,905518,001,2023-07-24_23h32.45.481,arm3_q,2022.2.5,Win32,59.97720866,5de42a01a7cb2401ccc682c3,64aeaab685a29f4ca249be02,64beedd8f4188820daa6c315,up,-1,0.6929,0.35,24,0,0.4573,,,,,,152,0,152,0,1,,,,,
,,905518,001,2023-07-24_23h32.45.481,arm3_q,2022.2.5,Win32,59.97720866,5de42a01a7cb2401ccc682c3,64aeaab685a29f4ca249be02,64beedd8f4188820daa6c315,right,-1,0.6929,0.35,24,-0.015827644,1.9899,,,,,,153,0,153,0,1,,,,,
,,905518,001,2023-07-24_23h32.45.481,arm3_q,2022.2.5,Win32,59.97720866,5de42a01a7cb2401ccc682c3,64aeaab685a29f4ca249be02,64beedd8f4188820daa6c315,down,1,0.6929,0.35,24,0,0.6372,,,,,,154,0,154,0,1,,,,,
,,905518,001,2023-07-24_23h32.45.481,arm3_q,2022.2.5,Win32,59.97720866,5de42a01a7cb2401ccc682c3,64aeaab685a29f4ca249be02,64beedd8f4188820daa6c315,right,1,0.6929,0.35,24,0.008437029,0.8353,,,,,,155,0,155,0,1,,,,,
,,905518,001,2023-07-24_23h32.45.481,arm3_q,2022.2.5,Win32,59.97720866,5de42a01a7cb2401ccc682c3,64aeaab685a29f4ca249be02,64beedd8f4188820daa6c315,right,1,0.6929,0.35,24,-0.000183989,0.5391,,,,,,156,0,156,0,1,,,,,
,,905518,001,2023-07-24_23h32.45.481,arm3_q,2022.2.5,Win32,59.97720866,5de42a01a7cb2401ccc682c3,64aeaab685a29f4ca249be02,64beedd8f4188820daa6c315,up,-1,0.6929,0.35,25,0,0.5498,,,,,,157,0,157,0,1,,,,,
,,905518,001,2023-07-24_23h32.45.481,arm3_q,2022.2.5,Win32,59.97720866,5de42a01a7cb2401ccc682c3,64aeaab685a29f4ca249be02,64beedd8f4188820daa6c315,right,-1,0.6929,0.35,25,-0.0317479,0.8637,,,,,,158,0,158,0,1,,,,,
,,905518,001,2023-07-24_23h32.45.481,arm3_q,2022.2.5,Win32,59.97720866,5de42a01a7cb2401ccc682c3,64aeaab685a29f4ca249be02,64beedd8f4188820daa6c315,down,-1,0.6929,0.35,26,0,0.7492,,,,,,159,0,159,0,1,,,,,
,,905518,001,2023-07-24_23h32.45.481,arm3_q,2022.2.5,Win32,59.97720866,5de42a01a7cb2401ccc682c3,64aeaab685a29f4ca249be02,64beedd8f4188820daa6c315,right,-1,0.6929,0.35,26,-0.017397829,0.6179,,,,,,160,0,160,0,1,,,,,
,,905518,001,2023-07-24_23h32.45.481,arm3_q,2022.2.5,Win32,59.97720866,5de42a01a7cb2401ccc682c3,64aeaab685a29f4ca249be02,64beedd8f4188820daa6c315,down,1,0.6929,0.35,27,0,0.8191,,,,,,161,0,161,0,1,,,,,
,,905518,001,2023-07-24_23h32.45.481,arm3_q,2022.2.5,Win32,59.97720866,5de42a01a7cb2401ccc682c3,64aeaab685a29f4ca249be02,64beedd8f4188820daa6c315,right,1,0.6929,0.35,27,0.010156976,0.7855,,,,,,162,0,162,0,1,,,,,
,,905518,001,2023-07-24_23h32.45.481,arm3_q,2022.2.5,Win32,59.97720866,5de42a01a7cb2401ccc682c3,64aeaab685a29f4ca249be02,64beedd8f4188820daa6c315,up,-1,0.6929,0.35,28,0,0.5359,,,,,,163,0,163,0,1,,,,,
,,905518,001,2023-07-24_23h32.45.481,arm3_q,2022.2.5,Win32,59.97720866,5de42a01a7cb2401ccc682c3,64aeaab685a29f4ca249be02,64beedd8f4188820daa6c315,right,-1,0.6929,0.35,28,-0.01330809,0.8357,,,,,,164,0,164,0,1,,,,,
,,905518,001,2023-07-24_23h32.45.481,arm3_q,2022.2.5,Win32,59.97720866,5de42a01a7cb2401ccc682c3,64aeaab685a29f4ca249be02,64beedd8f4188820daa6c315,down,1,0.6929,0.35,29,0,0.5802,,,,,,165,0,165,0,1,,,,,
,,905518,001,2023-07-24_23h32.45.481,arm3_q,2022.2.5,Win32,59.97720866,5de42a01a7cb2401ccc682c3,64aeaab685a29f4ca249be02,64beedd8f4188820daa6c315,right,1,0.6929,0.35,29,-0.012320676,0.8335,,,,,,166,0,166,0,1,,,,,
,,905518,001,2023-07-24_23h32.45.481,arm3_q,2022.2.5,Win32,59.97720866,5de42a01a7cb2401ccc682c3,64aeaab685a29f4ca249be02,64beedd8f4188820daa6c315,right,1,0.6929,0.35,29,-0.003266973,0.5216,,,,,,167,0,167,0,1,,,,,
,,905518,001,2023-07-24_23h32.45.481,arm3_q,2022.2.5,Win32,59.97720866,5de42a01a7cb2401ccc682c3,64aeaab685a29f4ca249be02,64beedd8f4188820daa6c315,down,1,0.6929,0.35,29,0,0.826,,,,,,168,0,168,0,1,,,,,
,,905518,001,2023-07-24_23h32.45.481,arm3_q,2022.2.5,Win32,59.97720866,5de42a01a7cb2401ccc682c3,64aeaab685a29f4ca249be02,64beedd8f4188820daa6c315,right,1,0.6929,0.35,29,-0.000809601,0.7924,,,,,,169,0,169,0,1,,,,,
,,905518,001,2023-07-24_23h32.45.481,arm3_q,2022.2.5,Win32,59.97720866,5de42a01a7cb2401ccc682c3,64aeaab685a29f4ca249be02,64beedd8f4188820daa6c315,up,1,0.6929,0.35,30,0,0.906,,,,,,170,0,170,0,1,,,,,
,,905518,001,2023-07-24_23h32.45.481,arm3_q,2022.2.5,Win32,59.97720866,5de42a01a7cb2401ccc682c3,64aeaab685a29f4ca249be02,64beedd8f4188820daa6c315,right,1,0.6929,0.35,30,0.022963122,0.7365,,,,,,171,0,171,0,1,,,,,
,,905518,001,2023-07-24_23h32.45.481,arm3_q,2022.2.5,Win32,59.97720866,5de42a01a7cb2401ccc682c3,64aeaab685a29f4ca249be02,64beedd8f4188820daa6c315,up,-1,0.6929,0.35,31,0,0.6431,,,,,,172,0,172,0,1,,,,,
,,905518,001,2023-07-24_23h32.45.481,arm3_q,2022.2.5,Win32,59.97720866,5de42a01a7cb2401ccc682c3,64aeaab685a29f4ca249be02,64beedd8f4188820daa6c315,right,-1,0.6929,0.35,31,0.027613492,0.8844,,,,,,173,0,173,0,1,,,,,
,,905518,001,2023-07-24_23h32.45.481,arm3_q,2022.2.5,Win32,59.97720866,5de42a01a7cb2401ccc682c3,64aeaab685a29f4ca249be02,64beedd8f4188820daa6c315,right,-1,0.6929,0.35,31,-0.004732604,0.591,,,,,,174,0,174,0,1,,,,,
,,905518,001,2023-07-24_23h32.45.481,arm3_q,2022.2.5,Win32,59.97720866,5de42a01a7cb2401ccc682c3,64aeaab685a29f4ca249be02,64beedd8f4188820daa6c315,down,-1,0.6929,0.35,31,0,0.785,,,,,,175,0,175,0,1,,,,,
,,905518,001,2023-07-24_23h32.45.481,arm3_q,2022.2.5,Win32,59.97720866,5de42a01a7cb2401ccc682c3,64aeaab685a29f4ca249be02,64beedd8f4188820daa6c315,right,-1,0.6929,0.35,31,-0.004482707,0.7837,,,,,,176,0,176,0,1,,,,,
,,905518,001,2023-07-24_23h32.45.481,arm3_q,2022.2.5,Win32,59.97720866,5de42a01a7cb2401ccc682c3,64aeaab685a29f4ca249be02,64beedd8f4188820daa6c315,right,-1,0.6929,0.35,31,-0.000389374,0.4343,,,,,,177,0,177,0,1,,,,,
,,905518,001,2023-07-24_23h32.45.481,arm3_q,2022.2.5,Win32,59.97720866,5de42a01a7cb2401ccc682c3,64aeaab685a29f4ca249be02,64beedd8f4188820daa6c315,down,-1,0.6929,0.35,32,0,0.7736,,,,,,178,0,178,0,1,,,,,
,,905518,001,2023-07-24_23h32.45.481,arm3_q,2022.2.5,Win32,59.97720866,5de42a01a7cb2401ccc682c3,64aeaab685a29f4ca249be02,64beedd8f4188820daa6c315,right,-1,0.6929,0.35,32,0.006515953,0.4662,,,,,,179,0,179,0,1,,,,,
,,905518,001,2023-07-24_23h32.45.481,arm3_q,2022.2.5,Win32,59.97720866,5de42a01a7cb2401ccc682c3,64aeaab685a29f4ca249be02,64beedd8f4188820daa6c315,up,-1,0.6929,0.35,32,0,0.6762,,,,,,180,0,180,0,1,,,,,
,,905518,001,2023-07-24_23h32.45.481,arm3_q,2022.2.5,Win32,59.97720866,5de42a01a7cb2401ccc682c3,64aeaab685a29f4ca249be02,64beedd8f4188820daa6c315,right,-1,0.6929,0.35,32,0.00229415,0.9675,,,,,,181,0,181,0,1,,,,,
,,905518,001,2023-07-24_23h32.45.481,arm3_q,2022.2.5,Win32,59.97720866,5de42a01a7cb2401ccc682c3,64aeaab685a29f4ca249be02,64beedd8f4188820daa6c315,right,-1,0.6929,0.35,32,-0.004699288,0.5047,,,,,,182,0,182,0,1,,,,,
,,905518,001,2023-07-24_23h32.45.481,arm3_q,2022.2.5,Win32,59.97720866,5de42a01a7cb2401ccc682c3,64aeaab685a29f4ca249be02,64beedd8f4188820daa6c315,down,-1,0.6929,0.35,32,0,0.6497,,,,,,183,0,183,0,1,,,,,
,,905518,001,2023-07-24_23h32.45.481,arm3_q,2022.2.5,Win32,59.97720866,5de42a01a7cb2401ccc682c3,64aeaab685a29f4ca249be02,64beedd8f4188820daa6c315,right,-1,0.6929,0.35,32,-0.017391961,2.0415,,,,,,184,0,184,0,1,,,,,
,,905518,001,2023-07-24_23h32.45.481,arm3_q,2022.2.5,Win32,59.97720866,5de42a01a7cb2401ccc682c3,64aeaab685a29f4ca249be02,64beedd8f4188820daa6c315,right,-1,0.6929,0.35,32,-0.005353792,0.5769,,,,,,185,0,185,0,1,,,,,
,,905518,001,2023-07-24_23h32.45.481,arm3_q,2022.2.5,Win32,59.97720866,5de42a01a7cb2401ccc682c3,64aeaab685a29f4ca249be02,64beedd8f4188820daa6c315,down,-1,0.6929,0.35,33,0,0.5391,,,,,,186,0,186,0,1,,,,,
,,905518,001,2023-07-24_23h32.45.481,arm3_q,2022.2.5,Win32,59.97720866,5de42a01a7cb2401ccc682c3,64aeaab685a29f4ca249be02,64beedd8f4188820daa6c315,right,-1,0.6929,0.35,33,0.025301901,0.7163,,,,,,187,0,187,0,1,,,,,
,,905518,001,2023-07-24_23h32.45.481,arm3_q,2022.2.5,Win32,59.97720866,5de42a01a7cb2401ccc682c3,64aeaab685a29f4ca249be02,64beedd8f4188820daa6c315,right,-1,0.6929,0.35,33,0.008703858,1.4081,,,,,,188,0,188,0,1,,,,,
,,905518,001,2023-07-24_23h32.45.481,arm3_q,2022.2.5,Win32,59.97720866,5de42a01a7cb2401ccc682c3,64aeaab685a29f4ca249be02,64beedd8f4188820daa6c315,down,-1,0.6929,0.35,34,0,0.7326,,,,,,189,0,189,0,1,,,,,
,,905518,001,2023-07-24_23h32.45.481,arm3_q,2022.2.5,Win32,59.97720866,5de42a01a7cb2401ccc682c3,64aeaab685a29f4ca249be02,64beedd8f4188820daa6c315,right,-1,0.6929,0.35,34,-0.008530842,0.6832,,,,,,190,0,190,0,1,,,,,
,,905518,001,2023-07-24_23h32.45.481,arm3_q,2022.2.5,Win32,59.97720866,5de42a01a7cb2401ccc682c3,64aeaab685a29f4ca249be02,64beedd8f4188820daa6c315,right,-1,0.6929,0.35,34,0.003731753,0.5542,,,,,,191,0,191,0,1,,,,,
,,905518,001,2023-07-24_23h32.45.481,arm3_q,2022.2.5,Win32,59.97720866,5de42a01a7cb2401ccc682c3,64aeaab685a29f4ca249be02,64beedd8f4188820daa6c315,right,-1,0.6929,0.35,34,-0.013356038,0.6199,,,,,,192,0,192,0,1,,,,,
,,905518,001,2023-07-24_23h32.45.481,arm3_q,2022.2.5,Win32,59.97720866,5de42a01a7cb2401ccc682c3,64aeaab685a29f4ca249be02,64beedd8f4188820daa6c315,down,1,0.6929,0.35,34,0,2.7882,,,,,,193,0,193,0,1,,,,,
,,905518,001,2023-07-24_23h32.45.481,arm3_q,2022.2.5,Win32,59.97720866,5de42a01a7cb2401ccc682c3,64aeaab685a29f4ca249be02,64beedd8f4188820daa6c315,right,1,0.6929,0.35,34,0.028771887,0.4777,,,,,,194,0,194,0,1,,,,,
,,905518,001,2023-07-24_23h32.45.481,arm3_q,2022.2.5,Win32,59.97720866,5de42a01a7cb2401ccc682c3,64aeaab685a29f4ca249be02,64beedd8f4188820daa6c315,right,1,0.6929,0.35,34,0.016685586,0.8342,,,,,,195,0,195,0,1,,,,,
,,905518,001,2023-07-24_23h32.45.481,arm3_q,2022.2.5,Win32,59.97720866,5de42a01a7cb2401ccc682c3,64aeaab685a29f4ca249be02,64beedd8f4188820daa6c315,right,1,0.6929,0.35,34,0.018649111,0.6551,,,,,,196,0,196,0,1,,,,,
,,905518,001,2023-07-24_23h32.45.481,arm3_q,2022.2.5,Win32,59.97720866,5de42a01a7cb2401ccc682c3,64aeaab685a29f4ca249be02,64beedd8f4188820daa6c315,up,1,0.6929,0.35,35,0,0.5169,,,,,,197,0,197,0,1,,,,,
,,905518,001,2023-07-24_23h32.45.481,arm3_q,2022.2.5,Win32,59.97720866,5de42a01a7cb2401ccc682c3,64aeaab685a29f4ca249be02,64beedd8f4188820daa6c315,right,1,0.6929,0.35,35,-0.014385284,0.6829,,,,,,198,0,198,0,1,,,,,
,,905518,001,2023-07-24_23h32.45.481,arm3_q,2022.2.5,Win32,59.97720866,5de42a01a7cb2401ccc682c3,64aeaab685a29f4ca249be02,64beedd8f4188820daa6c315,down,-1,0.6929,0.35,34,0,0.6574,,,,,,199,0,199,0,1,,,,,
,,905518,001,2023-07-24_23h32.45.481,arm3_q,2022.2.5,Win32,59.97720866,5de42a01a7cb2401ccc682c3,64aeaab685a29f4ca249be02,64beedd8f4188820daa6c315,right,-1,0.6929,0.35,34,-0.001487807,0.7318,,,,,,200,0,200,0,1,,,,,
,,905518,001,2023-07-24_23h32.45.481,arm3_q,2022.2.5,Win32,59.97720866,5de42a01a7cb2401ccc682c3,64aeaab685a29f4ca249be02,64beedd8f4188820daa6c315,right,-1,0.6929,0.35,34,0.000890507,0.4029,,,,,,201,0,201,0,1,,,,,
,,905518,001,2023-07-24_23h32.45.481,arm3_q,2022.2.5,Win32,59.97720866,5de42a01a7cb2401ccc682c3,64aeaab685a29f4ca249be02,64beedd8f4188820daa6c315,right,-1,0.6929,0.35,34,0.016457605,0.7008,,,,,,202,0,202,0,1,,,,,
,,905518,001,2023-07-24_23h32.45.481,arm3_q,2022.2.5,Win32,59.97720866,5de42a01a7cb2401ccc682c3,64aeaab685a29f4ca249be02,64beedd8f4188820daa6c315,right,-1,0.6929,0.35,34,0.008484685,0.7152,,,,,,203,0,203,0,1,,,,,
,,905518,001,2023-07-24_23h32.45.481,arm3_q,2022.2.5,Win32,59.97720866,5de42a01a7cb2401ccc682c3,64aeaab685a29f4ca249be02,64beedd8f4188820daa6c315,up,1,0.6929,0.35,33,0,0.614,,,,,,204,0,204,0,1,,,,,
,,905518,001,2023-07-24_23h32.45.481,arm3_q,2022.2.5,Win32,59.97720866,5de42a01a7cb2401ccc682c3,64aeaab685a29f4ca249be02,64beedd8f4188820daa6c315,right,1,0.6929,0.35,33,0.030654802,0.6061,,,,,,205,0,205,0,1,,,,,
,,905518,001,2023-07-24_23h32.45.481,arm3_q,2022.2.5,Win32,59.97720866,5de42a01a7cb2401ccc682c3,64aeaab685a29f4ca249be02,64beedd8f4188820daa6c315,up,-1,0.6929,0.35,34,0,1.9829,,,,,,206,0,206,0,1,,,,,
,,905518,001,2023-07-24_23h32.45.481,arm3_q,2022.2.5,Win32,59.97720866,5de42a01a7cb2401ccc682c3,64aeaab685a29f4ca249be02,64beedd8f4188820daa6c315,right,-1,0.6929,0.35,34,-0.009724056,0.6786,,,,,,207,0,207,0,1,,,,,
,,905518,001,2023-07-24_23h32.45.481,arm3_q,2022.2.5,Win32,59.97720866,5de42a01a7cb2401ccc682c3,64aeaab685a29f4ca249be02,64beedd8f4188820daa6c315,right,-1,0.6929,0.35,34,-0.021198722,0.602,,,,,,208,0,208,0,1,,,,,
,,905518,001,2023-07-24_23h32.45.481,arm3_q,2022.2.5,Win32,59.97720866,5de42a01a7cb2401ccc682c3,64aeaab685a29f4ca249be02,64beedd8f4188820daa6c315,down,1,0.6929,0.35,35,0,0.3813,,,,,,209,0,209,0,1,,,,,
,,905518,001,2023-07-24_23h32.45.481,arm3_q,2022.2.5,Win32,59.97720866,5de42a01a7cb2401ccc682c3,64aeaab685a29f4ca249be02,64beedd8f4188820daa6c315,right,1,0.6929,0.35,35,0.012134251,0.8491,,,,,,210,0,210,0,1,,,,,
,,905518,001,2023-07-24_23h32.45.481,arm3_q,2022.2.5,Win32,59.97720866,5de42a01a7cb2401ccc682c3,64aeaab685a29f4ca249be02,64beedd8f4188820daa6c315,right,1,0.6929,0.35,35,-0.001588637,0.517,,,,,,211,0,211,0,1,,,,,
,,905518,001,2023-07-24_23h32.45.481,arm3_q,2022.2.5,Win32,59.97720866,5de42a01a7cb2401ccc682c3,64aeaab685a29f4ca249be02,64beedd8f4188820daa6c315,up,1,0.6929,0.35,36,0,0.7216,,,,,,212,0,212,0,1,,,,,
,,905518,001,2023-07-24_23h32.45.481,arm3_q,2022.2.5,Win32,59.97720866,5de42a01a7cb2401ccc682c3,64aeaab685a29f4ca249be02,64beedd8f4188820daa6c315,right,1,0.6929,0.35,36,-0.009151361,0.6836,,,,,,213,0,213,0,1,,,,,
,,905518,001,2023-07-24_23h32.45.481,arm3_q,2022.2.5,Win32,59.97720866,5de42a01a7cb2401ccc682c3,64aeaab685a29f4ca249be02,64beedd8f4188820daa6c315,right,1,0.6929,0.35,36,-0.014400428,0.3993,,,,,,214,0,214,0,1,,,,,
,,905518,001,2023-07-24_23h32.45.481,arm3_q,2022.2.5,Win32,59.97720866,5de42a01a7cb2401ccc682c3,64aeaab685a29f4ca249be02,64beedd8f4188820daa6c315,down,-1,0.6929,0.35,35,0,0.718,,,,,,215,0,215,0,1,,,,,
,,905518,001,2023-07-24_23h32.45.481,arm3_q,2022.2.5,Win32,59.97720866,5de42a01a7cb2401ccc682c3,64aeaab685a29f4ca249be02,64beedd8f4188820daa6c315,right,-1,0.6929,0.35,35,-0.014025412,0.5693,,,,,,216,0,216,0,1,,,,,
,,905518,001,2023-07-24_23h32.45.481,arm3_q,2022.2.5,Win32,59.97720866,5de42a01a7cb2401ccc682c3,64aeaab685a29f4ca249be02,64beedd8f4188820daa6c315,down,-1,0.6929,0.35,36,0,0.8195,,,,,,217,0,217,0,1,,,,,
,,905518,001,2023-07-24_23h32.45.481,arm3_q,2022.2.5,Win32,59.97720866,5de42a01a7cb2401ccc682c3,64aeaab685a29f4ca249be02,64beedd8f4188820daa6c315,right,-1,0.6929,0.35,36,-0.026601403,0.5935,,,,,,218,0,218,0,1,,,,,
,,905518,001,2023-07-24_23h32.45.481,arm3_q,2022.2.5,Win32,59.97720866,5de42a01a7cb2401ccc682c3,64aeaab685a29f4ca249be02,64beedd8f4188820daa6c315,down,-1,0.6929,0.35,37,0,0.6438,,,,,,219,0,219,0,1,,,,,
,,905518,001,2023-07-24_23h32.45.481,arm3_q,2022.2.5,Win32,59.97720866,5de42a01a7cb2401ccc682c3,64aeaab685a29f4ca249be02,64beedd8f4188820daa6c315,right,-1,0.6929,0.35,37,-0.025438625,0.5826,,,,,,220,0,220,0,1,,,,,
,,905518,001,2023-07-24_23h32.45.481,arm3_q,2022.2.5,Win32,59.97720866,5de42a01a7cb2401ccc682c3,64aeaab685a29f4ca249be02,64beedd8f4188820daa6c315,right,-1,0.6929,0.35,37,-0.01197497,0.7133,,,,,,221,0,221,0,1,,,,,
,,905518,001,2023-07-24_23h32.45.481,arm3_q,2022.2.5,Win32,59.97720866,5de42a01a7cb2401ccc682c3,64aeaab685a29f4ca249be02,64beedd8f4188820daa6c315,down,1,0.6929,0.35,38,0,0.6413,,,,,,222,0,222,0,1,,,,,
,,905518,001,2023-07-24_23h32.45.481,arm3_q,2022.2.5,Win32,59.97720866,5de42a01a7cb2401ccc682c3,64aeaab685a29f4ca249be02,64beedd8f4188820daa6c315,right,1,0.6929,0.35,38,-0.009649301,0.5991,,,,,,223,0,223,0,1,,,,,
,,905518,001,2023-07-24_23h32.45.481,arm3_q,2022.2.5,Win32,59.97720866,5de42a01a7cb2401ccc682c3,64aeaab685a29f4ca249be02,64beedd8f4188820daa6c315,up,1,0.6929,0.35,39,0,0.5992,,,,,,224,0,224,0,1,,,,,
,,905518,001,2023-07-24_23h32.45.481,arm3_q,2022.2.5,Win32,59.97720866,5de42a01a7cb2401ccc682c3,64aeaab685a29f4ca249be02,64beedd8f4188820daa6c315,right,1,0.6929,0.35,39,-0.002934727,0.7356,,,,,,225,0,225,0,1,,,,,
,,905518,001,2023-07-24_23h32.45.481,arm3_q,2022.2.5,Win32,59.97720866,5de42a01a7cb2401ccc682c3,64aeaab685a29f4ca249be02,64beedd8f4188820daa6c315,up,1,0.6929,0.35,40,0,0.6037,,,,,,226,0,226,0,1,,,,,
,,905518,001,2023-07-24_23h32.45.481,arm3_q,2022.2.5,Win32,59.97720866,5de42a01a7cb2401ccc682c3,64aeaab685a29f4ca249be02,64beedd8f4188820daa6c315,right,1,0.6929,0.35,40,-0.005424623,0.9999,,,,,,227,0,227,0,1,,,,,
,,905518,001,2023-07-24_23h32.45.481,arm3_q,2022.2.5,Win32,59.97720866,5de42a01a7cb2401ccc682c3,64aeaab685a29f4ca249be02,64beedd8f4188820daa6c315,down,1,0.6929,0.35,39,0,0.77,,,,,,228,0,228,0,1,,,,,
,,905518,001,2023-07-24_23h32.45.481,arm3_q,2022.2.5,Win32,59.97720866,5de42a01a7cb2401ccc682c3,64aeaab685a29f4ca249be02,64beedd8f4188820daa6c315,right,1,0.6929,0.35,39,0.011695537,0.8003,,,,,,229,0,229,0,1,,,,,
,,905518,001,2023-07-24_23h32.45.481,arm3_q,2022.2.5,Win32,59.97720866,5de42a01a7cb2401ccc682c3,64aeaab685a29f4ca249be02,64beedd8f4188820daa6c315,up,1,0.6929,0.35,40,0,0.5467,,,,,,230,0,230,0,1,,,,,
,,905518,001,2023-07-24_23h32.45.481,arm3_q,2022.2.5,Win32,59.97720866,5de42a01a7cb2401ccc682c3,64aeaab685a29f4ca249be02,64beedd8f4188820daa6c315,right,1,0.6929,0.35,40,0.041109766,0.8493,,,,,,231,0,231,0,1,,,,,
,,905518,001,2023-07-24_23h32.45.481,arm3_q,2022.2.5,Win32,59.97720866,5de42a01a7cb2401ccc682c3,64aeaab685a29f4ca249be02,64beedd8f4188820daa6c315,up,-1,0.6929,0.35,41,0,0.4955,,,,,,232,0,232,0,1,,,,,
,,905518,001,2023-07-24_23h32.45.481,arm3_q,2022.2.5,Win32,59.97720866,5de42a01a7cb2401ccc682c3,64aeaab685a29f4ca249be02,64beedd8f4188820daa6c315,right,-1,0.6929,0.35,41,7.36383E-05,1.4825,,,,,,233,0,233,0,1,,,,,
,,905518,001,2023-07-24_23h32.45.481,arm3_q,2022.2.5,Win32,59.97720866,5de42a01a7cb2401ccc682c3,64aeaab685a29f4ca249be02,64beedd8f4188820daa6c315,down,-1,0.6929,0.35,42,0,0.6954,,,,,,234,0,234,0,1,,,,,
,,905518,001,2023-07-24_23h32.45.481,arm3_q,2022.2.5,Win32,59.97720866,5de42a01a7cb2401ccc682c3,64aeaab685a29f4ca249be02,64beedd8f4188820daa6c315,right,-1,0.6929,0.35,42,0.026802558,0.6734,,,,,,235,0,235,0,1,,,,,
,,905518,001,2023-07-24_23h32.45.481,arm3_q,2022.2.5,Win32,59.97720866,5de42a01a7cb2401ccc682c3,64aeaab685a29f4ca249be02,64beedd8f4188820daa6c315,up,1,0.6929,0.35,41,0,0.4955,,,,,,236,0,236,0,1,,,,,
,,905518,001,2023-07-24_23h32.45.481,arm3_q,2022.2.5,Win32,59.97720866,5de42a01a7cb2401ccc682c3,64aeaab685a29f4ca249be02,64beedd8f4188820daa6c315,right,1,0.6929,0.35,41,0.020567729,0.8333,,,,,,237,0,237,0,1,,,,,
,,905518,001,2023-07-24_23h32.45.481,arm3_q,2022.2.5,Win32,59.97720866,5de42a01a7cb2401ccc682c3,64aeaab685a29f4ca249be02,64beedd8f4188820daa6c315,right,1,0.6929,0.35,41,-0.000300969,0.9371,,,,,,238,0,238,0,1,,,,,
,,905518,001,2023-07-24_23h32.45.481,arm3_q,2022.2.5,Win32,59.97720866,5de42a01a7cb2401ccc682c3,64aeaab685a29f4ca249be02,64beedd8f4188820daa6c315,up,-1,0.6929,0.35,42,0,0.5802,,,,,,239,0,239,0,1,,,,,
,,905518,001,2023-07-24_23h32.45.481,arm3_q,2022.2.5,Win32,59.97720866,5de42a01a7cb2401ccc682c3,64aeaab685a29f4ca249be02,64beedd8f4188820daa6c315,right,-1,0.6929,0.35,42,-0.001895199,0.8416,,,,,,240,0,240,0,1,,,,,
,,905518,001,2023-07-24_23h32.45.481,arm3_q,2022.2.5,Win32,59.97720866,5de42a01a7cb2401ccc682c3,64aeaab685a29f4ca249be02,64beedd8f4188820daa6c315,down,-1,0.6929,0.35,43,0,0.8878,,,,,,241,0,241,0,1,,,,,
,,905518,001,2023-07-24_23h32.45.481,arm3_q,2022.2.5,Win32,59.97720866,5de42a01a7cb2401ccc682c3,64aeaab685a29f4ca249be02,64beedd8f4188820daa6c315,right,-1,0.6929,0.35,43,-0.031289396,1.637,,,,,,242,0,242,0,1,,,,,
,,905518,001,2023-07-24_23h32.45.481,arm3_q,2022.2.5,Win32,59.97720866,5de42a01a7cb2401ccc682c3,64aeaab685a29f4ca249be02,64beedd8f4188820daa6c315,down,-1,0.6929,0.35,43,0,0.6687,,,,,,243,0,243,0,1,,,,,
,,905518,001,2023-07-24_23h32.45.481,arm3_q,2022.2.5,Win32,59.97720866,5de42a01a7cb2401ccc682c3,64aeaab685a29f4ca249be02,64beedd8f4188820daa6c315,right,-1,0.6929,0.35,43,-0.022475539,0.9663,,,,,,244,0,244,0,1,,,,,
,,905518,001,2023-07-24_23h32.45.481,arm3_q,2022.2.5,Win32,59.97720866,5de42a01a7cb2401ccc682c3,64aeaab685a29f4ca249be02,64beedd8f4188820daa6c315,down,-1,0.6929,0.35,44,0,0.4408,,,,,,245,0,245,0,1,,,,,
,,905518,001,2023-07-24_23h32.45.481,arm3_q,2022.2.5,Win32,59.97720866,5de42a01a7cb2401ccc682c3,64aeaab685a29f4ca249be02,64beedd8f4188820daa6c315,right,-1,0.6929,0.35,44,-0.034985444,0.5813,,,,,,246,0,246,0,1,,,,,
,,905518,001,2023-07-24_23h32.45.481,arm3_q,2022.2.5,Win32,59.97720866,5de42a01a7cb2401ccc682c3,64aeaab685a29f4ca249be02,64beedd8f4188820daa6c315,down,-1,0.6929,0.35,45,0,0.4156,,,,,,247,0,247,0,1,,,,,
,,905518,001,2023-07-24_23h32.45.481,arm3_q,2022.2.5,Win32,59.97720866,5de42a01a7cb2401ccc682c3,64aeaab685a29f4ca249be02,64beedd8f4188820daa6c315,right,-1,0.6929,0.35,45,0.003856982,0.4217,,,,,,248,0,248,0,1,,,,,
,,905518,001,2023-07-24_23h32.45.481,arm3_q,2022.2.5,Win32,59.97720866,5de42a01a7cb2401ccc682c3,64aeaab685a29f4ca249be02,64beedd8f4188820daa6c315,down,-1,0.6929,0.35,45,0,0.6925,,,,,,249,0,249,0,1,,,,,
,,905518,001,2023-07-24_23h32.45.481,arm3_q,2022.2.5,Win32,59.97720866,5de42a01a7cb2401ccc682c3,64aeaab685a29f4ca249be02,64beedd8f4188820daa6c315,right,-1,0.6929,0.35,45,-0.024493764,0.5513,,,,,,250,0,250,0,1,,,,,
,,905518,001,2023-07-24_23h32.45.481,arm3_q,2022.2.5,Win32,59.97720866,5de42a01a7cb2401ccc682c3,64aeaab685a29f4ca249be02,64beedd8f4188820daa6c315,down,-1,0.6929,0.35,46,0,0.8174,,,,,,251,0,251,0,1,,,,,
,,905518,001,2023-07-24_23h32.45.481,arm3_q,2022.2.5,Win32,59.97720866,5de42a01a7cb2401ccc682c3,64aeaab685a29f4ca249be02,64beedd8f4188820daa6c315,right,-1,0.6929,0.35,46,0.011601766,0.4507,,,,,,252,0,252,0,1,,,,,
,,905518,001,2023-07-24_23h32.45.481,arm3_q,2022.2.5,Win32,59.97720866,5de42a01a7cb2401ccc682c3,64aeaab685a29f4ca249be02,64beedd8f4188820daa6c315,down,-1,0.6929,0.35,47,0,1.4017,,,,,,253,0,253,0,1,,,,,
,,905518,001,2023-07-24_23h32.45.481,arm3_q,2022.2.5,Win32,59.97720866,5de42a01a7cb2401ccc682c3,64aeaab685a29f4ca249be02,64beedd8f4188820daa6c315,right,-1,0.6929,0.35,47,-0.005207109,0.5887,,,,,,254,0,254,0,1,,,,,
,,905518,001,2023-07-24_23h32.45.481,arm3_q,2022.2.5,Win32,59.97720866,5de42a01a7cb2401ccc682c3,64aeaab685a29f4ca249be02,64beedd8f4188820daa6c315,down,-1,0.6929,0.35,48,0,0.6024,,,,,,255,0,255,0,1,,,,,
,,905518,001,2023-07-24_23h32.45.481,arm3_q,2022.2.5,Win32,59.97720866,5de42a01a7cb2401ccc682c3,64aeaab685a29f4ca249be02,64beedd8f4188820daa6c315,right,-1,0.6929,0.35,48,-0.028710999,0.5395,,,,,,256,0,256,0,1,,,,,
,,905518,001,2023-07-24_23h32.45.481,arm3_q,2022.2.5,Win32,59.97720866,5de42a01a7cb2401ccc682c3,64aeaab685a29f4ca249be02,64beedd8f4188820daa6c315,right,-1,0.6929,0.35,48,-0.017496019,0.08,,,,,,257,0,257,0,1,,,,,
,,905518,001,2023-07-24_23h32.45.481,arm3_q,2022.2.5,Win32,59.97720866,5de42a01a7cb2401ccc682c3,64aeaab685a29f4ca249be02,64beedd8f4188820daa6c315,down,1,0.6929,0.35,48,0,0.6263,,,,,,258,0,258,0,1,,,,,
,,905518,001,2023-07-24_23h32.45.481,arm3_q,2022.2.5,Win32,59.97720866,5de42a01a7cb2401ccc682c3,64aeaab685a29f4ca249be02,64beedd8f4188820daa6c315,right,1,0.6929,0.35,48,0.017106931,0.8802,,,,,,259,0,259,0,1,,,,,
,,905518,001,2023-07-24_23h32.45.481,arm3_q,2022.2.5,Win32,59.97720866,5de42a01a7cb2401ccc682c3,64aeaab685a29f4ca249be02,64beedd8f4188820daa6c315,up,1,0.6929,0.35,48,0,0.5503,,,,,,260,0,260,0,1,,,,,
,,905518,001,2023-07-24_23h32.45.481,arm3_q,2022.2.5,Win32,59.97720866,5de42a01a7cb2401ccc682c3,64aeaab685a29f4ca249be02,64beedd8f4188820daa6c315,up,-1,0.6929,0.35,49,0,1.7652,,,,,,261,0,261,0,1,,,,,
,,905518,001,2023-07-24_23h32.45.481,arm3_q,2022.2.5,Win32,59.97720866,5de42a01a7cb2401ccc682c3,64aeaab685a29f4ca249be02,64beedd8f4188820daa6c315,down,1,0.6929,0.35,50,0,1.8066,,,,,,262,0,262,0,1,,,,,
,,905518,001,2023-07-24_23h32.45.481,arm3_q,2022.2.5,Win32,59.97720866,5de42a01a7cb2401ccc682c3,64aeaab685a29f4ca249be02,64beedd8f4188820daa6c315,right,1,0.6929,0.35,50,-0.011122499,1.6975,,,,,,263,0,263,0,1,,,,,
,,905518,001,2023-07-24_23h32.45.481,arm3_q,2022.2.5,Win32,59.97720866,5de42a01a7cb2401ccc682c3,64aeaab685a29f4ca249be02,64beedd8f4188820daa6c315,down,1,0.6929,0.35,50,0,1.5536,,,,,,264,0,264,0,1,,,,,
,,905518,001,2023-07-24_23h32.45.481,arm3_q,2022.2.5,Win32,59.97720866,5de42a01a7cb2401ccc682c3,64aeaab685a29f4ca249be02,64beedd8f4188820daa6c315,right,1,0.6929,0.35,50,-0.002382715,0.9328,,,,,,265,0,265,0,1,,,,,
,,905518,001,2023-07-24_23h32.45.481,arm3_q,2022.2.5,Win32,59.97720866,5de42a01a7cb2401ccc682c3,64aeaab685a29f4ca249be02,64beedd8f4188820daa6c315,down,1,0.6929,0.35,50,0,0.7265,,,,,,266,0,266,0,1,,,,,
,,905518,001,2023-07-24_23h32.45.481,arm3_q,2022.2.5,Win32,59.97720866,5de42a01a7cb2401ccc682c3,64aeaab685a29f4ca249be02,64beedd8f4188820daa6c315,right,1,0.6929,0.35,50,-0.017070256,0.7131,,,,,,267,0,267,0,1,,,,,
,,905518,001,2023-07-24_23h32.45.481,arm3_q,2022.2.5,Win32,59.97720866,5de42a01a7cb2401ccc682c3,64aeaab685a29f4ca249be02,64beedd8f4188820daa6c315,right,1,0.6929,0.35,50,0.003961916,1.2819,,,,,,268,0,268,0,1,,,,,
,,905518,001,2023-07-24_23h32.45.481,arm3_q,2022.2.5,Win32,59.97720866,5de42a01a7cb2401ccc682c3,64aeaab685a29f4ca249be02,64beedd8f4188820daa6c315,up,-1,0.6929,0.35,50,0,0.6573,,,,,,269,0,269,0,1,,,,,
,,905518,001,2023-07-24_23h32.45.481,arm3_q,2022.2.5,Win32,59.97720866,5de42a01a7cb2401ccc682c3,64aeaab685a29f4ca249be02,64beedd8f4188820daa6c315,right,-1,0.6929,0.35,50,-0.013208721,0.6515,,,,,,270,0,270,0,1,,,,,
,,905518,001,2023-07-24_23h32.45.481,arm3_q,2022.2.5,Win32,59.97720866,5de42a01a7cb2401ccc682c3,64aeaab685a29f4ca249be02,64beedd8f4188820daa6c315,down,1,0.6929,0.35,51,0,0.9852,,,,,,271,0,271,0,1,,,,,
,,905518,001,2023-07-24_23h32.45.481,arm3_q,2022.2.5,Win32,59.97720866,5de42a01a7cb2401ccc682c3,64aeaab685a29f4ca249be02,64beedd8f4188820daa6c315,right,1,0.6929,0.35,51,0.025201482,0.6098,,,,,,272,0,272,0,1,,,,,
,,905518,001,2023-07-24_23h32.45.481,arm3_q,2022.2.5,Win32,59.97720866,5de42a01a7cb2401ccc682c3,64aeaab685a29f4ca249be02,64beedd8f4188820daa6c315,up,1,0.6929,0.35,52,0,0.6486,,,,,,273,0,273,0,1,,,,,
,,905518,001,2023-07-24_23h32.45.481,arm3_q,2022.2.5,Win32,59.97720866,5de42a01a7cb2401ccc682c3,64aeaab685a29f4ca249be02,64beedd8f4188820daa6c315,right,1,0.6929,0.35,52,-0.000764002,1.151,,,,,,274,0,274,0,1,,,,,
,,905518,001,2023-07-24_23h32.45.481,arm3_q,2022.2.5,Win32,59.97720866,5de42a01a7cb2401ccc682c3,64aeaab685a29f4ca249be02,64beedd8f4188820daa6c315,up,1,0.6929,0.35,53,0,1.0177,,,,,,275,0,275,0,1,,,,,
,,905518,001,2023-07-24_23h32.45.481,arm3_q,2022.2.5,Win32,59.97720866,5de42a01a7cb2401ccc682c3,64aeaab685a29f4ca249be02,64beedd8f4188820daa6c315,right,1,0.6929,0.35,53,0.008404776,0.6796,,,,,,276,0,276,0,1,,,,,
,,905518,001,2023-07-24_23h32.45.481,arm3_q,2022.2.5,Win32,59.97720866,5de42a01a7cb2401ccc682c3,64aeaab685a29f4ca249be02,64beedd8f4188820daa6c315,right,1,0.6929,0.35,53,-0.00532192,0.5945,,,,,,277,0,277,0,1,,,,,
,,905518,001,2023-07-24_23h32.45.481,arm3_q,2022.2.5,Win32,59.97720866,5de42a01a7cb2401ccc682c3,64aeaab685a29f4ca249be02,64beedd8f4188820daa6c315,right,1,0.6929,0.35,53,-0.006935487,0.5569,,,,,,278,0,278,0,1,,,,,
,,905518,001,2023-07-24_23h32.45.481,arm3_q,2022.2.5,Win32,59.97720866,5de42a01a7cb2401ccc682c3,64aeaab685a29f4ca249be02,64beedd8f4188820daa6c315,down,-1,0.6929,0.35,52,0,0.5314,,,,,,279,0,279,0,1,,,,,
,,905518,001,2023-07-24_23h32.45.481,arm3_q,2022.2.5,Win32,59.97720866,5de42a01a7cb2401ccc682c3,64aeaab685a29f4ca249be02,64beedd8f4188820daa6c315,right,-1,0.6929,0.35,52,-0.005953387,0.6849,,,,,,280,0,280,0,1,,,,,
,,905518,001,2023-07-24_23h32.45.481,arm3_q,2022.2.5,Win32,59.97720866,5de42a01a7cb2401ccc682c3,64aeaab685a29f4ca249be02,64beedd8f4188820daa6c315,right,-1,0.6929,0.35,52,-0.002799494,1.0492,,,,,,281,0,281,0,1,,,,,
,,905518,001,2023-07-24_23h32.45.481,arm3_q,2022.2.5,Win32,59.97720866,5de42a01a7cb2401ccc682c3,64aeaab685a29f4ca249be02,64beedd8f4188820daa6c315,down,-1,0.6929,0.35,52,0,0.7053,,,,,,282,0,282,0,1,,,,,
,,905518,001,2023-07-24_23h32.45.481,arm3_q,2022.2.5,Win32,59.97720866,5de42a01a7cb2401ccc682c3,64aeaab685a29f4ca249be02,64beedd8f4188820daa6c315,right,-1,0.6929,0.35,52,-0.018319166,0.6179,,,,,,283,0,283,0,1,,,,,
,,905518,001,2023-07-24_23h32.45.481,arm3_q,2022.2.5,Win32,59.97720866,5de42a01a7cb2401ccc682c3,64aeaab685a29f4ca249be02,64beedd8f4188820daa6c315,right,-1,0.6929,0.35,52,-0.011150125,0.9542,,,,,,284,0,284,0,1,,,,,
,,905518,001,2023-07-24_23h32.45.481,arm3_q,2022.2.5,Win32,59.97720866,5de42a01a7cb2401ccc682c3,64aeaab685a29f4ca249be02,64beedd8f4188820daa6c315,up,-1,0.6929,0.35,52,0,0.6895,,,,,,285,0,285,0,1,,,,,
,,905518,001,2023-07-24_23h32.45.481,arm3_q,2022.2.5,Win32,59.97720866,5de42a01a7cb2401ccc682c3,64aeaab685a29f4ca249be02,64beedd8f4188820daa6c315,right,-1,0.6929,0.35,52,-0.015854167,0.5354,,,,,,286,0,286,0,1,,,,,
,,905518,001,2023-07-24_23h32.45.481,arm3_q,2022.2.5,Win32,59.97720866,5de42a01a7cb2401ccc682c3,64aeaab685a29f4ca249be02,64beedd8f4188820daa6c315,down,-1,0.6929,0.35,52,0,0.6961,,,,,,287,0,287,0,1,,,,,
,,905518,001,2023-07-24_23h32.45.481,arm3_q,2022.2.5,Win32,59.97720866,5de42a01a7cb2401ccc682c3,64aeaab685a29f4ca249be02,64beedd8f4188820daa6c315,right,-1,0.6929,0.35,52,-0.021180117,0.5074,,,,,,288,0,288,0,1,,,,,
,,905518,001,2023-07-24_23h32.45.481,arm3_q,2022.2.5,Win32,59.97720866,5de42a01a7cb2401ccc682c3,64aeaab685a29f4ca249be02,64beedd8f4188820daa6c315,down,-1,0.6929,0.35,53,0,0.6312,,,,,,289,0,289,0,1,,,,,
,,905518,001,2023-07-24_23h32.45.481,arm3_q,2022.2.5,Win32,59.97720866,5de42a01a7cb2401ccc682c3,64aeaab685a29f4ca249be02,64beedd8f4188820daa6c315,right,-1,0.6929,0.35,53,-0.015614581,0.3649,,,,,,290,0,290,0,1,,,,,
,,905518,001,2023-07-24_23h32.45.481,arm3_q,2022.2.5,Win32,59.97720866,5de42a01a7cb2401ccc682c3,64aeaab685a29f4ca249be02,64beedd8f4188820daa6c315,down,1,0.6929,0.35,54,0,0.6633,,,,,,291,0,291,0,1,,,,,
,,905518,001,2023-07-24_23h32.45.481,arm3_q,2022.2.5,Win32,59.97720866,5de42a01a7cb2401ccc682c3,64aeaab685a29f4ca249be02,64beedd8f4188820daa6c315,right,1,0.6929,0.35,54,0.011550276,0.4595,,,,,,292,0,292,0,1,,,,,
,,905518,001,2023-07-24_23h32.45.481,arm3_q,2022.2.5,Win32,59.97720866,5de42a01a7cb2401ccc682c3,64aeaab685a29f4ca249be02,64beedd8f4188820daa6c315,right,1,0.6929,0.35,54,-0.001409323,1.0095,,,,,,293,0,293,0,1,,,,,
,,905518,001,2023-07-24_23h32.45.481,arm3_q,2022.2.5,Win32,59.97720866,5de42a01a7cb2401ccc682c3,64aeaab685a29f4ca249be02,64beedd8f4188820daa6c315,up,1,0.6929,0.35,55,0,0.7366,,,,,,294,0,294,0,1,,,,,
,,905518,001,2023-07-24_23h32.45.481,arm3_q,2022.2.5,Win32,59.97720866,5de42a01a7cb2401ccc682c3,64aeaab685a29f4ca249be02,64beedd8f4188820daa6c315,right,1,0.6929,0.35,55,-0.012003609,0.5071,,,,,,295,0,295,0,1,,,,,
,,905518,001,2023-07-24_23h32.45.481,arm3_q,2022.2.5,Win32,59.97720866,5de42a01a7cb2401ccc682c3,64aeaab685a29f4ca249be02,64beedd8f4188820daa6c315,up,-1,0.6929,0.35,56,0,1.1012,,,,,,296,0,296,0,1,,,,,
,,905518,001,2023-07-24_23h32.45.481,arm3_q,2022.2.5,Win32,59.97720866,5de42a01a7cb2401ccc682c3,64aeaab685a29f4ca249be02,64beedd8f4188820daa6c315,right,-1,0.6929,0.35,56,-0.031060398,0.4658,,,,,,297,0,297,0,1,,,,,
,,905518,001,2023-07-24_23h32.45.481,arm3_q,2022.2.5,Win32,59.97720866,5de42a01a7cb2401ccc682c3,64aeaab685a29f4ca249be02,64beedd8f4188820daa6c315,down,-1,0.6929,0.35,57,0,0.6541,,,,,,298,0,298,0,1,,,,,
,,905518,001,2023-07-24_23h32.45.481,arm3_q,2022.2.5,Win32,59.97720866,5de42a01a7cb2401ccc682c3,64aeaab685a29f4ca249be02,64beedd8f4188820daa6c315,right,-1,0.6929,0.35,57,-0.007280256,0.4424,,,,,,299,0,299,0,1,,,,,
,,905518,001,2023-07-24_23h32.45.481,arm3_q,2022.2.5,Win32,59.97720866,5de42a01a7cb2401ccc682c3,64aeaab685a29f4ca249be02,64beedd8f4188820daa6c315,right,-1,0.6929,0.35,57,0.00225045,1.1542,,,,,,300,0,300,0,1,,,,,
,,905518,001,2023-07-24_23h32.45.481,arm3_q,2022.2.5,Win32,59.97720866,5de42a01a7cb2401ccc682c3,64aeaab685a29f4ca249be02,64beedd8f4188820daa6c315,down,-1,0.6929,0.35,58,0,0.7834,,,,,,301,0,301,0,1,,,,,
,,905518,001,2023-07-24_23h32.45.481,arm3_q,2022.2.5,Win32,59.97720866,5de42a01a7cb2401ccc682c3,64aeaab685a29f4ca249be02,64beedd8f4188820daa6c315,right,-1,0.6929,0.35,58,-0.005708314,0.4696,,,,,,302,0,302,0,1,,,,,
,,905518,001,2023-07-24_23h32.45.481,arm3_q,2022.2.5,Win32,59.97720866,5de42a01a7cb2401ccc682c3,64aeaab685a29f4ca249be02,64beedd8f4188820daa6c315,right,-1,0.6929,0.35,58,0.000181116,0.912,,,,,,303,0,303,0,1,,,,,
,,905518,001,2023-07-24_23h32.45.481,arm3_q,2022.2.5,Win32,59.97720866,5de42a01a7cb2401ccc682c3,64aeaab685a29f4ca249be02,64beedd8f4188820daa6c315,down,1,0.6929,0.35,59,0,0.9546,,,,,,304,0,304,0,1,,,,,
,,905518,001,2023-07-24_23h32.45.481,arm3_q,2022.2.5,Win32,59.97720866,5de42a01a7cb2401ccc682c3,64aeaab685a29f4ca249be02,64beedd8f4188820daa6c315,right,1,0.6929,0.35,59,0.013814888,0.3636,,,,,,305,0,305,0,1,,,,,
,,905518,001,2023-07-24_23h32.45.481,arm3_q,2022.2.5,Win32,59.97720866,5de42a01a7cb2401ccc682c3,64aeaab685a29f4ca249be02,64beedd8f4188820daa6c315,up,-1,0.6929,0.35,60,0,0.5972,,,,,,306,0,306,0,1,,,,,
,,905518,001,2023-07-24_23h32.45.481,arm3_q,2022.2.5,Win32,59.97720866,5de42a01a7cb2401ccc682c3,64aeaab685a29f4ca249be02,64beedd8f4188820daa6c315,right,-1,0.6929,0.35,60,-0.018114194,0.7858,,,,,,307,0,307,0,1,,,,,
,,905518,001,2023-07-24_23h32.45.481,arm3_q,2022.2.5,Win32,59.97720866,5de42a01a7cb2401ccc682c3,64aeaab685a29f4ca249be02,64beedd8f4188820daa6c315,right,-1,0.6929,0.35,60,-0.001034355,1.2826,,,,,,308,0,308,0,1,,,,,
,,905518,001,2023-07-24_23h32.45.481,arm3_q,2022.2.5,Win32,59.97720866,5de42a01a7cb2401ccc682c3,64aeaab685a29f4ca249be02,64beedd8f4188820daa6c315,down,-1,0.6929,0.35,61,0,0.6405,,,,,,309,0,309,0,1,,,,,
,,905518,001,2023-07-24_23h32.45.481,arm3_q,2022.2.5,Win32,59.97720866,5de42a01a7cb2401ccc682c3,64aeaab685a29f4ca249be02,64beedd8f4188820daa6c315,right,-1,0.6929,0.35,61,-0.005021396,0.6852,,,,,,310,0,310,0,1,,,,,
,,905518,001,2023-07-24_23h32.45.481,arm3_q,2022.2.5,Win32,59.97720866,5de42a01a7cb2401ccc682c3,64aeaab685a29f4ca249be02,64beedd8f4188820daa6c315,right,-1,0.6929,0.35,61,-0.008990508,1.1813,,,,,,311,0,311,0,1,,,,,
,,905518,001,2023-07-24_23h32.45.481,arm3_q,2022.2.5,Win32,59.97720866,5de42a01a7cb2401ccc682c3,64aeaab685a29f4ca249be02,64beedd8f4188820daa6c315,down,1,0.6929,0.35,61,0,0.6585,,,,,,312,0,312,0,1,,,,,
,,905518,001,2023-07-24_23h32.45.481,arm3_q,2022.2.5,Win32,59.97720866,5de42a01a7cb2401ccc682c3,64aeaab685a29f4ca249be02,64beedd8f4188820daa6c315,right,1,0.6929,0.35,61,-0.009140217,0.9753,,,,,,313,0,313,0,1,,,,,
,,905518,001,2023-07-24_23h32.45.481,arm3_q,2022.2.5,Win32,59.97720866,5de42a01a7cb2401ccc682c3,64aeaab685a29f4ca249be02,64beedd8f4188820daa6c315,right,1,0.6929,0.35,61,-0.000116675,0.6831,,,,,,314,0,314,0,1,,,,,
,,905518,001,2023-07-24_23h32.45.481,arm3_q,2022.2.5,Win32,59.97720866,5de42a01a7cb2401ccc682c3,64aeaab685a29f4ca249be02,64beedd8f4188820daa6c315,up,-1,0.6929,0.35,62,0,0.5651,,,,,,315,0,315,0,1,,,,,
,,905518,001,2023-07-24_23h32.45.481,arm3_q,2022.2.5,Win32,59.97720866,5de42a01a7cb2401ccc682c3,64aeaab685a29f4ca249be02,64beedd8f4188820daa6c315,right,-1,0.6929,0.35,62,-0.001518878,0.4998,,,,,,316,0,316,0,1,,,,,
,,905518,001,2023-07-24_23h32.45.481,arm3_q,2022.2.5,Win32,59.97720866,5de42a01a7cb2401ccc682c3,64aeaab685a29f4ca249be02,64beedd8f4188820daa6c315,up,-1,0.6929,0.35,61,0,0.6645,,,,,,317,0,317,0,1,,,,,
,,905518,001,2023-07-24_23h32.45.481,arm3_q,2022.2.5,Win32,59.97720866,5de42a01a7cb2401ccc682c3,64aeaab685a29f4ca249be02,64beedd8f4188820daa6c315,right,-1,0.6929,0.35,61,-0.020108884,0.5566,,,,,,318,0,318,0,1,,,,,
,,905518,001,2023-07-24_23h32.45.481,arm3_q,2022.2.5,Win32,59.97720866,5de42a01a7cb2401ccc682c3,64aeaab685a29f4ca249be02,64beedd8f4188820daa6c315,down,1,0.6929,0.35,61,0,0.5819,,,,,,319,0,319,0,1,,,,,
,,905518,001,2023-07-24_23h32.45.481,arm3_q,2022.2.5,Win32,59.97720866,5de42a01a7cb2401ccc682c3,64aeaab685a29f4ca249be02,64beedd8f4188820daa6c315,right,1,0.6929,0.35,61,0.006434196,0.6622,,,,,,320,0,320,0,1,,,,,
,,905518,001,2023-07-24_23h32.45.481,arm3_q,2022.2.5,Win32,59.97720866,5de42a01a7cb2401ccc682c3,64aeaab685a29f4ca249be02,64beedd8f4188820daa6c315,right,1,0.6929,0.35,61,0.002828201,0.5641,,,,,,321,0,321,0,1,,,,,
,,905518,001,2023-07-24_23h32.45.481,arm3_q,2022.2.5,Win32,59.97720866,5de42a01a7cb2401ccc682c3,64aeaab685a29f4ca249be02,64beedd8f4188820daa6c315,down,1,0.6929,0.35,60,0,0.9185,,,,,,322,0,322,0,1,,,,,
,,905518,001,2023-07-24_23h32.45.481,arm3_q,2022.2.5,Win32,59.97720866,5de42a01a7cb2401ccc682c3,64aeaab685a29f4ca249be02,64beedd8f4188820daa6c315,right,1,0.6929,0.35,60,0.004883556,0.4964,,,,,,323,0,323,0,1,,,,,
,,905518,001,2023-07-24_23h32.45.481,arm3_q,2022.2.5,Win32,59.97720866,5de42a01a7cb2401ccc682c3,64aeaab685a29f4ca249be02,64beedd8f4188820daa6c315,right,1,0.6929,0.35,60,0.006568495,0.5171,,,,,,324,0,324,0,1,,,,,
,,905518,001,2023-07-24_23h32.45.481,arm3_q,2022.2.5,Win32,59.97720866,5de42a01a7cb2401ccc682c3,64aeaab685a29f4ca249be02,64beedd8f4188820daa6c315,up,1,0.6929,0.35,61,0,0.3976,,,,,,325,0,325,0,1,,,,,
,,905518,001,2023-07-24_23h32.45.481,arm3_q,2022.2.5,Win32,59.97720866,5de42a01a7cb2401ccc682c3,64aeaab685a29f4ca249be02,64beedd8f4188820daa6c315,right,1,0.6929,0.35,61,-0.012915352,0.5833,,,,,,326,0,326,0,1,,,,,
,,905518,001,2023-07-24_23h32.45.481,arm3_q,2022.2.5,Win32,59.97720866,5de42a01a7cb2401ccc682c3,64aeaab685a29f4ca249be02,64beedd8f4188820daa6c315,down,1,0.6929,0.35,60,0,0.6196,,,,,,327,0,327,0,1,,,,,
,,905518,001,2023-07-24_23h32.45.481,arm3_q,2022.2.5,Win32,59.97720866,5de42a01a7cb2401ccc682c3,64aeaab685a29f4ca249be02,64beedd8f4188820daa6c315,right,1,0.6929,0.35,60,-0.001369929,0.5546,,,,,,328,0,328,0,1,,,,,
,,905518,001,2023-07-24_23h32.45.481,arm3_q,2022.2.5,Win32,59.97720866,5de42a01a7cb2401ccc682c3,64aeaab685a29f4ca249be02,64beedd8f4188820daa6c315,up,1,0.6929,0.35,61,0,0.4614,,,,,,329,0,329,0,1,,,,,
,,905518,001,2023-07-24_23h32.45.481,arm3_q,2022.2.5,Win32,59.97720866,5de42a01a7cb2401ccc682c3,64aeaab685a29f4ca249be02,64beedd8f4188820daa6c315,right,1,0.6929,0.35,61,-0.011003794,0.7216,,,,,,330,0,330,0,1,,,,,
,,905518,001,2023-07-24_23h32.45.481,arm3_q,2022.2.5,Win32,59.97720866,5de42a01a7cb2401ccc682c3,64aeaab685a29f4ca249be02,64beedd8f4188820daa6c315,right,1,0.6929,0.35,61,0.011826442,0.829,,,,,,331,0,331,0,1,,,,,
,,905518,001,2023-07-24_23h32.45.481,arm3_q,2022.2.5,Win32,59.97720866,5de42a01a7cb2401ccc682c3,64aeaab685a29f4ca249be02,64beedd8f4188820daa6c315,down,1,0.6929,0.35,60,0,0.6766,,,,,,332,0,332,0,1,,,,,
,,905518,001,2023-07-24_23h32.45.481,arm3_q,2022.2.5,Win32,59.97720866,5de42a01a7cb2401ccc682c3,64aeaab685a29f4ca249be02,64beedd8f4188820daa6c315,right,1,0.6929,0.35,60,0.006047861,0.5027,,,,,,333,0,333,0,1,,,,,
,,905518,001,2023-07-24_23h32.45.481,arm3_q,2022.2.5,Win32,59.97720866,5de42a01a7cb2401ccc682c3,64aeaab685a29f4ca249be02,64beedd8f4188820daa6c315,up,-1,0.6929,0.35,60,0,0.5336,,,,,,334,0,334,0,1,,,,,
,,905518,001,2023-07-24_23h32.45.481,arm3_q,2022.2.5,Win32,59.97720866,5de42a01a7cb2401ccc682c3,64aeaab685a29f4ca249be02,64beedd8f4188820daa6c315,right,-1,0.6929,0.35,60,-0.016840171,0.6683,,,,,,335,0,335,0,1,,,,,
,,905518,001,2023-07-24_23h32.45.481,arm3_q,2022.2.5,Win32,59.97720866,5de42a01a7cb2401ccc682c3,64aeaab685a29f4ca249be02,64beedd8f4188820daa6c315,down,-1,0.6929,0.35,60,0,0.6263,,,,,,336,0,336,0,1,,,,,
,,905518,001,2023-07-24_23h32.45.481,arm3_q,2022.2.5,Win32,59.97720866,5de42a01a7cb2401ccc682c3,64aeaab685a29f4ca249be02,64beedd8f4188820daa6c315,right,-1,0.6929,0.35,60,0.018042485,0.5605,,,,,,337,0,337,0,1,,,,,
,,905518,001,2023-07-24_23h32.45.481,arm3_q,2022.2.5,Win32,59.97720866,5de42a01a7cb2401ccc682c3,64aeaab685a29f4ca249be02,64beedd8f4188820daa6c315,right,-1,0.6929,0.35,60,0.005792927,0.7,,,,,,338,0,338,0,1,,,,,
,,905518,001,2023-07-24_23h32.45.481,arm3_q,2022.2.5,Win32,59.97720866,5de42a01a7cb2401ccc682c3,64aeaab685a29f4ca249be02,64beedd8f4188820daa6c315,up,1,0.6929,0.35,59,0,0.7016,,,,,,339,0,339,0,1,,,,,
,,905518,001,2023-07-24_23h32.45.481,arm3_q,2022.2.5,Win32,59.97720866,5de42a01a7cb2401ccc682c3,64aeaab685a29f4ca249be02,64beedd8f4188820daa6c315,right,1,0.6929,0.35,59,0.043010729,0.4958,,,,,,340,0,340,0,1,,,,,
,,905518,001,2023-07-24_23h32.45.481,arm3_q,2022.2.5,Win32,59.97720866,5de42a01a7cb2401ccc682c3,64aeaab685a29f4ca249be02,64beedd8f4188820daa6c315,up,1,0.6929,0.35,60,0,1.1473,,,,,,341,0,341,0,1,,,,,
,,905518,001,2023-07-24_23h32.45.481,arm3_q,2022.2.5,Win32,59.97720866,5de42a01a7cb2401ccc682c3,64aeaab685a29f4ca249be02,64beedd8f4188820daa6c315,right,1,0.6929,0.35,60,0.011314527,0.5166,,,,,,342,0,342,0,1,,,,,
,,905518,001,2023-07-24_23h32.45.481,arm3_q,2022.2.5,Win32,59.97720866,5de42a01a7cb2401ccc682c3,64aeaab685a29f4ca249be02,64beedd8f4188820daa6c315,up,1,0.6929,0.35,61,0,0.5538,,,,,,343,0,343,0,1,,,,,
,,905518,001,2023-07-24_23h32.45.481,arm3_q,2022.2.5,Win32,59.97720866,5de42a01a7cb2401ccc682c3,64aeaab685a29f4ca249be02,64beedd8f4188820daa6c315,right,1,0.6929,0.35,61,0.021398873,0.5683,,,,,,344,0,344,0,1,,,,,
,,905518,001,2023-07-24_23h32.45.481,arm3_q,2022.2.5,Win32,59.97720866,5de42a01a7cb2401ccc682c3,64aeaab685a29f4ca249be02,64beedd8f4188820daa6c315,right,1,0.6929,0.35,61,0.012351179,1.0588,,,,,,345,0,345,0,1,,,,,
,,905518,001,2023-07-24_23h32.45.481,arm3_q,2022.2.5,Win32,59.97720866,5de42a01a7cb2401ccc682c3,64aeaab685a29f4ca249be02,64beedd8f4188820daa6c315,right,1,0.6929,0.35,61,0.023030295,0.2062,,,,,,346,0,346,0,1,,,,,
,,905518,001,2023-07-24_23h32.45.481,arm3_q,2022.2.5,Win32,59.97720866,5de42a01a7cb2401ccc682c3,64aeaab685a29f4ca249be02,64beedd8f4188820daa6c315,up,1,0.6929,0.35,62,0,0.3848,,,,,,347,0,347,0,1,,,,,
,,905518,001,2023-07-24_23h32.45.481,arm3_q,2022.2.5,Win32,59.97720866,5de42a01a7cb2401ccc682c3,64aeaab685a29f4ca249be02,64beedd8f4188820daa6c315,right,1,0.6929,0.35,62,0.005689771,0.8053,,,,,,348,0,348,0,1,,,,,
,,905518,001,2023-07-24_23h32.45.481,arm3_q,2022.2.5,Win32,59.97720866,5de42a01a7cb2401ccc682c3,64aeaab685a29f4ca249be02,64beedd8f4188820daa6c315,right,1,0.6929,0.35,62,0.004008119,0.5829,,,,,,349,0,349,0,1,,,,,
,,905518,001,2023-07-24_23h32.45.481,arm3_q,2022.2.5,Win32,59.97720866,5de42a01a7cb2401ccc682c3,64aeaab685a29f4ca249be02,64beedd8f4188820daa6c315,up,-1,0.6929,0.35,63,0,0.5046,,,,,,350,0,350,0,1,,,,,
,,905518,001,2023-07-24_23h32.45.481,arm3_q,2022.2.5,Win32,59.97720866,5de42a01a7cb2401ccc682c3,64aeaab685a29f4ca249be02,64beedd8f4188820daa6c315,right,-1,0.6929,0.35,63,-0.038175214,0.6579,,,,,,351,0,351,0,1,,,,,
,,905518,001,2023-07-24_23h32.45.481,arm3_q,2022.2.5,Win32,59.97720866,5de42a01a7cb2401ccc682c3,64aeaab685a29f4ca249be02,64beedd8f4188820daa6c315,down,-1,0.6929,0.35,64,0,0.5523,,,,,,352,0,352,0,1,,,,,
,,905518,001,2023-07-24_23h32.45.481,arm3_q,2022.2.5,Win32,59.97720866,5de42a01a7cb2401ccc682c3,64aeaab685a29f4ca249be02,64beedd8f4188820daa6c315,right,-1,0.6929,0.35,64,0.036576318,0.8016,,,,,,353,0,353,0,1,,,,,
,,905518,001,2023-07-24_23h32.45.481,arm3_q,2022.2.5,Win32,59.97720866,5de42a01a7cb2401ccc682c3,64aeaab685a29f4ca249be02,64beedd8f4188820daa6c315,right,-1,0.6929,0.35,64,0.005146819,1.3318,,,,,,354,0,354,0,1,,,,,
,,905518,001,2023-07-24_23h32.45.481,arm3_q,2022.2.5,Win32,59.97720866,5de42a01a7cb2401ccc682c3,64aeaab685a29f4ca249be02,64beedd8f4188820daa6c315,up,-1,0.6929,0.35,63,0,0.5307,,,,,,355,0,355,0,1,,,,,
,,905518,001,2023-07-24_23h32.45.481,arm3_q,2022.2.5,Win32,59.97720866,5de42a01a7cb2401ccc682c3,64aeaab685a29f4ca249be02,64beedd8f4188820daa6c315,right,-1,0.6929,0.35,63,-0.002213873,0.6123,,,,,,356,0,356,0,1,,,,,
,,905518,001,2023-07-24_23h32.45.481,arm3_q,2022.2.5,Win32,59.97720866,5de42a01a7cb2401ccc682c3,64aeaab685a29f4ca249be02,64beedd8f4188820daa6c315,down,1,0.6929,0.35,64,0,0.7396,,,,,,357,0,357,0,1,,,,,
,,905518,001,2023-07-24_23h32.45.481,arm3_q,2022.2.5,Win32,59.97720866,5de42a01a7cb2401ccc682c3,64aeaab685a29f4ca249be02,64beedd8f4188820daa6c315,right,1,0.6929,0.35,64,0.017609464,0.6008,,,,,,358,0,358,0,1,,,,,
,,905518,001,2023-07-24_23h32.45.481,arm3_q,2022.2.5,Win32,59.97720866,5de42a01a7cb2401ccc682c3,64aeaab685a29f4ca249be02,64beedd8f4188820daa6c315,up,1,0.6929,0.35,65,0,0.7158,,,,,,359,0,359,0,1,,,,,
,,905518,001,2023-07-24_23h32.45.481,arm3_q,2022.2.5,Win32,59.97720866,5de42a01a7cb2401ccc682c3,64aeaab685a29f4ca249be02,64beedd8f4188820daa6c315,right,1,0.6929,0.35,65,0.000451334,0.5354,,,,,,360,0,360,0,1,,,,,
,,905518,001,2023-07-24_23h32.45.481,arm3_q,2022.2.5,Win32,59.97720866,5de42a01a7cb2401ccc682c3,64aeaab685a29f4ca249be02,64beedd8f4188820daa6c315,down,-1,0.6929,0.35,64,0,0.6568,,,,,,361,0,361,0,1,,,,,
,,905518,001,2023-07-24_23h32.45.481,arm3_q,2022.2.5,Win32,59.97720866,5de42a01a7cb2401ccc682c3,64aeaab685a29f4ca249be02,64beedd8f4188820daa6c315,right,-1,0.6929,0.35,64,0.012635066,0.5581,,,,,,362,0,362,0,1,,,,,
,,905518,001,2023-07-24_23h32.45.481,arm3_q,2022.2.5,Win32,59.97720866,5de42a01a7cb2401ccc682c3,64aeaab685a29f4ca249be02,64beedd8f4188820daa6c315,right,-1,0.6929,0.35,64,0.004354472,0.7171,,,,,,363,0,363,0,1,,,,,
,,905518,001,2023-07-24_23h32.45.481,arm3_q,2022.2.5,Win32,59.97720866,5de42a01a7cb2401ccc682c3,64aeaab685a29f4ca249be02,64beedd8f4188820daa6c315,down,-1,0.6929,0.35,65,0,0.6931,,,,,,364,0,364,0,1,,,,,
,,905518,001,2023-07-24_23h32.45.481,arm3_q,2022.2.5,Win32,59.97720866,5de42a01a7cb2401ccc682c3,64aeaab685a29f4ca249be02,64beedd8f4188820daa6c315,right,-1,0.6929,0.35,65,-0.022670396,0.4992,,,,,,365,0,365,0,1,,,,,
,,905518,001,2023-07-24_23h32.45.481,arm3_q,2022.2.5,Win32,59.97720866,5de42a01a7cb2401ccc682c3,64aeaab685a29f4ca249be02,64beedd8f4188820daa6c315,down,1,0.6929,0.35,66,0,0.6261,,,,,,366,0,366,0,1,,,,,
,,905518,001,2023-07-24_23h32.45.481,arm3_q,2022.2.5,Win32,59.97720866,5de42a01a7cb2401ccc682c3,64aeaab685a29f4ca249be02,64beedd8f4188820daa6c315,right,1,0.6929,0.35,66,0.011566974,0.5925,,,,,,367,0,367,0,1,,,,,
,,905518,001,2023-07-24_23h32.45.481,arm3_q,2022.2.5,Win32,59.97720866,5de42a01a7cb2401ccc682c3,64aeaab685a29f4ca249be02,64beedd8f4188820daa6c315,down,1,0.6929,0.35,66,0,0.6914,,,,,,368,0,368,0,1,,,,,
,,905518,001,2023-07-24_23h32.45.481,arm3_q,2022.2.5,Win32,59.97720866,5de42a01a7cb2401ccc682c3,64aeaab685a29f4ca249be02,64beedd8f4188820daa6c315,up,1,0.6929,0.35,66,0,2.6291,,,,,,369,0,369,0,1,,,,,
,,905518,001,2023-07-24_23h32.45.481,arm3_q,2022.2.5,Win32,59.97720866,5de42a01a7cb2401ccc682c3,64aeaab685a29f4ca249be02,64beedd8f4188820daa6c315,,,,,,,,,,,,,,,,,,0,0,0,0,1
space,5.3227,905518,001,2023-07-24_23h32.45.481,arm3_q,2022.2.5,Win32,59.97720866,5de42a01a7cb2401ccc682c3,64aeaab685a29f4ca249be02,64beedd8f4188820daa6c315,up,1,0.05,0.35,66,0,5.123,,,,,,0,0,0,0,1,,,,,
,,905518,001,2023-07-24_23h32.45.481,arm3_q,2022.2.5,Win32,59.97720866,5de42a01a7cb2401ccc682c3,64aeaab685a29f4ca249be02,64beedd8f4188820daa6c315,up,1,0.05,0.35,66,0,1.9173,,,,,,1,0,1,0,1,,,,,
,,905518,001,2023-07-24_23h32.45.481,arm3_q,2022.2.5,Win32,59.97720866,5de42a01a7cb2401ccc682c3,64aeaab685a29f4ca249be02,64beedd8f4188820daa6c315,right,1,0.05,0.35,66,-0.006623429,1.4829,,,,,,2,0,2,0,1,,,,,
,,905518,001,2023-07-24_23h32.45.481,arm3_q,2022.2.5,Win32,59.97720866,5de42a01a7cb2401ccc682c3,64aeaab685a29f4ca249be02,64beedd8f4188820daa6c315,up,-1,0.05,0.35,66,0,0.7457,,,,,,3,0,3,0,1,,,,,
,,905518,001,2023-07-24_23h32.45.481,arm3_q,2022.2.5,Win32,59.97720866,5de42a01a7cb2401ccc682c3,64aeaab685a29f4ca249be02,64beedd8f4188820daa6c315,down,-1,0.05,0.35,66,0,1.2343,,,,,,4,0,4,0,1,,,,,
,,905518,001,2023-07-24_23h32.45.481,arm3_q,2022.2.5,Win32,59.97720866,5de42a01a7cb2401ccc682c3,64aeaab685a29f4ca249be02,64beedd8f4188820daa6c315,down,1,0.05,0.35,66,0,1.1932,,,,,,5,0,5,0,1,,,,,
,,905518,001,2023-07-24_23h32.45.481,arm3_q,2022.2.5,Win32,59.97720866,5de42a01a7cb2401ccc682c3,64aeaab685a29f4ca249be02,64beedd8f4188820daa6c315,up,1,0.05,0.35,66,0,1.1994,,,,,,6,0,6,0,1,,,,,
,,905518,001,2023-07-24_23h32.45.481,arm3_q,2022.2.5,Win32,59.97720866,5de42a01a7cb2401ccc682c3,64aeaab685a29f4ca249be02,64beedd8f4188820daa6c315,right,1,0.05,0.35,66,-0.004897602,1.7438,,,,,,7,0,7,0,1,,,,,
,,905518,001,2023-07-24_23h32.45.481,arm3_q,2022.2.5,Win32,59.97720866,5de42a01a7cb2401ccc682c3,64aeaab685a29f4ca249be02,64beedd8f4188820daa6c315,right,1,0.05,0.35,66,0.002623226,0.4985,,,,,,8,0,8,0,1,,,,,
,,905518,001,2023-07-24_23h32.45.481,arm3_q,2022.2.5,Win32,59.97720866,5de42a01a7cb2401ccc682c3,64aeaab685a29f4ca249be02,64beedd8f4188820daa6c315,up,-1,0.05,0.35,66,0,0.615,,,,,,9,0,9,0,1,,,,,
,,905518,001,2023-07-24_23h32.45.481,arm3_q,2022.2.5,Win32,59.97720866,5de42a01a7cb2401ccc682c3,64aeaab685a29f4ca249be02,64beedd8f4188820daa6c315,right,-1,0.05,0.35,66,-0.011952359,1.2041,,,,,,10,0,10,0,1,,,,,
,,905518,001,2023-07-24_23h32.45.481,arm3_q,2022.2.5,Win32,59.97720866,5de42a01a7cb2401ccc682c3,64aeaab685a29f4ca249be02,64beedd8f4188820daa6c315,down,-1,0.05,0.35,66,0,0.6934,,,,,,11,0,11,0,1,,,,,
,,905518,001,2023-07-24_23h32.45.481,arm3_q,2022.2.5,Win32,59.97720866,5de42a01a7cb2401ccc682c3,64aeaab685a29f4ca249be02,64beedd8f4188820daa6c315,up,-1,0.05,0.35,66,0,1.4,,,,,,12,0,12,0,1,,,,,
,,905518,001,2023-07-24_23h32.45.481,arm3_q,2022.2.5,Win32,59.97720866,5de42a01a7cb2401ccc682c3,64aeaab685a29f4ca249be02,64beedd8f4188820daa6c315,right,-1,0.05,0.35,66,0.002946361,1.0339,,,,,,13,0,13,0,1,,,,,
,,905518,001,2023-07-24_23h32.45.481,arm3_q,2022.2.5,Win32,59.97720866,5de42a01a7cb2401ccc682c3,64aeaab685a29f4ca249be02,64beedd8f4188820daa6c315,right,-1,0.05,0.35,66,-0.00722339,0.5014,,,,,,14,0,14,0,1,,,,,
,,905518,001,2023-07-24_23h32.45.481,arm3_q,2022.2.5,Win32,59.97720866,5de42a01a7cb2401ccc682c3,64aeaab685a29f4ca249be02,64beedd8f4188820daa6c315,down,1,0.05,0.35,66,0,0.6415,,,,,,15,0,15,0,1,,,,,
,,905518,001,2023-07-24_23h32.45.481,arm3_q,2022.2.5,Win32,59.97720866,5de42a01a7cb2401ccc682c3,64aeaab685a29f4ca249be02,64beedd8f4188820daa6c315,right,1,0.05,0.35,66,-0.004100901,1.711,,,,,,16,0,16,0,1,,,,,
,,905518,001,2023-07-24_23h32.45.481,arm3_q,2022.2.5,Win32,59.97720866,5de42a01a7cb2401ccc682c3,64aeaab685a29f4ca249be02,64beedd8f4188820daa6c315,right,1,0.05,0.35,66,-0.007722706,3.0843,,,,,,17,0,17,0,1,,,,,
,,905518,001,2023-07-24_23h32.45.481,arm3_q,2022.2.5,Win32,59.97720866,5de42a01a7cb2401ccc682c3,64aeaab685a29f4ca249be02,64beedd8f4188820daa6c315,down,-1,0.05,0.35,66,0,0.5241,,,,,,18,0,18,0,1,,,,,
,,905518,001,2023-07-24_23h32.45.481,arm3_q,2022.2.5,Win32,59.97720866,5de42a01a7cb2401ccc682c3,64aeaab685a29f4ca249be02,64beedd8f4188820daa6c315,down,-1,0.05,0.35,66,0,1.2415,,,,,,19,0,19,0,1,,,,,
,,905518,001,2023-07-24_23h32.45.481,arm3_q,2022.2.5,Win32,59.97720866,5de42a01a7cb2401ccc682c3,64aeaab685a29f4ca249be02,64beedd8f4188820daa6c315,right,-1,0.05,0.35,66,-0.008381829,1.6378,,,,,,20,0,20,0,1,,,,,
,,905518,001,2023-07-24_23h32.45.481,arm3_q,2022.2.5,Win32,59.97720866,5de42a01a7cb2401ccc682c3,64aeaab685a29f4ca249be02,64beedd8f4188820daa6c315,down,-1,0.05,0.35,66,0,0.6938,,,,,,21,0,21,0,1,,,,,
,,905518,001,2023-07-24_23h32.45.481,arm3_q,2022.2.5,Win32,59.97720866,5de42a01a7cb2401ccc682c3,64aeaab685a29f4ca249be02,64beedd8f4188820daa6c315,up,-1,0.05,0.35,66,0,1.4253,,,,,,22,0,22,0,1,,,,,
,,905518,001,2023-07-24_23h32.45.481,arm3_q,2022.2.5,Win32,59.97720866,5de42a01a7cb2401ccc682c3,64aeaab685a29f4ca249be02,64beedd8f4188820daa6c315,right,-1,0.05,0.35,66,-0.003766769,1.2236,,,,,,23,0,23,0,1,,,,,
,,905518,001,2023-07-24_23h32.45.481,arm3_q,2022.2.5,Win32,59.97720866,5de42a01a7cb2401ccc682c3,64aeaab685a29f4ca249be02,64beedd8f4188820daa6c315,down,-1,0.05,0.35,66,0,0.872,,,,,,24,0,24,0,1,,,,,
,,905518,001,2023-07-24_23h32.45.481,arm3_q,2022.2.5,Win32,59.97720866,5de42a01a7cb2401ccc682c3,64aeaab685a29f4ca249be02,64beedd8f4188820daa6c315,right,-1,0.05,0.35,66,-0.003320243,1.372,,,,,,25,0,25,0,1,,,,,
,,905518,001,2023-07-24_23h32.45.481,arm3_q,2022.2.5,Win32,59.97720866,5de42a01a7cb2401ccc682c3,64aeaab685a29f4ca249be02,64beedd8f4188820daa6c315,right,-1,0.05,0.35,66,-0.010019674,0.6194,,,,,,26,0,26,0,1,,,,,
,,905518,001,2023-07-24_23h32.45.481,arm3_q,2022.2.5,Win32,59.97720866,5de42a01a7cb2401ccc682c3,64aeaab685a29f4ca249be02,64beedd8f4188820daa6c315,right,-1,0.05,0.35,66,-0.010295448,1.1795,,,,,,27,0,27,0,1,,,,,
,,905518,001,2023-07-24_23h32.45.481,arm3_q,2022.2.5,Win32,59.97720866,5de42a01a7cb2401ccc682c3,64aeaab685a29f4ca249be02,64beedd8f4188820daa6c315,right,-1,0.05,0.35,66,-0.000795487,1.8933,,,,,,28,0,28,0,1,,,,,
,,905518,001,2023-07-24_23h32.45.481,arm3_q,2022.2.5,Win32,59.97720866,5de42a01a7cb2401ccc682c3,64aeaab685a29f4ca249be02,64beedd8f4188820daa6c315,down,1,0.05,0.35,66,0,0.5865,,,,,,29,0,29,0,1,,,,,
,,905518,001,2023-07-24_23h32.45.481,arm3_q,2022.2.5,Win32,59.97720866,5de42a01a7cb2401ccc682c3,64aeaab685a29f4ca249be02,64beedd8f4188820daa6c315,right,1,0.05,0.35,66,0.002803957,1.0555,,,,,,30,0,30,0,1,,,,,
,,905518,001,2023-07-24_23h32.45.481,arm3_q,2022.2.5,Win32,59.97720866,5de42a01a7cb2401ccc682c3,64aeaab685a29f4ca249be02,64beedd8f4188820daa6c315,up,1,0.05,0.35,66,0,0.6211,,,,,,31,0,31,0,1,,,,,
,,905518,001,2023-07-24_23h32.45.481,arm3_q,2022.2.5,Win32,59.97720866,5de42a01a7cb2401ccc682c3,64aeaab685a29f4ca249be02,64beedd8f4188820daa6c315,right,1,0.05,0.35,66,0.009587464,0.9707,,,,,,32,0,32,0,1,,,,,
,,905518,001,2023-07-24_23h32.45.481,arm3_q,2022.2.5,Win32,59.97720866,5de42a01a7cb2401ccc682c3,64aeaab685a29f4ca249be02,64beedd8f4188820daa6c315,down,1,0.05,0.35,66,0,0.6911,,,,,,33,0,33,0,1,,,,,
,,905518,001,2023-07-24_23h32.45.481,arm3_q,2022.2.5,Win32,59.97720866,5de42a01a7cb2401ccc682c3,64aeaab685a29f4ca249be02,64beedd8f4188820daa6c315,right,1,0.05,0.35,66,-0.016445155,0.8327,,,,,,34,0,34,0,1,,,,,
,,905518,001,2023-07-24_23h32.45.481,arm3_q,2022.2.5,Win32,59.97720866,5de42a01a7cb2401ccc682c3,64aeaab685a29f4ca249be02,64beedd8f4188820daa6c315,right,1,0.05,0.35,66,0.012251069,0.7917,,,,,,35,0,35,0,1,,,,,
,,905518,001,2023-07-24_23h32.45.481,arm3_q,2022.2.5,Win32,59.97720866,5de42a01a7cb2401ccc682c3,64aeaab685a29f4ca249be02,64beedd8f4188820daa6c315,up,1,0.05,0.35,66,0,0.6872,,,,,,36,0,36,0,1,,,,,
,,905518,001,2023-07-24_23h32.45.481,arm3_q,2022.2.5,Win32,59.97720866,5de42a01a7cb2401ccc682c3,64aeaab685a29f4ca249be02,64beedd8f4188820daa6c315,up,-1,0.05,0.35,66,0,1.3224,,,,,,37,0,37,0,1,,,,,
,,905518,001,2023-07-24_23h32.45.481,arm3_q,2022.2.5,Win32,59.97720866,5de42a01a7cb2401ccc682c3,64aeaab685a29f4ca249be02,64beedd8f4188820daa6c315,down,-1,0.05,0.35,66,0,1.534,,,,,,38,0,38,0,1,,,,,
,,905518,001,2023-07-24_23h32.45.481,arm3_q,2022.2.5,Win32,59.97720866,5de42a01a7cb2401ccc682c3,64aeaab685a29f4ca249be02,64beedd8f4188820daa6c315,right,-1,0.05,0.35,66,-0.007784158,1.2494,,,,,,39,0,39,0,1,,,,,
,,905518,001,2023-07-24_23h32.45.481,arm3_q,2022.2.5,Win32,59.97720866,5de42a01a7cb2401ccc682c3,64aeaab685a29f4ca249be02,64beedd8f4188820daa6c315,right,-1,0.05,0.35,66,-0.020289975,0.419,,,,,,40,0,40,0,1,,,,,
,,905518,001,2023-07-24_23h32.45.481,arm3_q,2022.2.5,Win32,59.97720866,5de42a01a7cb2401ccc682c3,64aeaab685a29f4ca249be02,64beedd8f4188820daa6c315,down,-1,0.05,0.35,66,0,0.4582,,,,,,41,0,41,0,1,,,,,
,,905518,001,2023-07-24_23h32.45.481,arm3_q,2022.2.5,Win32,59.97720866,5de42a01a7cb2401ccc682c3,64aeaab685a29f4ca249be02,64beedd8f4188820daa6c315,right,-1,0.05,0.35,66,-0.012392233,1.2567,,,,,,42,0,42,0,1,,,,,
,,905518,001,2023-07-24_23h32.45.481,arm3_q,2022.2.5,Win32,59.97720866,5de42a01a7cb2401ccc682c3,64aeaab685a29f4ca249be02,64beedd8f4188820daa6c315,right,-1,0.05,0.35,66,-0.002445548,0.9849,,,,,,43,0,43,0,1,,,,,
,,905518,001,2023-07-24_23h32.45.481,arm3_q,2022.2.5,Win32,59.97720866,5de42a01a7cb2401ccc682c3,64aeaab685a29f4ca249be02,64beedd8f4188820daa6c315,down,1,0.05,0.35,66,0,0.9259,,,,,,44,0,44,0,1,,,,,
,,905518,001,2023-07-24_23h32.45.481,arm3_q,2022.2.5,Win32,59.97720866,5de42a01a7cb2401ccc682c3,64aeaab685a29f4ca249be02,64beedd8f4188820daa6c315,right,1,0.05,0.35,66,0.019855113,0.6241,,,,,,45,0,45,0,1,,,,,
,,905518,001,2023-07-24_23h32.45.481,arm3_q,2022.2.5,Win32,59.97720866,5de42a01a7cb2401ccc682c3,64aeaab685a29f4ca249be02,64beedd8f4188820daa6c315,up,1,0.05,0.35,66,0,0.5925,,,,,,46,0,46,0,1,,,,,
,,905518,001,2023-07-24_23h32.45.481,arm3_q,2022.2.5,Win32,59.97720866,5de42a01a7cb2401ccc682c3,64aeaab685a29f4ca249be02,64beedd8f4188820daa6c315,right,1,0.05,0.35,66,0.003669793,1.2227,,,,,,47,0,47,0,1,,,,,
