space_bar.keys,space_bar.rt,participant,session,date,expName,psychopyVersion,OS,frameRate,PROLIFIC_PID,STUDY_ID,SESSION_ID,resp.keys,state,q_prob,eps_prob,score,price,resp.rt,train.thisRepN,train.thisTrialN,train.thisN,train.thisIndex,train.ran,steps.thisRepN,steps.thisTrialN,steps.thisN,steps.thisIndex,steps.ran,blocks.thisRepN,blocks.thisTrialN,blocks.thisN,blocks.thisIndex,blocks.ran
space,4.8521,929512,001,2023-07-24_19h59.40.289,arm3_q,2022.2.5,Win32,60.04202942,6120d90a0d83120b87086355,64aeaab685a29f4ca249be02,64bec9c6ba65089ae158e9d1,,,,,,,,,,,,,,,,,,,,,,
space,11.1561,929512,001,2023-07-24_19h59.40.289,arm3_q,2022.2.5,Win32,60.04202942,6120d90a0d83120b87086355,64aeaab685a29f4ca249be02,64bec9c6ba65089ae158e9d1,,,,,,,,,,,,,,,,,,,,,,
space,11.8875,929512,001,2023-07-24_19h59.40.289,arm3_q,2022.2.5,Win32,60.04202942,6120d90a0d83120b87086355,64aeaab685a29f4ca249be02,64bec9c6ba65089ae158e9d1,,,,,,,,,,,,,,,,,,,,,,
space,9.2452,929512,001,2023-07-24_19h59.40.289,arm3_q,2022.2.5,Win32,60.04202942,6120d90a0d83120b87086355,64aeaab685a29f4ca249be02,64bec9c6ba65089ae158e9d1,,,,,,,,,,,,,,,,,,,,,,
space,6.8084,929512,001,2023-07-24_19h59.40.289,arm3_q,2022.2.5,Win32,60.04202942,6120d90a0d83120b87086355,64aeaab685a29f4ca249be02,64bec9c6ba65089ae158e9d1,,,,,,,,,,,,,,,,,,,,,,
space,13.4737,929512,001,2023-07-24_19h59.40.289,arm3_q,2022.2.5,Win32,60.04202942,6120d90a0d83120b87086355,64aeaab685a29f4ca249be02,64bec9c6ba65089ae158e9d1,,,,,,,,,,,,,,,,,,,,,,
space,1.0022,929512,001,2023-07-24_19h59.40.289,arm3_q,2022.2.5,Win32,60.04202942,6120d90a0d83120b87086355,64aeaab685a29f4ca249be02,64bec9c6ba65089ae158e9d1,,,,,,,,,,,,,,,,,,,,,,
space,0.4916,929512,001,2023-07-24_19h59.40.289,arm3_q,2022.2.5,Win32,60.04202942,6120d90a0d83120b87086355,64aeaab685a29f4ca249be02,64bec9c6ba65089ae158e9d1,,,,,,,,,,,,,,,,,,,,,,
space,0.4167,929512,001,2023-07-24_19h59.40.289,arm3_q,2022.2.5,Win32,60.04202942,6120d90a0d83120b87086355,64aeaab685a29f4ca249be02,64bec9c6ba65089ae158e9d1,,,,,,,,,,,,,,,,,,,,,,
space,1.158,929512,001,2023-07-24_19h59.40.289,arm3_q,2022.2.5,Win32,60.04202942,6120d90a0d83120b87086355,64aeaab685a29f4ca249be02,64bec9c6ba65089ae158e9d1,,,,,,,,,,,,,,,,,,,,,,
,,929512,001,2023-07-24_19h59.40.289,arm3_q,2022.2.5,Win32,60.04202942,6120d90a0d83120b87086355,64aeaab685a29f4ca249be02,64bec9c6ba65089ae158e9d1,up,1,0.5643,0.35,0,0,1.5725,0,0,0,0,1,,,,,,,,,,
,,929512,001,2023-07-24_19h59.40.289,arm3_q,2022.2.5,Win32,60.04202942,6120d90a0d83120b87086355,64aeaab685a29f4ca249be02,64bec9c6ba65089ae158e9d1,right,1,0.5643,0.35,0,0.029804213,0.9526,1,0,1,0,1,,,,,,,,,,
,,929512,001,2023-07-24_19h59.40.289,arm3_q,2022.2.5,Win32,60.04202942,6120d90a0d83120b87086355,64aeaab685a29f4ca249be02,64bec9c6ba65089ae158e9d1,right,1,0.5643,0.35,0,0.004732139,0.8036,2,0,2,0,1,,,,,,,,,,
,,929512,001,2023-07-24_19h59.40.289,arm3_q,2022.2.5,Win32,60.04202942,6120d90a0d83120b87086355,64aeaab685a29f4ca249be02,64bec9c6ba65089ae158e9d1,right,1,0.5643,0.35,0,0.018696144,0.8373,3,0,3,0,1,,,,,,,,,,
,,929512,001,2023-07-24_19h59.40.289,arm3_q,2022.2.5,Win32,60.04202942,6120d90a0d83120b87086355,64aeaab685a29f4ca249be02,64bec9c6ba65089ae158e9d1,up,1,0.5643,0.35,0,0,0.7533,4,0,4,0,1,,,,,,,,,,
,,929512,001,2023-07-24_19h59.40.289,arm3_q,2022.2.5,Win32,60.04202942,6120d90a0d83120b87086355,64aeaab685a29f4ca249be02,64bec9c6ba65089ae158e9d1,right,1,0.5643,0.35,0,-0.000201273,0.4538,5,0,5,0,1,,,,,,,,,,
,,929512,001,2023-07-24_19h59.40.289,arm3_q,2022.2.5,Win32,60.04202942,6120d90a0d83120b87086355,64aeaab685a29f4ca249be02,64bec9c6ba65089ae158e9d1,right,1,0.5643,0.35,0,0.004616243,0.3177,6,0,6,0,1,,,,,,,,,,
,,929512,001,2023-07-24_19h59.40.289,arm3_q,2022.2.5,Win32,60.04202942,6120d90a0d83120b87086355,64aeaab685a29f4ca249be02,64bec9c6ba65089ae158e9d1,right,1,0.5643,0.35,0,0.018603841,1.0018,7,0,7,0,1,,,,,,,,,,
,,929512,001,2023-07-24_19h59.40.289,arm3_q,2022.2.5,Win32,60.04202942,6120d90a0d83120b87086355,64aeaab685a29f4ca249be02,64bec9c6ba65089ae158e9d1,right,1,0.5643,0.35,0,0.025286533,0.3628,8,0,8,0,1,,,,,,,,,,
,,929512,001,2023-07-24_19h59.40.289,arm3_q,2022.2.5,Win32,60.04202942,6120d90a0d83120b87086355,64aeaab685a29f4ca249be02,64bec9c6ba65089ae158e9d1,right,1,0.5643,0.35,0,0.020813979,0.1646,9,0,9,0,1,,,,,,,,,,
,,929512,001,2023-07-24_19h59.40.289,arm3_q,2022.2.5,Win32,60.04202942,6120d90a0d83120b87086355,64aeaab685a29f4ca249be02,64bec9c6ba65089ae158e9d1,right,1,0.5643,0.35,0,0.038595293,0.3321,10,0,10,0,1,,,,,,,,,,
,,929512,001,2023-07-24_19h59.40.289,arm3_q,2022.2.5,Win32,60.04202942,6120d90a0d83120b87086355,64aeaab685a29f4ca249be02,64bec9c6ba65089ae158e9d1,right,1,0.5643,0.35,0,0.069805389,0.1319,11,0,11,0,1,,,,,,,,,,
,,929512,001,2023-07-24_19h59.40.289,arm3_q,2022.2.5,Win32,60.04202942,6120d90a0d83120b87086355,64aeaab685a29f4ca249be02,64bec9c6ba65089ae158e9d1,right,1,0.5643,0.35,0,0.076515301,0.1646,12,0,12,0,1,,,,,,,,,,
,,929512,001,2023-07-24_19h59.40.289,arm3_q,2022.2.5,Win32,60.04202942,6120d90a0d83120b87086355,64aeaab685a29f4ca249be02,64bec9c6ba65089ae158e9d1,right,1,0.5643,0.35,0,0.083318178,0.2844,13,0,13,0,1,,,,,,,,,,
,,929512,001,2023-07-24_19h59.40.289,arm3_q,2022.2.5,Win32,60.04202942,6120d90a0d83120b87086355,64aeaab685a29f4ca249be02,64bec9c6ba65089ae158e9d1,right,1,0.5643,0.35,0,0.11143175,0.1488,14,0,14,0,1,,,,,,,,,,
,,929512,001,2023-07-24_19h59.40.289,arm3_q,2022.2.5,Win32,60.04202942,6120d90a0d83120b87086355,64aeaab685a29f4ca249be02,64bec9c6ba65089ae158e9d1,right,1,0.5643,0.35,0,0.113558426,0.1531,15,0,15,0,1,,,,,,,,,,
,,929512,001,2023-07-24_19h59.40.289,arm3_q,2022.2.5,Win32,60.04202942,6120d90a0d83120b87086355,64aeaab685a29f4ca249be02,64bec9c6ba65089ae158e9d1,right,1,0.5643,0.35,0,0.122062098,0.1546,16,0,16,0,1,,,,,,,,,,
,,929512,001,2023-07-24_19h59.40.289,arm3_q,2022.2.5,Win32,60.04202942,6120d90a0d83120b87086355,64aeaab685a29f4ca249be02,64bec9c6ba65089ae158e9d1,up,1,0.5643,0.35,1,0,0.8715,17,0,17,0,1,,,,,,,,,,
,,929512,001,2023-07-24_19h59.40.289,arm3_q,2022.2.5,Win32,60.04202942,6120d90a0d83120b87086355,64aeaab685a29f4ca249be02,64bec9c6ba65089ae158e9d1,right,1,0.5643,0.35,1,-0.013395519,1.0133,18,0,18,0,1,,,,,,,,,,
,,929512,001,2023-07-24_19h59.40.289,arm3_q,2022.2.5,Win32,60.04202942,6120d90a0d83120b87086355,64aeaab685a29f4ca249be02,64bec9c6ba65089ae158e9d1,right,1,0.5643,0.35,1,-0.019761576,0.1404,19,0,19,0,1,,,,,,,,,,
,,929512,001,2023-07-24_19h59.40.289,arm3_q,2022.2.5,Win32,60.04202942,6120d90a0d83120b87086355,64aeaab685a29f4ca249be02,64bec9c6ba65089ae158e9d1,right,1,0.5643,0.35,1,-0.003311392,0.1473,20,0,20,0,1,,,,,,,,,,
,,929512,001,2023-07-24_19h59.40.289,arm3_q,2022.2.5,Win32,60.04202942,6120d90a0d83120b87086355,64aeaab685a29f4ca249be02,64bec9c6ba65089ae158e9d1,right,1,0.5643,0.35,1,0.016817819,0.1366,21,0,21,0,1,,,,,,,,,,
,,929512,001,2023-07-24_19h59.40.289,arm3_q,2022.2.5,Win32,60.04202942,6120d90a0d83120b87086355,64aeaab685a29f4ca249be02,64bec9c6ba65089ae158e9d1,right,1,0.5643,0.35,1,0.008054788,0.1493,22,0,22,0,1,,,,,,,,,,
,,929512,001,2023-07-24_19h59.40.289,arm3_q,2022.2.5,Win32,60.04202942,6120d90a0d83120b87086355,64aeaab685a29f4ca249be02,64bec9c6ba65089ae158e9d1,right,1,0.5643,0.35,1,-0.000187208,0.1469,23,0,23,0,1,,,,,,,,,,
,,929512,001,2023-07-24_19h59.40.289,arm3_q,2022.2.5,Win32,60.04202942,6120d90a0d83120b87086355,64aeaab685a29f4ca249be02,64bec9c6ba65089ae158e9d1,right,1,0.5643,0.35,1,-0.013224117,0.1508,24,0,24,0,1,,,,,,,,,,
,,929512,001,2023-07-24_19h59.40.289,arm3_q,2022.2.5,Win32,60.04202942,6120d90a0d83120b87086355,64aeaab685a29f4ca249be02,64bec9c6ba65089ae158e9d1,right,1,0.5643,0.35,1,0.010544301,0.1561,25,0,25,0,1,,,,,,,,,,
,,929512,001,2023-07-24_19h59.40.289,arm3_q,2022.2.5,Win32,60.04202942,6120d90a0d83120b87086355,64aeaab685a29f4ca249be02,64bec9c6ba65089ae158e9d1,right,1,0.5643,0.35,1,0.001072682,0.1479,26,0,26,0,1,,,,,,,,,,
,,929512,001,2023-07-24_19h59.40.289,arm3_q,2022.2.5,Win32,60.04202942,6120d90a0d83120b87086355,64aeaab685a29f4ca249be02,64bec9c6ba65089ae158e9d1,right,1,0.5643,0.35,1,0.027971564,0.1476,27,0,27,0,1,,,,,,,,,,
,,929512,001,2023-07-24_19h59.40.289,arm3_q,2022.2.5,Win32,60.04202942,6120d90a0d83120b87086355,64aeaab685a29f4ca249be02,64bec9c6ba65089ae158e9d1,right,1,0.5643,0.35,1,0.089625509,0.1494,28,0,28,0,1,,,,,,,,,,
,,929512,001,2023-07-24_19h59.40.289,arm3_q,2022.2.5,Win32,60.04202942,6120d90a0d83120b87086355,64aeaab685a29f4ca249be02,64bec9c6ba65089ae158e9d1,right,1,0.5643,0.35,1,0.098973151,0.1558,29,0,29,0,1,,,,,,,,,,
,,929512,001,2023-07-24_19h59.40.289,arm3_q,2022.2.5,Win32,60.04202942,6120d90a0d83120b87086355,64aeaab685a29f4ca249be02,64bec9c6ba65089ae158e9d1,up,1,0.5643,0.35,1,0,0.7135,30,0,30,0,1,,,,,,,,,,
,,929512,001,2023-07-24_19h59.40.289,arm3_q,2022.2.5,Win32,60.04202942,6120d90a0d83120b87086355,64aeaab685a29f4ca249be02,64bec9c6ba65089ae158e9d1,right,1,0.5643,0.35,1,0.016897482,0.664,31,0,31,0,1,,,,,,,,,,
,,929512,001,2023-07-24_19h59.40.289,arm3_q,2022.2.5,Win32,60.04202942,6120d90a0d83120b87086355,64aeaab685a29f4ca249be02,64bec9c6ba65089ae158e9d1,right,1,0.5643,0.35,1,0.025993995,0.402,32,0,32,0,1,,,,,,,,,,
,,929512,001,2023-07-24_19h59.40.289,arm3_q,2022.2.5,Win32,60.04202942,6120d90a0d83120b87086355,64aeaab685a29f4ca249be02,64bec9c6ba65089ae158e9d1,right,1,0.5643,0.35,1,0.07353983,0.1524,33,0,33,0,1,,,,,,,,,,
,,929512,001,2023-07-24_19h59.40.289,arm3_q,2022.2.5,Win32,60.04202942,6120d90a0d83120b87086355,64aeaab685a29f4ca249be02,64bec9c6ba65089ae158e9d1,right,1,0.5643,0.35,1,0.068671931,0.1507,34,0,34,0,1,,,,,,,,,,
,,929512,001,2023-07-24_19h59.40.289,arm3_q,2022.2.5,Win32,60.04202942,6120d90a0d83120b87086355,64aeaab685a29f4ca249be02,64bec9c6ba65089ae158e9d1,right,1,0.5643,0.35,1,0.052658782,0.1383,35,0,35,0,1,,,,,,,,,,
,,929512,001,2023-07-24_19h59.40.289,arm3_q,2022.2.5,Win32,60.04202942,6120d90a0d83120b87086355,64aeaab685a29f4ca249be02,64bec9c6ba65089ae158e9d1,right,1,0.5643,0.35,1,0.040537858,0.1652,36,0,36,0,1,,,,,,,,,,
,,929512,001,2023-07-24_19h59.40.289,arm3_q,2022.2.5,Win32,60.04202942,6120d90a0d83120b87086355,64aeaab685a29f4ca249be02,64bec9c6ba65089ae158e9d1,right,1,0.5643,0.35,1,0.018608547,0.1413,37,0,37,0,1,,,,,,,,,,
,,929512,001,2023-07-24_19h59.40.289,arm3_q,2022.2.5,Win32,60.04202942,6120d90a0d83120b87086355,64aeaab685a29f4ca249be02,64bec9c6ba65089ae158e9d1,right,1,0.5643,0.35,1,0.02211013,0.1714,38,0,38,0,1,,,,,,,,,,
,,929512,001,2023-07-24_19h59.40.289,arm3_q,2022.2.5,Win32,60.04202942,6120d90a0d83120b87086355,64aeaab685a29f4ca249be02,64bec9c6ba65089ae158e9d1,right,1,0.5643,0.35,1,0.027683635,0.1634,39,0,39,0,1,,,,,,,,,,
,,929512,001,2023-07-24_19h59.40.289,arm3_q,2022.2.5,Win32,60.04202942,6120d90a0d83120b87086355,64aeaab685a29f4ca249be02,64bec9c6ba65089ae158e9d1,right,1,0.5643,0.35,1,0.038126207,0.1568,40,0,40,0,1,,,,,,,,,,
,,929512,001,2023-07-24_19h59.40.289,arm3_q,2022.2.5,Win32,60.04202942,6120d90a0d83120b87086355,64aeaab685a29f4ca249be02,64bec9c6ba65089ae158e9d1,right,1,0.5643,0.35,1,0.036547277,0.147,41,0,41,0,1,,,,,,,,,,
,,929512,001,2023-07-24_19h59.40.289,arm3_q,2022.2.5,Win32,60.04202942,6120d90a0d83120b87086355,64aeaab685a29f4ca249be02,64bec9c6ba65089ae158e9d1,right,1,0.5643,0.35,1,0.013265101,0.1635,42,0,42,0,1,,,,,,,,,,
,,929512,001,2023-07-24_19h59.40.289,arm3_q,2022.2.5,Win32,60.04202942,6120d90a0d83120b87086355,64aeaab685a29f4ca249be02,64bec9c6ba65089ae158e9d1,up,1,0.5643,0.35,2,0,0.9334,43,0,43,0,1,,,,,,,,,,
,,929512,001,2023-07-24_19h59.40.289,arm3_q,2022.2.5,Win32,60.04202942,6120d90a0d83120b87086355,64aeaab685a29f4ca249be02,64bec9c6ba65089ae158e9d1,right,1,0.5643,0.35,2,0.01262433,0.5269,44,0,44,0,1,,,,,,,,,,
,,929512,001,2023-07-24_19h59.40.289,arm3_q,2022.2.5,Win32,60.04202942,6120d90a0d83120b87086355,64aeaab685a29f4ca249be02,64bec9c6ba65089ae158e9d1,right,1,0.5643,0.35,2,0.06402233,0.3072,45,0,45,0,1,,,,,,,,,,
,,929512,001,2023-07-24_19h59.40.289,arm3_q,2022.2.5,Win32,60.04202942,6120d90a0d83120b87086355,64aeaab685a29f4ca249be02,64bec9c6ba65089ae158e9d1,right,1,0.5643,0.35,2,0.082412141,0.1754,46,0,46,0,1,,,,,,,,,,
,,929512,001,2023-07-24_19h59.40.289,arm3_q,2022.2.5,Win32,60.04202942,6120d90a0d83120b87086355,64aeaab685a29f4ca249be02,64bec9c6ba65089ae158e9d1,right,1,0.5643,0.35,2,0.087480699,0.1542,47,0,47,0,1,,,,,,,,,,
,,929512,001,2023-07-24_19h59.40.289,arm3_q,2022.2.5,Win32,60.04202942,6120d90a0d83120b87086355,64aeaab685a29f4ca249be02,64bec9c6ba65089ae158e9d1,right,1,0.5643,0.35,2,0.101813159,0.1677,48,0,48,0,1,,,,,,,,,,
,,929512,001,2023-07-24_19h59.40.289,arm3_q,2022.2.5,Win32,60.04202942,6120d90a0d83120b87086355,64aeaab685a29f4ca249be02,64bec9c6ba65089ae158e9d1,right,1,0.5643,0.35,2,0.109317248,0.4397,49,0,49,0,1,,,,,,,,,,
space,1.295,929512,001,2023-07-24_19h59.40.289,arm3_q,2022.2.5,Win32,60.04202942,6120d90a0d83120b87086355,64aeaab685a29f4ca249be02,64bec9c6ba65089ae158e9d1,,,,,,,,,,,,,,,,,,,,,,
space,2.4153,929512,001,2023-07-24_19h59.40.289,arm3_q,2022.2.5,Win32,60.04202942,6120d90a0d83120b87086355,64aeaab685a29f4ca249be02,64bec9c6ba65089ae158e9d1,right,1,0.1786,0.35,0,0.010169045,0.5115,,,,,,0,0,0,0,1,,,,,
,,929512,001,2023-07-24_19h59.40.289,arm3_q,2022.2.5,Win32,60.04202942,6120d90a0d83120b87086355,64aeaab685a29f4ca249be02,64bec9c6ba65089ae158e9d1,right,1,0.1786,0.35,0,0.045198658,0.322,,,,,,1,0,1,0,1,,,,,
,,929512,001,2023-07-24_19h59.40.289,arm3_q,2022.2.5,Win32,60.04202942,6120d90a0d83120b87086355,64aeaab685a29f4ca249be02,64bec9c6ba65089ae158e9d1,right,1,0.1786,0.35,0,0.051317303,0.1664,,,,,,2,0,2,0,1,,,,,
,,929512,001,2023-07-24_19h59.40.289,arm3_q,2022.2.5,Win32,60.04202942,6120d90a0d83120b87086355,64aeaab685a29f4ca249be02,64bec9c6ba65089ae158e9d1,right,1,0.1786,0.35,0,0.074609825,0.3154,,,,,,3,0,3,0,1,,,,,
,,929512,001,2023-07-24_19h59.40.289,arm3_q,2022.2.5,Win32,60.04202942,6120d90a0d83120b87086355,64aeaab685a29f4ca249be02,64bec9c6ba65089ae158e9d1,right,1,0.1786,0.35,0,0.111792536,0.1532,,,,,,4,0,4,0,1,,,,,
,,929512,001,2023-07-24_19h59.40.289,arm3_q,2022.2.5,Win32,60.04202942,6120d90a0d83120b87086355,64aeaab685a29f4ca249be02,64bec9c6ba65089ae158e9d1,right,1,0.1786,0.35,0,0.122999007,0.1812,,,,,,5,0,5,0,1,,,,,
,,929512,001,2023-07-24_19h59.40.289,arm3_q,2022.2.5,Win32,60.04202942,6120d90a0d83120b87086355,64aeaab685a29f4ca249be02,64bec9c6ba65089ae158e9d1,right,1,0.1786,0.35,0,0.152715783,0.6542,,,,,,6,0,6,0,1,,,,,
,,929512,001,2023-07-24_19h59.40.289,arm3_q,2022.2.5,Win32,60.04202942,6120d90a0d83120b87086355,64aeaab685a29f4ca249be02,64bec9c6ba65089ae158e9d1,up,-1,0.1786,0.35,1,0,0.7389,,,,,,7,0,7,0,1,,,,,
,,929512,001,2023-07-24_19h59.40.289,arm3_q,2022.2.5,Win32,60.04202942,6120d90a0d83120b87086355,64aeaab685a29f4ca249be02,64bec9c6ba65089ae158e9d1,right,-1,0.1786,0.35,1,0.004441118,1.2144,,,,,,8,0,8,0,1,,,,,
,,929512,001,2023-07-24_19h59.40.289,arm3_q,2022.2.5,Win32,60.04202942,6120d90a0d83120b87086355,64aeaab685a29f4ca249be02,64bec9c6ba65089ae158e9d1,right,-1,0.1786,0.35,1,0.013317564,0.1996,,,,,,9,0,9,0,1,,,,,
,,929512,001,2023-07-24_19h59.40.289,arm3_q,2022.2.5,Win32,60.04202942,6120d90a0d83120b87086355,64aeaab685a29f4ca249be02,64bec9c6ba65089ae158e9d1,right,-1,0.1786,0.35,1,-0.002161811,0.2543,,,,,,10,0,10,0,1,,,,,
,,929512,001,2023-07-24_19h59.40.289,arm3_q,2022.2.5,Win32,60.04202942,6120d90a0d83120b87086355,64aeaab685a29f4ca249be02,64bec9c6ba65089ae158e9d1,right,-1,0.1786,0.35,1,-0.001843706,0.3212,,,,,,11,0,11,0,1,,,,,
,,929512,001,2023-07-24_19h59.40.289,arm3_q,2022.2.5,Win32,60.04202942,6120d90a0d83120b87086355,64aeaab685a29f4ca249be02,64bec9c6ba65089ae158e9d1,right,-1,0.1786,0.35,1,-0.038916885,0.3617,,,,,,12,0,12,0,1,,,,,
,,929512,001,2023-07-24_19h59.40.289,arm3_q,2022.2.5,Win32,60.04202942,6120d90a0d83120b87086355,64aeaab685a29f4ca249be02,64bec9c6ba65089ae158e9d1,down,1,0.1786,0.35,1,0,0.6908,,,,,,13,0,13,0,1,,,,,
,,929512,001,2023-07-24_19h59.40.289,arm3_q,2022.2.5,Win32,60.04202942,6120d90a0d83120b87086355,64aeaab685a29f4ca249be02,64bec9c6ba65089ae158e9d1,right,1,0.1786,0.35,1,0.003500707,1.0785,,,,,,14,0,14,0,1,,,,,
,,929512,001,2023-07-24_19h59.40.289,arm3_q,2022.2.5,Win32,60.04202942,6120d90a0d83120b87086355,64aeaab685a29f4ca249be02,64bec9c6ba65089ae158e9d1,right,1,0.1786,0.35,1,-0.016076541,0.1405,,,,,,15,0,15,0,1,,,,,
,,929512,001,2023-07-24_19h59.40.289,arm3_q,2022.2.5,Win32,60.04202942,6120d90a0d83120b87086355,64aeaab685a29f4ca249be02,64bec9c6ba65089ae158e9d1,right,1,0.1786,0.35,1,0.006275239,0.1893,,,,,,16,0,16,0,1,,,,,
,,929512,001,2023-07-24_19h59.40.289,arm3_q,2022.2.5,Win32,60.04202942,6120d90a0d83120b87086355,64aeaab685a29f4ca249be02,64bec9c6ba65089ae158e9d1,right,1,0.1786,0.35,1,-0.019219082,0.3318,,,,,,17,0,17,0,1,,,,,
,,929512,001,2023-07-24_19h59.40.289,arm3_q,2022.2.5,Win32,60.04202942,6120d90a0d83120b87086355,64aeaab685a29f4ca249be02,64bec9c6ba65089ae158e9d1,right,1,0.1786,0.35,1,-0.015184351,0.2658,,,,,,18,0,18,0,1,,,,,
,,929512,001,2023-07-24_19h59.40.289,arm3_q,2022.2.5,Win32,60.04202942,6120d90a0d83120b87086355,64aeaab685a29f4ca249be02,64bec9c6ba65089ae158e9d1,right,1,0.1786,0.35,1,0.022800753,1.3841,,,,,,19,0,19,0,1,,,,,
,,929512,001,2023-07-24_19h59.40.289,arm3_q,2022.2.5,Win32,60.04202942,6120d90a0d83120b87086355,64aeaab685a29f4ca249be02,64bec9c6ba65089ae158e9d1,right,1,0.1786,0.35,1,0.018286716,0.1715,,,,,,20,0,20,0,1,,,,,
,,929512,001,2023-07-24_19h59.40.289,arm3_q,2022.2.5,Win32,60.04202942,6120d90a0d83120b87086355,64aeaab685a29f4ca249be02,64bec9c6ba65089ae158e9d1,right,1,0.1786,0.35,1,0.027479342,0.384,,,,,,21,0,21,0,1,,,,,
,,929512,001,2023-07-24_19h59.40.289,arm3_q,2022.2.5,Win32,60.04202942,6120d90a0d83120b87086355,64aeaab685a29f4ca249be02,64bec9c6ba65089ae158e9d1,up,1,0.1786,0.35,1,0,0.5447,,,,,,22,0,22,0,1,,,,,
,,929512,001,2023-07-24_19h59.40.289,arm3_q,2022.2.5,Win32,60.04202942,6120d90a0d83120b87086355,64aeaab685a29f4ca249be02,64bec9c6ba65089ae158e9d1,right,1,0.1786,0.35,1,-0.018473523,0.8034,,,,,,23,0,23,0,1,,,,,
,,929512,001,2023-07-24_19h59.40.289,arm3_q,2022.2.5,Win32,60.04202942,6120d90a0d83120b87086355,64aeaab685a29f4ca249be02,64bec9c6ba65089ae158e9d1,right,1,0.1786,0.35,1,0.005382057,0.1989,,,,,,24,0,24,0,1,,,,,
,,929512,001,2023-07-24_19h59.40.289,arm3_q,2022.2.5,Win32,60.04202942,6120d90a0d83120b87086355,64aeaab685a29f4ca249be02,64bec9c6ba65089ae158e9d1,right,1,0.1786,0.35,1,0.037555267,0.1653,,,,,,25,0,25,0,1,,,,,
,,929512,001,2023-07-24_19h59.40.289,arm3_q,2022.2.5,Win32,60.04202942,6120d90a0d83120b87086355,64aeaab685a29f4ca249be02,64bec9c6ba65089ae158e9d1,right,1,0.1786,0.35,1,0.038205022,0.1655,,,,,,26,0,26,0,1,,,,,
,,929512,001,2023-07-24_19h59.40.289,arm3_q,2022.2.5,Win32,60.04202942,6120d90a0d83120b87086355,64aeaab685a29f4ca249be02,64bec9c6ba65089ae158e9d1,right,1,0.1786,0.35,1,0.059633082,0.35,,,,,,27,0,27,0,1,,,,,
,,929512,001,2023-07-24_19h59.40.289,arm3_q,2022.2.5,Win32,60.04202942,6120d90a0d83120b87086355,64aeaab685a29f4ca249be02,64bec9c6ba65089ae158e9d1,right,1,0.1786,0.35,1,0.073742322,0.1827,,,,,,28,0,28,0,1,,,,,
,,929512,001,2023-07-24_19h59.40.289,arm3_q,2022.2.5,Win32,60.04202942,6120d90a0d83120b87086355,64aeaab685a29f4ca249be02,64bec9c6ba65089ae158e9d1,right,1,0.1786,0.35,1,0.048066213,0.3965,,,,,,29,0,29,0,1,,,,,
,,929512,001,2023-07-24_19h59.40.289,arm3_q,2022.2.5,Win32,60.04202942,6120d90a0d83120b87086355,64aeaab685a29f4ca249be02,64bec9c6ba65089ae158e9d1,right,1,0.1786,0.35,1,0.051292852,0.4961,,,,,,30,0,30,0,1,,,,,
,,929512,001,2023-07-24_19h59.40.289,arm3_q,2022.2.5,Win32,60.04202942,6120d90a0d83120b87086355,64aeaab685a29f4ca249be02,64bec9c6ba65089ae158e9d1,up,1,0.1786,0.35,1,0,0.8154,,,,,,31,0,31,0,1,,,,,
,,929512,001,2023-07-24_19h59.40.289,arm3_q,2022.2.5,Win32,60.04202942,6120d90a0d83120b87086355,64aeaab685a29f4ca249be02,64bec9c6ba65089ae158e9d1,right,1,0.1786,0.35,1,0.021784222,1.032,,,,,,32,0,32,0,1,,,,,
,,929512,001,2023-07-24_19h59.40.289,arm3_q,2022.2.5,Win32,60.04202942,6120d90a0d83120b87086355,64aeaab685a29f4ca249be02,64bec9c6ba65089ae158e9d1,right,1,0.1786,0.35,1,0.028683174,0.2055,,,,,,33,0,33,0,1,,,,,
,,929512,001,2023-07-24_19h59.40.289,arm3_q,2022.2.5,Win32,60.04202942,6120d90a0d83120b87086355,64aeaab685a29f4ca249be02,64bec9c6ba65089ae158e9d1,right,1,0.1786,0.35,1,0.009293934,0.1812,,,,,,34,0,34,0,1,,,,,
,,929512,001,2023-07-24_19h59.40.289,arm3_q,2022.2.5,Win32,60.04202942,6120d90a0d83120b87086355,64aeaab685a29f4ca249be02,64bec9c6ba65089ae158e9d1,right,1,0.1786,0.35,1,0.034896086,0.1639,,,,,,35,0,35,0,1,,,,,
,,929512,001,2023-07-24_19h59.40.289,arm3_q,2022.2.5,Win32,60.04202942,6120d90a0d83120b87086355,64aeaab685a29f4ca249be02,64bec9c6ba65089ae158e9d1,right,1,0.1786,0.35,1,0.038403804,0.1808,,,,,,36,0,36,0,1,,,,,
,,929512,001,2023-07-24_19h59.40.289,arm3_q,2022.2.5,Win32,60.04202942,6120d90a0d83120b87086355,64aeaab685a29f4ca249be02,64bec9c6ba65089ae158e9d1,right,1,0.1786,0.35,1,0.072105245,0.1807,,,,,,37,0,37,0,1,,,,,
,,929512,001,2023-07-24_19h59.40.289,arm3_q,2022.2.5,Win32,60.04202942,6120d90a0d83120b87086355,64aeaab685a29f4ca249be02,64bec9c6ba65089ae158e9d1,right,1,0.1786,0.35,1,0.065481224,0.3555,,,,,,38,0,38,0,1,,,,,
,,929512,001,2023-07-24_19h59.40.289,arm3_q,2022.2.5,Win32,60.04202942,6120d90a0d83120b87086355,64aeaab685a29f4ca249be02,64bec9c6ba65089ae158e9d1,up,1,0.1786,0.35,1,0,0.9991,,,,,,39,0,39,0,1,,,,,
,,929512,001,2023-07-24_19h59.40.289,arm3_q,2022.2.5,Win32,60.04202942,6120d90a0d83120b87086355,64aeaab685a29f4ca249be02,64bec9c6ba65089ae158e9d1,right,1,0.1786,0.35,1,0.017921809,0.7849,,,,,,40,0,40,0,1,,,,,
,,929512,001,2023-07-24_19h59.40.289,arm3_q,2022.2.5,Win32,60.04202942,6120d90a0d83120b87086355,64aeaab685a29f4ca249be02,64bec9c6ba65089ae158e9d1,right,1,0.1786,0.35,1,0.028278208,0.1999,,,,,,41,0,41,0,1,,,,,
,,929512,001,2023-07-24_19h59.40.289,arm3_q,2022.2.5,Win32,60.04202942,6120d90a0d83120b87086355,64aeaab685a29f4ca249be02,64bec9c6ba65089ae158e9d1,right,1,0.1786,0.35,1,0.012362849,0.1654,,,,,,42,0,42,0,1,,,,,
,,929512,001,2023-07-24_19h59.40.289,arm3_q,2022.2.5,Win32,60.04202942,6120d90a0d83120b87086355,64aeaab685a29f4ca249be02,64bec9c6ba65089ae158e9d1,right,1,0.1786,0.35,1,0.005237563,0.1562,,,,,,43,0,43,0,1,,,,,
,,929512,001,2023-07-24_19h59.40.289,arm3_q,2022.2.5,Win32,60.04202942,6120d90a0d83120b87086355,64aeaab685a29f4ca249be02,64bec9c6ba65089ae158e9d1,right,1,0.1786,0.35,1,0.041871015,0.1805,,,,,,44,0,44,0,1,,,,,
,,929512,001,2023-07-24_19h59.40.289,arm3_q,2022.2.5,Win32,60.04202942,6120d90a0d83120b87086355,64aeaab685a29f4ca249be02,64bec9c6ba65089ae158e9d1,right,1,0.1786,0.35,1,0.02735908,0.1643,,,,,,45,0,45,0,1,,,,,
,,929512,001,2023-07-24_19h59.40.289,arm3_q,2022.2.5,Win32,60.04202942,6120d90a0d83120b87086355,64aeaab685a29f4ca249be02,64bec9c6ba65089ae158e9d1,right,1,0.1786,0.35,1,0.018130909,0.3301,,,,,,46,0,46,0,1,,,,,
,,929512,001,2023-07-24_19h59.40.289,arm3_q,2022.2.5,Win32,60.04202942,6120d90a0d83120b87086355,64aeaab685a29f4ca249be02,64bec9c6ba65089ae158e9d1,up,1,0.1786,0.35,1,0,0.6485,,,,,,47,0,47,0,1,,,,,
,,929512,001,2023-07-24_19h59.40.289,arm3_q,2022.2.5,Win32,60.04202942,6120d90a0d83120b87086355,64aeaab685a29f4ca249be02,64bec9c6ba65089ae158e9d1,right,1,0.1786,0.35,1,0.027528379,0.63,,,,,,48,0,48,0,1,,,,,
,,929512,001,2023-07-24_19h59.40.289,arm3_q,2022.2.5,Win32,60.04202942,6120d90a0d83120b87086355,64aeaab685a29f4ca249be02,64bec9c6ba65089ae158e9d1,right,1,0.1786,0.35,1,0.030307829,0.1834,,,,,,49,0,49,0,1,,,,,
,,929512,001,2023-07-24_19h59.40.289,arm3_q,2022.2.5,Win32,60.04202942,6120d90a0d83120b87086355,64aeaab685a29f4ca249be02,64bec9c6ba65089ae158e9d1,right,1,0.1786,0.35,1,0.049746087,0.1662,,,,,,50,0,50,0,1,,,,,
,,929512,001,2023-07-24_19h59.40.289,arm3_q,2022.2.5,Win32,60.04202942,6120d90a0d83120b87086355,64aeaab685a29f4ca249be02,64bec9c6ba65089ae158e9d1,right,1,0.1786,0.35,1,0.037160387,0.165,,,,,,51,0,51,0,1,,,,,
,,929512,001,2023-07-24_19h59.40.289,arm3_q,2022.2.5,Win32,60.04202942,6120d90a0d83120b87086355,64aeaab685a29f4ca249be02,64bec9c6ba65089ae158e9d1,right,1,0.1786,0.35,1,0.039214382,0.2828,,,,,,52,0,52,0,1,,,,,
,,929512,001,2023-07-24_19h59.40.289,arm3_q,2022.2.5,Win32,60.04202942,6120d90a0d83120b87086355,64aeaab685a29f4ca249be02,64bec9c6ba65089ae158e9d1,right,1,0.1786,0.35,1,0.08333132,0.2151,,,,,,53,0,53,0,1,,,,,
,,929512,001,2023-07-24_19h59.40.289,arm3_q,2022.2.5,Win32,60.04202942,6120d90a0d83120b87086355,64aeaab685a29f4ca249be02,64bec9c6ba65089ae158e9d1,right,1,0.1786,0.35,1,0.118772565,0.8501,,,,,,54,0,54,0,1,,,,,
,,929512,001,2023-07-24_19h59.40.289,arm3_q,2022.2.5,Win32,60.04202942,6120d90a0d83120b87086355,64aeaab685a29f4ca249be02,64bec9c6ba65089ae158e9d1,right,1,0.1786,0.35,1,0.139655007,0.267,,,,,,55,0,55,0,1,,,,,
,,929512,001,2023-07-24_19h59.40.289,arm3_q,2022.2.5,Win32,60.04202942,6120d90a0d83120b87086355,64aeaab685a29f4ca249be02,64bec9c6ba65089ae158e9d1,right,1,0.1786,0.35,1,0.169370212,0.1814,,,,,,56,0,56,0,1,,,,,
,,929512,001,2023-07-24_19h59.40.289,arm3_q,2022.2.5,Win32,60.04202942,6120d90a0d83120b87086355,64aeaab685a29f4ca249be02,64bec9c6ba65089ae158e9d1,right,1,0.1786,0.35,1,0.192067727,0.186,,,,,,57,0,57,0,1,,,,,
,,929512,001,2023-07-24_19h59.40.289,arm3_q,2022.2.5,Win32,60.04202942,6120d90a0d83120b87086355,64aeaab685a29f4ca249be02,64bec9c6ba65089ae158e9d1,right,1,0.1786,0.35,1,0.177227951,0.3203,,,,,,58,0,58,0,1,,,,,
,,929512,001,2023-07-24_19h59.40.289,arm3_q,2022.2.5,Win32,60.04202942,6120d90a0d83120b87086355,64aeaab685a29f4ca249be02,64bec9c6ba65089ae158e9d1,right,1,0.1786,0.35,1,0.170963043,0.4623,,,,,,59,0,59,0,1,,,,,
,,929512,001,2023-07-24_19h59.40.289,arm3_q,2022.2.5,Win32,60.04202942,6120d90a0d83120b87086355,64aeaab685a29f4ca249be02,64bec9c6ba65089ae158e9d1,up,1,0.1786,0.35,1,0,0.6534,,,,,,60,0,60,0,1,,,,,
,,929512,001,2023-07-24_19h59.40.289,arm3_q,2022.2.5,Win32,60.04202942,6120d90a0d83120b87086355,64aeaab685a29f4ca249be02,64bec9c6ba65089ae158e9d1,right,1,0.1786,0.35,1,0.024353036,0.7387,,,,,,61,0,61,0,1,,,,,
,,929512,001,2023-07-24_19h59.40.289,arm3_q,2022.2.5,Win32,60.04202942,6120d90a0d83120b87086355,64aeaab685a29f4ca249be02,64bec9c6ba65089ae158e9d1,right,1,0.1786,0.35,1,0.040324425,0.1961,,,,,,62,0,62,0,1,,,,,
,,929512,001,2023-07-24_19h59.40.289,arm3_q,2022.2.5,Win32,60.04202942,6120d90a0d83120b87086355,64aeaab685a29f4ca249be02,64bec9c6ba65089ae158e9d1,right,1,0.1786,0.35,1,0.074111783,0.1836,,,,,,63,0,63,0,1,,,,,
,,929512,001,2023-07-24_19h59.40.289,arm3_q,2022.2.5,Win32,60.04202942,6120d90a0d83120b87086355,64aeaab685a29f4ca249be02,64bec9c6ba65089ae158e9d1,right,1,0.1786,0.35,1,0.090172751,0.1699,,,,,,64,0,64,0,1,,,,,
,,929512,001,2023-07-24_19h59.40.289,arm3_q,2022.2.5,Win32,60.04202942,6120d90a0d83120b87086355,64aeaab685a29f4ca249be02,64bec9c6ba65089ae158e9d1,right,1,0.1786,0.35,1,0.084381061,0.1825,,,,,,65,0,65,0,1,,,,,
,,929512,001,2023-07-24_19h59.40.289,arm3_q,2022.2.5,Win32,60.04202942,6120d90a0d83120b87086355,64aeaab685a29f4ca249be02,64bec9c6ba65089ae158e9d1,right,1,0.1786,0.35,1,0.09264661,0.3339,,,,,,66,0,66,0,1,,,,,
,,929512,001,2023-07-24_19h59.40.289,arm3_q,2022.2.5,Win32,60.04202942,6120d90a0d83120b87086355,64aeaab685a29f4ca249be02,64bec9c6ba65089ae158e9d1,right,1,0.1786,0.35,1,0.074544319,0.22,,,,,,67,0,67,0,1,,,,,
,,929512,001,2023-07-24_19h59.40.289,arm3_q,2022.2.5,Win32,60.04202942,6120d90a0d83120b87086355,64aeaab685a29f4ca249be02,64bec9c6ba65089ae158e9d1,right,1,0.1786,0.35,1,0.097933701,0.186,,,,,,68,0,68,0,1,,,,,
,,929512,001,2023-07-24_19h59.40.289,arm3_q,2022.2.5,Win32,60.04202942,6120d90a0d83120b87086355,64aeaab685a29f4ca249be02,64bec9c6ba65089ae158e9d1,right,1,0.1786,0.35,1,0.145626262,0.1783,,,,,,69,0,69,0,1,,,,,
,,929512,001,2023-07-24_19h59.40.289,arm3_q,2022.2.5,Win32,60.04202942,6120d90a0d83120b87086355,64aeaab685a29f4ca249be02,64bec9c6ba65089ae158e9d1,up,-1,0.1786,0.35,1,0,0.4982,,,,,,70,0,70,0,1,,,,,
,,929512,001,2023-07-24_19h59.40.289,arm3_q,2022.2.5,Win32,60.04202942,6120d90a0d83120b87086355,64aeaab685a29f4ca249be02,64bec9c6ba65089ae158e9d1,right,-1,0.1786,0.35,1,-0.004835393,0.7105,,,,,,71,0,71,0,1,,,,,
,,929512,001,2023-07-24_19h59.40.289,arm3_q,2022.2.5,Win32,60.04202942,6120d90a0d83120b87086355,64aeaab685a29f4ca249be02,64bec9c6ba65089ae158e9d1,right,-1,0.1786,0.35,1,0.020250997,0.1906,,,,,,72,0,72,0,1,,,,,
,,929512,001,2023-07-24_19h59.40.289,arm3_q,2022.2.5,Win32,60.04202942,6120d90a0d83120b87086355,64aeaab685a29f4ca249be02,64bec9c6ba65089ae158e9d1,right,-1,0.1786,0.35,1,-0.008041918,0.1832,,,,,,73,0,73,0,1,,,,,
,,929512,001,2023-07-24_19h59.40.289,arm3_q,2022.2.5,Win32,60.04202942,6120d90a0d83120b87086355,64aeaab685a29f4ca249be02,64bec9c6ba65089ae158e9d1,right,-1,0.1786,0.35,1,0.009664088,0.1507,,,,,,74,0,74,0,1,,,,,
,,929512,001,2023-07-24_19h59.40.289,arm3_q,2022.2.5,Win32,60.04202942,6120d90a0d83120b87086355,64aeaab685a29f4ca249be02,64bec9c6ba65089ae158e9d1,right,-1,0.1786,0.35,1,0.008142137,0.1702,,,,,,75,0,75,0,1,,,,,
,,929512,001,2023-07-24_19h59.40.289,arm3_q,2022.2.5,Win32,60.04202942,6120d90a0d83120b87086355,64aeaab685a29f4ca249be02,64bec9c6ba65089ae158e9d1,right,-1,0.1786,0.35,1,0.002546398,0.1797,,,,,,76,0,76,0,1,,,,,
,,929512,001,2023-07-24_19h59.40.289,arm3_q,2022.2.5,Win32,60.04202942,6120d90a0d83120b87086355,64aeaab685a29f4ca249be02,64bec9c6ba65089ae158e9d1,right,-1,0.1786,0.35,1,0.0115921,0.1628,,,,,,77,0,77,0,1,,,,,
,,929512,001,2023-07-24_19h59.40.289,arm3_q,2022.2.5,Win32,60.04202942,6120d90a0d83120b87086355,64aeaab685a29f4ca249be02,64bec9c6ba65089ae158e9d1,right,-1,0.1786,0.35,1,0.021395582,0.3393,,,,,,78,0,78,0,1,,,,,
,,929512,001,2023-07-24_19h59.40.289,arm3_q,2022.2.5,Win32,60.04202942,6120d90a0d83120b87086355,64aeaab685a29f4ca249be02,64bec9c6ba65089ae158e9d1,down,1,0.1786,0.35,1,0,0.5653,,,,,,79,0,79,0,1,,,,,
,,929512,001,2023-07-24_19h59.40.289,arm3_q,2022.2.5,Win32,60.04202942,6120d90a0d83120b87086355,64aeaab685a29f4ca249be02,64bec9c6ba65089ae158e9d1,right,1,0.1786,0.35,1,0.021184864,0.717,,,,,,80,0,80,0,1,,,,,
,,929512,001,2023-07-24_19h59.40.289,arm3_q,2022.2.5,Win32,60.04202942,6120d90a0d83120b87086355,64aeaab685a29f4ca249be02,64bec9c6ba65089ae158e9d1,right,1,0.1786,0.35,1,0.03524789,0.1809,,,,,,81,0,81,0,1,,,,,
,,929512,001,2023-07-24_19h59.40.289,arm3_q,2022.2.5,Win32,60.04202942,6120d90a0d83120b87086355,64aeaab685a29f4ca249be02,64bec9c6ba65089ae158e9d1,right,1,0.1786,0.35,1,0.044733335,0.1847,,,,,,82,0,82,0,1,,,,,
,,929512,001,2023-07-24_19h59.40.289,arm3_q,2022.2.5,Win32,60.04202942,6120d90a0d83120b87086355,64aeaab685a29f4ca249be02,64bec9c6ba65089ae158e9d1,right,1,0.1786,0.35,1,0.022498398,0.1802,,,,,,83,0,83,0,1,,,,,
,,929512,001,2023-07-24_19h59.40.289,arm3_q,2022.2.5,Win32,60.04202942,6120d90a0d83120b87086355,64aeaab685a29f4ca249be02,64bec9c6ba65089ae158e9d1,right,1,0.1786,0.35,1,0.026496302,0.1531,,,,,,84,0,84,0,1,,,,,
,,929512,001,2023-07-24_19h59.40.289,arm3_q,2022.2.5,Win32,60.04202942,6120d90a0d83120b87086355,64aeaab685a29f4ca249be02,64bec9c6ba65089ae158e9d1,right,1,0.1786,0.35,1,0.027263457,0.1509,,,,,,85,0,85,0,1,,,,,
,,929512,001,2023-07-24_19h59.40.289,arm3_q,2022.2.5,Win32,60.04202942,6120d90a0d83120b87086355,64aeaab685a29f4ca249be02,64bec9c6ba65089ae158e9d1,right,1,0.1786,0.35,1,-0.001766416,0.2823,,,,,,86,0,86,0,1,,,,,
,,929512,001,2023-07-24_19h59.40.289,arm3_q,2022.2.5,Win32,60.04202942,6120d90a0d83120b87086355,64aeaab685a29f4ca249be02,64bec9c6ba65089ae158e9d1,down,-1,0.1786,0.35,1,0,0.4503,,,,,,87,0,87,0,1,,,,,
,,929512,001,2023-07-24_19h59.40.289,arm3_q,2022.2.5,Win32,60.04202942,6120d90a0d83120b87086355,64aeaab685a29f4ca249be02,64bec9c6ba65089ae158e9d1,right,-1,0.1786,0.35,1,0.024707404,0.58,,,,,,88,0,88,0,1,,,,,
,,929512,001,2023-07-24_19h59.40.289,arm3_q,2022.2.5,Win32,60.04202942,6120d90a0d83120b87086355,64aeaab685a29f4ca249be02,64bec9c6ba65089ae158e9d1,right,-1,0.1786,0.35,1,-0.002266565,0.1858,,,,,,89,0,89,0,1,,,,,
,,929512,001,2023-07-24_19h59.40.289,arm3_q,2022.2.5,Win32,60.04202942,6120d90a0d83120b87086355,64aeaab685a29f4ca249be02,64bec9c6ba65089ae158e9d1,right,-1,0.1786,0.35,1,-0.038250969,0.1682,,,,,,90,0,90,0,1,,,,,
,,929512,001,2023-07-24_19h59.40.289,arm3_q,2022.2.5,Win32,60.04202942,6120d90a0d83120b87086355,64aeaab685a29f4ca249be02,64bec9c6ba65089ae158e9d1,right,-1,0.1786,0.35,1,-0.040226154,0.1692,,,,,,91,0,91,0,1,,,,,
,,929512,001,2023-07-24_19h59.40.289,arm3_q,2022.2.5,Win32,60.04202942,6120d90a0d83120b87086355,64aeaab685a29f4ca249be02,64bec9c6ba65089ae158e9d1,right,-1,0.1786,0.35,1,-0.063592129,0.156,,,,,,92,0,92,0,1,,,,,
,,929512,001,2023-07-24_19h59.40.289,arm3_q,2022.2.5,Win32,60.04202942,6120d90a0d83120b87086355,64aeaab685a29f4ca249be02,64bec9c6ba65089ae158e9d1,right,-1,0.1786,0.35,1,-0.048699704,0.1721,,,,,,93,0,93,0,1,,,,,
,,929512,001,2023-07-24_19h59.40.289,arm3_q,2022.2.5,Win32,60.04202942,6120d90a0d83120b87086355,64aeaab685a29f4ca249be02,64bec9c6ba65089ae158e9d1,right,-1,0.1786,0.35,1,-0.083946067,0.3056,,,,,,94,0,94,0,1,,,,,
,,929512,001,2023-07-24_19h59.40.289,arm3_q,2022.2.5,Win32,60.04202942,6120d90a0d83120b87086355,64aeaab685a29f4ca249be02,64bec9c6ba65089ae158e9d1,right,-1,0.1786,0.35,1,-0.074329316,0.7007,,,,,,95,0,95,0,1,,,,,
,,929512,001,2023-07-24_19h59.40.289,arm3_q,2022.2.5,Win32,60.04202942,6120d90a0d83120b87086355,64aeaab685a29f4ca249be02,64bec9c6ba65089ae158e9d1,down,1,0.1786,0.35,1,0,0.9651,,,,,,96,0,96,0,1,,,,,
,,929512,001,2023-07-24_19h59.40.289,arm3_q,2022.2.5,Win32,60.04202942,6120d90a0d83120b87086355,64aeaab685a29f4ca249be02,64bec9c6ba65089ae158e9d1,right,1,0.1786,0.35,1,0.007922599,0.7993,,,,,,97,0,97,0,1,,,,,
,,929512,001,2023-07-24_19h59.40.289,arm3_q,2022.2.5,Win32,60.04202942,6120d90a0d83120b87086355,64aeaab685a29f4ca249be02,64bec9c6ba65089ae158e9d1,right,1,0.1786,0.35,1,0.017764933,0.2148,,,,,,98,0,98,0,1,,,,,
,,929512,001,2023-07-24_19h59.40.289,arm3_q,2022.2.5,Win32,60.04202942,6120d90a0d83120b87086355,64aeaab685a29f4ca249be02,64bec9c6ba65089ae158e9d1,right,1,0.1786,0.35,1,0.027570732,0.1826,,,,,,99,0,99,0,1,,,,,
,,929512,001,2023-07-24_19h59.40.289,arm3_q,2022.2.5,Win32,60.04202942,6120d90a0d83120b87086355,64aeaab685a29f4ca249be02,64bec9c6ba65089ae158e9d1,right,1,0.1786,0.35,1,0.054013836,0.1669,,,,,,100,0,100,0,1,,,,,
,,929512,001,2023-07-24_19h59.40.289,arm3_q,2022.2.5,Win32,60.04202942,6120d90a0d83120b87086355,64aeaab685a29f4ca249be02,64bec9c6ba65089ae158e9d1,right,1,0.1786,0.35,1,0.064536712,0.1654,,,,,,101,0,101,0,1,,,,,
,,929512,001,2023-07-24_19h59.40.289,arm3_q,2022.2.5,Win32,60.04202942,6120d90a0d83120b87086355,64aeaab685a29f4ca249be02,64bec9c6ba65089ae158e9d1,right,1,0.1786,0.35,1,0.058851056,0.2005,,,,,,102,0,102,0,1,,,,,
,,929512,001,2023-07-24_19h59.40.289,arm3_q,2022.2.5,Win32,60.04202942,6120d90a0d83120b87086355,64aeaab685a29f4ca249be02,64bec9c6ba65089ae158e9d1,right,1,0.1786,0.35,1,0.057399514,0.6152,,,,,,103,0,103,0,1,,,,,
,,929512,001,2023-07-24_19h59.40.289,arm3_q,2022.2.5,Win32,60.04202942,6120d90a0d83120b87086355,64aeaab685a29f4ca249be02,64bec9c6ba65089ae158e9d1,up,-1,0.1786,0.35,1,0,0.632,,,,,,104,0,104,0,1,,,,,
,,929512,001,2023-07-24_19h59.40.289,arm3_q,2022.2.5,Win32,60.04202942,6120d90a0d83120b87086355,64aeaab685a29f4ca249be02,64bec9c6ba65089ae158e9d1,right,-1,0.1786,0.35,1,-0.007909052,0.5983,,,,,,105,0,105,0,1,,,,,
,,929512,001,2023-07-24_19h59.40.289,arm3_q,2022.2.5,Win32,60.04202942,6120d90a0d83120b87086355,64aeaab685a29f4ca249be02,64bec9c6ba65089ae158e9d1,right,-1,0.1786,0.35,1,-0.022540671,0.1818,,,,,,106,0,106,0,1,,,,,
,,929512,001,2023-07-24_19h59.40.289,arm3_q,2022.2.5,Win32,60.04202942,6120d90a0d83120b87086355,64aeaab685a29f4ca249be02,64bec9c6ba65089ae158e9d1,right,-1,0.1786,0.35,1,-0.04655016,0.1834,,,,,,107,0,107,0,1,,,,,
,,929512,001,2023-07-24_19h59.40.289,arm3_q,2022.2.5,Win32,60.04202942,6120d90a0d83120b87086355,64aeaab685a29f4ca249be02,64bec9c6ba65089ae158e9d1,right,-1,0.1786,0.35,1,-0.044201843,0.1675,,,,,,108,0,108,0,1,,,,,
,,929512,001,2023-07-24_19h59.40.289,arm3_q,2022.2.5,Win32,60.04202942,6120d90a0d83120b87086355,64aeaab685a29f4ca249be02,64bec9c6ba65089ae158e9d1,right,-1,0.1786,0.35,1,-0.041950659,0.1842,,,,,,109,0,109,0,1,,,,,
,,929512,001,2023-07-24_19h59.40.289,arm3_q,2022.2.5,Win32,60.04202942,6120d90a0d83120b87086355,64aeaab685a29f4ca249be02,64bec9c6ba65089ae158e9d1,right,-1,0.1786,0.35,1,-0.056332094,0.1797,,,,,,110,0,110,0,1,,,,,
,,929512,001,2023-07-24_19h59.40.289,arm3_q,2022.2.5,Win32,60.04202942,6120d90a0d83120b87086355,64aeaab685a29f4ca249be02,64bec9c6ba65089ae158e9d1,right,-1,0.1786,0.35,1,-0.071860652,0.2842,,,,,,111,0,111,0,1,,,,,
,,929512,001,2023-07-24_19h59.40.289,arm3_q,2022.2.5,Win32,60.04202942,6120d90a0d83120b87086355,64aeaab685a29f4ca249be02,64bec9c6ba65089ae158e9d1,down,-1,0.1786,0.35,1,0,0.8801,,,,,,112,0,112,0,1,,,,,
,,929512,001,2023-07-24_19h59.40.289,arm3_q,2022.2.5,Win32,60.04202942,6120d90a0d83120b87086355,64aeaab685a29f4ca249be02,64bec9c6ba65089ae158e9d1,right,-1,0.1786,0.35,1,-0.012029213,0.5366,,,,,,113,0,113,0,1,,,,,
,,929512,001,2023-07-24_19h59.40.289,arm3_q,2022.2.5,Win32,60.04202942,6120d90a0d83120b87086355,64aeaab685a29f4ca249be02,64bec9c6ba65089ae158e9d1,right,-1,0.1786,0.35,1,-0.008023753,0.214,,,,,,114,0,114,0,1,,,,,
,,929512,001,2023-07-24_19h59.40.289,arm3_q,2022.2.5,Win32,60.04202942,6120d90a0d83120b87086355,64aeaab685a29f4ca249be02,64bec9c6ba65089ae158e9d1,right,-1,0.1786,0.35,1,-0.019088099,0.1736,,,,,,115,0,115,0,1,,,,,
,,929512,001,2023-07-24_19h59.40.289,arm3_q,2022.2.5,Win32,60.04202942,6120d90a0d83120b87086355,64aeaab685a29f4ca249be02,64bec9c6ba65089ae158e9d1,right,-1,0.1786,0.35,1,-0.050310409,0.1652,,,,,,116,0,116,0,1,,,,,
,,929512,001,2023-07-24_19h59.40.289,arm3_q,2022.2.5,Win32,60.04202942,6120d90a0d83120b87086355,64aeaab685a29f4ca249be02,64bec9c6ba65089ae158e9d1,right,-1,0.1786,0.35,1,-0.048396773,0.1658,,,,,,117,0,117,0,1,,,,,
,,929512,001,2023-07-24_19h59.40.289,arm3_q,2022.2.5,Win32,60.04202942,6120d90a0d83120b87086355,64aeaab685a29f4ca249be02,64bec9c6ba65089ae158e9d1,right,-1,0.1786,0.35,1,-0.065769767,0.1535,,,,,,118,0,118,0,1,,,,,
,,929512,001,2023-07-24_19h59.40.289,arm3_q,2022.2.5,Win32,60.04202942,6120d90a0d83120b87086355,64aeaab685a29f4ca249be02,64bec9c6ba65089ae158e9d1,right,-1,0.1786,0.35,1,-0.081727802,0.4374,,,,,,119,0,119,0,1,,,,,
,,929512,001,2023-07-24_19h59.40.289,arm3_q,2022.2.5,Win32,60.04202942,6120d90a0d83120b87086355,64aeaab685a29f4ca249be02,64bec9c6ba65089ae158e9d1,right,-1,0.1786,0.35,1,-0.061381216,0.5034,,,,,,120,0,120,0,1,,,,,
,,929512,001,2023-07-24_19h59.40.289,arm3_q,2022.2.5,Win32,60.04202942,6120d90a0d83120b87086355,64aeaab685a29f4ca249be02,64bec9c6ba65089ae158e9d1,right,-1,0.1786,0.35,1,-0.057790853,0.4667,,,,,,121,0,121,0,1,,,,,
,,929512,001,2023-07-24_19h59.40.289,arm3_q,2022.2.5,Win32,60.04202942,6120d90a0d83120b87086355,64aeaab685a29f4ca249be02,64bec9c6ba65089ae158e9d1,right,-1,0.1786,0.35,1,-0.071828744,0.4053,,,,,,122,0,122,0,1,,,,,
,,929512,001,2023-07-24_19h59.40.289,arm3_q,2022.2.5,Win32,60.04202942,6120d90a0d83120b87086355,64aeaab685a29f4ca249be02,64bec9c6ba65089ae158e9d1,down,1,0.1786,0.35,2,0,0.3909,,,,,,123,0,123,0,1,,,,,
,,929512,001,2023-07-24_19h59.40.289,arm3_q,2022.2.5,Win32,60.04202942,6120d90a0d83120b87086355,64aeaab685a29f4ca249be02,64bec9c6ba65089ae158e9d1,right,1,0.1786,0.35,2,-0.029380026,0.9866,,,,,,124,0,124,0,1,,,,,
,,929512,001,2023-07-24_19h59.40.289,arm3_q,2022.2.5,Win32,60.04202942,6120d90a0d83120b87086355,64aeaab685a29f4ca249be02,64bec9c6ba65089ae158e9d1,right,1,0.1786,0.35,2,-0.029082832,0.1991,,,,,,125,0,125,0,1,,,,,
,,929512,001,2023-07-24_19h59.40.289,arm3_q,2022.2.5,Win32,60.04202942,6120d90a0d83120b87086355,64aeaab685a29f4ca249be02,64bec9c6ba65089ae158e9d1,right,1,0.1786,0.35,2,-0.021619122,0.1296,,,,,,126,0,126,0,1,,,,,
,,929512,001,2023-07-24_19h59.40.289,arm3_q,2022.2.5,Win32,60.04202942,6120d90a0d83120b87086355,64aeaab685a29f4ca249be02,64bec9c6ba65089ae158e9d1,right,1,0.1786,0.35,2,0.005070985,0.0859,,,,,,127,0,127,0,1,,,,,
,,929512,001,2023-07-24_19h59.40.289,arm3_q,2022.2.5,Win32,60.04202942,6120d90a0d83120b87086355,64aeaab685a29f4ca249be02,64bec9c6ba65089ae158e9d1,right,1,0.1786,0.35,2,0.006009284,0.1635,,,,,,128,0,128,0,1,,,,,
,,929512,001,2023-07-24_19h59.40.289,arm3_q,2022.2.5,Win32,60.04202942,6120d90a0d83120b87086355,64aeaab685a29f4ca249be02,64bec9c6ba65089ae158e9d1,right,1,0.1786,0.35,2,-0.012530498,0.1195,,,,,,129,0,129,0,1,,,,,
,,929512,001,2023-07-24_19h59.40.289,arm3_q,2022.2.5,Win32,60.04202942,6120d90a0d83120b87086355,64aeaab685a29f4ca249be02,64bec9c6ba65089ae158e9d1,right,1,0.1786,0.35,2,-9.91351E-05,0.2606,,,,,,130,0,130,0,1,,,,,
,,929512,001,2023-07-24_19h59.40.289,arm3_q,2022.2.5,Win32,60.04202942,6120d90a0d83120b87086355,64aeaab685a29f4ca249be02,64bec9c6ba65089ae158e9d1,right,1,0.1786,0.35,2,0.042002172,0.1693,,,,,,131,0,131,0,1,,,,,
,,929512,001,2023-07-24_19h59.40.289,arm3_q,2022.2.5,Win32,60.04202942,6120d90a0d83120b87086355,64aeaab685a29f4ca249be02,64bec9c6ba65089ae158e9d1,right,1,0.1786,0.35,2,0.039726319,0.3567,,,,,,132,0,132,0,1,,,,,
,,929512,001,2023-07-24_19h59.40.289,arm3_q,2022.2.5,Win32,60.04202942,6120d90a0d83120b87086355,64aeaab685a29f4ca249be02,64bec9c6ba65089ae158e9d1,up,-1,0.1786,0.35,3,0,0.4643,,,,,,133,0,133,0,1,,,,,
,,929512,001,2023-07-24_19h59.40.289,arm3_q,2022.2.5,Win32,60.04202942,6120d90a0d83120b87086355,64aeaab685a29f4ca249be02,64bec9c6ba65089ae158e9d1,right,-1,0.1786,0.35,3,-0.045281318,0.7173,,,,,,134,0,134,0,1,,,,,
,,929512,001,2023-07-24_19h59.40.289,arm3_q,2022.2.5,Win32,60.04202942,6120d90a0d83120b87086355,64aeaab685a29f4ca249be02,64bec9c6ba65089ae158e9d1,right,-1,0.1786,0.35,3,-0.056757124,0.165,,,,,,135,0,135,0,1,,,,,
,,929512,001,2023-07-24_19h59.40.289,arm3_q,2022.2.5,Win32,60.04202942,6120d90a0d83120b87086355,64aeaab685a29f4ca249be02,64bec9c6ba65089ae158e9d1,right,-1,0.1786,0.35,3,-0.036661019,0.1828,,,,,,136,0,136,0,1,,,,,
,,929512,001,2023-07-24_19h59.40.289,arm3_q,2022.2.5,Win32,60.04202942,6120d90a0d83120b87086355,64aeaab685a29f4ca249be02,64bec9c6ba65089ae158e9d1,right,-1,0.1786,0.35,3,-0.058576002,0.1658,,,,,,137,0,137,0,1,,,,,
,,929512,001,2023-07-24_19h59.40.289,arm3_q,2022.2.5,Win32,60.04202942,6120d90a0d83120b87086355,64aeaab685a29f4ca249be02,64bec9c6ba65089ae158e9d1,right,-1,0.1786,0.35,3,-0.069485364,0.1745,,,,,,138,0,138,0,1,,,,,
,,929512,001,2023-07-24_19h59.40.289,arm3_q,2022.2.5,Win32,60.04202942,6120d90a0d83120b87086355,64aeaab685a29f4ca249be02,64bec9c6ba65089ae158e9d1,right,-1,0.1786,0.35,3,-0.123286337,0.1463,,,,,,139,0,139,0,1,,,,,
,,929512,001,2023-07-24_19h59.40.289,arm3_q,2022.2.5,Win32,60.04202942,6120d90a0d83120b87086355,64aeaab685a29f4ca249be02,64bec9c6ba65089ae158e9d1,right,-1,0.1786,0.35,3,-0.115205803,0.3374,,,,,,140,0,140,0,1,,,,,
,,929512,001,2023-07-24_19h59.40.289,arm3_q,2022.2.5,Win32,60.04202942,6120d90a0d83120b87086355,64aeaab685a29f4ca249be02,64bec9c6ba65089ae158e9d1,right,-1,0.1786,0.35,3,-0.123112749,0.3971,,,,,,141,0,141,0,1,,,,,
,,929512,001,2023-07-24_19h59.40.289,arm3_q,2022.2.5,Win32,60.04202942,6120d90a0d83120b87086355,64aeaab685a29f4ca249be02,64bec9c6ba65089ae158e9d1,right,-1,0.1786,0.35,3,-0.118722863,0.4242,,,,,,142,0,142,0,1,,,,,
,,929512,001,2023-07-24_19h59.40.289,arm3_q,2022.2.5,Win32,60.04202942,6120d90a0d83120b87086355,64aeaab685a29f4ca249be02,64bec9c6ba65089ae158e9d1,down,1,0.1786,0.35,3,0,0.7164,,,,,,143,0,143,0,1,,,,,
,,929512,001,2023-07-24_19h59.40.289,arm3_q,2022.2.5,Win32,60.04202942,6120d90a0d83120b87086355,64aeaab685a29f4ca249be02,64bec9c6ba65089ae158e9d1,right,1,0.1786,0.35,3,-0.000247842,0.628,,,,,,144,0,144,0,1,,,,,
,,929512,001,2023-07-24_19h59.40.289,arm3_q,2022.2.5,Win32,60.04202942,6120d90a0d83120b87086355,64aeaab685a29f4ca249be02,64bec9c6ba65089ae158e9d1,right,1,0.1786,0.35,3,-0.00237003,0.1667,,,,,,145,0,145,0,1,,,,,
,,929512,001,2023-07-24_19h59.40.289,arm3_q,2022.2.5,Win32,60.04202942,6120d90a0d83120b87086355,64aeaab685a29f4ca249be02,64bec9c6ba65089ae158e9d1,right,1,0.1786,0.35,3,-0.018026504,0.168,,,,,,146,0,146,0,1,,,,,
,,929512,001,2023-07-24_19h59.40.289,arm3_q,2022.2.5,Win32,60.04202942,6120d90a0d83120b87086355,64aeaab685a29f4ca249be02,64bec9c6ba65089ae158e9d1,right,1,0.1786,0.35,3,0.018537593,0.1853,,,,,,147,0,147,0,1,,,,,
,,929512,001,2023-07-24_19h59.40.289,arm3_q,2022.2.5,Win32,60.04202942,6120d90a0d83120b87086355,64aeaab685a29f4ca249be02,64bec9c6ba65089ae158e9d1,right,1,0.1786,0.35,3,-0.001102722,0.1508,,,,,,148,0,148,0,1,,,,,
,,929512,001,2023-07-24_19h59.40.289,arm3_q,2022.2.5,Win32,60.04202942,6120d90a0d83120b87086355,64aeaab685a29f4ca249be02,64bec9c6ba65089ae158e9d1,right,1,0.1786,0.35,3,0.0310562,0.3337,,,,,,149,0,149,0,1,,,,,
,,929512,001,2023-07-24_19h59.40.289,arm3_q,2022.2.5,Win32,60.04202942,6120d90a0d83120b87086355,64aeaab685a29f4ca249be02,64bec9c6ba65089ae158e9d1,right,1,0.1786,0.35,3,0.056658631,0.1675,,,,,,150,0,150,0,1,,,,,
,,929512,001,2023-07-24_19h59.40.289,arm3_q,2022.2.5,Win32,60.04202942,6120d90a0d83120b87086355,64aeaab685a29f4ca249be02,64bec9c6ba65089ae158e9d1,right,1,0.1786,0.35,3,0.062029376,0.2836,,,,,,151,0,151,0,1,,,,,
,,929512,001,2023-07-24_19h59.40.289,arm3_q,2022.2.5,Win32,60.04202942,6120d90a0d83120b87086355,64aeaab685a29f4ca249be02,64bec9c6ba65089ae158e9d1,right,1,0.1786,0.35,3,0.061109173,0.318,,,,,,152,0,152,0,1,,,,,
,,929512,001,2023-07-24_19h59.40.289,arm3_q,2022.2.5,Win32,60.04202942,6120d90a0d83120b87086355,64aeaab685a29f4ca249be02,64bec9c6ba65089ae158e9d1,up,-1,0.1786,0.35,3,0,0.9523,,,,,,153,0,153,0,1,,,,,
,,929512,001,2023-07-24_19h59.40.289,arm3_q,2022.2.5,Win32,60.04202942,6120d90a0d83120b87086355,64aeaab685a29f4ca249be02,64bec9c6ba65089ae158e9d1,right,-1,0.1786,0.35,3,0.008151995,0.585,,,,,,154,0,154,0,1,,,,,
,,929512,001,2023-07-24_19h59.40.289,arm3_q,2022.2.5,Win32,60.04202942,6120d90a0d83120b87086355,64aeaab685a29f4ca249be02,64bec9c6ba65089ae158e9d1,right,-1,0.1786,0.35,3,-0.019798458,0.1712,,,,,,155,0,155,0,1,,,,,
,,929512,001,2023-07-24_19h59.40.289,arm3_q,2022.2.5,Win32,60.04202942,6120d90a0d83120b87086355,64aeaab685a29f4ca249be02,64bec9c6ba65089ae158e9d1,right,-1,0.1786,0.35,3,-0.03182502,0.1672,,,,,,156,0,156,0,1,,,,,
,,929512,001,2023-07-24_19h59.40.289,arm3_q,2022.2.5,Win32,60.04202942,6120d90a0d83120b87086355,64aeaab685a29f4ca249be02,64bec9c6ba65089ae158e9d1,right,-1,0.1786,0.35,3,-0.023694017,0.1513,,,,,,157,0,157,0,1,,,,,
,,929512,001,2023-07-24_19h59.40.289,arm3_q,2022.2.5,Win32,60.04202942,6120d90a0d83120b87086355,64aeaab685a29f4ca249be02,64bec9c6ba65089ae158e9d1,right,-1,0.1786,0.35,3,-0.026197486,0.1669,,,,,,158,0,158,0,1,,,,,
,,929512,001,2023-07-24_19h59.40.289,arm3_q,2022.2.5,Win32,60.04202942,6120d90a0d83120b87086355,64aeaab685a29f4ca249be02,64bec9c6ba65089ae158e9d1,right,-1,0.1786,0.35,3,-0.024748597,0.3173,,,,,,159,0,159,0,1,,,,,
,,929512,001,2023-07-24_19h59.40.289,arm3_q,2022.2.5,Win32,60.04202942,6120d90a0d83120b87086355,64aeaab685a29f4ca249be02,64bec9c6ba65089ae158e9d1,right,-1,0.1786,0.35,3,-0.033959467,0.5672,,,,,,160,0,160,0,1,,,,,
,,929512,001,2023-07-24_19h59.40.289,arm3_q,2022.2.5,Win32,60.04202942,6120d90a0d83120b87086355,64aeaab685a29f4ca249be02,64bec9c6ba65089ae158e9d1,down,-1,0.1786,0.35,3,0,0.667,,,,,,161,0,161,0,1,,,,,
,,929512,001,2023-07-24_19h59.40.289,arm3_q,2022.2.5,Win32,60.04202942,6120d90a0d83120b87086355,64aeaab685a29f4ca249be02,64bec9c6ba65089ae158e9d1,right,-1,0.1786,0.35,3,-0.042202328,0.6162,,,,,,162,0,162,0,1,,,,,
,,929512,001,2023-07-24_19h59.40.289,arm3_q,2022.2.5,Win32,60.04202942,6120d90a0d83120b87086355,64aeaab685a29f4ca249be02,64bec9c6ba65089ae158e9d1,right,-1,0.1786,0.35,3,-0.037872608,0.1715,,,,,,163,0,163,0,1,,,,,
,,929512,001,2023-07-24_19h59.40.289,arm3_q,2022.2.5,Win32,60.04202942,6120d90a0d83120b87086355,64aeaab685a29f4ca249be02,64bec9c6ba65089ae158e9d1,right,-1,0.1786,0.35,3,-0.061986479,0.1678,,,,,,164,0,164,0,1,,,,,
,,929512,001,2023-07-24_19h59.40.289,arm3_q,2022.2.5,Win32,60.04202942,6120d90a0d83120b87086355,64aeaab685a29f4ca249be02,64bec9c6ba65089ae158e9d1,right,-1,0.1786,0.35,3,-0.09545886,0.1343,,,,,,165,0,165,0,1,,,,,
,,929512,001,2023-07-24_19h59.40.289,arm3_q,2022.2.5,Win32,60.04202942,6120d90a0d83120b87086355,64aeaab685a29f4ca249be02,64bec9c6ba65089ae158e9d1,right,-1,0.1786,0.35,3,-0.101903252,0.1515,,,,,,166,0,166,0,1,,,,,
,,929512,001,2023-07-24_19h59.40.289,arm3_q,2022.2.5,Win32,60.04202942,6120d90a0d83120b87086355,64aeaab685a29f4ca249be02,64bec9c6ba65089ae158e9d1,right,-1,0.1786,0.35,3,-0.112526327,0.1854,,,,,,167,0,167,0,1,,,,,
,,929512,001,2023-07-24_19h59.40.289,arm3_q,2022.2.5,Win32,60.04202942,6120d90a0d83120b87086355,64aeaab685a29f4ca249be02,64bec9c6ba65089ae158e9d1,right,-1,0.1786,0.35,3,-0.135575739,0.1174,,,,,,168,0,168,0,1,,,,,
,,929512,001,2023-07-24_19h59.40.289,arm3_q,2022.2.5,Win32,60.04202942,6120d90a0d83120b87086355,64aeaab685a29f4ca249be02,64bec9c6ba65089ae158e9d1,down,-1,0.1786,0.35,3,0,0.5008,,,,,,169,0,169,0,1,,,,,
,,929512,001,2023-07-24_19h59.40.289,arm3_q,2022.2.5,Win32,60.04202942,6120d90a0d83120b87086355,64aeaab685a29f4ca249be02,64bec9c6ba65089ae158e9d1,right,-1,0.1786,0.35,3,0.020929665,0.7408,,,,,,170,0,170,0,1,,,,,
,,929512,001,2023-07-24_19h59.40.289,arm3_q,2022.2.5,Win32,60.04202942,6120d90a0d83120b87086355,64aeaab685a29f4ca249be02,64bec9c6ba65089ae158e9d1,right,-1,0.1786,0.35,3,0.040129094,0.1838,,,,,,171,0,171,0,1,,,,,
,,929512,001,2023-07-24_19h59.40.289,arm3_q,2022.2.5,Win32,60.04202942,6120d90a0d83120b87086355,64aeaab685a29f4ca249be02,64bec9c6ba65089ae158e9d1,right,-1,0.1786,0.35,3,0.007328507,0.1836,,,,,,172,0,172,0,1,,,,,
,,929512,001,2023-07-24_19h59.40.289,arm3_q,2022.2.5,Win32,60.04202942,6120d90a0d83120b87086355,64aeaab685a29f4ca249be02,64bec9c6ba65089ae158e9d1,right,-1,0.1786,0.35,3,0.009305369,0.1666,,,,,,173,0,173,0,1,,,,,
,,929512,001,2023-07-24_19h59.40.289,arm3_q,2022.2.5,Win32,60.04202942,6120d90a0d83120b87086355,64aeaab685a29f4ca249be02,64bec9c6ba65089ae158e9d1,right,-1,0.1786,0.35,3,-0.011968367,0.184,,,,,,174,0,174,0,1,,,,,
,,929512,001,2023-07-24_19h59.40.289,arm3_q,2022.2.5,Win32,60.04202942,6120d90a0d83120b87086355,64aeaab685a29f4ca249be02,64bec9c6ba65089ae158e9d1,right,-1,0.1786,0.35,3,-0.046476741,0.3221,,,,,,175,0,175,0,1,,,,,
,,929512,001,2023-07-24_19h59.40.289,arm3_q,2022.2.5,Win32,60.04202942,6120d90a0d83120b87086355,64aeaab685a29f4ca249be02,64bec9c6ba65089ae158e9d1,down,1,0.1786,0.35,3,0,0.6035,,,,,,176,0,176,0,1,,,,,
,,929512,001,2023-07-24_19h59.40.289,arm3_q,2022.2.5,Win32,60.04202942,6120d90a0d83120b87086355,64aeaab685a29f4ca249be02,64bec9c6ba65089ae158e9d1,right,1,0.1786,0.35,3,-0.009336204,0.5472,,,,,,177,0,177,0,1,,,,,
,,929512,001,2023-07-24_19h59.40.289,arm3_q,2022.2.5,Win32,60.04202942,6120d90a0d83120b87086355,64aeaab685a29f4ca249be02,64bec9c6ba65089ae158e9d1,right,1,0.1786,0.35,3,-0.022026523,0.1699,,,,,,178,0,178,0,1,,,,,
,,929512,001,2023-07-24_19h59.40.289,arm3_q,2022.2.5,Win32,60.04202942,6120d90a0d83120b87086355,64aeaab685a29f4ca249be02,64bec9c6ba65089ae158e9d1,right,1,0.1786,0.35,3,-0.014100227,0.1525,,,,,,179,0,179,0,1,,,,,
,,929512,001,2023-07-24_19h59.40.289,arm3_q,2022.2.5,Win32,60.04202942,6120d90a0d83120b87086355,64aeaab685a29f4ca249be02,64bec9c6ba65089ae158e9d1,right,1,0.1786,0.35,3,0.007468738,0.1669,,,,,,180,0,180,0,1,,,,,
,,929512,001,2023-07-24_19h59.40.289,arm3_q,2022.2.5,Win32,60.04202942,6120d90a0d83120b87086355,64aeaab685a29f4ca249be02,64bec9c6ba65089ae158e9d1,right,1,0.1786,0.35,3,0.010544535,0.1503,,,,,,181,0,181,0,1,,,,,
,,929512,001,2023-07-24_19h59.40.289,arm3_q,2022.2.5,Win32,60.04202942,6120d90a0d83120b87086355,64aeaab685a29f4ca249be02,64bec9c6ba65089ae158e9d1,right,1,0.1786,0.35,3,0.002254282,0.1172,,,,,,182,0,182,0,1,,,,,
,,929512,001,2023-07-24_19h59.40.289,arm3_q,2022.2.5,Win32,60.04202942,6120d90a0d83120b87086355,64aeaab685a29f4ca249be02,64bec9c6ba65089ae158e9d1,right,1,0.1786,0.35,3,-0.000210244,0.3397,,,,,,183,0,183,0,1,,,,,
,,929512,001,2023-07-24_19h59.40.289,arm3_q,2022.2.5,Win32,60.04202942,6120d90a0d83120b87086355,64aeaab685a29f4ca249be02,64bec9c6ba65089ae158e9d1,up,-1,0.1786,0.35,3,0,0.4669,,,,,,184,0,184,0,1,,,,,
,,929512,001,2023-07-24_19h59.40.289,arm3_q,2022.2.5,Win32,60.04202942,6120d90a0d83120b87086355,64aeaab685a29f4ca249be02,64bec9c6ba65089ae158e9d1,right,-1,0.1786,0.35,3,-0.014918522,0.5162,,,,,,185,0,185,0,1,,,,,
,,929512,001,2023-07-24_19h59.40.289,arm3_q,2022.2.5,Win32,60.04202942,6120d90a0d83120b87086355,64aeaab685a29f4ca249be02,64bec9c6ba65089ae158e9d1,right,-1,0.1786,0.35,3,-0.010900861,0.201,,,,,,186,0,186,0,1,,,,,
,,929512,001,2023-07-24_19h59.40.289,arm3_q,2022.2.5,Win32,60.04202942,6120d90a0d83120b87086355,64aeaab685a29f4ca249be02,64bec9c6ba65089ae158e9d1,right,-1,0.1786,0.35,3,-0.010400987,0.1669,,,,,,187,0,187,0,1,,,,,
,,929512,001,2023-07-24_19h59.40.289,arm3_q,2022.2.5,Win32,60.04202942,6120d90a0d83120b87086355,64aeaab685a29f4ca249be02,64bec9c6ba65089ae158e9d1,right,-1,0.1786,0.35,3,0.014571931,0.1602,,,,,,188,0,188,0,1,,,,,
,,929512,001,2023-07-24_19h59.40.289,arm3_q,2022.2.5,Win32,60.04202942,6120d90a0d83120b87086355,64aeaab685a29f4ca249be02,64bec9c6ba65089ae158e9d1,right,-1,0.1786,0.35,3,-0.008128902,0.1665,,,,,,189,0,189,0,1,,,,,
,,929512,001,2023-07-24_19h59.40.289,arm3_q,2022.2.5,Win32,60.04202942,6120d90a0d83120b87086355,64aeaab685a29f4ca249be02,64bec9c6ba65089ae158e9d1,right,-1,0.1786,0.35,3,-0.030298178,0.2172,,,,,,190,0,190,0,1,,,,,
,,929512,001,2023-07-24_19h59.40.289,arm3_q,2022.2.5,Win32,60.04202942,6120d90a0d83120b87086355,64aeaab685a29f4ca249be02,64bec9c6ba65089ae158e9d1,right,-1,0.1786,0.35,3,-0.031984708,0.1328,,,,,,191,0,191,0,1,,,,,
,,929512,001,2023-07-24_19h59.40.289,arm3_q,2022.2.5,Win32,60.04202942,6120d90a0d83120b87086355,64aeaab685a29f4ca249be02,64bec9c6ba65089ae158e9d1,right,-1,0.1786,0.35,3,-0.046155139,0.167,,,,,,192,0,192,0,1,,,,,
,,929512,001,2023-07-24_19h59.40.289,arm3_q,2022.2.5,Win32,60.04202942,6120d90a0d83120b87086355,64aeaab685a29f4ca249be02,64bec9c6ba65089ae158e9d1,down,-1,0.1786,0.35,4,0,0.4167,,,,,,193,0,193,0,1,,,,,
,,929512,001,2023-07-24_19h59.40.289,arm3_q,2022.2.5,Win32,60.04202942,6120d90a0d83120b87086355,64aeaab685a29f4ca249be02,64bec9c6ba65089ae158e9d1,right,-1,0.1786,0.35,4,-0.008095835,0.874,,,,,,194,0,194,0,1,,,,,
,,929512,001,2023-07-24_19h59.40.289,arm3_q,2022.2.5,Win32,60.04202942,6120d90a0d83120b87086355,64aeaab685a29f4ca249be02,64bec9c6ba65089ae158e9d1,right,-1,0.1786,0.35,4,-0.016626611,0.1598,,,,,,195,0,195,0,1,,,,,
,,929512,001,2023-07-24_19h59.40.289,arm3_q,2022.2.5,Win32,60.04202942,6120d90a0d83120b87086355,64aeaab685a29f4ca249be02,64bec9c6ba65089ae158e9d1,right,-1,0.1786,0.35,4,-0.034137262,0.1715,,,,,,196,0,196,0,1,,,,,
,,929512,001,2023-07-24_19h59.40.289,arm3_q,2022.2.5,Win32,60.04202942,6120d90a0d83120b87086355,64aeaab685a29f4ca249be02,64bec9c6ba65089ae158e9d1,right,-1,0.1786,0.35,4,-0.06407815,0.1396,,,,,,197,0,197,0,1,,,,,
,,929512,001,2023-07-24_19h59.40.289,arm3_q,2022.2.5,Win32,60.04202942,6120d90a0d83120b87086355,64aeaab685a29f4ca249be02,64bec9c6ba65089ae158e9d1,right,-1,0.1786,0.35,4,-0.066586667,0.167,,,,,,198,0,198,0,1,,,,,
,,929512,001,2023-07-24_19h59.40.289,arm3_q,2022.2.5,Win32,60.04202942,6120d90a0d83120b87086355,64aeaab685a29f4ca249be02,64bec9c6ba65089ae158e9d1,right,-1,0.1786,0.35,4,-0.058229092,0.6002,,,,,,199,0,199,0,1,,,,,
,,929512,001,2023-07-24_19h59.40.289,arm3_q,2022.2.5,Win32,60.04202942,6120d90a0d83120b87086355,64aeaab685a29f4ca249be02,64bec9c6ba65089ae158e9d1,down,-1,0.1786,0.35,5,0,0.2851,,,,,,200,0,200,0,1,,,,,
,,929512,001,2023-07-24_19h59.40.289,arm3_q,2022.2.5,Win32,60.04202942,6120d90a0d83120b87086355,64aeaab685a29f4ca249be02,64bec9c6ba65089ae158e9d1,right,-1,0.1786,0.35,5,0.019780608,0.7172,,,,,,201,0,201,0,1,,,,,
,,929512,001,2023-07-24_19h59.40.289,arm3_q,2022.2.5,Win32,60.04202942,6120d90a0d83120b87086355,64aeaab685a29f4ca249be02,64bec9c6ba65089ae158e9d1,right,-1,0.1786,0.35,5,-0.01520771,0.1853,,,,,,202,0,202,0,1,,,,,
,,929512,001,2023-07-24_19h59.40.289,arm3_q,2022.2.5,Win32,60.04202942,6120d90a0d83120b87086355,64aeaab685a29f4ca249be02,64bec9c6ba65089ae158e9d1,right,-1,0.1786,0.35,5,-0.064206252,0.1669,,,,,,203,0,203,0,1,,,,,
,,929512,001,2023-07-24_19h59.40.289,arm3_q,2022.2.5,Win32,60.04202942,6120d90a0d83120b87086355,64aeaab685a29f4ca249be02,64bec9c6ba65089ae158e9d1,right,-1,0.1786,0.35,5,-0.089219295,0.1492,,,,,,204,0,204,0,1,,,,,
,,929512,001,2023-07-24_19h59.40.289,arm3_q,2022.2.5,Win32,60.04202942,6120d90a0d83120b87086355,64aeaab685a29f4ca249be02,64bec9c6ba65089ae158e9d1,right,-1,0.1786,0.35,5,-0.095985403,0.1668,,,,,,205,0,205,0,1,,,,,
,,929512,001,2023-07-24_19h59.40.289,arm3_q,2022.2.5,Win32,60.04202942,6120d90a0d83120b87086355,64aeaab685a29f4ca249be02,64bec9c6ba65089ae158e9d1,right,-1,0.1786,0.35,5,-0.090632205,0.1003,,,,,,206,0,206,0,1,,,,,
,,929512,001,2023-07-24_19h59.40.289,arm3_q,2022.2.5,Win32,60.04202942,6120d90a0d83120b87086355,64aeaab685a29f4ca249be02,64bec9c6ba65089ae158e9d1,down,-1,0.1786,0.35,5,0,1.1334,,,,,,207,0,207,0,1,,,,,
,,929512,001,2023-07-24_19h59.40.289,arm3_q,2022.2.5,Win32,60.04202942,6120d90a0d83120b87086355,64aeaab685a29f4ca249be02,64bec9c6ba65089ae158e9d1,right,-1,0.1786,0.35,5,-0.009179739,0.5716,,,,,,208,0,208,0,1,,,,,
,,929512,001,2023-07-24_19h59.40.289,arm3_q,2022.2.5,Win32,60.04202942,6120d90a0d83120b87086355,64aeaab685a29f4ca249be02,64bec9c6ba65089ae158e9d1,right,-1,0.1786,0.35,5,-0.063591756,0.167,,,,,,209,0,209,0,1,,,,,
,,929512,001,2023-07-24_19h59.40.289,arm3_q,2022.2.5,Win32,60.04202942,6120d90a0d83120b87086355,64aeaab685a29f4ca249be02,64bec9c6ba65089ae158e9d1,right,-1,0.1786,0.35,5,-0.062761293,0.1668,,,,,,210,0,210,0,1,,,,,
,,929512,001,2023-07-24_19h59.40.289,arm3_q,2022.2.5,Win32,60.04202942,6120d90a0d83120b87086355,64aeaab685a29f4ca249be02,64bec9c6ba65089ae158e9d1,right,-1,0.1786,0.35,5,-0.095076163,0.1334,,,,,,211,0,211,0,1,,,,,
,,929512,001,2023-07-24_19h59.40.289,arm3_q,2022.2.5,Win32,60.04202942,6120d90a0d83120b87086355,64aeaab685a29f4ca249be02,64bec9c6ba65089ae158e9d1,right,-1,0.1786,0.35,5,-0.103561753,0.2164,,,,,,212,0,212,0,1,,,,,
,,929512,001,2023-07-24_19h59.40.289,arm3_q,2022.2.5,Win32,60.04202942,6120d90a0d83120b87086355,64aeaab685a29f4ca249be02,64bec9c6ba65089ae158e9d1,right,-1,0.1786,0.35,5,-0.125876722,0.2139,,,,,,213,0,213,0,1,,,,,
,,929512,001,2023-07-24_19h59.40.289,arm3_q,2022.2.5,Win32,60.04202942,6120d90a0d83120b87086355,64aeaab685a29f4ca249be02,64bec9c6ba65089ae158e9d1,down,-1,0.1786,0.35,6,0,1.6,,,,,,214,0,214,0,1,,,,,
,,929512,001,2023-07-24_19h59.40.289,arm3_q,2022.2.5,Win32,60.04202942,6120d90a0d83120b87086355,64aeaab685a29f4ca249be02,64bec9c6ba65089ae158e9d1,right,-1,0.1786,0.35,6,-0.026801951,0.6188,,,,,,215,0,215,0,1,,,,,
,,929512,001,2023-07-24_19h59.40.289,arm3_q,2022.2.5,Win32,60.04202942,6120d90a0d83120b87086355,64aeaab685a29f4ca249be02,64bec9c6ba65089ae158e9d1,right,-1,0.1786,0.35,6,-0.009095637,0.1852,,,,,,216,0,216,0,1,,,,,
,,929512,001,2023-07-24_19h59.40.289,arm3_q,2022.2.5,Win32,60.04202942,6120d90a0d83120b87086355,64aeaab685a29f4ca249be02,64bec9c6ba65089ae158e9d1,right,-1,0.1786,0.35,6,0.008166851,0.1608,,,,,,217,0,217,0,1,,,,,
,,929512,001,2023-07-24_19h59.40.289,arm3_q,2022.2.5,Win32,60.04202942,6120d90a0d83120b87086355,64aeaab685a29f4ca249be02,64bec9c6ba65089ae158e9d1,right,-1,0.1786,0.35,6,-0.004080569,0.1635,,,,,,218,0,218,0,1,,,,,
,,929512,001,2023-07-24_19h59.40.289,arm3_q,2022.2.5,Win32,60.04202942,6120d90a0d83120b87086355,64aeaab685a29f4ca249be02,64bec9c6ba65089ae158e9d1,right,-1,0.1786,0.35,6,-0.005344923,0.3361,,,,,,219,0,219,0,1,,,,,
,,929512,001,2023-07-24_19h59.40.289,arm3_q,2022.2.5,Win32,60.04202942,6120d90a0d83120b87086355,64aeaab685a29f4ca249be02,64bec9c6ba65089ae158e9d1,right,-1,0.1786,0.35,6,-0.014320972,0.4567,,,,,,220,0,220,0,1,,,,,
,,929512,001,2023-07-24_19h59.40.289,arm3_q,2022.2.5,Win32,60.04202942,6120d90a0d83120b87086355,64aeaab685a29f4ca249be02,64bec9c6ba65089ae158e9d1,down,-1,0.1786,0.35,6,0,0.8,,,,,,221,0,221,0,1,,,,,
,,929512,001,2023-07-24_19h59.40.289,arm3_q,2022.2.5,Win32,60.04202942,6120d90a0d83120b87086355,64aeaab685a29f4ca249be02,64bec9c6ba65089ae158e9d1,right,-1,0.1786,0.35,6,-0.017925106,0.5337,,,,,,222,0,222,0,1,,,,,
,,929512,001,2023-07-24_19h59.40.289,arm3_q,2022.2.5,Win32,60.04202942,6120d90a0d83120b87086355,64aeaab685a29f4ca249be02,64bec9c6ba65089ae158e9d1,right,-1,0.1786,0.35,6,-0.020159643,0.1705,,,,,,223,0,223,0,1,,,,,
,,929512,001,2023-07-24_19h59.40.289,arm3_q,2022.2.5,Win32,60.04202942,6120d90a0d83120b87086355,64aeaab685a29f4ca249be02,64bec9c6ba65089ae158e9d1,right,-1,0.1786,0.35,6,-0.045639159,0.1712,,,,,,224,0,224,0,1,,,,,
,,929512,001,2023-07-24_19h59.40.289,arm3_q,2022.2.5,Win32,60.04202942,6120d90a0d83120b87086355,64aeaab685a29f4ca249be02,64bec9c6ba65089ae158e9d1,right,-1,0.1786,0.35,6,-0.066370803,0.1166,,,,,,225,0,225,0,1,,,,,
,,929512,001,2023-07-24_19h59.40.289,arm3_q,2022.2.5,Win32,60.04202942,6120d90a0d83120b87086355,64aeaab685a29f4ca249be02,64bec9c6ba65089ae158e9d1,right,-1,0.1786,0.35,6,-0.066503967,0.5319,,,,,,226,0,226,0,1,,,,,
,,929512,001,2023-07-24_19h59.40.289,arm3_q,2022.2.5,Win32,60.04202942,6120d90a0d83120b87086355,64aeaab685a29f4ca249be02,64bec9c6ba65089ae158e9d1,down,1,0.1786,0.35,6,0,0.6824,,,,,,227,0,227,0,1,,,,,
,,929512,001,2023-07-24_19h59.40.289,arm3_q,2022.2.5,Win32,60.04202942,6120d90a0d83120b87086355,64aeaab685a29f4ca249be02,64bec9c6ba65089ae158e9d1,right,1,0.1786,0.35,6,0.020462384,0.6017,,,,,,228,0,228,0,1,,,,,
,,929512,001,2023-07-24_19h59.40.289,arm3_q,2022.2.5,Win32,60.04202942,6120d90a0d83120b87086355,64aeaab685a29f4ca249be02,64bec9c6ba65089ae158e9d1,right,1,0.1786,0.35,6,0.050897165,0.2003,,,,,,229,0,229,0,1,,,,,
,,929512,001,2023-07-24_19h59.40.289,arm3_q,2022.2.5,Win32,60.04202942,6120d90a0d83120b87086355,64aeaab685a29f4ca249be02,64bec9c6ba65089ae158e9d1,right,1,0.1786,0.35,6,0.054640343,0.1848,,,,,,230,0,230,0,1,,,,,
,,929512,001,2023-07-24_19h59.40.289,arm3_q,2022.2.5,Win32,60.04202942,6120d90a0d83120b87086355,64aeaab685a29f4ca249be02,64bec9c6ba65089ae158e9d1,right,1,0.1786,0.35,6,0.07221151,0.1491,,,,,,231,0,231,0,1,,,,,
,,929512,001,2023-07-24_19h59.40.289,arm3_q,2022.2.5,Win32,60.04202942,6120d90a0d83120b87086355,64aeaab685a29f4ca249be02,64bec9c6ba65089ae158e9d1,up,1,0.1786,0.35,6,0,0.4501,,,,,,232,0,232,0,1,,,,,
,,929512,001,2023-07-24_19h59.40.289,arm3_q,2022.2.5,Win32,60.04202942,6120d90a0d83120b87086355,64aeaab685a29f4ca249be02,64bec9c6ba65089ae158e9d1,right,1,0.1786,0.35,6,0.0382372,0.549,,,,,,233,0,233,0,1,,,,,
,,929512,001,2023-07-24_19h59.40.289,arm3_q,2022.2.5,Win32,60.04202942,6120d90a0d83120b87086355,64aeaab685a29f4ca249be02,64bec9c6ba65089ae158e9d1,right,1,0.1786,0.35,6,0.019807167,0.1998,,,,,,234,0,234,0,1,,,,,
,,929512,001,2023-07-24_19h59.40.289,arm3_q,2022.2.5,Win32,60.04202942,6120d90a0d83120b87086355,64aeaab685a29f4ca249be02,64bec9c6ba65089ae158e9d1,right,1,0.1786,0.35,6,0.031946163,0.1836,,,,,,235,0,235,0,1,,,,,
,,929512,001,2023-07-24_19h59.40.289,arm3_q,2022.2.5,Win32,60.04202942,6120d90a0d83120b87086355,64aeaab685a29f4ca249be02,64bec9c6ba65089ae158e9d1,right,1,0.1786,0.35,6,0.024449303,0.3221,,,,,,236,0,236,0,1,,,,,
,,929512,001,2023-07-24_19h59.40.289,arm3_q,2022.2.5,Win32,60.04202942,6120d90a0d83120b87086355,64aeaab685a29f4ca249be02,64bec9c6ba65089ae158e9d1,right,1,0.1786,0.35,6,0.01747182,0.3156,,,,,,237,0,237,0,1,,,,,
,,929512,001,2023-07-24_19h59.40.289,arm3_q,2022.2.5,Win32,60.04202942,6120d90a0d83120b87086355,64aeaab685a29f4ca249be02,64bec9c6ba65089ae158e9d1,up,1,0.1786,0.35,6,0,0.855,,,,,,238,0,238,0,1,,,,,
,,929512,001,2023-07-24_19h59.40.289,arm3_q,2022.2.5,Win32,60.04202942,6120d90a0d83120b87086355,64aeaab685a29f4ca249be02,64bec9c6ba65089ae158e9d1,right,1,0.1786,0.35,6,0.007858522,0.5668,,,,,,239,0,239,0,1,,,,,
,,929512,001,2023-07-24_19h59.40.289,arm3_q,2022.2.5,Win32,60.04202942,6120d90a0d83120b87086355,64aeaab685a29f4ca249be02,64bec9c6ba65089ae158e9d1,right,1,0.1786,0.35,6,0.04448006,0.1431,,,,,,240,0,240,0,1,,,,,
,,929512,001,2023-07-24_19h59.40.289,arm3_q,2022.2.5,Win32,60.04202942,6120d90a0d83120b87086355,64aeaab685a29f4ca249be02,64bec9c6ba65089ae158e9d1,right,1,0.1786,0.35,6,0.050278472,0.1831,,,,,,241,0,241,0,1,,,,,
,,929512,001,2023-07-24_19h59.40.289,arm3_q,2022.2.5,Win32,60.04202942,6120d90a0d83120b87086355,64aeaab685a29f4ca249be02,64bec9c6ba65089ae158e9d1,right,1,0.1786,0.35,6,0.051788063,0.1493,,,,,,242,0,242,0,1,,,,,
,,929512,001,2023-07-24_19h59.40.289,arm3_q,2022.2.5,Win32,60.04202942,6120d90a0d83120b87086355,64aeaab685a29f4ca249be02,64bec9c6ba65089ae158e9d1,up,1,0.1786,0.35,6,0,0.7816,,,,,,243,0,243,0,1,,,,,
,,929512,001,2023-07-24_19h59.40.289,arm3_q,2022.2.5,Win32,60.04202942,6120d90a0d83120b87086355,64aeaab685a29f4ca249be02,64bec9c6ba65089ae158e9d1,right,1,0.1786,0.35,6,-0.009922038,0.5154,,,,,,244,0,244,0,1,,,,,
,,929512,001,2023-07-24_19h59.40.289,arm3_q,2022.2.5,Win32,60.04202942,6120d90a0d83120b87086355,64aeaab685a29f4ca249be02,64bec9c6ba65089ae158e9d1,right,1,0.1786,0.35,6,-0.020792889,0.2173,,,,,,245,0,245,0,1,,,,,
,,929512,001,2023-07-24_19h59.40.289,arm3_q,2022.2.5,Win32,60.04202942,6120d90a0d83120b87086355,64aeaab685a29f4ca249be02,64bec9c6ba65089ae158e9d1,right,1,0.1786,0.35,6,0.004334581,0.1657,,,,,,246,0,246,0,1,,,,,
,,929512,001,2023-07-24_19h59.40.289,arm3_q,2022.2.5,Win32,60.04202942,6120d90a0d83120b87086355,64aeaab685a29f4ca249be02,64bec9c6ba65089ae158e9d1,right,1,0.1786,0.35,6,0.014414057,0.1734,,,,,,247,0,247,0,1,,,,,
,,929512,001,2023-07-24_19h59.40.289,arm3_q,2022.2.5,Win32,60.04202942,6120d90a0d83120b87086355,64aeaab685a29f4ca249be02,64bec9c6ba65089ae158e9d1,right,1,0.1786,0.35,6,0.032610817,0.6999,,,,,,248,0,248,0,1,,,,,
,,929512,001,2023-07-24_19h59.40.289,arm3_q,2022.2.5,Win32,60.04202942,6120d90a0d83120b87086355,64aeaab685a29f4ca249be02,64bec9c6ba65089ae158e9d1,right,1,0.1786,0.35,6,0.057185336,0.3501,,,,,,249,0,249,0,1,,,,,
,,929512,001,2023-07-24_19h59.40.289,arm3_q,2022.2.5,Win32,60.04202942,6120d90a0d83120b87086355,64aeaab685a29f4ca249be02,64bec9c6ba65089ae158e9d1,up,-1,0.1786,0.35,6,0,0.2669,,,,,,250,0,250,0,1,,,,,
,,929512,001,2023-07-24_19h59.40.289,arm3_q,2022.2.5,Win32,60.04202942,6120d90a0d83120b87086355,64aeaab685a29f4ca249be02,64bec9c6ba65089ae158e9d1,right,-1,0.1786,0.35,6,0.017294712,0.5504,,,,,,251,0,251,0,1,,,,,
,,929512,001,2023-07-24_19h59.40.289,arm3_q,2022.2.5,Win32,60.04202942,6120d90a0d83120b87086355,64aeaab685a29f4ca249be02,64bec9c6ba65089ae158e9d1,right,-1,0.1786,0.35,6,-0.001092647,0.1662,,,,,,252,0,252,0,1,,,,,
,,929512,001,2023-07-24_19h59.40.289,arm3_q,2022.2.5,Win32,60.04202942,6120d90a0d83120b87086355,64aeaab685a29f4ca249be02,64bec9c6ba65089ae158e9d1,right,-1,0.1786,0.35,6,0.012379783,0.2006,,,,,,253,0,253,0,1,,,,,
,,929512,001,2023-07-24_19h59.40.289,arm3_q,2022.2.5,Win32,60.04202942,6120d90a0d83120b87086355,64aeaab685a29f4ca249be02,64bec9c6ba65089ae158e9d1,right,-1,0.1786,0.35,6,0.013200477,0.1644,,,,,,254,0,254,0,1,,,,,
,,929512,001,2023-07-24_19h59.40.289,arm3_q,2022.2.5,Win32,60.04202942,6120d90a0d83120b87086355,64aeaab685a29f4ca249be02,64bec9c6ba65089ae158e9d1,right,-1,0.1786,0.35,6,0.025840656,0.1514,,,,,,255,0,255,0,1,,,,,
,,929512,001,2023-07-24_19h59.40.289,arm3_q,2022.2.5,Win32,60.04202942,6120d90a0d83120b87086355,64aeaab685a29f4ca249be02,64bec9c6ba65089ae158e9d1,right,-1,0.1786,0.35,6,0.008132557,0.1813,,,,,,256,0,256,0,1,,,,,
,,929512,001,2023-07-24_19h59.40.289,arm3_q,2022.2.5,Win32,60.04202942,6120d90a0d83120b87086355,64aeaab685a29f4ca249be02,64bec9c6ba65089ae158e9d1,right,-1,0.1786,0.35,6,0.009750209,0.3811,,,,,,257,0,257,0,1,,,,,
,,929512,001,2023-07-24_19h59.40.289,arm3_q,2022.2.5,Win32,60.04202942,6120d90a0d83120b87086355,64aeaab685a29f4ca249be02,64bec9c6ba65089ae158e9d1,down,-1,0.1786,0.35,6,0,0.5171,,,,,,258,0,258,0,1,,,,,
,,929512,001,2023-07-24_19h59.40.289,arm3_q,2022.2.5,Win32,60.04202942,6120d90a0d83120b87086355,64aeaab685a29f4ca249be02,64bec9c6ba65089ae158e9d1,right,-1,0.1786,0.35,6,-0.015282463,0.55,,,,,,259,0,259,0,1,,,,,
,,929512,001,2023-07-24_19h59.40.289,arm3_q,2022.2.5,Win32,60.04202942,6120d90a0d83120b87086355,64aeaab685a29f4ca249be02,64bec9c6ba65089ae158e9d1,right,-1,0.1786,0.35,6,-0.017543699,0.2183,,,,,,260,0,260,0,1,,,,,
,,929512,001,2023-07-24_19h59.40.289,arm3_q,2022.2.5,Win32,60.04202942,6120d90a0d83120b87086355,64aeaab685a29f4ca249be02,64bec9c6ba65089ae158e9d1,right,-1,0.1786,0.35,6,-0.029918222,0.1171,,,,,,261,0,261,0,1,,,,,
,,929512,001,2023-07-24_19h59.40.289,arm3_q,2022.2.5,Win32,60.04202942,6120d90a0d83120b87086355,64aeaab685a29f4ca249be02,64bec9c6ba65089ae158e9d1,right,-1,0.1786,0.35,6,-0.030812495,0.173,,,,,,262,0,262,0,1,,,,,
,,929512,001,2023-07-24_19h59.40.289,arm3_q,2022.2.5,Win32,60.04202942,6120d90a0d83120b87086355,64aeaab685a29f4ca249be02,64bec9c6ba65089ae158e9d1,right,-1,0.1786,0.35,6,-0.023046618,0.147,,,,,,263,0,263,0,1,,,,,
,,929512,001,2023-07-24_19h59.40.289,arm3_q,2022.2.5,Win32,60.04202942,6120d90a0d83120b87086355,64aeaab685a29f4ca249be02,64bec9c6ba65089ae158e9d1,right,-1,0.1786,0.35,6,-0.031105998,0.3835,,,,,,264,0,264,0,1,,,,,
,,929512,001,2023-07-24_19h59.40.289,arm3_q,2022.2.5,Win32,60.04202942,6120d90a0d83120b87086355,64aeaab685a29f4ca249be02,64bec9c6ba65089ae158e9d1,down,-1,0.1786,0.35,6,0,0.3908,,,,,,265,0,265,0,1,,,,,
,,929512,001,2023-07-24_19h59.40.289,arm3_q,2022.2.5,Win32,60.04202942,6120d90a0d83120b87086355,64aeaab685a29f4ca249be02,64bec9c6ba65089ae158e9d1,right,-1,0.1786,0.35,6,-0.02797342,0.5424,,,,,,266,0,266,0,1,,,,,
,,929512,001,2023-07-24_19h59.40.289,arm3_q,2022.2.5,Win32,60.04202942,6120d90a0d83120b87086355,64aeaab685a29f4ca249be02,64bec9c6ba65089ae158e9d1,right,-1,0.1786,0.35,6,-0.068245642,0.2172,,,,,,267,0,267,0,1,,,,,
,,929512,001,2023-07-24_19h59.40.289,arm3_q,2022.2.5,Win32,60.04202942,6120d90a0d83120b87086355,64aeaab685a29f4ca249be02,64bec9c6ba65089ae158e9d1,right,-1,0.1786,0.35,6,-0.098906605,0.2136,,,,,,268,0,268,0,1,,,,,
,,929512,001,2023-07-24_19h59.40.289,arm3_q,2022.2.5,Win32,60.04202942,6120d90a0d83120b87086355,64aeaab685a29f4ca249be02,64bec9c6ba65089ae158e9d1,right,-1,0.1786,0.35,6,-0.129797426,0.1676,,,,,,269,0,269,0,1,,,,,
,,929512,001,2023-07-24_19h59.40.289,arm3_q,2022.2.5,Win32,60.04202942,6120d90a0d83120b87086355,64aeaab685a29f4ca249be02,64bec9c6ba65089ae158e9d1,right,-1,0.1786,0.35,6,-0.155795445,0.1519,,,,,,270,0,270,0,1,,,,,
,,929512,001,2023-07-24_19h59.40.289,arm3_q,2022.2.5,Win32,60.04202942,6120d90a0d83120b87086355,64aeaab685a29f4ca249be02,64bec9c6ba65089ae158e9d1,down,-1,0.1786,0.35,6,0,0.3903,,,,,,271,0,271,0,1,,,,,
,,929512,001,2023-07-24_19h59.40.289,arm3_q,2022.2.5,Win32,60.04202942,6120d90a0d83120b87086355,64aeaab685a29f4ca249be02,64bec9c6ba65089ae158e9d1,right,-1,0.1786,0.35,6,-0.022297422,0.5154,,,,,,272,0,272,0,1,,,,,
,,929512,001,2023-07-24_19h59.40.289,arm3_q,2022.2.5,Win32,60.04202942,6120d90a0d83120b87086355,64aeaab685a29f4ca249be02,64bec9c6ba65089ae158e9d1,right,-1,0.1786,0.35,6,-0.054359994,0.2003,,,,,,273,0,273,0,1,,,,,
,,929512,001,2023-07-24_19h59.40.289,arm3_q,2022.2.5,Win32,60.04202942,6120d90a0d83120b87086355,64aeaab685a29f4ca249be02,64bec9c6ba65089ae158e9d1,right,-1,0.1786,0.35,6,-0.103682987,0.3339,,,,,,274,0,274,0,1,,,,,
,,929512,001,2023-07-24_19h59.40.289,arm3_q,2022.2.5,Win32,60.04202942,6120d90a0d83120b87086355,64aeaab685a29f4ca249be02,64bec9c6ba65089ae158e9d1,right,-1,0.1786,0.35,6,-0.084182133,0.2093,,,,,,275,0,275,0,1,,,,,
,,929512,001,2023-07-24_19h59.40.289,arm3_q,2022.2.5,Win32,60.04202942,6120d90a0d83120b87086355,64aeaab685a29f4ca249be02,64bec9c6ba65089ae158e9d1,right,-1,0.1786,0.35,6,-0.131622095,0.2343,,,,,,276,0,276,0,1,,,,,
,,929512,001,2023-07-24_19h59.40.289,arm3_q,2022.2.5,Win32,60.04202942,6120d90a0d83120b87086355,64aeaab685a29f4ca249be02,64bec9c6ba65089ae158e9d1,down,1,0.1786,0.35,6,0,0.517,,,,,,277,0,277,0,1,,,,,
,,929512,001,2023-07-24_19h59.40.289,arm3_q,2022.2.5,Win32,60.04202942,6120d90a0d83120b87086355,64aeaab685a29f4ca249be02,64bec9c6ba65089ae158e9d1,right,1,0.1786,0.35,6,0.017232371,0.4843,,,,,,278,0,278,0,1,,,,,
,,929512,001,2023-07-24_19h59.40.289,arm3_q,2022.2.5,Win32,60.04202942,6120d90a0d83120b87086355,64aeaab685a29f4ca249be02,64bec9c6ba65089ae158e9d1,right,1,0.1786,0.35,6,0.051132592,0.1859,,,,,,279,0,279,0,1,,,,,
,,929512,001,2023-07-24_19h59.40.289,arm3_q,2022.2.5,Win32,60.04202942,6120d90a0d83120b87086355,64aeaab685a29f4ca249be02,64bec9c6ba65089ae158e9d1,right,1,0.1786,0.35,6,0.046807668,0.1847,,,,,,280,0,280,0,1,,,,,
,,929512,001,2023-07-24_19h59.40.289,arm3_q,2022.2.5,Win32,60.04202942,6120d90a0d83120b87086355,64aeaab685a29f4ca249be02,64bec9c6ba65089ae158e9d1,right,1,0.1786,0.35,6,0.06243537,0.167,,,,,,281,0,281,0,1,,,,,
,,929512,001,2023-07-24_19h59.40.289,arm3_q,2022.2.5,Win32,60.04202942,6120d90a0d83120b87086355,64aeaab685a29f4ca249be02,64bec9c6ba65089ae158e9d1,right,1,0.1786,0.35,6,0.077626315,0.3675,,,,,,282,0,282,0,1,,,,,
,,929512,001,2023-07-24_19h59.40.289,arm3_q,2022.2.5,Win32,60.04202942,6120d90a0d83120b87086355,64aeaab685a29f4ca249be02,64bec9c6ba65089ae158e9d1,right,1,0.1786,0.35,6,0.072470214,0.2763,,,,,,283,0,283,0,1,,,,,
,,929512,001,2023-07-24_19h59.40.289,arm3_q,2022.2.5,Win32,60.04202942,6120d90a0d83120b87086355,64aeaab685a29f4ca249be02,64bec9c6ba65089ae158e9d1,right,1,0.1786,0.35,6,0.087752823,0.2337,,,,,,284,0,284,0,1,,,,,
,,929512,001,2023-07-24_19h59.40.289,arm3_q,2022.2.5,Win32,60.04202942,6120d90a0d83120b87086355,64aeaab685a29f4ca249be02,64bec9c6ba65089ae158e9d1,up,1,0.1786,0.35,6,0,0.586,,,,,,285,0,285,0,1,,,,,
,,929512,001,2023-07-24_19h59.40.289,arm3_q,2022.2.5,Win32,60.04202942,6120d90a0d83120b87086355,64aeaab685a29f4ca249be02,64bec9c6ba65089ae158e9d1,right,1,0.1786,0.35,6,0.005756494,0.6015,,,,,,286,0,286,0,1,,,,,
,,929512,001,2023-07-24_19h59.40.289,arm3_q,2022.2.5,Win32,60.04202942,6120d90a0d83120b87086355,64aeaab685a29f4ca249be02,64bec9c6ba65089ae158e9d1,right,1,0.1786,0.35,6,0.018463324,0.2002,,,,,,287,0,287,0,1,,,,,
,,929512,001,2023-07-24_19h59.40.289,arm3_q,2022.2.5,Win32,60.04202942,6120d90a0d83120b87086355,64aeaab685a29f4ca249be02,64bec9c6ba65089ae158e9d1,right,1,0.1786,0.35,6,0.017234401,0.1826,,,,,,288,0,288,0,1,,,,,
,,929512,001,2023-07-24_19h59.40.289,arm3_q,2022.2.5,Win32,60.04202942,6120d90a0d83120b87086355,64aeaab685a29f4ca249be02,64bec9c6ba65089ae158e9d1,right,1,0.1786,0.35,6,0.03337174,0.1512,,,,,,289,0,289,0,1,,,,,
,,929512,001,2023-07-24_19h59.40.289,arm3_q,2022.2.5,Win32,60.04202942,6120d90a0d83120b87086355,64aeaab685a29f4ca249be02,64bec9c6ba65089ae158e9d1,right,1,0.1786,0.35,6,0.04214548,0.3516,,,,,,290,0,290,0,1,,,,,
,,929512,001,2023-07-24_19h59.40.289,arm3_q,2022.2.5,Win32,60.04202942,6120d90a0d83120b87086355,64aeaab685a29f4ca249be02,64bec9c6ba65089ae158e9d1,right,1,0.1786,0.35,6,0.032053098,0.2806,,,,,,291,0,291,0,1,,,,,
,,929512,001,2023-07-24_19h59.40.289,arm3_q,2022.2.5,Win32,60.04202942,6120d90a0d83120b87086355,64aeaab685a29f4ca249be02,64bec9c6ba65089ae158e9d1,right,1,0.1786,0.35,6,0.065263718,0.3196,,,,,,292,0,292,0,1,,,,,
,,929512,001,2023-07-24_19h59.40.289,arm3_q,2022.2.5,Win32,60.04202942,6120d90a0d83120b87086355,64aeaab685a29f4ca249be02,64bec9c6ba65089ae158e9d1,right,1,0.1786,0.35,6,0.05078145,0.6475,,,,,,293,0,293,0,1,,,,,
,,929512,001,2023-07-24_19h59.40.289,arm3_q,2022.2.5,Win32,60.04202942,6120d90a0d83120b87086355,64aeaab685a29f4ca249be02,64bec9c6ba65089ae158e9d1,up,1,0.1786,0.35,6,0,0.5503,,,,,,294,0,294,0,1,,,,,
,,929512,001,2023-07-24_19h59.40.289,arm3_q,2022.2.5,Win32,60.04202942,6120d90a0d83120b87086355,64aeaab685a29f4ca249be02,64bec9c6ba65089ae158e9d1,right,1,0.1786,0.35,6,0.012908383,0.5512,,,,,,295,0,295,0,1,,,,,
,,929512,001,2023-07-24_19h59.40.289,arm3_q,2022.2.5,Win32,60.04202942,6120d90a0d83120b87086355,64aeaab685a29f4ca249be02,64bec9c6ba65089ae158e9d1,right,1,0.1786,0.35,6,0.016125121,0.1971,,,,,,296,0,296,0,1,,,,,
,,929512,001,2023-07-24_19h59.40.289,arm3_q,2022.2.5,Win32,60.04202942,6120d90a0d83120b87086355,64aeaab685a29f4ca249be02,64bec9c6ba65089ae158e9d1,right,1,0.1786,0.35,6,0.064806562,0.1671,,,,,,297,0,297,0,1,,,,,
,,929512,001,2023-07-24_19h59.40.289,arm3_q,2022.2.5,Win32,60.04202942,6120d90a0d83120b87086355,64aeaab685a29f4ca249be02,64bec9c6ba65089ae158e9d1,right,1,0.1786,0.35,6,0.078874486,0.1668,,,,,,298,0,298,0,1,,,,,
,,929512,001,2023-07-24_19h59.40.289,arm3_q,2022.2.5,Win32,60.04202942,6120d90a0d83120b87086355,64aeaab685a29f4ca249be02,64bec9c6ba65089ae158e9d1,right,1,0.1786,0.35,6,0.055753202,0.1674,,,,,,299,0,299,0,1,,,,,
,,929512,001,2023-07-24_19h59.40.289,arm3_q,2022.2.5,Win32,60.04202942,6120d90a0d83120b87086355,64aeaab685a29f4ca249be02,64bec9c6ba65089ae158e9d1,right,1,0.1786,0.35,6,0.061342374,0.5515,,,,,,300,0,300,0,1,,,,,
,,929512,001,2023-07-24_19h59.40.289,arm3_q,2022.2.5,Win32,60.04202942,6120d90a0d83120b87086355,64aeaab685a29f4ca249be02,64bec9c6ba65089ae158e9d1,right,1,0.1786,0.35,6,0.099278769,0.5001,,,,,,301,0,301,0,1,,,,,
,,929512,001,2023-07-24_19h59.40.289,arm3_q,2022.2.5,Win32,60.04202942,6120d90a0d83120b87086355,64aeaab685a29f4ca249be02,64bec9c6ba65089ae158e9d1,up,-1,0.1786,0.35,6,0,0.6016,,,,,,302,0,302,0,1,,,,,
,,929512,001,2023-07-24_19h59.40.289,arm3_q,2022.2.5,Win32,60.04202942,6120d90a0d83120b87086355,64aeaab685a29f4ca249be02,64bec9c6ba65089ae158e9d1,right,-1,0.1786,0.35,6,-0.003911729,0.5346,,,,,,303,0,303,0,1,,,,,
,,929512,001,2023-07-24_19h59.40.289,arm3_q,2022.2.5,Win32,60.04202942,6120d90a0d83120b87086355,64aeaab685a29f4ca249be02,64bec9c6ba65089ae158e9d1,right,-1,0.1786,0.35,6,-0.025223476,0.1817,,,,,,304,0,304,0,1,,,,,
,,929512,001,2023-07-24_19h59.40.289,arm3_q,2022.2.5,Win32,60.04202942,6120d90a0d83120b87086355,64aeaab685a29f4ca249be02,64bec9c6ba65089ae158e9d1,right,-1,0.1786,0.35,6,-0.048231923,0.4336,,,,,,305,0,305,0,1,,,,,
,,929512,001,2023-07-24_19h59.40.289,arm3_q,2022.2.5,Win32,60.04202942,6120d90a0d83120b87086355,64aeaab685a29f4ca249be02,64bec9c6ba65089ae158e9d1,right,-1,0.1786,0.35,6,-0.084701317,0.3014,,,,,,306,0,306,0,1,,,,,
,,929512,001,2023-07-24_19h59.40.289,arm3_q,2022.2.5,Win32,60.04202942,6120d90a0d83120b87086355,64aeaab685a29f4ca249be02,64bec9c6ba65089ae158e9d1,down,-1,0.1786,0.35,6,0,0.3849,,,,,,307,0,307,0,1,,,,,
,,929512,001,2023-07-24_19h59.40.289,arm3_q,2022.2.5,Win32,60.04202942,6120d90a0d83120b87086355,64aeaab685a29f4ca249be02,64bec9c6ba65089ae158e9d1,right,-1,0.1786,0.35,6,-0.027256549,0.6339,,,,,,308,0,308,0,1,,,,,
,,929512,001,2023-07-24_19h59.40.289,arm3_q,2022.2.5,Win32,60.04202942,6120d90a0d83120b87086355,64aeaab685a29f4ca249be02,64bec9c6ba65089ae158e9d1,right,-1,0.1786,0.35,6,-0.020855225,0.2185,,,,,,309,0,309,0,1,,,,,
,,929512,001,2023-07-24_19h59.40.289,arm3_q,2022.2.5,Win32,60.04202942,6120d90a0d83120b87086355,64aeaab685a29f4ca249be02,64bec9c6ba65089ae158e9d1,right,-1,0.1786,0.35,6,-0.004749581,0.1597,,,,,,310,0,310,0,1,,,,,
,,929512,001,2023-07-24_19h59.40.289,arm3_q,2022.2.5,Win32,60.04202942,6120d90a0d83120b87086355,64aeaab685a29f4ca249be02,64bec9c6ba65089ae158e9d1,right,-1,0.1786,0.35,6,0.002533604,0.8034,,,,,,311,0,311,0,1,,,,,
,,929512,001,2023-07-24_19h59.40.289,arm3_q,2022.2.5,Win32,60.04202942,6120d90a0d83120b87086355,64aeaab685a29f4ca249be02,64bec9c6ba65089ae158e9d1,down,-1,0.1786,0.35,6,0,0.3515,,,,,,312,0,312,0,1,,,,,
,,929512,001,2023-07-24_19h59.40.289,arm3_q,2022.2.5,Win32,60.04202942,6120d90a0d83120b87086355,64aeaab685a29f4ca249be02,64bec9c6ba65089ae158e9d1,right,-1,0.1786,0.35,6,-0.022580795,0.467,,,,,,313,0,313,0,1,,,,,
,,929512,001,2023-07-24_19h59.40.289,arm3_q,2022.2.5,Win32,60.04202942,6120d90a0d83120b87086355,64aeaab685a29f4ca249be02,64bec9c6ba65089ae158e9d1,right,-1,0.1786,0.35,6,-0.036328567,0.4496,,,,,,314,0,314,0,1,,,,,
,,929512,001,2023-07-24_19h59.40.289,arm3_q,2022.2.5,Win32,60.04202942,6120d90a0d83120b87086355,64aeaab685a29f4ca249be02,64bec9c6ba65089ae158e9d1,right,-1,0.1786,0.35,6,-0.026885303,0.1666,,,,,,315,0,315,0,1,,,,,
,,929512,001,2023-07-24_19h59.40.289,arm3_q,2022.2.5,Win32,60.04202942,6120d90a0d83120b87086355,64aeaab685a29f4ca249be02,64bec9c6ba65089ae158e9d1,right,-1,0.1786,0.35,6,-0.018890941,0.1848,,,,,,316,0,316,0,1,,,,,
,,929512,001,2023-07-24_19h59.40.289,arm3_q,2022.2.5,Win32,60.04202942,6120d90a0d83120b87086355,64aeaab685a29f4ca249be02,64bec9c6ba65089ae158e9d1,down,-1,0.1786,0.35,6,0,0.7519,,,,,,317,0,317,0,1,,,,,
,,929512,001,2023-07-24_19h59.40.289,arm3_q,2022.2.5,Win32,60.04202942,6120d90a0d83120b87086355,64aeaab685a29f4ca249be02,64bec9c6ba65089ae158e9d1,right,-1,0.1786,0.35,6,-0.026760675,0.3674,,,,,,318,0,318,0,1,,,,,
,,929512,001,2023-07-24_19h59.40.289,arm3_q,2022.2.5,Win32,60.04202942,6120d90a0d83120b87086355,64aeaab685a29f4ca249be02,64bec9c6ba65089ae158e9d1,right,-1,0.1786,0.35,6,-0.026113458,0.2005,,,,,,319,0,319,0,1,,,,,
,,929512,001,2023-07-24_19h59.40.289,arm3_q,2022.2.5,Win32,60.04202942,6120d90a0d83120b87086355,64aeaab685a29f4ca249be02,64bec9c6ba65089ae158e9d1,right,-1,0.1786,0.35,6,-0.04494071,0.1717,,,,,,320,0,320,0,1,,,,,
,,929512,001,2023-07-24_19h59.40.289,arm3_q,2022.2.5,Win32,60.04202942,6120d90a0d83120b87086355,64aeaab685a29f4ca249be02,64bec9c6ba65089ae158e9d1,right,-1,0.1786,0.35,6,-0.022573405,0.302,,,,,,321,0,321,0,1,,,,,
,,929512,001,2023-07-24_19h59.40.289,arm3_q,2022.2.5,Win32,60.04202942,6120d90a0d83120b87086355,64aeaab685a29f4ca249be02,64bec9c6ba65089ae158e9d1,down,-1,0.1786,0.35,7,0,0.8001,,,,,,322,0,322,0,1,,,,,
,,929512,001,2023-07-24_19h59.40.289,arm3_q,2022.2.5,Win32,60.04202942,6120d90a0d83120b87086355,64aeaab685a29f4ca249be02,64bec9c6ba65089ae158e9d1,right,-1,0.1786,0.35,7,0.006502493,0.703,,,,,,323,0,323,0,1,,,,,
,,929512,001,2023-07-24_19h59.40.289,arm3_q,2022.2.5,Win32,60.04202942,6120d90a0d83120b87086355,64aeaab685a29f4ca249be02,64bec9c6ba65089ae158e9d1,right,-1,0.1786,0.35,7,-0.014108076,0.4182,,,,,,324,0,324,0,1,,,,,
,,929512,001,2023-07-24_19h59.40.289,arm3_q,2022.2.5,Win32,60.04202942,6120d90a0d83120b87086355,64aeaab685a29f4ca249be02,64bec9c6ba65089ae158e9d1,right,-1,0.1786,0.35,7,-0.039577557,0.2001,,,,,,325,0,325,0,1,,,,,
,,929512,001,2023-07-24_19h59.40.289,arm3_q,2022.2.5,Win32,60.04202942,6120d90a0d83120b87086355,64aeaab685a29f4ca249be02,64bec9c6ba65089ae158e9d1,right,-1,0.1786,0.35,7,-0.058613854,0.155,,,,,,326,0,326,0,1,,,,,
,,929512,001,2023-07-24_19h59.40.289,arm3_q,2022.2.5,Win32,60.04202942,6120d90a0d83120b87086355,64aeaab685a29f4ca249be02,64bec9c6ba65089ae158e9d1,right,-1,0.1786,0.35,7,-0.019335007,0.1396,,,,,,327,0,327,0,1,,,,,
,,929512,001,2023-07-24_19h59.40.289,arm3_q,2022.2.5,Win32,60.04202942,6120d90a0d83120b87086355,64aeaab685a29f4ca249be02,64bec9c6ba65089ae158e9d1,right,-1,0.1786,0.35,7,-0.020728694,0.4003,,,,,,328,0,328,0,1,,,,,
,,929512,001,2023-07-24_19h59.40.289,arm3_q,2022.2.5,Win32,60.04202942,6120d90a0d83120b87086355,64aeaab685a29f4ca249be02,64bec9c6ba65089ae158e9d1,down,-1,0.1786,0.35,7,0,0.5173,,,,,,329,0,329,0,1,,,,,
,,929512,001,2023-07-24_19h59.40.289,arm3_q,2022.2.5,Win32,60.04202942,6120d90a0d83120b87086355,64aeaab685a29f4ca249be02,64bec9c6ba65089ae158e9d1,right,-1,0.1786,0.35,7,0.00525244,0.717,,,,,,330,0,330,0,1,,,,,
,,929512,001,2023-07-24_19h59.40.289,arm3_q,2022.2.5,Win32,60.04202942,6120d90a0d83120b87086355,64aeaab685a29f4ca249be02,64bec9c6ba65089ae158e9d1,right,-1,0.1786,0.35,7,-0.008624341,0.2006,,,,,,331,0,331,0,1,,,,,
,,929512,001,2023-07-24_19h59.40.289,arm3_q,2022.2.5,Win32,60.04202942,6120d90a0d83120b87086355,64aeaab685a29f4ca249be02,64bec9c6ba65089ae158e9d1,right,-1,0.1786,0.35,7,-0.005667212,0.1827,,,,,,332,0,332,0,1,,,,,
,,929512,001,2023-07-24_19h59.40.289,arm3_q,2022.2.5,Win32,60.04202942,6120d90a0d83120b87086355,64aeaab685a29f4ca249be02,64bec9c6ba65089ae158e9d1,right,-1,0.1786,0.35,7,-0.003288304,0.2003,,,,,,333,0,333,0,1,,,,,
,,929512,001,2023-07-24_19h59.40.289,arm3_q,2022.2.5,Win32,60.04202942,6120d90a0d83120b87086355,64aeaab685a29f4ca249be02,64bec9c6ba65089ae158e9d1,right,-1,0.1786,0.35,7,-0.026083849,0.1665,,,,,,334,0,334,0,1,,,,,
,,929512,001,2023-07-24_19h59.40.289,arm3_q,2022.2.5,Win32,60.04202942,6120d90a0d83120b87086355,64aeaab685a29f4ca249be02,64bec9c6ba65089ae158e9d1,right,-1,0.1786,0.35,7,-0.066221152,0.3895,,,,,,335,0,335,0,1,,,,,
,,929512,001,2023-07-24_19h59.40.289,arm3_q,2022.2.5,Win32,60.04202942,6120d90a0d83120b87086355,64aeaab685a29f4ca249be02,64bec9c6ba65089ae158e9d1,down,1,0.1786,0.35,7,0,0.5666,,,,,,336,0,336,0,1,,,,,
,,929512,001,2023-07-24_19h59.40.289,arm3_q,2022.2.5,Win32,60.04202942,6120d90a0d83120b87086355,64aeaab685a29f4ca249be02,64bec9c6ba65089ae158e9d1,right,1,0.1786,0.35,7,0.000463512,0.3342,,,,,,337,0,337,0,1,,,,,
,,929512,001,2023-07-24_19h59.40.289,arm3_q,2022.2.5,Win32,60.04202942,6120d90a0d83120b87086355,64aeaab685a29f4ca249be02,64bec9c6ba65089ae158e9d1,right,1,0.1786,0.35,7,0.006573052,0.218,,,,,,338,0,338,0,1,,,,,
,,929512,001,2023-07-24_19h59.40.289,arm3_q,2022.2.5,Win32,60.04202942,6120d90a0d83120b87086355,64aeaab685a29f4ca249be02,64bec9c6ba65089ae158e9d1,right,1,0.1786,0.35,7,0.027482435,0.1668,,,,,,339,0,339,0,1,,,,,
,,929512,001,2023-07-24_19h59.40.289,arm3_q,2022.2.5,Win32,60.04202942,6120d90a0d83120b87086355,64aeaab685a29f4ca249be02,64bec9c6ba65089ae158e9d1,right,1,0.1786,0.35,7,0.053319334,0.167,,,,,,340,0,340,0,1,,,,,
,,929512,001,2023-07-24_19h59.40.289,arm3_q,2022.2.5,Win32,60.04202942,6120d90a0d83120b87086355,64aeaab685a29f4ca249be02,64bec9c6ba65089ae158e9d1,right,1,0.1786,0.35,7,0.089074644,0.1341,,,,,,341,0,341,0,1,,,,,
,,929512,001,2023-07-24_19h59.40.289,arm3_q,2022.2.5,Win32,60.04202942,6120d90a0d83120b87086355,64aeaab685a29f4ca249be02,64bec9c6ba65089ae158e9d1,up,-1,0.1786,0.35,7,0,0.6829,,,,,,342,0,342,0,1,,,,,
,,929512,001,2023-07-24_19h59.40.289,arm3_q,2022.2.5,Win32,60.04202942,6120d90a0d83120b87086355,64aeaab685a29f4ca249be02,64bec9c6ba65089ae158e9d1,right,-1,0.1786,0.35,7,-0.010398135,0.3474,,,,,,343,0,343,0,1,,,,,
,,929512,001,2023-07-24_19h59.40.289,arm3_q,2022.2.5,Win32,60.04202942,6120d90a0d83120b87086355,64aeaab685a29f4ca249be02,64bec9c6ba65089ae158e9d1,right,-1,0.1786,0.35,7,-0.011825975,0.2169,,,,,,344,0,344,0,1,,,,,
,,929512,001,2023-07-24_19h59.40.289,arm3_q,2022.2.5,Win32,60.04202942,6120d90a0d83120b87086355,64aeaab685a29f4ca249be02,64bec9c6ba65089ae158e9d1,right,-1,0.1786,0.35,7,-0.045107187,0.1683,,,,,,345,0,345,0,1,,,,,
,,929512,001,2023-07-24_19h59.40.289,arm3_q,2022.2.5,Win32,60.04202942,6120d90a0d83120b87086355,64aeaab685a29f4ca249be02,64bec9c6ba65089ae158e9d1,right,-1,0.1786,0.35,7,-0.071617182,0.1169,,,,,,346,0,346,0,1,,,,,
,,929512,001,2023-07-24_19h59.40.289,arm3_q,2022.2.5,Win32,60.04202942,6120d90a0d83120b87086355,64aeaab685a29f4ca249be02,64bec9c6ba65089ae158e9d1,right,-1,0.1786,0.35,7,-0.098745252,0.2003,,,,,,347,0,347,0,1,,,,,
,,929512,001,2023-07-24_19h59.40.289,arm3_q,2022.2.5,Win32,60.04202942,6120d90a0d83120b87086355,64aeaab685a29f4ca249be02,64bec9c6ba65089ae158e9d1,down,1,0.1786,0.35,7,0,0.2339,,,,,,348,0,348,0,1,,,,,
,,929512,001,2023-07-24_19h59.40.289,arm3_q,2022.2.5,Win32,60.04202942,6120d90a0d83120b87086355,64aeaab685a29f4ca249be02,64bec9c6ba65089ae158e9d1,right,1,0.1786,0.35,7,0.010104933,0.3343,,,,,,349,0,349,0,1,,,,,
,,929512,001,2023-07-24_19h59.40.289,arm3_q,2022.2.5,Win32,60.04202942,6120d90a0d83120b87086355,64aeaab685a29f4ca249be02,64bec9c6ba65089ae158e9d1,right,1,0.1786,0.35,7,0.02514057,0.1847,,,,,,350,0,350,0,1,,,,,
,,929512,001,2023-07-24_19h59.40.289,arm3_q,2022.2.5,Win32,60.04202942,6120d90a0d83120b87086355,64aeaab685a29f4ca249be02,64bec9c6ba65089ae158e9d1,right,1,0.1786,0.35,7,0.027617214,0.1522,,,,,,351,0,351,0,1,,,,,
,,929512,001,2023-07-24_19h59.40.289,arm3_q,2022.2.5,Win32,60.04202942,6120d90a0d83120b87086355,64aeaab685a29f4ca249be02,64bec9c6ba65089ae158e9d1,right,1,0.1786,0.35,7,0.050172098,0.1385,,,,,,352,0,352,0,1,,,,,
,,929512,001,2023-07-24_19h59.40.289,arm3_q,2022.2.5,Win32,60.04202942,6120d90a0d83120b87086355,64aeaab685a29f4ca249be02,64bec9c6ba65089ae158e9d1,up,1,0.1786,0.35,8,0,0.7506,,,,,,353,0,353,0,1,,,,,
,,929512,001,2023-07-24_19h59.40.289,arm3_q,2022.2.5,Win32,60.04202942,6120d90a0d83120b87086355,64aeaab685a29f4ca249be02,64bec9c6ba65089ae158e9d1,right,1,0.1786,0.35,8,0.003420011,0.2393,,,,,,354,0,354,0,1,,,,,
,,929512,001,2023-07-24_19h59.40.289,arm3_q,2022.2.5,Win32,60.04202942,6120d90a0d83120b87086355,64aeaab685a29f4ca249be02,64bec9c6ba65089ae158e9d1,right,1,0.1786,0.35,8,-0.024259674,0.3672,,,,,,355,0,355,0,1,,,,,
,,929512,001,2023-07-24_19h59.40.289,arm3_q,2022.2.5,Win32,60.04202942,6120d90a0d83120b87086355,64aeaab685a29f4ca249be02,64bec9c6ba65089ae158e9d1,right,1,0.1786,0.35,8,-0.010689075,0.1999,,,,,,356,0,356,0,1,,,,,
,,929512,001,2023-07-24_19h59.40.289,arm3_q,2022.2.5,Win32,60.04202942,6120d90a0d83120b87086355,64aeaab685a29f4ca249be02,64bec9c6ba65089ae158e9d1,right,1,0.1786,0.35,8,0.016426115,0.1838,,,,,,357,0,357,0,1,,,,,
,,929512,001,2023-07-24_19h59.40.289,arm3_q,2022.2.5,Win32,60.04202942,6120d90a0d83120b87086355,64aeaab685a29f4ca249be02,64bec9c6ba65089ae158e9d1,right,1,0.1786,0.35,8,-0.006678763,0.6664,,,,,,358,0,358,0,1,,,,,
,,929512,001,2023-07-24_19h59.40.289,arm3_q,2022.2.5,Win32,60.04202942,6120d90a0d83120b87086355,64aeaab685a29f4ca249be02,64bec9c6ba65089ae158e9d1,right,1,0.1786,0.35,8,0.015178821,0.5663,,,,,,359,0,359,0,1,,,,,
,,929512,001,2023-07-24_19h59.40.289,arm3_q,2022.2.5,Win32,60.04202942,6120d90a0d83120b87086355,64aeaab685a29f4ca249be02,64bec9c6ba65089ae158e9d1,up,-1,0.1786,0.35,9,0,0.5669,,,,,,360,0,360,0,1,,,,,
,,929512,001,2023-07-24_19h59.40.289,arm3_q,2022.2.5,Win32,60.04202942,6120d90a0d83120b87086355,64aeaab685a29f4ca249be02,64bec9c6ba65089ae158e9d1,right,-1,0.1786,0.35,9,-0.008424786,0.4161,,,,,,361,0,361,0,1,,,,,
,,929512,001,2023-07-24_19h59.40.289,arm3_q,2022.2.5,Win32,60.04202942,6120d90a0d83120b87086355,64aeaab685a29f4ca249be02,64bec9c6ba65089ae158e9d1,right,-1,0.1786,0.35,9,-0.004724617,0.4375,,,,,,362,0,362,0,1,,,,,
,,929512,001,2023-07-24_19h59.40.289,arm3_q,2022.2.5,Win32,60.04202942,6120d90a0d83120b87086355,64aeaab685a29f4ca249be02,64bec9c6ba65089ae158e9d1,right,-1,0.1786,0.35,9,-0.016569627,0.1669,,,,,,363,0,363,0,1,,,,,
,,929512,001,2023-07-24_19h59.40.289,arm3_q,2022.2.5,Win32,60.04202942,6120d90a0d83120b87086355,64aeaab685a29f4ca249be02,64bec9c6ba65089ae158e9d1,right,-1,0.1786,0.35,9,-0.009827306,0.1475,,,,,,364,0,364,0,1,,,,,
,,929512,001,2023-07-24_19h59.40.289,arm3_q,2022.2.5,Win32,60.04202942,6120d90a0d83120b87086355,64aeaab685a29f4ca249be02,64bec9c6ba65089ae158e9d1,right,-1,0.1786,0.35,9,-0.013601582,0.1422,,,,,,365,0,365,0,1,,,,,
,,929512,001,2023-07-24_19h59.40.289,arm3_q,2022.2.5,Win32,60.04202942,6120d90a0d83120b87086355,64aeaab685a29f4ca249be02,64bec9c6ba65089ae158e9d1,right,-1,0.1786,0.35,9,-0.012074768,0.5064,,,,,,366,0,366,0,1,,,,,
,,929512,001,2023-07-24_19h59.40.289,arm3_q,2022.2.5,Win32,60.04202942,6120d90a0d83120b87086355,64aeaab685a29f4ca249be02,64bec9c6ba65089ae158e9d1,up,-1,0.1786,0.35,9,0,0.6883,,,,,,367,0,367,0,1,,,,,
,,929512,001,2023-07-24_19h59.40.289,arm3_q,2022.2.5,Win32,60.04202942,6120d90a0d83120b87086355,64aeaab685a29f4ca249be02,64bec9c6ba65089ae158e9d1,right,-1,0.1786,0.35,9,0.012250954,0.3333,,,,,,368,0,368,0,1,,,,,
,,929512,001,2023-07-24_19h59.40.289,arm3_q,2022.2.5,Win32,60.04202942,6120d90a0d83120b87086355,64aeaab685a29f4ca249be02,64bec9c6ba65089ae158e9d1,right,-1,0.1786,0.35,9,-0.008435082,0.1835,,,,,,369,0,369,0,1,,,,,
,,929512,001,2023-07-24_19h59.40.289,arm3_q,2022.2.5,Win32,60.04202942,6120d90a0d83120b87086355,64aeaab685a29f4ca249be02,64bec9c6ba65089ae158e9d1,,,,,,,,,,,,,,,,,,0,0,0,0,1
space,4.3991,929512,001,2023-07-24_19h59.40.289,arm3_q,2022.2.5,Win32,60.04202942,6120d90a0d83120b87086355,64aeaab685a29f4ca249be02,64bec9c6ba65089ae158e9d1,right,-1,0.95,0.35,9,-0.012619919,0.8649,,,,,,0,0,0,0,1,,,,,
,,929512,001,2023-07-24_19h59.40.289,arm3_q,2022.2.5,Win32,60.04202942,6120d90a0d83120b87086355,64aeaab685a29f4ca249be02,64bec9c6ba65089ae158e9d1,right,-1,0.95,0.35,9,-0.008484092,0.1821,,,,,,1,0,1,0,1,,,,,
,,929512,001,2023-07-24_19h59.40.289,arm3_q,2022.2.5,Win32,60.04202942,6120d90a0d83120b87086355,64aeaab685a29f4ca249be02,64bec9c6ba65089ae158e9d1,right,-1,0.95,0.35,9,-0.045342795,0.317,,,,,,2,0,2,0,1,,,,,
,,929512,001,2023-07-24_19h59.40.289,arm3_q,2022.2.5,Win32,60.04202942,6120d90a0d83120b87086355,64aeaab685a29f4ca249be02,64bec9c6ba65089ae158e9d1,right,-1,0.95,0.35,9,-0.046517739,0.1852,,,,,,3,0,3,0,1,,,,,
,,929512,001,2023-07-24_19h59.40.289,arm3_q,2022.2.5,Win32,60.04202942,6120d90a0d83120b87086355,64aeaab685a29f4ca249be02,64bec9c6ba65089ae158e9d1,right,-1,0.95,0.35,9,-0.038209858,0.3668,,,,,,4,0,4,0,1,,,,,
,,929512,001,2023-07-24_19h59.40.289,arm3_q,2022.2.5,Win32,60.04202942,6120d90a0d83120b87086355,64aeaab685a29f4ca249be02,64bec9c6ba65089ae158e9d1,right,-1,0.95,0.35,9,-0.04789096,0.651,,,,,,5,0,5,0,1,,,,,
,,929512,001,2023-07-24_19h59.40.289,arm3_q,2022.2.5,Win32,60.04202942,6120d90a0d83120b87086355,64aeaab685a29f4ca249be02,64bec9c6ba65089ae158e9d1,down,-1,0.95,0.35,10,0,0.883,,,,,,6,0,6,0,1,,,,,
,,929512,001,2023-07-24_19h59.40.289,arm3_q,2022.2.5,Win32,60.04202942,6120d90a0d83120b87086355,64aeaab685a29f4ca249be02,64bec9c6ba65089ae158e9d1,right,-1,0.95,0.35,10,-0.001474409,0.8088,,,,,,7,0,7,0,1,,,,,
,,929512,001,2023-07-24_19h59.40.289,arm3_q,2022.2.5,Win32,60.04202942,6120d90a0d83120b87086355,64aeaab685a29f4ca249be02,64bec9c6ba65089ae158e9d1,right,-1,0.95,0.35,10,-0.001901883,0.1329,,,,,,8,0,8,0,1,,,,,
,,929512,001,2023-07-24_19h59.40.289,arm3_q,2022.2.5,Win32,60.04202942,6120d90a0d83120b87086355,64aeaab685a29f4ca249be02,64bec9c6ba65089ae158e9d1,right,-1,0.95,0.35,10,-0.051333092,0.1672,,,,,,9,0,9,0,1,,,,,
,,929512,001,2023-07-24_19h59.40.289,arm3_q,2022.2.5,Win32,60.04202942,6120d90a0d83120b87086355,64aeaab685a29f4ca249be02,64bec9c6ba65089ae158e9d1,right,-1,0.95,0.35,10,-0.031519351,0.4015,,,,,,10,0,10,0,1,,,,,
,,929512,001,2023-07-24_19h59.40.289,arm3_q,2022.2.5,Win32,60.04202942,6120d90a0d83120b87086355,64aeaab685a29f4ca249be02,64bec9c6ba65089ae158e9d1,right,-1,0.95,0.35,10,-0.043778743,0.6049,,,,,,11,0,11,0,1,,,,,
,,929512,001,2023-07-24_19h59.40.289,arm3_q,2022.2.5,Win32,60.04202942,6120d90a0d83120b87086355,64aeaab685a29f4ca249be02,64bec9c6ba65089ae158e9d1,right,-1,0.95,0.35,10,-0.054826165,0.5664,,,,,,12,0,12,0,1,,,,,
,,929512,001,2023-07-24_19h59.40.289,arm3_q,2022.2.5,Win32,60.04202942,6120d90a0d83120b87086355,64aeaab685a29f4ca249be02,64bec9c6ba65089ae158e9d1,down,-1,0.95,0.35,11,0,0.5993,,,,,,13,0,13,0,1,,,,,
,,929512,001,2023-07-24_19h59.40.289,arm3_q,2022.2.5,Win32,60.04202942,6120d90a0d83120b87086355,64aeaab685a29f4ca249be02,64bec9c6ba65089ae158e9d1,right,-1,0.95,0.35,11,-0.015924821,0.7665,,,,,,14,0,14,0,1,,,,,
,,929512,001,2023-07-24_19h59.40.289,arm3_q,2022.2.5,Win32,60.04202942,6120d90a0d83120b87086355,64aeaab685a29f4ca249be02,64bec9c6ba65089ae158e9d1,right,-1,0.95,0.35,11,-0.037469555,0.167,,,,,,15,0,15,0,1,,,,,
,,929512,001,2023-07-24_19h59.40.289,arm3_q,2022.2.5,Win32,60.04202942,6120d90a0d83120b87086355,64aeaab685a29f4ca249be02,64bec9c6ba65089ae158e9d1,right,-1,0.95,0.35,11,-0.049645598,0.183,,,,,,16,0,16,0,1,,,,,
,,929512,001,2023-07-24_19h59.40.289,arm3_q,2022.2.5,Win32,60.04202942,6120d90a0d83120b87086355,64aeaab685a29f4ca249be02,64bec9c6ba65089ae158e9d1,right,-1,0.95,0.35,11,-0.02905998,0.1496,,,,,,17,0,17,0,1,,,,,
,,929512,001,2023-07-24_19h59.40.289,arm3_q,2022.2.5,Win32,60.04202942,6120d90a0d83120b87086355,64aeaab685a29f4ca249be02,64bec9c6ba65089ae158e9d1,right,-1,0.95,0.35,11,-0.063464348,0.2503,,,,,,18,0,18,0,1,,,,,
,,929512,001,2023-07-24_19h59.40.289,arm3_q,2022.2.5,Win32,60.04202942,6120d90a0d83120b87086355,64aeaab685a29f4ca249be02,64bec9c6ba65089ae158e9d1,right,-1,0.95,0.35,11,-0.035400147,0.3331,,,,,,19,0,19,0,1,,,,,
,,929512,001,2023-07-24_19h59.40.289,arm3_q,2022.2.5,Win32,60.04202942,6120d90a0d83120b87086355,64aeaab685a29f4ca249be02,64bec9c6ba65089ae158e9d1,right,-1,0.95,0.35,11,-0.045520951,0.4005,,,,,,20,0,20,0,1,,,,,
,,929512,001,2023-07-24_19h59.40.289,arm3_q,2022.2.5,Win32,60.04202942,6120d90a0d83120b87086355,64aeaab685a29f4ca249be02,64bec9c6ba65089ae158e9d1,down,1,0.95,0.35,12,0,0.6336,,,,,,21,0,21,0,1,,,,,
,,929512,001,2023-07-24_19h59.40.289,arm3_q,2022.2.5,Win32,60.04202942,6120d90a0d83120b87086355,64aeaab685a29f4ca249be02,64bec9c6ba65089ae158e9d1,right,1,0.95,0.35,12,0.017827811,0.5667,,,,,,22,0,22,0,1,,,,,
,,929512,001,2023-07-24_19h59.40.289,arm3_q,2022.2.5,Win32,60.04202942,6120d90a0d83120b87086355,64aeaab685a29f4ca249be02,64bec9c6ba65089ae158e9d1,right,1,0.95,0.35,12,0.032571701,0.2012,,,,,,23,0,23,0,1,,,,,
,,929512,001,2023-07-24_19h59.40.289,arm3_q,2022.2.5,Win32,60.04202942,6120d90a0d83120b87086355,64aeaab685a29f4ca249be02,64bec9c6ba65089ae158e9d1,right,1,0.95,0.35,12,0.072446678,0.1522,,,,,,24,0,24,0,1,,,,,
,,929512,001,2023-07-24_19h59.40.289,arm3_q,2022.2.5,Win32,60.04202942,6120d90a0d83120b87086355,64aeaab685a29f4ca249be02,64bec9c6ba65089ae158e9d1,right,1,0.95,0.35,12,0.083253091,0.1504,,,,,,25,0,25,0,1,,,,,
,,929512,001,2023-07-24_19h59.40.289,arm3_q,2022.2.5,Win32,60.04202942,6120d90a0d83120b87086355,64aeaab685a29f4ca249be02,64bec9c6ba65089ae158e9d1,right,1,0.95,0.35,12,0.106731832,0.1668,,,,,,26,0,26,0,1,,,,,
,,929512,001,2023-07-24_19h59.40.289,arm3_q,2022.2.5,Win32,60.04202942,6120d90a0d83120b87086355,64aeaab685a29f4ca249be02,64bec9c6ba65089ae158e9d1,right,1,0.95,0.35,12,0.117348292,0.3185,,,,,,27,0,27,0,1,,,,,
,,929512,001,2023-07-24_19h59.40.289,arm3_q,2022.2.5,Win32,60.04202942,6120d90a0d83120b87086355,64aeaab685a29f4ca249be02,64bec9c6ba65089ae158e9d1,right,1,0.95,0.35,12,0.100023557,0.3338,,,,,,28,0,28,0,1,,,,,
,,929512,001,2023-07-24_19h59.40.289,arm3_q,2022.2.5,Win32,60.04202942,6120d90a0d83120b87086355,64aeaab685a29f4ca249be02,64bec9c6ba65089ae158e9d1,right,1,0.95,0.35,12,0.087136524,0.406,,,,,,29,0,29,0,1,,,,,
,,929512,001,2023-07-24_19h59.40.289,arm3_q,2022.2.5,Win32,60.04202942,6120d90a0d83120b87086355,64aeaab685a29f4ca249be02,64bec9c6ba65089ae158e9d1,up,1,0.95,0.35,13,0,0.5094,,,,,,30,0,30,0,1,,,,,
,,929512,001,2023-07-24_19h59.40.289,arm3_q,2022.2.5,Win32,60.04202942,6120d90a0d83120b87086355,64aeaab685a29f4ca249be02,64bec9c6ba65089ae158e9d1,right,1,0.95,0.35,13,-0.001316181,0.5514,,,,,,31,0,31,0,1,,,,,
,,929512,001,2023-07-24_19h59.40.289,arm3_q,2022.2.5,Win32,60.04202942,6120d90a0d83120b87086355,64aeaab685a29f4ca249be02,64bec9c6ba65089ae158e9d1,right,1,0.95,0.35,13,0.012310193,0.2837,,,,,,32,0,32,0,1,,,,,
,,929512,001,2023-07-24_19h59.40.289,arm3_q,2022.2.5,Win32,60.04202942,6120d90a0d83120b87086355,64aeaab685a29f4ca249be02,64bec9c6ba65089ae158e9d1,right,1,0.95,0.35,13,0.044665593,0.1693,,,,,,33,0,33,0,1,,,,,
,,929512,001,2023-07-24_19h59.40.289,arm3_q,2022.2.5,Win32,60.04202942,6120d90a0d83120b87086355,64aeaab685a29f4ca249be02,64bec9c6ba65089ae158e9d1,right,1,0.95,0.35,13,0.040386566,0.1334,,,,,,34,0,34,0,1,,,,,
,,929512,001,2023-07-24_19h59.40.289,arm3_q,2022.2.5,Win32,60.04202942,6120d90a0d83120b87086355,64aeaab685a29f4ca249be02,64bec9c6ba65089ae158e9d1,right,1,0.95,0.35,13,0.029199413,0.2165,,,,,,35,0,35,0,1,,,,,
,,929512,001,2023-07-24_19h59.40.289,arm3_q,2022.2.5,Win32,60.04202942,6120d90a0d83120b87086355,64aeaab685a29f4ca249be02,64bec9c6ba65089ae158e9d1,right,1,0.95,0.35,13,0.056438574,0.2011,,,,,,36,0,36,0,1,,,,,
,,929512,001,2023-07-24_19h59.40.289,arm3_q,2022.2.5,Win32,60.04202942,6120d90a0d83120b87086355,64aeaab685a29f4ca249be02,64bec9c6ba65089ae158e9d1,right,1,0.95,0.35,13,0.060893814,0.2679,,,,,,37,0,37,0,1,,,,,
,,929512,001,2023-07-24_19h59.40.289,arm3_q,2022.2.5,Win32,60.04202942,6120d90a0d83120b87086355,64aeaab685a29f4ca249be02,64bec9c6ba65089ae158e9d1,right,1,0.95,0.35,13,0.046386018,0.3336,,,,,,38,0,38,0,1,,,,,
,,929512,001,2023-07-24_19h59.40.289,arm3_q,2022.2.5,Win32,60.04202942,6120d90a0d83120b87086355,64aeaab685a29f4ca249be02,64bec9c6ba65089ae158e9d1,up,1,0.95,0.35,14,0,0.3668,,,,,,39,0,39,0,1,,,,,
,,929512,001,2023-07-24_19h59.40.289,arm3_q,2022.2.5,Win32,60.04202942,6120d90a0d83120b87086355,64aeaab685a29f4ca249be02,64bec9c6ba65089ae158e9d1,right,1,0.95,0.35,14,-0.009333128,0.5341,,,,,,40,0,40,0,1,,,,,
,,929512,001,2023-07-24_19h59.40.289,arm3_q,2022.2.5,Win32,60.04202942,6120d90a0d83120b87086355,64aeaab685a29f4ca249be02,64bec9c6ba65089ae158e9d1,right,1,0.95,0.35,14,-0.014418754,0.3858,,,,,,41,0,41,0,1,,,,,
,,929512,001,2023-07-24_19h59.40.289,arm3_q,2022.2.5,Win32,60.04202942,6120d90a0d83120b87086355,64aeaab685a29f4ca249be02,64bec9c6ba65089ae158e9d1,right,1,0.95,0.35,14,0.007462187,0.2513,,,,,,42,0,42,0,1,,,,,
