space_bar.keys,space_bar.rt,participant,session,date,expName,psychopyVersion,OS,frameRate,PROLIFIC_PID,STUDY_ID,SESSION_ID,resp.keys,state,q_prob,eps_prob,score,price,resp.rt,train.thisRepN,train.thisTrialN,train.thisN,train.thisIndex,train.ran,steps.thisRepN,steps.thisTrialN,steps.thisN,steps.thisIndex,steps.ran,blocks.thisRepN,blocks.thisTrialN,blocks.thisN,blocks.thisIndex,blocks.ran
space,25.5979,072125,001,2023-07-24_20h06.55.082,arm3_eps,2022.2.5,Win32,144.1337561,6136aee758e3f41323d8c0c7,64aea9d0f615b6559c281482,64becba8123eeb0d1661eb9f,,,,,,,,,,,,,,,,,,,,,,
space,15.6151,072125,001,2023-07-24_20h06.55.082,arm3_eps,2022.2.5,Win32,144.1337561,6136aee758e3f41323d8c0c7,64aea9d0f615b6559c281482,64becba8123eeb0d1661eb9f,,,,,,,,,,,,,,,,,,,,,,
space,14.1946,072125,001,2023-07-24_20h06.55.082,arm3_eps,2022.2.5,Win32,144.1337561,6136aee758e3f41323d8c0c7,64aea9d0f615b6559c281482,64becba8123eeb0d1661eb9f,,,,,,,,,,,,,,,,,,,,,,
space,66.3714,072125,001,2023-07-24_20h06.55.082,arm3_eps,2022.2.5,Win32,144.1337561,6136aee758e3f41323d8c0c7,64aea9d0f615b6559c281482,64becba8123eeb0d1661eb9f,,,,,,,,,,,,,,,,,,,,,,
space,19.1493,072125,001,2023-07-24_20h06.55.082,arm3_eps,2022.2.5,Win32,144.1337561,6136aee758e3f41323d8c0c7,64aea9d0f615b6559c281482,64becba8123eeb0d1661eb9f,,,,,,,,,,,,,,,,,,,,,,
space,26.6334,072125,001,2023-07-24_20h06.55.082,arm3_eps,2022.2.5,Win32,144.1337561,6136aee758e3f41323d8c0c7,64aea9d0f615b6559c281482,64becba8123eeb0d1661eb9f,,,,,,,,,,,,,,,,,,,,,,
space,7.4072,072125,001,2023-07-24_20h06.55.082,arm3_eps,2022.2.5,Win32,144.1337561,6136aee758e3f41323d8c0c7,64aea9d0f615b6559c281482,64becba8123eeb0d1661eb9f,,,,,,,,,,,,,,,,,,,,,,
space,26.1418,072125,001,2023-07-24_20h06.55.082,arm3_eps,2022.2.5,Win32,144.1337561,6136aee758e3f41323d8c0c7,64aea9d0f615b6559c281482,64becba8123eeb0d1661eb9f,,,,,,,,,,,,,,,,,,,,,,
space,15.7031,072125,001,2023-07-24_20h06.55.082,arm3_eps,2022.2.5,Win32,144.1337561,6136aee758e3f41323d8c0c7,64aea9d0f615b6559c281482,64becba8123eeb0d1661eb9f,,,,,,,,,,,,,,,,,,,,,,
space,9.7032,072125,001,2023-07-24_20h06.55.082,arm3_eps,2022.2.5,Win32,144.1337561,6136aee758e3f41323d8c0c7,64aea9d0f615b6559c281482,64becba8123eeb0d1661eb9f,,,,,,,,,,,,,,,,,,,,,,
,,072125,001,2023-07-24_20h06.55.082,arm3_eps,2022.2.5,Win32,144.1337561,6136aee758e3f41323d8c0c7,64aea9d0f615b6559c281482,64becba8123eeb0d1661eb9f,right,-1,0.3,0.2429,0,-0.024776227,4.1935,0,0,0,0,1,,,,,,,,,,
,,072125,001,2023-07-24_20h06.55.082,arm3_eps,2022.2.5,Win32,144.1337561,6136aee758e3f41323d8c0c7,64aea9d0f615b6559c281482,64becba8123eeb0d1661eb9f,right,-1,0.3,0.2429,0,0.005396132,1.9621,1,0,1,0,1,,,,,,,,,,
,,072125,001,2023-07-24_20h06.55.082,arm3_eps,2022.2.5,Win32,144.1337561,6136aee758e3f41323d8c0c7,64aea9d0f615b6559c281482,64becba8123eeb0d1661eb9f,down,-1,0.3,0.2429,0,0,1.6582,2,0,2,0,1,,,,,,,,,,
,,072125,001,2023-07-24_20h06.55.082,arm3_eps,2022.2.5,Win32,144.1337561,6136aee758e3f41323d8c0c7,64aea9d0f615b6559c281482,64becba8123eeb0d1661eb9f,right,-1,0.3,0.2429,0,-0.016020283,1.3711,3,0,3,0,1,,,,,,,,,,
,,072125,001,2023-07-24_20h06.55.082,arm3_eps,2022.2.5,Win32,144.1337561,6136aee758e3f41323d8c0c7,64aea9d0f615b6559c281482,64becba8123eeb0d1661eb9f,right,-1,0.3,0.2429,0,-0.022073789,0.6091,4,0,4,0,1,,,,,,,,,,
,,072125,001,2023-07-24_20h06.55.082,arm3_eps,2022.2.5,Win32,144.1337561,6136aee758e3f41323d8c0c7,64aea9d0f615b6559c281482,64becba8123eeb0d1661eb9f,right,-1,0.3,0.2429,0,-0.030281043,1.2799,5,0,5,0,1,,,,,,,,,,
,,072125,001,2023-07-24_20h06.55.082,arm3_eps,2022.2.5,Win32,144.1337561,6136aee758e3f41323d8c0c7,64aea9d0f615b6559c281482,64becba8123eeb0d1661eb9f,down,-1,0.3,0.2429,0,0,0.3878,6,0,6,0,1,,,,,,,,,,
,,072125,001,2023-07-24_20h06.55.082,arm3_eps,2022.2.5,Win32,144.1337561,6136aee758e3f41323d8c0c7,64aea9d0f615b6559c281482,64becba8123eeb0d1661eb9f,right,-1,0.3,0.2429,0,-0.009724545,1.0446,7,0,7,0,1,,,,,,,,,,
,,072125,001,2023-07-24_20h06.55.082,arm3_eps,2022.2.5,Win32,144.1337561,6136aee758e3f41323d8c0c7,64aea9d0f615b6559c281482,64becba8123eeb0d1661eb9f,right,-1,0.3,0.2429,0,0.010671882,1.2053,8,0,8,0,1,,,,,,,,,,
,,072125,001,2023-07-24_20h06.55.082,arm3_eps,2022.2.5,Win32,144.1337561,6136aee758e3f41323d8c0c7,64aea9d0f615b6559c281482,64becba8123eeb0d1661eb9f,right,-1,0.3,0.2429,0,-0.02334041,0.7439,9,0,9,0,1,,,,,,,,,,
,,072125,001,2023-07-24_20h06.55.082,arm3_eps,2022.2.5,Win32,144.1337561,6136aee758e3f41323d8c0c7,64aea9d0f615b6559c281482,64becba8123eeb0d1661eb9f,up,-1,0.3,0.2429,-1,0,1.8047,10,0,10,0,1,,,,,,,,,,
,,072125,001,2023-07-24_20h06.55.082,arm3_eps,2022.2.5,Win32,144.1337561,6136aee758e3f41323d8c0c7,64aea9d0f615b6559c281482,64becba8123eeb0d1661eb9f,right,-1,0.3,0.2429,-1,0.011475173,1.6092,11,0,11,0,1,,,,,,,,,,
,,072125,001,2023-07-24_20h06.55.082,arm3_eps,2022.2.5,Win32,144.1337561,6136aee758e3f41323d8c0c7,64aea9d0f615b6559c281482,64becba8123eeb0d1661eb9f,up,-1,0.3,0.2429,-1,0,2.5014,12,0,12,0,1,,,,,,,,,,
,,072125,001,2023-07-24_20h06.55.082,arm3_eps,2022.2.5,Win32,144.1337561,6136aee758e3f41323d8c0c7,64aea9d0f615b6559c281482,64becba8123eeb0d1661eb9f,right,-1,0.3,0.2429,-1,-0.015986468,1.2699,13,0,13,0,1,,,,,,,,,,
,,072125,001,2023-07-24_20h06.55.082,arm3_eps,2022.2.5,Win32,144.1337561,6136aee758e3f41323d8c0c7,64aea9d0f615b6559c281482,64becba8123eeb0d1661eb9f,right,-1,0.3,0.2429,-1,-0.012466676,0.5219,14,0,14,0,1,,,,,,,,,,
,,072125,001,2023-07-24_20h06.55.082,arm3_eps,2022.2.5,Win32,144.1337561,6136aee758e3f41323d8c0c7,64aea9d0f615b6559c281482,64becba8123eeb0d1661eb9f,down,1,0.3,0.2429,-1,0,0.7054,15,0,15,0,1,,,,,,,,,,
,,072125,001,2023-07-24_20h06.55.082,arm3_eps,2022.2.5,Win32,144.1337561,6136aee758e3f41323d8c0c7,64aea9d0f615b6559c281482,64becba8123eeb0d1661eb9f,right,1,0.3,0.2429,-1,0.004865453,1.4685,16,0,16,0,1,,,,,,,,,,
,,072125,001,2023-07-24_20h06.55.082,arm3_eps,2022.2.5,Win32,144.1337561,6136aee758e3f41323d8c0c7,64aea9d0f615b6559c281482,64becba8123eeb0d1661eb9f,up,1,0.3,0.2429,-1,0,0.7997,17,0,17,0,1,,,,,,,,,,
,,072125,001,2023-07-24_20h06.55.082,arm3_eps,2022.2.5,Win32,144.1337561,6136aee758e3f41323d8c0c7,64aea9d0f615b6559c281482,64becba8123eeb0d1661eb9f,right,1,0.3,0.2429,-1,0.028768553,1.1611,18,0,18,0,1,,,,,,,,,,
,,072125,001,2023-07-24_20h06.55.082,arm3_eps,2022.2.5,Win32,144.1337561,6136aee758e3f41323d8c0c7,64aea9d0f615b6559c281482,64becba8123eeb0d1661eb9f,right,1,0.3,0.2429,-1,0.035630466,0.5495,19,0,19,0,1,,,,,,,,,,
,,072125,001,2023-07-24_20h06.55.082,arm3_eps,2022.2.5,Win32,144.1337561,6136aee758e3f41323d8c0c7,64aea9d0f615b6559c281482,64becba8123eeb0d1661eb9f,right,1,0.3,0.2429,-1,0.017037647,0.707,20,0,20,0,1,,,,,,,,,,
,,072125,001,2023-07-24_20h06.55.082,arm3_eps,2022.2.5,Win32,144.1337561,6136aee758e3f41323d8c0c7,64aea9d0f615b6559c281482,64becba8123eeb0d1661eb9f,up,1,0.3,0.2429,0,0,0.4946,21,0,21,0,1,,,,,,,,,,
,,072125,001,2023-07-24_20h06.55.082,arm3_eps,2022.2.5,Win32,144.1337561,6136aee758e3f41323d8c0c7,64aea9d0f615b6559c281482,64becba8123eeb0d1661eb9f,right,1,0.3,0.2429,0,0.024608648,3.3686,22,0,22,0,1,,,,,,,,,,
,,072125,001,2023-07-24_20h06.55.082,arm3_eps,2022.2.5,Win32,144.1337561,6136aee758e3f41323d8c0c7,64aea9d0f615b6559c281482,64becba8123eeb0d1661eb9f,right,1,0.3,0.2429,0,0.051281634,0.683,23,0,23,0,1,,,,,,,,,,
,,072125,001,2023-07-24_20h06.55.082,arm3_eps,2022.2.5,Win32,144.1337561,6136aee758e3f41323d8c0c7,64aea9d0f615b6559c281482,64becba8123eeb0d1661eb9f,up,1,0.3,0.2429,0,0,0.517,24,0,24,0,1,,,,,,,,,,
,,072125,001,2023-07-24_20h06.55.082,arm3_eps,2022.2.5,Win32,144.1337561,6136aee758e3f41323d8c0c7,64aea9d0f615b6559c281482,64becba8123eeb0d1661eb9f,right,1,0.3,0.2429,0,0.031061863,0.9453,25,0,25,0,1,,,,,,,,,,
,,072125,001,2023-07-24_20h06.55.082,arm3_eps,2022.2.5,Win32,144.1337561,6136aee758e3f41323d8c0c7,64aea9d0f615b6559c281482,64becba8123eeb0d1661eb9f,right,1,0.3,0.2429,0,0.015204186,0.4199,26,0,26,0,1,,,,,,,,,,
,,072125,001,2023-07-24_20h06.55.082,arm3_eps,2022.2.5,Win32,144.1337561,6136aee758e3f41323d8c0c7,64aea9d0f615b6559c281482,64becba8123eeb0d1661eb9f,right,1,0.3,0.2429,0,0.026316532,0.4225,27,0,27,0,1,,,,,,,,,,
,,072125,001,2023-07-24_20h06.55.082,arm3_eps,2022.2.5,Win32,144.1337561,6136aee758e3f41323d8c0c7,64aea9d0f615b6559c281482,64becba8123eeb0d1661eb9f,up,1,0.3,0.2429,0,0,0.4539,28,0,28,0,1,,,,,,,,,,
,,072125,001,2023-07-24_20h06.55.082,arm3_eps,2022.2.5,Win32,144.1337561,6136aee758e3f41323d8c0c7,64aea9d0f615b6559c281482,64becba8123eeb0d1661eb9f,right,1,0.3,0.2429,0,-0.006483324,0.7624,29,0,29,0,1,,,,,,,,,,
,,072125,001,2023-07-24_20h06.55.082,arm3_eps,2022.2.5,Win32,144.1337561,6136aee758e3f41323d8c0c7,64aea9d0f615b6559c281482,64becba8123eeb0d1661eb9f,right,1,0.3,0.2429,0,0.019815269,0.5283,30,0,30,0,1,,,,,,,,,,
,,072125,001,2023-07-24_20h06.55.082,arm3_eps,2022.2.5,Win32,144.1337561,6136aee758e3f41323d8c0c7,64aea9d0f615b6559c281482,64becba8123eeb0d1661eb9f,up,1,0.3,0.2429,0,0,0.7695,31,0,31,0,1,,,,,,,,,,
,,072125,001,2023-07-24_20h06.55.082,arm3_eps,2022.2.5,Win32,144.1337561,6136aee758e3f41323d8c0c7,64aea9d0f615b6559c281482,64becba8123eeb0d1661eb9f,right,1,0.3,0.2429,0,0.011952921,0.9912,32,0,32,0,1,,,,,,,,,,
,,072125,001,2023-07-24_20h06.55.082,arm3_eps,2022.2.5,Win32,144.1337561,6136aee758e3f41323d8c0c7,64aea9d0f615b6559c281482,64becba8123eeb0d1661eb9f,right,1,0.3,0.2429,0,-0.011473579,0.6005,33,0,33,0,1,,,,,,,,,,
,,072125,001,2023-07-24_20h06.55.082,arm3_eps,2022.2.5,Win32,144.1337561,6136aee758e3f41323d8c0c7,64aea9d0f615b6559c281482,64becba8123eeb0d1661eb9f,down,1,0.3,0.2429,0,0,0.5243,34,0,34,0,1,,,,,,,,,,
,,072125,001,2023-07-24_20h06.55.082,arm3_eps,2022.2.5,Win32,144.1337561,6136aee758e3f41323d8c0c7,64aea9d0f615b6559c281482,64becba8123eeb0d1661eb9f,right,1,0.3,0.2429,0,0.012514301,1.0107,35,0,35,0,1,,,,,,,,,,
,,072125,001,2023-07-24_20h06.55.082,arm3_eps,2022.2.5,Win32,144.1337561,6136aee758e3f41323d8c0c7,64aea9d0f615b6559c281482,64becba8123eeb0d1661eb9f,right,1,0.3,0.2429,0,-0.02101168,0.8557,36,0,36,0,1,,,,,,,,,,
,,072125,001,2023-07-24_20h06.55.082,arm3_eps,2022.2.5,Win32,144.1337561,6136aee758e3f41323d8c0c7,64aea9d0f615b6559c281482,64becba8123eeb0d1661eb9f,right,1,0.3,0.2429,0,-0.011666951,1.0507,37,0,37,0,1,,,,,,,,,,
,,072125,001,2023-07-24_20h06.55.082,arm3_eps,2022.2.5,Win32,144.1337561,6136aee758e3f41323d8c0c7,64aea9d0f615b6559c281482,64becba8123eeb0d1661eb9f,right,1,0.3,0.2429,0,-0.005710219,0.803,38,0,38,0,1,,,,,,,,,,
,,072125,001,2023-07-24_20h06.55.082,arm3_eps,2022.2.5,Win32,144.1337561,6136aee758e3f41323d8c0c7,64aea9d0f615b6559c281482,64becba8123eeb0d1661eb9f,up,1,0.3,0.2429,1,0,0.4126,39,0,39,0,1,,,,,,,,,,
,,072125,001,2023-07-24_20h06.55.082,arm3_eps,2022.2.5,Win32,144.1337561,6136aee758e3f41323d8c0c7,64aea9d0f615b6559c281482,64becba8123eeb0d1661eb9f,right,1,0.3,0.2429,1,0.003088489,0.992,40,0,40,0,1,,,,,,,,,,
,,072125,001,2023-07-24_20h06.55.082,arm3_eps,2022.2.5,Win32,144.1337561,6136aee758e3f41323d8c0c7,64aea9d0f615b6559c281482,64becba8123eeb0d1661eb9f,right,1,0.3,0.2429,1,-0.002388771,0.4995,41,0,41,0,1,,,,,,,,,,
,,072125,001,2023-07-24_20h06.55.082,arm3_eps,2022.2.5,Win32,144.1337561,6136aee758e3f41323d8c0c7,64aea9d0f615b6559c281482,64becba8123eeb0d1661eb9f,right,1,0.3,0.2429,1,0.006181917,0.4569,42,0,42,0,1,,,,,,,,,,
,,072125,001,2023-07-24_20h06.55.082,arm3_eps,2022.2.5,Win32,144.1337561,6136aee758e3f41323d8c0c7,64aea9d0f615b6559c281482,64becba8123eeb0d1661eb9f,up,1,0.3,0.2429,1,0,0.6247,43,0,43,0,1,,,,,,,,,,
,,072125,001,2023-07-24_20h06.55.082,arm3_eps,2022.2.5,Win32,144.1337561,6136aee758e3f41323d8c0c7,64aea9d0f615b6559c281482,64becba8123eeb0d1661eb9f,right,1,0.3,0.2429,1,0.032372399,1.3166,44,0,44,0,1,,,,,,,,,,
,,072125,001,2023-07-24_20h06.55.082,arm3_eps,2022.2.5,Win32,144.1337561,6136aee758e3f41323d8c0c7,64aea9d0f615b6559c281482,64becba8123eeb0d1661eb9f,up,1,0.3,0.2429,1,0,0.3705,45,0,45,0,1,,,,,,,,,,
,,072125,001,2023-07-24_20h06.55.082,arm3_eps,2022.2.5,Win32,144.1337561,6136aee758e3f41323d8c0c7,64aea9d0f615b6559c281482,64becba8123eeb0d1661eb9f,right,1,0.3,0.2429,1,0.014585978,1.0117,46,0,46,0,1,,,,,,,,,,
,,072125,001,2023-07-24_20h06.55.082,arm3_eps,2022.2.5,Win32,144.1337561,6136aee758e3f41323d8c0c7,64aea9d0f615b6559c281482,64becba8123eeb0d1661eb9f,up,-1,0.3,0.2429,1,0,2.0777,47,0,47,0,1,,,,,,,,,,
,,072125,001,2023-07-24_20h06.55.082,arm3_eps,2022.2.5,Win32,144.1337561,6136aee758e3f41323d8c0c7,64aea9d0f615b6559c281482,64becba8123eeb0d1661eb9f,down,-1,0.3,0.2429,2,0,1.4401,48,0,48,0,1,,,,,,,,,,
,,072125,001,2023-07-24_20h06.55.082,arm3_eps,2022.2.5,Win32,144.1337561,6136aee758e3f41323d8c0c7,64aea9d0f615b6559c281482,64becba8123eeb0d1661eb9f,up,-1,0.3,0.2429,2,0,1.1814,49,0,49,0,1,,,,,,,,,,
space,1.8351,072125,001,2023-07-24_20h06.55.082,arm3_eps,2022.2.5,Win32,144.1337561,6136aee758e3f41323d8c0c7,64aea9d0f615b6559c281482,64becba8123eeb0d1661eb9f,,,,,,,,,,,,,,,,,,,,,,
space,4.2487,072125,001,2023-07-24_20h06.55.082,arm3_eps,2022.2.5,Win32,144.1337561,6136aee758e3f41323d8c0c7,64aea9d0f615b6559c281482,64becba8123eeb0d1661eb9f,up,1,0.3,0.2429,-1,0,1.1344,,,,,,0,0,0,0,1,,,,,
,,072125,001,2023-07-24_20h06.55.082,arm3_eps,2022.2.5,Win32,144.1337561,6136aee758e3f41323d8c0c7,64aea9d0f615b6559c281482,64becba8123eeb0d1661eb9f,right,1,0.3,0.2429,-1,0.010413193,2.3847,,,,,,1,0,1,0,1,,,,,
,,072125,001,2023-07-24_20h06.55.082,arm3_eps,2022.2.5,Win32,144.1337561,6136aee758e3f41323d8c0c7,64aea9d0f615b6559c281482,64becba8123eeb0d1661eb9f,right,1,0.3,0.2429,-1,0.013074115,0.5206,,,,,,2,0,2,0,1,,,,,
,,072125,001,2023-07-24_20h06.55.082,arm3_eps,2022.2.5,Win32,144.1337561,6136aee758e3f41323d8c0c7,64aea9d0f615b6559c281482,64becba8123eeb0d1661eb9f,right,1,0.3,0.2429,-1,-0.000193458,0.5473,,,,,,3,0,3,0,1,,,,,
,,072125,001,2023-07-24_20h06.55.082,arm3_eps,2022.2.5,Win32,144.1337561,6136aee758e3f41323d8c0c7,64aea9d0f615b6559c281482,64becba8123eeb0d1661eb9f,up,1,0.3,0.2429,-1,0,0.89,,,,,,4,0,4,0,1,,,,,
,,072125,001,2023-07-24_20h06.55.082,arm3_eps,2022.2.5,Win32,144.1337561,6136aee758e3f41323d8c0c7,64aea9d0f615b6559c281482,64becba8123eeb0d1661eb9f,right,1,0.3,0.2429,-1,-0.014441867,0.8504,,,,,,5,0,5,0,1,,,,,
,,072125,001,2023-07-24_20h06.55.082,arm3_eps,2022.2.5,Win32,144.1337561,6136aee758e3f41323d8c0c7,64aea9d0f615b6559c281482,64becba8123eeb0d1661eb9f,down,1,0.3,0.2429,-2,0,0.7581,,,,,,6,0,6,0,1,,,,,
,,072125,001,2023-07-24_20h06.55.082,arm3_eps,2022.2.5,Win32,144.1337561,6136aee758e3f41323d8c0c7,64aea9d0f615b6559c281482,64becba8123eeb0d1661eb9f,right,1,0.3,0.2429,-2,0.022787139,0.9678,,,,,,7,0,7,0,1,,,,,
,,072125,001,2023-07-24_20h06.55.082,arm3_eps,2022.2.5,Win32,144.1337561,6136aee758e3f41323d8c0c7,64aea9d0f615b6559c281482,64becba8123eeb0d1661eb9f,right,1,0.3,0.2429,-2,0.000639877,0.4575,,,,,,8,0,8,0,1,,,,,
,,072125,001,2023-07-24_20h06.55.082,arm3_eps,2022.2.5,Win32,144.1337561,6136aee758e3f41323d8c0c7,64aea9d0f615b6559c281482,64becba8123eeb0d1661eb9f,right,1,0.3,0.2429,-2,0.039618221,0.9339,,,,,,9,0,9,0,1,,,,,
,,072125,001,2023-07-24_20h06.55.082,arm3_eps,2022.2.5,Win32,144.1337561,6136aee758e3f41323d8c0c7,64aea9d0f615b6559c281482,64becba8123eeb0d1661eb9f,right,1,0.3,0.2429,-2,0.042055109,0.7144,,,,,,10,0,10,0,1,,,,,
,,072125,001,2023-07-24_20h06.55.082,arm3_eps,2022.2.5,Win32,144.1337561,6136aee758e3f41323d8c0c7,64aea9d0f615b6559c281482,64becba8123eeb0d1661eb9f,up,1,0.3,0.2429,-1,0,0.3868,,,,,,11,0,11,0,1,,,,,
,,072125,001,2023-07-24_20h06.55.082,arm3_eps,2022.2.5,Win32,144.1337561,6136aee758e3f41323d8c0c7,64aea9d0f615b6559c281482,64becba8123eeb0d1661eb9f,right,1,0.3,0.2429,-1,-0.004458918,0.9136,,,,,,12,0,12,0,1,,,,,
,,072125,001,2023-07-24_20h06.55.082,arm3_eps,2022.2.5,Win32,144.1337561,6136aee758e3f41323d8c0c7,64aea9d0f615b6559c281482,64becba8123eeb0d1661eb9f,right,1,0.3,0.2429,-1,0.011522832,0.8512,,,,,,13,0,13,0,1,,,,,
,,072125,001,2023-07-24_20h06.55.082,arm3_eps,2022.2.5,Win32,144.1337561,6136aee758e3f41323d8c0c7,64aea9d0f615b6559c281482,64becba8123eeb0d1661eb9f,right,1,0.3,0.2429,-1,0.03506627,0.6674,,,,,,14,0,14,0,1,,,,,
,,072125,001,2023-07-24_20h06.55.082,arm3_eps,2022.2.5,Win32,144.1337561,6136aee758e3f41323d8c0c7,64aea9d0f615b6559c281482,64becba8123eeb0d1661eb9f,up,1,0.3,0.2429,-1,0,0.2765,,,,,,15,0,15,0,1,,,,,
,,072125,001,2023-07-24_20h06.55.082,arm3_eps,2022.2.5,Win32,144.1337561,6136aee758e3f41323d8c0c7,64aea9d0f615b6559c281482,64becba8123eeb0d1661eb9f,right,1,0.3,0.2429,-1,0.001896958,0.8281,,,,,,16,0,16,0,1,,,,,
,,072125,001,2023-07-24_20h06.55.082,arm3_eps,2022.2.5,Win32,144.1337561,6136aee758e3f41323d8c0c7,64aea9d0f615b6559c281482,64becba8123eeb0d1661eb9f,right,1,0.3,0.2429,-1,0.010471426,0.2859,,,,,,17,0,17,0,1,,,,,
,,072125,001,2023-07-24_20h06.55.082,arm3_eps,2022.2.5,Win32,144.1337561,6136aee758e3f41323d8c0c7,64aea9d0f615b6559c281482,64becba8123eeb0d1661eb9f,right,1,0.3,0.2429,-1,0.008362186,0.3777,,,,,,18,0,18,0,1,,,,,
,,072125,001,2023-07-24_20h06.55.082,arm3_eps,2022.2.5,Win32,144.1337561,6136aee758e3f41323d8c0c7,64aea9d0f615b6559c281482,64becba8123eeb0d1661eb9f,up,1,0.3,0.2429,-1,0,1.3253,,,,,,19,0,19,0,1,,,,,
,,072125,001,2023-07-24_20h06.55.082,arm3_eps,2022.2.5,Win32,144.1337561,6136aee758e3f41323d8c0c7,64aea9d0f615b6559c281482,64becba8123eeb0d1661eb9f,right,1,0.3,0.2429,-1,0.00327143,0.741,,,,,,20,0,20,0,1,,,,,
,,072125,001,2023-07-24_20h06.55.082,arm3_eps,2022.2.5,Win32,144.1337561,6136aee758e3f41323d8c0c7,64aea9d0f615b6559c281482,64becba8123eeb0d1661eb9f,right,1,0.3,0.2429,-1,0.031035256,0.337,,,,,,21,0,21,0,1,,,,,
,,072125,001,2023-07-24_20h06.55.082,arm3_eps,2022.2.5,Win32,144.1337561,6136aee758e3f41323d8c0c7,64aea9d0f615b6559c281482,64becba8123eeb0d1661eb9f,up,1,0.3,0.2429,0,0,0.4217,,,,,,22,0,22,0,1,,,,,
,,072125,001,2023-07-24_20h06.55.082,arm3_eps,2022.2.5,Win32,144.1337561,6136aee758e3f41323d8c0c7,64aea9d0f615b6559c281482,64becba8123eeb0d1661eb9f,right,1,0.3,0.2429,0,0.020749375,0.804,,,,,,23,0,23,0,1,,,,,
,,072125,001,2023-07-24_20h06.55.082,arm3_eps,2022.2.5,Win32,144.1337561,6136aee758e3f41323d8c0c7,64aea9d0f615b6559c281482,64becba8123eeb0d1661eb9f,up,1,0.3,0.2429,0,0,0.6879,,,,,,24,0,24,0,1,,,,,
,,072125,001,2023-07-24_20h06.55.082,arm3_eps,2022.2.5,Win32,144.1337561,6136aee758e3f41323d8c0c7,64aea9d0f615b6559c281482,64becba8123eeb0d1661eb9f,right,1,0.3,0.2429,0,0.02148653,0.8019,,,,,,25,0,25,0,1,,,,,
,,072125,001,2023-07-24_20h06.55.082,arm3_eps,2022.2.5,Win32,144.1337561,6136aee758e3f41323d8c0c7,64aea9d0f615b6559c281482,64becba8123eeb0d1661eb9f,down,1,0.3,0.2429,0,0,1.0416,,,,,,26,0,26,0,1,,,,,
,,072125,001,2023-07-24_20h06.55.082,arm3_eps,2022.2.5,Win32,144.1337561,6136aee758e3f41323d8c0c7,64aea9d0f615b6559c281482,64becba8123eeb0d1661eb9f,right,1,0.3,0.2429,0,0.019315354,0.7716,,,,,,27,0,27,0,1,,,,,
,,072125,001,2023-07-24_20h06.55.082,arm3_eps,2022.2.5,Win32,144.1337561,6136aee758e3f41323d8c0c7,64aea9d0f615b6559c281482,64becba8123eeb0d1661eb9f,right,1,0.3,0.2429,0,0.015281434,0.3732,,,,,,28,0,28,0,1,,,,,
,,072125,001,2023-07-24_20h06.55.082,arm3_eps,2022.2.5,Win32,144.1337561,6136aee758e3f41323d8c0c7,64aea9d0f615b6559c281482,64becba8123eeb0d1661eb9f,up,-1,0.3,0.2429,1,0,0.6943,,,,,,29,0,29,0,1,,,,,
,,072125,001,2023-07-24_20h06.55.082,arm3_eps,2022.2.5,Win32,144.1337561,6136aee758e3f41323d8c0c7,64aea9d0f615b6559c281482,64becba8123eeb0d1661eb9f,right,-1,0.3,0.2429,1,-0.044932731,0.7173,,,,,,30,0,30,0,1,,,,,
,,072125,001,2023-07-24_20h06.55.082,arm3_eps,2022.2.5,Win32,144.1337561,6136aee758e3f41323d8c0c7,64aea9d0f615b6559c281482,64becba8123eeb0d1661eb9f,down,1,0.3,0.2429,1,0,0.4571,,,,,,31,0,31,0,1,,,,,
,,072125,001,2023-07-24_20h06.55.082,arm3_eps,2022.2.5,Win32,144.1337561,6136aee758e3f41323d8c0c7,64aea9d0f615b6559c281482,64becba8123eeb0d1661eb9f,right,1,0.3,0.2429,1,0.009913068,0.971,,,,,,32,0,32,0,1,,,,,
,,072125,001,2023-07-24_20h06.55.082,arm3_eps,2022.2.5,Win32,144.1337561,6136aee758e3f41323d8c0c7,64aea9d0f615b6559c281482,64becba8123eeb0d1661eb9f,right,1,0.3,0.2429,1,0.018771362,1.0674,,,,,,33,0,33,0,1,,,,,
,,072125,001,2023-07-24_20h06.55.082,arm3_eps,2022.2.5,Win32,144.1337561,6136aee758e3f41323d8c0c7,64aea9d0f615b6559c281482,64becba8123eeb0d1661eb9f,up,1,0.3,0.2429,2,0,0.4224,,,,,,34,0,34,0,1,,,,,
,,072125,001,2023-07-24_20h06.55.082,arm3_eps,2022.2.5,Win32,144.1337561,6136aee758e3f41323d8c0c7,64aea9d0f615b6559c281482,64becba8123eeb0d1661eb9f,right,1,0.3,0.2429,2,0.013570088,0.741,,,,,,35,0,35,0,1,,,,,
,,072125,001,2023-07-24_20h06.55.082,arm3_eps,2022.2.5,Win32,144.1337561,6136aee758e3f41323d8c0c7,64aea9d0f615b6559c281482,64becba8123eeb0d1661eb9f,up,-1,0.3,0.2429,2,0,0.6174,,,,,,36,0,36,0,1,,,,,
,,072125,001,2023-07-24_20h06.55.082,arm3_eps,2022.2.5,Win32,144.1337561,6136aee758e3f41323d8c0c7,64aea9d0f615b6559c281482,64becba8123eeb0d1661eb9f,right,-1,0.3,0.2429,2,-0.018156267,1.172,,,,,,37,0,37,0,1,,,,,
,,072125,001,2023-07-24_20h06.55.082,arm3_eps,2022.2.5,Win32,144.1337561,6136aee758e3f41323d8c0c7,64aea9d0f615b6559c281482,64becba8123eeb0d1661eb9f,down,1,0.3,0.2429,2,0,0.4842,,,,,,38,0,38,0,1,,,,,
,,072125,001,2023-07-24_20h06.55.082,arm3_eps,2022.2.5,Win32,144.1337561,6136aee758e3f41323d8c0c7,64aea9d0f615b6559c281482,64becba8123eeb0d1661eb9f,right,1,0.3,0.2429,2,-0.012062779,0.7649,,,,,,39,0,39,0,1,,,,,
,,072125,001,2023-07-24_20h06.55.082,arm3_eps,2022.2.5,Win32,144.1337561,6136aee758e3f41323d8c0c7,64aea9d0f615b6559c281482,64becba8123eeb0d1661eb9f,down,-1,0.3,0.2429,2,0,1.0684,,,,,,40,0,40,0,1,,,,,
,,072125,001,2023-07-24_20h06.55.082,arm3_eps,2022.2.5,Win32,144.1337561,6136aee758e3f41323d8c0c7,64aea9d0f615b6559c281482,64becba8123eeb0d1661eb9f,right,-1,0.3,0.2429,2,-0.027449589,0.8245,,,,,,41,0,41,0,1,,,,,
,,072125,001,2023-07-24_20h06.55.082,arm3_eps,2022.2.5,Win32,144.1337561,6136aee758e3f41323d8c0c7,64aea9d0f615b6559c281482,64becba8123eeb0d1661eb9f,right,-1,0.3,0.2429,2,-0.020473871,0.3832,,,,,,42,0,42,0,1,,,,,
,,072125,001,2023-07-24_20h06.55.082,arm3_eps,2022.2.5,Win32,144.1337561,6136aee758e3f41323d8c0c7,64aea9d0f615b6559c281482,64becba8123eeb0d1661eb9f,up,1,0.3,0.2429,1,0,0.5209,,,,,,43,0,43,0,1,,,,,
,,072125,001,2023-07-24_20h06.55.082,arm3_eps,2022.2.5,Win32,144.1337561,6136aee758e3f41323d8c0c7,64aea9d0f615b6559c281482,64becba8123eeb0d1661eb9f,right,1,0.3,0.2429,1,0.02120089,0.7413,,,,,,44,0,44,0,1,,,,,
,,072125,001,2023-07-24_20h06.55.082,arm3_eps,2022.2.5,Win32,144.1337561,6136aee758e3f41323d8c0c7,64aea9d0f615b6559c281482,64becba8123eeb0d1661eb9f,up,1,0.3,0.2429,2,0,1.4295,,,,,,45,0,45,0,1,,,,,
,,072125,001,2023-07-24_20h06.55.082,arm3_eps,2022.2.5,Win32,144.1337561,6136aee758e3f41323d8c0c7,64aea9d0f615b6559c281482,64becba8123eeb0d1661eb9f,right,1,0.3,0.2429,2,-0.023585547,1.0094,,,,,,46,0,46,0,1,,,,,
,,072125,001,2023-07-24_20h06.55.082,arm3_eps,2022.2.5,Win32,144.1337561,6136aee758e3f41323d8c0c7,64aea9d0f615b6559c281482,64becba8123eeb0d1661eb9f,right,1,0.3,0.2429,2,-0.013732833,0.4242,,,,,,47,0,47,0,1,,,,,
,,072125,001,2023-07-24_20h06.55.082,arm3_eps,2022.2.5,Win32,144.1337561,6136aee758e3f41323d8c0c7,64aea9d0f615b6559c281482,64becba8123eeb0d1661eb9f,right,1,0.3,0.2429,2,-0.022244837,0.6569,,,,,,48,0,48,0,1,,,,,
,,072125,001,2023-07-24_20h06.55.082,arm3_eps,2022.2.5,Win32,144.1337561,6136aee758e3f41323d8c0c7,64aea9d0f615b6559c281482,64becba8123eeb0d1661eb9f,right,1,0.3,0.2429,2,0.003281099,0.4892,,,,,,49,0,49,0,1,,,,,
,,072125,001,2023-07-24_20h06.55.082,arm3_eps,2022.2.5,Win32,144.1337561,6136aee758e3f41323d8c0c7,64aea9d0f615b6559c281482,64becba8123eeb0d1661eb9f,down,1,0.3,0.2429,2,0,1.6113,,,,,,50,0,50,0,1,,,,,
,,072125,001,2023-07-24_20h06.55.082,arm3_eps,2022.2.5,Win32,144.1337561,6136aee758e3f41323d8c0c7,64aea9d0f615b6559c281482,64becba8123eeb0d1661eb9f,right,1,0.3,0.2429,2,-0.000227037,0.879,,,,,,51,0,51,0,1,,,,,
,,072125,001,2023-07-24_20h06.55.082,arm3_eps,2022.2.5,Win32,144.1337561,6136aee758e3f41323d8c0c7,64aea9d0f615b6559c281482,64becba8123eeb0d1661eb9f,right,1,0.3,0.2429,2,0.00882905,2.0308,,,,,,52,0,52,0,1,,,,,
,,072125,001,2023-07-24_20h06.55.082,arm3_eps,2022.2.5,Win32,144.1337561,6136aee758e3f41323d8c0c7,64aea9d0f615b6559c281482,64becba8123eeb0d1661eb9f,right,1,0.3,0.2429,2,0.027080714,0.366,,,,,,53,0,53,0,1,,,,,
,,072125,001,2023-07-24_20h06.55.082,arm3_eps,2022.2.5,Win32,144.1337561,6136aee758e3f41323d8c0c7,64aea9d0f615b6559c281482,64becba8123eeb0d1661eb9f,right,1,0.3,0.2429,2,-0.006416529,1.1538,,,,,,54,0,54,0,1,,,,,
,,072125,001,2023-07-24_20h06.55.082,arm3_eps,2022.2.5,Win32,144.1337561,6136aee758e3f41323d8c0c7,64aea9d0f615b6559c281482,64becba8123eeb0d1661eb9f,up,1,0.3,0.2429,2,0,0.6339,,,,,,55,0,55,0,1,,,,,
,,072125,001,2023-07-24_20h06.55.082,arm3_eps,2022.2.5,Win32,144.1337561,6136aee758e3f41323d8c0c7,64aea9d0f615b6559c281482,64becba8123eeb0d1661eb9f,right,1,0.3,0.2429,2,0.004473009,0.7622,,,,,,56,0,56,0,1,,,,,
,,072125,001,2023-07-24_20h06.55.082,arm3_eps,2022.2.5,Win32,144.1337561,6136aee758e3f41323d8c0c7,64aea9d0f615b6559c281482,64becba8123eeb0d1661eb9f,up,1,0.3,0.2429,2,0,0.5366,,,,,,57,0,57,0,1,,,,,
,,072125,001,2023-07-24_20h06.55.082,arm3_eps,2022.2.5,Win32,144.1337561,6136aee758e3f41323d8c0c7,64aea9d0f615b6559c281482,64becba8123eeb0d1661eb9f,right,1,0.3,0.2429,2,0.044187891,0.7217,,,,,,58,0,58,0,1,,,,,
,,072125,001,2023-07-24_20h06.55.082,arm3_eps,2022.2.5,Win32,144.1337561,6136aee758e3f41323d8c0c7,64aea9d0f615b6559c281482,64becba8123eeb0d1661eb9f,right,1,0.3,0.2429,2,0.040921412,0.3131,,,,,,59,0,59,0,1,,,,,
,,072125,001,2023-07-24_20h06.55.082,arm3_eps,2022.2.5,Win32,144.1337561,6136aee758e3f41323d8c0c7,64aea9d0f615b6559c281482,64becba8123eeb0d1661eb9f,right,1,0.3,0.2429,2,0.046032477,0.1863,,,,,,60,0,60,0,1,,,,,
,,072125,001,2023-07-24_20h06.55.082,arm3_eps,2022.2.5,Win32,144.1337561,6136aee758e3f41323d8c0c7,64aea9d0f615b6559c281482,64becba8123eeb0d1661eb9f,up,-1,0.3,0.2429,2,0,0.3753,,,,,,61,0,61,0,1,,,,,
,,072125,001,2023-07-24_20h06.55.082,arm3_eps,2022.2.5,Win32,144.1337561,6136aee758e3f41323d8c0c7,64aea9d0f615b6559c281482,64becba8123eeb0d1661eb9f,right,-1,0.3,0.2429,2,0.018199971,0.5681,,,,,,62,0,62,0,1,,,,,
,,072125,001,2023-07-24_20h06.55.082,arm3_eps,2022.2.5,Win32,144.1337561,6136aee758e3f41323d8c0c7,64aea9d0f615b6559c281482,64becba8123eeb0d1661eb9f,right,-1,0.3,0.2429,2,-0.007011899,0.3939,,,,,,63,0,63,0,1,,,,,
,,072125,001,2023-07-24_20h06.55.082,arm3_eps,2022.2.5,Win32,144.1337561,6136aee758e3f41323d8c0c7,64aea9d0f615b6559c281482,64becba8123eeb0d1661eb9f,right,-1,0.3,0.2429,2,-0.03491903,0.9267,,,,,,64,0,64,0,1,,,,,
,,072125,001,2023-07-24_20h06.55.082,arm3_eps,2022.2.5,Win32,144.1337561,6136aee758e3f41323d8c0c7,64aea9d0f615b6559c281482,64becba8123eeb0d1661eb9f,down,1,0.3,0.2429,2,0,0.5474,,,,,,65,0,65,0,1,,,,,
,,072125,001,2023-07-24_20h06.55.082,arm3_eps,2022.2.5,Win32,144.1337561,6136aee758e3f41323d8c0c7,64aea9d0f615b6559c281482,64becba8123eeb0d1661eb9f,right,1,0.3,0.2429,2,0.012222506,0.7586,,,,,,66,0,66,0,1,,,,,
,,072125,001,2023-07-24_20h06.55.082,arm3_eps,2022.2.5,Win32,144.1337561,6136aee758e3f41323d8c0c7,64aea9d0f615b6559c281482,64becba8123eeb0d1661eb9f,right,1,0.3,0.2429,2,-0.004710959,0.1477,,,,,,67,0,67,0,1,,,,,
,,072125,001,2023-07-24_20h06.55.082,arm3_eps,2022.2.5,Win32,144.1337561,6136aee758e3f41323d8c0c7,64aea9d0f615b6559c281482,64becba8123eeb0d1661eb9f,right,1,0.3,0.2429,2,0.019734261,0.1309,,,,,,68,0,68,0,1,,,,,
,,072125,001,2023-07-24_20h06.55.082,arm3_eps,2022.2.5,Win32,144.1337561,6136aee758e3f41323d8c0c7,64aea9d0f615b6559c281482,64becba8123eeb0d1661eb9f,right,1,0.3,0.2429,2,0.035167688,0.1443,,,,,,69,0,69,0,1,,,,,
,,072125,001,2023-07-24_20h06.55.082,arm3_eps,2022.2.5,Win32,144.1337561,6136aee758e3f41323d8c0c7,64aea9d0f615b6559c281482,64becba8123eeb0d1661eb9f,up,-1,0.3,0.2429,3,0,1.0474,,,,,,70,0,70,0,1,,,,,
,,072125,001,2023-07-24_20h06.55.082,arm3_eps,2022.2.5,Win32,144.1337561,6136aee758e3f41323d8c0c7,64aea9d0f615b6559c281482,64becba8123eeb0d1661eb9f,right,-1,0.3,0.2429,3,-0.01004407,0.6225,,,,,,71,0,71,0,1,,,,,
,,072125,001,2023-07-24_20h06.55.082,arm3_eps,2022.2.5,Win32,144.1337561,6136aee758e3f41323d8c0c7,64aea9d0f615b6559c281482,64becba8123eeb0d1661eb9f,right,-1,0.3,0.2429,3,-0.005243811,0.13,,,,,,72,0,72,0,1,,,,,
,,072125,001,2023-07-24_20h06.55.082,arm3_eps,2022.2.5,Win32,144.1337561,6136aee758e3f41323d8c0c7,64aea9d0f615b6559c281482,64becba8123eeb0d1661eb9f,right,-1,0.3,0.2429,3,-0.009243432,0.1105,,,,,,73,0,73,0,1,,,,,
,,072125,001,2023-07-24_20h06.55.082,arm3_eps,2022.2.5,Win32,144.1337561,6136aee758e3f41323d8c0c7,64aea9d0f615b6559c281482,64becba8123eeb0d1661eb9f,right,-1,0.3,0.2429,3,-0.01020488,0.1283,,,,,,74,0,74,0,1,,,,,
,,072125,001,2023-07-24_20h06.55.082,arm3_eps,2022.2.5,Win32,144.1337561,6136aee758e3f41323d8c0c7,64aea9d0f615b6559c281482,64becba8123eeb0d1661eb9f,down,-1,0.3,0.2429,3,0,0.6371,,,,,,75,0,75,0,1,,,,,
,,072125,001,2023-07-24_20h06.55.082,arm3_eps,2022.2.5,Win32,144.1337561,6136aee758e3f41323d8c0c7,64aea9d0f615b6559c281482,64becba8123eeb0d1661eb9f,right,-1,0.3,0.2429,3,-0.0183455,0.6845,,,,,,76,0,76,0,1,,,,,
,,072125,001,2023-07-24_20h06.55.082,arm3_eps,2022.2.5,Win32,144.1337561,6136aee758e3f41323d8c0c7,64aea9d0f615b6559c281482,64becba8123eeb0d1661eb9f,right,-1,0.3,0.2429,3,-0.054232783,0.1692,,,,,,77,0,77,0,1,,,,,
,,072125,001,2023-07-24_20h06.55.082,arm3_eps,2022.2.5,Win32,144.1337561,6136aee758e3f41323d8c0c7,64aea9d0f615b6559c281482,64becba8123eeb0d1661eb9f,right,-1,0.3,0.2429,3,-0.044264316,0.1363,,,,,,78,0,78,0,1,,,,,
,,072125,001,2023-07-24_20h06.55.082,arm3_eps,2022.2.5,Win32,144.1337561,6136aee758e3f41323d8c0c7,64aea9d0f615b6559c281482,64becba8123eeb0d1661eb9f,right,-1,0.3,0.2429,3,-0.042705006,0.2153,,,,,,79,0,79,0,1,,,,,
,,072125,001,2023-07-24_20h06.55.082,arm3_eps,2022.2.5,Win32,144.1337561,6136aee758e3f41323d8c0c7,64aea9d0f615b6559c281482,64becba8123eeb0d1661eb9f,down,-1,0.3,0.2429,3,0,0.4595,,,,,,80,0,80,0,1,,,,,
,,072125,001,2023-07-24_20h06.55.082,arm3_eps,2022.2.5,Win32,144.1337561,6136aee758e3f41323d8c0c7,64aea9d0f615b6559c281482,64becba8123eeb0d1661eb9f,right,-1,0.3,0.2429,3,-0.02249098,0.6571,,,,,,81,0,81,0,1,,,,,
,,072125,001,2023-07-24_20h06.55.082,arm3_eps,2022.2.5,Win32,144.1337561,6136aee758e3f41323d8c0c7,64aea9d0f615b6559c281482,64becba8123eeb0d1661eb9f,right,-1,0.3,0.2429,3,-0.059868476,0.1354,,,,,,82,0,82,0,1,,,,,
,,072125,001,2023-07-24_20h06.55.082,arm3_eps,2022.2.5,Win32,144.1337561,6136aee758e3f41323d8c0c7,64aea9d0f615b6559c281482,64becba8123eeb0d1661eb9f,right,-1,0.3,0.2429,3,-0.084615478,0.1323,,,,,,83,0,83,0,1,,,,,
,,072125,001,2023-07-24_20h06.55.082,arm3_eps,2022.2.5,Win32,144.1337561,6136aee758e3f41323d8c0c7,64aea9d0f615b6559c281482,64becba8123eeb0d1661eb9f,right,-1,0.3,0.2429,3,-0.125509036,0.1218,,,,,,84,0,84,0,1,,,,,
,,072125,001,2023-07-24_20h06.55.082,arm3_eps,2022.2.5,Win32,144.1337561,6136aee758e3f41323d8c0c7,64aea9d0f615b6559c281482,64becba8123eeb0d1661eb9f,down,-1,0.3,0.2429,4,0,0.2763,,,,,,85,0,85,0,1,,,,,
,,072125,001,2023-07-24_20h06.55.082,arm3_eps,2022.2.5,Win32,144.1337561,6136aee758e3f41323d8c0c7,64aea9d0f615b6559c281482,64becba8123eeb0d1661eb9f,right,-1,0.3,0.2429,4,0.01191259,0.5868,,,,,,86,0,86,0,1,,,,,
,,072125,001,2023-07-24_20h06.55.082,arm3_eps,2022.2.5,Win32,144.1337561,6136aee758e3f41323d8c0c7,64aea9d0f615b6559c281482,64becba8123eeb0d1661eb9f,right,-1,0.3,0.2429,4,0.000260817,0.1392,,,,,,87,0,87,0,1,,,,,
,,072125,001,2023-07-24_20h06.55.082,arm3_eps,2022.2.5,Win32,144.1337561,6136aee758e3f41323d8c0c7,64aea9d0f615b6559c281482,64becba8123eeb0d1661eb9f,right,-1,0.3,0.2429,4,-0.039714963,0.1524,,,,,,88,0,88,0,1,,,,,
,,072125,001,2023-07-24_20h06.55.082,arm3_eps,2022.2.5,Win32,144.1337561,6136aee758e3f41323d8c0c7,64aea9d0f615b6559c281482,64becba8123eeb0d1661eb9f,right,-1,0.3,0.2429,4,-0.053631288,0.3852,,,,,,89,0,89,0,1,,,,,
,,072125,001,2023-07-24_20h06.55.082,arm3_eps,2022.2.5,Win32,144.1337561,6136aee758e3f41323d8c0c7,64aea9d0f615b6559c281482,64becba8123eeb0d1661eb9f,down,-1,0.3,0.2429,5,0,0.3962,,,,,,90,0,90,0,1,,,,,
,,072125,001,2023-07-24_20h06.55.082,arm3_eps,2022.2.5,Win32,144.1337561,6136aee758e3f41323d8c0c7,64aea9d0f615b6559c281482,64becba8123eeb0d1661eb9f,right,-1,0.3,0.2429,5,0.003028736,0.592,,,,,,91,0,91,0,1,,,,,
,,072125,001,2023-07-24_20h06.55.082,arm3_eps,2022.2.5,Win32,144.1337561,6136aee758e3f41323d8c0c7,64aea9d0f615b6559c281482,64becba8123eeb0d1661eb9f,right,-1,0.3,0.2429,5,-0.00180215,0.1322,,,,,,92,0,92,0,1,,,,,
,,072125,001,2023-07-24_20h06.55.082,arm3_eps,2022.2.5,Win32,144.1337561,6136aee758e3f41323d8c0c7,64aea9d0f615b6559c281482,64becba8123eeb0d1661eb9f,right,-1,0.3,0.2429,5,-0.009075261,0.1377,,,,,,93,0,93,0,1,,,,,
,,072125,001,2023-07-24_20h06.55.082,arm3_eps,2022.2.5,Win32,144.1337561,6136aee758e3f41323d8c0c7,64aea9d0f615b6559c281482,64becba8123eeb0d1661eb9f,right,-1,0.3,0.2429,5,-0.03969324,0.1194,,,,,,94,0,94,0,1,,,,,
,,072125,001,2023-07-24_20h06.55.082,arm3_eps,2022.2.5,Win32,144.1337561,6136aee758e3f41323d8c0c7,64aea9d0f615b6559c281482,64becba8123eeb0d1661eb9f,down,-1,0.3,0.2429,6,0,0.515,,,,,,95,0,95,0,1,,,,,
,,072125,001,2023-07-24_20h06.55.082,arm3_eps,2022.2.5,Win32,144.1337561,6136aee758e3f41323d8c0c7,64aea9d0f615b6559c281482,64becba8123eeb0d1661eb9f,right,-1,0.3,0.2429,6,-0.017737538,0.5284,,,,,,96,0,96,0,1,,,,,
,,072125,001,2023-07-24_20h06.55.082,arm3_eps,2022.2.5,Win32,144.1337561,6136aee758e3f41323d8c0c7,64aea9d0f615b6559c281482,64becba8123eeb0d1661eb9f,right,-1,0.3,0.2429,6,-0.027567572,0.155,,,,,,97,0,97,0,1,,,,,
,,072125,001,2023-07-24_20h06.55.082,arm3_eps,2022.2.5,Win32,144.1337561,6136aee758e3f41323d8c0c7,64aea9d0f615b6559c281482,64becba8123eeb0d1661eb9f,right,-1,0.3,0.2429,6,-0.031220184,0.1475,,,,,,98,0,98,0,1,,,,,
,,072125,001,2023-07-24_20h06.55.082,arm3_eps,2022.2.5,Win32,144.1337561,6136aee758e3f41323d8c0c7,64aea9d0f615b6559c281482,64becba8123eeb0d1661eb9f,right,-1,0.3,0.2429,6,-0.069748156,0.1306,,,,,,99,0,99,0,1,,,,,
,,072125,001,2023-07-24_20h06.55.082,arm3_eps,2022.2.5,Win32,144.1337561,6136aee758e3f41323d8c0c7,64aea9d0f615b6559c281482,64becba8123eeb0d1661eb9f,down,1,0.3,0.2429,7,0,0.4078,,,,,,100,0,100,0,1,,,,,
,,072125,001,2023-07-24_20h06.55.082,arm3_eps,2022.2.5,Win32,144.1337561,6136aee758e3f41323d8c0c7,64aea9d0f615b6559c281482,64becba8123eeb0d1661eb9f,right,1,0.3,0.2429,7,0.005212872,0.5669,,,,,,101,0,101,0,1,,,,,
,,072125,001,2023-07-24_20h06.55.082,arm3_eps,2022.2.5,Win32,144.1337561,6136aee758e3f41323d8c0c7,64aea9d0f615b6559c281482,64becba8123eeb0d1661eb9f,right,1,0.3,0.2429,7,-0.019906015,0.1346,,,,,,102,0,102,0,1,,,,,
,,072125,001,2023-07-24_20h06.55.082,arm3_eps,2022.2.5,Win32,144.1337561,6136aee758e3f41323d8c0c7,64aea9d0f615b6559c281482,64becba8123eeb0d1661eb9f,right,1,0.3,0.2429,7,0.001608338,0.1398,,,,,,103,0,103,0,1,,,,,
,,072125,001,2023-07-24_20h06.55.082,arm3_eps,2022.2.5,Win32,144.1337561,6136aee758e3f41323d8c0c7,64aea9d0f615b6559c281482,64becba8123eeb0d1661eb9f,right,1,0.3,0.2429,7,0.008416634,0.1308,,,,,,104,0,104,0,1,,,,,
,,072125,001,2023-07-24_20h06.55.082,arm3_eps,2022.2.5,Win32,144.1337561,6136aee758e3f41323d8c0c7,64aea9d0f615b6559c281482,64becba8123eeb0d1661eb9f,right,1,0.3,0.2429,7,0.01272712,0.1351,,,,,,105,0,105,0,1,,,,,
,,072125,001,2023-07-24_20h06.55.082,arm3_eps,2022.2.5,Win32,144.1337561,6136aee758e3f41323d8c0c7,64aea9d0f615b6559c281482,64becba8123eeb0d1661eb9f,right,1,0.3,0.2429,7,0.047460145,0.3081,,,,,,106,0,106,0,1,,,,,
,,072125,001,2023-07-24_20h06.55.082,arm3_eps,2022.2.5,Win32,144.1337561,6136aee758e3f41323d8c0c7,64aea9d0f615b6559c281482,64becba8123eeb0d1661eb9f,up,1,0.3,0.2429,7,0,0.2435,,,,,,107,0,107,0,1,,,,,
,,072125,001,2023-07-24_20h06.55.082,arm3_eps,2022.2.5,Win32,144.1337561,6136aee758e3f41323d8c0c7,64aea9d0f615b6559c281482,64becba8123eeb0d1661eb9f,right,1,0.3,0.2429,7,-0.008467846,0.6317,,,,,,108,0,108,0,1,,,,,
,,072125,001,2023-07-24_20h06.55.082,arm3_eps,2022.2.5,Win32,144.1337561,6136aee758e3f41323d8c0c7,64aea9d0f615b6559c281482,64becba8123eeb0d1661eb9f,right,1,0.3,0.2429,7,-0.010640229,0.1066,,,,,,109,0,109,0,1,,,,,
,,072125,001,2023-07-24_20h06.55.082,arm3_eps,2022.2.5,Win32,144.1337561,6136aee758e3f41323d8c0c7,64aea9d0f615b6559c281482,64becba8123eeb0d1661eb9f,right,1,0.3,0.2429,7,0.016842673,0.1559,,,,,,110,0,110,0,1,,,,,
,,072125,001,2023-07-24_20h06.55.082,arm3_eps,2022.2.5,Win32,144.1337561,6136aee758e3f41323d8c0c7,64aea9d0f615b6559c281482,64becba8123eeb0d1661eb9f,right,1,0.3,0.2429,7,0.027790091,0.1317,,,,,,111,0,111,0,1,,,,,
,,072125,001,2023-07-24_20h06.55.082,arm3_eps,2022.2.5,Win32,144.1337561,6136aee758e3f41323d8c0c7,64aea9d0f615b6559c281482,64becba8123eeb0d1661eb9f,right,1,0.3,0.2429,7,0.032539703,0.1308,,,,,,112,0,112,0,1,,,,,
,,072125,001,2023-07-24_20h06.55.082,arm3_eps,2022.2.5,Win32,144.1337561,6136aee758e3f41323d8c0c7,64aea9d0f615b6559c281482,64becba8123eeb0d1661eb9f,right,1,0.3,0.2429,7,0.014787793,0.5581,,,,,,113,0,113,0,1,,,,,
,,072125,001,2023-07-24_20h06.55.082,arm3_eps,2022.2.5,Win32,144.1337561,6136aee758e3f41323d8c0c7,64aea9d0f615b6559c281482,64becba8123eeb0d1661eb9f,right,1,0.3,0.2429,7,0.007130629,0.3155,,,,,,114,0,114,0,1,,,,,
,,072125,001,2023-07-24_20h06.55.082,arm3_eps,2022.2.5,Win32,144.1337561,6136aee758e3f41323d8c0c7,64aea9d0f615b6559c281482,64becba8123eeb0d1661eb9f,right,1,0.3,0.2429,7,0.014997539,0.3083,,,,,,115,0,115,0,1,,,,,
,,072125,001,2023-07-24_20h06.55.082,arm3_eps,2022.2.5,Win32,144.1337561,6136aee758e3f41323d8c0c7,64aea9d0f615b6559c281482,64becba8123eeb0d1661eb9f,up,-1,0.3,0.2429,7,0,0.324,,,,,,116,0,116,0,1,,,,,
,,072125,001,2023-07-24_20h06.55.082,arm3_eps,2022.2.5,Win32,144.1337561,6136aee758e3f41323d8c0c7,64aea9d0f615b6559c281482,64becba8123eeb0d1661eb9f,right,-1,0.3,0.2429,7,-0.031426366,0.4271,,,,,,117,0,117,0,1,,,,,
,,072125,001,2023-07-24_20h06.55.082,arm3_eps,2022.2.5,Win32,144.1337561,6136aee758e3f41323d8c0c7,64aea9d0f615b6559c281482,64becba8123eeb0d1661eb9f,right,-1,0.3,0.2429,7,-0.022233797,0.1815,,,,,,118,0,118,0,1,,,,,
,,072125,001,2023-07-24_20h06.55.082,arm3_eps,2022.2.5,Win32,144.1337561,6136aee758e3f41323d8c0c7,64aea9d0f615b6559c281482,64becba8123eeb0d1661eb9f,right,-1,0.3,0.2429,7,-0.037539533,0.1557,,,,,,119,0,119,0,1,,,,,
,,072125,001,2023-07-24_20h06.55.082,arm3_eps,2022.2.5,Win32,144.1337561,6136aee758e3f41323d8c0c7,64aea9d0f615b6559c281482,64becba8123eeb0d1661eb9f,down,-1,0.3,0.2429,7,0,0.412,,,,,,120,0,120,0,1,,,,,
,,072125,001,2023-07-24_20h06.55.082,arm3_eps,2022.2.5,Win32,144.1337561,6136aee758e3f41323d8c0c7,64aea9d0f615b6559c281482,64becba8123eeb0d1661eb9f,right,-1,0.3,0.2429,7,-0.004035615,0.3384,,,,,,121,0,121,0,1,,,,,
,,072125,001,2023-07-24_20h06.55.082,arm3_eps,2022.2.5,Win32,144.1337561,6136aee758e3f41323d8c0c7,64aea9d0f615b6559c281482,64becba8123eeb0d1661eb9f,right,-1,0.3,0.2429,7,0.01959498,0.1765,,,,,,122,0,122,0,1,,,,,
,,072125,001,2023-07-24_20h06.55.082,arm3_eps,2022.2.5,Win32,144.1337561,6136aee758e3f41323d8c0c7,64aea9d0f615b6559c281482,64becba8123eeb0d1661eb9f,right,-1,0.3,0.2429,7,0.030860622,0.1801,,,,,,123,0,123,0,1,,,,,
,,072125,001,2023-07-24_20h06.55.082,arm3_eps,2022.2.5,Win32,144.1337561,6136aee758e3f41323d8c0c7,64aea9d0f615b6559c281482,64becba8123eeb0d1661eb9f,right,-1,0.3,0.2429,7,0.010682695,0.1935,,,,,,124,0,124,0,1,,,,,
,,072125,001,2023-07-24_20h06.55.082,arm3_eps,2022.2.5,Win32,144.1337561,6136aee758e3f41323d8c0c7,64aea9d0f615b6559c281482,64becba8123eeb0d1661eb9f,right,-1,0.3,0.2429,7,0.009503857,0.3672,,,,,,125,0,125,0,1,,,,,
,,072125,001,2023-07-24_20h06.55.082,arm3_eps,2022.2.5,Win32,144.1337561,6136aee758e3f41323d8c0c7,64aea9d0f615b6559c281482,64becba8123eeb0d1661eb9f,up,1,0.3,0.2429,7,0,0.7204,,,,,,126,0,126,0,1,,,,,
,,072125,001,2023-07-24_20h06.55.082,arm3_eps,2022.2.5,Win32,144.1337561,6136aee758e3f41323d8c0c7,64aea9d0f615b6559c281482,64becba8123eeb0d1661eb9f,right,1,0.3,0.2429,7,0.053076247,0.6944,,,,,,127,0,127,0,1,,,,,
,,072125,001,2023-07-24_20h06.55.082,arm3_eps,2022.2.5,Win32,144.1337561,6136aee758e3f41323d8c0c7,64aea9d0f615b6559c281482,64becba8123eeb0d1661eb9f,right,1,0.3,0.2429,7,0.058380329,0.1539,,,,,,128,0,128,0,1,,,,,
,,072125,001,2023-07-24_20h06.55.082,arm3_eps,2022.2.5,Win32,144.1337561,6136aee758e3f41323d8c0c7,64aea9d0f615b6559c281482,64becba8123eeb0d1661eb9f,right,1,0.3,0.2429,7,0.086252244,0.1934,,,,,,129,0,129,0,1,,,,,
,,072125,001,2023-07-24_20h06.55.082,arm3_eps,2022.2.5,Win32,144.1337561,6136aee758e3f41323d8c0c7,64aea9d0f615b6559c281482,64becba8123eeb0d1661eb9f,up,1,0.3,0.2429,7,0,0.2321,,,,,,130,0,130,0,1,,,,,
,,072125,001,2023-07-24_20h06.55.082,arm3_eps,2022.2.5,Win32,144.1337561,6136aee758e3f41323d8c0c7,64aea9d0f615b6559c281482,64becba8123eeb0d1661eb9f,right,1,0.3,0.2429,7,-0.025109129,0.4836,,,,,,131,0,131,0,1,,,,,
,,072125,001,2023-07-24_20h06.55.082,arm3_eps,2022.2.5,Win32,144.1337561,6136aee758e3f41323d8c0c7,64aea9d0f615b6559c281482,64becba8123eeb0d1661eb9f,right,1,0.3,0.2429,7,-0.028765486,0.1833,,,,,,132,0,132,0,1,,,,,
,,072125,001,2023-07-24_20h06.55.082,arm3_eps,2022.2.5,Win32,144.1337561,6136aee758e3f41323d8c0c7,64aea9d0f615b6559c281482,64becba8123eeb0d1661eb9f,right,1,0.3,0.2429,7,-0.022876577,0.1647,,,,,,133,0,133,0,1,,,,,
,,072125,001,2023-07-24_20h06.55.082,arm3_eps,2022.2.5,Win32,144.1337561,6136aee758e3f41323d8c0c7,64aea9d0f615b6559c281482,64becba8123eeb0d1661eb9f,right,1,0.3,0.2429,7,-0.025608918,0.3822,,,,,,134,0,134,0,1,,,,,
,,072125,001,2023-07-24_20h06.55.082,arm3_eps,2022.2.5,Win32,144.1337561,6136aee758e3f41323d8c0c7,64aea9d0f615b6559c281482,64becba8123eeb0d1661eb9f,down,1,0.3,0.2429,7,0,0.2408,,,,,,135,0,135,0,1,,,,,
,,072125,001,2023-07-24_20h06.55.082,arm3_eps,2022.2.5,Win32,144.1337561,6136aee758e3f41323d8c0c7,64aea9d0f615b6559c281482,64becba8123eeb0d1661eb9f,right,1,0.3,0.2429,7,0.007777075,0.5823,,,,,,136,0,136,0,1,,,,,
,,072125,001,2023-07-24_20h06.55.082,arm3_eps,2022.2.5,Win32,144.1337561,6136aee758e3f41323d8c0c7,64aea9d0f615b6559c281482,64becba8123eeb0d1661eb9f,right,1,0.3,0.2429,7,0.031625694,0.1527,,,,,,137,0,137,0,1,,,,,
,,072125,001,2023-07-24_20h06.55.082,arm3_eps,2022.2.5,Win32,144.1337561,6136aee758e3f41323d8c0c7,64aea9d0f615b6559c281482,64becba8123eeb0d1661eb9f,right,1,0.3,0.2429,7,0.019237988,0.1457,,,,,,138,0,138,0,1,,,,,
,,072125,001,2023-07-24_20h06.55.082,arm3_eps,2022.2.5,Win32,144.1337561,6136aee758e3f41323d8c0c7,64aea9d0f615b6559c281482,64becba8123eeb0d1661eb9f,right,1,0.3,0.2429,7,0.025741411,0.1202,,,,,,139,0,139,0,1,,,,,
,,072125,001,2023-07-24_20h06.55.082,arm3_eps,2022.2.5,Win32,144.1337561,6136aee758e3f41323d8c0c7,64aea9d0f615b6559c281482,64becba8123eeb0d1661eb9f,up,-1,0.3,0.2429,7,0,0.3245,,,,,,140,0,140,0,1,,,,,
,,072125,001,2023-07-24_20h06.55.082,arm3_eps,2022.2.5,Win32,144.1337561,6136aee758e3f41323d8c0c7,64aea9d0f615b6559c281482,64becba8123eeb0d1661eb9f,right,-1,0.3,0.2429,7,0.003335586,0.5177,,,,,,141,0,141,0,1,,,,,
,,072125,001,2023-07-24_20h06.55.082,arm3_eps,2022.2.5,Win32,144.1337561,6136aee758e3f41323d8c0c7,64aea9d0f615b6559c281482,64becba8123eeb0d1661eb9f,right,-1,0.3,0.2429,7,0.000929195,0.1244,,,,,,142,0,142,0,1,,,,,
,,072125,001,2023-07-24_20h06.55.082,arm3_eps,2022.2.5,Win32,144.1337561,6136aee758e3f41323d8c0c7,64aea9d0f615b6559c281482,64becba8123eeb0d1661eb9f,right,-1,0.3,0.2429,7,-0.026301411,0.2978,,,,,,143,0,143,0,1,,,,,
,,072125,001,2023-07-24_20h06.55.082,arm3_eps,2022.2.5,Win32,144.1337561,6136aee758e3f41323d8c0c7,64aea9d0f615b6559c281482,64becba8123eeb0d1661eb9f,right,-1,0.3,0.2429,7,0.001537021,0.1518,,,,,,144,0,144,0,1,,,,,
,,072125,001,2023-07-24_20h06.55.082,arm3_eps,2022.2.5,Win32,144.1337561,6136aee758e3f41323d8c0c7,64aea9d0f615b6559c281482,64becba8123eeb0d1661eb9f,right,-1,0.3,0.2429,7,-0.041604392,0.145,,,,,,145,0,145,0,1,,,,,
,,072125,001,2023-07-24_20h06.55.082,arm3_eps,2022.2.5,Win32,144.1337561,6136aee758e3f41323d8c0c7,64aea9d0f615b6559c281482,64becba8123eeb0d1661eb9f,down,-1,0.3,0.2429,7,0,0.4959,,,,,,146,0,146,0,1,,,,,
,,072125,001,2023-07-24_20h06.55.082,arm3_eps,2022.2.5,Win32,144.1337561,6136aee758e3f41323d8c0c7,64aea9d0f615b6559c281482,64becba8123eeb0d1661eb9f,right,-1,0.3,0.2429,7,-0.016946641,0.4906,,,,,,147,0,147,0,1,,,,,
,,072125,001,2023-07-24_20h06.55.082,arm3_eps,2022.2.5,Win32,144.1337561,6136aee758e3f41323d8c0c7,64aea9d0f615b6559c281482,64becba8123eeb0d1661eb9f,right,-1,0.3,0.2429,7,-0.045345207,0.1677,,,,,,148,0,148,0,1,,,,,
,,072125,001,2023-07-24_20h06.55.082,arm3_eps,2022.2.5,Win32,144.1337561,6136aee758e3f41323d8c0c7,64aea9d0f615b6559c281482,64becba8123eeb0d1661eb9f,right,-1,0.3,0.2429,7,-0.064799199,0.1382,,,,,,149,0,149,0,1,,,,,
,,072125,001,2023-07-24_20h06.55.082,arm3_eps,2022.2.5,Win32,144.1337561,6136aee758e3f41323d8c0c7,64aea9d0f615b6559c281482,64becba8123eeb0d1661eb9f,right,-1,0.3,0.2429,7,-0.084926067,0.1289,,,,,,150,0,150,0,1,,,,,
,,072125,001,2023-07-24_20h06.55.082,arm3_eps,2022.2.5,Win32,144.1337561,6136aee758e3f41323d8c0c7,64aea9d0f615b6559c281482,64becba8123eeb0d1661eb9f,down,1,0.3,0.2429,7,0,0.2288,,,,,,151,0,151,0,1,,,,,
,,072125,001,2023-07-24_20h06.55.082,arm3_eps,2022.2.5,Win32,144.1337561,6136aee758e3f41323d8c0c7,64aea9d0f615b6559c281482,64becba8123eeb0d1661eb9f,right,1,0.3,0.2429,7,0.008564712,0.5279,,,,,,152,0,152,0,1,,,,,
,,072125,001,2023-07-24_20h06.55.082,arm3_eps,2022.2.5,Win32,144.1337561,6136aee758e3f41323d8c0c7,64aea9d0f615b6559c281482,64becba8123eeb0d1661eb9f,right,1,0.3,0.2429,7,-0.0053327,0.1853,,,,,,153,0,153,0,1,,,,,
,,072125,001,2023-07-24_20h06.55.082,arm3_eps,2022.2.5,Win32,144.1337561,6136aee758e3f41323d8c0c7,64aea9d0f615b6559c281482,64becba8123eeb0d1661eb9f,right,1,0.3,0.2429,7,0.006917552,0.1514,,,,,,154,0,154,0,1,,,,,
,,072125,001,2023-07-24_20h06.55.082,arm3_eps,2022.2.5,Win32,144.1337561,6136aee758e3f41323d8c0c7,64aea9d0f615b6559c281482,64becba8123eeb0d1661eb9f,right,1,0.3,0.2429,7,0.002380067,0.1601,,,,,,155,0,155,0,1,,,,,
,,072125,001,2023-07-24_20h06.55.082,arm3_eps,2022.2.5,Win32,144.1337561,6136aee758e3f41323d8c0c7,64aea9d0f615b6559c281482,64becba8123eeb0d1661eb9f,right,1,0.3,0.2429,7,0.036258397,0.1308,,,,,,156,0,156,0,1,,,,,
,,072125,001,2023-07-24_20h06.55.082,arm3_eps,2022.2.5,Win32,144.1337561,6136aee758e3f41323d8c0c7,64aea9d0f615b6559c281482,64becba8123eeb0d1661eb9f,up,1,0.3,0.2429,7,0,0.3423,,,,,,157,0,157,0,1,,,,,
,,072125,001,2023-07-24_20h06.55.082,arm3_eps,2022.2.5,Win32,144.1337561,6136aee758e3f41323d8c0c7,64aea9d0f615b6559c281482,64becba8123eeb0d1661eb9f,right,1,0.3,0.2429,7,-0.001985523,0.4735,,,,,,158,0,158,0,1,,,,,
,,072125,001,2023-07-24_20h06.55.082,arm3_eps,2022.2.5,Win32,144.1337561,6136aee758e3f41323d8c0c7,64aea9d0f615b6559c281482,64becba8123eeb0d1661eb9f,right,1,0.3,0.2429,7,0.021340559,0.1553,,,,,,159,0,159,0,1,,,,,
,,072125,001,2023-07-24_20h06.55.082,arm3_eps,2022.2.5,Win32,144.1337561,6136aee758e3f41323d8c0c7,64aea9d0f615b6559c281482,64becba8123eeb0d1661eb9f,right,1,0.3,0.2429,7,0.054159494,0.1651,,,,,,160,0,160,0,1,,,,,
,,072125,001,2023-07-24_20h06.55.082,arm3_eps,2022.2.5,Win32,144.1337561,6136aee758e3f41323d8c0c7,64aea9d0f615b6559c281482,64becba8123eeb0d1661eb9f,right,1,0.3,0.2429,7,0.094352697,0.1658,,,,,,161,0,161,0,1,,,,,
,,072125,001,2023-07-24_20h06.55.082,arm3_eps,2022.2.5,Win32,144.1337561,6136aee758e3f41323d8c0c7,64aea9d0f615b6559c281482,64becba8123eeb0d1661eb9f,up,1,0.3,0.2429,8,0,0.2245,,,,,,162,0,162,0,1,,,,,
,,072125,001,2023-07-24_20h06.55.082,arm3_eps,2022.2.5,Win32,144.1337561,6136aee758e3f41323d8c0c7,64aea9d0f615b6559c281482,64becba8123eeb0d1661eb9f,right,1,0.3,0.2429,8,-0.003358412,0.6094,,,,,,163,0,163,0,1,,,,,
,,072125,001,2023-07-24_20h06.55.082,arm3_eps,2022.2.5,Win32,144.1337561,6136aee758e3f41323d8c0c7,64aea9d0f615b6559c281482,64becba8123eeb0d1661eb9f,right,1,0.3,0.2429,8,-0.000927976,0.1608,,,,,,164,0,164,0,1,,,,,
,,072125,001,2023-07-24_20h06.55.082,arm3_eps,2022.2.5,Win32,144.1337561,6136aee758e3f41323d8c0c7,64aea9d0f615b6559c281482,64becba8123eeb0d1661eb9f,right,1,0.3,0.2429,8,-0.027359699,0.1469,,,,,,165,0,165,0,1,,,,,
,,072125,001,2023-07-24_20h06.55.082,arm3_eps,2022.2.5,Win32,144.1337561,6136aee758e3f41323d8c0c7,64aea9d0f615b6559c281482,64becba8123eeb0d1661eb9f,right,1,0.3,0.2429,8,-0.013439367,0.1671,,,,,,166,0,166,0,1,,,,,
,,072125,001,2023-07-24_20h06.55.082,arm3_eps,2022.2.5,Win32,144.1337561,6136aee758e3f41323d8c0c7,64aea9d0f615b6559c281482,64becba8123eeb0d1661eb9f,right,1,0.3,0.2429,8,0.01077682,0.1488,,,,,,167,0,167,0,1,,,,,
,,072125,001,2023-07-24_20h06.55.082,arm3_eps,2022.2.5,Win32,144.1337561,6136aee758e3f41323d8c0c7,64aea9d0f615b6559c281482,64becba8123eeb0d1661eb9f,right,1,0.3,0.2429,8,0.011350019,0.4841,,,,,,168,0,168,0,1,,,,,
,,072125,001,2023-07-24_20h06.55.082,arm3_eps,2022.2.5,Win32,144.1337561,6136aee758e3f41323d8c0c7,64aea9d0f615b6559c281482,64becba8123eeb0d1661eb9f,up,1,0.3,0.2429,9,0,0.3044,,,,,,169,0,169,0,1,,,,,
,,072125,001,2023-07-24_20h06.55.082,arm3_eps,2022.2.5,Win32,144.1337561,6136aee758e3f41323d8c0c7,64aea9d0f615b6559c281482,64becba8123eeb0d1661eb9f,right,1,0.3,0.2429,9,0.023631225,0.5225,,,,,,170,0,170,0,1,,,,,
,,072125,001,2023-07-24_20h06.55.082,arm3_eps,2022.2.5,Win32,144.1337561,6136aee758e3f41323d8c0c7,64aea9d0f615b6559c281482,64becba8123eeb0d1661eb9f,right,1,0.3,0.2429,9,0.045110343,0.1902,,,,,,171,0,171,0,1,,,,,
,,072125,001,2023-07-24_20h06.55.082,arm3_eps,2022.2.5,Win32,144.1337561,6136aee758e3f41323d8c0c7,64aea9d0f615b6559c281482,64becba8123eeb0d1661eb9f,right,1,0.3,0.2429,9,0.062262224,0.165,,,,,,172,0,172,0,1,,,,,
,,072125,001,2023-07-24_20h06.55.082,arm3_eps,2022.2.5,Win32,144.1337561,6136aee758e3f41323d8c0c7,64aea9d0f615b6559c281482,64becba8123eeb0d1661eb9f,up,1,0.3,0.2429,9,0,0.2553,,,,,,173,0,173,0,1,,,,,
,,072125,001,2023-07-24_20h06.55.082,arm3_eps,2022.2.5,Win32,144.1337561,6136aee758e3f41323d8c0c7,64aea9d0f615b6559c281482,64becba8123eeb0d1661eb9f,right,1,0.3,0.2429,9,0.014393971,0.5976,,,,,,174,0,174,0,1,,,,,
,,072125,001,2023-07-24_20h06.55.082,arm3_eps,2022.2.5,Win32,144.1337561,6136aee758e3f41323d8c0c7,64aea9d0f615b6559c281482,64becba8123eeb0d1661eb9f,right,1,0.3,0.2429,9,-0.002350768,0.1629,,,,,,175,0,175,0,1,,,,,
,,072125,001,2023-07-24_20h06.55.082,arm3_eps,2022.2.5,Win32,144.1337561,6136aee758e3f41323d8c0c7,64aea9d0f615b6559c281482,64becba8123eeb0d1661eb9f,right,1,0.3,0.2429,9,0.035909233,0.1646,,,,,,176,0,176,0,1,,,,,
,,072125,001,2023-07-24_20h06.55.082,arm3_eps,2022.2.5,Win32,144.1337561,6136aee758e3f41323d8c0c7,64aea9d0f615b6559c281482,64becba8123eeb0d1661eb9f,right,1,0.3,0.2429,9,0.023973652,0.1262,,,,,,177,0,177,0,1,,,,,
,,072125,001,2023-07-24_20h06.55.082,arm3_eps,2022.2.5,Win32,144.1337561,6136aee758e3f41323d8c0c7,64aea9d0f615b6559c281482,64becba8123eeb0d1661eb9f,right,1,0.3,0.2429,9,0.01974909,0.162,,,,,,178,0,178,0,1,,,,,
,,072125,001,2023-07-24_20h06.55.082,arm3_eps,2022.2.5,Win32,144.1337561,6136aee758e3f41323d8c0c7,64aea9d0f615b6559c281482,64becba8123eeb0d1661eb9f,up,1,0.3,0.2429,9,0,0.3877,,,,,,179,0,179,0,1,,,,,
,,072125,001,2023-07-24_20h06.55.082,arm3_eps,2022.2.5,Win32,144.1337561,6136aee758e3f41323d8c0c7,64aea9d0f615b6559c281482,64becba8123eeb0d1661eb9f,right,1,0.3,0.2429,9,0.005452292,0.5827,,,,,,180,0,180,0,1,,,,,
,,072125,001,2023-07-24_20h06.55.082,arm3_eps,2022.2.5,Win32,144.1337561,6136aee758e3f41323d8c0c7,64aea9d0f615b6559c281482,64becba8123eeb0d1661eb9f,right,1,0.3,0.2429,9,0.026595116,0.1533,,,,,,181,0,181,0,1,,,,,
,,072125,001,2023-07-24_20h06.55.082,arm3_eps,2022.2.5,Win32,144.1337561,6136aee758e3f41323d8c0c7,64aea9d0f615b6559c281482,64becba8123eeb0d1661eb9f,right,1,0.3,0.2429,9,0.002749399,0.1375,,,,,,182,0,182,0,1,,,,,
,,072125,001,2023-07-24_20h06.55.082,arm3_eps,2022.2.5,Win32,144.1337561,6136aee758e3f41323d8c0c7,64aea9d0f615b6559c281482,64becba8123eeb0d1661eb9f,right,1,0.3,0.2429,9,-0.002132741,0.1599,,,,,,183,0,183,0,1,,,,,
,,072125,001,2023-07-24_20h06.55.082,arm3_eps,2022.2.5,Win32,144.1337561,6136aee758e3f41323d8c0c7,64aea9d0f615b6559c281482,64becba8123eeb0d1661eb9f,right,1,0.3,0.2429,9,0.002898846,0.3612,,,,,,184,0,184,0,1,,,,,
,,072125,001,2023-07-24_20h06.55.082,arm3_eps,2022.2.5,Win32,144.1337561,6136aee758e3f41323d8c0c7,64aea9d0f615b6559c281482,64becba8123eeb0d1661eb9f,up,-1,0.3,0.2429,10,0,0.4175,,,,,,185,0,185,0,1,,,,,
,,072125,001,2023-07-24_20h06.55.082,arm3_eps,2022.2.5,Win32,144.1337561,6136aee758e3f41323d8c0c7,64aea9d0f615b6559c281482,64becba8123eeb0d1661eb9f,right,-1,0.3,0.2429,10,-0.017130422,0.5461,,,,,,186,0,186,0,1,,,,,
,,072125,001,2023-07-24_20h06.55.082,arm3_eps,2022.2.5,Win32,144.1337561,6136aee758e3f41323d8c0c7,64aea9d0f615b6559c281482,64becba8123eeb0d1661eb9f,right,-1,0.3,0.2429,10,-0.055646493,0.1663,,,,,,187,0,187,0,1,,,,,
,,072125,001,2023-07-24_20h06.55.082,arm3_eps,2022.2.5,Win32,144.1337561,6136aee758e3f41323d8c0c7,64aea9d0f615b6559c281482,64becba8123eeb0d1661eb9f,right,-1,0.3,0.2429,10,-0.051556337,0.1767,,,,,,188,0,188,0,1,,,,,
,,072125,001,2023-07-24_20h06.55.082,arm3_eps,2022.2.5,Win32,144.1337561,6136aee758e3f41323d8c0c7,64aea9d0f615b6559c281482,64becba8123eeb0d1661eb9f,down,-1,0.3,0.2429,10,0,0.8362,,,,,,189,0,189,0,1,,,,,
,,072125,001,2023-07-24_20h06.55.082,arm3_eps,2022.2.5,Win32,144.1337561,6136aee758e3f41323d8c0c7,64aea9d0f615b6559c281482,64becba8123eeb0d1661eb9f,right,-1,0.3,0.2429,10,-0.013995199,0.7049,,,,,,190,0,190,0,1,,,,,
,,072125,001,2023-07-24_20h06.55.082,arm3_eps,2022.2.5,Win32,144.1337561,6136aee758e3f41323d8c0c7,64aea9d0f615b6559c281482,64becba8123eeb0d1661eb9f,right,-1,0.3,0.2429,10,-0.033548049,0.1531,,,,,,191,0,191,0,1,,,,,
,,072125,001,2023-07-24_20h06.55.082,arm3_eps,2022.2.5,Win32,144.1337561,6136aee758e3f41323d8c0c7,64aea9d0f615b6559c281482,64becba8123eeb0d1661eb9f,right,-1,0.3,0.2429,10,-0.057046878,0.1534,,,,,,192,0,192,0,1,,,,,
,,072125,001,2023-07-24_20h06.55.082,arm3_eps,2022.2.5,Win32,144.1337561,6136aee758e3f41323d8c0c7,64aea9d0f615b6559c281482,64becba8123eeb0d1661eb9f,down,-1,0.3,0.2429,11,0,0.3052,,,,,,193,0,193,0,1,,,,,
,,072125,001,2023-07-24_20h06.55.082,arm3_eps,2022.2.5,Win32,144.1337561,6136aee758e3f41323d8c0c7,64aea9d0f615b6559c281482,64becba8123eeb0d1661eb9f,right,-1,0.3,0.2429,11,-0.009879537,0.5743,,,,,,194,0,194,0,1,,,,,
,,072125,001,2023-07-24_20h06.55.082,arm3_eps,2022.2.5,Win32,144.1337561,6136aee758e3f41323d8c0c7,64aea9d0f615b6559c281482,64becba8123eeb0d1661eb9f,right,-1,0.3,0.2429,11,0.001944957,0.1445,,,,,,195,0,195,0,1,,,,,
,,072125,001,2023-07-24_20h06.55.082,arm3_eps,2022.2.5,Win32,144.1337561,6136aee758e3f41323d8c0c7,64aea9d0f615b6559c281482,64becba8123eeb0d1661eb9f,right,-1,0.3,0.2429,11,-0.009469732,0.1283,,,,,,196,0,196,0,1,,,,,
,,072125,001,2023-07-24_20h06.55.082,arm3_eps,2022.2.5,Win32,144.1337561,6136aee758e3f41323d8c0c7,64aea9d0f615b6559c281482,64becba8123eeb0d1661eb9f,down,-1,0.3,0.2429,11,0,0.3888,,,,,,197,0,197,0,1,,,,,
,,072125,001,2023-07-24_20h06.55.082,arm3_eps,2022.2.5,Win32,144.1337561,6136aee758e3f41323d8c0c7,64aea9d0f615b6559c281482,64becba8123eeb0d1661eb9f,right,-1,0.3,0.2429,11,-0.022929157,0.5264,,,,,,198,0,198,0,1,,,,,
,,072125,001,2023-07-24_20h06.55.082,arm3_eps,2022.2.5,Win32,144.1337561,6136aee758e3f41323d8c0c7,64aea9d0f615b6559c281482,64becba8123eeb0d1661eb9f,right,-1,0.3,0.2429,11,-0.050477982,0.1464,,,,,,199,0,199,0,1,,,,,
,,072125,001,2023-07-24_20h06.55.082,arm3_eps,2022.2.5,Win32,144.1337561,6136aee758e3f41323d8c0c7,64aea9d0f615b6559c281482,64becba8123eeb0d1661eb9f,right,-1,0.3,0.2429,11,-0.077876775,0.1613,,,,,,200,0,200,0,1,,,,,
,,072125,001,2023-07-24_20h06.55.082,arm3_eps,2022.2.5,Win32,144.1337561,6136aee758e3f41323d8c0c7,64aea9d0f615b6559c281482,64becba8123eeb0d1661eb9f,down,-1,0.3,0.2429,11,0,0.2762,,,,,,201,0,201,0,1,,,,,
,,072125,001,2023-07-24_20h06.55.082,arm3_eps,2022.2.5,Win32,144.1337561,6136aee758e3f41323d8c0c7,64aea9d0f615b6559c281482,64becba8123eeb0d1661eb9f,right,-1,0.3,0.2429,11,-0.004247189,0.5568,,,,,,202,0,202,0,1,,,,,
,,072125,001,2023-07-24_20h06.55.082,arm3_eps,2022.2.5,Win32,144.1337561,6136aee758e3f41323d8c0c7,64aea9d0f615b6559c281482,64becba8123eeb0d1661eb9f,right,-1,0.3,0.2429,11,-0.006823801,0.1473,,,,,,203,0,203,0,1,,,,,
,,072125,001,2023-07-24_20h06.55.082,arm3_eps,2022.2.5,Win32,144.1337561,6136aee758e3f41323d8c0c7,64aea9d0f615b6559c281482,64becba8123eeb0d1661eb9f,right,-1,0.3,0.2429,11,0.001716911,0.1303,,,,,,204,0,204,0,1,,,,,
,,072125,001,2023-07-24_20h06.55.082,arm3_eps,2022.2.5,Win32,144.1337561,6136aee758e3f41323d8c0c7,64aea9d0f615b6559c281482,64becba8123eeb0d1661eb9f,right,-1,0.3,0.2429,11,-0.013365219,0.3529,,,,,,205,0,205,0,1,,,,,
,,072125,001,2023-07-24_20h06.55.082,arm3_eps,2022.2.5,Win32,144.1337561,6136aee758e3f41323d8c0c7,64aea9d0f615b6559c281482,64becba8123eeb0d1661eb9f,down,-1,0.3,0.2429,11,0,0.2947,,,,,,206,0,206,0,1,,,,,
,,072125,001,2023-07-24_20h06.55.082,arm3_eps,2022.2.5,Win32,144.1337561,6136aee758e3f41323d8c0c7,64aea9d0f615b6559c281482,64becba8123eeb0d1661eb9f,right,-1,0.3,0.2429,11,0.010855402,0.4992,,,,,,207,0,207,0,1,,,,,
,,072125,001,2023-07-24_20h06.55.082,arm3_eps,2022.2.5,Win32,144.1337561,6136aee758e3f41323d8c0c7,64aea9d0f615b6559c281482,64becba8123eeb0d1661eb9f,right,-1,0.3,0.2429,11,0.003322863,0.152,,,,,,208,0,208,0,1,,,,,
,,072125,001,2023-07-24_20h06.55.082,arm3_eps,2022.2.5,Win32,144.1337561,6136aee758e3f41323d8c0c7,64aea9d0f615b6559c281482,64becba8123eeb0d1661eb9f,right,-1,0.3,0.2429,11,-0.002614521,0.1526,,,,,,209,0,209,0,1,,,,,
,,072125,001,2023-07-24_20h06.55.082,arm3_eps,2022.2.5,Win32,144.1337561,6136aee758e3f41323d8c0c7,64aea9d0f615b6559c281482,64becba8123eeb0d1661eb9f,right,-1,0.3,0.2429,11,-0.011889499,0.1932,,,,,,210,0,210,0,1,,,,,
,,072125,001,2023-07-24_20h06.55.082,arm3_eps,2022.2.5,Win32,144.1337561,6136aee758e3f41323d8c0c7,64aea9d0f615b6559c281482,64becba8123eeb0d1661eb9f,down,-1,0.3,0.2429,11,0,0.3758,,,,,,211,0,211,0,1,,,,,
,,072125,001,2023-07-24_20h06.55.082,arm3_eps,2022.2.5,Win32,144.1337561,6136aee758e3f41323d8c0c7,64aea9d0f615b6559c281482,64becba8123eeb0d1661eb9f,right,-1,0.3,0.2429,11,0.006585584,0.5299,,,,,,212,0,212,0,1,,,,,
,,072125,001,2023-07-24_20h06.55.082,arm3_eps,2022.2.5,Win32,144.1337561,6136aee758e3f41323d8c0c7,64aea9d0f615b6559c281482,64becba8123eeb0d1661eb9f,right,-1,0.3,0.2429,11,-0.034506005,0.1557,,,,,,213,0,213,0,1,,,,,
,,072125,001,2023-07-24_20h06.55.082,arm3_eps,2022.2.5,Win32,144.1337561,6136aee758e3f41323d8c0c7,64aea9d0f615b6559c281482,64becba8123eeb0d1661eb9f,right,-1,0.3,0.2429,11,-0.035842192,0.1663,,,,,,214,0,214,0,1,,,,,
,,072125,001,2023-07-24_20h06.55.082,arm3_eps,2022.2.5,Win32,144.1337561,6136aee758e3f41323d8c0c7,64aea9d0f615b6559c281482,64becba8123eeb0d1661eb9f,right,-1,0.3,0.2429,11,-0.03950216,0.1345,,,,,,215,0,215,0,1,,,,,
,,072125,001,2023-07-24_20h06.55.082,arm3_eps,2022.2.5,Win32,144.1337561,6136aee758e3f41323d8c0c7,64aea9d0f615b6559c281482,64becba8123eeb0d1661eb9f,down,1,0.3,0.2429,12,0,0.2518,,,,,,216,0,216,0,1,,,,,
,,072125,001,2023-07-24_20h06.55.082,arm3_eps,2022.2.5,Win32,144.1337561,6136aee758e3f41323d8c0c7,64aea9d0f615b6559c281482,64becba8123eeb0d1661eb9f,right,1,0.3,0.2429,12,0.007817986,0.649,,,,,,217,0,217,0,1,,,,,
,,072125,001,2023-07-24_20h06.55.082,arm3_eps,2022.2.5,Win32,144.1337561,6136aee758e3f41323d8c0c7,64aea9d0f615b6559c281482,64becba8123eeb0d1661eb9f,right,1,0.3,0.2429,12,0.045192674,0.1256,,,,,,218,0,218,0,1,,,,,
,,072125,001,2023-07-24_20h06.55.082,arm3_eps,2022.2.5,Win32,144.1337561,6136aee758e3f41323d8c0c7,64aea9d0f615b6559c281482,64becba8123eeb0d1661eb9f,right,1,0.3,0.2429,12,0.063621072,0.1542,,,,,,219,0,219,0,1,,,,,
,,072125,001,2023-07-24_20h06.55.082,arm3_eps,2022.2.5,Win32,144.1337561,6136aee758e3f41323d8c0c7,64aea9d0f615b6559c281482,64becba8123eeb0d1661eb9f,up,1,0.3,0.2429,13,0,0.3145,,,,,,220,0,220,0,1,,,,,
,,072125,001,2023-07-24_20h06.55.082,arm3_eps,2022.2.5,Win32,144.1337561,6136aee758e3f41323d8c0c7,64aea9d0f615b6559c281482,64becba8123eeb0d1661eb9f,right,1,0.3,0.2429,13,0.014159929,0.5931,,,,,,221,0,221,0,1,,,,,
,,072125,001,2023-07-24_20h06.55.082,arm3_eps,2022.2.5,Win32,144.1337561,6136aee758e3f41323d8c0c7,64aea9d0f615b6559c281482,64becba8123eeb0d1661eb9f,right,1,0.3,0.2429,13,0.011606181,0.1511,,,,,,222,0,222,0,1,,,,,
,,072125,001,2023-07-24_20h06.55.082,arm3_eps,2022.2.5,Win32,144.1337561,6136aee758e3f41323d8c0c7,64aea9d0f615b6559c281482,64becba8123eeb0d1661eb9f,right,1,0.3,0.2429,13,0.024049542,0.1363,,,,,,223,0,223,0,1,,,,,
,,072125,001,2023-07-24_20h06.55.082,arm3_eps,2022.2.5,Win32,144.1337561,6136aee758e3f41323d8c0c7,64aea9d0f615b6559c281482,64becba8123eeb0d1661eb9f,right,1,0.3,0.2429,13,-0.00856982,0.645,,,,,,224,0,224,0,1,,,,,
,,072125,001,2023-07-24_20h06.55.082,arm3_eps,2022.2.5,Win32,144.1337561,6136aee758e3f41323d8c0c7,64aea9d0f615b6559c281482,64becba8123eeb0d1661eb9f,right,1,0.3,0.2429,13,-0.010273407,0.4718,,,,,,225,0,225,0,1,,,,,
,,072125,001,2023-07-24_20h06.55.082,arm3_eps,2022.2.5,Win32,144.1337561,6136aee758e3f41323d8c0c7,64aea9d0f615b6559c281482,64becba8123eeb0d1661eb9f,right,1,0.3,0.2429,13,0.0072983,0.1606,,,,,,226,0,226,0,1,,,,,
,,072125,001,2023-07-24_20h06.55.082,arm3_eps,2022.2.5,Win32,144.1337561,6136aee758e3f41323d8c0c7,64aea9d0f615b6559c281482,64becba8123eeb0d1661eb9f,right,1,0.3,0.2429,13,-0.014141565,0.2501,,,,,,227,0,227,0,1,,,,,
,,072125,001,2023-07-24_20h06.55.082,arm3_eps,2022.2.5,Win32,144.1337561,6136aee758e3f41323d8c0c7,64aea9d0f615b6559c281482,64becba8123eeb0d1661eb9f,right,1,0.3,0.2429,13,-0.011539013,0.1933,,,,,,228,0,228,0,1,,,,,
,,072125,001,2023-07-24_20h06.55.082,arm3_eps,2022.2.5,Win32,144.1337561,6136aee758e3f41323d8c0c7,64aea9d0f615b6559c281482,64becba8123eeb0d1661eb9f,right,1,0.3,0.2429,13,0.013462086,0.1596,,,,,,229,0,229,0,1,,,,,
,,072125,001,2023-07-24_20h06.55.082,arm3_eps,2022.2.5,Win32,144.1337561,6136aee758e3f41323d8c0c7,64aea9d0f615b6559c281482,64becba8123eeb0d1661eb9f,right,1,0.3,0.2429,13,-0.004231432,0.5771,,,,,,230,0,230,0,1,,,,,
,,072125,001,2023-07-24_20h06.55.082,arm3_eps,2022.2.5,Win32,144.1337561,6136aee758e3f41323d8c0c7,64aea9d0f615b6559c281482,64becba8123eeb0d1661eb9f,down,-1,0.3,0.2429,13,0,1.5373,,,,,,231,0,231,0,1,,,,,
,,072125,001,2023-07-24_20h06.55.082,arm3_eps,2022.2.5,Win32,144.1337561,6136aee758e3f41323d8c0c7,64aea9d0f615b6559c281482,64becba8123eeb0d1661eb9f,right,-1,0.3,0.2429,13,0.013712918,0.5934,,,,,,232,0,232,0,1,,,,,
,,072125,001,2023-07-24_20h06.55.082,arm3_eps,2022.2.5,Win32,144.1337561,6136aee758e3f41323d8c0c7,64aea9d0f615b6559c281482,64becba8123eeb0d1661eb9f,right,-1,0.3,0.2429,13,0.016829724,0.1839,,,,,,233,0,233,0,1,,,,,
,,072125,001,2023-07-24_20h06.55.082,arm3_eps,2022.2.5,Win32,144.1337561,6136aee758e3f41323d8c0c7,64aea9d0f615b6559c281482,64becba8123eeb0d1661eb9f,right,-1,0.3,0.2429,13,0.028436426,0.2847,,,,,,234,0,234,0,1,,,,,
,,072125,001,2023-07-24_20h06.55.082,arm3_eps,2022.2.5,Win32,144.1337561,6136aee758e3f41323d8c0c7,64aea9d0f615b6559c281482,64becba8123eeb0d1661eb9f,right,-1,0.3,0.2429,13,0.030920836,0.3695,,,,,,235,0,235,0,1,,,,,
,,072125,001,2023-07-24_20h06.55.082,arm3_eps,2022.2.5,Win32,144.1337561,6136aee758e3f41323d8c0c7,64aea9d0f615b6559c281482,64becba8123eeb0d1661eb9f,up,-1,0.3,0.2429,12,0,0.2737,,,,,,236,0,236,0,1,,,,,
,,072125,001,2023-07-24_20h06.55.082,arm3_eps,2022.2.5,Win32,144.1337561,6136aee758e3f41323d8c0c7,64aea9d0f615b6559c281482,64becba8123eeb0d1661eb9f,right,-1,0.3,0.2429,12,0.028907562,0.4907,,,,,,237,0,237,0,1,,,,,
,,072125,001,2023-07-24_20h06.55.082,arm3_eps,2022.2.5,Win32,144.1337561,6136aee758e3f41323d8c0c7,64aea9d0f615b6559c281482,64becba8123eeb0d1661eb9f,right,-1,0.3,0.2429,12,0.045007413,0.1793,,,,,,238,0,238,0,1,,,,,
,,072125,001,2023-07-24_20h06.55.082,arm3_eps,2022.2.5,Win32,144.1337561,6136aee758e3f41323d8c0c7,64aea9d0f615b6559c281482,64becba8123eeb0d1661eb9f,right,-1,0.3,0.2429,12,0.02456939,0.1223,,,,,,239,0,239,0,1,,,,,
,,072125,001,2023-07-24_20h06.55.082,arm3_eps,2022.2.5,Win32,144.1337561,6136aee758e3f41323d8c0c7,64aea9d0f615b6559c281482,64becba8123eeb0d1661eb9f,right,-1,0.3,0.2429,12,0.048588269,0.1573,,,,,,240,0,240,0,1,,,,,
,,072125,001,2023-07-24_20h06.55.082,arm3_eps,2022.2.5,Win32,144.1337561,6136aee758e3f41323d8c0c7,64aea9d0f615b6559c281482,64becba8123eeb0d1661eb9f,up,1,0.3,0.2429,11,0,0.3357,,,,,,241,0,241,0,1,,,,,
,,072125,001,2023-07-24_20h06.55.082,arm3_eps,2022.2.5,Win32,144.1337561,6136aee758e3f41323d8c0c7,64aea9d0f615b6559c281482,64becba8123eeb0d1661eb9f,right,1,0.3,0.2429,11,0.007511785,0.5155,,,,,,242,0,242,0,1,,,,,
,,072125,001,2023-07-24_20h06.55.082,arm3_eps,2022.2.5,Win32,144.1337561,6136aee758e3f41323d8c0c7,64aea9d0f615b6559c281482,64becba8123eeb0d1661eb9f,right,1,0.3,0.2429,11,0.03377983,0.1747,,,,,,243,0,243,0,1,,,,,
,,072125,001,2023-07-24_20h06.55.082,arm3_eps,2022.2.5,Win32,144.1337561,6136aee758e3f41323d8c0c7,64aea9d0f615b6559c281482,64becba8123eeb0d1661eb9f,right,1,0.3,0.2429,11,0.027170237,0.1223,,,,,,244,0,244,0,1,,,,,
,,072125,001,2023-07-24_20h06.55.082,arm3_eps,2022.2.5,Win32,144.1337561,6136aee758e3f41323d8c0c7,64aea9d0f615b6559c281482,64becba8123eeb0d1661eb9f,right,1,0.3,0.2429,11,0.032740334,0.1565,,,,,,245,0,245,0,1,,,,,
,,072125,001,2023-07-24_20h06.55.082,arm3_eps,2022.2.5,Win32,144.1337561,6136aee758e3f41323d8c0c7,64aea9d0f615b6559c281482,64becba8123eeb0d1661eb9f,right,1,0.3,0.2429,11,0.07126764,0.1415,,,,,,246,0,246,0,1,,,,,
,,072125,001,2023-07-24_20h06.55.082,arm3_eps,2022.2.5,Win32,144.1337561,6136aee758e3f41323d8c0c7,64aea9d0f615b6559c281482,64becba8123eeb0d1661eb9f,up,1,0.3,0.2429,12,0,0.3289,,,,,,247,0,247,0,1,,,,,
,,072125,001,2023-07-24_20h06.55.082,arm3_eps,2022.2.5,Win32,144.1337561,6136aee758e3f41323d8c0c7,64aea9d0f615b6559c281482,64becba8123eeb0d1661eb9f,right,1,0.3,0.2429,12,-0.003934837,0.5386,,,,,,248,0,248,0,1,,,,,
,,072125,001,2023-07-24_20h06.55.082,arm3_eps,2022.2.5,Win32,144.1337561,6136aee758e3f41323d8c0c7,64aea9d0f615b6559c281482,64becba8123eeb0d1661eb9f,right,1,0.3,0.2429,12,-0.042454212,0.1512,,,,,,249,0,249,0,1,,,,,
,,072125,001,2023-07-24_20h06.55.082,arm3_eps,2022.2.5,Win32,144.1337561,6136aee758e3f41323d8c0c7,64aea9d0f615b6559c281482,64becba8123eeb0d1661eb9f,right,1,0.3,0.2429,12,-0.020039239,0.1589,,,,,,250,0,250,0,1,,,,,
,,072125,001,2023-07-24_20h06.55.082,arm3_eps,2022.2.5,Win32,144.1337561,6136aee758e3f41323d8c0c7,64aea9d0f615b6559c281482,64becba8123eeb0d1661eb9f,right,1,0.3,0.2429,12,0.004699924,0.1201,,,,,,251,0,251,0,1,,,,,
,,072125,001,2023-07-24_20h06.55.082,arm3_eps,2022.2.5,Win32,144.1337561,6136aee758e3f41323d8c0c7,64aea9d0f615b6559c281482,64becba8123eeb0d1661eb9f,right,1,0.3,0.2429,12,-0.001980948,0.2515,,,,,,252,0,252,0,1,,,,,
,,072125,001,2023-07-24_20h06.55.082,arm3_eps,2022.2.5,Win32,144.1337561,6136aee758e3f41323d8c0c7,64aea9d0f615b6559c281482,64becba8123eeb0d1661eb9f,right,1,0.3,0.2429,12,-0.003427068,0.3392,,,,,,253,0,253,0,1,,,,,
,,072125,001,2023-07-24_20h06.55.082,arm3_eps,2022.2.5,Win32,144.1337561,6136aee758e3f41323d8c0c7,64aea9d0f615b6559c281482,64becba8123eeb0d1661eb9f,right,1,0.3,0.2429,12,0.025743062,0.3523,,,,,,254,0,254,0,1,,,,,
,,072125,001,2023-07-24_20h06.55.082,arm3_eps,2022.2.5,Win32,144.1337561,6136aee758e3f41323d8c0c7,64aea9d0f615b6559c281482,64becba8123eeb0d1661eb9f,up,1,0.3,0.2429,12,0,0.4943,,,,,,255,0,255,0,1,,,,,
,,072125,001,2023-07-24_20h06.55.082,arm3_eps,2022.2.5,Win32,144.1337561,6136aee758e3f41323d8c0c7,64aea9d0f615b6559c281482,64becba8123eeb0d1661eb9f,right,1,0.3,0.2429,12,-0.002213727,0.5835,,,,,,256,0,256,0,1,,,,,
,,072125,001,2023-07-24_20h06.55.082,arm3_eps,2022.2.5,Win32,144.1337561,6136aee758e3f41323d8c0c7,64aea9d0f615b6559c281482,64becba8123eeb0d1661eb9f,right,1,0.3,0.2429,12,-0.013254572,0.1641,,,,,,257,0,257,0,1,,,,,
,,072125,001,2023-07-24_20h06.55.082,arm3_eps,2022.2.5,Win32,144.1337561,6136aee758e3f41323d8c0c7,64aea9d0f615b6559c281482,64becba8123eeb0d1661eb9f,right,1,0.3,0.2429,12,0.017439597,0.1421,,,,,,258,0,258,0,1,,,,,
,,072125,001,2023-07-24_20h06.55.082,arm3_eps,2022.2.5,Win32,144.1337561,6136aee758e3f41323d8c0c7,64aea9d0f615b6559c281482,64becba8123eeb0d1661eb9f,right,1,0.3,0.2429,12,0.007378034,0.1308,,,,,,259,0,259,0,1,,,,,
,,072125,001,2023-07-24_20h06.55.082,arm3_eps,2022.2.5,Win32,144.1337561,6136aee758e3f41323d8c0c7,64aea9d0f615b6559c281482,64becba8123eeb0d1661eb9f,right,1,0.3,0.2429,12,0.005411597,0.1457,,,,,,260,0,260,0,1,,,,,
,,072125,001,2023-07-24_20h06.55.082,arm3_eps,2022.2.5,Win32,144.1337561,6136aee758e3f41323d8c0c7,64aea9d0f615b6559c281482,64becba8123eeb0d1661eb9f,right,1,0.3,0.2429,12,0.032811392,0.1531,,,,,,261,0,261,0,1,,,,,
,,072125,001,2023-07-24_20h06.55.082,arm3_eps,2022.2.5,Win32,144.1337561,6136aee758e3f41323d8c0c7,64aea9d0f615b6559c281482,64becba8123eeb0d1661eb9f,right,1,0.3,0.2429,12,0.04656401,0.1306,,,,,,262,0,262,0,1,,,,,
,,072125,001,2023-07-24_20h06.55.082,arm3_eps,2022.2.5,Win32,144.1337561,6136aee758e3f41323d8c0c7,64aea9d0f615b6559c281482,64becba8123eeb0d1661eb9f,right,1,0.3,0.2429,12,0.037632287,0.1418,,,,,,263,0,263,0,1,,,,,
,,072125,001,2023-07-24_20h06.55.082,arm3_eps,2022.2.5,Win32,144.1337561,6136aee758e3f41323d8c0c7,64aea9d0f615b6559c281482,64becba8123eeb0d1661eb9f,up,1,0.3,0.2429,12,0,0.2445,,,,,,264,0,264,0,1,,,,,
,,072125,001,2023-07-24_20h06.55.082,arm3_eps,2022.2.5,Win32,144.1337561,6136aee758e3f41323d8c0c7,64aea9d0f615b6559c281482,64becba8123eeb0d1661eb9f,right,1,0.3,0.2429,12,0.056991844,0.5298,,,,,,265,0,265,0,1,,,,,
,,072125,001,2023-07-24_20h06.55.082,arm3_eps,2022.2.5,Win32,144.1337561,6136aee758e3f41323d8c0c7,64aea9d0f615b6559c281482,64becba8123eeb0d1661eb9f,right,1,0.3,0.2429,12,0.091359579,0.1874,,,,,,266,0,266,0,1,,,,,
,,072125,001,2023-07-24_20h06.55.082,arm3_eps,2022.2.5,Win32,144.1337561,6136aee758e3f41323d8c0c7,64aea9d0f615b6559c281482,64becba8123eeb0d1661eb9f,right,1,0.3,0.2429,12,0.135766295,0.1614,,,,,,267,0,267,0,1,,,,,
,,072125,001,2023-07-24_20h06.55.082,arm3_eps,2022.2.5,Win32,144.1337561,6136aee758e3f41323d8c0c7,64aea9d0f615b6559c281482,64becba8123eeb0d1661eb9f,right,1,0.3,0.2429,12,0.11536925,0.2747,,,,,,268,0,268,0,1,,,,,
,,072125,001,2023-07-24_20h06.55.082,arm3_eps,2022.2.5,Win32,144.1337561,6136aee758e3f41323d8c0c7,64aea9d0f615b6559c281482,64becba8123eeb0d1661eb9f,up,-1,0.3,0.2429,13,0,0.4524,,,,,,269,0,269,0,1,,,,,
,,072125,001,2023-07-24_20h06.55.082,arm3_eps,2022.2.5,Win32,144.1337561,6136aee758e3f41323d8c0c7,64aea9d0f615b6559c281482,64becba8123eeb0d1661eb9f,right,-1,0.3,0.2429,13,-0.015786461,0.5051,,,,,,270,0,270,0,1,,,,,
,,072125,001,2023-07-24_20h06.55.082,arm3_eps,2022.2.5,Win32,144.1337561,6136aee758e3f41323d8c0c7,64aea9d0f615b6559c281482,64becba8123eeb0d1661eb9f,right,-1,0.3,0.2429,13,-0.022820309,0.1689,,,,,,271,0,271,0,1,,,,,
,,072125,001,2023-07-24_20h06.55.082,arm3_eps,2022.2.5,Win32,144.1337561,6136aee758e3f41323d8c0c7,64aea9d0f615b6559c281482,64becba8123eeb0d1661eb9f,right,-1,0.3,0.2429,13,-0.024428861,0.7151,,,,,,272,0,272,0,1,,,,,
,,072125,001,2023-07-24_20h06.55.082,arm3_eps,2022.2.5,Win32,144.1337561,6136aee758e3f41323d8c0c7,64aea9d0f615b6559c281482,64becba8123eeb0d1661eb9f,right,-1,0.3,0.2429,13,-0.044719362,0.2974,,,,,,273,0,273,0,1,,,,,
,,072125,001,2023-07-24_20h06.55.082,arm3_eps,2022.2.5,Win32,144.1337561,6136aee758e3f41323d8c0c7,64aea9d0f615b6559c281482,64becba8123eeb0d1661eb9f,right,-1,0.3,0.2429,13,-0.094873435,0.3285,,,,,,274,0,274,0,1,,,,,
,,072125,001,2023-07-24_20h06.55.082,arm3_eps,2022.2.5,Win32,144.1337561,6136aee758e3f41323d8c0c7,64aea9d0f615b6559c281482,64becba8123eeb0d1661eb9f,down,-1,0.3,0.2429,13,0,0.2114,,,,,,275,0,275,0,1,,,,,
,,072125,001,2023-07-24_20h06.55.082,arm3_eps,2022.2.5,Win32,144.1337561,6136aee758e3f41323d8c0c7,64aea9d0f615b6559c281482,64becba8123eeb0d1661eb9f,right,-1,0.3,0.2429,13,-0.025244678,0.5295,,,,,,276,0,276,0,1,,,,,
,,072125,001,2023-07-24_20h06.55.082,arm3_eps,2022.2.5,Win32,144.1337561,6136aee758e3f41323d8c0c7,64aea9d0f615b6559c281482,64becba8123eeb0d1661eb9f,right,-1,0.3,0.2429,13,-0.054488166,0.1804,,,,,,277,0,277,0,1,,,,,
,,072125,001,2023-07-24_20h06.55.082,arm3_eps,2022.2.5,Win32,144.1337561,6136aee758e3f41323d8c0c7,64aea9d0f615b6559c281482,64becba8123eeb0d1661eb9f,right,-1,0.3,0.2429,13,-0.083498928,0.1215,,,,,,278,0,278,0,1,,,,,
,,072125,001,2023-07-24_20h06.55.082,arm3_eps,2022.2.5,Win32,144.1337561,6136aee758e3f41323d8c0c7,64aea9d0f615b6559c281482,64becba8123eeb0d1661eb9f,down,-1,0.3,0.2429,14,0,0.2523,,,,,,279,0,279,0,1,,,,,
,,072125,001,2023-07-24_20h06.55.082,arm3_eps,2022.2.5,Win32,144.1337561,6136aee758e3f41323d8c0c7,64aea9d0f615b6559c281482,64becba8123eeb0d1661eb9f,right,-1,0.3,0.2429,14,-0.022129679,0.5528,,,,,,280,0,280,0,1,,,,,
,,072125,001,2023-07-24_20h06.55.082,arm3_eps,2022.2.5,Win32,144.1337561,6136aee758e3f41323d8c0c7,64aea9d0f615b6559c281482,64becba8123eeb0d1661eb9f,right,-1,0.3,0.2429,14,-0.016834502,0.1604,,,,,,281,0,281,0,1,,,,,
,,072125,001,2023-07-24_20h06.55.082,arm3_eps,2022.2.5,Win32,144.1337561,6136aee758e3f41323d8c0c7,64aea9d0f615b6559c281482,64becba8123eeb0d1661eb9f,right,-1,0.3,0.2429,14,-0.042673011,0.1301,,,,,,282,0,282,0,1,,,,,
,,072125,001,2023-07-24_20h06.55.082,arm3_eps,2022.2.5,Win32,144.1337561,6136aee758e3f41323d8c0c7,64aea9d0f615b6559c281482,64becba8123eeb0d1661eb9f,right,-1,0.3,0.2429,14,-0.055161391,0.1831,,,,,,283,0,283,0,1,,,,,
,,072125,001,2023-07-24_20h06.55.082,arm3_eps,2022.2.5,Win32,144.1337561,6136aee758e3f41323d8c0c7,64aea9d0f615b6559c281482,64becba8123eeb0d1661eb9f,right,-1,0.3,0.2429,14,-0.05082779,0.3952,,,,,,284,0,284,0,1,,,,,
,,072125,001,2023-07-24_20h06.55.082,arm3_eps,2022.2.5,Win32,144.1337561,6136aee758e3f41323d8c0c7,64aea9d0f615b6559c281482,64becba8123eeb0d1661eb9f,down,-1,0.3,0.2429,14,0,0.4889,,,,,,285,0,285,0,1,,,,,
,,072125,001,2023-07-24_20h06.55.082,arm3_eps,2022.2.5,Win32,144.1337561,6136aee758e3f41323d8c0c7,64aea9d0f615b6559c281482,64becba8123eeb0d1661eb9f,right,-1,0.3,0.2429,14,-0.028220393,0.4971,,,,,,286,0,286,0,1,,,,,
,,072125,001,2023-07-24_20h06.55.082,arm3_eps,2022.2.5,Win32,144.1337561,6136aee758e3f41323d8c0c7,64aea9d0f615b6559c281482,64becba8123eeb0d1661eb9f,right,-1,0.3,0.2429,14,-0.048086625,0.1513,,,,,,287,0,287,0,1,,,,,
,,072125,001,2023-07-24_20h06.55.082,arm3_eps,2022.2.5,Win32,144.1337561,6136aee758e3f41323d8c0c7,64aea9d0f615b6559c281482,64becba8123eeb0d1661eb9f,right,-1,0.3,0.2429,14,-0.04398971,0.1523,,,,,,288,0,288,0,1,,,,,
,,072125,001,2023-07-24_20h06.55.082,arm3_eps,2022.2.5,Win32,144.1337561,6136aee758e3f41323d8c0c7,64aea9d0f615b6559c281482,64becba8123eeb0d1661eb9f,right,-1,0.3,0.2429,14,-0.049500394,0.1444,,,,,,289,0,289,0,1,,,,,
,,072125,001,2023-07-24_20h06.55.082,arm3_eps,2022.2.5,Win32,144.1337561,6136aee758e3f41323d8c0c7,64aea9d0f615b6559c281482,64becba8123eeb0d1661eb9f,right,-1,0.3,0.2429,14,-0.071766039,0.1522,,,,,,290,0,290,0,1,,,,,
,,072125,001,2023-07-24_20h06.55.082,arm3_eps,2022.2.5,Win32,144.1337561,6136aee758e3f41323d8c0c7,64aea9d0f615b6559c281482,64becba8123eeb0d1661eb9f,down,-1,0.3,0.2429,14,0,0.248,,,,,,291,0,291,0,1,,,,,
,,072125,001,2023-07-24_20h06.55.082,arm3_eps,2022.2.5,Win32,144.1337561,6136aee758e3f41323d8c0c7,64aea9d0f615b6559c281482,64becba8123eeb0d1661eb9f,right,-1,0.3,0.2429,14,0.014435903,0.4457,,,,,,292,0,292,0,1,,,,,
,,072125,001,2023-07-24_20h06.55.082,arm3_eps,2022.2.5,Win32,144.1337561,6136aee758e3f41323d8c0c7,64aea9d0f615b6559c281482,64becba8123eeb0d1661eb9f,right,-1,0.3,0.2429,14,0.040110647,0.1568,,,,,,293,0,293,0,1,,,,,
,,072125,001,2023-07-24_20h06.55.082,arm3_eps,2022.2.5,Win32,144.1337561,6136aee758e3f41323d8c0c7,64aea9d0f615b6559c281482,64becba8123eeb0d1661eb9f,right,-1,0.3,0.2429,14,0.034681147,0.1645,,,,,,294,0,294,0,1,,,,,
,,072125,001,2023-07-24_20h06.55.082,arm3_eps,2022.2.5,Win32,144.1337561,6136aee758e3f41323d8c0c7,64aea9d0f615b6559c281482,64becba8123eeb0d1661eb9f,right,-1,0.3,0.2429,14,0.027809425,0.1271,,,,,,295,0,295,0,1,,,,,
,,072125,001,2023-07-24_20h06.55.082,arm3_eps,2022.2.5,Win32,144.1337561,6136aee758e3f41323d8c0c7,64aea9d0f615b6559c281482,64becba8123eeb0d1661eb9f,right,-1,0.3,0.2429,14,-0.00228321,0.1559,,,,,,296,0,296,0,1,,,,,
,,072125,001,2023-07-24_20h06.55.082,arm3_eps,2022.2.5,Win32,144.1337561,6136aee758e3f41323d8c0c7,64aea9d0f615b6559c281482,64becba8123eeb0d1661eb9f,right,-1,0.3,0.2429,14,-0.040936081,0.1641,,,,,,297,0,297,0,1,,,,,
,,072125,001,2023-07-24_20h06.55.082,arm3_eps,2022.2.5,Win32,144.1337561,6136aee758e3f41323d8c0c7,64aea9d0f615b6559c281482,64becba8123eeb0d1661eb9f,right,-1,0.3,0.2429,14,-0.033757056,0.1578,,,,,,298,0,298,0,1,,,,,
,,072125,001,2023-07-24_20h06.55.082,arm3_eps,2022.2.5,Win32,144.1337561,6136aee758e3f41323d8c0c7,64aea9d0f615b6559c281482,64becba8123eeb0d1661eb9f,right,-1,0.3,0.2429,14,-0.019438136,0.2378,,,,,,299,0,299,0,1,,,,,
,,072125,001,2023-07-24_20h06.55.082,arm3_eps,2022.2.5,Win32,144.1337561,6136aee758e3f41323d8c0c7,64aea9d0f615b6559c281482,64becba8123eeb0d1661eb9f,right,-1,0.3,0.2429,14,-0.014322283,0.1728,,,,,,300,0,300,0,1,,,,,
,,072125,001,2023-07-24_20h06.55.082,arm3_eps,2022.2.5,Win32,144.1337561,6136aee758e3f41323d8c0c7,64aea9d0f615b6559c281482,64becba8123eeb0d1661eb9f,right,-1,0.3,0.2429,14,0.023382936,0.1422,,,,,,301,0,301,0,1,,,,,
,,072125,001,2023-07-24_20h06.55.082,arm3_eps,2022.2.5,Win32,144.1337561,6136aee758e3f41323d8c0c7,64aea9d0f615b6559c281482,64becba8123eeb0d1661eb9f,up,1,0.3,0.2429,14,0,0.3248,,,,,,302,0,302,0,1,,,,,
,,072125,001,2023-07-24_20h06.55.082,arm3_eps,2022.2.5,Win32,144.1337561,6136aee758e3f41323d8c0c7,64aea9d0f615b6559c281482,64becba8123eeb0d1661eb9f,right,1,0.3,0.2429,14,0.023044398,0.4551,,,,,,303,0,303,0,1,,,,,
,,072125,001,2023-07-24_20h06.55.082,arm3_eps,2022.2.5,Win32,144.1337561,6136aee758e3f41323d8c0c7,64aea9d0f615b6559c281482,64becba8123eeb0d1661eb9f,right,1,0.3,0.2429,14,0.030982111,0.142,,,,,,304,0,304,0,1,,,,,
,,072125,001,2023-07-24_20h06.55.082,arm3_eps,2022.2.5,Win32,144.1337561,6136aee758e3f41323d8c0c7,64aea9d0f615b6559c281482,64becba8123eeb0d1661eb9f,right,1,0.3,0.2429,14,0.050156341,0.1654,,,,,,305,0,305,0,1,,,,,
,,072125,001,2023-07-24_20h06.55.082,arm3_eps,2022.2.5,Win32,144.1337561,6136aee758e3f41323d8c0c7,64aea9d0f615b6559c281482,64becba8123eeb0d1661eb9f,right,1,0.3,0.2429,14,0.058183566,0.2229,,,,,,306,0,306,0,1,,,,,
,,072125,001,2023-07-24_20h06.55.082,arm3_eps,2022.2.5,Win32,144.1337561,6136aee758e3f41323d8c0c7,64aea9d0f615b6559c281482,64becba8123eeb0d1661eb9f,up,1,0.3,0.2429,14,0,0.3046,,,,,,307,0,307,0,1,,,,,
,,072125,001,2023-07-24_20h06.55.082,arm3_eps,2022.2.5,Win32,144.1337561,6136aee758e3f41323d8c0c7,64aea9d0f615b6559c281482,64becba8123eeb0d1661eb9f,right,1,0.3,0.2429,14,0.017106767,0.4793,,,,,,308,0,308,0,1,,,,,
,,072125,001,2023-07-24_20h06.55.082,arm3_eps,2022.2.5,Win32,144.1337561,6136aee758e3f41323d8c0c7,64aea9d0f615b6559c281482,64becba8123eeb0d1661eb9f,right,1,0.3,0.2429,14,0.000278067,0.1719,,,,,,309,0,309,0,1,,,,,
,,072125,001,2023-07-24_20h06.55.082,arm3_eps,2022.2.5,Win32,144.1337561,6136aee758e3f41323d8c0c7,64aea9d0f615b6559c281482,64becba8123eeb0d1661eb9f,right,1,0.3,0.2429,14,-0.04035213,0.1662,,,,,,310,0,310,0,1,,,,,
,,072125,001,2023-07-24_20h06.55.082,arm3_eps,2022.2.5,Win32,144.1337561,6136aee758e3f41323d8c0c7,64aea9d0f615b6559c281482,64becba8123eeb0d1661eb9f,right,1,0.3,0.2429,14,-0.032844411,0.1517,,,,,,311,0,311,0,1,,,,,
,,072125,001,2023-07-24_20h06.55.082,arm3_eps,2022.2.5,Win32,144.1337561,6136aee758e3f41323d8c0c7,64aea9d0f615b6559c281482,64becba8123eeb0d1661eb9f,down,1,0.3,0.2429,14,0,0.4808,,,,,,312,0,312,0,1,,,,,
,,072125,001,2023-07-24_20h06.55.082,arm3_eps,2022.2.5,Win32,144.1337561,6136aee758e3f41323d8c0c7,64aea9d0f615b6559c281482,64becba8123eeb0d1661eb9f,right,1,0.3,0.2429,14,-0.000569804,0.5702,,,,,,313,0,313,0,1,,,,,
,,072125,001,2023-07-24_20h06.55.082,arm3_eps,2022.2.5,Win32,144.1337561,6136aee758e3f41323d8c0c7,64aea9d0f615b6559c281482,64becba8123eeb0d1661eb9f,right,1,0.3,0.2429,14,0.031126078,0.1619,,,,,,314,0,314,0,1,,,,,
,,072125,001,2023-07-24_20h06.55.082,arm3_eps,2022.2.5,Win32,144.1337561,6136aee758e3f41323d8c0c7,64aea9d0f615b6559c281482,64becba8123eeb0d1661eb9f,right,1,0.3,0.2429,14,0.053079641,0.1799,,,,,,315,0,315,0,1,,,,,
,,072125,001,2023-07-24_20h06.55.082,arm3_eps,2022.2.5,Win32,144.1337561,6136aee758e3f41323d8c0c7,64aea9d0f615b6559c281482,64becba8123eeb0d1661eb9f,up,-1,0.3,0.2429,14,0,0.3366,,,,,,316,0,316,0,1,,,,,
,,072125,001,2023-07-24_20h06.55.082,arm3_eps,2022.2.5,Win32,144.1337561,6136aee758e3f41323d8c0c7,64aea9d0f615b6559c281482,64becba8123eeb0d1661eb9f,right,-1,0.3,0.2429,14,0.021655617,0.5154,,,,,,317,0,317,0,1,,,,,
,,072125,001,2023-07-24_20h06.55.082,arm3_eps,2022.2.5,Win32,144.1337561,6136aee758e3f41323d8c0c7,64aea9d0f615b6559c281482,64becba8123eeb0d1661eb9f,right,-1,0.3,0.2429,14,0.065496787,0.1471,,,,,,318,0,318,0,1,,,,,
,,072125,001,2023-07-24_20h06.55.082,arm3_eps,2022.2.5,Win32,144.1337561,6136aee758e3f41323d8c0c7,64aea9d0f615b6559c281482,64becba8123eeb0d1661eb9f,right,-1,0.3,0.2429,14,0.055586526,0.1549,,,,,,319,0,319,0,1,,,,,
,,072125,001,2023-07-24_20h06.55.082,arm3_eps,2022.2.5,Win32,144.1337561,6136aee758e3f41323d8c0c7,64aea9d0f615b6559c281482,64becba8123eeb0d1661eb9f,right,-1,0.3,0.2429,14,0.044703501,0.1794,,,,,,320,0,320,0,1,,,,,
,,072125,001,2023-07-24_20h06.55.082,arm3_eps,2022.2.5,Win32,144.1337561,6136aee758e3f41323d8c0c7,64aea9d0f615b6559c281482,64becba8123eeb0d1661eb9f,down,-1,0.3,0.2429,15,0,0.9985,,,,,,321,0,321,0,1,,,,,
,,072125,001,2023-07-24_20h06.55.082,arm3_eps,2022.2.5,Win32,144.1337561,6136aee758e3f41323d8c0c7,64aea9d0f615b6559c281482,64becba8123eeb0d1661eb9f,right,-1,0.3,0.2429,15,-0.010650234,0.5494,,,,,,322,0,322,0,1,,,,,
,,072125,001,2023-07-24_20h06.55.082,arm3_eps,2022.2.5,Win32,144.1337561,6136aee758e3f41323d8c0c7,64aea9d0f615b6559c281482,64becba8123eeb0d1661eb9f,right,-1,0.3,0.2429,15,-0.035981709,0.1719,,,,,,323,0,323,0,1,,,,,
,,072125,001,2023-07-24_20h06.55.082,arm3_eps,2022.2.5,Win32,144.1337561,6136aee758e3f41323d8c0c7,64aea9d0f615b6559c281482,64becba8123eeb0d1661eb9f,right,-1,0.3,0.2429,15,-0.068562137,0.1441,,,,,,324,0,324,0,1,,,,,
,,072125,001,2023-07-24_20h06.55.082,arm3_eps,2022.2.5,Win32,144.1337561,6136aee758e3f41323d8c0c7,64aea9d0f615b6559c281482,64becba8123eeb0d1661eb9f,down,-1,0.3,0.2429,15,0,0.8157,,,,,,325,0,325,0,1,,,,,
,,072125,001,2023-07-24_20h06.55.082,arm3_eps,2022.2.5,Win32,144.1337561,6136aee758e3f41323d8c0c7,64aea9d0f615b6559c281482,64becba8123eeb0d1661eb9f,right,-1,0.3,0.2429,15,-0.023110779,0.6259,,,,,,326,0,326,0,1,,,,,
,,072125,001,2023-07-24_20h06.55.082,arm3_eps,2022.2.5,Win32,144.1337561,6136aee758e3f41323d8c0c7,64aea9d0f615b6559c281482,64becba8123eeb0d1661eb9f,right,-1,0.3,0.2429,15,-0.044083992,0.1804,,,,,,327,0,327,0,1,,,,,
,,072125,001,2023-07-24_20h06.55.082,arm3_eps,2022.2.5,Win32,144.1337561,6136aee758e3f41323d8c0c7,64aea9d0f615b6559c281482,64becba8123eeb0d1661eb9f,right,-1,0.3,0.2429,15,-0.06492593,0.1684,,,,,,328,0,328,0,1,,,,,
,,072125,001,2023-07-24_20h06.55.082,arm3_eps,2022.2.5,Win32,144.1337561,6136aee758e3f41323d8c0c7,64aea9d0f615b6559c281482,64becba8123eeb0d1661eb9f,right,-1,0.3,0.2429,15,-0.051713014,0.1551,,,,,,329,0,329,0,1,,,,,
,,072125,001,2023-07-24_20h06.55.082,arm3_eps,2022.2.5,Win32,144.1337561,6136aee758e3f41323d8c0c7,64aea9d0f615b6559c281482,64becba8123eeb0d1661eb9f,down,1,0.3,0.2429,15,0,0.4985,,,,,,330,0,330,0,1,,,,,
,,072125,001,2023-07-24_20h06.55.082,arm3_eps,2022.2.5,Win32,144.1337561,6136aee758e3f41323d8c0c7,64aea9d0f615b6559c281482,64becba8123eeb0d1661eb9f,right,1,0.3,0.2429,15,0.007136695,0.6222,,,,,,331,0,331,0,1,,,,,
,,072125,001,2023-07-24_20h06.55.082,arm3_eps,2022.2.5,Win32,144.1337561,6136aee758e3f41323d8c0c7,64aea9d0f615b6559c281482,64becba8123eeb0d1661eb9f,right,1,0.3,0.2429,15,0.042326874,0.1603,,,,,,332,0,332,0,1,,,,,
,,072125,001,2023-07-24_20h06.55.082,arm3_eps,2022.2.5,Win32,144.1337561,6136aee758e3f41323d8c0c7,64aea9d0f615b6559c281482,64becba8123eeb0d1661eb9f,right,1,0.3,0.2429,15,0.074918478,0.2251,,,,,,333,0,333,0,1,,,,,
,,072125,001,2023-07-24_20h06.55.082,arm3_eps,2022.2.5,Win32,144.1337561,6136aee758e3f41323d8c0c7,64aea9d0f615b6559c281482,64becba8123eeb0d1661eb9f,up,1,0.3,0.2429,15,0,0.3401,,,,,,334,0,334,0,1,,,,,
,,072125,001,2023-07-24_20h06.55.082,arm3_eps,2022.2.5,Win32,144.1337561,6136aee758e3f41323d8c0c7,64aea9d0f615b6559c281482,64becba8123eeb0d1661eb9f,right,1,0.3,0.2429,15,-0.015960891,0.5522,,,,,,335,0,335,0,1,,,,,
,,072125,001,2023-07-24_20h06.55.082,arm3_eps,2022.2.5,Win32,144.1337561,6136aee758e3f41323d8c0c7,64aea9d0f615b6559c281482,64becba8123eeb0d1661eb9f,right,1,0.3,0.2429,15,0.009447554,0.159,,,,,,336,0,336,0,1,,,,,
,,072125,001,2023-07-24_20h06.55.082,arm3_eps,2022.2.5,Win32,144.1337561,6136aee758e3f41323d8c0c7,64aea9d0f615b6559c281482,64becba8123eeb0d1661eb9f,right,1,0.3,0.2429,15,-0.000162529,0.1602,,,,,,337,0,337,0,1,,,,,
,,072125,001,2023-07-24_20h06.55.082,arm3_eps,2022.2.5,Win32,144.1337561,6136aee758e3f41323d8c0c7,64aea9d0f615b6559c281482,64becba8123eeb0d1661eb9f,right,1,0.3,0.2429,15,0.010302972,0.1618,,,,,,338,0,338,0,1,,,,,
,,072125,001,2023-07-24_20h06.55.082,arm3_eps,2022.2.5,Win32,144.1337561,6136aee758e3f41323d8c0c7,64aea9d0f615b6559c281482,64becba8123eeb0d1661eb9f,right,1,0.3,0.2429,15,0.042175957,0.1797,,,,,,339,0,339,0,1,,,,,
,,072125,001,2023-07-24_20h06.55.082,arm3_eps,2022.2.5,Win32,144.1337561,6136aee758e3f41323d8c0c7,64aea9d0f615b6559c281482,64becba8123eeb0d1661eb9f,up,1,0.3,0.2429,16,0,0.4388,,,,,,340,0,340,0,1,,,,,
,,072125,001,2023-07-24_20h06.55.082,arm3_eps,2022.2.5,Win32,144.1337561,6136aee758e3f41323d8c0c7,64aea9d0f615b6559c281482,64becba8123eeb0d1661eb9f,right,1,0.3,0.2429,16,0.022285497,0.7119,,,,,,341,0,341,0,1,,,,,
,,072125,001,2023-07-24_20h06.55.082,arm3_eps,2022.2.5,Win32,144.1337561,6136aee758e3f41323d8c0c7,64aea9d0f615b6559c281482,64becba8123eeb0d1661eb9f,right,1,0.3,0.2429,16,0.04034463,0.2725,,,,,,342,0,342,0,1,,,,,
,,072125,001,2023-07-24_20h06.55.082,arm3_eps,2022.2.5,Win32,144.1337561,6136aee758e3f41323d8c0c7,64aea9d0f615b6559c281482,64becba8123eeb0d1661eb9f,right,1,0.3,0.2429,16,0.043295878,0.1863,,,,,,343,0,343,0,1,,,,,
,,072125,001,2023-07-24_20h06.55.082,arm3_eps,2022.2.5,Win32,144.1337561,6136aee758e3f41323d8c0c7,64aea9d0f615b6559c281482,64becba8123eeb0d1661eb9f,right,1,0.3,0.2429,16,0.064373339,0.3845,,,,,,344,0,344,0,1,,,,,
,,072125,001,2023-07-24_20h06.55.082,arm3_eps,2022.2.5,Win32,144.1337561,6136aee758e3f41323d8c0c7,64aea9d0f615b6559c281482,64becba8123eeb0d1661eb9f,right,1,0.3,0.2429,16,0.057381075,1.0912,,,,,,345,0,345,0,1,,,,,
,,072125,001,2023-07-24_20h06.55.082,arm3_eps,2022.2.5,Win32,144.1337561,6136aee758e3f41323d8c0c7,64aea9d0f615b6559c281482,64becba8123eeb0d1661eb9f,right,1,0.3,0.2429,16,0.026567167,0.5855,,,,,,346,0,346,0,1,,,,,
,,072125,001,2023-07-24_20h06.55.082,arm3_eps,2022.2.5,Win32,144.1337561,6136aee758e3f41323d8c0c7,64aea9d0f615b6559c281482,64becba8123eeb0d1661eb9f,right,1,0.3,0.2429,16,0.036212097,0.316,,,,,,347,0,347,0,1,,,,,
,,072125,001,2023-07-24_20h06.55.082,arm3_eps,2022.2.5,Win32,144.1337561,6136aee758e3f41323d8c0c7,64aea9d0f615b6559c281482,64becba8123eeb0d1661eb9f,up,1,0.3,0.2429,16,0,0.3004,,,,,,348,0,348,0,1,,,,,
,,072125,001,2023-07-24_20h06.55.082,arm3_eps,2022.2.5,Win32,144.1337561,6136aee758e3f41323d8c0c7,64aea9d0f615b6559c281482,64becba8123eeb0d1661eb9f,right,1,0.3,0.2429,16,0.02664555,0.601,,,,,,349,0,349,0,1,,,,,
,,072125,001,2023-07-24_20h06.55.082,arm3_eps,2022.2.5,Win32,144.1337561,6136aee758e3f41323d8c0c7,64aea9d0f615b6559c281482,64becba8123eeb0d1661eb9f,right,1,0.3,0.2429,16,0.031055959,0.1927,,,,,,350,0,350,0,1,,,,,
,,072125,001,2023-07-24_20h06.55.082,arm3_eps,2022.2.5,Win32,144.1337561,6136aee758e3f41323d8c0c7,64aea9d0f615b6559c281482,64becba8123eeb0d1661eb9f,right,1,0.3,0.2429,16,0.031988242,0.1902,,,,,,351,0,351,0,1,,,,,
,,072125,001,2023-07-24_20h06.55.082,arm3_eps,2022.2.5,Win32,144.1337561,6136aee758e3f41323d8c0c7,64aea9d0f615b6559c281482,64becba8123eeb0d1661eb9f,right,1,0.3,0.2429,16,0.047269757,0.2995,,,,,,352,0,352,0,1,,,,,
,,072125,001,2023-07-24_20h06.55.082,arm3_eps,2022.2.5,Win32,144.1337561,6136aee758e3f41323d8c0c7,64aea9d0f615b6559c281482,64becba8123eeb0d1661eb9f,right,1,0.3,0.2429,16,0.025770066,1.3784,,,,,,353,0,353,0,1,,,,,
,,072125,001,2023-07-24_20h06.55.082,arm3_eps,2022.2.5,Win32,144.1337561,6136aee758e3f41323d8c0c7,64aea9d0f615b6559c281482,64becba8123eeb0d1661eb9f,down,1,0.3,0.2429,16,0,0.589,,,,,,354,0,354,0,1,,,,,
,,072125,001,2023-07-24_20h06.55.082,arm3_eps,2022.2.5,Win32,144.1337561,6136aee758e3f41323d8c0c7,64aea9d0f615b6559c281482,64becba8123eeb0d1661eb9f,right,1,0.3,0.2429,16,-0.014033595,0.5568,,,,,,355,0,355,0,1,,,,,
,,072125,001,2023-07-24_20h06.55.082,arm3_eps,2022.2.5,Win32,144.1337561,6136aee758e3f41323d8c0c7,64aea9d0f615b6559c281482,64becba8123eeb0d1661eb9f,right,1,0.3,0.2429,16,-0.01025123,0.1653,,,,,,356,0,356,0,1,,,,,
,,072125,001,2023-07-24_20h06.55.082,arm3_eps,2022.2.5,Win32,144.1337561,6136aee758e3f41323d8c0c7,64aea9d0f615b6559c281482,64becba8123eeb0d1661eb9f,right,1,0.3,0.2429,16,0.016378731,0.3187,,,,,,357,0,357,0,1,,,,,
,,072125,001,2023-07-24_20h06.55.082,arm3_eps,2022.2.5,Win32,144.1337561,6136aee758e3f41323d8c0c7,64aea9d0f615b6559c281482,64becba8123eeb0d1661eb9f,right,1,0.3,0.2429,16,0.039245112,0.2648,,,,,,358,0,358,0,1,,,,,
,,072125,001,2023-07-24_20h06.55.082,arm3_eps,2022.2.5,Win32,144.1337561,6136aee758e3f41323d8c0c7,64aea9d0f615b6559c281482,64becba8123eeb0d1661eb9f,up,1,0.3,0.2429,17,0,0.2174,,,,,,359,0,359,0,1,,,,,
,,072125,001,2023-07-24_20h06.55.082,arm3_eps,2022.2.5,Win32,144.1337561,6136aee758e3f41323d8c0c7,64aea9d0f615b6559c281482,64becba8123eeb0d1661eb9f,right,1,0.3,0.2429,17,-0.003529398,0.9834,,,,,,360,0,360,0,1,,,,,
,,072125,001,2023-07-24_20h06.55.082,arm3_eps,2022.2.5,Win32,144.1337561,6136aee758e3f41323d8c0c7,64aea9d0f615b6559c281482,64becba8123eeb0d1661eb9f,right,1,0.3,0.2429,17,0.008780833,0.1688,,,,,,361,0,361,0,1,,,,,
,,072125,001,2023-07-24_20h06.55.082,arm3_eps,2022.2.5,Win32,144.1337561,6136aee758e3f41323d8c0c7,64aea9d0f615b6559c281482,64becba8123eeb0d1661eb9f,right,1,0.3,0.2429,17,0.023111003,0.188,,,,,,362,0,362,0,1,,,,,
,,072125,001,2023-07-24_20h06.55.082,arm3_eps,2022.2.5,Win32,144.1337561,6136aee758e3f41323d8c0c7,64aea9d0f615b6559c281482,64becba8123eeb0d1661eb9f,right,1,0.3,0.2429,17,0.020486169,0.2104,,,,,,363,0,363,0,1,,,,,
,,072125,001,2023-07-24_20h06.55.082,arm3_eps,2022.2.5,Win32,144.1337561,6136aee758e3f41323d8c0c7,64aea9d0f615b6559c281482,64becba8123eeb0d1661eb9f,right,1,0.3,0.2429,17,7.99226E-05,0.3317,,,,,,364,0,364,0,1,,,,,
,,072125,001,2023-07-24_20h06.55.082,arm3_eps,2022.2.5,Win32,144.1337561,6136aee758e3f41323d8c0c7,64aea9d0f615b6559c281482,64becba8123eeb0d1661eb9f,right,1,0.3,0.2429,17,0.007713647,0.4951,,,,,,365,0,365,0,1,,,,,
,,072125,001,2023-07-24_20h06.55.082,arm3_eps,2022.2.5,Win32,144.1337561,6136aee758e3f41323d8c0c7,64aea9d0f615b6559c281482,64becba8123eeb0d1661eb9f,up,-1,0.3,0.2429,18,0,0.5468,,,,,,366,0,366,0,1,,,,,
,,072125,001,2023-07-24_20h06.55.082,arm3_eps,2022.2.5,Win32,144.1337561,6136aee758e3f41323d8c0c7,64aea9d0f615b6559c281482,64becba8123eeb0d1661eb9f,right,-1,0.3,0.2429,18,0.023525855,0.5336,,,,,,367,0,367,0,1,,,,,
,,072125,001,2023-07-24_20h06.55.082,arm3_eps,2022.2.5,Win32,144.1337561,6136aee758e3f41323d8c0c7,64aea9d0f615b6559c281482,64becba8123eeb0d1661eb9f,right,-1,0.3,0.2429,18,0.04203133,0.1696,,,,,,368,0,368,0,1,,,,,
,,072125,001,2023-07-24_20h06.55.082,arm3_eps,2022.2.5,Win32,144.1337561,6136aee758e3f41323d8c0c7,64aea9d0f615b6559c281482,64becba8123eeb0d1661eb9f,right,-1,0.3,0.2429,18,0.022124426,0.1652,,,,,,369,0,369,0,1,,,,,
,,072125,001,2023-07-24_20h06.55.082,arm3_eps,2022.2.5,Win32,144.1337561,6136aee758e3f41323d8c0c7,64aea9d0f615b6559c281482,64becba8123eeb0d1661eb9f,,,,,,,,,,,,,,,,,,0,0,0,0,1
space,35.1167,072125,001,2023-07-24_20h06.55.082,arm3_eps,2022.2.5,Win32,144.1337561,6136aee758e3f41323d8c0c7,64aea9d0f615b6559c281482,64becba8123eeb0d1661eb9f,up,-1,0.3,0.1143,18,0,1.2438,,,,,,0,0,0,0,1,,,,,
,,072125,001,2023-07-24_20h06.55.082,arm3_eps,2022.2.5,Win32,144.1337561,6136aee758e3f41323d8c0c7,64aea9d0f615b6559c281482,64becba8123eeb0d1661eb9f,right,-1,0.3,0.1143,18,-0.014110479,1.0942,,,,,,1,0,1,0,1,,,,,
,,072125,001,2023-07-24_20h06.55.082,arm3_eps,2022.2.5,Win32,144.1337561,6136aee758e3f41323d8c0c7,64aea9d0f615b6559c281482,64becba8123eeb0d1661eb9f,right,-1,0.3,0.1143,18,-0.00461759,0.3037,,,,,,2,0,2,0,1,,,,,
,,072125,001,2023-07-24_20h06.55.082,arm3_eps,2022.2.5,Win32,144.1337561,6136aee758e3f41323d8c0c7,64aea9d0f615b6559c281482,64becba8123eeb0d1661eb9f,right,-1,0.3,0.1143,18,-0.018548622,0.2686,,,,,,3,0,3,0,1,,,,,
,,072125,001,2023-07-24_20h06.55.082,arm3_eps,2022.2.5,Win32,144.1337561,6136aee758e3f41323d8c0c7,64aea9d0f615b6559c281482,64becba8123eeb0d1661eb9f,right,-1,0.3,0.1143,18,-0.010645808,0.3535,,,,,,4,0,4,0,1,,,,,
,,072125,001,2023-07-24_20h06.55.082,arm3_eps,2022.2.5,Win32,144.1337561,6136aee758e3f41323d8c0c7,64aea9d0f615b6559c281482,64becba8123eeb0d1661eb9f,down,-1,0.3,0.1143,18,0,2.481,,,,,,5,0,5,0,1,,,,,
,,072125,001,2023-07-24_20h06.55.082,arm3_eps,2022.2.5,Win32,144.1337561,6136aee758e3f41323d8c0c7,64aea9d0f615b6559c281482,64becba8123eeb0d1661eb9f,right,-1,0.3,0.1143,18,-0.007700338,0.7281,,,,,,6,0,6,0,1,,,,,
,,072125,001,2023-07-24_20h06.55.082,arm3_eps,2022.2.5,Win32,144.1337561,6136aee758e3f41323d8c0c7,64aea9d0f615b6559c281482,64becba8123eeb0d1661eb9f,right,-1,0.3,0.1143,18,-0.020541645,0.2016,,,,,,7,0,7,0,1,,,,,
,,072125,001,2023-07-24_20h06.55.082,arm3_eps,2022.2.5,Win32,144.1337561,6136aee758e3f41323d8c0c7,64aea9d0f615b6559c281482,64becba8123eeb0d1661eb9f,right,-1,0.3,0.1143,18,-0.024882173,0.1694,,,,,,8,0,8,0,1,,,,,
,,072125,001,2023-07-24_20h06.55.082,arm3_eps,2022.2.5,Win32,144.1337561,6136aee758e3f41323d8c0c7,64aea9d0f615b6559c281482,64becba8123eeb0d1661eb9f,down,-1,0.3,0.1143,19,0,0.3075,,,,,,9,0,9,0,1,,,,,
,,072125,001,2023-07-24_20h06.55.082,arm3_eps,2022.2.5,Win32,144.1337561,6136aee758e3f41323d8c0c7,64aea9d0f615b6559c281482,64becba8123eeb0d1661eb9f,right,-1,0.3,0.1143,19,0.009548821,0.4964,,,,,,10,0,10,0,1,,,,,
,,072125,001,2023-07-24_20h06.55.082,arm3_eps,2022.2.5,Win32,144.1337561,6136aee758e3f41323d8c0c7,64aea9d0f615b6559c281482,64becba8123eeb0d1661eb9f,right,-1,0.3,0.1143,19,0.038123415,0.1579,,,,,,11,0,11,0,1,,,,,
,,072125,001,2023-07-24_20h06.55.082,arm3_eps,2022.2.5,Win32,144.1337561,6136aee758e3f41323d8c0c7,64aea9d0f615b6559c281482,64becba8123eeb0d1661eb9f,right,-1,0.3,0.1143,19,0.005355397,0.1617,,,,,,12,0,12,0,1,,,,,
,,072125,001,2023-07-24_20h06.55.082,arm3_eps,2022.2.5,Win32,144.1337561,6136aee758e3f41323d8c0c7,64aea9d0f615b6559c281482,64becba8123eeb0d1661eb9f,right,-1,0.3,0.1143,19,-0.009086352,0.1474,,,,,,13,0,13,0,1,,,,,
,,072125,001,2023-07-24_20h06.55.082,arm3_eps,2022.2.5,Win32,144.1337561,6136aee758e3f41323d8c0c7,64aea9d0f615b6559c281482,64becba8123eeb0d1661eb9f,right,-1,0.3,0.1143,19,-0.029234805,0.3776,,,,,,14,0,14,0,1,,,,,
,,072125,001,2023-07-24_20h06.55.082,arm3_eps,2022.2.5,Win32,144.1337561,6136aee758e3f41323d8c0c7,64aea9d0f615b6559c281482,64becba8123eeb0d1661eb9f,down,-1,0.3,0.1143,19,0,0.2858,,,,,,15,0,15,0,1,,,,,
,,072125,001,2023-07-24_20h06.55.082,arm3_eps,2022.2.5,Win32,144.1337561,6136aee758e3f41323d8c0c7,64aea9d0f615b6559c281482,64becba8123eeb0d1661eb9f,right,-1,0.3,0.1143,19,-0.020998722,0.4835,,,,,,16,0,16,0,1,,,,,
,,072125,001,2023-07-24_20h06.55.082,arm3_eps,2022.2.5,Win32,144.1337561,6136aee758e3f41323d8c0c7,64aea9d0f615b6559c281482,64becba8123eeb0d1661eb9f,right,-1,0.3,0.1143,19,-0.033005052,0.166,,,,,,17,0,17,0,1,,,,,
,,072125,001,2023-07-24_20h06.55.082,arm3_eps,2022.2.5,Win32,144.1337561,6136aee758e3f41323d8c0c7,64aea9d0f615b6559c281482,64becba8123eeb0d1661eb9f,right,-1,0.3,0.1143,19,-0.042197144,0.1342,,,,,,18,0,18,0,1,,,,,
,,072125,001,2023-07-24_20h06.55.082,arm3_eps,2022.2.5,Win32,144.1337561,6136aee758e3f41323d8c0c7,64aea9d0f615b6559c281482,64becba8123eeb0d1661eb9f,right,-1,0.3,0.1143,19,-0.063199639,0.1396,,,,,,19,0,19,0,1,,,,,
,,072125,001,2023-07-24_20h06.55.082,arm3_eps,2022.2.5,Win32,144.1337561,6136aee758e3f41323d8c0c7,64aea9d0f615b6559c281482,64becba8123eeb0d1661eb9f,down,-1,0.3,0.1143,19,0,0.2102,,,,,,20,0,20,0,1,,,,,
,,072125,001,2023-07-24_20h06.55.082,arm3_eps,2022.2.5,Win32,144.1337561,6136aee758e3f41323d8c0c7,64aea9d0f615b6559c281482,64becba8123eeb0d1661eb9f,right,-1,0.3,0.1143,19,-0.010599736,0.457,,,,,,21,0,21,0,1,,,,,
,,072125,001,2023-07-24_20h06.55.082,arm3_eps,2022.2.5,Win32,144.1337561,6136aee758e3f41323d8c0c7,64aea9d0f615b6559c281482,64becba8123eeb0d1661eb9f,right,-1,0.3,0.1143,19,-0.042135784,0.1766,,,,,,22,0,22,0,1,,,,,
,,072125,001,2023-07-24_20h06.55.082,arm3_eps,2022.2.5,Win32,144.1337561,6136aee758e3f41323d8c0c7,64aea9d0f615b6559c281482,64becba8123eeb0d1661eb9f,right,-1,0.3,0.1143,19,-0.042488331,0.133,,,,,,23,0,23,0,1,,,,,
,,072125,001,2023-07-24_20h06.55.082,arm3_eps,2022.2.5,Win32,144.1337561,6136aee758e3f41323d8c0c7,64aea9d0f615b6559c281482,64becba8123eeb0d1661eb9f,right,-1,0.3,0.1143,19,-0.038546259,0.1699,,,,,,24,0,24,0,1,,,,,
,,072125,001,2023-07-24_20h06.55.082,arm3_eps,2022.2.5,Win32,144.1337561,6136aee758e3f41323d8c0c7,64aea9d0f615b6559c281482,64becba8123eeb0d1661eb9f,down,-1,0.3,0.1143,19,0,0.3543,,,,,,25,0,25,0,1,,,,,
,,072125,001,2023-07-24_20h06.55.082,arm3_eps,2022.2.5,Win32,144.1337561,6136aee758e3f41323d8c0c7,64aea9d0f615b6559c281482,64becba8123eeb0d1661eb9f,right,-1,0.3,0.1143,19,-0.027396044,0.4577,,,,,,26,0,26,0,1,,,,,
,,072125,001,2023-07-24_20h06.55.082,arm3_eps,2022.2.5,Win32,144.1337561,6136aee758e3f41323d8c0c7,64aea9d0f615b6559c281482,64becba8123eeb0d1661eb9f,right,-1,0.3,0.1143,19,-0.035073528,0.1618,,,,,,27,0,27,0,1,,,,,
,,072125,001,2023-07-24_20h06.55.082,arm3_eps,2022.2.5,Win32,144.1337561,6136aee758e3f41323d8c0c7,64aea9d0f615b6559c281482,64becba8123eeb0d1661eb9f,right,-1,0.3,0.1143,19,-0.048609912,0.1397,,,,,,28,0,28,0,1,,,,,
,,072125,001,2023-07-24_20h06.55.082,arm3_eps,2022.2.5,Win32,144.1337561,6136aee758e3f41323d8c0c7,64aea9d0f615b6559c281482,64becba8123eeb0d1661eb9f,right,-1,0.3,0.1143,19,-0.067682672,0.1451,,,,,,29,0,29,0,1,,,,,
,,072125,001,2023-07-24_20h06.55.082,arm3_eps,2022.2.5,Win32,144.1337561,6136aee758e3f41323d8c0c7,64aea9d0f615b6559c281482,64becba8123eeb0d1661eb9f,down,-1,0.3,0.1143,20,0,0.3043,,,,,,30,0,30,0,1,,,,,
,,072125,001,2023-07-24_20h06.55.082,arm3_eps,2022.2.5,Win32,144.1337561,6136aee758e3f41323d8c0c7,64aea9d0f615b6559c281482,64becba8123eeb0d1661eb9f,right,-1,0.3,0.1143,20,-0.008423725,0.4852,,,,,,31,0,31,0,1,,,,,
,,072125,001,2023-07-24_20h06.55.082,arm3_eps,2022.2.5,Win32,144.1337561,6136aee758e3f41323d8c0c7,64aea9d0f615b6559c281482,64becba8123eeb0d1661eb9f,right,-1,0.3,0.1143,20,-0.029889265,0.1465,,,,,,32,0,32,0,1,,,,,
,,072125,001,2023-07-24_20h06.55.082,arm3_eps,2022.2.5,Win32,144.1337561,6136aee758e3f41323d8c0c7,64aea9d0f615b6559c281482,64becba8123eeb0d1661eb9f,right,-1,0.3,0.1143,20,-0.106884844,0.146,,,,,,33,0,33,0,1,,,,,
,,072125,001,2023-07-24_20h06.55.082,arm3_eps,2022.2.5,Win32,144.1337561,6136aee758e3f41323d8c0c7,64aea9d0f615b6559c281482,64becba8123eeb0d1661eb9f,right,-1,0.3,0.1143,20,-0.131186887,0.1307,,,,,,34,0,34,0,1,,,,,
,,072125,001,2023-07-24_20h06.55.082,arm3_eps,2022.2.5,Win32,144.1337561,6136aee758e3f41323d8c0c7,64aea9d0f615b6559c281482,64becba8123eeb0d1661eb9f,down,-1,0.3,0.1143,21,0,0.2301,,,,,,35,0,35,0,1,,,,,
,,072125,001,2023-07-24_20h06.55.082,arm3_eps,2022.2.5,Win32,144.1337561,6136aee758e3f41323d8c0c7,64aea9d0f615b6559c281482,64becba8123eeb0d1661eb9f,right,-1,0.3,0.1143,21,0.02100707,0.5051,,,,,,36,0,36,0,1,,,,,
,,072125,001,2023-07-24_20h06.55.082,arm3_eps,2022.2.5,Win32,144.1337561,6136aee758e3f41323d8c0c7,64aea9d0f615b6559c281482,64becba8123eeb0d1661eb9f,right,-1,0.3,0.1143,21,0.007723674,0.1606,,,,,,37,0,37,0,1,,,,,
,,072125,001,2023-07-24_20h06.55.082,arm3_eps,2022.2.5,Win32,144.1337561,6136aee758e3f41323d8c0c7,64aea9d0f615b6559c281482,64becba8123eeb0d1661eb9f,right,-1,0.3,0.1143,21,-0.012488092,0.1459,,,,,,38,0,38,0,1,,,,,
,,072125,001,2023-07-24_20h06.55.082,arm3_eps,2022.2.5,Win32,144.1337561,6136aee758e3f41323d8c0c7,64aea9d0f615b6559c281482,64becba8123eeb0d1661eb9f,right,-1,0.3,0.1143,21,-0.021167808,0.1525,,,,,,39,0,39,0,1,,,,,
,,072125,001,2023-07-24_20h06.55.082,arm3_eps,2022.2.5,Win32,144.1337561,6136aee758e3f41323d8c0c7,64aea9d0f615b6559c281482,64becba8123eeb0d1661eb9f,right,-1,0.3,0.1143,21,-0.061117045,0.1341,,,,,,40,0,40,0,1,,,,,
,,072125,001,2023-07-24_20h06.55.082,arm3_eps,2022.2.5,Win32,144.1337561,6136aee758e3f41323d8c0c7,64aea9d0f615b6559c281482,64becba8123eeb0d1661eb9f,down,-1,0.3,0.1143,21,0,0.2671,,,,,,41,0,41,0,1,,,,,
