space_bar.keys,space_bar.rt,participant,session,date,expName,psychopyVersion,OS,frameRate,PROLIFIC_PID,STUDY_ID,SESSION_ID,resp.keys,state,q_prob,eps_prob,score,price,resp.rt,train.thisRepN,train.thisTrialN,train.thisN,train.thisIndex,train.ran,steps.thisRepN,steps.thisTrialN,steps.thisN,steps.thisIndex,steps.ran,blocks.thisRepN,blocks.thisTrialN,blocks.thisN,blocks.thisIndex,blocks.ran
space,34.9116,169964,001,2023-07-24_22h06.02.889,arm3_eps,2022.2.5,Win32,144.4460494,610284a1a38509a6059d1bc9,64aea9d0f615b6559c281482,64becb70970bdff9d47ede90,,,,,,,,,,,,,,,,,,,,,,
space,10.8984,169964,001,2023-07-24_22h06.02.889,arm3_eps,2022.2.5,Win32,144.4460494,610284a1a38509a6059d1bc9,64aea9d0f615b6559c281482,64becb70970bdff9d47ede90,,,,,,,,,,,,,,,,,,,,,,
space,11.1701,169964,001,2023-07-24_22h06.02.889,arm3_eps,2022.2.5,Win32,144.4460494,610284a1a38509a6059d1bc9,64aea9d0f615b6559c281482,64becb70970bdff9d47ede90,,,,,,,,,,,,,,,,,,,,,,
space,15.013,169964,001,2023-07-24_22h06.02.889,arm3_eps,2022.2.5,Win32,144.4460494,610284a1a38509a6059d1bc9,64aea9d0f615b6559c281482,64becb70970bdff9d47ede90,,,,,,,,,,,,,,,,,,,,,,
space,13.0517,169964,001,2023-07-24_22h06.02.889,arm3_eps,2022.2.5,Win32,144.4460494,610284a1a38509a6059d1bc9,64aea9d0f615b6559c281482,64becb70970bdff9d47ede90,,,,,,,,,,,,,,,,,,,,,,
space,13.144,169964,001,2023-07-24_22h06.02.889,arm3_eps,2022.2.5,Win32,144.4460494,610284a1a38509a6059d1bc9,64aea9d0f615b6559c281482,64becb70970bdff9d47ede90,,,,,,,,,,,,,,,,,,,,,,
space,3.8299,169964,001,2023-07-24_22h06.02.889,arm3_eps,2022.2.5,Win32,144.4460494,610284a1a38509a6059d1bc9,64aea9d0f615b6559c281482,64becb70970bdff9d47ede90,,,,,,,,,,,,,,,,,,,,,,
space,15.6403,169964,001,2023-07-24_22h06.02.889,arm3_eps,2022.2.5,Win32,144.4460494,610284a1a38509a6059d1bc9,64aea9d0f615b6559c281482,64becb70970bdff9d47ede90,,,,,,,,,,,,,,,,,,,,,,
space,8.0059,169964,001,2023-07-24_22h06.02.889,arm3_eps,2022.2.5,Win32,144.4460494,610284a1a38509a6059d1bc9,64aea9d0f615b6559c281482,64becb70970bdff9d47ede90,,,,,,,,,,,,,,,,,,,,,,
space,13.077,169964,001,2023-07-24_22h06.02.889,arm3_eps,2022.2.5,Win32,144.4460494,610284a1a38509a6059d1bc9,64aea9d0f615b6559c281482,64becb70970bdff9d47ede90,,,,,,,,,,,,,,,,,,,,,,
,,169964,001,2023-07-24_22h06.02.889,arm3_eps,2022.2.5,Win32,144.4460494,610284a1a38509a6059d1bc9,64aea9d0f615b6559c281482,64becb70970bdff9d47ede90,right,1,0.3,0.2429,0,-0.017159376,3.857,0,0,0,0,1,,,,,,,,,,
,,169964,001,2023-07-24_22h06.02.889,arm3_eps,2022.2.5,Win32,144.4460494,610284a1a38509a6059d1bc9,64aea9d0f615b6559c281482,64becb70970bdff9d47ede90,right,1,0.3,0.2429,0,-0.007399442,1.5506,1,0,1,0,1,,,,,,,,,,
,,169964,001,2023-07-24_22h06.02.889,arm3_eps,2022.2.5,Win32,144.4460494,610284a1a38509a6059d1bc9,64aea9d0f615b6559c281482,64becb70970bdff9d47ede90,right,1,0.3,0.2429,0,-0.023173202,2.0526,2,0,2,0,1,,,,,,,,,,
,,169964,001,2023-07-24_22h06.02.889,arm3_eps,2022.2.5,Win32,144.4460494,610284a1a38509a6059d1bc9,64aea9d0f615b6559c281482,64becb70970bdff9d47ede90,right,1,0.3,0.2429,0,-0.025755689,1.385,3,0,3,0,1,,,,,,,,,,
,,169964,001,2023-07-24_22h06.02.889,arm3_eps,2022.2.5,Win32,144.4460494,610284a1a38509a6059d1bc9,64aea9d0f615b6559c281482,64becb70970bdff9d47ede90,right,1,0.3,0.2429,0,-0.019185467,2.3691,4,0,4,0,1,,,,,,,,,,
,,169964,001,2023-07-24_22h06.02.889,arm3_eps,2022.2.5,Win32,144.4460494,610284a1a38509a6059d1bc9,64aea9d0f615b6559c281482,64becb70970bdff9d47ede90,up,1,0.3,0.2429,0,0,0.9667,5,0,5,0,1,,,,,,,,,,
,,169964,001,2023-07-24_22h06.02.889,arm3_eps,2022.2.5,Win32,144.4460494,610284a1a38509a6059d1bc9,64aea9d0f615b6559c281482,64becb70970bdff9d47ede90,down,-1,0.3,0.2429,0,0,3.7534,6,0,6,0,1,,,,,,,,,,
,,169964,001,2023-07-24_22h06.02.889,arm3_eps,2022.2.5,Win32,144.4460494,610284a1a38509a6059d1bc9,64aea9d0f615b6559c281482,64becb70970bdff9d47ede90,right,-1,0.3,0.2429,0,0.002963137,1.652,7,0,7,0,1,,,,,,,,,,
,,169964,001,2023-07-24_22h06.02.889,arm3_eps,2022.2.5,Win32,144.4460494,610284a1a38509a6059d1bc9,64aea9d0f615b6559c281482,64becb70970bdff9d47ede90,right,-1,0.3,0.2429,0,-0.017738138,0.7881,8,0,8,0,1,,,,,,,,,,
,,169964,001,2023-07-24_22h06.02.889,arm3_eps,2022.2.5,Win32,144.4460494,610284a1a38509a6059d1bc9,64aea9d0f615b6559c281482,64becb70970bdff9d47ede90,right,-1,0.3,0.2429,0,-0.021575889,0.3502,9,0,9,0,1,,,,,,,,,,
,,169964,001,2023-07-24_22h06.02.889,arm3_eps,2022.2.5,Win32,144.4460494,610284a1a38509a6059d1bc9,64aea9d0f615b6559c281482,64becb70970bdff9d47ede90,right,-1,0.3,0.2429,0,-0.018959038,0.5012,10,0,10,0,1,,,,,,,,,,
,,169964,001,2023-07-24_22h06.02.889,arm3_eps,2022.2.5,Win32,144.4460494,610284a1a38509a6059d1bc9,64aea9d0f615b6559c281482,64becb70970bdff9d47ede90,up,-1,0.3,0.2429,-1,0,5.1688,11,0,11,0,1,,,,,,,,,,
,,169964,001,2023-07-24_22h06.02.889,arm3_eps,2022.2.5,Win32,144.4460494,610284a1a38509a6059d1bc9,64aea9d0f615b6559c281482,64becb70970bdff9d47ede90,down,-1,0.3,0.2429,-1,0,2.1384,12,0,12,0,1,,,,,,,,,,
,,169964,001,2023-07-24_22h06.02.889,arm3_eps,2022.2.5,Win32,144.4460494,610284a1a38509a6059d1bc9,64aea9d0f615b6559c281482,64becb70970bdff9d47ede90,down,-1,0.3,0.2429,-1,0,1.8856,13,0,13,0,1,,,,,,,,,,
,,169964,001,2023-07-24_22h06.02.889,arm3_eps,2022.2.5,Win32,144.4460494,610284a1a38509a6059d1bc9,64aea9d0f615b6559c281482,64becb70970bdff9d47ede90,up,-1,0.3,0.2429,-2,0,2.2185,14,0,14,0,1,,,,,,,,,,
,,169964,001,2023-07-24_22h06.02.889,arm3_eps,2022.2.5,Win32,144.4460494,610284a1a38509a6059d1bc9,64aea9d0f615b6559c281482,64becb70970bdff9d47ede90,right,-1,0.3,0.2429,-2,-0.00682198,1.5172,15,0,15,0,1,,,,,,,,,,
,,169964,001,2023-07-24_22h06.02.889,arm3_eps,2022.2.5,Win32,144.4460494,610284a1a38509a6059d1bc9,64aea9d0f615b6559c281482,64becb70970bdff9d47ede90,right,-1,0.3,0.2429,-2,-0.021588385,0.5885,16,0,16,0,1,,,,,,,,,,
,,169964,001,2023-07-24_22h06.02.889,arm3_eps,2022.2.5,Win32,144.4460494,610284a1a38509a6059d1bc9,64aea9d0f615b6559c281482,64becb70970bdff9d47ede90,right,-1,0.3,0.2429,-2,-0.030297923,0.7012,17,0,17,0,1,,,,,,,,,,
,,169964,001,2023-07-24_22h06.02.889,arm3_eps,2022.2.5,Win32,144.4460494,610284a1a38509a6059d1bc9,64aea9d0f615b6559c281482,64becb70970bdff9d47ede90,right,-1,0.3,0.2429,-2,-0.055518924,0.4002,18,0,18,0,1,,,,,,,,,,
,,169964,001,2023-07-24_22h06.02.889,arm3_eps,2022.2.5,Win32,144.4460494,610284a1a38509a6059d1bc9,64aea9d0f615b6559c281482,64becb70970bdff9d47ede90,down,-1,0.3,0.2429,-1,0,0.5174,19,0,19,0,1,,,,,,,,,,
,,169964,001,2023-07-24_22h06.02.889,arm3_eps,2022.2.5,Win32,144.4460494,610284a1a38509a6059d1bc9,64aea9d0f615b6559c281482,64becb70970bdff9d47ede90,down,-1,0.3,0.2429,-1,0,1.9354,20,0,20,0,1,,,,,,,,,,
,,169964,001,2023-07-24_22h06.02.889,arm3_eps,2022.2.5,Win32,144.4460494,610284a1a38509a6059d1bc9,64aea9d0f615b6559c281482,64becb70970bdff9d47ede90,down,-1,0.3,0.2429,0,0,3.2021,21,0,21,0,1,,,,,,,,,,
,,169964,001,2023-07-24_22h06.02.889,arm3_eps,2022.2.5,Win32,144.4460494,610284a1a38509a6059d1bc9,64aea9d0f615b6559c281482,64becb70970bdff9d47ede90,right,-1,0.3,0.2429,0,-0.044648931,1.6016,22,0,22,0,1,,,,,,,,,,
,,169964,001,2023-07-24_22h06.02.889,arm3_eps,2022.2.5,Win32,144.4460494,610284a1a38509a6059d1bc9,64aea9d0f615b6559c281482,64becb70970bdff9d47ede90,right,-1,0.3,0.2429,0,-0.08268291,0.4818,23,0,23,0,1,,,,,,,,,,
,,169964,001,2023-07-24_22h06.02.889,arm3_eps,2022.2.5,Win32,144.4460494,610284a1a38509a6059d1bc9,64aea9d0f615b6559c281482,64becb70970bdff9d47ede90,right,-1,0.3,0.2429,0,-0.087405383,0.4339,24,0,24,0,1,,,,,,,,,,
,,169964,001,2023-07-24_22h06.02.889,arm3_eps,2022.2.5,Win32,144.4460494,610284a1a38509a6059d1bc9,64aea9d0f615b6559c281482,64becb70970bdff9d47ede90,right,-1,0.3,0.2429,0,-0.081013166,0.7544,25,0,25,0,1,,,,,,,,,,
,,169964,001,2023-07-24_22h06.02.889,arm3_eps,2022.2.5,Win32,144.4460494,610284a1a38509a6059d1bc9,64aea9d0f615b6559c281482,64becb70970bdff9d47ede90,right,-1,0.3,0.2429,0,-0.104718778,0.3671,26,0,26,0,1,,,,,,,,,,
,,169964,001,2023-07-24_22h06.02.889,arm3_eps,2022.2.5,Win32,144.4460494,610284a1a38509a6059d1bc9,64aea9d0f615b6559c281482,64becb70970bdff9d47ede90,right,-1,0.3,0.2429,0,-0.107859469,0.3536,27,0,27,0,1,,,,,,,,,,
,,169964,001,2023-07-24_22h06.02.889,arm3_eps,2022.2.5,Win32,144.4460494,610284a1a38509a6059d1bc9,64aea9d0f615b6559c281482,64becb70970bdff9d47ede90,down,1,0.3,0.2429,0,0,0.3503,28,0,28,0,1,,,,,,,,,,
,,169964,001,2023-07-24_22h06.02.889,arm3_eps,2022.2.5,Win32,144.4460494,610284a1a38509a6059d1bc9,64aea9d0f615b6559c281482,64becb70970bdff9d47ede90,down,-1,0.3,0.2429,-1,0,1.9858,29,0,29,0,1,,,,,,,,,,
,,169964,001,2023-07-24_22h06.02.889,arm3_eps,2022.2.5,Win32,144.4460494,610284a1a38509a6059d1bc9,64aea9d0f615b6559c281482,64becb70970bdff9d47ede90,right,-1,0.3,0.2429,-1,-0.019277043,1.7685,30,0,30,0,1,,,,,,,,,,
,,169964,001,2023-07-24_22h06.02.889,arm3_eps,2022.2.5,Win32,144.4460494,610284a1a38509a6059d1bc9,64aea9d0f615b6559c281482,64becb70970bdff9d47ede90,right,-1,0.3,0.2429,-1,0.010529376,0.6987,31,0,31,0,1,,,,,,,,,,
,,169964,001,2023-07-24_22h06.02.889,arm3_eps,2022.2.5,Win32,144.4460494,610284a1a38509a6059d1bc9,64aea9d0f615b6559c281482,64becb70970bdff9d47ede90,up,-1,0.3,0.2429,-1,0,0.5181,32,0,32,0,1,,,,,,,,,,
,,169964,001,2023-07-24_22h06.02.889,arm3_eps,2022.2.5,Win32,144.4460494,610284a1a38509a6059d1bc9,64aea9d0f615b6559c281482,64becb70970bdff9d47ede90,up,1,0.3,0.2429,-1,0,1.7524,33,0,33,0,1,,,,,,,,,,
,,169964,001,2023-07-24_22h06.02.889,arm3_eps,2022.2.5,Win32,144.4460494,610284a1a38509a6059d1bc9,64aea9d0f615b6559c281482,64becb70970bdff9d47ede90,down,1,0.3,0.2429,-1,0,2.2853,34,0,34,0,1,,,,,,,,,,
,,169964,001,2023-07-24_22h06.02.889,arm3_eps,2022.2.5,Win32,144.4460494,610284a1a38509a6059d1bc9,64aea9d0f615b6559c281482,64becb70970bdff9d47ede90,right,1,0.3,0.2429,-1,-0.033167139,1.6188,35,0,35,0,1,,,,,,,,,,
,,169964,001,2023-07-24_22h06.02.889,arm3_eps,2022.2.5,Win32,144.4460494,610284a1a38509a6059d1bc9,64aea9d0f615b6559c281482,64becb70970bdff9d47ede90,right,1,0.3,0.2429,-1,-0.025255268,0.6676,36,0,36,0,1,,,,,,,,,,
,,169964,001,2023-07-24_22h06.02.889,arm3_eps,2022.2.5,Win32,144.4460494,610284a1a38509a6059d1bc9,64aea9d0f615b6559c281482,64becb70970bdff9d47ede90,up,1,0.3,0.2429,-1,0,0.6847,37,0,37,0,1,,,,,,,,,,
,,169964,001,2023-07-24_22h06.02.889,arm3_eps,2022.2.5,Win32,144.4460494,610284a1a38509a6059d1bc9,64aea9d0f615b6559c281482,64becb70970bdff9d47ede90,up,1,0.3,0.2429,0,0,1.5855,38,0,38,0,1,,,,,,,,,,
,,169964,001,2023-07-24_22h06.02.889,arm3_eps,2022.2.5,Win32,144.4460494,610284a1a38509a6059d1bc9,64aea9d0f615b6559c281482,64becb70970bdff9d47ede90,up,1,0.3,0.2429,0,0,2.4023,39,0,39,0,1,,,,,,,,,,
,,169964,001,2023-07-24_22h06.02.889,arm3_eps,2022.2.5,Win32,144.4460494,610284a1a38509a6059d1bc9,64aea9d0f615b6559c281482,64becb70970bdff9d47ede90,right,1,0.3,0.2429,0,0.026224252,1.3689,40,0,40,0,1,,,,,,,,,,
,,169964,001,2023-07-24_22h06.02.889,arm3_eps,2022.2.5,Win32,144.4460494,610284a1a38509a6059d1bc9,64aea9d0f615b6559c281482,64becb70970bdff9d47ede90,right,1,0.3,0.2429,0,0.044086066,0.9,41,0,41,0,1,,,,,,,,,,
,,169964,001,2023-07-24_22h06.02.889,arm3_eps,2022.2.5,Win32,144.4460494,610284a1a38509a6059d1bc9,64aea9d0f615b6559c281482,64becb70970bdff9d47ede90,right,1,0.3,0.2429,0,0.062460944,0.4509,42,0,42,0,1,,,,,,,,,,
,,169964,001,2023-07-24_22h06.02.889,arm3_eps,2022.2.5,Win32,144.4460494,610284a1a38509a6059d1bc9,64aea9d0f615b6559c281482,64becb70970bdff9d47ede90,right,1,0.3,0.2429,0,0.081094363,0.337,43,0,43,0,1,,,,,,,,,,
,,169964,001,2023-07-24_22h06.02.889,arm3_eps,2022.2.5,Win32,144.4460494,610284a1a38509a6059d1bc9,64aea9d0f615b6559c281482,64becb70970bdff9d47ede90,right,1,0.3,0.2429,0,0.110907575,0.384,44,0,44,0,1,,,,,,,,,,
,,169964,001,2023-07-24_22h06.02.889,arm3_eps,2022.2.5,Win32,144.4460494,610284a1a38509a6059d1bc9,64aea9d0f615b6559c281482,64becb70970bdff9d47ede90,right,1,0.3,0.2429,0,0.073907543,0.6218,45,0,45,0,1,,,,,,,,,,
,,169964,001,2023-07-24_22h06.02.889,arm3_eps,2022.2.5,Win32,144.4460494,610284a1a38509a6059d1bc9,64aea9d0f615b6559c281482,64becb70970bdff9d47ede90,right,1,0.3,0.2429,0,0.085911853,0.784,46,0,46,0,1,,,,,,,,,,
,,169964,001,2023-07-24_22h06.02.889,arm3_eps,2022.2.5,Win32,144.4460494,610284a1a38509a6059d1bc9,64aea9d0f615b6559c281482,64becb70970bdff9d47ede90,right,1,0.3,0.2429,0,0.110846468,0.7177,47,0,47,0,1,,,,,,,,,,
,,169964,001,2023-07-24_22h06.02.889,arm3_eps,2022.2.5,Win32,144.4460494,610284a1a38509a6059d1bc9,64aea9d0f615b6559c281482,64becb70970bdff9d47ede90,up,-1,0.3,0.2429,1,0,0.4171,48,0,48,0,1,,,,,,,,,,
,,169964,001,2023-07-24_22h06.02.889,arm3_eps,2022.2.5,Win32,144.4460494,610284a1a38509a6059d1bc9,64aea9d0f615b6559c281482,64becb70970bdff9d47ede90,down,-1,0.3,0.2429,1,0,1.9856,49,0,49,0,1,,,,,,,,,,
space,1.0674,169964,001,2023-07-24_22h06.02.889,arm3_eps,2022.2.5,Win32,144.4460494,610284a1a38509a6059d1bc9,64aea9d0f615b6559c281482,64becb70970bdff9d47ede90,,,,,,,,,,,,,,,,,,,,,,
space,4.3696,169964,001,2023-07-24_22h06.02.889,arm3_eps,2022.2.5,Win32,144.4460494,610284a1a38509a6059d1bc9,64aea9d0f615b6559c281482,64becb70970bdff9d47ede90,right,-1,0.3,0.05,0,0.004263752,2.7053,,,,,,0,0,0,0,1,,,,,
,,169964,001,2023-07-24_22h06.02.889,arm3_eps,2022.2.5,Win32,144.4460494,610284a1a38509a6059d1bc9,64aea9d0f615b6559c281482,64becb70970bdff9d47ede90,right,-1,0.3,0.05,0,-0.01504505,0.7662,,,,,,1,0,1,0,1,,,,,
,,169964,001,2023-07-24_22h06.02.889,arm3_eps,2022.2.5,Win32,144.4460494,610284a1a38509a6059d1bc9,64aea9d0f615b6559c281482,64becb70970bdff9d47ede90,right,-1,0.3,0.05,0,-0.012377934,0.5505,,,,,,2,0,2,0,1,,,,,
,,169964,001,2023-07-24_22h06.02.889,arm3_eps,2022.2.5,Win32,144.4460494,610284a1a38509a6059d1bc9,64aea9d0f615b6559c281482,64becb70970bdff9d47ede90,right,-1,0.3,0.05,0,-0.044687381,0.418,,,,,,3,0,3,0,1,,,,,
,,169964,001,2023-07-24_22h06.02.889,arm3_eps,2022.2.5,Win32,144.4460494,610284a1a38509a6059d1bc9,64aea9d0f615b6559c281482,64becb70970bdff9d47ede90,up,-1,0.3,0.05,0,0,0.6344,,,,,,4,0,4,0,1,,,,,
,,169964,001,2023-07-24_22h06.02.889,arm3_eps,2022.2.5,Win32,144.4460494,610284a1a38509a6059d1bc9,64aea9d0f615b6559c281482,64becb70970bdff9d47ede90,right,-1,0.3,0.05,0,-0.003691399,2.6196,,,,,,5,0,5,0,1,,,,,
,,169964,001,2023-07-24_22h06.02.889,arm3_eps,2022.2.5,Win32,144.4460494,610284a1a38509a6059d1bc9,64aea9d0f615b6559c281482,64becb70970bdff9d47ede90,right,-1,0.3,0.05,0,-0.011529166,0.5508,,,,,,6,0,6,0,1,,,,,
,,169964,001,2023-07-24_22h06.02.889,arm3_eps,2022.2.5,Win32,144.4460494,610284a1a38509a6059d1bc9,64aea9d0f615b6559c281482,64becb70970bdff9d47ede90,right,-1,0.3,0.05,0,-0.029418302,0.4841,,,,,,7,0,7,0,1,,,,,
,,169964,001,2023-07-24_22h06.02.889,arm3_eps,2022.2.5,Win32,144.4460494,610284a1a38509a6059d1bc9,64aea9d0f615b6559c281482,64becb70970bdff9d47ede90,down,-1,0.3,0.05,1,0,0.6674,,,,,,8,0,8,0,1,,,,,
,,169964,001,2023-07-24_22h06.02.889,arm3_eps,2022.2.5,Win32,144.4460494,610284a1a38509a6059d1bc9,64aea9d0f615b6559c281482,64becb70970bdff9d47ede90,down,-1,0.3,0.05,1,0,1.4181,,,,,,9,0,9,0,1,,,,,
,,169964,001,2023-07-24_22h06.02.889,arm3_eps,2022.2.5,Win32,144.4460494,610284a1a38509a6059d1bc9,64aea9d0f615b6559c281482,64becb70970bdff9d47ede90,down,-1,0.3,0.05,1,0,1.3179,,,,,,10,0,10,0,1,,,,,
,,169964,001,2023-07-24_22h06.02.889,arm3_eps,2022.2.5,Win32,144.4460494,610284a1a38509a6059d1bc9,64aea9d0f615b6559c281482,64becb70970bdff9d47ede90,up,-1,0.3,0.05,1,0,1.5522,,,,,,11,0,11,0,1,,,,,
,,169964,001,2023-07-24_22h06.02.889,arm3_eps,2022.2.5,Win32,144.4460494,610284a1a38509a6059d1bc9,64aea9d0f615b6559c281482,64becb70970bdff9d47ede90,up,-1,0.3,0.05,1,0,1.3675,,,,,,12,0,12,0,1,,,,,
,,169964,001,2023-07-24_22h06.02.889,arm3_eps,2022.2.5,Win32,144.4460494,610284a1a38509a6059d1bc9,64aea9d0f615b6559c281482,64becb70970bdff9d47ede90,right,-1,0.3,0.05,1,-0.008478242,1.0849,,,,,,13,0,13,0,1,,,,,
,,169964,001,2023-07-24_22h06.02.889,arm3_eps,2022.2.5,Win32,144.4460494,610284a1a38509a6059d1bc9,64aea9d0f615b6559c281482,64becb70970bdff9d47ede90,right,-1,0.3,0.05,1,-0.024216036,0.3841,,,,,,14,0,14,0,1,,,,,
,,169964,001,2023-07-24_22h06.02.889,arm3_eps,2022.2.5,Win32,144.4460494,610284a1a38509a6059d1bc9,64aea9d0f615b6559c281482,64becb70970bdff9d47ede90,right,-1,0.3,0.05,1,-0.032197211,0.3345,,,,,,15,0,15,0,1,,,,,
,,169964,001,2023-07-24_22h06.02.889,arm3_eps,2022.2.5,Win32,144.4460494,610284a1a38509a6059d1bc9,64aea9d0f615b6559c281482,64becb70970bdff9d47ede90,right,-1,0.3,0.05,1,-0.029810994,0.3676,,,,,,16,0,16,0,1,,,,,
,,169964,001,2023-07-24_22h06.02.889,arm3_eps,2022.2.5,Win32,144.4460494,610284a1a38509a6059d1bc9,64aea9d0f615b6559c281482,64becb70970bdff9d47ede90,right,-1,0.3,0.05,1,-0.042989403,0.4207,,,,,,17,0,17,0,1,,,,,
,,169964,001,2023-07-24_22h06.02.889,arm3_eps,2022.2.5,Win32,144.4460494,610284a1a38509a6059d1bc9,64aea9d0f615b6559c281482,64becb70970bdff9d47ede90,right,-1,0.3,0.05,1,-0.039705668,0.3173,,,,,,18,0,18,0,1,,,,,
,,169964,001,2023-07-24_22h06.02.889,arm3_eps,2022.2.5,Win32,144.4460494,610284a1a38509a6059d1bc9,64aea9d0f615b6559c281482,64becb70970bdff9d47ede90,right,-1,0.3,0.05,1,-0.025625011,0.4004,,,,,,19,0,19,0,1,,,,,
,,169964,001,2023-07-24_22h06.02.889,arm3_eps,2022.2.5,Win32,144.4460494,610284a1a38509a6059d1bc9,64aea9d0f615b6559c281482,64becb70970bdff9d47ede90,right,-1,0.3,0.05,1,-0.02201357,0.301,,,,,,20,0,20,0,1,,,,,
,,169964,001,2023-07-24_22h06.02.889,arm3_eps,2022.2.5,Win32,144.4460494,610284a1a38509a6059d1bc9,64aea9d0f615b6559c281482,64becb70970bdff9d47ede90,right,-1,0.3,0.05,1,-0.07490198,0.3841,,,,,,21,0,21,0,1,,,,,
,,169964,001,2023-07-24_22h06.02.889,arm3_eps,2022.2.5,Win32,144.4460494,610284a1a38509a6059d1bc9,64aea9d0f615b6559c281482,64becb70970bdff9d47ede90,right,-1,0.3,0.05,1,-0.085002968,0.3007,,,,,,22,0,22,0,1,,,,,
,,169964,001,2023-07-24_22h06.02.889,arm3_eps,2022.2.5,Win32,144.4460494,610284a1a38509a6059d1bc9,64aea9d0f615b6559c281482,64becb70970bdff9d47ede90,down,-1,0.3,0.05,2,0,0.6175,,,,,,23,0,23,0,1,,,,,
,,169964,001,2023-07-24_22h06.02.889,arm3_eps,2022.2.5,Win32,144.4460494,610284a1a38509a6059d1bc9,64aea9d0f615b6559c281482,64becb70970bdff9d47ede90,right,-1,0.3,0.05,2,-0.016856158,1.5512,,,,,,24,0,24,0,1,,,,,
,,169964,001,2023-07-24_22h06.02.889,arm3_eps,2022.2.5,Win32,144.4460494,610284a1a38509a6059d1bc9,64aea9d0f615b6559c281482,64becb70970bdff9d47ede90,down,-1,0.3,0.05,2,0,0.8179,,,,,,25,0,25,0,1,,,,,
,,169964,001,2023-07-24_22h06.02.889,arm3_eps,2022.2.5,Win32,144.4460494,610284a1a38509a6059d1bc9,64aea9d0f615b6559c281482,64becb70970bdff9d47ede90,right,-1,0.3,0.05,2,-0.007829208,1.3008,,,,,,26,0,26,0,1,,,,,
,,169964,001,2023-07-24_22h06.02.889,arm3_eps,2022.2.5,Win32,144.4460494,610284a1a38509a6059d1bc9,64aea9d0f615b6559c281482,64becb70970bdff9d47ede90,right,-1,0.3,0.05,2,-0.00200987,0.5511,,,,,,27,0,27,0,1,,,,,
,,169964,001,2023-07-24_22h06.02.889,arm3_eps,2022.2.5,Win32,144.4460494,610284a1a38509a6059d1bc9,64aea9d0f615b6559c281482,64becb70970bdff9d47ede90,right,-1,0.3,0.05,2,-0.009911941,0.3513,,,,,,28,0,28,0,1,,,,,
,,169964,001,2023-07-24_22h06.02.889,arm3_eps,2022.2.5,Win32,144.4460494,610284a1a38509a6059d1bc9,64aea9d0f615b6559c281482,64becb70970bdff9d47ede90,right,-1,0.3,0.05,2,-0.025300612,0.3838,,,,,,29,0,29,0,1,,,,,
,,169964,001,2023-07-24_22h06.02.889,arm3_eps,2022.2.5,Win32,144.4460494,610284a1a38509a6059d1bc9,64aea9d0f615b6559c281482,64becb70970bdff9d47ede90,right,-1,0.3,0.05,2,-0.022789033,0.3842,,,,,,30,0,30,0,1,,,,,
,,169964,001,2023-07-24_22h06.02.889,arm3_eps,2022.2.5,Win32,144.4460494,610284a1a38509a6059d1bc9,64aea9d0f615b6559c281482,64becb70970bdff9d47ede90,right,-1,0.3,0.05,2,-0.011755843,0.4343,,,,,,31,0,31,0,1,,,,,
,,169964,001,2023-07-24_22h06.02.889,arm3_eps,2022.2.5,Win32,144.4460494,610284a1a38509a6059d1bc9,64aea9d0f615b6559c281482,64becb70970bdff9d47ede90,right,-1,0.3,0.05,2,-0.027460582,0.3674,,,,,,32,0,32,0,1,,,,,
,,169964,001,2023-07-24_22h06.02.889,arm3_eps,2022.2.5,Win32,144.4460494,610284a1a38509a6059d1bc9,64aea9d0f615b6559c281482,64becb70970bdff9d47ede90,right,-1,0.3,0.05,2,-0.036419846,0.3177,,,,,,33,0,33,0,1,,,,,
,,169964,001,2023-07-24_22h06.02.889,arm3_eps,2022.2.5,Win32,144.4460494,610284a1a38509a6059d1bc9,64aea9d0f615b6559c281482,64becb70970bdff9d47ede90,right,-1,0.3,0.05,2,-0.066147702,0.3843,,,,,,34,0,34,0,1,,,,,
,,169964,001,2023-07-24_22h06.02.889,arm3_eps,2022.2.5,Win32,144.4460494,610284a1a38509a6059d1bc9,64aea9d0f615b6559c281482,64becb70970bdff9d47ede90,right,-1,0.3,0.05,2,-0.105138182,0.4005,,,,,,35,0,35,0,1,,,,,
,,169964,001,2023-07-24_22h06.02.889,arm3_eps,2022.2.5,Win32,144.4460494,610284a1a38509a6059d1bc9,64aea9d0f615b6559c281482,64becb70970bdff9d47ede90,down,-1,0.3,0.05,2,0,0.3678,,,,,,36,0,36,0,1,,,,,
,,169964,001,2023-07-24_22h06.02.889,arm3_eps,2022.2.5,Win32,144.4460494,610284a1a38509a6059d1bc9,64aea9d0f615b6559c281482,64becb70970bdff9d47ede90,up,-1,0.3,0.05,2,0,1.7177,,,,,,37,0,37,0,1,,,,,
,,169964,001,2023-07-24_22h06.02.889,arm3_eps,2022.2.5,Win32,144.4460494,610284a1a38509a6059d1bc9,64aea9d0f615b6559c281482,64becb70970bdff9d47ede90,right,-1,0.3,0.05,2,-0.033955816,1.1344,,,,,,38,0,38,0,1,,,,,
,,169964,001,2023-07-24_22h06.02.889,arm3_eps,2022.2.5,Win32,144.4460494,610284a1a38509a6059d1bc9,64aea9d0f615b6559c281482,64becb70970bdff9d47ede90,right,-1,0.3,0.05,2,-0.041886242,0.4506,,,,,,39,0,39,0,1,,,,,
,,169964,001,2023-07-24_22h06.02.889,arm3_eps,2022.2.5,Win32,144.4460494,610284a1a38509a6059d1bc9,64aea9d0f615b6559c281482,64becb70970bdff9d47ede90,right,-1,0.3,0.05,2,-0.053864118,0.4672,,,,,,40,0,40,0,1,,,,,
,,169964,001,2023-07-24_22h06.02.889,arm3_eps,2022.2.5,Win32,144.4460494,610284a1a38509a6059d1bc9,64aea9d0f615b6559c281482,64becb70970bdff9d47ede90,right,-1,0.3,0.05,2,-0.096364774,0.2505,,,,,,41,0,41,0,1,,,,,
,,169964,001,2023-07-24_22h06.02.889,arm3_eps,2022.2.5,Win32,144.4460494,610284a1a38509a6059d1bc9,64aea9d0f615b6559c281482,64becb70970bdff9d47ede90,right,-1,0.3,0.05,2,-0.116931703,0.1875,,,,,,42,0,42,0,1,,,,,
,,169964,001,2023-07-24_22h06.02.889,arm3_eps,2022.2.5,Win32,144.4460494,610284a1a38509a6059d1bc9,64aea9d0f615b6559c281482,64becb70970bdff9d47ede90,right,-1,0.3,0.05,2,-0.149633319,0.1669,,,,,,43,0,43,0,1,,,,,
,,169964,001,2023-07-24_22h06.02.889,arm3_eps,2022.2.5,Win32,144.4460494,610284a1a38509a6059d1bc9,64aea9d0f615b6559c281482,64becb70970bdff9d47ede90,right,-1,0.3,0.05,2,-0.148371348,0.2,,,,,,44,0,44,0,1,,,,,
,,169964,001,2023-07-24_22h06.02.889,arm3_eps,2022.2.5,Win32,144.4460494,610284a1a38509a6059d1bc9,64aea9d0f615b6559c281482,64becb70970bdff9d47ede90,right,-1,0.3,0.05,2,-0.169257822,0.1815,,,,,,45,0,45,0,1,,,,,
,,169964,001,2023-07-24_22h06.02.889,arm3_eps,2022.2.5,Win32,144.4460494,610284a1a38509a6059d1bc9,64aea9d0f615b6559c281482,64becb70970bdff9d47ede90,right,-1,0.3,0.05,2,-0.199758986,0.2164,,,,,,46,0,46,0,1,,,,,
,,169964,001,2023-07-24_22h06.02.889,arm3_eps,2022.2.5,Win32,144.4460494,610284a1a38509a6059d1bc9,64aea9d0f615b6559c281482,64becb70970bdff9d47ede90,right,-1,0.3,0.05,2,-0.19193474,0.2007,,,,,,47,0,47,0,1,,,,,
,,169964,001,2023-07-24_22h06.02.889,arm3_eps,2022.2.5,Win32,144.4460494,610284a1a38509a6059d1bc9,64aea9d0f615b6559c281482,64becb70970bdff9d47ede90,right,-1,0.3,0.05,2,-0.210933937,0.2541,,,,,,48,0,48,0,1,,,,,
,,169964,001,2023-07-24_22h06.02.889,arm3_eps,2022.2.5,Win32,144.4460494,610284a1a38509a6059d1bc9,64aea9d0f615b6559c281482,64becb70970bdff9d47ede90,down,-1,0.3,0.05,2,0,0.368,,,,,,49,0,49,0,1,,,,,
,,169964,001,2023-07-24_22h06.02.889,arm3_eps,2022.2.5,Win32,144.4460494,610284a1a38509a6059d1bc9,64aea9d0f615b6559c281482,64becb70970bdff9d47ede90,right,-1,0.3,0.05,2,-0.009923249,1.0514,,,,,,50,0,50,0,1,,,,,
,,169964,001,2023-07-24_22h06.02.889,arm3_eps,2022.2.5,Win32,144.4460494,610284a1a38509a6059d1bc9,64aea9d0f615b6559c281482,64becb70970bdff9d47ede90,right,-1,0.3,0.05,2,-0.030150502,0.2336,,,,,,51,0,51,0,1,,,,,
,,169964,001,2023-07-24_22h06.02.889,arm3_eps,2022.2.5,Win32,144.4460494,610284a1a38509a6059d1bc9,64aea9d0f615b6559c281482,64becb70970bdff9d47ede90,right,-1,0.3,0.05,2,-0.072844038,0.4676,,,,,,52,0,52,0,1,,,,,
,,169964,001,2023-07-24_22h06.02.889,arm3_eps,2022.2.5,Win32,144.4460494,610284a1a38509a6059d1bc9,64aea9d0f615b6559c281482,64becb70970bdff9d47ede90,right,-1,0.3,0.05,2,-0.081335164,0.2672,,,,,,53,0,53,0,1,,,,,
,,169964,001,2023-07-24_22h06.02.889,arm3_eps,2022.2.5,Win32,144.4460494,610284a1a38509a6059d1bc9,64aea9d0f615b6559c281482,64becb70970bdff9d47ede90,right,-1,0.3,0.05,2,-0.091218447,0.2177,,,,,,54,0,54,0,1,,,,,
,,169964,001,2023-07-24_22h06.02.889,arm3_eps,2022.2.5,Win32,144.4460494,610284a1a38509a6059d1bc9,64aea9d0f615b6559c281482,64becb70970bdff9d47ede90,right,-1,0.3,0.05,2,-0.07093451,0.2007,,,,,,55,0,55,0,1,,,,,
,,169964,001,2023-07-24_22h06.02.889,arm3_eps,2022.2.5,Win32,144.4460494,610284a1a38509a6059d1bc9,64aea9d0f615b6559c281482,64becb70970bdff9d47ede90,right,-1,0.3,0.05,2,-0.07985941,0.2674,,,,,,56,0,56,0,1,,,,,
,,169964,001,2023-07-24_22h06.02.889,arm3_eps,2022.2.5,Win32,144.4460494,610284a1a38509a6059d1bc9,64aea9d0f615b6559c281482,64becb70970bdff9d47ede90,right,-1,0.3,0.05,2,-0.099149946,0.2505,,,,,,57,0,57,0,1,,,,,
,,169964,001,2023-07-24_22h06.02.889,arm3_eps,2022.2.5,Win32,144.4460494,610284a1a38509a6059d1bc9,64aea9d0f615b6559c281482,64becb70970bdff9d47ede90,down,-1,0.3,0.05,3,0,0.367,,,,,,58,0,58,0,1,,,,,
,,169964,001,2023-07-24_22h06.02.889,arm3_eps,2022.2.5,Win32,144.4460494,610284a1a38509a6059d1bc9,64aea9d0f615b6559c281482,64becb70970bdff9d47ede90,right,-1,0.3,0.05,3,-0.018394453,1.1016,,,,,,59,0,59,0,1,,,,,
,,169964,001,2023-07-24_22h06.02.889,arm3_eps,2022.2.5,Win32,144.4460494,610284a1a38509a6059d1bc9,64aea9d0f615b6559c281482,64becb70970bdff9d47ede90,right,-1,0.3,0.05,3,-0.04827248,0.2505,,,,,,60,0,60,0,1,,,,,
,,169964,001,2023-07-24_22h06.02.889,arm3_eps,2022.2.5,Win32,144.4460494,610284a1a38509a6059d1bc9,64aea9d0f615b6559c281482,64becb70970bdff9d47ede90,right,-1,0.3,0.05,3,-0.07262208,0.3014,,,,,,61,0,61,0,1,,,,,
,,169964,001,2023-07-24_22h06.02.889,arm3_eps,2022.2.5,Win32,144.4460494,610284a1a38509a6059d1bc9,64aea9d0f615b6559c281482,64becb70970bdff9d47ede90,right,-1,0.3,0.05,3,-0.08574363,0.2839,,,,,,62,0,62,0,1,,,,,
,,169964,001,2023-07-24_22h06.02.889,arm3_eps,2022.2.5,Win32,144.4460494,610284a1a38509a6059d1bc9,64aea9d0f615b6559c281482,64becb70970bdff9d47ede90,right,-1,0.3,0.05,3,-0.099564155,0.2669,,,,,,63,0,63,0,1,,,,,
,,169964,001,2023-07-24_22h06.02.889,arm3_eps,2022.2.5,Win32,144.4460494,610284a1a38509a6059d1bc9,64aea9d0f615b6559c281482,64becb70970bdff9d47ede90,right,-1,0.3,0.05,3,-0.093426794,0.2674,,,,,,64,0,64,0,1,,,,,
,,169964,001,2023-07-24_22h06.02.889,arm3_eps,2022.2.5,Win32,144.4460494,610284a1a38509a6059d1bc9,64aea9d0f615b6559c281482,64becb70970bdff9d47ede90,right,-1,0.3,0.05,3,-0.145476679,0.2671,,,,,,65,0,65,0,1,,,,,
,,169964,001,2023-07-24_22h06.02.889,arm3_eps,2022.2.5,Win32,144.4460494,610284a1a38509a6059d1bc9,64aea9d0f615b6559c281482,64becb70970bdff9d47ede90,down,-1,0.3,0.05,3,0,0.3177,,,,,,66,0,66,0,1,,,,,
,,169964,001,2023-07-24_22h06.02.889,arm3_eps,2022.2.5,Win32,144.4460494,610284a1a38509a6059d1bc9,64aea9d0f615b6559c281482,64becb70970bdff9d47ede90,right,-1,0.3,0.05,3,-0.022414765,1.0348,,,,,,67,0,67,0,1,,,,,
,,169964,001,2023-07-24_22h06.02.889,arm3_eps,2022.2.5,Win32,144.4460494,610284a1a38509a6059d1bc9,64aea9d0f615b6559c281482,64becb70970bdff9d47ede90,right,-1,0.3,0.05,3,-0.045168286,0.3663,,,,,,68,0,68,0,1,,,,,
,,169964,001,2023-07-24_22h06.02.889,arm3_eps,2022.2.5,Win32,144.4460494,610284a1a38509a6059d1bc9,64aea9d0f615b6559c281482,64becb70970bdff9d47ede90,right,-1,0.3,0.05,3,-0.069207225,0.3343,,,,,,69,0,69,0,1,,,,,
,,169964,001,2023-07-24_22h06.02.889,arm3_eps,2022.2.5,Win32,144.4460494,610284a1a38509a6059d1bc9,64aea9d0f615b6559c281482,64becb70970bdff9d47ede90,right,-1,0.3,0.05,3,-0.068556931,0.2835,,,,,,70,0,70,0,1,,,,,
,,169964,001,2023-07-24_22h06.02.889,arm3_eps,2022.2.5,Win32,144.4460494,610284a1a38509a6059d1bc9,64aea9d0f615b6559c281482,64becb70970bdff9d47ede90,right,-1,0.3,0.05,3,-0.084496113,0.2674,,,,,,71,0,71,0,1,,,,,
,,169964,001,2023-07-24_22h06.02.889,arm3_eps,2022.2.5,Win32,144.4460494,610284a1a38509a6059d1bc9,64aea9d0f615b6559c281482,64becb70970bdff9d47ede90,right,-1,0.3,0.05,3,-0.06728897,0.2501,,,,,,72,0,72,0,1,,,,,
,,169964,001,2023-07-24_22h06.02.889,arm3_eps,2022.2.5,Win32,144.4460494,610284a1a38509a6059d1bc9,64aea9d0f615b6559c281482,64becb70970bdff9d47ede90,right,-1,0.3,0.05,3,-0.105507939,0.2836,,,,,,73,0,73,0,1,,,,,
,,169964,001,2023-07-24_22h06.02.889,arm3_eps,2022.2.5,Win32,144.4460494,610284a1a38509a6059d1bc9,64aea9d0f615b6559c281482,64becb70970bdff9d47ede90,down,-1,0.3,0.05,4,0,0.4843,,,,,,74,0,74,0,1,,,,,
,,169964,001,2023-07-24_22h06.02.889,arm3_eps,2022.2.5,Win32,144.4460494,610284a1a38509a6059d1bc9,64aea9d0f615b6559c281482,64becb70970bdff9d47ede90,right,-1,0.3,0.05,4,-0.00389876,1.1677,,,,,,75,0,75,0,1,,,,,
,,169964,001,2023-07-24_22h06.02.889,arm3_eps,2022.2.5,Win32,144.4460494,610284a1a38509a6059d1bc9,64aea9d0f615b6559c281482,64becb70970bdff9d47ede90,right,-1,0.3,0.05,4,-0.011878488,0.3986,,,,,,76,0,76,0,1,,,,,
,,169964,001,2023-07-24_22h06.02.889,arm3_eps,2022.2.5,Win32,144.4460494,610284a1a38509a6059d1bc9,64aea9d0f615b6559c281482,64becb70970bdff9d47ede90,right,-1,0.3,0.05,4,0.012320667,0.2675,,,,,,77,0,77,0,1,,,,,
,,169964,001,2023-07-24_22h06.02.889,arm3_eps,2022.2.5,Win32,144.4460494,610284a1a38509a6059d1bc9,64aea9d0f615b6559c281482,64becb70970bdff9d47ede90,up,-1,0.3,0.05,4,0,0.4501,,,,,,78,0,78,0,1,,,,,
,,169964,001,2023-07-24_22h06.02.889,arm3_eps,2022.2.5,Win32,144.4460494,610284a1a38509a6059d1bc9,64aea9d0f615b6559c281482,64becb70970bdff9d47ede90,down,-1,0.3,0.05,5,0,1.3678,,,,,,79,0,79,0,1,,,,,
,,169964,001,2023-07-24_22h06.02.889,arm3_eps,2022.2.5,Win32,144.4460494,610284a1a38509a6059d1bc9,64aea9d0f615b6559c281482,64becb70970bdff9d47ede90,down,-1,0.3,0.05,5,0,1.2515,,,,,,80,0,80,0,1,,,,,
,,169964,001,2023-07-24_22h06.02.889,arm3_eps,2022.2.5,Win32,144.4460494,610284a1a38509a6059d1bc9,64aea9d0f615b6559c281482,64becb70970bdff9d47ede90,down,-1,0.3,0.05,6,0,1.1515,,,,,,81,0,81,0,1,,,,,
,,169964,001,2023-07-24_22h06.02.889,arm3_eps,2022.2.5,Win32,144.4460494,610284a1a38509a6059d1bc9,64aea9d0f615b6559c281482,64becb70970bdff9d47ede90,down,-1,0.3,0.05,7,0,1.3018,,,,,,82,0,82,0,1,,,,,
,,169964,001,2023-07-24_22h06.02.889,arm3_eps,2022.2.5,Win32,144.4460494,610284a1a38509a6059d1bc9,64aea9d0f615b6559c281482,64becb70970bdff9d47ede90,up,-1,0.3,0.05,6,0,1.4185,,,,,,83,0,83,0,1,,,,,
,,169964,001,2023-07-24_22h06.02.889,arm3_eps,2022.2.5,Win32,144.4460494,610284a1a38509a6059d1bc9,64aea9d0f615b6559c281482,64becb70970bdff9d47ede90,up,-1,0.3,0.05,5,0,1.2852,,,,,,84,0,84,0,1,,,,,
,,169964,001,2023-07-24_22h06.02.889,arm3_eps,2022.2.5,Win32,144.4460494,610284a1a38509a6059d1bc9,64aea9d0f615b6559c281482,64becb70970bdff9d47ede90,down,-1,0.3,0.05,5,0,1.2851,,,,,,85,0,85,0,1,,,,,
,,169964,001,2023-07-24_22h06.02.889,arm3_eps,2022.2.5,Win32,144.4460494,610284a1a38509a6059d1bc9,64aea9d0f615b6559c281482,64becb70970bdff9d47ede90,right,-1,0.3,0.05,5,-0.007361998,2.5528,,,,,,86,0,86,0,1,,,,,
,,169964,001,2023-07-24_22h06.02.889,arm3_eps,2022.2.5,Win32,144.4460494,610284a1a38509a6059d1bc9,64aea9d0f615b6559c281482,64becb70970bdff9d47ede90,right,-1,0.3,0.05,5,0.007397781,0.4675,,,,,,87,0,87,0,1,,,,,
,,169964,001,2023-07-24_22h06.02.889,arm3_eps,2022.2.5,Win32,144.4460494,610284a1a38509a6059d1bc9,64aea9d0f615b6559c281482,64becb70970bdff9d47ede90,right,-1,0.3,0.05,5,-0.031166967,0.2672,,,,,,88,0,88,0,1,,,,,
,,169964,001,2023-07-24_22h06.02.889,arm3_eps,2022.2.5,Win32,144.4460494,610284a1a38509a6059d1bc9,64aea9d0f615b6559c281482,64becb70970bdff9d47ede90,right,-1,0.3,0.05,5,-0.047462691,0.3667,,,,,,89,0,89,0,1,,,,,
,,169964,001,2023-07-24_22h06.02.889,arm3_eps,2022.2.5,Win32,144.4460494,610284a1a38509a6059d1bc9,64aea9d0f615b6559c281482,64becb70970bdff9d47ede90,up,1,0.3,0.05,5,0,0.4506,,,,,,90,0,90,0,1,,,,,
,,169964,001,2023-07-24_22h06.02.889,arm3_eps,2022.2.5,Win32,144.4460494,610284a1a38509a6059d1bc9,64aea9d0f615b6559c281482,64becb70970bdff9d47ede90,down,1,0.3,0.05,5,0,1.7687,,,,,,91,0,91,0,1,,,,,
,,169964,001,2023-07-24_22h06.02.889,arm3_eps,2022.2.5,Win32,144.4460494,610284a1a38509a6059d1bc9,64aea9d0f615b6559c281482,64becb70970bdff9d47ede90,right,1,0.3,0.05,5,-0.00326527,1.0381,,,,,,92,0,92,0,1,,,,,
,,169964,001,2023-07-24_22h06.02.889,arm3_eps,2022.2.5,Win32,144.4460494,610284a1a38509a6059d1bc9,64aea9d0f615b6559c281482,64becb70970bdff9d47ede90,up,1,0.3,0.05,6,0,0.7174,,,,,,93,0,93,0,1,,,,,
,,169964,001,2023-07-24_22h06.02.889,arm3_eps,2022.2.5,Win32,144.4460494,610284a1a38509a6059d1bc9,64aea9d0f615b6559c281482,64becb70970bdff9d47ede90,up,1,0.3,0.05,6,0,1.2665,,,,,,94,0,94,0,1,,,,,
,,169964,001,2023-07-24_22h06.02.889,arm3_eps,2022.2.5,Win32,144.4460494,610284a1a38509a6059d1bc9,64aea9d0f615b6559c281482,64becb70970bdff9d47ede90,right,1,0.3,0.05,6,0.010819787,1.2516,,,,,,95,0,95,0,1,,,,,
,,169964,001,2023-07-24_22h06.02.889,arm3_eps,2022.2.5,Win32,144.4460494,610284a1a38509a6059d1bc9,64aea9d0f615b6559c281482,64becb70970bdff9d47ede90,right,1,0.3,0.05,6,0.041989882,0.317,,,,,,96,0,96,0,1,,,,,
,,169964,001,2023-07-24_22h06.02.889,arm3_eps,2022.2.5,Win32,144.4460494,610284a1a38509a6059d1bc9,64aea9d0f615b6559c281482,64becb70970bdff9d47ede90,right,1,0.3,0.05,6,0.05385156,0.301,,,,,,97,0,97,0,1,,,,,
,,169964,001,2023-07-24_22h06.02.889,arm3_eps,2022.2.5,Win32,144.4460494,610284a1a38509a6059d1bc9,64aea9d0f615b6559c281482,64becb70970bdff9d47ede90,up,1,0.3,0.05,6,0,0.2843,,,,,,98,0,98,0,1,,,,,
,,169964,001,2023-07-24_22h06.02.889,arm3_eps,2022.2.5,Win32,144.4460494,610284a1a38509a6059d1bc9,64aea9d0f615b6559c281482,64becb70970bdff9d47ede90,right,1,0.3,0.05,6,0.008354205,0.9346,,,,,,99,0,99,0,1,,,,,
,,169964,001,2023-07-24_22h06.02.889,arm3_eps,2022.2.5,Win32,144.4460494,610284a1a38509a6059d1bc9,64aea9d0f615b6559c281482,64becb70970bdff9d47ede90,right,1,0.3,0.05,6,0.018959503,0.2711,,,,,,100,0,100,0,1,,,,,
,,169964,001,2023-07-24_22h06.02.889,arm3_eps,2022.2.5,Win32,144.4460494,610284a1a38509a6059d1bc9,64aea9d0f615b6559c281482,64becb70970bdff9d47ede90,right,1,0.3,0.05,6,0.036677003,0.3009,,,,,,101,0,101,0,1,,,,,
,,169964,001,2023-07-24_22h06.02.889,arm3_eps,2022.2.5,Win32,144.4460494,610284a1a38509a6059d1bc9,64aea9d0f615b6559c281482,64becb70970bdff9d47ede90,right,1,0.3,0.05,6,0.043755705,0.3508,,,,,,102,0,102,0,1,,,,,
,,169964,001,2023-07-24_22h06.02.889,arm3_eps,2022.2.5,Win32,144.4460494,610284a1a38509a6059d1bc9,64aea9d0f615b6559c281482,64becb70970bdff9d47ede90,up,1,0.3,0.05,6,0,0.4836,,,,,,103,0,103,0,1,,,,,
,,169964,001,2023-07-24_22h06.02.889,arm3_eps,2022.2.5,Win32,144.4460494,610284a1a38509a6059d1bc9,64aea9d0f615b6559c281482,64becb70970bdff9d47ede90,right,1,0.3,0.05,6,0.032642902,0.8175,,,,,,104,0,104,0,1,,,,,
,,169964,001,2023-07-24_22h06.02.889,arm3_eps,2022.2.5,Win32,144.4460494,610284a1a38509a6059d1bc9,64aea9d0f615b6559c281482,64becb70970bdff9d47ede90,right,1,0.3,0.05,6,0.057563519,0.3164,,,,,,105,0,105,0,1,,,,,
,,169964,001,2023-07-24_22h06.02.889,arm3_eps,2022.2.5,Win32,144.4460494,610284a1a38509a6059d1bc9,64aea9d0f615b6559c281482,64becb70970bdff9d47ede90,up,1,0.3,0.05,6,0,0.354,,,,,,106,0,106,0,1,,,,,
,,169964,001,2023-07-24_22h06.02.889,arm3_eps,2022.2.5,Win32,144.4460494,610284a1a38509a6059d1bc9,64aea9d0f615b6559c281482,64becb70970bdff9d47ede90,right,1,0.3,0.05,6,-0.001003389,0.8682,,,,,,107,0,107,0,1,,,,,
,,169964,001,2023-07-24_22h06.02.889,arm3_eps,2022.2.5,Win32,144.4460494,610284a1a38509a6059d1bc9,64aea9d0f615b6559c281482,64becb70970bdff9d47ede90,right,1,0.3,0.05,6,0.01002647,0.3507,,,,,,108,0,108,0,1,,,,,
,,169964,001,2023-07-24_22h06.02.889,arm3_eps,2022.2.5,Win32,144.4460494,610284a1a38509a6059d1bc9,64aea9d0f615b6559c281482,64becb70970bdff9d47ede90,right,1,0.3,0.05,6,0.035203908,0.3679,,,,,,109,0,109,0,1,,,,,
,,169964,001,2023-07-24_22h06.02.889,arm3_eps,2022.2.5,Win32,144.4460494,610284a1a38509a6059d1bc9,64aea9d0f615b6559c281482,64becb70970bdff9d47ede90,right,1,0.3,0.05,6,0.049220377,0.282,,,,,,110,0,110,0,1,,,,,
,,169964,001,2023-07-24_22h06.02.889,arm3_eps,2022.2.5,Win32,144.4460494,610284a1a38509a6059d1bc9,64aea9d0f615b6559c281482,64becb70970bdff9d47ede90,up,1,0.3,0.05,6,0,0.4499,,,,,,111,0,111,0,1,,,,,
,,169964,001,2023-07-24_22h06.02.889,arm3_eps,2022.2.5,Win32,144.4460494,610284a1a38509a6059d1bc9,64aea9d0f615b6559c281482,64becb70970bdff9d47ede90,right,1,0.3,0.05,6,0.007315946,0.8351,,,,,,112,0,112,0,1,,,,,
,,169964,001,2023-07-24_22h06.02.889,arm3_eps,2022.2.5,Win32,144.4460494,610284a1a38509a6059d1bc9,64aea9d0f615b6559c281482,64becb70970bdff9d47ede90,right,1,0.3,0.05,6,0.007210901,0.2666,,,,,,113,0,113,0,1,,,,,
,,169964,001,2023-07-24_22h06.02.889,arm3_eps,2022.2.5,Win32,144.4460494,610284a1a38509a6059d1bc9,64aea9d0f615b6559c281482,64becb70970bdff9d47ede90,right,1,0.3,0.05,6,0.004792805,0.3011,,,,,,114,0,114,0,1,,,,,
,,169964,001,2023-07-24_22h06.02.889,arm3_eps,2022.2.5,Win32,144.4460494,610284a1a38509a6059d1bc9,64aea9d0f615b6559c281482,64becb70970bdff9d47ede90,right,1,0.3,0.05,6,0.033267451,0.3343,,,,,,115,0,115,0,1,,,,,
,,169964,001,2023-07-24_22h06.02.889,arm3_eps,2022.2.5,Win32,144.4460494,610284a1a38509a6059d1bc9,64aea9d0f615b6559c281482,64becb70970bdff9d47ede90,right,1,0.3,0.05,6,0.045136876,0.3177,,,,,,116,0,116,0,1,,,,,
,,169964,001,2023-07-24_22h06.02.889,arm3_eps,2022.2.5,Win32,144.4460494,610284a1a38509a6059d1bc9,64aea9d0f615b6559c281482,64becb70970bdff9d47ede90,right,1,0.3,0.05,6,0.04770953,0.3503,,,,,,117,0,117,0,1,,,,,
,,169964,001,2023-07-24_22h06.02.889,arm3_eps,2022.2.5,Win32,144.4460494,610284a1a38509a6059d1bc9,64aea9d0f615b6559c281482,64becb70970bdff9d47ede90,down,1,0.3,0.05,6,0,0.4505,,,,,,118,0,118,0,1,,,,,
,,169964,001,2023-07-24_22h06.02.889,arm3_eps,2022.2.5,Win32,144.4460494,610284a1a38509a6059d1bc9,64aea9d0f615b6559c281482,64becb70970bdff9d47ede90,right,1,0.3,0.05,6,0.019508647,0.8891,,,,,,119,0,119,0,1,,,,,
,,169964,001,2023-07-24_22h06.02.889,arm3_eps,2022.2.5,Win32,144.4460494,610284a1a38509a6059d1bc9,64aea9d0f615b6559c281482,64becb70970bdff9d47ede90,right,1,0.3,0.05,6,0.041015368,0.367,,,,,,120,0,120,0,1,,,,,
,,169964,001,2023-07-24_22h06.02.889,arm3_eps,2022.2.5,Win32,144.4460494,610284a1a38509a6059d1bc9,64aea9d0f615b6559c281482,64becb70970bdff9d47ede90,up,1,0.3,0.05,7,0,0.3168,,,,,,121,0,121,0,1,,,,,
,,169964,001,2023-07-24_22h06.02.889,arm3_eps,2022.2.5,Win32,144.4460494,610284a1a38509a6059d1bc9,64aea9d0f615b6559c281482,64becb70970bdff9d47ede90,right,1,0.3,0.05,7,0.006024457,0.8669,,,,,,122,0,122,0,1,,,,,
,,169964,001,2023-07-24_22h06.02.889,arm3_eps,2022.2.5,Win32,144.4460494,610284a1a38509a6059d1bc9,64aea9d0f615b6559c281482,64becb70970bdff9d47ede90,right,1,0.3,0.05,7,0.015440204,0.2839,,,,,,123,0,123,0,1,,,,,
,,169964,001,2023-07-24_22h06.02.889,arm3_eps,2022.2.5,Win32,144.4460494,610284a1a38509a6059d1bc9,64aea9d0f615b6559c281482,64becb70970bdff9d47ede90,right,1,0.3,0.05,7,0.015388584,0.4045,,,,,,124,0,124,0,1,,,,,
,,169964,001,2023-07-24_22h06.02.889,arm3_eps,2022.2.5,Win32,144.4460494,610284a1a38509a6059d1bc9,64aea9d0f615b6559c281482,64becb70970bdff9d47ede90,right,1,0.3,0.05,7,0.018378874,0.9677,,,,,,125,0,125,0,1,,,,,
,,169964,001,2023-07-24_22h06.02.889,arm3_eps,2022.2.5,Win32,144.4460494,610284a1a38509a6059d1bc9,64aea9d0f615b6559c281482,64becb70970bdff9d47ede90,right,1,0.3,0.05,7,0.020965802,0.3378,,,,,,126,0,126,0,1,,,,,
,,169964,001,2023-07-24_22h06.02.889,arm3_eps,2022.2.5,Win32,144.4460494,610284a1a38509a6059d1bc9,64aea9d0f615b6559c281482,64becb70970bdff9d47ede90,right,1,0.3,0.05,7,0.018383115,0.3341,,,,,,127,0,127,0,1,,,,,
,,169964,001,2023-07-24_22h06.02.889,arm3_eps,2022.2.5,Win32,144.4460494,610284a1a38509a6059d1bc9,64aea9d0f615b6559c281482,64becb70970bdff9d47ede90,up,1,0.3,0.05,7,0,0.4676,,,,,,128,0,128,0,1,,,,,
,,169964,001,2023-07-24_22h06.02.889,arm3_eps,2022.2.5,Win32,144.4460494,610284a1a38509a6059d1bc9,64aea9d0f615b6559c281482,64becb70970bdff9d47ede90,right,1,0.3,0.05,7,-0.018316296,0.9178,,,,,,129,0,129,0,1,,,,,
,,169964,001,2023-07-24_22h06.02.889,arm3_eps,2022.2.5,Win32,144.4460494,610284a1a38509a6059d1bc9,64aea9d0f615b6559c281482,64becb70970bdff9d47ede90,right,1,0.3,0.05,7,-0.017823638,0.4009,,,,,,130,0,130,0,1,,,,,
,,169964,001,2023-07-24_22h06.02.889,arm3_eps,2022.2.5,Win32,144.4460494,610284a1a38509a6059d1bc9,64aea9d0f615b6559c281482,64becb70970bdff9d47ede90,right,1,0.3,0.05,7,0.000725696,0.3654,,,,,,131,0,131,0,1,,,,,
,,169964,001,2023-07-24_22h06.02.889,arm3_eps,2022.2.5,Win32,144.4460494,610284a1a38509a6059d1bc9,64aea9d0f615b6559c281482,64becb70970bdff9d47ede90,right,1,0.3,0.05,7,0.001587189,0.3175,,,,,,132,0,132,0,1,,,,,
,,169964,001,2023-07-24_22h06.02.889,arm3_eps,2022.2.5,Win32,144.4460494,610284a1a38509a6059d1bc9,64aea9d0f615b6559c281482,64becb70970bdff9d47ede90,up,1,0.3,0.05,8,0,0.6842,,,,,,133,0,133,0,1,,,,,
,,169964,001,2023-07-24_22h06.02.889,arm3_eps,2022.2.5,Win32,144.4460494,610284a1a38509a6059d1bc9,64aea9d0f615b6559c281482,64becb70970bdff9d47ede90,right,1,0.3,0.05,8,-0.004931708,0.8664,,,,,,134,0,134,0,1,,,,,
,,169964,001,2023-07-24_22h06.02.889,arm3_eps,2022.2.5,Win32,144.4460494,610284a1a38509a6059d1bc9,64aea9d0f615b6559c281482,64becb70970bdff9d47ede90,right,1,0.3,0.05,8,0.00190943,0.4173,,,,,,135,0,135,0,1,,,,,
,,169964,001,2023-07-24_22h06.02.889,arm3_eps,2022.2.5,Win32,144.4460494,610284a1a38509a6059d1bc9,64aea9d0f615b6559c281482,64becb70970bdff9d47ede90,right,1,0.3,0.05,8,-0.011926456,0.3507,,,,,,136,0,136,0,1,,,,,
,,169964,001,2023-07-24_22h06.02.889,arm3_eps,2022.2.5,Win32,144.4460494,610284a1a38509a6059d1bc9,64aea9d0f615b6559c281482,64becb70970bdff9d47ede90,right,1,0.3,0.05,8,0.000332863,0.3676,,,,,,137,0,137,0,1,,,,,
,,169964,001,2023-07-24_22h06.02.889,arm3_eps,2022.2.5,Win32,144.4460494,610284a1a38509a6059d1bc9,64aea9d0f615b6559c281482,64becb70970bdff9d47ede90,right,1,0.3,0.05,8,-0.017073413,0.3501,,,,,,138,0,138,0,1,,,,,
,,169964,001,2023-07-24_22h06.02.889,arm3_eps,2022.2.5,Win32,144.4460494,610284a1a38509a6059d1bc9,64aea9d0f615b6559c281482,64becb70970bdff9d47ede90,up,1,0.3,0.05,9,0,0.6007,,,,,,139,0,139,0,1,,,,,
,,169964,001,2023-07-24_22h06.02.889,arm3_eps,2022.2.5,Win32,144.4460494,610284a1a38509a6059d1bc9,64aea9d0f615b6559c281482,64becb70970bdff9d47ede90,right,1,0.3,0.05,9,0.004578678,0.9348,,,,,,140,0,140,0,1,,,,,
,,169964,001,2023-07-24_22h06.02.889,arm3_eps,2022.2.5,Win32,144.4460494,610284a1a38509a6059d1bc9,64aea9d0f615b6559c281482,64becb70970bdff9d47ede90,right,1,0.3,0.05,9,-0.023770396,0.3993,,,,,,141,0,141,0,1,,,,,
,,169964,001,2023-07-24_22h06.02.889,arm3_eps,2022.2.5,Win32,144.4460494,610284a1a38509a6059d1bc9,64aea9d0f615b6559c281482,64becb70970bdff9d47ede90,right,1,0.3,0.05,9,-0.009747919,0.3671,,,,,,142,0,142,0,1,,,,,
,,169964,001,2023-07-24_22h06.02.889,arm3_eps,2022.2.5,Win32,144.4460494,610284a1a38509a6059d1bc9,64aea9d0f615b6559c281482,64becb70970bdff9d47ede90,right,1,0.3,0.05,9,-0.025404128,0.3664,,,,,,143,0,143,0,1,,,,,
,,169964,001,2023-07-24_22h06.02.889,arm3_eps,2022.2.5,Win32,144.4460494,610284a1a38509a6059d1bc9,64aea9d0f615b6559c281482,64becb70970bdff9d47ede90,right,1,0.3,0.05,9,0.005138449,0.4842,,,,,,144,0,144,0,1,,,,,
,,169964,001,2023-07-24_22h06.02.889,arm3_eps,2022.2.5,Win32,144.4460494,610284a1a38509a6059d1bc9,64aea9d0f615b6559c281482,64becb70970bdff9d47ede90,up,1,0.3,0.05,9,0,0.5346,,,,,,145,0,145,0,1,,,,,
,,169964,001,2023-07-24_22h06.02.889,arm3_eps,2022.2.5,Win32,144.4460494,610284a1a38509a6059d1bc9,64aea9d0f615b6559c281482,64becb70970bdff9d47ede90,right,1,0.3,0.05,9,-0.008145484,1.2507,,,,,,146,0,146,0,1,,,,,
,,169964,001,2023-07-24_22h06.02.889,arm3_eps,2022.2.5,Win32,144.4460494,610284a1a38509a6059d1bc9,64aea9d0f615b6559c281482,64becb70970bdff9d47ede90,right,1,0.3,0.05,9,-0.011998721,0.3338,,,,,,147,0,147,0,1,,,,,
,,169964,001,2023-07-24_22h06.02.889,arm3_eps,2022.2.5,Win32,144.4460494,610284a1a38509a6059d1bc9,64aea9d0f615b6559c281482,64becb70970bdff9d47ede90,right,1,0.3,0.05,9,-0.006887773,0.3497,,,,,,148,0,148,0,1,,,,,
,,169964,001,2023-07-24_22h06.02.889,arm3_eps,2022.2.5,Win32,144.4460494,610284a1a38509a6059d1bc9,64aea9d0f615b6559c281482,64becb70970bdff9d47ede90,right,1,0.3,0.05,9,-0.005416151,0.3845,,,,,,149,0,149,0,1,,,,,
,,169964,001,2023-07-24_22h06.02.889,arm3_eps,2022.2.5,Win32,144.4460494,610284a1a38509a6059d1bc9,64aea9d0f615b6559c281482,64becb70970bdff9d47ede90,right,1,0.3,0.05,9,0.004222527,0.3843,,,,,,150,0,150,0,1,,,,,
,,169964,001,2023-07-24_22h06.02.889,arm3_eps,2022.2.5,Win32,144.4460494,610284a1a38509a6059d1bc9,64aea9d0f615b6559c281482,64becb70970bdff9d47ede90,up,1,0.3,0.05,10,0,0.4509,,,,,,151,0,151,0,1,,,,,
,,169964,001,2023-07-24_22h06.02.889,arm3_eps,2022.2.5,Win32,144.4460494,610284a1a38509a6059d1bc9,64aea9d0f615b6559c281482,64becb70970bdff9d47ede90,right,1,0.3,0.05,10,0.006796656,0.985,,,,,,152,0,152,0,1,,,,,
,,169964,001,2023-07-24_22h06.02.889,arm3_eps,2022.2.5,Win32,144.4460494,610284a1a38509a6059d1bc9,64aea9d0f615b6559c281482,64becb70970bdff9d47ede90,right,1,0.3,0.05,10,-0.010145132,0.3504,,,,,,153,0,153,0,1,,,,,
,,169964,001,2023-07-24_22h06.02.889,arm3_eps,2022.2.5,Win32,144.4460494,610284a1a38509a6059d1bc9,64aea9d0f615b6559c281482,64becb70970bdff9d47ede90,right,1,0.3,0.05,10,0.018953908,0.4009,,,,,,154,0,154,0,1,,,,,
,,169964,001,2023-07-24_22h06.02.889,arm3_eps,2022.2.5,Win32,144.4460494,610284a1a38509a6059d1bc9,64aea9d0f615b6559c281482,64becb70970bdff9d47ede90,right,1,0.3,0.05,10,0.00206511,0.3339,,,,,,155,0,155,0,1,,,,,
,,169964,001,2023-07-24_22h06.02.889,arm3_eps,2022.2.5,Win32,144.4460494,610284a1a38509a6059d1bc9,64aea9d0f615b6559c281482,64becb70970bdff9d47ede90,right,1,0.3,0.05,10,-0.011557002,0.351,,,,,,156,0,156,0,1,,,,,
,,169964,001,2023-07-24_22h06.02.889,arm3_eps,2022.2.5,Win32,144.4460494,610284a1a38509a6059d1bc9,64aea9d0f615b6559c281482,64becb70970bdff9d47ede90,right,1,0.3,0.05,10,0.012899084,0.3673,,,,,,157,0,157,0,1,,,,,
,,169964,001,2023-07-24_22h06.02.889,arm3_eps,2022.2.5,Win32,144.4460494,610284a1a38509a6059d1bc9,64aea9d0f615b6559c281482,64becb70970bdff9d47ede90,right,1,0.3,0.05,10,-0.004958771,0.2829,,,,,,158,0,158,0,1,,,,,
,,169964,001,2023-07-24_22h06.02.889,arm3_eps,2022.2.5,Win32,144.4460494,610284a1a38509a6059d1bc9,64aea9d0f615b6559c281482,64becb70970bdff9d47ede90,right,1,0.3,0.05,10,-0.005936378,0.4844,,,,,,159,0,159,0,1,,,,,
,,169964,001,2023-07-24_22h06.02.889,arm3_eps,2022.2.5,Win32,144.4460494,610284a1a38509a6059d1bc9,64aea9d0f615b6559c281482,64becb70970bdff9d47ede90,right,1,0.3,0.05,10,-0.018553402,0.4845,,,,,,160,0,160,0,1,,,,,
,,169964,001,2023-07-24_22h06.02.889,arm3_eps,2022.2.5,Win32,144.4460494,610284a1a38509a6059d1bc9,64aea9d0f615b6559c281482,64becb70970bdff9d47ede90,up,1,0.3,0.05,10,0,0.7344,,,,,,161,0,161,0,1,,,,,
,,169964,001,2023-07-24_22h06.02.889,arm3_eps,2022.2.5,Win32,144.4460494,610284a1a38509a6059d1bc9,64aea9d0f615b6559c281482,64becb70970bdff9d47ede90,right,1,0.3,0.05,10,-0.00475905,0.9847,,,,,,162,0,162,0,1,,,,,
,,169964,001,2023-07-24_22h06.02.889,arm3_eps,2022.2.5,Win32,144.4460494,610284a1a38509a6059d1bc9,64aea9d0f615b6559c281482,64becb70970bdff9d47ede90,down,1,0.3,0.05,10,0,0.3674,,,,,,163,0,163,0,1,,,,,
,,169964,001,2023-07-24_22h06.02.889,arm3_eps,2022.2.5,Win32,144.4460494,610284a1a38509a6059d1bc9,64aea9d0f615b6559c281482,64becb70970bdff9d47ede90,right,1,0.3,0.05,10,0.001758842,1.035,,,,,,164,0,164,0,1,,,,,
,,169964,001,2023-07-24_22h06.02.889,arm3_eps,2022.2.5,Win32,144.4460494,610284a1a38509a6059d1bc9,64aea9d0f615b6559c281482,64becb70970bdff9d47ede90,down,1,0.3,0.05,10,0,0.5876,,,,,,165,0,165,0,1,,,,,
,,169964,001,2023-07-24_22h06.02.889,arm3_eps,2022.2.5,Win32,144.4460494,610284a1a38509a6059d1bc9,64aea9d0f615b6559c281482,64becb70970bdff9d47ede90,up,1,0.3,0.05,10,0,1.1016,,,,,,166,0,166,0,1,,,,,
,,169964,001,2023-07-24_22h06.02.889,arm3_eps,2022.2.5,Win32,144.4460494,610284a1a38509a6059d1bc9,64aea9d0f615b6559c281482,64becb70970bdff9d47ede90,down,1,0.3,0.05,9,0,1.2838,,,,,,167,0,167,0,1,,,,,
,,169964,001,2023-07-24_22h06.02.889,arm3_eps,2022.2.5,Win32,144.4460494,610284a1a38509a6059d1bc9,64aea9d0f615b6559c281482,64becb70970bdff9d47ede90,right,1,0.3,0.05,9,3.85121E-05,0.9679,,,,,,168,0,168,0,1,,,,,
,,169964,001,2023-07-24_22h06.02.889,arm3_eps,2022.2.5,Win32,144.4460494,610284a1a38509a6059d1bc9,64aea9d0f615b6559c281482,64becb70970bdff9d47ede90,right,1,0.3,0.05,9,0.013108301,0.4174,,,,,,169,0,169,0,1,,,,,
,,169964,001,2023-07-24_22h06.02.889,arm3_eps,2022.2.5,Win32,144.4460494,610284a1a38509a6059d1bc9,64aea9d0f615b6559c281482,64becb70970bdff9d47ede90,right,1,0.3,0.05,9,0.022207111,0.3332,,,,,,170,0,170,0,1,,,,,
,,169964,001,2023-07-24_22h06.02.889,arm3_eps,2022.2.5,Win32,144.4460494,610284a1a38509a6059d1bc9,64aea9d0f615b6559c281482,64becb70970bdff9d47ede90,up,1,0.3,0.05,10,0,0.3343,,,,,,171,0,171,0,1,,,,,
,,169964,001,2023-07-24_22h06.02.889,arm3_eps,2022.2.5,Win32,144.4460494,610284a1a38509a6059d1bc9,64aea9d0f615b6559c281482,64becb70970bdff9d47ede90,right,1,0.3,0.05,10,-0.004251839,0.918,,,,,,172,0,172,0,1,,,,,
,,169964,001,2023-07-24_22h06.02.889,arm3_eps,2022.2.5,Win32,144.4460494,610284a1a38509a6059d1bc9,64aea9d0f615b6559c281482,64becb70970bdff9d47ede90,right,1,0.3,0.05,10,0.029129546,0.4004,,,,,,173,0,173,0,1,,,,,
,,169964,001,2023-07-24_22h06.02.889,arm3_eps,2022.2.5,Win32,144.4460494,610284a1a38509a6059d1bc9,64aea9d0f615b6559c281482,64becb70970bdff9d47ede90,right,1,0.3,0.05,10,0.044728103,0.3507,,,,,,174,0,174,0,1,,,,,
,,169964,001,2023-07-24_22h06.02.889,arm3_eps,2022.2.5,Win32,144.4460494,610284a1a38509a6059d1bc9,64aea9d0f615b6559c281482,64becb70970bdff9d47ede90,up,1,0.3,0.05,10,0,0.4505,,,,,,175,0,175,0,1,,,,,
,,169964,001,2023-07-24_22h06.02.889,arm3_eps,2022.2.5,Win32,144.4460494,610284a1a38509a6059d1bc9,64aea9d0f615b6559c281482,64becb70970bdff9d47ede90,right,1,0.3,0.05,10,0.021776133,0.8507,,,,,,176,0,176,0,1,,,,,
,,169964,001,2023-07-24_22h06.02.889,arm3_eps,2022.2.5,Win32,144.4460494,610284a1a38509a6059d1bc9,64aea9d0f615b6559c281482,64becb70970bdff9d47ede90,right,1,0.3,0.05,10,0.044265426,0.6173,,,,,,177,0,177,0,1,,,,,
,,169964,001,2023-07-24_22h06.02.889,arm3_eps,2022.2.5,Win32,144.4460494,610284a1a38509a6059d1bc9,64aea9d0f615b6559c281482,64becb70970bdff9d47ede90,up,-1,0.3,0.05,10,0,0.8013,,,,,,178,0,178,0,1,,,,,
,,169964,001,2023-07-24_22h06.02.889,arm3_eps,2022.2.5,Win32,144.4460494,610284a1a38509a6059d1bc9,64aea9d0f615b6559c281482,64becb70970bdff9d47ede90,right,-1,0.3,0.05,10,-0.008088661,0.8512,,,,,,179,0,179,0,1,,,,,
,,169964,001,2023-07-24_22h06.02.889,arm3_eps,2022.2.5,Win32,144.4460494,610284a1a38509a6059d1bc9,64aea9d0f615b6559c281482,64becb70970bdff9d47ede90,right,-1,0.3,0.05,10,-0.033078828,0.584,,,,,,180,0,180,0,1,,,,,
,,169964,001,2023-07-24_22h06.02.889,arm3_eps,2022.2.5,Win32,144.4460494,610284a1a38509a6059d1bc9,64aea9d0f615b6559c281482,64becb70970bdff9d47ede90,down,-1,0.3,0.05,10,0,0.5179,,,,,,181,0,181,0,1,,,,,
,,169964,001,2023-07-24_22h06.02.889,arm3_eps,2022.2.5,Win32,144.4460494,610284a1a38509a6059d1bc9,64aea9d0f615b6559c281482,64becb70970bdff9d47ede90,right,-1,0.3,0.05,10,-0.016074189,0.868,,,,,,182,0,182,0,1,,,,,
,,169964,001,2023-07-24_22h06.02.889,arm3_eps,2022.2.5,Win32,144.4460494,610284a1a38509a6059d1bc9,64aea9d0f615b6559c281482,64becb70970bdff9d47ede90,right,-1,0.3,0.05,10,-0.027820786,0.3673,,,,,,183,0,183,0,1,,,,,
,,169964,001,2023-07-24_22h06.02.889,arm3_eps,2022.2.5,Win32,144.4460494,610284a1a38509a6059d1bc9,64aea9d0f615b6559c281482,64becb70970bdff9d47ede90,right,-1,0.3,0.05,10,-0.043895634,0.3487,,,,,,184,0,184,0,1,,,,,
,,169964,001,2023-07-24_22h06.02.889,arm3_eps,2022.2.5,Win32,144.4460494,610284a1a38509a6059d1bc9,64aea9d0f615b6559c281482,64becb70970bdff9d47ede90,right,-1,0.3,0.05,10,-0.056604851,0.4005,,,,,,185,0,185,0,1,,,,,
,,169964,001,2023-07-24_22h06.02.889,arm3_eps,2022.2.5,Win32,144.4460494,610284a1a38509a6059d1bc9,64aea9d0f615b6559c281482,64becb70970bdff9d47ede90,down,-1,0.3,0.05,10,0,0.3172,,,,,,186,0,186,0,1,,,,,
,,169964,001,2023-07-24_22h06.02.889,arm3_eps,2022.2.5,Win32,144.4460494,610284a1a38509a6059d1bc9,64aea9d0f615b6559c281482,64becb70970bdff9d47ede90,right,-1,0.3,0.05,10,-0.014615421,1.0344,,,,,,187,0,187,0,1,,,,,
,,169964,001,2023-07-24_22h06.02.889,arm3_eps,2022.2.5,Win32,144.4460494,610284a1a38509a6059d1bc9,64aea9d0f615b6559c281482,64becb70970bdff9d47ede90,right,-1,0.3,0.05,10,-0.019589353,0.3509,,,,,,188,0,188,0,1,,,,,
,,169964,001,2023-07-24_22h06.02.889,arm3_eps,2022.2.5,Win32,144.4460494,610284a1a38509a6059d1bc9,64aea9d0f615b6559c281482,64becb70970bdff9d47ede90,right,-1,0.3,0.05,10,-0.035483181,0.2831,,,,,,189,0,189,0,1,,,,,
,,169964,001,2023-07-24_22h06.02.889,arm3_eps,2022.2.5,Win32,144.4460494,610284a1a38509a6059d1bc9,64aea9d0f615b6559c281482,64becb70970bdff9d47ede90,right,-1,0.3,0.05,10,0.00240519,0.3176,,,,,,190,0,190,0,1,,,,,
,,169964,001,2023-07-24_22h06.02.889,arm3_eps,2022.2.5,Win32,144.4460494,610284a1a38509a6059d1bc9,64aea9d0f615b6559c281482,64becb70970bdff9d47ede90,right,-1,0.3,0.05,10,0.014918644,0.3172,,,,,,191,0,191,0,1,,,,,
,,169964,001,2023-07-24_22h06.02.889,arm3_eps,2022.2.5,Win32,144.4460494,610284a1a38509a6059d1bc9,64aea9d0f615b6559c281482,64becb70970bdff9d47ede90,right,-1,0.3,0.05,10,0.009689297,0.3175,,,,,,192,0,192,0,1,,,,,
,,169964,001,2023-07-24_22h06.02.889,arm3_eps,2022.2.5,Win32,144.4460494,610284a1a38509a6059d1bc9,64aea9d0f615b6559c281482,64becb70970bdff9d47ede90,down,-1,0.3,0.05,11,0,0.7505,,,,,,193,0,193,0,1,,,,,
,,169964,001,2023-07-24_22h06.02.889,arm3_eps,2022.2.5,Win32,144.4460494,610284a1a38509a6059d1bc9,64aea9d0f615b6559c281482,64becb70970bdff9d47ede90,right,-1,0.3,0.05,11,-0.0224547,0.8839,,,,,,194,0,194,0,1,,,,,
,,169964,001,2023-07-24_22h06.02.889,arm3_eps,2022.2.5,Win32,144.4460494,610284a1a38509a6059d1bc9,64aea9d0f615b6559c281482,64becb70970bdff9d47ede90,right,-1,0.3,0.05,11,-0.001723686,0.3008,,,,,,195,0,195,0,1,,,,,
,,169964,001,2023-07-24_22h06.02.889,arm3_eps,2022.2.5,Win32,144.4460494,610284a1a38509a6059d1bc9,64aea9d0f615b6559c281482,64becb70970bdff9d47ede90,right,-1,0.3,0.05,11,0.003797475,0.3506,,,,,,196,0,196,0,1,,,,,
,,169964,001,2023-07-24_22h06.02.889,arm3_eps,2022.2.5,Win32,144.4460494,610284a1a38509a6059d1bc9,64aea9d0f615b6559c281482,64becb70970bdff9d47ede90,right,-1,0.3,0.05,11,-0.012988438,0.3997,,,,,,197,0,197,0,1,,,,,
,,169964,001,2023-07-24_22h06.02.889,arm3_eps,2022.2.5,Win32,144.4460494,610284a1a38509a6059d1bc9,64aea9d0f615b6559c281482,64becb70970bdff9d47ede90,right,-1,0.3,0.05,11,-0.038922925,0.4507,,,,,,198,0,198,0,1,,,,,
,,169964,001,2023-07-24_22h06.02.889,arm3_eps,2022.2.5,Win32,144.4460494,610284a1a38509a6059d1bc9,64aea9d0f615b6559c281482,64becb70970bdff9d47ede90,down,-1,0.3,0.05,11,0,0.3675,,,,,,199,0,199,0,1,,,,,
,,169964,001,2023-07-24_22h06.02.889,arm3_eps,2022.2.5,Win32,144.4460494,610284a1a38509a6059d1bc9,64aea9d0f615b6559c281482,64becb70970bdff9d47ede90,right,-1,0.3,0.05,11,-0.006799981,1.0014,,,,,,200,0,200,0,1,,,,,
,,169964,001,2023-07-24_22h06.02.889,arm3_eps,2022.2.5,Win32,144.4460494,610284a1a38509a6059d1bc9,64aea9d0f615b6559c281482,64becb70970bdff9d47ede90,down,-1,0.3,0.05,12,0,0.5173,,,,,,201,0,201,0,1,,,,,
,,169964,001,2023-07-24_22h06.02.889,arm3_eps,2022.2.5,Win32,144.4460494,610284a1a38509a6059d1bc9,64aea9d0f615b6559c281482,64becb70970bdff9d47ede90,right,-1,0.3,0.05,12,-0.027874842,0.9849,,,,,,202,0,202,0,1,,,,,
,,169964,001,2023-07-24_22h06.02.889,arm3_eps,2022.2.5,Win32,144.4460494,610284a1a38509a6059d1bc9,64aea9d0f615b6559c281482,64becb70970bdff9d47ede90,right,-1,0.3,0.05,12,-0.037087074,0.3672,,,,,,203,0,203,0,1,,,,,
,,169964,001,2023-07-24_22h06.02.889,arm3_eps,2022.2.5,Win32,144.4460494,610284a1a38509a6059d1bc9,64aea9d0f615b6559c281482,64becb70970bdff9d47ede90,down,-1,0.3,0.05,12,0,0.3342,,,,,,204,0,204,0,1,,,,,
,,169964,001,2023-07-24_22h06.02.889,arm3_eps,2022.2.5,Win32,144.4460494,610284a1a38509a6059d1bc9,64aea9d0f615b6559c281482,64becb70970bdff9d47ede90,right,-1,0.3,0.05,12,0.009323717,0.935,,,,,,205,0,205,0,1,,,,,
,,169964,001,2023-07-24_22h06.02.889,arm3_eps,2022.2.5,Win32,144.4460494,610284a1a38509a6059d1bc9,64aea9d0f615b6559c281482,64becb70970bdff9d47ede90,right,-1,0.3,0.05,12,-0.005394315,0.3342,,,,,,206,0,206,0,1,,,,,
,,169964,001,2023-07-24_22h06.02.889,arm3_eps,2022.2.5,Win32,144.4460494,610284a1a38509a6059d1bc9,64aea9d0f615b6559c281482,64becb70970bdff9d47ede90,right,-1,0.3,0.05,12,-0.026112639,0.3174,,,,,,207,0,207,0,1,,,,,
,,169964,001,2023-07-24_22h06.02.889,arm3_eps,2022.2.5,Win32,144.4460494,610284a1a38509a6059d1bc9,64aea9d0f615b6559c281482,64becb70970bdff9d47ede90,right,-1,0.3,0.05,12,-0.065845729,0.4845,,,,,,208,0,208,0,1,,,,,
,,169964,001,2023-07-24_22h06.02.889,arm3_eps,2022.2.5,Win32,144.4460494,610284a1a38509a6059d1bc9,64aea9d0f615b6559c281482,64becb70970bdff9d47ede90,down,-1,0.3,0.05,12,0,0.3676,,,,,,209,0,209,0,1,,,,,
,,169964,001,2023-07-24_22h06.02.889,arm3_eps,2022.2.5,Win32,144.4460494,610284a1a38509a6059d1bc9,64aea9d0f615b6559c281482,64becb70970bdff9d47ede90,right,-1,0.3,0.05,12,-0.03029632,0.9168,,,,,,210,0,210,0,1,,,,,
,,169964,001,2023-07-24_22h06.02.889,arm3_eps,2022.2.5,Win32,144.4460494,610284a1a38509a6059d1bc9,64aea9d0f615b6559c281482,64becb70970bdff9d47ede90,right,-1,0.3,0.05,12,-0.033665812,0.9174,,,,,,211,0,211,0,1,,,,,
,,169964,001,2023-07-24_22h06.02.889,arm3_eps,2022.2.5,Win32,144.4460494,610284a1a38509a6059d1bc9,64aea9d0f615b6559c281482,64becb70970bdff9d47ede90,right,-1,0.3,0.05,12,-0.048753254,0.3168,,,,,,212,0,212,0,1,,,,,
,,169964,001,2023-07-24_22h06.02.889,arm3_eps,2022.2.5,Win32,144.4460494,610284a1a38509a6059d1bc9,64aea9d0f615b6559c281482,64becb70970bdff9d47ede90,right,-1,0.3,0.05,12,-0.05062943,0.4012,,,,,,213,0,213,0,1,,,,,
,,169964,001,2023-07-24_22h06.02.889,arm3_eps,2022.2.5,Win32,144.4460494,610284a1a38509a6059d1bc9,64aea9d0f615b6559c281482,64becb70970bdff9d47ede90,right,-1,0.3,0.05,12,-0.068448864,0.333,,,,,,214,0,214,0,1,,,,,
,,169964,001,2023-07-24_22h06.02.889,arm3_eps,2022.2.5,Win32,144.4460494,610284a1a38509a6059d1bc9,64aea9d0f615b6559c281482,64becb70970bdff9d47ede90,down,-1,0.3,0.05,13,0,0.5337,,,,,,215,0,215,0,1,,,,,
,,169964,001,2023-07-24_22h06.02.889,arm3_eps,2022.2.5,Win32,144.4460494,610284a1a38509a6059d1bc9,64aea9d0f615b6559c281482,64becb70970bdff9d47ede90,right,-1,0.3,0.05,13,-0.008339238,0.8501,,,,,,216,0,216,0,1,,,,,
,,169964,001,2023-07-24_22h06.02.889,arm3_eps,2022.2.5,Win32,144.4460494,610284a1a38509a6059d1bc9,64aea9d0f615b6559c281482,64becb70970bdff9d47ede90,right,-1,0.3,0.05,13,-0.003538405,0.4151,,,,,,217,0,217,0,1,,,,,
,,169964,001,2023-07-24_22h06.02.889,arm3_eps,2022.2.5,Win32,144.4460494,610284a1a38509a6059d1bc9,64aea9d0f615b6559c281482,64becb70970bdff9d47ede90,right,-1,0.3,0.05,13,-0.049240816,0.3505,,,,,,218,0,218,0,1,,,,,
,,169964,001,2023-07-24_22h06.02.889,arm3_eps,2022.2.5,Win32,144.4460494,610284a1a38509a6059d1bc9,64aea9d0f615b6559c281482,64becb70970bdff9d47ede90,right,-1,0.3,0.05,13,-0.036456062,0.3337,,,,,,219,0,219,0,1,,,,,
,,169964,001,2023-07-24_22h06.02.889,arm3_eps,2022.2.5,Win32,144.4460494,610284a1a38509a6059d1bc9,64aea9d0f615b6559c281482,64becb70970bdff9d47ede90,right,-1,0.3,0.05,13,-0.035806845,0.3843,,,,,,220,0,220,0,1,,,,,
,,169964,001,2023-07-24_22h06.02.889,arm3_eps,2022.2.5,Win32,144.4460494,610284a1a38509a6059d1bc9,64aea9d0f615b6559c281482,64becb70970bdff9d47ede90,right,-1,0.3,0.05,13,-0.046462132,0.417,,,,,,221,0,221,0,1,,,,,
,,169964,001,2023-07-24_22h06.02.889,arm3_eps,2022.2.5,Win32,144.4460494,610284a1a38509a6059d1bc9,64aea9d0f615b6559c281482,64becb70970bdff9d47ede90,down,-1,0.3,0.05,13,0,0.5338,,,,,,222,0,222,0,1,,,,,
,,169964,001,2023-07-24_22h06.02.889,arm3_eps,2022.2.5,Win32,144.4460494,610284a1a38509a6059d1bc9,64aea9d0f615b6559c281482,64becb70970bdff9d47ede90,right,-1,0.3,0.05,13,-0.012362505,0.8009,,,,,,223,0,223,0,1,,,,,
,,169964,001,2023-07-24_22h06.02.889,arm3_eps,2022.2.5,Win32,144.4460494,610284a1a38509a6059d1bc9,64aea9d0f615b6559c281482,64becb70970bdff9d47ede90,right,-1,0.3,0.05,13,-0.009828835,0.3341,,,,,,224,0,224,0,1,,,,,
,,169964,001,2023-07-24_22h06.02.889,arm3_eps,2022.2.5,Win32,144.4460494,610284a1a38509a6059d1bc9,64aea9d0f615b6559c281482,64becb70970bdff9d47ede90,right,-1,0.3,0.05,13,-0.023933774,0.4009,,,,,,225,0,225,0,1,,,,,
,,169964,001,2023-07-24_22h06.02.889,arm3_eps,2022.2.5,Win32,144.4460494,610284a1a38509a6059d1bc9,64aea9d0f615b6559c281482,64becb70970bdff9d47ede90,down,-1,0.3,0.05,14,0,0.351,,,,,,226,0,226,0,1,,,,,
,,169964,001,2023-07-24_22h06.02.889,arm3_eps,2022.2.5,Win32,144.4460494,610284a1a38509a6059d1bc9,64aea9d0f615b6559c281482,64becb70970bdff9d47ede90,right,-1,0.3,0.05,14,-0.020406715,0.8842,,,,,,227,0,227,0,1,,,,,
,,169964,001,2023-07-24_22h06.02.889,arm3_eps,2022.2.5,Win32,144.4460494,610284a1a38509a6059d1bc9,64aea9d0f615b6559c281482,64becb70970bdff9d47ede90,right,-1,0.3,0.05,14,-0.039484512,0.3509,,,,,,228,0,228,0,1,,,,,
,,169964,001,2023-07-24_22h06.02.889,arm3_eps,2022.2.5,Win32,144.4460494,610284a1a38509a6059d1bc9,64aea9d0f615b6559c281482,64becb70970bdff9d47ede90,down,-1,0.3,0.05,14,0,0.3332,,,,,,229,0,229,0,1,,,,,
,,169964,001,2023-07-24_22h06.02.889,arm3_eps,2022.2.5,Win32,144.4460494,610284a1a38509a6059d1bc9,64aea9d0f615b6559c281482,64becb70970bdff9d47ede90,right,-1,0.3,0.05,14,-0.013565743,0.8685,,,,,,230,0,230,0,1,,,,,
,,169964,001,2023-07-24_22h06.02.889,arm3_eps,2022.2.5,Win32,144.4460494,610284a1a38509a6059d1bc9,64aea9d0f615b6559c281482,64becb70970bdff9d47ede90,right,-1,0.3,0.05,14,-0.03958221,0.317,,,,,,231,0,231,0,1,,,,,
,,169964,001,2023-07-24_22h06.02.889,arm3_eps,2022.2.5,Win32,144.4460494,610284a1a38509a6059d1bc9,64aea9d0f615b6559c281482,64becb70970bdff9d47ede90,right,-1,0.3,0.05,14,-0.057198184,0.382,,,,,,232,0,232,0,1,,,,,
,,169964,001,2023-07-24_22h06.02.889,arm3_eps,2022.2.5,Win32,144.4460494,610284a1a38509a6059d1bc9,64aea9d0f615b6559c281482,64becb70970bdff9d47ede90,right,-1,0.3,0.05,14,-0.034678543,0.3178,,,,,,233,0,233,0,1,,,,,
,,169964,001,2023-07-24_22h06.02.889,arm3_eps,2022.2.5,Win32,144.4460494,610284a1a38509a6059d1bc9,64aea9d0f615b6559c281482,64becb70970bdff9d47ede90,right,-1,0.3,0.05,14,-0.046188333,0.3174,,,,,,234,0,234,0,1,,,,,
,,169964,001,2023-07-24_22h06.02.889,arm3_eps,2022.2.5,Win32,144.4460494,610284a1a38509a6059d1bc9,64aea9d0f615b6559c281482,64becb70970bdff9d47ede90,right,-1,0.3,0.05,14,-0.059387085,0.284,,,,,,235,0,235,0,1,,,,,
,,169964,001,2023-07-24_22h06.02.889,arm3_eps,2022.2.5,Win32,144.4460494,610284a1a38509a6059d1bc9,64aea9d0f615b6559c281482,64becb70970bdff9d47ede90,right,-1,0.3,0.05,14,-0.061473051,0.334,,,,,,236,0,236,0,1,,,,,
,,169964,001,2023-07-24_22h06.02.889,arm3_eps,2022.2.5,Win32,144.4460494,610284a1a38509a6059d1bc9,64aea9d0f615b6559c281482,64becb70970bdff9d47ede90,right,-1,0.3,0.05,14,-0.065852624,0.4342,,,,,,237,0,237,0,1,,,,,
,,169964,001,2023-07-24_22h06.02.889,arm3_eps,2022.2.5,Win32,144.4460494,610284a1a38509a6059d1bc9,64aea9d0f615b6559c281482,64becb70970bdff9d47ede90,down,-1,0.3,0.05,14,0,0.3845,,,,,,238,0,238,0,1,,,,,
,,169964,001,2023-07-24_22h06.02.889,arm3_eps,2022.2.5,Win32,144.4460494,610284a1a38509a6059d1bc9,64aea9d0f615b6559c281482,64becb70970bdff9d47ede90,right,-1,0.3,0.05,14,-0.015041324,0.7669,,,,,,239,0,239,0,1,,,,,
,,169964,001,2023-07-24_22h06.02.889,arm3_eps,2022.2.5,Win32,144.4460494,610284a1a38509a6059d1bc9,64aea9d0f615b6559c281482,64becb70970bdff9d47ede90,right,-1,0.3,0.05,14,-0.026663953,0.3176,,,,,,240,0,240,0,1,,,,,
,,169964,001,2023-07-24_22h06.02.889,arm3_eps,2022.2.5,Win32,144.4460494,610284a1a38509a6059d1bc9,64aea9d0f615b6559c281482,64becb70970bdff9d47ede90,right,-1,0.3,0.05,14,-0.028757356,0.3502,,,,,,241,0,241,0,1,,,,,
,,169964,001,2023-07-24_22h06.02.889,arm3_eps,2022.2.5,Win32,144.4460494,610284a1a38509a6059d1bc9,64aea9d0f615b6559c281482,64becb70970bdff9d47ede90,right,-1,0.3,0.05,14,-0.038621892,0.3166,,,,,,242,0,242,0,1,,,,,
,,169964,001,2023-07-24_22h06.02.889,arm3_eps,2022.2.5,Win32,144.4460494,610284a1a38509a6059d1bc9,64aea9d0f615b6559c281482,64becb70970bdff9d47ede90,right,-1,0.3,0.05,14,-0.028183195,0.3167,,,,,,243,0,243,0,1,,,,,
,,169964,001,2023-07-24_22h06.02.889,arm3_eps,2022.2.5,Win32,144.4460494,610284a1a38509a6059d1bc9,64aea9d0f615b6559c281482,64becb70970bdff9d47ede90,right,-1,0.3,0.05,14,-0.048528709,0.3512,,,,,,244,0,244,0,1,,,,,
,,169964,001,2023-07-24_22h06.02.889,arm3_eps,2022.2.5,Win32,144.4460494,610284a1a38509a6059d1bc9,64aea9d0f615b6559c281482,64becb70970bdff9d47ede90,down,-1,0.3,0.05,14,0,0.4671,,,,,,245,0,245,0,1,,,,,
,,169964,001,2023-07-24_22h06.02.889,arm3_eps,2022.2.5,Win32,144.4460494,610284a1a38509a6059d1bc9,64aea9d0f615b6559c281482,64becb70970bdff9d47ede90,right,-1,0.3,0.05,14,-0.030390638,0.868,,,,,,246,0,246,0,1,,,,,
,,169964,001,2023-07-24_22h06.02.889,arm3_eps,2022.2.5,Win32,144.4460494,610284a1a38509a6059d1bc9,64aea9d0f615b6559c281482,64becb70970bdff9d47ede90,right,-1,0.3,0.05,14,-0.032035371,0.3337,,,,,,247,0,247,0,1,,,,,
,,169964,001,2023-07-24_22h06.02.889,arm3_eps,2022.2.5,Win32,144.4460494,610284a1a38509a6059d1bc9,64aea9d0f615b6559c281482,64becb70970bdff9d47ede90,down,-1,0.3,0.05,14,0,0.2176,,,,,,248,0,248,0,1,,,,,
,,169964,001,2023-07-24_22h06.02.889,arm3_eps,2022.2.5,Win32,144.4460494,610284a1a38509a6059d1bc9,64aea9d0f615b6559c281482,64becb70970bdff9d47ede90,right,-1,0.3,0.05,14,-0.004970454,0.918,,,,,,249,0,249,0,1,,,,,
,,169964,001,2023-07-24_22h06.02.889,arm3_eps,2022.2.5,Win32,144.4460494,610284a1a38509a6059d1bc9,64aea9d0f615b6559c281482,64becb70970bdff9d47ede90,right,-1,0.3,0.05,14,-0.008604719,0.3507,,,,,,250,0,250,0,1,,,,,
,,169964,001,2023-07-24_22h06.02.889,arm3_eps,2022.2.5,Win32,144.4460494,610284a1a38509a6059d1bc9,64aea9d0f615b6559c281482,64becb70970bdff9d47ede90,right,-1,0.3,0.05,14,-0.043429985,0.317,,,,,,251,0,251,0,1,,,,,
,,169964,001,2023-07-24_22h06.02.889,arm3_eps,2022.2.5,Win32,144.4460494,610284a1a38509a6059d1bc9,64aea9d0f615b6559c281482,64becb70970bdff9d47ede90,right,-1,0.3,0.05,14,-0.073215571,0.2675,,,,,,252,0,252,0,1,,,,,
,,169964,001,2023-07-24_22h06.02.889,arm3_eps,2022.2.5,Win32,144.4460494,610284a1a38509a6059d1bc9,64aea9d0f615b6559c281482,64becb70970bdff9d47ede90,down,-1,0.3,0.05,14,0,0.3167,,,,,,253,0,253,0,1,,,,,
,,169964,001,2023-07-24_22h06.02.889,arm3_eps,2022.2.5,Win32,144.4460494,610284a1a38509a6059d1bc9,64aea9d0f615b6559c281482,64becb70970bdff9d47ede90,right,-1,0.3,0.05,14,0.000315666,0.718,,,,,,254,0,254,0,1,,,,,
,,169964,001,2023-07-24_22h06.02.889,arm3_eps,2022.2.5,Win32,144.4460494,610284a1a38509a6059d1bc9,64aea9d0f615b6559c281482,64becb70970bdff9d47ede90,right,-1,0.3,0.05,14,-0.018577306,0.3033,,,,,,255,0,255,0,1,,,,,
,,169964,001,2023-07-24_22h06.02.889,arm3_eps,2022.2.5,Win32,144.4460494,610284a1a38509a6059d1bc9,64aea9d0f615b6559c281482,64becb70970bdff9d47ede90,right,-1,0.3,0.05,14,-0.034498729,0.3339,,,,,,256,0,256,0,1,,,,,
,,169964,001,2023-07-24_22h06.02.889,arm3_eps,2022.2.5,Win32,144.4460494,610284a1a38509a6059d1bc9,64aea9d0f615b6559c281482,64becb70970bdff9d47ede90,right,-1,0.3,0.05,14,-0.033204141,0.3331,,,,,,257,0,257,0,1,,,,,
,,169964,001,2023-07-24_22h06.02.889,arm3_eps,2022.2.5,Win32,144.4460494,610284a1a38509a6059d1bc9,64aea9d0f615b6559c281482,64becb70970bdff9d47ede90,right,-1,0.3,0.05,14,-0.043372815,0.2839,,,,,,258,0,258,0,1,,,,,
,,169964,001,2023-07-24_22h06.02.889,arm3_eps,2022.2.5,Win32,144.4460494,610284a1a38509a6059d1bc9,64aea9d0f615b6559c281482,64becb70970bdff9d47ede90,right,-1,0.3,0.05,14,-0.040813909,0.2841,,,,,,259,0,259,0,1,,,,,
,,169964,001,2023-07-24_22h06.02.889,arm3_eps,2022.2.5,Win32,144.4460494,610284a1a38509a6059d1bc9,64aea9d0f615b6559c281482,64becb70970bdff9d47ede90,down,-1,0.3,0.05,15,0,0.8346,,,,,,260,0,260,0,1,,,,,
,,169964,001,2023-07-24_22h06.02.889,arm3_eps,2022.2.5,Win32,144.4460494,610284a1a38509a6059d1bc9,64aea9d0f615b6559c281482,64becb70970bdff9d47ede90,right,-1,0.3,0.05,15,0.01003458,0.7675,,,,,,261,0,261,0,1,,,,,
,,169964,001,2023-07-24_22h06.02.889,arm3_eps,2022.2.5,Win32,144.4460494,610284a1a38509a6059d1bc9,64aea9d0f615b6559c281482,64becb70970bdff9d47ede90,right,-1,0.3,0.05,15,-0.013511022,0.3334,,,,,,262,0,262,0,1,,,,,
,,169964,001,2023-07-24_22h06.02.889,arm3_eps,2022.2.5,Win32,144.4460494,610284a1a38509a6059d1bc9,64aea9d0f615b6559c281482,64becb70970bdff9d47ede90,right,-1,0.3,0.05,15,0.010632725,0.3001,,,,,,263,0,263,0,1,,,,,
,,169964,001,2023-07-24_22h06.02.889,arm3_eps,2022.2.5,Win32,144.4460494,610284a1a38509a6059d1bc9,64aea9d0f615b6559c281482,64becb70970bdff9d47ede90,right,-1,0.3,0.05,15,-0.027078322,0.2833,,,,,,264,0,264,0,1,,,,,
,,169964,001,2023-07-24_22h06.02.889,arm3_eps,2022.2.5,Win32,144.4460494,610284a1a38509a6059d1bc9,64aea9d0f615b6559c281482,64becb70970bdff9d47ede90,right,-1,0.3,0.05,15,-0.052556922,0.3346,,,,,,265,0,265,0,1,,,,,
,,169964,001,2023-07-24_22h06.02.889,arm3_eps,2022.2.5,Win32,144.4460494,610284a1a38509a6059d1bc9,64aea9d0f615b6559c281482,64becb70970bdff9d47ede90,right,-1,0.3,0.05,15,-0.069596217,0.2997,,,,,,266,0,266,0,1,,,,,
,,169964,001,2023-07-24_22h06.02.889,arm3_eps,2022.2.5,Win32,144.4460494,610284a1a38509a6059d1bc9,64aea9d0f615b6559c281482,64becb70970bdff9d47ede90,right,-1,0.3,0.05,15,-0.073570835,0.3836,,,,,,267,0,267,0,1,,,,,
,,169964,001,2023-07-24_22h06.02.889,arm3_eps,2022.2.5,Win32,144.4460494,610284a1a38509a6059d1bc9,64aea9d0f615b6559c281482,64becb70970bdff9d47ede90,down,-1,0.3,0.05,15,0,0.3508,,,,,,268,0,268,0,1,,,,,
,,169964,001,2023-07-24_22h06.02.889,arm3_eps,2022.2.5,Win32,144.4460494,610284a1a38509a6059d1bc9,64aea9d0f615b6559c281482,64becb70970bdff9d47ede90,right,-1,0.3,0.05,15,0.007029041,0.8005,,,,,,269,0,269,0,1,,,,,
,,169964,001,2023-07-24_22h06.02.889,arm3_eps,2022.2.5,Win32,144.4460494,610284a1a38509a6059d1bc9,64aea9d0f615b6559c281482,64becb70970bdff9d47ede90,right,-1,0.3,0.05,15,-0.009536915,0.3509,,,,,,270,0,270,0,1,,,,,
,,169964,001,2023-07-24_22h06.02.889,arm3_eps,2022.2.5,Win32,144.4460494,610284a1a38509a6059d1bc9,64aea9d0f615b6559c281482,64becb70970bdff9d47ede90,right,-1,0.3,0.05,15,-0.040361991,0.3337,,,,,,271,0,271,0,1,,,,,
,,169964,001,2023-07-24_22h06.02.889,arm3_eps,2022.2.5,Win32,144.4460494,610284a1a38509a6059d1bc9,64aea9d0f615b6559c281482,64becb70970bdff9d47ede90,right,-1,0.3,0.05,15,-0.06517075,0.3843,,,,,,272,0,272,0,1,,,,,
,,169964,001,2023-07-24_22h06.02.889,arm3_eps,2022.2.5,Win32,144.4460494,610284a1a38509a6059d1bc9,64aea9d0f615b6559c281482,64becb70970bdff9d47ede90,right,-1,0.3,0.05,15,-0.056403228,0.3678,,,,,,273,0,273,0,1,,,,,
,,169964,001,2023-07-24_22h06.02.889,arm3_eps,2022.2.5,Win32,144.4460494,610284a1a38509a6059d1bc9,64aea9d0f615b6559c281482,64becb70970bdff9d47ede90,right,-1,0.3,0.05,15,-0.068651563,0.2984,,,,,,274,0,274,0,1,,,,,
,,169964,001,2023-07-24_22h06.02.889,arm3_eps,2022.2.5,Win32,144.4460494,610284a1a38509a6059d1bc9,64aea9d0f615b6559c281482,64becb70970bdff9d47ede90,down,-1,0.3,0.05,15,0,0.5344,,,,,,275,0,275,0,1,,,,,
,,169964,001,2023-07-24_22h06.02.889,arm3_eps,2022.2.5,Win32,144.4460494,610284a1a38509a6059d1bc9,64aea9d0f615b6559c281482,64becb70970bdff9d47ede90,right,-1,0.3,0.05,15,-0.009131421,1.0515,,,,,,276,0,276,0,1,,,,,
,,169964,001,2023-07-24_22h06.02.889,arm3_eps,2022.2.5,Win32,144.4460494,610284a1a38509a6059d1bc9,64aea9d0f615b6559c281482,64becb70970bdff9d47ede90,right,-1,0.3,0.05,15,-0.013751606,0.3153,,,,,,277,0,277,0,1,,,,,
,,169964,001,2023-07-24_22h06.02.889,arm3_eps,2022.2.5,Win32,144.4460494,610284a1a38509a6059d1bc9,64aea9d0f615b6559c281482,64becb70970bdff9d47ede90,right,-1,0.3,0.05,15,-0.02483272,0.3174,,,,,,278,0,278,0,1,,,,,
,,169964,001,2023-07-24_22h06.02.889,arm3_eps,2022.2.5,Win32,144.4460494,610284a1a38509a6059d1bc9,64aea9d0f615b6559c281482,64becb70970bdff9d47ede90,right,-1,0.3,0.05,15,-0.005646714,0.3509,,,,,,279,0,279,0,1,,,,,
,,169964,001,2023-07-24_22h06.02.889,arm3_eps,2022.2.5,Win32,144.4460494,610284a1a38509a6059d1bc9,64aea9d0f615b6559c281482,64becb70970bdff9d47ede90,right,-1,0.3,0.05,15,-0.01907821,0.3337,,,,,,280,0,280,0,1,,,,,
,,169964,001,2023-07-24_22h06.02.889,arm3_eps,2022.2.5,Win32,144.4460494,610284a1a38509a6059d1bc9,64aea9d0f615b6559c281482,64becb70970bdff9d47ede90,right,-1,0.3,0.05,15,-0.031341336,0.3341,,,,,,281,0,281,0,1,,,,,
,,169964,001,2023-07-24_22h06.02.889,arm3_eps,2022.2.5,Win32,144.4460494,610284a1a38509a6059d1bc9,64aea9d0f615b6559c281482,64becb70970bdff9d47ede90,right,-1,0.3,0.05,15,-0.061763526,0.3343,,,,,,282,0,282,0,1,,,,,
,,169964,001,2023-07-24_22h06.02.889,arm3_eps,2022.2.5,Win32,144.4460494,610284a1a38509a6059d1bc9,64aea9d0f615b6559c281482,64becb70970bdff9d47ede90,right,-1,0.3,0.05,15,-0.075180275,0.4338,,,,,,283,0,283,0,1,,,,,
,,169964,001,2023-07-24_22h06.02.889,arm3_eps,2022.2.5,Win32,144.4460494,610284a1a38509a6059d1bc9,64aea9d0f615b6559c281482,64becb70970bdff9d47ede90,down,-1,0.3,0.05,15,0,0.4517,,,,,,284,0,284,0,1,,,,,
,,169964,001,2023-07-24_22h06.02.889,arm3_eps,2022.2.5,Win32,144.4460494,610284a1a38509a6059d1bc9,64aea9d0f615b6559c281482,64becb70970bdff9d47ede90,right,-1,0.3,0.05,15,0.009199813,0.8348,,,,,,285,0,285,0,1,,,,,
,,169964,001,2023-07-24_22h06.02.889,arm3_eps,2022.2.5,Win32,144.4460494,610284a1a38509a6059d1bc9,64aea9d0f615b6559c281482,64becb70970bdff9d47ede90,up,-1,0.3,0.05,14,0,0.4507,,,,,,286,0,286,0,1,,,,,
,,169964,001,2023-07-24_22h06.02.889,arm3_eps,2022.2.5,Win32,144.4460494,610284a1a38509a6059d1bc9,64aea9d0f615b6559c281482,64becb70970bdff9d47ede90,right,-1,0.3,0.05,14,0.003738894,0.9336,,,,,,287,0,287,0,1,,,,,
,,169964,001,2023-07-24_22h06.02.889,arm3_eps,2022.2.5,Win32,144.4460494,610284a1a38509a6059d1bc9,64aea9d0f615b6559c281482,64becb70970bdff9d47ede90,right,-1,0.3,0.05,14,-0.038997509,0.3173,,,,,,288,0,288,0,1,,,,,
,,169964,001,2023-07-24_22h06.02.889,arm3_eps,2022.2.5,Win32,144.4460494,610284a1a38509a6059d1bc9,64aea9d0f615b6559c281482,64becb70970bdff9d47ede90,right,-1,0.3,0.05,14,-0.004255185,0.3497,,,,,,289,0,289,0,1,,,,,
,,169964,001,2023-07-24_22h06.02.889,arm3_eps,2022.2.5,Win32,144.4460494,610284a1a38509a6059d1bc9,64aea9d0f615b6559c281482,64becb70970bdff9d47ede90,right,-1,0.3,0.05,14,-0.020692258,0.2985,,,,,,290,0,290,0,1,,,,,
,,169964,001,2023-07-24_22h06.02.889,arm3_eps,2022.2.5,Win32,144.4460494,610284a1a38509a6059d1bc9,64aea9d0f615b6559c281482,64becb70970bdff9d47ede90,right,-1,0.3,0.05,14,-0.032931851,0.2674,,,,,,291,0,291,0,1,,,,,
,,169964,001,2023-07-24_22h06.02.889,arm3_eps,2022.2.5,Win32,144.4460494,610284a1a38509a6059d1bc9,64aea9d0f615b6559c281482,64becb70970bdff9d47ede90,right,-1,0.3,0.05,14,-0.043316471,0.3172,,,,,,292,0,292,0,1,,,,,
,,169964,001,2023-07-24_22h06.02.889,arm3_eps,2022.2.5,Win32,144.4460494,610284a1a38509a6059d1bc9,64aea9d0f615b6559c281482,64becb70970bdff9d47ede90,right,-1,0.3,0.05,14,-0.065158837,0.5173,,,,,,293,0,293,0,1,,,,,
,,169964,001,2023-07-24_22h06.02.889,arm3_eps,2022.2.5,Win32,144.4460494,610284a1a38509a6059d1bc9,64aea9d0f615b6559c281482,64becb70970bdff9d47ede90,down,-1,0.3,0.05,15,0,0.4178,,,,,,294,0,294,0,1,,,,,
,,169964,001,2023-07-24_22h06.02.889,arm3_eps,2022.2.5,Win32,144.4460494,610284a1a38509a6059d1bc9,64aea9d0f615b6559c281482,64becb70970bdff9d47ede90,right,-1,0.3,0.05,15,0.002019962,0.7515,,,,,,295,0,295,0,1,,,,,
,,169964,001,2023-07-24_22h06.02.889,arm3_eps,2022.2.5,Win32,144.4460494,610284a1a38509a6059d1bc9,64aea9d0f615b6559c281482,64becb70970bdff9d47ede90,right,-1,0.3,0.05,15,-0.00745956,0.3166,,,,,,296,0,296,0,1,,,,,
,,169964,001,2023-07-24_22h06.02.889,arm3_eps,2022.2.5,Win32,144.4460494,610284a1a38509a6059d1bc9,64aea9d0f615b6559c281482,64becb70970bdff9d47ede90,right,-1,0.3,0.05,15,-0.030114776,0.3507,,,,,,297,0,297,0,1,,,,,
,,169964,001,2023-07-24_22h06.02.889,arm3_eps,2022.2.5,Win32,144.4460494,610284a1a38509a6059d1bc9,64aea9d0f615b6559c281482,64becb70970bdff9d47ede90,right,-1,0.3,0.05,15,-0.027741651,0.4339,,,,,,298,0,298,0,1,,,,,
,,169964,001,2023-07-24_22h06.02.889,arm3_eps,2022.2.5,Win32,144.4460494,610284a1a38509a6059d1bc9,64aea9d0f615b6559c281482,64becb70970bdff9d47ede90,right,-1,0.3,0.05,15,-0.0271089,0.3041,,,,,,299,0,299,0,1,,,,,
,,169964,001,2023-07-24_22h06.02.889,arm3_eps,2022.2.5,Win32,144.4460494,610284a1a38509a6059d1bc9,64aea9d0f615b6559c281482,64becb70970bdff9d47ede90,right,-1,0.3,0.05,15,-0.053818844,0.3505,,,,,,300,0,300,0,1,,,,,
,,169964,001,2023-07-24_22h06.02.889,arm3_eps,2022.2.5,Win32,144.4460494,610284a1a38509a6059d1bc9,64aea9d0f615b6559c281482,64becb70970bdff9d47ede90,down,-1,0.3,0.05,15,0,0.3513,,,,,,301,0,301,0,1,,,,,
,,169964,001,2023-07-24_22h06.02.889,arm3_eps,2022.2.5,Win32,144.4460494,610284a1a38509a6059d1bc9,64aea9d0f615b6559c281482,64becb70970bdff9d47ede90,right,-1,0.3,0.05,15,-0.010402804,0.8343,,,,,,302,0,302,0,1,,,,,
,,169964,001,2023-07-24_22h06.02.889,arm3_eps,2022.2.5,Win32,144.4460494,610284a1a38509a6059d1bc9,64aea9d0f615b6559c281482,64becb70970bdff9d47ede90,right,-1,0.3,0.05,15,-0.027004842,0.3175,,,,,,303,0,303,0,1,,,,,
,,169964,001,2023-07-24_22h06.02.889,arm3_eps,2022.2.5,Win32,144.4460494,610284a1a38509a6059d1bc9,64aea9d0f615b6559c281482,64becb70970bdff9d47ede90,right,-1,0.3,0.05,15,-0.045585916,0.3831,,,,,,304,0,304,0,1,,,,,
,,169964,001,2023-07-24_22h06.02.889,arm3_eps,2022.2.5,Win32,144.4460494,610284a1a38509a6059d1bc9,64aea9d0f615b6559c281482,64becb70970bdff9d47ede90,right,-1,0.3,0.05,15,-0.03980801,0.3375,,,,,,305,0,305,0,1,,,,,
,,169964,001,2023-07-24_22h06.02.889,arm3_eps,2022.2.5,Win32,144.4460494,610284a1a38509a6059d1bc9,64aea9d0f615b6559c281482,64becb70970bdff9d47ede90,right,-1,0.3,0.05,15,-0.032781348,0.2838,,,,,,306,0,306,0,1,,,,,
,,169964,001,2023-07-24_22h06.02.889,arm3_eps,2022.2.5,Win32,144.4460494,610284a1a38509a6059d1bc9,64aea9d0f615b6559c281482,64becb70970bdff9d47ede90,right,-1,0.3,0.05,15,-0.052227878,0.3339,,,,,,307,0,307,0,1,,,,,
,,169964,001,2023-07-24_22h06.02.889,arm3_eps,2022.2.5,Win32,144.4460494,610284a1a38509a6059d1bc9,64aea9d0f615b6559c281482,64becb70970bdff9d47ede90,down,-1,0.3,0.05,15,0,3.8195,,,,,,308,0,308,0,1,,,,,
,,169964,001,2023-07-24_22h06.02.889,arm3_eps,2022.2.5,Win32,144.4460494,610284a1a38509a6059d1bc9,64aea9d0f615b6559c281482,64becb70970bdff9d47ede90,right,-1,0.3,0.05,15,-0.009639654,0.8845,,,,,,309,0,309,0,1,,,,,
,,169964,001,2023-07-24_22h06.02.889,arm3_eps,2022.2.5,Win32,144.4460494,610284a1a38509a6059d1bc9,64aea9d0f615b6559c281482,64becb70970bdff9d47ede90,right,-1,0.3,0.05,15,0.002082829,0.3002,,,,,,310,0,310,0,1,,,,,
,,169964,001,2023-07-24_22h06.02.889,arm3_eps,2022.2.5,Win32,144.4460494,610284a1a38509a6059d1bc9,64aea9d0f615b6559c281482,64becb70970bdff9d47ede90,right,-1,0.3,0.05,15,-0.042675657,0.3177,,,,,,311,0,311,0,1,,,,,
,,169964,001,2023-07-24_22h06.02.889,arm3_eps,2022.2.5,Win32,144.4460494,610284a1a38509a6059d1bc9,64aea9d0f615b6559c281482,64becb70970bdff9d47ede90,right,-1,0.3,0.05,15,-0.02362774,0.3174,,,,,,312,0,312,0,1,,,,,
,,169964,001,2023-07-24_22h06.02.889,arm3_eps,2022.2.5,Win32,144.4460494,610284a1a38509a6059d1bc9,64aea9d0f615b6559c281482,64becb70970bdff9d47ede90,right,-1,0.3,0.05,15,-0.028579758,0.334,,,,,,313,0,313,0,1,,,,,
,,169964,001,2023-07-24_22h06.02.889,arm3_eps,2022.2.5,Win32,144.4460494,610284a1a38509a6059d1bc9,64aea9d0f615b6559c281482,64becb70970bdff9d47ede90,right,-1,0.3,0.05,15,-0.045843065,0.3338,,,,,,314,0,314,0,1,,,,,
,,169964,001,2023-07-24_22h06.02.889,arm3_eps,2022.2.5,Win32,144.4460494,610284a1a38509a6059d1bc9,64aea9d0f615b6559c281482,64becb70970bdff9d47ede90,down,-1,0.3,0.05,16,0,0.5009,,,,,,315,0,315,0,1,,,,,
,,169964,001,2023-07-24_22h06.02.889,arm3_eps,2022.2.5,Win32,144.4460494,610284a1a38509a6059d1bc9,64aea9d0f615b6559c281482,64becb70970bdff9d47ede90,right,-1,0.3,0.05,16,-0.018962827,0.8178,,,,,,316,0,316,0,1,,,,,
,,169964,001,2023-07-24_22h06.02.889,arm3_eps,2022.2.5,Win32,144.4460494,610284a1a38509a6059d1bc9,64aea9d0f615b6559c281482,64becb70970bdff9d47ede90,right,-1,0.3,0.05,16,-0.074559323,0.4174,,,,,,317,0,317,0,1,,,,,
,,169964,001,2023-07-24_22h06.02.889,arm3_eps,2022.2.5,Win32,144.4460494,610284a1a38509a6059d1bc9,64aea9d0f615b6559c281482,64becb70970bdff9d47ede90,down,1,0.3,0.05,16,0,0.2676,,,,,,318,0,318,0,1,,,,,
,,169964,001,2023-07-24_22h06.02.889,arm3_eps,2022.2.5,Win32,144.4460494,610284a1a38509a6059d1bc9,64aea9d0f615b6559c281482,64becb70970bdff9d47ede90,up,1,0.3,0.05,16,0,1.2011,,,,,,319,0,319,0,1,,,,,
,,169964,001,2023-07-24_22h06.02.889,arm3_eps,2022.2.5,Win32,144.4460494,610284a1a38509a6059d1bc9,64aea9d0f615b6559c281482,64becb70970bdff9d47ede90,right,1,0.3,0.05,16,0.036886028,0.8684,,,,,,320,0,320,0,1,,,,,
,,169964,001,2023-07-24_22h06.02.889,arm3_eps,2022.2.5,Win32,144.4460494,610284a1a38509a6059d1bc9,64aea9d0f615b6559c281482,64becb70970bdff9d47ede90,right,1,0.3,0.05,16,0.05073943,0.3005,,,,,,321,0,321,0,1,,,,,
,,169964,001,2023-07-24_22h06.02.889,arm3_eps,2022.2.5,Win32,144.4460494,610284a1a38509a6059d1bc9,64aea9d0f615b6559c281482,64becb70970bdff9d47ede90,right,1,0.3,0.05,16,0.058413446,0.2839,,,,,,322,0,322,0,1,,,,,
,,169964,001,2023-07-24_22h06.02.889,arm3_eps,2022.2.5,Win32,144.4460494,610284a1a38509a6059d1bc9,64aea9d0f615b6559c281482,64becb70970bdff9d47ede90,up,1,0.3,0.05,16,0,0.4509,,,,,,323,0,323,0,1,,,,,
,,169964,001,2023-07-24_22h06.02.889,arm3_eps,2022.2.5,Win32,144.4460494,610284a1a38509a6059d1bc9,64aea9d0f615b6559c281482,64becb70970bdff9d47ede90,right,1,0.3,0.05,16,-0.011253358,0.8179,,,,,,324,0,324,0,1,,,,,
,,169964,001,2023-07-24_22h06.02.889,arm3_eps,2022.2.5,Win32,144.4460494,610284a1a38509a6059d1bc9,64aea9d0f615b6559c281482,64becb70970bdff9d47ede90,right,1,0.3,0.05,16,0.005039311,0.3176,,,,,,325,0,325,0,1,,,,,
,,169964,001,2023-07-24_22h06.02.889,arm3_eps,2022.2.5,Win32,144.4460494,610284a1a38509a6059d1bc9,64aea9d0f615b6559c281482,64becb70970bdff9d47ede90,right,1,0.3,0.05,16,0.013752537,0.3505,,,,,,326,0,326,0,1,,,,,
,,169964,001,2023-07-24_22h06.02.889,arm3_eps,2022.2.5,Win32,144.4460494,610284a1a38509a6059d1bc9,64aea9d0f615b6559c281482,64becb70970bdff9d47ede90,right,1,0.3,0.05,16,0.012311104,0.3178,,,,,,327,0,327,0,1,,,,,
,,169964,001,2023-07-24_22h06.02.889,arm3_eps,2022.2.5,Win32,144.4460494,610284a1a38509a6059d1bc9,64aea9d0f615b6559c281482,64becb70970bdff9d47ede90,right,1,0.3,0.05,16,-0.00139057,0.3504,,,,,,328,0,328,0,1,,,,,
,,169964,001,2023-07-24_22h06.02.889,arm3_eps,2022.2.5,Win32,144.4460494,610284a1a38509a6059d1bc9,64aea9d0f615b6559c281482,64becb70970bdff9d47ede90,up,1,0.3,0.05,17,0,0.4842,,,,,,329,0,329,0,1,,,,,
,,169964,001,2023-07-24_22h06.02.889,arm3_eps,2022.2.5,Win32,144.4460494,610284a1a38509a6059d1bc9,64aea9d0f615b6559c281482,64becb70970bdff9d47ede90,right,1,0.3,0.05,17,0.008089818,0.8507,,,,,,330,0,330,0,1,,,,,
,,169964,001,2023-07-24_22h06.02.889,arm3_eps,2022.2.5,Win32,144.4460494,610284a1a38509a6059d1bc9,64aea9d0f615b6559c281482,64becb70970bdff9d47ede90,right,1,0.3,0.05,17,-0.023033408,0.3012,,,,,,331,0,331,0,1,,,,,
,,169964,001,2023-07-24_22h06.02.889,arm3_eps,2022.2.5,Win32,144.4460494,610284a1a38509a6059d1bc9,64aea9d0f615b6559c281482,64becb70970bdff9d47ede90,right,1,0.3,0.05,17,-0.022177183,0.3006,,,,,,332,0,332,0,1,,,,,
,,169964,001,2023-07-24_22h06.02.889,arm3_eps,2022.2.5,Win32,144.4460494,610284a1a38509a6059d1bc9,64aea9d0f615b6559c281482,64becb70970bdff9d47ede90,right,1,0.3,0.05,17,0.017953963,0.517,,,,,,333,0,333,0,1,,,,,
,,169964,001,2023-07-24_22h06.02.889,arm3_eps,2022.2.5,Win32,144.4460494,610284a1a38509a6059d1bc9,64aea9d0f615b6559c281482,64becb70970bdff9d47ede90,right,1,0.3,0.05,17,-0.003830084,0.2838,,,,,,334,0,334,0,1,,,,,
,,169964,001,2023-07-24_22h06.02.889,arm3_eps,2022.2.5,Win32,144.4460494,610284a1a38509a6059d1bc9,64aea9d0f615b6559c281482,64becb70970bdff9d47ede90,right,1,0.3,0.05,17,0.024715979,0.3844,,,,,,335,0,335,0,1,,,,,
,,169964,001,2023-07-24_22h06.02.889,arm3_eps,2022.2.5,Win32,144.4460494,610284a1a38509a6059d1bc9,64aea9d0f615b6559c281482,64becb70970bdff9d47ede90,up,1,0.3,0.05,17,0,0.3338,,,,,,336,0,336,0,1,,,,,
,,169964,001,2023-07-24_22h06.02.889,arm3_eps,2022.2.5,Win32,144.4460494,610284a1a38509a6059d1bc9,64aea9d0f615b6559c281482,64becb70970bdff9d47ede90,right,1,0.3,0.05,17,0.025690487,0.7346,,,,,,337,0,337,0,1,,,,,
,,169964,001,2023-07-24_22h06.02.889,arm3_eps,2022.2.5,Win32,144.4460494,610284a1a38509a6059d1bc9,64aea9d0f615b6559c281482,64becb70970bdff9d47ede90,right,1,0.3,0.05,17,0.039583122,0.3339,,,,,,338,0,338,0,1,,,,,
,,169964,001,2023-07-24_22h06.02.889,arm3_eps,2022.2.5,Win32,144.4460494,610284a1a38509a6059d1bc9,64aea9d0f615b6559c281482,64becb70970bdff9d47ede90,up,1,0.3,0.05,18,0,0.3486,,,,,,339,0,339,0,1,,,,,
,,169964,001,2023-07-24_22h06.02.889,arm3_eps,2022.2.5,Win32,144.4460494,610284a1a38509a6059d1bc9,64aea9d0f615b6559c281482,64becb70970bdff9d47ede90,right,1,0.3,0.05,18,2.39726E-05,0.8172,,,,,,340,0,340,0,1,,,,,
,,169964,001,2023-07-24_22h06.02.889,arm3_eps,2022.2.5,Win32,144.4460494,610284a1a38509a6059d1bc9,64aea9d0f615b6559c281482,64becb70970bdff9d47ede90,right,1,0.3,0.05,18,0.000844112,0.517,,,,,,341,0,341,0,1,,,,,
,,169964,001,2023-07-24_22h06.02.889,arm3_eps,2022.2.5,Win32,144.4460494,610284a1a38509a6059d1bc9,64aea9d0f615b6559c281482,64becb70970bdff9d47ede90,right,1,0.3,0.05,18,0.025662467,0.4675,,,,,,342,0,342,0,1,,,,,
,,169964,001,2023-07-24_22h06.02.889,arm3_eps,2022.2.5,Win32,144.4460494,610284a1a38509a6059d1bc9,64aea9d0f615b6559c281482,64becb70970bdff9d47ede90,right,1,0.3,0.05,18,0.027188931,0.3045,,,,,,343,0,343,0,1,,,,,
,,169964,001,2023-07-24_22h06.02.889,arm3_eps,2022.2.5,Win32,144.4460494,610284a1a38509a6059d1bc9,64aea9d0f615b6559c281482,64becb70970bdff9d47ede90,right,1,0.3,0.05,18,0.064965013,0.7004,,,,,,344,0,344,0,1,,,,,
,,169964,001,2023-07-24_22h06.02.889,arm3_eps,2022.2.5,Win32,144.4460494,610284a1a38509a6059d1bc9,64aea9d0f615b6559c281482,64becb70970bdff9d47ede90,up,1,0.3,0.05,19,0,0.6675,,,,,,345,0,345,0,1,,,,,
,,169964,001,2023-07-24_22h06.02.889,arm3_eps,2022.2.5,Win32,144.4460494,610284a1a38509a6059d1bc9,64aea9d0f615b6559c281482,64becb70970bdff9d47ede90,right,1,0.3,0.05,19,0.034379658,0.8509,,,,,,346,0,346,0,1,,,,,
,,169964,001,2023-07-24_22h06.02.889,arm3_eps,2022.2.5,Win32,144.4460494,610284a1a38509a6059d1bc9,64aea9d0f615b6559c281482,64becb70970bdff9d47ede90,right,1,0.3,0.05,19,0.057712984,0.3342,,,,,,347,0,347,0,1,,,,,
,,169964,001,2023-07-24_22h06.02.889,arm3_eps,2022.2.5,Win32,144.4460494,610284a1a38509a6059d1bc9,64aea9d0f615b6559c281482,64becb70970bdff9d47ede90,right,1,0.3,0.05,19,0.100894548,0.3175,,,,,,348,0,348,0,1,,,,,
,,169964,001,2023-07-24_22h06.02.889,arm3_eps,2022.2.5,Win32,144.4460494,610284a1a38509a6059d1bc9,64aea9d0f615b6559c281482,64becb70970bdff9d47ede90,up,1,0.3,0.05,19,0,0.3036,,,,,,349,0,349,0,1,,,,,
,,169964,001,2023-07-24_22h06.02.889,arm3_eps,2022.2.5,Win32,144.4460494,610284a1a38509a6059d1bc9,64aea9d0f615b6559c281482,64becb70970bdff9d47ede90,right,1,0.3,0.05,19,-0.001510061,0.8673,,,,,,350,0,350,0,1,,,,,
,,169964,001,2023-07-24_22h06.02.889,arm3_eps,2022.2.5,Win32,144.4460494,610284a1a38509a6059d1bc9,64aea9d0f615b6559c281482,64becb70970bdff9d47ede90,right,1,0.3,0.05,19,-0.003101675,0.3176,,,,,,351,0,351,0,1,,,,,
,,169964,001,2023-07-24_22h06.02.889,arm3_eps,2022.2.5,Win32,144.4460494,610284a1a38509a6059d1bc9,64aea9d0f615b6559c281482,64becb70970bdff9d47ede90,right,1,0.3,0.05,19,0.008527283,0.4007,,,,,,352,0,352,0,1,,,,,
,,169964,001,2023-07-24_22h06.02.889,arm3_eps,2022.2.5,Win32,144.4460494,610284a1a38509a6059d1bc9,64aea9d0f615b6559c281482,64becb70970bdff9d47ede90,right,1,0.3,0.05,19,0.017203934,0.3341,,,,,,353,0,353,0,1,,,,,
,,169964,001,2023-07-24_22h06.02.889,arm3_eps,2022.2.5,Win32,144.4460494,610284a1a38509a6059d1bc9,64aea9d0f615b6559c281482,64becb70970bdff9d47ede90,right,1,0.3,0.05,19,0.012438894,0.5505,,,,,,354,0,354,0,1,,,,,
,,169964,001,2023-07-24_22h06.02.889,arm3_eps,2022.2.5,Win32,144.4460494,610284a1a38509a6059d1bc9,64aea9d0f615b6559c281482,64becb70970bdff9d47ede90,right,1,0.3,0.05,19,0.021778682,0.3008,,,,,,355,0,355,0,1,,,,,
,,169964,001,2023-07-24_22h06.02.889,arm3_eps,2022.2.5,Win32,144.4460494,610284a1a38509a6059d1bc9,64aea9d0f615b6559c281482,64becb70970bdff9d47ede90,up,1,0.3,0.05,19,0,0.3678,,,,,,356,0,356,0,1,,,,,
,,169964,001,2023-07-24_22h06.02.889,arm3_eps,2022.2.5,Win32,144.4460494,610284a1a38509a6059d1bc9,64aea9d0f615b6559c281482,64becb70970bdff9d47ede90,right,1,0.3,0.05,19,0.02391906,0.7848,,,,,,357,0,357,0,1,,,,,
,,169964,001,2023-07-24_22h06.02.889,arm3_eps,2022.2.5,Win32,144.4460494,610284a1a38509a6059d1bc9,64aea9d0f615b6559c281482,64becb70970bdff9d47ede90,right,1,0.3,0.05,19,0.037468995,0.4338,,,,,,358,0,358,0,1,,,,,
,,169964,001,2023-07-24_22h06.02.889,arm3_eps,2022.2.5,Win32,144.4460494,610284a1a38509a6059d1bc9,64aea9d0f615b6559c281482,64becb70970bdff9d47ede90,up,1,0.3,0.05,20,0,0.4511,,,,,,359,0,359,0,1,,,,,
,,169964,001,2023-07-24_22h06.02.889,arm3_eps,2022.2.5,Win32,144.4460494,610284a1a38509a6059d1bc9,64aea9d0f615b6559c281482,64becb70970bdff9d47ede90,right,1,0.3,0.05,20,0.001638521,0.834,,,,,,360,0,360,0,1,,,,,
,,169964,001,2023-07-24_22h06.02.889,arm3_eps,2022.2.5,Win32,144.4460494,610284a1a38509a6059d1bc9,64aea9d0f615b6559c281482,64becb70970bdff9d47ede90,right,1,0.3,0.05,20,0.013787984,0.4003,,,,,,361,0,361,0,1,,,,,
,,169964,001,2023-07-24_22h06.02.889,arm3_eps,2022.2.5,Win32,144.4460494,610284a1a38509a6059d1bc9,64aea9d0f615b6559c281482,64becb70970bdff9d47ede90,right,1,0.3,0.05,20,-9.54306E-05,0.2669,,,,,,362,0,362,0,1,,,,,
,,169964,001,2023-07-24_22h06.02.889,arm3_eps,2022.2.5,Win32,144.4460494,610284a1a38509a6059d1bc9,64aea9d0f615b6559c281482,64becb70970bdff9d47ede90,right,1,0.3,0.05,20,0.028193886,0.5177,,,,,,363,0,363,0,1,,,,,
,,169964,001,2023-07-24_22h06.02.889,arm3_eps,2022.2.5,Win32,144.4460494,610284a1a38509a6059d1bc9,64aea9d0f615b6559c281482,64becb70970bdff9d47ede90,right,1,0.3,0.05,20,0.039796858,0.3341,,,,,,364,0,364,0,1,,,,,
,,169964,001,2023-07-24_22h06.02.889,arm3_eps,2022.2.5,Win32,144.4460494,610284a1a38509a6059d1bc9,64aea9d0f615b6559c281482,64becb70970bdff9d47ede90,up,1,0.3,0.05,20,0,0.7671,,,,,,365,0,365,0,1,,,,,
,,169964,001,2023-07-24_22h06.02.889,arm3_eps,2022.2.5,Win32,144.4460494,610284a1a38509a6059d1bc9,64aea9d0f615b6559c281482,64becb70970bdff9d47ede90,right,1,0.3,0.05,20,0.021090485,0.7848,,,,,,366,0,366,0,1,,,,,
,,169964,001,2023-07-24_22h06.02.889,arm3_eps,2022.2.5,Win32,144.4460494,610284a1a38509a6059d1bc9,64aea9d0f615b6559c281482,64becb70970bdff9d47ede90,right,1,0.3,0.05,20,0.019593516,0.4346,,,,,,367,0,367,0,1,,,,,
,,169964,001,2023-07-24_22h06.02.889,arm3_eps,2022.2.5,Win32,144.4460494,610284a1a38509a6059d1bc9,64aea9d0f615b6559c281482,64becb70970bdff9d47ede90,right,1,0.3,0.05,20,0.027350825,0.4178,,,,,,368,0,368,0,1,,,,,
,,169964,001,2023-07-24_22h06.02.889,arm3_eps,2022.2.5,Win32,144.4460494,610284a1a38509a6059d1bc9,64aea9d0f615b6559c281482,64becb70970bdff9d47ede90,right,1,0.3,0.05,20,0.033714273,0.3174,,,,,,369,0,369,0,1,,,,,
,,169964,001,2023-07-24_22h06.02.889,arm3_eps,2022.2.5,Win32,144.4460494,610284a1a38509a6059d1bc9,64aea9d0f615b6559c281482,64becb70970bdff9d47ede90,,,,,,,,,,,,,,,,,,0,0,0,0,1
space,4.5204,169964,001,2023-07-24_22h06.02.889,arm3_eps,2022.2.5,Win32,144.4460494,610284a1a38509a6059d1bc9,64aea9d0f615b6559c281482,64becb70970bdff9d47ede90,right,1,0.3,0.1143,20,0.016204017,1.0174,,,,,,0,0,0,0,1,,,,,
,,169964,001,2023-07-24_22h06.02.889,arm3_eps,2022.2.5,Win32,144.4460494,610284a1a38509a6059d1bc9,64aea9d0f615b6559c281482,64becb70970bdff9d47ede90,right,1,0.3,0.1143,20,0.002926733,0.3172,,,,,,1,0,1,0,1,,,,,
,,169964,001,2023-07-24_22h06.02.889,arm3_eps,2022.2.5,Win32,144.4460494,610284a1a38509a6059d1bc9,64aea9d0f615b6559c281482,64becb70970bdff9d47ede90,right,1,0.3,0.1143,20,-0.029518968,0.8349,,,,,,2,0,2,0,1,,,,,
,,169964,001,2023-07-24_22h06.02.889,arm3_eps,2022.2.5,Win32,144.4460494,610284a1a38509a6059d1bc9,64aea9d0f615b6559c281482,64becb70970bdff9d47ede90,up,1,0.3,0.1143,20,0,0.5171,,,,,,3,0,3,0,1,,,,,
,,169964,001,2023-07-24_22h06.02.889,arm3_eps,2022.2.5,Win32,144.4460494,610284a1a38509a6059d1bc9,64aea9d0f615b6559c281482,64becb70970bdff9d47ede90,right,1,0.3,0.1143,20,-0.008763185,0.9014,,,,,,4,0,4,0,1,,,,,
,,169964,001,2023-07-24_22h06.02.889,arm3_eps,2022.2.5,Win32,144.4460494,610284a1a38509a6059d1bc9,64aea9d0f615b6559c281482,64becb70970bdff9d47ede90,right,1,0.3,0.1143,20,0.021498351,0.2838,,,,,,5,0,5,0,1,,,,,
,,169964,001,2023-07-24_22h06.02.889,arm3_eps,2022.2.5,Win32,144.4460494,610284a1a38509a6059d1bc9,64aea9d0f615b6559c281482,64becb70970bdff9d47ede90,right,1,0.3,0.1143,20,0.037042921,0.2839,,,,,,6,0,6,0,1,,,,,
,,169964,001,2023-07-24_22h06.02.889,arm3_eps,2022.2.5,Win32,144.4460494,610284a1a38509a6059d1bc9,64aea9d0f615b6559c281482,64becb70970bdff9d47ede90,right,1,0.3,0.1143,20,0.061444506,0.284,,,,,,7,0,7,0,1,,,,,
,,169964,001,2023-07-24_22h06.02.889,arm3_eps,2022.2.5,Win32,144.4460494,610284a1a38509a6059d1bc9,64aea9d0f615b6559c281482,64becb70970bdff9d47ede90,right,1,0.3,0.1143,20,0.053643677,0.2999,,,,,,8,0,8,0,1,,,,,
,,169964,001,2023-07-24_22h06.02.889,arm3_eps,2022.2.5,Win32,144.4460494,610284a1a38509a6059d1bc9,64aea9d0f615b6559c281482,64becb70970bdff9d47ede90,right,1,0.3,0.1143,20,0.052800178,0.3499,,,,,,9,0,9,0,1,,,,,
,,169964,001,2023-07-24_22h06.02.889,arm3_eps,2022.2.5,Win32,144.4460494,610284a1a38509a6059d1bc9,64aea9d0f615b6559c281482,64becb70970bdff9d47ede90,up,-1,0.3,0.1143,20,0,0.3334,,,,,,10,0,10,0,1,,,,,
,,169964,001,2023-07-24_22h06.02.889,arm3_eps,2022.2.5,Win32,144.4460494,610284a1a38509a6059d1bc9,64aea9d0f615b6559c281482,64becb70970bdff9d47ede90,right,-1,0.3,0.1143,20,0.012676227,0.5002,,,,,,11,0,11,0,1,,,,,
,,169964,001,2023-07-24_22h06.02.889,arm3_eps,2022.2.5,Win32,144.4460494,610284a1a38509a6059d1bc9,64aea9d0f615b6559c281482,64becb70970bdff9d47ede90,right,-1,0.3,0.1143,20,0.008430679,0.3504,,,,,,12,0,12,0,1,,,,,
,,169964,001,2023-07-24_22h06.02.889,arm3_eps,2022.2.5,Win32,144.4460494,610284a1a38509a6059d1bc9,64aea9d0f615b6559c281482,64becb70970bdff9d47ede90,right,-1,0.3,0.1143,20,-0.022574253,0.25,,,,,,13,0,13,0,1,,,,,
,,169964,001,2023-07-24_22h06.02.889,arm3_eps,2022.2.5,Win32,144.4460494,610284a1a38509a6059d1bc9,64aea9d0f615b6559c281482,64becb70970bdff9d47ede90,right,-1,0.3,0.1143,20,-0.05234141,0.3005,,,,,,14,0,14,0,1,,,,,
,,169964,001,2023-07-24_22h06.02.889,arm3_eps,2022.2.5,Win32,144.4460494,610284a1a38509a6059d1bc9,64aea9d0f615b6559c281482,64becb70970bdff9d47ede90,right,-1,0.3,0.1143,20,-0.065658192,0.2666,,,,,,15,0,15,0,1,,,,,
,,169964,001,2023-07-24_22h06.02.889,arm3_eps,2022.2.5,Win32,144.4460494,610284a1a38509a6059d1bc9,64aea9d0f615b6559c281482,64becb70970bdff9d47ede90,down,-1,0.3,0.1143,20,0,0.3011,,,,,,16,0,16,0,1,,,,,
,,169964,001,2023-07-24_22h06.02.889,arm3_eps,2022.2.5,Win32,144.4460494,610284a1a38509a6059d1bc9,64aea9d0f615b6559c281482,64becb70970bdff9d47ede90,right,-1,0.3,0.1143,20,0.011291727,0.7676,,,,,,17,0,17,0,1,,,,,
,,169964,001,2023-07-24_22h06.02.889,arm3_eps,2022.2.5,Win32,144.4460494,610284a1a38509a6059d1bc9,64aea9d0f615b6559c281482,64becb70970bdff9d47ede90,right,-1,0.3,0.1143,20,0.036758207,0.3516,,,,,,18,0,18,0,1,,,,,
,,169964,001,2023-07-24_22h06.02.889,arm3_eps,2022.2.5,Win32,144.4460494,610284a1a38509a6059d1bc9,64aea9d0f615b6559c281482,64becb70970bdff9d47ede90,right,-1,0.3,0.1143,20,0.029829943,0.267,,,,,,19,0,19,0,1,,,,,
,,169964,001,2023-07-24_22h06.02.889,arm3_eps,2022.2.5,Win32,144.4460494,610284a1a38509a6059d1bc9,64aea9d0f615b6559c281482,64becb70970bdff9d47ede90,right,-1,0.3,0.1143,20,0.035673758,0.284,,,,,,20,0,20,0,1,,,,,
,,169964,001,2023-07-24_22h06.02.889,arm3_eps,2022.2.5,Win32,144.4460494,610284a1a38509a6059d1bc9,64aea9d0f615b6559c281482,64becb70970bdff9d47ede90,right,-1,0.3,0.1143,20,0.031725611,0.2837,,,,,,21,0,21,0,1,,,,,
,,169964,001,2023-07-24_22h06.02.889,arm3_eps,2022.2.5,Win32,144.4460494,610284a1a38509a6059d1bc9,64aea9d0f615b6559c281482,64becb70970bdff9d47ede90,up,-1,0.3,0.1143,20,0,0.3006,,,,,,22,0,22,0,1,,,,,
,,169964,001,2023-07-24_22h06.02.889,arm3_eps,2022.2.5,Win32,144.4460494,610284a1a38509a6059d1bc9,64aea9d0f615b6559c281482,64becb70970bdff9d47ede90,right,-1,0.3,0.1143,20,-0.009550003,0.8178,,,,,,23,0,23,0,1,,,,,
,,169964,001,2023-07-24_22h06.02.889,arm3_eps,2022.2.5,Win32,144.4460494,610284a1a38509a6059d1bc9,64aea9d0f615b6559c281482,64becb70970bdff9d47ede90,right,-1,0.3,0.1143,20,-0.014965037,0.3169,,,,,,24,0,24,0,1,,,,,
,,169964,001,2023-07-24_22h06.02.889,arm3_eps,2022.2.5,Win32,144.4460494,610284a1a38509a6059d1bc9,64aea9d0f615b6559c281482,64becb70970bdff9d47ede90,right,-1,0.3,0.1143,20,-0.025341225,0.2841,,,,,,25,0,25,0,1,,,,,
,,169964,001,2023-07-24_22h06.02.889,arm3_eps,2022.2.5,Win32,144.4460494,610284a1a38509a6059d1bc9,64aea9d0f615b6559c281482,64becb70970bdff9d47ede90,right,-1,0.3,0.1143,20,-0.005749384,0.3675,,,,,,26,0,26,0,1,,,,,
,,169964,001,2023-07-24_22h06.02.889,arm3_eps,2022.2.5,Win32,144.4460494,610284a1a38509a6059d1bc9,64aea9d0f615b6559c281482,64becb70970bdff9d47ede90,right,-1,0.3,0.1143,20,-0.006657727,0.3171,,,,,,27,0,27,0,1,,,,,
,,169964,001,2023-07-24_22h06.02.889,arm3_eps,2022.2.5,Win32,144.4460494,610284a1a38509a6059d1bc9,64aea9d0f615b6559c281482,64becb70970bdff9d47ede90,right,-1,0.3,0.1143,20,-0.023374137,0.3171,,,,,,28,0,28,0,1,,,,,
,,169964,001,2023-07-24_22h06.02.889,arm3_eps,2022.2.5,Win32,144.4460494,610284a1a38509a6059d1bc9,64aea9d0f615b6559c281482,64becb70970bdff9d47ede90,down,-1,0.3,0.1143,21,0,0.3325,,,,,,29,0,29,0,1,,,,,
,,169964,001,2023-07-24_22h06.02.889,arm3_eps,2022.2.5,Win32,144.4460494,610284a1a38509a6059d1bc9,64aea9d0f615b6559c281482,64becb70970bdff9d47ede90,right,-1,0.3,0.1143,21,-0.029074573,0.7844,,,,,,30,0,30,0,1,,,,,
,,169964,001,2023-07-24_22h06.02.889,arm3_eps,2022.2.5,Win32,144.4460494,610284a1a38509a6059d1bc9,64aea9d0f615b6559c281482,64becb70970bdff9d47ede90,right,-1,0.3,0.1143,21,-0.028722757,0.2839,,,,,,31,0,31,0,1,,,,,
,,169964,001,2023-07-24_22h06.02.889,arm3_eps,2022.2.5,Win32,144.4460494,610284a1a38509a6059d1bc9,64aea9d0f615b6559c281482,64becb70970bdff9d47ede90,right,-1,0.3,0.1143,21,-0.038674425,0.3009,,,,,,32,0,32,0,1,,,,,
,,169964,001,2023-07-24_22h06.02.889,arm3_eps,2022.2.5,Win32,144.4460494,610284a1a38509a6059d1bc9,64aea9d0f615b6559c281482,64becb70970bdff9d47ede90,right,-1,0.3,0.1143,21,-0.04931421,0.2835,,,,,,33,0,33,0,1,,,,,
,,169964,001,2023-07-24_22h06.02.889,arm3_eps,2022.2.5,Win32,144.4460494,610284a1a38509a6059d1bc9,64aea9d0f615b6559c281482,64becb70970bdff9d47ede90,down,-1,0.3,0.1143,21,0,0.6176,,,,,,34,0,34,0,1,,,,,
,,169964,001,2023-07-24_22h06.02.889,arm3_eps,2022.2.5,Win32,144.4460494,610284a1a38509a6059d1bc9,64aea9d0f615b6559c281482,64becb70970bdff9d47ede90,right,-1,0.3,0.1143,21,-0.00053756,0.8681,,,,,,35,0,35,0,1,,,,,
,,169964,001,2023-07-24_22h06.02.889,arm3_eps,2022.2.5,Win32,144.4460494,610284a1a38509a6059d1bc9,64aea9d0f615b6559c281482,64becb70970bdff9d47ede90,right,-1,0.3,0.1143,21,-0.039798251,0.2835,,,,,,36,0,36,0,1,,,,,
,,169964,001,2023-07-24_22h06.02.889,arm3_eps,2022.2.5,Win32,144.4460494,610284a1a38509a6059d1bc9,64aea9d0f615b6559c281482,64becb70970bdff9d47ede90,right,-1,0.3,0.1143,21,-0.029528939,0.2675,,,,,,37,0,37,0,1,,,,,
,,169964,001,2023-07-24_22h06.02.889,arm3_eps,2022.2.5,Win32,144.4460494,610284a1a38509a6059d1bc9,64aea9d0f615b6559c281482,64becb70970bdff9d47ede90,right,-1,0.3,0.1143,21,-0.021465003,0.2837,,,,,,38,0,38,0,1,,,,,
,,169964,001,2023-07-24_22h06.02.889,arm3_eps,2022.2.5,Win32,144.4460494,610284a1a38509a6059d1bc9,64aea9d0f615b6559c281482,64becb70970bdff9d47ede90,right,-1,0.3,0.1143,21,-0.014539255,0.2844,,,,,,39,0,39,0,1,,,,,
,,169964,001,2023-07-24_22h06.02.889,arm3_eps,2022.2.5,Win32,144.4460494,610284a1a38509a6059d1bc9,64aea9d0f615b6559c281482,64becb70970bdff9d47ede90,right,-1,0.3,0.1143,21,-0.022896165,0.2674,,,,,,40,0,40,0,1,,,,,
,,169964,001,2023-07-24_22h06.02.889,arm3_eps,2022.2.5,Win32,144.4460494,610284a1a38509a6059d1bc9,64aea9d0f615b6559c281482,64becb70970bdff9d47ede90,down,-1,0.3,0.1143,22,0,0.3841,,,,,,41,0,41,0,1,,,,,
,,169964,001,2023-07-24_22h06.02.889,arm3_eps,2022.2.5,Win32,144.4460494,610284a1a38509a6059d1bc9,64aea9d0f615b6559c281482,64becb70970bdff9d47ede90,right,-1,0.3,0.1143,22,0.011745009,0.9526,,,,,,42,0,42,0,1,,,,,
,,169964,001,2023-07-24_22h06.02.889,arm3_eps,2022.2.5,Win32,144.4460494,610284a1a38509a6059d1bc9,64aea9d0f615b6559c281482,64becb70970bdff9d47ede90,right,-1,0.3,0.1143,22,0.02542506,0.3506,,,,,,43,0,43,0,1,,,,,
,,169964,001,2023-07-24_22h06.02.889,arm3_eps,2022.2.5,Win32,144.4460494,610284a1a38509a6059d1bc9,64aea9d0f615b6559c281482,64becb70970bdff9d47ede90,right,-1,0.3,0.1143,22,-0.020049615,0.5505,,,,,,44,0,44,0,1,,,,,
