space_bar.keys,space_bar.rt,participant,session,date,expName,psychopyVersion,OS,frameRate,PROLIFIC_PID,STUDY_ID,SESSION_ID,resp.keys,state,q_prob,eps_prob,score,price,resp.rt,train.thisRepN,train.thisTrialN,train.thisN,train.thisIndex,train.ran,steps.thisRepN,steps.thisTrialN,steps.thisN,steps.thisIndex,steps.ran,blocks.thisRepN,blocks.thisTrialN,blocks.thisN,blocks.thisIndex,blocks.ran
space,31.794,227006,001,2023-07-24_20h05.41.770,arm3_eps,2022.2.5,Linux x86_64,58.82352941,5f764794f90c7d0ca0eb15df,64aea9d0f615b6559c281482,64becb7838258b6ea08fa33e,,,,,,,,,,,,,,,,,,,,,,
space,6.248,227006,001,2023-07-24_20h05.41.770,arm3_eps,2022.2.5,Linux x86_64,58.82352941,5f764794f90c7d0ca0eb15df,64aea9d0f615b6559c281482,64becb7838258b6ea08fa33e,,,,,,,,,,,,,,,,,,,,,,
space,8.88,227006,001,2023-07-24_20h05.41.770,arm3_eps,2022.2.5,Linux x86_64,58.82352941,5f764794f90c7d0ca0eb15df,64aea9d0f615b6559c281482,64becb7838258b6ea08fa33e,,,,,,,,,,,,,,,,,,,,,,
space,7.23,227006,001,2023-07-24_20h05.41.770,arm3_eps,2022.2.5,Linux x86_64,58.82352941,5f764794f90c7d0ca0eb15df,64aea9d0f615b6559c281482,64becb7838258b6ea08fa33e,,,,,,,,,,,,,,,,,,,,,,
space,10.167,227006,001,2023-07-24_20h05.41.770,arm3_eps,2022.2.5,Linux x86_64,58.82352941,5f764794f90c7d0ca0eb15df,64aea9d0f615b6559c281482,64becb7838258b6ea08fa33e,,,,,,,,,,,,,,,,,,,,,,
space,14.328,227006,001,2023-07-24_20h05.41.770,arm3_eps,2022.2.5,Linux x86_64,58.82352941,5f764794f90c7d0ca0eb15df,64aea9d0f615b6559c281482,64becb7838258b6ea08fa33e,,,,,,,,,,,,,,,,,,,,,,
space,4.343,227006,001,2023-07-24_20h05.41.770,arm3_eps,2022.2.5,Linux x86_64,58.82352941,5f764794f90c7d0ca0eb15df,64aea9d0f615b6559c281482,64becb7838258b6ea08fa33e,,,,,,,,,,,,,,,,,,,,,,
space,15.331,227006,001,2023-07-24_20h05.41.770,arm3_eps,2022.2.5,Linux x86_64,58.82352941,5f764794f90c7d0ca0eb15df,64aea9d0f615b6559c281482,64becb7838258b6ea08fa33e,,,,,,,,,,,,,,,,,,,,,,
space,10.601,227006,001,2023-07-24_20h05.41.770,arm3_eps,2022.2.5,Linux x86_64,58.82352941,5f764794f90c7d0ca0eb15df,64aea9d0f615b6559c281482,64becb7838258b6ea08fa33e,,,,,,,,,,,,,,,,,,,,,,
space,4.255,227006,001,2023-07-24_20h05.41.770,arm3_eps,2022.2.5,Linux x86_64,58.82352941,5f764794f90c7d0ca0eb15df,64aea9d0f615b6559c281482,64becb7838258b6ea08fa33e,,,,,,,,,,,,,,,,,,,,,,
,,227006,001,2023-07-24_20h05.41.770,arm3_eps,2022.2.5,Linux x86_64,58.82352941,5f764794f90c7d0ca0eb15df,64aea9d0f615b6559c281482,64becb7838258b6ea08fa33e,right,1,0.3,0.2429,0,0.026278033,1.528,0,0,0,0,1,,,,,,,,,,
,,227006,001,2023-07-24_20h05.41.770,arm3_eps,2022.2.5,Linux x86_64,58.82352941,5f764794f90c7d0ca0eb15df,64aea9d0f615b6559c281482,64becb7838258b6ea08fa33e,right,1,0.3,0.2429,0,0.0178429,5.334,1,0,1,0,1,,,,,,,,,,
,,227006,001,2023-07-24_20h05.41.770,arm3_eps,2022.2.5,Linux x86_64,58.82352941,5f764794f90c7d0ca0eb15df,64aea9d0f615b6559c281482,64becb7838258b6ea08fa33e,right,1,0.3,0.2429,0,0.075321652,1.173,2,0,2,0,1,,,,,,,,,,
,,227006,001,2023-07-24_20h05.41.770,arm3_eps,2022.2.5,Linux x86_64,58.82352941,5f764794f90c7d0ca0eb15df,64aea9d0f615b6559c281482,64becb7838258b6ea08fa33e,up,1,0.3,0.2429,0,0,0.871,3,0,3,0,1,,,,,,,,,,
,,227006,001,2023-07-24_20h05.41.770,arm3_eps,2022.2.5,Linux x86_64,58.82352941,5f764794f90c7d0ca0eb15df,64aea9d0f615b6559c281482,64becb7838258b6ea08fa33e,right,1,0.3,0.2429,0,0.006929676,2.914,4,0,4,0,1,,,,,,,,,,
,,227006,001,2023-07-24_20h05.41.770,arm3_eps,2022.2.5,Linux x86_64,58.82352941,5f764794f90c7d0ca0eb15df,64aea9d0f615b6559c281482,64becb7838258b6ea08fa33e,right,1,0.3,0.2429,0,0.018305491,0.502,5,0,5,0,1,,,,,,,,,,
,,227006,001,2023-07-24_20h05.41.770,arm3_eps,2022.2.5,Linux x86_64,58.82352941,5f764794f90c7d0ca0eb15df,64aea9d0f615b6559c281482,64becb7838258b6ea08fa33e,right,1,0.3,0.2429,0,0.032205782,0.609,6,0,6,0,1,,,,,,,,,,
,,227006,001,2023-07-24_20h05.41.770,arm3_eps,2022.2.5,Linux x86_64,58.82352941,5f764794f90c7d0ca0eb15df,64aea9d0f615b6559c281482,64becb7838258b6ea08fa33e,right,1,0.3,0.2429,0,0.031392008,0.67,7,0,7,0,1,,,,,,,,,,
,,227006,001,2023-07-24_20h05.41.770,arm3_eps,2022.2.5,Linux x86_64,58.82352941,5f764794f90c7d0ca0eb15df,64aea9d0f615b6559c281482,64becb7838258b6ea08fa33e,right,1,0.3,0.2429,0,0.043053895,0.388,8,0,8,0,1,,,,,,,,,,
,,227006,001,2023-07-24_20h05.41.770,arm3_eps,2022.2.5,Linux x86_64,58.82352941,5f764794f90c7d0ca0eb15df,64aea9d0f615b6559c281482,64becb7838258b6ea08fa33e,right,1,0.3,0.2429,0,0.058616451,0.403,9,0,9,0,1,,,,,,,,,,
,,227006,001,2023-07-24_20h05.41.770,arm3_eps,2022.2.5,Linux x86_64,58.82352941,5f764794f90c7d0ca0eb15df,64aea9d0f615b6559c281482,64becb7838258b6ea08fa33e,right,1,0.3,0.2429,0,0.044931496,0.54,10,0,10,0,1,,,,,,,,,,
,,227006,001,2023-07-24_20h05.41.770,arm3_eps,2022.2.5,Linux x86_64,58.82352941,5f764794f90c7d0ca0eb15df,64aea9d0f615b6559c281482,64becb7838258b6ea08fa33e,up,1,0.3,0.2429,0,0,0.371,11,0,11,0,1,,,,,,,,,,
,,227006,001,2023-07-24_20h05.41.770,arm3_eps,2022.2.5,Linux x86_64,58.82352941,5f764794f90c7d0ca0eb15df,64aea9d0f615b6559c281482,64becb7838258b6ea08fa33e,right,1,0.3,0.2429,0,0.02140365,1.65,12,0,12,0,1,,,,,,,,,,
,,227006,001,2023-07-24_20h05.41.770,arm3_eps,2022.2.5,Linux x86_64,58.82352941,5f764794f90c7d0ca0eb15df,64aea9d0f615b6559c281482,64becb7838258b6ea08fa33e,right,1,0.3,0.2429,0,0.029002413,0.403,13,0,13,0,1,,,,,,,,,,
,,227006,001,2023-07-24_20h05.41.770,arm3_eps,2022.2.5,Linux x86_64,58.82352941,5f764794f90c7d0ca0eb15df,64aea9d0f615b6559c281482,64becb7838258b6ea08fa33e,right,1,0.3,0.2429,0,0.021601501,1.271,14,0,14,0,1,,,,,,,,,,
,,227006,001,2023-07-24_20h05.41.770,arm3_eps,2022.2.5,Linux x86_64,58.82352941,5f764794f90c7d0ca0eb15df,64aea9d0f615b6559c281482,64becb7838258b6ea08fa33e,right,1,0.3,0.2429,0,0.03808169,0.503,15,0,15,0,1,,,,,,,,,,
,,227006,001,2023-07-24_20h05.41.770,arm3_eps,2022.2.5,Linux x86_64,58.82352941,5f764794f90c7d0ca0eb15df,64aea9d0f615b6559c281482,64becb7838258b6ea08fa33e,right,1,0.3,0.2429,0,0.089038165,0.453,16,0,16,0,1,,,,,,,,,,
,,227006,001,2023-07-24_20h05.41.770,arm3_eps,2022.2.5,Linux x86_64,58.82352941,5f764794f90c7d0ca0eb15df,64aea9d0f615b6559c281482,64becb7838258b6ea08fa33e,right,1,0.3,0.2429,0,0.076159331,0.454,17,0,17,0,1,,,,,,,,,,
,,227006,001,2023-07-24_20h05.41.770,arm3_eps,2022.2.5,Linux x86_64,58.82352941,5f764794f90c7d0ca0eb15df,64aea9d0f615b6559c281482,64becb7838258b6ea08fa33e,right,1,0.3,0.2429,0,0.069589596,0.421,18,0,18,0,1,,,,,,,,,,
,,227006,001,2023-07-24_20h05.41.770,arm3_eps,2022.2.5,Linux x86_64,58.82352941,5f764794f90c7d0ca0eb15df,64aea9d0f615b6559c281482,64becb7838258b6ea08fa33e,right,1,0.3,0.2429,0,0.044259632,0.505,19,0,19,0,1,,,,,,,,,,
,,227006,001,2023-07-24_20h05.41.770,arm3_eps,2022.2.5,Linux x86_64,58.82352941,5f764794f90c7d0ca0eb15df,64aea9d0f615b6559c281482,64becb7838258b6ea08fa33e,right,1,0.3,0.2429,0,0.075234962,2.187,20,0,20,0,1,,,,,,,,,,
,,227006,001,2023-07-24_20h05.41.770,arm3_eps,2022.2.5,Linux x86_64,58.82352941,5f764794f90c7d0ca0eb15df,64aea9d0f615b6559c281482,64becb7838258b6ea08fa33e,right,1,0.3,0.2429,0,0.081168542,0.391,21,0,21,0,1,,,,,,,,,,
,,227006,001,2023-07-24_20h05.41.770,arm3_eps,2022.2.5,Linux x86_64,58.82352941,5f764794f90c7d0ca0eb15df,64aea9d0f615b6559c281482,64becb7838258b6ea08fa33e,up,1,0.3,0.2429,1,0,0.294,22,0,22,0,1,,,,,,,,,,
,,227006,001,2023-07-24_20h05.41.770,arm3_eps,2022.2.5,Linux x86_64,58.82352941,5f764794f90c7d0ca0eb15df,64aea9d0f615b6559c281482,64becb7838258b6ea08fa33e,right,1,0.3,0.2429,1,0.030322485,1.244,23,0,23,0,1,,,,,,,,,,
,,227006,001,2023-07-24_20h05.41.770,arm3_eps,2022.2.5,Linux x86_64,58.82352941,5f764794f90c7d0ca0eb15df,64aea9d0f615b6559c281482,64becb7838258b6ea08fa33e,right,1,0.3,0.2429,1,0.023084711,0.301,24,0,24,0,1,,,,,,,,,,
,,227006,001,2023-07-24_20h05.41.770,arm3_eps,2022.2.5,Linux x86_64,58.82352941,5f764794f90c7d0ca0eb15df,64aea9d0f615b6559c281482,64becb7838258b6ea08fa33e,right,1,0.3,0.2429,1,0.005843672,0.569,25,0,25,0,1,,,,,,,,,,
,,227006,001,2023-07-24_20h05.41.770,arm3_eps,2022.2.5,Linux x86_64,58.82352941,5f764794f90c7d0ca0eb15df,64aea9d0f615b6559c281482,64becb7838258b6ea08fa33e,right,1,0.3,0.2429,1,0.012782947,0.42,26,0,26,0,1,,,,,,,,,,
,,227006,001,2023-07-24_20h05.41.770,arm3_eps,2022.2.5,Linux x86_64,58.82352941,5f764794f90c7d0ca0eb15df,64aea9d0f615b6559c281482,64becb7838258b6ea08fa33e,right,1,0.3,0.2429,1,0.056102075,0.369,27,0,27,0,1,,,,,,,,,,
,,227006,001,2023-07-24_20h05.41.770,arm3_eps,2022.2.5,Linux x86_64,58.82352941,5f764794f90c7d0ca0eb15df,64aea9d0f615b6559c281482,64becb7838258b6ea08fa33e,right,1,0.3,0.2429,1,0.080946855,0.337,28,0,28,0,1,,,,,,,,,,
,,227006,001,2023-07-24_20h05.41.770,arm3_eps,2022.2.5,Linux x86_64,58.82352941,5f764794f90c7d0ca0eb15df,64aea9d0f615b6559c281482,64becb7838258b6ea08fa33e,right,1,0.3,0.2429,1,0.108313187,0.402,29,0,29,0,1,,,,,,,,,,
,,227006,001,2023-07-24_20h05.41.770,arm3_eps,2022.2.5,Linux x86_64,58.82352941,5f764794f90c7d0ca0eb15df,64aea9d0f615b6559c281482,64becb7838258b6ea08fa33e,up,1,0.3,0.2429,1,0,0.551,30,0,30,0,1,,,,,,,,,,
,,227006,001,2023-07-24_20h05.41.770,arm3_eps,2022.2.5,Linux x86_64,58.82352941,5f764794f90c7d0ca0eb15df,64aea9d0f615b6559c281482,64becb7838258b6ea08fa33e,right,1,0.3,0.2429,1,-0.002054312,0.448,31,0,31,0,1,,,,,,,,,,
,,227006,001,2023-07-24_20h05.41.770,arm3_eps,2022.2.5,Linux x86_64,58.82352941,5f764794f90c7d0ca0eb15df,64aea9d0f615b6559c281482,64becb7838258b6ea08fa33e,right,1,0.3,0.2429,1,0.017749912,0.393,32,0,32,0,1,,,,,,,,,,
,,227006,001,2023-07-24_20h05.41.770,arm3_eps,2022.2.5,Linux x86_64,58.82352941,5f764794f90c7d0ca0eb15df,64aea9d0f615b6559c281482,64becb7838258b6ea08fa33e,right,1,0.3,0.2429,1,0.032126496,0.268,33,0,33,0,1,,,,,,,,,,
,,227006,001,2023-07-24_20h05.41.770,arm3_eps,2022.2.5,Linux x86_64,58.82352941,5f764794f90c7d0ca0eb15df,64aea9d0f615b6559c281482,64becb7838258b6ea08fa33e,right,1,0.3,0.2429,1,0.06359103,0.231,34,0,34,0,1,,,,,,,,,,
,,227006,001,2023-07-24_20h05.41.770,arm3_eps,2022.2.5,Linux x86_64,58.82352941,5f764794f90c7d0ca0eb15df,64aea9d0f615b6559c281482,64becb7838258b6ea08fa33e,right,1,0.3,0.2429,1,0.073307191,1.787,35,0,35,0,1,,,,,,,,,,
,,227006,001,2023-07-24_20h05.41.770,arm3_eps,2022.2.5,Linux x86_64,58.82352941,5f764794f90c7d0ca0eb15df,64aea9d0f615b6559c281482,64becb7838258b6ea08fa33e,right,1,0.3,0.2429,1,0.11500535,0.404,36,0,36,0,1,,,,,,,,,,
,,227006,001,2023-07-24_20h05.41.770,arm3_eps,2022.2.5,Linux x86_64,58.82352941,5f764794f90c7d0ca0eb15df,64aea9d0f615b6559c281482,64becb7838258b6ea08fa33e,up,1,0.3,0.2429,1,0,0.636,37,0,37,0,1,,,,,,,,,,
,,227006,001,2023-07-24_20h05.41.770,arm3_eps,2022.2.5,Linux x86_64,58.82352941,5f764794f90c7d0ca0eb15df,64aea9d0f615b6559c281482,64becb7838258b6ea08fa33e,right,1,0.3,0.2429,1,-0.016075535,0.472,38,0,38,0,1,,,,,,,,,,
,,227006,001,2023-07-24_20h05.41.770,arm3_eps,2022.2.5,Linux x86_64,58.82352941,5f764794f90c7d0ca0eb15df,64aea9d0f615b6559c281482,64becb7838258b6ea08fa33e,right,1,0.3,0.2429,1,-0.023901448,0.953,39,0,39,0,1,,,,,,,,,,
,,227006,001,2023-07-24_20h05.41.770,arm3_eps,2022.2.5,Linux x86_64,58.82352941,5f764794f90c7d0ca0eb15df,64aea9d0f615b6559c281482,64becb7838258b6ea08fa33e,right,1,0.3,0.2429,1,0.024301873,0.376,40,0,40,0,1,,,,,,,,,,
,,227006,001,2023-07-24_20h05.41.770,arm3_eps,2022.2.5,Linux x86_64,58.82352941,5f764794f90c7d0ca0eb15df,64aea9d0f615b6559c281482,64becb7838258b6ea08fa33e,right,1,0.3,0.2429,1,0.074893175,0.454,41,0,41,0,1,,,,,,,,,,
,,227006,001,2023-07-24_20h05.41.770,arm3_eps,2022.2.5,Linux x86_64,58.82352941,5f764794f90c7d0ca0eb15df,64aea9d0f615b6559c281482,64becb7838258b6ea08fa33e,right,1,0.3,0.2429,1,0.073172973,0.406,42,0,42,0,1,,,,,,,,,,
,,227006,001,2023-07-24_20h05.41.770,arm3_eps,2022.2.5,Linux x86_64,58.82352941,5f764794f90c7d0ca0eb15df,64aea9d0f615b6559c281482,64becb7838258b6ea08fa33e,right,1,0.3,0.2429,1,0.101888711,0.371,43,0,43,0,1,,,,,,,,,,
,,227006,001,2023-07-24_20h05.41.770,arm3_eps,2022.2.5,Linux x86_64,58.82352941,5f764794f90c7d0ca0eb15df,64aea9d0f615b6559c281482,64becb7838258b6ea08fa33e,right,1,0.3,0.2429,1,0.105575055,0.336,44,0,44,0,1,,,,,,,,,,
,,227006,001,2023-07-24_20h05.41.770,arm3_eps,2022.2.5,Linux x86_64,58.82352941,5f764794f90c7d0ca0eb15df,64aea9d0f615b6559c281482,64becb7838258b6ea08fa33e,right,1,0.3,0.2429,1,0.09593151,0.504,45,0,45,0,1,,,,,,,,,,
,,227006,001,2023-07-24_20h05.41.770,arm3_eps,2022.2.5,Linux x86_64,58.82352941,5f764794f90c7d0ca0eb15df,64aea9d0f615b6559c281482,64becb7838258b6ea08fa33e,right,1,0.3,0.2429,1,0.101461989,0.291,46,0,46,0,1,,,,,,,,,,
,,227006,001,2023-07-24_20h05.41.770,arm3_eps,2022.2.5,Linux x86_64,58.82352941,5f764794f90c7d0ca0eb15df,64aea9d0f615b6559c281482,64becb7838258b6ea08fa33e,up,1,0.3,0.2429,1,0,0.253,47,0,47,0,1,,,,,,,,,,
,,227006,001,2023-07-24_20h05.41.770,arm3_eps,2022.2.5,Linux x86_64,58.82352941,5f764794f90c7d0ca0eb15df,64aea9d0f615b6559c281482,64becb7838258b6ea08fa33e,right,1,0.3,0.2429,1,0.003140924,0.435,48,0,48,0,1,,,,,,,,,,
,,227006,001,2023-07-24_20h05.41.770,arm3_eps,2022.2.5,Linux x86_64,58.82352941,5f764794f90c7d0ca0eb15df,64aea9d0f615b6559c281482,64becb7838258b6ea08fa33e,right,1,0.3,0.2429,1,0.013781855,0.437,49,0,49,0,1,,,,,,,,,,
space,2.054,227006,001,2023-07-24_20h05.41.770,arm3_eps,2022.2.5,Linux x86_64,58.82352941,5f764794f90c7d0ca0eb15df,64aea9d0f615b6559c281482,64becb7838258b6ea08fa33e,,,,,,,,,,,,,,,,,,,,,,
space,4.105,227006,001,2023-07-24_20h05.41.770,arm3_eps,2022.2.5,Linux x86_64,58.82352941,5f764794f90c7d0ca0eb15df,64aea9d0f615b6559c281482,64becb7838258b6ea08fa33e,right,1,0.3,0.1786,0,0.03443544,1.216,,,,,,0,0,0,0,1,,,,,
,,227006,001,2023-07-24_20h05.41.770,arm3_eps,2022.2.5,Linux x86_64,58.82352941,5f764794f90c7d0ca0eb15df,64aea9d0f615b6559c281482,64becb7838258b6ea08fa33e,right,1,0.3,0.1786,0,0.020456856,0.44,,,,,,1,0,1,0,1,,,,,
,,227006,001,2023-07-24_20h05.41.770,arm3_eps,2022.2.5,Linux x86_64,58.82352941,5f764794f90c7d0ca0eb15df,64aea9d0f615b6559c281482,64becb7838258b6ea08fa33e,right,1,0.3,0.1786,0,0.004028581,0.438,,,,,,2,0,2,0,1,,,,,
,,227006,001,2023-07-24_20h05.41.770,arm3_eps,2022.2.5,Linux x86_64,58.82352941,5f764794f90c7d0ca0eb15df,64aea9d0f615b6559c281482,64becb7838258b6ea08fa33e,right,1,0.3,0.1786,0,0.020088958,0.921,,,,,,3,0,3,0,1,,,,,
,,227006,001,2023-07-24_20h05.41.770,arm3_eps,2022.2.5,Linux x86_64,58.82352941,5f764794f90c7d0ca0eb15df,64aea9d0f615b6559c281482,64becb7838258b6ea08fa33e,right,1,0.3,0.1786,0,0.058483436,0.477,,,,,,4,0,4,0,1,,,,,
,,227006,001,2023-07-24_20h05.41.770,arm3_eps,2022.2.5,Linux x86_64,58.82352941,5f764794f90c7d0ca0eb15df,64aea9d0f615b6559c281482,64becb7838258b6ea08fa33e,right,1,0.3,0.1786,0,0.084395233,0.404,,,,,,5,0,5,0,1,,,,,
,,227006,001,2023-07-24_20h05.41.770,arm3_eps,2022.2.5,Linux x86_64,58.82352941,5f764794f90c7d0ca0eb15df,64aea9d0f615b6559c281482,64becb7838258b6ea08fa33e,right,1,0.3,0.1786,0,0.073638019,0.502,,,,,,6,0,6,0,1,,,,,
,,227006,001,2023-07-24_20h05.41.770,arm3_eps,2022.2.5,Linux x86_64,58.82352941,5f764794f90c7d0ca0eb15df,64aea9d0f615b6559c281482,64becb7838258b6ea08fa33e,right,1,0.3,0.1786,0,0.062033292,0.54,,,,,,7,0,7,0,1,,,,,
,,227006,001,2023-07-24_20h05.41.770,arm3_eps,2022.2.5,Linux x86_64,58.82352941,5f764794f90c7d0ca0eb15df,64aea9d0f615b6559c281482,64becb7838258b6ea08fa33e,right,1,0.3,0.1786,0,0.070363014,1.77,,,,,,8,0,8,0,1,,,,,
,,227006,001,2023-07-24_20h05.41.770,arm3_eps,2022.2.5,Linux x86_64,58.82352941,5f764794f90c7d0ca0eb15df,64aea9d0f615b6559c281482,64becb7838258b6ea08fa33e,right,1,0.3,0.1786,0,0.05659683,0.358,,,,,,9,0,9,0,1,,,,,
,,227006,001,2023-07-24_20h05.41.770,arm3_eps,2022.2.5,Linux x86_64,58.82352941,5f764794f90c7d0ca0eb15df,64aea9d0f615b6559c281482,64becb7838258b6ea08fa33e,up,1,0.3,0.1786,0,0,0.42,,,,,,10,0,10,0,1,,,,,
,,227006,001,2023-07-24_20h05.41.770,arm3_eps,2022.2.5,Linux x86_64,58.82352941,5f764794f90c7d0ca0eb15df,64aea9d0f615b6559c281482,64becb7838258b6ea08fa33e,right,1,0.3,0.1786,0,0.013151224,0.55,,,,,,11,0,11,0,1,,,,,
,,227006,001,2023-07-24_20h05.41.770,arm3_eps,2022.2.5,Linux x86_64,58.82352941,5f764794f90c7d0ca0eb15df,64aea9d0f615b6559c281482,64becb7838258b6ea08fa33e,right,1,0.3,0.1786,0,0.005058243,0.42,,,,,,12,0,12,0,1,,,,,
,,227006,001,2023-07-24_20h05.41.770,arm3_eps,2022.2.5,Linux x86_64,58.82352941,5f764794f90c7d0ca0eb15df,64aea9d0f615b6559c281482,64becb7838258b6ea08fa33e,right,1,0.3,0.1786,0,-0.00329885,0.42,,,,,,13,0,13,0,1,,,,,
,,227006,001,2023-07-24_20h05.41.770,arm3_eps,2022.2.5,Linux x86_64,58.82352941,5f764794f90c7d0ca0eb15df,64aea9d0f615b6559c281482,64becb7838258b6ea08fa33e,right,1,0.3,0.1786,0,0.024762001,0.374,,,,,,14,0,14,0,1,,,,,
,,227006,001,2023-07-24_20h05.41.770,arm3_eps,2022.2.5,Linux x86_64,58.82352941,5f764794f90c7d0ca0eb15df,64aea9d0f615b6559c281482,64becb7838258b6ea08fa33e,right,1,0.3,0.1786,0,0.023667766,0.312,,,,,,15,0,15,0,1,,,,,
,,227006,001,2023-07-24_20h05.41.770,arm3_eps,2022.2.5,Linux x86_64,58.82352941,5f764794f90c7d0ca0eb15df,64aea9d0f615b6559c281482,64becb7838258b6ea08fa33e,right,1,0.3,0.1786,0,0.025757612,0.291,,,,,,16,0,16,0,1,,,,,
,,227006,001,2023-07-24_20h05.41.770,arm3_eps,2022.2.5,Linux x86_64,58.82352941,5f764794f90c7d0ca0eb15df,64aea9d0f615b6559c281482,64becb7838258b6ea08fa33e,right,1,0.3,0.1786,0,0.042065536,0.337,,,,,,17,0,17,0,1,,,,,
,,227006,001,2023-07-24_20h05.41.770,arm3_eps,2022.2.5,Linux x86_64,58.82352941,5f764794f90c7d0ca0eb15df,64aea9d0f615b6559c281482,64becb7838258b6ea08fa33e,right,1,0.3,0.1786,0,0.055653521,0.357,,,,,,18,0,18,0,1,,,,,
,,227006,001,2023-07-24_20h05.41.770,arm3_eps,2022.2.5,Linux x86_64,58.82352941,5f764794f90c7d0ca0eb15df,64aea9d0f615b6559c281482,64becb7838258b6ea08fa33e,right,1,0.3,0.1786,0,0.095513313,0.503,,,,,,19,0,19,0,1,,,,,
,,227006,001,2023-07-24_20h05.41.770,arm3_eps,2022.2.5,Linux x86_64,58.82352941,5f764794f90c7d0ca0eb15df,64aea9d0f615b6559c281482,64becb7838258b6ea08fa33e,right,1,0.3,0.1786,0,0.114989998,0.485,,,,,,20,0,20,0,1,,,,,
,,227006,001,2023-07-24_20h05.41.770,arm3_eps,2022.2.5,Linux x86_64,58.82352941,5f764794f90c7d0ca0eb15df,64aea9d0f615b6559c281482,64becb7838258b6ea08fa33e,up,1,0.3,0.1786,1,0,1.206,,,,,,21,0,21,0,1,,,,,
,,227006,001,2023-07-24_20h05.41.770,arm3_eps,2022.2.5,Linux x86_64,58.82352941,5f764794f90c7d0ca0eb15df,64aea9d0f615b6559c281482,64becb7838258b6ea08fa33e,right,1,0.3,0.1786,1,-0.005482593,1.151,,,,,,22,0,22,0,1,,,,,
,,227006,001,2023-07-24_20h05.41.770,arm3_eps,2022.2.5,Linux x86_64,58.82352941,5f764794f90c7d0ca0eb15df,64aea9d0f615b6559c281482,64becb7838258b6ea08fa33e,right,1,0.3,0.1786,1,0.020330329,0.439,,,,,,23,0,23,0,1,,,,,
,,227006,001,2023-07-24_20h05.41.770,arm3_eps,2022.2.5,Linux x86_64,58.82352941,5f764794f90c7d0ca0eb15df,64aea9d0f615b6559c281482,64becb7838258b6ea08fa33e,right,1,0.3,0.1786,1,0.040097244,0.669,,,,,,24,0,24,0,1,,,,,
,,227006,001,2023-07-24_20h05.41.770,arm3_eps,2022.2.5,Linux x86_64,58.82352941,5f764794f90c7d0ca0eb15df,64aea9d0f615b6559c281482,64becb7838258b6ea08fa33e,right,1,0.3,0.1786,1,0.073772834,0.421,,,,,,25,0,25,0,1,,,,,
,,227006,001,2023-07-24_20h05.41.770,arm3_eps,2022.2.5,Linux x86_64,58.82352941,5f764794f90c7d0ca0eb15df,64aea9d0f615b6559c281482,64becb7838258b6ea08fa33e,up,1,0.3,0.1786,2,0,0.554,,,,,,26,0,26,0,1,,,,,
,,227006,001,2023-07-24_20h05.41.770,arm3_eps,2022.2.5,Linux x86_64,58.82352941,5f764794f90c7d0ca0eb15df,64aea9d0f615b6559c281482,64becb7838258b6ea08fa33e,right,1,0.3,0.1786,2,0.003725951,0.422,,,,,,27,0,27,0,1,,,,,
,,227006,001,2023-07-24_20h05.41.770,arm3_eps,2022.2.5,Linux x86_64,58.82352941,5f764794f90c7d0ca0eb15df,64aea9d0f615b6559c281482,64becb7838258b6ea08fa33e,right,1,0.3,0.1786,2,-0.001424298,0.487,,,,,,28,0,28,0,1,,,,,
,,227006,001,2023-07-24_20h05.41.770,arm3_eps,2022.2.5,Linux x86_64,58.82352941,5f764794f90c7d0ca0eb15df,64aea9d0f615b6559c281482,64becb7838258b6ea08fa33e,right,1,0.3,0.1786,2,-0.02084242,0.492,,,,,,29,0,29,0,1,,,,,
,,227006,001,2023-07-24_20h05.41.770,arm3_eps,2022.2.5,Linux x86_64,58.82352941,5f764794f90c7d0ca0eb15df,64aea9d0f615b6559c281482,64becb7838258b6ea08fa33e,down,1,0.3,0.1786,2,0,0.503,,,,,,30,0,30,0,1,,,,,
,,227006,001,2023-07-24_20h05.41.770,arm3_eps,2022.2.5,Linux x86_64,58.82352941,5f764794f90c7d0ca0eb15df,64aea9d0f615b6559c281482,64becb7838258b6ea08fa33e,right,1,0.3,0.1786,2,0.00891791,0.549,,,,,,31,0,31,0,1,,,,,
,,227006,001,2023-07-24_20h05.41.770,arm3_eps,2022.2.5,Linux x86_64,58.82352941,5f764794f90c7d0ca0eb15df,64aea9d0f615b6559c281482,64becb7838258b6ea08fa33e,right,1,0.3,0.1786,2,0.041010444,0.39,,,,,,32,0,32,0,1,,,,,
,,227006,001,2023-07-24_20h05.41.770,arm3_eps,2022.2.5,Linux x86_64,58.82352941,5f764794f90c7d0ca0eb15df,64aea9d0f615b6559c281482,64becb7838258b6ea08fa33e,right,1,0.3,0.1786,2,0.055983698,0.309,,,,,,33,0,33,0,1,,,,,
,,227006,001,2023-07-24_20h05.41.770,arm3_eps,2022.2.5,Linux x86_64,58.82352941,5f764794f90c7d0ca0eb15df,64aea9d0f615b6559c281482,64becb7838258b6ea08fa33e,right,1,0.3,0.1786,2,0.048435764,0.577,,,,,,34,0,34,0,1,,,,,
,,227006,001,2023-07-24_20h05.41.770,arm3_eps,2022.2.5,Linux x86_64,58.82352941,5f764794f90c7d0ca0eb15df,64aea9d0f615b6559c281482,64becb7838258b6ea08fa33e,right,1,0.3,0.1786,2,0.047607229,0.425,,,,,,35,0,35,0,1,,,,,
,,227006,001,2023-07-24_20h05.41.770,arm3_eps,2022.2.5,Linux x86_64,58.82352941,5f764794f90c7d0ca0eb15df,64aea9d0f615b6559c281482,64becb7838258b6ea08fa33e,right,1,0.3,0.1786,2,0.072536201,0.639,,,,,,36,0,36,0,1,,,,,
,,227006,001,2023-07-24_20h05.41.770,arm3_eps,2022.2.5,Linux x86_64,58.82352941,5f764794f90c7d0ca0eb15df,64aea9d0f615b6559c281482,64becb7838258b6ea08fa33e,up,1,0.3,0.1786,2,0,0.326,,,,,,37,0,37,0,1,,,,,
,,227006,001,2023-07-24_20h05.41.770,arm3_eps,2022.2.5,Linux x86_64,58.82352941,5f764794f90c7d0ca0eb15df,64aea9d0f615b6559c281482,64becb7838258b6ea08fa33e,right,1,0.3,0.1786,2,0.005182647,0.52,,,,,,38,0,38,0,1,,,,,
,,227006,001,2023-07-24_20h05.41.770,arm3_eps,2022.2.5,Linux x86_64,58.82352941,5f764794f90c7d0ca0eb15df,64aea9d0f615b6559c281482,64becb7838258b6ea08fa33e,right,1,0.3,0.1786,2,-0.010429603,0.487,,,,,,39,0,39,0,1,,,,,
,,227006,001,2023-07-24_20h05.41.770,arm3_eps,2022.2.5,Linux x86_64,58.82352941,5f764794f90c7d0ca0eb15df,64aea9d0f615b6559c281482,64becb7838258b6ea08fa33e,right,1,0.3,0.1786,2,-0.000396348,0.403,,,,,,40,0,40,0,1,,,,,
,,227006,001,2023-07-24_20h05.41.770,arm3_eps,2022.2.5,Linux x86_64,58.82352941,5f764794f90c7d0ca0eb15df,64aea9d0f615b6559c281482,64becb7838258b6ea08fa33e,right,1,0.3,0.1786,2,-0.004139805,0.47,,,,,,41,0,41,0,1,,,,,
,,227006,001,2023-07-24_20h05.41.770,arm3_eps,2022.2.5,Linux x86_64,58.82352941,5f764794f90c7d0ca0eb15df,64aea9d0f615b6559c281482,64becb7838258b6ea08fa33e,right,1,0.3,0.1786,2,0.004680333,0.474,,,,,,42,0,42,0,1,,,,,
,,227006,001,2023-07-24_20h05.41.770,arm3_eps,2022.2.5,Linux x86_64,58.82352941,5f764794f90c7d0ca0eb15df,64aea9d0f615b6559c281482,64becb7838258b6ea08fa33e,right,1,0.3,0.1786,2,0.014558583,0.671,,,,,,43,0,43,0,1,,,,,
,,227006,001,2023-07-24_20h05.41.770,arm3_eps,2022.2.5,Linux x86_64,58.82352941,5f764794f90c7d0ca0eb15df,64aea9d0f615b6559c281482,64becb7838258b6ea08fa33e,right,1,0.3,0.1786,2,0.004232808,0.504,,,,,,44,0,44,0,1,,,,,
,,227006,001,2023-07-24_20h05.41.770,arm3_eps,2022.2.5,Linux x86_64,58.82352941,5f764794f90c7d0ca0eb15df,64aea9d0f615b6559c281482,64becb7838258b6ea08fa33e,up,1,0.3,0.1786,2,0,0.603,,,,,,45,0,45,0,1,,,,,
,,227006,001,2023-07-24_20h05.41.770,arm3_eps,2022.2.5,Linux x86_64,58.82352941,5f764794f90c7d0ca0eb15df,64aea9d0f615b6559c281482,64becb7838258b6ea08fa33e,right,1,0.3,0.1786,2,-0.008153568,0.418,,,,,,46,0,46,0,1,,,,,
,,227006,001,2023-07-24_20h05.41.770,arm3_eps,2022.2.5,Linux x86_64,58.82352941,5f764794f90c7d0ca0eb15df,64aea9d0f615b6559c281482,64becb7838258b6ea08fa33e,right,1,0.3,0.1786,2,-0.010671972,0.571,,,,,,47,0,47,0,1,,,,,
,,227006,001,2023-07-24_20h05.41.770,arm3_eps,2022.2.5,Linux x86_64,58.82352941,5f764794f90c7d0ca0eb15df,64aea9d0f615b6559c281482,64becb7838258b6ea08fa33e,right,1,0.3,0.1786,2,-0.003905577,0.391,,,,,,48,0,48,0,1,,,,,
,,227006,001,2023-07-24_20h05.41.770,arm3_eps,2022.2.5,Linux x86_64,58.82352941,5f764794f90c7d0ca0eb15df,64aea9d0f615b6559c281482,64becb7838258b6ea08fa33e,right,1,0.3,0.1786,2,-0.007169402,0.302,,,,,,49,0,49,0,1,,,,,
,,227006,001,2023-07-24_20h05.41.770,arm3_eps,2022.2.5,Linux x86_64,58.82352941,5f764794f90c7d0ca0eb15df,64aea9d0f615b6559c281482,64becb7838258b6ea08fa33e,right,1,0.3,0.1786,2,-0.000741708,0.409,,,,,,50,0,50,0,1,,,,,
,,227006,001,2023-07-24_20h05.41.770,arm3_eps,2022.2.5,Linux x86_64,58.82352941,5f764794f90c7d0ca0eb15df,64aea9d0f615b6559c281482,64becb7838258b6ea08fa33e,right,1,0.3,0.1786,2,0.026326467,0.44,,,,,,51,0,51,0,1,,,,,
,,227006,001,2023-07-24_20h05.41.770,arm3_eps,2022.2.5,Linux x86_64,58.82352941,5f764794f90c7d0ca0eb15df,64aea9d0f615b6559c281482,64becb7838258b6ea08fa33e,right,1,0.3,0.1786,2,0.044811843,0.403,,,,,,52,0,52,0,1,,,,,
,,227006,001,2023-07-24_20h05.41.770,arm3_eps,2022.2.5,Linux x86_64,58.82352941,5f764794f90c7d0ca0eb15df,64aea9d0f615b6559c281482,64becb7838258b6ea08fa33e,right,1,0.3,0.1786,2,0.032712408,0.453,,,,,,53,0,53,0,1,,,,,
,,227006,001,2023-07-24_20h05.41.770,arm3_eps,2022.2.5,Linux x86_64,58.82352941,5f764794f90c7d0ca0eb15df,64aea9d0f615b6559c281482,64becb7838258b6ea08fa33e,right,1,0.3,0.1786,2,0.012280036,0.427,,,,,,54,0,54,0,1,,,,,
,,227006,001,2023-07-24_20h05.41.770,arm3_eps,2022.2.5,Linux x86_64,58.82352941,5f764794f90c7d0ca0eb15df,64aea9d0f615b6559c281482,64becb7838258b6ea08fa33e,right,1,0.3,0.1786,2,0.044665123,0.404,,,,,,55,0,55,0,1,,,,,
,,227006,001,2023-07-24_20h05.41.770,arm3_eps,2022.2.5,Linux x86_64,58.82352941,5f764794f90c7d0ca0eb15df,64aea9d0f615b6559c281482,64becb7838258b6ea08fa33e,up,1,0.3,0.1786,2,0,0.656,,,,,,56,0,56,0,1,,,,,
,,227006,001,2023-07-24_20h05.41.770,arm3_eps,2022.2.5,Linux x86_64,58.82352941,5f764794f90c7d0ca0eb15df,64aea9d0f615b6559c281482,64becb7838258b6ea08fa33e,right,1,0.3,0.1786,2,0.008063654,0.367,,,,,,57,0,57,0,1,,,,,
,,227006,001,2023-07-24_20h05.41.770,arm3_eps,2022.2.5,Linux x86_64,58.82352941,5f764794f90c7d0ca0eb15df,64aea9d0f615b6559c281482,64becb7838258b6ea08fa33e,right,1,0.3,0.1786,2,0.001339862,0.353,,,,,,58,0,58,0,1,,,,,
,,227006,001,2023-07-24_20h05.41.770,arm3_eps,2022.2.5,Linux x86_64,58.82352941,5f764794f90c7d0ca0eb15df,64aea9d0f615b6559c281482,64becb7838258b6ea08fa33e,right,1,0.3,0.1786,2,0.020883602,0.354,,,,,,59,0,59,0,1,,,,,
,,227006,001,2023-07-24_20h05.41.770,arm3_eps,2022.2.5,Linux x86_64,58.82352941,5f764794f90c7d0ca0eb15df,64aea9d0f615b6559c281482,64becb7838258b6ea08fa33e,right,1,0.3,0.1786,2,0.033558336,0.336,,,,,,60,0,60,0,1,,,,,
,,227006,001,2023-07-24_20h05.41.770,arm3_eps,2022.2.5,Linux x86_64,58.82352941,5f764794f90c7d0ca0eb15df,64aea9d0f615b6559c281482,64becb7838258b6ea08fa33e,right,1,0.3,0.1786,2,0.032705167,0.691,,,,,,61,0,61,0,1,,,,,
,,227006,001,2023-07-24_20h05.41.770,arm3_eps,2022.2.5,Linux x86_64,58.82352941,5f764794f90c7d0ca0eb15df,64aea9d0f615b6559c281482,64becb7838258b6ea08fa33e,up,1,0.3,0.1786,3,0,0.375,,,,,,62,0,62,0,1,,,,,
,,227006,001,2023-07-24_20h05.41.770,arm3_eps,2022.2.5,Linux x86_64,58.82352941,5f764794f90c7d0ca0eb15df,64aea9d0f615b6559c281482,64becb7838258b6ea08fa33e,right,1,0.3,0.1786,3,-0.021913121,0.4,,,,,,63,0,63,0,1,,,,,
,,227006,001,2023-07-24_20h05.41.770,arm3_eps,2022.2.5,Linux x86_64,58.82352941,5f764794f90c7d0ca0eb15df,64aea9d0f615b6559c281482,64becb7838258b6ea08fa33e,right,1,0.3,0.1786,3,-0.013854893,0.406,,,,,,64,0,64,0,1,,,,,
,,227006,001,2023-07-24_20h05.41.770,arm3_eps,2022.2.5,Linux x86_64,58.82352941,5f764794f90c7d0ca0eb15df,64aea9d0f615b6559c281482,64becb7838258b6ea08fa33e,right,1,0.3,0.1786,3,-0.023445752,0.385,,,,,,65,0,65,0,1,,,,,
,,227006,001,2023-07-24_20h05.41.770,arm3_eps,2022.2.5,Linux x86_64,58.82352941,5f764794f90c7d0ca0eb15df,64aea9d0f615b6559c281482,64becb7838258b6ea08fa33e,right,1,0.3,0.1786,3,-0.051272345,0.319,,,,,,66,0,66,0,1,,,,,
,,227006,001,2023-07-24_20h05.41.770,arm3_eps,2022.2.5,Linux x86_64,58.82352941,5f764794f90c7d0ca0eb15df,64aea9d0f615b6559c281482,64becb7838258b6ea08fa33e,down,-1,0.3,0.1786,2,0,0.16,,,,,,67,0,67,0,1,,,,,
,,227006,001,2023-07-24_20h05.41.770,arm3_eps,2022.2.5,Linux x86_64,58.82352941,5f764794f90c7d0ca0eb15df,64aea9d0f615b6559c281482,64becb7838258b6ea08fa33e,right,-1,0.3,0.1786,2,0.003921804,0.967,,,,,,68,0,68,0,1,,,,,
,,227006,001,2023-07-24_20h05.41.770,arm3_eps,2022.2.5,Linux x86_64,58.82352941,5f764794f90c7d0ca0eb15df,64aea9d0f615b6559c281482,64becb7838258b6ea08fa33e,right,-1,0.3,0.1786,2,-0.016919655,0.371,,,,,,69,0,69,0,1,,,,,
,,227006,001,2023-07-24_20h05.41.770,arm3_eps,2022.2.5,Linux x86_64,58.82352941,5f764794f90c7d0ca0eb15df,64aea9d0f615b6559c281482,64becb7838258b6ea08fa33e,right,-1,0.3,0.1786,2,-0.016518702,0.459,,,,,,70,0,70,0,1,,,,,
,,227006,001,2023-07-24_20h05.41.770,arm3_eps,2022.2.5,Linux x86_64,58.82352941,5f764794f90c7d0ca0eb15df,64aea9d0f615b6559c281482,64becb7838258b6ea08fa33e,right,-1,0.3,0.1786,2,-0.035437467,0.392,,,,,,71,0,71,0,1,,,,,
,,227006,001,2023-07-24_20h05.41.770,arm3_eps,2022.2.5,Linux x86_64,58.82352941,5f764794f90c7d0ca0eb15df,64aea9d0f615b6559c281482,64becb7838258b6ea08fa33e,right,-1,0.3,0.1786,2,-0.072310957,0.504,,,,,,72,0,72,0,1,,,,,
,,227006,001,2023-07-24_20h05.41.770,arm3_eps,2022.2.5,Linux x86_64,58.82352941,5f764794f90c7d0ca0eb15df,64aea9d0f615b6559c281482,64becb7838258b6ea08fa33e,right,-1,0.3,0.1786,2,-0.064399255,0.604,,,,,,73,0,73,0,1,,,,,
,,227006,001,2023-07-24_20h05.41.770,arm3_eps,2022.2.5,Linux x86_64,58.82352941,5f764794f90c7d0ca0eb15df,64aea9d0f615b6559c281482,64becb7838258b6ea08fa33e,right,-1,0.3,0.1786,2,-0.062133599,0.371,,,,,,74,0,74,0,1,,,,,
,,227006,001,2023-07-24_20h05.41.770,arm3_eps,2022.2.5,Linux x86_64,58.82352941,5f764794f90c7d0ca0eb15df,64aea9d0f615b6559c281482,64becb7838258b6ea08fa33e,down,1,0.3,0.1786,2,0,0.42,,,,,,75,0,75,0,1,,,,,
,,227006,001,2023-07-24_20h05.41.770,arm3_eps,2022.2.5,Linux x86_64,58.82352941,5f764794f90c7d0ca0eb15df,64aea9d0f615b6559c281482,64becb7838258b6ea08fa33e,right,1,0.3,0.1786,2,0.000641906,0.518,,,,,,76,0,76,0,1,,,,,
,,227006,001,2023-07-24_20h05.41.770,arm3_eps,2022.2.5,Linux x86_64,58.82352941,5f764794f90c7d0ca0eb15df,64aea9d0f615b6559c281482,64becb7838258b6ea08fa33e,right,1,0.3,0.1786,2,-0.015487936,0.371,,,,,,77,0,77,0,1,,,,,
,,227006,001,2023-07-24_20h05.41.770,arm3_eps,2022.2.5,Linux x86_64,58.82352941,5f764794f90c7d0ca0eb15df,64aea9d0f615b6559c281482,64becb7838258b6ea08fa33e,right,1,0.3,0.1786,2,0.012738426,0.39,,,,,,78,0,78,0,1,,,,,
,,227006,001,2023-07-24_20h05.41.770,arm3_eps,2022.2.5,Linux x86_64,58.82352941,5f764794f90c7d0ca0eb15df,64aea9d0f615b6559c281482,64becb7838258b6ea08fa33e,right,1,0.3,0.1786,2,-0.000152068,0.406,,,,,,79,0,79,0,1,,,,,
,,227006,001,2023-07-24_20h05.41.770,arm3_eps,2022.2.5,Linux x86_64,58.82352941,5f764794f90c7d0ca0eb15df,64aea9d0f615b6559c281482,64becb7838258b6ea08fa33e,right,1,0.3,0.1786,2,-0.031182487,0.337,,,,,,80,0,80,0,1,,,,,
,,227006,001,2023-07-24_20h05.41.770,arm3_eps,2022.2.5,Linux x86_64,58.82352941,5f764794f90c7d0ca0eb15df,64aea9d0f615b6559c281482,64becb7838258b6ea08fa33e,right,1,0.3,0.1786,2,-0.02963901,0.354,,,,,,81,0,81,0,1,,,,,
,,227006,001,2023-07-24_20h05.41.770,arm3_eps,2022.2.5,Linux x86_64,58.82352941,5f764794f90c7d0ca0eb15df,64aea9d0f615b6559c281482,64becb7838258b6ea08fa33e,right,1,0.3,0.1786,2,-0.009345663,0.345,,,,,,82,0,82,0,1,,,,,
,,227006,001,2023-07-24_20h05.41.770,arm3_eps,2022.2.5,Linux x86_64,58.82352941,5f764794f90c7d0ca0eb15df,64aea9d0f615b6559c281482,64becb7838258b6ea08fa33e,right,1,0.3,0.1786,2,-0.009447104,0.354,,,,,,83,0,83,0,1,,,,,
,,227006,001,2023-07-24_20h05.41.770,arm3_eps,2022.2.5,Linux x86_64,58.82352941,5f764794f90c7d0ca0eb15df,64aea9d0f615b6559c281482,64becb7838258b6ea08fa33e,right,1,0.3,0.1786,2,0.013903404,0.737,,,,,,84,0,84,0,1,,,,,
,,227006,001,2023-07-24_20h05.41.770,arm3_eps,2022.2.5,Linux x86_64,58.82352941,5f764794f90c7d0ca0eb15df,64aea9d0f615b6559c281482,64becb7838258b6ea08fa33e,up,1,0.3,0.1786,2,0,0.386,,,,,,85,0,85,0,1,,,,,
,,227006,001,2023-07-24_20h05.41.770,arm3_eps,2022.2.5,Linux x86_64,58.82352941,5f764794f90c7d0ca0eb15df,64aea9d0f615b6559c281482,64becb7838258b6ea08fa33e,right,1,0.3,0.1786,2,0.030682039,0.508,,,,,,86,0,86,0,1,,,,,
,,227006,001,2023-07-24_20h05.41.770,arm3_eps,2022.2.5,Linux x86_64,58.82352941,5f764794f90c7d0ca0eb15df,64aea9d0f615b6559c281482,64becb7838258b6ea08fa33e,right,1,0.3,0.1786,2,0.060645836,0.46,,,,,,87,0,87,0,1,,,,,
,,227006,001,2023-07-24_20h05.41.770,arm3_eps,2022.2.5,Linux x86_64,58.82352941,5f764794f90c7d0ca0eb15df,64aea9d0f615b6559c281482,64becb7838258b6ea08fa33e,right,1,0.3,0.1786,2,0.05350129,0.288,,,,,,88,0,88,0,1,,,,,
,,227006,001,2023-07-24_20h05.41.770,arm3_eps,2022.2.5,Linux x86_64,58.82352941,5f764794f90c7d0ca0eb15df,64aea9d0f615b6559c281482,64becb7838258b6ea08fa33e,right,1,0.3,0.1786,2,0.046445719,0.286,,,,,,89,0,89,0,1,,,,,
,,227006,001,2023-07-24_20h05.41.770,arm3_eps,2022.2.5,Linux x86_64,58.82352941,5f764794f90c7d0ca0eb15df,64aea9d0f615b6559c281482,64becb7838258b6ea08fa33e,right,1,0.3,0.1786,2,0.035081049,0.32,,,,,,90,0,90,0,1,,,,,
,,227006,001,2023-07-24_20h05.41.770,arm3_eps,2022.2.5,Linux x86_64,58.82352941,5f764794f90c7d0ca0eb15df,64aea9d0f615b6559c281482,64becb7838258b6ea08fa33e,right,1,0.3,0.1786,2,0.030415781,0.373,,,,,,91,0,91,0,1,,,,,
,,227006,001,2023-07-24_20h05.41.770,arm3_eps,2022.2.5,Linux x86_64,58.82352941,5f764794f90c7d0ca0eb15df,64aea9d0f615b6559c281482,64becb7838258b6ea08fa33e,right,1,0.3,0.1786,2,0.046628647,0.637,,,,,,92,0,92,0,1,,,,,
,,227006,001,2023-07-24_20h05.41.770,arm3_eps,2022.2.5,Linux x86_64,58.82352941,5f764794f90c7d0ca0eb15df,64aea9d0f615b6559c281482,64becb7838258b6ea08fa33e,right,1,0.3,0.1786,2,0.042211814,0.372,,,,,,93,0,93,0,1,,,,,
,,227006,001,2023-07-24_20h05.41.770,arm3_eps,2022.2.5,Linux x86_64,58.82352941,5f764794f90c7d0ca0eb15df,64aea9d0f615b6559c281482,64becb7838258b6ea08fa33e,right,1,0.3,0.1786,2,0.060665666,0.418,,,,,,94,0,94,0,1,,,,,
,,227006,001,2023-07-24_20h05.41.770,arm3_eps,2022.2.5,Linux x86_64,58.82352941,5f764794f90c7d0ca0eb15df,64aea9d0f615b6559c281482,64becb7838258b6ea08fa33e,up,1,0.3,0.1786,2,0,0.421,,,,,,95,0,95,0,1,,,,,
,,227006,001,2023-07-24_20h05.41.770,arm3_eps,2022.2.5,Linux x86_64,58.82352941,5f764794f90c7d0ca0eb15df,64aea9d0f615b6559c281482,64becb7838258b6ea08fa33e,right,1,0.3,0.1786,2,-0.013623053,0.398,,,,,,96,0,96,0,1,,,,,
,,227006,001,2023-07-24_20h05.41.770,arm3_eps,2022.2.5,Linux x86_64,58.82352941,5f764794f90c7d0ca0eb15df,64aea9d0f615b6559c281482,64becb7838258b6ea08fa33e,right,1,0.3,0.1786,2,0.011648122,0.442,,,,,,97,0,97,0,1,,,,,
,,227006,001,2023-07-24_20h05.41.770,arm3_eps,2022.2.5,Linux x86_64,58.82352941,5f764794f90c7d0ca0eb15df,64aea9d0f615b6559c281482,64becb7838258b6ea08fa33e,right,1,0.3,0.1786,2,0.022906949,0.321,,,,,,98,0,98,0,1,,,,,
,,227006,001,2023-07-24_20h05.41.770,arm3_eps,2022.2.5,Linux x86_64,58.82352941,5f764794f90c7d0ca0eb15df,64aea9d0f615b6559c281482,64becb7838258b6ea08fa33e,right,1,0.3,0.1786,2,0.030183521,0.323,,,,,,99,0,99,0,1,,,,,
,,227006,001,2023-07-24_20h05.41.770,arm3_eps,2022.2.5,Linux x86_64,58.82352941,5f764794f90c7d0ca0eb15df,64aea9d0f615b6559c281482,64becb7838258b6ea08fa33e,right,1,0.3,0.1786,2,0.012100376,0.453,,,,,,100,0,100,0,1,,,,,
,,227006,001,2023-07-24_20h05.41.770,arm3_eps,2022.2.5,Linux x86_64,58.82352941,5f764794f90c7d0ca0eb15df,64aea9d0f615b6559c281482,64becb7838258b6ea08fa33e,right,1,0.3,0.1786,2,0.033384994,0.356,,,,,,101,0,101,0,1,,,,,
,,227006,001,2023-07-24_20h05.41.770,arm3_eps,2022.2.5,Linux x86_64,58.82352941,5f764794f90c7d0ca0eb15df,64aea9d0f615b6559c281482,64becb7838258b6ea08fa33e,right,1,0.3,0.1786,2,0.052706415,0.454,,,,,,102,0,102,0,1,,,,,
,,227006,001,2023-07-24_20h05.41.770,arm3_eps,2022.2.5,Linux x86_64,58.82352941,5f764794f90c7d0ca0eb15df,64aea9d0f615b6559c281482,64becb7838258b6ea08fa33e,up,1,0.3,0.1786,3,0,0.552,,,,,,103,0,103,0,1,,,,,
,,227006,001,2023-07-24_20h05.41.770,arm3_eps,2022.2.5,Linux x86_64,58.82352941,5f764794f90c7d0ca0eb15df,64aea9d0f615b6559c281482,64becb7838258b6ea08fa33e,right,1,0.3,0.1786,3,0.010837441,0.582,,,,,,104,0,104,0,1,,,,,
,,227006,001,2023-07-24_20h05.41.770,arm3_eps,2022.2.5,Linux x86_64,58.82352941,5f764794f90c7d0ca0eb15df,64aea9d0f615b6559c281482,64becb7838258b6ea08fa33e,right,1,0.3,0.1786,3,0.014522595,0.387,,,,,,105,0,105,0,1,,,,,
,,227006,001,2023-07-24_20h05.41.770,arm3_eps,2022.2.5,Linux x86_64,58.82352941,5f764794f90c7d0ca0eb15df,64aea9d0f615b6559c281482,64becb7838258b6ea08fa33e,right,1,0.3,0.1786,3,0.016995773,0.371,,,,,,106,0,106,0,1,,,,,
,,227006,001,2023-07-24_20h05.41.770,arm3_eps,2022.2.5,Linux x86_64,58.82352941,5f764794f90c7d0ca0eb15df,64aea9d0f615b6559c281482,64becb7838258b6ea08fa33e,right,1,0.3,0.1786,3,0.046056262,0.369,,,,,,107,0,107,0,1,,,,,
,,227006,001,2023-07-24_20h05.41.770,arm3_eps,2022.2.5,Linux x86_64,58.82352941,5f764794f90c7d0ca0eb15df,64aea9d0f615b6559c281482,64becb7838258b6ea08fa33e,right,1,0.3,0.1786,3,0.059642813,0.492,,,,,,108,0,108,0,1,,,,,
,,227006,001,2023-07-24_20h05.41.770,arm3_eps,2022.2.5,Linux x86_64,58.82352941,5f764794f90c7d0ca0eb15df,64aea9d0f615b6559c281482,64becb7838258b6ea08fa33e,right,1,0.3,0.1786,3,0.055575678,0.451,,,,,,109,0,109,0,1,,,,,
,,227006,001,2023-07-24_20h05.41.770,arm3_eps,2022.2.5,Linux x86_64,58.82352941,5f764794f90c7d0ca0eb15df,64aea9d0f615b6559c281482,64becb7838258b6ea08fa33e,right,1,0.3,0.1786,3,0.052904807,0.403,,,,,,110,0,110,0,1,,,,,
,,227006,001,2023-07-24_20h05.41.770,arm3_eps,2022.2.5,Linux x86_64,58.82352941,5f764794f90c7d0ca0eb15df,64aea9d0f615b6559c281482,64becb7838258b6ea08fa33e,right,1,0.3,0.1786,3,0.04109879,0.42,,,,,,111,0,111,0,1,,,,,
,,227006,001,2023-07-24_20h05.41.770,arm3_eps,2022.2.5,Linux x86_64,58.82352941,5f764794f90c7d0ca0eb15df,64aea9d0f615b6559c281482,64becb7838258b6ea08fa33e,right,1,0.3,0.1786,3,0.061798894,0.488,,,,,,112,0,112,0,1,,,,,
,,227006,001,2023-07-24_20h05.41.770,arm3_eps,2022.2.5,Linux x86_64,58.82352941,5f764794f90c7d0ca0eb15df,64aea9d0f615b6559c281482,64becb7838258b6ea08fa33e,up,1,0.3,0.1786,4,0,0.42,,,,,,113,0,113,0,1,,,,,
,,227006,001,2023-07-24_20h05.41.770,arm3_eps,2022.2.5,Linux x86_64,58.82352941,5f764794f90c7d0ca0eb15df,64aea9d0f615b6559c281482,64becb7838258b6ea08fa33e,right,1,0.3,0.1786,4,0.003145561,0.401,,,,,,114,0,114,0,1,,,,,
,,227006,001,2023-07-24_20h05.41.770,arm3_eps,2022.2.5,Linux x86_64,58.82352941,5f764794f90c7d0ca0eb15df,64aea9d0f615b6559c281482,64becb7838258b6ea08fa33e,right,1,0.3,0.1786,4,0.018495617,0.341,,,,,,115,0,115,0,1,,,,,
,,227006,001,2023-07-24_20h05.41.770,arm3_eps,2022.2.5,Linux x86_64,58.82352941,5f764794f90c7d0ca0eb15df,64aea9d0f615b6559c281482,64becb7838258b6ea08fa33e,right,1,0.3,0.1786,4,0.016650374,0.287,,,,,,116,0,116,0,1,,,,,
,,227006,001,2023-07-24_20h05.41.770,arm3_eps,2022.2.5,Linux x86_64,58.82352941,5f764794f90c7d0ca0eb15df,64aea9d0f615b6559c281482,64becb7838258b6ea08fa33e,right,1,0.3,0.1786,4,0.011378261,0.372,,,,,,117,0,117,0,1,,,,,
,,227006,001,2023-07-24_20h05.41.770,arm3_eps,2022.2.5,Linux x86_64,58.82352941,5f764794f90c7d0ca0eb15df,64aea9d0f615b6559c281482,64becb7838258b6ea08fa33e,right,1,0.3,0.1786,4,0.019522756,0.453,,,,,,118,0,118,0,1,,,,,
,,227006,001,2023-07-24_20h05.41.770,arm3_eps,2022.2.5,Linux x86_64,58.82352941,5f764794f90c7d0ca0eb15df,64aea9d0f615b6559c281482,64becb7838258b6ea08fa33e,right,1,0.3,0.1786,4,0.020451491,0.37,,,,,,119,0,119,0,1,,,,,
,,227006,001,2023-07-24_20h05.41.770,arm3_eps,2022.2.5,Linux x86_64,58.82352941,5f764794f90c7d0ca0eb15df,64aea9d0f615b6559c281482,64becb7838258b6ea08fa33e,up,1,0.3,0.1786,4,0,0.594,,,,,,120,0,120,0,1,,,,,
,,227006,001,2023-07-24_20h05.41.770,arm3_eps,2022.2.5,Linux x86_64,58.82352941,5f764794f90c7d0ca0eb15df,64aea9d0f615b6559c281482,64becb7838258b6ea08fa33e,right,1,0.3,0.1786,4,-0.01397733,0.432,,,,,,121,0,121,0,1,,,,,
,,227006,001,2023-07-24_20h05.41.770,arm3_eps,2022.2.5,Linux x86_64,58.82352941,5f764794f90c7d0ca0eb15df,64aea9d0f615b6559c281482,64becb7838258b6ea08fa33e,right,1,0.3,0.1786,4,0.002066915,0.343,,,,,,122,0,122,0,1,,,,,
,,227006,001,2023-07-24_20h05.41.770,arm3_eps,2022.2.5,Linux x86_64,58.82352941,5f764794f90c7d0ca0eb15df,64aea9d0f615b6559c281482,64becb7838258b6ea08fa33e,right,1,0.3,0.1786,4,0.000975519,0.302,,,,,,123,0,123,0,1,,,,,
,,227006,001,2023-07-24_20h05.41.770,arm3_eps,2022.2.5,Linux x86_64,58.82352941,5f764794f90c7d0ca0eb15df,64aea9d0f615b6559c281482,64becb7838258b6ea08fa33e,right,1,0.3,0.1786,4,0.023324669,0.27,,,,,,124,0,124,0,1,,,,,
,,227006,001,2023-07-24_20h05.41.770,arm3_eps,2022.2.5,Linux x86_64,58.82352941,5f764794f90c7d0ca0eb15df,64aea9d0f615b6559c281482,64becb7838258b6ea08fa33e,right,1,0.3,0.1786,4,0.023021995,0.29,,,,,,125,0,125,0,1,,,,,
,,227006,001,2023-07-24_20h05.41.770,arm3_eps,2022.2.5,Linux x86_64,58.82352941,5f764794f90c7d0ca0eb15df,64aea9d0f615b6559c281482,64becb7838258b6ea08fa33e,right,1,0.3,0.1786,4,0.055173604,0.454,,,,,,126,0,126,0,1,,,,,
,,227006,001,2023-07-24_20h05.41.770,arm3_eps,2022.2.5,Linux x86_64,58.82352941,5f764794f90c7d0ca0eb15df,64aea9d0f615b6559c281482,64becb7838258b6ea08fa33e,up,1,0.3,0.1786,5,0,0.443,,,,,,127,0,127,0,1,,,,,
,,227006,001,2023-07-24_20h05.41.770,arm3_eps,2022.2.5,Linux x86_64,58.82352941,5f764794f90c7d0ca0eb15df,64aea9d0f615b6559c281482,64becb7838258b6ea08fa33e,right,1,0.3,0.1786,5,-0.000614348,0.398,,,,,,128,0,128,0,1,,,,,
,,227006,001,2023-07-24_20h05.41.770,arm3_eps,2022.2.5,Linux x86_64,58.82352941,5f764794f90c7d0ca0eb15df,64aea9d0f615b6559c281482,64becb7838258b6ea08fa33e,right,1,0.3,0.1786,5,-0.001644173,0.343,,,,,,129,0,129,0,1,,,,,
,,227006,001,2023-07-24_20h05.41.770,arm3_eps,2022.2.5,Linux x86_64,58.82352941,5f764794f90c7d0ca0eb15df,64aea9d0f615b6559c281482,64becb7838258b6ea08fa33e,right,1,0.3,0.1786,5,0.014841806,0.338,,,,,,130,0,130,0,1,,,,,
,,227006,001,2023-07-24_20h05.41.770,arm3_eps,2022.2.5,Linux x86_64,58.82352941,5f764794f90c7d0ca0eb15df,64aea9d0f615b6559c281482,64becb7838258b6ea08fa33e,right,1,0.3,0.1786,5,0.020931544,0.325,,,,,,131,0,131,0,1,,,,,
,,227006,001,2023-07-24_20h05.41.770,arm3_eps,2022.2.5,Linux x86_64,58.82352941,5f764794f90c7d0ca0eb15df,64aea9d0f615b6559c281482,64becb7838258b6ea08fa33e,right,1,0.3,0.1786,5,0.045512712,0.402,,,,,,132,0,132,0,1,,,,,
,,227006,001,2023-07-24_20h05.41.770,arm3_eps,2022.2.5,Linux x86_64,58.82352941,5f764794f90c7d0ca0eb15df,64aea9d0f615b6559c281482,64becb7838258b6ea08fa33e,right,1,0.3,0.1786,5,0.049869,0.423,,,,,,133,0,133,0,1,,,,,
,,227006,001,2023-07-24_20h05.41.770,arm3_eps,2022.2.5,Linux x86_64,58.82352941,5f764794f90c7d0ca0eb15df,64aea9d0f615b6559c281482,64becb7838258b6ea08fa33e,right,1,0.3,0.1786,5,0.043130755,0.437,,,,,,134,0,134,0,1,,,,,
,,227006,001,2023-07-24_20h05.41.770,arm3_eps,2022.2.5,Linux x86_64,58.82352941,5f764794f90c7d0ca0eb15df,64aea9d0f615b6559c281482,64becb7838258b6ea08fa33e,right,1,0.3,0.1786,5,0.017761918,0.42,,,,,,135,0,135,0,1,,,,,
,,227006,001,2023-07-24_20h05.41.770,arm3_eps,2022.2.5,Linux x86_64,58.82352941,5f764794f90c7d0ca0eb15df,64aea9d0f615b6559c281482,64becb7838258b6ea08fa33e,right,1,0.3,0.1786,5,0.010544704,0.425,,,,,,136,0,136,0,1,,,,,
,,227006,001,2023-07-24_20h05.41.770,arm3_eps,2022.2.5,Linux x86_64,58.82352941,5f764794f90c7d0ca0eb15df,64aea9d0f615b6559c281482,64becb7838258b6ea08fa33e,down,1,0.3,0.1786,4,0,0.52,,,,,,137,0,137,0,1,,,,,
,,227006,001,2023-07-24_20h05.41.770,arm3_eps,2022.2.5,Linux x86_64,58.82352941,5f764794f90c7d0ca0eb15df,64aea9d0f615b6559c281482,64becb7838258b6ea08fa33e,right,1,0.3,0.1786,4,-0.002171873,0.533,,,,,,138,0,138,0,1,,,,,
,,227006,001,2023-07-24_20h05.41.770,arm3_eps,2022.2.5,Linux x86_64,58.82352941,5f764794f90c7d0ca0eb15df,64aea9d0f615b6559c281482,64becb7838258b6ea08fa33e,right,1,0.3,0.1786,4,0.01161685,0.404,,,,,,139,0,139,0,1,,,,,
,,227006,001,2023-07-24_20h05.41.770,arm3_eps,2022.2.5,Linux x86_64,58.82352941,5f764794f90c7d0ca0eb15df,64aea9d0f615b6559c281482,64becb7838258b6ea08fa33e,right,1,0.3,0.1786,4,0.018112936,0.354,,,,,,140,0,140,0,1,,,,,
,,227006,001,2023-07-24_20h05.41.770,arm3_eps,2022.2.5,Linux x86_64,58.82352941,5f764794f90c7d0ca0eb15df,64aea9d0f615b6559c281482,64becb7838258b6ea08fa33e,right,1,0.3,0.1786,4,0.047836178,0.326,,,,,,141,0,141,0,1,,,,,
,,227006,001,2023-07-24_20h05.41.770,arm3_eps,2022.2.5,Linux x86_64,58.82352941,5f764794f90c7d0ca0eb15df,64aea9d0f615b6559c281482,64becb7838258b6ea08fa33e,right,1,0.3,0.1786,4,0.029625807,0.37,,,,,,142,0,142,0,1,,,,,
,,227006,001,2023-07-24_20h05.41.770,arm3_eps,2022.2.5,Linux x86_64,58.82352941,5f764794f90c7d0ca0eb15df,64aea9d0f615b6559c281482,64becb7838258b6ea08fa33e,right,1,0.3,0.1786,4,0.011150428,0.354,,,,,,143,0,143,0,1,,,,,
,,227006,001,2023-07-24_20h05.41.770,arm3_eps,2022.2.5,Linux x86_64,58.82352941,5f764794f90c7d0ca0eb15df,64aea9d0f615b6559c281482,64becb7838258b6ea08fa33e,right,1,0.3,0.1786,4,0.010297043,0.37,,,,,,144,0,144,0,1,,,,,
,,227006,001,2023-07-24_20h05.41.770,arm3_eps,2022.2.5,Linux x86_64,58.82352941,5f764794f90c7d0ca0eb15df,64aea9d0f615b6559c281482,64becb7838258b6ea08fa33e,right,1,0.3,0.1786,4,-0.001068982,0.387,,,,,,145,0,145,0,1,,,,,
,,227006,001,2023-07-24_20h05.41.770,arm3_eps,2022.2.5,Linux x86_64,58.82352941,5f764794f90c7d0ca0eb15df,64aea9d0f615b6559c281482,64becb7838258b6ea08fa33e,down,1,0.3,0.1786,4,0,0.371,,,,,,146,0,146,0,1,,,,,
,,227006,001,2023-07-24_20h05.41.770,arm3_eps,2022.2.5,Linux x86_64,58.82352941,5f764794f90c7d0ca0eb15df,64aea9d0f615b6559c281482,64becb7838258b6ea08fa33e,right,1,0.3,0.1786,4,0.015245433,0.499,,,,,,147,0,147,0,1,,,,,
,,227006,001,2023-07-24_20h05.41.770,arm3_eps,2022.2.5,Linux x86_64,58.82352941,5f764794f90c7d0ca0eb15df,64aea9d0f615b6559c281482,64becb7838258b6ea08fa33e,right,1,0.3,0.1786,4,0.009088571,0.325,,,,,,148,0,148,0,1,,,,,
,,227006,001,2023-07-24_20h05.41.770,arm3_eps,2022.2.5,Linux x86_64,58.82352941,5f764794f90c7d0ca0eb15df,64aea9d0f615b6559c281482,64becb7838258b6ea08fa33e,right,1,0.3,0.1786,4,0.033800395,0.242,,,,,,149,0,149,0,1,,,,,
,,227006,001,2023-07-24_20h05.41.770,arm3_eps,2022.2.5,Linux x86_64,58.82352941,5f764794f90c7d0ca0eb15df,64aea9d0f615b6559c281482,64becb7838258b6ea08fa33e,right,1,0.3,0.1786,4,0.03665378,0.288,,,,,,150,0,150,0,1,,,,,
,,227006,001,2023-07-24_20h05.41.770,arm3_eps,2022.2.5,Linux x86_64,58.82352941,5f764794f90c7d0ca0eb15df,64aea9d0f615b6559c281482,64becb7838258b6ea08fa33e,right,1,0.3,0.1786,4,0.047343134,0.37,,,,,,151,0,151,0,1,,,,,
,,227006,001,2023-07-24_20h05.41.770,arm3_eps,2022.2.5,Linux x86_64,58.82352941,5f764794f90c7d0ca0eb15df,64aea9d0f615b6559c281482,64becb7838258b6ea08fa33e,right,1,0.3,0.1786,4,0.03057241,0.404,,,,,,152,0,152,0,1,,,,,
,,227006,001,2023-07-24_20h05.41.770,arm3_eps,2022.2.5,Linux x86_64,58.82352941,5f764794f90c7d0ca0eb15df,64aea9d0f615b6559c281482,64becb7838258b6ea08fa33e,right,1,0.3,0.1786,4,0.065567899,0.402,,,,,,153,0,153,0,1,,,,,
,,227006,001,2023-07-24_20h05.41.770,arm3_eps,2022.2.5,Linux x86_64,58.82352941,5f764794f90c7d0ca0eb15df,64aea9d0f615b6559c281482,64becb7838258b6ea08fa33e,right,1,0.3,0.1786,4,0.068538488,0.395,,,,,,154,0,154,0,1,,,,,
,,227006,001,2023-07-24_20h05.41.770,arm3_eps,2022.2.5,Linux x86_64,58.82352941,5f764794f90c7d0ca0eb15df,64aea9d0f615b6559c281482,64becb7838258b6ea08fa33e,up,1,0.3,0.1786,4,0,0.353,,,,,,155,0,155,0,1,,,,,
,,227006,001,2023-07-24_20h05.41.770,arm3_eps,2022.2.5,Linux x86_64,58.82352941,5f764794f90c7d0ca0eb15df,64aea9d0f615b6559c281482,64becb7838258b6ea08fa33e,right,1,0.3,0.1786,4,0.018926111,0.434,,,,,,156,0,156,0,1,,,,,
,,227006,001,2023-07-24_20h05.41.770,arm3_eps,2022.2.5,Linux x86_64,58.82352941,5f764794f90c7d0ca0eb15df,64aea9d0f615b6559c281482,64becb7838258b6ea08fa33e,right,1,0.3,0.1786,4,0.056546575,0.354,,,,,,157,0,157,0,1,,,,,
,,227006,001,2023-07-24_20h05.41.770,arm3_eps,2022.2.5,Linux x86_64,58.82352941,5f764794f90c7d0ca0eb15df,64aea9d0f615b6559c281482,64becb7838258b6ea08fa33e,right,1,0.3,0.1786,4,0.036204802,0.302,,,,,,158,0,158,0,1,,,,,
,,227006,001,2023-07-24_20h05.41.770,arm3_eps,2022.2.5,Linux x86_64,58.82352941,5f764794f90c7d0ca0eb15df,64aea9d0f615b6559c281482,64becb7838258b6ea08fa33e,right,1,0.3,0.1786,4,0.027966174,0.277,,,,,,159,0,159,0,1,,,,,
,,227006,001,2023-07-24_20h05.41.770,arm3_eps,2022.2.5,Linux x86_64,58.82352941,5f764794f90c7d0ca0eb15df,64aea9d0f615b6559c281482,64becb7838258b6ea08fa33e,right,1,0.3,0.1786,4,0.030317503,0.369,,,,,,160,0,160,0,1,,,,,
,,227006,001,2023-07-24_20h05.41.770,arm3_eps,2022.2.5,Linux x86_64,58.82352941,5f764794f90c7d0ca0eb15df,64aea9d0f615b6559c281482,64becb7838258b6ea08fa33e,right,1,0.3,0.1786,4,0.024215509,0.322,,,,,,161,0,161,0,1,,,,,
,,227006,001,2023-07-24_20h05.41.770,arm3_eps,2022.2.5,Linux x86_64,58.82352941,5f764794f90c7d0ca0eb15df,64aea9d0f615b6559c281482,64becb7838258b6ea08fa33e,right,1,0.3,0.1786,4,0.047073581,0.347,,,,,,162,0,162,0,1,,,,,
,,227006,001,2023-07-24_20h05.41.770,arm3_eps,2022.2.5,Linux x86_64,58.82352941,5f764794f90c7d0ca0eb15df,64aea9d0f615b6559c281482,64becb7838258b6ea08fa33e,right,1,0.3,0.1786,4,0.076457723,0.449,,,,,,163,0,163,0,1,,,,,
,,227006,001,2023-07-24_20h05.41.770,arm3_eps,2022.2.5,Linux x86_64,58.82352941,5f764794f90c7d0ca0eb15df,64aea9d0f615b6559c281482,64becb7838258b6ea08fa33e,right,1,0.3,0.1786,4,0.096683247,0.386,,,,,,164,0,164,0,1,,,,,
,,227006,001,2023-07-24_20h05.41.770,arm3_eps,2022.2.5,Linux x86_64,58.82352941,5f764794f90c7d0ca0eb15df,64aea9d0f615b6559c281482,64becb7838258b6ea08fa33e,up,1,0.3,0.1786,4,0,0.475,,,,,,165,0,165,0,1,,,,,
,,227006,001,2023-07-24_20h05.41.770,arm3_eps,2022.2.5,Linux x86_64,58.82352941,5f764794f90c7d0ca0eb15df,64aea9d0f615b6559c281482,64becb7838258b6ea08fa33e,right,1,0.3,0.1786,4,-0.00527095,0.435,,,,,,166,0,166,0,1,,,,,
,,227006,001,2023-07-24_20h05.41.770,arm3_eps,2022.2.5,Linux x86_64,58.82352941,5f764794f90c7d0ca0eb15df,64aea9d0f615b6559c281482,64becb7838258b6ea08fa33e,right,1,0.3,0.1786,4,-0.016875473,0.453,,,,,,167,0,167,0,1,,,,,
,,227006,001,2023-07-24_20h05.41.770,arm3_eps,2022.2.5,Linux x86_64,58.82352941,5f764794f90c7d0ca0eb15df,64aea9d0f615b6559c281482,64becb7838258b6ea08fa33e,right,1,0.3,0.1786,4,-0.001062593,0.453,,,,,,168,0,168,0,1,,,,,
,,227006,001,2023-07-24_20h05.41.770,arm3_eps,2022.2.5,Linux x86_64,58.82352941,5f764794f90c7d0ca0eb15df,64aea9d0f615b6559c281482,64becb7838258b6ea08fa33e,right,1,0.3,0.1786,4,0.047398365,0.392,,,,,,169,0,169,0,1,,,,,
,,227006,001,2023-07-24_20h05.41.770,arm3_eps,2022.2.5,Linux x86_64,58.82352941,5f764794f90c7d0ca0eb15df,64aea9d0f615b6559c281482,64becb7838258b6ea08fa33e,right,1,0.3,0.1786,4,0.053662544,0.403,,,,,,170,0,170,0,1,,,,,
,,227006,001,2023-07-24_20h05.41.770,arm3_eps,2022.2.5,Linux x86_64,58.82352941,5f764794f90c7d0ca0eb15df,64aea9d0f615b6559c281482,64becb7838258b6ea08fa33e,right,1,0.3,0.1786,4,0.048312794,0.359,,,,,,171,0,171,0,1,,,,,
,,227006,001,2023-07-24_20h05.41.770,arm3_eps,2022.2.5,Linux x86_64,58.82352941,5f764794f90c7d0ca0eb15df,64aea9d0f615b6559c281482,64becb7838258b6ea08fa33e,right,1,0.3,0.1786,4,0.061193636,0.976,,,,,,172,0,172,0,1,,,,,
,,227006,001,2023-07-24_20h05.41.770,arm3_eps,2022.2.5,Linux x86_64,58.82352941,5f764794f90c7d0ca0eb15df,64aea9d0f615b6559c281482,64becb7838258b6ea08fa33e,right,1,0.3,0.1786,4,0.081359052,0.488,,,,,,173,0,173,0,1,,,,,
,,227006,001,2023-07-24_20h05.41.770,arm3_eps,2022.2.5,Linux x86_64,58.82352941,5f764794f90c7d0ca0eb15df,64aea9d0f615b6559c281482,64becb7838258b6ea08fa33e,up,1,0.3,0.1786,4,0,0.309,,,,,,174,0,174,0,1,,,,,
,,227006,001,2023-07-24_20h05.41.770,arm3_eps,2022.2.5,Linux x86_64,58.82352941,5f764794f90c7d0ca0eb15df,64aea9d0f615b6559c281482,64becb7838258b6ea08fa33e,right,1,0.3,0.1786,4,0.022120608,0.4,,,,,,175,0,175,0,1,,,,,
,,227006,001,2023-07-24_20h05.41.770,arm3_eps,2022.2.5,Linux x86_64,58.82352941,5f764794f90c7d0ca0eb15df,64aea9d0f615b6559c281482,64becb7838258b6ea08fa33e,right,1,0.3,0.1786,4,0.036738242,0.392,,,,,,176,0,176,0,1,,,,,
,,227006,001,2023-07-24_20h05.41.770,arm3_eps,2022.2.5,Linux x86_64,58.82352941,5f764794f90c7d0ca0eb15df,64aea9d0f615b6559c281482,64becb7838258b6ea08fa33e,right,1,0.3,0.1786,4,0.028979385,0.37,,,,,,177,0,177,0,1,,,,,
,,227006,001,2023-07-24_20h05.41.770,arm3_eps,2022.2.5,Linux x86_64,58.82352941,5f764794f90c7d0ca0eb15df,64aea9d0f615b6559c281482,64becb7838258b6ea08fa33e,right,1,0.3,0.1786,4,0.041025902,0.337,,,,,,178,0,178,0,1,,,,,
,,227006,001,2023-07-24_20h05.41.770,arm3_eps,2022.2.5,Linux x86_64,58.82352941,5f764794f90c7d0ca0eb15df,64aea9d0f615b6559c281482,64becb7838258b6ea08fa33e,right,1,0.3,0.1786,4,0.030118546,0.291,,,,,,179,0,179,0,1,,,,,
,,227006,001,2023-07-24_20h05.41.770,arm3_eps,2022.2.5,Linux x86_64,58.82352941,5f764794f90c7d0ca0eb15df,64aea9d0f615b6559c281482,64becb7838258b6ea08fa33e,right,1,0.3,0.1786,4,0.035061655,0.359,,,,,,180,0,180,0,1,,,,,
,,227006,001,2023-07-24_20h05.41.770,arm3_eps,2022.2.5,Linux x86_64,58.82352941,5f764794f90c7d0ca0eb15df,64aea9d0f615b6559c281482,64becb7838258b6ea08fa33e,right,1,0.3,0.1786,4,0.044119295,0.355,,,,,,181,0,181,0,1,,,,,
,,227006,001,2023-07-24_20h05.41.770,arm3_eps,2022.2.5,Linux x86_64,58.82352941,5f764794f90c7d0ca0eb15df,64aea9d0f615b6559c281482,64becb7838258b6ea08fa33e,right,1,0.3,0.1786,4,0.045442306,0.37,,,,,,182,0,182,0,1,,,,,
,,227006,001,2023-07-24_20h05.41.770,arm3_eps,2022.2.5,Linux x86_64,58.82352941,5f764794f90c7d0ca0eb15df,64aea9d0f615b6559c281482,64becb7838258b6ea08fa33e,right,1,0.3,0.1786,4,0.064134896,0.553,,,,,,183,0,183,0,1,,,,,
,,227006,001,2023-07-24_20h05.41.770,arm3_eps,2022.2.5,Linux x86_64,58.82352941,5f764794f90c7d0ca0eb15df,64aea9d0f615b6559c281482,64becb7838258b6ea08fa33e,right,1,0.3,0.1786,4,0.107188519,0.57,,,,,,184,0,184,0,1,,,,,
,,227006,001,2023-07-24_20h05.41.770,arm3_eps,2022.2.5,Linux x86_64,58.82352941,5f764794f90c7d0ca0eb15df,64aea9d0f615b6559c281482,64becb7838258b6ea08fa33e,up,1,0.3,0.1786,4,0,0.307,,,,,,185,0,185,0,1,,,,,
,,227006,001,2023-07-24_20h05.41.770,arm3_eps,2022.2.5,Linux x86_64,58.82352941,5f764794f90c7d0ca0eb15df,64aea9d0f615b6559c281482,64becb7838258b6ea08fa33e,right,1,0.3,0.1786,4,0.027654864,0.557,,,,,,186,0,186,0,1,,,,,
,,227006,001,2023-07-24_20h05.41.770,arm3_eps,2022.2.5,Linux x86_64,58.82352941,5f764794f90c7d0ca0eb15df,64aea9d0f615b6559c281482,64becb7838258b6ea08fa33e,right,1,0.3,0.1786,4,0.042616225,0.387,,,,,,187,0,187,0,1,,,,,
,,227006,001,2023-07-24_20h05.41.770,arm3_eps,2022.2.5,Linux x86_64,58.82352941,5f764794f90c7d0ca0eb15df,64aea9d0f615b6559c281482,64becb7838258b6ea08fa33e,right,1,0.3,0.1786,4,0.06278386,0.303,,,,,,188,0,188,0,1,,,,,
,,227006,001,2023-07-24_20h05.41.770,arm3_eps,2022.2.5,Linux x86_64,58.82352941,5f764794f90c7d0ca0eb15df,64aea9d0f615b6559c281482,64becb7838258b6ea08fa33e,right,1,0.3,0.1786,4,0.059995739,0.403,,,,,,189,0,189,0,1,,,,,
,,227006,001,2023-07-24_20h05.41.770,arm3_eps,2022.2.5,Linux x86_64,58.82352941,5f764794f90c7d0ca0eb15df,64aea9d0f615b6559c281482,64becb7838258b6ea08fa33e,right,1,0.3,0.1786,4,0.058975476,0.307,,,,,,190,0,190,0,1,,,,,
,,227006,001,2023-07-24_20h05.41.770,arm3_eps,2022.2.5,Linux x86_64,58.82352941,5f764794f90c7d0ca0eb15df,64aea9d0f615b6559c281482,64becb7838258b6ea08fa33e,right,1,0.3,0.1786,4,0.084128427,0.369,,,,,,191,0,191,0,1,,,,,
,,227006,001,2023-07-24_20h05.41.770,arm3_eps,2022.2.5,Linux x86_64,58.82352941,5f764794f90c7d0ca0eb15df,64aea9d0f615b6559c281482,64becb7838258b6ea08fa33e,up,1,0.3,0.1786,4,0,0.176,,,,,,192,0,192,0,1,,,,,
,,227006,001,2023-07-24_20h05.41.770,arm3_eps,2022.2.5,Linux x86_64,58.82352941,5f764794f90c7d0ca0eb15df,64aea9d0f615b6559c281482,64becb7838258b6ea08fa33e,right,1,0.3,0.1786,4,-0.022161654,0.385,,,,,,193,0,193,0,1,,,,,
,,227006,001,2023-07-24_20h05.41.770,arm3_eps,2022.2.5,Linux x86_64,58.82352941,5f764794f90c7d0ca0eb15df,64aea9d0f615b6559c281482,64becb7838258b6ea08fa33e,right,1,0.3,0.1786,4,-0.001919573,0.328,,,,,,194,0,194,0,1,,,,,
,,227006,001,2023-07-24_20h05.41.770,arm3_eps,2022.2.5,Linux x86_64,58.82352941,5f764794f90c7d0ca0eb15df,64aea9d0f615b6559c281482,64becb7838258b6ea08fa33e,right,1,0.3,0.1786,4,0.015212371,0.304,,,,,,195,0,195,0,1,,,,,
,,227006,001,2023-07-24_20h05.41.770,arm3_eps,2022.2.5,Linux x86_64,58.82352941,5f764794f90c7d0ca0eb15df,64aea9d0f615b6559c281482,64becb7838258b6ea08fa33e,right,1,0.3,0.1786,4,0.030231074,0.238,,,,,,196,0,196,0,1,,,,,
,,227006,001,2023-07-24_20h05.41.770,arm3_eps,2022.2.5,Linux x86_64,58.82352941,5f764794f90c7d0ca0eb15df,64aea9d0f615b6559c281482,64becb7838258b6ea08fa33e,right,1,0.3,0.1786,4,0.044027709,0.269,,,,,,197,0,197,0,1,,,,,
,,227006,001,2023-07-24_20h05.41.770,arm3_eps,2022.2.5,Linux x86_64,58.82352941,5f764794f90c7d0ca0eb15df,64aea9d0f615b6559c281482,64becb7838258b6ea08fa33e,right,1,0.3,0.1786,4,0.064732127,0.303,,,,,,198,0,198,0,1,,,,,
,,227006,001,2023-07-24_20h05.41.770,arm3_eps,2022.2.5,Linux x86_64,58.82352941,5f764794f90c7d0ca0eb15df,64aea9d0f615b6559c281482,64becb7838258b6ea08fa33e,right,1,0.3,0.1786,4,0.071606611,0.454,,,,,,199,0,199,0,1,,,,,
,,227006,001,2023-07-24_20h05.41.770,arm3_eps,2022.2.5,Linux x86_64,58.82352941,5f764794f90c7d0ca0eb15df,64aea9d0f615b6559c281482,64becb7838258b6ea08fa33e,up,1,0.3,0.1786,5,0,0.421,,,,,,200,0,200,0,1,,,,,
,,227006,001,2023-07-24_20h05.41.770,arm3_eps,2022.2.5,Linux x86_64,58.82352941,5f764794f90c7d0ca0eb15df,64aea9d0f615b6559c281482,64becb7838258b6ea08fa33e,right,1,0.3,0.1786,5,-0.050979448,0.318,,,,,,201,0,201,0,1,,,,,
,,227006,001,2023-07-24_20h05.41.770,arm3_eps,2022.2.5,Linux x86_64,58.82352941,5f764794f90c7d0ca0eb15df,64aea9d0f615b6559c281482,64becb7838258b6ea08fa33e,right,1,0.3,0.1786,5,-0.050605079,0.369,,,,,,202,0,202,0,1,,,,,
,,227006,001,2023-07-24_20h05.41.770,arm3_eps,2022.2.5,Linux x86_64,58.82352941,5f764794f90c7d0ca0eb15df,64aea9d0f615b6559c281482,64becb7838258b6ea08fa33e,right,1,0.3,0.1786,5,-0.036550361,0.259,,,,,,203,0,203,0,1,,,,,
,,227006,001,2023-07-24_20h05.41.770,arm3_eps,2022.2.5,Linux x86_64,58.82352941,5f764794f90c7d0ca0eb15df,64aea9d0f615b6559c281482,64becb7838258b6ea08fa33e,right,1,0.3,0.1786,5,-0.030899465,0.252,,,,,,204,0,204,0,1,,,,,
,,227006,001,2023-07-24_20h05.41.770,arm3_eps,2022.2.5,Linux x86_64,58.82352941,5f764794f90c7d0ca0eb15df,64aea9d0f615b6559c281482,64becb7838258b6ea08fa33e,right,1,0.3,0.1786,5,-0.035374286,0.371,,,,,,205,0,205,0,1,,,,,
,,227006,001,2023-07-24_20h05.41.770,arm3_eps,2022.2.5,Linux x86_64,58.82352941,5f764794f90c7d0ca0eb15df,64aea9d0f615b6559c281482,64becb7838258b6ea08fa33e,right,1,0.3,0.1786,5,-0.008537848,0.537,,,,,,206,0,206,0,1,,,,,
,,227006,001,2023-07-24_20h05.41.770,arm3_eps,2022.2.5,Linux x86_64,58.82352941,5f764794f90c7d0ca0eb15df,64aea9d0f615b6559c281482,64becb7838258b6ea08fa33e,right,1,0.3,0.1786,5,-0.042654849,0.257,,,,,,207,0,207,0,1,,,,,
,,227006,001,2023-07-24_20h05.41.770,arm3_eps,2022.2.5,Linux x86_64,58.82352941,5f764794f90c7d0ca0eb15df,64aea9d0f615b6559c281482,64becb7838258b6ea08fa33e,right,1,0.3,0.1786,5,-0.041118454,0.357,,,,,,208,0,208,0,1,,,,,
,,227006,001,2023-07-24_20h05.41.770,arm3_eps,2022.2.5,Linux x86_64,58.82352941,5f764794f90c7d0ca0eb15df,64aea9d0f615b6559c281482,64becb7838258b6ea08fa33e,right,1,0.3,0.1786,5,-0.035992066,0.326,,,,,,209,0,209,0,1,,,,,
,,227006,001,2023-07-24_20h05.41.770,arm3_eps,2022.2.5,Linux x86_64,58.82352941,5f764794f90c7d0ca0eb15df,64aea9d0f615b6559c281482,64becb7838258b6ea08fa33e,right,1,0.3,0.1786,5,-0.047735819,0.337,,,,,,210,0,210,0,1,,,,,
,,227006,001,2023-07-24_20h05.41.770,arm3_eps,2022.2.5,Linux x86_64,58.82352941,5f764794f90c7d0ca0eb15df,64aea9d0f615b6559c281482,64becb7838258b6ea08fa33e,right,1,0.3,0.1786,5,0.002334522,0.57,,,,,,211,0,211,0,1,,,,,
,,227006,001,2023-07-24_20h05.41.770,arm3_eps,2022.2.5,Linux x86_64,58.82352941,5f764794f90c7d0ca0eb15df,64aea9d0f615b6559c281482,64becb7838258b6ea08fa33e,right,1,0.3,0.1786,5,0.007203952,0.589,,,,,,212,0,212,0,1,,,,,
,,227006,001,2023-07-24_20h05.41.770,arm3_eps,2022.2.5,Linux x86_64,58.82352941,5f764794f90c7d0ca0eb15df,64aea9d0f615b6559c281482,64becb7838258b6ea08fa33e,up,1,0.3,0.1786,6,0,0.324,,,,,,213,0,213,0,1,,,,,
,,227006,001,2023-07-24_20h05.41.770,arm3_eps,2022.2.5,Linux x86_64,58.82352941,5f764794f90c7d0ca0eb15df,64aea9d0f615b6559c281482,64becb7838258b6ea08fa33e,right,1,0.3,0.1786,6,0.023572205,0.419,,,,,,214,0,214,0,1,,,,,
,,227006,001,2023-07-24_20h05.41.770,arm3_eps,2022.2.5,Linux x86_64,58.82352941,5f764794f90c7d0ca0eb15df,64aea9d0f615b6559c281482,64becb7838258b6ea08fa33e,right,1,0.3,0.1786,6,0.049761191,0.371,,,,,,215,0,215,0,1,,,,,
,,227006,001,2023-07-24_20h05.41.770,arm3_eps,2022.2.5,Linux x86_64,58.82352941,5f764794f90c7d0ca0eb15df,64aea9d0f615b6559c281482,64becb7838258b6ea08fa33e,right,1,0.3,0.1786,6,0.034991972,0.327,,,,,,216,0,216,0,1,,,,,
,,227006,001,2023-07-24_20h05.41.770,arm3_eps,2022.2.5,Linux x86_64,58.82352941,5f764794f90c7d0ca0eb15df,64aea9d0f615b6559c281482,64becb7838258b6ea08fa33e,right,1,0.3,0.1786,6,0.068510132,0.32,,,,,,217,0,217,0,1,,,,,
,,227006,001,2023-07-24_20h05.41.770,arm3_eps,2022.2.5,Linux x86_64,58.82352941,5f764794f90c7d0ca0eb15df,64aea9d0f615b6559c281482,64becb7838258b6ea08fa33e,right,1,0.3,0.1786,6,0.102650196,0.338,,,,,,218,0,218,0,1,,,,,
,,227006,001,2023-07-24_20h05.41.770,arm3_eps,2022.2.5,Linux x86_64,58.82352941,5f764794f90c7d0ca0eb15df,64aea9d0f615b6559c281482,64becb7838258b6ea08fa33e,up,1,0.3,0.1786,6,0,0.238,,,,,,219,0,219,0,1,,,,,
,,227006,001,2023-07-24_20h05.41.770,arm3_eps,2022.2.5,Linux x86_64,58.82352941,5f764794f90c7d0ca0eb15df,64aea9d0f615b6559c281482,64becb7838258b6ea08fa33e,right,1,0.3,0.1786,6,0.000738913,0.384,,,,,,220,0,220,0,1,,,,,
,,227006,001,2023-07-24_20h05.41.770,arm3_eps,2022.2.5,Linux x86_64,58.82352941,5f764794f90c7d0ca0eb15df,64aea9d0f615b6559c281482,64becb7838258b6ea08fa33e,right,1,0.3,0.1786,6,-0.009131438,0.371,,,,,,221,0,221,0,1,,,,,
,,227006,001,2023-07-24_20h05.41.770,arm3_eps,2022.2.5,Linux x86_64,58.82352941,5f764794f90c7d0ca0eb15df,64aea9d0f615b6559c281482,64becb7838258b6ea08fa33e,right,1,0.3,0.1786,6,0.003282433,0.275,,,,,,222,0,222,0,1,,,,,
,,227006,001,2023-07-24_20h05.41.770,arm3_eps,2022.2.5,Linux x86_64,58.82352941,5f764794f90c7d0ca0eb15df,64aea9d0f615b6559c281482,64becb7838258b6ea08fa33e,right,1,0.3,0.1786,6,0.02112003,0.272,,,,,,223,0,223,0,1,,,,,
,,227006,001,2023-07-24_20h05.41.770,arm3_eps,2022.2.5,Linux x86_64,58.82352941,5f764794f90c7d0ca0eb15df,64aea9d0f615b6559c281482,64becb7838258b6ea08fa33e,right,1,0.3,0.1786,6,0.013767346,0.371,,,,,,224,0,224,0,1,,,,,
,,227006,001,2023-07-24_20h05.41.770,arm3_eps,2022.2.5,Linux x86_64,58.82352941,5f764794f90c7d0ca0eb15df,64aea9d0f615b6559c281482,64becb7838258b6ea08fa33e,right,1,0.3,0.1786,6,0.005725023,0.387,,,,,,225,0,225,0,1,,,,,
,,227006,001,2023-07-24_20h05.41.770,arm3_eps,2022.2.5,Linux x86_64,58.82352941,5f764794f90c7d0ca0eb15df,64aea9d0f615b6559c281482,64becb7838258b6ea08fa33e,right,1,0.3,0.1786,6,0.015148256,0.403,,,,,,226,0,226,0,1,,,,,
,,227006,001,2023-07-24_20h05.41.770,arm3_eps,2022.2.5,Linux x86_64,58.82352941,5f764794f90c7d0ca0eb15df,64aea9d0f615b6559c281482,64becb7838258b6ea08fa33e,right,1,0.3,0.1786,6,0.02039405,1.137,,,,,,227,0,227,0,1,,,,,
,,227006,001,2023-07-24_20h05.41.770,arm3_eps,2022.2.5,Linux x86_64,58.82352941,5f764794f90c7d0ca0eb15df,64aea9d0f615b6559c281482,64becb7838258b6ea08fa33e,up,-1,0.3,0.1786,7,0,0.553,,,,,,228,0,228,0,1,,,,,
,,227006,001,2023-07-24_20h05.41.770,arm3_eps,2022.2.5,Linux x86_64,58.82352941,5f764794f90c7d0ca0eb15df,64aea9d0f615b6559c281482,64becb7838258b6ea08fa33e,right,-1,0.3,0.1786,7,-0.007352173,0.366,,,,,,229,0,229,0,1,,,,,
,,227006,001,2023-07-24_20h05.41.770,arm3_eps,2022.2.5,Linux x86_64,58.82352941,5f764794f90c7d0ca0eb15df,64aea9d0f615b6559c281482,64becb7838258b6ea08fa33e,right,-1,0.3,0.1786,7,-0.018519691,0.343,,,,,,230,0,230,0,1,,,,,
,,227006,001,2023-07-24_20h05.41.770,arm3_eps,2022.2.5,Linux x86_64,58.82352941,5f764794f90c7d0ca0eb15df,64aea9d0f615b6559c281482,64becb7838258b6ea08fa33e,right,-1,0.3,0.1786,7,-0.025940881,0.338,,,,,,231,0,231,0,1,,,,,
,,227006,001,2023-07-24_20h05.41.770,arm3_eps,2022.2.5,Linux x86_64,58.82352941,5f764794f90c7d0ca0eb15df,64aea9d0f615b6559c281482,64becb7838258b6ea08fa33e,right,-1,0.3,0.1786,7,-0.047646799,0.357,,,,,,232,0,232,0,1,,,,,
,,227006,001,2023-07-24_20h05.41.770,arm3_eps,2022.2.5,Linux x86_64,58.82352941,5f764794f90c7d0ca0eb15df,64aea9d0f615b6559c281482,64becb7838258b6ea08fa33e,down,-1,0.3,0.1786,8,0,0.403,,,,,,233,0,233,0,1,,,,,
,,227006,001,2023-07-24_20h05.41.770,arm3_eps,2022.2.5,Linux x86_64,58.82352941,5f764794f90c7d0ca0eb15df,64aea9d0f615b6559c281482,64becb7838258b6ea08fa33e,right,-1,0.3,0.1786,8,0.00105475,0.37,,,,,,234,0,234,0,1,,,,,
,,227006,001,2023-07-24_20h05.41.770,arm3_eps,2022.2.5,Linux x86_64,58.82352941,5f764794f90c7d0ca0eb15df,64aea9d0f615b6559c281482,64becb7838258b6ea08fa33e,right,-1,0.3,0.1786,8,-0.034428183,0.337,,,,,,235,0,235,0,1,,,,,
,,227006,001,2023-07-24_20h05.41.770,arm3_eps,2022.2.5,Linux x86_64,58.82352941,5f764794f90c7d0ca0eb15df,64aea9d0f615b6559c281482,64becb7838258b6ea08fa33e,right,-1,0.3,0.1786,8,-0.042920532,0.376,,,,,,236,0,236,0,1,,,,,
,,227006,001,2023-07-24_20h05.41.770,arm3_eps,2022.2.5,Linux x86_64,58.82352941,5f764794f90c7d0ca0eb15df,64aea9d0f615b6559c281482,64becb7838258b6ea08fa33e,down,-1,0.3,0.1786,9,0,0.459,,,,,,237,0,237,0,1,,,,,
,,227006,001,2023-07-24_20h05.41.770,arm3_eps,2022.2.5,Linux x86_64,58.82352941,5f764794f90c7d0ca0eb15df,64aea9d0f615b6559c281482,64becb7838258b6ea08fa33e,right,-1,0.3,0.1786,9,-0.007553658,0.348,,,,,,238,0,238,0,1,,,,,
,,227006,001,2023-07-24_20h05.41.770,arm3_eps,2022.2.5,Linux x86_64,58.82352941,5f764794f90c7d0ca0eb15df,64aea9d0f615b6559c281482,64becb7838258b6ea08fa33e,right,-1,0.3,0.1786,9,-0.03802485,0.491,,,,,,239,0,239,0,1,,,,,
,,227006,001,2023-07-24_20h05.41.770,arm3_eps,2022.2.5,Linux x86_64,58.82352941,5f764794f90c7d0ca0eb15df,64aea9d0f615b6559c281482,64becb7838258b6ea08fa33e,right,-1,0.3,0.1786,9,-0.071692204,0.353,,,,,,240,0,240,0,1,,,,,
,,227006,001,2023-07-24_20h05.41.770,arm3_eps,2022.2.5,Linux x86_64,58.82352941,5f764794f90c7d0ca0eb15df,64aea9d0f615b6559c281482,64becb7838258b6ea08fa33e,right,-1,0.3,0.1786,9,-0.060216015,0.402,,,,,,241,0,241,0,1,,,,,
,,227006,001,2023-07-24_20h05.41.770,arm3_eps,2022.2.5,Linux x86_64,58.82352941,5f764794f90c7d0ca0eb15df,64aea9d0f615b6559c281482,64becb7838258b6ea08fa33e,right,-1,0.3,0.1786,9,-0.07655146,0.37,,,,,,242,0,242,0,1,,,,,
,,227006,001,2023-07-24_20h05.41.770,arm3_eps,2022.2.5,Linux x86_64,58.82352941,5f764794f90c7d0ca0eb15df,64aea9d0f615b6559c281482,64becb7838258b6ea08fa33e,down,-1,0.3,0.1786,10,0,0.35,,,,,,243,0,243,0,1,,,,,
,,227006,001,2023-07-24_20h05.41.770,arm3_eps,2022.2.5,Linux x86_64,58.82352941,5f764794f90c7d0ca0eb15df,64aea9d0f615b6559c281482,64becb7838258b6ea08fa33e,right,-1,0.3,0.1786,10,0.025773297,0.289,,,,,,244,0,244,0,1,,,,,
,,227006,001,2023-07-24_20h05.41.770,arm3_eps,2022.2.5,Linux x86_64,58.82352941,5f764794f90c7d0ca0eb15df,64aea9d0f615b6559c281482,64becb7838258b6ea08fa33e,right,-1,0.3,0.1786,10,0.000686334,0.271,,,,,,245,0,245,0,1,,,,,
,,227006,001,2023-07-24_20h05.41.770,arm3_eps,2022.2.5,Linux x86_64,58.82352941,5f764794f90c7d0ca0eb15df,64aea9d0f615b6559c281482,64becb7838258b6ea08fa33e,right,-1,0.3,0.1786,10,-0.001953763,0.34,,,,,,246,0,246,0,1,,,,,
,,227006,001,2023-07-24_20h05.41.770,arm3_eps,2022.2.5,Linux x86_64,58.82352941,5f764794f90c7d0ca0eb15df,64aea9d0f615b6559c281482,64becb7838258b6ea08fa33e,right,-1,0.3,0.1786,10,-0.004346453,0.27,,,,,,247,0,247,0,1,,,,,
,,227006,001,2023-07-24_20h05.41.770,arm3_eps,2022.2.5,Linux x86_64,58.82352941,5f764794f90c7d0ca0eb15df,64aea9d0f615b6559c281482,64becb7838258b6ea08fa33e,right,-1,0.3,0.1786,10,-0.000471339,0.339,,,,,,248,0,248,0,1,,,,,
,,227006,001,2023-07-24_20h05.41.770,arm3_eps,2022.2.5,Linux x86_64,58.82352941,5f764794f90c7d0ca0eb15df,64aea9d0f615b6559c281482,64becb7838258b6ea08fa33e,right,-1,0.3,0.1786,10,0.013446953,0.536,,,,,,249,0,249,0,1,,,,,
,,227006,001,2023-07-24_20h05.41.770,arm3_eps,2022.2.5,Linux x86_64,58.82352941,5f764794f90c7d0ca0eb15df,64aea9d0f615b6559c281482,64becb7838258b6ea08fa33e,right,-1,0.3,0.1786,10,0.017647923,0.558,,,,,,250,0,250,0,1,,,,,
,,227006,001,2023-07-24_20h05.41.770,arm3_eps,2022.2.5,Linux x86_64,58.82352941,5f764794f90c7d0ca0eb15df,64aea9d0f615b6559c281482,64becb7838258b6ea08fa33e,right,-1,0.3,0.1786,10,0.007665229,0.436,,,,,,251,0,251,0,1,,,,,
,,227006,001,2023-07-24_20h05.41.770,arm3_eps,2022.2.5,Linux x86_64,58.82352941,5f764794f90c7d0ca0eb15df,64aea9d0f615b6559c281482,64becb7838258b6ea08fa33e,right,-1,0.3,0.1786,10,-0.023684778,0.359,,,,,,252,0,252,0,1,,,,,
,,227006,001,2023-07-24_20h05.41.770,arm3_eps,2022.2.5,Linux x86_64,58.82352941,5f764794f90c7d0ca0eb15df,64aea9d0f615b6559c281482,64becb7838258b6ea08fa33e,right,-1,0.3,0.1786,10,-0.002115035,0.537,,,,,,253,0,253,0,1,,,,,
,,227006,001,2023-07-24_20h05.41.770,arm3_eps,2022.2.5,Linux x86_64,58.82352941,5f764794f90c7d0ca0eb15df,64aea9d0f615b6559c281482,64becb7838258b6ea08fa33e,right,-1,0.3,0.1786,10,0.002461503,0.409,,,,,,254,0,254,0,1,,,,,
,,227006,001,2023-07-24_20h05.41.770,arm3_eps,2022.2.5,Linux x86_64,58.82352941,5f764794f90c7d0ca0eb15df,64aea9d0f615b6559c281482,64becb7838258b6ea08fa33e,down,-1,0.3,0.1786,10,0,0.624,,,,,,255,0,255,0,1,,,,,
,,227006,001,2023-07-24_20h05.41.770,arm3_eps,2022.2.5,Linux x86_64,58.82352941,5f764794f90c7d0ca0eb15df,64aea9d0f615b6559c281482,64becb7838258b6ea08fa33e,right,-1,0.3,0.1786,10,-0.022711583,0.515,,,,,,256,0,256,0,1,,,,,
,,227006,001,2023-07-24_20h05.41.770,arm3_eps,2022.2.5,Linux x86_64,58.82352941,5f764794f90c7d0ca0eb15df,64aea9d0f615b6559c281482,64becb7838258b6ea08fa33e,right,-1,0.3,0.1786,10,-0.020532562,0.354,,,,,,257,0,257,0,1,,,,,
,,227006,001,2023-07-24_20h05.41.770,arm3_eps,2022.2.5,Linux x86_64,58.82352941,5f764794f90c7d0ca0eb15df,64aea9d0f615b6559c281482,64becb7838258b6ea08fa33e,right,-1,0.3,0.1786,10,-0.018694212,0.31,,,,,,258,0,258,0,1,,,,,
,,227006,001,2023-07-24_20h05.41.770,arm3_eps,2022.2.5,Linux x86_64,58.82352941,5f764794f90c7d0ca0eb15df,64aea9d0f615b6559c281482,64becb7838258b6ea08fa33e,right,-1,0.3,0.1786,10,-0.042007566,0.307,,,,,,259,0,259,0,1,,,,,
,,227006,001,2023-07-24_20h05.41.770,arm3_eps,2022.2.5,Linux x86_64,58.82352941,5f764794f90c7d0ca0eb15df,64aea9d0f615b6559c281482,64becb7838258b6ea08fa33e,right,-1,0.3,0.1786,10,-0.023604671,0.338,,,,,,260,0,260,0,1,,,,,
,,227006,001,2023-07-24_20h05.41.770,arm3_eps,2022.2.5,Linux x86_64,58.82352941,5f764794f90c7d0ca0eb15df,64aea9d0f615b6559c281482,64becb7838258b6ea08fa33e,right,-1,0.3,0.1786,10,-0.039465802,0.323,,,,,,261,0,261,0,1,,,,,
,,227006,001,2023-07-24_20h05.41.770,arm3_eps,2022.2.5,Linux x86_64,58.82352941,5f764794f90c7d0ca0eb15df,64aea9d0f615b6559c281482,64becb7838258b6ea08fa33e,down,-1,0.3,0.1786,11,0,0.455,,,,,,262,0,262,0,1,,,,,
,,227006,001,2023-07-24_20h05.41.770,arm3_eps,2022.2.5,Linux x86_64,58.82352941,5f764794f90c7d0ca0eb15df,64aea9d0f615b6559c281482,64becb7838258b6ea08fa33e,right,-1,0.3,0.1786,11,-0.003674322,0.333,,,,,,263,0,263,0,1,,,,,
,,227006,001,2023-07-24_20h05.41.770,arm3_eps,2022.2.5,Linux x86_64,58.82352941,5f764794f90c7d0ca0eb15df,64aea9d0f615b6559c281482,64becb7838258b6ea08fa33e,right,-1,0.3,0.1786,11,-0.013406162,0.342,,,,,,264,0,264,0,1,,,,,
,,227006,001,2023-07-24_20h05.41.770,arm3_eps,2022.2.5,Linux x86_64,58.82352941,5f764794f90c7d0ca0eb15df,64aea9d0f615b6559c281482,64becb7838258b6ea08fa33e,right,-1,0.3,0.1786,11,-0.02769738,0.37,,,,,,265,0,265,0,1,,,,,
,,227006,001,2023-07-24_20h05.41.770,arm3_eps,2022.2.5,Linux x86_64,58.82352941,5f764794f90c7d0ca0eb15df,64aea9d0f615b6559c281482,64becb7838258b6ea08fa33e,right,-1,0.3,0.1786,11,-0.026415108,0.392,,,,,,266,0,266,0,1,,,,,
,,227006,001,2023-07-24_20h05.41.770,arm3_eps,2022.2.5,Linux x86_64,58.82352941,5f764794f90c7d0ca0eb15df,64aea9d0f615b6559c281482,64becb7838258b6ea08fa33e,down,-1,0.3,0.1786,12,0,0.976,,,,,,267,0,267,0,1,,,,,
,,227006,001,2023-07-24_20h05.41.770,arm3_eps,2022.2.5,Linux x86_64,58.82352941,5f764794f90c7d0ca0eb15df,64aea9d0f615b6559c281482,64becb7838258b6ea08fa33e,right,-1,0.3,0.1786,12,-0.028980758,0.358,,,,,,268,0,268,0,1,,,,,
,,227006,001,2023-07-24_20h05.41.770,arm3_eps,2022.2.5,Linux x86_64,58.82352941,5f764794f90c7d0ca0eb15df,64aea9d0f615b6559c281482,64becb7838258b6ea08fa33e,right,-1,0.3,0.1786,12,-0.028912972,0.319,,,,,,269,0,269,0,1,,,,,
,,227006,001,2023-07-24_20h05.41.770,arm3_eps,2022.2.5,Linux x86_64,58.82352941,5f764794f90c7d0ca0eb15df,64aea9d0f615b6559c281482,64becb7838258b6ea08fa33e,right,-1,0.3,0.1786,12,-0.0335592,0.288,,,,,,270,0,270,0,1,,,,,
,,227006,001,2023-07-24_20h05.41.770,arm3_eps,2022.2.5,Linux x86_64,58.82352941,5f764794f90c7d0ca0eb15df,64aea9d0f615b6559c281482,64becb7838258b6ea08fa33e,right,-1,0.3,0.1786,12,-0.01867357,0.338,,,,,,271,0,271,0,1,,,,,
,,227006,001,2023-07-24_20h05.41.770,arm3_eps,2022.2.5,Linux x86_64,58.82352941,5f764794f90c7d0ca0eb15df,64aea9d0f615b6559c281482,64becb7838258b6ea08fa33e,right,-1,0.3,0.1786,12,-0.008196689,0.386,,,,,,272,0,272,0,1,,,,,
,,227006,001,2023-07-24_20h05.41.770,arm3_eps,2022.2.5,Linux x86_64,58.82352941,5f764794f90c7d0ca0eb15df,64aea9d0f615b6559c281482,64becb7838258b6ea08fa33e,right,-1,0.3,0.1786,12,0.012243186,0.47,,,,,,273,0,273,0,1,,,,,
,,227006,001,2023-07-24_20h05.41.770,arm3_eps,2022.2.5,Linux x86_64,58.82352941,5f764794f90c7d0ca0eb15df,64aea9d0f615b6559c281482,64becb7838258b6ea08fa33e,right,-1,0.3,0.1786,12,-0.002921237,0.528,,,,,,274,0,274,0,1,,,,,
,,227006,001,2023-07-24_20h05.41.770,arm3_eps,2022.2.5,Linux x86_64,58.82352941,5f764794f90c7d0ca0eb15df,64aea9d0f615b6559c281482,64becb7838258b6ea08fa33e,right,-1,0.3,0.1786,12,-0.009322655,0.42,,,,,,275,0,275,0,1,,,,,
,,227006,001,2023-07-24_20h05.41.770,arm3_eps,2022.2.5,Linux x86_64,58.82352941,5f764794f90c7d0ca0eb15df,64aea9d0f615b6559c281482,64becb7838258b6ea08fa33e,right,-1,0.3,0.1786,12,-0.045819577,0.489,,,,,,276,0,276,0,1,,,,,
,,227006,001,2023-07-24_20h05.41.770,arm3_eps,2022.2.5,Linux x86_64,58.82352941,5f764794f90c7d0ca0eb15df,64aea9d0f615b6559c281482,64becb7838258b6ea08fa33e,down,-1,0.3,0.1786,13,0,0.388,,,,,,277,0,277,0,1,,,,,
,,227006,001,2023-07-24_20h05.41.770,arm3_eps,2022.2.5,Linux x86_64,58.82352941,5f764794f90c7d0ca0eb15df,64aea9d0f615b6559c281482,64becb7838258b6ea08fa33e,right,-1,0.3,0.1786,13,-0.020622257,0.401,,,,,,278,0,278,0,1,,,,,
,,227006,001,2023-07-24_20h05.41.770,arm3_eps,2022.2.5,Linux x86_64,58.82352941,5f764794f90c7d0ca0eb15df,64aea9d0f615b6559c281482,64becb7838258b6ea08fa33e,right,-1,0.3,0.1786,13,-0.048915383,0.323,,,,,,279,0,279,0,1,,,,,
,,227006,001,2023-07-24_20h05.41.770,arm3_eps,2022.2.5,Linux x86_64,58.82352941,5f764794f90c7d0ca0eb15df,64aea9d0f615b6559c281482,64becb7838258b6ea08fa33e,right,-1,0.3,0.1786,13,-0.046900277,0.327,,,,,,280,0,280,0,1,,,,,
,,227006,001,2023-07-24_20h05.41.770,arm3_eps,2022.2.5,Linux x86_64,58.82352941,5f764794f90c7d0ca0eb15df,64aea9d0f615b6559c281482,64becb7838258b6ea08fa33e,right,-1,0.3,0.1786,13,-0.061026199,0.29,,,,,,281,0,281,0,1,,,,,
,,227006,001,2023-07-24_20h05.41.770,arm3_eps,2022.2.5,Linux x86_64,58.82352941,5f764794f90c7d0ca0eb15df,64aea9d0f615b6559c281482,64becb7838258b6ea08fa33e,right,-1,0.3,0.1786,13,-0.044382648,0.421,,,,,,282,0,282,0,1,,,,,
,,227006,001,2023-07-24_20h05.41.770,arm3_eps,2022.2.5,Linux x86_64,58.82352941,5f764794f90c7d0ca0eb15df,64aea9d0f615b6559c281482,64becb7838258b6ea08fa33e,right,-1,0.3,0.1786,13,-0.039190603,0.686,,,,,,283,0,283,0,1,,,,,
,,227006,001,2023-07-24_20h05.41.770,arm3_eps,2022.2.5,Linux x86_64,58.82352941,5f764794f90c7d0ca0eb15df,64aea9d0f615b6559c281482,64becb7838258b6ea08fa33e,right,-1,0.3,0.1786,13,-0.03997465,0.404,,,,,,284,0,284,0,1,,,,,
,,227006,001,2023-07-24_20h05.41.770,arm3_eps,2022.2.5,Linux x86_64,58.82352941,5f764794f90c7d0ca0eb15df,64aea9d0f615b6559c281482,64becb7838258b6ea08fa33e,down,-1,0.3,0.1786,13,0,0.404,,,,,,285,0,285,0,1,,,,,
,,227006,001,2023-07-24_20h05.41.770,arm3_eps,2022.2.5,Linux x86_64,58.82352941,5f764794f90c7d0ca0eb15df,64aea9d0f615b6559c281482,64becb7838258b6ea08fa33e,right,-1,0.3,0.1786,13,0.002407914,0.481,,,,,,286,0,286,0,1,,,,,
,,227006,001,2023-07-24_20h05.41.770,arm3_eps,2022.2.5,Linux x86_64,58.82352941,5f764794f90c7d0ca0eb15df,64aea9d0f615b6559c281482,64becb7838258b6ea08fa33e,right,-1,0.3,0.1786,13,-0.008571684,0.737,,,,,,287,0,287,0,1,,,,,
,,227006,001,2023-07-24_20h05.41.770,arm3_eps,2022.2.5,Linux x86_64,58.82352941,5f764794f90c7d0ca0eb15df,64aea9d0f615b6559c281482,64becb7838258b6ea08fa33e,right,-1,0.3,0.1786,13,-0.034810142,0.302,,,,,,288,0,288,0,1,,,,,
,,227006,001,2023-07-24_20h05.41.770,arm3_eps,2022.2.5,Linux x86_64,58.82352941,5f764794f90c7d0ca0eb15df,64aea9d0f615b6559c281482,64becb7838258b6ea08fa33e,down,-1,0.3,0.1786,13,0,0.537,,,,,,289,0,289,0,1,,,,,
,,227006,001,2023-07-24_20h05.41.770,arm3_eps,2022.2.5,Linux x86_64,58.82352941,5f764794f90c7d0ca0eb15df,64aea9d0f615b6559c281482,64becb7838258b6ea08fa33e,right,-1,0.3,0.1786,13,-0.016454246,0.438,,,,,,290,0,290,0,1,,,,,
,,227006,001,2023-07-24_20h05.41.770,arm3_eps,2022.2.5,Linux x86_64,58.82352941,5f764794f90c7d0ca0eb15df,64aea9d0f615b6559c281482,64becb7838258b6ea08fa33e,right,-1,0.3,0.1786,13,-0.000690738,0.338,,,,,,291,0,291,0,1,,,,,
,,227006,001,2023-07-24_20h05.41.770,arm3_eps,2022.2.5,Linux x86_64,58.82352941,5f764794f90c7d0ca0eb15df,64aea9d0f615b6559c281482,64becb7838258b6ea08fa33e,right,-1,0.3,0.1786,13,-0.017321094,0.287,,,,,,292,0,292,0,1,,,,,
,,227006,001,2023-07-24_20h05.41.770,arm3_eps,2022.2.5,Linux x86_64,58.82352941,5f764794f90c7d0ca0eb15df,64aea9d0f615b6559c281482,64becb7838258b6ea08fa33e,right,-1,0.3,0.1786,13,-0.051656136,0.309,,,,,,293,0,293,0,1,,,,,
,,227006,001,2023-07-24_20h05.41.770,arm3_eps,2022.2.5,Linux x86_64,58.82352941,5f764794f90c7d0ca0eb15df,64aea9d0f615b6559c281482,64becb7838258b6ea08fa33e,down,-1,0.3,0.1786,14,0,0.488,,,,,,294,0,294,0,1,,,,,
,,227006,001,2023-07-24_20h05.41.770,arm3_eps,2022.2.5,Linux x86_64,58.82352941,5f764794f90c7d0ca0eb15df,64aea9d0f615b6559c281482,64becb7838258b6ea08fa33e,right,-1,0.3,0.1786,14,0.026424148,0.521,,,,,,295,0,295,0,1,,,,,
,,227006,001,2023-07-24_20h05.41.770,arm3_eps,2022.2.5,Linux x86_64,58.82352941,5f764794f90c7d0ca0eb15df,64aea9d0f615b6559c281482,64becb7838258b6ea08fa33e,right,-1,0.3,0.1786,14,0.020632238,0.424,,,,,,296,0,296,0,1,,,,,
,,227006,001,2023-07-24_20h05.41.770,arm3_eps,2022.2.5,Linux x86_64,58.82352941,5f764794f90c7d0ca0eb15df,64aea9d0f615b6559c281482,64becb7838258b6ea08fa33e,right,-1,0.3,0.1786,14,0.012757848,0.294,,,,,,297,0,297,0,1,,,,,
,,227006,001,2023-07-24_20h05.41.770,arm3_eps,2022.2.5,Linux x86_64,58.82352941,5f764794f90c7d0ca0eb15df,64aea9d0f615b6559c281482,64becb7838258b6ea08fa33e,right,-1,0.3,0.1786,14,0.010524235,0.305,,,,,,298,0,298,0,1,,,,,
,,227006,001,2023-07-24_20h05.41.770,arm3_eps,2022.2.5,Linux x86_64,58.82352941,5f764794f90c7d0ca0eb15df,64aea9d0f615b6559c281482,64becb7838258b6ea08fa33e,right,-1,0.3,0.1786,14,0.000216515,0.37,,,,,,299,0,299,0,1,,,,,
,,227006,001,2023-07-24_20h05.41.770,arm3_eps,2022.2.5,Linux x86_64,58.82352941,5f764794f90c7d0ca0eb15df,64aea9d0f615b6559c281482,64becb7838258b6ea08fa33e,right,-1,0.3,0.1786,14,-0.005399258,0.37,,,,,,300,0,300,0,1,,,,,
,,227006,001,2023-07-24_20h05.41.770,arm3_eps,2022.2.5,Linux x86_64,58.82352941,5f764794f90c7d0ca0eb15df,64aea9d0f615b6559c281482,64becb7838258b6ea08fa33e,down,-1,0.3,0.1786,15,0,0.527,,,,,,301,0,301,0,1,,,,,
,,227006,001,2023-07-24_20h05.41.770,arm3_eps,2022.2.5,Linux x86_64,58.82352941,5f764794f90c7d0ca0eb15df,64aea9d0f615b6559c281482,64becb7838258b6ea08fa33e,right,-1,0.3,0.1786,15,-0.008683208,0.39,,,,,,302,0,302,0,1,,,,,
,,227006,001,2023-07-24_20h05.41.770,arm3_eps,2022.2.5,Linux x86_64,58.82352941,5f764794f90c7d0ca0eb15df,64aea9d0f615b6559c281482,64becb7838258b6ea08fa33e,right,-1,0.3,0.1786,15,-0.029049275,0.753,,,,,,303,0,303,0,1,,,,,
,,227006,001,2023-07-24_20h05.41.770,arm3_eps,2022.2.5,Linux x86_64,58.82352941,5f764794f90c7d0ca0eb15df,64aea9d0f615b6559c281482,64becb7838258b6ea08fa33e,right,-1,0.3,0.1786,15,-0.040824562,0.404,,,,,,304,0,304,0,1,,,,,
,,227006,001,2023-07-24_20h05.41.770,arm3_eps,2022.2.5,Linux x86_64,58.82352941,5f764794f90c7d0ca0eb15df,64aea9d0f615b6559c281482,64becb7838258b6ea08fa33e,down,-1,0.3,0.1786,15,0,0.458,,,,,,305,0,305,0,1,,,,,
,,227006,001,2023-07-24_20h05.41.770,arm3_eps,2022.2.5,Linux x86_64,58.82352941,5f764794f90c7d0ca0eb15df,64aea9d0f615b6559c281482,64becb7838258b6ea08fa33e,right,-1,0.3,0.1786,15,0.01352444,0.492,,,,,,306,0,306,0,1,,,,,
,,227006,001,2023-07-24_20h05.41.770,arm3_eps,2022.2.5,Linux x86_64,58.82352941,5f764794f90c7d0ca0eb15df,64aea9d0f615b6559c281482,64becb7838258b6ea08fa33e,right,-1,0.3,0.1786,15,0.034016551,0.407,,,,,,307,0,307,0,1,,,,,
,,227006,001,2023-07-24_20h05.41.770,arm3_eps,2022.2.5,Linux x86_64,58.82352941,5f764794f90c7d0ca0eb15df,64aea9d0f615b6559c281482,64becb7838258b6ea08fa33e,right,-1,0.3,0.1786,15,0.032443184,0.389,,,,,,308,0,308,0,1,,,,,
,,227006,001,2023-07-24_20h05.41.770,arm3_eps,2022.2.5,Linux x86_64,58.82352941,5f764794f90c7d0ca0eb15df,64aea9d0f615b6559c281482,64becb7838258b6ea08fa33e,right,-1,0.3,0.1786,15,0.022868829,0.386,,,,,,309,0,309,0,1,,,,,
,,227006,001,2023-07-24_20h05.41.770,arm3_eps,2022.2.5,Linux x86_64,58.82352941,5f764794f90c7d0ca0eb15df,64aea9d0f615b6559c281482,64becb7838258b6ea08fa33e,right,-1,0.3,0.1786,15,-0.00074474,0.388,,,,,,310,0,310,0,1,,,,,
,,227006,001,2023-07-24_20h05.41.770,arm3_eps,2022.2.5,Linux x86_64,58.82352941,5f764794f90c7d0ca0eb15df,64aea9d0f615b6559c281482,64becb7838258b6ea08fa33e,right,-1,0.3,0.1786,15,-0.015524879,0.301,,,,,,311,0,311,0,1,,,,,
,,227006,001,2023-07-24_20h05.41.770,arm3_eps,2022.2.5,Linux x86_64,58.82352941,5f764794f90c7d0ca0eb15df,64aea9d0f615b6559c281482,64becb7838258b6ea08fa33e,right,-1,0.3,0.1786,15,-0.015062241,0.319,,,,,,312,0,312,0,1,,,,,
,,227006,001,2023-07-24_20h05.41.770,arm3_eps,2022.2.5,Linux x86_64,58.82352941,5f764794f90c7d0ca0eb15df,64aea9d0f615b6559c281482,64becb7838258b6ea08fa33e,right,-1,0.3,0.1786,15,-0.017214795,0.586,,,,,,313,0,313,0,1,,,,,
,,227006,001,2023-07-24_20h05.41.770,arm3_eps,2022.2.5,Linux x86_64,58.82352941,5f764794f90c7d0ca0eb15df,64aea9d0f615b6559c281482,64becb7838258b6ea08fa33e,down,-1,0.3,0.1786,15,0,0.526,,,,,,314,0,314,0,1,,,,,
,,227006,001,2023-07-24_20h05.41.770,arm3_eps,2022.2.5,Linux x86_64,58.82352941,5f764794f90c7d0ca0eb15df,64aea9d0f615b6559c281482,64becb7838258b6ea08fa33e,right,-1,0.3,0.1786,15,0.018512616,0.364,,,,,,315,0,315,0,1,,,,,
,,227006,001,2023-07-24_20h05.41.770,arm3_eps,2022.2.5,Linux x86_64,58.82352941,5f764794f90c7d0ca0eb15df,64aea9d0f615b6559c281482,64becb7838258b6ea08fa33e,right,-1,0.3,0.1786,15,0.006065597,0.474,,,,,,316,0,316,0,1,,,,,
,,227006,001,2023-07-24_20h05.41.770,arm3_eps,2022.2.5,Linux x86_64,58.82352941,5f764794f90c7d0ca0eb15df,64aea9d0f615b6559c281482,64becb7838258b6ea08fa33e,right,-1,0.3,0.1786,15,-0.013206134,0.406,,,,,,317,0,317,0,1,,,,,
,,227006,001,2023-07-24_20h05.41.770,arm3_eps,2022.2.5,Linux x86_64,58.82352941,5f764794f90c7d0ca0eb15df,64aea9d0f615b6559c281482,64becb7838258b6ea08fa33e,right,-1,0.3,0.1786,15,-0.018893277,0.494,,,,,,318,0,318,0,1,,,,,
,,227006,001,2023-07-24_20h05.41.770,arm3_eps,2022.2.5,Linux x86_64,58.82352941,5f764794f90c7d0ca0eb15df,64aea9d0f615b6559c281482,64becb7838258b6ea08fa33e,right,-1,0.3,0.1786,15,-0.015176663,0.52,,,,,,319,0,319,0,1,,,,,
,,227006,001,2023-07-24_20h05.41.770,arm3_eps,2022.2.5,Linux x86_64,58.82352941,5f764794f90c7d0ca0eb15df,64aea9d0f615b6559c281482,64becb7838258b6ea08fa33e,right,-1,0.3,0.1786,15,-0.008914656,1.069,,,,,,320,0,320,0,1,,,,,
,,227006,001,2023-07-24_20h05.41.770,arm3_eps,2022.2.5,Linux x86_64,58.82352941,5f764794f90c7d0ca0eb15df,64aea9d0f615b6559c281482,64becb7838258b6ea08fa33e,up,-1,0.3,0.1786,15,0,0.425,,,,,,321,0,321,0,1,,,,,
,,227006,001,2023-07-24_20h05.41.770,arm3_eps,2022.2.5,Linux x86_64,58.82352941,5f764794f90c7d0ca0eb15df,64aea9d0f615b6559c281482,64becb7838258b6ea08fa33e,right,-1,0.3,0.1786,15,-0.031405347,0.389,,,,,,322,0,322,0,1,,,,,
,,227006,001,2023-07-24_20h05.41.770,arm3_eps,2022.2.5,Linux x86_64,58.82352941,5f764794f90c7d0ca0eb15df,64aea9d0f615b6559c281482,64becb7838258b6ea08fa33e,right,-1,0.3,0.1786,15,-0.02962653,0.352,,,,,,323,0,323,0,1,,,,,
,,227006,001,2023-07-24_20h05.41.770,arm3_eps,2022.2.5,Linux x86_64,58.82352941,5f764794f90c7d0ca0eb15df,64aea9d0f615b6559c281482,64becb7838258b6ea08fa33e,right,-1,0.3,0.1786,15,-0.033932233,0.352,,,,,,324,0,324,0,1,,,,,
,,227006,001,2023-07-24_20h05.41.770,arm3_eps,2022.2.5,Linux x86_64,58.82352941,5f764794f90c7d0ca0eb15df,64aea9d0f615b6559c281482,64becb7838258b6ea08fa33e,down,1,0.3,0.1786,15,0,0.386,,,,,,325,0,325,0,1,,,,,
,,227006,001,2023-07-24_20h05.41.770,arm3_eps,2022.2.5,Linux x86_64,58.82352941,5f764794f90c7d0ca0eb15df,64aea9d0f615b6559c281482,64becb7838258b6ea08fa33e,right,1,0.3,0.1786,15,0.013974957,0.319,,,,,,326,0,326,0,1,,,,,
,,227006,001,2023-07-24_20h05.41.770,arm3_eps,2022.2.5,Linux x86_64,58.82352941,5f764794f90c7d0ca0eb15df,64aea9d0f615b6559c281482,64becb7838258b6ea08fa33e,right,1,0.3,0.1786,15,0.024537828,0.284,,,,,,327,0,327,0,1,,,,,
,,227006,001,2023-07-24_20h05.41.770,arm3_eps,2022.2.5,Linux x86_64,58.82352941,5f764794f90c7d0ca0eb15df,64aea9d0f615b6559c281482,64becb7838258b6ea08fa33e,right,1,0.3,0.1786,15,0.027040766,0.456,,,,,,328,0,328,0,1,,,,,
,,227006,001,2023-07-24_20h05.41.770,arm3_eps,2022.2.5,Linux x86_64,58.82352941,5f764794f90c7d0ca0eb15df,64aea9d0f615b6559c281482,64becb7838258b6ea08fa33e,up,1,0.3,0.1786,16,0,0.479,,,,,,329,0,329,0,1,,,,,
,,227006,001,2023-07-24_20h05.41.770,arm3_eps,2022.2.5,Linux x86_64,58.82352941,5f764794f90c7d0ca0eb15df,64aea9d0f615b6559c281482,64becb7838258b6ea08fa33e,right,1,0.3,0.1786,16,0.03139951,0.367,,,,,,330,0,330,0,1,,,,,
,,227006,001,2023-07-24_20h05.41.770,arm3_eps,2022.2.5,Linux x86_64,58.82352941,5f764794f90c7d0ca0eb15df,64aea9d0f615b6559c281482,64becb7838258b6ea08fa33e,right,1,0.3,0.1786,16,0.029967345,0.669,,,,,,331,0,331,0,1,,,,,
,,227006,001,2023-07-24_20h05.41.770,arm3_eps,2022.2.5,Linux x86_64,58.82352941,5f764794f90c7d0ca0eb15df,64aea9d0f615b6559c281482,64becb7838258b6ea08fa33e,right,1,0.3,0.1786,16,0.043845684,0.32,,,,,,332,0,332,0,1,,,,,
,,227006,001,2023-07-24_20h05.41.770,arm3_eps,2022.2.5,Linux x86_64,58.82352941,5f764794f90c7d0ca0eb15df,64aea9d0f615b6559c281482,64becb7838258b6ea08fa33e,up,-1,0.3,0.1786,17,0,0.41,,,,,,333,0,333,0,1,,,,,
,,227006,001,2023-07-24_20h05.41.770,arm3_eps,2022.2.5,Linux x86_64,58.82352941,5f764794f90c7d0ca0eb15df,64aea9d0f615b6559c281482,64becb7838258b6ea08fa33e,right,-1,0.3,0.1786,17,0.029055573,0.469,,,,,,334,0,334,0,1,,,,,
,,227006,001,2023-07-24_20h05.41.770,arm3_eps,2022.2.5,Linux x86_64,58.82352941,5f764794f90c7d0ca0eb15df,64aea9d0f615b6559c281482,64becb7838258b6ea08fa33e,right,-1,0.3,0.1786,17,0.01308148,0.352,,,,,,335,0,335,0,1,,,,,
,,227006,001,2023-07-24_20h05.41.770,arm3_eps,2022.2.5,Linux x86_64,58.82352941,5f764794f90c7d0ca0eb15df,64aea9d0f615b6559c281482,64becb7838258b6ea08fa33e,down,-1,0.3,0.1786,17,0,0.44,,,,,,336,0,336,0,1,,,,,
,,227006,001,2023-07-24_20h05.41.770,arm3_eps,2022.2.5,Linux x86_64,58.82352941,5f764794f90c7d0ca0eb15df,64aea9d0f615b6559c281482,64becb7838258b6ea08fa33e,right,-1,0.3,0.1786,17,-0.046764048,0.466,,,,,,337,0,337,0,1,,,,,
,,227006,001,2023-07-24_20h05.41.770,arm3_eps,2022.2.5,Linux x86_64,58.82352941,5f764794f90c7d0ca0eb15df,64aea9d0f615b6559c281482,64becb7838258b6ea08fa33e,right,-1,0.3,0.1786,17,-0.049692258,0.37,,,,,,338,0,338,0,1,,,,,
,,227006,001,2023-07-24_20h05.41.770,arm3_eps,2022.2.5,Linux x86_64,58.82352941,5f764794f90c7d0ca0eb15df,64aea9d0f615b6559c281482,64becb7838258b6ea08fa33e,down,1,0.3,0.1786,17,0,0.491,,,,,,339,0,339,0,1,,,,,
,,227006,001,2023-07-24_20h05.41.770,arm3_eps,2022.2.5,Linux x86_64,58.82352941,5f764794f90c7d0ca0eb15df,64aea9d0f615b6559c281482,64becb7838258b6ea08fa33e,right,1,0.3,0.1786,17,0.031119489,0.405,,,,,,340,0,340,0,1,,,,,
,,227006,001,2023-07-24_20h05.41.770,arm3_eps,2022.2.5,Linux x86_64,58.82352941,5f764794f90c7d0ca0eb15df,64aea9d0f615b6559c281482,64becb7838258b6ea08fa33e,right,1,0.3,0.1786,17,0.048984758,0.31,,,,,,341,0,341,0,1,,,,,
,,227006,001,2023-07-24_20h05.41.770,arm3_eps,2022.2.5,Linux x86_64,58.82352941,5f764794f90c7d0ca0eb15df,64aea9d0f615b6559c281482,64becb7838258b6ea08fa33e,up,1,0.3,0.1786,18,0,0.454,,,,,,342,0,342,0,1,,,,,
,,227006,001,2023-07-24_20h05.41.770,arm3_eps,2022.2.5,Linux x86_64,58.82352941,5f764794f90c7d0ca0eb15df,64aea9d0f615b6559c281482,64becb7838258b6ea08fa33e,right,1,0.3,0.1786,18,0.004819292,0.404,,,,,,343,0,343,0,1,,,,,
,,227006,001,2023-07-24_20h05.41.770,arm3_eps,2022.2.5,Linux x86_64,58.82352941,5f764794f90c7d0ca0eb15df,64aea9d0f615b6559c281482,64becb7838258b6ea08fa33e,right,1,0.3,0.1786,18,-0.00200646,0.686,,,,,,344,0,344,0,1,,,,,
,,227006,001,2023-07-24_20h05.41.770,arm3_eps,2022.2.5,Linux x86_64,58.82352941,5f764794f90c7d0ca0eb15df,64aea9d0f615b6559c281482,64becb7838258b6ea08fa33e,right,1,0.3,0.1786,18,0.006107751,0.387,,,,,,345,0,345,0,1,,,,,
,,227006,001,2023-07-24_20h05.41.770,arm3_eps,2022.2.5,Linux x86_64,58.82352941,5f764794f90c7d0ca0eb15df,64aea9d0f615b6559c281482,64becb7838258b6ea08fa33e,right,1,0.3,0.1786,18,-0.012278475,0.437,,,,,,346,0,346,0,1,,,,,
,,227006,001,2023-07-24_20h05.41.770,arm3_eps,2022.2.5,Linux x86_64,58.82352941,5f764794f90c7d0ca0eb15df,64aea9d0f615b6559c281482,64becb7838258b6ea08fa33e,right,1,0.3,0.1786,18,0.003989404,1.176,,,,,,347,0,347,0,1,,,,,
,,227006,001,2023-07-24_20h05.41.770,arm3_eps,2022.2.5,Linux x86_64,58.82352941,5f764794f90c7d0ca0eb15df,64aea9d0f615b6559c281482,64becb7838258b6ea08fa33e,up,-1,0.3,0.1786,18,0,0.521,,,,,,348,0,348,0,1,,,,,
,,227006,001,2023-07-24_20h05.41.770,arm3_eps,2022.2.5,Linux x86_64,58.82352941,5f764794f90c7d0ca0eb15df,64aea9d0f615b6559c281482,64becb7838258b6ea08fa33e,right,-1,0.3,0.1786,18,-0.00106278,0.422,,,,,,349,0,349,0,1,,,,,
,,227006,001,2023-07-24_20h05.41.770,arm3_eps,2022.2.5,Linux x86_64,58.82352941,5f764794f90c7d0ca0eb15df,64aea9d0f615b6559c281482,64becb7838258b6ea08fa33e,right,-1,0.3,0.1786,18,-0.009770748,0.386,,,,,,350,0,350,0,1,,,,,
,,227006,001,2023-07-24_20h05.41.770,arm3_eps,2022.2.5,Linux x86_64,58.82352941,5f764794f90c7d0ca0eb15df,64aea9d0f615b6559c281482,64becb7838258b6ea08fa33e,down,1,0.3,0.1786,18,0,0.442,,,,,,351,0,351,0,1,,,,,
,,227006,001,2023-07-24_20h05.41.770,arm3_eps,2022.2.5,Linux x86_64,58.82352941,5f764794f90c7d0ca0eb15df,64aea9d0f615b6559c281482,64becb7838258b6ea08fa33e,right,1,0.3,0.1786,18,-0.034802987,0.37,,,,,,352,0,352,0,1,,,,,
,,227006,001,2023-07-24_20h05.41.770,arm3_eps,2022.2.5,Linux x86_64,58.82352941,5f764794f90c7d0ca0eb15df,64aea9d0f615b6559c281482,64becb7838258b6ea08fa33e,right,1,0.3,0.1786,18,-0.009204111,0.421,,,,,,353,0,353,0,1,,,,,
,,227006,001,2023-07-24_20h05.41.770,arm3_eps,2022.2.5,Linux x86_64,58.82352941,5f764794f90c7d0ca0eb15df,64aea9d0f615b6559c281482,64becb7838258b6ea08fa33e,right,1,0.3,0.1786,18,0.023476518,0.42,,,,,,354,0,354,0,1,,,,,
,,227006,001,2023-07-24_20h05.41.770,arm3_eps,2022.2.5,Linux x86_64,58.82352941,5f764794f90c7d0ca0eb15df,64aea9d0f615b6559c281482,64becb7838258b6ea08fa33e,up,1,0.3,0.1786,18,0,0.769,,,,,,355,0,355,0,1,,,,,
,,227006,001,2023-07-24_20h05.41.770,arm3_eps,2022.2.5,Linux x86_64,58.82352941,5f764794f90c7d0ca0eb15df,64aea9d0f615b6559c281482,64becb7838258b6ea08fa33e,right,1,0.3,0.1786,18,0.033978359,0.402,,,,,,356,0,356,0,1,,,,,
,,227006,001,2023-07-24_20h05.41.770,arm3_eps,2022.2.5,Linux x86_64,58.82352941,5f764794f90c7d0ca0eb15df,64aea9d0f615b6559c281482,64becb7838258b6ea08fa33e,right,1,0.3,0.1786,18,0.031626094,0.488,,,,,,357,0,357,0,1,,,,,
,,227006,001,2023-07-24_20h05.41.770,arm3_eps,2022.2.5,Linux x86_64,58.82352941,5f764794f90c7d0ca0eb15df,64aea9d0f615b6559c281482,64becb7838258b6ea08fa33e,right,1,0.3,0.1786,18,0.040340708,0.47,,,,,,358,0,358,0,1,,,,,
,,227006,001,2023-07-24_20h05.41.770,arm3_eps,2022.2.5,Linux x86_64,58.82352941,5f764794f90c7d0ca0eb15df,64aea9d0f615b6559c281482,64becb7838258b6ea08fa33e,up,1,0.3,0.1786,18,0,0.854,,,,,,359,0,359,0,1,,,,,
,,227006,001,2023-07-24_20h05.41.770,arm3_eps,2022.2.5,Linux x86_64,58.82352941,5f764794f90c7d0ca0eb15df,64aea9d0f615b6559c281482,64becb7838258b6ea08fa33e,right,1,0.3,0.1786,18,-0.000348615,0.603,,,,,,360,0,360,0,1,,,,,
,,227006,001,2023-07-24_20h05.41.770,arm3_eps,2022.2.5,Linux x86_64,58.82352941,5f764794f90c7d0ca0eb15df,64aea9d0f615b6559c281482,64becb7838258b6ea08fa33e,down,1,0.3,0.1786,18,0,0.569,,,,,,361,0,361,0,1,,,,,
,,227006,001,2023-07-24_20h05.41.770,arm3_eps,2022.2.5,Linux x86_64,58.82352941,5f764794f90c7d0ca0eb15df,64aea9d0f615b6559c281482,64becb7838258b6ea08fa33e,right,1,0.3,0.1786,18,0.019619243,0.417,,,,,,362,0,362,0,1,,,,,
,,227006,001,2023-07-24_20h05.41.770,arm3_eps,2022.2.5,Linux x86_64,58.82352941,5f764794f90c7d0ca0eb15df,64aea9d0f615b6559c281482,64becb7838258b6ea08fa33e,right,1,0.3,0.1786,18,0.019727767,0.419,,,,,,363,0,363,0,1,,,,,
,,227006,001,2023-07-24_20h05.41.770,arm3_eps,2022.2.5,Linux x86_64,58.82352941,5f764794f90c7d0ca0eb15df,64aea9d0f615b6559c281482,64becb7838258b6ea08fa33e,up,-1,0.3,0.1786,18,0,0.454,,,,,,364,0,364,0,1,,,,,
,,227006,001,2023-07-24_20h05.41.770,arm3_eps,2022.2.5,Linux x86_64,58.82352941,5f764794f90c7d0ca0eb15df,64aea9d0f615b6559c281482,64becb7838258b6ea08fa33e,right,-1,0.3,0.1786,18,0.000965959,0.419,,,,,,365,0,365,0,1,,,,,
,,227006,001,2023-07-24_20h05.41.770,arm3_eps,2022.2.5,Linux x86_64,58.82352941,5f764794f90c7d0ca0eb15df,64aea9d0f615b6559c281482,64becb7838258b6ea08fa33e,right,-1,0.3,0.1786,18,0.001164839,0.386,,,,,,366,0,366,0,1,,,,,
,,227006,001,2023-07-24_20h05.41.770,arm3_eps,2022.2.5,Linux x86_64,58.82352941,5f764794f90c7d0ca0eb15df,64aea9d0f615b6559c281482,64becb7838258b6ea08fa33e,right,-1,0.3,0.1786,18,-0.009350831,1.219,,,,,,367,0,367,0,1,,,,,
,,227006,001,2023-07-24_20h05.41.770,arm3_eps,2022.2.5,Linux x86_64,58.82352941,5f764794f90c7d0ca0eb15df,64aea9d0f615b6559c281482,64becb7838258b6ea08fa33e,down,-1,0.3,0.1786,19,0,0.353,,,,,,368,0,368,0,1,,,,,
,,227006,001,2023-07-24_20h05.41.770,arm3_eps,2022.2.5,Linux x86_64,58.82352941,5f764794f90c7d0ca0eb15df,64aea9d0f615b6559c281482,64becb7838258b6ea08fa33e,right,-1,0.3,0.1786,19,0.00424093,0.737,,,,,,369,0,369,0,1,,,,,
,,227006,001,2023-07-24_20h05.41.770,arm3_eps,2022.2.5,Linux x86_64,58.82352941,5f764794f90c7d0ca0eb15df,64aea9d0f615b6559c281482,64becb7838258b6ea08fa33e,,,,,,,,,,,,,,,,,,0,0,0,0,1
space,1.748,227006,001,2023-07-24_20h05.41.770,arm3_eps,2022.2.5,Linux x86_64,58.82352941,5f764794f90c7d0ca0eb15df,64aea9d0f615b6559c281482,64becb7838258b6ea08fa33e,right,-1,0.3,0.2429,19,-0.013938219,1.764,,,,,,0,0,0,0,1,,,,,
,,227006,001,2023-07-24_20h05.41.770,arm3_eps,2022.2.5,Linux x86_64,58.82352941,5f764794f90c7d0ca0eb15df,64aea9d0f615b6559c281482,64becb7838258b6ea08fa33e,right,-1,0.3,0.2429,19,-0.02872149,0.352,,,,,,1,0,1,0,1,,,,,
,,227006,001,2023-07-24_20h05.41.770,arm3_eps,2022.2.5,Linux x86_64,58.82352941,5f764794f90c7d0ca0eb15df,64aea9d0f615b6559c281482,64becb7838258b6ea08fa33e,up,-1,0.3,0.2429,19,0,0.489,,,,,,2,0,2,0,1,,,,,
,,227006,001,2023-07-24_20h05.41.770,arm3_eps,2022.2.5,Linux x86_64,58.82352941,5f764794f90c7d0ca0eb15df,64aea9d0f615b6559c281482,64becb7838258b6ea08fa33e,right,-1,0.3,0.2429,19,-0.023278802,0.412,,,,,,3,0,3,0,1,,,,,
,,227006,001,2023-07-24_20h05.41.770,arm3_eps,2022.2.5,Linux x86_64,58.82352941,5f764794f90c7d0ca0eb15df,64aea9d0f615b6559c281482,64becb7838258b6ea08fa33e,right,-1,0.3,0.2429,19,-0.038648167,0.258,,,,,,4,0,4,0,1,,,,,
,,227006,001,2023-07-24_20h05.41.770,arm3_eps,2022.2.5,Linux x86_64,58.82352941,5f764794f90c7d0ca0eb15df,64aea9d0f615b6559c281482,64becb7838258b6ea08fa33e,down,-1,0.3,0.2429,19,0,0.385,,,,,,5,0,5,0,1,,,,,
,,227006,001,2023-07-24_20h05.41.770,arm3_eps,2022.2.5,Linux x86_64,58.82352941,5f764794f90c7d0ca0eb15df,64aea9d0f615b6559c281482,64becb7838258b6ea08fa33e,right,-1,0.3,0.2429,19,0.004390945,0.335,,,,,,6,0,6,0,1,,,,,
,,227006,001,2023-07-24_20h05.41.770,arm3_eps,2022.2.5,Linux x86_64,58.82352941,5f764794f90c7d0ca0eb15df,64aea9d0f615b6559c281482,64becb7838258b6ea08fa33e,right,-1,0.3,0.2429,19,0.001219541,0.369,,,,,,7,0,7,0,1,,,,,
,,227006,001,2023-07-24_20h05.41.770,arm3_eps,2022.2.5,Linux x86_64,58.82352941,5f764794f90c7d0ca0eb15df,64aea9d0f615b6559c281482,64becb7838258b6ea08fa33e,right,-1,0.3,0.2429,19,0.011679812,0.286,,,,,,8,0,8,0,1,,,,,
,,227006,001,2023-07-24_20h05.41.770,arm3_eps,2022.2.5,Linux x86_64,58.82352941,5f764794f90c7d0ca0eb15df,64aea9d0f615b6559c281482,64becb7838258b6ea08fa33e,right,-1,0.3,0.2429,19,0.002630495,0.403,,,,,,9,0,9,0,1,,,,,
,,227006,001,2023-07-24_20h05.41.770,arm3_eps,2022.2.5,Linux x86_64,58.82352941,5f764794f90c7d0ca0eb15df,64aea9d0f615b6559c281482,64becb7838258b6ea08fa33e,right,-1,0.3,0.2429,19,0.018644655,0.454,,,,,,10,0,10,0,1,,,,,
,,227006,001,2023-07-24_20h05.41.770,arm3_eps,2022.2.5,Linux x86_64,58.82352941,5f764794f90c7d0ca0eb15df,64aea9d0f615b6559c281482,64becb7838258b6ea08fa33e,up,-1,0.3,0.2429,18,0,0.355,,,,,,11,0,11,0,1,,,,,
,,227006,001,2023-07-24_20h05.41.770,arm3_eps,2022.2.5,Linux x86_64,58.82352941,5f764794f90c7d0ca0eb15df,64aea9d0f615b6559c281482,64becb7838258b6ea08fa33e,right,-1,0.3,0.2429,18,0.000852785,0.353,,,,,,12,0,12,0,1,,,,,
,,227006,001,2023-07-24_20h05.41.770,arm3_eps,2022.2.5,Linux x86_64,58.82352941,5f764794f90c7d0ca0eb15df,64aea9d0f615b6559c281482,64becb7838258b6ea08fa33e,right,-1,0.3,0.2429,18,-0.008428021,0.573,,,,,,13,0,13,0,1,,,,,
,,227006,001,2023-07-24_20h05.41.770,arm3_eps,2022.2.5,Linux x86_64,58.82352941,5f764794f90c7d0ca0eb15df,64aea9d0f615b6559c281482,64becb7838258b6ea08fa33e,right,-1,0.3,0.2429,18,-0.031560832,0.92,,,,,,14,0,14,0,1,,,,,
,,227006,001,2023-07-24_20h05.41.770,arm3_eps,2022.2.5,Linux x86_64,58.82352941,5f764794f90c7d0ca0eb15df,64aea9d0f615b6559c281482,64becb7838258b6ea08fa33e,down,1,0.3,0.2429,18,0,0.689,,,,,,15,0,15,0,1,,,,,
,,227006,001,2023-07-24_20h05.41.770,arm3_eps,2022.2.5,Linux x86_64,58.82352941,5f764794f90c7d0ca0eb15df,64aea9d0f615b6559c281482,64becb7838258b6ea08fa33e,right,1,0.3,0.2429,18,-0.009697181,0.472,,,,,,16,0,16,0,1,,,,,
,,227006,001,2023-07-24_20h05.41.770,arm3_eps,2022.2.5,Linux x86_64,58.82352941,5f764794f90c7d0ca0eb15df,64aea9d0f615b6559c281482,64becb7838258b6ea08fa33e,right,1,0.3,0.2429,18,-0.003463863,0.37,,,,,,17,0,17,0,1,,,,,
,,227006,001,2023-07-24_20h05.41.770,arm3_eps,2022.2.5,Linux x86_64,58.82352941,5f764794f90c7d0ca0eb15df,64aea9d0f615b6559c281482,64becb7838258b6ea08fa33e,right,1,0.3,0.2429,18,0.015940689,0.371,,,,,,18,0,18,0,1,,,,,
,,227006,001,2023-07-24_20h05.41.770,arm3_eps,2022.2.5,Linux x86_64,58.82352941,5f764794f90c7d0ca0eb15df,64aea9d0f615b6559c281482,64becb7838258b6ea08fa33e,right,1,0.3,0.2429,18,0.012347367,0.339,,,,,,19,0,19,0,1,,,,,
,,227006,001,2023-07-24_20h05.41.770,arm3_eps,2022.2.5,Linux x86_64,58.82352941,5f764794f90c7d0ca0eb15df,64aea9d0f615b6559c281482,64becb7838258b6ea08fa33e,right,1,0.3,0.2429,18,0.025088055,0.437,,,,,,20,0,20,0,1,,,,,
,,227006,001,2023-07-24_20h05.41.770,arm3_eps,2022.2.5,Linux x86_64,58.82352941,5f764794f90c7d0ca0eb15df,64aea9d0f615b6559c281482,64becb7838258b6ea08fa33e,up,1,0.3,0.2429,18,0,0.475,,,,,,21,0,21,0,1,,,,,
,,227006,001,2023-07-24_20h05.41.770,arm3_eps,2022.2.5,Linux x86_64,58.82352941,5f764794f90c7d0ca0eb15df,64aea9d0f615b6559c281482,64becb7838258b6ea08fa33e,right,1,0.3,0.2429,18,-0.03927864,0.4,,,,,,22,0,22,0,1,,,,,
,,227006,001,2023-07-24_20h05.41.770,arm3_eps,2022.2.5,Linux x86_64,58.82352941,5f764794f90c7d0ca0eb15df,64aea9d0f615b6559c281482,64becb7838258b6ea08fa33e,right,1,0.3,0.2429,18,-0.037881826,0.288,,,,,,23,0,23,0,1,,,,,
,,227006,001,2023-07-24_20h05.41.770,arm3_eps,2022.2.5,Linux x86_64,58.82352941,5f764794f90c7d0ca0eb15df,64aea9d0f615b6559c281482,64becb7838258b6ea08fa33e,right,1,0.3,0.2429,18,-0.024909761,0.291,,,,,,24,0,24,0,1,,,,,
,,227006,001,2023-07-24_20h05.41.770,arm3_eps,2022.2.5,Linux x86_64,58.82352941,5f764794f90c7d0ca0eb15df,64aea9d0f615b6559c281482,64becb7838258b6ea08fa33e,right,1,0.3,0.2429,18,0.000955997,0.254,,,,,,25,0,25,0,1,,,,,
,,227006,001,2023-07-24_20h05.41.770,arm3_eps,2022.2.5,Linux x86_64,58.82352941,5f764794f90c7d0ca0eb15df,64aea9d0f615b6559c281482,64becb7838258b6ea08fa33e,right,1,0.3,0.2429,18,-0.029177277,0.37,,,,,,26,0,26,0,1,,,,,
,,227006,001,2023-07-24_20h05.41.770,arm3_eps,2022.2.5,Linux x86_64,58.82352941,5f764794f90c7d0ca0eb15df,64aea9d0f615b6559c281482,64becb7838258b6ea08fa33e,right,1,0.3,0.2429,18,-0.017677882,0.403,,,,,,27,0,27,0,1,,,,,
