space_bar.keys,space_bar.rt,participant,session,date,expName,psychopyVersion,OS,frameRate,PROLIFIC_PID,STUDY_ID,SESSION_ID,resp.keys,state,q_prob,eps_prob,score,price,resp.rt,train.thisRepN,train.thisTrialN,train.thisN,train.thisIndex,train.ran,steps.thisRepN,steps.thisTrialN,steps.thisN,steps.thisIndex,steps.ran,blocks.thisRepN,blocks.thisTrialN,blocks.thisN,blocks.thisIndex,blocks.ran
space,7.3133,239978,001,2023-07-24_20h32.07.089,arm3_eps,2022.2.5,Win32,60.11060351,5f8040a15e9c0003ae16dc31,64aea9d0f615b6559c281482,64bed186cb86c4994b1545ba,,,,,,,,,,,,,,,,,,,,,,
space,19.0784,239978,001,2023-07-24_20h32.07.089,arm3_eps,2022.2.5,Win32,60.11060351,5f8040a15e9c0003ae16dc31,64aea9d0f615b6559c281482,64bed186cb86c4994b1545ba,,,,,,,,,,,,,,,,,,,,,,
space,8.9875,239978,001,2023-07-24_20h32.07.089,arm3_eps,2022.2.5,Win32,60.11060351,5f8040a15e9c0003ae16dc31,64aea9d0f615b6559c281482,64bed186cb86c4994b1545ba,,,,,,,,,,,,,,,,,,,,,,
space,25.4857,239978,001,2023-07-24_20h32.07.089,arm3_eps,2022.2.5,Win32,60.11060351,5f8040a15e9c0003ae16dc31,64aea9d0f615b6559c281482,64bed186cb86c4994b1545ba,,,,,,,,,,,,,,,,,,,,,,
space,25.2201,239978,001,2023-07-24_20h32.07.089,arm3_eps,2022.2.5,Win32,60.11060351,5f8040a15e9c0003ae16dc31,64aea9d0f615b6559c281482,64bed186cb86c4994b1545ba,,,,,,,,,,,,,,,,,,,,,,
space,49.0342,239978,001,2023-07-24_20h32.07.089,arm3_eps,2022.2.5,Win32,60.11060351,5f8040a15e9c0003ae16dc31,64aea9d0f615b6559c281482,64bed186cb86c4994b1545ba,,,,,,,,,,,,,,,,,,,,,,
space,6.46,239978,001,2023-07-24_20h32.07.089,arm3_eps,2022.2.5,Win32,60.11060351,5f8040a15e9c0003ae16dc31,64aea9d0f615b6559c281482,64bed186cb86c4994b1545ba,,,,,,,,,,,,,,,,,,,,,,
space,28.2558,239978,001,2023-07-24_20h32.07.089,arm3_eps,2022.2.5,Win32,60.11060351,5f8040a15e9c0003ae16dc31,64aea9d0f615b6559c281482,64bed186cb86c4994b1545ba,,,,,,,,,,,,,,,,,,,,,,
space,14.8806,239978,001,2023-07-24_20h32.07.089,arm3_eps,2022.2.5,Win32,60.11060351,5f8040a15e9c0003ae16dc31,64aea9d0f615b6559c281482,64bed186cb86c4994b1545ba,,,,,,,,,,,,,,,,,,,,,,
space,13.6596,239978,001,2023-07-24_20h32.07.089,arm3_eps,2022.2.5,Win32,60.11060351,5f8040a15e9c0003ae16dc31,64aea9d0f615b6559c281482,64bed186cb86c4994b1545ba,,,,,,,,,,,,,,,,,,,,,,
,,239978,001,2023-07-24_20h32.07.089,arm3_eps,2022.2.5,Win32,60.11060351,5f8040a15e9c0003ae16dc31,64aea9d0f615b6559c281482,64bed186cb86c4994b1545ba,right,1,0.3,0.2429,0,-0.007191112,3.2542,0,0,0,0,1,,,,,,,,,,
,,239978,001,2023-07-24_20h32.07.089,arm3_eps,2022.2.5,Win32,60.11060351,5f8040a15e9c0003ae16dc31,64aea9d0f615b6559c281482,64bed186cb86c4994b1545ba,right,1,0.3,0.2429,0,-0.017335206,2.2434,1,0,1,0,1,,,,,,,,,,
,,239978,001,2023-07-24_20h32.07.089,arm3_eps,2022.2.5,Win32,60.11060351,5f8040a15e9c0003ae16dc31,64aea9d0f615b6559c281482,64bed186cb86c4994b1545ba,up,-1,0.3,0.2429,0,0,3.0161,2,0,2,0,1,,,,,,,,,,
,,239978,001,2023-07-24_20h32.07.089,arm3_eps,2022.2.5,Win32,60.11060351,5f8040a15e9c0003ae16dc31,64aea9d0f615b6559c281482,64bed186cb86c4994b1545ba,right,-1,0.3,0.2429,0,-0.011538012,2.2433,3,0,3,0,1,,,,,,,,,,
,,239978,001,2023-07-24_20h32.07.089,arm3_eps,2022.2.5,Win32,60.11060351,5f8040a15e9c0003ae16dc31,64aea9d0f615b6559c281482,64bed186cb86c4994b1545ba,right,-1,0.3,0.2429,0,0.012087334,0.5445,4,0,4,0,1,,,,,,,,,,
,,239978,001,2023-07-24_20h32.07.089,arm3_eps,2022.2.5,Win32,60.11060351,5f8040a15e9c0003ae16dc31,64aea9d0f615b6559c281482,64bed186cb86c4994b1545ba,right,-1,0.3,0.2429,0,0.026651827,0.5654,5,0,5,0,1,,,,,,,,,,
,,239978,001,2023-07-24_20h32.07.089,arm3_eps,2022.2.5,Win32,60.11060351,5f8040a15e9c0003ae16dc31,64aea9d0f615b6559c281482,64bed186cb86c4994b1545ba,right,-1,0.3,0.2429,0,0.000642336,0.5206,6,0,6,0,1,,,,,,,,,,
,,239978,001,2023-07-24_20h32.07.089,arm3_eps,2022.2.5,Win32,60.11060351,5f8040a15e9c0003ae16dc31,64aea9d0f615b6559c281482,64bed186cb86c4994b1545ba,right,-1,0.3,0.2429,0,-0.012176648,1.6612,7,0,7,0,1,,,,,,,,,,
,,239978,001,2023-07-24_20h32.07.089,arm3_eps,2022.2.5,Win32,60.11060351,5f8040a15e9c0003ae16dc31,64aea9d0f615b6559c281482,64bed186cb86c4994b1545ba,right,-1,0.3,0.2429,0,-0.016785441,0.5623,8,0,8,0,1,,,,,,,,,,
,,239978,001,2023-07-24_20h32.07.089,arm3_eps,2022.2.5,Win32,60.11060351,5f8040a15e9c0003ae16dc31,64aea9d0f615b6559c281482,64bed186cb86c4994b1545ba,right,-1,0.3,0.2429,0,0.002608581,0.7632,9,0,9,0,1,,,,,,,,,,
,,239978,001,2023-07-24_20h32.07.089,arm3_eps,2022.2.5,Win32,60.11060351,5f8040a15e9c0003ae16dc31,64aea9d0f615b6559c281482,64bed186cb86c4994b1545ba,up,1,0.3,0.2429,0,0,0.7519,10,0,10,0,1,,,,,,,,,,
,,239978,001,2023-07-24_20h32.07.089,arm3_eps,2022.2.5,Win32,60.11060351,5f8040a15e9c0003ae16dc31,64aea9d0f615b6559c281482,64bed186cb86c4994b1545ba,right,1,0.3,0.2429,0,0.02519861,1.6396,11,0,11,0,1,,,,,,,,,,
,,239978,001,2023-07-24_20h32.07.089,arm3_eps,2022.2.5,Win32,60.11060351,5f8040a15e9c0003ae16dc31,64aea9d0f615b6559c281482,64bed186cb86c4994b1545ba,right,1,0.3,0.2429,0,0.036154278,0.3454,12,0,12,0,1,,,,,,,,,,
,,239978,001,2023-07-24_20h32.07.089,arm3_eps,2022.2.5,Win32,60.11060351,5f8040a15e9c0003ae16dc31,64aea9d0f615b6559c281482,64bed186cb86c4994b1545ba,right,1,0.3,0.2429,0,0.047937134,0.3652,13,0,13,0,1,,,,,,,,,,
,,239978,001,2023-07-24_20h32.07.089,arm3_eps,2022.2.5,Win32,60.11060351,5f8040a15e9c0003ae16dc31,64aea9d0f615b6559c281482,64bed186cb86c4994b1545ba,right,1,0.3,0.2429,0,0.032868438,0.3521,14,0,14,0,1,,,,,,,,,,
,,239978,001,2023-07-24_20h32.07.089,arm3_eps,2022.2.5,Win32,60.11060351,5f8040a15e9c0003ae16dc31,64aea9d0f615b6559c281482,64bed186cb86c4994b1545ba,up,-1,0.3,0.2429,1,0,1.3311,15,0,15,0,1,,,,,,,,,,
,,239978,001,2023-07-24_20h32.07.089,arm3_eps,2022.2.5,Win32,60.11060351,5f8040a15e9c0003ae16dc31,64aea9d0f615b6559c281482,64bed186cb86c4994b1545ba,right,-1,0.3,0.2429,1,0.032561476,1.5186,16,0,16,0,1,,,,,,,,,,
,,239978,001,2023-07-24_20h32.07.089,arm3_eps,2022.2.5,Win32,60.11060351,5f8040a15e9c0003ae16dc31,64aea9d0f615b6559c281482,64bed186cb86c4994b1545ba,right,-1,0.3,0.2429,1,0.022785712,0.3128,17,0,17,0,1,,,,,,,,,,
,,239978,001,2023-07-24_20h32.07.089,arm3_eps,2022.2.5,Win32,60.11060351,5f8040a15e9c0003ae16dc31,64aea9d0f615b6559c281482,64bed186cb86c4994b1545ba,right,-1,0.3,0.2429,1,0.003622426,0.3134,18,0,18,0,1,,,,,,,,,,
,,239978,001,2023-07-24_20h32.07.089,arm3_eps,2022.2.5,Win32,60.11060351,5f8040a15e9c0003ae16dc31,64aea9d0f615b6559c281482,64bed186cb86c4994b1545ba,right,-1,0.3,0.2429,1,-0.022959551,0.4956,19,0,19,0,1,,,,,,,,,,
,,239978,001,2023-07-24_20h32.07.089,arm3_eps,2022.2.5,Win32,60.11060351,5f8040a15e9c0003ae16dc31,64aea9d0f615b6559c281482,64bed186cb86c4994b1545ba,down,1,0.3,0.2429,2,0,0.7793,20,0,20,0,1,,,,,,,,,,
,,239978,001,2023-07-24_20h32.07.089,arm3_eps,2022.2.5,Win32,60.11060351,5f8040a15e9c0003ae16dc31,64aea9d0f615b6559c281482,64bed186cb86c4994b1545ba,right,1,0.3,0.2429,2,0.032089046,1.1926,21,0,21,0,1,,,,,,,,,,
,,239978,001,2023-07-24_20h32.07.089,arm3_eps,2022.2.5,Win32,60.11060351,5f8040a15e9c0003ae16dc31,64aea9d0f615b6559c281482,64bed186cb86c4994b1545ba,right,1,0.3,0.2429,2,0.040502342,0.2804,22,0,22,0,1,,,,,,,,,,
,,239978,001,2023-07-24_20h32.07.089,arm3_eps,2022.2.5,Win32,60.11060351,5f8040a15e9c0003ae16dc31,64aea9d0f615b6559c281482,64bed186cb86c4994b1545ba,right,1,0.3,0.2429,2,0.05655414,0.2809,23,0,23,0,1,,,,,,,,,,
,,239978,001,2023-07-24_20h32.07.089,arm3_eps,2022.2.5,Win32,60.11060351,5f8040a15e9c0003ae16dc31,64aea9d0f615b6559c281482,64bed186cb86c4994b1545ba,right,1,0.3,0.2429,2,0.091546852,0.387,24,0,24,0,1,,,,,,,,,,
,,239978,001,2023-07-24_20h32.07.089,arm3_eps,2022.2.5,Win32,60.11060351,5f8040a15e9c0003ae16dc31,64aea9d0f615b6559c281482,64bed186cb86c4994b1545ba,up,1,0.3,0.2429,2,0,1.0659,25,0,25,0,1,,,,,,,,,,
,,239978,001,2023-07-24_20h32.07.089,arm3_eps,2022.2.5,Win32,60.11060351,5f8040a15e9c0003ae16dc31,64aea9d0f615b6559c281482,64bed186cb86c4994b1545ba,right,1,0.3,0.2429,2,-0.000421026,1.3105,26,0,26,0,1,,,,,,,,,,
,,239978,001,2023-07-24_20h32.07.089,arm3_eps,2022.2.5,Win32,60.11060351,5f8040a15e9c0003ae16dc31,64aea9d0f615b6559c281482,64bed186cb86c4994b1545ba,right,1,0.3,0.2429,2,0.05617408,0.2794,27,0,27,0,1,,,,,,,,,,
,,239978,001,2023-07-24_20h32.07.089,arm3_eps,2022.2.5,Win32,60.11060351,5f8040a15e9c0003ae16dc31,64aea9d0f615b6559c281482,64bed186cb86c4994b1545ba,right,1,0.3,0.2429,2,0.046272447,0.3812,28,0,28,0,1,,,,,,,,,,
,,239978,001,2023-07-24_20h32.07.089,arm3_eps,2022.2.5,Win32,60.11060351,5f8040a15e9c0003ae16dc31,64aea9d0f615b6559c281482,64bed186cb86c4994b1545ba,right,1,0.3,0.2429,2,0.029471431,4.2821,29,0,29,0,1,,,,,,,,,,
,,239978,001,2023-07-24_20h32.07.089,arm3_eps,2022.2.5,Win32,60.11060351,5f8040a15e9c0003ae16dc31,64aea9d0f615b6559c281482,64bed186cb86c4994b1545ba,right,1,0.3,0.2429,2,0.028606609,0.5826,30,0,30,0,1,,,,,,,,,,
,,239978,001,2023-07-24_20h32.07.089,arm3_eps,2022.2.5,Win32,60.11060351,5f8040a15e9c0003ae16dc31,64aea9d0f615b6559c281482,64bed186cb86c4994b1545ba,up,1,0.3,0.2429,2,0,0.8063,31,0,31,0,1,,,,,,,,,,
,,239978,001,2023-07-24_20h32.07.089,arm3_eps,2022.2.5,Win32,60.11060351,5f8040a15e9c0003ae16dc31,64aea9d0f615b6559c281482,64bed186cb86c4994b1545ba,right,1,0.3,0.2429,2,0.016574245,0.9475,32,0,32,0,1,,,,,,,,,,
,,239978,001,2023-07-24_20h32.07.089,arm3_eps,2022.2.5,Win32,60.11060351,5f8040a15e9c0003ae16dc31,64aea9d0f615b6559c281482,64bed186cb86c4994b1545ba,right,1,0.3,0.2429,2,-0.03408302,0.3123,33,0,33,0,1,,,,,,,,,,
,,239978,001,2023-07-24_20h32.07.089,arm3_eps,2022.2.5,Win32,60.11060351,5f8040a15e9c0003ae16dc31,64aea9d0f615b6559c281482,64bed186cb86c4994b1545ba,down,-1,0.3,0.2429,1,0,1.061,34,0,34,0,1,,,,,,,,,,
,,239978,001,2023-07-24_20h32.07.089,arm3_eps,2022.2.5,Win32,60.11060351,5f8040a15e9c0003ae16dc31,64aea9d0f615b6559c281482,64bed186cb86c4994b1545ba,right,-1,0.3,0.2429,1,0.009607079,1.0217,35,0,35,0,1,,,,,,,,,,
,,239978,001,2023-07-24_20h32.07.089,arm3_eps,2022.2.5,Win32,60.11060351,5f8040a15e9c0003ae16dc31,64aea9d0f615b6559c281482,64bed186cb86c4994b1545ba,right,-1,0.3,0.2429,1,-0.016867938,0.2788,36,0,36,0,1,,,,,,,,,,
,,239978,001,2023-07-24_20h32.07.089,arm3_eps,2022.2.5,Win32,60.11060351,5f8040a15e9c0003ae16dc31,64aea9d0f615b6559c281482,64bed186cb86c4994b1545ba,right,-1,0.3,0.2429,1,-0.035930781,0.3118,37,0,37,0,1,,,,,,,,,,
,,239978,001,2023-07-24_20h32.07.089,arm3_eps,2022.2.5,Win32,60.11060351,5f8040a15e9c0003ae16dc31,64aea9d0f615b6559c281482,64bed186cb86c4994b1545ba,right,-1,0.3,0.2429,1,-0.034858843,0.546,38,0,38,0,1,,,,,,,,,,
,,239978,001,2023-07-24_20h32.07.089,arm3_eps,2022.2.5,Win32,60.11060351,5f8040a15e9c0003ae16dc31,64aea9d0f615b6559c281482,64bed186cb86c4994b1545ba,down,-1,0.3,0.2429,1,0,0.5156,39,0,39,0,1,,,,,,,,,,
,,239978,001,2023-07-24_20h32.07.089,arm3_eps,2022.2.5,Win32,60.11060351,5f8040a15e9c0003ae16dc31,64aea9d0f615b6559c281482,64bed186cb86c4994b1545ba,right,-1,0.3,0.2429,1,-0.006669491,0.8693,40,0,40,0,1,,,,,,,,,,
,,239978,001,2023-07-24_20h32.07.089,arm3_eps,2022.2.5,Win32,60.11060351,5f8040a15e9c0003ae16dc31,64aea9d0f615b6559c281482,64bed186cb86c4994b1545ba,right,-1,0.3,0.2429,1,-0.037118386,0.2971,41,0,41,0,1,,,,,,,,,,
,,239978,001,2023-07-24_20h32.07.089,arm3_eps,2022.2.5,Win32,60.11060351,5f8040a15e9c0003ae16dc31,64aea9d0f615b6559c281482,64bed186cb86c4994b1545ba,right,-1,0.3,0.2429,1,-0.028820924,0.4146,42,0,42,0,1,,,,,,,,,,
,,239978,001,2023-07-24_20h32.07.089,arm3_eps,2022.2.5,Win32,60.11060351,5f8040a15e9c0003ae16dc31,64aea9d0f615b6559c281482,64bed186cb86c4994b1545ba,down,-1,0.3,0.2429,1,0,0.8881,43,0,43,0,1,,,,,,,,,,
,,239978,001,2023-07-24_20h32.07.089,arm3_eps,2022.2.5,Win32,60.11060351,5f8040a15e9c0003ae16dc31,64aea9d0f615b6559c281482,64bed186cb86c4994b1545ba,right,-1,0.3,0.2429,1,-0.005156708,0.8745,44,0,44,0,1,,,,,,,,,,
,,239978,001,2023-07-24_20h32.07.089,arm3_eps,2022.2.5,Win32,60.11060351,5f8040a15e9c0003ae16dc31,64aea9d0f615b6559c281482,64bed186cb86c4994b1545ba,right,-1,0.3,0.2429,1,0.017198805,0.4005,45,0,45,0,1,,,,,,,,,,
,,239978,001,2023-07-24_20h32.07.089,arm3_eps,2022.2.5,Win32,60.11060351,5f8040a15e9c0003ae16dc31,64aea9d0f615b6559c281482,64bed186cb86c4994b1545ba,right,-1,0.3,0.2429,1,-0.017503782,0.6125,46,0,46,0,1,,,,,,,,,,
,,239978,001,2023-07-24_20h32.07.089,arm3_eps,2022.2.5,Win32,60.11060351,5f8040a15e9c0003ae16dc31,64aea9d0f615b6559c281482,64bed186cb86c4994b1545ba,right,-1,0.3,0.2429,1,-0.009730194,1.6639,47,0,47,0,1,,,,,,,,,,
,,239978,001,2023-07-24_20h32.07.089,arm3_eps,2022.2.5,Win32,60.11060351,5f8040a15e9c0003ae16dc31,64aea9d0f615b6559c281482,64bed186cb86c4994b1545ba,down,-1,0.3,0.2429,1,0,0.9936,48,0,48,0,1,,,,,,,,,,
,,239978,001,2023-07-24_20h32.07.089,arm3_eps,2022.2.5,Win32,60.11060351,5f8040a15e9c0003ae16dc31,64aea9d0f615b6559c281482,64bed186cb86c4994b1545ba,right,-1,0.3,0.2429,1,0.003234947,0.878,49,0,49,0,1,,,,,,,,,,
space,3.0059,239978,001,2023-07-24_20h32.07.089,arm3_eps,2022.2.5,Win32,60.11060351,5f8040a15e9c0003ae16dc31,64aea9d0f615b6559c281482,64bed186cb86c4994b1545ba,,,,,,,,,,,,,,,,,,,,,,
space,4.4106,239978,001,2023-07-24_20h32.07.089,arm3_eps,2022.2.5,Win32,60.11060351,5f8040a15e9c0003ae16dc31,64aea9d0f615b6559c281482,64bed186cb86c4994b1545ba,right,-1,0.3,0.2429,0,-0.01021686,2.804,,,,,,0,0,0,0,1,,,,,
,,239978,001,2023-07-24_20h32.07.089,arm3_eps,2022.2.5,Win32,60.11060351,5f8040a15e9c0003ae16dc31,64aea9d0f615b6559c281482,64bed186cb86c4994b1545ba,right,-1,0.3,0.2429,0,-0.012264622,0.2803,,,,,,1,0,1,0,1,,,,,
,,239978,001,2023-07-24_20h32.07.089,arm3_eps,2022.2.5,Win32,60.11060351,5f8040a15e9c0003ae16dc31,64aea9d0f615b6559c281482,64bed186cb86c4994b1545ba,right,-1,0.3,0.2429,0,-0.008143391,0.3185,,,,,,2,0,2,0,1,,,,,
,,239978,001,2023-07-24_20h32.07.089,arm3_eps,2022.2.5,Win32,60.11060351,5f8040a15e9c0003ae16dc31,64aea9d0f615b6559c281482,64bed186cb86c4994b1545ba,up,-1,0.3,0.2429,0,0,1.3967,,,,,,3,0,3,0,1,,,,,
,,239978,001,2023-07-24_20h32.07.089,arm3_eps,2022.2.5,Win32,60.11060351,5f8040a15e9c0003ae16dc31,64aea9d0f615b6559c281482,64bed186cb86c4994b1545ba,right,-1,0.3,0.2429,0,-0.002812897,1.477,,,,,,4,0,4,0,1,,,,,
,,239978,001,2023-07-24_20h32.07.089,arm3_eps,2022.2.5,Win32,60.11060351,5f8040a15e9c0003ae16dc31,64aea9d0f615b6559c281482,64bed186cb86c4994b1545ba,right,-1,0.3,0.2429,0,0.00163284,0.2359,,,,,,5,0,5,0,1,,,,,
,,239978,001,2023-07-24_20h32.07.089,arm3_eps,2022.2.5,Win32,60.11060351,5f8040a15e9c0003ae16dc31,64aea9d0f615b6559c281482,64bed186cb86c4994b1545ba,right,-1,0.3,0.2429,0,0.007926413,0.2476,,,,,,6,0,6,0,1,,,,,
,,239978,001,2023-07-24_20h32.07.089,arm3_eps,2022.2.5,Win32,60.11060351,5f8040a15e9c0003ae16dc31,64aea9d0f615b6559c281482,64bed186cb86c4994b1545ba,right,-1,0.3,0.2429,0,0.010263447,0.3516,,,,,,7,0,7,0,1,,,,,
,,239978,001,2023-07-24_20h32.07.089,arm3_eps,2022.2.5,Win32,60.11060351,5f8040a15e9c0003ae16dc31,64aea9d0f615b6559c281482,64bed186cb86c4994b1545ba,up,1,0.3,0.2429,0,0,0.5808,,,,,,8,0,8,0,1,,,,,
,,239978,001,2023-07-24_20h32.07.089,arm3_eps,2022.2.5,Win32,60.11060351,5f8040a15e9c0003ae16dc31,64aea9d0f615b6559c281482,64bed186cb86c4994b1545ba,right,1,0.3,0.2429,0,0.01006428,0.8555,,,,,,9,0,9,0,1,,,,,
,,239978,001,2023-07-24_20h32.07.089,arm3_eps,2022.2.5,Win32,60.11060351,5f8040a15e9c0003ae16dc31,64aea9d0f615b6559c281482,64bed186cb86c4994b1545ba,right,1,0.3,0.2429,0,0.017779933,0.2275,,,,,,10,0,10,0,1,,,,,
,,239978,001,2023-07-24_20h32.07.089,arm3_eps,2022.2.5,Win32,60.11060351,5f8040a15e9c0003ae16dc31,64aea9d0f615b6559c281482,64bed186cb86c4994b1545ba,right,1,0.3,0.2429,0,0.040227917,0.2127,,,,,,11,0,11,0,1,,,,,
,,239978,001,2023-07-24_20h32.07.089,arm3_eps,2022.2.5,Win32,60.11060351,5f8040a15e9c0003ae16dc31,64aea9d0f615b6559c281482,64bed186cb86c4994b1545ba,right,1,0.3,0.2429,0,0.051499496,0.6304,,,,,,12,0,12,0,1,,,,,
,,239978,001,2023-07-24_20h32.07.089,arm3_eps,2022.2.5,Win32,60.11060351,5f8040a15e9c0003ae16dc31,64aea9d0f615b6559c281482,64bed186cb86c4994b1545ba,up,1,0.3,0.2429,0,0,0.4,,,,,,13,0,13,0,1,,,,,
,,239978,001,2023-07-24_20h32.07.089,arm3_eps,2022.2.5,Win32,60.11060351,5f8040a15e9c0003ae16dc31,64aea9d0f615b6559c281482,64bed186cb86c4994b1545ba,right,1,0.3,0.2429,0,-0.022499323,0.796,,,,,,14,0,14,0,1,,,,,
,,239978,001,2023-07-24_20h32.07.089,arm3_eps,2022.2.5,Win32,60.11060351,5f8040a15e9c0003ae16dc31,64aea9d0f615b6559c281482,64bed186cb86c4994b1545ba,right,1,0.3,0.2429,0,-0.025432287,0.6162,,,,,,15,0,15,0,1,,,,,
,,239978,001,2023-07-24_20h32.07.089,arm3_eps,2022.2.5,Win32,60.11060351,5f8040a15e9c0003ae16dc31,64aea9d0f615b6559c281482,64bed186cb86c4994b1545ba,right,1,0.3,0.2429,0,-0.020204531,0.3992,,,,,,16,0,16,0,1,,,,,
,,239978,001,2023-07-24_20h32.07.089,arm3_eps,2022.2.5,Win32,60.11060351,5f8040a15e9c0003ae16dc31,64aea9d0f615b6559c281482,64bed186cb86c4994b1545ba,down,1,0.3,0.2429,-1,0,0.3371,,,,,,17,0,17,0,1,,,,,
,,239978,001,2023-07-24_20h32.07.089,arm3_eps,2022.2.5,Win32,60.11060351,5f8040a15e9c0003ae16dc31,64aea9d0f615b6559c281482,64bed186cb86c4994b1545ba,right,1,0.3,0.2429,-1,0.035901069,0.7041,,,,,,18,0,18,0,1,,,,,
,,239978,001,2023-07-24_20h32.07.089,arm3_eps,2022.2.5,Win32,60.11060351,5f8040a15e9c0003ae16dc31,64aea9d0f615b6559c281482,64bed186cb86c4994b1545ba,right,1,0.3,0.2429,-1,0.043398992,0.5619,,,,,,19,0,19,0,1,,,,,
,,239978,001,2023-07-24_20h32.07.089,arm3_eps,2022.2.5,Win32,60.11060351,5f8040a15e9c0003ae16dc31,64aea9d0f615b6559c281482,64bed186cb86c4994b1545ba,up,-1,0.3,0.2429,-1,0,0.4964,,,,,,20,0,20,0,1,,,,,
,,239978,001,2023-07-24_20h32.07.089,arm3_eps,2022.2.5,Win32,60.11060351,5f8040a15e9c0003ae16dc31,64aea9d0f615b6559c281482,64bed186cb86c4994b1545ba,right,-1,0.3,0.2429,-1,-0.013953481,0.4434,,,,,,21,0,21,0,1,,,,,
,,239978,001,2023-07-24_20h32.07.089,arm3_eps,2022.2.5,Win32,60.11060351,5f8040a15e9c0003ae16dc31,64aea9d0f615b6559c281482,64bed186cb86c4994b1545ba,right,-1,0.3,0.2429,-1,-0.028199649,0.4563,,,,,,22,0,22,0,1,,,,,
,,239978,001,2023-07-24_20h32.07.089,arm3_eps,2022.2.5,Win32,60.11060351,5f8040a15e9c0003ae16dc31,64aea9d0f615b6559c281482,64bed186cb86c4994b1545ba,down,-1,0.3,0.2429,-1,0,0.4773,,,,,,23,0,23,0,1,,,,,
,,239978,001,2023-07-24_20h32.07.089,arm3_eps,2022.2.5,Win32,60.11060351,5f8040a15e9c0003ae16dc31,64aea9d0f615b6559c281482,64bed186cb86c4994b1545ba,right,-1,0.3,0.2429,-1,-0.013579869,0.5456,,,,,,24,0,24,0,1,,,,,
,,239978,001,2023-07-24_20h32.07.089,arm3_eps,2022.2.5,Win32,60.11060351,5f8040a15e9c0003ae16dc31,64aea9d0f615b6559c281482,64bed186cb86c4994b1545ba,right,-1,0.3,0.2429,-1,-0.028404016,0.4175,,,,,,25,0,25,0,1,,,,,
,,239978,001,2023-07-24_20h32.07.089,arm3_eps,2022.2.5,Win32,60.11060351,5f8040a15e9c0003ae16dc31,64aea9d0f615b6559c281482,64bed186cb86c4994b1545ba,down,1,0.3,0.2429,0,0,0.6146,,,,,,26,0,26,0,1,,,,,
,,239978,001,2023-07-24_20h32.07.089,arm3_eps,2022.2.5,Win32,60.11060351,5f8040a15e9c0003ae16dc31,64aea9d0f615b6559c281482,64bed186cb86c4994b1545ba,right,1,0.3,0.2429,0,0.020596064,0.5115,,,,,,27,0,27,0,1,,,,,
,,239978,001,2023-07-24_20h32.07.089,arm3_eps,2022.2.5,Win32,60.11060351,5f8040a15e9c0003ae16dc31,64aea9d0f615b6559c281482,64bed186cb86c4994b1545ba,right,1,0.3,0.2429,0,0.020825981,0.4298,,,,,,28,0,28,0,1,,,,,
,,239978,001,2023-07-24_20h32.07.089,arm3_eps,2022.2.5,Win32,60.11060351,5f8040a15e9c0003ae16dc31,64aea9d0f615b6559c281482,64bed186cb86c4994b1545ba,up,-1,0.3,0.2429,1,0,0.6992,,,,,,29,0,29,0,1,,,,,
,,239978,001,2023-07-24_20h32.07.089,arm3_eps,2022.2.5,Win32,60.11060351,5f8040a15e9c0003ae16dc31,64aea9d0f615b6559c281482,64bed186cb86c4994b1545ba,right,-1,0.3,0.2429,1,-0.009199008,0.6631,,,,,,30,0,30,0,1,,,,,
,,239978,001,2023-07-24_20h32.07.089,arm3_eps,2022.2.5,Win32,60.11060351,5f8040a15e9c0003ae16dc31,64aea9d0f615b6559c281482,64bed186cb86c4994b1545ba,right,-1,0.3,0.2429,1,-0.005097587,0.3647,,,,,,31,0,31,0,1,,,,,
,,239978,001,2023-07-24_20h32.07.089,arm3_eps,2022.2.5,Win32,60.11060351,5f8040a15e9c0003ae16dc31,64aea9d0f615b6559c281482,64bed186cb86c4994b1545ba,down,-1,0.3,0.2429,1,0,0.5545,,,,,,32,0,32,0,1,,,,,
,,239978,001,2023-07-24_20h32.07.089,arm3_eps,2022.2.5,Win32,60.11060351,5f8040a15e9c0003ae16dc31,64aea9d0f615b6559c281482,64bed186cb86c4994b1545ba,right,-1,0.3,0.2429,1,-0.010844453,0.5371,,,,,,33,0,33,0,1,,,,,
,,239978,001,2023-07-24_20h32.07.089,arm3_eps,2022.2.5,Win32,60.11060351,5f8040a15e9c0003ae16dc31,64aea9d0f615b6559c281482,64bed186cb86c4994b1545ba,right,-1,0.3,0.2429,1,-0.037688098,0.4119,,,,,,34,0,34,0,1,,,,,
,,239978,001,2023-07-24_20h32.07.089,arm3_eps,2022.2.5,Win32,60.11060351,5f8040a15e9c0003ae16dc31,64aea9d0f615b6559c281482,64bed186cb86c4994b1545ba,down,1,0.3,0.2429,2,0,0.5794,,,,,,35,0,35,0,1,,,,,
,,239978,001,2023-07-24_20h32.07.089,arm3_eps,2022.2.5,Win32,60.11060351,5f8040a15e9c0003ae16dc31,64aea9d0f615b6559c281482,64bed186cb86c4994b1545ba,right,1,0.3,0.2429,2,-0.021392634,0.5381,,,,,,36,0,36,0,1,,,,,
,,239978,001,2023-07-24_20h32.07.089,arm3_eps,2022.2.5,Win32,60.11060351,5f8040a15e9c0003ae16dc31,64aea9d0f615b6559c281482,64bed186cb86c4994b1545ba,right,1,0.3,0.2429,2,0.033836352,0.4907,,,,,,37,0,37,0,1,,,,,
,,239978,001,2023-07-24_20h32.07.089,arm3_eps,2022.2.5,Win32,60.11060351,5f8040a15e9c0003ae16dc31,64aea9d0f615b6559c281482,64bed186cb86c4994b1545ba,up,1,0.3,0.2429,3,0,0.56,,,,,,38,0,38,0,1,,,,,
,,239978,001,2023-07-24_20h32.07.089,arm3_eps,2022.2.5,Win32,60.11060351,5f8040a15e9c0003ae16dc31,64aea9d0f615b6559c281482,64bed186cb86c4994b1545ba,right,1,0.3,0.2429,3,0.010669273,0.577,,,,,,39,0,39,0,1,,,,,
,,239978,001,2023-07-24_20h32.07.089,arm3_eps,2022.2.5,Win32,60.11060351,5f8040a15e9c0003ae16dc31,64aea9d0f615b6559c281482,64bed186cb86c4994b1545ba,right,1,0.3,0.2429,3,0.002697257,0.8383,,,,,,40,0,40,0,1,,,,,
,,239978,001,2023-07-24_20h32.07.089,arm3_eps,2022.2.5,Win32,60.11060351,5f8040a15e9c0003ae16dc31,64aea9d0f615b6559c281482,64bed186cb86c4994b1545ba,down,-1,0.3,0.2429,3,0,0.5215,,,,,,41,0,41,0,1,,,,,
,,239978,001,2023-07-24_20h32.07.089,arm3_eps,2022.2.5,Win32,60.11060351,5f8040a15e9c0003ae16dc31,64aea9d0f615b6559c281482,64bed186cb86c4994b1545ba,right,-1,0.3,0.2429,3,-0.044165452,1.2681,,,,,,42,0,42,0,1,,,,,
,,239978,001,2023-07-24_20h32.07.089,arm3_eps,2022.2.5,Win32,60.11060351,5f8040a15e9c0003ae16dc31,64aea9d0f615b6559c281482,64bed186cb86c4994b1545ba,right,-1,0.3,0.2429,3,-0.043819839,0.4578,,,,,,43,0,43,0,1,,,,,
,,239978,001,2023-07-24_20h32.07.089,arm3_eps,2022.2.5,Win32,60.11060351,5f8040a15e9c0003ae16dc31,64aea9d0f615b6559c281482,64bed186cb86c4994b1545ba,down,-1,0.3,0.2429,3,0,0.4433,,,,,,44,0,44,0,1,,,,,
,,239978,001,2023-07-24_20h32.07.089,arm3_eps,2022.2.5,Win32,60.11060351,5f8040a15e9c0003ae16dc31,64aea9d0f615b6559c281482,64bed186cb86c4994b1545ba,right,-1,0.3,0.2429,3,-0.004024776,0.727,,,,,,45,0,45,0,1,,,,,
,,239978,001,2023-07-24_20h32.07.089,arm3_eps,2022.2.5,Win32,60.11060351,5f8040a15e9c0003ae16dc31,64aea9d0f615b6559c281482,64bed186cb86c4994b1545ba,right,-1,0.3,0.2429,3,-0.006879343,0.447,,,,,,46,0,46,0,1,,,,,
,,239978,001,2023-07-24_20h32.07.089,arm3_eps,2022.2.5,Win32,60.11060351,5f8040a15e9c0003ae16dc31,64aea9d0f615b6559c281482,64bed186cb86c4994b1545ba,down,-1,0.3,0.2429,3,0,0.5287,,,,,,47,0,47,0,1,,,,,
,,239978,001,2023-07-24_20h32.07.089,arm3_eps,2022.2.5,Win32,60.11060351,5f8040a15e9c0003ae16dc31,64aea9d0f615b6559c281482,64bed186cb86c4994b1545ba,right,-1,0.3,0.2429,3,-0.028396203,0.4421,,,,,,48,0,48,0,1,,,,,
,,239978,001,2023-07-24_20h32.07.089,arm3_eps,2022.2.5,Win32,60.11060351,5f8040a15e9c0003ae16dc31,64aea9d0f615b6559c281482,64bed186cb86c4994b1545ba,right,-1,0.3,0.2429,3,-0.032277916,0.4502,,,,,,49,0,49,0,1,,,,,
,,239978,001,2023-07-24_20h32.07.089,arm3_eps,2022.2.5,Win32,60.11060351,5f8040a15e9c0003ae16dc31,64aea9d0f615b6559c281482,64bed186cb86c4994b1545ba,down,-1,0.3,0.2429,3,0,0.4317,,,,,,50,0,50,0,1,,,,,
,,239978,001,2023-07-24_20h32.07.089,arm3_eps,2022.2.5,Win32,60.11060351,5f8040a15e9c0003ae16dc31,64aea9d0f615b6559c281482,64bed186cb86c4994b1545ba,right,-1,0.3,0.2429,3,-0.022747998,0.4019,,,,,,51,0,51,0,1,,,,,
,,239978,001,2023-07-24_20h32.07.089,arm3_eps,2022.2.5,Win32,60.11060351,5f8040a15e9c0003ae16dc31,64aea9d0f615b6559c281482,64bed186cb86c4994b1545ba,right,-1,0.3,0.2429,3,-0.015144967,0.4153,,,,,,52,0,52,0,1,,,,,
,,239978,001,2023-07-24_20h32.07.089,arm3_eps,2022.2.5,Win32,60.11060351,5f8040a15e9c0003ae16dc31,64aea9d0f615b6559c281482,64bed186cb86c4994b1545ba,down,-1,0.3,0.2429,3,0,0.5152,,,,,,53,0,53,0,1,,,,,
,,239978,001,2023-07-24_20h32.07.089,arm3_eps,2022.2.5,Win32,60.11060351,5f8040a15e9c0003ae16dc31,64aea9d0f615b6559c281482,64bed186cb86c4994b1545ba,right,-1,0.3,0.2429,3,-0.03030448,0.5103,,,,,,54,0,54,0,1,,,,,
,,239978,001,2023-07-24_20h32.07.089,arm3_eps,2022.2.5,Win32,60.11060351,5f8040a15e9c0003ae16dc31,64aea9d0f615b6559c281482,64bed186cb86c4994b1545ba,right,-1,0.3,0.2429,3,-0.031961737,0.433,,,,,,55,0,55,0,1,,,,,
,,239978,001,2023-07-24_20h32.07.089,arm3_eps,2022.2.5,Win32,60.11060351,5f8040a15e9c0003ae16dc31,64aea9d0f615b6559c281482,64bed186cb86c4994b1545ba,down,-1,0.3,0.2429,3,0,0.4726,,,,,,56,0,56,0,1,,,,,
,,239978,001,2023-07-24_20h32.07.089,arm3_eps,2022.2.5,Win32,60.11060351,5f8040a15e9c0003ae16dc31,64aea9d0f615b6559c281482,64bed186cb86c4994b1545ba,right,-1,0.3,0.2429,3,-0.023228993,0.4963,,,,,,57,0,57,0,1,,,,,
,,239978,001,2023-07-24_20h32.07.089,arm3_eps,2022.2.5,Win32,60.11060351,5f8040a15e9c0003ae16dc31,64aea9d0f615b6559c281482,64bed186cb86c4994b1545ba,right,-1,0.3,0.2429,3,0.023869509,0.4787,,,,,,58,0,58,0,1,,,,,
,,239978,001,2023-07-24_20h32.07.089,arm3_eps,2022.2.5,Win32,60.11060351,5f8040a15e9c0003ae16dc31,64aea9d0f615b6559c281482,64bed186cb86c4994b1545ba,right,-1,0.3,0.2429,3,-0.01048342,0.9954,,,,,,59,0,59,0,1,,,,,
,,239978,001,2023-07-24_20h32.07.089,arm3_eps,2022.2.5,Win32,60.11060351,5f8040a15e9c0003ae16dc31,64aea9d0f615b6559c281482,64bed186cb86c4994b1545ba,right,-1,0.3,0.2429,3,-0.015297036,0.3625,,,,,,60,0,60,0,1,,,,,
,,239978,001,2023-07-24_20h32.07.089,arm3_eps,2022.2.5,Win32,60.11060351,5f8040a15e9c0003ae16dc31,64aea9d0f615b6559c281482,64bed186cb86c4994b1545ba,down,-1,0.3,0.2429,3,0,0.7036,,,,,,61,0,61,0,1,,,,,
,,239978,001,2023-07-24_20h32.07.089,arm3_eps,2022.2.5,Win32,60.11060351,5f8040a15e9c0003ae16dc31,64aea9d0f615b6559c281482,64bed186cb86c4994b1545ba,right,-1,0.3,0.2429,3,0.009336851,0.4497,,,,,,62,0,62,0,1,,,,,
,,239978,001,2023-07-24_20h32.07.089,arm3_eps,2022.2.5,Win32,60.11060351,5f8040a15e9c0003ae16dc31,64aea9d0f615b6559c281482,64bed186cb86c4994b1545ba,right,-1,0.3,0.2429,3,0.001259156,0.4475,,,,,,63,0,63,0,1,,,,,
,,239978,001,2023-07-24_20h32.07.089,arm3_eps,2022.2.5,Win32,60.11060351,5f8040a15e9c0003ae16dc31,64aea9d0f615b6559c281482,64bed186cb86c4994b1545ba,right,-1,0.3,0.2429,3,0.001526454,0.4294,,,,,,64,0,64,0,1,,,,,
,,239978,001,2023-07-24_20h32.07.089,arm3_eps,2022.2.5,Win32,60.11060351,5f8040a15e9c0003ae16dc31,64aea9d0f615b6559c281482,64bed186cb86c4994b1545ba,down,-1,0.3,0.2429,3,0,0.8659,,,,,,65,0,65,0,1,,,,,
,,239978,001,2023-07-24_20h32.07.089,arm3_eps,2022.2.5,Win32,60.11060351,5f8040a15e9c0003ae16dc31,64aea9d0f615b6559c281482,64bed186cb86c4994b1545ba,right,-1,0.3,0.2429,3,-0.028133211,0.4471,,,,,,66,0,66,0,1,,,,,
,,239978,001,2023-07-24_20h32.07.089,arm3_eps,2022.2.5,Win32,60.11060351,5f8040a15e9c0003ae16dc31,64aea9d0f615b6559c281482,64bed186cb86c4994b1545ba,right,-1,0.3,0.2429,3,-0.022797297,0.4382,,,,,,67,0,67,0,1,,,,,
,,239978,001,2023-07-24_20h32.07.089,arm3_eps,2022.2.5,Win32,60.11060351,5f8040a15e9c0003ae16dc31,64aea9d0f615b6559c281482,64bed186cb86c4994b1545ba,right,-1,0.3,0.2429,3,-0.017878227,0.5302,,,,,,68,0,68,0,1,,,,,
,,239978,001,2023-07-24_20h32.07.089,arm3_eps,2022.2.5,Win32,60.11060351,5f8040a15e9c0003ae16dc31,64aea9d0f615b6559c281482,64bed186cb86c4994b1545ba,down,-1,0.3,0.2429,3,0,0.8054,,,,,,69,0,69,0,1,,,,,
,,239978,001,2023-07-24_20h32.07.089,arm3_eps,2022.2.5,Win32,60.11060351,5f8040a15e9c0003ae16dc31,64aea9d0f615b6559c281482,64bed186cb86c4994b1545ba,right,-1,0.3,0.2429,3,-0.003149013,0.3887,,,,,,70,0,70,0,1,,,,,
,,239978,001,2023-07-24_20h32.07.089,arm3_eps,2022.2.5,Win32,60.11060351,5f8040a15e9c0003ae16dc31,64aea9d0f615b6559c281482,64bed186cb86c4994b1545ba,right,-1,0.3,0.2429,3,-0.024188104,0.4278,,,,,,71,0,71,0,1,,,,,
,,239978,001,2023-07-24_20h32.07.089,arm3_eps,2022.2.5,Win32,60.11060351,5f8040a15e9c0003ae16dc31,64aea9d0f615b6559c281482,64bed186cb86c4994b1545ba,down,-1,0.3,0.2429,3,0,0.5313,,,,,,72,0,72,0,1,,,,,
,,239978,001,2023-07-24_20h32.07.089,arm3_eps,2022.2.5,Win32,60.11060351,5f8040a15e9c0003ae16dc31,64aea9d0f615b6559c281482,64bed186cb86c4994b1545ba,right,-1,0.3,0.2429,3,-0.001872428,0.443,,,,,,73,0,73,0,1,,,,,
,,239978,001,2023-07-24_20h32.07.089,arm3_eps,2022.2.5,Win32,60.11060351,5f8040a15e9c0003ae16dc31,64aea9d0f615b6559c281482,64bed186cb86c4994b1545ba,right,-1,0.3,0.2429,3,-0.052341841,0.4364,,,,,,74,0,74,0,1,,,,,
,,239978,001,2023-07-24_20h32.07.089,arm3_eps,2022.2.5,Win32,60.11060351,5f8040a15e9c0003ae16dc31,64aea9d0f615b6559c281482,64bed186cb86c4994b1545ba,down,-1,0.3,0.2429,4,0,0.6604,,,,,,75,0,75,0,1,,,,,
,,239978,001,2023-07-24_20h32.07.089,arm3_eps,2022.2.5,Win32,60.11060351,5f8040a15e9c0003ae16dc31,64aea9d0f615b6559c281482,64bed186cb86c4994b1545ba,right,-1,0.3,0.2429,4,-0.004423633,0.4695,,,,,,76,0,76,0,1,,,,,
,,239978,001,2023-07-24_20h32.07.089,arm3_eps,2022.2.5,Win32,60.11060351,5f8040a15e9c0003ae16dc31,64aea9d0f615b6559c281482,64bed186cb86c4994b1545ba,right,-1,0.3,0.2429,4,-0.00802419,0.5119,,,,,,77,0,77,0,1,,,,,
,,239978,001,2023-07-24_20h32.07.089,arm3_eps,2022.2.5,Win32,60.11060351,5f8040a15e9c0003ae16dc31,64aea9d0f615b6559c281482,64bed186cb86c4994b1545ba,up,-1,0.3,0.2429,4,0,1.0973,,,,,,78,0,78,0,1,,,,,
,,239978,001,2023-07-24_20h32.07.089,arm3_eps,2022.2.5,Win32,60.11060351,5f8040a15e9c0003ae16dc31,64aea9d0f615b6559c281482,64bed186cb86c4994b1545ba,right,-1,0.3,0.2429,4,-0.026556163,0.4426,,,,,,79,0,79,0,1,,,,,
,,239978,001,2023-07-24_20h32.07.089,arm3_eps,2022.2.5,Win32,60.11060351,5f8040a15e9c0003ae16dc31,64aea9d0f615b6559c281482,64bed186cb86c4994b1545ba,right,-1,0.3,0.2429,4,-0.066217742,0.5114,,,,,,80,0,80,0,1,,,,,
,,239978,001,2023-07-24_20h32.07.089,arm3_eps,2022.2.5,Win32,60.11060351,5f8040a15e9c0003ae16dc31,64aea9d0f615b6559c281482,64bed186cb86c4994b1545ba,down,-1,0.3,0.2429,4,0,0.6318,,,,,,81,0,81,0,1,,,,,
,,239978,001,2023-07-24_20h32.07.089,arm3_eps,2022.2.5,Win32,60.11060351,5f8040a15e9c0003ae16dc31,64aea9d0f615b6559c281482,64bed186cb86c4994b1545ba,right,-1,0.3,0.2429,4,-0.024396764,0.4435,,,,,,82,0,82,0,1,,,,,
,,239978,001,2023-07-24_20h32.07.089,arm3_eps,2022.2.5,Win32,60.11060351,5f8040a15e9c0003ae16dc31,64aea9d0f615b6559c281482,64bed186cb86c4994b1545ba,right,-1,0.3,0.2429,4,-0.023914647,0.4716,,,,,,83,0,83,0,1,,,,,
,,239978,001,2023-07-24_20h32.07.089,arm3_eps,2022.2.5,Win32,60.11060351,5f8040a15e9c0003ae16dc31,64aea9d0f615b6559c281482,64bed186cb86c4994b1545ba,down,1,0.3,0.2429,5,0,0.5116,,,,,,84,0,84,0,1,,,,,
,,239978,001,2023-07-24_20h32.07.089,arm3_eps,2022.2.5,Win32,60.11060351,5f8040a15e9c0003ae16dc31,64aea9d0f615b6559c281482,64bed186cb86c4994b1545ba,right,1,0.3,0.2429,5,0.052805957,0.3903,,,,,,85,0,85,0,1,,,,,
,,239978,001,2023-07-24_20h32.07.089,arm3_eps,2022.2.5,Win32,60.11060351,5f8040a15e9c0003ae16dc31,64aea9d0f615b6559c281482,64bed186cb86c4994b1545ba,right,1,0.3,0.2429,5,0.057626702,0.4846,,,,,,86,0,86,0,1,,,,,
,,239978,001,2023-07-24_20h32.07.089,arm3_eps,2022.2.5,Win32,60.11060351,5f8040a15e9c0003ae16dc31,64aea9d0f615b6559c281482,64bed186cb86c4994b1545ba,up,1,0.3,0.2429,5,0,0.627,,,,,,87,0,87,0,1,,,,,
,,239978,001,2023-07-24_20h32.07.089,arm3_eps,2022.2.5,Win32,60.11060351,5f8040a15e9c0003ae16dc31,64aea9d0f615b6559c281482,64bed186cb86c4994b1545ba,right,1,0.3,0.2429,5,0.025434219,0.4186,,,,,,88,0,88,0,1,,,,,
,,239978,001,2023-07-24_20h32.07.089,arm3_eps,2022.2.5,Win32,60.11060351,5f8040a15e9c0003ae16dc31,64aea9d0f615b6559c281482,64bed186cb86c4994b1545ba,right,1,0.3,0.2429,5,0.006543801,0.5321,,,,,,89,0,89,0,1,,,,,
,,239978,001,2023-07-24_20h32.07.089,arm3_eps,2022.2.5,Win32,60.11060351,5f8040a15e9c0003ae16dc31,64aea9d0f615b6559c281482,64bed186cb86c4994b1545ba,right,1,0.3,0.2429,5,0.004406582,2.0551,,,,,,90,0,90,0,1,,,,,
,,239978,001,2023-07-24_20h32.07.089,arm3_eps,2022.2.5,Win32,60.11060351,5f8040a15e9c0003ae16dc31,64aea9d0f615b6559c281482,64bed186cb86c4994b1545ba,down,1,0.3,0.2429,5,0,0.5773,,,,,,91,0,91,0,1,,,,,
,,239978,001,2023-07-24_20h32.07.089,arm3_eps,2022.2.5,Win32,60.11060351,5f8040a15e9c0003ae16dc31,64aea9d0f615b6559c281482,64bed186cb86c4994b1545ba,right,1,0.3,0.2429,5,0.029196334,0.4792,,,,,,92,0,92,0,1,,,,,
,,239978,001,2023-07-24_20h32.07.089,arm3_eps,2022.2.5,Win32,60.11060351,5f8040a15e9c0003ae16dc31,64aea9d0f615b6559c281482,64bed186cb86c4994b1545ba,right,1,0.3,0.2429,5,0.062909899,0.4624,,,,,,93,0,93,0,1,,,,,
,,239978,001,2023-07-24_20h32.07.089,arm3_eps,2022.2.5,Win32,60.11060351,5f8040a15e9c0003ae16dc31,64aea9d0f615b6559c281482,64bed186cb86c4994b1545ba,up,-1,0.3,0.2429,5,0,0.6048,,,,,,94,0,94,0,1,,,,,
,,239978,001,2023-07-24_20h32.07.089,arm3_eps,2022.2.5,Win32,60.11060351,5f8040a15e9c0003ae16dc31,64aea9d0f615b6559c281482,64bed186cb86c4994b1545ba,right,-1,0.3,0.2429,5,0.008949103,0.459,,,,,,95,0,95,0,1,,,,,
,,239978,001,2023-07-24_20h32.07.089,arm3_eps,2022.2.5,Win32,60.11060351,5f8040a15e9c0003ae16dc31,64aea9d0f615b6559c281482,64bed186cb86c4994b1545ba,right,-1,0.3,0.2429,5,0.010309597,0.4939,,,,,,96,0,96,0,1,,,,,
,,239978,001,2023-07-24_20h32.07.089,arm3_eps,2022.2.5,Win32,60.11060351,5f8040a15e9c0003ae16dc31,64aea9d0f615b6559c281482,64bed186cb86c4994b1545ba,right,-1,0.3,0.2429,5,-0.000439994,0.6815,,,,,,97,0,97,0,1,,,,,
,,239978,001,2023-07-24_20h32.07.089,arm3_eps,2022.2.5,Win32,60.11060351,5f8040a15e9c0003ae16dc31,64aea9d0f615b6559c281482,64bed186cb86c4994b1545ba,down,-1,0.3,0.2429,5,0,0.5572,,,,,,98,0,98,0,1,,,,,
,,239978,001,2023-07-24_20h32.07.089,arm3_eps,2022.2.5,Win32,60.11060351,5f8040a15e9c0003ae16dc31,64aea9d0f615b6559c281482,64bed186cb86c4994b1545ba,right,-1,0.3,0.2429,5,-0.013622731,0.4622,,,,,,99,0,99,0,1,,,,,
,,239978,001,2023-07-24_20h32.07.089,arm3_eps,2022.2.5,Win32,60.11060351,5f8040a15e9c0003ae16dc31,64aea9d0f615b6559c281482,64bed186cb86c4994b1545ba,right,-1,0.3,0.2429,5,-0.021869702,0.4503,,,,,,100,0,100,0,1,,,,,
,,239978,001,2023-07-24_20h32.07.089,arm3_eps,2022.2.5,Win32,60.11060351,5f8040a15e9c0003ae16dc31,64aea9d0f615b6559c281482,64bed186cb86c4994b1545ba,down,-1,0.3,0.2429,5,0,0.5145,,,,,,101,0,101,0,1,,,,,
,,239978,001,2023-07-24_20h32.07.089,arm3_eps,2022.2.5,Win32,60.11060351,5f8040a15e9c0003ae16dc31,64aea9d0f615b6559c281482,64bed186cb86c4994b1545ba,right,-1,0.3,0.2429,5,0.027523204,0.5288,,,,,,102,0,102,0,1,,,,,
,,239978,001,2023-07-24_20h32.07.089,arm3_eps,2022.2.5,Win32,60.11060351,5f8040a15e9c0003ae16dc31,64aea9d0f615b6559c281482,64bed186cb86c4994b1545ba,right,-1,0.3,0.2429,5,0.043574452,0.4479,,,,,,103,0,103,0,1,,,,,
,,239978,001,2023-07-24_20h32.07.089,arm3_eps,2022.2.5,Win32,60.11060351,5f8040a15e9c0003ae16dc31,64aea9d0f615b6559c281482,64bed186cb86c4994b1545ba,up,-1,0.3,0.2429,5,0,0.564,,,,,,104,0,104,0,1,,,,,
,,239978,001,2023-07-24_20h32.07.089,arm3_eps,2022.2.5,Win32,60.11060351,5f8040a15e9c0003ae16dc31,64aea9d0f615b6559c281482,64bed186cb86c4994b1545ba,right,-1,0.3,0.2429,5,-0.037143092,0.4267,,,,,,105,0,105,0,1,,,,,
,,239978,001,2023-07-24_20h32.07.089,arm3_eps,2022.2.5,Win32,60.11060351,5f8040a15e9c0003ae16dc31,64aea9d0f615b6559c281482,64bed186cb86c4994b1545ba,right,-1,0.3,0.2429,5,-0.031611463,0.4728,,,,,,106,0,106,0,1,,,,,
,,239978,001,2023-07-24_20h32.07.089,arm3_eps,2022.2.5,Win32,60.11060351,5f8040a15e9c0003ae16dc31,64aea9d0f615b6559c281482,64bed186cb86c4994b1545ba,down,1,0.3,0.2429,5,0,0.5299,,,,,,107,0,107,0,1,,,,,
,,239978,001,2023-07-24_20h32.07.089,arm3_eps,2022.2.5,Win32,60.11060351,5f8040a15e9c0003ae16dc31,64aea9d0f615b6559c281482,64bed186cb86c4994b1545ba,right,1,0.3,0.2429,5,0.021418298,0.4276,,,,,,108,0,108,0,1,,,,,
,,239978,001,2023-07-24_20h32.07.089,arm3_eps,2022.2.5,Win32,60.11060351,5f8040a15e9c0003ae16dc31,64aea9d0f615b6559c281482,64bed186cb86c4994b1545ba,right,1,0.3,0.2429,5,0.034423983,0.4223,,,,,,109,0,109,0,1,,,,,
,,239978,001,2023-07-24_20h32.07.089,arm3_eps,2022.2.5,Win32,60.11060351,5f8040a15e9c0003ae16dc31,64aea9d0f615b6559c281482,64bed186cb86c4994b1545ba,up,1,0.3,0.2429,5,0,0.5934,,,,,,110,0,110,0,1,,,,,
,,239978,001,2023-07-24_20h32.07.089,arm3_eps,2022.2.5,Win32,60.11060351,5f8040a15e9c0003ae16dc31,64aea9d0f615b6559c281482,64bed186cb86c4994b1545ba,right,1,0.3,0.2429,5,0.057152044,0.3988,,,,,,111,0,111,0,1,,,,,
,,239978,001,2023-07-24_20h32.07.089,arm3_eps,2022.2.5,Win32,60.11060351,5f8040a15e9c0003ae16dc31,64aea9d0f615b6559c281482,64bed186cb86c4994b1545ba,right,1,0.3,0.2429,5,0.074074097,0.4291,,,,,,112,0,112,0,1,,,,,
,,239978,001,2023-07-24_20h32.07.089,arm3_eps,2022.2.5,Win32,60.11060351,5f8040a15e9c0003ae16dc31,64aea9d0f615b6559c281482,64bed186cb86c4994b1545ba,right,1,0.3,0.2429,5,0.056674591,0.9539,,,,,,113,0,113,0,1,,,,,
,,239978,001,2023-07-24_20h32.07.089,arm3_eps,2022.2.5,Win32,60.11060351,5f8040a15e9c0003ae16dc31,64aea9d0f615b6559c281482,64bed186cb86c4994b1545ba,right,1,0.3,0.2429,5,0.040465419,0.4493,,,,,,114,0,114,0,1,,,,,
,,239978,001,2023-07-24_20h32.07.089,arm3_eps,2022.2.5,Win32,60.11060351,5f8040a15e9c0003ae16dc31,64aea9d0f615b6559c281482,64bed186cb86c4994b1545ba,down,-1,0.3,0.2429,5,0,0.4305,,,,,,115,0,115,0,1,,,,,
,,239978,001,2023-07-24_20h32.07.089,arm3_eps,2022.2.5,Win32,60.11060351,5f8040a15e9c0003ae16dc31,64aea9d0f615b6559c281482,64bed186cb86c4994b1545ba,right,-1,0.3,0.2429,5,-0.020010445,0.3932,,,,,,116,0,116,0,1,,,,,
,,239978,001,2023-07-24_20h32.07.089,arm3_eps,2022.2.5,Win32,60.11060351,5f8040a15e9c0003ae16dc31,64aea9d0f615b6559c281482,64bed186cb86c4994b1545ba,right,-1,0.3,0.2429,5,-0.025311983,0.5333,,,,,,117,0,117,0,1,,,,,
,,239978,001,2023-07-24_20h32.07.089,arm3_eps,2022.2.5,Win32,60.11060351,5f8040a15e9c0003ae16dc31,64aea9d0f615b6559c281482,64bed186cb86c4994b1545ba,right,-1,0.3,0.2429,5,-0.031502208,0.5308,,,,,,118,0,118,0,1,,,,,
,,239978,001,2023-07-24_20h32.07.089,arm3_eps,2022.2.5,Win32,60.11060351,5f8040a15e9c0003ae16dc31,64aea9d0f615b6559c281482,64bed186cb86c4994b1545ba,down,-1,0.3,0.2429,5,0,0.363,,,,,,119,0,119,0,1,,,,,
,,239978,001,2023-07-24_20h32.07.089,arm3_eps,2022.2.5,Win32,60.11060351,5f8040a15e9c0003ae16dc31,64aea9d0f615b6559c281482,64bed186cb86c4994b1545ba,right,-1,0.3,0.2429,5,-0.008399802,0.4307,,,,,,120,0,120,0,1,,,,,
,,239978,001,2023-07-24_20h32.07.089,arm3_eps,2022.2.5,Win32,60.11060351,5f8040a15e9c0003ae16dc31,64aea9d0f615b6559c281482,64bed186cb86c4994b1545ba,right,-1,0.3,0.2429,5,-0.031437821,0.4483,,,,,,121,0,121,0,1,,,,,
,,239978,001,2023-07-24_20h32.07.089,arm3_eps,2022.2.5,Win32,60.11060351,5f8040a15e9c0003ae16dc31,64aea9d0f615b6559c281482,64bed186cb86c4994b1545ba,down,1,0.3,0.2429,5,0,0.7816,,,,,,122,0,122,0,1,,,,,
,,239978,001,2023-07-24_20h32.07.089,arm3_eps,2022.2.5,Win32,60.11060351,5f8040a15e9c0003ae16dc31,64aea9d0f615b6559c281482,64bed186cb86c4994b1545ba,right,1,0.3,0.2429,5,0.028101903,0.3619,,,,,,123,0,123,0,1,,,,,
,,239978,001,2023-07-24_20h32.07.089,arm3_eps,2022.2.5,Win32,60.11060351,5f8040a15e9c0003ae16dc31,64aea9d0f615b6559c281482,64bed186cb86c4994b1545ba,right,1,0.3,0.2429,5,0.041143437,0.4961,,,,,,124,0,124,0,1,,,,,
,,239978,001,2023-07-24_20h32.07.089,arm3_eps,2022.2.5,Win32,60.11060351,5f8040a15e9c0003ae16dc31,64aea9d0f615b6559c281482,64bed186cb86c4994b1545ba,up,1,0.3,0.2429,5,0,0.5126,,,,,,125,0,125,0,1,,,,,
,,239978,001,2023-07-24_20h32.07.089,arm3_eps,2022.2.5,Win32,60.11060351,5f8040a15e9c0003ae16dc31,64aea9d0f615b6559c281482,64bed186cb86c4994b1545ba,right,1,0.3,0.2429,5,0.016807197,0.3932,,,,,,126,0,126,0,1,,,,,
,,239978,001,2023-07-24_20h32.07.089,arm3_eps,2022.2.5,Win32,60.11060351,5f8040a15e9c0003ae16dc31,64aea9d0f615b6559c281482,64bed186cb86c4994b1545ba,right,1,0.3,0.2429,5,0.039491567,0.5225,,,,,,127,0,127,0,1,,,,,
,,239978,001,2023-07-24_20h32.07.089,arm3_eps,2022.2.5,Win32,60.11060351,5f8040a15e9c0003ae16dc31,64aea9d0f615b6559c281482,64bed186cb86c4994b1545ba,up,1,0.3,0.2429,6,0,0.7606,,,,,,128,0,128,0,1,,,,,
,,239978,001,2023-07-24_20h32.07.089,arm3_eps,2022.2.5,Win32,60.11060351,5f8040a15e9c0003ae16dc31,64aea9d0f615b6559c281482,64bed186cb86c4994b1545ba,right,1,0.3,0.2429,6,-0.016118785,0.4087,,,,,,129,0,129,0,1,,,,,
,,239978,001,2023-07-24_20h32.07.089,arm3_eps,2022.2.5,Win32,60.11060351,5f8040a15e9c0003ae16dc31,64aea9d0f615b6559c281482,64bed186cb86c4994b1545ba,right,1,0.3,0.2429,6,-0.010693704,0.6781,,,,,,130,0,130,0,1,,,,,
,,239978,001,2023-07-24_20h32.07.089,arm3_eps,2022.2.5,Win32,60.11060351,5f8040a15e9c0003ae16dc31,64aea9d0f615b6559c281482,64bed186cb86c4994b1545ba,right,1,0.3,0.2429,6,0.004274272,0.5621,,,,,,131,0,131,0,1,,,,,
,,239978,001,2023-07-24_20h32.07.089,arm3_eps,2022.2.5,Win32,60.11060351,5f8040a15e9c0003ae16dc31,64aea9d0f615b6559c281482,64bed186cb86c4994b1545ba,up,1,0.3,0.2429,7,0,0.73,,,,,,132,0,132,0,1,,,,,
,,239978,001,2023-07-24_20h32.07.089,arm3_eps,2022.2.5,Win32,60.11060351,5f8040a15e9c0003ae16dc31,64aea9d0f615b6559c281482,64bed186cb86c4994b1545ba,right,1,0.3,0.2429,7,0.007208584,1.0172,,,,,,133,0,133,0,1,,,,,
,,239978,001,2023-07-24_20h32.07.089,arm3_eps,2022.2.5,Win32,60.11060351,5f8040a15e9c0003ae16dc31,64aea9d0f615b6559c281482,64bed186cb86c4994b1545ba,right,1,0.3,0.2429,7,-0.004197131,0.5291,,,,,,134,0,134,0,1,,,,,
,,239978,001,2023-07-24_20h32.07.089,arm3_eps,2022.2.5,Win32,60.11060351,5f8040a15e9c0003ae16dc31,64aea9d0f615b6559c281482,64bed186cb86c4994b1545ba,right,1,0.3,0.2429,7,-0.013636898,0.7155,,,,,,135,0,135,0,1,,,,,
,,239978,001,2023-07-24_20h32.07.089,arm3_eps,2022.2.5,Win32,60.11060351,5f8040a15e9c0003ae16dc31,64aea9d0f615b6559c281482,64bed186cb86c4994b1545ba,up,1,0.3,0.2429,7,0,1.1329,,,,,,136,0,136,0,1,,,,,
,,239978,001,2023-07-24_20h32.07.089,arm3_eps,2022.2.5,Win32,60.11060351,5f8040a15e9c0003ae16dc31,64aea9d0f615b6559c281482,64bed186cb86c4994b1545ba,right,1,0.3,0.2429,7,-0.010201151,0.4388,,,,,,137,0,137,0,1,,,,,
,,239978,001,2023-07-24_20h32.07.089,arm3_eps,2022.2.5,Win32,60.11060351,5f8040a15e9c0003ae16dc31,64aea9d0f615b6559c281482,64bed186cb86c4994b1545ba,right,1,0.3,0.2429,7,0.010614127,0.4119,,,,,,138,0,138,0,1,,,,,
,,239978,001,2023-07-24_20h32.07.089,arm3_eps,2022.2.5,Win32,60.11060351,5f8040a15e9c0003ae16dc31,64aea9d0f615b6559c281482,64bed186cb86c4994b1545ba,right,1,0.3,0.2429,7,0.012088027,0.4181,,,,,,139,0,139,0,1,,,,,
,,239978,001,2023-07-24_20h32.07.089,arm3_eps,2022.2.5,Win32,60.11060351,5f8040a15e9c0003ae16dc31,64aea9d0f615b6559c281482,64bed186cb86c4994b1545ba,up,1,0.3,0.2429,8,0,0.5141,,,,,,140,0,140,0,1,,,,,
,,239978,001,2023-07-24_20h32.07.089,arm3_eps,2022.2.5,Win32,60.11060351,5f8040a15e9c0003ae16dc31,64aea9d0f615b6559c281482,64bed186cb86c4994b1545ba,right,1,0.3,0.2429,8,0.01020375,0.3936,,,,,,141,0,141,0,1,,,,,
,,239978,001,2023-07-24_20h32.07.089,arm3_eps,2022.2.5,Win32,60.11060351,5f8040a15e9c0003ae16dc31,64aea9d0f615b6559c281482,64bed186cb86c4994b1545ba,right,1,0.3,0.2429,8,0.014971463,0.4655,,,,,,142,0,142,0,1,,,,,
,,239978,001,2023-07-24_20h32.07.089,arm3_eps,2022.2.5,Win32,60.11060351,5f8040a15e9c0003ae16dc31,64aea9d0f615b6559c281482,64bed186cb86c4994b1545ba,right,1,0.3,0.2429,8,0.016612235,0.4825,,,,,,143,0,143,0,1,,,,,
,,239978,001,2023-07-24_20h32.07.089,arm3_eps,2022.2.5,Win32,60.11060351,5f8040a15e9c0003ae16dc31,64aea9d0f615b6559c281482,64bed186cb86c4994b1545ba,up,1,0.3,0.2429,8,0,0.3666,,,,,,144,0,144,0,1,,,,,
,,239978,001,2023-07-24_20h32.07.089,arm3_eps,2022.2.5,Win32,60.11060351,5f8040a15e9c0003ae16dc31,64aea9d0f615b6559c281482,64bed186cb86c4994b1545ba,right,1,0.3,0.2429,8,-3.24809E-05,0.442,,,,,,145,0,145,0,1,,,,,
,,239978,001,2023-07-24_20h32.07.089,arm3_eps,2022.2.5,Win32,60.11060351,5f8040a15e9c0003ae16dc31,64aea9d0f615b6559c281482,64bed186cb86c4994b1545ba,right,1,0.3,0.2429,8,0.040771008,0.4953,,,,,,146,0,146,0,1,,,,,
,,239978,001,2023-07-24_20h32.07.089,arm3_eps,2022.2.5,Win32,60.11060351,5f8040a15e9c0003ae16dc31,64aea9d0f615b6559c281482,64bed186cb86c4994b1545ba,right,1,0.3,0.2429,8,0.001746058,0.8137,,,,,,147,0,147,0,1,,,,,
,,239978,001,2023-07-24_20h32.07.089,arm3_eps,2022.2.5,Win32,60.11060351,5f8040a15e9c0003ae16dc31,64aea9d0f615b6559c281482,64bed186cb86c4994b1545ba,right,1,0.3,0.2429,8,0.024670493,0.5152,,,,,,148,0,148,0,1,,,,,
,,239978,001,2023-07-24_20h32.07.089,arm3_eps,2022.2.5,Win32,60.11060351,5f8040a15e9c0003ae16dc31,64aea9d0f615b6559c281482,64bed186cb86c4994b1545ba,up,1,0.3,0.2429,9,0,0.5991,,,,,,149,0,149,0,1,,,,,
,,239978,001,2023-07-24_20h32.07.089,arm3_eps,2022.2.5,Win32,60.11060351,5f8040a15e9c0003ae16dc31,64aea9d0f615b6559c281482,64bed186cb86c4994b1545ba,right,1,0.3,0.2429,9,0.026516843,0.6885,,,,,,150,0,150,0,1,,,,,
,,239978,001,2023-07-24_20h32.07.089,arm3_eps,2022.2.5,Win32,60.11060351,5f8040a15e9c0003ae16dc31,64aea9d0f615b6559c281482,64bed186cb86c4994b1545ba,right,1,0.3,0.2429,9,0.005903519,0.395,,,,,,151,0,151,0,1,,,,,
,,239978,001,2023-07-24_20h32.07.089,arm3_eps,2022.2.5,Win32,60.11060351,5f8040a15e9c0003ae16dc31,64aea9d0f615b6559c281482,64bed186cb86c4994b1545ba,right,1,0.3,0.2429,9,-0.003900784,0.4618,,,,,,152,0,152,0,1,,,,,
,,239978,001,2023-07-24_20h32.07.089,arm3_eps,2022.2.5,Win32,60.11060351,5f8040a15e9c0003ae16dc31,64aea9d0f615b6559c281482,64bed186cb86c4994b1545ba,right,1,0.3,0.2429,9,0.010092323,0.4821,,,,,,153,0,153,0,1,,,,,
,,239978,001,2023-07-24_20h32.07.089,arm3_eps,2022.2.5,Win32,60.11060351,5f8040a15e9c0003ae16dc31,64aea9d0f615b6559c281482,64bed186cb86c4994b1545ba,up,1,0.3,0.2429,9,0,0.4525,,,,,,154,0,154,0,1,,,,,
,,239978,001,2023-07-24_20h32.07.089,arm3_eps,2022.2.5,Win32,60.11060351,5f8040a15e9c0003ae16dc31,64aea9d0f615b6559c281482,64bed186cb86c4994b1545ba,right,1,0.3,0.2429,9,0.005435192,0.4275,,,,,,155,0,155,0,1,,,,,
,,239978,001,2023-07-24_20h32.07.089,arm3_eps,2022.2.5,Win32,60.11060351,5f8040a15e9c0003ae16dc31,64aea9d0f615b6559c281482,64bed186cb86c4994b1545ba,right,1,0.3,0.2429,9,-0.013502083,0.4142,,,,,,156,0,156,0,1,,,,,
,,239978,001,2023-07-24_20h32.07.089,arm3_eps,2022.2.5,Win32,60.11060351,5f8040a15e9c0003ae16dc31,64aea9d0f615b6559c281482,64bed186cb86c4994b1545ba,right,1,0.3,0.2429,9,-0.013668177,0.3979,,,,,,157,0,157,0,1,,,,,
,,239978,001,2023-07-24_20h32.07.089,arm3_eps,2022.2.5,Win32,60.11060351,5f8040a15e9c0003ae16dc31,64aea9d0f615b6559c281482,64bed186cb86c4994b1545ba,right,1,0.3,0.2429,9,0.00493775,0.4361,,,,,,158,0,158,0,1,,,,,
,,239978,001,2023-07-24_20h32.07.089,arm3_eps,2022.2.5,Win32,60.11060351,5f8040a15e9c0003ae16dc31,64aea9d0f615b6559c281482,64bed186cb86c4994b1545ba,right,1,0.3,0.2429,9,0.022519087,0.4464,,,,,,159,0,159,0,1,,,,,
,,239978,001,2023-07-24_20h32.07.089,arm3_eps,2022.2.5,Win32,60.11060351,5f8040a15e9c0003ae16dc31,64aea9d0f615b6559c281482,64bed186cb86c4994b1545ba,up,1,0.3,0.2429,10,0,0.3301,,,,,,160,0,160,0,1,,,,,
,,239978,001,2023-07-24_20h32.07.089,arm3_eps,2022.2.5,Win32,60.11060351,5f8040a15e9c0003ae16dc31,64aea9d0f615b6559c281482,64bed186cb86c4994b1545ba,right,1,0.3,0.2429,10,-0.031026706,0.459,,,,,,161,0,161,0,1,,,,,
,,239978,001,2023-07-24_20h32.07.089,arm3_eps,2022.2.5,Win32,60.11060351,5f8040a15e9c0003ae16dc31,64aea9d0f615b6559c281482,64bed186cb86c4994b1545ba,right,1,0.3,0.2429,10,-0.029017761,0.4345,,,,,,162,0,162,0,1,,,,,
,,239978,001,2023-07-24_20h32.07.089,arm3_eps,2022.2.5,Win32,60.11060351,5f8040a15e9c0003ae16dc31,64aea9d0f615b6559c281482,64bed186cb86c4994b1545ba,right,1,0.3,0.2429,10,-0.018105931,0.4155,,,,,,163,0,163,0,1,,,,,
,,239978,001,2023-07-24_20h32.07.089,arm3_eps,2022.2.5,Win32,60.11060351,5f8040a15e9c0003ae16dc31,64aea9d0f615b6559c281482,64bed186cb86c4994b1545ba,right,1,0.3,0.2429,10,-0.054463958,0.5137,,,,,,164,0,164,0,1,,,,,
,,239978,001,2023-07-24_20h32.07.089,arm3_eps,2022.2.5,Win32,60.11060351,5f8040a15e9c0003ae16dc31,64aea9d0f615b6559c281482,64bed186cb86c4994b1545ba,right,1,0.3,0.2429,10,-0.037128236,0.4456,,,,,,165,0,165,0,1,,,,,
,,239978,001,2023-07-24_20h32.07.089,arm3_eps,2022.2.5,Win32,60.11060351,5f8040a15e9c0003ae16dc31,64aea9d0f615b6559c281482,64bed186cb86c4994b1545ba,right,1,0.3,0.2429,10,-0.039362217,0.5776,,,,,,166,0,166,0,1,,,,,
,,239978,001,2023-07-24_20h32.07.089,arm3_eps,2022.2.5,Win32,60.11060351,5f8040a15e9c0003ae16dc31,64aea9d0f615b6559c281482,64bed186cb86c4994b1545ba,right,1,0.3,0.2429,10,-0.043932047,0.6629,,,,,,167,0,167,0,1,,,,,
,,239978,001,2023-07-24_20h32.07.089,arm3_eps,2022.2.5,Win32,60.11060351,5f8040a15e9c0003ae16dc31,64aea9d0f615b6559c281482,64bed186cb86c4994b1545ba,down,1,0.3,0.2429,10,0,0.6974,,,,,,168,0,168,0,1,,,,,
,,239978,001,2023-07-24_20h32.07.089,arm3_eps,2022.2.5,Win32,60.11060351,5f8040a15e9c0003ae16dc31,64aea9d0f615b6559c281482,64bed186cb86c4994b1545ba,right,1,0.3,0.2429,10,0.049260746,0.3391,,,,,,169,0,169,0,1,,,,,
,,239978,001,2023-07-24_20h32.07.089,arm3_eps,2022.2.5,Win32,60.11060351,5f8040a15e9c0003ae16dc31,64aea9d0f615b6559c281482,64bed186cb86c4994b1545ba,right,1,0.3,0.2429,10,0.044968403,0.4306,,,,,,170,0,170,0,1,,,,,
,,239978,001,2023-07-24_20h32.07.089,arm3_eps,2022.2.5,Win32,60.11060351,5f8040a15e9c0003ae16dc31,64aea9d0f615b6559c281482,64bed186cb86c4994b1545ba,right,1,0.3,0.2429,10,0.02884884,0.3972,,,,,,171,0,171,0,1,,,,,
,,239978,001,2023-07-24_20h32.07.089,arm3_eps,2022.2.5,Win32,60.11060351,5f8040a15e9c0003ae16dc31,64aea9d0f615b6559c281482,64bed186cb86c4994b1545ba,up,1,0.3,0.2429,10,0,0.6482,,,,,,172,0,172,0,1,,,,,
,,239978,001,2023-07-24_20h32.07.089,arm3_eps,2022.2.5,Win32,60.11060351,5f8040a15e9c0003ae16dc31,64aea9d0f615b6559c281482,64bed186cb86c4994b1545ba,right,1,0.3,0.2429,10,0.014573201,0.4114,,,,,,173,0,173,0,1,,,,,
,,239978,001,2023-07-24_20h32.07.089,arm3_eps,2022.2.5,Win32,60.11060351,5f8040a15e9c0003ae16dc31,64aea9d0f615b6559c281482,64bed186cb86c4994b1545ba,right,1,0.3,0.2429,10,0.025591457,0.4275,,,,,,174,0,174,0,1,,,,,
,,239978,001,2023-07-24_20h32.07.089,arm3_eps,2022.2.5,Win32,60.11060351,5f8040a15e9c0003ae16dc31,64aea9d0f615b6559c281482,64bed186cb86c4994b1545ba,right,1,0.3,0.2429,10,0.055285623,0.4146,,,,,,175,0,175,0,1,,,,,
,,239978,001,2023-07-24_20h32.07.089,arm3_eps,2022.2.5,Win32,60.11060351,5f8040a15e9c0003ae16dc31,64aea9d0f615b6559c281482,64bed186cb86c4994b1545ba,up,-1,0.3,0.2429,11,0,0.5216,,,,,,176,0,176,0,1,,,,,
,,239978,001,2023-07-24_20h32.07.089,arm3_eps,2022.2.5,Win32,60.11060351,5f8040a15e9c0003ae16dc31,64aea9d0f615b6559c281482,64bed186cb86c4994b1545ba,right,-1,0.3,0.2429,11,-0.012327104,0.2676,,,,,,177,0,177,0,1,,,,,
,,239978,001,2023-07-24_20h32.07.089,arm3_eps,2022.2.5,Win32,60.11060351,5f8040a15e9c0003ae16dc31,64aea9d0f615b6559c281482,64bed186cb86c4994b1545ba,right,-1,0.3,0.2429,11,-0.033696034,0.4457,,,,,,178,0,178,0,1,,,,,
,,239978,001,2023-07-24_20h32.07.089,arm3_eps,2022.2.5,Win32,60.11060351,5f8040a15e9c0003ae16dc31,64aea9d0f615b6559c281482,64bed186cb86c4994b1545ba,down,-1,0.3,0.2429,11,0,1.014,,,,,,179,0,179,0,1,,,,,
,,239978,001,2023-07-24_20h32.07.089,arm3_eps,2022.2.5,Win32,60.11060351,5f8040a15e9c0003ae16dc31,64aea9d0f615b6559c281482,64bed186cb86c4994b1545ba,right,-1,0.3,0.2429,11,-0.031299551,0.3376,,,,,,180,0,180,0,1,,,,,
,,239978,001,2023-07-24_20h32.07.089,arm3_eps,2022.2.5,Win32,60.11060351,5f8040a15e9c0003ae16dc31,64aea9d0f615b6559c281482,64bed186cb86c4994b1545ba,right,-1,0.3,0.2429,11,-0.051370012,0.4134,,,,,,181,0,181,0,1,,,,,
,,239978,001,2023-07-24_20h32.07.089,arm3_eps,2022.2.5,Win32,60.11060351,5f8040a15e9c0003ae16dc31,64aea9d0f615b6559c281482,64bed186cb86c4994b1545ba,down,1,0.3,0.2429,12,0,0.4278,,,,,,182,0,182,0,1,,,,,
,,239978,001,2023-07-24_20h32.07.089,arm3_eps,2022.2.5,Win32,60.11060351,5f8040a15e9c0003ae16dc31,64aea9d0f615b6559c281482,64bed186cb86c4994b1545ba,right,1,0.3,0.2429,12,0.009646045,0.3363,,,,,,183,0,183,0,1,,,,,
,,239978,001,2023-07-24_20h32.07.089,arm3_eps,2022.2.5,Win32,60.11060351,5f8040a15e9c0003ae16dc31,64aea9d0f615b6559c281482,64bed186cb86c4994b1545ba,right,1,0.3,0.2429,12,0.016534728,0.4619,,,,,,184,0,184,0,1,,,,,
,,239978,001,2023-07-24_20h32.07.089,arm3_eps,2022.2.5,Win32,60.11060351,5f8040a15e9c0003ae16dc31,64aea9d0f615b6559c281482,64bed186cb86c4994b1545ba,down,1,0.3,0.2429,12,0,0.5801,,,,,,185,0,185,0,1,,,,,
,,239978,001,2023-07-24_20h32.07.089,arm3_eps,2022.2.5,Win32,60.11060351,5f8040a15e9c0003ae16dc31,64aea9d0f615b6559c281482,64bed186cb86c4994b1545ba,right,1,0.3,0.2429,12,-0.011236244,0.4894,,,,,,186,0,186,0,1,,,,,
,,239978,001,2023-07-24_20h32.07.089,arm3_eps,2022.2.5,Win32,60.11060351,5f8040a15e9c0003ae16dc31,64aea9d0f615b6559c281482,64bed186cb86c4994b1545ba,right,1,0.3,0.2429,12,-0.029106294,0.4745,,,,,,187,0,187,0,1,,,,,
,,239978,001,2023-07-24_20h32.07.089,arm3_eps,2022.2.5,Win32,60.11060351,5f8040a15e9c0003ae16dc31,64aea9d0f615b6559c281482,64bed186cb86c4994b1545ba,up,1,0.3,0.2429,12,0,1.5336,,,,,,188,0,188,0,1,,,,,
,,239978,001,2023-07-24_20h32.07.089,arm3_eps,2022.2.5,Win32,60.11060351,5f8040a15e9c0003ae16dc31,64aea9d0f615b6559c281482,64bed186cb86c4994b1545ba,right,1,0.3,0.2429,12,0.014411996,0.3605,,,,,,189,0,189,0,1,,,,,
,,239978,001,2023-07-24_20h32.07.089,arm3_eps,2022.2.5,Win32,60.11060351,5f8040a15e9c0003ae16dc31,64aea9d0f615b6559c281482,64bed186cb86c4994b1545ba,right,1,0.3,0.2429,12,0.031343722,0.513,,,,,,190,0,190,0,1,,,,,
,,239978,001,2023-07-24_20h32.07.089,arm3_eps,2022.2.5,Win32,60.11060351,5f8040a15e9c0003ae16dc31,64aea9d0f615b6559c281482,64bed186cb86c4994b1545ba,up,1,0.3,0.2429,12,0,0.6436,,,,,,191,0,191,0,1,,,,,
,,239978,001,2023-07-24_20h32.07.089,arm3_eps,2022.2.5,Win32,60.11060351,5f8040a15e9c0003ae16dc31,64aea9d0f615b6559c281482,64bed186cb86c4994b1545ba,right,1,0.3,0.2429,12,-0.00361204,0.4281,,,,,,192,0,192,0,1,,,,,
,,239978,001,2023-07-24_20h32.07.089,arm3_eps,2022.2.5,Win32,60.11060351,5f8040a15e9c0003ae16dc31,64aea9d0f615b6559c281482,64bed186cb86c4994b1545ba,right,1,0.3,0.2429,12,-0.009678122,0.3819,,,,,,193,0,193,0,1,,,,,
,,239978,001,2023-07-24_20h32.07.089,arm3_eps,2022.2.5,Win32,60.11060351,5f8040a15e9c0003ae16dc31,64aea9d0f615b6559c281482,64bed186cb86c4994b1545ba,right,1,0.3,0.2429,12,0.015579213,0.6448,,,,,,194,0,194,0,1,,,,,
,,239978,001,2023-07-24_20h32.07.089,arm3_eps,2022.2.5,Win32,60.11060351,5f8040a15e9c0003ae16dc31,64aea9d0f615b6559c281482,64bed186cb86c4994b1545ba,right,1,0.3,0.2429,12,0.039678814,0.4119,,,,,,195,0,195,0,1,,,,,
,,239978,001,2023-07-24_20h32.07.089,arm3_eps,2022.2.5,Win32,60.11060351,5f8040a15e9c0003ae16dc31,64aea9d0f615b6559c281482,64bed186cb86c4994b1545ba,up,1,0.3,0.2429,12,0,0.234,,,,,,196,0,196,0,1,,,,,
,,239978,001,2023-07-24_20h32.07.089,arm3_eps,2022.2.5,Win32,60.11060351,5f8040a15e9c0003ae16dc31,64aea9d0f615b6559c281482,64bed186cb86c4994b1545ba,right,1,0.3,0.2429,12,-0.003495818,0.4281,,,,,,197,0,197,0,1,,,,,
,,239978,001,2023-07-24_20h32.07.089,arm3_eps,2022.2.5,Win32,60.11060351,5f8040a15e9c0003ae16dc31,64aea9d0f615b6559c281482,64bed186cb86c4994b1545ba,right,1,0.3,0.2429,12,-0.000620667,0.3369,,,,,,198,0,198,0,1,,,,,
,,239978,001,2023-07-24_20h32.07.089,arm3_eps,2022.2.5,Win32,60.11060351,5f8040a15e9c0003ae16dc31,64aea9d0f615b6559c281482,64bed186cb86c4994b1545ba,up,1,0.3,0.2429,12,0,0.541,,,,,,199,0,199,0,1,,,,,
,,239978,001,2023-07-24_20h32.07.089,arm3_eps,2022.2.5,Win32,60.11060351,5f8040a15e9c0003ae16dc31,64aea9d0f615b6559c281482,64bed186cb86c4994b1545ba,right,1,0.3,0.2429,12,-0.002948285,0.3422,,,,,,200,0,200,0,1,,,,,
,,239978,001,2023-07-24_20h32.07.089,arm3_eps,2022.2.5,Win32,60.11060351,5f8040a15e9c0003ae16dc31,64aea9d0f615b6559c281482,64bed186cb86c4994b1545ba,right,1,0.3,0.2429,12,0.010657773,0.412,,,,,,201,0,201,0,1,,,,,
,,239978,001,2023-07-24_20h32.07.089,arm3_eps,2022.2.5,Win32,60.11060351,5f8040a15e9c0003ae16dc31,64aea9d0f615b6559c281482,64bed186cb86c4994b1545ba,right,1,0.3,0.2429,12,-0.004511878,0.6624,,,,,,202,0,202,0,1,,,,,
,,239978,001,2023-07-24_20h32.07.089,arm3_eps,2022.2.5,Win32,60.11060351,5f8040a15e9c0003ae16dc31,64aea9d0f615b6559c281482,64bed186cb86c4994b1545ba,right,1,0.3,0.2429,12,0.032400302,0.5128,,,,,,203,0,203,0,1,,,,,
,,239978,001,2023-07-24_20h32.07.089,arm3_eps,2022.2.5,Win32,60.11060351,5f8040a15e9c0003ae16dc31,64aea9d0f615b6559c281482,64bed186cb86c4994b1545ba,up,-1,0.3,0.2429,12,0,0.6947,,,,,,204,0,204,0,1,,,,,
,,239978,001,2023-07-24_20h32.07.089,arm3_eps,2022.2.5,Win32,60.11060351,5f8040a15e9c0003ae16dc31,64aea9d0f615b6559c281482,64bed186cb86c4994b1545ba,right,-1,0.3,0.2429,12,0.006496789,0.3268,,,,,,205,0,205,0,1,,,,,
,,239978,001,2023-07-24_20h32.07.089,arm3_eps,2022.2.5,Win32,60.11060351,5f8040a15e9c0003ae16dc31,64aea9d0f615b6559c281482,64bed186cb86c4994b1545ba,right,-1,0.3,0.2429,12,-0.025576504,0.3797,,,,,,206,0,206,0,1,,,,,
,,239978,001,2023-07-24_20h32.07.089,arm3_eps,2022.2.5,Win32,60.11060351,5f8040a15e9c0003ae16dc31,64aea9d0f615b6559c281482,64bed186cb86c4994b1545ba,right,-1,0.3,0.2429,12,-0.008335816,0.4812,,,,,,207,0,207,0,1,,,,,
,,239978,001,2023-07-24_20h32.07.089,arm3_eps,2022.2.5,Win32,60.11060351,5f8040a15e9c0003ae16dc31,64aea9d0f615b6559c281482,64bed186cb86c4994b1545ba,right,-1,0.3,0.2429,12,-0.010863605,0.5834,,,,,,208,0,208,0,1,,,,,
,,239978,001,2023-07-24_20h32.07.089,arm3_eps,2022.2.5,Win32,60.11060351,5f8040a15e9c0003ae16dc31,64aea9d0f615b6559c281482,64bed186cb86c4994b1545ba,right,-1,0.3,0.2429,12,-0.009357276,0.5145,,,,,,209,0,209,0,1,,,,,
,,239978,001,2023-07-24_20h32.07.089,arm3_eps,2022.2.5,Win32,60.11060351,5f8040a15e9c0003ae16dc31,64aea9d0f615b6559c281482,64bed186cb86c4994b1545ba,down,-1,0.3,0.2429,12,0,0.6446,,,,,,210,0,210,0,1,,,,,
,,239978,001,2023-07-24_20h32.07.089,arm3_eps,2022.2.5,Win32,60.11060351,5f8040a15e9c0003ae16dc31,64aea9d0f615b6559c281482,64bed186cb86c4994b1545ba,right,-1,0.3,0.2429,12,-0.054732329,0.3233,,,,,,211,0,211,0,1,,,,,
,,239978,001,2023-07-24_20h32.07.089,arm3_eps,2022.2.5,Win32,60.11060351,5f8040a15e9c0003ae16dc31,64aea9d0f615b6559c281482,64bed186cb86c4994b1545ba,right,-1,0.3,0.2429,12,-0.04972215,0.3846,,,,,,212,0,212,0,1,,,,,
,,239978,001,2023-07-24_20h32.07.089,arm3_eps,2022.2.5,Win32,60.11060351,5f8040a15e9c0003ae16dc31,64aea9d0f615b6559c281482,64bed186cb86c4994b1545ba,right,-1,0.3,0.2429,12,-0.077292929,0.4288,,,,,,213,0,213,0,1,,,,,
,,239978,001,2023-07-24_20h32.07.089,arm3_eps,2022.2.5,Win32,60.11060351,5f8040a15e9c0003ae16dc31,64aea9d0f615b6559c281482,64bed186cb86c4994b1545ba,down,1,0.3,0.2429,12,0,0.3612,,,,,,214,0,214,0,1,,,,,
,,239978,001,2023-07-24_20h32.07.089,arm3_eps,2022.2.5,Win32,60.11060351,5f8040a15e9c0003ae16dc31,64aea9d0f615b6559c281482,64bed186cb86c4994b1545ba,right,1,0.3,0.2429,12,-0.025700993,0.3135,,,,,,215,0,215,0,1,,,,,
,,239978,001,2023-07-24_20h32.07.089,arm3_eps,2022.2.5,Win32,60.11060351,5f8040a15e9c0003ae16dc31,64aea9d0f615b6559c281482,64bed186cb86c4994b1545ba,right,1,0.3,0.2429,12,0.003873623,0.4267,,,,,,216,0,216,0,1,,,,,
,,239978,001,2023-07-24_20h32.07.089,arm3_eps,2022.2.5,Win32,60.11060351,5f8040a15e9c0003ae16dc31,64aea9d0f615b6559c281482,64bed186cb86c4994b1545ba,right,1,0.3,0.2429,12,0.014959605,0.5639,,,,,,217,0,217,0,1,,,,,
,,239978,001,2023-07-24_20h32.07.089,arm3_eps,2022.2.5,Win32,60.11060351,5f8040a15e9c0003ae16dc31,64aea9d0f615b6559c281482,64bed186cb86c4994b1545ba,up,-1,0.3,0.2429,12,0,0.3897,,,,,,218,0,218,0,1,,,,,
,,239978,001,2023-07-24_20h32.07.089,arm3_eps,2022.2.5,Win32,60.11060351,5f8040a15e9c0003ae16dc31,64aea9d0f615b6559c281482,64bed186cb86c4994b1545ba,right,-1,0.3,0.2429,12,-0.045164495,0.2265,,,,,,219,0,219,0,1,,,,,
,,239978,001,2023-07-24_20h32.07.089,arm3_eps,2022.2.5,Win32,60.11060351,5f8040a15e9c0003ae16dc31,64aea9d0f615b6559c281482,64bed186cb86c4994b1545ba,right,-1,0.3,0.2429,12,-0.073432192,0.4641,,,,,,220,0,220,0,1,,,,,
,,239978,001,2023-07-24_20h32.07.089,arm3_eps,2022.2.5,Win32,60.11060351,5f8040a15e9c0003ae16dc31,64aea9d0f615b6559c281482,64bed186cb86c4994b1545ba,right,-1,0.3,0.2429,12,-0.083185113,0.5144,,,,,,221,0,221,0,1,,,,,
,,239978,001,2023-07-24_20h32.07.089,arm3_eps,2022.2.5,Win32,60.11060351,5f8040a15e9c0003ae16dc31,64aea9d0f615b6559c281482,64bed186cb86c4994b1545ba,down,-1,0.3,0.2429,12,0,0.313,,,,,,222,0,222,0,1,,,,,
,,239978,001,2023-07-24_20h32.07.089,arm3_eps,2022.2.5,Win32,60.11060351,5f8040a15e9c0003ae16dc31,64aea9d0f615b6559c281482,64bed186cb86c4994b1545ba,right,-1,0.3,0.2429,12,-0.00689054,0.3765,,,,,,223,0,223,0,1,,,,,
,,239978,001,2023-07-24_20h32.07.089,arm3_eps,2022.2.5,Win32,60.11060351,5f8040a15e9c0003ae16dc31,64aea9d0f615b6559c281482,64bed186cb86c4994b1545ba,right,-1,0.3,0.2429,12,-0.004264487,0.4465,,,,,,224,0,224,0,1,,,,,
,,239978,001,2023-07-24_20h32.07.089,arm3_eps,2022.2.5,Win32,60.11060351,5f8040a15e9c0003ae16dc31,64aea9d0f615b6559c281482,64bed186cb86c4994b1545ba,right,-1,0.3,0.2429,12,-0.005563821,0.4303,,,,,,225,0,225,0,1,,,,,
,,239978,001,2023-07-24_20h32.07.089,arm3_eps,2022.2.5,Win32,60.11060351,5f8040a15e9c0003ae16dc31,64aea9d0f615b6559c281482,64bed186cb86c4994b1545ba,down,-1,0.3,0.2429,12,0,0.6631,,,,,,226,0,226,0,1,,,,,
,,239978,001,2023-07-24_20h32.07.089,arm3_eps,2022.2.5,Win32,60.11060351,5f8040a15e9c0003ae16dc31,64aea9d0f615b6559c281482,64bed186cb86c4994b1545ba,right,-1,0.3,0.2429,12,-0.049916984,0.3772,,,,,,227,0,227,0,1,,,,,
,,239978,001,2023-07-24_20h32.07.089,arm3_eps,2022.2.5,Win32,60.11060351,5f8040a15e9c0003ae16dc31,64aea9d0f615b6559c281482,64bed186cb86c4994b1545ba,right,-1,0.3,0.2429,12,-0.04326632,0.4003,,,,,,228,0,228,0,1,,,,,
,,239978,001,2023-07-24_20h32.07.089,arm3_eps,2022.2.5,Win32,60.11060351,5f8040a15e9c0003ae16dc31,64aea9d0f615b6559c281482,64bed186cb86c4994b1545ba,down,1,0.3,0.2429,13,0,0.678,,,,,,229,0,229,0,1,,,,,
,,239978,001,2023-07-24_20h32.07.089,arm3_eps,2022.2.5,Win32,60.11060351,5f8040a15e9c0003ae16dc31,64aea9d0f615b6559c281482,64bed186cb86c4994b1545ba,right,1,0.3,0.2429,13,0.041153262,0.3315,,,,,,230,0,230,0,1,,,,,
,,239978,001,2023-07-24_20h32.07.089,arm3_eps,2022.2.5,Win32,60.11060351,5f8040a15e9c0003ae16dc31,64aea9d0f615b6559c281482,64bed186cb86c4994b1545ba,right,1,0.3,0.2429,13,0.061576389,0.4765,,,,,,231,0,231,0,1,,,,,
,,239978,001,2023-07-24_20h32.07.089,arm3_eps,2022.2.5,Win32,60.11060351,5f8040a15e9c0003ae16dc31,64aea9d0f615b6559c281482,64bed186cb86c4994b1545ba,up,1,0.3,0.2429,13,0,0.599,,,,,,232,0,232,0,1,,,,,
,,239978,001,2023-07-24_20h32.07.089,arm3_eps,2022.2.5,Win32,60.11060351,5f8040a15e9c0003ae16dc31,64aea9d0f615b6559c281482,64bed186cb86c4994b1545ba,right,1,0.3,0.2429,13,0.022137679,0.4609,,,,,,233,0,233,0,1,,,,,
,,239978,001,2023-07-24_20h32.07.089,arm3_eps,2022.2.5,Win32,60.11060351,5f8040a15e9c0003ae16dc31,64aea9d0f615b6559c281482,64bed186cb86c4994b1545ba,right,1,0.3,0.2429,13,0.03007261,0.499,,,,,,234,0,234,0,1,,,,,
,,239978,001,2023-07-24_20h32.07.089,arm3_eps,2022.2.5,Win32,60.11060351,5f8040a15e9c0003ae16dc31,64aea9d0f615b6559c281482,64bed186cb86c4994b1545ba,right,1,0.3,0.2429,13,0.035750838,0.5472,,,,,,235,0,235,0,1,,,,,
,,239978,001,2023-07-24_20h32.07.089,arm3_eps,2022.2.5,Win32,60.11060351,5f8040a15e9c0003ae16dc31,64aea9d0f615b6559c281482,64bed186cb86c4994b1545ba,right,1,0.3,0.2429,13,0.036343199,0.5796,,,,,,236,0,236,0,1,,,,,
,,239978,001,2023-07-24_20h32.07.089,arm3_eps,2022.2.5,Win32,60.11060351,5f8040a15e9c0003ae16dc31,64aea9d0f615b6559c281482,64bed186cb86c4994b1545ba,right,1,0.3,0.2429,13,0.025590198,0.679,,,,,,237,0,237,0,1,,,,,
,,239978,001,2023-07-24_20h32.07.089,arm3_eps,2022.2.5,Win32,60.11060351,5f8040a15e9c0003ae16dc31,64aea9d0f615b6559c281482,64bed186cb86c4994b1545ba,down,1,0.3,0.2429,12,0,0.5664,,,,,,238,0,238,0,1,,,,,
,,239978,001,2023-07-24_20h32.07.089,arm3_eps,2022.2.5,Win32,60.11060351,5f8040a15e9c0003ae16dc31,64aea9d0f615b6559c281482,64bed186cb86c4994b1545ba,right,1,0.3,0.2429,12,0.025511811,0.3539,,,,,,239,0,239,0,1,,,,,
,,239978,001,2023-07-24_20h32.07.089,arm3_eps,2022.2.5,Win32,60.11060351,5f8040a15e9c0003ae16dc31,64aea9d0f615b6559c281482,64bed186cb86c4994b1545ba,right,1,0.3,0.2429,12,0.048361646,0.4702,,,,,,240,0,240,0,1,,,,,
,,239978,001,2023-07-24_20h32.07.089,arm3_eps,2022.2.5,Win32,60.11060351,5f8040a15e9c0003ae16dc31,64aea9d0f615b6559c281482,64bed186cb86c4994b1545ba,right,1,0.3,0.2429,12,0.038222949,0.4501,,,,,,241,0,241,0,1,,,,,
,,239978,001,2023-07-24_20h32.07.089,arm3_eps,2022.2.5,Win32,60.11060351,5f8040a15e9c0003ae16dc31,64aea9d0f615b6559c281482,64bed186cb86c4994b1545ba,right,1,0.3,0.2429,12,0.031828701,0.4899,,,,,,242,0,242,0,1,,,,,
,,239978,001,2023-07-24_20h32.07.089,arm3_eps,2022.2.5,Win32,60.11060351,5f8040a15e9c0003ae16dc31,64aea9d0f615b6559c281482,64bed186cb86c4994b1545ba,up,1,0.3,0.2429,13,0,0.4946,,,,,,243,0,243,0,1,,,,,
,,239978,001,2023-07-24_20h32.07.089,arm3_eps,2022.2.5,Win32,60.11060351,5f8040a15e9c0003ae16dc31,64aea9d0f615b6559c281482,64bed186cb86c4994b1545ba,right,1,0.3,0.2429,13,0.005497865,0.396,,,,,,244,0,244,0,1,,,,,
,,239978,001,2023-07-24_20h32.07.089,arm3_eps,2022.2.5,Win32,60.11060351,5f8040a15e9c0003ae16dc31,64aea9d0f615b6559c281482,64bed186cb86c4994b1545ba,right,1,0.3,0.2429,13,0.010212027,0.4348,,,,,,245,0,245,0,1,,,,,
,,239978,001,2023-07-24_20h32.07.089,arm3_eps,2022.2.5,Win32,60.11060351,5f8040a15e9c0003ae16dc31,64aea9d0f615b6559c281482,64bed186cb86c4994b1545ba,right,1,0.3,0.2429,13,0.03337057,0.4103,,,,,,246,0,246,0,1,,,,,
,,239978,001,2023-07-24_20h32.07.089,arm3_eps,2022.2.5,Win32,60.11060351,5f8040a15e9c0003ae16dc31,64aea9d0f615b6559c281482,64bed186cb86c4994b1545ba,up,-1,0.3,0.2429,13,0,0.4664,,,,,,247,0,247,0,1,,,,,
,,239978,001,2023-07-24_20h32.07.089,arm3_eps,2022.2.5,Win32,60.11060351,5f8040a15e9c0003ae16dc31,64aea9d0f615b6559c281482,64bed186cb86c4994b1545ba,right,-1,0.3,0.2429,13,-0.026713954,0.3211,,,,,,248,0,248,0,1,,,,,
,,239978,001,2023-07-24_20h32.07.089,arm3_eps,2022.2.5,Win32,60.11060351,5f8040a15e9c0003ae16dc31,64aea9d0f615b6559c281482,64bed186cb86c4994b1545ba,right,-1,0.3,0.2429,13,-0.029257896,0.4221,,,,,,249,0,249,0,1,,,,,
,,239978,001,2023-07-24_20h32.07.089,arm3_eps,2022.2.5,Win32,60.11060351,5f8040a15e9c0003ae16dc31,64aea9d0f615b6559c281482,64bed186cb86c4994b1545ba,right,-1,0.3,0.2429,13,-0.027739544,0.6124,,,,,,250,0,250,0,1,,,,,
,,239978,001,2023-07-24_20h32.07.089,arm3_eps,2022.2.5,Win32,60.11060351,5f8040a15e9c0003ae16dc31,64aea9d0f615b6559c281482,64bed186cb86c4994b1545ba,down,-1,0.3,0.2429,13,0,0.6732,,,,,,251,0,251,0,1,,,,,
,,239978,001,2023-07-24_20h32.07.089,arm3_eps,2022.2.5,Win32,60.11060351,5f8040a15e9c0003ae16dc31,64aea9d0f615b6559c281482,64bed186cb86c4994b1545ba,right,-1,0.3,0.2429,13,-0.014365029,0.3587,,,,,,252,0,252,0,1,,,,,
,,239978,001,2023-07-24_20h32.07.089,arm3_eps,2022.2.5,Win32,60.11060351,5f8040a15e9c0003ae16dc31,64aea9d0f615b6559c281482,64bed186cb86c4994b1545ba,right,-1,0.3,0.2429,13,-0.012972169,0.4603,,,,,,253,0,253,0,1,,,,,
,,239978,001,2023-07-24_20h32.07.089,arm3_eps,2022.2.5,Win32,60.11060351,5f8040a15e9c0003ae16dc31,64aea9d0f615b6559c281482,64bed186cb86c4994b1545ba,down,-1,0.3,0.2429,13,0,0.5298,,,,,,254,0,254,0,1,,,,,
,,239978,001,2023-07-24_20h32.07.089,arm3_eps,2022.2.5,Win32,60.11060351,5f8040a15e9c0003ae16dc31,64aea9d0f615b6559c281482,64bed186cb86c4994b1545ba,right,-1,0.3,0.2429,13,-0.005123909,0.3284,,,,,,255,0,255,0,1,,,,,
,,239978,001,2023-07-24_20h32.07.089,arm3_eps,2022.2.5,Win32,60.11060351,5f8040a15e9c0003ae16dc31,64aea9d0f615b6559c281482,64bed186cb86c4994b1545ba,right,-1,0.3,0.2429,13,-0.002859563,0.4142,,,,,,256,0,256,0,1,,,,,
,,239978,001,2023-07-24_20h32.07.089,arm3_eps,2022.2.5,Win32,60.11060351,5f8040a15e9c0003ae16dc31,64aea9d0f615b6559c281482,64bed186cb86c4994b1545ba,right,-1,0.3,0.2429,13,-0.023914852,0.5097,,,,,,257,0,257,0,1,,,,,
,,239978,001,2023-07-24_20h32.07.089,arm3_eps,2022.2.5,Win32,60.11060351,5f8040a15e9c0003ae16dc31,64aea9d0f615b6559c281482,64bed186cb86c4994b1545ba,down,-1,0.3,0.2429,13,0,0.2809,,,,,,258,0,258,0,1,,,,,
,,239978,001,2023-07-24_20h32.07.089,arm3_eps,2022.2.5,Win32,60.11060351,5f8040a15e9c0003ae16dc31,64aea9d0f615b6559c281482,64bed186cb86c4994b1545ba,right,-1,0.3,0.2429,13,-0.01436421,0.7049,,,,,,259,0,259,0,1,,,,,
,,239978,001,2023-07-24_20h32.07.089,arm3_eps,2022.2.5,Win32,60.11060351,5f8040a15e9c0003ae16dc31,64aea9d0f615b6559c281482,64bed186cb86c4994b1545ba,right,-1,0.3,0.2429,13,-0.030958287,0.3321,,,,,,260,0,260,0,1,,,,,
,,239978,001,2023-07-24_20h32.07.089,arm3_eps,2022.2.5,Win32,60.11060351,5f8040a15e9c0003ae16dc31,64aea9d0f615b6559c281482,64bed186cb86c4994b1545ba,down,-1,0.3,0.2429,13,0,0.7973,,,,,,261,0,261,0,1,,,,,
,,239978,001,2023-07-24_20h32.07.089,arm3_eps,2022.2.5,Win32,60.11060351,5f8040a15e9c0003ae16dc31,64aea9d0f615b6559c281482,64bed186cb86c4994b1545ba,right,-1,0.3,0.2429,13,-0.027087476,0.539,,,,,,262,0,262,0,1,,,,,
,,239978,001,2023-07-24_20h32.07.089,arm3_eps,2022.2.5,Win32,60.11060351,5f8040a15e9c0003ae16dc31,64aea9d0f615b6559c281482,64bed186cb86c4994b1545ba,right,-1,0.3,0.2429,13,-0.038085168,0.469,,,,,,263,0,263,0,1,,,,,
,,239978,001,2023-07-24_20h32.07.089,arm3_eps,2022.2.5,Win32,60.11060351,5f8040a15e9c0003ae16dc31,64aea9d0f615b6559c281482,64bed186cb86c4994b1545ba,right,-1,0.3,0.2429,13,-0.015108892,1.0965,,,,,,264,0,264,0,1,,,,,
,,239978,001,2023-07-24_20h32.07.089,arm3_eps,2022.2.5,Win32,60.11060351,5f8040a15e9c0003ae16dc31,64aea9d0f615b6559c281482,64bed186cb86c4994b1545ba,down,1,0.3,0.2429,13,0,0.6428,,,,,,265,0,265,0,1,,,,,
,,239978,001,2023-07-24_20h32.07.089,arm3_eps,2022.2.5,Win32,60.11060351,5f8040a15e9c0003ae16dc31,64aea9d0f615b6559c281482,64bed186cb86c4994b1545ba,right,1,0.3,0.2429,13,0.016373911,0.4703,,,,,,266,0,266,0,1,,,,,
,,239978,001,2023-07-24_20h32.07.089,arm3_eps,2022.2.5,Win32,60.11060351,5f8040a15e9c0003ae16dc31,64aea9d0f615b6559c281482,64bed186cb86c4994b1545ba,right,1,0.3,0.2429,13,0.006131638,0.3975,,,,,,267,0,267,0,1,,,,,
,,239978,001,2023-07-24_20h32.07.089,arm3_eps,2022.2.5,Win32,60.11060351,5f8040a15e9c0003ae16dc31,64aea9d0f615b6559c281482,64bed186cb86c4994b1545ba,right,1,0.3,0.2429,13,0.021044389,0.3622,,,,,,268,0,268,0,1,,,,,
,,239978,001,2023-07-24_20h32.07.089,arm3_eps,2022.2.5,Win32,60.11060351,5f8040a15e9c0003ae16dc31,64aea9d0f615b6559c281482,64bed186cb86c4994b1545ba,right,1,0.3,0.2429,13,0.026422445,0.5298,,,,,,269,0,269,0,1,,,,,
,,239978,001,2023-07-24_20h32.07.089,arm3_eps,2022.2.5,Win32,60.11060351,5f8040a15e9c0003ae16dc31,64aea9d0f615b6559c281482,64bed186cb86c4994b1545ba,up,1,0.3,0.2429,13,0,0.3687,,,,,,270,0,270,0,1,,,,,
,,239978,001,2023-07-24_20h32.07.089,arm3_eps,2022.2.5,Win32,60.11060351,5f8040a15e9c0003ae16dc31,64aea9d0f615b6559c281482,64bed186cb86c4994b1545ba,right,1,0.3,0.2429,13,-0.026835294,0.36,,,,,,271,0,271,0,1,,,,,
,,239978,001,2023-07-24_20h32.07.089,arm3_eps,2022.2.5,Win32,60.11060351,5f8040a15e9c0003ae16dc31,64aea9d0f615b6559c281482,64bed186cb86c4994b1545ba,right,1,0.3,0.2429,13,0.013458647,0.4051,,,,,,272,0,272,0,1,,,,,
,,239978,001,2023-07-24_20h32.07.089,arm3_eps,2022.2.5,Win32,60.11060351,5f8040a15e9c0003ae16dc31,64aea9d0f615b6559c281482,64bed186cb86c4994b1545ba,right,1,0.3,0.2429,13,0.021660055,0.3778,,,,,,273,0,273,0,1,,,,,
,,239978,001,2023-07-24_20h32.07.089,arm3_eps,2022.2.5,Win32,60.11060351,5f8040a15e9c0003ae16dc31,64aea9d0f615b6559c281482,64bed186cb86c4994b1545ba,right,1,0.3,0.2429,13,0.032779775,0.4311,,,,,,274,0,274,0,1,,,,,
,,239978,001,2023-07-24_20h32.07.089,arm3_eps,2022.2.5,Win32,60.11060351,5f8040a15e9c0003ae16dc31,64aea9d0f615b6559c281482,64bed186cb86c4994b1545ba,up,1,0.3,0.2429,13,0,0.2846,,,,,,275,0,275,0,1,,,,,
,,239978,001,2023-07-24_20h32.07.089,arm3_eps,2022.2.5,Win32,60.11060351,5f8040a15e9c0003ae16dc31,64aea9d0f615b6559c281482,64bed186cb86c4994b1545ba,right,1,0.3,0.2429,13,0.042607193,0.4123,,,,,,276,0,276,0,1,,,,,
,,239978,001,2023-07-24_20h32.07.089,arm3_eps,2022.2.5,Win32,60.11060351,5f8040a15e9c0003ae16dc31,64aea9d0f615b6559c281482,64bed186cb86c4994b1545ba,right,1,0.3,0.2429,13,0.031350417,0.3959,,,,,,277,0,277,0,1,,,,,
,,239978,001,2023-07-24_20h32.07.089,arm3_eps,2022.2.5,Win32,60.11060351,5f8040a15e9c0003ae16dc31,64aea9d0f615b6559c281482,64bed186cb86c4994b1545ba,right,1,0.3,0.2429,13,0.014231079,0.3968,,,,,,278,0,278,0,1,,,,,
,,239978,001,2023-07-24_20h32.07.089,arm3_eps,2022.2.5,Win32,60.11060351,5f8040a15e9c0003ae16dc31,64aea9d0f615b6559c281482,64bed186cb86c4994b1545ba,right,1,0.3,0.2429,13,0.052700305,0.4295,,,,,,279,0,279,0,1,,,,,
,,239978,001,2023-07-24_20h32.07.089,arm3_eps,2022.2.5,Win32,60.11060351,5f8040a15e9c0003ae16dc31,64aea9d0f615b6559c281482,64bed186cb86c4994b1545ba,up,-1,0.3,0.2429,14,0,0.4463,,,,,,280,0,280,0,1,,,,,
,,239978,001,2023-07-24_20h32.07.089,arm3_eps,2022.2.5,Win32,60.11060351,5f8040a15e9c0003ae16dc31,64aea9d0f615b6559c281482,64bed186cb86c4994b1545ba,right,-1,0.3,0.2429,14,0.019255363,0.3675,,,,,,281,0,281,0,1,,,,,
,,239978,001,2023-07-24_20h32.07.089,arm3_eps,2022.2.5,Win32,60.11060351,5f8040a15e9c0003ae16dc31,64aea9d0f615b6559c281482,64bed186cb86c4994b1545ba,right,-1,0.3,0.2429,14,0.014504077,0.4428,,,,,,282,0,282,0,1,,,,,
,,239978,001,2023-07-24_20h32.07.089,arm3_eps,2022.2.5,Win32,60.11060351,5f8040a15e9c0003ae16dc31,64aea9d0f615b6559c281482,64bed186cb86c4994b1545ba,right,-1,0.3,0.2429,14,0.012522909,0.3958,,,,,,283,0,283,0,1,,,,,
,,239978,001,2023-07-24_20h32.07.089,arm3_eps,2022.2.5,Win32,60.11060351,5f8040a15e9c0003ae16dc31,64aea9d0f615b6559c281482,64bed186cb86c4994b1545ba,right,-1,0.3,0.2429,14,-0.00243993,0.6789,,,,,,284,0,284,0,1,,,,,
,,239978,001,2023-07-24_20h32.07.089,arm3_eps,2022.2.5,Win32,60.11060351,5f8040a15e9c0003ae16dc31,64aea9d0f615b6559c281482,64bed186cb86c4994b1545ba,down,1,0.3,0.2429,14,0,0.3314,,,,,,285,0,285,0,1,,,,,
,,239978,001,2023-07-24_20h32.07.089,arm3_eps,2022.2.5,Win32,60.11060351,5f8040a15e9c0003ae16dc31,64aea9d0f615b6559c281482,64bed186cb86c4994b1545ba,right,1,0.3,0.2429,14,0.000161666,0.4287,,,,,,286,0,286,0,1,,,,,
,,239978,001,2023-07-24_20h32.07.089,arm3_eps,2022.2.5,Win32,60.11060351,5f8040a15e9c0003ae16dc31,64aea9d0f615b6559c281482,64bed186cb86c4994b1545ba,right,1,0.3,0.2429,14,0.01817876,0.4065,,,,,,287,0,287,0,1,,,,,
,,239978,001,2023-07-24_20h32.07.089,arm3_eps,2022.2.5,Win32,60.11060351,5f8040a15e9c0003ae16dc31,64aea9d0f615b6559c281482,64bed186cb86c4994b1545ba,right,1,0.3,0.2429,14,0.031788512,0.3767,,,,,,288,0,288,0,1,,,,,
,,239978,001,2023-07-24_20h32.07.089,arm3_eps,2022.2.5,Win32,60.11060351,5f8040a15e9c0003ae16dc31,64aea9d0f615b6559c281482,64bed186cb86c4994b1545ba,up,1,0.3,0.2429,14,0,0.5484,,,,,,289,0,289,0,1,,,,,
,,239978,001,2023-07-24_20h32.07.089,arm3_eps,2022.2.5,Win32,60.11060351,5f8040a15e9c0003ae16dc31,64aea9d0f615b6559c281482,64bed186cb86c4994b1545ba,right,1,0.3,0.2429,14,0.020861512,0.3927,,,,,,290,0,290,0,1,,,,,
,,239978,001,2023-07-24_20h32.07.089,arm3_eps,2022.2.5,Win32,60.11060351,5f8040a15e9c0003ae16dc31,64aea9d0f615b6559c281482,64bed186cb86c4994b1545ba,right,1,0.3,0.2429,14,0.020390881,0.3823,,,,,,291,0,291,0,1,,,,,
,,239978,001,2023-07-24_20h32.07.089,arm3_eps,2022.2.5,Win32,60.11060351,5f8040a15e9c0003ae16dc31,64aea9d0f615b6559c281482,64bed186cb86c4994b1545ba,up,1,0.3,0.2429,14,0,0.6279,,,,,,292,0,292,0,1,,,,,
,,239978,001,2023-07-24_20h32.07.089,arm3_eps,2022.2.5,Win32,60.11060351,5f8040a15e9c0003ae16dc31,64aea9d0f615b6559c281482,64bed186cb86c4994b1545ba,right,1,0.3,0.2429,14,0.017229872,0.418,,,,,,293,0,293,0,1,,,,,
,,239978,001,2023-07-24_20h32.07.089,arm3_eps,2022.2.5,Win32,60.11060351,5f8040a15e9c0003ae16dc31,64aea9d0f615b6559c281482,64bed186cb86c4994b1545ba,right,1,0.3,0.2429,14,0.006416111,0.3968,,,,,,294,0,294,0,1,,,,,
,,239978,001,2023-07-24_20h32.07.089,arm3_eps,2022.2.5,Win32,60.11060351,5f8040a15e9c0003ae16dc31,64aea9d0f615b6559c281482,64bed186cb86c4994b1545ba,up,1,0.3,0.2429,14,0,0.4952,,,,,,295,0,295,0,1,,,,,
,,239978,001,2023-07-24_20h32.07.089,arm3_eps,2022.2.5,Win32,60.11060351,5f8040a15e9c0003ae16dc31,64aea9d0f615b6559c281482,64bed186cb86c4994b1545ba,right,1,0.3,0.2429,14,-0.030561549,0.3763,,,,,,296,0,296,0,1,,,,,
,,239978,001,2023-07-24_20h32.07.089,arm3_eps,2022.2.5,Win32,60.11060351,5f8040a15e9c0003ae16dc31,64aea9d0f615b6559c281482,64bed186cb86c4994b1545ba,right,1,0.3,0.2429,14,-0.024733886,0.3957,,,,,,297,0,297,0,1,,,,,
,,239978,001,2023-07-24_20h32.07.089,arm3_eps,2022.2.5,Win32,60.11060351,5f8040a15e9c0003ae16dc31,64aea9d0f615b6559c281482,64bed186cb86c4994b1545ba,right,1,0.3,0.2429,14,-0.010644074,0.7809,,,,,,298,0,298,0,1,,,,,
,,239978,001,2023-07-24_20h32.07.089,arm3_eps,2022.2.5,Win32,60.11060351,5f8040a15e9c0003ae16dc31,64aea9d0f615b6559c281482,64bed186cb86c4994b1545ba,down,1,0.3,0.2429,13,0,0.612,,,,,,299,0,299,0,1,,,,,
,,239978,001,2023-07-24_20h32.07.089,arm3_eps,2022.2.5,Win32,60.11060351,5f8040a15e9c0003ae16dc31,64aea9d0f615b6559c281482,64bed186cb86c4994b1545ba,right,1,0.3,0.2429,13,0.040125778,0.3767,,,,,,300,0,300,0,1,,,,,
,,239978,001,2023-07-24_20h32.07.089,arm3_eps,2022.2.5,Win32,60.11060351,5f8040a15e9c0003ae16dc31,64aea9d0f615b6559c281482,64bed186cb86c4994b1545ba,right,1,0.3,0.2429,13,0.040495436,0.3935,,,,,,301,0,301,0,1,,,,,
,,239978,001,2023-07-24_20h32.07.089,arm3_eps,2022.2.5,Win32,60.11060351,5f8040a15e9c0003ae16dc31,64aea9d0f615b6559c281482,64bed186cb86c4994b1545ba,right,1,0.3,0.2429,13,0.058120199,0.3785,,,,,,302,0,302,0,1,,,,,
,,239978,001,2023-07-24_20h32.07.089,arm3_eps,2022.2.5,Win32,60.11060351,5f8040a15e9c0003ae16dc31,64aea9d0f615b6559c281482,64bed186cb86c4994b1545ba,right,1,0.3,0.2429,13,0.047704684,0.5128,,,,,,303,0,303,0,1,,,,,
,,239978,001,2023-07-24_20h32.07.089,arm3_eps,2022.2.5,Win32,60.11060351,5f8040a15e9c0003ae16dc31,64aea9d0f615b6559c281482,64bed186cb86c4994b1545ba,up,1,0.3,0.2429,13,0,0.4148,,,,,,304,0,304,0,1,,,,,
,,239978,001,2023-07-24_20h32.07.089,arm3_eps,2022.2.5,Win32,60.11060351,5f8040a15e9c0003ae16dc31,64aea9d0f615b6559c281482,64bed186cb86c4994b1545ba,right,1,0.3,0.2429,13,0.0201936,0.4512,,,,,,305,0,305,0,1,,,,,
,,239978,001,2023-07-24_20h32.07.089,arm3_eps,2022.2.5,Win32,60.11060351,5f8040a15e9c0003ae16dc31,64aea9d0f615b6559c281482,64bed186cb86c4994b1545ba,right,1,0.3,0.2429,13,0.019018128,0.4125,,,,,,306,0,306,0,1,,,,,
,,239978,001,2023-07-24_20h32.07.089,arm3_eps,2022.2.5,Win32,60.11060351,5f8040a15e9c0003ae16dc31,64aea9d0f615b6559c281482,64bed186cb86c4994b1545ba,right,1,0.3,0.2429,13,0.028959546,0.4726,,,,,,307,0,307,0,1,,,,,
,,239978,001,2023-07-24_20h32.07.089,arm3_eps,2022.2.5,Win32,60.11060351,5f8040a15e9c0003ae16dc31,64aea9d0f615b6559c281482,64bed186cb86c4994b1545ba,up,1,0.3,0.2429,13,0,0.2118,,,,,,308,0,308,0,1,,,,,
,,239978,001,2023-07-24_20h32.07.089,arm3_eps,2022.2.5,Win32,60.11060351,5f8040a15e9c0003ae16dc31,64aea9d0f615b6559c281482,64bed186cb86c4994b1545ba,right,1,0.3,0.2429,13,-0.02912991,0.3823,,,,,,309,0,309,0,1,,,,,
,,239978,001,2023-07-24_20h32.07.089,arm3_eps,2022.2.5,Win32,60.11060351,5f8040a15e9c0003ae16dc31,64aea9d0f615b6559c281482,64bed186cb86c4994b1545ba,right,1,0.3,0.2429,13,-0.042592632,0.4307,,,,,,310,0,310,0,1,,,,,
,,239978,001,2023-07-24_20h32.07.089,arm3_eps,2022.2.5,Win32,60.11060351,5f8040a15e9c0003ae16dc31,64aea9d0f615b6559c281482,64bed186cb86c4994b1545ba,down,1,0.3,0.2429,12,0,0.4312,,,,,,311,0,311,0,1,,,,,
,,239978,001,2023-07-24_20h32.07.089,arm3_eps,2022.2.5,Win32,60.11060351,5f8040a15e9c0003ae16dc31,64aea9d0f615b6559c281482,64bed186cb86c4994b1545ba,right,1,0.3,0.2429,12,-0.011616,0.2759,,,,,,312,0,312,0,1,,,,,
,,239978,001,2023-07-24_20h32.07.089,arm3_eps,2022.2.5,Win32,60.11060351,5f8040a15e9c0003ae16dc31,64aea9d0f615b6559c281482,64bed186cb86c4994b1545ba,right,1,0.3,0.2429,12,0.02727192,0.4264,,,,,,313,0,313,0,1,,,,,
,,239978,001,2023-07-24_20h32.07.089,arm3_eps,2022.2.5,Win32,60.11060351,5f8040a15e9c0003ae16dc31,64aea9d0f615b6559c281482,64bed186cb86c4994b1545ba,up,1,0.3,0.2429,12,0,0.4044,,,,,,314,0,314,0,1,,,,,
,,239978,001,2023-07-24_20h32.07.089,arm3_eps,2022.2.5,Win32,60.11060351,5f8040a15e9c0003ae16dc31,64aea9d0f615b6559c281482,64bed186cb86c4994b1545ba,right,1,0.3,0.2429,12,-0.011139807,0.5742,,,,,,315,0,315,0,1,,,,,
,,239978,001,2023-07-24_20h32.07.089,arm3_eps,2022.2.5,Win32,60.11060351,5f8040a15e9c0003ae16dc31,64aea9d0f615b6559c281482,64bed186cb86c4994b1545ba,right,1,0.3,0.2429,12,0.005171449,0.4659,,,,,,316,0,316,0,1,,,,,
,,239978,001,2023-07-24_20h32.07.089,arm3_eps,2022.2.5,Win32,60.11060351,5f8040a15e9c0003ae16dc31,64aea9d0f615b6559c281482,64bed186cb86c4994b1545ba,right,1,0.3,0.2429,12,0.012192262,0.4987,,,,,,317,0,317,0,1,,,,,
,,239978,001,2023-07-24_20h32.07.089,arm3_eps,2022.2.5,Win32,60.11060351,5f8040a15e9c0003ae16dc31,64aea9d0f615b6559c281482,64bed186cb86c4994b1545ba,up,1,0.3,0.2429,13,0,0.2132,,,,,,318,0,318,0,1,,,,,
,,239978,001,2023-07-24_20h32.07.089,arm3_eps,2022.2.5,Win32,60.11060351,5f8040a15e9c0003ae16dc31,64aea9d0f615b6559c281482,64bed186cb86c4994b1545ba,right,1,0.3,0.2429,13,0.035767124,0.2981,,,,,,319,0,319,0,1,,,,,
,,239978,001,2023-07-24_20h32.07.089,arm3_eps,2022.2.5,Win32,60.11060351,5f8040a15e9c0003ae16dc31,64aea9d0f615b6559c281482,64bed186cb86c4994b1545ba,right,1,0.3,0.2429,13,0.039096309,0.4104,,,,,,320,0,320,0,1,,,,,
,,239978,001,2023-07-24_20h32.07.089,arm3_eps,2022.2.5,Win32,60.11060351,5f8040a15e9c0003ae16dc31,64aea9d0f615b6559c281482,64bed186cb86c4994b1545ba,right,1,0.3,0.2429,13,0.052140318,0.4113,,,,,,321,0,321,0,1,,,,,
,,239978,001,2023-07-24_20h32.07.089,arm3_eps,2022.2.5,Win32,60.11060351,5f8040a15e9c0003ae16dc31,64aea9d0f615b6559c281482,64bed186cb86c4994b1545ba,up,1,0.3,0.2429,14,0,0.1615,,,,,,322,0,322,0,1,,,,,
,,239978,001,2023-07-24_20h32.07.089,arm3_eps,2022.2.5,Win32,60.11060351,5f8040a15e9c0003ae16dc31,64aea9d0f615b6559c281482,64bed186cb86c4994b1545ba,right,1,0.3,0.2429,14,0.046174112,0.311,,,,,,323,0,323,0,1,,,,,
,,239978,001,2023-07-24_20h32.07.089,arm3_eps,2022.2.5,Win32,60.11060351,5f8040a15e9c0003ae16dc31,64aea9d0f615b6559c281482,64bed186cb86c4994b1545ba,right,1,0.3,0.2429,14,0.058894231,0.4597,,,,,,324,0,324,0,1,,,,,
,,239978,001,2023-07-24_20h32.07.089,arm3_eps,2022.2.5,Win32,60.11060351,5f8040a15e9c0003ae16dc31,64aea9d0f615b6559c281482,64bed186cb86c4994b1545ba,up,1,0.3,0.2429,14,0,0.3813,,,,,,325,0,325,0,1,,,,,
,,239978,001,2023-07-24_20h32.07.089,arm3_eps,2022.2.5,Win32,60.11060351,5f8040a15e9c0003ae16dc31,64aea9d0f615b6559c281482,64bed186cb86c4994b1545ba,right,1,0.3,0.2429,14,0.01420885,0.3113,,,,,,326,0,326,0,1,,,,,
,,239978,001,2023-07-24_20h32.07.089,arm3_eps,2022.2.5,Win32,60.11060351,5f8040a15e9c0003ae16dc31,64aea9d0f615b6559c281482,64bed186cb86c4994b1545ba,right,1,0.3,0.2429,14,0.020522908,0.4486,,,,,,327,0,327,0,1,,,,,
,,239978,001,2023-07-24_20h32.07.089,arm3_eps,2022.2.5,Win32,60.11060351,5f8040a15e9c0003ae16dc31,64aea9d0f615b6559c281482,64bed186cb86c4994b1545ba,up,1,0.3,0.2429,15,0,0.5534,,,,,,328,0,328,0,1,,,,,
,,239978,001,2023-07-24_20h32.07.089,arm3_eps,2022.2.5,Win32,60.11060351,5f8040a15e9c0003ae16dc31,64aea9d0f615b6559c281482,64bed186cb86c4994b1545ba,right,1,0.3,0.2429,15,-0.000726234,0.4187,,,,,,329,0,329,0,1,,,,,
,,239978,001,2023-07-24_20h32.07.089,arm3_eps,2022.2.5,Win32,60.11060351,5f8040a15e9c0003ae16dc31,64aea9d0f615b6559c281482,64bed186cb86c4994b1545ba,right,1,0.3,0.2429,15,0.0047238,0.4501,,,,,,330,0,330,0,1,,,,,
,,239978,001,2023-07-24_20h32.07.089,arm3_eps,2022.2.5,Win32,60.11060351,5f8040a15e9c0003ae16dc31,64aea9d0f615b6559c281482,64bed186cb86c4994b1545ba,up,-1,0.3,0.2429,16,0,0.5137,,,,,,331,0,331,0,1,,,,,
,,239978,001,2023-07-24_20h32.07.089,arm3_eps,2022.2.5,Win32,60.11060351,5f8040a15e9c0003ae16dc31,64aea9d0f615b6559c281482,64bed186cb86c4994b1545ba,right,-1,0.3,0.2429,16,-0.033998096,0.3107,,,,,,332,0,332,0,1,,,,,
,,239978,001,2023-07-24_20h32.07.089,arm3_eps,2022.2.5,Win32,60.11060351,5f8040a15e9c0003ae16dc31,64aea9d0f615b6559c281482,64bed186cb86c4994b1545ba,right,-1,0.3,0.2429,16,-0.0570289,0.4994,,,,,,333,0,333,0,1,,,,,
,,239978,001,2023-07-24_20h32.07.089,arm3_eps,2022.2.5,Win32,60.11060351,5f8040a15e9c0003ae16dc31,64aea9d0f615b6559c281482,64bed186cb86c4994b1545ba,down,-1,0.3,0.2429,16,0,0.4291,,,,,,334,0,334,0,1,,,,,
,,239978,001,2023-07-24_20h32.07.089,arm3_eps,2022.2.5,Win32,60.11060351,5f8040a15e9c0003ae16dc31,64aea9d0f615b6559c281482,64bed186cb86c4994b1545ba,right,-1,0.3,0.2429,16,-0.004980802,0.3204,,,,,,335,0,335,0,1,,,,,
,,239978,001,2023-07-24_20h32.07.089,arm3_eps,2022.2.5,Win32,60.11060351,5f8040a15e9c0003ae16dc31,64aea9d0f615b6559c281482,64bed186cb86c4994b1545ba,right,-1,0.3,0.2429,16,0.020450473,0.448,,,,,,336,0,336,0,1,,,,,
,,239978,001,2023-07-24_20h32.07.089,arm3_eps,2022.2.5,Win32,60.11060351,5f8040a15e9c0003ae16dc31,64aea9d0f615b6559c281482,64bed186cb86c4994b1545ba,up,-1,0.3,0.2429,15,0,0.4956,,,,,,337,0,337,0,1,,,,,
,,239978,001,2023-07-24_20h32.07.089,arm3_eps,2022.2.5,Win32,60.11060351,5f8040a15e9c0003ae16dc31,64aea9d0f615b6559c281482,64bed186cb86c4994b1545ba,right,-1,0.3,0.2429,15,-0.014720623,0.3356,,,,,,338,0,338,0,1,,,,,
,,239978,001,2023-07-24_20h32.07.089,arm3_eps,2022.2.5,Win32,60.11060351,5f8040a15e9c0003ae16dc31,64aea9d0f615b6559c281482,64bed186cb86c4994b1545ba,right,-1,0.3,0.2429,15,0.001063009,0.4745,,,,,,339,0,339,0,1,,,,,
,,239978,001,2023-07-24_20h32.07.089,arm3_eps,2022.2.5,Win32,60.11060351,5f8040a15e9c0003ae16dc31,64aea9d0f615b6559c281482,64bed186cb86c4994b1545ba,right,-1,0.3,0.2429,15,-0.015736329,0.4801,,,,,,340,0,340,0,1,,,,,
,,239978,001,2023-07-24_20h32.07.089,arm3_eps,2022.2.5,Win32,60.11060351,5f8040a15e9c0003ae16dc31,64aea9d0f615b6559c281482,64bed186cb86c4994b1545ba,down,-1,0.3,0.2429,15,0,0.8839,,,,,,341,0,341,0,1,,,,,
,,239978,001,2023-07-24_20h32.07.089,arm3_eps,2022.2.5,Win32,60.11060351,5f8040a15e9c0003ae16dc31,64aea9d0f615b6559c281482,64bed186cb86c4994b1545ba,right,-1,0.3,0.2429,15,-0.004076669,0.3551,,,,,,342,0,342,0,1,,,,,
,,239978,001,2023-07-24_20h32.07.089,arm3_eps,2022.2.5,Win32,60.11060351,5f8040a15e9c0003ae16dc31,64aea9d0f615b6559c281482,64bed186cb86c4994b1545ba,right,-1,0.3,0.2429,15,0.003373501,0.4337,,,,,,343,0,343,0,1,,,,,
,,239978,001,2023-07-24_20h32.07.089,arm3_eps,2022.2.5,Win32,60.11060351,5f8040a15e9c0003ae16dc31,64aea9d0f615b6559c281482,64bed186cb86c4994b1545ba,right,-1,0.3,0.2429,15,-0.006351371,0.4468,,,,,,344,0,344,0,1,,,,,
,,239978,001,2023-07-24_20h32.07.089,arm3_eps,2022.2.5,Win32,60.11060351,5f8040a15e9c0003ae16dc31,64aea9d0f615b6559c281482,64bed186cb86c4994b1545ba,down,-1,0.3,0.2429,15,0,0.6597,,,,,,345,0,345,0,1,,,,,
,,239978,001,2023-07-24_20h32.07.089,arm3_eps,2022.2.5,Win32,60.11060351,5f8040a15e9c0003ae16dc31,64aea9d0f615b6559c281482,64bed186cb86c4994b1545ba,right,-1,0.3,0.2429,15,-0.033588608,0.1452,,,,,,346,0,346,0,1,,,,,
,,239978,001,2023-07-24_20h32.07.089,arm3_eps,2022.2.5,Win32,60.11060351,5f8040a15e9c0003ae16dc31,64aea9d0f615b6559c281482,64bed186cb86c4994b1545ba,right,-1,0.3,0.2429,15,-0.060787788,0.4353,,,,,,347,0,347,0,1,,,,,
,,239978,001,2023-07-24_20h32.07.089,arm3_eps,2022.2.5,Win32,60.11060351,5f8040a15e9c0003ae16dc31,64aea9d0f615b6559c281482,64bed186cb86c4994b1545ba,down,-1,0.3,0.2429,15,0,0.5023,,,,,,348,0,348,0,1,,,,,
,,239978,001,2023-07-24_20h32.07.089,arm3_eps,2022.2.5,Win32,60.11060351,5f8040a15e9c0003ae16dc31,64aea9d0f615b6559c281482,64bed186cb86c4994b1545ba,right,-1,0.3,0.2429,15,0.037074069,0.2769,,,,,,349,0,349,0,1,,,,,
,,239978,001,2023-07-24_20h32.07.089,arm3_eps,2022.2.5,Win32,60.11060351,5f8040a15e9c0003ae16dc31,64aea9d0f615b6559c281482,64bed186cb86c4994b1545ba,right,-1,0.3,0.2429,15,0.004073522,0.479,,,,,,350,0,350,0,1,,,,,
,,239978,001,2023-07-24_20h32.07.089,arm3_eps,2022.2.5,Win32,60.11060351,5f8040a15e9c0003ae16dc31,64aea9d0f615b6559c281482,64bed186cb86c4994b1545ba,up,-1,0.3,0.2429,15,0,0.9514,,,,,,351,0,351,0,1,,,,,
,,239978,001,2023-07-24_20h32.07.089,arm3_eps,2022.2.5,Win32,60.11060351,5f8040a15e9c0003ae16dc31,64aea9d0f615b6559c281482,64bed186cb86c4994b1545ba,right,-1,0.3,0.2429,15,-0.008982611,0.3201,,,,,,352,0,352,0,1,,,,,
,,239978,001,2023-07-24_20h32.07.089,arm3_eps,2022.2.5,Win32,60.11060351,5f8040a15e9c0003ae16dc31,64aea9d0f615b6559c281482,64bed186cb86c4994b1545ba,right,-1,0.3,0.2429,15,-0.00252379,0.4449,,,,,,353,0,353,0,1,,,,,
,,239978,001,2023-07-24_20h32.07.089,arm3_eps,2022.2.5,Win32,60.11060351,5f8040a15e9c0003ae16dc31,64aea9d0f615b6559c281482,64bed186cb86c4994b1545ba,down,-1,0.3,0.2429,15,0,0.4719,,,,,,354,0,354,0,1,,,,,
,,239978,001,2023-07-24_20h32.07.089,arm3_eps,2022.2.5,Win32,60.11060351,5f8040a15e9c0003ae16dc31,64aea9d0f615b6559c281482,64bed186cb86c4994b1545ba,right,-1,0.3,0.2429,15,0.013782711,0.3936,,,,,,355,0,355,0,1,,,,,
,,239978,001,2023-07-24_20h32.07.089,arm3_eps,2022.2.5,Win32,60.11060351,5f8040a15e9c0003ae16dc31,64aea9d0f615b6559c281482,64bed186cb86c4994b1545ba,right,-1,0.3,0.2429,15,-0.00842033,0.6144,,,,,,356,0,356,0,1,,,,,
,,239978,001,2023-07-24_20h32.07.089,arm3_eps,2022.2.5,Win32,60.11060351,5f8040a15e9c0003ae16dc31,64aea9d0f615b6559c281482,64bed186cb86c4994b1545ba,right,-1,0.3,0.2429,15,-0.012090368,0.3963,,,,,,357,0,357,0,1,,,,,
,,239978,001,2023-07-24_20h32.07.089,arm3_eps,2022.2.5,Win32,60.11060351,5f8040a15e9c0003ae16dc31,64aea9d0f615b6559c281482,64bed186cb86c4994b1545ba,down,-1,0.3,0.2429,16,0,0.414,,,,,,358,0,358,0,1,,,,,
,,239978,001,2023-07-24_20h32.07.089,arm3_eps,2022.2.5,Win32,60.11060351,5f8040a15e9c0003ae16dc31,64aea9d0f615b6559c281482,64bed186cb86c4994b1545ba,right,-1,0.3,0.2429,16,-0.009092589,0.3545,,,,,,359,0,359,0,1,,,,,
,,239978,001,2023-07-24_20h32.07.089,arm3_eps,2022.2.5,Win32,60.11060351,5f8040a15e9c0003ae16dc31,64aea9d0f615b6559c281482,64bed186cb86c4994b1545ba,right,-1,0.3,0.2429,16,-0.005510211,0.5282,,,,,,360,0,360,0,1,,,,,
,,239978,001,2023-07-24_20h32.07.089,arm3_eps,2022.2.5,Win32,60.11060351,5f8040a15e9c0003ae16dc31,64aea9d0f615b6559c281482,64bed186cb86c4994b1545ba,right,-1,0.3,0.2429,16,-0.002896442,0.6971,,,,,,361,0,361,0,1,,,,,
,,239978,001,2023-07-24_20h32.07.089,arm3_eps,2022.2.5,Win32,60.11060351,5f8040a15e9c0003ae16dc31,64aea9d0f615b6559c281482,64bed186cb86c4994b1545ba,up,1,0.3,0.2429,16,0,0.5219,,,,,,362,0,362,0,1,,,,,
,,239978,001,2023-07-24_20h32.07.089,arm3_eps,2022.2.5,Win32,60.11060351,5f8040a15e9c0003ae16dc31,64aea9d0f615b6559c281482,64bed186cb86c4994b1545ba,right,1,0.3,0.2429,16,-0.020032769,0.4378,,,,,,363,0,363,0,1,,,,,
,,239978,001,2023-07-24_20h32.07.089,arm3_eps,2022.2.5,Win32,60.11060351,5f8040a15e9c0003ae16dc31,64aea9d0f615b6559c281482,64bed186cb86c4994b1545ba,down,1,0.3,0.2429,15,0,1.1287,,,,,,364,0,364,0,1,,,,,
,,239978,001,2023-07-24_20h32.07.089,arm3_eps,2022.2.5,Win32,60.11060351,5f8040a15e9c0003ae16dc31,64aea9d0f615b6559c281482,64bed186cb86c4994b1545ba,right,1,0.3,0.2429,15,-0.004786048,0.36,,,,,,365,0,365,0,1,,,,,
,,239978,001,2023-07-24_20h32.07.089,arm3_eps,2022.2.5,Win32,60.11060351,5f8040a15e9c0003ae16dc31,64aea9d0f615b6559c281482,64bed186cb86c4994b1545ba,down,1,0.3,0.2429,15,0,1.2768,,,,,,366,0,366,0,1,,,,,
,,239978,001,2023-07-24_20h32.07.089,arm3_eps,2022.2.5,Win32,60.11060351,5f8040a15e9c0003ae16dc31,64aea9d0f615b6559c281482,64bed186cb86c4994b1545ba,right,1,0.3,0.2429,15,-0.008320155,0.2989,,,,,,367,0,367,0,1,,,,,
,,239978,001,2023-07-24_20h32.07.089,arm3_eps,2022.2.5,Win32,60.11060351,5f8040a15e9c0003ae16dc31,64aea9d0f615b6559c281482,64bed186cb86c4994b1545ba,down,1,0.3,0.2429,15,0,0.6469,,,,,,368,0,368,0,1,,,,,
,,239978,001,2023-07-24_20h32.07.089,arm3_eps,2022.2.5,Win32,60.11060351,5f8040a15e9c0003ae16dc31,64aea9d0f615b6559c281482,64bed186cb86c4994b1545ba,right,1,0.3,0.2429,15,0.012028802,0.6931,,,,,,369,0,369,0,1,,,,,
,,239978,001,2023-07-24_20h32.07.089,arm3_eps,2022.2.5,Win32,60.11060351,5f8040a15e9c0003ae16dc31,64aea9d0f615b6559c281482,64bed186cb86c4994b1545ba,,,,,,,,,,,,,,,,,,0,0,0,0,1
space,6.9174,239978,001,2023-07-24_20h32.07.089,arm3_eps,2022.2.5,Win32,60.11060351,5f8040a15e9c0003ae16dc31,64aea9d0f615b6559c281482,64bed186cb86c4994b1545ba,right,1,0.3,0.05,15,0.028781654,2.5219,,,,,,0,0,0,0,1,,,,,
,,239978,001,2023-07-24_20h32.07.089,arm3_eps,2022.2.5,Win32,60.11060351,5f8040a15e9c0003ae16dc31,64aea9d0f615b6559c281482,64bed186cb86c4994b1545ba,up,1,0.3,0.05,15,0,0.8877,,,,,,1,0,1,0,1,,,,,
,,239978,001,2023-07-24_20h32.07.089,arm3_eps,2022.2.5,Win32,60.11060351,5f8040a15e9c0003ae16dc31,64aea9d0f615b6559c281482,64bed186cb86c4994b1545ba,right,1,0.3,0.05,15,-0.018654429,0.6153,,,,,,2,0,2,0,1,,,,,
,,239978,001,2023-07-24_20h32.07.089,arm3_eps,2022.2.5,Win32,60.11060351,5f8040a15e9c0003ae16dc31,64aea9d0f615b6559c281482,64bed186cb86c4994b1545ba,down,1,0.3,0.05,14,0,0.7624,,,,,,3,0,3,0,1,,,,,
,,239978,001,2023-07-24_20h32.07.089,arm3_eps,2022.2.5,Win32,60.11060351,5f8040a15e9c0003ae16dc31,64aea9d0f615b6559c281482,64bed186cb86c4994b1545ba,right,1,0.3,0.05,14,0.015957191,0.3897,,,,,,4,0,4,0,1,,,,,
,,239978,001,2023-07-24_20h32.07.089,arm3_eps,2022.2.5,Win32,60.11060351,5f8040a15e9c0003ae16dc31,64aea9d0f615b6559c281482,64bed186cb86c4994b1545ba,right,1,0.3,0.05,14,0.001601995,0.6287,,,,,,5,0,5,0,1,,,,,
,,239978,001,2023-07-24_20h32.07.089,arm3_eps,2022.2.5,Win32,60.11060351,5f8040a15e9c0003ae16dc31,64aea9d0f615b6559c281482,64bed186cb86c4994b1545ba,up,1,0.3,0.05,15,0,0.7141,,,,,,6,0,6,0,1,,,,,
,,239978,001,2023-07-24_20h32.07.089,arm3_eps,2022.2.5,Win32,60.11060351,5f8040a15e9c0003ae16dc31,64aea9d0f615b6559c281482,64bed186cb86c4994b1545ba,right,1,0.3,0.05,15,0.024298224,0.3255,,,,,,7,0,7,0,1,,,,,
,,239978,001,2023-07-24_20h32.07.089,arm3_eps,2022.2.5,Win32,60.11060351,5f8040a15e9c0003ae16dc31,64aea9d0f615b6559c281482,64bed186cb86c4994b1545ba,right,1,0.3,0.05,15,0.012183037,0.5597,,,,,,8,0,8,0,1,,,,,
,,239978,001,2023-07-24_20h32.07.089,arm3_eps,2022.2.5,Win32,60.11060351,5f8040a15e9c0003ae16dc31,64aea9d0f615b6559c281482,64bed186cb86c4994b1545ba,up,1,0.3,0.05,15,0,0.3786,,,,,,9,0,9,0,1,,,,,
,,239978,001,2023-07-24_20h32.07.089,arm3_eps,2022.2.5,Win32,60.11060351,5f8040a15e9c0003ae16dc31,64aea9d0f615b6559c281482,64bed186cb86c4994b1545ba,right,1,0.3,0.05,15,0.039514688,0.3026,,,,,,10,0,10,0,1,,,,,
,,239978,001,2023-07-24_20h32.07.089,arm3_eps,2022.2.5,Win32,60.11060351,5f8040a15e9c0003ae16dc31,64aea9d0f615b6559c281482,64bed186cb86c4994b1545ba,right,1,0.3,0.05,15,0.052003981,0.4808,,,,,,11,0,11,0,1,,,,,
,,239978,001,2023-07-24_20h32.07.089,arm3_eps,2022.2.5,Win32,60.11060351,5f8040a15e9c0003ae16dc31,64aea9d0f615b6559c281482,64bed186cb86c4994b1545ba,up,1,0.3,0.05,15,0,0.307,,,,,,12,0,12,0,1,,,,,
,,239978,001,2023-07-24_20h32.07.089,arm3_eps,2022.2.5,Win32,60.11060351,5f8040a15e9c0003ae16dc31,64aea9d0f615b6559c281482,64bed186cb86c4994b1545ba,right,1,0.3,0.05,15,0.02704917,0.3567,,,,,,13,0,13,0,1,,,,,
,,239978,001,2023-07-24_20h32.07.089,arm3_eps,2022.2.5,Win32,60.11060351,5f8040a15e9c0003ae16dc31,64aea9d0f615b6559c281482,64bed186cb86c4994b1545ba,up,1,0.3,0.05,15,0,0.4987,,,,,,14,0,14,0,1,,,,,
,,239978,001,2023-07-24_20h32.07.089,arm3_eps,2022.2.5,Win32,60.11060351,5f8040a15e9c0003ae16dc31,64aea9d0f615b6559c281482,64bed186cb86c4994b1545ba,right,1,0.3,0.05,15,0.004529067,0.3794,,,,,,15,0,15,0,1,,,,,
,,239978,001,2023-07-24_20h32.07.089,arm3_eps,2022.2.5,Win32,60.11060351,5f8040a15e9c0003ae16dc31,64aea9d0f615b6559c281482,64bed186cb86c4994b1545ba,right,1,0.3,0.05,15,0.000913384,0.5625,,,,,,16,0,16,0,1,,,,,
,,239978,001,2023-07-24_20h32.07.089,arm3_eps,2022.2.5,Win32,60.11060351,5f8040a15e9c0003ae16dc31,64aea9d0f615b6559c281482,64bed186cb86c4994b1545ba,down,1,0.3,0.05,14,0,0.8299,,,,,,17,0,17,0,1,,,,,
,,239978,001,2023-07-24_20h32.07.089,arm3_eps,2022.2.5,Win32,60.11060351,5f8040a15e9c0003ae16dc31,64aea9d0f615b6559c281482,64bed186cb86c4994b1545ba,right,1,0.3,0.05,14,-0.003901377,0.311,,,,,,18,0,18,0,1,,,,,
,,239978,001,2023-07-24_20h32.07.089,arm3_eps,2022.2.5,Win32,60.11060351,5f8040a15e9c0003ae16dc31,64aea9d0f615b6559c281482,64bed186cb86c4994b1545ba,right,1,0.3,0.05,14,-0.00111779,0.5511,,,,,,19,0,19,0,1,,,,,
,,239978,001,2023-07-24_20h32.07.089,arm3_eps,2022.2.5,Win32,60.11060351,5f8040a15e9c0003ae16dc31,64aea9d0f615b6559c281482,64bed186cb86c4994b1545ba,up,1,0.3,0.05,14,0,0.357,,,,,,20,0,20,0,1,,,,,
,,239978,001,2023-07-24_20h32.07.089,arm3_eps,2022.2.5,Win32,60.11060351,5f8040a15e9c0003ae16dc31,64aea9d0f615b6559c281482,64bed186cb86c4994b1545ba,right,1,0.3,0.05,14,-0.006767095,0.3786,,,,,,21,0,21,0,1,,,,,
,,239978,001,2023-07-24_20h32.07.089,arm3_eps,2022.2.5,Win32,60.11060351,5f8040a15e9c0003ae16dc31,64aea9d0f615b6559c281482,64bed186cb86c4994b1545ba,down,1,0.3,0.05,14,0,1.3964,,,,,,22,0,22,0,1,,,,,
,,239978,001,2023-07-24_20h32.07.089,arm3_eps,2022.2.5,Win32,60.11060351,5f8040a15e9c0003ae16dc31,64aea9d0f615b6559c281482,64bed186cb86c4994b1545ba,right,1,0.3,0.05,14,0.007426333,0.4446,,,,,,23,0,23,0,1,,,,,
,,239978,001,2023-07-24_20h32.07.089,arm3_eps,2022.2.5,Win32,60.11060351,5f8040a15e9c0003ae16dc31,64aea9d0f615b6559c281482,64bed186cb86c4994b1545ba,down,1,0.3,0.05,14,0,1.0438,,,,,,24,0,24,0,1,,,,,
,,239978,001,2023-07-24_20h32.07.089,arm3_eps,2022.2.5,Win32,60.11060351,5f8040a15e9c0003ae16dc31,64aea9d0f615b6559c281482,64bed186cb86c4994b1545ba,right,1,0.3,0.05,14,0.039289655,0.4278,,,,,,25,0,25,0,1,,,,,
,,239978,001,2023-07-24_20h32.07.089,arm3_eps,2022.2.5,Win32,60.11060351,5f8040a15e9c0003ae16dc31,64aea9d0f615b6559c281482,64bed186cb86c4994b1545ba,up,-1,0.3,0.05,14,0,0.7844,,,,,,26,0,26,0,1,,,,,
,,239978,001,2023-07-24_20h32.07.089,arm3_eps,2022.2.5,Win32,60.11060351,5f8040a15e9c0003ae16dc31,64aea9d0f615b6559c281482,64bed186cb86c4994b1545ba,right,-1,0.3,0.05,14,0.015946759,0.6111,,,,,,27,0,27,0,1,,,,,
,,239978,001,2023-07-24_20h32.07.089,arm3_eps,2022.2.5,Win32,60.11060351,5f8040a15e9c0003ae16dc31,64aea9d0f615b6559c281482,64bed186cb86c4994b1545ba,right,-1,0.3,0.05,14,0.028119259,0.596,,,,,,28,0,28,0,1,,,,,
,,239978,001,2023-07-24_20h32.07.089,arm3_eps,2022.2.5,Win32,60.11060351,5f8040a15e9c0003ae16dc31,64aea9d0f615b6559c281482,64bed186cb86c4994b1545ba,up,-1,0.3,0.05,14,0,0.3029,,,,,,29,0,29,0,1,,,,,
,,239978,001,2023-07-24_20h32.07.089,arm3_eps,2022.2.5,Win32,60.11060351,5f8040a15e9c0003ae16dc31,64aea9d0f615b6559c281482,64bed186cb86c4994b1545ba,right,-1,0.3,0.05,14,-0.017233889,0.4538,,,,,,30,0,30,0,1,,,,,
,,239978,001,2023-07-24_20h32.07.089,arm3_eps,2022.2.5,Win32,60.11060351,5f8040a15e9c0003ae16dc31,64aea9d0f615b6559c281482,64bed186cb86c4994b1545ba,right,-1,0.3,0.05,14,-0.019155367,0.5618,,,,,,31,0,31,0,1,,,,,
,,239978,001,2023-07-24_20h32.07.089,arm3_eps,2022.2.5,Win32,60.11060351,5f8040a15e9c0003ae16dc31,64aea9d0f615b6559c281482,64bed186cb86c4994b1545ba,down,-1,0.3,0.05,14,0,0.5609,,,,,,32,0,32,0,1,,,,,
,,239978,001,2023-07-24_20h32.07.089,arm3_eps,2022.2.5,Win32,60.11060351,5f8040a15e9c0003ae16dc31,64aea9d0f615b6559c281482,64bed186cb86c4994b1545ba,right,-1,0.3,0.05,14,-0.033661982,0.4153,,,,,,33,0,33,0,1,,,,,
,,239978,001,2023-07-24_20h32.07.089,arm3_eps,2022.2.5,Win32,60.11060351,5f8040a15e9c0003ae16dc31,64aea9d0f615b6559c281482,64bed186cb86c4994b1545ba,right,-1,0.3,0.05,14,0.009731394,0.6169,,,,,,34,0,34,0,1,,,,,
,,239978,001,2023-07-24_20h32.07.089,arm3_eps,2022.2.5,Win32,60.11060351,5f8040a15e9c0003ae16dc31,64aea9d0f615b6559c281482,64bed186cb86c4994b1545ba,right,-1,0.3,0.05,14,-0.001009956,0.6291,,,,,,35,0,35,0,1,,,,,
,,239978,001,2023-07-24_20h32.07.089,arm3_eps,2022.2.5,Win32,60.11060351,5f8040a15e9c0003ae16dc31,64aea9d0f615b6559c281482,64bed186cb86c4994b1545ba,down,-1,0.3,0.05,14,0,0.6976,,,,,,36,0,36,0,1,,,,,
,,239978,001,2023-07-24_20h32.07.089,arm3_eps,2022.2.5,Win32,60.11060351,5f8040a15e9c0003ae16dc31,64aea9d0f615b6559c281482,64bed186cb86c4994b1545ba,right,-1,0.3,0.05,14,-0.000968737,0.4614,,,,,,37,0,37,0,1,,,,,
,,239978,001,2023-07-24_20h32.07.089,arm3_eps,2022.2.5,Win32,60.11060351,5f8040a15e9c0003ae16dc31,64aea9d0f615b6559c281482,64bed186cb86c4994b1545ba,right,-1,0.3,0.05,14,-0.012369766,0.544,,,,,,38,0,38,0,1,,,,,
,,239978,001,2023-07-24_20h32.07.089,arm3_eps,2022.2.5,Win32,60.11060351,5f8040a15e9c0003ae16dc31,64aea9d0f615b6559c281482,64bed186cb86c4994b1545ba,down,-1,0.3,0.05,14,0,0.4638,,,,,,39,0,39,0,1,,,,,
,,239978,001,2023-07-24_20h32.07.089,arm3_eps,2022.2.5,Win32,60.11060351,5f8040a15e9c0003ae16dc31,64aea9d0f615b6559c281482,64bed186cb86c4994b1545ba,right,-1,0.3,0.05,14,-0.011897075,0.3603,,,,,,40,0,40,0,1,,,,,
,,239978,001,2023-07-24_20h32.07.089,arm3_eps,2022.2.5,Win32,60.11060351,5f8040a15e9c0003ae16dc31,64aea9d0f615b6559c281482,64bed186cb86c4994b1545ba,right,-1,0.3,0.05,14,-0.00778796,0.5142,,,,,,41,0,41,0,1,,,,,
,,239978,001,2023-07-24_20h32.07.089,arm3_eps,2022.2.5,Win32,60.11060351,5f8040a15e9c0003ae16dc31,64aea9d0f615b6559c281482,64bed186cb86c4994b1545ba,right,-1,0.3,0.05,14,0.000857271,0.7634,,,,,,42,0,42,0,1,,,,,
,,239978,001,2023-07-24_20h32.07.089,arm3_eps,2022.2.5,Win32,60.11060351,5f8040a15e9c0003ae16dc31,64aea9d0f615b6559c281482,64bed186cb86c4994b1545ba,up,-1,0.3,0.05,13,0,0.4122,,,,,,43,0,43,0,1,,,,,
