space_bar.keys,space_bar.rt,participant,session,date,expName,psychopyVersion,OS,frameRate,resp.keys,state,q_prob,eps_prob,score,price,resp.rt,train.thisRepN,train.thisTrialN,train.thisN,train.thisIndex,train.ran,steps.thisRepN,steps.thisTrialN,steps.thisN,steps.thisIndex,steps.ran,blocks.thisRepN,blocks.thisTrialN,blocks.thisN,blocks.thisIndex,blocks.ran
space,30.0095,706995,001,2023-07-24_12h02.54.851,arm3_eps,2022.2.5,Win32,60.26274557,,,,,,,,,,,,,,,,,,,,,,
space,20.6221,706995,001,2023-07-24_12h02.54.851,arm3_eps,2022.2.5,Win32,60.26274557,,,,,,,,,,,,,,,,,,,,,,
space,28.2577,706995,001,2023-07-24_12h02.54.851,arm3_eps,2022.2.5,Win32,60.26274557,,,,,,,,,,,,,,,,,,,,,,
space,13.7872,706995,001,2023-07-24_12h02.54.851,arm3_eps,2022.2.5,Win32,60.26274557,,,,,,,,,,,,,,,,,,,,,,
space,24.7597,706995,001,2023-07-24_12h02.54.851,arm3_eps,2022.2.5,Win32,60.26274557,,,,,,,,,,,,,,,,,,,,,,
space,18.9999,706995,001,2023-07-24_12h02.54.851,arm3_eps,2022.2.5,Win32,60.26274557,,,,,,,,,,,,,,,,,,,,,,
space,14.461,706995,001,2023-07-24_12h02.54.851,arm3_eps,2022.2.5,Win32,60.26274557,,,,,,,,,,,,,,,,,,,,,,
space,36.482,706995,001,2023-07-24_12h02.54.851,arm3_eps,2022.2.5,Win32,60.26274557,,,,,,,,,,,,,,,,,,,,,,
space,10.6372,706995,001,2023-07-24_12h02.54.851,arm3_eps,2022.2.5,Win32,60.26274557,,,,,,,,,,,,,,,,,,,,,,
space,7.4284,706995,001,2023-07-24_12h02.54.851,arm3_eps,2022.2.5,Win32,60.26274557,,,,,,,,,,,,,,,,,,,,,,
,,706995,001,2023-07-24_12h02.54.851,arm3_eps,2022.2.5,Win32,60.26274557,right,1,0.3,0.2429,0,-0.011011014,7.0568,0,0,0,0,1,,,,,,,,,,
,,706995,001,2023-07-24_12h02.54.851,arm3_eps,2022.2.5,Win32,60.26274557,right,1,0.3,0.2429,0,-0.00740012,1.9957,1,0,1,0,1,,,,,,,,,,
,,706995,001,2023-07-24_12h02.54.851,arm3_eps,2022.2.5,Win32,60.26274557,right,1,0.3,0.2429,0,-0.003141989,1.2418,2,0,2,0,1,,,,,,,,,,
,,706995,001,2023-07-24_12h02.54.851,arm3_eps,2022.2.5,Win32,60.26274557,up,-1,0.3,0.2429,0,0,1.0258,3,0,3,0,1,,,,,,,,,,
,,706995,001,2023-07-24_12h02.54.851,arm3_eps,2022.2.5,Win32,60.26274557,right,-1,0.3,0.2429,0,0.005947509,0.8713,4,0,4,0,1,,,,,,,,,,
,,706995,001,2023-07-24_12h02.54.851,arm3_eps,2022.2.5,Win32,60.26274557,right,-1,0.3,0.2429,0,0.008282726,0.6412,5,0,5,0,1,,,,,,,,,,
,,706995,001,2023-07-24_12h02.54.851,arm3_eps,2022.2.5,Win32,60.26274557,right,-1,0.3,0.2429,0,-0.001222443,0.591,6,0,6,0,1,,,,,,,,,,
,,706995,001,2023-07-24_12h02.54.851,arm3_eps,2022.2.5,Win32,60.26274557,right,-1,0.3,0.2429,0,-0.028682298,0.6634,7,0,7,0,1,,,,,,,,,,
,,706995,001,2023-07-24_12h02.54.851,arm3_eps,2022.2.5,Win32,60.26274557,down,-1,0.3,0.2429,1,0,0.3327,8,0,8,0,1,,,,,,,,,,
,,706995,001,2023-07-24_12h02.54.851,arm3_eps,2022.2.5,Win32,60.26274557,right,-1,0.3,0.2429,1,-0.033513573,0.7715,9,0,9,0,1,,,,,,,,,,
,,706995,001,2023-07-24_12h02.54.851,arm3_eps,2022.2.5,Win32,60.26274557,right,-1,0.3,0.2429,1,-0.012241673,0.6278,10,0,10,0,1,,,,,,,,,,
,,706995,001,2023-07-24_12h02.54.851,arm3_eps,2022.2.5,Win32,60.26274557,right,-1,0.3,0.2429,1,-0.025028369,0.4514,11,0,11,0,1,,,,,,,,,,
,,706995,001,2023-07-24_12h02.54.851,arm3_eps,2022.2.5,Win32,60.26274557,right,-1,0.3,0.2429,1,-0.035614996,1.0255,12,0,12,0,1,,,,,,,,,,
,,706995,001,2023-07-24_12h02.54.851,arm3_eps,2022.2.5,Win32,60.26274557,down,-1,0.3,0.2429,2,0,0.1183,13,0,13,0,1,,,,,,,,,,
,,706995,001,2023-07-24_12h02.54.851,arm3_eps,2022.2.5,Win32,60.26274557,right,-1,0.3,0.2429,2,-0.00831019,0.6252,14,0,14,0,1,,,,,,,,,,
,,706995,001,2023-07-24_12h02.54.851,arm3_eps,2022.2.5,Win32,60.26274557,right,-1,0.3,0.2429,2,-0.028520104,0.2345,15,0,15,0,1,,,,,,,,,,
,,706995,001,2023-07-24_12h02.54.851,arm3_eps,2022.2.5,Win32,60.26274557,right,-1,0.3,0.2429,2,-0.011960365,0.3849,16,0,16,0,1,,,,,,,,,,
,,706995,001,2023-07-24_12h02.54.851,arm3_eps,2022.2.5,Win32,60.26274557,right,-1,0.3,0.2429,2,-0.025030044,0.4453,17,0,17,0,1,,,,,,,,,,
,,706995,001,2023-07-24_12h02.54.851,arm3_eps,2022.2.5,Win32,60.26274557,right,-1,0.3,0.2429,2,-0.029977828,0.4678,18,0,18,0,1,,,,,,,,,,
,,706995,001,2023-07-24_12h02.54.851,arm3_eps,2022.2.5,Win32,60.26274557,up,1,0.3,0.2429,1,0,1.0943,19,0,19,0,1,,,,,,,,,,
,,706995,001,2023-07-24_12h02.54.851,arm3_eps,2022.2.5,Win32,60.26274557,right,1,0.3,0.2429,1,-0.029261831,1.0654,20,0,20,0,1,,,,,,,,,,
,,706995,001,2023-07-24_12h02.54.851,arm3_eps,2022.2.5,Win32,60.26274557,right,1,0.3,0.2429,1,0.009893817,0.3166,21,0,21,0,1,,,,,,,,,,
,,706995,001,2023-07-24_12h02.54.851,arm3_eps,2022.2.5,Win32,60.26274557,right,1,0.3,0.2429,1,0.01780952,0.4176,22,0,22,0,1,,,,,,,,,,
,,706995,001,2023-07-24_12h02.54.851,arm3_eps,2022.2.5,Win32,60.26274557,right,1,0.3,0.2429,1,0.024555338,0.4009,23,0,23,0,1,,,,,,,,,,
,,706995,001,2023-07-24_12h02.54.851,arm3_eps,2022.2.5,Win32,60.26274557,right,1,0.3,0.2429,1,0.03205442,0.4829,24,0,24,0,1,,,,,,,,,,
,,706995,001,2023-07-24_12h02.54.851,arm3_eps,2022.2.5,Win32,60.26274557,up,1,0.3,0.2429,2,0,0.3342,25,0,25,0,1,,,,,,,,,,
,,706995,001,2023-07-24_12h02.54.851,arm3_eps,2022.2.5,Win32,60.26274557,right,1,0.3,0.2429,2,0.057459822,0.5215,26,0,26,0,1,,,,,,,,,,
,,706995,001,2023-07-24_12h02.54.851,arm3_eps,2022.2.5,Win32,60.26274557,right,1,0.3,0.2429,2,0.076656898,0.2789,27,0,27,0,1,,,,,,,,,,
,,706995,001,2023-07-24_12h02.54.851,arm3_eps,2022.2.5,Win32,60.26274557,right,1,0.3,0.2429,2,0.087594266,0.275,28,0,28,0,1,,,,,,,,,,
,,706995,001,2023-07-24_12h02.54.851,arm3_eps,2022.2.5,Win32,60.26274557,up,1,0.3,0.2429,3,0,0.2443,29,0,29,0,1,,,,,,,,,,
,,706995,001,2023-07-24_12h02.54.851,arm3_eps,2022.2.5,Win32,60.26274557,right,1,0.3,0.2429,3,0.024753567,0.4237,30,0,30,0,1,,,,,,,,,,
,,706995,001,2023-07-24_12h02.54.851,arm3_eps,2022.2.5,Win32,60.26274557,right,1,0.3,0.2429,3,0.048514144,0.4669,31,0,31,0,1,,,,,,,,,,
,,706995,001,2023-07-24_12h02.54.851,arm3_eps,2022.2.5,Win32,60.26274557,right,1,0.3,0.2429,3,0.065218896,0.3925,32,0,32,0,1,,,,,,,,,,
,,706995,001,2023-07-24_12h02.54.851,arm3_eps,2022.2.5,Win32,60.26274557,right,1,0.3,0.2429,3,0.060200392,0.3671,33,0,33,0,1,,,,,,,,,,
,,706995,001,2023-07-24_12h02.54.851,arm3_eps,2022.2.5,Win32,60.26274557,right,1,0.3,0.2429,3,0.062444815,0.3507,34,0,34,0,1,,,,,,,,,,
,,706995,001,2023-07-24_12h02.54.851,arm3_eps,2022.2.5,Win32,60.26274557,right,1,0.3,0.2429,3,0.047452719,0.624,35,0,35,0,1,,,,,,,,,,
,,706995,001,2023-07-24_12h02.54.851,arm3_eps,2022.2.5,Win32,60.26274557,up,1,0.3,0.2429,4,0,0.4725,36,0,36,0,1,,,,,,,,,,
,,706995,001,2023-07-24_12h02.54.851,arm3_eps,2022.2.5,Win32,60.26274557,right,1,0.3,0.2429,4,0.025033816,0.4009,37,0,37,0,1,,,,,,,,,,
,,706995,001,2023-07-24_12h02.54.851,arm3_eps,2022.2.5,Win32,60.26274557,right,1,0.3,0.2429,4,0.017958354,0.3266,38,0,38,0,1,,,,,,,,,,
,,706995,001,2023-07-24_12h02.54.851,arm3_eps,2022.2.5,Win32,60.26274557,right,1,0.3,0.2429,4,-7.37472E-05,0.2137,39,0,39,0,1,,,,,,,,,,
,,706995,001,2023-07-24_12h02.54.851,arm3_eps,2022.2.5,Win32,60.26274557,right,1,0.3,0.2429,4,-0.014267582,0.2842,40,0,40,0,1,,,,,,,,,,
,,706995,001,2023-07-24_12h02.54.851,arm3_eps,2022.2.5,Win32,60.26274557,right,1,0.3,0.2429,4,0.015905068,0.3262,41,0,41,0,1,,,,,,,,,,
,,706995,001,2023-07-24_12h02.54.851,arm3_eps,2022.2.5,Win32,60.26274557,right,1,0.3,0.2429,4,0.047557638,0.3176,42,0,42,0,1,,,,,,,,,,
,,706995,001,2023-07-24_12h02.54.851,arm3_eps,2022.2.5,Win32,60.26274557,up,1,0.3,0.2429,5,0,0.3001,43,0,43,0,1,,,,,,,,,,
,,706995,001,2023-07-24_12h02.54.851,arm3_eps,2022.2.5,Win32,60.26274557,right,1,0.3,0.2429,5,0.000328267,0.3498,44,0,44,0,1,,,,,,,,,,
,,706995,001,2023-07-24_12h02.54.851,arm3_eps,2022.2.5,Win32,60.26274557,right,1,0.3,0.2429,5,-0.002153655,0.2718,45,0,45,0,1,,,,,,,,,,
,,706995,001,2023-07-24_12h02.54.851,arm3_eps,2022.2.5,Win32,60.26274557,right,1,0.3,0.2429,5,-0.006819452,0.2674,46,0,46,0,1,,,,,,,,,,
,,706995,001,2023-07-24_12h02.54.851,arm3_eps,2022.2.5,Win32,60.26274557,right,1,0.3,0.2429,5,0.038098597,0.3337,47,0,47,0,1,,,,,,,,,,
,,706995,001,2023-07-24_12h02.54.851,arm3_eps,2022.2.5,Win32,60.26274557,right,1,0.3,0.2429,5,0.067384239,0.3433,48,0,48,0,1,,,,,,,,,,
,,706995,001,2023-07-24_12h02.54.851,arm3_eps,2022.2.5,Win32,60.26274557,up,1,0.3,0.2429,5,0.067384239,0.3694,49,0,49,0,1,,,,,,,,,,
space,9.6084,706995,001,2023-07-24_12h02.54.851,arm3_eps,2022.2.5,Win32,60.26274557,,,,,,,,,,,,,,,,,,,,,,
space,2.9644,706995,001,2023-07-24_12h02.54.851,arm3_eps,2022.2.5,Win32,60.26274557,right,1,0.3,0.1786,0,0.016219835,2.2435,,,,,,0,0,0,0,1,,,,,
,,706995,001,2023-07-24_12h02.54.851,arm3_eps,2022.2.5,Win32,60.26274557,right,1,0.3,0.1786,0,0.013773993,0.4331,,,,,,1,0,1,0,1,,,,,
,,706995,001,2023-07-24_12h02.54.851,arm3_eps,2022.2.5,Win32,60.26274557,right,1,0.3,0.1786,0,0.027582952,0.4168,,,,,,2,0,2,0,1,,,,,
,,706995,001,2023-07-24_12h02.54.851,arm3_eps,2022.2.5,Win32,60.26274557,up,1,0.3,0.1786,0,0,0.6672,,,,,,3,0,3,0,1,,,,,
,,706995,001,2023-07-24_12h02.54.851,arm3_eps,2022.2.5,Win32,60.26274557,right,1,0.3,0.1786,0,-0.009434741,0.628,,,,,,4,0,4,0,1,,,,,
,,706995,001,2023-07-24_12h02.54.851,arm3_eps,2022.2.5,Win32,60.26274557,right,1,0.3,0.1786,0,-0.008323389,0.4009,,,,,,5,0,5,0,1,,,,,
,,706995,001,2023-07-24_12h02.54.851,arm3_eps,2022.2.5,Win32,60.26274557,right,1,0.3,0.1786,0,0.013105391,0.3999,,,,,,6,0,6,0,1,,,,,
,,706995,001,2023-07-24_12h02.54.851,arm3_eps,2022.2.5,Win32,60.26274557,right,1,0.3,0.1786,0,0.017322679,0.5843,,,,,,7,0,7,0,1,,,,,
,,706995,001,2023-07-24_12h02.54.851,arm3_eps,2022.2.5,Win32,60.26274557,right,1,0.3,0.1786,0,0.018574901,0.4537,,,,,,8,0,8,0,1,,,,,
,,706995,001,2023-07-24_12h02.54.851,arm3_eps,2022.2.5,Win32,60.26274557,up,1,0.3,0.1786,0,0,0.3982,,,,,,9,0,9,0,1,,,,,
,,706995,001,2023-07-24_12h02.54.851,arm3_eps,2022.2.5,Win32,60.26274557,right,1,0.3,0.1786,0,0.02374904,0.4013,,,,,,10,0,10,0,1,,,,,
,,706995,001,2023-07-24_12h02.54.851,arm3_eps,2022.2.5,Win32,60.26274557,right,1,0.3,0.1786,0,0.034927297,0.234,,,,,,11,0,11,0,1,,,,,
,,706995,001,2023-07-24_12h02.54.851,arm3_eps,2022.2.5,Win32,60.26274557,right,1,0.3,0.1786,0,0.049433203,0.2342,,,,,,12,0,12,0,1,,,,,
,,706995,001,2023-07-24_12h02.54.851,arm3_eps,2022.2.5,Win32,60.26274557,up,1,0.3,0.1786,1,0,0.3677,,,,,,13,0,13,0,1,,,,,
,,706995,001,2023-07-24_12h02.54.851,arm3_eps,2022.2.5,Win32,60.26274557,right,1,0.3,0.1786,1,0.043719093,0.3115,,,,,,14,0,14,0,1,,,,,
,,706995,001,2023-07-24_12h02.54.851,arm3_eps,2022.2.5,Win32,60.26274557,right,1,0.3,0.1786,1,0.055762213,0.2554,,,,,,15,0,15,0,1,,,,,
,,706995,001,2023-07-24_12h02.54.851,arm3_eps,2022.2.5,Win32,60.26274557,right,1,0.3,0.1786,1,0.086217826,0.2145,,,,,,16,0,16,0,1,,,,,
,,706995,001,2023-07-24_12h02.54.851,arm3_eps,2022.2.5,Win32,60.26274557,up,1,0.3,0.1786,1,0,0.5171,,,,,,17,0,17,0,1,,,,,
,,706995,001,2023-07-24_12h02.54.851,arm3_eps,2022.2.5,Win32,60.26274557,right,1,0.3,0.1786,1,0.00678935,0.3598,,,,,,18,0,18,0,1,,,,,
,,706995,001,2023-07-24_12h02.54.851,arm3_eps,2022.2.5,Win32,60.26274557,right,1,0.3,0.1786,1,-0.003089244,0.212,,,,,,19,0,19,0,1,,,,,
,,706995,001,2023-07-24_12h02.54.851,arm3_eps,2022.2.5,Win32,60.26274557,right,1,0.3,0.1786,1,0.000502903,0.2085,,,,,,20,0,20,0,1,,,,,
,,706995,001,2023-07-24_12h02.54.851,arm3_eps,2022.2.5,Win32,60.26274557,right,1,0.3,0.1786,1,0.017402806,0.2414,,,,,,21,0,21,0,1,,,,,
,,706995,001,2023-07-24_12h02.54.851,arm3_eps,2022.2.5,Win32,60.26274557,right,1,0.3,0.1786,1,0.028219266,0.2931,,,,,,22,0,22,0,1,,,,,
,,706995,001,2023-07-24_12h02.54.851,arm3_eps,2022.2.5,Win32,60.26274557,up,1,0.3,0.1786,1,0,0.2617,,,,,,23,0,23,0,1,,,,,
,,706995,001,2023-07-24_12h02.54.851,arm3_eps,2022.2.5,Win32,60.26274557,right,1,0.3,0.1786,1,0.002067077,0.4837,,,,,,24,0,24,0,1,,,,,
,,706995,001,2023-07-24_12h02.54.851,arm3_eps,2022.2.5,Win32,60.26274557,right,1,0.3,0.1786,1,-0.019304808,0.2123,,,,,,25,0,25,0,1,,,,,
,,706995,001,2023-07-24_12h02.54.851,arm3_eps,2022.2.5,Win32,60.26274557,right,1,0.3,0.1786,1,-0.015604733,0.2158,,,,,,26,0,26,0,1,,,,,
,,706995,001,2023-07-24_12h02.54.851,arm3_eps,2022.2.5,Win32,60.26274557,right,1,0.3,0.1786,1,-0.007033194,0.2106,,,,,,27,0,27,0,1,,,,,
,,706995,001,2023-07-24_12h02.54.851,arm3_eps,2022.2.5,Win32,60.26274557,right,1,0.3,0.1786,1,0.008243434,0.2412,,,,,,28,0,28,0,1,,,,,
,,706995,001,2023-07-24_12h02.54.851,arm3_eps,2022.2.5,Win32,60.26274557,right,1,0.3,0.1786,1,-0.004202736,0.3301,,,,,,29,0,29,0,1,,,,,
,,706995,001,2023-07-24_12h02.54.851,arm3_eps,2022.2.5,Win32,60.26274557,right,1,0.3,0.1786,1,0.002504357,0.3762,,,,,,30,0,30,0,1,,,,,
,,706995,001,2023-07-24_12h02.54.851,arm3_eps,2022.2.5,Win32,60.26274557,right,1,0.3,0.1786,1,0.031714629,0.396,,,,,,31,0,31,0,1,,,,,
,,706995,001,2023-07-24_12h02.54.851,arm3_eps,2022.2.5,Win32,60.26274557,right,1,0.3,0.1786,1,0.035997403,0.4767,,,,,,32,0,32,0,1,,,,,
,,706995,001,2023-07-24_12h02.54.851,arm3_eps,2022.2.5,Win32,60.26274557,up,1,0.3,0.1786,1,0,0.3247,,,,,,33,0,33,0,1,,,,,
,,706995,001,2023-07-24_12h02.54.851,arm3_eps,2022.2.5,Win32,60.26274557,right,1,0.3,0.1786,1,0.003738077,0.5162,,,,,,34,0,34,0,1,,,,,
,,706995,001,2023-07-24_12h02.54.851,arm3_eps,2022.2.5,Win32,60.26274557,right,1,0.3,0.1786,1,0.003088861,0.214,,,,,,35,0,35,0,1,,,,,
,,706995,001,2023-07-24_12h02.54.851,arm3_eps,2022.2.5,Win32,60.26274557,right,1,0.3,0.1786,1,0.006325801,0.1568,,,,,,36,0,36,0,1,,,,,
,,706995,001,2023-07-24_12h02.54.851,arm3_eps,2022.2.5,Win32,60.26274557,right,1,0.3,0.1786,1,-0.001384439,0.1622,,,,,,37,0,37,0,1,,,,,
,,706995,001,2023-07-24_12h02.54.851,arm3_eps,2022.2.5,Win32,60.26274557,right,1,0.3,0.1786,1,0.005076806,0.194,,,,,,38,0,38,0,1,,,,,
,,706995,001,2023-07-24_12h02.54.851,arm3_eps,2022.2.5,Win32,60.26274557,right,1,0.3,0.1786,1,0.02651944,0.1939,,,,,,39,0,39,0,1,,,,,
,,706995,001,2023-07-24_12h02.54.851,arm3_eps,2022.2.5,Win32,60.26274557,right,1,0.3,0.1786,1,0.022446091,0.2236,,,,,,40,0,40,0,1,,,,,
,,706995,001,2023-07-24_12h02.54.851,arm3_eps,2022.2.5,Win32,60.26274557,right,1,0.3,0.1786,1,0.030904701,0.2305,,,,,,41,0,41,0,1,,,,,
,,706995,001,2023-07-24_12h02.54.851,arm3_eps,2022.2.5,Win32,60.26274557,up,-1,0.3,0.1786,1,0,0.5598,,,,,,42,0,42,0,1,,,,,
,,706995,001,2023-07-24_12h02.54.851,arm3_eps,2022.2.5,Win32,60.26274557,right,-1,0.3,0.1786,1,-0.013974383,0.3694,,,,,,43,0,43,0,1,,,,,
,,706995,001,2023-07-24_12h02.54.851,arm3_eps,2022.2.5,Win32,60.26274557,right,-1,0.3,0.1786,1,-0.033661784,0.2751,,,,,,44,0,44,0,1,,,,,
,,706995,001,2023-07-24_12h02.54.851,arm3_eps,2022.2.5,Win32,60.26274557,right,-1,0.3,0.1786,1,-0.069964226,0.152,,,,,,45,0,45,0,1,,,,,
,,706995,001,2023-07-24_12h02.54.851,arm3_eps,2022.2.5,Win32,60.26274557,down,-1,0.3,0.1786,2,0,0.558,,,,,,46,0,46,0,1,,,,,
,,706995,001,2023-07-24_12h02.54.851,arm3_eps,2022.2.5,Win32,60.26274557,right,-1,0.3,0.1786,2,0.00407767,0.7819,,,,,,47,0,47,0,1,,,,,
,,706995,001,2023-07-24_12h02.54.851,arm3_eps,2022.2.5,Win32,60.26274557,right,-1,0.3,0.1786,2,-0.004015875,0.2172,,,,,,48,0,48,0,1,,,,,
,,706995,001,2023-07-24_12h02.54.851,arm3_eps,2022.2.5,Win32,60.26274557,right,-1,0.3,0.1786,2,-0.020271589,0.1912,,,,,,49,0,49,0,1,,,,,
,,706995,001,2023-07-24_12h02.54.851,arm3_eps,2022.2.5,Win32,60.26274557,right,-1,0.3,0.1786,2,-0.022877088,0.1844,,,,,,50,0,50,0,1,,,,,
,,706995,001,2023-07-24_12h02.54.851,arm3_eps,2022.2.5,Win32,60.26274557,right,-1,0.3,0.1786,2,-0.024567932,0.2175,,,,,,51,0,51,0,1,,,,,
,,706995,001,2023-07-24_12h02.54.851,arm3_eps,2022.2.5,Win32,60.26274557,right,-1,0.3,0.1786,2,-0.023634581,0.2146,,,,,,52,0,52,0,1,,,,,
,,706995,001,2023-07-24_12h02.54.851,arm3_eps,2022.2.5,Win32,60.26274557,right,-1,0.3,0.1786,2,-0.008904746,0.4696,,,,,,53,0,53,0,1,,,,,
,,706995,001,2023-07-24_12h02.54.851,arm3_eps,2022.2.5,Win32,60.26274557,right,-1,0.3,0.1786,2,-0.008579379,0.417,,,,,,54,0,54,0,1,,,,,
,,706995,001,2023-07-24_12h02.54.851,arm3_eps,2022.2.5,Win32,60.26274557,right,-1,0.3,0.1786,2,-0.006520403,0.454,,,,,,55,0,55,0,1,,,,,
,,706995,001,2023-07-24_12h02.54.851,arm3_eps,2022.2.5,Win32,60.26274557,right,-1,0.3,0.1786,2,-0.027775276,0.4474,,,,,,56,0,56,0,1,,,,,
,,706995,001,2023-07-24_12h02.54.851,arm3_eps,2022.2.5,Win32,60.26274557,down,-1,0.3,0.1786,2,0,0.3838,,,,,,57,0,57,0,1,,,,,
,,706995,001,2023-07-24_12h02.54.851,arm3_eps,2022.2.5,Win32,60.26274557,right,-1,0.3,0.1786,2,0.005484165,0.4196,,,,,,58,0,58,0,1,,,,,
,,706995,001,2023-07-24_12h02.54.851,arm3_eps,2022.2.5,Win32,60.26274557,right,-1,0.3,0.1786,2,0.028559401,0.1776,,,,,,59,0,59,0,1,,,,,
,,706995,001,2023-07-24_12h02.54.851,arm3_eps,2022.2.5,Win32,60.26274557,right,-1,0.3,0.1786,2,0.024892118,0.2549,,,,,,60,0,60,0,1,,,,,
,,706995,001,2023-07-24_12h02.54.851,arm3_eps,2022.2.5,Win32,60.26274557,right,-1,0.3,0.1786,2,0.002455894,0.2663,,,,,,61,0,61,0,1,,,,,
,,706995,001,2023-07-24_12h02.54.851,arm3_eps,2022.2.5,Win32,60.26274557,right,-1,0.3,0.1786,2,-0.011625181,0.2905,,,,,,62,0,62,0,1,,,,,
,,706995,001,2023-07-24_12h02.54.851,arm3_eps,2022.2.5,Win32,60.26274557,right,-1,0.3,0.1786,2,0.003483698,0.2606,,,,,,63,0,63,0,1,,,,,
,,706995,001,2023-07-24_12h02.54.851,arm3_eps,2022.2.5,Win32,60.26274557,right,-1,0.3,0.1786,2,-0.014674411,0.3287,,,,,,64,0,64,0,1,,,,,
,,706995,001,2023-07-24_12h02.54.851,arm3_eps,2022.2.5,Win32,60.26274557,right,-1,0.3,0.1786,2,-0.01565292,0.3247,,,,,,65,0,65,0,1,,,,,
,,706995,001,2023-07-24_12h02.54.851,arm3_eps,2022.2.5,Win32,60.26274557,right,-1,0.3,0.1786,2,-0.027485528,0.6771,,,,,,66,0,66,0,1,,,,,
,,706995,001,2023-07-24_12h02.54.851,arm3_eps,2022.2.5,Win32,60.26274557,down,-1,0.3,0.1786,2,0,0.1602,,,,,,67,0,67,0,1,,,,,
,,706995,001,2023-07-24_12h02.54.851,arm3_eps,2022.2.5,Win32,60.26274557,right,-1,0.3,0.1786,2,-0.004097142,0.456,,,,,,68,0,68,0,1,,,,,
,,706995,001,2023-07-24_12h02.54.851,arm3_eps,2022.2.5,Win32,60.26274557,right,-1,0.3,0.1786,2,-0.024423331,0.2133,,,,,,69,0,69,0,1,,,,,
,,706995,001,2023-07-24_12h02.54.851,arm3_eps,2022.2.5,Win32,60.26274557,right,-1,0.3,0.1786,2,-0.04519812,0.1634,,,,,,70,0,70,0,1,,,,,
,,706995,001,2023-07-24_12h02.54.851,arm3_eps,2022.2.5,Win32,60.26274557,right,-1,0.3,0.1786,2,-0.056713199,0.1921,,,,,,71,0,71,0,1,,,,,
,,706995,001,2023-07-24_12h02.54.851,arm3_eps,2022.2.5,Win32,60.26274557,down,-1,0.3,0.1786,2,0,0.194,,,,,,72,0,72,0,1,,,,,
,,706995,001,2023-07-24_12h02.54.851,arm3_eps,2022.2.5,Win32,60.26274557,right,-1,0.3,0.1786,2,-0.016867621,0.4543,,,,,,73,0,73,0,1,,,,,
,,706995,001,2023-07-24_12h02.54.851,arm3_eps,2022.2.5,Win32,60.26274557,right,-1,0.3,0.1786,2,-0.050062094,0.2989,,,,,,74,0,74,0,1,,,,,
,,706995,001,2023-07-24_12h02.54.851,arm3_eps,2022.2.5,Win32,60.26274557,right,-1,0.3,0.1786,2,-0.081048028,0.2772,,,,,,75,0,75,0,1,,,,,
,,706995,001,2023-07-24_12h02.54.851,arm3_eps,2022.2.5,Win32,60.26274557,down,-1,0.3,0.1786,3,0,0.4083,,,,,,76,0,76,0,1,,,,,
,,706995,001,2023-07-24_12h02.54.851,arm3_eps,2022.2.5,Win32,60.26274557,right,-1,0.3,0.1786,3,0.014707999,0.372,,,,,,77,0,77,0,1,,,,,
,,706995,001,2023-07-24_12h02.54.851,arm3_eps,2022.2.5,Win32,60.26274557,right,-1,0.3,0.1786,3,0.036888833,0.3412,,,,,,78,0,78,0,1,,,,,
,,706995,001,2023-07-24_12h02.54.851,arm3_eps,2022.2.5,Win32,60.26274557,right,-1,0.3,0.1786,3,0.015764001,0.2755,,,,,,79,0,79,0,1,,,,,
,,706995,001,2023-07-24_12h02.54.851,arm3_eps,2022.2.5,Win32,60.26274557,right,-1,0.3,0.1786,3,0.008902047,0.2011,,,,,,80,0,80,0,1,,,,,
,,706995,001,2023-07-24_12h02.54.851,arm3_eps,2022.2.5,Win32,60.26274557,right,-1,0.3,0.1786,3,0.018873561,0.3492,,,,,,81,0,81,0,1,,,,,
,,706995,001,2023-07-24_12h02.54.851,arm3_eps,2022.2.5,Win32,60.26274557,right,-1,0.3,0.1786,3,0.00881991,0.3668,,,,,,82,0,82,0,1,,,,,
,,706995,001,2023-07-24_12h02.54.851,arm3_eps,2022.2.5,Win32,60.26274557,right,-1,0.3,0.1786,3,-0.008699623,0.3319,,,,,,83,0,83,0,1,,,,,
,,706995,001,2023-07-24_12h02.54.851,arm3_eps,2022.2.5,Win32,60.26274557,right,-1,0.3,0.1786,3,-0.028860428,0.2816,,,,,,84,0,84,0,1,,,,,
,,706995,001,2023-07-24_12h02.54.851,arm3_eps,2022.2.5,Win32,60.26274557,right,-1,0.3,0.1786,3,-0.016679567,0.4504,,,,,,85,0,85,0,1,,,,,
,,706995,001,2023-07-24_12h02.54.851,arm3_eps,2022.2.5,Win32,60.26274557,down,-1,0.3,0.1786,4,0,0.8662,,,,,,86,0,86,0,1,,,,,
,,706995,001,2023-07-24_12h02.54.851,arm3_eps,2022.2.5,Win32,60.26274557,right,-1,0.3,0.1786,4,0.020797028,0.4555,,,,,,87,0,87,0,1,,,,,
,,706995,001,2023-07-24_12h02.54.851,arm3_eps,2022.2.5,Win32,60.26274557,right,-1,0.3,0.1786,4,0.001504509,0.2169,,,,,,88,0,88,0,1,,,,,
,,706995,001,2023-07-24_12h02.54.851,arm3_eps,2022.2.5,Win32,60.26274557,right,-1,0.3,0.1786,4,-0.02590874,0.2227,,,,,,89,0,89,0,1,,,,,
,,706995,001,2023-07-24_12h02.54.851,arm3_eps,2022.2.5,Win32,60.26274557,right,-1,0.3,0.1786,4,-0.022450908,0.3992,,,,,,90,0,90,0,1,,,,,
,,706995,001,2023-07-24_12h02.54.851,arm3_eps,2022.2.5,Win32,60.26274557,right,-1,0.3,0.1786,4,-0.016519816,0.4502,,,,,,91,0,91,0,1,,,,,
,,706995,001,2023-07-24_12h02.54.851,arm3_eps,2022.2.5,Win32,60.26274557,right,-1,0.3,0.1786,4,-0.007704105,0.4091,,,,,,92,0,92,0,1,,,,,
,,706995,001,2023-07-24_12h02.54.851,arm3_eps,2022.2.5,Win32,60.26274557,right,-1,0.3,0.1786,4,-0.019491854,0.4077,,,,,,93,0,93,0,1,,,,,
,,706995,001,2023-07-24_12h02.54.851,arm3_eps,2022.2.5,Win32,60.26274557,right,-1,0.3,0.1786,4,-0.042746783,0.3815,,,,,,94,0,94,0,1,,,,,
,,706995,001,2023-07-24_12h02.54.851,arm3_eps,2022.2.5,Win32,60.26274557,right,-1,0.3,0.1786,4,-0.017330856,0.6497,,,,,,95,0,95,0,1,,,,,
,,706995,001,2023-07-24_12h02.54.851,arm3_eps,2022.2.5,Win32,60.26274557,down,1,0.3,0.1786,5,0,0.5706,,,,,,96,0,96,0,1,,,,,
,,706995,001,2023-07-24_12h02.54.851,arm3_eps,2022.2.5,Win32,60.26274557,right,1,0.3,0.1786,5,0.029050702,0.4006,,,,,,97,0,97,0,1,,,,,
,,706995,001,2023-07-24_12h02.54.851,arm3_eps,2022.2.5,Win32,60.26274557,right,1,0.3,0.1786,5,0.026855113,0.1888,,,,,,98,0,98,0,1,,,,,
,,706995,001,2023-07-24_12h02.54.851,arm3_eps,2022.2.5,Win32,60.26274557,right,1,0.3,0.1786,5,0.032602205,0.2503,,,,,,99,0,99,0,1,,,,,
,,706995,001,2023-07-24_12h02.54.851,arm3_eps,2022.2.5,Win32,60.26274557,right,1,0.3,0.1786,5,0.043757988,0.319,,,,,,100,0,100,0,1,,,,,
,,706995,001,2023-07-24_12h02.54.851,arm3_eps,2022.2.5,Win32,60.26274557,right,1,0.3,0.1786,5,0.065533775,0.3501,,,,,,101,0,101,0,1,,,,,
,,706995,001,2023-07-24_12h02.54.851,arm3_eps,2022.2.5,Win32,60.26274557,up,1,0.3,0.1786,5,0,0.3503,,,,,,102,0,102,0,1,,,,,
,,706995,001,2023-07-24_12h02.54.851,arm3_eps,2022.2.5,Win32,60.26274557,right,1,0.3,0.1786,5,-0.012785114,0.3502,,,,,,103,0,103,0,1,,,,,
,,706995,001,2023-07-24_12h02.54.851,arm3_eps,2022.2.5,Win32,60.26274557,right,1,0.3,0.1786,5,-0.028117473,0.3227,,,,,,104,0,104,0,1,,,,,
,,706995,001,2023-07-24_12h02.54.851,arm3_eps,2022.2.5,Win32,60.26274557,right,1,0.3,0.1786,5,-0.00636517,0.3346,,,,,,105,0,105,0,1,,,,,
,,706995,001,2023-07-24_12h02.54.851,arm3_eps,2022.2.5,Win32,60.26274557,right,1,0.3,0.1786,5,0.014117102,0.2996,,,,,,106,0,106,0,1,,,,,
,,706995,001,2023-07-24_12h02.54.851,arm3_eps,2022.2.5,Win32,60.26274557,right,1,0.3,0.1786,5,0.011565144,0.318,,,,,,107,0,107,0,1,,,,,
,,706995,001,2023-07-24_12h02.54.851,arm3_eps,2022.2.5,Win32,60.26274557,right,1,0.3,0.1786,5,-0.003638221,0.3608,,,,,,108,0,108,0,1,,,,,
,,706995,001,2023-07-24_12h02.54.851,arm3_eps,2022.2.5,Win32,60.26274557,right,1,0.3,0.1786,5,0.001821041,0.3233,,,,,,109,0,109,0,1,,,,,
,,706995,001,2023-07-24_12h02.54.851,arm3_eps,2022.2.5,Win32,60.26274557,right,1,0.3,0.1786,5,0.02168504,0.4098,,,,,,110,0,110,0,1,,,,,
,,706995,001,2023-07-24_12h02.54.851,arm3_eps,2022.2.5,Win32,60.26274557,right,1,0.3,0.1786,5,0.015937534,0.4244,,,,,,111,0,111,0,1,,,,,
,,706995,001,2023-07-24_12h02.54.851,arm3_eps,2022.2.5,Win32,60.26274557,up,1,0.3,0.1786,5,0,0.6617,,,,,,112,0,112,0,1,,,,,
,,706995,001,2023-07-24_12h02.54.851,arm3_eps,2022.2.5,Win32,60.26274557,right,1,0.3,0.1786,5,0.010067694,0.4167,,,,,,113,0,113,0,1,,,,,
,,706995,001,2023-07-24_12h02.54.851,arm3_eps,2022.2.5,Win32,60.26274557,right,1,0.3,0.1786,5,0.024548095,0.218,,,,,,114,0,114,0,1,,,,,
,,706995,001,2023-07-24_12h02.54.851,arm3_eps,2022.2.5,Win32,60.26274557,right,1,0.3,0.1786,5,0.035198678,0.1838,,,,,,115,0,115,0,1,,,,,
,,706995,001,2023-07-24_12h02.54.851,arm3_eps,2022.2.5,Win32,60.26274557,right,1,0.3,0.1786,5,0.019342649,0.2171,,,,,,116,0,116,0,1,,,,,
,,706995,001,2023-07-24_12h02.54.851,arm3_eps,2022.2.5,Win32,60.26274557,right,1,0.3,0.1786,5,0.026736413,0.2176,,,,,,117,0,117,0,1,,,,,
,,706995,001,2023-07-24_12h02.54.851,arm3_eps,2022.2.5,Win32,60.26274557,right,1,0.3,0.1786,5,0.063578972,0.2329,,,,,,118,0,118,0,1,,,,,
,,706995,001,2023-07-24_12h02.54.851,arm3_eps,2022.2.5,Win32,60.26274557,up,1,0.3,0.1786,5,0,0.2176,,,,,,119,0,119,0,1,,,,,
,,706995,001,2023-07-24_12h02.54.851,arm3_eps,2022.2.5,Win32,60.26274557,right,1,0.3,0.1786,5,0.000208901,0.285,,,,,,120,0,120,0,1,,,,,
,,706995,001,2023-07-24_12h02.54.851,arm3_eps,2022.2.5,Win32,60.26274557,right,1,0.3,0.1786,5,-0.003660099,0.1839,,,,,,121,0,121,0,1,,,,,
,,706995,001,2023-07-24_12h02.54.851,arm3_eps,2022.2.5,Win32,60.26274557,right,1,0.3,0.1786,5,-0.013028704,0.1841,,,,,,122,0,122,0,1,,,,,
,,706995,001,2023-07-24_12h02.54.851,arm3_eps,2022.2.5,Win32,60.26274557,right,1,0.3,0.1786,5,-0.008180765,0.2036,,,,,,123,0,123,0,1,,,,,
,,706995,001,2023-07-24_12h02.54.851,arm3_eps,2022.2.5,Win32,60.26274557,right,1,0.3,0.1786,5,0.0313954,0.1974,,,,,,124,0,124,0,1,,,,,
,,706995,001,2023-07-24_12h02.54.851,arm3_eps,2022.2.5,Win32,60.26274557,right,1,0.3,0.1786,5,0.040787043,0.2336,,,,,,125,0,125,0,1,,,,,
,,706995,001,2023-07-24_12h02.54.851,arm3_eps,2022.2.5,Win32,60.26274557,up,1,0.3,0.1786,5,0,0.3173,,,,,,126,0,126,0,1,,,,,
,,706995,001,2023-07-24_12h02.54.851,arm3_eps,2022.2.5,Win32,60.26274557,right,1,0.3,0.1786,5,-0.014780601,0.4004,,,,,,127,0,127,0,1,,,,,
,,706995,001,2023-07-24_12h02.54.851,arm3_eps,2022.2.5,Win32,60.26274557,right,1,0.3,0.1786,5,0.001366373,0.234,,,,,,128,0,128,0,1,,,,,
,,706995,001,2023-07-24_12h02.54.851,arm3_eps,2022.2.5,Win32,60.26274557,right,1,0.3,0.1786,5,0.0278593,0.1646,,,,,,129,0,129,0,1,,,,,
,,706995,001,2023-07-24_12h02.54.851,arm3_eps,2022.2.5,Win32,60.26274557,right,1,0.3,0.1786,5,0.050578274,0.1837,,,,,,130,0,130,0,1,,,,,
,,706995,001,2023-07-24_12h02.54.851,arm3_eps,2022.2.5,Win32,60.26274557,right,1,0.3,0.1786,5,0.040962509,0.2502,,,,,,131,0,131,0,1,,,,,
,,706995,001,2023-07-24_12h02.54.851,arm3_eps,2022.2.5,Win32,60.26274557,right,1,0.3,0.1786,5,0.029403178,0.4156,,,,,,132,0,132,0,1,,,,,
,,706995,001,2023-07-24_12h02.54.851,arm3_eps,2022.2.5,Win32,60.26274557,right,1,0.3,0.1786,5,0.024176972,0.3674,,,,,,133,0,133,0,1,,,,,
,,706995,001,2023-07-24_12h02.54.851,arm3_eps,2022.2.5,Win32,60.26274557,right,1,0.3,0.1786,5,0.006963847,0.449,,,,,,134,0,134,0,1,,,,,
,,706995,001,2023-07-24_12h02.54.851,arm3_eps,2022.2.5,Win32,60.26274557,right,1,0.3,0.1786,5,0.060234453,0.3766,,,,,,135,0,135,0,1,,,,,
,,706995,001,2023-07-24_12h02.54.851,arm3_eps,2022.2.5,Win32,60.26274557,up,-1,0.3,0.1786,5,0,0.5007,,,,,,136,0,136,0,1,,,,,
,,706995,001,2023-07-24_12h02.54.851,arm3_eps,2022.2.5,Win32,60.26274557,right,-1,0.3,0.1786,5,-0.023888247,0.3533,,,,,,137,0,137,0,1,,,,,
,,706995,001,2023-07-24_12h02.54.851,arm3_eps,2022.2.5,Win32,60.26274557,right,-1,0.3,0.1786,5,-0.040253837,0.2556,,,,,,138,0,138,0,1,,,,,
,,706995,001,2023-07-24_12h02.54.851,arm3_eps,2022.2.5,Win32,60.26274557,right,-1,0.3,0.1786,5,-0.035880222,0.2715,,,,,,139,0,139,0,1,,,,,
,,706995,001,2023-07-24_12h02.54.851,arm3_eps,2022.2.5,Win32,60.26274557,right,-1,0.3,0.1786,5,-0.030811585,0.2344,,,,,,140,0,140,0,1,,,,,
,,706995,001,2023-07-24_12h02.54.851,arm3_eps,2022.2.5,Win32,60.26274557,right,-1,0.3,0.1786,5,-0.027964608,0.331,,,,,,141,0,141,0,1,,,,,
,,706995,001,2023-07-24_12h02.54.851,arm3_eps,2022.2.5,Win32,60.26274557,right,-1,0.3,0.1786,5,-0.044342481,0.3171,,,,,,142,0,142,0,1,,,,,
,,706995,001,2023-07-24_12h02.54.851,arm3_eps,2022.2.5,Win32,60.26274557,down,-1,0.3,0.1786,6,0,0.5655,,,,,,143,0,143,0,1,,,,,
,,706995,001,2023-07-24_12h02.54.851,arm3_eps,2022.2.5,Win32,60.26274557,right,-1,0.3,0.1786,6,-0.015001206,0.3653,,,,,,144,0,144,0,1,,,,,
,,706995,001,2023-07-24_12h02.54.851,arm3_eps,2022.2.5,Win32,60.26274557,right,-1,0.3,0.1786,6,-0.019364956,0.2345,,,,,,145,0,145,0,1,,,,,
,,706995,001,2023-07-24_12h02.54.851,arm3_eps,2022.2.5,Win32,60.26274557,right,-1,0.3,0.1786,6,-0.044721618,0.2267,,,,,,146,0,146,0,1,,,,,
,,706995,001,2023-07-24_12h02.54.851,arm3_eps,2022.2.5,Win32,60.26274557,right,-1,0.3,0.1786,6,-0.033006095,0.2073,,,,,,147,0,147,0,1,,,,,
,,706995,001,2023-07-24_12h02.54.851,arm3_eps,2022.2.5,Win32,60.26274557,right,-1,0.3,0.1786,6,0.01865183,0.4845,,,,,,148,0,148,0,1,,,,,
,,706995,001,2023-07-24_12h02.54.851,arm3_eps,2022.2.5,Win32,60.26274557,right,-1,0.3,0.1786,6,0.042211034,0.4551,,,,,,149,0,149,0,1,,,,,
,,706995,001,2023-07-24_12h02.54.851,arm3_eps,2022.2.5,Win32,60.26274557,right,-1,0.3,0.1786,6,0.008908896,0.5504,,,,,,150,0,150,0,1,,,,,
,,706995,001,2023-07-24_12h02.54.851,arm3_eps,2022.2.5,Win32,60.26274557,right,-1,0.3,0.1786,6,0.019901538,0.4845,,,,,,151,0,151,0,1,,,,,
,,706995,001,2023-07-24_12h02.54.851,arm3_eps,2022.2.5,Win32,60.26274557,right,-1,0.3,0.1786,6,-0.006863329,0.5963,,,,,,152,0,152,0,1,,,,,
,,706995,001,2023-07-24_12h02.54.851,arm3_eps,2022.2.5,Win32,60.26274557,right,-1,0.3,0.1786,6,0.001612421,0.5339,,,,,,153,0,153,0,1,,,,,
,,706995,001,2023-07-24_12h02.54.851,arm3_eps,2022.2.5,Win32,60.26274557,right,-1,0.3,0.1786,6,-0.00602826,0.5673,,,,,,154,0,154,0,1,,,,,
,,706995,001,2023-07-24_12h02.54.851,arm3_eps,2022.2.5,Win32,60.26274557,up,-1,0.3,0.1786,6,0,1.1818,,,,,,155,0,155,0,1,,,,,
,,706995,001,2023-07-24_12h02.54.851,arm3_eps,2022.2.5,Win32,60.26274557,right,-1,0.3,0.1786,6,-0.021245748,0.4334,,,,,,156,0,156,0,1,,,,,
,,706995,001,2023-07-24_12h02.54.851,arm3_eps,2022.2.5,Win32,60.26274557,right,-1,0.3,0.1786,6,-0.035755903,0.425,,,,,,157,0,157,0,1,,,,,
,,706995,001,2023-07-24_12h02.54.851,arm3_eps,2022.2.5,Win32,60.26274557,down,-1,0.3,0.1786,6,0,0.5094,,,,,,158,0,158,0,1,,,,,
,,706995,001,2023-07-24_12h02.54.851,arm3_eps,2022.2.5,Win32,60.26274557,right,-1,0.3,0.1786,6,0.029750959,0.405,,,,,,159,0,159,0,1,,,,,
,,706995,001,2023-07-24_12h02.54.851,arm3_eps,2022.2.5,Win32,60.26274557,right,-1,0.3,0.1786,6,0.030269418,0.2931,,,,,,160,0,160,0,1,,,,,
,,706995,001,2023-07-24_12h02.54.851,arm3_eps,2022.2.5,Win32,60.26274557,right,-1,0.3,0.1786,6,0.014048182,0.3269,,,,,,161,0,161,0,1,,,,,
,,706995,001,2023-07-24_12h02.54.851,arm3_eps,2022.2.5,Win32,60.26274557,right,-1,0.3,0.1786,6,0.02487809,0.4287,,,,,,162,0,162,0,1,,,,,
,,706995,001,2023-07-24_12h02.54.851,arm3_eps,2022.2.5,Win32,60.26274557,right,-1,0.3,0.1786,6,0.016798825,0.4145,,,,,,163,0,163,0,1,,,,,
,,706995,001,2023-07-24_12h02.54.851,arm3_eps,2022.2.5,Win32,60.26274557,right,-1,0.3,0.1786,6,0.002605931,0.2669,,,,,,164,0,164,0,1,,,,,
,,706995,001,2023-07-24_12h02.54.851,arm3_eps,2022.2.5,Win32,60.26274557,right,-1,0.3,0.1786,6,0.010113837,0.3011,,,,,,165,0,165,0,1,,,,,
,,706995,001,2023-07-24_12h02.54.851,arm3_eps,2022.2.5,Win32,60.26274557,right,-1,0.3,0.1786,6,-0.004635915,0.308,,,,,,166,0,166,0,1,,,,,
,,706995,001,2023-07-24_12h02.54.851,arm3_eps,2022.2.5,Win32,60.26274557,right,-1,0.3,0.1786,6,-0.015323544,0.3417,,,,,,167,0,167,0,1,,,,,
,,706995,001,2023-07-24_12h02.54.851,arm3_eps,2022.2.5,Win32,60.26274557,down,-1,0.3,0.1786,6,0,0.5086,,,,,,168,0,168,0,1,,,,,
,,706995,001,2023-07-24_12h02.54.851,arm3_eps,2022.2.5,Win32,60.26274557,right,-1,0.3,0.1786,6,0.003647134,0.3073,,,,,,169,0,169,0,1,,,,,
,,706995,001,2023-07-24_12h02.54.851,arm3_eps,2022.2.5,Win32,60.26274557,right,-1,0.3,0.1786,6,-0.007122867,0.2437,,,,,,170,0,170,0,1,,,,,
,,706995,001,2023-07-24_12h02.54.851,arm3_eps,2022.2.5,Win32,60.26274557,right,-1,0.3,0.1786,6,0.00011189,0.2944,,,,,,171,0,171,0,1,,,,,
,,706995,001,2023-07-24_12h02.54.851,arm3_eps,2022.2.5,Win32,60.26274557,right,-1,0.3,0.1786,6,-0.013757117,0.2571,,,,,,172,0,172,0,1,,,,,
,,706995,001,2023-07-24_12h02.54.851,arm3_eps,2022.2.5,Win32,60.26274557,right,-1,0.3,0.1786,6,-0.026644286,0.2096,,,,,,173,0,173,0,1,,,,,
,,706995,001,2023-07-24_12h02.54.851,arm3_eps,2022.2.5,Win32,60.26274557,right,-1,0.3,0.1786,6,-0.053654286,0.2091,,,,,,174,0,174,0,1,,,,,
,,706995,001,2023-07-24_12h02.54.851,arm3_eps,2022.2.5,Win32,60.26274557,down,-1,0.3,0.1786,7,0,0.2809,,,,,,175,0,175,0,1,,,,,
,,706995,001,2023-07-24_12h02.54.851,arm3_eps,2022.2.5,Win32,60.26274557,right,-1,0.3,0.1786,7,-0.012868149,0.283,,,,,,176,0,176,0,1,,,,,
,,706995,001,2023-07-24_12h02.54.851,arm3_eps,2022.2.5,Win32,60.26274557,right,-1,0.3,0.1786,7,-0.023268322,0.2573,,,,,,177,0,177,0,1,,,,,
,,706995,001,2023-07-24_12h02.54.851,arm3_eps,2022.2.5,Win32,60.26274557,right,-1,0.3,0.1786,7,-0.050937828,0.1939,,,,,,178,0,178,0,1,,,,,
,,706995,001,2023-07-24_12h02.54.851,arm3_eps,2022.2.5,Win32,60.26274557,right,-1,0.3,0.1786,7,-0.040440628,0.2079,,,,,,179,0,179,0,1,,,,,
,,706995,001,2023-07-24_12h02.54.851,arm3_eps,2022.2.5,Win32,60.26274557,right,-1,0.3,0.1786,7,-0.054914465,0.344,,,,,,180,0,180,0,1,,,,,
,,706995,001,2023-07-24_12h02.54.851,arm3_eps,2022.2.5,Win32,60.26274557,down,-1,0.3,0.1786,8,0,0.3932,,,,,,181,0,181,0,1,,,,,
,,706995,001,2023-07-24_12h02.54.851,arm3_eps,2022.2.5,Win32,60.26274557,right,-1,0.3,0.1786,8,0.007688656,0.3407,,,,,,182,0,182,0,1,,,,,
,,706995,001,2023-07-24_12h02.54.851,arm3_eps,2022.2.5,Win32,60.26274557,right,-1,0.3,0.1786,8,-0.017488304,0.301,,,,,,183,0,183,0,1,,,,,
,,706995,001,2023-07-24_12h02.54.851,arm3_eps,2022.2.5,Win32,60.26274557,right,-1,0.3,0.1786,8,-0.0299283,0.2657,,,,,,184,0,184,0,1,,,,,
,,706995,001,2023-07-24_12h02.54.851,arm3_eps,2022.2.5,Win32,60.26274557,right,-1,0.3,0.1786,8,-0.030951042,0.1928,,,,,,185,0,185,0,1,,,,,
,,706995,001,2023-07-24_12h02.54.851,arm3_eps,2022.2.5,Win32,60.26274557,right,-1,0.3,0.1786,8,-0.037014081,0.3121,,,,,,186,0,186,0,1,,,,,
,,706995,001,2023-07-24_12h02.54.851,arm3_eps,2022.2.5,Win32,60.26274557,right,-1,0.3,0.1786,8,-0.026782466,0.3279,,,,,,187,0,187,0,1,,,,,
,,706995,001,2023-07-24_12h02.54.851,arm3_eps,2022.2.5,Win32,60.26274557,right,-1,0.3,0.1786,8,-0.081084697,0.4102,,,,,,188,0,188,0,1,,,,,
,,706995,001,2023-07-24_12h02.54.851,arm3_eps,2022.2.5,Win32,60.26274557,down,-1,0.3,0.1786,9,0,0.375,,,,,,189,0,189,0,1,,,,,
,,706995,001,2023-07-24_12h02.54.851,arm3_eps,2022.2.5,Win32,60.26274557,right,-1,0.3,0.1786,9,-0.002226653,0.3433,,,,,,190,0,190,0,1,,,,,
,,706995,001,2023-07-24_12h02.54.851,arm3_eps,2022.2.5,Win32,60.26274557,right,-1,0.3,0.1786,9,-0.017926423,0.2397,,,,,,191,0,191,0,1,,,,,
,,706995,001,2023-07-24_12h02.54.851,arm3_eps,2022.2.5,Win32,60.26274557,right,-1,0.3,0.1786,9,-0.025516267,0.2258,,,,,,192,0,192,0,1,,,,,
,,706995,001,2023-07-24_12h02.54.851,arm3_eps,2022.2.5,Win32,60.26274557,right,-1,0.3,0.1786,9,-0.042382079,0.2975,,,,,,193,0,193,0,1,,,,,
,,706995,001,2023-07-24_12h02.54.851,arm3_eps,2022.2.5,Win32,60.26274557,right,-1,0.3,0.1786,9,-0.032284358,0.327,,,,,,194,0,194,0,1,,,,,
,,706995,001,2023-07-24_12h02.54.851,arm3_eps,2022.2.5,Win32,60.26274557,right,-1,0.3,0.1786,9,-0.018619365,0.3594,,,,,,195,0,195,0,1,,,,,
,,706995,001,2023-07-24_12h02.54.851,arm3_eps,2022.2.5,Win32,60.26274557,right,-1,0.3,0.1786,9,0.011715217,0.4603,,,,,,196,0,196,0,1,,,,,
,,706995,001,2023-07-24_12h02.54.851,arm3_eps,2022.2.5,Win32,60.26274557,right,-1,0.3,0.1786,9,0.011668461,0.6259,,,,,,197,0,197,0,1,,,,,
,,706995,001,2023-07-24_12h02.54.851,arm3_eps,2022.2.5,Win32,60.26274557,right,-1,0.3,0.1786,9,0.017627919,0.5744,,,,,,198,0,198,0,1,,,,,
,,706995,001,2023-07-24_12h02.54.851,arm3_eps,2022.2.5,Win32,60.26274557,right,-1,0.3,0.1786,9,0.029608118,0.7974,,,,,,199,0,199,0,1,,,,,
,,706995,001,2023-07-24_12h02.54.851,arm3_eps,2022.2.5,Win32,60.26274557,right,-1,0.3,0.1786,9,-0.001736693,0.6257,,,,,,200,0,200,0,1,,,,,
,,706995,001,2023-07-24_12h02.54.851,arm3_eps,2022.2.5,Win32,60.26274557,down,-1,0.3,0.1786,9,0,1.2929,,,,,,201,0,201,0,1,,,,,
,,706995,001,2023-07-24_12h02.54.851,arm3_eps,2022.2.5,Win32,60.26274557,right,-1,0.3,0.1786,9,-0.027324179,0.5049,,,,,,202,0,202,0,1,,,,,
,,706995,001,2023-07-24_12h02.54.851,arm3_eps,2022.2.5,Win32,60.26274557,right,-1,0.3,0.1786,9,-0.021955535,0.4768,,,,,,203,0,203,0,1,,,,,
,,706995,001,2023-07-24_12h02.54.851,arm3_eps,2022.2.5,Win32,60.26274557,down,-1,0.3,0.1786,10,0,0.5428,,,,,,204,0,204,0,1,,,,,
,,706995,001,2023-07-24_12h02.54.851,arm3_eps,2022.2.5,Win32,60.26274557,right,-1,0.3,0.1786,10,-0.017759545,0.3365,,,,,,205,0,205,0,1,,,,,
,,706995,001,2023-07-24_12h02.54.851,arm3_eps,2022.2.5,Win32,60.26274557,right,-1,0.3,0.1786,10,-0.033242948,0.3845,,,,,,206,0,206,0,1,,,,,
,,706995,001,2023-07-24_12h02.54.851,arm3_eps,2022.2.5,Win32,60.26274557,down,-1,0.3,0.1786,10,0,0.4438,,,,,,207,0,207,0,1,,,,,
,,706995,001,2023-07-24_12h02.54.851,arm3_eps,2022.2.5,Win32,60.26274557,right,-1,0.3,0.1786,10,-0.011306586,0.3169,,,,,,208,0,208,0,1,,,,,
,,706995,001,2023-07-24_12h02.54.851,arm3_eps,2022.2.5,Win32,60.26274557,right,-1,0.3,0.1786,10,-0.002255804,0.4967,,,,,,209,0,209,0,1,,,,,
,,706995,001,2023-07-24_12h02.54.851,arm3_eps,2022.2.5,Win32,60.26274557,right,-1,0.3,0.1786,10,0.000830912,0.377,,,,,,210,0,210,0,1,,,,,
,,706995,001,2023-07-24_12h02.54.851,arm3_eps,2022.2.5,Win32,60.26274557,right,-1,0.3,0.1786,10,-0.0105729,0.3274,,,,,,211,0,211,0,1,,,,,
,,706995,001,2023-07-24_12h02.54.851,arm3_eps,2022.2.5,Win32,60.26274557,right,-1,0.3,0.1786,10,-0.040292696,0.308,,,,,,212,0,212,0,1,,,,,
,,706995,001,2023-07-24_12h02.54.851,arm3_eps,2022.2.5,Win32,60.26274557,down,-1,0.3,0.1786,10,0,0.4654,,,,,,213,0,213,0,1,,,,,
,,706995,001,2023-07-24_12h02.54.851,arm3_eps,2022.2.5,Win32,60.26274557,right,-1,0.3,0.1786,10,0.009966421,0.3431,,,,,,214,0,214,0,1,,,,,
,,706995,001,2023-07-24_12h02.54.851,arm3_eps,2022.2.5,Win32,60.26274557,right,-1,0.3,0.1786,10,-0.031581933,0.2256,,,,,,215,0,215,0,1,,,,,
,,706995,001,2023-07-24_12h02.54.851,arm3_eps,2022.2.5,Win32,60.26274557,right,-1,0.3,0.1786,10,-0.03634615,0.2162,,,,,,216,0,216,0,1,,,,,
,,706995,001,2023-07-24_12h02.54.851,arm3_eps,2022.2.5,Win32,60.26274557,down,-1,0.3,0.1786,10,0,0.4603,,,,,,217,0,217,0,1,,,,,
,,706995,001,2023-07-24_12h02.54.851,arm3_eps,2022.2.5,Win32,60.26274557,right,-1,0.3,0.1786,10,0.020505304,0.2758,,,,,,218,0,218,0,1,,,,,
,,706995,001,2023-07-24_12h02.54.851,arm3_eps,2022.2.5,Win32,60.26274557,right,-1,0.3,0.1786,10,0.021351275,0.3125,,,,,,219,0,219,0,1,,,,,
,,706995,001,2023-07-24_12h02.54.851,arm3_eps,2022.2.5,Win32,60.26274557,right,-1,0.3,0.1786,10,0.015845743,0.263,,,,,,220,0,220,0,1,,,,,
,,706995,001,2023-07-24_12h02.54.851,arm3_eps,2022.2.5,Win32,60.26274557,right,-1,0.3,0.1786,10,0.007242006,0.1954,,,,,,221,0,221,0,1,,,,,
,,706995,001,2023-07-24_12h02.54.851,arm3_eps,2022.2.5,Win32,60.26274557,right,-1,0.3,0.1786,10,0.004827312,0.2474,,,,,,222,0,222,0,1,,,,,
,,706995,001,2023-07-24_12h02.54.851,arm3_eps,2022.2.5,Win32,60.26274557,right,-1,0.3,0.1786,10,-0.019339045,0.2706,,,,,,223,0,223,0,1,,,,,
,,706995,001,2023-07-24_12h02.54.851,arm3_eps,2022.2.5,Win32,60.26274557,right,-1,0.3,0.1786,10,-0.023581787,0.3284,,,,,,224,0,224,0,1,,,,,
,,706995,001,2023-07-24_12h02.54.851,arm3_eps,2022.2.5,Win32,60.26274557,right,-1,0.3,0.1786,10,-0.034180082,0.347,,,,,,225,0,225,0,1,,,,,
,,706995,001,2023-07-24_12h02.54.851,arm3_eps,2022.2.5,Win32,60.26274557,down,1,0.3,0.1786,10,0,0.315,,,,,,226,0,226,0,1,,,,,
,,706995,001,2023-07-24_12h02.54.851,arm3_eps,2022.2.5,Win32,60.26274557,right,1,0.3,0.1786,10,0.018543658,0.4095,,,,,,227,0,227,0,1,,,,,
,,706995,001,2023-07-24_12h02.54.851,arm3_eps,2022.2.5,Win32,60.26274557,right,1,0.3,0.1786,10,0.019502373,0.1949,,,,,,228,0,228,0,1,,,,,
,,706995,001,2023-07-24_12h02.54.851,arm3_eps,2022.2.5,Win32,60.26274557,right,1,0.3,0.1786,10,-0.003694924,0.2284,,,,,,229,0,229,0,1,,,,,
,,706995,001,2023-07-24_12h02.54.851,arm3_eps,2022.2.5,Win32,60.26274557,right,1,0.3,0.1786,10,0.019114858,0.2027,,,,,,230,0,230,0,1,,,,,
,,706995,001,2023-07-24_12h02.54.851,arm3_eps,2022.2.5,Win32,60.26274557,right,1,0.3,0.1786,10,0.018419205,0.2613,,,,,,231,0,231,0,1,,,,,
,,706995,001,2023-07-24_12h02.54.851,arm3_eps,2022.2.5,Win32,60.26274557,right,1,0.3,0.1786,10,0.042434852,0.2117,,,,,,232,0,232,0,1,,,,,
,,706995,001,2023-07-24_12h02.54.851,arm3_eps,2022.2.5,Win32,60.26274557,right,1,0.3,0.1786,10,0.058876357,0.315,,,,,,233,0,233,0,1,,,,,
,,706995,001,2023-07-24_12h02.54.851,arm3_eps,2022.2.5,Win32,60.26274557,up,1,0.3,0.1786,11,0,0.3297,,,,,,234,0,234,0,1,,,,,
,,706995,001,2023-07-24_12h02.54.851,arm3_eps,2022.2.5,Win32,60.26274557,right,1,0.3,0.1786,11,0.001230006,0.2522,,,,,,235,0,235,0,1,,,,,
,,706995,001,2023-07-24_12h02.54.851,arm3_eps,2022.2.5,Win32,60.26274557,right,1,0.3,0.1786,11,0.002590487,0.2552,,,,,,236,0,236,0,1,,,,,
,,706995,001,2023-07-24_12h02.54.851,arm3_eps,2022.2.5,Win32,60.26274557,right,1,0.3,0.1786,11,0.014925946,0.2001,,,,,,237,0,237,0,1,,,,,
,,706995,001,2023-07-24_12h02.54.851,arm3_eps,2022.2.5,Win32,60.26274557,right,1,0.3,0.1786,11,0.006784261,0.2136,,,,,,238,0,238,0,1,,,,,
,,706995,001,2023-07-24_12h02.54.851,arm3_eps,2022.2.5,Win32,60.26274557,right,1,0.3,0.1786,11,0.007814482,0.1717,,,,,,239,0,239,0,1,,,,,
,,706995,001,2023-07-24_12h02.54.851,arm3_eps,2022.2.5,Win32,60.26274557,right,1,0.3,0.1786,11,0.022499797,0.3117,,,,,,240,0,240,0,1,,,,,
,,706995,001,2023-07-24_12h02.54.851,arm3_eps,2022.2.5,Win32,60.26274557,right,1,0.3,0.1786,11,0.050325122,0.2337,,,,,,241,0,241,0,1,,,,,
,,706995,001,2023-07-24_12h02.54.851,arm3_eps,2022.2.5,Win32,60.26274557,up,-1,0.3,0.1786,12,0,0.3971,,,,,,242,0,242,0,1,,,,,
,,706995,001,2023-07-24_12h02.54.851,arm3_eps,2022.2.5,Win32,60.26274557,right,-1,0.3,0.1786,12,-0.027059746,0.5429,,,,,,243,0,243,0,1,,,,,
,,706995,001,2023-07-24_12h02.54.851,arm3_eps,2022.2.5,Win32,60.26274557,right,-1,0.3,0.1786,12,-0.090581321,0.1802,,,,,,244,0,244,0,1,,,,,
,,706995,001,2023-07-24_12h02.54.851,arm3_eps,2022.2.5,Win32,60.26274557,right,-1,0.3,0.1786,12,-0.090495522,0.1716,,,,,,245,0,245,0,1,,,,,
,,706995,001,2023-07-24_12h02.54.851,arm3_eps,2022.2.5,Win32,60.26274557,right,-1,0.3,0.1786,12,-0.071825046,0.2281,,,,,,246,0,246,0,1,,,,,
,,706995,001,2023-07-24_12h02.54.851,arm3_eps,2022.2.5,Win32,60.26274557,right,-1,0.3,0.1786,12,-0.074143926,0.3777,,,,,,247,0,247,0,1,,,,,
,,706995,001,2023-07-24_12h02.54.851,arm3_eps,2022.2.5,Win32,60.26274557,down,-1,0.3,0.1786,12,0,0.4433,,,,,,248,0,248,0,1,,,,,
,,706995,001,2023-07-24_12h02.54.851,arm3_eps,2022.2.5,Win32,60.26274557,right,-1,0.3,0.1786,12,-0.023549428,0.2682,,,,,,249,0,249,0,1,,,,,
,,706995,001,2023-07-24_12h02.54.851,arm3_eps,2022.2.5,Win32,60.26274557,right,-1,0.3,0.1786,12,-0.034387192,0.2436,,,,,,250,0,250,0,1,,,,,
,,706995,001,2023-07-24_12h02.54.851,arm3_eps,2022.2.5,Win32,60.26274557,right,-1,0.3,0.1786,12,-0.009391243,0.2137,,,,,,251,0,251,0,1,,,,,
,,706995,001,2023-07-24_12h02.54.851,arm3_eps,2022.2.5,Win32,60.26274557,right,-1,0.3,0.1786,12,-0.024764193,0.2662,,,,,,252,0,252,0,1,,,,,
,,706995,001,2023-07-24_12h02.54.851,arm3_eps,2022.2.5,Win32,60.26274557,right,-1,0.3,0.1786,12,0.006406357,0.278,,,,,,253,0,253,0,1,,,,,
,,706995,001,2023-07-24_12h02.54.851,arm3_eps,2022.2.5,Win32,60.26274557,right,-1,0.3,0.1786,12,-0.017448153,0.3606,,,,,,254,0,254,0,1,,,,,
,,706995,001,2023-07-24_12h02.54.851,arm3_eps,2022.2.5,Win32,60.26274557,right,-1,0.3,0.1786,12,-0.01020163,0.6287,,,,,,255,0,255,0,1,,,,,
,,706995,001,2023-07-24_12h02.54.851,arm3_eps,2022.2.5,Win32,60.26274557,right,-1,0.3,0.1786,12,-0.010992658,0.3658,,,,,,256,0,256,0,1,,,,,
,,706995,001,2023-07-24_12h02.54.851,arm3_eps,2022.2.5,Win32,60.26274557,right,-1,0.3,0.1786,12,-0.008276555,0.4564,,,,,,257,0,257,0,1,,,,,
,,706995,001,2023-07-24_12h02.54.851,arm3_eps,2022.2.5,Win32,60.26274557,right,-1,0.3,0.1786,12,-0.008843137,0.3828,,,,,,258,0,258,0,1,,,,,
,,706995,001,2023-07-24_12h02.54.851,arm3_eps,2022.2.5,Win32,60.26274557,right,-1,0.3,0.1786,12,0.003415243,0.4995,,,,,,259,0,259,0,1,,,,,
,,706995,001,2023-07-24_12h02.54.851,arm3_eps,2022.2.5,Win32,60.26274557,down,-1,0.3,0.1786,13,0,0.4278,,,,,,260,0,260,0,1,,,,,
,,706995,001,2023-07-24_12h02.54.851,arm3_eps,2022.2.5,Win32,60.26274557,right,-1,0.3,0.1786,13,-0.004753931,0.4056,,,,,,261,0,261,0,1,,,,,
,,706995,001,2023-07-24_12h02.54.851,arm3_eps,2022.2.5,Win32,60.26274557,right,-1,0.3,0.1786,13,-0.016538983,0.2566,,,,,,262,0,262,0,1,,,,,
,,706995,001,2023-07-24_12h02.54.851,arm3_eps,2022.2.5,Win32,60.26274557,right,-1,0.3,0.1786,13,-0.029988572,0.2455,,,,,,263,0,263,0,1,,,,,
,,706995,001,2023-07-24_12h02.54.851,arm3_eps,2022.2.5,Win32,60.26274557,down,-1,0.3,0.1786,13,0,1.3408,,,,,,264,0,264,0,1,,,,,
,,706995,001,2023-07-24_12h02.54.851,arm3_eps,2022.2.5,Win32,60.26274557,right,-1,0.3,0.1786,13,-0.015236706,0.4529,,,,,,265,0,265,0,1,,,,,
,,706995,001,2023-07-24_12h02.54.851,arm3_eps,2022.2.5,Win32,60.26274557,right,-1,0.3,0.1786,13,-0.035552531,0.2431,,,,,,266,0,266,0,1,,,,,
,,706995,001,2023-07-24_12h02.54.851,arm3_eps,2022.2.5,Win32,60.26274557,right,-1,0.3,0.1786,13,-0.036423427,0.1929,,,,,,267,0,267,0,1,,,,,
,,706995,001,2023-07-24_12h02.54.851,arm3_eps,2022.2.5,Win32,60.26274557,right,-1,0.3,0.1786,13,-0.063275298,0.1709,,,,,,268,0,268,0,1,,,,,
,,706995,001,2023-07-24_12h02.54.851,arm3_eps,2022.2.5,Win32,60.26274557,down,1,0.3,0.1786,13,0,0.3934,,,,,,269,0,269,0,1,,,,,
,,706995,001,2023-07-24_12h02.54.851,arm3_eps,2022.2.5,Win32,60.26274557,right,1,0.3,0.1786,13,-0.030724432,0.276,,,,,,270,0,270,0,1,,,,,
,,706995,001,2023-07-24_12h02.54.851,arm3_eps,2022.2.5,Win32,60.26274557,right,1,0.3,0.1786,13,-0.048187098,0.2757,,,,,,271,0,271,0,1,,,,,
,,706995,001,2023-07-24_12h02.54.851,arm3_eps,2022.2.5,Win32,60.26274557,right,1,0.3,0.1786,13,-0.034674672,0.1788,,,,,,272,0,272,0,1,,,,,
,,706995,001,2023-07-24_12h02.54.851,arm3_eps,2022.2.5,Win32,60.26274557,right,1,0.3,0.1786,13,-0.021562229,0.1629,,,,,,273,0,273,0,1,,,,,
,,706995,001,2023-07-24_12h02.54.851,arm3_eps,2022.2.5,Win32,60.26274557,right,1,0.3,0.1786,13,-0.010284214,0.1936,,,,,,274,0,274,0,1,,,,,
,,706995,001,2023-07-24_12h02.54.851,arm3_eps,2022.2.5,Win32,60.26274557,right,1,0.3,0.1786,13,-0.0245557,0.1931,,,,,,275,0,275,0,1,,,,,
,,706995,001,2023-07-24_12h02.54.851,arm3_eps,2022.2.5,Win32,60.26274557,right,1,0.3,0.1786,13,-0.002848737,0.2432,,,,,,276,0,276,0,1,,,,,
,,706995,001,2023-07-24_12h02.54.851,arm3_eps,2022.2.5,Win32,60.26274557,right,1,0.3,0.1786,13,0.000232626,0.3576,,,,,,277,0,277,0,1,,,,,
,,706995,001,2023-07-24_12h02.54.851,arm3_eps,2022.2.5,Win32,60.26274557,right,1,0.3,0.1786,13,-0.022138461,0.3656,,,,,,278,0,278,0,1,,,,,
,,706995,001,2023-07-24_12h02.54.851,arm3_eps,2022.2.5,Win32,60.26274557,down,1,0.3,0.1786,13,0,0.3088,,,,,,279,0,279,0,1,,,,,
,,706995,001,2023-07-24_12h02.54.851,arm3_eps,2022.2.5,Win32,60.26274557,right,1,0.3,0.1786,13,0.015300225,0.2766,,,,,,280,0,280,0,1,,,,,
,,706995,001,2023-07-24_12h02.54.851,arm3_eps,2022.2.5,Win32,60.26274557,right,1,0.3,0.1786,13,0.008699252,0.2266,,,,,,281,0,281,0,1,,,,,
,,706995,001,2023-07-24_12h02.54.851,arm3_eps,2022.2.5,Win32,60.26274557,right,1,0.3,0.1786,13,-0.015219578,0.1645,,,,,,282,0,282,0,1,,,,,
,,706995,001,2023-07-24_12h02.54.851,arm3_eps,2022.2.5,Win32,60.26274557,right,1,0.3,0.1786,13,0.004304979,0.1785,,,,,,283,0,283,0,1,,,,,
,,706995,001,2023-07-24_12h02.54.851,arm3_eps,2022.2.5,Win32,60.26274557,right,1,0.3,0.1786,13,0.009009896,0.177,,,,,,284,0,284,0,1,,,,,
,,706995,001,2023-07-24_12h02.54.851,arm3_eps,2022.2.5,Win32,60.26274557,right,1,0.3,0.1786,13,0.018948923,0.1836,,,,,,285,0,285,0,1,,,,,
,,706995,001,2023-07-24_12h02.54.851,arm3_eps,2022.2.5,Win32,60.26274557,right,1,0.3,0.1786,13,0.019626826,0.4387,,,,,,286,0,286,0,1,,,,,
,,706995,001,2023-07-24_12h02.54.851,arm3_eps,2022.2.5,Win32,60.26274557,up,1,0.3,0.1786,14,0,0.8283,,,,,,287,0,287,0,1,,,,,
,,706995,001,2023-07-24_12h02.54.851,arm3_eps,2022.2.5,Win32,60.26274557,right,1,0.3,0.1786,14,0.005839698,0.4173,,,,,,288,0,288,0,1,,,,,
,,706995,001,2023-07-24_12h02.54.851,arm3_eps,2022.2.5,Win32,60.26274557,right,1,0.3,0.1786,14,0.027529924,0.2727,,,,,,289,0,289,0,1,,,,,
,,706995,001,2023-07-24_12h02.54.851,arm3_eps,2022.2.5,Win32,60.26274557,right,1,0.3,0.1786,14,0.009992659,0.2432,,,,,,290,0,290,0,1,,,,,
,,706995,001,2023-07-24_12h02.54.851,arm3_eps,2022.2.5,Win32,60.26274557,right,1,0.3,0.1786,14,0.04261772,0.2242,,,,,,291,0,291,0,1,,,,,
,,706995,001,2023-07-24_12h02.54.851,arm3_eps,2022.2.5,Win32,60.26274557,up,-1,0.3,0.1786,14,0,0.4938,,,,,,292,0,292,0,1,,,,,
,,706995,001,2023-07-24_12h02.54.851,arm3_eps,2022.2.5,Win32,60.26274557,right,-1,0.3,0.1786,14,-0.009728551,0.2798,,,,,,293,0,293,0,1,,,,,
,,706995,001,2023-07-24_12h02.54.851,arm3_eps,2022.2.5,Win32,60.26274557,right,-1,0.3,0.1786,14,-0.040676032,0.2419,,,,,,294,0,294,0,1,,,,,
,,706995,001,2023-07-24_12h02.54.851,arm3_eps,2022.2.5,Win32,60.26274557,right,-1,0.3,0.1786,14,-0.089364313,0.1975,,,,,,295,0,295,0,1,,,,,
,,706995,001,2023-07-24_12h02.54.851,arm3_eps,2022.2.5,Win32,60.26274557,down,-1,0.3,0.1786,14,0,0.4266,,,,,,296,0,296,0,1,,,,,
,,706995,001,2023-07-24_12h02.54.851,arm3_eps,2022.2.5,Win32,60.26274557,right,-1,0.3,0.1786,14,0.000870274,0.3073,,,,,,297,0,297,0,1,,,,,
,,706995,001,2023-07-24_12h02.54.851,arm3_eps,2022.2.5,Win32,60.26274557,right,-1,0.3,0.1786,14,0.017353099,0.2413,,,,,,298,0,298,0,1,,,,,
,,706995,001,2023-07-24_12h02.54.851,arm3_eps,2022.2.5,Win32,60.26274557,right,-1,0.3,0.1786,14,0.014009248,0.1919,,,,,,299,0,299,0,1,,,,,
,,706995,001,2023-07-24_12h02.54.851,arm3_eps,2022.2.5,Win32,60.26274557,right,-1,0.3,0.1786,14,0.010236906,0.2262,,,,,,300,0,300,0,1,,,,,
,,706995,001,2023-07-24_12h02.54.851,arm3_eps,2022.2.5,Win32,60.26274557,right,-1,0.3,0.1786,14,0.018150626,0.2304,,,,,,301,0,301,0,1,,,,,
,,706995,001,2023-07-24_12h02.54.851,arm3_eps,2022.2.5,Win32,60.26274557,right,-1,0.3,0.1786,14,-0.030923579,0.2884,,,,,,302,0,302,0,1,,,,,
,,706995,001,2023-07-24_12h02.54.851,arm3_eps,2022.2.5,Win32,60.26274557,down,-1,0.3,0.1786,14,0,0.4639,,,,,,303,0,303,0,1,,,,,
,,706995,001,2023-07-24_12h02.54.851,arm3_eps,2022.2.5,Win32,60.26274557,right,-1,0.3,0.1786,14,-0.024064596,0.3902,,,,,,304,0,304,0,1,,,,,
,,706995,001,2023-07-24_12h02.54.851,arm3_eps,2022.2.5,Win32,60.26274557,right,-1,0.3,0.1786,14,-0.051813449,0.245,,,,,,305,0,305,0,1,,,,,
,,706995,001,2023-07-24_12h02.54.851,arm3_eps,2022.2.5,Win32,60.26274557,down,-1,0.3,0.1786,14,0,0.3605,,,,,,306,0,306,0,1,,,,,
,,706995,001,2023-07-24_12h02.54.851,arm3_eps,2022.2.5,Win32,60.26274557,right,-1,0.3,0.1786,14,-0.002962847,0.3903,,,,,,307,0,307,0,1,,,,,
,,706995,001,2023-07-24_12h02.54.851,arm3_eps,2022.2.5,Win32,60.26274557,right,-1,0.3,0.1786,14,-0.016920224,0.2902,,,,,,308,0,308,0,1,,,,,
,,706995,001,2023-07-24_12h02.54.851,arm3_eps,2022.2.5,Win32,60.26274557,right,-1,0.3,0.1786,14,-0.044181854,0.5167,,,,,,309,0,309,0,1,,,,,
,,706995,001,2023-07-24_12h02.54.851,arm3_eps,2022.2.5,Win32,60.26274557,down,-1,0.3,0.1786,14,0,0.175,,,,,,310,0,310,0,1,,,,,
,,706995,001,2023-07-24_12h02.54.851,arm3_eps,2022.2.5,Win32,60.26274557,right,-1,0.3,0.1786,14,-0.002729991,0.4591,,,,,,311,0,311,0,1,,,,,
,,706995,001,2023-07-24_12h02.54.851,arm3_eps,2022.2.5,Win32,60.26274557,right,-1,0.3,0.1786,14,-0.02119702,0.3258,,,,,,312,0,312,0,1,,,,,
,,706995,001,2023-07-24_12h02.54.851,arm3_eps,2022.2.5,Win32,60.26274557,right,-1,0.3,0.1786,14,-0.029775348,0.3428,,,,,,313,0,313,0,1,,,,,
,,706995,001,2023-07-24_12h02.54.851,arm3_eps,2022.2.5,Win32,60.26274557,right,-1,0.3,0.1786,14,-0.051975901,0.4612,,,,,,314,0,314,0,1,,,,,
,,706995,001,2023-07-24_12h02.54.851,arm3_eps,2022.2.5,Win32,60.26274557,down,-1,0.3,0.1786,14,0,0.2933,,,,,,315,0,315,0,1,,,,,
,,706995,001,2023-07-24_12h02.54.851,arm3_eps,2022.2.5,Win32,60.26274557,right,-1,0.3,0.1786,14,-0.029975223,0.2419,,,,,,316,0,316,0,1,,,,,
,,706995,001,2023-07-24_12h02.54.851,arm3_eps,2022.2.5,Win32,60.26274557,right,-1,0.3,0.1786,14,-0.024979501,0.212,,,,,,317,0,317,0,1,,,,,
,,706995,001,2023-07-24_12h02.54.851,arm3_eps,2022.2.5,Win32,60.26274557,right,-1,0.3,0.1786,14,-0.044400437,0.193,,,,,,318,0,318,0,1,,,,,
,,706995,001,2023-07-24_12h02.54.851,arm3_eps,2022.2.5,Win32,60.26274557,right,-1,0.3,0.1786,14,-0.073683246,0.2089,,,,,,319,0,319,0,1,,,,,
,,706995,001,2023-07-24_12h02.54.851,arm3_eps,2022.2.5,Win32,60.26274557,right,-1,0.3,0.1786,14,-0.042223306,0.8424,,,,,,320,0,320,0,1,,,,,
,,706995,001,2023-07-24_12h02.54.851,arm3_eps,2022.2.5,Win32,60.26274557,down,-1,0.3,0.1786,14,0,0.227,,,,,,321,0,321,0,1,,,,,
,,706995,001,2023-07-24_12h02.54.851,arm3_eps,2022.2.5,Win32,60.26274557,right,-1,0.3,0.1786,14,-0.012665392,0.6431,,,,,,322,0,322,0,1,,,,,
,,706995,001,2023-07-24_12h02.54.851,arm3_eps,2022.2.5,Win32,60.26274557,right,-1,0.3,0.1786,14,-0.011631174,0.3108,,,,,,323,0,323,0,1,,,,,
,,706995,001,2023-07-24_12h02.54.851,arm3_eps,2022.2.5,Win32,60.26274557,right,-1,0.3,0.1786,14,-0.03854573,0.2431,,,,,,324,0,324,0,1,,,,,
,,706995,001,2023-07-24_12h02.54.851,arm3_eps,2022.2.5,Win32,60.26274557,right,-1,0.3,0.1786,14,-0.024048592,0.2261,,,,,,325,0,325,0,1,,,,,
,,706995,001,2023-07-24_12h02.54.851,arm3_eps,2022.2.5,Win32,60.26274557,right,-1,0.3,0.1786,14,-0.016146974,0.2933,,,,,,326,0,326,0,1,,,,,
,,706995,001,2023-07-24_12h02.54.851,arm3_eps,2022.2.5,Win32,60.26274557,up,-1,0.3,0.1786,14,0,0.5644,,,,,,327,0,327,0,1,,,,,
,,706995,001,2023-07-24_12h02.54.851,arm3_eps,2022.2.5,Win32,60.26274557,right,-1,0.3,0.1786,14,-0.043220381,0.5225,,,,,,328,0,328,0,1,,,,,
,,706995,001,2023-07-24_12h02.54.851,arm3_eps,2022.2.5,Win32,60.26274557,right,-1,0.3,0.1786,14,-0.079612596,0.3259,,,,,,329,0,329,0,1,,,,,
,,706995,001,2023-07-24_12h02.54.851,arm3_eps,2022.2.5,Win32,60.26274557,right,-1,0.3,0.1786,14,-0.085552828,0.1929,,,,,,330,0,330,0,1,,,,,
,,706995,001,2023-07-24_12h02.54.851,arm3_eps,2022.2.5,Win32,60.26274557,down,-1,0.3,0.1786,14,0,0.5593,,,,,,331,0,331,0,1,,,,,
,,706995,001,2023-07-24_12h02.54.851,arm3_eps,2022.2.5,Win32,60.26274557,right,-1,0.3,0.1786,14,-0.023060667,0.36,,,,,,332,0,332,0,1,,,,,
,,706995,001,2023-07-24_12h02.54.851,arm3_eps,2022.2.5,Win32,60.26274557,right,-1,0.3,0.1786,14,-0.048330004,0.2663,,,,,,333,0,333,0,1,,,,,
,,706995,001,2023-07-24_12h02.54.851,arm3_eps,2022.2.5,Win32,60.26274557,right,-1,0.3,0.1786,14,-0.032268715,0.3599,,,,,,334,0,334,0,1,,,,,
,,706995,001,2023-07-24_12h02.54.851,arm3_eps,2022.2.5,Win32,60.26274557,right,-1,0.3,0.1786,14,-0.062564402,0.381,,,,,,335,0,335,0,1,,,,,
,,706995,001,2023-07-24_12h02.54.851,arm3_eps,2022.2.5,Win32,60.26274557,down,-1,0.3,0.1786,14,0,0.3419,,,,,,336,0,336,0,1,,,,,
,,706995,001,2023-07-24_12h02.54.851,arm3_eps,2022.2.5,Win32,60.26274557,right,-1,0.3,0.1786,14,0.001285629,0.3755,,,,,,337,0,337,0,1,,,,,
,,706995,001,2023-07-24_12h02.54.851,arm3_eps,2022.2.5,Win32,60.26274557,right,-1,0.3,0.1786,14,-0.016165895,0.2434,,,,,,338,0,338,0,1,,,,,
,,706995,001,2023-07-24_12h02.54.851,arm3_eps,2022.2.5,Win32,60.26274557,right,-1,0.3,0.1786,14,-0.019775209,0.1596,,,,,,339,0,339,0,1,,,,,
,,706995,001,2023-07-24_12h02.54.851,arm3_eps,2022.2.5,Win32,60.26274557,right,-1,0.3,0.1786,14,-0.064348817,0.2114,,,,,,340,0,340,0,1,,,,,
,,706995,001,2023-07-24_12h02.54.851,arm3_eps,2022.2.5,Win32,60.26274557,right,-1,0.3,0.1786,14,-0.033842612,0.478,,,,,,341,0,341,0,1,,,,,
,,706995,001,2023-07-24_12h02.54.851,arm3_eps,2022.2.5,Win32,60.26274557,right,-1,0.3,0.1786,14,-0.021143464,0.3753,,,,,,342,0,342,0,1,,,,,
,,706995,001,2023-07-24_12h02.54.851,arm3_eps,2022.2.5,Win32,60.26274557,right,-1,0.3,0.1786,14,-0.01248836,0.4149,,,,,,343,0,343,0,1,,,,,
,,706995,001,2023-07-24_12h02.54.851,arm3_eps,2022.2.5,Win32,60.26274557,right,-1,0.3,0.1786,14,-0.003929773,0.4762,,,,,,344,0,344,0,1,,,,,
,,706995,001,2023-07-24_12h02.54.851,arm3_eps,2022.2.5,Win32,60.26274557,right,-1,0.3,0.1786,14,-0.031173187,0.5102,,,,,,345,0,345,0,1,,,,,
,,706995,001,2023-07-24_12h02.54.851,arm3_eps,2022.2.5,Win32,60.26274557,down,-1,0.3,0.1786,14,0,0.5936,,,,,,346,0,346,0,1,,,,,
,,706995,001,2023-07-24_12h02.54.851,arm3_eps,2022.2.5,Win32,60.26274557,right,-1,0.3,0.1786,14,-0.002078438,0.3472,,,,,,347,0,347,0,1,,,,,
,,706995,001,2023-07-24_12h02.54.851,arm3_eps,2022.2.5,Win32,60.26274557,right,-1,0.3,0.1786,14,-0.006894842,0.3663,,,,,,348,0,348,0,1,,,,,
,,706995,001,2023-07-24_12h02.54.851,arm3_eps,2022.2.5,Win32,60.26274557,right,-1,0.3,0.1786,14,-0.047231799,0.3152,,,,,,349,0,349,0,1,,,,,
,,706995,001,2023-07-24_12h02.54.851,arm3_eps,2022.2.5,Win32,60.26274557,right,-1,0.3,0.1786,14,-0.058328628,0.4601,,,,,,350,0,350,0,1,,,,,
,,706995,001,2023-07-24_12h02.54.851,arm3_eps,2022.2.5,Win32,60.26274557,down,-1,0.3,0.1786,14,0,0.327,,,,,,351,0,351,0,1,,,,,
,,706995,001,2023-07-24_12h02.54.851,arm3_eps,2022.2.5,Win32,60.26274557,right,-1,0.3,0.1786,14,-0.01461616,0.277,,,,,,352,0,352,0,1,,,,,
,,706995,001,2023-07-24_12h02.54.851,arm3_eps,2022.2.5,Win32,60.26274557,right,-1,0.3,0.1786,14,0.006336848,0.2973,,,,,,353,0,353,0,1,,,,,
,,706995,001,2023-07-24_12h02.54.851,arm3_eps,2022.2.5,Win32,60.26274557,right,-1,0.3,0.1786,14,-0.00255328,0.1768,,,,,,354,0,354,0,1,,,,,
,,706995,001,2023-07-24_12h02.54.851,arm3_eps,2022.2.5,Win32,60.26274557,right,-1,0.3,0.1786,14,-0.01677356,0.1965,,,,,,355,0,355,0,1,,,,,
,,706995,001,2023-07-24_12h02.54.851,arm3_eps,2022.2.5,Win32,60.26274557,right,-1,0.3,0.1786,14,0.00333221,0.2279,,,,,,356,0,356,0,1,,,,,
,,706995,001,2023-07-24_12h02.54.851,arm3_eps,2022.2.5,Win32,60.26274557,right,-1,0.3,0.1786,14,0.015509617,0.2429,,,,,,357,0,357,0,1,,,,,
,,706995,001,2023-07-24_12h02.54.851,arm3_eps,2022.2.5,Win32,60.26274557,right,-1,0.3,0.1786,14,-0.018572797,0.2766,,,,,,358,0,358,0,1,,,,,
,,706995,001,2023-07-24_12h02.54.851,arm3_eps,2022.2.5,Win32,60.26274557,right,-1,0.3,0.1786,14,-0.036985857,0.3486,,,,,,359,0,359,0,1,,,,,
,,706995,001,2023-07-24_12h02.54.851,arm3_eps,2022.2.5,Win32,60.26274557,down,-1,0.3,0.1786,14,0,0.2482,,,,,,360,0,360,0,1,,,,,
,,706995,001,2023-07-24_12h02.54.851,arm3_eps,2022.2.5,Win32,60.26274557,right,-1,0.3,0.1786,14,-0.004790875,0.2583,,,,,,361,0,361,0,1,,,,,
,,706995,001,2023-07-24_12h02.54.851,arm3_eps,2022.2.5,Win32,60.26274557,right,-1,0.3,0.1786,14,-0.04116938,0.1957,,,,,,362,0,362,0,1,,,,,
,,706995,001,2023-07-24_12h02.54.851,arm3_eps,2022.2.5,Win32,60.26274557,right,-1,0.3,0.1786,14,-0.078653714,0.2786,,,,,,363,0,363,0,1,,,,,
,,706995,001,2023-07-24_12h02.54.851,arm3_eps,2022.2.5,Win32,60.26274557,down,1,0.3,0.1786,14,0,0.7268,,,,,,364,0,364,0,1,,,,,
,,706995,001,2023-07-24_12h02.54.851,arm3_eps,2022.2.5,Win32,60.26274557,right,1,0.3,0.1786,14,0.010898512,0.3923,,,,,,365,0,365,0,1,,,,,
,,706995,001,2023-07-24_12h02.54.851,arm3_eps,2022.2.5,Win32,60.26274557,right,1,0.3,0.1786,14,-0.031013418,0.5472,,,,,,366,0,366,0,1,,,,,
,,706995,001,2023-07-24_12h02.54.851,arm3_eps,2022.2.5,Win32,60.26274557,right,1,0.3,0.1786,14,-0.001150955,1.259,,,,,,367,0,367,0,1,,,,,
,,706995,001,2023-07-24_12h02.54.851,arm3_eps,2022.2.5,Win32,60.26274557,right,1,0.3,0.1786,14,0.018340601,0.4779,,,,,,368,0,368,0,1,,,,,
,,706995,001,2023-07-24_12h02.54.851,arm3_eps,2022.2.5,Win32,60.26274557,up,1,0.3,0.1786,14,0.018340601,0.831,,,,,,369,0,369,0,1,,,,,
,,706995,001,2023-07-24_12h02.54.851,arm3_eps,2022.2.5,Win32,60.26274557,,,,,,,,,,,,,,,,,,0,0,0,0,1
space,2.7386,706995,001,2023-07-24_12h02.54.851,arm3_eps,2022.2.5,Win32,60.26274557,right,1,0.3,0.5,14,0.001695139,0.8332,,,,,,0,0,0,0,1,,,,,
,,706995,001,2023-07-24_12h02.54.851,arm3_eps,2022.2.5,Win32,60.26274557,right,1,0.3,0.5,14,0.000445904,0.2399,,,,,,1,0,1,0,1,,,,,
,,706995,001,2023-07-24_12h02.54.851,arm3_eps,2022.2.5,Win32,60.26274557,right,1,0.3,0.5,14,-0.001089685,0.3415,,,,,,2,0,2,0,1,,,,,
,,706995,001,2023-07-24_12h02.54.851,arm3_eps,2022.2.5,Win32,60.26274557,up,1,0.3,0.5,15,0,0.527,,,,,,3,0,3,0,1,,,,,
,,706995,001,2023-07-24_12h02.54.851,arm3_eps,2022.2.5,Win32,60.26274557,right,1,0.3,0.5,15,0.003424272,0.4845,,,,,,4,0,4,0,1,,,,,
,,706995,001,2023-07-24_12h02.54.851,arm3_eps,2022.2.5,Win32,60.26274557,right,1,0.3,0.5,15,0.023104517,0.2601,,,,,,5,0,5,0,1,,,,,
,,706995,001,2023-07-24_12h02.54.851,arm3_eps,2022.2.5,Win32,60.26274557,right,1,0.3,0.5,15,0.052582461,0.1844,,,,,,6,0,6,0,1,,,,,
,,706995,001,2023-07-24_12h02.54.851,arm3_eps,2022.2.5,Win32,60.26274557,right,1,0.3,0.5,15,0.060596157,0.1989,,,,,,7,0,7,0,1,,,,,
,,706995,001,2023-07-24_12h02.54.851,arm3_eps,2022.2.5,Win32,60.26274557,up,1,0.3,0.5,15,0,0.2845,,,,,,8,0,8,0,1,,,,,
,,706995,001,2023-07-24_12h02.54.851,arm3_eps,2022.2.5,Win32,60.26274557,right,1,0.3,0.5,15,0.023564257,0.4043,,,,,,9,0,9,0,1,,,,,
,,706995,001,2023-07-24_12h02.54.851,arm3_eps,2022.2.5,Win32,60.26274557,right,1,0.3,0.5,15,0.038249198,0.3178,,,,,,10,0,10,0,1,,,,,
,,706995,001,2023-07-24_12h02.54.851,arm3_eps,2022.2.5,Win32,60.26274557,right,1,0.3,0.5,15,0.037125753,0.2143,,,,,,11,0,11,0,1,,,,,
,,706995,001,2023-07-24_12h02.54.851,arm3_eps,2022.2.5,Win32,60.26274557,right,1,0.3,0.5,15,0.039590171,0.1705,,,,,,12,0,12,0,1,,,,,
,,706995,001,2023-07-24_12h02.54.851,arm3_eps,2022.2.5,Win32,60.26274557,right,1,0.3,0.5,15,0.029803794,0.4505,,,,,,13,0,13,0,1,,,,,
,,706995,001,2023-07-24_12h02.54.851,arm3_eps,2022.2.5,Win32,60.26274557,right,1,0.3,0.5,15,0.044139373,0.3996,,,,,,14,0,14,0,1,,,,,
,,706995,001,2023-07-24_12h02.54.851,arm3_eps,2022.2.5,Win32,60.26274557,up,-1,0.3,0.5,15,0,0.2838,,,,,,15,0,15,0,1,,,,,
,,706995,001,2023-07-24_12h02.54.851,arm3_eps,2022.2.5,Win32,60.26274557,right,-1,0.3,0.5,15,-0.005416803,0.2793,,,,,,16,0,16,0,1,,,,,
,,706995,001,2023-07-24_12h02.54.851,arm3_eps,2022.2.5,Win32,60.26274557,right,-1,0.3,0.5,15,-0.009578173,0.2005,,,,,,17,0,17,0,1,,,,,
,,706995,001,2023-07-24_12h02.54.851,arm3_eps,2022.2.5,Win32,60.26274557,right,-1,0.3,0.5,15,-0.023313985,0.2838,,,,,,18,0,18,0,1,,,,,
,,706995,001,2023-07-24_12h02.54.851,arm3_eps,2022.2.5,Win32,60.26274557,right,-1,0.3,0.5,15,-0.04417307,0.357,,,,,,19,0,19,0,1,,,,,
,,706995,001,2023-07-24_12h02.54.851,arm3_eps,2022.2.5,Win32,60.26274557,down,-1,0.3,0.5,15,0,0.7168,,,,,,20,0,20,0,1,,,,,
,,706995,001,2023-07-24_12h02.54.851,arm3_eps,2022.2.5,Win32,60.26274557,right,-1,0.3,0.5,15,-0.007620277,0.3037,,,,,,21,0,21,0,1,,,,,
,,706995,001,2023-07-24_12h02.54.851,arm3_eps,2022.2.5,Win32,60.26274557,right,-1,0.3,0.5,15,-0.035827365,0.2012,,,,,,22,0,22,0,1,,,,,
,,706995,001,2023-07-24_12h02.54.851,arm3_eps,2022.2.5,Win32,60.26274557,right,-1,0.3,0.5,15,-0.045119867,0.17,,,,,,23,0,23,0,1,,,,,
,,706995,001,2023-07-24_12h02.54.851,arm3_eps,2022.2.5,Win32,60.26274557,right,-1,0.3,0.5,15,-0.020717615,0.7926,,,,,,24,0,24,0,1,,,,,
,,706995,001,2023-07-24_12h02.54.851,arm3_eps,2022.2.5,Win32,60.26274557,right,-1,0.3,0.5,15,-0.033868151,0.3256,,,,,,25,0,25,0,1,,,,,
,,706995,001,2023-07-24_12h02.54.851,arm3_eps,2022.2.5,Win32,60.26274557,right,-1,0.3,0.5,15,-0.028614557,0.4748,,,,,,26,0,26,0,1,,,,,
,,706995,001,2023-07-24_12h02.54.851,arm3_eps,2022.2.5,Win32,60.26274557,right,-1,0.3,0.5,15,-0.013595253,1.1586,,,,,,27,0,27,0,1,,,,,
,,706995,001,2023-07-24_12h02.54.851,arm3_eps,2022.2.5,Win32,60.26274557,right,-1,0.3,0.5,15,-0.004450808,1.1662,,,,,,28,0,28,0,1,,,,,
,,706995,001,2023-07-24_12h02.54.851,arm3_eps,2022.2.5,Win32,60.26274557,right,-1,0.3,0.5,15,-0.009535827,0.5885,,,,,,29,0,29,0,1,,,,,
,,706995,001,2023-07-24_12h02.54.851,arm3_eps,2022.2.5,Win32,60.26274557,down,-1,0.3,0.5,15,0,0.9167,,,,,,30,0,30,0,1,,,,,
,,706995,001,2023-07-24_12h02.54.851,arm3_eps,2022.2.5,Win32,60.26274557,right,-1,0.3,0.5,15,-0.005432224,0.3632,,,,,,31,0,31,0,1,,,,,
,,706995,001,2023-07-24_12h02.54.851,arm3_eps,2022.2.5,Win32,60.26274557,right,-1,0.3,0.5,15,-0.010165458,0.2114,,,,,,32,0,32,0,1,,,,,
,,706995,001,2023-07-24_12h02.54.851,arm3_eps,2022.2.5,Win32,60.26274557,right,-1,0.3,0.5,15,-0.01884743,0.2074,,,,,,33,0,33,0,1,,,,,
,,706995,001,2023-07-24_12h02.54.851,arm3_eps,2022.2.5,Win32,60.26274557,right,-1,0.3,0.5,15,-0.050151265,0.1926,,,,,,34,0,34,0,1,,,,,
,,706995,001,2023-07-24_12h02.54.851,arm3_eps,2022.2.5,Win32,60.26274557,right,-1,0.3,0.5,15,-0.066800021,0.1976,,,,,,35,0,35,0,1,,,,,
,,706995,001,2023-07-24_12h02.54.851,arm3_eps,2022.2.5,Win32,60.26274557,right,-1,0.3,0.5,15,-0.074178007,0.1923,,,,,,36,0,36,0,1,,,,,
,,706995,001,2023-07-24_12h02.54.851,arm3_eps,2022.2.5,Win32,60.26274557,down,1,0.3,0.5,15,0,0.3341,,,,,,37,0,37,0,1,,,,,
,,706995,001,2023-07-24_12h02.54.851,arm3_eps,2022.2.5,Win32,60.26274557,right,1,0.3,0.5,15,0.005929957,0.2883,,,,,,38,0,38,0,1,,,,,
,,706995,001,2023-07-24_12h02.54.851,arm3_eps,2022.2.5,Win32,60.26274557,right,1,0.3,0.5,15,0.059292746,0.1932,,,,,,39,0,39,0,1,,,,,
,,706995,001,2023-07-24_12h02.54.851,arm3_eps,2022.2.5,Win32,60.26274557,right,1,0.3,0.5,15,0.073367342,0.167,,,,,,40,0,40,0,1,,,,,
,,706995,001,2023-07-24_12h02.54.851,arm3_eps,2022.2.5,Win32,60.26274557,right,1,0.3,0.5,15,0.067779421,0.1966,,,,,,41,0,41,0,1,,,,,
,,706995,001,2023-07-24_12h02.54.851,arm3_eps,2022.2.5,Win32,60.26274557,up,1,0.3,0.5,15,0,0.3928,,,,,,42,0,42,0,1,,,,,
,,706995,001,2023-07-24_12h02.54.851,arm3_eps,2022.2.5,Win32,60.26274557,right,1,0.3,0.5,15,-0.01658886,0.2743,,,,,,43,0,43,0,1,,,,,
,,706995,001,2023-07-24_12h02.54.851,arm3_eps,2022.2.5,Win32,60.26274557,right,1,0.3,0.5,15,-0.033658996,0.1811,,,,,,44,0,44,0,1,,,,,
,,706995,001,2023-07-24_12h02.54.851,arm3_eps,2022.2.5,Win32,60.26274557,right,1,0.3,0.5,15,-0.017190896,0.1755,,,,,,45,0,45,0,1,,,,,
,,706995,001,2023-07-24_12h02.54.851,arm3_eps,2022.2.5,Win32,60.26274557,right,1,0.3,0.5,15,-0.002816775,0.1798,,,,,,46,0,46,0,1,,,,,
,,706995,001,2023-07-24_12h02.54.851,arm3_eps,2022.2.5,Win32,60.26274557,right,1,0.3,0.5,15,0.016263116,0.1976,,,,,,47,0,47,0,1,,,,,
,,706995,001,2023-07-24_12h02.54.851,arm3_eps,2022.2.5,Win32,60.26274557,right,1,0.3,0.5,15,0.028596674,0.2104,,,,,,48,0,48,0,1,,,,,
,,706995,001,2023-07-24_12h02.54.851,arm3_eps,2022.2.5,Win32,60.26274557,right,1,0.3,0.5,15,0.022043656,0.4429,,,,,,49,0,49,0,1,,,,,
,,706995,001,2023-07-24_12h02.54.851,arm3_eps,2022.2.5,Win32,60.26274557,right,1,0.3,0.5,15,-0.014766316,0.3272,,,,,,50,0,50,0,1,,,,,
,,706995,001,2023-07-24_12h02.54.851,arm3_eps,2022.2.5,Win32,60.26274557,right,1,0.3,0.5,15,0.010032683,0.2659,,,,,,51,0,51,0,1,,,,,
,,706995,001,2023-07-24_12h02.54.851,arm3_eps,2022.2.5,Win32,60.26274557,up,1,0.3,0.5,15,0,0.3738,,,,,,52,0,52,0,1,,,,,
,,706995,001,2023-07-24_12h02.54.851,arm3_eps,2022.2.5,Win32,60.26274557,right,1,0.3,0.5,15,0.026525321,0.2905,,,,,,53,0,53,0,1,,,,,
,,706995,001,2023-07-24_12h02.54.851,arm3_eps,2022.2.5,Win32,60.26274557,right,1,0.3,0.5,15,0.065239806,0.1987,,,,,,54,0,54,0,1,,,,,
,,706995,001,2023-07-24_12h02.54.851,arm3_eps,2022.2.5,Win32,60.26274557,right,1,0.3,0.5,15,0.096034917,0.1854,,,,,,55,0,55,0,1,,,,,
,,706995,001,2023-07-24_12h02.54.851,arm3_eps,2022.2.5,Win32,60.26274557,right,1,0.3,0.5,15,0.111323468,0.1941,,,,,,56,0,56,0,1,,,,,
,,706995,001,2023-07-24_12h02.54.851,arm3_eps,2022.2.5,Win32,60.26274557,up,-1,0.3,0.5,16,0,0.2126,,,,,,57,0,57,0,1,,,,,
,,706995,001,2023-07-24_12h02.54.851,arm3_eps,2022.2.5,Win32,60.26274557,right,-1,0.3,0.5,16,-0.010862619,0.2491,,,,,,58,0,58,0,1,,,,,
,,706995,001,2023-07-24_12h02.54.851,arm3_eps,2022.2.5,Win32,60.26274557,right,-1,0.3,0.5,16,-0.02913402,0.2163,,,,,,59,0,59,0,1,,,,,
,,706995,001,2023-07-24_12h02.54.851,arm3_eps,2022.2.5,Win32,60.26274557,right,-1,0.3,0.5,16,-0.014775971,0.1922,,,,,,60,0,60,0,1,,,,,
,,706995,001,2023-07-24_12h02.54.851,arm3_eps,2022.2.5,Win32,60.26274557,right,-1,0.3,0.5,16,-0.023695623,0.184,,,,,,61,0,61,0,1,,,,,
,,706995,001,2023-07-24_12h02.54.851,arm3_eps,2022.2.5,Win32,60.26274557,right,-1,0.3,0.5,16,-0.02504577,0.1858,,,,,,62,0,62,0,1,,,,,
,,706995,001,2023-07-24_12h02.54.851,arm3_eps,2022.2.5,Win32,60.26274557,right,-1,0.3,0.5,16,-0.051977793,0.2009,,,,,,63,0,63,0,1,,,,,
,,706995,001,2023-07-24_12h02.54.851,arm3_eps,2022.2.5,Win32,60.26274557,right,-1,0.3,0.5,16,-0.065527848,0.2215,,,,,,64,0,64,0,1,,,,,
,,706995,001,2023-07-24_12h02.54.851,arm3_eps,2022.2.5,Win32,60.26274557,right,-1,0.3,0.5,16,-0.116719716,0.1576,,,,,,65,0,65,0,1,,,,,
,,706995,001,2023-07-24_12h02.54.851,arm3_eps,2022.2.5,Win32,60.26274557,down,-1,0.3,0.5,17,0,0.2504,,,,,,66,0,66,0,1,,,,,
,,706995,001,2023-07-24_12h02.54.851,arm3_eps,2022.2.5,Win32,60.26274557,right,-1,0.3,0.5,17,-0.022732164,0.3276,,,,,,67,0,67,0,1,,,,,
,,706995,001,2023-07-24_12h02.54.851,arm3_eps,2022.2.5,Win32,60.26274557,right,-1,0.3,0.5,17,-0.036953722,0.1938,,,,,,68,0,68,0,1,,,,,
,,706995,001,2023-07-24_12h02.54.851,arm3_eps,2022.2.5,Win32,60.26274557,right,-1,0.3,0.5,17,-0.036555965,0.1685,,,,,,69,0,69,0,1,,,,,
,,706995,001,2023-07-24_12h02.54.851,arm3_eps,2022.2.5,Win32,60.26274557,right,-1,0.3,0.5,17,-0.03119406,0.1839,,,,,,70,0,70,0,1,,,,,
,,706995,001,2023-07-24_12h02.54.851,arm3_eps,2022.2.5,Win32,60.26274557,right,-1,0.3,0.5,17,-0.072594087,0.2007,,,,,,71,0,71,0,1,,,,,
,,706995,001,2023-07-24_12h02.54.851,arm3_eps,2022.2.5,Win32,60.26274557,right,-1,0.3,0.5,17,-0.073737066,0.1704,,,,,,72,0,72,0,1,,,,,
,,706995,001,2023-07-24_12h02.54.851,arm3_eps,2022.2.5,Win32,60.26274557,right,-1,0.3,0.5,17,-0.080206798,0.2004,,,,,,73,0,73,0,1,,,,,
,,706995,001,2023-07-24_12h02.54.851,arm3_eps,2022.2.5,Win32,60.26274557,right,-1,0.3,0.5,17,-0.10088521,0.2,,,,,,74,0,74,0,1,,,,,
,,706995,001,2023-07-24_12h02.54.851,arm3_eps,2022.2.5,Win32,60.26274557,down,1,0.3,0.5,17,0,0.3157,,,,,,75,0,75,0,1,,,,,
,,706995,001,2023-07-24_12h02.54.851,arm3_eps,2022.2.5,Win32,60.26274557,right,1,0.3,0.5,17,0.013459668,0.3169,,,,,,76,0,76,0,1,,,,,
,,706995,001,2023-07-24_12h02.54.851,arm3_eps,2022.2.5,Win32,60.26274557,right,1,0.3,0.5,17,0.045421209,0.2338,,,,,,77,0,77,0,1,,,,,
,,706995,001,2023-07-24_12h02.54.851,arm3_eps,2022.2.5,Win32,60.26274557,right,1,0.3,0.5,17,0.073067195,0.2342,,,,,,78,0,78,0,1,,,,,
,,706995,001,2023-07-24_12h02.54.851,arm3_eps,2022.2.5,Win32,60.26274557,right,1,0.3,0.5,17,0.071088375,0.3645,,,,,,79,0,79,0,1,,,,,
,,706995,001,2023-07-24_12h02.54.851,arm3_eps,2022.2.5,Win32,60.26274557,right,1,0.3,0.5,17,0.079919294,0.3414,,,,,,80,0,80,0,1,,,,,
,,706995,001,2023-07-24_12h02.54.851,arm3_eps,2022.2.5,Win32,60.26274557,right,1,0.3,0.5,17,0.10303359,0.2834,,,,,,81,0,81,0,1,,,,,
,,706995,001,2023-07-24_12h02.54.851,arm3_eps,2022.2.5,Win32,60.26274557,up,1,0.3,0.5,18,0,0.2676,,,,,,82,0,82,0,1,,,,,
,,706995,001,2023-07-24_12h02.54.851,arm3_eps,2022.2.5,Win32,60.26274557,right,1,0.3,0.5,18,-0.028857582,0.2478,,,,,,83,0,83,0,1,,,,,
,,706995,001,2023-07-24_12h02.54.851,arm3_eps,2022.2.5,Win32,60.26274557,right,1,0.3,0.5,18,0.01279802,0.2885,,,,,,84,0,84,0,1,,,,,
,,706995,001,2023-07-24_12h02.54.851,arm3_eps,2022.2.5,Win32,60.26274557,right,1,0.3,0.5,18,0.020617975,0.2975,,,,,,85,0,85,0,1,,,,,
,,706995,001,2023-07-24_12h02.54.851,arm3_eps,2022.2.5,Win32,60.26274557,right,1,0.3,0.5,18,0.046863239,0.1986,,,,,,86,0,86,0,1,,,,,
,,706995,001,2023-07-24_12h02.54.851,arm3_eps,2022.2.5,Win32,60.26274557,right,1,0.3,0.5,18,0.056822651,0.1737,,,,,,87,0,87,0,1,,,,,
,,706995,001,2023-07-24_12h02.54.851,arm3_eps,2022.2.5,Win32,60.26274557,right,1,0.3,0.5,18,0.071838326,0.1839,,,,,,88,0,88,0,1,,,,,
,,706995,001,2023-07-24_12h02.54.851,arm3_eps,2022.2.5,Win32,60.26274557,up,1,0.3,0.5,18,0,0.2839,,,,,,89,0,89,0,1,,,,,
,,706995,001,2023-07-24_12h02.54.851,arm3_eps,2022.2.5,Win32,60.26274557,right,1,0.3,0.5,18,0.017069215,0.368,,,,,,90,0,90,0,1,,,,,
,,706995,001,2023-07-24_12h02.54.851,arm3_eps,2022.2.5,Win32,60.26274557,right,1,0.3,0.5,18,0.011555288,0.2998,,,,,,91,0,91,0,1,,,,,
,,706995,001,2023-07-24_12h02.54.851,arm3_eps,2022.2.5,Win32,60.26274557,right,1,0.3,0.5,18,0.047163491,0.1544,,,,,,92,0,92,0,1,,,,,
,,706995,001,2023-07-24_12h02.54.851,arm3_eps,2022.2.5,Win32,60.26274557,right,1,0.3,0.5,18,0.038391514,0.1841,,,,,,93,0,93,0,1,,,,,
,,706995,001,2023-07-24_12h02.54.851,arm3_eps,2022.2.5,Win32,60.26274557,right,1,0.3,0.5,18,0.042097033,0.1837,,,,,,94,0,94,0,1,,,,,
,,706995,001,2023-07-24_12h02.54.851,arm3_eps,2022.2.5,Win32,60.26274557,right,1,0.3,0.5,18,0.039825491,0.1994,,,,,,95,0,95,0,1,,,,,
,,706995,001,2023-07-24_12h02.54.851,arm3_eps,2022.2.5,Win32,60.26274557,right,1,0.3,0.5,18,0.050378169,0.3339,,,,,,96,0,96,0,1,,,,,
,,706995,001,2023-07-24_12h02.54.851,arm3_eps,2022.2.5,Win32,60.26274557,right,1,0.3,0.5,18,0.05438729,0.3756,,,,,,97,0,97,0,1,,,,,
,,706995,001,2023-07-24_12h02.54.851,arm3_eps,2022.2.5,Win32,60.26274557,up,1,0.3,0.5,18,0,0.3839,,,,,,98,0,98,0,1,,,,,
,,706995,001,2023-07-24_12h02.54.851,arm3_eps,2022.2.5,Win32,60.26274557,right,1,0.3,0.5,18,-0.006200071,0.364,,,,,,99,0,99,0,1,,,,,
,,706995,001,2023-07-24_12h02.54.851,arm3_eps,2022.2.5,Win32,60.26274557,right,1,0.3,0.5,18,-0.027518005,0.2876,,,,,,100,0,100,0,1,,,,,
,,706995,001,2023-07-24_12h02.54.851,arm3_eps,2022.2.5,Win32,60.26274557,right,1,0.3,0.5,18,-0.033857721,0.1825,,,,,,101,0,101,0,1,,,,,
,,706995,001,2023-07-24_12h02.54.851,arm3_eps,2022.2.5,Win32,60.26274557,right,1,0.3,0.5,18,-0.02100664,0.2094,,,,,,102,0,102,0,1,,,,,
,,706995,001,2023-07-24_12h02.54.851,arm3_eps,2022.2.5,Win32,60.26274557,right,1,0.3,0.5,18,0.009799238,0.2614,,,,,,103,0,103,0,1,,,,,
,,706995,001,2023-07-24_12h02.54.851,arm3_eps,2022.2.5,Win32,60.26274557,right,1,0.3,0.5,18,0.029772652,0.2427,,,,,,104,0,104,0,1,,,,,
,,706995,001,2023-07-24_12h02.54.851,arm3_eps,2022.2.5,Win32,60.26274557,right,1,0.3,0.5,18,0.001123801,0.2687,,,,,,105,0,105,0,1,,,,,
,,706995,001,2023-07-24_12h02.54.851,arm3_eps,2022.2.5,Win32,60.26274557,right,1,0.3,0.5,18,-0.03733256,0.345,,,,,,106,0,106,0,1,,,,,
,,706995,001,2023-07-24_12h02.54.851,arm3_eps,2022.2.5,Win32,60.26274557,right,1,0.3,0.5,18,-0.061167886,0.3201,,,,,,107,0,107,0,1,,,,,
,,706995,001,2023-07-24_12h02.54.851,arm3_eps,2022.2.5,Win32,60.26274557,right,1,0.3,0.5,18,-0.046273573,0.7405,,,,,,108,0,108,0,1,,,,,
,,706995,001,2023-07-24_12h02.54.851,arm3_eps,2022.2.5,Win32,60.26274557,down,-1,0.3,0.5,17,0,0.3941,,,,,,109,0,109,0,1,,,,,
,,706995,001,2023-07-24_12h02.54.851,arm3_eps,2022.2.5,Win32,60.26274557,right,-1,0.3,0.5,17,-0.002720168,0.4343,,,,,,110,0,110,0,1,,,,,
,,706995,001,2023-07-24_12h02.54.851,arm3_eps,2022.2.5,Win32,60.26274557,right,-1,0.3,0.5,17,0.01188423,0.296,,,,,,111,0,111,0,1,,,,,
,,706995,001,2023-07-24_12h02.54.851,arm3_eps,2022.2.5,Win32,60.26274557,right,-1,0.3,0.5,17,-0.021368585,0.2261,,,,,,112,0,112,0,1,,,,,
,,706995,001,2023-07-24_12h02.54.851,arm3_eps,2022.2.5,Win32,60.26274557,right,-1,0.3,0.5,17,-0.038650933,0.188,,,,,,113,0,113,0,1,,,,,
,,706995,001,2023-07-24_12h02.54.851,arm3_eps,2022.2.5,Win32,60.26274557,right,-1,0.3,0.5,17,-0.01611913,0.1993,,,,,,114,0,114,0,1,,,,,
,,706995,001,2023-07-24_12h02.54.851,arm3_eps,2022.2.5,Win32,60.26274557,right,-1,0.3,0.5,17,-0.017510718,0.1768,,,,,,115,0,115,0,1,,,,,
,,706995,001,2023-07-24_12h02.54.851,arm3_eps,2022.2.5,Win32,60.26274557,right,-1,0.3,0.5,17,0.016662231,0.2428,,,,,,116,0,116,0,1,,,,,
,,706995,001,2023-07-24_12h02.54.851,arm3_eps,2022.2.5,Win32,60.26274557,right,-1,0.3,0.5,17,0.021126833,0.278,,,,,,117,0,117,0,1,,,,,
,,706995,001,2023-07-24_12h02.54.851,arm3_eps,2022.2.5,Win32,60.26274557,right,-1,0.3,0.5,17,0.010966431,0.1927,,,,,,118,0,118,0,1,,,,,
,,706995,001,2023-07-24_12h02.54.851,arm3_eps,2022.2.5,Win32,60.26274557,right,-1,0.3,0.5,17,0.030890599,0.3603,,,,,,119,0,119,0,1,,,,,
,,706995,001,2023-07-24_12h02.54.851,arm3_eps,2022.2.5,Win32,60.26274557,up,1,0.3,0.5,17,0,0.2592,,,,,,120,0,120,0,1,,,,,
,,706995,001,2023-07-24_12h02.54.851,arm3_eps,2022.2.5,Win32,60.26274557,right,1,0.3,0.5,17,-0.001864387,0.7181,,,,,,121,0,121,0,1,,,,,
,,706995,001,2023-07-24_12h02.54.851,arm3_eps,2022.2.5,Win32,60.26274557,right,1,0.3,0.5,17,-0.001582176,0.3646,,,,,,122,0,122,0,1,,,,,
,,706995,001,2023-07-24_12h02.54.851,arm3_eps,2022.2.5,Win32,60.26274557,right,1,0.3,0.5,17,0.006524557,0.2429,,,,,,123,0,123,0,1,,,,,
,,706995,001,2023-07-24_12h02.54.851,arm3_eps,2022.2.5,Win32,60.26274557,right,1,0.3,0.5,17,0.010450526,0.177,,,,,,124,0,124,0,1,,,,,
,,706995,001,2023-07-24_12h02.54.851,arm3_eps,2022.2.5,Win32,60.26274557,right,1,0.3,0.5,17,0.022392999,0.2277,,,,,,125,0,125,0,1,,,,,
,,706995,001,2023-07-24_12h02.54.851,arm3_eps,2022.2.5,Win32,60.26274557,up,1,0.3,0.5,17,0,0.3495,,,,,,126,0,126,0,1,,,,,
,,706995,001,2023-07-24_12h02.54.851,arm3_eps,2022.2.5,Win32,60.26274557,right,1,0.3,0.5,17,0.007160406,0.3603,,,,,,127,0,127,0,1,,,,,
,,706995,001,2023-07-24_12h02.54.851,arm3_eps,2022.2.5,Win32,60.26274557,right,1,0.3,0.5,17,-0.010462181,0.2589,,,,,,128,0,128,0,1,,,,,
,,706995,001,2023-07-24_12h02.54.851,arm3_eps,2022.2.5,Win32,60.26274557,right,1,0.3,0.5,17,-0.00851517,0.1752,,,,,,129,0,129,0,1,,,,,
,,706995,001,2023-07-24_12h02.54.851,arm3_eps,2022.2.5,Win32,60.26274557,right,1,0.3,0.5,17,0.017202153,0.1935,,,,,,130,0,130,0,1,,,,,
,,706995,001,2023-07-24_12h02.54.851,arm3_eps,2022.2.5,Win32,60.26274557,right,1,0.3,0.5,17,0.01928396,0.1815,,,,,,131,0,131,0,1,,,,,
,,706995,001,2023-07-24_12h02.54.851,arm3_eps,2022.2.5,Win32,60.26274557,right,1,0.3,0.5,17,0.025263289,0.1929,,,,,,132,0,132,0,1,,,,,
,,706995,001,2023-07-24_12h02.54.851,arm3_eps,2022.2.5,Win32,60.26274557,right,1,0.3,0.5,17,0.017762003,0.1979,,,,,,133,0,133,0,1,,,,,
,,706995,001,2023-07-24_12h02.54.851,arm3_eps,2022.2.5,Win32,60.26274557,right,1,0.3,0.5,17,0.061078565,0.2268,,,,,,134,0,134,0,1,,,,,
,,706995,001,2023-07-24_12h02.54.851,arm3_eps,2022.2.5,Win32,60.26274557,up,1,0.3,0.5,18,0,0.8429,,,,,,135,0,135,0,1,,,,,
,,706995,001,2023-07-24_12h02.54.851,arm3_eps,2022.2.5,Win32,60.26274557,right,1,0.3,0.5,18,-0.028036162,0.3716,,,,,,136,0,136,0,1,,,,,
,,706995,001,2023-07-24_12h02.54.851,arm3_eps,2022.2.5,Win32,60.26274557,right,1,0.3,0.5,18,-0.014405039,0.2956,,,,,,137,0,137,0,1,,,,,
,,706995,001,2023-07-24_12h02.54.851,arm3_eps,2022.2.5,Win32,60.26274557,right,1,0.3,0.5,18,0.000339306,0.1823,,,,,,138,0,138,0,1,,,,,
,,706995,001,2023-07-24_12h02.54.851,arm3_eps,2022.2.5,Win32,60.26274557,right,1,0.3,0.5,18,0.034209759,0.2168,,,,,,139,0,139,0,1,,,,,
,,706995,001,2023-07-24_12h02.54.851,arm3_eps,2022.2.5,Win32,60.26274557,right,1,0.3,0.5,18,0.022847855,0.1833,,,,,,140,0,140,0,1,,,,,
,,706995,001,2023-07-24_12h02.54.851,arm3_eps,2022.2.5,Win32,60.26274557,right,1,0.3,0.5,18,0.023871558,0.1992,,,,,,141,0,141,0,1,,,,,
,,706995,001,2023-07-24_12h02.54.851,arm3_eps,2022.2.5,Win32,60.26274557,right,1,0.3,0.5,18,0.023537383,0.2006,,,,,,142,0,142,0,1,,,,,
,,706995,001,2023-07-24_12h02.54.851,arm3_eps,2022.2.5,Win32,60.26274557,right,1,0.3,0.5,18,0.043768886,0.2006,,,,,,143,0,143,0,1,,,,,
,,706995,001,2023-07-24_12h02.54.851,arm3_eps,2022.2.5,Win32,60.26274557,right,1,0.3,0.5,18,0.022103609,0.1833,,,,,,144,0,144,0,1,,,,,
,,706995,001,2023-07-24_12h02.54.851,arm3_eps,2022.2.5,Win32,60.26274557,right,1,0.3,0.5,18,0.039596586,0.4341,,,,,,145,0,145,0,1,,,,,
,,706995,001,2023-07-24_12h02.54.851,arm3_eps,2022.2.5,Win32,60.26274557,up,1,0.3,0.5,18,0,0.6673,,,,,,146,0,146,0,1,,,,,
,,706995,001,2023-07-24_12h02.54.851,arm3_eps,2022.2.5,Win32,60.26274557,right,1,0.3,0.5,18,-0.021535412,0.2771,,,,,,147,0,147,0,1,,,,,
,,706995,001,2023-07-24_12h02.54.851,arm3_eps,2022.2.5,Win32,60.26274557,right,1,0.3,0.5,18,-0.000521696,0.2673,,,,,,148,0,148,0,1,,,,,
,,706995,001,2023-07-24_12h02.54.851,arm3_eps,2022.2.5,Win32,60.26274557,right,1,0.3,0.5,18,0.002486887,0.3671,,,,,,149,0,149,0,1,,,,,
,,706995,001,2023-07-24_12h02.54.851,arm3_eps,2022.2.5,Win32,60.26274557,right,1,0.3,0.5,18,0.021185493,0.2168,,,,,,150,0,150,0,1,,,,,
,,706995,001,2023-07-24_12h02.54.851,arm3_eps,2022.2.5,Win32,60.26274557,right,1,0.3,0.5,18,0.016360049,0.1606,,,,,,151,0,151,0,1,,,,,
,,706995,001,2023-07-24_12h02.54.851,arm3_eps,2022.2.5,Win32,60.26274557,right,1,0.3,0.5,18,0.052209714,0.2337,,,,,,152,0,152,0,1,,,,,
,,706995,001,2023-07-24_12h02.54.851,arm3_eps,2022.2.5,Win32,60.26274557,up,1,0.3,0.5,18,0,0.2835,,,,,,153,0,153,0,1,,,,,
,,706995,001,2023-07-24_12h02.54.851,arm3_eps,2022.2.5,Win32,60.26274557,right,1,0.3,0.5,18,0.021399434,0.253,,,,,,154,0,154,0,1,,,,,
,,706995,001,2023-07-24_12h02.54.851,arm3_eps,2022.2.5,Win32,60.26274557,right,1,0.3,0.5,18,0.046803404,0.2211,,,,,,155,0,155,0,1,,,,,
,,706995,001,2023-07-24_12h02.54.851,arm3_eps,2022.2.5,Win32,60.26274557,down,-1,0.3,0.5,17,0,0.2881,,,,,,156,0,156,0,1,,,,,
,,706995,001,2023-07-24_12h02.54.851,arm3_eps,2022.2.5,Win32,60.26274557,right,-1,0.3,0.5,17,0.01106703,0.4505,,,,,,157,0,157,0,1,,,,,
,,706995,001,2023-07-24_12h02.54.851,arm3_eps,2022.2.5,Win32,60.26274557,right,-1,0.3,0.5,17,0.022102557,0.371,,,,,,158,0,158,0,1,,,,,
,,706995,001,2023-07-24_12h02.54.851,arm3_eps,2022.2.5,Win32,60.26274557,right,-1,0.3,0.5,17,0.037444242,0.3331,,,,,,159,0,159,0,1,,,,,
,,706995,001,2023-07-24_12h02.54.851,arm3_eps,2022.2.5,Win32,60.26274557,right,-1,0.3,0.5,17,0.03938868,0.2821,,,,,,160,0,160,0,1,,,,,
,,706995,001,2023-07-24_12h02.54.851,arm3_eps,2022.2.5,Win32,60.26274557,right,-1,0.3,0.5,17,0.036344784,0.3009,,,,,,161,0,161,0,1,,,,,
,,706995,001,2023-07-24_12h02.54.851,arm3_eps,2022.2.5,Win32,60.26274557,up,1,0.3,0.5,17,0,0.3497,,,,,,162,0,162,0,1,,,,,
,,706995,001,2023-07-24_12h02.54.851,arm3_eps,2022.2.5,Win32,60.26274557,right,1,0.3,0.5,17,0.037765572,0.3793,,,,,,163,0,163,0,1,,,,,
,,706995,001,2023-07-24_12h02.54.851,arm3_eps,2022.2.5,Win32,60.26274557,right,1,0.3,0.5,17,0.034377741,0.2349,,,,,,164,0,164,0,1,,,,,
,,706995,001,2023-07-24_12h02.54.851,arm3_eps,2022.2.5,Win32,60.26274557,right,1,0.3,0.5,17,0.054444732,0.1703,,,,,,165,0,165,0,1,,,,,
,,706995,001,2023-07-24_12h02.54.851,arm3_eps,2022.2.5,Win32,60.26274557,right,1,0.3,0.5,17,0.064997871,0.1839,,,,,,166,0,166,0,1,,,,,
,,706995,001,2023-07-24_12h02.54.851,arm3_eps,2022.2.5,Win32,60.26274557,up,1,0.3,0.5,18,0,0.2744,,,,,,167,0,167,0,1,,,,,
,,706995,001,2023-07-24_12h02.54.851,arm3_eps,2022.2.5,Win32,60.26274557,right,1,0.3,0.5,18,0.015479757,0.1884,,,,,,168,0,168,0,1,,,,,
,,706995,001,2023-07-24_12h02.54.851,arm3_eps,2022.2.5,Win32,60.26274557,right,1,0.3,0.5,18,0.011832507,0.2055,,,,,,169,0,169,0,1,,,,,
,,706995,001,2023-07-24_12h02.54.851,arm3_eps,2022.2.5,Win32,60.26274557,right,1,0.3,0.5,18,-0.010049391,0.1977,,,,,,170,0,170,0,1,,,,,
,,706995,001,2023-07-24_12h02.54.851,arm3_eps,2022.2.5,Win32,60.26274557,right,1,0.3,0.5,18,-0.035485554,0.2005,,,,,,171,0,171,0,1,,,,,
,,706995,001,2023-07-24_12h02.54.851,arm3_eps,2022.2.5,Win32,60.26274557,right,1,0.3,0.5,18,-0.013882081,0.1868,,,,,,172,0,172,0,1,,,,,
,,706995,001,2023-07-24_12h02.54.851,arm3_eps,2022.2.5,Win32,60.26274557,right,1,0.3,0.5,18,-0.035341425,0.2003,,,,,,173,0,173,0,1,,,,,
,,706995,001,2023-07-24_12h02.54.851,arm3_eps,2022.2.5,Win32,60.26274557,right,1,0.3,0.5,18,-0.008989219,0.2006,,,,,,174,0,174,0,1,,,,,
,,706995,001,2023-07-24_12h02.54.851,arm3_eps,2022.2.5,Win32,60.26274557,right,1,0.3,0.5,18,-0.004966047,0.2169,,,,,,175,0,175,0,1,,,,,
,,706995,001,2023-07-24_12h02.54.851,arm3_eps,2022.2.5,Win32,60.26274557,right,1,0.3,0.5,18,0.00401582,0.2671,,,,,,176,0,176,0,1,,,,,
,,706995,001,2023-07-24_12h02.54.851,arm3_eps,2022.2.5,Win32,60.26274557,up,-1,0.3,0.5,18,0,1.042,,,,,,177,0,177,0,1,,,,,
,,706995,001,2023-07-24_12h02.54.851,arm3_eps,2022.2.5,Win32,60.26274557,right,-1,0.3,0.5,18,0.001241051,0.4066,,,,,,178,0,178,0,1,,,,,
,,706995,001,2023-07-24_12h02.54.851,arm3_eps,2022.2.5,Win32,60.26274557,right,-1,0.3,0.5,18,-0.010992485,0.3424,,,,,,179,0,179,0,1,,,,,
,,706995,001,2023-07-24_12h02.54.851,arm3_eps,2022.2.5,Win32,60.26274557,right,-1,0.3,0.5,18,-0.029903916,0.2839,,,,,,180,0,180,0,1,,,,,
,,706995,001,2023-07-24_12h02.54.851,arm3_eps,2022.2.5,Win32,60.26274557,right,-1,0.3,0.5,18,-0.036374508,0.2228,,,,,,181,0,181,0,1,,,,,
,,706995,001,2023-07-24_12h02.54.851,arm3_eps,2022.2.5,Win32,60.26274557,down,1,0.3,0.5,19,0,0.3145,,,,,,182,0,182,0,1,,,,,
,,706995,001,2023-07-24_12h02.54.851,arm3_eps,2022.2.5,Win32,60.26274557,right,1,0.3,0.5,19,-0.001979281,0.215,,,,,,183,0,183,0,1,,,,,
,,706995,001,2023-07-24_12h02.54.851,arm3_eps,2022.2.5,Win32,60.26274557,right,1,0.3,0.5,19,-0.012934121,0.2301,,,,,,184,0,184,0,1,,,,,
,,706995,001,2023-07-24_12h02.54.851,arm3_eps,2022.2.5,Win32,60.26274557,right,1,0.3,0.5,19,-0.002802112,0.2164,,,,,,185,0,185,0,1,,,,,
,,706995,001,2023-07-24_12h02.54.851,arm3_eps,2022.2.5,Win32,60.26274557,right,1,0.3,0.5,19,0.012192304,0.2155,,,,,,186,0,186,0,1,,,,,
,,706995,001,2023-07-24_12h02.54.851,arm3_eps,2022.2.5,Win32,60.26274557,right,1,0.3,0.5,19,0.018735241,0.2652,,,,,,187,0,187,0,1,,,,,
,,706995,001,2023-07-24_12h02.54.851,arm3_eps,2022.2.5,Win32,60.26274557,right,1,0.3,0.5,19,-0.014748939,0.1446,,,,,,188,0,188,0,1,,,,,
,,706995,001,2023-07-24_12h02.54.851,arm3_eps,2022.2.5,Win32,60.26274557,right,1,0.3,0.5,19,0.000266588,0.197,,,,,,189,0,189,0,1,,,,,
,,706995,001,2023-07-24_12h02.54.851,arm3_eps,2022.2.5,Win32,60.26274557,right,1,0.3,0.5,19,0.01303263,0.1937,,,,,,190,0,190,0,1,,,,,
,,706995,001,2023-07-24_12h02.54.851,arm3_eps,2022.2.5,Win32,60.26274557,right,1,0.3,0.5,19,0.039458405,0.1793,,,,,,191,0,191,0,1,,,,,
,,706995,001,2023-07-24_12h02.54.851,arm3_eps,2022.2.5,Win32,60.26274557,up,-1,0.3,0.5,20,0,0.4235,,,,,,192,0,192,0,1,,,,,
,,706995,001,2023-07-24_12h02.54.851,arm3_eps,2022.2.5,Win32,60.26274557,right,-1,0.3,0.5,20,0.002769722,0.2392,,,,,,193,0,193,0,1,,,,,
,,706995,001,2023-07-24_12h02.54.851,arm3_eps,2022.2.5,Win32,60.26274557,right,-1,0.3,0.5,20,0.021141889,0.1885,,,,,,194,0,194,0,1,,,,,
,,706995,001,2023-07-24_12h02.54.851,arm3_eps,2022.2.5,Win32,60.26274557,right,-1,0.3,0.5,20,0.014035145,0.1593,,,,,,195,0,195,0,1,,,,,
,,706995,001,2023-07-24_12h02.54.851,arm3_eps,2022.2.5,Win32,60.26274557,right,-1,0.3,0.5,20,0.001013353,0.164,,,,,,196,0,196,0,1,,,,,
,,706995,001,2023-07-24_12h02.54.851,arm3_eps,2022.2.5,Win32,60.26274557,right,-1,0.3,0.5,20,0.012908298,0.1626,,,,,,197,0,197,0,1,,,,,
,,706995,001,2023-07-24_12h02.54.851,arm3_eps,2022.2.5,Win32,60.26274557,right,-1,0.3,0.5,20,0.022787714,0.1777,,,,,,198,0,198,0,1,,,,,
,,706995,001,2023-07-24_12h02.54.851,arm3_eps,2022.2.5,Win32,60.26274557,right,-1,0.3,0.5,20,0.027886702,0.1637,,,,,,199,0,199,0,1,,,,,
,,706995,001,2023-07-24_12h02.54.851,arm3_eps,2022.2.5,Win32,60.26274557,right,-1,0.3,0.5,20,0.050935531,0.1772,,,,,,200,0,200,0,1,,,,,
,,706995,001,2023-07-24_12h02.54.851,arm3_eps,2022.2.5,Win32,60.26274557,right,-1,0.3,0.5,20,0.050114543,0.1649,,,,,,201,0,201,0,1,,,,,
,,706995,001,2023-07-24_12h02.54.851,arm3_eps,2022.2.5,Win32,60.26274557,right,-1,0.3,0.5,20,0.043928193,0.2984,,,,,,202,0,202,0,1,,,,,
,,706995,001,2023-07-24_12h02.54.851,arm3_eps,2022.2.5,Win32,60.26274557,up,-1,0.3,0.5,19,0,0.83,,,,,,203,0,203,0,1,,,,,
,,706995,001,2023-07-24_12h02.54.851,arm3_eps,2022.2.5,Win32,60.26274557,right,-1,0.3,0.5,19,-0.017541338,0.3913,,,,,,204,0,204,0,1,,,,,
,,706995,001,2023-07-24_12h02.54.851,arm3_eps,2022.2.5,Win32,60.26274557,right,-1,0.3,0.5,19,-0.034205209,0.3589,,,,,,205,0,205,0,1,,,,,
,,706995,001,2023-07-24_12h02.54.851,arm3_eps,2022.2.5,Win32,60.26274557,right,-1,0.3,0.5,19,-0.037424266,0.1618,,,,,,206,0,206,0,1,,,,,
,,706995,001,2023-07-24_12h02.54.851,arm3_eps,2022.2.5,Win32,60.26274557,right,-1,0.3,0.5,19,-0.046419763,0.3057,,,,,,207,0,207,0,1,,,,,
,,706995,001,2023-07-24_12h02.54.851,arm3_eps,2022.2.5,Win32,60.26274557,down,1,0.3,0.5,19,0,0.2119,,,,,,208,0,208,0,1,,,,,
,,706995,001,2023-07-24_12h02.54.851,arm3_eps,2022.2.5,Win32,60.26274557,right,1,0.3,0.5,19,0.019847296,0.2222,,,,,,209,0,209,0,1,,,,,
,,706995,001,2023-07-24_12h02.54.851,arm3_eps,2022.2.5,Win32,60.26274557,right,1,0.3,0.5,19,0.039062497,0.2149,,,,,,210,0,210,0,1,,,,,
,,706995,001,2023-07-24_12h02.54.851,arm3_eps,2022.2.5,Win32,60.26274557,right,1,0.3,0.5,19,0.042661301,0.2022,,,,,,211,0,211,0,1,,,,,
,,706995,001,2023-07-24_12h02.54.851,arm3_eps,2022.2.5,Win32,60.26274557,right,1,0.3,0.5,19,0.036401864,0.1935,,,,,,212,0,212,0,1,,,,,
,,706995,001,2023-07-24_12h02.54.851,arm3_eps,2022.2.5,Win32,60.26274557,right,1,0.3,0.5,19,0.049223685,0.1954,,,,,,213,0,213,0,1,,,,,
,,706995,001,2023-07-24_12h02.54.851,arm3_eps,2022.2.5,Win32,60.26274557,right,1,0.3,0.5,19,0.071514983,0.1468,,,,,,214,0,214,0,1,,,,,
,,706995,001,2023-07-24_12h02.54.851,arm3_eps,2022.2.5,Win32,60.26274557,up,1,0.3,0.5,19,0,0.4446,,,,,,215,0,215,0,1,,,,,
,,706995,001,2023-07-24_12h02.54.851,arm3_eps,2022.2.5,Win32,60.26274557,right,1,0.3,0.5,19,0.003412851,0.2109,,,,,,216,0,216,0,1,,,,,
,,706995,001,2023-07-24_12h02.54.851,arm3_eps,2022.2.5,Win32,60.26274557,right,1,0.3,0.5,19,0.058091794,0.2122,,,,,,217,0,217,0,1,,,,,
,,706995,001,2023-07-24_12h02.54.851,arm3_eps,2022.2.5,Win32,60.26274557,right,1,0.3,0.5,19,0.044738802,0.2462,,,,,,218,0,218,0,1,,,,,
,,706995,001,2023-07-24_12h02.54.851,arm3_eps,2022.2.5,Win32,60.26274557,right,1,0.3,0.5,19,0.076455275,0.1948,,,,,,219,0,219,0,1,,,,,
,,706995,001,2023-07-24_12h02.54.851,arm3_eps,2022.2.5,Win32,60.26274557,right,1,0.3,0.5,19,0.088447063,0.2302,,,,,,220,0,220,0,1,,,,,
,,706995,001,2023-07-24_12h02.54.851,arm3_eps,2022.2.5,Win32,60.26274557,up,-1,0.3,0.5,19,0,0.3833,,,,,,221,0,221,0,1,,,,,
,,706995,001,2023-07-24_12h02.54.851,arm3_eps,2022.2.5,Win32,60.26274557,right,-1,0.3,0.5,19,-0.027115064,0.2984,,,,,,222,0,222,0,1,,,,,
,,706995,001,2023-07-24_12h02.54.851,arm3_eps,2022.2.5,Win32,60.26274557,right,-1,0.3,0.5,19,-0.052993521,0.2954,,,,,,223,0,223,0,1,,,,,
,,706995,001,2023-07-24_12h02.54.851,arm3_eps,2022.2.5,Win32,60.26274557,right,-1,0.3,0.5,19,-0.070221552,0.1799,,,,,,224,0,224,0,1,,,,,
,,706995,001,2023-07-24_12h02.54.851,arm3_eps,2022.2.5,Win32,60.26274557,down,-1,0.3,0.5,19,0,0.4134,,,,,,225,0,225,0,1,,,,,
,,706995,001,2023-07-24_12h02.54.851,arm3_eps,2022.2.5,Win32,60.26274557,right,-1,0.3,0.5,19,-0.019098155,0.3625,,,,,,226,0,226,0,1,,,,,
,,706995,001,2023-07-24_12h02.54.851,arm3_eps,2022.2.5,Win32,60.26274557,right,-1,0.3,0.5,19,-0.023748704,0.2934,,,,,,227,0,227,0,1,,,,,
,,706995,001,2023-07-24_12h02.54.851,arm3_eps,2022.2.5,Win32,60.26274557,right,-1,0.3,0.5,19,-0.034976538,0.1768,,,,,,228,0,228,0,1,,,,,
,,706995,001,2023-07-24_12h02.54.851,arm3_eps,2022.2.5,Win32,60.26274557,right,-1,0.3,0.5,19,-0.045258821,0.1932,,,,,,229,0,229,0,1,,,,,
,,706995,001,2023-07-24_12h02.54.851,arm3_eps,2022.2.5,Win32,60.26274557,right,-1,0.3,0.5,19,-0.071824473,0.1777,,,,,,230,0,230,0,1,,,,,
,,706995,001,2023-07-24_12h02.54.851,arm3_eps,2022.2.5,Win32,60.26274557,right,-1,0.3,0.5,19,-0.095314036,0.1646,,,,,,231,0,231,0,1,,,,,
,,706995,001,2023-07-24_12h02.54.851,arm3_eps,2022.2.5,Win32,60.26274557,right,-1,0.3,0.5,19,-0.074019144,0.1778,,,,,,232,0,232,0,1,,,,,
,,706995,001,2023-07-24_12h02.54.851,arm3_eps,2022.2.5,Win32,60.26274557,down,-1,0.3,0.5,19,0,0.2757,,,,,,233,0,233,0,1,,,,,
,,706995,001,2023-07-24_12h02.54.851,arm3_eps,2022.2.5,Win32,60.26274557,down,-1,0.3,0.5,19,0,0.458,,,,,,234,0,234,0,1,,,,,
,,706995,001,2023-07-24_12h02.54.851,arm3_eps,2022.2.5,Win32,60.26274557,right,-1,0.3,0.5,19,-0.012538835,0.7472,,,,,,235,0,235,0,1,,,,,
,,706995,001,2023-07-24_12h02.54.851,arm3_eps,2022.2.5,Win32,60.26274557,right,-1,0.3,0.5,19,-0.011767719,0.4997,,,,,,236,0,236,0,1,,,,,
,,706995,001,2023-07-24_12h02.54.851,arm3_eps,2022.2.5,Win32,60.26274557,right,-1,0.3,0.5,19,-0.032014221,0.3096,,,,,,237,0,237,0,1,,,,,
,,706995,001,2023-07-24_12h02.54.851,arm3_eps,2022.2.5,Win32,60.26274557,right,-1,0.3,0.5,19,-0.0347661,0.1596,,,,,,238,0,238,0,1,,,,,
,,706995,001,2023-07-24_12h02.54.851,arm3_eps,2022.2.5,Win32,60.26274557,right,-1,0.3,0.5,19,-0.065480738,0.1449,,,,,,239,0,239,0,1,,,,,
,,706995,001,2023-07-24_12h02.54.851,arm3_eps,2022.2.5,Win32,60.26274557,down,1,0.3,0.5,19,0,0.4268,,,,,,240,0,240,0,1,,,,,
,,706995,001,2023-07-24_12h02.54.851,arm3_eps,2022.2.5,Win32,60.26274557,right,1,0.3,0.5,19,0.011747723,0.3086,,,,,,241,0,241,0,1,,,,,
,,706995,001,2023-07-24_12h02.54.851,arm3_eps,2022.2.5,Win32,60.26274557,right,1,0.3,0.5,19,-0.005066415,0.1927,,,,,,242,0,242,0,1,,,,,
,,706995,001,2023-07-24_12h02.54.851,arm3_eps,2022.2.5,Win32,60.26274557,right,1,0.3,0.5,19,0.01011128,0.1506,,,,,,243,0,243,0,1,,,,,
,,706995,001,2023-07-24_12h02.54.851,arm3_eps,2022.2.5,Win32,60.26274557,right,1,0.3,0.5,19,0.027632105,0.1779,,,,,,244,0,244,0,1,,,,,
,,706995,001,2023-07-24_12h02.54.851,arm3_eps,2022.2.5,Win32,60.26274557,right,1,0.3,0.5,19,0.062481799,0.1936,,,,,,245,0,245,0,1,,,,,
,,706995,001,2023-07-24_12h02.54.851,arm3_eps,2022.2.5,Win32,60.26274557,up,-1,0.3,0.5,20,0,0.3607,,,,,,246,0,246,0,1,,,,,
,,706995,001,2023-07-24_12h02.54.851,arm3_eps,2022.2.5,Win32,60.26274557,right,-1,0.3,0.5,20,-0.028032014,0.3319,,,,,,247,0,247,0,1,,,,,
,,706995,001,2023-07-24_12h02.54.851,arm3_eps,2022.2.5,Win32,60.26274557,right,-1,0.3,0.5,20,-0.046911791,0.2749,,,,,,248,0,248,0,1,,,,,
,,706995,001,2023-07-24_12h02.54.851,arm3_eps,2022.2.5,Win32,60.26274557,right,-1,0.3,0.5,20,-0.049977937,0.2282,,,,,,249,0,249,0,1,,,,,
,,706995,001,2023-07-24_12h02.54.851,arm3_eps,2022.2.5,Win32,60.26274557,right,-1,0.3,0.5,20,-0.069937543,0.1806,,,,,,250,0,250,0,1,,,,,
,,706995,001,2023-07-24_12h02.54.851,arm3_eps,2022.2.5,Win32,60.26274557,right,-1,0.3,0.5,20,-0.059744811,0.1938,,,,,,251,0,251,0,1,,,,,
,,706995,001,2023-07-24_12h02.54.851,arm3_eps,2022.2.5,Win32,60.26274557,right,-1,0.3,0.5,20,-0.100919224,0.1947,,,,,,252,0,252,0,1,,,,,
,,706995,001,2023-07-24_12h02.54.851,arm3_eps,2022.2.5,Win32,60.26274557,down,1,0.3,0.5,20,0,0.2959,,,,,,253,0,253,0,1,,,,,
,,706995,001,2023-07-24_12h02.54.851,arm3_eps,2022.2.5,Win32,60.26274557,right,1,0.3,0.5,20,0.006430457,0.5548,,,,,,254,0,254,0,1,,,,,
,,706995,001,2023-07-24_12h02.54.851,arm3_eps,2022.2.5,Win32,60.26274557,right,1,0.3,0.5,20,0.032835912,0.2091,,,,,,255,0,255,0,1,,,,,
,,706995,001,2023-07-24_12h02.54.851,arm3_eps,2022.2.5,Win32,60.26274557,right,1,0.3,0.5,20,0.065799977,0.2121,,,,,,256,0,256,0,1,,,,,
,,706995,001,2023-07-24_12h02.54.851,arm3_eps,2022.2.5,Win32,60.26274557,right,1,0.3,0.5,20,0.059035135,0.1464,,,,,,257,0,257,0,1,,,,,
,,706995,001,2023-07-24_12h02.54.851,arm3_eps,2022.2.5,Win32,60.26274557,right,1,0.3,0.5,20,0.081222395,0.1945,,,,,,258,0,258,0,1,,,,,
,,706995,001,2023-07-24_12h02.54.851,arm3_eps,2022.2.5,Win32,60.26274557,up,-1,0.3,0.5,20,0,0.6484,,,,,,259,0,259,0,1,,,,,
,,706995,001,2023-07-24_12h02.54.851,arm3_eps,2022.2.5,Win32,60.26274557,right,-1,0.3,0.5,20,-0.000166573,0.4057,,,,,,260,0,260,0,1,,,,,
,,706995,001,2023-07-24_12h02.54.851,arm3_eps,2022.2.5,Win32,60.26274557,right,-1,0.3,0.5,20,-0.002712013,0.2774,,,,,,261,0,261,0,1,,,,,
,,706995,001,2023-07-24_12h02.54.851,arm3_eps,2022.2.5,Win32,60.26274557,right,-1,0.3,0.5,20,-0.002861939,0.1921,,,,,,262,0,262,0,1,,,,,
,,706995,001,2023-07-24_12h02.54.851,arm3_eps,2022.2.5,Win32,60.26274557,right,-1,0.3,0.5,20,-0.022899348,0.1803,,,,,,263,0,263,0,1,,,,,
,,706995,001,2023-07-24_12h02.54.851,arm3_eps,2022.2.5,Win32,60.26274557,right,-1,0.3,0.5,20,-0.039738907,0.1815,,,,,,264,0,264,0,1,,,,,
,,706995,001,2023-07-24_12h02.54.851,arm3_eps,2022.2.5,Win32,60.26274557,right,-1,0.3,0.5,20,-0.034391279,0.1803,,,,,,265,0,265,0,1,,,,,
,,706995,001,2023-07-24_12h02.54.851,arm3_eps,2022.2.5,Win32,60.26274557,right,-1,0.3,0.5,20,-0.027246524,0.4082,,,,,,266,0,266,0,1,,,,,
,,706995,001,2023-07-24_12h02.54.851,arm3_eps,2022.2.5,Win32,60.26274557,down,1,0.3,0.5,20,0,0.5427,,,,,,267,0,267,0,1,,,,,
,,706995,001,2023-07-24_12h02.54.851,arm3_eps,2022.2.5,Win32,60.26274557,right,1,0.3,0.5,20,0.026824143,0.4062,,,,,,268,0,268,0,1,,,,,
,,706995,001,2023-07-24_12h02.54.851,arm3_eps,2022.2.5,Win32,60.26274557,right,1,0.3,0.5,20,0.042968086,0.2446,,,,,,269,0,269,0,1,,,,,
,,706995,001,2023-07-24_12h02.54.851,arm3_eps,2022.2.5,Win32,60.26274557,right,1,0.3,0.5,20,0.04304015,0.1763,,,,,,270,0,270,0,1,,,,,
,,706995,001,2023-07-24_12h02.54.851,arm3_eps,2022.2.5,Win32,60.26274557,right,1,0.3,0.5,20,0.048539536,0.1804,,,,,,271,0,271,0,1,,,,,
,,706995,001,2023-07-24_12h02.54.851,arm3_eps,2022.2.5,Win32,60.26274557,right,1,0.3,0.5,20,0.043067563,0.1964,,,,,,272,0,272,0,1,,,,,
,,706995,001,2023-07-24_12h02.54.851,arm3_eps,2022.2.5,Win32,60.26274557,right,1,0.3,0.5,20,0.024113603,0.2098,,,,,,273,0,273,0,1,,,,,
,,706995,001,2023-07-24_12h02.54.851,arm3_eps,2022.2.5,Win32,60.26274557,right,1,0.3,0.5,20,0.070920897,0.3791,,,,,,274,0,274,0,1,,,,,
,,706995,001,2023-07-24_12h02.54.851,arm3_eps,2022.2.5,Win32,60.26274557,up,-1,0.3,0.5,21,0,0.2778,,,,,,275,0,275,0,1,,,,,
,,706995,001,2023-07-24_12h02.54.851,arm3_eps,2022.2.5,Win32,60.26274557,right,-1,0.3,0.5,21,-0.020149506,0.3701,,,,,,276,0,276,0,1,,,,,
,,706995,001,2023-07-24_12h02.54.851,arm3_eps,2022.2.5,Win32,60.26274557,right,-1,0.3,0.5,21,-0.036850292,0.241,,,,,,277,0,277,0,1,,,,,
,,706995,001,2023-07-24_12h02.54.851,arm3_eps,2022.2.5,Win32,60.26274557,right,-1,0.3,0.5,21,-0.03297692,0.2675,,,,,,278,0,278,0,1,,,,,
,,706995,001,2023-07-24_12h02.54.851,arm3_eps,2022.2.5,Win32,60.26274557,right,-1,0.3,0.5,21,-0.039135999,0.2656,,,,,,279,0,279,0,1,,,,,
,,706995,001,2023-07-24_12h02.54.851,arm3_eps,2022.2.5,Win32,60.26274557,right,-1,0.3,0.5,21,-0.055520968,0.2074,,,,,,280,0,280,0,1,,,,,
,,706995,001,2023-07-24_12h02.54.851,arm3_eps,2022.2.5,Win32,60.26274557,right,-1,0.3,0.5,21,-0.048672485,0.2009,,,,,,281,0,281,0,1,,,,,
,,706995,001,2023-07-24_12h02.54.851,arm3_eps,2022.2.5,Win32,60.26274557,down,1,0.3,0.5,21,0,0.4003,,,,,,282,0,282,0,1,,,,,
,,706995,001,2023-07-24_12h02.54.851,arm3_eps,2022.2.5,Win32,60.26274557,right,1,0.3,0.5,21,0.017531547,0.352,,,,,,283,0,283,0,1,,,,,
,,706995,001,2023-07-24_12h02.54.851,arm3_eps,2022.2.5,Win32,60.26274557,right,1,0.3,0.5,21,0.028155891,0.2345,,,,,,284,0,284,0,1,,,,,
,,706995,001,2023-07-24_12h02.54.851,arm3_eps,2022.2.5,Win32,60.26274557,right,1,0.3,0.5,21,0.084039454,0.1418,,,,,,285,0,285,0,1,,,,,
,,706995,001,2023-07-24_12h02.54.851,arm3_eps,2022.2.5,Win32,60.26274557,right,1,0.3,0.5,21,0.060231555,0.167,,,,,,286,0,286,0,1,,,,,
,,706995,001,2023-07-24_12h02.54.851,arm3_eps,2022.2.5,Win32,60.26274557,right,1,0.3,0.5,21,0.056673214,0.2846,,,,,,287,0,287,0,1,,,,,
,,706995,001,2023-07-24_12h02.54.851,arm3_eps,2022.2.5,Win32,60.26274557,up,-1,0.3,0.5,21,0,0.5501,,,,,,288,0,288,0,1,,,,,
,,706995,001,2023-07-24_12h02.54.851,arm3_eps,2022.2.5,Win32,60.26274557,right,-1,0.3,0.5,21,-0.016139916,0.2991,,,,,,289,0,289,0,1,,,,,
,,706995,001,2023-07-24_12h02.54.851,arm3_eps,2022.2.5,Win32,60.26274557,right,-1,0.3,0.5,21,-0.048240924,0.2632,,,,,,290,0,290,0,1,,,,,
,,706995,001,2023-07-24_12h02.54.851,arm3_eps,2022.2.5,Win32,60.26274557,right,-1,0.3,0.5,21,-0.072817776,0.1688,,,,,,291,0,291,0,1,,,,,
,,706995,001,2023-07-24_12h02.54.851,arm3_eps,2022.2.5,Win32,60.26274557,right,-1,0.3,0.5,21,-0.057615822,0.2164,,,,,,292,0,292,0,1,,,,,
,,706995,001,2023-07-24_12h02.54.851,arm3_eps,2022.2.5,Win32,60.26274557,right,-1,0.3,0.5,21,-0.084287683,0.3174,,,,,,293,0,293,0,1,,,,,
,,706995,001,2023-07-24_12h02.54.851,arm3_eps,2022.2.5,Win32,60.26274557,down,-1,0.3,0.5,21,0,0.2804,,,,,,294,0,294,0,1,,,,,
,,706995,001,2023-07-24_12h02.54.851,arm3_eps,2022.2.5,Win32,60.26274557,right,-1,0.3,0.5,21,0.016976093,0.2437,,,,,,295,0,295,0,1,,,,,
,,706995,001,2023-07-24_12h02.54.851,arm3_eps,2022.2.5,Win32,60.26274557,right,-1,0.3,0.5,21,0.002877032,0.2314,,,,,,296,0,296,0,1,,,,,
,,706995,001,2023-07-24_12h02.54.851,arm3_eps,2022.2.5,Win32,60.26274557,right,-1,0.3,0.5,21,0.004477891,0.1838,,,,,,297,0,297,0,1,,,,,
,,706995,001,2023-07-24_12h02.54.851,arm3_eps,2022.2.5,Win32,60.26274557,right,-1,0.3,0.5,21,0.01069653,0.184,,,,,,298,0,298,0,1,,,,,
,,706995,001,2023-07-24_12h02.54.851,arm3_eps,2022.2.5,Win32,60.26274557,right,-1,0.3,0.5,21,-0.012411562,0.184,,,,,,299,0,299,0,1,,,,,
,,706995,001,2023-07-24_12h02.54.851,arm3_eps,2022.2.5,Win32,60.26274557,right,-1,0.3,0.5,21,0.013213045,0.1671,,,,,,300,0,300,0,1,,,,,
,,706995,001,2023-07-24_12h02.54.851,arm3_eps,2022.2.5,Win32,60.26274557,right,-1,0.3,0.5,21,-0.023919679,0.201,,,,,,301,0,301,0,1,,,,,
,,706995,001,2023-07-24_12h02.54.851,arm3_eps,2022.2.5,Win32,60.26274557,right,-1,0.3,0.5,21,-0.039695178,0.2175,,,,,,302,0,302,0,1,,,,,
,,706995,001,2023-07-24_12h02.54.851,arm3_eps,2022.2.5,Win32,60.26274557,down,-1,0.3,0.5,21,0,0.4256,,,,,,303,0,303,0,1,,,,,
