space_bar.keys,space_bar.rt,participant,session,date,expName,psychopyVersion,OS,frameRate,PROLIFIC_PID,STUDY_ID,SESSION_ID,resp.keys,state,q_prob,eps_prob,score,price,resp.rt,train.thisRepN,train.thisTrialN,train.thisN,train.thisIndex,train.ran,steps.thisRepN,steps.thisTrialN,steps.thisN,steps.thisIndex,steps.ran,blocks.thisRepN,blocks.thisTrialN,blocks.thisN,blocks.thisIndex,blocks.ran
space,77.2666,707334,001,2023-07-24_13h08.25.368,arm3_eps,2022.2.5,Win32,59.44596362,5fbfb99036e420313c504a36,64aea9d0f615b6559c281482,64becb8ae6d57629a3e699c0,,,,,,,,,,,,,,,,,,,,,,
space,28.8764,707334,001,2023-07-24_13h08.25.368,arm3_eps,2022.2.5,Win32,59.44596362,5fbfb99036e420313c504a36,64aea9d0f615b6559c281482,64becb8ae6d57629a3e699c0,,,,,,,,,,,,,,,,,,,,,,
space,15.2155,707334,001,2023-07-24_13h08.25.368,arm3_eps,2022.2.5,Win32,59.44596362,5fbfb99036e420313c504a36,64aea9d0f615b6559c281482,64becb8ae6d57629a3e699c0,,,,,,,,,,,,,,,,,,,,,,
space,21.4163,707334,001,2023-07-24_13h08.25.368,arm3_eps,2022.2.5,Win32,59.44596362,5fbfb99036e420313c504a36,64aea9d0f615b6559c281482,64becb8ae6d57629a3e699c0,,,,,,,,,,,,,,,,,,,,,,
space,40.6052,707334,001,2023-07-24_13h08.25.368,arm3_eps,2022.2.5,Win32,59.44596362,5fbfb99036e420313c504a36,64aea9d0f615b6559c281482,64becb8ae6d57629a3e699c0,,,,,,,,,,,,,,,,,,,,,,
space,35.3616,707334,001,2023-07-24_13h08.25.368,arm3_eps,2022.2.5,Win32,59.44596362,5fbfb99036e420313c504a36,64aea9d0f615b6559c281482,64becb8ae6d57629a3e699c0,,,,,,,,,,,,,,,,,,,,,,
space,10.0675,707334,001,2023-07-24_13h08.25.368,arm3_eps,2022.2.5,Win32,59.44596362,5fbfb99036e420313c504a36,64aea9d0f615b6559c281482,64becb8ae6d57629a3e699c0,,,,,,,,,,,,,,,,,,,,,,
space,66.7197,707334,001,2023-07-24_13h08.25.368,arm3_eps,2022.2.5,Win32,59.44596362,5fbfb99036e420313c504a36,64aea9d0f615b6559c281482,64becb8ae6d57629a3e699c0,,,,,,,,,,,,,,,,,,,,,,
space,39.5401,707334,001,2023-07-24_13h08.25.368,arm3_eps,2022.2.5,Win32,59.44596362,5fbfb99036e420313c504a36,64aea9d0f615b6559c281482,64becb8ae6d57629a3e699c0,,,,,,,,,,,,,,,,,,,,,,
space,16.4871,707334,001,2023-07-24_13h08.25.368,arm3_eps,2022.2.5,Win32,59.44596362,5fbfb99036e420313c504a36,64aea9d0f615b6559c281482,64becb8ae6d57629a3e699c0,,,,,,,,,,,,,,,,,,,,,,
,,707334,001,2023-07-24_13h08.25.368,arm3_eps,2022.2.5,Win32,59.44596362,5fbfb99036e420313c504a36,64aea9d0f615b6559c281482,64becb8ae6d57629a3e699c0,up,1,0.3,0.2429,-1,0,4.9154,0,0,0,0,1,,,,,,,,,,
,,707334,001,2023-07-24_13h08.25.368,arm3_eps,2022.2.5,Win32,59.44596362,5fbfb99036e420313c504a36,64aea9d0f615b6559c281482,64becb8ae6d57629a3e699c0,right,1,0.3,0.2429,-1,0.003702475,3.5019,1,0,1,0,1,,,,,,,,,,
,,707334,001,2023-07-24_13h08.25.368,arm3_eps,2022.2.5,Win32,59.44596362,5fbfb99036e420313c504a36,64aea9d0f615b6559c281482,64becb8ae6d57629a3e699c0,right,1,0.3,0.2429,-1,0.035389785,2.0367,2,0,2,0,1,,,,,,,,,,
,,707334,001,2023-07-24_13h08.25.368,arm3_eps,2022.2.5,Win32,59.44596362,5fbfb99036e420313c504a36,64aea9d0f615b6559c281482,64becb8ae6d57629a3e699c0,up,1,0.3,0.2429,0,0,0.945,3,0,3,0,1,,,,,,,,,,
,,707334,001,2023-07-24_13h08.25.368,arm3_eps,2022.2.5,Win32,59.44596362,5fbfb99036e420313c504a36,64aea9d0f615b6559c281482,64becb8ae6d57629a3e699c0,right,1,0.3,0.2429,0,0.013061837,1.2885,4,0,4,0,1,,,,,,,,,,
,,707334,001,2023-07-24_13h08.25.368,arm3_eps,2022.2.5,Win32,59.44596362,5fbfb99036e420313c504a36,64aea9d0f615b6559c281482,64becb8ae6d57629a3e699c0,right,1,0.3,0.2429,0,0.006792239,0.4111,5,0,5,0,1,,,,,,,,,,
,,707334,001,2023-07-24_13h08.25.368,arm3_eps,2022.2.5,Win32,59.44596362,5fbfb99036e420313c504a36,64aea9d0f615b6559c281482,64becb8ae6d57629a3e699c0,right,1,0.3,0.2429,0,0.025916206,0.3532,6,0,6,0,1,,,,,,,,,,
,,707334,001,2023-07-24_13h08.25.368,arm3_eps,2022.2.5,Win32,59.44596362,5fbfb99036e420313c504a36,64aea9d0f615b6559c281482,64becb8ae6d57629a3e699c0,right,1,0.3,0.2429,0,0.054798413,0.3274,7,0,7,0,1,,,,,,,,,,
,,707334,001,2023-07-24_13h08.25.368,arm3_eps,2022.2.5,Win32,59.44596362,5fbfb99036e420313c504a36,64aea9d0f615b6559c281482,64becb8ae6d57629a3e699c0,right,1,0.3,0.2429,0,0.055413861,0.3791,8,0,8,0,1,,,,,,,,,,
,,707334,001,2023-07-24_13h08.25.368,arm3_eps,2022.2.5,Win32,59.44596362,5fbfb99036e420313c504a36,64aea9d0f615b6559c281482,64becb8ae6d57629a3e699c0,up,1,0.3,0.2429,1,0,0.7104,9,0,9,0,1,,,,,,,,,,
,,707334,001,2023-07-24_13h08.25.368,arm3_eps,2022.2.5,Win32,59.44596362,5fbfb99036e420313c504a36,64aea9d0f615b6559c281482,64becb8ae6d57629a3e699c0,right,1,0.3,0.2429,1,0.03774797,0.6147,10,0,10,0,1,,,,,,,,,,
,,707334,001,2023-07-24_13h08.25.368,arm3_eps,2022.2.5,Win32,59.44596362,5fbfb99036e420313c504a36,64aea9d0f615b6559c281482,64becb8ae6d57629a3e699c0,right,1,0.3,0.2429,1,0.051412837,0.8364,11,0,11,0,1,,,,,,,,,,
,,707334,001,2023-07-24_13h08.25.368,arm3_eps,2022.2.5,Win32,59.44596362,5fbfb99036e420313c504a36,64aea9d0f615b6559c281482,64becb8ae6d57629a3e699c0,right,1,0.3,0.2429,1,0.091216051,0.3108,12,0,12,0,1,,,,,,,,,,
,,707334,001,2023-07-24_13h08.25.368,arm3_eps,2022.2.5,Win32,59.44596362,5fbfb99036e420313c504a36,64aea9d0f615b6559c281482,64becb8ae6d57629a3e699c0,right,1,0.3,0.2429,1,0.078611085,0.3465,13,0,13,0,1,,,,,,,,,,
,,707334,001,2023-07-24_13h08.25.368,arm3_eps,2022.2.5,Win32,59.44596362,5fbfb99036e420313c504a36,64aea9d0f615b6559c281482,64becb8ae6d57629a3e699c0,right,1,0.3,0.2429,1,0.080867099,0.3099,14,0,14,0,1,,,,,,,,,,
,,707334,001,2023-07-24_13h08.25.368,arm3_eps,2022.2.5,Win32,59.44596362,5fbfb99036e420313c504a36,64aea9d0f615b6559c281482,64becb8ae6d57629a3e699c0,right,1,0.3,0.2429,1,0.069724233,0.4445,15,0,15,0,1,,,,,,,,,,
,,707334,001,2023-07-24_13h08.25.368,arm3_eps,2022.2.5,Win32,59.44596362,5fbfb99036e420313c504a36,64aea9d0f615b6559c281482,64becb8ae6d57629a3e699c0,right,1,0.3,0.2429,1,0.082133766,0.5008,16,0,16,0,1,,,,,,,,,,
,,707334,001,2023-07-24_13h08.25.368,arm3_eps,2022.2.5,Win32,59.44596362,5fbfb99036e420313c504a36,64aea9d0f615b6559c281482,64becb8ae6d57629a3e699c0,right,1,0.3,0.2429,1,0.054602636,0.3119,17,0,17,0,1,,,,,,,,,,
,,707334,001,2023-07-24_13h08.25.368,arm3_eps,2022.2.5,Win32,59.44596362,5fbfb99036e420313c504a36,64aea9d0f615b6559c281482,64becb8ae6d57629a3e699c0,down,1,0.3,0.2429,1,0,0.4762,18,0,18,0,1,,,,,,,,,,
,,707334,001,2023-07-24_13h08.25.368,arm3_eps,2022.2.5,Win32,59.44596362,5fbfb99036e420313c504a36,64aea9d0f615b6559c281482,64becb8ae6d57629a3e699c0,right,1,0.3,0.2429,1,0.012476637,1.1898,19,0,19,0,1,,,,,,,,,,
,,707334,001,2023-07-24_13h08.25.368,arm3_eps,2022.2.5,Win32,59.44596362,5fbfb99036e420313c504a36,64aea9d0f615b6559c281482,64becb8ae6d57629a3e699c0,right,1,0.3,0.2429,1,0.003868803,0.3658,20,0,20,0,1,,,,,,,,,,
,,707334,001,2023-07-24_13h08.25.368,arm3_eps,2022.2.5,Win32,59.44596362,5fbfb99036e420313c504a36,64aea9d0f615b6559c281482,64becb8ae6d57629a3e699c0,right,1,0.3,0.2429,1,0.00797396,0.3969,21,0,21,0,1,,,,,,,,,,
,,707334,001,2023-07-24_13h08.25.368,arm3_eps,2022.2.5,Win32,59.44596362,5fbfb99036e420313c504a36,64aea9d0f615b6559c281482,64becb8ae6d57629a3e699c0,right,1,0.3,0.2429,1,-0.007560056,0.2978,22,0,22,0,1,,,,,,,,,,
,,707334,001,2023-07-24_13h08.25.368,arm3_eps,2022.2.5,Win32,59.44596362,5fbfb99036e420313c504a36,64aea9d0f615b6559c281482,64becb8ae6d57629a3e699c0,right,1,0.3,0.2429,1,0.023102735,0.286,23,0,23,0,1,,,,,,,,,,
,,707334,001,2023-07-24_13h08.25.368,arm3_eps,2022.2.5,Win32,59.44596362,5fbfb99036e420313c504a36,64aea9d0f615b6559c281482,64becb8ae6d57629a3e699c0,right,1,0.3,0.2429,1,0.038607885,0.4959,24,0,24,0,1,,,,,,,,,,
,,707334,001,2023-07-24_13h08.25.368,arm3_eps,2022.2.5,Win32,59.44596362,5fbfb99036e420313c504a36,64aea9d0f615b6559c281482,64becb8ae6d57629a3e699c0,right,1,0.3,0.2429,1,0.042608088,0.2983,25,0,25,0,1,,,,,,,,,,
,,707334,001,2023-07-24_13h08.25.368,arm3_eps,2022.2.5,Win32,59.44596362,5fbfb99036e420313c504a36,64aea9d0f615b6559c281482,64becb8ae6d57629a3e699c0,right,1,0.3,0.2429,1,0.071778745,0.3092,26,0,26,0,1,,,,,,,,,,
,,707334,001,2023-07-24_13h08.25.368,arm3_eps,2022.2.5,Win32,59.44596362,5fbfb99036e420313c504a36,64aea9d0f615b6559c281482,64becb8ae6d57629a3e699c0,right,1,0.3,0.2429,1,0.084634364,0.2786,27,0,27,0,1,,,,,,,,,,
,,707334,001,2023-07-24_13h08.25.368,arm3_eps,2022.2.5,Win32,59.44596362,5fbfb99036e420313c504a36,64aea9d0f615b6559c281482,64becb8ae6d57629a3e699c0,right,1,0.3,0.2429,1,0.094090132,0.2426,28,0,28,0,1,,,,,,,,,,
,,707334,001,2023-07-24_13h08.25.368,arm3_eps,2022.2.5,Win32,59.44596362,5fbfb99036e420313c504a36,64aea9d0f615b6559c281482,64becb8ae6d57629a3e699c0,right,1,0.3,0.2429,1,0.085375734,0.2623,29,0,29,0,1,,,,,,,,,,
,,707334,001,2023-07-24_13h08.25.368,arm3_eps,2022.2.5,Win32,59.44596362,5fbfb99036e420313c504a36,64aea9d0f615b6559c281482,64becb8ae6d57629a3e699c0,right,1,0.3,0.2429,1,0.084500474,0.2155,30,0,30,0,1,,,,,,,,,,
,,707334,001,2023-07-24_13h08.25.368,arm3_eps,2022.2.5,Win32,59.44596362,5fbfb99036e420313c504a36,64aea9d0f615b6559c281482,64becb8ae6d57629a3e699c0,up,-1,0.3,0.2429,1,0,1.4451,31,0,31,0,1,,,,,,,,,,
,,707334,001,2023-07-24_13h08.25.368,arm3_eps,2022.2.5,Win32,59.44596362,5fbfb99036e420313c504a36,64aea9d0f615b6559c281482,64becb8ae6d57629a3e699c0,right,-1,0.3,0.2429,1,-0.02291808,1.3038,32,0,32,0,1,,,,,,,,,,
,,707334,001,2023-07-24_13h08.25.368,arm3_eps,2022.2.5,Win32,59.44596362,5fbfb99036e420313c504a36,64aea9d0f615b6559c281482,64becb8ae6d57629a3e699c0,right,-1,0.3,0.2429,1,-0.01125226,0.2962,33,0,33,0,1,,,,,,,,,,
,,707334,001,2023-07-24_13h08.25.368,arm3_eps,2022.2.5,Win32,59.44596362,5fbfb99036e420313c504a36,64aea9d0f615b6559c281482,64becb8ae6d57629a3e699c0,right,-1,0.3,0.2429,1,-0.015767325,0.2284,34,0,34,0,1,,,,,,,,,,
,,707334,001,2023-07-24_13h08.25.368,arm3_eps,2022.2.5,Win32,59.44596362,5fbfb99036e420313c504a36,64aea9d0f615b6559c281482,64becb8ae6d57629a3e699c0,right,-1,0.3,0.2429,1,-0.020349025,0.2463,35,0,35,0,1,,,,,,,,,,
,,707334,001,2023-07-24_13h08.25.368,arm3_eps,2022.2.5,Win32,59.44596362,5fbfb99036e420313c504a36,64aea9d0f615b6559c281482,64becb8ae6d57629a3e699c0,right,-1,0.3,0.2429,1,-0.005834705,0.3127,36,0,36,0,1,,,,,,,,,,
,,707334,001,2023-07-24_13h08.25.368,arm3_eps,2022.2.5,Win32,59.44596362,5fbfb99036e420313c504a36,64aea9d0f615b6559c281482,64becb8ae6d57629a3e699c0,right,-1,0.3,0.2429,1,-0.040370815,0.2601,37,0,37,0,1,,,,,,,,,,
,,707334,001,2023-07-24_13h08.25.368,arm3_eps,2022.2.5,Win32,59.44596362,5fbfb99036e420313c504a36,64aea9d0f615b6559c281482,64becb8ae6d57629a3e699c0,right,-1,0.3,0.2429,1,-0.074992473,0.2628,38,0,38,0,1,,,,,,,,,,
,,707334,001,2023-07-24_13h08.25.368,arm3_eps,2022.2.5,Win32,59.44596362,5fbfb99036e420313c504a36,64aea9d0f615b6559c281482,64becb8ae6d57629a3e699c0,right,-1,0.3,0.2429,1,-0.086160051,0.2629,39,0,39,0,1,,,,,,,,,,
,,707334,001,2023-07-24_13h08.25.368,arm3_eps,2022.2.5,Win32,59.44596362,5fbfb99036e420313c504a36,64aea9d0f615b6559c281482,64becb8ae6d57629a3e699c0,right,-1,0.3,0.2429,1,-0.095244734,0.2692,40,0,40,0,1,,,,,,,,,,
,,707334,001,2023-07-24_13h08.25.368,arm3_eps,2022.2.5,Win32,59.44596362,5fbfb99036e420313c504a36,64aea9d0f615b6559c281482,64becb8ae6d57629a3e699c0,right,-1,0.3,0.2429,1,-0.109756973,0.2986,41,0,41,0,1,,,,,,,,,,
,,707334,001,2023-07-24_13h08.25.368,arm3_eps,2022.2.5,Win32,59.44596362,5fbfb99036e420313c504a36,64aea9d0f615b6559c281482,64becb8ae6d57629a3e699c0,right,-1,0.3,0.2429,1,-0.114588333,0.3285,42,0,42,0,1,,,,,,,,,,
,,707334,001,2023-07-24_13h08.25.368,arm3_eps,2022.2.5,Win32,59.44596362,5fbfb99036e420313c504a36,64aea9d0f615b6559c281482,64becb8ae6d57629a3e699c0,down,1,0.3,0.2429,1,0,1.2619,43,0,43,0,1,,,,,,,,,,
,,707334,001,2023-07-24_13h08.25.368,arm3_eps,2022.2.5,Win32,59.44596362,5fbfb99036e420313c504a36,64aea9d0f615b6559c281482,64becb8ae6d57629a3e699c0,right,1,0.3,0.2429,1,0.024248803,0.9993,44,0,44,0,1,,,,,,,,,,
,,707334,001,2023-07-24_13h08.25.368,arm3_eps,2022.2.5,Win32,59.44596362,5fbfb99036e420313c504a36,64aea9d0f615b6559c281482,64becb8ae6d57629a3e699c0,right,1,0.3,0.2429,1,0.05143276,0.2954,45,0,45,0,1,,,,,,,,,,
,,707334,001,2023-07-24_13h08.25.368,arm3_eps,2022.2.5,Win32,59.44596362,5fbfb99036e420313c504a36,64aea9d0f615b6559c281482,64becb8ae6d57629a3e699c0,right,1,0.3,0.2429,1,0.039524016,0.2493,46,0,46,0,1,,,,,,,,,,
,,707334,001,2023-07-24_13h08.25.368,arm3_eps,2022.2.5,Win32,59.44596362,5fbfb99036e420313c504a36,64aea9d0f615b6559c281482,64becb8ae6d57629a3e699c0,right,1,0.3,0.2429,1,0.078933447,0.262,47,0,47,0,1,,,,,,,,,,
,,707334,001,2023-07-24_13h08.25.368,arm3_eps,2022.2.5,Win32,59.44596362,5fbfb99036e420313c504a36,64aea9d0f615b6559c281482,64becb8ae6d57629a3e699c0,right,1,0.3,0.2429,1,0.066864468,0.3028,48,0,48,0,1,,,,,,,,,,
,,707334,001,2023-07-24_13h08.25.368,arm3_eps,2022.2.5,Win32,59.44596362,5fbfb99036e420313c504a36,64aea9d0f615b6559c281482,64becb8ae6d57629a3e699c0,up,1,0.3,0.2429,1,0.066864468,1.299,49,0,49,0,1,,,,,,,,,,
space,2.3908,707334,001,2023-07-24_13h08.25.368,arm3_eps,2022.2.5,Win32,59.44596362,5fbfb99036e420313c504a36,64aea9d0f615b6559c281482,64becb8ae6d57629a3e699c0,,,,,,,,,,,,,,,,,,,,,,
space,4.5749,707334,001,2023-07-24_13h08.25.368,arm3_eps,2022.2.5,Win32,59.44596362,5fbfb99036e420313c504a36,64aea9d0f615b6559c281482,64becb8ae6d57629a3e699c0,right,1,0.3,0.2429,0,0.037724024,0.521,,,,,,0,0,0,0,1,,,,,
,,707334,001,2023-07-24_13h08.25.368,arm3_eps,2022.2.5,Win32,59.44596362,5fbfb99036e420313c504a36,64aea9d0f615b6559c281482,64becb8ae6d57629a3e699c0,right,1,0.3,0.2429,0,0.045135011,0.3306,,,,,,1,0,1,0,1,,,,,
,,707334,001,2023-07-24_13h08.25.368,arm3_eps,2022.2.5,Win32,59.44596362,5fbfb99036e420313c504a36,64aea9d0f615b6559c281482,64becb8ae6d57629a3e699c0,right,1,0.3,0.2429,0,0.042528305,0.2631,,,,,,2,0,2,0,1,,,,,
,,707334,001,2023-07-24_13h08.25.368,arm3_eps,2022.2.5,Win32,59.44596362,5fbfb99036e420313c504a36,64aea9d0f615b6559c281482,64becb8ae6d57629a3e699c0,right,1,0.3,0.2429,0,0.070310041,0.2155,,,,,,3,0,3,0,1,,,,,
,,707334,001,2023-07-24_13h08.25.368,arm3_eps,2022.2.5,Win32,59.44596362,5fbfb99036e420313c504a36,64aea9d0f615b6559c281482,64becb8ae6d57629a3e699c0,right,1,0.3,0.2429,0,0.06826555,0.2724,,,,,,4,0,4,0,1,,,,,
,,707334,001,2023-07-24_13h08.25.368,arm3_eps,2022.2.5,Win32,59.44596362,5fbfb99036e420313c504a36,64aea9d0f615b6559c281482,64becb8ae6d57629a3e699c0,right,1,0.3,0.2429,0,0.066617111,0.2645,,,,,,5,0,5,0,1,,,,,
,,707334,001,2023-07-24_13h08.25.368,arm3_eps,2022.2.5,Win32,59.44596362,5fbfb99036e420313c504a36,64aea9d0f615b6559c281482,64becb8ae6d57629a3e699c0,right,1,0.3,0.2429,0,0.102703107,0.2125,,,,,,6,0,6,0,1,,,,,
,,707334,001,2023-07-24_13h08.25.368,arm3_eps,2022.2.5,Win32,59.44596362,5fbfb99036e420313c504a36,64aea9d0f615b6559c281482,64becb8ae6d57629a3e699c0,right,1,0.3,0.2429,0,0.096515358,0.3138,,,,,,7,0,7,0,1,,,,,
,,707334,001,2023-07-24_13h08.25.368,arm3_eps,2022.2.5,Win32,59.44596362,5fbfb99036e420313c504a36,64aea9d0f615b6559c281482,64becb8ae6d57629a3e699c0,up,1,0.3,0.2429,0,0,0.4161,,,,,,8,0,8,0,1,,,,,
,,707334,001,2023-07-24_13h08.25.368,arm3_eps,2022.2.5,Win32,59.44596362,5fbfb99036e420313c504a36,64aea9d0f615b6559c281482,64becb8ae6d57629a3e699c0,right,1,0.3,0.2429,0,0.006297676,0.9426,,,,,,9,0,9,0,1,,,,,
,,707334,001,2023-07-24_13h08.25.368,arm3_eps,2022.2.5,Win32,59.44596362,5fbfb99036e420313c504a36,64aea9d0f615b6559c281482,64becb8ae6d57629a3e699c0,right,1,0.3,0.2429,0,-0.001582855,0.2955,,,,,,10,0,10,0,1,,,,,
,,707334,001,2023-07-24_13h08.25.368,arm3_eps,2022.2.5,Win32,59.44596362,5fbfb99036e420313c504a36,64aea9d0f615b6559c281482,64becb8ae6d57629a3e699c0,right,1,0.3,0.2429,0,0.033754959,0.2652,,,,,,11,0,11,0,1,,,,,
,,707334,001,2023-07-24_13h08.25.368,arm3_eps,2022.2.5,Win32,59.44596362,5fbfb99036e420313c504a36,64aea9d0f615b6559c281482,64becb8ae6d57629a3e699c0,right,1,0.3,0.2429,0,0.045080631,0.2309,,,,,,12,0,12,0,1,,,,,
,,707334,001,2023-07-24_13h08.25.368,arm3_eps,2022.2.5,Win32,59.44596362,5fbfb99036e420313c504a36,64aea9d0f615b6559c281482,64becb8ae6d57629a3e699c0,right,1,0.3,0.2429,0,0.048328021,0.2463,,,,,,13,0,13,0,1,,,,,
,,707334,001,2023-07-24_13h08.25.368,arm3_eps,2022.2.5,Win32,59.44596362,5fbfb99036e420313c504a36,64aea9d0f615b6559c281482,64becb8ae6d57629a3e699c0,right,1,0.3,0.2429,0,0.023204576,0.2991,,,,,,14,0,14,0,1,,,,,
,,707334,001,2023-07-24_13h08.25.368,arm3_eps,2022.2.5,Win32,59.44596362,5fbfb99036e420313c504a36,64aea9d0f615b6559c281482,64becb8ae6d57629a3e699c0,right,1,0.3,0.2429,0,0.041156724,0.2989,,,,,,15,0,15,0,1,,,,,
,,707334,001,2023-07-24_13h08.25.368,arm3_eps,2022.2.5,Win32,59.44596362,5fbfb99036e420313c504a36,64aea9d0f615b6559c281482,64becb8ae6d57629a3e699c0,right,1,0.3,0.2429,0,0.075074369,0.279,,,,,,16,0,16,0,1,,,,,
,,707334,001,2023-07-24_13h08.25.368,arm3_eps,2022.2.5,Win32,59.44596362,5fbfb99036e420313c504a36,64aea9d0f615b6559c281482,64becb8ae6d57629a3e699c0,right,1,0.3,0.2429,0,0.082760983,0.3345,,,,,,17,0,17,0,1,,,,,
,,707334,001,2023-07-24_13h08.25.368,arm3_eps,2022.2.5,Win32,59.44596362,5fbfb99036e420313c504a36,64aea9d0f615b6559c281482,64becb8ae6d57629a3e699c0,up,1,0.3,0.2429,0,0,0.6989,,,,,,18,0,18,0,1,,,,,
,,707334,001,2023-07-24_13h08.25.368,arm3_eps,2022.2.5,Win32,59.44596362,5fbfb99036e420313c504a36,64aea9d0f615b6559c281482,64becb8ae6d57629a3e699c0,right,1,0.3,0.2429,0,0.009961946,1.2124,,,,,,19,0,19,0,1,,,,,
,,707334,001,2023-07-24_13h08.25.368,arm3_eps,2022.2.5,Win32,59.44596362,5fbfb99036e420313c504a36,64aea9d0f615b6559c281482,64becb8ae6d57629a3e699c0,right,1,0.3,0.2429,0,0.015251287,0.2132,,,,,,20,0,20,0,1,,,,,
,,707334,001,2023-07-24_13h08.25.368,arm3_eps,2022.2.5,Win32,59.44596362,5fbfb99036e420313c504a36,64aea9d0f615b6559c281482,64becb8ae6d57629a3e699c0,right,1,0.3,0.2429,0,0.008021925,0.247,,,,,,21,0,21,0,1,,,,,
,,707334,001,2023-07-24_13h08.25.368,arm3_eps,2022.2.5,Win32,59.44596362,5fbfb99036e420313c504a36,64aea9d0f615b6559c281482,64becb8ae6d57629a3e699c0,right,1,0.3,0.2429,0,0.020660856,0.2289,,,,,,22,0,22,0,1,,,,,
,,707334,001,2023-07-24_13h08.25.368,arm3_eps,2022.2.5,Win32,59.44596362,5fbfb99036e420313c504a36,64aea9d0f615b6559c281482,64becb8ae6d57629a3e699c0,right,1,0.3,0.2429,0,0.04181269,0.2108,,,,,,23,0,23,0,1,,,,,
,,707334,001,2023-07-24_13h08.25.368,arm3_eps,2022.2.5,Win32,59.44596362,5fbfb99036e420313c504a36,64aea9d0f615b6559c281482,64becb8ae6d57629a3e699c0,right,1,0.3,0.2429,0,0.04631954,0.2784,,,,,,24,0,24,0,1,,,,,
,,707334,001,2023-07-24_13h08.25.368,arm3_eps,2022.2.5,Win32,59.44596362,5fbfb99036e420313c504a36,64aea9d0f615b6559c281482,64becb8ae6d57629a3e699c0,right,1,0.3,0.2429,0,0.069578772,0.2207,,,,,,25,0,25,0,1,,,,,
,,707334,001,2023-07-24_13h08.25.368,arm3_eps,2022.2.5,Win32,59.44596362,5fbfb99036e420313c504a36,64aea9d0f615b6559c281482,64becb8ae6d57629a3e699c0,right,1,0.3,0.2429,0,0.078503297,0.3047,,,,,,26,0,26,0,1,,,,,
,,707334,001,2023-07-24_13h08.25.368,arm3_eps,2022.2.5,Win32,59.44596362,5fbfb99036e420313c504a36,64aea9d0f615b6559c281482,64becb8ae6d57629a3e699c0,right,1,0.3,0.2429,0,0.070541951,0.3348,,,,,,27,0,27,0,1,,,,,
,,707334,001,2023-07-24_13h08.25.368,arm3_eps,2022.2.5,Win32,59.44596362,5fbfb99036e420313c504a36,64aea9d0f615b6559c281482,64becb8ae6d57629a3e699c0,right,1,0.3,0.2429,0,0.084786179,0.3393,,,,,,28,0,28,0,1,,,,,
,,707334,001,2023-07-24_13h08.25.368,arm3_eps,2022.2.5,Win32,59.44596362,5fbfb99036e420313c504a36,64aea9d0f615b6559c281482,64becb8ae6d57629a3e699c0,right,1,0.3,0.2429,0,0.115693914,0.3614,,,,,,29,0,29,0,1,,,,,
,,707334,001,2023-07-24_13h08.25.368,arm3_eps,2022.2.5,Win32,59.44596362,5fbfb99036e420313c504a36,64aea9d0f615b6559c281482,64becb8ae6d57629a3e699c0,right,1,0.3,0.2429,0,0.128717838,0.3981,,,,,,30,0,30,0,1,,,,,
,,707334,001,2023-07-24_13h08.25.368,arm3_eps,2022.2.5,Win32,59.44596362,5fbfb99036e420313c504a36,64aea9d0f615b6559c281482,64becb8ae6d57629a3e699c0,up,-1,0.3,0.2429,1,0,3.0326,,,,,,31,0,31,0,1,,,,,
,,707334,001,2023-07-24_13h08.25.368,arm3_eps,2022.2.5,Win32,59.44596362,5fbfb99036e420313c504a36,64aea9d0f615b6559c281482,64becb8ae6d57629a3e699c0,right,-1,0.3,0.2429,1,0.003579245,0.8902,,,,,,32,0,32,0,1,,,,,
,,707334,001,2023-07-24_13h08.25.368,arm3_eps,2022.2.5,Win32,59.44596362,5fbfb99036e420313c504a36,64aea9d0f615b6559c281482,64becb8ae6d57629a3e699c0,right,-1,0.3,0.2429,1,-0.025325554,0.3298,,,,,,33,0,33,0,1,,,,,
,,707334,001,2023-07-24_13h08.25.368,arm3_eps,2022.2.5,Win32,59.44596362,5fbfb99036e420313c504a36,64aea9d0f615b6559c281482,64becb8ae6d57629a3e699c0,right,-1,0.3,0.2429,1,-0.038096972,0.2332,,,,,,34,0,34,0,1,,,,,
,,707334,001,2023-07-24_13h08.25.368,arm3_eps,2022.2.5,Win32,59.44596362,5fbfb99036e420313c504a36,64aea9d0f615b6559c281482,64becb8ae6d57629a3e699c0,right,-1,0.3,0.2429,1,-0.044405981,0.261,,,,,,35,0,35,0,1,,,,,
,,707334,001,2023-07-24_13h08.25.368,arm3_eps,2022.2.5,Win32,59.44596362,5fbfb99036e420313c504a36,64aea9d0f615b6559c281482,64becb8ae6d57629a3e699c0,right,-1,0.3,0.2429,1,-0.06983974,0.3371,,,,,,36,0,36,0,1,,,,,
,,707334,001,2023-07-24_13h08.25.368,arm3_eps,2022.2.5,Win32,59.44596362,5fbfb99036e420313c504a36,64aea9d0f615b6559c281482,64becb8ae6d57629a3e699c0,right,-1,0.3,0.2429,1,-0.064631661,0.2986,,,,,,37,0,37,0,1,,,,,
,,707334,001,2023-07-24_13h08.25.368,arm3_eps,2022.2.5,Win32,59.44596362,5fbfb99036e420313c504a36,64aea9d0f615b6559c281482,64becb8ae6d57629a3e699c0,right,-1,0.3,0.2429,1,-0.061783659,0.179,,,,,,38,0,38,0,1,,,,,
,,707334,001,2023-07-24_13h08.25.368,arm3_eps,2022.2.5,Win32,59.44596362,5fbfb99036e420313c504a36,64aea9d0f615b6559c281482,64becb8ae6d57629a3e699c0,right,-1,0.3,0.2429,1,-0.084869076,0.282,,,,,,39,0,39,0,1,,,,,
,,707334,001,2023-07-24_13h08.25.368,arm3_eps,2022.2.5,Win32,59.44596362,5fbfb99036e420313c504a36,64aea9d0f615b6559c281482,64becb8ae6d57629a3e699c0,down,-1,0.3,0.2429,2,0,1.6509,,,,,,40,0,40,0,1,,,,,
,,707334,001,2023-07-24_13h08.25.368,arm3_eps,2022.2.5,Win32,59.44596362,5fbfb99036e420313c504a36,64aea9d0f615b6559c281482,64becb8ae6d57629a3e699c0,right,-1,0.3,0.2429,2,0.029725483,0.8976,,,,,,41,0,41,0,1,,,,,
,,707334,001,2023-07-24_13h08.25.368,arm3_eps,2022.2.5,Win32,59.44596362,5fbfb99036e420313c504a36,64aea9d0f615b6559c281482,64becb8ae6d57629a3e699c0,right,-1,0.3,0.2429,2,0.026417688,0.362,,,,,,42,0,42,0,1,,,,,
,,707334,001,2023-07-24_13h08.25.368,arm3_eps,2022.2.5,Win32,59.44596362,5fbfb99036e420313c504a36,64aea9d0f615b6559c281482,64becb8ae6d57629a3e699c0,right,-1,0.3,0.2429,2,-0.016159932,0.4624,,,,,,43,0,43,0,1,,,,,
,,707334,001,2023-07-24_13h08.25.368,arm3_eps,2022.2.5,Win32,59.44596362,5fbfb99036e420313c504a36,64aea9d0f615b6559c281482,64becb8ae6d57629a3e699c0,down,-1,0.3,0.2429,2,0,1.9619,,,,,,44,0,44,0,1,,,,,
,,707334,001,2023-07-24_13h08.25.368,arm3_eps,2022.2.5,Win32,59.44596362,5fbfb99036e420313c504a36,64aea9d0f615b6559c281482,64becb8ae6d57629a3e699c0,right,-1,0.3,0.2429,2,-0.01409649,1.2466,,,,,,45,0,45,0,1,,,,,
,,707334,001,2023-07-24_13h08.25.368,arm3_eps,2022.2.5,Win32,59.44596362,5fbfb99036e420313c504a36,64aea9d0f615b6559c281482,64becb8ae6d57629a3e699c0,right,-1,0.3,0.2429,2,-0.010648698,0.9835,,,,,,46,0,46,0,1,,,,,
,,707334,001,2023-07-24_13h08.25.368,arm3_eps,2022.2.5,Win32,59.44596362,5fbfb99036e420313c504a36,64aea9d0f615b6559c281482,64becb8ae6d57629a3e699c0,up,-1,0.3,0.2429,2,0,1.3619,,,,,,47,0,47,0,1,,,,,
,,707334,001,2023-07-24_13h08.25.368,arm3_eps,2022.2.5,Win32,59.44596362,5fbfb99036e420313c504a36,64aea9d0f615b6559c281482,64becb8ae6d57629a3e699c0,right,-1,0.3,0.2429,2,0.004251905,1.1773,,,,,,48,0,48,0,1,,,,,
,,707334,001,2023-07-24_13h08.25.368,arm3_eps,2022.2.5,Win32,59.44596362,5fbfb99036e420313c504a36,64aea9d0f615b6559c281482,64becb8ae6d57629a3e699c0,right,-1,0.3,0.2429,2,-0.013370997,0.2617,,,,,,49,0,49,0,1,,,,,
,,707334,001,2023-07-24_13h08.25.368,arm3_eps,2022.2.5,Win32,59.44596362,5fbfb99036e420313c504a36,64aea9d0f615b6559c281482,64becb8ae6d57629a3e699c0,up,-1,0.3,0.2429,2,0,0.9838,,,,,,50,0,50,0,1,,,,,
,,707334,001,2023-07-24_13h08.25.368,arm3_eps,2022.2.5,Win32,59.44596362,5fbfb99036e420313c504a36,64aea9d0f615b6559c281482,64becb8ae6d57629a3e699c0,right,-1,0.3,0.2429,2,-0.016323499,11.2321,,,,,,51,0,51,0,1,,,,,
,,707334,001,2023-07-24_13h08.25.368,arm3_eps,2022.2.5,Win32,59.44596362,5fbfb99036e420313c504a36,64aea9d0f615b6559c281482,64becb8ae6d57629a3e699c0,right,-1,0.3,0.2429,2,-0.023567905,0.2541,,,,,,52,0,52,0,1,,,,,
,,707334,001,2023-07-24_13h08.25.368,arm3_eps,2022.2.5,Win32,59.44596362,5fbfb99036e420313c504a36,64aea9d0f615b6559c281482,64becb8ae6d57629a3e699c0,down,-1,0.3,0.2429,3,0,0.6465,,,,,,53,0,53,0,1,,,,,
,,707334,001,2023-07-24_13h08.25.368,arm3_eps,2022.2.5,Win32,59.44596362,5fbfb99036e420313c504a36,64aea9d0f615b6559c281482,64becb8ae6d57629a3e699c0,right,-1,0.3,0.2429,3,-0.041135981,2.3089,,,,,,54,0,54,0,1,,,,,
,,707334,001,2023-07-24_13h08.25.368,arm3_eps,2022.2.5,Win32,59.44596362,5fbfb99036e420313c504a36,64aea9d0f615b6559c281482,64becb8ae6d57629a3e699c0,down,-1,0.3,0.2429,3,0,0.763,,,,,,55,0,55,0,1,,,,,
,,707334,001,2023-07-24_13h08.25.368,arm3_eps,2022.2.5,Win32,59.44596362,5fbfb99036e420313c504a36,64aea9d0f615b6559c281482,64becb8ae6d57629a3e699c0,right,-1,0.3,0.2429,3,0.01831241,1.0727,,,,,,56,0,56,0,1,,,,,
,,707334,001,2023-07-24_13h08.25.368,arm3_eps,2022.2.5,Win32,59.44596362,5fbfb99036e420313c504a36,64aea9d0f615b6559c281482,64becb8ae6d57629a3e699c0,right,-1,0.3,0.2429,3,0.006153857,0.9667,,,,,,57,0,57,0,1,,,,,
,,707334,001,2023-07-24_13h08.25.368,arm3_eps,2022.2.5,Win32,59.44596362,5fbfb99036e420313c504a36,64aea9d0f615b6559c281482,64becb8ae6d57629a3e699c0,down,-1,0.3,0.2429,3,0,0.7373,,,,,,58,0,58,0,1,,,,,
,,707334,001,2023-07-24_13h08.25.368,arm3_eps,2022.2.5,Win32,59.44596362,5fbfb99036e420313c504a36,64aea9d0f615b6559c281482,64becb8ae6d57629a3e699c0,right,-1,0.3,0.2429,3,0.00317683,1.0107,,,,,,59,0,59,0,1,,,,,
,,707334,001,2023-07-24_13h08.25.368,arm3_eps,2022.2.5,Win32,59.44596362,5fbfb99036e420313c504a36,64aea9d0f615b6559c281482,64becb8ae6d57629a3e699c0,right,-1,0.3,0.2429,3,-0.027001186,0.4633,,,,,,60,0,60,0,1,,,,,
,,707334,001,2023-07-24_13h08.25.368,arm3_eps,2022.2.5,Win32,59.44596362,5fbfb99036e420313c504a36,64aea9d0f615b6559c281482,64becb8ae6d57629a3e699c0,right,-1,0.3,0.2429,3,-0.039458991,0.7021,,,,,,61,0,61,0,1,,,,,
,,707334,001,2023-07-24_13h08.25.368,arm3_eps,2022.2.5,Win32,59.44596362,5fbfb99036e420313c504a36,64aea9d0f615b6559c281482,64becb8ae6d57629a3e699c0,down,-1,0.3,0.2429,3,0,0.7547,,,,,,62,0,62,0,1,,,,,
,,707334,001,2023-07-24_13h08.25.368,arm3_eps,2022.2.5,Win32,59.44596362,5fbfb99036e420313c504a36,64aea9d0f615b6559c281482,64becb8ae6d57629a3e699c0,right,-1,0.3,0.2429,3,0.015666023,2.7441,,,,,,63,0,63,0,1,,,,,
,,707334,001,2023-07-24_13h08.25.368,arm3_eps,2022.2.5,Win32,59.44596362,5fbfb99036e420313c504a36,64aea9d0f615b6559c281482,64becb8ae6d57629a3e699c0,right,-1,0.3,0.2429,3,-0.007031618,0.5383,,,,,,64,0,64,0,1,,,,,
,,707334,001,2023-07-24_13h08.25.368,arm3_eps,2022.2.5,Win32,59.44596362,5fbfb99036e420313c504a36,64aea9d0f615b6559c281482,64becb8ae6d57629a3e699c0,down,1,0.3,0.2429,3,0,1.1287,,,,,,65,0,65,0,1,,,,,
,,707334,001,2023-07-24_13h08.25.368,arm3_eps,2022.2.5,Win32,59.44596362,5fbfb99036e420313c504a36,64aea9d0f615b6559c281482,64becb8ae6d57629a3e699c0,right,1,0.3,0.2429,3,0.022392263,0.8613,,,,,,66,0,66,0,1,,,,,
,,707334,001,2023-07-24_13h08.25.368,arm3_eps,2022.2.5,Win32,59.44596362,5fbfb99036e420313c504a36,64aea9d0f615b6559c281482,64becb8ae6d57629a3e699c0,up,1,0.3,0.2429,3,0,0.7714,,,,,,67,0,67,0,1,,,,,
,,707334,001,2023-07-24_13h08.25.368,arm3_eps,2022.2.5,Win32,59.44596362,5fbfb99036e420313c504a36,64aea9d0f615b6559c281482,64becb8ae6d57629a3e699c0,right,1,0.3,0.2429,3,0.018485734,0.9434,,,,,,68,0,68,0,1,,,,,
,,707334,001,2023-07-24_13h08.25.368,arm3_eps,2022.2.5,Win32,59.44596362,5fbfb99036e420313c504a36,64aea9d0f615b6559c281482,64becb8ae6d57629a3e699c0,up,1,0.3,0.2429,3,0,3.7298,,,,,,69,0,69,0,1,,,,,
,,707334,001,2023-07-24_13h08.25.368,arm3_eps,2022.2.5,Win32,59.44596362,5fbfb99036e420313c504a36,64aea9d0f615b6559c281482,64becb8ae6d57629a3e699c0,right,1,0.3,0.2429,3,0.004654585,0.8177,,,,,,70,0,70,0,1,,,,,
,,707334,001,2023-07-24_13h08.25.368,arm3_eps,2022.2.5,Win32,59.44596362,5fbfb99036e420313c504a36,64aea9d0f615b6559c281482,64becb8ae6d57629a3e699c0,right,1,0.3,0.2429,3,0.015887863,0.3948,,,,,,71,0,71,0,1,,,,,
,,707334,001,2023-07-24_13h08.25.368,arm3_eps,2022.2.5,Win32,59.44596362,5fbfb99036e420313c504a36,64aea9d0f615b6559c281482,64becb8ae6d57629a3e699c0,up,1,0.3,0.2429,4,0,0.7338,,,,,,72,0,72,0,1,,,,,
,,707334,001,2023-07-24_13h08.25.368,arm3_eps,2022.2.5,Win32,59.44596362,5fbfb99036e420313c504a36,64aea9d0f615b6559c281482,64becb8ae6d57629a3e699c0,right,1,0.3,0.2429,4,0.0216853,0.9111,,,,,,73,0,73,0,1,,,,,
,,707334,001,2023-07-24_13h08.25.368,arm3_eps,2022.2.5,Win32,59.44596362,5fbfb99036e420313c504a36,64aea9d0f615b6559c281482,64becb8ae6d57629a3e699c0,right,1,0.3,0.2429,4,0.007566594,0.412,,,,,,74,0,74,0,1,,,,,
,,707334,001,2023-07-24_13h08.25.368,arm3_eps,2022.2.5,Win32,59.44596362,5fbfb99036e420313c504a36,64aea9d0f615b6559c281482,64becb8ae6d57629a3e699c0,right,1,0.3,0.2429,4,0.003207994,0.4309,,,,,,75,0,75,0,1,,,,,
,,707334,001,2023-07-24_13h08.25.368,arm3_eps,2022.2.5,Win32,59.44596362,5fbfb99036e420313c504a36,64aea9d0f615b6559c281482,64becb8ae6d57629a3e699c0,down,1,0.3,0.2429,4,0,0.4961,,,,,,76,0,76,0,1,,,,,
,,707334,001,2023-07-24_13h08.25.368,arm3_eps,2022.2.5,Win32,59.44596362,5fbfb99036e420313c504a36,64aea9d0f615b6559c281482,64becb8ae6d57629a3e699c0,right,1,0.3,0.2429,4,-0.005831592,0.7889,,,,,,77,0,77,0,1,,,,,
,,707334,001,2023-07-24_13h08.25.368,arm3_eps,2022.2.5,Win32,59.44596362,5fbfb99036e420313c504a36,64aea9d0f615b6559c281482,64becb8ae6d57629a3e699c0,right,1,0.3,0.2429,4,0.009408851,0.9023,,,,,,78,0,78,0,1,,,,,
,,707334,001,2023-07-24_13h08.25.368,arm3_eps,2022.2.5,Win32,59.44596362,5fbfb99036e420313c504a36,64aea9d0f615b6559c281482,64becb8ae6d57629a3e699c0,up,1,0.3,0.2429,4,0,1.0957,,,,,,79,0,79,0,1,,,,,
,,707334,001,2023-07-24_13h08.25.368,arm3_eps,2022.2.5,Win32,59.44596362,5fbfb99036e420313c504a36,64aea9d0f615b6559c281482,64becb8ae6d57629a3e699c0,right,1,0.3,0.2429,4,0.012353608,0.6522,,,,,,80,0,80,0,1,,,,,
,,707334,001,2023-07-24_13h08.25.368,arm3_eps,2022.2.5,Win32,59.44596362,5fbfb99036e420313c504a36,64aea9d0f615b6559c281482,64becb8ae6d57629a3e699c0,up,-1,0.3,0.2429,4,0,1.7622,,,,,,81,0,81,0,1,,,,,
,,707334,001,2023-07-24_13h08.25.368,arm3_eps,2022.2.5,Win32,59.44596362,5fbfb99036e420313c504a36,64aea9d0f615b6559c281482,64becb8ae6d57629a3e699c0,right,-1,0.3,0.2429,4,-0.003415558,0.9268,,,,,,82,0,82,0,1,,,,,
,,707334,001,2023-07-24_13h08.25.368,arm3_eps,2022.2.5,Win32,59.44596362,5fbfb99036e420313c504a36,64aea9d0f615b6559c281482,64becb8ae6d57629a3e699c0,down,-1,0.3,0.2429,5,0,1.147,,,,,,83,0,83,0,1,,,,,
,,707334,001,2023-07-24_13h08.25.368,arm3_eps,2022.2.5,Win32,59.44596362,5fbfb99036e420313c504a36,64aea9d0f615b6559c281482,64becb8ae6d57629a3e699c0,right,-1,0.3,0.2429,5,-0.006969924,0.9567,,,,,,84,0,84,0,1,,,,,
,,707334,001,2023-07-24_13h08.25.368,arm3_eps,2022.2.5,Win32,59.44596362,5fbfb99036e420313c504a36,64aea9d0f615b6559c281482,64becb8ae6d57629a3e699c0,right,-1,0.3,0.2429,5,-0.013541895,0.7191,,,,,,85,0,85,0,1,,,,,
,,707334,001,2023-07-24_13h08.25.368,arm3_eps,2022.2.5,Win32,59.44596362,5fbfb99036e420313c504a36,64aea9d0f615b6559c281482,64becb8ae6d57629a3e699c0,down,-1,0.3,0.2429,5,0,1.0771,,,,,,86,0,86,0,1,,,,,
,,707334,001,2023-07-24_13h08.25.368,arm3_eps,2022.2.5,Win32,59.44596362,5fbfb99036e420313c504a36,64aea9d0f615b6559c281482,64becb8ae6d57629a3e699c0,right,-1,0.3,0.2429,5,-0.004198772,1.0928,,,,,,87,0,87,0,1,,,,,
,,707334,001,2023-07-24_13h08.25.368,arm3_eps,2022.2.5,Win32,59.44596362,5fbfb99036e420313c504a36,64aea9d0f615b6559c281482,64becb8ae6d57629a3e699c0,right,-1,0.3,0.2429,5,0.006744105,0.5426,,,,,,88,0,88,0,1,,,,,
,,707334,001,2023-07-24_13h08.25.368,arm3_eps,2022.2.5,Win32,59.44596362,5fbfb99036e420313c504a36,64aea9d0f615b6559c281482,64becb8ae6d57629a3e699c0,right,-1,0.3,0.2429,5,0.003914263,0.8327,,,,,,89,0,89,0,1,,,,,
,,707334,001,2023-07-24_13h08.25.368,arm3_eps,2022.2.5,Win32,59.44596362,5fbfb99036e420313c504a36,64aea9d0f615b6559c281482,64becb8ae6d57629a3e699c0,up,-1,0.3,0.2429,5,0,2.9837,,,,,,90,0,90,0,1,,,,,
,,707334,001,2023-07-24_13h08.25.368,arm3_eps,2022.2.5,Win32,59.44596362,5fbfb99036e420313c504a36,64aea9d0f615b6559c281482,64becb8ae6d57629a3e699c0,right,-1,0.3,0.2429,5,-0.020632502,1.0792,,,,,,91,0,91,0,1,,,,,
,,707334,001,2023-07-24_13h08.25.368,arm3_eps,2022.2.5,Win32,59.44596362,5fbfb99036e420313c504a36,64aea9d0f615b6559c281482,64becb8ae6d57629a3e699c0,right,-1,0.3,0.2429,5,-0.028041841,1.8131,,,,,,92,0,92,0,1,,,,,
,,707334,001,2023-07-24_13h08.25.368,arm3_eps,2022.2.5,Win32,59.44596362,5fbfb99036e420313c504a36,64aea9d0f615b6559c281482,64becb8ae6d57629a3e699c0,down,-1,0.3,0.2429,6,0,0.5505,,,,,,93,0,93,0,1,,,,,
,,707334,001,2023-07-24_13h08.25.368,arm3_eps,2022.2.5,Win32,59.44596362,5fbfb99036e420313c504a36,64aea9d0f615b6559c281482,64becb8ae6d57629a3e699c0,right,-1,0.3,0.2429,6,-0.017986548,0.901,,,,,,94,0,94,0,1,,,,,
,,707334,001,2023-07-24_13h08.25.368,arm3_eps,2022.2.5,Win32,59.44596362,5fbfb99036e420313c504a36,64aea9d0f615b6559c281482,64becb8ae6d57629a3e699c0,right,-1,0.3,0.2429,6,-0.017990205,0.4175,,,,,,95,0,95,0,1,,,,,
,,707334,001,2023-07-24_13h08.25.368,arm3_eps,2022.2.5,Win32,59.44596362,5fbfb99036e420313c504a36,64aea9d0f615b6559c281482,64becb8ae6d57629a3e699c0,down,-1,0.3,0.2429,7,0,0.4333,,,,,,96,0,96,0,1,,,,,
,,707334,001,2023-07-24_13h08.25.368,arm3_eps,2022.2.5,Win32,59.44596362,5fbfb99036e420313c504a36,64aea9d0f615b6559c281482,64becb8ae6d57629a3e699c0,right,-1,0.3,0.2429,7,-0.021675139,0.8334,,,,,,97,0,97,0,1,,,,,
,,707334,001,2023-07-24_13h08.25.368,arm3_eps,2022.2.5,Win32,59.44596362,5fbfb99036e420313c504a36,64aea9d0f615b6559c281482,64becb8ae6d57629a3e699c0,right,-1,0.3,0.2429,7,-0.059891445,0.4008,,,,,,98,0,98,0,1,,,,,
,,707334,001,2023-07-24_13h08.25.368,arm3_eps,2022.2.5,Win32,59.44596362,5fbfb99036e420313c504a36,64aea9d0f615b6559c281482,64becb8ae6d57629a3e699c0,down,-1,0.3,0.2429,7,0,2.2171,,,,,,99,0,99,0,1,,,,,
,,707334,001,2023-07-24_13h08.25.368,arm3_eps,2022.2.5,Win32,59.44596362,5fbfb99036e420313c504a36,64aea9d0f615b6559c281482,64becb8ae6d57629a3e699c0,right,-1,0.3,0.2429,7,-0.01653894,1.4336,,,,,,100,0,100,0,1,,,,,
,,707334,001,2023-07-24_13h08.25.368,arm3_eps,2022.2.5,Win32,59.44596362,5fbfb99036e420313c504a36,64aea9d0f615b6559c281482,64becb8ae6d57629a3e699c0,right,-1,0.3,0.2429,7,0.004745361,0.6506,,,,,,101,0,101,0,1,,,,,
,,707334,001,2023-07-24_13h08.25.368,arm3_eps,2022.2.5,Win32,59.44596362,5fbfb99036e420313c504a36,64aea9d0f615b6559c281482,64becb8ae6d57629a3e699c0,right,-1,0.3,0.2429,7,0.003314143,1.7837,,,,,,102,0,102,0,1,,,,,
,,707334,001,2023-07-24_13h08.25.368,arm3_eps,2022.2.5,Win32,59.44596362,5fbfb99036e420313c504a36,64aea9d0f615b6559c281482,64becb8ae6d57629a3e699c0,down,-1,0.3,0.2429,7,0,0.7673,,,,,,103,0,103,0,1,,,,,
,,707334,001,2023-07-24_13h08.25.368,arm3_eps,2022.2.5,Win32,59.44596362,5fbfb99036e420313c504a36,64aea9d0f615b6559c281482,64becb8ae6d57629a3e699c0,right,-1,0.3,0.2429,7,0.00366958,1.2832,,,,,,104,0,104,0,1,,,,,
,,707334,001,2023-07-24_13h08.25.368,arm3_eps,2022.2.5,Win32,59.44596362,5fbfb99036e420313c504a36,64aea9d0f615b6559c281482,64becb8ae6d57629a3e699c0,right,-1,0.3,0.2429,7,-0.010026883,0.3833,,,,,,105,0,105,0,1,,,,,
,,707334,001,2023-07-24_13h08.25.368,arm3_eps,2022.2.5,Win32,59.44596362,5fbfb99036e420313c504a36,64aea9d0f615b6559c281482,64becb8ae6d57629a3e699c0,down,1,0.3,0.2429,8,0,1.0665,,,,,,106,0,106,0,1,,,,,
,,707334,001,2023-07-24_13h08.25.368,arm3_eps,2022.2.5,Win32,59.44596362,5fbfb99036e420313c504a36,64aea9d0f615b6559c281482,64becb8ae6d57629a3e699c0,right,1,0.3,0.2429,8,0.017506724,0.8845,,,,,,107,0,107,0,1,,,,,
,,707334,001,2023-07-24_13h08.25.368,arm3_eps,2022.2.5,Win32,59.44596362,5fbfb99036e420313c504a36,64aea9d0f615b6559c281482,64becb8ae6d57629a3e699c0,right,1,0.3,0.2429,8,0.025775124,0.3672,,,,,,108,0,108,0,1,,,,,
,,707334,001,2023-07-24_13h08.25.368,arm3_eps,2022.2.5,Win32,59.44596362,5fbfb99036e420313c504a36,64aea9d0f615b6559c281482,64becb8ae6d57629a3e699c0,up,1,0.3,0.2429,8,0,0.4504,,,,,,109,0,109,0,1,,,,,
,,707334,001,2023-07-24_13h08.25.368,arm3_eps,2022.2.5,Win32,59.44596362,5fbfb99036e420313c504a36,64aea9d0f615b6559c281482,64becb8ae6d57629a3e699c0,right,1,0.3,0.2429,8,0.03103907,0.9174,,,,,,110,0,110,0,1,,,,,
,,707334,001,2023-07-24_13h08.25.368,arm3_eps,2022.2.5,Win32,59.44596362,5fbfb99036e420313c504a36,64aea9d0f615b6559c281482,64becb8ae6d57629a3e699c0,right,1,0.3,0.2429,8,0.058232514,0.3059,,,,,,111,0,111,0,1,,,,,
,,707334,001,2023-07-24_13h08.25.368,arm3_eps,2022.2.5,Win32,59.44596362,5fbfb99036e420313c504a36,64aea9d0f615b6559c281482,64becb8ae6d57629a3e699c0,up,1,0.3,0.2429,9,0,1.484,,,,,,112,0,112,0,1,,,,,
,,707334,001,2023-07-24_13h08.25.368,arm3_eps,2022.2.5,Win32,59.44596362,5fbfb99036e420313c504a36,64aea9d0f615b6559c281482,64becb8ae6d57629a3e699c0,right,1,0.3,0.2429,9,-0.006937233,1.1676,,,,,,113,0,113,0,1,,,,,
,,707334,001,2023-07-24_13h08.25.368,arm3_eps,2022.2.5,Win32,59.44596362,5fbfb99036e420313c504a36,64aea9d0f615b6559c281482,64becb8ae6d57629a3e699c0,right,1,0.3,0.2429,9,0.011253475,0.417,,,,,,114,0,114,0,1,,,,,
,,707334,001,2023-07-24_13h08.25.368,arm3_eps,2022.2.5,Win32,59.44596362,5fbfb99036e420313c504a36,64aea9d0f615b6559c281482,64becb8ae6d57629a3e699c0,right,1,0.3,0.2429,9,0.030771538,0.5998,,,,,,115,0,115,0,1,,,,,
,,707334,001,2023-07-24_13h08.25.368,arm3_eps,2022.2.5,Win32,59.44596362,5fbfb99036e420313c504a36,64aea9d0f615b6559c281482,64becb8ae6d57629a3e699c0,up,1,0.3,0.2429,9,0,1.5503,,,,,,116,0,116,0,1,,,,,
,,707334,001,2023-07-24_13h08.25.368,arm3_eps,2022.2.5,Win32,59.44596362,5fbfb99036e420313c504a36,64aea9d0f615b6559c281482,64becb8ae6d57629a3e699c0,right,1,0.3,0.2429,9,0.034818918,2.2957,,,,,,117,0,117,0,1,,,,,
,,707334,001,2023-07-24_13h08.25.368,arm3_eps,2022.2.5,Win32,59.44596362,5fbfb99036e420313c504a36,64aea9d0f615b6559c281482,64becb8ae6d57629a3e699c0,up,1,0.3,0.2429,10,0,0.451,,,,,,118,0,118,0,1,,,,,
,,707334,001,2023-07-24_13h08.25.368,arm3_eps,2022.2.5,Win32,59.44596362,5fbfb99036e420313c504a36,64aea9d0f615b6559c281482,64becb8ae6d57629a3e699c0,right,1,0.3,0.2429,10,-0.019981887,0.788,,,,,,119,0,119,0,1,,,,,
,,707334,001,2023-07-24_13h08.25.368,arm3_eps,2022.2.5,Win32,59.44596362,5fbfb99036e420313c504a36,64aea9d0f615b6559c281482,64becb8ae6d57629a3e699c0,right,1,0.3,0.2429,10,-0.01521858,1.8293,,,,,,120,0,120,0,1,,,,,
,,707334,001,2023-07-24_13h08.25.368,arm3_eps,2022.2.5,Win32,59.44596362,5fbfb99036e420313c504a36,64aea9d0f615b6559c281482,64becb8ae6d57629a3e699c0,down,1,0.3,0.2429,10,0,0.6853,,,,,,121,0,121,0,1,,,,,
,,707334,001,2023-07-24_13h08.25.368,arm3_eps,2022.2.5,Win32,59.44596362,5fbfb99036e420313c504a36,64aea9d0f615b6559c281482,64becb8ae6d57629a3e699c0,right,1,0.3,0.2429,10,0.006576649,1.3857,,,,,,122,0,122,0,1,,,,,
,,707334,001,2023-07-24_13h08.25.368,arm3_eps,2022.2.5,Win32,59.44596362,5fbfb99036e420313c504a36,64aea9d0f615b6559c281482,64becb8ae6d57629a3e699c0,right,1,0.3,0.2429,10,-0.014660492,0.5626,,,,,,123,0,123,0,1,,,,,
,,707334,001,2023-07-24_13h08.25.368,arm3_eps,2022.2.5,Win32,59.44596362,5fbfb99036e420313c504a36,64aea9d0f615b6559c281482,64becb8ae6d57629a3e699c0,up,1,0.3,0.2429,10,0,2.4113,,,,,,124,0,124,0,1,,,,,
,,707334,001,2023-07-24_13h08.25.368,arm3_eps,2022.2.5,Win32,59.44596362,5fbfb99036e420313c504a36,64aea9d0f615b6559c281482,64becb8ae6d57629a3e699c0,right,1,0.3,0.2429,10,0.020200806,1.1116,,,,,,125,0,125,0,1,,,,,
,,707334,001,2023-07-24_13h08.25.368,arm3_eps,2022.2.5,Win32,59.44596362,5fbfb99036e420313c504a36,64aea9d0f615b6559c281482,64becb8ae6d57629a3e699c0,up,1,0.3,0.2429,11,0,0.901,,,,,,126,0,126,0,1,,,,,
,,707334,001,2023-07-24_13h08.25.368,arm3_eps,2022.2.5,Win32,59.44596362,5fbfb99036e420313c504a36,64aea9d0f615b6559c281482,64becb8ae6d57629a3e699c0,right,1,0.3,0.2429,11,0.008857907,0.8069,,,,,,127,0,127,0,1,,,,,
,,707334,001,2023-07-24_13h08.25.368,arm3_eps,2022.2.5,Win32,59.44596362,5fbfb99036e420313c504a36,64aea9d0f615b6559c281482,64becb8ae6d57629a3e699c0,up,-1,0.3,0.2429,11,0,0.6795,,,,,,128,0,128,0,1,,,,,
,,707334,001,2023-07-24_13h08.25.368,arm3_eps,2022.2.5,Win32,59.44596362,5fbfb99036e420313c504a36,64aea9d0f615b6559c281482,64becb8ae6d57629a3e699c0,right,-1,0.3,0.2429,11,-0.047120395,0.7906,,,,,,129,0,129,0,1,,,,,
,,707334,001,2023-07-24_13h08.25.368,arm3_eps,2022.2.5,Win32,59.44596362,5fbfb99036e420313c504a36,64aea9d0f615b6559c281482,64becb8ae6d57629a3e699c0,down,-1,0.3,0.2429,11,0,0.6115,,,,,,130,0,130,0,1,,,,,
,,707334,001,2023-07-24_13h08.25.368,arm3_eps,2022.2.5,Win32,59.44596362,5fbfb99036e420313c504a36,64aea9d0f615b6559c281482,64becb8ae6d57629a3e699c0,right,-1,0.3,0.2429,11,0.005983301,0.7826,,,,,,131,0,131,0,1,,,,,
,,707334,001,2023-07-24_13h08.25.368,arm3_eps,2022.2.5,Win32,59.44596362,5fbfb99036e420313c504a36,64aea9d0f615b6559c281482,64becb8ae6d57629a3e699c0,right,-1,0.3,0.2429,11,0.006493136,0.3564,,,,,,132,0,132,0,1,,,,,
,,707334,001,2023-07-24_13h08.25.368,arm3_eps,2022.2.5,Win32,59.44596362,5fbfb99036e420313c504a36,64aea9d0f615b6559c281482,64becb8ae6d57629a3e699c0,right,-1,0.3,0.2429,11,0.004906929,0.4726,,,,,,133,0,133,0,1,,,,,
,,707334,001,2023-07-24_13h08.25.368,arm3_eps,2022.2.5,Win32,59.44596362,5fbfb99036e420313c504a36,64aea9d0f615b6559c281482,64becb8ae6d57629a3e699c0,down,-1,0.3,0.2429,12,0,0.6508,,,,,,134,0,134,0,1,,,,,
,,707334,001,2023-07-24_13h08.25.368,arm3_eps,2022.2.5,Win32,59.44596362,5fbfb99036e420313c504a36,64aea9d0f615b6559c281482,64becb8ae6d57629a3e699c0,right,-1,0.3,0.2429,12,-0.007493317,0.7235,,,,,,135,0,135,0,1,,,,,
,,707334,001,2023-07-24_13h08.25.368,arm3_eps,2022.2.5,Win32,59.44596362,5fbfb99036e420313c504a36,64aea9d0f615b6559c281482,64becb8ae6d57629a3e699c0,right,-1,0.3,0.2429,12,-0.021450431,0.7816,,,,,,136,0,136,0,1,,,,,
,,707334,001,2023-07-24_13h08.25.368,arm3_eps,2022.2.5,Win32,59.44596362,5fbfb99036e420313c504a36,64aea9d0f615b6559c281482,64becb8ae6d57629a3e699c0,down,-1,0.3,0.2429,12,0,0.6864,,,,,,137,0,137,0,1,,,,,
,,707334,001,2023-07-24_13h08.25.368,arm3_eps,2022.2.5,Win32,59.44596362,5fbfb99036e420313c504a36,64aea9d0f615b6559c281482,64becb8ae6d57629a3e699c0,right,-1,0.3,0.2429,12,-0.01952972,0.8594,,,,,,138,0,138,0,1,,,,,
,,707334,001,2023-07-24_13h08.25.368,arm3_eps,2022.2.5,Win32,59.44596362,5fbfb99036e420313c504a36,64aea9d0f615b6559c281482,64becb8ae6d57629a3e699c0,down,1,0.3,0.2429,12,0,0.5653,,,,,,139,0,139,0,1,,,,,
,,707334,001,2023-07-24_13h08.25.368,arm3_eps,2022.2.5,Win32,59.44596362,5fbfb99036e420313c504a36,64aea9d0f615b6559c281482,64becb8ae6d57629a3e699c0,right,1,0.3,0.2429,12,-0.003732393,0.7623,,,,,,140,0,140,0,1,,,,,
,,707334,001,2023-07-24_13h08.25.368,arm3_eps,2022.2.5,Win32,59.44596362,5fbfb99036e420313c504a36,64aea9d0f615b6559c281482,64becb8ae6d57629a3e699c0,right,1,0.3,0.2429,12,0.022388101,0.8192,,,,,,141,0,141,0,1,,,,,
,,707334,001,2023-07-24_13h08.25.368,arm3_eps,2022.2.5,Win32,59.44596362,5fbfb99036e420313c504a36,64aea9d0f615b6559c281482,64becb8ae6d57629a3e699c0,right,1,0.3,0.2429,12,0.01831303,0.5465,,,,,,142,0,142,0,1,,,,,
,,707334,001,2023-07-24_13h08.25.368,arm3_eps,2022.2.5,Win32,59.44596362,5fbfb99036e420313c504a36,64aea9d0f615b6559c281482,64becb8ae6d57629a3e699c0,up,-1,0.3,0.2429,12,0,0.8119,,,,,,143,0,143,0,1,,,,,
,,707334,001,2023-07-24_13h08.25.368,arm3_eps,2022.2.5,Win32,59.44596362,5fbfb99036e420313c504a36,64aea9d0f615b6559c281482,64becb8ae6d57629a3e699c0,right,-1,0.3,0.2429,12,0.01879196,0.8682,,,,,,144,0,144,0,1,,,,,
,,707334,001,2023-07-24_13h08.25.368,arm3_eps,2022.2.5,Win32,59.44596362,5fbfb99036e420313c504a36,64aea9d0f615b6559c281482,64becb8ae6d57629a3e699c0,right,-1,0.3,0.2429,12,0.01535038,0.5333,,,,,,145,0,145,0,1,,,,,
,,707334,001,2023-07-24_13h08.25.368,arm3_eps,2022.2.5,Win32,59.44596362,5fbfb99036e420313c504a36,64aea9d0f615b6559c281482,64becb8ae6d57629a3e699c0,down,-1,0.3,0.2429,12,0,0.7203,,,,,,146,0,146,0,1,,,,,
,,707334,001,2023-07-24_13h08.25.368,arm3_eps,2022.2.5,Win32,59.44596362,5fbfb99036e420313c504a36,64aea9d0f615b6559c281482,64becb8ae6d57629a3e699c0,right,-1,0.3,0.2429,12,0.019322859,1.2484,,,,,,147,0,147,0,1,,,,,
,,707334,001,2023-07-24_13h08.25.368,arm3_eps,2022.2.5,Win32,59.44596362,5fbfb99036e420313c504a36,64aea9d0f615b6559c281482,64becb8ae6d57629a3e699c0,right,-1,0.3,0.2429,12,0.014005245,1.0124,,,,,,148,0,148,0,1,,,,,
,,707334,001,2023-07-24_13h08.25.368,arm3_eps,2022.2.5,Win32,59.44596362,5fbfb99036e420313c504a36,64aea9d0f615b6559c281482,64becb8ae6d57629a3e699c0,right,-1,0.3,0.2429,12,-0.002703738,0.9876,,,,,,149,0,149,0,1,,,,,
,,707334,001,2023-07-24_13h08.25.368,arm3_eps,2022.2.5,Win32,59.44596362,5fbfb99036e420313c504a36,64aea9d0f615b6559c281482,64becb8ae6d57629a3e699c0,up,-1,0.3,0.2429,11,0,0.696,,,,,,150,0,150,0,1,,,,,
,,707334,001,2023-07-24_13h08.25.368,arm3_eps,2022.2.5,Win32,59.44596362,5fbfb99036e420313c504a36,64aea9d0f615b6559c281482,64becb8ae6d57629a3e699c0,right,-1,0.3,0.2429,11,0.003616896,0.9181,,,,,,151,0,151,0,1,,,,,
,,707334,001,2023-07-24_13h08.25.368,arm3_eps,2022.2.5,Win32,59.44596362,5fbfb99036e420313c504a36,64aea9d0f615b6559c281482,64becb8ae6d57629a3e699c0,right,-1,0.3,0.2429,11,-0.002668102,0.5124,,,,,,152,0,152,0,1,,,,,
,,707334,001,2023-07-24_13h08.25.368,arm3_eps,2022.2.5,Win32,59.44596362,5fbfb99036e420313c504a36,64aea9d0f615b6559c281482,64becb8ae6d57629a3e699c0,right,-1,0.3,0.2429,11,0.005891489,0.5953,,,,,,153,0,153,0,1,,,,,
,,707334,001,2023-07-24_13h08.25.368,arm3_eps,2022.2.5,Win32,59.44596362,5fbfb99036e420313c504a36,64aea9d0f615b6559c281482,64becb8ae6d57629a3e699c0,up,1,0.3,0.2429,11,0,1.1453,,,,,,154,0,154,0,1,,,,,
,,707334,001,2023-07-24_13h08.25.368,arm3_eps,2022.2.5,Win32,59.44596362,5fbfb99036e420313c504a36,64aea9d0f615b6559c281482,64becb8ae6d57629a3e699c0,right,1,0.3,0.2429,11,0.043805092,0.775,,,,,,155,0,155,0,1,,,,,
,,707334,001,2023-07-24_13h08.25.368,arm3_eps,2022.2.5,Win32,59.44596362,5fbfb99036e420313c504a36,64aea9d0f615b6559c281482,64becb8ae6d57629a3e699c0,up,1,0.3,0.2429,11,0,0.586,,,,,,156,0,156,0,1,,,,,
,,707334,001,2023-07-24_13h08.25.368,arm3_eps,2022.2.5,Win32,59.44596362,5fbfb99036e420313c504a36,64aea9d0f615b6559c281482,64becb8ae6d57629a3e699c0,right,1,0.3,0.2429,11,0.012155698,1.1303,,,,,,157,0,157,0,1,,,,,
,,707334,001,2023-07-24_13h08.25.368,arm3_eps,2022.2.5,Win32,59.44596362,5fbfb99036e420313c504a36,64aea9d0f615b6559c281482,64becb8ae6d57629a3e699c0,right,1,0.3,0.2429,11,0.010704628,0.5291,,,,,,158,0,158,0,1,,,,,
,,707334,001,2023-07-24_13h08.25.368,arm3_eps,2022.2.5,Win32,59.44596362,5fbfb99036e420313c504a36,64aea9d0f615b6559c281482,64becb8ae6d57629a3e699c0,up,-1,0.3,0.2429,11,0,0.6132,,,,,,159,0,159,0,1,,,,,
,,707334,001,2023-07-24_13h08.25.368,arm3_eps,2022.2.5,Win32,59.44596362,5fbfb99036e420313c504a36,64aea9d0f615b6559c281482,64becb8ae6d57629a3e699c0,right,-1,0.3,0.2429,11,-0.007318838,0.5595,,,,,,160,0,160,0,1,,,,,
,,707334,001,2023-07-24_13h08.25.368,arm3_eps,2022.2.5,Win32,59.44596362,5fbfb99036e420313c504a36,64aea9d0f615b6559c281482,64becb8ae6d57629a3e699c0,right,-1,0.3,0.2429,11,-0.006555659,0.6795,,,,,,161,0,161,0,1,,,,,
,,707334,001,2023-07-24_13h08.25.368,arm3_eps,2022.2.5,Win32,59.44596362,5fbfb99036e420313c504a36,64aea9d0f615b6559c281482,64becb8ae6d57629a3e699c0,down,-1,0.3,0.2429,12,0,0.7369,,,,,,162,0,162,0,1,,,,,
,,707334,001,2023-07-24_13h08.25.368,arm3_eps,2022.2.5,Win32,59.44596362,5fbfb99036e420313c504a36,64aea9d0f615b6559c281482,64becb8ae6d57629a3e699c0,right,-1,0.3,0.2429,12,-0.03494835,0.7919,,,,,,163,0,163,0,1,,,,,
,,707334,001,2023-07-24_13h08.25.368,arm3_eps,2022.2.5,Win32,59.44596362,5fbfb99036e420313c504a36,64aea9d0f615b6559c281482,64becb8ae6d57629a3e699c0,down,-1,0.3,0.2429,12,0,0.5501,,,,,,164,0,164,0,1,,,,,
,,707334,001,2023-07-24_13h08.25.368,arm3_eps,2022.2.5,Win32,59.44596362,5fbfb99036e420313c504a36,64aea9d0f615b6559c281482,64becb8ae6d57629a3e699c0,right,-1,0.3,0.2429,12,-0.011010186,0.9518,,,,,,165,0,165,0,1,,,,,
,,707334,001,2023-07-24_13h08.25.368,arm3_eps,2022.2.5,Win32,59.44596362,5fbfb99036e420313c504a36,64aea9d0f615b6559c281482,64becb8ae6d57629a3e699c0,down,-1,0.3,0.2429,12,0,1.2289,,,,,,166,0,166,0,1,,,,,
,,707334,001,2023-07-24_13h08.25.368,arm3_eps,2022.2.5,Win32,59.44596362,5fbfb99036e420313c504a36,64aea9d0f615b6559c281482,64becb8ae6d57629a3e699c0,right,-1,0.3,0.2429,12,-0.017560912,1.0515,,,,,,167,0,167,0,1,,,,,
,,707334,001,2023-07-24_13h08.25.368,arm3_eps,2022.2.5,Win32,59.44596362,5fbfb99036e420313c504a36,64aea9d0f615b6559c281482,64becb8ae6d57629a3e699c0,down,-1,0.3,0.2429,12,0,0.5177,,,,,,168,0,168,0,1,,,,,
,,707334,001,2023-07-24_13h08.25.368,arm3_eps,2022.2.5,Win32,59.44596362,5fbfb99036e420313c504a36,64aea9d0f615b6559c281482,64becb8ae6d57629a3e699c0,right,-1,0.3,0.2429,12,-0.016345743,0.9677,,,,,,169,0,169,0,1,,,,,
,,707334,001,2023-07-24_13h08.25.368,arm3_eps,2022.2.5,Win32,59.44596362,5fbfb99036e420313c504a36,64aea9d0f615b6559c281482,64becb8ae6d57629a3e699c0,down,-1,0.3,0.2429,12,0,0.5297,,,,,,170,0,170,0,1,,,,,
,,707334,001,2023-07-24_13h08.25.368,arm3_eps,2022.2.5,Win32,59.44596362,5fbfb99036e420313c504a36,64aea9d0f615b6559c281482,64becb8ae6d57629a3e699c0,right,-1,0.3,0.2429,12,0.011426543,0.8116,,,,,,171,0,171,0,1,,,,,
,,707334,001,2023-07-24_13h08.25.368,arm3_eps,2022.2.5,Win32,59.44596362,5fbfb99036e420313c504a36,64aea9d0f615b6559c281482,64becb8ae6d57629a3e699c0,right,-1,0.3,0.2429,12,0.005238751,0.6563,,,,,,172,0,172,0,1,,,,,
,,707334,001,2023-07-24_13h08.25.368,arm3_eps,2022.2.5,Win32,59.44596362,5fbfb99036e420313c504a36,64aea9d0f615b6559c281482,64becb8ae6d57629a3e699c0,down,-1,0.3,0.2429,12,0,0.6455,,,,,,173,0,173,0,1,,,,,
,,707334,001,2023-07-24_13h08.25.368,arm3_eps,2022.2.5,Win32,59.44596362,5fbfb99036e420313c504a36,64aea9d0f615b6559c281482,64becb8ae6d57629a3e699c0,right,-1,0.3,0.2429,12,-0.003897597,0.9268,,,,,,174,0,174,0,1,,,,,
,,707334,001,2023-07-24_13h08.25.368,arm3_eps,2022.2.5,Win32,59.44596362,5fbfb99036e420313c504a36,64aea9d0f615b6559c281482,64becb8ae6d57629a3e699c0,right,-1,0.3,0.2429,12,-0.021401037,0.4052,,,,,,175,0,175,0,1,,,,,
,,707334,001,2023-07-24_13h08.25.368,arm3_eps,2022.2.5,Win32,59.44596362,5fbfb99036e420313c504a36,64aea9d0f615b6559c281482,64becb8ae6d57629a3e699c0,down,-1,0.3,0.2429,12,0,0.5549,,,,,,176,0,176,0,1,,,,,
,,707334,001,2023-07-24_13h08.25.368,arm3_eps,2022.2.5,Win32,59.44596362,5fbfb99036e420313c504a36,64aea9d0f615b6559c281482,64becb8ae6d57629a3e699c0,right,-1,0.3,0.2429,12,-0.035143906,0.8604,,,,,,177,0,177,0,1,,,,,
,,707334,001,2023-07-24_13h08.25.368,arm3_eps,2022.2.5,Win32,59.44596362,5fbfb99036e420313c504a36,64aea9d0f615b6559c281482,64becb8ae6d57629a3e699c0,down,-1,0.3,0.2429,12,0,1.1131,,,,,,178,0,178,0,1,,,,,
,,707334,001,2023-07-24_13h08.25.368,arm3_eps,2022.2.5,Win32,59.44596362,5fbfb99036e420313c504a36,64aea9d0f615b6559c281482,64becb8ae6d57629a3e699c0,right,-1,0.3,0.2429,12,-0.014656027,1.1542,,,,,,179,0,179,0,1,,,,,
,,707334,001,2023-07-24_13h08.25.368,arm3_eps,2022.2.5,Win32,59.44596362,5fbfb99036e420313c504a36,64aea9d0f615b6559c281482,64becb8ae6d57629a3e699c0,right,-1,0.3,0.2429,12,-0.028040508,0.3969,,,,,,180,0,180,0,1,,,,,
,,707334,001,2023-07-24_13h08.25.368,arm3_eps,2022.2.5,Win32,59.44596362,5fbfb99036e420313c504a36,64aea9d0f615b6559c281482,64becb8ae6d57629a3e699c0,down,1,0.3,0.2429,12,0,0.5566,,,,,,181,0,181,0,1,,,,,
,,707334,001,2023-07-24_13h08.25.368,arm3_eps,2022.2.5,Win32,59.44596362,5fbfb99036e420313c504a36,64aea9d0f615b6559c281482,64becb8ae6d57629a3e699c0,right,1,0.3,0.2429,12,0.029347759,1.4445,,,,,,182,0,182,0,1,,,,,
,,707334,001,2023-07-24_13h08.25.368,arm3_eps,2022.2.5,Win32,59.44596362,5fbfb99036e420313c504a36,64aea9d0f615b6559c281482,64becb8ae6d57629a3e699c0,right,1,0.3,0.2429,12,0.009516819,0.7785,,,,,,183,0,183,0,1,,,,,
,,707334,001,2023-07-24_13h08.25.368,arm3_eps,2022.2.5,Win32,59.44596362,5fbfb99036e420313c504a36,64aea9d0f615b6559c281482,64becb8ae6d57629a3e699c0,right,1,0.3,0.2429,12,0.014915249,0.6133,,,,,,184,0,184,0,1,,,,,
,,707334,001,2023-07-24_13h08.25.368,arm3_eps,2022.2.5,Win32,59.44596362,5fbfb99036e420313c504a36,64aea9d0f615b6559c281482,64becb8ae6d57629a3e699c0,up,1,0.3,0.2429,12,0,0.4304,,,,,,185,0,185,0,1,,,,,
,,707334,001,2023-07-24_13h08.25.368,arm3_eps,2022.2.5,Win32,59.44596362,5fbfb99036e420313c504a36,64aea9d0f615b6559c281482,64becb8ae6d57629a3e699c0,right,1,0.3,0.2429,12,0.008965055,0.6605,,,,,,186,0,186,0,1,,,,,
,,707334,001,2023-07-24_13h08.25.368,arm3_eps,2022.2.5,Win32,59.44596362,5fbfb99036e420313c504a36,64aea9d0f615b6559c281482,64becb8ae6d57629a3e699c0,right,1,0.3,0.2429,12,0.013459843,0.4621,,,,,,187,0,187,0,1,,,,,
,,707334,001,2023-07-24_13h08.25.368,arm3_eps,2022.2.5,Win32,59.44596362,5fbfb99036e420313c504a36,64aea9d0f615b6559c281482,64becb8ae6d57629a3e699c0,up,1,0.3,0.2429,12,0,0.467,,,,,,188,0,188,0,1,,,,,
,,707334,001,2023-07-24_13h08.25.368,arm3_eps,2022.2.5,Win32,59.44596362,5fbfb99036e420313c504a36,64aea9d0f615b6559c281482,64becb8ae6d57629a3e699c0,right,1,0.3,0.2429,12,-0.006981863,0.67,,,,,,189,0,189,0,1,,,,,
,,707334,001,2023-07-24_13h08.25.368,arm3_eps,2022.2.5,Win32,59.44596362,5fbfb99036e420313c504a36,64aea9d0f615b6559c281482,64becb8ae6d57629a3e699c0,up,1,0.3,0.2429,13,0,4.7285,,,,,,190,0,190,0,1,,,,,
,,707334,001,2023-07-24_13h08.25.368,arm3_eps,2022.2.5,Win32,59.44596362,5fbfb99036e420313c504a36,64aea9d0f615b6559c281482,64becb8ae6d57629a3e699c0,right,1,0.3,0.2429,13,0.01442345,0.9335,,,,,,191,0,191,0,1,,,,,
,,707334,001,2023-07-24_13h08.25.368,arm3_eps,2022.2.5,Win32,59.44596362,5fbfb99036e420313c504a36,64aea9d0f615b6559c281482,64becb8ae6d57629a3e699c0,right,1,0.3,0.2429,13,-0.001973507,0.7758,,,,,,192,0,192,0,1,,,,,
,,707334,001,2023-07-24_13h08.25.368,arm3_eps,2022.2.5,Win32,59.44596362,5fbfb99036e420313c504a36,64aea9d0f615b6559c281482,64becb8ae6d57629a3e699c0,down,1,0.3,0.2429,12,0,0.618,,,,,,193,0,193,0,1,,,,,
,,707334,001,2023-07-24_13h08.25.368,arm3_eps,2022.2.5,Win32,59.44596362,5fbfb99036e420313c504a36,64aea9d0f615b6559c281482,64becb8ae6d57629a3e699c0,right,1,0.3,0.2429,12,0.007786161,1.0007,,,,,,194,0,194,0,1,,,,,
,,707334,001,2023-07-24_13h08.25.368,arm3_eps,2022.2.5,Win32,59.44596362,5fbfb99036e420313c504a36,64aea9d0f615b6559c281482,64becb8ae6d57629a3e699c0,up,-1,0.3,0.2429,12,0,1.2334,,,,,,195,0,195,0,1,,,,,
,,707334,001,2023-07-24_13h08.25.368,arm3_eps,2022.2.5,Win32,59.44596362,5fbfb99036e420313c504a36,64aea9d0f615b6559c281482,64becb8ae6d57629a3e699c0,right,-1,0.3,0.2429,12,-0.023411108,0.8823,,,,,,196,0,196,0,1,,,,,
,,707334,001,2023-07-24_13h08.25.368,arm3_eps,2022.2.5,Win32,59.44596362,5fbfb99036e420313c504a36,64aea9d0f615b6559c281482,64becb8ae6d57629a3e699c0,right,-1,0.3,0.2429,12,-0.011826099,0.7523,,,,,,197,0,197,0,1,,,,,
,,707334,001,2023-07-24_13h08.25.368,arm3_eps,2022.2.5,Win32,59.44596362,5fbfb99036e420313c504a36,64aea9d0f615b6559c281482,64becb8ae6d57629a3e699c0,right,-1,0.3,0.2429,12,-0.030657081,0.5513,,,,,,198,0,198,0,1,,,,,
,,707334,001,2023-07-24_13h08.25.368,arm3_eps,2022.2.5,Win32,59.44596362,5fbfb99036e420313c504a36,64aea9d0f615b6559c281482,64becb8ae6d57629a3e699c0,down,-1,0.3,0.2429,12,0,0.3671,,,,,,199,0,199,0,1,,,,,
,,707334,001,2023-07-24_13h08.25.368,arm3_eps,2022.2.5,Win32,59.44596362,5fbfb99036e420313c504a36,64aea9d0f615b6559c281482,64becb8ae6d57629a3e699c0,right,-1,0.3,0.2429,12,0.022434619,0.6841,,,,,,200,0,200,0,1,,,,,
,,707334,001,2023-07-24_13h08.25.368,arm3_eps,2022.2.5,Win32,59.44596362,5fbfb99036e420313c504a36,64aea9d0f615b6559c281482,64becb8ae6d57629a3e699c0,up,-1,0.3,0.2429,11,0,0.6672,,,,,,201,0,201,0,1,,,,,
,,707334,001,2023-07-24_13h08.25.368,arm3_eps,2022.2.5,Win32,59.44596362,5fbfb99036e420313c504a36,64aea9d0f615b6559c281482,64becb8ae6d57629a3e699c0,right,-1,0.3,0.2429,11,-0.011978439,0.6887,,,,,,202,0,202,0,1,,,,,
,,707334,001,2023-07-24_13h08.25.368,arm3_eps,2022.2.5,Win32,59.44596362,5fbfb99036e420313c504a36,64aea9d0f615b6559c281482,64becb8ae6d57629a3e699c0,right,-1,0.3,0.2429,11,-0.005531883,0.6339,,,,,,203,0,203,0,1,,,,,
,,707334,001,2023-07-24_13h08.25.368,arm3_eps,2022.2.5,Win32,59.44596362,5fbfb99036e420313c504a36,64aea9d0f615b6559c281482,64becb8ae6d57629a3e699c0,down,-1,0.3,0.2429,12,0,0.8329,,,,,,204,0,204,0,1,,,,,
,,707334,001,2023-07-24_13h08.25.368,arm3_eps,2022.2.5,Win32,59.44596362,5fbfb99036e420313c504a36,64aea9d0f615b6559c281482,64becb8ae6d57629a3e699c0,right,-1,0.3,0.2429,12,-0.003212949,1.151,,,,,,205,0,205,0,1,,,,,
,,707334,001,2023-07-24_13h08.25.368,arm3_eps,2022.2.5,Win32,59.44596362,5fbfb99036e420313c504a36,64aea9d0f615b6559c281482,64becb8ae6d57629a3e699c0,right,-1,0.3,0.2429,12,-0.018208609,0.451,,,,,,206,0,206,0,1,,,,,
,,707334,001,2023-07-24_13h08.25.368,arm3_eps,2022.2.5,Win32,59.44596362,5fbfb99036e420313c504a36,64aea9d0f615b6559c281482,64becb8ae6d57629a3e699c0,down,-1,0.3,0.2429,13,0,0.8226,,,,,,207,0,207,0,1,,,,,
,,707334,001,2023-07-24_13h08.25.368,arm3_eps,2022.2.5,Win32,59.44596362,5fbfb99036e420313c504a36,64aea9d0f615b6559c281482,64becb8ae6d57629a3e699c0,right,-1,0.3,0.2429,13,-0.010257856,0.8998,,,,,,208,0,208,0,1,,,,,
,,707334,001,2023-07-24_13h08.25.368,arm3_eps,2022.2.5,Win32,59.44596362,5fbfb99036e420313c504a36,64aea9d0f615b6559c281482,64becb8ae6d57629a3e699c0,down,-1,0.3,0.2429,13,0,0.5342,,,,,,209,0,209,0,1,,,,,
,,707334,001,2023-07-24_13h08.25.368,arm3_eps,2022.2.5,Win32,59.44596362,5fbfb99036e420313c504a36,64aea9d0f615b6559c281482,64becb8ae6d57629a3e699c0,right,-1,0.3,0.2429,13,-0.001134279,0.7174,,,,,,210,0,210,0,1,,,,,
,,707334,001,2023-07-24_13h08.25.368,arm3_eps,2022.2.5,Win32,59.44596362,5fbfb99036e420313c504a36,64aea9d0f615b6559c281482,64becb8ae6d57629a3e699c0,right,-1,0.3,0.2429,13,0.005845593,0.5176,,,,,,211,0,211,0,1,,,,,
,,707334,001,2023-07-24_13h08.25.368,arm3_eps,2022.2.5,Win32,59.44596362,5fbfb99036e420313c504a36,64aea9d0f615b6559c281482,64becb8ae6d57629a3e699c0,right,-1,0.3,0.2429,13,-0.017488194,0.5008,,,,,,212,0,212,0,1,,,,,
,,707334,001,2023-07-24_13h08.25.368,arm3_eps,2022.2.5,Win32,59.44596362,5fbfb99036e420313c504a36,64aea9d0f615b6559c281482,64becb8ae6d57629a3e699c0,down,-1,0.3,0.2429,13,0,0.4006,,,,,,213,0,213,0,1,,,,,
,,707334,001,2023-07-24_13h08.25.368,arm3_eps,2022.2.5,Win32,59.44596362,5fbfb99036e420313c504a36,64aea9d0f615b6559c281482,64becb8ae6d57629a3e699c0,right,-1,0.3,0.2429,13,0.025445088,0.5559,,,,,,214,0,214,0,1,,,,,
,,707334,001,2023-07-24_13h08.25.368,arm3_eps,2022.2.5,Win32,59.44596362,5fbfb99036e420313c504a36,64aea9d0f615b6559c281482,64becb8ae6d57629a3e699c0,right,-1,0.3,0.2429,13,0.012938923,0.8371,,,,,,215,0,215,0,1,,,,,
,,707334,001,2023-07-24_13h08.25.368,arm3_eps,2022.2.5,Win32,59.44596362,5fbfb99036e420313c504a36,64aea9d0f615b6559c281482,64becb8ae6d57629a3e699c0,down,-1,0.3,0.2429,13,0,0.7297,,,,,,216,0,216,0,1,,,,,
,,707334,001,2023-07-24_13h08.25.368,arm3_eps,2022.2.5,Win32,59.44596362,5fbfb99036e420313c504a36,64aea9d0f615b6559c281482,64becb8ae6d57629a3e699c0,right,-1,0.3,0.2429,13,-0.016917613,0.4828,,,,,,217,0,217,0,1,,,,,
,,707334,001,2023-07-24_13h08.25.368,arm3_eps,2022.2.5,Win32,59.44596362,5fbfb99036e420313c504a36,64aea9d0f615b6559c281482,64becb8ae6d57629a3e699c0,right,-1,0.3,0.2429,13,-0.017933461,0.5125,,,,,,218,0,218,0,1,,,,,
,,707334,001,2023-07-24_13h08.25.368,arm3_eps,2022.2.5,Win32,59.44596362,5fbfb99036e420313c504a36,64aea9d0f615b6559c281482,64becb8ae6d57629a3e699c0,down,-1,0.3,0.2429,13,0,0.5346,,,,,,219,0,219,0,1,,,,,
,,707334,001,2023-07-24_13h08.25.368,arm3_eps,2022.2.5,Win32,59.44596362,5fbfb99036e420313c504a36,64aea9d0f615b6559c281482,64becb8ae6d57629a3e699c0,right,-1,0.3,0.2429,13,-7.92411E-05,0.8201,,,,,,220,0,220,0,1,,,,,
,,707334,001,2023-07-24_13h08.25.368,arm3_eps,2022.2.5,Win32,59.44596362,5fbfb99036e420313c504a36,64aea9d0f615b6559c281482,64becb8ae6d57629a3e699c0,right,-1,0.3,0.2429,13,0.008952989,0.3877,,,,,,221,0,221,0,1,,,,,
,,707334,001,2023-07-24_13h08.25.368,arm3_eps,2022.2.5,Win32,59.44596362,5fbfb99036e420313c504a36,64aea9d0f615b6559c281482,64becb8ae6d57629a3e699c0,right,-1,0.3,0.2429,13,0.012513786,0.3332,,,,,,222,0,222,0,1,,,,,
,,707334,001,2023-07-24_13h08.25.368,arm3_eps,2022.2.5,Win32,59.44596362,5fbfb99036e420313c504a36,64aea9d0f615b6559c281482,64becb8ae6d57629a3e699c0,right,-1,0.3,0.2429,13,-0.015162134,0.4167,,,,,,223,0,223,0,1,,,,,
,,707334,001,2023-07-24_13h08.25.368,arm3_eps,2022.2.5,Win32,59.44596362,5fbfb99036e420313c504a36,64aea9d0f615b6559c281482,64becb8ae6d57629a3e699c0,down,-1,0.3,0.2429,13,0,1.0856,,,,,,224,0,224,0,1,,,,,
,,707334,001,2023-07-24_13h08.25.368,arm3_eps,2022.2.5,Win32,59.44596362,5fbfb99036e420313c504a36,64aea9d0f615b6559c281482,64becb8ae6d57629a3e699c0,right,-1,0.3,0.2429,13,0.006698827,0.9284,,,,,,225,0,225,0,1,,,,,
,,707334,001,2023-07-24_13h08.25.368,arm3_eps,2022.2.5,Win32,59.44596362,5fbfb99036e420313c504a36,64aea9d0f615b6559c281482,64becb8ae6d57629a3e699c0,down,-1,0.3,0.2429,13,0,2.4563,,,,,,226,0,226,0,1,,,,,
,,707334,001,2023-07-24_13h08.25.368,arm3_eps,2022.2.5,Win32,59.44596362,5fbfb99036e420313c504a36,64aea9d0f615b6559c281482,64becb8ae6d57629a3e699c0,right,-1,0.3,0.2429,13,-0.023180033,0.8499,,,,,,227,0,227,0,1,,,,,
,,707334,001,2023-07-24_13h08.25.368,arm3_eps,2022.2.5,Win32,59.44596362,5fbfb99036e420313c504a36,64aea9d0f615b6559c281482,64becb8ae6d57629a3e699c0,right,-1,0.3,0.2429,13,-0.003720453,0.4623,,,,,,228,0,228,0,1,,,,,
,,707334,001,2023-07-24_13h08.25.368,arm3_eps,2022.2.5,Win32,59.44596362,5fbfb99036e420313c504a36,64aea9d0f615b6559c281482,64becb8ae6d57629a3e699c0,down,1,0.3,0.2429,13,0,0.547,,,,,,229,0,229,0,1,,,,,
,,707334,001,2023-07-24_13h08.25.368,arm3_eps,2022.2.5,Win32,59.44596362,5fbfb99036e420313c504a36,64aea9d0f615b6559c281482,64becb8ae6d57629a3e699c0,right,1,0.3,0.2429,13,0.039019056,0.545,,,,,,230,0,230,0,1,,,,,
,,707334,001,2023-07-24_13h08.25.368,arm3_eps,2022.2.5,Win32,59.44596362,5fbfb99036e420313c504a36,64aea9d0f615b6559c281482,64becb8ae6d57629a3e699c0,up,1,0.3,0.2429,13,0,0.7047,,,,,,231,0,231,0,1,,,,,
,,707334,001,2023-07-24_13h08.25.368,arm3_eps,2022.2.5,Win32,59.44596362,5fbfb99036e420313c504a36,64aea9d0f615b6559c281482,64becb8ae6d57629a3e699c0,right,1,0.3,0.2429,13,-0.011954175,0.9206,,,,,,232,0,232,0,1,,,,,
,,707334,001,2023-07-24_13h08.25.368,arm3_eps,2022.2.5,Win32,59.44596362,5fbfb99036e420313c504a36,64aea9d0f615b6559c281482,64becb8ae6d57629a3e699c0,up,1,0.3,0.2429,13,0,0.9529,,,,,,233,0,233,0,1,,,,,
,,707334,001,2023-07-24_13h08.25.368,arm3_eps,2022.2.5,Win32,59.44596362,5fbfb99036e420313c504a36,64aea9d0f615b6559c281482,64becb8ae6d57629a3e699c0,right,1,0.3,0.2429,13,-0.009121069,0.777,,,,,,234,0,234,0,1,,,,,
,,707334,001,2023-07-24_13h08.25.368,arm3_eps,2022.2.5,Win32,59.44596362,5fbfb99036e420313c504a36,64aea9d0f615b6559c281482,64becb8ae6d57629a3e699c0,down,1,0.3,0.2429,13,0,0.8213,,,,,,235,0,235,0,1,,,,,
,,707334,001,2023-07-24_13h08.25.368,arm3_eps,2022.2.5,Win32,59.44596362,5fbfb99036e420313c504a36,64aea9d0f615b6559c281482,64becb8ae6d57629a3e699c0,right,1,0.3,0.2429,13,0.03544639,0.6113,,,,,,236,0,236,0,1,,,,,
,,707334,001,2023-07-24_13h08.25.368,arm3_eps,2022.2.5,Win32,59.44596362,5fbfb99036e420313c504a36,64aea9d0f615b6559c281482,64becb8ae6d57629a3e699c0,up,1,0.3,0.2429,14,0,0.5837,,,,,,237,0,237,0,1,,,,,
,,707334,001,2023-07-24_13h08.25.368,arm3_eps,2022.2.5,Win32,59.44596362,5fbfb99036e420313c504a36,64aea9d0f615b6559c281482,64becb8ae6d57629a3e699c0,right,1,0.3,0.2429,14,0.005417273,0.5933,,,,,,238,0,238,0,1,,,,,
,,707334,001,2023-07-24_13h08.25.368,arm3_eps,2022.2.5,Win32,59.44596362,5fbfb99036e420313c504a36,64aea9d0f615b6559c281482,64becb8ae6d57629a3e699c0,up,1,0.3,0.2429,15,0,0.5167,,,,,,239,0,239,0,1,,,,,
,,707334,001,2023-07-24_13h08.25.368,arm3_eps,2022.2.5,Win32,59.44596362,5fbfb99036e420313c504a36,64aea9d0f615b6559c281482,64becb8ae6d57629a3e699c0,right,1,0.3,0.2429,15,0.017921283,0.6336,,,,,,240,0,240,0,1,,,,,
,,707334,001,2023-07-24_13h08.25.368,arm3_eps,2022.2.5,Win32,59.44596362,5fbfb99036e420313c504a36,64aea9d0f615b6559c281482,64becb8ae6d57629a3e699c0,up,1,0.3,0.2429,15,0,0.5306,,,,,,241,0,241,0,1,,,,,
,,707334,001,2023-07-24_13h08.25.368,arm3_eps,2022.2.5,Win32,59.44596362,5fbfb99036e420313c504a36,64aea9d0f615b6559c281482,64becb8ae6d57629a3e699c0,right,1,0.3,0.2429,15,0.018365026,0.6903,,,,,,242,0,242,0,1,,,,,
,,707334,001,2023-07-24_13h08.25.368,arm3_eps,2022.2.5,Win32,59.44596362,5fbfb99036e420313c504a36,64aea9d0f615b6559c281482,64becb8ae6d57629a3e699c0,down,-1,0.3,0.2429,15,0,1.0287,,,,,,243,0,243,0,1,,,,,
,,707334,001,2023-07-24_13h08.25.368,arm3_eps,2022.2.5,Win32,59.44596362,5fbfb99036e420313c504a36,64aea9d0f615b6559c281482,64becb8ae6d57629a3e699c0,right,-1,0.3,0.2429,15,-0.018528289,0.5973,,,,,,244,0,244,0,1,,,,,
,,707334,001,2023-07-24_13h08.25.368,arm3_eps,2022.2.5,Win32,59.44596362,5fbfb99036e420313c504a36,64aea9d0f615b6559c281482,64becb8ae6d57629a3e699c0,down,-1,0.3,0.2429,16,0,0.8184,,,,,,245,0,245,0,1,,,,,
,,707334,001,2023-07-24_13h08.25.368,arm3_eps,2022.2.5,Win32,59.44596362,5fbfb99036e420313c504a36,64aea9d0f615b6559c281482,64becb8ae6d57629a3e699c0,right,-1,0.3,0.2429,16,-0.017654315,0.7453,,,,,,246,0,246,0,1,,,,,
,,707334,001,2023-07-24_13h08.25.368,arm3_eps,2022.2.5,Win32,59.44596362,5fbfb99036e420313c504a36,64aea9d0f615b6559c281482,64becb8ae6d57629a3e699c0,down,-1,0.3,0.2429,16,0,0.4952,,,,,,247,0,247,0,1,,,,,
,,707334,001,2023-07-24_13h08.25.368,arm3_eps,2022.2.5,Win32,59.44596362,5fbfb99036e420313c504a36,64aea9d0f615b6559c281482,64becb8ae6d57629a3e699c0,right,-1,0.3,0.2429,16,0.00961876,0.6586,,,,,,248,0,248,0,1,,,,,
,,707334,001,2023-07-24_13h08.25.368,arm3_eps,2022.2.5,Win32,59.44596362,5fbfb99036e420313c504a36,64aea9d0f615b6559c281482,64becb8ae6d57629a3e699c0,right,-1,0.3,0.2429,16,-0.002539749,1.1626,,,,,,249,0,249,0,1,,,,,
,,707334,001,2023-07-24_13h08.25.368,arm3_eps,2022.2.5,Win32,59.44596362,5fbfb99036e420313c504a36,64aea9d0f615b6559c281482,64becb8ae6d57629a3e699c0,up,-1,0.3,0.2429,16,0,0.7295,,,,,,250,0,250,0,1,,,,,
,,707334,001,2023-07-24_13h08.25.368,arm3_eps,2022.2.5,Win32,59.44596362,5fbfb99036e420313c504a36,64aea9d0f615b6559c281482,64becb8ae6d57629a3e699c0,right,-1,0.3,0.2429,16,-0.003934881,0.6102,,,,,,251,0,251,0,1,,,,,
,,707334,001,2023-07-24_13h08.25.368,arm3_eps,2022.2.5,Win32,59.44596362,5fbfb99036e420313c504a36,64aea9d0f615b6559c281482,64becb8ae6d57629a3e699c0,right,-1,0.3,0.2429,16,-0.009108948,0.5792,,,,,,252,0,252,0,1,,,,,
,,707334,001,2023-07-24_13h08.25.368,arm3_eps,2022.2.5,Win32,59.44596362,5fbfb99036e420313c504a36,64aea9d0f615b6559c281482,64becb8ae6d57629a3e699c0,down,1,0.3,0.2429,16,0,0.4229,,,,,,253,0,253,0,1,,,,,
,,707334,001,2023-07-24_13h08.25.368,arm3_eps,2022.2.5,Win32,59.44596362,5fbfb99036e420313c504a36,64aea9d0f615b6559c281482,64becb8ae6d57629a3e699c0,right,1,0.3,0.2429,16,0.001335994,1.0434,,,,,,254,0,254,0,1,,,,,
,,707334,001,2023-07-24_13h08.25.368,arm3_eps,2022.2.5,Win32,59.44596362,5fbfb99036e420313c504a36,64aea9d0f615b6559c281482,64becb8ae6d57629a3e699c0,up,1,0.3,0.2429,16,0,0.9124,,,,,,255,0,255,0,1,,,,,
,,707334,001,2023-07-24_13h08.25.368,arm3_eps,2022.2.5,Win32,59.44596362,5fbfb99036e420313c504a36,64aea9d0f615b6559c281482,64becb8ae6d57629a3e699c0,right,1,0.3,0.2429,16,0.020582142,0.9772,,,,,,256,0,256,0,1,,,,,
,,707334,001,2023-07-24_13h08.25.368,arm3_eps,2022.2.5,Win32,59.44596362,5fbfb99036e420313c504a36,64aea9d0f615b6559c281482,64becb8ae6d57629a3e699c0,up,-1,0.3,0.2429,16,0,0.4661,,,,,,257,0,257,0,1,,,,,
,,707334,001,2023-07-24_13h08.25.368,arm3_eps,2022.2.5,Win32,59.44596362,5fbfb99036e420313c504a36,64aea9d0f615b6559c281482,64becb8ae6d57629a3e699c0,right,-1,0.3,0.2429,16,0.017012504,1.0589,,,,,,258,0,258,0,1,,,,,
,,707334,001,2023-07-24_13h08.25.368,arm3_eps,2022.2.5,Win32,59.44596362,5fbfb99036e420313c504a36,64aea9d0f615b6559c281482,64becb8ae6d57629a3e699c0,up,-1,0.3,0.2429,15,0,0.972,,,,,,259,0,259,0,1,,,,,
,,707334,001,2023-07-24_13h08.25.368,arm3_eps,2022.2.5,Win32,59.44596362,5fbfb99036e420313c504a36,64aea9d0f615b6559c281482,64becb8ae6d57629a3e699c0,right,-1,0.3,0.2429,15,0.006845527,1.1251,,,,,,260,0,260,0,1,,,,,
,,707334,001,2023-07-24_13h08.25.368,arm3_eps,2022.2.5,Win32,59.44596362,5fbfb99036e420313c504a36,64aea9d0f615b6559c281482,64becb8ae6d57629a3e699c0,down,-1,0.3,0.2429,15,0,1.1557,,,,,,261,0,261,0,1,,,,,
,,707334,001,2023-07-24_13h08.25.368,arm3_eps,2022.2.5,Win32,59.44596362,5fbfb99036e420313c504a36,64aea9d0f615b6559c281482,64becb8ae6d57629a3e699c0,right,-1,0.3,0.2429,15,-0.014933429,1.0263,,,,,,262,0,262,0,1,,,,,
,,707334,001,2023-07-24_13h08.25.368,arm3_eps,2022.2.5,Win32,59.44596362,5fbfb99036e420313c504a36,64aea9d0f615b6559c281482,64becb8ae6d57629a3e699c0,down,-1,0.3,0.2429,16,0,0.3799,,,,,,263,0,263,0,1,,,,,
,,707334,001,2023-07-24_13h08.25.368,arm3_eps,2022.2.5,Win32,59.44596362,5fbfb99036e420313c504a36,64aea9d0f615b6559c281482,64becb8ae6d57629a3e699c0,right,-1,0.3,0.2429,16,0.000441877,1.2398,,,,,,264,0,264,0,1,,,,,
,,707334,001,2023-07-24_13h08.25.368,arm3_eps,2022.2.5,Win32,59.44596362,5fbfb99036e420313c504a36,64aea9d0f615b6559c281482,64becb8ae6d57629a3e699c0,right,-1,0.3,0.2429,16,-0.00600128,0.3843,,,,,,265,0,265,0,1,,,,,
,,707334,001,2023-07-24_13h08.25.368,arm3_eps,2022.2.5,Win32,59.44596362,5fbfb99036e420313c504a36,64aea9d0f615b6559c281482,64becb8ae6d57629a3e699c0,down,-1,0.3,0.2429,16,0,0.3794,,,,,,266,0,266,0,1,,,,,
,,707334,001,2023-07-24_13h08.25.368,arm3_eps,2022.2.5,Win32,59.44596362,5fbfb99036e420313c504a36,64aea9d0f615b6559c281482,64becb8ae6d57629a3e699c0,right,-1,0.3,0.2429,16,-0.018558095,0.8284,,,,,,267,0,267,0,1,,,,,
,,707334,001,2023-07-24_13h08.25.368,arm3_eps,2022.2.5,Win32,59.44596362,5fbfb99036e420313c504a36,64aea9d0f615b6559c281482,64becb8ae6d57629a3e699c0,down,-1,0.3,0.2429,17,0,2.1182,,,,,,268,0,268,0,1,,,,,
,,707334,001,2023-07-24_13h08.25.368,arm3_eps,2022.2.5,Win32,59.44596362,5fbfb99036e420313c504a36,64aea9d0f615b6559c281482,64becb8ae6d57629a3e699c0,right,-1,0.3,0.2429,17,-9.45137E-05,1.429,,,,,,269,0,269,0,1,,,,,
,,707334,001,2023-07-24_13h08.25.368,arm3_eps,2022.2.5,Win32,59.44596362,5fbfb99036e420313c504a36,64aea9d0f615b6559c281482,64becb8ae6d57629a3e699c0,right,-1,0.3,0.2429,17,-0.008700952,0.2879,,,,,,270,0,270,0,1,,,,,
,,707334,001,2023-07-24_13h08.25.368,arm3_eps,2022.2.5,Win32,59.44596362,5fbfb99036e420313c504a36,64aea9d0f615b6559c281482,64becb8ae6d57629a3e699c0,down,-1,0.3,0.2429,17,0,0.4831,,,,,,271,0,271,0,1,,,,,
,,707334,001,2023-07-24_13h08.25.368,arm3_eps,2022.2.5,Win32,59.44596362,5fbfb99036e420313c504a36,64aea9d0f615b6559c281482,64becb8ae6d57629a3e699c0,right,-1,0.3,0.2429,17,0.000271821,0.7844,,,,,,272,0,272,0,1,,,,,
,,707334,001,2023-07-24_13h08.25.368,arm3_eps,2022.2.5,Win32,59.44596362,5fbfb99036e420313c504a36,64aea9d0f615b6559c281482,64becb8ae6d57629a3e699c0,right,-1,0.3,0.2429,17,-0.009782188,0.3292,,,,,,273,0,273,0,1,,,,,
,,707334,001,2023-07-24_13h08.25.368,arm3_eps,2022.2.5,Win32,59.44596362,5fbfb99036e420313c504a36,64aea9d0f615b6559c281482,64becb8ae6d57629a3e699c0,down,1,0.3,0.2429,18,0,0.2956,,,,,,274,0,274,0,1,,,,,
,,707334,001,2023-07-24_13h08.25.368,arm3_eps,2022.2.5,Win32,59.44596362,5fbfb99036e420313c504a36,64aea9d0f615b6559c281482,64becb8ae6d57629a3e699c0,right,1,0.3,0.2429,18,0.005209193,0.6798,,,,,,275,0,275,0,1,,,,,
,,707334,001,2023-07-24_13h08.25.368,arm3_eps,2022.2.5,Win32,59.44596362,5fbfb99036e420313c504a36,64aea9d0f615b6559c281482,64becb8ae6d57629a3e699c0,right,1,0.3,0.2429,18,0.008530612,0.379,,,,,,276,0,276,0,1,,,,,
,,707334,001,2023-07-24_13h08.25.368,arm3_eps,2022.2.5,Win32,59.44596362,5fbfb99036e420313c504a36,64aea9d0f615b6559c281482,64becb8ae6d57629a3e699c0,up,1,0.3,0.2429,18,0,0.9129,,,,,,277,0,277,0,1,,,,,
,,707334,001,2023-07-24_13h08.25.368,arm3_eps,2022.2.5,Win32,59.44596362,5fbfb99036e420313c504a36,64aea9d0f615b6559c281482,64becb8ae6d57629a3e699c0,right,1,0.3,0.2429,18,-0.018913283,0.6995,,,,,,278,0,278,0,1,,,,,
,,707334,001,2023-07-24_13h08.25.368,arm3_eps,2022.2.5,Win32,59.44596362,5fbfb99036e420313c504a36,64aea9d0f615b6559c281482,64becb8ae6d57629a3e699c0,right,1,0.3,0.2429,18,0.015235643,0.7874,,,,,,279,0,279,0,1,,,,,
,,707334,001,2023-07-24_13h08.25.368,arm3_eps,2022.2.5,Win32,59.44596362,5fbfb99036e420313c504a36,64aea9d0f615b6559c281482,64becb8ae6d57629a3e699c0,up,1,0.3,0.2429,18,0,0.4866,,,,,,280,0,280,0,1,,,,,
,,707334,001,2023-07-24_13h08.25.368,arm3_eps,2022.2.5,Win32,59.44596362,5fbfb99036e420313c504a36,64aea9d0f615b6559c281482,64becb8ae6d57629a3e699c0,right,1,0.3,0.2429,18,-0.018531462,0.8597,,,,,,281,0,281,0,1,,,,,
,,707334,001,2023-07-24_13h08.25.368,arm3_eps,2022.2.5,Win32,59.44596362,5fbfb99036e420313c504a36,64aea9d0f615b6559c281482,64becb8ae6d57629a3e699c0,right,1,0.3,0.2429,18,-0.000625951,0.3784,,,,,,282,0,282,0,1,,,,,
,,707334,001,2023-07-24_13h08.25.368,arm3_eps,2022.2.5,Win32,59.44596362,5fbfb99036e420313c504a36,64aea9d0f615b6559c281482,64becb8ae6d57629a3e699c0,up,1,0.3,0.2429,18,0,1.4047,,,,,,283,0,283,0,1,,,,,
,,707334,001,2023-07-24_13h08.25.368,arm3_eps,2022.2.5,Win32,59.44596362,5fbfb99036e420313c504a36,64aea9d0f615b6559c281482,64becb8ae6d57629a3e699c0,right,1,0.3,0.2429,18,-0.007244844,2.1174,,,,,,284,0,284,0,1,,,,,
,,707334,001,2023-07-24_13h08.25.368,arm3_eps,2022.2.5,Win32,59.44596362,5fbfb99036e420313c504a36,64aea9d0f615b6559c281482,64becb8ae6d57629a3e699c0,right,1,0.3,0.2429,18,0.003637644,0.6114,,,,,,285,0,285,0,1,,,,,
,,707334,001,2023-07-24_13h08.25.368,arm3_eps,2022.2.5,Win32,59.44596362,5fbfb99036e420313c504a36,64aea9d0f615b6559c281482,64becb8ae6d57629a3e699c0,up,-1,0.3,0.2429,18,0,0.4796,,,,,,286,0,286,0,1,,,,,
,,707334,001,2023-07-24_13h08.25.368,arm3_eps,2022.2.5,Win32,59.44596362,5fbfb99036e420313c504a36,64aea9d0f615b6559c281482,64becb8ae6d57629a3e699c0,right,-1,0.3,0.2429,18,-0.032901619,1.9101,,,,,,287,0,287,0,1,,,,,
,,707334,001,2023-07-24_13h08.25.368,arm3_eps,2022.2.5,Win32,59.44596362,5fbfb99036e420313c504a36,64aea9d0f615b6559c281482,64becb8ae6d57629a3e699c0,right,-1,0.3,0.2429,18,-0.033021004,0.3829,,,,,,288,0,288,0,1,,,,,
,,707334,001,2023-07-24_13h08.25.368,arm3_eps,2022.2.5,Win32,59.44596362,5fbfb99036e420313c504a36,64aea9d0f615b6559c281482,64becb8ae6d57629a3e699c0,down,-1,0.3,0.2429,18,0,0.3782,,,,,,289,0,289,0,1,,,,,
,,707334,001,2023-07-24_13h08.25.368,arm3_eps,2022.2.5,Win32,59.44596362,5fbfb99036e420313c504a36,64aea9d0f615b6559c281482,64becb8ae6d57629a3e699c0,right,-1,0.3,0.2429,18,-0.004061633,0.6839,,,,,,290,0,290,0,1,,,,,
,,707334,001,2023-07-24_13h08.25.368,arm3_eps,2022.2.5,Win32,59.44596362,5fbfb99036e420313c504a36,64aea9d0f615b6559c281482,64becb8ae6d57629a3e699c0,right,-1,0.3,0.2429,18,0.01906089,0.479,,,,,,291,0,291,0,1,,,,,
,,707334,001,2023-07-24_13h08.25.368,arm3_eps,2022.2.5,Win32,59.44596362,5fbfb99036e420313c504a36,64aea9d0f615b6559c281482,64becb8ae6d57629a3e699c0,right,-1,0.3,0.2429,18,0.006460137,0.7451,,,,,,292,0,292,0,1,,,,,
,,707334,001,2023-07-24_13h08.25.368,arm3_eps,2022.2.5,Win32,59.44596362,5fbfb99036e420313c504a36,64aea9d0f615b6559c281482,64becb8ae6d57629a3e699c0,down,-1,0.3,0.2429,19,0,2.1438,,,,,,293,0,293,0,1,,,,,
,,707334,001,2023-07-24_13h08.25.368,arm3_eps,2022.2.5,Win32,59.44596362,5fbfb99036e420313c504a36,64aea9d0f615b6559c281482,64becb8ae6d57629a3e699c0,right,-1,0.3,0.2429,19,0.000512542,1.0258,,,,,,294,0,294,0,1,,,,,
,,707334,001,2023-07-24_13h08.25.368,arm3_eps,2022.2.5,Win32,59.44596362,5fbfb99036e420313c504a36,64aea9d0f615b6559c281482,64becb8ae6d57629a3e699c0,right,-1,0.3,0.2429,19,-0.036707032,0.6164,,,,,,295,0,295,0,1,,,,,
,,707334,001,2023-07-24_13h08.25.368,arm3_eps,2022.2.5,Win32,59.44596362,5fbfb99036e420313c504a36,64aea9d0f615b6559c281482,64becb8ae6d57629a3e699c0,right,-1,0.3,0.2429,19,-0.024466375,0.9742,,,,,,296,0,296,0,1,,,,,
,,707334,001,2023-07-24_13h08.25.368,arm3_eps,2022.2.5,Win32,59.44596362,5fbfb99036e420313c504a36,64aea9d0f615b6559c281482,64becb8ae6d57629a3e699c0,down,1,0.3,0.2429,19,0,1.0794,,,,,,297,0,297,0,1,,,,,
,,707334,001,2023-07-24_13h08.25.368,arm3_eps,2022.2.5,Win32,59.44596362,5fbfb99036e420313c504a36,64aea9d0f615b6559c281482,64becb8ae6d57629a3e699c0,right,1,0.3,0.2429,19,0.00706453,0.7844,,,,,,298,0,298,0,1,,,,,
,,707334,001,2023-07-24_13h08.25.368,arm3_eps,2022.2.5,Win32,59.44596362,5fbfb99036e420313c504a36,64aea9d0f615b6559c281482,64becb8ae6d57629a3e699c0,right,1,0.3,0.2429,19,0.00755975,0.914,,,,,,299,0,299,0,1,,,,,
,,707334,001,2023-07-24_13h08.25.368,arm3_eps,2022.2.5,Win32,59.44596362,5fbfb99036e420313c504a36,64aea9d0f615b6559c281482,64becb8ae6d57629a3e699c0,right,1,0.3,0.2429,19,-0.000853627,2.5998,,,,,,300,0,300,0,1,,,,,
,,707334,001,2023-07-24_13h08.25.368,arm3_eps,2022.2.5,Win32,59.44596362,5fbfb99036e420313c504a36,64aea9d0f615b6559c281482,64becb8ae6d57629a3e699c0,right,1,0.3,0.2429,19,0.002047474,0.7211,,,,,,301,0,301,0,1,,,,,
,,707334,001,2023-07-24_13h08.25.368,arm3_eps,2022.2.5,Win32,59.44596362,5fbfb99036e420313c504a36,64aea9d0f615b6559c281482,64becb8ae6d57629a3e699c0,up,-1,0.3,0.2429,19,0,1.1827,,,,,,302,0,302,0,1,,,,,
,,707334,001,2023-07-24_13h08.25.368,arm3_eps,2022.2.5,Win32,59.44596362,5fbfb99036e420313c504a36,64aea9d0f615b6559c281482,64becb8ae6d57629a3e699c0,right,-1,0.3,0.2429,19,-0.018703008,0.8814,,,,,,303,0,303,0,1,,,,,
,,707334,001,2023-07-24_13h08.25.368,arm3_eps,2022.2.5,Win32,59.44596362,5fbfb99036e420313c504a36,64aea9d0f615b6559c281482,64becb8ae6d57629a3e699c0,down,1,0.3,0.2429,19,0,0.8992,,,,,,304,0,304,0,1,,,,,
,,707334,001,2023-07-24_13h08.25.368,arm3_eps,2022.2.5,Win32,59.44596362,5fbfb99036e420313c504a36,64aea9d0f615b6559c281482,64becb8ae6d57629a3e699c0,right,1,0.3,0.2429,19,0.011719646,0.7317,,,,,,305,0,305,0,1,,,,,
,,707334,001,2023-07-24_13h08.25.368,arm3_eps,2022.2.5,Win32,59.44596362,5fbfb99036e420313c504a36,64aea9d0f615b6559c281482,64becb8ae6d57629a3e699c0,right,1,0.3,0.2429,19,-0.006303014,0.5836,,,,,,306,0,306,0,1,,,,,
,,707334,001,2023-07-24_13h08.25.368,arm3_eps,2022.2.5,Win32,59.44596362,5fbfb99036e420313c504a36,64aea9d0f615b6559c281482,64becb8ae6d57629a3e699c0,right,1,0.3,0.2429,19,-0.002693942,0.4206,,,,,,307,0,307,0,1,,,,,
,,707334,001,2023-07-24_13h08.25.368,arm3_eps,2022.2.5,Win32,59.44596362,5fbfb99036e420313c504a36,64aea9d0f615b6559c281482,64becb8ae6d57629a3e699c0,down,-1,0.3,0.2429,18,0,1.5368,,,,,,308,0,308,0,1,,,,,
,,707334,001,2023-07-24_13h08.25.368,arm3_eps,2022.2.5,Win32,59.44596362,5fbfb99036e420313c504a36,64aea9d0f615b6559c281482,64becb8ae6d57629a3e699c0,right,-1,0.3,0.2429,18,-0.016960358,0.8013,,,,,,309,0,309,0,1,,,,,
,,707334,001,2023-07-24_13h08.25.368,arm3_eps,2022.2.5,Win32,59.44596362,5fbfb99036e420313c504a36,64aea9d0f615b6559c281482,64becb8ae6d57629a3e699c0,right,-1,0.3,0.2429,18,-0.012427575,0.6121,,,,,,310,0,310,0,1,,,,,
,,707334,001,2023-07-24_13h08.25.368,arm3_eps,2022.2.5,Win32,59.44596362,5fbfb99036e420313c504a36,64aea9d0f615b6559c281482,64becb8ae6d57629a3e699c0,right,-1,0.3,0.2429,18,-0.000156191,2.4871,,,,,,311,0,311,0,1,,,,,
,,707334,001,2023-07-24_13h08.25.368,arm3_eps,2022.2.5,Win32,59.44596362,5fbfb99036e420313c504a36,64aea9d0f615b6559c281482,64becb8ae6d57629a3e699c0,down,1,0.3,0.2429,19,0,1.3264,,,,,,312,0,312,0,1,,,,,
,,707334,001,2023-07-24_13h08.25.368,arm3_eps,2022.2.5,Win32,59.44596362,5fbfb99036e420313c504a36,64aea9d0f615b6559c281482,64becb8ae6d57629a3e699c0,right,1,0.3,0.2429,19,0.011013222,0.796,,,,,,313,0,313,0,1,,,,,
,,707334,001,2023-07-24_13h08.25.368,arm3_eps,2022.2.5,Win32,59.44596362,5fbfb99036e420313c504a36,64aea9d0f615b6559c281482,64becb8ae6d57629a3e699c0,right,1,0.3,0.2429,19,0.007782839,0.4389,,,,,,314,0,314,0,1,,,,,
,,707334,001,2023-07-24_13h08.25.368,arm3_eps,2022.2.5,Win32,59.44596362,5fbfb99036e420313c504a36,64aea9d0f615b6559c281482,64becb8ae6d57629a3e699c0,up,-1,0.3,0.2429,19,0,0.6034,,,,,,315,0,315,0,1,,,,,
,,707334,001,2023-07-24_13h08.25.368,arm3_eps,2022.2.5,Win32,59.44596362,5fbfb99036e420313c504a36,64aea9d0f615b6559c281482,64becb8ae6d57629a3e699c0,right,-1,0.3,0.2429,19,-0.009126339,0.9153,,,,,,316,0,316,0,1,,,,,
,,707334,001,2023-07-24_13h08.25.368,arm3_eps,2022.2.5,Win32,59.44596362,5fbfb99036e420313c504a36,64aea9d0f615b6559c281482,64becb8ae6d57629a3e699c0,right,-1,0.3,0.2429,19,-0.017322617,0.4649,,,,,,317,0,317,0,1,,,,,
,,707334,001,2023-07-24_13h08.25.368,arm3_eps,2022.2.5,Win32,59.44596362,5fbfb99036e420313c504a36,64aea9d0f615b6559c281482,64becb8ae6d57629a3e699c0,down,-1,0.3,0.2429,20,0,0.8645,,,,,,318,0,318,0,1,,,,,
,,707334,001,2023-07-24_13h08.25.368,arm3_eps,2022.2.5,Win32,59.44596362,5fbfb99036e420313c504a36,64aea9d0f615b6559c281482,64becb8ae6d57629a3e699c0,right,-1,0.3,0.2429,20,-0.014476401,0.7153,,,,,,319,0,319,0,1,,,,,
,,707334,001,2023-07-24_13h08.25.368,arm3_eps,2022.2.5,Win32,59.44596362,5fbfb99036e420313c504a36,64aea9d0f615b6559c281482,64becb8ae6d57629a3e699c0,down,-1,0.3,0.2429,20,0,0.5533,,,,,,320,0,320,0,1,,,,,
,,707334,001,2023-07-24_13h08.25.368,arm3_eps,2022.2.5,Win32,59.44596362,5fbfb99036e420313c504a36,64aea9d0f615b6559c281482,64becb8ae6d57629a3e699c0,right,-1,0.3,0.2429,20,-0.013909928,0.7077,,,,,,321,0,321,0,1,,,,,
,,707334,001,2023-07-24_13h08.25.368,arm3_eps,2022.2.5,Win32,59.44596362,5fbfb99036e420313c504a36,64aea9d0f615b6559c281482,64becb8ae6d57629a3e699c0,down,1,0.3,0.2429,20,0,0.3987,,,,,,322,0,322,0,1,,,,,
,,707334,001,2023-07-24_13h08.25.368,arm3_eps,2022.2.5,Win32,59.44596362,5fbfb99036e420313c504a36,64aea9d0f615b6559c281482,64becb8ae6d57629a3e699c0,right,1,0.3,0.2429,20,-0.008797799,0.8199,,,,,,323,0,323,0,1,,,,,
,,707334,001,2023-07-24_13h08.25.368,arm3_eps,2022.2.5,Win32,59.44596362,5fbfb99036e420313c504a36,64aea9d0f615b6559c281482,64becb8ae6d57629a3e699c0,up,1,0.3,0.2429,20,0,1.933,,,,,,324,0,324,0,1,,,,,
,,707334,001,2023-07-24_13h08.25.368,arm3_eps,2022.2.5,Win32,59.44596362,5fbfb99036e420313c504a36,64aea9d0f615b6559c281482,64becb8ae6d57629a3e699c0,right,1,0.3,0.2429,20,-0.006086541,0.6596,,,,,,325,0,325,0,1,,,,,
,,707334,001,2023-07-24_13h08.25.368,arm3_eps,2022.2.5,Win32,59.44596362,5fbfb99036e420313c504a36,64aea9d0f615b6559c281482,64becb8ae6d57629a3e699c0,right,1,0.3,0.2429,20,0.023538594,0.4195,,,,,,326,0,326,0,1,,,,,
,,707334,001,2023-07-24_13h08.25.368,arm3_eps,2022.2.5,Win32,59.44596362,5fbfb99036e420313c504a36,64aea9d0f615b6559c281482,64becb8ae6d57629a3e699c0,up,-1,0.3,0.2429,21,0,0.4865,,,,,,327,0,327,0,1,,,,,
,,707334,001,2023-07-24_13h08.25.368,arm3_eps,2022.2.5,Win32,59.44596362,5fbfb99036e420313c504a36,64aea9d0f615b6559c281482,64becb8ae6d57629a3e699c0,right,-1,0.3,0.2429,21,0.02320345,0.8281,,,,,,328,0,328,0,1,,,,,
,,707334,001,2023-07-24_13h08.25.368,arm3_eps,2022.2.5,Win32,59.44596362,5fbfb99036e420313c504a36,64aea9d0f615b6559c281482,64becb8ae6d57629a3e699c0,up,1,0.3,0.2429,21,0,0.8894,,,,,,329,0,329,0,1,,,,,
,,707334,001,2023-07-24_13h08.25.368,arm3_eps,2022.2.5,Win32,59.44596362,5fbfb99036e420313c504a36,64aea9d0f615b6559c281482,64becb8ae6d57629a3e699c0,right,1,0.3,0.2429,21,-0.029599956,0.712,,,,,,330,0,330,0,1,,,,,
,,707334,001,2023-07-24_13h08.25.368,arm3_eps,2022.2.5,Win32,59.44596362,5fbfb99036e420313c504a36,64aea9d0f615b6559c281482,64becb8ae6d57629a3e699c0,right,1,0.3,0.2429,21,-0.0065152,1.469,,,,,,331,0,331,0,1,,,,,
,,707334,001,2023-07-24_13h08.25.368,arm3_eps,2022.2.5,Win32,59.44596362,5fbfb99036e420313c504a36,64aea9d0f615b6559c281482,64becb8ae6d57629a3e699c0,right,1,0.3,0.2429,21,-0.000288804,0.4508,,,,,,332,0,332,0,1,,,,,
,,707334,001,2023-07-24_13h08.25.368,arm3_eps,2022.2.5,Win32,59.44596362,5fbfb99036e420313c504a36,64aea9d0f615b6559c281482,64becb8ae6d57629a3e699c0,up,1,0.3,0.2429,22,0,0.6297,,,,,,333,0,333,0,1,,,,,
,,707334,001,2023-07-24_13h08.25.368,arm3_eps,2022.2.5,Win32,59.44596362,5fbfb99036e420313c504a36,64aea9d0f615b6559c281482,64becb8ae6d57629a3e699c0,right,1,0.3,0.2429,22,0.024353295,0.9235,,,,,,334,0,334,0,1,,,,,
,,707334,001,2023-07-24_13h08.25.368,arm3_eps,2022.2.5,Win32,59.44596362,5fbfb99036e420313c504a36,64aea9d0f615b6559c281482,64becb8ae6d57629a3e699c0,right,1,0.3,0.2429,22,0.041251354,0.3678,,,,,,335,0,335,0,1,,,,,
,,707334,001,2023-07-24_13h08.25.368,arm3_eps,2022.2.5,Win32,59.44596362,5fbfb99036e420313c504a36,64aea9d0f615b6559c281482,64becb8ae6d57629a3e699c0,right,1,0.3,0.2429,22,0.059395346,0.4344,,,,,,336,0,336,0,1,,,,,
,,707334,001,2023-07-24_13h08.25.368,arm3_eps,2022.2.5,Win32,59.44596362,5fbfb99036e420313c504a36,64aea9d0f615b6559c281482,64becb8ae6d57629a3e699c0,up,1,0.3,0.2429,22,0,0.865,,,,,,337,0,337,0,1,,,,,
,,707334,001,2023-07-24_13h08.25.368,arm3_eps,2022.2.5,Win32,59.44596362,5fbfb99036e420313c504a36,64aea9d0f615b6559c281482,64becb8ae6d57629a3e699c0,right,1,0.3,0.2429,22,-0.013208949,0.545,,,,,,338,0,338,0,1,,,,,
,,707334,001,2023-07-24_13h08.25.368,arm3_eps,2022.2.5,Win32,59.44596362,5fbfb99036e420313c504a36,64aea9d0f615b6559c281482,64becb8ae6d57629a3e699c0,up,-1,0.3,0.2429,23,0,1.1964,,,,,,339,0,339,0,1,,,,,
,,707334,001,2023-07-24_13h08.25.368,arm3_eps,2022.2.5,Win32,59.44596362,5fbfb99036e420313c504a36,64aea9d0f615b6559c281482,64becb8ae6d57629a3e699c0,right,-1,0.3,0.2429,23,-0.008681681,0.8946,,,,,,340,0,340,0,1,,,,,
,,707334,001,2023-07-24_13h08.25.368,arm3_eps,2022.2.5,Win32,59.44596362,5fbfb99036e420313c504a36,64aea9d0f615b6559c281482,64becb8ae6d57629a3e699c0,right,-1,0.3,0.2429,23,-0.020116364,1.1775,,,,,,341,0,341,0,1,,,,,
,,707334,001,2023-07-24_13h08.25.368,arm3_eps,2022.2.5,Win32,59.44596362,5fbfb99036e420313c504a36,64aea9d0f615b6559c281482,64becb8ae6d57629a3e699c0,down,1,0.3,0.2429,23,0,1.0314,,,,,,342,0,342,0,1,,,,,
,,707334,001,2023-07-24_13h08.25.368,arm3_eps,2022.2.5,Win32,59.44596362,5fbfb99036e420313c504a36,64aea9d0f615b6559c281482,64becb8ae6d57629a3e699c0,right,1,0.3,0.2429,23,-0.021946135,0.6419,,,,,,343,0,343,0,1,,,,,
,,707334,001,2023-07-24_13h08.25.368,arm3_eps,2022.2.5,Win32,59.44596362,5fbfb99036e420313c504a36,64aea9d0f615b6559c281482,64becb8ae6d57629a3e699c0,right,1,0.3,0.2429,23,-0.007674574,0.4974,,,,,,344,0,344,0,1,,,,,
,,707334,001,2023-07-24_13h08.25.368,arm3_eps,2022.2.5,Win32,59.44596362,5fbfb99036e420313c504a36,64aea9d0f615b6559c281482,64becb8ae6d57629a3e699c0,right,1,0.3,0.2429,23,-0.021884953,0.3462,,,,,,345,0,345,0,1,,,,,
,,707334,001,2023-07-24_13h08.25.368,arm3_eps,2022.2.5,Win32,59.44596362,5fbfb99036e420313c504a36,64aea9d0f615b6559c281482,64becb8ae6d57629a3e699c0,right,1,0.3,0.2429,23,-0.025155672,0.3964,,,,,,346,0,346,0,1,,,,,
,,707334,001,2023-07-24_13h08.25.368,arm3_eps,2022.2.5,Win32,59.44596362,5fbfb99036e420313c504a36,64aea9d0f615b6559c281482,64becb8ae6d57629a3e699c0,right,1,0.3,0.2429,23,-0.017277583,0.6659,,,,,,347,0,347,0,1,,,,,
,,707334,001,2023-07-24_13h08.25.368,arm3_eps,2022.2.5,Win32,59.44596362,5fbfb99036e420313c504a36,64aea9d0f615b6559c281482,64becb8ae6d57629a3e699c0,up,1,0.3,0.2429,23,0,0.6327,,,,,,348,0,348,0,1,,,,,
,,707334,001,2023-07-24_13h08.25.368,arm3_eps,2022.2.5,Win32,59.44596362,5fbfb99036e420313c504a36,64aea9d0f615b6559c281482,64becb8ae6d57629a3e699c0,right,1,0.3,0.2429,23,0.017336159,0.9831,,,,,,349,0,349,0,1,,,,,
,,707334,001,2023-07-24_13h08.25.368,arm3_eps,2022.2.5,Win32,59.44596362,5fbfb99036e420313c504a36,64aea9d0f615b6559c281482,64becb8ae6d57629a3e699c0,right,1,0.3,0.2429,23,-0.005731339,0.3859,,,,,,350,0,350,0,1,,,,,
,,707334,001,2023-07-24_13h08.25.368,arm3_eps,2022.2.5,Win32,59.44596362,5fbfb99036e420313c504a36,64aea9d0f615b6559c281482,64becb8ae6d57629a3e699c0,up,-1,0.3,0.2429,24,0,0.5673,,,,,,351,0,351,0,1,,,,,
,,707334,001,2023-07-24_13h08.25.368,arm3_eps,2022.2.5,Win32,59.44596362,5fbfb99036e420313c504a36,64aea9d0f615b6559c281482,64becb8ae6d57629a3e699c0,right,-1,0.3,0.2429,24,0.000130609,0.6784,,,,,,352,0,352,0,1,,,,,
,,707334,001,2023-07-24_13h08.25.368,arm3_eps,2022.2.5,Win32,59.44596362,5fbfb99036e420313c504a36,64aea9d0f615b6559c281482,64becb8ae6d57629a3e699c0,right,-1,0.3,0.2429,24,0.027619246,0.482,,,,,,353,0,353,0,1,,,,,
,,707334,001,2023-07-24_13h08.25.368,arm3_eps,2022.2.5,Win32,59.44596362,5fbfb99036e420313c504a36,64aea9d0f615b6559c281482,64becb8ae6d57629a3e699c0,up,-1,0.3,0.2429,24,0,0.6816,,,,,,354,0,354,0,1,,,,,
,,707334,001,2023-07-24_13h08.25.368,arm3_eps,2022.2.5,Win32,59.44596362,5fbfb99036e420313c504a36,64aea9d0f615b6559c281482,64becb8ae6d57629a3e699c0,right,-1,0.3,0.2429,24,-0.010471246,1.0098,,,,,,355,0,355,0,1,,,,,
,,707334,001,2023-07-24_13h08.25.368,arm3_eps,2022.2.5,Win32,59.44596362,5fbfb99036e420313c504a36,64aea9d0f615b6559c281482,64becb8ae6d57629a3e699c0,down,-1,0.3,0.2429,24,0,0.5862,,,,,,356,0,356,0,1,,,,,
,,707334,001,2023-07-24_13h08.25.368,arm3_eps,2022.2.5,Win32,59.44596362,5fbfb99036e420313c504a36,64aea9d0f615b6559c281482,64becb8ae6d57629a3e699c0,right,-1,0.3,0.2429,24,0.002201214,0.8789,,,,,,357,0,357,0,1,,,,,
,,707334,001,2023-07-24_13h08.25.368,arm3_eps,2022.2.5,Win32,59.44596362,5fbfb99036e420313c504a36,64aea9d0f615b6559c281482,64becb8ae6d57629a3e699c0,right,-1,0.3,0.2429,24,-0.015719294,1.8794,,,,,,358,0,358,0,1,,,,,
,,707334,001,2023-07-24_13h08.25.368,arm3_eps,2022.2.5,Win32,59.44596362,5fbfb99036e420313c504a36,64aea9d0f615b6559c281482,64becb8ae6d57629a3e699c0,down,-1,0.3,0.2429,25,0,0.7284,,,,,,359,0,359,0,1,,,,,
,,707334,001,2023-07-24_13h08.25.368,arm3_eps,2022.2.5,Win32,59.44596362,5fbfb99036e420313c504a36,64aea9d0f615b6559c281482,64becb8ae6d57629a3e699c0,right,-1,0.3,0.2429,25,-0.013850157,0.7938,,,,,,360,0,360,0,1,,,,,
,,707334,001,2023-07-24_13h08.25.368,arm3_eps,2022.2.5,Win32,59.44596362,5fbfb99036e420313c504a36,64aea9d0f615b6559c281482,64becb8ae6d57629a3e699c0,right,-1,0.3,0.2429,25,-0.043081418,0.397,,,,,,361,0,361,0,1,,,,,
,,707334,001,2023-07-24_13h08.25.368,arm3_eps,2022.2.5,Win32,59.44596362,5fbfb99036e420313c504a36,64aea9d0f615b6559c281482,64becb8ae6d57629a3e699c0,down,-1,0.3,0.2429,26,0,0.4797,,,,,,362,0,362,0,1,,,,,
,,707334,001,2023-07-24_13h08.25.368,arm3_eps,2022.2.5,Win32,59.44596362,5fbfb99036e420313c504a36,64aea9d0f615b6559c281482,64becb8ae6d57629a3e699c0,right,-1,0.3,0.2429,26,-0.008465393,0.9916,,,,,,363,0,363,0,1,,,,,
,,707334,001,2023-07-24_13h08.25.368,arm3_eps,2022.2.5,Win32,59.44596362,5fbfb99036e420313c504a36,64aea9d0f615b6559c281482,64becb8ae6d57629a3e699c0,right,-1,0.3,0.2429,26,-0.005327444,0.629,,,,,,364,0,364,0,1,,,,,
,,707334,001,2023-07-24_13h08.25.368,arm3_eps,2022.2.5,Win32,59.44596362,5fbfb99036e420313c504a36,64aea9d0f615b6559c281482,64becb8ae6d57629a3e699c0,down,-1,0.3,0.2429,26,0,0.9451,,,,,,365,0,365,0,1,,,,,
,,707334,001,2023-07-24_13h08.25.368,arm3_eps,2022.2.5,Win32,59.44596362,5fbfb99036e420313c504a36,64aea9d0f615b6559c281482,64becb8ae6d57629a3e699c0,right,-1,0.3,0.2429,26,0.000794943,0.9287,,,,,,366,0,366,0,1,,,,,
,,707334,001,2023-07-24_13h08.25.368,arm3_eps,2022.2.5,Win32,59.44596362,5fbfb99036e420313c504a36,64aea9d0f615b6559c281482,64becb8ae6d57629a3e699c0,right,-1,0.3,0.2429,26,-0.000643314,0.684,,,,,,367,0,367,0,1,,,,,
,,707334,001,2023-07-24_13h08.25.368,arm3_eps,2022.2.5,Win32,59.44596362,5fbfb99036e420313c504a36,64aea9d0f615b6559c281482,64becb8ae6d57629a3e699c0,right,-1,0.3,0.2429,26,0.001653949,1.1791,,,,,,368,0,368,0,1,,,,,
,,707334,001,2023-07-24_13h08.25.368,arm3_eps,2022.2.5,Win32,59.44596362,5fbfb99036e420313c504a36,64aea9d0f615b6559c281482,64becb8ae6d57629a3e699c0,down,-1,0.3,0.2429,26,0.001653949,0.9124,,,,,,369,0,369,0,1,,,,,
,,707334,001,2023-07-24_13h08.25.368,arm3_eps,2022.2.5,Win32,59.44596362,5fbfb99036e420313c504a36,64aea9d0f615b6559c281482,64becb8ae6d57629a3e699c0,,,,,,,,,,,,,,,,,,0,0,0,0,1
space,7.6065,707334,001,2023-07-24_13h08.25.368,arm3_eps,2022.2.5,Win32,59.44596362,5fbfb99036e420313c504a36,64aea9d0f615b6559c281482,64becb8ae6d57629a3e699c0,right,-1,0.3,0.05,26,-0.002035198,1.5515,,,,,,0,0,0,0,1,,,,,
,,707334,001,2023-07-24_13h08.25.368,arm3_eps,2022.2.5,Win32,59.44596362,5fbfb99036e420313c504a36,64aea9d0f615b6559c281482,64becb8ae6d57629a3e699c0,right,-1,0.3,0.05,26,-0.010953717,1.1477,,,,,,1,0,1,0,1,,,,,
,,707334,001,2023-07-24_13h08.25.368,arm3_eps,2022.2.5,Win32,59.44596362,5fbfb99036e420313c504a36,64aea9d0f615b6559c281482,64becb8ae6d57629a3e699c0,right,-1,0.3,0.05,26,-0.021131601,0.7485,,,,,,2,0,2,0,1,,,,,
,,707334,001,2023-07-24_13h08.25.368,arm3_eps,2022.2.5,Win32,59.44596362,5fbfb99036e420313c504a36,64aea9d0f615b6559c281482,64becb8ae6d57629a3e699c0,right,-1,0.3,0.05,26,-0.033968283,0.6455,,,,,,3,0,3,0,1,,,,,
,,707334,001,2023-07-24_13h08.25.368,arm3_eps,2022.2.5,Win32,59.44596362,5fbfb99036e420313c504a36,64aea9d0f615b6559c281482,64becb8ae6d57629a3e699c0,down,-1,0.3,0.05,26,0,0.3626,,,,,,4,0,4,0,1,,,,,
,,707334,001,2023-07-24_13h08.25.368,arm3_eps,2022.2.5,Win32,59.44596362,5fbfb99036e420313c504a36,64aea9d0f615b6559c281482,64becb8ae6d57629a3e699c0,right,-1,0.3,0.05,26,0.013723569,0.5631,,,,,,5,0,5,0,1,,,,,
,,707334,001,2023-07-24_13h08.25.368,arm3_eps,2022.2.5,Win32,59.44596362,5fbfb99036e420313c504a36,64aea9d0f615b6559c281482,64becb8ae6d57629a3e699c0,up,-1,0.3,0.05,26,0,0.7031,,,,,,6,0,6,0,1,,,,,
,,707334,001,2023-07-24_13h08.25.368,arm3_eps,2022.2.5,Win32,59.44596362,5fbfb99036e420313c504a36,64aea9d0f615b6559c281482,64becb8ae6d57629a3e699c0,right,-1,0.3,0.05,26,-0.017019266,0.5324,,,,,,7,0,7,0,1,,,,,
,,707334,001,2023-07-24_13h08.25.368,arm3_eps,2022.2.5,Win32,59.44596362,5fbfb99036e420313c504a36,64aea9d0f615b6559c281482,64becb8ae6d57629a3e699c0,right,-1,0.3,0.05,26,-0.044867795,0.4121,,,,,,8,0,8,0,1,,,,,
,,707334,001,2023-07-24_13h08.25.368,arm3_eps,2022.2.5,Win32,59.44596362,5fbfb99036e420313c504a36,64aea9d0f615b6559c281482,64becb8ae6d57629a3e699c0,down,-1,0.3,0.05,26,0,0.3324,,,,,,9,0,9,0,1,,,,,
,,707334,001,2023-07-24_13h08.25.368,arm3_eps,2022.2.5,Win32,59.44596362,5fbfb99036e420313c504a36,64aea9d0f615b6559c281482,64becb8ae6d57629a3e699c0,right,-1,0.3,0.05,26,-0.030281241,0.8515,,,,,,10,0,10,0,1,,,,,
,,707334,001,2023-07-24_13h08.25.368,arm3_eps,2022.2.5,Win32,59.44596362,5fbfb99036e420313c504a36,64aea9d0f615b6559c281482,64becb8ae6d57629a3e699c0,down,-1,0.3,0.05,26,0,0.4221,,,,,,11,0,11,0,1,,,,,
,,707334,001,2023-07-24_13h08.25.368,arm3_eps,2022.2.5,Win32,59.44596362,5fbfb99036e420313c504a36,64aea9d0f615b6559c281482,64becb8ae6d57629a3e699c0,right,-1,0.3,0.05,26,-0.012009304,0.895,,,,,,12,0,12,0,1,,,,,
,,707334,001,2023-07-24_13h08.25.368,arm3_eps,2022.2.5,Win32,59.44596362,5fbfb99036e420313c504a36,64aea9d0f615b6559c281482,64becb8ae6d57629a3e699c0,right,-1,0.3,0.05,26,0.000631176,0.2719,,,,,,13,0,13,0,1,,,,,
,,707334,001,2023-07-24_13h08.25.368,arm3_eps,2022.2.5,Win32,59.44596362,5fbfb99036e420313c504a36,64aea9d0f615b6559c281482,64becb8ae6d57629a3e699c0,right,-1,0.3,0.05,26,-0.035618656,0.3225,,,,,,14,0,14,0,1,,,,,
,,707334,001,2023-07-24_13h08.25.368,arm3_eps,2022.2.5,Win32,59.44596362,5fbfb99036e420313c504a36,64aea9d0f615b6559c281482,64becb8ae6d57629a3e699c0,down,-1,0.3,0.05,26,0,0.7317,,,,,,15,0,15,0,1,,,,,
,,707334,001,2023-07-24_13h08.25.368,arm3_eps,2022.2.5,Win32,59.44596362,5fbfb99036e420313c504a36,64aea9d0f615b6559c281482,64becb8ae6d57629a3e699c0,right,-1,0.3,0.05,26,-0.042624254,0.6439,,,,,,16,0,16,0,1,,,,,
,,707334,001,2023-07-24_13h08.25.368,arm3_eps,2022.2.5,Win32,59.44596362,5fbfb99036e420313c504a36,64aea9d0f615b6559c281482,64becb8ae6d57629a3e699c0,down,-1,0.3,0.05,26,0,0.4457,,,,,,17,0,17,0,1,,,,,
,,707334,001,2023-07-24_13h08.25.368,arm3_eps,2022.2.5,Win32,59.44596362,5fbfb99036e420313c504a36,64aea9d0f615b6559c281482,64becb8ae6d57629a3e699c0,right,-1,0.3,0.05,26,-0.010445371,0.8455,,,,,,18,0,18,0,1,,,,,
,,707334,001,2023-07-24_13h08.25.368,arm3_eps,2022.2.5,Win32,59.44596362,5fbfb99036e420313c504a36,64aea9d0f615b6559c281482,64becb8ae6d57629a3e699c0,right,-1,0.3,0.05,26,-0.031050473,0.3538,,,,,,19,0,19,0,1,,,,,
,,707334,001,2023-07-24_13h08.25.368,arm3_eps,2022.2.5,Win32,59.44596362,5fbfb99036e420313c504a36,64aea9d0f615b6559c281482,64becb8ae6d57629a3e699c0,right,-1,0.3,0.05,26,-0.024475359,0.504,,,,,,20,0,20,0,1,,,,,
,,707334,001,2023-07-24_13h08.25.368,arm3_eps,2022.2.5,Win32,59.44596362,5fbfb99036e420313c504a36,64aea9d0f615b6559c281482,64becb8ae6d57629a3e699c0,down,-1,0.3,0.05,26,0,0.6458,,,,,,21,0,21,0,1,,,,,
,,707334,001,2023-07-24_13h08.25.368,arm3_eps,2022.2.5,Win32,59.44596362,5fbfb99036e420313c504a36,64aea9d0f615b6559c281482,64becb8ae6d57629a3e699c0,right,-1,0.3,0.05,26,-0.007940882,0.9772,,,,,,22,0,22,0,1,,,,,
,,707334,001,2023-07-24_13h08.25.368,arm3_eps,2022.2.5,Win32,59.44596362,5fbfb99036e420313c504a36,64aea9d0f615b6559c281482,64becb8ae6d57629a3e699c0,right,-1,0.3,0.05,26,-0.024835269,0.2956,,,,,,23,0,23,0,1,,,,,
,,707334,001,2023-07-24_13h08.25.368,arm3_eps,2022.2.5,Win32,59.44596362,5fbfb99036e420313c504a36,64aea9d0f615b6559c281482,64becb8ae6d57629a3e699c0,right,-1,0.3,0.05,26,-0.021317486,0.3291,,,,,,24,0,24,0,1,,,,,
,,707334,001,2023-07-24_13h08.25.368,arm3_eps,2022.2.5,Win32,59.44596362,5fbfb99036e420313c504a36,64aea9d0f615b6559c281482,64becb8ae6d57629a3e699c0,right,-1,0.3,0.05,26,-0.013323472,0.3772,,,,,,25,0,25,0,1,,,,,
,,707334,001,2023-07-24_13h08.25.368,arm3_eps,2022.2.5,Win32,59.44596362,5fbfb99036e420313c504a36,64aea9d0f615b6559c281482,64becb8ae6d57629a3e699c0,right,-1,0.3,0.05,26,-0.028958511,1.4024,,,,,,26,0,26,0,1,,,,,
,,707334,001,2023-07-24_13h08.25.368,arm3_eps,2022.2.5,Win32,59.44596362,5fbfb99036e420313c504a36,64aea9d0f615b6559c281482,64becb8ae6d57629a3e699c0,down,-1,0.3,0.05,26,0,0.5351,,,,,,27,0,27,0,1,,,,,
,,707334,001,2023-07-24_13h08.25.368,arm3_eps,2022.2.5,Win32,59.44596362,5fbfb99036e420313c504a36,64aea9d0f615b6559c281482,64becb8ae6d57629a3e699c0,right,-1,0.3,0.05,26,-0.008756902,0.6649,,,,,,28,0,28,0,1,,,,,
,,707334,001,2023-07-24_13h08.25.368,arm3_eps,2022.2.5,Win32,59.44596362,5fbfb99036e420313c504a36,64aea9d0f615b6559c281482,64becb8ae6d57629a3e699c0,right,-1,0.3,0.05,26,-0.01616551,0.4751,,,,,,29,0,29,0,1,,,,,
,,707334,001,2023-07-24_13h08.25.368,arm3_eps,2022.2.5,Win32,59.44596362,5fbfb99036e420313c504a36,64aea9d0f615b6559c281482,64becb8ae6d57629a3e699c0,right,-1,0.3,0.05,26,-0.02393122,0.3314,,,,,,30,0,30,0,1,,,,,
,,707334,001,2023-07-24_13h08.25.368,arm3_eps,2022.2.5,Win32,59.44596362,5fbfb99036e420313c504a36,64aea9d0f615b6559c281482,64becb8ae6d57629a3e699c0,down,-1,0.3,0.05,27,0,0.6626,,,,,,31,0,31,0,1,,,,,
,,707334,001,2023-07-24_13h08.25.368,arm3_eps,2022.2.5,Win32,59.44596362,5fbfb99036e420313c504a36,64aea9d0f615b6559c281482,64becb8ae6d57629a3e699c0,right,-1,0.3,0.05,27,-0.024031891,0.8321,,,,,,32,0,32,0,1,,,,,
,,707334,001,2023-07-24_13h08.25.368,arm3_eps,2022.2.5,Win32,59.44596362,5fbfb99036e420313c504a36,64aea9d0f615b6559c281482,64becb8ae6d57629a3e699c0,down,-1,0.3,0.05,27,0,0.6133,,,,,,33,0,33,0,1,,,,,
,,707334,001,2023-07-24_13h08.25.368,arm3_eps,2022.2.5,Win32,59.44596362,5fbfb99036e420313c504a36,64aea9d0f615b6559c281482,64becb8ae6d57629a3e699c0,right,-1,0.3,0.05,27,0.005211031,0.7594,,,,,,34,0,34,0,1,,,,,
,,707334,001,2023-07-24_13h08.25.368,arm3_eps,2022.2.5,Win32,59.44596362,5fbfb99036e420313c504a36,64aea9d0f615b6559c281482,64becb8ae6d57629a3e699c0,right,-1,0.3,0.05,27,0.000391503,0.3494,,,,,,35,0,35,0,1,,,,,
,,707334,001,2023-07-24_13h08.25.368,arm3_eps,2022.2.5,Win32,59.44596362,5fbfb99036e420313c504a36,64aea9d0f615b6559c281482,64becb8ae6d57629a3e699c0,right,-1,0.3,0.05,27,-0.030684005,0.6129,,,,,,36,0,36,0,1,,,,,
,,707334,001,2023-07-24_13h08.25.368,arm3_eps,2022.2.5,Win32,59.44596362,5fbfb99036e420313c504a36,64aea9d0f615b6559c281482,64becb8ae6d57629a3e699c0,right,-1,0.3,0.05,27,-0.039779596,0.5457,,,,,,37,0,37,0,1,,,,,
,,707334,001,2023-07-24_13h08.25.368,arm3_eps,2022.2.5,Win32,59.44596362,5fbfb99036e420313c504a36,64aea9d0f615b6559c281482,64becb8ae6d57629a3e699c0,down,-1,0.3,0.05,27,0,0.62,,,,,,38,0,38,0,1,,,,,
,,707334,001,2023-07-24_13h08.25.368,arm3_eps,2022.2.5,Win32,59.44596362,5fbfb99036e420313c504a36,64aea9d0f615b6559c281482,64becb8ae6d57629a3e699c0,right,-1,0.3,0.05,27,0.002653883,0.8774,,,,,,39,0,39,0,1,,,,,
,,707334,001,2023-07-24_13h08.25.368,arm3_eps,2022.2.5,Win32,59.44596362,5fbfb99036e420313c504a36,64aea9d0f615b6559c281482,64becb8ae6d57629a3e699c0,right,-1,0.3,0.05,27,0.003557789,0.2956,,,,,,40,0,40,0,1,,,,,
,,707334,001,2023-07-24_13h08.25.368,arm3_eps,2022.2.5,Win32,59.44596362,5fbfb99036e420313c504a36,64aea9d0f615b6559c281482,64becb8ae6d57629a3e699c0,right,-1,0.3,0.05,27,0.007625077,0.3634,,,,,,41,0,41,0,1,,,,,
,,707334,001,2023-07-24_13h08.25.368,arm3_eps,2022.2.5,Win32,59.44596362,5fbfb99036e420313c504a36,64aea9d0f615b6559c281482,64becb8ae6d57629a3e699c0,up,-1,0.3,0.05,27,0,0.4778,,,,,,42,0,42,0,1,,,,,
,,707334,001,2023-07-24_13h08.25.368,arm3_eps,2022.2.5,Win32,59.44596362,5fbfb99036e420313c504a36,64aea9d0f615b6559c281482,64becb8ae6d57629a3e699c0,right,-1,0.3,0.05,27,-0.004516954,0.4128,,,,,,43,0,43,0,1,,,,,
