space_bar.keys,space_bar.rt,participant,session,date,expName,psychopyVersion,OS,frameRate,PROLIFIC_PID,STUDY_ID,SESSION_ID,resp.keys,state,q_prob,eps_prob,score,price,resp.rt,train.thisRepN,train.thisTrialN,train.thisN,train.thisIndex,train.ran,steps.thisRepN,steps.thisTrialN,steps.thisN,steps.thisIndex,steps.ran,blocks.thisRepN,blocks.thisTrialN,blocks.thisN,blocks.thisIndex,blocks.ran
space,12.5626,859863,001,2023-07-24_13h07.42.906,arm3_eps,2022.2.5,Win32,60.07449237,61564e378e974bdbe42763a2,64aea9d0f615b6559c281482,64becb72098aedfe0a2a3679,,,,,,,,,,,,,,,,,,,,,,
space,27.8943,859863,001,2023-07-24_13h07.42.906,arm3_eps,2022.2.5,Win32,60.07449237,61564e378e974bdbe42763a2,64aea9d0f615b6559c281482,64becb72098aedfe0a2a3679,,,,,,,,,,,,,,,,,,,,,,
space,27.0609,859863,001,2023-07-24_13h07.42.906,arm3_eps,2022.2.5,Win32,60.07449237,61564e378e974bdbe42763a2,64aea9d0f615b6559c281482,64becb72098aedfe0a2a3679,,,,,,,,,,,,,,,,,,,,,,
space,35.6447,859863,001,2023-07-24_13h07.42.906,arm3_eps,2022.2.5,Win32,60.07449237,61564e378e974bdbe42763a2,64aea9d0f615b6559c281482,64becb72098aedfe0a2a3679,,,,,,,,,,,,,,,,,,,,,,
space,30.7845,859863,001,2023-07-24_13h07.42.906,arm3_eps,2022.2.5,Win32,60.07449237,61564e378e974bdbe42763a2,64aea9d0f615b6559c281482,64becb72098aedfe0a2a3679,,,,,,,,,,,,,,,,,,,,,,
space,35.8646,859863,001,2023-07-24_13h07.42.906,arm3_eps,2022.2.5,Win32,60.07449237,61564e378e974bdbe42763a2,64aea9d0f615b6559c281482,64becb72098aedfe0a2a3679,,,,,,,,,,,,,,,,,,,,,,
space,6.6231,859863,001,2023-07-24_13h07.42.906,arm3_eps,2022.2.5,Win32,60.07449237,61564e378e974bdbe42763a2,64aea9d0f615b6559c281482,64becb72098aedfe0a2a3679,,,,,,,,,,,,,,,,,,,,,,
space,38.1589,859863,001,2023-07-24_13h07.42.906,arm3_eps,2022.2.5,Win32,60.07449237,61564e378e974bdbe42763a2,64aea9d0f615b6559c281482,64becb72098aedfe0a2a3679,,,,,,,,,,,,,,,,,,,,,,
space,24.7631,859863,001,2023-07-24_13h07.42.906,arm3_eps,2022.2.5,Win32,60.07449237,61564e378e974bdbe42763a2,64aea9d0f615b6559c281482,64becb72098aedfe0a2a3679,,,,,,,,,,,,,,,,,,,,,,
space,14.484,859863,001,2023-07-24_13h07.42.906,arm3_eps,2022.2.5,Win32,60.07449237,61564e378e974bdbe42763a2,64aea9d0f615b6559c281482,64becb72098aedfe0a2a3679,,,,,,,,,,,,,,,,,,,,,,
,,859863,001,2023-07-24_13h07.42.906,arm3_eps,2022.2.5,Win32,60.07449237,61564e378e974bdbe42763a2,64aea9d0f615b6559c281482,64becb72098aedfe0a2a3679,up,-1,0.3,0.2429,-1,0,12.6279,0,0,0,0,1,,,,,,,,,,
,,859863,001,2023-07-24_13h07.42.906,arm3_eps,2022.2.5,Win32,60.07449237,61564e378e974bdbe42763a2,64aea9d0f615b6559c281482,64becb72098aedfe0a2a3679,right,-1,0.3,0.2429,-1,0.005462347,3.3515,1,0,1,0,1,,,,,,,,,,
,,859863,001,2023-07-24_13h07.42.906,arm3_eps,2022.2.5,Win32,60.07449237,61564e378e974bdbe42763a2,64aea9d0f615b6559c281482,64becb72098aedfe0a2a3679,right,-1,0.3,0.2429,-1,-0.022465117,3.1518,2,0,2,0,1,,,,,,,,,,
,,859863,001,2023-07-24_13h07.42.906,arm3_eps,2022.2.5,Win32,60.07449237,61564e378e974bdbe42763a2,64aea9d0f615b6559c281482,64becb72098aedfe0a2a3679,up,-1,0.3,0.2429,-2,0,5.0073,3,0,3,0,1,,,,,,,,,,
,,859863,001,2023-07-24_13h07.42.906,arm3_eps,2022.2.5,Win32,60.07449237,61564e378e974bdbe42763a2,64aea9d0f615b6559c281482,64becb72098aedfe0a2a3679,right,-1,0.3,0.2429,-2,-0.016777035,4.539,4,0,4,0,1,,,,,,,,,,
,,859863,001,2023-07-24_13h07.42.906,arm3_eps,2022.2.5,Win32,60.07449237,61564e378e974bdbe42763a2,64aea9d0f615b6559c281482,64becb72098aedfe0a2a3679,right,-1,0.3,0.2429,-2,-0.049711589,0.7588,5,0,5,0,1,,,,,,,,,,
,,859863,001,2023-07-24_13h07.42.906,arm3_eps,2022.2.5,Win32,60.07449237,61564e378e974bdbe42763a2,64aea9d0f615b6559c281482,64becb72098aedfe0a2a3679,right,-1,0.3,0.2429,-2,-0.064175486,2.1394,6,0,6,0,1,,,,,,,,,,
,,859863,001,2023-07-24_13h07.42.906,arm3_eps,2022.2.5,Win32,60.07449237,61564e378e974bdbe42763a2,64aea9d0f615b6559c281482,64becb72098aedfe0a2a3679,down,-1,0.3,0.2429,-1,0,4.2688,7,0,7,0,1,,,,,,,,,,
,,859863,001,2023-07-24_13h07.42.906,arm3_eps,2022.2.5,Win32,60.07449237,61564e378e974bdbe42763a2,64aea9d0f615b6559c281482,64becb72098aedfe0a2a3679,down,-1,0.3,0.2429,-1,0,2.2654,8,0,8,0,1,,,,,,,,,,
,,859863,001,2023-07-24_13h07.42.906,arm3_eps,2022.2.5,Win32,60.07449237,61564e378e974bdbe42763a2,64aea9d0f615b6559c281482,64becb72098aedfe0a2a3679,right,-1,0.3,0.2429,-1,-0.007559906,2.0612,9,0,9,0,1,,,,,,,,,,
,,859863,001,2023-07-24_13h07.42.906,arm3_eps,2022.2.5,Win32,60.07449237,61564e378e974bdbe42763a2,64aea9d0f615b6559c281482,64becb72098aedfe0a2a3679,right,-1,0.3,0.2429,-1,-0.004655499,0.8983,10,0,10,0,1,,,,,,,,,,
,,859863,001,2023-07-24_13h07.42.906,arm3_eps,2022.2.5,Win32,60.07449237,61564e378e974bdbe42763a2,64aea9d0f615b6559c281482,64becb72098aedfe0a2a3679,down,1,0.3,0.2429,-1,0,1.0658,11,0,11,0,1,,,,,,,,,,
,,859863,001,2023-07-24_13h07.42.906,arm3_eps,2022.2.5,Win32,60.07449237,61564e378e974bdbe42763a2,64aea9d0f615b6559c281482,64becb72098aedfe0a2a3679,right,1,0.3,0.2429,-1,0.019577064,3.398,12,0,12,0,1,,,,,,,,,,
,,859863,001,2023-07-24_13h07.42.906,arm3_eps,2022.2.5,Win32,60.07449237,61564e378e974bdbe42763a2,64aea9d0f615b6559c281482,64becb72098aedfe0a2a3679,right,1,0.3,0.2429,-1,0.01828798,0.9887,13,0,13,0,1,,,,,,,,,,
,,859863,001,2023-07-24_13h07.42.906,arm3_eps,2022.2.5,Win32,60.07449237,61564e378e974bdbe42763a2,64aea9d0f615b6559c281482,64becb72098aedfe0a2a3679,down,1,0.3,0.2429,-2,0,5.2546,14,0,14,0,1,,,,,,,,,,
,,859863,001,2023-07-24_13h07.42.906,arm3_eps,2022.2.5,Win32,60.07449237,61564e378e974bdbe42763a2,64aea9d0f615b6559c281482,64becb72098aedfe0a2a3679,right,1,0.3,0.2429,-2,0.031940119,1.6453,15,0,15,0,1,,,,,,,,,,
,,859863,001,2023-07-24_13h07.42.906,arm3_eps,2022.2.5,Win32,60.07449237,61564e378e974bdbe42763a2,64aea9d0f615b6559c281482,64becb72098aedfe0a2a3679,right,1,0.3,0.2429,-2,0.05378021,0.3498,16,0,16,0,1,,,,,,,,,,
,,859863,001,2023-07-24_13h07.42.906,arm3_eps,2022.2.5,Win32,60.07449237,61564e378e974bdbe42763a2,64aea9d0f615b6559c281482,64becb72098aedfe0a2a3679,up,1,0.3,0.2429,-2,0,2.2718,17,0,17,0,1,,,,,,,,,,
,,859863,001,2023-07-24_13h07.42.906,arm3_eps,2022.2.5,Win32,60.07449237,61564e378e974bdbe42763a2,64aea9d0f615b6559c281482,64becb72098aedfe0a2a3679,right,1,0.3,0.2429,-2,0.025883848,1.4088,18,0,18,0,1,,,,,,,,,,
,,859863,001,2023-07-24_13h07.42.906,arm3_eps,2022.2.5,Win32,60.07449237,61564e378e974bdbe42763a2,64aea9d0f615b6559c281482,64becb72098aedfe0a2a3679,right,1,0.3,0.2429,-2,0.023692223,0.8463,19,0,19,0,1,,,,,,,,,,
,,859863,001,2023-07-24_13h07.42.906,arm3_eps,2022.2.5,Win32,60.07449237,61564e378e974bdbe42763a2,64aea9d0f615b6559c281482,64becb72098aedfe0a2a3679,up,1,0.3,0.2429,-2,0,0.9163,20,0,20,0,1,,,,,,,,,,
,,859863,001,2023-07-24_13h07.42.906,arm3_eps,2022.2.5,Win32,60.07449237,61564e378e974bdbe42763a2,64aea9d0f615b6559c281482,64becb72098aedfe0a2a3679,up,1,0.3,0.2429,-2,0,3.9811,21,0,21,0,1,,,,,,,,,,
,,859863,001,2023-07-24_13h07.42.906,arm3_eps,2022.2.5,Win32,60.07449237,61564e378e974bdbe42763a2,64aea9d0f615b6559c281482,64becb72098aedfe0a2a3679,right,1,0.3,0.2429,-2,0.048203935,2.0509,22,0,22,0,1,,,,,,,,,,
,,859863,001,2023-07-24_13h07.42.906,arm3_eps,2022.2.5,Win32,60.07449237,61564e378e974bdbe42763a2,64aea9d0f615b6559c281482,64becb72098aedfe0a2a3679,right,1,0.3,0.2429,-2,0.057758389,0.5322,23,0,23,0,1,,,,,,,,,,
,,859863,001,2023-07-24_13h07.42.906,arm3_eps,2022.2.5,Win32,60.07449237,61564e378e974bdbe42763a2,64aea9d0f615b6559c281482,64becb72098aedfe0a2a3679,up,-1,0.3,0.2429,-2,0,0.8679,24,0,24,0,1,,,,,,,,,,
,,859863,001,2023-07-24_13h07.42.906,arm3_eps,2022.2.5,Win32,60.07449237,61564e378e974bdbe42763a2,64aea9d0f615b6559c281482,64becb72098aedfe0a2a3679,right,-1,0.3,0.2429,-2,-0.014279535,2.3125,25,0,25,0,1,,,,,,,,,,
,,859863,001,2023-07-24_13h07.42.906,arm3_eps,2022.2.5,Win32,60.07449237,61564e378e974bdbe42763a2,64aea9d0f615b6559c281482,64becb72098aedfe0a2a3679,right,-1,0.3,0.2429,-2,-0.009305164,0.6322,26,0,26,0,1,,,,,,,,,,
,,859863,001,2023-07-24_13h07.42.906,arm3_eps,2022.2.5,Win32,60.07449237,61564e378e974bdbe42763a2,64aea9d0f615b6559c281482,64becb72098aedfe0a2a3679,down,-1,0.3,0.2429,-2,0,0.8316,27,0,27,0,1,,,,,,,,,,
,,859863,001,2023-07-24_13h07.42.906,arm3_eps,2022.2.5,Win32,60.07449237,61564e378e974bdbe42763a2,64aea9d0f615b6559c281482,64becb72098aedfe0a2a3679,down,-1,0.3,0.2429,-2,0,1.7974,28,0,28,0,1,,,,,,,,,,
,,859863,001,2023-07-24_13h07.42.906,arm3_eps,2022.2.5,Win32,60.07449237,61564e378e974bdbe42763a2,64aea9d0f615b6559c281482,64becb72098aedfe0a2a3679,right,-1,0.3,0.2429,-2,0.003360628,1.7644,29,0,29,0,1,,,,,,,,,,
,,859863,001,2023-07-24_13h07.42.906,arm3_eps,2022.2.5,Win32,60.07449237,61564e378e974bdbe42763a2,64aea9d0f615b6559c281482,64becb72098aedfe0a2a3679,right,-1,0.3,0.2429,-2,-0.014150733,0.6665,30,0,30,0,1,,,,,,,,,,
,,859863,001,2023-07-24_13h07.42.906,arm3_eps,2022.2.5,Win32,60.07449237,61564e378e974bdbe42763a2,64aea9d0f615b6559c281482,64becb72098aedfe0a2a3679,up,-1,0.3,0.2429,-2,0,2.8854,31,0,31,0,1,,,,,,,,,,
,,859863,001,2023-07-24_13h07.42.906,arm3_eps,2022.2.5,Win32,60.07449237,61564e378e974bdbe42763a2,64aea9d0f615b6559c281482,64becb72098aedfe0a2a3679,right,-1,0.3,0.2429,-2,-0.044136621,3.685,32,0,32,0,1,,,,,,,,,,
,,859863,001,2023-07-24_13h07.42.906,arm3_eps,2022.2.5,Win32,60.07449237,61564e378e974bdbe42763a2,64aea9d0f615b6559c281482,64becb72098aedfe0a2a3679,right,-1,0.3,0.2429,-2,-0.063496869,0.8202,33,0,33,0,1,,,,,,,,,,
,,859863,001,2023-07-24_13h07.42.906,arm3_eps,2022.2.5,Win32,60.07449237,61564e378e974bdbe42763a2,64aea9d0f615b6559c281482,64becb72098aedfe0a2a3679,up,-1,0.3,0.2429,-2,0,4.3557,34,0,34,0,1,,,,,,,,,,
,,859863,001,2023-07-24_13h07.42.906,arm3_eps,2022.2.5,Win32,60.07449237,61564e378e974bdbe42763a2,64aea9d0f615b6559c281482,64becb72098aedfe0a2a3679,right,-1,0.3,0.2429,-2,-0.008579319,4.3034,35,0,35,0,1,,,,,,,,,,
,,859863,001,2023-07-24_13h07.42.906,arm3_eps,2022.2.5,Win32,60.07449237,61564e378e974bdbe42763a2,64aea9d0f615b6559c281482,64becb72098aedfe0a2a3679,up,-1,0.3,0.2429,-3,0,1.492,36,0,36,0,1,,,,,,,,,,
,,859863,001,2023-07-24_13h07.42.906,arm3_eps,2022.2.5,Win32,60.07449237,61564e378e974bdbe42763a2,64aea9d0f615b6559c281482,64becb72098aedfe0a2a3679,down,-1,0.3,0.2429,-3,0,2.2775,37,0,37,0,1,,,,,,,,,,
,,859863,001,2023-07-24_13h07.42.906,arm3_eps,2022.2.5,Win32,60.07449237,61564e378e974bdbe42763a2,64aea9d0f615b6559c281482,64becb72098aedfe0a2a3679,right,-1,0.3,0.2429,-3,0.011234982,1.7622,38,0,38,0,1,,,,,,,,,,
,,859863,001,2023-07-24_13h07.42.906,arm3_eps,2022.2.5,Win32,60.07449237,61564e378e974bdbe42763a2,64aea9d0f615b6559c281482,64becb72098aedfe0a2a3679,right,-1,0.3,0.2429,-3,0.006144052,0.6461,39,0,39,0,1,,,,,,,,,,
,,859863,001,2023-07-24_13h07.42.906,arm3_eps,2022.2.5,Win32,60.07449237,61564e378e974bdbe42763a2,64aea9d0f615b6559c281482,64becb72098aedfe0a2a3679,up,1,0.3,0.2429,-3,0,1.47,40,0,40,0,1,,,,,,,,,,
,,859863,001,2023-07-24_13h07.42.906,arm3_eps,2022.2.5,Win32,60.07449237,61564e378e974bdbe42763a2,64aea9d0f615b6559c281482,64becb72098aedfe0a2a3679,right,1,0.3,0.2429,-3,-0.004654345,1.2624,41,0,41,0,1,,,,,,,,,,
,,859863,001,2023-07-24_13h07.42.906,arm3_eps,2022.2.5,Win32,60.07449237,61564e378e974bdbe42763a2,64aea9d0f615b6559c281482,64becb72098aedfe0a2a3679,down,1,0.3,0.2429,-4,0,2.6183,42,0,42,0,1,,,,,,,,,,
,,859863,001,2023-07-24_13h07.42.906,arm3_eps,2022.2.5,Win32,60.07449237,61564e378e974bdbe42763a2,64aea9d0f615b6559c281482,64becb72098aedfe0a2a3679,right,1,0.3,0.2429,-4,-0.000195842,1.4315,43,0,43,0,1,,,,,,,,,,
,,859863,001,2023-07-24_13h07.42.906,arm3_eps,2022.2.5,Win32,60.07449237,61564e378e974bdbe42763a2,64aea9d0f615b6559c281482,64becb72098aedfe0a2a3679,up,1,0.3,0.2429,-4,0,0.7188,44,0,44,0,1,,,,,,,,,,
,,859863,001,2023-07-24_13h07.42.906,arm3_eps,2022.2.5,Win32,60.07449237,61564e378e974bdbe42763a2,64aea9d0f615b6559c281482,64becb72098aedfe0a2a3679,right,1,0.3,0.2429,-4,-0.007833976,1.3813,45,0,45,0,1,,,,,,,,,,
,,859863,001,2023-07-24_13h07.42.906,arm3_eps,2022.2.5,Win32,60.07449237,61564e378e974bdbe42763a2,64aea9d0f615b6559c281482,64becb72098aedfe0a2a3679,up,1,0.3,0.2429,-4,0,1.1166,46,0,46,0,1,,,,,,,,,,
,,859863,001,2023-07-24_13h07.42.906,arm3_eps,2022.2.5,Win32,60.07449237,61564e378e974bdbe42763a2,64aea9d0f615b6559c281482,64becb72098aedfe0a2a3679,right,1,0.3,0.2429,-4,0.00049989,1.9976,47,0,47,0,1,,,,,,,,,,
,,859863,001,2023-07-24_13h07.42.906,arm3_eps,2022.2.5,Win32,60.07449237,61564e378e974bdbe42763a2,64aea9d0f615b6559c281482,64becb72098aedfe0a2a3679,up,1,0.3,0.2429,-4,0,5.0245,48,0,48,0,1,,,,,,,,,,
,,859863,001,2023-07-24_13h07.42.906,arm3_eps,2022.2.5,Win32,60.07449237,61564e378e974bdbe42763a2,64aea9d0f615b6559c281482,64becb72098aedfe0a2a3679,right,1,0.3,0.2429,-4,0.009814797,2.5502,49,0,49,0,1,,,,,,,,,,
space,2.0704,859863,001,2023-07-24_13h07.42.906,arm3_eps,2022.2.5,Win32,60.07449237,61564e378e974bdbe42763a2,64aea9d0f615b6559c281482,64becb72098aedfe0a2a3679,,,,,,,,,,,,,,,,,,,,,,
space,7.4934,859863,001,2023-07-24_13h07.42.906,arm3_eps,2022.2.5,Win32,60.07449237,61564e378e974bdbe42763a2,64aea9d0f615b6559c281482,64becb72098aedfe0a2a3679,up,1,0.3,0.1786,1,0,6.6252,,,,,,0,0,0,0,1,,,,,
,,859863,001,2023-07-24_13h07.42.906,arm3_eps,2022.2.5,Win32,60.07449237,61564e378e974bdbe42763a2,64aea9d0f615b6559c281482,64becb72098aedfe0a2a3679,right,1,0.3,0.1786,1,0.009451269,6.0059,,,,,,1,0,1,0,1,,,,,
,,859863,001,2023-07-24_13h07.42.906,arm3_eps,2022.2.5,Win32,60.07449237,61564e378e974bdbe42763a2,64aea9d0f615b6559c281482,64becb72098aedfe0a2a3679,right,1,0.3,0.1786,1,-0.011511311,2.0865,,,,,,2,0,2,0,1,,,,,
,,859863,001,2023-07-24_13h07.42.906,arm3_eps,2022.2.5,Win32,60.07449237,61564e378e974bdbe42763a2,64aea9d0f615b6559c281482,64becb72098aedfe0a2a3679,up,1,0.3,0.1786,2,0,2.0539,,,,,,3,0,3,0,1,,,,,
,,859863,001,2023-07-24_13h07.42.906,arm3_eps,2022.2.5,Win32,60.07449237,61564e378e974bdbe42763a2,64aea9d0f615b6559c281482,64becb72098aedfe0a2a3679,up,1,0.3,0.1786,2,0,2.9845,,,,,,4,0,4,0,1,,,,,
,,859863,001,2023-07-24_13h07.42.906,arm3_eps,2022.2.5,Win32,60.07449237,61564e378e974bdbe42763a2,64aea9d0f615b6559c281482,64becb72098aedfe0a2a3679,right,1,0.3,0.1786,2,-0.014649344,1.6657,,,,,,5,0,5,0,1,,,,,
,,859863,001,2023-07-24_13h07.42.906,arm3_eps,2022.2.5,Win32,60.07449237,61564e378e974bdbe42763a2,64aea9d0f615b6559c281482,64becb72098aedfe0a2a3679,right,1,0.3,0.1786,2,-0.017608046,0.8667,,,,,,6,0,6,0,1,,,,,
,,859863,001,2023-07-24_13h07.42.906,arm3_eps,2022.2.5,Win32,60.07449237,61564e378e974bdbe42763a2,64aea9d0f615b6559c281482,64becb72098aedfe0a2a3679,up,1,0.3,0.1786,2,0,1.7664,,,,,,7,0,7,0,1,,,,,
,,859863,001,2023-07-24_13h07.42.906,arm3_eps,2022.2.5,Win32,60.07449237,61564e378e974bdbe42763a2,64aea9d0f615b6559c281482,64becb72098aedfe0a2a3679,right,1,0.3,0.1786,2,0.005620544,2.462,,,,,,8,0,8,0,1,,,,,
,,859863,001,2023-07-24_13h07.42.906,arm3_eps,2022.2.5,Win32,60.07449237,61564e378e974bdbe42763a2,64aea9d0f615b6559c281482,64becb72098aedfe0a2a3679,up,-1,0.3,0.1786,3,0,1.7506,,,,,,9,0,9,0,1,,,,,
,,859863,001,2023-07-24_13h07.42.906,arm3_eps,2022.2.5,Win32,60.07449237,61564e378e974bdbe42763a2,64aea9d0f615b6559c281482,64becb72098aedfe0a2a3679,right,-1,0.3,0.1786,3,-0.012540863,1.3937,,,,,,10,0,10,0,1,,,,,
,,859863,001,2023-07-24_13h07.42.906,arm3_eps,2022.2.5,Win32,60.07449237,61564e378e974bdbe42763a2,64aea9d0f615b6559c281482,64becb72098aedfe0a2a3679,up,-1,0.3,0.1786,3,0,2.2014,,,,,,11,0,11,0,1,,,,,
,,859863,001,2023-07-24_13h07.42.906,arm3_eps,2022.2.5,Win32,60.07449237,61564e378e974bdbe42763a2,64aea9d0f615b6559c281482,64becb72098aedfe0a2a3679,right,-1,0.3,0.1786,3,0.021968995,1.2598,,,,,,12,0,12,0,1,,,,,
,,859863,001,2023-07-24_13h07.42.906,arm3_eps,2022.2.5,Win32,60.07449237,61564e378e974bdbe42763a2,64aea9d0f615b6559c281482,64becb72098aedfe0a2a3679,right,-1,0.3,0.1786,3,-0.004338751,0.7165,,,,,,13,0,13,0,1,,,,,
,,859863,001,2023-07-24_13h07.42.906,arm3_eps,2022.2.5,Win32,60.07449237,61564e378e974bdbe42763a2,64aea9d0f615b6559c281482,64becb72098aedfe0a2a3679,right,-1,0.3,0.1786,3,-0.025487374,1.534,,,,,,14,0,14,0,1,,,,,
,,859863,001,2023-07-24_13h07.42.906,arm3_eps,2022.2.5,Win32,60.07449237,61564e378e974bdbe42763a2,64aea9d0f615b6559c281482,64becb72098aedfe0a2a3679,up,-1,0.3,0.1786,3,0,2.9198,,,,,,15,0,15,0,1,,,,,
,,859863,001,2023-07-24_13h07.42.906,arm3_eps,2022.2.5,Win32,60.07449237,61564e378e974bdbe42763a2,64aea9d0f615b6559c281482,64becb72098aedfe0a2a3679,right,-1,0.3,0.1786,3,-0.008715229,4.3544,,,,,,16,0,16,0,1,,,,,
,,859863,001,2023-07-24_13h07.42.906,arm3_eps,2022.2.5,Win32,60.07449237,61564e378e974bdbe42763a2,64aea9d0f615b6559c281482,64becb72098aedfe0a2a3679,right,-1,0.3,0.1786,3,-0.002829373,1.4093,,,,,,17,0,17,0,1,,,,,
,,859863,001,2023-07-24_13h07.42.906,arm3_eps,2022.2.5,Win32,60.07449237,61564e378e974bdbe42763a2,64aea9d0f615b6559c281482,64becb72098aedfe0a2a3679,down,-1,0.3,0.1786,3,0,4.1042,,,,,,18,0,18,0,1,,,,,
,,859863,001,2023-07-24_13h07.42.906,arm3_eps,2022.2.5,Win32,60.07449237,61564e378e974bdbe42763a2,64aea9d0f615b6559c281482,64becb72098aedfe0a2a3679,right,-1,0.3,0.1786,3,0.00192944,1.2813,,,,,,19,0,19,0,1,,,,,
,,859863,001,2023-07-24_13h07.42.906,arm3_eps,2022.2.5,Win32,60.07449237,61564e378e974bdbe42763a2,64aea9d0f615b6559c281482,64becb72098aedfe0a2a3679,right,-1,0.3,0.1786,3,-0.018320554,0.465,,,,,,20,0,20,0,1,,,,,
,,859863,001,2023-07-24_13h07.42.906,arm3_eps,2022.2.5,Win32,60.07449237,61564e378e974bdbe42763a2,64aea9d0f615b6559c281482,64becb72098aedfe0a2a3679,up,1,0.3,0.1786,2,0,0.8499,,,,,,21,0,21,0,1,,,,,
,,859863,001,2023-07-24_13h07.42.906,arm3_eps,2022.2.5,Win32,60.07449237,61564e378e974bdbe42763a2,64aea9d0f615b6559c281482,64becb72098aedfe0a2a3679,right,1,0.3,0.1786,2,0.014230186,1.9106,,,,,,22,0,22,0,1,,,,,
,,859863,001,2023-07-24_13h07.42.906,arm3_eps,2022.2.5,Win32,60.07449237,61564e378e974bdbe42763a2,64aea9d0f615b6559c281482,64becb72098aedfe0a2a3679,right,1,0.3,0.1786,2,0.042439647,1.3836,,,,,,23,0,23,0,1,,,,,
,,859863,001,2023-07-24_13h07.42.906,arm3_eps,2022.2.5,Win32,60.07449237,61564e378e974bdbe42763a2,64aea9d0f615b6559c281482,64becb72098aedfe0a2a3679,up,1,0.3,0.1786,3,0,0.599,,,,,,24,0,24,0,1,,,,,
,,859863,001,2023-07-24_13h07.42.906,arm3_eps,2022.2.5,Win32,60.07449237,61564e378e974bdbe42763a2,64aea9d0f615b6559c281482,64becb72098aedfe0a2a3679,right,1,0.3,0.1786,3,0.038557005,1.0769,,,,,,25,0,25,0,1,,,,,
,,859863,001,2023-07-24_13h07.42.906,arm3_eps,2022.2.5,Win32,60.07449237,61564e378e974bdbe42763a2,64aea9d0f615b6559c281482,64becb72098aedfe0a2a3679,right,1,0.3,0.1786,3,0.02716817,0.6986,,,,,,26,0,26,0,1,,,,,
,,859863,001,2023-07-24_13h07.42.906,arm3_eps,2022.2.5,Win32,60.07449237,61564e378e974bdbe42763a2,64aea9d0f615b6559c281482,64becb72098aedfe0a2a3679,up,1,0.3,0.1786,3,0,1.2871,,,,,,27,0,27,0,1,,,,,
,,859863,001,2023-07-24_13h07.42.906,arm3_eps,2022.2.5,Win32,60.07449237,61564e378e974bdbe42763a2,64aea9d0f615b6559c281482,64becb72098aedfe0a2a3679,right,1,0.3,0.1786,3,0.022360187,1.4094,,,,,,28,0,28,0,1,,,,,
,,859863,001,2023-07-24_13h07.42.906,arm3_eps,2022.2.5,Win32,60.07449237,61564e378e974bdbe42763a2,64aea9d0f615b6559c281482,64becb72098aedfe0a2a3679,right,1,0.3,0.1786,3,0.024917959,1.0627,,,,,,29,0,29,0,1,,,,,
,,859863,001,2023-07-24_13h07.42.906,arm3_eps,2022.2.5,Win32,60.07449237,61564e378e974bdbe42763a2,64aea9d0f615b6559c281482,64becb72098aedfe0a2a3679,down,1,0.3,0.1786,3,0,0.9125,,,,,,30,0,30,0,1,,,,,
,,859863,001,2023-07-24_13h07.42.906,arm3_eps,2022.2.5,Win32,60.07449237,61564e378e974bdbe42763a2,64aea9d0f615b6559c281482,64becb72098aedfe0a2a3679,right,1,0.3,0.1786,3,0.003295045,1.9631,,,,,,31,0,31,0,1,,,,,
,,859863,001,2023-07-24_13h07.42.906,arm3_eps,2022.2.5,Win32,60.07449237,61564e378e974bdbe42763a2,64aea9d0f615b6559c281482,64becb72098aedfe0a2a3679,right,1,0.3,0.1786,3,0.022588171,0.3143,,,,,,32,0,32,0,1,,,,,
,,859863,001,2023-07-24_13h07.42.906,arm3_eps,2022.2.5,Win32,60.07449237,61564e378e974bdbe42763a2,64aea9d0f615b6559c281482,64becb72098aedfe0a2a3679,right,1,0.3,0.1786,3,0.004101887,0.8147,,,,,,33,0,33,0,1,,,,,
,,859863,001,2023-07-24_13h07.42.906,arm3_eps,2022.2.5,Win32,60.07449237,61564e378e974bdbe42763a2,64aea9d0f615b6559c281482,64becb72098aedfe0a2a3679,right,1,0.3,0.1786,3,0.032635343,1.1353,,,,,,34,0,34,0,1,,,,,
,,859863,001,2023-07-24_13h07.42.906,arm3_eps,2022.2.5,Win32,60.07449237,61564e378e974bdbe42763a2,64aea9d0f615b6559c281482,64becb72098aedfe0a2a3679,right,1,0.3,0.1786,3,0.052012366,0.6301,,,,,,35,0,35,0,1,,,,,
,,859863,001,2023-07-24_13h07.42.906,arm3_eps,2022.2.5,Win32,60.07449237,61564e378e974bdbe42763a2,64aea9d0f615b6559c281482,64becb72098aedfe0a2a3679,up,-1,0.3,0.1786,3,0,0.7499,,,,,,36,0,36,0,1,,,,,
,,859863,001,2023-07-24_13h07.42.906,arm3_eps,2022.2.5,Win32,60.07449237,61564e378e974bdbe42763a2,64aea9d0f615b6559c281482,64becb72098aedfe0a2a3679,right,-1,0.3,0.1786,3,0.008057836,1.064,,,,,,37,0,37,0,1,,,,,
,,859863,001,2023-07-24_13h07.42.906,arm3_eps,2022.2.5,Win32,60.07449237,61564e378e974bdbe42763a2,64aea9d0f615b6559c281482,64becb72098aedfe0a2a3679,down,-1,0.3,0.1786,3,0,3.908,,,,,,38,0,38,0,1,,,,,
,,859863,001,2023-07-24_13h07.42.906,arm3_eps,2022.2.5,Win32,60.07449237,61564e378e974bdbe42763a2,64aea9d0f615b6559c281482,64becb72098aedfe0a2a3679,right,-1,0.3,0.1786,3,0.010103326,1.1818,,,,,,39,0,39,0,1,,,,,
,,859863,001,2023-07-24_13h07.42.906,arm3_eps,2022.2.5,Win32,60.07449237,61564e378e974bdbe42763a2,64aea9d0f615b6559c281482,64becb72098aedfe0a2a3679,right,-1,0.3,0.1786,3,0.005420543,0.6655,,,,,,40,0,40,0,1,,,,,
,,859863,001,2023-07-24_13h07.42.906,arm3_eps,2022.2.5,Win32,60.07449237,61564e378e974bdbe42763a2,64aea9d0f615b6559c281482,64becb72098aedfe0a2a3679,up,-1,0.3,0.1786,3,0,0.6822,,,,,,41,0,41,0,1,,,,,
,,859863,001,2023-07-24_13h07.42.906,arm3_eps,2022.2.5,Win32,60.07449237,61564e378e974bdbe42763a2,64aea9d0f615b6559c281482,64becb72098aedfe0a2a3679,right,-1,0.3,0.1786,3,-0.032800446,1.1618,,,,,,42,0,42,0,1,,,,,
,,859863,001,2023-07-24_13h07.42.906,arm3_eps,2022.2.5,Win32,60.07449237,61564e378e974bdbe42763a2,64aea9d0f615b6559c281482,64becb72098aedfe0a2a3679,right,-1,0.3,0.1786,3,-0.043477989,0.983,,,,,,43,0,43,0,1,,,,,
,,859863,001,2023-07-24_13h07.42.906,arm3_eps,2022.2.5,Win32,60.07449237,61564e378e974bdbe42763a2,64aea9d0f615b6559c281482,64becb72098aedfe0a2a3679,down,1,0.3,0.1786,4,0,1.1325,,,,,,44,0,44,0,1,,,,,
,,859863,001,2023-07-24_13h07.42.906,arm3_eps,2022.2.5,Win32,60.07449237,61564e378e974bdbe42763a2,64aea9d0f615b6559c281482,64becb72098aedfe0a2a3679,right,1,0.3,0.1786,4,0.02422526,1.2752,,,,,,45,0,45,0,1,,,,,
,,859863,001,2023-07-24_13h07.42.906,arm3_eps,2022.2.5,Win32,60.07449237,61564e378e974bdbe42763a2,64aea9d0f615b6559c281482,64becb72098aedfe0a2a3679,right,1,0.3,0.1786,4,0.01696785,1.0654,,,,,,46,0,46,0,1,,,,,
,,859863,001,2023-07-24_13h07.42.906,arm3_eps,2022.2.5,Win32,60.07449237,61564e378e974bdbe42763a2,64aea9d0f615b6559c281482,64becb72098aedfe0a2a3679,up,1,0.3,0.1786,4,0,1.6515,,,,,,47,0,47,0,1,,,,,
,,859863,001,2023-07-24_13h07.42.906,arm3_eps,2022.2.5,Win32,60.07449237,61564e378e974bdbe42763a2,64aea9d0f615b6559c281482,64becb72098aedfe0a2a3679,right,1,0.3,0.1786,4,0.004874549,1.1265,,,,,,48,0,48,0,1,,,,,
,,859863,001,2023-07-24_13h07.42.906,arm3_eps,2022.2.5,Win32,60.07449237,61564e378e974bdbe42763a2,64aea9d0f615b6559c281482,64becb72098aedfe0a2a3679,right,1,0.3,0.1786,4,-0.0102371,0.6151,,,,,,49,0,49,0,1,,,,,
,,859863,001,2023-07-24_13h07.42.906,arm3_eps,2022.2.5,Win32,60.07449237,61564e378e974bdbe42763a2,64aea9d0f615b6559c281482,64becb72098aedfe0a2a3679,down,1,0.3,0.1786,4,0,5.1092,,,,,,50,0,50,0,1,,,,,
,,859863,001,2023-07-24_13h07.42.906,arm3_eps,2022.2.5,Win32,60.07449237,61564e378e974bdbe42763a2,64aea9d0f615b6559c281482,64becb72098aedfe0a2a3679,down,-1,0.3,0.1786,4,0,1.9087,,,,,,51,0,51,0,1,,,,,
,,859863,001,2023-07-24_13h07.42.906,arm3_eps,2022.2.5,Win32,60.07449237,61564e378e974bdbe42763a2,64aea9d0f615b6559c281482,64becb72098aedfe0a2a3679,right,-1,0.3,0.1786,4,-0.009221747,1.4282,,,,,,52,0,52,0,1,,,,,
,,859863,001,2023-07-24_13h07.42.906,arm3_eps,2022.2.5,Win32,60.07449237,61564e378e974bdbe42763a2,64aea9d0f615b6559c281482,64becb72098aedfe0a2a3679,right,-1,0.3,0.1786,4,-0.012479953,0.3636,,,,,,53,0,53,0,1,,,,,
,,859863,001,2023-07-24_13h07.42.906,arm3_eps,2022.2.5,Win32,60.07449237,61564e378e974bdbe42763a2,64aea9d0f615b6559c281482,64becb72098aedfe0a2a3679,up,-1,0.3,0.1786,4,0,0.5322,,,,,,54,0,54,0,1,,,,,
,,859863,001,2023-07-24_13h07.42.906,arm3_eps,2022.2.5,Win32,60.07449237,61564e378e974bdbe42763a2,64aea9d0f615b6559c281482,64becb72098aedfe0a2a3679,right,-1,0.3,0.1786,4,-0.021437816,1.0835,,,,,,55,0,55,0,1,,,,,
,,859863,001,2023-07-24_13h07.42.906,arm3_eps,2022.2.5,Win32,60.07449237,61564e378e974bdbe42763a2,64aea9d0f615b6559c281482,64becb72098aedfe0a2a3679,right,-1,0.3,0.1786,4,-0.027389804,0.7138,,,,,,56,0,56,0,1,,,,,
,,859863,001,2023-07-24_13h07.42.906,arm3_eps,2022.2.5,Win32,60.07449237,61564e378e974bdbe42763a2,64aea9d0f615b6559c281482,64becb72098aedfe0a2a3679,down,-1,0.3,0.1786,4,0,0.7552,,,,,,57,0,57,0,1,,,,,
,,859863,001,2023-07-24_13h07.42.906,arm3_eps,2022.2.5,Win32,60.07449237,61564e378e974bdbe42763a2,64aea9d0f615b6559c281482,64becb72098aedfe0a2a3679,right,-1,0.3,0.1786,4,-0.004874333,1.04,,,,,,58,0,58,0,1,,,,,
,,859863,001,2023-07-24_13h07.42.906,arm3_eps,2022.2.5,Win32,60.07449237,61564e378e974bdbe42763a2,64aea9d0f615b6559c281482,64becb72098aedfe0a2a3679,right,-1,0.3,0.1786,4,-0.008141476,1.202,,,,,,59,0,59,0,1,,,,,
,,859863,001,2023-07-24_13h07.42.906,arm3_eps,2022.2.5,Win32,60.07449237,61564e378e974bdbe42763a2,64aea9d0f615b6559c281482,64becb72098aedfe0a2a3679,down,-1,0.3,0.1786,4,0,0.6153,,,,,,60,0,60,0,1,,,,,
,,859863,001,2023-07-24_13h07.42.906,arm3_eps,2022.2.5,Win32,60.07449237,61564e378e974bdbe42763a2,64aea9d0f615b6559c281482,64becb72098aedfe0a2a3679,right,-1,0.3,0.1786,4,-0.052090268,1.6479,,,,,,61,0,61,0,1,,,,,
,,859863,001,2023-07-24_13h07.42.906,arm3_eps,2022.2.5,Win32,60.07449237,61564e378e974bdbe42763a2,64aea9d0f615b6559c281482,64becb72098aedfe0a2a3679,right,-1,0.3,0.1786,4,-0.048594334,0.7326,,,,,,62,0,62,0,1,,,,,
,,859863,001,2023-07-24_13h07.42.906,arm3_eps,2022.2.5,Win32,60.07449237,61564e378e974bdbe42763a2,64aea9d0f615b6559c281482,64becb72098aedfe0a2a3679,right,-1,0.3,0.1786,4,-0.074495624,0.5492,,,,,,63,0,63,0,1,,,,,
,,859863,001,2023-07-24_13h07.42.906,arm3_eps,2022.2.5,Win32,60.07449237,61564e378e974bdbe42763a2,64aea9d0f615b6559c281482,64becb72098aedfe0a2a3679,right,-1,0.3,0.1786,4,-0.047098724,1.1171,,,,,,64,0,64,0,1,,,,,
,,859863,001,2023-07-24_13h07.42.906,arm3_eps,2022.2.5,Win32,60.07449237,61564e378e974bdbe42763a2,64aea9d0f615b6559c281482,64becb72098aedfe0a2a3679,down,-1,0.3,0.1786,4,0,1.7681,,,,,,65,0,65,0,1,,,,,
,,859863,001,2023-07-24_13h07.42.906,arm3_eps,2022.2.5,Win32,60.07449237,61564e378e974bdbe42763a2,64aea9d0f615b6559c281482,64becb72098aedfe0a2a3679,down,-1,0.3,0.1786,4,0,2.646,,,,,,66,0,66,0,1,,,,,
,,859863,001,2023-07-24_13h07.42.906,arm3_eps,2022.2.5,Win32,60.07449237,61564e378e974bdbe42763a2,64aea9d0f615b6559c281482,64becb72098aedfe0a2a3679,right,-1,0.3,0.1786,4,-0.017911672,2.2656,,,,,,67,0,67,0,1,,,,,
,,859863,001,2023-07-24_13h07.42.906,arm3_eps,2022.2.5,Win32,60.07449237,61564e378e974bdbe42763a2,64aea9d0f615b6559c281482,64becb72098aedfe0a2a3679,right,-1,0.3,0.1786,4,-0.035322443,0.9833,,,,,,68,0,68,0,1,,,,,
,,859863,001,2023-07-24_13h07.42.906,arm3_eps,2022.2.5,Win32,60.07449237,61564e378e974bdbe42763a2,64aea9d0f615b6559c281482,64becb72098aedfe0a2a3679,up,-1,0.3,0.1786,3,0,3.0216,,,,,,69,0,69,0,1,,,,,
,,859863,001,2023-07-24_13h07.42.906,arm3_eps,2022.2.5,Win32,60.07449237,61564e378e974bdbe42763a2,64aea9d0f615b6559c281482,64becb72098aedfe0a2a3679,down,-1,0.3,0.1786,4,0,1.5189,,,,,,70,0,70,0,1,,,,,
,,859863,001,2023-07-24_13h07.42.906,arm3_eps,2022.2.5,Win32,60.07449237,61564e378e974bdbe42763a2,64aea9d0f615b6559c281482,64becb72098aedfe0a2a3679,right,-1,0.3,0.1786,4,-0.002482556,1.495,,,,,,71,0,71,0,1,,,,,
,,859863,001,2023-07-24_13h07.42.906,arm3_eps,2022.2.5,Win32,60.07449237,61564e378e974bdbe42763a2,64aea9d0f615b6559c281482,64becb72098aedfe0a2a3679,right,-1,0.3,0.1786,4,0.005815776,0.7662,,,,,,72,0,72,0,1,,,,,
,,859863,001,2023-07-24_13h07.42.906,arm3_eps,2022.2.5,Win32,60.07449237,61564e378e974bdbe42763a2,64aea9d0f615b6559c281482,64becb72098aedfe0a2a3679,up,-1,0.3,0.1786,4,0,1.0675,,,,,,73,0,73,0,1,,,,,
,,859863,001,2023-07-24_13h07.42.906,arm3_eps,2022.2.5,Win32,60.07449237,61564e378e974bdbe42763a2,64aea9d0f615b6559c281482,64becb72098aedfe0a2a3679,right,-1,0.3,0.1786,4,-0.018579204,1.6954,,,,,,74,0,74,0,1,,,,,
,,859863,001,2023-07-24_13h07.42.906,arm3_eps,2022.2.5,Win32,60.07449237,61564e378e974bdbe42763a2,64aea9d0f615b6559c281482,64becb72098aedfe0a2a3679,down,-1,0.3,0.1786,5,0,0.6319,,,,,,75,0,75,0,1,,,,,
,,859863,001,2023-07-24_13h07.42.906,arm3_eps,2022.2.5,Win32,60.07449237,61564e378e974bdbe42763a2,64aea9d0f615b6559c281482,64becb72098aedfe0a2a3679,right,-1,0.3,0.1786,5,0.007821033,2.1437,,,,,,76,0,76,0,1,,,,,
,,859863,001,2023-07-24_13h07.42.906,arm3_eps,2022.2.5,Win32,60.07449237,61564e378e974bdbe42763a2,64aea9d0f615b6559c281482,64becb72098aedfe0a2a3679,right,-1,0.3,0.1786,5,0.030734908,1.0157,,,,,,77,0,77,0,1,,,,,
,,859863,001,2023-07-24_13h07.42.906,arm3_eps,2022.2.5,Win32,60.07449237,61564e378e974bdbe42763a2,64aea9d0f615b6559c281482,64becb72098aedfe0a2a3679,up,-1,0.3,0.1786,5,0,0.9496,,,,,,78,0,78,0,1,,,,,
,,859863,001,2023-07-24_13h07.42.906,arm3_eps,2022.2.5,Win32,60.07449237,61564e378e974bdbe42763a2,64aea9d0f615b6559c281482,64becb72098aedfe0a2a3679,right,-1,0.3,0.1786,5,0.008705633,1.3104,,,,,,79,0,79,0,1,,,,,
,,859863,001,2023-07-24_13h07.42.906,arm3_eps,2022.2.5,Win32,60.07449237,61564e378e974bdbe42763a2,64aea9d0f615b6559c281482,64becb72098aedfe0a2a3679,right,-1,0.3,0.1786,5,-0.000257384,0.6654,,,,,,80,0,80,0,1,,,,,
,,859863,001,2023-07-24_13h07.42.906,arm3_eps,2022.2.5,Win32,60.07449237,61564e378e974bdbe42763a2,64aea9d0f615b6559c281482,64becb72098aedfe0a2a3679,down,-1,0.3,0.1786,5,0,1.0834,,,,,,81,0,81,0,1,,,,,
,,859863,001,2023-07-24_13h07.42.906,arm3_eps,2022.2.5,Win32,60.07449237,61564e378e974bdbe42763a2,64aea9d0f615b6559c281482,64becb72098aedfe0a2a3679,down,-1,0.3,0.1786,5,0,1.4465,,,,,,82,0,82,0,1,,,,,
,,859863,001,2023-07-24_13h07.42.906,arm3_eps,2022.2.5,Win32,60.07449237,61564e378e974bdbe42763a2,64aea9d0f615b6559c281482,64becb72098aedfe0a2a3679,right,-1,0.3,0.1786,5,-0.009440347,1.3455,,,,,,83,0,83,0,1,,,,,
,,859863,001,2023-07-24_13h07.42.906,arm3_eps,2022.2.5,Win32,60.07449237,61564e378e974bdbe42763a2,64aea9d0f615b6559c281482,64becb72098aedfe0a2a3679,right,-1,0.3,0.1786,5,-0.010178806,0.3982,,,,,,84,0,84,0,1,,,,,
,,859863,001,2023-07-24_13h07.42.906,arm3_eps,2022.2.5,Win32,60.07449237,61564e378e974bdbe42763a2,64aea9d0f615b6559c281482,64becb72098aedfe0a2a3679,right,-1,0.3,0.1786,5,-0.027652765,0.3156,,,,,,85,0,85,0,1,,,,,
,,859863,001,2023-07-24_13h07.42.906,arm3_eps,2022.2.5,Win32,60.07449237,61564e378e974bdbe42763a2,64aea9d0f615b6559c281482,64becb72098aedfe0a2a3679,right,-1,0.3,0.1786,5,-0.059313024,3.5036,,,,,,86,0,86,0,1,,,,,
,,859863,001,2023-07-24_13h07.42.906,arm3_eps,2022.2.5,Win32,60.07449237,61564e378e974bdbe42763a2,64aea9d0f615b6559c281482,64becb72098aedfe0a2a3679,down,1,0.3,0.1786,5,0,1.3494,,,,,,87,0,87,0,1,,,,,
,,859863,001,2023-07-24_13h07.42.906,arm3_eps,2022.2.5,Win32,60.07449237,61564e378e974bdbe42763a2,64aea9d0f615b6559c281482,64becb72098aedfe0a2a3679,right,1,0.3,0.1786,5,0.038211275,0.9755,,,,,,88,0,88,0,1,,,,,
,,859863,001,2023-07-24_13h07.42.906,arm3_eps,2022.2.5,Win32,60.07449237,61564e378e974bdbe42763a2,64aea9d0f615b6559c281482,64becb72098aedfe0a2a3679,right,1,0.3,0.1786,5,0.033397711,0.416,,,,,,89,0,89,0,1,,,,,
,,859863,001,2023-07-24_13h07.42.906,arm3_eps,2022.2.5,Win32,60.07449237,61564e378e974bdbe42763a2,64aea9d0f615b6559c281482,64becb72098aedfe0a2a3679,right,1,0.3,0.1786,5,0.000724819,0.3642,,,,,,90,0,90,0,1,,,,,
,,859863,001,2023-07-24_13h07.42.906,arm3_eps,2022.2.5,Win32,60.07449237,61564e378e974bdbe42763a2,64aea9d0f615b6559c281482,64becb72098aedfe0a2a3679,right,1,0.3,0.1786,5,0.003032195,0.3819,,,,,,91,0,91,0,1,,,,,
,,859863,001,2023-07-24_13h07.42.906,arm3_eps,2022.2.5,Win32,60.07449237,61564e378e974bdbe42763a2,64aea9d0f615b6559c281482,64becb72098aedfe0a2a3679,up,1,0.3,0.1786,5,0,0.7643,,,,,,92,0,92,0,1,,,,,
,,859863,001,2023-07-24_13h07.42.906,arm3_eps,2022.2.5,Win32,60.07449237,61564e378e974bdbe42763a2,64aea9d0f615b6559c281482,64becb72098aedfe0a2a3679,right,1,0.3,0.1786,5,-0.005003501,0.9807,,,,,,93,0,93,0,1,,,,,
,,859863,001,2023-07-24_13h07.42.906,arm3_eps,2022.2.5,Win32,60.07449237,61564e378e974bdbe42763a2,64aea9d0f615b6559c281482,64becb72098aedfe0a2a3679,right,1,0.3,0.1786,5,0.018653406,0.6521,,,,,,94,0,94,0,1,,,,,
,,859863,001,2023-07-24_13h07.42.906,arm3_eps,2022.2.5,Win32,60.07449237,61564e378e974bdbe42763a2,64aea9d0f615b6559c281482,64becb72098aedfe0a2a3679,up,-1,0.3,0.1786,6,0,0.6306,,,,,,95,0,95,0,1,,,,,
,,859863,001,2023-07-24_13h07.42.906,arm3_eps,2022.2.5,Win32,60.07449237,61564e378e974bdbe42763a2,64aea9d0f615b6559c281482,64becb72098aedfe0a2a3679,right,-1,0.3,0.1786,6,0.001530697,0.928,,,,,,96,0,96,0,1,,,,,
,,859863,001,2023-07-24_13h07.42.906,arm3_eps,2022.2.5,Win32,60.07449237,61564e378e974bdbe42763a2,64aea9d0f615b6559c281482,64becb72098aedfe0a2a3679,right,-1,0.3,0.1786,6,-0.017116524,0.9331,,,,,,97,0,97,0,1,,,,,
,,859863,001,2023-07-24_13h07.42.906,arm3_eps,2022.2.5,Win32,60.07449237,61564e378e974bdbe42763a2,64aea9d0f615b6559c281482,64becb72098aedfe0a2a3679,up,-1,0.3,0.1786,6,0,2.001,,,,,,98,0,98,0,1,,,,,
,,859863,001,2023-07-24_13h07.42.906,arm3_eps,2022.2.5,Win32,60.07449237,61564e378e974bdbe42763a2,64aea9d0f615b6559c281482,64becb72098aedfe0a2a3679,right,-1,0.3,0.1786,6,0.00504556,1.0261,,,,,,99,0,99,0,1,,,,,
,,859863,001,2023-07-24_13h07.42.906,arm3_eps,2022.2.5,Win32,60.07449237,61564e378e974bdbe42763a2,64aea9d0f615b6559c281482,64becb72098aedfe0a2a3679,right,-1,0.3,0.1786,6,-0.02741921,0.6991,,,,,,100,0,100,0,1,,,,,
,,859863,001,2023-07-24_13h07.42.906,arm3_eps,2022.2.5,Win32,60.07449237,61564e378e974bdbe42763a2,64aea9d0f615b6559c281482,64becb72098aedfe0a2a3679,down,-1,0.3,0.1786,6,0,0.7643,,,,,,101,0,101,0,1,,,,,
,,859863,001,2023-07-24_13h07.42.906,arm3_eps,2022.2.5,Win32,60.07449237,61564e378e974bdbe42763a2,64aea9d0f615b6559c281482,64becb72098aedfe0a2a3679,right,-1,0.3,0.1786,6,-0.010076012,0.9167,,,,,,102,0,102,0,1,,,,,
,,859863,001,2023-07-24_13h07.42.906,arm3_eps,2022.2.5,Win32,60.07449237,61564e378e974bdbe42763a2,64aea9d0f615b6559c281482,64becb72098aedfe0a2a3679,right,-1,0.3,0.1786,6,-0.000674132,0.5967,,,,,,103,0,103,0,1,,,,,
,,859863,001,2023-07-24_13h07.42.906,arm3_eps,2022.2.5,Win32,60.07449237,61564e378e974bdbe42763a2,64aea9d0f615b6559c281482,64becb72098aedfe0a2a3679,up,1,0.3,0.1786,5,0,0.7362,,,,,,104,0,104,0,1,,,,,
,,859863,001,2023-07-24_13h07.42.906,arm3_eps,2022.2.5,Win32,60.07449237,61564e378e974bdbe42763a2,64aea9d0f615b6559c281482,64becb72098aedfe0a2a3679,right,1,0.3,0.1786,5,0.035930191,1.2084,,,,,,105,0,105,0,1,,,,,
,,859863,001,2023-07-24_13h07.42.906,arm3_eps,2022.2.5,Win32,60.07449237,61564e378e974bdbe42763a2,64aea9d0f615b6559c281482,64becb72098aedfe0a2a3679,right,1,0.3,0.1786,5,0.047065278,0.6974,,,,,,106,0,106,0,1,,,,,
,,859863,001,2023-07-24_13h07.42.906,arm3_eps,2022.2.5,Win32,60.07449237,61564e378e974bdbe42763a2,64aea9d0f615b6559c281482,64becb72098aedfe0a2a3679,up,1,0.3,0.1786,5,0,1.0661,,,,,,107,0,107,0,1,,,,,
,,859863,001,2023-07-24_13h07.42.906,arm3_eps,2022.2.5,Win32,60.07449237,61564e378e974bdbe42763a2,64aea9d0f615b6559c281482,64becb72098aedfe0a2a3679,right,1,0.3,0.1786,5,-0.004490767,0.8738,,,,,,108,0,108,0,1,,,,,
,,859863,001,2023-07-24_13h07.42.906,arm3_eps,2022.2.5,Win32,60.07449237,61564e378e974bdbe42763a2,64aea9d0f615b6559c281482,64becb72098aedfe0a2a3679,right,1,0.3,0.1786,5,-0.002250091,0.4151,,,,,,109,0,109,0,1,,,,,
,,859863,001,2023-07-24_13h07.42.906,arm3_eps,2022.2.5,Win32,60.07449237,61564e378e974bdbe42763a2,64aea9d0f615b6559c281482,64becb72098aedfe0a2a3679,up,1,0.3,0.1786,5,0,0.8346,,,,,,110,0,110,0,1,,,,,
,,859863,001,2023-07-24_13h07.42.906,arm3_eps,2022.2.5,Win32,60.07449237,61564e378e974bdbe42763a2,64aea9d0f615b6559c281482,64becb72098aedfe0a2a3679,right,1,0.3,0.1786,5,0.000232716,0.8626,,,,,,111,0,111,0,1,,,,,
,,859863,001,2023-07-24_13h07.42.906,arm3_eps,2022.2.5,Win32,60.07449237,61564e378e974bdbe42763a2,64aea9d0f615b6559c281482,64becb72098aedfe0a2a3679,right,1,0.3,0.1786,5,-0.009201722,0.4811,,,,,,112,0,112,0,1,,,,,
,,859863,001,2023-07-24_13h07.42.906,arm3_eps,2022.2.5,Win32,60.07449237,61564e378e974bdbe42763a2,64aea9d0f615b6559c281482,64becb72098aedfe0a2a3679,down,1,0.3,0.1786,5,0,1.033,,,,,,113,0,113,0,1,,,,,
,,859863,001,2023-07-24_13h07.42.906,arm3_eps,2022.2.5,Win32,60.07449237,61564e378e974bdbe42763a2,64aea9d0f615b6559c281482,64becb72098aedfe0a2a3679,right,1,0.3,0.1786,5,-0.00773733,0.8303,,,,,,114,0,114,0,1,,,,,
,,859863,001,2023-07-24_13h07.42.906,arm3_eps,2022.2.5,Win32,60.07449237,61564e378e974bdbe42763a2,64aea9d0f615b6559c281482,64becb72098aedfe0a2a3679,right,1,0.3,0.1786,5,0.021831314,0.397,,,,,,115,0,115,0,1,,,,,
,,859863,001,2023-07-24_13h07.42.906,arm3_eps,2022.2.5,Win32,60.07449237,61564e378e974bdbe42763a2,64aea9d0f615b6559c281482,64becb72098aedfe0a2a3679,right,1,0.3,0.1786,5,0.034345481,0.8828,,,,,,116,0,116,0,1,,,,,
,,859863,001,2023-07-24_13h07.42.906,arm3_eps,2022.2.5,Win32,60.07449237,61564e378e974bdbe42763a2,64aea9d0f615b6559c281482,64becb72098aedfe0a2a3679,up,1,0.3,0.1786,6,0,1.5161,,,,,,117,0,117,0,1,,,,,
,,859863,001,2023-07-24_13h07.42.906,arm3_eps,2022.2.5,Win32,60.07449237,61564e378e974bdbe42763a2,64aea9d0f615b6559c281482,64becb72098aedfe0a2a3679,right,1,0.3,0.1786,6,-0.016586035,1.0107,,,,,,118,0,118,0,1,,,,,
,,859863,001,2023-07-24_13h07.42.906,arm3_eps,2022.2.5,Win32,60.07449237,61564e378e974bdbe42763a2,64aea9d0f615b6559c281482,64becb72098aedfe0a2a3679,right,1,0.3,0.1786,6,0.015985572,0.5521,,,,,,119,0,119,0,1,,,,,
,,859863,001,2023-07-24_13h07.42.906,arm3_eps,2022.2.5,Win32,60.07449237,61564e378e974bdbe42763a2,64aea9d0f615b6559c281482,64becb72098aedfe0a2a3679,right,1,0.3,0.1786,6,0.034655506,0.5134,,,,,,120,0,120,0,1,,,,,
,,859863,001,2023-07-24_13h07.42.906,arm3_eps,2022.2.5,Win32,60.07449237,61564e378e974bdbe42763a2,64aea9d0f615b6559c281482,64becb72098aedfe0a2a3679,right,1,0.3,0.1786,6,0.027019912,0.6307,,,,,,121,0,121,0,1,,,,,
,,859863,001,2023-07-24_13h07.42.906,arm3_eps,2022.2.5,Win32,60.07449237,61564e378e974bdbe42763a2,64aea9d0f615b6559c281482,64becb72098aedfe0a2a3679,up,1,0.3,0.1786,6,0,0.5326,,,,,,122,0,122,0,1,,,,,
,,859863,001,2023-07-24_13h07.42.906,arm3_eps,2022.2.5,Win32,60.07449237,61564e378e974bdbe42763a2,64aea9d0f615b6559c281482,64becb72098aedfe0a2a3679,right,1,0.3,0.1786,6,-0.010972139,0.9287,,,,,,123,0,123,0,1,,,,,
,,859863,001,2023-07-24_13h07.42.906,arm3_eps,2022.2.5,Win32,60.07449237,61564e378e974bdbe42763a2,64aea9d0f615b6559c281482,64becb72098aedfe0a2a3679,right,1,0.3,0.1786,6,-0.024779076,0.3486,,,,,,124,0,124,0,1,,,,,
,,859863,001,2023-07-24_13h07.42.906,arm3_eps,2022.2.5,Win32,60.07449237,61564e378e974bdbe42763a2,64aea9d0f615b6559c281482,64becb72098aedfe0a2a3679,up,1,0.3,0.1786,6,0,0.6148,,,,,,125,0,125,0,1,,,,,
,,859863,001,2023-07-24_13h07.42.906,arm3_eps,2022.2.5,Win32,60.07449237,61564e378e974bdbe42763a2,64aea9d0f615b6559c281482,64becb72098aedfe0a2a3679,right,1,0.3,0.1786,6,0.006338159,0.8449,,,,,,126,0,126,0,1,,,,,
,,859863,001,2023-07-24_13h07.42.906,arm3_eps,2022.2.5,Win32,60.07449237,61564e378e974bdbe42763a2,64aea9d0f615b6559c281482,64becb72098aedfe0a2a3679,right,1,0.3,0.1786,6,0.004304154,0.5493,,,,,,127,0,127,0,1,,,,,
,,859863,001,2023-07-24_13h07.42.906,arm3_eps,2022.2.5,Win32,60.07449237,61564e378e974bdbe42763a2,64aea9d0f615b6559c281482,64becb72098aedfe0a2a3679,right,1,0.3,0.1786,6,-0.009514082,4.2876,,,,,,128,0,128,0,1,,,,,
,,859863,001,2023-07-24_13h07.42.906,arm3_eps,2022.2.5,Win32,60.07449237,61564e378e974bdbe42763a2,64aea9d0f615b6559c281482,64becb72098aedfe0a2a3679,right,1,0.3,0.1786,6,-0.009293237,0.7745,,,,,,129,0,129,0,1,,,,,
,,859863,001,2023-07-24_13h07.42.906,arm3_eps,2022.2.5,Win32,60.07449237,61564e378e974bdbe42763a2,64aea9d0f615b6559c281482,64becb72098aedfe0a2a3679,up,1,0.3,0.1786,6,0,0.6797,,,,,,130,0,130,0,1,,,,,
,,859863,001,2023-07-24_13h07.42.906,arm3_eps,2022.2.5,Win32,60.07449237,61564e378e974bdbe42763a2,64aea9d0f615b6559c281482,64becb72098aedfe0a2a3679,right,1,0.3,0.1786,6,-0.008379809,0.8639,,,,,,131,0,131,0,1,,,,,
,,859863,001,2023-07-24_13h07.42.906,arm3_eps,2022.2.5,Win32,60.07449237,61564e378e974bdbe42763a2,64aea9d0f615b6559c281482,64becb72098aedfe0a2a3679,down,1,0.3,0.1786,6,0,0.7493,,,,,,132,0,132,0,1,,,,,
,,859863,001,2023-07-24_13h07.42.906,arm3_eps,2022.2.5,Win32,60.07449237,61564e378e974bdbe42763a2,64aea9d0f615b6559c281482,64becb72098aedfe0a2a3679,right,1,0.3,0.1786,6,0.015992867,0.7626,,,,,,133,0,133,0,1,,,,,
,,859863,001,2023-07-24_13h07.42.906,arm3_eps,2022.2.5,Win32,60.07449237,61564e378e974bdbe42763a2,64aea9d0f615b6559c281482,64becb72098aedfe0a2a3679,up,1,0.3,0.1786,6,0,0.6826,,,,,,134,0,134,0,1,,,,,
,,859863,001,2023-07-24_13h07.42.906,arm3_eps,2022.2.5,Win32,60.07449237,61564e378e974bdbe42763a2,64aea9d0f615b6559c281482,64becb72098aedfe0a2a3679,up,1,0.3,0.1786,6,0,1.3132,,,,,,135,0,135,0,1,,,,,
,,859863,001,2023-07-24_13h07.42.906,arm3_eps,2022.2.5,Win32,60.07449237,61564e378e974bdbe42763a2,64aea9d0f615b6559c281482,64becb72098aedfe0a2a3679,right,1,0.3,0.1786,6,0.00572896,1.3647,,,,,,136,0,136,0,1,,,,,
,,859863,001,2023-07-24_13h07.42.906,arm3_eps,2022.2.5,Win32,60.07449237,61564e378e974bdbe42763a2,64aea9d0f615b6559c281482,64becb72098aedfe0a2a3679,right,1,0.3,0.1786,6,0.033099332,0.4668,,,,,,137,0,137,0,1,,,,,
,,859863,001,2023-07-24_13h07.42.906,arm3_eps,2022.2.5,Win32,60.07449237,61564e378e974bdbe42763a2,64aea9d0f615b6559c281482,64becb72098aedfe0a2a3679,up,1,0.3,0.1786,6,0,0.7673,,,,,,138,0,138,0,1,,,,,
,,859863,001,2023-07-24_13h07.42.906,arm3_eps,2022.2.5,Win32,60.07449237,61564e378e974bdbe42763a2,64aea9d0f615b6559c281482,64becb72098aedfe0a2a3679,right,1,0.3,0.1786,6,0.004982156,1.1634,,,,,,139,0,139,0,1,,,,,
,,859863,001,2023-07-24_13h07.42.906,arm3_eps,2022.2.5,Win32,60.07449237,61564e378e974bdbe42763a2,64aea9d0f615b6559c281482,64becb72098aedfe0a2a3679,right,1,0.3,0.1786,6,0.014850139,0.3156,,,,,,140,0,140,0,1,,,,,
,,859863,001,2023-07-24_13h07.42.906,arm3_eps,2022.2.5,Win32,60.07449237,61564e378e974bdbe42763a2,64aea9d0f615b6559c281482,64becb72098aedfe0a2a3679,up,1,0.3,0.1786,7,0,2.8525,,,,,,141,0,141,0,1,,,,,
,,859863,001,2023-07-24_13h07.42.906,arm3_eps,2022.2.5,Win32,60.07449237,61564e378e974bdbe42763a2,64aea9d0f615b6559c281482,64becb72098aedfe0a2a3679,right,1,0.3,0.1786,7,0.021436959,1.1477,,,,,,142,0,142,0,1,,,,,
,,859863,001,2023-07-24_13h07.42.906,arm3_eps,2022.2.5,Win32,60.07449237,61564e378e974bdbe42763a2,64aea9d0f615b6559c281482,64becb72098aedfe0a2a3679,up,1,0.3,0.1786,7,0,0.8682,,,,,,143,0,143,0,1,,,,,
,,859863,001,2023-07-24_13h07.42.906,arm3_eps,2022.2.5,Win32,60.07449237,61564e378e974bdbe42763a2,64aea9d0f615b6559c281482,64becb72098aedfe0a2a3679,right,1,0.3,0.1786,7,0.011473568,1.3977,,,,,,144,0,144,0,1,,,,,
,,859863,001,2023-07-24_13h07.42.906,arm3_eps,2022.2.5,Win32,60.07449237,61564e378e974bdbe42763a2,64aea9d0f615b6559c281482,64becb72098aedfe0a2a3679,right,1,0.3,0.1786,7,-0.015431216,0.3321,,,,,,145,0,145,0,1,,,,,
,,859863,001,2023-07-24_13h07.42.906,arm3_eps,2022.2.5,Win32,60.07449237,61564e378e974bdbe42763a2,64aea9d0f615b6559c281482,64becb72098aedfe0a2a3679,right,1,0.3,0.1786,7,-0.026785332,0.9493,,,,,,146,0,146,0,1,,,,,
,,859863,001,2023-07-24_13h07.42.906,arm3_eps,2022.2.5,Win32,60.07449237,61564e378e974bdbe42763a2,64aea9d0f615b6559c281482,64becb72098aedfe0a2a3679,up,1,0.3,0.1786,7,0,0.7163,,,,,,147,0,147,0,1,,,,,
,,859863,001,2023-07-24_13h07.42.906,arm3_eps,2022.2.5,Win32,60.07449237,61564e378e974bdbe42763a2,64aea9d0f615b6559c281482,64becb72098aedfe0a2a3679,right,1,0.3,0.1786,7,0.005465725,0.8343,,,,,,148,0,148,0,1,,,,,
,,859863,001,2023-07-24_13h07.42.906,arm3_eps,2022.2.5,Win32,60.07449237,61564e378e974bdbe42763a2,64aea9d0f615b6559c281482,64becb72098aedfe0a2a3679,right,1,0.3,0.1786,7,0.011856955,0.3788,,,,,,149,0,149,0,1,,,,,
,,859863,001,2023-07-24_13h07.42.906,arm3_eps,2022.2.5,Win32,60.07449237,61564e378e974bdbe42763a2,64aea9d0f615b6559c281482,64becb72098aedfe0a2a3679,up,1,0.3,0.1786,7,0,0.6825,,,,,,150,0,150,0,1,,,,,
,,859863,001,2023-07-24_13h07.42.906,arm3_eps,2022.2.5,Win32,60.07449237,61564e378e974bdbe42763a2,64aea9d0f615b6559c281482,64becb72098aedfe0a2a3679,right,1,0.3,0.1786,7,0.014391155,0.8798,,,,,,151,0,151,0,1,,,,,
,,859863,001,2023-07-24_13h07.42.906,arm3_eps,2022.2.5,Win32,60.07449237,61564e378e974bdbe42763a2,64aea9d0f615b6559c281482,64becb72098aedfe0a2a3679,right,1,0.3,0.1786,7,0.016994477,0.8164,,,,,,152,0,152,0,1,,,,,
,,859863,001,2023-07-24_13h07.42.906,arm3_eps,2022.2.5,Win32,60.07449237,61564e378e974bdbe42763a2,64aea9d0f615b6559c281482,64becb72098aedfe0a2a3679,right,1,0.3,0.1786,7,0.040448508,0.6833,,,,,,153,0,153,0,1,,,,,
,,859863,001,2023-07-24_13h07.42.906,arm3_eps,2022.2.5,Win32,60.07449237,61564e378e974bdbe42763a2,64aea9d0f615b6559c281482,64becb72098aedfe0a2a3679,up,1,0.3,0.1786,7,0,0.5962,,,,,,154,0,154,0,1,,,,,
,,859863,001,2023-07-24_13h07.42.906,arm3_eps,2022.2.5,Win32,60.07449237,61564e378e974bdbe42763a2,64aea9d0f615b6559c281482,64becb72098aedfe0a2a3679,right,1,0.3,0.1786,7,0.03529562,0.9636,,,,,,155,0,155,0,1,,,,,
,,859863,001,2023-07-24_13h07.42.906,arm3_eps,2022.2.5,Win32,60.07449237,61564e378e974bdbe42763a2,64aea9d0f615b6559c281482,64becb72098aedfe0a2a3679,right,1,0.3,0.1786,7,0.057621928,0.6323,,,,,,156,0,156,0,1,,,,,
,,859863,001,2023-07-24_13h07.42.906,arm3_eps,2022.2.5,Win32,60.07449237,61564e378e974bdbe42763a2,64aea9d0f615b6559c281482,64becb72098aedfe0a2a3679,right,1,0.3,0.1786,7,0.085384159,0.4485,,,,,,157,0,157,0,1,,,,,
,,859863,001,2023-07-24_13h07.42.906,arm3_eps,2022.2.5,Win32,60.07449237,61564e378e974bdbe42763a2,64aea9d0f615b6559c281482,64becb72098aedfe0a2a3679,up,1,0.3,0.1786,7,0,0.3989,,,,,,158,0,158,0,1,,,,,
,,859863,001,2023-07-24_13h07.42.906,arm3_eps,2022.2.5,Win32,60.07449237,61564e378e974bdbe42763a2,64aea9d0f615b6559c281482,64becb72098aedfe0a2a3679,right,1,0.3,0.1786,7,-0.003285233,0.9124,,,,,,159,0,159,0,1,,,,,
,,859863,001,2023-07-24_13h07.42.906,arm3_eps,2022.2.5,Win32,60.07449237,61564e378e974bdbe42763a2,64aea9d0f615b6559c281482,64becb72098aedfe0a2a3679,right,1,0.3,0.1786,7,0.007154547,0.4813,,,,,,160,0,160,0,1,,,,,
,,859863,001,2023-07-24_13h07.42.906,arm3_eps,2022.2.5,Win32,60.07449237,61564e378e974bdbe42763a2,64aea9d0f615b6559c281482,64becb72098aedfe0a2a3679,up,1,0.3,0.1786,7,0,0.3834,,,,,,161,0,161,0,1,,,,,
,,859863,001,2023-07-24_13h07.42.906,arm3_eps,2022.2.5,Win32,60.07449237,61564e378e974bdbe42763a2,64aea9d0f615b6559c281482,64becb72098aedfe0a2a3679,right,1,0.3,0.1786,7,-0.004219633,0.8132,,,,,,162,0,162,0,1,,,,,
,,859863,001,2023-07-24_13h07.42.906,arm3_eps,2022.2.5,Win32,60.07449237,61564e378e974bdbe42763a2,64aea9d0f615b6559c281482,64becb72098aedfe0a2a3679,up,1,0.3,0.1786,7,0,4.3881,,,,,,163,0,163,0,1,,,,,
,,859863,001,2023-07-24_13h07.42.906,arm3_eps,2022.2.5,Win32,60.07449237,61564e378e974bdbe42763a2,64aea9d0f615b6559c281482,64becb72098aedfe0a2a3679,up,-1,0.3,0.1786,7,0,1.3342,,,,,,164,0,164,0,1,,,,,
,,859863,001,2023-07-24_13h07.42.906,arm3_eps,2022.2.5,Win32,60.07449237,61564e378e974bdbe42763a2,64aea9d0f615b6559c281482,64becb72098aedfe0a2a3679,right,-1,0.3,0.1786,7,-0.001387154,1.367,,,,,,165,0,165,0,1,,,,,
,,859863,001,2023-07-24_13h07.42.906,arm3_eps,2022.2.5,Win32,60.07449237,61564e378e974bdbe42763a2,64aea9d0f615b6559c281482,64becb72098aedfe0a2a3679,right,-1,0.3,0.1786,7,0.009782909,0.6181,,,,,,166,0,166,0,1,,,,,
,,859863,001,2023-07-24_13h07.42.906,arm3_eps,2022.2.5,Win32,60.07449237,61564e378e974bdbe42763a2,64aea9d0f615b6559c281482,64becb72098aedfe0a2a3679,down,-1,0.3,0.1786,7,0,2.0874,,,,,,167,0,167,0,1,,,,,
,,859863,001,2023-07-24_13h07.42.906,arm3_eps,2022.2.5,Win32,60.07449237,61564e378e974bdbe42763a2,64aea9d0f615b6559c281482,64becb72098aedfe0a2a3679,down,1,0.3,0.1786,8,0,1.2342,,,,,,168,0,168,0,1,,,,,
,,859863,001,2023-07-24_13h07.42.906,arm3_eps,2022.2.5,Win32,60.07449237,61564e378e974bdbe42763a2,64aea9d0f615b6559c281482,64becb72098aedfe0a2a3679,right,1,0.3,0.1786,8,0.000829022,1.2999,,,,,,169,0,169,0,1,,,,,
,,859863,001,2023-07-24_13h07.42.906,arm3_eps,2022.2.5,Win32,60.07449237,61564e378e974bdbe42763a2,64aea9d0f615b6559c281482,64becb72098aedfe0a2a3679,right,1,0.3,0.1786,8,0.023124804,0.6149,,,,,,170,0,170,0,1,,,,,
,,859863,001,2023-07-24_13h07.42.906,arm3_eps,2022.2.5,Win32,60.07449237,61564e378e974bdbe42763a2,64aea9d0f615b6559c281482,64becb72098aedfe0a2a3679,right,1,0.3,0.1786,8,0.012864759,0.5164,,,,,,171,0,171,0,1,,,,,
,,859863,001,2023-07-24_13h07.42.906,arm3_eps,2022.2.5,Win32,60.07449237,61564e378e974bdbe42763a2,64aea9d0f615b6559c281482,64becb72098aedfe0a2a3679,down,1,0.3,0.1786,7,0,0.5483,,,,,,172,0,172,0,1,,,,,
,,859863,001,2023-07-24_13h07.42.906,arm3_eps,2022.2.5,Win32,60.07449237,61564e378e974bdbe42763a2,64aea9d0f615b6559c281482,64becb72098aedfe0a2a3679,right,1,0.3,0.1786,7,0.01965562,1.4284,,,,,,173,0,173,0,1,,,,,
,,859863,001,2023-07-24_13h07.42.906,arm3_eps,2022.2.5,Win32,60.07449237,61564e378e974bdbe42763a2,64aea9d0f615b6559c281482,64becb72098aedfe0a2a3679,right,1,0.3,0.1786,7,0.04120412,0.2147,,,,,,174,0,174,0,1,,,,,
,,859863,001,2023-07-24_13h07.42.906,arm3_eps,2022.2.5,Win32,60.07449237,61564e378e974bdbe42763a2,64aea9d0f615b6559c281482,64becb72098aedfe0a2a3679,up,-1,0.3,0.1786,8,0,0.5494,,,,,,175,0,175,0,1,,,,,
,,859863,001,2023-07-24_13h07.42.906,arm3_eps,2022.2.5,Win32,60.07449237,61564e378e974bdbe42763a2,64aea9d0f615b6559c281482,64becb72098aedfe0a2a3679,right,-1,0.3,0.1786,8,-0.032798283,0.9097,,,,,,176,0,176,0,1,,,,,
,,859863,001,2023-07-24_13h07.42.906,arm3_eps,2022.2.5,Win32,60.07449237,61564e378e974bdbe42763a2,64aea9d0f615b6559c281482,64becb72098aedfe0a2a3679,right,-1,0.3,0.1786,8,-0.027647387,0.9998,,,,,,177,0,177,0,1,,,,,
,,859863,001,2023-07-24_13h07.42.906,arm3_eps,2022.2.5,Win32,60.07449237,61564e378e974bdbe42763a2,64aea9d0f615b6559c281482,64becb72098aedfe0a2a3679,down,-1,0.3,0.1786,8,0,0.8488,,,,,,178,0,178,0,1,,,,,
,,859863,001,2023-07-24_13h07.42.906,arm3_eps,2022.2.5,Win32,60.07449237,61564e378e974bdbe42763a2,64aea9d0f615b6559c281482,64becb72098aedfe0a2a3679,right,-1,0.3,0.1786,8,-0.003074084,0.8108,,,,,,179,0,179,0,1,,,,,
,,859863,001,2023-07-24_13h07.42.906,arm3_eps,2022.2.5,Win32,60.07449237,61564e378e974bdbe42763a2,64aea9d0f615b6559c281482,64becb72098aedfe0a2a3679,right,-1,0.3,0.1786,8,-0.024701388,0.3304,,,,,,180,0,180,0,1,,,,,
,,859863,001,2023-07-24_13h07.42.906,arm3_eps,2022.2.5,Win32,60.07449237,61564e378e974bdbe42763a2,64aea9d0f615b6559c281482,64becb72098aedfe0a2a3679,right,-1,0.3,0.1786,8,-0.040605309,0.7825,,,,,,181,0,181,0,1,,,,,
,,859863,001,2023-07-24_13h07.42.906,arm3_eps,2022.2.5,Win32,60.07449237,61564e378e974bdbe42763a2,64aea9d0f615b6559c281482,64becb72098aedfe0a2a3679,down,-1,0.3,0.1786,8,0,0.5996,,,,,,182,0,182,0,1,,,,,
,,859863,001,2023-07-24_13h07.42.906,arm3_eps,2022.2.5,Win32,60.07449237,61564e378e974bdbe42763a2,64aea9d0f615b6559c281482,64becb72098aedfe0a2a3679,right,-1,0.3,0.1786,8,-0.014830575,0.9794,,,,,,183,0,183,0,1,,,,,
,,859863,001,2023-07-24_13h07.42.906,arm3_eps,2022.2.5,Win32,60.07449237,61564e378e974bdbe42763a2,64aea9d0f615b6559c281482,64becb72098aedfe0a2a3679,right,-1,0.3,0.1786,8,-0.004576448,0.8535,,,,,,184,0,184,0,1,,,,,
,,859863,001,2023-07-24_13h07.42.906,arm3_eps,2022.2.5,Win32,60.07449237,61564e378e974bdbe42763a2,64aea9d0f615b6559c281482,64becb72098aedfe0a2a3679,down,1,0.3,0.1786,9,0,0.6649,,,,,,185,0,185,0,1,,,,,
,,859863,001,2023-07-24_13h07.42.906,arm3_eps,2022.2.5,Win32,60.07449237,61564e378e974bdbe42763a2,64aea9d0f615b6559c281482,64becb72098aedfe0a2a3679,right,1,0.3,0.1786,9,0.039088477,1.9113,,,,,,186,0,186,0,1,,,,,
,,859863,001,2023-07-24_13h07.42.906,arm3_eps,2022.2.5,Win32,60.07449237,61564e378e974bdbe42763a2,64aea9d0f615b6559c281482,64becb72098aedfe0a2a3679,up,1,0.3,0.1786,10,0,0.5007,,,,,,187,0,187,0,1,,,,,
,,859863,001,2023-07-24_13h07.42.906,arm3_eps,2022.2.5,Win32,60.07449237,61564e378e974bdbe42763a2,64aea9d0f615b6559c281482,64becb72098aedfe0a2a3679,right,1,0.3,0.1786,10,0.022068032,1.1073,,,,,,188,0,188,0,1,,,,,
,,859863,001,2023-07-24_13h07.42.906,arm3_eps,2022.2.5,Win32,60.07449237,61564e378e974bdbe42763a2,64aea9d0f615b6559c281482,64becb72098aedfe0a2a3679,up,1,0.3,0.1786,11,0,1.6982,,,,,,189,0,189,0,1,,,,,
,,859863,001,2023-07-24_13h07.42.906,arm3_eps,2022.2.5,Win32,60.07449237,61564e378e974bdbe42763a2,64aea9d0f615b6559c281482,64becb72098aedfe0a2a3679,right,1,0.3,0.1786,11,0.001559484,0.9642,,,,,,190,0,190,0,1,,,,,
,,859863,001,2023-07-24_13h07.42.906,arm3_eps,2022.2.5,Win32,60.07449237,61564e378e974bdbe42763a2,64aea9d0f615b6559c281482,64becb72098aedfe0a2a3679,right,1,0.3,0.1786,11,0.004271152,0.7979,,,,,,191,0,191,0,1,,,,,
,,859863,001,2023-07-24_13h07.42.906,arm3_eps,2022.2.5,Win32,60.07449237,61564e378e974bdbe42763a2,64aea9d0f615b6559c281482,64becb72098aedfe0a2a3679,down,1,0.3,0.1786,10,0,0.8014,,,,,,192,0,192,0,1,,,,,
,,859863,001,2023-07-24_13h07.42.906,arm3_eps,2022.2.5,Win32,60.07449237,61564e378e974bdbe42763a2,64aea9d0f615b6559c281482,64becb72098aedfe0a2a3679,right,1,0.3,0.1786,10,0.01350593,1.3598,,,,,,193,0,193,0,1,,,,,
,,859863,001,2023-07-24_13h07.42.906,arm3_eps,2022.2.5,Win32,60.07449237,61564e378e974bdbe42763a2,64aea9d0f615b6559c281482,64becb72098aedfe0a2a3679,right,1,0.3,0.1786,10,0.013276337,0.5161,,,,,,194,0,194,0,1,,,,,
,,859863,001,2023-07-24_13h07.42.906,arm3_eps,2022.2.5,Win32,60.07449237,61564e378e974bdbe42763a2,64aea9d0f615b6559c281482,64becb72098aedfe0a2a3679,right,1,0.3,0.1786,10,0.015224881,0.9988,,,,,,195,0,195,0,1,,,,,
,,859863,001,2023-07-24_13h07.42.906,arm3_eps,2022.2.5,Win32,60.07449237,61564e378e974bdbe42763a2,64aea9d0f615b6559c281482,64becb72098aedfe0a2a3679,up,1,0.3,0.1786,10,0,0.6653,,,,,,196,0,196,0,1,,,,,
,,859863,001,2023-07-24_13h07.42.906,arm3_eps,2022.2.5,Win32,60.07449237,61564e378e974bdbe42763a2,64aea9d0f615b6559c281482,64becb72098aedfe0a2a3679,right,1,0.3,0.1786,10,0.018155799,0.8936,,,,,,197,0,197,0,1,,,,,
,,859863,001,2023-07-24_13h07.42.906,arm3_eps,2022.2.5,Win32,60.07449237,61564e378e974bdbe42763a2,64aea9d0f615b6559c281482,64becb72098aedfe0a2a3679,up,1,0.3,0.1786,10,0,0.8297,,,,,,198,0,198,0,1,,,,,
,,859863,001,2023-07-24_13h07.42.906,arm3_eps,2022.2.5,Win32,60.07449237,61564e378e974bdbe42763a2,64aea9d0f615b6559c281482,64becb72098aedfe0a2a3679,right,1,0.3,0.1786,10,0.00075986,0.9489,,,,,,199,0,199,0,1,,,,,
,,859863,001,2023-07-24_13h07.42.906,arm3_eps,2022.2.5,Win32,60.07449237,61564e378e974bdbe42763a2,64aea9d0f615b6559c281482,64becb72098aedfe0a2a3679,right,1,0.3,0.1786,10,0.01706862,0.4325,,,,,,200,0,200,0,1,,,,,
,,859863,001,2023-07-24_13h07.42.906,arm3_eps,2022.2.5,Win32,60.07449237,61564e378e974bdbe42763a2,64aea9d0f615b6559c281482,64becb72098aedfe0a2a3679,up,1,0.3,0.1786,10,0,0.5306,,,,,,201,0,201,0,1,,,,,
,,859863,001,2023-07-24_13h07.42.906,arm3_eps,2022.2.5,Win32,60.07449237,61564e378e974bdbe42763a2,64aea9d0f615b6559c281482,64becb72098aedfe0a2a3679,right,1,0.3,0.1786,10,0.011861679,0.9484,,,,,,202,0,202,0,1,,,,,
,,859863,001,2023-07-24_13h07.42.906,arm3_eps,2022.2.5,Win32,60.07449237,61564e378e974bdbe42763a2,64aea9d0f615b6559c281482,64becb72098aedfe0a2a3679,right,1,0.3,0.1786,10,0.016842006,0.5144,,,,,,203,0,203,0,1,,,,,
,,859863,001,2023-07-24_13h07.42.906,arm3_eps,2022.2.5,Win32,60.07449237,61564e378e974bdbe42763a2,64aea9d0f615b6559c281482,64becb72098aedfe0a2a3679,down,1,0.3,0.1786,10,0,0.7325,,,,,,204,0,204,0,1,,,,,
,,859863,001,2023-07-24_13h07.42.906,arm3_eps,2022.2.5,Win32,60.07449237,61564e378e974bdbe42763a2,64aea9d0f615b6559c281482,64becb72098aedfe0a2a3679,right,1,0.3,0.1786,10,0.024536041,0.8117,,,,,,205,0,205,0,1,,,,,
,,859863,001,2023-07-24_13h07.42.906,arm3_eps,2022.2.5,Win32,60.07449237,61564e378e974bdbe42763a2,64aea9d0f615b6559c281482,64becb72098aedfe0a2a3679,right,1,0.3,0.1786,10,0.066153083,0.3824,,,,,,206,0,206,0,1,,,,,
,,859863,001,2023-07-24_13h07.42.906,arm3_eps,2022.2.5,Win32,60.07449237,61564e378e974bdbe42763a2,64aea9d0f615b6559c281482,64becb72098aedfe0a2a3679,up,1,0.3,0.1786,10,0,0.3488,,,,,,207,0,207,0,1,,,,,
,,859863,001,2023-07-24_13h07.42.906,arm3_eps,2022.2.5,Win32,60.07449237,61564e378e974bdbe42763a2,64aea9d0f615b6559c281482,64becb72098aedfe0a2a3679,right,1,0.3,0.1786,10,0.020061976,0.8816,,,,,,208,0,208,0,1,,,,,
,,859863,001,2023-07-24_13h07.42.906,arm3_eps,2022.2.5,Win32,60.07449237,61564e378e974bdbe42763a2,64aea9d0f615b6559c281482,64becb72098aedfe0a2a3679,up,1,0.3,0.1786,11,0,0.5316,,,,,,209,0,209,0,1,,,,,
,,859863,001,2023-07-24_13h07.42.906,arm3_eps,2022.2.5,Win32,60.07449237,61564e378e974bdbe42763a2,64aea9d0f615b6559c281482,64becb72098aedfe0a2a3679,right,1,0.3,0.1786,11,-0.006078287,0.9399,,,,,,210,0,210,0,1,,,,,
,,859863,001,2023-07-24_13h07.42.906,arm3_eps,2022.2.5,Win32,60.07449237,61564e378e974bdbe42763a2,64aea9d0f615b6559c281482,64becb72098aedfe0a2a3679,right,1,0.3,0.1786,11,0.034686037,0.5157,,,,,,211,0,211,0,1,,,,,
,,859863,001,2023-07-24_13h07.42.906,arm3_eps,2022.2.5,Win32,60.07449237,61564e378e974bdbe42763a2,64aea9d0f615b6559c281482,64becb72098aedfe0a2a3679,up,1,0.3,0.1786,11,0,0.4666,,,,,,212,0,212,0,1,,,,,
,,859863,001,2023-07-24_13h07.42.906,arm3_eps,2022.2.5,Win32,60.07449237,61564e378e974bdbe42763a2,64aea9d0f615b6559c281482,64becb72098aedfe0a2a3679,right,1,0.3,0.1786,11,0.007916625,0.7933,,,,,,213,0,213,0,1,,,,,
,,859863,001,2023-07-24_13h07.42.906,arm3_eps,2022.2.5,Win32,60.07449237,61564e378e974bdbe42763a2,64aea9d0f615b6559c281482,64becb72098aedfe0a2a3679,down,1,0.3,0.1786,11,0,0.8317,,,,,,214,0,214,0,1,,,,,
,,859863,001,2023-07-24_13h07.42.906,arm3_eps,2022.2.5,Win32,60.07449237,61564e378e974bdbe42763a2,64aea9d0f615b6559c281482,64becb72098aedfe0a2a3679,right,1,0.3,0.1786,11,0.02438208,0.9837,,,,,,215,0,215,0,1,,,,,
,,859863,001,2023-07-24_13h07.42.906,arm3_eps,2022.2.5,Win32,60.07449237,61564e378e974bdbe42763a2,64aea9d0f615b6559c281482,64becb72098aedfe0a2a3679,right,1,0.3,0.1786,11,0.024993,2.5402,,,,,,216,0,216,0,1,,,,,
,,859863,001,2023-07-24_13h07.42.906,arm3_eps,2022.2.5,Win32,60.07449237,61564e378e974bdbe42763a2,64aea9d0f615b6559c281482,64becb72098aedfe0a2a3679,up,1,0.3,0.1786,11,0,0.7321,,,,,,217,0,217,0,1,,,,,
,,859863,001,2023-07-24_13h07.42.906,arm3_eps,2022.2.5,Win32,60.07449237,61564e378e974bdbe42763a2,64aea9d0f615b6559c281482,64becb72098aedfe0a2a3679,right,1,0.3,0.1786,11,-0.018540389,0.882,,,,,,218,0,218,0,1,,,,,
,,859863,001,2023-07-24_13h07.42.906,arm3_eps,2022.2.5,Win32,60.07449237,61564e378e974bdbe42763a2,64aea9d0f615b6559c281482,64becb72098aedfe0a2a3679,down,1,0.3,0.1786,10,0,1.586,,,,,,219,0,219,0,1,,,,,
,,859863,001,2023-07-24_13h07.42.906,arm3_eps,2022.2.5,Win32,60.07449237,61564e378e974bdbe42763a2,64aea9d0f615b6559c281482,64becb72098aedfe0a2a3679,down,1,0.3,0.1786,10,0,1.4146,,,,,,220,0,220,0,1,,,,,
,,859863,001,2023-07-24_13h07.42.906,arm3_eps,2022.2.5,Win32,60.07449237,61564e378e974bdbe42763a2,64aea9d0f615b6559c281482,64becb72098aedfe0a2a3679,up,1,0.3,0.1786,10,0,1.2823,,,,,,221,0,221,0,1,,,,,
,,859863,001,2023-07-24_13h07.42.906,arm3_eps,2022.2.5,Win32,60.07449237,61564e378e974bdbe42763a2,64aea9d0f615b6559c281482,64becb72098aedfe0a2a3679,right,1,0.3,0.1786,10,0.002009699,1.047,,,,,,222,0,222,0,1,,,,,
,,859863,001,2023-07-24_13h07.42.906,arm3_eps,2022.2.5,Win32,60.07449237,61564e378e974bdbe42763a2,64aea9d0f615b6559c281482,64becb72098aedfe0a2a3679,right,1,0.3,0.1786,10,0.021212068,0.2475,,,,,,223,0,223,0,1,,,,,
,,859863,001,2023-07-24_13h07.42.906,arm3_eps,2022.2.5,Win32,60.07449237,61564e378e974bdbe42763a2,64aea9d0f615b6559c281482,64becb72098aedfe0a2a3679,right,1,0.3,0.1786,10,0.046835488,0.2349,,,,,,224,0,224,0,1,,,,,
,,859863,001,2023-07-24_13h07.42.906,arm3_eps,2022.2.5,Win32,60.07449237,61564e378e974bdbe42763a2,64aea9d0f615b6559c281482,64becb72098aedfe0a2a3679,right,1,0.3,0.1786,10,0.038242902,0.5981,,,,,,225,0,225,0,1,,,,,
,,859863,001,2023-07-24_13h07.42.906,arm3_eps,2022.2.5,Win32,60.07449237,61564e378e974bdbe42763a2,64aea9d0f615b6559c281482,64becb72098aedfe0a2a3679,up,1,0.3,0.1786,10,0,1.6668,,,,,,226,0,226,0,1,,,,,
,,859863,001,2023-07-24_13h07.42.906,arm3_eps,2022.2.5,Win32,60.07449237,61564e378e974bdbe42763a2,64aea9d0f615b6559c281482,64becb72098aedfe0a2a3679,right,1,0.3,0.1786,10,0.028257558,1.0157,,,,,,227,0,227,0,1,,,,,
,,859863,001,2023-07-24_13h07.42.906,arm3_eps,2022.2.5,Win32,60.07449237,61564e378e974bdbe42763a2,64aea9d0f615b6559c281482,64becb72098aedfe0a2a3679,up,1,0.3,0.1786,10,0,0.4621,,,,,,228,0,228,0,1,,,,,
,,859863,001,2023-07-24_13h07.42.906,arm3_eps,2022.2.5,Win32,60.07449237,61564e378e974bdbe42763a2,64aea9d0f615b6559c281482,64becb72098aedfe0a2a3679,right,1,0.3,0.1786,10,-0.00936643,0.9487,,,,,,229,0,229,0,1,,,,,
,,859863,001,2023-07-24_13h07.42.906,arm3_eps,2022.2.5,Win32,60.07449237,61564e378e974bdbe42763a2,64aea9d0f615b6559c281482,64becb72098aedfe0a2a3679,up,1,0.3,0.1786,11,0,1.4339,,,,,,230,0,230,0,1,,,,,
,,859863,001,2023-07-24_13h07.42.906,arm3_eps,2022.2.5,Win32,60.07449237,61564e378e974bdbe42763a2,64aea9d0f615b6559c281482,64becb72098aedfe0a2a3679,right,1,0.3,0.1786,11,0.002083031,1.0624,,,,,,231,0,231,0,1,,,,,
,,859863,001,2023-07-24_13h07.42.906,arm3_eps,2022.2.5,Win32,60.07449237,61564e378e974bdbe42763a2,64aea9d0f615b6559c281482,64becb72098aedfe0a2a3679,down,1,0.3,0.1786,11,0,0.7476,,,,,,232,0,232,0,1,,,,,
,,859863,001,2023-07-24_13h07.42.906,arm3_eps,2022.2.5,Win32,60.07449237,61564e378e974bdbe42763a2,64aea9d0f615b6559c281482,64becb72098aedfe0a2a3679,right,1,0.3,0.1786,11,0.008697299,0.9124,,,,,,233,0,233,0,1,,,,,
,,859863,001,2023-07-24_13h07.42.906,arm3_eps,2022.2.5,Win32,60.07449237,61564e378e974bdbe42763a2,64aea9d0f615b6559c281482,64becb72098aedfe0a2a3679,right,1,0.3,0.1786,11,0.039229024,0.3658,,,,,,234,0,234,0,1,,,,,
,,859863,001,2023-07-24_13h07.42.906,arm3_eps,2022.2.5,Win32,60.07449237,61564e378e974bdbe42763a2,64aea9d0f615b6559c281482,64becb72098aedfe0a2a3679,up,1,0.3,0.1786,11,0,0.8167,,,,,,235,0,235,0,1,,,,,
,,859863,001,2023-07-24_13h07.42.906,arm3_eps,2022.2.5,Win32,60.07449237,61564e378e974bdbe42763a2,64aea9d0f615b6559c281482,64becb72098aedfe0a2a3679,right,1,0.3,0.1786,11,0.004429235,0.8123,,,,,,236,0,236,0,1,,,,,
,,859863,001,2023-07-24_13h07.42.906,arm3_eps,2022.2.5,Win32,60.07449237,61564e378e974bdbe42763a2,64aea9d0f615b6559c281482,64becb72098aedfe0a2a3679,right,1,0.3,0.1786,11,0.016168782,0.3994,,,,,,237,0,237,0,1,,,,,
,,859863,001,2023-07-24_13h07.42.906,arm3_eps,2022.2.5,Win32,60.07449237,61564e378e974bdbe42763a2,64aea9d0f615b6559c281482,64becb72098aedfe0a2a3679,up,1,0.3,0.1786,11,0,0.8019,,,,,,238,0,238,0,1,,,,,
,,859863,001,2023-07-24_13h07.42.906,arm3_eps,2022.2.5,Win32,60.07449237,61564e378e974bdbe42763a2,64aea9d0f615b6559c281482,64becb72098aedfe0a2a3679,right,1,0.3,0.1786,11,-0.001101722,0.7969,,,,,,239,0,239,0,1,,,,,
,,859863,001,2023-07-24_13h07.42.906,arm3_eps,2022.2.5,Win32,60.07449237,61564e378e974bdbe42763a2,64aea9d0f615b6559c281482,64becb72098aedfe0a2a3679,down,1,0.3,0.1786,11,0,0.9825,,,,,,240,0,240,0,1,,,,,
,,859863,001,2023-07-24_13h07.42.906,arm3_eps,2022.2.5,Win32,60.07449237,61564e378e974bdbe42763a2,64aea9d0f615b6559c281482,64becb72098aedfe0a2a3679,right,1,0.3,0.1786,11,0.006993157,0.7315,,,,,,241,0,241,0,1,,,,,
,,859863,001,2023-07-24_13h07.42.906,arm3_eps,2022.2.5,Win32,60.07449237,61564e378e974bdbe42763a2,64aea9d0f615b6559c281482,64becb72098aedfe0a2a3679,right,1,0.3,0.1786,11,0.029295678,0.4861,,,,,,242,0,242,0,1,,,,,
,,859863,001,2023-07-24_13h07.42.906,arm3_eps,2022.2.5,Win32,60.07449237,61564e378e974bdbe42763a2,64aea9d0f615b6559c281482,64becb72098aedfe0a2a3679,up,1,0.3,0.1786,11,0,0.9156,,,,,,243,0,243,0,1,,,,,
,,859863,001,2023-07-24_13h07.42.906,arm3_eps,2022.2.5,Win32,60.07449237,61564e378e974bdbe42763a2,64aea9d0f615b6559c281482,64becb72098aedfe0a2a3679,right,1,0.3,0.1786,11,0.023440899,0.915,,,,,,244,0,244,0,1,,,,,
,,859863,001,2023-07-24_13h07.42.906,arm3_eps,2022.2.5,Win32,60.07449237,61564e378e974bdbe42763a2,64aea9d0f615b6559c281482,64becb72098aedfe0a2a3679,right,1,0.3,0.1786,11,0.029505622,0.4153,,,,,,245,0,245,0,1,,,,,
,,859863,001,2023-07-24_13h07.42.906,arm3_eps,2022.2.5,Win32,60.07449237,61564e378e974bdbe42763a2,64aea9d0f615b6559c281482,64becb72098aedfe0a2a3679,right,1,0.3,0.1786,11,0.02394679,0.3475,,,,,,246,0,246,0,1,,,,,
,,859863,001,2023-07-24_13h07.42.906,arm3_eps,2022.2.5,Win32,60.07449237,61564e378e974bdbe42763a2,64aea9d0f615b6559c281482,64becb72098aedfe0a2a3679,up,1,0.3,0.1786,11,0,1.4677,,,,,,247,0,247,0,1,,,,,
,,859863,001,2023-07-24_13h07.42.906,arm3_eps,2022.2.5,Win32,60.07449237,61564e378e974bdbe42763a2,64aea9d0f615b6559c281482,64becb72098aedfe0a2a3679,up,1,0.3,0.1786,11,0,1.4799,,,,,,248,0,248,0,1,,,,,
,,859863,001,2023-07-24_13h07.42.906,arm3_eps,2022.2.5,Win32,60.07449237,61564e378e974bdbe42763a2,64aea9d0f615b6559c281482,64becb72098aedfe0a2a3679,right,1,0.3,0.1786,11,0.032801813,1.5325,,,,,,249,0,249,0,1,,,,,
,,859863,001,2023-07-24_13h07.42.906,arm3_eps,2022.2.5,Win32,60.07449237,61564e378e974bdbe42763a2,64aea9d0f615b6559c281482,64becb72098aedfe0a2a3679,up,-1,0.3,0.1786,11,0,0.5992,,,,,,250,0,250,0,1,,,,,
,,859863,001,2023-07-24_13h07.42.906,arm3_eps,2022.2.5,Win32,60.07449237,61564e378e974bdbe42763a2,64aea9d0f615b6559c281482,64becb72098aedfe0a2a3679,right,-1,0.3,0.1786,11,-0.009789674,0.8312,,,,,,251,0,251,0,1,,,,,
,,859863,001,2023-07-24_13h07.42.906,arm3_eps,2022.2.5,Win32,60.07449237,61564e378e974bdbe42763a2,64aea9d0f615b6559c281482,64becb72098aedfe0a2a3679,right,-1,0.3,0.1786,11,-0.002958572,1.6544,,,,,,252,0,252,0,1,,,,,
,,859863,001,2023-07-24_13h07.42.906,arm3_eps,2022.2.5,Win32,60.07449237,61564e378e974bdbe42763a2,64aea9d0f615b6559c281482,64becb72098aedfe0a2a3679,up,1,0.3,0.1786,11,0,0.4641,,,,,,253,0,253,0,1,,,,,
,,859863,001,2023-07-24_13h07.42.906,arm3_eps,2022.2.5,Win32,60.07449237,61564e378e974bdbe42763a2,64aea9d0f615b6559c281482,64becb72098aedfe0a2a3679,right,1,0.3,0.1786,11,0.008637024,0.9276,,,,,,254,0,254,0,1,,,,,
,,859863,001,2023-07-24_13h07.42.906,arm3_eps,2022.2.5,Win32,60.07449237,61564e378e974bdbe42763a2,64aea9d0f615b6559c281482,64becb72098aedfe0a2a3679,up,1,0.3,0.1786,11,0,0.6156,,,,,,255,0,255,0,1,,,,,
,,859863,001,2023-07-24_13h07.42.906,arm3_eps,2022.2.5,Win32,60.07449237,61564e378e974bdbe42763a2,64aea9d0f615b6559c281482,64becb72098aedfe0a2a3679,right,1,0.3,0.1786,11,0.010708271,1.5334,,,,,,256,0,256,0,1,,,,,
,,859863,001,2023-07-24_13h07.42.906,arm3_eps,2022.2.5,Win32,60.07449237,61564e378e974bdbe42763a2,64aea9d0f615b6559c281482,64becb72098aedfe0a2a3679,up,1,0.3,0.1786,11,0,1.0804,,,,,,257,0,257,0,1,,,,,
,,859863,001,2023-07-24_13h07.42.906,arm3_eps,2022.2.5,Win32,60.07449237,61564e378e974bdbe42763a2,64aea9d0f615b6559c281482,64becb72098aedfe0a2a3679,up,-1,0.3,0.1786,11,0,4.5174,,,,,,258,0,258,0,1,,,,,
,,859863,001,2023-07-24_13h07.42.906,arm3_eps,2022.2.5,Win32,60.07449237,61564e378e974bdbe42763a2,64aea9d0f615b6559c281482,64becb72098aedfe0a2a3679,right,-1,0.3,0.1786,11,0.001236625,2.0015,,,,,,259,0,259,0,1,,,,,
,,859863,001,2023-07-24_13h07.42.906,arm3_eps,2022.2.5,Win32,60.07449237,61564e378e974bdbe42763a2,64aea9d0f615b6559c281482,64becb72098aedfe0a2a3679,down,-1,0.3,0.1786,11,0,1.4193,,,,,,260,0,260,0,1,,,,,
,,859863,001,2023-07-24_13h07.42.906,arm3_eps,2022.2.5,Win32,60.07449237,61564e378e974bdbe42763a2,64aea9d0f615b6559c281482,64becb72098aedfe0a2a3679,up,-1,0.3,0.1786,11,0,1.934,,,,,,261,0,261,0,1,,,,,
,,859863,001,2023-07-24_13h07.42.906,arm3_eps,2022.2.5,Win32,60.07449237,61564e378e974bdbe42763a2,64aea9d0f615b6559c281482,64becb72098aedfe0a2a3679,up,-1,0.3,0.1786,11,0,1.066,,,,,,262,0,262,0,1,,,,,
,,859863,001,2023-07-24_13h07.42.906,arm3_eps,2022.2.5,Win32,60.07449237,61564e378e974bdbe42763a2,64aea9d0f615b6559c281482,64becb72098aedfe0a2a3679,right,-1,0.3,0.1786,11,0.005512287,1.416,,,,,,263,0,263,0,1,,,,,
,,859863,001,2023-07-24_13h07.42.906,arm3_eps,2022.2.5,Win32,60.07449237,61564e378e974bdbe42763a2,64aea9d0f615b6559c281482,64becb72098aedfe0a2a3679,right,-1,0.3,0.1786,11,-0.015451215,0.2845,,,,,,264,0,264,0,1,,,,,
,,859863,001,2023-07-24_13h07.42.906,arm3_eps,2022.2.5,Win32,60.07449237,61564e378e974bdbe42763a2,64aea9d0f615b6559c281482,64becb72098aedfe0a2a3679,down,-1,0.3,0.1786,11,0,0.9015,,,,,,265,0,265,0,1,,,,,
,,859863,001,2023-07-24_13h07.42.906,arm3_eps,2022.2.5,Win32,60.07449237,61564e378e974bdbe42763a2,64aea9d0f615b6559c281482,64becb72098aedfe0a2a3679,down,-1,0.3,0.1786,11,0,1.4498,,,,,,266,0,266,0,1,,,,,
,,859863,001,2023-07-24_13h07.42.906,arm3_eps,2022.2.5,Win32,60.07449237,61564e378e974bdbe42763a2,64aea9d0f615b6559c281482,64becb72098aedfe0a2a3679,right,-1,0.3,0.1786,11,-0.01186861,1.5499,,,,,,267,0,267,0,1,,,,,
,,859863,001,2023-07-24_13h07.42.906,arm3_eps,2022.2.5,Win32,60.07449237,61564e378e974bdbe42763a2,64aea9d0f615b6559c281482,64becb72098aedfe0a2a3679,up,-1,0.3,0.1786,11,0,0.6043,,,,,,268,0,268,0,1,,,,,
,,859863,001,2023-07-24_13h07.42.906,arm3_eps,2022.2.5,Win32,60.07449237,61564e378e974bdbe42763a2,64aea9d0f615b6559c281482,64becb72098aedfe0a2a3679,up,-1,0.3,0.1786,10,0,1.2301,,,,,,269,0,269,0,1,,,,,
,,859863,001,2023-07-24_13h07.42.906,arm3_eps,2022.2.5,Win32,60.07449237,61564e378e974bdbe42763a2,64aea9d0f615b6559c281482,64becb72098aedfe0a2a3679,right,-1,0.3,0.1786,10,0.000265426,3.196,,,,,,270,0,270,0,1,,,,,
,,859863,001,2023-07-24_13h07.42.906,arm3_eps,2022.2.5,Win32,60.07449237,61564e378e974bdbe42763a2,64aea9d0f615b6559c281482,64becb72098aedfe0a2a3679,down,1,0.3,0.1786,10,0,1.2508,,,,,,271,0,271,0,1,,,,,
,,859863,001,2023-07-24_13h07.42.906,arm3_eps,2022.2.5,Win32,60.07449237,61564e378e974bdbe42763a2,64aea9d0f615b6559c281482,64becb72098aedfe0a2a3679,right,1,0.3,0.1786,10,0.011120959,1.4755,,,,,,272,0,272,0,1,,,,,
,,859863,001,2023-07-24_13h07.42.906,arm3_eps,2022.2.5,Win32,60.07449237,61564e378e974bdbe42763a2,64aea9d0f615b6559c281482,64becb72098aedfe0a2a3679,up,1,0.3,0.1786,10,0,0.419,,,,,,273,0,273,0,1,,,,,
,,859863,001,2023-07-24_13h07.42.906,arm3_eps,2022.2.5,Win32,60.07449237,61564e378e974bdbe42763a2,64aea9d0f615b6559c281482,64becb72098aedfe0a2a3679,right,1,0.3,0.1786,10,-0.000621638,0.9952,,,,,,274,0,274,0,1,,,,,
,,859863,001,2023-07-24_13h07.42.906,arm3_eps,2022.2.5,Win32,60.07449237,61564e378e974bdbe42763a2,64aea9d0f615b6559c281482,64becb72098aedfe0a2a3679,up,-1,0.3,0.1786,10,0,0.5822,,,,,,275,0,275,0,1,,,,,
,,859863,001,2023-07-24_13h07.42.906,arm3_eps,2022.2.5,Win32,60.07449237,61564e378e974bdbe42763a2,64aea9d0f615b6559c281482,64becb72098aedfe0a2a3679,down,-1,0.3,0.1786,10,0,1.2811,,,,,,276,0,276,0,1,,,,,
,,859863,001,2023-07-24_13h07.42.906,arm3_eps,2022.2.5,Win32,60.07449237,61564e378e974bdbe42763a2,64aea9d0f615b6559c281482,64becb72098aedfe0a2a3679,down,-1,0.3,0.1786,11,0,1.6634,,,,,,277,0,277,0,1,,,,,
,,859863,001,2023-07-24_13h07.42.906,arm3_eps,2022.2.5,Win32,60.07449237,61564e378e974bdbe42763a2,64aea9d0f615b6559c281482,64becb72098aedfe0a2a3679,right,-1,0.3,0.1786,11,-0.020953343,1.9601,,,,,,278,0,278,0,1,,,,,
,,859863,001,2023-07-24_13h07.42.906,arm3_eps,2022.2.5,Win32,60.07449237,61564e378e974bdbe42763a2,64aea9d0f615b6559c281482,64becb72098aedfe0a2a3679,up,-1,0.3,0.1786,11,0,0.834,,,,,,279,0,279,0,1,,,,,
,,859863,001,2023-07-24_13h07.42.906,arm3_eps,2022.2.5,Win32,60.07449237,61564e378e974bdbe42763a2,64aea9d0f615b6559c281482,64becb72098aedfe0a2a3679,right,-1,0.3,0.1786,11,-0.022974958,1.143,,,,,,280,0,280,0,1,,,,,
,,859863,001,2023-07-24_13h07.42.906,arm3_eps,2022.2.5,Win32,60.07449237,61564e378e974bdbe42763a2,64aea9d0f615b6559c281482,64becb72098aedfe0a2a3679,down,-1,0.3,0.1786,11,0,2.0694,,,,,,281,0,281,0,1,,,,,
,,859863,001,2023-07-24_13h07.42.906,arm3_eps,2022.2.5,Win32,60.07449237,61564e378e974bdbe42763a2,64aea9d0f615b6559c281482,64becb72098aedfe0a2a3679,right,-1,0.3,0.1786,11,0.008092665,1.5174,,,,,,282,0,282,0,1,,,,,
,,859863,001,2023-07-24_13h07.42.906,arm3_eps,2022.2.5,Win32,60.07449237,61564e378e974bdbe42763a2,64aea9d0f615b6559c281482,64becb72098aedfe0a2a3679,down,1,0.3,0.1786,11,0,0.8186,,,,,,283,0,283,0,1,,,,,
,,859863,001,2023-07-24_13h07.42.906,arm3_eps,2022.2.5,Win32,60.07449237,61564e378e974bdbe42763a2,64aea9d0f615b6559c281482,64becb72098aedfe0a2a3679,right,1,0.3,0.1786,11,-0.00919415,1.2161,,,,,,284,0,284,0,1,,,,,
,,859863,001,2023-07-24_13h07.42.906,arm3_eps,2022.2.5,Win32,60.07449237,61564e378e974bdbe42763a2,64aea9d0f615b6559c281482,64becb72098aedfe0a2a3679,right,1,0.3,0.1786,11,-0.009827883,0.585,,,,,,285,0,285,0,1,,,,,
,,859863,001,2023-07-24_13h07.42.906,arm3_eps,2022.2.5,Win32,60.07449237,61564e378e974bdbe42763a2,64aea9d0f615b6559c281482,64becb72098aedfe0a2a3679,down,1,0.3,0.1786,11,0,0.8355,,,,,,286,0,286,0,1,,,,,
,,859863,001,2023-07-24_13h07.42.906,arm3_eps,2022.2.5,Win32,60.07449237,61564e378e974bdbe42763a2,64aea9d0f615b6559c281482,64becb72098aedfe0a2a3679,down,1,0.3,0.1786,10,0,1.2647,,,,,,287,0,287,0,1,,,,,
,,859863,001,2023-07-24_13h07.42.906,arm3_eps,2022.2.5,Win32,60.07449237,61564e378e974bdbe42763a2,64aea9d0f615b6559c281482,64becb72098aedfe0a2a3679,up,1,0.3,0.1786,10,0,1.2338,,,,,,288,0,288,0,1,,,,,
,,859863,001,2023-07-24_13h07.42.906,arm3_eps,2022.2.5,Win32,60.07449237,61564e378e974bdbe42763a2,64aea9d0f615b6559c281482,64becb72098aedfe0a2a3679,right,1,0.3,0.1786,10,-0.000264804,1.394,,,,,,289,0,289,0,1,,,,,
,,859863,001,2023-07-24_13h07.42.906,arm3_eps,2022.2.5,Win32,60.07449237,61564e378e974bdbe42763a2,64aea9d0f615b6559c281482,64becb72098aedfe0a2a3679,up,-1,0.3,0.1786,10,0,0.4994,,,,,,290,0,290,0,1,,,,,
,,859863,001,2023-07-24_13h07.42.906,arm3_eps,2022.2.5,Win32,60.07449237,61564e378e974bdbe42763a2,64aea9d0f615b6559c281482,64becb72098aedfe0a2a3679,right,-1,0.3,0.1786,10,-0.007105416,1.1824,,,,,,291,0,291,0,1,,,,,
,,859863,001,2023-07-24_13h07.42.906,arm3_eps,2022.2.5,Win32,60.07449237,61564e378e974bdbe42763a2,64aea9d0f615b6559c281482,64becb72098aedfe0a2a3679,down,1,0.3,0.1786,11,0,0.664,,,,,,292,0,292,0,1,,,,,
,,859863,001,2023-07-24_13h07.42.906,arm3_eps,2022.2.5,Win32,60.07449237,61564e378e974bdbe42763a2,64aea9d0f615b6559c281482,64becb72098aedfe0a2a3679,down,1,0.3,0.1786,11,0,1.83,,,,,,293,0,293,0,1,,,,,
,,859863,001,2023-07-24_13h07.42.906,arm3_eps,2022.2.5,Win32,60.07449237,61564e378e974bdbe42763a2,64aea9d0f615b6559c281482,64becb72098aedfe0a2a3679,right,1,0.3,0.1786,11,0.013802233,1.4944,,,,,,294,0,294,0,1,,,,,
,,859863,001,2023-07-24_13h07.42.906,arm3_eps,2022.2.5,Win32,60.07449237,61564e378e974bdbe42763a2,64aea9d0f615b6559c281482,64becb72098aedfe0a2a3679,right,1,0.3,0.1786,11,0.002306296,0.6496,,,,,,295,0,295,0,1,,,,,
,,859863,001,2023-07-24_13h07.42.906,arm3_eps,2022.2.5,Win32,60.07449237,61564e378e974bdbe42763a2,64aea9d0f615b6559c281482,64becb72098aedfe0a2a3679,down,1,0.3,0.1786,10,0,0.7506,,,,,,296,0,296,0,1,,,,,
,,859863,001,2023-07-24_13h07.42.906,arm3_eps,2022.2.5,Win32,60.07449237,61564e378e974bdbe42763a2,64aea9d0f615b6559c281482,64becb72098aedfe0a2a3679,right,1,0.3,0.1786,10,-0.003162278,1.5949,,,,,,297,0,297,0,1,,,,,
,,859863,001,2023-07-24_13h07.42.906,arm3_eps,2022.2.5,Win32,60.07449237,61564e378e974bdbe42763a2,64aea9d0f615b6559c281482,64becb72098aedfe0a2a3679,up,1,0.3,0.1786,10,0,0.4845,,,,,,298,0,298,0,1,,,,,
,,859863,001,2023-07-24_13h07.42.906,arm3_eps,2022.2.5,Win32,60.07449237,61564e378e974bdbe42763a2,64aea9d0f615b6559c281482,64becb72098aedfe0a2a3679,up,1,0.3,0.1786,10,0,1.0111,,,,,,299,0,299,0,1,,,,,
,,859863,001,2023-07-24_13h07.42.906,arm3_eps,2022.2.5,Win32,60.07449237,61564e378e974bdbe42763a2,64aea9d0f615b6559c281482,64becb72098aedfe0a2a3679,down,1,0.3,0.1786,9,0,1.1588,,,,,,300,0,300,0,1,,,,,
,,859863,001,2023-07-24_13h07.42.906,arm3_eps,2022.2.5,Win32,60.07449237,61564e378e974bdbe42763a2,64aea9d0f615b6559c281482,64becb72098aedfe0a2a3679,up,-1,0.3,0.1786,10,0,1.009,,,,,,301,0,301,0,1,,,,,
,,859863,001,2023-07-24_13h07.42.906,arm3_eps,2022.2.5,Win32,60.07449237,61564e378e974bdbe42763a2,64aea9d0f615b6559c281482,64becb72098aedfe0a2a3679,right,-1,0.3,0.1786,10,-0.001244233,1.7968,,,,,,302,0,302,0,1,,,,,
,,859863,001,2023-07-24_13h07.42.906,arm3_eps,2022.2.5,Win32,60.07449237,61564e378e974bdbe42763a2,64aea9d0f615b6559c281482,64becb72098aedfe0a2a3679,right,-1,0.3,0.1786,10,0.007007953,0.4992,,,,,,303,0,303,0,1,,,,,
,,859863,001,2023-07-24_13h07.42.906,arm3_eps,2022.2.5,Win32,60.07449237,61564e378e974bdbe42763a2,64aea9d0f615b6559c281482,64becb72098aedfe0a2a3679,up,1,0.3,0.1786,9,0,1.5337,,,,,,304,0,304,0,1,,,,,
,,859863,001,2023-07-24_13h07.42.906,arm3_eps,2022.2.5,Win32,60.07449237,61564e378e974bdbe42763a2,64aea9d0f615b6559c281482,64becb72098aedfe0a2a3679,down,1,0.3,0.1786,9,0,2.2149,,,,,,305,0,305,0,1,,,,,
,,859863,001,2023-07-24_13h07.42.906,arm3_eps,2022.2.5,Win32,60.07449237,61564e378e974bdbe42763a2,64aea9d0f615b6559c281482,64becb72098aedfe0a2a3679,down,-1,0.3,0.1786,8,0,1.3437,,,,,,306,0,306,0,1,,,,,
,,859863,001,2023-07-24_13h07.42.906,arm3_eps,2022.2.5,Win32,60.07449237,61564e378e974bdbe42763a2,64aea9d0f615b6559c281482,64becb72098aedfe0a2a3679,down,-1,0.3,0.1786,8,0,1.1575,,,,,,307,0,307,0,1,,,,,
,,859863,001,2023-07-24_13h07.42.906,arm3_eps,2022.2.5,Win32,60.07449237,61564e378e974bdbe42763a2,64aea9d0f615b6559c281482,64becb72098aedfe0a2a3679,down,-1,0.3,0.1786,9,0,1.0297,,,,,,308,0,308,0,1,,,,,
,,859863,001,2023-07-24_13h07.42.906,arm3_eps,2022.2.5,Win32,60.07449237,61564e378e974bdbe42763a2,64aea9d0f615b6559c281482,64becb72098aedfe0a2a3679,right,-1,0.3,0.1786,9,0.000760538,1.6448,,,,,,309,0,309,0,1,,,,,
,,859863,001,2023-07-24_13h07.42.906,arm3_eps,2022.2.5,Win32,60.07449237,61564e378e974bdbe42763a2,64aea9d0f615b6559c281482,64becb72098aedfe0a2a3679,right,-1,0.3,0.1786,9,-0.017231134,0.265,,,,,,310,0,310,0,1,,,,,
,,859863,001,2023-07-24_13h07.42.906,arm3_eps,2022.2.5,Win32,60.07449237,61564e378e974bdbe42763a2,64aea9d0f615b6559c281482,64becb72098aedfe0a2a3679,down,-1,0.3,0.1786,10,0,0.6997,,,,,,311,0,311,0,1,,,,,
,,859863,001,2023-07-24_13h07.42.906,arm3_eps,2022.2.5,Win32,60.07449237,61564e378e974bdbe42763a2,64aea9d0f615b6559c281482,64becb72098aedfe0a2a3679,right,-1,0.3,0.1786,10,-0.023382014,2.5001,,,,,,312,0,312,0,1,,,,,
,,859863,001,2023-07-24_13h07.42.906,arm3_eps,2022.2.5,Win32,60.07449237,61564e378e974bdbe42763a2,64aea9d0f615b6559c281482,64becb72098aedfe0a2a3679,right,-1,0.3,0.1786,10,-0.032216617,0.4883,,,,,,313,0,313,0,1,,,,,
,,859863,001,2023-07-24_13h07.42.906,arm3_eps,2022.2.5,Win32,60.07449237,61564e378e974bdbe42763a2,64aea9d0f615b6559c281482,64becb72098aedfe0a2a3679,up,-1,0.3,0.1786,9,0,0.5973,,,,,,314,0,314,0,1,,,,,
,,859863,001,2023-07-24_13h07.42.906,arm3_eps,2022.2.5,Win32,60.07449237,61564e378e974bdbe42763a2,64aea9d0f615b6559c281482,64becb72098aedfe0a2a3679,down,-1,0.3,0.1786,9,0,1.2445,,,,,,315,0,315,0,1,,,,,
,,859863,001,2023-07-24_13h07.42.906,arm3_eps,2022.2.5,Win32,60.07449237,61564e378e974bdbe42763a2,64aea9d0f615b6559c281482,64becb72098aedfe0a2a3679,up,1,0.3,0.1786,9,0,1.4766,,,,,,316,0,316,0,1,,,,,
,,859863,001,2023-07-24_13h07.42.906,arm3_eps,2022.2.5,Win32,60.07449237,61564e378e974bdbe42763a2,64aea9d0f615b6559c281482,64becb72098aedfe0a2a3679,up,1,0.3,0.1786,9,0,0.9437,,,,,,317,0,317,0,1,,,,,
,,859863,001,2023-07-24_13h07.42.906,arm3_eps,2022.2.5,Win32,60.07449237,61564e378e974bdbe42763a2,64aea9d0f615b6559c281482,64becb72098aedfe0a2a3679,down,1,0.3,0.1786,8,0,1.1459,,,,,,318,0,318,0,1,,,,,
,,859863,001,2023-07-24_13h07.42.906,arm3_eps,2022.2.5,Win32,60.07449237,61564e378e974bdbe42763a2,64aea9d0f615b6559c281482,64becb72098aedfe0a2a3679,up,1,0.3,0.1786,8,0,0.8251,,,,,,319,0,319,0,1,,,,,
,,859863,001,2023-07-24_13h07.42.906,arm3_eps,2022.2.5,Win32,60.07449237,61564e378e974bdbe42763a2,64aea9d0f615b6559c281482,64becb72098aedfe0a2a3679,up,1,0.3,0.1786,8,0,0.7939,,,,,,320,0,320,0,1,,,,,
,,859863,001,2023-07-24_13h07.42.906,arm3_eps,2022.2.5,Win32,60.07449237,61564e378e974bdbe42763a2,64aea9d0f615b6559c281482,64becb72098aedfe0a2a3679,right,1,0.3,0.1786,8,0.045839394,0.9795,,,,,,321,0,321,0,1,,,,,
,,859863,001,2023-07-24_13h07.42.906,arm3_eps,2022.2.5,Win32,60.07449237,61564e378e974bdbe42763a2,64aea9d0f615b6559c281482,64becb72098aedfe0a2a3679,up,1,0.3,0.1786,8,0,0.4491,,,,,,322,0,322,0,1,,,,,
,,859863,001,2023-07-24_13h07.42.906,arm3_eps,2022.2.5,Win32,60.07449237,61564e378e974bdbe42763a2,64aea9d0f615b6559c281482,64becb72098aedfe0a2a3679,right,1,0.3,0.1786,8,0.033244804,0.8485,,,,,,323,0,323,0,1,,,,,
,,859863,001,2023-07-24_13h07.42.906,arm3_eps,2022.2.5,Win32,60.07449237,61564e378e974bdbe42763a2,64aea9d0f615b6559c281482,64becb72098aedfe0a2a3679,up,1,0.3,0.1786,8,0,0.4686,,,,,,324,0,324,0,1,,,,,
,,859863,001,2023-07-24_13h07.42.906,arm3_eps,2022.2.5,Win32,60.07449237,61564e378e974bdbe42763a2,64aea9d0f615b6559c281482,64becb72098aedfe0a2a3679,right,1,0.3,0.1786,8,0.028380722,0.8131,,,,,,325,0,325,0,1,,,,,
,,859863,001,2023-07-24_13h07.42.906,arm3_eps,2022.2.5,Win32,60.07449237,61564e378e974bdbe42763a2,64aea9d0f615b6559c281482,64becb72098aedfe0a2a3679,up,-1,0.3,0.1786,8,0,0.433,,,,,,326,0,326,0,1,,,,,
,,859863,001,2023-07-24_13h07.42.906,arm3_eps,2022.2.5,Win32,60.07449237,61564e378e974bdbe42763a2,64aea9d0f615b6559c281482,64becb72098aedfe0a2a3679,right,-1,0.3,0.1786,8,-0.008418956,1.5316,,,,,,327,0,327,0,1,,,,,
,,859863,001,2023-07-24_13h07.42.906,arm3_eps,2022.2.5,Win32,60.07449237,61564e378e974bdbe42763a2,64aea9d0f615b6559c281482,64becb72098aedfe0a2a3679,down,-1,0.3,0.1786,8,0,0.4657,,,,,,328,0,328,0,1,,,,,
,,859863,001,2023-07-24_13h07.42.906,arm3_eps,2022.2.5,Win32,60.07449237,61564e378e974bdbe42763a2,64aea9d0f615b6559c281482,64becb72098aedfe0a2a3679,right,-1,0.3,0.1786,8,-0.019072516,3.0339,,,,,,329,0,329,0,1,,,,,
,,859863,001,2023-07-24_13h07.42.906,arm3_eps,2022.2.5,Win32,60.07449237,61564e378e974bdbe42763a2,64aea9d0f615b6559c281482,64becb72098aedfe0a2a3679,right,-1,0.3,0.1786,8,-0.025186715,0.3321,,,,,,330,0,330,0,1,,,,,
,,859863,001,2023-07-24_13h07.42.906,arm3_eps,2022.2.5,Win32,60.07449237,61564e378e974bdbe42763a2,64aea9d0f615b6559c281482,64becb72098aedfe0a2a3679,up,-1,0.3,0.1786,7,0,0.5822,,,,,,331,0,331,0,1,,,,,
,,859863,001,2023-07-24_13h07.42.906,arm3_eps,2022.2.5,Win32,60.07449237,61564e378e974bdbe42763a2,64aea9d0f615b6559c281482,64becb72098aedfe0a2a3679,right,-1,0.3,0.1786,7,-0.006754802,1.0115,,,,,,332,0,332,0,1,,,,,
,,859863,001,2023-07-24_13h07.42.906,arm3_eps,2022.2.5,Win32,60.07449237,61564e378e974bdbe42763a2,64aea9d0f615b6559c281482,64becb72098aedfe0a2a3679,right,-1,0.3,0.1786,7,-0.035111591,0.2977,,,,,,333,0,333,0,1,,,,,
,,859863,001,2023-07-24_13h07.42.906,arm3_eps,2022.2.5,Win32,60.07449237,61564e378e974bdbe42763a2,64aea9d0f615b6559c281482,64becb72098aedfe0a2a3679,down,-1,0.3,0.1786,7,0,0.5496,,,,,,334,0,334,0,1,,,,,
,,859863,001,2023-07-24_13h07.42.906,arm3_eps,2022.2.5,Win32,60.07449237,61564e378e974bdbe42763a2,64aea9d0f615b6559c281482,64becb72098aedfe0a2a3679,right,-1,0.3,0.1786,7,0.002609377,1.2599,,,,,,335,0,335,0,1,,,,,
,,859863,001,2023-07-24_13h07.42.906,arm3_eps,2022.2.5,Win32,60.07449237,61564e378e974bdbe42763a2,64aea9d0f615b6559c281482,64becb72098aedfe0a2a3679,down,-1,0.3,0.1786,7,0,0.8963,,,,,,336,0,336,0,1,,,,,
,,859863,001,2023-07-24_13h07.42.906,arm3_eps,2022.2.5,Win32,60.07449237,61564e378e974bdbe42763a2,64aea9d0f615b6559c281482,64becb72098aedfe0a2a3679,right,-1,0.3,0.1786,7,-0.007983633,0.8469,,,,,,337,0,337,0,1,,,,,
,,859863,001,2023-07-24_13h07.42.906,arm3_eps,2022.2.5,Win32,60.07449237,61564e378e974bdbe42763a2,64aea9d0f615b6559c281482,64becb72098aedfe0a2a3679,down,-1,0.3,0.1786,8,0,0.5999,,,,,,338,0,338,0,1,,,,,
,,859863,001,2023-07-24_13h07.42.906,arm3_eps,2022.2.5,Win32,60.07449237,61564e378e974bdbe42763a2,64aea9d0f615b6559c281482,64becb72098aedfe0a2a3679,right,-1,0.3,0.1786,8,0.005345514,1.0119,,,,,,339,0,339,0,1,,,,,
,,859863,001,2023-07-24_13h07.42.906,arm3_eps,2022.2.5,Win32,60.07449237,61564e378e974bdbe42763a2,64aea9d0f615b6559c281482,64becb72098aedfe0a2a3679,down,1,0.3,0.1786,8,0,0.7489,,,,,,340,0,340,0,1,,,,,
,,859863,001,2023-07-24_13h07.42.906,arm3_eps,2022.2.5,Win32,60.07449237,61564e378e974bdbe42763a2,64aea9d0f615b6559c281482,64becb72098aedfe0a2a3679,right,1,0.3,0.1786,8,0.002327711,1.1457,,,,,,341,0,341,0,1,,,,,
,,859863,001,2023-07-24_13h07.42.906,arm3_eps,2022.2.5,Win32,60.07449237,61564e378e974bdbe42763a2,64aea9d0f615b6559c281482,64becb72098aedfe0a2a3679,down,1,0.3,0.1786,8,0,0.9493,,,,,,342,0,342,0,1,,,,,
,,859863,001,2023-07-24_13h07.42.906,arm3_eps,2022.2.5,Win32,60.07449237,61564e378e974bdbe42763a2,64aea9d0f615b6559c281482,64becb72098aedfe0a2a3679,up,1,0.3,0.1786,9,0,1.0819,,,,,,343,0,343,0,1,,,,,
,,859863,001,2023-07-24_13h07.42.906,arm3_eps,2022.2.5,Win32,60.07449237,61564e378e974bdbe42763a2,64aea9d0f615b6559c281482,64becb72098aedfe0a2a3679,up,-1,0.3,0.1786,10,0,1.7609,,,,,,344,0,344,0,1,,,,,
,,859863,001,2023-07-24_13h07.42.906,arm3_eps,2022.2.5,Win32,60.07449237,61564e378e974bdbe42763a2,64aea9d0f615b6559c281482,64becb72098aedfe0a2a3679,right,-1,0.3,0.1786,10,7.48238E-05,1.1287,,,,,,345,0,345,0,1,,,,,
,,859863,001,2023-07-24_13h07.42.906,arm3_eps,2022.2.5,Win32,60.07449237,61564e378e974bdbe42763a2,64aea9d0f615b6559c281482,64becb72098aedfe0a2a3679,up,-1,0.3,0.1786,9,0,0.5659,,,,,,346,0,346,0,1,,,,,
,,859863,001,2023-07-24_13h07.42.906,arm3_eps,2022.2.5,Win32,60.07449237,61564e378e974bdbe42763a2,64aea9d0f615b6559c281482,64becb72098aedfe0a2a3679,right,-1,0.3,0.1786,9,-0.010013438,1.0771,,,,,,347,0,347,0,1,,,,,
,,859863,001,2023-07-24_13h07.42.906,arm3_eps,2022.2.5,Win32,60.07449237,61564e378e974bdbe42763a2,64aea9d0f615b6559c281482,64becb72098aedfe0a2a3679,up,-1,0.3,0.1786,9,0,0.7328,,,,,,348,0,348,0,1,,,,,
,,859863,001,2023-07-24_13h07.42.906,arm3_eps,2022.2.5,Win32,60.07449237,61564e378e974bdbe42763a2,64aea9d0f615b6559c281482,64becb72098aedfe0a2a3679,right,-1,0.3,0.1786,9,0.004713455,1.2608,,,,,,349,0,349,0,1,,,,,
,,859863,001,2023-07-24_13h07.42.906,arm3_eps,2022.2.5,Win32,60.07449237,61564e378e974bdbe42763a2,64aea9d0f615b6559c281482,64becb72098aedfe0a2a3679,right,-1,0.3,0.1786,9,-0.016257366,0.2166,,,,,,350,0,350,0,1,,,,,
,,859863,001,2023-07-24_13h07.42.906,arm3_eps,2022.2.5,Win32,60.07449237,61564e378e974bdbe42763a2,64aea9d0f615b6559c281482,64becb72098aedfe0a2a3679,down,-1,0.3,0.1786,9,0,0.4641,,,,,,351,0,351,0,1,,,,,
,,859863,001,2023-07-24_13h07.42.906,arm3_eps,2022.2.5,Win32,60.07449237,61564e378e974bdbe42763a2,64aea9d0f615b6559c281482,64becb72098aedfe0a2a3679,up,1,0.3,0.1786,8,0,0.9146,,,,,,352,0,352,0,1,,,,,
,,859863,001,2023-07-24_13h07.42.906,arm3_eps,2022.2.5,Win32,60.07449237,61564e378e974bdbe42763a2,64aea9d0f615b6559c281482,64becb72098aedfe0a2a3679,right,1,0.3,0.1786,8,-0.000626318,2.046,,,,,,353,0,353,0,1,,,,,
,,859863,001,2023-07-24_13h07.42.906,arm3_eps,2022.2.5,Win32,60.07449237,61564e378e974bdbe42763a2,64aea9d0f615b6559c281482,64becb72098aedfe0a2a3679,right,1,0.3,0.1786,8,0.005354953,0.4486,,,,,,354,0,354,0,1,,,,,
,,859863,001,2023-07-24_13h07.42.906,arm3_eps,2022.2.5,Win32,60.07449237,61564e378e974bdbe42763a2,64aea9d0f615b6559c281482,64becb72098aedfe0a2a3679,right,1,0.3,0.1786,8,0.018171034,0.5324,,,,,,355,0,355,0,1,,,,,
,,859863,001,2023-07-24_13h07.42.906,arm3_eps,2022.2.5,Win32,60.07449237,61564e378e974bdbe42763a2,64aea9d0f615b6559c281482,64becb72098aedfe0a2a3679,right,1,0.3,0.1786,8,0.038561527,0.3311,,,,,,356,0,356,0,1,,,,,
,,859863,001,2023-07-24_13h07.42.906,arm3_eps,2022.2.5,Win32,60.07449237,61564e378e974bdbe42763a2,64aea9d0f615b6559c281482,64becb72098aedfe0a2a3679,right,1,0.3,0.1786,8,0.060094565,0.1822,,,,,,357,0,357,0,1,,,,,
,,859863,001,2023-07-24_13h07.42.906,arm3_eps,2022.2.5,Win32,60.07449237,61564e378e974bdbe42763a2,64aea9d0f615b6559c281482,64becb72098aedfe0a2a3679,right,1,0.3,0.1786,8,0.029270421,0.1482,,,,,,358,0,358,0,1,,,,,
,,859863,001,2023-07-24_13h07.42.906,arm3_eps,2022.2.5,Win32,60.07449237,61564e378e974bdbe42763a2,64aea9d0f615b6559c281482,64becb72098aedfe0a2a3679,right,1,0.3,0.1786,8,0.04703702,0.0986,,,,,,359,0,359,0,1,,,,,
,,859863,001,2023-07-24_13h07.42.906,arm3_eps,2022.2.5,Win32,60.07449237,61564e378e974bdbe42763a2,64aea9d0f615b6559c281482,64becb72098aedfe0a2a3679,right,1,0.3,0.1786,8,0.064405176,0.1149,,,,,,360,0,360,0,1,,,,,
,,859863,001,2023-07-24_13h07.42.906,arm3_eps,2022.2.5,Win32,60.07449237,61564e378e974bdbe42763a2,64aea9d0f615b6559c281482,64becb72098aedfe0a2a3679,right,1,0.3,0.1786,8,0.064515021,0.1488,,,,,,361,0,361,0,1,,,,,
,,859863,001,2023-07-24_13h07.42.906,arm3_eps,2022.2.5,Win32,60.07449237,61564e378e974bdbe42763a2,64aea9d0f615b6559c281482,64becb72098aedfe0a2a3679,right,1,0.3,0.1786,8,0.056721278,0.2156,,,,,,362,0,362,0,1,,,,,
,,859863,001,2023-07-24_13h07.42.906,arm3_eps,2022.2.5,Win32,60.07449237,61564e378e974bdbe42763a2,64aea9d0f615b6559c281482,64becb72098aedfe0a2a3679,right,1,0.3,0.1786,8,0.055165306,0.8998,,,,,,363,0,363,0,1,,,,,
,,859863,001,2023-07-24_13h07.42.906,arm3_eps,2022.2.5,Win32,60.07449237,61564e378e974bdbe42763a2,64aea9d0f615b6559c281482,64becb72098aedfe0a2a3679,up,1,0.3,0.1786,8,0,0.9831,,,,,,364,0,364,0,1,,,,,
,,859863,001,2023-07-24_13h07.42.906,arm3_eps,2022.2.5,Win32,60.07449237,61564e378e974bdbe42763a2,64aea9d0f615b6559c281482,64becb72098aedfe0a2a3679,right,1,0.3,0.1786,8,0.010223829,1.1115,,,,,,365,0,365,0,1,,,,,
,,859863,001,2023-07-24_13h07.42.906,arm3_eps,2022.2.5,Win32,60.07449237,61564e378e974bdbe42763a2,64aea9d0f615b6559c281482,64becb72098aedfe0a2a3679,right,1,0.3,0.1786,8,0.0201728,0.366,,,,,,366,0,366,0,1,,,,,
,,859863,001,2023-07-24_13h07.42.906,arm3_eps,2022.2.5,Win32,60.07449237,61564e378e974bdbe42763a2,64aea9d0f615b6559c281482,64becb72098aedfe0a2a3679,up,1,0.3,0.1786,9,0,1.0858,,,,,,367,0,367,0,1,,,,,
,,859863,001,2023-07-24_13h07.42.906,arm3_eps,2022.2.5,Win32,60.07449237,61564e378e974bdbe42763a2,64aea9d0f615b6559c281482,64becb72098aedfe0a2a3679,right,1,0.3,0.1786,9,-0.010379632,1.246,,,,,,368,0,368,0,1,,,,,
,,859863,001,2023-07-24_13h07.42.906,arm3_eps,2022.2.5,Win32,60.07449237,61564e378e974bdbe42763a2,64aea9d0f615b6559c281482,64becb72098aedfe0a2a3679,up,1,0.3,0.1786,9,-0.010379632,1.4309,,,,,,369,0,369,0,1,,,,,
,,859863,001,2023-07-24_13h07.42.906,arm3_eps,2022.2.5,Win32,60.07449237,61564e378e974bdbe42763a2,64aea9d0f615b6559c281482,64becb72098aedfe0a2a3679,,,,,,,,,,,,,,,,,,0,0,0,0,1
space,5.5735,859863,001,2023-07-24_13h07.42.906,arm3_eps,2022.2.5,Win32,60.07449237,61564e378e974bdbe42763a2,64aea9d0f615b6559c281482,64becb72098aedfe0a2a3679,right,1,0.3,0.3714,9,0.024796102,4.2387,,,,,,0,0,0,0,1,,,,,
,,859863,001,2023-07-24_13h07.42.906,arm3_eps,2022.2.5,Win32,60.07449237,61564e378e974bdbe42763a2,64aea9d0f615b6559c281482,64becb72098aedfe0a2a3679,right,1,0.3,0.3714,9,0.021395653,0.8931,,,,,,1,0,1,0,1,,,,,
,,859863,001,2023-07-24_13h07.42.906,arm3_eps,2022.2.5,Win32,60.07449237,61564e378e974bdbe42763a2,64aea9d0f615b6559c281482,64becb72098aedfe0a2a3679,down,1,0.3,0.3714,9,0,1.8347,,,,,,2,0,2,0,1,,,,,
,,859863,001,2023-07-24_13h07.42.906,arm3_eps,2022.2.5,Win32,60.07449237,61564e378e974bdbe42763a2,64aea9d0f615b6559c281482,64becb72098aedfe0a2a3679,up,1,0.3,0.3714,9,0,1.4313,,,,,,3,0,3,0,1,,,,,
,,859863,001,2023-07-24_13h07.42.906,arm3_eps,2022.2.5,Win32,60.07449237,61564e378e974bdbe42763a2,64aea9d0f615b6559c281482,64becb72098aedfe0a2a3679,up,-1,0.3,0.3714,10,0,1.1979,,,,,,4,0,4,0,1,,,,,
,,859863,001,2023-07-24_13h07.42.906,arm3_eps,2022.2.5,Win32,60.07449237,61564e378e974bdbe42763a2,64aea9d0f615b6559c281482,64becb72098aedfe0a2a3679,right,-1,0.3,0.3714,10,-0.004598989,1.7441,,,,,,5,0,5,0,1,,,,,
,,859863,001,2023-07-24_13h07.42.906,arm3_eps,2022.2.5,Win32,60.07449237,61564e378e974bdbe42763a2,64aea9d0f615b6559c281482,64becb72098aedfe0a2a3679,right,-1,0.3,0.3714,10,0.001785248,0.3678,,,,,,6,0,6,0,1,,,,,
,,859863,001,2023-07-24_13h07.42.906,arm3_eps,2022.2.5,Win32,60.07449237,61564e378e974bdbe42763a2,64aea9d0f615b6559c281482,64becb72098aedfe0a2a3679,down,1,0.3,0.3714,10,0,0.5977,,,,,,7,0,7,0,1,,,,,
,,859863,001,2023-07-24_13h07.42.906,arm3_eps,2022.2.5,Win32,60.07449237,61564e378e974bdbe42763a2,64aea9d0f615b6559c281482,64becb72098aedfe0a2a3679,right,1,0.3,0.3714,10,0.01699006,1.8621,,,,,,8,0,8,0,1,,,,,
,,859863,001,2023-07-24_13h07.42.906,arm3_eps,2022.2.5,Win32,60.07449237,61564e378e974bdbe42763a2,64aea9d0f615b6559c281482,64becb72098aedfe0a2a3679,right,1,0.3,0.3714,10,0.017437315,1.1336,,,,,,9,0,9,0,1,,,,,
,,859863,001,2023-07-24_13h07.42.906,arm3_eps,2022.2.5,Win32,60.07449237,61564e378e974bdbe42763a2,64aea9d0f615b6559c281482,64becb72098aedfe0a2a3679,up,-1,0.3,0.3714,11,0,0.666,,,,,,10,0,10,0,1,,,,,
,,859863,001,2023-07-24_13h07.42.906,arm3_eps,2022.2.5,Win32,60.07449237,61564e378e974bdbe42763a2,64aea9d0f615b6559c281482,64becb72098aedfe0a2a3679,right,-1,0.3,0.3714,11,0.037648523,1.1427,,,,,,11,0,11,0,1,,,,,
,,859863,001,2023-07-24_13h07.42.906,arm3_eps,2022.2.5,Win32,60.07449237,61564e378e974bdbe42763a2,64aea9d0f615b6559c281482,64becb72098aedfe0a2a3679,down,1,0.3,0.3714,11,0,2.3342,,,,,,12,0,12,0,1,,,,,
,,859863,001,2023-07-24_13h07.42.906,arm3_eps,2022.2.5,Win32,60.07449237,61564e378e974bdbe42763a2,64aea9d0f615b6559c281482,64becb72098aedfe0a2a3679,right,1,0.3,0.3714,11,0.032895102,1.3665,,,,,,13,0,13,0,1,,,,,
,,859863,001,2023-07-24_13h07.42.906,arm3_eps,2022.2.5,Win32,60.07449237,61564e378e974bdbe42763a2,64aea9d0f615b6559c281482,64becb72098aedfe0a2a3679,right,1,0.3,0.3714,11,0.02137047,1.85,,,,,,14,0,14,0,1,,,,,
,,859863,001,2023-07-24_13h07.42.906,arm3_eps,2022.2.5,Win32,60.07449237,61564e378e974bdbe42763a2,64aea9d0f615b6559c281482,64becb72098aedfe0a2a3679,up,1,0.3,0.3714,12,0,0.8494,,,,,,15,0,15,0,1,,,,,
,,859863,001,2023-07-24_13h07.42.906,arm3_eps,2022.2.5,Win32,60.07449237,61564e378e974bdbe42763a2,64aea9d0f615b6559c281482,64becb72098aedfe0a2a3679,down,1,0.3,0.3714,12,0,1.646,,,,,,16,0,16,0,1,,,,,
,,859863,001,2023-07-24_13h07.42.906,arm3_eps,2022.2.5,Win32,60.07449237,61564e378e974bdbe42763a2,64aea9d0f615b6559c281482,64becb72098aedfe0a2a3679,right,1,0.3,0.3714,12,0.000858339,1.9525,,,,,,17,0,17,0,1,,,,,
,,859863,001,2023-07-24_13h07.42.906,arm3_eps,2022.2.5,Win32,60.07449237,61564e378e974bdbe42763a2,64aea9d0f615b6559c281482,64becb72098aedfe0a2a3679,right,1,0.3,0.3714,12,-0.022203051,1.2468,,,,,,18,0,18,0,1,,,,,
,,859863,001,2023-07-24_13h07.42.906,arm3_eps,2022.2.5,Win32,60.07449237,61564e378e974bdbe42763a2,64aea9d0f615b6559c281482,64becb72098aedfe0a2a3679,up,1,0.3,0.3714,12,0,0.6142,,,,,,19,0,19,0,1,,,,,
,,859863,001,2023-07-24_13h07.42.906,arm3_eps,2022.2.5,Win32,60.07449237,61564e378e974bdbe42763a2,64aea9d0f615b6559c281482,64becb72098aedfe0a2a3679,right,1,0.3,0.3714,12,0.001689997,0.9314,,,,,,20,0,20,0,1,,,,,
,,859863,001,2023-07-24_13h07.42.906,arm3_eps,2022.2.5,Win32,60.07449237,61564e378e974bdbe42763a2,64aea9d0f615b6559c281482,64becb72098aedfe0a2a3679,right,1,0.3,0.3714,12,0.009499513,1.4666,,,,,,21,0,21,0,1,,,,,
,,859863,001,2023-07-24_13h07.42.906,arm3_eps,2022.2.5,Win32,60.07449237,61564e378e974bdbe42763a2,64aea9d0f615b6559c281482,64becb72098aedfe0a2a3679,up,1,0.3,0.3714,12,0,5.2732,,,,,,22,0,22,0,1,,,,,
,,859863,001,2023-07-24_13h07.42.906,arm3_eps,2022.2.5,Win32,60.07449237,61564e378e974bdbe42763a2,64aea9d0f615b6559c281482,64becb72098aedfe0a2a3679,right,1,0.3,0.3714,12,0.008374428,1.1166,,,,,,23,0,23,0,1,,,,,
,,859863,001,2023-07-24_13h07.42.906,arm3_eps,2022.2.5,Win32,60.07449237,61564e378e974bdbe42763a2,64aea9d0f615b6559c281482,64becb72098aedfe0a2a3679,up,1,0.3,0.3714,12,0,0.9019,,,,,,24,0,24,0,1,,,,,
,,859863,001,2023-07-24_13h07.42.906,arm3_eps,2022.2.5,Win32,60.07449237,61564e378e974bdbe42763a2,64aea9d0f615b6559c281482,64becb72098aedfe0a2a3679,down,1,0.3,0.3714,12,0,1.2331,,,,,,25,0,25,0,1,,,,,
,,859863,001,2023-07-24_13h07.42.906,arm3_eps,2022.2.5,Win32,60.07449237,61564e378e974bdbe42763a2,64aea9d0f615b6559c281482,64becb72098aedfe0a2a3679,down,-1,0.3,0.3714,12,0,1.232,,,,,,26,0,26,0,1,,,,,
,,859863,001,2023-07-24_13h07.42.906,arm3_eps,2022.2.5,Win32,60.07449237,61564e378e974bdbe42763a2,64aea9d0f615b6559c281482,64becb72098aedfe0a2a3679,right,-1,0.3,0.3714,12,0.005584682,1.349,,,,,,27,0,27,0,1,,,,,
,,859863,001,2023-07-24_13h07.42.906,arm3_eps,2022.2.5,Win32,60.07449237,61564e378e974bdbe42763a2,64aea9d0f615b6559c281482,64becb72098aedfe0a2a3679,right,-1,0.3,0.3714,12,-0.014324212,0.4669,,,,,,28,0,28,0,1,,,,,
,,859863,001,2023-07-24_13h07.42.906,arm3_eps,2022.2.5,Win32,60.07449237,61564e378e974bdbe42763a2,64aea9d0f615b6559c281482,64becb72098aedfe0a2a3679,down,1,0.3,0.3714,13,0,0.6146,,,,,,29,0,29,0,1,,,,,
,,859863,001,2023-07-24_13h07.42.906,arm3_eps,2022.2.5,Win32,60.07449237,61564e378e974bdbe42763a2,64aea9d0f615b6559c281482,64becb72098aedfe0a2a3679,right,1,0.3,0.3714,13,-0.002818064,0.943,,,,,,30,0,30,0,1,,,,,
,,859863,001,2023-07-24_13h07.42.906,arm3_eps,2022.2.5,Win32,60.07449237,61564e378e974bdbe42763a2,64aea9d0f615b6559c281482,64becb72098aedfe0a2a3679,right,1,0.3,0.3714,13,0.033171353,0.7326,,,,,,31,0,31,0,1,,,,,
,,859863,001,2023-07-24_13h07.42.906,arm3_eps,2022.2.5,Win32,60.07449237,61564e378e974bdbe42763a2,64aea9d0f615b6559c281482,64becb72098aedfe0a2a3679,down,1,0.3,0.3714,13,0,0.7496,,,,,,32,0,32,0,1,,,,,
,,859863,001,2023-07-24_13h07.42.906,arm3_eps,2022.2.5,Win32,60.07449237,61564e378e974bdbe42763a2,64aea9d0f615b6559c281482,64becb72098aedfe0a2a3679,right,1,0.3,0.3714,13,-0.000305914,1.2097,,,,,,33,0,33,0,1,,,,,
,,859863,001,2023-07-24_13h07.42.906,arm3_eps,2022.2.5,Win32,60.07449237,61564e378e974bdbe42763a2,64aea9d0f615b6559c281482,64becb72098aedfe0a2a3679,right,1,0.3,0.3714,13,0.02110154,0.7822,,,,,,34,0,34,0,1,,,,,
,,859863,001,2023-07-24_13h07.42.906,arm3_eps,2022.2.5,Win32,60.07449237,61564e378e974bdbe42763a2,64aea9d0f615b6559c281482,64becb72098aedfe0a2a3679,up,1,0.3,0.3714,13,0,0.6491,,,,,,35,0,35,0,1,,,,,
,,859863,001,2023-07-24_13h07.42.906,arm3_eps,2022.2.5,Win32,60.07449237,61564e378e974bdbe42763a2,64aea9d0f615b6559c281482,64becb72098aedfe0a2a3679,right,1,0.3,0.3714,13,0.017313165,0.8939,,,,,,36,0,36,0,1,,,,,
,,859863,001,2023-07-24_13h07.42.906,arm3_eps,2022.2.5,Win32,60.07449237,61564e378e974bdbe42763a2,64aea9d0f615b6559c281482,64becb72098aedfe0a2a3679,right,1,0.3,0.3714,13,0.019394293,0.6823,,,,,,37,0,37,0,1,,,,,
,,859863,001,2023-07-24_13h07.42.906,arm3_eps,2022.2.5,Win32,60.07449237,61564e378e974bdbe42763a2,64aea9d0f615b6559c281482,64becb72098aedfe0a2a3679,up,1,0.3,0.3714,13,0,0.7483,,,,,,38,0,38,0,1,,,,,
,,859863,001,2023-07-24_13h07.42.906,arm3_eps,2022.2.5,Win32,60.07449237,61564e378e974bdbe42763a2,64aea9d0f615b6559c281482,64becb72098aedfe0a2a3679,right,1,0.3,0.3714,13,-0.008128858,0.8145,,,,,,39,0,39,0,1,,,,,
,,859863,001,2023-07-24_13h07.42.906,arm3_eps,2022.2.5,Win32,60.07449237,61564e378e974bdbe42763a2,64aea9d0f615b6559c281482,64becb72098aedfe0a2a3679,down,-1,0.3,0.3714,12,0,1.77,,,,,,40,0,40,0,1,,,,,
,,859863,001,2023-07-24_13h07.42.906,arm3_eps,2022.2.5,Win32,60.07449237,61564e378e974bdbe42763a2,64aea9d0f615b6559c281482,64becb72098aedfe0a2a3679,right,-1,0.3,0.3714,12,-0.004647923,1.1431,,,,,,41,0,41,0,1,,,,,
,,859863,001,2023-07-24_13h07.42.906,arm3_eps,2022.2.5,Win32,60.07449237,61564e378e974bdbe42763a2,64aea9d0f615b6559c281482,64becb72098aedfe0a2a3679,right,-1,0.3,0.3714,12,-0.033235513,0.8902,,,,,,42,0,42,0,1,,,,,
,,859863,001,2023-07-24_13h07.42.906,arm3_eps,2022.2.5,Win32,60.07449237,61564e378e974bdbe42763a2,64aea9d0f615b6559c281482,64becb72098aedfe0a2a3679,up,-1,0.3,0.3714,11,0,0.6103,,,,,,43,0,43,0,1,,,,,
,,859863,001,2023-07-24_13h07.42.906,arm3_eps,2022.2.5,Win32,60.07449237,61564e378e974bdbe42763a2,64aea9d0f615b6559c281482,64becb72098aedfe0a2a3679,right,-1,0.3,0.3714,11,-0.016540117,1.4473,,,,,,44,0,44,0,1,,,,,
,,859863,001,2023-07-24_13h07.42.906,arm3_eps,2022.2.5,Win32,60.07449237,61564e378e974bdbe42763a2,64aea9d0f615b6559c281482,64becb72098aedfe0a2a3679,right,-1,0.3,0.3714,11,-0.052668305,0.3823,,,,,,45,0,45,0,1,,,,,
,,859863,001,2023-07-24_13h07.42.906,arm3_eps,2022.2.5,Win32,60.07449237,61564e378e974bdbe42763a2,64aea9d0f615b6559c281482,64becb72098aedfe0a2a3679,down,-1,0.3,0.3714,12,0,0.5853,,,,,,46,0,46,0,1,,,,,
,,859863,001,2023-07-24_13h07.42.906,arm3_eps,2022.2.5,Win32,60.07449237,61564e378e974bdbe42763a2,64aea9d0f615b6559c281482,64becb72098aedfe0a2a3679,right,-1,0.3,0.3714,12,0.010027878,1.5896,,,,,,47,0,47,0,1,,,,,
