space_bar.keys,space_bar.rt,participant,session,date,expName,psychopyVersion,OS,frameRate,PROLIFIC_PID,STUDY_ID,SESSION_ID,resp.keys,state,q_prob,eps_prob,score,price,resp.rt,train.thisRepN,train.thisTrialN,train.thisN,train.thisIndex,train.ran,steps.thisRepN,steps.thisTrialN,steps.thisN,steps.thisIndex,steps.ran,blocks.thisRepN,blocks.thisTrialN,blocks.thisN,blocks.thisIndex,blocks.ran
space,23.0813,892871,001,2023-07-24_21h08.44.203,arm3_eps,2022.2.5,Win32,59.99520038,6113cd5e3287b5f60b4c40f8,64aea9d0f615b6559c281482,64becb8cd46277fbb2b17f18,,,,,,,,,,,,,,,,,,,,,,
space,4.5543,892871,001,2023-07-24_21h08.44.203,arm3_eps,2022.2.5,Win32,59.99520038,6113cd5e3287b5f60b4c40f8,64aea9d0f615b6559c281482,64becb8cd46277fbb2b17f18,,,,,,,,,,,,,,,,,,,,,,
space,17.8109,892871,001,2023-07-24_21h08.44.203,arm3_eps,2022.2.5,Win32,59.99520038,6113cd5e3287b5f60b4c40f8,64aea9d0f615b6559c281482,64becb8cd46277fbb2b17f18,,,,,,,,,,,,,,,,,,,,,,
space,92.861,892871,001,2023-07-24_21h08.44.203,arm3_eps,2022.2.5,Win32,59.99520038,6113cd5e3287b5f60b4c40f8,64aea9d0f615b6559c281482,64becb8cd46277fbb2b17f18,,,,,,,,,,,,,,,,,,,,,,
space,3.1373,892871,001,2023-07-24_21h08.44.203,arm3_eps,2022.2.5,Win32,59.99520038,6113cd5e3287b5f60b4c40f8,64aea9d0f615b6559c281482,64becb8cd46277fbb2b17f18,,,,,,,,,,,,,,,,,,,,,,
space,5.2387,892871,001,2023-07-24_21h08.44.203,arm3_eps,2022.2.5,Win32,59.99520038,6113cd5e3287b5f60b4c40f8,64aea9d0f615b6559c281482,64becb8cd46277fbb2b17f18,,,,,,,,,,,,,,,,,,,,,,
space,5.1035,892871,001,2023-07-24_21h08.44.203,arm3_eps,2022.2.5,Win32,59.99520038,6113cd5e3287b5f60b4c40f8,64aea9d0f615b6559c281482,64becb8cd46277fbb2b17f18,,,,,,,,,,,,,,,,,,,,,,
space,0.8439,892871,001,2023-07-24_21h08.44.203,arm3_eps,2022.2.5,Win32,59.99520038,6113cd5e3287b5f60b4c40f8,64aea9d0f615b6559c281482,64becb8cd46277fbb2b17f18,,,,,,,,,,,,,,,,,,,,,,
space,1.306,892871,001,2023-07-24_21h08.44.203,arm3_eps,2022.2.5,Win32,59.99520038,6113cd5e3287b5f60b4c40f8,64aea9d0f615b6559c281482,64becb8cd46277fbb2b17f18,,,,,,,,,,,,,,,,,,,,,,
space,11.1323,892871,001,2023-07-24_21h08.44.203,arm3_eps,2022.2.5,Win32,59.99520038,6113cd5e3287b5f60b4c40f8,64aea9d0f615b6559c281482,64becb8cd46277fbb2b17f18,,,,,,,,,,,,,,,,,,,,,,
,,892871,001,2023-07-24_21h08.44.203,arm3_eps,2022.2.5,Win32,59.99520038,6113cd5e3287b5f60b4c40f8,64aea9d0f615b6559c281482,64becb8cd46277fbb2b17f18,down,1,0.3,0.2429,0,0,3.1872,0,0,0,0,1,,,,,,,,,,
,,892871,001,2023-07-24_21h08.44.203,arm3_eps,2022.2.5,Win32,59.99520038,6113cd5e3287b5f60b4c40f8,64aea9d0f615b6559c281482,64becb8cd46277fbb2b17f18,right,1,0.3,0.2429,0,0.0298872,2.9231,1,0,1,0,1,,,,,,,,,,
,,892871,001,2023-07-24_21h08.44.203,arm3_eps,2022.2.5,Win32,59.99520038,6113cd5e3287b5f60b4c40f8,64aea9d0f615b6559c281482,64becb8cd46277fbb2b17f18,right,1,0.3,0.2429,0,0.059199462,0.7534,2,0,2,0,1,,,,,,,,,,
,,892871,001,2023-07-24_21h08.44.203,arm3_eps,2022.2.5,Win32,59.99520038,6113cd5e3287b5f60b4c40f8,64aea9d0f615b6559c281482,64becb8cd46277fbb2b17f18,up,1,0.3,0.2429,1,0,0.3836,3,0,3,0,1,,,,,,,,,,
,,892871,001,2023-07-24_21h08.44.203,arm3_eps,2022.2.5,Win32,59.99520038,6113cd5e3287b5f60b4c40f8,64aea9d0f615b6559c281482,64becb8cd46277fbb2b17f18,right,1,0.3,0.2429,1,0.056092828,1.9965,4,0,4,0,1,,,,,,,,,,
,,892871,001,2023-07-24_21h08.44.203,arm3_eps,2022.2.5,Win32,59.99520038,6113cd5e3287b5f60b4c40f8,64aea9d0f615b6559c281482,64becb8cd46277fbb2b17f18,right,1,0.3,0.2429,1,0.09036323,0.3856,5,0,5,0,1,,,,,,,,,,
,,892871,001,2023-07-24_21h08.44.203,arm3_eps,2022.2.5,Win32,59.99520038,6113cd5e3287b5f60b4c40f8,64aea9d0f615b6559c281482,64becb8cd46277fbb2b17f18,up,-1,0.3,0.2429,1,0,0.2665,6,0,6,0,1,,,,,,,,,,
,,892871,001,2023-07-24_21h08.44.203,arm3_eps,2022.2.5,Win32,59.99520038,6113cd5e3287b5f60b4c40f8,64aea9d0f615b6559c281482,64becb8cd46277fbb2b17f18,right,-1,0.3,0.2429,1,0.002641766,1.6168,7,0,7,0,1,,,,,,,,,,
,,892871,001,2023-07-24_21h08.44.203,arm3_eps,2022.2.5,Win32,59.99520038,6113cd5e3287b5f60b4c40f8,64aea9d0f615b6559c281482,64becb8cd46277fbb2b17f18,down,-1,0.3,0.2429,1,0,0.6495,8,0,8,0,1,,,,,,,,,,
,,892871,001,2023-07-24_21h08.44.203,arm3_eps,2022.2.5,Win32,59.99520038,6113cd5e3287b5f60b4c40f8,64aea9d0f615b6559c281482,64becb8cd46277fbb2b17f18,up,1,0.3,0.2429,1,0,1.231,9,0,9,0,1,,,,,,,,,,
,,892871,001,2023-07-24_21h08.44.203,arm3_eps,2022.2.5,Win32,59.99520038,6113cd5e3287b5f60b4c40f8,64aea9d0f615b6559c281482,64becb8cd46277fbb2b17f18,right,1,0.3,0.2429,1,-0.023189562,2.7335,10,0,10,0,1,,,,,,,,,,
,,892871,001,2023-07-24_21h08.44.203,arm3_eps,2022.2.5,Win32,59.99520038,6113cd5e3287b5f60b4c40f8,64aea9d0f615b6559c281482,64becb8cd46277fbb2b17f18,right,1,0.3,0.2429,1,-0.044556428,0.386,11,0,11,0,1,,,,,,,,,,
,,892871,001,2023-07-24_21h08.44.203,arm3_eps,2022.2.5,Win32,59.99520038,6113cd5e3287b5f60b4c40f8,64aea9d0f615b6559c281482,64becb8cd46277fbb2b17f18,right,1,0.3,0.2429,1,-0.031385867,0.5662,12,0,12,0,1,,,,,,,,,,
,,892871,001,2023-07-24_21h08.44.203,arm3_eps,2022.2.5,Win32,59.99520038,6113cd5e3287b5f60b4c40f8,64aea9d0f615b6559c281482,64becb8cd46277fbb2b17f18,right,1,0.3,0.2429,1,-0.041253755,0.5312,13,0,13,0,1,,,,,,,,,,
,,892871,001,2023-07-24_21h08.44.203,arm3_eps,2022.2.5,Win32,59.99520038,6113cd5e3287b5f60b4c40f8,64aea9d0f615b6559c281482,64becb8cd46277fbb2b17f18,right,1,0.3,0.2429,1,-0.064890659,0.4692,14,0,14,0,1,,,,,,,,,,
,,892871,001,2023-07-24_21h08.44.203,arm3_eps,2022.2.5,Win32,59.99520038,6113cd5e3287b5f60b4c40f8,64aea9d0f615b6559c281482,64becb8cd46277fbb2b17f18,up,1,0.3,0.2429,1,0,0.2404,15,0,15,0,1,,,,,,,,,,
,,892871,001,2023-07-24_21h08.44.203,arm3_eps,2022.2.5,Win32,59.99520038,6113cd5e3287b5f60b4c40f8,64aea9d0f615b6559c281482,64becb8cd46277fbb2b17f18,up,-1,0.3,0.2429,1,0,1.4507,16,0,16,0,1,,,,,,,,,,
,,892871,001,2023-07-24_21h08.44.203,arm3_eps,2022.2.5,Win32,59.99520038,6113cd5e3287b5f60b4c40f8,64aea9d0f615b6559c281482,64becb8cd46277fbb2b17f18,up,1,0.3,0.2429,1,0,1.0185,17,0,17,0,1,,,,,,,,,,
,,892871,001,2023-07-24_21h08.44.203,arm3_eps,2022.2.5,Win32,59.99520038,6113cd5e3287b5f60b4c40f8,64aea9d0f615b6559c281482,64becb8cd46277fbb2b17f18,right,1,0.3,0.2429,1,0.002971894,0.8235,18,0,18,0,1,,,,,,,,,,
,,892871,001,2023-07-24_21h08.44.203,arm3_eps,2022.2.5,Win32,59.99520038,6113cd5e3287b5f60b4c40f8,64aea9d0f615b6559c281482,64becb8cd46277fbb2b17f18,right,1,0.3,0.2429,1,0.025978854,0.3806,19,0,19,0,1,,,,,,,,,,
,,892871,001,2023-07-24_21h08.44.203,arm3_eps,2022.2.5,Win32,59.99520038,6113cd5e3287b5f60b4c40f8,64aea9d0f615b6559c281482,64becb8cd46277fbb2b17f18,right,1,0.3,0.2429,1,0.022473151,0.5835,20,0,20,0,1,,,,,,,,,,
,,892871,001,2023-07-24_21h08.44.203,arm3_eps,2022.2.5,Win32,59.99520038,6113cd5e3287b5f60b4c40f8,64aea9d0f615b6559c281482,64becb8cd46277fbb2b17f18,right,1,0.3,0.2429,1,0.029613537,0.5834,21,0,21,0,1,,,,,,,,,,
,,892871,001,2023-07-24_21h08.44.203,arm3_eps,2022.2.5,Win32,59.99520038,6113cd5e3287b5f60b4c40f8,64aea9d0f615b6559c281482,64becb8cd46277fbb2b17f18,right,1,0.3,0.2429,1,0.064870958,0.3034,22,0,22,0,1,,,,,,,,,,
,,892871,001,2023-07-24_21h08.44.203,arm3_eps,2022.2.5,Win32,59.99520038,6113cd5e3287b5f60b4c40f8,64aea9d0f615b6559c281482,64becb8cd46277fbb2b17f18,right,1,0.3,0.2429,1,0.054421785,0.3002,23,0,23,0,1,,,,,,,,,,
,,892871,001,2023-07-24_21h08.44.203,arm3_eps,2022.2.5,Win32,59.99520038,6113cd5e3287b5f60b4c40f8,64aea9d0f615b6559c281482,64becb8cd46277fbb2b17f18,up,-1,0.3,0.2429,1,0,0.3725,24,0,24,0,1,,,,,,,,,,
,,892871,001,2023-07-24_21h08.44.203,arm3_eps,2022.2.5,Win32,59.99520038,6113cd5e3287b5f60b4c40f8,64aea9d0f615b6559c281482,64becb8cd46277fbb2b17f18,right,-1,0.3,0.2429,1,-0.008907894,0.7015,25,0,25,0,1,,,,,,,,,,
,,892871,001,2023-07-24_21h08.44.203,arm3_eps,2022.2.5,Win32,59.99520038,6113cd5e3287b5f60b4c40f8,64aea9d0f615b6559c281482,64becb8cd46277fbb2b17f18,up,1,0.3,0.2429,1,0,0.9803,26,0,26,0,1,,,,,,,,,,
,,892871,001,2023-07-24_21h08.44.203,arm3_eps,2022.2.5,Win32,59.99520038,6113cd5e3287b5f60b4c40f8,64aea9d0f615b6559c281482,64becb8cd46277fbb2b17f18,down,1,0.3,0.2429,0,0,1.6514,27,0,27,0,1,,,,,,,,,,
,,892871,001,2023-07-24_21h08.44.203,arm3_eps,2022.2.5,Win32,59.99520038,6113cd5e3287b5f60b4c40f8,64aea9d0f615b6559c281482,64becb8cd46277fbb2b17f18,up,-1,0.3,0.2429,0,0,2.7893,28,0,28,0,1,,,,,,,,,,
,,892871,001,2023-07-24_21h08.44.203,arm3_eps,2022.2.5,Win32,59.99520038,6113cd5e3287b5f60b4c40f8,64aea9d0f615b6559c281482,64becb8cd46277fbb2b17f18,right,-1,0.3,0.2429,0,0.012669447,0.964,29,0,29,0,1,,,,,,,,,,
,,892871,001,2023-07-24_21h08.44.203,arm3_eps,2022.2.5,Win32,59.99520038,6113cd5e3287b5f60b4c40f8,64aea9d0f615b6559c281482,64becb8cd46277fbb2b17f18,up,-1,0.3,0.2429,0,0,0.3898,30,0,30,0,1,,,,,,,,,,
,,892871,001,2023-07-24_21h08.44.203,arm3_eps,2022.2.5,Win32,59.99520038,6113cd5e3287b5f60b4c40f8,64aea9d0f615b6559c281482,64becb8cd46277fbb2b17f18,up,-1,0.3,0.2429,0,0,1.2325,31,0,31,0,1,,,,,,,,,,
,,892871,001,2023-07-24_21h08.44.203,arm3_eps,2022.2.5,Win32,59.99520038,6113cd5e3287b5f60b4c40f8,64aea9d0f615b6559c281482,64becb8cd46277fbb2b17f18,right,-1,0.3,0.2429,0,-0.023134494,0.8001,32,0,32,0,1,,,,,,,,,,
,,892871,001,2023-07-24_21h08.44.203,arm3_eps,2022.2.5,Win32,59.99520038,6113cd5e3287b5f60b4c40f8,64aea9d0f615b6559c281482,64becb8cd46277fbb2b17f18,down,-1,0.3,0.2429,0,0,0.6007,33,0,33,0,1,,,,,,,,,,
,,892871,001,2023-07-24_21h08.44.203,arm3_eps,2022.2.5,Win32,59.99520038,6113cd5e3287b5f60b4c40f8,64aea9d0f615b6559c281482,64becb8cd46277fbb2b17f18,right,-1,0.3,0.2429,0,0.003405078,0.9843,34,0,34,0,1,,,,,,,,,,
,,892871,001,2023-07-24_21h08.44.203,arm3_eps,2022.2.5,Win32,59.99520038,6113cd5e3287b5f60b4c40f8,64aea9d0f615b6559c281482,64becb8cd46277fbb2b17f18,right,-1,0.3,0.2429,0,0.005149569,0.2167,35,0,35,0,1,,,,,,,,,,
,,892871,001,2023-07-24_21h08.44.203,arm3_eps,2022.2.5,Win32,59.99520038,6113cd5e3287b5f60b4c40f8,64aea9d0f615b6559c281482,64becb8cd46277fbb2b17f18,right,-1,0.3,0.2429,0,-0.009566295,1.083,36,0,36,0,1,,,,,,,,,,
,,892871,001,2023-07-24_21h08.44.203,arm3_eps,2022.2.5,Win32,59.99520038,6113cd5e3287b5f60b4c40f8,64aea9d0f615b6559c281482,64becb8cd46277fbb2b17f18,up,-1,0.3,0.2429,-1,0,2.5026,37,0,37,0,1,,,,,,,,,,
,,892871,001,2023-07-24_21h08.44.203,arm3_eps,2022.2.5,Win32,59.99520038,6113cd5e3287b5f60b4c40f8,64aea9d0f615b6559c281482,64becb8cd46277fbb2b17f18,down,-1,0.3,0.2429,-1,0,1.1909,38,0,38,0,1,,,,,,,,,,
,,892871,001,2023-07-24_21h08.44.203,arm3_eps,2022.2.5,Win32,59.99520038,6113cd5e3287b5f60b4c40f8,64aea9d0f615b6559c281482,64becb8cd46277fbb2b17f18,up,-1,0.3,0.2429,-2,0,1.0782,39,0,39,0,1,,,,,,,,,,
,,892871,001,2023-07-24_21h08.44.203,arm3_eps,2022.2.5,Win32,59.99520038,6113cd5e3287b5f60b4c40f8,64aea9d0f615b6559c281482,64becb8cd46277fbb2b17f18,right,-1,0.3,0.2429,-2,0.005521311,1.042,40,0,40,0,1,,,,,,,,,,
,,892871,001,2023-07-24_21h08.44.203,arm3_eps,2022.2.5,Win32,59.99520038,6113cd5e3287b5f60b4c40f8,64aea9d0f615b6559c281482,64becb8cd46277fbb2b17f18,right,-1,0.3,0.2429,-2,0.001495721,0.2517,41,0,41,0,1,,,,,,,,,,
,,892871,001,2023-07-24_21h08.44.203,arm3_eps,2022.2.5,Win32,59.99520038,6113cd5e3287b5f60b4c40f8,64aea9d0f615b6559c281482,64becb8cd46277fbb2b17f18,up,-1,0.3,0.2429,-2,0,1.2157,42,0,42,0,1,,,,,,,,,,
,,892871,001,2023-07-24_21h08.44.203,arm3_eps,2022.2.5,Win32,59.99520038,6113cd5e3287b5f60b4c40f8,64aea9d0f615b6559c281482,64becb8cd46277fbb2b17f18,right,-1,0.3,0.2429,-2,-0.024897571,0.7239,43,0,43,0,1,,,,,,,,,,
,,892871,001,2023-07-24_21h08.44.203,arm3_eps,2022.2.5,Win32,59.99520038,6113cd5e3287b5f60b4c40f8,64aea9d0f615b6559c281482,64becb8cd46277fbb2b17f18,right,-1,0.3,0.2429,-2,-0.029583661,0.3724,44,0,44,0,1,,,,,,,,,,
,,892871,001,2023-07-24_21h08.44.203,arm3_eps,2022.2.5,Win32,59.99520038,6113cd5e3287b5f60b4c40f8,64aea9d0f615b6559c281482,64becb8cd46277fbb2b17f18,right,-1,0.3,0.2429,-2,-0.040671784,0.2165,45,0,45,0,1,,,,,,,,,,
,,892871,001,2023-07-24_21h08.44.203,arm3_eps,2022.2.5,Win32,59.99520038,6113cd5e3287b5f60b4c40f8,64aea9d0f615b6559c281482,64becb8cd46277fbb2b17f18,down,-1,0.3,0.2429,-2,0,0.8012,46,0,46,0,1,,,,,,,,,,
,,892871,001,2023-07-24_21h08.44.203,arm3_eps,2022.2.5,Win32,59.99520038,6113cd5e3287b5f60b4c40f8,64aea9d0f615b6559c281482,64becb8cd46277fbb2b17f18,up,-1,0.3,0.2429,-3,0,0.7497,47,0,47,0,1,,,,,,,,,,
,,892871,001,2023-07-24_21h08.44.203,arm3_eps,2022.2.5,Win32,59.99520038,6113cd5e3287b5f60b4c40f8,64aea9d0f615b6559c281482,64becb8cd46277fbb2b17f18,right,-1,0.3,0.2429,-3,-0.018755803,0.5251,48,0,48,0,1,,,,,,,,,,
,,892871,001,2023-07-24_21h08.44.203,arm3_eps,2022.2.5,Win32,59.99520038,6113cd5e3287b5f60b4c40f8,64aea9d0f615b6559c281482,64becb8cd46277fbb2b17f18,right,-1,0.3,0.2429,-3,-0.020460973,0.5145,49,0,49,0,1,,,,,,,,,,
space,1.6437,892871,001,2023-07-24_21h08.44.203,arm3_eps,2022.2.5,Win32,59.99520038,6113cd5e3287b5f60b4c40f8,64aea9d0f615b6559c281482,64becb8cd46277fbb2b17f18,,,,,,,,,,,,,,,,,,,,,,
space,3.6857,892871,001,2023-07-24_21h08.44.203,arm3_eps,2022.2.5,Win32,59.99520038,6113cd5e3287b5f60b4c40f8,64aea9d0f615b6559c281482,64becb8cd46277fbb2b17f18,up,-1,0.3,0.4357,-1,0,2.7302,,,,,,0,0,0,0,1,,,,,
,,892871,001,2023-07-24_21h08.44.203,arm3_eps,2022.2.5,Win32,59.99520038,6113cd5e3287b5f60b4c40f8,64aea9d0f615b6559c281482,64becb8cd46277fbb2b17f18,right,-1,0.3,0.4357,-1,-0.012861202,1.1172,,,,,,1,0,1,0,1,,,,,
,,892871,001,2023-07-24_21h08.44.203,arm3_eps,2022.2.5,Win32,59.99520038,6113cd5e3287b5f60b4c40f8,64aea9d0f615b6559c281482,64becb8cd46277fbb2b17f18,right,-1,0.3,0.4357,-1,-0.036972535,0.9705,,,,,,2,0,2,0,1,,,,,
,,892871,001,2023-07-24_21h08.44.203,arm3_eps,2022.2.5,Win32,59.99520038,6113cd5e3287b5f60b4c40f8,64aea9d0f615b6559c281482,64becb8cd46277fbb2b17f18,down,1,0.3,0.4357,-1,0,1.6992,,,,,,3,0,3,0,1,,,,,
,,892871,001,2023-07-24_21h08.44.203,arm3_eps,2022.2.5,Win32,59.99520038,6113cd5e3287b5f60b4c40f8,64aea9d0f615b6559c281482,64becb8cd46277fbb2b17f18,right,1,0.3,0.4357,-1,-0.009694714,0.7979,,,,,,4,0,4,0,1,,,,,
,,892871,001,2023-07-24_21h08.44.203,arm3_eps,2022.2.5,Win32,59.99520038,6113cd5e3287b5f60b4c40f8,64aea9d0f615b6559c281482,64becb8cd46277fbb2b17f18,up,-1,0.3,0.4357,-1,0,0.8173,,,,,,5,0,5,0,1,,,,,
,,892871,001,2023-07-24_21h08.44.203,arm3_eps,2022.2.5,Win32,59.99520038,6113cd5e3287b5f60b4c40f8,64aea9d0f615b6559c281482,64becb8cd46277fbb2b17f18,right,-1,0.3,0.4357,-1,-0.017480359,2.1999,,,,,,6,0,6,0,1,,,,,
,,892871,001,2023-07-24_21h08.44.203,arm3_eps,2022.2.5,Win32,59.99520038,6113cd5e3287b5f60b4c40f8,64aea9d0f615b6559c281482,64becb8cd46277fbb2b17f18,up,1,0.3,0.4357,-1,0,0.2836,,,,,,7,0,7,0,1,,,,,
,,892871,001,2023-07-24_21h08.44.203,arm3_eps,2022.2.5,Win32,59.99520038,6113cd5e3287b5f60b4c40f8,64aea9d0f615b6559c281482,64becb8cd46277fbb2b17f18,right,1,0.3,0.4357,-1,0.006773824,1.2843,,,,,,8,0,8,0,1,,,,,
,,892871,001,2023-07-24_21h08.44.203,arm3_eps,2022.2.5,Win32,59.99520038,6113cd5e3287b5f60b4c40f8,64aea9d0f615b6559c281482,64becb8cd46277fbb2b17f18,right,1,0.3,0.4357,-1,0.009275103,0.451,,,,,,9,0,9,0,1,,,,,
,,892871,001,2023-07-24_21h08.44.203,arm3_eps,2022.2.5,Win32,59.99520038,6113cd5e3287b5f60b4c40f8,64aea9d0f615b6559c281482,64becb8cd46277fbb2b17f18,up,1,0.3,0.4357,-1,0,0.2531,,,,,,10,0,10,0,1,,,,,
,,892871,001,2023-07-24_21h08.44.203,arm3_eps,2022.2.5,Win32,59.99520038,6113cd5e3287b5f60b4c40f8,64aea9d0f615b6559c281482,64becb8cd46277fbb2b17f18,right,1,0.3,0.4357,-1,0.014599622,0.5577,,,,,,11,0,11,0,1,,,,,
,,892871,001,2023-07-24_21h08.44.203,arm3_eps,2022.2.5,Win32,59.99520038,6113cd5e3287b5f60b4c40f8,64aea9d0f615b6559c281482,64becb8cd46277fbb2b17f18,right,1,0.3,0.4357,-1,0.017499138,0.6168,,,,,,12,0,12,0,1,,,,,
,,892871,001,2023-07-24_21h08.44.203,arm3_eps,2022.2.5,Win32,59.99520038,6113cd5e3287b5f60b4c40f8,64aea9d0f615b6559c281482,64becb8cd46277fbb2b17f18,right,1,0.3,0.4357,-1,0.038862949,0.2831,,,,,,13,0,13,0,1,,,,,
,,892871,001,2023-07-24_21h08.44.203,arm3_eps,2022.2.5,Win32,59.99520038,6113cd5e3287b5f60b4c40f8,64aea9d0f615b6559c281482,64becb8cd46277fbb2b17f18,up,1,0.3,0.4357,-1,0,0.3482,,,,,,14,0,14,0,1,,,,,
,,892871,001,2023-07-24_21h08.44.203,arm3_eps,2022.2.5,Win32,59.99520038,6113cd5e3287b5f60b4c40f8,64aea9d0f615b6559c281482,64becb8cd46277fbb2b17f18,down,-1,0.3,0.4357,-2,0,1.6676,,,,,,15,0,15,0,1,,,,,
,,892871,001,2023-07-24_21h08.44.203,arm3_eps,2022.2.5,Win32,59.99520038,6113cd5e3287b5f60b4c40f8,64aea9d0f615b6559c281482,64becb8cd46277fbb2b17f18,down,-1,0.3,0.4357,-2,0,0.834,,,,,,16,0,16,0,1,,,,,
,,892871,001,2023-07-24_21h08.44.203,arm3_eps,2022.2.5,Win32,59.99520038,6113cd5e3287b5f60b4c40f8,64aea9d0f615b6559c281482,64becb8cd46277fbb2b17f18,down,-1,0.3,0.4357,-2,0,0.717,,,,,,17,0,17,0,1,,,,,
,,892871,001,2023-07-24_21h08.44.203,arm3_eps,2022.2.5,Win32,59.99520038,6113cd5e3287b5f60b4c40f8,64aea9d0f615b6559c281482,64becb8cd46277fbb2b17f18,down,1,0.3,0.4357,-2,0,0.1367,,,,,,18,0,18,0,1,,,,,
,,892871,001,2023-07-24_21h08.44.203,arm3_eps,2022.2.5,Win32,59.99520038,6113cd5e3287b5f60b4c40f8,64aea9d0f615b6559c281482,64becb8cd46277fbb2b17f18,down,-1,0.3,0.4357,-2,0,0.201,,,,,,19,0,19,0,1,,,,,
,,892871,001,2023-07-24_21h08.44.203,arm3_eps,2022.2.5,Win32,59.99520038,6113cd5e3287b5f60b4c40f8,64aea9d0f615b6559c281482,64becb8cd46277fbb2b17f18,down,-1,0.3,0.4357,-2,0,0.1676,,,,,,20,0,20,0,1,,,,,
,,892871,001,2023-07-24_21h08.44.203,arm3_eps,2022.2.5,Win32,59.99520038,6113cd5e3287b5f60b4c40f8,64aea9d0f615b6559c281482,64becb8cd46277fbb2b17f18,up,1,0.3,0.4357,-3,0,0.2342,,,,,,21,0,21,0,1,,,,,
,,892871,001,2023-07-24_21h08.44.203,arm3_eps,2022.2.5,Win32,59.99520038,6113cd5e3287b5f60b4c40f8,64aea9d0f615b6559c281482,64becb8cd46277fbb2b17f18,up,-1,0.3,0.4357,-3,0,0.253,,,,,,22,0,22,0,1,,,,,
,,892871,001,2023-07-24_21h08.44.203,arm3_eps,2022.2.5,Win32,59.99520038,6113cd5e3287b5f60b4c40f8,64aea9d0f615b6559c281482,64becb8cd46277fbb2b17f18,right,-1,0.3,0.4357,-3,-0.024352705,0.6511,,,,,,23,0,23,0,1,,,,,
,,892871,001,2023-07-24_21h08.44.203,arm3_eps,2022.2.5,Win32,59.99520038,6113cd5e3287b5f60b4c40f8,64aea9d0f615b6559c281482,64becb8cd46277fbb2b17f18,up,-1,0.3,0.4357,-3,0,0.4173,,,,,,24,0,24,0,1,,,,,
,,892871,001,2023-07-24_21h08.44.203,arm3_eps,2022.2.5,Win32,59.99520038,6113cd5e3287b5f60b4c40f8,64aea9d0f615b6559c281482,64becb8cd46277fbb2b17f18,right,-1,0.3,0.4357,-3,-0.019888049,0.3792,,,,,,25,0,25,0,1,,,,,
,,892871,001,2023-07-24_21h08.44.203,arm3_eps,2022.2.5,Win32,59.99520038,6113cd5e3287b5f60b4c40f8,64aea9d0f615b6559c281482,64becb8cd46277fbb2b17f18,up,-1,0.3,0.4357,-3,0,0.2991,,,,,,26,0,26,0,1,,,,,
,,892871,001,2023-07-24_21h08.44.203,arm3_eps,2022.2.5,Win32,59.99520038,6113cd5e3287b5f60b4c40f8,64aea9d0f615b6559c281482,64becb8cd46277fbb2b17f18,right,-1,0.3,0.4357,-3,0.000248564,0.3848,,,,,,27,0,27,0,1,,,,,
,,892871,001,2023-07-24_21h08.44.203,arm3_eps,2022.2.5,Win32,59.99520038,6113cd5e3287b5f60b4c40f8,64aea9d0f615b6559c281482,64becb8cd46277fbb2b17f18,up,-1,0.3,0.4357,-3,0,0.3997,,,,,,28,0,28,0,1,,,,,
,,892871,001,2023-07-24_21h08.44.203,arm3_eps,2022.2.5,Win32,59.99520038,6113cd5e3287b5f60b4c40f8,64aea9d0f615b6559c281482,64becb8cd46277fbb2b17f18,right,-1,0.3,0.4357,-3,0.004191491,0.4375,,,,,,29,0,29,0,1,,,,,
,,892871,001,2023-07-24_21h08.44.203,arm3_eps,2022.2.5,Win32,59.99520038,6113cd5e3287b5f60b4c40f8,64aea9d0f615b6559c281482,64becb8cd46277fbb2b17f18,up,1,0.3,0.4357,-3,0,0.416,,,,,,30,0,30,0,1,,,,,
,,892871,001,2023-07-24_21h08.44.203,arm3_eps,2022.2.5,Win32,59.99520038,6113cd5e3287b5f60b4c40f8,64aea9d0f615b6559c281482,64becb8cd46277fbb2b17f18,right,1,0.3,0.4357,-3,-0.010748409,0.5231,,,,,,31,0,31,0,1,,,,,
,,892871,001,2023-07-24_21h08.44.203,arm3_eps,2022.2.5,Win32,59.99520038,6113cd5e3287b5f60b4c40f8,64aea9d0f615b6559c281482,64becb8cd46277fbb2b17f18,up,1,0.3,0.4357,-3,0,0.5014,,,,,,32,0,32,0,1,,,,,
,,892871,001,2023-07-24_21h08.44.203,arm3_eps,2022.2.5,Win32,59.99520038,6113cd5e3287b5f60b4c40f8,64aea9d0f615b6559c281482,64becb8cd46277fbb2b17f18,right,1,0.3,0.4357,-3,-0.003719964,0.7013,,,,,,33,0,33,0,1,,,,,
,,892871,001,2023-07-24_21h08.44.203,arm3_eps,2022.2.5,Win32,59.99520038,6113cd5e3287b5f60b4c40f8,64aea9d0f615b6559c281482,64becb8cd46277fbb2b17f18,right,1,0.3,0.4357,-3,0.013322453,0.2306,,,,,,34,0,34,0,1,,,,,
,,892871,001,2023-07-24_21h08.44.203,arm3_eps,2022.2.5,Win32,59.99520038,6113cd5e3287b5f60b4c40f8,64aea9d0f615b6559c281482,64becb8cd46277fbb2b17f18,up,1,0.3,0.4357,-3,0,0.268,,,,,,35,0,35,0,1,,,,,
,,892871,001,2023-07-24_21h08.44.203,arm3_eps,2022.2.5,Win32,59.99520038,6113cd5e3287b5f60b4c40f8,64aea9d0f615b6559c281482,64becb8cd46277fbb2b17f18,right,1,0.3,0.4357,-3,-0.026273651,0.7135,,,,,,36,0,36,0,1,,,,,
,,892871,001,2023-07-24_21h08.44.203,arm3_eps,2022.2.5,Win32,59.99520038,6113cd5e3287b5f60b4c40f8,64aea9d0f615b6559c281482,64becb8cd46277fbb2b17f18,up,-1,0.3,0.4357,-3,0,0.3007,,,,,,37,0,37,0,1,,,,,
,,892871,001,2023-07-24_21h08.44.203,arm3_eps,2022.2.5,Win32,59.99520038,6113cd5e3287b5f60b4c40f8,64aea9d0f615b6559c281482,64becb8cd46277fbb2b17f18,right,-1,0.3,0.4357,-3,-0.02814773,0.3821,,,,,,38,0,38,0,1,,,,,
,,892871,001,2023-07-24_21h08.44.203,arm3_eps,2022.2.5,Win32,59.99520038,6113cd5e3287b5f60b4c40f8,64aea9d0f615b6559c281482,64becb8cd46277fbb2b17f18,right,-1,0.3,0.4357,-3,-0.059520624,0.3331,,,,,,39,0,39,0,1,,,,,
,,892871,001,2023-07-24_21h08.44.203,arm3_eps,2022.2.5,Win32,59.99520038,6113cd5e3287b5f60b4c40f8,64aea9d0f615b6559c281482,64becb8cd46277fbb2b17f18,right,-1,0.3,0.4357,-3,-0.044905567,0.2012,,,,,,40,0,40,0,1,,,,,
,,892871,001,2023-07-24_21h08.44.203,arm3_eps,2022.2.5,Win32,59.99520038,6113cd5e3287b5f60b4c40f8,64aea9d0f615b6559c281482,64becb8cd46277fbb2b17f18,up,1,0.3,0.4357,-3,0,0.2066,,,,,,41,0,41,0,1,,,,,
,,892871,001,2023-07-24_21h08.44.203,arm3_eps,2022.2.5,Win32,59.99520038,6113cd5e3287b5f60b4c40f8,64aea9d0f615b6559c281482,64becb8cd46277fbb2b17f18,up,1,0.3,0.4357,-3,0,0.4501,,,,,,42,0,42,0,1,,,,,
,,892871,001,2023-07-24_21h08.44.203,arm3_eps,2022.2.5,Win32,59.99520038,6113cd5e3287b5f60b4c40f8,64aea9d0f615b6559c281482,64becb8cd46277fbb2b17f18,right,1,0.3,0.4357,-3,0.051014923,0.3995,,,,,,43,0,43,0,1,,,,,
,,892871,001,2023-07-24_21h08.44.203,arm3_eps,2022.2.5,Win32,59.99520038,6113cd5e3287b5f60b4c40f8,64aea9d0f615b6559c281482,64becb8cd46277fbb2b17f18,right,1,0.3,0.4357,-3,0.049927588,0.1501,,,,,,44,0,44,0,1,,,,,
,,892871,001,2023-07-24_21h08.44.203,arm3_eps,2022.2.5,Win32,59.99520038,6113cd5e3287b5f60b4c40f8,64aea9d0f615b6559c281482,64becb8cd46277fbb2b17f18,right,1,0.3,0.4357,-3,0.079408054,0.9478,,,,,,45,0,45,0,1,,,,,
,,892871,001,2023-07-24_21h08.44.203,arm3_eps,2022.2.5,Win32,59.99520038,6113cd5e3287b5f60b4c40f8,64aea9d0f615b6559c281482,64becb8cd46277fbb2b17f18,right,1,0.3,0.4357,-3,0.077834573,0.156,,,,,,46,0,46,0,1,,,,,
,,892871,001,2023-07-24_21h08.44.203,arm3_eps,2022.2.5,Win32,59.99520038,6113cd5e3287b5f60b4c40f8,64aea9d0f615b6559c281482,64becb8cd46277fbb2b17f18,right,1,0.3,0.4357,-3,0.085636633,0.1173,,,,,,47,0,47,0,1,,,,,
,,892871,001,2023-07-24_21h08.44.203,arm3_eps,2022.2.5,Win32,59.99520038,6113cd5e3287b5f60b4c40f8,64aea9d0f615b6559c281482,64becb8cd46277fbb2b17f18,right,1,0.3,0.4357,-3,0.081123096,0.2163,,,,,,48,0,48,0,1,,,,,
,,892871,001,2023-07-24_21h08.44.203,arm3_eps,2022.2.5,Win32,59.99520038,6113cd5e3287b5f60b4c40f8,64aea9d0f615b6559c281482,64becb8cd46277fbb2b17f18,right,1,0.3,0.4357,-3,0.087119992,0.1667,,,,,,49,0,49,0,1,,,,,
,,892871,001,2023-07-24_21h08.44.203,arm3_eps,2022.2.5,Win32,59.99520038,6113cd5e3287b5f60b4c40f8,64aea9d0f615b6559c281482,64becb8cd46277fbb2b17f18,right,1,0.3,0.4357,-3,0.113054434,0.1834,,,,,,50,0,50,0,1,,,,,
,,892871,001,2023-07-24_21h08.44.203,arm3_eps,2022.2.5,Win32,59.99520038,6113cd5e3287b5f60b4c40f8,64aea9d0f615b6559c281482,64becb8cd46277fbb2b17f18,right,1,0.3,0.4357,-3,0.14183965,0.1836,,,,,,51,0,51,0,1,,,,,
,,892871,001,2023-07-24_21h08.44.203,arm3_eps,2022.2.5,Win32,59.99520038,6113cd5e3287b5f60b4c40f8,64aea9d0f615b6559c281482,64becb8cd46277fbb2b17f18,right,1,0.3,0.4357,-3,0.137711232,0.1658,,,,,,52,0,52,0,1,,,,,
,,892871,001,2023-07-24_21h08.44.203,arm3_eps,2022.2.5,Win32,59.99520038,6113cd5e3287b5f60b4c40f8,64aea9d0f615b6559c281482,64becb8cd46277fbb2b17f18,right,1,0.3,0.4357,-3,0.132622753,0.2164,,,,,,53,0,53,0,1,,,,,
,,892871,001,2023-07-24_21h08.44.203,arm3_eps,2022.2.5,Win32,59.99520038,6113cd5e3287b5f60b4c40f8,64aea9d0f615b6559c281482,64becb8cd46277fbb2b17f18,right,1,0.3,0.4357,-3,0.146313698,0.2165,,,,,,54,0,54,0,1,,,,,
,,892871,001,2023-07-24_21h08.44.203,arm3_eps,2022.2.5,Win32,59.99520038,6113cd5e3287b5f60b4c40f8,64aea9d0f615b6559c281482,64becb8cd46277fbb2b17f18,up,1,0.3,0.4357,-2,0,0.8333,,,,,,55,0,55,0,1,,,,,
,,892871,001,2023-07-24_21h08.44.203,arm3_eps,2022.2.5,Win32,59.99520038,6113cd5e3287b5f60b4c40f8,64aea9d0f615b6559c281482,64becb8cd46277fbb2b17f18,right,1,0.3,0.4357,-2,-0.025429648,0.9845,,,,,,56,0,56,0,1,,,,,
,,892871,001,2023-07-24_21h08.44.203,arm3_eps,2022.2.5,Win32,59.99520038,6113cd5e3287b5f60b4c40f8,64aea9d0f615b6559c281482,64becb8cd46277fbb2b17f18,right,1,0.3,0.4357,-2,-0.035791989,0.1841,,,,,,57,0,57,0,1,,,,,
,,892871,001,2023-07-24_21h08.44.203,arm3_eps,2022.2.5,Win32,59.99520038,6113cd5e3287b5f60b4c40f8,64aea9d0f615b6559c281482,64becb8cd46277fbb2b17f18,right,1,0.3,0.4357,-2,-0.025192322,0.2303,,,,,,58,0,58,0,1,,,,,
,,892871,001,2023-07-24_21h08.44.203,arm3_eps,2022.2.5,Win32,59.99520038,6113cd5e3287b5f60b4c40f8,64aea9d0f615b6559c281482,64becb8cd46277fbb2b17f18,right,1,0.3,0.4357,-2,-0.032875909,0.8216,,,,,,59,0,59,0,1,,,,,
,,892871,001,2023-07-24_21h08.44.203,arm3_eps,2022.2.5,Win32,59.99520038,6113cd5e3287b5f60b4c40f8,64aea9d0f615b6559c281482,64becb8cd46277fbb2b17f18,right,1,0.3,0.4357,-2,-0.014165699,0.151,,,,,,60,0,60,0,1,,,,,
,,892871,001,2023-07-24_21h08.44.203,arm3_eps,2022.2.5,Win32,59.99520038,6113cd5e3287b5f60b4c40f8,64aea9d0f615b6559c281482,64becb8cd46277fbb2b17f18,right,1,0.3,0.4357,-2,0.025114372,0.1673,,,,,,61,0,61,0,1,,,,,
,,892871,001,2023-07-24_21h08.44.203,arm3_eps,2022.2.5,Win32,59.99520038,6113cd5e3287b5f60b4c40f8,64aea9d0f615b6559c281482,64becb8cd46277fbb2b17f18,right,1,0.3,0.4357,-2,0.024979513,0.1667,,,,,,62,0,62,0,1,,,,,
,,892871,001,2023-07-24_21h08.44.203,arm3_eps,2022.2.5,Win32,59.99520038,6113cd5e3287b5f60b4c40f8,64aea9d0f615b6559c281482,64becb8cd46277fbb2b17f18,right,1,0.3,0.4357,-2,0.01635905,0.2122,,,,,,63,0,63,0,1,,,,,
,,892871,001,2023-07-24_21h08.44.203,arm3_eps,2022.2.5,Win32,59.99520038,6113cd5e3287b5f60b4c40f8,64aea9d0f615b6559c281482,64becb8cd46277fbb2b17f18,right,1,0.3,0.4357,-2,0.043168096,0.1672,,,,,,64,0,64,0,1,,,,,
,,892871,001,2023-07-24_21h08.44.203,arm3_eps,2022.2.5,Win32,59.99520038,6113cd5e3287b5f60b4c40f8,64aea9d0f615b6559c281482,64becb8cd46277fbb2b17f18,right,1,0.3,0.4357,-2,0.046101163,0.1841,,,,,,65,0,65,0,1,,,,,
,,892871,001,2023-07-24_21h08.44.203,arm3_eps,2022.2.5,Win32,59.99520038,6113cd5e3287b5f60b4c40f8,64aea9d0f615b6559c281482,64becb8cd46277fbb2b17f18,right,1,0.3,0.4357,-2,0.072973299,0.2503,,,,,,66,0,66,0,1,,,,,
,,892871,001,2023-07-24_21h08.44.203,arm3_eps,2022.2.5,Win32,59.99520038,6113cd5e3287b5f60b4c40f8,64aea9d0f615b6559c281482,64becb8cd46277fbb2b17f18,up,1,0.3,0.4357,-2,0,0.3999,,,,,,67,0,67,0,1,,,,,
,,892871,001,2023-07-24_21h08.44.203,arm3_eps,2022.2.5,Win32,59.99520038,6113cd5e3287b5f60b4c40f8,64aea9d0f615b6559c281482,64becb8cd46277fbb2b17f18,right,1,0.3,0.4357,-2,9.08786E-05,0.7015,,,,,,68,0,68,0,1,,,,,
,,892871,001,2023-07-24_21h08.44.203,arm3_eps,2022.2.5,Win32,59.99520038,6113cd5e3287b5f60b4c40f8,64aea9d0f615b6559c281482,64becb8cd46277fbb2b17f18,right,1,0.3,0.4357,-2,0.033309353,0.2337,,,,,,69,0,69,0,1,,,,,
,,892871,001,2023-07-24_21h08.44.203,arm3_eps,2022.2.5,Win32,59.99520038,6113cd5e3287b5f60b4c40f8,64aea9d0f615b6559c281482,64becb8cd46277fbb2b17f18,right,1,0.3,0.4357,-2,0.027240396,0.1649,,,,,,70,0,70,0,1,,,,,
,,892871,001,2023-07-24_21h08.44.203,arm3_eps,2022.2.5,Win32,59.99520038,6113cd5e3287b5f60b4c40f8,64aea9d0f615b6559c281482,64becb8cd46277fbb2b17f18,right,1,0.3,0.4357,-2,0.010427757,0.1508,,,,,,71,0,71,0,1,,,,,
,,892871,001,2023-07-24_21h08.44.203,arm3_eps,2022.2.5,Win32,59.99520038,6113cd5e3287b5f60b4c40f8,64aea9d0f615b6559c281482,64becb8cd46277fbb2b17f18,right,1,0.3,0.4357,-2,0.018375064,0.201,,,,,,72,0,72,0,1,,,,,
,,892871,001,2023-07-24_21h08.44.203,arm3_eps,2022.2.5,Win32,59.99520038,6113cd5e3287b5f60b4c40f8,64aea9d0f615b6559c281482,64becb8cd46277fbb2b17f18,right,1,0.3,0.4357,-2,0.025527659,0.1013,,,,,,73,0,73,0,1,,,,,
,,892871,001,2023-07-24_21h08.44.203,arm3_eps,2022.2.5,Win32,59.99520038,6113cd5e3287b5f60b4c40f8,64aea9d0f615b6559c281482,64becb8cd46277fbb2b17f18,right,1,0.3,0.4357,-2,-0.002672223,0.1662,,,,,,74,0,74,0,1,,,,,
,,892871,001,2023-07-24_21h08.44.203,arm3_eps,2022.2.5,Win32,59.99520038,6113cd5e3287b5f60b4c40f8,64aea9d0f615b6559c281482,64becb8cd46277fbb2b17f18,right,1,0.3,0.4357,-2,-0.020278142,0.199,,,,,,75,0,75,0,1,,,,,
,,892871,001,2023-07-24_21h08.44.203,arm3_eps,2022.2.5,Win32,59.99520038,6113cd5e3287b5f60b4c40f8,64aea9d0f615b6559c281482,64becb8cd46277fbb2b17f18,right,1,0.3,0.4357,-2,0.013964595,0.1981,,,,,,76,0,76,0,1,,,,,
,,892871,001,2023-07-24_21h08.44.203,arm3_eps,2022.2.5,Win32,59.99520038,6113cd5e3287b5f60b4c40f8,64aea9d0f615b6559c281482,64becb8cd46277fbb2b17f18,right,1,0.3,0.4357,-2,0.014794436,0.1685,,,,,,77,0,77,0,1,,,,,
,,892871,001,2023-07-24_21h08.44.203,arm3_eps,2022.2.5,Win32,59.99520038,6113cd5e3287b5f60b4c40f8,64aea9d0f615b6559c281482,64becb8cd46277fbb2b17f18,down,1,0.3,0.4357,-3,0,0.9007,,,,,,78,0,78,0,1,,,,,
,,892871,001,2023-07-24_21h08.44.203,arm3_eps,2022.2.5,Win32,59.99520038,6113cd5e3287b5f60b4c40f8,64aea9d0f615b6559c281482,64becb8cd46277fbb2b17f18,right,1,0.3,0.4357,-3,0.00258491,0.8445,,,,,,79,0,79,0,1,,,,,
,,892871,001,2023-07-24_21h08.44.203,arm3_eps,2022.2.5,Win32,59.99520038,6113cd5e3287b5f60b4c40f8,64aea9d0f615b6559c281482,64becb8cd46277fbb2b17f18,right,1,0.3,0.4357,-3,0.015972741,0.1665,,,,,,80,0,80,0,1,,,,,
,,892871,001,2023-07-24_21h08.44.203,arm3_eps,2022.2.5,Win32,59.99520038,6113cd5e3287b5f60b4c40f8,64aea9d0f615b6559c281482,64becb8cd46277fbb2b17f18,right,1,0.3,0.4357,-3,0.030648542,0.1668,,,,,,81,0,81,0,1,,,,,
,,892871,001,2023-07-24_21h08.44.203,arm3_eps,2022.2.5,Win32,59.99520038,6113cd5e3287b5f60b4c40f8,64aea9d0f615b6559c281482,64becb8cd46277fbb2b17f18,right,1,0.3,0.4357,-3,0.060093405,0.1475,,,,,,82,0,82,0,1,,,,,
,,892871,001,2023-07-24_21h08.44.203,arm3_eps,2022.2.5,Win32,59.99520038,6113cd5e3287b5f60b4c40f8,64aea9d0f615b6559c281482,64becb8cd46277fbb2b17f18,right,1,0.3,0.4357,-3,0.109408152,0.1674,,,,,,83,0,83,0,1,,,,,
,,892871,001,2023-07-24_21h08.44.203,arm3_eps,2022.2.5,Win32,59.99520038,6113cd5e3287b5f60b4c40f8,64aea9d0f615b6559c281482,64becb8cd46277fbb2b17f18,right,1,0.3,0.4357,-3,0.104670807,0.1493,,,,,,84,0,84,0,1,,,,,
,,892871,001,2023-07-24_21h08.44.203,arm3_eps,2022.2.5,Win32,59.99520038,6113cd5e3287b5f60b4c40f8,64aea9d0f615b6559c281482,64becb8cd46277fbb2b17f18,right,1,0.3,0.4357,-3,0.108552641,0.1677,,,,,,85,0,85,0,1,,,,,
,,892871,001,2023-07-24_21h08.44.203,arm3_eps,2022.2.5,Win32,59.99520038,6113cd5e3287b5f60b4c40f8,64aea9d0f615b6559c281482,64becb8cd46277fbb2b17f18,right,1,0.3,0.4357,-3,0.10727432,0.1464,,,,,,86,0,86,0,1,,,,,
,,892871,001,2023-07-24_21h08.44.203,arm3_eps,2022.2.5,Win32,59.99520038,6113cd5e3287b5f60b4c40f8,64aea9d0f615b6559c281482,64becb8cd46277fbb2b17f18,right,1,0.3,0.4357,-3,0.099390236,0.1725,,,,,,87,0,87,0,1,,,,,
,,892871,001,2023-07-24_21h08.44.203,arm3_eps,2022.2.5,Win32,59.99520038,6113cd5e3287b5f60b4c40f8,64aea9d0f615b6559c281482,64becb8cd46277fbb2b17f18,right,1,0.3,0.4357,-3,0.103133391,0.1641,,,,,,88,0,88,0,1,,,,,
,,892871,001,2023-07-24_21h08.44.203,arm3_eps,2022.2.5,Win32,59.99520038,6113cd5e3287b5f60b4c40f8,64aea9d0f615b6559c281482,64becb8cd46277fbb2b17f18,right,1,0.3,0.4357,-3,0.127160447,0.1558,,,,,,89,0,89,0,1,,,,,
,,892871,001,2023-07-24_21h08.44.203,arm3_eps,2022.2.5,Win32,59.99520038,6113cd5e3287b5f60b4c40f8,64aea9d0f615b6559c281482,64becb8cd46277fbb2b17f18,right,1,0.3,0.4357,-3,0.13899126,0.1676,,,,,,90,0,90,0,1,,,,,
,,892871,001,2023-07-24_21h08.44.203,arm3_eps,2022.2.5,Win32,59.99520038,6113cd5e3287b5f60b4c40f8,64aea9d0f615b6559c281482,64becb8cd46277fbb2b17f18,up,1,0.3,0.4357,-2,0,0.2977,,,,,,91,0,91,0,1,,,,,
,,892871,001,2023-07-24_21h08.44.203,arm3_eps,2022.2.5,Win32,59.99520038,6113cd5e3287b5f60b4c40f8,64aea9d0f615b6559c281482,64becb8cd46277fbb2b17f18,right,1,0.3,0.4357,-2,0.009383962,0.866,,,,,,92,0,92,0,1,,,,,
,,892871,001,2023-07-24_21h08.44.203,arm3_eps,2022.2.5,Win32,59.99520038,6113cd5e3287b5f60b4c40f8,64aea9d0f615b6559c281482,64becb8cd46277fbb2b17f18,right,1,0.3,0.4357,-2,0.036256704,0.1704,,,,,,93,0,93,0,1,,,,,
,,892871,001,2023-07-24_21h08.44.203,arm3_eps,2022.2.5,Win32,59.99520038,6113cd5e3287b5f60b4c40f8,64aea9d0f615b6559c281482,64becb8cd46277fbb2b17f18,right,1,0.3,0.4357,-2,0.034868171,0.1811,,,,,,94,0,94,0,1,,,,,
,,892871,001,2023-07-24_21h08.44.203,arm3_eps,2022.2.5,Win32,59.99520038,6113cd5e3287b5f60b4c40f8,64aea9d0f615b6559c281482,64becb8cd46277fbb2b17f18,right,1,0.3,0.4357,-2,0.036968355,0.1655,,,,,,95,0,95,0,1,,,,,
,,892871,001,2023-07-24_21h08.44.203,arm3_eps,2022.2.5,Win32,59.99520038,6113cd5e3287b5f60b4c40f8,64aea9d0f615b6559c281482,64becb8cd46277fbb2b17f18,right,1,0.3,0.4357,-2,0.054145216,0.166,,,,,,96,0,96,0,1,,,,,
,,892871,001,2023-07-24_21h08.44.203,arm3_eps,2022.2.5,Win32,59.99520038,6113cd5e3287b5f60b4c40f8,64aea9d0f615b6559c281482,64becb8cd46277fbb2b17f18,right,1,0.3,0.4357,-2,0.053291381,0.1661,,,,,,97,0,97,0,1,,,,,
,,892871,001,2023-07-24_21h08.44.203,arm3_eps,2022.2.5,Win32,59.99520038,6113cd5e3287b5f60b4c40f8,64aea9d0f615b6559c281482,64becb8cd46277fbb2b17f18,right,1,0.3,0.4357,-2,0.071947688,0.1504,,,,,,98,0,98,0,1,,,,,
,,892871,001,2023-07-24_21h08.44.203,arm3_eps,2022.2.5,Win32,59.99520038,6113cd5e3287b5f60b4c40f8,64aea9d0f615b6559c281482,64becb8cd46277fbb2b17f18,right,1,0.3,0.4357,-2,0.075202071,0.1888,,,,,,99,0,99,0,1,,,,,
,,892871,001,2023-07-24_21h08.44.203,arm3_eps,2022.2.5,Win32,59.99520038,6113cd5e3287b5f60b4c40f8,64aea9d0f615b6559c281482,64becb8cd46277fbb2b17f18,right,1,0.3,0.4357,-2,0.076931554,0.152,,,,,,100,0,100,0,1,,,,,
,,892871,001,2023-07-24_21h08.44.203,arm3_eps,2022.2.5,Win32,59.99520038,6113cd5e3287b5f60b4c40f8,64aea9d0f615b6559c281482,64becb8cd46277fbb2b17f18,right,1,0.3,0.4357,-2,0.092441904,0.168,,,,,,101,0,101,0,1,,,,,
,,892871,001,2023-07-24_21h08.44.203,arm3_eps,2022.2.5,Win32,59.99520038,6113cd5e3287b5f60b4c40f8,64aea9d0f615b6559c281482,64becb8cd46277fbb2b17f18,right,1,0.3,0.4357,-2,0.10022635,0.1501,,,,,,102,0,102,0,1,,,,,
,,892871,001,2023-07-24_21h08.44.203,arm3_eps,2022.2.5,Win32,59.99520038,6113cd5e3287b5f60b4c40f8,64aea9d0f615b6559c281482,64becb8cd46277fbb2b17f18,right,1,0.3,0.4357,-2,0.133085853,0.28,,,,,,103,0,103,0,1,,,,,
,,892871,001,2023-07-24_21h08.44.203,arm3_eps,2022.2.5,Win32,59.99520038,6113cd5e3287b5f60b4c40f8,64aea9d0f615b6559c281482,64becb8cd46277fbb2b17f18,up,1,0.3,0.4357,-1,0,0.6512,,,,,,104,0,104,0,1,,,,,
,,892871,001,2023-07-24_21h08.44.203,arm3_eps,2022.2.5,Win32,59.99520038,6113cd5e3287b5f60b4c40f8,64aea9d0f615b6559c281482,64becb8cd46277fbb2b17f18,right,1,0.3,0.4357,-1,0.030282442,1.0255,,,,,,105,0,105,0,1,,,,,
,,892871,001,2023-07-24_21h08.44.203,arm3_eps,2022.2.5,Win32,59.99520038,6113cd5e3287b5f60b4c40f8,64aea9d0f615b6559c281482,64becb8cd46277fbb2b17f18,right,1,0.3,0.4357,-1,0.051410267,0.1738,,,,,,106,0,106,0,1,,,,,
,,892871,001,2023-07-24_21h08.44.203,arm3_eps,2022.2.5,Win32,59.99520038,6113cd5e3287b5f60b4c40f8,64aea9d0f615b6559c281482,64becb8cd46277fbb2b17f18,right,1,0.3,0.4357,-1,0.045226025,0.2002,,,,,,107,0,107,0,1,,,,,
,,892871,001,2023-07-24_21h08.44.203,arm3_eps,2022.2.5,Win32,59.99520038,6113cd5e3287b5f60b4c40f8,64aea9d0f615b6559c281482,64becb8cd46277fbb2b17f18,right,1,0.3,0.4357,-1,0.051497028,0.15,,,,,,108,0,108,0,1,,,,,
,,892871,001,2023-07-24_21h08.44.203,arm3_eps,2022.2.5,Win32,59.99520038,6113cd5e3287b5f60b4c40f8,64aea9d0f615b6559c281482,64becb8cd46277fbb2b17f18,right,1,0.3,0.4357,-1,0.079547627,0.1506,,,,,,109,0,109,0,1,,,,,
,,892871,001,2023-07-24_21h08.44.203,arm3_eps,2022.2.5,Win32,59.99520038,6113cd5e3287b5f60b4c40f8,64aea9d0f615b6559c281482,64becb8cd46277fbb2b17f18,right,1,0.3,0.4357,-1,0.094672801,0.1838,,,,,,110,0,110,0,1,,,,,
,,892871,001,2023-07-24_21h08.44.203,arm3_eps,2022.2.5,Win32,59.99520038,6113cd5e3287b5f60b4c40f8,64aea9d0f615b6559c281482,64becb8cd46277fbb2b17f18,right,1,0.3,0.4357,-1,0.07120627,0.1994,,,,,,111,0,111,0,1,,,,,
,,892871,001,2023-07-24_21h08.44.203,arm3_eps,2022.2.5,Win32,59.99520038,6113cd5e3287b5f60b4c40f8,64aea9d0f615b6559c281482,64becb8cd46277fbb2b17f18,right,1,0.3,0.4357,-1,0.088858268,0.1646,,,,,,112,0,112,0,1,,,,,
,,892871,001,2023-07-24_21h08.44.203,arm3_eps,2022.2.5,Win32,59.99520038,6113cd5e3287b5f60b4c40f8,64aea9d0f615b6559c281482,64becb8cd46277fbb2b17f18,right,1,0.3,0.4357,-1,0.091453182,0.1639,,,,,,113,0,113,0,1,,,,,
,,892871,001,2023-07-24_21h08.44.203,arm3_eps,2022.2.5,Win32,59.99520038,6113cd5e3287b5f60b4c40f8,64aea9d0f615b6559c281482,64becb8cd46277fbb2b17f18,down,1,0.3,0.4357,-1,0,1.1502,,,,,,114,0,114,0,1,,,,,
,,892871,001,2023-07-24_21h08.44.203,arm3_eps,2022.2.5,Win32,59.99520038,6113cd5e3287b5f60b4c40f8,64aea9d0f615b6559c281482,64becb8cd46277fbb2b17f18,right,1,0.3,0.4357,-1,0.009234337,0.6526,,,,,,115,0,115,0,1,,,,,
,,892871,001,2023-07-24_21h08.44.203,arm3_eps,2022.2.5,Win32,59.99520038,6113cd5e3287b5f60b4c40f8,64aea9d0f615b6559c281482,64becb8cd46277fbb2b17f18,right,1,0.3,0.4357,-1,0.04469252,0.3797,,,,,,116,0,116,0,1,,,,,
,,892871,001,2023-07-24_21h08.44.203,arm3_eps,2022.2.5,Win32,59.99520038,6113cd5e3287b5f60b4c40f8,64aea9d0f615b6559c281482,64becb8cd46277fbb2b17f18,right,1,0.3,0.4357,-1,0.06917114,0.1682,,,,,,117,0,117,0,1,,,,,
,,892871,001,2023-07-24_21h08.44.203,arm3_eps,2022.2.5,Win32,59.99520038,6113cd5e3287b5f60b4c40f8,64aea9d0f615b6559c281482,64becb8cd46277fbb2b17f18,right,1,0.3,0.4357,-1,0.070300598,0.1821,,,,,,118,0,118,0,1,,,,,
,,892871,001,2023-07-24_21h08.44.203,arm3_eps,2022.2.5,Win32,59.99520038,6113cd5e3287b5f60b4c40f8,64aea9d0f615b6559c281482,64becb8cd46277fbb2b17f18,right,1,0.3,0.4357,-1,0.087580608,0.1684,,,,,,119,0,119,0,1,,,,,
,,892871,001,2023-07-24_21h08.44.203,arm3_eps,2022.2.5,Win32,59.99520038,6113cd5e3287b5f60b4c40f8,64aea9d0f615b6559c281482,64becb8cd46277fbb2b17f18,right,1,0.3,0.4357,-1,0.091810005,0.1839,,,,,,120,0,120,0,1,,,,,
,,892871,001,2023-07-24_21h08.44.203,arm3_eps,2022.2.5,Win32,59.99520038,6113cd5e3287b5f60b4c40f8,64aea9d0f615b6559c281482,64becb8cd46277fbb2b17f18,right,1,0.3,0.4357,-1,0.082171441,0.1647,,,,,,121,0,121,0,1,,,,,
,,892871,001,2023-07-24_21h08.44.203,arm3_eps,2022.2.5,Win32,59.99520038,6113cd5e3287b5f60b4c40f8,64aea9d0f615b6559c281482,64becb8cd46277fbb2b17f18,right,1,0.3,0.4357,-1,0.069823818,0.1831,,,,,,122,0,122,0,1,,,,,
,,892871,001,2023-07-24_21h08.44.203,arm3_eps,2022.2.5,Win32,59.99520038,6113cd5e3287b5f60b4c40f8,64aea9d0f615b6559c281482,64becb8cd46277fbb2b17f18,right,1,0.3,0.4357,-1,0.066523299,0.166,,,,,,123,0,123,0,1,,,,,
,,892871,001,2023-07-24_21h08.44.203,arm3_eps,2022.2.5,Win32,59.99520038,6113cd5e3287b5f60b4c40f8,64aea9d0f615b6559c281482,64becb8cd46277fbb2b17f18,right,1,0.3,0.4357,-1,0.070453116,0.2144,,,,,,124,0,124,0,1,,,,,
,,892871,001,2023-07-24_21h08.44.203,arm3_eps,2022.2.5,Win32,59.99520038,6113cd5e3287b5f60b4c40f8,64aea9d0f615b6559c281482,64becb8cd46277fbb2b17f18,right,1,0.3,0.4357,-1,0.111807049,0.78,,,,,,125,0,125,0,1,,,,,
,,892871,001,2023-07-24_21h08.44.203,arm3_eps,2022.2.5,Win32,59.99520038,6113cd5e3287b5f60b4c40f8,64aea9d0f615b6559c281482,64becb8cd46277fbb2b17f18,up,-1,0.3,0.4357,-1,0,2.4898,,,,,,126,0,126,0,1,,,,,
,,892871,001,2023-07-24_21h08.44.203,arm3_eps,2022.2.5,Win32,59.99520038,6113cd5e3287b5f60b4c40f8,64aea9d0f615b6559c281482,64becb8cd46277fbb2b17f18,right,-1,0.3,0.4357,-1,0.00461867,6.0597,,,,,,127,0,127,0,1,,,,,
,,892871,001,2023-07-24_21h08.44.203,arm3_eps,2022.2.5,Win32,59.99520038,6113cd5e3287b5f60b4c40f8,64aea9d0f615b6559c281482,64becb8cd46277fbb2b17f18,right,-1,0.3,0.4357,-1,-0.01542283,0.1364,,,,,,128,0,128,0,1,,,,,
,,892871,001,2023-07-24_21h08.44.203,arm3_eps,2022.2.5,Win32,59.99520038,6113cd5e3287b5f60b4c40f8,64aea9d0f615b6559c281482,64becb8cd46277fbb2b17f18,right,-1,0.3,0.4357,-1,-0.034234446,0.1638,,,,,,129,0,129,0,1,,,,,
,,892871,001,2023-07-24_21h08.44.203,arm3_eps,2022.2.5,Win32,59.99520038,6113cd5e3287b5f60b4c40f8,64aea9d0f615b6559c281482,64becb8cd46277fbb2b17f18,right,-1,0.3,0.4357,-1,-0.020556598,0.1538,,,,,,130,0,130,0,1,,,,,
,,892871,001,2023-07-24_21h08.44.203,arm3_eps,2022.2.5,Win32,59.99520038,6113cd5e3287b5f60b4c40f8,64aea9d0f615b6559c281482,64becb8cd46277fbb2b17f18,right,-1,0.3,0.4357,-1,-0.034489839,0.1696,,,,,,131,0,131,0,1,,,,,
,,892871,001,2023-07-24_21h08.44.203,arm3_eps,2022.2.5,Win32,59.99520038,6113cd5e3287b5f60b4c40f8,64aea9d0f615b6559c281482,64becb8cd46277fbb2b17f18,right,-1,0.3,0.4357,-1,-0.044825009,0.1715,,,,,,132,0,132,0,1,,,,,
,,892871,001,2023-07-24_21h08.44.203,arm3_eps,2022.2.5,Win32,59.99520038,6113cd5e3287b5f60b4c40f8,64aea9d0f615b6559c281482,64becb8cd46277fbb2b17f18,right,-1,0.3,0.4357,-1,-0.053147596,0.1883,,,,,,133,0,133,0,1,,,,,
,,892871,001,2023-07-24_21h08.44.203,arm3_eps,2022.2.5,Win32,59.99520038,6113cd5e3287b5f60b4c40f8,64aea9d0f615b6559c281482,64becb8cd46277fbb2b17f18,right,-1,0.3,0.4357,-1,-0.056700082,0.2009,,,,,,134,0,134,0,1,,,,,
,,892871,001,2023-07-24_21h08.44.203,arm3_eps,2022.2.5,Win32,59.99520038,6113cd5e3287b5f60b4c40f8,64aea9d0f615b6559c281482,64becb8cd46277fbb2b17f18,right,-1,0.3,0.4357,-1,-0.067198026,0.1554,,,,,,135,0,135,0,1,,,,,
,,892871,001,2023-07-24_21h08.44.203,arm3_eps,2022.2.5,Win32,59.99520038,6113cd5e3287b5f60b4c40f8,64aea9d0f615b6559c281482,64becb8cd46277fbb2b17f18,right,-1,0.3,0.4357,-1,-0.083692987,0.1671,,,,,,136,0,136,0,1,,,,,
,,892871,001,2023-07-24_21h08.44.203,arm3_eps,2022.2.5,Win32,59.99520038,6113cd5e3287b5f60b4c40f8,64aea9d0f615b6559c281482,64becb8cd46277fbb2b17f18,right,-1,0.3,0.4357,-1,-0.100771295,0.1684,,,,,,137,0,137,0,1,,,,,
,,892871,001,2023-07-24_21h08.44.203,arm3_eps,2022.2.5,Win32,59.99520038,6113cd5e3287b5f60b4c40f8,64aea9d0f615b6559c281482,64becb8cd46277fbb2b17f18,right,-1,0.3,0.4357,-1,-0.088208546,0.1658,,,,,,138,0,138,0,1,,,,,
,,892871,001,2023-07-24_21h08.44.203,arm3_eps,2022.2.5,Win32,59.99520038,6113cd5e3287b5f60b4c40f8,64aea9d0f615b6559c281482,64becb8cd46277fbb2b17f18,up,-1,0.3,0.4357,-1,0,0.3047,,,,,,139,0,139,0,1,,,,,
,,892871,001,2023-07-24_21h08.44.203,arm3_eps,2022.2.5,Win32,59.99520038,6113cd5e3287b5f60b4c40f8,64aea9d0f615b6559c281482,64becb8cd46277fbb2b17f18,right,-1,0.3,0.4357,-1,-0.019121853,0.6155,,,,,,140,0,140,0,1,,,,,
,,892871,001,2023-07-24_21h08.44.203,arm3_eps,2022.2.5,Win32,59.99520038,6113cd5e3287b5f60b4c40f8,64aea9d0f615b6559c281482,64becb8cd46277fbb2b17f18,up,1,0.3,0.4357,-1,0,0.6363,,,,,,141,0,141,0,1,,,,,
,,892871,001,2023-07-24_21h08.44.203,arm3_eps,2022.2.5,Win32,59.99520038,6113cd5e3287b5f60b4c40f8,64aea9d0f615b6559c281482,64becb8cd46277fbb2b17f18,up,-1,0.3,0.4357,0,0,0.1501,,,,,,142,0,142,0,1,,,,,
,,892871,001,2023-07-24_21h08.44.203,arm3_eps,2022.2.5,Win32,59.99520038,6113cd5e3287b5f60b4c40f8,64aea9d0f615b6559c281482,64becb8cd46277fbb2b17f18,right,-1,0.3,0.4357,0,-0.034673778,1.1322,,,,,,143,0,143,0,1,,,,,
,,892871,001,2023-07-24_21h08.44.203,arm3_eps,2022.2.5,Win32,59.99520038,6113cd5e3287b5f60b4c40f8,64aea9d0f615b6559c281482,64becb8cd46277fbb2b17f18,right,-1,0.3,0.4357,0,-0.030920693,0.1863,,,,,,144,0,144,0,1,,,,,
,,892871,001,2023-07-24_21h08.44.203,arm3_eps,2022.2.5,Win32,59.99520038,6113cd5e3287b5f60b4c40f8,64aea9d0f615b6559c281482,64becb8cd46277fbb2b17f18,right,-1,0.3,0.4357,0,-0.055257833,0.1847,,,,,,145,0,145,0,1,,,,,
,,892871,001,2023-07-24_21h08.44.203,arm3_eps,2022.2.5,Win32,59.99520038,6113cd5e3287b5f60b4c40f8,64aea9d0f615b6559c281482,64becb8cd46277fbb2b17f18,right,-1,0.3,0.4357,0,-0.05201872,0.4834,,,,,,146,0,146,0,1,,,,,
,,892871,001,2023-07-24_21h08.44.203,arm3_eps,2022.2.5,Win32,59.99520038,6113cd5e3287b5f60b4c40f8,64aea9d0f615b6559c281482,64becb8cd46277fbb2b17f18,right,-1,0.3,0.4357,0,-0.058948066,0.5014,,,,,,147,0,147,0,1,,,,,
,,892871,001,2023-07-24_21h08.44.203,arm3_eps,2022.2.5,Win32,59.99520038,6113cd5e3287b5f60b4c40f8,64aea9d0f615b6559c281482,64becb8cd46277fbb2b17f18,down,1,0.3,0.4357,1,0,0.2726,,,,,,148,0,148,0,1,,,,,
,,892871,001,2023-07-24_21h08.44.203,arm3_eps,2022.2.5,Win32,59.99520038,6113cd5e3287b5f60b4c40f8,64aea9d0f615b6559c281482,64becb8cd46277fbb2b17f18,up,1,0.3,0.4357,2,0,1.2825,,,,,,149,0,149,0,1,,,,,
,,892871,001,2023-07-24_21h08.44.203,arm3_eps,2022.2.5,Win32,59.99520038,6113cd5e3287b5f60b4c40f8,64aea9d0f615b6559c281482,64becb8cd46277fbb2b17f18,up,1,0.3,0.4357,2,0,0.2242,,,,,,150,0,150,0,1,,,,,
,,892871,001,2023-07-24_21h08.44.203,arm3_eps,2022.2.5,Win32,59.99520038,6113cd5e3287b5f60b4c40f8,64aea9d0f615b6559c281482,64becb8cd46277fbb2b17f18,right,1,0.3,0.4357,2,0.02341106,1.7474,,,,,,151,0,151,0,1,,,,,
,,892871,001,2023-07-24_21h08.44.203,arm3_eps,2022.2.5,Win32,59.99520038,6113cd5e3287b5f60b4c40f8,64aea9d0f615b6559c281482,64becb8cd46277fbb2b17f18,right,1,0.3,0.4357,2,0.031765424,0.2498,,,,,,152,0,152,0,1,,,,,
,,892871,001,2023-07-24_21h08.44.203,arm3_eps,2022.2.5,Win32,59.99520038,6113cd5e3287b5f60b4c40f8,64aea9d0f615b6559c281482,64becb8cd46277fbb2b17f18,right,1,0.3,0.4357,2,0.046580846,0.2502,,,,,,153,0,153,0,1,,,,,
,,892871,001,2023-07-24_21h08.44.203,arm3_eps,2022.2.5,Win32,59.99520038,6113cd5e3287b5f60b4c40f8,64aea9d0f615b6559c281482,64becb8cd46277fbb2b17f18,right,1,0.3,0.4357,2,0.081703788,0.3011,,,,,,154,0,154,0,1,,,,,
,,892871,001,2023-07-24_21h08.44.203,arm3_eps,2022.2.5,Win32,59.99520038,6113cd5e3287b5f60b4c40f8,64aea9d0f615b6559c281482,64becb8cd46277fbb2b17f18,right,1,0.3,0.4357,2,0.094712319,0.2377,,,,,,155,0,155,0,1,,,,,
,,892871,001,2023-07-24_21h08.44.203,arm3_eps,2022.2.5,Win32,59.99520038,6113cd5e3287b5f60b4c40f8,64aea9d0f615b6559c281482,64becb8cd46277fbb2b17f18,right,1,0.3,0.4357,2,0.128845313,0.2511,,,,,,156,0,156,0,1,,,,,
,,892871,001,2023-07-24_21h08.44.203,arm3_eps,2022.2.5,Win32,59.99520038,6113cd5e3287b5f60b4c40f8,64aea9d0f615b6559c281482,64becb8cd46277fbb2b17f18,up,1,0.3,0.4357,3,0,0.364,,,,,,157,0,157,0,1,,,,,
,,892871,001,2023-07-24_21h08.44.203,arm3_eps,2022.2.5,Win32,59.99520038,6113cd5e3287b5f60b4c40f8,64aea9d0f615b6559c281482,64becb8cd46277fbb2b17f18,right,1,0.3,0.4357,3,-0.007232096,0.9011,,,,,,158,0,158,0,1,,,,,
,,892871,001,2023-07-24_21h08.44.203,arm3_eps,2022.2.5,Win32,59.99520038,6113cd5e3287b5f60b4c40f8,64aea9d0f615b6559c281482,64becb8cd46277fbb2b17f18,right,1,0.3,0.4357,3,0.004844963,0.1909,,,,,,159,0,159,0,1,,,,,
,,892871,001,2023-07-24_21h08.44.203,arm3_eps,2022.2.5,Win32,59.99520038,6113cd5e3287b5f60b4c40f8,64aea9d0f615b6559c281482,64becb8cd46277fbb2b17f18,right,1,0.3,0.4357,3,0.012350934,0.1969,,,,,,160,0,160,0,1,,,,,
,,892871,001,2023-07-24_21h08.44.203,arm3_eps,2022.2.5,Win32,59.99520038,6113cd5e3287b5f60b4c40f8,64aea9d0f615b6559c281482,64becb8cd46277fbb2b17f18,down,1,0.3,0.4357,3,0,0.5307,,,,,,161,0,161,0,1,,,,,
,,892871,001,2023-07-24_21h08.44.203,arm3_eps,2022.2.5,Win32,59.99520038,6113cd5e3287b5f60b4c40f8,64aea9d0f615b6559c281482,64becb8cd46277fbb2b17f18,right,1,0.3,0.4357,3,0.002412123,0.7515,,,,,,162,0,162,0,1,,,,,
,,892871,001,2023-07-24_21h08.44.203,arm3_eps,2022.2.5,Win32,59.99520038,6113cd5e3287b5f60b4c40f8,64aea9d0f615b6559c281482,64becb8cd46277fbb2b17f18,right,1,0.3,0.4357,3,-0.000920978,0.1793,,,,,,163,0,163,0,1,,,,,
,,892871,001,2023-07-24_21h08.44.203,arm3_eps,2022.2.5,Win32,59.99520038,6113cd5e3287b5f60b4c40f8,64aea9d0f615b6559c281482,64becb8cd46277fbb2b17f18,right,1,0.3,0.4357,3,0.025203765,0.1833,,,,,,164,0,164,0,1,,,,,
,,892871,001,2023-07-24_21h08.44.203,arm3_eps,2022.2.5,Win32,59.99520038,6113cd5e3287b5f60b4c40f8,64aea9d0f615b6559c281482,64becb8cd46277fbb2b17f18,right,1,0.3,0.4357,3,0.029277497,0.1839,,,,,,165,0,165,0,1,,,,,
,,892871,001,2023-07-24_21h08.44.203,arm3_eps,2022.2.5,Win32,59.99520038,6113cd5e3287b5f60b4c40f8,64aea9d0f615b6559c281482,64becb8cd46277fbb2b17f18,up,-1,0.3,0.4357,3,0,0.2172,,,,,,166,0,166,0,1,,,,,
,,892871,001,2023-07-24_21h08.44.203,arm3_eps,2022.2.5,Win32,59.99520038,6113cd5e3287b5f60b4c40f8,64aea9d0f615b6559c281482,64becb8cd46277fbb2b17f18,right,-1,0.3,0.4357,3,0.003370488,0.6066,,,,,,167,0,167,0,1,,,,,
,,892871,001,2023-07-24_21h08.44.203,arm3_eps,2022.2.5,Win32,59.99520038,6113cd5e3287b5f60b4c40f8,64aea9d0f615b6559c281482,64becb8cd46277fbb2b17f18,right,-1,0.3,0.4357,3,-0.030534062,0.1683,,,,,,168,0,168,0,1,,,,,
,,892871,001,2023-07-24_21h08.44.203,arm3_eps,2022.2.5,Win32,59.99520038,6113cd5e3287b5f60b4c40f8,64aea9d0f615b6559c281482,64becb8cd46277fbb2b17f18,right,-1,0.3,0.4357,3,-0.027031036,1.0287,,,,,,169,0,169,0,1,,,,,
,,892871,001,2023-07-24_21h08.44.203,arm3_eps,2022.2.5,Win32,59.99520038,6113cd5e3287b5f60b4c40f8,64aea9d0f615b6559c281482,64becb8cd46277fbb2b17f18,right,-1,0.3,0.4357,3,-0.016409528,0.1555,,,,,,170,0,170,0,1,,,,,
,,892871,001,2023-07-24_21h08.44.203,arm3_eps,2022.2.5,Win32,59.99520038,6113cd5e3287b5f60b4c40f8,64aea9d0f615b6559c281482,64becb8cd46277fbb2b17f18,right,-1,0.3,0.4357,3,-0.04726012,0.1748,,,,,,171,0,171,0,1,,,,,
,,892871,001,2023-07-24_21h08.44.203,arm3_eps,2022.2.5,Win32,59.99520038,6113cd5e3287b5f60b4c40f8,64aea9d0f615b6559c281482,64becb8cd46277fbb2b17f18,right,-1,0.3,0.4357,3,-0.026050891,0.1518,,,,,,172,0,172,0,1,,,,,
,,892871,001,2023-07-24_21h08.44.203,arm3_eps,2022.2.5,Win32,59.99520038,6113cd5e3287b5f60b4c40f8,64aea9d0f615b6559c281482,64becb8cd46277fbb2b17f18,right,-1,0.3,0.4357,3,-0.043506842,0.1671,,,,,,173,0,173,0,1,,,,,
,,892871,001,2023-07-24_21h08.44.203,arm3_eps,2022.2.5,Win32,59.99520038,6113cd5e3287b5f60b4c40f8,64aea9d0f615b6559c281482,64becb8cd46277fbb2b17f18,right,-1,0.3,0.4357,3,-0.037922929,0.1515,,,,,,174,0,174,0,1,,,,,
,,892871,001,2023-07-24_21h08.44.203,arm3_eps,2022.2.5,Win32,59.99520038,6113cd5e3287b5f60b4c40f8,64aea9d0f615b6559c281482,64becb8cd46277fbb2b17f18,right,-1,0.3,0.4357,3,-0.043396148,0.1643,,,,,,175,0,175,0,1,,,,,
,,892871,001,2023-07-24_21h08.44.203,arm3_eps,2022.2.5,Win32,59.99520038,6113cd5e3287b5f60b4c40f8,64aea9d0f615b6559c281482,64becb8cd46277fbb2b17f18,right,-1,0.3,0.4357,3,-0.046782276,0.1496,,,,,,176,0,176,0,1,,,,,
,,892871,001,2023-07-24_21h08.44.203,arm3_eps,2022.2.5,Win32,59.99520038,6113cd5e3287b5f60b4c40f8,64aea9d0f615b6559c281482,64becb8cd46277fbb2b17f18,up,-1,0.3,0.4357,3,0,0.4914,,,,,,177,0,177,0,1,,,,,
,,892871,001,2023-07-24_21h08.44.203,arm3_eps,2022.2.5,Win32,59.99520038,6113cd5e3287b5f60b4c40f8,64aea9d0f615b6559c281482,64becb8cd46277fbb2b17f18,right,-1,0.3,0.4357,3,-0.027753284,0.6137,,,,,,178,0,178,0,1,,,,,
,,892871,001,2023-07-24_21h08.44.203,arm3_eps,2022.2.5,Win32,59.99520038,6113cd5e3287b5f60b4c40f8,64aea9d0f615b6559c281482,64becb8cd46277fbb2b17f18,right,-1,0.3,0.4357,3,-0.067650433,0.1994,,,,,,179,0,179,0,1,,,,,
,,892871,001,2023-07-24_21h08.44.203,arm3_eps,2022.2.5,Win32,59.99520038,6113cd5e3287b5f60b4c40f8,64aea9d0f615b6559c281482,64becb8cd46277fbb2b17f18,right,-1,0.3,0.4357,3,-0.054942368,0.1656,,,,,,180,0,180,0,1,,,,,
,,892871,001,2023-07-24_21h08.44.203,arm3_eps,2022.2.5,Win32,59.99520038,6113cd5e3287b5f60b4c40f8,64aea9d0f615b6559c281482,64becb8cd46277fbb2b17f18,right,-1,0.3,0.4357,3,-0.063446012,0.1812,,,,,,181,0,181,0,1,,,,,
,,892871,001,2023-07-24_21h08.44.203,arm3_eps,2022.2.5,Win32,59.99520038,6113cd5e3287b5f60b4c40f8,64aea9d0f615b6559c281482,64becb8cd46277fbb2b17f18,right,-1,0.3,0.4357,3,-0.085109841,0.1495,,,,,,182,0,182,0,1,,,,,
,,892871,001,2023-07-24_21h08.44.203,arm3_eps,2022.2.5,Win32,59.99520038,6113cd5e3287b5f60b4c40f8,64aea9d0f615b6559c281482,64becb8cd46277fbb2b17f18,right,-1,0.3,0.4357,3,-0.053384011,0.1643,,,,,,183,0,183,0,1,,,,,
,,892871,001,2023-07-24_21h08.44.203,arm3_eps,2022.2.5,Win32,59.99520038,6113cd5e3287b5f60b4c40f8,64aea9d0f615b6559c281482,64becb8cd46277fbb2b17f18,right,-1,0.3,0.4357,3,-0.06018185,0.2041,,,,,,184,0,184,0,1,,,,,
,,892871,001,2023-07-24_21h08.44.203,arm3_eps,2022.2.5,Win32,59.99520038,6113cd5e3287b5f60b4c40f8,64aea9d0f615b6559c281482,64becb8cd46277fbb2b17f18,right,-1,0.3,0.4357,3,-0.037954742,0.218,,,,,,185,0,185,0,1,,,,,
,,892871,001,2023-07-24_21h08.44.203,arm3_eps,2022.2.5,Win32,59.99520038,6113cd5e3287b5f60b4c40f8,64aea9d0f615b6559c281482,64becb8cd46277fbb2b17f18,right,-1,0.3,0.4357,3,-0.049759362,0.1814,,,,,,186,0,186,0,1,,,,,
,,892871,001,2023-07-24_21h08.44.203,arm3_eps,2022.2.5,Win32,59.99520038,6113cd5e3287b5f60b4c40f8,64aea9d0f615b6559c281482,64becb8cd46277fbb2b17f18,right,-1,0.3,0.4357,3,-0.079344011,0.1663,,,,,,187,0,187,0,1,,,,,
,,892871,001,2023-07-24_21h08.44.203,arm3_eps,2022.2.5,Win32,59.99520038,6113cd5e3287b5f60b4c40f8,64aea9d0f615b6559c281482,64becb8cd46277fbb2b17f18,right,-1,0.3,0.4357,3,-0.101951609,0.1799,,,,,,188,0,188,0,1,,,,,
,,892871,001,2023-07-24_21h08.44.203,arm3_eps,2022.2.5,Win32,59.99520038,6113cd5e3287b5f60b4c40f8,64aea9d0f615b6559c281482,64becb8cd46277fbb2b17f18,right,-1,0.3,0.4357,3,-0.144187123,0.1469,,,,,,189,0,189,0,1,,,,,
,,892871,001,2023-07-24_21h08.44.203,arm3_eps,2022.2.5,Win32,59.99520038,6113cd5e3287b5f60b4c40f8,64aea9d0f615b6559c281482,64becb8cd46277fbb2b17f18,down,-1,0.3,0.4357,4,0,1.0807,,,,,,190,0,190,0,1,,,,,
,,892871,001,2023-07-24_21h08.44.203,arm3_eps,2022.2.5,Win32,59.99520038,6113cd5e3287b5f60b4c40f8,64aea9d0f615b6559c281482,64becb8cd46277fbb2b17f18,right,-1,0.3,0.4357,4,-0.028422487,1.029,,,,,,191,0,191,0,1,,,,,
,,892871,001,2023-07-24_21h08.44.203,arm3_eps,2022.2.5,Win32,59.99520038,6113cd5e3287b5f60b4c40f8,64aea9d0f615b6559c281482,64becb8cd46277fbb2b17f18,right,-1,0.3,0.4357,4,-0.0345687,0.1824,,,,,,192,0,192,0,1,,,,,
,,892871,001,2023-07-24_21h08.44.203,arm3_eps,2022.2.5,Win32,59.99520038,6113cd5e3287b5f60b4c40f8,64aea9d0f615b6559c281482,64becb8cd46277fbb2b17f18,right,-1,0.3,0.4357,4,-0.067354813,0.1527,,,,,,193,0,193,0,1,,,,,
,,892871,001,2023-07-24_21h08.44.203,arm3_eps,2022.2.5,Win32,59.99520038,6113cd5e3287b5f60b4c40f8,64aea9d0f615b6559c281482,64becb8cd46277fbb2b17f18,right,-1,0.3,0.4357,4,-0.088003493,0.1503,,,,,,194,0,194,0,1,,,,,
,,892871,001,2023-07-24_21h08.44.203,arm3_eps,2022.2.5,Win32,59.99520038,6113cd5e3287b5f60b4c40f8,64aea9d0f615b6559c281482,64becb8cd46277fbb2b17f18,right,-1,0.3,0.4357,4,-0.057355451,0.5006,,,,,,195,0,195,0,1,,,,,
,,892871,001,2023-07-24_21h08.44.203,arm3_eps,2022.2.5,Win32,59.99520038,6113cd5e3287b5f60b4c40f8,64aea9d0f615b6559c281482,64becb8cd46277fbb2b17f18,right,-1,0.3,0.4357,4,-0.074541341,0.1668,,,,,,196,0,196,0,1,,,,,
,,892871,001,2023-07-24_21h08.44.203,arm3_eps,2022.2.5,Win32,59.99520038,6113cd5e3287b5f60b4c40f8,64aea9d0f615b6559c281482,64becb8cd46277fbb2b17f18,right,-1,0.3,0.4357,4,-0.080644502,0.0997,,,,,,197,0,197,0,1,,,,,
,,892871,001,2023-07-24_21h08.44.203,arm3_eps,2022.2.5,Win32,59.99520038,6113cd5e3287b5f60b4c40f8,64aea9d0f615b6559c281482,64becb8cd46277fbb2b17f18,right,-1,0.3,0.4357,4,-0.086810911,0.2001,,,,,,198,0,198,0,1,,,,,
,,892871,001,2023-07-24_21h08.44.203,arm3_eps,2022.2.5,Win32,59.99520038,6113cd5e3287b5f60b4c40f8,64aea9d0f615b6559c281482,64becb8cd46277fbb2b17f18,right,-1,0.3,0.4357,4,-0.102382318,0.1368,,,,,,199,0,199,0,1,,,,,
,,892871,001,2023-07-24_21h08.44.203,arm3_eps,2022.2.5,Win32,59.99520038,6113cd5e3287b5f60b4c40f8,64aea9d0f615b6559c281482,64becb8cd46277fbb2b17f18,right,-1,0.3,0.4357,4,-0.106045736,0.1708,,,,,,200,0,200,0,1,,,,,
,,892871,001,2023-07-24_21h08.44.203,arm3_eps,2022.2.5,Win32,59.99520038,6113cd5e3287b5f60b4c40f8,64aea9d0f615b6559c281482,64becb8cd46277fbb2b17f18,right,-1,0.3,0.4357,4,-0.107577124,0.1728,,,,,,201,0,201,0,1,,,,,
,,892871,001,2023-07-24_21h08.44.203,arm3_eps,2022.2.5,Win32,59.99520038,6113cd5e3287b5f60b4c40f8,64aea9d0f615b6559c281482,64becb8cd46277fbb2b17f18,right,-1,0.3,0.4357,4,-0.101062083,0.1493,,,,,,202,0,202,0,1,,,,,
,,892871,001,2023-07-24_21h08.44.203,arm3_eps,2022.2.5,Win32,59.99520038,6113cd5e3287b5f60b4c40f8,64aea9d0f615b6559c281482,64becb8cd46277fbb2b17f18,up,-1,0.3,0.4357,4,0,1.8153,,,,,,203,0,203,0,1,,,,,
,,892871,001,2023-07-24_21h08.44.203,arm3_eps,2022.2.5,Win32,59.99520038,6113cd5e3287b5f60b4c40f8,64aea9d0f615b6559c281482,64becb8cd46277fbb2b17f18,right,-1,0.3,0.4357,4,0.026276788,0.6853,,,,,,204,0,204,0,1,,,,,
,,892871,001,2023-07-24_21h08.44.203,arm3_eps,2022.2.5,Win32,59.99520038,6113cd5e3287b5f60b4c40f8,64aea9d0f615b6559c281482,64becb8cd46277fbb2b17f18,right,-1,0.3,0.4357,4,0.006976016,0.1829,,,,,,205,0,205,0,1,,,,,
,,892871,001,2023-07-24_21h08.44.203,arm3_eps,2022.2.5,Win32,59.99520038,6113cd5e3287b5f60b4c40f8,64aea9d0f615b6559c281482,64becb8cd46277fbb2b17f18,right,-1,0.3,0.4357,4,-0.019947102,0.1652,,,,,,206,0,206,0,1,,,,,
,,892871,001,2023-07-24_21h08.44.203,arm3_eps,2022.2.5,Win32,59.99520038,6113cd5e3287b5f60b4c40f8,64aea9d0f615b6559c281482,64becb8cd46277fbb2b17f18,right,-1,0.3,0.4357,4,-0.011877279,0.1678,,,,,,207,0,207,0,1,,,,,
,,892871,001,2023-07-24_21h08.44.203,arm3_eps,2022.2.5,Win32,59.99520038,6113cd5e3287b5f60b4c40f8,64aea9d0f615b6559c281482,64becb8cd46277fbb2b17f18,right,-1,0.3,0.4357,4,-0.017031334,0.1679,,,,,,208,0,208,0,1,,,,,
,,892871,001,2023-07-24_21h08.44.203,arm3_eps,2022.2.5,Win32,59.99520038,6113cd5e3287b5f60b4c40f8,64aea9d0f615b6559c281482,64becb8cd46277fbb2b17f18,right,-1,0.3,0.4357,4,-0.03980986,0.1474,,,,,,209,0,209,0,1,,,,,
,,892871,001,2023-07-24_21h08.44.203,arm3_eps,2022.2.5,Win32,59.99520038,6113cd5e3287b5f60b4c40f8,64aea9d0f615b6559c281482,64becb8cd46277fbb2b17f18,right,-1,0.3,0.4357,4,-0.053779436,0.1569,,,,,,210,0,210,0,1,,,,,
,,892871,001,2023-07-24_21h08.44.203,arm3_eps,2022.2.5,Win32,59.99520038,6113cd5e3287b5f60b4c40f8,64aea9d0f615b6559c281482,64becb8cd46277fbb2b17f18,right,-1,0.3,0.4357,4,-0.083642322,0.1735,,,,,,211,0,211,0,1,,,,,
,,892871,001,2023-07-24_21h08.44.203,arm3_eps,2022.2.5,Win32,59.99520038,6113cd5e3287b5f60b4c40f8,64aea9d0f615b6559c281482,64becb8cd46277fbb2b17f18,right,-1,0.3,0.4357,4,-0.100850834,0.1854,,,,,,212,0,212,0,1,,,,,
,,892871,001,2023-07-24_21h08.44.203,arm3_eps,2022.2.5,Win32,59.99520038,6113cd5e3287b5f60b4c40f8,64aea9d0f615b6559c281482,64becb8cd46277fbb2b17f18,right,-1,0.3,0.4357,4,-0.087897727,0.1509,,,,,,213,0,213,0,1,,,,,
,,892871,001,2023-07-24_21h08.44.203,arm3_eps,2022.2.5,Win32,59.99520038,6113cd5e3287b5f60b4c40f8,64aea9d0f615b6559c281482,64becb8cd46277fbb2b17f18,right,-1,0.3,0.4357,4,-0.084627035,0.152,,,,,,214,0,214,0,1,,,,,
,,892871,001,2023-07-24_21h08.44.203,arm3_eps,2022.2.5,Win32,59.99520038,6113cd5e3287b5f60b4c40f8,64aea9d0f615b6559c281482,64becb8cd46277fbb2b17f18,right,-1,0.3,0.4357,4,-0.122956755,0.1876,,,,,,215,0,215,0,1,,,,,
,,892871,001,2023-07-24_21h08.44.203,arm3_eps,2022.2.5,Win32,59.99520038,6113cd5e3287b5f60b4c40f8,64aea9d0f615b6559c281482,64becb8cd46277fbb2b17f18,down,1,0.3,0.4357,4,0,0.7802,,,,,,216,0,216,0,1,,,,,
,,892871,001,2023-07-24_21h08.44.203,arm3_eps,2022.2.5,Win32,59.99520038,6113cd5e3287b5f60b4c40f8,64aea9d0f615b6559c281482,64becb8cd46277fbb2b17f18,right,1,0.3,0.4357,4,0.021986194,0.4668,,,,,,217,0,217,0,1,,,,,
,,892871,001,2023-07-24_21h08.44.203,arm3_eps,2022.2.5,Win32,59.99520038,6113cd5e3287b5f60b4c40f8,64aea9d0f615b6559c281482,64becb8cd46277fbb2b17f18,right,1,0.3,0.4357,4,0.023124297,0.1583,,,,,,218,0,218,0,1,,,,,
,,892871,001,2023-07-24_21h08.44.203,arm3_eps,2022.2.5,Win32,59.99520038,6113cd5e3287b5f60b4c40f8,64aea9d0f615b6559c281482,64becb8cd46277fbb2b17f18,right,1,0.3,0.4357,4,0.040820508,0.207,,,,,,219,0,219,0,1,,,,,
,,892871,001,2023-07-24_21h08.44.203,arm3_eps,2022.2.5,Win32,59.99520038,6113cd5e3287b5f60b4c40f8,64aea9d0f615b6559c281482,64becb8cd46277fbb2b17f18,right,1,0.3,0.4357,4,0.031989699,0.1857,,,,,,220,0,220,0,1,,,,,
,,892871,001,2023-07-24_21h08.44.203,arm3_eps,2022.2.5,Win32,59.99520038,6113cd5e3287b5f60b4c40f8,64aea9d0f615b6559c281482,64becb8cd46277fbb2b17f18,right,1,0.3,0.4357,4,0.051166985,0.1649,,,,,,221,0,221,0,1,,,,,
,,892871,001,2023-07-24_21h08.44.203,arm3_eps,2022.2.5,Win32,59.99520038,6113cd5e3287b5f60b4c40f8,64aea9d0f615b6559c281482,64becb8cd46277fbb2b17f18,right,1,0.3,0.4357,4,0.034098034,0.1474,,,,,,222,0,222,0,1,,,,,
,,892871,001,2023-07-24_21h08.44.203,arm3_eps,2022.2.5,Win32,59.99520038,6113cd5e3287b5f60b4c40f8,64aea9d0f615b6559c281482,64becb8cd46277fbb2b17f18,right,1,0.3,0.4357,4,0.049088049,0.1856,,,,,,223,0,223,0,1,,,,,
,,892871,001,2023-07-24_21h08.44.203,arm3_eps,2022.2.5,Win32,59.99520038,6113cd5e3287b5f60b4c40f8,64aea9d0f615b6559c281482,64becb8cd46277fbb2b17f18,right,1,0.3,0.4357,4,0.041846853,0.1674,,,,,,224,0,224,0,1,,,,,
,,892871,001,2023-07-24_21h08.44.203,arm3_eps,2022.2.5,Win32,59.99520038,6113cd5e3287b5f60b4c40f8,64aea9d0f615b6559c281482,64becb8cd46277fbb2b17f18,right,1,0.3,0.4357,4,0.045318631,0.1675,,,,,,225,0,225,0,1,,,,,
,,892871,001,2023-07-24_21h08.44.203,arm3_eps,2022.2.5,Win32,59.99520038,6113cd5e3287b5f60b4c40f8,64aea9d0f615b6559c281482,64becb8cd46277fbb2b17f18,right,1,0.3,0.4357,4,0.046603253,0.1817,,,,,,226,0,226,0,1,,,,,
,,892871,001,2023-07-24_21h08.44.203,arm3_eps,2022.2.5,Win32,59.99520038,6113cd5e3287b5f60b4c40f8,64aea9d0f615b6559c281482,64becb8cd46277fbb2b17f18,right,1,0.3,0.4357,4,0.065076385,0.1638,,,,,,227,0,227,0,1,,,,,
,,892871,001,2023-07-24_21h08.44.203,arm3_eps,2022.2.5,Win32,59.99520038,6113cd5e3287b5f60b4c40f8,64aea9d0f615b6559c281482,64becb8cd46277fbb2b17f18,right,1,0.3,0.4357,4,0.078501655,0.1541,,,,,,228,0,228,0,1,,,,,
,,892871,001,2023-07-24_21h08.44.203,arm3_eps,2022.2.5,Win32,59.99520038,6113cd5e3287b5f60b4c40f8,64aea9d0f615b6559c281482,64becb8cd46277fbb2b17f18,up,-1,0.3,0.4357,5,0,0.5718,,,,,,229,0,229,0,1,,,,,
,,892871,001,2023-07-24_21h08.44.203,arm3_eps,2022.2.5,Win32,59.99520038,6113cd5e3287b5f60b4c40f8,64aea9d0f615b6559c281482,64becb8cd46277fbb2b17f18,right,-1,0.3,0.4357,5,0.021774421,0.5617,,,,,,230,0,230,0,1,,,,,
,,892871,001,2023-07-24_21h08.44.203,arm3_eps,2022.2.5,Win32,59.99520038,6113cd5e3287b5f60b4c40f8,64aea9d0f615b6559c281482,64becb8cd46277fbb2b17f18,right,-1,0.3,0.4357,5,0.020801394,0.1524,,,,,,231,0,231,0,1,,,,,
,,892871,001,2023-07-24_21h08.44.203,arm3_eps,2022.2.5,Win32,59.99520038,6113cd5e3287b5f60b4c40f8,64aea9d0f615b6559c281482,64becb8cd46277fbb2b17f18,right,-1,0.3,0.4357,5,-0.001333822,0.1798,,,,,,232,0,232,0,1,,,,,
,,892871,001,2023-07-24_21h08.44.203,arm3_eps,2022.2.5,Win32,59.99520038,6113cd5e3287b5f60b4c40f8,64aea9d0f615b6559c281482,64becb8cd46277fbb2b17f18,right,-1,0.3,0.4357,5,0.007071255,0.165,,,,,,233,0,233,0,1,,,,,
,,892871,001,2023-07-24_21h08.44.203,arm3_eps,2022.2.5,Win32,59.99520038,6113cd5e3287b5f60b4c40f8,64aea9d0f615b6559c281482,64becb8cd46277fbb2b17f18,right,-1,0.3,0.4357,5,-0.011306056,0.1646,,,,,,234,0,234,0,1,,,,,
,,892871,001,2023-07-24_21h08.44.203,arm3_eps,2022.2.5,Win32,59.99520038,6113cd5e3287b5f60b4c40f8,64aea9d0f615b6559c281482,64becb8cd46277fbb2b17f18,right,-1,0.3,0.4357,5,-0.003219689,0.1651,,,,,,235,0,235,0,1,,,,,
,,892871,001,2023-07-24_21h08.44.203,arm3_eps,2022.2.5,Win32,59.99520038,6113cd5e3287b5f60b4c40f8,64aea9d0f615b6559c281482,64becb8cd46277fbb2b17f18,right,-1,0.3,0.4357,5,-0.034257465,0.1652,,,,,,236,0,236,0,1,,,,,
,,892871,001,2023-07-24_21h08.44.203,arm3_eps,2022.2.5,Win32,59.99520038,6113cd5e3287b5f60b4c40f8,64aea9d0f615b6559c281482,64becb8cd46277fbb2b17f18,right,-1,0.3,0.4357,5,-0.047317372,0.1348,,,,,,237,0,237,0,1,,,,,
,,892871,001,2023-07-24_21h08.44.203,arm3_eps,2022.2.5,Win32,59.99520038,6113cd5e3287b5f60b4c40f8,64aea9d0f615b6559c281482,64becb8cd46277fbb2b17f18,right,-1,0.3,0.4357,5,-0.046896505,0.2125,,,,,,238,0,238,0,1,,,,,
,,892871,001,2023-07-24_21h08.44.203,arm3_eps,2022.2.5,Win32,59.99520038,6113cd5e3287b5f60b4c40f8,64aea9d0f615b6559c281482,64becb8cd46277fbb2b17f18,right,-1,0.3,0.4357,5,-0.04866592,0.1638,,,,,,239,0,239,0,1,,,,,
,,892871,001,2023-07-24_21h08.44.203,arm3_eps,2022.2.5,Win32,59.99520038,6113cd5e3287b5f60b4c40f8,64aea9d0f615b6559c281482,64becb8cd46277fbb2b17f18,right,-1,0.3,0.4357,5,-0.074943797,0.1812,,,,,,240,0,240,0,1,,,,,
,,892871,001,2023-07-24_21h08.44.203,arm3_eps,2022.2.5,Win32,59.99520038,6113cd5e3287b5f60b4c40f8,64aea9d0f615b6559c281482,64becb8cd46277fbb2b17f18,right,-1,0.3,0.4357,5,-0.085704919,0.1555,,,,,,241,0,241,0,1,,,,,
,,892871,001,2023-07-24_21h08.44.203,arm3_eps,2022.2.5,Win32,59.99520038,6113cd5e3287b5f60b4c40f8,64aea9d0f615b6559c281482,64becb8cd46277fbb2b17f18,up,-1,0.3,0.4357,5,0,1.4467,,,,,,242,0,242,0,1,,,,,
,,892871,001,2023-07-24_21h08.44.203,arm3_eps,2022.2.5,Win32,59.99520038,6113cd5e3287b5f60b4c40f8,64aea9d0f615b6559c281482,64becb8cd46277fbb2b17f18,right,-1,0.3,0.4357,5,-0.001775443,0.6908,,,,,,243,0,243,0,1,,,,,
,,892871,001,2023-07-24_21h08.44.203,arm3_eps,2022.2.5,Win32,59.99520038,6113cd5e3287b5f60b4c40f8,64aea9d0f615b6559c281482,64becb8cd46277fbb2b17f18,right,-1,0.3,0.4357,5,-0.007530067,0.1648,,,,,,244,0,244,0,1,,,,,
,,892871,001,2023-07-24_21h08.44.203,arm3_eps,2022.2.5,Win32,59.99520038,6113cd5e3287b5f60b4c40f8,64aea9d0f615b6559c281482,64becb8cd46277fbb2b17f18,right,-1,0.3,0.4357,5,-0.013922726,0.197,,,,,,245,0,245,0,1,,,,,
,,892871,001,2023-07-24_21h08.44.203,arm3_eps,2022.2.5,Win32,59.99520038,6113cd5e3287b5f60b4c40f8,64aea9d0f615b6559c281482,64becb8cd46277fbb2b17f18,right,-1,0.3,0.4357,5,-0.013576537,0.1336,,,,,,246,0,246,0,1,,,,,
,,892871,001,2023-07-24_21h08.44.203,arm3_eps,2022.2.5,Win32,59.99520038,6113cd5e3287b5f60b4c40f8,64aea9d0f615b6559c281482,64becb8cd46277fbb2b17f18,right,-1,0.3,0.4357,5,0.001019899,0.3483,,,,,,247,0,247,0,1,,,,,
,,892871,001,2023-07-24_21h08.44.203,arm3_eps,2022.2.5,Win32,59.99520038,6113cd5e3287b5f60b4c40f8,64aea9d0f615b6559c281482,64becb8cd46277fbb2b17f18,right,-1,0.3,0.4357,5,-0.030002895,0.1819,,,,,,248,0,248,0,1,,,,,
,,892871,001,2023-07-24_21h08.44.203,arm3_eps,2022.2.5,Win32,59.99520038,6113cd5e3287b5f60b4c40f8,64aea9d0f615b6559c281482,64becb8cd46277fbb2b17f18,right,-1,0.3,0.4357,5,-0.05580828,0.161,,,,,,249,0,249,0,1,,,,,
,,892871,001,2023-07-24_21h08.44.203,arm3_eps,2022.2.5,Win32,59.99520038,6113cd5e3287b5f60b4c40f8,64aea9d0f615b6559c281482,64becb8cd46277fbb2b17f18,right,-1,0.3,0.4357,5,-0.083754437,0.179,,,,,,250,0,250,0,1,,,,,
,,892871,001,2023-07-24_21h08.44.203,arm3_eps,2022.2.5,Win32,59.99520038,6113cd5e3287b5f60b4c40f8,64aea9d0f615b6559c281482,64becb8cd46277fbb2b17f18,right,-1,0.3,0.4357,5,-0.101859799,0.1519,,,,,,251,0,251,0,1,,,,,
,,892871,001,2023-07-24_21h08.44.203,arm3_eps,2022.2.5,Win32,59.99520038,6113cd5e3287b5f60b4c40f8,64aea9d0f615b6559c281482,64becb8cd46277fbb2b17f18,right,-1,0.3,0.4357,5,-0.106506247,0.1702,,,,,,252,0,252,0,1,,,,,
,,892871,001,2023-07-24_21h08.44.203,arm3_eps,2022.2.5,Win32,59.99520038,6113cd5e3287b5f60b4c40f8,64aea9d0f615b6559c281482,64becb8cd46277fbb2b17f18,right,-1,0.3,0.4357,5,-0.128450508,0.1661,,,,,,253,0,253,0,1,,,,,
,,892871,001,2023-07-24_21h08.44.203,arm3_eps,2022.2.5,Win32,59.99520038,6113cd5e3287b5f60b4c40f8,64aea9d0f615b6559c281482,64becb8cd46277fbb2b17f18,right,-1,0.3,0.4357,5,-0.116623306,0.3395,,,,,,254,0,254,0,1,,,,,
,,892871,001,2023-07-24_21h08.44.203,arm3_eps,2022.2.5,Win32,59.99520038,6113cd5e3287b5f60b4c40f8,64aea9d0f615b6559c281482,64becb8cd46277fbb2b17f18,down,-1,0.3,0.4357,6,0,0.6835,,,,,,255,0,255,0,1,,,,,
,,892871,001,2023-07-24_21h08.44.203,arm3_eps,2022.2.5,Win32,59.99520038,6113cd5e3287b5f60b4c40f8,64aea9d0f615b6559c281482,64becb8cd46277fbb2b17f18,right,-1,0.3,0.4357,6,-0.035344372,0.5164,,,,,,256,0,256,0,1,,,,,
,,892871,001,2023-07-24_21h08.44.203,arm3_eps,2022.2.5,Win32,59.99520038,6113cd5e3287b5f60b4c40f8,64aea9d0f615b6559c281482,64becb8cd46277fbb2b17f18,right,-1,0.3,0.4357,6,-0.07931423,0.1696,,,,,,257,0,257,0,1,,,,,
,,892871,001,2023-07-24_21h08.44.203,arm3_eps,2022.2.5,Win32,59.99520038,6113cd5e3287b5f60b4c40f8,64aea9d0f615b6559c281482,64becb8cd46277fbb2b17f18,right,-1,0.3,0.4357,6,-0.096054618,0.1715,,,,,,258,0,258,0,1,,,,,
,,892871,001,2023-07-24_21h08.44.203,arm3_eps,2022.2.5,Win32,59.99520038,6113cd5e3287b5f60b4c40f8,64aea9d0f615b6559c281482,64becb8cd46277fbb2b17f18,right,-1,0.3,0.4357,6,-0.108005956,0.1683,,,,,,259,0,259,0,1,,,,,
,,892871,001,2023-07-24_21h08.44.203,arm3_eps,2022.2.5,Win32,59.99520038,6113cd5e3287b5f60b4c40f8,64aea9d0f615b6559c281482,64becb8cd46277fbb2b17f18,right,-1,0.3,0.4357,6,-0.123891582,0.1835,,,,,,260,0,260,0,1,,,,,
,,892871,001,2023-07-24_21h08.44.203,arm3_eps,2022.2.5,Win32,59.99520038,6113cd5e3287b5f60b4c40f8,64aea9d0f615b6559c281482,64becb8cd46277fbb2b17f18,right,-1,0.3,0.4357,6,-0.114417146,0.1486,,,,,,261,0,261,0,1,,,,,
,,892871,001,2023-07-24_21h08.44.203,arm3_eps,2022.2.5,Win32,59.99520038,6113cd5e3287b5f60b4c40f8,64aea9d0f615b6559c281482,64becb8cd46277fbb2b17f18,right,-1,0.3,0.4357,6,-0.133172143,0.1505,,,,,,262,0,262,0,1,,,,,
,,892871,001,2023-07-24_21h08.44.203,arm3_eps,2022.2.5,Win32,59.99520038,6113cd5e3287b5f60b4c40f8,64aea9d0f615b6559c281482,64becb8cd46277fbb2b17f18,right,-1,0.3,0.4357,6,-0.163430381,0.1684,,,,,,263,0,263,0,1,,,,,
,,892871,001,2023-07-24_21h08.44.203,arm3_eps,2022.2.5,Win32,59.99520038,6113cd5e3287b5f60b4c40f8,64aea9d0f615b6559c281482,64becb8cd46277fbb2b17f18,right,-1,0.3,0.4357,6,-0.124957464,0.1484,,,,,,264,0,264,0,1,,,,,
,,892871,001,2023-07-24_21h08.44.203,arm3_eps,2022.2.5,Win32,59.99520038,6113cd5e3287b5f60b4c40f8,64aea9d0f615b6559c281482,64becb8cd46277fbb2b17f18,right,-1,0.3,0.4357,6,-0.128005305,0.1517,,,,,,265,0,265,0,1,,,,,
,,892871,001,2023-07-24_21h08.44.203,arm3_eps,2022.2.5,Win32,59.99520038,6113cd5e3287b5f60b4c40f8,64aea9d0f615b6559c281482,64becb8cd46277fbb2b17f18,right,-1,0.3,0.4357,6,-0.140510136,0.1789,,,,,,266,0,266,0,1,,,,,
,,892871,001,2023-07-24_21h08.44.203,arm3_eps,2022.2.5,Win32,59.99520038,6113cd5e3287b5f60b4c40f8,64aea9d0f615b6559c281482,64becb8cd46277fbb2b17f18,right,-1,0.3,0.4357,6,-0.149412662,0.2197,,,,,,267,0,267,0,1,,,,,
,,892871,001,2023-07-24_21h08.44.203,arm3_eps,2022.2.5,Win32,59.99520038,6113cd5e3287b5f60b4c40f8,64aea9d0f615b6559c281482,64becb8cd46277fbb2b17f18,down,1,0.3,0.4357,6,0,1.3071,,,,,,268,0,268,0,1,,,,,
,,892871,001,2023-07-24_21h08.44.203,arm3_eps,2022.2.5,Win32,59.99520038,6113cd5e3287b5f60b4c40f8,64aea9d0f615b6559c281482,64becb8cd46277fbb2b17f18,right,1,0.3,0.4357,6,-0.000204671,0.469,,,,,,269,0,269,0,1,,,,,
,,892871,001,2023-07-24_21h08.44.203,arm3_eps,2022.2.5,Win32,59.99520038,6113cd5e3287b5f60b4c40f8,64aea9d0f615b6559c281482,64becb8cd46277fbb2b17f18,right,1,0.3,0.4357,6,-0.018605212,0.167,,,,,,270,0,270,0,1,,,,,
,,892871,001,2023-07-24_21h08.44.203,arm3_eps,2022.2.5,Win32,59.99520038,6113cd5e3287b5f60b4c40f8,64aea9d0f615b6559c281482,64becb8cd46277fbb2b17f18,right,1,0.3,0.4357,6,-0.026330502,0.1674,,,,,,271,0,271,0,1,,,,,
,,892871,001,2023-07-24_21h08.44.203,arm3_eps,2022.2.5,Win32,59.99520038,6113cd5e3287b5f60b4c40f8,64aea9d0f615b6559c281482,64becb8cd46277fbb2b17f18,right,1,0.3,0.4357,6,-0.01477136,0.1701,,,,,,272,0,272,0,1,,,,,
,,892871,001,2023-07-24_21h08.44.203,arm3_eps,2022.2.5,Win32,59.99520038,6113cd5e3287b5f60b4c40f8,64aea9d0f615b6559c281482,64becb8cd46277fbb2b17f18,right,1,0.3,0.4357,6,0.000458382,0.2182,,,,,,273,0,273,0,1,,,,,
,,892871,001,2023-07-24_21h08.44.203,arm3_eps,2022.2.5,Win32,59.99520038,6113cd5e3287b5f60b4c40f8,64aea9d0f615b6559c281482,64becb8cd46277fbb2b17f18,right,1,0.3,0.4357,6,0.007957851,0.1321,,,,,,274,0,274,0,1,,,,,
,,892871,001,2023-07-24_21h08.44.203,arm3_eps,2022.2.5,Win32,59.99520038,6113cd5e3287b5f60b4c40f8,64aea9d0f615b6559c281482,64becb8cd46277fbb2b17f18,right,1,0.3,0.4357,6,0.031241031,0.0993,,,,,,275,0,275,0,1,,,,,
,,892871,001,2023-07-24_21h08.44.203,arm3_eps,2022.2.5,Win32,59.99520038,6113cd5e3287b5f60b4c40f8,64aea9d0f615b6559c281482,64becb8cd46277fbb2b17f18,right,1,0.3,0.4357,6,0.012171765,0.0865,,,,,,276,0,276,0,1,,,,,
,,892871,001,2023-07-24_21h08.44.203,arm3_eps,2022.2.5,Win32,59.99520038,6113cd5e3287b5f60b4c40f8,64aea9d0f615b6559c281482,64becb8cd46277fbb2b17f18,right,1,0.3,0.4357,6,0.002716835,0.1833,,,,,,277,0,277,0,1,,,,,
,,892871,001,2023-07-24_21h08.44.203,arm3_eps,2022.2.5,Win32,59.99520038,6113cd5e3287b5f60b4c40f8,64aea9d0f615b6559c281482,64becb8cd46277fbb2b17f18,right,1,0.3,0.4357,6,0.02635396,0.1864,,,,,,278,0,278,0,1,,,,,
,,892871,001,2023-07-24_21h08.44.203,arm3_eps,2022.2.5,Win32,59.99520038,6113cd5e3287b5f60b4c40f8,64aea9d0f615b6559c281482,64becb8cd46277fbb2b17f18,right,1,0.3,0.4357,6,0.079339636,0.1847,,,,,,279,0,279,0,1,,,,,
,,892871,001,2023-07-24_21h08.44.203,arm3_eps,2022.2.5,Win32,59.99520038,6113cd5e3287b5f60b4c40f8,64aea9d0f615b6559c281482,64becb8cd46277fbb2b17f18,right,1,0.3,0.4357,6,0.095044596,0.1845,,,,,,280,0,280,0,1,,,,,
,,892871,001,2023-07-24_21h08.44.203,arm3_eps,2022.2.5,Win32,59.99520038,6113cd5e3287b5f60b4c40f8,64aea9d0f615b6559c281482,64becb8cd46277fbb2b17f18,up,1,0.3,0.4357,6,0,0.6622,,,,,,281,0,281,0,1,,,,,
,,892871,001,2023-07-24_21h08.44.203,arm3_eps,2022.2.5,Win32,59.99520038,6113cd5e3287b5f60b4c40f8,64aea9d0f615b6559c281482,64becb8cd46277fbb2b17f18,right,1,0.3,0.4357,6,0.082468214,0.8628,,,,,,282,0,282,0,1,,,,,
,,892871,001,2023-07-24_21h08.44.203,arm3_eps,2022.2.5,Win32,59.99520038,6113cd5e3287b5f60b4c40f8,64aea9d0f615b6559c281482,64becb8cd46277fbb2b17f18,right,1,0.3,0.4357,6,0.113907975,0.1833,,,,,,283,0,283,0,1,,,,,
,,892871,001,2023-07-24_21h08.44.203,arm3_eps,2022.2.5,Win32,59.99520038,6113cd5e3287b5f60b4c40f8,64aea9d0f615b6559c281482,64becb8cd46277fbb2b17f18,right,1,0.3,0.4357,6,0.132257833,0.17,,,,,,284,0,284,0,1,,,,,
,,892871,001,2023-07-24_21h08.44.203,arm3_eps,2022.2.5,Win32,59.99520038,6113cd5e3287b5f60b4c40f8,64aea9d0f615b6559c281482,64becb8cd46277fbb2b17f18,right,1,0.3,0.4357,6,0.150471457,0.1727,,,,,,285,0,285,0,1,,,,,
,,892871,001,2023-07-24_21h08.44.203,arm3_eps,2022.2.5,Win32,59.99520038,6113cd5e3287b5f60b4c40f8,64aea9d0f615b6559c281482,64becb8cd46277fbb2b17f18,right,1,0.3,0.4357,6,0.154332122,0.1845,,,,,,286,0,286,0,1,,,,,
,,892871,001,2023-07-24_21h08.44.203,arm3_eps,2022.2.5,Win32,59.99520038,6113cd5e3287b5f60b4c40f8,64aea9d0f615b6559c281482,64becb8cd46277fbb2b17f18,right,1,0.3,0.4357,6,0.157652539,0.1674,,,,,,287,0,287,0,1,,,,,
,,892871,001,2023-07-24_21h08.44.203,arm3_eps,2022.2.5,Win32,59.99520038,6113cd5e3287b5f60b4c40f8,64aea9d0f615b6559c281482,64becb8cd46277fbb2b17f18,right,1,0.3,0.4357,6,0.182493516,0.1822,,,,,,288,0,288,0,1,,,,,
,,892871,001,2023-07-24_21h08.44.203,arm3_eps,2022.2.5,Win32,59.99520038,6113cd5e3287b5f60b4c40f8,64aea9d0f615b6559c281482,64becb8cd46277fbb2b17f18,right,1,0.3,0.4357,6,0.195841273,0.183,,,,,,289,0,289,0,1,,,,,
,,892871,001,2023-07-24_21h08.44.203,arm3_eps,2022.2.5,Win32,59.99520038,6113cd5e3287b5f60b4c40f8,64aea9d0f615b6559c281482,64becb8cd46277fbb2b17f18,right,1,0.3,0.4357,6,0.192137052,0.1659,,,,,,290,0,290,0,1,,,,,
,,892871,001,2023-07-24_21h08.44.203,arm3_eps,2022.2.5,Win32,59.99520038,6113cd5e3287b5f60b4c40f8,64aea9d0f615b6559c281482,64becb8cd46277fbb2b17f18,right,1,0.3,0.4357,6,0.186427957,0.1641,,,,,,291,0,291,0,1,,,,,
,,892871,001,2023-07-24_21h08.44.203,arm3_eps,2022.2.5,Win32,59.99520038,6113cd5e3287b5f60b4c40f8,64aea9d0f615b6559c281482,64becb8cd46277fbb2b17f18,right,1,0.3,0.4357,6,0.203401354,0.1867,,,,,,292,0,292,0,1,,,,,
,,892871,001,2023-07-24_21h08.44.203,arm3_eps,2022.2.5,Win32,59.99520038,6113cd5e3287b5f60b4c40f8,64aea9d0f615b6559c281482,64becb8cd46277fbb2b17f18,right,1,0.3,0.4357,6,0.201178338,0.1964,,,,,,293,0,293,0,1,,,,,
,,892871,001,2023-07-24_21h08.44.203,arm3_eps,2022.2.5,Win32,59.99520038,6113cd5e3287b5f60b4c40f8,64aea9d0f615b6559c281482,64becb8cd46277fbb2b17f18,down,1,0.3,0.4357,6,0,1.0214,,,,,,294,0,294,0,1,,,,,
,,892871,001,2023-07-24_21h08.44.203,arm3_eps,2022.2.5,Win32,59.99520038,6113cd5e3287b5f60b4c40f8,64aea9d0f615b6559c281482,64becb8cd46277fbb2b17f18,right,1,0.3,0.4357,6,-0.002390442,0.3531,,,,,,295,0,295,0,1,,,,,
,,892871,001,2023-07-24_21h08.44.203,arm3_eps,2022.2.5,Win32,59.99520038,6113cd5e3287b5f60b4c40f8,64aea9d0f615b6559c281482,64becb8cd46277fbb2b17f18,right,1,0.3,0.4357,6,0.014847551,0.1833,,,,,,296,0,296,0,1,,,,,
,,892871,001,2023-07-24_21h08.44.203,arm3_eps,2022.2.5,Win32,59.99520038,6113cd5e3287b5f60b4c40f8,64aea9d0f615b6559c281482,64becb8cd46277fbb2b17f18,right,1,0.3,0.4357,6,-0.008805953,0.1839,,,,,,297,0,297,0,1,,,,,
,,892871,001,2023-07-24_21h08.44.203,arm3_eps,2022.2.5,Win32,59.99520038,6113cd5e3287b5f60b4c40f8,64aea9d0f615b6559c281482,64becb8cd46277fbb2b17f18,right,1,0.3,0.4357,6,0.030182114,0.1692,,,,,,298,0,298,0,1,,,,,
,,892871,001,2023-07-24_21h08.44.203,arm3_eps,2022.2.5,Win32,59.99520038,6113cd5e3287b5f60b4c40f8,64aea9d0f615b6559c281482,64becb8cd46277fbb2b17f18,right,1,0.3,0.4357,6,0.048204968,0.1664,,,,,,299,0,299,0,1,,,,,
,,892871,001,2023-07-24_21h08.44.203,arm3_eps,2022.2.5,Win32,59.99520038,6113cd5e3287b5f60b4c40f8,64aea9d0f615b6559c281482,64becb8cd46277fbb2b17f18,right,1,0.3,0.4357,6,0.06953254,0.1508,,,,,,300,0,300,0,1,,,,,
,,892871,001,2023-07-24_21h08.44.203,arm3_eps,2022.2.5,Win32,59.99520038,6113cd5e3287b5f60b4c40f8,64aea9d0f615b6559c281482,64becb8cd46277fbb2b17f18,right,1,0.3,0.4357,6,0.044005501,0.1662,,,,,,301,0,301,0,1,,,,,
,,892871,001,2023-07-24_21h08.44.203,arm3_eps,2022.2.5,Win32,59.99520038,6113cd5e3287b5f60b4c40f8,64aea9d0f615b6559c281482,64becb8cd46277fbb2b17f18,right,1,0.3,0.4357,6,0.023456573,0.1849,,,,,,302,0,302,0,1,,,,,
,,892871,001,2023-07-24_21h08.44.203,arm3_eps,2022.2.5,Win32,59.99520038,6113cd5e3287b5f60b4c40f8,64aea9d0f615b6559c281482,64becb8cd46277fbb2b17f18,right,1,0.3,0.4357,6,-0.014083857,0.1686,,,,,,303,0,303,0,1,,,,,
,,892871,001,2023-07-24_21h08.44.203,arm3_eps,2022.2.5,Win32,59.99520038,6113cd5e3287b5f60b4c40f8,64aea9d0f615b6559c281482,64becb8cd46277fbb2b17f18,right,1,0.3,0.4357,6,-0.002105383,0.1704,,,,,,304,0,304,0,1,,,,,
,,892871,001,2023-07-24_21h08.44.203,arm3_eps,2022.2.5,Win32,59.99520038,6113cd5e3287b5f60b4c40f8,64aea9d0f615b6559c281482,64becb8cd46277fbb2b17f18,right,1,0.3,0.4357,6,0.006042332,0.1992,,,,,,305,0,305,0,1,,,,,
,,892871,001,2023-07-24_21h08.44.203,arm3_eps,2022.2.5,Win32,59.99520038,6113cd5e3287b5f60b4c40f8,64aea9d0f615b6559c281482,64becb8cd46277fbb2b17f18,right,1,0.3,0.4357,6,0.033136667,0.1662,,,,,,306,0,306,0,1,,,,,
,,892871,001,2023-07-24_21h08.44.203,arm3_eps,2022.2.5,Win32,59.99520038,6113cd5e3287b5f60b4c40f8,64aea9d0f615b6559c281482,64becb8cd46277fbb2b17f18,up,-1,0.3,0.4357,6,0,0.7323,,,,,,307,0,307,0,1,,,,,
,,892871,001,2023-07-24_21h08.44.203,arm3_eps,2022.2.5,Win32,59.99520038,6113cd5e3287b5f60b4c40f8,64aea9d0f615b6559c281482,64becb8cd46277fbb2b17f18,right,-1,0.3,0.4357,6,0.012996158,0.3268,,,,,,308,0,308,0,1,,,,,
,,892871,001,2023-07-24_21h08.44.203,arm3_eps,2022.2.5,Win32,59.99520038,6113cd5e3287b5f60b4c40f8,64aea9d0f615b6559c281482,64becb8cd46277fbb2b17f18,right,-1,0.3,0.4357,6,0.007380478,0.1782,,,,,,309,0,309,0,1,,,,,
,,892871,001,2023-07-24_21h08.44.203,arm3_eps,2022.2.5,Win32,59.99520038,6113cd5e3287b5f60b4c40f8,64aea9d0f615b6559c281482,64becb8cd46277fbb2b17f18,right,-1,0.3,0.4357,6,-0.015353687,0.1802,,,,,,310,0,310,0,1,,,,,
,,892871,001,2023-07-24_21h08.44.203,arm3_eps,2022.2.5,Win32,59.99520038,6113cd5e3287b5f60b4c40f8,64aea9d0f615b6559c281482,64becb8cd46277fbb2b17f18,right,-1,0.3,0.4357,6,-0.036577932,0.1799,,,,,,311,0,311,0,1,,,,,
,,892871,001,2023-07-24_21h08.44.203,arm3_eps,2022.2.5,Win32,59.99520038,6113cd5e3287b5f60b4c40f8,64aea9d0f615b6559c281482,64becb8cd46277fbb2b17f18,right,-1,0.3,0.4357,6,-0.016747081,0.1643,,,,,,312,0,312,0,1,,,,,
,,892871,001,2023-07-24_21h08.44.203,arm3_eps,2022.2.5,Win32,59.99520038,6113cd5e3287b5f60b4c40f8,64aea9d0f615b6559c281482,64becb8cd46277fbb2b17f18,right,-1,0.3,0.4357,6,-0.010199395,0.1648,,,,,,313,0,313,0,1,,,,,
,,892871,001,2023-07-24_21h08.44.203,arm3_eps,2022.2.5,Win32,59.99520038,6113cd5e3287b5f60b4c40f8,64aea9d0f615b6559c281482,64becb8cd46277fbb2b17f18,right,-1,0.3,0.4357,6,-0.014583586,0.1694,,,,,,314,0,314,0,1,,,,,
,,892871,001,2023-07-24_21h08.44.203,arm3_eps,2022.2.5,Win32,59.99520038,6113cd5e3287b5f60b4c40f8,64aea9d0f615b6559c281482,64becb8cd46277fbb2b17f18,right,-1,0.3,0.4357,6,-0.014220335,0.1638,,,,,,315,0,315,0,1,,,,,
,,892871,001,2023-07-24_21h08.44.203,arm3_eps,2022.2.5,Win32,59.99520038,6113cd5e3287b5f60b4c40f8,64aea9d0f615b6559c281482,64becb8cd46277fbb2b17f18,right,-1,0.3,0.4357,6,-0.007460094,0.1693,,,,,,316,0,316,0,1,,,,,
,,892871,001,2023-07-24_21h08.44.203,arm3_eps,2022.2.5,Win32,59.99520038,6113cd5e3287b5f60b4c40f8,64aea9d0f615b6559c281482,64becb8cd46277fbb2b17f18,right,-1,0.3,0.4357,6,-0.003764255,0.1828,,,,,,317,0,317,0,1,,,,,
,,892871,001,2023-07-24_21h08.44.203,arm3_eps,2022.2.5,Win32,59.99520038,6113cd5e3287b5f60b4c40f8,64aea9d0f615b6559c281482,64becb8cd46277fbb2b17f18,right,-1,0.3,0.4357,6,-0.024533755,0.1652,,,,,,318,0,318,0,1,,,,,
,,892871,001,2023-07-24_21h08.44.203,arm3_eps,2022.2.5,Win32,59.99520038,6113cd5e3287b5f60b4c40f8,64aea9d0f615b6559c281482,64becb8cd46277fbb2b17f18,right,-1,0.3,0.4357,6,-0.045234755,0.166,,,,,,319,0,319,0,1,,,,,
,,892871,001,2023-07-24_21h08.44.203,arm3_eps,2022.2.5,Win32,59.99520038,6113cd5e3287b5f60b4c40f8,64aea9d0f615b6559c281482,64becb8cd46277fbb2b17f18,down,-1,0.3,0.4357,6,0,0.8015,,,,,,320,0,320,0,1,,,,,
,,892871,001,2023-07-24_21h08.44.203,arm3_eps,2022.2.5,Win32,59.99520038,6113cd5e3287b5f60b4c40f8,64aea9d0f615b6559c281482,64becb8cd46277fbb2b17f18,right,-1,0.3,0.4357,6,-0.028529305,0.2504,,,,,,321,0,321,0,1,,,,,
,,892871,001,2023-07-24_21h08.44.203,arm3_eps,2022.2.5,Win32,59.99520038,6113cd5e3287b5f60b4c40f8,64aea9d0f615b6559c281482,64becb8cd46277fbb2b17f18,right,-1,0.3,0.4357,6,-0.043415301,0.1836,,,,,,322,0,322,0,1,,,,,
,,892871,001,2023-07-24_21h08.44.203,arm3_eps,2022.2.5,Win32,59.99520038,6113cd5e3287b5f60b4c40f8,64aea9d0f615b6559c281482,64becb8cd46277fbb2b17f18,right,-1,0.3,0.4357,6,-0.03214939,0.2009,,,,,,323,0,323,0,1,,,,,
,,892871,001,2023-07-24_21h08.44.203,arm3_eps,2022.2.5,Win32,59.99520038,6113cd5e3287b5f60b4c40f8,64aea9d0f615b6559c281482,64becb8cd46277fbb2b17f18,right,-1,0.3,0.4357,6,-0.040341686,0.151,,,,,,324,0,324,0,1,,,,,
,,892871,001,2023-07-24_21h08.44.203,arm3_eps,2022.2.5,Win32,59.99520038,6113cd5e3287b5f60b4c40f8,64aea9d0f615b6559c281482,64becb8cd46277fbb2b17f18,right,-1,0.3,0.4357,6,-0.044331529,0.1846,,,,,,325,0,325,0,1,,,,,
,,892871,001,2023-07-24_21h08.44.203,arm3_eps,2022.2.5,Win32,59.99520038,6113cd5e3287b5f60b4c40f8,64aea9d0f615b6559c281482,64becb8cd46277fbb2b17f18,right,-1,0.3,0.4357,6,-0.032397338,0.1665,,,,,,326,0,326,0,1,,,,,
,,892871,001,2023-07-24_21h08.44.203,arm3_eps,2022.2.5,Win32,59.99520038,6113cd5e3287b5f60b4c40f8,64aea9d0f615b6559c281482,64becb8cd46277fbb2b17f18,right,-1,0.3,0.4357,6,-0.044099045,0.1707,,,,,,327,0,327,0,1,,,,,
,,892871,001,2023-07-24_21h08.44.203,arm3_eps,2022.2.5,Win32,59.99520038,6113cd5e3287b5f60b4c40f8,64aea9d0f615b6559c281482,64becb8cd46277fbb2b17f18,right,-1,0.3,0.4357,6,-0.050712428,0.1653,,,,,,328,0,328,0,1,,,,,
,,892871,001,2023-07-24_21h08.44.203,arm3_eps,2022.2.5,Win32,59.99520038,6113cd5e3287b5f60b4c40f8,64aea9d0f615b6559c281482,64becb8cd46277fbb2b17f18,right,-1,0.3,0.4357,6,-0.057607329,0.1713,,,,,,329,0,329,0,1,,,,,
,,892871,001,2023-07-24_21h08.44.203,arm3_eps,2022.2.5,Win32,59.99520038,6113cd5e3287b5f60b4c40f8,64aea9d0f615b6559c281482,64becb8cd46277fbb2b17f18,right,-1,0.3,0.4357,6,-0.073459211,0.1647,,,,,,330,0,330,0,1,,,,,
,,892871,001,2023-07-24_21h08.44.203,arm3_eps,2022.2.5,Win32,59.99520038,6113cd5e3287b5f60b4c40f8,64aea9d0f615b6559c281482,64becb8cd46277fbb2b17f18,right,-1,0.3,0.4357,6,-0.055766876,0.1843,,,,,,331,0,331,0,1,,,,,
,,892871,001,2023-07-24_21h08.44.203,arm3_eps,2022.2.5,Win32,59.99520038,6113cd5e3287b5f60b4c40f8,64aea9d0f615b6559c281482,64becb8cd46277fbb2b17f18,right,-1,0.3,0.4357,6,-0.038334715,0.1681,,,,,,332,0,332,0,1,,,,,
,,892871,001,2023-07-24_21h08.44.203,arm3_eps,2022.2.5,Win32,59.99520038,6113cd5e3287b5f60b4c40f8,64aea9d0f615b6559c281482,64becb8cd46277fbb2b17f18,down,1,0.3,0.4357,6,0,0.8176,,,,,,333,0,333,0,1,,,,,
,,892871,001,2023-07-24_21h08.44.203,arm3_eps,2022.2.5,Win32,59.99520038,6113cd5e3287b5f60b4c40f8,64aea9d0f615b6559c281482,64becb8cd46277fbb2b17f18,right,1,0.3,0.4357,6,0.000950957,0.2997,,,,,,334,0,334,0,1,,,,,
,,892871,001,2023-07-24_21h08.44.203,arm3_eps,2022.2.5,Win32,59.99520038,6113cd5e3287b5f60b4c40f8,64aea9d0f615b6559c281482,64becb8cd46277fbb2b17f18,right,1,0.3,0.4357,6,0.044795452,0.1818,,,,,,335,0,335,0,1,,,,,
,,892871,001,2023-07-24_21h08.44.203,arm3_eps,2022.2.5,Win32,59.99520038,6113cd5e3287b5f60b4c40f8,64aea9d0f615b6559c281482,64becb8cd46277fbb2b17f18,right,1,0.3,0.4357,6,0.052999493,0.1813,,,,,,336,0,336,0,1,,,,,
,,892871,001,2023-07-24_21h08.44.203,arm3_eps,2022.2.5,Win32,59.99520038,6113cd5e3287b5f60b4c40f8,64aea9d0f615b6559c281482,64becb8cd46277fbb2b17f18,right,1,0.3,0.4357,6,0.049041701,0.167,,,,,,337,0,337,0,1,,,,,
,,892871,001,2023-07-24_21h08.44.203,arm3_eps,2022.2.5,Win32,59.99520038,6113cd5e3287b5f60b4c40f8,64aea9d0f615b6559c281482,64becb8cd46277fbb2b17f18,right,1,0.3,0.4357,6,0.073646854,0.1834,,,,,,338,0,338,0,1,,,,,
,,892871,001,2023-07-24_21h08.44.203,arm3_eps,2022.2.5,Win32,59.99520038,6113cd5e3287b5f60b4c40f8,64aea9d0f615b6559c281482,64becb8cd46277fbb2b17f18,right,1,0.3,0.4357,6,0.103451218,0.1673,,,,,,339,0,339,0,1,,,,,
,,892871,001,2023-07-24_21h08.44.203,arm3_eps,2022.2.5,Win32,59.99520038,6113cd5e3287b5f60b4c40f8,64aea9d0f615b6559c281482,64becb8cd46277fbb2b17f18,right,1,0.3,0.4357,6,0.092965346,0.1843,,,,,,340,0,340,0,1,,,,,
,,892871,001,2023-07-24_21h08.44.203,arm3_eps,2022.2.5,Win32,59.99520038,6113cd5e3287b5f60b4c40f8,64aea9d0f615b6559c281482,64becb8cd46277fbb2b17f18,right,1,0.3,0.4357,6,0.088698197,0.1686,,,,,,341,0,341,0,1,,,,,
,,892871,001,2023-07-24_21h08.44.203,arm3_eps,2022.2.5,Win32,59.99520038,6113cd5e3287b5f60b4c40f8,64aea9d0f615b6559c281482,64becb8cd46277fbb2b17f18,right,1,0.3,0.4357,6,0.094287366,0.184,,,,,,342,0,342,0,1,,,,,
,,892871,001,2023-07-24_21h08.44.203,arm3_eps,2022.2.5,Win32,59.99520038,6113cd5e3287b5f60b4c40f8,64aea9d0f615b6559c281482,64becb8cd46277fbb2b17f18,right,1,0.3,0.4357,6,0.103177301,0.1692,,,,,,343,0,343,0,1,,,,,
,,892871,001,2023-07-24_21h08.44.203,arm3_eps,2022.2.5,Win32,59.99520038,6113cd5e3287b5f60b4c40f8,64aea9d0f615b6559c281482,64becb8cd46277fbb2b17f18,right,1,0.3,0.4357,6,0.107946627,0.1799,,,,,,344,0,344,0,1,,,,,
,,892871,001,2023-07-24_21h08.44.203,arm3_eps,2022.2.5,Win32,59.99520038,6113cd5e3287b5f60b4c40f8,64aea9d0f615b6559c281482,64becb8cd46277fbb2b17f18,right,1,0.3,0.4357,6,0.121797149,0.1981,,,,,,345,0,345,0,1,,,,,
,,892871,001,2023-07-24_21h08.44.203,arm3_eps,2022.2.5,Win32,59.99520038,6113cd5e3287b5f60b4c40f8,64aea9d0f615b6559c281482,64becb8cd46277fbb2b17f18,up,-1,0.3,0.4357,7,0,0.7354,,,,,,346,0,346,0,1,,,,,
,,892871,001,2023-07-24_21h08.44.203,arm3_eps,2022.2.5,Win32,59.99520038,6113cd5e3287b5f60b4c40f8,64aea9d0f615b6559c281482,64becb8cd46277fbb2b17f18,right,-1,0.3,0.4357,7,-0.016581211,0.4454,,,,,,347,0,347,0,1,,,,,
,,892871,001,2023-07-24_21h08.44.203,arm3_eps,2022.2.5,Win32,59.99520038,6113cd5e3287b5f60b4c40f8,64aea9d0f615b6559c281482,64becb8cd46277fbb2b17f18,right,-1,0.3,0.4357,7,-0.030837985,0.1615,,,,,,348,0,348,0,1,,,,,
,,892871,001,2023-07-24_21h08.44.203,arm3_eps,2022.2.5,Win32,59.99520038,6113cd5e3287b5f60b4c40f8,64aea9d0f615b6559c281482,64becb8cd46277fbb2b17f18,right,-1,0.3,0.4357,7,-0.058891661,0.201,,,,,,349,0,349,0,1,,,,,
,,892871,001,2023-07-24_21h08.44.203,arm3_eps,2022.2.5,Win32,59.99520038,6113cd5e3287b5f60b4c40f8,64aea9d0f615b6559c281482,64becb8cd46277fbb2b17f18,right,-1,0.3,0.4357,7,-0.087847918,0.1651,,,,,,350,0,350,0,1,,,,,
,,892871,001,2023-07-24_21h08.44.203,arm3_eps,2022.2.5,Win32,59.99520038,6113cd5e3287b5f60b4c40f8,64aea9d0f615b6559c281482,64becb8cd46277fbb2b17f18,right,-1,0.3,0.4357,7,-0.131102093,0.2015,,,,,,351,0,351,0,1,,,,,
,,892871,001,2023-07-24_21h08.44.203,arm3_eps,2022.2.5,Win32,59.99520038,6113cd5e3287b5f60b4c40f8,64aea9d0f615b6559c281482,64becb8cd46277fbb2b17f18,right,-1,0.3,0.4357,7,-0.161870817,0.1818,,,,,,352,0,352,0,1,,,,,
,,892871,001,2023-07-24_21h08.44.203,arm3_eps,2022.2.5,Win32,59.99520038,6113cd5e3287b5f60b4c40f8,64aea9d0f615b6559c281482,64becb8cd46277fbb2b17f18,right,-1,0.3,0.4357,7,-0.149967197,0.1658,,,,,,353,0,353,0,1,,,,,
,,892871,001,2023-07-24_21h08.44.203,arm3_eps,2022.2.5,Win32,59.99520038,6113cd5e3287b5f60b4c40f8,64aea9d0f615b6559c281482,64becb8cd46277fbb2b17f18,right,-1,0.3,0.4357,7,-0.142899077,0.184,,,,,,354,0,354,0,1,,,,,
,,892871,001,2023-07-24_21h08.44.203,arm3_eps,2022.2.5,Win32,59.99520038,6113cd5e3287b5f60b4c40f8,64aea9d0f615b6559c281482,64becb8cd46277fbb2b17f18,right,-1,0.3,0.4357,7,-0.177618442,0.1856,,,,,,355,0,355,0,1,,,,,
,,892871,001,2023-07-24_21h08.44.203,arm3_eps,2022.2.5,Win32,59.99520038,6113cd5e3287b5f60b4c40f8,64aea9d0f615b6559c281482,64becb8cd46277fbb2b17f18,right,-1,0.3,0.4357,7,-0.162355695,0.1847,,,,,,356,0,356,0,1,,,,,
,,892871,001,2023-07-24_21h08.44.203,arm3_eps,2022.2.5,Win32,59.99520038,6113cd5e3287b5f60b4c40f8,64aea9d0f615b6559c281482,64becb8cd46277fbb2b17f18,right,-1,0.3,0.4357,7,-0.183527517,0.2001,,,,,,357,0,357,0,1,,,,,
,,892871,001,2023-07-24_21h08.44.203,arm3_eps,2022.2.5,Win32,59.99520038,6113cd5e3287b5f60b4c40f8,64aea9d0f615b6559c281482,64becb8cd46277fbb2b17f18,right,-1,0.3,0.4357,7,-0.213012654,0.1672,,,,,,358,0,358,0,1,,,,,
,,892871,001,2023-07-24_21h08.44.203,arm3_eps,2022.2.5,Win32,59.99520038,6113cd5e3287b5f60b4c40f8,64aea9d0f615b6559c281482,64becb8cd46277fbb2b17f18,up,1,0.3,0.4357,6,0,1.8713,,,,,,359,0,359,0,1,,,,,
,,892871,001,2023-07-24_21h08.44.203,arm3_eps,2022.2.5,Win32,59.99520038,6113cd5e3287b5f60b4c40f8,64aea9d0f615b6559c281482,64becb8cd46277fbb2b17f18,right,1,0.3,0.4357,6,0.012879861,1.2544,,,,,,360,0,360,0,1,,,,,
,,892871,001,2023-07-24_21h08.44.203,arm3_eps,2022.2.5,Win32,59.99520038,6113cd5e3287b5f60b4c40f8,64aea9d0f615b6559c281482,64becb8cd46277fbb2b17f18,right,1,0.3,0.4357,6,0.015476557,0.1669,,,,,,361,0,361,0,1,,,,,
,,892871,001,2023-07-24_21h08.44.203,arm3_eps,2022.2.5,Win32,59.99520038,6113cd5e3287b5f60b4c40f8,64aea9d0f615b6559c281482,64becb8cd46277fbb2b17f18,right,1,0.3,0.4357,6,0.031385614,0.2177,,,,,,362,0,362,0,1,,,,,
,,892871,001,2023-07-24_21h08.44.203,arm3_eps,2022.2.5,Win32,59.99520038,6113cd5e3287b5f60b4c40f8,64aea9d0f615b6559c281482,64becb8cd46277fbb2b17f18,right,1,0.3,0.4357,6,0.032570094,0.1673,,,,,,363,0,363,0,1,,,,,
,,892871,001,2023-07-24_21h08.44.203,arm3_eps,2022.2.5,Win32,59.99520038,6113cd5e3287b5f60b4c40f8,64aea9d0f615b6559c281482,64becb8cd46277fbb2b17f18,right,1,0.3,0.4357,6,0.006779829,0.2006,,,,,,364,0,364,0,1,,,,,
,,892871,001,2023-07-24_21h08.44.203,arm3_eps,2022.2.5,Win32,59.99520038,6113cd5e3287b5f60b4c40f8,64aea9d0f615b6559c281482,64becb8cd46277fbb2b17f18,right,1,0.3,0.4357,6,0.064019308,0.1717,,,,,,365,0,365,0,1,,,,,
,,892871,001,2023-07-24_21h08.44.203,arm3_eps,2022.2.5,Win32,59.99520038,6113cd5e3287b5f60b4c40f8,64aea9d0f615b6559c281482,64becb8cd46277fbb2b17f18,right,1,0.3,0.4357,6,0.077236096,0.2149,,,,,,366,0,366,0,1,,,,,
,,892871,001,2023-07-24_21h08.44.203,arm3_eps,2022.2.5,Win32,59.99520038,6113cd5e3287b5f60b4c40f8,64aea9d0f615b6559c281482,64becb8cd46277fbb2b17f18,right,1,0.3,0.4357,6,0.096729207,0.1795,,,,,,367,0,367,0,1,,,,,
,,892871,001,2023-07-24_21h08.44.203,arm3_eps,2022.2.5,Win32,59.99520038,6113cd5e3287b5f60b4c40f8,64aea9d0f615b6559c281482,64becb8cd46277fbb2b17f18,right,1,0.3,0.4357,6,0.075847026,0.2149,,,,,,368,0,368,0,1,,,,,
,,892871,001,2023-07-24_21h08.44.203,arm3_eps,2022.2.5,Win32,59.99520038,6113cd5e3287b5f60b4c40f8,64aea9d0f615b6559c281482,64becb8cd46277fbb2b17f18,right,1,0.3,0.4357,6,0.083743319,0.1806,,,,,,369,0,369,0,1,,,,,
,,892871,001,2023-07-24_21h08.44.203,arm3_eps,2022.2.5,Win32,59.99520038,6113cd5e3287b5f60b4c40f8,64aea9d0f615b6559c281482,64becb8cd46277fbb2b17f18,,,,,,,,,,,,,,,,,,0,0,0,0,1
space,4.0682,892871,001,2023-07-24_21h08.44.203,arm3_eps,2022.2.5,Win32,59.99520038,6113cd5e3287b5f60b4c40f8,64aea9d0f615b6559c281482,64becb8cd46277fbb2b17f18,right,1,0.3,0.3714,6,0.028319863,1.5898,,,,,,0,0,0,0,1,,,,,
,,892871,001,2023-07-24_21h08.44.203,arm3_eps,2022.2.5,Win32,59.99520038,6113cd5e3287b5f60b4c40f8,64aea9d0f615b6559c281482,64becb8cd46277fbb2b17f18,right,1,0.3,0.3714,6,0.009471404,1.0885,,,,,,1,0,1,0,1,,,,,
,,892871,001,2023-07-24_21h08.44.203,arm3_eps,2022.2.5,Win32,59.99520038,6113cd5e3287b5f60b4c40f8,64aea9d0f615b6559c281482,64becb8cd46277fbb2b17f18,right,1,0.3,0.3714,6,0.034283086,0.8202,,,,,,2,0,2,0,1,,,,,
,,892871,001,2023-07-24_21h08.44.203,arm3_eps,2022.2.5,Win32,59.99520038,6113cd5e3287b5f60b4c40f8,64aea9d0f615b6559c281482,64becb8cd46277fbb2b17f18,right,1,0.3,0.3714,6,0.047129438,0.1661,,,,,,3,0,3,0,1,,,,,
,,892871,001,2023-07-24_21h08.44.203,arm3_eps,2022.2.5,Win32,59.99520038,6113cd5e3287b5f60b4c40f8,64aea9d0f615b6559c281482,64becb8cd46277fbb2b17f18,right,1,0.3,0.3714,6,0.042483592,0.1497,,,,,,4,0,4,0,1,,,,,
,,892871,001,2023-07-24_21h08.44.203,arm3_eps,2022.2.5,Win32,59.99520038,6113cd5e3287b5f60b4c40f8,64aea9d0f615b6559c281482,64becb8cd46277fbb2b17f18,right,1,0.3,0.3714,6,0.054684414,0.1858,,,,,,5,0,5,0,1,,,,,
,,892871,001,2023-07-24_21h08.44.203,arm3_eps,2022.2.5,Win32,59.99520038,6113cd5e3287b5f60b4c40f8,64aea9d0f615b6559c281482,64becb8cd46277fbb2b17f18,right,1,0.3,0.3714,6,0.031772251,0.1568,,,,,,6,0,6,0,1,,,,,
,,892871,001,2023-07-24_21h08.44.203,arm3_eps,2022.2.5,Win32,59.99520038,6113cd5e3287b5f60b4c40f8,64aea9d0f615b6559c281482,64becb8cd46277fbb2b17f18,right,1,0.3,0.3714,6,0.034965304,0.1846,,,,,,7,0,7,0,1,,,,,
,,892871,001,2023-07-24_21h08.44.203,arm3_eps,2022.2.5,Win32,59.99520038,6113cd5e3287b5f60b4c40f8,64aea9d0f615b6559c281482,64becb8cd46277fbb2b17f18,right,1,0.3,0.3714,6,0.049019092,0.1819,,,,,,8,0,8,0,1,,,,,
,,892871,001,2023-07-24_21h08.44.203,arm3_eps,2022.2.5,Win32,59.99520038,6113cd5e3287b5f60b4c40f8,64aea9d0f615b6559c281482,64becb8cd46277fbb2b17f18,right,1,0.3,0.3714,6,0.029110962,0.1495,,,,,,9,0,9,0,1,,,,,
,,892871,001,2023-07-24_21h08.44.203,arm3_eps,2022.2.5,Win32,59.99520038,6113cd5e3287b5f60b4c40f8,64aea9d0f615b6559c281482,64becb8cd46277fbb2b17f18,right,1,0.3,0.3714,6,0.048746683,0.1856,,,,,,10,0,10,0,1,,,,,
,,892871,001,2023-07-24_21h08.44.203,arm3_eps,2022.2.5,Win32,59.99520038,6113cd5e3287b5f60b4c40f8,64aea9d0f615b6559c281482,64becb8cd46277fbb2b17f18,right,1,0.3,0.3714,6,0.04030736,0.1679,,,,,,11,0,11,0,1,,,,,
,,892871,001,2023-07-24_21h08.44.203,arm3_eps,2022.2.5,Win32,59.99520038,6113cd5e3287b5f60b4c40f8,64aea9d0f615b6559c281482,64becb8cd46277fbb2b17f18,up,1,0.3,0.3714,6,0,0.6717,,,,,,12,0,12,0,1,,,,,
,,892871,001,2023-07-24_21h08.44.203,arm3_eps,2022.2.5,Win32,59.99520038,6113cd5e3287b5f60b4c40f8,64aea9d0f615b6559c281482,64becb8cd46277fbb2b17f18,right,1,0.3,0.3714,6,0.033217561,0.6136,,,,,,13,0,13,0,1,,,,,
,,892871,001,2023-07-24_21h08.44.203,arm3_eps,2022.2.5,Win32,59.99520038,6113cd5e3287b5f60b4c40f8,64aea9d0f615b6559c281482,64becb8cd46277fbb2b17f18,right,1,0.3,0.3714,6,0.045887042,0.1491,,,,,,14,0,14,0,1,,,,,
,,892871,001,2023-07-24_21h08.44.203,arm3_eps,2022.2.5,Win32,59.99520038,6113cd5e3287b5f60b4c40f8,64aea9d0f615b6559c281482,64becb8cd46277fbb2b17f18,right,1,0.3,0.3714,6,0.068415277,0.1512,,,,,,15,0,15,0,1,,,,,
,,892871,001,2023-07-24_21h08.44.203,arm3_eps,2022.2.5,Win32,59.99520038,6113cd5e3287b5f60b4c40f8,64aea9d0f615b6559c281482,64becb8cd46277fbb2b17f18,right,1,0.3,0.3714,6,0.094208643,0.1676,,,,,,16,0,16,0,1,,,,,
,,892871,001,2023-07-24_21h08.44.203,arm3_eps,2022.2.5,Win32,59.99520038,6113cd5e3287b5f60b4c40f8,64aea9d0f615b6559c281482,64becb8cd46277fbb2b17f18,right,1,0.3,0.3714,6,0.127677823,0.1667,,,,,,17,0,17,0,1,,,,,
,,892871,001,2023-07-24_21h08.44.203,arm3_eps,2022.2.5,Win32,59.99520038,6113cd5e3287b5f60b4c40f8,64aea9d0f615b6559c281482,64becb8cd46277fbb2b17f18,right,1,0.3,0.3714,6,0.166252041,0.1675,,,,,,18,0,18,0,1,,,,,
,,892871,001,2023-07-24_21h08.44.203,arm3_eps,2022.2.5,Win32,59.99520038,6113cd5e3287b5f60b4c40f8,64aea9d0f615b6559c281482,64becb8cd46277fbb2b17f18,right,1,0.3,0.3714,6,0.150632245,0.1651,,,,,,19,0,19,0,1,,,,,
,,892871,001,2023-07-24_21h08.44.203,arm3_eps,2022.2.5,Win32,59.99520038,6113cd5e3287b5f60b4c40f8,64aea9d0f615b6559c281482,64becb8cd46277fbb2b17f18,right,1,0.3,0.3714,6,0.171860061,0.1673,,,,,,20,0,20,0,1,,,,,
,,892871,001,2023-07-24_21h08.44.203,arm3_eps,2022.2.5,Win32,59.99520038,6113cd5e3287b5f60b4c40f8,64aea9d0f615b6559c281482,64becb8cd46277fbb2b17f18,right,1,0.3,0.3714,6,0.183031993,0.1535,,,,,,21,0,21,0,1,,,,,
,,892871,001,2023-07-24_21h08.44.203,arm3_eps,2022.2.5,Win32,59.99520038,6113cd5e3287b5f60b4c40f8,64aea9d0f615b6559c281482,64becb8cd46277fbb2b17f18,right,1,0.3,0.3714,6,0.183789538,0.1675,,,,,,22,0,22,0,1,,,,,
,,892871,001,2023-07-24_21h08.44.203,arm3_eps,2022.2.5,Win32,59.99520038,6113cd5e3287b5f60b4c40f8,64aea9d0f615b6559c281482,64becb8cd46277fbb2b17f18,right,1,0.3,0.3714,6,0.19631389,0.1673,,,,,,23,0,23,0,1,,,,,
,,892871,001,2023-07-24_21h08.44.203,arm3_eps,2022.2.5,Win32,59.99520038,6113cd5e3287b5f60b4c40f8,64aea9d0f615b6559c281482,64becb8cd46277fbb2b17f18,right,1,0.3,0.3714,6,0.194917859,0.1722,,,,,,24,0,24,0,1,,,,,
,,892871,001,2023-07-24_21h08.44.203,arm3_eps,2022.2.5,Win32,59.99520038,6113cd5e3287b5f60b4c40f8,64aea9d0f615b6559c281482,64becb8cd46277fbb2b17f18,up,-1,0.3,0.3714,6,0,0.7331,,,,,,25,0,25,0,1,,,,,
,,892871,001,2023-07-24_21h08.44.203,arm3_eps,2022.2.5,Win32,59.99520038,6113cd5e3287b5f60b4c40f8,64aea9d0f615b6559c281482,64becb8cd46277fbb2b17f18,right,-1,0.3,0.3714,6,-0.022868337,0.3323,,,,,,26,0,26,0,1,,,,,
,,892871,001,2023-07-24_21h08.44.203,arm3_eps,2022.2.5,Win32,59.99520038,6113cd5e3287b5f60b4c40f8,64aea9d0f615b6559c281482,64becb8cd46277fbb2b17f18,right,-1,0.3,0.3714,6,-0.016953886,0.1667,,,,,,27,0,27,0,1,,,,,
,,892871,001,2023-07-24_21h08.44.203,arm3_eps,2022.2.5,Win32,59.99520038,6113cd5e3287b5f60b4c40f8,64aea9d0f615b6559c281482,64becb8cd46277fbb2b17f18,right,-1,0.3,0.3714,6,-0.011075068,0.1678,,,,,,28,0,28,0,1,,,,,
,,892871,001,2023-07-24_21h08.44.203,arm3_eps,2022.2.5,Win32,59.99520038,6113cd5e3287b5f60b4c40f8,64aea9d0f615b6559c281482,64becb8cd46277fbb2b17f18,right,-1,0.3,0.3714,6,-0.001483967,0.1668,,,,,,29,0,29,0,1,,,,,
,,892871,001,2023-07-24_21h08.44.203,arm3_eps,2022.2.5,Win32,59.99520038,6113cd5e3287b5f60b4c40f8,64aea9d0f615b6559c281482,64becb8cd46277fbb2b17f18,right,-1,0.3,0.3714,6,-0.015859742,0.1653,,,,,,30,0,30,0,1,,,,,
,,892871,001,2023-07-24_21h08.44.203,arm3_eps,2022.2.5,Win32,59.99520038,6113cd5e3287b5f60b4c40f8,64aea9d0f615b6559c281482,64becb8cd46277fbb2b17f18,right,-1,0.3,0.3714,6,-0.039218335,0.1508,,,,,,31,0,31,0,1,,,,,
,,892871,001,2023-07-24_21h08.44.203,arm3_eps,2022.2.5,Win32,59.99520038,6113cd5e3287b5f60b4c40f8,64aea9d0f615b6559c281482,64becb8cd46277fbb2b17f18,right,-1,0.3,0.3714,6,-0.08127111,0.1503,,,,,,32,0,32,0,1,,,,,
,,892871,001,2023-07-24_21h08.44.203,arm3_eps,2022.2.5,Win32,59.99520038,6113cd5e3287b5f60b4c40f8,64aea9d0f615b6559c281482,64becb8cd46277fbb2b17f18,right,-1,0.3,0.3714,6,-0.114906198,0.1331,,,,,,33,0,33,0,1,,,,,
,,892871,001,2023-07-24_21h08.44.203,arm3_eps,2022.2.5,Win32,59.99520038,6113cd5e3287b5f60b4c40f8,64aea9d0f615b6559c281482,64becb8cd46277fbb2b17f18,right,-1,0.3,0.3714,6,-0.11194433,0.1819,,,,,,34,0,34,0,1,,,,,
,,892871,001,2023-07-24_21h08.44.203,arm3_eps,2022.2.5,Win32,59.99520038,6113cd5e3287b5f60b4c40f8,64aea9d0f615b6559c281482,64becb8cd46277fbb2b17f18,right,-1,0.3,0.3714,6,-0.146311619,0.1648,,,,,,35,0,35,0,1,,,,,
,,892871,001,2023-07-24_21h08.44.203,arm3_eps,2022.2.5,Win32,59.99520038,6113cd5e3287b5f60b4c40f8,64aea9d0f615b6559c281482,64becb8cd46277fbb2b17f18,right,-1,0.3,0.3714,6,-0.15630107,0.1505,,,,,,36,0,36,0,1,,,,,
,,892871,001,2023-07-24_21h08.44.203,arm3_eps,2022.2.5,Win32,59.99520038,6113cd5e3287b5f60b4c40f8,64aea9d0f615b6559c281482,64becb8cd46277fbb2b17f18,right,-1,0.3,0.3714,6,-0.146879466,0.167,,,,,,37,0,37,0,1,,,,,
,,892871,001,2023-07-24_21h08.44.203,arm3_eps,2022.2.5,Win32,59.99520038,6113cd5e3287b5f60b4c40f8,64aea9d0f615b6559c281482,64becb8cd46277fbb2b17f18,down,-1,0.3,0.3714,7,0,1.3169,,,,,,38,0,38,0,1,,,,,
,,892871,001,2023-07-24_21h08.44.203,arm3_eps,2022.2.5,Win32,59.99520038,6113cd5e3287b5f60b4c40f8,64aea9d0f615b6559c281482,64becb8cd46277fbb2b17f18,right,-1,0.3,0.3714,7,0.000125991,0.834,,,,,,39,0,39,0,1,,,,,
,,892871,001,2023-07-24_21h08.44.203,arm3_eps,2022.2.5,Win32,59.99520038,6113cd5e3287b5f60b4c40f8,64aea9d0f615b6559c281482,64becb8cd46277fbb2b17f18,right,-1,0.3,0.3714,7,-0.006395279,0.1671,,,,,,40,0,40,0,1,,,,,
