space_bar.keys,space_bar.rt,participant,session,date,expName,psychopyVersion,OS,frameRate,PROLIFIC_PID,STUDY_ID,SESSION_ID,resp.keys,state,q_prob,eps_prob,score,price,resp.rt,train.thisRepN,train.thisTrialN,train.thisN,train.thisIndex,train.ran,steps.thisRepN,steps.thisTrialN,steps.thisN,steps.thisIndex,steps.ran,blocks.thisRepN,blocks.thisTrialN,blocks.thisN,blocks.thisIndex,blocks.ran
space,108.855,894409,001,2023-07-24_21h07.37.424,arm3_eps,2022.2.5,Win32,60.0528465,60c47bdfde98f62c0f688ae3,64aea9d0f615b6559c281482,64becb7d068efe9eb19a6b5d,,,,,,,,,,,,,,,,,,,,,,
space,96.984,894409,001,2023-07-24_21h07.37.424,arm3_eps,2022.2.5,Win32,60.0528465,60c47bdfde98f62c0f688ae3,64aea9d0f615b6559c281482,64becb7d068efe9eb19a6b5d,,,,,,,,,,,,,,,,,,,,,,
space,32.7551,894409,001,2023-07-24_21h07.37.424,arm3_eps,2022.2.5,Win32,60.0528465,60c47bdfde98f62c0f688ae3,64aea9d0f615b6559c281482,64becb7d068efe9eb19a6b5d,,,,,,,,,,,,,,,,,,,,,,
space,53.56,894409,001,2023-07-24_21h07.37.424,arm3_eps,2022.2.5,Win32,60.0528465,60c47bdfde98f62c0f688ae3,64aea9d0f615b6559c281482,64becb7d068efe9eb19a6b5d,,,,,,,,,,,,,,,,,,,,,,
space,36.5912,894409,001,2023-07-24_21h07.37.424,arm3_eps,2022.2.5,Win32,60.0528465,60c47bdfde98f62c0f688ae3,64aea9d0f615b6559c281482,64becb7d068efe9eb19a6b5d,,,,,,,,,,,,,,,,,,,,,,
space,42.719,894409,001,2023-07-24_21h07.37.424,arm3_eps,2022.2.5,Win32,60.0528465,60c47bdfde98f62c0f688ae3,64aea9d0f615b6559c281482,64becb7d068efe9eb19a6b5d,,,,,,,,,,,,,,,,,,,,,,
space,6.7657,894409,001,2023-07-24_21h07.37.424,arm3_eps,2022.2.5,Win32,60.0528465,60c47bdfde98f62c0f688ae3,64aea9d0f615b6559c281482,64becb7d068efe9eb19a6b5d,,,,,,,,,,,,,,,,,,,,,,
space,49.6411,894409,001,2023-07-24_21h07.37.424,arm3_eps,2022.2.5,Win32,60.0528465,60c47bdfde98f62c0f688ae3,64aea9d0f615b6559c281482,64becb7d068efe9eb19a6b5d,,,,,,,,,,,,,,,,,,,,,,
space,19.7307,894409,001,2023-07-24_21h07.37.424,arm3_eps,2022.2.5,Win32,60.0528465,60c47bdfde98f62c0f688ae3,64aea9d0f615b6559c281482,64becb7d068efe9eb19a6b5d,,,,,,,,,,,,,,,,,,,,,,
space,16.8193,894409,001,2023-07-24_21h07.37.424,arm3_eps,2022.2.5,Win32,60.0528465,60c47bdfde98f62c0f688ae3,64aea9d0f615b6559c281482,64becb7d068efe9eb19a6b5d,,,,,,,,,,,,,,,,,,,,,,
,,894409,001,2023-07-24_21h07.37.424,arm3_eps,2022.2.5,Win32,60.0528465,60c47bdfde98f62c0f688ae3,64aea9d0f615b6559c281482,64becb7d068efe9eb19a6b5d,right,1,0.3,0.2429,0,0.00940915,6.4043,0,0,0,0,1,,,,,,,,,,
,,894409,001,2023-07-24_21h07.37.424,arm3_eps,2022.2.5,Win32,60.0528465,60c47bdfde98f62c0f688ae3,64aea9d0f615b6559c281482,64becb7d068efe9eb19a6b5d,up,1,0.3,0.2429,1,0,4.6465,1,0,1,0,1,,,,,,,,,,
,,894409,001,2023-07-24_21h07.37.424,arm3_eps,2022.2.5,Win32,60.0528465,60c47bdfde98f62c0f688ae3,64aea9d0f615b6559c281482,64becb7d068efe9eb19a6b5d,right,1,0.3,0.2429,1,0.010662817,3.4059,2,0,2,0,1,,,,,,,,,,
,,894409,001,2023-07-24_21h07.37.424,arm3_eps,2022.2.5,Win32,60.0528465,60c47bdfde98f62c0f688ae3,64aea9d0f615b6559c281482,64becb7d068efe9eb19a6b5d,right,1,0.3,0.2429,1,0.032419042,2.7594,3,0,3,0,1,,,,,,,,,,
,,894409,001,2023-07-24_21h07.37.424,arm3_eps,2022.2.5,Win32,60.0528465,60c47bdfde98f62c0f688ae3,64aea9d0f615b6559c281482,64becb7d068efe9eb19a6b5d,up,-1,0.3,0.2429,2,0,2.132,4,0,4,0,1,,,,,,,,,,
,,894409,001,2023-07-24_21h07.37.424,arm3_eps,2022.2.5,Win32,60.0528465,60c47bdfde98f62c0f688ae3,64aea9d0f615b6559c281482,64becb7d068efe9eb19a6b5d,right,-1,0.3,0.2429,2,-0.015920886,2.3996,5,0,5,0,1,,,,,,,,,,
,,894409,001,2023-07-24_21h07.37.424,arm3_eps,2022.2.5,Win32,60.0528465,60c47bdfde98f62c0f688ae3,64aea9d0f615b6559c281482,64becb7d068efe9eb19a6b5d,right,-1,0.3,0.2429,2,-0.026655423,2.7134,6,0,6,0,1,,,,,,,,,,
,,894409,001,2023-07-24_21h07.37.424,arm3_eps,2022.2.5,Win32,60.0528465,60c47bdfde98f62c0f688ae3,64aea9d0f615b6559c281482,64becb7d068efe9eb19a6b5d,down,-1,0.3,0.2429,3,0,1.797,7,0,7,0,1,,,,,,,,,,
,,894409,001,2023-07-24_21h07.37.424,arm3_eps,2022.2.5,Win32,60.0528465,60c47bdfde98f62c0f688ae3,64aea9d0f615b6559c281482,64becb7d068efe9eb19a6b5d,right,-1,0.3,0.2429,3,-0.028598318,3.264,8,0,8,0,1,,,,,,,,,,
,,894409,001,2023-07-24_21h07.37.424,arm3_eps,2022.2.5,Win32,60.0528465,60c47bdfde98f62c0f688ae3,64aea9d0f615b6559c281482,64becb7d068efe9eb19a6b5d,right,-1,0.3,0.2429,3,-0.036151865,1.4512,9,0,9,0,1,,,,,,,,,,
,,894409,001,2023-07-24_21h07.37.424,arm3_eps,2022.2.5,Win32,60.0528465,60c47bdfde98f62c0f688ae3,64aea9d0f615b6559c281482,64becb7d068efe9eb19a6b5d,right,-1,0.3,0.2429,3,-0.067756904,1.6853,10,0,10,0,1,,,,,,,,,,
,,894409,001,2023-07-24_21h07.37.424,arm3_eps,2022.2.5,Win32,60.0528465,60c47bdfde98f62c0f688ae3,64aea9d0f615b6559c281482,64becb7d068efe9eb19a6b5d,down,1,0.3,0.2429,4,0,1.7161,11,0,11,0,1,,,,,,,,,,
,,894409,001,2023-07-24_21h07.37.424,arm3_eps,2022.2.5,Win32,60.0528465,60c47bdfde98f62c0f688ae3,64aea9d0f615b6559c281482,64becb7d068efe9eb19a6b5d,right,1,0.3,0.2429,4,0.011705712,1.5995,12,0,12,0,1,,,,,,,,,,
,,894409,001,2023-07-24_21h07.37.424,arm3_eps,2022.2.5,Win32,60.0528465,60c47bdfde98f62c0f688ae3,64aea9d0f615b6559c281482,64becb7d068efe9eb19a6b5d,right,1,0.3,0.2429,4,-0.005865454,1.9825,13,0,13,0,1,,,,,,,,,,
,,894409,001,2023-07-24_21h07.37.424,arm3_eps,2022.2.5,Win32,60.0528465,60c47bdfde98f62c0f688ae3,64aea9d0f615b6559c281482,64becb7d068efe9eb19a6b5d,right,1,0.3,0.2429,4,-0.017496582,1.6146,14,0,14,0,1,,,,,,,,,,
,,894409,001,2023-07-24_21h07.37.424,arm3_eps,2022.2.5,Win32,60.0528465,60c47bdfde98f62c0f688ae3,64aea9d0f615b6559c281482,64becb7d068efe9eb19a6b5d,right,1,0.3,0.2429,4,-0.024462099,1.4676,15,0,15,0,1,,,,,,,,,,
,,894409,001,2023-07-24_21h07.37.424,arm3_eps,2022.2.5,Win32,60.0528465,60c47bdfde98f62c0f688ae3,64aea9d0f615b6559c281482,64becb7d068efe9eb19a6b5d,up,1,0.3,0.2429,5,0,1.6808,16,0,16,0,1,,,,,,,,,,
,,894409,001,2023-07-24_21h07.37.424,arm3_eps,2022.2.5,Win32,60.0528465,60c47bdfde98f62c0f688ae3,64aea9d0f615b6559c281482,64becb7d068efe9eb19a6b5d,right,1,0.3,0.2429,5,0.002588231,2.334,17,0,17,0,1,,,,,,,,,,
,,894409,001,2023-07-24_21h07.37.424,arm3_eps,2022.2.5,Win32,60.0528465,60c47bdfde98f62c0f688ae3,64aea9d0f615b6559c281482,64becb7d068efe9eb19a6b5d,right,1,0.3,0.2429,5,0.038779297,1.5496,18,0,18,0,1,,,,,,,,,,
,,894409,001,2023-07-24_21h07.37.424,arm3_eps,2022.2.5,Win32,60.0528465,60c47bdfde98f62c0f688ae3,64aea9d0f615b6559c281482,64becb7d068efe9eb19a6b5d,up,1,0.3,0.2429,5,0,1.282,19,0,19,0,1,,,,,,,,,,
,,894409,001,2023-07-24_21h07.37.424,arm3_eps,2022.2.5,Win32,60.0528465,60c47bdfde98f62c0f688ae3,64aea9d0f615b6559c281482,64becb7d068efe9eb19a6b5d,right,1,0.3,0.2429,5,0.007029489,1.7361,20,0,20,0,1,,,,,,,,,,
,,894409,001,2023-07-24_21h07.37.424,arm3_eps,2022.2.5,Win32,60.0528465,60c47bdfde98f62c0f688ae3,64aea9d0f615b6559c281482,64becb7d068efe9eb19a6b5d,up,1,0.3,0.2429,5,0,2.0991,21,0,21,0,1,,,,,,,,,,
,,894409,001,2023-07-24_21h07.37.424,arm3_eps,2022.2.5,Win32,60.0528465,60c47bdfde98f62c0f688ae3,64aea9d0f615b6559c281482,64becb7d068efe9eb19a6b5d,right,1,0.3,0.2429,5,0.010743935,3.4143,22,0,22,0,1,,,,,,,,,,
,,894409,001,2023-07-24_21h07.37.424,arm3_eps,2022.2.5,Win32,60.0528465,60c47bdfde98f62c0f688ae3,64aea9d0f615b6559c281482,64becb7d068efe9eb19a6b5d,right,1,0.3,0.2429,5,0.008119658,1.7763,23,0,23,0,1,,,,,,,,,,
,,894409,001,2023-07-24_21h07.37.424,arm3_eps,2022.2.5,Win32,60.0528465,60c47bdfde98f62c0f688ae3,64aea9d0f615b6559c281482,64becb7d068efe9eb19a6b5d,right,1,0.3,0.2429,5,0.017366497,1.615,24,0,24,0,1,,,,,,,,,,
,,894409,001,2023-07-24_21h07.37.424,arm3_eps,2022.2.5,Win32,60.0528465,60c47bdfde98f62c0f688ae3,64aea9d0f615b6559c281482,64becb7d068efe9eb19a6b5d,down,1,0.3,0.2429,5,0,1.7511,25,0,25,0,1,,,,,,,,,,
,,894409,001,2023-07-24_21h07.37.424,arm3_eps,2022.2.5,Win32,60.0528465,60c47bdfde98f62c0f688ae3,64aea9d0f615b6559c281482,64becb7d068efe9eb19a6b5d,right,1,0.3,0.2429,5,0.030085506,1.6144,26,0,26,0,1,,,,,,,,,,
,,894409,001,2023-07-24_21h07.37.424,arm3_eps,2022.2.5,Win32,60.0528465,60c47bdfde98f62c0f688ae3,64aea9d0f615b6559c281482,64becb7d068efe9eb19a6b5d,up,1,0.3,0.2429,5,0,1.2329,27,0,27,0,1,,,,,,,,,,
,,894409,001,2023-07-24_21h07.37.424,arm3_eps,2022.2.5,Win32,60.0528465,60c47bdfde98f62c0f688ae3,64aea9d0f615b6559c281482,64becb7d068efe9eb19a6b5d,right,1,0.3,0.2429,5,0.020866176,2.4506,28,0,28,0,1,,,,,,,,,,
,,894409,001,2023-07-24_21h07.37.424,arm3_eps,2022.2.5,Win32,60.0528465,60c47bdfde98f62c0f688ae3,64aea9d0f615b6559c281482,64becb7d068efe9eb19a6b5d,right,1,0.3,0.2429,5,0.01703189,1.8167,29,0,29,0,1,,,,,,,,,,
,,894409,001,2023-07-24_21h07.37.424,arm3_eps,2022.2.5,Win32,60.0528465,60c47bdfde98f62c0f688ae3,64aea9d0f615b6559c281482,64becb7d068efe9eb19a6b5d,up,1,0.3,0.2429,5,0,1.4642,30,0,30,0,1,,,,,,,,,,
,,894409,001,2023-07-24_21h07.37.424,arm3_eps,2022.2.5,Win32,60.0528465,60c47bdfde98f62c0f688ae3,64aea9d0f615b6559c281482,64becb7d068efe9eb19a6b5d,right,1,0.3,0.2429,5,0.024618981,5.3626,31,0,31,0,1,,,,,,,,,,
,,894409,001,2023-07-24_21h07.37.424,arm3_eps,2022.2.5,Win32,60.0528465,60c47bdfde98f62c0f688ae3,64aea9d0f615b6559c281482,64becb7d068efe9eb19a6b5d,right,1,0.3,0.2429,5,0.027070381,1.3338,32,0,32,0,1,,,,,,,,,,
,,894409,001,2023-07-24_21h07.37.424,arm3_eps,2022.2.5,Win32,60.0528465,60c47bdfde98f62c0f688ae3,64aea9d0f615b6559c281482,64becb7d068efe9eb19a6b5d,up,-1,0.3,0.2429,5,0,1.2342,33,0,33,0,1,,,,,,,,,,
,,894409,001,2023-07-24_21h07.37.424,arm3_eps,2022.2.5,Win32,60.0528465,60c47bdfde98f62c0f688ae3,64aea9d0f615b6559c281482,64becb7d068efe9eb19a6b5d,right,-1,0.3,0.2429,5,-0.005306267,4.545,34,0,34,0,1,,,,,,,,,,
,,894409,001,2023-07-24_21h07.37.424,arm3_eps,2022.2.5,Win32,60.0528465,60c47bdfde98f62c0f688ae3,64aea9d0f615b6559c281482,64becb7d068efe9eb19a6b5d,down,-1,0.3,0.2429,5,0,0.9489,35,0,35,0,1,,,,,,,,,,
,,894409,001,2023-07-24_21h07.37.424,arm3_eps,2022.2.5,Win32,60.0528465,60c47bdfde98f62c0f688ae3,64aea9d0f615b6559c281482,64becb7d068efe9eb19a6b5d,right,-1,0.3,0.2429,5,-0.017261423,2.151,36,0,36,0,1,,,,,,,,,,
,,894409,001,2023-07-24_21h07.37.424,arm3_eps,2022.2.5,Win32,60.0528465,60c47bdfde98f62c0f688ae3,64aea9d0f615b6559c281482,64becb7d068efe9eb19a6b5d,down,1,0.3,0.2429,5,0,3.3286,37,0,37,0,1,,,,,,,,,,
,,894409,001,2023-07-24_21h07.37.424,arm3_eps,2022.2.5,Win32,60.0528465,60c47bdfde98f62c0f688ae3,64aea9d0f615b6559c281482,64becb7d068efe9eb19a6b5d,up,1,0.3,0.2429,5,0,1.8674,38,0,38,0,1,,,,,,,,,,
,,894409,001,2023-07-24_21h07.37.424,arm3_eps,2022.2.5,Win32,60.0528465,60c47bdfde98f62c0f688ae3,64aea9d0f615b6559c281482,64becb7d068efe9eb19a6b5d,right,1,0.3,0.2429,5,-0.008547542,2.3153,39,0,39,0,1,,,,,,,,,,
,,894409,001,2023-07-24_21h07.37.424,arm3_eps,2022.2.5,Win32,60.0528465,60c47bdfde98f62c0f688ae3,64aea9d0f615b6559c281482,64becb7d068efe9eb19a6b5d,down,-1,0.3,0.2429,4,0,1.2818,40,0,40,0,1,,,,,,,,,,
,,894409,001,2023-07-24_21h07.37.424,arm3_eps,2022.2.5,Win32,60.0528465,60c47bdfde98f62c0f688ae3,64aea9d0f615b6559c281482,64becb7d068efe9eb19a6b5d,right,-1,0.3,0.2429,4,-0.023995924,2.6336,41,0,41,0,1,,,,,,,,,,
,,894409,001,2023-07-24_21h07.37.424,arm3_eps,2022.2.5,Win32,60.0528465,60c47bdfde98f62c0f688ae3,64aea9d0f615b6559c281482,64becb7d068efe9eb19a6b5d,right,-1,0.3,0.2429,4,-0.028078177,1.3997,42,0,42,0,1,,,,,,,,,,
,,894409,001,2023-07-24_21h07.37.424,arm3_eps,2022.2.5,Win32,60.0528465,60c47bdfde98f62c0f688ae3,64aea9d0f615b6559c281482,64becb7d068efe9eb19a6b5d,up,1,0.3,0.2429,3,0,2.0968,43,0,43,0,1,,,,,,,,,,
,,894409,001,2023-07-24_21h07.37.424,arm3_eps,2022.2.5,Win32,60.0528465,60c47bdfde98f62c0f688ae3,64aea9d0f615b6559c281482,64becb7d068efe9eb19a6b5d,right,1,0.3,0.2429,3,-0.016622702,5.0144,44,0,44,0,1,,,,,,,,,,
,,894409,001,2023-07-24_21h07.37.424,arm3_eps,2022.2.5,Win32,60.0528465,60c47bdfde98f62c0f688ae3,64aea9d0f615b6559c281482,64becb7d068efe9eb19a6b5d,right,1,0.3,0.2429,3,-0.017600912,1.1957,45,0,45,0,1,,,,,,,,,,
,,894409,001,2023-07-24_21h07.37.424,arm3_eps,2022.2.5,Win32,60.0528465,60c47bdfde98f62c0f688ae3,64aea9d0f615b6559c281482,64becb7d068efe9eb19a6b5d,up,1,0.3,0.2429,3,0,1.5974,46,0,46,0,1,,,,,,,,,,
,,894409,001,2023-07-24_21h07.37.424,arm3_eps,2022.2.5,Win32,60.0528465,60c47bdfde98f62c0f688ae3,64aea9d0f615b6559c281482,64becb7d068efe9eb19a6b5d,right,1,0.3,0.2429,3,-0.008898129,2.2987,47,0,47,0,1,,,,,,,,,,
,,894409,001,2023-07-24_21h07.37.424,arm3_eps,2022.2.5,Win32,60.0528465,60c47bdfde98f62c0f688ae3,64aea9d0f615b6559c281482,64becb7d068efe9eb19a6b5d,down,1,0.3,0.2429,2,0,2.3482,48,0,48,0,1,,,,,,,,,,
,,894409,001,2023-07-24_21h07.37.424,arm3_eps,2022.2.5,Win32,60.0528465,60c47bdfde98f62c0f688ae3,64aea9d0f615b6559c281482,64becb7d068efe9eb19a6b5d,up,1,0.3,0.2429,2,0,2.4174,49,0,49,0,1,,,,,,,,,,
space,2.1986,894409,001,2023-07-24_21h07.37.424,arm3_eps,2022.2.5,Win32,60.0528465,60c47bdfde98f62c0f688ae3,64aea9d0f615b6559c281482,64becb7d068efe9eb19a6b5d,,,,,,,,,,,,,,,,,,,,,,
space,5.1702,894409,001,2023-07-24_21h07.37.424,arm3_eps,2022.2.5,Win32,60.0528465,60c47bdfde98f62c0f688ae3,64aea9d0f615b6559c281482,64becb7d068efe9eb19a6b5d,up,1,0.3,0.4357,1,0,3.0591,,,,,,0,0,0,0,1,,,,,
,,894409,001,2023-07-24_21h07.37.424,arm3_eps,2022.2.5,Win32,60.0528465,60c47bdfde98f62c0f688ae3,64aea9d0f615b6559c281482,64becb7d068efe9eb19a6b5d,right,1,0.3,0.4357,1,0.006600802,2.5437,,,,,,1,0,1,0,1,,,,,
,,894409,001,2023-07-24_21h07.37.424,arm3_eps,2022.2.5,Win32,60.0528465,60c47bdfde98f62c0f688ae3,64aea9d0f615b6559c281482,64becb7d068efe9eb19a6b5d,up,-1,0.3,0.4357,1,0,1.3968,,,,,,2,0,2,0,1,,,,,
,,894409,001,2023-07-24_21h07.37.424,arm3_eps,2022.2.5,Win32,60.0528465,60c47bdfde98f62c0f688ae3,64aea9d0f615b6559c281482,64becb7d068efe9eb19a6b5d,right,-1,0.3,0.4357,1,0.002215865,2.4594,,,,,,3,0,3,0,1,,,,,
,,894409,001,2023-07-24_21h07.37.424,arm3_eps,2022.2.5,Win32,60.0528465,60c47bdfde98f62c0f688ae3,64aea9d0f615b6559c281482,64becb7d068efe9eb19a6b5d,right,-1,0.3,0.4357,1,-0.02977715,1.3699,,,,,,4,0,4,0,1,,,,,
,,894409,001,2023-07-24_21h07.37.424,arm3_eps,2022.2.5,Win32,60.0528465,60c47bdfde98f62c0f688ae3,64aea9d0f615b6559c281482,64becb7d068efe9eb19a6b5d,right,-1,0.3,0.4357,1,-0.02035271,1.4559,,,,,,5,0,5,0,1,,,,,
,,894409,001,2023-07-24_21h07.37.424,arm3_eps,2022.2.5,Win32,60.0528465,60c47bdfde98f62c0f688ae3,64aea9d0f615b6559c281482,64becb7d068efe9eb19a6b5d,right,-1,0.3,0.4357,1,-0.04916204,1.4498,,,,,,6,0,6,0,1,,,,,
,,894409,001,2023-07-24_21h07.37.424,arm3_eps,2022.2.5,Win32,60.0528465,60c47bdfde98f62c0f688ae3,64aea9d0f615b6559c281482,64becb7d068efe9eb19a6b5d,down,-1,0.3,0.4357,1,0,4.0205,,,,,,7,0,7,0,1,,,,,
,,894409,001,2023-07-24_21h07.37.424,arm3_eps,2022.2.5,Win32,60.0528465,60c47bdfde98f62c0f688ae3,64aea9d0f615b6559c281482,64becb7d068efe9eb19a6b5d,right,-1,0.3,0.4357,1,-0.024071189,1.3578,,,,,,8,0,8,0,1,,,,,
,,894409,001,2023-07-24_21h07.37.424,arm3_eps,2022.2.5,Win32,60.0528465,60c47bdfde98f62c0f688ae3,64aea9d0f615b6559c281482,64becb7d068efe9eb19a6b5d,down,-1,0.3,0.4357,2,0,1.5151,,,,,,9,0,9,0,1,,,,,
,,894409,001,2023-07-24_21h07.37.424,arm3_eps,2022.2.5,Win32,60.0528465,60c47bdfde98f62c0f688ae3,64aea9d0f615b6559c281482,64becb7d068efe9eb19a6b5d,right,-1,0.3,0.4357,2,-0.001093541,1.509,,,,,,10,0,10,0,1,,,,,
,,894409,001,2023-07-24_21h07.37.424,arm3_eps,2022.2.5,Win32,60.0528465,60c47bdfde98f62c0f688ae3,64aea9d0f615b6559c281482,64becb7d068efe9eb19a6b5d,right,-1,0.3,0.4357,2,-0.012767421,1.34,,,,,,11,0,11,0,1,,,,,
,,894409,001,2023-07-24_21h07.37.424,arm3_eps,2022.2.5,Win32,60.0528465,60c47bdfde98f62c0f688ae3,64aea9d0f615b6559c281482,64becb7d068efe9eb19a6b5d,down,1,0.3,0.4357,3,0,4.948,,,,,,12,0,12,0,1,,,,,
,,894409,001,2023-07-24_21h07.37.424,arm3_eps,2022.2.5,Win32,60.0528465,60c47bdfde98f62c0f688ae3,64aea9d0f615b6559c281482,64becb7d068efe9eb19a6b5d,down,-1,0.3,0.4357,3,0,2.6526,,,,,,13,0,13,0,1,,,,,
,,894409,001,2023-07-24_21h07.37.424,arm3_eps,2022.2.5,Win32,60.0528465,60c47bdfde98f62c0f688ae3,64aea9d0f615b6559c281482,64becb7d068efe9eb19a6b5d,down,-1,0.3,0.4357,3,0,3.1608,,,,,,14,0,14,0,1,,,,,
,,894409,001,2023-07-24_21h07.37.424,arm3_eps,2022.2.5,Win32,60.0528465,60c47bdfde98f62c0f688ae3,64aea9d0f615b6559c281482,64becb7d068efe9eb19a6b5d,down,1,0.3,0.4357,4,0,2.5299,,,,,,15,0,15,0,1,,,,,
,,894409,001,2023-07-24_21h07.37.424,arm3_eps,2022.2.5,Win32,60.0528465,60c47bdfde98f62c0f688ae3,64aea9d0f615b6559c281482,64becb7d068efe9eb19a6b5d,down,1,0.3,0.4357,3,0,4.4765,,,,,,16,0,16,0,1,,,,,
,,894409,001,2023-07-24_21h07.37.424,arm3_eps,2022.2.5,Win32,60.0528465,60c47bdfde98f62c0f688ae3,64aea9d0f615b6559c281482,64becb7d068efe9eb19a6b5d,down,1,0.3,0.4357,2,0,3.4069,,,,,,17,0,17,0,1,,,,,
,,894409,001,2023-07-24_21h07.37.424,arm3_eps,2022.2.5,Win32,60.0528465,60c47bdfde98f62c0f688ae3,64aea9d0f615b6559c281482,64becb7d068efe9eb19a6b5d,right,1,0.3,0.4357,2,0.002035548,3.4373,,,,,,18,0,18,0,1,,,,,
,,894409,001,2023-07-24_21h07.37.424,arm3_eps,2022.2.5,Win32,60.0528465,60c47bdfde98f62c0f688ae3,64aea9d0f615b6559c281482,64becb7d068efe9eb19a6b5d,up,1,0.3,0.4357,3,0,1.1509,,,,,,19,0,19,0,1,,,,,
,,894409,001,2023-07-24_21h07.37.424,arm3_eps,2022.2.5,Win32,60.0528465,60c47bdfde98f62c0f688ae3,64aea9d0f615b6559c281482,64becb7d068efe9eb19a6b5d,right,1,0.3,0.4357,3,-0.010179868,1.9099,,,,,,20,0,20,0,1,,,,,
,,894409,001,2023-07-24_21h07.37.424,arm3_eps,2022.2.5,Win32,60.0528465,60c47bdfde98f62c0f688ae3,64aea9d0f615b6559c281482,64becb7d068efe9eb19a6b5d,down,-1,0.3,0.4357,3,0,1.2185,,,,,,21,0,21,0,1,,,,,
,,894409,001,2023-07-24_21h07.37.424,arm3_eps,2022.2.5,Win32,60.0528465,60c47bdfde98f62c0f688ae3,64aea9d0f615b6559c281482,64becb7d068efe9eb19a6b5d,right,-1,0.3,0.4357,3,0.001924747,3.1102,,,,,,22,0,22,0,1,,,,,
,,894409,001,2023-07-24_21h07.37.424,arm3_eps,2022.2.5,Win32,60.0528465,60c47bdfde98f62c0f688ae3,64aea9d0f615b6559c281482,64becb7d068efe9eb19a6b5d,right,-1,0.3,0.4357,3,0.00219137,1.1162,,,,,,23,0,23,0,1,,,,,
,,894409,001,2023-07-24_21h07.37.424,arm3_eps,2022.2.5,Win32,60.0528465,60c47bdfde98f62c0f688ae3,64aea9d0f615b6559c281482,64becb7d068efe9eb19a6b5d,right,-1,0.3,0.4357,3,-0.005007827,1.0132,,,,,,24,0,24,0,1,,,,,
,,894409,001,2023-07-24_21h07.37.424,arm3_eps,2022.2.5,Win32,60.0528465,60c47bdfde98f62c0f688ae3,64aea9d0f615b6559c281482,64becb7d068efe9eb19a6b5d,down,-1,0.3,0.4357,3,0,6.116,,,,,,25,0,25,0,1,,,,,
,,894409,001,2023-07-24_21h07.37.424,arm3_eps,2022.2.5,Win32,60.0528465,60c47bdfde98f62c0f688ae3,64aea9d0f615b6559c281482,64becb7d068efe9eb19a6b5d,up,1,0.3,0.4357,2,0,2.8067,,,,,,26,0,26,0,1,,,,,
,,894409,001,2023-07-24_21h07.37.424,arm3_eps,2022.2.5,Win32,60.0528465,60c47bdfde98f62c0f688ae3,64aea9d0f615b6559c281482,64becb7d068efe9eb19a6b5d,right,1,0.3,0.4357,2,0.008572967,1.8234,,,,,,27,0,27,0,1,,,,,
,,894409,001,2023-07-24_21h07.37.424,arm3_eps,2022.2.5,Win32,60.0528465,60c47bdfde98f62c0f688ae3,64aea9d0f615b6559c281482,64becb7d068efe9eb19a6b5d,down,1,0.3,0.4357,2,0,0.9874,,,,,,28,0,28,0,1,,,,,
,,894409,001,2023-07-24_21h07.37.424,arm3_eps,2022.2.5,Win32,60.0528465,60c47bdfde98f62c0f688ae3,64aea9d0f615b6559c281482,64becb7d068efe9eb19a6b5d,up,-1,0.3,0.4357,2,0,1.9426,,,,,,29,0,29,0,1,,,,,
,,894409,001,2023-07-24_21h07.37.424,arm3_eps,2022.2.5,Win32,60.0528465,60c47bdfde98f62c0f688ae3,64aea9d0f615b6559c281482,64becb7d068efe9eb19a6b5d,down,-1,0.3,0.4357,3,0,2.4499,,,,,,30,0,30,0,1,,,,,
,,894409,001,2023-07-24_21h07.37.424,arm3_eps,2022.2.5,Win32,60.0528465,60c47bdfde98f62c0f688ae3,64aea9d0f615b6559c281482,64becb7d068efe9eb19a6b5d,right,-1,0.3,0.4357,3,-0.009189687,4.2444,,,,,,31,0,31,0,1,,,,,
,,894409,001,2023-07-24_21h07.37.424,arm3_eps,2022.2.5,Win32,60.0528465,60c47bdfde98f62c0f688ae3,64aea9d0f615b6559c281482,64becb7d068efe9eb19a6b5d,right,-1,0.3,0.4357,3,-0.017293154,1.2548,,,,,,32,0,32,0,1,,,,,
,,894409,001,2023-07-24_21h07.37.424,arm3_eps,2022.2.5,Win32,60.0528465,60c47bdfde98f62c0f688ae3,64aea9d0f615b6559c281482,64becb7d068efe9eb19a6b5d,down,1,0.3,0.4357,3,0,0.8381,,,,,,33,0,33,0,1,,,,,
,,894409,001,2023-07-24_21h07.37.424,arm3_eps,2022.2.5,Win32,60.0528465,60c47bdfde98f62c0f688ae3,64aea9d0f615b6559c281482,64becb7d068efe9eb19a6b5d,up,1,0.3,0.4357,4,0,2.8813,,,,,,34,0,34,0,1,,,,,
,,894409,001,2023-07-24_21h07.37.424,arm3_eps,2022.2.5,Win32,60.0528465,60c47bdfde98f62c0f688ae3,64aea9d0f615b6559c281482,64becb7d068efe9eb19a6b5d,up,-1,0.3,0.4357,4,0,1.7947,,,,,,35,0,35,0,1,,,,,
,,894409,001,2023-07-24_21h07.37.424,arm3_eps,2022.2.5,Win32,60.0528465,60c47bdfde98f62c0f688ae3,64aea9d0f615b6559c281482,64becb7d068efe9eb19a6b5d,down,-1,0.3,0.4357,5,0,1.7335,,,,,,36,0,36,0,1,,,,,
,,894409,001,2023-07-24_21h07.37.424,arm3_eps,2022.2.5,Win32,60.0528465,60c47bdfde98f62c0f688ae3,64aea9d0f615b6559c281482,64becb7d068efe9eb19a6b5d,down,-1,0.3,0.4357,5,0,2.5368,,,,,,37,0,37,0,1,,,,,
,,894409,001,2023-07-24_21h07.37.424,arm3_eps,2022.2.5,Win32,60.0528465,60c47bdfde98f62c0f688ae3,64aea9d0f615b6559c281482,64becb7d068efe9eb19a6b5d,up,-1,0.3,0.4357,5,0,3.0585,,,,,,38,0,38,0,1,,,,,
,,894409,001,2023-07-24_21h07.37.424,arm3_eps,2022.2.5,Win32,60.0528465,60c47bdfde98f62c0f688ae3,64aea9d0f615b6559c281482,64becb7d068efe9eb19a6b5d,right,-1,0.3,0.4357,5,-0.002504905,2.9688,,,,,,39,0,39,0,1,,,,,
,,894409,001,2023-07-24_21h07.37.424,arm3_eps,2022.2.5,Win32,60.0528465,60c47bdfde98f62c0f688ae3,64aea9d0f615b6559c281482,64becb7d068efe9eb19a6b5d,up,-1,0.3,0.4357,4,0,1.0782,,,,,,40,0,40,0,1,,,,,
,,894409,001,2023-07-24_21h07.37.424,arm3_eps,2022.2.5,Win32,60.0528465,60c47bdfde98f62c0f688ae3,64aea9d0f615b6559c281482,64becb7d068efe9eb19a6b5d,up,-1,0.3,0.4357,4,0,2.8063,,,,,,41,0,41,0,1,,,,,
,,894409,001,2023-07-24_21h07.37.424,arm3_eps,2022.2.5,Win32,60.0528465,60c47bdfde98f62c0f688ae3,64aea9d0f615b6559c281482,64becb7d068efe9eb19a6b5d,up,-1,0.3,0.4357,4,0,2.2755,,,,,,42,0,42,0,1,,,,,
,,894409,001,2023-07-24_21h07.37.424,arm3_eps,2022.2.5,Win32,60.0528465,60c47bdfde98f62c0f688ae3,64aea9d0f615b6559c281482,64becb7d068efe9eb19a6b5d,up,-1,0.3,0.4357,4,0,2.2931,,,,,,43,0,43,0,1,,,,,
,,894409,001,2023-07-24_21h07.37.424,arm3_eps,2022.2.5,Win32,60.0528465,60c47bdfde98f62c0f688ae3,64aea9d0f615b6559c281482,64becb7d068efe9eb19a6b5d,up,-1,0.3,0.4357,4,0,2.5733,,,,,,44,0,44,0,1,,,,,
,,894409,001,2023-07-24_21h07.37.424,arm3_eps,2022.2.5,Win32,60.0528465,60c47bdfde98f62c0f688ae3,64aea9d0f615b6559c281482,64becb7d068efe9eb19a6b5d,up,-1,0.3,0.4357,4,0,2.4402,,,,,,45,0,45,0,1,,,,,
,,894409,001,2023-07-24_21h07.37.424,arm3_eps,2022.2.5,Win32,60.0528465,60c47bdfde98f62c0f688ae3,64aea9d0f615b6559c281482,64becb7d068efe9eb19a6b5d,down,-1,0.3,0.4357,4,0,2.3343,,,,,,46,0,46,0,1,,,,,
,,894409,001,2023-07-24_21h07.37.424,arm3_eps,2022.2.5,Win32,60.0528465,60c47bdfde98f62c0f688ae3,64aea9d0f615b6559c281482,64becb7d068efe9eb19a6b5d,up,1,0.3,0.4357,4,0,2.7916,,,,,,47,0,47,0,1,,,,,
,,894409,001,2023-07-24_21h07.37.424,arm3_eps,2022.2.5,Win32,60.0528465,60c47bdfde98f62c0f688ae3,64aea9d0f615b6559c281482,64becb7d068efe9eb19a6b5d,up,1,0.3,0.4357,5,0,2.0102,,,,,,48,0,48,0,1,,,,,
,,894409,001,2023-07-24_21h07.37.424,arm3_eps,2022.2.5,Win32,60.0528465,60c47bdfde98f62c0f688ae3,64aea9d0f615b6559c281482,64becb7d068efe9eb19a6b5d,right,1,0.3,0.4357,5,0.014091184,2.5393,,,,,,49,0,49,0,1,,,,,
,,894409,001,2023-07-24_21h07.37.424,arm3_eps,2022.2.5,Win32,60.0528465,60c47bdfde98f62c0f688ae3,64aea9d0f615b6559c281482,64becb7d068efe9eb19a6b5d,up,-1,0.3,0.4357,5,0,1.0532,,,,,,50,0,50,0,1,,,,,
,,894409,001,2023-07-24_21h07.37.424,arm3_eps,2022.2.5,Win32,60.0528465,60c47bdfde98f62c0f688ae3,64aea9d0f615b6559c281482,64becb7d068efe9eb19a6b5d,up,-1,0.3,0.4357,5,0,2.7314,,,,,,51,0,51,0,1,,,,,
,,894409,001,2023-07-24_21h07.37.424,arm3_eps,2022.2.5,Win32,60.0528465,60c47bdfde98f62c0f688ae3,64aea9d0f615b6559c281482,64becb7d068efe9eb19a6b5d,down,1,0.3,0.4357,6,0,1.972,,,,,,52,0,52,0,1,,,,,
,,894409,001,2023-07-24_21h07.37.424,arm3_eps,2022.2.5,Win32,60.0528465,60c47bdfde98f62c0f688ae3,64aea9d0f615b6559c281482,64becb7d068efe9eb19a6b5d,right,1,0.3,0.4357,6,0.02144709,2.1822,,,,,,53,0,53,0,1,,,,,
,,894409,001,2023-07-24_21h07.37.424,arm3_eps,2022.2.5,Win32,60.0528465,60c47bdfde98f62c0f688ae3,64aea9d0f615b6559c281482,64becb7d068efe9eb19a6b5d,right,1,0.3,0.4357,6,-0.002836323,2.3487,,,,,,54,0,54,0,1,,,,,
,,894409,001,2023-07-24_21h07.37.424,arm3_eps,2022.2.5,Win32,60.0528465,60c47bdfde98f62c0f688ae3,64aea9d0f615b6559c281482,64becb7d068efe9eb19a6b5d,up,1,0.3,0.4357,6,0,1.1332,,,,,,55,0,55,0,1,,,,,
,,894409,001,2023-07-24_21h07.37.424,arm3_eps,2022.2.5,Win32,60.0528465,60c47bdfde98f62c0f688ae3,64aea9d0f615b6559c281482,64becb7d068efe9eb19a6b5d,down,1,0.3,0.4357,6,0,1.2496,,,,,,56,0,56,0,1,,,,,
,,894409,001,2023-07-24_21h07.37.424,arm3_eps,2022.2.5,Win32,60.0528465,60c47bdfde98f62c0f688ae3,64aea9d0f615b6559c281482,64becb7d068efe9eb19a6b5d,up,-1,0.3,0.4357,6,0,1.6304,,,,,,57,0,57,0,1,,,,,
,,894409,001,2023-07-24_21h07.37.424,arm3_eps,2022.2.5,Win32,60.0528465,60c47bdfde98f62c0f688ae3,64aea9d0f615b6559c281482,64becb7d068efe9eb19a6b5d,up,1,0.3,0.4357,6,0,1.8008,,,,,,58,0,58,0,1,,,,,
,,894409,001,2023-07-24_21h07.37.424,arm3_eps,2022.2.5,Win32,60.0528465,60c47bdfde98f62c0f688ae3,64aea9d0f615b6559c281482,64becb7d068efe9eb19a6b5d,down,1,0.3,0.4357,6,0,2.7499,,,,,,59,0,59,0,1,,,,,
,,894409,001,2023-07-24_21h07.37.424,arm3_eps,2022.2.5,Win32,60.0528465,60c47bdfde98f62c0f688ae3,64aea9d0f615b6559c281482,64becb7d068efe9eb19a6b5d,right,1,0.3,0.4357,6,0.02228717,1.864,,,,,,60,0,60,0,1,,,,,
,,894409,001,2023-07-24_21h07.37.424,arm3_eps,2022.2.5,Win32,60.0528465,60c47bdfde98f62c0f688ae3,64aea9d0f615b6559c281482,64becb7d068efe9eb19a6b5d,up,1,0.3,0.4357,7,0,1.2347,,,,,,61,0,61,0,1,,,,,
,,894409,001,2023-07-24_21h07.37.424,arm3_eps,2022.2.5,Win32,60.0528465,60c47bdfde98f62c0f688ae3,64aea9d0f615b6559c281482,64becb7d068efe9eb19a6b5d,right,1,0.3,0.4357,7,-0.003509935,2.2496,,,,,,62,0,62,0,1,,,,,
,,894409,001,2023-07-24_21h07.37.424,arm3_eps,2022.2.5,Win32,60.0528465,60c47bdfde98f62c0f688ae3,64aea9d0f615b6559c281482,64becb7d068efe9eb19a6b5d,right,1,0.3,0.4357,7,-0.009498663,0.9314,,,,,,63,0,63,0,1,,,,,
,,894409,001,2023-07-24_21h07.37.424,arm3_eps,2022.2.5,Win32,60.0528465,60c47bdfde98f62c0f688ae3,64aea9d0f615b6559c281482,64becb7d068efe9eb19a6b5d,down,1,0.3,0.4357,7,0,1.6669,,,,,,64,0,64,0,1,,,,,
,,894409,001,2023-07-24_21h07.37.424,arm3_eps,2022.2.5,Win32,60.0528465,60c47bdfde98f62c0f688ae3,64aea9d0f615b6559c281482,64becb7d068efe9eb19a6b5d,right,1,0.3,0.4357,7,0.006172796,1.7833,,,,,,65,0,65,0,1,,,,,
,,894409,001,2023-07-24_21h07.37.424,arm3_eps,2022.2.5,Win32,60.0528465,60c47bdfde98f62c0f688ae3,64aea9d0f615b6559c281482,64becb7d068efe9eb19a6b5d,up,1,0.3,0.4357,8,0,0.9644,,,,,,66,0,66,0,1,,,,,
,,894409,001,2023-07-24_21h07.37.424,arm3_eps,2022.2.5,Win32,60.0528465,60c47bdfde98f62c0f688ae3,64aea9d0f615b6559c281482,64becb7d068efe9eb19a6b5d,right,1,0.3,0.4357,8,0.020007147,2.1008,,,,,,67,0,67,0,1,,,,,
,,894409,001,2023-07-24_21h07.37.424,arm3_eps,2022.2.5,Win32,60.0528465,60c47bdfde98f62c0f688ae3,64aea9d0f615b6559c281482,64becb7d068efe9eb19a6b5d,right,1,0.3,0.4357,8,0.021080706,0.8604,,,,,,68,0,68,0,1,,,,,
,,894409,001,2023-07-24_21h07.37.424,arm3_eps,2022.2.5,Win32,60.0528465,60c47bdfde98f62c0f688ae3,64aea9d0f615b6559c281482,64becb7d068efe9eb19a6b5d,up,1,0.3,0.4357,9,0,2.0657,,,,,,69,0,69,0,1,,,,,
,,894409,001,2023-07-24_21h07.37.424,arm3_eps,2022.2.5,Win32,60.0528465,60c47bdfde98f62c0f688ae3,64aea9d0f615b6559c281482,64becb7d068efe9eb19a6b5d,right,1,0.3,0.4357,9,-0.000333149,1.3499,,,,,,70,0,70,0,1,,,,,
,,894409,001,2023-07-24_21h07.37.424,arm3_eps,2022.2.5,Win32,60.0528465,60c47bdfde98f62c0f688ae3,64aea9d0f615b6559c281482,64becb7d068efe9eb19a6b5d,right,1,0.3,0.4357,9,-0.006530627,0.7495,,,,,,71,0,71,0,1,,,,,
,,894409,001,2023-07-24_21h07.37.424,arm3_eps,2022.2.5,Win32,60.0528465,60c47bdfde98f62c0f688ae3,64aea9d0f615b6559c281482,64becb7d068efe9eb19a6b5d,right,1,0.3,0.4357,9,0.014688204,0.8002,,,,,,72,0,72,0,1,,,,,
,,894409,001,2023-07-24_21h07.37.424,arm3_eps,2022.2.5,Win32,60.0528465,60c47bdfde98f62c0f688ae3,64aea9d0f615b6559c281482,64becb7d068efe9eb19a6b5d,right,1,0.3,0.4357,9,0.017440093,1.0191,,,,,,73,0,73,0,1,,,,,
,,894409,001,2023-07-24_21h07.37.424,arm3_eps,2022.2.5,Win32,60.0528465,60c47bdfde98f62c0f688ae3,64aea9d0f615b6559c281482,64becb7d068efe9eb19a6b5d,up,-1,0.3,0.4357,9,0,1.3984,,,,,,74,0,74,0,1,,,,,
,,894409,001,2023-07-24_21h07.37.424,arm3_eps,2022.2.5,Win32,60.0528465,60c47bdfde98f62c0f688ae3,64aea9d0f615b6559c281482,64becb7d068efe9eb19a6b5d,right,-1,0.3,0.4357,9,-0.014541317,3.3811,,,,,,75,0,75,0,1,,,,,
,,894409,001,2023-07-24_21h07.37.424,arm3_eps,2022.2.5,Win32,60.0528465,60c47bdfde98f62c0f688ae3,64aea9d0f615b6559c281482,64becb7d068efe9eb19a6b5d,right,-1,0.3,0.4357,9,-0.03632721,0.569,,,,,,76,0,76,0,1,,,,,
,,894409,001,2023-07-24_21h07.37.424,arm3_eps,2022.2.5,Win32,60.0528465,60c47bdfde98f62c0f688ae3,64aea9d0f615b6559c281482,64becb7d068efe9eb19a6b5d,down,1,0.3,0.4357,10,0,0.95,,,,,,77,0,77,0,1,,,,,
,,894409,001,2023-07-24_21h07.37.424,arm3_eps,2022.2.5,Win32,60.0528465,60c47bdfde98f62c0f688ae3,64aea9d0f615b6559c281482,64becb7d068efe9eb19a6b5d,right,1,0.3,0.4357,10,0.044352432,1.4495,,,,,,78,0,78,0,1,,,,,
,,894409,001,2023-07-24_21h07.37.424,arm3_eps,2022.2.5,Win32,60.0528465,60c47bdfde98f62c0f688ae3,64aea9d0f615b6559c281482,64becb7d068efe9eb19a6b5d,right,1,0.3,0.4357,10,0.017955129,0.6528,,,,,,79,0,79,0,1,,,,,
,,894409,001,2023-07-24_21h07.37.424,arm3_eps,2022.2.5,Win32,60.0528465,60c47bdfde98f62c0f688ae3,64aea9d0f615b6559c281482,64becb7d068efe9eb19a6b5d,right,1,0.3,0.4357,10,0.039378359,0.6149,,,,,,80,0,80,0,1,,,,,
,,894409,001,2023-07-24_21h07.37.424,arm3_eps,2022.2.5,Win32,60.0528465,60c47bdfde98f62c0f688ae3,64aea9d0f615b6559c281482,64becb7d068efe9eb19a6b5d,up,1,0.3,0.4357,10,0,1.035,,,,,,81,0,81,0,1,,,,,
,,894409,001,2023-07-24_21h07.37.424,arm3_eps,2022.2.5,Win32,60.0528465,60c47bdfde98f62c0f688ae3,64aea9d0f615b6559c281482,64becb7d068efe9eb19a6b5d,down,1,0.3,0.4357,9,0,2.8849,,,,,,82,0,82,0,1,,,,,
,,894409,001,2023-07-24_21h07.37.424,arm3_eps,2022.2.5,Win32,60.0528465,60c47bdfde98f62c0f688ae3,64aea9d0f615b6559c281482,64becb7d068efe9eb19a6b5d,up,-1,0.3,0.4357,10,0,1.9492,,,,,,83,0,83,0,1,,,,,
,,894409,001,2023-07-24_21h07.37.424,arm3_eps,2022.2.5,Win32,60.0528465,60c47bdfde98f62c0f688ae3,64aea9d0f615b6559c281482,64becb7d068efe9eb19a6b5d,right,-1,0.3,0.4357,10,-0.01752914,1.4326,,,,,,84,0,84,0,1,,,,,
,,894409,001,2023-07-24_21h07.37.424,arm3_eps,2022.2.5,Win32,60.0528465,60c47bdfde98f62c0f688ae3,64aea9d0f615b6559c281482,64becb7d068efe9eb19a6b5d,right,-1,0.3,0.4357,10,-0.011984381,0.7004,,,,,,85,0,85,0,1,,,,,
,,894409,001,2023-07-24_21h07.37.424,arm3_eps,2022.2.5,Win32,60.0528465,60c47bdfde98f62c0f688ae3,64aea9d0f615b6559c281482,64becb7d068efe9eb19a6b5d,right,-1,0.3,0.4357,10,0.000267099,0.6153,,,,,,86,0,86,0,1,,,,,
,,894409,001,2023-07-24_21h07.37.424,arm3_eps,2022.2.5,Win32,60.0528465,60c47bdfde98f62c0f688ae3,64aea9d0f615b6559c281482,64becb7d068efe9eb19a6b5d,right,-1,0.3,0.4357,10,-0.046546904,0.8998,,,,,,87,0,87,0,1,,,,,
,,894409,001,2023-07-24_21h07.37.424,arm3_eps,2022.2.5,Win32,60.0528465,60c47bdfde98f62c0f688ae3,64aea9d0f615b6559c281482,64becb7d068efe9eb19a6b5d,down,1,0.3,0.4357,11,0,0.8024,,,,,,88,0,88,0,1,,,,,
,,894409,001,2023-07-24_21h07.37.424,arm3_eps,2022.2.5,Win32,60.0528465,60c47bdfde98f62c0f688ae3,64aea9d0f615b6559c281482,64becb7d068efe9eb19a6b5d,right,1,0.3,0.4357,11,0.007310079,1.9156,,,,,,89,0,89,0,1,,,,,
,,894409,001,2023-07-24_21h07.37.424,arm3_eps,2022.2.5,Win32,60.0528465,60c47bdfde98f62c0f688ae3,64aea9d0f615b6559c281482,64becb7d068efe9eb19a6b5d,right,1,0.3,0.4357,11,0.015006241,0.6648,,,,,,90,0,90,0,1,,,,,
,,894409,001,2023-07-24_21h07.37.424,arm3_eps,2022.2.5,Win32,60.0528465,60c47bdfde98f62c0f688ae3,64aea9d0f615b6559c281482,64becb7d068efe9eb19a6b5d,right,1,0.3,0.4357,11,0.023155344,0.7026,,,,,,91,0,91,0,1,,,,,
,,894409,001,2023-07-24_21h07.37.424,arm3_eps,2022.2.5,Win32,60.0528465,60c47bdfde98f62c0f688ae3,64aea9d0f615b6559c281482,64becb7d068efe9eb19a6b5d,right,1,0.3,0.4357,11,0.02252163,0.6985,,,,,,92,0,92,0,1,,,,,
,,894409,001,2023-07-24_21h07.37.424,arm3_eps,2022.2.5,Win32,60.0528465,60c47bdfde98f62c0f688ae3,64aea9d0f615b6559c281482,64becb7d068efe9eb19a6b5d,right,1,0.3,0.4357,11,0.010411283,0.6646,,,,,,93,0,93,0,1,,,,,
,,894409,001,2023-07-24_21h07.37.424,arm3_eps,2022.2.5,Win32,60.0528465,60c47bdfde98f62c0f688ae3,64aea9d0f615b6559c281482,64becb7d068efe9eb19a6b5d,right,1,0.3,0.4357,11,0.038564612,1.3517,,,,,,94,0,94,0,1,,,,,
,,894409,001,2023-07-24_21h07.37.424,arm3_eps,2022.2.5,Win32,60.0528465,60c47bdfde98f62c0f688ae3,64aea9d0f615b6559c281482,64becb7d068efe9eb19a6b5d,up,-1,0.3,0.4357,12,0,0.9146,,,,,,95,0,95,0,1,,,,,
,,894409,001,2023-07-24_21h07.37.424,arm3_eps,2022.2.5,Win32,60.0528465,60c47bdfde98f62c0f688ae3,64aea9d0f615b6559c281482,64becb7d068efe9eb19a6b5d,right,-1,0.3,0.4357,12,-0.000939294,1.7826,,,,,,96,0,96,0,1,,,,,
,,894409,001,2023-07-24_21h07.37.424,arm3_eps,2022.2.5,Win32,60.0528465,60c47bdfde98f62c0f688ae3,64aea9d0f615b6559c281482,64becb7d068efe9eb19a6b5d,right,-1,0.3,0.4357,12,-0.001181776,0.6504,,,,,,97,0,97,0,1,,,,,
,,894409,001,2023-07-24_21h07.37.424,arm3_eps,2022.2.5,Win32,60.0528465,60c47bdfde98f62c0f688ae3,64aea9d0f615b6559c281482,64becb7d068efe9eb19a6b5d,right,-1,0.3,0.4357,12,0.010798055,0.5663,,,,,,98,0,98,0,1,,,,,
,,894409,001,2023-07-24_21h07.37.424,arm3_eps,2022.2.5,Win32,60.0528465,60c47bdfde98f62c0f688ae3,64aea9d0f615b6559c281482,64becb7d068efe9eb19a6b5d,right,-1,0.3,0.4357,12,0.014665315,0.7685,,,,,,99,0,99,0,1,,,,,
,,894409,001,2023-07-24_21h07.37.424,arm3_eps,2022.2.5,Win32,60.0528465,60c47bdfde98f62c0f688ae3,64aea9d0f615b6559c281482,64becb7d068efe9eb19a6b5d,right,-1,0.3,0.4357,12,-0.014916967,0.686,,,,,,100,0,100,0,1,,,,,
,,894409,001,2023-07-24_21h07.37.424,arm3_eps,2022.2.5,Win32,60.0528465,60c47bdfde98f62c0f688ae3,64aea9d0f615b6559c281482,64becb7d068efe9eb19a6b5d,right,-1,0.3,0.4357,12,0.001962609,0.6492,,,,,,101,0,101,0,1,,,,,
,,894409,001,2023-07-24_21h07.37.424,arm3_eps,2022.2.5,Win32,60.0528465,60c47bdfde98f62c0f688ae3,64aea9d0f615b6559c281482,64becb7d068efe9eb19a6b5d,right,-1,0.3,0.4357,12,-0.009692103,0.8188,,,,,,102,0,102,0,1,,,,,
,,894409,001,2023-07-24_21h07.37.424,arm3_eps,2022.2.5,Win32,60.0528465,60c47bdfde98f62c0f688ae3,64aea9d0f615b6559c281482,64becb7d068efe9eb19a6b5d,right,-1,0.3,0.4357,12,-0.011465308,0.5822,,,,,,103,0,103,0,1,,,,,
,,894409,001,2023-07-24_21h07.37.424,arm3_eps,2022.2.5,Win32,60.0528465,60c47bdfde98f62c0f688ae3,64aea9d0f615b6559c281482,64becb7d068efe9eb19a6b5d,right,-1,0.3,0.4357,12,-0.013286204,0.6354,,,,,,104,0,104,0,1,,,,,
,,894409,001,2023-07-24_21h07.37.424,arm3_eps,2022.2.5,Win32,60.0528465,60c47bdfde98f62c0f688ae3,64aea9d0f615b6559c281482,64becb7d068efe9eb19a6b5d,down,-1,0.3,0.4357,12,0,0.7006,,,,,,105,0,105,0,1,,,,,
,,894409,001,2023-07-24_21h07.37.424,arm3_eps,2022.2.5,Win32,60.0528465,60c47bdfde98f62c0f688ae3,64aea9d0f615b6559c281482,64becb7d068efe9eb19a6b5d,down,-1,0.3,0.4357,13,0,1.316,,,,,,106,0,106,0,1,,,,,
,,894409,001,2023-07-24_21h07.37.424,arm3_eps,2022.2.5,Win32,60.0528465,60c47bdfde98f62c0f688ae3,64aea9d0f615b6559c281482,64becb7d068efe9eb19a6b5d,right,-1,0.3,0.4357,13,-0.030244484,2.4654,,,,,,107,0,107,0,1,,,,,
,,894409,001,2023-07-24_21h07.37.424,arm3_eps,2022.2.5,Win32,60.0528465,60c47bdfde98f62c0f688ae3,64aea9d0f615b6559c281482,64becb7d068efe9eb19a6b5d,right,-1,0.3,0.4357,13,-0.02813946,1.1666,,,,,,108,0,108,0,1,,,,,
,,894409,001,2023-07-24_21h07.37.424,arm3_eps,2022.2.5,Win32,60.0528465,60c47bdfde98f62c0f688ae3,64aea9d0f615b6559c281482,64becb7d068efe9eb19a6b5d,right,-1,0.3,0.4357,13,-0.037386865,0.9167,,,,,,109,0,109,0,1,,,,,
,,894409,001,2023-07-24_21h07.37.424,arm3_eps,2022.2.5,Win32,60.0528465,60c47bdfde98f62c0f688ae3,64aea9d0f615b6559c281482,64becb7d068efe9eb19a6b5d,down,-1,0.3,0.4357,14,0,1.6345,,,,,,110,0,110,0,1,,,,,
,,894409,001,2023-07-24_21h07.37.424,arm3_eps,2022.2.5,Win32,60.0528465,60c47bdfde98f62c0f688ae3,64aea9d0f615b6559c281482,64becb7d068efe9eb19a6b5d,right,-1,0.3,0.4357,14,-0.018201496,1.4162,,,,,,111,0,111,0,1,,,,,
,,894409,001,2023-07-24_21h07.37.424,arm3_eps,2022.2.5,Win32,60.0528465,60c47bdfde98f62c0f688ae3,64aea9d0f615b6559c281482,64becb7d068efe9eb19a6b5d,right,-1,0.3,0.4357,14,-0.036365568,0.7003,,,,,,112,0,112,0,1,,,,,
,,894409,001,2023-07-24_21h07.37.424,arm3_eps,2022.2.5,Win32,60.0528465,60c47bdfde98f62c0f688ae3,64aea9d0f615b6559c281482,64becb7d068efe9eb19a6b5d,down,1,0.3,0.4357,15,0,0.8476,,,,,,113,0,113,0,1,,,,,
,,894409,001,2023-07-24_21h07.37.424,arm3_eps,2022.2.5,Win32,60.0528465,60c47bdfde98f62c0f688ae3,64aea9d0f615b6559c281482,64becb7d068efe9eb19a6b5d,right,1,0.3,0.4357,15,0.022181965,2.3512,,,,,,114,0,114,0,1,,,,,
,,894409,001,2023-07-24_21h07.37.424,arm3_eps,2022.2.5,Win32,60.0528465,60c47bdfde98f62c0f688ae3,64aea9d0f615b6559c281482,64becb7d068efe9eb19a6b5d,right,1,0.3,0.4357,15,0.044404457,0.7448,,,,,,115,0,115,0,1,,,,,
,,894409,001,2023-07-24_21h07.37.424,arm3_eps,2022.2.5,Win32,60.0528465,60c47bdfde98f62c0f688ae3,64aea9d0f615b6559c281482,64becb7d068efe9eb19a6b5d,right,1,0.3,0.4357,15,0.046692681,1.7679,,,,,,116,0,116,0,1,,,,,
,,894409,001,2023-07-24_21h07.37.424,arm3_eps,2022.2.5,Win32,60.0528465,60c47bdfde98f62c0f688ae3,64aea9d0f615b6559c281482,64becb7d068efe9eb19a6b5d,right,1,0.3,0.4357,15,0.045595399,0.568,,,,,,117,0,117,0,1,,,,,
,,894409,001,2023-07-24_21h07.37.424,arm3_eps,2022.2.5,Win32,60.0528465,60c47bdfde98f62c0f688ae3,64aea9d0f615b6559c281482,64becb7d068efe9eb19a6b5d,up,1,0.3,0.4357,15,0,1.1478,,,,,,118,0,118,0,1,,,,,
,,894409,001,2023-07-24_21h07.37.424,arm3_eps,2022.2.5,Win32,60.0528465,60c47bdfde98f62c0f688ae3,64aea9d0f615b6559c281482,64becb7d068efe9eb19a6b5d,down,-1,0.3,0.4357,14,0,1.2491,,,,,,119,0,119,0,1,,,,,
,,894409,001,2023-07-24_21h07.37.424,arm3_eps,2022.2.5,Win32,60.0528465,60c47bdfde98f62c0f688ae3,64aea9d0f615b6559c281482,64becb7d068efe9eb19a6b5d,right,-1,0.3,0.4357,14,-0.014927907,1.3578,,,,,,120,0,120,0,1,,,,,
,,894409,001,2023-07-24_21h07.37.424,arm3_eps,2022.2.5,Win32,60.0528465,60c47bdfde98f62c0f688ae3,64aea9d0f615b6559c281482,64becb7d068efe9eb19a6b5d,right,-1,0.3,0.4357,14,-0.018184218,0.7628,,,,,,121,0,121,0,1,,,,,
,,894409,001,2023-07-24_21h07.37.424,arm3_eps,2022.2.5,Win32,60.0528465,60c47bdfde98f62c0f688ae3,64aea9d0f615b6559c281482,64becb7d068efe9eb19a6b5d,down,-1,0.3,0.4357,15,0,0.8411,,,,,,122,0,122,0,1,,,,,
,,894409,001,2023-07-24_21h07.37.424,arm3_eps,2022.2.5,Win32,60.0528465,60c47bdfde98f62c0f688ae3,64aea9d0f615b6559c281482,64becb7d068efe9eb19a6b5d,right,-1,0.3,0.4357,15,-0.024662646,2.0554,,,,,,123,0,123,0,1,,,,,
,,894409,001,2023-07-24_21h07.37.424,arm3_eps,2022.2.5,Win32,60.0528465,60c47bdfde98f62c0f688ae3,64aea9d0f615b6559c281482,64becb7d068efe9eb19a6b5d,right,-1,0.3,0.4357,15,-0.027467496,0.8283,,,,,,124,0,124,0,1,,,,,
,,894409,001,2023-07-24_21h07.37.424,arm3_eps,2022.2.5,Win32,60.0528465,60c47bdfde98f62c0f688ae3,64aea9d0f615b6559c281482,64becb7d068efe9eb19a6b5d,down,1,0.3,0.4357,15,0,0.7502,,,,,,125,0,125,0,1,,,,,
,,894409,001,2023-07-24_21h07.37.424,arm3_eps,2022.2.5,Win32,60.0528465,60c47bdfde98f62c0f688ae3,64aea9d0f615b6559c281482,64becb7d068efe9eb19a6b5d,right,1,0.3,0.4357,15,-0.015228337,1.2219,,,,,,126,0,126,0,1,,,,,
,,894409,001,2023-07-24_21h07.37.424,arm3_eps,2022.2.5,Win32,60.0528465,60c47bdfde98f62c0f688ae3,64aea9d0f615b6559c281482,64becb7d068efe9eb19a6b5d,right,1,0.3,0.4357,15,-0.024383032,0.6342,,,,,,127,0,127,0,1,,,,,
,,894409,001,2023-07-24_21h07.37.424,arm3_eps,2022.2.5,Win32,60.0528465,60c47bdfde98f62c0f688ae3,64aea9d0f615b6559c281482,64becb7d068efe9eb19a6b5d,up,1,0.3,0.4357,15,0,1.0815,,,,,,128,0,128,0,1,,,,,
,,894409,001,2023-07-24_21h07.37.424,arm3_eps,2022.2.5,Win32,60.0528465,60c47bdfde98f62c0f688ae3,64aea9d0f615b6559c281482,64becb7d068efe9eb19a6b5d,right,1,0.3,0.4357,15,0.020963903,1.1109,,,,,,129,0,129,0,1,,,,,
,,894409,001,2023-07-24_21h07.37.424,arm3_eps,2022.2.5,Win32,60.0528465,60c47bdfde98f62c0f688ae3,64aea9d0f615b6559c281482,64becb7d068efe9eb19a6b5d,right,1,0.3,0.4357,15,0.022153688,0.603,,,,,,130,0,130,0,1,,,,,
,,894409,001,2023-07-24_21h07.37.424,arm3_eps,2022.2.5,Win32,60.0528465,60c47bdfde98f62c0f688ae3,64aea9d0f615b6559c281482,64becb7d068efe9eb19a6b5d,up,-1,0.3,0.4357,15,0,1.0927,,,,,,131,0,131,0,1,,,,,
,,894409,001,2023-07-24_21h07.37.424,arm3_eps,2022.2.5,Win32,60.0528465,60c47bdfde98f62c0f688ae3,64aea9d0f615b6559c281482,64becb7d068efe9eb19a6b5d,right,-1,0.3,0.4357,15,-0.022847149,1.1339,,,,,,132,0,132,0,1,,,,,
,,894409,001,2023-07-24_21h07.37.424,arm3_eps,2022.2.5,Win32,60.0528465,60c47bdfde98f62c0f688ae3,64aea9d0f615b6559c281482,64becb7d068efe9eb19a6b5d,right,-1,0.3,0.4357,15,-0.049158195,0.5778,,,,,,133,0,133,0,1,,,,,
,,894409,001,2023-07-24_21h07.37.424,arm3_eps,2022.2.5,Win32,60.0528465,60c47bdfde98f62c0f688ae3,64aea9d0f615b6559c281482,64becb7d068efe9eb19a6b5d,down,-1,0.3,0.4357,15,0,0.6649,,,,,,134,0,134,0,1,,,,,
,,894409,001,2023-07-24_21h07.37.424,arm3_eps,2022.2.5,Win32,60.0528465,60c47bdfde98f62c0f688ae3,64aea9d0f615b6559c281482,64becb7d068efe9eb19a6b5d,right,-1,0.3,0.4357,15,-0.019502079,1.5776,,,,,,135,0,135,0,1,,,,,
,,894409,001,2023-07-24_21h07.37.424,arm3_eps,2022.2.5,Win32,60.0528465,60c47bdfde98f62c0f688ae3,64aea9d0f615b6559c281482,64becb7d068efe9eb19a6b5d,right,-1,0.3,0.4357,15,0.013248515,0.7206,,,,,,136,0,136,0,1,,,,,
,,894409,001,2023-07-24_21h07.37.424,arm3_eps,2022.2.5,Win32,60.0528465,60c47bdfde98f62c0f688ae3,64aea9d0f615b6559c281482,64becb7d068efe9eb19a6b5d,up,1,0.3,0.4357,15,0,4.5246,,,,,,137,0,137,0,1,,,,,
,,894409,001,2023-07-24_21h07.37.424,arm3_eps,2022.2.5,Win32,60.0528465,60c47bdfde98f62c0f688ae3,64aea9d0f615b6559c281482,64becb7d068efe9eb19a6b5d,right,1,0.3,0.4357,15,0.019366174,1.1426,,,,,,138,0,138,0,1,,,,,
,,894409,001,2023-07-24_21h07.37.424,arm3_eps,2022.2.5,Win32,60.0528465,60c47bdfde98f62c0f688ae3,64aea9d0f615b6559c281482,64becb7d068efe9eb19a6b5d,right,1,0.3,0.4357,15,0.043466829,0.7525,,,,,,139,0,139,0,1,,,,,
,,894409,001,2023-07-24_21h07.37.424,arm3_eps,2022.2.5,Win32,60.0528465,60c47bdfde98f62c0f688ae3,64aea9d0f615b6559c281482,64becb7d068efe9eb19a6b5d,up,-1,0.3,0.4357,15,0,1.184,,,,,,140,0,140,0,1,,,,,
,,894409,001,2023-07-24_21h07.37.424,arm3_eps,2022.2.5,Win32,60.0528465,60c47bdfde98f62c0f688ae3,64aea9d0f615b6559c281482,64becb7d068efe9eb19a6b5d,right,-1,0.3,0.4357,15,-0.019879454,1.0258,,,,,,141,0,141,0,1,,,,,
,,894409,001,2023-07-24_21h07.37.424,arm3_eps,2022.2.5,Win32,60.0528465,60c47bdfde98f62c0f688ae3,64aea9d0f615b6559c281482,64becb7d068efe9eb19a6b5d,right,-1,0.3,0.4357,15,-0.001590013,0.6132,,,,,,142,0,142,0,1,,,,,
,,894409,001,2023-07-24_21h07.37.424,arm3_eps,2022.2.5,Win32,60.0528465,60c47bdfde98f62c0f688ae3,64aea9d0f615b6559c281482,64becb7d068efe9eb19a6b5d,up,1,0.3,0.4357,15,0,1.3627,,,,,,143,0,143,0,1,,,,,
,,894409,001,2023-07-24_21h07.37.424,arm3_eps,2022.2.5,Win32,60.0528465,60c47bdfde98f62c0f688ae3,64aea9d0f615b6559c281482,64becb7d068efe9eb19a6b5d,right,1,0.3,0.4357,15,0.018100081,1.0545,,,,,,144,0,144,0,1,,,,,
,,894409,001,2023-07-24_21h07.37.424,arm3_eps,2022.2.5,Win32,60.0528465,60c47bdfde98f62c0f688ae3,64aea9d0f615b6559c281482,64becb7d068efe9eb19a6b5d,right,1,0.3,0.4357,15,0.040456975,0.6469,,,,,,145,0,145,0,1,,,,,
,,894409,001,2023-07-24_21h07.37.424,arm3_eps,2022.2.5,Win32,60.0528465,60c47bdfde98f62c0f688ae3,64aea9d0f615b6559c281482,64becb7d068efe9eb19a6b5d,up,1,0.3,0.4357,16,0,2.8547,,,,,,146,0,146,0,1,,,,,
,,894409,001,2023-07-24_21h07.37.424,arm3_eps,2022.2.5,Win32,60.0528465,60c47bdfde98f62c0f688ae3,64aea9d0f615b6559c281482,64becb7d068efe9eb19a6b5d,right,1,0.3,0.4357,16,-0.01550774,1.2654,,,,,,147,0,147,0,1,,,,,
,,894409,001,2023-07-24_21h07.37.424,arm3_eps,2022.2.5,Win32,60.0528465,60c47bdfde98f62c0f688ae3,64aea9d0f615b6559c281482,64becb7d068efe9eb19a6b5d,right,1,0.3,0.4357,16,-0.003348491,0.7223,,,,,,148,0,148,0,1,,,,,
,,894409,001,2023-07-24_21h07.37.424,arm3_eps,2022.2.5,Win32,60.0528465,60c47bdfde98f62c0f688ae3,64aea9d0f615b6559c281482,64becb7d068efe9eb19a6b5d,down,1,0.3,0.4357,16,0,1.804,,,,,,149,0,149,0,1,,,,,
,,894409,001,2023-07-24_21h07.37.424,arm3_eps,2022.2.5,Win32,60.0528465,60c47bdfde98f62c0f688ae3,64aea9d0f615b6559c281482,64becb7d068efe9eb19a6b5d,right,1,0.3,0.4357,16,0.000865344,1.0328,,,,,,150,0,150,0,1,,,,,
,,894409,001,2023-07-24_21h07.37.424,arm3_eps,2022.2.5,Win32,60.0528465,60c47bdfde98f62c0f688ae3,64aea9d0f615b6559c281482,64becb7d068efe9eb19a6b5d,right,1,0.3,0.4357,16,0.010794203,0.6044,,,,,,151,0,151,0,1,,,,,
,,894409,001,2023-07-24_21h07.37.424,arm3_eps,2022.2.5,Win32,60.0528465,60c47bdfde98f62c0f688ae3,64aea9d0f615b6559c281482,64becb7d068efe9eb19a6b5d,up,-1,0.3,0.4357,16,0,1.0213,,,,,,152,0,152,0,1,,,,,
,,894409,001,2023-07-24_21h07.37.424,arm3_eps,2022.2.5,Win32,60.0528465,60c47bdfde98f62c0f688ae3,64aea9d0f615b6559c281482,64becb7d068efe9eb19a6b5d,right,-1,0.3,0.4357,16,-0.043482375,0.9823,,,,,,153,0,153,0,1,,,,,
,,894409,001,2023-07-24_21h07.37.424,arm3_eps,2022.2.5,Win32,60.0528465,60c47bdfde98f62c0f688ae3,64aea9d0f615b6559c281482,64becb7d068efe9eb19a6b5d,right,-1,0.3,0.4357,16,-0.019991311,0.6301,,,,,,154,0,154,0,1,,,,,
,,894409,001,2023-07-24_21h07.37.424,arm3_eps,2022.2.5,Win32,60.0528465,60c47bdfde98f62c0f688ae3,64aea9d0f615b6559c281482,64becb7d068efe9eb19a6b5d,up,-1,0.3,0.4357,16,0,1.0978,,,,,,155,0,155,0,1,,,,,
,,894409,001,2023-07-24_21h07.37.424,arm3_eps,2022.2.5,Win32,60.0528465,60c47bdfde98f62c0f688ae3,64aea9d0f615b6559c281482,64becb7d068efe9eb19a6b5d,right,-1,0.3,0.4357,16,0.004263723,1.0933,,,,,,156,0,156,0,1,,,,,
,,894409,001,2023-07-24_21h07.37.424,arm3_eps,2022.2.5,Win32,60.0528465,60c47bdfde98f62c0f688ae3,64aea9d0f615b6559c281482,64becb7d068efe9eb19a6b5d,right,-1,0.3,0.4357,16,-0.003350697,0.6301,,,,,,157,0,157,0,1,,,,,
,,894409,001,2023-07-24_21h07.37.424,arm3_eps,2022.2.5,Win32,60.0528465,60c47bdfde98f62c0f688ae3,64aea9d0f615b6559c281482,64becb7d068efe9eb19a6b5d,up,1,0.3,0.4357,16,0,1.2185,,,,,,158,0,158,0,1,,,,,
,,894409,001,2023-07-24_21h07.37.424,arm3_eps,2022.2.5,Win32,60.0528465,60c47bdfde98f62c0f688ae3,64aea9d0f615b6559c281482,64becb7d068efe9eb19a6b5d,right,1,0.3,0.4357,16,0.009987806,1.1401,,,,,,159,0,159,0,1,,,,,
,,894409,001,2023-07-24_21h07.37.424,arm3_eps,2022.2.5,Win32,60.0528465,60c47bdfde98f62c0f688ae3,64aea9d0f615b6559c281482,64becb7d068efe9eb19a6b5d,right,1,0.3,0.4357,16,0.00870074,0.5811,,,,,,160,0,160,0,1,,,,,
,,894409,001,2023-07-24_21h07.37.424,arm3_eps,2022.2.5,Win32,60.0528465,60c47bdfde98f62c0f688ae3,64aea9d0f615b6559c281482,64becb7d068efe9eb19a6b5d,up,-1,0.3,0.4357,16,0,1.2488,,,,,,161,0,161,0,1,,,,,
,,894409,001,2023-07-24_21h07.37.424,arm3_eps,2022.2.5,Win32,60.0528465,60c47bdfde98f62c0f688ae3,64aea9d0f615b6559c281482,64becb7d068efe9eb19a6b5d,right,-1,0.3,0.4357,16,-0.021033093,1.0144,,,,,,162,0,162,0,1,,,,,
,,894409,001,2023-07-24_21h07.37.424,arm3_eps,2022.2.5,Win32,60.0528465,60c47bdfde98f62c0f688ae3,64aea9d0f615b6559c281482,64becb7d068efe9eb19a6b5d,right,-1,0.3,0.4357,16,0.000140284,0.5627,,,,,,163,0,163,0,1,,,,,
,,894409,001,2023-07-24_21h07.37.424,arm3_eps,2022.2.5,Win32,60.0528465,60c47bdfde98f62c0f688ae3,64aea9d0f615b6559c281482,64becb7d068efe9eb19a6b5d,right,-1,0.3,0.4357,16,-0.022789365,1.6434,,,,,,164,0,164,0,1,,,,,
,,894409,001,2023-07-24_21h07.37.424,arm3_eps,2022.2.5,Win32,60.0528465,60c47bdfde98f62c0f688ae3,64aea9d0f615b6559c281482,64becb7d068efe9eb19a6b5d,down,1,0.3,0.4357,16,0,1.0391,,,,,,165,0,165,0,1,,,,,
,,894409,001,2023-07-24_21h07.37.424,arm3_eps,2022.2.5,Win32,60.0528465,60c47bdfde98f62c0f688ae3,64aea9d0f615b6559c281482,64becb7d068efe9eb19a6b5d,right,1,0.3,0.4357,16,0.025925781,0.9611,,,,,,166,0,166,0,1,,,,,
,,894409,001,2023-07-24_21h07.37.424,arm3_eps,2022.2.5,Win32,60.0528465,60c47bdfde98f62c0f688ae3,64aea9d0f615b6559c281482,64becb7d068efe9eb19a6b5d,right,1,0.3,0.4357,16,0.045956503,1.1135,,,,,,167,0,167,0,1,,,,,
,,894409,001,2023-07-24_21h07.37.424,arm3_eps,2022.2.5,Win32,60.0528465,60c47bdfde98f62c0f688ae3,64aea9d0f615b6559c281482,64becb7d068efe9eb19a6b5d,up,1,0.3,0.4357,16,0,1.0705,,,,,,168,0,168,0,1,,,,,
,,894409,001,2023-07-24_21h07.37.424,arm3_eps,2022.2.5,Win32,60.0528465,60c47bdfde98f62c0f688ae3,64aea9d0f615b6559c281482,64becb7d068efe9eb19a6b5d,down,-1,0.3,0.4357,16,0,2.8833,,,,,,169,0,169,0,1,,,,,
,,894409,001,2023-07-24_21h07.37.424,arm3_eps,2022.2.5,Win32,60.0528465,60c47bdfde98f62c0f688ae3,64aea9d0f615b6559c281482,64becb7d068efe9eb19a6b5d,down,-1,0.3,0.4357,16,0,1.9489,,,,,,170,0,170,0,1,,,,,
,,894409,001,2023-07-24_21h07.37.424,arm3_eps,2022.2.5,Win32,60.0528465,60c47bdfde98f62c0f688ae3,64aea9d0f615b6559c281482,64becb7d068efe9eb19a6b5d,right,-1,0.3,0.4357,16,-0.006784472,1.9362,,,,,,171,0,171,0,1,,,,,
,,894409,001,2023-07-24_21h07.37.424,arm3_eps,2022.2.5,Win32,60.0528465,60c47bdfde98f62c0f688ae3,64aea9d0f615b6559c281482,64becb7d068efe9eb19a6b5d,down,1,0.3,0.4357,17,0,0.8654,,,,,,172,0,172,0,1,,,,,
,,894409,001,2023-07-24_21h07.37.424,arm3_eps,2022.2.5,Win32,60.0528465,60c47bdfde98f62c0f688ae3,64aea9d0f615b6559c281482,64becb7d068efe9eb19a6b5d,right,1,0.3,0.4357,17,-0.022583718,1.9796,,,,,,173,0,173,0,1,,,,,
,,894409,001,2023-07-24_21h07.37.424,arm3_eps,2022.2.5,Win32,60.0528465,60c47bdfde98f62c0f688ae3,64aea9d0f615b6559c281482,64becb7d068efe9eb19a6b5d,up,1,0.3,0.4357,18,0,1.1471,,,,,,174,0,174,0,1,,,,,
,,894409,001,2023-07-24_21h07.37.424,arm3_eps,2022.2.5,Win32,60.0528465,60c47bdfde98f62c0f688ae3,64aea9d0f615b6559c281482,64becb7d068efe9eb19a6b5d,right,1,0.3,0.4357,18,0.033798121,1.5634,,,,,,175,0,175,0,1,,,,,
,,894409,001,2023-07-24_21h07.37.424,arm3_eps,2022.2.5,Win32,60.0528465,60c47bdfde98f62c0f688ae3,64aea9d0f615b6559c281482,64becb7d068efe9eb19a6b5d,right,1,0.3,0.4357,18,0.021614977,1.107,,,,,,176,0,176,0,1,,,,,
,,894409,001,2023-07-24_21h07.37.424,arm3_eps,2022.2.5,Win32,60.0528465,60c47bdfde98f62c0f688ae3,64aea9d0f615b6559c281482,64becb7d068efe9eb19a6b5d,up,-1,0.3,0.4357,19,0,0.94,,,,,,177,0,177,0,1,,,,,
,,894409,001,2023-07-24_21h07.37.424,arm3_eps,2022.2.5,Win32,60.0528465,60c47bdfde98f62c0f688ae3,64aea9d0f615b6559c281482,64becb7d068efe9eb19a6b5d,right,-1,0.3,0.4357,19,-0.03443101,1.6586,,,,,,178,0,178,0,1,,,,,
,,894409,001,2023-07-24_21h07.37.424,arm3_eps,2022.2.5,Win32,60.0528465,60c47bdfde98f62c0f688ae3,64aea9d0f615b6559c281482,64becb7d068efe9eb19a6b5d,right,-1,0.3,0.4357,19,-0.040379045,1.0325,,,,,,179,0,179,0,1,,,,,
,,894409,001,2023-07-24_21h07.37.424,arm3_eps,2022.2.5,Win32,60.0528465,60c47bdfde98f62c0f688ae3,64aea9d0f615b6559c281482,64becb7d068efe9eb19a6b5d,down,-1,0.3,0.4357,20,0,0.6501,,,,,,180,0,180,0,1,,,,,
,,894409,001,2023-07-24_21h07.37.424,arm3_eps,2022.2.5,Win32,60.0528465,60c47bdfde98f62c0f688ae3,64aea9d0f615b6559c281482,64becb7d068efe9eb19a6b5d,right,-1,0.3,0.4357,20,-0.023371305,1.0692,,,,,,181,0,181,0,1,,,,,
,,894409,001,2023-07-24_21h07.37.424,arm3_eps,2022.2.5,Win32,60.0528465,60c47bdfde98f62c0f688ae3,64aea9d0f615b6559c281482,64becb7d068efe9eb19a6b5d,right,-1,0.3,0.4357,20,-0.033536823,0.974,,,,,,182,0,182,0,1,,,,,
,,894409,001,2023-07-24_21h07.37.424,arm3_eps,2022.2.5,Win32,60.0528465,60c47bdfde98f62c0f688ae3,64aea9d0f615b6559c281482,64becb7d068efe9eb19a6b5d,down,-1,0.3,0.4357,21,0,0.8097,,,,,,183,0,183,0,1,,,,,
,,894409,001,2023-07-24_21h07.37.424,arm3_eps,2022.2.5,Win32,60.0528465,60c47bdfde98f62c0f688ae3,64aea9d0f615b6559c281482,64becb7d068efe9eb19a6b5d,right,-1,0.3,0.4357,21,-0.028732625,1.0086,,,,,,184,0,184,0,1,,,,,
,,894409,001,2023-07-24_21h07.37.424,arm3_eps,2022.2.5,Win32,60.0528465,60c47bdfde98f62c0f688ae3,64aea9d0f615b6559c281482,64becb7d068efe9eb19a6b5d,right,-1,0.3,0.4357,21,-0.029074164,0.6525,,,,,,185,0,185,0,1,,,,,
,,894409,001,2023-07-24_21h07.37.424,arm3_eps,2022.2.5,Win32,60.0528465,60c47bdfde98f62c0f688ae3,64aea9d0f615b6559c281482,64becb7d068efe9eb19a6b5d,right,-1,0.3,0.4357,21,-0.010544012,0.7112,,,,,,186,0,186,0,1,,,,,
,,894409,001,2023-07-24_21h07.37.424,arm3_eps,2022.2.5,Win32,60.0528465,60c47bdfde98f62c0f688ae3,64aea9d0f615b6559c281482,64becb7d068efe9eb19a6b5d,right,-1,0.3,0.4357,21,-0.013365806,1.2785,,,,,,187,0,187,0,1,,,,,
,,894409,001,2023-07-24_21h07.37.424,arm3_eps,2022.2.5,Win32,60.0528465,60c47bdfde98f62c0f688ae3,64aea9d0f615b6559c281482,64becb7d068efe9eb19a6b5d,right,-1,0.3,0.4357,21,-0.044631772,0.5682,,,,,,188,0,188,0,1,,,,,
,,894409,001,2023-07-24_21h07.37.424,arm3_eps,2022.2.5,Win32,60.0528465,60c47bdfde98f62c0f688ae3,64aea9d0f615b6559c281482,64becb7d068efe9eb19a6b5d,down,-1,0.3,0.4357,21,0,0.6124,,,,,,189,0,189,0,1,,,,,
,,894409,001,2023-07-24_21h07.37.424,arm3_eps,2022.2.5,Win32,60.0528465,60c47bdfde98f62c0f688ae3,64aea9d0f615b6559c281482,64becb7d068efe9eb19a6b5d,down,1,0.3,0.4357,21,0,1.1427,,,,,,190,0,190,0,1,,,,,
,,894409,001,2023-07-24_21h07.37.424,arm3_eps,2022.2.5,Win32,60.0528465,60c47bdfde98f62c0f688ae3,64aea9d0f615b6559c281482,64becb7d068efe9eb19a6b5d,right,1,0.3,0.4357,21,0.020642241,2.1445,,,,,,191,0,191,0,1,,,,,
,,894409,001,2023-07-24_21h07.37.424,arm3_eps,2022.2.5,Win32,60.0528465,60c47bdfde98f62c0f688ae3,64aea9d0f615b6559c281482,64becb7d068efe9eb19a6b5d,up,1,0.3,0.4357,22,0,1.3002,,,,,,192,0,192,0,1,,,,,
,,894409,001,2023-07-24_21h07.37.424,arm3_eps,2022.2.5,Win32,60.0528465,60c47bdfde98f62c0f688ae3,64aea9d0f615b6559c281482,64becb7d068efe9eb19a6b5d,right,1,0.3,0.4357,22,0.028924269,1.1824,,,,,,193,0,193,0,1,,,,,
,,894409,001,2023-07-24_21h07.37.424,arm3_eps,2022.2.5,Win32,60.0528465,60c47bdfde98f62c0f688ae3,64aea9d0f615b6559c281482,64becb7d068efe9eb19a6b5d,up,1,0.3,0.4357,23,0,1.0518,,,,,,194,0,194,0,1,,,,,
,,894409,001,2023-07-24_21h07.37.424,arm3_eps,2022.2.5,Win32,60.0528465,60c47bdfde98f62c0f688ae3,64aea9d0f615b6559c281482,64becb7d068efe9eb19a6b5d,right,1,0.3,0.4357,23,0.022999068,1.0035,,,,,,195,0,195,0,1,,,,,
,,894409,001,2023-07-24_21h07.37.424,arm3_eps,2022.2.5,Win32,60.0528465,60c47bdfde98f62c0f688ae3,64aea9d0f615b6559c281482,64becb7d068efe9eb19a6b5d,right,1,0.3,0.4357,23,0.030981843,0.684,,,,,,196,0,196,0,1,,,,,
,,894409,001,2023-07-24_21h07.37.424,arm3_eps,2022.2.5,Win32,60.0528465,60c47bdfde98f62c0f688ae3,64aea9d0f615b6559c281482,64becb7d068efe9eb19a6b5d,up,1,0.3,0.4357,23,0,0.7833,,,,,,197,0,197,0,1,,,,,
,,894409,001,2023-07-24_21h07.37.424,arm3_eps,2022.2.5,Win32,60.0528465,60c47bdfde98f62c0f688ae3,64aea9d0f615b6559c281482,64becb7d068efe9eb19a6b5d,right,1,0.3,0.4357,23,0.02164413,0.906,,,,,,198,0,198,0,1,,,,,
,,894409,001,2023-07-24_21h07.37.424,arm3_eps,2022.2.5,Win32,60.0528465,60c47bdfde98f62c0f688ae3,64aea9d0f615b6559c281482,64becb7d068efe9eb19a6b5d,right,1,0.3,0.4357,23,0.050089022,0.6285,,,,,,199,0,199,0,1,,,,,
,,894409,001,2023-07-24_21h07.37.424,arm3_eps,2022.2.5,Win32,60.0528465,60c47bdfde98f62c0f688ae3,64aea9d0f615b6559c281482,64becb7d068efe9eb19a6b5d,up,1,0.3,0.4357,24,0,0.9621,,,,,,200,0,200,0,1,,,,,
,,894409,001,2023-07-24_21h07.37.424,arm3_eps,2022.2.5,Win32,60.0528465,60c47bdfde98f62c0f688ae3,64aea9d0f615b6559c281482,64becb7d068efe9eb19a6b5d,right,1,0.3,0.4357,24,0.026284694,1.0083,,,,,,201,0,201,0,1,,,,,
,,894409,001,2023-07-24_21h07.37.424,arm3_eps,2022.2.5,Win32,60.0528465,60c47bdfde98f62c0f688ae3,64aea9d0f615b6559c281482,64becb7d068efe9eb19a6b5d,right,1,0.3,0.4357,24,0.018635346,0.5546,,,,,,202,0,202,0,1,,,,,
,,894409,001,2023-07-24_21h07.37.424,arm3_eps,2022.2.5,Win32,60.0528465,60c47bdfde98f62c0f688ae3,64aea9d0f615b6559c281482,64becb7d068efe9eb19a6b5d,up,-1,0.3,0.4357,24,0,0.8148,,,,,,203,0,203,0,1,,,,,
,,894409,001,2023-07-24_21h07.37.424,arm3_eps,2022.2.5,Win32,60.0528465,60c47bdfde98f62c0f688ae3,64aea9d0f615b6559c281482,64becb7d068efe9eb19a6b5d,right,-1,0.3,0.4357,24,-0.018882382,1.4438,,,,,,204,0,204,0,1,,,,,
,,894409,001,2023-07-24_21h07.37.424,arm3_eps,2022.2.5,Win32,60.0528465,60c47bdfde98f62c0f688ae3,64aea9d0f615b6559c281482,64becb7d068efe9eb19a6b5d,right,-1,0.3,0.4357,24,-0.029977671,0.6291,,,,,,205,0,205,0,1,,,,,
,,894409,001,2023-07-24_21h07.37.424,arm3_eps,2022.2.5,Win32,60.0528465,60c47bdfde98f62c0f688ae3,64aea9d0f615b6559c281482,64becb7d068efe9eb19a6b5d,up,1,0.3,0.4357,24,0,1.646,,,,,,206,0,206,0,1,,,,,
,,894409,001,2023-07-24_21h07.37.424,arm3_eps,2022.2.5,Win32,60.0528465,60c47bdfde98f62c0f688ae3,64aea9d0f615b6559c281482,64becb7d068efe9eb19a6b5d,right,1,0.3,0.4357,24,0.00525851,1.0029,,,,,,207,0,207,0,1,,,,,
,,894409,001,2023-07-24_21h07.37.424,arm3_eps,2022.2.5,Win32,60.0528465,60c47bdfde98f62c0f688ae3,64aea9d0f615b6559c281482,64becb7d068efe9eb19a6b5d,right,1,0.3,0.4357,24,0.036654998,0.5773,,,,,,208,0,208,0,1,,,,,
,,894409,001,2023-07-24_21h07.37.424,arm3_eps,2022.2.5,Win32,60.0528465,60c47bdfde98f62c0f688ae3,64aea9d0f615b6559c281482,64becb7d068efe9eb19a6b5d,up,1,0.3,0.4357,24,0,1.5963,,,,,,209,0,209,0,1,,,,,
,,894409,001,2023-07-24_21h07.37.424,arm3_eps,2022.2.5,Win32,60.0528465,60c47bdfde98f62c0f688ae3,64aea9d0f615b6559c281482,64becb7d068efe9eb19a6b5d,right,1,0.3,0.4357,24,0.03481573,0.7837,,,,,,210,0,210,0,1,,,,,
,,894409,001,2023-07-24_21h07.37.424,arm3_eps,2022.2.5,Win32,60.0528465,60c47bdfde98f62c0f688ae3,64aea9d0f615b6559c281482,64becb7d068efe9eb19a6b5d,right,1,0.3,0.4357,24,0.045972133,0.5121,,,,,,211,0,211,0,1,,,,,
,,894409,001,2023-07-24_21h07.37.424,arm3_eps,2022.2.5,Win32,60.0528465,60c47bdfde98f62c0f688ae3,64aea9d0f615b6559c281482,64becb7d068efe9eb19a6b5d,up,-1,0.3,0.4357,24,0,0.5674,,,,,,212,0,212,0,1,,,,,
,,894409,001,2023-07-24_21h07.37.424,arm3_eps,2022.2.5,Win32,60.0528465,60c47bdfde98f62c0f688ae3,64aea9d0f615b6559c281482,64becb7d068efe9eb19a6b5d,right,-1,0.3,0.4357,24,-0.003481095,2.0191,,,,,,213,0,213,0,1,,,,,
,,894409,001,2023-07-24_21h07.37.424,arm3_eps,2022.2.5,Win32,60.0528465,60c47bdfde98f62c0f688ae3,64aea9d0f615b6559c281482,64becb7d068efe9eb19a6b5d,right,-1,0.3,0.4357,24,-0.007014821,0.7122,,,,,,214,0,214,0,1,,,,,
,,894409,001,2023-07-24_21h07.37.424,arm3_eps,2022.2.5,Win32,60.0528465,60c47bdfde98f62c0f688ae3,64aea9d0f615b6559c281482,64becb7d068efe9eb19a6b5d,down,-1,0.3,0.4357,24,0,0.7332,,,,,,215,0,215,0,1,,,,,
,,894409,001,2023-07-24_21h07.37.424,arm3_eps,2022.2.5,Win32,60.0528465,60c47bdfde98f62c0f688ae3,64aea9d0f615b6559c281482,64becb7d068efe9eb19a6b5d,right,-1,0.3,0.4357,24,-0.020579156,1.4818,,,,,,216,0,216,0,1,,,,,
,,894409,001,2023-07-24_21h07.37.424,arm3_eps,2022.2.5,Win32,60.0528465,60c47bdfde98f62c0f688ae3,64aea9d0f615b6559c281482,64becb7d068efe9eb19a6b5d,up,1,0.3,0.4357,24,0,0.9489,,,,,,217,0,217,0,1,,,,,
,,894409,001,2023-07-24_21h07.37.424,arm3_eps,2022.2.5,Win32,60.0528465,60c47bdfde98f62c0f688ae3,64aea9d0f615b6559c281482,64becb7d068efe9eb19a6b5d,right,1,0.3,0.4357,24,0.01093323,0.906,,,,,,218,0,218,0,1,,,,,
,,894409,001,2023-07-24_21h07.37.424,arm3_eps,2022.2.5,Win32,60.0528465,60c47bdfde98f62c0f688ae3,64aea9d0f615b6559c281482,64becb7d068efe9eb19a6b5d,right,1,0.3,0.4357,24,0.014504837,0.5538,,,,,,219,0,219,0,1,,,,,
,,894409,001,2023-07-24_21h07.37.424,arm3_eps,2022.2.5,Win32,60.0528465,60c47bdfde98f62c0f688ae3,64aea9d0f615b6559c281482,64becb7d068efe9eb19a6b5d,up,1,0.3,0.4357,24,0,1.1804,,,,,,220,0,220,0,1,,,,,
,,894409,001,2023-07-24_21h07.37.424,arm3_eps,2022.2.5,Win32,60.0528465,60c47bdfde98f62c0f688ae3,64aea9d0f615b6559c281482,64becb7d068efe9eb19a6b5d,right,1,0.3,0.4357,24,0.01126736,1.8711,,,,,,221,0,221,0,1,,,,,
,,894409,001,2023-07-24_21h07.37.424,arm3_eps,2022.2.5,Win32,60.0528465,60c47bdfde98f62c0f688ae3,64aea9d0f615b6559c281482,64becb7d068efe9eb19a6b5d,up,1,0.3,0.4357,25,0,0.901,,,,,,222,0,222,0,1,,,,,
,,894409,001,2023-07-24_21h07.37.424,arm3_eps,2022.2.5,Win32,60.0528465,60c47bdfde98f62c0f688ae3,64aea9d0f615b6559c281482,64becb7d068efe9eb19a6b5d,right,1,0.3,0.4357,25,0.017675563,1.7098,,,,,,223,0,223,0,1,,,,,
,,894409,001,2023-07-24_21h07.37.424,arm3_eps,2022.2.5,Win32,60.0528465,60c47bdfde98f62c0f688ae3,64aea9d0f615b6559c281482,64becb7d068efe9eb19a6b5d,up,-1,0.3,0.4357,25,0,0.7031,,,,,,224,0,224,0,1,,,,,
,,894409,001,2023-07-24_21h07.37.424,arm3_eps,2022.2.5,Win32,60.0528465,60c47bdfde98f62c0f688ae3,64aea9d0f615b6559c281482,64becb7d068efe9eb19a6b5d,right,-1,0.3,0.4357,25,0.002551408,1.0903,,,,,,225,0,225,0,1,,,,,
,,894409,001,2023-07-24_21h07.37.424,arm3_eps,2022.2.5,Win32,60.0528465,60c47bdfde98f62c0f688ae3,64aea9d0f615b6559c281482,64becb7d068efe9eb19a6b5d,right,-1,0.3,0.4357,25,-0.023768719,0.662,,,,,,226,0,226,0,1,,,,,
,,894409,001,2023-07-24_21h07.37.424,arm3_eps,2022.2.5,Win32,60.0528465,60c47bdfde98f62c0f688ae3,64aea9d0f615b6559c281482,64becb7d068efe9eb19a6b5d,down,-1,0.3,0.4357,25,0,0.6093,,,,,,227,0,227,0,1,,,,,
,,894409,001,2023-07-24_21h07.37.424,arm3_eps,2022.2.5,Win32,60.0528465,60c47bdfde98f62c0f688ae3,64aea9d0f615b6559c281482,64becb7d068efe9eb19a6b5d,right,-1,0.3,0.4357,25,-0.004608223,1.4678,,,,,,228,0,228,0,1,,,,,
,,894409,001,2023-07-24_21h07.37.424,arm3_eps,2022.2.5,Win32,60.0528465,60c47bdfde98f62c0f688ae3,64aea9d0f615b6559c281482,64becb7d068efe9eb19a6b5d,right,-1,0.3,0.4357,25,-0.022225358,0.7459,,,,,,229,0,229,0,1,,,,,
,,894409,001,2023-07-24_21h07.37.424,arm3_eps,2022.2.5,Win32,60.0528465,60c47bdfde98f62c0f688ae3,64aea9d0f615b6559c281482,64becb7d068efe9eb19a6b5d,down,1,0.3,0.4357,26,0,1.0329,,,,,,230,0,230,0,1,,,,,
,,894409,001,2023-07-24_21h07.37.424,arm3_eps,2022.2.5,Win32,60.0528465,60c47bdfde98f62c0f688ae3,64aea9d0f615b6559c281482,64becb7d068efe9eb19a6b5d,right,1,0.3,0.4357,26,0.010582232,1.2246,,,,,,231,0,231,0,1,,,,,
,,894409,001,2023-07-24_21h07.37.424,arm3_eps,2022.2.5,Win32,60.0528465,60c47bdfde98f62c0f688ae3,64aea9d0f615b6559c281482,64becb7d068efe9eb19a6b5d,right,1,0.3,0.4357,26,0.026104663,0.6603,,,,,,232,0,232,0,1,,,,,
,,894409,001,2023-07-24_21h07.37.424,arm3_eps,2022.2.5,Win32,60.0528465,60c47bdfde98f62c0f688ae3,64aea9d0f615b6559c281482,64becb7d068efe9eb19a6b5d,up,1,0.3,0.4357,27,0,1.0621,,,,,,233,0,233,0,1,,,,,
,,894409,001,2023-07-24_21h07.37.424,arm3_eps,2022.2.5,Win32,60.0528465,60c47bdfde98f62c0f688ae3,64aea9d0f615b6559c281482,64becb7d068efe9eb19a6b5d,right,1,0.3,0.4357,27,0.019779196,1.6764,,,,,,234,0,234,0,1,,,,,
,,894409,001,2023-07-24_21h07.37.424,arm3_eps,2022.2.5,Win32,60.0528465,60c47bdfde98f62c0f688ae3,64aea9d0f615b6559c281482,64becb7d068efe9eb19a6b5d,right,1,0.3,0.4357,27,0.032305132,0.7051,,,,,,235,0,235,0,1,,,,,
,,894409,001,2023-07-24_21h07.37.424,arm3_eps,2022.2.5,Win32,60.0528465,60c47bdfde98f62c0f688ae3,64aea9d0f615b6559c281482,64becb7d068efe9eb19a6b5d,up,1,0.3,0.4357,27,0,0.929,,,,,,236,0,236,0,1,,,,,
,,894409,001,2023-07-24_21h07.37.424,arm3_eps,2022.2.5,Win32,60.0528465,60c47bdfde98f62c0f688ae3,64aea9d0f615b6559c281482,64becb7d068efe9eb19a6b5d,right,1,0.3,0.4357,27,0.005053819,1.341,,,,,,237,0,237,0,1,,,,,
,,894409,001,2023-07-24_21h07.37.424,arm3_eps,2022.2.5,Win32,60.0528465,60c47bdfde98f62c0f688ae3,64aea9d0f615b6559c281482,64becb7d068efe9eb19a6b5d,right,1,0.3,0.4357,27,0.038698755,0.6647,,,,,,238,0,238,0,1,,,,,
,,894409,001,2023-07-24_21h07.37.424,arm3_eps,2022.2.5,Win32,60.0528465,60c47bdfde98f62c0f688ae3,64aea9d0f615b6559c281482,64becb7d068efe9eb19a6b5d,up,1,0.3,0.4357,27,0,1,,,,,,239,0,239,0,1,,,,,
,,894409,001,2023-07-24_21h07.37.424,arm3_eps,2022.2.5,Win32,60.0528465,60c47bdfde98f62c0f688ae3,64aea9d0f615b6559c281482,64becb7d068efe9eb19a6b5d,right,1,0.3,0.4357,27,0.023862346,1.0363,,,,,,240,0,240,0,1,,,,,
,,894409,001,2023-07-24_21h07.37.424,arm3_eps,2022.2.5,Win32,60.0528465,60c47bdfde98f62c0f688ae3,64aea9d0f615b6559c281482,64becb7d068efe9eb19a6b5d,right,1,0.3,0.4357,27,0.060919657,0.7641,,,,,,241,0,241,0,1,,,,,
,,894409,001,2023-07-24_21h07.37.424,arm3_eps,2022.2.5,Win32,60.0528465,60c47bdfde98f62c0f688ae3,64aea9d0f615b6559c281482,64becb7d068efe9eb19a6b5d,up,1,0.3,0.4357,27,0,1.2113,,,,,,242,0,242,0,1,,,,,
,,894409,001,2023-07-24_21h07.37.424,arm3_eps,2022.2.5,Win32,60.0528465,60c47bdfde98f62c0f688ae3,64aea9d0f615b6559c281482,64becb7d068efe9eb19a6b5d,right,1,0.3,0.4357,27,0.038600337,1.4552,,,,,,243,0,243,0,1,,,,,
,,894409,001,2023-07-24_21h07.37.424,arm3_eps,2022.2.5,Win32,60.0528465,60c47bdfde98f62c0f688ae3,64aea9d0f615b6559c281482,64becb7d068efe9eb19a6b5d,right,1,0.3,0.4357,27,0.034689909,0.5245,,,,,,244,0,244,0,1,,,,,
,,894409,001,2023-07-24_21h07.37.424,arm3_eps,2022.2.5,Win32,60.0528465,60c47bdfde98f62c0f688ae3,64aea9d0f615b6559c281482,64becb7d068efe9eb19a6b5d,up,1,0.3,0.4357,27,0,0.8305,,,,,,245,0,245,0,1,,,,,
,,894409,001,2023-07-24_21h07.37.424,arm3_eps,2022.2.5,Win32,60.0528465,60c47bdfde98f62c0f688ae3,64aea9d0f615b6559c281482,64becb7d068efe9eb19a6b5d,right,1,0.3,0.4357,27,0.009034128,1.043,,,,,,246,0,246,0,1,,,,,
,,894409,001,2023-07-24_21h07.37.424,arm3_eps,2022.2.5,Win32,60.0528465,60c47bdfde98f62c0f688ae3,64aea9d0f615b6559c281482,64becb7d068efe9eb19a6b5d,right,1,0.3,0.4357,27,0.006288938,0.4823,,,,,,247,0,247,0,1,,,,,
,,894409,001,2023-07-24_21h07.37.424,arm3_eps,2022.2.5,Win32,60.0528465,60c47bdfde98f62c0f688ae3,64aea9d0f615b6559c281482,64becb7d068efe9eb19a6b5d,up,1,0.3,0.4357,27,0,0.8706,,,,,,248,0,248,0,1,,,,,
,,894409,001,2023-07-24_21h07.37.424,arm3_eps,2022.2.5,Win32,60.0528465,60c47bdfde98f62c0f688ae3,64aea9d0f615b6559c281482,64becb7d068efe9eb19a6b5d,right,1,0.3,0.4357,27,0.028340715,0.9,,,,,,249,0,249,0,1,,,,,
,,894409,001,2023-07-24_21h07.37.424,arm3_eps,2022.2.5,Win32,60.0528465,60c47bdfde98f62c0f688ae3,64aea9d0f615b6559c281482,64becb7d068efe9eb19a6b5d,right,1,0.3,0.4357,27,0.049284083,0.6112,,,,,,250,0,250,0,1,,,,,
,,894409,001,2023-07-24_21h07.37.424,arm3_eps,2022.2.5,Win32,60.0528465,60c47bdfde98f62c0f688ae3,64aea9d0f615b6559c281482,64becb7d068efe9eb19a6b5d,up,1,0.3,0.4357,27,0,0.5991,,,,,,251,0,251,0,1,,,,,
,,894409,001,2023-07-24_21h07.37.424,arm3_eps,2022.2.5,Win32,60.0528465,60c47bdfde98f62c0f688ae3,64aea9d0f615b6559c281482,64becb7d068efe9eb19a6b5d,right,1,0.3,0.4357,27,-0.021657365,0.9297,,,,,,252,0,252,0,1,,,,,
,,894409,001,2023-07-24_21h07.37.424,arm3_eps,2022.2.5,Win32,60.0528465,60c47bdfde98f62c0f688ae3,64aea9d0f615b6559c281482,64becb7d068efe9eb19a6b5d,right,1,0.3,0.4357,27,-0.014104366,0.5822,,,,,,253,0,253,0,1,,,,,
,,894409,001,2023-07-24_21h07.37.424,arm3_eps,2022.2.5,Win32,60.0528465,60c47bdfde98f62c0f688ae3,64aea9d0f615b6559c281482,64becb7d068efe9eb19a6b5d,down,-1,0.3,0.4357,27,0,0.9117,,,,,,254,0,254,0,1,,,,,
,,894409,001,2023-07-24_21h07.37.424,arm3_eps,2022.2.5,Win32,60.0528465,60c47bdfde98f62c0f688ae3,64aea9d0f615b6559c281482,64becb7d068efe9eb19a6b5d,right,-1,0.3,0.4357,27,0.025745047,0.978,,,,,,255,0,255,0,1,,,,,
,,894409,001,2023-07-24_21h07.37.424,arm3_eps,2022.2.5,Win32,60.0528465,60c47bdfde98f62c0f688ae3,64aea9d0f615b6559c281482,64becb7d068efe9eb19a6b5d,right,-1,0.3,0.4357,27,0.015882532,0.634,,,,,,256,0,256,0,1,,,,,
,,894409,001,2023-07-24_21h07.37.424,arm3_eps,2022.2.5,Win32,60.0528465,60c47bdfde98f62c0f688ae3,64aea9d0f615b6559c281482,64becb7d068efe9eb19a6b5d,down,-1,0.3,0.4357,27,0,1.0236,,,,,,257,0,257,0,1,,,,,
,,894409,001,2023-07-24_21h07.37.424,arm3_eps,2022.2.5,Win32,60.0528465,60c47bdfde98f62c0f688ae3,64aea9d0f615b6559c281482,64becb7d068efe9eb19a6b5d,right,-1,0.3,0.4357,27,0.005266047,0.9199,,,,,,258,0,258,0,1,,,,,
,,894409,001,2023-07-24_21h07.37.424,arm3_eps,2022.2.5,Win32,60.0528465,60c47bdfde98f62c0f688ae3,64aea9d0f615b6559c281482,64becb7d068efe9eb19a6b5d,right,-1,0.3,0.4357,27,-0.000446138,0.5938,,,,,,259,0,259,0,1,,,,,
,,894409,001,2023-07-24_21h07.37.424,arm3_eps,2022.2.5,Win32,60.0528465,60c47bdfde98f62c0f688ae3,64aea9d0f615b6559c281482,64becb7d068efe9eb19a6b5d,down,1,0.3,0.4357,27,0,0.7933,,,,,,260,0,260,0,1,,,,,
,,894409,001,2023-07-24_21h07.37.424,arm3_eps,2022.2.5,Win32,60.0528465,60c47bdfde98f62c0f688ae3,64aea9d0f615b6559c281482,64becb7d068efe9eb19a6b5d,right,1,0.3,0.4357,27,0.005133574,0.9664,,,,,,261,0,261,0,1,,,,,
,,894409,001,2023-07-24_21h07.37.424,arm3_eps,2022.2.5,Win32,60.0528465,60c47bdfde98f62c0f688ae3,64aea9d0f615b6559c281482,64becb7d068efe9eb19a6b5d,right,1,0.3,0.4357,27,0.004300815,0.5388,,,,,,262,0,262,0,1,,,,,
,,894409,001,2023-07-24_21h07.37.424,arm3_eps,2022.2.5,Win32,60.0528465,60c47bdfde98f62c0f688ae3,64aea9d0f615b6559c281482,64becb7d068efe9eb19a6b5d,up,-1,0.3,0.4357,27,0,1.5388,,,,,,263,0,263,0,1,,,,,
,,894409,001,2023-07-24_21h07.37.424,arm3_eps,2022.2.5,Win32,60.0528465,60c47bdfde98f62c0f688ae3,64aea9d0f615b6559c281482,64becb7d068efe9eb19a6b5d,right,-1,0.3,0.4357,27,-0.006201707,0.8624,,,,,,264,0,264,0,1,,,,,
,,894409,001,2023-07-24_21h07.37.424,arm3_eps,2022.2.5,Win32,60.0528465,60c47bdfde98f62c0f688ae3,64aea9d0f615b6559c281482,64becb7d068efe9eb19a6b5d,right,-1,0.3,0.4357,27,-0.025995539,0.5744,,,,,,265,0,265,0,1,,,,,
,,894409,001,2023-07-24_21h07.37.424,arm3_eps,2022.2.5,Win32,60.0528465,60c47bdfde98f62c0f688ae3,64aea9d0f615b6559c281482,64becb7d068efe9eb19a6b5d,up,-1,0.3,0.4357,27,0,1.0679,,,,,,266,0,266,0,1,,,,,
,,894409,001,2023-07-24_21h07.37.424,arm3_eps,2022.2.5,Win32,60.0528465,60c47bdfde98f62c0f688ae3,64aea9d0f615b6559c281482,64becb7d068efe9eb19a6b5d,right,-1,0.3,0.4357,27,0.004045648,0.8881,,,,,,267,0,267,0,1,,,,,
,,894409,001,2023-07-24_21h07.37.424,arm3_eps,2022.2.5,Win32,60.0528465,60c47bdfde98f62c0f688ae3,64aea9d0f615b6559c281482,64becb7d068efe9eb19a6b5d,right,-1,0.3,0.4357,27,-0.010133949,0.6037,,,,,,268,0,268,0,1,,,,,
,,894409,001,2023-07-24_21h07.37.424,arm3_eps,2022.2.5,Win32,60.0528465,60c47bdfde98f62c0f688ae3,64aea9d0f615b6559c281482,64becb7d068efe9eb19a6b5d,down,1,0.3,0.4357,27,0,0.7133,,,,,,269,0,269,0,1,,,,,
,,894409,001,2023-07-24_21h07.37.424,arm3_eps,2022.2.5,Win32,60.0528465,60c47bdfde98f62c0f688ae3,64aea9d0f615b6559c281482,64becb7d068efe9eb19a6b5d,right,1,0.3,0.4357,27,0.030859196,0.9343,,,,,,270,0,270,0,1,,,,,
,,894409,001,2023-07-24_21h07.37.424,arm3_eps,2022.2.5,Win32,60.0528465,60c47bdfde98f62c0f688ae3,64aea9d0f615b6559c281482,64becb7d068efe9eb19a6b5d,right,1,0.3,0.4357,27,0.066369593,0.6232,,,,,,271,0,271,0,1,,,,,
,,894409,001,2023-07-24_21h07.37.424,arm3_eps,2022.2.5,Win32,60.0528465,60c47bdfde98f62c0f688ae3,64aea9d0f615b6559c281482,64becb7d068efe9eb19a6b5d,up,-1,0.3,0.4357,27,0,0.5823,,,,,,272,0,272,0,1,,,,,
,,894409,001,2023-07-24_21h07.37.424,arm3_eps,2022.2.5,Win32,60.0528465,60c47bdfde98f62c0f688ae3,64aea9d0f615b6559c281482,64becb7d068efe9eb19a6b5d,right,-1,0.3,0.4357,27,-0.014040276,0.8971,,,,,,273,0,273,0,1,,,,,
,,894409,001,2023-07-24_21h07.37.424,arm3_eps,2022.2.5,Win32,60.0528465,60c47bdfde98f62c0f688ae3,64aea9d0f615b6559c281482,64becb7d068efe9eb19a6b5d,right,-1,0.3,0.4357,27,-0.023153471,0.6297,,,,,,274,0,274,0,1,,,,,
,,894409,001,2023-07-24_21h07.37.424,arm3_eps,2022.2.5,Win32,60.0528465,60c47bdfde98f62c0f688ae3,64aea9d0f615b6559c281482,64becb7d068efe9eb19a6b5d,down,-1,0.3,0.4357,27,0,0.8236,,,,,,275,0,275,0,1,,,,,
,,894409,001,2023-07-24_21h07.37.424,arm3_eps,2022.2.5,Win32,60.0528465,60c47bdfde98f62c0f688ae3,64aea9d0f615b6559c281482,64becb7d068efe9eb19a6b5d,up,-1,0.3,0.4357,27,0,1.2409,,,,,,276,0,276,0,1,,,,,
,,894409,001,2023-07-24_21h07.37.424,arm3_eps,2022.2.5,Win32,60.0528465,60c47bdfde98f62c0f688ae3,64aea9d0f615b6559c281482,64becb7d068efe9eb19a6b5d,down,1,0.3,0.4357,28,0,1.6853,,,,,,277,0,277,0,1,,,,,
,,894409,001,2023-07-24_21h07.37.424,arm3_eps,2022.2.5,Win32,60.0528465,60c47bdfde98f62c0f688ae3,64aea9d0f615b6559c281482,64becb7d068efe9eb19a6b5d,up,1,0.3,0.4357,28,0,1.8501,,,,,,278,0,278,0,1,,,,,
,,894409,001,2023-07-24_21h07.37.424,arm3_eps,2022.2.5,Win32,60.0528465,60c47bdfde98f62c0f688ae3,64aea9d0f615b6559c281482,64becb7d068efe9eb19a6b5d,up,-1,0.3,0.4357,28,0,1.6888,,,,,,279,0,279,0,1,,,,,
,,894409,001,2023-07-24_21h07.37.424,arm3_eps,2022.2.5,Win32,60.0528465,60c47bdfde98f62c0f688ae3,64aea9d0f615b6559c281482,64becb7d068efe9eb19a6b5d,down,-1,0.3,0.4357,29,0,2.5893,,,,,,280,0,280,0,1,,,,,
,,894409,001,2023-07-24_21h07.37.424,arm3_eps,2022.2.5,Win32,60.0528465,60c47bdfde98f62c0f688ae3,64aea9d0f615b6559c281482,64becb7d068efe9eb19a6b5d,right,-1,0.3,0.4357,29,0.001870135,2.0238,,,,,,281,0,281,0,1,,,,,
,,894409,001,2023-07-24_21h07.37.424,arm3_eps,2022.2.5,Win32,60.0528465,60c47bdfde98f62c0f688ae3,64aea9d0f615b6559c281482,64becb7d068efe9eb19a6b5d,down,1,0.3,0.4357,29,0,0.7794,,,,,,282,0,282,0,1,,,,,
,,894409,001,2023-07-24_21h07.37.424,arm3_eps,2022.2.5,Win32,60.0528465,60c47bdfde98f62c0f688ae3,64aea9d0f615b6559c281482,64becb7d068efe9eb19a6b5d,up,1,0.3,0.4357,29,0,1.2522,,,,,,283,0,283,0,1,,,,,
,,894409,001,2023-07-24_21h07.37.424,arm3_eps,2022.2.5,Win32,60.0528465,60c47bdfde98f62c0f688ae3,64aea9d0f615b6559c281482,64becb7d068efe9eb19a6b5d,right,1,0.3,0.4357,29,0.007472845,1.0586,,,,,,284,0,284,0,1,,,,,
,,894409,001,2023-07-24_21h07.37.424,arm3_eps,2022.2.5,Win32,60.0528465,60c47bdfde98f62c0f688ae3,64aea9d0f615b6559c281482,64becb7d068efe9eb19a6b5d,down,1,0.3,0.4357,29,0,0.7751,,,,,,285,0,285,0,1,,,,,
,,894409,001,2023-07-24_21h07.37.424,arm3_eps,2022.2.5,Win32,60.0528465,60c47bdfde98f62c0f688ae3,64aea9d0f615b6559c281482,64becb7d068efe9eb19a6b5d,right,1,0.3,0.4357,29,-0.013090634,0.9628,,,,,,286,0,286,0,1,,,,,
,,894409,001,2023-07-24_21h07.37.424,arm3_eps,2022.2.5,Win32,60.0528465,60c47bdfde98f62c0f688ae3,64aea9d0f615b6559c281482,64becb7d068efe9eb19a6b5d,up,1,0.3,0.4357,29,0,0.9814,,,,,,287,0,287,0,1,,,,,
,,894409,001,2023-07-24_21h07.37.424,arm3_eps,2022.2.5,Win32,60.0528465,60c47bdfde98f62c0f688ae3,64aea9d0f615b6559c281482,64becb7d068efe9eb19a6b5d,right,1,0.3,0.4357,29,-0.003230464,0.9048,,,,,,288,0,288,0,1,,,,,
,,894409,001,2023-07-24_21h07.37.424,arm3_eps,2022.2.5,Win32,60.0528465,60c47bdfde98f62c0f688ae3,64aea9d0f615b6559c281482,64becb7d068efe9eb19a6b5d,up,1,0.3,0.4357,29,0,1.0165,,,,,,289,0,289,0,1,,,,,
,,894409,001,2023-07-24_21h07.37.424,arm3_eps,2022.2.5,Win32,60.0528465,60c47bdfde98f62c0f688ae3,64aea9d0f615b6559c281482,64becb7d068efe9eb19a6b5d,right,1,0.3,0.4357,29,-0.004670288,0.8973,,,,,,290,0,290,0,1,,,,,
,,894409,001,2023-07-24_21h07.37.424,arm3_eps,2022.2.5,Win32,60.0528465,60c47bdfde98f62c0f688ae3,64aea9d0f615b6559c281482,64becb7d068efe9eb19a6b5d,down,1,0.3,0.4357,28,0,1.0188,,,,,,291,0,291,0,1,,,,,
,,894409,001,2023-07-24_21h07.37.424,arm3_eps,2022.2.5,Win32,60.0528465,60c47bdfde98f62c0f688ae3,64aea9d0f615b6559c281482,64becb7d068efe9eb19a6b5d,up,1,0.3,0.4357,28,0,1.7732,,,,,,292,0,292,0,1,,,,,
,,894409,001,2023-07-24_21h07.37.424,arm3_eps,2022.2.5,Win32,60.0528465,60c47bdfde98f62c0f688ae3,64aea9d0f615b6559c281482,64becb7d068efe9eb19a6b5d,right,1,0.3,0.4357,28,0.008989251,1.3395,,,,,,293,0,293,0,1,,,,,
,,894409,001,2023-07-24_21h07.37.424,arm3_eps,2022.2.5,Win32,60.0528465,60c47bdfde98f62c0f688ae3,64aea9d0f615b6559c281482,64becb7d068efe9eb19a6b5d,up,1,0.3,0.4357,29,0,0.8461,,,,,,294,0,294,0,1,,,,,
,,894409,001,2023-07-24_21h07.37.424,arm3_eps,2022.2.5,Win32,60.0528465,60c47bdfde98f62c0f688ae3,64aea9d0f615b6559c281482,64becb7d068efe9eb19a6b5d,right,1,0.3,0.4357,29,-0.020057584,1.6436,,,,,,295,0,295,0,1,,,,,
,,894409,001,2023-07-24_21h07.37.424,arm3_eps,2022.2.5,Win32,60.0528465,60c47bdfde98f62c0f688ae3,64aea9d0f615b6559c281482,64becb7d068efe9eb19a6b5d,up,1,0.3,0.4357,29,0,0.9621,,,,,,296,0,296,0,1,,,,,
,,894409,001,2023-07-24_21h07.37.424,arm3_eps,2022.2.5,Win32,60.0528465,60c47bdfde98f62c0f688ae3,64aea9d0f615b6559c281482,64becb7d068efe9eb19a6b5d,right,1,0.3,0.4357,29,-0.021246154,0.8974,,,,,,297,0,297,0,1,,,,,
,,894409,001,2023-07-24_21h07.37.424,arm3_eps,2022.2.5,Win32,60.0528465,60c47bdfde98f62c0f688ae3,64aea9d0f615b6559c281482,64becb7d068efe9eb19a6b5d,up,-1,0.3,0.4357,29,0,0.8162,,,,,,298,0,298,0,1,,,,,
,,894409,001,2023-07-24_21h07.37.424,arm3_eps,2022.2.5,Win32,60.0528465,60c47bdfde98f62c0f688ae3,64aea9d0f615b6559c281482,64becb7d068efe9eb19a6b5d,right,-1,0.3,0.4357,29,0.01908888,0.9521,,,,,,299,0,299,0,1,,,,,
,,894409,001,2023-07-24_21h07.37.424,arm3_eps,2022.2.5,Win32,60.0528465,60c47bdfde98f62c0f688ae3,64aea9d0f615b6559c281482,64becb7d068efe9eb19a6b5d,up,-1,0.3,0.4357,29,0,1.7026,,,,,,300,0,300,0,1,,,,,
,,894409,001,2023-07-24_21h07.37.424,arm3_eps,2022.2.5,Win32,60.0528465,60c47bdfde98f62c0f688ae3,64aea9d0f615b6559c281482,64becb7d068efe9eb19a6b5d,right,-1,0.3,0.4357,29,-0.009785028,0.7931,,,,,,301,0,301,0,1,,,,,
,,894409,001,2023-07-24_21h07.37.424,arm3_eps,2022.2.5,Win32,60.0528465,60c47bdfde98f62c0f688ae3,64aea9d0f615b6559c281482,64becb7d068efe9eb19a6b5d,up,-1,0.3,0.4357,28,0,0.9493,,,,,,302,0,302,0,1,,,,,
,,894409,001,2023-07-24_21h07.37.424,arm3_eps,2022.2.5,Win32,60.0528465,60c47bdfde98f62c0f688ae3,64aea9d0f615b6559c281482,64becb7d068efe9eb19a6b5d,right,-1,0.3,0.4357,28,-0.005471134,0.9861,,,,,,303,0,303,0,1,,,,,
,,894409,001,2023-07-24_21h07.37.424,arm3_eps,2022.2.5,Win32,60.0528465,60c47bdfde98f62c0f688ae3,64aea9d0f615b6559c281482,64becb7d068efe9eb19a6b5d,down,1,0.3,0.4357,28,0,1.107,,,,,,304,0,304,0,1,,,,,
,,894409,001,2023-07-24_21h07.37.424,arm3_eps,2022.2.5,Win32,60.0528465,60c47bdfde98f62c0f688ae3,64aea9d0f615b6559c281482,64becb7d068efe9eb19a6b5d,right,1,0.3,0.4357,28,0.037187728,0.7599,,,,,,305,0,305,0,1,,,,,
,,894409,001,2023-07-24_21h07.37.424,arm3_eps,2022.2.5,Win32,60.0528465,60c47bdfde98f62c0f688ae3,64aea9d0f615b6559c281482,64becb7d068efe9eb19a6b5d,up,1,0.3,0.4357,29,0,0.9283,,,,,,306,0,306,0,1,,,,,
,,894409,001,2023-07-24_21h07.37.424,arm3_eps,2022.2.5,Win32,60.0528465,60c47bdfde98f62c0f688ae3,64aea9d0f615b6559c281482,64becb7d068efe9eb19a6b5d,right,1,0.3,0.4357,29,-0.007735505,0.9646,,,,,,307,0,307,0,1,,,,,
,,894409,001,2023-07-24_21h07.37.424,arm3_eps,2022.2.5,Win32,60.0528465,60c47bdfde98f62c0f688ae3,64aea9d0f615b6559c281482,64becb7d068efe9eb19a6b5d,right,1,0.3,0.4357,29,0.002355451,1.3891,,,,,,308,0,308,0,1,,,,,
,,894409,001,2023-07-24_21h07.37.424,arm3_eps,2022.2.5,Win32,60.0528465,60c47bdfde98f62c0f688ae3,64aea9d0f615b6559c281482,64becb7d068efe9eb19a6b5d,up,1,0.3,0.4357,29,0,0.5997,,,,,,309,0,309,0,1,,,,,
,,894409,001,2023-07-24_21h07.37.424,arm3_eps,2022.2.5,Win32,60.0528465,60c47bdfde98f62c0f688ae3,64aea9d0f615b6559c281482,64becb7d068efe9eb19a6b5d,right,1,0.3,0.4357,29,0.016683501,0.9292,,,,,,310,0,310,0,1,,,,,
,,894409,001,2023-07-24_21h07.37.424,arm3_eps,2022.2.5,Win32,60.0528465,60c47bdfde98f62c0f688ae3,64aea9d0f615b6559c281482,64becb7d068efe9eb19a6b5d,up,1,0.3,0.4357,29,0,0.8599,,,,,,311,0,311,0,1,,,,,
,,894409,001,2023-07-24_21h07.37.424,arm3_eps,2022.2.5,Win32,60.0528465,60c47bdfde98f62c0f688ae3,64aea9d0f615b6559c281482,64becb7d068efe9eb19a6b5d,right,1,0.3,0.4357,29,0.004172143,0.9339,,,,,,312,0,312,0,1,,,,,
,,894409,001,2023-07-24_21h07.37.424,arm3_eps,2022.2.5,Win32,60.0528465,60c47bdfde98f62c0f688ae3,64aea9d0f615b6559c281482,64becb7d068efe9eb19a6b5d,down,1,0.3,0.4357,29,0,0.9958,,,,,,313,0,313,0,1,,,,,
,,894409,001,2023-07-24_21h07.37.424,arm3_eps,2022.2.5,Win32,60.0528465,60c47bdfde98f62c0f688ae3,64aea9d0f615b6559c281482,64becb7d068efe9eb19a6b5d,right,1,0.3,0.4357,29,0.013508121,0.712,,,,,,314,0,314,0,1,,,,,
,,894409,001,2023-07-24_21h07.37.424,arm3_eps,2022.2.5,Win32,60.0528465,60c47bdfde98f62c0f688ae3,64aea9d0f615b6559c281482,64becb7d068efe9eb19a6b5d,right,1,0.3,0.4357,29,-0.005816141,0.729,,,,,,315,0,315,0,1,,,,,
,,894409,001,2023-07-24_21h07.37.424,arm3_eps,2022.2.5,Win32,60.0528465,60c47bdfde98f62c0f688ae3,64aea9d0f615b6559c281482,64becb7d068efe9eb19a6b5d,up,1,0.3,0.4357,29,0,1.7204,,,,,,316,0,316,0,1,,,,,
,,894409,001,2023-07-24_21h07.37.424,arm3_eps,2022.2.5,Win32,60.0528465,60c47bdfde98f62c0f688ae3,64aea9d0f615b6559c281482,64becb7d068efe9eb19a6b5d,right,1,0.3,0.4357,29,0.004030942,1.327,,,,,,317,0,317,0,1,,,,,
,,894409,001,2023-07-24_21h07.37.424,arm3_eps,2022.2.5,Win32,60.0528465,60c47bdfde98f62c0f688ae3,64aea9d0f615b6559c281482,64becb7d068efe9eb19a6b5d,down,-1,0.3,0.4357,28,0,0.738,,,,,,318,0,318,0,1,,,,,
,,894409,001,2023-07-24_21h07.37.424,arm3_eps,2022.2.5,Win32,60.0528465,60c47bdfde98f62c0f688ae3,64aea9d0f615b6559c281482,64becb7d068efe9eb19a6b5d,right,-1,0.3,0.4357,28,-0.034528897,1.5273,,,,,,319,0,319,0,1,,,,,
,,894409,001,2023-07-24_21h07.37.424,arm3_eps,2022.2.5,Win32,60.0528465,60c47bdfde98f62c0f688ae3,64aea9d0f615b6559c281482,64becb7d068efe9eb19a6b5d,down,-1,0.3,0.4357,28,0,1.0963,,,,,,320,0,320,0,1,,,,,
,,894409,001,2023-07-24_21h07.37.424,arm3_eps,2022.2.5,Win32,60.0528465,60c47bdfde98f62c0f688ae3,64aea9d0f615b6559c281482,64becb7d068efe9eb19a6b5d,right,-1,0.3,0.4357,28,0.020559067,1.4803,,,,,,321,0,321,0,1,,,,,
,,894409,001,2023-07-24_21h07.37.424,arm3_eps,2022.2.5,Win32,60.0528465,60c47bdfde98f62c0f688ae3,64aea9d0f615b6559c281482,64becb7d068efe9eb19a6b5d,down,1,0.3,0.4357,28,0,1.1975,,,,,,322,0,322,0,1,,,,,
,,894409,001,2023-07-24_21h07.37.424,arm3_eps,2022.2.5,Win32,60.0528465,60c47bdfde98f62c0f688ae3,64aea9d0f615b6559c281482,64becb7d068efe9eb19a6b5d,right,1,0.3,0.4357,28,-0.000710421,0.7584,,,,,,323,0,323,0,1,,,,,
,,894409,001,2023-07-24_21h07.37.424,arm3_eps,2022.2.5,Win32,60.0528465,60c47bdfde98f62c0f688ae3,64aea9d0f615b6559c281482,64becb7d068efe9eb19a6b5d,right,1,0.3,0.4357,28,0.011569934,0.9985,,,,,,324,0,324,0,1,,,,,
,,894409,001,2023-07-24_21h07.37.424,arm3_eps,2022.2.5,Win32,60.0528465,60c47bdfde98f62c0f688ae3,64aea9d0f615b6559c281482,64becb7d068efe9eb19a6b5d,up,1,0.3,0.4357,28,0,1.0993,,,,,,325,0,325,0,1,,,,,
,,894409,001,2023-07-24_21h07.37.424,arm3_eps,2022.2.5,Win32,60.0528465,60c47bdfde98f62c0f688ae3,64aea9d0f615b6559c281482,64becb7d068efe9eb19a6b5d,right,1,0.3,0.4357,28,0.006154579,0.8514,,,,,,326,0,326,0,1,,,,,
,,894409,001,2023-07-24_21h07.37.424,arm3_eps,2022.2.5,Win32,60.0528465,60c47bdfde98f62c0f688ae3,64aea9d0f615b6559c281482,64becb7d068efe9eb19a6b5d,right,1,0.3,0.4357,28,-0.007750239,0.6975,,,,,,327,0,327,0,1,,,,,
,,894409,001,2023-07-24_21h07.37.424,arm3_eps,2022.2.5,Win32,60.0528465,60c47bdfde98f62c0f688ae3,64aea9d0f615b6559c281482,64becb7d068efe9eb19a6b5d,up,1,0.3,0.4357,28,0,1.184,,,,,,328,0,328,0,1,,,,,
,,894409,001,2023-07-24_21h07.37.424,arm3_eps,2022.2.5,Win32,60.0528465,60c47bdfde98f62c0f688ae3,64aea9d0f615b6559c281482,64becb7d068efe9eb19a6b5d,right,1,0.3,0.4357,28,-0.009491801,0.793,,,,,,329,0,329,0,1,,,,,
,,894409,001,2023-07-24_21h07.37.424,arm3_eps,2022.2.5,Win32,60.0528465,60c47bdfde98f62c0f688ae3,64aea9d0f615b6559c281482,64becb7d068efe9eb19a6b5d,down,-1,0.3,0.4357,28,0,0.9959,,,,,,330,0,330,0,1,,,,,
,,894409,001,2023-07-24_21h07.37.424,arm3_eps,2022.2.5,Win32,60.0528465,60c47bdfde98f62c0f688ae3,64aea9d0f615b6559c281482,64becb7d068efe9eb19a6b5d,right,-1,0.3,0.4357,28,-0.027403953,0.8602,,,,,,331,0,331,0,1,,,,,
,,894409,001,2023-07-24_21h07.37.424,arm3_eps,2022.2.5,Win32,60.0528465,60c47bdfde98f62c0f688ae3,64aea9d0f615b6559c281482,64becb7d068efe9eb19a6b5d,down,-1,0.3,0.4357,29,0,1.2184,,,,,,332,0,332,0,1,,,,,
,,894409,001,2023-07-24_21h07.37.424,arm3_eps,2022.2.5,Win32,60.0528465,60c47bdfde98f62c0f688ae3,64aea9d0f615b6559c281482,64becb7d068efe9eb19a6b5d,right,-1,0.3,0.4357,29,-0.002335687,0.9485,,,,,,333,0,333,0,1,,,,,
,,894409,001,2023-07-24_21h07.37.424,arm3_eps,2022.2.5,Win32,60.0528465,60c47bdfde98f62c0f688ae3,64aea9d0f615b6559c281482,64becb7d068efe9eb19a6b5d,up,-1,0.3,0.4357,29,0,1.0536,,,,,,334,0,334,0,1,,,,,
,,894409,001,2023-07-24_21h07.37.424,arm3_eps,2022.2.5,Win32,60.0528465,60c47bdfde98f62c0f688ae3,64aea9d0f615b6559c281482,64becb7d068efe9eb19a6b5d,right,-1,0.3,0.4357,29,-0.016843346,0.8753,,,,,,335,0,335,0,1,,,,,
,,894409,001,2023-07-24_21h07.37.424,arm3_eps,2022.2.5,Win32,60.0528465,60c47bdfde98f62c0f688ae3,64aea9d0f615b6559c281482,64becb7d068efe9eb19a6b5d,down,1,0.3,0.4357,29,0,0.9131,,,,,,336,0,336,0,1,,,,,
,,894409,001,2023-07-24_21h07.37.424,arm3_eps,2022.2.5,Win32,60.0528465,60c47bdfde98f62c0f688ae3,64aea9d0f615b6559c281482,64becb7d068efe9eb19a6b5d,right,1,0.3,0.4357,29,0.033088404,0.7533,,,,,,337,0,337,0,1,,,,,
,,894409,001,2023-07-24_21h07.37.424,arm3_eps,2022.2.5,Win32,60.0528465,60c47bdfde98f62c0f688ae3,64aea9d0f615b6559c281482,64becb7d068efe9eb19a6b5d,up,1,0.3,0.4357,29,0,1.0344,,,,,,338,0,338,0,1,,,,,
,,894409,001,2023-07-24_21h07.37.424,arm3_eps,2022.2.5,Win32,60.0528465,60c47bdfde98f62c0f688ae3,64aea9d0f615b6559c281482,64becb7d068efe9eb19a6b5d,right,1,0.3,0.4357,29,-0.020493225,0.8465,,,,,,339,0,339,0,1,,,,,
,,894409,001,2023-07-24_21h07.37.424,arm3_eps,2022.2.5,Win32,60.0528465,60c47bdfde98f62c0f688ae3,64aea9d0f615b6559c281482,64becb7d068efe9eb19a6b5d,up,-1,0.3,0.4357,29,0,1.1323,,,,,,340,0,340,0,1,,,,,
,,894409,001,2023-07-24_21h07.37.424,arm3_eps,2022.2.5,Win32,60.0528465,60c47bdfde98f62c0f688ae3,64aea9d0f615b6559c281482,64becb7d068efe9eb19a6b5d,right,-1,0.3,0.4357,29,0.006615747,2.1253,,,,,,341,0,341,0,1,,,,,
,,894409,001,2023-07-24_21h07.37.424,arm3_eps,2022.2.5,Win32,60.0528465,60c47bdfde98f62c0f688ae3,64aea9d0f615b6559c281482,64becb7d068efe9eb19a6b5d,up,1,0.3,0.4357,28,0,1.0614,,,,,,342,0,342,0,1,,,,,
,,894409,001,2023-07-24_21h07.37.424,arm3_eps,2022.2.5,Win32,60.0528465,60c47bdfde98f62c0f688ae3,64aea9d0f615b6559c281482,64becb7d068efe9eb19a6b5d,right,1,0.3,0.4357,28,0.044630583,0.9834,,,,,,343,0,343,0,1,,,,,
,,894409,001,2023-07-24_21h07.37.424,arm3_eps,2022.2.5,Win32,60.0528465,60c47bdfde98f62c0f688ae3,64aea9d0f615b6559c281482,64becb7d068efe9eb19a6b5d,up,1,0.3,0.4357,29,0,1.8666,,,,,,344,0,344,0,1,,,,,
,,894409,001,2023-07-24_21h07.37.424,arm3_eps,2022.2.5,Win32,60.0528465,60c47bdfde98f62c0f688ae3,64aea9d0f615b6559c281482,64becb7d068efe9eb19a6b5d,right,1,0.3,0.4357,29,-0.024680992,0.9525,,,,,,345,0,345,0,1,,,,,
,,894409,001,2023-07-24_21h07.37.424,arm3_eps,2022.2.5,Win32,60.0528465,60c47bdfde98f62c0f688ae3,64aea9d0f615b6559c281482,64becb7d068efe9eb19a6b5d,down,-1,0.3,0.4357,28,0,1.3107,,,,,,346,0,346,0,1,,,,,
,,894409,001,2023-07-24_21h07.37.424,arm3_eps,2022.2.5,Win32,60.0528465,60c47bdfde98f62c0f688ae3,64aea9d0f615b6559c281482,64becb7d068efe9eb19a6b5d,right,-1,0.3,0.4357,28,-0.021642848,0.9392,,,,,,347,0,347,0,1,,,,,
,,894409,001,2023-07-24_21h07.37.424,arm3_eps,2022.2.5,Win32,60.0528465,60c47bdfde98f62c0f688ae3,64aea9d0f615b6559c281482,64becb7d068efe9eb19a6b5d,right,-1,0.3,0.4357,28,0.004564818,0.8612,,,,,,348,0,348,0,1,,,,,
,,894409,001,2023-07-24_21h07.37.424,arm3_eps,2022.2.5,Win32,60.0528465,60c47bdfde98f62c0f688ae3,64aea9d0f615b6559c281482,64becb7d068efe9eb19a6b5d,up,1,0.3,0.4357,27,0,0.6756,,,,,,349,0,349,0,1,,,,,
,,894409,001,2023-07-24_21h07.37.424,arm3_eps,2022.2.5,Win32,60.0528465,60c47bdfde98f62c0f688ae3,64aea9d0f615b6559c281482,64becb7d068efe9eb19a6b5d,right,1,0.3,0.4357,27,0.018492386,1.0999,,,,,,350,0,350,0,1,,,,,
,,894409,001,2023-07-24_21h07.37.424,arm3_eps,2022.2.5,Win32,60.0528465,60c47bdfde98f62c0f688ae3,64aea9d0f615b6559c281482,64becb7d068efe9eb19a6b5d,right,1,0.3,0.4357,27,0.00929085,0.5775,,,,,,351,0,351,0,1,,,,,
,,894409,001,2023-07-24_21h07.37.424,arm3_eps,2022.2.5,Win32,60.0528465,60c47bdfde98f62c0f688ae3,64aea9d0f615b6559c281482,64becb7d068efe9eb19a6b5d,up,1,0.3,0.4357,27,0,1.1175,,,,,,352,0,352,0,1,,,,,
,,894409,001,2023-07-24_21h07.37.424,arm3_eps,2022.2.5,Win32,60.0528465,60c47bdfde98f62c0f688ae3,64aea9d0f615b6559c281482,64becb7d068efe9eb19a6b5d,right,1,0.3,0.4357,27,0.008124006,1.0933,,,,,,353,0,353,0,1,,,,,
,,894409,001,2023-07-24_21h07.37.424,arm3_eps,2022.2.5,Win32,60.0528465,60c47bdfde98f62c0f688ae3,64aea9d0f615b6559c281482,64becb7d068efe9eb19a6b5d,up,-1,0.3,0.4357,27,0,1.117,,,,,,354,0,354,0,1,,,,,
,,894409,001,2023-07-24_21h07.37.424,arm3_eps,2022.2.5,Win32,60.0528465,60c47bdfde98f62c0f688ae3,64aea9d0f615b6559c281482,64becb7d068efe9eb19a6b5d,right,-1,0.3,0.4357,27,0.007995738,0.8983,,,,,,355,0,355,0,1,,,,,
,,894409,001,2023-07-24_21h07.37.424,arm3_eps,2022.2.5,Win32,60.0528465,60c47bdfde98f62c0f688ae3,64aea9d0f615b6559c281482,64becb7d068efe9eb19a6b5d,right,-1,0.3,0.4357,27,-0.006745969,0.5499,,,,,,356,0,356,0,1,,,,,
,,894409,001,2023-07-24_21h07.37.424,arm3_eps,2022.2.5,Win32,60.0528465,60c47bdfde98f62c0f688ae3,64aea9d0f615b6559c281482,64becb7d068efe9eb19a6b5d,down,-1,0.3,0.4357,27,0,0.5641,,,,,,357,0,357,0,1,,,,,
,,894409,001,2023-07-24_21h07.37.424,arm3_eps,2022.2.5,Win32,60.0528465,60c47bdfde98f62c0f688ae3,64aea9d0f615b6559c281482,64becb7d068efe9eb19a6b5d,right,-1,0.3,0.4357,27,-0.026018271,1.1697,,,,,,358,0,358,0,1,,,,,
,,894409,001,2023-07-24_21h07.37.424,arm3_eps,2022.2.5,Win32,60.0528465,60c47bdfde98f62c0f688ae3,64aea9d0f615b6559c281482,64becb7d068efe9eb19a6b5d,down,-1,0.3,0.4357,27,0,1.1687,,,,,,359,0,359,0,1,,,,,
,,894409,001,2023-07-24_21h07.37.424,arm3_eps,2022.2.5,Win32,60.0528465,60c47bdfde98f62c0f688ae3,64aea9d0f615b6559c281482,64becb7d068efe9eb19a6b5d,right,-1,0.3,0.4357,27,-0.043947648,0.7723,,,,,,360,0,360,0,1,,,,,
,,894409,001,2023-07-24_21h07.37.424,arm3_eps,2022.2.5,Win32,60.0528465,60c47bdfde98f62c0f688ae3,64aea9d0f615b6559c281482,64becb7d068efe9eb19a6b5d,down,1,0.3,0.4357,27,0,0.8007,,,,,,361,0,361,0,1,,,,,
,,894409,001,2023-07-24_21h07.37.424,arm3_eps,2022.2.5,Win32,60.0528465,60c47bdfde98f62c0f688ae3,64aea9d0f615b6559c281482,64becb7d068efe9eb19a6b5d,right,1,0.3,0.4357,27,-0.001111603,0.8946,,,,,,362,0,362,0,1,,,,,
,,894409,001,2023-07-24_21h07.37.424,arm3_eps,2022.2.5,Win32,60.0528465,60c47bdfde98f62c0f688ae3,64aea9d0f615b6559c281482,64becb7d068efe9eb19a6b5d,down,-1,0.3,0.4357,26,0,0.9314,,,,,,363,0,363,0,1,,,,,
,,894409,001,2023-07-24_21h07.37.424,arm3_eps,2022.2.5,Win32,60.0528465,60c47bdfde98f62c0f688ae3,64aea9d0f615b6559c281482,64becb7d068efe9eb19a6b5d,right,-1,0.3,0.4357,26,0.002964578,0.9072,,,,,,364,0,364,0,1,,,,,
,,894409,001,2023-07-24_21h07.37.424,arm3_eps,2022.2.5,Win32,60.0528465,60c47bdfde98f62c0f688ae3,64aea9d0f615b6559c281482,64becb7d068efe9eb19a6b5d,up,-1,0.3,0.4357,26,0,1.3925,,,,,,365,0,365,0,1,,,,,
,,894409,001,2023-07-24_21h07.37.424,arm3_eps,2022.2.5,Win32,60.0528465,60c47bdfde98f62c0f688ae3,64aea9d0f615b6559c281482,64becb7d068efe9eb19a6b5d,right,-1,0.3,0.4357,26,-0.011224198,0.9384,,,,,,366,0,366,0,1,,,,,
,,894409,001,2023-07-24_21h07.37.424,arm3_eps,2022.2.5,Win32,60.0528465,60c47bdfde98f62c0f688ae3,64aea9d0f615b6559c281482,64becb7d068efe9eb19a6b5d,up,1,0.3,0.4357,26,0,0.8275,,,,,,367,0,367,0,1,,,,,
,,894409,001,2023-07-24_21h07.37.424,arm3_eps,2022.2.5,Win32,60.0528465,60c47bdfde98f62c0f688ae3,64aea9d0f615b6559c281482,64becb7d068efe9eb19a6b5d,up,-1,0.3,0.4357,26,0,3.0956,,,,,,368,0,368,0,1,,,,,
,,894409,001,2023-07-24_21h07.37.424,arm3_eps,2022.2.5,Win32,60.0528465,60c47bdfde98f62c0f688ae3,64aea9d0f615b6559c281482,64becb7d068efe9eb19a6b5d,down,-1,0.3,0.4357,26,0,4.4322,,,,,,369,0,369,0,1,,,,,
,,894409,001,2023-07-24_21h07.37.424,arm3_eps,2022.2.5,Win32,60.0528465,60c47bdfde98f62c0f688ae3,64aea9d0f615b6559c281482,64becb7d068efe9eb19a6b5d,,,,,,,,,,,,,,,,,,0,0,0,0,1
space,37.6969,894409,001,2023-07-24_21h07.37.424,arm3_eps,2022.2.5,Win32,60.0528465,60c47bdfde98f62c0f688ae3,64aea9d0f615b6559c281482,64becb7d068efe9eb19a6b5d,right,-1,0.3,0.5,26,-0.021047813,3.421,,,,,,0,0,0,0,1,,,,,
,,894409,001,2023-07-24_21h07.37.424,arm3_eps,2022.2.5,Win32,60.0528465,60c47bdfde98f62c0f688ae3,64aea9d0f615b6559c281482,64becb7d068efe9eb19a6b5d,down,1,0.3,0.5,27,0,1.578,,,,,,1,0,1,0,1,,,,,
,,894409,001,2023-07-24_21h07.37.424,arm3_eps,2022.2.5,Win32,60.0528465,60c47bdfde98f62c0f688ae3,64aea9d0f615b6559c281482,64becb7d068efe9eb19a6b5d,right,1,0.3,0.5,27,-0.003927855,1.3322,,,,,,2,0,2,0,1,,,,,
,,894409,001,2023-07-24_21h07.37.424,arm3_eps,2022.2.5,Win32,60.0528465,60c47bdfde98f62c0f688ae3,64aea9d0f615b6559c281482,64becb7d068efe9eb19a6b5d,right,1,0.3,0.5,27,0.016678165,0.621,,,,,,3,0,3,0,1,,,,,
,,894409,001,2023-07-24_21h07.37.424,arm3_eps,2022.2.5,Win32,60.0528465,60c47bdfde98f62c0f688ae3,64aea9d0f615b6559c281482,64becb7d068efe9eb19a6b5d,right,1,0.3,0.5,27,0.012913692,0.9962,,,,,,4,0,4,0,1,,,,,
,,894409,001,2023-07-24_21h07.37.424,arm3_eps,2022.2.5,Win32,60.0528465,60c47bdfde98f62c0f688ae3,64aea9d0f615b6559c281482,64becb7d068efe9eb19a6b5d,up,-1,0.3,0.5,27,0,1.2376,,,,,,5,0,5,0,1,,,,,
,,894409,001,2023-07-24_21h07.37.424,arm3_eps,2022.2.5,Win32,60.0528465,60c47bdfde98f62c0f688ae3,64aea9d0f615b6559c281482,64becb7d068efe9eb19a6b5d,right,-1,0.3,0.5,27,-0.02523046,1.4337,,,,,,6,0,6,0,1,,,,,
,,894409,001,2023-07-24_21h07.37.424,arm3_eps,2022.2.5,Win32,60.0528465,60c47bdfde98f62c0f688ae3,64aea9d0f615b6559c281482,64becb7d068efe9eb19a6b5d,down,1,0.3,0.5,27,0,0.8303,,,,,,7,0,7,0,1,,,,,
,,894409,001,2023-07-24_21h07.37.424,arm3_eps,2022.2.5,Win32,60.0528465,60c47bdfde98f62c0f688ae3,64aea9d0f615b6559c281482,64becb7d068efe9eb19a6b5d,right,1,0.3,0.5,27,0.018228429,2.6783,,,,,,8,0,8,0,1,,,,,
,,894409,001,2023-07-24_21h07.37.424,arm3_eps,2022.2.5,Win32,60.0528465,60c47bdfde98f62c0f688ae3,64aea9d0f615b6559c281482,64becb7d068efe9eb19a6b5d,up,1,0.3,0.5,27,0,1.3401,,,,,,9,0,9,0,1,,,,,
,,894409,001,2023-07-24_21h07.37.424,arm3_eps,2022.2.5,Win32,60.0528465,60c47bdfde98f62c0f688ae3,64aea9d0f615b6559c281482,64becb7d068efe9eb19a6b5d,up,1,0.3,0.5,27,0,1.2547,,,,,,10,0,10,0,1,,,,,
,,894409,001,2023-07-24_21h07.37.424,arm3_eps,2022.2.5,Win32,60.0528465,60c47bdfde98f62c0f688ae3,64aea9d0f615b6559c281482,64becb7d068efe9eb19a6b5d,right,1,0.3,0.5,27,0.014155184,2.3629,,,,,,11,0,11,0,1,,,,,
,,894409,001,2023-07-24_21h07.37.424,arm3_eps,2022.2.5,Win32,60.0528465,60c47bdfde98f62c0f688ae3,64aea9d0f615b6559c281482,64becb7d068efe9eb19a6b5d,right,1,0.3,0.5,27,0.007895179,0.9121,,,,,,12,0,12,0,1,,,,,
,,894409,001,2023-07-24_21h07.37.424,arm3_eps,2022.2.5,Win32,60.0528465,60c47bdfde98f62c0f688ae3,64aea9d0f615b6559c281482,64becb7d068efe9eb19a6b5d,up,-1,0.3,0.5,27,0,0.7974,,,,,,13,0,13,0,1,,,,,
,,894409,001,2023-07-24_21h07.37.424,arm3_eps,2022.2.5,Win32,60.0528465,60c47bdfde98f62c0f688ae3,64aea9d0f615b6559c281482,64becb7d068efe9eb19a6b5d,right,-1,0.3,0.5,27,-0.010105119,0.9461,,,,,,14,0,14,0,1,,,,,
,,894409,001,2023-07-24_21h07.37.424,arm3_eps,2022.2.5,Win32,60.0528465,60c47bdfde98f62c0f688ae3,64aea9d0f615b6559c281482,64becb7d068efe9eb19a6b5d,right,-1,0.3,0.5,27,1.7955E-05,0.6135,,,,,,15,0,15,0,1,,,,,
,,894409,001,2023-07-24_21h07.37.424,arm3_eps,2022.2.5,Win32,60.0528465,60c47bdfde98f62c0f688ae3,64aea9d0f615b6559c281482,64becb7d068efe9eb19a6b5d,up,-1,0.3,0.5,26,0,0.776,,,,,,16,0,16,0,1,,,,,
,,894409,001,2023-07-24_21h07.37.424,arm3_eps,2022.2.5,Win32,60.0528465,60c47bdfde98f62c0f688ae3,64aea9d0f615b6559c281482,64becb7d068efe9eb19a6b5d,right,-1,0.3,0.5,26,0.008200769,0.8931,,,,,,17,0,17,0,1,,,,,
,,894409,001,2023-07-24_21h07.37.424,arm3_eps,2022.2.5,Win32,60.0528465,60c47bdfde98f62c0f688ae3,64aea9d0f615b6559c281482,64becb7d068efe9eb19a6b5d,right,-1,0.3,0.5,26,0.002496536,1.0293,,,,,,18,0,18,0,1,,,,,
,,894409,001,2023-07-24_21h07.37.424,arm3_eps,2022.2.5,Win32,60.0528465,60c47bdfde98f62c0f688ae3,64aea9d0f615b6559c281482,64becb7d068efe9eb19a6b5d,up,-1,0.3,0.5,26,0,0.6684,,,,,,19,0,19,0,1,,,,,
,,894409,001,2023-07-24_21h07.37.424,arm3_eps,2022.2.5,Win32,60.0528465,60c47bdfde98f62c0f688ae3,64aea9d0f615b6559c281482,64becb7d068efe9eb19a6b5d,right,-1,0.3,0.5,26,-0.028336437,1.169,,,,,,20,0,20,0,1,,,,,
,,894409,001,2023-07-24_21h07.37.424,arm3_eps,2022.2.5,Win32,60.0528465,60c47bdfde98f62c0f688ae3,64aea9d0f615b6559c281482,64becb7d068efe9eb19a6b5d,down,1,0.3,0.5,26,0,0.9871,,,,,,21,0,21,0,1,,,,,
,,894409,001,2023-07-24_21h07.37.424,arm3_eps,2022.2.5,Win32,60.0528465,60c47bdfde98f62c0f688ae3,64aea9d0f615b6559c281482,64becb7d068efe9eb19a6b5d,down,-1,0.3,0.5,26,0,1.2745,,,,,,22,0,22,0,1,,,,,
,,894409,001,2023-07-24_21h07.37.424,arm3_eps,2022.2.5,Win32,60.0528465,60c47bdfde98f62c0f688ae3,64aea9d0f615b6559c281482,64becb7d068efe9eb19a6b5d,up,-1,0.3,0.5,25,0,1.3189,,,,,,23,0,23,0,1,,,,,
,,894409,001,2023-07-24_21h07.37.424,arm3_eps,2022.2.5,Win32,60.0528465,60c47bdfde98f62c0f688ae3,64aea9d0f615b6559c281482,64becb7d068efe9eb19a6b5d,down,-1,0.3,0.5,25,0,1.7047,,,,,,24,0,24,0,1,,,,,
,,894409,001,2023-07-24_21h07.37.424,arm3_eps,2022.2.5,Win32,60.0528465,60c47bdfde98f62c0f688ae3,64aea9d0f615b6559c281482,64becb7d068efe9eb19a6b5d,right,-1,0.3,0.5,25,-0.008854402,1.7344,,,,,,25,0,25,0,1,,,,,
,,894409,001,2023-07-24_21h07.37.424,arm3_eps,2022.2.5,Win32,60.0528465,60c47bdfde98f62c0f688ae3,64aea9d0f615b6559c281482,64becb7d068efe9eb19a6b5d,right,-1,0.3,0.5,25,-0.017112269,0.8214,,,,,,26,0,26,0,1,,,,,
,,894409,001,2023-07-24_21h07.37.424,arm3_eps,2022.2.5,Win32,60.0528465,60c47bdfde98f62c0f688ae3,64aea9d0f615b6559c281482,64becb7d068efe9eb19a6b5d,down,1,0.3,0.5,25,0,0.5719,,,,,,27,0,27,0,1,,,,,
,,894409,001,2023-07-24_21h07.37.424,arm3_eps,2022.2.5,Win32,60.0528465,60c47bdfde98f62c0f688ae3,64aea9d0f615b6559c281482,64becb7d068efe9eb19a6b5d,right,1,0.3,0.5,25,0.005750384,0.9318,,,,,,28,0,28,0,1,,,,,
,,894409,001,2023-07-24_21h07.37.424,arm3_eps,2022.2.5,Win32,60.0528465,60c47bdfde98f62c0f688ae3,64aea9d0f615b6559c281482,64becb7d068efe9eb19a6b5d,right,1,0.3,0.5,25,0.001103619,0.5369,,,,,,29,0,29,0,1,,,,,
,,894409,001,2023-07-24_21h07.37.424,arm3_eps,2022.2.5,Win32,60.0528465,60c47bdfde98f62c0f688ae3,64aea9d0f615b6559c281482,64becb7d068efe9eb19a6b5d,down,1,0.3,0.5,25,0,0.5354,,,,,,30,0,30,0,1,,,,,
,,894409,001,2023-07-24_21h07.37.424,arm3_eps,2022.2.5,Win32,60.0528465,60c47bdfde98f62c0f688ae3,64aea9d0f615b6559c281482,64becb7d068efe9eb19a6b5d,right,1,0.3,0.5,25,0.016007834,0.9527,,,,,,31,0,31,0,1,,,,,
,,894409,001,2023-07-24_21h07.37.424,arm3_eps,2022.2.5,Win32,60.0528465,60c47bdfde98f62c0f688ae3,64aea9d0f615b6559c281482,64becb7d068efe9eb19a6b5d,up,-1,0.3,0.5,25,0,1.0241,,,,,,32,0,32,0,1,,,,,
,,894409,001,2023-07-24_21h07.37.424,arm3_eps,2022.2.5,Win32,60.0528465,60c47bdfde98f62c0f688ae3,64aea9d0f615b6559c281482,64becb7d068efe9eb19a6b5d,down,1,0.3,0.5,25,0,2.5358,,,,,,33,0,33,0,1,,,,,
,,894409,001,2023-07-24_21h07.37.424,arm3_eps,2022.2.5,Win32,60.0528465,60c47bdfde98f62c0f688ae3,64aea9d0f615b6559c281482,64becb7d068efe9eb19a6b5d,up,1,0.3,0.5,26,0,1.6994,,,,,,34,0,34,0,1,,,,,
,,894409,001,2023-07-24_21h07.37.424,arm3_eps,2022.2.5,Win32,60.0528465,60c47bdfde98f62c0f688ae3,64aea9d0f615b6559c281482,64becb7d068efe9eb19a6b5d,up,1,0.3,0.5,27,0,3.1209,,,,,,35,0,35,0,1,,,,,
,,894409,001,2023-07-24_21h07.37.424,arm3_eps,2022.2.5,Win32,60.0528465,60c47bdfde98f62c0f688ae3,64aea9d0f615b6559c281482,64becb7d068efe9eb19a6b5d,up,-1,0.3,0.5,27,0,1.7086,,,,,,36,0,36,0,1,,,,,
,,894409,001,2023-07-24_21h07.37.424,arm3_eps,2022.2.5,Win32,60.0528465,60c47bdfde98f62c0f688ae3,64aea9d0f615b6559c281482,64becb7d068efe9eb19a6b5d,right,-1,0.3,0.5,27,0.00353827,2.5433,,,,,,37,0,37,0,1,,,,,
,,894409,001,2023-07-24_21h07.37.424,arm3_eps,2022.2.5,Win32,60.0528465,60c47bdfde98f62c0f688ae3,64aea9d0f615b6559c281482,64becb7d068efe9eb19a6b5d,right,-1,0.3,0.5,27,0.012961715,0.6397,,,,,,38,0,38,0,1,,,,,
,,894409,001,2023-07-24_21h07.37.424,arm3_eps,2022.2.5,Win32,60.0528465,60c47bdfde98f62c0f688ae3,64aea9d0f615b6559c281482,64becb7d068efe9eb19a6b5d,up,-1,0.3,0.5,27,0,0.8628,,,,,,39,0,39,0,1,,,,,
,,894409,001,2023-07-24_21h07.37.424,arm3_eps,2022.2.5,Win32,60.0528465,60c47bdfde98f62c0f688ae3,64aea9d0f615b6559c281482,64becb7d068efe9eb19a6b5d,down,-1,0.3,0.5,27,0,1.0479,,,,,,40,0,40,0,1,,,,,
,,894409,001,2023-07-24_21h07.37.424,arm3_eps,2022.2.5,Win32,60.0528465,60c47bdfde98f62c0f688ae3,64aea9d0f615b6559c281482,64becb7d068efe9eb19a6b5d,down,1,0.3,0.5,27,0,1.9961,,,,,,41,0,41,0,1,,,,,
,,894409,001,2023-07-24_21h07.37.424,arm3_eps,2022.2.5,Win32,60.0528465,60c47bdfde98f62c0f688ae3,64aea9d0f615b6559c281482,64becb7d068efe9eb19a6b5d,right,1,0.3,0.5,27,0.0304586,1.3035,,,,,,42,0,42,0,1,,,,,
,,894409,001,2023-07-24_21h07.37.424,arm3_eps,2022.2.5,Win32,60.0528465,60c47bdfde98f62c0f688ae3,64aea9d0f615b6559c281482,64becb7d068efe9eb19a6b5d,up,1,0.3,0.5,27,0,1.0189,,,,,,43,0,43,0,1,,,,,
,,894409,001,2023-07-24_21h07.37.424,arm3_eps,2022.2.5,Win32,60.0528465,60c47bdfde98f62c0f688ae3,64aea9d0f615b6559c281482,64becb7d068efe9eb19a6b5d,down,-1,0.3,0.5,26,0,13.2772,,,,,,44,0,44,0,1,,,,,
,,894409,001,2023-07-24_21h07.37.424,arm3_eps,2022.2.5,Win32,60.0528465,60c47bdfde98f62c0f688ae3,64aea9d0f615b6559c281482,64becb7d068efe9eb19a6b5d,right,-1,0.3,0.5,26,-0.023369883,2.6051,,,,,,45,0,45,0,1,,,,,
,,894409,001,2023-07-24_21h07.37.424,arm3_eps,2022.2.5,Win32,60.0528465,60c47bdfde98f62c0f688ae3,64aea9d0f615b6559c281482,64becb7d068efe9eb19a6b5d,right,-1,0.3,0.5,26,-0.016043004,0.4798,,,,,,46,0,46,0,1,,,,,
,,894409,001,2023-07-24_21h07.37.424,arm3_eps,2022.2.5,Win32,60.0528465,60c47bdfde98f62c0f688ae3,64aea9d0f615b6559c281482,64becb7d068efe9eb19a6b5d,down,-1,0.3,0.5,26,0,0.8541,,,,,,47,0,47,0,1,,,,,
,,894409,001,2023-07-24_21h07.37.424,arm3_eps,2022.2.5,Win32,60.0528465,60c47bdfde98f62c0f688ae3,64aea9d0f615b6559c281482,64becb7d068efe9eb19a6b5d,right,-1,0.3,0.5,26,-0.038715253,1.517,,,,,,48,0,48,0,1,,,,,
,,894409,001,2023-07-24_21h07.37.424,arm3_eps,2022.2.5,Win32,60.0528465,60c47bdfde98f62c0f688ae3,64aea9d0f615b6559c281482,64becb7d068efe9eb19a6b5d,down,-1,0.3,0.5,27,0,0.9201,,,,,,49,0,49,0,1,,,,,
,,894409,001,2023-07-24_21h07.37.424,arm3_eps,2022.2.5,Win32,60.0528465,60c47bdfde98f62c0f688ae3,64aea9d0f615b6559c281482,64becb7d068efe9eb19a6b5d,right,-1,0.3,0.5,27,-0.004140669,1.4051,,,,,,50,0,50,0,1,,,,,
