space_bar.keys,space_bar.rt,participant,session,date,expName,psychopyVersion,OS,frameRate,PROLIFIC_PID,STUDY_ID,SESSION_ID,resp.keys,state,q_prob,eps_prob,score,price,resp.rt,train.thisRepN,train.thisTrialN,train.thisN,train.thisIndex,train.ran,steps.thisRepN,steps.thisTrialN,steps.thisN,steps.thisIndex,steps.ran,blocks.thisRepN,blocks.thisTrialN,blocks.thisN,blocks.thisIndex,blocks.ran
space,5.0402,957937,001,2023-07-24_21h17.55.175,arm3_eps,2022.2.5,Win32,59.99880002,605cb84d3d0c0d587aa464be,64aea9d0f615b6559c281482,64becb65ae6d09a9b22a3634,,,,,,,,,,,,,,,,,,,,,,
space,33.9346,957937,001,2023-07-24_21h17.55.175,arm3_eps,2022.2.5,Win32,59.99880002,605cb84d3d0c0d587aa464be,64aea9d0f615b6559c281482,64becb65ae6d09a9b22a3634,,,,,,,,,,,,,,,,,,,,,,
space,35.4914,957937,001,2023-07-24_21h17.55.175,arm3_eps,2022.2.5,Win32,59.99880002,605cb84d3d0c0d587aa464be,64aea9d0f615b6559c281482,64becb65ae6d09a9b22a3634,,,,,,,,,,,,,,,,,,,,,,
space,12.7646,957937,001,2023-07-24_21h17.55.175,arm3_eps,2022.2.5,Win32,59.99880002,605cb84d3d0c0d587aa464be,64aea9d0f615b6559c281482,64becb65ae6d09a9b22a3634,,,,,,,,,,,,,,,,,,,,,,
space,93.5532,957937,001,2023-07-24_21h17.55.175,arm3_eps,2022.2.5,Win32,59.99880002,605cb84d3d0c0d587aa464be,64aea9d0f615b6559c281482,64becb65ae6d09a9b22a3634,,,,,,,,,,,,,,,,,,,,,,
space,23.2084,957937,001,2023-07-24_21h17.55.175,arm3_eps,2022.2.5,Win32,59.99880002,605cb84d3d0c0d587aa464be,64aea9d0f615b6559c281482,64becb65ae6d09a9b22a3634,,,,,,,,,,,,,,,,,,,,,,
space,32.4752,957937,001,2023-07-24_21h17.55.175,arm3_eps,2022.2.5,Win32,59.99880002,605cb84d3d0c0d587aa464be,64aea9d0f615b6559c281482,64becb65ae6d09a9b22a3634,,,,,,,,,,,,,,,,,,,,,,
space,40.0473,957937,001,2023-07-24_21h17.55.175,arm3_eps,2022.2.5,Win32,59.99880002,605cb84d3d0c0d587aa464be,64aea9d0f615b6559c281482,64becb65ae6d09a9b22a3634,,,,,,,,,,,,,,,,,,,,,,
space,39.6427,957937,001,2023-07-24_21h17.55.175,arm3_eps,2022.2.5,Win32,59.99880002,605cb84d3d0c0d587aa464be,64aea9d0f615b6559c281482,64becb65ae6d09a9b22a3634,,,,,,,,,,,,,,,,,,,,,,
space,7.0098,957937,001,2023-07-24_21h17.55.175,arm3_eps,2022.2.5,Win32,59.99880002,605cb84d3d0c0d587aa464be,64aea9d0f615b6559c281482,64becb65ae6d09a9b22a3634,,,,,,,,,,,,,,,,,,,,,,
,,957937,001,2023-07-24_21h17.55.175,arm3_eps,2022.2.5,Win32,59.99880002,605cb84d3d0c0d587aa464be,64aea9d0f615b6559c281482,64becb65ae6d09a9b22a3634,up,1,0.3,0.2429,0,0,1.1295,0,0,0,0,1,,,,,,,,,,
,,957937,001,2023-07-24_21h17.55.175,arm3_eps,2022.2.5,Win32,59.99880002,605cb84d3d0c0d587aa464be,64aea9d0f615b6559c281482,64becb65ae6d09a9b22a3634,down,1,0.3,0.2429,-1,0,2.8186,1,0,1,0,1,,,,,,,,,,
,,957937,001,2023-07-24_21h17.55.175,arm3_eps,2022.2.5,Win32,59.99880002,605cb84d3d0c0d587aa464be,64aea9d0f615b6559c281482,64becb65ae6d09a9b22a3634,up,-1,0.3,0.2429,0,0,1.6092,2,0,2,0,1,,,,,,,,,,
,,957937,001,2023-07-24_21h17.55.175,arm3_eps,2022.2.5,Win32,59.99880002,605cb84d3d0c0d587aa464be,64aea9d0f615b6559c281482,64becb65ae6d09a9b22a3634,right,-1,0.3,0.2429,0,-0.000104168,1.4081,3,0,3,0,1,,,,,,,,,,
,,957937,001,2023-07-24_21h17.55.175,arm3_eps,2022.2.5,Win32,59.99880002,605cb84d3d0c0d587aa464be,64aea9d0f615b6559c281482,64becb65ae6d09a9b22a3634,right,-1,0.3,0.2429,0,-0.003741325,1.1232,4,0,4,0,1,,,,,,,,,,
,,957937,001,2023-07-24_21h17.55.175,arm3_eps,2022.2.5,Win32,59.99880002,605cb84d3d0c0d587aa464be,64aea9d0f615b6559c281482,64becb65ae6d09a9b22a3634,up,-1,0.3,0.2429,0,0,0.8443,5,0,5,0,1,,,,,,,,,,
,,957937,001,2023-07-24_21h17.55.175,arm3_eps,2022.2.5,Win32,59.99880002,605cb84d3d0c0d587aa464be,64aea9d0f615b6559c281482,64becb65ae6d09a9b22a3634,right,-1,0.3,0.2429,0,-0.01863396,1.0902,6,0,6,0,1,,,,,,,,,,
,,957937,001,2023-07-24_21h17.55.175,arm3_eps,2022.2.5,Win32,59.99880002,605cb84d3d0c0d587aa464be,64aea9d0f615b6559c281482,64becb65ae6d09a9b22a3634,down,-1,0.3,0.2429,1,0,0.7849,7,0,7,0,1,,,,,,,,,,
,,957937,001,2023-07-24_21h17.55.175,arm3_eps,2022.2.5,Win32,59.99880002,605cb84d3d0c0d587aa464be,64aea9d0f615b6559c281482,64becb65ae6d09a9b22a3634,right,-1,0.3,0.2429,1,0.005749775,1.097,8,0,8,0,1,,,,,,,,,,
,,957937,001,2023-07-24_21h17.55.175,arm3_eps,2022.2.5,Win32,59.99880002,605cb84d3d0c0d587aa464be,64aea9d0f615b6559c281482,64becb65ae6d09a9b22a3634,up,-1,0.3,0.2429,0,0,0.6543,9,0,9,0,1,,,,,,,,,,
,,957937,001,2023-07-24_21h17.55.175,arm3_eps,2022.2.5,Win32,59.99880002,605cb84d3d0c0d587aa464be,64aea9d0f615b6559c281482,64becb65ae6d09a9b22a3634,right,-1,0.3,0.2429,0,0.017989261,0.9481,10,0,10,0,1,,,,,,,,,,
,,957937,001,2023-07-24_21h17.55.175,arm3_eps,2022.2.5,Win32,59.99880002,605cb84d3d0c0d587aa464be,64aea9d0f615b6559c281482,64becb65ae6d09a9b22a3634,down,-1,0.3,0.2429,0,0,0.9502,11,0,11,0,1,,,,,,,,,,
,,957937,001,2023-07-24_21h17.55.175,arm3_eps,2022.2.5,Win32,59.99880002,605cb84d3d0c0d587aa464be,64aea9d0f615b6559c281482,64becb65ae6d09a9b22a3634,right,-1,0.3,0.2429,0,-0.028534279,1.1318,12,0,12,0,1,,,,,,,,,,
,,957937,001,2023-07-24_21h17.55.175,arm3_eps,2022.2.5,Win32,59.99880002,605cb84d3d0c0d587aa464be,64aea9d0f615b6559c281482,64becb65ae6d09a9b22a3634,up,-1,0.3,0.2429,0,0,0.6503,13,0,13,0,1,,,,,,,,,,
,,957937,001,2023-07-24_21h17.55.175,arm3_eps,2022.2.5,Win32,59.99880002,605cb84d3d0c0d587aa464be,64aea9d0f615b6559c281482,64becb65ae6d09a9b22a3634,up,-1,0.3,0.2429,-1,0,0.9902,14,0,14,0,1,,,,,,,,,,
,,957937,001,2023-07-24_21h17.55.175,arm3_eps,2022.2.5,Win32,59.99880002,605cb84d3d0c0d587aa464be,64aea9d0f615b6559c281482,64becb65ae6d09a9b22a3634,down,-1,0.3,0.2429,-1,0,0.9902,15,0,15,0,1,,,,,,,,,,
,,957937,001,2023-07-24_21h17.55.175,arm3_eps,2022.2.5,Win32,59.99880002,605cb84d3d0c0d587aa464be,64aea9d0f615b6559c281482,64becb65ae6d09a9b22a3634,up,1,0.3,0.2429,-2,0,1.4347,16,0,16,0,1,,,,,,,,,,
,,957937,001,2023-07-24_21h17.55.175,arm3_eps,2022.2.5,Win32,59.99880002,605cb84d3d0c0d587aa464be,64aea9d0f615b6559c281482,64becb65ae6d09a9b22a3634,right,1,0.3,0.2429,-2,0.019787896,0.79,17,0,17,0,1,,,,,,,,,,
,,957937,001,2023-07-24_21h17.55.175,arm3_eps,2022.2.5,Win32,59.99880002,605cb84d3d0c0d587aa464be,64aea9d0f615b6559c281482,64becb65ae6d09a9b22a3634,right,1,0.3,0.2429,-2,0.026023508,0.3404,18,0,18,0,1,,,,,,,,,,
,,957937,001,2023-07-24_21h17.55.175,arm3_eps,2022.2.5,Win32,59.99880002,605cb84d3d0c0d587aa464be,64aea9d0f615b6559c281482,64becb65ae6d09a9b22a3634,right,1,0.3,0.2429,-2,0.063675507,0.3945,19,0,19,0,1,,,,,,,,,,
,,957937,001,2023-07-24_21h17.55.175,arm3_eps,2022.2.5,Win32,59.99880002,605cb84d3d0c0d587aa464be,64aea9d0f615b6559c281482,64becb65ae6d09a9b22a3634,right,1,0.3,0.2429,-2,0.084486979,1.1365,20,0,20,0,1,,,,,,,,,,
,,957937,001,2023-07-24_21h17.55.175,arm3_eps,2022.2.5,Win32,59.99880002,605cb84d3d0c0d587aa464be,64aea9d0f615b6559c281482,64becb65ae6d09a9b22a3634,up,1,0.3,0.2429,-2,0,1.3503,21,0,21,0,1,,,,,,,,,,
,,957937,001,2023-07-24_21h17.55.175,arm3_eps,2022.2.5,Win32,59.99880002,605cb84d3d0c0d587aa464be,64aea9d0f615b6559c281482,64becb65ae6d09a9b22a3634,down,1,0.3,0.2429,-2,0,1.0322,22,0,22,0,1,,,,,,,,,,
,,957937,001,2023-07-24_21h17.55.175,arm3_eps,2022.2.5,Win32,59.99880002,605cb84d3d0c0d587aa464be,64aea9d0f615b6559c281482,64becb65ae6d09a9b22a3634,up,1,0.3,0.2429,-2,0,1.1945,23,0,23,0,1,,,,,,,,,,
,,957937,001,2023-07-24_21h17.55.175,arm3_eps,2022.2.5,Win32,59.99880002,605cb84d3d0c0d587aa464be,64aea9d0f615b6559c281482,64becb65ae6d09a9b22a3634,right,1,0.3,0.2429,-2,0.052776307,0.8234,24,0,24,0,1,,,,,,,,,,
,,957937,001,2023-07-24_21h17.55.175,arm3_eps,2022.2.5,Win32,59.99880002,605cb84d3d0c0d587aa464be,64aea9d0f615b6559c281482,64becb65ae6d09a9b22a3634,up,-1,0.3,0.2429,-2,0,0.6223,25,0,25,0,1,,,,,,,,,,
,,957937,001,2023-07-24_21h17.55.175,arm3_eps,2022.2.5,Win32,59.99880002,605cb84d3d0c0d587aa464be,64aea9d0f615b6559c281482,64becb65ae6d09a9b22a3634,right,-1,0.3,0.2429,-2,0.02618941,0.8144,26,0,26,0,1,,,,,,,,,,
,,957937,001,2023-07-24_21h17.55.175,arm3_eps,2022.2.5,Win32,59.99880002,605cb84d3d0c0d587aa464be,64aea9d0f615b6559c281482,64becb65ae6d09a9b22a3634,right,-1,0.3,0.2429,-2,0.020919383,0.2694,27,0,27,0,1,,,,,,,,,,
,,957937,001,2023-07-24_21h17.55.175,arm3_eps,2022.2.5,Win32,59.99880002,605cb84d3d0c0d587aa464be,64aea9d0f615b6559c281482,64becb65ae6d09a9b22a3634,down,-1,0.3,0.2429,-2,0,0.4961,28,0,28,0,1,,,,,,,,,,
,,957937,001,2023-07-24_21h17.55.175,arm3_eps,2022.2.5,Win32,59.99880002,605cb84d3d0c0d587aa464be,64aea9d0f615b6559c281482,64becb65ae6d09a9b22a3634,right,-1,0.3,0.2429,-2,0.003521536,0.9769,29,0,29,0,1,,,,,,,,,,
,,957937,001,2023-07-24_21h17.55.175,arm3_eps,2022.2.5,Win32,59.99880002,605cb84d3d0c0d587aa464be,64aea9d0f615b6559c281482,64becb65ae6d09a9b22a3634,down,-1,0.3,0.2429,-2,0,0.5048,30,0,30,0,1,,,,,,,,,,
,,957937,001,2023-07-24_21h17.55.175,arm3_eps,2022.2.5,Win32,59.99880002,605cb84d3d0c0d587aa464be,64aea9d0f615b6559c281482,64becb65ae6d09a9b22a3634,right,-1,0.3,0.2429,-2,-0.019605635,0.7478,31,0,31,0,1,,,,,,,,,,
,,957937,001,2023-07-24_21h17.55.175,arm3_eps,2022.2.5,Win32,59.99880002,605cb84d3d0c0d587aa464be,64aea9d0f615b6559c281482,64becb65ae6d09a9b22a3634,down,-1,0.3,0.2429,-2,0,0.8157,32,0,32,0,1,,,,,,,,,,
,,957937,001,2023-07-24_21h17.55.175,arm3_eps,2022.2.5,Win32,59.99880002,605cb84d3d0c0d587aa464be,64aea9d0f615b6559c281482,64becb65ae6d09a9b22a3634,right,-1,0.3,0.2429,-2,0.016992373,0.6755,33,0,33,0,1,,,,,,,,,,
,,957937,001,2023-07-24_21h17.55.175,arm3_eps,2022.2.5,Win32,59.99880002,605cb84d3d0c0d587aa464be,64aea9d0f615b6559c281482,64becb65ae6d09a9b22a3634,down,-1,0.3,0.2429,-1,0,0.6456,34,0,34,0,1,,,,,,,,,,
,,957937,001,2023-07-24_21h17.55.175,arm3_eps,2022.2.5,Win32,59.99880002,605cb84d3d0c0d587aa464be,64aea9d0f615b6559c281482,64becb65ae6d09a9b22a3634,right,-1,0.3,0.2429,-1,0.000939828,0.9975,35,0,35,0,1,,,,,,,,,,
,,957937,001,2023-07-24_21h17.55.175,arm3_eps,2022.2.5,Win32,59.99880002,605cb84d3d0c0d587aa464be,64aea9d0f615b6559c281482,64becb65ae6d09a9b22a3634,up,-1,0.3,0.2429,-1,0,0.5611,36,0,36,0,1,,,,,,,,,,
,,957937,001,2023-07-24_21h17.55.175,arm3_eps,2022.2.5,Win32,59.99880002,605cb84d3d0c0d587aa464be,64aea9d0f615b6559c281482,64becb65ae6d09a9b22a3634,right,-1,0.3,0.2429,-1,0.013591004,0.8425,37,0,37,0,1,,,,,,,,,,
,,957937,001,2023-07-24_21h17.55.175,arm3_eps,2022.2.5,Win32,59.99880002,605cb84d3d0c0d587aa464be,64aea9d0f615b6559c281482,64becb65ae6d09a9b22a3634,up,1,0.3,0.2429,-1,0,0.4951,38,0,38,0,1,,,,,,,,,,
,,957937,001,2023-07-24_21h17.55.175,arm3_eps,2022.2.5,Win32,59.99880002,605cb84d3d0c0d587aa464be,64aea9d0f615b6559c281482,64becb65ae6d09a9b22a3634,right,1,0.3,0.2429,-1,-0.004514853,0.7761,39,0,39,0,1,,,,,,,,,,
,,957937,001,2023-07-24_21h17.55.175,arm3_eps,2022.2.5,Win32,59.99880002,605cb84d3d0c0d587aa464be,64aea9d0f615b6559c281482,64becb65ae6d09a9b22a3634,up,1,0.3,0.2429,-1,0,0.6288,40,0,40,0,1,,,,,,,,,,
,,957937,001,2023-07-24_21h17.55.175,arm3_eps,2022.2.5,Win32,59.99880002,605cb84d3d0c0d587aa464be,64aea9d0f615b6559c281482,64becb65ae6d09a9b22a3634,down,1,0.3,0.2429,-1,0,6.1679,41,0,41,0,1,,,,,,,,,,
,,957937,001,2023-07-24_21h17.55.175,arm3_eps,2022.2.5,Win32,59.99880002,605cb84d3d0c0d587aa464be,64aea9d0f615b6559c281482,64becb65ae6d09a9b22a3634,up,1,0.3,0.2429,0,0,12.7581,42,0,42,0,1,,,,,,,,,,
,,957937,001,2023-07-24_21h17.55.175,arm3_eps,2022.2.5,Win32,59.99880002,605cb84d3d0c0d587aa464be,64aea9d0f615b6559c281482,64becb65ae6d09a9b22a3634,right,1,0.3,0.2429,0,-0.029614211,0.851,43,0,43,0,1,,,,,,,,,,
,,957937,001,2023-07-24_21h17.55.175,arm3_eps,2022.2.5,Win32,59.99880002,605cb84d3d0c0d587aa464be,64aea9d0f615b6559c281482,64becb65ae6d09a9b22a3634,up,-1,0.3,0.2429,0,0,0.5047,44,0,44,0,1,,,,,,,,,,
,,957937,001,2023-07-24_21h17.55.175,arm3_eps,2022.2.5,Win32,59.99880002,605cb84d3d0c0d587aa464be,64aea9d0f615b6559c281482,64becb65ae6d09a9b22a3634,right,-1,0.3,0.2429,0,0.01668702,0.7726,45,0,45,0,1,,,,,,,,,,
,,957937,001,2023-07-24_21h17.55.175,arm3_eps,2022.2.5,Win32,59.99880002,605cb84d3d0c0d587aa464be,64aea9d0f615b6559c281482,64becb65ae6d09a9b22a3634,down,-1,0.3,0.2429,0,0,0.4672,46,0,46,0,1,,,,,,,,,,
,,957937,001,2023-07-24_21h17.55.175,arm3_eps,2022.2.5,Win32,59.99880002,605cb84d3d0c0d587aa464be,64aea9d0f615b6559c281482,64becb65ae6d09a9b22a3634,right,-1,0.3,0.2429,0,0.002134064,0.7183,47,0,47,0,1,,,,,,,,,,
,,957937,001,2023-07-24_21h17.55.175,arm3_eps,2022.2.5,Win32,59.99880002,605cb84d3d0c0d587aa464be,64aea9d0f615b6559c281482,64becb65ae6d09a9b22a3634,down,-1,0.3,0.2429,0,0,3.3113,48,0,48,0,1,,,,,,,,,,
,,957937,001,2023-07-24_21h17.55.175,arm3_eps,2022.2.5,Win32,59.99880002,605cb84d3d0c0d587aa464be,64aea9d0f615b6559c281482,64becb65ae6d09a9b22a3634,right,-1,0.3,0.2429,0,-0.018242746,0.783,49,0,49,0,1,,,,,,,,,,
space,1.8511,957937,001,2023-07-24_21h17.55.175,arm3_eps,2022.2.5,Win32,59.99880002,605cb84d3d0c0d587aa464be,64aea9d0f615b6559c281482,64becb65ae6d09a9b22a3634,,,,,,,,,,,,,,,,,,,,,,
space,1.2833,957937,001,2023-07-24_21h17.55.175,arm3_eps,2022.2.5,Win32,59.99880002,605cb84d3d0c0d587aa464be,64aea9d0f615b6559c281482,64becb65ae6d09a9b22a3634,up,-1,0.3,0.5,0,0,0.866,,,,,,0,0,0,0,1,,,,,
,,957937,001,2023-07-24_21h17.55.175,arm3_eps,2022.2.5,Win32,59.99880002,605cb84d3d0c0d587aa464be,64aea9d0f615b6559c281482,64becb65ae6d09a9b22a3634,right,-1,0.3,0.5,0,-0.001336764,0.9331,,,,,,1,0,1,0,1,,,,,
,,957937,001,2023-07-24_21h17.55.175,arm3_eps,2022.2.5,Win32,59.99880002,605cb84d3d0c0d587aa464be,64aea9d0f615b6559c281482,64becb65ae6d09a9b22a3634,right,-1,0.3,0.5,0,0.008994612,0.7114,,,,,,2,0,2,0,1,,,,,
,,957937,001,2023-07-24_21h17.55.175,arm3_eps,2022.2.5,Win32,59.99880002,605cb84d3d0c0d587aa464be,64aea9d0f615b6559c281482,64becb65ae6d09a9b22a3634,right,-1,0.3,0.5,0,0.022400494,0.6004,,,,,,3,0,3,0,1,,,,,
,,957937,001,2023-07-24_21h17.55.175,arm3_eps,2022.2.5,Win32,59.99880002,605cb84d3d0c0d587aa464be,64aea9d0f615b6559c281482,64becb65ae6d09a9b22a3634,down,1,0.3,0.5,0,0,0.7334,,,,,,4,0,4,0,1,,,,,
,,957937,001,2023-07-24_21h17.55.175,arm3_eps,2022.2.5,Win32,59.99880002,605cb84d3d0c0d587aa464be,64aea9d0f615b6559c281482,64becb65ae6d09a9b22a3634,right,1,0.3,0.5,0,0.03499455,0.7194,,,,,,5,0,5,0,1,,,,,
,,957937,001,2023-07-24_21h17.55.175,arm3_eps,2022.2.5,Win32,59.99880002,605cb84d3d0c0d587aa464be,64aea9d0f615b6559c281482,64becb65ae6d09a9b22a3634,down,1,0.3,0.5,-1,0,0.6795,,,,,,6,0,6,0,1,,,,,
,,957937,001,2023-07-24_21h17.55.175,arm3_eps,2022.2.5,Win32,59.99880002,605cb84d3d0c0d587aa464be,64aea9d0f615b6559c281482,64becb65ae6d09a9b22a3634,right,1,0.3,0.5,-1,-0.001926799,0.7997,,,,,,7,0,7,0,1,,,,,
,,957937,001,2023-07-24_21h17.55.175,arm3_eps,2022.2.5,Win32,59.99880002,605cb84d3d0c0d587aa464be,64aea9d0f615b6559c281482,64becb65ae6d09a9b22a3634,up,1,0.3,0.5,-1,0,0.4669,,,,,,8,0,8,0,1,,,,,
,,957937,001,2023-07-24_21h17.55.175,arm3_eps,2022.2.5,Win32,59.99880002,605cb84d3d0c0d587aa464be,64aea9d0f615b6559c281482,64becb65ae6d09a9b22a3634,right,1,0.3,0.5,-1,-0.000968367,0.7675,,,,,,9,0,9,0,1,,,,,
,,957937,001,2023-07-24_21h17.55.175,arm3_eps,2022.2.5,Win32,59.99880002,605cb84d3d0c0d587aa464be,64aea9d0f615b6559c281482,64becb65ae6d09a9b22a3634,up,1,0.3,0.5,-1,0,0.4534,,,,,,10,0,10,0,1,,,,,
,,957937,001,2023-07-24_21h17.55.175,arm3_eps,2022.2.5,Win32,59.99880002,605cb84d3d0c0d587aa464be,64aea9d0f615b6559c281482,64becb65ae6d09a9b22a3634,right,1,0.3,0.5,-1,0.015770564,0.6924,,,,,,11,0,11,0,1,,,,,
,,957937,001,2023-07-24_21h17.55.175,arm3_eps,2022.2.5,Win32,59.99880002,605cb84d3d0c0d587aa464be,64aea9d0f615b6559c281482,64becb65ae6d09a9b22a3634,right,1,0.3,0.5,-1,0.005162787,0.2245,,,,,,12,0,12,0,1,,,,,
,,957937,001,2023-07-24_21h17.55.175,arm3_eps,2022.2.5,Win32,59.99880002,605cb84d3d0c0d587aa464be,64aea9d0f615b6559c281482,64becb65ae6d09a9b22a3634,up,1,0.3,0.5,-1,0,0.6554,,,,,,13,0,13,0,1,,,,,
,,957937,001,2023-07-24_21h17.55.175,arm3_eps,2022.2.5,Win32,59.99880002,605cb84d3d0c0d587aa464be,64aea9d0f615b6559c281482,64becb65ae6d09a9b22a3634,right,1,0.3,0.5,-1,0.061421614,0.7512,,,,,,14,0,14,0,1,,,,,
,,957937,001,2023-07-24_21h17.55.175,arm3_eps,2022.2.5,Win32,59.99880002,605cb84d3d0c0d587aa464be,64aea9d0f615b6559c281482,64becb65ae6d09a9b22a3634,right,1,0.3,0.5,-1,0.05531232,0.2527,,,,,,15,0,15,0,1,,,,,
,,957937,001,2023-07-24_21h17.55.175,arm3_eps,2022.2.5,Win32,59.99880002,605cb84d3d0c0d587aa464be,64aea9d0f615b6559c281482,64becb65ae6d09a9b22a3634,up,-1,0.3,0.5,0,0,0.5667,,,,,,16,0,16,0,1,,,,,
,,957937,001,2023-07-24_21h17.55.175,arm3_eps,2022.2.5,Win32,59.99880002,605cb84d3d0c0d587aa464be,64aea9d0f615b6559c281482,64becb65ae6d09a9b22a3634,right,-1,0.3,0.5,0,-0.033978429,0.7987,,,,,,17,0,17,0,1,,,,,
,,957937,001,2023-07-24_21h17.55.175,arm3_eps,2022.2.5,Win32,59.99880002,605cb84d3d0c0d587aa464be,64aea9d0f615b6559c281482,64becb65ae6d09a9b22a3634,down,1,0.3,0.5,0,0,0.3666,,,,,,18,0,18,0,1,,,,,
,,957937,001,2023-07-24_21h17.55.175,arm3_eps,2022.2.5,Win32,59.99880002,605cb84d3d0c0d587aa464be,64aea9d0f615b6559c281482,64becb65ae6d09a9b22a3634,down,1,0.3,0.5,0,0,0.8014,,,,,,19,0,19,0,1,,,,,
,,957937,001,2023-07-24_21h17.55.175,arm3_eps,2022.2.5,Win32,59.99880002,605cb84d3d0c0d587aa464be,64aea9d0f615b6559c281482,64becb65ae6d09a9b22a3634,up,1,0.3,0.5,0,0,0.7331,,,,,,20,0,20,0,1,,,,,
,,957937,001,2023-07-24_21h17.55.175,arm3_eps,2022.2.5,Win32,59.99880002,605cb84d3d0c0d587aa464be,64aea9d0f615b6559c281482,64becb65ae6d09a9b22a3634,right,1,0.3,0.5,0,0.00364775,0.6837,,,,,,21,0,21,0,1,,,,,
,,957937,001,2023-07-24_21h17.55.175,arm3_eps,2022.2.5,Win32,59.99880002,605cb84d3d0c0d587aa464be,64aea9d0f615b6559c281482,64becb65ae6d09a9b22a3634,right,1,0.3,0.5,0,0.043941588,0.233,,,,,,22,0,22,0,1,,,,,
,,957937,001,2023-07-24_21h17.55.175,arm3_eps,2022.2.5,Win32,59.99880002,605cb84d3d0c0d587aa464be,64aea9d0f615b6559c281482,64becb65ae6d09a9b22a3634,up,-1,0.3,0.5,0,0,0.2546,,,,,,23,0,23,0,1,,,,,
,,957937,001,2023-07-24_21h17.55.175,arm3_eps,2022.2.5,Win32,59.99880002,605cb84d3d0c0d587aa464be,64aea9d0f615b6559c281482,64becb65ae6d09a9b22a3634,right,-1,0.3,0.5,0,0.032132054,0.7553,,,,,,24,0,24,0,1,,,,,
,,957937,001,2023-07-24_21h17.55.175,arm3_eps,2022.2.5,Win32,59.99880002,605cb84d3d0c0d587aa464be,64aea9d0f615b6559c281482,64becb65ae6d09a9b22a3634,down,-1,0.3,0.5,0,0,0.3259,,,,,,25,0,25,0,1,,,,,
,,957937,001,2023-07-24_21h17.55.175,arm3_eps,2022.2.5,Win32,59.99880002,605cb84d3d0c0d587aa464be,64aea9d0f615b6559c281482,64becb65ae6d09a9b22a3634,right,-1,0.3,0.5,0,-0.024877678,0.7337,,,,,,26,0,26,0,1,,,,,
,,957937,001,2023-07-24_21h17.55.175,arm3_eps,2022.2.5,Win32,59.99880002,605cb84d3d0c0d587aa464be,64aea9d0f615b6559c281482,64becb65ae6d09a9b22a3634,down,1,0.3,0.5,1,0,0.2666,,,,,,27,0,27,0,1,,,,,
,,957937,001,2023-07-24_21h17.55.175,arm3_eps,2022.2.5,Win32,59.99880002,605cb84d3d0c0d587aa464be,64aea9d0f615b6559c281482,64becb65ae6d09a9b22a3634,up,-1,0.3,0.5,2,0,0.9708,,,,,,28,0,28,0,1,,,,,
,,957937,001,2023-07-24_21h17.55.175,arm3_eps,2022.2.5,Win32,59.99880002,605cb84d3d0c0d587aa464be,64aea9d0f615b6559c281482,64becb65ae6d09a9b22a3634,right,-1,0.3,0.5,2,-0.023037944,0.7559,,,,,,29,0,29,0,1,,,,,
,,957937,001,2023-07-24_21h17.55.175,arm3_eps,2022.2.5,Win32,59.99880002,605cb84d3d0c0d587aa464be,64aea9d0f615b6559c281482,64becb65ae6d09a9b22a3634,down,1,0.3,0.5,3,0,0.6623,,,,,,30,0,30,0,1,,,,,
,,957937,001,2023-07-24_21h17.55.175,arm3_eps,2022.2.5,Win32,59.99880002,605cb84d3d0c0d587aa464be,64aea9d0f615b6559c281482,64becb65ae6d09a9b22a3634,right,1,0.3,0.5,3,-0.021987784,0.7081,,,,,,31,0,31,0,1,,,,,
,,957937,001,2023-07-24_21h17.55.175,arm3_eps,2022.2.5,Win32,59.99880002,605cb84d3d0c0d587aa464be,64aea9d0f615b6559c281482,64becb65ae6d09a9b22a3634,up,1,0.3,0.5,3,0,0.3888,,,,,,32,0,32,0,1,,,,,
,,957937,001,2023-07-24_21h17.55.175,arm3_eps,2022.2.5,Win32,59.99880002,605cb84d3d0c0d587aa464be,64aea9d0f615b6559c281482,64becb65ae6d09a9b22a3634,right,1,0.3,0.5,3,0.009284636,0.6889,,,,,,33,0,33,0,1,,,,,
,,957937,001,2023-07-24_21h17.55.175,arm3_eps,2022.2.5,Win32,59.99880002,605cb84d3d0c0d587aa464be,64aea9d0f615b6559c281482,64becb65ae6d09a9b22a3634,up,-1,0.3,0.5,4,0,0.4913,,,,,,34,0,34,0,1,,,,,
,,957937,001,2023-07-24_21h17.55.175,arm3_eps,2022.2.5,Win32,59.99880002,605cb84d3d0c0d587aa464be,64aea9d0f615b6559c281482,64becb65ae6d09a9b22a3634,right,-1,0.3,0.5,4,-0.009673839,0.6718,,,,,,35,0,35,0,1,,,,,
,,957937,001,2023-07-24_21h17.55.175,arm3_eps,2022.2.5,Win32,59.99880002,605cb84d3d0c0d587aa464be,64aea9d0f615b6559c281482,64becb65ae6d09a9b22a3634,down,1,0.3,0.5,4,0,0.3926,,,,,,36,0,36,0,1,,,,,
,,957937,001,2023-07-24_21h17.55.175,arm3_eps,2022.2.5,Win32,59.99880002,605cb84d3d0c0d587aa464be,64aea9d0f615b6559c281482,64becb65ae6d09a9b22a3634,right,1,0.3,0.5,4,0.014282011,0.6942,,,,,,37,0,37,0,1,,,,,
,,957937,001,2023-07-24_21h17.55.175,arm3_eps,2022.2.5,Win32,59.99880002,605cb84d3d0c0d587aa464be,64aea9d0f615b6559c281482,64becb65ae6d09a9b22a3634,down,-1,0.3,0.5,4,0,0.6563,,,,,,38,0,38,0,1,,,,,
,,957937,001,2023-07-24_21h17.55.175,arm3_eps,2022.2.5,Win32,59.99880002,605cb84d3d0c0d587aa464be,64aea9d0f615b6559c281482,64becb65ae6d09a9b22a3634,right,-1,0.3,0.5,4,0.000490052,0.684,,,,,,39,0,39,0,1,,,,,
,,957937,001,2023-07-24_21h17.55.175,arm3_eps,2022.2.5,Win32,59.99880002,605cb84d3d0c0d587aa464be,64aea9d0f615b6559c281482,64becb65ae6d09a9b22a3634,up,-1,0.3,0.5,4,0,0.2498,,,,,,40,0,40,0,1,,,,,
,,957937,001,2023-07-24_21h17.55.175,arm3_eps,2022.2.5,Win32,59.99880002,605cb84d3d0c0d587aa464be,64aea9d0f615b6559c281482,64becb65ae6d09a9b22a3634,right,-1,0.3,0.5,4,0.009057904,0.6831,,,,,,41,0,41,0,1,,,,,
,,957937,001,2023-07-24_21h17.55.175,arm3_eps,2022.2.5,Win32,59.99880002,605cb84d3d0c0d587aa464be,64aea9d0f615b6559c281482,64becb65ae6d09a9b22a3634,right,-1,0.3,0.5,4,-6.52198E-05,0.2081,,,,,,42,0,42,0,1,,,,,
,,957937,001,2023-07-24_21h17.55.175,arm3_eps,2022.2.5,Win32,59.99880002,605cb84d3d0c0d587aa464be,64aea9d0f615b6559c281482,64becb65ae6d09a9b22a3634,right,-1,0.3,0.5,4,-0.005360088,0.1738,,,,,,43,0,43,0,1,,,,,
,,957937,001,2023-07-24_21h17.55.175,arm3_eps,2022.2.5,Win32,59.99880002,605cb84d3d0c0d587aa464be,64aea9d0f615b6559c281482,64becb65ae6d09a9b22a3634,right,-1,0.3,0.5,4,0.00321083,0.1496,,,,,,44,0,44,0,1,,,,,
,,957937,001,2023-07-24_21h17.55.175,arm3_eps,2022.2.5,Win32,59.99880002,605cb84d3d0c0d587aa464be,64aea9d0f615b6559c281482,64becb65ae6d09a9b22a3634,right,-1,0.3,0.5,4,-0.012213629,0.1444,,,,,,45,0,45,0,1,,,,,
,,957937,001,2023-07-24_21h17.55.175,arm3_eps,2022.2.5,Win32,59.99880002,605cb84d3d0c0d587aa464be,64aea9d0f615b6559c281482,64becb65ae6d09a9b22a3634,right,-1,0.3,0.5,4,-0.056471349,0.1502,,,,,,46,0,46,0,1,,,,,
,,957937,001,2023-07-24_21h17.55.175,arm3_eps,2022.2.5,Win32,59.99880002,605cb84d3d0c0d587aa464be,64aea9d0f615b6559c281482,64becb65ae6d09a9b22a3634,up,-1,0.3,0.5,4,0,0.4421,,,,,,47,0,47,0,1,,,,,
,,957937,001,2023-07-24_21h17.55.175,arm3_eps,2022.2.5,Win32,59.99880002,605cb84d3d0c0d587aa464be,64aea9d0f615b6559c281482,64becb65ae6d09a9b22a3634,right,-1,0.3,0.5,4,-0.014187066,0.5855,,,,,,48,0,48,0,1,,,,,
,,957937,001,2023-07-24_21h17.55.175,arm3_eps,2022.2.5,Win32,59.99880002,605cb84d3d0c0d587aa464be,64aea9d0f615b6559c281482,64becb65ae6d09a9b22a3634,right,-1,0.3,0.5,4,-0.033402678,0.1687,,,,,,49,0,49,0,1,,,,,
,,957937,001,2023-07-24_21h17.55.175,arm3_eps,2022.2.5,Win32,59.99880002,605cb84d3d0c0d587aa464be,64aea9d0f615b6559c281482,64becb65ae6d09a9b22a3634,down,-1,0.3,0.5,4,0,0.1664,,,,,,50,0,50,0,1,,,,,
,,957937,001,2023-07-24_21h17.55.175,arm3_eps,2022.2.5,Win32,59.99880002,605cb84d3d0c0d587aa464be,64aea9d0f615b6559c281482,64becb65ae6d09a9b22a3634,right,-1,0.3,0.5,4,-0.023415912,0.6577,,,,,,51,0,51,0,1,,,,,
,,957937,001,2023-07-24_21h17.55.175,arm3_eps,2022.2.5,Win32,59.99880002,605cb84d3d0c0d587aa464be,64aea9d0f615b6559c281482,64becb65ae6d09a9b22a3634,right,-1,0.3,0.5,4,-0.025740025,0.1363,,,,,,52,0,52,0,1,,,,,
,,957937,001,2023-07-24_21h17.55.175,arm3_eps,2022.2.5,Win32,59.99880002,605cb84d3d0c0d587aa464be,64aea9d0f615b6559c281482,64becb65ae6d09a9b22a3634,up,-1,0.3,0.5,4,0,0.2767,,,,,,53,0,53,0,1,,,,,
,,957937,001,2023-07-24_21h17.55.175,arm3_eps,2022.2.5,Win32,59.99880002,605cb84d3d0c0d587aa464be,64aea9d0f615b6559c281482,64becb65ae6d09a9b22a3634,right,-1,0.3,0.5,4,-0.024575647,0.6878,,,,,,54,0,54,0,1,,,,,
,,957937,001,2023-07-24_21h17.55.175,arm3_eps,2022.2.5,Win32,59.99880002,605cb84d3d0c0d587aa464be,64aea9d0f615b6559c281482,64becb65ae6d09a9b22a3634,down,-1,0.3,0.5,5,0,0.2539,,,,,,55,0,55,0,1,,,,,
,,957937,001,2023-07-24_21h17.55.175,arm3_eps,2022.2.5,Win32,59.99880002,605cb84d3d0c0d587aa464be,64aea9d0f615b6559c281482,64becb65ae6d09a9b22a3634,right,-1,0.3,0.5,5,0.014898066,0.6396,,,,,,56,0,56,0,1,,,,,
,,957937,001,2023-07-24_21h17.55.175,arm3_eps,2022.2.5,Win32,59.99880002,605cb84d3d0c0d587aa464be,64aea9d0f615b6559c281482,64becb65ae6d09a9b22a3634,right,-1,0.3,0.5,5,0.007477544,0.1335,,,,,,57,0,57,0,1,,,,,
,,957937,001,2023-07-24_21h17.55.175,arm3_eps,2022.2.5,Win32,59.99880002,605cb84d3d0c0d587aa464be,64aea9d0f615b6559c281482,64becb65ae6d09a9b22a3634,up,1,0.3,0.5,5,0,0.1667,,,,,,58,0,58,0,1,,,,,
,,957937,001,2023-07-24_21h17.55.175,arm3_eps,2022.2.5,Win32,59.99880002,605cb84d3d0c0d587aa464be,64aea9d0f615b6559c281482,64becb65ae6d09a9b22a3634,right,1,0.3,0.5,5,0.019510389,0.7185,,,,,,59,0,59,0,1,,,,,
,,957937,001,2023-07-24_21h17.55.175,arm3_eps,2022.2.5,Win32,59.99880002,605cb84d3d0c0d587aa464be,64aea9d0f615b6559c281482,64becb65ae6d09a9b22a3634,right,1,0.3,0.5,5,0.03634205,0.1354,,,,,,60,0,60,0,1,,,,,
,,957937,001,2023-07-24_21h17.55.175,arm3_eps,2022.2.5,Win32,59.99880002,605cb84d3d0c0d587aa464be,64aea9d0f615b6559c281482,64becb65ae6d09a9b22a3634,up,-1,0.3,0.5,5,0,0.2777,,,,,,61,0,61,0,1,,,,,
,,957937,001,2023-07-24_21h17.55.175,arm3_eps,2022.2.5,Win32,59.99880002,605cb84d3d0c0d587aa464be,64aea9d0f615b6559c281482,64becb65ae6d09a9b22a3634,right,-1,0.3,0.5,5,-0.013792113,0.638,,,,,,62,0,62,0,1,,,,,
,,957937,001,2023-07-24_21h17.55.175,arm3_eps,2022.2.5,Win32,59.99880002,605cb84d3d0c0d587aa464be,64aea9d0f615b6559c281482,64becb65ae6d09a9b22a3634,right,-1,0.3,0.5,5,-0.042530657,0.1411,,,,,,63,0,63,0,1,,,,,
,,957937,001,2023-07-24_21h17.55.175,arm3_eps,2022.2.5,Win32,59.99880002,605cb84d3d0c0d587aa464be,64aea9d0f615b6559c281482,64becb65ae6d09a9b22a3634,right,-1,0.3,0.5,5,-0.049312806,0.1535,,,,,,64,0,64,0,1,,,,,
,,957937,001,2023-07-24_21h17.55.175,arm3_eps,2022.2.5,Win32,59.99880002,605cb84d3d0c0d587aa464be,64aea9d0f615b6559c281482,64becb65ae6d09a9b22a3634,up,1,0.3,0.5,5,0,0.0192,,,,,,65,0,65,0,1,,,,,
,,957937,001,2023-07-24_21h17.55.175,arm3_eps,2022.2.5,Win32,59.99880002,605cb84d3d0c0d587aa464be,64aea9d0f615b6559c281482,64becb65ae6d09a9b22a3634,up,1,0.3,0.5,5,0,0.2502,,,,,,66,0,66,0,1,,,,,
,,957937,001,2023-07-24_21h17.55.175,arm3_eps,2022.2.5,Win32,59.99880002,605cb84d3d0c0d587aa464be,64aea9d0f615b6559c281482,64becb65ae6d09a9b22a3634,right,1,0.3,0.5,5,0.065416883,0.1952,,,,,,67,0,67,0,1,,,,,
,,957937,001,2023-07-24_21h17.55.175,arm3_eps,2022.2.5,Win32,59.99880002,605cb84d3d0c0d587aa464be,64aea9d0f615b6559c281482,64becb65ae6d09a9b22a3634,right,1,0.3,0.5,5,0.040541004,0.1697,,,,,,68,0,68,0,1,,,,,
,,957937,001,2023-07-24_21h17.55.175,arm3_eps,2022.2.5,Win32,59.99880002,605cb84d3d0c0d587aa464be,64aea9d0f615b6559c281482,64becb65ae6d09a9b22a3634,right,1,0.3,0.5,5,0.100692999,0.1438,,,,,,69,0,69,0,1,,,,,
,,957937,001,2023-07-24_21h17.55.175,arm3_eps,2022.2.5,Win32,59.99880002,605cb84d3d0c0d587aa464be,64aea9d0f615b6559c281482,64becb65ae6d09a9b22a3634,down,1,0.3,0.5,5,0,0.1692,,,,,,70,0,70,0,1,,,,,
,,957937,001,2023-07-24_21h17.55.175,arm3_eps,2022.2.5,Win32,59.99880002,605cb84d3d0c0d587aa464be,64aea9d0f615b6559c281482,64becb65ae6d09a9b22a3634,down,-1,0.3,0.5,5,0,0.1663,,,,,,71,0,71,0,1,,,,,
,,957937,001,2023-07-24_21h17.55.175,arm3_eps,2022.2.5,Win32,59.99880002,605cb84d3d0c0d587aa464be,64aea9d0f615b6559c281482,64becb65ae6d09a9b22a3634,right,-1,0.3,0.5,5,0.011859273,0.3212,,,,,,72,0,72,0,1,,,,,
,,957937,001,2023-07-24_21h17.55.175,arm3_eps,2022.2.5,Win32,59.99880002,605cb84d3d0c0d587aa464be,64aea9d0f615b6559c281482,64becb65ae6d09a9b22a3634,right,-1,0.3,0.5,5,0.022049967,0.1496,,,,,,73,0,73,0,1,,,,,
,,957937,001,2023-07-24_21h17.55.175,arm3_eps,2022.2.5,Win32,59.99880002,605cb84d3d0c0d587aa464be,64aea9d0f615b6559c281482,64becb65ae6d09a9b22a3634,right,-1,0.3,0.5,5,-0.023023424,0.1498,,,,,,74,0,74,0,1,,,,,
,,957937,001,2023-07-24_21h17.55.175,arm3_eps,2022.2.5,Win32,59.99880002,605cb84d3d0c0d587aa464be,64aea9d0f615b6559c281482,64becb65ae6d09a9b22a3634,up,1,0.3,0.5,4,0,0.0488,,,,,,75,0,75,0,1,,,,,
,,957937,001,2023-07-24_21h17.55.175,arm3_eps,2022.2.5,Win32,59.99880002,605cb84d3d0c0d587aa464be,64aea9d0f615b6559c281482,64becb65ae6d09a9b22a3634,up,-1,0.3,0.5,4,0,0.204,,,,,,76,0,76,0,1,,,,,
,,957937,001,2023-07-24_21h17.55.175,arm3_eps,2022.2.5,Win32,59.99880002,605cb84d3d0c0d587aa464be,64aea9d0f615b6559c281482,64becb65ae6d09a9b22a3634,up,1,0.3,0.5,4,0,0.1872,,,,,,77,0,77,0,1,,,,,
,,957937,001,2023-07-24_21h17.55.175,arm3_eps,2022.2.5,Win32,59.99880002,605cb84d3d0c0d587aa464be,64aea9d0f615b6559c281482,64becb65ae6d09a9b22a3634,up,1,0.3,0.5,5,0,0.9362,,,,,,78,0,78,0,1,,,,,
,,957937,001,2023-07-24_21h17.55.175,arm3_eps,2022.2.5,Win32,59.99880002,605cb84d3d0c0d587aa464be,64aea9d0f615b6559c281482,64becb65ae6d09a9b22a3634,up,1,0.3,0.5,5,0,0.3761,,,,,,79,0,79,0,1,,,,,
,,957937,001,2023-07-24_21h17.55.175,arm3_eps,2022.2.5,Win32,59.99880002,605cb84d3d0c0d587aa464be,64aea9d0f615b6559c281482,64becb65ae6d09a9b22a3634,up,1,0.3,0.5,5,0,0.1759,,,,,,80,0,80,0,1,,,,,
,,957937,001,2023-07-24_21h17.55.175,arm3_eps,2022.2.5,Win32,59.99880002,605cb84d3d0c0d587aa464be,64aea9d0f615b6559c281482,64becb65ae6d09a9b22a3634,up,1,0.3,0.5,5,0,0.191,,,,,,81,0,81,0,1,,,,,
,,957937,001,2023-07-24_21h17.55.175,arm3_eps,2022.2.5,Win32,59.99880002,605cb84d3d0c0d587aa464be,64aea9d0f615b6559c281482,64becb65ae6d09a9b22a3634,up,1,0.3,0.5,5,0,0.1904,,,,,,82,0,82,0,1,,,,,
,,957937,001,2023-07-24_21h17.55.175,arm3_eps,2022.2.5,Win32,59.99880002,605cb84d3d0c0d587aa464be,64aea9d0f615b6559c281482,64becb65ae6d09a9b22a3634,right,1,0.3,0.5,5,0.028233252,0.8835,,,,,,83,0,83,0,1,,,,,
,,957937,001,2023-07-24_21h17.55.175,arm3_eps,2022.2.5,Win32,59.99880002,605cb84d3d0c0d587aa464be,64aea9d0f615b6559c281482,64becb65ae6d09a9b22a3634,right,1,0.3,0.5,5,0.050377981,0.1287,,,,,,84,0,84,0,1,,,,,
,,957937,001,2023-07-24_21h17.55.175,arm3_eps,2022.2.5,Win32,59.99880002,605cb84d3d0c0d587aa464be,64aea9d0f615b6559c281482,64becb65ae6d09a9b22a3634,right,1,0.3,0.5,5,0.040895085,0.1824,,,,,,85,0,85,0,1,,,,,
,,957937,001,2023-07-24_21h17.55.175,arm3_eps,2022.2.5,Win32,59.99880002,605cb84d3d0c0d587aa464be,64aea9d0f615b6559c281482,64becb65ae6d09a9b22a3634,down,1,0.3,0.5,5,0,0.3235,,,,,,86,0,86,0,1,,,,,
,,957937,001,2023-07-24_21h17.55.175,arm3_eps,2022.2.5,Win32,59.99880002,605cb84d3d0c0d587aa464be,64aea9d0f615b6559c281482,64becb65ae6d09a9b22a3634,right,1,0.3,0.5,5,0.010368613,0.7188,,,,,,87,0,87,0,1,,,,,
,,957937,001,2023-07-24_21h17.55.175,arm3_eps,2022.2.5,Win32,59.99880002,605cb84d3d0c0d587aa464be,64aea9d0f615b6559c281482,64becb65ae6d09a9b22a3634,right,1,0.3,0.5,5,0.015824375,0.1502,,,,,,88,0,88,0,1,,,,,
,,957937,001,2023-07-24_21h17.55.175,arm3_eps,2022.2.5,Win32,59.99880002,605cb84d3d0c0d587aa464be,64aea9d0f615b6559c281482,64becb65ae6d09a9b22a3634,right,1,0.3,0.5,5,0.023949791,0.1495,,,,,,89,0,89,0,1,,,,,
,,957937,001,2023-07-24_21h17.55.175,arm3_eps,2022.2.5,Win32,59.99880002,605cb84d3d0c0d587aa464be,64aea9d0f615b6559c281482,64becb65ae6d09a9b22a3634,up,1,0.3,0.5,6,0,0.2037,,,,,,90,0,90,0,1,,,,,
,,957937,001,2023-07-24_21h17.55.175,arm3_eps,2022.2.5,Win32,59.99880002,605cb84d3d0c0d587aa464be,64aea9d0f615b6559c281482,64becb65ae6d09a9b22a3634,right,1,0.3,0.5,6,-0.013787425,0.6843,,,,,,91,0,91,0,1,,,,,
,,957937,001,2023-07-24_21h17.55.175,arm3_eps,2022.2.5,Win32,59.99880002,605cb84d3d0c0d587aa464be,64aea9d0f615b6559c281482,64becb65ae6d09a9b22a3634,right,1,0.3,0.5,6,-0.020807078,0.1425,,,,,,92,0,92,0,1,,,,,
,,957937,001,2023-07-24_21h17.55.175,arm3_eps,2022.2.5,Win32,59.99880002,605cb84d3d0c0d587aa464be,64aea9d0f615b6559c281482,64becb65ae6d09a9b22a3634,right,1,0.3,0.5,6,-0.02114175,0.1559,,,,,,93,0,93,0,1,,,,,
,,957937,001,2023-07-24_21h17.55.175,arm3_eps,2022.2.5,Win32,59.99880002,605cb84d3d0c0d587aa464be,64aea9d0f615b6559c281482,64becb65ae6d09a9b22a3634,up,1,0.3,0.5,6,0,0.2215,,,,,,94,0,94,0,1,,,,,
,,957937,001,2023-07-24_21h17.55.175,arm3_eps,2022.2.5,Win32,59.99880002,605cb84d3d0c0d587aa464be,64aea9d0f615b6559c281482,64becb65ae6d09a9b22a3634,right,1,0.3,0.5,6,0.016366444,0.7036,,,,,,95,0,95,0,1,,,,,
,,957937,001,2023-07-24_21h17.55.175,arm3_eps,2022.2.5,Win32,59.99880002,605cb84d3d0c0d587aa464be,64aea9d0f615b6559c281482,64becb65ae6d09a9b22a3634,right,1,0.3,0.5,6,0.027727301,0.1671,,,,,,96,0,96,0,1,,,,,
,,957937,001,2023-07-24_21h17.55.175,arm3_eps,2022.2.5,Win32,59.99880002,605cb84d3d0c0d587aa464be,64aea9d0f615b6559c281482,64becb65ae6d09a9b22a3634,down,-1,0.3,0.5,6,0,0.2521,,,,,,97,0,97,0,1,,,,,
,,957937,001,2023-07-24_21h17.55.175,arm3_eps,2022.2.5,Win32,59.99880002,605cb84d3d0c0d587aa464be,64aea9d0f615b6559c281482,64becb65ae6d09a9b22a3634,right,-1,0.3,0.5,6,-0.018975775,0.6099,,,,,,98,0,98,0,1,,,,,
,,957937,001,2023-07-24_21h17.55.175,arm3_eps,2022.2.5,Win32,59.99880002,605cb84d3d0c0d587aa464be,64aea9d0f615b6559c281482,64becb65ae6d09a9b22a3634,right,-1,0.3,0.5,6,-0.056121677,0.1669,,,,,,99,0,99,0,1,,,,,
,,957937,001,2023-07-24_21h17.55.175,arm3_eps,2022.2.5,Win32,59.99880002,605cb84d3d0c0d587aa464be,64aea9d0f615b6559c281482,64becb65ae6d09a9b22a3634,right,-1,0.3,0.5,6,-0.049009287,0.1496,,,,,,100,0,100,0,1,,,,,
,,957937,001,2023-07-24_21h17.55.175,arm3_eps,2022.2.5,Win32,59.99880002,605cb84d3d0c0d587aa464be,64aea9d0f615b6559c281482,64becb65ae6d09a9b22a3634,up,-1,0.3,0.5,6,0,0.0298,,,,,,101,0,101,0,1,,,,,
,,957937,001,2023-07-24_21h17.55.175,arm3_eps,2022.2.5,Win32,59.99880002,605cb84d3d0c0d587aa464be,64aea9d0f615b6559c281482,64becb65ae6d09a9b22a3634,right,-1,0.3,0.5,6,-0.031087418,0.7002,,,,,,102,0,102,0,1,,,,,
,,957937,001,2023-07-24_21h17.55.175,arm3_eps,2022.2.5,Win32,59.99880002,605cb84d3d0c0d587aa464be,64aea9d0f615b6559c281482,64becb65ae6d09a9b22a3634,right,-1,0.3,0.5,6,-0.028774774,0.137,,,,,,103,0,103,0,1,,,,,
,,957937,001,2023-07-24_21h17.55.175,arm3_eps,2022.2.5,Win32,59.99880002,605cb84d3d0c0d587aa464be,64aea9d0f615b6559c281482,64becb65ae6d09a9b22a3634,right,-1,0.3,0.5,6,-0.04083796,0.1465,,,,,,104,0,104,0,1,,,,,
,,957937,001,2023-07-24_21h17.55.175,arm3_eps,2022.2.5,Win32,59.99880002,605cb84d3d0c0d587aa464be,64aea9d0f615b6559c281482,64becb65ae6d09a9b22a3634,right,-1,0.3,0.5,6,-0.041918983,0.1829,,,,,,105,0,105,0,1,,,,,
,,957937,001,2023-07-24_21h17.55.175,arm3_eps,2022.2.5,Win32,59.99880002,605cb84d3d0c0d587aa464be,64aea9d0f615b6559c281482,64becb65ae6d09a9b22a3634,up,-1,0.3,0.5,6,0,0.119,,,,,,106,0,106,0,1,,,,,
,,957937,001,2023-07-24_21h17.55.175,arm3_eps,2022.2.5,Win32,59.99880002,605cb84d3d0c0d587aa464be,64aea9d0f615b6559c281482,64becb65ae6d09a9b22a3634,right,-1,0.3,0.5,6,-0.013380662,0.6092,,,,,,107,0,107,0,1,,,,,
,,957937,001,2023-07-24_21h17.55.175,arm3_eps,2022.2.5,Win32,59.99880002,605cb84d3d0c0d587aa464be,64aea9d0f615b6559c281482,64becb65ae6d09a9b22a3634,right,-1,0.3,0.5,6,-0.027140662,0.1707,,,,,,108,0,108,0,1,,,,,
,,957937,001,2023-07-24_21h17.55.175,arm3_eps,2022.2.5,Win32,59.99880002,605cb84d3d0c0d587aa464be,64aea9d0f615b6559c281482,64becb65ae6d09a9b22a3634,down,1,0.3,0.5,6,0,0.1026,,,,,,109,0,109,0,1,,,,,
,,957937,001,2023-07-24_21h17.55.175,arm3_eps,2022.2.5,Win32,59.99880002,605cb84d3d0c0d587aa464be,64aea9d0f615b6559c281482,64becb65ae6d09a9b22a3634,right,1,0.3,0.5,6,0.015544444,0.5875,,,,,,110,0,110,0,1,,,,,
,,957937,001,2023-07-24_21h17.55.175,arm3_eps,2022.2.5,Win32,59.99880002,605cb84d3d0c0d587aa464be,64aea9d0f615b6559c281482,64becb65ae6d09a9b22a3634,right,1,0.3,0.5,6,0.035436043,0.15,,,,,,111,0,111,0,1,,,,,
,,957937,001,2023-07-24_21h17.55.175,arm3_eps,2022.2.5,Win32,59.99880002,605cb84d3d0c0d587aa464be,64aea9d0f615b6559c281482,64becb65ae6d09a9b22a3634,right,1,0.3,0.5,6,0.064742985,0.1663,,,,,,112,0,112,0,1,,,,,
,,957937,001,2023-07-24_21h17.55.175,arm3_eps,2022.2.5,Win32,59.99880002,605cb84d3d0c0d587aa464be,64aea9d0f615b6559c281482,64becb65ae6d09a9b22a3634,up,-1,0.3,0.5,7,0,0.0192,,,,,,113,0,113,0,1,,,,,
,,957937,001,2023-07-24_21h17.55.175,arm3_eps,2022.2.5,Win32,59.99880002,605cb84d3d0c0d587aa464be,64aea9d0f615b6559c281482,64becb65ae6d09a9b22a3634,right,-1,0.3,0.5,7,0.038151776,0.6358,,,,,,114,0,114,0,1,,,,,
,,957937,001,2023-07-24_21h17.55.175,arm3_eps,2022.2.5,Win32,59.99880002,605cb84d3d0c0d587aa464be,64aea9d0f615b6559c281482,64becb65ae6d09a9b22a3634,right,-1,0.3,0.5,7,0.01047163,0.1512,,,,,,115,0,115,0,1,,,,,
,,957937,001,2023-07-24_21h17.55.175,arm3_eps,2022.2.5,Win32,59.99880002,605cb84d3d0c0d587aa464be,64aea9d0f615b6559c281482,64becb65ae6d09a9b22a3634,down,-1,0.3,0.5,7,0,0.1949,,,,,,116,0,116,0,1,,,,,
,,957937,001,2023-07-24_21h17.55.175,arm3_eps,2022.2.5,Win32,59.99880002,605cb84d3d0c0d587aa464be,64aea9d0f615b6559c281482,64becb65ae6d09a9b22a3634,right,-1,0.3,0.5,7,0.004787359,1.9334,,,,,,117,0,117,0,1,,,,,
,,957937,001,2023-07-24_21h17.55.175,arm3_eps,2022.2.5,Win32,59.99880002,605cb84d3d0c0d587aa464be,64aea9d0f615b6559c281482,64becb65ae6d09a9b22a3634,right,-1,0.3,0.5,7,-0.004005586,0.1724,,,,,,118,0,118,0,1,,,,,
,,957937,001,2023-07-24_21h17.55.175,arm3_eps,2022.2.5,Win32,59.99880002,605cb84d3d0c0d587aa464be,64aea9d0f615b6559c281482,64becb65ae6d09a9b22a3634,right,-1,0.3,0.5,7,-0.029928373,0.1776,,,,,,119,0,119,0,1,,,,,
,,957937,001,2023-07-24_21h17.55.175,arm3_eps,2022.2.5,Win32,59.99880002,605cb84d3d0c0d587aa464be,64aea9d0f615b6559c281482,64becb65ae6d09a9b22a3634,right,-1,0.3,0.5,7,-0.036854819,0.1614,,,,,,120,0,120,0,1,,,,,
,,957937,001,2023-07-24_21h17.55.175,arm3_eps,2022.2.5,Win32,59.99880002,605cb84d3d0c0d587aa464be,64aea9d0f615b6559c281482,64becb65ae6d09a9b22a3634,up,-1,0.3,0.5,7,0,0.1133,,,,,,121,0,121,0,1,,,,,
,,957937,001,2023-07-24_21h17.55.175,arm3_eps,2022.2.5,Win32,59.99880002,605cb84d3d0c0d587aa464be,64aea9d0f615b6559c281482,64becb65ae6d09a9b22a3634,right,-1,0.3,0.5,7,-0.001853011,0.8668,,,,,,122,0,122,0,1,,,,,
,,957937,001,2023-07-24_21h17.55.175,arm3_eps,2022.2.5,Win32,59.99880002,605cb84d3d0c0d587aa464be,64aea9d0f615b6559c281482,64becb65ae6d09a9b22a3634,right,-1,0.3,0.5,7,-0.008071236,0.1829,,,,,,123,0,123,0,1,,,,,
,,957937,001,2023-07-24_21h17.55.175,arm3_eps,2022.2.5,Win32,59.99880002,605cb84d3d0c0d587aa464be,64aea9d0f615b6559c281482,64becb65ae6d09a9b22a3634,right,-1,0.3,0.5,7,-0.035269895,0.1257,,,,,,124,0,124,0,1,,,,,
,,957937,001,2023-07-24_21h17.55.175,arm3_eps,2022.2.5,Win32,59.99880002,605cb84d3d0c0d587aa464be,64aea9d0f615b6559c281482,64becb65ae6d09a9b22a3634,up,1,0.3,0.5,7,0,0.1834,,,,,,125,0,125,0,1,,,,,
,,957937,001,2023-07-24_21h17.55.175,arm3_eps,2022.2.5,Win32,59.99880002,605cb84d3d0c0d587aa464be,64aea9d0f615b6559c281482,64becb65ae6d09a9b22a3634,right,1,0.3,0.5,7,-0.007444393,0.5678,,,,,,126,0,126,0,1,,,,,
,,957937,001,2023-07-24_21h17.55.175,arm3_eps,2022.2.5,Win32,59.99880002,605cb84d3d0c0d587aa464be,64aea9d0f615b6559c281482,64becb65ae6d09a9b22a3634,right,1,0.3,0.5,7,-0.009299584,0.1369,,,,,,127,0,127,0,1,,,,,
,,957937,001,2023-07-24_21h17.55.175,arm3_eps,2022.2.5,Win32,59.99880002,605cb84d3d0c0d587aa464be,64aea9d0f615b6559c281482,64becb65ae6d09a9b22a3634,right,1,0.3,0.5,7,-0.00777629,0.1681,,,,,,128,0,128,0,1,,,,,
,,957937,001,2023-07-24_21h17.55.175,arm3_eps,2022.2.5,Win32,59.99880002,605cb84d3d0c0d587aa464be,64aea9d0f615b6559c281482,64becb65ae6d09a9b22a3634,down,-1,0.3,0.5,7,0,0.16,,,,,,129,0,129,0,1,,,,,
,,957937,001,2023-07-24_21h17.55.175,arm3_eps,2022.2.5,Win32,59.99880002,605cb84d3d0c0d587aa464be,64aea9d0f615b6559c281482,64becb65ae6d09a9b22a3634,right,-1,0.3,0.5,7,0.010706158,0.5798,,,,,,130,0,130,0,1,,,,,
,,957937,001,2023-07-24_21h17.55.175,arm3_eps,2022.2.5,Win32,59.99880002,605cb84d3d0c0d587aa464be,64aea9d0f615b6559c281482,64becb65ae6d09a9b22a3634,right,-1,0.3,0.5,7,-0.003812739,0.1747,,,,,,131,0,131,0,1,,,,,
,,957937,001,2023-07-24_21h17.55.175,arm3_eps,2022.2.5,Win32,59.99880002,605cb84d3d0c0d587aa464be,64aea9d0f615b6559c281482,64becb65ae6d09a9b22a3634,right,-1,0.3,0.5,7,0.013882907,0.1496,,,,,,132,0,132,0,1,,,,,
,,957937,001,2023-07-24_21h17.55.175,arm3_eps,2022.2.5,Win32,59.99880002,605cb84d3d0c0d587aa464be,64aea9d0f615b6559c281482,64becb65ae6d09a9b22a3634,up,1,0.3,0.5,7,0,0.0204,,,,,,133,0,133,0,1,,,,,
,,957937,001,2023-07-24_21h17.55.175,arm3_eps,2022.2.5,Win32,59.99880002,605cb84d3d0c0d587aa464be,64aea9d0f615b6559c281482,64becb65ae6d09a9b22a3634,right,1,0.3,0.5,7,-0.01215273,0.5793,,,,,,134,0,134,0,1,,,,,
,,957937,001,2023-07-24_21h17.55.175,arm3_eps,2022.2.5,Win32,59.99880002,605cb84d3d0c0d587aa464be,64aea9d0f615b6559c281482,64becb65ae6d09a9b22a3634,right,1,0.3,0.5,7,-0.01585743,0.1534,,,,,,135,0,135,0,1,,,,,
,,957937,001,2023-07-24_21h17.55.175,arm3_eps,2022.2.5,Win32,59.99880002,605cb84d3d0c0d587aa464be,64aea9d0f615b6559c281482,64becb65ae6d09a9b22a3634,right,1,0.3,0.5,7,-0.007274804,0.1359,,,,,,136,0,136,0,1,,,,,
,,957937,001,2023-07-24_21h17.55.175,arm3_eps,2022.2.5,Win32,59.99880002,605cb84d3d0c0d587aa464be,64aea9d0f615b6559c281482,64becb65ae6d09a9b22a3634,down,1,0.3,0.5,7,0,0.0499,,,,,,137,0,137,0,1,,,,,
,,957937,001,2023-07-24_21h17.55.175,arm3_eps,2022.2.5,Win32,59.99880002,605cb84d3d0c0d587aa464be,64aea9d0f615b6559c281482,64becb65ae6d09a9b22a3634,right,1,0.3,0.5,7,0.02263047,70.3372,,,,,,138,0,138,0,1,,,,,
,,957937,001,2023-07-24_21h17.55.175,arm3_eps,2022.2.5,Win32,59.99880002,605cb84d3d0c0d587aa464be,64aea9d0f615b6559c281482,64becb65ae6d09a9b22a3634,right,1,0.3,0.5,7,0.016273138,0.7151,,,,,,139,0,139,0,1,,,,,
,,957937,001,2023-07-24_21h17.55.175,arm3_eps,2022.2.5,Win32,59.99880002,605cb84d3d0c0d587aa464be,64aea9d0f615b6559c281482,64becb65ae6d09a9b22a3634,up,1,0.3,0.5,7,0,0.3835,,,,,,140,0,140,0,1,,,,,
,,957937,001,2023-07-24_21h17.55.175,arm3_eps,2022.2.5,Win32,59.99880002,605cb84d3d0c0d587aa464be,64aea9d0f615b6559c281482,64becb65ae6d09a9b22a3634,right,1,0.3,0.5,7,-0.016862532,0.3504,,,,,,141,0,141,0,1,,,,,
,,957937,001,2023-07-24_21h17.55.175,arm3_eps,2022.2.5,Win32,59.99880002,605cb84d3d0c0d587aa464be,64aea9d0f615b6559c281482,64becb65ae6d09a9b22a3634,right,1,0.3,0.5,7,0.006935142,0.1865,,,,,,142,0,142,0,1,,,,,
,,957937,001,2023-07-24_21h17.55.175,arm3_eps,2022.2.5,Win32,59.99880002,605cb84d3d0c0d587aa464be,64aea9d0f615b6559c281482,64becb65ae6d09a9b22a3634,right,1,0.3,0.5,7,0.002312821,0.169,,,,,,143,0,143,0,1,,,,,
,,957937,001,2023-07-24_21h17.55.175,arm3_eps,2022.2.5,Win32,59.99880002,605cb84d3d0c0d587aa464be,64aea9d0f615b6559c281482,64becb65ae6d09a9b22a3634,right,1,0.3,0.5,7,-0.021765839,0.1445,,,,,,144,0,144,0,1,,,,,
,,957937,001,2023-07-24_21h17.55.175,arm3_eps,2022.2.5,Win32,59.99880002,605cb84d3d0c0d587aa464be,64aea9d0f615b6559c281482,64becb65ae6d09a9b22a3634,down,-1,0.3,0.5,6,0,0.1939,,,,,,145,0,145,0,1,,,,,
,,957937,001,2023-07-24_21h17.55.175,arm3_eps,2022.2.5,Win32,59.99880002,605cb84d3d0c0d587aa464be,64aea9d0f615b6559c281482,64becb65ae6d09a9b22a3634,right,-1,0.3,0.5,6,0.000770647,0.3166,,,,,,146,0,146,0,1,,,,,
,,957937,001,2023-07-24_21h17.55.175,arm3_eps,2022.2.5,Win32,59.99880002,605cb84d3d0c0d587aa464be,64aea9d0f615b6559c281482,64becb65ae6d09a9b22a3634,right,-1,0.3,0.5,6,0.001878894,0.2014,,,,,,147,0,147,0,1,,,,,
,,957937,001,2023-07-24_21h17.55.175,arm3_eps,2022.2.5,Win32,59.99880002,605cb84d3d0c0d587aa464be,64aea9d0f615b6559c281482,64becb65ae6d09a9b22a3634,right,-1,0.3,0.5,6,0.013005124,0.1514,,,,,,148,0,148,0,1,,,,,
,,957937,001,2023-07-24_21h17.55.175,arm3_eps,2022.2.5,Win32,59.99880002,605cb84d3d0c0d587aa464be,64aea9d0f615b6559c281482,64becb65ae6d09a9b22a3634,right,-1,0.3,0.5,6,0.013989334,0.12,,,,,,149,0,149,0,1,,,,,
,,957937,001,2023-07-24_21h17.55.175,arm3_eps,2022.2.5,Win32,59.99880002,605cb84d3d0c0d587aa464be,64aea9d0f615b6559c281482,64becb65ae6d09a9b22a3634,right,-1,0.3,0.5,6,0.008623158,0.17,,,,,,150,0,150,0,1,,,,,
,,957937,001,2023-07-24_21h17.55.175,arm3_eps,2022.2.5,Win32,59.99880002,605cb84d3d0c0d587aa464be,64aea9d0f615b6559c281482,64becb65ae6d09a9b22a3634,up,1,0.3,0.5,6,0,0.0663,,,,,,151,0,151,0,1,,,,,
,,957937,001,2023-07-24_21h17.55.175,arm3_eps,2022.2.5,Win32,59.99880002,605cb84d3d0c0d587aa464be,64aea9d0f615b6559c281482,64becb65ae6d09a9b22a3634,right,1,0.3,0.5,6,0.008946189,0.425,,,,,,152,0,152,0,1,,,,,
,,957937,001,2023-07-24_21h17.55.175,arm3_eps,2022.2.5,Win32,59.99880002,605cb84d3d0c0d587aa464be,64aea9d0f615b6559c281482,64becb65ae6d09a9b22a3634,right,1,0.3,0.5,6,0.0064971,0.1721,,,,,,153,0,153,0,1,,,,,
,,957937,001,2023-07-24_21h17.55.175,arm3_eps,2022.2.5,Win32,59.99880002,605cb84d3d0c0d587aa464be,64aea9d0f615b6559c281482,64becb65ae6d09a9b22a3634,right,1,0.3,0.5,6,0.028240711,0.1531,,,,,,154,0,154,0,1,,,,,
,,957937,001,2023-07-24_21h17.55.175,arm3_eps,2022.2.5,Win32,59.99880002,605cb84d3d0c0d587aa464be,64aea9d0f615b6559c281482,64becb65ae6d09a9b22a3634,right,1,0.3,0.5,6,0.020088699,0.1496,,,,,,155,0,155,0,1,,,,,
,,957937,001,2023-07-24_21h17.55.175,arm3_eps,2022.2.5,Win32,59.99880002,605cb84d3d0c0d587aa464be,64aea9d0f615b6559c281482,64becb65ae6d09a9b22a3634,down,1,0.3,0.5,6,0,0.0652,,,,,,156,0,156,0,1,,,,,
,,957937,001,2023-07-24_21h17.55.175,arm3_eps,2022.2.5,Win32,59.99880002,605cb84d3d0c0d587aa464be,64aea9d0f615b6559c281482,64becb65ae6d09a9b22a3634,right,1,0.3,0.5,6,0.008941487,0.4534,,,,,,157,0,157,0,1,,,,,
,,957937,001,2023-07-24_21h17.55.175,arm3_eps,2022.2.5,Win32,59.99880002,605cb84d3d0c0d587aa464be,64aea9d0f615b6559c281482,64becb65ae6d09a9b22a3634,right,1,0.3,0.5,6,0.02276044,0.1837,,,,,,158,0,158,0,1,,,,,
,,957937,001,2023-07-24_21h17.55.175,arm3_eps,2022.2.5,Win32,59.99880002,605cb84d3d0c0d587aa464be,64aea9d0f615b6559c281482,64becb65ae6d09a9b22a3634,right,1,0.3,0.5,6,0.006115998,0.1708,,,,,,159,0,159,0,1,,,,,
,,957937,001,2023-07-24_21h17.55.175,arm3_eps,2022.2.5,Win32,59.99880002,605cb84d3d0c0d587aa464be,64aea9d0f615b6559c281482,64becb65ae6d09a9b22a3634,up,-1,0.3,0.5,6,0,0.1009,,,,,,160,0,160,0,1,,,,,
,,957937,001,2023-07-24_21h17.55.175,arm3_eps,2022.2.5,Win32,59.99880002,605cb84d3d0c0d587aa464be,64aea9d0f615b6559c281482,64becb65ae6d09a9b22a3634,right,-1,0.3,0.5,6,-0.015014488,0.5615,,,,,,161,0,161,0,1,,,,,
,,957937,001,2023-07-24_21h17.55.175,arm3_eps,2022.2.5,Win32,59.99880002,605cb84d3d0c0d587aa464be,64aea9d0f615b6559c281482,64becb65ae6d09a9b22a3634,right,-1,0.3,0.5,6,-0.030323332,0.1497,,,,,,162,0,162,0,1,,,,,
,,957937,001,2023-07-24_21h17.55.175,arm3_eps,2022.2.5,Win32,59.99880002,605cb84d3d0c0d587aa464be,64aea9d0f615b6559c281482,64becb65ae6d09a9b22a3634,right,-1,0.3,0.5,6,-0.035283284,0.1669,,,,,,163,0,163,0,1,,,,,
,,957937,001,2023-07-24_21h17.55.175,arm3_eps,2022.2.5,Win32,59.99880002,605cb84d3d0c0d587aa464be,64aea9d0f615b6559c281482,64becb65ae6d09a9b22a3634,right,-1,0.3,0.5,6,-0.04202377,0.134,,,,,,164,0,164,0,1,,,,,
,,957937,001,2023-07-24_21h17.55.175,arm3_eps,2022.2.5,Win32,59.99880002,605cb84d3d0c0d587aa464be,64aea9d0f615b6559c281482,64becb65ae6d09a9b22a3634,up,-1,0.3,0.5,5,0,0.2333,,,,,,165,0,165,0,1,,,,,
,,957937,001,2023-07-24_21h17.55.175,arm3_eps,2022.2.5,Win32,59.99880002,605cb84d3d0c0d587aa464be,64aea9d0f615b6559c281482,64becb65ae6d09a9b22a3634,up,1,0.3,0.5,5,0,0.196,,,,,,166,0,166,0,1,,,,,
,,957937,001,2023-07-24_21h17.55.175,arm3_eps,2022.2.5,Win32,59.99880002,605cb84d3d0c0d587aa464be,64aea9d0f615b6559c281482,64becb65ae6d09a9b22a3634,right,1,0.3,0.5,5,0.004180648,0.3045,,,,,,167,0,167,0,1,,,,,
,,957937,001,2023-07-24_21h17.55.175,arm3_eps,2022.2.5,Win32,59.99880002,605cb84d3d0c0d587aa464be,64aea9d0f615b6559c281482,64becb65ae6d09a9b22a3634,right,1,0.3,0.5,5,-0.010180854,0.1663,,,,,,168,0,168,0,1,,,,,
,,957937,001,2023-07-24_21h17.55.175,arm3_eps,2022.2.5,Win32,59.99880002,605cb84d3d0c0d587aa464be,64aea9d0f615b6559c281482,64becb65ae6d09a9b22a3634,right,1,0.3,0.5,5,-0.019788878,0.1672,,,,,,169,0,169,0,1,,,,,
,,957937,001,2023-07-24_21h17.55.175,arm3_eps,2022.2.5,Win32,59.99880002,605cb84d3d0c0d587aa464be,64aea9d0f615b6559c281482,64becb65ae6d09a9b22a3634,right,1,0.3,0.5,5,0.012006743,0.1664,,,,,,170,0,170,0,1,,,,,
,,957937,001,2023-07-24_21h17.55.175,arm3_eps,2022.2.5,Win32,59.99880002,605cb84d3d0c0d587aa464be,64aea9d0f615b6559c281482,64becb65ae6d09a9b22a3634,down,-1,0.3,0.5,4,0,0.1414,,,,,,171,0,171,0,1,,,,,
,,957937,001,2023-07-24_21h17.55.175,arm3_eps,2022.2.5,Win32,59.99880002,605cb84d3d0c0d587aa464be,64aea9d0f615b6559c281482,64becb65ae6d09a9b22a3634,up,-1,0.3,0.5,4,0,0.6556,,,,,,172,0,172,0,1,,,,,
,,957937,001,2023-07-24_21h17.55.175,arm3_eps,2022.2.5,Win32,59.99880002,605cb84d3d0c0d587aa464be,64aea9d0f615b6559c281482,64becb65ae6d09a9b22a3634,up,-1,0.3,0.5,3,0,0.1791,,,,,,173,0,173,0,1,,,,,
,,957937,001,2023-07-24_21h17.55.175,arm3_eps,2022.2.5,Win32,59.99880002,605cb84d3d0c0d587aa464be,64aea9d0f615b6559c281482,64becb65ae6d09a9b22a3634,up,-1,0.3,0.5,3,0,0.2497,,,,,,174,0,174,0,1,,,,,
,,957937,001,2023-07-24_21h17.55.175,arm3_eps,2022.2.5,Win32,59.99880002,605cb84d3d0c0d587aa464be,64aea9d0f615b6559c281482,64becb65ae6d09a9b22a3634,up,-1,0.3,0.5,3,0,0.1928,,,,,,175,0,175,0,1,,,,,
,,957937,001,2023-07-24_21h17.55.175,arm3_eps,2022.2.5,Win32,59.99880002,605cb84d3d0c0d587aa464be,64aea9d0f615b6559c281482,64becb65ae6d09a9b22a3634,down,-1,0.3,0.5,3,0,0.5262,,,,,,176,0,176,0,1,,,,,
,,957937,001,2023-07-24_21h17.55.175,arm3_eps,2022.2.5,Win32,59.99880002,605cb84d3d0c0d587aa464be,64aea9d0f615b6559c281482,64becb65ae6d09a9b22a3634,down,1,0.3,0.5,4,0,0.179,,,,,,177,0,177,0,1,,,,,
,,957937,001,2023-07-24_21h17.55.175,arm3_eps,2022.2.5,Win32,59.99880002,605cb84d3d0c0d587aa464be,64aea9d0f615b6559c281482,64becb65ae6d09a9b22a3634,down,-1,0.3,0.5,4,0,0.1779,,,,,,178,0,178,0,1,,,,,
,,957937,001,2023-07-24_21h17.55.175,arm3_eps,2022.2.5,Win32,59.99880002,605cb84d3d0c0d587aa464be,64aea9d0f615b6559c281482,64becb65ae6d09a9b22a3634,right,-1,0.3,0.5,4,0.001934262,0.7221,,,,,,179,0,179,0,1,,,,,
,,957937,001,2023-07-24_21h17.55.175,arm3_eps,2022.2.5,Win32,59.99880002,605cb84d3d0c0d587aa464be,64aea9d0f615b6559c281482,64becb65ae6d09a9b22a3634,right,-1,0.3,0.5,4,-0.012311458,0.1499,,,,,,180,0,180,0,1,,,,,
,,957937,001,2023-07-24_21h17.55.175,arm3_eps,2022.2.5,Win32,59.99880002,605cb84d3d0c0d587aa464be,64aea9d0f615b6559c281482,64becb65ae6d09a9b22a3634,right,-1,0.3,0.5,4,0.001603016,0.1411,,,,,,181,0,181,0,1,,,,,
,,957937,001,2023-07-24_21h17.55.175,arm3_eps,2022.2.5,Win32,59.99880002,605cb84d3d0c0d587aa464be,64aea9d0f615b6559c281482,64becb65ae6d09a9b22a3634,up,1,0.3,0.5,4,0,0.1163,,,,,,182,0,182,0,1,,,,,
,,957937,001,2023-07-24_21h17.55.175,arm3_eps,2022.2.5,Win32,59.99880002,605cb84d3d0c0d587aa464be,64aea9d0f615b6559c281482,64becb65ae6d09a9b22a3634,right,1,0.3,0.5,4,0.034515409,0.6007,,,,,,183,0,183,0,1,,,,,
,,957937,001,2023-07-24_21h17.55.175,arm3_eps,2022.2.5,Win32,59.99880002,605cb84d3d0c0d587aa464be,64aea9d0f615b6559c281482,64becb65ae6d09a9b22a3634,right,1,0.3,0.5,4,0.042828792,0.1123,,,,,,184,0,184,0,1,,,,,
,,957937,001,2023-07-24_21h17.55.175,arm3_eps,2022.2.5,Win32,59.99880002,605cb84d3d0c0d587aa464be,64aea9d0f615b6559c281482,64becb65ae6d09a9b22a3634,right,1,0.3,0.5,4,0.052377361,0.161,,,,,,185,0,185,0,1,,,,,
,,957937,001,2023-07-24_21h17.55.175,arm3_eps,2022.2.5,Win32,59.99880002,605cb84d3d0c0d587aa464be,64aea9d0f615b6559c281482,64becb65ae6d09a9b22a3634,down,-1,0.3,0.5,4,0,0.0906,,,,,,186,0,186,0,1,,,,,
,,957937,001,2023-07-24_21h17.55.175,arm3_eps,2022.2.5,Win32,59.99880002,605cb84d3d0c0d587aa464be,64aea9d0f615b6559c281482,64becb65ae6d09a9b22a3634,right,-1,0.3,0.5,4,-0.0134072,0.5997,,,,,,187,0,187,0,1,,,,,
,,957937,001,2023-07-24_21h17.55.175,arm3_eps,2022.2.5,Win32,59.99880002,605cb84d3d0c0d587aa464be,64aea9d0f615b6559c281482,64becb65ae6d09a9b22a3634,right,-1,0.3,0.5,4,-0.039926164,0.1502,,,,,,188,0,188,0,1,,,,,
,,957937,001,2023-07-24_21h17.55.175,arm3_eps,2022.2.5,Win32,59.99880002,605cb84d3d0c0d587aa464be,64aea9d0f615b6559c281482,64becb65ae6d09a9b22a3634,right,-1,0.3,0.5,4,-0.02494351,0.1578,,,,,,189,0,189,0,1,,,,,
,,957937,001,2023-07-24_21h17.55.175,arm3_eps,2022.2.5,Win32,59.99880002,605cb84d3d0c0d587aa464be,64aea9d0f615b6559c281482,64becb65ae6d09a9b22a3634,up,-1,0.3,0.5,3,0,0.1045,,,,,,190,0,190,0,1,,,,,
,,957937,001,2023-07-24_21h17.55.175,arm3_eps,2022.2.5,Win32,59.99880002,605cb84d3d0c0d587aa464be,64aea9d0f615b6559c281482,64becb65ae6d09a9b22a3634,right,-1,0.3,0.5,3,-0.023550688,0.6594,,,,,,191,0,191,0,1,,,,,
,,957937,001,2023-07-24_21h17.55.175,arm3_eps,2022.2.5,Win32,59.99880002,605cb84d3d0c0d587aa464be,64aea9d0f615b6559c281482,64becb65ae6d09a9b22a3634,right,-1,0.3,0.5,3,-0.042376834,0.1368,,,,,,192,0,192,0,1,,,,,
,,957937,001,2023-07-24_21h17.55.175,arm3_eps,2022.2.5,Win32,59.99880002,605cb84d3d0c0d587aa464be,64aea9d0f615b6559c281482,64becb65ae6d09a9b22a3634,right,-1,0.3,0.5,3,-0.034490414,1.4342,,,,,,193,0,193,0,1,,,,,
,,957937,001,2023-07-24_21h17.55.175,arm3_eps,2022.2.5,Win32,59.99880002,605cb84d3d0c0d587aa464be,64aea9d0f615b6559c281482,64becb65ae6d09a9b22a3634,right,-1,0.3,0.5,3,-0.047959365,0.1385,,,,,,194,0,194,0,1,,,,,
,,957937,001,2023-07-24_21h17.55.175,arm3_eps,2022.2.5,Win32,59.99880002,605cb84d3d0c0d587aa464be,64aea9d0f615b6559c281482,64becb65ae6d09a9b22a3634,down,1,0.3,0.5,3,0,0.1187,,,,,,195,0,195,0,1,,,,,
,,957937,001,2023-07-24_21h17.55.175,arm3_eps,2022.2.5,Win32,59.99880002,605cb84d3d0c0d587aa464be,64aea9d0f615b6559c281482,64becb65ae6d09a9b22a3634,up,-1,0.3,0.5,4,0,0.6207,,,,,,196,0,196,0,1,,,,,
,,957937,001,2023-07-24_21h17.55.175,arm3_eps,2022.2.5,Win32,59.99880002,605cb84d3d0c0d587aa464be,64aea9d0f615b6559c281482,64becb65ae6d09a9b22a3634,up,-1,0.3,0.5,4,0,0.1672,,,,,,197,0,197,0,1,,,,,
,,957937,001,2023-07-24_21h17.55.175,arm3_eps,2022.2.5,Win32,59.99880002,605cb84d3d0c0d587aa464be,64aea9d0f615b6559c281482,64becb65ae6d09a9b22a3634,right,-1,0.3,0.5,4,-0.031036186,0.7088,,,,,,198,0,198,0,1,,,,,
,,957937,001,2023-07-24_21h17.55.175,arm3_eps,2022.2.5,Win32,59.99880002,605cb84d3d0c0d587aa464be,64aea9d0f615b6559c281482,64becb65ae6d09a9b22a3634,right,-1,0.3,0.5,4,-0.031635589,0.1604,,,,,,199,0,199,0,1,,,,,
,,957937,001,2023-07-24_21h17.55.175,arm3_eps,2022.2.5,Win32,59.99880002,605cb84d3d0c0d587aa464be,64aea9d0f615b6559c281482,64becb65ae6d09a9b22a3634,up,1,0.3,0.5,3,0,0.188,,,,,,200,0,200,0,1,,,,,
,,957937,001,2023-07-24_21h17.55.175,arm3_eps,2022.2.5,Win32,59.99880002,605cb84d3d0c0d587aa464be,64aea9d0f615b6559c281482,64becb65ae6d09a9b22a3634,right,1,0.3,0.5,3,0.02682123,0.5274,,,,,,201,0,201,0,1,,,,,
,,957937,001,2023-07-24_21h17.55.175,arm3_eps,2022.2.5,Win32,59.99880002,605cb84d3d0c0d587aa464be,64aea9d0f615b6559c281482,64becb65ae6d09a9b22a3634,right,1,0.3,0.5,3,0.037185271,0.1543,,,,,,202,0,202,0,1,,,,,
,,957937,001,2023-07-24_21h17.55.175,arm3_eps,2022.2.5,Win32,59.99880002,605cb84d3d0c0d587aa464be,64aea9d0f615b6559c281482,64becb65ae6d09a9b22a3634,down,1,0.3,0.5,3,0,0.1788,,,,,,203,0,203,0,1,,,,,
,,957937,001,2023-07-24_21h17.55.175,arm3_eps,2022.2.5,Win32,59.99880002,605cb84d3d0c0d587aa464be,64aea9d0f615b6559c281482,64becb65ae6d09a9b22a3634,down,-1,0.3,0.5,2,0,0.596,,,,,,204,0,204,0,1,,,,,
,,957937,001,2023-07-24_21h17.55.175,arm3_eps,2022.2.5,Win32,59.99880002,605cb84d3d0c0d587aa464be,64aea9d0f615b6559c281482,64becb65ae6d09a9b22a3634,up,-1,0.3,0.5,1,0,0.6173,,,,,,205,0,205,0,1,,,,,
,,957937,001,2023-07-24_21h17.55.175,arm3_eps,2022.2.5,Win32,59.99880002,605cb84d3d0c0d587aa464be,64aea9d0f615b6559c281482,64becb65ae6d09a9b22a3634,down,-1,0.3,0.5,1,0,0.5831,,,,,,206,0,206,0,1,,,,,
,,957937,001,2023-07-24_21h17.55.175,arm3_eps,2022.2.5,Win32,59.99880002,605cb84d3d0c0d587aa464be,64aea9d0f615b6559c281482,64becb65ae6d09a9b22a3634,right,-1,0.3,0.5,1,-0.034623951,0.5337,,,,,,207,0,207,0,1,,,,,
,,957937,001,2023-07-24_21h17.55.175,arm3_eps,2022.2.5,Win32,59.99880002,605cb84d3d0c0d587aa464be,64aea9d0f615b6559c281482,64becb65ae6d09a9b22a3634,right,-1,0.3,0.5,1,-0.025659443,0.1449,,,,,,208,0,208,0,1,,,,,
,,957937,001,2023-07-24_21h17.55.175,arm3_eps,2022.2.5,Win32,59.99880002,605cb84d3d0c0d587aa464be,64aea9d0f615b6559c281482,64becb65ae6d09a9b22a3634,up,-1,0.3,0.5,1,0,0.2023,,,,,,209,0,209,0,1,,,,,
,,957937,001,2023-07-24_21h17.55.175,arm3_eps,2022.2.5,Win32,59.99880002,605cb84d3d0c0d587aa464be,64aea9d0f615b6559c281482,64becb65ae6d09a9b22a3634,right,-1,0.3,0.5,1,-0.006355089,0.5851,,,,,,210,0,210,0,1,,,,,
,,957937,001,2023-07-24_21h17.55.175,arm3_eps,2022.2.5,Win32,59.99880002,605cb84d3d0c0d587aa464be,64aea9d0f615b6559c281482,64becb65ae6d09a9b22a3634,right,-1,0.3,0.5,1,-0.022857365,0.1242,,,,,,211,0,211,0,1,,,,,
,,957937,001,2023-07-24_21h17.55.175,arm3_eps,2022.2.5,Win32,59.99880002,605cb84d3d0c0d587aa464be,64aea9d0f615b6559c281482,64becb65ae6d09a9b22a3634,right,-1,0.3,0.5,1,-0.025335874,0.1667,,,,,,212,0,212,0,1,,,,,
,,957937,001,2023-07-24_21h17.55.175,arm3_eps,2022.2.5,Win32,59.99880002,605cb84d3d0c0d587aa464be,64aea9d0f615b6559c281482,64becb65ae6d09a9b22a3634,right,-1,0.3,0.5,1,-0.042530003,0.1338,,,,,,213,0,213,0,1,,,,,
,,957937,001,2023-07-24_21h17.55.175,arm3_eps,2022.2.5,Win32,59.99880002,605cb84d3d0c0d587aa464be,64aea9d0f615b6559c281482,64becb65ae6d09a9b22a3634,right,-1,0.3,0.5,1,-0.061617342,0.1171,,,,,,214,0,214,0,1,,,,,
,,957937,001,2023-07-24_21h17.55.175,arm3_eps,2022.2.5,Win32,59.99880002,605cb84d3d0c0d587aa464be,64aea9d0f615b6559c281482,64becb65ae6d09a9b22a3634,up,1,0.3,0.5,1,0,0.0663,,,,,,215,0,215,0,1,,,,,
,,957937,001,2023-07-24_21h17.55.175,arm3_eps,2022.2.5,Win32,59.99880002,605cb84d3d0c0d587aa464be,64aea9d0f615b6559c281482,64becb65ae6d09a9b22a3634,right,1,0.3,0.5,1,0.015148478,0.6163,,,,,,216,0,216,0,1,,,,,
,,957937,001,2023-07-24_21h17.55.175,arm3_eps,2022.2.5,Win32,59.99880002,605cb84d3d0c0d587aa464be,64aea9d0f615b6559c281482,64becb65ae6d09a9b22a3634,right,1,0.3,0.5,1,0.03216269,0.1518,,,,,,217,0,217,0,1,,,,,
,,957937,001,2023-07-24_21h17.55.175,arm3_eps,2022.2.5,Win32,59.99880002,605cb84d3d0c0d587aa464be,64aea9d0f615b6559c281482,64becb65ae6d09a9b22a3634,right,1,0.3,0.5,1,0.030569585,0.1546,,,,,,218,0,218,0,1,,,,,
,,957937,001,2023-07-24_21h17.55.175,arm3_eps,2022.2.5,Win32,59.99880002,605cb84d3d0c0d587aa464be,64aea9d0f615b6559c281482,64becb65ae6d09a9b22a3634,right,1,0.3,0.5,1,0.053413423,0.1331,,,,,,219,0,219,0,1,,,,,
,,957937,001,2023-07-24_21h17.55.175,arm3_eps,2022.2.5,Win32,59.99880002,605cb84d3d0c0d587aa464be,64aea9d0f615b6559c281482,64becb65ae6d09a9b22a3634,down,1,0.3,0.5,0,0,0.0545,,,,,,220,0,220,0,1,,,,,
,,957937,001,2023-07-24_21h17.55.175,arm3_eps,2022.2.5,Win32,59.99880002,605cb84d3d0c0d587aa464be,64aea9d0f615b6559c281482,64becb65ae6d09a9b22a3634,right,1,0.3,0.5,0,0.020507131,0.5502,,,,,,221,0,221,0,1,,,,,
,,957937,001,2023-07-24_21h17.55.175,arm3_eps,2022.2.5,Win32,59.99880002,605cb84d3d0c0d587aa464be,64aea9d0f615b6559c281482,64becb65ae6d09a9b22a3634,right,1,0.3,0.5,0,0.01508628,0.1263,,,,,,222,0,222,0,1,,,,,
,,957937,001,2023-07-24_21h17.55.175,arm3_eps,2022.2.5,Win32,59.99880002,605cb84d3d0c0d587aa464be,64aea9d0f615b6559c281482,64becb65ae6d09a9b22a3634,right,1,0.3,0.5,0,0.024144715,0.1624,,,,,,223,0,223,0,1,,,,,
,,957937,001,2023-07-24_21h17.55.175,arm3_eps,2022.2.5,Win32,59.99880002,605cb84d3d0c0d587aa464be,64aea9d0f615b6559c281482,64becb65ae6d09a9b22a3634,right,1,0.3,0.5,0,0.04429621,0.1451,,,,,,224,0,224,0,1,,,,,
,,957937,001,2023-07-24_21h17.55.175,arm3_eps,2022.2.5,Win32,59.99880002,605cb84d3d0c0d587aa464be,64aea9d0f615b6559c281482,64becb65ae6d09a9b22a3634,down,1,0.3,0.5,-1,0,0.0664,,,,,,225,0,225,0,1,,,,,
,,957937,001,2023-07-24_21h17.55.175,arm3_eps,2022.2.5,Win32,59.99880002,605cb84d3d0c0d587aa464be,64aea9d0f615b6559c281482,64becb65ae6d09a9b22a3634,down,-1,0.3,0.5,-1,0,0.1786,,,,,,226,0,226,0,1,,,,,
,,957937,001,2023-07-24_21h17.55.175,arm3_eps,2022.2.5,Win32,59.99880002,605cb84d3d0c0d587aa464be,64aea9d0f615b6559c281482,64becb65ae6d09a9b22a3634,right,-1,0.3,0.5,-1,-0.038173426,0.1664,,,,,,227,0,227,0,1,,,,,
,,957937,001,2023-07-24_21h17.55.175,arm3_eps,2022.2.5,Win32,59.99880002,605cb84d3d0c0d587aa464be,64aea9d0f615b6559c281482,64becb65ae6d09a9b22a3634,right,-1,0.3,0.5,-1,-0.020710229,0.1744,,,,,,228,0,228,0,1,,,,,
,,957937,001,2023-07-24_21h17.55.175,arm3_eps,2022.2.5,Win32,59.99880002,605cb84d3d0c0d587aa464be,64aea9d0f615b6559c281482,64becb65ae6d09a9b22a3634,right,-1,0.3,0.5,-1,-0.05296175,0.1904,,,,,,229,0,229,0,1,,,,,
,,957937,001,2023-07-24_21h17.55.175,arm3_eps,2022.2.5,Win32,59.99880002,605cb84d3d0c0d587aa464be,64aea9d0f615b6559c281482,64becb65ae6d09a9b22a3634,up,-1,0.3,0.5,-1,0,0.2171,,,,,,230,0,230,0,1,,,,,
,,957937,001,2023-07-24_21h17.55.175,arm3_eps,2022.2.5,Win32,59.99880002,605cb84d3d0c0d587aa464be,64aea9d0f615b6559c281482,64becb65ae6d09a9b22a3634,right,-1,0.3,0.5,-1,-0.004788524,0.1913,,,,,,231,0,231,0,1,,,,,
,,957937,001,2023-07-24_21h17.55.175,arm3_eps,2022.2.5,Win32,59.99880002,605cb84d3d0c0d587aa464be,64aea9d0f615b6559c281482,64becb65ae6d09a9b22a3634,up,1,0.3,0.5,-1,0,0.0366,,,,,,232,0,232,0,1,,,,,
,,957937,001,2023-07-24_21h17.55.175,arm3_eps,2022.2.5,Win32,59.99880002,605cb84d3d0c0d587aa464be,64aea9d0f615b6559c281482,64becb65ae6d09a9b22a3634,right,1,0.3,0.5,-1,-0.048128186,0.1851,,,,,,233,0,233,0,1,,,,,
,,957937,001,2023-07-24_21h17.55.175,arm3_eps,2022.2.5,Win32,59.99880002,605cb84d3d0c0d587aa464be,64aea9d0f615b6559c281482,64becb65ae6d09a9b22a3634,right,1,0.3,0.5,-1,-0.022994321,0.1704,,,,,,234,0,234,0,1,,,,,
,,957937,001,2023-07-24_21h17.55.175,arm3_eps,2022.2.5,Win32,59.99880002,605cb84d3d0c0d587aa464be,64aea9d0f615b6559c281482,64becb65ae6d09a9b22a3634,down,-1,0.3,0.5,-1,0,0.1329,,,,,,235,0,235,0,1,,,,,
,,957937,001,2023-07-24_21h17.55.175,arm3_eps,2022.2.5,Win32,59.99880002,605cb84d3d0c0d587aa464be,64aea9d0f615b6559c281482,64becb65ae6d09a9b22a3634,right,-1,0.3,0.5,-1,-0.017518262,0.1858,,,,,,236,0,236,0,1,,,,,
,,957937,001,2023-07-24_21h17.55.175,arm3_eps,2022.2.5,Win32,59.99880002,605cb84d3d0c0d587aa464be,64aea9d0f615b6559c281482,64becb65ae6d09a9b22a3634,down,-1,0.3,0.5,0,0,0.257,,,,,,237,0,237,0,1,,,,,
,,957937,001,2023-07-24_21h17.55.175,arm3_eps,2022.2.5,Win32,59.99880002,605cb84d3d0c0d587aa464be,64aea9d0f615b6559c281482,64becb65ae6d09a9b22a3634,right,-1,0.3,0.5,0,-0.027872411,0.1077,,,,,,238,0,238,0,1,,,,,
,,957937,001,2023-07-24_21h17.55.175,arm3_eps,2022.2.5,Win32,59.99880002,605cb84d3d0c0d587aa464be,64aea9d0f615b6559c281482,64becb65ae6d09a9b22a3634,right,-1,0.3,0.5,0,-0.071206032,0.2543,,,,,,239,0,239,0,1,,,,,
,,957937,001,2023-07-24_21h17.55.175,arm3_eps,2022.2.5,Win32,59.99880002,605cb84d3d0c0d587aa464be,64aea9d0f615b6559c281482,64becb65ae6d09a9b22a3634,right,-1,0.3,0.5,0,-0.075635436,0.211,,,,,,240,0,240,0,1,,,,,
,,957937,001,2023-07-24_21h17.55.175,arm3_eps,2022.2.5,Win32,59.99880002,605cb84d3d0c0d587aa464be,64aea9d0f615b6559c281482,64becb65ae6d09a9b22a3634,right,-1,0.3,0.5,0,-0.029628973,0.1663,,,,,,241,0,241,0,1,,,,,
,,957937,001,2023-07-24_21h17.55.175,arm3_eps,2022.2.5,Win32,59.99880002,605cb84d3d0c0d587aa464be,64aea9d0f615b6559c281482,64becb65ae6d09a9b22a3634,up,-1,0.3,0.5,0,0,0.0196,,,,,,242,0,242,0,1,,,,,
,,957937,001,2023-07-24_21h17.55.175,arm3_eps,2022.2.5,Win32,59.99880002,605cb84d3d0c0d587aa464be,64aea9d0f615b6559c281482,64becb65ae6d09a9b22a3634,up,1,0.3,0.5,0,0,0.1755,,,,,,243,0,243,0,1,,,,,
,,957937,001,2023-07-24_21h17.55.175,arm3_eps,2022.2.5,Win32,59.99880002,605cb84d3d0c0d587aa464be,64aea9d0f615b6559c281482,64becb65ae6d09a9b22a3634,right,1,0.3,0.5,0,-0.015295497,0.1831,,,,,,244,0,244,0,1,,,,,
,,957937,001,2023-07-24_21h17.55.175,arm3_eps,2022.2.5,Win32,59.99880002,605cb84d3d0c0d587aa464be,64aea9d0f615b6559c281482,64becb65ae6d09a9b22a3634,right,1,0.3,0.5,0,-0.028925791,0.1699,,,,,,245,0,245,0,1,,,,,
,,957937,001,2023-07-24_21h17.55.175,arm3_eps,2022.2.5,Win32,59.99880002,605cb84d3d0c0d587aa464be,64aea9d0f615b6559c281482,64becb65ae6d09a9b22a3634,right,1,0.3,0.5,0,-0.026217965,0.1497,,,,,,246,0,246,0,1,,,,,
,,957937,001,2023-07-24_21h17.55.175,arm3_eps,2022.2.5,Win32,59.99880002,605cb84d3d0c0d587aa464be,64aea9d0f615b6559c281482,64becb65ae6d09a9b22a3634,right,1,0.3,0.5,0,-0.00237773,0.2163,,,,,,247,0,247,0,1,,,,,
,,957937,001,2023-07-24_21h17.55.175,arm3_eps,2022.2.5,Win32,59.99880002,605cb84d3d0c0d587aa464be,64aea9d0f615b6559c281482,64becb65ae6d09a9b22a3634,up,1,0.3,0.5,0,0,0.0829,,,,,,248,0,248,0,1,,,,,
,,957937,001,2023-07-24_21h17.55.175,arm3_eps,2022.2.5,Win32,59.99880002,605cb84d3d0c0d587aa464be,64aea9d0f615b6559c281482,64becb65ae6d09a9b22a3634,right,1,0.3,0.5,0,0.006655462,0.2125,,,,,,249,0,249,0,1,,,,,
,,957937,001,2023-07-24_21h17.55.175,arm3_eps,2022.2.5,Win32,59.99880002,605cb84d3d0c0d587aa464be,64aea9d0f615b6559c281482,64becb65ae6d09a9b22a3634,down,-1,0.3,0.5,-1,0,0.5158,,,,,,250,0,250,0,1,,,,,
,,957937,001,2023-07-24_21h17.55.175,arm3_eps,2022.2.5,Win32,59.99880002,605cb84d3d0c0d587aa464be,64aea9d0f615b6559c281482,64becb65ae6d09a9b22a3634,down,1,0.3,0.5,-1,0,0.1523,,,,,,251,0,251,0,1,,,,,
,,957937,001,2023-07-24_21h17.55.175,arm3_eps,2022.2.5,Win32,59.99880002,605cb84d3d0c0d587aa464be,64aea9d0f615b6559c281482,64becb65ae6d09a9b22a3634,right,1,0.3,0.5,-1,-0.001292475,0.0004,,,,,,252,0,252,0,1,,,,,
,,957937,001,2023-07-24_21h17.55.175,arm3_eps,2022.2.5,Win32,59.99880002,605cb84d3d0c0d587aa464be,64aea9d0f615b6559c281482,64becb65ae6d09a9b22a3634,right,1,0.3,0.5,-1,0.002758625,0.29,,,,,,253,0,253,0,1,,,,,
,,957937,001,2023-07-24_21h17.55.175,arm3_eps,2022.2.5,Win32,59.99880002,605cb84d3d0c0d587aa464be,64aea9d0f615b6559c281482,64becb65ae6d09a9b22a3634,right,1,0.3,0.5,-1,-0.000564569,0.1831,,,,,,254,0,254,0,1,,,,,
,,957937,001,2023-07-24_21h17.55.175,arm3_eps,2022.2.5,Win32,59.99880002,605cb84d3d0c0d587aa464be,64aea9d0f615b6559c281482,64becb65ae6d09a9b22a3634,up,-1,0.3,0.5,0,0,0.1009,,,,,,255,0,255,0,1,,,,,
,,957937,001,2023-07-24_21h17.55.175,arm3_eps,2022.2.5,Win32,59.99880002,605cb84d3d0c0d587aa464be,64aea9d0f615b6559c281482,64becb65ae6d09a9b22a3634,right,-1,0.3,0.5,0,0.027401788,0.1536,,,,,,256,0,256,0,1,,,,,
,,957937,001,2023-07-24_21h17.55.175,arm3_eps,2022.2.5,Win32,59.99880002,605cb84d3d0c0d587aa464be,64aea9d0f615b6559c281482,64becb65ae6d09a9b22a3634,up,-1,0.3,0.5,0,0,0.0192,,,,,,257,0,257,0,1,,,,,
,,957937,001,2023-07-24_21h17.55.175,arm3_eps,2022.2.5,Win32,59.99880002,605cb84d3d0c0d587aa464be,64aea9d0f615b6559c281482,64becb65ae6d09a9b22a3634,right,-1,0.3,0.5,0,-0.005190321,0.1563,,,,,,258,0,258,0,1,,,,,
,,957937,001,2023-07-24_21h17.55.175,arm3_eps,2022.2.5,Win32,59.99880002,605cb84d3d0c0d587aa464be,64aea9d0f615b6559c281482,64becb65ae6d09a9b22a3634,down,-1,0.3,0.5,1,0,0.0529,,,,,,259,0,259,0,1,,,,,
,,957937,001,2023-07-24_21h17.55.175,arm3_eps,2022.2.5,Win32,59.99880002,605cb84d3d0c0d587aa464be,64aea9d0f615b6559c281482,64becb65ae6d09a9b22a3634,right,-1,0.3,0.5,1,-0.01503282,0.1624,,,,,,260,0,260,0,1,,,,,
,,957937,001,2023-07-24_21h17.55.175,arm3_eps,2022.2.5,Win32,59.99880002,605cb84d3d0c0d587aa464be,64aea9d0f615b6559c281482,64becb65ae6d09a9b22a3634,right,-1,0.3,0.5,1,-0.010954114,0.2167,,,,,,261,0,261,0,1,,,,,
,,957937,001,2023-07-24_21h17.55.175,arm3_eps,2022.2.5,Win32,59.99880002,605cb84d3d0c0d587aa464be,64aea9d0f615b6559c281482,64becb65ae6d09a9b22a3634,up,1,0.3,0.5,1,0,0.0598,,,,,,262,0,262,0,1,,,,,
,,957937,001,2023-07-24_21h17.55.175,arm3_eps,2022.2.5,Win32,59.99880002,605cb84d3d0c0d587aa464be,64aea9d0f615b6559c281482,64becb65ae6d09a9b22a3634,right,1,0.3,0.5,1,0.036064699,0.1545,,,,,,263,0,263,0,1,,,,,
,,957937,001,2023-07-24_21h17.55.175,arm3_eps,2022.2.5,Win32,59.99880002,605cb84d3d0c0d587aa464be,64aea9d0f615b6559c281482,64becb65ae6d09a9b22a3634,up,-1,0.3,0.5,1,0,0.1461,,,,,,264,0,264,0,1,,,,,
,,957937,001,2023-07-24_21h17.55.175,arm3_eps,2022.2.5,Win32,59.99880002,605cb84d3d0c0d587aa464be,64aea9d0f615b6559c281482,64becb65ae6d09a9b22a3634,right,-1,0.3,0.5,1,0.020111014,0.1347,,,,,,265,0,265,0,1,,,,,
,,957937,001,2023-07-24_21h17.55.175,arm3_eps,2022.2.5,Win32,59.99880002,605cb84d3d0c0d587aa464be,64aea9d0f615b6559c281482,64becb65ae6d09a9b22a3634,up,1,0.3,0.5,1,0,0.017,,,,,,266,0,266,0,1,,,,,
,,957937,001,2023-07-24_21h17.55.175,arm3_eps,2022.2.5,Win32,59.99880002,605cb84d3d0c0d587aa464be,64aea9d0f615b6559c281482,64becb65ae6d09a9b22a3634,right,1,0.3,0.5,1,0.00497491,0.1664,,,,,,267,0,267,0,1,,,,,
,,957937,001,2023-07-24_21h17.55.175,arm3_eps,2022.2.5,Win32,59.99880002,605cb84d3d0c0d587aa464be,64aea9d0f615b6559c281482,64becb65ae6d09a9b22a3634,right,1,0.3,0.5,1,-0.01687422,0.233,,,,,,268,0,268,0,1,,,,,
,,957937,001,2023-07-24_21h17.55.175,arm3_eps,2022.2.5,Win32,59.99880002,605cb84d3d0c0d587aa464be,64aea9d0f615b6559c281482,64becb65ae6d09a9b22a3634,right,1,0.3,0.5,1,-0.026518488,0.3848,,,,,,269,0,269,0,1,,,,,
,,957937,001,2023-07-24_21h17.55.175,arm3_eps,2022.2.5,Win32,59.99880002,605cb84d3d0c0d587aa464be,64aea9d0f615b6559c281482,64becb65ae6d09a9b22a3634,right,1,0.3,0.5,1,-0.032289579,0.1581,,,,,,270,0,270,0,1,,,,,
,,957937,001,2023-07-24_21h17.55.175,arm3_eps,2022.2.5,Win32,59.99880002,605cb84d3d0c0d587aa464be,64aea9d0f615b6559c281482,64becb65ae6d09a9b22a3634,up,1,0.3,0.5,1,0,0.0699,,,,,,271,0,271,0,1,,,,,
,,957937,001,2023-07-24_21h17.55.175,arm3_eps,2022.2.5,Win32,59.99880002,605cb84d3d0c0d587aa464be,64aea9d0f615b6559c281482,64becb65ae6d09a9b22a3634,right,1,0.3,0.5,1,-0.00995829,0.2059,,,,,,272,0,272,0,1,,,,,
,,957937,001,2023-07-24_21h17.55.175,arm3_eps,2022.2.5,Win32,59.99880002,605cb84d3d0c0d587aa464be,64aea9d0f615b6559c281482,64becb65ae6d09a9b22a3634,right,1,0.3,0.5,1,0.000547907,0.1944,,,,,,273,0,273,0,1,,,,,
,,957937,001,2023-07-24_21h17.55.175,arm3_eps,2022.2.5,Win32,59.99880002,605cb84d3d0c0d587aa464be,64aea9d0f615b6559c281482,64becb65ae6d09a9b22a3634,right,1,0.3,0.5,1,0.011994,0.1663,,,,,,274,0,274,0,1,,,,,
,,957937,001,2023-07-24_21h17.55.175,arm3_eps,2022.2.5,Win32,59.99880002,605cb84d3d0c0d587aa464be,64aea9d0f615b6559c281482,64becb65ae6d09a9b22a3634,right,1,0.3,0.5,1,0.010158827,0.1618,,,,,,275,0,275,0,1,,,,,
,,957937,001,2023-07-24_21h17.55.175,arm3_eps,2022.2.5,Win32,59.99880002,605cb84d3d0c0d587aa464be,64aea9d0f615b6559c281482,64becb65ae6d09a9b22a3634,up,-1,0.3,0.5,1,0,0.0113,,,,,,276,0,276,0,1,,,,,
,,957937,001,2023-07-24_21h17.55.175,arm3_eps,2022.2.5,Win32,59.99880002,605cb84d3d0c0d587aa464be,64aea9d0f615b6559c281482,64becb65ae6d09a9b22a3634,right,-1,0.3,0.5,1,-0.016375632,0.133,,,,,,277,0,277,0,1,,,,,
,,957937,001,2023-07-24_21h17.55.175,arm3_eps,2022.2.5,Win32,59.99880002,605cb84d3d0c0d587aa464be,64aea9d0f615b6559c281482,64becb65ae6d09a9b22a3634,up,-1,0.3,0.5,0,0,0.0831,,,,,,278,0,278,0,1,,,,,
,,957937,001,2023-07-24_21h17.55.175,arm3_eps,2022.2.5,Win32,59.99880002,605cb84d3d0c0d587aa464be,64aea9d0f615b6559c281482,64becb65ae6d09a9b22a3634,right,-1,0.3,0.5,0,-0.009024501,0.0938,,,,,,279,0,279,0,1,,,,,
,,957937,001,2023-07-24_21h17.55.175,arm3_eps,2022.2.5,Win32,59.99880002,605cb84d3d0c0d587aa464be,64aea9d0f615b6559c281482,64becb65ae6d09a9b22a3634,right,-1,0.3,0.5,0,-0.034361667,0.136,,,,,,280,0,280,0,1,,,,,
,,957937,001,2023-07-24_21h17.55.175,arm3_eps,2022.2.5,Win32,59.99880002,605cb84d3d0c0d587aa464be,64aea9d0f615b6559c281482,64becb65ae6d09a9b22a3634,down,1,0.3,0.5,0,0,0.0502,,,,,,281,0,281,0,1,,,,,
,,957937,001,2023-07-24_21h17.55.175,arm3_eps,2022.2.5,Win32,59.99880002,605cb84d3d0c0d587aa464be,64aea9d0f615b6559c281482,64becb65ae6d09a9b22a3634,right,1,0.3,0.5,0,0.036110162,0.3057,,,,,,282,0,282,0,1,,,,,
,,957937,001,2023-07-24_21h17.55.175,arm3_eps,2022.2.5,Win32,59.99880002,605cb84d3d0c0d587aa464be,64aea9d0f615b6559c281482,64becb65ae6d09a9b22a3634,right,1,0.3,0.5,0,0.044855672,0.1695,,,,,,283,0,283,0,1,,,,,
,,957937,001,2023-07-24_21h17.55.175,arm3_eps,2022.2.5,Win32,59.99880002,605cb84d3d0c0d587aa464be,64aea9d0f615b6559c281482,64becb65ae6d09a9b22a3634,right,1,0.3,0.5,0,0.0462933,0.2024,,,,,,284,0,284,0,1,,,,,
,,957937,001,2023-07-24_21h17.55.175,arm3_eps,2022.2.5,Win32,59.99880002,605cb84d3d0c0d587aa464be,64aea9d0f615b6559c281482,64becb65ae6d09a9b22a3634,right,1,0.3,0.5,0,0.06697109,0.1991,,,,,,285,0,285,0,1,,,,,
,,957937,001,2023-07-24_21h17.55.175,arm3_eps,2022.2.5,Win32,59.99880002,605cb84d3d0c0d587aa464be,64aea9d0f615b6559c281482,64becb65ae6d09a9b22a3634,up,-1,0.3,0.5,0,0,0.0207,,,,,,286,0,286,0,1,,,,,
,,957937,001,2023-07-24_21h17.55.175,arm3_eps,2022.2.5,Win32,59.99880002,605cb84d3d0c0d587aa464be,64aea9d0f615b6559c281482,64becb65ae6d09a9b22a3634,right,-1,0.3,0.5,0,0.003161692,0.1347,,,,,,287,0,287,0,1,,,,,
,,957937,001,2023-07-24_21h17.55.175,arm3_eps,2022.2.5,Win32,59.99880002,605cb84d3d0c0d587aa464be,64aea9d0f615b6559c281482,64becb65ae6d09a9b22a3634,up,1,0.3,0.5,0,0,0.0421,,,,,,288,0,288,0,1,,,,,
,,957937,001,2023-07-24_21h17.55.175,arm3_eps,2022.2.5,Win32,59.99880002,605cb84d3d0c0d587aa464be,64aea9d0f615b6559c281482,64becb65ae6d09a9b22a3634,right,1,0.3,0.5,0,-0.003398038,0.1905,,,,,,289,0,289,0,1,,,,,
,,957937,001,2023-07-24_21h17.55.175,arm3_eps,2022.2.5,Win32,59.99880002,605cb84d3d0c0d587aa464be,64aea9d0f615b6559c281482,64becb65ae6d09a9b22a3634,right,1,0.3,0.5,0,-0.00918198,0.1908,,,,,,290,0,290,0,1,,,,,
,,957937,001,2023-07-24_21h17.55.175,arm3_eps,2022.2.5,Win32,59.99880002,605cb84d3d0c0d587aa464be,64aea9d0f615b6559c281482,64becb65ae6d09a9b22a3634,right,1,0.3,0.5,0,0.028296537,0.1996,,,,,,291,0,291,0,1,,,,,
,,957937,001,2023-07-24_21h17.55.175,arm3_eps,2022.2.5,Win32,59.99880002,605cb84d3d0c0d587aa464be,64aea9d0f615b6559c281482,64becb65ae6d09a9b22a3634,right,1,0.3,0.5,0,0.075766156,0.1997,,,,,,292,0,292,0,1,,,,,
,,957937,001,2023-07-24_21h17.55.175,arm3_eps,2022.2.5,Win32,59.99880002,605cb84d3d0c0d587aa464be,64aea9d0f615b6559c281482,64becb65ae6d09a9b22a3634,down,1,0.3,0.5,0,0,0.0553,,,,,,293,0,293,0,1,,,,,
,,957937,001,2023-07-24_21h17.55.175,arm3_eps,2022.2.5,Win32,59.99880002,605cb84d3d0c0d587aa464be,64aea9d0f615b6559c281482,64becb65ae6d09a9b22a3634,right,1,0.3,0.5,0,0.019823958,1.0164,,,,,,294,0,294,0,1,,,,,
,,957937,001,2023-07-24_21h17.55.175,arm3_eps,2022.2.5,Win32,59.99880002,605cb84d3d0c0d587aa464be,64aea9d0f615b6559c281482,64becb65ae6d09a9b22a3634,up,-1,0.3,0.5,0,0,0.0339,,,,,,295,0,295,0,1,,,,,
,,957937,001,2023-07-24_21h17.55.175,arm3_eps,2022.2.5,Win32,59.99880002,605cb84d3d0c0d587aa464be,64aea9d0f615b6559c281482,64becb65ae6d09a9b22a3634,right,-1,0.3,0.5,0,0.03449563,0.1873,,,,,,296,0,296,0,1,,,,,
,,957937,001,2023-07-24_21h17.55.175,arm3_eps,2022.2.5,Win32,59.99880002,605cb84d3d0c0d587aa464be,64aea9d0f615b6559c281482,64becb65ae6d09a9b22a3634,down,1,0.3,0.5,1,0,0.0169,,,,,,297,0,297,0,1,,,,,
,,957937,001,2023-07-24_21h17.55.175,arm3_eps,2022.2.5,Win32,59.99880002,605cb84d3d0c0d587aa464be,64aea9d0f615b6559c281482,64becb65ae6d09a9b22a3634,right,1,0.3,0.5,1,-0.025375842,0.2282,,,,,,298,0,298,0,1,,,,,
,,957937,001,2023-07-24_21h17.55.175,arm3_eps,2022.2.5,Win32,59.99880002,605cb84d3d0c0d587aa464be,64aea9d0f615b6559c281482,64becb65ae6d09a9b22a3634,right,1,0.3,0.5,1,0.014565352,0.2204,,,,,,299,0,299,0,1,,,,,
,,957937,001,2023-07-24_21h17.55.175,arm3_eps,2022.2.5,Win32,59.99880002,605cb84d3d0c0d587aa464be,64aea9d0f615b6559c281482,64becb65ae6d09a9b22a3634,right,1,0.3,0.5,1,0.002265641,0.1874,,,,,,300,0,300,0,1,,,,,
,,957937,001,2023-07-24_21h17.55.175,arm3_eps,2022.2.5,Win32,59.99880002,605cb84d3d0c0d587aa464be,64aea9d0f615b6559c281482,64becb65ae6d09a9b22a3634,right,1,0.3,0.5,1,-0.009083227,0.1544,,,,,,301,0,301,0,1,,,,,
,,957937,001,2023-07-24_21h17.55.175,arm3_eps,2022.2.5,Win32,59.99880002,605cb84d3d0c0d587aa464be,64aea9d0f615b6559c281482,64becb65ae6d09a9b22a3634,up,-1,0.3,0.5,1,0,0.0423,,,,,,302,0,302,0,1,,,,,
,,957937,001,2023-07-24_21h17.55.175,arm3_eps,2022.2.5,Win32,59.99880002,605cb84d3d0c0d587aa464be,64aea9d0f615b6559c281482,64becb65ae6d09a9b22a3634,right,-1,0.3,0.5,1,-0.009859741,0.4174,,,,,,303,0,303,0,1,,,,,
,,957937,001,2023-07-24_21h17.55.175,arm3_eps,2022.2.5,Win32,59.99880002,605cb84d3d0c0d587aa464be,64aea9d0f615b6559c281482,64becb65ae6d09a9b22a3634,right,-1,0.3,0.5,1,0.006306532,0.1567,,,,,,304,0,304,0,1,,,,,
,,957937,001,2023-07-24_21h17.55.175,arm3_eps,2022.2.5,Win32,59.99880002,605cb84d3d0c0d587aa464be,64aea9d0f615b6559c281482,64becb65ae6d09a9b22a3634,right,-1,0.3,0.5,1,-0.011832565,0.1669,,,,,,305,0,305,0,1,,,,,
,,957937,001,2023-07-24_21h17.55.175,arm3_eps,2022.2.5,Win32,59.99880002,605cb84d3d0c0d587aa464be,64aea9d0f615b6559c281482,64becb65ae6d09a9b22a3634,right,-1,0.3,0.5,1,-0.012935372,0.1868,,,,,,306,0,306,0,1,,,,,
,,957937,001,2023-07-24_21h17.55.175,arm3_eps,2022.2.5,Win32,59.99880002,605cb84d3d0c0d587aa464be,64aea9d0f615b6559c281482,64becb65ae6d09a9b22a3634,up,1,0.3,0.5,1,0,0.0241,,,,,,307,0,307,0,1,,,,,
,,957937,001,2023-07-24_21h17.55.175,arm3_eps,2022.2.5,Win32,59.99880002,605cb84d3d0c0d587aa464be,64aea9d0f615b6559c281482,64becb65ae6d09a9b22a3634,right,1,0.3,0.5,1,-0.006703577,0.4501,,,,,,308,0,308,0,1,,,,,
,,957937,001,2023-07-24_21h17.55.175,arm3_eps,2022.2.5,Win32,59.99880002,605cb84d3d0c0d587aa464be,64aea9d0f615b6559c281482,64becb65ae6d09a9b22a3634,right,1,0.3,0.5,1,0.008282167,0.1664,,,,,,309,0,309,0,1,,,,,
,,957937,001,2023-07-24_21h17.55.175,arm3_eps,2022.2.5,Win32,59.99880002,605cb84d3d0c0d587aa464be,64aea9d0f615b6559c281482,64becb65ae6d09a9b22a3634,up,-1,0.3,0.5,1,0,0.0707,,,,,,310,0,310,0,1,,,,,
,,957937,001,2023-07-24_21h17.55.175,arm3_eps,2022.2.5,Win32,59.99880002,605cb84d3d0c0d587aa464be,64aea9d0f615b6559c281482,64becb65ae6d09a9b22a3634,right,-1,0.3,0.5,1,-0.030241813,0.1518,,,,,,311,0,311,0,1,,,,,
,,957937,001,2023-07-24_21h17.55.175,arm3_eps,2022.2.5,Win32,59.99880002,605cb84d3d0c0d587aa464be,64aea9d0f615b6559c281482,64becb65ae6d09a9b22a3634,right,-1,0.3,0.5,1,-0.052487217,0.1955,,,,,,312,0,312,0,1,,,,,
,,957937,001,2023-07-24_21h17.55.175,arm3_eps,2022.2.5,Win32,59.99880002,605cb84d3d0c0d587aa464be,64aea9d0f615b6559c281482,64becb65ae6d09a9b22a3634,right,-1,0.3,0.5,1,-0.057149168,0.2028,,,,,,313,0,313,0,1,,,,,
,,957937,001,2023-07-24_21h17.55.175,arm3_eps,2022.2.5,Win32,59.99880002,605cb84d3d0c0d587aa464be,64aea9d0f615b6559c281482,64becb65ae6d09a9b22a3634,right,-1,0.3,0.5,1,-0.050516527,0.2664,,,,,,314,0,314,0,1,,,,,
,,957937,001,2023-07-24_21h17.55.175,arm3_eps,2022.2.5,Win32,59.99880002,605cb84d3d0c0d587aa464be,64aea9d0f615b6559c281482,64becb65ae6d09a9b22a3634,up,1,0.3,0.5,1,0,0.0002,,,,,,315,0,315,0,1,,,,,
,,957937,001,2023-07-24_21h17.55.175,arm3_eps,2022.2.5,Win32,59.99880002,605cb84d3d0c0d587aa464be,64aea9d0f615b6559c281482,64becb65ae6d09a9b22a3634,right,1,0.3,0.5,1,-0.017765952,20.8588,,,,,,316,0,316,0,1,,,,,
,,957937,001,2023-07-24_21h17.55.175,arm3_eps,2022.2.5,Win32,59.99880002,605cb84d3d0c0d587aa464be,64aea9d0f615b6559c281482,64becb65ae6d09a9b22a3634,right,1,0.3,0.5,1,-0.041785046,0.2021,,,,,,317,0,317,0,1,,,,,
,,957937,001,2023-07-24_21h17.55.175,arm3_eps,2022.2.5,Win32,59.99880002,605cb84d3d0c0d587aa464be,64aea9d0f615b6559c281482,64becb65ae6d09a9b22a3634,up,-1,0.3,0.5,1,0,0.1169,,,,,,318,0,318,0,1,,,,,
,,957937,001,2023-07-24_21h17.55.175,arm3_eps,2022.2.5,Win32,59.99880002,605cb84d3d0c0d587aa464be,64aea9d0f615b6559c281482,64becb65ae6d09a9b22a3634,right,-1,0.3,0.5,1,-0.011238099,0.3503,,,,,,319,0,319,0,1,,,,,
,,957937,001,2023-07-24_21h17.55.175,arm3_eps,2022.2.5,Win32,59.99880002,605cb84d3d0c0d587aa464be,64aea9d0f615b6559c281482,64becb65ae6d09a9b22a3634,right,-1,0.3,0.5,1,-0.045527515,0.1385,,,,,,320,0,320,0,1,,,,,
,,957937,001,2023-07-24_21h17.55.175,arm3_eps,2022.2.5,Win32,59.99880002,605cb84d3d0c0d587aa464be,64aea9d0f615b6559c281482,64becb65ae6d09a9b22a3634,right,-1,0.3,0.5,1,-0.055315211,0.1502,,,,,,321,0,321,0,1,,,,,
,,957937,001,2023-07-24_21h17.55.175,arm3_eps,2022.2.5,Win32,59.99880002,605cb84d3d0c0d587aa464be,64aea9d0f615b6559c281482,64becb65ae6d09a9b22a3634,right,-1,0.3,0.5,1,-0.056300056,0.1451,,,,,,322,0,322,0,1,,,,,
,,957937,001,2023-07-24_21h17.55.175,arm3_eps,2022.2.5,Win32,59.99880002,605cb84d3d0c0d587aa464be,64aea9d0f615b6559c281482,64becb65ae6d09a9b22a3634,up,-1,0.3,0.5,0,0,0.1254,,,,,,323,0,323,0,1,,,,,
,,957937,001,2023-07-24_21h17.55.175,arm3_eps,2022.2.5,Win32,59.99880002,605cb84d3d0c0d587aa464be,64aea9d0f615b6559c281482,64becb65ae6d09a9b22a3634,right,-1,0.3,0.5,0,-0.007920936,0.3514,,,,,,324,0,324,0,1,,,,,
,,957937,001,2023-07-24_21h17.55.175,arm3_eps,2022.2.5,Win32,59.99880002,605cb84d3d0c0d587aa464be,64aea9d0f615b6559c281482,64becb65ae6d09a9b22a3634,right,-1,0.3,0.5,0,-0.040779645,0.15,,,,,,325,0,325,0,1,,,,,
,,957937,001,2023-07-24_21h17.55.175,arm3_eps,2022.2.5,Win32,59.99880002,605cb84d3d0c0d587aa464be,64aea9d0f615b6559c281482,64becb65ae6d09a9b22a3634,down,-1,0.3,0.5,0,0,0.1001,,,,,,326,0,326,0,1,,,,,
,,957937,001,2023-07-24_21h17.55.175,arm3_eps,2022.2.5,Win32,59.99880002,605cb84d3d0c0d587aa464be,64aea9d0f615b6559c281482,64becb65ae6d09a9b22a3634,right,-1,0.3,0.5,0,-0.018045188,0.1668,,,,,,327,0,327,0,1,,,,,
,,957937,001,2023-07-24_21h17.55.175,arm3_eps,2022.2.5,Win32,59.99880002,605cb84d3d0c0d587aa464be,64aea9d0f615b6559c281482,64becb65ae6d09a9b22a3634,down,1,0.3,0.5,0,0,0.0005,,,,,,328,0,328,0,1,,,,,
,,957937,001,2023-07-24_21h17.55.175,arm3_eps,2022.2.5,Win32,59.99880002,605cb84d3d0c0d587aa464be,64aea9d0f615b6559c281482,64becb65ae6d09a9b22a3634,right,1,0.3,0.5,0,0.01447619,0.2577,,,,,,329,0,329,0,1,,,,,
,,957937,001,2023-07-24_21h17.55.175,arm3_eps,2022.2.5,Win32,59.99880002,605cb84d3d0c0d587aa464be,64aea9d0f615b6559c281482,64becb65ae6d09a9b22a3634,right,1,0.3,0.5,0,0.039389806,0.167,,,,,,330,0,330,0,1,,,,,
,,957937,001,2023-07-24_21h17.55.175,arm3_eps,2022.2.5,Win32,59.99880002,605cb84d3d0c0d587aa464be,64aea9d0f615b6559c281482,64becb65ae6d09a9b22a3634,right,1,0.3,0.5,0,0.067671706,0.1668,,,,,,331,0,331,0,1,,,,,
,,957937,001,2023-07-24_21h17.55.175,arm3_eps,2022.2.5,Win32,59.99880002,605cb84d3d0c0d587aa464be,64aea9d0f615b6559c281482,64becb65ae6d09a9b22a3634,right,1,0.3,0.5,0,0.061379122,0.1678,,,,,,332,0,332,0,1,,,,,
,,957937,001,2023-07-24_21h17.55.175,arm3_eps,2022.2.5,Win32,59.99880002,605cb84d3d0c0d587aa464be,64aea9d0f615b6559c281482,64becb65ae6d09a9b22a3634,right,1,0.3,0.5,0,0.079248077,0.1368,,,,,,333,0,333,0,1,,,,,
,,957937,001,2023-07-24_21h17.55.175,arm3_eps,2022.2.5,Win32,59.99880002,605cb84d3d0c0d587aa464be,64aea9d0f615b6559c281482,64becb65ae6d09a9b22a3634,up,1,0.3,0.5,0,0,0.0003,,,,,,334,0,334,0,1,,,,,
,,957937,001,2023-07-24_21h17.55.175,arm3_eps,2022.2.5,Win32,59.99880002,605cb84d3d0c0d587aa464be,64aea9d0f615b6559c281482,64becb65ae6d09a9b22a3634,right,1,0.3,0.5,0,-0.01433146,0.4562,,,,,,335,0,335,0,1,,,,,
,,957937,001,2023-07-24_21h17.55.175,arm3_eps,2022.2.5,Win32,59.99880002,605cb84d3d0c0d587aa464be,64aea9d0f615b6559c281482,64becb65ae6d09a9b22a3634,right,1,0.3,0.5,0,-0.022816902,0.1508,,,,,,336,0,336,0,1,,,,,
,,957937,001,2023-07-24_21h17.55.175,arm3_eps,2022.2.5,Win32,59.99880002,605cb84d3d0c0d587aa464be,64aea9d0f615b6559c281482,64becb65ae6d09a9b22a3634,right,1,0.3,0.5,0,-0.003730286,0.1685,,,,,,337,0,337,0,1,,,,,
,,957937,001,2023-07-24_21h17.55.175,arm3_eps,2022.2.5,Win32,59.99880002,605cb84d3d0c0d587aa464be,64aea9d0f615b6559c281482,64becb65ae6d09a9b22a3634,right,1,0.3,0.5,0,-0.031399283,0.1606,,,,,,338,0,338,0,1,,,,,
,,957937,001,2023-07-24_21h17.55.175,arm3_eps,2022.2.5,Win32,59.99880002,605cb84d3d0c0d587aa464be,64aea9d0f615b6559c281482,64becb65ae6d09a9b22a3634,right,1,0.3,0.5,0,0.034156713,0.1497,,,,,,339,0,339,0,1,,,,,
,,957937,001,2023-07-24_21h17.55.175,arm3_eps,2022.2.5,Win32,59.99880002,605cb84d3d0c0d587aa464be,64aea9d0f615b6559c281482,64becb65ae6d09a9b22a3634,up,-1,0.3,0.5,1,0,0.1702,,,,,,340,0,340,0,1,,,,,
,,957937,001,2023-07-24_21h17.55.175,arm3_eps,2022.2.5,Win32,59.99880002,605cb84d3d0c0d587aa464be,64aea9d0f615b6559c281482,64becb65ae6d09a9b22a3634,right,-1,0.3,0.5,1,-0.047031715,0.4005,,,,,,341,0,341,0,1,,,,,
,,957937,001,2023-07-24_21h17.55.175,arm3_eps,2022.2.5,Win32,59.99880002,605cb84d3d0c0d587aa464be,64aea9d0f615b6559c281482,64becb65ae6d09a9b22a3634,right,-1,0.3,0.5,1,-0.056798728,0.1834,,,,,,342,0,342,0,1,,,,,
,,957937,001,2023-07-24_21h17.55.175,arm3_eps,2022.2.5,Win32,59.99880002,605cb84d3d0c0d587aa464be,64aea9d0f615b6559c281482,64becb65ae6d09a9b22a3634,right,-1,0.3,0.5,1,-0.041392728,0.1576,,,,,,343,0,343,0,1,,,,,
,,957937,001,2023-07-24_21h17.55.175,arm3_eps,2022.2.5,Win32,59.99880002,605cb84d3d0c0d587aa464be,64aea9d0f615b6559c281482,64becb65ae6d09a9b22a3634,right,-1,0.3,0.5,1,-0.066280948,0.1514,,,,,,344,0,344,0,1,,,,,
,,957937,001,2023-07-24_21h17.55.175,arm3_eps,2022.2.5,Win32,59.99880002,605cb84d3d0c0d587aa464be,64aea9d0f615b6559c281482,64becb65ae6d09a9b22a3634,up,1,0.3,0.5,0,0,0.0336,,,,,,345,0,345,0,1,,,,,
,,957937,001,2023-07-24_21h17.55.175,arm3_eps,2022.2.5,Win32,59.99880002,605cb84d3d0c0d587aa464be,64aea9d0f615b6559c281482,64becb65ae6d09a9b22a3634,right,1,0.3,0.5,0,-0.011054302,0.2335,,,,,,346,0,346,0,1,,,,,
,,957937,001,2023-07-24_21h17.55.175,arm3_eps,2022.2.5,Win32,59.99880002,605cb84d3d0c0d587aa464be,64aea9d0f615b6559c281482,64becb65ae6d09a9b22a3634,right,1,0.3,0.5,0,-0.005324452,0.1899,,,,,,347,0,347,0,1,,,,,
,,957937,001,2023-07-24_21h17.55.175,arm3_eps,2022.2.5,Win32,59.99880002,605cb84d3d0c0d587aa464be,64aea9d0f615b6559c281482,64becb65ae6d09a9b22a3634,right,1,0.3,0.5,0,-0.025756976,0.1663,,,,,,348,0,348,0,1,,,,,
,,957937,001,2023-07-24_21h17.55.175,arm3_eps,2022.2.5,Win32,59.99880002,605cb84d3d0c0d587aa464be,64aea9d0f615b6559c281482,64becb65ae6d09a9b22a3634,right,1,0.3,0.5,0,0.026690477,0.1329,,,,,,349,0,349,0,1,,,,,
,,957937,001,2023-07-24_21h17.55.175,arm3_eps,2022.2.5,Win32,59.99880002,605cb84d3d0c0d587aa464be,64aea9d0f615b6559c281482,64becb65ae6d09a9b22a3634,down,-1,0.3,0.5,0,0,0.0497,,,,,,350,0,350,0,1,,,,,
,,957937,001,2023-07-24_21h17.55.175,arm3_eps,2022.2.5,Win32,59.99880002,605cb84d3d0c0d587aa464be,64aea9d0f615b6559c281482,64becb65ae6d09a9b22a3634,right,-1,0.3,0.5,0,-0.013673163,0.3532,,,,,,351,0,351,0,1,,,,,
,,957937,001,2023-07-24_21h17.55.175,arm3_eps,2022.2.5,Win32,59.99880002,605cb84d3d0c0d587aa464be,64aea9d0f615b6559c281482,64becb65ae6d09a9b22a3634,right,-1,0.3,0.5,0,-0.068023061,0.1538,,,,,,352,0,352,0,1,,,,,
,,957937,001,2023-07-24_21h17.55.175,arm3_eps,2022.2.5,Win32,59.99880002,605cb84d3d0c0d587aa464be,64aea9d0f615b6559c281482,64becb65ae6d09a9b22a3634,right,-1,0.3,0.5,0,-0.094172663,0.166,,,,,,353,0,353,0,1,,,,,
,,957937,001,2023-07-24_21h17.55.175,arm3_eps,2022.2.5,Win32,59.99880002,605cb84d3d0c0d587aa464be,64aea9d0f615b6559c281482,64becb65ae6d09a9b22a3634,right,-1,0.3,0.5,0,-0.087629838,0.1667,,,,,,354,0,354,0,1,,,,,
,,957937,001,2023-07-24_21h17.55.175,arm3_eps,2022.2.5,Win32,59.99880002,605cb84d3d0c0d587aa464be,64aea9d0f615b6559c281482,64becb65ae6d09a9b22a3634,up,1,0.3,0.5,0,0,0.1101,,,,,,355,0,355,0,1,,,,,
,,957937,001,2023-07-24_21h17.55.175,arm3_eps,2022.2.5,Win32,59.99880002,605cb84d3d0c0d587aa464be,64aea9d0f615b6559c281482,64becb65ae6d09a9b22a3634,right,1,0.3,0.5,0,0.01431145,0.467,,,,,,356,0,356,0,1,,,,,
,,957937,001,2023-07-24_21h17.55.175,arm3_eps,2022.2.5,Win32,59.99880002,605cb84d3d0c0d587aa464be,64aea9d0f615b6559c281482,64becb65ae6d09a9b22a3634,right,1,0.3,0.5,0,0.044302572,0.1629,,,,,,357,0,357,0,1,,,,,
,,957937,001,2023-07-24_21h17.55.175,arm3_eps,2022.2.5,Win32,59.99880002,605cb84d3d0c0d587aa464be,64aea9d0f615b6559c281482,64becb65ae6d09a9b22a3634,right,1,0.3,0.5,0,0.036507784,0.1541,,,,,,358,0,358,0,1,,,,,
,,957937,001,2023-07-24_21h17.55.175,arm3_eps,2022.2.5,Win32,59.99880002,605cb84d3d0c0d587aa464be,64aea9d0f615b6559c281482,64becb65ae6d09a9b22a3634,right,1,0.3,0.5,0,0.042564373,0.1438,,,,,,359,0,359,0,1,,,,,
,,957937,001,2023-07-24_21h17.55.175,arm3_eps,2022.2.5,Win32,59.99880002,605cb84d3d0c0d587aa464be,64aea9d0f615b6559c281482,64becb65ae6d09a9b22a3634,right,1,0.3,0.5,0,0.049434771,0.173,,,,,,360,0,360,0,1,,,,,
,,957937,001,2023-07-24_21h17.55.175,arm3_eps,2022.2.5,Win32,59.99880002,605cb84d3d0c0d587aa464be,64aea9d0f615b6559c281482,64becb65ae6d09a9b22a3634,up,1,0.3,0.5,0,0,0.063,,,,,,361,0,361,0,1,,,,,
,,957937,001,2023-07-24_21h17.55.175,arm3_eps,2022.2.5,Win32,59.99880002,605cb84d3d0c0d587aa464be,64aea9d0f615b6559c281482,64becb65ae6d09a9b22a3634,right,1,0.3,0.5,0,0.006690476,0.3288,,,,,,362,0,362,0,1,,,,,
,,957937,001,2023-07-24_21h17.55.175,arm3_eps,2022.2.5,Win32,59.99880002,605cb84d3d0c0d587aa464be,64aea9d0f615b6559c281482,64becb65ae6d09a9b22a3634,right,1,0.3,0.5,0,0.027376831,0.1567,,,,,,363,0,363,0,1,,,,,
,,957937,001,2023-07-24_21h17.55.175,arm3_eps,2022.2.5,Win32,59.99880002,605cb84d3d0c0d587aa464be,64aea9d0f615b6559c281482,64becb65ae6d09a9b22a3634,right,1,0.3,0.5,0,0.031135901,0.1669,,,,,,364,0,364,0,1,,,,,
,,957937,001,2023-07-24_21h17.55.175,arm3_eps,2022.2.5,Win32,59.99880002,605cb84d3d0c0d587aa464be,64aea9d0f615b6559c281482,64becb65ae6d09a9b22a3634,right,1,0.3,0.5,0,0.024556926,0.1668,,,,,,365,0,365,0,1,,,,,
,,957937,001,2023-07-24_21h17.55.175,arm3_eps,2022.2.5,Win32,59.99880002,605cb84d3d0c0d587aa464be,64aea9d0f615b6559c281482,64becb65ae6d09a9b22a3634,down,1,0.3,0.5,0,0,0.0956,,,,,,366,0,366,0,1,,,,,
,,957937,001,2023-07-24_21h17.55.175,arm3_eps,2022.2.5,Win32,59.99880002,605cb84d3d0c0d587aa464be,64aea9d0f615b6559c281482,64becb65ae6d09a9b22a3634,down,1,0.3,0.5,0,0,0.187,,,,,,367,0,367,0,1,,,,,
,,957937,001,2023-07-24_21h17.55.175,arm3_eps,2022.2.5,Win32,59.99880002,605cb84d3d0c0d587aa464be,64aea9d0f615b6559c281482,64becb65ae6d09a9b22a3634,right,1,0.3,0.5,0,0.006778561,0.1034,,,,,,368,0,368,0,1,,,,,
,,957937,001,2023-07-24_21h17.55.175,arm3_eps,2022.2.5,Win32,59.99880002,605cb84d3d0c0d587aa464be,64aea9d0f615b6559c281482,64becb65ae6d09a9b22a3634,right,1,0.3,0.5,0,0.015334793,0.184,,,,,,369,0,369,0,1,,,,,
,,957937,001,2023-07-24_21h17.55.175,arm3_eps,2022.2.5,Win32,59.99880002,605cb84d3d0c0d587aa464be,64aea9d0f615b6559c281482,64becb65ae6d09a9b22a3634,,,,,,,,,,,,,,,,,,0,0,0,0,1
space,1.9342,957937,001,2023-07-24_21h17.55.175,arm3_eps,2022.2.5,Win32,59.99880002,605cb84d3d0c0d587aa464be,64aea9d0f615b6559c281482,64becb65ae6d09a9b22a3634,right,1,0.3,0.3714,0,-0.014904514,0.5185,,,,,,0,0,0,0,1,,,,,
,,957937,001,2023-07-24_21h17.55.175,arm3_eps,2022.2.5,Win32,59.99880002,605cb84d3d0c0d587aa464be,64aea9d0f615b6559c281482,64becb65ae6d09a9b22a3634,right,1,0.3,0.3714,0,-0.021671545,0.1466,,,,,,1,0,1,0,1,,,,,
,,957937,001,2023-07-24_21h17.55.175,arm3_eps,2022.2.5,Win32,59.99880002,605cb84d3d0c0d587aa464be,64aea9d0f615b6559c281482,64becb65ae6d09a9b22a3634,right,1,0.3,0.3714,0,-0.030443047,0.1628,,,,,,2,0,2,0,1,,,,,
,,957937,001,2023-07-24_21h17.55.175,arm3_eps,2022.2.5,Win32,59.99880002,605cb84d3d0c0d587aa464be,64aea9d0f615b6559c281482,64becb65ae6d09a9b22a3634,right,1,0.3,0.3714,0,-0.019099731,0.1885,,,,,,3,0,3,0,1,,,,,
,,957937,001,2023-07-24_21h17.55.175,arm3_eps,2022.2.5,Win32,59.99880002,605cb84d3d0c0d587aa464be,64aea9d0f615b6559c281482,64becb65ae6d09a9b22a3634,right,1,0.3,0.3714,0,-5.96352E-05,0.1996,,,,,,4,0,4,0,1,,,,,
,,957937,001,2023-07-24_21h17.55.175,arm3_eps,2022.2.5,Win32,59.99880002,605cb84d3d0c0d587aa464be,64aea9d0f615b6559c281482,64becb65ae6d09a9b22a3634,right,1,0.3,0.3714,0,0.016103513,0.2055,,,,,,5,0,5,0,1,,,,,
,,957937,001,2023-07-24_21h17.55.175,arm3_eps,2022.2.5,Win32,59.99880002,605cb84d3d0c0d587aa464be,64aea9d0f615b6559c281482,64becb65ae6d09a9b22a3634,up,1,0.3,0.3714,1,0,0.0003,,,,,,6,0,6,0,1,,,,,
,,957937,001,2023-07-24_21h17.55.175,arm3_eps,2022.2.5,Win32,59.99880002,605cb84d3d0c0d587aa464be,64aea9d0f615b6559c281482,64becb65ae6d09a9b22a3634,right,1,0.3,0.3714,1,-0.011200606,0.1827,,,,,,7,0,7,0,1,,,,,
,,957937,001,2023-07-24_21h17.55.175,arm3_eps,2022.2.5,Win32,59.99880002,605cb84d3d0c0d587aa464be,64aea9d0f615b6559c281482,64becb65ae6d09a9b22a3634,right,1,0.3,0.3714,1,0.002159249,0.2128,,,,,,8,0,8,0,1,,,,,
,,957937,001,2023-07-24_21h17.55.175,arm3_eps,2022.2.5,Win32,59.99880002,605cb84d3d0c0d587aa464be,64aea9d0f615b6559c281482,64becb65ae6d09a9b22a3634,right,1,0.3,0.3714,1,0.020312998,0.1623,,,,,,9,0,9,0,1,,,,,
,,957937,001,2023-07-24_21h17.55.175,arm3_eps,2022.2.5,Win32,59.99880002,605cb84d3d0c0d587aa464be,64aea9d0f615b6559c281482,64becb65ae6d09a9b22a3634,right,1,0.3,0.3714,1,0.046342925,0.1664,,,,,,10,0,10,0,1,,,,,
,,957937,001,2023-07-24_21h17.55.175,arm3_eps,2022.2.5,Win32,59.99880002,605cb84d3d0c0d587aa464be,64aea9d0f615b6559c281482,64becb65ae6d09a9b22a3634,right,1,0.3,0.3714,1,0.055914279,0.2064,,,,,,11,0,11,0,1,,,,,
,,957937,001,2023-07-24_21h17.55.175,arm3_eps,2022.2.5,Win32,59.99880002,605cb84d3d0c0d587aa464be,64aea9d0f615b6559c281482,64becb65ae6d09a9b22a3634,right,1,0.3,0.3714,1,0.061818124,0.1623,,,,,,12,0,12,0,1,,,,,
,,957937,001,2023-07-24_21h17.55.175,arm3_eps,2022.2.5,Win32,59.99880002,605cb84d3d0c0d587aa464be,64aea9d0f615b6559c281482,64becb65ae6d09a9b22a3634,up,-1,0.3,0.3714,1,0,0.0188,,,,,,13,0,13,0,1,,,,,
,,957937,001,2023-07-24_21h17.55.175,arm3_eps,2022.2.5,Win32,59.99880002,605cb84d3d0c0d587aa464be,64aea9d0f615b6559c281482,64becb65ae6d09a9b22a3634,right,-1,0.3,0.3714,1,0.014084605,0.1269,,,,,,14,0,14,0,1,,,,,
,,957937,001,2023-07-24_21h17.55.175,arm3_eps,2022.2.5,Win32,59.99880002,605cb84d3d0c0d587aa464be,64aea9d0f615b6559c281482,64becb65ae6d09a9b22a3634,up,-1,0.3,0.3714,0,0,0.1437,,,,,,15,0,15,0,1,,,,,
,,957937,001,2023-07-24_21h17.55.175,arm3_eps,2022.2.5,Win32,59.99880002,605cb84d3d0c0d587aa464be,64aea9d0f615b6559c281482,64becb65ae6d09a9b22a3634,right,-1,0.3,0.3714,0,0.004633868,0.0004,,,,,,16,0,16,0,1,,,,,
,,957937,001,2023-07-24_21h17.55.175,arm3_eps,2022.2.5,Win32,59.99880002,605cb84d3d0c0d587aa464be,64aea9d0f615b6559c281482,64becb65ae6d09a9b22a3634,right,-1,0.3,0.3714,0,0.029262942,0.1264,,,,,,17,0,17,0,1,,,,,
,,957937,001,2023-07-24_21h17.55.175,arm3_eps,2022.2.5,Win32,59.99880002,605cb84d3d0c0d587aa464be,64aea9d0f615b6559c281482,64becb65ae6d09a9b22a3634,up,-1,0.3,0.3714,0,0,0.0003,,,,,,18,0,18,0,1,,,,,
,,957937,001,2023-07-24_21h17.55.175,arm3_eps,2022.2.5,Win32,59.99880002,605cb84d3d0c0d587aa464be,64aea9d0f615b6559c281482,64becb65ae6d09a9b22a3634,right,-1,0.3,0.3714,0,0.031189816,0.1356,,,,,,19,0,19,0,1,,,,,
,,957937,001,2023-07-24_21h17.55.175,arm3_eps,2022.2.5,Win32,59.99880002,605cb84d3d0c0d587aa464be,64aea9d0f615b6559c281482,64becb65ae6d09a9b22a3634,up,-1,0.3,0.3714,0,0,0.1371,,,,,,20,0,20,0,1,,,,,
,,957937,001,2023-07-24_21h17.55.175,arm3_eps,2022.2.5,Win32,59.99880002,605cb84d3d0c0d587aa464be,64aea9d0f615b6559c281482,64becb65ae6d09a9b22a3634,right,-1,0.3,0.3714,0,0.002520054,0.1328,,,,,,21,0,21,0,1,,,,,
,,957937,001,2023-07-24_21h17.55.175,arm3_eps,2022.2.5,Win32,59.99880002,605cb84d3d0c0d587aa464be,64aea9d0f615b6559c281482,64becb65ae6d09a9b22a3634,up,-1,0.3,0.3714,0,0,0.0003,,,,,,22,0,22,0,1,,,,,
,,957937,001,2023-07-24_21h17.55.175,arm3_eps,2022.2.5,Win32,59.99880002,605cb84d3d0c0d587aa464be,64aea9d0f615b6559c281482,64becb65ae6d09a9b22a3634,right,-1,0.3,0.3714,0,-0.005417935,0.1511,,,,,,23,0,23,0,1,,,,,
,,957937,001,2023-07-24_21h17.55.175,arm3_eps,2022.2.5,Win32,59.99880002,605cb84d3d0c0d587aa464be,64aea9d0f615b6559c281482,64becb65ae6d09a9b22a3634,right,-1,0.3,0.3714,0,-0.027557438,0.3002,,,,,,24,0,24,0,1,,,,,
,,957937,001,2023-07-24_21h17.55.175,arm3_eps,2022.2.5,Win32,59.99880002,605cb84d3d0c0d587aa464be,64aea9d0f615b6559c281482,64becb65ae6d09a9b22a3634,right,-1,0.3,0.3714,0,-0.067584123,0.2002,,,,,,25,0,25,0,1,,,,,
,,957937,001,2023-07-24_21h17.55.175,arm3_eps,2022.2.5,Win32,59.99880002,605cb84d3d0c0d587aa464be,64aea9d0f615b6559c281482,64becb65ae6d09a9b22a3634,down,1,0.3,0.3714,0,0,0.0335,,,,,,26,0,26,0,1,,,,,
,,957937,001,2023-07-24_21h17.55.175,arm3_eps,2022.2.5,Win32,59.99880002,605cb84d3d0c0d587aa464be,64aea9d0f615b6559c281482,64becb65ae6d09a9b22a3634,right,1,0.3,0.3714,0,-0.016552615,0.0799,,,,,,27,0,27,0,1,,,,,
,,957937,001,2023-07-24_21h17.55.175,arm3_eps,2022.2.5,Win32,59.99880002,605cb84d3d0c0d587aa464be,64aea9d0f615b6559c281482,64becb65ae6d09a9b22a3634,down,-1,0.3,0.3714,-1,0,0.0787,,,,,,28,0,28,0,1,,,,,
,,957937,001,2023-07-24_21h17.55.175,arm3_eps,2022.2.5,Win32,59.99880002,605cb84d3d0c0d587aa464be,64aea9d0f615b6559c281482,64becb65ae6d09a9b22a3634,right,-1,0.3,0.3714,-1,-0.016641576,0.1018,,,,,,29,0,29,0,1,,,,,
,,957937,001,2023-07-24_21h17.55.175,arm3_eps,2022.2.5,Win32,59.99880002,605cb84d3d0c0d587aa464be,64aea9d0f615b6559c281482,64becb65ae6d09a9b22a3634,right,-1,0.3,0.3714,-1,-0.049368794,0.1615,,,,,,30,0,30,0,1,,,,,
,,957937,001,2023-07-24_21h17.55.175,arm3_eps,2022.2.5,Win32,59.99880002,605cb84d3d0c0d587aa464be,64aea9d0f615b6559c281482,64becb65ae6d09a9b22a3634,up,-1,0.3,0.3714,-2,0,0.0831,,,,,,31,0,31,0,1,,,,,
,,957937,001,2023-07-24_21h17.55.175,arm3_eps,2022.2.5,Win32,59.99880002,605cb84d3d0c0d587aa464be,64aea9d0f615b6559c281482,64becb65ae6d09a9b22a3634,right,-1,0.3,0.3714,-2,-0.02122899,0.0874,,,,,,32,0,32,0,1,,,,,
,,957937,001,2023-07-24_21h17.55.175,arm3_eps,2022.2.5,Win32,59.99880002,605cb84d3d0c0d587aa464be,64aea9d0f615b6559c281482,64becb65ae6d09a9b22a3634,up,1,0.3,0.3714,-2,0,0.0607,,,,,,33,0,33,0,1,,,,,
,,957937,001,2023-07-24_21h17.55.175,arm3_eps,2022.2.5,Win32,59.99880002,605cb84d3d0c0d587aa464be,64aea9d0f615b6559c281482,64becb65ae6d09a9b22a3634,right,1,0.3,0.3714,-2,0.014113655,0.1115,,,,,,34,0,34,0,1,,,,,
,,957937,001,2023-07-24_21h17.55.175,arm3_eps,2022.2.5,Win32,59.99880002,605cb84d3d0c0d587aa464be,64aea9d0f615b6559c281482,64becb65ae6d09a9b22a3634,up,1,0.3,0.3714,-2,0,0.0501,,,,,,35,0,35,0,1,,,,,
,,957937,001,2023-07-24_21h17.55.175,arm3_eps,2022.2.5,Win32,59.99880002,605cb84d3d0c0d587aa464be,64aea9d0f615b6559c281482,64becb65ae6d09a9b22a3634,right,1,0.3,0.3714,-2,0.001305394,0.0958,,,,,,36,0,36,0,1,,,,,
,,957937,001,2023-07-24_21h17.55.175,arm3_eps,2022.2.5,Win32,59.99880002,605cb84d3d0c0d587aa464be,64aea9d0f615b6559c281482,64becb65ae6d09a9b22a3634,up,1,0.3,0.3714,-1,0,0.0351,,,,,,37,0,37,0,1,,,,,
,,957937,001,2023-07-24_21h17.55.175,arm3_eps,2022.2.5,Win32,59.99880002,605cb84d3d0c0d587aa464be,64aea9d0f615b6559c281482,64becb65ae6d09a9b22a3634,right,1,0.3,0.3714,-1,0.047517982,0.1234,,,,,,38,0,38,0,1,,,,,
,,957937,001,2023-07-24_21h17.55.175,arm3_eps,2022.2.5,Win32,59.99880002,605cb84d3d0c0d587aa464be,64aea9d0f615b6559c281482,64becb65ae6d09a9b22a3634,right,1,0.3,0.3714,-1,0.028501569,0.2074,,,,,,39,0,39,0,1,,,,,
,,957937,001,2023-07-24_21h17.55.175,arm3_eps,2022.2.5,Win32,59.99880002,605cb84d3d0c0d587aa464be,64aea9d0f615b6559c281482,64becb65ae6d09a9b22a3634,right,1,0.3,0.3714,-1,0.033270218,0.1996,,,,,,40,0,40,0,1,,,,,
,,957937,001,2023-07-24_21h17.55.175,arm3_eps,2022.2.5,Win32,59.99880002,605cb84d3d0c0d587aa464be,64aea9d0f615b6559c281482,64becb65ae6d09a9b22a3634,right,1,0.3,0.3714,-1,0.038887648,0.1376,,,,,,41,0,41,0,1,,,,,
,,957937,001,2023-07-24_21h17.55.175,arm3_eps,2022.2.5,Win32,59.99880002,605cb84d3d0c0d587aa464be,64aea9d0f615b6559c281482,64becb65ae6d09a9b22a3634,up,-1,0.3,0.3714,-1,0,0.0667,,,,,,42,0,42,0,1,,,,,
,,957937,001,2023-07-24_21h17.55.175,arm3_eps,2022.2.5,Win32,59.99880002,605cb84d3d0c0d587aa464be,64aea9d0f615b6559c281482,64becb65ae6d09a9b22a3634,right,-1,0.3,0.3714,-1,-0.002129601,0.1426,,,,,,43,0,43,0,1,,,,,
,,957937,001,2023-07-24_21h17.55.175,arm3_eps,2022.2.5,Win32,59.99880002,605cb84d3d0c0d587aa464be,64aea9d0f615b6559c281482,64becb65ae6d09a9b22a3634,up,-1,0.3,0.3714,-1,0,0.0289,,,,,,44,0,44,0,1,,,,,
,,957937,001,2023-07-24_21h17.55.175,arm3_eps,2022.2.5,Win32,59.99880002,605cb84d3d0c0d587aa464be,64aea9d0f615b6559c281482,64becb65ae6d09a9b22a3634,right,-1,0.3,0.3714,-1,-0.037425154,0.1359,,,,,,45,0,45,0,1,,,,,
,,957937,001,2023-07-24_21h17.55.175,arm3_eps,2022.2.5,Win32,59.99880002,605cb84d3d0c0d587aa464be,64aea9d0f615b6559c281482,64becb65ae6d09a9b22a3634,up,-1,0.3,0.3714,-1,0,0.0343,,,,,,46,0,46,0,1,,,,,
,,957937,001,2023-07-24_21h17.55.175,arm3_eps,2022.2.5,Win32,59.99880002,605cb84d3d0c0d587aa464be,64aea9d0f615b6559c281482,64becb65ae6d09a9b22a3634,right,-1,0.3,0.3714,-1,0.007386183,0.1164,,,,,,47,0,47,0,1,,,,,
,,957937,001,2023-07-24_21h17.55.175,arm3_eps,2022.2.5,Win32,59.99880002,605cb84d3d0c0d587aa464be,64aea9d0f615b6559c281482,64becb65ae6d09a9b22a3634,up,1,0.3,0.3714,-1,0,0.0502,,,,,,48,0,48,0,1,,,,,
,,957937,001,2023-07-24_21h17.55.175,arm3_eps,2022.2.5,Win32,59.99880002,605cb84d3d0c0d587aa464be,64aea9d0f615b6559c281482,64becb65ae6d09a9b22a3634,right,1,0.3,0.3714,-1,0.028136566,0.1401,,,,,,49,0,49,0,1,,,,,
,,957937,001,2023-07-24_21h17.55.175,arm3_eps,2022.2.5,Win32,59.99880002,605cb84d3d0c0d587aa464be,64aea9d0f615b6559c281482,64becb65ae6d09a9b22a3634,right,1,0.3,0.3714,-1,0.055780574,3.4695,,,,,,50,0,50,0,1,,,,,
,,957937,001,2023-07-24_21h17.55.175,arm3_eps,2022.2.5,Win32,59.99880002,605cb84d3d0c0d587aa464be,64aea9d0f615b6559c281482,64becb65ae6d09a9b22a3634,right,1,0.3,0.3714,-1,0.080050667,0.1819,,,,,,51,0,51,0,1,,,,,
