space_bar.keys,space_bar.rt,participant,session,date,expName,psychopyVersion,OS,frameRate,PROLIFIC_PID,STUDY_ID,SESSION_ID,resp.keys,state,q_prob,eps_prob,score,price,resp.rt,train.thisRepN,train.thisTrialN,train.thisN,train.thisIndex,train.ran,steps.thisRepN,steps.thisTrialN,steps.thisN,steps.thisIndex,steps.ran,blocks.thisRepN,blocks.thisTrialN,blocks.thisN,blocks.thisIndex,blocks.ran
space,12.6475,966007,001,2023-07-24_21h29.59.814,arm3_eps,2022.2.5,MacIntel,59.95203837,5d2508273854c300016c04aa,64aea9d0f615b6559c281482,64bed128f73cb6b8c1d1cb6a,,,,,,,,,,,,,,,,,,,,,,
space,17.0189,966007,001,2023-07-24_21h29.59.814,arm3_eps,2022.2.5,MacIntel,59.95203837,5d2508273854c300016c04aa,64aea9d0f615b6559c281482,64bed128f73cb6b8c1d1cb6a,,,,,,,,,,,,,,,,,,,,,,
space,7.258,966007,001,2023-07-24_21h29.59.814,arm3_eps,2022.2.5,MacIntel,59.95203837,5d2508273854c300016c04aa,64aea9d0f615b6559c281482,64bed128f73cb6b8c1d1cb6a,,,,,,,,,,,,,,,,,,,,,,
space,15.9896,966007,001,2023-07-24_21h29.59.814,arm3_eps,2022.2.5,MacIntel,59.95203837,5d2508273854c300016c04aa,64aea9d0f615b6559c281482,64bed128f73cb6b8c1d1cb6a,,,,,,,,,,,,,,,,,,,,,,
space,22.5945,966007,001,2023-07-24_21h29.59.814,arm3_eps,2022.2.5,MacIntel,59.95203837,5d2508273854c300016c04aa,64aea9d0f615b6559c281482,64bed128f73cb6b8c1d1cb6a,,,,,,,,,,,,,,,,,,,,,,
space,25.7811,966007,001,2023-07-24_21h29.59.814,arm3_eps,2022.2.5,MacIntel,59.95203837,5d2508273854c300016c04aa,64aea9d0f615b6559c281482,64bed128f73cb6b8c1d1cb6a,,,,,,,,,,,,,,,,,,,,,,
space,7.9966,966007,001,2023-07-24_21h29.59.814,arm3_eps,2022.2.5,MacIntel,59.95203837,5d2508273854c300016c04aa,64aea9d0f615b6559c281482,64bed128f73cb6b8c1d1cb6a,,,,,,,,,,,,,,,,,,,,,,
space,14.1057,966007,001,2023-07-24_21h29.59.814,arm3_eps,2022.2.5,MacIntel,59.95203837,5d2508273854c300016c04aa,64aea9d0f615b6559c281482,64bed128f73cb6b8c1d1cb6a,,,,,,,,,,,,,,,,,,,,,,
space,18.6614,966007,001,2023-07-24_21h29.59.814,arm3_eps,2022.2.5,MacIntel,59.95203837,5d2508273854c300016c04aa,64aea9d0f615b6559c281482,64bed128f73cb6b8c1d1cb6a,,,,,,,,,,,,,,,,,,,,,,
space,9.5875,966007,001,2023-07-24_21h29.59.814,arm3_eps,2022.2.5,MacIntel,59.95203837,5d2508273854c300016c04aa,64aea9d0f615b6559c281482,64bed128f73cb6b8c1d1cb6a,,,,,,,,,,,,,,,,,,,,,,
,,966007,001,2023-07-24_21h29.59.814,arm3_eps,2022.2.5,MacIntel,59.95203837,5d2508273854c300016c04aa,64aea9d0f615b6559c281482,64bed128f73cb6b8c1d1cb6a,right,-1,0.3,0.2429,0,0.000180034,17.5592,0,0,0,0,1,,,,,,,,,,
,,966007,001,2023-07-24_21h29.59.814,arm3_eps,2022.2.5,MacIntel,59.95203837,5d2508273854c300016c04aa,64aea9d0f615b6559c281482,64bed128f73cb6b8c1d1cb6a,right,-1,0.3,0.2429,0,-0.000819923,2.5922,1,0,1,0,1,,,,,,,,,,
,,966007,001,2023-07-24_21h29.59.814,arm3_eps,2022.2.5,MacIntel,59.95203837,5d2508273854c300016c04aa,64aea9d0f615b6559c281482,64bed128f73cb6b8c1d1cb6a,right,-1,0.3,0.2429,0,-0.034462874,1.9129,2,0,2,0,1,,,,,,,,,,
,,966007,001,2023-07-24_21h29.59.814,arm3_eps,2022.2.5,MacIntel,59.95203837,5d2508273854c300016c04aa,64aea9d0f615b6559c281482,64bed128f73cb6b8c1d1cb6a,right,-1,0.3,0.2429,0,-0.069591157,1.6204,3,0,3,0,1,,,,,,,,,,
,,966007,001,2023-07-24_21h29.59.814,arm3_eps,2022.2.5,MacIntel,59.95203837,5d2508273854c300016c04aa,64aea9d0f615b6559c281482,64bed128f73cb6b8c1d1cb6a,right,-1,0.3,0.2429,0,-0.07675268,1.7099,4,0,4,0,1,,,,,,,,,,
,,966007,001,2023-07-24_21h29.59.814,arm3_eps,2022.2.5,MacIntel,59.95203837,5d2508273854c300016c04aa,64aea9d0f615b6559c281482,64bed128f73cb6b8c1d1cb6a,down,-1,0.3,0.2429,0,0,2.2664,5,0,5,0,1,,,,,,,,,,
,,966007,001,2023-07-24_21h29.59.814,arm3_eps,2022.2.5,MacIntel,59.95203837,5d2508273854c300016c04aa,64aea9d0f615b6559c281482,64bed128f73cb6b8c1d1cb6a,right,-1,0.3,0.2429,0,0.008894164,1.979,6,0,6,0,1,,,,,,,,,,
,,966007,001,2023-07-24_21h29.59.814,arm3_eps,2022.2.5,MacIntel,59.95203837,5d2508273854c300016c04aa,64aea9d0f615b6559c281482,64bed128f73cb6b8c1d1cb6a,right,-1,0.3,0.2429,0,0.002944555,1.0655,7,0,7,0,1,,,,,,,,,,
,,966007,001,2023-07-24_21h29.59.814,arm3_eps,2022.2.5,MacIntel,59.95203837,5d2508273854c300016c04aa,64aea9d0f615b6559c281482,64bed128f73cb6b8c1d1cb6a,right,-1,0.3,0.2429,0,-0.012089032,1.5337,8,0,8,0,1,,,,,,,,,,
,,966007,001,2023-07-24_21h29.59.814,arm3_eps,2022.2.5,MacIntel,59.95203837,5d2508273854c300016c04aa,64aea9d0f615b6559c281482,64bed128f73cb6b8c1d1cb6a,right,-1,0.3,0.2429,0,-0.001609291,1.1237,9,0,9,0,1,,,,,,,,,,
,,966007,001,2023-07-24_21h29.59.814,arm3_eps,2022.2.5,MacIntel,59.95203837,5d2508273854c300016c04aa,64aea9d0f615b6559c281482,64bed128f73cb6b8c1d1cb6a,right,-1,0.3,0.2429,0,-0.031639904,1.2669,10,0,10,0,1,,,,,,,,,,
,,966007,001,2023-07-24_21h29.59.814,arm3_eps,2022.2.5,MacIntel,59.95203837,5d2508273854c300016c04aa,64aea9d0f615b6559c281482,64bed128f73cb6b8c1d1cb6a,right,-1,0.3,0.2429,0,-0.023361253,1.3302,11,0,11,0,1,,,,,,,,,,
,,966007,001,2023-07-24_21h29.59.814,arm3_eps,2022.2.5,MacIntel,59.95203837,5d2508273854c300016c04aa,64aea9d0f615b6559c281482,64bed128f73cb6b8c1d1cb6a,right,-1,0.3,0.2429,0,-0.005996122,1.0343,12,0,12,0,1,,,,,,,,,,
,,966007,001,2023-07-24_21h29.59.814,arm3_eps,2022.2.5,MacIntel,59.95203837,5d2508273854c300016c04aa,64aea9d0f615b6559c281482,64bed128f73cb6b8c1d1cb6a,right,-1,0.3,0.2429,0,-0.000544949,0.9978,13,0,13,0,1,,,,,,,,,,
,,966007,001,2023-07-24_21h29.59.814,arm3_eps,2022.2.5,MacIntel,59.95203837,5d2508273854c300016c04aa,64aea9d0f615b6559c281482,64bed128f73cb6b8c1d1cb6a,right,-1,0.3,0.2429,0,-0.011093013,1.0177,14,0,14,0,1,,,,,,,,,,
,,966007,001,2023-07-24_21h29.59.814,arm3_eps,2022.2.5,MacIntel,59.95203837,5d2508273854c300016c04aa,64aea9d0f615b6559c281482,64bed128f73cb6b8c1d1cb6a,right,-1,0.3,0.2429,0,0.011908811,0.8998,15,0,15,0,1,,,,,,,,,,
,,966007,001,2023-07-24_21h29.59.814,arm3_eps,2022.2.5,MacIntel,59.95203837,5d2508273854c300016c04aa,64aea9d0f615b6559c281482,64bed128f73cb6b8c1d1cb6a,up,-1,0.3,0.2429,0,0,1.6993,16,0,16,0,1,,,,,,,,,,
,,966007,001,2023-07-24_21h29.59.814,arm3_eps,2022.2.5,MacIntel,59.95203837,5d2508273854c300016c04aa,64aea9d0f615b6559c281482,64bed128f73cb6b8c1d1cb6a,right,-1,0.3,0.2429,0,-0.001233747,1.4996,17,0,17,0,1,,,,,,,,,,
,,966007,001,2023-07-24_21h29.59.814,arm3_eps,2022.2.5,MacIntel,59.95203837,5d2508273854c300016c04aa,64aea9d0f615b6559c281482,64bed128f73cb6b8c1d1cb6a,right,-1,0.3,0.2429,0,-0.020587902,0.9146,18,0,18,0,1,,,,,,,,,,
,,966007,001,2023-07-24_21h29.59.814,arm3_eps,2022.2.5,MacIntel,59.95203837,5d2508273854c300016c04aa,64aea9d0f615b6559c281482,64bed128f73cb6b8c1d1cb6a,right,-1,0.3,0.2429,0,-0.020033806,0.6505,19,0,19,0,1,,,,,,,,,,
,,966007,001,2023-07-24_21h29.59.814,arm3_eps,2022.2.5,MacIntel,59.95203837,5d2508273854c300016c04aa,64aea9d0f615b6559c281482,64bed128f73cb6b8c1d1cb6a,right,-1,0.3,0.2429,0,-0.038586143,0.6132,20,0,20,0,1,,,,,,,,,,
,,966007,001,2023-07-24_21h29.59.814,arm3_eps,2022.2.5,MacIntel,59.95203837,5d2508273854c300016c04aa,64aea9d0f615b6559c281482,64bed128f73cb6b8c1d1cb6a,right,-1,0.3,0.2429,0,-0.060222312,0.9326,21,0,21,0,1,,,,,,,,,,
,,966007,001,2023-07-24_21h29.59.814,arm3_eps,2022.2.5,MacIntel,59.95203837,5d2508273854c300016c04aa,64aea9d0f615b6559c281482,64bed128f73cb6b8c1d1cb6a,right,-1,0.3,0.2429,0,-0.048345343,2.1776,22,0,22,0,1,,,,,,,,,,
,,966007,001,2023-07-24_21h29.59.814,arm3_eps,2022.2.5,MacIntel,59.95203837,5d2508273854c300016c04aa,64aea9d0f615b6559c281482,64bed128f73cb6b8c1d1cb6a,right,-1,0.3,0.2429,0,-0.043784006,0.5635,23,0,23,0,1,,,,,,,,,,
,,966007,001,2023-07-24_21h29.59.814,arm3_eps,2022.2.5,MacIntel,59.95203837,5d2508273854c300016c04aa,64aea9d0f615b6559c281482,64bed128f73cb6b8c1d1cb6a,down,1,0.3,0.2429,0,0,2.0252,24,0,24,0,1,,,,,,,,,,
,,966007,001,2023-07-24_21h29.59.814,arm3_eps,2022.2.5,MacIntel,59.95203837,5d2508273854c300016c04aa,64aea9d0f615b6559c281482,64bed128f73cb6b8c1d1cb6a,right,1,0.3,0.2429,0,0.003366167,1.1577,25,0,25,0,1,,,,,,,,,,
,,966007,001,2023-07-24_21h29.59.814,arm3_eps,2022.2.5,MacIntel,59.95203837,5d2508273854c300016c04aa,64aea9d0f615b6559c281482,64bed128f73cb6b8c1d1cb6a,right,1,0.3,0.2429,0,0.030768887,0.6301,26,0,26,0,1,,,,,,,,,,
,,966007,001,2023-07-24_21h29.59.814,arm3_eps,2022.2.5,MacIntel,59.95203837,5d2508273854c300016c04aa,64aea9d0f615b6559c281482,64bed128f73cb6b8c1d1cb6a,right,1,0.3,0.2429,0,0.048053411,0.5711,27,0,27,0,1,,,,,,,,,,
,,966007,001,2023-07-24_21h29.59.814,arm3_eps,2022.2.5,MacIntel,59.95203837,5d2508273854c300016c04aa,64aea9d0f615b6559c281482,64bed128f73cb6b8c1d1cb6a,right,1,0.3,0.2429,0,0.053683506,0.5243,28,0,28,0,1,,,,,,,,,,
,,966007,001,2023-07-24_21h29.59.814,arm3_eps,2022.2.5,MacIntel,59.95203837,5d2508273854c300016c04aa,64aea9d0f615b6559c281482,64bed128f73cb6b8c1d1cb6a,right,1,0.3,0.2429,0,0.043621532,0.5823,29,0,29,0,1,,,,,,,,,,
,,966007,001,2023-07-24_21h29.59.814,arm3_eps,2022.2.5,MacIntel,59.95203837,5d2508273854c300016c04aa,64aea9d0f615b6559c281482,64bed128f73cb6b8c1d1cb6a,right,1,0.3,0.2429,0,0.06098639,0.6191,30,0,30,0,1,,,,,,,,,,
,,966007,001,2023-07-24_21h29.59.814,arm3_eps,2022.2.5,MacIntel,59.95203837,5d2508273854c300016c04aa,64aea9d0f615b6559c281482,64bed128f73cb6b8c1d1cb6a,right,1,0.3,0.2429,0,0.047262291,0.635,31,0,31,0,1,,,,,,,,,,
,,966007,001,2023-07-24_21h29.59.814,arm3_eps,2022.2.5,MacIntel,59.95203837,5d2508273854c300016c04aa,64aea9d0f615b6559c281482,64bed128f73cb6b8c1d1cb6a,up,1,0.3,0.2429,0,0,1.1821,32,0,32,0,1,,,,,,,,,,
,,966007,001,2023-07-24_21h29.59.814,arm3_eps,2022.2.5,MacIntel,59.95203837,5d2508273854c300016c04aa,64aea9d0f615b6559c281482,64bed128f73cb6b8c1d1cb6a,right,1,0.3,0.2429,0,-0.008359519,3.022,33,0,33,0,1,,,,,,,,,,
,,966007,001,2023-07-24_21h29.59.814,arm3_eps,2022.2.5,MacIntel,59.95203837,5d2508273854c300016c04aa,64aea9d0f615b6559c281482,64bed128f73cb6b8c1d1cb6a,right,1,0.3,0.2429,0,0.015580604,0.6026,34,0,34,0,1,,,,,,,,,,
,,966007,001,2023-07-24_21h29.59.814,arm3_eps,2022.2.5,MacIntel,59.95203837,5d2508273854c300016c04aa,64aea9d0f615b6559c281482,64bed128f73cb6b8c1d1cb6a,right,1,0.3,0.2429,0,0.030753391,0.4391,35,0,35,0,1,,,,,,,,,,
,,966007,001,2023-07-24_21h29.59.814,arm3_eps,2022.2.5,MacIntel,59.95203837,5d2508273854c300016c04aa,64aea9d0f615b6559c281482,64bed128f73cb6b8c1d1cb6a,right,1,0.3,0.2429,0,0.029234059,0.4993,36,0,36,0,1,,,,,,,,,,
,,966007,001,2023-07-24_21h29.59.814,arm3_eps,2022.2.5,MacIntel,59.95203837,5d2508273854c300016c04aa,64aea9d0f615b6559c281482,64bed128f73cb6b8c1d1cb6a,right,1,0.3,0.2429,0,0.066472416,0.5161,37,0,37,0,1,,,,,,,,,,
,,966007,001,2023-07-24_21h29.59.814,arm3_eps,2022.2.5,MacIntel,59.95203837,5d2508273854c300016c04aa,64aea9d0f615b6559c281482,64bed128f73cb6b8c1d1cb6a,up,1,0.3,0.2429,0,0,0.5064,38,0,38,0,1,,,,,,,,,,
,,966007,001,2023-07-24_21h29.59.814,arm3_eps,2022.2.5,MacIntel,59.95203837,5d2508273854c300016c04aa,64aea9d0f615b6559c281482,64bed128f73cb6b8c1d1cb6a,right,1,0.3,0.2429,0,-0.011098597,1.0787,39,0,39,0,1,,,,,,,,,,
,,966007,001,2023-07-24_21h29.59.814,arm3_eps,2022.2.5,MacIntel,59.95203837,5d2508273854c300016c04aa,64aea9d0f615b6559c281482,64bed128f73cb6b8c1d1cb6a,right,1,0.3,0.2429,0,0.003629257,0.433,40,0,40,0,1,,,,,,,,,,
,,966007,001,2023-07-24_21h29.59.814,arm3_eps,2022.2.5,MacIntel,59.95203837,5d2508273854c300016c04aa,64aea9d0f615b6559c281482,64bed128f73cb6b8c1d1cb6a,right,1,0.3,0.2429,0,0.03198358,0.5037,41,0,41,0,1,,,,,,,,,,
,,966007,001,2023-07-24_21h29.59.814,arm3_eps,2022.2.5,MacIntel,59.95203837,5d2508273854c300016c04aa,64aea9d0f615b6559c281482,64bed128f73cb6b8c1d1cb6a,right,1,0.3,0.2429,0,0.021629192,0.4283,42,0,42,0,1,,,,,,,,,,
,,966007,001,2023-07-24_21h29.59.814,arm3_eps,2022.2.5,MacIntel,59.95203837,5d2508273854c300016c04aa,64aea9d0f615b6559c281482,64bed128f73cb6b8c1d1cb6a,down,1,0.3,0.2429,-1,0,0.6143,43,0,43,0,1,,,,,,,,,,
,,966007,001,2023-07-24_21h29.59.814,arm3_eps,2022.2.5,MacIntel,59.95203837,5d2508273854c300016c04aa,64aea9d0f615b6559c281482,64bed128f73cb6b8c1d1cb6a,right,1,0.3,0.2429,-1,0.010796339,4.1392,44,0,44,0,1,,,,,,,,,,
,,966007,001,2023-07-24_21h29.59.814,arm3_eps,2022.2.5,MacIntel,59.95203837,5d2508273854c300016c04aa,64aea9d0f615b6559c281482,64bed128f73cb6b8c1d1cb6a,right,1,0.3,0.2429,-1,0.024058893,2.1873,45,0,45,0,1,,,,,,,,,,
,,966007,001,2023-07-24_21h29.59.814,arm3_eps,2022.2.5,MacIntel,59.95203837,5d2508273854c300016c04aa,64aea9d0f615b6559c281482,64bed128f73cb6b8c1d1cb6a,right,1,0.3,0.2429,-1,0.021377209,0.665,46,0,46,0,1,,,,,,,,,,
,,966007,001,2023-07-24_21h29.59.814,arm3_eps,2022.2.5,MacIntel,59.95203837,5d2508273854c300016c04aa,64aea9d0f615b6559c281482,64bed128f73cb6b8c1d1cb6a,right,1,0.3,0.2429,-1,0.020900482,0.4224,47,0,47,0,1,,,,,,,,,,
,,966007,001,2023-07-24_21h29.59.814,arm3_eps,2022.2.5,MacIntel,59.95203837,5d2508273854c300016c04aa,64aea9d0f615b6559c281482,64bed128f73cb6b8c1d1cb6a,right,1,0.3,0.2429,-1,0.023985996,0.4047,48,0,48,0,1,,,,,,,,,,
,,966007,001,2023-07-24_21h29.59.814,arm3_eps,2022.2.5,MacIntel,59.95203837,5d2508273854c300016c04aa,64aea9d0f615b6559c281482,64bed128f73cb6b8c1d1cb6a,right,1,0.3,0.2429,-1,0.02993305,0.4158,49,0,49,0,1,,,,,,,,,,
space,3.0833,966007,001,2023-07-24_21h29.59.814,arm3_eps,2022.2.5,MacIntel,59.95203837,5d2508273854c300016c04aa,64aea9d0f615b6559c281482,64bed128f73cb6b8c1d1cb6a,,,,,,,,,,,,,,,,,,,,,,
space,3.0658,966007,001,2023-07-24_21h29.59.814,arm3_eps,2022.2.5,MacIntel,59.95203837,5d2508273854c300016c04aa,64aea9d0f615b6559c281482,64bed128f73cb6b8c1d1cb6a,right,1,0.3,0.5,0,0.049289682,0.7552,,,,,,0,0,0,0,1,,,,,
,,966007,001,2023-07-24_21h29.59.814,arm3_eps,2022.2.5,MacIntel,59.95203837,5d2508273854c300016c04aa,64aea9d0f615b6559c281482,64bed128f73cb6b8c1d1cb6a,right,1,0.3,0.5,0,0.065849235,0.5735,,,,,,1,0,1,0,1,,,,,
,,966007,001,2023-07-24_21h29.59.814,arm3_eps,2022.2.5,MacIntel,59.95203837,5d2508273854c300016c04aa,64aea9d0f615b6559c281482,64bed128f73cb6b8c1d1cb6a,right,1,0.3,0.5,0,0.067450293,0.5987,,,,,,2,0,2,0,1,,,,,
,,966007,001,2023-07-24_21h29.59.814,arm3_eps,2022.2.5,MacIntel,59.95203837,5d2508273854c300016c04aa,64aea9d0f615b6559c281482,64bed128f73cb6b8c1d1cb6a,right,1,0.3,0.5,0,0.118182732,0.5829,,,,,,3,0,3,0,1,,,,,
,,966007,001,2023-07-24_21h29.59.814,arm3_eps,2022.2.5,MacIntel,59.95203837,5d2508273854c300016c04aa,64aea9d0f615b6559c281482,64bed128f73cb6b8c1d1cb6a,right,1,0.3,0.5,0,0.129760051,0.6145,,,,,,4,0,4,0,1,,,,,
,,966007,001,2023-07-24_21h29.59.814,arm3_eps,2022.2.5,MacIntel,59.95203837,5d2508273854c300016c04aa,64aea9d0f615b6559c281482,64bed128f73cb6b8c1d1cb6a,right,1,0.3,0.5,0,0.160014569,0.5653,,,,,,5,0,5,0,1,,,,,
,,966007,001,2023-07-24_21h29.59.814,arm3_eps,2022.2.5,MacIntel,59.95203837,5d2508273854c300016c04aa,64aea9d0f615b6559c281482,64bed128f73cb6b8c1d1cb6a,up,1,0.3,0.5,0,0,1.6767,,,,,,6,0,6,0,1,,,,,
,,966007,001,2023-07-24_21h29.59.814,arm3_eps,2022.2.5,MacIntel,59.95203837,5d2508273854c300016c04aa,64aea9d0f615b6559c281482,64bed128f73cb6b8c1d1cb6a,right,1,0.3,0.5,0,-0.011023026,2.8996,,,,,,7,0,7,0,1,,,,,
,,966007,001,2023-07-24_21h29.59.814,arm3_eps,2022.2.5,MacIntel,59.95203837,5d2508273854c300016c04aa,64aea9d0f615b6559c281482,64bed128f73cb6b8c1d1cb6a,right,1,0.3,0.5,0,0.007219853,0.4813,,,,,,8,0,8,0,1,,,,,
,,966007,001,2023-07-24_21h29.59.814,arm3_eps,2022.2.5,MacIntel,59.95203837,5d2508273854c300016c04aa,64aea9d0f615b6559c281482,64bed128f73cb6b8c1d1cb6a,right,1,0.3,0.5,0,0.0301292,0.6797,,,,,,9,0,9,0,1,,,,,
,,966007,001,2023-07-24_21h29.59.814,arm3_eps,2022.2.5,MacIntel,59.95203837,5d2508273854c300016c04aa,64aea9d0f615b6559c281482,64bed128f73cb6b8c1d1cb6a,up,-1,0.3,0.5,0,0,0.6508,,,,,,10,0,10,0,1,,,,,
,,966007,001,2023-07-24_21h29.59.814,arm3_eps,2022.2.5,MacIntel,59.95203837,5d2508273854c300016c04aa,64aea9d0f615b6559c281482,64bed128f73cb6b8c1d1cb6a,right,-1,0.3,0.5,0,-0.021751832,1.1089,,,,,,11,0,11,0,1,,,,,
,,966007,001,2023-07-24_21h29.59.814,arm3_eps,2022.2.5,MacIntel,59.95203837,5d2508273854c300016c04aa,64aea9d0f615b6559c281482,64bed128f73cb6b8c1d1cb6a,right,-1,0.3,0.5,0,-0.010947642,0.4981,,,,,,12,0,12,0,1,,,,,
,,966007,001,2023-07-24_21h29.59.814,arm3_eps,2022.2.5,MacIntel,59.95203837,5d2508273854c300016c04aa,64aea9d0f615b6559c281482,64bed128f73cb6b8c1d1cb6a,right,-1,0.3,0.5,0,0.006611303,0.4397,,,,,,13,0,13,0,1,,,,,
,,966007,001,2023-07-24_21h29.59.814,arm3_eps,2022.2.5,MacIntel,59.95203837,5d2508273854c300016c04aa,64aea9d0f615b6559c281482,64bed128f73cb6b8c1d1cb6a,right,-1,0.3,0.5,0,-0.016570554,0.5123,,,,,,14,0,14,0,1,,,,,
,,966007,001,2023-07-24_21h29.59.814,arm3_eps,2022.2.5,MacIntel,59.95203837,5d2508273854c300016c04aa,64aea9d0f615b6559c281482,64bed128f73cb6b8c1d1cb6a,right,-1,0.3,0.5,0,-0.02709299,0.4267,,,,,,15,0,15,0,1,,,,,
,,966007,001,2023-07-24_21h29.59.814,arm3_eps,2022.2.5,MacIntel,59.95203837,5d2508273854c300016c04aa,64aea9d0f615b6559c281482,64bed128f73cb6b8c1d1cb6a,down,-1,0.3,0.5,0,0,0.4069,,,,,,16,0,16,0,1,,,,,
,,966007,001,2023-07-24_21h29.59.814,arm3_eps,2022.2.5,MacIntel,59.95203837,5d2508273854c300016c04aa,64aea9d0f615b6559c281482,64bed128f73cb6b8c1d1cb6a,right,-1,0.3,0.5,0,-0.012319327,3.9677,,,,,,17,0,17,0,1,,,,,
,,966007,001,2023-07-24_21h29.59.814,arm3_eps,2022.2.5,MacIntel,59.95203837,5d2508273854c300016c04aa,64aea9d0f615b6559c281482,64bed128f73cb6b8c1d1cb6a,right,-1,0.3,0.5,0,-0.040583577,0.3677,,,,,,18,0,18,0,1,,,,,
,,966007,001,2023-07-24_21h29.59.814,arm3_eps,2022.2.5,MacIntel,59.95203837,5d2508273854c300016c04aa,64aea9d0f615b6559c281482,64bed128f73cb6b8c1d1cb6a,right,-1,0.3,0.5,0,-0.086947259,0.7407,,,,,,19,0,19,0,1,,,,,
,,966007,001,2023-07-24_21h29.59.814,arm3_eps,2022.2.5,MacIntel,59.95203837,5d2508273854c300016c04aa,64aea9d0f615b6559c281482,64bed128f73cb6b8c1d1cb6a,right,-1,0.3,0.5,0,-0.091528605,0.7479,,,,,,20,0,20,0,1,,,,,
,,966007,001,2023-07-24_21h29.59.814,arm3_eps,2022.2.5,MacIntel,59.95203837,5d2508273854c300016c04aa,64aea9d0f615b6559c281482,64bed128f73cb6b8c1d1cb6a,down,-1,0.3,0.5,0,0,0.5063,,,,,,21,0,21,0,1,,,,,
,,966007,001,2023-07-24_21h29.59.814,arm3_eps,2022.2.5,MacIntel,59.95203837,5d2508273854c300016c04aa,64aea9d0f615b6559c281482,64bed128f73cb6b8c1d1cb6a,right,-1,0.3,0.5,0,0.008219873,1.082,,,,,,22,0,22,0,1,,,,,
,,966007,001,2023-07-24_21h29.59.814,arm3_eps,2022.2.5,MacIntel,59.95203837,5d2508273854c300016c04aa,64aea9d0f615b6559c281482,64bed128f73cb6b8c1d1cb6a,right,-1,0.3,0.5,0,-0.047154551,0.5313,,,,,,23,0,23,0,1,,,,,
,,966007,001,2023-07-24_21h29.59.814,arm3_eps,2022.2.5,MacIntel,59.95203837,5d2508273854c300016c04aa,64aea9d0f615b6559c281482,64bed128f73cb6b8c1d1cb6a,right,-1,0.3,0.5,0,-0.022516688,0.3966,,,,,,24,0,24,0,1,,,,,
,,966007,001,2023-07-24_21h29.59.814,arm3_eps,2022.2.5,MacIntel,59.95203837,5d2508273854c300016c04aa,64aea9d0f615b6559c281482,64bed128f73cb6b8c1d1cb6a,right,-1,0.3,0.5,0,-0.03582549,0.3513,,,,,,25,0,25,0,1,,,,,
,,966007,001,2023-07-24_21h29.59.814,arm3_eps,2022.2.5,MacIntel,59.95203837,5d2508273854c300016c04aa,64aea9d0f615b6559c281482,64bed128f73cb6b8c1d1cb6a,right,-1,0.3,0.5,0,-0.053541012,0.3668,,,,,,26,0,26,0,1,,,,,
,,966007,001,2023-07-24_21h29.59.814,arm3_eps,2022.2.5,MacIntel,59.95203837,5d2508273854c300016c04aa,64aea9d0f615b6559c281482,64bed128f73cb6b8c1d1cb6a,right,-1,0.3,0.5,0,-0.078488226,0.3557,,,,,,27,0,27,0,1,,,,,
,,966007,001,2023-07-24_21h29.59.814,arm3_eps,2022.2.5,MacIntel,59.95203837,5d2508273854c300016c04aa,64aea9d0f615b6559c281482,64bed128f73cb6b8c1d1cb6a,right,-1,0.3,0.5,0,-0.094921786,0.5831,,,,,,28,0,28,0,1,,,,,
,,966007,001,2023-07-24_21h29.59.814,arm3_eps,2022.2.5,MacIntel,59.95203837,5d2508273854c300016c04aa,64aea9d0f615b6559c281482,64bed128f73cb6b8c1d1cb6a,up,-1,0.3,0.5,-1,0,0.8223,,,,,,29,0,29,0,1,,,,,
,,966007,001,2023-07-24_21h29.59.814,arm3_eps,2022.2.5,MacIntel,59.95203837,5d2508273854c300016c04aa,64aea9d0f615b6559c281482,64bed128f73cb6b8c1d1cb6a,right,-1,0.3,0.5,-1,-0.034929273,2.2141,,,,,,30,0,30,0,1,,,,,
,,966007,001,2023-07-24_21h29.59.814,arm3_eps,2022.2.5,MacIntel,59.95203837,5d2508273854c300016c04aa,64aea9d0f615b6559c281482,64bed128f73cb6b8c1d1cb6a,right,-1,0.3,0.5,-1,-0.070705619,0.3304,,,,,,31,0,31,0,1,,,,,
,,966007,001,2023-07-24_21h29.59.814,arm3_eps,2022.2.5,MacIntel,59.95203837,5d2508273854c300016c04aa,64aea9d0f615b6559c281482,64bed128f73cb6b8c1d1cb6a,right,-1,0.3,0.5,-1,-0.040197194,0.3503,,,,,,32,0,32,0,1,,,,,
,,966007,001,2023-07-24_21h29.59.814,arm3_eps,2022.2.5,MacIntel,59.95203837,5d2508273854c300016c04aa,64aea9d0f615b6559c281482,64bed128f73cb6b8c1d1cb6a,right,-1,0.3,0.5,-1,-0.037812793,0.3293,,,,,,33,0,33,0,1,,,,,
,,966007,001,2023-07-24_21h29.59.814,arm3_eps,2022.2.5,MacIntel,59.95203837,5d2508273854c300016c04aa,64aea9d0f615b6559c281482,64bed128f73cb6b8c1d1cb6a,right,-1,0.3,0.5,-1,-0.023390593,0.2813,,,,,,34,0,34,0,1,,,,,
,,966007,001,2023-07-24_21h29.59.814,arm3_eps,2022.2.5,MacIntel,59.95203837,5d2508273854c300016c04aa,64aea9d0f615b6559c281482,64bed128f73cb6b8c1d1cb6a,right,-1,0.3,0.5,-1,-0.018768506,0.3487,,,,,,35,0,35,0,1,,,,,
,,966007,001,2023-07-24_21h29.59.814,arm3_eps,2022.2.5,MacIntel,59.95203837,5d2508273854c300016c04aa,64aea9d0f615b6559c281482,64bed128f73cb6b8c1d1cb6a,right,-1,0.3,0.5,-1,-0.030023892,0.321,,,,,,36,0,36,0,1,,,,,
,,966007,001,2023-07-24_21h29.59.814,arm3_eps,2022.2.5,MacIntel,59.95203837,5d2508273854c300016c04aa,64aea9d0f615b6559c281482,64bed128f73cb6b8c1d1cb6a,down,-1,0.3,0.5,-1,0,0.5854,,,,,,37,0,37,0,1,,,,,
,,966007,001,2023-07-24_21h29.59.814,arm3_eps,2022.2.5,MacIntel,59.95203837,5d2508273854c300016c04aa,64aea9d0f615b6559c281482,64bed128f73cb6b8c1d1cb6a,right,-1,0.3,0.5,-1,-0.012111409,1.5684,,,,,,38,0,38,0,1,,,,,
,,966007,001,2023-07-24_21h29.59.814,arm3_eps,2022.2.5,MacIntel,59.95203837,5d2508273854c300016c04aa,64aea9d0f615b6559c281482,64bed128f73cb6b8c1d1cb6a,right,-1,0.3,0.5,-1,-0.033467405,0.3298,,,,,,39,0,39,0,1,,,,,
,,966007,001,2023-07-24_21h29.59.814,arm3_eps,2022.2.5,MacIntel,59.95203837,5d2508273854c300016c04aa,64aea9d0f615b6559c281482,64bed128f73cb6b8c1d1cb6a,right,-1,0.3,0.5,-1,0.001569309,0.2851,,,,,,40,0,40,0,1,,,,,
,,966007,001,2023-07-24_21h29.59.814,arm3_eps,2022.2.5,MacIntel,59.95203837,5d2508273854c300016c04aa,64aea9d0f615b6559c281482,64bed128f73cb6b8c1d1cb6a,right,-1,0.3,0.5,-1,-0.023920928,0.3509,,,,,,41,0,41,0,1,,,,,
,,966007,001,2023-07-24_21h29.59.814,arm3_eps,2022.2.5,MacIntel,59.95203837,5d2508273854c300016c04aa,64aea9d0f615b6559c281482,64bed128f73cb6b8c1d1cb6a,right,-1,0.3,0.5,-1,-0.030688332,0.3079,,,,,,42,0,42,0,1,,,,,
,,966007,001,2023-07-24_21h29.59.814,arm3_eps,2022.2.5,MacIntel,59.95203837,5d2508273854c300016c04aa,64aea9d0f615b6559c281482,64bed128f73cb6b8c1d1cb6a,right,-1,0.3,0.5,-1,-0.036682239,0.2664,,,,,,43,0,43,0,1,,,,,
,,966007,001,2023-07-24_21h29.59.814,arm3_eps,2022.2.5,MacIntel,59.95203837,5d2508273854c300016c04aa,64aea9d0f615b6559c281482,64bed128f73cb6b8c1d1cb6a,right,-1,0.3,0.5,-1,-0.018851312,0.5692,,,,,,44,0,44,0,1,,,,,
,,966007,001,2023-07-24_21h29.59.814,arm3_eps,2022.2.5,MacIntel,59.95203837,5d2508273854c300016c04aa,64aea9d0f615b6559c281482,64bed128f73cb6b8c1d1cb6a,right,-1,0.3,0.5,-1,-0.036944652,0.5154,,,,,,45,0,45,0,1,,,,,
,,966007,001,2023-07-24_21h29.59.814,arm3_eps,2022.2.5,MacIntel,59.95203837,5d2508273854c300016c04aa,64aea9d0f615b6559c281482,64bed128f73cb6b8c1d1cb6a,right,-1,0.3,0.5,-1,-0.039482027,0.3236,,,,,,46,0,46,0,1,,,,,
,,966007,001,2023-07-24_21h29.59.814,arm3_eps,2022.2.5,MacIntel,59.95203837,5d2508273854c300016c04aa,64aea9d0f615b6559c281482,64bed128f73cb6b8c1d1cb6a,down,-1,0.3,0.5,-1,0,0.6153,,,,,,47,0,47,0,1,,,,,
,,966007,001,2023-07-24_21h29.59.814,arm3_eps,2022.2.5,MacIntel,59.95203837,5d2508273854c300016c04aa,64aea9d0f615b6559c281482,64bed128f73cb6b8c1d1cb6a,right,-1,0.3,0.5,-1,0.017876069,1.0687,,,,,,48,0,48,0,1,,,,,
,,966007,001,2023-07-24_21h29.59.814,arm3_eps,2022.2.5,MacIntel,59.95203837,5d2508273854c300016c04aa,64aea9d0f615b6559c281482,64bed128f73cb6b8c1d1cb6a,right,-1,0.3,0.5,-1,0.003120455,0.2699,,,,,,49,0,49,0,1,,,,,
,,966007,001,2023-07-24_21h29.59.814,arm3_eps,2022.2.5,MacIntel,59.95203837,5d2508273854c300016c04aa,64aea9d0f615b6559c281482,64bed128f73cb6b8c1d1cb6a,right,-1,0.3,0.5,-1,-0.025573769,0.283,,,,,,50,0,50,0,1,,,,,
,,966007,001,2023-07-24_21h29.59.814,arm3_eps,2022.2.5,MacIntel,59.95203837,5d2508273854c300016c04aa,64aea9d0f615b6559c281482,64bed128f73cb6b8c1d1cb6a,right,-1,0.3,0.5,-1,-0.036446101,0.2714,,,,,,51,0,51,0,1,,,,,
,,966007,001,2023-07-24_21h29.59.814,arm3_eps,2022.2.5,MacIntel,59.95203837,5d2508273854c300016c04aa,64aea9d0f615b6559c281482,64bed128f73cb6b8c1d1cb6a,right,-1,0.3,0.5,-1,-0.05564095,0.2826,,,,,,52,0,52,0,1,,,,,
,,966007,001,2023-07-24_21h29.59.814,arm3_eps,2022.2.5,MacIntel,59.95203837,5d2508273854c300016c04aa,64aea9d0f615b6559c281482,64bed128f73cb6b8c1d1cb6a,right,-1,0.3,0.5,-1,-0.099572271,0.2337,,,,,,53,0,53,0,1,,,,,
,,966007,001,2023-07-24_21h29.59.814,arm3_eps,2022.2.5,MacIntel,59.95203837,5d2508273854c300016c04aa,64aea9d0f615b6559c281482,64bed128f73cb6b8c1d1cb6a,down,1,0.3,0.5,-1,0,0.4514,,,,,,54,0,54,0,1,,,,,
,,966007,001,2023-07-24_21h29.59.814,arm3_eps,2022.2.5,MacIntel,59.95203837,5d2508273854c300016c04aa,64aea9d0f615b6559c281482,64bed128f73cb6b8c1d1cb6a,right,1,0.3,0.5,-1,-0.004315585,1.1205,,,,,,55,0,55,0,1,,,,,
,,966007,001,2023-07-24_21h29.59.814,arm3_eps,2022.2.5,MacIntel,59.95203837,5d2508273854c300016c04aa,64aea9d0f615b6559c281482,64bed128f73cb6b8c1d1cb6a,right,1,0.3,0.5,-1,-0.029649573,0.2978,,,,,,56,0,56,0,1,,,,,
,,966007,001,2023-07-24_21h29.59.814,arm3_eps,2022.2.5,MacIntel,59.95203837,5d2508273854c300016c04aa,64aea9d0f615b6559c281482,64bed128f73cb6b8c1d1cb6a,right,1,0.3,0.5,-1,-0.028175988,0.2463,,,,,,57,0,57,0,1,,,,,
,,966007,001,2023-07-24_21h29.59.814,arm3_eps,2022.2.5,MacIntel,59.95203837,5d2508273854c300016c04aa,64aea9d0f615b6559c281482,64bed128f73cb6b8c1d1cb6a,right,1,0.3,0.5,-1,-0.019479671,0.2825,,,,,,58,0,58,0,1,,,,,
,,966007,001,2023-07-24_21h29.59.814,arm3_eps,2022.2.5,MacIntel,59.95203837,5d2508273854c300016c04aa,64aea9d0f615b6559c281482,64bed128f73cb6b8c1d1cb6a,right,1,0.3,0.5,-1,0.012631965,0.6313,,,,,,59,0,59,0,1,,,,,
,,966007,001,2023-07-24_21h29.59.814,arm3_eps,2022.2.5,MacIntel,59.95203837,5d2508273854c300016c04aa,64aea9d0f615b6559c281482,64bed128f73cb6b8c1d1cb6a,up,1,0.3,0.5,-1,0,0.3995,,,,,,60,0,60,0,1,,,,,
,,966007,001,2023-07-24_21h29.59.814,arm3_eps,2022.2.5,MacIntel,59.95203837,5d2508273854c300016c04aa,64aea9d0f615b6559c281482,64bed128f73cb6b8c1d1cb6a,right,1,0.3,0.5,-1,0.030901206,2.1104,,,,,,61,0,61,0,1,,,,,
,,966007,001,2023-07-24_21h29.59.814,arm3_eps,2022.2.5,MacIntel,59.95203837,5d2508273854c300016c04aa,64aea9d0f615b6559c281482,64bed128f73cb6b8c1d1cb6a,right,1,0.3,0.5,-1,0.047446979,0.3902,,,,,,62,0,62,0,1,,,,,
,,966007,001,2023-07-24_21h29.59.814,arm3_eps,2022.2.5,MacIntel,59.95203837,5d2508273854c300016c04aa,64aea9d0f615b6559c281482,64bed128f73cb6b8c1d1cb6a,right,1,0.3,0.5,-1,0.040461789,0.2817,,,,,,63,0,63,0,1,,,,,
,,966007,001,2023-07-24_21h29.59.814,arm3_eps,2022.2.5,MacIntel,59.95203837,5d2508273854c300016c04aa,64aea9d0f615b6559c281482,64bed128f73cb6b8c1d1cb6a,right,1,0.3,0.5,-1,0.040209798,0.264,,,,,,64,0,64,0,1,,,,,
,,966007,001,2023-07-24_21h29.59.814,arm3_eps,2022.2.5,MacIntel,59.95203837,5d2508273854c300016c04aa,64aea9d0f615b6559c281482,64bed128f73cb6b8c1d1cb6a,right,1,0.3,0.5,-1,0.032346114,0.214,,,,,,65,0,65,0,1,,,,,
,,966007,001,2023-07-24_21h29.59.814,arm3_eps,2022.2.5,MacIntel,59.95203837,5d2508273854c300016c04aa,64aea9d0f615b6559c281482,64bed128f73cb6b8c1d1cb6a,right,1,0.3,0.5,-1,0.06572001,0.3836,,,,,,66,0,66,0,1,,,,,
,,966007,001,2023-07-24_21h29.59.814,arm3_eps,2022.2.5,MacIntel,59.95203837,5d2508273854c300016c04aa,64aea9d0f615b6559c281482,64bed128f73cb6b8c1d1cb6a,right,1,0.3,0.5,-1,0.063771827,0.3009,,,,,,67,0,67,0,1,,,,,
,,966007,001,2023-07-24_21h29.59.814,arm3_eps,2022.2.5,MacIntel,59.95203837,5d2508273854c300016c04aa,64aea9d0f615b6559c281482,64bed128f73cb6b8c1d1cb6a,right,1,0.3,0.5,-1,0.069727735,0.3138,,,,,,68,0,68,0,1,,,,,
,,966007,001,2023-07-24_21h29.59.814,arm3_eps,2022.2.5,MacIntel,59.95203837,5d2508273854c300016c04aa,64aea9d0f615b6559c281482,64bed128f73cb6b8c1d1cb6a,right,1,0.3,0.5,-1,0.065721897,0.5843,,,,,,69,0,69,0,1,,,,,
,,966007,001,2023-07-24_21h29.59.814,arm3_eps,2022.2.5,MacIntel,59.95203837,5d2508273854c300016c04aa,64aea9d0f615b6559c281482,64bed128f73cb6b8c1d1cb6a,up,1,0.3,0.5,0,0,1.3532,,,,,,70,0,70,0,1,,,,,
,,966007,001,2023-07-24_21h29.59.814,arm3_eps,2022.2.5,MacIntel,59.95203837,5d2508273854c300016c04aa,64aea9d0f615b6559c281482,64bed128f73cb6b8c1d1cb6a,right,1,0.3,0.5,0,0.014150142,2.4972,,,,,,71,0,71,0,1,,,,,
,,966007,001,2023-07-24_21h29.59.814,arm3_eps,2022.2.5,MacIntel,59.95203837,5d2508273854c300016c04aa,64aea9d0f615b6559c281482,64bed128f73cb6b8c1d1cb6a,right,1,0.3,0.5,0,0.021438468,0.3339,,,,,,72,0,72,0,1,,,,,
,,966007,001,2023-07-24_21h29.59.814,arm3_eps,2022.2.5,MacIntel,59.95203837,5d2508273854c300016c04aa,64aea9d0f615b6559c281482,64bed128f73cb6b8c1d1cb6a,right,1,0.3,0.5,0,0.021767675,0.2349,,,,,,73,0,73,0,1,,,,,
,,966007,001,2023-07-24_21h29.59.814,arm3_eps,2022.2.5,MacIntel,59.95203837,5d2508273854c300016c04aa,64aea9d0f615b6559c281482,64bed128f73cb6b8c1d1cb6a,right,1,0.3,0.5,0,0.025676255,0.2659,,,,,,74,0,74,0,1,,,,,
,,966007,001,2023-07-24_21h29.59.814,arm3_eps,2022.2.5,MacIntel,59.95203837,5d2508273854c300016c04aa,64aea9d0f615b6559c281482,64bed128f73cb6b8c1d1cb6a,right,1,0.3,0.5,0,0.000420461,0.4552,,,,,,75,0,75,0,1,,,,,
,,966007,001,2023-07-24_21h29.59.814,arm3_eps,2022.2.5,MacIntel,59.95203837,5d2508273854c300016c04aa,64aea9d0f615b6559c281482,64bed128f73cb6b8c1d1cb6a,right,1,0.3,0.5,0,0.043474202,0.2504,,,,,,76,0,76,0,1,,,,,
,,966007,001,2023-07-24_21h29.59.814,arm3_eps,2022.2.5,MacIntel,59.95203837,5d2508273854c300016c04aa,64aea9d0f615b6559c281482,64bed128f73cb6b8c1d1cb6a,right,1,0.3,0.5,0,0.059749601,0.457,,,,,,77,0,77,0,1,,,,,
,,966007,001,2023-07-24_21h29.59.814,arm3_eps,2022.2.5,MacIntel,59.95203837,5d2508273854c300016c04aa,64aea9d0f615b6559c281482,64bed128f73cb6b8c1d1cb6a,up,-1,0.3,0.5,0,0,0.4299,,,,,,78,0,78,0,1,,,,,
,,966007,001,2023-07-24_21h29.59.814,arm3_eps,2022.2.5,MacIntel,59.95203837,5d2508273854c300016c04aa,64aea9d0f615b6559c281482,64bed128f73cb6b8c1d1cb6a,right,-1,0.3,0.5,0,-0.006308038,1.1525,,,,,,79,0,79,0,1,,,,,
,,966007,001,2023-07-24_21h29.59.814,arm3_eps,2022.2.5,MacIntel,59.95203837,5d2508273854c300016c04aa,64aea9d0f615b6559c281482,64bed128f73cb6b8c1d1cb6a,right,-1,0.3,0.5,0,-0.023869279,0.3252,,,,,,80,0,80,0,1,,,,,
,,966007,001,2023-07-24_21h29.59.814,arm3_eps,2022.2.5,MacIntel,59.95203837,5d2508273854c300016c04aa,64aea9d0f615b6559c281482,64bed128f73cb6b8c1d1cb6a,right,-1,0.3,0.5,0,-0.057191119,0.25,,,,,,81,0,81,0,1,,,,,
,,966007,001,2023-07-24_21h29.59.814,arm3_eps,2022.2.5,MacIntel,59.95203837,5d2508273854c300016c04aa,64aea9d0f615b6559c281482,64bed128f73cb6b8c1d1cb6a,right,-1,0.3,0.5,0,-0.054200004,0.264,,,,,,82,0,82,0,1,,,,,
,,966007,001,2023-07-24_21h29.59.814,arm3_eps,2022.2.5,MacIntel,59.95203837,5d2508273854c300016c04aa,64aea9d0f615b6559c281482,64bed128f73cb6b8c1d1cb6a,right,-1,0.3,0.5,0,-0.09098759,0.3035,,,,,,83,0,83,0,1,,,,,
,,966007,001,2023-07-24_21h29.59.814,arm3_eps,2022.2.5,MacIntel,59.95203837,5d2508273854c300016c04aa,64aea9d0f615b6559c281482,64bed128f73cb6b8c1d1cb6a,down,1,0.3,0.5,1,0,0.3813,,,,,,84,0,84,0,1,,,,,
,,966007,001,2023-07-24_21h29.59.814,arm3_eps,2022.2.5,MacIntel,59.95203837,5d2508273854c300016c04aa,64aea9d0f615b6559c281482,64bed128f73cb6b8c1d1cb6a,right,1,0.3,0.5,1,0.020005555,2.0817,,,,,,85,0,85,0,1,,,,,
,,966007,001,2023-07-24_21h29.59.814,arm3_eps,2022.2.5,MacIntel,59.95203837,5d2508273854c300016c04aa,64aea9d0f615b6559c281482,64bed128f73cb6b8c1d1cb6a,right,1,0.3,0.5,1,0.035968804,0.2689,,,,,,86,0,86,0,1,,,,,
,,966007,001,2023-07-24_21h29.59.814,arm3_eps,2022.2.5,MacIntel,59.95203837,5d2508273854c300016c04aa,64aea9d0f615b6559c281482,64bed128f73cb6b8c1d1cb6a,right,1,0.3,0.5,1,0.076231524,0.2659,,,,,,87,0,87,0,1,,,,,
,,966007,001,2023-07-24_21h29.59.814,arm3_eps,2022.2.5,MacIntel,59.95203837,5d2508273854c300016c04aa,64aea9d0f615b6559c281482,64bed128f73cb6b8c1d1cb6a,right,1,0.3,0.5,1,0.072591094,0.2969,,,,,,88,0,88,0,1,,,,,
,,966007,001,2023-07-24_21h29.59.814,arm3_eps,2022.2.5,MacIntel,59.95203837,5d2508273854c300016c04aa,64aea9d0f615b6559c281482,64bed128f73cb6b8c1d1cb6a,right,1,0.3,0.5,1,0.082233288,0.254,,,,,,89,0,89,0,1,,,,,
,,966007,001,2023-07-24_21h29.59.814,arm3_eps,2022.2.5,MacIntel,59.95203837,5d2508273854c300016c04aa,64aea9d0f615b6559c281482,64bed128f73cb6b8c1d1cb6a,up,1,0.3,0.5,2,0,0.518,,,,,,90,0,90,0,1,,,,,
,,966007,001,2023-07-24_21h29.59.814,arm3_eps,2022.2.5,MacIntel,59.95203837,5d2508273854c300016c04aa,64aea9d0f615b6559c281482,64bed128f73cb6b8c1d1cb6a,right,1,0.3,0.5,2,0.027594923,3.4425,,,,,,91,0,91,0,1,,,,,
,,966007,001,2023-07-24_21h29.59.814,arm3_eps,2022.2.5,MacIntel,59.95203837,5d2508273854c300016c04aa,64aea9d0f615b6559c281482,64bed128f73cb6b8c1d1cb6a,right,1,0.3,0.5,2,0.02888202,0.2767,,,,,,92,0,92,0,1,,,,,
,,966007,001,2023-07-24_21h29.59.814,arm3_eps,2022.2.5,MacIntel,59.95203837,5d2508273854c300016c04aa,64aea9d0f615b6559c281482,64bed128f73cb6b8c1d1cb6a,right,1,0.3,0.5,2,0.031771777,0.2676,,,,,,93,0,93,0,1,,,,,
,,966007,001,2023-07-24_21h29.59.814,arm3_eps,2022.2.5,MacIntel,59.95203837,5d2508273854c300016c04aa,64aea9d0f615b6559c281482,64bed128f73cb6b8c1d1cb6a,right,1,0.3,0.5,2,0.028613298,0.2664,,,,,,94,0,94,0,1,,,,,
,,966007,001,2023-07-24_21h29.59.814,arm3_eps,2022.2.5,MacIntel,59.95203837,5d2508273854c300016c04aa,64aea9d0f615b6559c281482,64bed128f73cb6b8c1d1cb6a,right,1,0.3,0.5,2,-0.021147622,0.502,,,,,,95,0,95,0,1,,,,,
,,966007,001,2023-07-24_21h29.59.814,arm3_eps,2022.2.5,MacIntel,59.95203837,5d2508273854c300016c04aa,64aea9d0f615b6559c281482,64bed128f73cb6b8c1d1cb6a,down,1,0.3,0.5,2,0,0.4826,,,,,,96,0,96,0,1,,,,,
,,966007,001,2023-07-24_21h29.59.814,arm3_eps,2022.2.5,MacIntel,59.95203837,5d2508273854c300016c04aa,64aea9d0f615b6559c281482,64bed128f73cb6b8c1d1cb6a,right,1,0.3,0.5,2,0.024506625,0.9736,,,,,,97,0,97,0,1,,,,,
,,966007,001,2023-07-24_21h29.59.814,arm3_eps,2022.2.5,MacIntel,59.95203837,5d2508273854c300016c04aa,64aea9d0f615b6559c281482,64bed128f73cb6b8c1d1cb6a,right,1,0.3,0.5,2,0.017026375,0.2318,,,,,,98,0,98,0,1,,,,,
,,966007,001,2023-07-24_21h29.59.814,arm3_eps,2022.2.5,MacIntel,59.95203837,5d2508273854c300016c04aa,64aea9d0f615b6559c281482,64bed128f73cb6b8c1d1cb6a,right,1,0.3,0.5,2,0.006164057,0.2269,,,,,,99,0,99,0,1,,,,,
,,966007,001,2023-07-24_21h29.59.814,arm3_eps,2022.2.5,MacIntel,59.95203837,5d2508273854c300016c04aa,64aea9d0f615b6559c281482,64bed128f73cb6b8c1d1cb6a,right,1,0.3,0.5,2,-0.003663983,0.2341,,,,,,100,0,100,0,1,,,,,
,,966007,001,2023-07-24_21h29.59.814,arm3_eps,2022.2.5,MacIntel,59.95203837,5d2508273854c300016c04aa,64aea9d0f615b6559c281482,64bed128f73cb6b8c1d1cb6a,right,1,0.3,0.5,2,0.005590072,0.3164,,,,,,101,0,101,0,1,,,,,
,,966007,001,2023-07-24_21h29.59.814,arm3_eps,2022.2.5,MacIntel,59.95203837,5d2508273854c300016c04aa,64aea9d0f615b6559c281482,64bed128f73cb6b8c1d1cb6a,right,1,0.3,0.5,2,-0.001579085,0.2731,,,,,,102,0,102,0,1,,,,,
,,966007,001,2023-07-24_21h29.59.814,arm3_eps,2022.2.5,MacIntel,59.95203837,5d2508273854c300016c04aa,64aea9d0f615b6559c281482,64bed128f73cb6b8c1d1cb6a,right,1,0.3,0.5,2,0.024680573,0.5178,,,,,,103,0,103,0,1,,,,,
,,966007,001,2023-07-24_21h29.59.814,arm3_eps,2022.2.5,MacIntel,59.95203837,5d2508273854c300016c04aa,64aea9d0f615b6559c281482,64bed128f73cb6b8c1d1cb6a,right,1,0.3,0.5,2,0.02919195,0.3659,,,,,,104,0,104,0,1,,,,,
,,966007,001,2023-07-24_21h29.59.814,arm3_eps,2022.2.5,MacIntel,59.95203837,5d2508273854c300016c04aa,64aea9d0f615b6559c281482,64bed128f73cb6b8c1d1cb6a,up,1,0.3,0.5,2,0,0.5674,,,,,,105,0,105,0,1,,,,,
,,966007,001,2023-07-24_21h29.59.814,arm3_eps,2022.2.5,MacIntel,59.95203837,5d2508273854c300016c04aa,64aea9d0f615b6559c281482,64bed128f73cb6b8c1d1cb6a,right,1,0.3,0.5,2,0.00731231,1.0566,,,,,,106,0,106,0,1,,,,,
,,966007,001,2023-07-24_21h29.59.814,arm3_eps,2022.2.5,MacIntel,59.95203837,5d2508273854c300016c04aa,64aea9d0f615b6559c281482,64bed128f73cb6b8c1d1cb6a,right,1,0.3,0.5,2,0.000530178,0.1973,,,,,,107,0,107,0,1,,,,,
,,966007,001,2023-07-24_21h29.59.814,arm3_eps,2022.2.5,MacIntel,59.95203837,5d2508273854c300016c04aa,64aea9d0f615b6559c281482,64bed128f73cb6b8c1d1cb6a,right,1,0.3,0.5,2,0.006616121,0.2333,,,,,,108,0,108,0,1,,,,,
,,966007,001,2023-07-24_21h29.59.814,arm3_eps,2022.2.5,MacIntel,59.95203837,5d2508273854c300016c04aa,64aea9d0f615b6559c281482,64bed128f73cb6b8c1d1cb6a,right,1,0.3,0.5,2,0.015982452,0.2739,,,,,,109,0,109,0,1,,,,,
,,966007,001,2023-07-24_21h29.59.814,arm3_eps,2022.2.5,MacIntel,59.95203837,5d2508273854c300016c04aa,64aea9d0f615b6559c281482,64bed128f73cb6b8c1d1cb6a,right,1,0.3,0.5,2,0.049077258,0.2496,,,,,,110,0,110,0,1,,,,,
,,966007,001,2023-07-24_21h29.59.814,arm3_eps,2022.2.5,MacIntel,59.95203837,5d2508273854c300016c04aa,64aea9d0f615b6559c281482,64bed128f73cb6b8c1d1cb6a,up,-1,0.3,0.5,3,0,0.4511,,,,,,111,0,111,0,1,,,,,
,,966007,001,2023-07-24_21h29.59.814,arm3_eps,2022.2.5,MacIntel,59.95203837,5d2508273854c300016c04aa,64aea9d0f615b6559c281482,64bed128f73cb6b8c1d1cb6a,right,-1,0.3,0.5,3,0.013688436,2.6337,,,,,,112,0,112,0,1,,,,,
,,966007,001,2023-07-24_21h29.59.814,arm3_eps,2022.2.5,MacIntel,59.95203837,5d2508273854c300016c04aa,64aea9d0f615b6559c281482,64bed128f73cb6b8c1d1cb6a,right,-1,0.3,0.5,3,0.001236201,0.0551,,,,,,113,0,113,0,1,,,,,
,,966007,001,2023-07-24_21h29.59.814,arm3_eps,2022.2.5,MacIntel,59.95203837,5d2508273854c300016c04aa,64aea9d0f615b6559c281482,64bed128f73cb6b8c1d1cb6a,right,-1,0.3,0.5,3,0.011447783,0.2652,,,,,,114,0,114,0,1,,,,,
,,966007,001,2023-07-24_21h29.59.814,arm3_eps,2022.2.5,MacIntel,59.95203837,5d2508273854c300016c04aa,64aea9d0f615b6559c281482,64bed128f73cb6b8c1d1cb6a,right,-1,0.3,0.5,3,0.004995693,0.3975,,,,,,115,0,115,0,1,,,,,
,,966007,001,2023-07-24_21h29.59.814,arm3_eps,2022.2.5,MacIntel,59.95203837,5d2508273854c300016c04aa,64aea9d0f615b6559c281482,64bed128f73cb6b8c1d1cb6a,right,-1,0.3,0.5,3,0.019754677,0.9237,,,,,,116,0,116,0,1,,,,,
,,966007,001,2023-07-24_21h29.59.814,arm3_eps,2022.2.5,MacIntel,59.95203837,5d2508273854c300016c04aa,64aea9d0f615b6559c281482,64bed128f73cb6b8c1d1cb6a,right,-1,0.3,0.5,3,0.05525882,0.1816,,,,,,117,0,117,0,1,,,,,
,,966007,001,2023-07-24_21h29.59.814,arm3_eps,2022.2.5,MacIntel,59.95203837,5d2508273854c300016c04aa,64aea9d0f615b6559c281482,64bed128f73cb6b8c1d1cb6a,up,-1,0.3,0.5,3,0,0.519,,,,,,118,0,118,0,1,,,,,
,,966007,001,2023-07-24_21h29.59.814,arm3_eps,2022.2.5,MacIntel,59.95203837,5d2508273854c300016c04aa,64aea9d0f615b6559c281482,64bed128f73cb6b8c1d1cb6a,right,-1,0.3,0.5,3,0.022294913,0.9129,,,,,,119,0,119,0,1,,,,,
,,966007,001,2023-07-24_21h29.59.814,arm3_eps,2022.2.5,MacIntel,59.95203837,5d2508273854c300016c04aa,64aea9d0f615b6559c281482,64bed128f73cb6b8c1d1cb6a,right,-1,0.3,0.5,3,0.028118898,0.2157,,,,,,120,0,120,0,1,,,,,
,,966007,001,2023-07-24_21h29.59.814,arm3_eps,2022.2.5,MacIntel,59.95203837,5d2508273854c300016c04aa,64aea9d0f615b6559c281482,64bed128f73cb6b8c1d1cb6a,right,-1,0.3,0.5,3,0.02508644,0.217,,,,,,121,0,121,0,1,,,,,
,,966007,001,2023-07-24_21h29.59.814,arm3_eps,2022.2.5,MacIntel,59.95203837,5d2508273854c300016c04aa,64aea9d0f615b6559c281482,64bed128f73cb6b8c1d1cb6a,right,-1,0.3,0.5,3,-0.012037343,0.2674,,,,,,122,0,122,0,1,,,,,
,,966007,001,2023-07-24_21h29.59.814,arm3_eps,2022.2.5,MacIntel,59.95203837,5d2508273854c300016c04aa,64aea9d0f615b6559c281482,64bed128f73cb6b8c1d1cb6a,right,-1,0.3,0.5,3,-0.025296401,0.2312,,,,,,123,0,123,0,1,,,,,
,,966007,001,2023-07-24_21h29.59.814,arm3_eps,2022.2.5,MacIntel,59.95203837,5d2508273854c300016c04aa,64aea9d0f615b6559c281482,64bed128f73cb6b8c1d1cb6a,right,-1,0.3,0.5,3,-0.045692124,0.2119,,,,,,124,0,124,0,1,,,,,
,,966007,001,2023-07-24_21h29.59.814,arm3_eps,2022.2.5,MacIntel,59.95203837,5d2508273854c300016c04aa,64aea9d0f615b6559c281482,64bed128f73cb6b8c1d1cb6a,right,-1,0.3,0.5,3,-0.050191145,0.1468,,,,,,125,0,125,0,1,,,,,
,,966007,001,2023-07-24_21h29.59.814,arm3_eps,2022.2.5,MacIntel,59.95203837,5d2508273854c300016c04aa,64aea9d0f615b6559c281482,64bed128f73cb6b8c1d1cb6a,down,-1,0.3,0.5,4,0,0.4869,,,,,,126,0,126,0,1,,,,,
,,966007,001,2023-07-24_21h29.59.814,arm3_eps,2022.2.5,MacIntel,59.95203837,5d2508273854c300016c04aa,64aea9d0f615b6559c281482,64bed128f73cb6b8c1d1cb6a,right,-1,0.3,0.5,4,-0.02038663,1.0641,,,,,,127,0,127,0,1,,,,,
,,966007,001,2023-07-24_21h29.59.814,arm3_eps,2022.2.5,MacIntel,59.95203837,5d2508273854c300016c04aa,64aea9d0f615b6559c281482,64bed128f73cb6b8c1d1cb6a,right,-1,0.3,0.5,4,-0.008231583,0.3659,,,,,,128,0,128,0,1,,,,,
,,966007,001,2023-07-24_21h29.59.814,arm3_eps,2022.2.5,MacIntel,59.95203837,5d2508273854c300016c04aa,64aea9d0f615b6559c281482,64bed128f73cb6b8c1d1cb6a,right,-1,0.3,0.5,4,-0.043216739,0.1989,,,,,,129,0,129,0,1,,,,,
,,966007,001,2023-07-24_21h29.59.814,arm3_eps,2022.2.5,MacIntel,59.95203837,5d2508273854c300016c04aa,64aea9d0f615b6559c281482,64bed128f73cb6b8c1d1cb6a,right,-1,0.3,0.5,4,-0.067243774,0.2322,,,,,,130,0,130,0,1,,,,,
,,966007,001,2023-07-24_21h29.59.814,arm3_eps,2022.2.5,MacIntel,59.95203837,5d2508273854c300016c04aa,64aea9d0f615b6559c281482,64bed128f73cb6b8c1d1cb6a,right,-1,0.3,0.5,4,-0.07536169,0.1741,,,,,,131,0,131,0,1,,,,,
,,966007,001,2023-07-24_21h29.59.814,arm3_eps,2022.2.5,MacIntel,59.95203837,5d2508273854c300016c04aa,64aea9d0f615b6559c281482,64bed128f73cb6b8c1d1cb6a,right,-1,0.3,0.5,4,-0.089122097,0.1403,,,,,,132,0,132,0,1,,,,,
,,966007,001,2023-07-24_21h29.59.814,arm3_eps,2022.2.5,MacIntel,59.95203837,5d2508273854c300016c04aa,64aea9d0f615b6559c281482,64bed128f73cb6b8c1d1cb6a,right,-1,0.3,0.5,4,-0.080454194,0.7344,,,,,,133,0,133,0,1,,,,,
,,966007,001,2023-07-24_21h29.59.814,arm3_eps,2022.2.5,MacIntel,59.95203837,5d2508273854c300016c04aa,64aea9d0f615b6559c281482,64bed128f73cb6b8c1d1cb6a,right,-1,0.3,0.5,4,-0.081911342,0.3505,,,,,,134,0,134,0,1,,,,,
,,966007,001,2023-07-24_21h29.59.814,arm3_eps,2022.2.5,MacIntel,59.95203837,5d2508273854c300016c04aa,64aea9d0f615b6559c281482,64bed128f73cb6b8c1d1cb6a,right,-1,0.3,0.5,4,-0.110692559,0.317,,,,,,135,0,135,0,1,,,,,
,,966007,001,2023-07-24_21h29.59.814,arm3_eps,2022.2.5,MacIntel,59.95203837,5d2508273854c300016c04aa,64aea9d0f615b6559c281482,64bed128f73cb6b8c1d1cb6a,down,-1,0.3,0.5,4,0,0.2965,,,,,,136,0,136,0,1,,,,,
,,966007,001,2023-07-24_21h29.59.814,arm3_eps,2022.2.5,MacIntel,59.95203837,5d2508273854c300016c04aa,64aea9d0f615b6559c281482,64bed128f73cb6b8c1d1cb6a,right,-1,0.3,0.5,4,-0.021596877,0.9041,,,,,,137,0,137,0,1,,,,,
,,966007,001,2023-07-24_21h29.59.814,arm3_eps,2022.2.5,MacIntel,59.95203837,5d2508273854c300016c04aa,64aea9d0f615b6559c281482,64bed128f73cb6b8c1d1cb6a,right,-1,0.3,0.5,4,-0.004474669,0.1827,,,,,,138,0,138,0,1,,,,,
,,966007,001,2023-07-24_21h29.59.814,arm3_eps,2022.2.5,MacIntel,59.95203837,5d2508273854c300016c04aa,64aea9d0f615b6559c281482,64bed128f73cb6b8c1d1cb6a,right,-1,0.3,0.5,4,-0.011300864,0.184,,,,,,139,0,139,0,1,,,,,
,,966007,001,2023-07-24_21h29.59.814,arm3_eps,2022.2.5,MacIntel,59.95203837,5d2508273854c300016c04aa,64aea9d0f615b6559c281482,64bed128f73cb6b8c1d1cb6a,right,-1,0.3,0.5,4,-0.053058503,0.1486,,,,,,140,0,140,0,1,,,,,
,,966007,001,2023-07-24_21h29.59.814,arm3_eps,2022.2.5,MacIntel,59.95203837,5d2508273854c300016c04aa,64aea9d0f615b6559c281482,64bed128f73cb6b8c1d1cb6a,right,-1,0.3,0.5,4,-0.055658782,0.1735,,,,,,141,0,141,0,1,,,,,
,,966007,001,2023-07-24_21h29.59.814,arm3_eps,2022.2.5,MacIntel,59.95203837,5d2508273854c300016c04aa,64aea9d0f615b6559c281482,64bed128f73cb6b8c1d1cb6a,right,-1,0.3,0.5,4,-0.083182274,0.2359,,,,,,142,0,142,0,1,,,,,
,,966007,001,2023-07-24_21h29.59.814,arm3_eps,2022.2.5,MacIntel,59.95203837,5d2508273854c300016c04aa,64aea9d0f615b6559c281482,64bed128f73cb6b8c1d1cb6a,down,1,0.3,0.5,4,0,0.3487,,,,,,143,0,143,0,1,,,,,
,,966007,001,2023-07-24_21h29.59.814,arm3_eps,2022.2.5,MacIntel,59.95203837,5d2508273854c300016c04aa,64aea9d0f615b6559c281482,64bed128f73cb6b8c1d1cb6a,right,1,0.3,0.5,4,0.000856343,0.8578,,,,,,144,0,144,0,1,,,,,
,,966007,001,2023-07-24_21h29.59.814,arm3_eps,2022.2.5,MacIntel,59.95203837,5d2508273854c300016c04aa,64aea9d0f615b6559c281482,64bed128f73cb6b8c1d1cb6a,right,1,0.3,0.5,4,0.004131442,0.2258,,,,,,145,0,145,0,1,,,,,
,,966007,001,2023-07-24_21h29.59.814,arm3_eps,2022.2.5,MacIntel,59.95203837,5d2508273854c300016c04aa,64aea9d0f615b6559c281482,64bed128f73cb6b8c1d1cb6a,right,1,0.3,0.5,4,-0.016427743,0.1824,,,,,,146,0,146,0,1,,,,,
,,966007,001,2023-07-24_21h29.59.814,arm3_eps,2022.2.5,MacIntel,59.95203837,5d2508273854c300016c04aa,64aea9d0f615b6559c281482,64bed128f73cb6b8c1d1cb6a,right,1,0.3,0.5,4,0.026818174,0.1989,,,,,,147,0,147,0,1,,,,,
,,966007,001,2023-07-24_21h29.59.814,arm3_eps,2022.2.5,MacIntel,59.95203837,5d2508273854c300016c04aa,64aea9d0f615b6559c281482,64bed128f73cb6b8c1d1cb6a,right,1,0.3,0.5,4,0.044864034,0.2345,,,,,,148,0,148,0,1,,,,,
,,966007,001,2023-07-24_21h29.59.814,arm3_eps,2022.2.5,MacIntel,59.95203837,5d2508273854c300016c04aa,64aea9d0f615b6559c281482,64bed128f73cb6b8c1d1cb6a,up,1,0.3,0.5,5,0,0.555,,,,,,149,0,149,0,1,,,,,
,,966007,001,2023-07-24_21h29.59.814,arm3_eps,2022.2.5,MacIntel,59.95203837,5d2508273854c300016c04aa,64aea9d0f615b6559c281482,64bed128f73cb6b8c1d1cb6a,right,1,0.3,0.5,5,0.03602228,0.9972,,,,,,150,0,150,0,1,,,,,
,,966007,001,2023-07-24_21h29.59.814,arm3_eps,2022.2.5,MacIntel,59.95203837,5d2508273854c300016c04aa,64aea9d0f615b6559c281482,64bed128f73cb6b8c1d1cb6a,right,1,0.3,0.5,5,0.065434281,0.1972,,,,,,151,0,151,0,1,,,,,
,,966007,001,2023-07-24_21h29.59.814,arm3_eps,2022.2.5,MacIntel,59.95203837,5d2508273854c300016c04aa,64aea9d0f615b6559c281482,64bed128f73cb6b8c1d1cb6a,right,1,0.3,0.5,5,0.097625634,0.1531,,,,,,152,0,152,0,1,,,,,
,,966007,001,2023-07-24_21h29.59.814,arm3_eps,2022.2.5,MacIntel,59.95203837,5d2508273854c300016c04aa,64aea9d0f615b6559c281482,64bed128f73cb6b8c1d1cb6a,right,1,0.3,0.5,5,0.098479196,0.1691,,,,,,153,0,153,0,1,,,,,
,,966007,001,2023-07-24_21h29.59.814,arm3_eps,2022.2.5,MacIntel,59.95203837,5d2508273854c300016c04aa,64aea9d0f615b6559c281482,64bed128f73cb6b8c1d1cb6a,right,1,0.3,0.5,5,0.111171942,0.1566,,,,,,154,0,154,0,1,,,,,
,,966007,001,2023-07-24_21h29.59.814,arm3_eps,2022.2.5,MacIntel,59.95203837,5d2508273854c300016c04aa,64aea9d0f615b6559c281482,64bed128f73cb6b8c1d1cb6a,right,1,0.3,0.5,5,0.130598071,0.2857,,,,,,155,0,155,0,1,,,,,
,,966007,001,2023-07-24_21h29.59.814,arm3_eps,2022.2.5,MacIntel,59.95203837,5d2508273854c300016c04aa,64aea9d0f615b6559c281482,64bed128f73cb6b8c1d1cb6a,up,-1,0.3,0.5,6,0,0.3815,,,,,,156,0,156,0,1,,,,,
,,966007,001,2023-07-24_21h29.59.814,arm3_eps,2022.2.5,MacIntel,59.95203837,5d2508273854c300016c04aa,64aea9d0f615b6559c281482,64bed128f73cb6b8c1d1cb6a,right,-1,0.3,0.5,6,-0.02588323,1.701,,,,,,157,0,157,0,1,,,,,
,,966007,001,2023-07-24_21h29.59.814,arm3_eps,2022.2.5,MacIntel,59.95203837,5d2508273854c300016c04aa,64aea9d0f615b6559c281482,64bed128f73cb6b8c1d1cb6a,right,-1,0.3,0.5,6,-0.015187781,0.215,,,,,,158,0,158,0,1,,,,,
,,966007,001,2023-07-24_21h29.59.814,arm3_eps,2022.2.5,MacIntel,59.95203837,5d2508273854c300016c04aa,64aea9d0f615b6559c281482,64bed128f73cb6b8c1d1cb6a,right,-1,0.3,0.5,6,-0.017704141,0.1792,,,,,,159,0,159,0,1,,,,,
,,966007,001,2023-07-24_21h29.59.814,arm3_eps,2022.2.5,MacIntel,59.95203837,5d2508273854c300016c04aa,64aea9d0f615b6559c281482,64bed128f73cb6b8c1d1cb6a,right,-1,0.3,0.5,6,-0.025098269,0.1632,,,,,,160,0,160,0,1,,,,,
,,966007,001,2023-07-24_21h29.59.814,arm3_eps,2022.2.5,MacIntel,59.95203837,5d2508273854c300016c04aa,64aea9d0f615b6559c281482,64bed128f73cb6b8c1d1cb6a,right,-1,0.3,0.5,6,-0.03966902,0.2706,,,,,,161,0,161,0,1,,,,,
,,966007,001,2023-07-24_21h29.59.814,arm3_eps,2022.2.5,MacIntel,59.95203837,5d2508273854c300016c04aa,64aea9d0f615b6559c281482,64bed128f73cb6b8c1d1cb6a,right,-1,0.3,0.5,6,-0.035709086,0.2829,,,,,,162,0,162,0,1,,,,,
,,966007,001,2023-07-24_21h29.59.814,arm3_eps,2022.2.5,MacIntel,59.95203837,5d2508273854c300016c04aa,64aea9d0f615b6559c281482,64bed128f73cb6b8c1d1cb6a,right,-1,0.3,0.5,6,-0.018104629,0.2135,,,,,,163,0,163,0,1,,,,,
,,966007,001,2023-07-24_21h29.59.814,arm3_eps,2022.2.5,MacIntel,59.95203837,5d2508273854c300016c04aa,64aea9d0f615b6559c281482,64bed128f73cb6b8c1d1cb6a,right,-1,0.3,0.5,6,-0.061437532,0.2842,,,,,,164,0,164,0,1,,,,,
,,966007,001,2023-07-24_21h29.59.814,arm3_eps,2022.2.5,MacIntel,59.95203837,5d2508273854c300016c04aa,64aea9d0f615b6559c281482,64bed128f73cb6b8c1d1cb6a,down,-1,0.3,0.5,7,0,0.6137,,,,,,165,0,165,0,1,,,,,
,,966007,001,2023-07-24_21h29.59.814,arm3_eps,2022.2.5,MacIntel,59.95203837,5d2508273854c300016c04aa,64aea9d0f615b6559c281482,64bed128f73cb6b8c1d1cb6a,right,-1,0.3,0.5,7,-0.030291938,0.9363,,,,,,166,0,166,0,1,,,,,
,,966007,001,2023-07-24_21h29.59.814,arm3_eps,2022.2.5,MacIntel,59.95203837,5d2508273854c300016c04aa,64aea9d0f615b6559c281482,64bed128f73cb6b8c1d1cb6a,right,-1,0.3,0.5,7,-0.079995973,0.189,,,,,,167,0,167,0,1,,,,,
,,966007,001,2023-07-24_21h29.59.814,arm3_eps,2022.2.5,MacIntel,59.95203837,5d2508273854c300016c04aa,64aea9d0f615b6559c281482,64bed128f73cb6b8c1d1cb6a,right,-1,0.3,0.5,7,-0.081801497,0.1544,,,,,,168,0,168,0,1,,,,,
,,966007,001,2023-07-24_21h29.59.814,arm3_eps,2022.2.5,MacIntel,59.95203837,5d2508273854c300016c04aa,64aea9d0f615b6559c281482,64bed128f73cb6b8c1d1cb6a,right,-1,0.3,0.5,7,-0.118832381,0.17,,,,,,169,0,169,0,1,,,,,
,,966007,001,2023-07-24_21h29.59.814,arm3_eps,2022.2.5,MacIntel,59.95203837,5d2508273854c300016c04aa,64aea9d0f615b6559c281482,64bed128f73cb6b8c1d1cb6a,right,-1,0.3,0.5,7,-0.128762009,0.1722,,,,,,170,0,170,0,1,,,,,
,,966007,001,2023-07-24_21h29.59.814,arm3_eps,2022.2.5,MacIntel,59.95203837,5d2508273854c300016c04aa,64aea9d0f615b6559c281482,64bed128f73cb6b8c1d1cb6a,right,-1,0.3,0.5,7,-0.136671997,0.1503,,,,,,171,0,171,0,1,,,,,
,,966007,001,2023-07-24_21h29.59.814,arm3_eps,2022.2.5,MacIntel,59.95203837,5d2508273854c300016c04aa,64aea9d0f615b6559c281482,64bed128f73cb6b8c1d1cb6a,down,-1,0.3,0.5,8,0,0.4355,,,,,,172,0,172,0,1,,,,,
,,966007,001,2023-07-24_21h29.59.814,arm3_eps,2022.2.5,MacIntel,59.95203837,5d2508273854c300016c04aa,64aea9d0f615b6559c281482,64bed128f73cb6b8c1d1cb6a,right,-1,0.3,0.5,8,-0.009833812,1.9073,,,,,,173,0,173,0,1,,,,,
,,966007,001,2023-07-24_21h29.59.814,arm3_eps,2022.2.5,MacIntel,59.95203837,5d2508273854c300016c04aa,64aea9d0f615b6559c281482,64bed128f73cb6b8c1d1cb6a,right,-1,0.3,0.5,8,-0.003142645,0.1783,,,,,,174,0,174,0,1,,,,,
,,966007,001,2023-07-24_21h29.59.814,arm3_eps,2022.2.5,MacIntel,59.95203837,5d2508273854c300016c04aa,64aea9d0f615b6559c281482,64bed128f73cb6b8c1d1cb6a,right,-1,0.3,0.5,8,-0.027266769,0.1895,,,,,,175,0,175,0,1,,,,,
,,966007,001,2023-07-24_21h29.59.814,arm3_eps,2022.2.5,MacIntel,59.95203837,5d2508273854c300016c04aa,64aea9d0f615b6559c281482,64bed128f73cb6b8c1d1cb6a,right,-1,0.3,0.5,8,-0.033850578,0.1874,,,,,,176,0,176,0,1,,,,,
,,966007,001,2023-07-24_21h29.59.814,arm3_eps,2022.2.5,MacIntel,59.95203837,5d2508273854c300016c04aa,64aea9d0f615b6559c281482,64bed128f73cb6b8c1d1cb6a,right,-1,0.3,0.5,8,-0.036092904,0.174,,,,,,177,0,177,0,1,,,,,
,,966007,001,2023-07-24_21h29.59.814,arm3_eps,2022.2.5,MacIntel,59.95203837,5d2508273854c300016c04aa,64aea9d0f615b6559c281482,64bed128f73cb6b8c1d1cb6a,right,-1,0.3,0.5,8,-0.056034255,0.1904,,,,,,178,0,178,0,1,,,,,
,,966007,001,2023-07-24_21h29.59.814,arm3_eps,2022.2.5,MacIntel,59.95203837,5d2508273854c300016c04aa,64aea9d0f615b6559c281482,64bed128f73cb6b8c1d1cb6a,right,-1,0.3,0.5,8,-0.065436245,0.284,,,,,,179,0,179,0,1,,,,,
,,966007,001,2023-07-24_21h29.59.814,arm3_eps,2022.2.5,MacIntel,59.95203837,5d2508273854c300016c04aa,64aea9d0f615b6559c281482,64bed128f73cb6b8c1d1cb6a,right,-1,0.3,0.5,8,-0.042577527,0.7647,,,,,,180,0,180,0,1,,,,,
,,966007,001,2023-07-24_21h29.59.814,arm3_eps,2022.2.5,MacIntel,59.95203837,5d2508273854c300016c04aa,64aea9d0f615b6559c281482,64bed128f73cb6b8c1d1cb6a,right,-1,0.3,0.5,8,-0.03205505,0.4001,,,,,,181,0,181,0,1,,,,,
,,966007,001,2023-07-24_21h29.59.814,arm3_eps,2022.2.5,MacIntel,59.95203837,5d2508273854c300016c04aa,64aea9d0f615b6559c281482,64bed128f73cb6b8c1d1cb6a,right,-1,0.3,0.5,8,-0.057393151,0.6842,,,,,,182,0,182,0,1,,,,,
,,966007,001,2023-07-24_21h29.59.814,arm3_eps,2022.2.5,MacIntel,59.95203837,5d2508273854c300016c04aa,64aea9d0f615b6559c281482,64bed128f73cb6b8c1d1cb6a,right,-1,0.3,0.5,8,-0.06047636,0.4165,,,,,,183,0,183,0,1,,,,,
,,966007,001,2023-07-24_21h29.59.814,arm3_eps,2022.2.5,MacIntel,59.95203837,5d2508273854c300016c04aa,64aea9d0f615b6559c281482,64bed128f73cb6b8c1d1cb6a,down,1,0.3,0.5,8,0,0.3973,,,,,,184,0,184,0,1,,,,,
,,966007,001,2023-07-24_21h29.59.814,arm3_eps,2022.2.5,MacIntel,59.95203837,5d2508273854c300016c04aa,64aea9d0f615b6559c281482,64bed128f73cb6b8c1d1cb6a,right,1,0.3,0.5,8,0.022893785,1.1157,,,,,,185,0,185,0,1,,,,,
,,966007,001,2023-07-24_21h29.59.814,arm3_eps,2022.2.5,MacIntel,59.95203837,5d2508273854c300016c04aa,64aea9d0f615b6559c281482,64bed128f73cb6b8c1d1cb6a,right,1,0.3,0.5,8,0.019265632,0.1675,,,,,,186,0,186,0,1,,,,,
,,966007,001,2023-07-24_21h29.59.814,arm3_eps,2022.2.5,MacIntel,59.95203837,5d2508273854c300016c04aa,64aea9d0f615b6559c281482,64bed128f73cb6b8c1d1cb6a,right,1,0.3,0.5,8,0.015700612,0.1984,,,,,,187,0,187,0,1,,,,,
,,966007,001,2023-07-24_21h29.59.814,arm3_eps,2022.2.5,MacIntel,59.95203837,5d2508273854c300016c04aa,64aea9d0f615b6559c281482,64bed128f73cb6b8c1d1cb6a,right,1,0.3,0.5,8,0.05944325,0.167,,,,,,188,0,188,0,1,,,,,
,,966007,001,2023-07-24_21h29.59.814,arm3_eps,2022.2.5,MacIntel,59.95203837,5d2508273854c300016c04aa,64aea9d0f615b6559c281482,64bed128f73cb6b8c1d1cb6a,right,1,0.3,0.5,8,0.080457792,0.2148,,,,,,189,0,189,0,1,,,,,
,,966007,001,2023-07-24_21h29.59.814,arm3_eps,2022.2.5,MacIntel,59.95203837,5d2508273854c300016c04aa,64aea9d0f615b6559c281482,64bed128f73cb6b8c1d1cb6a,right,1,0.3,0.5,8,0.08299749,0.1979,,,,,,190,0,190,0,1,,,,,
,,966007,001,2023-07-24_21h29.59.814,arm3_eps,2022.2.5,MacIntel,59.95203837,5d2508273854c300016c04aa,64aea9d0f615b6559c281482,64bed128f73cb6b8c1d1cb6a,right,1,0.3,0.5,8,0.08004264,0.1818,,,,,,191,0,191,0,1,,,,,
,,966007,001,2023-07-24_21h29.59.814,arm3_eps,2022.2.5,MacIntel,59.95203837,5d2508273854c300016c04aa,64aea9d0f615b6559c281482,64bed128f73cb6b8c1d1cb6a,right,1,0.3,0.5,8,0.104727911,0.2055,,,,,,192,0,192,0,1,,,,,
,,966007,001,2023-07-24_21h29.59.814,arm3_eps,2022.2.5,MacIntel,59.95203837,5d2508273854c300016c04aa,64aea9d0f615b6559c281482,64bed128f73cb6b8c1d1cb6a,up,1,0.3,0.5,8,0,0.4667,,,,,,193,0,193,0,1,,,,,
,,966007,001,2023-07-24_21h29.59.814,arm3_eps,2022.2.5,MacIntel,59.95203837,5d2508273854c300016c04aa,64aea9d0f615b6559c281482,64bed128f73cb6b8c1d1cb6a,right,1,0.3,0.5,8,-0.008257476,0.8813,,,,,,194,0,194,0,1,,,,,
,,966007,001,2023-07-24_21h29.59.814,arm3_eps,2022.2.5,MacIntel,59.95203837,5d2508273854c300016c04aa,64aea9d0f615b6559c281482,64bed128f73cb6b8c1d1cb6a,right,1,0.3,0.5,8,0.031788944,0.1597,,,,,,195,0,195,0,1,,,,,
,,966007,001,2023-07-24_21h29.59.814,arm3_eps,2022.2.5,MacIntel,59.95203837,5d2508273854c300016c04aa,64aea9d0f615b6559c281482,64bed128f73cb6b8c1d1cb6a,right,1,0.3,0.5,8,0.035715426,0.183,,,,,,196,0,196,0,1,,,,,
,,966007,001,2023-07-24_21h29.59.814,arm3_eps,2022.2.5,MacIntel,59.95203837,5d2508273854c300016c04aa,64aea9d0f615b6559c281482,64bed128f73cb6b8c1d1cb6a,right,1,0.3,0.5,8,0.066808357,0.1657,,,,,,197,0,197,0,1,,,,,
,,966007,001,2023-07-24_21h29.59.814,arm3_eps,2022.2.5,MacIntel,59.95203837,5d2508273854c300016c04aa,64aea9d0f615b6559c281482,64bed128f73cb6b8c1d1cb6a,right,1,0.3,0.5,8,0.048229161,0.1676,,,,,,198,0,198,0,1,,,,,
,,966007,001,2023-07-24_21h29.59.814,arm3_eps,2022.2.5,MacIntel,59.95203837,5d2508273854c300016c04aa,64aea9d0f615b6559c281482,64bed128f73cb6b8c1d1cb6a,right,1,0.3,0.5,8,0.073800161,0.1823,,,,,,199,0,199,0,1,,,,,
,,966007,001,2023-07-24_21h29.59.814,arm3_eps,2022.2.5,MacIntel,59.95203837,5d2508273854c300016c04aa,64aea9d0f615b6559c281482,64bed128f73cb6b8c1d1cb6a,right,1,0.3,0.5,8,0.086080376,0.1823,,,,,,200,0,200,0,1,,,,,
,,966007,001,2023-07-24_21h29.59.814,arm3_eps,2022.2.5,MacIntel,59.95203837,5d2508273854c300016c04aa,64aea9d0f615b6559c281482,64bed128f73cb6b8c1d1cb6a,up,-1,0.3,0.5,8,0,0.4144,,,,,,201,0,201,0,1,,,,,
,,966007,001,2023-07-24_21h29.59.814,arm3_eps,2022.2.5,MacIntel,59.95203837,5d2508273854c300016c04aa,64aea9d0f615b6559c281482,64bed128f73cb6b8c1d1cb6a,right,-1,0.3,0.5,8,-0.014590786,0.8991,,,,,,202,0,202,0,1,,,,,
,,966007,001,2023-07-24_21h29.59.814,arm3_eps,2022.2.5,MacIntel,59.95203837,5d2508273854c300016c04aa,64aea9d0f615b6559c281482,64bed128f73cb6b8c1d1cb6a,right,-1,0.3,0.5,8,0.002199413,0.1673,,,,,,203,0,203,0,1,,,,,
,,966007,001,2023-07-24_21h29.59.814,arm3_eps,2022.2.5,MacIntel,59.95203837,5d2508273854c300016c04aa,64aea9d0f615b6559c281482,64bed128f73cb6b8c1d1cb6a,right,-1,0.3,0.5,8,-0.01115835,0.1783,,,,,,204,0,204,0,1,,,,,
,,966007,001,2023-07-24_21h29.59.814,arm3_eps,2022.2.5,MacIntel,59.95203837,5d2508273854c300016c04aa,64aea9d0f615b6559c281482,64bed128f73cb6b8c1d1cb6a,right,-1,0.3,0.5,8,-0.043419068,0.1797,,,,,,205,0,205,0,1,,,,,
,,966007,001,2023-07-24_21h29.59.814,arm3_eps,2022.2.5,MacIntel,59.95203837,5d2508273854c300016c04aa,64aea9d0f615b6559c281482,64bed128f73cb6b8c1d1cb6a,right,-1,0.3,0.5,8,-0.034276613,0.1472,,,,,,206,0,206,0,1,,,,,
,,966007,001,2023-07-24_21h29.59.814,arm3_eps,2022.2.5,MacIntel,59.95203837,5d2508273854c300016c04aa,64aea9d0f615b6559c281482,64bed128f73cb6b8c1d1cb6a,right,-1,0.3,0.5,8,-0.050661592,0.1687,,,,,,207,0,207,0,1,,,,,
,,966007,001,2023-07-24_21h29.59.814,arm3_eps,2022.2.5,MacIntel,59.95203837,5d2508273854c300016c04aa,64aea9d0f615b6559c281482,64bed128f73cb6b8c1d1cb6a,right,-1,0.3,0.5,8,-0.042096828,0.1845,,,,,,208,0,208,0,1,,,,,
,,966007,001,2023-07-24_21h29.59.814,arm3_eps,2022.2.5,MacIntel,59.95203837,5d2508273854c300016c04aa,64aea9d0f615b6559c281482,64bed128f73cb6b8c1d1cb6a,right,-1,0.3,0.5,8,-0.052714055,0.1372,,,,,,209,0,209,0,1,,,,,
,,966007,001,2023-07-24_21h29.59.814,arm3_eps,2022.2.5,MacIntel,59.95203837,5d2508273854c300016c04aa,64aea9d0f615b6559c281482,64bed128f73cb6b8c1d1cb6a,down,1,0.3,0.5,9,0,0.5915,,,,,,210,0,210,0,1,,,,,
,,966007,001,2023-07-24_21h29.59.814,arm3_eps,2022.2.5,MacIntel,59.95203837,5d2508273854c300016c04aa,64aea9d0f615b6559c281482,64bed128f73cb6b8c1d1cb6a,right,1,0.3,0.5,9,0.00689529,0.9855,,,,,,211,0,211,0,1,,,,,
,,966007,001,2023-07-24_21h29.59.814,arm3_eps,2022.2.5,MacIntel,59.95203837,5d2508273854c300016c04aa,64aea9d0f615b6559c281482,64bed128f73cb6b8c1d1cb6a,right,1,0.3,0.5,9,0.018632513,0.3146,,,,,,212,0,212,0,1,,,,,
,,966007,001,2023-07-24_21h29.59.814,arm3_eps,2022.2.5,MacIntel,59.95203837,5d2508273854c300016c04aa,64aea9d0f615b6559c281482,64bed128f73cb6b8c1d1cb6a,right,1,0.3,0.5,9,0.013744893,0.1726,,,,,,213,0,213,0,1,,,,,
,,966007,001,2023-07-24_21h29.59.814,arm3_eps,2022.2.5,MacIntel,59.95203837,5d2508273854c300016c04aa,64aea9d0f615b6559c281482,64bed128f73cb6b8c1d1cb6a,right,1,0.3,0.5,9,0.016695496,0.1754,,,,,,214,0,214,0,1,,,,,
,,966007,001,2023-07-24_21h29.59.814,arm3_eps,2022.2.5,MacIntel,59.95203837,5d2508273854c300016c04aa,64aea9d0f615b6559c281482,64bed128f73cb6b8c1d1cb6a,right,1,0.3,0.5,9,0.04470239,0.1895,,,,,,215,0,215,0,1,,,,,
,,966007,001,2023-07-24_21h29.59.814,arm3_eps,2022.2.5,MacIntel,59.95203837,5d2508273854c300016c04aa,64aea9d0f615b6559c281482,64bed128f73cb6b8c1d1cb6a,right,1,0.3,0.5,9,0.057861021,0.1742,,,,,,216,0,216,0,1,,,,,
,,966007,001,2023-07-24_21h29.59.814,arm3_eps,2022.2.5,MacIntel,59.95203837,5d2508273854c300016c04aa,64aea9d0f615b6559c281482,64bed128f73cb6b8c1d1cb6a,right,1,0.3,0.5,9,0.084420655,0.1734,,,,,,217,0,217,0,1,,,,,
,,966007,001,2023-07-24_21h29.59.814,arm3_eps,2022.2.5,MacIntel,59.95203837,5d2508273854c300016c04aa,64aea9d0f615b6559c281482,64bed128f73cb6b8c1d1cb6a,up,-1,0.3,0.5,9,0,0.4873,,,,,,218,0,218,0,1,,,,,
,,966007,001,2023-07-24_21h29.59.814,arm3_eps,2022.2.5,MacIntel,59.95203837,5d2508273854c300016c04aa,64aea9d0f615b6559c281482,64bed128f73cb6b8c1d1cb6a,right,-1,0.3,0.5,9,-0.005948517,1.0737,,,,,,219,0,219,0,1,,,,,
,,966007,001,2023-07-24_21h29.59.814,arm3_eps,2022.2.5,MacIntel,59.95203837,5d2508273854c300016c04aa,64aea9d0f615b6559c281482,64bed128f73cb6b8c1d1cb6a,right,-1,0.3,0.5,9,-0.005241593,0.206,,,,,,220,0,220,0,1,,,,,
,,966007,001,2023-07-24_21h29.59.814,arm3_eps,2022.2.5,MacIntel,59.95203837,5d2508273854c300016c04aa,64aea9d0f615b6559c281482,64bed128f73cb6b8c1d1cb6a,right,-1,0.3,0.5,9,-0.044817872,0.19,,,,,,221,0,221,0,1,,,,,
,,966007,001,2023-07-24_21h29.59.814,arm3_eps,2022.2.5,MacIntel,59.95203837,5d2508273854c300016c04aa,64aea9d0f615b6559c281482,64bed128f73cb6b8c1d1cb6a,right,-1,0.3,0.5,9,-0.07002102,0.1485,,,,,,222,0,222,0,1,,,,,
,,966007,001,2023-07-24_21h29.59.814,arm3_eps,2022.2.5,MacIntel,59.95203837,5d2508273854c300016c04aa,64aea9d0f615b6559c281482,64bed128f73cb6b8c1d1cb6a,right,-1,0.3,0.5,9,-0.068090175,0.1986,,,,,,223,0,223,0,1,,,,,
,,966007,001,2023-07-24_21h29.59.814,arm3_eps,2022.2.5,MacIntel,59.95203837,5d2508273854c300016c04aa,64aea9d0f615b6559c281482,64bed128f73cb6b8c1d1cb6a,down,1,0.3,0.5,10,0,0.4293,,,,,,224,0,224,0,1,,,,,
,,966007,001,2023-07-24_21h29.59.814,arm3_eps,2022.2.5,MacIntel,59.95203837,5d2508273854c300016c04aa,64aea9d0f615b6559c281482,64bed128f73cb6b8c1d1cb6a,right,1,0.3,0.5,10,0.034500892,1.4019,,,,,,225,0,225,0,1,,,,,
,,966007,001,2023-07-24_21h29.59.814,arm3_eps,2022.2.5,MacIntel,59.95203837,5d2508273854c300016c04aa,64aea9d0f615b6559c281482,64bed128f73cb6b8c1d1cb6a,right,1,0.3,0.5,10,0.030900565,0.2174,,,,,,226,0,226,0,1,,,,,
,,966007,001,2023-07-24_21h29.59.814,arm3_eps,2022.2.5,MacIntel,59.95203837,5d2508273854c300016c04aa,64aea9d0f615b6559c281482,64bed128f73cb6b8c1d1cb6a,right,1,0.3,0.5,10,0.047122095,0.1845,,,,,,227,0,227,0,1,,,,,
,,966007,001,2023-07-24_21h29.59.814,arm3_eps,2022.2.5,MacIntel,59.95203837,5d2508273854c300016c04aa,64aea9d0f615b6559c281482,64bed128f73cb6b8c1d1cb6a,right,1,0.3,0.5,10,0.057775674,0.1662,,,,,,228,0,228,0,1,,,,,
,,966007,001,2023-07-24_21h29.59.814,arm3_eps,2022.2.5,MacIntel,59.95203837,5d2508273854c300016c04aa,64aea9d0f615b6559c281482,64bed128f73cb6b8c1d1cb6a,right,1,0.3,0.5,10,0.038719805,0.1518,,,,,,229,0,229,0,1,,,,,
,,966007,001,2023-07-24_21h29.59.814,arm3_eps,2022.2.5,MacIntel,59.95203837,5d2508273854c300016c04aa,64aea9d0f615b6559c281482,64bed128f73cb6b8c1d1cb6a,right,1,0.3,0.5,10,0.038791551,0.136,,,,,,230,0,230,0,1,,,,,
,,966007,001,2023-07-24_21h29.59.814,arm3_eps,2022.2.5,MacIntel,59.95203837,5d2508273854c300016c04aa,64aea9d0f615b6559c281482,64bed128f73cb6b8c1d1cb6a,right,1,0.3,0.5,10,0.065168691,0.156,,,,,,231,0,231,0,1,,,,,
,,966007,001,2023-07-24_21h29.59.814,arm3_eps,2022.2.5,MacIntel,59.95203837,5d2508273854c300016c04aa,64aea9d0f615b6559c281482,64bed128f73cb6b8c1d1cb6a,up,-1,0.3,0.5,11,0,0.4649,,,,,,232,0,232,0,1,,,,,
,,966007,001,2023-07-24_21h29.59.814,arm3_eps,2022.2.5,MacIntel,59.95203837,5d2508273854c300016c04aa,64aea9d0f615b6559c281482,64bed128f73cb6b8c1d1cb6a,right,-1,0.3,0.5,11,-0.019006297,2.0177,,,,,,233,0,233,0,1,,,,,
,,966007,001,2023-07-24_21h29.59.814,arm3_eps,2022.2.5,MacIntel,59.95203837,5d2508273854c300016c04aa,64aea9d0f615b6559c281482,64bed128f73cb6b8c1d1cb6a,right,-1,0.3,0.5,11,-0.024349109,0.1894,,,,,,234,0,234,0,1,,,,,
,,966007,001,2023-07-24_21h29.59.814,arm3_eps,2022.2.5,MacIntel,59.95203837,5d2508273854c300016c04aa,64aea9d0f615b6559c281482,64bed128f73cb6b8c1d1cb6a,right,-1,0.3,0.5,11,-0.01948956,0.1804,,,,,,235,0,235,0,1,,,,,
,,966007,001,2023-07-24_21h29.59.814,arm3_eps,2022.2.5,MacIntel,59.95203837,5d2508273854c300016c04aa,64aea9d0f615b6559c281482,64bed128f73cb6b8c1d1cb6a,right,-1,0.3,0.5,11,-0.042649603,0.1896,,,,,,236,0,236,0,1,,,,,
,,966007,001,2023-07-24_21h29.59.814,arm3_eps,2022.2.5,MacIntel,59.95203837,5d2508273854c300016c04aa,64aea9d0f615b6559c281482,64bed128f73cb6b8c1d1cb6a,right,-1,0.3,0.5,11,-0.056270887,0.1794,,,,,,237,0,237,0,1,,,,,
,,966007,001,2023-07-24_21h29.59.814,arm3_eps,2022.2.5,MacIntel,59.95203837,5d2508273854c300016c04aa,64aea9d0f615b6559c281482,64bed128f73cb6b8c1d1cb6a,right,-1,0.3,0.5,11,-0.063034311,0.1644,,,,,,238,0,238,0,1,,,,,
,,966007,001,2023-07-24_21h29.59.814,arm3_eps,2022.2.5,MacIntel,59.95203837,5d2508273854c300016c04aa,64aea9d0f615b6559c281482,64bed128f73cb6b8c1d1cb6a,down,-1,0.3,0.5,11,0,0.4159,,,,,,239,0,239,0,1,,,,,
,,966007,001,2023-07-24_21h29.59.814,arm3_eps,2022.2.5,MacIntel,59.95203837,5d2508273854c300016c04aa,64aea9d0f615b6559c281482,64bed128f73cb6b8c1d1cb6a,right,-1,0.3,0.5,11,-0.018432768,0.8181,,,,,,240,0,240,0,1,,,,,
,,966007,001,2023-07-24_21h29.59.814,arm3_eps,2022.2.5,MacIntel,59.95203837,5d2508273854c300016c04aa,64aea9d0f615b6559c281482,64bed128f73cb6b8c1d1cb6a,right,-1,0.3,0.5,11,0.0099924,0.1872,,,,,,241,0,241,0,1,,,,,
,,966007,001,2023-07-24_21h29.59.814,arm3_eps,2022.2.5,MacIntel,59.95203837,5d2508273854c300016c04aa,64aea9d0f615b6559c281482,64bed128f73cb6b8c1d1cb6a,right,-1,0.3,0.5,11,0.04277471,0.1996,,,,,,242,0,242,0,1,,,,,
,,966007,001,2023-07-24_21h29.59.814,arm3_eps,2022.2.5,MacIntel,59.95203837,5d2508273854c300016c04aa,64aea9d0f615b6559c281482,64bed128f73cb6b8c1d1cb6a,right,-1,0.3,0.5,11,0.054143566,0.3544,,,,,,243,0,243,0,1,,,,,
,,966007,001,2023-07-24_21h29.59.814,arm3_eps,2022.2.5,MacIntel,59.95203837,5d2508273854c300016c04aa,64aea9d0f615b6559c281482,64bed128f73cb6b8c1d1cb6a,right,-1,0.3,0.5,11,0.058383267,0.2646,,,,,,244,0,244,0,1,,,,,
,,966007,001,2023-07-24_21h29.59.814,arm3_eps,2022.2.5,MacIntel,59.95203837,5d2508273854c300016c04aa,64aea9d0f615b6559c281482,64bed128f73cb6b8c1d1cb6a,right,-1,0.3,0.5,11,0.040622936,1.0495,,,,,,245,0,245,0,1,,,,,
,,966007,001,2023-07-24_21h29.59.814,arm3_eps,2022.2.5,MacIntel,59.95203837,5d2508273854c300016c04aa,64aea9d0f615b6559c281482,64bed128f73cb6b8c1d1cb6a,right,-1,0.3,0.5,11,0.021167085,0.3071,,,,,,246,0,246,0,1,,,,,
,,966007,001,2023-07-24_21h29.59.814,arm3_eps,2022.2.5,MacIntel,59.95203837,5d2508273854c300016c04aa,64aea9d0f615b6559c281482,64bed128f73cb6b8c1d1cb6a,right,-1,0.3,0.5,11,-0.00460726,0.3793,,,,,,247,0,247,0,1,,,,,
,,966007,001,2023-07-24_21h29.59.814,arm3_eps,2022.2.5,MacIntel,59.95203837,5d2508273854c300016c04aa,64aea9d0f615b6559c281482,64bed128f73cb6b8c1d1cb6a,down,1,0.3,0.5,11,0,0.3805,,,,,,248,0,248,0,1,,,,,
,,966007,001,2023-07-24_21h29.59.814,arm3_eps,2022.2.5,MacIntel,59.95203837,5d2508273854c300016c04aa,64aea9d0f615b6559c281482,64bed128f73cb6b8c1d1cb6a,down,-1,0.3,0.5,11,0,0.0632,,,,,,249,0,249,0,1,,,,,
,,966007,001,2023-07-24_21h29.59.814,arm3_eps,2022.2.5,MacIntel,59.95203837,5d2508273854c300016c04aa,64aea9d0f615b6559c281482,64bed128f73cb6b8c1d1cb6a,right,-1,0.3,0.5,11,0.003874909,0.705,,,,,,250,0,250,0,1,,,,,
,,966007,001,2023-07-24_21h29.59.814,arm3_eps,2022.2.5,MacIntel,59.95203837,5d2508273854c300016c04aa,64aea9d0f615b6559c281482,64bed128f73cb6b8c1d1cb6a,right,-1,0.3,0.5,11,0.022772031,0.1911,,,,,,251,0,251,0,1,,,,,
,,966007,001,2023-07-24_21h29.59.814,arm3_eps,2022.2.5,MacIntel,59.95203837,5d2508273854c300016c04aa,64aea9d0f615b6559c281482,64bed128f73cb6b8c1d1cb6a,right,-1,0.3,0.5,11,0.030795661,0.1642,,,,,,252,0,252,0,1,,,,,
,,966007,001,2023-07-24_21h29.59.814,arm3_eps,2022.2.5,MacIntel,59.95203837,5d2508273854c300016c04aa,64aea9d0f615b6559c281482,64bed128f73cb6b8c1d1cb6a,right,-1,0.3,0.5,11,0.030020963,0.1663,,,,,,253,0,253,0,1,,,,,
,,966007,001,2023-07-24_21h29.59.814,arm3_eps,2022.2.5,MacIntel,59.95203837,5d2508273854c300016c04aa,64aea9d0f615b6559c281482,64bed128f73cb6b8c1d1cb6a,right,-1,0.3,0.5,11,0.019825795,0.1642,,,,,,254,0,254,0,1,,,,,
,,966007,001,2023-07-24_21h29.59.814,arm3_eps,2022.2.5,MacIntel,59.95203837,5d2508273854c300016c04aa,64aea9d0f615b6559c281482,64bed128f73cb6b8c1d1cb6a,right,-1,0.3,0.5,11,0.028841928,0.15,,,,,,255,0,255,0,1,,,,,
,,966007,001,2023-07-24_21h29.59.814,arm3_eps,2022.2.5,MacIntel,59.95203837,5d2508273854c300016c04aa,64aea9d0f615b6559c281482,64bed128f73cb6b8c1d1cb6a,right,-1,0.3,0.5,11,0.033538365,0.2324,,,,,,256,0,256,0,1,,,,,
,,966007,001,2023-07-24_21h29.59.814,arm3_eps,2022.2.5,MacIntel,59.95203837,5d2508273854c300016c04aa,64aea9d0f615b6559c281482,64bed128f73cb6b8c1d1cb6a,right,-1,0.3,0.5,11,0.050665764,0.1604,,,,,,257,0,257,0,1,,,,,
,,966007,001,2023-07-24_21h29.59.814,arm3_eps,2022.2.5,MacIntel,59.95203837,5d2508273854c300016c04aa,64aea9d0f615b6559c281482,64bed128f73cb6b8c1d1cb6a,right,-1,0.3,0.5,11,0.037990589,0.5895,,,,,,258,0,258,0,1,,,,,
,,966007,001,2023-07-24_21h29.59.814,arm3_eps,2022.2.5,MacIntel,59.95203837,5d2508273854c300016c04aa,64aea9d0f615b6559c281482,64bed128f73cb6b8c1d1cb6a,right,-1,0.3,0.5,11,0.042245143,0.1905,,,,,,259,0,259,0,1,,,,,
,,966007,001,2023-07-24_21h29.59.814,arm3_eps,2022.2.5,MacIntel,59.95203837,5d2508273854c300016c04aa,64aea9d0f615b6559c281482,64bed128f73cb6b8c1d1cb6a,right,-1,0.3,0.5,11,0.025640475,0.5659,,,,,,260,0,260,0,1,,,,,
,,966007,001,2023-07-24_21h29.59.814,arm3_eps,2022.2.5,MacIntel,59.95203837,5d2508273854c300016c04aa,64aea9d0f615b6559c281482,64bed128f73cb6b8c1d1cb6a,down,-1,0.3,0.5,11,0,0.5411,,,,,,261,0,261,0,1,,,,,
,,966007,001,2023-07-24_21h29.59.814,arm3_eps,2022.2.5,MacIntel,59.95203837,5d2508273854c300016c04aa,64aea9d0f615b6559c281482,64bed128f73cb6b8c1d1cb6a,right,-1,0.3,0.5,11,0.002582888,0.8061,,,,,,262,0,262,0,1,,,,,
,,966007,001,2023-07-24_21h29.59.814,arm3_eps,2022.2.5,MacIntel,59.95203837,5d2508273854c300016c04aa,64aea9d0f615b6559c281482,64bed128f73cb6b8c1d1cb6a,right,-1,0.3,0.5,11,-0.025770216,0.2064,,,,,,263,0,263,0,1,,,,,
,,966007,001,2023-07-24_21h29.59.814,arm3_eps,2022.2.5,MacIntel,59.95203837,5d2508273854c300016c04aa,64aea9d0f615b6559c281482,64bed128f73cb6b8c1d1cb6a,right,-1,0.3,0.5,11,0.00417692,0.2684,,,,,,264,0,264,0,1,,,,,
,,966007,001,2023-07-24_21h29.59.814,arm3_eps,2022.2.5,MacIntel,59.95203837,5d2508273854c300016c04aa,64aea9d0f615b6559c281482,64bed128f73cb6b8c1d1cb6a,right,-1,0.3,0.5,11,0.005900887,0.1463,,,,,,265,0,265,0,1,,,,,
,,966007,001,2023-07-24_21h29.59.814,arm3_eps,2022.2.5,MacIntel,59.95203837,5d2508273854c300016c04aa,64aea9d0f615b6559c281482,64bed128f73cb6b8c1d1cb6a,right,-1,0.3,0.5,11,-0.013807916,0.1795,,,,,,266,0,266,0,1,,,,,
,,966007,001,2023-07-24_21h29.59.814,arm3_eps,2022.2.5,MacIntel,59.95203837,5d2508273854c300016c04aa,64aea9d0f615b6559c281482,64bed128f73cb6b8c1d1cb6a,right,-1,0.3,0.5,11,-0.030078574,0.1813,,,,,,267,0,267,0,1,,,,,
,,966007,001,2023-07-24_21h29.59.814,arm3_eps,2022.2.5,MacIntel,59.95203837,5d2508273854c300016c04aa,64aea9d0f615b6559c281482,64bed128f73cb6b8c1d1cb6a,right,-1,0.3,0.5,11,-0.022525234,0.1709,,,,,,268,0,268,0,1,,,,,
,,966007,001,2023-07-24_21h29.59.814,arm3_eps,2022.2.5,MacIntel,59.95203837,5d2508273854c300016c04aa,64aea9d0f615b6559c281482,64bed128f73cb6b8c1d1cb6a,right,-1,0.3,0.5,11,-0.035515242,0.1703,,,,,,269,0,269,0,1,,,,,
,,966007,001,2023-07-24_21h29.59.814,arm3_eps,2022.2.5,MacIntel,59.95203837,5d2508273854c300016c04aa,64aea9d0f615b6559c281482,64bed128f73cb6b8c1d1cb6a,right,-1,0.3,0.5,11,-0.048224199,0.1728,,,,,,270,0,270,0,1,,,,,
,,966007,001,2023-07-24_21h29.59.814,arm3_eps,2022.2.5,MacIntel,59.95203837,5d2508273854c300016c04aa,64aea9d0f615b6559c281482,64bed128f73cb6b8c1d1cb6a,down,-1,0.3,0.5,11,0,0.3878,,,,,,271,0,271,0,1,,,,,
,,966007,001,2023-07-24_21h29.59.814,arm3_eps,2022.2.5,MacIntel,59.95203837,5d2508273854c300016c04aa,64aea9d0f615b6559c281482,64bed128f73cb6b8c1d1cb6a,right,-1,0.3,0.5,11,0.005790647,1.7822,,,,,,272,0,272,0,1,,,,,
,,966007,001,2023-07-24_21h29.59.814,arm3_eps,2022.2.5,MacIntel,59.95203837,5d2508273854c300016c04aa,64aea9d0f615b6559c281482,64bed128f73cb6b8c1d1cb6a,right,-1,0.3,0.5,11,-0.010133861,0.1821,,,,,,273,0,273,0,1,,,,,
,,966007,001,2023-07-24_21h29.59.814,arm3_eps,2022.2.5,MacIntel,59.95203837,5d2508273854c300016c04aa,64aea9d0f615b6559c281482,64bed128f73cb6b8c1d1cb6a,right,-1,0.3,0.5,11,0.002180141,0.1812,,,,,,274,0,274,0,1,,,,,
,,966007,001,2023-07-24_21h29.59.814,arm3_eps,2022.2.5,MacIntel,59.95203837,5d2508273854c300016c04aa,64aea9d0f615b6559c281482,64bed128f73cb6b8c1d1cb6a,right,-1,0.3,0.5,11,-0.02834006,0.1864,,,,,,275,0,275,0,1,,,,,
,,966007,001,2023-07-24_21h29.59.814,arm3_eps,2022.2.5,MacIntel,59.95203837,5d2508273854c300016c04aa,64aea9d0f615b6559c281482,64bed128f73cb6b8c1d1cb6a,right,-1,0.3,0.5,11,-0.019292914,0.1849,,,,,,276,0,276,0,1,,,,,
,,966007,001,2023-07-24_21h29.59.814,arm3_eps,2022.2.5,MacIntel,59.95203837,5d2508273854c300016c04aa,64aea9d0f615b6559c281482,64bed128f73cb6b8c1d1cb6a,right,-1,0.3,0.5,11,-0.031346049,0.188,,,,,,277,0,277,0,1,,,,,
,,966007,001,2023-07-24_21h29.59.814,arm3_eps,2022.2.5,MacIntel,59.95203837,5d2508273854c300016c04aa,64aea9d0f615b6559c281482,64bed128f73cb6b8c1d1cb6a,right,-1,0.3,0.5,11,-0.041374656,0.1848,,,,,,278,0,278,0,1,,,,,
,,966007,001,2023-07-24_21h29.59.814,arm3_eps,2022.2.5,MacIntel,59.95203837,5d2508273854c300016c04aa,64aea9d0f615b6559c281482,64bed128f73cb6b8c1d1cb6a,right,-1,0.3,0.5,11,-0.043483975,0.1499,,,,,,279,0,279,0,1,,,,,
,,966007,001,2023-07-24_21h29.59.814,arm3_eps,2022.2.5,MacIntel,59.95203837,5d2508273854c300016c04aa,64aea9d0f615b6559c281482,64bed128f73cb6b8c1d1cb6a,down,-1,0.3,0.5,12,0,0.2908,,,,,,280,0,280,0,1,,,,,
,,966007,001,2023-07-24_21h29.59.814,arm3_eps,2022.2.5,MacIntel,59.95203837,5d2508273854c300016c04aa,64aea9d0f615b6559c281482,64bed128f73cb6b8c1d1cb6a,right,-1,0.3,0.5,12,0.008885067,3.1148,,,,,,281,0,281,0,1,,,,,
,,966007,001,2023-07-24_21h29.59.814,arm3_eps,2022.2.5,MacIntel,59.95203837,5d2508273854c300016c04aa,64aea9d0f615b6559c281482,64bed128f73cb6b8c1d1cb6a,right,-1,0.3,0.5,12,0.008753165,0.1549,,,,,,282,0,282,0,1,,,,,
,,966007,001,2023-07-24_21h29.59.814,arm3_eps,2022.2.5,MacIntel,59.95203837,5d2508273854c300016c04aa,64aea9d0f615b6559c281482,64bed128f73cb6b8c1d1cb6a,right,-1,0.3,0.5,12,0.006185158,0.1466,,,,,,283,0,283,0,1,,,,,
,,966007,001,2023-07-24_21h29.59.814,arm3_eps,2022.2.5,MacIntel,59.95203837,5d2508273854c300016c04aa,64aea9d0f615b6559c281482,64bed128f73cb6b8c1d1cb6a,right,-1,0.3,0.5,12,0.033928272,0.1636,,,,,,284,0,284,0,1,,,,,
,,966007,001,2023-07-24_21h29.59.814,arm3_eps,2022.2.5,MacIntel,59.95203837,5d2508273854c300016c04aa,64aea9d0f615b6559c281482,64bed128f73cb6b8c1d1cb6a,right,-1,0.3,0.5,12,0.049776221,0.1631,,,,,,285,0,285,0,1,,,,,
,,966007,001,2023-07-24_21h29.59.814,arm3_eps,2022.2.5,MacIntel,59.95203837,5d2508273854c300016c04aa,64aea9d0f615b6559c281482,64bed128f73cb6b8c1d1cb6a,right,-1,0.3,0.5,12,0.02150595,0.1681,,,,,,286,0,286,0,1,,,,,
,,966007,001,2023-07-24_21h29.59.814,arm3_eps,2022.2.5,MacIntel,59.95203837,5d2508273854c300016c04aa,64aea9d0f615b6559c281482,64bed128f73cb6b8c1d1cb6a,right,-1,0.3,0.5,12,0.016167035,0.1224,,,,,,287,0,287,0,1,,,,,
,,966007,001,2023-07-24_21h29.59.814,arm3_eps,2022.2.5,MacIntel,59.95203837,5d2508273854c300016c04aa,64aea9d0f615b6559c281482,64bed128f73cb6b8c1d1cb6a,right,-1,0.3,0.5,12,0.011463896,0.1576,,,,,,288,0,288,0,1,,,,,
,,966007,001,2023-07-24_21h29.59.814,arm3_eps,2022.2.5,MacIntel,59.95203837,5d2508273854c300016c04aa,64aea9d0f615b6559c281482,64bed128f73cb6b8c1d1cb6a,right,-1,0.3,0.5,12,-0.011652476,0.1596,,,,,,289,0,289,0,1,,,,,
,,966007,001,2023-07-24_21h29.59.814,arm3_eps,2022.2.5,MacIntel,59.95203837,5d2508273854c300016c04aa,64aea9d0f615b6559c281482,64bed128f73cb6b8c1d1cb6a,down,-1,0.3,0.5,12,0,0.4836,,,,,,290,0,290,0,1,,,,,
,,966007,001,2023-07-24_21h29.59.814,arm3_eps,2022.2.5,MacIntel,59.95203837,5d2508273854c300016c04aa,64aea9d0f615b6559c281482,64bed128f73cb6b8c1d1cb6a,right,-1,0.3,0.5,12,-0.010717784,0.934,,,,,,291,0,291,0,1,,,,,
,,966007,001,2023-07-24_21h29.59.814,arm3_eps,2022.2.5,MacIntel,59.95203837,5d2508273854c300016c04aa,64aea9d0f615b6559c281482,64bed128f73cb6b8c1d1cb6a,right,-1,0.3,0.5,12,-0.0366209,0.1626,,,,,,292,0,292,0,1,,,,,
,,966007,001,2023-07-24_21h29.59.814,arm3_eps,2022.2.5,MacIntel,59.95203837,5d2508273854c300016c04aa,64aea9d0f615b6559c281482,64bed128f73cb6b8c1d1cb6a,right,-1,0.3,0.5,12,-0.066887013,0.1849,,,,,,293,0,293,0,1,,,,,
,,966007,001,2023-07-24_21h29.59.814,arm3_eps,2022.2.5,MacIntel,59.95203837,5d2508273854c300016c04aa,64aea9d0f615b6559c281482,64bed128f73cb6b8c1d1cb6a,right,-1,0.3,0.5,12,-0.057426837,0.1536,,,,,,294,0,294,0,1,,,,,
,,966007,001,2023-07-24_21h29.59.814,arm3_eps,2022.2.5,MacIntel,59.95203837,5d2508273854c300016c04aa,64aea9d0f615b6559c281482,64bed128f73cb6b8c1d1cb6a,right,-1,0.3,0.5,12,-0.07442647,0.1758,,,,,,295,0,295,0,1,,,,,
,,966007,001,2023-07-24_21h29.59.814,arm3_eps,2022.2.5,MacIntel,59.95203837,5d2508273854c300016c04aa,64aea9d0f615b6559c281482,64bed128f73cb6b8c1d1cb6a,right,-1,0.3,0.5,12,-0.074121879,0.1574,,,,,,296,0,296,0,1,,,,,
,,966007,001,2023-07-24_21h29.59.814,arm3_eps,2022.2.5,MacIntel,59.95203837,5d2508273854c300016c04aa,64aea9d0f615b6559c281482,64bed128f73cb6b8c1d1cb6a,right,-1,0.3,0.5,12,-0.06331304,0.6063,,,,,,297,0,297,0,1,,,,,
,,966007,001,2023-07-24_21h29.59.814,arm3_eps,2022.2.5,MacIntel,59.95203837,5d2508273854c300016c04aa,64aea9d0f615b6559c281482,64bed128f73cb6b8c1d1cb6a,right,-1,0.3,0.5,12,-0.056681867,0.1836,,,,,,298,0,298,0,1,,,,,
,,966007,001,2023-07-24_21h29.59.814,arm3_eps,2022.2.5,MacIntel,59.95203837,5d2508273854c300016c04aa,64aea9d0f615b6559c281482,64bed128f73cb6b8c1d1cb6a,right,-1,0.3,0.5,12,-0.05194851,0.1507,,,,,,299,0,299,0,1,,,,,
,,966007,001,2023-07-24_21h29.59.814,arm3_eps,2022.2.5,MacIntel,59.95203837,5d2508273854c300016c04aa,64aea9d0f615b6559c281482,64bed128f73cb6b8c1d1cb6a,right,-1,0.3,0.5,12,-0.064018325,0.2341,,,,,,300,0,300,0,1,,,,,
,,966007,001,2023-07-24_21h29.59.814,arm3_eps,2022.2.5,MacIntel,59.95203837,5d2508273854c300016c04aa,64aea9d0f615b6559c281482,64bed128f73cb6b8c1d1cb6a,right,-1,0.3,0.5,12,-0.066966118,0.3557,,,,,,301,0,301,0,1,,,,,
,,966007,001,2023-07-24_21h29.59.814,arm3_eps,2022.2.5,MacIntel,59.95203837,5d2508273854c300016c04aa,64aea9d0f615b6559c281482,64bed128f73cb6b8c1d1cb6a,right,-1,0.3,0.5,12,-0.066241111,0.5741,,,,,,302,0,302,0,1,,,,,
,,966007,001,2023-07-24_21h29.59.814,arm3_eps,2022.2.5,MacIntel,59.95203837,5d2508273854c300016c04aa,64aea9d0f615b6559c281482,64bed128f73cb6b8c1d1cb6a,down,1,0.3,0.5,12,0,1.65,,,,,,303,0,303,0,1,,,,,
,,966007,001,2023-07-24_21h29.59.814,arm3_eps,2022.2.5,MacIntel,59.95203837,5d2508273854c300016c04aa,64aea9d0f615b6559c281482,64bed128f73cb6b8c1d1cb6a,right,1,0.3,0.5,12,0.001001879,0.951,,,,,,304,0,304,0,1,,,,,
,,966007,001,2023-07-24_21h29.59.814,arm3_eps,2022.2.5,MacIntel,59.95203837,5d2508273854c300016c04aa,64aea9d0f615b6559c281482,64bed128f73cb6b8c1d1cb6a,right,1,0.3,0.5,12,-0.000272588,0.1869,,,,,,305,0,305,0,1,,,,,
,,966007,001,2023-07-24_21h29.59.814,arm3_eps,2022.2.5,MacIntel,59.95203837,5d2508273854c300016c04aa,64aea9d0f615b6559c281482,64bed128f73cb6b8c1d1cb6a,right,1,0.3,0.5,12,-0.012271852,0.167,,,,,,306,0,306,0,1,,,,,
,,966007,001,2023-07-24_21h29.59.814,arm3_eps,2022.2.5,MacIntel,59.95203837,5d2508273854c300016c04aa,64aea9d0f615b6559c281482,64bed128f73cb6b8c1d1cb6a,right,1,0.3,0.5,12,-0.006503043,0.1847,,,,,,307,0,307,0,1,,,,,
,,966007,001,2023-07-24_21h29.59.814,arm3_eps,2022.2.5,MacIntel,59.95203837,5d2508273854c300016c04aa,64aea9d0f615b6559c281482,64bed128f73cb6b8c1d1cb6a,right,1,0.3,0.5,12,0.014685402,0.6971,,,,,,308,0,308,0,1,,,,,
,,966007,001,2023-07-24_21h29.59.814,arm3_eps,2022.2.5,MacIntel,59.95203837,5d2508273854c300016c04aa,64aea9d0f615b6559c281482,64bed128f73cb6b8c1d1cb6a,right,1,0.3,0.5,12,0.027069133,0.1629,,,,,,309,0,309,0,1,,,,,
,,966007,001,2023-07-24_21h29.59.814,arm3_eps,2022.2.5,MacIntel,59.95203837,5d2508273854c300016c04aa,64aea9d0f615b6559c281482,64bed128f73cb6b8c1d1cb6a,up,-1,0.3,0.5,12,0,0.4387,,,,,,310,0,310,0,1,,,,,
,,966007,001,2023-07-24_21h29.59.814,arm3_eps,2022.2.5,MacIntel,59.95203837,5d2508273854c300016c04aa,64aea9d0f615b6559c281482,64bed128f73cb6b8c1d1cb6a,right,-1,0.3,0.5,12,-0.030414696,0.7996,,,,,,311,0,311,0,1,,,,,
,,966007,001,2023-07-24_21h29.59.814,arm3_eps,2022.2.5,MacIntel,59.95203837,5d2508273854c300016c04aa,64aea9d0f615b6559c281482,64bed128f73cb6b8c1d1cb6a,right,-1,0.3,0.5,12,-0.076781559,0.1657,,,,,,312,0,312,0,1,,,,,
,,966007,001,2023-07-24_21h29.59.814,arm3_eps,2022.2.5,MacIntel,59.95203837,5d2508273854c300016c04aa,64aea9d0f615b6559c281482,64bed128f73cb6b8c1d1cb6a,right,-1,0.3,0.5,12,-0.093390212,0.1645,,,,,,313,0,313,0,1,,,,,
,,966007,001,2023-07-24_21h29.59.814,arm3_eps,2022.2.5,MacIntel,59.95203837,5d2508273854c300016c04aa,64aea9d0f615b6559c281482,64bed128f73cb6b8c1d1cb6a,right,-1,0.3,0.5,12,-0.126114145,0.124,,,,,,314,0,314,0,1,,,,,
,,966007,001,2023-07-24_21h29.59.814,arm3_eps,2022.2.5,MacIntel,59.95203837,5d2508273854c300016c04aa,64aea9d0f615b6559c281482,64bed128f73cb6b8c1d1cb6a,right,-1,0.3,0.5,12,-0.121697467,0.1136,,,,,,315,0,315,0,1,,,,,
,,966007,001,2023-07-24_21h29.59.814,arm3_eps,2022.2.5,MacIntel,59.95203837,5d2508273854c300016c04aa,64aea9d0f615b6559c281482,64bed128f73cb6b8c1d1cb6a,right,-1,0.3,0.5,12,-0.134410931,0.15,,,,,,316,0,316,0,1,,,,,
,,966007,001,2023-07-24_21h29.59.814,arm3_eps,2022.2.5,MacIntel,59.95203837,5d2508273854c300016c04aa,64aea9d0f615b6559c281482,64bed128f73cb6b8c1d1cb6a,right,-1,0.3,0.5,12,-0.1930689,0.1984,,,,,,317,0,317,0,1,,,,,
,,966007,001,2023-07-24_21h29.59.814,arm3_eps,2022.2.5,MacIntel,59.95203837,5d2508273854c300016c04aa,64aea9d0f615b6559c281482,64bed128f73cb6b8c1d1cb6a,down,1,0.3,0.5,12,0,0.3668,,,,,,318,0,318,0,1,,,,,
,,966007,001,2023-07-24_21h29.59.814,arm3_eps,2022.2.5,MacIntel,59.95203837,5d2508273854c300016c04aa,64aea9d0f615b6559c281482,64bed128f73cb6b8c1d1cb6a,right,1,0.3,0.5,12,0.008051493,0.8399,,,,,,319,0,319,0,1,,,,,
,,966007,001,2023-07-24_21h29.59.814,arm3_eps,2022.2.5,MacIntel,59.95203837,5d2508273854c300016c04aa,64aea9d0f615b6559c281482,64bed128f73cb6b8c1d1cb6a,right,1,0.3,0.5,12,0.044755062,0.1816,,,,,,320,0,320,0,1,,,,,
,,966007,001,2023-07-24_21h29.59.814,arm3_eps,2022.2.5,MacIntel,59.95203837,5d2508273854c300016c04aa,64aea9d0f615b6559c281482,64bed128f73cb6b8c1d1cb6a,right,1,0.3,0.5,12,0.057301308,0.1716,,,,,,321,0,321,0,1,,,,,
,,966007,001,2023-07-24_21h29.59.814,arm3_eps,2022.2.5,MacIntel,59.95203837,5d2508273854c300016c04aa,64aea9d0f615b6559c281482,64bed128f73cb6b8c1d1cb6a,right,1,0.3,0.5,12,0.073872776,0.1449,,,,,,322,0,322,0,1,,,,,
,,966007,001,2023-07-24_21h29.59.814,arm3_eps,2022.2.5,MacIntel,59.95203837,5d2508273854c300016c04aa,64aea9d0f615b6559c281482,64bed128f73cb6b8c1d1cb6a,right,1,0.3,0.5,12,0.062391588,0.1491,,,,,,323,0,323,0,1,,,,,
,,966007,001,2023-07-24_21h29.59.814,arm3_eps,2022.2.5,MacIntel,59.95203837,5d2508273854c300016c04aa,64aea9d0f615b6559c281482,64bed128f73cb6b8c1d1cb6a,right,1,0.3,0.5,12,0.066938878,0.2507,,,,,,324,0,324,0,1,,,,,
,,966007,001,2023-07-24_21h29.59.814,arm3_eps,2022.2.5,MacIntel,59.95203837,5d2508273854c300016c04aa,64aea9d0f615b6559c281482,64bed128f73cb6b8c1d1cb6a,right,1,0.3,0.5,12,0.078828941,0.2005,,,,,,325,0,325,0,1,,,,,
,,966007,001,2023-07-24_21h29.59.814,arm3_eps,2022.2.5,MacIntel,59.95203837,5d2508273854c300016c04aa,64aea9d0f615b6559c281482,64bed128f73cb6b8c1d1cb6a,up,1,0.3,0.5,12,0,0.4813,,,,,,326,0,326,0,1,,,,,
,,966007,001,2023-07-24_21h29.59.814,arm3_eps,2022.2.5,MacIntel,59.95203837,5d2508273854c300016c04aa,64aea9d0f615b6559c281482,64bed128f73cb6b8c1d1cb6a,right,1,0.3,0.5,12,0.003903632,0.8027,,,,,,327,0,327,0,1,,,,,
,,966007,001,2023-07-24_21h29.59.814,arm3_eps,2022.2.5,MacIntel,59.95203837,5d2508273854c300016c04aa,64aea9d0f615b6559c281482,64bed128f73cb6b8c1d1cb6a,right,1,0.3,0.5,12,0.041488402,0.1629,,,,,,328,0,328,0,1,,,,,
,,966007,001,2023-07-24_21h29.59.814,arm3_eps,2022.2.5,MacIntel,59.95203837,5d2508273854c300016c04aa,64aea9d0f615b6559c281482,64bed128f73cb6b8c1d1cb6a,right,1,0.3,0.5,12,0.035474898,0.1337,,,,,,329,0,329,0,1,,,,,
,,966007,001,2023-07-24_21h29.59.814,arm3_eps,2022.2.5,MacIntel,59.95203837,5d2508273854c300016c04aa,64aea9d0f615b6559c281482,64bed128f73cb6b8c1d1cb6a,right,1,0.3,0.5,12,0.025520302,0.1658,,,,,,330,0,330,0,1,,,,,
,,966007,001,2023-07-24_21h29.59.814,arm3_eps,2022.2.5,MacIntel,59.95203837,5d2508273854c300016c04aa,64aea9d0f615b6559c281482,64bed128f73cb6b8c1d1cb6a,right,1,0.3,0.5,12,0.05997376,0.1636,,,,,,331,0,331,0,1,,,,,
,,966007,001,2023-07-24_21h29.59.814,arm3_eps,2022.2.5,MacIntel,59.95203837,5d2508273854c300016c04aa,64aea9d0f615b6559c281482,64bed128f73cb6b8c1d1cb6a,right,1,0.3,0.5,12,0.068251453,0.1846,,,,,,332,0,332,0,1,,,,,
,,966007,001,2023-07-24_21h29.59.814,arm3_eps,2022.2.5,MacIntel,59.95203837,5d2508273854c300016c04aa,64aea9d0f615b6559c281482,64bed128f73cb6b8c1d1cb6a,right,1,0.3,0.5,12,0.091531185,0.2504,,,,,,333,0,333,0,1,,,,,
,,966007,001,2023-07-24_21h29.59.814,arm3_eps,2022.2.5,MacIntel,59.95203837,5d2508273854c300016c04aa,64aea9d0f615b6559c281482,64bed128f73cb6b8c1d1cb6a,up,1,0.3,0.5,12,0,0.3983,,,,,,334,0,334,0,1,,,,,
,,966007,001,2023-07-24_21h29.59.814,arm3_eps,2022.2.5,MacIntel,59.95203837,5d2508273854c300016c04aa,64aea9d0f615b6559c281482,64bed128f73cb6b8c1d1cb6a,right,1,0.3,0.5,12,0.013387614,0.8682,,,,,,335,0,335,0,1,,,,,
,,966007,001,2023-07-24_21h29.59.814,arm3_eps,2022.2.5,MacIntel,59.95203837,5d2508273854c300016c04aa,64aea9d0f615b6559c281482,64bed128f73cb6b8c1d1cb6a,right,1,0.3,0.5,12,0.007936196,0.1705,,,,,,336,0,336,0,1,,,,,
,,966007,001,2023-07-24_21h29.59.814,arm3_eps,2022.2.5,MacIntel,59.95203837,5d2508273854c300016c04aa,64aea9d0f615b6559c281482,64bed128f73cb6b8c1d1cb6a,right,1,0.3,0.5,12,0.017449078,0.18,,,,,,337,0,337,0,1,,,,,
,,966007,001,2023-07-24_21h29.59.814,arm3_eps,2022.2.5,MacIntel,59.95203837,5d2508273854c300016c04aa,64aea9d0f615b6559c281482,64bed128f73cb6b8c1d1cb6a,right,1,0.3,0.5,12,0.013166924,0.1565,,,,,,338,0,338,0,1,,,,,
,,966007,001,2023-07-24_21h29.59.814,arm3_eps,2022.2.5,MacIntel,59.95203837,5d2508273854c300016c04aa,64aea9d0f615b6559c281482,64bed128f73cb6b8c1d1cb6a,right,1,0.3,0.5,12,0.02998702,0.1643,,,,,,339,0,339,0,1,,,,,
,,966007,001,2023-07-24_21h29.59.814,arm3_eps,2022.2.5,MacIntel,59.95203837,5d2508273854c300016c04aa,64aea9d0f615b6559c281482,64bed128f73cb6b8c1d1cb6a,right,1,0.3,0.5,12,0.058634944,0.1428,,,,,,340,0,340,0,1,,,,,
,,966007,001,2023-07-24_21h29.59.814,arm3_eps,2022.2.5,MacIntel,59.95203837,5d2508273854c300016c04aa,64aea9d0f615b6559c281482,64bed128f73cb6b8c1d1cb6a,up,-1,0.3,0.5,12,0,0.3577,,,,,,341,0,341,0,1,,,,,
,,966007,001,2023-07-24_21h29.59.814,arm3_eps,2022.2.5,MacIntel,59.95203837,5d2508273854c300016c04aa,64aea9d0f615b6559c281482,64bed128f73cb6b8c1d1cb6a,right,-1,0.3,0.5,12,-0.019538367,0.87,,,,,,342,0,342,0,1,,,,,
,,966007,001,2023-07-24_21h29.59.814,arm3_eps,2022.2.5,MacIntel,59.95203837,5d2508273854c300016c04aa,64aea9d0f615b6559c281482,64bed128f73cb6b8c1d1cb6a,right,-1,0.3,0.5,12,-0.021199202,0.1664,,,,,,343,0,343,0,1,,,,,
,,966007,001,2023-07-24_21h29.59.814,arm3_eps,2022.2.5,MacIntel,59.95203837,5d2508273854c300016c04aa,64aea9d0f615b6559c281482,64bed128f73cb6b8c1d1cb6a,right,-1,0.3,0.5,12,-0.041218089,0.1551,,,,,,344,0,344,0,1,,,,,
,,966007,001,2023-07-24_21h29.59.814,arm3_eps,2022.2.5,MacIntel,59.95203837,5d2508273854c300016c04aa,64aea9d0f615b6559c281482,64bed128f73cb6b8c1d1cb6a,right,-1,0.3,0.5,12,-0.044640863,0.1817,,,,,,345,0,345,0,1,,,,,
,,966007,001,2023-07-24_21h29.59.814,arm3_eps,2022.2.5,MacIntel,59.95203837,5d2508273854c300016c04aa,64aea9d0f615b6559c281482,64bed128f73cb6b8c1d1cb6a,right,-1,0.3,0.5,12,-0.04729067,0.1549,,,,,,346,0,346,0,1,,,,,
,,966007,001,2023-07-24_21h29.59.814,arm3_eps,2022.2.5,MacIntel,59.95203837,5d2508273854c300016c04aa,64aea9d0f615b6559c281482,64bed128f73cb6b8c1d1cb6a,right,-1,0.3,0.5,12,-0.08826712,0.165,,,,,,347,0,347,0,1,,,,,
,,966007,001,2023-07-24_21h29.59.814,arm3_eps,2022.2.5,MacIntel,59.95203837,5d2508273854c300016c04aa,64aea9d0f615b6559c281482,64bed128f73cb6b8c1d1cb6a,down,-1,0.3,0.5,12,0,0.3138,,,,,,348,0,348,0,1,,,,,
,,966007,001,2023-07-24_21h29.59.814,arm3_eps,2022.2.5,MacIntel,59.95203837,5d2508273854c300016c04aa,64aea9d0f615b6559c281482,64bed128f73cb6b8c1d1cb6a,right,-1,0.3,0.5,12,-0.009354629,0.815,,,,,,349,0,349,0,1,,,,,
,,966007,001,2023-07-24_21h29.59.814,arm3_eps,2022.2.5,MacIntel,59.95203837,5d2508273854c300016c04aa,64aea9d0f615b6559c281482,64bed128f73cb6b8c1d1cb6a,right,-1,0.3,0.5,12,-0.015561886,0.165,,,,,,350,0,350,0,1,,,,,
,,966007,001,2023-07-24_21h29.59.814,arm3_eps,2022.2.5,MacIntel,59.95203837,5d2508273854c300016c04aa,64aea9d0f615b6559c281482,64bed128f73cb6b8c1d1cb6a,right,-1,0.3,0.5,12,-0.001932761,0.1989,,,,,,351,0,351,0,1,,,,,
,,966007,001,2023-07-24_21h29.59.814,arm3_eps,2022.2.5,MacIntel,59.95203837,5d2508273854c300016c04aa,64aea9d0f615b6559c281482,64bed128f73cb6b8c1d1cb6a,right,-1,0.3,0.5,12,-0.016301098,0.1664,,,,,,352,0,352,0,1,,,,,
,,966007,001,2023-07-24_21h29.59.814,arm3_eps,2022.2.5,MacIntel,59.95203837,5d2508273854c300016c04aa,64aea9d0f615b6559c281482,64bed128f73cb6b8c1d1cb6a,right,-1,0.3,0.5,12,0.007916697,0.4307,,,,,,353,0,353,0,1,,,,,
,,966007,001,2023-07-24_21h29.59.814,arm3_eps,2022.2.5,MacIntel,59.95203837,5d2508273854c300016c04aa,64aea9d0f615b6559c281482,64bed128f73cb6b8c1d1cb6a,right,-1,0.3,0.5,12,0.004377338,0.1662,,,,,,354,0,354,0,1,,,,,
,,966007,001,2023-07-24_21h29.59.814,arm3_eps,2022.2.5,MacIntel,59.95203837,5d2508273854c300016c04aa,64aea9d0f615b6559c281482,64bed128f73cb6b8c1d1cb6a,right,-1,0.3,0.5,12,-0.004164742,0.1533,,,,,,355,0,355,0,1,,,,,
,,966007,001,2023-07-24_21h29.59.814,arm3_eps,2022.2.5,MacIntel,59.95203837,5d2508273854c300016c04aa,64aea9d0f615b6559c281482,64bed128f73cb6b8c1d1cb6a,right,-1,0.3,0.5,12,-0.021710779,0.7509,,,,,,356,0,356,0,1,,,,,
,,966007,001,2023-07-24_21h29.59.814,arm3_eps,2022.2.5,MacIntel,59.95203837,5d2508273854c300016c04aa,64aea9d0f615b6559c281482,64bed128f73cb6b8c1d1cb6a,down,-1,0.3,0.5,12,0,0.4899,,,,,,357,0,357,0,1,,,,,
,,966007,001,2023-07-24_21h29.59.814,arm3_eps,2022.2.5,MacIntel,59.95203837,5d2508273854c300016c04aa,64aea9d0f615b6559c281482,64bed128f73cb6b8c1d1cb6a,right,-1,0.3,0.5,12,-0.012418187,1.4021,,,,,,358,0,358,0,1,,,,,
,,966007,001,2023-07-24_21h29.59.814,arm3_eps,2022.2.5,MacIntel,59.95203837,5d2508273854c300016c04aa,64aea9d0f615b6559c281482,64bed128f73cb6b8c1d1cb6a,right,-1,0.3,0.5,12,-0.043673075,0.2503,,,,,,359,0,359,0,1,,,,,
,,966007,001,2023-07-24_21h29.59.814,arm3_eps,2022.2.5,MacIntel,59.95203837,5d2508273854c300016c04aa,64aea9d0f615b6559c281482,64bed128f73cb6b8c1d1cb6a,right,-1,0.3,0.5,12,-0.096673347,0.165,,,,,,360,0,360,0,1,,,,,
,,966007,001,2023-07-24_21h29.59.814,arm3_eps,2022.2.5,MacIntel,59.95203837,5d2508273854c300016c04aa,64aea9d0f615b6559c281482,64bed128f73cb6b8c1d1cb6a,right,-1,0.3,0.5,12,-0.083653169,0.1832,,,,,,361,0,361,0,1,,,,,
,,966007,001,2023-07-24_21h29.59.814,arm3_eps,2022.2.5,MacIntel,59.95203837,5d2508273854c300016c04aa,64aea9d0f615b6559c281482,64bed128f73cb6b8c1d1cb6a,down,-1,0.3,0.5,12,0,0.3505,,,,,,362,0,362,0,1,,,,,
,,966007,001,2023-07-24_21h29.59.814,arm3_eps,2022.2.5,MacIntel,59.95203837,5d2508273854c300016c04aa,64aea9d0f615b6559c281482,64bed128f73cb6b8c1d1cb6a,right,-1,0.3,0.5,12,-0.007541322,0.9304,,,,,,363,0,363,0,1,,,,,
,,966007,001,2023-07-24_21h29.59.814,arm3_eps,2022.2.5,MacIntel,59.95203837,5d2508273854c300016c04aa,64aea9d0f615b6559c281482,64bed128f73cb6b8c1d1cb6a,right,-1,0.3,0.5,12,-0.024127224,0.2997,,,,,,364,0,364,0,1,,,,,
,,966007,001,2023-07-24_21h29.59.814,arm3_eps,2022.2.5,MacIntel,59.95203837,5d2508273854c300016c04aa,64aea9d0f615b6559c281482,64bed128f73cb6b8c1d1cb6a,right,-1,0.3,0.5,12,-0.04670145,0.1998,,,,,,365,0,365,0,1,,,,,
,,966007,001,2023-07-24_21h29.59.814,arm3_eps,2022.2.5,MacIntel,59.95203837,5d2508273854c300016c04aa,64aea9d0f615b6559c281482,64bed128f73cb6b8c1d1cb6a,right,-1,0.3,0.5,12,-0.048845159,1.8335,,,,,,366,0,366,0,1,,,,,
,,966007,001,2023-07-24_21h29.59.814,arm3_eps,2022.2.5,MacIntel,59.95203837,5d2508273854c300016c04aa,64aea9d0f615b6559c281482,64bed128f73cb6b8c1d1cb6a,down,1,0.3,0.5,13,0,0.5821,,,,,,367,0,367,0,1,,,,,
,,966007,001,2023-07-24_21h29.59.814,arm3_eps,2022.2.5,MacIntel,59.95203837,5d2508273854c300016c04aa,64aea9d0f615b6559c281482,64bed128f73cb6b8c1d1cb6a,right,1,0.3,0.5,13,0.000322013,2.5749,,,,,,368,0,368,0,1,,,,,
,,966007,001,2023-07-24_21h29.59.814,arm3_eps,2022.2.5,MacIntel,59.95203837,5d2508273854c300016c04aa,64aea9d0f615b6559c281482,64bed128f73cb6b8c1d1cb6a,right,1,0.3,0.5,13,-0.00451062,1.0255,,,,,,369,0,369,0,1,,,,,
,,966007,001,2023-07-24_21h29.59.814,arm3_eps,2022.2.5,MacIntel,59.95203837,5d2508273854c300016c04aa,64aea9d0f615b6559c281482,64bed128f73cb6b8c1d1cb6a,,,,,,,,,,,,,,,,,,0,0,0,0,1
space,5.3371,966007,001,2023-07-24_21h29.59.814,arm3_eps,2022.2.5,MacIntel,59.95203837,5d2508273854c300016c04aa,64aea9d0f615b6559c281482,64bed128f73cb6b8c1d1cb6a,right,1,0.3,0.3071,13,-0.019576411,3.7349,,,,,,0,0,0,0,1,,,,,
,,966007,001,2023-07-24_21h29.59.814,arm3_eps,2022.2.5,MacIntel,59.95203837,5d2508273854c300016c04aa,64aea9d0f615b6559c281482,64bed128f73cb6b8c1d1cb6a,right,1,0.3,0.3071,13,-0.00589389,0.488,,,,,,1,0,1,0,1,,,,,
,,966007,001,2023-07-24_21h29.59.814,arm3_eps,2022.2.5,MacIntel,59.95203837,5d2508273854c300016c04aa,64aea9d0f615b6559c281482,64bed128f73cb6b8c1d1cb6a,right,1,0.3,0.3071,13,0.046824547,0.2015,,,,,,2,0,2,0,1,,,,,
,,966007,001,2023-07-24_21h29.59.814,arm3_eps,2022.2.5,MacIntel,59.95203837,5d2508273854c300016c04aa,64aea9d0f615b6559c281482,64bed128f73cb6b8c1d1cb6a,right,1,0.3,0.3071,13,0.036000208,0.1713,,,,,,3,0,3,0,1,,,,,
,,966007,001,2023-07-24_21h29.59.814,arm3_eps,2022.2.5,MacIntel,59.95203837,5d2508273854c300016c04aa,64aea9d0f615b6559c281482,64bed128f73cb6b8c1d1cb6a,right,1,0.3,0.3071,13,0.039921399,0.2711,,,,,,4,0,4,0,1,,,,,
,,966007,001,2023-07-24_21h29.59.814,arm3_eps,2022.2.5,MacIntel,59.95203837,5d2508273854c300016c04aa,64aea9d0f615b6559c281482,64bed128f73cb6b8c1d1cb6a,up,-1,0.3,0.3071,13,0,0.4402,,,,,,5,0,5,0,1,,,,,
,,966007,001,2023-07-24_21h29.59.814,arm3_eps,2022.2.5,MacIntel,59.95203837,5d2508273854c300016c04aa,64aea9d0f615b6559c281482,64bed128f73cb6b8c1d1cb6a,right,-1,0.3,0.3071,13,-0.020349167,0.8017,,,,,,6,0,6,0,1,,,,,
,,966007,001,2023-07-24_21h29.59.814,arm3_eps,2022.2.5,MacIntel,59.95203837,5d2508273854c300016c04aa,64aea9d0f615b6559c281482,64bed128f73cb6b8c1d1cb6a,right,-1,0.3,0.3071,13,-0.013769305,0.1696,,,,,,7,0,7,0,1,,,,,
,,966007,001,2023-07-24_21h29.59.814,arm3_eps,2022.2.5,MacIntel,59.95203837,5d2508273854c300016c04aa,64aea9d0f615b6559c281482,64bed128f73cb6b8c1d1cb6a,right,-1,0.3,0.3071,13,-0.035536475,0.1828,,,,,,8,0,8,0,1,,,,,
,,966007,001,2023-07-24_21h29.59.814,arm3_eps,2022.2.5,MacIntel,59.95203837,5d2508273854c300016c04aa,64aea9d0f615b6559c281482,64bed128f73cb6b8c1d1cb6a,right,-1,0.3,0.3071,13,-0.040950561,0.154,,,,,,9,0,9,0,1,,,,,
,,966007,001,2023-07-24_21h29.59.814,arm3_eps,2022.2.5,MacIntel,59.95203837,5d2508273854c300016c04aa,64aea9d0f615b6559c281482,64bed128f73cb6b8c1d1cb6a,right,-1,0.3,0.3071,13,-0.04662165,0.1655,,,,,,10,0,10,0,1,,,,,
,,966007,001,2023-07-24_21h29.59.814,arm3_eps,2022.2.5,MacIntel,59.95203837,5d2508273854c300016c04aa,64aea9d0f615b6559c281482,64bed128f73cb6b8c1d1cb6a,right,-1,0.3,0.3071,13,-0.024369724,0.1441,,,,,,11,0,11,0,1,,,,,
,,966007,001,2023-07-24_21h29.59.814,arm3_eps,2022.2.5,MacIntel,59.95203837,5d2508273854c300016c04aa,64aea9d0f615b6559c281482,64bed128f73cb6b8c1d1cb6a,down,-1,0.3,0.3071,13,0,0.8825,,,,,,12,0,12,0,1,,,,,
,,966007,001,2023-07-24_21h29.59.814,arm3_eps,2022.2.5,MacIntel,59.95203837,5d2508273854c300016c04aa,64aea9d0f615b6559c281482,64bed128f73cb6b8c1d1cb6a,right,-1,0.3,0.3071,13,0.026920945,0.8138,,,,,,13,0,13,0,1,,,,,
,,966007,001,2023-07-24_21h29.59.814,arm3_eps,2022.2.5,MacIntel,59.95203837,5d2508273854c300016c04aa,64aea9d0f615b6559c281482,64bed128f73cb6b8c1d1cb6a,right,-1,0.3,0.3071,13,-0.00934638,0.2176,,,,,,14,0,14,0,1,,,,,
,,966007,001,2023-07-24_21h29.59.814,arm3_eps,2022.2.5,MacIntel,59.95203837,5d2508273854c300016c04aa,64aea9d0f615b6559c281482,64bed128f73cb6b8c1d1cb6a,right,-1,0.3,0.3071,13,-0.000254235,0.1676,,,,,,15,0,15,0,1,,,,,
,,966007,001,2023-07-24_21h29.59.814,arm3_eps,2022.2.5,MacIntel,59.95203837,5d2508273854c300016c04aa,64aea9d0f615b6559c281482,64bed128f73cb6b8c1d1cb6a,right,-1,0.3,0.3071,13,-0.029352555,0.2094,,,,,,16,0,16,0,1,,,,,
,,966007,001,2023-07-24_21h29.59.814,arm3_eps,2022.2.5,MacIntel,59.95203837,5d2508273854c300016c04aa,64aea9d0f615b6559c281482,64bed128f73cb6b8c1d1cb6a,right,-1,0.3,0.3071,13,-0.00261501,0.2145,,,,,,17,0,17,0,1,,,,,
,,966007,001,2023-07-24_21h29.59.814,arm3_eps,2022.2.5,MacIntel,59.95203837,5d2508273854c300016c04aa,64aea9d0f615b6559c281482,64bed128f73cb6b8c1d1cb6a,right,-1,0.3,0.3071,13,-0.013331093,0.2044,,,,,,18,0,18,0,1,,,,,
,,966007,001,2023-07-24_21h29.59.814,arm3_eps,2022.2.5,MacIntel,59.95203837,5d2508273854c300016c04aa,64aea9d0f615b6559c281482,64bed128f73cb6b8c1d1cb6a,down,-1,0.3,0.3071,13,0,0.5718,,,,,,19,0,19,0,1,,,,,
,,966007,001,2023-07-24_21h29.59.814,arm3_eps,2022.2.5,MacIntel,59.95203837,5d2508273854c300016c04aa,64aea9d0f615b6559c281482,64bed128f73cb6b8c1d1cb6a,right,-1,0.3,0.3071,13,-0.024574117,0.6673,,,,,,20,0,20,0,1,,,,,
,,966007,001,2023-07-24_21h29.59.814,arm3_eps,2022.2.5,MacIntel,59.95203837,5d2508273854c300016c04aa,64aea9d0f615b6559c281482,64bed128f73cb6b8c1d1cb6a,right,-1,0.3,0.3071,13,-0.020774857,0.1926,,,,,,21,0,21,0,1,,,,,
,,966007,001,2023-07-24_21h29.59.814,arm3_eps,2022.2.5,MacIntel,59.95203837,5d2508273854c300016c04aa,64aea9d0f615b6559c281482,64bed128f73cb6b8c1d1cb6a,right,-1,0.3,0.3071,13,-0.025363255,0.1496,,,,,,22,0,22,0,1,,,,,
,,966007,001,2023-07-24_21h29.59.814,arm3_eps,2022.2.5,MacIntel,59.95203837,5d2508273854c300016c04aa,64aea9d0f615b6559c281482,64bed128f73cb6b8c1d1cb6a,right,-1,0.3,0.3071,13,-0.029266856,0.1654,,,,,,23,0,23,0,1,,,,,
,,966007,001,2023-07-24_21h29.59.814,arm3_eps,2022.2.5,MacIntel,59.95203837,5d2508273854c300016c04aa,64aea9d0f615b6559c281482,64bed128f73cb6b8c1d1cb6a,right,-1,0.3,0.3071,13,-0.015896606,0.1489,,,,,,24,0,24,0,1,,,,,
,,966007,001,2023-07-24_21h29.59.814,arm3_eps,2022.2.5,MacIntel,59.95203837,5d2508273854c300016c04aa,64aea9d0f615b6559c281482,64bed128f73cb6b8c1d1cb6a,right,-1,0.3,0.3071,13,-0.039735166,0.147,,,,,,25,0,25,0,1,,,,,
,,966007,001,2023-07-24_21h29.59.814,arm3_eps,2022.2.5,MacIntel,59.95203837,5d2508273854c300016c04aa,64aea9d0f615b6559c281482,64bed128f73cb6b8c1d1cb6a,down,-1,0.3,0.3071,13,0,0.4312,,,,,,26,0,26,0,1,,,,,
,,966007,001,2023-07-24_21h29.59.814,arm3_eps,2022.2.5,MacIntel,59.95203837,5d2508273854c300016c04aa,64aea9d0f615b6559c281482,64bed128f73cb6b8c1d1cb6a,right,-1,0.3,0.3071,13,-0.008426767,0.6382,,,,,,27,0,27,0,1,,,,,
,,966007,001,2023-07-24_21h29.59.814,arm3_eps,2022.2.5,MacIntel,59.95203837,5d2508273854c300016c04aa,64aea9d0f615b6559c281482,64bed128f73cb6b8c1d1cb6a,right,-1,0.3,0.3071,13,-0.001078861,0.1765,,,,,,28,0,28,0,1,,,,,
,,966007,001,2023-07-24_21h29.59.814,arm3_eps,2022.2.5,MacIntel,59.95203837,5d2508273854c300016c04aa,64aea9d0f615b6559c281482,64bed128f73cb6b8c1d1cb6a,right,-1,0.3,0.3071,13,0.001567486,0.1667,,,,,,29,0,29,0,1,,,,,
,,966007,001,2023-07-24_21h29.59.814,arm3_eps,2022.2.5,MacIntel,59.95203837,5d2508273854c300016c04aa,64aea9d0f615b6559c281482,64bed128f73cb6b8c1d1cb6a,right,-1,0.3,0.3071,13,-0.00199616,0.1676,,,,,,30,0,30,0,1,,,,,
,,966007,001,2023-07-24_21h29.59.814,arm3_eps,2022.2.5,MacIntel,59.95203837,5d2508273854c300016c04aa,64aea9d0f615b6559c281482,64bed128f73cb6b8c1d1cb6a,right,-1,0.3,0.3071,13,-0.038737275,0.1519,,,,,,31,0,31,0,1,,,,,
,,966007,001,2023-07-24_21h29.59.814,arm3_eps,2022.2.5,MacIntel,59.95203837,5d2508273854c300016c04aa,64aea9d0f615b6559c281482,64bed128f73cb6b8c1d1cb6a,right,-1,0.3,0.3071,13,-0.061328948,0.1674,,,,,,32,0,32,0,1,,,,,
,,966007,001,2023-07-24_21h29.59.814,arm3_eps,2022.2.5,MacIntel,59.95203837,5d2508273854c300016c04aa,64aea9d0f615b6559c281482,64bed128f73cb6b8c1d1cb6a,down,1,0.3,0.3071,13,0,0.2509,,,,,,33,0,33,0,1,,,,,
,,966007,001,2023-07-24_21h29.59.814,arm3_eps,2022.2.5,MacIntel,59.95203837,5d2508273854c300016c04aa,64aea9d0f615b6559c281482,64bed128f73cb6b8c1d1cb6a,right,1,0.3,0.3071,13,0.000952422,0.8887,,,,,,34,0,34,0,1,,,,,
,,966007,001,2023-07-24_21h29.59.814,arm3_eps,2022.2.5,MacIntel,59.95203837,5d2508273854c300016c04aa,64aea9d0f615b6559c281482,64bed128f73cb6b8c1d1cb6a,right,1,0.3,0.3071,13,0.004302799,0.1811,,,,,,35,0,35,0,1,,,,,
,,966007,001,2023-07-24_21h29.59.814,arm3_eps,2022.2.5,MacIntel,59.95203837,5d2508273854c300016c04aa,64aea9d0f615b6559c281482,64bed128f73cb6b8c1d1cb6a,right,1,0.3,0.3071,13,0.03418041,0.1482,,,,,,36,0,36,0,1,,,,,
,,966007,001,2023-07-24_21h29.59.814,arm3_eps,2022.2.5,MacIntel,59.95203837,5d2508273854c300016c04aa,64aea9d0f615b6559c281482,64bed128f73cb6b8c1d1cb6a,right,1,0.3,0.3071,13,0.055123447,0.1698,,,,,,37,0,37,0,1,,,,,
