space_bar.keys,space_bar.rt,participant,session,date,expName,psychopyVersion,OS,frameRate,PROLIFIC_PID,STUDY_ID,SESSION_ID,resp.keys,state,q_prob,eps_prob,score,price,resp.rt,train.thisRepN,train.thisTrialN,train.thisN,train.thisIndex,train.ran,steps.thisRepN,steps.thisTrialN,steps.thisN,steps.thisIndex,steps.ran,blocks.thisRepN,blocks.thisTrialN,blocks.thisN,blocks.thisIndex,blocks.ran
space,16.0075,016168,001,2023-07-31_20h46.05.984,arm3_eps,2022.2.5,Win32,119.8897015,61387f74d9d8365effc1b227,64c7fed44a04f777bb1e18ce,64c80156736f7892b8a2778a,,,,,,,,,,,,,,,,,,,,,,
space,9.5823,016168,001,2023-07-31_20h46.05.984,arm3_eps,2022.2.5,Win32,119.8897015,61387f74d9d8365effc1b227,64c7fed44a04f777bb1e18ce,64c80156736f7892b8a2778a,,,,,,,,,,,,,,,,,,,,,,
space,38.2152,016168,001,2023-07-31_20h46.05.984,arm3_eps,2022.2.5,Win32,119.8897015,61387f74d9d8365effc1b227,64c7fed44a04f777bb1e18ce,64c80156736f7892b8a2778a,,,,,,,,,,,,,,,,,,,,,,
space,60.3018,016168,001,2023-07-31_20h46.05.984,arm3_eps,2022.2.5,Win32,119.8897015,61387f74d9d8365effc1b227,64c7fed44a04f777bb1e18ce,64c80156736f7892b8a2778a,,,,,,,,,,,,,,,,,,,,,,
space,57.3328,016168,001,2023-07-31_20h46.05.984,arm3_eps,2022.2.5,Win32,119.8897015,61387f74d9d8365effc1b227,64c7fed44a04f777bb1e18ce,64c80156736f7892b8a2778a,,,,,,,,,,,,,,,,,,,,,,
space,7.5955,016168,001,2023-07-31_20h46.05.984,arm3_eps,2022.2.5,Win32,119.8897015,61387f74d9d8365effc1b227,64c7fed44a04f777bb1e18ce,64c80156736f7892b8a2778a,,,,,,,,,,,,,,,,,,,,,,
space,2.5306,016168,001,2023-07-31_20h46.05.984,arm3_eps,2022.2.5,Win32,119.8897015,61387f74d9d8365effc1b227,64c7fed44a04f777bb1e18ce,64c80156736f7892b8a2778a,,,,,,,,,,,,,,,,,,,,,,
,,016168,001,2023-07-31_20h46.05.984,arm3_eps,2022.2.5,Win32,119.8897015,61387f74d9d8365effc1b227,64c7fed44a04f777bb1e18ce,64c80156736f7892b8a2778a,up,1,1,0.2429,1,0,16.9576,0,0,0,0,1,,,,,,,,,,
,,016168,001,2023-07-31_20h46.05.984,arm3_eps,2022.2.5,Win32,119.8897015,61387f74d9d8365effc1b227,64c7fed44a04f777bb1e18ce,64c80156736f7892b8a2778a,up,1,1,0.2429,2,0,3.3282,1,0,1,0,1,,,,,,,,,,
,,016168,001,2023-07-31_20h46.05.984,arm3_eps,2022.2.5,Win32,119.8897015,61387f74d9d8365effc1b227,64c7fed44a04f777bb1e18ce,64c80156736f7892b8a2778a,down,1,1,0.2429,1,0,2.3195,2,0,2,0,1,,,,,,,,,,
,,016168,001,2023-07-31_20h46.05.984,arm3_eps,2022.2.5,Win32,119.8897015,61387f74d9d8365effc1b227,64c7fed44a04f777bb1e18ce,64c80156736f7892b8a2778a,down,-1,1,0.2429,0,0,13.1973,3,0,3,0,1,,,,,,,,,,
,,016168,001,2023-07-31_20h46.05.984,arm3_eps,2022.2.5,Win32,119.8897015,61387f74d9d8365effc1b227,64c7fed44a04f777bb1e18ce,64c80156736f7892b8a2778a,up,-1,1,0.2429,-1,0,4.0825,4,0,4,0,1,,,,,,,,,,
,,016168,001,2023-07-31_20h46.05.984,arm3_eps,2022.2.5,Win32,119.8897015,61387f74d9d8365effc1b227,64c7fed44a04f777bb1e18ce,64c80156736f7892b8a2778a,down,-1,1,0.2429,0,0,1.5909,5,0,5,0,1,,,,,,,,,,
,,016168,001,2023-07-31_20h46.05.984,arm3_eps,2022.2.5,Win32,119.8897015,61387f74d9d8365effc1b227,64c7fed44a04f777bb1e18ce,64c80156736f7892b8a2778a,up,-1,1,0.2429,-1,0,1.309,6,0,6,0,1,,,,,,,,,,
,,016168,001,2023-07-31_20h46.05.984,arm3_eps,2022.2.5,Win32,119.8897015,61387f74d9d8365effc1b227,64c7fed44a04f777bb1e18ce,64c80156736f7892b8a2778a,down,1,1,0.2429,0,0,15.4908,7,0,7,0,1,,,,,,,,,,
,,016168,001,2023-07-31_20h46.05.984,arm3_eps,2022.2.5,Win32,119.8897015,61387f74d9d8365effc1b227,64c7fed44a04f777bb1e18ce,64c80156736f7892b8a2778a,down,1,1,0.2429,-1,0,3.2181,8,0,8,0,1,,,,,,,,,,
,,016168,001,2023-07-31_20h46.05.984,arm3_eps,2022.2.5,Win32,119.8897015,61387f74d9d8365effc1b227,64c7fed44a04f777bb1e18ce,64c80156736f7892b8a2778a,up,1,1,0.2429,0,0,3.3413,9,0,9,0,1,,,,,,,,,,
,,016168,001,2023-07-31_20h46.05.984,arm3_eps,2022.2.5,Win32,119.8897015,61387f74d9d8365effc1b227,64c7fed44a04f777bb1e18ce,64c80156736f7892b8a2778a,up,1,1,0.2429,1,0,1.4948,10,0,10,0,1,,,,,,,,,,
,,016168,001,2023-07-31_20h46.05.984,arm3_eps,2022.2.5,Win32,119.8897015,61387f74d9d8365effc1b227,64c7fed44a04f777bb1e18ce,64c80156736f7892b8a2778a,down,1,1,0.2429,0,0,1.4773,11,0,11,0,1,,,,,,,,,,
,,016168,001,2023-07-31_20h46.05.984,arm3_eps,2022.2.5,Win32,119.8897015,61387f74d9d8365effc1b227,64c7fed44a04f777bb1e18ce,64c80156736f7892b8a2778a,down,-1,1,0.2429,-1,0,8.76,12,0,12,0,1,,,,,,,,,,
,,016168,001,2023-07-31_20h46.05.984,arm3_eps,2022.2.5,Win32,119.8897015,61387f74d9d8365effc1b227,64c7fed44a04f777bb1e18ce,64c80156736f7892b8a2778a,up,-1,1,0.2429,-2,0,3.4947,13,0,13,0,1,,,,,,,,,,
,,016168,001,2023-07-31_20h46.05.984,arm3_eps,2022.2.5,Win32,119.8897015,61387f74d9d8365effc1b227,64c7fed44a04f777bb1e18ce,64c80156736f7892b8a2778a,up,-1,1,0.2429,-3,0,1.7667,14,0,14,0,1,,,,,,,,,,
,,016168,001,2023-07-31_20h46.05.984,arm3_eps,2022.2.5,Win32,119.8897015,61387f74d9d8365effc1b227,64c7fed44a04f777bb1e18ce,64c80156736f7892b8a2778a,up,-1,1,0.2429,-4,0,3.3522,15,0,15,0,1,,,,,,,,,,
,,016168,001,2023-07-31_20h46.05.984,arm3_eps,2022.2.5,Win32,119.8897015,61387f74d9d8365effc1b227,64c7fed44a04f777bb1e18ce,64c80156736f7892b8a2778a,down,-1,1,0.2429,-3,0,1.1659,16,0,16,0,1,,,,,,,,,,
,,016168,001,2023-07-31_20h46.05.984,arm3_eps,2022.2.5,Win32,119.8897015,61387f74d9d8365effc1b227,64c7fed44a04f777bb1e18ce,64c80156736f7892b8a2778a,down,-1,1,0.2429,-2,0,3.146,17,0,17,0,1,,,,,,,,,,
,,016168,001,2023-07-31_20h46.05.984,arm3_eps,2022.2.5,Win32,119.8897015,61387f74d9d8365effc1b227,64c7fed44a04f777bb1e18ce,64c80156736f7892b8a2778a,down,-1,1,0.2429,-1,0,1.3433,18,0,18,0,1,,,,,,,,,,
,,016168,001,2023-07-31_20h46.05.984,arm3_eps,2022.2.5,Win32,119.8897015,61387f74d9d8365effc1b227,64c7fed44a04f777bb1e18ce,64c80156736f7892b8a2778a,down,1,1,0.2429,0,0,11.2804,19,0,19,0,1,,,,,,,,,,
,,016168,001,2023-07-31_20h46.05.984,arm3_eps,2022.2.5,Win32,119.8897015,61387f74d9d8365effc1b227,64c7fed44a04f777bb1e18ce,64c80156736f7892b8a2778a,up,1,1,0.2429,1,0,2.0078,20,0,20,0,1,,,,,,,,,,
,,016168,001,2023-07-31_20h46.05.984,arm3_eps,2022.2.5,Win32,119.8897015,61387f74d9d8365effc1b227,64c7fed44a04f777bb1e18ce,64c80156736f7892b8a2778a,up,1,1,0.2429,2,0,3.9709,21,0,21,0,1,,,,,,,,,,
,,016168,001,2023-07-31_20h46.05.984,arm3_eps,2022.2.5,Win32,119.8897015,61387f74d9d8365effc1b227,64c7fed44a04f777bb1e18ce,64c80156736f7892b8a2778a,up,1,1,0.2429,3,0,1.3337,22,0,22,0,1,,,,,,,,,,
,,016168,001,2023-07-31_20h46.05.984,arm3_eps,2022.2.5,Win32,119.8897015,61387f74d9d8365effc1b227,64c7fed44a04f777bb1e18ce,64c80156736f7892b8a2778a,up,1,1,0.2429,4,0,1.391,23,0,23,0,1,,,,,,,,,,
,,016168,001,2023-07-31_20h46.05.984,arm3_eps,2022.2.5,Win32,119.8897015,61387f74d9d8365effc1b227,64c7fed44a04f777bb1e18ce,64c80156736f7892b8a2778a,up,-1,1,0.2429,5,0,2.8583,24,0,24,0,1,,,,,,,,,,
,,016168,001,2023-07-31_20h46.05.984,arm3_eps,2022.2.5,Win32,119.8897015,61387f74d9d8365effc1b227,64c7fed44a04f777bb1e18ce,64c80156736f7892b8a2778a,down,-1,1,0.2429,6,0,1.2351,25,0,25,0,1,,,,,,,,,,
,,016168,001,2023-07-31_20h46.05.984,arm3_eps,2022.2.5,Win32,119.8897015,61387f74d9d8365effc1b227,64c7fed44a04f777bb1e18ce,64c80156736f7892b8a2778a,up,-1,1,0.2429,5,0,1.5183,26,0,26,0,1,,,,,,,,,,
,,016168,001,2023-07-31_20h46.05.984,arm3_eps,2022.2.5,Win32,119.8897015,61387f74d9d8365effc1b227,64c7fed44a04f777bb1e18ce,64c80156736f7892b8a2778a,down,1,1,0.2429,6,0,1.0719,27,0,27,0,1,,,,,,,,,,
,,016168,001,2023-07-31_20h46.05.984,arm3_eps,2022.2.5,Win32,119.8897015,61387f74d9d8365effc1b227,64c7fed44a04f777bb1e18ce,64c80156736f7892b8a2778a,down,1,1,0.2429,5,0,1.1216,28,0,28,0,1,,,,,,,,,,
,,016168,001,2023-07-31_20h46.05.984,arm3_eps,2022.2.5,Win32,119.8897015,61387f74d9d8365effc1b227,64c7fed44a04f777bb1e18ce,64c80156736f7892b8a2778a,up,1,1,0.2429,6,0,3.5211,29,0,29,0,1,,,,,,,,,,
,,016168,001,2023-07-31_20h46.05.984,arm3_eps,2022.2.5,Win32,119.8897015,61387f74d9d8365effc1b227,64c7fed44a04f777bb1e18ce,64c80156736f7892b8a2778a,up,1,1,0.2429,7,0,1.544,30,0,30,0,1,,,,,,,,,,
,,016168,001,2023-07-31_20h46.05.984,arm3_eps,2022.2.5,Win32,119.8897015,61387f74d9d8365effc1b227,64c7fed44a04f777bb1e18ce,64c80156736f7892b8a2778a,up,1,1,0.2429,8,0,2.3897,31,0,31,0,1,,,,,,,,,,
,,016168,001,2023-07-31_20h46.05.984,arm3_eps,2022.2.5,Win32,119.8897015,61387f74d9d8365effc1b227,64c7fed44a04f777bb1e18ce,64c80156736f7892b8a2778a,up,-1,1,0.2429,9,0,2.1336,32,0,32,0,1,,,,,,,,,,
,,016168,001,2023-07-31_20h46.05.984,arm3_eps,2022.2.5,Win32,119.8897015,61387f74d9d8365effc1b227,64c7fed44a04f777bb1e18ce,64c80156736f7892b8a2778a,up,-1,1,0.2429,8,0,1.4074,33,0,33,0,1,,,,,,,,,,
,,016168,001,2023-07-31_20h46.05.984,arm3_eps,2022.2.5,Win32,119.8897015,61387f74d9d8365effc1b227,64c7fed44a04f777bb1e18ce,64c80156736f7892b8a2778a,down,-1,1,0.2429,9,0,2.5536,34,0,34,0,1,,,,,,,,,,
,,016168,001,2023-07-31_20h46.05.984,arm3_eps,2022.2.5,Win32,119.8897015,61387f74d9d8365effc1b227,64c7fed44a04f777bb1e18ce,64c80156736f7892b8a2778a,down,1,1,0.2429,10,0,3.0024,35,0,35,0,1,,,,,,,,,,
,,016168,001,2023-07-31_20h46.05.984,arm3_eps,2022.2.5,Win32,119.8897015,61387f74d9d8365effc1b227,64c7fed44a04f777bb1e18ce,64c80156736f7892b8a2778a,up,1,1,0.2429,11,0,2.9024,36,0,36,0,1,,,,,,,,,,
,,016168,001,2023-07-31_20h46.05.984,arm3_eps,2022.2.5,Win32,119.8897015,61387f74d9d8365effc1b227,64c7fed44a04f777bb1e18ce,64c80156736f7892b8a2778a,down,-1,1,0.2429,10,0,0.0528,37,0,37,0,1,,,,,,,,,,
,,016168,001,2023-07-31_20h46.05.984,arm3_eps,2022.2.5,Win32,119.8897015,61387f74d9d8365effc1b227,64c7fed44a04f777bb1e18ce,64c80156736f7892b8a2778a,down,-1,1,0.2429,11,0,1.2457,38,0,38,0,1,,,,,,,,,,
,,016168,001,2023-07-31_20h46.05.984,arm3_eps,2022.2.5,Win32,119.8897015,61387f74d9d8365effc1b227,64c7fed44a04f777bb1e18ce,64c80156736f7892b8a2778a,down,1,1,0.2429,12,0,1.0407,39,0,39,0,1,,,,,,,,,,
,,016168,001,2023-07-31_20h46.05.984,arm3_eps,2022.2.5,Win32,119.8897015,61387f74d9d8365effc1b227,64c7fed44a04f777bb1e18ce,64c80156736f7892b8a2778a,down,1,1,0.2429,11,0,1.382,40,0,40,0,1,,,,,,,,,,
,,016168,001,2023-07-31_20h46.05.984,arm3_eps,2022.2.5,Win32,119.8897015,61387f74d9d8365effc1b227,64c7fed44a04f777bb1e18ce,64c80156736f7892b8a2778a,up,1,1,0.2429,12,0,1.2315,41,0,41,0,1,,,,,,,,,,
,,016168,001,2023-07-31_20h46.05.984,arm3_eps,2022.2.5,Win32,119.8897015,61387f74d9d8365effc1b227,64c7fed44a04f777bb1e18ce,64c80156736f7892b8a2778a,up,1,1,0.2429,13,0,1.382,42,0,42,0,1,,,,,,,,,,
,,016168,001,2023-07-31_20h46.05.984,arm3_eps,2022.2.5,Win32,119.8897015,61387f74d9d8365effc1b227,64c7fed44a04f777bb1e18ce,64c80156736f7892b8a2778a,up,1,1,0.2429,14,0,7.4619,43,0,43,0,1,,,,,,,,,,
,,016168,001,2023-07-31_20h46.05.984,arm3_eps,2022.2.5,Win32,119.8897015,61387f74d9d8365effc1b227,64c7fed44a04f777bb1e18ce,64c80156736f7892b8a2778a,up,1,1,0.2429,15,0,1.2,44,0,44,0,1,,,,,,,,,,
,,016168,001,2023-07-31_20h46.05.984,arm3_eps,2022.2.5,Win32,119.8897015,61387f74d9d8365effc1b227,64c7fed44a04f777bb1e18ce,64c80156736f7892b8a2778a,up,1,1,0.2429,16,0,1.5671,45,0,45,0,1,,,,,,,,,,
,,016168,001,2023-07-31_20h46.05.984,arm3_eps,2022.2.5,Win32,119.8897015,61387f74d9d8365effc1b227,64c7fed44a04f777bb1e18ce,64c80156736f7892b8a2778a,down,1,1,0.2429,15,0,1.8405,46,0,46,0,1,,,,,,,,,,
,,016168,001,2023-07-31_20h46.05.984,arm3_eps,2022.2.5,Win32,119.8897015,61387f74d9d8365effc1b227,64c7fed44a04f777bb1e18ce,64c80156736f7892b8a2778a,up,1,1,0.2429,16,0,1.36,47,0,47,0,1,,,,,,,,,,
,,016168,001,2023-07-31_20h46.05.984,arm3_eps,2022.2.5,Win32,119.8897015,61387f74d9d8365effc1b227,64c7fed44a04f777bb1e18ce,64c80156736f7892b8a2778a,down,1,1,0.2429,15,0,3.4709,48,0,48,0,1,,,,,,,,,,
,,016168,001,2023-07-31_20h46.05.984,arm3_eps,2022.2.5,Win32,119.8897015,61387f74d9d8365effc1b227,64c7fed44a04f777bb1e18ce,64c80156736f7892b8a2778a,up,1,1,0.2429,15,0,1.0281,49,0,49,0,1,,,,,,,,,,
space,17.5466,016168,001,2023-07-31_20h46.05.984,arm3_eps,2022.2.5,Win32,119.8897015,61387f74d9d8365effc1b227,64c7fed44a04f777bb1e18ce,64c80156736f7892b8a2778a,,,,,,,,,,,,,,,,,,,,,,
space,29.7104,016168,001,2023-07-31_20h46.05.984,arm3_eps,2022.2.5,Win32,119.8897015,61387f74d9d8365effc1b227,64c7fed44a04f777bb1e18ce,64c80156736f7892b8a2778a,,,,,,,,,,,,,,,,,,,,,,
space,26.8492,016168,001,2023-07-31_20h46.05.984,arm3_eps,2022.2.5,Win32,119.8897015,61387f74d9d8365effc1b227,64c7fed44a04f777bb1e18ce,64c80156736f7892b8a2778a,,,,,,,,,,,,,,,,,,,,,,
space,20.9153,016168,001,2023-07-31_20h46.05.984,arm3_eps,2022.2.5,Win32,119.8897015,61387f74d9d8365effc1b227,64c7fed44a04f777bb1e18ce,64c80156736f7892b8a2778a,,,,,,,,,,,,,,,,,,,,,,
space,12.1391,016168,001,2023-07-31_20h46.05.984,arm3_eps,2022.2.5,Win32,119.8897015,61387f74d9d8365effc1b227,64c7fed44a04f777bb1e18ce,64c80156736f7892b8a2778a,,,,,,,,,,,,,,,,,,,,,,
space,1.1193,016168,001,2023-07-31_20h46.05.984,arm3_eps,2022.2.5,Win32,119.8897015,61387f74d9d8365effc1b227,64c7fed44a04f777bb1e18ce,64c80156736f7892b8a2778a,,,,,,,,,,,,,,,,,,,,,,
,,016168,001,2023-07-31_20h46.05.984,arm3_eps,2022.2.5,Win32,119.8897015,61387f74d9d8365effc1b227,64c7fed44a04f777bb1e18ce,64c80156736f7892b8a2778a,up,1,0.75,0.2429,0,0,2.5462,0,0,0,0,1,,,,,,,,,,
,,016168,001,2023-07-31_20h46.05.984,arm3_eps,2022.2.5,Win32,119.8897015,61387f74d9d8365effc1b227,64c7fed44a04f777bb1e18ce,64c80156736f7892b8a2778a,up,-1,0.75,0.2429,1,0,3.9433,1,0,1,0,1,,,,,,,,,,
,,016168,001,2023-07-31_20h46.05.984,arm3_eps,2022.2.5,Win32,119.8897015,61387f74d9d8365effc1b227,64c7fed44a04f777bb1e18ce,64c80156736f7892b8a2778a,down,-1,0.75,0.2429,2,0,3.4542,2,0,2,0,1,,,,,,,,,,
,,016168,001,2023-07-31_20h46.05.984,arm3_eps,2022.2.5,Win32,119.8897015,61387f74d9d8365effc1b227,64c7fed44a04f777bb1e18ce,64c80156736f7892b8a2778a,down,-1,0.75,0.2429,3,0,1.6674,3,0,3,0,1,,,,,,,,,,
,,016168,001,2023-07-31_20h46.05.984,arm3_eps,2022.2.5,Win32,119.8897015,61387f74d9d8365effc1b227,64c7fed44a04f777bb1e18ce,64c80156736f7892b8a2778a,down,-1,0.75,0.2429,4,0,1.1487,4,0,4,0,1,,,,,,,,,,
,,016168,001,2023-07-31_20h46.05.984,arm3_eps,2022.2.5,Win32,119.8897015,61387f74d9d8365effc1b227,64c7fed44a04f777bb1e18ce,64c80156736f7892b8a2778a,up,-1,0.75,0.2429,3,0,1.826,5,0,5,0,1,,,,,,,,,,
,,016168,001,2023-07-31_20h46.05.984,arm3_eps,2022.2.5,Win32,119.8897015,61387f74d9d8365effc1b227,64c7fed44a04f777bb1e18ce,64c80156736f7892b8a2778a,down,1,0.75,0.2429,4,0,1.1282,6,0,6,0,1,,,,,,,,,,
,,016168,001,2023-07-31_20h46.05.984,arm3_eps,2022.2.5,Win32,119.8897015,61387f74d9d8365effc1b227,64c7fed44a04f777bb1e18ce,64c80156736f7892b8a2778a,up,1,0.75,0.2429,5,0,1.5084,7,0,7,0,1,,,,,,,,,,
,,016168,001,2023-07-31_20h46.05.984,arm3_eps,2022.2.5,Win32,119.8897015,61387f74d9d8365effc1b227,64c7fed44a04f777bb1e18ce,64c80156736f7892b8a2778a,up,1,0.75,0.2429,6,0,1.2816,8,0,8,0,1,,,,,,,,,,
,,016168,001,2023-07-31_20h46.05.984,arm3_eps,2022.2.5,Win32,119.8897015,61387f74d9d8365effc1b227,64c7fed44a04f777bb1e18ce,64c80156736f7892b8a2778a,up,1,0.75,0.2429,7,0,1.2065,9,0,9,0,1,,,,,,,,,,
,,016168,001,2023-07-31_20h46.05.984,arm3_eps,2022.2.5,Win32,119.8897015,61387f74d9d8365effc1b227,64c7fed44a04f777bb1e18ce,64c80156736f7892b8a2778a,down,1,0.75,0.2429,6,0,1.1397,10,0,10,0,1,,,,,,,,,,
,,016168,001,2023-07-31_20h46.05.984,arm3_eps,2022.2.5,Win32,119.8897015,61387f74d9d8365effc1b227,64c7fed44a04f777bb1e18ce,64c80156736f7892b8a2778a,up,1,0.75,0.2429,7,0,5.2911,11,0,11,0,1,,,,,,,,,,
,,016168,001,2023-07-31_20h46.05.984,arm3_eps,2022.2.5,Win32,119.8897015,61387f74d9d8365effc1b227,64c7fed44a04f777bb1e18ce,64c80156736f7892b8a2778a,up,1,0.75,0.2429,8,0,1.3968,12,0,12,0,1,,,,,,,,,,
,,016168,001,2023-07-31_20h46.05.984,arm3_eps,2022.2.5,Win32,119.8897015,61387f74d9d8365effc1b227,64c7fed44a04f777bb1e18ce,64c80156736f7892b8a2778a,up,1,0.75,0.2429,9,0,1.1348,13,0,13,0,1,,,,,,,,,,
,,016168,001,2023-07-31_20h46.05.984,arm3_eps,2022.2.5,Win32,119.8897015,61387f74d9d8365effc1b227,64c7fed44a04f777bb1e18ce,64c80156736f7892b8a2778a,up,1,0.75,0.2429,10,0,1.07,14,0,14,0,1,,,,,,,,,,
,,016168,001,2023-07-31_20h46.05.984,arm3_eps,2022.2.5,Win32,119.8897015,61387f74d9d8365effc1b227,64c7fed44a04f777bb1e18ce,64c80156736f7892b8a2778a,down,1,0.75,0.2429,9,0,0.0122,15,0,15,0,1,,,,,,,,,,
,,016168,001,2023-07-31_20h46.05.984,arm3_eps,2022.2.5,Win32,119.8897015,61387f74d9d8365effc1b227,64c7fed44a04f777bb1e18ce,64c80156736f7892b8a2778a,down,1,0.75,0.2429,9,0,1.3344,16,0,16,0,1,,,,,,,,,,
,,016168,001,2023-07-31_20h46.05.984,arm3_eps,2022.2.5,Win32,119.8897015,61387f74d9d8365effc1b227,64c7fed44a04f777bb1e18ce,64c80156736f7892b8a2778a,up,-1,0.75,0.2429,9,0,4.282,17,0,17,0,1,,,,,,,,,,
,,016168,001,2023-07-31_20h46.05.984,arm3_eps,2022.2.5,Win32,119.8897015,61387f74d9d8365effc1b227,64c7fed44a04f777bb1e18ce,64c80156736f7892b8a2778a,down,-1,0.75,0.2429,10,0,1.7223,18,0,18,0,1,,,,,,,,,,
,,016168,001,2023-07-31_20h46.05.984,arm3_eps,2022.2.5,Win32,119.8897015,61387f74d9d8365effc1b227,64c7fed44a04f777bb1e18ce,64c80156736f7892b8a2778a,up,-1,0.75,0.2429,9,0,6.1442,19,0,19,0,1,,,,,,,,,,
,,016168,001,2023-07-31_20h46.05.984,arm3_eps,2022.2.5,Win32,119.8897015,61387f74d9d8365effc1b227,64c7fed44a04f777bb1e18ce,64c80156736f7892b8a2778a,down,-1,0.75,0.2429,10,0,1.5238,20,0,20,0,1,,,,,,,,,,
,,016168,001,2023-07-31_20h46.05.984,arm3_eps,2022.2.5,Win32,119.8897015,61387f74d9d8365effc1b227,64c7fed44a04f777bb1e18ce,64c80156736f7892b8a2778a,down,-1,0.75,0.2429,11,0,2.1093,21,0,21,0,1,,,,,,,,,,
,,016168,001,2023-07-31_20h46.05.984,arm3_eps,2022.2.5,Win32,119.8897015,61387f74d9d8365effc1b227,64c7fed44a04f777bb1e18ce,64c80156736f7892b8a2778a,down,-1,0.75,0.2429,12,0,9.5539,22,0,22,0,1,,,,,,,,,,
,,016168,001,2023-07-31_20h46.05.984,arm3_eps,2022.2.5,Win32,119.8897015,61387f74d9d8365effc1b227,64c7fed44a04f777bb1e18ce,64c80156736f7892b8a2778a,down,1,0.75,0.2429,13,0,1.5515,23,0,23,0,1,,,,,,,,,,
,,016168,001,2023-07-31_20h46.05.984,arm3_eps,2022.2.5,Win32,119.8897015,61387f74d9d8365effc1b227,64c7fed44a04f777bb1e18ce,64c80156736f7892b8a2778a,up,1,0.75,0.2429,14,0,1.1238,24,0,24,0,1,,,,,,,,,,
,,016168,001,2023-07-31_20h46.05.984,arm3_eps,2022.2.5,Win32,119.8897015,61387f74d9d8365effc1b227,64c7fed44a04f777bb1e18ce,64c80156736f7892b8a2778a,down,1,0.75,0.2429,13,0,1.4334,25,0,25,0,1,,,,,,,,,,
,,016168,001,2023-07-31_20h46.05.984,arm3_eps,2022.2.5,Win32,119.8897015,61387f74d9d8365effc1b227,64c7fed44a04f777bb1e18ce,64c80156736f7892b8a2778a,up,-1,0.75,0.2429,14,0,1.0243,26,0,26,0,1,,,,,,,,,,
,,016168,001,2023-07-31_20h46.05.984,arm3_eps,2022.2.5,Win32,119.8897015,61387f74d9d8365effc1b227,64c7fed44a04f777bb1e18ce,64c80156736f7892b8a2778a,up,-1,0.75,0.2429,14,0,1.2489,27,0,27,0,1,,,,,,,,,,
,,016168,001,2023-07-31_20h46.05.984,arm3_eps,2022.2.5,Win32,119.8897015,61387f74d9d8365effc1b227,64c7fed44a04f777bb1e18ce,64c80156736f7892b8a2778a,down,-1,0.75,0.2429,15,0,1.2557,28,0,28,0,1,,,,,,,,,,
,,016168,001,2023-07-31_20h46.05.984,arm3_eps,2022.2.5,Win32,119.8897015,61387f74d9d8365effc1b227,64c7fed44a04f777bb1e18ce,64c80156736f7892b8a2778a,down,1,0.75,0.2429,16,0,1.8346,29,0,29,0,1,,,,,,,,,,
,,016168,001,2023-07-31_20h46.05.984,arm3_eps,2022.2.5,Win32,119.8897015,61387f74d9d8365effc1b227,64c7fed44a04f777bb1e18ce,64c80156736f7892b8a2778a,up,1,0.75,0.2429,17,0,1.0646,30,0,30,0,1,,,,,,,,,,
,,016168,001,2023-07-31_20h46.05.984,arm3_eps,2022.2.5,Win32,119.8897015,61387f74d9d8365effc1b227,64c7fed44a04f777bb1e18ce,64c80156736f7892b8a2778a,up,1,0.75,0.2429,17,0,1.0712,31,0,31,0,1,,,,,,,,,,
,,016168,001,2023-07-31_20h46.05.984,arm3_eps,2022.2.5,Win32,119.8897015,61387f74d9d8365effc1b227,64c7fed44a04f777bb1e18ce,64c80156736f7892b8a2778a,up,1,0.75,0.2429,18,0,1.0672,32,0,32,0,1,,,,,,,,,,
,,016168,001,2023-07-31_20h46.05.984,arm3_eps,2022.2.5,Win32,119.8897015,61387f74d9d8365effc1b227,64c7fed44a04f777bb1e18ce,64c80156736f7892b8a2778a,up,1,0.75,0.2429,19,0,1.2761,33,0,33,0,1,,,,,,,,,,
,,016168,001,2023-07-31_20h46.05.984,arm3_eps,2022.2.5,Win32,119.8897015,61387f74d9d8365effc1b227,64c7fed44a04f777bb1e18ce,64c80156736f7892b8a2778a,up,1,0.75,0.2429,20,0,3.0113,34,0,34,0,1,,,,,,,,,,
,,016168,001,2023-07-31_20h46.05.984,arm3_eps,2022.2.5,Win32,119.8897015,61387f74d9d8365effc1b227,64c7fed44a04f777bb1e18ce,64c80156736f7892b8a2778a,up,1,0.75,0.2429,20,0,1.1795,35,0,35,0,1,,,,,,,,,,
,,016168,001,2023-07-31_20h46.05.984,arm3_eps,2022.2.5,Win32,119.8897015,61387f74d9d8365effc1b227,64c7fed44a04f777bb1e18ce,64c80156736f7892b8a2778a,up,1,0.75,0.2429,21,0,1.1512,36,0,36,0,1,,,,,,,,,,
,,016168,001,2023-07-31_20h46.05.984,arm3_eps,2022.2.5,Win32,119.8897015,61387f74d9d8365effc1b227,64c7fed44a04f777bb1e18ce,64c80156736f7892b8a2778a,down,1,0.75,0.2429,20,0,1.2144,37,0,37,0,1,,,,,,,,,,
,,016168,001,2023-07-31_20h46.05.984,arm3_eps,2022.2.5,Win32,119.8897015,61387f74d9d8365effc1b227,64c7fed44a04f777bb1e18ce,64c80156736f7892b8a2778a,up,-1,0.75,0.2429,20,0,0.9959,38,0,38,0,1,,,,,,,,,,
,,016168,001,2023-07-31_20h46.05.984,arm3_eps,2022.2.5,Win32,119.8897015,61387f74d9d8365effc1b227,64c7fed44a04f777bb1e18ce,64c80156736f7892b8a2778a,up,1,0.75,0.2429,19,0,1.3329,39,0,39,0,1,,,,,,,,,,
,,016168,001,2023-07-31_20h46.05.984,arm3_eps,2022.2.5,Win32,119.8897015,61387f74d9d8365effc1b227,64c7fed44a04f777bb1e18ce,64c80156736f7892b8a2778a,up,1,0.75,0.2429,20,0,2.9527,40,0,40,0,1,,,,,,,,,,
,,016168,001,2023-07-31_20h46.05.984,arm3_eps,2022.2.5,Win32,119.8897015,61387f74d9d8365effc1b227,64c7fed44a04f777bb1e18ce,64c80156736f7892b8a2778a,up,1,0.75,0.2429,21,0,1.2202,41,0,41,0,1,,,,,,,,,,
,,016168,001,2023-07-31_20h46.05.984,arm3_eps,2022.2.5,Win32,119.8897015,61387f74d9d8365effc1b227,64c7fed44a04f777bb1e18ce,64c80156736f7892b8a2778a,up,1,0.75,0.2429,22,0,2.2573,42,0,42,0,1,,,,,,,,,,
,,016168,001,2023-07-31_20h46.05.984,arm3_eps,2022.2.5,Win32,119.8897015,61387f74d9d8365effc1b227,64c7fed44a04f777bb1e18ce,64c80156736f7892b8a2778a,down,1,0.75,0.2429,22,0,1.3125,43,0,43,0,1,,,,,,,,,,
,,016168,001,2023-07-31_20h46.05.984,arm3_eps,2022.2.5,Win32,119.8897015,61387f74d9d8365effc1b227,64c7fed44a04f777bb1e18ce,64c80156736f7892b8a2778a,down,1,0.75,0.2429,21,0,1.2529,44,0,44,0,1,,,,,,,,,,
,,016168,001,2023-07-31_20h46.05.984,arm3_eps,2022.2.5,Win32,119.8897015,61387f74d9d8365effc1b227,64c7fed44a04f777bb1e18ce,64c80156736f7892b8a2778a,down,1,0.75,0.2429,20,0,2.6166,45,0,45,0,1,,,,,,,,,,
,,016168,001,2023-07-31_20h46.05.984,arm3_eps,2022.2.5,Win32,119.8897015,61387f74d9d8365effc1b227,64c7fed44a04f777bb1e18ce,64c80156736f7892b8a2778a,up,-1,0.75,0.2429,20,0,1.589,46,0,46,0,1,,,,,,,,,,
,,016168,001,2023-07-31_20h46.05.984,arm3_eps,2022.2.5,Win32,119.8897015,61387f74d9d8365effc1b227,64c7fed44a04f777bb1e18ce,64c80156736f7892b8a2778a,down,-1,0.75,0.2429,21,0,1.3243,47,0,47,0,1,,,,,,,,,,
,,016168,001,2023-07-31_20h46.05.984,arm3_eps,2022.2.5,Win32,119.8897015,61387f74d9d8365effc1b227,64c7fed44a04f777bb1e18ce,64c80156736f7892b8a2778a,down,-1,0.75,0.2429,22,0,1.6731,48,0,48,0,1,,,,,,,,,,
,,016168,001,2023-07-31_20h46.05.984,arm3_eps,2022.2.5,Win32,119.8897015,61387f74d9d8365effc1b227,64c7fed44a04f777bb1e18ce,64c80156736f7892b8a2778a,up,-1,0.75,0.2429,22,0,1.182,49,0,49,0,1,,,,,,,,,,
space,56.5066,016168,001,2023-07-31_20h46.05.984,arm3_eps,2022.2.5,Win32,119.8897015,61387f74d9d8365effc1b227,64c7fed44a04f777bb1e18ce,64c80156736f7892b8a2778a,,,,,,,,,,,,,,,,,,,,,,
space,14.3917,016168,001,2023-07-31_20h46.05.984,arm3_eps,2022.2.5,Win32,119.8897015,61387f74d9d8365effc1b227,64c7fed44a04f777bb1e18ce,64c80156736f7892b8a2778a,,,,,,,,,,,,,,,,,,,,,,
space,1.2806,016168,001,2023-07-31_20h46.05.984,arm3_eps,2022.2.5,Win32,119.8897015,61387f74d9d8365effc1b227,64c7fed44a04f777bb1e18ce,64c80156736f7892b8a2778a,,,,,,,,,,,,,,,,,,,,,,
,,016168,001,2023-07-31_20h46.05.984,arm3_eps,2022.2.5,Win32,119.8897015,61387f74d9d8365effc1b227,64c7fed44a04f777bb1e18ce,64c80156736f7892b8a2778a,up,1,0.75,0.05,-1,0,1.9371,0,0,0,0,1,,,,,,,,,,
,,016168,001,2023-07-31_20h46.05.984,arm3_eps,2022.2.5,Win32,119.8897015,61387f74d9d8365effc1b227,64c7fed44a04f777bb1e18ce,64c80156736f7892b8a2778a,up,1,0.75,0.05,0,0,3.0362,1,0,1,0,1,,,,,,,,,,
,,016168,001,2023-07-31_20h46.05.984,arm3_eps,2022.2.5,Win32,119.8897015,61387f74d9d8365effc1b227,64c7fed44a04f777bb1e18ce,64c80156736f7892b8a2778a,up,1,0.75,0.05,1,0,1.2387,2,0,2,0,1,,,,,,,,,,
,,016168,001,2023-07-31_20h46.05.984,arm3_eps,2022.2.5,Win32,119.8897015,61387f74d9d8365effc1b227,64c7fed44a04f777bb1e18ce,64c80156736f7892b8a2778a,up,1,0.75,0.05,2,0,1.2083,3,0,3,0,1,,,,,,,,,,
,,016168,001,2023-07-31_20h46.05.984,arm3_eps,2022.2.5,Win32,119.8897015,61387f74d9d8365effc1b227,64c7fed44a04f777bb1e18ce,64c80156736f7892b8a2778a,up,1,0.75,0.05,3,0,1.102,4,0,4,0,1,,,,,,,,,,
,,016168,001,2023-07-31_20h46.05.984,arm3_eps,2022.2.5,Win32,119.8897015,61387f74d9d8365effc1b227,64c7fed44a04f777bb1e18ce,64c80156736f7892b8a2778a,down,1,0.75,0.05,3,0,1.2778,5,0,5,0,1,,,,,,,,,,
,,016168,001,2023-07-31_20h46.05.984,arm3_eps,2022.2.5,Win32,119.8897015,61387f74d9d8365effc1b227,64c7fed44a04f777bb1e18ce,64c80156736f7892b8a2778a,up,-1,0.75,0.05,4,0,1.2081,6,0,6,0,1,,,,,,,,,,
,,016168,001,2023-07-31_20h46.05.984,arm3_eps,2022.2.5,Win32,119.8897015,61387f74d9d8365effc1b227,64c7fed44a04f777bb1e18ce,64c80156736f7892b8a2778a,down,-1,0.75,0.05,5,0,1.5086,7,0,7,0,1,,,,,,,,,,
,,016168,001,2023-07-31_20h46.05.984,arm3_eps,2022.2.5,Win32,119.8897015,61387f74d9d8365effc1b227,64c7fed44a04f777bb1e18ce,64c80156736f7892b8a2778a,down,-1,0.75,0.05,6,0,1.096,8,0,8,0,1,,,,,,,,,,
,,016168,001,2023-07-31_20h46.05.984,arm3_eps,2022.2.5,Win32,119.8897015,61387f74d9d8365effc1b227,64c7fed44a04f777bb1e18ce,64c80156736f7892b8a2778a,down,-1,0.75,0.05,7,0,1.2103,9,0,9,0,1,,,,,,,,,,
,,016168,001,2023-07-31_20h46.05.984,arm3_eps,2022.2.5,Win32,119.8897015,61387f74d9d8365effc1b227,64c7fed44a04f777bb1e18ce,64c80156736f7892b8a2778a,up,-1,0.75,0.05,7,0,1.7341,10,0,10,0,1,,,,,,,,,,
,,016168,001,2023-07-31_20h46.05.984,arm3_eps,2022.2.5,Win32,119.8897015,61387f74d9d8365effc1b227,64c7fed44a04f777bb1e18ce,64c80156736f7892b8a2778a,down,-1,0.75,0.05,8,0,1.4029,11,0,11,0,1,,,,,,,,,,
,,016168,001,2023-07-31_20h46.05.984,arm3_eps,2022.2.5,Win32,119.8897015,61387f74d9d8365effc1b227,64c7fed44a04f777bb1e18ce,64c80156736f7892b8a2778a,down,-1,0.75,0.05,9,0,1.4749,12,0,12,0,1,,,,,,,,,,
,,016168,001,2023-07-31_20h46.05.984,arm3_eps,2022.2.5,Win32,119.8897015,61387f74d9d8365effc1b227,64c7fed44a04f777bb1e18ce,64c80156736f7892b8a2778a,down,-1,0.75,0.05,10,0,1.1784,13,0,13,0,1,,,,,,,,,,
,,016168,001,2023-07-31_20h46.05.984,arm3_eps,2022.2.5,Win32,119.8897015,61387f74d9d8365effc1b227,64c7fed44a04f777bb1e18ce,64c80156736f7892b8a2778a,up,-1,0.75,0.05,10,0,2.1033,14,0,14,0,1,,,,,,,,,,
,,016168,001,2023-07-31_20h46.05.984,arm3_eps,2022.2.5,Win32,119.8897015,61387f74d9d8365effc1b227,64c7fed44a04f777bb1e18ce,64c80156736f7892b8a2778a,down,-1,0.75,0.05,11,0,1.1267,15,0,15,0,1,,,,,,,,,,
,,016168,001,2023-07-31_20h46.05.984,arm3_eps,2022.2.5,Win32,119.8897015,61387f74d9d8365effc1b227,64c7fed44a04f777bb1e18ce,64c80156736f7892b8a2778a,up,1,0.75,0.05,11,0,1.1357,16,0,16,0,1,,,,,,,,,,
,,016168,001,2023-07-31_20h46.05.984,arm3_eps,2022.2.5,Win32,119.8897015,61387f74d9d8365effc1b227,64c7fed44a04f777bb1e18ce,64c80156736f7892b8a2778a,up,1,0.75,0.05,11,0,1.0174,17,0,17,0,1,,,,,,,,,,
,,016168,001,2023-07-31_20h46.05.984,arm3_eps,2022.2.5,Win32,119.8897015,61387f74d9d8365effc1b227,64c7fed44a04f777bb1e18ce,64c80156736f7892b8a2778a,up,1,0.75,0.05,12,0,0.9514,18,0,18,0,1,,,,,,,,,,
,,016168,001,2023-07-31_20h46.05.984,arm3_eps,2022.2.5,Win32,119.8897015,61387f74d9d8365effc1b227,64c7fed44a04f777bb1e18ce,64c80156736f7892b8a2778a,up,1,0.75,0.05,13,0,1.0222,19,0,19,0,1,,,,,,,,,,
,,016168,001,2023-07-31_20h46.05.984,arm3_eps,2022.2.5,Win32,119.8897015,61387f74d9d8365effc1b227,64c7fed44a04f777bb1e18ce,64c80156736f7892b8a2778a,down,1,0.75,0.05,13,0,2.1029,20,0,20,0,1,,,,,,,,,,
,,016168,001,2023-07-31_20h46.05.984,arm3_eps,2022.2.5,Win32,119.8897015,61387f74d9d8365effc1b227,64c7fed44a04f777bb1e18ce,64c80156736f7892b8a2778a,up,-1,0.75,0.05,14,0,1.0249,21,0,21,0,1,,,,,,,,,,
,,016168,001,2023-07-31_20h46.05.984,arm3_eps,2022.2.5,Win32,119.8897015,61387f74d9d8365effc1b227,64c7fed44a04f777bb1e18ce,64c80156736f7892b8a2778a,up,-1,0.75,0.05,13,0,1.0823,22,0,22,0,1,,,,,,,,,,
,,016168,001,2023-07-31_20h46.05.984,arm3_eps,2022.2.5,Win32,119.8897015,61387f74d9d8365effc1b227,64c7fed44a04f777bb1e18ce,64c80156736f7892b8a2778a,down,1,0.75,0.05,14,0,1.068,23,0,23,0,1,,,,,,,,,,
,,016168,001,2023-07-31_20h46.05.984,arm3_eps,2022.2.5,Win32,119.8897015,61387f74d9d8365effc1b227,64c7fed44a04f777bb1e18ce,64c80156736f7892b8a2778a,down,1,0.75,0.05,13,0,1.0681,24,0,24,0,1,,,,,,,,,,
,,016168,001,2023-07-31_20h46.05.984,arm3_eps,2022.2.5,Win32,119.8897015,61387f74d9d8365effc1b227,64c7fed44a04f777bb1e18ce,64c80156736f7892b8a2778a,up,1,0.75,0.05,14,0,1.4347,25,0,25,0,1,,,,,,,,,,
,,016168,001,2023-07-31_20h46.05.984,arm3_eps,2022.2.5,Win32,119.8897015,61387f74d9d8365effc1b227,64c7fed44a04f777bb1e18ce,64c80156736f7892b8a2778a,up,1,0.75,0.05,15,0,1.495,26,0,26,0,1,,,,,,,,,,
,,016168,001,2023-07-31_20h46.05.984,arm3_eps,2022.2.5,Win32,119.8897015,61387f74d9d8365effc1b227,64c7fed44a04f777bb1e18ce,64c80156736f7892b8a2778a,up,1,0.75,0.05,16,0,1.1603,27,0,27,0,1,,,,,,,,,,
,,016168,001,2023-07-31_20h46.05.984,arm3_eps,2022.2.5,Win32,119.8897015,61387f74d9d8365effc1b227,64c7fed44a04f777bb1e18ce,64c80156736f7892b8a2778a,down,1,0.75,0.05,15,0,1.4729,28,0,28,0,1,,,,,,,,,,
,,016168,001,2023-07-31_20h46.05.984,arm3_eps,2022.2.5,Win32,119.8897015,61387f74d9d8365effc1b227,64c7fed44a04f777bb1e18ce,64c80156736f7892b8a2778a,up,1,0.75,0.05,16,0,1.1343,29,0,29,0,1,,,,,,,,,,
,,016168,001,2023-07-31_20h46.05.984,arm3_eps,2022.2.5,Win32,119.8897015,61387f74d9d8365effc1b227,64c7fed44a04f777bb1e18ce,64c80156736f7892b8a2778a,down,1,0.75,0.05,15,0,1.1344,30,0,30,0,1,,,,,,,,,,
,,016168,001,2023-07-31_20h46.05.984,arm3_eps,2022.2.5,Win32,119.8897015,61387f74d9d8365effc1b227,64c7fed44a04f777bb1e18ce,64c80156736f7892b8a2778a,down,1,0.75,0.05,14,0,9.1331,31,0,31,0,1,,,,,,,,,,
,,016168,001,2023-07-31_20h46.05.984,arm3_eps,2022.2.5,Win32,119.8897015,61387f74d9d8365effc1b227,64c7fed44a04f777bb1e18ce,64c80156736f7892b8a2778a,up,1,0.75,0.05,14,0,1.0986,32,0,32,0,1,,,,,,,,,,
,,016168,001,2023-07-31_20h46.05.984,arm3_eps,2022.2.5,Win32,119.8897015,61387f74d9d8365effc1b227,64c7fed44a04f777bb1e18ce,64c80156736f7892b8a2778a,up,1,0.75,0.05,15,0,1.017,33,0,33,0,1,,,,,,,,,,
,,016168,001,2023-07-31_20h46.05.984,arm3_eps,2022.2.5,Win32,119.8897015,61387f74d9d8365effc1b227,64c7fed44a04f777bb1e18ce,64c80156736f7892b8a2778a,up,1,0.75,0.05,16,0,1.0021,34,0,34,0,1,,,,,,,,,,
,,016168,001,2023-07-31_20h46.05.984,arm3_eps,2022.2.5,Win32,119.8897015,61387f74d9d8365effc1b227,64c7fed44a04f777bb1e18ce,64c80156736f7892b8a2778a,up,1,0.75,0.05,17,0,1.4111,35,0,35,0,1,,,,,,,,,,
,,016168,001,2023-07-31_20h46.05.984,arm3_eps,2022.2.5,Win32,119.8897015,61387f74d9d8365effc1b227,64c7fed44a04f777bb1e18ce,64c80156736f7892b8a2778a,up,1,0.75,0.05,18,0,1.0714,36,0,36,0,1,,,,,,,,,,
,,016168,001,2023-07-31_20h46.05.984,arm3_eps,2022.2.5,Win32,119.8897015,61387f74d9d8365effc1b227,64c7fed44a04f777bb1e18ce,64c80156736f7892b8a2778a,up,1,0.75,0.05,18,0,1.2592,37,0,37,0,1,,,,,,,,,,
,,016168,001,2023-07-31_20h46.05.984,arm3_eps,2022.2.5,Win32,119.8897015,61387f74d9d8365effc1b227,64c7fed44a04f777bb1e18ce,64c80156736f7892b8a2778a,up,1,0.75,0.05,19,0,2.1576,38,0,38,0,1,,,,,,,,,,
,,016168,001,2023-07-31_20h46.05.984,arm3_eps,2022.2.5,Win32,119.8897015,61387f74d9d8365effc1b227,64c7fed44a04f777bb1e18ce,64c80156736f7892b8a2778a,up,1,0.75,0.05,20,0,1.1114,39,0,39,0,1,,,,,,,,,,
,,016168,001,2023-07-31_20h46.05.984,arm3_eps,2022.2.5,Win32,119.8897015,61387f74d9d8365effc1b227,64c7fed44a04f777bb1e18ce,64c80156736f7892b8a2778a,up,1,0.75,0.05,20,0,1.0591,40,0,40,0,1,,,,,,,,,,
,,016168,001,2023-07-31_20h46.05.984,arm3_eps,2022.2.5,Win32,119.8897015,61387f74d9d8365effc1b227,64c7fed44a04f777bb1e18ce,64c80156736f7892b8a2778a,down,1,0.75,0.05,19,0,1.1975,41,0,41,0,1,,,,,,,,,,
,,016168,001,2023-07-31_20h46.05.984,arm3_eps,2022.2.5,Win32,119.8897015,61387f74d9d8365effc1b227,64c7fed44a04f777bb1e18ce,64c80156736f7892b8a2778a,up,1,0.75,0.05,20,0,1.0631,42,0,42,0,1,,,,,,,,,,
,,016168,001,2023-07-31_20h46.05.984,arm3_eps,2022.2.5,Win32,119.8897015,61387f74d9d8365effc1b227,64c7fed44a04f777bb1e18ce,64c80156736f7892b8a2778a,down,1,0.75,0.05,19,0,1.0603,43,0,43,0,1,,,,,,,,,,
,,016168,001,2023-07-31_20h46.05.984,arm3_eps,2022.2.5,Win32,119.8897015,61387f74d9d8365effc1b227,64c7fed44a04f777bb1e18ce,64c80156736f7892b8a2778a,up,-1,0.75,0.05,19,0,4.1018,44,0,44,0,1,,,,,,,,,,
,,016168,001,2023-07-31_20h46.05.984,arm3_eps,2022.2.5,Win32,119.8897015,61387f74d9d8365effc1b227,64c7fed44a04f777bb1e18ce,64c80156736f7892b8a2778a,down,-1,0.75,0.05,20,0,1.0191,45,0,45,0,1,,,,,,,,,,
,,016168,001,2023-07-31_20h46.05.984,arm3_eps,2022.2.5,Win32,119.8897015,61387f74d9d8365effc1b227,64c7fed44a04f777bb1e18ce,64c80156736f7892b8a2778a,down,-1,0.75,0.05,20,0,1.2844,46,0,46,0,1,,,,,,,,,,
,,016168,001,2023-07-31_20h46.05.984,arm3_eps,2022.2.5,Win32,119.8897015,61387f74d9d8365effc1b227,64c7fed44a04f777bb1e18ce,64c80156736f7892b8a2778a,down,-1,0.75,0.05,21,0,1.0517,47,0,47,0,1,,,,,,,,,,
,,016168,001,2023-07-31_20h46.05.984,arm3_eps,2022.2.5,Win32,119.8897015,61387f74d9d8365effc1b227,64c7fed44a04f777bb1e18ce,64c80156736f7892b8a2778a,down,-1,0.75,0.05,22,0,0.9925,48,0,48,0,1,,,,,,,,,,
,,016168,001,2023-07-31_20h46.05.984,arm3_eps,2022.2.5,Win32,119.8897015,61387f74d9d8365effc1b227,64c7fed44a04f777bb1e18ce,64c80156736f7892b8a2778a,up,-1,0.75,0.05,22,0,1.1727,49,0,49,0,1,,,,,,,,,,
space,12.3388,016168,001,2023-07-31_20h46.05.984,arm3_eps,2022.2.5,Win32,119.8897015,61387f74d9d8365effc1b227,64c7fed44a04f777bb1e18ce,64c80156736f7892b8a2778a,,,,,,,,,,,,,,,,,,,,,,
space,1.1798,016168,001,2023-07-31_20h46.05.984,arm3_eps,2022.2.5,Win32,119.8897015,61387f74d9d8365effc1b227,64c7fed44a04f777bb1e18ce,64c80156736f7892b8a2778a,,,,,,,,,,,,,,,,,,,,,,
,,016168,001,2023-07-31_20h46.05.984,arm3_eps,2022.2.5,Win32,119.8897015,61387f74d9d8365effc1b227,64c7fed44a04f777bb1e18ce,64c80156736f7892b8a2778a,up,-1,0.75,0.5,-1,0,3.2816,0,0,0,0,1,,,,,,,,,,
,,016168,001,2023-07-31_20h46.05.984,arm3_eps,2022.2.5,Win32,119.8897015,61387f74d9d8365effc1b227,64c7fed44a04f777bb1e18ce,64c80156736f7892b8a2778a,down,-1,0.75,0.5,0,0,1.5438,1,0,1,0,1,,,,,,,,,,
,,016168,001,2023-07-31_20h46.05.984,arm3_eps,2022.2.5,Win32,119.8897015,61387f74d9d8365effc1b227,64c7fed44a04f777bb1e18ce,64c80156736f7892b8a2778a,up,1,0.75,0.5,0,0,1.2755,2,0,2,0,1,,,,,,,,,,
,,016168,001,2023-07-31_20h46.05.984,arm3_eps,2022.2.5,Win32,119.8897015,61387f74d9d8365effc1b227,64c7fed44a04f777bb1e18ce,64c80156736f7892b8a2778a,down,-1,0.75,0.5,-1,0,1.0722,3,0,3,0,1,,,,,,,,,,
,,016168,001,2023-07-31_20h46.05.984,arm3_eps,2022.2.5,Win32,119.8897015,61387f74d9d8365effc1b227,64c7fed44a04f777bb1e18ce,64c80156736f7892b8a2778a,down,-1,0.75,0.5,0,0,1.0697,4,0,4,0,1,,,,,,,,,,
,,016168,001,2023-07-31_20h46.05.984,arm3_eps,2022.2.5,Win32,119.8897015,61387f74d9d8365effc1b227,64c7fed44a04f777bb1e18ce,64c80156736f7892b8a2778a,up,1,0.75,0.5,-1,0,1.3687,5,0,5,0,1,,,,,,,,,,
,,016168,001,2023-07-31_20h46.05.984,arm3_eps,2022.2.5,Win32,119.8897015,61387f74d9d8365effc1b227,64c7fed44a04f777bb1e18ce,64c80156736f7892b8a2778a,up,-1,0.75,0.5,-1,0,1.2017,6,0,6,0,1,,,,,,,,,,
,,016168,001,2023-07-31_20h46.05.984,arm3_eps,2022.2.5,Win32,119.8897015,61387f74d9d8365effc1b227,64c7fed44a04f777bb1e18ce,64c80156736f7892b8a2778a,down,-1,0.75,0.5,0,0,1.4174,7,0,7,0,1,,,,,,,,,,
,,016168,001,2023-07-31_20h46.05.984,arm3_eps,2022.2.5,Win32,119.8897015,61387f74d9d8365effc1b227,64c7fed44a04f777bb1e18ce,64c80156736f7892b8a2778a,down,-1,0.75,0.5,1,0,1.8808,8,0,8,0,1,,,,,,,,,,
,,016168,001,2023-07-31_20h46.05.984,arm3_eps,2022.2.5,Win32,119.8897015,61387f74d9d8365effc1b227,64c7fed44a04f777bb1e18ce,64c80156736f7892b8a2778a,down,1,0.75,0.5,2,0,1.1941,9,0,9,0,1,,,,,,,,,,
,,016168,001,2023-07-31_20h46.05.984,arm3_eps,2022.2.5,Win32,119.8897015,61387f74d9d8365effc1b227,64c7fed44a04f777bb1e18ce,64c80156736f7892b8a2778a,up,-1,0.75,0.5,2,0,1.1023,10,0,10,0,1,,,,,,,,,,
,,016168,001,2023-07-31_20h46.05.984,arm3_eps,2022.2.5,Win32,119.8897015,61387f74d9d8365effc1b227,64c7fed44a04f777bb1e18ce,64c80156736f7892b8a2778a,down,1,0.75,0.5,3,0,1.0208,11,0,11,0,1,,,,,,,,,,
,,016168,001,2023-07-31_20h46.05.984,arm3_eps,2022.2.5,Win32,119.8897015,61387f74d9d8365effc1b227,64c7fed44a04f777bb1e18ce,64c80156736f7892b8a2778a,down,1,0.75,0.5,3,0,2.0258,12,0,12,0,1,,,,,,,,,,
,,016168,001,2023-07-31_20h46.05.984,arm3_eps,2022.2.5,Win32,119.8897015,61387f74d9d8365effc1b227,64c7fed44a04f777bb1e18ce,64c80156736f7892b8a2778a,up,-1,0.75,0.5,4,0,1.145,13,0,13,0,1,,,,,,,,,,
,,016168,001,2023-07-31_20h46.05.984,arm3_eps,2022.2.5,Win32,119.8897015,61387f74d9d8365effc1b227,64c7fed44a04f777bb1e18ce,64c80156736f7892b8a2778a,up,1,0.75,0.5,3,0,2.4266,14,0,14,0,1,,,,,,,,,,
,,016168,001,2023-07-31_20h46.05.984,arm3_eps,2022.2.5,Win32,119.8897015,61387f74d9d8365effc1b227,64c7fed44a04f777bb1e18ce,64c80156736f7892b8a2778a,down,-1,0.75,0.5,3,0,1.3642,15,0,15,0,1,,,,,,,,,,
,,016168,001,2023-07-31_20h46.05.984,arm3_eps,2022.2.5,Win32,119.8897015,61387f74d9d8365effc1b227,64c7fed44a04f777bb1e18ce,64c80156736f7892b8a2778a,down,1,0.75,0.5,4,0,1.1589,16,0,16,0,1,,,,,,,,,,
,,016168,001,2023-07-31_20h46.05.984,arm3_eps,2022.2.5,Win32,119.8897015,61387f74d9d8365effc1b227,64c7fed44a04f777bb1e18ce,64c80156736f7892b8a2778a,down,1,0.75,0.5,3,0,1.0693,17,0,17,0,1,,,,,,,,,,
,,016168,001,2023-07-31_20h46.05.984,arm3_eps,2022.2.5,Win32,119.8897015,61387f74d9d8365effc1b227,64c7fed44a04f777bb1e18ce,64c80156736f7892b8a2778a,down,1,0.75,0.5,2,0,1.0431,18,0,18,0,1,,,,,,,,,,
,,016168,001,2023-07-31_20h46.05.984,arm3_eps,2022.2.5,Win32,119.8897015,61387f74d9d8365effc1b227,64c7fed44a04f777bb1e18ce,64c80156736f7892b8a2778a,up,1,0.75,0.5,3,0,1.133,19,0,19,0,1,,,,,,,,,,
,,016168,001,2023-07-31_20h46.05.984,arm3_eps,2022.2.5,Win32,119.8897015,61387f74d9d8365effc1b227,64c7fed44a04f777bb1e18ce,64c80156736f7892b8a2778a,up,1,0.75,0.5,3,0,1.093,20,0,20,0,1,,,,,,,,,,
,,016168,001,2023-07-31_20h46.05.984,arm3_eps,2022.2.5,Win32,119.8897015,61387f74d9d8365effc1b227,64c7fed44a04f777bb1e18ce,64c80156736f7892b8a2778a,down,-1,0.75,0.5,2,0,1.0643,21,0,21,0,1,,,,,,,,,,
,,016168,001,2023-07-31_20h46.05.984,arm3_eps,2022.2.5,Win32,119.8897015,61387f74d9d8365effc1b227,64c7fed44a04f777bb1e18ce,64c80156736f7892b8a2778a,down,-1,0.75,0.5,3,0,1.034,22,0,22,0,1,,,,,,,,,,
,,016168,001,2023-07-31_20h46.05.984,arm3_eps,2022.2.5,Win32,119.8897015,61387f74d9d8365effc1b227,64c7fed44a04f777bb1e18ce,64c80156736f7892b8a2778a,up,1,0.75,0.5,2,0,1.7946,23,0,23,0,1,,,,,,,,,,
,,016168,001,2023-07-31_20h46.05.984,arm3_eps,2022.2.5,Win32,119.8897015,61387f74d9d8365effc1b227,64c7fed44a04f777bb1e18ce,64c80156736f7892b8a2778a,down,-1,0.75,0.5,2,0,1.0722,24,0,24,0,1,,,,,,,,,,
,,016168,001,2023-07-31_20h46.05.984,arm3_eps,2022.2.5,Win32,119.8897015,61387f74d9d8365effc1b227,64c7fed44a04f777bb1e18ce,64c80156736f7892b8a2778a,up,1,0.75,0.5,2,0,1.0753,25,0,25,0,1,,,,,,,,,,
,,016168,001,2023-07-31_20h46.05.984,arm3_eps,2022.2.5,Win32,119.8897015,61387f74d9d8365effc1b227,64c7fed44a04f777bb1e18ce,64c80156736f7892b8a2778a,down,1,0.75,0.5,1,0,1.0928,26,0,26,0,1,,,,,,,,,,
,,016168,001,2023-07-31_20h46.05.984,arm3_eps,2022.2.5,Win32,119.8897015,61387f74d9d8365effc1b227,64c7fed44a04f777bb1e18ce,64c80156736f7892b8a2778a,up,1,0.75,0.5,2,0,1.1048,27,0,27,0,1,,,,,,,,,,
,,016168,001,2023-07-31_20h46.05.984,arm3_eps,2022.2.5,Win32,119.8897015,61387f74d9d8365effc1b227,64c7fed44a04f777bb1e18ce,64c80156736f7892b8a2778a,down,1,0.75,0.5,1,0,1.7223,28,0,28,0,1,,,,,,,,,,
,,016168,001,2023-07-31_20h46.05.984,arm3_eps,2022.2.5,Win32,119.8897015,61387f74d9d8365effc1b227,64c7fed44a04f777bb1e18ce,64c80156736f7892b8a2778a,up,-1,0.75,0.5,2,0,1.1899,29,0,29,0,1,,,,,,,,,,
,,016168,001,2023-07-31_20h46.05.984,arm3_eps,2022.2.5,Win32,119.8897015,61387f74d9d8365effc1b227,64c7fed44a04f777bb1e18ce,64c80156736f7892b8a2778a,up,1,0.75,0.5,1,0,2.1453,30,0,30,0,1,,,,,,,,,,
,,016168,001,2023-07-31_20h46.05.984,arm3_eps,2022.2.5,Win32,119.8897015,61387f74d9d8365effc1b227,64c7fed44a04f777bb1e18ce,64c80156736f7892b8a2778a,down,-1,0.75,0.5,0,0,1.1151,31,0,31,0,1,,,,,,,,,,
,,016168,001,2023-07-31_20h46.05.984,arm3_eps,2022.2.5,Win32,119.8897015,61387f74d9d8365effc1b227,64c7fed44a04f777bb1e18ce,64c80156736f7892b8a2778a,down,-1,0.75,0.5,1,0,1.1411,32,0,32,0,1,,,,,,,,,,
,,016168,001,2023-07-31_20h46.05.984,arm3_eps,2022.2.5,Win32,119.8897015,61387f74d9d8365effc1b227,64c7fed44a04f777bb1e18ce,64c80156736f7892b8a2778a,down,-1,0.75,0.5,2,0,1.0745,33,0,33,0,1,,,,,,,,,,
,,016168,001,2023-07-31_20h46.05.984,arm3_eps,2022.2.5,Win32,119.8897015,61387f74d9d8365effc1b227,64c7fed44a04f777bb1e18ce,64c80156736f7892b8a2778a,down,-1,0.75,0.5,3,0,1.0828,34,0,34,0,1,,,,,,,,,,
,,016168,001,2023-07-31_20h46.05.984,arm3_eps,2022.2.5,Win32,119.8897015,61387f74d9d8365effc1b227,64c7fed44a04f777bb1e18ce,64c80156736f7892b8a2778a,down,-1,0.75,0.5,3,0,1.1942,35,0,35,0,1,,,,,,,,,,
,,016168,001,2023-07-31_20h46.05.984,arm3_eps,2022.2.5,Win32,119.8897015,61387f74d9d8365effc1b227,64c7fed44a04f777bb1e18ce,64c80156736f7892b8a2778a,up,-1,0.75,0.5,2,0,1.1751,36,0,36,0,1,,,,,,,,,,
,,016168,001,2023-07-31_20h46.05.984,arm3_eps,2022.2.5,Win32,119.8897015,61387f74d9d8365effc1b227,64c7fed44a04f777bb1e18ce,64c80156736f7892b8a2778a,up,1,0.75,0.5,1,0,1.3863,37,0,37,0,1,,,,,,,,,,
,,016168,001,2023-07-31_20h46.05.984,arm3_eps,2022.2.5,Win32,119.8897015,61387f74d9d8365effc1b227,64c7fed44a04f777bb1e18ce,64c80156736f7892b8a2778a,up,-1,0.75,0.5,2,0,1.4676,38,0,38,0,1,,,,,,,,,,
,,016168,001,2023-07-31_20h46.05.984,arm3_eps,2022.2.5,Win32,119.8897015,61387f74d9d8365effc1b227,64c7fed44a04f777bb1e18ce,64c80156736f7892b8a2778a,down,1,0.75,0.5,3,0,1.4598,39,0,39,0,1,,,,,,,,,,
,,016168,001,2023-07-31_20h46.05.984,arm3_eps,2022.2.5,Win32,119.8897015,61387f74d9d8365effc1b227,64c7fed44a04f777bb1e18ce,64c80156736f7892b8a2778a,down,-1,0.75,0.5,2,0,1.1015,40,0,40,0,1,,,,,,,,,,
,,016168,001,2023-07-31_20h46.05.984,arm3_eps,2022.2.5,Win32,119.8897015,61387f74d9d8365effc1b227,64c7fed44a04f777bb1e18ce,64c80156736f7892b8a2778a,up,-1,0.75,0.5,1,0,1.061,41,0,41,0,1,,,,,,,,,,
,,016168,001,2023-07-31_20h46.05.984,arm3_eps,2022.2.5,Win32,119.8897015,61387f74d9d8365effc1b227,64c7fed44a04f777bb1e18ce,64c80156736f7892b8a2778a,down,-1,0.75,0.5,2,0,1.2346,42,0,42,0,1,,,,,,,,,,
,,016168,001,2023-07-31_20h46.05.984,arm3_eps,2022.2.5,Win32,119.8897015,61387f74d9d8365effc1b227,64c7fed44a04f777bb1e18ce,64c80156736f7892b8a2778a,up,-1,0.75,0.5,1,0,1.714,43,0,43,0,1,,,,,,,,,,
,,016168,001,2023-07-31_20h46.05.984,arm3_eps,2022.2.5,Win32,119.8897015,61387f74d9d8365effc1b227,64c7fed44a04f777bb1e18ce,64c80156736f7892b8a2778a,down,1,0.75,0.5,2,0,1.0456,44,0,44,0,1,,,,,,,,,,
,,016168,001,2023-07-31_20h46.05.984,arm3_eps,2022.2.5,Win32,119.8897015,61387f74d9d8365effc1b227,64c7fed44a04f777bb1e18ce,64c80156736f7892b8a2778a,up,-1,0.75,0.5,3,0,1.1509,45,0,45,0,1,,,,,,,,,,
,,016168,001,2023-07-31_20h46.05.984,arm3_eps,2022.2.5,Win32,119.8897015,61387f74d9d8365effc1b227,64c7fed44a04f777bb1e18ce,64c80156736f7892b8a2778a,up,1,0.75,0.5,2,0,1.4509,46,0,46,0,1,,,,,,,,,,
,,016168,001,2023-07-31_20h46.05.984,arm3_eps,2022.2.5,Win32,119.8897015,61387f74d9d8365effc1b227,64c7fed44a04f777bb1e18ce,64c80156736f7892b8a2778a,down,-1,0.75,0.5,1,0,2.5079,47,0,47,0,1,,,,,,,,,,
,,016168,001,2023-07-31_20h46.05.984,arm3_eps,2022.2.5,Win32,119.8897015,61387f74d9d8365effc1b227,64c7fed44a04f777bb1e18ce,64c80156736f7892b8a2778a,down,-1,0.75,0.5,2,0,1.113,48,0,48,0,1,,,,,,,,,,
,,016168,001,2023-07-31_20h46.05.984,arm3_eps,2022.2.5,Win32,119.8897015,61387f74d9d8365effc1b227,64c7fed44a04f777bb1e18ce,64c80156736f7892b8a2778a,down,-1,0.75,0.5,2,0,1.1582,49,0,49,0,1,,,,,,,,,,
space,2.6264,016168,001,2023-07-31_20h46.05.984,arm3_eps,2022.2.5,Win32,119.8897015,61387f74d9d8365effc1b227,64c7fed44a04f777bb1e18ce,64c80156736f7892b8a2778a,,,,,,,,,,,,,,,,,,,,,,
space,4.2161,016168,001,2023-07-31_20h46.05.984,arm3_eps,2022.2.5,Win32,119.8897015,61387f74d9d8365effc1b227,64c7fed44a04f777bb1e18ce,64c80156736f7892b8a2778a,down,-1,0.75,0.1143,1,0,1.0339,,,,,,0,0,0,0,1,,,,,
,,016168,001,2023-07-31_20h46.05.984,arm3_eps,2022.2.5,Win32,119.8897015,61387f74d9d8365effc1b227,64c7fed44a04f777bb1e18ce,64c80156736f7892b8a2778a,down,1,0.75,0.1143,2,0,1.0343,,,,,,1,0,1,0,1,,,,,
,,016168,001,2023-07-31_20h46.05.984,arm3_eps,2022.2.5,Win32,119.8897015,61387f74d9d8365effc1b227,64c7fed44a04f777bb1e18ce,64c80156736f7892b8a2778a,up,1,0.75,0.1143,3,0,1.4344,,,,,,2,0,2,0,1,,,,,
,,016168,001,2023-07-31_20h46.05.984,arm3_eps,2022.2.5,Win32,119.8897015,61387f74d9d8365effc1b227,64c7fed44a04f777bb1e18ce,64c80156736f7892b8a2778a,up,1,0.75,0.1143,4,0,1.1638,,,,,,3,0,3,0,1,,,,,
,,016168,001,2023-07-31_20h46.05.984,arm3_eps,2022.2.5,Win32,119.8897015,61387f74d9d8365effc1b227,64c7fed44a04f777bb1e18ce,64c80156736f7892b8a2778a,up,1,0.75,0.1143,5,0,1.0109,,,,,,4,0,4,0,1,,,,,
,,016168,001,2023-07-31_20h46.05.984,arm3_eps,2022.2.5,Win32,119.8897015,61387f74d9d8365effc1b227,64c7fed44a04f777bb1e18ce,64c80156736f7892b8a2778a,up,1,0.75,0.1143,6,0,1.9224,,,,,,5,0,5,0,1,,,,,
,,016168,001,2023-07-31_20h46.05.984,arm3_eps,2022.2.5,Win32,119.8897015,61387f74d9d8365effc1b227,64c7fed44a04f777bb1e18ce,64c80156736f7892b8a2778a,down,1,0.75,0.1143,6,0,1.0467,,,,,,6,0,6,0,1,,,,,
,,016168,001,2023-07-31_20h46.05.984,arm3_eps,2022.2.5,Win32,119.8897015,61387f74d9d8365effc1b227,64c7fed44a04f777bb1e18ce,64c80156736f7892b8a2778a,up,1,0.75,0.1143,7,0,1.9936,,,,,,7,0,7,0,1,,,,,
,,016168,001,2023-07-31_20h46.05.984,arm3_eps,2022.2.5,Win32,119.8897015,61387f74d9d8365effc1b227,64c7fed44a04f777bb1e18ce,64c80156736f7892b8a2778a,up,1,0.75,0.1143,8,0,1.139,,,,,,8,0,8,0,1,,,,,
,,016168,001,2023-07-31_20h46.05.984,arm3_eps,2022.2.5,Win32,119.8897015,61387f74d9d8365effc1b227,64c7fed44a04f777bb1e18ce,64c80156736f7892b8a2778a,down,-1,0.75,0.1143,7,0,1.089,,,,,,9,0,9,0,1,,,,,
,,016168,001,2023-07-31_20h46.05.984,arm3_eps,2022.2.5,Win32,119.8897015,61387f74d9d8365effc1b227,64c7fed44a04f777bb1e18ce,64c80156736f7892b8a2778a,down,-1,0.75,0.1143,8,0,1.1521,,,,,,10,0,10,0,1,,,,,
,,016168,001,2023-07-31_20h46.05.984,arm3_eps,2022.2.5,Win32,119.8897015,61387f74d9d8365effc1b227,64c7fed44a04f777bb1e18ce,64c80156736f7892b8a2778a,up,-1,0.75,0.1143,7,0,1.1213,,,,,,11,0,11,0,1,,,,,
,,016168,001,2023-07-31_20h46.05.984,arm3_eps,2022.2.5,Win32,119.8897015,61387f74d9d8365effc1b227,64c7fed44a04f777bb1e18ce,64c80156736f7892b8a2778a,up,-1,0.75,0.1143,7,0,1.304,,,,,,12,0,12,0,1,,,,,
,,016168,001,2023-07-31_20h46.05.984,arm3_eps,2022.2.5,Win32,119.8897015,61387f74d9d8365effc1b227,64c7fed44a04f777bb1e18ce,64c80156736f7892b8a2778a,down,-1,0.75,0.1143,8,0,1.0715,,,,,,13,0,13,0,1,,,,,
,,016168,001,2023-07-31_20h46.05.984,arm3_eps,2022.2.5,Win32,119.8897015,61387f74d9d8365effc1b227,64c7fed44a04f777bb1e18ce,64c80156736f7892b8a2778a,down,-1,0.75,0.1143,8,0,3.0212,,,,,,14,0,14,0,1,,,,,
,,016168,001,2023-07-31_20h46.05.984,arm3_eps,2022.2.5,Win32,119.8897015,61387f74d9d8365effc1b227,64c7fed44a04f777bb1e18ce,64c80156736f7892b8a2778a,down,-1,0.75,0.1143,9,0,1.2867,,,,,,15,0,15,0,1,,,,,
,,016168,001,2023-07-31_20h46.05.984,arm3_eps,2022.2.5,Win32,119.8897015,61387f74d9d8365effc1b227,64c7fed44a04f777bb1e18ce,64c80156736f7892b8a2778a,down,-1,0.75,0.1143,9,0,2.0059,,,,,,16,0,16,0,1,,,,,
,,016168,001,2023-07-31_20h46.05.984,arm3_eps,2022.2.5,Win32,119.8897015,61387f74d9d8365effc1b227,64c7fed44a04f777bb1e18ce,64c80156736f7892b8a2778a,down,-1,0.75,0.1143,10,0,0.9975,,,,,,17,0,17,0,1,,,,,
,,016168,001,2023-07-31_20h46.05.984,arm3_eps,2022.2.5,Win32,119.8897015,61387f74d9d8365effc1b227,64c7fed44a04f777bb1e18ce,64c80156736f7892b8a2778a,down,-1,0.75,0.1143,10,0,1.0794,,,,,,18,0,18,0,1,,,,,
,,016168,001,2023-07-31_20h46.05.984,arm3_eps,2022.2.5,Win32,119.8897015,61387f74d9d8365effc1b227,64c7fed44a04f777bb1e18ce,64c80156736f7892b8a2778a,down,1,0.75,0.1143,10,0,1.0385,,,,,,19,0,19,0,1,,,,,
,,016168,001,2023-07-31_20h46.05.984,arm3_eps,2022.2.5,Win32,119.8897015,61387f74d9d8365effc1b227,64c7fed44a04f777bb1e18ce,64c80156736f7892b8a2778a,up,1,0.75,0.1143,10,0,1.1238,,,,,,20,0,20,0,1,,,,,
,,016168,001,2023-07-31_20h46.05.984,arm3_eps,2022.2.5,Win32,119.8897015,61387f74d9d8365effc1b227,64c7fed44a04f777bb1e18ce,64c80156736f7892b8a2778a,up,1,0.75,0.1143,11,0,1.3011,,,,,,21,0,21,0,1,,,,,
,,016168,001,2023-07-31_20h46.05.984,arm3_eps,2022.2.5,Win32,119.8897015,61387f74d9d8365effc1b227,64c7fed44a04f777bb1e18ce,64c80156736f7892b8a2778a,right,1,0.75,0.1143,11,0.000395197,3.8102,,,,,,22,0,22,0,1,,,,,
,,016168,001,2023-07-31_20h46.05.984,arm3_eps,2022.2.5,Win32,119.8897015,61387f74d9d8365effc1b227,64c7fed44a04f777bb1e18ce,64c80156736f7892b8a2778a,right,1,0.75,0.1143,11,0.003544567,2.1109,,,,,,23,0,23,0,1,,,,,
,,016168,001,2023-07-31_20h46.05.984,arm3_eps,2022.2.5,Win32,119.8897015,61387f74d9d8365effc1b227,64c7fed44a04f777bb1e18ce,64c80156736f7892b8a2778a,up,1,0.75,0.1143,11,0,0.9844,,,,,,24,0,24,0,1,,,,,
,,016168,001,2023-07-31_20h46.05.984,arm3_eps,2022.2.5,Win32,119.8897015,61387f74d9d8365effc1b227,64c7fed44a04f777bb1e18ce,64c80156736f7892b8a2778a,right,1,0.75,0.1143,11,-0.0095534,2.0154,,,,,,25,0,25,0,1,,,,,
,,016168,001,2023-07-31_20h46.05.984,arm3_eps,2022.2.5,Win32,119.8897015,61387f74d9d8365effc1b227,64c7fed44a04f777bb1e18ce,64c80156736f7892b8a2778a,right,1,0.75,0.1143,11,-0.027369492,0.7312,,,,,,26,0,26,0,1,,,,,
,,016168,001,2023-07-31_20h46.05.984,arm3_eps,2022.2.5,Win32,119.8897015,61387f74d9d8365effc1b227,64c7fed44a04f777bb1e18ce,64c80156736f7892b8a2778a,down,-1,0.75,0.1143,10,0,1.9623,,,,,,27,0,27,0,1,,,,,
,,016168,001,2023-07-31_20h46.05.984,arm3_eps,2022.2.5,Win32,119.8897015,61387f74d9d8365effc1b227,64c7fed44a04f777bb1e18ce,64c80156736f7892b8a2778a,right,-1,0.75,0.1143,10,-0.003147922,1.7587,,,,,,28,0,28,0,1,,,,,
,,016168,001,2023-07-31_20h46.05.984,arm3_eps,2022.2.5,Win32,119.8897015,61387f74d9d8365effc1b227,64c7fed44a04f777bb1e18ce,64c80156736f7892b8a2778a,up,-1,0.75,0.1143,9,0,0.8022,,,,,,29,0,29,0,1,,,,,
,,016168,001,2023-07-31_20h46.05.984,arm3_eps,2022.2.5,Win32,119.8897015,61387f74d9d8365effc1b227,64c7fed44a04f777bb1e18ce,64c80156736f7892b8a2778a,up,1,0.75,0.1143,9,0,1.2896,,,,,,30,0,30,0,1,,,,,
,,016168,001,2023-07-31_20h46.05.984,arm3_eps,2022.2.5,Win32,119.8897015,61387f74d9d8365effc1b227,64c7fed44a04f777bb1e18ce,64c80156736f7892b8a2778a,up,1,0.75,0.1143,10,0,1.2875,,,,,,31,0,31,0,1,,,,,
,,016168,001,2023-07-31_20h46.05.984,arm3_eps,2022.2.5,Win32,119.8897015,61387f74d9d8365effc1b227,64c7fed44a04f777bb1e18ce,64c80156736f7892b8a2778a,up,1,0.75,0.1143,11,0,2.0762,,,,,,32,0,32,0,1,,,,,
,,016168,001,2023-07-31_20h46.05.984,arm3_eps,2022.2.5,Win32,119.8897015,61387f74d9d8365effc1b227,64c7fed44a04f777bb1e18ce,64c80156736f7892b8a2778a,right,1,0.75,0.1143,11,-0.028761756,1.7364,,,,,,33,0,33,0,1,,,,,
,,016168,001,2023-07-31_20h46.05.984,arm3_eps,2022.2.5,Win32,119.8897015,61387f74d9d8365effc1b227,64c7fed44a04f777bb1e18ce,64c80156736f7892b8a2778a,right,1,0.75,0.1143,11,0.000568659,0.3885,,,,,,34,0,34,0,1,,,,,
,,016168,001,2023-07-31_20h46.05.984,arm3_eps,2022.2.5,Win32,119.8897015,61387f74d9d8365effc1b227,64c7fed44a04f777bb1e18ce,64c80156736f7892b8a2778a,right,1,0.75,0.1143,11,-0.00459267,0.539,,,,,,35,0,35,0,1,,,,,
,,016168,001,2023-07-31_20h46.05.984,arm3_eps,2022.2.5,Win32,119.8897015,61387f74d9d8365effc1b227,64c7fed44a04f777bb1e18ce,64c80156736f7892b8a2778a,right,1,0.75,0.1143,11,0.002678809,0.5399,,,,,,36,0,36,0,1,,,,,
,,016168,001,2023-07-31_20h46.05.984,arm3_eps,2022.2.5,Win32,119.8897015,61387f74d9d8365effc1b227,64c7fed44a04f777bb1e18ce,64c80156736f7892b8a2778a,right,1,0.75,0.1143,11,0.006960056,0.9297,,,,,,37,0,37,0,1,,,,,
,,016168,001,2023-07-31_20h46.05.984,arm3_eps,2022.2.5,Win32,119.8897015,61387f74d9d8365effc1b227,64c7fed44a04f777bb1e18ce,64c80156736f7892b8a2778a,up,1,0.75,0.1143,12,0,0.4504,,,,,,38,0,38,0,1,,,,,
,,016168,001,2023-07-31_20h46.05.984,arm3_eps,2022.2.5,Win32,119.8897015,61387f74d9d8365effc1b227,64c7fed44a04f777bb1e18ce,64c80156736f7892b8a2778a,right,1,0.75,0.1143,12,-0.006619835,3.2272,,,,,,39,0,39,0,1,,,,,
,,016168,001,2023-07-31_20h46.05.984,arm3_eps,2022.2.5,Win32,119.8897015,61387f74d9d8365effc1b227,64c7fed44a04f777bb1e18ce,64c80156736f7892b8a2778a,right,1,0.75,0.1143,12,0.027737787,1.0106,,,,,,40,0,40,0,1,,,,,
,,016168,001,2023-07-31_20h46.05.984,arm3_eps,2022.2.5,Win32,119.8897015,61387f74d9d8365effc1b227,64c7fed44a04f777bb1e18ce,64c80156736f7892b8a2778a,up,1,0.75,0.1143,12,0,0.5552,,,,,,41,0,41,0,1,,,,,
,,016168,001,2023-07-31_20h46.05.984,arm3_eps,2022.2.5,Win32,119.8897015,61387f74d9d8365effc1b227,64c7fed44a04f777bb1e18ce,64c80156736f7892b8a2778a,right,1,0.75,0.1143,12,0.006110057,1.3453,,,,,,42,0,42,0,1,,,,,
,,016168,001,2023-07-31_20h46.05.984,arm3_eps,2022.2.5,Win32,119.8897015,61387f74d9d8365effc1b227,64c7fed44a04f777bb1e18ce,64c80156736f7892b8a2778a,right,1,0.75,0.1143,12,0.009128652,0.3388,,,,,,43,0,43,0,1,,,,,
,,016168,001,2023-07-31_20h46.05.984,arm3_eps,2022.2.5,Win32,119.8897015,61387f74d9d8365effc1b227,64c7fed44a04f777bb1e18ce,64c80156736f7892b8a2778a,up,1,0.75,0.1143,13,0,0.6593,,,,,,44,0,44,0,1,,,,,
,,016168,001,2023-07-31_20h46.05.984,arm3_eps,2022.2.5,Win32,119.8897015,61387f74d9d8365effc1b227,64c7fed44a04f777bb1e18ce,64c80156736f7892b8a2778a,right,1,0.75,0.1143,13,-0.04255192,1.2818,,,,,,45,0,45,0,1,,,,,
,,016168,001,2023-07-31_20h46.05.984,arm3_eps,2022.2.5,Win32,119.8897015,61387f74d9d8365effc1b227,64c7fed44a04f777bb1e18ce,64c80156736f7892b8a2778a,right,1,0.75,0.1143,13,-0.038392028,0.3144,,,,,,46,0,46,0,1,,,,,
,,016168,001,2023-07-31_20h46.05.984,arm3_eps,2022.2.5,Win32,119.8897015,61387f74d9d8365effc1b227,64c7fed44a04f777bb1e18ce,64c80156736f7892b8a2778a,right,1,0.75,0.1143,13,-0.043730755,0.58,,,,,,47,0,47,0,1,,,,,
,,016168,001,2023-07-31_20h46.05.984,arm3_eps,2022.2.5,Win32,119.8897015,61387f74d9d8365effc1b227,64c7fed44a04f777bb1e18ce,64c80156736f7892b8a2778a,down,1,0.75,0.1143,13,0,1.6293,,,,,,48,0,48,0,1,,,,,
,,016168,001,2023-07-31_20h46.05.984,arm3_eps,2022.2.5,Win32,119.8897015,61387f74d9d8365effc1b227,64c7fed44a04f777bb1e18ce,64c80156736f7892b8a2778a,right,1,0.75,0.1143,13,-0.000326202,1.1692,,,,,,49,0,49,0,1,,,,,
,,016168,001,2023-07-31_20h46.05.984,arm3_eps,2022.2.5,Win32,119.8897015,61387f74d9d8365effc1b227,64c7fed44a04f777bb1e18ce,64c80156736f7892b8a2778a,right,1,0.75,0.1143,13,0.005055314,0.292,,,,,,50,0,50,0,1,,,,,
,,016168,001,2023-07-31_20h46.05.984,arm3_eps,2022.2.5,Win32,119.8897015,61387f74d9d8365effc1b227,64c7fed44a04f777bb1e18ce,64c80156736f7892b8a2778a,up,1,0.75,0.1143,14,0,0.6517,,,,,,51,0,51,0,1,,,,,
,,016168,001,2023-07-31_20h46.05.984,arm3_eps,2022.2.5,Win32,119.8897015,61387f74d9d8365effc1b227,64c7fed44a04f777bb1e18ce,64c80156736f7892b8a2778a,right,1,0.75,0.1143,14,0.009708082,1.1684,,,,,,52,0,52,0,1,,,,,
,,016168,001,2023-07-31_20h46.05.984,arm3_eps,2022.2.5,Win32,119.8897015,61387f74d9d8365effc1b227,64c7fed44a04f777bb1e18ce,64c80156736f7892b8a2778a,right,1,0.75,0.1143,14,0.037483047,0.2748,,,,,,53,0,53,0,1,,,,,
,,016168,001,2023-07-31_20h46.05.984,arm3_eps,2022.2.5,Win32,119.8897015,61387f74d9d8365effc1b227,64c7fed44a04f777bb1e18ce,64c80156736f7892b8a2778a,right,1,0.75,0.1143,14,0.026176572,0.9143,,,,,,54,0,54,0,1,,,,,
,,016168,001,2023-07-31_20h46.05.984,arm3_eps,2022.2.5,Win32,119.8897015,61387f74d9d8365effc1b227,64c7fed44a04f777bb1e18ce,64c80156736f7892b8a2778a,right,1,0.75,0.1143,14,0.024375047,0.4756,,,,,,55,0,55,0,1,,,,,
,,016168,001,2023-07-31_20h46.05.984,arm3_eps,2022.2.5,Win32,119.8897015,61387f74d9d8365effc1b227,64c7fed44a04f777bb1e18ce,64c80156736f7892b8a2778a,down,1,0.75,0.1143,14,0,1.2456,,,,,,56,0,56,0,1,,,,,
,,016168,001,2023-07-31_20h46.05.984,arm3_eps,2022.2.5,Win32,119.8897015,61387f74d9d8365effc1b227,64c7fed44a04f777bb1e18ce,64c80156736f7892b8a2778a,right,1,0.75,0.1143,14,0.039081771,1.2192,,,,,,57,0,57,0,1,,,,,
,,016168,001,2023-07-31_20h46.05.984,arm3_eps,2022.2.5,Win32,119.8897015,61387f74d9d8365effc1b227,64c7fed44a04f777bb1e18ce,64c80156736f7892b8a2778a,right,1,0.75,0.1143,14,0.049373801,0.34,,,,,,58,0,58,0,1,,,,,
,,016168,001,2023-07-31_20h46.05.984,arm3_eps,2022.2.5,Win32,119.8897015,61387f74d9d8365effc1b227,64c7fed44a04f777bb1e18ce,64c80156736f7892b8a2778a,right,1,0.75,0.1143,14,0.046019092,0.7552,,,,,,59,0,59,0,1,,,,,
,,016168,001,2023-07-31_20h46.05.984,arm3_eps,2022.2.5,Win32,119.8897015,61387f74d9d8365effc1b227,64c7fed44a04f777bb1e18ce,64c80156736f7892b8a2778a,right,1,0.75,0.1143,14,0.057530399,0.6468,,,,,,60,0,60,0,1,,,,,
,,016168,001,2023-07-31_20h46.05.984,arm3_eps,2022.2.5,Win32,119.8897015,61387f74d9d8365effc1b227,64c7fed44a04f777bb1e18ce,64c80156736f7892b8a2778a,up,1,0.75,0.1143,14,0,0.5595,,,,,,61,0,61,0,1,,,,,
,,016168,001,2023-07-31_20h46.05.984,arm3_eps,2022.2.5,Win32,119.8897015,61387f74d9d8365effc1b227,64c7fed44a04f777bb1e18ce,64c80156736f7892b8a2778a,right,1,0.75,0.1143,14,-0.009083122,1.1434,,,,,,62,0,62,0,1,,,,,
,,016168,001,2023-07-31_20h46.05.984,arm3_eps,2022.2.5,Win32,119.8897015,61387f74d9d8365effc1b227,64c7fed44a04f777bb1e18ce,64c80156736f7892b8a2778a,right,1,0.75,0.1143,14,-0.013075089,0.292,,,,,,63,0,63,0,1,,,,,
,,016168,001,2023-07-31_20h46.05.984,arm3_eps,2022.2.5,Win32,119.8897015,61387f74d9d8365effc1b227,64c7fed44a04f777bb1e18ce,64c80156736f7892b8a2778a,right,1,0.75,0.1143,14,-0.009062174,0.8405,,,,,,64,0,64,0,1,,,,,
,,016168,001,2023-07-31_20h46.05.984,arm3_eps,2022.2.5,Win32,119.8897015,61387f74d9d8365effc1b227,64c7fed44a04f777bb1e18ce,64c80156736f7892b8a2778a,right,1,0.75,0.1143,14,0.00328198,0.4798,,,,,,65,0,65,0,1,,,,,
,,016168,001,2023-07-31_20h46.05.984,arm3_eps,2022.2.5,Win32,119.8897015,61387f74d9d8365effc1b227,64c7fed44a04f777bb1e18ce,64c80156736f7892b8a2778a,up,1,0.75,0.1143,14,0,0.5138,,,,,,66,0,66,0,1,,,,,
,,016168,001,2023-07-31_20h46.05.984,arm3_eps,2022.2.5,Win32,119.8897015,61387f74d9d8365effc1b227,64c7fed44a04f777bb1e18ce,64c80156736f7892b8a2778a,up,-1,0.75,0.1143,15,0,1.0383,,,,,,67,0,67,0,1,,,,,
,,016168,001,2023-07-31_20h46.05.984,arm3_eps,2022.2.5,Win32,119.8897015,61387f74d9d8365effc1b227,64c7fed44a04f777bb1e18ce,64c80156736f7892b8a2778a,down,-1,0.75,0.1143,15,0,1.6262,,,,,,68,0,68,0,1,,,,,
,,016168,001,2023-07-31_20h46.05.984,arm3_eps,2022.2.5,Win32,119.8897015,61387f74d9d8365effc1b227,64c7fed44a04f777bb1e18ce,64c80156736f7892b8a2778a,down,-1,0.75,0.1143,16,0,2.327,,,,,,69,0,69,0,1,,,,,
,,016168,001,2023-07-31_20h46.05.984,arm3_eps,2022.2.5,Win32,119.8897015,61387f74d9d8365effc1b227,64c7fed44a04f777bb1e18ce,64c80156736f7892b8a2778a,down,-1,0.75,0.1143,17,0,1.7426,,,,,,70,0,70,0,1,,,,,
,,016168,001,2023-07-31_20h46.05.984,arm3_eps,2022.2.5,Win32,119.8897015,61387f74d9d8365effc1b227,64c7fed44a04f777bb1e18ce,64c80156736f7892b8a2778a,down,-1,0.75,0.1143,17,0,1.0511,,,,,,71,0,71,0,1,,,,,
,,016168,001,2023-07-31_20h46.05.984,arm3_eps,2022.2.5,Win32,119.8897015,61387f74d9d8365effc1b227,64c7fed44a04f777bb1e18ce,64c80156736f7892b8a2778a,up,-1,0.75,0.1143,16,0,1.3294,,,,,,72,0,72,0,1,,,,,
,,016168,001,2023-07-31_20h46.05.984,arm3_eps,2022.2.5,Win32,119.8897015,61387f74d9d8365effc1b227,64c7fed44a04f777bb1e18ce,64c80156736f7892b8a2778a,down,-1,0.75,0.1143,17,0,1.3265,,,,,,73,0,73,0,1,,,,,
,,016168,001,2023-07-31_20h46.05.984,arm3_eps,2022.2.5,Win32,119.8897015,61387f74d9d8365effc1b227,64c7fed44a04f777bb1e18ce,64c80156736f7892b8a2778a,right,-1,0.75,0.1143,17,-0.007124967,1.6371,,,,,,74,0,74,0,1,,,,,
,,016168,001,2023-07-31_20h46.05.984,arm3_eps,2022.2.5,Win32,119.8897015,61387f74d9d8365effc1b227,64c7fed44a04f777bb1e18ce,64c80156736f7892b8a2778a,up,-1,0.75,0.1143,16,0,0.7213,,,,,,75,0,75,0,1,,,,,
,,016168,001,2023-07-31_20h46.05.984,arm3_eps,2022.2.5,Win32,119.8897015,61387f74d9d8365effc1b227,64c7fed44a04f777bb1e18ce,64c80156736f7892b8a2778a,right,-1,0.75,0.1143,16,-0.005872217,1.0399,,,,,,76,0,76,0,1,,,,,
,,016168,001,2023-07-31_20h46.05.984,arm3_eps,2022.2.5,Win32,119.8897015,61387f74d9d8365effc1b227,64c7fed44a04f777bb1e18ce,64c80156736f7892b8a2778a,right,-1,0.75,0.1143,16,-0.03669251,0.2725,,,,,,77,0,77,0,1,,,,,
,,016168,001,2023-07-31_20h46.05.984,arm3_eps,2022.2.5,Win32,119.8897015,61387f74d9d8365effc1b227,64c7fed44a04f777bb1e18ce,64c80156736f7892b8a2778a,right,-1,0.75,0.1143,16,-0.025689541,0.5305,,,,,,78,0,78,0,1,,,,,
,,016168,001,2023-07-31_20h46.05.984,arm3_eps,2022.2.5,Win32,119.8897015,61387f74d9d8365effc1b227,64c7fed44a04f777bb1e18ce,64c80156736f7892b8a2778a,down,-1,0.75,0.1143,17,0,0.8966,,,,,,79,0,79,0,1,,,,,
,,016168,001,2023-07-31_20h46.05.984,arm3_eps,2022.2.5,Win32,119.8897015,61387f74d9d8365effc1b227,64c7fed44a04f777bb1e18ce,64c80156736f7892b8a2778a,right,-1,0.75,0.1143,17,-0.011452742,1.1521,,,,,,80,0,80,0,1,,,,,
,,016168,001,2023-07-31_20h46.05.984,arm3_eps,2022.2.5,Win32,119.8897015,61387f74d9d8365effc1b227,64c7fed44a04f777bb1e18ce,64c80156736f7892b8a2778a,right,-1,0.75,0.1143,17,-0.00166534,0.3059,,,,,,81,0,81,0,1,,,,,
,,016168,001,2023-07-31_20h46.05.984,arm3_eps,2022.2.5,Win32,119.8897015,61387f74d9d8365effc1b227,64c7fed44a04f777bb1e18ce,64c80156736f7892b8a2778a,up,-1,0.75,0.1143,16,0,1.1073,,,,,,82,0,82,0,1,,,,,
,,016168,001,2023-07-31_20h46.05.984,arm3_eps,2022.2.5,Win32,119.8897015,61387f74d9d8365effc1b227,64c7fed44a04f777bb1e18ce,64c80156736f7892b8a2778a,right,-1,0.75,0.1143,16,0.016100476,0.8911,,,,,,83,0,83,0,1,,,,,
,,016168,001,2023-07-31_20h46.05.984,arm3_eps,2022.2.5,Win32,119.8897015,61387f74d9d8365effc1b227,64c7fed44a04f777bb1e18ce,64c80156736f7892b8a2778a,right,-1,0.75,0.1143,16,-0.008591243,0.3095,,,,,,84,0,84,0,1,,,,,
,,016168,001,2023-07-31_20h46.05.984,arm3_eps,2022.2.5,Win32,119.8897015,61387f74d9d8365effc1b227,64c7fed44a04f777bb1e18ce,64c80156736f7892b8a2778a,right,-1,0.75,0.1143,16,-0.014495203,0.4657,,,,,,85,0,85,0,1,,,,,
,,016168,001,2023-07-31_20h46.05.984,arm3_eps,2022.2.5,Win32,119.8897015,61387f74d9d8365effc1b227,64c7fed44a04f777bb1e18ce,64c80156736f7892b8a2778a,up,-1,0.75,0.1143,15,0,0.8719,,,,,,86,0,86,0,1,,,,,
,,016168,001,2023-07-31_20h46.05.984,arm3_eps,2022.2.5,Win32,119.8897015,61387f74d9d8365effc1b227,64c7fed44a04f777bb1e18ce,64c80156736f7892b8a2778a,down,-1,0.75,0.1143,16,0,1.2103,,,,,,87,0,87,0,1,,,,,
,,016168,001,2023-07-31_20h46.05.984,arm3_eps,2022.2.5,Win32,119.8897015,61387f74d9d8365effc1b227,64c7fed44a04f777bb1e18ce,64c80156736f7892b8a2778a,down,-1,0.75,0.1143,16,0,1.1132,,,,,,88,0,88,0,1,,,,,
,,016168,001,2023-07-31_20h46.05.984,arm3_eps,2022.2.5,Win32,119.8897015,61387f74d9d8365effc1b227,64c7fed44a04f777bb1e18ce,64c80156736f7892b8a2778a,up,-1,0.75,0.1143,15,0,1.1353,,,,,,89,0,89,0,1,,,,,
,,016168,001,2023-07-31_20h46.05.984,arm3_eps,2022.2.5,Win32,119.8897015,61387f74d9d8365effc1b227,64c7fed44a04f777bb1e18ce,64c80156736f7892b8a2778a,down,-1,0.75,0.1143,16,0,2.1206,,,,,,90,0,90,0,1,,,,,
,,016168,001,2023-07-31_20h46.05.984,arm3_eps,2022.2.5,Win32,119.8897015,61387f74d9d8365effc1b227,64c7fed44a04f777bb1e18ce,64c80156736f7892b8a2778a,right,-1,0.75,0.1143,16,0.00149774,2.0106,,,,,,91,0,91,0,1,,,,,
,,016168,001,2023-07-31_20h46.05.984,arm3_eps,2022.2.5,Win32,119.8897015,61387f74d9d8365effc1b227,64c7fed44a04f777bb1e18ce,64c80156736f7892b8a2778a,down,-1,0.75,0.1143,17,0,0.6856,,,,,,92,0,92,0,1,,,,,
,,016168,001,2023-07-31_20h46.05.984,arm3_eps,2022.2.5,Win32,119.8897015,61387f74d9d8365effc1b227,64c7fed44a04f777bb1e18ce,64c80156736f7892b8a2778a,up,-1,0.75,0.1143,16,0,1.9102,,,,,,93,0,93,0,1,,,,,
,,016168,001,2023-07-31_20h46.05.984,arm3_eps,2022.2.5,Win32,119.8897015,61387f74d9d8365effc1b227,64c7fed44a04f777bb1e18ce,64c80156736f7892b8a2778a,right,-1,0.75,0.1143,16,-0.00759815,0.8997,,,,,,94,0,94,0,1,,,,,
,,016168,001,2023-07-31_20h46.05.984,arm3_eps,2022.2.5,Win32,119.8897015,61387f74d9d8365effc1b227,64c7fed44a04f777bb1e18ce,64c80156736f7892b8a2778a,right,-1,0.75,0.1143,16,-0.022313352,0.2807,,,,,,95,0,95,0,1,,,,,
,,016168,001,2023-07-31_20h46.05.984,arm3_eps,2022.2.5,Win32,119.8897015,61387f74d9d8365effc1b227,64c7fed44a04f777bb1e18ce,64c80156736f7892b8a2778a,down,-1,0.75,0.1143,17,0,0.616,,,,,,96,0,96,0,1,,,,,
,,016168,001,2023-07-31_20h46.05.984,arm3_eps,2022.2.5,Win32,119.8897015,61387f74d9d8365effc1b227,64c7fed44a04f777bb1e18ce,64c80156736f7892b8a2778a,right,-1,0.75,0.1143,17,0.035280641,1.4113,,,,,,97,0,97,0,1,,,,,
,,016168,001,2023-07-31_20h46.05.984,arm3_eps,2022.2.5,Win32,119.8897015,61387f74d9d8365effc1b227,64c7fed44a04f777bb1e18ce,64c80156736f7892b8a2778a,right,-1,0.75,0.1143,17,0.016793413,0.5967,,,,,,98,0,98,0,1,,,,,
,,016168,001,2023-07-31_20h46.05.984,arm3_eps,2022.2.5,Win32,119.8897015,61387f74d9d8365effc1b227,64c7fed44a04f777bb1e18ce,64c80156736f7892b8a2778a,down,-1,0.75,0.1143,18,0,0.6884,,,,,,99,0,99,0,1,,,,,
,,016168,001,2023-07-31_20h46.05.984,arm3_eps,2022.2.5,Win32,119.8897015,61387f74d9d8365effc1b227,64c7fed44a04f777bb1e18ce,64c80156736f7892b8a2778a,right,-1,0.75,0.1143,18,0.000330838,1.0688,,,,,,100,0,100,0,1,,,,,
,,016168,001,2023-07-31_20h46.05.984,arm3_eps,2022.2.5,Win32,119.8897015,61387f74d9d8365effc1b227,64c7fed44a04f777bb1e18ce,64c80156736f7892b8a2778a,right,-1,0.75,0.1143,18,0.00333411,0.2871,,,,,,101,0,101,0,1,,,,,
,,016168,001,2023-07-31_20h46.05.984,arm3_eps,2022.2.5,Win32,119.8897015,61387f74d9d8365effc1b227,64c7fed44a04f777bb1e18ce,64c80156736f7892b8a2778a,down,-1,0.75,0.1143,18,0,0.6877,,,,,,102,0,102,0,1,,,,,
,,016168,001,2023-07-31_20h46.05.984,arm3_eps,2022.2.5,Win32,119.8897015,61387f74d9d8365effc1b227,64c7fed44a04f777bb1e18ce,64c80156736f7892b8a2778a,right,-1,0.75,0.1143,18,0.017157591,1.1733,,,,,,103,0,103,0,1,,,,,
,,016168,001,2023-07-31_20h46.05.984,arm3_eps,2022.2.5,Win32,119.8897015,61387f74d9d8365effc1b227,64c7fed44a04f777bb1e18ce,64c80156736f7892b8a2778a,right,-1,0.75,0.1143,18,0.006432458,0.3136,,,,,,104,0,104,0,1,,,,,
,,016168,001,2023-07-31_20h46.05.984,arm3_eps,2022.2.5,Win32,119.8897015,61387f74d9d8365effc1b227,64c7fed44a04f777bb1e18ce,64c80156736f7892b8a2778a,right,-1,0.75,0.1143,18,0.000696138,0.4429,,,,,,105,0,105,0,1,,,,,
,,016168,001,2023-07-31_20h46.05.984,arm3_eps,2022.2.5,Win32,119.8897015,61387f74d9d8365effc1b227,64c7fed44a04f777bb1e18ce,64c80156736f7892b8a2778a,up,-1,0.75,0.1143,17,0,0.9876,,,,,,106,0,106,0,1,,,,,
,,016168,001,2023-07-31_20h46.05.984,arm3_eps,2022.2.5,Win32,119.8897015,61387f74d9d8365effc1b227,64c7fed44a04f777bb1e18ce,64c80156736f7892b8a2778a,up,-1,0.75,0.1143,16,0,0.8942,,,,,,107,0,107,0,1,,,,,
,,016168,001,2023-07-31_20h46.05.984,arm3_eps,2022.2.5,Win32,119.8897015,61387f74d9d8365effc1b227,64c7fed44a04f777bb1e18ce,64c80156736f7892b8a2778a,down,-1,0.75,0.1143,17,0,1.2239,,,,,,108,0,108,0,1,,,,,
,,016168,001,2023-07-31_20h46.05.984,arm3_eps,2022.2.5,Win32,119.8897015,61387f74d9d8365effc1b227,64c7fed44a04f777bb1e18ce,64c80156736f7892b8a2778a,down,1,0.75,0.1143,18,0,0.9026,,,,,,109,0,109,0,1,,,,,
,,016168,001,2023-07-31_20h46.05.984,arm3_eps,2022.2.5,Win32,119.8897015,61387f74d9d8365effc1b227,64c7fed44a04f777bb1e18ce,64c80156736f7892b8a2778a,up,1,0.75,0.1143,18,0,1.1355,,,,,,110,0,110,0,1,,,,,
,,016168,001,2023-07-31_20h46.05.984,arm3_eps,2022.2.5,Win32,119.8897015,61387f74d9d8365effc1b227,64c7fed44a04f777bb1e18ce,64c80156736f7892b8a2778a,up,1,0.75,0.1143,19,0,1.5851,,,,,,111,0,111,0,1,,,,,
,,016168,001,2023-07-31_20h46.05.984,arm3_eps,2022.2.5,Win32,119.8897015,61387f74d9d8365effc1b227,64c7fed44a04f777bb1e18ce,64c80156736f7892b8a2778a,up,1,0.75,0.1143,19,0,1.4207,,,,,,112,0,112,0,1,,,,,
,,016168,001,2023-07-31_20h46.05.984,arm3_eps,2022.2.5,Win32,119.8897015,61387f74d9d8365effc1b227,64c7fed44a04f777bb1e18ce,64c80156736f7892b8a2778a,down,1,0.75,0.1143,18,0,1.2917,,,,,,113,0,113,0,1,,,,,
,,016168,001,2023-07-31_20h46.05.984,arm3_eps,2022.2.5,Win32,119.8897015,61387f74d9d8365effc1b227,64c7fed44a04f777bb1e18ce,64c80156736f7892b8a2778a,up,-1,0.75,0.1143,19,0,1.0902,,,,,,114,0,114,0,1,,,,,
,,016168,001,2023-07-31_20h46.05.984,arm3_eps,2022.2.5,Win32,119.8897015,61387f74d9d8365effc1b227,64c7fed44a04f777bb1e18ce,64c80156736f7892b8a2778a,up,-1,0.75,0.1143,18,0,1.988,,,,,,115,0,115,0,1,,,,,
,,016168,001,2023-07-31_20h46.05.984,arm3_eps,2022.2.5,Win32,119.8897015,61387f74d9d8365effc1b227,64c7fed44a04f777bb1e18ce,64c80156736f7892b8a2778a,up,-1,0.75,0.1143,17,0,1.2641,,,,,,116,0,116,0,1,,,,,
,,016168,001,2023-07-31_20h46.05.984,arm3_eps,2022.2.5,Win32,119.8897015,61387f74d9d8365effc1b227,64c7fed44a04f777bb1e18ce,64c80156736f7892b8a2778a,down,-1,0.75,0.1143,18,0,0.8944,,,,,,117,0,117,0,1,,,,,
,,016168,001,2023-07-31_20h46.05.984,arm3_eps,2022.2.5,Win32,119.8897015,61387f74d9d8365effc1b227,64c7fed44a04f777bb1e18ce,64c80156736f7892b8a2778a,down,-1,0.75,0.1143,19,0,2.0097,,,,,,118,0,118,0,1,,,,,
,,016168,001,2023-07-31_20h46.05.984,arm3_eps,2022.2.5,Win32,119.8897015,61387f74d9d8365effc1b227,64c7fed44a04f777bb1e18ce,64c80156736f7892b8a2778a,up,-1,0.75,0.1143,18,0,1.6009,,,,,,119,0,119,0,1,,,,,
,,016168,001,2023-07-31_20h46.05.984,arm3_eps,2022.2.5,Win32,119.8897015,61387f74d9d8365effc1b227,64c7fed44a04f777bb1e18ce,64c80156736f7892b8a2778a,down,1,0.75,0.1143,18,0,0.8203,,,,,,120,0,120,0,1,,,,,
,,016168,001,2023-07-31_20h46.05.984,arm3_eps,2022.2.5,Win32,119.8897015,61387f74d9d8365effc1b227,64c7fed44a04f777bb1e18ce,64c80156736f7892b8a2778a,right,1,0.75,0.1143,18,-0.026458362,1.6251,,,,,,121,0,121,0,1,,,,,
,,016168,001,2023-07-31_20h46.05.984,arm3_eps,2022.2.5,Win32,119.8897015,61387f74d9d8365effc1b227,64c7fed44a04f777bb1e18ce,64c80156736f7892b8a2778a,right,1,0.75,0.1143,18,-0.034476734,0.2805,,,,,,122,0,122,0,1,,,,,
,,016168,001,2023-07-31_20h46.05.984,arm3_eps,2022.2.5,Win32,119.8897015,61387f74d9d8365effc1b227,64c7fed44a04f777bb1e18ce,64c80156736f7892b8a2778a,up,1,0.75,0.1143,18,0,1.8032,,,,,,123,0,123,0,1,,,,,
,,016168,001,2023-07-31_20h46.05.984,arm3_eps,2022.2.5,Win32,119.8897015,61387f74d9d8365effc1b227,64c7fed44a04f777bb1e18ce,64c80156736f7892b8a2778a,right,1,0.75,0.1143,18,0.004172818,1.0948,,,,,,124,0,124,0,1,,,,,
,,016168,001,2023-07-31_20h46.05.984,arm3_eps,2022.2.5,Win32,119.8897015,61387f74d9d8365effc1b227,64c7fed44a04f777bb1e18ce,64c80156736f7892b8a2778a,right,1,0.75,0.1143,18,0.045389272,0.3409,,,,,,125,0,125,0,1,,,,,
,,016168,001,2023-07-31_20h46.05.984,arm3_eps,2022.2.5,Win32,119.8897015,61387f74d9d8365effc1b227,64c7fed44a04f777bb1e18ce,64c80156736f7892b8a2778a,right,1,0.75,0.1143,18,0.045696197,0.3663,,,,,,126,0,126,0,1,,,,,
,,016168,001,2023-07-31_20h46.05.984,arm3_eps,2022.2.5,Win32,119.8897015,61387f74d9d8365effc1b227,64c7fed44a04f777bb1e18ce,64c80156736f7892b8a2778a,right,1,0.75,0.1143,18,0.017566441,0.8455,,,,,,127,0,127,0,1,,,,,
,,016168,001,2023-07-31_20h46.05.984,arm3_eps,2022.2.5,Win32,119.8897015,61387f74d9d8365effc1b227,64c7fed44a04f777bb1e18ce,64c80156736f7892b8a2778a,right,1,0.75,0.1143,18,0.035789396,0.5219,,,,,,128,0,128,0,1,,,,,
,,016168,001,2023-07-31_20h46.05.984,arm3_eps,2022.2.5,Win32,119.8897015,61387f74d9d8365effc1b227,64c7fed44a04f777bb1e18ce,64c80156736f7892b8a2778a,right,1,0.75,0.1143,18,0.055817693,0.3221,,,,,,129,0,129,0,1,,,,,
,,016168,001,2023-07-31_20h46.05.984,arm3_eps,2022.2.5,Win32,119.8897015,61387f74d9d8365effc1b227,64c7fed44a04f777bb1e18ce,64c80156736f7892b8a2778a,up,1,0.75,0.1143,19,0,0.6414,,,,,,130,0,130,0,1,,,,,
,,016168,001,2023-07-31_20h46.05.984,arm3_eps,2022.2.5,Win32,119.8897015,61387f74d9d8365effc1b227,64c7fed44a04f777bb1e18ce,64c80156736f7892b8a2778a,up,1,0.75,0.1143,20,0,3.4671,,,,,,131,0,131,0,1,,,,,
,,016168,001,2023-07-31_20h46.05.984,arm3_eps,2022.2.5,Win32,119.8897015,61387f74d9d8365effc1b227,64c7fed44a04f777bb1e18ce,64c80156736f7892b8a2778a,right,1,0.75,0.1143,20,0.026003053,1.3666,,,,,,132,0,132,0,1,,,,,
,,016168,001,2023-07-31_20h46.05.984,arm3_eps,2022.2.5,Win32,119.8897015,61387f74d9d8365effc1b227,64c7fed44a04f777bb1e18ce,64c80156736f7892b8a2778a,right,1,0.75,0.1143,20,-0.00247051,4.1586,,,,,,133,0,133,0,1,,,,,
,,016168,001,2023-07-31_20h46.05.984,arm3_eps,2022.2.5,Win32,119.8897015,61387f74d9d8365effc1b227,64c7fed44a04f777bb1e18ce,64c80156736f7892b8a2778a,right,1,0.75,0.1143,20,-0.024925063,0.3857,,,,,,134,0,134,0,1,,,,,
,,016168,001,2023-07-31_20h46.05.984,arm3_eps,2022.2.5,Win32,119.8897015,61387f74d9d8365effc1b227,64c7fed44a04f777bb1e18ce,64c80156736f7892b8a2778a,up,1,0.75,0.1143,21,0,2.3392,,,,,,135,0,135,0,1,,,,,
,,016168,001,2023-07-31_20h46.05.984,arm3_eps,2022.2.5,Win32,119.8897015,61387f74d9d8365effc1b227,64c7fed44a04f777bb1e18ce,64c80156736f7892b8a2778a,right,1,0.75,0.1143,21,0.027572155,0.0004,,,,,,136,0,136,0,1,,,,,
,,016168,001,2023-07-31_20h46.05.984,arm3_eps,2022.2.5,Win32,119.8897015,61387f74d9d8365effc1b227,64c7fed44a04f777bb1e18ce,64c80156736f7892b8a2778a,up,1,0.75,0.1143,22,0,0.9807,,,,,,137,0,137,0,1,,,,,
,,016168,001,2023-07-31_20h46.05.984,arm3_eps,2022.2.5,Win32,119.8897015,61387f74d9d8365effc1b227,64c7fed44a04f777bb1e18ce,64c80156736f7892b8a2778a,right,1,0.75,0.1143,22,-0.008087973,1.202,,,,,,138,0,138,0,1,,,,,
,,016168,001,2023-07-31_20h46.05.984,arm3_eps,2022.2.5,Win32,119.8897015,61387f74d9d8365effc1b227,64c7fed44a04f777bb1e18ce,64c80156736f7892b8a2778a,right,1,0.75,0.1143,22,-0.016592681,0.2775,,,,,,139,0,139,0,1,,,,,
,,016168,001,2023-07-31_20h46.05.984,arm3_eps,2022.2.5,Win32,119.8897015,61387f74d9d8365effc1b227,64c7fed44a04f777bb1e18ce,64c80156736f7892b8a2778a,up,1,0.75,0.1143,23,0,0.6472,,,,,,140,0,140,0,1,,,,,
,,016168,001,2023-07-31_20h46.05.984,arm3_eps,2022.2.5,Win32,119.8897015,61387f74d9d8365effc1b227,64c7fed44a04f777bb1e18ce,64c80156736f7892b8a2778a,right,1,0.75,0.1143,23,0.007314167,1.1125,,,,,,141,0,141,0,1,,,,,
,,016168,001,2023-07-31_20h46.05.984,arm3_eps,2022.2.5,Win32,119.8897015,61387f74d9d8365effc1b227,64c7fed44a04f777bb1e18ce,64c80156736f7892b8a2778a,right,1,0.75,0.1143,23,0.045928905,0.2738,,,,,,142,0,142,0,1,,,,,
,,016168,001,2023-07-31_20h46.05.984,arm3_eps,2022.2.5,Win32,119.8897015,61387f74d9d8365effc1b227,64c7fed44a04f777bb1e18ce,64c80156736f7892b8a2778a,up,1,0.75,0.1143,24,0,0.6637,,,,,,143,0,143,0,1,,,,,
,,016168,001,2023-07-31_20h46.05.984,arm3_eps,2022.2.5,Win32,119.8897015,61387f74d9d8365effc1b227,64c7fed44a04f777bb1e18ce,64c80156736f7892b8a2778a,right,1,0.75,0.1143,24,-0.010592425,1.0805,,,,,,144,0,144,0,1,,,,,
,,016168,001,2023-07-31_20h46.05.984,arm3_eps,2022.2.5,Win32,119.8897015,61387f74d9d8365effc1b227,64c7fed44a04f777bb1e18ce,64c80156736f7892b8a2778a,right,1,0.75,0.1143,24,0.038677823,0.3573,,,,,,145,0,145,0,1,,,,,
,,016168,001,2023-07-31_20h46.05.984,arm3_eps,2022.2.5,Win32,119.8897015,61387f74d9d8365effc1b227,64c7fed44a04f777bb1e18ce,64c80156736f7892b8a2778a,up,1,0.75,0.1143,25,0,0.8419,,,,,,146,0,146,0,1,,,,,
,,016168,001,2023-07-31_20h46.05.984,arm3_eps,2022.2.5,Win32,119.8897015,61387f74d9d8365effc1b227,64c7fed44a04f777bb1e18ce,64c80156736f7892b8a2778a,right,1,0.75,0.1143,25,0.006209557,0.9195,,,,,,147,0,147,0,1,,,,,
,,016168,001,2023-07-31_20h46.05.984,arm3_eps,2022.2.5,Win32,119.8897015,61387f74d9d8365effc1b227,64c7fed44a04f777bb1e18ce,64c80156736f7892b8a2778a,right,1,0.75,0.1143,25,0.028929585,0.2885,,,,,,148,0,148,0,1,,,,,
,,016168,001,2023-07-31_20h46.05.984,arm3_eps,2022.2.5,Win32,119.8897015,61387f74d9d8365effc1b227,64c7fed44a04f777bb1e18ce,64c80156736f7892b8a2778a,up,1,0.75,0.1143,26,0,0.4656,,,,,,149,0,149,0,1,,,,,
,,016168,001,2023-07-31_20h46.05.984,arm3_eps,2022.2.5,Win32,119.8897015,61387f74d9d8365effc1b227,64c7fed44a04f777bb1e18ce,64c80156736f7892b8a2778a,right,1,0.75,0.1143,26,-0.002443955,0.9061,,,,,,150,0,150,0,1,,,,,
,,016168,001,2023-07-31_20h46.05.984,arm3_eps,2022.2.5,Win32,119.8897015,61387f74d9d8365effc1b227,64c7fed44a04f777bb1e18ce,64c80156736f7892b8a2778a,right,1,0.75,0.1143,26,0.003559016,0.2895,,,,,,151,0,151,0,1,,,,,
,,016168,001,2023-07-31_20h46.05.984,arm3_eps,2022.2.5,Win32,119.8897015,61387f74d9d8365effc1b227,64c7fed44a04f777bb1e18ce,64c80156736f7892b8a2778a,up,1,0.75,0.1143,27,0,0.5719,,,,,,152,0,152,0,1,,,,,
,,016168,001,2023-07-31_20h46.05.984,arm3_eps,2022.2.5,Win32,119.8897015,61387f74d9d8365effc1b227,64c7fed44a04f777bb1e18ce,64c80156736f7892b8a2778a,right,1,0.75,0.1143,27,-0.025093965,1.0703,,,,,,153,0,153,0,1,,,,,
,,016168,001,2023-07-31_20h46.05.984,arm3_eps,2022.2.5,Win32,119.8897015,61387f74d9d8365effc1b227,64c7fed44a04f777bb1e18ce,64c80156736f7892b8a2778a,right,1,0.75,0.1143,27,-0.002128235,0.2831,,,,,,154,0,154,0,1,,,,,
,,016168,001,2023-07-31_20h46.05.984,arm3_eps,2022.2.5,Win32,119.8897015,61387f74d9d8365effc1b227,64c7fed44a04f777bb1e18ce,64c80156736f7892b8a2778a,up,1,0.75,0.1143,28,0,0.8187,,,,,,155,0,155,0,1,,,,,
,,016168,001,2023-07-31_20h46.05.984,arm3_eps,2022.2.5,Win32,119.8897015,61387f74d9d8365effc1b227,64c7fed44a04f777bb1e18ce,64c80156736f7892b8a2778a,right,1,0.75,0.1143,28,0.013847188,0.9598,,,,,,156,0,156,0,1,,,,,
,,016168,001,2023-07-31_20h46.05.984,arm3_eps,2022.2.5,Win32,119.8897015,61387f74d9d8365effc1b227,64c7fed44a04f777bb1e18ce,64c80156736f7892b8a2778a,right,1,0.75,0.1143,28,0.042472311,0.2605,,,,,,157,0,157,0,1,,,,,
,,016168,001,2023-07-31_20h46.05.984,arm3_eps,2022.2.5,Win32,119.8897015,61387f74d9d8365effc1b227,64c7fed44a04f777bb1e18ce,64c80156736f7892b8a2778a,up,1,0.75,0.1143,29,0,0.5577,,,,,,158,0,158,0,1,,,,,
,,016168,001,2023-07-31_20h46.05.984,arm3_eps,2022.2.5,Win32,119.8897015,61387f74d9d8365effc1b227,64c7fed44a04f777bb1e18ce,64c80156736f7892b8a2778a,up,1,0.75,0.1143,29,0,1.9831,,,,,,159,0,159,0,1,,,,,
,,016168,001,2023-07-31_20h46.05.984,arm3_eps,2022.2.5,Win32,119.8897015,61387f74d9d8365effc1b227,64c7fed44a04f777bb1e18ce,64c80156736f7892b8a2778a,right,1,0.75,0.1143,29,0.054618231,1.1641,,,,,,160,0,160,0,1,,,,,
,,016168,001,2023-07-31_20h46.05.984,arm3_eps,2022.2.5,Win32,119.8897015,61387f74d9d8365effc1b227,64c7fed44a04f777bb1e18ce,64c80156736f7892b8a2778a,right,1,0.75,0.1143,29,0.022667278,0.3145,,,,,,161,0,161,0,1,,,,,
,,016168,001,2023-07-31_20h46.05.984,arm3_eps,2022.2.5,Win32,119.8897015,61387f74d9d8365effc1b227,64c7fed44a04f777bb1e18ce,64c80156736f7892b8a2778a,up,1,0.75,0.1143,29,0,0.508,,,,,,162,0,162,0,1,,,,,
,,016168,001,2023-07-31_20h46.05.984,arm3_eps,2022.2.5,Win32,119.8897015,61387f74d9d8365effc1b227,64c7fed44a04f777bb1e18ce,64c80156736f7892b8a2778a,right,1,0.75,0.1143,29,0.018963739,1.6761,,,,,,163,0,163,0,1,,,,,
,,016168,001,2023-07-31_20h46.05.984,arm3_eps,2022.2.5,Win32,119.8897015,61387f74d9d8365effc1b227,64c7fed44a04f777bb1e18ce,64c80156736f7892b8a2778a,right,1,0.75,0.1143,29,0.048600028,0.3295,,,,,,164,0,164,0,1,,,,,
,,016168,001,2023-07-31_20h46.05.984,arm3_eps,2022.2.5,Win32,119.8897015,61387f74d9d8365effc1b227,64c7fed44a04f777bb1e18ce,64c80156736f7892b8a2778a,up,1,0.75,0.1143,30,0,0.3174,,,,,,165,0,165,0,1,,,,,
,,016168,001,2023-07-31_20h46.05.984,arm3_eps,2022.2.5,Win32,119.8897015,61387f74d9d8365effc1b227,64c7fed44a04f777bb1e18ce,64c80156736f7892b8a2778a,right,1,0.75,0.1143,30,-6.46209E-05,1.9391,,,,,,166,0,166,0,1,,,,,
,,016168,001,2023-07-31_20h46.05.984,arm3_eps,2022.2.5,Win32,119.8897015,61387f74d9d8365effc1b227,64c7fed44a04f777bb1e18ce,64c80156736f7892b8a2778a,right,1,0.75,0.1143,30,-0.001418274,0.258,,,,,,167,0,167,0,1,,,,,
,,016168,001,2023-07-31_20h46.05.984,arm3_eps,2022.2.5,Win32,119.8897015,61387f74d9d8365effc1b227,64c7fed44a04f777bb1e18ce,64c80156736f7892b8a2778a,up,1,0.75,0.1143,31,0,1.032,,,,,,168,0,168,0,1,,,,,
,,016168,001,2023-07-31_20h46.05.984,arm3_eps,2022.2.5,Win32,119.8897015,61387f74d9d8365effc1b227,64c7fed44a04f777bb1e18ce,64c80156736f7892b8a2778a,up,1,0.75,0.1143,32,0,1.6268,,,,,,169,0,169,0,1,,,,,
,,016168,001,2023-07-31_20h46.05.984,arm3_eps,2022.2.5,Win32,119.8897015,61387f74d9d8365effc1b227,64c7fed44a04f777bb1e18ce,64c80156736f7892b8a2778a,right,1,0.75,0.1143,32,0.010948141,1.615,,,,,,170,0,170,0,1,,,,,
,,016168,001,2023-07-31_20h46.05.984,arm3_eps,2022.2.5,Win32,119.8897015,61387f74d9d8365effc1b227,64c7fed44a04f777bb1e18ce,64c80156736f7892b8a2778a,up,1,0.75,0.1143,33,0,0.4914,,,,,,171,0,171,0,1,,,,,
,,016168,001,2023-07-31_20h46.05.984,arm3_eps,2022.2.5,Win32,119.8897015,61387f74d9d8365effc1b227,64c7fed44a04f777bb1e18ce,64c80156736f7892b8a2778a,right,1,0.75,0.1143,33,0.005156211,0.9653,,,,,,172,0,172,0,1,,,,,
,,016168,001,2023-07-31_20h46.05.984,arm3_eps,2022.2.5,Win32,119.8897015,61387f74d9d8365effc1b227,64c7fed44a04f777bb1e18ce,64c80156736f7892b8a2778a,up,-1,0.75,0.1143,33,0,0.5075,,,,,,173,0,173,0,1,,,,,
,,016168,001,2023-07-31_20h46.05.984,arm3_eps,2022.2.5,Win32,119.8897015,61387f74d9d8365effc1b227,64c7fed44a04f777bb1e18ce,64c80156736f7892b8a2778a,right,-1,0.75,0.1143,33,-0.006092544,1.3725,,,,,,174,0,174,0,1,,,,,
,,016168,001,2023-07-31_20h46.05.984,arm3_eps,2022.2.5,Win32,119.8897015,61387f74d9d8365effc1b227,64c7fed44a04f777bb1e18ce,64c80156736f7892b8a2778a,up,1,0.75,0.1143,33,0,0.5491,,,,,,175,0,175,0,1,,,,,
,,016168,001,2023-07-31_20h46.05.984,arm3_eps,2022.2.5,Win32,119.8897015,61387f74d9d8365effc1b227,64c7fed44a04f777bb1e18ce,64c80156736f7892b8a2778a,up,1,0.75,0.1143,34,0,1.1403,,,,,,176,0,176,0,1,,,,,
,,016168,001,2023-07-31_20h46.05.984,arm3_eps,2022.2.5,Win32,119.8897015,61387f74d9d8365effc1b227,64c7fed44a04f777bb1e18ce,64c80156736f7892b8a2778a,up,1,0.75,0.1143,35,0,1.1786,,,,,,177,0,177,0,1,,,,,
,,016168,001,2023-07-31_20h46.05.984,arm3_eps,2022.2.5,Win32,119.8897015,61387f74d9d8365effc1b227,64c7fed44a04f777bb1e18ce,64c80156736f7892b8a2778a,right,1,0.75,0.1143,35,0.001565531,1.3481,,,,,,178,0,178,0,1,,,,,
,,016168,001,2023-07-31_20h46.05.984,arm3_eps,2022.2.5,Win32,119.8897015,61387f74d9d8365effc1b227,64c7fed44a04f777bb1e18ce,64c80156736f7892b8a2778a,up,-1,0.75,0.1143,35,0,0.4913,,,,,,179,0,179,0,1,,,,,
,,016168,001,2023-07-31_20h46.05.984,arm3_eps,2022.2.5,Win32,119.8897015,61387f74d9d8365effc1b227,64c7fed44a04f777bb1e18ce,64c80156736f7892b8a2778a,up,-1,0.75,0.1143,35,0,0.8991,,,,,,180,0,180,0,1,,,,,
,,016168,001,2023-07-31_20h46.05.984,arm3_eps,2022.2.5,Win32,119.8897015,61387f74d9d8365effc1b227,64c7fed44a04f777bb1e18ce,64c80156736f7892b8a2778a,down,-1,0.75,0.1143,36,0,1.8477,,,,,,181,0,181,0,1,,,,,
,,016168,001,2023-07-31_20h46.05.984,arm3_eps,2022.2.5,Win32,119.8897015,61387f74d9d8365effc1b227,64c7fed44a04f777bb1e18ce,64c80156736f7892b8a2778a,up,-1,0.75,0.1143,35,0,1.5181,,,,,,182,0,182,0,1,,,,,
,,016168,001,2023-07-31_20h46.05.984,arm3_eps,2022.2.5,Win32,119.8897015,61387f74d9d8365effc1b227,64c7fed44a04f777bb1e18ce,64c80156736f7892b8a2778a,down,-1,0.75,0.1143,36,0,1.1459,,,,,,183,0,183,0,1,,,,,
,,016168,001,2023-07-31_20h46.05.984,arm3_eps,2022.2.5,Win32,119.8897015,61387f74d9d8365effc1b227,64c7fed44a04f777bb1e18ce,64c80156736f7892b8a2778a,right,-1,0.75,0.1143,36,-0.04140414,4.7119,,,,,,184,0,184,0,1,,,,,
,,016168,001,2023-07-31_20h46.05.984,arm3_eps,2022.2.5,Win32,119.8897015,61387f74d9d8365effc1b227,64c7fed44a04f777bb1e18ce,64c80156736f7892b8a2778a,right,-1,0.75,0.1143,36,-0.044592343,0.3762,,,,,,185,0,185,0,1,,,,,
,,016168,001,2023-07-31_20h46.05.984,arm3_eps,2022.2.5,Win32,119.8897015,61387f74d9d8365effc1b227,64c7fed44a04f777bb1e18ce,64c80156736f7892b8a2778a,down,-1,0.75,0.1143,36,0,0.4321,,,,,,186,0,186,0,1,,,,,
,,016168,001,2023-07-31_20h46.05.984,arm3_eps,2022.2.5,Win32,119.8897015,61387f74d9d8365effc1b227,64c7fed44a04f777bb1e18ce,64c80156736f7892b8a2778a,down,-1,0.75,0.1143,37,0,1.0102,,,,,,187,0,187,0,1,,,,,
,,016168,001,2023-07-31_20h46.05.984,arm3_eps,2022.2.5,Win32,119.8897015,61387f74d9d8365effc1b227,64c7fed44a04f777bb1e18ce,64c80156736f7892b8a2778a,down,-1,0.75,0.1143,38,0,3.8845,,,,,,188,0,188,0,1,,,,,
,,016168,001,2023-07-31_20h46.05.984,arm3_eps,2022.2.5,Win32,119.8897015,61387f74d9d8365effc1b227,64c7fed44a04f777bb1e18ce,64c80156736f7892b8a2778a,down,-1,0.75,0.1143,39,0,2.8044,,,,,,189,0,189,0,1,,,,,
,,016168,001,2023-07-31_20h46.05.984,arm3_eps,2022.2.5,Win32,119.8897015,61387f74d9d8365effc1b227,64c7fed44a04f777bb1e18ce,64c80156736f7892b8a2778a,up,1,0.75,0.1143,38,0,2.5625,,,,,,190,0,190,0,1,,,,,
,,016168,001,2023-07-31_20h46.05.984,arm3_eps,2022.2.5,Win32,119.8897015,61387f74d9d8365effc1b227,64c7fed44a04f777bb1e18ce,64c80156736f7892b8a2778a,up,1,0.75,0.1143,39,0,1.1581,,,,,,191,0,191,0,1,,,,,
,,016168,001,2023-07-31_20h46.05.984,arm3_eps,2022.2.5,Win32,119.8897015,61387f74d9d8365effc1b227,64c7fed44a04f777bb1e18ce,64c80156736f7892b8a2778a,up,1,0.75,0.1143,40,0,2.1141,,,,,,192,0,192,0,1,,,,,
,,016168,001,2023-07-31_20h46.05.984,arm3_eps,2022.2.5,Win32,119.8897015,61387f74d9d8365effc1b227,64c7fed44a04f777bb1e18ce,64c80156736f7892b8a2778a,up,1,0.75,0.1143,41,0,1.806,,,,,,193,0,193,0,1,,,,,
,,016168,001,2023-07-31_20h46.05.984,arm3_eps,2022.2.5,Win32,119.8897015,61387f74d9d8365effc1b227,64c7fed44a04f777bb1e18ce,64c80156736f7892b8a2778a,down,1,0.75,0.1143,40,0,1.5069,,,,,,194,0,194,0,1,,,,,
,,016168,001,2023-07-31_20h46.05.984,arm3_eps,2022.2.5,Win32,119.8897015,61387f74d9d8365effc1b227,64c7fed44a04f777bb1e18ce,64c80156736f7892b8a2778a,down,1,0.75,0.1143,39,0,1.0903,,,,,,195,0,195,0,1,,,,,
,,016168,001,2023-07-31_20h46.05.984,arm3_eps,2022.2.5,Win32,119.8897015,61387f74d9d8365effc1b227,64c7fed44a04f777bb1e18ce,64c80156736f7892b8a2778a,up,1,0.75,0.1143,40,0,1.0691,,,,,,196,0,196,0,1,,,,,
,,016168,001,2023-07-31_20h46.05.984,arm3_eps,2022.2.5,Win32,119.8897015,61387f74d9d8365effc1b227,64c7fed44a04f777bb1e18ce,64c80156736f7892b8a2778a,right,1,0.75,0.1143,40,0.007075899,1.4232,,,,,,197,0,197,0,1,,,,,
,,016168,001,2023-07-31_20h46.05.984,arm3_eps,2022.2.5,Win32,119.8897015,61387f74d9d8365effc1b227,64c7fed44a04f777bb1e18ce,64c80156736f7892b8a2778a,up,1,0.75,0.1143,41,0,0.4894,,,,,,198,0,198,0,1,,,,,
,,016168,001,2023-07-31_20h46.05.984,arm3_eps,2022.2.5,Win32,119.8897015,61387f74d9d8365effc1b227,64c7fed44a04f777bb1e18ce,64c80156736f7892b8a2778a,right,1,0.75,0.1143,41,0.04074896,1.0949,,,,,,199,0,199,0,1,,,,,
,,016168,001,2023-07-31_20h46.05.984,arm3_eps,2022.2.5,Win32,119.8897015,61387f74d9d8365effc1b227,64c7fed44a04f777bb1e18ce,64c80156736f7892b8a2778a,up,1,0.75,0.1143,42,0,0.5141,,,,,,200,0,200,0,1,,,,,
,,016168,001,2023-07-31_20h46.05.984,arm3_eps,2022.2.5,Win32,119.8897015,61387f74d9d8365effc1b227,64c7fed44a04f777bb1e18ce,64c80156736f7892b8a2778a,down,1,0.75,0.1143,41,0,1.5771,,,,,,201,0,201,0,1,,,,,
,,016168,001,2023-07-31_20h46.05.984,arm3_eps,2022.2.5,Win32,119.8897015,61387f74d9d8365effc1b227,64c7fed44a04f777bb1e18ce,64c80156736f7892b8a2778a,right,1,0.75,0.1143,41,0.01937172,1.0559,,,,,,202,0,202,0,1,,,,,
,,016168,001,2023-07-31_20h46.05.984,arm3_eps,2022.2.5,Win32,119.8897015,61387f74d9d8365effc1b227,64c7fed44a04f777bb1e18ce,64c80156736f7892b8a2778a,right,1,0.75,0.1143,41,0.007183935,0.284,,,,,,203,0,203,0,1,,,,,
,,016168,001,2023-07-31_20h46.05.984,arm3_eps,2022.2.5,Win32,119.8897015,61387f74d9d8365effc1b227,64c7fed44a04f777bb1e18ce,64c80156736f7892b8a2778a,up,1,0.75,0.1143,42,0,0.4145,,,,,,204,0,204,0,1,,,,,
,,016168,001,2023-07-31_20h46.05.984,arm3_eps,2022.2.5,Win32,119.8897015,61387f74d9d8365effc1b227,64c7fed44a04f777bb1e18ce,64c80156736f7892b8a2778a,up,1,0.75,0.1143,42,0,2.566,,,,,,205,0,205,0,1,,,,,
,,016168,001,2023-07-31_20h46.05.984,arm3_eps,2022.2.5,Win32,119.8897015,61387f74d9d8365effc1b227,64c7fed44a04f777bb1e18ce,64c80156736f7892b8a2778a,right,1,0.75,0.1143,42,-0.004114918,1.0841,,,,,,206,0,206,0,1,,,,,
,,016168,001,2023-07-31_20h46.05.984,arm3_eps,2022.2.5,Win32,119.8897015,61387f74d9d8365effc1b227,64c7fed44a04f777bb1e18ce,64c80156736f7892b8a2778a,right,1,0.75,0.1143,42,0.005870572,0.418,,,,,,207,0,207,0,1,,,,,
,,016168,001,2023-07-31_20h46.05.984,arm3_eps,2022.2.5,Win32,119.8897015,61387f74d9d8365effc1b227,64c7fed44a04f777bb1e18ce,64c80156736f7892b8a2778a,up,-1,0.75,0.1143,43,0,0.4279,,,,,,208,0,208,0,1,,,,,
,,016168,001,2023-07-31_20h46.05.984,arm3_eps,2022.2.5,Win32,119.8897015,61387f74d9d8365effc1b227,64c7fed44a04f777bb1e18ce,64c80156736f7892b8a2778a,up,1,0.75,0.1143,42,0,2.0594,,,,,,209,0,209,0,1,,,,,
,,016168,001,2023-07-31_20h46.05.984,arm3_eps,2022.2.5,Win32,119.8897015,61387f74d9d8365effc1b227,64c7fed44a04f777bb1e18ce,64c80156736f7892b8a2778a,down,1,0.75,0.1143,41,0,1.0352,,,,,,210,0,210,0,1,,,,,
,,016168,001,2023-07-31_20h46.05.984,arm3_eps,2022.2.5,Win32,119.8897015,61387f74d9d8365effc1b227,64c7fed44a04f777bb1e18ce,64c80156736f7892b8a2778a,up,1,0.75,0.1143,42,0,0.9769,,,,,,211,0,211,0,1,,,,,
,,016168,001,2023-07-31_20h46.05.984,arm3_eps,2022.2.5,Win32,119.8897015,61387f74d9d8365effc1b227,64c7fed44a04f777bb1e18ce,64c80156736f7892b8a2778a,right,1,0.75,0.1143,42,0.027594156,1.2289,,,,,,212,0,212,0,1,,,,,
,,016168,001,2023-07-31_20h46.05.984,arm3_eps,2022.2.5,Win32,119.8897015,61387f74d9d8365effc1b227,64c7fed44a04f777bb1e18ce,64c80156736f7892b8a2778a,right,1,0.75,0.1143,42,0.031122567,0.2977,,,,,,213,0,213,0,1,,,,,
,,016168,001,2023-07-31_20h46.05.984,arm3_eps,2022.2.5,Win32,119.8897015,61387f74d9d8365effc1b227,64c7fed44a04f777bb1e18ce,64c80156736f7892b8a2778a,up,-1,0.75,0.1143,43,0,0.5185,,,,,,214,0,214,0,1,,,,,
,,016168,001,2023-07-31_20h46.05.984,arm3_eps,2022.2.5,Win32,119.8897015,61387f74d9d8365effc1b227,64c7fed44a04f777bb1e18ce,64c80156736f7892b8a2778a,right,-1,0.75,0.1143,43,0.004274925,1.114,,,,,,215,0,215,0,1,,,,,
,,016168,001,2023-07-31_20h46.05.984,arm3_eps,2022.2.5,Win32,119.8897015,61387f74d9d8365effc1b227,64c7fed44a04f777bb1e18ce,64c80156736f7892b8a2778a,right,-1,0.75,0.1143,43,-0.00131001,0.3307,,,,,,216,0,216,0,1,,,,,
,,016168,001,2023-07-31_20h46.05.984,arm3_eps,2022.2.5,Win32,119.8897015,61387f74d9d8365effc1b227,64c7fed44a04f777bb1e18ce,64c80156736f7892b8a2778a,up,-1,0.75,0.1143,43,0,0.6147,,,,,,217,0,217,0,1,,,,,
,,016168,001,2023-07-31_20h46.05.984,arm3_eps,2022.2.5,Win32,119.8897015,61387f74d9d8365effc1b227,64c7fed44a04f777bb1e18ce,64c80156736f7892b8a2778a,right,-1,0.75,0.1143,43,0.015231774,0.9759,,,,,,218,0,218,0,1,,,,,
,,016168,001,2023-07-31_20h46.05.984,arm3_eps,2022.2.5,Win32,119.8897015,61387f74d9d8365effc1b227,64c7fed44a04f777bb1e18ce,64c80156736f7892b8a2778a,right,-1,0.75,0.1143,43,0.020215376,0.2717,,,,,,219,0,219,0,1,,,,,
,,016168,001,2023-07-31_20h46.05.984,arm3_eps,2022.2.5,Win32,119.8897015,61387f74d9d8365effc1b227,64c7fed44a04f777bb1e18ce,64c80156736f7892b8a2778a,up,-1,0.75,0.1143,43,0,0.6942,,,,,,220,0,220,0,1,,,,,
,,016168,001,2023-07-31_20h46.05.984,arm3_eps,2022.2.5,Win32,119.8897015,61387f74d9d8365effc1b227,64c7fed44a04f777bb1e18ce,64c80156736f7892b8a2778a,down,-1,0.75,0.1143,43,0,1.5023,,,,,,221,0,221,0,1,,,,,
,,016168,001,2023-07-31_20h46.05.984,arm3_eps,2022.2.5,Win32,119.8897015,61387f74d9d8365effc1b227,64c7fed44a04f777bb1e18ce,64c80156736f7892b8a2778a,up,1,0.75,0.1143,43,0,1.1725,,,,,,222,0,222,0,1,,,,,
,,016168,001,2023-07-31_20h46.05.984,arm3_eps,2022.2.5,Win32,119.8897015,61387f74d9d8365effc1b227,64c7fed44a04f777bb1e18ce,64c80156736f7892b8a2778a,right,1,0.75,0.1143,43,-0.001403057,1.1959,,,,,,223,0,223,0,1,,,,,
,,016168,001,2023-07-31_20h46.05.984,arm3_eps,2022.2.5,Win32,119.8897015,61387f74d9d8365effc1b227,64c7fed44a04f777bb1e18ce,64c80156736f7892b8a2778a,right,1,0.75,0.1143,43,-0.01673924,0.3268,,,,,,224,0,224,0,1,,,,,
,,016168,001,2023-07-31_20h46.05.984,arm3_eps,2022.2.5,Win32,119.8897015,61387f74d9d8365effc1b227,64c7fed44a04f777bb1e18ce,64c80156736f7892b8a2778a,right,1,0.75,0.1143,43,-0.00238431,0.3781,,,,,,225,0,225,0,1,,,,,
,,016168,001,2023-07-31_20h46.05.984,arm3_eps,2022.2.5,Win32,119.8897015,61387f74d9d8365effc1b227,64c7fed44a04f777bb1e18ce,64c80156736f7892b8a2778a,right,1,0.75,0.1143,43,-0.010179079,0.5995,,,,,,226,0,226,0,1,,,,,
,,016168,001,2023-07-31_20h46.05.984,arm3_eps,2022.2.5,Win32,119.8897015,61387f74d9d8365effc1b227,64c7fed44a04f777bb1e18ce,64c80156736f7892b8a2778a,down,1,0.75,0.1143,43,0,0.8402,,,,,,227,0,227,0,1,,,,,
,,016168,001,2023-07-31_20h46.05.984,arm3_eps,2022.2.5,Win32,119.8897015,61387f74d9d8365effc1b227,64c7fed44a04f777bb1e18ce,64c80156736f7892b8a2778a,down,1,0.75,0.1143,43,0,1.3426,,,,,,228,0,228,0,1,,,,,
,,016168,001,2023-07-31_20h46.05.984,arm3_eps,2022.2.5,Win32,119.8897015,61387f74d9d8365effc1b227,64c7fed44a04f777bb1e18ce,64c80156736f7892b8a2778a,up,1,0.75,0.1143,44,0,1.5436,,,,,,229,0,229,0,1,,,,,
,,016168,001,2023-07-31_20h46.05.984,arm3_eps,2022.2.5,Win32,119.8897015,61387f74d9d8365effc1b227,64c7fed44a04f777bb1e18ce,64c80156736f7892b8a2778a,down,1,0.75,0.1143,44,0,1.8762,,,,,,230,0,230,0,1,,,,,
,,016168,001,2023-07-31_20h46.05.984,arm3_eps,2022.2.5,Win32,119.8897015,61387f74d9d8365effc1b227,64c7fed44a04f777bb1e18ce,64c80156736f7892b8a2778a,up,1,0.75,0.1143,45,0,1.104,,,,,,231,0,231,0,1,,,,,
,,016168,001,2023-07-31_20h46.05.984,arm3_eps,2022.2.5,Win32,119.8897015,61387f74d9d8365effc1b227,64c7fed44a04f777bb1e18ce,64c80156736f7892b8a2778a,up,1,0.75,0.1143,46,0,1.2933,,,,,,232,0,232,0,1,,,,,
,,016168,001,2023-07-31_20h46.05.984,arm3_eps,2022.2.5,Win32,119.8897015,61387f74d9d8365effc1b227,64c7fed44a04f777bb1e18ce,64c80156736f7892b8a2778a,right,1,0.75,0.1143,46,-0.000488773,1.2526,,,,,,233,0,233,0,1,,,,,
,,016168,001,2023-07-31_20h46.05.984,arm3_eps,2022.2.5,Win32,119.8897015,61387f74d9d8365effc1b227,64c7fed44a04f777bb1e18ce,64c80156736f7892b8a2778a,right,1,0.75,0.1143,46,-0.049907996,0.3082,,,,,,234,0,234,0,1,,,,,
,,016168,001,2023-07-31_20h46.05.984,arm3_eps,2022.2.5,Win32,119.8897015,61387f74d9d8365effc1b227,64c7fed44a04f777bb1e18ce,64c80156736f7892b8a2778a,down,1,0.75,0.1143,46,0,0.7769,,,,,,235,0,235,0,1,,,,,
,,016168,001,2023-07-31_20h46.05.984,arm3_eps,2022.2.5,Win32,119.8897015,61387f74d9d8365effc1b227,64c7fed44a04f777bb1e18ce,64c80156736f7892b8a2778a,right,1,0.75,0.1143,46,0.013391691,0.9688,,,,,,236,0,236,0,1,,,,,
,,016168,001,2023-07-31_20h46.05.984,arm3_eps,2022.2.5,Win32,119.8897015,61387f74d9d8365effc1b227,64c7fed44a04f777bb1e18ce,64c80156736f7892b8a2778a,right,1,0.75,0.1143,46,0.008893729,0.2913,,,,,,237,0,237,0,1,,,,,
,,016168,001,2023-07-31_20h46.05.984,arm3_eps,2022.2.5,Win32,119.8897015,61387f74d9d8365effc1b227,64c7fed44a04f777bb1e18ce,64c80156736f7892b8a2778a,up,-1,0.75,0.1143,47,0,0.6815,,,,,,238,0,238,0,1,,,,,
,,016168,001,2023-07-31_20h46.05.984,arm3_eps,2022.2.5,Win32,119.8897015,61387f74d9d8365effc1b227,64c7fed44a04f777bb1e18ce,64c80156736f7892b8a2778a,up,-1,0.75,0.1143,46,0,2.0866,,,,,,239,0,239,0,1,,,,,
,,016168,001,2023-07-31_20h46.05.984,arm3_eps,2022.2.5,Win32,119.8897015,61387f74d9d8365effc1b227,64c7fed44a04f777bb1e18ce,64c80156736f7892b8a2778a,down,-1,0.75,0.1143,47,0,1.2965,,,,,,240,0,240,0,1,,,,,
,,016168,001,2023-07-31_20h46.05.984,arm3_eps,2022.2.5,Win32,119.8897015,61387f74d9d8365effc1b227,64c7fed44a04f777bb1e18ce,64c80156736f7892b8a2778a,right,-1,0.75,0.1143,47,-0.010058135,1.1767,,,,,,241,0,241,0,1,,,,,
,,016168,001,2023-07-31_20h46.05.984,arm3_eps,2022.2.5,Win32,119.8897015,61387f74d9d8365effc1b227,64c7fed44a04f777bb1e18ce,64c80156736f7892b8a2778a,right,-1,0.75,0.1143,47,-0.01227912,0.2685,,,,,,242,0,242,0,1,,,,,
,,016168,001,2023-07-31_20h46.05.984,arm3_eps,2022.2.5,Win32,119.8897015,61387f74d9d8365effc1b227,64c7fed44a04f777bb1e18ce,64c80156736f7892b8a2778a,up,-1,0.75,0.1143,46,0,0.6222,,,,,,243,0,243,0,1,,,,,
,,016168,001,2023-07-31_20h46.05.984,arm3_eps,2022.2.5,Win32,119.8897015,61387f74d9d8365effc1b227,64c7fed44a04f777bb1e18ce,64c80156736f7892b8a2778a,down,-1,0.75,0.1143,47,0,3.3181,,,,,,244,0,244,0,1,,,,,
,,016168,001,2023-07-31_20h46.05.984,arm3_eps,2022.2.5,Win32,119.8897015,61387f74d9d8365effc1b227,64c7fed44a04f777bb1e18ce,64c80156736f7892b8a2778a,down,-1,0.75,0.1143,48,0,1.1293,,,,,,245,0,245,0,1,,,,,
,,016168,001,2023-07-31_20h46.05.984,arm3_eps,2022.2.5,Win32,119.8897015,61387f74d9d8365effc1b227,64c7fed44a04f777bb1e18ce,64c80156736f7892b8a2778a,down,-1,0.75,0.1143,48,0,1.085,,,,,,246,0,246,0,1,,,,,
,,016168,001,2023-07-31_20h46.05.984,arm3_eps,2022.2.5,Win32,119.8897015,61387f74d9d8365effc1b227,64c7fed44a04f777bb1e18ce,64c80156736f7892b8a2778a,down,-1,0.75,0.1143,49,0,1.0092,,,,,,247,0,247,0,1,,,,,
,,016168,001,2023-07-31_20h46.05.984,arm3_eps,2022.2.5,Win32,119.8897015,61387f74d9d8365effc1b227,64c7fed44a04f777bb1e18ce,64c80156736f7892b8a2778a,down,-1,0.75,0.1143,50,0,1.0155,,,,,,248,0,248,0,1,,,,,
,,016168,001,2023-07-31_20h46.05.984,arm3_eps,2022.2.5,Win32,119.8897015,61387f74d9d8365effc1b227,64c7fed44a04f777bb1e18ce,64c80156736f7892b8a2778a,right,-1,0.75,0.1143,50,-0.00159828,1.785,,,,,,249,0,249,0,1,,,,,
,,016168,001,2023-07-31_20h46.05.984,arm3_eps,2022.2.5,Win32,119.8897015,61387f74d9d8365effc1b227,64c7fed44a04f777bb1e18ce,64c80156736f7892b8a2778a,right,-1,0.75,0.1143,50,-0.026302311,0.3075,,,,,,250,0,250,0,1,,,,,
,,016168,001,2023-07-31_20h46.05.984,arm3_eps,2022.2.5,Win32,119.8897015,61387f74d9d8365effc1b227,64c7fed44a04f777bb1e18ce,64c80156736f7892b8a2778a,down,-1,0.75,0.1143,51,0,0.9833,,,,,,251,0,251,0,1,,,,,
,,016168,001,2023-07-31_20h46.05.984,arm3_eps,2022.2.5,Win32,119.8897015,61387f74d9d8365effc1b227,64c7fed44a04f777bb1e18ce,64c80156736f7892b8a2778a,right,-1,0.75,0.1143,51,-0.004133168,1.0741,,,,,,252,0,252,0,1,,,,,
,,016168,001,2023-07-31_20h46.05.984,arm3_eps,2022.2.5,Win32,119.8897015,61387f74d9d8365effc1b227,64c7fed44a04f777bb1e18ce,64c80156736f7892b8a2778a,right,-1,0.75,0.1143,51,-0.011849176,0.2924,,,,,,253,0,253,0,1,,,,,
,,016168,001,2023-07-31_20h46.05.984,arm3_eps,2022.2.5,Win32,119.8897015,61387f74d9d8365effc1b227,64c7fed44a04f777bb1e18ce,64c80156736f7892b8a2778a,down,-1,0.75,0.1143,52,0,0.6724,,,,,,254,0,254,0,1,,,,,
,,016168,001,2023-07-31_20h46.05.984,arm3_eps,2022.2.5,Win32,119.8897015,61387f74d9d8365effc1b227,64c7fed44a04f777bb1e18ce,64c80156736f7892b8a2778a,right,-1,0.75,0.1143,52,-0.00517512,1.0769,,,,,,255,0,255,0,1,,,,,
,,016168,001,2023-07-31_20h46.05.984,arm3_eps,2022.2.5,Win32,119.8897015,61387f74d9d8365effc1b227,64c7fed44a04f777bb1e18ce,64c80156736f7892b8a2778a,right,-1,0.75,0.1143,52,0.004755948,0.2642,,,,,,256,0,256,0,1,,,,,
,,016168,001,2023-07-31_20h46.05.984,arm3_eps,2022.2.5,Win32,119.8897015,61387f74d9d8365effc1b227,64c7fed44a04f777bb1e18ce,64c80156736f7892b8a2778a,right,-1,0.75,0.1143,52,0.002990293,0.8054,,,,,,257,0,257,0,1,,,,,
,,016168,001,2023-07-31_20h46.05.984,arm3_eps,2022.2.5,Win32,119.8897015,61387f74d9d8365effc1b227,64c7fed44a04f777bb1e18ce,64c80156736f7892b8a2778a,right,-1,0.75,0.1143,52,-0.011593387,0.2973,,,,,,258,0,258,0,1,,,,,
,,016168,001,2023-07-31_20h46.05.984,arm3_eps,2022.2.5,Win32,119.8897015,61387f74d9d8365effc1b227,64c7fed44a04f777bb1e18ce,64c80156736f7892b8a2778a,down,1,0.75,0.1143,53,0,0.7557,,,,,,259,0,259,0,1,,,,,
,,016168,001,2023-07-31_20h46.05.984,arm3_eps,2022.2.5,Win32,119.8897015,61387f74d9d8365effc1b227,64c7fed44a04f777bb1e18ce,64c80156736f7892b8a2778a,right,1,0.75,0.1143,53,0.037866353,1.0443,,,,,,260,0,260,0,1,,,,,
,,016168,001,2023-07-31_20h46.05.984,arm3_eps,2022.2.5,Win32,119.8897015,61387f74d9d8365effc1b227,64c7fed44a04f777bb1e18ce,64c80156736f7892b8a2778a,right,1,0.75,0.1143,53,0.039526483,0.2982,,,,,,261,0,261,0,1,,,,,
,,016168,001,2023-07-31_20h46.05.984,arm3_eps,2022.2.5,Win32,119.8897015,61387f74d9d8365effc1b227,64c7fed44a04f777bb1e18ce,64c80156736f7892b8a2778a,right,1,0.75,0.1143,53,0.032970376,0.3895,,,,,,262,0,262,0,1,,,,,
,,016168,001,2023-07-31_20h46.05.984,arm3_eps,2022.2.5,Win32,119.8897015,61387f74d9d8365effc1b227,64c7fed44a04f777bb1e18ce,64c80156736f7892b8a2778a,up,1,0.75,0.1143,54,0,0.7882,,,,,,263,0,263,0,1,,,,,
,,016168,001,2023-07-31_20h46.05.984,arm3_eps,2022.2.5,Win32,119.8897015,61387f74d9d8365effc1b227,64c7fed44a04f777bb1e18ce,64c80156736f7892b8a2778a,right,1,0.75,0.1143,54,0.020264291,0.9608,,,,,,264,0,264,0,1,,,,,
,,016168,001,2023-07-31_20h46.05.984,arm3_eps,2022.2.5,Win32,119.8897015,61387f74d9d8365effc1b227,64c7fed44a04f777bb1e18ce,64c80156736f7892b8a2778a,right,1,0.75,0.1143,54,-0.003683396,0.2909,,,,,,265,0,265,0,1,,,,,
,,016168,001,2023-07-31_20h46.05.984,arm3_eps,2022.2.5,Win32,119.8897015,61387f74d9d8365effc1b227,64c7fed44a04f777bb1e18ce,64c80156736f7892b8a2778a,right,1,0.75,0.1143,54,0.016946961,0.9239,,,,,,266,0,266,0,1,,,,,
,,016168,001,2023-07-31_20h46.05.984,arm3_eps,2022.2.5,Win32,119.8897015,61387f74d9d8365effc1b227,64c7fed44a04f777bb1e18ce,64c80156736f7892b8a2778a,up,1,0.75,0.1143,54,0,0.8408,,,,,,267,0,267,0,1,,,,,
,,016168,001,2023-07-31_20h46.05.984,arm3_eps,2022.2.5,Win32,119.8897015,61387f74d9d8365effc1b227,64c7fed44a04f777bb1e18ce,64c80156736f7892b8a2778a,up,1,0.75,0.1143,55,0,1.0118,,,,,,268,0,268,0,1,,,,,
,,016168,001,2023-07-31_20h46.05.984,arm3_eps,2022.2.5,Win32,119.8897015,61387f74d9d8365effc1b227,64c7fed44a04f777bb1e18ce,64c80156736f7892b8a2778a,right,1,0.75,0.1143,55,0.002146934,1.1425,,,,,,269,0,269,0,1,,,,,
,,016168,001,2023-07-31_20h46.05.984,arm3_eps,2022.2.5,Win32,119.8897015,61387f74d9d8365effc1b227,64c7fed44a04f777bb1e18ce,64c80156736f7892b8a2778a,right,1,0.75,0.1143,55,-0.00814782,0.2833,,,,,,270,0,270,0,1,,,,,
