space_bar.keys,space_bar.rt,participant,session,date,expName,psychopyVersion,OS,frameRate,PROLIFIC_PID,STUDY_ID,SESSION_ID,resp.keys,state,q_prob,eps_prob,score,price,resp.rt,train.thisRepN,train.thisTrialN,train.thisN,train.thisIndex,train.ran,steps.thisRepN,steps.thisTrialN,steps.thisN,steps.thisIndex,steps.ran,blocks.thisRepN,blocks.thisTrialN,blocks.thisN,blocks.thisIndex,blocks.ran
space,36.3307,016100,001,2023-07-31_12h55.00.309,arm3_eps,2022.2.5,Win32,60.1612321,616e239c6264d82a051c5191,64c7fed44a04f777bb1e18ce,64c800e9dfe1dfb8cbb27589,,,,,,,,,,,,,,,,,,,,,,
space,8.4904,016100,001,2023-07-31_12h55.00.309,arm3_eps,2022.2.5,Win32,60.1612321,616e239c6264d82a051c5191,64c7fed44a04f777bb1e18ce,64c800e9dfe1dfb8cbb27589,,,,,,,,,,,,,,,,,,,,,,
space,23.5042,016100,001,2023-07-31_12h55.00.309,arm3_eps,2022.2.5,Win32,60.1612321,616e239c6264d82a051c5191,64c7fed44a04f777bb1e18ce,64c800e9dfe1dfb8cbb27589,,,,,,,,,,,,,,,,,,,,,,
space,14.3614,016100,001,2023-07-31_12h55.00.309,arm3_eps,2022.2.5,Win32,60.1612321,616e239c6264d82a051c5191,64c7fed44a04f777bb1e18ce,64c800e9dfe1dfb8cbb27589,,,,,,,,,,,,,,,,,,,,,,
space,37.7354,016100,001,2023-07-31_12h55.00.309,arm3_eps,2022.2.5,Win32,60.1612321,616e239c6264d82a051c5191,64c7fed44a04f777bb1e18ce,64c800e9dfe1dfb8cbb27589,,,,,,,,,,,,,,,,,,,,,,
space,20.1436,016100,001,2023-07-31_12h55.00.309,arm3_eps,2022.2.5,Win32,60.1612321,616e239c6264d82a051c5191,64c7fed44a04f777bb1e18ce,64c800e9dfe1dfb8cbb27589,,,,,,,,,,,,,,,,,,,,,,
space,2.5626,016100,001,2023-07-31_12h55.00.309,arm3_eps,2022.2.5,Win32,60.1612321,616e239c6264d82a051c5191,64c7fed44a04f777bb1e18ce,64c800e9dfe1dfb8cbb27589,,,,,,,,,,,,,,,,,,,,,,
,,016100,001,2023-07-31_12h55.00.309,arm3_eps,2022.2.5,Win32,60.1612321,616e239c6264d82a051c5191,64c7fed44a04f777bb1e18ce,64c800e9dfe1dfb8cbb27589,right,1,1,0.2429,0,-0.012398003,8.839,0,0,0,0,1,,,,,,,,,,
,,016100,001,2023-07-31_12h55.00.309,arm3_eps,2022.2.5,Win32,60.1612321,616e239c6264d82a051c5191,64c7fed44a04f777bb1e18ce,64c800e9dfe1dfb8cbb27589,right,1,1,0.2429,0,-0.012729495,3.356,1,0,1,0,1,,,,,,,,,,
,,016100,001,2023-07-31_12h55.00.309,arm3_eps,2022.2.5,Win32,60.1612321,616e239c6264d82a051c5191,64c7fed44a04f777bb1e18ce,64c800e9dfe1dfb8cbb27589,right,1,1,0.2429,0,-0.004883085,1.3747,2,0,2,0,1,,,,,,,,,,
,,016100,001,2023-07-31_12h55.00.309,arm3_eps,2022.2.5,Win32,60.1612321,616e239c6264d82a051c5191,64c7fed44a04f777bb1e18ce,64c800e9dfe1dfb8cbb27589,right,1,1,0.2429,0,-0.001087327,1.4295,3,0,3,0,1,,,,,,,,,,
,,016100,001,2023-07-31_12h55.00.309,arm3_eps,2022.2.5,Win32,60.1612321,616e239c6264d82a051c5191,64c7fed44a04f777bb1e18ce,64c800e9dfe1dfb8cbb27589,right,1,1,0.2429,0,-0.003603266,1.1669,4,0,4,0,1,,,,,,,,,,
,,016100,001,2023-07-31_12h55.00.309,arm3_eps,2022.2.5,Win32,60.1612321,616e239c6264d82a051c5191,64c7fed44a04f777bb1e18ce,64c800e9dfe1dfb8cbb27589,right,1,1,0.2429,0,0.009107781,0.9049,5,0,5,0,1,,,,,,,,,,
,,016100,001,2023-07-31_12h55.00.309,arm3_eps,2022.2.5,Win32,60.1612321,616e239c6264d82a051c5191,64c7fed44a04f777bb1e18ce,64c800e9dfe1dfb8cbb27589,right,1,1,0.2429,0,-0.0076887,0.7319,6,0,6,0,1,,,,,,,,,,
,,016100,001,2023-07-31_12h55.00.309,arm3_eps,2022.2.5,Win32,60.1612321,616e239c6264d82a051c5191,64c7fed44a04f777bb1e18ce,64c800e9dfe1dfb8cbb27589,right,1,1,0.2429,0,0.018998469,0.9982,7,0,7,0,1,,,,,,,,,,
,,016100,001,2023-07-31_12h55.00.309,arm3_eps,2022.2.5,Win32,60.1612321,616e239c6264d82a051c5191,64c7fed44a04f777bb1e18ce,64c800e9dfe1dfb8cbb27589,right,1,1,0.2429,0,0.026045518,0.8658,8,0,8,0,1,,,,,,,,,,
,,016100,001,2023-07-31_12h55.00.309,arm3_eps,2022.2.5,Win32,60.1612321,616e239c6264d82a051c5191,64c7fed44a04f777bb1e18ce,64c800e9dfe1dfb8cbb27589,right,1,1,0.2429,0,0.044200693,1.0145,9,0,9,0,1,,,,,,,,,,
,,016100,001,2023-07-31_12h55.00.309,arm3_eps,2022.2.5,Win32,60.1612321,616e239c6264d82a051c5191,64c7fed44a04f777bb1e18ce,64c800e9dfe1dfb8cbb27589,right,1,1,0.2429,0,0.069903571,1.5979,10,0,10,0,1,,,,,,,,,,
,,016100,001,2023-07-31_12h55.00.309,arm3_eps,2022.2.5,Win32,60.1612321,616e239c6264d82a051c5191,64c7fed44a04f777bb1e18ce,64c800e9dfe1dfb8cbb27589,right,1,1,0.2429,0,0.105088373,1.7256,11,0,11,0,1,,,,,,,,,,
,,016100,001,2023-07-31_12h55.00.309,arm3_eps,2022.2.5,Win32,60.1612321,616e239c6264d82a051c5191,64c7fed44a04f777bb1e18ce,64c800e9dfe1dfb8cbb27589,up,1,1,0.2429,1,0,9.1263,12,0,12,0,1,,,,,,,,,,
,,016100,001,2023-07-31_12h55.00.309,arm3_eps,2022.2.5,Win32,60.1612321,616e239c6264d82a051c5191,64c7fed44a04f777bb1e18ce,64c800e9dfe1dfb8cbb27589,right,1,1,0.2429,1,0.014447483,46.5848,13,0,13,0,1,,,,,,,,,,
,,016100,001,2023-07-31_12h55.00.309,arm3_eps,2022.2.5,Win32,60.1612321,616e239c6264d82a051c5191,64c7fed44a04f777bb1e18ce,64c800e9dfe1dfb8cbb27589,right,1,1,0.2429,1,0.029253755,0.7707,14,0,14,0,1,,,,,,,,,,
,,016100,001,2023-07-31_12h55.00.309,arm3_eps,2022.2.5,Win32,60.1612321,616e239c6264d82a051c5191,64c7fed44a04f777bb1e18ce,64c800e9dfe1dfb8cbb27589,right,1,1,0.2429,1,0.011010987,0.3719,15,0,15,0,1,,,,,,,,,,
,,016100,001,2023-07-31_12h55.00.309,arm3_eps,2022.2.5,Win32,60.1612321,616e239c6264d82a051c5191,64c7fed44a04f777bb1e18ce,64c800e9dfe1dfb8cbb27589,right,1,1,0.2429,1,-0.005719436,0.591,16,0,16,0,1,,,,,,,,,,
,,016100,001,2023-07-31_12h55.00.309,arm3_eps,2022.2.5,Win32,60.1612321,616e239c6264d82a051c5191,64c7fed44a04f777bb1e18ce,64c800e9dfe1dfb8cbb27589,right,1,1,0.2429,1,-0.00628057,0.4666,17,0,17,0,1,,,,,,,,,,
,,016100,001,2023-07-31_12h55.00.309,arm3_eps,2022.2.5,Win32,60.1612321,616e239c6264d82a051c5191,64c7fed44a04f777bb1e18ce,64c800e9dfe1dfb8cbb27589,right,1,1,0.2429,1,0.037840702,1.2659,18,0,18,0,1,,,,,,,,,,
,,016100,001,2023-07-31_12h55.00.309,arm3_eps,2022.2.5,Win32,60.1612321,616e239c6264d82a051c5191,64c7fed44a04f777bb1e18ce,64c800e9dfe1dfb8cbb27589,right,1,1,0.2429,1,0.028993447,0.184,19,0,19,0,1,,,,,,,,,,
,,016100,001,2023-07-31_12h55.00.309,arm3_eps,2022.2.5,Win32,60.1612321,616e239c6264d82a051c5191,64c7fed44a04f777bb1e18ce,64c800e9dfe1dfb8cbb27589,right,1,1,0.2429,1,0.050810813,0.1446,20,0,20,0,1,,,,,,,,,,
,,016100,001,2023-07-31_12h55.00.309,arm3_eps,2022.2.5,Win32,60.1612321,616e239c6264d82a051c5191,64c7fed44a04f777bb1e18ce,64c800e9dfe1dfb8cbb27589,right,1,1,0.2429,1,0.077966657,0.151,21,0,21,0,1,,,,,,,,,,
,,016100,001,2023-07-31_12h55.00.309,arm3_eps,2022.2.5,Win32,60.1612321,616e239c6264d82a051c5191,64c7fed44a04f777bb1e18ce,64c800e9dfe1dfb8cbb27589,right,1,1,0.2429,1,0.073927263,0.5669,22,0,22,0,1,,,,,,,,,,
,,016100,001,2023-07-31_12h55.00.309,arm3_eps,2022.2.5,Win32,60.1612321,616e239c6264d82a051c5191,64c7fed44a04f777bb1e18ce,64c800e9dfe1dfb8cbb27589,right,1,1,0.2429,1,0.084109888,0.4037,23,0,23,0,1,,,,,,,,,,
,,016100,001,2023-07-31_12h55.00.309,arm3_eps,2022.2.5,Win32,60.1612321,616e239c6264d82a051c5191,64c7fed44a04f777bb1e18ce,64c800e9dfe1dfb8cbb27589,right,1,1,0.2429,1,0.066806565,1.1496,24,0,24,0,1,,,,,,,,,,
,,016100,001,2023-07-31_12h55.00.309,arm3_eps,2022.2.5,Win32,60.1612321,616e239c6264d82a051c5191,64c7fed44a04f777bb1e18ce,64c800e9dfe1dfb8cbb27589,up,1,1,0.2429,2,0,1.6529,25,0,25,0,1,,,,,,,,,,
,,016100,001,2023-07-31_12h55.00.309,arm3_eps,2022.2.5,Win32,60.1612321,616e239c6264d82a051c5191,64c7fed44a04f777bb1e18ce,64c800e9dfe1dfb8cbb27589,right,1,1,0.2429,2,0.007168538,14.9889,26,0,26,0,1,,,,,,,,,,
,,016100,001,2023-07-31_12h55.00.309,arm3_eps,2022.2.5,Win32,60.1612321,616e239c6264d82a051c5191,64c7fed44a04f777bb1e18ce,64c800e9dfe1dfb8cbb27589,right,1,1,0.2429,2,0.017166899,0.8009,27,0,27,0,1,,,,,,,,,,
,,016100,001,2023-07-31_12h55.00.309,arm3_eps,2022.2.5,Win32,60.1612321,616e239c6264d82a051c5191,64c7fed44a04f777bb1e18ce,64c800e9dfe1dfb8cbb27589,right,1,1,0.2429,2,0.038022351,0.2915,28,0,28,0,1,,,,,,,,,,
,,016100,001,2023-07-31_12h55.00.309,arm3_eps,2022.2.5,Win32,60.1612321,616e239c6264d82a051c5191,64c7fed44a04f777bb1e18ce,64c800e9dfe1dfb8cbb27589,right,1,1,0.2429,2,0.04880399,0.2148,29,0,29,0,1,,,,,,,,,,
,,016100,001,2023-07-31_12h55.00.309,arm3_eps,2022.2.5,Win32,60.1612321,616e239c6264d82a051c5191,64c7fed44a04f777bb1e18ce,64c800e9dfe1dfb8cbb27589,right,1,1,0.2429,2,0.053230497,0.2076,30,0,30,0,1,,,,,,,,,,
,,016100,001,2023-07-31_12h55.00.309,arm3_eps,2022.2.5,Win32,60.1612321,616e239c6264d82a051c5191,64c7fed44a04f777bb1e18ce,64c800e9dfe1dfb8cbb27589,right,1,1,0.2429,2,0.037558136,0.2515,31,0,31,0,1,,,,,,,,,,
,,016100,001,2023-07-31_12h55.00.309,arm3_eps,2022.2.5,Win32,60.1612321,616e239c6264d82a051c5191,64c7fed44a04f777bb1e18ce,64c800e9dfe1dfb8cbb27589,right,1,1,0.2429,2,0.051895155,0.2665,32,0,32,0,1,,,,,,,,,,
,,016100,001,2023-07-31_12h55.00.309,arm3_eps,2022.2.5,Win32,60.1612321,616e239c6264d82a051c5191,64c7fed44a04f777bb1e18ce,64c800e9dfe1dfb8cbb27589,right,1,1,0.2429,2,0.071333944,0.2585,33,0,33,0,1,,,,,,,,,,
,,016100,001,2023-07-31_12h55.00.309,arm3_eps,2022.2.5,Win32,60.1612321,616e239c6264d82a051c5191,64c7fed44a04f777bb1e18ce,64c800e9dfe1dfb8cbb27589,right,1,1,0.2429,2,0.093674765,0.3025,34,0,34,0,1,,,,,,,,,,
,,016100,001,2023-07-31_12h55.00.309,arm3_eps,2022.2.5,Win32,60.1612321,616e239c6264d82a051c5191,64c7fed44a04f777bb1e18ce,64c800e9dfe1dfb8cbb27589,right,1,1,0.2429,2,0.125594704,0.324,35,0,35,0,1,,,,,,,,,,
,,016100,001,2023-07-31_12h55.00.309,arm3_eps,2022.2.5,Win32,60.1612321,616e239c6264d82a051c5191,64c7fed44a04f777bb1e18ce,64c800e9dfe1dfb8cbb27589,right,1,1,0.2429,2,0.121667012,0.6809,36,0,36,0,1,,,,,,,,,,
,,016100,001,2023-07-31_12h55.00.309,arm3_eps,2022.2.5,Win32,60.1612321,616e239c6264d82a051c5191,64c7fed44a04f777bb1e18ce,64c800e9dfe1dfb8cbb27589,up,-1,1,0.2429,3,0,2.1011,37,0,37,0,1,,,,,,,,,,
,,016100,001,2023-07-31_12h55.00.309,arm3_eps,2022.2.5,Win32,60.1612321,616e239c6264d82a051c5191,64c7fed44a04f777bb1e18ce,64c800e9dfe1dfb8cbb27589,right,-1,1,0.2429,3,-0.023392042,79.6441,38,0,38,0,1,,,,,,,,,,
,,016100,001,2023-07-31_12h55.00.309,arm3_eps,2022.2.5,Win32,60.1612321,616e239c6264d82a051c5191,64c7fed44a04f777bb1e18ce,64c800e9dfe1dfb8cbb27589,right,-1,1,0.2429,3,-0.006163117,0.2972,39,0,39,0,1,,,,,,,,,,
,,016100,001,2023-07-31_12h55.00.309,arm3_eps,2022.2.5,Win32,60.1612321,616e239c6264d82a051c5191,64c7fed44a04f777bb1e18ce,64c800e9dfe1dfb8cbb27589,right,-1,1,0.2429,3,-0.040888142,0.2833,40,0,40,0,1,,,,,,,,,,
,,016100,001,2023-07-31_12h55.00.309,arm3_eps,2022.2.5,Win32,60.1612321,616e239c6264d82a051c5191,64c7fed44a04f777bb1e18ce,64c800e9dfe1dfb8cbb27589,right,-1,1,0.2429,3,-0.032012612,0.2408,41,0,41,0,1,,,,,,,,,,
,,016100,001,2023-07-31_12h55.00.309,arm3_eps,2022.2.5,Win32,60.1612321,616e239c6264d82a051c5191,64c7fed44a04f777bb1e18ce,64c800e9dfe1dfb8cbb27589,right,-1,1,0.2429,3,-0.01925826,0.267,42,0,42,0,1,,,,,,,,,,
,,016100,001,2023-07-31_12h55.00.309,arm3_eps,2022.2.5,Win32,60.1612321,616e239c6264d82a051c5191,64c7fed44a04f777bb1e18ce,64c800e9dfe1dfb8cbb27589,right,-1,1,0.2429,3,0.01504408,0.2593,43,0,43,0,1,,,,,,,,,,
,,016100,001,2023-07-31_12h55.00.309,arm3_eps,2022.2.5,Win32,60.1612321,616e239c6264d82a051c5191,64c7fed44a04f777bb1e18ce,64c800e9dfe1dfb8cbb27589,right,-1,1,0.2429,3,0.003412783,0.3378,44,0,44,0,1,,,,,,,,,,
,,016100,001,2023-07-31_12h55.00.309,arm3_eps,2022.2.5,Win32,60.1612321,616e239c6264d82a051c5191,64c7fed44a04f777bb1e18ce,64c800e9dfe1dfb8cbb27589,right,-1,1,0.2429,3,-0.035335543,0.3668,45,0,45,0,1,,,,,,,,,,
,,016100,001,2023-07-31_12h55.00.309,arm3_eps,2022.2.5,Win32,60.1612321,616e239c6264d82a051c5191,64c7fed44a04f777bb1e18ce,64c800e9dfe1dfb8cbb27589,right,-1,1,0.2429,3,-0.042668537,0.4166,46,0,46,0,1,,,,,,,,,,
,,016100,001,2023-07-31_12h55.00.309,arm3_eps,2022.2.5,Win32,60.1612321,616e239c6264d82a051c5191,64c7fed44a04f777bb1e18ce,64c800e9dfe1dfb8cbb27589,right,-1,1,0.2429,3,-0.019614808,0.3349,47,0,47,0,1,,,,,,,,,,
,,016100,001,2023-07-31_12h55.00.309,arm3_eps,2022.2.5,Win32,60.1612321,616e239c6264d82a051c5191,64c7fed44a04f777bb1e18ce,64c800e9dfe1dfb8cbb27589,right,-1,1,0.2429,3,-0.018412193,1.3143,48,0,48,0,1,,,,,,,,,,
,,016100,001,2023-07-31_12h55.00.309,arm3_eps,2022.2.5,Win32,60.1612321,616e239c6264d82a051c5191,64c7fed44a04f777bb1e18ce,64c800e9dfe1dfb8cbb27589,down,-1,1,0.2429,3,-0.018412193,4.0456,49,0,49,0,1,,,,,,,,,,
space,25.2426,016100,001,2023-07-31_12h55.00.309,arm3_eps,2022.2.5,Win32,60.1612321,616e239c6264d82a051c5191,64c7fed44a04f777bb1e18ce,64c800e9dfe1dfb8cbb27589,,,,,,,,,,,,,,,,,,,,,,
space,27.8244,016100,001,2023-07-31_12h55.00.309,arm3_eps,2022.2.5,Win32,60.1612321,616e239c6264d82a051c5191,64c7fed44a04f777bb1e18ce,64c800e9dfe1dfb8cbb27589,,,,,,,,,,,,,,,,,,,,,,
space,17.8571,016100,001,2023-07-31_12h55.00.309,arm3_eps,2022.2.5,Win32,60.1612321,616e239c6264d82a051c5191,64c7fed44a04f777bb1e18ce,64c800e9dfe1dfb8cbb27589,,,,,,,,,,,,,,,,,,,,,,
space,8.9272,016100,001,2023-07-31_12h55.00.309,arm3_eps,2022.2.5,Win32,60.1612321,616e239c6264d82a051c5191,64c7fed44a04f777bb1e18ce,64c800e9dfe1dfb8cbb27589,,,,,,,,,,,,,,,,,,,,,,
space,14.7167,016100,001,2023-07-31_12h55.00.309,arm3_eps,2022.2.5,Win32,60.1612321,616e239c6264d82a051c5191,64c7fed44a04f777bb1e18ce,64c800e9dfe1dfb8cbb27589,,,,,,,,,,,,,,,,,,,,,,
space,1.2641,016100,001,2023-07-31_12h55.00.309,arm3_eps,2022.2.5,Win32,60.1612321,616e239c6264d82a051c5191,64c7fed44a04f777bb1e18ce,64c800e9dfe1dfb8cbb27589,,,,,,,,,,,,,,,,,,,,,,
,,016100,001,2023-07-31_12h55.00.309,arm3_eps,2022.2.5,Win32,60.1612321,616e239c6264d82a051c5191,64c7fed44a04f777bb1e18ce,64c800e9dfe1dfb8cbb27589,right,-1,0.75,0.2429,0,-0.00485615,3.436,0,0,0,0,1,,,,,,,,,,
,,016100,001,2023-07-31_12h55.00.309,arm3_eps,2022.2.5,Win32,60.1612321,616e239c6264d82a051c5191,64c7fed44a04f777bb1e18ce,64c800e9dfe1dfb8cbb27589,right,-1,0.75,0.2429,0,-0.024519221,1.7786,1,0,1,0,1,,,,,,,,,,
,,016100,001,2023-07-31_12h55.00.309,arm3_eps,2022.2.5,Win32,60.1612321,616e239c6264d82a051c5191,64c7fed44a04f777bb1e18ce,64c800e9dfe1dfb8cbb27589,right,-1,0.75,0.2429,0,-0.0314323,1.8148,2,0,2,0,1,,,,,,,,,,
,,016100,001,2023-07-31_12h55.00.309,arm3_eps,2022.2.5,Win32,60.1612321,616e239c6264d82a051c5191,64c7fed44a04f777bb1e18ce,64c800e9dfe1dfb8cbb27589,right,-1,0.75,0.2429,0,-0.04754892,1.3156,3,0,3,0,1,,,,,,,,,,
,,016100,001,2023-07-31_12h55.00.309,arm3_eps,2022.2.5,Win32,60.1612321,616e239c6264d82a051c5191,64c7fed44a04f777bb1e18ce,64c800e9dfe1dfb8cbb27589,right,-1,0.75,0.2429,0,-0.041322906,1.0487,4,0,4,0,1,,,,,,,,,,
,,016100,001,2023-07-31_12h55.00.309,arm3_eps,2022.2.5,Win32,60.1612321,616e239c6264d82a051c5191,64c7fed44a04f777bb1e18ce,64c800e9dfe1dfb8cbb27589,right,-1,0.75,0.2429,0,-0.021314612,1.0926,5,0,5,0,1,,,,,,,,,,
,,016100,001,2023-07-31_12h55.00.309,arm3_eps,2022.2.5,Win32,60.1612321,616e239c6264d82a051c5191,64c7fed44a04f777bb1e18ce,64c800e9dfe1dfb8cbb27589,right,-1,0.75,0.2429,0,-0.029686811,1.2659,6,0,6,0,1,,,,,,,,,,
,,016100,001,2023-07-31_12h55.00.309,arm3_eps,2022.2.5,Win32,60.1612321,616e239c6264d82a051c5191,64c7fed44a04f777bb1e18ce,64c800e9dfe1dfb8cbb27589,right,-1,0.75,0.2429,0,-0.035944505,2.3813,7,0,7,0,1,,,,,,,,,,
,,016100,001,2023-07-31_12h55.00.309,arm3_eps,2022.2.5,Win32,60.1612321,616e239c6264d82a051c5191,64c7fed44a04f777bb1e18ce,64c800e9dfe1dfb8cbb27589,down,-1,0.75,0.2429,1,0,0.7671,8,0,8,0,1,,,,,,,,,,
,,016100,001,2023-07-31_12h55.00.309,arm3_eps,2022.2.5,Win32,60.1612321,616e239c6264d82a051c5191,64c7fed44a04f777bb1e18ce,64c800e9dfe1dfb8cbb27589,right,-1,0.75,0.2429,1,-0.028039226,2.2378,9,0,9,0,1,,,,,,,,,,
,,016100,001,2023-07-31_12h55.00.309,arm3_eps,2022.2.5,Win32,60.1612321,616e239c6264d82a051c5191,64c7fed44a04f777bb1e18ce,64c800e9dfe1dfb8cbb27589,right,-1,0.75,0.2429,1,-0.042831017,0.8041,10,0,10,0,1,,,,,,,,,,
,,016100,001,2023-07-31_12h55.00.309,arm3_eps,2022.2.5,Win32,60.1612321,616e239c6264d82a051c5191,64c7fed44a04f777bb1e18ce,64c800e9dfe1dfb8cbb27589,right,-1,0.75,0.2429,1,-0.056500325,0.8383,11,0,11,0,1,,,,,,,,,,
,,016100,001,2023-07-31_12h55.00.309,arm3_eps,2022.2.5,Win32,60.1612321,616e239c6264d82a051c5191,64c7fed44a04f777bb1e18ce,64c800e9dfe1dfb8cbb27589,down,-1,0.75,0.2429,2,0,1.1895,12,0,12,0,1,,,,,,,,,,
,,016100,001,2023-07-31_12h55.00.309,arm3_eps,2022.2.5,Win32,60.1612321,616e239c6264d82a051c5191,64c7fed44a04f777bb1e18ce,64c800e9dfe1dfb8cbb27589,right,-1,0.75,0.2429,2,-0.026295699,2.1144,13,0,13,0,1,,,,,,,,,,
,,016100,001,2023-07-31_12h55.00.309,arm3_eps,2022.2.5,Win32,60.1612321,616e239c6264d82a051c5191,64c7fed44a04f777bb1e18ce,64c800e9dfe1dfb8cbb27589,right,-1,0.75,0.2429,2,-0.055362498,0.6539,14,0,14,0,1,,,,,,,,,,
,,016100,001,2023-07-31_12h55.00.309,arm3_eps,2022.2.5,Win32,60.1612321,616e239c6264d82a051c5191,64c7fed44a04f777bb1e18ce,64c800e9dfe1dfb8cbb27589,down,-1,0.75,0.2429,3,0,0.4834,15,0,15,0,1,,,,,,,,,,
,,016100,001,2023-07-31_12h55.00.309,arm3_eps,2022.2.5,Win32,60.1612321,616e239c6264d82a051c5191,64c7fed44a04f777bb1e18ce,64c800e9dfe1dfb8cbb27589,right,-1,0.75,0.2429,3,0.014406024,1.7861,16,0,16,0,1,,,,,,,,,,
,,016100,001,2023-07-31_12h55.00.309,arm3_eps,2022.2.5,Win32,60.1612321,616e239c6264d82a051c5191,64c7fed44a04f777bb1e18ce,64c800e9dfe1dfb8cbb27589,right,-1,0.75,0.2429,3,0.012785262,0.716,17,0,17,0,1,,,,,,,,,,
,,016100,001,2023-07-31_12h55.00.309,arm3_eps,2022.2.5,Win32,60.1612321,616e239c6264d82a051c5191,64c7fed44a04f777bb1e18ce,64c800e9dfe1dfb8cbb27589,right,-1,0.75,0.2429,3,-0.02304587,0.8665,18,0,18,0,1,,,,,,,,,,
,,016100,001,2023-07-31_12h55.00.309,arm3_eps,2022.2.5,Win32,60.1612321,616e239c6264d82a051c5191,64c7fed44a04f777bb1e18ce,64c800e9dfe1dfb8cbb27589,right,-1,0.75,0.2429,3,-0.001806424,1.0327,19,0,19,0,1,,,,,,,,,,
,,016100,001,2023-07-31_12h55.00.309,arm3_eps,2022.2.5,Win32,60.1612321,616e239c6264d82a051c5191,64c7fed44a04f777bb1e18ce,64c800e9dfe1dfb8cbb27589,right,-1,0.75,0.2429,3,-0.002911704,0.8829,20,0,20,0,1,,,,,,,,,,
,,016100,001,2023-07-31_12h55.00.309,arm3_eps,2022.2.5,Win32,60.1612321,616e239c6264d82a051c5191,64c7fed44a04f777bb1e18ce,64c800e9dfe1dfb8cbb27589,right,-1,0.75,0.2429,3,-0.01251962,0.7491,21,0,21,0,1,,,,,,,,,,
,,016100,001,2023-07-31_12h55.00.309,arm3_eps,2022.2.5,Win32,60.1612321,616e239c6264d82a051c5191,64c7fed44a04f777bb1e18ce,64c800e9dfe1dfb8cbb27589,right,-1,0.75,0.2429,3,-0.039763923,0.6992,22,0,22,0,1,,,,,,,,,,
,,016100,001,2023-07-31_12h55.00.309,arm3_eps,2022.2.5,Win32,60.1612321,616e239c6264d82a051c5191,64c7fed44a04f777bb1e18ce,64c800e9dfe1dfb8cbb27589,down,-1,0.75,0.2429,4,0,0.4327,23,0,23,0,1,,,,,,,,,,
,,016100,001,2023-07-31_12h55.00.309,arm3_eps,2022.2.5,Win32,60.1612321,616e239c6264d82a051c5191,64c7fed44a04f777bb1e18ce,64c800e9dfe1dfb8cbb27589,right,-1,0.75,0.2429,4,-0.01597848,2.0987,24,0,24,0,1,,,,,,,,,,
,,016100,001,2023-07-31_12h55.00.309,arm3_eps,2022.2.5,Win32,60.1612321,616e239c6264d82a051c5191,64c7fed44a04f777bb1e18ce,64c800e9dfe1dfb8cbb27589,right,-1,0.75,0.2429,4,-0.034638723,0.9914,25,0,25,0,1,,,,,,,,,,
,,016100,001,2023-07-31_12h55.00.309,arm3_eps,2022.2.5,Win32,60.1612321,616e239c6264d82a051c5191,64c7fed44a04f777bb1e18ce,64c800e9dfe1dfb8cbb27589,right,-1,0.75,0.2429,4,-0.030759851,0.5331,26,0,26,0,1,,,,,,,,,,
,,016100,001,2023-07-31_12h55.00.309,arm3_eps,2022.2.5,Win32,60.1612321,616e239c6264d82a051c5191,64c7fed44a04f777bb1e18ce,64c800e9dfe1dfb8cbb27589,right,-1,0.75,0.2429,4,-0.039074338,1.5654,27,0,27,0,1,,,,,,,,,,
,,016100,001,2023-07-31_12h55.00.309,arm3_eps,2022.2.5,Win32,60.1612321,616e239c6264d82a051c5191,64c7fed44a04f777bb1e18ce,64c800e9dfe1dfb8cbb27589,down,-1,0.75,0.2429,5,0,0.5602,28,0,28,0,1,,,,,,,,,,
,,016100,001,2023-07-31_12h55.00.309,arm3_eps,2022.2.5,Win32,60.1612321,616e239c6264d82a051c5191,64c7fed44a04f777bb1e18ce,64c800e9dfe1dfb8cbb27589,right,-1,0.75,0.2429,5,0.003811825,1.1318,29,0,29,0,1,,,,,,,,,,
,,016100,001,2023-07-31_12h55.00.309,arm3_eps,2022.2.5,Win32,60.1612321,616e239c6264d82a051c5191,64c7fed44a04f777bb1e18ce,64c800e9dfe1dfb8cbb27589,right,-1,0.75,0.2429,5,-0.005469933,1.0998,30,0,30,0,1,,,,,,,,,,
,,016100,001,2023-07-31_12h55.00.309,arm3_eps,2022.2.5,Win32,60.1612321,616e239c6264d82a051c5191,64c7fed44a04f777bb1e18ce,64c800e9dfe1dfb8cbb27589,right,-1,0.75,0.2429,5,-0.0267981,1.111,31,0,31,0,1,,,,,,,,,,
,,016100,001,2023-07-31_12h55.00.309,arm3_eps,2022.2.5,Win32,60.1612321,616e239c6264d82a051c5191,64c7fed44a04f777bb1e18ce,64c800e9dfe1dfb8cbb27589,right,-1,0.75,0.2429,5,-0.034339268,0.3516,32,0,32,0,1,,,,,,,,,,
,,016100,001,2023-07-31_12h55.00.309,arm3_eps,2022.2.5,Win32,60.1612321,616e239c6264d82a051c5191,64c7fed44a04f777bb1e18ce,64c800e9dfe1dfb8cbb27589,right,-1,0.75,0.2429,5,-0.021357135,0.5,33,0,33,0,1,,,,,,,,,,
,,016100,001,2023-07-31_12h55.00.309,arm3_eps,2022.2.5,Win32,60.1612321,616e239c6264d82a051c5191,64c7fed44a04f777bb1e18ce,64c800e9dfe1dfb8cbb27589,down,-1,0.75,0.2429,6,0,0.8199,34,0,34,0,1,,,,,,,,,,
,,016100,001,2023-07-31_12h55.00.309,arm3_eps,2022.2.5,Win32,60.1612321,616e239c6264d82a051c5191,64c7fed44a04f777bb1e18ce,64c800e9dfe1dfb8cbb27589,right,-1,0.75,0.2429,6,0.003108166,1.2987,35,0,35,0,1,,,,,,,,,,
,,016100,001,2023-07-31_12h55.00.309,arm3_eps,2022.2.5,Win32,60.1612321,616e239c6264d82a051c5191,64c7fed44a04f777bb1e18ce,64c800e9dfe1dfb8cbb27589,right,-1,0.75,0.2429,6,-0.013606768,0.4223,36,0,36,0,1,,,,,,,,,,
,,016100,001,2023-07-31_12h55.00.309,arm3_eps,2022.2.5,Win32,60.1612321,616e239c6264d82a051c5191,64c7fed44a04f777bb1e18ce,64c800e9dfe1dfb8cbb27589,right,-1,0.75,0.2429,6,-0.022374754,0.3986,37,0,37,0,1,,,,,,,,,,
,,016100,001,2023-07-31_12h55.00.309,arm3_eps,2022.2.5,Win32,60.1612321,616e239c6264d82a051c5191,64c7fed44a04f777bb1e18ce,64c800e9dfe1dfb8cbb27589,down,-1,0.75,0.2429,7,0,0.7659,38,0,38,0,1,,,,,,,,,,
,,016100,001,2023-07-31_12h55.00.309,arm3_eps,2022.2.5,Win32,60.1612321,616e239c6264d82a051c5191,64c7fed44a04f777bb1e18ce,64c800e9dfe1dfb8cbb27589,right,-1,0.75,0.2429,7,-0.015944066,1.6195,39,0,39,0,1,,,,,,,,,,
,,016100,001,2023-07-31_12h55.00.309,arm3_eps,2022.2.5,Win32,60.1612321,616e239c6264d82a051c5191,64c7fed44a04f777bb1e18ce,64c800e9dfe1dfb8cbb27589,right,-1,0.75,0.2429,7,-0.039529353,0.6222,40,0,40,0,1,,,,,,,,,,
,,016100,001,2023-07-31_12h55.00.309,arm3_eps,2022.2.5,Win32,60.1612321,616e239c6264d82a051c5191,64c7fed44a04f777bb1e18ce,64c800e9dfe1dfb8cbb27589,down,-1,0.75,0.2429,8,0,0.8013,41,0,41,0,1,,,,,,,,,,
,,016100,001,2023-07-31_12h55.00.309,arm3_eps,2022.2.5,Win32,60.1612321,616e239c6264d82a051c5191,64c7fed44a04f777bb1e18ce,64c800e9dfe1dfb8cbb27589,right,-1,0.75,0.2429,8,0.020295878,1.3163,42,0,42,0,1,,,,,,,,,,
,,016100,001,2023-07-31_12h55.00.309,arm3_eps,2022.2.5,Win32,60.1612321,616e239c6264d82a051c5191,64c7fed44a04f777bb1e18ce,64c800e9dfe1dfb8cbb27589,right,-1,0.75,0.2429,8,0.009134229,0.6516,43,0,43,0,1,,,,,,,,,,
,,016100,001,2023-07-31_12h55.00.309,arm3_eps,2022.2.5,Win32,60.1612321,616e239c6264d82a051c5191,64c7fed44a04f777bb1e18ce,64c800e9dfe1dfb8cbb27589,right,-1,0.75,0.2429,8,-0.032249711,1.001,44,0,44,0,1,,,,,,,,,,
,,016100,001,2023-07-31_12h55.00.309,arm3_eps,2022.2.5,Win32,60.1612321,616e239c6264d82a051c5191,64c7fed44a04f777bb1e18ce,64c800e9dfe1dfb8cbb27589,right,-1,0.75,0.2429,8,-0.010008664,0.6838,45,0,45,0,1,,,,,,,,,,
,,016100,001,2023-07-31_12h55.00.309,arm3_eps,2022.2.5,Win32,60.1612321,616e239c6264d82a051c5191,64c7fed44a04f777bb1e18ce,64c800e9dfe1dfb8cbb27589,right,-1,0.75,0.2429,8,-0.019509496,0.6669,46,0,46,0,1,,,,,,,,,,
,,016100,001,2023-07-31_12h55.00.309,arm3_eps,2022.2.5,Win32,60.1612321,616e239c6264d82a051c5191,64c7fed44a04f777bb1e18ce,64c800e9dfe1dfb8cbb27589,right,-1,0.75,0.2429,8,-0.031911907,0.5336,47,0,47,0,1,,,,,,,,,,
,,016100,001,2023-07-31_12h55.00.309,arm3_eps,2022.2.5,Win32,60.1612321,616e239c6264d82a051c5191,64c7fed44a04f777bb1e18ce,64c800e9dfe1dfb8cbb27589,down,1,0.75,0.2429,8,0,0.4658,48,0,48,0,1,,,,,,,,,,
,,016100,001,2023-07-31_12h55.00.309,arm3_eps,2022.2.5,Win32,60.1612321,616e239c6264d82a051c5191,64c7fed44a04f777bb1e18ce,64c800e9dfe1dfb8cbb27589,right,1,0.75,0.2429,8,-0.020228302,1.6443,49,0,49,0,1,,,,,,,,,,
space,34.3311,016100,001,2023-07-31_12h55.00.309,arm3_eps,2022.2.5,Win32,60.1612321,616e239c6264d82a051c5191,64c7fed44a04f777bb1e18ce,64c800e9dfe1dfb8cbb27589,,,,,,,,,,,,,,,,,,,,,,
space,21.0296,016100,001,2023-07-31_12h55.00.309,arm3_eps,2022.2.5,Win32,60.1612321,616e239c6264d82a051c5191,64c7fed44a04f777bb1e18ce,64c800e9dfe1dfb8cbb27589,,,,,,,,,,,,,,,,,,,,,,
space,1.1725,016100,001,2023-07-31_12h55.00.309,arm3_eps,2022.2.5,Win32,60.1612321,616e239c6264d82a051c5191,64c7fed44a04f777bb1e18ce,64c800e9dfe1dfb8cbb27589,,,,,,,,,,,,,,,,,,,,,,
,,016100,001,2023-07-31_12h55.00.309,arm3_eps,2022.2.5,Win32,60.1612321,616e239c6264d82a051c5191,64c7fed44a04f777bb1e18ce,64c800e9dfe1dfb8cbb27589,up,1,0.75,0.05,1,0,2.5177,0,0,0,0,1,,,,,,,,,,
,,016100,001,2023-07-31_12h55.00.309,arm3_eps,2022.2.5,Win32,60.1612321,616e239c6264d82a051c5191,64c7fed44a04f777bb1e18ce,64c800e9dfe1dfb8cbb27589,up,1,0.75,0.05,1,0,4.356,1,0,1,0,1,,,,,,,,,,
,,016100,001,2023-07-31_12h55.00.309,arm3_eps,2022.2.5,Win32,60.1612321,616e239c6264d82a051c5191,64c7fed44a04f777bb1e18ce,64c800e9dfe1dfb8cbb27589,right,1,0.75,0.05,1,0.013481212,3.67,2,0,2,0,1,,,,,,,,,,
,,016100,001,2023-07-31_12h55.00.309,arm3_eps,2022.2.5,Win32,60.1612321,616e239c6264d82a051c5191,64c7fed44a04f777bb1e18ce,64c800e9dfe1dfb8cbb27589,right,1,0.75,0.05,1,0.031179974,0.5658,3,0,3,0,1,,,,,,,,,,
,,016100,001,2023-07-31_12h55.00.309,arm3_eps,2022.2.5,Win32,60.1612321,616e239c6264d82a051c5191,64c7fed44a04f777bb1e18ce,64c800e9dfe1dfb8cbb27589,up,1,0.75,0.05,1,0,0.2836,4,0,4,0,1,,,,,,,,,,
,,016100,001,2023-07-31_12h55.00.309,arm3_eps,2022.2.5,Win32,60.1612321,616e239c6264d82a051c5191,64c7fed44a04f777bb1e18ce,64c800e9dfe1dfb8cbb27589,right,1,0.75,0.05,1,0.009614798,4.7118,5,0,5,0,1,,,,,,,,,,
,,016100,001,2023-07-31_12h55.00.309,arm3_eps,2022.2.5,Win32,60.1612321,616e239c6264d82a051c5191,64c7fed44a04f777bb1e18ce,64c800e9dfe1dfb8cbb27589,up,1,0.75,0.05,2,0,0.5646,6,0,6,0,1,,,,,,,,,,
,,016100,001,2023-07-31_12h55.00.309,arm3_eps,2022.2.5,Win32,60.1612321,616e239c6264d82a051c5191,64c7fed44a04f777bb1e18ce,64c800e9dfe1dfb8cbb27589,right,1,0.75,0.05,2,0.00218276,3.0981,7,0,7,0,1,,,,,,,,,,
,,016100,001,2023-07-31_12h55.00.309,arm3_eps,2022.2.5,Win32,60.1612321,616e239c6264d82a051c5191,64c7fed44a04f777bb1e18ce,64c800e9dfe1dfb8cbb27589,up,1,0.75,0.05,2,0,0.548,8,0,8,0,1,,,,,,,,,,
,,016100,001,2023-07-31_12h55.00.309,arm3_eps,2022.2.5,Win32,60.1612321,616e239c6264d82a051c5191,64c7fed44a04f777bb1e18ce,64c800e9dfe1dfb8cbb27589,up,1,0.75,0.05,3,0,2.3315,9,0,9,0,1,,,,,,,,,,
,,016100,001,2023-07-31_12h55.00.309,arm3_eps,2022.2.5,Win32,60.1612321,616e239c6264d82a051c5191,64c7fed44a04f777bb1e18ce,64c800e9dfe1dfb8cbb27589,up,1,0.75,0.05,3,0,1.7683,10,0,10,0,1,,,,,,,,,,
,,016100,001,2023-07-31_12h55.00.309,arm3_eps,2022.2.5,Win32,60.1612321,616e239c6264d82a051c5191,64c7fed44a04f777bb1e18ce,64c800e9dfe1dfb8cbb27589,up,1,0.75,0.05,4,0,2.0822,11,0,11,0,1,,,,,,,,,,
,,016100,001,2023-07-31_12h55.00.309,arm3_eps,2022.2.5,Win32,60.1612321,616e239c6264d82a051c5191,64c7fed44a04f777bb1e18ce,64c800e9dfe1dfb8cbb27589,up,1,0.75,0.05,5,0,1.6479,12,0,12,0,1,,,,,,,,,,
,,016100,001,2023-07-31_12h55.00.309,arm3_eps,2022.2.5,Win32,60.1612321,616e239c6264d82a051c5191,64c7fed44a04f777bb1e18ce,64c800e9dfe1dfb8cbb27589,right,1,0.75,0.05,5,-0.006862298,3.5302,13,0,13,0,1,,,,,,,,,,
,,016100,001,2023-07-31_12h55.00.309,arm3_eps,2022.2.5,Win32,60.1612321,616e239c6264d82a051c5191,64c7fed44a04f777bb1e18ce,64c800e9dfe1dfb8cbb27589,right,1,0.75,0.05,5,-0.003764673,0.4317,14,0,14,0,1,,,,,,,,,,
,,016100,001,2023-07-31_12h55.00.309,arm3_eps,2022.2.5,Win32,60.1612321,616e239c6264d82a051c5191,64c7fed44a04f777bb1e18ce,64c800e9dfe1dfb8cbb27589,up,1,0.75,0.05,6,0,0.4498,15,0,15,0,1,,,,,,,,,,
,,016100,001,2023-07-31_12h55.00.309,arm3_eps,2022.2.5,Win32,60.1612321,616e239c6264d82a051c5191,64c7fed44a04f777bb1e18ce,64c800e9dfe1dfb8cbb27589,up,1,0.75,0.05,7,0,1.5821,16,0,16,0,1,,,,,,,,,,
,,016100,001,2023-07-31_12h55.00.309,arm3_eps,2022.2.5,Win32,60.1612321,616e239c6264d82a051c5191,64c7fed44a04f777bb1e18ce,64c800e9dfe1dfb8cbb27589,up,1,0.75,0.05,8,0,2.2814,17,0,17,0,1,,,,,,,,,,
,,016100,001,2023-07-31_12h55.00.309,arm3_eps,2022.2.5,Win32,60.1612321,616e239c6264d82a051c5191,64c7fed44a04f777bb1e18ce,64c800e9dfe1dfb8cbb27589,up,1,0.75,0.05,9,0,3.0473,18,0,18,0,1,,,,,,,,,,
,,016100,001,2023-07-31_12h55.00.309,arm3_eps,2022.2.5,Win32,60.1612321,616e239c6264d82a051c5191,64c7fed44a04f777bb1e18ce,64c800e9dfe1dfb8cbb27589,up,1,0.75,0.05,9,0,1.887,19,0,19,0,1,,,,,,,,,,
,,016100,001,2023-07-31_12h55.00.309,arm3_eps,2022.2.5,Win32,60.1612321,616e239c6264d82a051c5191,64c7fed44a04f777bb1e18ce,64c800e9dfe1dfb8cbb27589,right,1,0.75,0.05,9,-0.012220047,1.9934,20,0,20,0,1,,,,,,,,,,
,,016100,001,2023-07-31_12h55.00.309,arm3_eps,2022.2.5,Win32,60.1612321,616e239c6264d82a051c5191,64c7fed44a04f777bb1e18ce,64c800e9dfe1dfb8cbb27589,right,1,0.75,0.05,9,-0.017382168,0.3474,21,0,21,0,1,,,,,,,,,,
,,016100,001,2023-07-31_12h55.00.309,arm3_eps,2022.2.5,Win32,60.1612321,616e239c6264d82a051c5191,64c7fed44a04f777bb1e18ce,64c800e9dfe1dfb8cbb27589,up,1,0.75,0.05,10,0,0.8405,22,0,22,0,1,,,,,,,,,,
,,016100,001,2023-07-31_12h55.00.309,arm3_eps,2022.2.5,Win32,60.1612321,616e239c6264d82a051c5191,64c7fed44a04f777bb1e18ce,64c800e9dfe1dfb8cbb27589,up,1,0.75,0.05,10,0,2.2821,23,0,23,0,1,,,,,,,,,,
,,016100,001,2023-07-31_12h55.00.309,arm3_eps,2022.2.5,Win32,60.1612321,616e239c6264d82a051c5191,64c7fed44a04f777bb1e18ce,64c800e9dfe1dfb8cbb27589,right,1,0.75,0.05,10,-0.005829367,2.3414,24,0,24,0,1,,,,,,,,,,
,,016100,001,2023-07-31_12h55.00.309,arm3_eps,2022.2.5,Win32,60.1612321,616e239c6264d82a051c5191,64c7fed44a04f777bb1e18ce,64c800e9dfe1dfb8cbb27589,up,1,0.75,0.05,10,0,0.4974,25,0,25,0,1,,,,,,,,,,
,,016100,001,2023-07-31_12h55.00.309,arm3_eps,2022.2.5,Win32,60.1612321,616e239c6264d82a051c5191,64c7fed44a04f777bb1e18ce,64c800e9dfe1dfb8cbb27589,up,1,0.75,0.05,10,0,1.9052,26,0,26,0,1,,,,,,,,,,
,,016100,001,2023-07-31_12h55.00.309,arm3_eps,2022.2.5,Win32,60.1612321,616e239c6264d82a051c5191,64c7fed44a04f777bb1e18ce,64c800e9dfe1dfb8cbb27589,right,1,0.75,0.05,10,0.032045818,2.1135,27,0,27,0,1,,,,,,,,,,
,,016100,001,2023-07-31_12h55.00.309,arm3_eps,2022.2.5,Win32,60.1612321,616e239c6264d82a051c5191,64c7fed44a04f777bb1e18ce,64c800e9dfe1dfb8cbb27589,up,1,0.75,0.05,11,0,0.4201,28,0,28,0,1,,,,,,,,,,
,,016100,001,2023-07-31_12h55.00.309,arm3_eps,2022.2.5,Win32,60.1612321,616e239c6264d82a051c5191,64c7fed44a04f777bb1e18ce,64c800e9dfe1dfb8cbb27589,up,1,0.75,0.05,12,0,1.6664,29,0,29,0,1,,,,,,,,,,
,,016100,001,2023-07-31_12h55.00.309,arm3_eps,2022.2.5,Win32,60.1612321,616e239c6264d82a051c5191,64c7fed44a04f777bb1e18ce,64c800e9dfe1dfb8cbb27589,up,1,0.75,0.05,12,0,1.3186,30,0,30,0,1,,,,,,,,,,
,,016100,001,2023-07-31_12h55.00.309,arm3_eps,2022.2.5,Win32,60.1612321,616e239c6264d82a051c5191,64c7fed44a04f777bb1e18ce,64c800e9dfe1dfb8cbb27589,right,1,0.75,0.05,12,-0.009797976,1.9334,31,0,31,0,1,,,,,,,,,,
,,016100,001,2023-07-31_12h55.00.309,arm3_eps,2022.2.5,Win32,60.1612321,616e239c6264d82a051c5191,64c7fed44a04f777bb1e18ce,64c800e9dfe1dfb8cbb27589,right,1,0.75,0.05,12,-0.015578182,0.2388,32,0,32,0,1,,,,,,,,,,
,,016100,001,2023-07-31_12h55.00.309,arm3_eps,2022.2.5,Win32,60.1612321,616e239c6264d82a051c5191,64c7fed44a04f777bb1e18ce,64c800e9dfe1dfb8cbb27589,right,1,0.75,0.05,12,-0.006228246,0.4211,33,0,33,0,1,,,,,,,,,,
,,016100,001,2023-07-31_12h55.00.309,arm3_eps,2022.2.5,Win32,60.1612321,616e239c6264d82a051c5191,64c7fed44a04f777bb1e18ce,64c800e9dfe1dfb8cbb27589,up,1,0.75,0.05,12,0,0.4466,34,0,34,0,1,,,,,,,,,,
,,016100,001,2023-07-31_12h55.00.309,arm3_eps,2022.2.5,Win32,60.1612321,616e239c6264d82a051c5191,64c7fed44a04f777bb1e18ce,64c800e9dfe1dfb8cbb27589,up,-1,0.75,0.05,12,0,2.778,35,0,35,0,1,,,,,,,,,,
,,016100,001,2023-07-31_12h55.00.309,arm3_eps,2022.2.5,Win32,60.1612321,616e239c6264d82a051c5191,64c7fed44a04f777bb1e18ce,64c800e9dfe1dfb8cbb27589,up,-1,0.75,0.05,12,0,2.1676,36,0,36,0,1,,,,,,,,,,
,,016100,001,2023-07-31_12h55.00.309,arm3_eps,2022.2.5,Win32,60.1612321,616e239c6264d82a051c5191,64c7fed44a04f777bb1e18ce,64c800e9dfe1dfb8cbb27589,right,-1,0.75,0.05,12,-0.039511306,3.4708,37,0,37,0,1,,,,,,,,,,
,,016100,001,2023-07-31_12h55.00.309,arm3_eps,2022.2.5,Win32,60.1612321,616e239c6264d82a051c5191,64c7fed44a04f777bb1e18ce,64c800e9dfe1dfb8cbb27589,right,-1,0.75,0.05,12,-0.059376356,0.1984,38,0,38,0,1,,,,,,,,,,
,,016100,001,2023-07-31_12h55.00.309,arm3_eps,2022.2.5,Win32,60.1612321,616e239c6264d82a051c5191,64c7fed44a04f777bb1e18ce,64c800e9dfe1dfb8cbb27589,right,-1,0.75,0.05,12,-0.062102216,0.1498,39,0,39,0,1,,,,,,,,,,
,,016100,001,2023-07-31_12h55.00.309,arm3_eps,2022.2.5,Win32,60.1612321,616e239c6264d82a051c5191,64c7fed44a04f777bb1e18ce,64c800e9dfe1dfb8cbb27589,down,-1,0.75,0.05,13,0,1.9432,40,0,40,0,1,,,,,,,,,,
,,016100,001,2023-07-31_12h55.00.309,arm3_eps,2022.2.5,Win32,60.1612321,616e239c6264d82a051c5191,64c7fed44a04f777bb1e18ce,64c800e9dfe1dfb8cbb27589,right,-1,0.75,0.05,13,-0.004369918,4.2438,41,0,41,0,1,,,,,,,,,,
,,016100,001,2023-07-31_12h55.00.309,arm3_eps,2022.2.5,Win32,60.1612321,616e239c6264d82a051c5191,64c7fed44a04f777bb1e18ce,64c800e9dfe1dfb8cbb27589,right,-1,0.75,0.05,13,0.028702959,0.5354,42,0,42,0,1,,,,,,,,,,
,,016100,001,2023-07-31_12h55.00.309,arm3_eps,2022.2.5,Win32,60.1612321,616e239c6264d82a051c5191,64c7fed44a04f777bb1e18ce,64c800e9dfe1dfb8cbb27589,right,-1,0.75,0.05,13,0.007355615,0.4617,43,0,43,0,1,,,,,,,,,,
,,016100,001,2023-07-31_12h55.00.309,arm3_eps,2022.2.5,Win32,60.1612321,616e239c6264d82a051c5191,64c7fed44a04f777bb1e18ce,64c800e9dfe1dfb8cbb27589,right,-1,0.75,0.05,13,0.003851951,0.5295,44,0,44,0,1,,,,,,,,,,
,,016100,001,2023-07-31_12h55.00.309,arm3_eps,2022.2.5,Win32,60.1612321,616e239c6264d82a051c5191,64c7fed44a04f777bb1e18ce,64c800e9dfe1dfb8cbb27589,down,-1,0.75,0.05,14,0,0.3629,45,0,45,0,1,,,,,,,,,,
,,016100,001,2023-07-31_12h55.00.309,arm3_eps,2022.2.5,Win32,60.1612321,616e239c6264d82a051c5191,64c7fed44a04f777bb1e18ce,64c800e9dfe1dfb8cbb27589,right,-1,0.75,0.05,14,-0.012910837,7.2495,46,0,46,0,1,,,,,,,,,,
,,016100,001,2023-07-31_12h55.00.309,arm3_eps,2022.2.5,Win32,60.1612321,616e239c6264d82a051c5191,64c7fed44a04f777bb1e18ce,64c800e9dfe1dfb8cbb27589,up,-1,0.75,0.05,13,0,0.4727,47,0,47,0,1,,,,,,,,,,
,,016100,001,2023-07-31_12h55.00.309,arm3_eps,2022.2.5,Win32,60.1612321,616e239c6264d82a051c5191,64c7fed44a04f777bb1e18ce,64c800e9dfe1dfb8cbb27589,right,-1,0.75,0.05,13,0.014413894,2.2809,48,0,48,0,1,,,,,,,,,,
,,016100,001,2023-07-31_12h55.00.309,arm3_eps,2022.2.5,Win32,60.1612321,616e239c6264d82a051c5191,64c7fed44a04f777bb1e18ce,64c800e9dfe1dfb8cbb27589,right,-1,0.75,0.05,13,0.02361997,0.3674,49,0,49,0,1,,,,,,,,,,
space,11.9311,016100,001,2023-07-31_12h55.00.309,arm3_eps,2022.2.5,Win32,60.1612321,616e239c6264d82a051c5191,64c7fed44a04f777bb1e18ce,64c800e9dfe1dfb8cbb27589,,,,,,,,,,,,,,,,,,,,,,
space,1.1659,016100,001,2023-07-31_12h55.00.309,arm3_eps,2022.2.5,Win32,60.1612321,616e239c6264d82a051c5191,64c7fed44a04f777bb1e18ce,64c800e9dfe1dfb8cbb27589,,,,,,,,,,,,,,,,,,,,,,
,,016100,001,2023-07-31_12h55.00.309,arm3_eps,2022.2.5,Win32,60.1612321,616e239c6264d82a051c5191,64c7fed44a04f777bb1e18ce,64c800e9dfe1dfb8cbb27589,right,-1,0.75,0.5,0,-0.028832586,3.0362,0,0,0,0,1,,,,,,,,,,
,,016100,001,2023-07-31_12h55.00.309,arm3_eps,2022.2.5,Win32,60.1612321,616e239c6264d82a051c5191,64c7fed44a04f777bb1e18ce,64c800e9dfe1dfb8cbb27589,right,-1,0.75,0.5,0,-0.00746335,0.3619,1,0,1,0,1,,,,,,,,,,
,,016100,001,2023-07-31_12h55.00.309,arm3_eps,2022.2.5,Win32,60.1612321,616e239c6264d82a051c5191,64c7fed44a04f777bb1e18ce,64c800e9dfe1dfb8cbb27589,right,-1,0.75,0.5,0,-0.022800244,0.469,2,0,2,0,1,,,,,,,,,,
,,016100,001,2023-07-31_12h55.00.309,arm3_eps,2022.2.5,Win32,60.1612321,616e239c6264d82a051c5191,64c7fed44a04f777bb1e18ce,64c800e9dfe1dfb8cbb27589,right,-1,0.75,0.5,0,-0.039427183,0.4142,3,0,3,0,1,,,,,,,,,,
,,016100,001,2023-07-31_12h55.00.309,arm3_eps,2022.2.5,Win32,60.1612321,616e239c6264d82a051c5191,64c7fed44a04f777bb1e18ce,64c800e9dfe1dfb8cbb27589,right,-1,0.75,0.5,0,-0.052565476,0.3967,4,0,4,0,1,,,,,,,,,,
,,016100,001,2023-07-31_12h55.00.309,arm3_eps,2022.2.5,Win32,60.1612321,616e239c6264d82a051c5191,64c7fed44a04f777bb1e18ce,64c800e9dfe1dfb8cbb27589,down,1,0.75,0.5,1,0,1.0994,5,0,5,0,1,,,,,,,,,,
,,016100,001,2023-07-31_12h55.00.309,arm3_eps,2022.2.5,Win32,60.1612321,616e239c6264d82a051c5191,64c7fed44a04f777bb1e18ce,64c800e9dfe1dfb8cbb27589,right,1,0.75,0.5,1,0.005941464,3.3815,6,0,6,0,1,,,,,,,,,,
,,016100,001,2023-07-31_12h55.00.309,arm3_eps,2022.2.5,Win32,60.1612321,616e239c6264d82a051c5191,64c7fed44a04f777bb1e18ce,64c800e9dfe1dfb8cbb27589,right,1,0.75,0.5,1,0.013175813,0.3865,7,0,7,0,1,,,,,,,,,,
,,016100,001,2023-07-31_12h55.00.309,arm3_eps,2022.2.5,Win32,60.1612321,616e239c6264d82a051c5191,64c7fed44a04f777bb1e18ce,64c800e9dfe1dfb8cbb27589,right,1,0.75,0.5,1,-0.041173533,0.308,8,0,8,0,1,,,,,,,,,,
,,016100,001,2023-07-31_12h55.00.309,arm3_eps,2022.2.5,Win32,60.1612321,616e239c6264d82a051c5191,64c7fed44a04f777bb1e18ce,64c800e9dfe1dfb8cbb27589,right,1,0.75,0.5,1,-0.02114724,0.5386,9,0,9,0,1,,,,,,,,,,
,,016100,001,2023-07-31_12h55.00.309,arm3_eps,2022.2.5,Win32,60.1612321,616e239c6264d82a051c5191,64c7fed44a04f777bb1e18ce,64c800e9dfe1dfb8cbb27589,right,1,0.75,0.5,1,0.014082531,0.3126,10,0,10,0,1,,,,,,,,,,
,,016100,001,2023-07-31_12h55.00.309,arm3_eps,2022.2.5,Win32,60.1612321,616e239c6264d82a051c5191,64c7fed44a04f777bb1e18ce,64c800e9dfe1dfb8cbb27589,right,1,0.75,0.5,1,0.038117691,0.4908,11,0,11,0,1,,,,,,,,,,
,,016100,001,2023-07-31_12h55.00.309,arm3_eps,2022.2.5,Win32,60.1612321,616e239c6264d82a051c5191,64c7fed44a04f777bb1e18ce,64c800e9dfe1dfb8cbb27589,up,1,0.75,0.5,2,0,0.3888,12,0,12,0,1,,,,,,,,,,
,,016100,001,2023-07-31_12h55.00.309,arm3_eps,2022.2.5,Win32,60.1612321,616e239c6264d82a051c5191,64c7fed44a04f777bb1e18ce,64c800e9dfe1dfb8cbb27589,right,1,0.75,0.5,2,0.021326263,4.7758,13,0,13,0,1,,,,,,,,,,
,,016100,001,2023-07-31_12h55.00.309,arm3_eps,2022.2.5,Win32,60.1612321,616e239c6264d82a051c5191,64c7fed44a04f777bb1e18ce,64c800e9dfe1dfb8cbb27589,right,1,0.75,0.5,2,0.027221345,0.6311,14,0,14,0,1,,,,,,,,,,
,,016100,001,2023-07-31_12h55.00.309,arm3_eps,2022.2.5,Win32,60.1612321,616e239c6264d82a051c5191,64c7fed44a04f777bb1e18ce,64c800e9dfe1dfb8cbb27589,up,-1,0.75,0.5,3,0,0.4895,15,0,15,0,1,,,,,,,,,,
,,016100,001,2023-07-31_12h55.00.309,arm3_eps,2022.2.5,Win32,60.1612321,616e239c6264d82a051c5191,64c7fed44a04f777bb1e18ce,64c800e9dfe1dfb8cbb27589,right,-1,0.75,0.5,3,-0.005043123,2.432,16,0,16,0,1,,,,,,,,,,
,,016100,001,2023-07-31_12h55.00.309,arm3_eps,2022.2.5,Win32,60.1612321,616e239c6264d82a051c5191,64c7fed44a04f777bb1e18ce,64c800e9dfe1dfb8cbb27589,right,-1,0.75,0.5,3,9.86809E-05,0.4131,17,0,17,0,1,,,,,,,,,,
,,016100,001,2023-07-31_12h55.00.309,arm3_eps,2022.2.5,Win32,60.1612321,616e239c6264d82a051c5191,64c7fed44a04f777bb1e18ce,64c800e9dfe1dfb8cbb27589,down,1,0.75,0.5,3,0,0.617,18,0,18,0,1,,,,,,,,,,
,,016100,001,2023-07-31_12h55.00.309,arm3_eps,2022.2.5,Win32,60.1612321,616e239c6264d82a051c5191,64c7fed44a04f777bb1e18ce,64c800e9dfe1dfb8cbb27589,right,1,0.75,0.5,3,0.010742003,1.5745,19,0,19,0,1,,,,,,,,,,
,,016100,001,2023-07-31_12h55.00.309,arm3_eps,2022.2.5,Win32,60.1612321,616e239c6264d82a051c5191,64c7fed44a04f777bb1e18ce,64c800e9dfe1dfb8cbb27589,right,1,0.75,0.5,3,0.035458705,0.4188,20,0,20,0,1,,,,,,,,,,
,,016100,001,2023-07-31_12h55.00.309,arm3_eps,2022.2.5,Win32,60.1612321,616e239c6264d82a051c5191,64c7fed44a04f777bb1e18ce,64c800e9dfe1dfb8cbb27589,up,-1,0.75,0.5,3,0,0.7474,21,0,21,0,1,,,,,,,,,,
,,016100,001,2023-07-31_12h55.00.309,arm3_eps,2022.2.5,Win32,60.1612321,616e239c6264d82a051c5191,64c7fed44a04f777bb1e18ce,64c800e9dfe1dfb8cbb27589,right,-1,0.75,0.5,3,0.011385441,0.96,22,0,22,0,1,,,,,,,,,,
,,016100,001,2023-07-31_12h55.00.309,arm3_eps,2022.2.5,Win32,60.1612321,616e239c6264d82a051c5191,64c7fed44a04f777bb1e18ce,64c800e9dfe1dfb8cbb27589,right,-1,0.75,0.5,3,0.015431469,0.2366,23,0,23,0,1,,,,,,,,,,
,,016100,001,2023-07-31_12h55.00.309,arm3_eps,2022.2.5,Win32,60.1612321,616e239c6264d82a051c5191,64c7fed44a04f777bb1e18ce,64c800e9dfe1dfb8cbb27589,right,-1,0.75,0.5,3,0.014404859,0.4456,24,0,24,0,1,,,,,,,,,,
,,016100,001,2023-07-31_12h55.00.309,arm3_eps,2022.2.5,Win32,60.1612321,616e239c6264d82a051c5191,64c7fed44a04f777bb1e18ce,64c800e9dfe1dfb8cbb27589,right,-1,0.75,0.5,3,0.019983364,0.4515,25,0,25,0,1,,,,,,,,,,
,,016100,001,2023-07-31_12h55.00.309,arm3_eps,2022.2.5,Win32,60.1612321,616e239c6264d82a051c5191,64c7fed44a04f777bb1e18ce,64c800e9dfe1dfb8cbb27589,right,-1,0.75,0.5,3,0.010604353,0.5636,26,0,26,0,1,,,,,,,,,,
,,016100,001,2023-07-31_12h55.00.309,arm3_eps,2022.2.5,Win32,60.1612321,616e239c6264d82a051c5191,64c7fed44a04f777bb1e18ce,64c800e9dfe1dfb8cbb27589,right,-1,0.75,0.5,3,0.009748264,0.5505,27,0,27,0,1,,,,,,,,,,
,,016100,001,2023-07-31_12h55.00.309,arm3_eps,2022.2.5,Win32,60.1612321,616e239c6264d82a051c5191,64c7fed44a04f777bb1e18ce,64c800e9dfe1dfb8cbb27589,right,-1,0.75,0.5,3,-0.006292543,0.6322,28,0,28,0,1,,,,,,,,,,
,,016100,001,2023-07-31_12h55.00.309,arm3_eps,2022.2.5,Win32,60.1612321,616e239c6264d82a051c5191,64c7fed44a04f777bb1e18ce,64c800e9dfe1dfb8cbb27589,right,-1,0.75,0.5,3,0.005350741,0.5642,29,0,29,0,1,,,,,,,,,,
,,016100,001,2023-07-31_12h55.00.309,arm3_eps,2022.2.5,Win32,60.1612321,616e239c6264d82a051c5191,64c7fed44a04f777bb1e18ce,64c800e9dfe1dfb8cbb27589,right,-1,0.75,0.5,3,0.002637341,0.6704,30,0,30,0,1,,,,,,,,,,
,,016100,001,2023-07-31_12h55.00.309,arm3_eps,2022.2.5,Win32,60.1612321,616e239c6264d82a051c5191,64c7fed44a04f777bb1e18ce,64c800e9dfe1dfb8cbb27589,right,-1,0.75,0.5,3,-0.016571451,0.673,31,0,31,0,1,,,,,,,,,,
,,016100,001,2023-07-31_12h55.00.309,arm3_eps,2022.2.5,Win32,60.1612321,616e239c6264d82a051c5191,64c7fed44a04f777bb1e18ce,64c800e9dfe1dfb8cbb27589,right,-1,0.75,0.5,3,-0.009657734,0.614,32,0,32,0,1,,,,,,,,,,
,,016100,001,2023-07-31_12h55.00.309,arm3_eps,2022.2.5,Win32,60.1612321,616e239c6264d82a051c5191,64c7fed44a04f777bb1e18ce,64c800e9dfe1dfb8cbb27589,right,-1,0.75,0.5,3,-0.009767565,2.3226,33,0,33,0,1,,,,,,,,,,
,,016100,001,2023-07-31_12h55.00.309,arm3_eps,2022.2.5,Win32,60.1612321,616e239c6264d82a051c5191,64c7fed44a04f777bb1e18ce,64c800e9dfe1dfb8cbb27589,down,1,0.75,0.5,4,0,0.845,34,0,34,0,1,,,,,,,,,,
,,016100,001,2023-07-31_12h55.00.309,arm3_eps,2022.2.5,Win32,60.1612321,616e239c6264d82a051c5191,64c7fed44a04f777bb1e18ce,64c800e9dfe1dfb8cbb27589,right,1,0.75,0.5,4,0.00127594,4.7434,35,0,35,0,1,,,,,,,,,,
,,016100,001,2023-07-31_12h55.00.309,arm3_eps,2022.2.5,Win32,60.1612321,616e239c6264d82a051c5191,64c7fed44a04f777bb1e18ce,64c800e9dfe1dfb8cbb27589,right,1,0.75,0.5,4,0.021355336,0.4019,36,0,36,0,1,,,,,,,,,,
,,016100,001,2023-07-31_12h55.00.309,arm3_eps,2022.2.5,Win32,60.1612321,616e239c6264d82a051c5191,64c7fed44a04f777bb1e18ce,64c800e9dfe1dfb8cbb27589,right,1,0.75,0.5,4,0.029935415,0.3953,37,0,37,0,1,,,,,,,,,,
,,016100,001,2023-07-31_12h55.00.309,arm3_eps,2022.2.5,Win32,60.1612321,616e239c6264d82a051c5191,64c7fed44a04f777bb1e18ce,64c800e9dfe1dfb8cbb27589,right,1,0.75,0.5,4,0.035560178,0.3849,38,0,38,0,1,,,,,,,,,,
,,016100,001,2023-07-31_12h55.00.309,arm3_eps,2022.2.5,Win32,60.1612321,616e239c6264d82a051c5191,64c7fed44a04f777bb1e18ce,64c800e9dfe1dfb8cbb27589,up,1,0.75,0.5,4,0,0.5082,39,0,39,0,1,,,,,,,,,,
,,016100,001,2023-07-31_12h55.00.309,arm3_eps,2022.2.5,Win32,60.1612321,616e239c6264d82a051c5191,64c7fed44a04f777bb1e18ce,64c800e9dfe1dfb8cbb27589,right,1,0.75,0.5,4,-0.025089557,1.0786,40,0,40,0,1,,,,,,,,,,
,,016100,001,2023-07-31_12h55.00.309,arm3_eps,2022.2.5,Win32,60.1612321,616e239c6264d82a051c5191,64c7fed44a04f777bb1e18ce,64c800e9dfe1dfb8cbb27589,right,1,0.75,0.5,4,1.96114E-05,0.3976,41,0,41,0,1,,,,,,,,,,
,,016100,001,2023-07-31_12h55.00.309,arm3_eps,2022.2.5,Win32,60.1612321,616e239c6264d82a051c5191,64c7fed44a04f777bb1e18ce,64c800e9dfe1dfb8cbb27589,right,1,0.75,0.5,4,-0.005966901,0.3625,42,0,42,0,1,,,,,,,,,,
,,016100,001,2023-07-31_12h55.00.309,arm3_eps,2022.2.5,Win32,60.1612321,616e239c6264d82a051c5191,64c7fed44a04f777bb1e18ce,64c800e9dfe1dfb8cbb27589,right,1,0.75,0.5,4,-0.014432128,0.3785,43,0,43,0,1,,,,,,,,,,
,,016100,001,2023-07-31_12h55.00.309,arm3_eps,2022.2.5,Win32,60.1612321,616e239c6264d82a051c5191,64c7fed44a04f777bb1e18ce,64c800e9dfe1dfb8cbb27589,right,1,0.75,0.5,4,0.000403431,0.3999,44,0,44,0,1,,,,,,,,,,
,,016100,001,2023-07-31_12h55.00.309,arm3_eps,2022.2.5,Win32,60.1612321,616e239c6264d82a051c5191,64c7fed44a04f777bb1e18ce,64c800e9dfe1dfb8cbb27589,right,1,0.75,0.5,4,0.010506925,0.4299,45,0,45,0,1,,,,,,,,,,
,,016100,001,2023-07-31_12h55.00.309,arm3_eps,2022.2.5,Win32,60.1612321,616e239c6264d82a051c5191,64c7fed44a04f777bb1e18ce,64c800e9dfe1dfb8cbb27589,right,1,0.75,0.5,4,0.016641022,0.4008,46,0,46,0,1,,,,,,,,,,
,,016100,001,2023-07-31_12h55.00.309,arm3_eps,2022.2.5,Win32,60.1612321,616e239c6264d82a051c5191,64c7fed44a04f777bb1e18ce,64c800e9dfe1dfb8cbb27589,right,1,0.75,0.5,4,0.041757123,0.5243,47,0,47,0,1,,,,,,,,,,
,,016100,001,2023-07-31_12h55.00.309,arm3_eps,2022.2.5,Win32,60.1612321,616e239c6264d82a051c5191,64c7fed44a04f777bb1e18ce,64c800e9dfe1dfb8cbb27589,up,-1,0.75,0.5,5,0,0.368,48,0,48,0,1,,,,,,,,,,
,,016100,001,2023-07-31_12h55.00.309,arm3_eps,2022.2.5,Win32,60.1612321,616e239c6264d82a051c5191,64c7fed44a04f777bb1e18ce,64c800e9dfe1dfb8cbb27589,right,-1,0.75,0.5,5,0.018683452,1.4427,49,0,49,0,1,,,,,,,,,,
space,4.3404,016100,001,2023-07-31_12h55.00.309,arm3_eps,2022.2.5,Win32,60.1612321,616e239c6264d82a051c5191,64c7fed44a04f777bb1e18ce,64c800e9dfe1dfb8cbb27589,,,,,,,,,,,,,,,,,,,,,,
space,4.023,016100,001,2023-07-31_12h55.00.309,arm3_eps,2022.2.5,Win32,60.1612321,616e239c6264d82a051c5191,64c7fed44a04f777bb1e18ce,64c800e9dfe1dfb8cbb27589,right,-1,0.75,0.4357,0,-0.048413479,1.2401,,,,,,0,0,0,0,1,,,,,
,,016100,001,2023-07-31_12h55.00.309,arm3_eps,2022.2.5,Win32,60.1612321,616e239c6264d82a051c5191,64c7fed44a04f777bb1e18ce,64c800e9dfe1dfb8cbb27589,right,-1,0.75,0.4357,0,-0.03933796,0.4352,,,,,,1,0,1,0,1,,,,,
,,016100,001,2023-07-31_12h55.00.309,arm3_eps,2022.2.5,Win32,60.1612321,616e239c6264d82a051c5191,64c7fed44a04f777bb1e18ce,64c800e9dfe1dfb8cbb27589,right,-1,0.75,0.4357,0,-0.033608832,0.4402,,,,,,2,0,2,0,1,,,,,
,,016100,001,2023-07-31_12h55.00.309,arm3_eps,2022.2.5,Win32,60.1612321,616e239c6264d82a051c5191,64c7fed44a04f777bb1e18ce,64c800e9dfe1dfb8cbb27589,right,-1,0.75,0.4357,0,-0.033265741,0.3862,,,,,,3,0,3,0,1,,,,,
,,016100,001,2023-07-31_12h55.00.309,arm3_eps,2022.2.5,Win32,60.1612321,616e239c6264d82a051c5191,64c7fed44a04f777bb1e18ce,64c800e9dfe1dfb8cbb27589,right,-1,0.75,0.4357,0,-0.038004495,0.4136,,,,,,4,0,4,0,1,,,,,
,,016100,001,2023-07-31_12h55.00.309,arm3_eps,2022.2.5,Win32,60.1612321,616e239c6264d82a051c5191,64c7fed44a04f777bb1e18ce,64c800e9dfe1dfb8cbb27589,down,-1,0.75,0.4357,1,0,0.513,,,,,,5,0,5,0,1,,,,,
,,016100,001,2023-07-31_12h55.00.309,arm3_eps,2022.2.5,Win32,60.1612321,616e239c6264d82a051c5191,64c7fed44a04f777bb1e18ce,64c800e9dfe1dfb8cbb27589,right,-1,0.75,0.4357,1,-0.031554632,2.0558,,,,,,6,0,6,0,1,,,,,
,,016100,001,2023-07-31_12h55.00.309,arm3_eps,2022.2.5,Win32,60.1612321,616e239c6264d82a051c5191,64c7fed44a04f777bb1e18ce,64c800e9dfe1dfb8cbb27589,right,-1,0.75,0.4357,1,-0.029256182,1.0805,,,,,,7,0,7,0,1,,,,,
,,016100,001,2023-07-31_12h55.00.309,arm3_eps,2022.2.5,Win32,60.1612321,616e239c6264d82a051c5191,64c7fed44a04f777bb1e18ce,64c800e9dfe1dfb8cbb27589,right,-1,0.75,0.4357,1,-0.022768383,0.9054,,,,,,8,0,8,0,1,,,,,
,,016100,001,2023-07-31_12h55.00.309,arm3_eps,2022.2.5,Win32,60.1612321,616e239c6264d82a051c5191,64c7fed44a04f777bb1e18ce,64c800e9dfe1dfb8cbb27589,right,-1,0.75,0.4357,1,-0.046823475,0.6673,,,,,,9,0,9,0,1,,,,,
,,016100,001,2023-07-31_12h55.00.309,arm3_eps,2022.2.5,Win32,60.1612321,616e239c6264d82a051c5191,64c7fed44a04f777bb1e18ce,64c800e9dfe1dfb8cbb27589,right,-1,0.75,0.4357,1,-0.045229143,0.4228,,,,,,10,0,10,0,1,,,,,
,,016100,001,2023-07-31_12h55.00.309,arm3_eps,2022.2.5,Win32,60.1612321,616e239c6264d82a051c5191,64c7fed44a04f777bb1e18ce,64c800e9dfe1dfb8cbb27589,down,1,0.75,0.4357,1,0,0.7899,,,,,,11,0,11,0,1,,,,,
,,016100,001,2023-07-31_12h55.00.309,arm3_eps,2022.2.5,Win32,60.1612321,616e239c6264d82a051c5191,64c7fed44a04f777bb1e18ce,64c800e9dfe1dfb8cbb27589,right,1,0.75,0.4357,1,-0.021460978,1.3751,,,,,,12,0,12,0,1,,,,,
,,016100,001,2023-07-31_12h55.00.309,arm3_eps,2022.2.5,Win32,60.1612321,616e239c6264d82a051c5191,64c7fed44a04f777bb1e18ce,64c800e9dfe1dfb8cbb27589,right,1,0.75,0.4357,1,-0.011941641,1.2725,,,,,,13,0,13,0,1,,,,,
,,016100,001,2023-07-31_12h55.00.309,arm3_eps,2022.2.5,Win32,60.1612321,616e239c6264d82a051c5191,64c7fed44a04f777bb1e18ce,64c800e9dfe1dfb8cbb27589,right,1,0.75,0.4357,1,-0.033878363,0.5459,,,,,,14,0,14,0,1,,,,,
,,016100,001,2023-07-31_12h55.00.309,arm3_eps,2022.2.5,Win32,60.1612321,616e239c6264d82a051c5191,64c7fed44a04f777bb1e18ce,64c800e9dfe1dfb8cbb27589,right,1,0.75,0.4357,1,-0.002103237,0.4531,,,,,,15,0,15,0,1,,,,,
,,016100,001,2023-07-31_12h55.00.309,arm3_eps,2022.2.5,Win32,60.1612321,616e239c6264d82a051c5191,64c7fed44a04f777bb1e18ce,64c800e9dfe1dfb8cbb27589,right,1,0.75,0.4357,1,0.005335171,0.4312,,,,,,16,0,16,0,1,,,,,
,,016100,001,2023-07-31_12h55.00.309,arm3_eps,2022.2.5,Win32,60.1612321,616e239c6264d82a051c5191,64c7fed44a04f777bb1e18ce,64c800e9dfe1dfb8cbb27589,right,1,0.75,0.4357,1,-0.024179818,0.4134,,,,,,17,0,17,0,1,,,,,
,,016100,001,2023-07-31_12h55.00.309,arm3_eps,2022.2.5,Win32,60.1612321,616e239c6264d82a051c5191,64c7fed44a04f777bb1e18ce,64c800e9dfe1dfb8cbb27589,right,1,0.75,0.4357,1,-0.013621752,0.7472,,,,,,18,0,18,0,1,,,,,
,,016100,001,2023-07-31_12h55.00.309,arm3_eps,2022.2.5,Win32,60.1612321,616e239c6264d82a051c5191,64c7fed44a04f777bb1e18ce,64c800e9dfe1dfb8cbb27589,right,1,0.75,0.4357,1,-0.016372955,0.407,,,,,,19,0,19,0,1,,,,,
,,016100,001,2023-07-31_12h55.00.309,arm3_eps,2022.2.5,Win32,60.1612321,616e239c6264d82a051c5191,64c7fed44a04f777bb1e18ce,64c800e9dfe1dfb8cbb27589,right,1,0.75,0.4357,1,-0.011956388,0.4312,,,,,,20,0,20,0,1,,,,,
,,016100,001,2023-07-31_12h55.00.309,arm3_eps,2022.2.5,Win32,60.1612321,616e239c6264d82a051c5191,64c7fed44a04f777bb1e18ce,64c800e9dfe1dfb8cbb27589,right,1,0.75,0.4357,1,0.001077937,0.4512,,,,,,21,0,21,0,1,,,,,
,,016100,001,2023-07-31_12h55.00.309,arm3_eps,2022.2.5,Win32,60.1612321,616e239c6264d82a051c5191,64c7fed44a04f777bb1e18ce,64c800e9dfe1dfb8cbb27589,right,1,0.75,0.4357,1,-0.008548636,2.594,,,,,,22,0,22,0,1,,,,,
,,016100,001,2023-07-31_12h55.00.309,arm3_eps,2022.2.5,Win32,60.1612321,616e239c6264d82a051c5191,64c7fed44a04f777bb1e18ce,64c800e9dfe1dfb8cbb27589,down,-1,0.75,0.4357,0,0,0.3959,,,,,,23,0,23,0,1,,,,,
,,016100,001,2023-07-31_12h55.00.309,arm3_eps,2022.2.5,Win32,60.1612321,616e239c6264d82a051c5191,64c7fed44a04f777bb1e18ce,64c800e9dfe1dfb8cbb27589,right,-1,0.75,0.4357,0,0.003162906,2.494,,,,,,24,0,24,0,1,,,,,
,,016100,001,2023-07-31_12h55.00.309,arm3_eps,2022.2.5,Win32,60.1612321,616e239c6264d82a051c5191,64c7fed44a04f777bb1e18ce,64c800e9dfe1dfb8cbb27589,right,-1,0.75,0.4357,0,0.012421936,0.3192,,,,,,25,0,25,0,1,,,,,
,,016100,001,2023-07-31_12h55.00.309,arm3_eps,2022.2.5,Win32,60.1612321,616e239c6264d82a051c5191,64c7fed44a04f777bb1e18ce,64c800e9dfe1dfb8cbb27589,right,-1,0.75,0.4357,0,0.020426123,0.4034,,,,,,26,0,26,0,1,,,,,
,,016100,001,2023-07-31_12h55.00.309,arm3_eps,2022.2.5,Win32,60.1612321,616e239c6264d82a051c5191,64c7fed44a04f777bb1e18ce,64c800e9dfe1dfb8cbb27589,right,-1,0.75,0.4357,0,0.003238572,0.5458,,,,,,27,0,27,0,1,,,,,
,,016100,001,2023-07-31_12h55.00.309,arm3_eps,2022.2.5,Win32,60.1612321,616e239c6264d82a051c5191,64c7fed44a04f777bb1e18ce,64c800e9dfe1dfb8cbb27589,right,-1,0.75,0.4357,0,-0.02896299,0.4892,,,,,,28,0,28,0,1,,,,,
,,016100,001,2023-07-31_12h55.00.309,arm3_eps,2022.2.5,Win32,60.1612321,616e239c6264d82a051c5191,64c7fed44a04f777bb1e18ce,64c800e9dfe1dfb8cbb27589,right,-1,0.75,0.4357,0,-0.012009487,0.4557,,,,,,29,0,29,0,1,,,,,
,,016100,001,2023-07-31_12h55.00.309,arm3_eps,2022.2.5,Win32,60.1612321,616e239c6264d82a051c5191,64c7fed44a04f777bb1e18ce,64c800e9dfe1dfb8cbb27589,right,-1,0.75,0.4357,0,-0.049065109,0.6567,,,,,,30,0,30,0,1,,,,,
,,016100,001,2023-07-31_12h55.00.309,arm3_eps,2022.2.5,Win32,60.1612321,616e239c6264d82a051c5191,64c7fed44a04f777bb1e18ce,64c800e9dfe1dfb8cbb27589,down,1,0.75,0.4357,0,0,0.4793,,,,,,31,0,31,0,1,,,,,
,,016100,001,2023-07-31_12h55.00.309,arm3_eps,2022.2.5,Win32,60.1612321,616e239c6264d82a051c5191,64c7fed44a04f777bb1e18ce,64c800e9dfe1dfb8cbb27589,right,1,0.75,0.4357,0,0.002406743,1.5729,,,,,,32,0,32,0,1,,,,,
,,016100,001,2023-07-31_12h55.00.309,arm3_eps,2022.2.5,Win32,60.1612321,616e239c6264d82a051c5191,64c7fed44a04f777bb1e18ce,64c800e9dfe1dfb8cbb27589,right,1,0.75,0.4357,0,-0.012770769,1.0166,,,,,,33,0,33,0,1,,,,,
,,016100,001,2023-07-31_12h55.00.309,arm3_eps,2022.2.5,Win32,60.1612321,616e239c6264d82a051c5191,64c7fed44a04f777bb1e18ce,64c800e9dfe1dfb8cbb27589,right,1,0.75,0.4357,0,-0.031314401,0.4085,,,,,,34,0,34,0,1,,,,,
,,016100,001,2023-07-31_12h55.00.309,arm3_eps,2022.2.5,Win32,60.1612321,616e239c6264d82a051c5191,64c7fed44a04f777bb1e18ce,64c800e9dfe1dfb8cbb27589,right,1,0.75,0.4357,0,-0.052918615,0.3633,,,,,,35,0,35,0,1,,,,,
,,016100,001,2023-07-31_12h55.00.309,arm3_eps,2022.2.5,Win32,60.1612321,616e239c6264d82a051c5191,64c7fed44a04f777bb1e18ce,64c800e9dfe1dfb8cbb27589,right,1,0.75,0.4357,0,-0.028599134,0.5313,,,,,,36,0,36,0,1,,,,,
,,016100,001,2023-07-31_12h55.00.309,arm3_eps,2022.2.5,Win32,60.1612321,616e239c6264d82a051c5191,64c7fed44a04f777bb1e18ce,64c800e9dfe1dfb8cbb27589,right,1,0.75,0.4357,0,-0.021876769,0.3482,,,,,,37,0,37,0,1,,,,,
,,016100,001,2023-07-31_12h55.00.309,arm3_eps,2022.2.5,Win32,60.1612321,616e239c6264d82a051c5191,64c7fed44a04f777bb1e18ce,64c800e9dfe1dfb8cbb27589,right,1,0.75,0.4357,0,-0.009505668,0.4052,,,,,,38,0,38,0,1,,,,,
,,016100,001,2023-07-31_12h55.00.309,arm3_eps,2022.2.5,Win32,60.1612321,616e239c6264d82a051c5191,64c7fed44a04f777bb1e18ce,64c800e9dfe1dfb8cbb27589,right,1,0.75,0.4357,0,-0.015771356,0.3846,,,,,,39,0,39,0,1,,,,,
,,016100,001,2023-07-31_12h55.00.309,arm3_eps,2022.2.5,Win32,60.1612321,616e239c6264d82a051c5191,64c7fed44a04f777bb1e18ce,64c800e9dfe1dfb8cbb27589,right,1,0.75,0.4357,0,0.020977687,0.7162,,,,,,40,0,40,0,1,,,,,
,,016100,001,2023-07-31_12h55.00.309,arm3_eps,2022.2.5,Win32,60.1612321,616e239c6264d82a051c5191,64c7fed44a04f777bb1e18ce,64c800e9dfe1dfb8cbb27589,up,1,0.75,0.4357,1,0,0.9011,,,,,,41,0,41,0,1,,,,,
,,016100,001,2023-07-31_12h55.00.309,arm3_eps,2022.2.5,Win32,60.1612321,616e239c6264d82a051c5191,64c7fed44a04f777bb1e18ce,64c800e9dfe1dfb8cbb27589,right,1,0.75,0.4357,1,0.005437138,2.075,,,,,,42,0,42,0,1,,,,,
,,016100,001,2023-07-31_12h55.00.309,arm3_eps,2022.2.5,Win32,60.1612321,616e239c6264d82a051c5191,64c7fed44a04f777bb1e18ce,64c800e9dfe1dfb8cbb27589,right,1,0.75,0.4357,1,-0.006265917,0.3119,,,,,,43,0,43,0,1,,,,,
,,016100,001,2023-07-31_12h55.00.309,arm3_eps,2022.2.5,Win32,60.1612321,616e239c6264d82a051c5191,64c7fed44a04f777bb1e18ce,64c800e9dfe1dfb8cbb27589,right,1,0.75,0.4357,1,0.017138268,0.2866,,,,,,44,0,44,0,1,,,,,
,,016100,001,2023-07-31_12h55.00.309,arm3_eps,2022.2.5,Win32,60.1612321,616e239c6264d82a051c5191,64c7fed44a04f777bb1e18ce,64c800e9dfe1dfb8cbb27589,right,1,0.75,0.4357,1,0.03866887,0.7135,,,,,,45,0,45,0,1,,,,,
,,016100,001,2023-07-31_12h55.00.309,arm3_eps,2022.2.5,Win32,60.1612321,616e239c6264d82a051c5191,64c7fed44a04f777bb1e18ce,64c800e9dfe1dfb8cbb27589,right,1,0.75,0.4357,1,0.08728128,0.0963,,,,,,46,0,46,0,1,,,,,
,,016100,001,2023-07-31_12h55.00.309,arm3_eps,2022.2.5,Win32,60.1612321,616e239c6264d82a051c5191,64c7fed44a04f777bb1e18ce,64c800e9dfe1dfb8cbb27589,up,1,0.75,0.4357,2,0,0.5463,,,,,,47,0,47,0,1,,,,,
,,016100,001,2023-07-31_12h55.00.309,arm3_eps,2022.2.5,Win32,60.1612321,616e239c6264d82a051c5191,64c7fed44a04f777bb1e18ce,64c800e9dfe1dfb8cbb27589,right,1,0.75,0.4357,2,-0.000493752,2.2914,,,,,,48,0,48,0,1,,,,,
,,016100,001,2023-07-31_12h55.00.309,arm3_eps,2022.2.5,Win32,60.1612321,616e239c6264d82a051c5191,64c7fed44a04f777bb1e18ce,64c800e9dfe1dfb8cbb27589,right,1,0.75,0.4357,2,0.007865357,0.1659,,,,,,49,0,49,0,1,,,,,
,,016100,001,2023-07-31_12h55.00.309,arm3_eps,2022.2.5,Win32,60.1612321,616e239c6264d82a051c5191,64c7fed44a04f777bb1e18ce,64c800e9dfe1dfb8cbb27589,right,1,0.75,0.4357,2,0.023349248,0.4665,,,,,,50,0,50,0,1,,,,,
,,016100,001,2023-07-31_12h55.00.309,arm3_eps,2022.2.5,Win32,60.1612321,616e239c6264d82a051c5191,64c7fed44a04f777bb1e18ce,64c800e9dfe1dfb8cbb27589,right,1,0.75,0.4357,2,0.040406863,0.7006,,,,,,51,0,51,0,1,,,,,
,,016100,001,2023-07-31_12h55.00.309,arm3_eps,2022.2.5,Win32,60.1612321,616e239c6264d82a051c5191,64c7fed44a04f777bb1e18ce,64c800e9dfe1dfb8cbb27589,right,1,0.75,0.4357,2,0.02783728,0.4461,,,,,,52,0,52,0,1,,,,,
,,016100,001,2023-07-31_12h55.00.309,arm3_eps,2022.2.5,Win32,60.1612321,616e239c6264d82a051c5191,64c7fed44a04f777bb1e18ce,64c800e9dfe1dfb8cbb27589,right,1,0.75,0.4357,2,0.067560162,0.3816,,,,,,53,0,53,0,1,,,,,
,,016100,001,2023-07-31_12h55.00.309,arm3_eps,2022.2.5,Win32,60.1612321,616e239c6264d82a051c5191,64c7fed44a04f777bb1e18ce,64c800e9dfe1dfb8cbb27589,right,1,0.75,0.4357,2,0.073162539,0.5037,,,,,,54,0,54,0,1,,,,,
,,016100,001,2023-07-31_12h55.00.309,arm3_eps,2022.2.5,Win32,60.1612321,616e239c6264d82a051c5191,64c7fed44a04f777bb1e18ce,64c800e9dfe1dfb8cbb27589,up,1,0.75,0.4357,2,0,0.617,,,,,,55,0,55,0,1,,,,,
,,016100,001,2023-07-31_12h55.00.309,arm3_eps,2022.2.5,Win32,60.1612321,616e239c6264d82a051c5191,64c7fed44a04f777bb1e18ce,64c800e9dfe1dfb8cbb27589,right,1,0.75,0.4357,2,0.024673564,1.3265,,,,,,56,0,56,0,1,,,,,
,,016100,001,2023-07-31_12h55.00.309,arm3_eps,2022.2.5,Win32,60.1612321,616e239c6264d82a051c5191,64c7fed44a04f777bb1e18ce,64c800e9dfe1dfb8cbb27589,right,1,0.75,0.4357,2,0.035195047,0.7134,,,,,,57,0,57,0,1,,,,,
,,016100,001,2023-07-31_12h55.00.309,arm3_eps,2022.2.5,Win32,60.1612321,616e239c6264d82a051c5191,64c7fed44a04f777bb1e18ce,64c800e9dfe1dfb8cbb27589,right,1,0.75,0.4357,2,0.078979888,0.2833,,,,,,58,0,58,0,1,,,,,
,,016100,001,2023-07-31_12h55.00.309,arm3_eps,2022.2.5,Win32,60.1612321,616e239c6264d82a051c5191,64c7fed44a04f777bb1e18ce,64c800e9dfe1dfb8cbb27589,right,1,0.75,0.4357,2,0.078115813,0.3394,,,,,,59,0,59,0,1,,,,,
,,016100,001,2023-07-31_12h55.00.309,arm3_eps,2022.2.5,Win32,60.1612321,616e239c6264d82a051c5191,64c7fed44a04f777bb1e18ce,64c800e9dfe1dfb8cbb27589,up,1,0.75,0.4357,3,0,0.4534,,,,,,60,0,60,0,1,,,,,
,,016100,001,2023-07-31_12h55.00.309,arm3_eps,2022.2.5,Win32,60.1612321,616e239c6264d82a051c5191,64c7fed44a04f777bb1e18ce,64c800e9dfe1dfb8cbb27589,right,1,0.75,0.4357,3,0.028813433,1.4282,,,,,,61,0,61,0,1,,,,,
,,016100,001,2023-07-31_12h55.00.309,arm3_eps,2022.2.5,Win32,60.1612321,616e239c6264d82a051c5191,64c7fed44a04f777bb1e18ce,64c800e9dfe1dfb8cbb27589,right,1,0.75,0.4357,3,0.019783016,0.4997,,,,,,62,0,62,0,1,,,,,
,,016100,001,2023-07-31_12h55.00.309,arm3_eps,2022.2.5,Win32,60.1612321,616e239c6264d82a051c5191,64c7fed44a04f777bb1e18ce,64c800e9dfe1dfb8cbb27589,right,1,0.75,0.4357,3,0.042177138,0.5957,,,,,,63,0,63,0,1,,,,,
,,016100,001,2023-07-31_12h55.00.309,arm3_eps,2022.2.5,Win32,60.1612321,616e239c6264d82a051c5191,64c7fed44a04f777bb1e18ce,64c800e9dfe1dfb8cbb27589,right,1,0.75,0.4357,3,0.062752814,0.6525,,,,,,64,0,64,0,1,,,,,
,,016100,001,2023-07-31_12h55.00.309,arm3_eps,2022.2.5,Win32,60.1612321,616e239c6264d82a051c5191,64c7fed44a04f777bb1e18ce,64c800e9dfe1dfb8cbb27589,right,1,0.75,0.4357,3,0.064556729,0.3235,,,,,,65,0,65,0,1,,,,,
,,016100,001,2023-07-31_12h55.00.309,arm3_eps,2022.2.5,Win32,60.1612321,616e239c6264d82a051c5191,64c7fed44a04f777bb1e18ce,64c800e9dfe1dfb8cbb27589,right,1,0.75,0.4357,3,0.081454616,0.3632,,,,,,66,0,66,0,1,,,,,
,,016100,001,2023-07-31_12h55.00.309,arm3_eps,2022.2.5,Win32,60.1612321,616e239c6264d82a051c5191,64c7fed44a04f777bb1e18ce,64c800e9dfe1dfb8cbb27589,up,-1,0.75,0.4357,4,0,0.2623,,,,,,67,0,67,0,1,,,,,
,,016100,001,2023-07-31_12h55.00.309,arm3_eps,2022.2.5,Win32,60.1612321,616e239c6264d82a051c5191,64c7fed44a04f777bb1e18ce,64c800e9dfe1dfb8cbb27589,right,-1,0.75,0.4357,4,0.032373302,0.9237,,,,,,68,0,68,0,1,,,,,
,,016100,001,2023-07-31_12h55.00.309,arm3_eps,2022.2.5,Win32,60.1612321,616e239c6264d82a051c5191,64c7fed44a04f777bb1e18ce,64c800e9dfe1dfb8cbb27589,right,-1,0.75,0.4357,4,0.042051136,0.4128,,,,,,69,0,69,0,1,,,,,
,,016100,001,2023-07-31_12h55.00.309,arm3_eps,2022.2.5,Win32,60.1612321,616e239c6264d82a051c5191,64c7fed44a04f777bb1e18ce,64c800e9dfe1dfb8cbb27589,right,-1,0.75,0.4357,4,0.02723113,0.1886,,,,,,70,0,70,0,1,,,,,
,,016100,001,2023-07-31_12h55.00.309,arm3_eps,2022.2.5,Win32,60.1612321,616e239c6264d82a051c5191,64c7fed44a04f777bb1e18ce,64c800e9dfe1dfb8cbb27589,right,-1,0.75,0.4357,4,0.003792466,0.2046,,,,,,71,0,71,0,1,,,,,
,,016100,001,2023-07-31_12h55.00.309,arm3_eps,2022.2.5,Win32,60.1612321,616e239c6264d82a051c5191,64c7fed44a04f777bb1e18ce,64c800e9dfe1dfb8cbb27589,right,-1,0.75,0.4357,4,0.015670842,0.4361,,,,,,72,0,72,0,1,,,,,
,,016100,001,2023-07-31_12h55.00.309,arm3_eps,2022.2.5,Win32,60.1612321,616e239c6264d82a051c5191,64c7fed44a04f777bb1e18ce,64c800e9dfe1dfb8cbb27589,right,-1,0.75,0.4357,4,0.046747161,0.1627,,,,,,73,0,73,0,1,,,,,
,,016100,001,2023-07-31_12h55.00.309,arm3_eps,2022.2.5,Win32,60.1612321,616e239c6264d82a051c5191,64c7fed44a04f777bb1e18ce,64c800e9dfe1dfb8cbb27589,right,-1,0.75,0.4357,4,0.057676434,0.1463,,,,,,74,0,74,0,1,,,,,
,,016100,001,2023-07-31_12h55.00.309,arm3_eps,2022.2.5,Win32,60.1612321,616e239c6264d82a051c5191,64c7fed44a04f777bb1e18ce,64c800e9dfe1dfb8cbb27589,right,-1,0.75,0.4357,4,0.051819503,0.7557,,,,,,75,0,75,0,1,,,,,
,,016100,001,2023-07-31_12h55.00.309,arm3_eps,2022.2.5,Win32,60.1612321,616e239c6264d82a051c5191,64c7fed44a04f777bb1e18ce,64c800e9dfe1dfb8cbb27589,right,-1,0.75,0.4357,4,0.037095735,0.3985,,,,,,76,0,76,0,1,,,,,
,,016100,001,2023-07-31_12h55.00.309,arm3_eps,2022.2.5,Win32,60.1612321,616e239c6264d82a051c5191,64c7fed44a04f777bb1e18ce,64c800e9dfe1dfb8cbb27589,right,-1,0.75,0.4357,4,0.041233455,0.3296,,,,,,77,0,77,0,1,,,,,
,,016100,001,2023-07-31_12h55.00.309,arm3_eps,2022.2.5,Win32,60.1612321,616e239c6264d82a051c5191,64c7fed44a04f777bb1e18ce,64c800e9dfe1dfb8cbb27589,up,1,0.75,0.4357,3,0,0.3305,,,,,,78,0,78,0,1,,,,,
,,016100,001,2023-07-31_12h55.00.309,arm3_eps,2022.2.5,Win32,60.1612321,616e239c6264d82a051c5191,64c7fed44a04f777bb1e18ce,64c800e9dfe1dfb8cbb27589,right,1,0.75,0.4357,3,0.036080421,2.7207,,,,,,79,0,79,0,1,,,,,
,,016100,001,2023-07-31_12h55.00.309,arm3_eps,2022.2.5,Win32,60.1612321,616e239c6264d82a051c5191,64c7fed44a04f777bb1e18ce,64c800e9dfe1dfb8cbb27589,right,1,0.75,0.4357,3,0.047322289,0.1468,,,,,,80,0,80,0,1,,,,,
,,016100,001,2023-07-31_12h55.00.309,arm3_eps,2022.2.5,Win32,60.1612321,616e239c6264d82a051c5191,64c7fed44a04f777bb1e18ce,64c800e9dfe1dfb8cbb27589,right,1,0.75,0.4357,3,0.036863597,0.1561,,,,,,81,0,81,0,1,,,,,
,,016100,001,2023-07-31_12h55.00.309,arm3_eps,2022.2.5,Win32,60.1612321,616e239c6264d82a051c5191,64c7fed44a04f777bb1e18ce,64c800e9dfe1dfb8cbb27589,right,1,0.75,0.4357,3,0.051610517,0.3986,,,,,,82,0,82,0,1,,,,,
,,016100,001,2023-07-31_12h55.00.309,arm3_eps,2022.2.5,Win32,60.1612321,616e239c6264d82a051c5191,64c7fed44a04f777bb1e18ce,64c800e9dfe1dfb8cbb27589,right,1,0.75,0.4357,3,0.038737447,0.4358,,,,,,83,0,83,0,1,,,,,
,,016100,001,2023-07-31_12h55.00.309,arm3_eps,2022.2.5,Win32,60.1612321,616e239c6264d82a051c5191,64c7fed44a04f777bb1e18ce,64c800e9dfe1dfb8cbb27589,right,1,0.75,0.4357,3,0.046081122,0.1486,,,,,,84,0,84,0,1,,,,,
,,016100,001,2023-07-31_12h55.00.309,arm3_eps,2022.2.5,Win32,60.1612321,616e239c6264d82a051c5191,64c7fed44a04f777bb1e18ce,64c800e9dfe1dfb8cbb27589,right,1,0.75,0.4357,3,0.089076752,0.7005,,,,,,85,0,85,0,1,,,,,
,,016100,001,2023-07-31_12h55.00.309,arm3_eps,2022.2.5,Win32,60.1612321,616e239c6264d82a051c5191,64c7fed44a04f777bb1e18ce,64c800e9dfe1dfb8cbb27589,up,1,0.75,0.4357,4,0,0.4625,,,,,,86,0,86,0,1,,,,,
,,016100,001,2023-07-31_12h55.00.309,arm3_eps,2022.2.5,Win32,60.1612321,616e239c6264d82a051c5191,64c7fed44a04f777bb1e18ce,64c800e9dfe1dfb8cbb27589,right,1,0.75,0.4357,4,0.006162872,1.3773,,,,,,87,0,87,0,1,,,,,
,,016100,001,2023-07-31_12h55.00.309,arm3_eps,2022.2.5,Win32,60.1612321,616e239c6264d82a051c5191,64c7fed44a04f777bb1e18ce,64c800e9dfe1dfb8cbb27589,right,1,0.75,0.4357,4,-0.010030679,0.1488,,,,,,88,0,88,0,1,,,,,
,,016100,001,2023-07-31_12h55.00.309,arm3_eps,2022.2.5,Win32,60.1612321,616e239c6264d82a051c5191,64c7fed44a04f777bb1e18ce,64c800e9dfe1dfb8cbb27589,right,1,0.75,0.4357,4,0.022665541,0.1379,,,,,,89,0,89,0,1,,,,,
,,016100,001,2023-07-31_12h55.00.309,arm3_eps,2022.2.5,Win32,60.1612321,616e239c6264d82a051c5191,64c7fed44a04f777bb1e18ce,64c800e9dfe1dfb8cbb27589,right,1,0.75,0.4357,4,0.007776963,0.739,,,,,,90,0,90,0,1,,,,,
,,016100,001,2023-07-31_12h55.00.309,arm3_eps,2022.2.5,Win32,60.1612321,616e239c6264d82a051c5191,64c7fed44a04f777bb1e18ce,64c800e9dfe1dfb8cbb27589,right,1,0.75,0.4357,4,-0.002183257,0.3823,,,,,,91,0,91,0,1,,,,,
,,016100,001,2023-07-31_12h55.00.309,arm3_eps,2022.2.5,Win32,60.1612321,616e239c6264d82a051c5191,64c7fed44a04f777bb1e18ce,64c800e9dfe1dfb8cbb27589,right,1,0.75,0.4357,4,-0.027176875,0.4803,,,,,,92,0,92,0,1,,,,,
,,016100,001,2023-07-31_12h55.00.309,arm3_eps,2022.2.5,Win32,60.1612321,616e239c6264d82a051c5191,64c7fed44a04f777bb1e18ce,64c800e9dfe1dfb8cbb27589,right,1,0.75,0.4357,4,0.002749364,0.355,,,,,,93,0,93,0,1,,,,,
,,016100,001,2023-07-31_12h55.00.309,arm3_eps,2022.2.5,Win32,60.1612321,616e239c6264d82a051c5191,64c7fed44a04f777bb1e18ce,64c800e9dfe1dfb8cbb27589,right,1,0.75,0.4357,4,0.019494818,0.4051,,,,,,94,0,94,0,1,,,,,
,,016100,001,2023-07-31_12h55.00.309,arm3_eps,2022.2.5,Win32,60.1612321,616e239c6264d82a051c5191,64c7fed44a04f777bb1e18ce,64c800e9dfe1dfb8cbb27589,right,1,0.75,0.4357,4,0.048451697,0.4525,,,,,,95,0,95,0,1,,,,,
,,016100,001,2023-07-31_12h55.00.309,arm3_eps,2022.2.5,Win32,60.1612321,616e239c6264d82a051c5191,64c7fed44a04f777bb1e18ce,64c800e9dfe1dfb8cbb27589,right,1,0.75,0.4357,4,0.044159584,0.5475,,,,,,96,0,96,0,1,,,,,
,,016100,001,2023-07-31_12h55.00.309,arm3_eps,2022.2.5,Win32,60.1612321,616e239c6264d82a051c5191,64c7fed44a04f777bb1e18ce,64c800e9dfe1dfb8cbb27589,up,1,0.75,0.4357,5,0,0.7794,,,,,,97,0,97,0,1,,,,,
,,016100,001,2023-07-31_12h55.00.309,arm3_eps,2022.2.5,Win32,60.1612321,616e239c6264d82a051c5191,64c7fed44a04f777bb1e18ce,64c800e9dfe1dfb8cbb27589,right,1,0.75,0.4357,5,0.010738615,0.9189,,,,,,98,0,98,0,1,,,,,
,,016100,001,2023-07-31_12h55.00.309,arm3_eps,2022.2.5,Win32,60.1612321,616e239c6264d82a051c5191,64c7fed44a04f777bb1e18ce,64c800e9dfe1dfb8cbb27589,right,1,0.75,0.4357,5,0.037552832,0.1683,,,,,,99,0,99,0,1,,,,,
,,016100,001,2023-07-31_12h55.00.309,arm3_eps,2022.2.5,Win32,60.1612321,616e239c6264d82a051c5191,64c7fed44a04f777bb1e18ce,64c800e9dfe1dfb8cbb27589,right,1,0.75,0.4357,5,0.051638022,0.1462,,,,,,100,0,100,0,1,,,,,
,,016100,001,2023-07-31_12h55.00.309,arm3_eps,2022.2.5,Win32,60.1612321,616e239c6264d82a051c5191,64c7fed44a04f777bb1e18ce,64c800e9dfe1dfb8cbb27589,right,1,0.75,0.4357,5,0.046772243,1.5381,,,,,,101,0,101,0,1,,,,,
,,016100,001,2023-07-31_12h55.00.309,arm3_eps,2022.2.5,Win32,60.1612321,616e239c6264d82a051c5191,64c7fed44a04f777bb1e18ce,64c800e9dfe1dfb8cbb27589,right,1,0.75,0.4357,5,0.052285668,0.1641,,,,,,102,0,102,0,1,,,,,
,,016100,001,2023-07-31_12h55.00.309,arm3_eps,2022.2.5,Win32,60.1612321,616e239c6264d82a051c5191,64c7fed44a04f777bb1e18ce,64c800e9dfe1dfb8cbb27589,right,1,0.75,0.4357,5,0.09762813,0.1466,,,,,,103,0,103,0,1,,,,,
,,016100,001,2023-07-31_12h55.00.309,arm3_eps,2022.2.5,Win32,60.1612321,616e239c6264d82a051c5191,64c7fed44a04f777bb1e18ce,64c800e9dfe1dfb8cbb27589,right,1,0.75,0.4357,5,0.074288111,0.1748,,,,,,104,0,104,0,1,,,,,
,,016100,001,2023-07-31_12h55.00.309,arm3_eps,2022.2.5,Win32,60.1612321,616e239c6264d82a051c5191,64c7fed44a04f777bb1e18ce,64c800e9dfe1dfb8cbb27589,right,1,0.75,0.4357,5,0.062801555,0.3475,,,,,,105,0,105,0,1,,,,,
,,016100,001,2023-07-31_12h55.00.309,arm3_eps,2022.2.5,Win32,60.1612321,616e239c6264d82a051c5191,64c7fed44a04f777bb1e18ce,64c800e9dfe1dfb8cbb27589,right,1,0.75,0.4357,5,0.079435859,0.4154,,,,,,106,0,106,0,1,,,,,
,,016100,001,2023-07-31_12h55.00.309,arm3_eps,2022.2.5,Win32,60.1612321,616e239c6264d82a051c5191,64c7fed44a04f777bb1e18ce,64c800e9dfe1dfb8cbb27589,up,-1,0.75,0.4357,6,0,0.3137,,,,,,107,0,107,0,1,,,,,
,,016100,001,2023-07-31_12h55.00.309,arm3_eps,2022.2.5,Win32,60.1612321,616e239c6264d82a051c5191,64c7fed44a04f777bb1e18ce,64c800e9dfe1dfb8cbb27589,right,-1,0.75,0.4357,6,-0.002350962,0.8783,,,,,,108,0,108,0,1,,,,,
,,016100,001,2023-07-31_12h55.00.309,arm3_eps,2022.2.5,Win32,60.1612321,616e239c6264d82a051c5191,64c7fed44a04f777bb1e18ce,64c800e9dfe1dfb8cbb27589,right,-1,0.75,0.4357,6,-0.0474966,0.1627,,,,,,109,0,109,0,1,,,,,
,,016100,001,2023-07-31_12h55.00.309,arm3_eps,2022.2.5,Win32,60.1612321,616e239c6264d82a051c5191,64c7fed44a04f777bb1e18ce,64c800e9dfe1dfb8cbb27589,right,-1,0.75,0.4357,6,-0.032896295,0.1471,,,,,,110,0,110,0,1,,,,,
,,016100,001,2023-07-31_12h55.00.309,arm3_eps,2022.2.5,Win32,60.1612321,616e239c6264d82a051c5191,64c7fed44a04f777bb1e18ce,64c800e9dfe1dfb8cbb27589,right,-1,0.75,0.4357,6,-0.054397801,0.3179,,,,,,111,0,111,0,1,,,,,
,,016100,001,2023-07-31_12h55.00.309,arm3_eps,2022.2.5,Win32,60.1612321,616e239c6264d82a051c5191,64c7fed44a04f777bb1e18ce,64c800e9dfe1dfb8cbb27589,right,-1,0.75,0.4357,6,-0.042973313,0.1573,,,,,,112,0,112,0,1,,,,,
,,016100,001,2023-07-31_12h55.00.309,arm3_eps,2022.2.5,Win32,60.1612321,616e239c6264d82a051c5191,64c7fed44a04f777bb1e18ce,64c800e9dfe1dfb8cbb27589,right,-1,0.75,0.4357,6,-0.058816778,0.3889,,,,,,113,0,113,0,1,,,,,
,,016100,001,2023-07-31_12h55.00.309,arm3_eps,2022.2.5,Win32,60.1612321,616e239c6264d82a051c5191,64c7fed44a04f777bb1e18ce,64c800e9dfe1dfb8cbb27589,right,-1,0.75,0.4357,6,-0.050693078,1.3848,,,,,,114,0,114,0,1,,,,,
,,016100,001,2023-07-31_12h55.00.309,arm3_eps,2022.2.5,Win32,60.1612321,616e239c6264d82a051c5191,64c7fed44a04f777bb1e18ce,64c800e9dfe1dfb8cbb27589,down,1,0.75,0.4357,7,0,0.4693,,,,,,115,0,115,0,1,,,,,
,,016100,001,2023-07-31_12h55.00.309,arm3_eps,2022.2.5,Win32,60.1612321,616e239c6264d82a051c5191,64c7fed44a04f777bb1e18ce,64c800e9dfe1dfb8cbb27589,right,1,0.75,0.4357,7,-0.011412798,0.936,,,,,,116,0,116,0,1,,,,,
,,016100,001,2023-07-31_12h55.00.309,arm3_eps,2022.2.5,Win32,60.1612321,616e239c6264d82a051c5191,64c7fed44a04f777bb1e18ce,64c800e9dfe1dfb8cbb27589,right,1,0.75,0.4357,7,-0.03086491,0.1502,,,,,,117,0,117,0,1,,,,,
,,016100,001,2023-07-31_12h55.00.309,arm3_eps,2022.2.5,Win32,60.1612321,616e239c6264d82a051c5191,64c7fed44a04f777bb1e18ce,64c800e9dfe1dfb8cbb27589,right,1,0.75,0.4357,7,-0.025364548,0.1524,,,,,,118,0,118,0,1,,,,,
,,016100,001,2023-07-31_12h55.00.309,arm3_eps,2022.2.5,Win32,60.1612321,616e239c6264d82a051c5191,64c7fed44a04f777bb1e18ce,64c800e9dfe1dfb8cbb27589,right,1,0.75,0.4357,7,-0.009586936,0.2041,,,,,,119,0,119,0,1,,,,,
,,016100,001,2023-07-31_12h55.00.309,arm3_eps,2022.2.5,Win32,60.1612321,616e239c6264d82a051c5191,64c7fed44a04f777bb1e18ce,64c800e9dfe1dfb8cbb27589,right,1,0.75,0.4357,7,0.002083713,0.4028,,,,,,120,0,120,0,1,,,,,
,,016100,001,2023-07-31_12h55.00.309,arm3_eps,2022.2.5,Win32,60.1612321,616e239c6264d82a051c5191,64c7fed44a04f777bb1e18ce,64c800e9dfe1dfb8cbb27589,right,1,0.75,0.4357,7,-0.014829547,0.1631,,,,,,121,0,121,0,1,,,,,
,,016100,001,2023-07-31_12h55.00.309,arm3_eps,2022.2.5,Win32,60.1612321,616e239c6264d82a051c5191,64c7fed44a04f777bb1e18ce,64c800e9dfe1dfb8cbb27589,right,1,0.75,0.4357,7,-0.001360802,0.1548,,,,,,122,0,122,0,1,,,,,
,,016100,001,2023-07-31_12h55.00.309,arm3_eps,2022.2.5,Win32,60.1612321,616e239c6264d82a051c5191,64c7fed44a04f777bb1e18ce,64c800e9dfe1dfb8cbb27589,right,1,0.75,0.4357,7,-0.005814342,0.3808,,,,,,123,0,123,0,1,,,,,
,,016100,001,2023-07-31_12h55.00.309,arm3_eps,2022.2.5,Win32,60.1612321,616e239c6264d82a051c5191,64c7fed44a04f777bb1e18ce,64c800e9dfe1dfb8cbb27589,right,1,0.75,0.4357,7,-0.016602396,0.2851,,,,,,124,0,124,0,1,,,,,
,,016100,001,2023-07-31_12h55.00.309,arm3_eps,2022.2.5,Win32,60.1612321,616e239c6264d82a051c5191,64c7fed44a04f777bb1e18ce,64c800e9dfe1dfb8cbb27589,right,1,0.75,0.4357,7,-0.015045246,0.305,,,,,,125,0,125,0,1,,,,,
,,016100,001,2023-07-31_12h55.00.309,arm3_eps,2022.2.5,Win32,60.1612321,616e239c6264d82a051c5191,64c7fed44a04f777bb1e18ce,64c800e9dfe1dfb8cbb27589,right,1,0.75,0.4357,7,0.006823968,0.5977,,,,,,126,0,126,0,1,,,,,
,,016100,001,2023-07-31_12h55.00.309,arm3_eps,2022.2.5,Win32,60.1612321,616e239c6264d82a051c5191,64c7fed44a04f777bb1e18ce,64c800e9dfe1dfb8cbb27589,right,1,0.75,0.4357,7,-0.000588008,1.1617,,,,,,127,0,127,0,1,,,,,
,,016100,001,2023-07-31_12h55.00.309,arm3_eps,2022.2.5,Win32,60.1612321,616e239c6264d82a051c5191,64c7fed44a04f777bb1e18ce,64c800e9dfe1dfb8cbb27589,up,1,0.75,0.4357,8,0,1.1831,,,,,,128,0,128,0,1,,,,,
,,016100,001,2023-07-31_12h55.00.309,arm3_eps,2022.2.5,Win32,60.1612321,616e239c6264d82a051c5191,64c7fed44a04f777bb1e18ce,64c800e9dfe1dfb8cbb27589,right,1,0.75,0.4357,8,0.014621163,2.3642,,,,,,129,0,129,0,1,,,,,
,,016100,001,2023-07-31_12h55.00.309,arm3_eps,2022.2.5,Win32,60.1612321,616e239c6264d82a051c5191,64c7fed44a04f777bb1e18ce,64c800e9dfe1dfb8cbb27589,right,1,0.75,0.4357,8,0.019836872,0.1627,,,,,,130,0,130,0,1,,,,,
,,016100,001,2023-07-31_12h55.00.309,arm3_eps,2022.2.5,Win32,60.1612321,616e239c6264d82a051c5191,64c7fed44a04f777bb1e18ce,64c800e9dfe1dfb8cbb27589,right,1,0.75,0.4357,8,-0.003168951,0.1518,,,,,,131,0,131,0,1,,,,,
,,016100,001,2023-07-31_12h55.00.309,arm3_eps,2022.2.5,Win32,60.1612321,616e239c6264d82a051c5191,64c7fed44a04f777bb1e18ce,64c800e9dfe1dfb8cbb27589,right,1,0.75,0.4357,8,0.005450481,0.1467,,,,,,132,0,132,0,1,,,,,
,,016100,001,2023-07-31_12h55.00.309,arm3_eps,2022.2.5,Win32,60.1612321,616e239c6264d82a051c5191,64c7fed44a04f777bb1e18ce,64c800e9dfe1dfb8cbb27589,right,1,0.75,0.4357,8,0.009590167,0.4143,,,,,,133,0,133,0,1,,,,,
,,016100,001,2023-07-31_12h55.00.309,arm3_eps,2022.2.5,Win32,60.1612321,616e239c6264d82a051c5191,64c7fed44a04f777bb1e18ce,64c800e9dfe1dfb8cbb27589,right,1,0.75,0.4357,8,0.02371769,0.1421,,,,,,134,0,134,0,1,,,,,
,,016100,001,2023-07-31_12h55.00.309,arm3_eps,2022.2.5,Win32,60.1612321,616e239c6264d82a051c5191,64c7fed44a04f777bb1e18ce,64c800e9dfe1dfb8cbb27589,right,1,0.75,0.4357,8,0.052638022,0.1462,,,,,,135,0,135,0,1,,,,,
,,016100,001,2023-07-31_12h55.00.309,arm3_eps,2022.2.5,Win32,60.1612321,616e239c6264d82a051c5191,64c7fed44a04f777bb1e18ce,64c800e9dfe1dfb8cbb27589,right,1,0.75,0.4357,8,0.056826077,1.0138,,,,,,136,0,136,0,1,,,,,
,,016100,001,2023-07-31_12h55.00.309,arm3_eps,2022.2.5,Win32,60.1612321,616e239c6264d82a051c5191,64c7fed44a04f777bb1e18ce,64c800e9dfe1dfb8cbb27589,right,1,0.75,0.4357,8,0.062612239,0.1378,,,,,,137,0,137,0,1,,,,,
,,016100,001,2023-07-31_12h55.00.309,arm3_eps,2022.2.5,Win32,60.1612321,616e239c6264d82a051c5191,64c7fed44a04f777bb1e18ce,64c800e9dfe1dfb8cbb27589,right,1,0.75,0.4357,8,0.072841687,0.4461,,,,,,138,0,138,0,1,,,,,
,,016100,001,2023-07-31_12h55.00.309,arm3_eps,2022.2.5,Win32,60.1612321,616e239c6264d82a051c5191,64c7fed44a04f777bb1e18ce,64c800e9dfe1dfb8cbb27589,up,-1,0.75,0.4357,8,0,0.3854,,,,,,139,0,139,0,1,,,,,
,,016100,001,2023-07-31_12h55.00.309,arm3_eps,2022.2.5,Win32,60.1612321,616e239c6264d82a051c5191,64c7fed44a04f777bb1e18ce,64c800e9dfe1dfb8cbb27589,right,-1,0.75,0.4357,8,-0.032395273,1.0112,,,,,,140,0,140,0,1,,,,,
,,016100,001,2023-07-31_12h55.00.309,arm3_eps,2022.2.5,Win32,60.1612321,616e239c6264d82a051c5191,64c7fed44a04f777bb1e18ce,64c800e9dfe1dfb8cbb27589,right,-1,0.75,0.4357,8,-0.058460286,0.1518,,,,,,141,0,141,0,1,,,,,
,,016100,001,2023-07-31_12h55.00.309,arm3_eps,2022.2.5,Win32,60.1612321,616e239c6264d82a051c5191,64c7fed44a04f777bb1e18ce,64c800e9dfe1dfb8cbb27589,right,-1,0.75,0.4357,8,-0.079171268,0.1548,,,,,,142,0,142,0,1,,,,,
,,016100,001,2023-07-31_12h55.00.309,arm3_eps,2022.2.5,Win32,60.1612321,616e239c6264d82a051c5191,64c7fed44a04f777bb1e18ce,64c800e9dfe1dfb8cbb27589,right,-1,0.75,0.4357,8,-0.14504491,0.1497,,,,,,143,0,143,0,1,,,,,
,,016100,001,2023-07-31_12h55.00.309,arm3_eps,2022.2.5,Win32,60.1612321,616e239c6264d82a051c5191,64c7fed44a04f777bb1e18ce,64c800e9dfe1dfb8cbb27589,down,1,0.75,0.4357,9,0,0.2525,,,,,,144,0,144,0,1,,,,,
,,016100,001,2023-07-31_12h55.00.309,arm3_eps,2022.2.5,Win32,60.1612321,616e239c6264d82a051c5191,64c7fed44a04f777bb1e18ce,64c800e9dfe1dfb8cbb27589,right,1,0.75,0.4357,9,0.015031158,0.9665,,,,,,145,0,145,0,1,,,,,
,,016100,001,2023-07-31_12h55.00.309,arm3_eps,2022.2.5,Win32,60.1612321,616e239c6264d82a051c5191,64c7fed44a04f777bb1e18ce,64c800e9dfe1dfb8cbb27589,right,1,0.75,0.4357,9,0.027233976,0.313,,,,,,146,0,146,0,1,,,,,
,,016100,001,2023-07-31_12h55.00.309,arm3_eps,2022.2.5,Win32,60.1612321,616e239c6264d82a051c5191,64c7fed44a04f777bb1e18ce,64c800e9dfe1dfb8cbb27589,right,1,0.75,0.4357,9,0.068227732,0.4384,,,,,,147,0,147,0,1,,,,,
,,016100,001,2023-07-31_12h55.00.309,arm3_eps,2022.2.5,Win32,60.1612321,616e239c6264d82a051c5191,64c7fed44a04f777bb1e18ce,64c800e9dfe1dfb8cbb27589,up,-1,0.75,0.4357,10,0,0.4024,,,,,,148,0,148,0,1,,,,,
,,016100,001,2023-07-31_12h55.00.309,arm3_eps,2022.2.5,Win32,60.1612321,616e239c6264d82a051c5191,64c7fed44a04f777bb1e18ce,64c800e9dfe1dfb8cbb27589,right,-1,0.75,0.4357,10,0.002323265,1.3777,,,,,,149,0,149,0,1,,,,,
,,016100,001,2023-07-31_12h55.00.309,arm3_eps,2022.2.5,Win32,60.1612321,616e239c6264d82a051c5191,64c7fed44a04f777bb1e18ce,64c800e9dfe1dfb8cbb27589,right,-1,0.75,0.4357,10,-0.007677032,0.2519,,,,,,150,0,150,0,1,,,,,
,,016100,001,2023-07-31_12h55.00.309,arm3_eps,2022.2.5,Win32,60.1612321,616e239c6264d82a051c5191,64c7fed44a04f777bb1e18ce,64c800e9dfe1dfb8cbb27589,right,-1,0.75,0.4357,10,0.019514941,0.535,,,,,,151,0,151,0,1,,,,,
,,016100,001,2023-07-31_12h55.00.309,arm3_eps,2022.2.5,Win32,60.1612321,616e239c6264d82a051c5191,64c7fed44a04f777bb1e18ce,64c800e9dfe1dfb8cbb27589,right,-1,0.75,0.4357,10,0.012017332,0.1976,,,,,,152,0,152,0,1,,,,,
,,016100,001,2023-07-31_12h55.00.309,arm3_eps,2022.2.5,Win32,60.1612321,616e239c6264d82a051c5191,64c7fed44a04f777bb1e18ce,64c800e9dfe1dfb8cbb27589,right,-1,0.75,0.4357,10,0.047009011,0.1677,,,,,,153,0,153,0,1,,,,,
,,016100,001,2023-07-31_12h55.00.309,arm3_eps,2022.2.5,Win32,60.1612321,616e239c6264d82a051c5191,64c7fed44a04f777bb1e18ce,64c800e9dfe1dfb8cbb27589,right,-1,0.75,0.4357,10,0.062035631,0.1746,,,,,,154,0,154,0,1,,,,,
,,016100,001,2023-07-31_12h55.00.309,arm3_eps,2022.2.5,Win32,60.1612321,616e239c6264d82a051c5191,64c7fed44a04f777bb1e18ce,64c800e9dfe1dfb8cbb27589,right,-1,0.75,0.4357,10,0.045358426,0.1754,,,,,,155,0,155,0,1,,,,,
,,016100,001,2023-07-31_12h55.00.309,arm3_eps,2022.2.5,Win32,60.1612321,616e239c6264d82a051c5191,64c7fed44a04f777bb1e18ce,64c800e9dfe1dfb8cbb27589,right,-1,0.75,0.4357,10,0.029520826,0.346,,,,,,156,0,156,0,1,,,,,
,,016100,001,2023-07-31_12h55.00.309,arm3_eps,2022.2.5,Win32,60.1612321,616e239c6264d82a051c5191,64c7fed44a04f777bb1e18ce,64c800e9dfe1dfb8cbb27589,right,-1,0.75,0.4357,10,-0.000230424,0.1564,,,,,,157,0,157,0,1,,,,,
,,016100,001,2023-07-31_12h55.00.309,arm3_eps,2022.2.5,Win32,60.1612321,616e239c6264d82a051c5191,64c7fed44a04f777bb1e18ce,64c800e9dfe1dfb8cbb27589,right,-1,0.75,0.4357,10,0.01041758,0.1735,,,,,,158,0,158,0,1,,,,,
,,016100,001,2023-07-31_12h55.00.309,arm3_eps,2022.2.5,Win32,60.1612321,616e239c6264d82a051c5191,64c7fed44a04f777bb1e18ce,64c800e9dfe1dfb8cbb27589,right,-1,0.75,0.4357,10,0.018993802,0.4133,,,,,,159,0,159,0,1,,,,,
,,016100,001,2023-07-31_12h55.00.309,arm3_eps,2022.2.5,Win32,60.1612321,616e239c6264d82a051c5191,64c7fed44a04f777bb1e18ce,64c800e9dfe1dfb8cbb27589,right,-1,0.75,0.4357,10,-0.007939045,0.4976,,,,,,160,0,160,0,1,,,,,
,,016100,001,2023-07-31_12h55.00.309,arm3_eps,2022.2.5,Win32,60.1612321,616e239c6264d82a051c5191,64c7fed44a04f777bb1e18ce,64c800e9dfe1dfb8cbb27589,down,-1,0.75,0.4357,11,0,0.5635,,,,,,161,0,161,0,1,,,,,
,,016100,001,2023-07-31_12h55.00.309,arm3_eps,2022.2.5,Win32,60.1612321,616e239c6264d82a051c5191,64c7fed44a04f777bb1e18ce,64c800e9dfe1dfb8cbb27589,right,-1,0.75,0.4357,11,0.001975455,1.6099,,,,,,162,0,162,0,1,,,,,
,,016100,001,2023-07-31_12h55.00.309,arm3_eps,2022.2.5,Win32,60.1612321,616e239c6264d82a051c5191,64c7fed44a04f777bb1e18ce,64c800e9dfe1dfb8cbb27589,right,-1,0.75,0.4357,11,-0.00156765,0.1684,,,,,,163,0,163,0,1,,,,,
,,016100,001,2023-07-31_12h55.00.309,arm3_eps,2022.2.5,Win32,60.1612321,616e239c6264d82a051c5191,64c7fed44a04f777bb1e18ce,64c800e9dfe1dfb8cbb27589,right,-1,0.75,0.4357,11,-0.047244187,0.1571,,,,,,164,0,164,0,1,,,,,
,,016100,001,2023-07-31_12h55.00.309,arm3_eps,2022.2.5,Win32,60.1612321,616e239c6264d82a051c5191,64c7fed44a04f777bb1e18ce,64c800e9dfe1dfb8cbb27589,right,-1,0.75,0.4357,11,-0.014996655,0.5975,,,,,,165,0,165,0,1,,,,,
,,016100,001,2023-07-31_12h55.00.309,arm3_eps,2022.2.5,Win32,60.1612321,616e239c6264d82a051c5191,64c7fed44a04f777bb1e18ce,64c800e9dfe1dfb8cbb27589,right,-1,0.75,0.4357,11,-0.016393307,0.1809,,,,,,166,0,166,0,1,,,,,
,,016100,001,2023-07-31_12h55.00.309,arm3_eps,2022.2.5,Win32,60.1612321,616e239c6264d82a051c5191,64c7fed44a04f777bb1e18ce,64c800e9dfe1dfb8cbb27589,right,-1,0.75,0.4357,11,-0.033401579,0.1542,,,,,,167,0,167,0,1,,,,,
,,016100,001,2023-07-31_12h55.00.309,arm3_eps,2022.2.5,Win32,60.1612321,616e239c6264d82a051c5191,64c7fed44a04f777bb1e18ce,64c800e9dfe1dfb8cbb27589,right,-1,0.75,0.4357,11,-0.057231206,0.3808,,,,,,168,0,168,0,1,,,,,
,,016100,001,2023-07-31_12h55.00.309,arm3_eps,2022.2.5,Win32,60.1612321,616e239c6264d82a051c5191,64c7fed44a04f777bb1e18ce,64c800e9dfe1dfb8cbb27589,right,-1,0.75,0.4357,11,-0.075912522,0.2297,,,,,,169,0,169,0,1,,,,,
,,016100,001,2023-07-31_12h55.00.309,arm3_eps,2022.2.5,Win32,60.1612321,616e239c6264d82a051c5191,64c7fed44a04f777bb1e18ce,64c800e9dfe1dfb8cbb27589,down,-1,0.75,0.4357,12,0,0.3843,,,,,,170,0,170,0,1,,,,,
,,016100,001,2023-07-31_12h55.00.309,arm3_eps,2022.2.5,Win32,60.1612321,616e239c6264d82a051c5191,64c7fed44a04f777bb1e18ce,64c800e9dfe1dfb8cbb27589,right,-1,0.75,0.4357,12,-0.017606952,0.8401,,,,,,171,0,171,0,1,,,,,
,,016100,001,2023-07-31_12h55.00.309,arm3_eps,2022.2.5,Win32,60.1612321,616e239c6264d82a051c5191,64c7fed44a04f777bb1e18ce,64c800e9dfe1dfb8cbb27589,right,-1,0.75,0.4357,12,-0.002227378,0.1652,,,,,,172,0,172,0,1,,,,,
,,016100,001,2023-07-31_12h55.00.309,arm3_eps,2022.2.5,Win32,60.1612321,616e239c6264d82a051c5191,64c7fed44a04f777bb1e18ce,64c800e9dfe1dfb8cbb27589,right,-1,0.75,0.4357,12,-0.045011616,0.1797,,,,,,173,0,173,0,1,,,,,
,,016100,001,2023-07-31_12h55.00.309,arm3_eps,2022.2.5,Win32,60.1612321,616e239c6264d82a051c5191,64c7fed44a04f777bb1e18ce,64c800e9dfe1dfb8cbb27589,right,-1,0.75,0.4357,12,-0.020680773,0.164,,,,,,174,0,174,0,1,,,,,
,,016100,001,2023-07-31_12h55.00.309,arm3_eps,2022.2.5,Win32,60.1612321,616e239c6264d82a051c5191,64c7fed44a04f777bb1e18ce,64c800e9dfe1dfb8cbb27589,right,-1,0.75,0.4357,12,-0.011692484,0.3386,,,,,,175,0,175,0,1,,,,,
,,016100,001,2023-07-31_12h55.00.309,arm3_eps,2022.2.5,Win32,60.1612321,616e239c6264d82a051c5191,64c7fed44a04f777bb1e18ce,64c800e9dfe1dfb8cbb27589,right,-1,0.75,0.4357,12,-0.030235793,0.1684,,,,,,176,0,176,0,1,,,,,
,,016100,001,2023-07-31_12h55.00.309,arm3_eps,2022.2.5,Win32,60.1612321,616e239c6264d82a051c5191,64c7fed44a04f777bb1e18ce,64c800e9dfe1dfb8cbb27589,right,-1,0.75,0.4357,12,-0.043802597,0.1815,,,,,,177,0,177,0,1,,,,,
,,016100,001,2023-07-31_12h55.00.309,arm3_eps,2022.2.5,Win32,60.1612321,616e239c6264d82a051c5191,64c7fed44a04f777bb1e18ce,64c800e9dfe1dfb8cbb27589,right,-1,0.75,0.4357,12,-0.054170273,0.5976,,,,,,178,0,178,0,1,,,,,
,,016100,001,2023-07-31_12h55.00.309,arm3_eps,2022.2.5,Win32,60.1612321,616e239c6264d82a051c5191,64c7fed44a04f777bb1e18ce,64c800e9dfe1dfb8cbb27589,down,-1,0.75,0.4357,12,0,0.2653,,,,,,179,0,179,0,1,,,,,
,,016100,001,2023-07-31_12h55.00.309,arm3_eps,2022.2.5,Win32,60.1612321,616e239c6264d82a051c5191,64c7fed44a04f777bb1e18ce,64c800e9dfe1dfb8cbb27589,right,-1,0.75,0.4357,12,-0.011848044,0.8603,,,,,,180,0,180,0,1,,,,,
,,016100,001,2023-07-31_12h55.00.309,arm3_eps,2022.2.5,Win32,60.1612321,616e239c6264d82a051c5191,64c7fed44a04f777bb1e18ce,64c800e9dfe1dfb8cbb27589,right,-1,0.75,0.4357,12,-0.052456978,0.1638,,,,,,181,0,181,0,1,,,,,
,,016100,001,2023-07-31_12h55.00.309,arm3_eps,2022.2.5,Win32,60.1612321,616e239c6264d82a051c5191,64c7fed44a04f777bb1e18ce,64c800e9dfe1dfb8cbb27589,right,-1,0.75,0.4357,12,-0.025663686,0.1468,,,,,,182,0,182,0,1,,,,,
,,016100,001,2023-07-31_12h55.00.309,arm3_eps,2022.2.5,Win32,60.1612321,616e239c6264d82a051c5191,64c7fed44a04f777bb1e18ce,64c800e9dfe1dfb8cbb27589,right,-1,0.75,0.4357,12,-0.022607834,0.2325,,,,,,183,0,183,0,1,,,,,
,,016100,001,2023-07-31_12h55.00.309,arm3_eps,2022.2.5,Win32,60.1612321,616e239c6264d82a051c5191,64c7fed44a04f777bb1e18ce,64c800e9dfe1dfb8cbb27589,right,-1,0.75,0.4357,12,-0.016087382,0.2031,,,,,,184,0,184,0,1,,,,,
,,016100,001,2023-07-31_12h55.00.309,arm3_eps,2022.2.5,Win32,60.1612321,616e239c6264d82a051c5191,64c7fed44a04f777bb1e18ce,64c800e9dfe1dfb8cbb27589,right,-1,0.75,0.4357,12,-0.008064836,0.1979,,,,,,185,0,185,0,1,,,,,
,,016100,001,2023-07-31_12h55.00.309,arm3_eps,2022.2.5,Win32,60.1612321,616e239c6264d82a051c5191,64c7fed44a04f777bb1e18ce,64c800e9dfe1dfb8cbb27589,right,-1,0.75,0.4357,12,0.001297842,0.2148,,,,,,186,0,186,0,1,,,,,
,,016100,001,2023-07-31_12h55.00.309,arm3_eps,2022.2.5,Win32,60.1612321,616e239c6264d82a051c5191,64c7fed44a04f777bb1e18ce,64c800e9dfe1dfb8cbb27589,right,-1,0.75,0.4357,12,0.003069522,0.2182,,,,,,187,0,187,0,1,,,,,
,,016100,001,2023-07-31_12h55.00.309,arm3_eps,2022.2.5,Win32,60.1612321,616e239c6264d82a051c5191,64c7fed44a04f777bb1e18ce,64c800e9dfe1dfb8cbb27589,right,-1,0.75,0.4357,12,-0.012603287,0.2183,,,,,,188,0,188,0,1,,,,,
,,016100,001,2023-07-31_12h55.00.309,arm3_eps,2022.2.5,Win32,60.1612321,616e239c6264d82a051c5191,64c7fed44a04f777bb1e18ce,64c800e9dfe1dfb8cbb27589,right,-1,0.75,0.4357,12,-0.017081907,0.2304,,,,,,189,0,189,0,1,,,,,
,,016100,001,2023-07-31_12h55.00.309,arm3_eps,2022.2.5,Win32,60.1612321,616e239c6264d82a051c5191,64c7fed44a04f777bb1e18ce,64c800e9dfe1dfb8cbb27589,right,-1,0.75,0.4357,12,-0.034092002,0.2229,,,,,,190,0,190,0,1,,,,,
,,016100,001,2023-07-31_12h55.00.309,arm3_eps,2022.2.5,Win32,60.1612321,616e239c6264d82a051c5191,64c7fed44a04f777bb1e18ce,64c800e9dfe1dfb8cbb27589,right,-1,0.75,0.4357,12,-0.037879717,0.4514,,,,,,191,0,191,0,1,,,,,
,,016100,001,2023-07-31_12h55.00.309,arm3_eps,2022.2.5,Win32,60.1612321,616e239c6264d82a051c5191,64c7fed44a04f777bb1e18ce,64c800e9dfe1dfb8cbb27589,down,-1,0.75,0.4357,13,0,0.6528,,,,,,192,0,192,0,1,,,,,
,,016100,001,2023-07-31_12h55.00.309,arm3_eps,2022.2.5,Win32,60.1612321,616e239c6264d82a051c5191,64c7fed44a04f777bb1e18ce,64c800e9dfe1dfb8cbb27589,right,-1,0.75,0.4357,13,0.033323492,1.0953,,,,,,193,0,193,0,1,,,,,
,,016100,001,2023-07-31_12h55.00.309,arm3_eps,2022.2.5,Win32,60.1612321,616e239c6264d82a051c5191,64c7fed44a04f777bb1e18ce,64c800e9dfe1dfb8cbb27589,right,-1,0.75,0.4357,13,0.014907002,0.4184,,,,,,194,0,194,0,1,,,,,
,,016100,001,2023-07-31_12h55.00.309,arm3_eps,2022.2.5,Win32,60.1612321,616e239c6264d82a051c5191,64c7fed44a04f777bb1e18ce,64c800e9dfe1dfb8cbb27589,right,-1,0.75,0.4357,13,0.006289655,0.3841,,,,,,195,0,195,0,1,,,,,
,,016100,001,2023-07-31_12h55.00.309,arm3_eps,2022.2.5,Win32,60.1612321,616e239c6264d82a051c5191,64c7fed44a04f777bb1e18ce,64c800e9dfe1dfb8cbb27589,right,-1,0.75,0.4357,13,0.012377561,0.3494,,,,,,196,0,196,0,1,,,,,
,,016100,001,2023-07-31_12h55.00.309,arm3_eps,2022.2.5,Win32,60.1612321,616e239c6264d82a051c5191,64c7fed44a04f777bb1e18ce,64c800e9dfe1dfb8cbb27589,right,-1,0.75,0.4357,13,-0.00284626,0.3233,,,,,,197,0,197,0,1,,,,,
,,016100,001,2023-07-31_12h55.00.309,arm3_eps,2022.2.5,Win32,60.1612321,616e239c6264d82a051c5191,64c7fed44a04f777bb1e18ce,64c800e9dfe1dfb8cbb27589,right,-1,0.75,0.4357,13,-0.019284679,0.2842,,,,,,198,0,198,0,1,,,,,
,,016100,001,2023-07-31_12h55.00.309,arm3_eps,2022.2.5,Win32,60.1612321,616e239c6264d82a051c5191,64c7fed44a04f777bb1e18ce,64c800e9dfe1dfb8cbb27589,right,-1,0.75,0.4357,13,-0.042560401,0.2335,,,,,,199,0,199,0,1,,,,,
,,016100,001,2023-07-31_12h55.00.309,arm3_eps,2022.2.5,Win32,60.1612321,616e239c6264d82a051c5191,64c7fed44a04f777bb1e18ce,64c800e9dfe1dfb8cbb27589,right,-1,0.75,0.4357,13,-0.043366653,0.2626,,,,,,200,0,200,0,1,,,,,
,,016100,001,2023-07-31_12h55.00.309,arm3_eps,2022.2.5,Win32,60.1612321,616e239c6264d82a051c5191,64c7fed44a04f777bb1e18ce,64c800e9dfe1dfb8cbb27589,right,-1,0.75,0.4357,13,-0.035710841,0.18,,,,,,201,0,201,0,1,,,,,
,,016100,001,2023-07-31_12h55.00.309,arm3_eps,2022.2.5,Win32,60.1612321,616e239c6264d82a051c5191,64c7fed44a04f777bb1e18ce,64c800e9dfe1dfb8cbb27589,right,-1,0.75,0.4357,13,-0.023288649,0.1905,,,,,,202,0,202,0,1,,,,,
,,016100,001,2023-07-31_12h55.00.309,arm3_eps,2022.2.5,Win32,60.1612321,616e239c6264d82a051c5191,64c7fed44a04f777bb1e18ce,64c800e9dfe1dfb8cbb27589,right,-1,0.75,0.4357,13,-0.011831117,0.1824,,,,,,203,0,203,0,1,,,,,
,,016100,001,2023-07-31_12h55.00.309,arm3_eps,2022.2.5,Win32,60.1612321,616e239c6264d82a051c5191,64c7fed44a04f777bb1e18ce,64c800e9dfe1dfb8cbb27589,right,-1,0.75,0.4357,13,-0.009725757,0.3801,,,,,,204,0,204,0,1,,,,,
,,016100,001,2023-07-31_12h55.00.309,arm3_eps,2022.2.5,Win32,60.1612321,616e239c6264d82a051c5191,64c7fed44a04f777bb1e18ce,64c800e9dfe1dfb8cbb27589,down,1,0.75,0.4357,14,0,0.7963,,,,,,205,0,205,0,1,,,,,
,,016100,001,2023-07-31_12h55.00.309,arm3_eps,2022.2.5,Win32,60.1612321,616e239c6264d82a051c5191,64c7fed44a04f777bb1e18ce,64c800e9dfe1dfb8cbb27589,right,1,0.75,0.4357,14,0.006117185,3.9521,,,,,,206,0,206,0,1,,,,,
,,016100,001,2023-07-31_12h55.00.309,arm3_eps,2022.2.5,Win32,60.1612321,616e239c6264d82a051c5191,64c7fed44a04f777bb1e18ce,64c800e9dfe1dfb8cbb27589,right,1,0.75,0.4357,14,0.02777989,0.346,,,,,,207,0,207,0,1,,,,,
,,016100,001,2023-07-31_12h55.00.309,arm3_eps,2022.2.5,Win32,60.1612321,616e239c6264d82a051c5191,64c7fed44a04f777bb1e18ce,64c800e9dfe1dfb8cbb27589,up,1,0.75,0.4357,15,0,0.8935,,,,,,208,0,208,0,1,,,,,
,,016100,001,2023-07-31_12h55.00.309,arm3_eps,2022.2.5,Win32,60.1612321,616e239c6264d82a051c5191,64c7fed44a04f777bb1e18ce,64c800e9dfe1dfb8cbb27589,right,1,0.75,0.4357,15,0.036480945,1.0072,,,,,,209,0,209,0,1,,,,,
,,016100,001,2023-07-31_12h55.00.309,arm3_eps,2022.2.5,Win32,60.1612321,616e239c6264d82a051c5191,64c7fed44a04f777bb1e18ce,64c800e9dfe1dfb8cbb27589,right,1,0.75,0.4357,15,0.040652609,0.316,,,,,,210,0,210,0,1,,,,,
,,016100,001,2023-07-31_12h55.00.309,arm3_eps,2022.2.5,Win32,60.1612321,616e239c6264d82a051c5191,64c7fed44a04f777bb1e18ce,64c800e9dfe1dfb8cbb27589,up,1,0.75,0.4357,16,0,0.5988,,,,,,211,0,211,0,1,,,,,
,,016100,001,2023-07-31_12h55.00.309,arm3_eps,2022.2.5,Win32,60.1612321,616e239c6264d82a051c5191,64c7fed44a04f777bb1e18ce,64c800e9dfe1dfb8cbb27589,right,1,0.75,0.4357,16,0.028290914,1.0585,,,,,,212,0,212,0,1,,,,,
,,016100,001,2023-07-31_12h55.00.309,arm3_eps,2022.2.5,Win32,60.1612321,616e239c6264d82a051c5191,64c7fed44a04f777bb1e18ce,64c800e9dfe1dfb8cbb27589,right,1,0.75,0.4357,16,0.008340943,0.3895,,,,,,213,0,213,0,1,,,,,
,,016100,001,2023-07-31_12h55.00.309,arm3_eps,2022.2.5,Win32,60.1612321,616e239c6264d82a051c5191,64c7fed44a04f777bb1e18ce,64c800e9dfe1dfb8cbb27589,right,1,0.75,0.4357,16,-0.006053432,0.7301,,,,,,214,0,214,0,1,,,,,
,,016100,001,2023-07-31_12h55.00.309,arm3_eps,2022.2.5,Win32,60.1612321,616e239c6264d82a051c5191,64c7fed44a04f777bb1e18ce,64c800e9dfe1dfb8cbb27589,right,1,0.75,0.4357,16,0.007234231,0.9717,,,,,,215,0,215,0,1,,,,,
,,016100,001,2023-07-31_12h55.00.309,arm3_eps,2022.2.5,Win32,60.1612321,616e239c6264d82a051c5191,64c7fed44a04f777bb1e18ce,64c800e9dfe1dfb8cbb27589,up,-1,0.75,0.4357,17,0,0.5963,,,,,,216,0,216,0,1,,,,,
,,016100,001,2023-07-31_12h55.00.309,arm3_eps,2022.2.5,Win32,60.1612321,616e239c6264d82a051c5191,64c7fed44a04f777bb1e18ce,64c800e9dfe1dfb8cbb27589,right,-1,0.75,0.4357,17,-0.011954077,1.6197,,,,,,217,0,217,0,1,,,,,
,,016100,001,2023-07-31_12h55.00.309,arm3_eps,2022.2.5,Win32,60.1612321,616e239c6264d82a051c5191,64c7fed44a04f777bb1e18ce,64c800e9dfe1dfb8cbb27589,right,-1,0.75,0.4357,17,-0.027071373,0.1498,,,,,,218,0,218,0,1,,,,,
,,016100,001,2023-07-31_12h55.00.309,arm3_eps,2022.2.5,Win32,60.1612321,616e239c6264d82a051c5191,64c7fed44a04f777bb1e18ce,64c800e9dfe1dfb8cbb27589,right,-1,0.75,0.4357,17,-0.019412132,0.1382,,,,,,219,0,219,0,1,,,,,
,,016100,001,2023-07-31_12h55.00.309,arm3_eps,2022.2.5,Win32,60.1612321,616e239c6264d82a051c5191,64c7fed44a04f777bb1e18ce,64c800e9dfe1dfb8cbb27589,right,-1,0.75,0.4357,17,-0.008947218,0.4218,,,,,,220,0,220,0,1,,,,,
,,016100,001,2023-07-31_12h55.00.309,arm3_eps,2022.2.5,Win32,60.1612321,616e239c6264d82a051c5191,64c7fed44a04f777bb1e18ce,64c800e9dfe1dfb8cbb27589,right,-1,0.75,0.4357,17,-0.023509381,0.1537,,,,,,221,0,221,0,1,,,,,
,,016100,001,2023-07-31_12h55.00.309,arm3_eps,2022.2.5,Win32,60.1612321,616e239c6264d82a051c5191,64c7fed44a04f777bb1e18ce,64c800e9dfe1dfb8cbb27589,right,-1,0.75,0.4357,17,-0.017677724,0.1637,,,,,,222,0,222,0,1,,,,,
,,016100,001,2023-07-31_12h55.00.309,arm3_eps,2022.2.5,Win32,60.1612321,616e239c6264d82a051c5191,64c7fed44a04f777bb1e18ce,64c800e9dfe1dfb8cbb27589,right,-1,0.75,0.4357,17,-0.003846822,0.4363,,,,,,223,0,223,0,1,,,,,
,,016100,001,2023-07-31_12h55.00.309,arm3_eps,2022.2.5,Win32,60.1612321,616e239c6264d82a051c5191,64c7fed44a04f777bb1e18ce,64c800e9dfe1dfb8cbb27589,right,-1,0.75,0.4357,17,-0.020176227,0.1528,,,,,,224,0,224,0,1,,,,,
,,016100,001,2023-07-31_12h55.00.309,arm3_eps,2022.2.5,Win32,60.1612321,616e239c6264d82a051c5191,64c7fed44a04f777bb1e18ce,64c800e9dfe1dfb8cbb27589,right,-1,0.75,0.4357,17,-0.028979213,0.1386,,,,,,225,0,225,0,1,,,,,
,,016100,001,2023-07-31_12h55.00.309,arm3_eps,2022.2.5,Win32,60.1612321,616e239c6264d82a051c5191,64c7fed44a04f777bb1e18ce,64c800e9dfe1dfb8cbb27589,right,-1,0.75,0.4357,17,-0.026358296,0.6374,,,,,,226,0,226,0,1,,,,,
,,016100,001,2023-07-31_12h55.00.309,arm3_eps,2022.2.5,Win32,60.1612321,616e239c6264d82a051c5191,64c7fed44a04f777bb1e18ce,64c800e9dfe1dfb8cbb27589,right,-1,0.75,0.4357,17,-0.01150279,1.0869,,,,,,227,0,227,0,1,,,,,
,,016100,001,2023-07-31_12h55.00.309,arm3_eps,2022.2.5,Win32,60.1612321,616e239c6264d82a051c5191,64c7fed44a04f777bb1e18ce,64c800e9dfe1dfb8cbb27589,down,-1,0.75,0.4357,18,0,1.2805,,,,,,228,0,228,0,1,,,,,
,,016100,001,2023-07-31_12h55.00.309,arm3_eps,2022.2.5,Win32,60.1612321,616e239c6264d82a051c5191,64c7fed44a04f777bb1e18ce,64c800e9dfe1dfb8cbb27589,right,-1,0.75,0.4357,18,-0.034547386,1.3771,,,,,,229,0,229,0,1,,,,,
,,016100,001,2023-07-31_12h55.00.309,arm3_eps,2022.2.5,Win32,60.1612321,616e239c6264d82a051c5191,64c7fed44a04f777bb1e18ce,64c800e9dfe1dfb8cbb27589,right,-1,0.75,0.4357,18,-0.020574321,0.1461,,,,,,230,0,230,0,1,,,,,
,,016100,001,2023-07-31_12h55.00.309,arm3_eps,2022.2.5,Win32,60.1612321,616e239c6264d82a051c5191,64c7fed44a04f777bb1e18ce,64c800e9dfe1dfb8cbb27589,right,-1,0.75,0.4357,18,-0.04220841,0.1201,,,,,,231,0,231,0,1,,,,,
,,016100,001,2023-07-31_12h55.00.309,arm3_eps,2022.2.5,Win32,60.1612321,616e239c6264d82a051c5191,64c7fed44a04f777bb1e18ce,64c800e9dfe1dfb8cbb27589,right,-1,0.75,0.4357,18,-0.043685315,0.5965,,,,,,232,0,232,0,1,,,,,
,,016100,001,2023-07-31_12h55.00.309,arm3_eps,2022.2.5,Win32,60.1612321,616e239c6264d82a051c5191,64c7fed44a04f777bb1e18ce,64c800e9dfe1dfb8cbb27589,right,-1,0.75,0.4357,18,-0.079549868,0.1467,,,,,,233,0,233,0,1,,,,,
,,016100,001,2023-07-31_12h55.00.309,arm3_eps,2022.2.5,Win32,60.1612321,616e239c6264d82a051c5191,64c7fed44a04f777bb1e18ce,64c800e9dfe1dfb8cbb27589,right,-1,0.75,0.4357,18,-0.103733299,0.1481,,,,,,234,0,234,0,1,,,,,
,,016100,001,2023-07-31_12h55.00.309,arm3_eps,2022.2.5,Win32,60.1612321,616e239c6264d82a051c5191,64c7fed44a04f777bb1e18ce,64c800e9dfe1dfb8cbb27589,down,-1,0.75,0.4357,18,0,0.896,,,,,,235,0,235,0,1,,,,,
,,016100,001,2023-07-31_12h55.00.309,arm3_eps,2022.2.5,Win32,60.1612321,616e239c6264d82a051c5191,64c7fed44a04f777bb1e18ce,64c800e9dfe1dfb8cbb27589,right,-1,0.75,0.4357,18,-0.024000483,1.0432,,,,,,236,0,236,0,1,,,,,
,,016100,001,2023-07-31_12h55.00.309,arm3_eps,2022.2.5,Win32,60.1612321,616e239c6264d82a051c5191,64c7fed44a04f777bb1e18ce,64c800e9dfe1dfb8cbb27589,right,-1,0.75,0.4357,18,-0.045948867,0.1394,,,,,,237,0,237,0,1,,,,,
,,016100,001,2023-07-31_12h55.00.309,arm3_eps,2022.2.5,Win32,60.1612321,616e239c6264d82a051c5191,64c7fed44a04f777bb1e18ce,64c800e9dfe1dfb8cbb27589,right,-1,0.75,0.4357,18,-0.067081663,0.1398,,,,,,238,0,238,0,1,,,,,
,,016100,001,2023-07-31_12h55.00.309,arm3_eps,2022.2.5,Win32,60.1612321,616e239c6264d82a051c5191,64c7fed44a04f777bb1e18ce,64c800e9dfe1dfb8cbb27589,down,1,0.75,0.4357,19,0,0.4637,,,,,,239,0,239,0,1,,,,,
,,016100,001,2023-07-31_12h55.00.309,arm3_eps,2022.2.5,Win32,60.1612321,616e239c6264d82a051c5191,64c7fed44a04f777bb1e18ce,64c800e9dfe1dfb8cbb27589,right,1,0.75,0.4357,19,0.012737659,0.8102,,,,,,240,0,240,0,1,,,,,
,,016100,001,2023-07-31_12h55.00.309,arm3_eps,2022.2.5,Win32,60.1612321,616e239c6264d82a051c5191,64c7fed44a04f777bb1e18ce,64c800e9dfe1dfb8cbb27589,right,1,0.75,0.4357,19,-0.027476211,0.1312,,,,,,241,0,241,0,1,,,,,
,,016100,001,2023-07-31_12h55.00.309,arm3_eps,2022.2.5,Win32,60.1612321,616e239c6264d82a051c5191,64c7fed44a04f777bb1e18ce,64c800e9dfe1dfb8cbb27589,right,1,0.75,0.4357,19,-0.032596157,0.1815,,,,,,242,0,242,0,1,,,,,
,,016100,001,2023-07-31_12h55.00.309,arm3_eps,2022.2.5,Win32,60.1612321,616e239c6264d82a051c5191,64c7fed44a04f777bb1e18ce,64c800e9dfe1dfb8cbb27589,right,1,0.75,0.4357,19,-0.026471865,0.396,,,,,,243,0,243,0,1,,,,,
,,016100,001,2023-07-31_12h55.00.309,arm3_eps,2022.2.5,Win32,60.1612321,616e239c6264d82a051c5191,64c7fed44a04f777bb1e18ce,64c800e9dfe1dfb8cbb27589,right,1,0.75,0.4357,19,-0.04154532,0.1642,,,,,,244,0,244,0,1,,,,,
,,016100,001,2023-07-31_12h55.00.309,arm3_eps,2022.2.5,Win32,60.1612321,616e239c6264d82a051c5191,64c7fed44a04f777bb1e18ce,64c800e9dfe1dfb8cbb27589,right,1,0.75,0.4357,19,-0.028860658,1.4291,,,,,,245,0,245,0,1,,,,,
,,016100,001,2023-07-31_12h55.00.309,arm3_eps,2022.2.5,Win32,60.1612321,616e239c6264d82a051c5191,64c7fed44a04f777bb1e18ce,64c800e9dfe1dfb8cbb27589,right,1,0.75,0.4357,19,-0.029161262,0.1469,,,,,,246,0,246,0,1,,,,,
,,016100,001,2023-07-31_12h55.00.309,arm3_eps,2022.2.5,Win32,60.1612321,616e239c6264d82a051c5191,64c7fed44a04f777bb1e18ce,64c800e9dfe1dfb8cbb27589,right,1,0.75,0.4357,19,0.0014554,0.1355,,,,,,247,0,247,0,1,,,,,
,,016100,001,2023-07-31_12h55.00.309,arm3_eps,2022.2.5,Win32,60.1612321,616e239c6264d82a051c5191,64c7fed44a04f777bb1e18ce,64c800e9dfe1dfb8cbb27589,right,1,0.75,0.4357,19,0.000892755,0.5133,,,,,,248,0,248,0,1,,,,,
,,016100,001,2023-07-31_12h55.00.309,arm3_eps,2022.2.5,Win32,60.1612321,616e239c6264d82a051c5191,64c7fed44a04f777bb1e18ce,64c800e9dfe1dfb8cbb27589,right,1,0.75,0.4357,19,0.005083943,0.1386,,,,,,249,0,249,0,1,,,,,
,,016100,001,2023-07-31_12h55.00.309,arm3_eps,2022.2.5,Win32,60.1612321,616e239c6264d82a051c5191,64c7fed44a04f777bb1e18ce,64c800e9dfe1dfb8cbb27589,up,-1,0.75,0.4357,19,0,0.7295,,,,,,250,0,250,0,1,,,,,
,,016100,001,2023-07-31_12h55.00.309,arm3_eps,2022.2.5,Win32,60.1612321,616e239c6264d82a051c5191,64c7fed44a04f777bb1e18ce,64c800e9dfe1dfb8cbb27589,right,-1,0.75,0.4357,19,0.000515413,0.9746,,,,,,251,0,251,0,1,,,,,
,,016100,001,2023-07-31_12h55.00.309,arm3_eps,2022.2.5,Win32,60.1612321,616e239c6264d82a051c5191,64c7fed44a04f777bb1e18ce,64c800e9dfe1dfb8cbb27589,right,-1,0.75,0.4357,19,0.013505764,0.1414,,,,,,252,0,252,0,1,,,,,
,,016100,001,2023-07-31_12h55.00.309,arm3_eps,2022.2.5,Win32,60.1612321,616e239c6264d82a051c5191,64c7fed44a04f777bb1e18ce,64c800e9dfe1dfb8cbb27589,right,-1,0.75,0.4357,19,0.017645051,0.1385,,,,,,253,0,253,0,1,,,,,
,,016100,001,2023-07-31_12h55.00.309,arm3_eps,2022.2.5,Win32,60.1612321,616e239c6264d82a051c5191,64c7fed44a04f777bb1e18ce,64c800e9dfe1dfb8cbb27589,right,-1,0.75,0.4357,19,0.011800393,0.6611,,,,,,254,0,254,0,1,,,,,
,,016100,001,2023-07-31_12h55.00.309,arm3_eps,2022.2.5,Win32,60.1612321,616e239c6264d82a051c5191,64c7fed44a04f777bb1e18ce,64c800e9dfe1dfb8cbb27589,right,-1,0.75,0.4357,19,0.006838622,0.138,,,,,,255,0,255,0,1,,,,,
,,016100,001,2023-07-31_12h55.00.309,arm3_eps,2022.2.5,Win32,60.1612321,616e239c6264d82a051c5191,64c7fed44a04f777bb1e18ce,64c800e9dfe1dfb8cbb27589,right,-1,0.75,0.4357,19,-0.009586122,0.1425,,,,,,256,0,256,0,1,,,,,
,,016100,001,2023-07-31_12h55.00.309,arm3_eps,2022.2.5,Win32,60.1612321,616e239c6264d82a051c5191,64c7fed44a04f777bb1e18ce,64c800e9dfe1dfb8cbb27589,right,-1,0.75,0.4357,19,0.016504488,0.5342,,,,,,257,0,257,0,1,,,,,
