space_bar.keys,space_bar.rt,participant,session,date,expName,psychopyVersion,OS,frameRate,PROLIFIC_PID,STUDY_ID,SESSION_ID,resp.keys,state,q_prob,eps_prob,score,price,resp.rt,train.thisRepN,train.thisTrialN,train.thisN,train.thisIndex,train.ran,steps.thisRepN,steps.thisTrialN,steps.thisN,steps.thisIndex,steps.ran,blocks.thisRepN,blocks.thisTrialN,blocks.thisN,blocks.thisIndex,blocks.ran
space,5.1897,039233,001,2023-07-31_15h03.49.157,arm3_eps,2022.2.5,Win32,60.12867537,5e9ce3d90e7d212164143c80,64c7fed44a04f777bb1e18ce,64c80164ee3eec4e1c68af3c,,,,,,,,,,,,,,,,,,,,,,
space,1.6918,039233,001,2023-07-31_15h03.49.157,arm3_eps,2022.2.5,Win32,60.12867537,5e9ce3d90e7d212164143c80,64c7fed44a04f777bb1e18ce,64c80164ee3eec4e1c68af3c,,,,,,,,,,,,,,,,,,,,,,
space,8.5091,039233,001,2023-07-31_15h03.49.157,arm3_eps,2022.2.5,Win32,60.12867537,5e9ce3d90e7d212164143c80,64c7fed44a04f777bb1e18ce,64c80164ee3eec4e1c68af3c,,,,,,,,,,,,,,,,,,,,,,
space,2.818,039233,001,2023-07-31_15h03.49.157,arm3_eps,2022.2.5,Win32,60.12867537,5e9ce3d90e7d212164143c80,64c7fed44a04f777bb1e18ce,64c80164ee3eec4e1c68af3c,,,,,,,,,,,,,,,,,,,,,,
space,11.0655,039233,001,2023-07-31_15h03.49.157,arm3_eps,2022.2.5,Win32,60.12867537,5e9ce3d90e7d212164143c80,64c7fed44a04f777bb1e18ce,64c80164ee3eec4e1c68af3c,,,,,,,,,,,,,,,,,,,,,,
space,5.0406,039233,001,2023-07-31_15h03.49.157,arm3_eps,2022.2.5,Win32,60.12867537,5e9ce3d90e7d212164143c80,64c7fed44a04f777bb1e18ce,64c80164ee3eec4e1c68af3c,,,,,,,,,,,,,,,,,,,,,,
space,1.6076,039233,001,2023-07-31_15h03.49.157,arm3_eps,2022.2.5,Win32,60.12867537,5e9ce3d90e7d212164143c80,64c7fed44a04f777bb1e18ce,64c80164ee3eec4e1c68af3c,,,,,,,,,,,,,,,,,,,,,,
,,039233,001,2023-07-31_15h03.49.157,arm3_eps,2022.2.5,Win32,60.12867537,5e9ce3d90e7d212164143c80,64c7fed44a04f777bb1e18ce,64c80164ee3eec4e1c68af3c,right,-1,1,0.2429,0,0.007921971,0.4276,0,0,0,0,1,,,,,,,,,,
,,039233,001,2023-07-31_15h03.49.157,arm3_eps,2022.2.5,Win32,60.12867537,5e9ce3d90e7d212164143c80,64c7fed44a04f777bb1e18ce,64c80164ee3eec4e1c68af3c,right,-1,1,0.2429,0,-0.001600471,0.4242,1,0,1,0,1,,,,,,,,,,
,,039233,001,2023-07-31_15h03.49.157,arm3_eps,2022.2.5,Win32,60.12867537,5e9ce3d90e7d212164143c80,64c7fed44a04f777bb1e18ce,64c80164ee3eec4e1c68af3c,right,-1,1,0.2429,0,-0.008295607,0.3662,2,0,2,0,1,,,,,,,,,,
,,039233,001,2023-07-31_15h03.49.157,arm3_eps,2022.2.5,Win32,60.12867537,5e9ce3d90e7d212164143c80,64c7fed44a04f777bb1e18ce,64c80164ee3eec4e1c68af3c,right,-1,1,0.2429,0,0.012455824,0.9844,3,0,3,0,1,,,,,,,,,,
,,039233,001,2023-07-31_15h03.49.157,arm3_eps,2022.2.5,Win32,60.12867537,5e9ce3d90e7d212164143c80,64c7fed44a04f777bb1e18ce,64c80164ee3eec4e1c68af3c,right,-1,1,0.2429,0,-0.003142964,0.251,4,0,4,0,1,,,,,,,,,,
,,039233,001,2023-07-31_15h03.49.157,arm3_eps,2022.2.5,Win32,60.12867537,5e9ce3d90e7d212164143c80,64c7fed44a04f777bb1e18ce,64c80164ee3eec4e1c68af3c,right,-1,1,0.2429,0,-0.00168326,0.4011,5,0,5,0,1,,,,,,,,,,
,,039233,001,2023-07-31_15h03.49.157,arm3_eps,2022.2.5,Win32,60.12867537,5e9ce3d90e7d212164143c80,64c7fed44a04f777bb1e18ce,64c80164ee3eec4e1c68af3c,right,-1,1,0.2429,0,-0.061006202,0.467,6,0,6,0,1,,,,,,,,,,
,,039233,001,2023-07-31_15h03.49.157,arm3_eps,2022.2.5,Win32,60.12867537,5e9ce3d90e7d212164143c80,64c7fed44a04f777bb1e18ce,64c80164ee3eec4e1c68af3c,right,-1,1,0.2429,0,-0.050358673,0.7888,7,0,7,0,1,,,,,,,,,,
,,039233,001,2023-07-31_15h03.49.157,arm3_eps,2022.2.5,Win32,60.12867537,5e9ce3d90e7d212164143c80,64c7fed44a04f777bb1e18ce,64c80164ee3eec4e1c68af3c,down,-1,1,0.2429,1,0,2.5176,8,0,8,0,1,,,,,,,,,,
,,039233,001,2023-07-31_15h03.49.157,arm3_eps,2022.2.5,Win32,60.12867537,5e9ce3d90e7d212164143c80,64c7fed44a04f777bb1e18ce,64c80164ee3eec4e1c68af3c,right,-1,1,0.2429,1,0.001074457,4.1294,9,0,9,0,1,,,,,,,,,,
,,039233,001,2023-07-31_15h03.49.157,arm3_eps,2022.2.5,Win32,60.12867537,5e9ce3d90e7d212164143c80,64c7fed44a04f777bb1e18ce,64c80164ee3eec4e1c68af3c,right,-1,1,0.2429,1,-0.016008363,0.266,10,0,10,0,1,,,,,,,,,,
,,039233,001,2023-07-31_15h03.49.157,arm3_eps,2022.2.5,Win32,60.12867537,5e9ce3d90e7d212164143c80,64c7fed44a04f777bb1e18ce,64c80164ee3eec4e1c68af3c,right,-1,1,0.2429,1,0.009868379,0.2346,11,0,11,0,1,,,,,,,,,,
,,039233,001,2023-07-31_15h03.49.157,arm3_eps,2022.2.5,Win32,60.12867537,5e9ce3d90e7d212164143c80,64c7fed44a04f777bb1e18ce,64c80164ee3eec4e1c68af3c,right,-1,1,0.2429,1,-0.033719394,0.2314,12,0,12,0,1,,,,,,,,,,
,,039233,001,2023-07-31_15h03.49.157,arm3_eps,2022.2.5,Win32,60.12867537,5e9ce3d90e7d212164143c80,64c7fed44a04f777bb1e18ce,64c80164ee3eec4e1c68af3c,right,-1,1,0.2429,1,-0.044024488,0.2336,13,0,13,0,1,,,,,,,,,,
,,039233,001,2023-07-31_15h03.49.157,arm3_eps,2022.2.5,Win32,60.12867537,5e9ce3d90e7d212164143c80,64c7fed44a04f777bb1e18ce,64c80164ee3eec4e1c68af3c,right,-1,1,0.2429,1,-0.063292179,0.1841,14,0,14,0,1,,,,,,,,,,
,,039233,001,2023-07-31_15h03.49.157,arm3_eps,2022.2.5,Win32,60.12867537,5e9ce3d90e7d212164143c80,64c7fed44a04f777bb1e18ce,64c80164ee3eec4e1c68af3c,right,-1,1,0.2429,1,-0.111627252,0.2175,15,0,15,0,1,,,,,,,,,,
,,039233,001,2023-07-31_15h03.49.157,arm3_eps,2022.2.5,Win32,60.12867537,5e9ce3d90e7d212164143c80,64c7fed44a04f777bb1e18ce,64c80164ee3eec4e1c68af3c,right,-1,1,0.2429,1,-0.10956949,0.1663,16,0,16,0,1,,,,,,,,,,
,,039233,001,2023-07-31_15h03.49.157,arm3_eps,2022.2.5,Win32,60.12867537,5e9ce3d90e7d212164143c80,64c7fed44a04f777bb1e18ce,64c80164ee3eec4e1c68af3c,right,-1,1,0.2429,1,-0.120894642,0.2328,17,0,17,0,1,,,,,,,,,,
,,039233,001,2023-07-31_15h03.49.157,arm3_eps,2022.2.5,Win32,60.12867537,5e9ce3d90e7d212164143c80,64c7fed44a04f777bb1e18ce,64c80164ee3eec4e1c68af3c,down,1,1,0.2429,2,0,0.3179,18,0,18,0,1,,,,,,,,,,
,,039233,001,2023-07-31_15h03.49.157,arm3_eps,2022.2.5,Win32,60.12867537,5e9ce3d90e7d212164143c80,64c7fed44a04f777bb1e18ce,64c80164ee3eec4e1c68af3c,right,1,1,0.2429,2,-0.000505127,0.9,19,0,19,0,1,,,,,,,,,,
,,039233,001,2023-07-31_15h03.49.157,arm3_eps,2022.2.5,Win32,60.12867537,5e9ce3d90e7d212164143c80,64c7fed44a04f777bb1e18ce,64c80164ee3eec4e1c68af3c,right,1,1,0.2429,2,0.008607911,0.3046,20,0,20,0,1,,,,,,,,,,
,,039233,001,2023-07-31_15h03.49.157,arm3_eps,2022.2.5,Win32,60.12867537,5e9ce3d90e7d212164143c80,64c7fed44a04f777bb1e18ce,64c80164ee3eec4e1c68af3c,right,1,1,0.2429,2,0.024267872,0.1574,21,0,21,0,1,,,,,,,,,,
,,039233,001,2023-07-31_15h03.49.157,arm3_eps,2022.2.5,Win32,60.12867537,5e9ce3d90e7d212164143c80,64c7fed44a04f777bb1e18ce,64c80164ee3eec4e1c68af3c,right,1,1,0.2429,2,0.044116945,0.1511,22,0,22,0,1,,,,,,,,,,
,,039233,001,2023-07-31_15h03.49.157,arm3_eps,2022.2.5,Win32,60.12867537,5e9ce3d90e7d212164143c80,64c7fed44a04f777bb1e18ce,64c80164ee3eec4e1c68af3c,right,1,1,0.2429,2,0.035293753,0.161,23,0,23,0,1,,,,,,,,,,
,,039233,001,2023-07-31_15h03.49.157,arm3_eps,2022.2.5,Win32,60.12867537,5e9ce3d90e7d212164143c80,64c7fed44a04f777bb1e18ce,64c80164ee3eec4e1c68af3c,right,1,1,0.2429,2,0.052645561,0.1345,24,0,24,0,1,,,,,,,,,,
,,039233,001,2023-07-31_15h03.49.157,arm3_eps,2022.2.5,Win32,60.12867537,5e9ce3d90e7d212164143c80,64c7fed44a04f777bb1e18ce,64c80164ee3eec4e1c68af3c,right,1,1,0.2429,2,0.067314832,0.1512,25,0,25,0,1,,,,,,,,,,
,,039233,001,2023-07-31_15h03.49.157,arm3_eps,2022.2.5,Win32,60.12867537,5e9ce3d90e7d212164143c80,64c7fed44a04f777bb1e18ce,64c80164ee3eec4e1c68af3c,right,1,1,0.2429,2,0.056871176,0.1232,26,0,26,0,1,,,,,,,,,,
,,039233,001,2023-07-31_15h03.49.157,arm3_eps,2022.2.5,Win32,60.12867537,5e9ce3d90e7d212164143c80,64c7fed44a04f777bb1e18ce,64c80164ee3eec4e1c68af3c,up,1,1,0.2429,3,0,0.1714,27,0,27,0,1,,,,,,,,,,
,,039233,001,2023-07-31_15h03.49.157,arm3_eps,2022.2.5,Win32,60.12867537,5e9ce3d90e7d212164143c80,64c7fed44a04f777bb1e18ce,64c80164ee3eec4e1c68af3c,right,1,1,0.2429,3,-0.001856004,0.3948,28,0,28,0,1,,,,,,,,,,
,,039233,001,2023-07-31_15h03.49.157,arm3_eps,2022.2.5,Win32,60.12867537,5e9ce3d90e7d212164143c80,64c7fed44a04f777bb1e18ce,64c80164ee3eec4e1c68af3c,right,1,1,0.2429,3,0.034887178,0.3072,29,0,29,0,1,,,,,,,,,,
,,039233,001,2023-07-31_15h03.49.157,arm3_eps,2022.2.5,Win32,60.12867537,5e9ce3d90e7d212164143c80,64c7fed44a04f777bb1e18ce,64c80164ee3eec4e1c68af3c,right,1,1,0.2429,3,0.033234721,0.1508,30,0,30,0,1,,,,,,,,,,
,,039233,001,2023-07-31_15h03.49.157,arm3_eps,2022.2.5,Win32,60.12867537,5e9ce3d90e7d212164143c80,64c7fed44a04f777bb1e18ce,64c80164ee3eec4e1c68af3c,right,1,1,0.2429,3,0.039813991,0.1484,31,0,31,0,1,,,,,,,,,,
,,039233,001,2023-07-31_15h03.49.157,arm3_eps,2022.2.5,Win32,60.12867537,5e9ce3d90e7d212164143c80,64c7fed44a04f777bb1e18ce,64c80164ee3eec4e1c68af3c,right,1,1,0.2429,3,0.05573655,0.1318,32,0,32,0,1,,,,,,,,,,
,,039233,001,2023-07-31_15h03.49.157,arm3_eps,2022.2.5,Win32,60.12867537,5e9ce3d90e7d212164143c80,64c7fed44a04f777bb1e18ce,64c80164ee3eec4e1c68af3c,right,1,1,0.2429,3,0.068949119,0.134,33,0,33,0,1,,,,,,,,,,
,,039233,001,2023-07-31_15h03.49.157,arm3_eps,2022.2.5,Win32,60.12867537,5e9ce3d90e7d212164143c80,64c7fed44a04f777bb1e18ce,64c80164ee3eec4e1c68af3c,right,1,1,0.2429,3,0.07530261,0.1066,34,0,34,0,1,,,,,,,,,,
,,039233,001,2023-07-31_15h03.49.157,arm3_eps,2022.2.5,Win32,60.12867537,5e9ce3d90e7d212164143c80,64c7fed44a04f777bb1e18ce,64c80164ee3eec4e1c68af3c,up,1,1,0.2429,4,0,0.227,35,0,35,0,1,,,,,,,,,,
,,039233,001,2023-07-31_15h03.49.157,arm3_eps,2022.2.5,Win32,60.12867537,5e9ce3d90e7d212164143c80,64c7fed44a04f777bb1e18ce,64c80164ee3eec4e1c68af3c,right,1,1,0.2429,4,0.00672116,0.3667,36,0,36,0,1,,,,,,,,,,
,,039233,001,2023-07-31_15h03.49.157,arm3_eps,2022.2.5,Win32,60.12867537,5e9ce3d90e7d212164143c80,64c7fed44a04f777bb1e18ce,64c80164ee3eec4e1c68af3c,right,1,1,0.2429,4,-0.013953083,0.3677,37,0,37,0,1,,,,,,,,,,
,,039233,001,2023-07-31_15h03.49.157,arm3_eps,2022.2.5,Win32,60.12867537,5e9ce3d90e7d212164143c80,64c7fed44a04f777bb1e18ce,64c80164ee3eec4e1c68af3c,right,1,1,0.2429,4,0.002390215,0.0504,38,0,38,0,1,,,,,,,,,,
,,039233,001,2023-07-31_15h03.49.157,arm3_eps,2022.2.5,Win32,60.12867537,5e9ce3d90e7d212164143c80,64c7fed44a04f777bb1e18ce,64c80164ee3eec4e1c68af3c,right,1,1,0.2429,4,0.007794863,0.318,39,0,39,0,1,,,,,,,,,,
,,039233,001,2023-07-31_15h03.49.157,arm3_eps,2022.2.5,Win32,60.12867537,5e9ce3d90e7d212164143c80,64c7fed44a04f777bb1e18ce,64c80164ee3eec4e1c68af3c,right,1,1,0.2429,4,0.03401539,0.1344,40,0,40,0,1,,,,,,,,,,
,,039233,001,2023-07-31_15h03.49.157,arm3_eps,2022.2.5,Win32,60.12867537,5e9ce3d90e7d212164143c80,64c7fed44a04f777bb1e18ce,64c80164ee3eec4e1c68af3c,right,1,1,0.2429,4,0.010652308,0.1325,41,0,41,0,1,,,,,,,,,,
,,039233,001,2023-07-31_15h03.49.157,arm3_eps,2022.2.5,Win32,60.12867537,5e9ce3d90e7d212164143c80,64c7fed44a04f777bb1e18ce,64c80164ee3eec4e1c68af3c,right,1,1,0.2429,4,0.025414115,0.1669,42,0,42,0,1,,,,,,,,,,
,,039233,001,2023-07-31_15h03.49.157,arm3_eps,2022.2.5,Win32,60.12867537,5e9ce3d90e7d212164143c80,64c7fed44a04f777bb1e18ce,64c80164ee3eec4e1c68af3c,right,1,1,0.2429,4,0.02874381,0.1184,43,0,43,0,1,,,,,,,,,,
,,039233,001,2023-07-31_15h03.49.157,arm3_eps,2022.2.5,Win32,60.12867537,5e9ce3d90e7d212164143c80,64c7fed44a04f777bb1e18ce,64c80164ee3eec4e1c68af3c,right,1,1,0.2429,4,0.029098365,0.1262,44,0,44,0,1,,,,,,,,,,
,,039233,001,2023-07-31_15h03.49.157,arm3_eps,2022.2.5,Win32,60.12867537,5e9ce3d90e7d212164143c80,64c7fed44a04f777bb1e18ce,64c80164ee3eec4e1c68af3c,right,1,1,0.2429,4,0.009664356,0.1333,45,0,45,0,1,,,,,,,,,,
,,039233,001,2023-07-31_15h03.49.157,arm3_eps,2022.2.5,Win32,60.12867537,5e9ce3d90e7d212164143c80,64c7fed44a04f777bb1e18ce,64c80164ee3eec4e1c68af3c,down,-1,1,0.2429,3,0,1.3829,46,0,46,0,1,,,,,,,,,,
,,039233,001,2023-07-31_15h03.49.157,arm3_eps,2022.2.5,Win32,60.12867537,5e9ce3d90e7d212164143c80,64c7fed44a04f777bb1e18ce,64c80164ee3eec4e1c68af3c,right,-1,1,0.2429,3,-0.015336393,1.1796,47,0,47,0,1,,,,,,,,,,
,,039233,001,2023-07-31_15h03.49.157,arm3_eps,2022.2.5,Win32,60.12867537,5e9ce3d90e7d212164143c80,64c7fed44a04f777bb1e18ce,64c80164ee3eec4e1c68af3c,right,-1,1,0.2429,3,-0.049311706,0.167,48,0,48,0,1,,,,,,,,,,
,,039233,001,2023-07-31_15h03.49.157,arm3_eps,2022.2.5,Win32,60.12867537,5e9ce3d90e7d212164143c80,64c7fed44a04f777bb1e18ce,64c80164ee3eec4e1c68af3c,right,-1,1,0.2429,3,-0.085410488,0.1505,49,0,49,0,1,,,,,,,,,,
space,12.9383,039233,001,2023-07-31_15h03.49.157,arm3_eps,2022.2.5,Win32,60.12867537,5e9ce3d90e7d212164143c80,64c7fed44a04f777bb1e18ce,64c80164ee3eec4e1c68af3c,,,,,,,,,,,,,,,,,,,,,,
space,6.9513,039233,001,2023-07-31_15h03.49.157,arm3_eps,2022.2.5,Win32,60.12867537,5e9ce3d90e7d212164143c80,64c7fed44a04f777bb1e18ce,64c80164ee3eec4e1c68af3c,,,,,,,,,,,,,,,,,,,,,,
space,4.9481,039233,001,2023-07-31_15h03.49.157,arm3_eps,2022.2.5,Win32,60.12867537,5e9ce3d90e7d212164143c80,64c7fed44a04f777bb1e18ce,64c80164ee3eec4e1c68af3c,,,,,,,,,,,,,,,,,,,,,,
space,3.2514,039233,001,2023-07-31_15h03.49.157,arm3_eps,2022.2.5,Win32,60.12867537,5e9ce3d90e7d212164143c80,64c7fed44a04f777bb1e18ce,64c80164ee3eec4e1c68af3c,,,,,,,,,,,,,,,,,,,,,,
space,4.8319,039233,001,2023-07-31_15h03.49.157,arm3_eps,2022.2.5,Win32,60.12867537,5e9ce3d90e7d212164143c80,64c7fed44a04f777bb1e18ce,64c80164ee3eec4e1c68af3c,,,,,,,,,,,,,,,,,,,,,,
space,0.7158,039233,001,2023-07-31_15h03.49.157,arm3_eps,2022.2.5,Win32,60.12867537,5e9ce3d90e7d212164143c80,64c7fed44a04f777bb1e18ce,64c80164ee3eec4e1c68af3c,,,,,,,,,,,,,,,,,,,,,,
,,039233,001,2023-07-31_15h03.49.157,arm3_eps,2022.2.5,Win32,60.12867537,5e9ce3d90e7d212164143c80,64c7fed44a04f777bb1e18ce,64c80164ee3eec4e1c68af3c,right,-1,0.75,0.2429,0,-0.022547777,0.439,0,0,0,0,1,,,,,,,,,,
,,039233,001,2023-07-31_15h03.49.157,arm3_eps,2022.2.5,Win32,60.12867537,5e9ce3d90e7d212164143c80,64c7fed44a04f777bb1e18ce,64c80164ee3eec4e1c68af3c,right,-1,0.75,0.2429,0,-0.007711672,0.3867,1,0,1,0,1,,,,,,,,,,
,,039233,001,2023-07-31_15h03.49.157,arm3_eps,2022.2.5,Win32,60.12867537,5e9ce3d90e7d212164143c80,64c7fed44a04f777bb1e18ce,64c80164ee3eec4e1c68af3c,right,-1,0.75,0.2429,0,-0.030239452,0.1464,2,0,2,0,1,,,,,,,,,,
,,039233,001,2023-07-31_15h03.49.157,arm3_eps,2022.2.5,Win32,60.12867537,5e9ce3d90e7d212164143c80,64c7fed44a04f777bb1e18ce,64c80164ee3eec4e1c68af3c,right,-1,0.75,0.2429,0,-0.050320212,0.1362,3,0,3,0,1,,,,,,,,,,
,,039233,001,2023-07-31_15h03.49.157,arm3_eps,2022.2.5,Win32,60.12867537,5e9ce3d90e7d212164143c80,64c7fed44a04f777bb1e18ce,64c80164ee3eec4e1c68af3c,right,-1,0.75,0.2429,0,-0.05514395,0.4023,4,0,4,0,1,,,,,,,,,,
,,039233,001,2023-07-31_15h03.49.157,arm3_eps,2022.2.5,Win32,60.12867537,5e9ce3d90e7d212164143c80,64c7fed44a04f777bb1e18ce,64c80164ee3eec4e1c68af3c,down,-1,0.75,0.2429,1,0,0.3043,5,0,5,0,1,,,,,,,,,,
,,039233,001,2023-07-31_15h03.49.157,arm3_eps,2022.2.5,Win32,60.12867537,5e9ce3d90e7d212164143c80,64c7fed44a04f777bb1e18ce,64c80164ee3eec4e1c68af3c,right,-1,0.75,0.2429,1,-0.022014603,0.7904,6,0,6,0,1,,,,,,,,,,
,,039233,001,2023-07-31_15h03.49.157,arm3_eps,2022.2.5,Win32,60.12867537,5e9ce3d90e7d212164143c80,64c7fed44a04f777bb1e18ce,64c80164ee3eec4e1c68af3c,right,-1,0.75,0.2429,1,-0.031694979,0.1654,7,0,7,0,1,,,,,,,,,,
,,039233,001,2023-07-31_15h03.49.157,arm3_eps,2022.2.5,Win32,60.12867537,5e9ce3d90e7d212164143c80,64c7fed44a04f777bb1e18ce,64c80164ee3eec4e1c68af3c,right,-1,0.75,0.2429,1,-0.032792172,0.1447,8,0,8,0,1,,,,,,,,,,
,,039233,001,2023-07-31_15h03.49.157,arm3_eps,2022.2.5,Win32,60.12867537,5e9ce3d90e7d212164143c80,64c7fed44a04f777bb1e18ce,64c80164ee3eec4e1c68af3c,right,-1,0.75,0.2429,1,-0.040920075,0.1449,9,0,9,0,1,,,,,,,,,,
,,039233,001,2023-07-31_15h03.49.157,arm3_eps,2022.2.5,Win32,60.12867537,5e9ce3d90e7d212164143c80,64c7fed44a04f777bb1e18ce,64c80164ee3eec4e1c68af3c,right,-1,0.75,0.2429,1,-0.025089655,0.1475,10,0,10,0,1,,,,,,,,,,
,,039233,001,2023-07-31_15h03.49.157,arm3_eps,2022.2.5,Win32,60.12867537,5e9ce3d90e7d212164143c80,64c7fed44a04f777bb1e18ce,64c80164ee3eec4e1c68af3c,right,-1,0.75,0.2429,1,-0.049844508,0.1296,11,0,11,0,1,,,,,,,,,,
,,039233,001,2023-07-31_15h03.49.157,arm3_eps,2022.2.5,Win32,60.12867537,5e9ce3d90e7d212164143c80,64c7fed44a04f777bb1e18ce,64c80164ee3eec4e1c68af3c,right,-1,0.75,0.2429,1,-0.039639728,0.2297,12,0,12,0,1,,,,,,,,,,
,,039233,001,2023-07-31_15h03.49.157,arm3_eps,2022.2.5,Win32,60.12867537,5e9ce3d90e7d212164143c80,64c7fed44a04f777bb1e18ce,64c80164ee3eec4e1c68af3c,right,-1,0.75,0.2429,1,-0.048929593,0.152,13,0,13,0,1,,,,,,,,,,
,,039233,001,2023-07-31_15h03.49.157,arm3_eps,2022.2.5,Win32,60.12867537,5e9ce3d90e7d212164143c80,64c7fed44a04f777bb1e18ce,64c80164ee3eec4e1c68af3c,down,1,0.75,0.2429,1,0,0.2636,14,0,14,0,1,,,,,,,,,,
,,039233,001,2023-07-31_15h03.49.157,arm3_eps,2022.2.5,Win32,60.12867537,5e9ce3d90e7d212164143c80,64c7fed44a04f777bb1e18ce,64c80164ee3eec4e1c68af3c,right,1,0.75,0.2429,1,-0.020549545,0.822,15,0,15,0,1,,,,,,,,,,
,,039233,001,2023-07-31_15h03.49.157,arm3_eps,2022.2.5,Win32,60.12867537,5e9ce3d90e7d212164143c80,64c7fed44a04f777bb1e18ce,64c80164ee3eec4e1c68af3c,right,1,0.75,0.2429,1,-0.019665957,0.1622,16,0,16,0,1,,,,,,,,,,
,,039233,001,2023-07-31_15h03.49.157,arm3_eps,2022.2.5,Win32,60.12867537,5e9ce3d90e7d212164143c80,64c7fed44a04f777bb1e18ce,64c80164ee3eec4e1c68af3c,right,1,0.75,0.2429,1,-0.027324534,0.1343,17,0,17,0,1,,,,,,,,,,
,,039233,001,2023-07-31_15h03.49.157,arm3_eps,2022.2.5,Win32,60.12867537,5e9ce3d90e7d212164143c80,64c7fed44a04f777bb1e18ce,64c80164ee3eec4e1c68af3c,right,1,0.75,0.2429,1,-0.003876222,0.1299,18,0,18,0,1,,,,,,,,,,
,,039233,001,2023-07-31_15h03.49.157,arm3_eps,2022.2.5,Win32,60.12867537,5e9ce3d90e7d212164143c80,64c7fed44a04f777bb1e18ce,64c80164ee3eec4e1c68af3c,right,1,0.75,0.2429,1,0.011610718,0.1306,19,0,19,0,1,,,,,,,,,,
,,039233,001,2023-07-31_15h03.49.157,arm3_eps,2022.2.5,Win32,60.12867537,5e9ce3d90e7d212164143c80,64c7fed44a04f777bb1e18ce,64c80164ee3eec4e1c68af3c,right,1,0.75,0.2429,1,0.000393914,0.127,20,0,20,0,1,,,,,,,,,,
,,039233,001,2023-07-31_15h03.49.157,arm3_eps,2022.2.5,Win32,60.12867537,5e9ce3d90e7d212164143c80,64c7fed44a04f777bb1e18ce,64c80164ee3eec4e1c68af3c,right,1,0.75,0.2429,1,-0.006470233,0.1158,21,0,21,0,1,,,,,,,,,,
,,039233,001,2023-07-31_15h03.49.157,arm3_eps,2022.2.5,Win32,60.12867537,5e9ce3d90e7d212164143c80,64c7fed44a04f777bb1e18ce,64c80164ee3eec4e1c68af3c,right,1,0.75,0.2429,1,-0.004712763,0.1637,22,0,22,0,1,,,,,,,,,,
,,039233,001,2023-07-31_15h03.49.157,arm3_eps,2022.2.5,Win32,60.12867537,5e9ce3d90e7d212164143c80,64c7fed44a04f777bb1e18ce,64c80164ee3eec4e1c68af3c,right,1,0.75,0.2429,1,-0.00361696,0.1635,23,0,23,0,1,,,,,,,,,,
,,039233,001,2023-07-31_15h03.49.157,arm3_eps,2022.2.5,Win32,60.12867537,5e9ce3d90e7d212164143c80,64c7fed44a04f777bb1e18ce,64c80164ee3eec4e1c68af3c,up,1,0.75,0.2429,1,0,0.3472,24,0,24,0,1,,,,,,,,,,
,,039233,001,2023-07-31_15h03.49.157,arm3_eps,2022.2.5,Win32,60.12867537,5e9ce3d90e7d212164143c80,64c7fed44a04f777bb1e18ce,64c80164ee3eec4e1c68af3c,right,1,0.75,0.2429,1,0.037540839,0.8952,25,0,25,0,1,,,,,,,,,,
,,039233,001,2023-07-31_15h03.49.157,arm3_eps,2022.2.5,Win32,60.12867537,5e9ce3d90e7d212164143c80,64c7fed44a04f777bb1e18ce,64c80164ee3eec4e1c68af3c,right,1,0.75,0.2429,1,0.059120013,0.1647,26,0,26,0,1,,,,,,,,,,
,,039233,001,2023-07-31_15h03.49.157,arm3_eps,2022.2.5,Win32,60.12867537,5e9ce3d90e7d212164143c80,64c7fed44a04f777bb1e18ce,64c80164ee3eec4e1c68af3c,right,1,0.75,0.2429,1,0.069478938,0.1358,27,0,27,0,1,,,,,,,,,,
,,039233,001,2023-07-31_15h03.49.157,arm3_eps,2022.2.5,Win32,60.12867537,5e9ce3d90e7d212164143c80,64c7fed44a04f777bb1e18ce,64c80164ee3eec4e1c68af3c,right,1,0.75,0.2429,1,0.094121711,0.1448,28,0,28,0,1,,,,,,,,,,
,,039233,001,2023-07-31_15h03.49.157,arm3_eps,2022.2.5,Win32,60.12867537,5e9ce3d90e7d212164143c80,64c7fed44a04f777bb1e18ce,64c80164ee3eec4e1c68af3c,right,1,0.75,0.2429,1,0.125587529,0.1362,29,0,29,0,1,,,,,,,,,,
,,039233,001,2023-07-31_15h03.49.157,arm3_eps,2022.2.5,Win32,60.12867537,5e9ce3d90e7d212164143c80,64c7fed44a04f777bb1e18ce,64c80164ee3eec4e1c68af3c,right,1,0.75,0.2429,1,0.124267507,0.1379,30,0,30,0,1,,,,,,,,,,
,,039233,001,2023-07-31_15h03.49.157,arm3_eps,2022.2.5,Win32,60.12867537,5e9ce3d90e7d212164143c80,64c7fed44a04f777bb1e18ce,64c80164ee3eec4e1c68af3c,up,-1,0.75,0.2429,2,0,0.2465,31,0,31,0,1,,,,,,,,,,
,,039233,001,2023-07-31_15h03.49.157,arm3_eps,2022.2.5,Win32,60.12867537,5e9ce3d90e7d212164143c80,64c7fed44a04f777bb1e18ce,64c80164ee3eec4e1c68af3c,right,-1,0.75,0.2429,2,0.006615932,0.7199,32,0,32,0,1,,,,,,,,,,
,,039233,001,2023-07-31_15h03.49.157,arm3_eps,2022.2.5,Win32,60.12867537,5e9ce3d90e7d212164143c80,64c7fed44a04f777bb1e18ce,64c80164ee3eec4e1c68af3c,right,-1,0.75,0.2429,2,0.054823641,0.164,33,0,33,0,1,,,,,,,,,,
,,039233,001,2023-07-31_15h03.49.157,arm3_eps,2022.2.5,Win32,60.12867537,5e9ce3d90e7d212164143c80,64c7fed44a04f777bb1e18ce,64c80164ee3eec4e1c68af3c,right,-1,0.75,0.2429,2,0.076650162,0.1434,34,0,34,0,1,,,,,,,,,,
,,039233,001,2023-07-31_15h03.49.157,arm3_eps,2022.2.5,Win32,60.12867537,5e9ce3d90e7d212164143c80,64c7fed44a04f777bb1e18ce,64c80164ee3eec4e1c68af3c,right,-1,0.75,0.2429,2,0.071797312,0.1475,35,0,35,0,1,,,,,,,,,,
,,039233,001,2023-07-31_15h03.49.157,arm3_eps,2022.2.5,Win32,60.12867537,5e9ce3d90e7d212164143c80,64c7fed44a04f777bb1e18ce,64c80164ee3eec4e1c68af3c,right,-1,0.75,0.2429,2,0.074989373,0.1189,36,0,36,0,1,,,,,,,,,,
,,039233,001,2023-07-31_15h03.49.157,arm3_eps,2022.2.5,Win32,60.12867537,5e9ce3d90e7d212164143c80,64c7fed44a04f777bb1e18ce,64c80164ee3eec4e1c68af3c,right,-1,0.75,0.2429,2,0.077574447,0.1642,37,0,37,0,1,,,,,,,,,,
,,039233,001,2023-07-31_15h03.49.157,arm3_eps,2022.2.5,Win32,60.12867537,5e9ce3d90e7d212164143c80,64c7fed44a04f777bb1e18ce,64c80164ee3eec4e1c68af3c,right,-1,0.75,0.2429,2,0.090947819,0.1463,38,0,38,0,1,,,,,,,,,,
,,039233,001,2023-07-31_15h03.49.157,arm3_eps,2022.2.5,Win32,60.12867537,5e9ce3d90e7d212164143c80,64c7fed44a04f777bb1e18ce,64c80164ee3eec4e1c68af3c,up,-1,0.75,0.2429,1,0,0.1474,39,0,39,0,1,,,,,,,,,,
,,039233,001,2023-07-31_15h03.49.157,arm3_eps,2022.2.5,Win32,60.12867537,5e9ce3d90e7d212164143c80,64c7fed44a04f777bb1e18ce,64c80164ee3eec4e1c68af3c,right,-1,0.75,0.2429,1,0.000589926,0.475,40,0,40,0,1,,,,,,,,,,
,,039233,001,2023-07-31_15h03.49.157,arm3_eps,2022.2.5,Win32,60.12867537,5e9ce3d90e7d212164143c80,64c7fed44a04f777bb1e18ce,64c80164ee3eec4e1c68af3c,right,-1,0.75,0.2429,1,-0.01043794,0.2621,41,0,41,0,1,,,,,,,,,,
,,039233,001,2023-07-31_15h03.49.157,arm3_eps,2022.2.5,Win32,60.12867537,5e9ce3d90e7d212164143c80,64c7fed44a04f777bb1e18ce,64c80164ee3eec4e1c68af3c,right,-1,0.75,0.2429,1,-0.025111057,0.1546,42,0,42,0,1,,,,,,,,,,
,,039233,001,2023-07-31_15h03.49.157,arm3_eps,2022.2.5,Win32,60.12867537,5e9ce3d90e7d212164143c80,64c7fed44a04f777bb1e18ce,64c80164ee3eec4e1c68af3c,right,-1,0.75,0.2429,1,-0.028374674,0.147,43,0,43,0,1,,,,,,,,,,
,,039233,001,2023-07-31_15h03.49.157,arm3_eps,2022.2.5,Win32,60.12867537,5e9ce3d90e7d212164143c80,64c7fed44a04f777bb1e18ce,64c80164ee3eec4e1c68af3c,right,-1,0.75,0.2429,1,-0.067453747,0.1376,44,0,44,0,1,,,,,,,,,,
,,039233,001,2023-07-31_15h03.49.157,arm3_eps,2022.2.5,Win32,60.12867537,5e9ce3d90e7d212164143c80,64c7fed44a04f777bb1e18ce,64c80164ee3eec4e1c68af3c,right,-1,0.75,0.2429,1,-0.078372418,0.1523,45,0,45,0,1,,,,,,,,,,
,,039233,001,2023-07-31_15h03.49.157,arm3_eps,2022.2.5,Win32,60.12867537,5e9ce3d90e7d212164143c80,64c7fed44a04f777bb1e18ce,64c80164ee3eec4e1c68af3c,right,-1,0.75,0.2429,1,-0.08520291,0.1477,46,0,46,0,1,,,,,,,,,,
,,039233,001,2023-07-31_15h03.49.157,arm3_eps,2022.2.5,Win32,60.12867537,5e9ce3d90e7d212164143c80,64c7fed44a04f777bb1e18ce,64c80164ee3eec4e1c68af3c,right,-1,0.75,0.2429,1,-0.109301421,0.123,47,0,47,0,1,,,,,,,,,,
,,039233,001,2023-07-31_15h03.49.157,arm3_eps,2022.2.5,Win32,60.12867537,5e9ce3d90e7d212164143c80,64c7fed44a04f777bb1e18ce,64c80164ee3eec4e1c68af3c,right,-1,0.75,0.2429,1,-0.142000643,0.1302,48,0,48,0,1,,,,,,,,,,
,,039233,001,2023-07-31_15h03.49.157,arm3_eps,2022.2.5,Win32,60.12867537,5e9ce3d90e7d212164143c80,64c7fed44a04f777bb1e18ce,64c80164ee3eec4e1c68af3c,right,-1,0.75,0.2429,1,-0.155443744,0.1146,49,0,49,0,1,,,,,,,,,,
space,9.6026,039233,001,2023-07-31_15h03.49.157,arm3_eps,2022.2.5,Win32,60.12867537,5e9ce3d90e7d212164143c80,64c7fed44a04f777bb1e18ce,64c80164ee3eec4e1c68af3c,,,,,,,,,,,,,,,,,,,,,,
space,10.7395,039233,001,2023-07-31_15h03.49.157,arm3_eps,2022.2.5,Win32,60.12867537,5e9ce3d90e7d212164143c80,64c7fed44a04f777bb1e18ce,64c80164ee3eec4e1c68af3c,,,,,,,,,,,,,,,,,,,,,,
space,0.5929,039233,001,2023-07-31_15h03.49.157,arm3_eps,2022.2.5,Win32,60.12867537,5e9ce3d90e7d212164143c80,64c7fed44a04f777bb1e18ce,64c80164ee3eec4e1c68af3c,,,,,,,,,,,,,,,,,,,,,,
,,039233,001,2023-07-31_15h03.49.157,arm3_eps,2022.2.5,Win32,60.12867537,5e9ce3d90e7d212164143c80,64c7fed44a04f777bb1e18ce,64c80164ee3eec4e1c68af3c,right,-1,0.75,0.05,0,0.015534189,0.625,0,0,0,0,1,,,,,,,,,,
,,039233,001,2023-07-31_15h03.49.157,arm3_eps,2022.2.5,Win32,60.12867537,5e9ce3d90e7d212164143c80,64c7fed44a04f777bb1e18ce,64c80164ee3eec4e1c68af3c,right,-1,0.75,0.05,0,-0.031088256,0.1835,1,0,1,0,1,,,,,,,,,,
,,039233,001,2023-07-31_15h03.49.157,arm3_eps,2022.2.5,Win32,60.12867537,5e9ce3d90e7d212164143c80,64c7fed44a04f777bb1e18ce,64c80164ee3eec4e1c68af3c,right,-1,0.75,0.05,0,-0.056724871,0.1306,2,0,2,0,1,,,,,,,,,,
,,039233,001,2023-07-31_15h03.49.157,arm3_eps,2022.2.5,Win32,60.12867537,5e9ce3d90e7d212164143c80,64c7fed44a04f777bb1e18ce,64c80164ee3eec4e1c68af3c,right,-1,0.75,0.05,0,-0.087624601,0.1466,3,0,3,0,1,,,,,,,,,,
,,039233,001,2023-07-31_15h03.49.157,arm3_eps,2022.2.5,Win32,60.12867537,5e9ce3d90e7d212164143c80,64c7fed44a04f777bb1e18ce,64c80164ee3eec4e1c68af3c,right,-1,0.75,0.05,0,-0.083632127,0.1216,4,0,4,0,1,,,,,,,,,,
,,039233,001,2023-07-31_15h03.49.157,arm3_eps,2022.2.5,Win32,60.12867537,5e9ce3d90e7d212164143c80,64c7fed44a04f777bb1e18ce,64c80164ee3eec4e1c68af3c,right,-1,0.75,0.05,0,-0.080295186,0.1521,5,0,5,0,1,,,,,,,,,,
,,039233,001,2023-07-31_15h03.49.157,arm3_eps,2022.2.5,Win32,60.12867537,5e9ce3d90e7d212164143c80,64c7fed44a04f777bb1e18ce,64c80164ee3eec4e1c68af3c,right,-1,0.75,0.05,0,-0.093648834,0.1389,6,0,6,0,1,,,,,,,,,,
,,039233,001,2023-07-31_15h03.49.157,arm3_eps,2022.2.5,Win32,60.12867537,5e9ce3d90e7d212164143c80,64c7fed44a04f777bb1e18ce,64c80164ee3eec4e1c68af3c,right,-1,0.75,0.05,0,-0.101386676,0.1396,7,0,7,0,1,,,,,,,,,,
,,039233,001,2023-07-31_15h03.49.157,arm3_eps,2022.2.5,Win32,60.12867537,5e9ce3d90e7d212164143c80,64c7fed44a04f777bb1e18ce,64c80164ee3eec4e1c68af3c,down,-1,0.75,0.05,1,0,0.213,8,0,8,0,1,,,,,,,,,,
,,039233,001,2023-07-31_15h03.49.157,arm3_eps,2022.2.5,Win32,60.12867537,5e9ce3d90e7d212164143c80,64c7fed44a04f777bb1e18ce,64c80164ee3eec4e1c68af3c,right,-1,0.75,0.05,1,0.011538087,0.805,9,0,9,0,1,,,,,,,,,,
,,039233,001,2023-07-31_15h03.49.157,arm3_eps,2022.2.5,Win32,60.12867537,5e9ce3d90e7d212164143c80,64c7fed44a04f777bb1e18ce,64c80164ee3eec4e1c68af3c,right,-1,0.75,0.05,1,-0.016755177,0.2955,10,0,10,0,1,,,,,,,,,,
,,039233,001,2023-07-31_15h03.49.157,arm3_eps,2022.2.5,Win32,60.12867537,5e9ce3d90e7d212164143c80,64c7fed44a04f777bb1e18ce,64c80164ee3eec4e1c68af3c,right,-1,0.75,0.05,1,-0.029311472,0.1965,11,0,11,0,1,,,,,,,,,,
,,039233,001,2023-07-31_15h03.49.157,arm3_eps,2022.2.5,Win32,60.12867537,5e9ce3d90e7d212164143c80,64c7fed44a04f777bb1e18ce,64c80164ee3eec4e1c68af3c,right,-1,0.75,0.05,1,-0.015578902,0.1009,12,0,12,0,1,,,,,,,,,,
,,039233,001,2023-07-31_15h03.49.157,arm3_eps,2022.2.5,Win32,60.12867537,5e9ce3d90e7d212164143c80,64c7fed44a04f777bb1e18ce,64c80164ee3eec4e1c68af3c,right,-1,0.75,0.05,1,-0.039994774,0.1346,13,0,13,0,1,,,,,,,,,,
,,039233,001,2023-07-31_15h03.49.157,arm3_eps,2022.2.5,Win32,60.12867537,5e9ce3d90e7d212164143c80,64c7fed44a04f777bb1e18ce,64c80164ee3eec4e1c68af3c,right,-1,0.75,0.05,1,-0.045188063,0.114,14,0,14,0,1,,,,,,,,,,
,,039233,001,2023-07-31_15h03.49.157,arm3_eps,2022.2.5,Win32,60.12867537,5e9ce3d90e7d212164143c80,64c7fed44a04f777bb1e18ce,64c80164ee3eec4e1c68af3c,right,-1,0.75,0.05,1,-0.042265458,0.1198,15,0,15,0,1,,,,,,,,,,
,,039233,001,2023-07-31_15h03.49.157,arm3_eps,2022.2.5,Win32,60.12867537,5e9ce3d90e7d212164143c80,64c7fed44a04f777bb1e18ce,64c80164ee3eec4e1c68af3c,right,-1,0.75,0.05,1,-0.055700153,0.13,16,0,16,0,1,,,,,,,,,,
,,039233,001,2023-07-31_15h03.49.157,arm3_eps,2022.2.5,Win32,60.12867537,5e9ce3d90e7d212164143c80,64c7fed44a04f777bb1e18ce,64c80164ee3eec4e1c68af3c,right,-1,0.75,0.05,1,-0.043465754,0.13,17,0,17,0,1,,,,,,,,,,
,,039233,001,2023-07-31_15h03.49.157,arm3_eps,2022.2.5,Win32,60.12867537,5e9ce3d90e7d212164143c80,64c7fed44a04f777bb1e18ce,64c80164ee3eec4e1c68af3c,right,-1,0.75,0.05,1,-0.088951749,0.1543,18,0,18,0,1,,,,,,,,,,
,,039233,001,2023-07-31_15h03.49.157,arm3_eps,2022.2.5,Win32,60.12867537,5e9ce3d90e7d212164143c80,64c7fed44a04f777bb1e18ce,64c80164ee3eec4e1c68af3c,down,-1,0.75,0.05,2,0,0.2359,19,0,19,0,1,,,,,,,,,,
,,039233,001,2023-07-31_15h03.49.157,arm3_eps,2022.2.5,Win32,60.12867537,5e9ce3d90e7d212164143c80,64c7fed44a04f777bb1e18ce,64c80164ee3eec4e1c68af3c,right,-1,0.75,0.05,2,-0.020536122,0.7877,20,0,20,0,1,,,,,,,,,,
,,039233,001,2023-07-31_15h03.49.157,arm3_eps,2022.2.5,Win32,60.12867537,5e9ce3d90e7d212164143c80,64c7fed44a04f777bb1e18ce,64c80164ee3eec4e1c68af3c,right,-1,0.75,0.05,2,-0.037361789,0.1464,21,0,21,0,1,,,,,,,,,,
,,039233,001,2023-07-31_15h03.49.157,arm3_eps,2022.2.5,Win32,60.12867537,5e9ce3d90e7d212164143c80,64c7fed44a04f777bb1e18ce,64c80164ee3eec4e1c68af3c,right,-1,0.75,0.05,2,-0.052947637,0.1313,22,0,22,0,1,,,,,,,,,,
,,039233,001,2023-07-31_15h03.49.157,arm3_eps,2022.2.5,Win32,60.12867537,5e9ce3d90e7d212164143c80,64c7fed44a04f777bb1e18ce,64c80164ee3eec4e1c68af3c,right,-1,0.75,0.05,2,-0.07317232,0.1464,23,0,23,0,1,,,,,,,,,,
,,039233,001,2023-07-31_15h03.49.157,arm3_eps,2022.2.5,Win32,60.12867537,5e9ce3d90e7d212164143c80,64c7fed44a04f777bb1e18ce,64c80164ee3eec4e1c68af3c,right,-1,0.75,0.05,2,-0.095776575,0.1315,24,0,24,0,1,,,,,,,,,,
,,039233,001,2023-07-31_15h03.49.157,arm3_eps,2022.2.5,Win32,60.12867537,5e9ce3d90e7d212164143c80,64c7fed44a04f777bb1e18ce,64c80164ee3eec4e1c68af3c,right,-1,0.75,0.05,2,-0.110136746,0.1188,25,0,25,0,1,,,,,,,,,,
,,039233,001,2023-07-31_15h03.49.157,arm3_eps,2022.2.5,Win32,60.12867537,5e9ce3d90e7d212164143c80,64c7fed44a04f777bb1e18ce,64c80164ee3eec4e1c68af3c,right,-1,0.75,0.05,2,-0.132703166,0.1395,26,0,26,0,1,,,,,,,,,,
,,039233,001,2023-07-31_15h03.49.157,arm3_eps,2022.2.5,Win32,60.12867537,5e9ce3d90e7d212164143c80,64c7fed44a04f777bb1e18ce,64c80164ee3eec4e1c68af3c,down,-1,0.75,0.05,2,0,0.1959,27,0,27,0,1,,,,,,,,,,
,,039233,001,2023-07-31_15h03.49.157,arm3_eps,2022.2.5,Win32,60.12867537,5e9ce3d90e7d212164143c80,64c7fed44a04f777bb1e18ce,64c80164ee3eec4e1c68af3c,right,-1,0.75,0.05,2,-0.0129132,0.789,28,0,28,0,1,,,,,,,,,,
,,039233,001,2023-07-31_15h03.49.157,arm3_eps,2022.2.5,Win32,60.12867537,5e9ce3d90e7d212164143c80,64c7fed44a04f777bb1e18ce,64c80164ee3eec4e1c68af3c,right,-1,0.75,0.05,2,-0.04667378,0.5853,29,0,29,0,1,,,,,,,,,,
,,039233,001,2023-07-31_15h03.49.157,arm3_eps,2022.2.5,Win32,60.12867537,5e9ce3d90e7d212164143c80,64c7fed44a04f777bb1e18ce,64c80164ee3eec4e1c68af3c,right,-1,0.75,0.05,2,-0.0836352,0.1456,30,0,30,0,1,,,,,,,,,,
,,039233,001,2023-07-31_15h03.49.157,arm3_eps,2022.2.5,Win32,60.12867537,5e9ce3d90e7d212164143c80,64c7fed44a04f777bb1e18ce,64c80164ee3eec4e1c68af3c,right,-1,0.75,0.05,2,-0.079600083,0.1157,31,0,31,0,1,,,,,,,,,,
,,039233,001,2023-07-31_15h03.49.157,arm3_eps,2022.2.5,Win32,60.12867537,5e9ce3d90e7d212164143c80,64c7fed44a04f777bb1e18ce,64c80164ee3eec4e1c68af3c,right,-1,0.75,0.05,2,-0.089471423,0.131,32,0,32,0,1,,,,,,,,,,
,,039233,001,2023-07-31_15h03.49.157,arm3_eps,2022.2.5,Win32,60.12867537,5e9ce3d90e7d212164143c80,64c7fed44a04f777bb1e18ce,64c80164ee3eec4e1c68af3c,right,-1,0.75,0.05,2,-0.094480684,0.1139,33,0,33,0,1,,,,,,,,,,
,,039233,001,2023-07-31_15h03.49.157,arm3_eps,2022.2.5,Win32,60.12867537,5e9ce3d90e7d212164143c80,64c7fed44a04f777bb1e18ce,64c80164ee3eec4e1c68af3c,right,-1,0.75,0.05,2,-0.094947805,0.1302,34,0,34,0,1,,,,,,,,,,
,,039233,001,2023-07-31_15h03.49.157,arm3_eps,2022.2.5,Win32,60.12867537,5e9ce3d90e7d212164143c80,64c7fed44a04f777bb1e18ce,64c80164ee3eec4e1c68af3c,right,-1,0.75,0.05,2,-0.105050658,0.1309,35,0,35,0,1,,,,,,,,,,
,,039233,001,2023-07-31_15h03.49.157,arm3_eps,2022.2.5,Win32,60.12867537,5e9ce3d90e7d212164143c80,64c7fed44a04f777bb1e18ce,64c80164ee3eec4e1c68af3c,right,-1,0.75,0.05,2,-0.108688285,0.1212,36,0,36,0,1,,,,,,,,,,
,,039233,001,2023-07-31_15h03.49.157,arm3_eps,2022.2.5,Win32,60.12867537,5e9ce3d90e7d212164143c80,64c7fed44a04f777bb1e18ce,64c80164ee3eec4e1c68af3c,down,-1,0.75,0.05,2,0,0.4152,37,0,37,0,1,,,,,,,,,,
,,039233,001,2023-07-31_15h03.49.157,arm3_eps,2022.2.5,Win32,60.12867537,5e9ce3d90e7d212164143c80,64c7fed44a04f777bb1e18ce,64c80164ee3eec4e1c68af3c,right,-1,0.75,0.05,2,-0.018786159,0.7708,38,0,38,0,1,,,,,,,,,,
,,039233,001,2023-07-31_15h03.49.157,arm3_eps,2022.2.5,Win32,60.12867537,5e9ce3d90e7d212164143c80,64c7fed44a04f777bb1e18ce,64c80164ee3eec4e1c68af3c,right,-1,0.75,0.05,2,0.013266232,0.1462,39,0,39,0,1,,,,,,,,,,
,,039233,001,2023-07-31_15h03.49.157,arm3_eps,2022.2.5,Win32,60.12867537,5e9ce3d90e7d212164143c80,64c7fed44a04f777bb1e18ce,64c80164ee3eec4e1c68af3c,right,-1,0.75,0.05,2,-0.020128175,0.1309,40,0,40,0,1,,,,,,,,,,
,,039233,001,2023-07-31_15h03.49.157,arm3_eps,2022.2.5,Win32,60.12867537,5e9ce3d90e7d212164143c80,64c7fed44a04f777bb1e18ce,64c80164ee3eec4e1c68af3c,right,-1,0.75,0.05,2,-0.032448609,0.1558,41,0,41,0,1,,,,,,,,,,
,,039233,001,2023-07-31_15h03.49.157,arm3_eps,2022.2.5,Win32,60.12867537,5e9ce3d90e7d212164143c80,64c7fed44a04f777bb1e18ce,64c80164ee3eec4e1c68af3c,right,-1,0.75,0.05,2,-0.073941939,0.1226,42,0,42,0,1,,,,,,,,,,
,,039233,001,2023-07-31_15h03.49.157,arm3_eps,2022.2.5,Win32,60.12867537,5e9ce3d90e7d212164143c80,64c7fed44a04f777bb1e18ce,64c80164ee3eec4e1c68af3c,right,-1,0.75,0.05,2,-0.119706426,0.1379,43,0,43,0,1,,,,,,,,,,
,,039233,001,2023-07-31_15h03.49.157,arm3_eps,2022.2.5,Win32,60.12867537,5e9ce3d90e7d212164143c80,64c7fed44a04f777bb1e18ce,64c80164ee3eec4e1c68af3c,down,-1,0.75,0.05,2,0,0.263,44,0,44,0,1,,,,,,,,,,
,,039233,001,2023-07-31_15h03.49.157,arm3_eps,2022.2.5,Win32,60.12867537,5e9ce3d90e7d212164143c80,64c7fed44a04f777bb1e18ce,64c80164ee3eec4e1c68af3c,right,-1,0.75,0.05,2,0.024127834,0.8069,45,0,45,0,1,,,,,,,,,,
,,039233,001,2023-07-31_15h03.49.157,arm3_eps,2022.2.5,Win32,60.12867537,5e9ce3d90e7d212164143c80,64c7fed44a04f777bb1e18ce,64c80164ee3eec4e1c68af3c,right,-1,0.75,0.05,2,0.00442043,0.1303,46,0,46,0,1,,,,,,,,,,
,,039233,001,2023-07-31_15h03.49.157,arm3_eps,2022.2.5,Win32,60.12867537,5e9ce3d90e7d212164143c80,64c7fed44a04f777bb1e18ce,64c80164ee3eec4e1c68af3c,right,-1,0.75,0.05,2,-0.020815997,0.1367,47,0,47,0,1,,,,,,,,,,
,,039233,001,2023-07-31_15h03.49.157,arm3_eps,2022.2.5,Win32,60.12867537,5e9ce3d90e7d212164143c80,64c7fed44a04f777bb1e18ce,64c80164ee3eec4e1c68af3c,right,-1,0.75,0.05,2,-0.009421715,0.1542,48,0,48,0,1,,,,,,,,,,
,,039233,001,2023-07-31_15h03.49.157,arm3_eps,2022.2.5,Win32,60.12867537,5e9ce3d90e7d212164143c80,64c7fed44a04f777bb1e18ce,64c80164ee3eec4e1c68af3c,right,-1,0.75,0.05,2,0.011130246,0.1465,49,0,49,0,1,,,,,,,,,,
space,6.7031,039233,001,2023-07-31_15h03.49.157,arm3_eps,2022.2.5,Win32,60.12867537,5e9ce3d90e7d212164143c80,64c7fed44a04f777bb1e18ce,64c80164ee3eec4e1c68af3c,,,,,,,,,,,,,,,,,,,,,,
space,0.6167,039233,001,2023-07-31_15h03.49.157,arm3_eps,2022.2.5,Win32,60.12867537,5e9ce3d90e7d212164143c80,64c7fed44a04f777bb1e18ce,64c80164ee3eec4e1c68af3c,,,,,,,,,,,,,,,,,,,,,,
,,039233,001,2023-07-31_15h03.49.157,arm3_eps,2022.2.5,Win32,60.12867537,5e9ce3d90e7d212164143c80,64c7fed44a04f777bb1e18ce,64c80164ee3eec4e1c68af3c,right,-1,0.75,0.5,0,-0.005066067,0.3017,0,0,0,0,1,,,,,,,,,,
,,039233,001,2023-07-31_15h03.49.157,arm3_eps,2022.2.5,Win32,60.12867537,5e9ce3d90e7d212164143c80,64c7fed44a04f777bb1e18ce,64c80164ee3eec4e1c68af3c,right,-1,0.75,0.5,0,-0.022320974,0.1503,1,0,1,0,1,,,,,,,,,,
,,039233,001,2023-07-31_15h03.49.157,arm3_eps,2022.2.5,Win32,60.12867537,5e9ce3d90e7d212164143c80,64c7fed44a04f777bb1e18ce,64c80164ee3eec4e1c68af3c,right,-1,0.75,0.5,0,-0.021691855,0.1382,2,0,2,0,1,,,,,,,,,,
,,039233,001,2023-07-31_15h03.49.157,arm3_eps,2022.2.5,Win32,60.12867537,5e9ce3d90e7d212164143c80,64c7fed44a04f777bb1e18ce,64c80164ee3eec4e1c68af3c,right,-1,0.75,0.5,0,-0.042662181,0.1368,3,0,3,0,1,,,,,,,,,,
,,039233,001,2023-07-31_15h03.49.157,arm3_eps,2022.2.5,Win32,60.12867537,5e9ce3d90e7d212164143c80,64c7fed44a04f777bb1e18ce,64c80164ee3eec4e1c68af3c,right,-1,0.75,0.5,0,-0.026123688,0.1297,4,0,4,0,1,,,,,,,,,,
,,039233,001,2023-07-31_15h03.49.157,arm3_eps,2022.2.5,Win32,60.12867537,5e9ce3d90e7d212164143c80,64c7fed44a04f777bb1e18ce,64c80164ee3eec4e1c68af3c,right,-1,0.75,0.5,0,-0.017134367,0.1301,5,0,5,0,1,,,,,,,,,,
,,039233,001,2023-07-31_15h03.49.157,arm3_eps,2022.2.5,Win32,60.12867537,5e9ce3d90e7d212164143c80,64c7fed44a04f777bb1e18ce,64c80164ee3eec4e1c68af3c,right,-1,0.75,0.5,0,-0.025947206,0.1291,6,0,6,0,1,,,,,,,,,,
,,039233,001,2023-07-31_15h03.49.157,arm3_eps,2022.2.5,Win32,60.12867537,5e9ce3d90e7d212164143c80,64c7fed44a04f777bb1e18ce,64c80164ee3eec4e1c68af3c,right,-1,0.75,0.5,0,-0.05446526,0.1319,7,0,7,0,1,,,,,,,,,,
,,039233,001,2023-07-31_15h03.49.157,arm3_eps,2022.2.5,Win32,60.12867537,5e9ce3d90e7d212164143c80,64c7fed44a04f777bb1e18ce,64c80164ee3eec4e1c68af3c,right,-1,0.75,0.5,0,-0.062029282,0.1472,8,0,8,0,1,,,,,,,,,,
,,039233,001,2023-07-31_15h03.49.157,arm3_eps,2022.2.5,Win32,60.12867537,5e9ce3d90e7d212164143c80,64c7fed44a04f777bb1e18ce,64c80164ee3eec4e1c68af3c,down,1,0.75,0.5,1,0,0.8449,9,0,9,0,1,,,,,,,,,,
,,039233,001,2023-07-31_15h03.49.157,arm3_eps,2022.2.5,Win32,60.12867537,5e9ce3d90e7d212164143c80,64c7fed44a04f777bb1e18ce,64c80164ee3eec4e1c68af3c,right,1,0.75,0.5,1,0.016242014,0.6956,10,0,10,0,1,,,,,,,,,,
,,039233,001,2023-07-31_15h03.49.157,arm3_eps,2022.2.5,Win32,60.12867537,5e9ce3d90e7d212164143c80,64c7fed44a04f777bb1e18ce,64c80164ee3eec4e1c68af3c,right,1,0.75,0.5,1,-0.005189577,0.3216,11,0,11,0,1,,,,,,,,,,
,,039233,001,2023-07-31_15h03.49.157,arm3_eps,2022.2.5,Win32,60.12867537,5e9ce3d90e7d212164143c80,64c7fed44a04f777bb1e18ce,64c80164ee3eec4e1c68af3c,right,1,0.75,0.5,1,0.012910905,0.1454,12,0,12,0,1,,,,,,,,,,
,,039233,001,2023-07-31_15h03.49.157,arm3_eps,2022.2.5,Win32,60.12867537,5e9ce3d90e7d212164143c80,64c7fed44a04f777bb1e18ce,64c80164ee3eec4e1c68af3c,right,1,0.75,0.5,1,0.044267267,0.1123,13,0,13,0,1,,,,,,,,,,
,,039233,001,2023-07-31_15h03.49.157,arm3_eps,2022.2.5,Win32,60.12867537,5e9ce3d90e7d212164143c80,64c7fed44a04f777bb1e18ce,64c80164ee3eec4e1c68af3c,right,1,0.75,0.5,1,0.050088227,0.134,14,0,14,0,1,,,,,,,,,,
,,039233,001,2023-07-31_15h03.49.157,arm3_eps,2022.2.5,Win32,60.12867537,5e9ce3d90e7d212164143c80,64c7fed44a04f777bb1e18ce,64c80164ee3eec4e1c68af3c,right,1,0.75,0.5,1,0.055247955,0.1297,15,0,15,0,1,,,,,,,,,,
,,039233,001,2023-07-31_15h03.49.157,arm3_eps,2022.2.5,Win32,60.12867537,5e9ce3d90e7d212164143c80,64c7fed44a04f777bb1e18ce,64c80164ee3eec4e1c68af3c,right,1,0.75,0.5,1,0.064386754,0.112,16,0,16,0,1,,,,,,,,,,
,,039233,001,2023-07-31_15h03.49.157,arm3_eps,2022.2.5,Win32,60.12867537,5e9ce3d90e7d212164143c80,64c7fed44a04f777bb1e18ce,64c80164ee3eec4e1c68af3c,right,1,0.75,0.5,1,0.068160194,0.1465,17,0,17,0,1,,,,,,,,,,
,,039233,001,2023-07-31_15h03.49.157,arm3_eps,2022.2.5,Win32,60.12867537,5e9ce3d90e7d212164143c80,64c7fed44a04f777bb1e18ce,64c80164ee3eec4e1c68af3c,right,1,0.75,0.5,1,0.076631216,0.1181,18,0,18,0,1,,,,,,,,,,
,,039233,001,2023-07-31_15h03.49.157,arm3_eps,2022.2.5,Win32,60.12867537,5e9ce3d90e7d212164143c80,64c7fed44a04f777bb1e18ce,64c80164ee3eec4e1c68af3c,right,1,0.75,0.5,1,0.079641359,0.1455,19,0,19,0,1,,,,,,,,,,
,,039233,001,2023-07-31_15h03.49.157,arm3_eps,2022.2.5,Win32,60.12867537,5e9ce3d90e7d212164143c80,64c7fed44a04f777bb1e18ce,64c80164ee3eec4e1c68af3c,up,-1,0.75,0.5,2,0,0.5118,20,0,20,0,1,,,,,,,,,,
,,039233,001,2023-07-31_15h03.49.157,arm3_eps,2022.2.5,Win32,60.12867537,5e9ce3d90e7d212164143c80,64c7fed44a04f777bb1e18ce,64c80164ee3eec4e1c68af3c,right,-1,0.75,0.5,2,-0.012949245,0.6211,21,0,21,0,1,,,,,,,,,,
,,039233,001,2023-07-31_15h03.49.157,arm3_eps,2022.2.5,Win32,60.12867537,5e9ce3d90e7d212164143c80,64c7fed44a04f777bb1e18ce,64c80164ee3eec4e1c68af3c,right,-1,0.75,0.5,2,-0.018374952,0.1652,22,0,22,0,1,,,,,,,,,,
,,039233,001,2023-07-31_15h03.49.157,arm3_eps,2022.2.5,Win32,60.12867537,5e9ce3d90e7d212164143c80,64c7fed44a04f777bb1e18ce,64c80164ee3eec4e1c68af3c,right,-1,0.75,0.5,2,-0.03849603,0.113,23,0,23,0,1,,,,,,,,,,
,,039233,001,2023-07-31_15h03.49.157,arm3_eps,2022.2.5,Win32,60.12867537,5e9ce3d90e7d212164143c80,64c7fed44a04f777bb1e18ce,64c80164ee3eec4e1c68af3c,right,-1,0.75,0.5,2,-0.020573378,0.1356,24,0,24,0,1,,,,,,,,,,
,,039233,001,2023-07-31_15h03.49.157,arm3_eps,2022.2.5,Win32,60.12867537,5e9ce3d90e7d212164143c80,64c7fed44a04f777bb1e18ce,64c80164ee3eec4e1c68af3c,right,-1,0.75,0.5,2,0.001920762,0.1466,25,0,25,0,1,,,,,,,,,,
,,039233,001,2023-07-31_15h03.49.157,arm3_eps,2022.2.5,Win32,60.12867537,5e9ce3d90e7d212164143c80,64c7fed44a04f777bb1e18ce,64c80164ee3eec4e1c68af3c,right,-1,0.75,0.5,2,0.02304339,0.1233,26,0,26,0,1,,,,,,,,,,
,,039233,001,2023-07-31_15h03.49.157,arm3_eps,2022.2.5,Win32,60.12867537,5e9ce3d90e7d212164143c80,64c7fed44a04f777bb1e18ce,64c80164ee3eec4e1c68af3c,right,-1,0.75,0.5,2,0.006130156,0.1514,27,0,27,0,1,,,,,,,,,,
,,039233,001,2023-07-31_15h03.49.157,arm3_eps,2022.2.5,Win32,60.12867537,5e9ce3d90e7d212164143c80,64c7fed44a04f777bb1e18ce,64c80164ee3eec4e1c68af3c,right,-1,0.75,0.5,2,-0.001167317,0.146,28,0,28,0,1,,,,,,,,,,
,,039233,001,2023-07-31_15h03.49.157,arm3_eps,2022.2.5,Win32,60.12867537,5e9ce3d90e7d212164143c80,64c7fed44a04f777bb1e18ce,64c80164ee3eec4e1c68af3c,right,-1,0.75,0.5,2,0.005530031,0.1124,29,0,29,0,1,,,,,,,,,,
,,039233,001,2023-07-31_15h03.49.157,arm3_eps,2022.2.5,Win32,60.12867537,5e9ce3d90e7d212164143c80,64c7fed44a04f777bb1e18ce,64c80164ee3eec4e1c68af3c,right,-1,0.75,0.5,2,0.011974758,0.145,30,0,30,0,1,,,,,,,,,,
,,039233,001,2023-07-31_15h03.49.157,arm3_eps,2022.2.5,Win32,60.12867537,5e9ce3d90e7d212164143c80,64c7fed44a04f777bb1e18ce,64c80164ee3eec4e1c68af3c,right,-1,0.75,0.5,2,0.006860942,0.1455,31,0,31,0,1,,,,,,,,,,
,,039233,001,2023-07-31_15h03.49.157,arm3_eps,2022.2.5,Win32,60.12867537,5e9ce3d90e7d212164143c80,64c7fed44a04f777bb1e18ce,64c80164ee3eec4e1c68af3c,right,-1,0.75,0.5,2,0.020182156,0.1296,32,0,32,0,1,,,,,,,,,,
,,039233,001,2023-07-31_15h03.49.157,arm3_eps,2022.2.5,Win32,60.12867537,5e9ce3d90e7d212164143c80,64c7fed44a04f777bb1e18ce,64c80164ee3eec4e1c68af3c,up,-1,0.75,0.5,1,0,0.614,33,0,33,0,1,,,,,,,,,,
,,039233,001,2023-07-31_15h03.49.157,arm3_eps,2022.2.5,Win32,60.12867537,5e9ce3d90e7d212164143c80,64c7fed44a04f777bb1e18ce,64c80164ee3eec4e1c68af3c,right,-1,0.75,0.5,1,-0.069041726,0.9286,34,0,34,0,1,,,,,,,,,,
,,039233,001,2023-07-31_15h03.49.157,arm3_eps,2022.2.5,Win32,60.12867537,5e9ce3d90e7d212164143c80,64c7fed44a04f777bb1e18ce,64c80164ee3eec4e1c68af3c,right,-1,0.75,0.5,1,-0.048177875,0.2313,35,0,35,0,1,,,,,,,,,,
,,039233,001,2023-07-31_15h03.49.157,arm3_eps,2022.2.5,Win32,60.12867537,5e9ce3d90e7d212164143c80,64c7fed44a04f777bb1e18ce,64c80164ee3eec4e1c68af3c,right,-1,0.75,0.5,1,-0.022422376,0.3529,36,0,36,0,1,,,,,,,,,,
,,039233,001,2023-07-31_15h03.49.157,arm3_eps,2022.2.5,Win32,60.12867537,5e9ce3d90e7d212164143c80,64c7fed44a04f777bb1e18ce,64c80164ee3eec4e1c68af3c,right,-1,0.75,0.5,1,-0.014147705,0.1467,37,0,37,0,1,,,,,,,,,,
,,039233,001,2023-07-31_15h03.49.157,arm3_eps,2022.2.5,Win32,60.12867537,5e9ce3d90e7d212164143c80,64c7fed44a04f777bb1e18ce,64c80164ee3eec4e1c68af3c,right,-1,0.75,0.5,1,-0.011749687,0.1344,38,0,38,0,1,,,,,,,,,,
,,039233,001,2023-07-31_15h03.49.157,arm3_eps,2022.2.5,Win32,60.12867537,5e9ce3d90e7d212164143c80,64c7fed44a04f777bb1e18ce,64c80164ee3eec4e1c68af3c,right,-1,0.75,0.5,1,-0.052634568,0.1344,39,0,39,0,1,,,,,,,,,,
,,039233,001,2023-07-31_15h03.49.157,arm3_eps,2022.2.5,Win32,60.12867537,5e9ce3d90e7d212164143c80,64c7fed44a04f777bb1e18ce,64c80164ee3eec4e1c68af3c,right,-1,0.75,0.5,1,-0.074857115,0.1289,40,0,40,0,1,,,,,,,,,,
,,039233,001,2023-07-31_15h03.49.157,arm3_eps,2022.2.5,Win32,60.12867537,5e9ce3d90e7d212164143c80,64c7fed44a04f777bb1e18ce,64c80164ee3eec4e1c68af3c,right,-1,0.75,0.5,1,-0.082094702,0.1368,41,0,41,0,1,,,,,,,,,,
,,039233,001,2023-07-31_15h03.49.157,arm3_eps,2022.2.5,Win32,60.12867537,5e9ce3d90e7d212164143c80,64c7fed44a04f777bb1e18ce,64c80164ee3eec4e1c68af3c,right,-1,0.75,0.5,1,-0.100045372,0.1452,42,0,42,0,1,,,,,,,,,,
,,039233,001,2023-07-31_15h03.49.157,arm3_eps,2022.2.5,Win32,60.12867537,5e9ce3d90e7d212164143c80,64c7fed44a04f777bb1e18ce,64c80164ee3eec4e1c68af3c,right,-1,0.75,0.5,1,-0.114529107,0.1253,43,0,43,0,1,,,,,,,,,,
,,039233,001,2023-07-31_15h03.49.157,arm3_eps,2022.2.5,Win32,60.12867537,5e9ce3d90e7d212164143c80,64c7fed44a04f777bb1e18ce,64c80164ee3eec4e1c68af3c,down,1,0.75,0.5,2,0,0.1278,44,0,44,0,1,,,,,,,,,,
,,039233,001,2023-07-31_15h03.49.157,arm3_eps,2022.2.5,Win32,60.12867537,5e9ce3d90e7d212164143c80,64c7fed44a04f777bb1e18ce,64c80164ee3eec4e1c68af3c,right,1,0.75,0.5,2,-0.002748992,0.3142,45,0,45,0,1,,,,,,,,,,
,,039233,001,2023-07-31_15h03.49.157,arm3_eps,2022.2.5,Win32,60.12867537,5e9ce3d90e7d212164143c80,64c7fed44a04f777bb1e18ce,64c80164ee3eec4e1c68af3c,right,1,0.75,0.5,2,0.025706508,0.1416,46,0,46,0,1,,,,,,,,,,
,,039233,001,2023-07-31_15h03.49.157,arm3_eps,2022.2.5,Win32,60.12867537,5e9ce3d90e7d212164143c80,64c7fed44a04f777bb1e18ce,64c80164ee3eec4e1c68af3c,right,1,0.75,0.5,2,0.053794579,0.1464,47,0,47,0,1,,,,,,,,,,
,,039233,001,2023-07-31_15h03.49.157,arm3_eps,2022.2.5,Win32,60.12867537,5e9ce3d90e7d212164143c80,64c7fed44a04f777bb1e18ce,64c80164ee3eec4e1c68af3c,right,1,0.75,0.5,2,0.064720481,0.2852,48,0,48,0,1,,,,,,,,,,
,,039233,001,2023-07-31_15h03.49.157,arm3_eps,2022.2.5,Win32,60.12867537,5e9ce3d90e7d212164143c80,64c7fed44a04f777bb1e18ce,64c80164ee3eec4e1c68af3c,right,1,0.75,0.5,2,0.141041471,0.129,49,0,49,0,1,,,,,,,,,,
space,0.9915,039233,001,2023-07-31_15h03.49.157,arm3_eps,2022.2.5,Win32,60.12867537,5e9ce3d90e7d212164143c80,64c7fed44a04f777bb1e18ce,64c80164ee3eec4e1c68af3c,,,,,,,,,,,,,,,,,,,,,,
space,3.985,039233,001,2023-07-31_15h03.49.157,arm3_eps,2022.2.5,Win32,60.12867537,5e9ce3d90e7d212164143c80,64c7fed44a04f777bb1e18ce,64c80164ee3eec4e1c68af3c,right,1,0.75,0.1786,0,0.031096225,0.4257,,,,,,0,0,0,0,1,,,,,
,,039233,001,2023-07-31_15h03.49.157,arm3_eps,2022.2.5,Win32,60.12867537,5e9ce3d90e7d212164143c80,64c7fed44a04f777bb1e18ce,64c80164ee3eec4e1c68af3c,right,1,0.75,0.1786,0,0.008050038,0.0786,,,,,,1,0,1,0,1,,,,,
,,039233,001,2023-07-31_15h03.49.157,arm3_eps,2022.2.5,Win32,60.12867537,5e9ce3d90e7d212164143c80,64c7fed44a04f777bb1e18ce,64c80164ee3eec4e1c68af3c,right,1,0.75,0.1786,0,0.037635874,0.1337,,,,,,2,0,2,0,1,,,,,
,,039233,001,2023-07-31_15h03.49.157,arm3_eps,2022.2.5,Win32,60.12867537,5e9ce3d90e7d212164143c80,64c7fed44a04f777bb1e18ce,64c80164ee3eec4e1c68af3c,right,1,0.75,0.1786,0,0.059343861,0.1434,,,,,,3,0,3,0,1,,,,,
,,039233,001,2023-07-31_15h03.49.157,arm3_eps,2022.2.5,Win32,60.12867537,5e9ce3d90e7d212164143c80,64c7fed44a04f777bb1e18ce,64c80164ee3eec4e1c68af3c,right,1,0.75,0.1786,0,0.063016511,0.1207,,,,,,4,0,4,0,1,,,,,
,,039233,001,2023-07-31_15h03.49.157,arm3_eps,2022.2.5,Win32,60.12867537,5e9ce3d90e7d212164143c80,64c7fed44a04f777bb1e18ce,64c80164ee3eec4e1c68af3c,right,1,0.75,0.1786,0,0.094063853,0.1306,,,,,,5,0,5,0,1,,,,,
,,039233,001,2023-07-31_15h03.49.157,arm3_eps,2022.2.5,Win32,60.12867537,5e9ce3d90e7d212164143c80,64c7fed44a04f777bb1e18ce,64c80164ee3eec4e1c68af3c,up,1,0.75,0.1786,0,0,0.1864,,,,,,6,0,6,0,1,,,,,
,,039233,001,2023-07-31_15h03.49.157,arm3_eps,2022.2.5,Win32,60.12867537,5e9ce3d90e7d212164143c80,64c7fed44a04f777bb1e18ce,64c80164ee3eec4e1c68af3c,right,1,0.75,0.1786,0,0.008968245,0.656,,,,,,7,0,7,0,1,,,,,
,,039233,001,2023-07-31_15h03.49.157,arm3_eps,2022.2.5,Win32,60.12867537,5e9ce3d90e7d212164143c80,64c7fed44a04f777bb1e18ce,64c80164ee3eec4e1c68af3c,right,1,0.75,0.1786,0,0.032934273,0.1487,,,,,,8,0,8,0,1,,,,,
,,039233,001,2023-07-31_15h03.49.157,arm3_eps,2022.2.5,Win32,60.12867537,5e9ce3d90e7d212164143c80,64c7fed44a04f777bb1e18ce,64c80164ee3eec4e1c68af3c,right,1,0.75,0.1786,0,0.047551166,0.146,,,,,,9,0,9,0,1,,,,,
,,039233,001,2023-07-31_15h03.49.157,arm3_eps,2022.2.5,Win32,60.12867537,5e9ce3d90e7d212164143c80,64c7fed44a04f777bb1e18ce,64c80164ee3eec4e1c68af3c,right,1,0.75,0.1786,0,0.08103114,0.1291,,,,,,10,0,10,0,1,,,,,
,,039233,001,2023-07-31_15h03.49.157,arm3_eps,2022.2.5,Win32,60.12867537,5e9ce3d90e7d212164143c80,64c7fed44a04f777bb1e18ce,64c80164ee3eec4e1c68af3c,right,1,0.75,0.1786,0,0.09930802,0.1172,,,,,,11,0,11,0,1,,,,,
,,039233,001,2023-07-31_15h03.49.157,arm3_eps,2022.2.5,Win32,60.12867537,5e9ce3d90e7d212164143c80,64c7fed44a04f777bb1e18ce,64c80164ee3eec4e1c68af3c,right,1,0.75,0.1786,0,0.078472778,0.1305,,,,,,12,0,12,0,1,,,,,
,,039233,001,2023-07-31_15h03.49.157,arm3_eps,2022.2.5,Win32,60.12867537,5e9ce3d90e7d212164143c80,64c7fed44a04f777bb1e18ce,64c80164ee3eec4e1c68af3c,up,1,0.75,0.1786,0,0,0.1451,,,,,,13,0,13,0,1,,,,,
,,039233,001,2023-07-31_15h03.49.157,arm3_eps,2022.2.5,Win32,60.12867537,5e9ce3d90e7d212164143c80,64c7fed44a04f777bb1e18ce,64c80164ee3eec4e1c68af3c,right,1,0.75,0.1786,0,0.033233999,0.5945,,,,,,14,0,14,0,1,,,,,
,,039233,001,2023-07-31_15h03.49.157,arm3_eps,2022.2.5,Win32,60.12867537,5e9ce3d90e7d212164143c80,64c7fed44a04f777bb1e18ce,64c80164ee3eec4e1c68af3c,right,1,0.75,0.1786,0,0.047793733,0.1324,,,,,,15,0,15,0,1,,,,,
,,039233,001,2023-07-31_15h03.49.157,arm3_eps,2022.2.5,Win32,60.12867537,5e9ce3d90e7d212164143c80,64c7fed44a04f777bb1e18ce,64c80164ee3eec4e1c68af3c,right,1,0.75,0.1786,0,0.03208161,0.1537,,,,,,16,0,16,0,1,,,,,
,,039233,001,2023-07-31_15h03.49.157,arm3_eps,2022.2.5,Win32,60.12867537,5e9ce3d90e7d212164143c80,64c7fed44a04f777bb1e18ce,64c80164ee3eec4e1c68af3c,right,1,0.75,0.1786,0,0.00886477,0.149,,,,,,17,0,17,0,1,,,,,
,,039233,001,2023-07-31_15h03.49.157,arm3_eps,2022.2.5,Win32,60.12867537,5e9ce3d90e7d212164143c80,64c7fed44a04f777bb1e18ce,64c80164ee3eec4e1c68af3c,right,1,0.75,0.1786,0,-0.005978927,0.1164,,,,,,18,0,18,0,1,,,,,
,,039233,001,2023-07-31_15h03.49.157,arm3_eps,2022.2.5,Win32,60.12867537,5e9ce3d90e7d212164143c80,64c7fed44a04f777bb1e18ce,64c80164ee3eec4e1c68af3c,right,1,0.75,0.1786,0,0.007230631,0.1546,,,,,,19,0,19,0,1,,,,,
,,039233,001,2023-07-31_15h03.49.157,arm3_eps,2022.2.5,Win32,60.12867537,5e9ce3d90e7d212164143c80,64c7fed44a04f777bb1e18ce,64c80164ee3eec4e1c68af3c,right,1,0.75,0.1786,0,0.000166521,0.164,,,,,,20,0,20,0,1,,,,,
,,039233,001,2023-07-31_15h03.49.157,arm3_eps,2022.2.5,Win32,60.12867537,5e9ce3d90e7d212164143c80,64c7fed44a04f777bb1e18ce,64c80164ee3eec4e1c68af3c,right,1,0.75,0.1786,0,-0.009751654,0.1369,,,,,,21,0,21,0,1,,,,,
,,039233,001,2023-07-31_15h03.49.157,arm3_eps,2022.2.5,Win32,60.12867537,5e9ce3d90e7d212164143c80,64c7fed44a04f777bb1e18ce,64c80164ee3eec4e1c68af3c,right,1,0.75,0.1786,0,0.008995338,0.1812,,,,,,22,0,22,0,1,,,,,
,,039233,001,2023-07-31_15h03.49.157,arm3_eps,2022.2.5,Win32,60.12867537,5e9ce3d90e7d212164143c80,64c7fed44a04f777bb1e18ce,64c80164ee3eec4e1c68af3c,right,1,0.75,0.1786,0,0.046864533,0.1803,,,,,,23,0,23,0,1,,,,,
,,039233,001,2023-07-31_15h03.49.157,arm3_eps,2022.2.5,Win32,60.12867537,5e9ce3d90e7d212164143c80,64c7fed44a04f777bb1e18ce,64c80164ee3eec4e1c68af3c,up,1,0.75,0.1786,1,0,0.4485,,,,,,24,0,24,0,1,,,,,
,,039233,001,2023-07-31_15h03.49.157,arm3_eps,2022.2.5,Win32,60.12867537,5e9ce3d90e7d212164143c80,64c7fed44a04f777bb1e18ce,64c80164ee3eec4e1c68af3c,right,1,0.75,0.1786,1,0.009973732,0.4954,,,,,,25,0,25,0,1,,,,,
,,039233,001,2023-07-31_15h03.49.157,arm3_eps,2022.2.5,Win32,60.12867537,5e9ce3d90e7d212164143c80,64c7fed44a04f777bb1e18ce,64c80164ee3eec4e1c68af3c,right,1,0.75,0.1786,1,0.035290606,0.1468,,,,,,26,0,26,0,1,,,,,
,,039233,001,2023-07-31_15h03.49.157,arm3_eps,2022.2.5,Win32,60.12867537,5e9ce3d90e7d212164143c80,64c7fed44a04f777bb1e18ce,64c80164ee3eec4e1c68af3c,right,1,0.75,0.1786,1,0.046676108,0.136,,,,,,27,0,27,0,1,,,,,
,,039233,001,2023-07-31_15h03.49.157,arm3_eps,2022.2.5,Win32,60.12867537,5e9ce3d90e7d212164143c80,64c7fed44a04f777bb1e18ce,64c80164ee3eec4e1c68af3c,right,1,0.75,0.1786,1,0.061954104,0.1471,,,,,,28,0,28,0,1,,,,,
,,039233,001,2023-07-31_15h03.49.157,arm3_eps,2022.2.5,Win32,60.12867537,5e9ce3d90e7d212164143c80,64c7fed44a04f777bb1e18ce,64c80164ee3eec4e1c68af3c,right,1,0.75,0.1786,1,0.089733357,0.1482,,,,,,29,0,29,0,1,,,,,
,,039233,001,2023-07-31_15h03.49.157,arm3_eps,2022.2.5,Win32,60.12867537,5e9ce3d90e7d212164143c80,64c7fed44a04f777bb1e18ce,64c80164ee3eec4e1c68af3c,right,1,0.75,0.1786,1,0.085504574,0.1363,,,,,,30,0,30,0,1,,,,,
,,039233,001,2023-07-31_15h03.49.157,arm3_eps,2022.2.5,Win32,60.12867537,5e9ce3d90e7d212164143c80,64c7fed44a04f777bb1e18ce,64c80164ee3eec4e1c68af3c,right,1,0.75,0.1786,1,0.084568707,0.1353,,,,,,31,0,31,0,1,,,,,
,,039233,001,2023-07-31_15h03.49.157,arm3_eps,2022.2.5,Win32,60.12867537,5e9ce3d90e7d212164143c80,64c7fed44a04f777bb1e18ce,64c80164ee3eec4e1c68af3c,right,1,0.75,0.1786,1,0.101609349,0.1641,,,,,,32,0,32,0,1,,,,,
,,039233,001,2023-07-31_15h03.49.157,arm3_eps,2022.2.5,Win32,60.12867537,5e9ce3d90e7d212164143c80,64c7fed44a04f777bb1e18ce,64c80164ee3eec4e1c68af3c,right,1,0.75,0.1786,1,0.074432627,0.147,,,,,,33,0,33,0,1,,,,,
,,039233,001,2023-07-31_15h03.49.157,arm3_eps,2022.2.5,Win32,60.12867537,5e9ce3d90e7d212164143c80,64c7fed44a04f777bb1e18ce,64c80164ee3eec4e1c68af3c,up,1,0.75,0.1786,2,0,0.3006,,,,,,34,0,34,0,1,,,,,
,,039233,001,2023-07-31_15h03.49.157,arm3_eps,2022.2.5,Win32,60.12867537,5e9ce3d90e7d212164143c80,64c7fed44a04f777bb1e18ce,64c80164ee3eec4e1c68af3c,right,1,0.75,0.1786,2,-0.01924003,0.4627,,,,,,35,0,35,0,1,,,,,
,,039233,001,2023-07-31_15h03.49.157,arm3_eps,2022.2.5,Win32,60.12867537,5e9ce3d90e7d212164143c80,64c7fed44a04f777bb1e18ce,64c80164ee3eec4e1c68af3c,right,1,0.75,0.1786,2,-0.000404467,0.1696,,,,,,36,0,36,0,1,,,,,
,,039233,001,2023-07-31_15h03.49.157,arm3_eps,2022.2.5,Win32,60.12867537,5e9ce3d90e7d212164143c80,64c7fed44a04f777bb1e18ce,64c80164ee3eec4e1c68af3c,right,1,0.75,0.1786,2,0.046392021,0.1492,,,,,,37,0,37,0,1,,,,,
,,039233,001,2023-07-31_15h03.49.157,arm3_eps,2022.2.5,Win32,60.12867537,5e9ce3d90e7d212164143c80,64c7fed44a04f777bb1e18ce,64c80164ee3eec4e1c68af3c,right,1,0.75,0.1786,2,0.057833371,0.1463,,,,,,38,0,38,0,1,,,,,
,,039233,001,2023-07-31_15h03.49.157,arm3_eps,2022.2.5,Win32,60.12867537,5e9ce3d90e7d212164143c80,64c7fed44a04f777bb1e18ce,64c80164ee3eec4e1c68af3c,right,1,0.75,0.1786,2,0.069883648,0.1308,,,,,,39,0,39,0,1,,,,,
,,039233,001,2023-07-31_15h03.49.157,arm3_eps,2022.2.5,Win32,60.12867537,5e9ce3d90e7d212164143c80,64c7fed44a04f777bb1e18ce,64c80164ee3eec4e1c68af3c,right,1,0.75,0.1786,2,0.06433857,0.1356,,,,,,40,0,40,0,1,,,,,
,,039233,001,2023-07-31_15h03.49.157,arm3_eps,2022.2.5,Win32,60.12867537,5e9ce3d90e7d212164143c80,64c7fed44a04f777bb1e18ce,64c80164ee3eec4e1c68af3c,right,1,0.75,0.1786,2,0.055023438,0.1544,,,,,,41,0,41,0,1,,,,,
,,039233,001,2023-07-31_15h03.49.157,arm3_eps,2022.2.5,Win32,60.12867537,5e9ce3d90e7d212164143c80,64c7fed44a04f777bb1e18ce,64c80164ee3eec4e1c68af3c,right,1,0.75,0.1786,2,0.067045847,0.1468,,,,,,42,0,42,0,1,,,,,
,,039233,001,2023-07-31_15h03.49.157,arm3_eps,2022.2.5,Win32,60.12867537,5e9ce3d90e7d212164143c80,64c7fed44a04f777bb1e18ce,64c80164ee3eec4e1c68af3c,right,1,0.75,0.1786,2,0.094007934,0.1469,,,,,,43,0,43,0,1,,,,,
,,039233,001,2023-07-31_15h03.49.157,arm3_eps,2022.2.5,Win32,60.12867537,5e9ce3d90e7d212164143c80,64c7fed44a04f777bb1e18ce,64c80164ee3eec4e1c68af3c,right,1,0.75,0.1786,2,0.07568823,0.1152,,,,,,44,0,44,0,1,,,,,
,,039233,001,2023-07-31_15h03.49.157,arm3_eps,2022.2.5,Win32,60.12867537,5e9ce3d90e7d212164143c80,64c7fed44a04f777bb1e18ce,64c80164ee3eec4e1c68af3c,up,1,0.75,0.1786,2,0,0.3637,,,,,,45,0,45,0,1,,,,,
,,039233,001,2023-07-31_15h03.49.157,arm3_eps,2022.2.5,Win32,60.12867537,5e9ce3d90e7d212164143c80,64c7fed44a04f777bb1e18ce,64c80164ee3eec4e1c68af3c,right,1,0.75,0.1786,2,0.018856509,0.3446,,,,,,46,0,46,0,1,,,,,
,,039233,001,2023-07-31_15h03.49.157,arm3_eps,2022.2.5,Win32,60.12867537,5e9ce3d90e7d212164143c80,64c7fed44a04f777bb1e18ce,64c80164ee3eec4e1c68af3c,right,1,0.75,0.1786,2,0.011188368,0.1522,,,,,,47,0,47,0,1,,,,,
,,039233,001,2023-07-31_15h03.49.157,arm3_eps,2022.2.5,Win32,60.12867537,5e9ce3d90e7d212164143c80,64c7fed44a04f777bb1e18ce,64c80164ee3eec4e1c68af3c,right,1,0.75,0.1786,2,0.039412335,0.147,,,,,,48,0,48,0,1,,,,,
,,039233,001,2023-07-31_15h03.49.157,arm3_eps,2022.2.5,Win32,60.12867537,5e9ce3d90e7d212164143c80,64c7fed44a04f777bb1e18ce,64c80164ee3eec4e1c68af3c,right,1,0.75,0.1786,2,0.031805402,0.1309,,,,,,49,0,49,0,1,,,,,
,,039233,001,2023-07-31_15h03.49.157,arm3_eps,2022.2.5,Win32,60.12867537,5e9ce3d90e7d212164143c80,64c7fed44a04f777bb1e18ce,64c80164ee3eec4e1c68af3c,right,1,0.75,0.1786,2,0.025701564,0.3307,,,,,,50,0,50,0,1,,,,,
,,039233,001,2023-07-31_15h03.49.157,arm3_eps,2022.2.5,Win32,60.12867537,5e9ce3d90e7d212164143c80,64c7fed44a04f777bb1e18ce,64c80164ee3eec4e1c68af3c,right,1,0.75,0.1786,2,0.074783192,0.1031,,,,,,51,0,51,0,1,,,,,
,,039233,001,2023-07-31_15h03.49.157,arm3_eps,2022.2.5,Win32,60.12867537,5e9ce3d90e7d212164143c80,64c7fed44a04f777bb1e18ce,64c80164ee3eec4e1c68af3c,right,1,0.75,0.1786,2,0.087648782,0.162,,,,,,52,0,52,0,1,,,,,
,,039233,001,2023-07-31_15h03.49.157,arm3_eps,2022.2.5,Win32,60.12867537,5e9ce3d90e7d212164143c80,64c7fed44a04f777bb1e18ce,64c80164ee3eec4e1c68af3c,right,1,0.75,0.1786,2,0.092475875,0.1355,,,,,,53,0,53,0,1,,,,,
,,039233,001,2023-07-31_15h03.49.157,arm3_eps,2022.2.5,Win32,60.12867537,5e9ce3d90e7d212164143c80,64c7fed44a04f777bb1e18ce,64c80164ee3eec4e1c68af3c,right,1,0.75,0.1786,2,0.096737687,0.1471,,,,,,54,0,54,0,1,,,,,
,,039233,001,2023-07-31_15h03.49.157,arm3_eps,2022.2.5,Win32,60.12867537,5e9ce3d90e7d212164143c80,64c7fed44a04f777bb1e18ce,64c80164ee3eec4e1c68af3c,up,1,0.75,0.1786,3,0,0.2125,,,,,,55,0,55,0,1,,,,,
,,039233,001,2023-07-31_15h03.49.157,arm3_eps,2022.2.5,Win32,60.12867537,5e9ce3d90e7d212164143c80,64c7fed44a04f777bb1e18ce,64c80164ee3eec4e1c68af3c,right,1,0.75,0.1786,3,0.011543494,0.3994,,,,,,56,0,56,0,1,,,,,
,,039233,001,2023-07-31_15h03.49.157,arm3_eps,2022.2.5,Win32,60.12867537,5e9ce3d90e7d212164143c80,64c7fed44a04f777bb1e18ce,64c80164ee3eec4e1c68af3c,right,1,0.75,0.1786,3,0.016738273,0.349,,,,,,57,0,57,0,1,,,,,
,,039233,001,2023-07-31_15h03.49.157,arm3_eps,2022.2.5,Win32,60.12867537,5e9ce3d90e7d212164143c80,64c7fed44a04f777bb1e18ce,64c80164ee3eec4e1c68af3c,right,1,0.75,0.1786,3,0.044153354,0.1658,,,,,,58,0,58,0,1,,,,,
,,039233,001,2023-07-31_15h03.49.157,arm3_eps,2022.2.5,Win32,60.12867537,5e9ce3d90e7d212164143c80,64c7fed44a04f777bb1e18ce,64c80164ee3eec4e1c68af3c,right,1,0.75,0.1786,3,0.087204309,0.1802,,,,,,59,0,59,0,1,,,,,
,,039233,001,2023-07-31_15h03.49.157,arm3_eps,2022.2.5,Win32,60.12867537,5e9ce3d90e7d212164143c80,64c7fed44a04f777bb1e18ce,64c80164ee3eec4e1c68af3c,right,1,0.75,0.1786,3,0.071314775,0.1301,,,,,,60,0,60,0,1,,,,,
,,039233,001,2023-07-31_15h03.49.157,arm3_eps,2022.2.5,Win32,60.12867537,5e9ce3d90e7d212164143c80,64c7fed44a04f777bb1e18ce,64c80164ee3eec4e1c68af3c,right,1,0.75,0.1786,3,0.0795971,0.133,,,,,,61,0,61,0,1,,,,,
,,039233,001,2023-07-31_15h03.49.157,arm3_eps,2022.2.5,Win32,60.12867537,5e9ce3d90e7d212164143c80,64c7fed44a04f777bb1e18ce,64c80164ee3eec4e1c68af3c,right,1,0.75,0.1786,3,0.048399323,0.1478,,,,,,62,0,62,0,1,,,,,
,,039233,001,2023-07-31_15h03.49.157,arm3_eps,2022.2.5,Win32,60.12867537,5e9ce3d90e7d212164143c80,64c7fed44a04f777bb1e18ce,64c80164ee3eec4e1c68af3c,right,1,0.75,0.1786,3,0.07222171,0.1522,,,,,,63,0,63,0,1,,,,,
,,039233,001,2023-07-31_15h03.49.157,arm3_eps,2022.2.5,Win32,60.12867537,5e9ce3d90e7d212164143c80,64c7fed44a04f777bb1e18ce,64c80164ee3eec4e1c68af3c,right,1,0.75,0.1786,3,0.074496431,0.1361,,,,,,64,0,64,0,1,,,,,
,,039233,001,2023-07-31_15h03.49.157,arm3_eps,2022.2.5,Win32,60.12867537,5e9ce3d90e7d212164143c80,64c7fed44a04f777bb1e18ce,64c80164ee3eec4e1c68af3c,right,1,0.75,0.1786,3,0.072498645,0.1634,,,,,,65,0,65,0,1,,,,,
,,039233,001,2023-07-31_15h03.49.157,arm3_eps,2022.2.5,Win32,60.12867537,5e9ce3d90e7d212164143c80,64c7fed44a04f777bb1e18ce,64c80164ee3eec4e1c68af3c,right,1,0.75,0.1786,3,0.068352698,0.3655,,,,,,66,0,66,0,1,,,,,
,,039233,001,2023-07-31_15h03.49.157,arm3_eps,2022.2.5,Win32,60.12867537,5e9ce3d90e7d212164143c80,64c7fed44a04f777bb1e18ce,64c80164ee3eec4e1c68af3c,up,1,0.75,0.1786,4,0,0.3462,,,,,,67,0,67,0,1,,,,,
,,039233,001,2023-07-31_15h03.49.157,arm3_eps,2022.2.5,Win32,60.12867537,5e9ce3d90e7d212164143c80,64c7fed44a04f777bb1e18ce,64c80164ee3eec4e1c68af3c,right,1,0.75,0.1786,4,-0.027121339,0.373,,,,,,68,0,68,0,1,,,,,
,,039233,001,2023-07-31_15h03.49.157,arm3_eps,2022.2.5,Win32,60.12867537,5e9ce3d90e7d212164143c80,64c7fed44a04f777bb1e18ce,64c80164ee3eec4e1c68af3c,right,1,0.75,0.1786,4,-0.012343848,0.1336,,,,,,69,0,69,0,1,,,,,
,,039233,001,2023-07-31_15h03.49.157,arm3_eps,2022.2.5,Win32,60.12867537,5e9ce3d90e7d212164143c80,64c7fed44a04f777bb1e18ce,64c80164ee3eec4e1c68af3c,right,1,0.75,0.1786,4,-0.018799454,0.1306,,,,,,70,0,70,0,1,,,,,
,,039233,001,2023-07-31_15h03.49.157,arm3_eps,2022.2.5,Win32,60.12867537,5e9ce3d90e7d212164143c80,64c7fed44a04f777bb1e18ce,64c80164ee3eec4e1c68af3c,right,1,0.75,0.1786,4,-0.041620999,0.1484,,,,,,71,0,71,0,1,,,,,
,,039233,001,2023-07-31_15h03.49.157,arm3_eps,2022.2.5,Win32,60.12867537,5e9ce3d90e7d212164143c80,64c7fed44a04f777bb1e18ce,64c80164ee3eec4e1c68af3c,right,1,0.75,0.1786,4,-0.037398372,0.1324,,,,,,72,0,72,0,1,,,,,
,,039233,001,2023-07-31_15h03.49.157,arm3_eps,2022.2.5,Win32,60.12867537,5e9ce3d90e7d212164143c80,64c7fed44a04f777bb1e18ce,64c80164ee3eec4e1c68af3c,right,1,0.75,0.1786,4,-0.024823289,0.2792,,,,,,73,0,73,0,1,,,,,
,,039233,001,2023-07-31_15h03.49.157,arm3_eps,2022.2.5,Win32,60.12867537,5e9ce3d90e7d212164143c80,64c7fed44a04f777bb1e18ce,64c80164ee3eec4e1c68af3c,right,1,0.75,0.1786,4,-0.000281313,0.1309,,,,,,74,0,74,0,1,,,,,
,,039233,001,2023-07-31_15h03.49.157,arm3_eps,2022.2.5,Win32,60.12867537,5e9ce3d90e7d212164143c80,64c7fed44a04f777bb1e18ce,64c80164ee3eec4e1c68af3c,right,1,0.75,0.1786,4,0.017812715,0.1632,,,,,,75,0,75,0,1,,,,,
,,039233,001,2023-07-31_15h03.49.157,arm3_eps,2022.2.5,Win32,60.12867537,5e9ce3d90e7d212164143c80,64c7fed44a04f777bb1e18ce,64c80164ee3eec4e1c68af3c,right,1,0.75,0.1786,4,0.040502392,0.1303,,,,,,76,0,76,0,1,,,,,
,,039233,001,2023-07-31_15h03.49.157,arm3_eps,2022.2.5,Win32,60.12867537,5e9ce3d90e7d212164143c80,64c7fed44a04f777bb1e18ce,64c80164ee3eec4e1c68af3c,right,1,0.75,0.1786,4,0.036916147,0.1162,,,,,,77,0,77,0,1,,,,,
,,039233,001,2023-07-31_15h03.49.157,arm3_eps,2022.2.5,Win32,60.12867537,5e9ce3d90e7d212164143c80,64c7fed44a04f777bb1e18ce,64c80164ee3eec4e1c68af3c,right,1,0.75,0.1786,4,0.067925989,0.1171,,,,,,78,0,78,0,1,,,,,
,,039233,001,2023-07-31_15h03.49.157,arm3_eps,2022.2.5,Win32,60.12867537,5e9ce3d90e7d212164143c80,64c7fed44a04f777bb1e18ce,64c80164ee3eec4e1c68af3c,right,1,0.75,0.1786,4,0.099752762,0.1638,,,,,,79,0,79,0,1,,,,,
,,039233,001,2023-07-31_15h03.49.157,arm3_eps,2022.2.5,Win32,60.12867537,5e9ce3d90e7d212164143c80,64c7fed44a04f777bb1e18ce,64c80164ee3eec4e1c68af3c,up,1,0.75,0.1786,4,0,0.17,,,,,,80,0,80,0,1,,,,,
,,039233,001,2023-07-31_15h03.49.157,arm3_eps,2022.2.5,Win32,60.12867537,5e9ce3d90e7d212164143c80,64c7fed44a04f777bb1e18ce,64c80164ee3eec4e1c68af3c,right,1,0.75,0.1786,4,0.015293147,0.3925,,,,,,81,0,81,0,1,,,,,
,,039233,001,2023-07-31_15h03.49.157,arm3_eps,2022.2.5,Win32,60.12867537,5e9ce3d90e7d212164143c80,64c7fed44a04f777bb1e18ce,64c80164ee3eec4e1c68af3c,right,1,0.75,0.1786,4,0.037235088,0.1688,,,,,,82,0,82,0,1,,,,,
,,039233,001,2023-07-31_15h03.49.157,arm3_eps,2022.2.5,Win32,60.12867537,5e9ce3d90e7d212164143c80,64c7fed44a04f777bb1e18ce,64c80164ee3eec4e1c68af3c,right,1,0.75,0.1786,4,0.039726368,0.1461,,,,,,83,0,83,0,1,,,,,
,,039233,001,2023-07-31_15h03.49.157,arm3_eps,2022.2.5,Win32,60.12867537,5e9ce3d90e7d212164143c80,64c7fed44a04f777bb1e18ce,64c80164ee3eec4e1c68af3c,right,1,0.75,0.1786,4,0.003005496,0.1473,,,,,,84,0,84,0,1,,,,,
,,039233,001,2023-07-31_15h03.49.157,arm3_eps,2022.2.5,Win32,60.12867537,5e9ce3d90e7d212164143c80,64c7fed44a04f777bb1e18ce,64c80164ee3eec4e1c68af3c,right,1,0.75,0.1786,4,0.003127211,0.1184,,,,,,85,0,85,0,1,,,,,
,,039233,001,2023-07-31_15h03.49.157,arm3_eps,2022.2.5,Win32,60.12867537,5e9ce3d90e7d212164143c80,64c7fed44a04f777bb1e18ce,64c80164ee3eec4e1c68af3c,right,1,0.75,0.1786,4,0.001054052,0.1462,,,,,,86,0,86,0,1,,,,,
,,039233,001,2023-07-31_15h03.49.157,arm3_eps,2022.2.5,Win32,60.12867537,5e9ce3d90e7d212164143c80,64c7fed44a04f777bb1e18ce,64c80164ee3eec4e1c68af3c,right,1,0.75,0.1786,4,0.002267345,0.1474,,,,,,87,0,87,0,1,,,,,
,,039233,001,2023-07-31_15h03.49.157,arm3_eps,2022.2.5,Win32,60.12867537,5e9ce3d90e7d212164143c80,64c7fed44a04f777bb1e18ce,64c80164ee3eec4e1c68af3c,right,1,0.75,0.1786,4,0.025674034,0.1358,,,,,,88,0,88,0,1,,,,,
,,039233,001,2023-07-31_15h03.49.157,arm3_eps,2022.2.5,Win32,60.12867537,5e9ce3d90e7d212164143c80,64c7fed44a04f777bb1e18ce,64c80164ee3eec4e1c68af3c,right,1,0.75,0.1786,4,-0.003589407,0.1478,,,,,,89,0,89,0,1,,,,,
,,039233,001,2023-07-31_15h03.49.157,arm3_eps,2022.2.5,Win32,60.12867537,5e9ce3d90e7d212164143c80,64c7fed44a04f777bb1e18ce,64c80164ee3eec4e1c68af3c,right,1,0.75,0.1786,4,0.021567905,0.1469,,,,,,90,0,90,0,1,,,,,
,,039233,001,2023-07-31_15h03.49.157,arm3_eps,2022.2.5,Win32,60.12867537,5e9ce3d90e7d212164143c80,64c7fed44a04f777bb1e18ce,64c80164ee3eec4e1c68af3c,right,1,0.75,0.1786,4,0.03846232,0.1382,,,,,,91,0,91,0,1,,,,,
,,039233,001,2023-07-31_15h03.49.157,arm3_eps,2022.2.5,Win32,60.12867537,5e9ce3d90e7d212164143c80,64c7fed44a04f777bb1e18ce,64c80164ee3eec4e1c68af3c,right,1,0.75,0.1786,4,0.050706868,0.1467,,,,,,92,0,92,0,1,,,,,
,,039233,001,2023-07-31_15h03.49.157,arm3_eps,2022.2.5,Win32,60.12867537,5e9ce3d90e7d212164143c80,64c7fed44a04f777bb1e18ce,64c80164ee3eec4e1c68af3c,up,1,0.75,0.1786,5,0,0.2883,,,,,,93,0,93,0,1,,,,,
,,039233,001,2023-07-31_15h03.49.157,arm3_eps,2022.2.5,Win32,60.12867537,5e9ce3d90e7d212164143c80,64c7fed44a04f777bb1e18ce,64c80164ee3eec4e1c68af3c,right,1,0.75,0.1786,5,-0.007357136,0.3297,,,,,,94,0,94,0,1,,,,,
,,039233,001,2023-07-31_15h03.49.157,arm3_eps,2022.2.5,Win32,60.12867537,5e9ce3d90e7d212164143c80,64c7fed44a04f777bb1e18ce,64c80164ee3eec4e1c68af3c,right,1,0.75,0.1786,5,0.012658755,0.1504,,,,,,95,0,95,0,1,,,,,
,,039233,001,2023-07-31_15h03.49.157,arm3_eps,2022.2.5,Win32,60.12867537,5e9ce3d90e7d212164143c80,64c7fed44a04f777bb1e18ce,64c80164ee3eec4e1c68af3c,right,1,0.75,0.1786,5,0.04000918,0.1351,,,,,,96,0,96,0,1,,,,,
,,039233,001,2023-07-31_15h03.49.157,arm3_eps,2022.2.5,Win32,60.12867537,5e9ce3d90e7d212164143c80,64c7fed44a04f777bb1e18ce,64c80164ee3eec4e1c68af3c,right,1,0.75,0.1786,5,0.019788327,0.147,,,,,,97,0,97,0,1,,,,,
,,039233,001,2023-07-31_15h03.49.157,arm3_eps,2022.2.5,Win32,60.12867537,5e9ce3d90e7d212164143c80,64c7fed44a04f777bb1e18ce,64c80164ee3eec4e1c68af3c,right,1,0.75,0.1786,5,0.064265485,0.1386,,,,,,98,0,98,0,1,,,,,
,,039233,001,2023-07-31_15h03.49.157,arm3_eps,2022.2.5,Win32,60.12867537,5e9ce3d90e7d212164143c80,64c7fed44a04f777bb1e18ce,64c80164ee3eec4e1c68af3c,right,1,0.75,0.1786,5,0.084108328,0.1484,,,,,,99,0,99,0,1,,,,,
,,039233,001,2023-07-31_15h03.49.157,arm3_eps,2022.2.5,Win32,60.12867537,5e9ce3d90e7d212164143c80,64c7fed44a04f777bb1e18ce,64c80164ee3eec4e1c68af3c,right,1,0.75,0.1786,5,0.0739304,0.1498,,,,,,100,0,100,0,1,,,,,
,,039233,001,2023-07-31_15h03.49.157,arm3_eps,2022.2.5,Win32,60.12867537,5e9ce3d90e7d212164143c80,64c7fed44a04f777bb1e18ce,64c80164ee3eec4e1c68af3c,right,1,0.75,0.1786,5,0.076978583,0.2395,,,,,,101,0,101,0,1,,,,,
,,039233,001,2023-07-31_15h03.49.157,arm3_eps,2022.2.5,Win32,60.12867537,5e9ce3d90e7d212164143c80,64c7fed44a04f777bb1e18ce,64c80164ee3eec4e1c68af3c,right,1,0.75,0.1786,5,0.117228025,0.1475,,,,,,102,0,102,0,1,,,,,
,,039233,001,2023-07-31_15h03.49.157,arm3_eps,2022.2.5,Win32,60.12867537,5e9ce3d90e7d212164143c80,64c7fed44a04f777bb1e18ce,64c80164ee3eec4e1c68af3c,up,-1,0.75,0.1786,6,0,0.281,,,,,,103,0,103,0,1,,,,,
,,039233,001,2023-07-31_15h03.49.157,arm3_eps,2022.2.5,Win32,60.12867537,5e9ce3d90e7d212164143c80,64c7fed44a04f777bb1e18ce,64c80164ee3eec4e1c68af3c,right,-1,0.75,0.1786,6,-0.01930906,0.4425,,,,,,104,0,104,0,1,,,,,
,,039233,001,2023-07-31_15h03.49.157,arm3_eps,2022.2.5,Win32,60.12867537,5e9ce3d90e7d212164143c80,64c7fed44a04f777bb1e18ce,64c80164ee3eec4e1c68af3c,right,-1,0.75,0.1786,6,-0.025505901,0.146,,,,,,105,0,105,0,1,,,,,
,,039233,001,2023-07-31_15h03.49.157,arm3_eps,2022.2.5,Win32,60.12867537,5e9ce3d90e7d212164143c80,64c7fed44a04f777bb1e18ce,64c80164ee3eec4e1c68af3c,right,-1,0.75,0.1786,6,-0.037733738,0.1642,,,,,,106,0,106,0,1,,,,,
,,039233,001,2023-07-31_15h03.49.157,arm3_eps,2022.2.5,Win32,60.12867537,5e9ce3d90e7d212164143c80,64c7fed44a04f777bb1e18ce,64c80164ee3eec4e1c68af3c,right,-1,0.75,0.1786,6,-0.036386023,0.1635,,,,,,107,0,107,0,1,,,,,
,,039233,001,2023-07-31_15h03.49.157,arm3_eps,2022.2.5,Win32,60.12867537,5e9ce3d90e7d212164143c80,64c7fed44a04f777bb1e18ce,64c80164ee3eec4e1c68af3c,right,-1,0.75,0.1786,6,-0.053316096,0.1299,,,,,,108,0,108,0,1,,,,,
,,039233,001,2023-07-31_15h03.49.157,arm3_eps,2022.2.5,Win32,60.12867537,5e9ce3d90e7d212164143c80,64c7fed44a04f777bb1e18ce,64c80164ee3eec4e1c68af3c,right,-1,0.75,0.1786,6,-0.070002791,0.152,,,,,,109,0,109,0,1,,,,,
,,039233,001,2023-07-31_15h03.49.157,arm3_eps,2022.2.5,Win32,60.12867537,5e9ce3d90e7d212164143c80,64c7fed44a04f777bb1e18ce,64c80164ee3eec4e1c68af3c,right,-1,0.75,0.1786,6,-0.092455719,0.147,,,,,,110,0,110,0,1,,,,,
,,039233,001,2023-07-31_15h03.49.157,arm3_eps,2022.2.5,Win32,60.12867537,5e9ce3d90e7d212164143c80,64c7fed44a04f777bb1e18ce,64c80164ee3eec4e1c68af3c,right,-1,0.75,0.1786,6,-0.131570065,0.1384,,,,,,111,0,111,0,1,,,,,
,,039233,001,2023-07-31_15h03.49.157,arm3_eps,2022.2.5,Win32,60.12867537,5e9ce3d90e7d212164143c80,64c7fed44a04f777bb1e18ce,64c80164ee3eec4e1c68af3c,down,-1,0.75,0.1786,7,0,0.25,,,,,,112,0,112,0,1,,,,,
,,039233,001,2023-07-31_15h03.49.157,arm3_eps,2022.2.5,Win32,60.12867537,5e9ce3d90e7d212164143c80,64c7fed44a04f777bb1e18ce,64c80164ee3eec4e1c68af3c,right,-1,0.75,0.1786,7,0.019206241,0.2971,,,,,,113,0,113,0,1,,,,,
,,039233,001,2023-07-31_15h03.49.157,arm3_eps,2022.2.5,Win32,60.12867537,5e9ce3d90e7d212164143c80,64c7fed44a04f777bb1e18ce,64c80164ee3eec4e1c68af3c,right,-1,0.75,0.1786,7,0.000648438,0.1622,,,,,,114,0,114,0,1,,,,,
,,039233,001,2023-07-31_15h03.49.157,arm3_eps,2022.2.5,Win32,60.12867537,5e9ce3d90e7d212164143c80,64c7fed44a04f777bb1e18ce,64c80164ee3eec4e1c68af3c,right,-1,0.75,0.1786,7,0.002186046,0.135,,,,,,115,0,115,0,1,,,,,
,,039233,001,2023-07-31_15h03.49.157,arm3_eps,2022.2.5,Win32,60.12867537,5e9ce3d90e7d212164143c80,64c7fed44a04f777bb1e18ce,64c80164ee3eec4e1c68af3c,right,-1,0.75,0.1786,7,0.019722466,0.154,,,,,,116,0,116,0,1,,,,,
,,039233,001,2023-07-31_15h03.49.157,arm3_eps,2022.2.5,Win32,60.12867537,5e9ce3d90e7d212164143c80,64c7fed44a04f777bb1e18ce,64c80164ee3eec4e1c68af3c,right,-1,0.75,0.1786,7,0.004014808,0.1511,,,,,,117,0,117,0,1,,,,,
,,039233,001,2023-07-31_15h03.49.157,arm3_eps,2022.2.5,Win32,60.12867537,5e9ce3d90e7d212164143c80,64c7fed44a04f777bb1e18ce,64c80164ee3eec4e1c68af3c,right,-1,0.75,0.1786,7,-0.000163604,0.1346,,,,,,118,0,118,0,1,,,,,
,,039233,001,2023-07-31_15h03.49.157,arm3_eps,2022.2.5,Win32,60.12867537,5e9ce3d90e7d212164143c80,64c7fed44a04f777bb1e18ce,64c80164ee3eec4e1c68af3c,right,-1,0.75,0.1786,7,-0.008530393,0.1339,,,,,,119,0,119,0,1,,,,,
,,039233,001,2023-07-31_15h03.49.157,arm3_eps,2022.2.5,Win32,60.12867537,5e9ce3d90e7d212164143c80,64c7fed44a04f777bb1e18ce,64c80164ee3eec4e1c68af3c,right,-1,0.75,0.1786,7,-0.013452326,0.1635,,,,,,120,0,120,0,1,,,,,
,,039233,001,2023-07-31_15h03.49.157,arm3_eps,2022.2.5,Win32,60.12867537,5e9ce3d90e7d212164143c80,64c7fed44a04f777bb1e18ce,64c80164ee3eec4e1c68af3c,right,-1,0.75,0.1786,7,-0.039077544,0.1373,,,,,,121,0,121,0,1,,,,,
,,039233,001,2023-07-31_15h03.49.157,arm3_eps,2022.2.5,Win32,60.12867537,5e9ce3d90e7d212164143c80,64c7fed44a04f777bb1e18ce,64c80164ee3eec4e1c68af3c,right,-1,0.75,0.1786,7,-0.050183179,0.1634,,,,,,122,0,122,0,1,,,,,
,,039233,001,2023-07-31_15h03.49.157,arm3_eps,2022.2.5,Win32,60.12867537,5e9ce3d90e7d212164143c80,64c7fed44a04f777bb1e18ce,64c80164ee3eec4e1c68af3c,right,-1,0.75,0.1786,7,-0.095329553,0.1801,,,,,,123,0,123,0,1,,,,,
,,039233,001,2023-07-31_15h03.49.157,arm3_eps,2022.2.5,Win32,60.12867537,5e9ce3d90e7d212164143c80,64c7fed44a04f777bb1e18ce,64c80164ee3eec4e1c68af3c,down,-1,0.75,0.1786,8,0,0.2363,,,,,,124,0,124,0,1,,,,,
,,039233,001,2023-07-31_15h03.49.157,arm3_eps,2022.2.5,Win32,60.12867537,5e9ce3d90e7d212164143c80,64c7fed44a04f777bb1e18ce,64c80164ee3eec4e1c68af3c,right,-1,0.75,0.1786,8,-0.018846357,0.2736,,,,,,125,0,125,0,1,,,,,
,,039233,001,2023-07-31_15h03.49.157,arm3_eps,2022.2.5,Win32,60.12867537,5e9ce3d90e7d212164143c80,64c7fed44a04f777bb1e18ce,64c80164ee3eec4e1c68af3c,right,-1,0.75,0.1786,8,0.015108931,0.1492,,,,,,126,0,126,0,1,,,,,
,,039233,001,2023-07-31_15h03.49.157,arm3_eps,2022.2.5,Win32,60.12867537,5e9ce3d90e7d212164143c80,64c7fed44a04f777bb1e18ce,64c80164ee3eec4e1c68af3c,right,-1,0.75,0.1786,8,-0.009391821,0.1497,,,,,,127,0,127,0,1,,,,,
,,039233,001,2023-07-31_15h03.49.157,arm3_eps,2022.2.5,Win32,60.12867537,5e9ce3d90e7d212164143c80,64c7fed44a04f777bb1e18ce,64c80164ee3eec4e1c68af3c,right,-1,0.75,0.1786,8,-0.03697153,0.1465,,,,,,128,0,128,0,1,,,,,
,,039233,001,2023-07-31_15h03.49.157,arm3_eps,2022.2.5,Win32,60.12867537,5e9ce3d90e7d212164143c80,64c7fed44a04f777bb1e18ce,64c80164ee3eec4e1c68af3c,right,-1,0.75,0.1786,8,-0.031566403,0.1251,,,,,,129,0,129,0,1,,,,,
,,039233,001,2023-07-31_15h03.49.157,arm3_eps,2022.2.5,Win32,60.12867537,5e9ce3d90e7d212164143c80,64c7fed44a04f777bb1e18ce,64c80164ee3eec4e1c68af3c,right,-1,0.75,0.1786,8,-0.043353225,0.2977,,,,,,130,0,130,0,1,,,,,
,,039233,001,2023-07-31_15h03.49.157,arm3_eps,2022.2.5,Win32,60.12867537,5e9ce3d90e7d212164143c80,64c7fed44a04f777bb1e18ce,64c80164ee3eec4e1c68af3c,right,-1,0.75,0.1786,8,-0.029986888,0.1479,,,,,,131,0,131,0,1,,,,,
,,039233,001,2023-07-31_15h03.49.157,arm3_eps,2022.2.5,Win32,60.12867537,5e9ce3d90e7d212164143c80,64c7fed44a04f777bb1e18ce,64c80164ee3eec4e1c68af3c,right,-1,0.75,0.1786,8,-0.026174451,0.1299,,,,,,132,0,132,0,1,,,,,
,,039233,001,2023-07-31_15h03.49.157,arm3_eps,2022.2.5,Win32,60.12867537,5e9ce3d90e7d212164143c80,64c7fed44a04f777bb1e18ce,64c80164ee3eec4e1c68af3c,right,-1,0.75,0.1786,8,-0.037540468,0.162,,,,,,133,0,133,0,1,,,,,
,,039233,001,2023-07-31_15h03.49.157,arm3_eps,2022.2.5,Win32,60.12867537,5e9ce3d90e7d212164143c80,64c7fed44a04f777bb1e18ce,64c80164ee3eec4e1c68af3c,right,-1,0.75,0.1786,8,-0.088751187,0.1445,,,,,,134,0,134,0,1,,,,,
,,039233,001,2023-07-31_15h03.49.157,arm3_eps,2022.2.5,Win32,60.12867537,5e9ce3d90e7d212164143c80,64c7fed44a04f777bb1e18ce,64c80164ee3eec4e1c68af3c,down,-1,0.75,0.1786,9,0,0.1542,,,,,,135,0,135,0,1,,,,,
,,039233,001,2023-07-31_15h03.49.157,arm3_eps,2022.2.5,Win32,60.12867537,5e9ce3d90e7d212164143c80,64c7fed44a04f777bb1e18ce,64c80164ee3eec4e1c68af3c,right,-1,0.75,0.1786,9,-0.007806971,0.2392,,,,,,136,0,136,0,1,,,,,
,,039233,001,2023-07-31_15h03.49.157,arm3_eps,2022.2.5,Win32,60.12867537,5e9ce3d90e7d212164143c80,64c7fed44a04f777bb1e18ce,64c80164ee3eec4e1c68af3c,right,-1,0.75,0.1786,9,-0.010548981,0.144,,,,,,137,0,137,0,1,,,,,
,,039233,001,2023-07-31_15h03.49.157,arm3_eps,2022.2.5,Win32,60.12867537,5e9ce3d90e7d212164143c80,64c7fed44a04f777bb1e18ce,64c80164ee3eec4e1c68af3c,right,-1,0.75,0.1786,9,-0.025571089,0.1519,,,,,,138,0,138,0,1,,,,,
,,039233,001,2023-07-31_15h03.49.157,arm3_eps,2022.2.5,Win32,60.12867537,5e9ce3d90e7d212164143c80,64c7fed44a04f777bb1e18ce,64c80164ee3eec4e1c68af3c,right,-1,0.75,0.1786,9,-0.041375529,0.1528,,,,,,139,0,139,0,1,,,,,
,,039233,001,2023-07-31_15h03.49.157,arm3_eps,2022.2.5,Win32,60.12867537,5e9ce3d90e7d212164143c80,64c7fed44a04f777bb1e18ce,64c80164ee3eec4e1c68af3c,right,-1,0.75,0.1786,9,-0.063163184,0.1494,,,,,,140,0,140,0,1,,,,,
,,039233,001,2023-07-31_15h03.49.157,arm3_eps,2022.2.5,Win32,60.12867537,5e9ce3d90e7d212164143c80,64c7fed44a04f777bb1e18ce,64c80164ee3eec4e1c68af3c,right,-1,0.75,0.1786,9,-0.095054817,0.1739,,,,,,141,0,141,0,1,,,,,
,,039233,001,2023-07-31_15h03.49.157,arm3_eps,2022.2.5,Win32,60.12867537,5e9ce3d90e7d212164143c80,64c7fed44a04f777bb1e18ce,64c80164ee3eec4e1c68af3c,right,-1,0.75,0.1786,9,-0.121547383,0.1471,,,,,,142,0,142,0,1,,,,,
,,039233,001,2023-07-31_15h03.49.157,arm3_eps,2022.2.5,Win32,60.12867537,5e9ce3d90e7d212164143c80,64c7fed44a04f777bb1e18ce,64c80164ee3eec4e1c68af3c,right,-1,0.75,0.1786,9,-0.11318946,0.1629,,,,,,143,0,143,0,1,,,,,
,,039233,001,2023-07-31_15h03.49.157,arm3_eps,2022.2.5,Win32,60.12867537,5e9ce3d90e7d212164143c80,64c7fed44a04f777bb1e18ce,64c80164ee3eec4e1c68af3c,down,-1,0.75,0.1786,9,0,0.1714,,,,,,144,0,144,0,1,,,,,
,,039233,001,2023-07-31_15h03.49.157,arm3_eps,2022.2.5,Win32,60.12867537,5e9ce3d90e7d212164143c80,64c7fed44a04f777bb1e18ce,64c80164ee3eec4e1c68af3c,right,-1,0.75,0.1786,9,-0.007170884,0.2902,,,,,,145,0,145,0,1,,,,,
,,039233,001,2023-07-31_15h03.49.157,arm3_eps,2022.2.5,Win32,60.12867537,5e9ce3d90e7d212164143c80,64c7fed44a04f777bb1e18ce,64c80164ee3eec4e1c68af3c,right,-1,0.75,0.1786,9,-0.004305459,0.1698,,,,,,146,0,146,0,1,,,,,
,,039233,001,2023-07-31_15h03.49.157,arm3_eps,2022.2.5,Win32,60.12867537,5e9ce3d90e7d212164143c80,64c7fed44a04f777bb1e18ce,64c80164ee3eec4e1c68af3c,right,-1,0.75,0.1786,9,-0.001190548,0.1633,,,,,,147,0,147,0,1,,,,,
,,039233,001,2023-07-31_15h03.49.157,arm3_eps,2022.2.5,Win32,60.12867537,5e9ce3d90e7d212164143c80,64c7fed44a04f777bb1e18ce,64c80164ee3eec4e1c68af3c,right,-1,0.75,0.1786,9,0.006917227,0.1457,,,,,,148,0,148,0,1,,,,,
,,039233,001,2023-07-31_15h03.49.157,arm3_eps,2022.2.5,Win32,60.12867537,5e9ce3d90e7d212164143c80,64c7fed44a04f777bb1e18ce,64c80164ee3eec4e1c68af3c,right,-1,0.75,0.1786,9,0.006155568,0.1461,,,,,,149,0,149,0,1,,,,,
,,039233,001,2023-07-31_15h03.49.157,arm3_eps,2022.2.5,Win32,60.12867537,5e9ce3d90e7d212164143c80,64c7fed44a04f777bb1e18ce,64c80164ee3eec4e1c68af3c,right,-1,0.75,0.1786,9,0.010644085,0.1302,,,,,,150,0,150,0,1,,,,,
,,039233,001,2023-07-31_15h03.49.157,arm3_eps,2022.2.5,Win32,60.12867537,5e9ce3d90e7d212164143c80,64c7fed44a04f777bb1e18ce,64c80164ee3eec4e1c68af3c,right,-1,0.75,0.1786,9,-0.030129458,0.1494,,,,,,151,0,151,0,1,,,,,
,,039233,001,2023-07-31_15h03.49.157,arm3_eps,2022.2.5,Win32,60.12867537,5e9ce3d90e7d212164143c80,64c7fed44a04f777bb1e18ce,64c80164ee3eec4e1c68af3c,right,-1,0.75,0.1786,9,-0.020745816,0.1629,,,,,,152,0,152,0,1,,,,,
,,039233,001,2023-07-31_15h03.49.157,arm3_eps,2022.2.5,Win32,60.12867537,5e9ce3d90e7d212164143c80,64c7fed44a04f777bb1e18ce,64c80164ee3eec4e1c68af3c,right,-1,0.75,0.1786,9,-0.058599765,0.1316,,,,,,153,0,153,0,1,,,,,
,,039233,001,2023-07-31_15h03.49.157,arm3_eps,2022.2.5,Win32,60.12867537,5e9ce3d90e7d212164143c80,64c7fed44a04f777bb1e18ce,64c80164ee3eec4e1c68af3c,right,-1,0.75,0.1786,9,-0.112376807,0.1378,,,,,,154,0,154,0,1,,,,,
,,039233,001,2023-07-31_15h03.49.157,arm3_eps,2022.2.5,Win32,60.12867537,5e9ce3d90e7d212164143c80,64c7fed44a04f777bb1e18ce,64c80164ee3eec4e1c68af3c,down,-1,0.75,0.1786,9,0,0.2297,,,,,,155,0,155,0,1,,,,,
,,039233,001,2023-07-31_15h03.49.157,arm3_eps,2022.2.5,Win32,60.12867537,5e9ce3d90e7d212164143c80,64c7fed44a04f777bb1e18ce,64c80164ee3eec4e1c68af3c,right,-1,0.75,0.1786,9,-0.000316299,0.2745,,,,,,156,0,156,0,1,,,,,
,,039233,001,2023-07-31_15h03.49.157,arm3_eps,2022.2.5,Win32,60.12867537,5e9ce3d90e7d212164143c80,64c7fed44a04f777bb1e18ce,64c80164ee3eec4e1c68af3c,right,-1,0.75,0.1786,9,-0.020336673,0.1631,,,,,,157,0,157,0,1,,,,,
,,039233,001,2023-07-31_15h03.49.157,arm3_eps,2022.2.5,Win32,60.12867537,5e9ce3d90e7d212164143c80,64c7fed44a04f777bb1e18ce,64c80164ee3eec4e1c68af3c,right,-1,0.75,0.1786,9,-0.01948401,0.1467,,,,,,158,0,158,0,1,,,,,
,,039233,001,2023-07-31_15h03.49.157,arm3_eps,2022.2.5,Win32,60.12867537,5e9ce3d90e7d212164143c80,64c7fed44a04f777bb1e18ce,64c80164ee3eec4e1c68af3c,right,-1,0.75,0.1786,9,-0.045843915,0.1452,,,,,,159,0,159,0,1,,,,,
,,039233,001,2023-07-31_15h03.49.157,arm3_eps,2022.2.5,Win32,60.12867537,5e9ce3d90e7d212164143c80,64c7fed44a04f777bb1e18ce,64c80164ee3eec4e1c68af3c,right,-1,0.75,0.1786,9,-0.04739946,0.1565,,,,,,160,0,160,0,1,,,,,
,,039233,001,2023-07-31_15h03.49.157,arm3_eps,2022.2.5,Win32,60.12867537,5e9ce3d90e7d212164143c80,64c7fed44a04f777bb1e18ce,64c80164ee3eec4e1c68af3c,right,-1,0.75,0.1786,9,-0.024933538,0.1354,,,,,,161,0,161,0,1,,,,,
,,039233,001,2023-07-31_15h03.49.157,arm3_eps,2022.2.5,Win32,60.12867537,5e9ce3d90e7d212164143c80,64c7fed44a04f777bb1e18ce,64c80164ee3eec4e1c68af3c,right,-1,0.75,0.1786,9,-0.038368806,0.1476,,,,,,162,0,162,0,1,,,,,
,,039233,001,2023-07-31_15h03.49.157,arm3_eps,2022.2.5,Win32,60.12867537,5e9ce3d90e7d212164143c80,64c7fed44a04f777bb1e18ce,64c80164ee3eec4e1c68af3c,right,-1,0.75,0.1786,9,-0.064127448,0.1491,,,,,,163,0,163,0,1,,,,,
,,039233,001,2023-07-31_15h03.49.157,arm3_eps,2022.2.5,Win32,60.12867537,5e9ce3d90e7d212164143c80,64c7fed44a04f777bb1e18ce,64c80164ee3eec4e1c68af3c,right,-1,0.75,0.1786,9,-0.089474957,0.1469,,,,,,164,0,164,0,1,,,,,
,,039233,001,2023-07-31_15h03.49.157,arm3_eps,2022.2.5,Win32,60.12867537,5e9ce3d90e7d212164143c80,64c7fed44a04f777bb1e18ce,64c80164ee3eec4e1c68af3c,right,-1,0.75,0.1786,9,-0.103316751,0.1303,,,,,,165,0,165,0,1,,,,,
,,039233,001,2023-07-31_15h03.49.157,arm3_eps,2022.2.5,Win32,60.12867537,5e9ce3d90e7d212164143c80,64c7fed44a04f777bb1e18ce,64c80164ee3eec4e1c68af3c,down,-1,0.75,0.1786,10,0,0.1958,,,,,,166,0,166,0,1,,,,,
,,039233,001,2023-07-31_15h03.49.157,arm3_eps,2022.2.5,Win32,60.12867537,5e9ce3d90e7d212164143c80,64c7fed44a04f777bb1e18ce,64c80164ee3eec4e1c68af3c,right,-1,0.75,0.1786,10,-0.029073194,0.1977,,,,,,167,0,167,0,1,,,,,
,,039233,001,2023-07-31_15h03.49.157,arm3_eps,2022.2.5,Win32,60.12867537,5e9ce3d90e7d212164143c80,64c7fed44a04f777bb1e18ce,64c80164ee3eec4e1c68af3c,right,-1,0.75,0.1786,10,0.006319931,0.1612,,,,,,168,0,168,0,1,,,,,
,,039233,001,2023-07-31_15h03.49.157,arm3_eps,2022.2.5,Win32,60.12867537,5e9ce3d90e7d212164143c80,64c7fed44a04f777bb1e18ce,64c80164ee3eec4e1c68af3c,right,-1,0.75,0.1786,10,0.018964395,0.1464,,,,,,169,0,169,0,1,,,,,
,,039233,001,2023-07-31_15h03.49.157,arm3_eps,2022.2.5,Win32,60.12867537,5e9ce3d90e7d212164143c80,64c7fed44a04f777bb1e18ce,64c80164ee3eec4e1c68af3c,right,-1,0.75,0.1786,10,0.019845411,0.1464,,,,,,170,0,170,0,1,,,,,
,,039233,001,2023-07-31_15h03.49.157,arm3_eps,2022.2.5,Win32,60.12867537,5e9ce3d90e7d212164143c80,64c7fed44a04f777bb1e18ce,64c80164ee3eec4e1c68af3c,right,-1,0.75,0.1786,10,0.006368995,0.1633,,,,,,171,0,171,0,1,,,,,
,,039233,001,2023-07-31_15h03.49.157,arm3_eps,2022.2.5,Win32,60.12867537,5e9ce3d90e7d212164143c80,64c7fed44a04f777bb1e18ce,64c80164ee3eec4e1c68af3c,right,-1,0.75,0.1786,10,-0.009108528,0.1639,,,,,,172,0,172,0,1,,,,,
,,039233,001,2023-07-31_15h03.49.157,arm3_eps,2022.2.5,Win32,60.12867537,5e9ce3d90e7d212164143c80,64c7fed44a04f777bb1e18ce,64c80164ee3eec4e1c68af3c,right,-1,0.75,0.1786,10,-0.021964496,0.1346,,,,,,173,0,173,0,1,,,,,
,,039233,001,2023-07-31_15h03.49.157,arm3_eps,2022.2.5,Win32,60.12867537,5e9ce3d90e7d212164143c80,64c7fed44a04f777bb1e18ce,64c80164ee3eec4e1c68af3c,right,-1,0.75,0.1786,10,-0.022487655,0.1316,,,,,,174,0,174,0,1,,,,,
,,039233,001,2023-07-31_15h03.49.157,arm3_eps,2022.2.5,Win32,60.12867537,5e9ce3d90e7d212164143c80,64c7fed44a04f777bb1e18ce,64c80164ee3eec4e1c68af3c,right,-1,0.75,0.1786,10,-0.068722563,0.1626,,,,,,175,0,175,0,1,,,,,
,,039233,001,2023-07-31_15h03.49.157,arm3_eps,2022.2.5,Win32,60.12867537,5e9ce3d90e7d212164143c80,64c7fed44a04f777bb1e18ce,64c80164ee3eec4e1c68af3c,right,-1,0.75,0.1786,10,-0.094834408,0.1333,,,,,,176,0,176,0,1,,,,,
,,039233,001,2023-07-31_15h03.49.157,arm3_eps,2022.2.5,Win32,60.12867537,5e9ce3d90e7d212164143c80,64c7fed44a04f777bb1e18ce,64c80164ee3eec4e1c68af3c,down,-1,0.75,0.1786,10,0,0.2459,,,,,,177,0,177,0,1,,,,,
,,039233,001,2023-07-31_15h03.49.157,arm3_eps,2022.2.5,Win32,60.12867537,5e9ce3d90e7d212164143c80,64c7fed44a04f777bb1e18ce,64c80164ee3eec4e1c68af3c,right,-1,0.75,0.1786,10,-0.013953563,0.2591,,,,,,178,0,178,0,1,,,,,
,,039233,001,2023-07-31_15h03.49.157,arm3_eps,2022.2.5,Win32,60.12867537,5e9ce3d90e7d212164143c80,64c7fed44a04f777bb1e18ce,64c80164ee3eec4e1c68af3c,right,-1,0.75,0.1786,10,-0.028122875,0.1743,,,,,,179,0,179,0,1,,,,,
,,039233,001,2023-07-31_15h03.49.157,arm3_eps,2022.2.5,Win32,60.12867537,5e9ce3d90e7d212164143c80,64c7fed44a04f777bb1e18ce,64c80164ee3eec4e1c68af3c,right,-1,0.75,0.1786,10,-0.033699087,0.1456,,,,,,180,0,180,0,1,,,,,
,,039233,001,2023-07-31_15h03.49.157,arm3_eps,2022.2.5,Win32,60.12867537,5e9ce3d90e7d212164143c80,64c7fed44a04f777bb1e18ce,64c80164ee3eec4e1c68af3c,right,-1,0.75,0.1786,10,-0.03541565,0.1674,,,,,,181,0,181,0,1,,,,,
,,039233,001,2023-07-31_15h03.49.157,arm3_eps,2022.2.5,Win32,60.12867537,5e9ce3d90e7d212164143c80,64c7fed44a04f777bb1e18ce,64c80164ee3eec4e1c68af3c,right,-1,0.75,0.1786,10,-0.072713381,0.2668,,,,,,182,0,182,0,1,,,,,
,,039233,001,2023-07-31_15h03.49.157,arm3_eps,2022.2.5,Win32,60.12867537,5e9ce3d90e7d212164143c80,64c7fed44a04f777bb1e18ce,64c80164ee3eec4e1c68af3c,right,-1,0.75,0.1786,10,-0.108857452,0.1675,,,,,,183,0,183,0,1,,,,,
,,039233,001,2023-07-31_15h03.49.157,arm3_eps,2022.2.5,Win32,60.12867537,5e9ce3d90e7d212164143c80,64c7fed44a04f777bb1e18ce,64c80164ee3eec4e1c68af3c,right,-1,0.75,0.1786,10,-0.131154532,0.1339,,,,,,184,0,184,0,1,,,,,
,,039233,001,2023-07-31_15h03.49.157,arm3_eps,2022.2.5,Win32,60.12867537,5e9ce3d90e7d212164143c80,64c7fed44a04f777bb1e18ce,64c80164ee3eec4e1c68af3c,right,-1,0.75,0.1786,10,-0.140303391,0.1504,,,,,,185,0,185,0,1,,,,,
,,039233,001,2023-07-31_15h03.49.157,arm3_eps,2022.2.5,Win32,60.12867537,5e9ce3d90e7d212164143c80,64c7fed44a04f777bb1e18ce,64c80164ee3eec4e1c68af3c,right,-1,0.75,0.1786,10,-0.172322087,0.1339,,,,,,186,0,186,0,1,,,,,
,,039233,001,2023-07-31_15h03.49.157,arm3_eps,2022.2.5,Win32,60.12867537,5e9ce3d90e7d212164143c80,64c7fed44a04f777bb1e18ce,64c80164ee3eec4e1c68af3c,down,-1,0.75,0.1786,11,0,0.2669,,,,,,187,0,187,0,1,,,,,
,,039233,001,2023-07-31_15h03.49.157,arm3_eps,2022.2.5,Win32,60.12867537,5e9ce3d90e7d212164143c80,64c7fed44a04f777bb1e18ce,64c80164ee3eec4e1c68af3c,right,-1,0.75,0.1786,11,-0.03698147,0.2807,,,,,,188,0,188,0,1,,,,,
,,039233,001,2023-07-31_15h03.49.157,arm3_eps,2022.2.5,Win32,60.12867537,5e9ce3d90e7d212164143c80,64c7fed44a04f777bb1e18ce,64c80164ee3eec4e1c68af3c,right,-1,0.75,0.1786,11,-0.035221241,0.1506,,,,,,189,0,189,0,1,,,,,
,,039233,001,2023-07-31_15h03.49.157,arm3_eps,2022.2.5,Win32,60.12867537,5e9ce3d90e7d212164143c80,64c7fed44a04f777bb1e18ce,64c80164ee3eec4e1c68af3c,right,-1,0.75,0.1786,11,-0.06434038,0.151,,,,,,190,0,190,0,1,,,,,
,,039233,001,2023-07-31_15h03.49.157,arm3_eps,2022.2.5,Win32,60.12867537,5e9ce3d90e7d212164143c80,64c7fed44a04f777bb1e18ce,64c80164ee3eec4e1c68af3c,right,-1,0.75,0.1786,11,-0.050663872,0.167,,,,,,191,0,191,0,1,,,,,
,,039233,001,2023-07-31_15h03.49.157,arm3_eps,2022.2.5,Win32,60.12867537,5e9ce3d90e7d212164143c80,64c7fed44a04f777bb1e18ce,64c80164ee3eec4e1c68af3c,right,-1,0.75,0.1786,11,-0.072633274,0.1505,,,,,,192,0,192,0,1,,,,,
,,039233,001,2023-07-31_15h03.49.157,arm3_eps,2022.2.5,Win32,60.12867537,5e9ce3d90e7d212164143c80,64c7fed44a04f777bb1e18ce,64c80164ee3eec4e1c68af3c,right,-1,0.75,0.1786,11,-0.117358274,0.1333,,,,,,193,0,193,0,1,,,,,
,,039233,001,2023-07-31_15h03.49.157,arm3_eps,2022.2.5,Win32,60.12867537,5e9ce3d90e7d212164143c80,64c7fed44a04f777bb1e18ce,64c80164ee3eec4e1c68af3c,right,-1,0.75,0.1786,11,-0.10481228,0.1504,,,,,,194,0,194,0,1,,,,,
,,039233,001,2023-07-31_15h03.49.157,arm3_eps,2022.2.5,Win32,60.12867537,5e9ce3d90e7d212164143c80,64c7fed44a04f777bb1e18ce,64c80164ee3eec4e1c68af3c,right,-1,0.75,0.1786,11,-0.106713169,0.1178,,,,,,195,0,195,0,1,,,,,
,,039233,001,2023-07-31_15h03.49.157,arm3_eps,2022.2.5,Win32,60.12867537,5e9ce3d90e7d212164143c80,64c7fed44a04f777bb1e18ce,64c80164ee3eec4e1c68af3c,down,-1,0.75,0.1786,11,0,0.1835,,,,,,196,0,196,0,1,,,,,
,,039233,001,2023-07-31_15h03.49.157,arm3_eps,2022.2.5,Win32,60.12867537,5e9ce3d90e7d212164143c80,64c7fed44a04f777bb1e18ce,64c80164ee3eec4e1c68af3c,right,-1,0.75,0.1786,11,-0.010137423,0.2923,,,,,,197,0,197,0,1,,,,,
,,039233,001,2023-07-31_15h03.49.157,arm3_eps,2022.2.5,Win32,60.12867537,5e9ce3d90e7d212164143c80,64c7fed44a04f777bb1e18ce,64c80164ee3eec4e1c68af3c,right,-1,0.75,0.1786,11,-0.016094282,0.1501,,,,,,198,0,198,0,1,,,,,
,,039233,001,2023-07-31_15h03.49.157,arm3_eps,2022.2.5,Win32,60.12867537,5e9ce3d90e7d212164143c80,64c7fed44a04f777bb1e18ce,64c80164ee3eec4e1c68af3c,right,-1,0.75,0.1786,11,-0.028773734,0.1504,,,,,,199,0,199,0,1,,,,,
,,039233,001,2023-07-31_15h03.49.157,arm3_eps,2022.2.5,Win32,60.12867537,5e9ce3d90e7d212164143c80,64c7fed44a04f777bb1e18ce,64c80164ee3eec4e1c68af3c,right,-1,0.75,0.1786,11,-0.012205076,0.1682,,,,,,200,0,200,0,1,,,,,
,,039233,001,2023-07-31_15h03.49.157,arm3_eps,2022.2.5,Win32,60.12867537,5e9ce3d90e7d212164143c80,64c7fed44a04f777bb1e18ce,64c80164ee3eec4e1c68af3c,right,-1,0.75,0.1786,11,-0.039793992,0.6343,,,,,,201,0,201,0,1,,,,,
,,039233,001,2023-07-31_15h03.49.157,arm3_eps,2022.2.5,Win32,60.12867537,5e9ce3d90e7d212164143c80,64c7fed44a04f777bb1e18ce,64c80164ee3eec4e1c68af3c,right,-1,0.75,0.1786,11,-0.073101036,0.1339,,,,,,202,0,202,0,1,,,,,
,,039233,001,2023-07-31_15h03.49.157,arm3_eps,2022.2.5,Win32,60.12867537,5e9ce3d90e7d212164143c80,64c7fed44a04f777bb1e18ce,64c80164ee3eec4e1c68af3c,right,-1,0.75,0.1786,11,-0.09495956,0.1338,,,,,,203,0,203,0,1,,,,,
,,039233,001,2023-07-31_15h03.49.157,arm3_eps,2022.2.5,Win32,60.12867537,5e9ce3d90e7d212164143c80,64c7fed44a04f777bb1e18ce,64c80164ee3eec4e1c68af3c,right,-1,0.75,0.1786,11,-0.073323805,0.1337,,,,,,204,0,204,0,1,,,,,
,,039233,001,2023-07-31_15h03.49.157,arm3_eps,2022.2.5,Win32,60.12867537,5e9ce3d90e7d212164143c80,64c7fed44a04f777bb1e18ce,64c80164ee3eec4e1c68af3c,right,-1,0.75,0.1786,11,-0.055087308,0.1174,,,,,,205,0,205,0,1,,,,,
,,039233,001,2023-07-31_15h03.49.157,arm3_eps,2022.2.5,Win32,60.12867537,5e9ce3d90e7d212164143c80,64c7fed44a04f777bb1e18ce,64c80164ee3eec4e1c68af3c,right,-1,0.75,0.1786,11,-0.069059217,0.1344,,,,,,206,0,206,0,1,,,,,
,,039233,001,2023-07-31_15h03.49.157,arm3_eps,2022.2.5,Win32,60.12867537,5e9ce3d90e7d212164143c80,64c7fed44a04f777bb1e18ce,64c80164ee3eec4e1c68af3c,down,1,0.75,0.1786,11,0,0.6004,,,,,,207,0,207,0,1,,,,,
,,039233,001,2023-07-31_15h03.49.157,arm3_eps,2022.2.5,Win32,60.12867537,5e9ce3d90e7d212164143c80,64c7fed44a04f777bb1e18ce,64c80164ee3eec4e1c68af3c,right,1,0.75,0.1786,11,0.031217476,0.381,,,,,,208,0,208,0,1,,,,,
,,039233,001,2023-07-31_15h03.49.157,arm3_eps,2022.2.5,Win32,60.12867537,5e9ce3d90e7d212164143c80,64c7fed44a04f777bb1e18ce,64c80164ee3eec4e1c68af3c,right,1,0.75,0.1786,11,0.048731455,0.1346,,,,,,209,0,209,0,1,,,,,
,,039233,001,2023-07-31_15h03.49.157,arm3_eps,2022.2.5,Win32,60.12867537,5e9ce3d90e7d212164143c80,64c7fed44a04f777bb1e18ce,64c80164ee3eec4e1c68af3c,right,1,0.75,0.1786,11,0.020792112,0.1675,,,,,,210,0,210,0,1,,,,,
,,039233,001,2023-07-31_15h03.49.157,arm3_eps,2022.2.5,Win32,60.12867537,5e9ce3d90e7d212164143c80,64c7fed44a04f777bb1e18ce,64c80164ee3eec4e1c68af3c,right,1,0.75,0.1786,11,0.005295439,0.1341,,,,,,211,0,211,0,1,,,,,
,,039233,001,2023-07-31_15h03.49.157,arm3_eps,2022.2.5,Win32,60.12867537,5e9ce3d90e7d212164143c80,64c7fed44a04f777bb1e18ce,64c80164ee3eec4e1c68af3c,right,1,0.75,0.1786,11,0.040810856,0.1343,,,,,,212,0,212,0,1,,,,,
,,039233,001,2023-07-31_15h03.49.157,arm3_eps,2022.2.5,Win32,60.12867537,5e9ce3d90e7d212164143c80,64c7fed44a04f777bb1e18ce,64c80164ee3eec4e1c68af3c,right,1,0.75,0.1786,11,0.020310632,0.2997,,,,,,213,0,213,0,1,,,,,
,,039233,001,2023-07-31_15h03.49.157,arm3_eps,2022.2.5,Win32,60.12867537,5e9ce3d90e7d212164143c80,64c7fed44a04f777bb1e18ce,64c80164ee3eec4e1c68af3c,right,1,0.75,0.1786,11,0.05748937,0.1343,,,,,,214,0,214,0,1,,,,,
,,039233,001,2023-07-31_15h03.49.157,arm3_eps,2022.2.5,Win32,60.12867537,5e9ce3d90e7d212164143c80,64c7fed44a04f777bb1e18ce,64c80164ee3eec4e1c68af3c,right,1,0.75,0.1786,11,0.071107656,0.1344,,,,,,215,0,215,0,1,,,,,
,,039233,001,2023-07-31_15h03.49.157,arm3_eps,2022.2.5,Win32,60.12867537,5e9ce3d90e7d212164143c80,64c7fed44a04f777bb1e18ce,64c80164ee3eec4e1c68af3c,right,1,0.75,0.1786,11,0.065093927,0.1512,,,,,,216,0,216,0,1,,,,,
,,039233,001,2023-07-31_15h03.49.157,arm3_eps,2022.2.5,Win32,60.12867537,5e9ce3d90e7d212164143c80,64c7fed44a04f777bb1e18ce,64c80164ee3eec4e1c68af3c,up,1,0.75,0.1786,12,0,0.384,,,,,,217,0,217,0,1,,,,,
,,039233,001,2023-07-31_15h03.49.157,arm3_eps,2022.2.5,Win32,60.12867537,5e9ce3d90e7d212164143c80,64c7fed44a04f777bb1e18ce,64c80164ee3eec4e1c68af3c,right,1,0.75,0.1786,12,0.024382326,0.4152,,,,,,218,0,218,0,1,,,,,
,,039233,001,2023-07-31_15h03.49.157,arm3_eps,2022.2.5,Win32,60.12867537,5e9ce3d90e7d212164143c80,64c7fed44a04f777bb1e18ce,64c80164ee3eec4e1c68af3c,right,1,0.75,0.1786,12,0.046462112,0.1502,,,,,,219,0,219,0,1,,,,,
,,039233,001,2023-07-31_15h03.49.157,arm3_eps,2022.2.5,Win32,60.12867537,5e9ce3d90e7d212164143c80,64c7fed44a04f777bb1e18ce,64c80164ee3eec4e1c68af3c,right,1,0.75,0.1786,12,0.020188402,0.1512,,,,,,220,0,220,0,1,,,,,
,,039233,001,2023-07-31_15h03.49.157,arm3_eps,2022.2.5,Win32,60.12867537,5e9ce3d90e7d212164143c80,64c7fed44a04f777bb1e18ce,64c80164ee3eec4e1c68af3c,right,1,0.75,0.1786,12,0.014091686,0.1342,,,,,,221,0,221,0,1,,,,,
,,039233,001,2023-07-31_15h03.49.157,arm3_eps,2022.2.5,Win32,60.12867537,5e9ce3d90e7d212164143c80,64c7fed44a04f777bb1e18ce,64c80164ee3eec4e1c68af3c,right,1,0.75,0.1786,12,0.029286063,0.1508,,,,,,222,0,222,0,1,,,,,
,,039233,001,2023-07-31_15h03.49.157,arm3_eps,2022.2.5,Win32,60.12867537,5e9ce3d90e7d212164143c80,64c7fed44a04f777bb1e18ce,64c80164ee3eec4e1c68af3c,right,1,0.75,0.1786,12,0.056802015,0.1507,,,,,,223,0,223,0,1,,,,,
,,039233,001,2023-07-31_15h03.49.157,arm3_eps,2022.2.5,Win32,60.12867537,5e9ce3d90e7d212164143c80,64c7fed44a04f777bb1e18ce,64c80164ee3eec4e1c68af3c,right,1,0.75,0.1786,12,0.073120743,0.133,,,,,,224,0,224,0,1,,,,,
,,039233,001,2023-07-31_15h03.49.157,arm3_eps,2022.2.5,Win32,60.12867537,5e9ce3d90e7d212164143c80,64c7fed44a04f777bb1e18ce,64c80164ee3eec4e1c68af3c,right,1,0.75,0.1786,12,0.065995241,0.1663,,,,,,225,0,225,0,1,,,,,
,,039233,001,2023-07-31_15h03.49.157,arm3_eps,2022.2.5,Win32,60.12867537,5e9ce3d90e7d212164143c80,64c7fed44a04f777bb1e18ce,64c80164ee3eec4e1c68af3c,up,1,0.75,0.1786,12,0,0.1834,,,,,,226,0,226,0,1,,,,,
,,039233,001,2023-07-31_15h03.49.157,arm3_eps,2022.2.5,Win32,60.12867537,5e9ce3d90e7d212164143c80,64c7fed44a04f777bb1e18ce,64c80164ee3eec4e1c68af3c,right,1,0.75,0.1786,12,0.023374312,0.2833,,,,,,227,0,227,0,1,,,,,
,,039233,001,2023-07-31_15h03.49.157,arm3_eps,2022.2.5,Win32,60.12867537,5e9ce3d90e7d212164143c80,64c7fed44a04f777bb1e18ce,64c80164ee3eec4e1c68af3c,right,1,0.75,0.1786,12,0.048207567,0.1672,,,,,,228,0,228,0,1,,,,,
,,039233,001,2023-07-31_15h03.49.157,arm3_eps,2022.2.5,Win32,60.12867537,5e9ce3d90e7d212164143c80,64c7fed44a04f777bb1e18ce,64c80164ee3eec4e1c68af3c,right,1,0.75,0.1786,12,0.092395777,0.1345,,,,,,229,0,229,0,1,,,,,
,,039233,001,2023-07-31_15h03.49.157,arm3_eps,2022.2.5,Win32,60.12867537,5e9ce3d90e7d212164143c80,64c7fed44a04f777bb1e18ce,64c80164ee3eec4e1c68af3c,right,1,0.75,0.1786,12,0.073988981,0.1504,,,,,,230,0,230,0,1,,,,,
,,039233,001,2023-07-31_15h03.49.157,arm3_eps,2022.2.5,Win32,60.12867537,5e9ce3d90e7d212164143c80,64c7fed44a04f777bb1e18ce,64c80164ee3eec4e1c68af3c,right,1,0.75,0.1786,12,0.064532981,0.1512,,,,,,231,0,231,0,1,,,,,
,,039233,001,2023-07-31_15h03.49.157,arm3_eps,2022.2.5,Win32,60.12867537,5e9ce3d90e7d212164143c80,64c7fed44a04f777bb1e18ce,64c80164ee3eec4e1c68af3c,right,1,0.75,0.1786,12,0.044854381,0.1508,,,,,,232,0,232,0,1,,,,,
,,039233,001,2023-07-31_15h03.49.157,arm3_eps,2022.2.5,Win32,60.12867537,5e9ce3d90e7d212164143c80,64c7fed44a04f777bb1e18ce,64c80164ee3eec4e1c68af3c,right,1,0.75,0.1786,12,0.068143046,0.1346,,,,,,233,0,233,0,1,,,,,
,,039233,001,2023-07-31_15h03.49.157,arm3_eps,2022.2.5,Win32,60.12867537,5e9ce3d90e7d212164143c80,64c7fed44a04f777bb1e18ce,64c80164ee3eec4e1c68af3c,right,1,0.75,0.1786,12,0.068240675,0.145,,,,,,234,0,234,0,1,,,,,
,,039233,001,2023-07-31_15h03.49.157,arm3_eps,2022.2.5,Win32,60.12867537,5e9ce3d90e7d212164143c80,64c7fed44a04f777bb1e18ce,64c80164ee3eec4e1c68af3c,right,1,0.75,0.1786,12,0.085482236,0.1679,,,,,,235,0,235,0,1,,,,,
,,039233,001,2023-07-31_15h03.49.157,arm3_eps,2022.2.5,Win32,60.12867537,5e9ce3d90e7d212164143c80,64c7fed44a04f777bb1e18ce,64c80164ee3eec4e1c68af3c,up,-1,0.75,0.1786,13,0,0.1172,,,,,,236,0,236,0,1,,,,,
,,039233,001,2023-07-31_15h03.49.157,arm3_eps,2022.2.5,Win32,60.12867537,5e9ce3d90e7d212164143c80,64c7fed44a04f777bb1e18ce,64c80164ee3eec4e1c68af3c,right,-1,0.75,0.1786,13,-0.00714132,0.2045,,,,,,237,0,237,0,1,,,,,
,,039233,001,2023-07-31_15h03.49.157,arm3_eps,2022.2.5,Win32,60.12867537,5e9ce3d90e7d212164143c80,64c7fed44a04f777bb1e18ce,64c80164ee3eec4e1c68af3c,right,-1,0.75,0.1786,13,-0.008134179,0.1502,,,,,,238,0,238,0,1,,,,,
,,039233,001,2023-07-31_15h03.49.157,arm3_eps,2022.2.5,Win32,60.12867537,5e9ce3d90e7d212164143c80,64c7fed44a04f777bb1e18ce,64c80164ee3eec4e1c68af3c,right,-1,0.75,0.1786,13,-0.010213555,0.1509,,,,,,239,0,239,0,1,,,,,
,,039233,001,2023-07-31_15h03.49.157,arm3_eps,2022.2.5,Win32,60.12867537,5e9ce3d90e7d212164143c80,64c7fed44a04f777bb1e18ce,64c80164ee3eec4e1c68af3c,right,-1,0.75,0.1786,13,-0.013200388,0.1512,,,,,,240,0,240,0,1,,,,,
,,039233,001,2023-07-31_15h03.49.157,arm3_eps,2022.2.5,Win32,60.12867537,5e9ce3d90e7d212164143c80,64c7fed44a04f777bb1e18ce,64c80164ee3eec4e1c68af3c,right,-1,0.75,0.1786,13,-0.021545484,0.1504,,,,,,241,0,241,0,1,,,,,
,,039233,001,2023-07-31_15h03.49.157,arm3_eps,2022.2.5,Win32,60.12867537,5e9ce3d90e7d212164143c80,64c7fed44a04f777bb1e18ce,64c80164ee3eec4e1c68af3c,right,-1,0.75,0.1786,13,-0.051531187,0.1521,,,,,,242,0,242,0,1,,,,,
,,039233,001,2023-07-31_15h03.49.157,arm3_eps,2022.2.5,Win32,60.12867537,5e9ce3d90e7d212164143c80,64c7fed44a04f777bb1e18ce,64c80164ee3eec4e1c68af3c,right,-1,0.75,0.1786,13,-0.069724164,0.1496,,,,,,243,0,243,0,1,,,,,
,,039233,001,2023-07-31_15h03.49.157,arm3_eps,2022.2.5,Win32,60.12867537,5e9ce3d90e7d212164143c80,64c7fed44a04f777bb1e18ce,64c80164ee3eec4e1c68af3c,down,-1,0.75,0.1786,14,0,0.4178,,,,,,244,0,244,0,1,,,,,
,,039233,001,2023-07-31_15h03.49.157,arm3_eps,2022.2.5,Win32,60.12867537,5e9ce3d90e7d212164143c80,64c7fed44a04f777bb1e18ce,64c80164ee3eec4e1c68af3c,right,-1,0.75,0.1786,14,0.021447211,0.2622,,,,,,245,0,245,0,1,,,,,
,,039233,001,2023-07-31_15h03.49.157,arm3_eps,2022.2.5,Win32,60.12867537,5e9ce3d90e7d212164143c80,64c7fed44a04f777bb1e18ce,64c80164ee3eec4e1c68af3c,right,-1,0.75,0.1786,14,0.018887984,0.1646,,,,,,246,0,246,0,1,,,,,
,,039233,001,2023-07-31_15h03.49.157,arm3_eps,2022.2.5,Win32,60.12867537,5e9ce3d90e7d212164143c80,64c7fed44a04f777bb1e18ce,64c80164ee3eec4e1c68af3c,right,-1,0.75,0.1786,14,0.014624174,0.1344,,,,,,247,0,247,0,1,,,,,
,,039233,001,2023-07-31_15h03.49.157,arm3_eps,2022.2.5,Win32,60.12867537,5e9ce3d90e7d212164143c80,64c7fed44a04f777bb1e18ce,64c80164ee3eec4e1c68af3c,right,-1,0.75,0.1786,14,0.031489102,0.1502,,,,,,248,0,248,0,1,,,,,
,,039233,001,2023-07-31_15h03.49.157,arm3_eps,2022.2.5,Win32,60.12867537,5e9ce3d90e7d212164143c80,64c7fed44a04f777bb1e18ce,64c80164ee3eec4e1c68af3c,right,-1,0.75,0.1786,14,0.006737506,0.1334,,,,,,249,0,249,0,1,,,,,
,,039233,001,2023-07-31_15h03.49.157,arm3_eps,2022.2.5,Win32,60.12867537,5e9ce3d90e7d212164143c80,64c7fed44a04f777bb1e18ce,64c80164ee3eec4e1c68af3c,right,-1,0.75,0.1786,14,-0.006509588,0.1505,,,,,,250,0,250,0,1,,,,,
,,039233,001,2023-07-31_15h03.49.157,arm3_eps,2022.2.5,Win32,60.12867537,5e9ce3d90e7d212164143c80,64c7fed44a04f777bb1e18ce,64c80164ee3eec4e1c68af3c,right,-1,0.75,0.1786,14,0.01024869,0.1666,,,,,,251,0,251,0,1,,,,,
,,039233,001,2023-07-31_15h03.49.157,arm3_eps,2022.2.5,Win32,60.12867537,5e9ce3d90e7d212164143c80,64c7fed44a04f777bb1e18ce,64c80164ee3eec4e1c68af3c,right,-1,0.75,0.1786,14,-0.037023875,0.1503,,,,,,252,0,252,0,1,,,,,
,,039233,001,2023-07-31_15h03.49.157,arm3_eps,2022.2.5,Win32,60.12867537,5e9ce3d90e7d212164143c80,64c7fed44a04f777bb1e18ce,64c80164ee3eec4e1c68af3c,right,-1,0.75,0.1786,14,-0.064522898,0.1511,,,,,,253,0,253,0,1,,,,,
