space_bar.keys,space_bar.rt,participant,session,date,expName,psychopyVersion,OS,frameRate,PROLIFIC_PID,STUDY_ID,SESSION_ID,resp.keys,state,q_prob,eps_prob,score,price,resp.rt,train.thisRepN,train.thisTrialN,train.thisN,train.thisIndex,train.ran,steps.thisRepN,steps.thisTrialN,steps.thisN,steps.thisIndex,steps.ran,blocks.thisRepN,blocks.thisTrialN,blocks.thisN,blocks.thisIndex,blocks.ran
space,13.6014,051151,001,2023-07-29_15h37.12.899,arm3_eps,2022.2.5,MacIntel,60.0024001,60ffd7de4dc3ea2bfd477a22,64c47140896c8c63e34c6d2f,64c515fda4e95dc51d9fc599,,,,,,,,,,,,,,,,,,,,,,
space,2.8075,051151,001,2023-07-29_15h37.12.899,arm3_eps,2022.2.5,MacIntel,60.0024001,60ffd7de4dc3ea2bfd477a22,64c47140896c8c63e34c6d2f,64c515fda4e95dc51d9fc599,,,,,,,,,,,,,,,,,,,,,,
space,14.2479,051151,001,2023-07-29_15h37.12.899,arm3_eps,2022.2.5,MacIntel,60.0024001,60ffd7de4dc3ea2bfd477a22,64c47140896c8c63e34c6d2f,64c515fda4e95dc51d9fc599,,,,,,,,,,,,,,,,,,,,,,
space,18.846,051151,001,2023-07-29_15h37.12.899,arm3_eps,2022.2.5,MacIntel,60.0024001,60ffd7de4dc3ea2bfd477a22,64c47140896c8c63e34c6d2f,64c515fda4e95dc51d9fc599,,,,,,,,,,,,,,,,,,,,,,
space,8.909,051151,001,2023-07-29_15h37.12.899,arm3_eps,2022.2.5,MacIntel,60.0024001,60ffd7de4dc3ea2bfd477a22,64c47140896c8c63e34c6d2f,64c515fda4e95dc51d9fc599,,,,,,,,,,,,,,,,,,,,,,
space,6.1994,051151,001,2023-07-29_15h37.12.899,arm3_eps,2022.2.5,MacIntel,60.0024001,60ffd7de4dc3ea2bfd477a22,64c47140896c8c63e34c6d2f,64c515fda4e95dc51d9fc599,,,,,,,,,,,,,,,,,,,,,,
space,1.3761,051151,001,2023-07-29_15h37.12.899,arm3_eps,2022.2.5,MacIntel,60.0024001,60ffd7de4dc3ea2bfd477a22,64c47140896c8c63e34c6d2f,64c515fda4e95dc51d9fc599,,,,,,,,,,,,,,,,,,,,,,
,,051151,001,2023-07-29_15h37.12.899,arm3_eps,2022.2.5,MacIntel,60.0024001,60ffd7de4dc3ea2bfd477a22,64c47140896c8c63e34c6d2f,64c515fda4e95dc51d9fc599,right,1,1,0.2429,0,0.043113038,1.3439,0,0,0,0,1,,,,,,,,,,
,,051151,001,2023-07-29_15h37.12.899,arm3_eps,2022.2.5,MacIntel,60.0024001,60ffd7de4dc3ea2bfd477a22,64c47140896c8c63e34c6d2f,64c515fda4e95dc51d9fc599,right,1,1,0.2429,0,0.049603367,0.6839,1,0,1,0,1,,,,,,,,,,
,,051151,001,2023-07-29_15h37.12.899,arm3_eps,2022.2.5,MacIntel,60.0024001,60ffd7de4dc3ea2bfd477a22,64c47140896c8c63e34c6d2f,64c515fda4e95dc51d9fc599,right,1,1,0.2429,0,0.065260408,0.5313,2,0,2,0,1,,,,,,,,,,
,,051151,001,2023-07-29_15h37.12.899,arm3_eps,2022.2.5,MacIntel,60.0024001,60ffd7de4dc3ea2bfd477a22,64c47140896c8c63e34c6d2f,64c515fda4e95dc51d9fc599,right,1,1,0.2429,0,0.101013663,0.9167,3,0,3,0,1,,,,,,,,,,
,,051151,001,2023-07-29_15h37.12.899,arm3_eps,2022.2.5,MacIntel,60.0024001,60ffd7de4dc3ea2bfd477a22,64c47140896c8c63e34c6d2f,64c515fda4e95dc51d9fc599,right,1,1,0.2429,0,0.102347404,0.3609,4,0,4,0,1,,,,,,,,,,
,,051151,001,2023-07-29_15h37.12.899,arm3_eps,2022.2.5,MacIntel,60.0024001,60ffd7de4dc3ea2bfd477a22,64c47140896c8c63e34c6d2f,64c515fda4e95dc51d9fc599,right,1,1,0.2429,0,0.094047741,0.3857,5,0,5,0,1,,,,,,,,,,
,,051151,001,2023-07-29_15h37.12.899,arm3_eps,2022.2.5,MacIntel,60.0024001,60ffd7de4dc3ea2bfd477a22,64c47140896c8c63e34c6d2f,64c515fda4e95dc51d9fc599,right,1,1,0.2429,0,0.072365428,0.3694,6,0,6,0,1,,,,,,,,,,
,,051151,001,2023-07-29_15h37.12.899,arm3_eps,2022.2.5,MacIntel,60.0024001,60ffd7de4dc3ea2bfd477a22,64c47140896c8c63e34c6d2f,64c515fda4e95dc51d9fc599,right,1,1,0.2429,0,0.050299508,0.3665,7,0,7,0,1,,,,,,,,,,
,,051151,001,2023-07-29_15h37.12.899,arm3_eps,2022.2.5,MacIntel,60.0024001,60ffd7de4dc3ea2bfd477a22,64c47140896c8c63e34c6d2f,64c515fda4e95dc51d9fc599,right,1,1,0.2429,0,0.076482602,0.5332,8,0,8,0,1,,,,,,,,,,
,,051151,001,2023-07-29_15h37.12.899,arm3_eps,2022.2.5,MacIntel,60.0024001,60ffd7de4dc3ea2bfd477a22,64c47140896c8c63e34c6d2f,64c515fda4e95dc51d9fc599,right,1,1,0.2429,0,0.08425698,0.3943,9,0,9,0,1,,,,,,,,,,
,,051151,001,2023-07-29_15h37.12.899,arm3_eps,2022.2.5,MacIntel,60.0024001,60ffd7de4dc3ea2bfd477a22,64c47140896c8c63e34c6d2f,64c515fda4e95dc51d9fc599,right,1,1,0.2429,0,0.114584779,0.4168,10,0,10,0,1,,,,,,,,,,
,,051151,001,2023-07-29_15h37.12.899,arm3_eps,2022.2.5,MacIntel,60.0024001,60ffd7de4dc3ea2bfd477a22,64c47140896c8c63e34c6d2f,64c515fda4e95dc51d9fc599,right,1,1,0.2429,0,0.112889413,0.6832,11,0,11,0,1,,,,,,,,,,
,,051151,001,2023-07-29_15h37.12.899,arm3_eps,2022.2.5,MacIntel,60.0024001,60ffd7de4dc3ea2bfd477a22,64c47140896c8c63e34c6d2f,64c515fda4e95dc51d9fc599,down,-1,1,0.2429,-1,0,2.6171,12,0,12,0,1,,,,,,,,,,
,,051151,001,2023-07-29_15h37.12.899,arm3_eps,2022.2.5,MacIntel,60.0024001,60ffd7de4dc3ea2bfd477a22,64c47140896c8c63e34c6d2f,64c515fda4e95dc51d9fc599,right,-1,1,0.2429,-1,-0.002557059,3.8444,13,0,13,0,1,,,,,,,,,,
,,051151,001,2023-07-29_15h37.12.899,arm3_eps,2022.2.5,MacIntel,60.0024001,60ffd7de4dc3ea2bfd477a22,64c47140896c8c63e34c6d2f,64c515fda4e95dc51d9fc599,right,-1,1,0.2429,-1,-0.04497704,0.3974,14,0,14,0,1,,,,,,,,,,
,,051151,001,2023-07-29_15h37.12.899,arm3_eps,2022.2.5,MacIntel,60.0024001,60ffd7de4dc3ea2bfd477a22,64c47140896c8c63e34c6d2f,64c515fda4e95dc51d9fc599,right,-1,1,0.2429,-1,-0.077366483,0.2866,15,0,15,0,1,,,,,,,,,,
,,051151,001,2023-07-29_15h37.12.899,arm3_eps,2022.2.5,MacIntel,60.0024001,60ffd7de4dc3ea2bfd477a22,64c47140896c8c63e34c6d2f,64c515fda4e95dc51d9fc599,right,-1,1,0.2429,-1,-0.048953441,0.3827,16,0,16,0,1,,,,,,,,,,
,,051151,001,2023-07-29_15h37.12.899,arm3_eps,2022.2.5,MacIntel,60.0024001,60ffd7de4dc3ea2bfd477a22,64c47140896c8c63e34c6d2f,64c515fda4e95dc51d9fc599,right,-1,1,0.2429,-1,-0.059362031,0.3052,17,0,17,0,1,,,,,,,,,,
,,051151,001,2023-07-29_15h37.12.899,arm3_eps,2022.2.5,MacIntel,60.0024001,60ffd7de4dc3ea2bfd477a22,64c47140896c8c63e34c6d2f,64c515fda4e95dc51d9fc599,right,-1,1,0.2429,-1,-0.071557392,0.1842,18,0,18,0,1,,,,,,,,,,
,,051151,001,2023-07-29_15h37.12.899,arm3_eps,2022.2.5,MacIntel,60.0024001,60ffd7de4dc3ea2bfd477a22,64c47140896c8c63e34c6d2f,64c515fda4e95dc51d9fc599,right,-1,1,0.2429,-1,-0.099183352,0.2335,19,0,19,0,1,,,,,,,,,,
,,051151,001,2023-07-29_15h37.12.899,arm3_eps,2022.2.5,MacIntel,60.0024001,60ffd7de4dc3ea2bfd477a22,64c47140896c8c63e34c6d2f,64c515fda4e95dc51d9fc599,right,-1,1,0.2429,-1,-0.091175106,0.2541,20,0,20,0,1,,,,,,,,,,
,,051151,001,2023-07-29_15h37.12.899,arm3_eps,2022.2.5,MacIntel,60.0024001,60ffd7de4dc3ea2bfd477a22,64c47140896c8c63e34c6d2f,64c515fda4e95dc51d9fc599,right,-1,1,0.2429,-1,-0.113660462,0.2876,21,0,21,0,1,,,,,,,,,,
,,051151,001,2023-07-29_15h37.12.899,arm3_eps,2022.2.5,MacIntel,60.0024001,60ffd7de4dc3ea2bfd477a22,64c47140896c8c63e34c6d2f,64c515fda4e95dc51d9fc599,right,-1,1,0.2429,-1,-0.12140609,0.2528,22,0,22,0,1,,,,,,,,,,
,,051151,001,2023-07-29_15h37.12.899,arm3_eps,2022.2.5,MacIntel,60.0024001,60ffd7de4dc3ea2bfd477a22,64c47140896c8c63e34c6d2f,64c515fda4e95dc51d9fc599,right,-1,1,0.2429,-1,-0.121990574,0.2827,23,0,23,0,1,,,,,,,,,,
,,051151,001,2023-07-29_15h37.12.899,arm3_eps,2022.2.5,MacIntel,60.0024001,60ffd7de4dc3ea2bfd477a22,64c47140896c8c63e34c6d2f,64c515fda4e95dc51d9fc599,down,1,1,0.2429,0,0,0.6332,24,0,24,0,1,,,,,,,,,,
,,051151,001,2023-07-29_15h37.12.899,arm3_eps,2022.2.5,MacIntel,60.0024001,60ffd7de4dc3ea2bfd477a22,64c47140896c8c63e34c6d2f,64c515fda4e95dc51d9fc599,right,1,1,0.2429,0,-0.002676247,1.2456,25,0,25,0,1,,,,,,,,,,
,,051151,001,2023-07-29_15h37.12.899,arm3_eps,2022.2.5,MacIntel,60.0024001,60ffd7de4dc3ea2bfd477a22,64c47140896c8c63e34c6d2f,64c515fda4e95dc51d9fc599,right,1,1,0.2429,0,0.029345326,0.301,26,0,26,0,1,,,,,,,,,,
,,051151,001,2023-07-29_15h37.12.899,arm3_eps,2022.2.5,MacIntel,60.0024001,60ffd7de4dc3ea2bfd477a22,64c47140896c8c63e34c6d2f,64c515fda4e95dc51d9fc599,right,1,1,0.2429,0,0.034753812,0.2515,27,0,27,0,1,,,,,,,,,,
,,051151,001,2023-07-29_15h37.12.899,arm3_eps,2022.2.5,MacIntel,60.0024001,60ffd7de4dc3ea2bfd477a22,64c47140896c8c63e34c6d2f,64c515fda4e95dc51d9fc599,right,1,1,0.2429,0,0.035814251,0.1681,28,0,28,0,1,,,,,,,,,,
,,051151,001,2023-07-29_15h37.12.899,arm3_eps,2022.2.5,MacIntel,60.0024001,60ffd7de4dc3ea2bfd477a22,64c47140896c8c63e34c6d2f,64c515fda4e95dc51d9fc599,right,1,1,0.2429,0,0.014579989,0.1841,29,0,29,0,1,,,,,,,,,,
,,051151,001,2023-07-29_15h37.12.899,arm3_eps,2022.2.5,MacIntel,60.0024001,60ffd7de4dc3ea2bfd477a22,64c47140896c8c63e34c6d2f,64c515fda4e95dc51d9fc599,right,1,1,0.2429,0,-0.004093941,0.1843,30,0,30,0,1,,,,,,,,,,
,,051151,001,2023-07-29_15h37.12.899,arm3_eps,2022.2.5,MacIntel,60.0024001,60ffd7de4dc3ea2bfd477a22,64c47140896c8c63e34c6d2f,64c515fda4e95dc51d9fc599,right,1,1,0.2429,0,-0.020710108,0.1846,31,0,31,0,1,,,,,,,,,,
,,051151,001,2023-07-29_15h37.12.899,arm3_eps,2022.2.5,MacIntel,60.0024001,60ffd7de4dc3ea2bfd477a22,64c47140896c8c63e34c6d2f,64c515fda4e95dc51d9fc599,right,1,1,0.2429,0,-0.034442237,0.1679,32,0,32,0,1,,,,,,,,,,
,,051151,001,2023-07-29_15h37.12.899,arm3_eps,2022.2.5,MacIntel,60.0024001,60ffd7de4dc3ea2bfd477a22,64c47140896c8c63e34c6d2f,64c515fda4e95dc51d9fc599,right,1,1,0.2429,0,-0.029722126,0.1988,33,0,33,0,1,,,,,,,,,,
,,051151,001,2023-07-29_15h37.12.899,arm3_eps,2022.2.5,MacIntel,60.0024001,60ffd7de4dc3ea2bfd477a22,64c47140896c8c63e34c6d2f,64c515fda4e95dc51d9fc599,right,1,1,0.2429,0,-0.001202928,0.2273,34,0,34,0,1,,,,,,,,,,
,,051151,001,2023-07-29_15h37.12.899,arm3_eps,2022.2.5,MacIntel,60.0024001,60ffd7de4dc3ea2bfd477a22,64c47140896c8c63e34c6d2f,64c515fda4e95dc51d9fc599,right,1,1,0.2429,0,0.005865066,0.3006,35,0,35,0,1,,,,,,,,,,
,,051151,001,2023-07-29_15h37.12.899,arm3_eps,2022.2.5,MacIntel,60.0024001,60ffd7de4dc3ea2bfd477a22,64c47140896c8c63e34c6d2f,64c515fda4e95dc51d9fc599,right,1,1,0.2429,0,0.010780753,0.4005,36,0,36,0,1,,,,,,,,,,
,,051151,001,2023-07-29_15h37.12.899,arm3_eps,2022.2.5,MacIntel,60.0024001,60ffd7de4dc3ea2bfd477a22,64c47140896c8c63e34c6d2f,64c515fda4e95dc51d9fc599,up,1,1,0.2429,1,0,0.8299,37,0,37,0,1,,,,,,,,,,
,,051151,001,2023-07-29_15h37.12.899,arm3_eps,2022.2.5,MacIntel,60.0024001,60ffd7de4dc3ea2bfd477a22,64c47140896c8c63e34c6d2f,64c515fda4e95dc51d9fc599,right,1,1,0.2429,1,-0.013863723,1.0769,38,0,38,0,1,,,,,,,,,,
,,051151,001,2023-07-29_15h37.12.899,arm3_eps,2022.2.5,MacIntel,60.0024001,60ffd7de4dc3ea2bfd477a22,64c47140896c8c63e34c6d2f,64c515fda4e95dc51d9fc599,right,1,1,0.2429,1,0.010006896,0.4209,39,0,39,0,1,,,,,,,,,,
,,051151,001,2023-07-29_15h37.12.899,arm3_eps,2022.2.5,MacIntel,60.0024001,60ffd7de4dc3ea2bfd477a22,64c47140896c8c63e34c6d2f,64c515fda4e95dc51d9fc599,right,1,1,0.2429,1,0.043172318,0.2829,40,0,40,0,1,,,,,,,,,,
,,051151,001,2023-07-29_15h37.12.899,arm3_eps,2022.2.5,MacIntel,60.0024001,60ffd7de4dc3ea2bfd477a22,64c47140896c8c63e34c6d2f,64c515fda4e95dc51d9fc599,right,1,1,0.2429,1,0.059042964,0.3201,41,0,41,0,1,,,,,,,,,,
,,051151,001,2023-07-29_15h37.12.899,arm3_eps,2022.2.5,MacIntel,60.0024001,60ffd7de4dc3ea2bfd477a22,64c47140896c8c63e34c6d2f,64c515fda4e95dc51d9fc599,right,1,1,0.2429,1,0.086496747,0.2842,42,0,42,0,1,,,,,,,,,,
,,051151,001,2023-07-29_15h37.12.899,arm3_eps,2022.2.5,MacIntel,60.0024001,60ffd7de4dc3ea2bfd477a22,64c47140896c8c63e34c6d2f,64c515fda4e95dc51d9fc599,right,1,1,0.2429,1,0.080990118,0.2187,43,0,43,0,1,,,,,,,,,,
,,051151,001,2023-07-29_15h37.12.899,arm3_eps,2022.2.5,MacIntel,60.0024001,60ffd7de4dc3ea2bfd477a22,64c47140896c8c63e34c6d2f,64c515fda4e95dc51d9fc599,right,1,1,0.2429,1,0.089702682,0.3016,44,0,44,0,1,,,,,,,,,,
,,051151,001,2023-07-29_15h37.12.899,arm3_eps,2022.2.5,MacIntel,60.0024001,60ffd7de4dc3ea2bfd477a22,64c47140896c8c63e34c6d2f,64c515fda4e95dc51d9fc599,right,1,1,0.2429,1,0.111995839,0.3172,45,0,45,0,1,,,,,,,,,,
,,051151,001,2023-07-29_15h37.12.899,arm3_eps,2022.2.5,MacIntel,60.0024001,60ffd7de4dc3ea2bfd477a22,64c47140896c8c63e34c6d2f,64c515fda4e95dc51d9fc599,right,1,1,0.2429,1,0.129328392,0.3285,46,0,46,0,1,,,,,,,,,,
,,051151,001,2023-07-29_15h37.12.899,arm3_eps,2022.2.5,MacIntel,60.0024001,60ffd7de4dc3ea2bfd477a22,64c47140896c8c63e34c6d2f,64c515fda4e95dc51d9fc599,right,1,1,0.2429,1,0.139192927,0.3162,47,0,47,0,1,,,,,,,,,,
,,051151,001,2023-07-29_15h37.12.899,arm3_eps,2022.2.5,MacIntel,60.0024001,60ffd7de4dc3ea2bfd477a22,64c47140896c8c63e34c6d2f,64c515fda4e95dc51d9fc599,right,1,1,0.2429,1,0.138446309,0.3628,48,0,48,0,1,,,,,,,,,,
,,051151,001,2023-07-29_15h37.12.899,arm3_eps,2022.2.5,MacIntel,60.0024001,60ffd7de4dc3ea2bfd477a22,64c47140896c8c63e34c6d2f,64c515fda4e95dc51d9fc599,right,1,1,0.2429,1,0.12341692,0.3828,49,0,49,0,1,,,,,,,,,,
space,13.2577,051151,001,2023-07-29_15h37.12.899,arm3_eps,2022.2.5,MacIntel,60.0024001,60ffd7de4dc3ea2bfd477a22,64c47140896c8c63e34c6d2f,64c515fda4e95dc51d9fc599,,,,,,,,,,,,,,,,,,,,,,
space,13.365,051151,001,2023-07-29_15h37.12.899,arm3_eps,2022.2.5,MacIntel,60.0024001,60ffd7de4dc3ea2bfd477a22,64c47140896c8c63e34c6d2f,64c515fda4e95dc51d9fc599,,,,,,,,,,,,,,,,,,,,,,
space,9.0165,051151,001,2023-07-29_15h37.12.899,arm3_eps,2022.2.5,MacIntel,60.0024001,60ffd7de4dc3ea2bfd477a22,64c47140896c8c63e34c6d2f,64c515fda4e95dc51d9fc599,,,,,,,,,,,,,,,,,,,,,,
space,6.1846,051151,001,2023-07-29_15h37.12.899,arm3_eps,2022.2.5,MacIntel,60.0024001,60ffd7de4dc3ea2bfd477a22,64c47140896c8c63e34c6d2f,64c515fda4e95dc51d9fc599,,,,,,,,,,,,,,,,,,,,,,
space,6.3821,051151,001,2023-07-29_15h37.12.899,arm3_eps,2022.2.5,MacIntel,60.0024001,60ffd7de4dc3ea2bfd477a22,64c47140896c8c63e34c6d2f,64c515fda4e95dc51d9fc599,,,,,,,,,,,,,,,,,,,,,,
space,0.9515,051151,001,2023-07-29_15h37.12.899,arm3_eps,2022.2.5,MacIntel,60.0024001,60ffd7de4dc3ea2bfd477a22,64c47140896c8c63e34c6d2f,64c515fda4e95dc51d9fc599,,,,,,,,,,,,,,,,,,,,,,
,,051151,001,2023-07-29_15h37.12.899,arm3_eps,2022.2.5,MacIntel,60.0024001,60ffd7de4dc3ea2bfd477a22,64c47140896c8c63e34c6d2f,64c515fda4e95dc51d9fc599,right,1,0.75,0.2429,0,0.02207623,0.8578,0,0,0,0,1,,,,,,,,,,
,,051151,001,2023-07-29_15h37.12.899,arm3_eps,2022.2.5,MacIntel,60.0024001,60ffd7de4dc3ea2bfd477a22,64c47140896c8c63e34c6d2f,64c515fda4e95dc51d9fc599,right,1,0.75,0.2429,0,0.020980461,0.6323,1,0,1,0,1,,,,,,,,,,
,,051151,001,2023-07-29_15h37.12.899,arm3_eps,2022.2.5,MacIntel,60.0024001,60ffd7de4dc3ea2bfd477a22,64c47140896c8c63e34c6d2f,64c515fda4e95dc51d9fc599,right,1,0.75,0.2429,0,0.044940338,0.6026,2,0,2,0,1,,,,,,,,,,
,,051151,001,2023-07-29_15h37.12.899,arm3_eps,2022.2.5,MacIntel,60.0024001,60ffd7de4dc3ea2bfd477a22,64c47140896c8c63e34c6d2f,64c515fda4e95dc51d9fc599,right,1,0.75,0.2429,0,0.042307649,0.5819,3,0,3,0,1,,,,,,,,,,
,,051151,001,2023-07-29_15h37.12.899,arm3_eps,2022.2.5,MacIntel,60.0024001,60ffd7de4dc3ea2bfd477a22,64c47140896c8c63e34c6d2f,64c515fda4e95dc51d9fc599,right,1,0.75,0.2429,0,0.028322972,0.5327,4,0,4,0,1,,,,,,,,,,
,,051151,001,2023-07-29_15h37.12.899,arm3_eps,2022.2.5,MacIntel,60.0024001,60ffd7de4dc3ea2bfd477a22,64c47140896c8c63e34c6d2f,64c515fda4e95dc51d9fc599,right,1,0.75,0.2429,0,0.048217871,0.3983,5,0,5,0,1,,,,,,,,,,
,,051151,001,2023-07-29_15h37.12.899,arm3_eps,2022.2.5,MacIntel,60.0024001,60ffd7de4dc3ea2bfd477a22,64c47140896c8c63e34c6d2f,64c515fda4e95dc51d9fc599,right,1,0.75,0.2429,0,0.057957675,0.5833,6,0,6,0,1,,,,,,,,,,
,,051151,001,2023-07-29_15h37.12.899,arm3_eps,2022.2.5,MacIntel,60.0024001,60ffd7de4dc3ea2bfd477a22,64c47140896c8c63e34c6d2f,64c515fda4e95dc51d9fc599,right,1,0.75,0.2429,0,0.060529259,0.4513,7,0,7,0,1,,,,,,,,,,
,,051151,001,2023-07-29_15h37.12.899,arm3_eps,2022.2.5,MacIntel,60.0024001,60ffd7de4dc3ea2bfd477a22,64c47140896c8c63e34c6d2f,64c515fda4e95dc51d9fc599,up,1,0.75,0.2429,0,0,0.3472,8,0,8,0,1,,,,,,,,,,
,,051151,001,2023-07-29_15h37.12.899,arm3_eps,2022.2.5,MacIntel,60.0024001,60ffd7de4dc3ea2bfd477a22,64c47140896c8c63e34c6d2f,64c515fda4e95dc51d9fc599,right,1,0.75,0.2429,0,0.002787177,1.5248,9,0,9,0,1,,,,,,,,,,
,,051151,001,2023-07-29_15h37.12.899,arm3_eps,2022.2.5,MacIntel,60.0024001,60ffd7de4dc3ea2bfd477a22,64c47140896c8c63e34c6d2f,64c515fda4e95dc51d9fc599,right,1,0.75,0.2429,0,-0.005510988,0.5036,10,0,10,0,1,,,,,,,,,,
,,051151,001,2023-07-29_15h37.12.899,arm3_eps,2022.2.5,MacIntel,60.0024001,60ffd7de4dc3ea2bfd477a22,64c47140896c8c63e34c6d2f,64c515fda4e95dc51d9fc599,right,1,0.75,0.2429,0,-0.002263703,0.3991,11,0,11,0,1,,,,,,,,,,
,,051151,001,2023-07-29_15h37.12.899,arm3_eps,2022.2.5,MacIntel,60.0024001,60ffd7de4dc3ea2bfd477a22,64c47140896c8c63e34c6d2f,64c515fda4e95dc51d9fc599,right,1,0.75,0.2429,0,0.010105683,0.5166,12,0,12,0,1,,,,,,,,,,
,,051151,001,2023-07-29_15h37.12.899,arm3_eps,2022.2.5,MacIntel,60.0024001,60ffd7de4dc3ea2bfd477a22,64c47140896c8c63e34c6d2f,64c515fda4e95dc51d9fc599,right,1,0.75,0.2429,0,0.006928882,0.4436,13,0,13,0,1,,,,,,,,,,
,,051151,001,2023-07-29_15h37.12.899,arm3_eps,2022.2.5,MacIntel,60.0024001,60ffd7de4dc3ea2bfd477a22,64c47140896c8c63e34c6d2f,64c515fda4e95dc51d9fc599,right,1,0.75,0.2429,0,0.041296805,0.5971,14,0,14,0,1,,,,,,,,,,
,,051151,001,2023-07-29_15h37.12.899,arm3_eps,2022.2.5,MacIntel,60.0024001,60ffd7de4dc3ea2bfd477a22,64c47140896c8c63e34c6d2f,64c515fda4e95dc51d9fc599,right,1,0.75,0.2429,0,0.025971941,0.4525,15,0,15,0,1,,,,,,,,,,
,,051151,001,2023-07-29_15h37.12.899,arm3_eps,2022.2.5,MacIntel,60.0024001,60ffd7de4dc3ea2bfd477a22,64c47140896c8c63e34c6d2f,64c515fda4e95dc51d9fc599,right,1,0.75,0.2429,0,0.031132288,0.5464,16,0,16,0,1,,,,,,,,,,
,,051151,001,2023-07-29_15h37.12.899,arm3_eps,2022.2.5,MacIntel,60.0024001,60ffd7de4dc3ea2bfd477a22,64c47140896c8c63e34c6d2f,64c515fda4e95dc51d9fc599,right,1,0.75,0.2429,0,0.056858306,0.513,17,0,17,0,1,,,,,,,,,,
,,051151,001,2023-07-29_15h37.12.899,arm3_eps,2022.2.5,MacIntel,60.0024001,60ffd7de4dc3ea2bfd477a22,64c47140896c8c63e34c6d2f,64c515fda4e95dc51d9fc599,right,1,0.75,0.2429,0,0.042675102,0.5306,18,0,18,0,1,,,,,,,,,,
,,051151,001,2023-07-29_15h37.12.899,arm3_eps,2022.2.5,MacIntel,60.0024001,60ffd7de4dc3ea2bfd477a22,64c47140896c8c63e34c6d2f,64c515fda4e95dc51d9fc599,up,1,0.75,0.2429,1,0,0.4809,19,0,19,0,1,,,,,,,,,,
,,051151,001,2023-07-29_15h37.12.899,arm3_eps,2022.2.5,MacIntel,60.0024001,60ffd7de4dc3ea2bfd477a22,64c47140896c8c63e34c6d2f,64c515fda4e95dc51d9fc599,right,1,0.75,0.2429,1,-0.019481358,1.3998,20,0,20,0,1,,,,,,,,,,
,,051151,001,2023-07-29_15h37.12.899,arm3_eps,2022.2.5,MacIntel,60.0024001,60ffd7de4dc3ea2bfd477a22,64c47140896c8c63e34c6d2f,64c515fda4e95dc51d9fc599,right,1,0.75,0.2429,1,0.003861632,0.4336,21,0,21,0,1,,,,,,,,,,
,,051151,001,2023-07-29_15h37.12.899,arm3_eps,2022.2.5,MacIntel,60.0024001,60ffd7de4dc3ea2bfd477a22,64c47140896c8c63e34c6d2f,64c515fda4e95dc51d9fc599,right,1,0.75,0.2429,1,-0.006938692,0.449,22,0,22,0,1,,,,,,,,,,
,,051151,001,2023-07-29_15h37.12.899,arm3_eps,2022.2.5,MacIntel,60.0024001,60ffd7de4dc3ea2bfd477a22,64c47140896c8c63e34c6d2f,64c515fda4e95dc51d9fc599,right,1,0.75,0.2429,1,-0.005528914,0.5176,23,0,23,0,1,,,,,,,,,,
,,051151,001,2023-07-29_15h37.12.899,arm3_eps,2022.2.5,MacIntel,60.0024001,60ffd7de4dc3ea2bfd477a22,64c47140896c8c63e34c6d2f,64c515fda4e95dc51d9fc599,right,1,0.75,0.2429,1,-0.025418814,0.469,24,0,24,0,1,,,,,,,,,,
,,051151,001,2023-07-29_15h37.12.899,arm3_eps,2022.2.5,MacIntel,60.0024001,60ffd7de4dc3ea2bfd477a22,64c47140896c8c63e34c6d2f,64c515fda4e95dc51d9fc599,right,1,0.75,0.2429,1,-0.01898338,0.4839,25,0,25,0,1,,,,,,,,,,
,,051151,001,2023-07-29_15h37.12.899,arm3_eps,2022.2.5,MacIntel,60.0024001,60ffd7de4dc3ea2bfd477a22,64c47140896c8c63e34c6d2f,64c515fda4e95dc51d9fc599,right,1,0.75,0.2429,1,0.021866007,0.5156,26,0,26,0,1,,,,,,,,,,
,,051151,001,2023-07-29_15h37.12.899,arm3_eps,2022.2.5,MacIntel,60.0024001,60ffd7de4dc3ea2bfd477a22,64c47140896c8c63e34c6d2f,64c515fda4e95dc51d9fc599,right,1,0.75,0.2429,1,0.013431389,0.4366,27,0,27,0,1,,,,,,,,,,
,,051151,001,2023-07-29_15h37.12.899,arm3_eps,2022.2.5,MacIntel,60.0024001,60ffd7de4dc3ea2bfd477a22,64c47140896c8c63e34c6d2f,64c515fda4e95dc51d9fc599,right,1,0.75,0.2429,1,0.008724443,0.4996,28,0,28,0,1,,,,,,,,,,
,,051151,001,2023-07-29_15h37.12.899,arm3_eps,2022.2.5,MacIntel,60.0024001,60ffd7de4dc3ea2bfd477a22,64c47140896c8c63e34c6d2f,64c515fda4e95dc51d9fc599,right,1,0.75,0.2429,1,0.019969005,0.4662,29,0,29,0,1,,,,,,,,,,
,,051151,001,2023-07-29_15h37.12.899,arm3_eps,2022.2.5,MacIntel,60.0024001,60ffd7de4dc3ea2bfd477a22,64c47140896c8c63e34c6d2f,64c515fda4e95dc51d9fc599,up,1,0.75,0.2429,2,0,1.5692,30,0,30,0,1,,,,,,,,,,
,,051151,001,2023-07-29_15h37.12.899,arm3_eps,2022.2.5,MacIntel,60.0024001,60ffd7de4dc3ea2bfd477a22,64c47140896c8c63e34c6d2f,64c515fda4e95dc51d9fc599,right,1,0.75,0.2429,2,0.017082546,0.994,31,0,31,0,1,,,,,,,,,,
,,051151,001,2023-07-29_15h37.12.899,arm3_eps,2022.2.5,MacIntel,60.0024001,60ffd7de4dc3ea2bfd477a22,64c47140896c8c63e34c6d2f,64c515fda4e95dc51d9fc599,right,1,0.75,0.2429,2,0.031103599,0.4316,32,0,32,0,1,,,,,,,,,,
,,051151,001,2023-07-29_15h37.12.899,arm3_eps,2022.2.5,MacIntel,60.0024001,60ffd7de4dc3ea2bfd477a22,64c47140896c8c63e34c6d2f,64c515fda4e95dc51d9fc599,right,1,0.75,0.2429,2,0.018778191,0.503,33,0,33,0,1,,,,,,,,,,
,,051151,001,2023-07-29_15h37.12.899,arm3_eps,2022.2.5,MacIntel,60.0024001,60ffd7de4dc3ea2bfd477a22,64c47140896c8c63e34c6d2f,64c515fda4e95dc51d9fc599,right,1,0.75,0.2429,2,0.018410597,0.465,34,0,34,0,1,,,,,,,,,,
,,051151,001,2023-07-29_15h37.12.899,arm3_eps,2022.2.5,MacIntel,60.0024001,60ffd7de4dc3ea2bfd477a22,64c47140896c8c63e34c6d2f,64c515fda4e95dc51d9fc599,right,1,0.75,0.2429,2,0.039470642,0.4889,35,0,35,0,1,,,,,,,,,,
,,051151,001,2023-07-29_15h37.12.899,arm3_eps,2022.2.5,MacIntel,60.0024001,60ffd7de4dc3ea2bfd477a22,64c47140896c8c63e34c6d2f,64c515fda4e95dc51d9fc599,right,1,0.75,0.2429,2,0.025169974,0.483,36,0,36,0,1,,,,,,,,,,
,,051151,001,2023-07-29_15h37.12.899,arm3_eps,2022.2.5,MacIntel,60.0024001,60ffd7de4dc3ea2bfd477a22,64c47140896c8c63e34c6d2f,64c515fda4e95dc51d9fc599,right,1,0.75,0.2429,2,0.020364738,0.4651,37,0,37,0,1,,,,,,,,,,
,,051151,001,2023-07-29_15h37.12.899,arm3_eps,2022.2.5,MacIntel,60.0024001,60ffd7de4dc3ea2bfd477a22,64c47140896c8c63e34c6d2f,64c515fda4e95dc51d9fc599,right,1,0.75,0.2429,2,0.012799338,0.587,38,0,38,0,1,,,,,,,,,,
,,051151,001,2023-07-29_15h37.12.899,arm3_eps,2022.2.5,MacIntel,60.0024001,60ffd7de4dc3ea2bfd477a22,64c47140896c8c63e34c6d2f,64c515fda4e95dc51d9fc599,right,1,0.75,0.2429,2,-0.002817852,0.5817,39,0,39,0,1,,,,,,,,,,
,,051151,001,2023-07-29_15h37.12.899,arm3_eps,2022.2.5,MacIntel,60.0024001,60ffd7de4dc3ea2bfd477a22,64c47140896c8c63e34c6d2f,64c515fda4e95dc51d9fc599,right,1,0.75,0.2429,2,0.013315289,0.4966,40,0,40,0,1,,,,,,,,,,
,,051151,001,2023-07-29_15h37.12.899,arm3_eps,2022.2.5,MacIntel,60.0024001,60ffd7de4dc3ea2bfd477a22,64c47140896c8c63e34c6d2f,64c515fda4e95dc51d9fc599,right,1,0.75,0.2429,2,0.020320723,0.5343,41,0,41,0,1,,,,,,,,,,
,,051151,001,2023-07-29_15h37.12.899,arm3_eps,2022.2.5,MacIntel,60.0024001,60ffd7de4dc3ea2bfd477a22,64c47140896c8c63e34c6d2f,64c515fda4e95dc51d9fc599,up,1,0.75,0.2429,2,0,0.899,42,0,42,0,1,,,,,,,,,,
,,051151,001,2023-07-29_15h37.12.899,arm3_eps,2022.2.5,MacIntel,60.0024001,60ffd7de4dc3ea2bfd477a22,64c47140896c8c63e34c6d2f,64c515fda4e95dc51d9fc599,right,1,0.75,0.2429,2,0.013965575,1.047,43,0,43,0,1,,,,,,,,,,
,,051151,001,2023-07-29_15h37.12.899,arm3_eps,2022.2.5,MacIntel,60.0024001,60ffd7de4dc3ea2bfd477a22,64c47140896c8c63e34c6d2f,64c515fda4e95dc51d9fc599,right,1,0.75,0.2429,2,0.038640459,0.4671,44,0,44,0,1,,,,,,,,,,
,,051151,001,2023-07-29_15h37.12.899,arm3_eps,2022.2.5,MacIntel,60.0024001,60ffd7de4dc3ea2bfd477a22,64c47140896c8c63e34c6d2f,64c515fda4e95dc51d9fc599,right,1,0.75,0.2429,2,0.015006036,0.4479,45,0,45,0,1,,,,,,,,,,
,,051151,001,2023-07-29_15h37.12.899,arm3_eps,2022.2.5,MacIntel,60.0024001,60ffd7de4dc3ea2bfd477a22,64c47140896c8c63e34c6d2f,64c515fda4e95dc51d9fc599,right,1,0.75,0.2429,2,0.019565884,0.4802,46,0,46,0,1,,,,,,,,,,
,,051151,001,2023-07-29_15h37.12.899,arm3_eps,2022.2.5,MacIntel,60.0024001,60ffd7de4dc3ea2bfd477a22,64c47140896c8c63e34c6d2f,64c515fda4e95dc51d9fc599,right,1,0.75,0.2429,2,0.029885638,0.4818,47,0,47,0,1,,,,,,,,,,
,,051151,001,2023-07-29_15h37.12.899,arm3_eps,2022.2.5,MacIntel,60.0024001,60ffd7de4dc3ea2bfd477a22,64c47140896c8c63e34c6d2f,64c515fda4e95dc51d9fc599,right,1,0.75,0.2429,2,0.037320409,0.5106,48,0,48,0,1,,,,,,,,,,
,,051151,001,2023-07-29_15h37.12.899,arm3_eps,2022.2.5,MacIntel,60.0024001,60ffd7de4dc3ea2bfd477a22,64c47140896c8c63e34c6d2f,64c515fda4e95dc51d9fc599,right,1,0.75,0.2429,2,0.036103589,0.7272,49,0,49,0,1,,,,,,,,,,
space,8.6426,051151,001,2023-07-29_15h37.12.899,arm3_eps,2022.2.5,MacIntel,60.0024001,60ffd7de4dc3ea2bfd477a22,64c47140896c8c63e34c6d2f,64c515fda4e95dc51d9fc599,,,,,,,,,,,,,,,,,,,,,,
space,10.7823,051151,001,2023-07-29_15h37.12.899,arm3_eps,2022.2.5,MacIntel,60.0024001,60ffd7de4dc3ea2bfd477a22,64c47140896c8c63e34c6d2f,64c515fda4e95dc51d9fc599,,,,,,,,,,,,,,,,,,,,,,
space,0.7977,051151,001,2023-07-29_15h37.12.899,arm3_eps,2022.2.5,MacIntel,60.0024001,60ffd7de4dc3ea2bfd477a22,64c47140896c8c63e34c6d2f,64c515fda4e95dc51d9fc599,,,,,,,,,,,,,,,,,,,,,,
,,051151,001,2023-07-29_15h37.12.899,arm3_eps,2022.2.5,MacIntel,60.0024001,60ffd7de4dc3ea2bfd477a22,64c47140896c8c63e34c6d2f,64c515fda4e95dc51d9fc599,right,1,0.75,0.05,0,0.027850045,0.8005,0,0,0,0,1,,,,,,,,,,
,,051151,001,2023-07-29_15h37.12.899,arm3_eps,2022.2.5,MacIntel,60.0024001,60ffd7de4dc3ea2bfd477a22,64c47140896c8c63e34c6d2f,64c515fda4e95dc51d9fc599,right,1,0.75,0.05,0,0.051653734,0.5356,1,0,1,0,1,,,,,,,,,,
,,051151,001,2023-07-29_15h37.12.899,arm3_eps,2022.2.5,MacIntel,60.0024001,60ffd7de4dc3ea2bfd477a22,64c47140896c8c63e34c6d2f,64c515fda4e95dc51d9fc599,right,1,0.75,0.05,0,0.028740803,0.4318,2,0,2,0,1,,,,,,,,,,
,,051151,001,2023-07-29_15h37.12.899,arm3_eps,2022.2.5,MacIntel,60.0024001,60ffd7de4dc3ea2bfd477a22,64c47140896c8c63e34c6d2f,64c515fda4e95dc51d9fc599,right,1,0.75,0.05,0,0.049983851,0.5943,3,0,3,0,1,,,,,,,,,,
,,051151,001,2023-07-29_15h37.12.899,arm3_eps,2022.2.5,MacIntel,60.0024001,60ffd7de4dc3ea2bfd477a22,64c47140896c8c63e34c6d2f,64c515fda4e95dc51d9fc599,right,1,0.75,0.05,0,0.065374393,0.4669,4,0,4,0,1,,,,,,,,,,
,,051151,001,2023-07-29_15h37.12.899,arm3_eps,2022.2.5,MacIntel,60.0024001,60ffd7de4dc3ea2bfd477a22,64c47140896c8c63e34c6d2f,64c515fda4e95dc51d9fc599,right,1,0.75,0.05,0,0.085060025,0.4998,5,0,5,0,1,,,,,,,,,,
,,051151,001,2023-07-29_15h37.12.899,arm3_eps,2022.2.5,MacIntel,60.0024001,60ffd7de4dc3ea2bfd477a22,64c47140896c8c63e34c6d2f,64c515fda4e95dc51d9fc599,right,1,0.75,0.05,0,0.096662215,0.4278,6,0,6,0,1,,,,,,,,,,
,,051151,001,2023-07-29_15h37.12.899,arm3_eps,2022.2.5,MacIntel,60.0024001,60ffd7de4dc3ea2bfd477a22,64c47140896c8c63e34c6d2f,64c515fda4e95dc51d9fc599,right,1,0.75,0.05,0,0.147760606,0.5004,7,0,7,0,1,,,,,,,,,,
,,051151,001,2023-07-29_15h37.12.899,arm3_eps,2022.2.5,MacIntel,60.0024001,60ffd7de4dc3ea2bfd477a22,64c47140896c8c63e34c6d2f,64c515fda4e95dc51d9fc599,up,1,0.75,0.05,1,0,0.4001,8,0,8,0,1,,,,,,,,,,
,,051151,001,2023-07-29_15h37.12.899,arm3_eps,2022.2.5,MacIntel,60.0024001,60ffd7de4dc3ea2bfd477a22,64c47140896c8c63e34c6d2f,64c515fda4e95dc51d9fc599,up,1,0.75,0.05,2,0,2.1324,9,0,9,0,1,,,,,,,,,,
,,051151,001,2023-07-29_15h37.12.899,arm3_eps,2022.2.5,MacIntel,60.0024001,60ffd7de4dc3ea2bfd477a22,64c47140896c8c63e34c6d2f,64c515fda4e95dc51d9fc599,up,-1,0.75,0.05,2,0,1.8647,10,0,10,0,1,,,,,,,,,,
,,051151,001,2023-07-29_15h37.12.899,arm3_eps,2022.2.5,MacIntel,60.0024001,60ffd7de4dc3ea2bfd477a22,64c47140896c8c63e34c6d2f,64c515fda4e95dc51d9fc599,right,-1,0.75,0.05,2,-0.00204014,1.2819,11,0,11,0,1,,,,,,,,,,
,,051151,001,2023-07-29_15h37.12.899,arm3_eps,2022.2.5,MacIntel,60.0024001,60ffd7de4dc3ea2bfd477a22,64c47140896c8c63e34c6d2f,64c515fda4e95dc51d9fc599,right,-1,0.75,0.05,2,0.016743365,0.4267,12,0,12,0,1,,,,,,,,,,
,,051151,001,2023-07-29_15h37.12.899,arm3_eps,2022.2.5,MacIntel,60.0024001,60ffd7de4dc3ea2bfd477a22,64c47140896c8c63e34c6d2f,64c515fda4e95dc51d9fc599,up,-1,0.75,0.05,1,0,0.3344,13,0,13,0,1,,,,,,,,,,
,,051151,001,2023-07-29_15h37.12.899,arm3_eps,2022.2.5,MacIntel,60.0024001,60ffd7de4dc3ea2bfd477a22,64c47140896c8c63e34c6d2f,64c515fda4e95dc51d9fc599,right,-1,0.75,0.05,1,-0.021408167,0.9819,14,0,14,0,1,,,,,,,,,,
,,051151,001,2023-07-29_15h37.12.899,arm3_eps,2022.2.5,MacIntel,60.0024001,60ffd7de4dc3ea2bfd477a22,64c47140896c8c63e34c6d2f,64c515fda4e95dc51d9fc599,right,-1,0.75,0.05,1,-0.039386121,0.3838,15,0,15,0,1,,,,,,,,,,
,,051151,001,2023-07-29_15h37.12.899,arm3_eps,2022.2.5,MacIntel,60.0024001,60ffd7de4dc3ea2bfd477a22,64c47140896c8c63e34c6d2f,64c515fda4e95dc51d9fc599,down,-1,0.75,0.05,1,0,0.765,16,0,16,0,1,,,,,,,,,,
,,051151,001,2023-07-29_15h37.12.899,arm3_eps,2022.2.5,MacIntel,60.0024001,60ffd7de4dc3ea2bfd477a22,64c47140896c8c63e34c6d2f,64c515fda4e95dc51d9fc599,right,-1,0.75,0.05,1,0.002868243,1.083,17,0,17,0,1,,,,,,,,,,
,,051151,001,2023-07-29_15h37.12.899,arm3_eps,2022.2.5,MacIntel,60.0024001,60ffd7de4dc3ea2bfd477a22,64c47140896c8c63e34c6d2f,64c515fda4e95dc51d9fc599,right,-1,0.75,0.05,1,-0.019103087,0.3182,18,0,18,0,1,,,,,,,,,,
,,051151,001,2023-07-29_15h37.12.899,arm3_eps,2022.2.5,MacIntel,60.0024001,60ffd7de4dc3ea2bfd477a22,64c47140896c8c63e34c6d2f,64c515fda4e95dc51d9fc599,right,-1,0.75,0.05,1,-0.065065605,0.3155,19,0,19,0,1,,,,,,,,,,
,,051151,001,2023-07-29_15h37.12.899,arm3_eps,2022.2.5,MacIntel,60.0024001,60ffd7de4dc3ea2bfd477a22,64c47140896c8c63e34c6d2f,64c515fda4e95dc51d9fc599,right,-1,0.75,0.05,1,-0.048707153,0.3664,20,0,20,0,1,,,,,,,,,,
,,051151,001,2023-07-29_15h37.12.899,arm3_eps,2022.2.5,MacIntel,60.0024001,60ffd7de4dc3ea2bfd477a22,64c47140896c8c63e34c6d2f,64c515fda4e95dc51d9fc599,right,-1,0.75,0.05,1,-0.053254287,0.4011,21,0,21,0,1,,,,,,,,,,
,,051151,001,2023-07-29_15h37.12.899,arm3_eps,2022.2.5,MacIntel,60.0024001,60ffd7de4dc3ea2bfd477a22,64c47140896c8c63e34c6d2f,64c515fda4e95dc51d9fc599,right,-1,0.75,0.05,1,-0.060558206,0.4007,22,0,22,0,1,,,,,,,,,,
,,051151,001,2023-07-29_15h37.12.899,arm3_eps,2022.2.5,MacIntel,60.0024001,60ffd7de4dc3ea2bfd477a22,64c47140896c8c63e34c6d2f,64c515fda4e95dc51d9fc599,right,-1,0.75,0.05,1,-0.057452591,0.3829,23,0,23,0,1,,,,,,,,,,
,,051151,001,2023-07-29_15h37.12.899,arm3_eps,2022.2.5,MacIntel,60.0024001,60ffd7de4dc3ea2bfd477a22,64c47140896c8c63e34c6d2f,64c515fda4e95dc51d9fc599,down,-1,0.75,0.05,1,0,0.4004,24,0,24,0,1,,,,,,,,,,
,,051151,001,2023-07-29_15h37.12.899,arm3_eps,2022.2.5,MacIntel,60.0024001,60ffd7de4dc3ea2bfd477a22,64c47140896c8c63e34c6d2f,64c515fda4e95dc51d9fc599,right,-1,0.75,0.05,1,-0.008300698,0.9326,25,0,25,0,1,,,,,,,,,,
,,051151,001,2023-07-29_15h37.12.899,arm3_eps,2022.2.5,MacIntel,60.0024001,60ffd7de4dc3ea2bfd477a22,64c47140896c8c63e34c6d2f,64c515fda4e95dc51d9fc599,right,-1,0.75,0.05,1,0.001025264,0.3486,26,0,26,0,1,,,,,,,,,,
,,051151,001,2023-07-29_15h37.12.899,arm3_eps,2022.2.5,MacIntel,60.0024001,60ffd7de4dc3ea2bfd477a22,64c47140896c8c63e34c6d2f,64c515fda4e95dc51d9fc599,right,-1,0.75,0.05,1,-0.013332271,0.3821,27,0,27,0,1,,,,,,,,,,
,,051151,001,2023-07-29_15h37.12.899,arm3_eps,2022.2.5,MacIntel,60.0024001,60ffd7de4dc3ea2bfd477a22,64c47140896c8c63e34c6d2f,64c515fda4e95dc51d9fc599,right,-1,0.75,0.05,1,-0.023592314,0.4217,28,0,28,0,1,,,,,,,,,,
,,051151,001,2023-07-29_15h37.12.899,arm3_eps,2022.2.5,MacIntel,60.0024001,60ffd7de4dc3ea2bfd477a22,64c47140896c8c63e34c6d2f,64c515fda4e95dc51d9fc599,right,-1,0.75,0.05,1,-0.046990161,0.3988,29,0,29,0,1,,,,,,,,,,
,,051151,001,2023-07-29_15h37.12.899,arm3_eps,2022.2.5,MacIntel,60.0024001,60ffd7de4dc3ea2bfd477a22,64c47140896c8c63e34c6d2f,64c515fda4e95dc51d9fc599,right,-1,0.75,0.05,1,-0.0245398,0.4672,30,0,30,0,1,,,,,,,,,,
,,051151,001,2023-07-29_15h37.12.899,arm3_eps,2022.2.5,MacIntel,60.0024001,60ffd7de4dc3ea2bfd477a22,64c47140896c8c63e34c6d2f,64c515fda4e95dc51d9fc599,right,-1,0.75,0.05,1,-0.041086808,0.4844,31,0,31,0,1,,,,,,,,,,
,,051151,001,2023-07-29_15h37.12.899,arm3_eps,2022.2.5,MacIntel,60.0024001,60ffd7de4dc3ea2bfd477a22,64c47140896c8c63e34c6d2f,64c515fda4e95dc51d9fc599,down,-1,0.75,0.05,2,0,0.3333,32,0,32,0,1,,,,,,,,,,
,,051151,001,2023-07-29_15h37.12.899,arm3_eps,2022.2.5,MacIntel,60.0024001,60ffd7de4dc3ea2bfd477a22,64c47140896c8c63e34c6d2f,64c515fda4e95dc51d9fc599,right,-1,0.75,0.05,2,-0.023548807,1.6331,33,0,33,0,1,,,,,,,,,,
,,051151,001,2023-07-29_15h37.12.899,arm3_eps,2022.2.5,MacIntel,60.0024001,60ffd7de4dc3ea2bfd477a22,64c47140896c8c63e34c6d2f,64c515fda4e95dc51d9fc599,right,-1,0.75,0.05,2,-0.030306061,0.3658,34,0,34,0,1,,,,,,,,,,
,,051151,001,2023-07-29_15h37.12.899,arm3_eps,2022.2.5,MacIntel,60.0024001,60ffd7de4dc3ea2bfd477a22,64c47140896c8c63e34c6d2f,64c515fda4e95dc51d9fc599,right,-1,0.75,0.05,2,-0.01667083,0.4488,35,0,35,0,1,,,,,,,,,,
,,051151,001,2023-07-29_15h37.12.899,arm3_eps,2022.2.5,MacIntel,60.0024001,60ffd7de4dc3ea2bfd477a22,64c47140896c8c63e34c6d2f,64c515fda4e95dc51d9fc599,right,-1,0.75,0.05,2,0.019657125,0.4318,36,0,36,0,1,,,,,,,,,,
,,051151,001,2023-07-29_15h37.12.899,arm3_eps,2022.2.5,MacIntel,60.0024001,60ffd7de4dc3ea2bfd477a22,64c47140896c8c63e34c6d2f,64c515fda4e95dc51d9fc599,right,-1,0.75,0.05,2,0.025856849,0.4664,37,0,37,0,1,,,,,,,,,,
,,051151,001,2023-07-29_15h37.12.899,arm3_eps,2022.2.5,MacIntel,60.0024001,60ffd7de4dc3ea2bfd477a22,64c47140896c8c63e34c6d2f,64c515fda4e95dc51d9fc599,right,-1,0.75,0.05,2,0.020679917,0.3998,38,0,38,0,1,,,,,,,,,,
,,051151,001,2023-07-29_15h37.12.899,arm3_eps,2022.2.5,MacIntel,60.0024001,60ffd7de4dc3ea2bfd477a22,64c47140896c8c63e34c6d2f,64c515fda4e95dc51d9fc599,right,-1,0.75,0.05,2,0.010866145,0.4319,39,0,39,0,1,,,,,,,,,,
,,051151,001,2023-07-29_15h37.12.899,arm3_eps,2022.2.5,MacIntel,60.0024001,60ffd7de4dc3ea2bfd477a22,64c47140896c8c63e34c6d2f,64c515fda4e95dc51d9fc599,right,-1,0.75,0.05,2,0.013916204,0.4985,40,0,40,0,1,,,,,,,,,,
,,051151,001,2023-07-29_15h37.12.899,arm3_eps,2022.2.5,MacIntel,60.0024001,60ffd7de4dc3ea2bfd477a22,64c47140896c8c63e34c6d2f,64c515fda4e95dc51d9fc599,right,-1,0.75,0.05,2,0.024653086,0.4659,41,0,41,0,1,,,,,,,,,,
,,051151,001,2023-07-29_15h37.12.899,arm3_eps,2022.2.5,MacIntel,60.0024001,60ffd7de4dc3ea2bfd477a22,64c47140896c8c63e34c6d2f,64c515fda4e95dc51d9fc599,up,-1,0.75,0.05,1,0,0.9676,42,0,42,0,1,,,,,,,,,,
,,051151,001,2023-07-29_15h37.12.899,arm3_eps,2022.2.5,MacIntel,60.0024001,60ffd7de4dc3ea2bfd477a22,64c47140896c8c63e34c6d2f,64c515fda4e95dc51d9fc599,right,-1,0.75,0.05,1,-0.003464686,0.9323,43,0,43,0,1,,,,,,,,,,
,,051151,001,2023-07-29_15h37.12.899,arm3_eps,2022.2.5,MacIntel,60.0024001,60ffd7de4dc3ea2bfd477a22,64c47140896c8c63e34c6d2f,64c515fda4e95dc51d9fc599,right,-1,0.75,0.05,1,-0.026837775,0.3503,44,0,44,0,1,,,,,,,,,,
,,051151,001,2023-07-29_15h37.12.899,arm3_eps,2022.2.5,MacIntel,60.0024001,60ffd7de4dc3ea2bfd477a22,64c47140896c8c63e34c6d2f,64c515fda4e95dc51d9fc599,right,-1,0.75,0.05,1,-0.069037441,0.3336,45,0,45,0,1,,,,,,,,,,
,,051151,001,2023-07-29_15h37.12.899,arm3_eps,2022.2.5,MacIntel,60.0024001,60ffd7de4dc3ea2bfd477a22,64c47140896c8c63e34c6d2f,64c515fda4e95dc51d9fc599,right,-1,0.75,0.05,1,-0.058875759,0.395,46,0,46,0,1,,,,,,,,,,
,,051151,001,2023-07-29_15h37.12.899,arm3_eps,2022.2.5,MacIntel,60.0024001,60ffd7de4dc3ea2bfd477a22,64c47140896c8c63e34c6d2f,64c515fda4e95dc51d9fc599,right,-1,0.75,0.05,1,-0.09646011,0.3321,47,0,47,0,1,,,,,,,,,,
,,051151,001,2023-07-29_15h37.12.899,arm3_eps,2022.2.5,MacIntel,60.0024001,60ffd7de4dc3ea2bfd477a22,64c47140896c8c63e34c6d2f,64c515fda4e95dc51d9fc599,down,-1,0.75,0.05,2,0,0.3685,48,0,48,0,1,,,,,,,,,,
,,051151,001,2023-07-29_15h37.12.899,arm3_eps,2022.2.5,MacIntel,60.0024001,60ffd7de4dc3ea2bfd477a22,64c47140896c8c63e34c6d2f,64c515fda4e95dc51d9fc599,right,-1,0.75,0.05,2,-0.008189527,1.1501,49,0,49,0,1,,,,,,,,,,
space,7.1124,051151,001,2023-07-29_15h37.12.899,arm3_eps,2022.2.5,MacIntel,60.0024001,60ffd7de4dc3ea2bfd477a22,64c47140896c8c63e34c6d2f,64c515fda4e95dc51d9fc599,,,,,,,,,,,,,,,,,,,,,,
space,0.7013,051151,001,2023-07-29_15h37.12.899,arm3_eps,2022.2.5,MacIntel,60.0024001,60ffd7de4dc3ea2bfd477a22,64c47140896c8c63e34c6d2f,64c515fda4e95dc51d9fc599,,,,,,,,,,,,,,,,,,,,,,
,,051151,001,2023-07-29_15h37.12.899,arm3_eps,2022.2.5,MacIntel,60.0024001,60ffd7de4dc3ea2bfd477a22,64c47140896c8c63e34c6d2f,64c515fda4e95dc51d9fc599,right,-1,0.75,0.5,0,-0.012122819,0.4024,0,0,0,0,1,,,,,,,,,,
,,051151,001,2023-07-29_15h37.12.899,arm3_eps,2022.2.5,MacIntel,60.0024001,60ffd7de4dc3ea2bfd477a22,64c47140896c8c63e34c6d2f,64c515fda4e95dc51d9fc599,right,-1,0.75,0.5,0,-0.030813604,0.2975,1,0,1,0,1,,,,,,,,,,
,,051151,001,2023-07-29_15h37.12.899,arm3_eps,2022.2.5,MacIntel,60.0024001,60ffd7de4dc3ea2bfd477a22,64c47140896c8c63e34c6d2f,64c515fda4e95dc51d9fc599,right,-1,0.75,0.5,0,-0.040158986,0.2151,2,0,2,0,1,,,,,,,,,,
,,051151,001,2023-07-29_15h37.12.899,arm3_eps,2022.2.5,MacIntel,60.0024001,60ffd7de4dc3ea2bfd477a22,64c47140896c8c63e34c6d2f,64c515fda4e95dc51d9fc599,right,-1,0.75,0.5,0,-0.04812908,0.1915,3,0,3,0,1,,,,,,,,,,
,,051151,001,2023-07-29_15h37.12.899,arm3_eps,2022.2.5,MacIntel,60.0024001,60ffd7de4dc3ea2bfd477a22,64c47140896c8c63e34c6d2f,64c515fda4e95dc51d9fc599,right,-1,0.75,0.5,0,-0.054945095,0.265,4,0,4,0,1,,,,,,,,,,
,,051151,001,2023-07-29_15h37.12.899,arm3_eps,2022.2.5,MacIntel,60.0024001,60ffd7de4dc3ea2bfd477a22,64c47140896c8c63e34c6d2f,64c515fda4e95dc51d9fc599,right,-1,0.75,0.5,0,-0.080985558,0.303,5,0,5,0,1,,,,,,,,,,
,,051151,001,2023-07-29_15h37.12.899,arm3_eps,2022.2.5,MacIntel,60.0024001,60ffd7de4dc3ea2bfd477a22,64c47140896c8c63e34c6d2f,64c515fda4e95dc51d9fc599,right,-1,0.75,0.5,0,-0.085307607,0.2491,6,0,6,0,1,,,,,,,,,,
,,051151,001,2023-07-29_15h37.12.899,arm3_eps,2022.2.5,MacIntel,60.0024001,60ffd7de4dc3ea2bfd477a22,64c47140896c8c63e34c6d2f,64c515fda4e95dc51d9fc599,right,-1,0.75,0.5,0,-0.117408245,0.2657,7,0,7,0,1,,,,,,,,,,
,,051151,001,2023-07-29_15h37.12.899,arm3_eps,2022.2.5,MacIntel,60.0024001,60ffd7de4dc3ea2bfd477a22,64c47140896c8c63e34c6d2f,64c515fda4e95dc51d9fc599,right,-1,0.75,0.5,0,-0.129062002,0.3506,8,0,8,0,1,,,,,,,,,,
,,051151,001,2023-07-29_15h37.12.899,arm3_eps,2022.2.5,MacIntel,60.0024001,60ffd7de4dc3ea2bfd477a22,64c47140896c8c63e34c6d2f,64c515fda4e95dc51d9fc599,down,1,0.75,0.5,0,0,0.3969,9,0,9,0,1,,,,,,,,,,
,,051151,001,2023-07-29_15h37.12.899,arm3_eps,2022.2.5,MacIntel,60.0024001,60ffd7de4dc3ea2bfd477a22,64c47140896c8c63e34c6d2f,64c515fda4e95dc51d9fc599,right,1,0.75,0.5,0,0.024339808,0.9948,10,0,10,0,1,,,,,,,,,,
,,051151,001,2023-07-29_15h37.12.899,arm3_eps,2022.2.5,MacIntel,60.0024001,60ffd7de4dc3ea2bfd477a22,64c47140896c8c63e34c6d2f,64c515fda4e95dc51d9fc599,right,1,0.75,0.5,0,0.039537533,0.2363,11,0,11,0,1,,,,,,,,,,
,,051151,001,2023-07-29_15h37.12.899,arm3_eps,2022.2.5,MacIntel,60.0024001,60ffd7de4dc3ea2bfd477a22,64c47140896c8c63e34c6d2f,64c515fda4e95dc51d9fc599,right,1,0.75,0.5,0,0.010697816,0.1807,12,0,12,0,1,,,,,,,,,,
,,051151,001,2023-07-29_15h37.12.899,arm3_eps,2022.2.5,MacIntel,60.0024001,60ffd7de4dc3ea2bfd477a22,64c47140896c8c63e34c6d2f,64c515fda4e95dc51d9fc599,right,1,0.75,0.5,0,0.025988173,0.1837,13,0,13,0,1,,,,,,,,,,
,,051151,001,2023-07-29_15h37.12.899,arm3_eps,2022.2.5,MacIntel,60.0024001,60ffd7de4dc3ea2bfd477a22,64c47140896c8c63e34c6d2f,64c515fda4e95dc51d9fc599,right,1,0.75,0.5,0,0.016210792,0.1843,14,0,14,0,1,,,,,,,,,,
,,051151,001,2023-07-29_15h37.12.899,arm3_eps,2022.2.5,MacIntel,60.0024001,60ffd7de4dc3ea2bfd477a22,64c47140896c8c63e34c6d2f,64c515fda4e95dc51d9fc599,right,1,0.75,0.5,0,-0.013172264,0.1836,15,0,15,0,1,,,,,,,,,,
,,051151,001,2023-07-29_15h37.12.899,arm3_eps,2022.2.5,MacIntel,60.0024001,60ffd7de4dc3ea2bfd477a22,64c47140896c8c63e34c6d2f,64c515fda4e95dc51d9fc599,right,1,0.75,0.5,0,0.01410505,0.1991,16,0,16,0,1,,,,,,,,,,
,,051151,001,2023-07-29_15h37.12.899,arm3_eps,2022.2.5,MacIntel,60.0024001,60ffd7de4dc3ea2bfd477a22,64c47140896c8c63e34c6d2f,64c515fda4e95dc51d9fc599,right,1,0.75,0.5,0,0.020575414,0.2647,17,0,17,0,1,,,,,,,,,,
,,051151,001,2023-07-29_15h37.12.899,arm3_eps,2022.2.5,MacIntel,60.0024001,60ffd7de4dc3ea2bfd477a22,64c47140896c8c63e34c6d2f,64c515fda4e95dc51d9fc599,right,1,0.75,0.5,0,0.019975628,0.3839,18,0,18,0,1,,,,,,,,,,
,,051151,001,2023-07-29_15h37.12.899,arm3_eps,2022.2.5,MacIntel,60.0024001,60ffd7de4dc3ea2bfd477a22,64c47140896c8c63e34c6d2f,64c515fda4e95dc51d9fc599,right,1,0.75,0.5,0,0.005224623,0.3659,19,0,19,0,1,,,,,,,,,,
,,051151,001,2023-07-29_15h37.12.899,arm3_eps,2022.2.5,MacIntel,60.0024001,60ffd7de4dc3ea2bfd477a22,64c47140896c8c63e34c6d2f,64c515fda4e95dc51d9fc599,right,1,0.75,0.5,0,-0.002184781,0.4672,20,0,20,0,1,,,,,,,,,,
,,051151,001,2023-07-29_15h37.12.899,arm3_eps,2022.2.5,MacIntel,60.0024001,60ffd7de4dc3ea2bfd477a22,64c47140896c8c63e34c6d2f,64c515fda4e95dc51d9fc599,up,1,0.75,0.5,1,0,0.5163,21,0,21,0,1,,,,,,,,,,
,,051151,001,2023-07-29_15h37.12.899,arm3_eps,2022.2.5,MacIntel,60.0024001,60ffd7de4dc3ea2bfd477a22,64c47140896c8c63e34c6d2f,64c515fda4e95dc51d9fc599,right,1,0.75,0.5,1,0.023228603,0.8642,22,0,22,0,1,,,,,,,,,,
,,051151,001,2023-07-29_15h37.12.899,arm3_eps,2022.2.5,MacIntel,60.0024001,60ffd7de4dc3ea2bfd477a22,64c47140896c8c63e34c6d2f,64c515fda4e95dc51d9fc599,right,1,0.75,0.5,1,0.029486986,0.2478,23,0,23,0,1,,,,,,,,,,
,,051151,001,2023-07-29_15h37.12.899,arm3_eps,2022.2.5,MacIntel,60.0024001,60ffd7de4dc3ea2bfd477a22,64c47140896c8c63e34c6d2f,64c515fda4e95dc51d9fc599,right,1,0.75,0.5,1,0.055647386,0.1831,24,0,24,0,1,,,,,,,,,,
,,051151,001,2023-07-29_15h37.12.899,arm3_eps,2022.2.5,MacIntel,60.0024001,60ffd7de4dc3ea2bfd477a22,64c47140896c8c63e34c6d2f,64c515fda4e95dc51d9fc599,right,1,0.75,0.5,1,0.076539999,0.1676,25,0,25,0,1,,,,,,,,,,
,,051151,001,2023-07-29_15h37.12.899,arm3_eps,2022.2.5,MacIntel,60.0024001,60ffd7de4dc3ea2bfd477a22,64c47140896c8c63e34c6d2f,64c515fda4e95dc51d9fc599,right,1,0.75,0.5,1,0.111905109,0.2429,26,0,26,0,1,,,,,,,,,,
,,051151,001,2023-07-29_15h37.12.899,arm3_eps,2022.2.5,MacIntel,60.0024001,60ffd7de4dc3ea2bfd477a22,64c47140896c8c63e34c6d2f,64c515fda4e95dc51d9fc599,up,-1,0.75,0.5,1,0,0.3001,27,0,27,0,1,,,,,,,,,,
,,051151,001,2023-07-29_15h37.12.899,arm3_eps,2022.2.5,MacIntel,60.0024001,60ffd7de4dc3ea2bfd477a22,64c47140896c8c63e34c6d2f,64c515fda4e95dc51d9fc599,right,-1,0.75,0.5,1,-0.041177058,0.9985,28,0,28,0,1,,,,,,,,,,
,,051151,001,2023-07-29_15h37.12.899,arm3_eps,2022.2.5,MacIntel,60.0024001,60ffd7de4dc3ea2bfd477a22,64c47140896c8c63e34c6d2f,64c515fda4e95dc51d9fc599,right,-1,0.75,0.5,1,-0.034694286,0.2663,29,0,29,0,1,,,,,,,,,,
,,051151,001,2023-07-29_15h37.12.899,arm3_eps,2022.2.5,MacIntel,60.0024001,60ffd7de4dc3ea2bfd477a22,64c47140896c8c63e34c6d2f,64c515fda4e95dc51d9fc599,right,-1,0.75,0.5,1,-0.05680212,0.2816,30,0,30,0,1,,,,,,,,,,
,,051151,001,2023-07-29_15h37.12.899,arm3_eps,2022.2.5,MacIntel,60.0024001,60ffd7de4dc3ea2bfd477a22,64c47140896c8c63e34c6d2f,64c515fda4e95dc51d9fc599,right,-1,0.75,0.5,1,-0.060781113,0.3665,31,0,31,0,1,,,,,,,,,,
,,051151,001,2023-07-29_15h37.12.899,arm3_eps,2022.2.5,MacIntel,60.0024001,60ffd7de4dc3ea2bfd477a22,64c47140896c8c63e34c6d2f,64c515fda4e95dc51d9fc599,down,-1,0.75,0.5,1,0,0.9157,32,0,32,0,1,,,,,,,,,,
,,051151,001,2023-07-29_15h37.12.899,arm3_eps,2022.2.5,MacIntel,60.0024001,60ffd7de4dc3ea2bfd477a22,64c47140896c8c63e34c6d2f,64c515fda4e95dc51d9fc599,right,-1,0.75,0.5,1,-0.047737723,0.4925,33,0,33,0,1,,,,,,,,,,
,,051151,001,2023-07-29_15h37.12.899,arm3_eps,2022.2.5,MacIntel,60.0024001,60ffd7de4dc3ea2bfd477a22,64c47140896c8c63e34c6d2f,64c515fda4e95dc51d9fc599,right,-1,0.75,0.5,1,-0.05046067,0.3351,34,0,34,0,1,,,,,,,,,,
,,051151,001,2023-07-29_15h37.12.899,arm3_eps,2022.2.5,MacIntel,60.0024001,60ffd7de4dc3ea2bfd477a22,64c47140896c8c63e34c6d2f,64c515fda4e95dc51d9fc599,right,-1,0.75,0.5,1,-0.058218638,0.2171,35,0,35,0,1,,,,,,,,,,
,,051151,001,2023-07-29_15h37.12.899,arm3_eps,2022.2.5,MacIntel,60.0024001,60ffd7de4dc3ea2bfd477a22,64c47140896c8c63e34c6d2f,64c515fda4e95dc51d9fc599,right,-1,0.75,0.5,1,-0.065305954,0.2192,36,0,36,0,1,,,,,,,,,,
,,051151,001,2023-07-29_15h37.12.899,arm3_eps,2022.2.5,MacIntel,60.0024001,60ffd7de4dc3ea2bfd477a22,64c47140896c8c63e34c6d2f,64c515fda4e95dc51d9fc599,right,-1,0.75,0.5,1,-0.084025394,0.3499,37,0,37,0,1,,,,,,,,,,
,,051151,001,2023-07-29_15h37.12.899,arm3_eps,2022.2.5,MacIntel,60.0024001,60ffd7de4dc3ea2bfd477a22,64c47140896c8c63e34c6d2f,64c515fda4e95dc51d9fc599,down,1,0.75,0.5,2,0,0.3672,38,0,38,0,1,,,,,,,,,,
,,051151,001,2023-07-29_15h37.12.899,arm3_eps,2022.2.5,MacIntel,60.0024001,60ffd7de4dc3ea2bfd477a22,64c47140896c8c63e34c6d2f,64c515fda4e95dc51d9fc599,right,1,0.75,0.5,2,0.001542448,0.4827,39,0,39,0,1,,,,,,,,,,
,,051151,001,2023-07-29_15h37.12.899,arm3_eps,2022.2.5,MacIntel,60.0024001,60ffd7de4dc3ea2bfd477a22,64c47140896c8c63e34c6d2f,64c515fda4e95dc51d9fc599,right,1,0.75,0.5,2,0.004798708,0.3948,40,0,40,0,1,,,,,,,,,,
,,051151,001,2023-07-29_15h37.12.899,arm3_eps,2022.2.5,MacIntel,60.0024001,60ffd7de4dc3ea2bfd477a22,64c47140896c8c63e34c6d2f,64c515fda4e95dc51d9fc599,right,1,0.75,0.5,2,0.00442156,0.2994,41,0,41,0,1,,,,,,,,,,
,,051151,001,2023-07-29_15h37.12.899,arm3_eps,2022.2.5,MacIntel,60.0024001,60ffd7de4dc3ea2bfd477a22,64c47140896c8c63e34c6d2f,64c515fda4e95dc51d9fc599,right,1,0.75,0.5,2,0.00659547,0.2488,42,0,42,0,1,,,,,,,,,,
,,051151,001,2023-07-29_15h37.12.899,arm3_eps,2022.2.5,MacIntel,60.0024001,60ffd7de4dc3ea2bfd477a22,64c47140896c8c63e34c6d2f,64c515fda4e95dc51d9fc599,right,1,0.75,0.5,2,0.001598947,0.2764,43,0,43,0,1,,,,,,,,,,
,,051151,001,2023-07-29_15h37.12.899,arm3_eps,2022.2.5,MacIntel,60.0024001,60ffd7de4dc3ea2bfd477a22,64c47140896c8c63e34c6d2f,64c515fda4e95dc51d9fc599,right,1,0.75,0.5,2,0.001203744,0.2834,44,0,44,0,1,,,,,,,,,,
,,051151,001,2023-07-29_15h37.12.899,arm3_eps,2022.2.5,MacIntel,60.0024001,60ffd7de4dc3ea2bfd477a22,64c47140896c8c63e34c6d2f,64c515fda4e95dc51d9fc599,right,1,0.75,0.5,2,0.004576322,0.2666,45,0,45,0,1,,,,,,,,,,
,,051151,001,2023-07-29_15h37.12.899,arm3_eps,2022.2.5,MacIntel,60.0024001,60ffd7de4dc3ea2bfd477a22,64c47140896c8c63e34c6d2f,64c515fda4e95dc51d9fc599,right,1,0.75,0.5,2,0.015711538,0.3471,46,0,46,0,1,,,,,,,,,,
,,051151,001,2023-07-29_15h37.12.899,arm3_eps,2022.2.5,MacIntel,60.0024001,60ffd7de4dc3ea2bfd477a22,64c47140896c8c63e34c6d2f,64c515fda4e95dc51d9fc599,up,-1,0.75,0.5,3,0,0.4094,47,0,47,0,1,,,,,,,,,,
,,051151,001,2023-07-29_15h37.12.899,arm3_eps,2022.2.5,MacIntel,60.0024001,60ffd7de4dc3ea2bfd477a22,64c47140896c8c63e34c6d2f,64c515fda4e95dc51d9fc599,right,-1,0.75,0.5,3,-0.00679401,0.414,48,0,48,0,1,,,,,,,,,,
,,051151,001,2023-07-29_15h37.12.899,arm3_eps,2022.2.5,MacIntel,60.0024001,60ffd7de4dc3ea2bfd477a22,64c47140896c8c63e34c6d2f,64c515fda4e95dc51d9fc599,right,-1,0.75,0.5,3,0.010584892,0.3976,49,0,49,0,1,,,,,,,,,,
space,1.2986,051151,001,2023-07-29_15h37.12.899,arm3_eps,2022.2.5,MacIntel,60.0024001,60ffd7de4dc3ea2bfd477a22,64c47140896c8c63e34c6d2f,64c515fda4e95dc51d9fc599,,,,,,,,,,,,,,,,,,,,,,
space,3.1559,051151,001,2023-07-29_15h37.12.899,arm3_eps,2022.2.5,MacIntel,60.0024001,60ffd7de4dc3ea2bfd477a22,64c47140896c8c63e34c6d2f,64c515fda4e95dc51d9fc599,right,-1,0.75,0.3071,0,0.004605773,0.9996,,,,,,0,0,0,0,1,,,,,
,,051151,001,2023-07-29_15h37.12.899,arm3_eps,2022.2.5,MacIntel,60.0024001,60ffd7de4dc3ea2bfd477a22,64c47140896c8c63e34c6d2f,64c515fda4e95dc51d9fc599,right,-1,0.75,0.3071,0,-0.000264031,0.4147,,,,,,1,0,1,0,1,,,,,
,,051151,001,2023-07-29_15h37.12.899,arm3_eps,2022.2.5,MacIntel,60.0024001,60ffd7de4dc3ea2bfd477a22,64c47140896c8c63e34c6d2f,64c515fda4e95dc51d9fc599,right,-1,0.75,0.3071,0,-0.028851819,0.2795,,,,,,2,0,2,0,1,,,,,
,,051151,001,2023-07-29_15h37.12.899,arm3_eps,2022.2.5,MacIntel,60.0024001,60ffd7de4dc3ea2bfd477a22,64c47140896c8c63e34c6d2f,64c515fda4e95dc51d9fc599,right,-1,0.75,0.3071,0,-0.036386195,0.2681,,,,,,3,0,3,0,1,,,,,
,,051151,001,2023-07-29_15h37.12.899,arm3_eps,2022.2.5,MacIntel,60.0024001,60ffd7de4dc3ea2bfd477a22,64c47140896c8c63e34c6d2f,64c515fda4e95dc51d9fc599,right,-1,0.75,0.3071,0,-0.076146015,0.3659,,,,,,4,0,4,0,1,,,,,
,,051151,001,2023-07-29_15h37.12.899,arm3_eps,2022.2.5,MacIntel,60.0024001,60ffd7de4dc3ea2bfd477a22,64c47140896c8c63e34c6d2f,64c515fda4e95dc51d9fc599,right,-1,0.75,0.3071,0,-0.0746196,0.3005,,,,,,5,0,5,0,1,,,,,
,,051151,001,2023-07-29_15h37.12.899,arm3_eps,2022.2.5,MacIntel,60.0024001,60ffd7de4dc3ea2bfd477a22,64c47140896c8c63e34c6d2f,64c515fda4e95dc51d9fc599,right,-1,0.75,0.3071,0,-0.068175533,0.3312,,,,,,6,0,6,0,1,,,,,
,,051151,001,2023-07-29_15h37.12.899,arm3_eps,2022.2.5,MacIntel,60.0024001,60ffd7de4dc3ea2bfd477a22,64c47140896c8c63e34c6d2f,64c515fda4e95dc51d9fc599,down,-1,0.75,0.3071,0,0,0.2669,,,,,,7,0,7,0,1,,,,,
,,051151,001,2023-07-29_15h37.12.899,arm3_eps,2022.2.5,MacIntel,60.0024001,60ffd7de4dc3ea2bfd477a22,64c47140896c8c63e34c6d2f,64c515fda4e95dc51d9fc599,right,-1,0.75,0.3071,0,-0.029397192,0.8313,,,,,,8,0,8,0,1,,,,,
,,051151,001,2023-07-29_15h37.12.899,arm3_eps,2022.2.5,MacIntel,60.0024001,60ffd7de4dc3ea2bfd477a22,64c47140896c8c63e34c6d2f,64c515fda4e95dc51d9fc599,right,-1,0.75,0.3071,0,-0.031860651,0.2832,,,,,,9,0,9,0,1,,,,,
,,051151,001,2023-07-29_15h37.12.899,arm3_eps,2022.2.5,MacIntel,60.0024001,60ffd7de4dc3ea2bfd477a22,64c47140896c8c63e34c6d2f,64c515fda4e95dc51d9fc599,right,-1,0.75,0.3071,0,-0.038212121,0.3996,,,,,,10,0,10,0,1,,,,,
,,051151,001,2023-07-29_15h37.12.899,arm3_eps,2022.2.5,MacIntel,60.0024001,60ffd7de4dc3ea2bfd477a22,64c47140896c8c63e34c6d2f,64c515fda4e95dc51d9fc599,right,-1,0.75,0.3071,0,-0.03182559,0.2654,,,,,,11,0,11,0,1,,,,,
,,051151,001,2023-07-29_15h37.12.899,arm3_eps,2022.2.5,MacIntel,60.0024001,60ffd7de4dc3ea2bfd477a22,64c47140896c8c63e34c6d2f,64c515fda4e95dc51d9fc599,right,-1,0.75,0.3071,0,-0.066288817,0.3327,,,,,,12,0,12,0,1,,,,,
,,051151,001,2023-07-29_15h37.12.899,arm3_eps,2022.2.5,MacIntel,60.0024001,60ffd7de4dc3ea2bfd477a22,64c47140896c8c63e34c6d2f,64c515fda4e95dc51d9fc599,right,-1,0.75,0.3071,0,-0.025208796,0.4341,,,,,,13,0,13,0,1,,,,,
,,051151,001,2023-07-29_15h37.12.899,arm3_eps,2022.2.5,MacIntel,60.0024001,60ffd7de4dc3ea2bfd477a22,64c47140896c8c63e34c6d2f,64c515fda4e95dc51d9fc599,right,-1,0.75,0.3071,0,-0.037480263,0.3825,,,,,,14,0,14,0,1,,,,,
,,051151,001,2023-07-29_15h37.12.899,arm3_eps,2022.2.5,MacIntel,60.0024001,60ffd7de4dc3ea2bfd477a22,64c47140896c8c63e34c6d2f,64c515fda4e95dc51d9fc599,right,-1,0.75,0.3071,0,-0.052006169,0.4498,,,,,,15,0,15,0,1,,,,,
,,051151,001,2023-07-29_15h37.12.899,arm3_eps,2022.2.5,MacIntel,60.0024001,60ffd7de4dc3ea2bfd477a22,64c47140896c8c63e34c6d2f,64c515fda4e95dc51d9fc599,down,-1,0.75,0.3071,1,0,0.2843,,,,,,16,0,16,0,1,,,,,
,,051151,001,2023-07-29_15h37.12.899,arm3_eps,2022.2.5,MacIntel,60.0024001,60ffd7de4dc3ea2bfd477a22,64c47140896c8c63e34c6d2f,64c515fda4e95dc51d9fc599,right,-1,0.75,0.3071,1,-0.01333677,0.8624,,,,,,17,0,17,0,1,,,,,
,,051151,001,2023-07-29_15h37.12.899,arm3_eps,2022.2.5,MacIntel,60.0024001,60ffd7de4dc3ea2bfd477a22,64c47140896c8c63e34c6d2f,64c515fda4e95dc51d9fc599,right,-1,0.75,0.3071,1,-0.041714268,0.2333,,,,,,18,0,18,0,1,,,,,
,,051151,001,2023-07-29_15h37.12.899,arm3_eps,2022.2.5,MacIntel,60.0024001,60ffd7de4dc3ea2bfd477a22,64c47140896c8c63e34c6d2f,64c515fda4e95dc51d9fc599,right,-1,0.75,0.3071,1,-0.058547222,0.2504,,,,,,19,0,19,0,1,,,,,
,,051151,001,2023-07-29_15h37.12.899,arm3_eps,2022.2.5,MacIntel,60.0024001,60ffd7de4dc3ea2bfd477a22,64c47140896c8c63e34c6d2f,64c515fda4e95dc51d9fc599,down,-1,0.75,0.3071,2,0,0.5823,,,,,,20,0,20,0,1,,,,,
,,051151,001,2023-07-29_15h37.12.899,arm3_eps,2022.2.5,MacIntel,60.0024001,60ffd7de4dc3ea2bfd477a22,64c47140896c8c63e34c6d2f,64c515fda4e95dc51d9fc599,right,-1,0.75,0.3071,2,0.008414798,0.8656,,,,,,21,0,21,0,1,,,,,
,,051151,001,2023-07-29_15h37.12.899,arm3_eps,2022.2.5,MacIntel,60.0024001,60ffd7de4dc3ea2bfd477a22,64c47140896c8c63e34c6d2f,64c515fda4e95dc51d9fc599,right,-1,0.75,0.3071,2,-0.00078564,0.3494,,,,,,22,0,22,0,1,,,,,
,,051151,001,2023-07-29_15h37.12.899,arm3_eps,2022.2.5,MacIntel,60.0024001,60ffd7de4dc3ea2bfd477a22,64c47140896c8c63e34c6d2f,64c515fda4e95dc51d9fc599,right,-1,0.75,0.3071,2,-0.009135112,0.2492,,,,,,23,0,23,0,1,,,,,
,,051151,001,2023-07-29_15h37.12.899,arm3_eps,2022.2.5,MacIntel,60.0024001,60ffd7de4dc3ea2bfd477a22,64c47140896c8c63e34c6d2f,64c515fda4e95dc51d9fc599,right,-1,0.75,0.3071,2,-0.004279577,0.4478,,,,,,24,0,24,0,1,,,,,
,,051151,001,2023-07-29_15h37.12.899,arm3_eps,2022.2.5,MacIntel,60.0024001,60ffd7de4dc3ea2bfd477a22,64c47140896c8c63e34c6d2f,64c515fda4e95dc51d9fc599,right,-1,0.75,0.3071,2,0.016240368,0.3998,,,,,,25,0,25,0,1,,,,,
,,051151,001,2023-07-29_15h37.12.899,arm3_eps,2022.2.5,MacIntel,60.0024001,60ffd7de4dc3ea2bfd477a22,64c47140896c8c63e34c6d2f,64c515fda4e95dc51d9fc599,right,-1,0.75,0.3071,2,-0.00036796,0.3835,,,,,,26,0,26,0,1,,,,,
,,051151,001,2023-07-29_15h37.12.899,arm3_eps,2022.2.5,MacIntel,60.0024001,60ffd7de4dc3ea2bfd477a22,64c47140896c8c63e34c6d2f,64c515fda4e95dc51d9fc599,right,-1,0.75,0.3071,2,0.007753764,0.3335,,,,,,27,0,27,0,1,,,,,
,,051151,001,2023-07-29_15h37.12.899,arm3_eps,2022.2.5,MacIntel,60.0024001,60ffd7de4dc3ea2bfd477a22,64c47140896c8c63e34c6d2f,64c515fda4e95dc51d9fc599,right,-1,0.75,0.3071,2,-0.014336068,0.4145,,,,,,28,0,28,0,1,,,,,
,,051151,001,2023-07-29_15h37.12.899,arm3_eps,2022.2.5,MacIntel,60.0024001,60ffd7de4dc3ea2bfd477a22,64c47140896c8c63e34c6d2f,64c515fda4e95dc51d9fc599,right,-1,0.75,0.3071,2,-0.057923547,0.3976,,,,,,29,0,29,0,1,,,,,
,,051151,001,2023-07-29_15h37.12.899,arm3_eps,2022.2.5,MacIntel,60.0024001,60ffd7de4dc3ea2bfd477a22,64c47140896c8c63e34c6d2f,64c515fda4e95dc51d9fc599,down,1,0.75,0.3071,2,0,0.5998,,,,,,30,0,30,0,1,,,,,
,,051151,001,2023-07-29_15h37.12.899,arm3_eps,2022.2.5,MacIntel,60.0024001,60ffd7de4dc3ea2bfd477a22,64c47140896c8c63e34c6d2f,64c515fda4e95dc51d9fc599,right,1,0.75,0.3071,2,0.033180387,0.7416,,,,,,31,0,31,0,1,,,,,
,,051151,001,2023-07-29_15h37.12.899,arm3_eps,2022.2.5,MacIntel,60.0024001,60ffd7de4dc3ea2bfd477a22,64c47140896c8c63e34c6d2f,64c515fda4e95dc51d9fc599,right,1,0.75,0.3071,2,0.015305417,0.2667,,,,,,32,0,32,0,1,,,,,
,,051151,001,2023-07-29_15h37.12.899,arm3_eps,2022.2.5,MacIntel,60.0024001,60ffd7de4dc3ea2bfd477a22,64c47140896c8c63e34c6d2f,64c515fda4e95dc51d9fc599,right,1,0.75,0.3071,2,0.021380169,0.2003,,,,,,33,0,33,0,1,,,,,
,,051151,001,2023-07-29_15h37.12.899,arm3_eps,2022.2.5,MacIntel,60.0024001,60ffd7de4dc3ea2bfd477a22,64c47140896c8c63e34c6d2f,64c515fda4e95dc51d9fc599,right,1,0.75,0.3071,2,0.040798051,0.2814,,,,,,34,0,34,0,1,,,,,
,,051151,001,2023-07-29_15h37.12.899,arm3_eps,2022.2.5,MacIntel,60.0024001,60ffd7de4dc3ea2bfd477a22,64c47140896c8c63e34c6d2f,64c515fda4e95dc51d9fc599,right,1,0.75,0.3071,2,0.057429494,0.2687,,,,,,35,0,35,0,1,,,,,
,,051151,001,2023-07-29_15h37.12.899,arm3_eps,2022.2.5,MacIntel,60.0024001,60ffd7de4dc3ea2bfd477a22,64c47140896c8c63e34c6d2f,64c515fda4e95dc51d9fc599,right,1,0.75,0.3071,2,0.078642768,0.2815,,,,,,36,0,36,0,1,,,,,
,,051151,001,2023-07-29_15h37.12.899,arm3_eps,2022.2.5,MacIntel,60.0024001,60ffd7de4dc3ea2bfd477a22,64c47140896c8c63e34c6d2f,64c515fda4e95dc51d9fc599,up,1,0.75,0.3071,2,0,0.3497,,,,,,37,0,37,0,1,,,,,
,,051151,001,2023-07-29_15h37.12.899,arm3_eps,2022.2.5,MacIntel,60.0024001,60ffd7de4dc3ea2bfd477a22,64c47140896c8c63e34c6d2f,64c515fda4e95dc51d9fc599,right,1,0.75,0.3071,2,0.024482953,0.4094,,,,,,38,0,38,0,1,,,,,
,,051151,001,2023-07-29_15h37.12.899,arm3_eps,2022.2.5,MacIntel,60.0024001,60ffd7de4dc3ea2bfd477a22,64c47140896c8c63e34c6d2f,64c515fda4e95dc51d9fc599,right,1,0.75,0.3071,2,0.03163696,0.3097,,,,,,39,0,39,0,1,,,,,
,,051151,001,2023-07-29_15h37.12.899,arm3_eps,2022.2.5,MacIntel,60.0024001,60ffd7de4dc3ea2bfd477a22,64c47140896c8c63e34c6d2f,64c515fda4e95dc51d9fc599,right,1,0.75,0.3071,2,0.055278661,0.233,,,,,,40,0,40,0,1,,,,,
,,051151,001,2023-07-29_15h37.12.899,arm3_eps,2022.2.5,MacIntel,60.0024001,60ffd7de4dc3ea2bfd477a22,64c47140896c8c63e34c6d2f,64c515fda4e95dc51d9fc599,right,1,0.75,0.3071,2,0.077792506,0.2176,,,,,,41,0,41,0,1,,,,,
,,051151,001,2023-07-29_15h37.12.899,arm3_eps,2022.2.5,MacIntel,60.0024001,60ffd7de4dc3ea2bfd477a22,64c47140896c8c63e34c6d2f,64c515fda4e95dc51d9fc599,right,1,0.75,0.3071,2,0.086006347,0.452,,,,,,42,0,42,0,1,,,,,
,,051151,001,2023-07-29_15h37.12.899,arm3_eps,2022.2.5,MacIntel,60.0024001,60ffd7de4dc3ea2bfd477a22,64c47140896c8c63e34c6d2f,64c515fda4e95dc51d9fc599,up,1,0.75,0.3071,2,0,0.2495,,,,,,43,0,43,0,1,,,,,
,,051151,001,2023-07-29_15h37.12.899,arm3_eps,2022.2.5,MacIntel,60.0024001,60ffd7de4dc3ea2bfd477a22,64c47140896c8c63e34c6d2f,64c515fda4e95dc51d9fc599,right,1,0.75,0.3071,2,0.035639955,0.7983,,,,,,44,0,44,0,1,,,,,
,,051151,001,2023-07-29_15h37.12.899,arm3_eps,2022.2.5,MacIntel,60.0024001,60ffd7de4dc3ea2bfd477a22,64c47140896c8c63e34c6d2f,64c515fda4e95dc51d9fc599,right,1,0.75,0.3071,2,0.046506648,0.2525,,,,,,45,0,45,0,1,,,,,
,,051151,001,2023-07-29_15h37.12.899,arm3_eps,2022.2.5,MacIntel,60.0024001,60ffd7de4dc3ea2bfd477a22,64c47140896c8c63e34c6d2f,64c515fda4e95dc51d9fc599,right,1,0.75,0.3071,2,0.062108049,0.2143,,,,,,46,0,46,0,1,,,,,
,,051151,001,2023-07-29_15h37.12.899,arm3_eps,2022.2.5,MacIntel,60.0024001,60ffd7de4dc3ea2bfd477a22,64c47140896c8c63e34c6d2f,64c515fda4e95dc51d9fc599,right,1,0.75,0.3071,2,0.077699417,0.2688,,,,,,47,0,47,0,1,,,,,
,,051151,001,2023-07-29_15h37.12.899,arm3_eps,2022.2.5,MacIntel,60.0024001,60ffd7de4dc3ea2bfd477a22,64c47140896c8c63e34c6d2f,64c515fda4e95dc51d9fc599,right,1,0.75,0.3071,2,0.125215326,0.2534,,,,,,48,0,48,0,1,,,,,
,,051151,001,2023-07-29_15h37.12.899,arm3_eps,2022.2.5,MacIntel,60.0024001,60ffd7de4dc3ea2bfd477a22,64c47140896c8c63e34c6d2f,64c515fda4e95dc51d9fc599,right,1,0.75,0.3071,2,0.136044659,0.3663,,,,,,49,0,49,0,1,,,,,
,,051151,001,2023-07-29_15h37.12.899,arm3_eps,2022.2.5,MacIntel,60.0024001,60ffd7de4dc3ea2bfd477a22,64c47140896c8c63e34c6d2f,64c515fda4e95dc51d9fc599,up,-1,0.75,0.3071,3,0,0.2351,,,,,,50,0,50,0,1,,,,,
,,051151,001,2023-07-29_15h37.12.899,arm3_eps,2022.2.5,MacIntel,60.0024001,60ffd7de4dc3ea2bfd477a22,64c47140896c8c63e34c6d2f,64c515fda4e95dc51d9fc599,right,-1,0.75,0.3071,3,0.017880685,0.7989,,,,,,51,0,51,0,1,,,,,
,,051151,001,2023-07-29_15h37.12.899,arm3_eps,2022.2.5,MacIntel,60.0024001,60ffd7de4dc3ea2bfd477a22,64c47140896c8c63e34c6d2f,64c515fda4e95dc51d9fc599,right,-1,0.75,0.3071,3,0.004158805,0.2498,,,,,,52,0,52,0,1,,,,,
,,051151,001,2023-07-29_15h37.12.899,arm3_eps,2022.2.5,MacIntel,60.0024001,60ffd7de4dc3ea2bfd477a22,64c47140896c8c63e34c6d2f,64c515fda4e95dc51d9fc599,right,-1,0.75,0.3071,3,0.012656506,0.2691,,,,,,53,0,53,0,1,,,,,
,,051151,001,2023-07-29_15h37.12.899,arm3_eps,2022.2.5,MacIntel,60.0024001,60ffd7de4dc3ea2bfd477a22,64c47140896c8c63e34c6d2f,64c515fda4e95dc51d9fc599,right,-1,0.75,0.3071,3,0.02182496,0.3292,,,,,,54,0,54,0,1,,,,,
,,051151,001,2023-07-29_15h37.12.899,arm3_eps,2022.2.5,MacIntel,60.0024001,60ffd7de4dc3ea2bfd477a22,64c47140896c8c63e34c6d2f,64c515fda4e95dc51d9fc599,right,-1,0.75,0.3071,3,0.026994017,0.385,,,,,,55,0,55,0,1,,,,,
,,051151,001,2023-07-29_15h37.12.899,arm3_eps,2022.2.5,MacIntel,60.0024001,60ffd7de4dc3ea2bfd477a22,64c47140896c8c63e34c6d2f,64c515fda4e95dc51d9fc599,right,-1,0.75,0.3071,3,0.016872221,0.3343,,,,,,56,0,56,0,1,,,,,
,,051151,001,2023-07-29_15h37.12.899,arm3_eps,2022.2.5,MacIntel,60.0024001,60ffd7de4dc3ea2bfd477a22,64c47140896c8c63e34c6d2f,64c515fda4e95dc51d9fc599,right,-1,0.75,0.3071,3,0.020396643,0.3817,,,,,,57,0,57,0,1,,,,,
,,051151,001,2023-07-29_15h37.12.899,arm3_eps,2022.2.5,MacIntel,60.0024001,60ffd7de4dc3ea2bfd477a22,64c47140896c8c63e34c6d2f,64c515fda4e95dc51d9fc599,right,-1,0.75,0.3071,3,0.014148465,0.434,,,,,,58,0,58,0,1,,,,,
,,051151,001,2023-07-29_15h37.12.899,arm3_eps,2022.2.5,MacIntel,60.0024001,60ffd7de4dc3ea2bfd477a22,64c47140896c8c63e34c6d2f,64c515fda4e95dc51d9fc599,right,-1,0.75,0.3071,3,0.004630355,0.4163,,,,,,59,0,59,0,1,,,,,
,,051151,001,2023-07-29_15h37.12.899,arm3_eps,2022.2.5,MacIntel,60.0024001,60ffd7de4dc3ea2bfd477a22,64c47140896c8c63e34c6d2f,64c515fda4e95dc51d9fc599,down,-1,0.75,0.3071,4,0,0.3679,,,,,,60,0,60,0,1,,,,,
,,051151,001,2023-07-29_15h37.12.899,arm3_eps,2022.2.5,MacIntel,60.0024001,60ffd7de4dc3ea2bfd477a22,64c47140896c8c63e34c6d2f,64c515fda4e95dc51d9fc599,right,-1,0.75,0.3071,4,-0.008462362,0.7822,,,,,,61,0,61,0,1,,,,,
,,051151,001,2023-07-29_15h37.12.899,arm3_eps,2022.2.5,MacIntel,60.0024001,60ffd7de4dc3ea2bfd477a22,64c47140896c8c63e34c6d2f,64c515fda4e95dc51d9fc599,right,-1,0.75,0.3071,4,0.008460973,0.2168,,,,,,62,0,62,0,1,,,,,
,,051151,001,2023-07-29_15h37.12.899,arm3_eps,2022.2.5,MacIntel,60.0024001,60ffd7de4dc3ea2bfd477a22,64c47140896c8c63e34c6d2f,64c515fda4e95dc51d9fc599,right,-1,0.75,0.3071,4,-0.014817029,0.1681,,,,,,63,0,63,0,1,,,,,
,,051151,001,2023-07-29_15h37.12.899,arm3_eps,2022.2.5,MacIntel,60.0024001,60ffd7de4dc3ea2bfd477a22,64c47140896c8c63e34c6d2f,64c515fda4e95dc51d9fc599,right,-1,0.75,0.3071,4,-0.013905169,0.234,,,,,,64,0,64,0,1,,,,,
,,051151,001,2023-07-29_15h37.12.899,arm3_eps,2022.2.5,MacIntel,60.0024001,60ffd7de4dc3ea2bfd477a22,64c47140896c8c63e34c6d2f,64c515fda4e95dc51d9fc599,right,-1,0.75,0.3071,4,-0.001251023,0.1338,,,,,,65,0,65,0,1,,,,,
,,051151,001,2023-07-29_15h37.12.899,arm3_eps,2022.2.5,MacIntel,60.0024001,60ffd7de4dc3ea2bfd477a22,64c47140896c8c63e34c6d2f,64c515fda4e95dc51d9fc599,right,-1,0.75,0.3071,4,-0.001044656,0.1675,,,,,,66,0,66,0,1,,,,,
,,051151,001,2023-07-29_15h37.12.899,arm3_eps,2022.2.5,MacIntel,60.0024001,60ffd7de4dc3ea2bfd477a22,64c47140896c8c63e34c6d2f,64c515fda4e95dc51d9fc599,right,-1,0.75,0.3071,4,-0.017458328,0.2156,,,,,,67,0,67,0,1,,,,,
,,051151,001,2023-07-29_15h37.12.899,arm3_eps,2022.2.5,MacIntel,60.0024001,60ffd7de4dc3ea2bfd477a22,64c47140896c8c63e34c6d2f,64c515fda4e95dc51d9fc599,right,-1,0.75,0.3071,4,-0.057053571,0.2836,,,,,,68,0,68,0,1,,,,,
,,051151,001,2023-07-29_15h37.12.899,arm3_eps,2022.2.5,MacIntel,60.0024001,60ffd7de4dc3ea2bfd477a22,64c47140896c8c63e34c6d2f,64c515fda4e95dc51d9fc599,down,-1,0.75,0.3071,5,0,0.7671,,,,,,69,0,69,0,1,,,,,
,,051151,001,2023-07-29_15h37.12.899,arm3_eps,2022.2.5,MacIntel,60.0024001,60ffd7de4dc3ea2bfd477a22,64c47140896c8c63e34c6d2f,64c515fda4e95dc51d9fc599,right,-1,0.75,0.3071,5,-0.016253231,1.0313,,,,,,70,0,70,0,1,,,,,
,,051151,001,2023-07-29_15h37.12.899,arm3_eps,2022.2.5,MacIntel,60.0024001,60ffd7de4dc3ea2bfd477a22,64c47140896c8c63e34c6d2f,64c515fda4e95dc51d9fc599,right,-1,0.75,0.3071,5,-0.028591301,0.2679,,,,,,71,0,71,0,1,,,,,
,,051151,001,2023-07-29_15h37.12.899,arm3_eps,2022.2.5,MacIntel,60.0024001,60ffd7de4dc3ea2bfd477a22,64c47140896c8c63e34c6d2f,64c515fda4e95dc51d9fc599,right,-1,0.75,0.3071,5,-0.030632846,0.2339,,,,,,72,0,72,0,1,,,,,
,,051151,001,2023-07-29_15h37.12.899,arm3_eps,2022.2.5,MacIntel,60.0024001,60ffd7de4dc3ea2bfd477a22,64c47140896c8c63e34c6d2f,64c515fda4e95dc51d9fc599,right,-1,0.75,0.3071,5,-0.061444071,0.3314,,,,,,73,0,73,0,1,,,,,
,,051151,001,2023-07-29_15h37.12.899,arm3_eps,2022.2.5,MacIntel,60.0024001,60ffd7de4dc3ea2bfd477a22,64c47140896c8c63e34c6d2f,64c515fda4e95dc51d9fc599,down,-1,0.75,0.3071,6,0,0.3995,,,,,,74,0,74,0,1,,,,,
,,051151,001,2023-07-29_15h37.12.899,arm3_eps,2022.2.5,MacIntel,60.0024001,60ffd7de4dc3ea2bfd477a22,64c47140896c8c63e34c6d2f,64c515fda4e95dc51d9fc599,right,-1,0.75,0.3071,6,-0.015760667,0.8131,,,,,,75,0,75,0,1,,,,,
,,051151,001,2023-07-29_15h37.12.899,arm3_eps,2022.2.5,MacIntel,60.0024001,60ffd7de4dc3ea2bfd477a22,64c47140896c8c63e34c6d2f,64c515fda4e95dc51d9fc599,right,-1,0.75,0.3071,6,-0.03322987,0.3609,,,,,,76,0,76,0,1,,,,,
,,051151,001,2023-07-29_15h37.12.899,arm3_eps,2022.2.5,MacIntel,60.0024001,60ffd7de4dc3ea2bfd477a22,64c47140896c8c63e34c6d2f,64c515fda4e95dc51d9fc599,right,-1,0.75,0.3071,6,-0.037496558,0.7145,,,,,,77,0,77,0,1,,,,,
,,051151,001,2023-07-29_15h37.12.899,arm3_eps,2022.2.5,MacIntel,60.0024001,60ffd7de4dc3ea2bfd477a22,64c47140896c8c63e34c6d2f,64c515fda4e95dc51d9fc599,right,-1,0.75,0.3071,6,-0.04581488,0.3519,,,,,,78,0,78,0,1,,,,,
,,051151,001,2023-07-29_15h37.12.899,arm3_eps,2022.2.5,MacIntel,60.0024001,60ffd7de4dc3ea2bfd477a22,64c47140896c8c63e34c6d2f,64c515fda4e95dc51d9fc599,down,-1,0.75,0.3071,7,0,0.3968,,,,,,79,0,79,0,1,,,,,
,,051151,001,2023-07-29_15h37.12.899,arm3_eps,2022.2.5,MacIntel,60.0024001,60ffd7de4dc3ea2bfd477a22,64c47140896c8c63e34c6d2f,64c515fda4e95dc51d9fc599,right,-1,0.75,0.3071,7,-0.012654342,0.7966,,,,,,80,0,80,0,1,,,,,
,,051151,001,2023-07-29_15h37.12.899,arm3_eps,2022.2.5,MacIntel,60.0024001,60ffd7de4dc3ea2bfd477a22,64c47140896c8c63e34c6d2f,64c515fda4e95dc51d9fc599,right,-1,0.75,0.3071,7,-0.025266996,0.2842,,,,,,81,0,81,0,1,,,,,
,,051151,001,2023-07-29_15h37.12.899,arm3_eps,2022.2.5,MacIntel,60.0024001,60ffd7de4dc3ea2bfd477a22,64c47140896c8c63e34c6d2f,64c515fda4e95dc51d9fc599,right,-1,0.75,0.3071,7,-0.03330788,0.45,,,,,,82,0,82,0,1,,,,,
,,051151,001,2023-07-29_15h37.12.899,arm3_eps,2022.2.5,MacIntel,60.0024001,60ffd7de4dc3ea2bfd477a22,64c47140896c8c63e34c6d2f,64c515fda4e95dc51d9fc599,right,-1,0.75,0.3071,7,-0.053001224,0.3652,,,,,,83,0,83,0,1,,,,,
,,051151,001,2023-07-29_15h37.12.899,arm3_eps,2022.2.5,MacIntel,60.0024001,60ffd7de4dc3ea2bfd477a22,64c47140896c8c63e34c6d2f,64c515fda4e95dc51d9fc599,down,-1,0.75,0.3071,8,0,0.3848,,,,,,84,0,84,0,1,,,,,
,,051151,001,2023-07-29_15h37.12.899,arm3_eps,2022.2.5,MacIntel,60.0024001,60ffd7de4dc3ea2bfd477a22,64c47140896c8c63e34c6d2f,64c515fda4e95dc51d9fc599,right,-1,0.75,0.3071,8,-0.011053523,0.7336,,,,,,85,0,85,0,1,,,,,
,,051151,001,2023-07-29_15h37.12.899,arm3_eps,2022.2.5,MacIntel,60.0024001,60ffd7de4dc3ea2bfd477a22,64c47140896c8c63e34c6d2f,64c515fda4e95dc51d9fc599,right,-1,0.75,0.3071,8,0.011214287,0.7517,,,,,,86,0,86,0,1,,,,,
,,051151,001,2023-07-29_15h37.12.899,arm3_eps,2022.2.5,MacIntel,60.0024001,60ffd7de4dc3ea2bfd477a22,64c47140896c8c63e34c6d2f,64c515fda4e95dc51d9fc599,right,-1,0.75,0.3071,8,-0.028204435,0.2369,,,,,,87,0,87,0,1,,,,,
,,051151,001,2023-07-29_15h37.12.899,arm3_eps,2022.2.5,MacIntel,60.0024001,60ffd7de4dc3ea2bfd477a22,64c47140896c8c63e34c6d2f,64c515fda4e95dc51d9fc599,right,-1,0.75,0.3071,8,-0.059547671,0.3933,,,,,,88,0,88,0,1,,,,,
,,051151,001,2023-07-29_15h37.12.899,arm3_eps,2022.2.5,MacIntel,60.0024001,60ffd7de4dc3ea2bfd477a22,64c47140896c8c63e34c6d2f,64c515fda4e95dc51d9fc599,right,-1,0.75,0.3071,8,-0.057269067,0.3937,,,,,,89,0,89,0,1,,,,,
,,051151,001,2023-07-29_15h37.12.899,arm3_eps,2022.2.5,MacIntel,60.0024001,60ffd7de4dc3ea2bfd477a22,64c47140896c8c63e34c6d2f,64c515fda4e95dc51d9fc599,right,-1,0.75,0.3071,8,-0.054107221,0.3991,,,,,,90,0,90,0,1,,,,,
,,051151,001,2023-07-29_15h37.12.899,arm3_eps,2022.2.5,MacIntel,60.0024001,60ffd7de4dc3ea2bfd477a22,64c47140896c8c63e34c6d2f,64c515fda4e95dc51d9fc599,right,-1,0.75,0.3071,8,-0.06740577,0.475,,,,,,91,0,91,0,1,,,,,
,,051151,001,2023-07-29_15h37.12.899,arm3_eps,2022.2.5,MacIntel,60.0024001,60ffd7de4dc3ea2bfd477a22,64c47140896c8c63e34c6d2f,64c515fda4e95dc51d9fc599,down,-1,0.75,0.3071,9,0,0.6337,,,,,,92,0,92,0,1,,,,,
,,051151,001,2023-07-29_15h37.12.899,arm3_eps,2022.2.5,MacIntel,60.0024001,60ffd7de4dc3ea2bfd477a22,64c47140896c8c63e34c6d2f,64c515fda4e95dc51d9fc599,right,-1,0.75,0.3071,9,-0.022120641,0.7494,,,,,,93,0,93,0,1,,,,,
,,051151,001,2023-07-29_15h37.12.899,arm3_eps,2022.2.5,MacIntel,60.0024001,60ffd7de4dc3ea2bfd477a22,64c47140896c8c63e34c6d2f,64c515fda4e95dc51d9fc599,right,-1,0.75,0.3071,9,-0.033958423,0.2155,,,,,,94,0,94,0,1,,,,,
,,051151,001,2023-07-29_15h37.12.899,arm3_eps,2022.2.5,MacIntel,60.0024001,60ffd7de4dc3ea2bfd477a22,64c47140896c8c63e34c6d2f,64c515fda4e95dc51d9fc599,right,-1,0.75,0.3071,9,-0.034740578,0.2671,,,,,,95,0,95,0,1,,,,,
,,051151,001,2023-07-29_15h37.12.899,arm3_eps,2022.2.5,MacIntel,60.0024001,60ffd7de4dc3ea2bfd477a22,64c47140896c8c63e34c6d2f,64c515fda4e95dc51d9fc599,right,-1,0.75,0.3071,9,-0.078425964,0.2827,,,,,,96,0,96,0,1,,,,,
,,051151,001,2023-07-29_15h37.12.899,arm3_eps,2022.2.5,MacIntel,60.0024001,60ffd7de4dc3ea2bfd477a22,64c47140896c8c63e34c6d2f,64c515fda4e95dc51d9fc599,right,-1,0.75,0.3071,9,-0.050463833,0.4162,,,,,,97,0,97,0,1,,,,,
,,051151,001,2023-07-29_15h37.12.899,arm3_eps,2022.2.5,MacIntel,60.0024001,60ffd7de4dc3ea2bfd477a22,64c47140896c8c63e34c6d2f,64c515fda4e95dc51d9fc599,right,-1,0.75,0.3071,9,-0.047707658,0.416,,,,,,98,0,98,0,1,,,,,
,,051151,001,2023-07-29_15h37.12.899,arm3_eps,2022.2.5,MacIntel,60.0024001,60ffd7de4dc3ea2bfd477a22,64c47140896c8c63e34c6d2f,64c515fda4e95dc51d9fc599,down,1,0.75,0.3071,10,0,0.5831,,,,,,99,0,99,0,1,,,,,
,,051151,001,2023-07-29_15h37.12.899,arm3_eps,2022.2.5,MacIntel,60.0024001,60ffd7de4dc3ea2bfd477a22,64c47140896c8c63e34c6d2f,64c515fda4e95dc51d9fc599,right,1,0.75,0.3071,10,0.015752121,0.4311,,,,,,100,0,100,0,1,,,,,
,,051151,001,2023-07-29_15h37.12.899,arm3_eps,2022.2.5,MacIntel,60.0024001,60ffd7de4dc3ea2bfd477a22,64c47140896c8c63e34c6d2f,64c515fda4e95dc51d9fc599,right,1,0.75,0.3071,10,0.039252648,0.3341,,,,,,101,0,101,0,1,,,,,
,,051151,001,2023-07-29_15h37.12.899,arm3_eps,2022.2.5,MacIntel,60.0024001,60ffd7de4dc3ea2bfd477a22,64c47140896c8c63e34c6d2f,64c515fda4e95dc51d9fc599,right,1,0.75,0.3071,10,0.055764523,0.4169,,,,,,102,0,102,0,1,,,,,
,,051151,001,2023-07-29_15h37.12.899,arm3_eps,2022.2.5,MacIntel,60.0024001,60ffd7de4dc3ea2bfd477a22,64c47140896c8c63e34c6d2f,64c515fda4e95dc51d9fc599,right,1,0.75,0.3071,10,0.04376684,0.3832,,,,,,103,0,103,0,1,,,,,
,,051151,001,2023-07-29_15h37.12.899,arm3_eps,2022.2.5,MacIntel,60.0024001,60ffd7de4dc3ea2bfd477a22,64c47140896c8c63e34c6d2f,64c515fda4e95dc51d9fc599,up,-1,0.75,0.3071,11,0,0.3997,,,,,,104,0,104,0,1,,,,,
,,051151,001,2023-07-29_15h37.12.899,arm3_eps,2022.2.5,MacIntel,60.0024001,60ffd7de4dc3ea2bfd477a22,64c47140896c8c63e34c6d2f,64c515fda4e95dc51d9fc599,right,-1,0.75,0.3071,11,-0.01172379,0.7997,,,,,,105,0,105,0,1,,,,,
,,051151,001,2023-07-29_15h37.12.899,arm3_eps,2022.2.5,MacIntel,60.0024001,60ffd7de4dc3ea2bfd477a22,64c47140896c8c63e34c6d2f,64c515fda4e95dc51d9fc599,right,-1,0.75,0.3071,11,-0.008216934,0.2501,,,,,,106,0,106,0,1,,,,,
,,051151,001,2023-07-29_15h37.12.899,arm3_eps,2022.2.5,MacIntel,60.0024001,60ffd7de4dc3ea2bfd477a22,64c47140896c8c63e34c6d2f,64c515fda4e95dc51d9fc599,right,-1,0.75,0.3071,11,-0.023347905,0.2836,,,,,,107,0,107,0,1,,,,,
,,051151,001,2023-07-29_15h37.12.899,arm3_eps,2022.2.5,MacIntel,60.0024001,60ffd7de4dc3ea2bfd477a22,64c47140896c8c63e34c6d2f,64c515fda4e95dc51d9fc599,right,-1,0.75,0.3071,11,-0.030033041,0.3464,,,,,,108,0,108,0,1,,,,,
,,051151,001,2023-07-29_15h37.12.899,arm3_eps,2022.2.5,MacIntel,60.0024001,60ffd7de4dc3ea2bfd477a22,64c47140896c8c63e34c6d2f,64c515fda4e95dc51d9fc599,right,-1,0.75,0.3071,11,-0.013368338,0.4664,,,,,,109,0,109,0,1,,,,,
,,051151,001,2023-07-29_15h37.12.899,arm3_eps,2022.2.5,MacIntel,60.0024001,60ffd7de4dc3ea2bfd477a22,64c47140896c8c63e34c6d2f,64c515fda4e95dc51d9fc599,right,-1,0.75,0.3071,11,0.011737006,0.4349,,,,,,110,0,110,0,1,,,,,
,,051151,001,2023-07-29_15h37.12.899,arm3_eps,2022.2.5,MacIntel,60.0024001,60ffd7de4dc3ea2bfd477a22,64c47140896c8c63e34c6d2f,64c515fda4e95dc51d9fc599,right,-1,0.75,0.3071,11,-0.006241173,0.4984,,,,,,111,0,111,0,1,,,,,
,,051151,001,2023-07-29_15h37.12.899,arm3_eps,2022.2.5,MacIntel,60.0024001,60ffd7de4dc3ea2bfd477a22,64c47140896c8c63e34c6d2f,64c515fda4e95dc51d9fc599,right,-1,0.75,0.3071,11,-0.01307933,0.4518,,,,,,112,0,112,0,1,,,,,
,,051151,001,2023-07-29_15h37.12.899,arm3_eps,2022.2.5,MacIntel,60.0024001,60ffd7de4dc3ea2bfd477a22,64c47140896c8c63e34c6d2f,64c515fda4e95dc51d9fc599,up,1,0.75,0.3071,10,0,0.5508,,,,,,113,0,113,0,1,,,,,
,,051151,001,2023-07-29_15h37.12.899,arm3_eps,2022.2.5,MacIntel,60.0024001,60ffd7de4dc3ea2bfd477a22,64c47140896c8c63e34c6d2f,64c515fda4e95dc51d9fc599,right,1,0.75,0.3071,10,-0.004821925,0.8143,,,,,,114,0,114,0,1,,,,,
,,051151,001,2023-07-29_15h37.12.899,arm3_eps,2022.2.5,MacIntel,60.0024001,60ffd7de4dc3ea2bfd477a22,64c47140896c8c63e34c6d2f,64c515fda4e95dc51d9fc599,right,1,0.75,0.3071,10,-0.012505718,0.2323,,,,,,115,0,115,0,1,,,,,
,,051151,001,2023-07-29_15h37.12.899,arm3_eps,2022.2.5,MacIntel,60.0024001,60ffd7de4dc3ea2bfd477a22,64c47140896c8c63e34c6d2f,64c515fda4e95dc51d9fc599,right,1,0.75,0.3071,10,0.046649377,0.2507,,,,,,116,0,116,0,1,,,,,
,,051151,001,2023-07-29_15h37.12.899,arm3_eps,2022.2.5,MacIntel,60.0024001,60ffd7de4dc3ea2bfd477a22,64c47140896c8c63e34c6d2f,64c515fda4e95dc51d9fc599,right,1,0.75,0.3071,10,0.054725372,0.3015,,,,,,117,0,117,0,1,,,,,
,,051151,001,2023-07-29_15h37.12.899,arm3_eps,2022.2.5,MacIntel,60.0024001,60ffd7de4dc3ea2bfd477a22,64c47140896c8c63e34c6d2f,64c515fda4e95dc51d9fc599,right,1,0.75,0.3071,10,0.088974317,0.4455,,,,,,118,0,118,0,1,,,,,
,,051151,001,2023-07-29_15h37.12.899,arm3_eps,2022.2.5,MacIntel,60.0024001,60ffd7de4dc3ea2bfd477a22,64c47140896c8c63e34c6d2f,64c515fda4e95dc51d9fc599,up,1,0.75,0.3071,10,0,0.2983,,,,,,119,0,119,0,1,,,,,
,,051151,001,2023-07-29_15h37.12.899,arm3_eps,2022.2.5,MacIntel,60.0024001,60ffd7de4dc3ea2bfd477a22,64c47140896c8c63e34c6d2f,64c515fda4e95dc51d9fc599,right,1,0.75,0.3071,10,0.014764998,0.944,,,,,,120,0,120,0,1,,,,,
,,051151,001,2023-07-29_15h37.12.899,arm3_eps,2022.2.5,MacIntel,60.0024001,60ffd7de4dc3ea2bfd477a22,64c47140896c8c63e34c6d2f,64c515fda4e95dc51d9fc599,right,1,0.75,0.3071,10,0.051736167,0.216,,,,,,121,0,121,0,1,,,,,
,,051151,001,2023-07-29_15h37.12.899,arm3_eps,2022.2.5,MacIntel,60.0024001,60ffd7de4dc3ea2bfd477a22,64c47140896c8c63e34c6d2f,64c515fda4e95dc51d9fc599,right,1,0.75,0.3071,10,0.077854735,0.2333,,,,,,122,0,122,0,1,,,,,
,,051151,001,2023-07-29_15h37.12.899,arm3_eps,2022.2.5,MacIntel,60.0024001,60ffd7de4dc3ea2bfd477a22,64c47140896c8c63e34c6d2f,64c515fda4e95dc51d9fc599,right,1,0.75,0.3071,10,0.08090798,0.3175,,,,,,123,0,123,0,1,,,,,
,,051151,001,2023-07-29_15h37.12.899,arm3_eps,2022.2.5,MacIntel,60.0024001,60ffd7de4dc3ea2bfd477a22,64c47140896c8c63e34c6d2f,64c515fda4e95dc51d9fc599,up,1,0.75,0.3071,10,0,0.3493,,,,,,124,0,124,0,1,,,,,
,,051151,001,2023-07-29_15h37.12.899,arm3_eps,2022.2.5,MacIntel,60.0024001,60ffd7de4dc3ea2bfd477a22,64c47140896c8c63e34c6d2f,64c515fda4e95dc51d9fc599,right,1,0.75,0.3071,10,-0.026652788,0.7307,,,,,,125,0,125,0,1,,,,,
,,051151,001,2023-07-29_15h37.12.899,arm3_eps,2022.2.5,MacIntel,60.0024001,60ffd7de4dc3ea2bfd477a22,64c47140896c8c63e34c6d2f,64c515fda4e95dc51d9fc599,right,1,0.75,0.3071,10,0.00318507,0.2952,,,,,,126,0,126,0,1,,,,,
,,051151,001,2023-07-29_15h37.12.899,arm3_eps,2022.2.5,MacIntel,60.0024001,60ffd7de4dc3ea2bfd477a22,64c47140896c8c63e34c6d2f,64c515fda4e95dc51d9fc599,right,1,0.75,0.3071,10,-0.003981486,0.232,,,,,,127,0,127,0,1,,,,,
,,051151,001,2023-07-29_15h37.12.899,arm3_eps,2022.2.5,MacIntel,60.0024001,60ffd7de4dc3ea2bfd477a22,64c47140896c8c63e34c6d2f,64c515fda4e95dc51d9fc599,right,1,0.75,0.3071,10,0.005576949,0.2826,,,,,,128,0,128,0,1,,,,,
,,051151,001,2023-07-29_15h37.12.899,arm3_eps,2022.2.5,MacIntel,60.0024001,60ffd7de4dc3ea2bfd477a22,64c47140896c8c63e34c6d2f,64c515fda4e95dc51d9fc599,right,1,0.75,0.3071,10,0.03415499,0.3011,,,,,,129,0,129,0,1,,,,,
,,051151,001,2023-07-29_15h37.12.899,arm3_eps,2022.2.5,MacIntel,60.0024001,60ffd7de4dc3ea2bfd477a22,64c47140896c8c63e34c6d2f,64c515fda4e95dc51d9fc599,up,1,0.75,0.3071,11,0,0.337,,,,,,130,0,130,0,1,,,,,
,,051151,001,2023-07-29_15h37.12.899,arm3_eps,2022.2.5,MacIntel,60.0024001,60ffd7de4dc3ea2bfd477a22,64c47140896c8c63e34c6d2f,64c515fda4e95dc51d9fc599,right,1,0.75,0.3071,11,0.015836853,0.8139,,,,,,131,0,131,0,1,,,,,
,,051151,001,2023-07-29_15h37.12.899,arm3_eps,2022.2.5,MacIntel,60.0024001,60ffd7de4dc3ea2bfd477a22,64c47140896c8c63e34c6d2f,64c515fda4e95dc51d9fc599,right,1,0.75,0.3071,11,-9.04459E-05,0.2334,,,,,,132,0,132,0,1,,,,,
,,051151,001,2023-07-29_15h37.12.899,arm3_eps,2022.2.5,MacIntel,60.0024001,60ffd7de4dc3ea2bfd477a22,64c47140896c8c63e34c6d2f,64c515fda4e95dc51d9fc599,right,1,0.75,0.3071,11,0.049332109,0.2346,,,,,,133,0,133,0,1,,,,,
,,051151,001,2023-07-29_15h37.12.899,arm3_eps,2022.2.5,MacIntel,60.0024001,60ffd7de4dc3ea2bfd477a22,64c47140896c8c63e34c6d2f,64c515fda4e95dc51d9fc599,right,1,0.75,0.3071,11,0.06697187,0.3987,,,,,,134,0,134,0,1,,,,,
,,051151,001,2023-07-29_15h37.12.899,arm3_eps,2022.2.5,MacIntel,60.0024001,60ffd7de4dc3ea2bfd477a22,64c47140896c8c63e34c6d2f,64c515fda4e95dc51d9fc599,up,-1,0.75,0.3071,12,0,0.3345,,,,,,135,0,135,0,1,,,,,
,,051151,001,2023-07-29_15h37.12.899,arm3_eps,2022.2.5,MacIntel,60.0024001,60ffd7de4dc3ea2bfd477a22,64c47140896c8c63e34c6d2f,64c515fda4e95dc51d9fc599,right,-1,0.75,0.3071,12,-0.008962553,0.7842,,,,,,136,0,136,0,1,,,,,
,,051151,001,2023-07-29_15h37.12.899,arm3_eps,2022.2.5,MacIntel,60.0024001,60ffd7de4dc3ea2bfd477a22,64c47140896c8c63e34c6d2f,64c515fda4e95dc51d9fc599,right,-1,0.75,0.3071,12,-0.000339932,0.2514,,,,,,137,0,137,0,1,,,,,
,,051151,001,2023-07-29_15h37.12.899,arm3_eps,2022.2.5,MacIntel,60.0024001,60ffd7de4dc3ea2bfd477a22,64c47140896c8c63e34c6d2f,64c515fda4e95dc51d9fc599,right,-1,0.75,0.3071,12,-0.001294317,0.251,,,,,,138,0,138,0,1,,,,,
,,051151,001,2023-07-29_15h37.12.899,arm3_eps,2022.2.5,MacIntel,60.0024001,60ffd7de4dc3ea2bfd477a22,64c47140896c8c63e34c6d2f,64c515fda4e95dc51d9fc599,right,-1,0.75,0.3071,12,-0.008719996,0.3138,,,,,,139,0,139,0,1,,,,,
,,051151,001,2023-07-29_15h37.12.899,arm3_eps,2022.2.5,MacIntel,60.0024001,60ffd7de4dc3ea2bfd477a22,64c47140896c8c63e34c6d2f,64c515fda4e95dc51d9fc599,right,-1,0.75,0.3071,12,-0.032880052,0.3994,,,,,,140,0,140,0,1,,,,,
,,051151,001,2023-07-29_15h37.12.899,arm3_eps,2022.2.5,MacIntel,60.0024001,60ffd7de4dc3ea2bfd477a22,64c47140896c8c63e34c6d2f,64c515fda4e95dc51d9fc599,right,-1,0.75,0.3071,12,-0.046918775,0.3307,,,,,,141,0,141,0,1,,,,,
,,051151,001,2023-07-29_15h37.12.899,arm3_eps,2022.2.5,MacIntel,60.0024001,60ffd7de4dc3ea2bfd477a22,64c47140896c8c63e34c6d2f,64c515fda4e95dc51d9fc599,right,-1,0.75,0.3071,12,-0.078356981,0.3646,,,,,,142,0,142,0,1,,,,,
,,051151,001,2023-07-29_15h37.12.899,arm3_eps,2022.2.5,MacIntel,60.0024001,60ffd7de4dc3ea2bfd477a22,64c47140896c8c63e34c6d2f,64c515fda4e95dc51d9fc599,down,1,0.75,0.3071,13,0,0.501,,,,,,143,0,143,0,1,,,,,
,,051151,001,2023-07-29_15h37.12.899,arm3_eps,2022.2.5,MacIntel,60.0024001,60ffd7de4dc3ea2bfd477a22,64c47140896c8c63e34c6d2f,64c515fda4e95dc51d9fc599,right,1,0.75,0.3071,13,0.002960702,0.7486,,,,,,144,0,144,0,1,,,,,
,,051151,001,2023-07-29_15h37.12.899,arm3_eps,2022.2.5,MacIntel,60.0024001,60ffd7de4dc3ea2bfd477a22,64c47140896c8c63e34c6d2f,64c515fda4e95dc51d9fc599,right,1,0.75,0.3071,13,-0.015181797,0.2003,,,,,,145,0,145,0,1,,,,,
,,051151,001,2023-07-29_15h37.12.899,arm3_eps,2022.2.5,MacIntel,60.0024001,60ffd7de4dc3ea2bfd477a22,64c47140896c8c63e34c6d2f,64c515fda4e95dc51d9fc599,right,1,0.75,0.3071,13,0.001306821,0.1697,,,,,,146,0,146,0,1,,,,,
,,051151,001,2023-07-29_15h37.12.899,arm3_eps,2022.2.5,MacIntel,60.0024001,60ffd7de4dc3ea2bfd477a22,64c47140896c8c63e34c6d2f,64c515fda4e95dc51d9fc599,right,1,0.75,0.3071,13,-0.032467182,0.237,,,,,,147,0,147,0,1,,,,,
,,051151,001,2023-07-29_15h37.12.899,arm3_eps,2022.2.5,MacIntel,60.0024001,60ffd7de4dc3ea2bfd477a22,64c47140896c8c63e34c6d2f,64c515fda4e95dc51d9fc599,right,1,0.75,0.3071,13,-0.052048826,0.3487,,,,,,148,0,148,0,1,,,,,
,,051151,001,2023-07-29_15h37.12.899,arm3_eps,2022.2.5,MacIntel,60.0024001,60ffd7de4dc3ea2bfd477a22,64c47140896c8c63e34c6d2f,64c515fda4e95dc51d9fc599,right,1,0.75,0.3071,13,-0.007956978,0.4338,,,,,,149,0,149,0,1,,,,,
,,051151,001,2023-07-29_15h37.12.899,arm3_eps,2022.2.5,MacIntel,60.0024001,60ffd7de4dc3ea2bfd477a22,64c47140896c8c63e34c6d2f,64c515fda4e95dc51d9fc599,right,1,0.75,0.3071,13,-0.02797534,0.3507,,,,,,150,0,150,0,1,,,,,
,,051151,001,2023-07-29_15h37.12.899,arm3_eps,2022.2.5,MacIntel,60.0024001,60ffd7de4dc3ea2bfd477a22,64c47140896c8c63e34c6d2f,64c515fda4e95dc51d9fc599,right,1,0.75,0.3071,13,0.008672304,0.499,,,,,,151,0,151,0,1,,,,,
,,051151,001,2023-07-29_15h37.12.899,arm3_eps,2022.2.5,MacIntel,60.0024001,60ffd7de4dc3ea2bfd477a22,64c47140896c8c63e34c6d2f,64c515fda4e95dc51d9fc599,up,1,0.75,0.3071,14,0,0.5292,,,,,,152,0,152,0,1,,,,,
,,051151,001,2023-07-29_15h37.12.899,arm3_eps,2022.2.5,MacIntel,60.0024001,60ffd7de4dc3ea2bfd477a22,64c47140896c8c63e34c6d2f,64c515fda4e95dc51d9fc599,right,1,0.75,0.3071,14,0.000183688,0.7475,,,,,,153,0,153,0,1,,,,,
,,051151,001,2023-07-29_15h37.12.899,arm3_eps,2022.2.5,MacIntel,60.0024001,60ffd7de4dc3ea2bfd477a22,64c47140896c8c63e34c6d2f,64c515fda4e95dc51d9fc599,right,1,0.75,0.3071,14,-0.005484696,0.2158,,,,,,154,0,154,0,1,,,,,
,,051151,001,2023-07-29_15h37.12.899,arm3_eps,2022.2.5,MacIntel,60.0024001,60ffd7de4dc3ea2bfd477a22,64c47140896c8c63e34c6d2f,64c515fda4e95dc51d9fc599,right,1,0.75,0.3071,14,-0.021978184,0.1995,,,,,,155,0,155,0,1,,,,,
,,051151,001,2023-07-29_15h37.12.899,arm3_eps,2022.2.5,MacIntel,60.0024001,60ffd7de4dc3ea2bfd477a22,64c47140896c8c63e34c6d2f,64c515fda4e95dc51d9fc599,right,1,0.75,0.3071,14,-0.033468963,0.2164,,,,,,156,0,156,0,1,,,,,
,,051151,001,2023-07-29_15h37.12.899,arm3_eps,2022.2.5,MacIntel,60.0024001,60ffd7de4dc3ea2bfd477a22,64c47140896c8c63e34c6d2f,64c515fda4e95dc51d9fc599,right,1,0.75,0.3071,14,-0.006758712,0.2668,,,,,,157,0,157,0,1,,,,,
,,051151,001,2023-07-29_15h37.12.899,arm3_eps,2022.2.5,MacIntel,60.0024001,60ffd7de4dc3ea2bfd477a22,64c47140896c8c63e34c6d2f,64c515fda4e95dc51d9fc599,right,1,0.75,0.3071,14,-0.015128477,0.2768,,,,,,158,0,158,0,1,,,,,
,,051151,001,2023-07-29_15h37.12.899,arm3_eps,2022.2.5,MacIntel,60.0024001,60ffd7de4dc3ea2bfd477a22,64c47140896c8c63e34c6d2f,64c515fda4e95dc51d9fc599,right,1,0.75,0.3071,14,-0.018687389,0.3001,,,,,,159,0,159,0,1,,,,,
,,051151,001,2023-07-29_15h37.12.899,arm3_eps,2022.2.5,MacIntel,60.0024001,60ffd7de4dc3ea2bfd477a22,64c47140896c8c63e34c6d2f,64c515fda4e95dc51d9fc599,right,1,0.75,0.3071,14,-0.021593682,0.3987,,,,,,160,0,160,0,1,,,,,
,,051151,001,2023-07-29_15h37.12.899,arm3_eps,2022.2.5,MacIntel,60.0024001,60ffd7de4dc3ea2bfd477a22,64c47140896c8c63e34c6d2f,64c515fda4e95dc51d9fc599,right,1,0.75,0.3071,14,-0.012779617,0.4506,,,,,,161,0,161,0,1,,,,,
,,051151,001,2023-07-29_15h37.12.899,arm3_eps,2022.2.5,MacIntel,60.0024001,60ffd7de4dc3ea2bfd477a22,64c47140896c8c63e34c6d2f,64c515fda4e95dc51d9fc599,up,1,0.75,0.3071,14,0,0.3667,,,,,,162,0,162,0,1,,,,,
,,051151,001,2023-07-29_15h37.12.899,arm3_eps,2022.2.5,MacIntel,60.0024001,60ffd7de4dc3ea2bfd477a22,64c47140896c8c63e34c6d2f,64c515fda4e95dc51d9fc599,right,1,0.75,0.3071,14,0.023432787,0.7672,,,,,,163,0,163,0,1,,,,,
,,051151,001,2023-07-29_15h37.12.899,arm3_eps,2022.2.5,MacIntel,60.0024001,60ffd7de4dc3ea2bfd477a22,64c47140896c8c63e34c6d2f,64c515fda4e95dc51d9fc599,right,1,0.75,0.3071,14,0.058585914,0.2306,,,,,,164,0,164,0,1,,,,,
,,051151,001,2023-07-29_15h37.12.899,arm3_eps,2022.2.5,MacIntel,60.0024001,60ffd7de4dc3ea2bfd477a22,64c47140896c8c63e34c6d2f,64c515fda4e95dc51d9fc599,right,1,0.75,0.3071,14,0.082747003,0.2363,,,,,,165,0,165,0,1,,,,,
,,051151,001,2023-07-29_15h37.12.899,arm3_eps,2022.2.5,MacIntel,60.0024001,60ffd7de4dc3ea2bfd477a22,64c47140896c8c63e34c6d2f,64c515fda4e95dc51d9fc599,right,1,0.75,0.3071,14,0.091447895,0.2661,,,,,,166,0,166,0,1,,,,,
,,051151,001,2023-07-29_15h37.12.899,arm3_eps,2022.2.5,MacIntel,60.0024001,60ffd7de4dc3ea2bfd477a22,64c47140896c8c63e34c6d2f,64c515fda4e95dc51d9fc599,up,1,0.75,0.3071,14,0,0.2999,,,,,,167,0,167,0,1,,,,,
,,051151,001,2023-07-29_15h37.12.899,arm3_eps,2022.2.5,MacIntel,60.0024001,60ffd7de4dc3ea2bfd477a22,64c47140896c8c63e34c6d2f,64c515fda4e95dc51d9fc599,right,1,0.75,0.3071,14,-0.004129223,0.7768,,,,,,168,0,168,0,1,,,,,
,,051151,001,2023-07-29_15h37.12.899,arm3_eps,2022.2.5,MacIntel,60.0024001,60ffd7de4dc3ea2bfd477a22,64c47140896c8c63e34c6d2f,64c515fda4e95dc51d9fc599,right,1,0.75,0.3071,14,0.016614213,0.2122,,,,,,169,0,169,0,1,,,,,
,,051151,001,2023-07-29_15h37.12.899,arm3_eps,2022.2.5,MacIntel,60.0024001,60ffd7de4dc3ea2bfd477a22,64c47140896c8c63e34c6d2f,64c515fda4e95dc51d9fc599,right,1,0.75,0.3071,14,0.000832908,0.215,,,,,,170,0,170,0,1,,,,,
,,051151,001,2023-07-29_15h37.12.899,arm3_eps,2022.2.5,MacIntel,60.0024001,60ffd7de4dc3ea2bfd477a22,64c47140896c8c63e34c6d2f,64c515fda4e95dc51d9fc599,right,1,0.75,0.3071,14,0.000386174,0.2018,,,,,,171,0,171,0,1,,,,,
,,051151,001,2023-07-29_15h37.12.899,arm3_eps,2022.2.5,MacIntel,60.0024001,60ffd7de4dc3ea2bfd477a22,64c47140896c8c63e34c6d2f,64c515fda4e95dc51d9fc599,right,1,0.75,0.3071,14,0.030554541,0.2683,,,,,,172,0,172,0,1,,,,,
,,051151,001,2023-07-29_15h37.12.899,arm3_eps,2022.2.5,MacIntel,60.0024001,60ffd7de4dc3ea2bfd477a22,64c47140896c8c63e34c6d2f,64c515fda4e95dc51d9fc599,right,1,0.75,0.3071,14,0.023638036,0.3508,,,,,,173,0,173,0,1,,,,,
,,051151,001,2023-07-29_15h37.12.899,arm3_eps,2022.2.5,MacIntel,60.0024001,60ffd7de4dc3ea2bfd477a22,64c47140896c8c63e34c6d2f,64c515fda4e95dc51d9fc599,right,1,0.75,0.3071,14,0.017637262,0.3662,,,,,,174,0,174,0,1,,,,,
,,051151,001,2023-07-29_15h37.12.899,arm3_eps,2022.2.5,MacIntel,60.0024001,60ffd7de4dc3ea2bfd477a22,64c47140896c8c63e34c6d2f,64c515fda4e95dc51d9fc599,right,1,0.75,0.3071,14,0.044545768,0.4485,,,,,,175,0,175,0,1,,,,,
,,051151,001,2023-07-29_15h37.12.899,arm3_eps,2022.2.5,MacIntel,60.0024001,60ffd7de4dc3ea2bfd477a22,64c47140896c8c63e34c6d2f,64c515fda4e95dc51d9fc599,right,1,0.75,0.3071,14,0.046523801,0.3836,,,,,,176,0,176,0,1,,,,,
,,051151,001,2023-07-29_15h37.12.899,arm3_eps,2022.2.5,MacIntel,60.0024001,60ffd7de4dc3ea2bfd477a22,64c47140896c8c63e34c6d2f,64c515fda4e95dc51d9fc599,up,1,0.75,0.3071,15,0,0.5188,,,,,,177,0,177,0,1,,,,,
,,051151,001,2023-07-29_15h37.12.899,arm3_eps,2022.2.5,MacIntel,60.0024001,60ffd7de4dc3ea2bfd477a22,64c47140896c8c63e34c6d2f,64c515fda4e95dc51d9fc599,right,1,0.75,0.3071,15,-0.013561532,0.7669,,,,,,178,0,178,0,1,,,,,
,,051151,001,2023-07-29_15h37.12.899,arm3_eps,2022.2.5,MacIntel,60.0024001,60ffd7de4dc3ea2bfd477a22,64c47140896c8c63e34c6d2f,64c515fda4e95dc51d9fc599,right,1,0.75,0.3071,15,-0.004013889,0.2285,,,,,,179,0,179,0,1,,,,,
,,051151,001,2023-07-29_15h37.12.899,arm3_eps,2022.2.5,MacIntel,60.0024001,60ffd7de4dc3ea2bfd477a22,64c47140896c8c63e34c6d2f,64c515fda4e95dc51d9fc599,right,1,0.75,0.3071,15,0.0127349,0.1995,,,,,,180,0,180,0,1,,,,,
,,051151,001,2023-07-29_15h37.12.899,arm3_eps,2022.2.5,MacIntel,60.0024001,60ffd7de4dc3ea2bfd477a22,64c47140896c8c63e34c6d2f,64c515fda4e95dc51d9fc599,right,1,0.75,0.3071,15,0.022901367,0.216,,,,,,181,0,181,0,1,,,,,
,,051151,001,2023-07-29_15h37.12.899,arm3_eps,2022.2.5,MacIntel,60.0024001,60ffd7de4dc3ea2bfd477a22,64c47140896c8c63e34c6d2f,64c515fda4e95dc51d9fc599,right,1,0.75,0.3071,15,0.038891764,0.2019,,,,,,182,0,182,0,1,,,,,
,,051151,001,2023-07-29_15h37.12.899,arm3_eps,2022.2.5,MacIntel,60.0024001,60ffd7de4dc3ea2bfd477a22,64c47140896c8c63e34c6d2f,64c515fda4e95dc51d9fc599,up,-1,0.75,0.3071,15,0,0.4174,,,,,,183,0,183,0,1,,,,,
,,051151,001,2023-07-29_15h37.12.899,arm3_eps,2022.2.5,MacIntel,60.0024001,60ffd7de4dc3ea2bfd477a22,64c47140896c8c63e34c6d2f,64c515fda4e95dc51d9fc599,right,-1,0.75,0.3071,15,-0.00330997,0.7315,,,,,,184,0,184,0,1,,,,,
,,051151,001,2023-07-29_15h37.12.899,arm3_eps,2022.2.5,MacIntel,60.0024001,60ffd7de4dc3ea2bfd477a22,64c47140896c8c63e34c6d2f,64c515fda4e95dc51d9fc599,right,-1,0.75,0.3071,15,-0.022342336,0.2494,,,,,,185,0,185,0,1,,,,,
,,051151,001,2023-07-29_15h37.12.899,arm3_eps,2022.2.5,MacIntel,60.0024001,60ffd7de4dc3ea2bfd477a22,64c47140896c8c63e34c6d2f,64c515fda4e95dc51d9fc599,right,-1,0.75,0.3071,15,-0.069490433,0.1984,,,,,,186,0,186,0,1,,,,,
,,051151,001,2023-07-29_15h37.12.899,arm3_eps,2022.2.5,MacIntel,60.0024001,60ffd7de4dc3ea2bfd477a22,64c47140896c8c63e34c6d2f,64c515fda4e95dc51d9fc599,right,-1,0.75,0.3071,15,-0.076369976,0.2319,,,,,,187,0,187,0,1,,,,,
,,051151,001,2023-07-29_15h37.12.899,arm3_eps,2022.2.5,MacIntel,60.0024001,60ffd7de4dc3ea2bfd477a22,64c47140896c8c63e34c6d2f,64c515fda4e95dc51d9fc599,right,-1,0.75,0.3071,15,-0.10698076,0.2001,,,,,,188,0,188,0,1,,,,,
,,051151,001,2023-07-29_15h37.12.899,arm3_eps,2022.2.5,MacIntel,60.0024001,60ffd7de4dc3ea2bfd477a22,64c47140896c8c63e34c6d2f,64c515fda4e95dc51d9fc599,down,-1,0.75,0.3071,15,0,0.3816,,,,,,189,0,189,0,1,,,,,
,,051151,001,2023-07-29_15h37.12.899,arm3_eps,2022.2.5,MacIntel,60.0024001,60ffd7de4dc3ea2bfd477a22,64c47140896c8c63e34c6d2f,64c515fda4e95dc51d9fc599,right,-1,0.75,0.3071,15,0.012338148,0.815,,,,,,190,0,190,0,1,,,,,
,,051151,001,2023-07-29_15h37.12.899,arm3_eps,2022.2.5,MacIntel,60.0024001,60ffd7de4dc3ea2bfd477a22,64c47140896c8c63e34c6d2f,64c515fda4e95dc51d9fc599,right,-1,0.75,0.3071,15,0.031892812,0.301,,,,,,191,0,191,0,1,,,,,
,,051151,001,2023-07-29_15h37.12.899,arm3_eps,2022.2.5,MacIntel,60.0024001,60ffd7de4dc3ea2bfd477a22,64c47140896c8c63e34c6d2f,64c515fda4e95dc51d9fc599,right,-1,0.75,0.3071,15,0.044368816,0.3521,,,,,,192,0,192,0,1,,,,,
,,051151,001,2023-07-29_15h37.12.899,arm3_eps,2022.2.5,MacIntel,60.0024001,60ffd7de4dc3ea2bfd477a22,64c47140896c8c63e34c6d2f,64c515fda4e95dc51d9fc599,right,-1,0.75,0.3071,15,0.037130404,0.3659,,,,,,193,0,193,0,1,,,,,
,,051151,001,2023-07-29_15h37.12.899,arm3_eps,2022.2.5,MacIntel,60.0024001,60ffd7de4dc3ea2bfd477a22,64c47140896c8c63e34c6d2f,64c515fda4e95dc51d9fc599,right,-1,0.75,0.3071,15,0.037272344,0.2857,,,,,,194,0,194,0,1,,,,,
,,051151,001,2023-07-29_15h37.12.899,arm3_eps,2022.2.5,MacIntel,60.0024001,60ffd7de4dc3ea2bfd477a22,64c47140896c8c63e34c6d2f,64c515fda4e95dc51d9fc599,right,-1,0.75,0.3071,15,0.02971219,0.4348,,,,,,195,0,195,0,1,,,,,
,,051151,001,2023-07-29_15h37.12.899,arm3_eps,2022.2.5,MacIntel,60.0024001,60ffd7de4dc3ea2bfd477a22,64c47140896c8c63e34c6d2f,64c515fda4e95dc51d9fc599,right,-1,0.75,0.3071,15,0.007645647,0.3683,,,,,,196,0,196,0,1,,,,,
,,051151,001,2023-07-29_15h37.12.899,arm3_eps,2022.2.5,MacIntel,60.0024001,60ffd7de4dc3ea2bfd477a22,64c47140896c8c63e34c6d2f,64c515fda4e95dc51d9fc599,right,-1,0.75,0.3071,15,0.03935797,0.4983,,,,,,197,0,197,0,1,,,,,
,,051151,001,2023-07-29_15h37.12.899,arm3_eps,2022.2.5,MacIntel,60.0024001,60ffd7de4dc3ea2bfd477a22,64c47140896c8c63e34c6d2f,64c515fda4e95dc51d9fc599,right,-1,0.75,0.3071,15,0.032034866,0.4661,,,,,,198,0,198,0,1,,,,,
,,051151,001,2023-07-29_15h37.12.899,arm3_eps,2022.2.5,MacIntel,60.0024001,60ffd7de4dc3ea2bfd477a22,64c47140896c8c63e34c6d2f,64c515fda4e95dc51d9fc599,right,-1,0.75,0.3071,15,-0.004555876,0.5846,,,,,,199,0,199,0,1,,,,,
,,051151,001,2023-07-29_15h37.12.899,arm3_eps,2022.2.5,MacIntel,60.0024001,60ffd7de4dc3ea2bfd477a22,64c47140896c8c63e34c6d2f,64c515fda4e95dc51d9fc599,right,-1,0.75,0.3071,15,0.009064245,0.5829,,,,,,200,0,200,0,1,,,,,
,,051151,001,2023-07-29_15h37.12.899,arm3_eps,2022.2.5,MacIntel,60.0024001,60ffd7de4dc3ea2bfd477a22,64c47140896c8c63e34c6d2f,64c515fda4e95dc51d9fc599,right,-1,0.75,0.3071,15,0.00094016,1.0322,,,,,,201,0,201,0,1,,,,,
,,051151,001,2023-07-29_15h37.12.899,arm3_eps,2022.2.5,MacIntel,60.0024001,60ffd7de4dc3ea2bfd477a22,64c47140896c8c63e34c6d2f,64c515fda4e95dc51d9fc599,down,-1,0.75,0.3071,16,0,0.5838,,,,,,202,0,202,0,1,,,,,
,,051151,001,2023-07-29_15h37.12.899,arm3_eps,2022.2.5,MacIntel,60.0024001,60ffd7de4dc3ea2bfd477a22,64c47140896c8c63e34c6d2f,64c515fda4e95dc51d9fc599,right,-1,0.75,0.3071,16,0.00788093,0.7815,,,,,,203,0,203,0,1,,,,,
,,051151,001,2023-07-29_15h37.12.899,arm3_eps,2022.2.5,MacIntel,60.0024001,60ffd7de4dc3ea2bfd477a22,64c47140896c8c63e34c6d2f,64c515fda4e95dc51d9fc599,right,-1,0.75,0.3071,16,0.014984055,0.1938,,,,,,204,0,204,0,1,,,,,
,,051151,001,2023-07-29_15h37.12.899,arm3_eps,2022.2.5,MacIntel,60.0024001,60ffd7de4dc3ea2bfd477a22,64c47140896c8c63e34c6d2f,64c515fda4e95dc51d9fc599,right,-1,0.75,0.3071,16,0.012416348,0.1825,,,,,,205,0,205,0,1,,,,,
,,051151,001,2023-07-29_15h37.12.899,arm3_eps,2022.2.5,MacIntel,60.0024001,60ffd7de4dc3ea2bfd477a22,64c47140896c8c63e34c6d2f,64c515fda4e95dc51d9fc599,right,-1,0.75,0.3071,16,0.002442145,0.1991,,,,,,206,0,206,0,1,,,,,
,,051151,001,2023-07-29_15h37.12.899,arm3_eps,2022.2.5,MacIntel,60.0024001,60ffd7de4dc3ea2bfd477a22,64c47140896c8c63e34c6d2f,64c515fda4e95dc51d9fc599,right,-1,0.75,0.3071,16,-0.002318359,0.1828,,,,,,207,0,207,0,1,,,,,
,,051151,001,2023-07-29_15h37.12.899,arm3_eps,2022.2.5,MacIntel,60.0024001,60ffd7de4dc3ea2bfd477a22,64c47140896c8c63e34c6d2f,64c515fda4e95dc51d9fc599,right,-1,0.75,0.3071,16,0.010900652,0.1855,,,,,,208,0,208,0,1,,,,,
,,051151,001,2023-07-29_15h37.12.899,arm3_eps,2022.2.5,MacIntel,60.0024001,60ffd7de4dc3ea2bfd477a22,64c47140896c8c63e34c6d2f,64c515fda4e95dc51d9fc599,right,-1,0.75,0.3071,16,-0.01563225,0.2148,,,,,,209,0,209,0,1,,,,,
,,051151,001,2023-07-29_15h37.12.899,arm3_eps,2022.2.5,MacIntel,60.0024001,60ffd7de4dc3ea2bfd477a22,64c47140896c8c63e34c6d2f,64c515fda4e95dc51d9fc599,right,-1,0.75,0.3071,16,-0.032718235,0.2166,,,,,,210,0,210,0,1,,,,,
,,051151,001,2023-07-29_15h37.12.899,arm3_eps,2022.2.5,MacIntel,60.0024001,60ffd7de4dc3ea2bfd477a22,64c47140896c8c63e34c6d2f,64c515fda4e95dc51d9fc599,right,-1,0.75,0.3071,16,-0.045145051,0.452,,,,,,211,0,211,0,1,,,,,
,,051151,001,2023-07-29_15h37.12.899,arm3_eps,2022.2.5,MacIntel,60.0024001,60ffd7de4dc3ea2bfd477a22,64c47140896c8c63e34c6d2f,64c515fda4e95dc51d9fc599,right,-1,0.75,0.3071,16,-0.03528088,0.7666,,,,,,212,0,212,0,1,,,,,
,,051151,001,2023-07-29_15h37.12.899,arm3_eps,2022.2.5,MacIntel,60.0024001,60ffd7de4dc3ea2bfd477a22,64c47140896c8c63e34c6d2f,64c515fda4e95dc51d9fc599,right,-1,0.75,0.3071,16,-0.054872944,0.4168,,,,,,213,0,213,0,1,,,,,
,,051151,001,2023-07-29_15h37.12.899,arm3_eps,2022.2.5,MacIntel,60.0024001,60ffd7de4dc3ea2bfd477a22,64c47140896c8c63e34c6d2f,64c515fda4e95dc51d9fc599,down,-1,0.75,0.3071,17,0,0.4004,,,,,,214,0,214,0,1,,,,,
,,051151,001,2023-07-29_15h37.12.899,arm3_eps,2022.2.5,MacIntel,60.0024001,60ffd7de4dc3ea2bfd477a22,64c47140896c8c63e34c6d2f,64c515fda4e95dc51d9fc599,right,-1,0.75,0.3071,17,-0.021363298,0.7832,,,,,,215,0,215,0,1,,,,,
,,051151,001,2023-07-29_15h37.12.899,arm3_eps,2022.2.5,MacIntel,60.0024001,60ffd7de4dc3ea2bfd477a22,64c47140896c8c63e34c6d2f,64c515fda4e95dc51d9fc599,right,-1,0.75,0.3071,17,-0.014172884,0.1648,,,,,,216,0,216,0,1,,,,,
,,051151,001,2023-07-29_15h37.12.899,arm3_eps,2022.2.5,MacIntel,60.0024001,60ffd7de4dc3ea2bfd477a22,64c47140896c8c63e34c6d2f,64c515fda4e95dc51d9fc599,right,-1,0.75,0.3071,17,-0.045720827,0.1836,,,,,,217,0,217,0,1,,,,,
,,051151,001,2023-07-29_15h37.12.899,arm3_eps,2022.2.5,MacIntel,60.0024001,60ffd7de4dc3ea2bfd477a22,64c47140896c8c63e34c6d2f,64c515fda4e95dc51d9fc599,right,-1,0.75,0.3071,17,-0.074956877,0.1836,,,,,,218,0,218,0,1,,,,,
,,051151,001,2023-07-29_15h37.12.899,arm3_eps,2022.2.5,MacIntel,60.0024001,60ffd7de4dc3ea2bfd477a22,64c47140896c8c63e34c6d2f,64c515fda4e95dc51d9fc599,right,-1,0.75,0.3071,17,-0.081521959,0.2032,,,,,,219,0,219,0,1,,,,,
,,051151,001,2023-07-29_15h37.12.899,arm3_eps,2022.2.5,MacIntel,60.0024001,60ffd7de4dc3ea2bfd477a22,64c47140896c8c63e34c6d2f,64c515fda4e95dc51d9fc599,right,-1,0.75,0.3071,17,-0.079513472,0.1677,,,,,,220,0,220,0,1,,,,,
,,051151,001,2023-07-29_15h37.12.899,arm3_eps,2022.2.5,MacIntel,60.0024001,60ffd7de4dc3ea2bfd477a22,64c47140896c8c63e34c6d2f,64c515fda4e95dc51d9fc599,down,1,0.75,0.3071,18,0,0.4335,,,,,,221,0,221,0,1,,,,,
,,051151,001,2023-07-29_15h37.12.899,arm3_eps,2022.2.5,MacIntel,60.0024001,60ffd7de4dc3ea2bfd477a22,64c47140896c8c63e34c6d2f,64c515fda4e95dc51d9fc599,right,1,0.75,0.3071,18,-0.019011558,0.8159,,,,,,222,0,222,0,1,,,,,
,,051151,001,2023-07-29_15h37.12.899,arm3_eps,2022.2.5,MacIntel,60.0024001,60ffd7de4dc3ea2bfd477a22,64c47140896c8c63e34c6d2f,64c515fda4e95dc51d9fc599,right,1,0.75,0.3071,18,-0.01104395,0.2009,,,,,,223,0,223,0,1,,,,,
,,051151,001,2023-07-29_15h37.12.899,arm3_eps,2022.2.5,MacIntel,60.0024001,60ffd7de4dc3ea2bfd477a22,64c47140896c8c63e34c6d2f,64c515fda4e95dc51d9fc599,right,1,0.75,0.3071,18,0.029656861,0.7163,,,,,,224,0,224,0,1,,,,,
,,051151,001,2023-07-29_15h37.12.899,arm3_eps,2022.2.5,MacIntel,60.0024001,60ffd7de4dc3ea2bfd477a22,64c47140896c8c63e34c6d2f,64c515fda4e95dc51d9fc599,right,1,0.75,0.3071,18,0.070953427,0.333,,,,,,225,0,225,0,1,,,,,
,,051151,001,2023-07-29_15h37.12.899,arm3_eps,2022.2.5,MacIntel,60.0024001,60ffd7de4dc3ea2bfd477a22,64c47140896c8c63e34c6d2f,64c515fda4e95dc51d9fc599,down,-1,0.75,0.3071,17,0,0.4652,,,,,,226,0,226,0,1,,,,,
,,051151,001,2023-07-29_15h37.12.899,arm3_eps,2022.2.5,MacIntel,60.0024001,60ffd7de4dc3ea2bfd477a22,64c47140896c8c63e34c6d2f,64c515fda4e95dc51d9fc599,up,1,0.75,0.3071,16,0,0.062,,,,,,227,0,227,0,1,,,,,
,,051151,001,2023-07-29_15h37.12.899,arm3_eps,2022.2.5,MacIntel,60.0024001,60ffd7de4dc3ea2bfd477a22,64c47140896c8c63e34c6d2f,64c515fda4e95dc51d9fc599,right,1,0.75,0.3071,16,0.005047233,1.0672,,,,,,228,0,228,0,1,,,,,
,,051151,001,2023-07-29_15h37.12.899,arm3_eps,2022.2.5,MacIntel,60.0024001,60ffd7de4dc3ea2bfd477a22,64c47140896c8c63e34c6d2f,64c515fda4e95dc51d9fc599,right,1,0.75,0.3071,16,0.039880618,0.2174,,,,,,229,0,229,0,1,,,,,
,,051151,001,2023-07-29_15h37.12.899,arm3_eps,2022.2.5,MacIntel,60.0024001,60ffd7de4dc3ea2bfd477a22,64c47140896c8c63e34c6d2f,64c515fda4e95dc51d9fc599,right,1,0.75,0.3071,16,0.030959278,0.1995,,,,,,230,0,230,0,1,,,,,
,,051151,001,2023-07-29_15h37.12.899,arm3_eps,2022.2.5,MacIntel,60.0024001,60ffd7de4dc3ea2bfd477a22,64c47140896c8c63e34c6d2f,64c515fda4e95dc51d9fc599,right,1,0.75,0.3071,16,0.040716005,0.3485,,,,,,231,0,231,0,1,,,,,
,,051151,001,2023-07-29_15h37.12.899,arm3_eps,2022.2.5,MacIntel,60.0024001,60ffd7de4dc3ea2bfd477a22,64c47140896c8c63e34c6d2f,64c515fda4e95dc51d9fc599,up,1,0.75,0.3071,17,0,0.2772,,,,,,232,0,232,0,1,,,,,
,,051151,001,2023-07-29_15h37.12.899,arm3_eps,2022.2.5,MacIntel,60.0024001,60ffd7de4dc3ea2bfd477a22,64c47140896c8c63e34c6d2f,64c515fda4e95dc51d9fc599,right,1,0.75,0.3071,17,0.027693026,0.7972,,,,,,233,0,233,0,1,,,,,
,,051151,001,2023-07-29_15h37.12.899,arm3_eps,2022.2.5,MacIntel,60.0024001,60ffd7de4dc3ea2bfd477a22,64c47140896c8c63e34c6d2f,64c515fda4e95dc51d9fc599,right,1,0.75,0.3071,17,0.064512343,0.2871,,,,,,234,0,234,0,1,,,,,
,,051151,001,2023-07-29_15h37.12.899,arm3_eps,2022.2.5,MacIntel,60.0024001,60ffd7de4dc3ea2bfd477a22,64c47140896c8c63e34c6d2f,64c515fda4e95dc51d9fc599,right,1,0.75,0.3071,17,0.044648817,0.3834,,,,,,235,0,235,0,1,,,,,
,,051151,001,2023-07-29_15h37.12.899,arm3_eps,2022.2.5,MacIntel,60.0024001,60ffd7de4dc3ea2bfd477a22,64c47140896c8c63e34c6d2f,64c515fda4e95dc51d9fc599,up,1,0.75,0.3071,18,0,0.402,,,,,,236,0,236,0,1,,,,,
,,051151,001,2023-07-29_15h37.12.899,arm3_eps,2022.2.5,MacIntel,60.0024001,60ffd7de4dc3ea2bfd477a22,64c47140896c8c63e34c6d2f,64c515fda4e95dc51d9fc599,right,1,0.75,0.3071,18,0.027449714,0.7836,,,,,,237,0,237,0,1,,,,,
,,051151,001,2023-07-29_15h37.12.899,arm3_eps,2022.2.5,MacIntel,60.0024001,60ffd7de4dc3ea2bfd477a22,64c47140896c8c63e34c6d2f,64c515fda4e95dc51d9fc599,right,1,0.75,0.3071,18,0.035344219,0.2835,,,,,,238,0,238,0,1,,,,,
,,051151,001,2023-07-29_15h37.12.899,arm3_eps,2022.2.5,MacIntel,60.0024001,60ffd7de4dc3ea2bfd477a22,64c47140896c8c63e34c6d2f,64c515fda4e95dc51d9fc599,right,1,0.75,0.3071,18,0.025593521,0.3345,,,,,,239,0,239,0,1,,,,,
,,051151,001,2023-07-29_15h37.12.899,arm3_eps,2022.2.5,MacIntel,60.0024001,60ffd7de4dc3ea2bfd477a22,64c47140896c8c63e34c6d2f,64c515fda4e95dc51d9fc599,up,-1,0.75,0.3071,19,0,0.5839,,,,,,240,0,240,0,1,,,,,
,,051151,001,2023-07-29_15h37.12.899,arm3_eps,2022.2.5,MacIntel,60.0024001,60ffd7de4dc3ea2bfd477a22,64c47140896c8c63e34c6d2f,64c515fda4e95dc51d9fc599,right,-1,0.75,0.3071,19,-0.004819045,0.7919,,,,,,241,0,241,0,1,,,,,
,,051151,001,2023-07-29_15h37.12.899,arm3_eps,2022.2.5,MacIntel,60.0024001,60ffd7de4dc3ea2bfd477a22,64c47140896c8c63e34c6d2f,64c515fda4e95dc51d9fc599,right,-1,0.75,0.3071,19,-0.004999249,0.4012,,,,,,242,0,242,0,1,,,,,
,,051151,001,2023-07-29_15h37.12.899,arm3_eps,2022.2.5,MacIntel,60.0024001,60ffd7de4dc3ea2bfd477a22,64c47140896c8c63e34c6d2f,64c515fda4e95dc51d9fc599,right,-1,0.75,0.3071,19,-0.049222538,0.4999,,,,,,243,0,243,0,1,,,,,
,,051151,001,2023-07-29_15h37.12.899,arm3_eps,2022.2.5,MacIntel,60.0024001,60ffd7de4dc3ea2bfd477a22,64c47140896c8c63e34c6d2f,64c515fda4e95dc51d9fc599,right,-1,0.75,0.3071,19,-0.06528741,0.3489,,,,,,244,0,244,0,1,,,,,
,,051151,001,2023-07-29_15h37.12.899,arm3_eps,2022.2.5,MacIntel,60.0024001,60ffd7de4dc3ea2bfd477a22,64c47140896c8c63e34c6d2f,64c515fda4e95dc51d9fc599,down,1,0.75,0.3071,20,0,0.2848,,,,,,245,0,245,0,1,,,,,
,,051151,001,2023-07-29_15h37.12.899,arm3_eps,2022.2.5,MacIntel,60.0024001,60ffd7de4dc3ea2bfd477a22,64c47140896c8c63e34c6d2f,64c515fda4e95dc51d9fc599,right,1,0.75,0.3071,20,0.04698289,0.7497,,,,,,246,0,246,0,1,,,,,
,,051151,001,2023-07-29_15h37.12.899,arm3_eps,2022.2.5,MacIntel,60.0024001,60ffd7de4dc3ea2bfd477a22,64c47140896c8c63e34c6d2f,64c515fda4e95dc51d9fc599,right,1,0.75,0.3071,20,0.068842853,0.283,,,,,,247,0,247,0,1,,,,,
,,051151,001,2023-07-29_15h37.12.899,arm3_eps,2022.2.5,MacIntel,60.0024001,60ffd7de4dc3ea2bfd477a22,64c47140896c8c63e34c6d2f,64c515fda4e95dc51d9fc599,right,1,0.75,0.3071,20,0.053569826,0.6832,,,,,,248,0,248,0,1,,,,,
,,051151,001,2023-07-29_15h37.12.899,arm3_eps,2022.2.5,MacIntel,60.0024001,60ffd7de4dc3ea2bfd477a22,64c47140896c8c63e34c6d2f,64c515fda4e95dc51d9fc599,up,1,0.75,0.3071,20,0,0.46,,,,,,249,0,249,0,1,,,,,
,,051151,001,2023-07-29_15h37.12.899,arm3_eps,2022.2.5,MacIntel,60.0024001,60ffd7de4dc3ea2bfd477a22,64c47140896c8c63e34c6d2f,64c515fda4e95dc51d9fc599,right,1,0.75,0.3071,20,0.010713684,0.7589,,,,,,250,0,250,0,1,,,,,
