space_bar.keys,space_bar.rt,participant,session,date,expName,psychopyVersion,OS,frameRate,PROLIFIC_PID,STUDY_ID,SESSION_ID,resp.keys,state,q_prob,eps_prob,score,price,resp.rt,train.thisRepN,train.thisTrialN,train.thisN,train.thisIndex,train.ran,steps.thisRepN,steps.thisTrialN,steps.thisN,steps.thisIndex,steps.ran,blocks.thisRepN,blocks.thisTrialN,blocks.thisN,blocks.thisIndex,blocks.ran
space,3.0545,078340,001,2023-07-31_21h48.42.369,arm3_eps,2022.2.5,Win32,8.569200579,61070ae8d3d60051894d043d,64c7fed44a04f777bb1e18ce,64c800bc00ce96ea23f42cd4,,,,,,,,,,,,,,,,,,,,,,
space,1.0402,078340,001,2023-07-31_21h48.42.369,arm3_eps,2022.2.5,Win32,8.569200579,61070ae8d3d60051894d043d,64c7fed44a04f777bb1e18ce,64c800bc00ce96ea23f42cd4,,,,,,,,,,,,,,,,,,,,,,
space,1.4594,078340,001,2023-07-31_21h48.42.369,arm3_eps,2022.2.5,Win32,8.569200579,61070ae8d3d60051894d043d,64c7fed44a04f777bb1e18ce,64c800bc00ce96ea23f42cd4,,,,,,,,,,,,,,,,,,,,,,
space,0.6881,078340,001,2023-07-31_21h48.42.369,arm3_eps,2022.2.5,Win32,8.569200579,61070ae8d3d60051894d043d,64c7fed44a04f777bb1e18ce,64c800bc00ce96ea23f42cd4,,,,,,,,,,,,,,,,,,,,,,
space,0.3224,078340,001,2023-07-31_21h48.42.369,arm3_eps,2022.2.5,Win32,8.569200579,61070ae8d3d60051894d043d,64c7fed44a04f777bb1e18ce,64c800bc00ce96ea23f42cd4,,,,,,,,,,,,,,,,,,,,,,
space,0.3333,078340,001,2023-07-31_21h48.42.369,arm3_eps,2022.2.5,Win32,8.569200579,61070ae8d3d60051894d043d,64c7fed44a04f777bb1e18ce,64c800bc00ce96ea23f42cd4,,,,,,,,,,,,,,,,,,,,,,
space,0.4865,078340,001,2023-07-31_21h48.42.369,arm3_eps,2022.2.5,Win32,8.569200579,61070ae8d3d60051894d043d,64c7fed44a04f777bb1e18ce,64c800bc00ce96ea23f42cd4,,,,,,,,,,,,,,,,,,,,,,
,,078340,001,2023-07-31_21h48.42.369,arm3_eps,2022.2.5,Win32,8.569200579,61070ae8d3d60051894d043d,64c7fed44a04f777bb1e18ce,64c800bc00ce96ea23f42cd4,right,1,1,0.2429,0,0.021398597,1.925,0,0,0,0,1,,,,,,,,,,
,,078340,001,2023-07-31_21h48.42.369,arm3_eps,2022.2.5,Win32,8.569200579,61070ae8d3d60051894d043d,64c7fed44a04f777bb1e18ce,64c800bc00ce96ea23f42cd4,right,1,1,0.2429,0,-0.022468664,0.4144,1,0,1,0,1,,,,,,,,,,
,,078340,001,2023-07-31_21h48.42.369,arm3_eps,2022.2.5,Win32,8.569200579,61070ae8d3d60051894d043d,64c7fed44a04f777bb1e18ce,64c800bc00ce96ea23f42cd4,up,1,1,0.2429,1,0,0.9337,2,0,2,0,1,,,,,,,,,,
,,078340,001,2023-07-31_21h48.42.369,arm3_eps,2022.2.5,Win32,8.569200579,61070ae8d3d60051894d043d,64c7fed44a04f777bb1e18ce,64c800bc00ce96ea23f42cd4,right,1,1,0.2429,1,-0.002269336,0.594,3,0,3,0,1,,,,,,,,,,
,,078340,001,2023-07-31_21h48.42.369,arm3_eps,2022.2.5,Win32,8.569200579,61070ae8d3d60051894d043d,64c7fed44a04f777bb1e18ce,64c800bc00ce96ea23f42cd4,right,1,1,0.2429,1,-0.020796784,0.2341,4,0,4,0,1,,,,,,,,,,
,,078340,001,2023-07-31_21h48.42.369,arm3_eps,2022.2.5,Win32,8.569200579,61070ae8d3d60051894d043d,64c7fed44a04f777bb1e18ce,64c800bc00ce96ea23f42cd4,down,1,1,0.2429,0,0,0.3537,5,0,5,0,1,,,,,,,,,,
,,078340,001,2023-07-31_21h48.42.369,arm3_eps,2022.2.5,Win32,8.569200579,61070ae8d3d60051894d043d,64c7fed44a04f777bb1e18ce,64c800bc00ce96ea23f42cd4,right,1,1,0.2429,0,-0.000454706,0.432,6,0,6,0,1,,,,,,,,,,
,,078340,001,2023-07-31_21h48.42.369,arm3_eps,2022.2.5,Win32,8.569200579,61070ae8d3d60051894d043d,64c7fed44a04f777bb1e18ce,64c800bc00ce96ea23f42cd4,right,1,1,0.2429,0,0.013086178,0.29,7,0,7,0,1,,,,,,,,,,
,,078340,001,2023-07-31_21h48.42.369,arm3_eps,2022.2.5,Win32,8.569200579,61070ae8d3d60051894d043d,64c7fed44a04f777bb1e18ce,64c800bc00ce96ea23f42cd4,up,1,1,0.2429,1,0,0.3674,8,0,8,0,1,,,,,,,,,,
,,078340,001,2023-07-31_21h48.42.369,arm3_eps,2022.2.5,Win32,8.569200579,61070ae8d3d60051894d043d,64c7fed44a04f777bb1e18ce,64c800bc00ce96ea23f42cd4,right,1,1,0.2429,1,0.016142144,0.4112,9,0,9,0,1,,,,,,,,,,
,,078340,001,2023-07-31_21h48.42.369,arm3_eps,2022.2.5,Win32,8.569200579,61070ae8d3d60051894d043d,64c7fed44a04f777bb1e18ce,64c800bc00ce96ea23f42cd4,right,1,1,0.2429,1,0.031989959,0.3104,10,0,10,0,1,,,,,,,,,,
,,078340,001,2023-07-31_21h48.42.369,arm3_eps,2022.2.5,Win32,8.569200579,61070ae8d3d60051894d043d,64c7fed44a04f777bb1e18ce,64c800bc00ce96ea23f42cd4,right,1,1,0.2429,1,0.025420994,0.3686,11,0,11,0,1,,,,,,,,,,
,,078340,001,2023-07-31_21h48.42.369,arm3_eps,2022.2.5,Win32,8.569200579,61070ae8d3d60051894d043d,64c7fed44a04f777bb1e18ce,64c800bc00ce96ea23f42cd4,up,1,1,0.2429,2,0,0.3576,12,0,12,0,1,,,,,,,,,,
,,078340,001,2023-07-31_21h48.42.369,arm3_eps,2022.2.5,Win32,8.569200579,61070ae8d3d60051894d043d,64c7fed44a04f777bb1e18ce,64c800bc00ce96ea23f42cd4,right,1,1,0.2429,2,0.003912508,0.4308,13,0,13,0,1,,,,,,,,,,
,,078340,001,2023-07-31_21h48.42.369,arm3_eps,2022.2.5,Win32,8.569200579,61070ae8d3d60051894d043d,64c7fed44a04f777bb1e18ce,64c800bc00ce96ea23f42cd4,right,1,1,0.2429,2,0.020528511,0.2717,14,0,14,0,1,,,,,,,,,,
,,078340,001,2023-07-31_21h48.42.369,arm3_eps,2022.2.5,Win32,8.569200579,61070ae8d3d60051894d043d,64c7fed44a04f777bb1e18ce,64c800bc00ce96ea23f42cd4,right,1,1,0.2429,2,0.023163827,0.2617,15,0,15,0,1,,,,,,,,,,
,,078340,001,2023-07-31_21h48.42.369,arm3_eps,2022.2.5,Win32,8.569200579,61070ae8d3d60051894d043d,64c7fed44a04f777bb1e18ce,64c800bc00ce96ea23f42cd4,up,1,1,0.2429,3,0,0.2967,16,0,16,0,1,,,,,,,,,,
,,078340,001,2023-07-31_21h48.42.369,arm3_eps,2022.2.5,Win32,8.569200579,61070ae8d3d60051894d043d,64c7fed44a04f777bb1e18ce,64c800bc00ce96ea23f42cd4,right,1,1,0.2429,3,0.001066843,0.3391,17,0,17,0,1,,,,,,,,,,
,,078340,001,2023-07-31_21h48.42.369,arm3_eps,2022.2.5,Win32,8.569200579,61070ae8d3d60051894d043d,64c7fed44a04f777bb1e18ce,64c800bc00ce96ea23f42cd4,right,1,1,0.2429,3,-0.025459097,0.2505,18,0,18,0,1,,,,,,,,,,
,,078340,001,2023-07-31_21h48.42.369,arm3_eps,2022.2.5,Win32,8.569200579,61070ae8d3d60051894d043d,64c7fed44a04f777bb1e18ce,64c800bc00ce96ea23f42cd4,right,1,1,0.2429,3,-0.014798983,0.2666,19,0,19,0,1,,,,,,,,,,
,,078340,001,2023-07-31_21h48.42.369,arm3_eps,2022.2.5,Win32,8.569200579,61070ae8d3d60051894d043d,64c7fed44a04f777bb1e18ce,64c800bc00ce96ea23f42cd4,down,1,1,0.2429,2,0,0.2811,20,0,20,0,1,,,,,,,,,,
,,078340,001,2023-07-31_21h48.42.369,arm3_eps,2022.2.5,Win32,8.569200579,61070ae8d3d60051894d043d,64c7fed44a04f777bb1e18ce,64c800bc00ce96ea23f42cd4,right,1,1,0.2429,2,0.012433162,0.3045,21,0,21,0,1,,,,,,,,,,
,,078340,001,2023-07-31_21h48.42.369,arm3_eps,2022.2.5,Win32,8.569200579,61070ae8d3d60051894d043d,64c7fed44a04f777bb1e18ce,64c800bc00ce96ea23f42cd4,right,1,1,0.2429,2,-0.021641758,0.3609,22,0,22,0,1,,,,,,,,,,
,,078340,001,2023-07-31_21h48.42.369,arm3_eps,2022.2.5,Win32,8.569200579,61070ae8d3d60051894d043d,64c7fed44a04f777bb1e18ce,64c800bc00ce96ea23f42cd4,right,1,1,0.2429,2,-0.006389169,0.2595,23,0,23,0,1,,,,,,,,,,
,,078340,001,2023-07-31_21h48.42.369,arm3_eps,2022.2.5,Win32,8.569200579,61070ae8d3d60051894d043d,64c7fed44a04f777bb1e18ce,64c800bc00ce96ea23f42cd4,down,-1,1,0.2429,1,0,0.3493,24,0,24,0,1,,,,,,,,,,
,,078340,001,2023-07-31_21h48.42.369,arm3_eps,2022.2.5,Win32,8.569200579,61070ae8d3d60051894d043d,64c7fed44a04f777bb1e18ce,64c800bc00ce96ea23f42cd4,right,-1,1,0.2429,1,0.007564948,0.3312,25,0,25,0,1,,,,,,,,,,
,,078340,001,2023-07-31_21h48.42.369,arm3_eps,2022.2.5,Win32,8.569200579,61070ae8d3d60051894d043d,64c7fed44a04f777bb1e18ce,64c800bc00ce96ea23f42cd4,right,-1,1,0.2429,1,-0.00736419,0.273,26,0,26,0,1,,,,,,,,,,
,,078340,001,2023-07-31_21h48.42.369,arm3_eps,2022.2.5,Win32,8.569200579,61070ae8d3d60051894d043d,64c7fed44a04f777bb1e18ce,64c800bc00ce96ea23f42cd4,right,-1,1,0.2429,1,-0.015553491,0.296,27,0,27,0,1,,,,,,,,,,
,,078340,001,2023-07-31_21h48.42.369,arm3_eps,2022.2.5,Win32,8.569200579,61070ae8d3d60051894d043d,64c7fed44a04f777bb1e18ce,64c800bc00ce96ea23f42cd4,down,1,1,0.2429,2,0,0.5327,28,0,28,0,1,,,,,,,,,,
,,078340,001,2023-07-31_21h48.42.369,arm3_eps,2022.2.5,Win32,8.569200579,61070ae8d3d60051894d043d,64c7fed44a04f777bb1e18ce,64c800bc00ce96ea23f42cd4,right,1,1,0.2429,2,-0.003282754,0.2607,29,0,29,0,1,,,,,,,,,,
,,078340,001,2023-07-31_21h48.42.369,arm3_eps,2022.2.5,Win32,8.569200579,61070ae8d3d60051894d043d,64c7fed44a04f777bb1e18ce,64c800bc00ce96ea23f42cd4,right,1,1,0.2429,2,0.011628763,0.2698,30,0,30,0,1,,,,,,,,,,
,,078340,001,2023-07-31_21h48.42.369,arm3_eps,2022.2.5,Win32,8.569200579,61070ae8d3d60051894d043d,64c7fed44a04f777bb1e18ce,64c800bc00ce96ea23f42cd4,right,1,1,0.2429,2,0.039689603,0.3007,31,0,31,0,1,,,,,,,,,,
,,078340,001,2023-07-31_21h48.42.369,arm3_eps,2022.2.5,Win32,8.569200579,61070ae8d3d60051894d043d,64c7fed44a04f777bb1e18ce,64c800bc00ce96ea23f42cd4,up,1,1,0.2429,3,0,0.2799,32,0,32,0,1,,,,,,,,,,
,,078340,001,2023-07-31_21h48.42.369,arm3_eps,2022.2.5,Win32,8.569200579,61070ae8d3d60051894d043d,64c7fed44a04f777bb1e18ce,64c800bc00ce96ea23f42cd4,right,1,1,0.2429,3,0.013590581,0.3407,33,0,33,0,1,,,,,,,,,,
,,078340,001,2023-07-31_21h48.42.369,arm3_eps,2022.2.5,Win32,8.569200579,61070ae8d3d60051894d043d,64c7fed44a04f777bb1e18ce,64c800bc00ce96ea23f42cd4,right,1,1,0.2429,3,0.010345825,0.2641,34,0,34,0,1,,,,,,,,,,
,,078340,001,2023-07-31_21h48.42.369,arm3_eps,2022.2.5,Win32,8.569200579,61070ae8d3d60051894d043d,64c7fed44a04f777bb1e18ce,64c800bc00ce96ea23f42cd4,right,1,1,0.2429,3,0.030017708,0.2985,35,0,35,0,1,,,,,,,,,,
,,078340,001,2023-07-31_21h48.42.369,arm3_eps,2022.2.5,Win32,8.569200579,61070ae8d3d60051894d043d,64c7fed44a04f777bb1e18ce,64c800bc00ce96ea23f42cd4,up,-1,1,0.2429,4,0,0.2509,36,0,36,0,1,,,,,,,,,,
,,078340,001,2023-07-31_21h48.42.369,arm3_eps,2022.2.5,Win32,8.569200579,61070ae8d3d60051894d043d,64c7fed44a04f777bb1e18ce,64c800bc00ce96ea23f42cd4,right,-1,1,0.2429,4,-0.013828211,0.384,37,0,37,0,1,,,,,,,,,,
,,078340,001,2023-07-31_21h48.42.369,arm3_eps,2022.2.5,Win32,8.569200579,61070ae8d3d60051894d043d,64c7fed44a04f777bb1e18ce,64c800bc00ce96ea23f42cd4,right,-1,1,0.2429,4,-0.026484703,0.2691,38,0,38,0,1,,,,,,,,,,
,,078340,001,2023-07-31_21h48.42.369,arm3_eps,2022.2.5,Win32,8.569200579,61070ae8d3d60051894d043d,64c7fed44a04f777bb1e18ce,64c800bc00ce96ea23f42cd4,right,-1,1,0.2429,4,-0.05023436,0.2374,39,0,39,0,1,,,,,,,,,,
,,078340,001,2023-07-31_21h48.42.369,arm3_eps,2022.2.5,Win32,8.569200579,61070ae8d3d60051894d043d,64c7fed44a04f777bb1e18ce,64c800bc00ce96ea23f42cd4,down,-1,1,0.2429,5,0,0.7985,40,0,40,0,1,,,,,,,,,,
,,078340,001,2023-07-31_21h48.42.369,arm3_eps,2022.2.5,Win32,8.569200579,61070ae8d3d60051894d043d,64c7fed44a04f777bb1e18ce,64c800bc00ce96ea23f42cd4,right,-1,1,0.2429,5,-0.018807227,0.3734,41,0,41,0,1,,,,,,,,,,
,,078340,001,2023-07-31_21h48.42.369,arm3_eps,2022.2.5,Win32,8.569200579,61070ae8d3d60051894d043d,64c7fed44a04f777bb1e18ce,64c800bc00ce96ea23f42cd4,right,-1,1,0.2429,5,-0.032963151,0.3547,42,0,42,0,1,,,,,,,,,,
,,078340,001,2023-07-31_21h48.42.369,arm3_eps,2022.2.5,Win32,8.569200579,61070ae8d3d60051894d043d,64c7fed44a04f777bb1e18ce,64c800bc00ce96ea23f42cd4,right,-1,1,0.2429,5,-0.032779018,0.2777,43,0,43,0,1,,,,,,,,,,
,,078340,001,2023-07-31_21h48.42.369,arm3_eps,2022.2.5,Win32,8.569200579,61070ae8d3d60051894d043d,64c7fed44a04f777bb1e18ce,64c800bc00ce96ea23f42cd4,down,1,1,0.2429,6,0,0.3494,44,0,44,0,1,,,,,,,,,,
,,078340,001,2023-07-31_21h48.42.369,arm3_eps,2022.2.5,Win32,8.569200579,61070ae8d3d60051894d043d,64c7fed44a04f777bb1e18ce,64c800bc00ce96ea23f42cd4,right,1,1,0.2429,6,0.014110786,0.3135,45,0,45,0,1,,,,,,,,,,
,,078340,001,2023-07-31_21h48.42.369,arm3_eps,2022.2.5,Win32,8.569200579,61070ae8d3d60051894d043d,64c7fed44a04f777bb1e18ce,64c800bc00ce96ea23f42cd4,right,1,1,0.2429,6,0.010007616,0.385,46,0,46,0,1,,,,,,,,,,
,,078340,001,2023-07-31_21h48.42.369,arm3_eps,2022.2.5,Win32,8.569200579,61070ae8d3d60051894d043d,64c7fed44a04f777bb1e18ce,64c800bc00ce96ea23f42cd4,right,1,1,0.2429,6,0.020028938,0.3024,47,0,47,0,1,,,,,,,,,,
,,078340,001,2023-07-31_21h48.42.369,arm3_eps,2022.2.5,Win32,8.569200579,61070ae8d3d60051894d043d,64c7fed44a04f777bb1e18ce,64c800bc00ce96ea23f42cd4,down,-1,1,0.2429,5,0,0.9688,48,0,48,0,1,,,,,,,,,,
,,078340,001,2023-07-31_21h48.42.369,arm3_eps,2022.2.5,Win32,8.569200579,61070ae8d3d60051894d043d,64c7fed44a04f777bb1e18ce,64c800bc00ce96ea23f42cd4,right,-1,1,0.2429,5,-0.012979362,0.8382,49,0,49,0,1,,,,,,,,,,
space,82.3765,078340,001,2023-07-31_21h48.42.369,arm3_eps,2022.2.5,Win32,8.569200579,61070ae8d3d60051894d043d,64c7fed44a04f777bb1e18ce,64c800bc00ce96ea23f42cd4,,,,,,,,,,,,,,,,,,,,,,
space,2.4089,078340,001,2023-07-31_21h48.42.369,arm3_eps,2022.2.5,Win32,8.569200579,61070ae8d3d60051894d043d,64c7fed44a04f777bb1e18ce,64c800bc00ce96ea23f42cd4,,,,,,,,,,,,,,,,,,,,,,
space,1.5219,078340,001,2023-07-31_21h48.42.369,arm3_eps,2022.2.5,Win32,8.569200579,61070ae8d3d60051894d043d,64c7fed44a04f777bb1e18ce,64c800bc00ce96ea23f42cd4,,,,,,,,,,,,,,,,,,,,,,
space,0.3037,078340,001,2023-07-31_21h48.42.369,arm3_eps,2022.2.5,Win32,8.569200579,61070ae8d3d60051894d043d,64c7fed44a04f777bb1e18ce,64c800bc00ce96ea23f42cd4,,,,,,,,,,,,,,,,,,,,,,
space,0.169,078340,001,2023-07-31_21h48.42.369,arm3_eps,2022.2.5,Win32,8.569200579,61070ae8d3d60051894d043d,64c7fed44a04f777bb1e18ce,64c800bc00ce96ea23f42cd4,,,,,,,,,,,,,,,,,,,,,,
space,0.4466,078340,001,2023-07-31_21h48.42.369,arm3_eps,2022.2.5,Win32,8.569200579,61070ae8d3d60051894d043d,64c7fed44a04f777bb1e18ce,64c800bc00ce96ea23f42cd4,,,,,,,,,,,,,,,,,,,,,,
,,078340,001,2023-07-31_21h48.42.369,arm3_eps,2022.2.5,Win32,8.569200579,61070ae8d3d60051894d043d,64c7fed44a04f777bb1e18ce,64c800bc00ce96ea23f42cd4,right,-1,0.75,0.2429,0,-0.012590318,0.4924,0,0,0,0,1,,,,,,,,,,
,,078340,001,2023-07-31_21h48.42.369,arm3_eps,2022.2.5,Win32,8.569200579,61070ae8d3d60051894d043d,64c7fed44a04f777bb1e18ce,64c800bc00ce96ea23f42cd4,right,-1,0.75,0.2429,0,-0.026199383,0.1249,1,0,1,0,1,,,,,,,,,,
,,078340,001,2023-07-31_21h48.42.369,arm3_eps,2022.2.5,Win32,8.569200579,61070ae8d3d60051894d043d,64c7fed44a04f777bb1e18ce,64c800bc00ce96ea23f42cd4,up,-1,0.75,0.2429,-1,0,0.2219,2,0,2,0,1,,,,,,,,,,
,,078340,001,2023-07-31_21h48.42.369,arm3_eps,2022.2.5,Win32,8.569200579,61070ae8d3d60051894d043d,64c7fed44a04f777bb1e18ce,64c800bc00ce96ea23f42cd4,down,-1,0.75,0.2429,0,0,0.0143,3,0,3,0,1,,,,,,,,,,
,,078340,001,2023-07-31_21h48.42.369,arm3_eps,2022.2.5,Win32,8.569200579,61070ae8d3d60051894d043d,64c7fed44a04f777bb1e18ce,64c800bc00ce96ea23f42cd4,right,-1,0.75,0.2429,0,0.016225907,0.2279,4,0,4,0,1,,,,,,,,,,
,,078340,001,2023-07-31_21h48.42.369,arm3_eps,2022.2.5,Win32,8.569200579,61070ae8d3d60051894d043d,64c7fed44a04f777bb1e18ce,64c800bc00ce96ea23f42cd4,right,-1,0.75,0.2429,0,0.025337227,0.2088,5,0,5,0,1,,,,,,,,,,
,,078340,001,2023-07-31_21h48.42.369,arm3_eps,2022.2.5,Win32,8.569200579,61070ae8d3d60051894d043d,64c7fed44a04f777bb1e18ce,64c800bc00ce96ea23f42cd4,right,-1,0.75,0.2429,0,0.023197618,0.3212,6,0,6,0,1,,,,,,,,,,
,,078340,001,2023-07-31_21h48.42.369,arm3_eps,2022.2.5,Win32,8.569200579,61070ae8d3d60051894d043d,64c7fed44a04f777bb1e18ce,64c800bc00ce96ea23f42cd4,up,-1,0.75,0.2429,-1,0,0.2684,7,0,7,0,1,,,,,,,,,,
,,078340,001,2023-07-31_21h48.42.369,arm3_eps,2022.2.5,Win32,8.569200579,61070ae8d3d60051894d043d,64c7fed44a04f777bb1e18ce,64c800bc00ce96ea23f42cd4,right,-1,0.75,0.2429,-1,-0.001869584,0.4639,8,0,8,0,1,,,,,,,,,,
,,078340,001,2023-07-31_21h48.42.369,arm3_eps,2022.2.5,Win32,8.569200579,61070ae8d3d60051894d043d,64c7fed44a04f777bb1e18ce,64c800bc00ce96ea23f42cd4,right,-1,0.75,0.2429,-1,-0.00990637,0.205,9,0,9,0,1,,,,,,,,,,
,,078340,001,2023-07-31_21h48.42.369,arm3_eps,2022.2.5,Win32,8.569200579,61070ae8d3d60051894d043d,64c7fed44a04f777bb1e18ce,64c800bc00ce96ea23f42cd4,right,-1,0.75,0.2429,-1,-0.012741798,0.1817,10,0,10,0,1,,,,,,,,,,
,,078340,001,2023-07-31_21h48.42.369,arm3_eps,2022.2.5,Win32,8.569200579,61070ae8d3d60051894d043d,64c7fed44a04f777bb1e18ce,64c800bc00ce96ea23f42cd4,down,-1,0.75,0.2429,-1,0,0.312,11,0,11,0,1,,,,,,,,,,
,,078340,001,2023-07-31_21h48.42.369,arm3_eps,2022.2.5,Win32,8.569200579,61070ae8d3d60051894d043d,64c7fed44a04f777bb1e18ce,64c800bc00ce96ea23f42cd4,right,-1,0.75,0.2429,-1,-0.003609168,0.2584,12,0,12,0,1,,,,,,,,,,
,,078340,001,2023-07-31_21h48.42.369,arm3_eps,2022.2.5,Win32,8.569200579,61070ae8d3d60051894d043d,64c7fed44a04f777bb1e18ce,64c800bc00ce96ea23f42cd4,right,-1,0.75,0.2429,-1,-0.029789473,0.2171,13,0,13,0,1,,,,,,,,,,
,,078340,001,2023-07-31_21h48.42.369,arm3_eps,2022.2.5,Win32,8.569200579,61070ae8d3d60051894d043d,64c7fed44a04f777bb1e18ce,64c800bc00ce96ea23f42cd4,right,-1,0.75,0.2429,-1,-0.055672867,0.2288,14,0,14,0,1,,,,,,,,,,
,,078340,001,2023-07-31_21h48.42.369,arm3_eps,2022.2.5,Win32,8.569200579,61070ae8d3d60051894d043d,64c7fed44a04f777bb1e18ce,64c800bc00ce96ea23f42cd4,down,1,0.75,0.2429,0,0,0.2163,15,0,15,0,1,,,,,,,,,,
,,078340,001,2023-07-31_21h48.42.369,arm3_eps,2022.2.5,Win32,8.569200579,61070ae8d3d60051894d043d,64c7fed44a04f777bb1e18ce,64c800bc00ce96ea23f42cd4,right,1,0.75,0.2429,0,-0.014912333,0.1363,16,0,16,0,1,,,,,,,,,,
,,078340,001,2023-07-31_21h48.42.369,arm3_eps,2022.2.5,Win32,8.569200579,61070ae8d3d60051894d043d,64c7fed44a04f777bb1e18ce,64c800bc00ce96ea23f42cd4,right,1,0.75,0.2429,0,-0.016906163,0.2847,17,0,17,0,1,,,,,,,,,,
,,078340,001,2023-07-31_21h48.42.369,arm3_eps,2022.2.5,Win32,8.569200579,61070ae8d3d60051894d043d,64c7fed44a04f777bb1e18ce,64c800bc00ce96ea23f42cd4,right,1,0.75,0.2429,0,0.010613289,0.2097,18,0,18,0,1,,,,,,,,,,
,,078340,001,2023-07-31_21h48.42.369,arm3_eps,2022.2.5,Win32,8.569200579,61070ae8d3d60051894d043d,64c7fed44a04f777bb1e18ce,64c800bc00ce96ea23f42cd4,up,1,0.75,0.2429,1,0,0.3287,19,0,19,0,1,,,,,,,,,,
,,078340,001,2023-07-31_21h48.42.369,arm3_eps,2022.2.5,Win32,8.569200579,61070ae8d3d60051894d043d,64c7fed44a04f777bb1e18ce,64c800bc00ce96ea23f42cd4,right,1,0.75,0.2429,1,0.011032083,0.2157,20,0,20,0,1,,,,,,,,,,
,,078340,001,2023-07-31_21h48.42.369,arm3_eps,2022.2.5,Win32,8.569200579,61070ae8d3d60051894d043d,64c7fed44a04f777bb1e18ce,64c800bc00ce96ea23f42cd4,right,1,0.75,0.2429,1,0.01906926,0.2032,21,0,21,0,1,,,,,,,,,,
,,078340,001,2023-07-31_21h48.42.369,arm3_eps,2022.2.5,Win32,8.569200579,61070ae8d3d60051894d043d,64c7fed44a04f777bb1e18ce,64c800bc00ce96ea23f42cd4,right,1,0.75,0.2429,1,0.058119634,0.2264,22,0,22,0,1,,,,,,,,,,
,,078340,001,2023-07-31_21h48.42.369,arm3_eps,2022.2.5,Win32,8.569200579,61070ae8d3d60051894d043d,64c7fed44a04f777bb1e18ce,64c800bc00ce96ea23f42cd4,up,1,0.75,0.2429,2,0,0.2289,23,0,23,0,1,,,,,,,,,,
,,078340,001,2023-07-31_21h48.42.369,arm3_eps,2022.2.5,Win32,8.569200579,61070ae8d3d60051894d043d,64c7fed44a04f777bb1e18ce,64c800bc00ce96ea23f42cd4,right,1,0.75,0.2429,2,0.008431827,0.2504,24,0,24,0,1,,,,,,,,,,
,,078340,001,2023-07-31_21h48.42.369,arm3_eps,2022.2.5,Win32,8.569200579,61070ae8d3d60051894d043d,64c7fed44a04f777bb1e18ce,64c800bc00ce96ea23f42cd4,right,1,0.75,0.2429,2,0.019382976,0.2003,25,0,25,0,1,,,,,,,,,,
,,078340,001,2023-07-31_21h48.42.369,arm3_eps,2022.2.5,Win32,8.569200579,61070ae8d3d60051894d043d,64c7fed44a04f777bb1e18ce,64c800bc00ce96ea23f42cd4,right,1,0.75,0.2429,2,0.016278605,0.2514,26,0,26,0,1,,,,,,,,,,
,,078340,001,2023-07-31_21h48.42.369,arm3_eps,2022.2.5,Win32,8.569200579,61070ae8d3d60051894d043d,64c7fed44a04f777bb1e18ce,64c800bc00ce96ea23f42cd4,up,1,0.75,0.2429,3,0,0.5629,27,0,27,0,1,,,,,,,,,,
,,078340,001,2023-07-31_21h48.42.369,arm3_eps,2022.2.5,Win32,8.569200579,61070ae8d3d60051894d043d,64c7fed44a04f777bb1e18ce,64c800bc00ce96ea23f42cd4,right,1,0.75,0.2429,3,0.021456188,0.2181,28,0,28,0,1,,,,,,,,,,
,,078340,001,2023-07-31_21h48.42.369,arm3_eps,2022.2.5,Win32,8.569200579,61070ae8d3d60051894d043d,64c7fed44a04f777bb1e18ce,64c800bc00ce96ea23f42cd4,right,1,0.75,0.2429,3,0.052329168,0.1983,29,0,29,0,1,,,,,,,,,,
,,078340,001,2023-07-31_21h48.42.369,arm3_eps,2022.2.5,Win32,8.569200579,61070ae8d3d60051894d043d,64c7fed44a04f777bb1e18ce,64c800bc00ce96ea23f42cd4,right,1,0.75,0.2429,3,0.042682318,0.2307,30,0,30,0,1,,,,,,,,,,
,,078340,001,2023-07-31_21h48.42.369,arm3_eps,2022.2.5,Win32,8.569200579,61070ae8d3d60051894d043d,64c7fed44a04f777bb1e18ce,64c800bc00ce96ea23f42cd4,up,1,0.75,0.2429,4,0,0.2505,31,0,31,0,1,,,,,,,,,,
,,078340,001,2023-07-31_21h48.42.369,arm3_eps,2022.2.5,Win32,8.569200579,61070ae8d3d60051894d043d,64c7fed44a04f777bb1e18ce,64c800bc00ce96ea23f42cd4,right,1,0.75,0.2429,4,0.013275981,0.1766,32,0,32,0,1,,,,,,,,,,
,,078340,001,2023-07-31_21h48.42.369,arm3_eps,2022.2.5,Win32,8.569200579,61070ae8d3d60051894d043d,64c7fed44a04f777bb1e18ce,64c800bc00ce96ea23f42cd4,right,1,0.75,0.2429,4,0.038516645,0.2668,33,0,33,0,1,,,,,,,,,,
,,078340,001,2023-07-31_21h48.42.369,arm3_eps,2022.2.5,Win32,8.569200579,61070ae8d3d60051894d043d,64c7fed44a04f777bb1e18ce,64c800bc00ce96ea23f42cd4,right,1,0.75,0.2429,4,0.081873672,0.2026,34,0,34,0,1,,,,,,,,,,
,,078340,001,2023-07-31_21h48.42.369,arm3_eps,2022.2.5,Win32,8.569200579,61070ae8d3d60051894d043d,64c7fed44a04f777bb1e18ce,64c800bc00ce96ea23f42cd4,up,1,0.75,0.2429,5,0,0.2005,35,0,35,0,1,,,,,,,,,,
,,078340,001,2023-07-31_21h48.42.369,arm3_eps,2022.2.5,Win32,8.569200579,61070ae8d3d60051894d043d,64c7fed44a04f777bb1e18ce,64c800bc00ce96ea23f42cd4,right,1,0.75,0.2429,5,-0.011819627,0.2529,36,0,36,0,1,,,,,,,,,,
,,078340,001,2023-07-31_21h48.42.369,arm3_eps,2022.2.5,Win32,8.569200579,61070ae8d3d60051894d043d,64c7fed44a04f777bb1e18ce,64c800bc00ce96ea23f42cd4,right,1,0.75,0.2429,5,-0.004604962,0.1791,37,0,37,0,1,,,,,,,,,,
,,078340,001,2023-07-31_21h48.42.369,arm3_eps,2022.2.5,Win32,8.569200579,61070ae8d3d60051894d043d,64c7fed44a04f777bb1e18ce,64c800bc00ce96ea23f42cd4,right,1,0.75,0.2429,5,-0.009209561,0.2213,38,0,38,0,1,,,,,,,,,,
,,078340,001,2023-07-31_21h48.42.369,arm3_eps,2022.2.5,Win32,8.569200579,61070ae8d3d60051894d043d,64c7fed44a04f777bb1e18ce,64c800bc00ce96ea23f42cd4,up,1,0.75,0.2429,6,0,0.7161,39,0,39,0,1,,,,,,,,,,
,,078340,001,2023-07-31_21h48.42.369,arm3_eps,2022.2.5,Win32,8.569200579,61070ae8d3d60051894d043d,64c7fed44a04f777bb1e18ce,64c800bc00ce96ea23f42cd4,right,1,0.75,0.2429,6,0.010869714,0.232,40,0,40,0,1,,,,,,,,,,
,,078340,001,2023-07-31_21h48.42.369,arm3_eps,2022.2.5,Win32,8.569200579,61070ae8d3d60051894d043d,64c7fed44a04f777bb1e18ce,64c800bc00ce96ea23f42cd4,right,1,0.75,0.2429,6,0.026049159,0.1877,41,0,41,0,1,,,,,,,,,,
,,078340,001,2023-07-31_21h48.42.369,arm3_eps,2022.2.5,Win32,8.569200579,61070ae8d3d60051894d043d,64c7fed44a04f777bb1e18ce,64c800bc00ce96ea23f42cd4,right,1,0.75,0.2429,6,0.017142898,0.168,42,0,42,0,1,,,,,,,,,,
,,078340,001,2023-07-31_21h48.42.369,arm3_eps,2022.2.5,Win32,8.569200579,61070ae8d3d60051894d043d,64c7fed44a04f777bb1e18ce,64c800bc00ce96ea23f42cd4,up,1,0.75,0.2429,7,0,0.3293,43,0,43,0,1,,,,,,,,,,
,,078340,001,2023-07-31_21h48.42.369,arm3_eps,2022.2.5,Win32,8.569200579,61070ae8d3d60051894d043d,64c7fed44a04f777bb1e18ce,64c800bc00ce96ea23f42cd4,right,1,0.75,0.2429,7,0.00881673,0.1608,44,0,44,0,1,,,,,,,,,,
,,078340,001,2023-07-31_21h48.42.369,arm3_eps,2022.2.5,Win32,8.569200579,61070ae8d3d60051894d043d,64c7fed44a04f777bb1e18ce,64c800bc00ce96ea23f42cd4,right,1,0.75,0.2429,7,-0.007728379,0.2327,45,0,45,0,1,,,,,,,,,,
,,078340,001,2023-07-31_21h48.42.369,arm3_eps,2022.2.5,Win32,8.569200579,61070ae8d3d60051894d043d,64c7fed44a04f777bb1e18ce,64c800bc00ce96ea23f42cd4,right,1,0.75,0.2429,7,-0.025103666,0.1998,46,0,46,0,1,,,,,,,,,,
,,078340,001,2023-07-31_21h48.42.369,arm3_eps,2022.2.5,Win32,8.569200579,61070ae8d3d60051894d043d,64c7fed44a04f777bb1e18ce,64c800bc00ce96ea23f42cd4,up,1,0.75,0.2429,8,0,0.6496,47,0,47,0,1,,,,,,,,,,
,,078340,001,2023-07-31_21h48.42.369,arm3_eps,2022.2.5,Win32,8.569200579,61070ae8d3d60051894d043d,64c7fed44a04f777bb1e18ce,64c800bc00ce96ea23f42cd4,right,1,0.75,0.2429,8,0.011304647,0.3162,48,0,48,0,1,,,,,,,,,,
,,078340,001,2023-07-31_21h48.42.369,arm3_eps,2022.2.5,Win32,8.569200579,61070ae8d3d60051894d043d,64c7fed44a04f777bb1e18ce,64c800bc00ce96ea23f42cd4,right,1,0.75,0.2429,8,0.035579797,0.1862,49,0,49,0,1,,,,,,,,,,
space,0.7857,078340,001,2023-07-31_21h48.42.369,arm3_eps,2022.2.5,Win32,8.569200579,61070ae8d3d60051894d043d,64c7fed44a04f777bb1e18ce,64c800bc00ce96ea23f42cd4,,,,,,,,,,,,,,,,,,,,,,
space,0.2509,078340,001,2023-07-31_21h48.42.369,arm3_eps,2022.2.5,Win32,8.569200579,61070ae8d3d60051894d043d,64c7fed44a04f777bb1e18ce,64c800bc00ce96ea23f42cd4,,,,,,,,,,,,,,,,,,,,,,
space,0.4517,078340,001,2023-07-31_21h48.42.369,arm3_eps,2022.2.5,Win32,8.569200579,61070ae8d3d60051894d043d,64c7fed44a04f777bb1e18ce,64c800bc00ce96ea23f42cd4,,,,,,,,,,,,,,,,,,,,,,
,,078340,001,2023-07-31_21h48.42.369,arm3_eps,2022.2.5,Win32,8.569200579,61070ae8d3d60051894d043d,64c7fed44a04f777bb1e18ce,64c800bc00ce96ea23f42cd4,right,1,0.75,0.05,0,0.020862164,0.3902,0,0,0,0,1,,,,,,,,,,
,,078340,001,2023-07-31_21h48.42.369,arm3_eps,2022.2.5,Win32,8.569200579,61070ae8d3d60051894d043d,64c7fed44a04f777bb1e18ce,64c800bc00ce96ea23f42cd4,right,1,0.75,0.05,0,0.004362118,0.1549,1,0,1,0,1,,,,,,,,,,
,,078340,001,2023-07-31_21h48.42.369,arm3_eps,2022.2.5,Win32,8.569200579,61070ae8d3d60051894d043d,64c7fed44a04f777bb1e18ce,64c800bc00ce96ea23f42cd4,right,1,0.75,0.05,0,0.002583142,0.2485,2,0,2,0,1,,,,,,,,,,
,,078340,001,2023-07-31_21h48.42.369,arm3_eps,2022.2.5,Win32,8.569200579,61070ae8d3d60051894d043d,64c7fed44a04f777bb1e18ce,64c800bc00ce96ea23f42cd4,up,1,0.75,0.05,1,0,0.2407,3,0,3,0,1,,,,,,,,,,
,,078340,001,2023-07-31_21h48.42.369,arm3_eps,2022.2.5,Win32,8.569200579,61070ae8d3d60051894d043d,64c7fed44a04f777bb1e18ce,64c800bc00ce96ea23f42cd4,right,1,0.75,0.05,1,0.030049664,0.154,4,0,4,0,1,,,,,,,,,,
,,078340,001,2023-07-31_21h48.42.369,arm3_eps,2022.2.5,Win32,8.569200579,61070ae8d3d60051894d043d,64c7fed44a04f777bb1e18ce,64c800bc00ce96ea23f42cd4,right,1,0.75,0.05,1,0.035277913,0.2321,5,0,5,0,1,,,,,,,,,,
,,078340,001,2023-07-31_21h48.42.369,arm3_eps,2022.2.5,Win32,8.569200579,61070ae8d3d60051894d043d,64c7fed44a04f777bb1e18ce,64c800bc00ce96ea23f42cd4,right,1,0.75,0.05,1,0.050007288,0.2045,6,0,6,0,1,,,,,,,,,,
,,078340,001,2023-07-31_21h48.42.369,arm3_eps,2022.2.5,Win32,8.569200579,61070ae8d3d60051894d043d,64c7fed44a04f777bb1e18ce,64c800bc00ce96ea23f42cd4,up,1,0.75,0.05,2,0,0.1268,7,0,7,0,1,,,,,,,,,,
,,078340,001,2023-07-31_21h48.42.369,arm3_eps,2022.2.5,Win32,8.569200579,61070ae8d3d60051894d043d,64c7fed44a04f777bb1e18ce,64c800bc00ce96ea23f42cd4,right,1,0.75,0.05,2,0.025072068,0.1934,8,0,8,0,1,,,,,,,,,,
,,078340,001,2023-07-31_21h48.42.369,arm3_eps,2022.2.5,Win32,8.569200579,61070ae8d3d60051894d043d,64c7fed44a04f777bb1e18ce,64c800bc00ce96ea23f42cd4,right,1,0.75,0.05,2,0.042939846,0.1579,9,0,9,0,1,,,,,,,,,,
,,078340,001,2023-07-31_21h48.42.369,arm3_eps,2022.2.5,Win32,8.569200579,61070ae8d3d60051894d043d,64c7fed44a04f777bb1e18ce,64c800bc00ce96ea23f42cd4,right,1,0.75,0.05,2,0.076343208,0.1689,10,0,10,0,1,,,,,,,,,,
,,078340,001,2023-07-31_21h48.42.369,arm3_eps,2022.2.5,Win32,8.569200579,61070ae8d3d60051894d043d,64c7fed44a04f777bb1e18ce,64c800bc00ce96ea23f42cd4,up,1,0.75,0.05,3,0,0.1771,11,0,11,0,1,,,,,,,,,,
,,078340,001,2023-07-31_21h48.42.369,arm3_eps,2022.2.5,Win32,8.569200579,61070ae8d3d60051894d043d,64c7fed44a04f777bb1e18ce,64c800bc00ce96ea23f42cd4,right,1,0.75,0.05,3,-0.006117856,0.185,12,0,12,0,1,,,,,,,,,,
,,078340,001,2023-07-31_21h48.42.369,arm3_eps,2022.2.5,Win32,8.569200579,61070ae8d3d60051894d043d,64c7fed44a04f777bb1e18ce,64c800bc00ce96ea23f42cd4,right,1,0.75,0.05,3,0.006056199,0.1638,13,0,13,0,1,,,,,,,,,,
,,078340,001,2023-07-31_21h48.42.369,arm3_eps,2022.2.5,Win32,8.569200579,61070ae8d3d60051894d043d,64c7fed44a04f777bb1e18ce,64c800bc00ce96ea23f42cd4,right,1,0.75,0.05,3,-0.020429875,0.1765,14,0,14,0,1,,,,,,,,,,
,,078340,001,2023-07-31_21h48.42.369,arm3_eps,2022.2.5,Win32,8.569200579,61070ae8d3d60051894d043d,64c7fed44a04f777bb1e18ce,64c800bc00ce96ea23f42cd4,down,1,0.75,0.05,2,0,0.2197,15,0,15,0,1,,,,,,,,,,
,,078340,001,2023-07-31_21h48.42.369,arm3_eps,2022.2.5,Win32,8.569200579,61070ae8d3d60051894d043d,64c7fed44a04f777bb1e18ce,64c800bc00ce96ea23f42cd4,right,1,0.75,0.05,2,0.001790498,0.1681,16,0,16,0,1,,,,,,,,,,
,,078340,001,2023-07-31_21h48.42.369,arm3_eps,2022.2.5,Win32,8.569200579,61070ae8d3d60051894d043d,64c7fed44a04f777bb1e18ce,64c800bc00ce96ea23f42cd4,right,1,0.75,0.05,2,-0.001207158,0.2142,17,0,17,0,1,,,,,,,,,,
,,078340,001,2023-07-31_21h48.42.369,arm3_eps,2022.2.5,Win32,8.569200579,61070ae8d3d60051894d043d,64c7fed44a04f777bb1e18ce,64c800bc00ce96ea23f42cd4,right,1,0.75,0.05,2,0.016137629,0.1816,18,0,18,0,1,,,,,,,,,,
,,078340,001,2023-07-31_21h48.42.369,arm3_eps,2022.2.5,Win32,8.569200579,61070ae8d3d60051894d043d,64c7fed44a04f777bb1e18ce,64c800bc00ce96ea23f42cd4,up,1,0.75,0.05,3,0,0.185,19,0,19,0,1,,,,,,,,,,
,,078340,001,2023-07-31_21h48.42.369,arm3_eps,2022.2.5,Win32,8.569200579,61070ae8d3d60051894d043d,64c7fed44a04f777bb1e18ce,64c800bc00ce96ea23f42cd4,right,1,0.75,0.05,3,0.003575783,0.1702,20,0,20,0,1,,,,,,,,,,
,,078340,001,2023-07-31_21h48.42.369,arm3_eps,2022.2.5,Win32,8.569200579,61070ae8d3d60051894d043d,64c7fed44a04f777bb1e18ce,64c800bc00ce96ea23f42cd4,right,1,0.75,0.05,3,0.025312845,0.1662,21,0,21,0,1,,,,,,,,,,
,,078340,001,2023-07-31_21h48.42.369,arm3_eps,2022.2.5,Win32,8.569200579,61070ae8d3d60051894d043d,64c7fed44a04f777bb1e18ce,64c800bc00ce96ea23f42cd4,right,1,0.75,0.05,3,0.034732229,0.1943,22,0,22,0,1,,,,,,,,,,
,,078340,001,2023-07-31_21h48.42.369,arm3_eps,2022.2.5,Win32,8.569200579,61070ae8d3d60051894d043d,64c7fed44a04f777bb1e18ce,64c800bc00ce96ea23f42cd4,up,1,0.75,0.05,3,0,0.2525,23,0,23,0,1,,,,,,,,,,
,,078340,001,2023-07-31_21h48.42.369,arm3_eps,2022.2.5,Win32,8.569200579,61070ae8d3d60051894d043d,64c7fed44a04f777bb1e18ce,64c800bc00ce96ea23f42cd4,right,1,0.75,0.05,3,0.020008108,0.1807,24,0,24,0,1,,,,,,,,,,
,,078340,001,2023-07-31_21h48.42.369,arm3_eps,2022.2.5,Win32,8.569200579,61070ae8d3d60051894d043d,64c7fed44a04f777bb1e18ce,64c800bc00ce96ea23f42cd4,right,1,0.75,0.05,3,0.038750651,0.2154,25,0,25,0,1,,,,,,,,,,
,,078340,001,2023-07-31_21h48.42.369,arm3_eps,2022.2.5,Win32,8.569200579,61070ae8d3d60051894d043d,64c7fed44a04f777bb1e18ce,64c800bc00ce96ea23f42cd4,right,1,0.75,0.05,3,-0.004668647,0.1831,26,0,26,0,1,,,,,,,,,,
,,078340,001,2023-07-31_21h48.42.369,arm3_eps,2022.2.5,Win32,8.569200579,61070ae8d3d60051894d043d,64c7fed44a04f777bb1e18ce,64c800bc00ce96ea23f42cd4,up,1,0.75,0.05,3,0,0.5733,27,0,27,0,1,,,,,,,,,,
,,078340,001,2023-07-31_21h48.42.369,arm3_eps,2022.2.5,Win32,8.569200579,61070ae8d3d60051894d043d,64c7fed44a04f777bb1e18ce,64c800bc00ce96ea23f42cd4,right,1,0.75,0.05,3,0.009875855,0.186,28,0,28,0,1,,,,,,,,,,
,,078340,001,2023-07-31_21h48.42.369,arm3_eps,2022.2.5,Win32,8.569200579,61070ae8d3d60051894d043d,64c7fed44a04f777bb1e18ce,64c800bc00ce96ea23f42cd4,right,1,0.75,0.05,3,0.043400597,0.2059,29,0,29,0,1,,,,,,,,,,
,,078340,001,2023-07-31_21h48.42.369,arm3_eps,2022.2.5,Win32,8.569200579,61070ae8d3d60051894d043d,64c7fed44a04f777bb1e18ce,64c800bc00ce96ea23f42cd4,up,1,0.75,0.05,3,0,0.3945,30,0,30,0,1,,,,,,,,,,
,,078340,001,2023-07-31_21h48.42.369,arm3_eps,2022.2.5,Win32,8.569200579,61070ae8d3d60051894d043d,64c7fed44a04f777bb1e18ce,64c800bc00ce96ea23f42cd4,right,1,0.75,0.05,3,-0.010299492,0.2242,31,0,31,0,1,,,,,,,,,,
,,078340,001,2023-07-31_21h48.42.369,arm3_eps,2022.2.5,Win32,8.569200579,61070ae8d3d60051894d043d,64c7fed44a04f777bb1e18ce,64c800bc00ce96ea23f42cd4,right,1,0.75,0.05,3,0.020138126,0.1856,32,0,32,0,1,,,,,,,,,,
,,078340,001,2023-07-31_21h48.42.369,arm3_eps,2022.2.5,Win32,8.569200579,61070ae8d3d60051894d043d,64c7fed44a04f777bb1e18ce,64c800bc00ce96ea23f42cd4,right,1,0.75,0.05,3,0.050695757,0.1865,33,0,33,0,1,,,,,,,,,,
,,078340,001,2023-07-31_21h48.42.369,arm3_eps,2022.2.5,Win32,8.569200579,61070ae8d3d60051894d043d,64c7fed44a04f777bb1e18ce,64c800bc00ce96ea23f42cd4,up,1,0.75,0.05,4,0,0.2144,34,0,34,0,1,,,,,,,,,,
,,078340,001,2023-07-31_21h48.42.369,arm3_eps,2022.2.5,Win32,8.569200579,61070ae8d3d60051894d043d,64c7fed44a04f777bb1e18ce,64c800bc00ce96ea23f42cd4,right,1,0.75,0.05,4,-0.010916476,0.1672,35,0,35,0,1,,,,,,,,,,
,,078340,001,2023-07-31_21h48.42.369,arm3_eps,2022.2.5,Win32,8.569200579,61070ae8d3d60051894d043d,64c7fed44a04f777bb1e18ce,64c800bc00ce96ea23f42cd4,right,1,0.75,0.05,4,0.001320563,0.2341,36,0,36,0,1,,,,,,,,,,
,,078340,001,2023-07-31_21h48.42.369,arm3_eps,2022.2.5,Win32,8.569200579,61070ae8d3d60051894d043d,64c7fed44a04f777bb1e18ce,64c800bc00ce96ea23f42cd4,right,1,0.75,0.05,4,0.007807776,0.1982,37,0,37,0,1,,,,,,,,,,
,,078340,001,2023-07-31_21h48.42.369,arm3_eps,2022.2.5,Win32,8.569200579,61070ae8d3d60051894d043d,64c7fed44a04f777bb1e18ce,64c800bc00ce96ea23f42cd4,down,1,0.75,0.05,3,0,0.4016,38,0,38,0,1,,,,,,,,,,
,,078340,001,2023-07-31_21h48.42.369,arm3_eps,2022.2.5,Win32,8.569200579,61070ae8d3d60051894d043d,64c7fed44a04f777bb1e18ce,64c800bc00ce96ea23f42cd4,right,1,0.75,0.05,3,-0.013564343,0.1758,39,0,39,0,1,,,,,,,,,,
,,078340,001,2023-07-31_21h48.42.369,arm3_eps,2022.2.5,Win32,8.569200579,61070ae8d3d60051894d043d,64c7fed44a04f777bb1e18ce,64c800bc00ce96ea23f42cd4,right,1,0.75,0.05,3,-0.007286539,0.2309,40,0,40,0,1,,,,,,,,,,
,,078340,001,2023-07-31_21h48.42.369,arm3_eps,2022.2.5,Win32,8.569200579,61070ae8d3d60051894d043d,64c7fed44a04f777bb1e18ce,64c800bc00ce96ea23f42cd4,right,1,0.75,0.05,3,-0.001579028,0.2064,41,0,41,0,1,,,,,,,,,,
,,078340,001,2023-07-31_21h48.42.369,arm3_eps,2022.2.5,Win32,8.569200579,61070ae8d3d60051894d043d,64c7fed44a04f777bb1e18ce,64c800bc00ce96ea23f42cd4,up,1,0.75,0.05,4,0,0.4504,42,0,42,0,1,,,,,,,,,,
,,078340,001,2023-07-31_21h48.42.369,arm3_eps,2022.2.5,Win32,8.569200579,61070ae8d3d60051894d043d,64c7fed44a04f777bb1e18ce,64c800bc00ce96ea23f42cd4,right,1,0.75,0.05,4,0.000878235,0.2001,43,0,43,0,1,,,,,,,,,,
,,078340,001,2023-07-31_21h48.42.369,arm3_eps,2022.2.5,Win32,8.569200579,61070ae8d3d60051894d043d,64c7fed44a04f777bb1e18ce,64c800bc00ce96ea23f42cd4,right,1,0.75,0.05,4,0.016272534,0.1756,44,0,44,0,1,,,,,,,,,,
,,078340,001,2023-07-31_21h48.42.369,arm3_eps,2022.2.5,Win32,8.569200579,61070ae8d3d60051894d043d,64c7fed44a04f777bb1e18ce,64c800bc00ce96ea23f42cd4,right,1,0.75,0.05,4,0.027057047,0.1989,45,0,45,0,1,,,,,,,,,,
,,078340,001,2023-07-31_21h48.42.369,arm3_eps,2022.2.5,Win32,8.569200579,61070ae8d3d60051894d043d,64c7fed44a04f777bb1e18ce,64c800bc00ce96ea23f42cd4,up,1,0.75,0.05,5,0,0.3861,46,0,46,0,1,,,,,,,,,,
,,078340,001,2023-07-31_21h48.42.369,arm3_eps,2022.2.5,Win32,8.569200579,61070ae8d3d60051894d043d,64c7fed44a04f777bb1e18ce,64c800bc00ce96ea23f42cd4,right,1,0.75,0.05,5,0.023755423,0.2034,47,0,47,0,1,,,,,,,,,,
,,078340,001,2023-07-31_21h48.42.369,arm3_eps,2022.2.5,Win32,8.569200579,61070ae8d3d60051894d043d,64c7fed44a04f777bb1e18ce,64c800bc00ce96ea23f42cd4,right,1,0.75,0.05,5,0.042457126,0.1796,48,0,48,0,1,,,,,,,,,,
,,078340,001,2023-07-31_21h48.42.369,arm3_eps,2022.2.5,Win32,8.569200579,61070ae8d3d60051894d043d,64c7fed44a04f777bb1e18ce,64c800bc00ce96ea23f42cd4,right,1,0.75,0.05,5,0.070787867,0.199,49,0,49,0,1,,,,,,,,,,
space,0.7636,078340,001,2023-07-31_21h48.42.369,arm3_eps,2022.2.5,Win32,8.569200579,61070ae8d3d60051894d043d,64c7fed44a04f777bb1e18ce,64c800bc00ce96ea23f42cd4,,,,,,,,,,,,,,,,,,,,,,
space,0.5328,078340,001,2023-07-31_21h48.42.369,arm3_eps,2022.2.5,Win32,8.569200579,61070ae8d3d60051894d043d,64c7fed44a04f777bb1e18ce,64c800bc00ce96ea23f42cd4,,,,,,,,,,,,,,,,,,,,,,
,,078340,001,2023-07-31_21h48.42.369,arm3_eps,2022.2.5,Win32,8.569200579,61070ae8d3d60051894d043d,64c7fed44a04f777bb1e18ce,64c800bc00ce96ea23f42cd4,right,1,0.75,0.5,0,-0.001217452,0.3679,0,0,0,0,1,,,,,,,,,,
,,078340,001,2023-07-31_21h48.42.369,arm3_eps,2022.2.5,Win32,8.569200579,61070ae8d3d60051894d043d,64c7fed44a04f777bb1e18ce,64c800bc00ce96ea23f42cd4,right,1,0.75,0.5,0,-0.007194313,0.1567,1,0,1,0,1,,,,,,,,,,
,,078340,001,2023-07-31_21h48.42.369,arm3_eps,2022.2.5,Win32,8.569200579,61070ae8d3d60051894d043d,64c7fed44a04f777bb1e18ce,64c800bc00ce96ea23f42cd4,right,1,0.75,0.5,0,0.004509623,0.1887,2,0,2,0,1,,,,,,,,,,
,,078340,001,2023-07-31_21h48.42.369,arm3_eps,2022.2.5,Win32,8.569200579,61070ae8d3d60051894d043d,64c7fed44a04f777bb1e18ce,64c800bc00ce96ea23f42cd4,up,1,0.75,0.5,1,0,0.1719,3,0,3,0,1,,,,,,,,,,
,,078340,001,2023-07-31_21h48.42.369,arm3_eps,2022.2.5,Win32,8.569200579,61070ae8d3d60051894d043d,64c7fed44a04f777bb1e18ce,64c800bc00ce96ea23f42cd4,right,1,0.75,0.5,1,0.005619248,0.1379,4,0,4,0,1,,,,,,,,,,
,,078340,001,2023-07-31_21h48.42.369,arm3_eps,2022.2.5,Win32,8.569200579,61070ae8d3d60051894d043d,64c7fed44a04f777bb1e18ce,64c800bc00ce96ea23f42cd4,right,1,0.75,0.5,1,0.001373258,0.1968,5,0,5,0,1,,,,,,,,,,
,,078340,001,2023-07-31_21h48.42.369,arm3_eps,2022.2.5,Win32,8.569200579,61070ae8d3d60051894d043d,64c7fed44a04f777bb1e18ce,64c800bc00ce96ea23f42cd4,right,1,0.75,0.5,1,0.011028475,0.1901,6,0,6,0,1,,,,,,,,,,
,,078340,001,2023-07-31_21h48.42.369,arm3_eps,2022.2.5,Win32,8.569200579,61070ae8d3d60051894d043d,64c7fed44a04f777bb1e18ce,64c800bc00ce96ea23f42cd4,up,-1,0.75,0.5,2,0,0.2269,7,0,7,0,1,,,,,,,,,,
,,078340,001,2023-07-31_21h48.42.369,arm3_eps,2022.2.5,Win32,8.569200579,61070ae8d3d60051894d043d,64c7fed44a04f777bb1e18ce,64c800bc00ce96ea23f42cd4,right,-1,0.75,0.5,2,0.010166218,0.1842,8,0,8,0,1,,,,,,,,,,
,,078340,001,2023-07-31_21h48.42.369,arm3_eps,2022.2.5,Win32,8.569200579,61070ae8d3d60051894d043d,64c7fed44a04f777bb1e18ce,64c800bc00ce96ea23f42cd4,right,-1,0.75,0.5,2,-0.000591487,0.2311,9,0,9,0,1,,,,,,,,,,
,,078340,001,2023-07-31_21h48.42.369,arm3_eps,2022.2.5,Win32,8.569200579,61070ae8d3d60051894d043d,64c7fed44a04f777bb1e18ce,64c800bc00ce96ea23f42cd4,right,-1,0.75,0.5,2,-0.019385295,0.1779,10,0,10,0,1,,,,,,,,,,
,,078340,001,2023-07-31_21h48.42.369,arm3_eps,2022.2.5,Win32,8.569200579,61070ae8d3d60051894d043d,64c7fed44a04f777bb1e18ce,64c800bc00ce96ea23f42cd4,down,-1,0.75,0.5,3,0,0.242,11,0,11,0,1,,,,,,,,,,
,,078340,001,2023-07-31_21h48.42.369,arm3_eps,2022.2.5,Win32,8.569200579,61070ae8d3d60051894d043d,64c7fed44a04f777bb1e18ce,64c800bc00ce96ea23f42cd4,right,-1,0.75,0.5,3,-0.002383054,0.1679,12,0,12,0,1,,,,,,,,,,
,,078340,001,2023-07-31_21h48.42.369,arm3_eps,2022.2.5,Win32,8.569200579,61070ae8d3d60051894d043d,64c7fed44a04f777bb1e18ce,64c800bc00ce96ea23f42cd4,right,-1,0.75,0.5,3,-0.002478556,0.1901,13,0,13,0,1,,,,,,,,,,
,,078340,001,2023-07-31_21h48.42.369,arm3_eps,2022.2.5,Win32,8.569200579,61070ae8d3d60051894d043d,64c7fed44a04f777bb1e18ce,64c800bc00ce96ea23f42cd4,right,-1,0.75,0.5,3,0.00221474,0.1699,14,0,14,0,1,,,,,,,,,,
,,078340,001,2023-07-31_21h48.42.369,arm3_eps,2022.2.5,Win32,8.569200579,61070ae8d3d60051894d043d,64c7fed44a04f777bb1e18ce,64c800bc00ce96ea23f42cd4,up,1,0.75,0.5,3,0,0.2633,15,0,15,0,1,,,,,,,,,,
,,078340,001,2023-07-31_21h48.42.369,arm3_eps,2022.2.5,Win32,8.569200579,61070ae8d3d60051894d043d,64c7fed44a04f777bb1e18ce,64c800bc00ce96ea23f42cd4,right,1,0.75,0.5,3,-0.009139557,0.4103,16,0,16,0,1,,,,,,,,,,
,,078340,001,2023-07-31_21h48.42.369,arm3_eps,2022.2.5,Win32,8.569200579,61070ae8d3d60051894d043d,64c7fed44a04f777bb1e18ce,64c800bc00ce96ea23f42cd4,right,1,0.75,0.5,3,0.030392987,0.1656,17,0,17,0,1,,,,,,,,,,
,,078340,001,2023-07-31_21h48.42.369,arm3_eps,2022.2.5,Win32,8.569200579,61070ae8d3d60051894d043d,64c7fed44a04f777bb1e18ce,64c800bc00ce96ea23f42cd4,right,1,0.75,0.5,3,0.051436058,0.2175,18,0,18,0,1,,,,,,,,,,
,,078340,001,2023-07-31_21h48.42.369,arm3_eps,2022.2.5,Win32,8.569200579,61070ae8d3d60051894d043d,64c7fed44a04f777bb1e18ce,64c800bc00ce96ea23f42cd4,up,-1,0.75,0.5,4,0,0.2746,19,0,19,0,1,,,,,,,,,,
,,078340,001,2023-07-31_21h48.42.369,arm3_eps,2022.2.5,Win32,8.569200579,61070ae8d3d60051894d043d,64c7fed44a04f777bb1e18ce,64c800bc00ce96ea23f42cd4,right,-1,0.75,0.5,4,-0.028431293,0.1862,20,0,20,0,1,,,,,,,,,,
,,078340,001,2023-07-31_21h48.42.369,arm3_eps,2022.2.5,Win32,8.569200579,61070ae8d3d60051894d043d,64c7fed44a04f777bb1e18ce,64c800bc00ce96ea23f42cd4,right,-1,0.75,0.5,4,-0.036347145,0.2081,21,0,21,0,1,,,,,,,,,,
,,078340,001,2023-07-31_21h48.42.369,arm3_eps,2022.2.5,Win32,8.569200579,61070ae8d3d60051894d043d,64c7fed44a04f777bb1e18ce,64c800bc00ce96ea23f42cd4,right,-1,0.75,0.5,4,-0.025817875,0.1752,22,0,22,0,1,,,,,,,,,,
,,078340,001,2023-07-31_21h48.42.369,arm3_eps,2022.2.5,Win32,8.569200579,61070ae8d3d60051894d043d,64c7fed44a04f777bb1e18ce,64c800bc00ce96ea23f42cd4,down,1,0.75,0.5,4,0,0.2483,23,0,23,0,1,,,,,,,,,,
,,078340,001,2023-07-31_21h48.42.369,arm3_eps,2022.2.5,Win32,8.569200579,61070ae8d3d60051894d043d,64c7fed44a04f777bb1e18ce,64c800bc00ce96ea23f42cd4,right,1,0.75,0.5,4,0.029257357,0.17,24,0,24,0,1,,,,,,,,,,
,,078340,001,2023-07-31_21h48.42.369,arm3_eps,2022.2.5,Win32,8.569200579,61070ae8d3d60051894d043d,64c7fed44a04f777bb1e18ce,64c800bc00ce96ea23f42cd4,right,1,0.75,0.5,4,0.019827245,0.2331,25,0,25,0,1,,,,,,,,,,
,,078340,001,2023-07-31_21h48.42.369,arm3_eps,2022.2.5,Win32,8.569200579,61070ae8d3d60051894d043d,64c7fed44a04f777bb1e18ce,64c800bc00ce96ea23f42cd4,right,1,0.75,0.5,4,0.013046163,0.2202,26,0,26,0,1,,,,,,,,,,
,,078340,001,2023-07-31_21h48.42.369,arm3_eps,2022.2.5,Win32,8.569200579,61070ae8d3d60051894d043d,64c7fed44a04f777bb1e18ce,64c800bc00ce96ea23f42cd4,up,1,0.75,0.5,5,0,0.2561,27,0,27,0,1,,,,,,,,,,
,,078340,001,2023-07-31_21h48.42.369,arm3_eps,2022.2.5,Win32,8.569200579,61070ae8d3d60051894d043d,64c7fed44a04f777bb1e18ce,64c800bc00ce96ea23f42cd4,right,1,0.75,0.5,5,-0.004871469,0.2042,28,0,28,0,1,,,,,,,,,,
,,078340,001,2023-07-31_21h48.42.369,arm3_eps,2022.2.5,Win32,8.569200579,61070ae8d3d60051894d043d,64c7fed44a04f777bb1e18ce,64c800bc00ce96ea23f42cd4,right,1,0.75,0.5,5,-0.001877693,0.2059,29,0,29,0,1,,,,,,,,,,
,,078340,001,2023-07-31_21h48.42.369,arm3_eps,2022.2.5,Win32,8.569200579,61070ae8d3d60051894d043d,64c7fed44a04f777bb1e18ce,64c800bc00ce96ea23f42cd4,right,1,0.75,0.5,5,0.030661085,0.1933,30,0,30,0,1,,,,,,,,,,
,,078340,001,2023-07-31_21h48.42.369,arm3_eps,2022.2.5,Win32,8.569200579,61070ae8d3d60051894d043d,64c7fed44a04f777bb1e18ce,64c800bc00ce96ea23f42cd4,up,1,0.75,0.5,5,0,0.3473,31,0,31,0,1,,,,,,,,,,
,,078340,001,2023-07-31_21h48.42.369,arm3_eps,2022.2.5,Win32,8.569200579,61070ae8d3d60051894d043d,64c7fed44a04f777bb1e18ce,64c800bc00ce96ea23f42cd4,right,1,0.75,0.5,5,0.02061629,0.1431,32,0,32,0,1,,,,,,,,,,
,,078340,001,2023-07-31_21h48.42.369,arm3_eps,2022.2.5,Win32,8.569200579,61070ae8d3d60051894d043d,64c7fed44a04f777bb1e18ce,64c800bc00ce96ea23f42cd4,right,1,0.75,0.5,5,0.023176575,0.2255,33,0,33,0,1,,,,,,,,,,
,,078340,001,2023-07-31_21h48.42.369,arm3_eps,2022.2.5,Win32,8.569200579,61070ae8d3d60051894d043d,64c7fed44a04f777bb1e18ce,64c800bc00ce96ea23f42cd4,right,1,0.75,0.5,5,0.07090013,0.2078,34,0,34,0,1,,,,,,,,,,
,,078340,001,2023-07-31_21h48.42.369,arm3_eps,2022.2.5,Win32,8.569200579,61070ae8d3d60051894d043d,64c7fed44a04f777bb1e18ce,64c800bc00ce96ea23f42cd4,up,-1,0.75,0.5,6,0,0.2067,35,0,35,0,1,,,,,,,,,,
,,078340,001,2023-07-31_21h48.42.369,arm3_eps,2022.2.5,Win32,8.569200579,61070ae8d3d60051894d043d,64c7fed44a04f777bb1e18ce,64c800bc00ce96ea23f42cd4,right,-1,0.75,0.5,6,0.003965962,0.2258,36,0,36,0,1,,,,,,,,,,
,,078340,001,2023-07-31_21h48.42.369,arm3_eps,2022.2.5,Win32,8.569200579,61070ae8d3d60051894d043d,64c7fed44a04f777bb1e18ce,64c800bc00ce96ea23f42cd4,right,-1,0.75,0.5,6,-0.027790626,0.1829,37,0,37,0,1,,,,,,,,,,
,,078340,001,2023-07-31_21h48.42.369,arm3_eps,2022.2.5,Win32,8.569200579,61070ae8d3d60051894d043d,64c7fed44a04f777bb1e18ce,64c800bc00ce96ea23f42cd4,right,-1,0.75,0.5,6,-0.003267221,0.1728,38,0,38,0,1,,,,,,,,,,
,,078340,001,2023-07-31_21h48.42.369,arm3_eps,2022.2.5,Win32,8.569200579,61070ae8d3d60051894d043d,64c7fed44a04f777bb1e18ce,64c800bc00ce96ea23f42cd4,down,-1,0.75,0.5,7,0,0.4175,39,0,39,0,1,,,,,,,,,,
,,078340,001,2023-07-31_21h48.42.369,arm3_eps,2022.2.5,Win32,8.569200579,61070ae8d3d60051894d043d,64c7fed44a04f777bb1e18ce,64c800bc00ce96ea23f42cd4,right,-1,0.75,0.5,7,-0.022219765,0.2293,40,0,40,0,1,,,,,,,,,,
,,078340,001,2023-07-31_21h48.42.369,arm3_eps,2022.2.5,Win32,8.569200579,61070ae8d3d60051894d043d,64c7fed44a04f777bb1e18ce,64c800bc00ce96ea23f42cd4,right,-1,0.75,0.5,7,-0.028147814,0.1842,41,0,41,0,1,,,,,,,,,,
,,078340,001,2023-07-31_21h48.42.369,arm3_eps,2022.2.5,Win32,8.569200579,61070ae8d3d60051894d043d,64c7fed44a04f777bb1e18ce,64c800bc00ce96ea23f42cd4,right,-1,0.75,0.5,7,-0.036921705,0.1797,42,0,42,0,1,,,,,,,,,,
,,078340,001,2023-07-31_21h48.42.369,arm3_eps,2022.2.5,Win32,8.569200579,61070ae8d3d60051894d043d,64c7fed44a04f777bb1e18ce,64c800bc00ce96ea23f42cd4,down,1,0.75,0.5,7,0,0.4921,43,0,43,0,1,,,,,,,,,,
,,078340,001,2023-07-31_21h48.42.369,arm3_eps,2022.2.5,Win32,8.569200579,61070ae8d3d60051894d043d,64c7fed44a04f777bb1e18ce,64c800bc00ce96ea23f42cd4,right,1,0.75,0.5,7,-0.004092661,0.2887,44,0,44,0,1,,,,,,,,,,
,,078340,001,2023-07-31_21h48.42.369,arm3_eps,2022.2.5,Win32,8.569200579,61070ae8d3d60051894d043d,64c7fed44a04f777bb1e18ce,64c800bc00ce96ea23f42cd4,right,1,0.75,0.5,7,-0.017652167,0.35,45,0,45,0,1,,,,,,,,,,
,,078340,001,2023-07-31_21h48.42.369,arm3_eps,2022.2.5,Win32,8.569200579,61070ae8d3d60051894d043d,64c7fed44a04f777bb1e18ce,64c800bc00ce96ea23f42cd4,right,1,0.75,0.5,7,-0.0104201,0.169,46,0,46,0,1,,,,,,,,,,
,,078340,001,2023-07-31_21h48.42.369,arm3_eps,2022.2.5,Win32,8.569200579,61070ae8d3d60051894d043d,64c7fed44a04f777bb1e18ce,64c800bc00ce96ea23f42cd4,down,1,0.75,0.5,6,0,0.3126,47,0,47,0,1,,,,,,,,,,
,,078340,001,2023-07-31_21h48.42.369,arm3_eps,2022.2.5,Win32,8.569200579,61070ae8d3d60051894d043d,64c7fed44a04f777bb1e18ce,64c800bc00ce96ea23f42cd4,right,1,0.75,0.5,6,0.035845981,0.2968,48,0,48,0,1,,,,,,,,,,
,,078340,001,2023-07-31_21h48.42.369,arm3_eps,2022.2.5,Win32,8.569200579,61070ae8d3d60051894d043d,64c7fed44a04f777bb1e18ce,64c800bc00ce96ea23f42cd4,right,1,0.75,0.5,6,0.030761202,0.1833,49,0,49,0,1,,,,,,,,,,
space,0.601,078340,001,2023-07-31_21h48.42.369,arm3_eps,2022.2.5,Win32,8.569200579,61070ae8d3d60051894d043d,64c7fed44a04f777bb1e18ce,64c800bc00ce96ea23f42cd4,,,,,,,,,,,,,,,,,,,,,,
space,0.7345,078340,001,2023-07-31_21h48.42.369,arm3_eps,2022.2.5,Win32,8.569200579,61070ae8d3d60051894d043d,64c7fed44a04f777bb1e18ce,64c800bc00ce96ea23f42cd4,right,1,0.75,0.4357,0,0.019556688,0.3409,,,,,,0,0,0,0,1,,,,,
,,078340,001,2023-07-31_21h48.42.369,arm3_eps,2022.2.5,Win32,8.569200579,61070ae8d3d60051894d043d,64c7fed44a04f777bb1e18ce,64c800bc00ce96ea23f42cd4,right,1,0.75,0.4357,0,0.03139096,0.1535,,,,,,1,0,1,0,1,,,,,
,,078340,001,2023-07-31_21h48.42.369,arm3_eps,2022.2.5,Win32,8.569200579,61070ae8d3d60051894d043d,64c7fed44a04f777bb1e18ce,64c800bc00ce96ea23f42cd4,right,1,0.75,0.4357,0,0.023429222,0.1524,,,,,,2,0,2,0,1,,,,,
,,078340,001,2023-07-31_21h48.42.369,arm3_eps,2022.2.5,Win32,8.569200579,61070ae8d3d60051894d043d,64c7fed44a04f777bb1e18ce,64c800bc00ce96ea23f42cd4,up,-1,0.75,0.4357,1,0,0.2164,,,,,,3,0,3,0,1,,,,,
,,078340,001,2023-07-31_21h48.42.369,arm3_eps,2022.2.5,Win32,8.569200579,61070ae8d3d60051894d043d,64c7fed44a04f777bb1e18ce,64c800bc00ce96ea23f42cd4,right,-1,0.75,0.4357,1,-0.005250188,0.1344,,,,,,4,0,4,0,1,,,,,
,,078340,001,2023-07-31_21h48.42.369,arm3_eps,2022.2.5,Win32,8.569200579,61070ae8d3d60051894d043d,64c7fed44a04f777bb1e18ce,64c800bc00ce96ea23f42cd4,right,-1,0.75,0.4357,1,-0.008529302,0.282,,,,,,5,0,5,0,1,,,,,
,,078340,001,2023-07-31_21h48.42.369,arm3_eps,2022.2.5,Win32,8.569200579,61070ae8d3d60051894d043d,64c7fed44a04f777bb1e18ce,64c800bc00ce96ea23f42cd4,right,-1,0.75,0.4357,1,-0.033770806,0.1605,,,,,,6,0,6,0,1,,,,,
,,078340,001,2023-07-31_21h48.42.369,arm3_eps,2022.2.5,Win32,8.569200579,61070ae8d3d60051894d043d,64c7fed44a04f777bb1e18ce,64c800bc00ce96ea23f42cd4,down,-1,0.75,0.4357,1,0,0.1696,,,,,,7,0,7,0,1,,,,,
,,078340,001,2023-07-31_21h48.42.369,arm3_eps,2022.2.5,Win32,8.569200579,61070ae8d3d60051894d043d,64c7fed44a04f777bb1e18ce,64c800bc00ce96ea23f42cd4,right,-1,0.75,0.4357,1,0.038605039,0.1523,,,,,,8,0,8,0,1,,,,,
,,078340,001,2023-07-31_21h48.42.369,arm3_eps,2022.2.5,Win32,8.569200579,61070ae8d3d60051894d043d,64c7fed44a04f777bb1e18ce,64c800bc00ce96ea23f42cd4,right,-1,0.75,0.4357,1,0.029826589,0.1673,,,,,,9,0,9,0,1,,,,,
,,078340,001,2023-07-31_21h48.42.369,arm3_eps,2022.2.5,Win32,8.569200579,61070ae8d3d60051894d043d,64c7fed44a04f777bb1e18ce,64c800bc00ce96ea23f42cd4,right,-1,0.75,0.4357,1,0.026392596,0.1574,,,,,,10,0,10,0,1,,,,,
,,078340,001,2023-07-31_21h48.42.369,arm3_eps,2022.2.5,Win32,8.569200579,61070ae8d3d60051894d043d,64c7fed44a04f777bb1e18ce,64c800bc00ce96ea23f42cd4,up,-1,0.75,0.4357,0,0,0.2504,,,,,,11,0,11,0,1,,,,,
,,078340,001,2023-07-31_21h48.42.369,arm3_eps,2022.2.5,Win32,8.569200579,61070ae8d3d60051894d043d,64c7fed44a04f777bb1e18ce,64c800bc00ce96ea23f42cd4,right,-1,0.75,0.4357,0,-0.025192901,0.1801,,,,,,12,0,12,0,1,,,,,
,,078340,001,2023-07-31_21h48.42.369,arm3_eps,2022.2.5,Win32,8.569200579,61070ae8d3d60051894d043d,64c7fed44a04f777bb1e18ce,64c800bc00ce96ea23f42cd4,right,-1,0.75,0.4357,0,-0.021572681,0.1899,,,,,,13,0,13,0,1,,,,,
,,078340,001,2023-07-31_21h48.42.369,arm3_eps,2022.2.5,Win32,8.569200579,61070ae8d3d60051894d043d,64c7fed44a04f777bb1e18ce,64c800bc00ce96ea23f42cd4,right,-1,0.75,0.4357,0,-0.033820662,0.1972,,,,,,14,0,14,0,1,,,,,
,,078340,001,2023-07-31_21h48.42.369,arm3_eps,2022.2.5,Win32,8.569200579,61070ae8d3d60051894d043d,64c7fed44a04f777bb1e18ce,64c800bc00ce96ea23f42cd4,down,-1,0.75,0.4357,0,0,0.1785,,,,,,15,0,15,0,1,,,,,
,,078340,001,2023-07-31_21h48.42.369,arm3_eps,2022.2.5,Win32,8.569200579,61070ae8d3d60051894d043d,64c7fed44a04f777bb1e18ce,64c800bc00ce96ea23f42cd4,right,-1,0.75,0.4357,0,-0.007642761,0.163,,,,,,16,0,16,0,1,,,,,
,,078340,001,2023-07-31_21h48.42.369,arm3_eps,2022.2.5,Win32,8.569200579,61070ae8d3d60051894d043d,64c7fed44a04f777bb1e18ce,64c800bc00ce96ea23f42cd4,right,-1,0.75,0.4357,0,0.008523992,0.1868,,,,,,17,0,17,0,1,,,,,
,,078340,001,2023-07-31_21h48.42.369,arm3_eps,2022.2.5,Win32,8.569200579,61070ae8d3d60051894d043d,64c7fed44a04f777bb1e18ce,64c800bc00ce96ea23f42cd4,right,-1,0.75,0.4357,0,-0.01170728,0.1783,,,,,,18,0,18,0,1,,,,,
,,078340,001,2023-07-31_21h48.42.369,arm3_eps,2022.2.5,Win32,8.569200579,61070ae8d3d60051894d043d,64c7fed44a04f777bb1e18ce,64c800bc00ce96ea23f42cd4,down,-1,0.75,0.4357,1,0,0.4846,,,,,,19,0,19,0,1,,,,,
,,078340,001,2023-07-31_21h48.42.369,arm3_eps,2022.2.5,Win32,8.569200579,61070ae8d3d60051894d043d,64c7fed44a04f777bb1e18ce,64c800bc00ce96ea23f42cd4,right,-1,0.75,0.4357,1,-0.01620824,0.134,,,,,,20,0,20,0,1,,,,,
,,078340,001,2023-07-31_21h48.42.369,arm3_eps,2022.2.5,Win32,8.569200579,61070ae8d3d60051894d043d,64c7fed44a04f777bb1e18ce,64c800bc00ce96ea23f42cd4,right,-1,0.75,0.4357,1,-0.043806338,0.1676,,,,,,21,0,21,0,1,,,,,
,,078340,001,2023-07-31_21h48.42.369,arm3_eps,2022.2.5,Win32,8.569200579,61070ae8d3d60051894d043d,64c7fed44a04f777bb1e18ce,64c800bc00ce96ea23f42cd4,right,-1,0.75,0.4357,1,-0.020300753,0.2071,,,,,,22,0,22,0,1,,,,,
,,078340,001,2023-07-31_21h48.42.369,arm3_eps,2022.2.5,Win32,8.569200579,61070ae8d3d60051894d043d,64c7fed44a04f777bb1e18ce,64c800bc00ce96ea23f42cd4,down,1,0.75,0.4357,2,0,0.2551,,,,,,23,0,23,0,1,,,,,
,,078340,001,2023-07-31_21h48.42.369,arm3_eps,2022.2.5,Win32,8.569200579,61070ae8d3d60051894d043d,64c7fed44a04f777bb1e18ce,64c800bc00ce96ea23f42cd4,right,1,0.75,0.4357,2,-0.005553144,0.1352,,,,,,24,0,24,0,1,,,,,
,,078340,001,2023-07-31_21h48.42.369,arm3_eps,2022.2.5,Win32,8.569200579,61070ae8d3d60051894d043d,64c7fed44a04f777bb1e18ce,64c800bc00ce96ea23f42cd4,right,1,0.75,0.4357,2,-0.03569314,0.1989,,,,,,25,0,25,0,1,,,,,
,,078340,001,2023-07-31_21h48.42.369,arm3_eps,2022.2.5,Win32,8.569200579,61070ae8d3d60051894d043d,64c7fed44a04f777bb1e18ce,64c800bc00ce96ea23f42cd4,right,1,0.75,0.4357,2,-0.021116897,0.1349,,,,,,26,0,26,0,1,,,,,
,,078340,001,2023-07-31_21h48.42.369,arm3_eps,2022.2.5,Win32,8.569200579,61070ae8d3d60051894d043d,64c7fed44a04f777bb1e18ce,64c800bc00ce96ea23f42cd4,down,1,0.75,0.4357,1,0,0.5628,,,,,,27,0,27,0,1,,,,,
,,078340,001,2023-07-31_21h48.42.369,arm3_eps,2022.2.5,Win32,8.569200579,61070ae8d3d60051894d043d,64c7fed44a04f777bb1e18ce,64c800bc00ce96ea23f42cd4,right,1,0.75,0.4357,1,0.02364823,0.4272,,,,,,28,0,28,0,1,,,,,
,,078340,001,2023-07-31_21h48.42.369,arm3_eps,2022.2.5,Win32,8.569200579,61070ae8d3d60051894d043d,64c7fed44a04f777bb1e18ce,64c800bc00ce96ea23f42cd4,right,1,0.75,0.4357,1,0.057043406,0.2433,,,,,,29,0,29,0,1,,,,,
,,078340,001,2023-07-31_21h48.42.369,arm3_eps,2022.2.5,Win32,8.569200579,61070ae8d3d60051894d043d,64c7fed44a04f777bb1e18ce,64c800bc00ce96ea23f42cd4,right,1,0.75,0.4357,1,0.064234611,0.1574,,,,,,30,0,30,0,1,,,,,
,,078340,001,2023-07-31_21h48.42.369,arm3_eps,2022.2.5,Win32,8.569200579,61070ae8d3d60051894d043d,64c7fed44a04f777bb1e18ce,64c800bc00ce96ea23f42cd4,up,1,0.75,0.4357,2,0,0.243,,,,,,31,0,31,0,1,,,,,
,,078340,001,2023-07-31_21h48.42.369,arm3_eps,2022.2.5,Win32,8.569200579,61070ae8d3d60051894d043d,64c7fed44a04f777bb1e18ce,64c800bc00ce96ea23f42cd4,right,1,0.75,0.4357,2,-0.032328501,0.1151,,,,,,32,0,32,0,1,,,,,
,,078340,001,2023-07-31_21h48.42.369,arm3_eps,2022.2.5,Win32,8.569200579,61070ae8d3d60051894d043d,64c7fed44a04f777bb1e18ce,64c800bc00ce96ea23f42cd4,right,1,0.75,0.4357,2,-0.040232818,0.2161,,,,,,33,0,33,0,1,,,,,
,,078340,001,2023-07-31_21h48.42.369,arm3_eps,2022.2.5,Win32,8.569200579,61070ae8d3d60051894d043d,64c7fed44a04f777bb1e18ce,64c800bc00ce96ea23f42cd4,right,1,0.75,0.4357,2,-0.044284516,0.1732,,,,,,34,0,34,0,1,,,,,
,,078340,001,2023-07-31_21h48.42.369,arm3_eps,2022.2.5,Win32,8.569200579,61070ae8d3d60051894d043d,64c7fed44a04f777bb1e18ce,64c800bc00ce96ea23f42cd4,down,1,0.75,0.4357,1,0,0.2198,,,,,,35,0,35,0,1,,,,,
,,078340,001,2023-07-31_21h48.42.369,arm3_eps,2022.2.5,Win32,8.569200579,61070ae8d3d60051894d043d,64c7fed44a04f777bb1e18ce,64c800bc00ce96ea23f42cd4,right,1,0.75,0.4357,1,0.014365969,0.1498,,,,,,36,0,36,0,1,,,,,
,,078340,001,2023-07-31_21h48.42.369,arm3_eps,2022.2.5,Win32,8.569200579,61070ae8d3d60051894d043d,64c7fed44a04f777bb1e18ce,64c800bc00ce96ea23f42cd4,right,1,0.75,0.4357,1,-0.005148354,0.175,,,,,,37,0,37,0,1,,,,,
,,078340,001,2023-07-31_21h48.42.369,arm3_eps,2022.2.5,Win32,8.569200579,61070ae8d3d60051894d043d,64c7fed44a04f777bb1e18ce,64c800bc00ce96ea23f42cd4,right,1,0.75,0.4357,1,-0.003928602,0.1551,,,,,,38,0,38,0,1,,,,,
,,078340,001,2023-07-31_21h48.42.369,arm3_eps,2022.2.5,Win32,8.569200579,61070ae8d3d60051894d043d,64c7fed44a04f777bb1e18ce,64c800bc00ce96ea23f42cd4,up,-1,0.75,0.4357,2,0,0.4644,,,,,,39,0,39,0,1,,,,,
,,078340,001,2023-07-31_21h48.42.369,arm3_eps,2022.2.5,Win32,8.569200579,61070ae8d3d60051894d043d,64c7fed44a04f777bb1e18ce,64c800bc00ce96ea23f42cd4,right,-1,0.75,0.4357,2,-0.021030043,0.1527,,,,,,40,0,40,0,1,,,,,
,,078340,001,2023-07-31_21h48.42.369,arm3_eps,2022.2.5,Win32,8.569200579,61070ae8d3d60051894d043d,64c7fed44a04f777bb1e18ce,64c800bc00ce96ea23f42cd4,right,-1,0.75,0.4357,2,-0.01805775,0.18,,,,,,41,0,41,0,1,,,,,
,,078340,001,2023-07-31_21h48.42.369,arm3_eps,2022.2.5,Win32,8.569200579,61070ae8d3d60051894d043d,64c7fed44a04f777bb1e18ce,64c800bc00ce96ea23f42cd4,right,-1,0.75,0.4357,2,0.012164625,0.134,,,,,,42,0,42,0,1,,,,,
,,078340,001,2023-07-31_21h48.42.369,arm3_eps,2022.2.5,Win32,8.569200579,61070ae8d3d60051894d043d,64c7fed44a04f777bb1e18ce,64c800bc00ce96ea23f42cd4,down,-1,0.75,0.4357,2,0,0.5154,,,,,,43,0,43,0,1,,,,,
,,078340,001,2023-07-31_21h48.42.369,arm3_eps,2022.2.5,Win32,8.569200579,61070ae8d3d60051894d043d,64c7fed44a04f777bb1e18ce,64c800bc00ce96ea23f42cd4,right,-1,0.75,0.4357,2,-0.016983681,0.1791,,,,,,44,0,44,0,1,,,,,
,,078340,001,2023-07-31_21h48.42.369,arm3_eps,2022.2.5,Win32,8.569200579,61070ae8d3d60051894d043d,64c7fed44a04f777bb1e18ce,64c800bc00ce96ea23f42cd4,right,-1,0.75,0.4357,2,-0.023906959,0.176,,,,,,45,0,45,0,1,,,,,
,,078340,001,2023-07-31_21h48.42.369,arm3_eps,2022.2.5,Win32,8.569200579,61070ae8d3d60051894d043d,64c7fed44a04f777bb1e18ce,64c800bc00ce96ea23f42cd4,right,-1,0.75,0.4357,2,-0.002273914,0.1272,,,,,,46,0,46,0,1,,,,,
,,078340,001,2023-07-31_21h48.42.369,arm3_eps,2022.2.5,Win32,8.569200579,61070ae8d3d60051894d043d,64c7fed44a04f777bb1e18ce,64c800bc00ce96ea23f42cd4,down,-1,0.75,0.4357,2,0,0.3663,,,,,,47,0,47,0,1,,,,,
,,078340,001,2023-07-31_21h48.42.369,arm3_eps,2022.2.5,Win32,8.569200579,61070ae8d3d60051894d043d,64c7fed44a04f777bb1e18ce,64c800bc00ce96ea23f42cd4,right,-1,0.75,0.4357,2,-0.060165806,0.2071,,,,,,48,0,48,0,1,,,,,
,,078340,001,2023-07-31_21h48.42.369,arm3_eps,2022.2.5,Win32,8.569200579,61070ae8d3d60051894d043d,64c7fed44a04f777bb1e18ce,64c800bc00ce96ea23f42cd4,right,-1,0.75,0.4357,2,-0.055206863,0.179,,,,,,49,0,49,0,1,,,,,
,,078340,001,2023-07-31_21h48.42.369,arm3_eps,2022.2.5,Win32,8.569200579,61070ae8d3d60051894d043d,64c7fed44a04f777bb1e18ce,64c800bc00ce96ea23f42cd4,right,-1,0.75,0.4357,2,-0.052046428,0.1889,,,,,,50,0,50,0,1,,,,,
,,078340,001,2023-07-31_21h48.42.369,arm3_eps,2022.2.5,Win32,8.569200579,61070ae8d3d60051894d043d,64c7fed44a04f777bb1e18ce,64c800bc00ce96ea23f42cd4,down,1,0.75,0.4357,3,0,0.2086,,,,,,51,0,51,0,1,,,,,
,,078340,001,2023-07-31_21h48.42.369,arm3_eps,2022.2.5,Win32,8.569200579,61070ae8d3d60051894d043d,64c7fed44a04f777bb1e18ce,64c800bc00ce96ea23f42cd4,right,1,0.75,0.4357,3,0.010340072,0.1105,,,,,,52,0,52,0,1,,,,,
,,078340,001,2023-07-31_21h48.42.369,arm3_eps,2022.2.5,Win32,8.569200579,61070ae8d3d60051894d043d,64c7fed44a04f777bb1e18ce,64c800bc00ce96ea23f42cd4,right,1,0.75,0.4357,3,-0.01611308,0.2294,,,,,,53,0,53,0,1,,,,,
,,078340,001,2023-07-31_21h48.42.369,arm3_eps,2022.2.5,Win32,8.569200579,61070ae8d3d60051894d043d,64c7fed44a04f777bb1e18ce,64c800bc00ce96ea23f42cd4,right,1,0.75,0.4357,3,-0.014114914,0.1845,,,,,,54,0,54,0,1,,,,,
,,078340,001,2023-07-31_21h48.42.369,arm3_eps,2022.2.5,Win32,8.569200579,61070ae8d3d60051894d043d,64c7fed44a04f777bb1e18ce,64c800bc00ce96ea23f42cd4,down,1,0.75,0.4357,2,0,0.3006,,,,,,55,0,55,0,1,,,,,
,,078340,001,2023-07-31_21h48.42.369,arm3_eps,2022.2.5,Win32,8.569200579,61070ae8d3d60051894d043d,64c7fed44a04f777bb1e18ce,64c800bc00ce96ea23f42cd4,right,1,0.75,0.4357,2,0.018197519,0.217,,,,,,56,0,56,0,1,,,,,
,,078340,001,2023-07-31_21h48.42.369,arm3_eps,2022.2.5,Win32,8.569200579,61070ae8d3d60051894d043d,64c7fed44a04f777bb1e18ce,64c800bc00ce96ea23f42cd4,right,1,0.75,0.4357,2,0.01656588,0.177,,,,,,57,0,57,0,1,,,,,
,,078340,001,2023-07-31_21h48.42.369,arm3_eps,2022.2.5,Win32,8.569200579,61070ae8d3d60051894d043d,64c7fed44a04f777bb1e18ce,64c800bc00ce96ea23f42cd4,right,1,0.75,0.4357,2,0.032036963,0.1547,,,,,,58,0,58,0,1,,,,,
,,078340,001,2023-07-31_21h48.42.369,arm3_eps,2022.2.5,Win32,8.569200579,61070ae8d3d60051894d043d,64c7fed44a04f777bb1e18ce,64c800bc00ce96ea23f42cd4,up,1,0.75,0.4357,3,0,0.2288,,,,,,59,0,59,0,1,,,,,
,,078340,001,2023-07-31_21h48.42.369,arm3_eps,2022.2.5,Win32,8.569200579,61070ae8d3d60051894d043d,64c7fed44a04f777bb1e18ce,64c800bc00ce96ea23f42cd4,right,1,0.75,0.4357,3,0.022613136,0.1846,,,,,,60,0,60,0,1,,,,,
,,078340,001,2023-07-31_21h48.42.369,arm3_eps,2022.2.5,Win32,8.569200579,61070ae8d3d60051894d043d,64c7fed44a04f777bb1e18ce,64c800bc00ce96ea23f42cd4,right,1,0.75,0.4357,3,0.006666295,0.1667,,,,,,61,0,61,0,1,,,,,
,,078340,001,2023-07-31_21h48.42.369,arm3_eps,2022.2.5,Win32,8.569200579,61070ae8d3d60051894d043d,64c7fed44a04f777bb1e18ce,64c800bc00ce96ea23f42cd4,right,1,0.75,0.4357,3,0.055992122,0.1738,,,,,,62,0,62,0,1,,,,,
,,078340,001,2023-07-31_21h48.42.369,arm3_eps,2022.2.5,Win32,8.569200579,61070ae8d3d60051894d043d,64c7fed44a04f777bb1e18ce,64c800bc00ce96ea23f42cd4,up,-1,0.75,0.4357,4,0,0.2044,,,,,,63,0,63,0,1,,,,,
,,078340,001,2023-07-31_21h48.42.369,arm3_eps,2022.2.5,Win32,8.569200579,61070ae8d3d60051894d043d,64c7fed44a04f777bb1e18ce,64c800bc00ce96ea23f42cd4,right,-1,0.75,0.4357,4,0.008486855,0.2053,,,,,,64,0,64,0,1,,,,,
,,078340,001,2023-07-31_21h48.42.369,arm3_eps,2022.2.5,Win32,8.569200579,61070ae8d3d60051894d043d,64c7fed44a04f777bb1e18ce,64c800bc00ce96ea23f42cd4,right,-1,0.75,0.4357,4,0.023447888,0.1552,,,,,,65,0,65,0,1,,,,,
,,078340,001,2023-07-31_21h48.42.369,arm3_eps,2022.2.5,Win32,8.569200579,61070ae8d3d60051894d043d,64c7fed44a04f777bb1e18ce,64c800bc00ce96ea23f42cd4,right,-1,0.75,0.4357,4,0.00708359,0.1631,,,,,,66,0,66,0,1,,,,,
,,078340,001,2023-07-31_21h48.42.369,arm3_eps,2022.2.5,Win32,8.569200579,61070ae8d3d60051894d043d,64c7fed44a04f777bb1e18ce,64c800bc00ce96ea23f42cd4,up,-1,0.75,0.4357,4,0,0.392,,,,,,67,0,67,0,1,,,,,
,,078340,001,2023-07-31_21h48.42.369,arm3_eps,2022.2.5,Win32,8.569200579,61070ae8d3d60051894d043d,64c7fed44a04f777bb1e18ce,64c800bc00ce96ea23f42cd4,right,-1,0.75,0.4357,4,-0.000812135,0.1017,,,,,,68,0,68,0,1,,,,,
,,078340,001,2023-07-31_21h48.42.369,arm3_eps,2022.2.5,Win32,8.569200579,61070ae8d3d60051894d043d,64c7fed44a04f777bb1e18ce,64c800bc00ce96ea23f42cd4,right,-1,0.75,0.4357,4,-0.015179065,0.2327,,,,,,69,0,69,0,1,,,,,
,,078340,001,2023-07-31_21h48.42.369,arm3_eps,2022.2.5,Win32,8.569200579,61070ae8d3d60051894d043d,64c7fed44a04f777bb1e18ce,64c800bc00ce96ea23f42cd4,right,-1,0.75,0.4357,4,0.01979754,0.1513,,,,,,70,0,70,0,1,,,,,
,,078340,001,2023-07-31_21h48.42.369,arm3_eps,2022.2.5,Win32,8.569200579,61070ae8d3d60051894d043d,64c7fed44a04f777bb1e18ce,64c800bc00ce96ea23f42cd4,up,1,0.75,0.4357,4,0,0.395,,,,,,71,0,71,0,1,,,,,
,,078340,001,2023-07-31_21h48.42.369,arm3_eps,2022.2.5,Win32,8.569200579,61070ae8d3d60051894d043d,64c7fed44a04f777bb1e18ce,64c800bc00ce96ea23f42cd4,right,1,0.75,0.4357,4,-0.009136173,0.1653,,,,,,72,0,72,0,1,,,,,
,,078340,001,2023-07-31_21h48.42.369,arm3_eps,2022.2.5,Win32,8.569200579,61070ae8d3d60051894d043d,64c7fed44a04f777bb1e18ce,64c800bc00ce96ea23f42cd4,right,1,0.75,0.4357,4,-0.020053763,0.2036,,,,,,73,0,73,0,1,,,,,
,,078340,001,2023-07-31_21h48.42.369,arm3_eps,2022.2.5,Win32,8.569200579,61070ae8d3d60051894d043d,64c7fed44a04f777bb1e18ce,64c800bc00ce96ea23f42cd4,right,1,0.75,0.4357,4,-0.020800815,0.2244,,,,,,74,0,74,0,1,,,,,
,,078340,001,2023-07-31_21h48.42.369,arm3_eps,2022.2.5,Win32,8.569200579,61070ae8d3d60051894d043d,64c7fed44a04f777bb1e18ce,64c800bc00ce96ea23f42cd4,down,1,0.75,0.4357,4,0,0.2509,,,,,,75,0,75,0,1,,,,,
,,078340,001,2023-07-31_21h48.42.369,arm3_eps,2022.2.5,Win32,8.569200579,61070ae8d3d60051894d043d,64c7fed44a04f777bb1e18ce,64c800bc00ce96ea23f42cd4,right,1,0.75,0.4357,4,0.022479264,0.1698,,,,,,76,0,76,0,1,,,,,
,,078340,001,2023-07-31_21h48.42.369,arm3_eps,2022.2.5,Win32,8.569200579,61070ae8d3d60051894d043d,64c7fed44a04f777bb1e18ce,64c800bc00ce96ea23f42cd4,right,1,0.75,0.4357,4,0.032795355,0.213,,,,,,77,0,77,0,1,,,,,
,,078340,001,2023-07-31_21h48.42.369,arm3_eps,2022.2.5,Win32,8.569200579,61070ae8d3d60051894d043d,64c7fed44a04f777bb1e18ce,64c800bc00ce96ea23f42cd4,right,1,0.75,0.4357,4,0.055249417,0.1234,,,,,,78,0,78,0,1,,,,,
,,078340,001,2023-07-31_21h48.42.369,arm3_eps,2022.2.5,Win32,8.569200579,61070ae8d3d60051894d043d,64c7fed44a04f777bb1e18ce,64c800bc00ce96ea23f42cd4,up,-1,0.75,0.4357,5,0,0.2593,,,,,,79,0,79,0,1,,,,,
,,078340,001,2023-07-31_21h48.42.369,arm3_eps,2022.2.5,Win32,8.569200579,61070ae8d3d60051894d043d,64c7fed44a04f777bb1e18ce,64c800bc00ce96ea23f42cd4,right,-1,0.75,0.4357,5,0.014967159,0.192,,,,,,80,0,80,0,1,,,,,
,,078340,001,2023-07-31_21h48.42.369,arm3_eps,2022.2.5,Win32,8.569200579,61070ae8d3d60051894d043d,64c7fed44a04f777bb1e18ce,64c800bc00ce96ea23f42cd4,right,-1,0.75,0.4357,5,0.02035157,0.1438,,,,,,81,0,81,0,1,,,,,
,,078340,001,2023-07-31_21h48.42.369,arm3_eps,2022.2.5,Win32,8.569200579,61070ae8d3d60051894d043d,64c7fed44a04f777bb1e18ce,64c800bc00ce96ea23f42cd4,right,-1,0.75,0.4357,5,0.017045975,0.1361,,,,,,82,0,82,0,1,,,,,
,,078340,001,2023-07-31_21h48.42.369,arm3_eps,2022.2.5,Win32,8.569200579,61070ae8d3d60051894d043d,64c7fed44a04f777bb1e18ce,64c800bc00ce96ea23f42cd4,up,-1,0.75,0.4357,4,0,0.2508,,,,,,83,0,83,0,1,,,,,
,,078340,001,2023-07-31_21h48.42.369,arm3_eps,2022.2.5,Win32,8.569200579,61070ae8d3d60051894d043d,64c7fed44a04f777bb1e18ce,64c800bc00ce96ea23f42cd4,right,-1,0.75,0.4357,4,0.009161565,0.1442,,,,,,84,0,84,0,1,,,,,
,,078340,001,2023-07-31_21h48.42.369,arm3_eps,2022.2.5,Win32,8.569200579,61070ae8d3d60051894d043d,64c7fed44a04f777bb1e18ce,64c800bc00ce96ea23f42cd4,right,-1,0.75,0.4357,4,-0.00397034,0.153,,,,,,85,0,85,0,1,,,,,
,,078340,001,2023-07-31_21h48.42.369,arm3_eps,2022.2.5,Win32,8.569200579,61070ae8d3d60051894d043d,64c7fed44a04f777bb1e18ce,64c800bc00ce96ea23f42cd4,right,-1,0.75,0.4357,4,-0.003484926,0.101,,,,,,86,0,86,0,1,,,,,
,,078340,001,2023-07-31_21h48.42.369,arm3_eps,2022.2.5,Win32,8.569200579,61070ae8d3d60051894d043d,64c7fed44a04f777bb1e18ce,64c800bc00ce96ea23f42cd4,up,1,0.75,0.4357,3,0,0.6407,,,,,,87,0,87,0,1,,,,,
,,078340,001,2023-07-31_21h48.42.369,arm3_eps,2022.2.5,Win32,8.569200579,61070ae8d3d60051894d043d,64c7fed44a04f777bb1e18ce,64c800bc00ce96ea23f42cd4,right,1,0.75,0.4357,3,-0.005350829,0.2799,,,,,,88,0,88,0,1,,,,,
,,078340,001,2023-07-31_21h48.42.369,arm3_eps,2022.2.5,Win32,8.569200579,61070ae8d3d60051894d043d,64c7fed44a04f777bb1e18ce,64c800bc00ce96ea23f42cd4,right,1,0.75,0.4357,3,0.02046396,0.116,,,,,,89,0,89,0,1,,,,,
,,078340,001,2023-07-31_21h48.42.369,arm3_eps,2022.2.5,Win32,8.569200579,61070ae8d3d60051894d043d,64c7fed44a04f777bb1e18ce,64c800bc00ce96ea23f42cd4,right,1,0.75,0.4357,3,0.039313255,0.147,,,,,,90,0,90,0,1,,,,,
,,078340,001,2023-07-31_21h48.42.369,arm3_eps,2022.2.5,Win32,8.569200579,61070ae8d3d60051894d043d,64c7fed44a04f777bb1e18ce,64c800bc00ce96ea23f42cd4,up,-1,0.75,0.4357,4,0,0.2192,,,,,,91,0,91,0,1,,,,,
,,078340,001,2023-07-31_21h48.42.369,arm3_eps,2022.2.5,Win32,8.569200579,61070ae8d3d60051894d043d,64c7fed44a04f777bb1e18ce,64c800bc00ce96ea23f42cd4,right,-1,0.75,0.4357,4,0.018081005,0.1922,,,,,,92,0,92,0,1,,,,,
,,078340,001,2023-07-31_21h48.42.369,arm3_eps,2022.2.5,Win32,8.569200579,61070ae8d3d60051894d043d,64c7fed44a04f777bb1e18ce,64c800bc00ce96ea23f42cd4,right,-1,0.75,0.4357,4,0.007957577,0.1346,,,,,,93,0,93,0,1,,,,,
,,078340,001,2023-07-31_21h48.42.369,arm3_eps,2022.2.5,Win32,8.569200579,61070ae8d3d60051894d043d,64c7fed44a04f777bb1e18ce,64c800bc00ce96ea23f42cd4,right,-1,0.75,0.4357,4,-0.003198664,0.1236,,,,,,94,0,94,0,1,,,,,
,,078340,001,2023-07-31_21h48.42.369,arm3_eps,2022.2.5,Win32,8.569200579,61070ae8d3d60051894d043d,64c7fed44a04f777bb1e18ce,64c800bc00ce96ea23f42cd4,down,1,0.75,0.4357,5,0,0.3949,,,,,,95,0,95,0,1,,,,,
,,078340,001,2023-07-31_21h48.42.369,arm3_eps,2022.2.5,Win32,8.569200579,61070ae8d3d60051894d043d,64c7fed44a04f777bb1e18ce,64c800bc00ce96ea23f42cd4,right,1,0.75,0.4357,5,-0.018763348,0.1419,,,,,,96,0,96,0,1,,,,,
,,078340,001,2023-07-31_21h48.42.369,arm3_eps,2022.2.5,Win32,8.569200579,61070ae8d3d60051894d043d,64c7fed44a04f777bb1e18ce,64c800bc00ce96ea23f42cd4,right,1,0.75,0.4357,5,0.014879269,0.1829,,,,,,97,0,97,0,1,,,,,
,,078340,001,2023-07-31_21h48.42.369,arm3_eps,2022.2.5,Win32,8.569200579,61070ae8d3d60051894d043d,64c7fed44a04f777bb1e18ce,64c800bc00ce96ea23f42cd4,right,1,0.75,0.4357,5,0.035988548,0.1333,,,,,,98,0,98,0,1,,,,,
,,078340,001,2023-07-31_21h48.42.369,arm3_eps,2022.2.5,Win32,8.569200579,61070ae8d3d60051894d043d,64c7fed44a04f777bb1e18ce,64c800bc00ce96ea23f42cd4,up,-1,0.75,0.4357,6,0,0.1878,,,,,,99,0,99,0,1,,,,,
,,078340,001,2023-07-31_21h48.42.369,arm3_eps,2022.2.5,Win32,8.569200579,61070ae8d3d60051894d043d,64c7fed44a04f777bb1e18ce,64c800bc00ce96ea23f42cd4,right,-1,0.75,0.4357,6,-0.015279747,0.2004,,,,,,100,0,100,0,1,,,,,
,,078340,001,2023-07-31_21h48.42.369,arm3_eps,2022.2.5,Win32,8.569200579,61070ae8d3d60051894d043d,64c7fed44a04f777bb1e18ce,64c800bc00ce96ea23f42cd4,right,-1,0.75,0.4357,6,-0.037546041,0.1524,,,,,,101,0,101,0,1,,,,,
,,078340,001,2023-07-31_21h48.42.369,arm3_eps,2022.2.5,Win32,8.569200579,61070ae8d3d60051894d043d,64c7fed44a04f777bb1e18ce,64c800bc00ce96ea23f42cd4,down,1,0.75,0.4357,7,0,0.4059,,,,,,102,0,102,0,1,,,,,
,,078340,001,2023-07-31_21h48.42.369,arm3_eps,2022.2.5,Win32,8.569200579,61070ae8d3d60051894d043d,64c7fed44a04f777bb1e18ce,64c800bc00ce96ea23f42cd4,right,1,0.75,0.4357,7,0.025444246,0.2102,,,,,,103,0,103,0,1,,,,,
,,078340,001,2023-07-31_21h48.42.369,arm3_eps,2022.2.5,Win32,8.569200579,61070ae8d3d60051894d043d,64c7fed44a04f777bb1e18ce,64c800bc00ce96ea23f42cd4,right,1,0.75,0.4357,7,0.061677162,0.1544,,,,,,104,0,104,0,1,,,,,
,,078340,001,2023-07-31_21h48.42.369,arm3_eps,2022.2.5,Win32,8.569200579,61070ae8d3d60051894d043d,64c7fed44a04f777bb1e18ce,64c800bc00ce96ea23f42cd4,right,1,0.75,0.4357,7,0.074165515,0.1466,,,,,,105,0,105,0,1,,,,,
,,078340,001,2023-07-31_21h48.42.369,arm3_eps,2022.2.5,Win32,8.569200579,61070ae8d3d60051894d043d,64c7fed44a04f777bb1e18ce,64c800bc00ce96ea23f42cd4,up,1,0.75,0.4357,8,0,0.252,,,,,,106,0,106,0,1,,,,,
,,078340,001,2023-07-31_21h48.42.369,arm3_eps,2022.2.5,Win32,8.569200579,61070ae8d3d60051894d043d,64c7fed44a04f777bb1e18ce,64c800bc00ce96ea23f42cd4,right,1,0.75,0.4357,8,0.00013701,0.1337,,,,,,107,0,107,0,1,,,,,
,,078340,001,2023-07-31_21h48.42.369,arm3_eps,2022.2.5,Win32,8.569200579,61070ae8d3d60051894d043d,64c7fed44a04f777bb1e18ce,64c800bc00ce96ea23f42cd4,right,1,0.75,0.4357,8,0.021238076,0.1693,,,,,,108,0,108,0,1,,,,,
,,078340,001,2023-07-31_21h48.42.369,arm3_eps,2022.2.5,Win32,8.569200579,61070ae8d3d60051894d043d,64c7fed44a04f777bb1e18ce,64c800bc00ce96ea23f42cd4,right,1,0.75,0.4357,8,-0.000761428,0.128,,,,,,109,0,109,0,1,,,,,
,,078340,001,2023-07-31_21h48.42.369,arm3_eps,2022.2.5,Win32,8.569200579,61070ae8d3d60051894d043d,64c7fed44a04f777bb1e18ce,64c800bc00ce96ea23f42cd4,up,1,0.75,0.4357,9,0,0.2381,,,,,,110,0,110,0,1,,,,,
,,078340,001,2023-07-31_21h48.42.369,arm3_eps,2022.2.5,Win32,8.569200579,61070ae8d3d60051894d043d,64c7fed44a04f777bb1e18ce,64c800bc00ce96ea23f42cd4,right,1,0.75,0.4357,9,0.013188311,0.2225,,,,,,111,0,111,0,1,,,,,
,,078340,001,2023-07-31_21h48.42.369,arm3_eps,2022.2.5,Win32,8.569200579,61070ae8d3d60051894d043d,64c7fed44a04f777bb1e18ce,64c800bc00ce96ea23f42cd4,right,1,0.75,0.4357,9,0.02061325,0.1372,,,,,,112,0,112,0,1,,,,,
,,078340,001,2023-07-31_21h48.42.369,arm3_eps,2022.2.5,Win32,8.569200579,61070ae8d3d60051894d043d,64c7fed44a04f777bb1e18ce,64c800bc00ce96ea23f42cd4,right,1,0.75,0.4357,9,0.017135082,0.1354,,,,,,113,0,113,0,1,,,,,
,,078340,001,2023-07-31_21h48.42.369,arm3_eps,2022.2.5,Win32,8.569200579,61070ae8d3d60051894d043d,64c7fed44a04f777bb1e18ce,64c800bc00ce96ea23f42cd4,up,-1,0.75,0.4357,10,0,0.2236,,,,,,114,0,114,0,1,,,,,
,,078340,001,2023-07-31_21h48.42.369,arm3_eps,2022.2.5,Win32,8.569200579,61070ae8d3d60051894d043d,64c7fed44a04f777bb1e18ce,64c800bc00ce96ea23f42cd4,right,-1,0.75,0.4357,10,-0.020803515,0.141,,,,,,115,0,115,0,1,,,,,
,,078340,001,2023-07-31_21h48.42.369,arm3_eps,2022.2.5,Win32,8.569200579,61070ae8d3d60051894d043d,64c7fed44a04f777bb1e18ce,64c800bc00ce96ea23f42cd4,right,-1,0.75,0.4357,10,-0.035041764,0.1695,,,,,,116,0,116,0,1,,,,,
,,078340,001,2023-07-31_21h48.42.369,arm3_eps,2022.2.5,Win32,8.569200579,61070ae8d3d60051894d043d,64c7fed44a04f777bb1e18ce,64c800bc00ce96ea23f42cd4,right,-1,0.75,0.4357,10,-0.028172376,0.1595,,,,,,117,0,117,0,1,,,,,
,,078340,001,2023-07-31_21h48.42.369,arm3_eps,2022.2.5,Win32,8.569200579,61070ae8d3d60051894d043d,64c7fed44a04f777bb1e18ce,64c800bc00ce96ea23f42cd4,down,-1,0.75,0.4357,10,0,0.3988,,,,,,118,0,118,0,1,,,,,
,,078340,001,2023-07-31_21h48.42.369,arm3_eps,2022.2.5,Win32,8.569200579,61070ae8d3d60051894d043d,64c7fed44a04f777bb1e18ce,64c800bc00ce96ea23f42cd4,right,-1,0.75,0.4357,10,-0.062131638,0.1728,,,,,,119,0,119,0,1,,,,,
,,078340,001,2023-07-31_21h48.42.369,arm3_eps,2022.2.5,Win32,8.569200579,61070ae8d3d60051894d043d,64c7fed44a04f777bb1e18ce,64c800bc00ce96ea23f42cd4,right,-1,0.75,0.4357,10,-0.055810508,0.1905,,,,,,120,0,120,0,1,,,,,
,,078340,001,2023-07-31_21h48.42.369,arm3_eps,2022.2.5,Win32,8.569200579,61070ae8d3d60051894d043d,64c7fed44a04f777bb1e18ce,64c800bc00ce96ea23f42cd4,right,-1,0.75,0.4357,10,-0.048436435,0.1468,,,,,,121,0,121,0,1,,,,,
,,078340,001,2023-07-31_21h48.42.369,arm3_eps,2022.2.5,Win32,8.569200579,61070ae8d3d60051894d043d,64c7fed44a04f777bb1e18ce,64c800bc00ce96ea23f42cd4,down,1,0.75,0.4357,11,0,0.1692,,,,,,122,0,122,0,1,,,,,
,,078340,001,2023-07-31_21h48.42.369,arm3_eps,2022.2.5,Win32,8.569200579,61070ae8d3d60051894d043d,64c7fed44a04f777bb1e18ce,64c800bc00ce96ea23f42cd4,right,1,0.75,0.4357,11,0.039471433,0.1714,,,,,,123,0,123,0,1,,,,,
,,078340,001,2023-07-31_21h48.42.369,arm3_eps,2022.2.5,Win32,8.569200579,61070ae8d3d60051894d043d,64c7fed44a04f777bb1e18ce,64c800bc00ce96ea23f42cd4,right,1,0.75,0.4357,11,0.048100876,0.1563,,,,,,124,0,124,0,1,,,,,
,,078340,001,2023-07-31_21h48.42.369,arm3_eps,2022.2.5,Win32,8.569200579,61070ae8d3d60051894d043d,64c7fed44a04f777bb1e18ce,64c800bc00ce96ea23f42cd4,right,1,0.75,0.4357,11,0.036476986,0.1249,,,,,,125,0,125,0,1,,,,,
,,078340,001,2023-07-31_21h48.42.369,arm3_eps,2022.2.5,Win32,8.569200579,61070ae8d3d60051894d043d,64c7fed44a04f777bb1e18ce,64c800bc00ce96ea23f42cd4,up,-1,0.75,0.4357,12,0,0.3302,,,,,,126,0,126,0,1,,,,,
,,078340,001,2023-07-31_21h48.42.369,arm3_eps,2022.2.5,Win32,8.569200579,61070ae8d3d60051894d043d,64c7fed44a04f777bb1e18ce,64c800bc00ce96ea23f42cd4,right,-1,0.75,0.4357,12,0.007633879,0.1359,,,,,,127,0,127,0,1,,,,,
,,078340,001,2023-07-31_21h48.42.369,arm3_eps,2022.2.5,Win32,8.569200579,61070ae8d3d60051894d043d,64c7fed44a04f777bb1e18ce,64c800bc00ce96ea23f42cd4,right,-1,0.75,0.4357,12,0.007011118,0.1837,,,,,,128,0,128,0,1,,,,,
,,078340,001,2023-07-31_21h48.42.369,arm3_eps,2022.2.5,Win32,8.569200579,61070ae8d3d60051894d043d,64c7fed44a04f777bb1e18ce,64c800bc00ce96ea23f42cd4,right,-1,0.75,0.4357,12,0.012497418,0.1477,,,,,,129,0,129,0,1,,,,,
,,078340,001,2023-07-31_21h48.42.369,arm3_eps,2022.2.5,Win32,8.569200579,61070ae8d3d60051894d043d,64c7fed44a04f777bb1e18ce,64c800bc00ce96ea23f42cd4,up,1,0.75,0.4357,11,0,0.2506,,,,,,130,0,130,0,1,,,,,
,,078340,001,2023-07-31_21h48.42.369,arm3_eps,2022.2.5,Win32,8.569200579,61070ae8d3d60051894d043d,64c7fed44a04f777bb1e18ce,64c800bc00ce96ea23f42cd4,right,1,0.75,0.4357,11,0.000613987,0.1509,,,,,,131,0,131,0,1,,,,,
,,078340,001,2023-07-31_21h48.42.369,arm3_eps,2022.2.5,Win32,8.569200579,61070ae8d3d60051894d043d,64c7fed44a04f777bb1e18ce,64c800bc00ce96ea23f42cd4,right,1,0.75,0.4357,11,0.020905869,0.1849,,,,,,132,0,132,0,1,,,,,
,,078340,001,2023-07-31_21h48.42.369,arm3_eps,2022.2.5,Win32,8.569200579,61070ae8d3d60051894d043d,64c7fed44a04f777bb1e18ce,64c800bc00ce96ea23f42cd4,right,1,0.75,0.4357,11,0.002070046,0.1169,,,,,,133,0,133,0,1,,,,,
,,078340,001,2023-07-31_21h48.42.369,arm3_eps,2022.2.5,Win32,8.569200579,61070ae8d3d60051894d043d,64c7fed44a04f777bb1e18ce,64c800bc00ce96ea23f42cd4,up,1,0.75,0.4357,12,0,0.1714,,,,,,134,0,134,0,1,,,,,
,,078340,001,2023-07-31_21h48.42.369,arm3_eps,2022.2.5,Win32,8.569200579,61070ae8d3d60051894d043d,64c7fed44a04f777bb1e18ce,64c800bc00ce96ea23f42cd4,right,1,0.75,0.4357,12,0.037491858,0.1712,,,,,,135,0,135,0,1,,,,,
,,078340,001,2023-07-31_21h48.42.369,arm3_eps,2022.2.5,Win32,8.569200579,61070ae8d3d60051894d043d,64c7fed44a04f777bb1e18ce,64c800bc00ce96ea23f42cd4,right,1,0.75,0.4357,12,0.068666923,0.1852,,,,,,136,0,136,0,1,,,,,
,,078340,001,2023-07-31_21h48.42.369,arm3_eps,2022.2.5,Win32,8.569200579,61070ae8d3d60051894d043d,64c7fed44a04f777bb1e18ce,64c800bc00ce96ea23f42cd4,right,1,0.75,0.4357,12,0.048041729,0.1327,,,,,,137,0,137,0,1,,,,,
,,078340,001,2023-07-31_21h48.42.369,arm3_eps,2022.2.5,Win32,8.569200579,61070ae8d3d60051894d043d,64c7fed44a04f777bb1e18ce,64c800bc00ce96ea23f42cd4,up,-1,0.75,0.4357,12,0,0.2464,,,,,,138,0,138,0,1,,,,,
,,078340,001,2023-07-31_21h48.42.369,arm3_eps,2022.2.5,Win32,8.569200579,61070ae8d3d60051894d043d,64c7fed44a04f777bb1e18ce,64c800bc00ce96ea23f42cd4,right,-1,0.75,0.4357,12,-0.032505511,0.0801,,,,,,139,0,139,0,1,,,,,
,,078340,001,2023-07-31_21h48.42.369,arm3_eps,2022.2.5,Win32,8.569200579,61070ae8d3d60051894d043d,64c7fed44a04f777bb1e18ce,64c800bc00ce96ea23f42cd4,right,-1,0.75,0.4357,12,-0.052829253,0.1688,,,,,,140,0,140,0,1,,,,,
,,078340,001,2023-07-31_21h48.42.369,arm3_eps,2022.2.5,Win32,8.569200579,61070ae8d3d60051894d043d,64c7fed44a04f777bb1e18ce,64c800bc00ce96ea23f42cd4,right,-1,0.75,0.4357,12,-0.090260414,0.1522,,,,,,141,0,141,0,1,,,,,
,,078340,001,2023-07-31_21h48.42.369,arm3_eps,2022.2.5,Win32,8.569200579,61070ae8d3d60051894d043d,64c7fed44a04f777bb1e18ce,64c800bc00ce96ea23f42cd4,down,1,0.75,0.4357,13,0,0.2784,,,,,,142,0,142,0,1,,,,,
,,078340,001,2023-07-31_21h48.42.369,arm3_eps,2022.2.5,Win32,8.569200579,61070ae8d3d60051894d043d,64c7fed44a04f777bb1e18ce,64c800bc00ce96ea23f42cd4,right,1,0.75,0.4357,13,0.007660775,0.2002,,,,,,143,0,143,0,1,,,,,
,,078340,001,2023-07-31_21h48.42.369,arm3_eps,2022.2.5,Win32,8.569200579,61070ae8d3d60051894d043d,64c7fed44a04f777bb1e18ce,64c800bc00ce96ea23f42cd4,right,1,0.75,0.4357,13,0.009646088,0.1556,,,,,,144,0,144,0,1,,,,,
,,078340,001,2023-07-31_21h48.42.369,arm3_eps,2022.2.5,Win32,8.569200579,61070ae8d3d60051894d043d,64c7fed44a04f777bb1e18ce,64c800bc00ce96ea23f42cd4,right,1,0.75,0.4357,13,0.032411241,0.1417,,,,,,145,0,145,0,1,,,,,
,,078340,001,2023-07-31_21h48.42.369,arm3_eps,2022.2.5,Win32,8.569200579,61070ae8d3d60051894d043d,64c7fed44a04f777bb1e18ce,64c800bc00ce96ea23f42cd4,up,-1,0.75,0.4357,13,0,0.424,,,,,,146,0,146,0,1,,,,,
,,078340,001,2023-07-31_21h48.42.369,arm3_eps,2022.2.5,Win32,8.569200579,61070ae8d3d60051894d043d,64c7fed44a04f777bb1e18ce,64c800bc00ce96ea23f42cd4,right,-1,0.75,0.4357,13,-0.016983119,0.155,,,,,,147,0,147,0,1,,,,,
,,078340,001,2023-07-31_21h48.42.369,arm3_eps,2022.2.5,Win32,8.569200579,61070ae8d3d60051894d043d,64c7fed44a04f777bb1e18ce,64c800bc00ce96ea23f42cd4,right,-1,0.75,0.4357,13,-0.004816506,0.1651,,,,,,148,0,148,0,1,,,,,
,,078340,001,2023-07-31_21h48.42.369,arm3_eps,2022.2.5,Win32,8.569200579,61070ae8d3d60051894d043d,64c7fed44a04f777bb1e18ce,64c800bc00ce96ea23f42cd4,right,-1,0.75,0.4357,13,-0.025334391,0.4134,,,,,,149,0,149,0,1,,,,,
,,078340,001,2023-07-31_21h48.42.369,arm3_eps,2022.2.5,Win32,8.569200579,61070ae8d3d60051894d043d,64c7fed44a04f777bb1e18ce,64c800bc00ce96ea23f42cd4,down,-1,0.75,0.4357,14,0,0.4369,,,,,,150,0,150,0,1,,,,,
,,078340,001,2023-07-31_21h48.42.369,arm3_eps,2022.2.5,Win32,8.569200579,61070ae8d3d60051894d043d,64c7fed44a04f777bb1e18ce,64c800bc00ce96ea23f42cd4,right,-1,0.75,0.4357,14,-0.017634616,0.1595,,,,,,151,0,151,0,1,,,,,
,,078340,001,2023-07-31_21h48.42.369,arm3_eps,2022.2.5,Win32,8.569200579,61070ae8d3d60051894d043d,64c7fed44a04f777bb1e18ce,64c800bc00ce96ea23f42cd4,right,-1,0.75,0.4357,14,-0.034977648,0.1977,,,,,,152,0,152,0,1,,,,,
,,078340,001,2023-07-31_21h48.42.369,arm3_eps,2022.2.5,Win32,8.569200579,61070ae8d3d60051894d043d,64c7fed44a04f777bb1e18ce,64c800bc00ce96ea23f42cd4,right,-1,0.75,0.4357,14,-0.030368465,0.1208,,,,,,153,0,153,0,1,,,,,
,,078340,001,2023-07-31_21h48.42.369,arm3_eps,2022.2.5,Win32,8.569200579,61070ae8d3d60051894d043d,64c7fed44a04f777bb1e18ce,64c800bc00ce96ea23f42cd4,down,1,0.75,0.4357,15,0,0.2301,,,,,,154,0,154,0,1,,,,,
,,078340,001,2023-07-31_21h48.42.369,arm3_eps,2022.2.5,Win32,8.569200579,61070ae8d3d60051894d043d,64c7fed44a04f777bb1e18ce,64c800bc00ce96ea23f42cd4,right,1,0.75,0.4357,15,-0.002225912,0.1684,,,,,,155,0,155,0,1,,,,,
,,078340,001,2023-07-31_21h48.42.369,arm3_eps,2022.2.5,Win32,8.569200579,61070ae8d3d60051894d043d,64c7fed44a04f777bb1e18ce,64c800bc00ce96ea23f42cd4,right,1,0.75,0.4357,15,0.006917784,0.1228,,,,,,156,0,156,0,1,,,,,
,,078340,001,2023-07-31_21h48.42.369,arm3_eps,2022.2.5,Win32,8.569200579,61070ae8d3d60051894d043d,64c7fed44a04f777bb1e18ce,64c800bc00ce96ea23f42cd4,right,1,0.75,0.4357,15,0.041016182,0.1369,,,,,,157,0,157,0,1,,,,,
,,078340,001,2023-07-31_21h48.42.369,arm3_eps,2022.2.5,Win32,8.569200579,61070ae8d3d60051894d043d,64c7fed44a04f777bb1e18ce,64c800bc00ce96ea23f42cd4,up,-1,0.75,0.4357,15,0,0.1922,,,,,,158,0,158,0,1,,,,,
,,078340,001,2023-07-31_21h48.42.369,arm3_eps,2022.2.5,Win32,8.569200579,61070ae8d3d60051894d043d,64c7fed44a04f777bb1e18ce,64c800bc00ce96ea23f42cd4,right,-1,0.75,0.4357,15,0.026113601,0.1802,,,,,,159,0,159,0,1,,,,,
,,078340,001,2023-07-31_21h48.42.369,arm3_eps,2022.2.5,Win32,8.569200579,61070ae8d3d60051894d043d,64c7fed44a04f777bb1e18ce,64c800bc00ce96ea23f42cd4,right,-1,0.75,0.4357,15,-0.023175009,0.1502,,,,,,160,0,160,0,1,,,,,
,,078340,001,2023-07-31_21h48.42.369,arm3_eps,2022.2.5,Win32,8.569200579,61070ae8d3d60051894d043d,64c7fed44a04f777bb1e18ce,64c800bc00ce96ea23f42cd4,right,-1,0.75,0.4357,15,-0.025187324,0.1519,,,,,,161,0,161,0,1,,,,,
,,078340,001,2023-07-31_21h48.42.369,arm3_eps,2022.2.5,Win32,8.569200579,61070ae8d3d60051894d043d,64c7fed44a04f777bb1e18ce,64c800bc00ce96ea23f42cd4,down,-1,0.75,0.4357,16,0,0.1926,,,,,,162,0,162,0,1,,,,,
,,078340,001,2023-07-31_21h48.42.369,arm3_eps,2022.2.5,Win32,8.569200579,61070ae8d3d60051894d043d,64c7fed44a04f777bb1e18ce,64c800bc00ce96ea23f42cd4,right,-1,0.75,0.4357,16,-0.022838934,0.2513,,,,,,163,0,163,0,1,,,,,
,,078340,001,2023-07-31_21h48.42.369,arm3_eps,2022.2.5,Win32,8.569200579,61070ae8d3d60051894d043d,64c7fed44a04f777bb1e18ce,64c800bc00ce96ea23f42cd4,right,-1,0.75,0.4357,16,-0.036199614,0.1631,,,,,,164,0,164,0,1,,,,,
,,078340,001,2023-07-31_21h48.42.369,arm3_eps,2022.2.5,Win32,8.569200579,61070ae8d3d60051894d043d,64c7fed44a04f777bb1e18ce,64c800bc00ce96ea23f42cd4,right,-1,0.75,0.4357,16,-0.059687367,0.1413,,,,,,165,0,165,0,1,,,,,
,,078340,001,2023-07-31_21h48.42.369,arm3_eps,2022.2.5,Win32,8.569200579,61070ae8d3d60051894d043d,64c7fed44a04f777bb1e18ce,64c800bc00ce96ea23f42cd4,down,-1,0.75,0.4357,17,0,0.2502,,,,,,166,0,166,0,1,,,,,
,,078340,001,2023-07-31_21h48.42.369,arm3_eps,2022.2.5,Win32,8.569200579,61070ae8d3d60051894d043d,64c7fed44a04f777bb1e18ce,64c800bc00ce96ea23f42cd4,right,-1,0.75,0.4357,17,-0.018995702,0.1863,,,,,,167,0,167,0,1,,,,,
,,078340,001,2023-07-31_21h48.42.369,arm3_eps,2022.2.5,Win32,8.569200579,61070ae8d3d60051894d043d,64c7fed44a04f777bb1e18ce,64c800bc00ce96ea23f42cd4,right,-1,0.75,0.4357,17,-0.01558477,0.1572,,,,,,168,0,168,0,1,,,,,
,,078340,001,2023-07-31_21h48.42.369,arm3_eps,2022.2.5,Win32,8.569200579,61070ae8d3d60051894d043d,64c7fed44a04f777bb1e18ce,64c800bc00ce96ea23f42cd4,right,-1,0.75,0.4357,17,-0.015742657,0.15,,,,,,169,0,169,0,1,,,,,
,,078340,001,2023-07-31_21h48.42.369,arm3_eps,2022.2.5,Win32,8.569200579,61070ae8d3d60051894d043d,64c7fed44a04f777bb1e18ce,64c800bc00ce96ea23f42cd4,down,1,0.75,0.4357,18,0,0.246,,,,,,170,0,170,0,1,,,,,
,,078340,001,2023-07-31_21h48.42.369,arm3_eps,2022.2.5,Win32,8.569200579,61070ae8d3d60051894d043d,64c7fed44a04f777bb1e18ce,64c800bc00ce96ea23f42cd4,right,1,0.75,0.4357,18,-0.001177651,0.2655,,,,,,171,0,171,0,1,,,,,
,,078340,001,2023-07-31_21h48.42.369,arm3_eps,2022.2.5,Win32,8.569200579,61070ae8d3d60051894d043d,64c7fed44a04f777bb1e18ce,64c800bc00ce96ea23f42cd4,right,1,0.75,0.4357,18,0.029484455,0.1906,,,,,,172,0,172,0,1,,,,,
,,078340,001,2023-07-31_21h48.42.369,arm3_eps,2022.2.5,Win32,8.569200579,61070ae8d3d60051894d043d,64c7fed44a04f777bb1e18ce,64c800bc00ce96ea23f42cd4,right,1,0.75,0.4357,18,0.051467536,0.1492,,,,,,173,0,173,0,1,,,,,
,,078340,001,2023-07-31_21h48.42.369,arm3_eps,2022.2.5,Win32,8.569200579,61070ae8d3d60051894d043d,64c7fed44a04f777bb1e18ce,64c800bc00ce96ea23f42cd4,up,1,0.75,0.4357,19,0,0.2209,,,,,,174,0,174,0,1,,,,,
,,078340,001,2023-07-31_21h48.42.369,arm3_eps,2022.2.5,Win32,8.569200579,61070ae8d3d60051894d043d,64c7fed44a04f777bb1e18ce,64c800bc00ce96ea23f42cd4,right,1,0.75,0.4357,19,0.024154055,0.1345,,,,,,175,0,175,0,1,,,,,
,,078340,001,2023-07-31_21h48.42.369,arm3_eps,2022.2.5,Win32,8.569200579,61070ae8d3d60051894d043d,64c7fed44a04f777bb1e18ce,64c800bc00ce96ea23f42cd4,right,1,0.75,0.4357,19,0.051524215,0.1583,,,,,,176,0,176,0,1,,,,,
,,078340,001,2023-07-31_21h48.42.369,arm3_eps,2022.2.5,Win32,8.569200579,61070ae8d3d60051894d043d,64c7fed44a04f777bb1e18ce,64c800bc00ce96ea23f42cd4,right,1,0.75,0.4357,19,0.04444992,0.1479,,,,,,177,0,177,0,1,,,,,
,,078340,001,2023-07-31_21h48.42.369,arm3_eps,2022.2.5,Win32,8.569200579,61070ae8d3d60051894d043d,64c7fed44a04f777bb1e18ce,64c800bc00ce96ea23f42cd4,up,1,0.75,0.4357,19,0,0.1869,,,,,,178,0,178,0,1,,,,,
,,078340,001,2023-07-31_21h48.42.369,arm3_eps,2022.2.5,Win32,8.569200579,61070ae8d3d60051894d043d,64c7fed44a04f777bb1e18ce,64c800bc00ce96ea23f42cd4,right,1,0.75,0.4357,19,0.002500111,0.1918,,,,,,179,0,179,0,1,,,,,
,,078340,001,2023-07-31_21h48.42.369,arm3_eps,2022.2.5,Win32,8.569200579,61070ae8d3d60051894d043d,64c7fed44a04f777bb1e18ce,64c800bc00ce96ea23f42cd4,right,1,0.75,0.4357,19,0.009075182,0.1566,,,,,,180,0,180,0,1,,,,,
,,078340,001,2023-07-31_21h48.42.369,arm3_eps,2022.2.5,Win32,8.569200579,61070ae8d3d60051894d043d,64c7fed44a04f777bb1e18ce,64c800bc00ce96ea23f42cd4,right,1,0.75,0.4357,19,0.009910748,0.1499,,,,,,181,0,181,0,1,,,,,
,,078340,001,2023-07-31_21h48.42.369,arm3_eps,2022.2.5,Win32,8.569200579,61070ae8d3d60051894d043d,64c7fed44a04f777bb1e18ce,64c800bc00ce96ea23f42cd4,down,-1,0.75,0.4357,19,0,0.494,,,,,,182,0,182,0,1,,,,,
,,078340,001,2023-07-31_21h48.42.369,arm3_eps,2022.2.5,Win32,8.569200579,61070ae8d3d60051894d043d,64c7fed44a04f777bb1e18ce,64c800bc00ce96ea23f42cd4,right,-1,0.75,0.4357,19,0.011719388,0.1736,,,,,,183,0,183,0,1,,,,,
,,078340,001,2023-07-31_21h48.42.369,arm3_eps,2022.2.5,Win32,8.569200579,61070ae8d3d60051894d043d,64c7fed44a04f777bb1e18ce,64c800bc00ce96ea23f42cd4,right,-1,0.75,0.4357,19,-0.00187948,0.1658,,,,,,184,0,184,0,1,,,,,
,,078340,001,2023-07-31_21h48.42.369,arm3_eps,2022.2.5,Win32,8.569200579,61070ae8d3d60051894d043d,64c7fed44a04f777bb1e18ce,64c800bc00ce96ea23f42cd4,right,-1,0.75,0.4357,19,-0.037899958,0.1289,,,,,,185,0,185,0,1,,,,,
,,078340,001,2023-07-31_21h48.42.369,arm3_eps,2022.2.5,Win32,8.569200579,61070ae8d3d60051894d043d,64c7fed44a04f777bb1e18ce,64c800bc00ce96ea23f42cd4,down,1,0.75,0.4357,20,0,0.2086,,,,,,186,0,186,0,1,,,,,
,,078340,001,2023-07-31_21h48.42.369,arm3_eps,2022.2.5,Win32,8.569200579,61070ae8d3d60051894d043d,64c7fed44a04f777bb1e18ce,64c800bc00ce96ea23f42cd4,right,1,0.75,0.4357,20,0.018228562,0.1986,,,,,,187,0,187,0,1,,,,,
,,078340,001,2023-07-31_21h48.42.369,arm3_eps,2022.2.5,Win32,8.569200579,61070ae8d3d60051894d043d,64c7fed44a04f777bb1e18ce,64c800bc00ce96ea23f42cd4,right,1,0.75,0.4357,20,0.012253677,0.1482,,,,,,188,0,188,0,1,,,,,
,,078340,001,2023-07-31_21h48.42.369,arm3_eps,2022.2.5,Win32,8.569200579,61070ae8d3d60051894d043d,64c7fed44a04f777bb1e18ce,64c800bc00ce96ea23f42cd4,right,1,0.75,0.4357,20,-0.007448065,0.1426,,,,,,189,0,189,0,1,,,,,
,,078340,001,2023-07-31_21h48.42.369,arm3_eps,2022.2.5,Win32,8.569200579,61070ae8d3d60051894d043d,64c7fed44a04f777bb1e18ce,64c800bc00ce96ea23f42cd4,down,-1,0.75,0.4357,20,0,0.2188,,,,,,190,0,190,0,1,,,,,
,,078340,001,2023-07-31_21h48.42.369,arm3_eps,2022.2.5,Win32,8.569200579,61070ae8d3d60051894d043d,64c7fed44a04f777bb1e18ce,64c800bc00ce96ea23f42cd4,right,-1,0.75,0.4357,20,0.006194027,0.4487,,,,,,191,0,191,0,1,,,,,
,,078340,001,2023-07-31_21h48.42.369,arm3_eps,2022.2.5,Win32,8.569200579,61070ae8d3d60051894d043d,64c7fed44a04f777bb1e18ce,64c800bc00ce96ea23f42cd4,right,-1,0.75,0.4357,20,0.003745897,0.161,,,,,,192,0,192,0,1,,,,,
,,078340,001,2023-07-31_21h48.42.369,arm3_eps,2022.2.5,Win32,8.569200579,61070ae8d3d60051894d043d,64c7fed44a04f777bb1e18ce,64c800bc00ce96ea23f42cd4,right,-1,0.75,0.4357,20,0.005231255,0.1107,,,,,,193,0,193,0,1,,,,,
,,078340,001,2023-07-31_21h48.42.369,arm3_eps,2022.2.5,Win32,8.569200579,61070ae8d3d60051894d043d,64c7fed44a04f777bb1e18ce,64c800bc00ce96ea23f42cd4,up,1,0.75,0.4357,19,0,0.2816,,,,,,194,0,194,0,1,,,,,
,,078340,001,2023-07-31_21h48.42.369,arm3_eps,2022.2.5,Win32,8.569200579,61070ae8d3d60051894d043d,64c7fed44a04f777bb1e18ce,64c800bc00ce96ea23f42cd4,right,1,0.75,0.4357,19,-0.008026291,0.1849,,,,,,195,0,195,0,1,,,,,
,,078340,001,2023-07-31_21h48.42.369,arm3_eps,2022.2.5,Win32,8.569200579,61070ae8d3d60051894d043d,64c7fed44a04f777bb1e18ce,64c800bc00ce96ea23f42cd4,right,1,0.75,0.4357,19,-0.007023656,0.0938,,,,,,196,0,196,0,1,,,,,
,,078340,001,2023-07-31_21h48.42.369,arm3_eps,2022.2.5,Win32,8.569200579,61070ae8d3d60051894d043d,64c7fed44a04f777bb1e18ce,64c800bc00ce96ea23f42cd4,right,1,0.75,0.4357,19,0.003053624,0.1639,,,,,,197,0,197,0,1,,,,,
,,078340,001,2023-07-31_21h48.42.369,arm3_eps,2022.2.5,Win32,8.569200579,61070ae8d3d60051894d043d,64c7fed44a04f777bb1e18ce,64c800bc00ce96ea23f42cd4,up,-1,0.75,0.4357,19,0,0.2161,,,,,,198,0,198,0,1,,,,,
,,078340,001,2023-07-31_21h48.42.369,arm3_eps,2022.2.5,Win32,8.569200579,61070ae8d3d60051894d043d,64c7fed44a04f777bb1e18ce,64c800bc00ce96ea23f42cd4,right,-1,0.75,0.4357,19,-0.01873413,0.1421,,,,,,199,0,199,0,1,,,,,
,,078340,001,2023-07-31_21h48.42.369,arm3_eps,2022.2.5,Win32,8.569200579,61070ae8d3d60051894d043d,64c7fed44a04f777bb1e18ce,64c800bc00ce96ea23f42cd4,right,-1,0.75,0.4357,19,-0.054800098,0.14,,,,,,200,0,200,0,1,,,,,
,,078340,001,2023-07-31_21h48.42.369,arm3_eps,2022.2.5,Win32,8.569200579,61070ae8d3d60051894d043d,64c7fed44a04f777bb1e18ce,64c800bc00ce96ea23f42cd4,right,-1,0.75,0.4357,19,-0.04886372,0.1462,,,,,,201,0,201,0,1,,,,,
,,078340,001,2023-07-31_21h48.42.369,arm3_eps,2022.2.5,Win32,8.569200579,61070ae8d3d60051894d043d,64c7fed44a04f777bb1e18ce,64c800bc00ce96ea23f42cd4,down,-1,0.75,0.4357,20,0,0.447,,,,,,202,0,202,0,1,,,,,
,,078340,001,2023-07-31_21h48.42.369,arm3_eps,2022.2.5,Win32,8.569200579,61070ae8d3d60051894d043d,64c7fed44a04f777bb1e18ce,64c800bc00ce96ea23f42cd4,right,-1,0.75,0.4357,20,0.011491309,0.1732,,,,,,203,0,203,0,1,,,,,
,,078340,001,2023-07-31_21h48.42.369,arm3_eps,2022.2.5,Win32,8.569200579,61070ae8d3d60051894d043d,64c7fed44a04f777bb1e18ce,64c800bc00ce96ea23f42cd4,right,-1,0.75,0.4357,20,0.027635661,0.1563,,,,,,204,0,204,0,1,,,,,
,,078340,001,2023-07-31_21h48.42.369,arm3_eps,2022.2.5,Win32,8.569200579,61070ae8d3d60051894d043d,64c7fed44a04f777bb1e18ce,64c800bc00ce96ea23f42cd4,right,-1,0.75,0.4357,20,0.052542898,0.1559,,,,,,205,0,205,0,1,,,,,
,,078340,001,2023-07-31_21h48.42.369,arm3_eps,2022.2.5,Win32,8.569200579,61070ae8d3d60051894d043d,64c7fed44a04f777bb1e18ce,64c800bc00ce96ea23f42cd4,up,-1,0.75,0.4357,19,0,0.1662,,,,,,206,0,206,0,1,,,,,
,,078340,001,2023-07-31_21h48.42.369,arm3_eps,2022.2.5,Win32,8.569200579,61070ae8d3d60051894d043d,64c7fed44a04f777bb1e18ce,64c800bc00ce96ea23f42cd4,right,-1,0.75,0.4357,19,-0.027508177,0.1909,,,,,,207,0,207,0,1,,,,,
,,078340,001,2023-07-31_21h48.42.369,arm3_eps,2022.2.5,Win32,8.569200579,61070ae8d3d60051894d043d,64c7fed44a04f777bb1e18ce,64c800bc00ce96ea23f42cd4,right,-1,0.75,0.4357,19,-0.037554495,0.1844,,,,,,208,0,208,0,1,,,,,
,,078340,001,2023-07-31_21h48.42.369,arm3_eps,2022.2.5,Win32,8.569200579,61070ae8d3d60051894d043d,64c7fed44a04f777bb1e18ce,64c800bc00ce96ea23f42cd4,right,-1,0.75,0.4357,19,-0.078901663,0.1809,,,,,,209,0,209,0,1,,,,,
,,078340,001,2023-07-31_21h48.42.369,arm3_eps,2022.2.5,Win32,8.569200579,61070ae8d3d60051894d043d,64c7fed44a04f777bb1e18ce,64c800bc00ce96ea23f42cd4,down,1,0.75,0.4357,20,0,0.2441,,,,,,210,0,210,0,1,,,,,
,,078340,001,2023-07-31_21h48.42.369,arm3_eps,2022.2.5,Win32,8.569200579,61070ae8d3d60051894d043d,64c7fed44a04f777bb1e18ce,64c800bc00ce96ea23f42cd4,right,1,0.75,0.4357,20,0.017093557,0.151,,,,,,211,0,211,0,1,,,,,
,,078340,001,2023-07-31_21h48.42.369,arm3_eps,2022.2.5,Win32,8.569200579,61070ae8d3d60051894d043d,64c7fed44a04f777bb1e18ce,64c800bc00ce96ea23f42cd4,right,1,0.75,0.4357,20,0.025538896,0.1784,,,,,,212,0,212,0,1,,,,,
,,078340,001,2023-07-31_21h48.42.369,arm3_eps,2022.2.5,Win32,8.569200579,61070ae8d3d60051894d043d,64c7fed44a04f777bb1e18ce,64c800bc00ce96ea23f42cd4,right,1,0.75,0.4357,20,0.077265393,0.149,,,,,,213,0,213,0,1,,,,,
,,078340,001,2023-07-31_21h48.42.369,arm3_eps,2022.2.5,Win32,8.569200579,61070ae8d3d60051894d043d,64c7fed44a04f777bb1e18ce,64c800bc00ce96ea23f42cd4,up,-1,0.75,0.4357,21,0,0.2196,,,,,,214,0,214,0,1,,,,,
,,078340,001,2023-07-31_21h48.42.369,arm3_eps,2022.2.5,Win32,8.569200579,61070ae8d3d60051894d043d,64c7fed44a04f777bb1e18ce,64c800bc00ce96ea23f42cd4,right,-1,0.75,0.4357,21,0.000743553,0.1826,,,,,,215,0,215,0,1,,,,,
,,078340,001,2023-07-31_21h48.42.369,arm3_eps,2022.2.5,Win32,8.569200579,61070ae8d3d60051894d043d,64c7fed44a04f777bb1e18ce,64c800bc00ce96ea23f42cd4,right,-1,0.75,0.4357,21,-0.018332619,0.1545,,,,,,216,0,216,0,1,,,,,
,,078340,001,2023-07-31_21h48.42.369,arm3_eps,2022.2.5,Win32,8.569200579,61070ae8d3d60051894d043d,64c7fed44a04f777bb1e18ce,64c800bc00ce96ea23f42cd4,right,-1,0.75,0.4357,21,-0.000844032,0.1649,,,,,,217,0,217,0,1,,,,,
,,078340,001,2023-07-31_21h48.42.369,arm3_eps,2022.2.5,Win32,8.569200579,61070ae8d3d60051894d043d,64c7fed44a04f777bb1e18ce,64c800bc00ce96ea23f42cd4,down,-1,0.75,0.4357,22,0,0.2519,,,,,,218,0,218,0,1,,,,,
,,078340,001,2023-07-31_21h48.42.369,arm3_eps,2022.2.5,Win32,8.569200579,61070ae8d3d60051894d043d,64c7fed44a04f777bb1e18ce,64c800bc00ce96ea23f42cd4,right,-1,0.75,0.4357,22,-0.000301076,0.1427,,,,,,219,0,219,0,1,,,,,
,,078340,001,2023-07-31_21h48.42.369,arm3_eps,2022.2.5,Win32,8.569200579,61070ae8d3d60051894d043d,64c7fed44a04f777bb1e18ce,64c800bc00ce96ea23f42cd4,right,-1,0.75,0.4357,22,0.014148196,0.1894,,,,,,220,0,220,0,1,,,,,
,,078340,001,2023-07-31_21h48.42.369,arm3_eps,2022.2.5,Win32,8.569200579,61070ae8d3d60051894d043d,64c7fed44a04f777bb1e18ce,64c800bc00ce96ea23f42cd4,right,-1,0.75,0.4357,22,0.035593553,0.1526,,,,,,221,0,221,0,1,,,,,
,,078340,001,2023-07-31_21h48.42.369,arm3_eps,2022.2.5,Win32,8.569200579,61070ae8d3d60051894d043d,64c7fed44a04f777bb1e18ce,64c800bc00ce96ea23f42cd4,up,1,0.75,0.4357,21,0,0.236,,,,,,222,0,222,0,1,,,,,
,,078340,001,2023-07-31_21h48.42.369,arm3_eps,2022.2.5,Win32,8.569200579,61070ae8d3d60051894d043d,64c7fed44a04f777bb1e18ce,64c800bc00ce96ea23f42cd4,right,1,0.75,0.4357,21,0.026371817,0.116,,,,,,223,0,223,0,1,,,,,
,,078340,001,2023-07-31_21h48.42.369,arm3_eps,2022.2.5,Win32,8.569200579,61070ae8d3d60051894d043d,64c7fed44a04f777bb1e18ce,64c800bc00ce96ea23f42cd4,right,1,0.75,0.4357,21,0.032208625,0.1994,,,,,,224,0,224,0,1,,,,,
,,078340,001,2023-07-31_21h48.42.369,arm3_eps,2022.2.5,Win32,8.569200579,61070ae8d3d60051894d043d,64c7fed44a04f777bb1e18ce,64c800bc00ce96ea23f42cd4,right,1,0.75,0.4357,21,0.062974783,0.1189,,,,,,225,0,225,0,1,,,,,
,,078340,001,2023-07-31_21h48.42.369,arm3_eps,2022.2.5,Win32,8.569200579,61070ae8d3d60051894d043d,64c7fed44a04f777bb1e18ce,64c800bc00ce96ea23f42cd4,up,-1,0.75,0.4357,22,0,0.2084,,,,,,226,0,226,0,1,,,,,
,,078340,001,2023-07-31_21h48.42.369,arm3_eps,2022.2.5,Win32,8.569200579,61070ae8d3d60051894d043d,64c7fed44a04f777bb1e18ce,64c800bc00ce96ea23f42cd4,right,-1,0.75,0.4357,22,0.019903751,0.1532,,,,,,227,0,227,0,1,,,,,
,,078340,001,2023-07-31_21h48.42.369,arm3_eps,2022.2.5,Win32,8.569200579,61070ae8d3d60051894d043d,64c7fed44a04f777bb1e18ce,64c800bc00ce96ea23f42cd4,right,-1,0.75,0.4357,22,0.009880947,0.1706,,,,,,228,0,228,0,1,,,,,
,,078340,001,2023-07-31_21h48.42.369,arm3_eps,2022.2.5,Win32,8.569200579,61070ae8d3d60051894d043d,64c7fed44a04f777bb1e18ce,64c800bc00ce96ea23f42cd4,right,-1,0.75,0.4357,22,0.010491603,0.1499,,,,,,229,0,229,0,1,,,,,
,,078340,001,2023-07-31_21h48.42.369,arm3_eps,2022.2.5,Win32,8.569200579,61070ae8d3d60051894d043d,64c7fed44a04f777bb1e18ce,64c800bc00ce96ea23f42cd4,up,1,0.75,0.4357,21,0,0.2274,,,,,,230,0,230,0,1,,,,,
,,078340,001,2023-07-31_21h48.42.369,arm3_eps,2022.2.5,Win32,8.569200579,61070ae8d3d60051894d043d,64c7fed44a04f777bb1e18ce,64c800bc00ce96ea23f42cd4,right,1,0.75,0.4357,21,0.010111898,0.165,,,,,,231,0,231,0,1,,,,,
,,078340,001,2023-07-31_21h48.42.369,arm3_eps,2022.2.5,Win32,8.569200579,61070ae8d3d60051894d043d,64c7fed44a04f777bb1e18ce,64c800bc00ce96ea23f42cd4,right,1,0.75,0.4357,21,0.022722857,0.1734,,,,,,232,0,232,0,1,,,,,
,,078340,001,2023-07-31_21h48.42.369,arm3_eps,2022.2.5,Win32,8.569200579,61070ae8d3d60051894d043d,64c7fed44a04f777bb1e18ce,64c800bc00ce96ea23f42cd4,right,1,0.75,0.4357,21,0.008595898,0.1665,,,,,,233,0,233,0,1,,,,,
,,078340,001,2023-07-31_21h48.42.369,arm3_eps,2022.2.5,Win32,8.569200579,61070ae8d3d60051894d043d,64c7fed44a04f777bb1e18ce,64c800bc00ce96ea23f42cd4,up,-1,0.75,0.4357,22,0,0.576,,,,,,234,0,234,0,1,,,,,
,,078340,001,2023-07-31_21h48.42.369,arm3_eps,2022.2.5,Win32,8.569200579,61070ae8d3d60051894d043d,64c7fed44a04f777bb1e18ce,64c800bc00ce96ea23f42cd4,right,-1,0.75,0.4357,22,-0.020236464,0.2032,,,,,,235,0,235,0,1,,,,,
,,078340,001,2023-07-31_21h48.42.369,arm3_eps,2022.2.5,Win32,8.569200579,61070ae8d3d60051894d043d,64c7fed44a04f777bb1e18ce,64c800bc00ce96ea23f42cd4,right,-1,0.75,0.4357,22,-0.033720021,0.1332,,,,,,236,0,236,0,1,,,,,
,,078340,001,2023-07-31_21h48.42.369,arm3_eps,2022.2.5,Win32,8.569200579,61070ae8d3d60051894d043d,64c7fed44a04f777bb1e18ce,64c800bc00ce96ea23f42cd4,right,-1,0.75,0.4357,22,-0.08104304,0.1228,,,,,,237,0,237,0,1,,,,,
,,078340,001,2023-07-31_21h48.42.369,arm3_eps,2022.2.5,Win32,8.569200579,61070ae8d3d60051894d043d,64c7fed44a04f777bb1e18ce,64c800bc00ce96ea23f42cd4,down,-1,0.75,0.4357,23,0,0.3152,,,,,,238,0,238,0,1,,,,,
,,078340,001,2023-07-31_21h48.42.369,arm3_eps,2022.2.5,Win32,8.569200579,61070ae8d3d60051894d043d,64c7fed44a04f777bb1e18ce,64c800bc00ce96ea23f42cd4,right,-1,0.75,0.4357,23,0.014854812,0.2409,,,,,,239,0,239,0,1,,,,,
,,078340,001,2023-07-31_21h48.42.369,arm3_eps,2022.2.5,Win32,8.569200579,61070ae8d3d60051894d043d,64c7fed44a04f777bb1e18ce,64c800bc00ce96ea23f42cd4,right,-1,0.75,0.4357,23,0.007218147,0.168,,,,,,240,0,240,0,1,,,,,
,,078340,001,2023-07-31_21h48.42.369,arm3_eps,2022.2.5,Win32,8.569200579,61070ae8d3d60051894d043d,64c7fed44a04f777bb1e18ce,64c800bc00ce96ea23f42cd4,right,-1,0.75,0.4357,23,-0.014345454,0.1395,,,,,,241,0,241,0,1,,,,,
,,078340,001,2023-07-31_21h48.42.369,arm3_eps,2022.2.5,Win32,8.569200579,61070ae8d3d60051894d043d,64c7fed44a04f777bb1e18ce,64c800bc00ce96ea23f42cd4,down,1,0.75,0.4357,23,0,0.4371,,,,,,242,0,242,0,1,,,,,
,,078340,001,2023-07-31_21h48.42.369,arm3_eps,2022.2.5,Win32,8.569200579,61070ae8d3d60051894d043d,64c7fed44a04f777bb1e18ce,64c800bc00ce96ea23f42cd4,right,1,0.75,0.4357,23,-0.009636277,0.1593,,,,,,243,0,243,0,1,,,,,
,,078340,001,2023-07-31_21h48.42.369,arm3_eps,2022.2.5,Win32,8.569200579,61070ae8d3d60051894d043d,64c7fed44a04f777bb1e18ce,64c800bc00ce96ea23f42cd4,right,1,0.75,0.4357,23,0.004447613,0.1631,,,,,,244,0,244,0,1,,,,,
,,078340,001,2023-07-31_21h48.42.369,arm3_eps,2022.2.5,Win32,8.569200579,61070ae8d3d60051894d043d,64c7fed44a04f777bb1e18ce,64c800bc00ce96ea23f42cd4,right,1,0.75,0.4357,23,0.016600407,0.1533,,,,,,245,0,245,0,1,,,,,
,,078340,001,2023-07-31_21h48.42.369,arm3_eps,2022.2.5,Win32,8.569200579,61070ae8d3d60051894d043d,64c7fed44a04f777bb1e18ce,64c800bc00ce96ea23f42cd4,up,-1,0.75,0.4357,24,0,0.3118,,,,,,246,0,246,0,1,,,,,
,,078340,001,2023-07-31_21h48.42.369,arm3_eps,2022.2.5,Win32,8.569200579,61070ae8d3d60051894d043d,64c7fed44a04f777bb1e18ce,64c800bc00ce96ea23f42cd4,right,-1,0.75,0.4357,24,-0.003104888,0.1785,,,,,,247,0,247,0,1,,,,,
,,078340,001,2023-07-31_21h48.42.369,arm3_eps,2022.2.5,Win32,8.569200579,61070ae8d3d60051894d043d,64c7fed44a04f777bb1e18ce,64c800bc00ce96ea23f42cd4,right,-1,0.75,0.4357,24,-0.026271467,0.1825,,,,,,248,0,248,0,1,,,,,
,,078340,001,2023-07-31_21h48.42.369,arm3_eps,2022.2.5,Win32,8.569200579,61070ae8d3d60051894d043d,64c7fed44a04f777bb1e18ce,64c800bc00ce96ea23f42cd4,right,-1,0.75,0.4357,24,-0.01464519,0.1252,,,,,,249,0,249,0,1,,,,,
,,078340,001,2023-07-31_21h48.42.369,arm3_eps,2022.2.5,Win32,8.569200579,61070ae8d3d60051894d043d,64c7fed44a04f777bb1e18ce,64c800bc00ce96ea23f42cd4,down,-1,0.75,0.4357,25,0,0.4589,,,,,,250,0,250,0,1,,,,,
,,078340,001,2023-07-31_21h48.42.369,arm3_eps,2022.2.5,Win32,8.569200579,61070ae8d3d60051894d043d,64c7fed44a04f777bb1e18ce,64c800bc00ce96ea23f42cd4,right,-1,0.75,0.4357,25,-0.027329711,0.1706,,,,,,251,0,251,0,1,,,,,
,,078340,001,2023-07-31_21h48.42.369,arm3_eps,2022.2.5,Win32,8.569200579,61070ae8d3d60051894d043d,64c7fed44a04f777bb1e18ce,64c800bc00ce96ea23f42cd4,right,-1,0.75,0.4357,25,-0.033971939,0.2039,,,,,,252,0,252,0,1,,,,,
,,078340,001,2023-07-31_21h48.42.369,arm3_eps,2022.2.5,Win32,8.569200579,61070ae8d3d60051894d043d,64c7fed44a04f777bb1e18ce,64c800bc00ce96ea23f42cd4,right,-1,0.75,0.4357,25,-0.075878504,0.1218,,,,,,253,0,253,0,1,,,,,
,,078340,001,2023-07-31_21h48.42.369,arm3_eps,2022.2.5,Win32,8.569200579,61070ae8d3d60051894d043d,64c7fed44a04f777bb1e18ce,64c800bc00ce96ea23f42cd4,down,-1,0.75,0.4357,25,0,0.2643,,,,,,254,0,254,0,1,,,,,
,,078340,001,2023-07-31_21h48.42.369,arm3_eps,2022.2.5,Win32,8.569200579,61070ae8d3d60051894d043d,64c7fed44a04f777bb1e18ce,64c800bc00ce96ea23f42cd4,right,-1,0.75,0.4357,25,-0.017735029,0.2182,,,,,,255,0,255,0,1,,,,,
,,078340,001,2023-07-31_21h48.42.369,arm3_eps,2022.2.5,Win32,8.569200579,61070ae8d3d60051894d043d,64c7fed44a04f777bb1e18ce,64c800bc00ce96ea23f42cd4,right,-1,0.75,0.4357,25,0.006177356,0.2088,,,,,,256,0,256,0,1,,,,,
,,078340,001,2023-07-31_21h48.42.369,arm3_eps,2022.2.5,Win32,8.569200579,61070ae8d3d60051894d043d,64c7fed44a04f777bb1e18ce,64c800bc00ce96ea23f42cd4,down,1,0.75,0.4357,26,0,0.45,,,,,,257,0,257,0,1,,,,,
,,078340,001,2023-07-31_21h48.42.369,arm3_eps,2022.2.5,Win32,8.569200579,61070ae8d3d60051894d043d,64c7fed44a04f777bb1e18ce,64c800bc00ce96ea23f42cd4,right,1,0.75,0.4357,26,0.010158752,0.1863,,,,,,258,0,258,0,1,,,,,
