space_bar.keys,space_bar.rt,participant,session,date,expName,psychopyVersion,OS,frameRate,PROLIFIC_PID,STUDY_ID,SESSION_ID,resp.keys,state,q_prob,eps_prob,score,price,resp.rt,train.thisRepN,train.thisTrialN,train.thisN,train.thisIndex,train.ran,steps.thisRepN,steps.thisTrialN,steps.thisN,steps.thisIndex,steps.ran,blocks.thisRepN,blocks.thisTrialN,blocks.thisN,blocks.thisIndex,blocks.ran
space,20.3051,097181,001,2023-07-31_12h45.47.457,arm3_eps,2022.2.5,Win32,60.05645307,613a9a5a92a1c84fc4e3fd07,64c7fed44a04f777bb1e18ce,64c8014b2d8b7cc81a4f1258,,,,,,,,,,,,,,,,,,,,,,
space,3.7769,097181,001,2023-07-31_12h45.47.457,arm3_eps,2022.2.5,Win32,60.05645307,613a9a5a92a1c84fc4e3fd07,64c7fed44a04f777bb1e18ce,64c8014b2d8b7cc81a4f1258,,,,,,,,,,,,,,,,,,,,,,
space,13.794,097181,001,2023-07-31_12h45.47.457,arm3_eps,2022.2.5,Win32,60.05645307,613a9a5a92a1c84fc4e3fd07,64c7fed44a04f777bb1e18ce,64c8014b2d8b7cc81a4f1258,,,,,,,,,,,,,,,,,,,,,,
space,15.1658,097181,001,2023-07-31_12h45.47.457,arm3_eps,2022.2.5,Win32,60.05645307,613a9a5a92a1c84fc4e3fd07,64c7fed44a04f777bb1e18ce,64c8014b2d8b7cc81a4f1258,,,,,,,,,,,,,,,,,,,,,,
space,12.1695,097181,001,2023-07-31_12h45.47.457,arm3_eps,2022.2.5,Win32,60.05645307,613a9a5a92a1c84fc4e3fd07,64c7fed44a04f777bb1e18ce,64c8014b2d8b7cc81a4f1258,,,,,,,,,,,,,,,,,,,,,,
space,5.9972,097181,001,2023-07-31_12h45.47.457,arm3_eps,2022.2.5,Win32,60.05645307,613a9a5a92a1c84fc4e3fd07,64c7fed44a04f777bb1e18ce,64c8014b2d8b7cc81a4f1258,,,,,,,,,,,,,,,,,,,,,,
space,2.5224,097181,001,2023-07-31_12h45.47.457,arm3_eps,2022.2.5,Win32,60.05645307,613a9a5a92a1c84fc4e3fd07,64c7fed44a04f777bb1e18ce,64c8014b2d8b7cc81a4f1258,,,,,,,,,,,,,,,,,,,,,,
,,097181,001,2023-07-31_12h45.47.457,arm3_eps,2022.2.5,Win32,60.05645307,613a9a5a92a1c84fc4e3fd07,64c7fed44a04f777bb1e18ce,64c8014b2d8b7cc81a4f1258,right,1,1,0.2429,0,-0.010153247,2.4572,0,0,0,0,1,,,,,,,,,,
,,097181,001,2023-07-31_12h45.47.457,arm3_eps,2022.2.5,Win32,60.05645307,613a9a5a92a1c84fc4e3fd07,64c7fed44a04f777bb1e18ce,64c8014b2d8b7cc81a4f1258,right,1,1,0.2429,0,0.00299253,3.482,1,0,1,0,1,,,,,,,,,,
,,097181,001,2023-07-31_12h45.47.457,arm3_eps,2022.2.5,Win32,60.05645307,613a9a5a92a1c84fc4e3fd07,64c7fed44a04f777bb1e18ce,64c8014b2d8b7cc81a4f1258,right,1,1,0.2429,0,0.027476026,4.194,2,0,2,0,1,,,,,,,,,,
,,097181,001,2023-07-31_12h45.47.457,arm3_eps,2022.2.5,Win32,60.05645307,613a9a5a92a1c84fc4e3fd07,64c7fed44a04f777bb1e18ce,64c8014b2d8b7cc81a4f1258,right,1,1,0.2429,0,0.038009242,0.3086,3,0,3,0,1,,,,,,,,,,
,,097181,001,2023-07-31_12h45.47.457,arm3_eps,2022.2.5,Win32,60.05645307,613a9a5a92a1c84fc4e3fd07,64c7fed44a04f777bb1e18ce,64c8014b2d8b7cc81a4f1258,right,1,1,0.2429,0,0.061666362,0.2324,4,0,4,0,1,,,,,,,,,,
,,097181,001,2023-07-31_12h45.47.457,arm3_eps,2022.2.5,Win32,60.05645307,613a9a5a92a1c84fc4e3fd07,64c7fed44a04f777bb1e18ce,64c8014b2d8b7cc81a4f1258,right,1,1,0.2429,0,0.077269795,0.8159,5,0,5,0,1,,,,,,,,,,
,,097181,001,2023-07-31_12h45.47.457,arm3_eps,2022.2.5,Win32,60.05645307,613a9a5a92a1c84fc4e3fd07,64c7fed44a04f777bb1e18ce,64c8014b2d8b7cc81a4f1258,right,1,1,0.2429,0,0.091175857,3.4328,6,0,6,0,1,,,,,,,,,,
,,097181,001,2023-07-31_12h45.47.457,arm3_eps,2022.2.5,Win32,60.05645307,613a9a5a92a1c84fc4e3fd07,64c7fed44a04f777bb1e18ce,64c8014b2d8b7cc81a4f1258,right,1,1,0.2429,0,0.110801148,0.2494,7,0,7,0,1,,,,,,,,,,
,,097181,001,2023-07-31_12h45.47.457,arm3_eps,2022.2.5,Win32,60.05645307,613a9a5a92a1c84fc4e3fd07,64c7fed44a04f777bb1e18ce,64c8014b2d8b7cc81a4f1258,right,1,1,0.2429,0,0.107094647,0.1661,8,0,8,0,1,,,,,,,,,,
,,097181,001,2023-07-31_12h45.47.457,arm3_eps,2022.2.5,Win32,60.05645307,613a9a5a92a1c84fc4e3fd07,64c7fed44a04f777bb1e18ce,64c8014b2d8b7cc81a4f1258,right,1,1,0.2429,0,0.086918483,0.1329,9,0,9,0,1,,,,,,,,,,
,,097181,001,2023-07-31_12h45.47.457,arm3_eps,2022.2.5,Win32,60.05645307,613a9a5a92a1c84fc4e3fd07,64c7fed44a04f777bb1e18ce,64c8014b2d8b7cc81a4f1258,right,1,1,0.2429,0,0.08740119,0.1167,10,0,10,0,1,,,,,,,,,,
,,097181,001,2023-07-31_12h45.47.457,arm3_eps,2022.2.5,Win32,60.05645307,613a9a5a92a1c84fc4e3fd07,64c7fed44a04f777bb1e18ce,64c8014b2d8b7cc81a4f1258,right,1,1,0.2429,0,0.106313715,0.1327,11,0,11,0,1,,,,,,,,,,
,,097181,001,2023-07-31_12h45.47.457,arm3_eps,2022.2.5,Win32,60.05645307,613a9a5a92a1c84fc4e3fd07,64c7fed44a04f777bb1e18ce,64c8014b2d8b7cc81a4f1258,up,1,1,0.2429,1,0,2.6813,12,0,12,0,1,,,,,,,,,,
,,097181,001,2023-07-31_12h45.47.457,arm3_eps,2022.2.5,Win32,60.05645307,613a9a5a92a1c84fc4e3fd07,64c7fed44a04f777bb1e18ce,64c8014b2d8b7cc81a4f1258,right,1,1,0.2429,1,0.014918757,2.6754,13,0,13,0,1,,,,,,,,,,
,,097181,001,2023-07-31_12h45.47.457,arm3_eps,2022.2.5,Win32,60.05645307,613a9a5a92a1c84fc4e3fd07,64c7fed44a04f777bb1e18ce,64c8014b2d8b7cc81a4f1258,right,1,1,0.2429,1,0.036336123,0.7606,14,0,14,0,1,,,,,,,,,,
,,097181,001,2023-07-31_12h45.47.457,arm3_eps,2022.2.5,Win32,60.05645307,613a9a5a92a1c84fc4e3fd07,64c7fed44a04f777bb1e18ce,64c8014b2d8b7cc81a4f1258,right,1,1,0.2429,1,0.057863136,0.1344,15,0,15,0,1,,,,,,,,,,
,,097181,001,2023-07-31_12h45.47.457,arm3_eps,2022.2.5,Win32,60.05645307,613a9a5a92a1c84fc4e3fd07,64c7fed44a04f777bb1e18ce,64c8014b2d8b7cc81a4f1258,right,1,1,0.2429,1,0.095156942,0.1179,16,0,16,0,1,,,,,,,,,,
,,097181,001,2023-07-31_12h45.47.457,arm3_eps,2022.2.5,Win32,60.05645307,613a9a5a92a1c84fc4e3fd07,64c7fed44a04f777bb1e18ce,64c8014b2d8b7cc81a4f1258,right,1,1,0.2429,1,0.135158848,0.1346,17,0,17,0,1,,,,,,,,,,
,,097181,001,2023-07-31_12h45.47.457,arm3_eps,2022.2.5,Win32,60.05645307,613a9a5a92a1c84fc4e3fd07,64c7fed44a04f777bb1e18ce,64c8014b2d8b7cc81a4f1258,right,1,1,0.2429,1,0.163832741,0.1164,18,0,18,0,1,,,,,,,,,,
,,097181,001,2023-07-31_12h45.47.457,arm3_eps,2022.2.5,Win32,60.05645307,613a9a5a92a1c84fc4e3fd07,64c7fed44a04f777bb1e18ce,64c8014b2d8b7cc81a4f1258,right,1,1,0.2429,1,0.158974097,0.118,19,0,19,0,1,,,,,,,,,,
,,097181,001,2023-07-31_12h45.47.457,arm3_eps,2022.2.5,Win32,60.05645307,613a9a5a92a1c84fc4e3fd07,64c7fed44a04f777bb1e18ce,64c8014b2d8b7cc81a4f1258,right,1,1,0.2429,1,0.177304795,0.1426,20,0,20,0,1,,,,,,,,,,
,,097181,001,2023-07-31_12h45.47.457,arm3_eps,2022.2.5,Win32,60.05645307,613a9a5a92a1c84fc4e3fd07,64c7fed44a04f777bb1e18ce,64c8014b2d8b7cc81a4f1258,right,1,1,0.2429,1,0.143484373,0.2514,21,0,21,0,1,,,,,,,,,,
,,097181,001,2023-07-31_12h45.47.457,arm3_eps,2022.2.5,Win32,60.05645307,613a9a5a92a1c84fc4e3fd07,64c7fed44a04f777bb1e18ce,64c8014b2d8b7cc81a4f1258,down,1,1,0.2429,0,0,0.6178,22,0,22,0,1,,,,,,,,,,
,,097181,001,2023-07-31_12h45.47.457,arm3_eps,2022.2.5,Win32,60.05645307,613a9a5a92a1c84fc4e3fd07,64c7fed44a04f777bb1e18ce,64c8014b2d8b7cc81a4f1258,right,1,1,0.2429,0,0.005639145,1.1053,23,0,23,0,1,,,,,,,,,,
,,097181,001,2023-07-31_12h45.47.457,arm3_eps,2022.2.5,Win32,60.05645307,613a9a5a92a1c84fc4e3fd07,64c7fed44a04f777bb1e18ce,64c8014b2d8b7cc81a4f1258,right,1,1,0.2429,0,0.000624001,0.1502,24,0,24,0,1,,,,,,,,,,
,,097181,001,2023-07-31_12h45.47.457,arm3_eps,2022.2.5,Win32,60.05645307,613a9a5a92a1c84fc4e3fd07,64c7fed44a04f777bb1e18ce,64c8014b2d8b7cc81a4f1258,right,1,1,0.2429,0,0.010341778,0.1335,25,0,25,0,1,,,,,,,,,,
,,097181,001,2023-07-31_12h45.47.457,arm3_eps,2022.2.5,Win32,60.05645307,613a9a5a92a1c84fc4e3fd07,64c7fed44a04f777bb1e18ce,64c8014b2d8b7cc81a4f1258,right,1,1,0.2429,0,0.022059455,0.1144,26,0,26,0,1,,,,,,,,,,
,,097181,001,2023-07-31_12h45.47.457,arm3_eps,2022.2.5,Win32,60.05645307,613a9a5a92a1c84fc4e3fd07,64c7fed44a04f777bb1e18ce,64c8014b2d8b7cc81a4f1258,right,1,1,0.2429,0,0.033574115,0.0895,27,0,27,0,1,,,,,,,,,,
,,097181,001,2023-07-31_12h45.47.457,arm3_eps,2022.2.5,Win32,60.05645307,613a9a5a92a1c84fc4e3fd07,64c7fed44a04f777bb1e18ce,64c8014b2d8b7cc81a4f1258,right,1,1,0.2429,0,0.02929401,0.1327,28,0,28,0,1,,,,,,,,,,
,,097181,001,2023-07-31_12h45.47.457,arm3_eps,2022.2.5,Win32,60.05645307,613a9a5a92a1c84fc4e3fd07,64c7fed44a04f777bb1e18ce,64c8014b2d8b7cc81a4f1258,right,1,1,0.2429,0,0.020071938,0.1167,29,0,29,0,1,,,,,,,,,,
,,097181,001,2023-07-31_12h45.47.457,arm3_eps,2022.2.5,Win32,60.05645307,613a9a5a92a1c84fc4e3fd07,64c7fed44a04f777bb1e18ce,64c8014b2d8b7cc81a4f1258,right,1,1,0.2429,0,0.018266098,0.1164,30,0,30,0,1,,,,,,,,,,
,,097181,001,2023-07-31_12h45.47.457,arm3_eps,2022.2.5,Win32,60.05645307,613a9a5a92a1c84fc4e3fd07,64c7fed44a04f777bb1e18ce,64c8014b2d8b7cc81a4f1258,right,1,1,0.2429,0,0.041463333,0.0998,31,0,31,0,1,,,,,,,,,,
,,097181,001,2023-07-31_12h45.47.457,arm3_eps,2022.2.5,Win32,60.05645307,613a9a5a92a1c84fc4e3fd07,64c7fed44a04f777bb1e18ce,64c8014b2d8b7cc81a4f1258,right,1,1,0.2429,0,0.055684567,0.117,32,0,32,0,1,,,,,,,,,,
,,097181,001,2023-07-31_12h45.47.457,arm3_eps,2022.2.5,Win32,60.05645307,613a9a5a92a1c84fc4e3fd07,64c7fed44a04f777bb1e18ce,64c8014b2d8b7cc81a4f1258,right,1,1,0.2429,0,0.057087219,0.1167,33,0,33,0,1,,,,,,,,,,
,,097181,001,2023-07-31_12h45.47.457,arm3_eps,2022.2.5,Win32,60.05645307,613a9a5a92a1c84fc4e3fd07,64c7fed44a04f777bb1e18ce,64c8014b2d8b7cc81a4f1258,right,1,1,0.2429,0,0.078788379,0.1337,34,0,34,0,1,,,,,,,,,,
,,097181,001,2023-07-31_12h45.47.457,arm3_eps,2022.2.5,Win32,60.05645307,613a9a5a92a1c84fc4e3fd07,64c7fed44a04f777bb1e18ce,64c8014b2d8b7cc81a4f1258,up,-1,1,0.2429,1,0,0.9831,35,0,35,0,1,,,,,,,,,,
,,097181,001,2023-07-31_12h45.47.457,arm3_eps,2022.2.5,Win32,60.05645307,613a9a5a92a1c84fc4e3fd07,64c7fed44a04f777bb1e18ce,64c8014b2d8b7cc81a4f1258,right,-1,1,0.2429,1,-0.0014876,0.3537,36,0,36,0,1,,,,,,,,,,
,,097181,001,2023-07-31_12h45.47.457,arm3_eps,2022.2.5,Win32,60.05645307,613a9a5a92a1c84fc4e3fd07,64c7fed44a04f777bb1e18ce,64c8014b2d8b7cc81a4f1258,right,-1,1,0.2429,1,0.011045584,0.2824,37,0,37,0,1,,,,,,,,,,
,,097181,001,2023-07-31_12h45.47.457,arm3_eps,2022.2.5,Win32,60.05645307,613a9a5a92a1c84fc4e3fd07,64c7fed44a04f777bb1e18ce,64c8014b2d8b7cc81a4f1258,right,-1,1,0.2429,1,-0.021620447,0.1499,38,0,38,0,1,,,,,,,,,,
,,097181,001,2023-07-31_12h45.47.457,arm3_eps,2022.2.5,Win32,60.05645307,613a9a5a92a1c84fc4e3fd07,64c7fed44a04f777bb1e18ce,64c8014b2d8b7cc81a4f1258,right,-1,1,0.2429,1,-0.013777154,0.1334,39,0,39,0,1,,,,,,,,,,
,,097181,001,2023-07-31_12h45.47.457,arm3_eps,2022.2.5,Win32,60.05645307,613a9a5a92a1c84fc4e3fd07,64c7fed44a04f777bb1e18ce,64c8014b2d8b7cc81a4f1258,right,-1,1,0.2429,1,-0.005705426,0.1173,40,0,40,0,1,,,,,,,,,,
,,097181,001,2023-07-31_12h45.47.457,arm3_eps,2022.2.5,Win32,60.05645307,613a9a5a92a1c84fc4e3fd07,64c7fed44a04f777bb1e18ce,64c8014b2d8b7cc81a4f1258,right,-1,1,0.2429,1,-0.044571404,0.1333,41,0,41,0,1,,,,,,,,,,
,,097181,001,2023-07-31_12h45.47.457,arm3_eps,2022.2.5,Win32,60.05645307,613a9a5a92a1c84fc4e3fd07,64c7fed44a04f777bb1e18ce,64c8014b2d8b7cc81a4f1258,right,-1,1,0.2429,1,-0.033895522,0.1004,42,0,42,0,1,,,,,,,,,,
,,097181,001,2023-07-31_12h45.47.457,arm3_eps,2022.2.5,Win32,60.05645307,613a9a5a92a1c84fc4e3fd07,64c7fed44a04f777bb1e18ce,64c8014b2d8b7cc81a4f1258,right,-1,1,0.2429,1,-0.047411932,0.1149,43,0,43,0,1,,,,,,,,,,
,,097181,001,2023-07-31_12h45.47.457,arm3_eps,2022.2.5,Win32,60.05645307,613a9a5a92a1c84fc4e3fd07,64c7fed44a04f777bb1e18ce,64c8014b2d8b7cc81a4f1258,right,-1,1,0.2429,1,-0.051960634,0.1379,44,0,44,0,1,,,,,,,,,,
,,097181,001,2023-07-31_12h45.47.457,arm3_eps,2022.2.5,Win32,60.05645307,613a9a5a92a1c84fc4e3fd07,64c7fed44a04f777bb1e18ce,64c8014b2d8b7cc81a4f1258,right,-1,1,0.2429,1,-0.063171017,0.1161,45,0,45,0,1,,,,,,,,,,
,,097181,001,2023-07-31_12h45.47.457,arm3_eps,2022.2.5,Win32,60.05645307,613a9a5a92a1c84fc4e3fd07,64c7fed44a04f777bb1e18ce,64c8014b2d8b7cc81a4f1258,right,-1,1,0.2429,1,-0.085114812,0.1332,46,0,46,0,1,,,,,,,,,,
,,097181,001,2023-07-31_12h45.47.457,arm3_eps,2022.2.5,Win32,60.05645307,613a9a5a92a1c84fc4e3fd07,64c7fed44a04f777bb1e18ce,64c8014b2d8b7cc81a4f1258,right,-1,1,0.2429,1,-0.103380014,1.0159,47,0,47,0,1,,,,,,,,,,
,,097181,001,2023-07-31_12h45.47.457,arm3_eps,2022.2.5,Win32,60.05645307,613a9a5a92a1c84fc4e3fd07,64c7fed44a04f777bb1e18ce,64c8014b2d8b7cc81a4f1258,down,1,1,0.2429,2,0,0.4836,48,0,48,0,1,,,,,,,,,,
,,097181,001,2023-07-31_12h45.47.457,arm3_eps,2022.2.5,Win32,60.05645307,613a9a5a92a1c84fc4e3fd07,64c7fed44a04f777bb1e18ce,64c8014b2d8b7cc81a4f1258,right,1,1,0.2429,2,0.018608165,0.4743,49,0,49,0,1,,,,,,,,,,
space,6.9102,097181,001,2023-07-31_12h45.47.457,arm3_eps,2022.2.5,Win32,60.05645307,613a9a5a92a1c84fc4e3fd07,64c7fed44a04f777bb1e18ce,64c8014b2d8b7cc81a4f1258,,,,,,,,,,,,,,,,,,,,,,
space,8.484,097181,001,2023-07-31_12h45.47.457,arm3_eps,2022.2.5,Win32,60.05645307,613a9a5a92a1c84fc4e3fd07,64c7fed44a04f777bb1e18ce,64c8014b2d8b7cc81a4f1258,,,,,,,,,,,,,,,,,,,,,,
space,9.0051,097181,001,2023-07-31_12h45.47.457,arm3_eps,2022.2.5,Win32,60.05645307,613a9a5a92a1c84fc4e3fd07,64c7fed44a04f777bb1e18ce,64c8014b2d8b7cc81a4f1258,,,,,,,,,,,,,,,,,,,,,,
space,1.9849,097181,001,2023-07-31_12h45.47.457,arm3_eps,2022.2.5,Win32,60.05645307,613a9a5a92a1c84fc4e3fd07,64c7fed44a04f777bb1e18ce,64c8014b2d8b7cc81a4f1258,,,,,,,,,,,,,,,,,,,,,,
space,2.9758,097181,001,2023-07-31_12h45.47.457,arm3_eps,2022.2.5,Win32,60.05645307,613a9a5a92a1c84fc4e3fd07,64c7fed44a04f777bb1e18ce,64c8014b2d8b7cc81a4f1258,,,,,,,,,,,,,,,,,,,,,,
space,1.2178,097181,001,2023-07-31_12h45.47.457,arm3_eps,2022.2.5,Win32,60.05645307,613a9a5a92a1c84fc4e3fd07,64c7fed44a04f777bb1e18ce,64c8014b2d8b7cc81a4f1258,,,,,,,,,,,,,,,,,,,,,,
,,097181,001,2023-07-31_12h45.47.457,arm3_eps,2022.2.5,Win32,60.05645307,613a9a5a92a1c84fc4e3fd07,64c7fed44a04f777bb1e18ce,64c8014b2d8b7cc81a4f1258,right,1,0.75,0.2429,0,-0.011312298,0.876,0,0,0,0,1,,,,,,,,,,
,,097181,001,2023-07-31_12h45.47.457,arm3_eps,2022.2.5,Win32,60.05645307,613a9a5a92a1c84fc4e3fd07,64c7fed44a04f777bb1e18ce,64c8014b2d8b7cc81a4f1258,right,1,0.75,0.2429,0,-0.020897081,0.1348,1,0,1,0,1,,,,,,,,,,
,,097181,001,2023-07-31_12h45.47.457,arm3_eps,2022.2.5,Win32,60.05645307,613a9a5a92a1c84fc4e3fd07,64c7fed44a04f777bb1e18ce,64c8014b2d8b7cc81a4f1258,right,1,0.75,0.2429,0,-0.01124712,0.1161,2,0,2,0,1,,,,,,,,,,
,,097181,001,2023-07-31_12h45.47.457,arm3_eps,2022.2.5,Win32,60.05645307,613a9a5a92a1c84fc4e3fd07,64c7fed44a04f777bb1e18ce,64c8014b2d8b7cc81a4f1258,right,1,0.75,0.2429,0,-0.010685018,0.1129,3,0,3,0,1,,,,,,,,,,
,,097181,001,2023-07-31_12h45.47.457,arm3_eps,2022.2.5,Win32,60.05645307,613a9a5a92a1c84fc4e3fd07,64c7fed44a04f777bb1e18ce,64c8014b2d8b7cc81a4f1258,right,1,0.75,0.2429,0,0.010257144,0.0853,4,0,4,0,1,,,,,,,,,,
,,097181,001,2023-07-31_12h45.47.457,arm3_eps,2022.2.5,Win32,60.05645307,613a9a5a92a1c84fc4e3fd07,64c7fed44a04f777bb1e18ce,64c8014b2d8b7cc81a4f1258,right,1,0.75,0.2429,0,0.016463621,0.112,5,0,5,0,1,,,,,,,,,,
,,097181,001,2023-07-31_12h45.47.457,arm3_eps,2022.2.5,Win32,60.05645307,613a9a5a92a1c84fc4e3fd07,64c7fed44a04f777bb1e18ce,64c8014b2d8b7cc81a4f1258,right,1,0.75,0.2429,0,0.03223496,0.1013,6,0,6,0,1,,,,,,,,,,
,,097181,001,2023-07-31_12h45.47.457,arm3_eps,2022.2.5,Win32,60.05645307,613a9a5a92a1c84fc4e3fd07,64c7fed44a04f777bb1e18ce,64c8014b2d8b7cc81a4f1258,right,1,0.75,0.2429,0,0.030903449,0.0997,7,0,7,0,1,,,,,,,,,,
,,097181,001,2023-07-31_12h45.47.457,arm3_eps,2022.2.5,Win32,60.05645307,613a9a5a92a1c84fc4e3fd07,64c7fed44a04f777bb1e18ce,64c8014b2d8b7cc81a4f1258,right,1,0.75,0.2429,0,0.045048108,0.1326,8,0,8,0,1,,,,,,,,,,
,,097181,001,2023-07-31_12h45.47.457,arm3_eps,2022.2.5,Win32,60.05645307,613a9a5a92a1c84fc4e3fd07,64c7fed44a04f777bb1e18ce,64c8014b2d8b7cc81a4f1258,up,1,0.75,0.2429,1,0,0.5818,9,0,9,0,1,,,,,,,,,,
,,097181,001,2023-07-31_12h45.47.457,arm3_eps,2022.2.5,Win32,60.05645307,613a9a5a92a1c84fc4e3fd07,64c7fed44a04f777bb1e18ce,64c8014b2d8b7cc81a4f1258,right,1,0.75,0.2429,1,-0.013880193,1.3909,10,0,10,0,1,,,,,,,,,,
,,097181,001,2023-07-31_12h45.47.457,arm3_eps,2022.2.5,Win32,60.05645307,613a9a5a92a1c84fc4e3fd07,64c7fed44a04f777bb1e18ce,64c8014b2d8b7cc81a4f1258,right,1,0.75,0.2429,1,-0.010682041,0.1441,11,0,11,0,1,,,,,,,,,,
,,097181,001,2023-07-31_12h45.47.457,arm3_eps,2022.2.5,Win32,60.05645307,613a9a5a92a1c84fc4e3fd07,64c7fed44a04f777bb1e18ce,64c8014b2d8b7cc81a4f1258,right,1,0.75,0.2429,1,-0.047122621,0.1161,12,0,12,0,1,,,,,,,,,,
,,097181,001,2023-07-31_12h45.47.457,arm3_eps,2022.2.5,Win32,60.05645307,613a9a5a92a1c84fc4e3fd07,64c7fed44a04f777bb1e18ce,64c8014b2d8b7cc81a4f1258,right,1,0.75,0.2429,1,-0.017108085,0.1445,13,0,13,0,1,,,,,,,,,,
,,097181,001,2023-07-31_12h45.47.457,arm3_eps,2022.2.5,Win32,60.05645307,613a9a5a92a1c84fc4e3fd07,64c7fed44a04f777bb1e18ce,64c8014b2d8b7cc81a4f1258,right,1,0.75,0.2429,1,-0.064822624,0.1278,14,0,14,0,1,,,,,,,,,,
,,097181,001,2023-07-31_12h45.47.457,arm3_eps,2022.2.5,Win32,60.05645307,613a9a5a92a1c84fc4e3fd07,64c7fed44a04f777bb1e18ce,64c8014b2d8b7cc81a4f1258,right,1,0.75,0.2429,1,-0.057545408,0.0781,15,0,15,0,1,,,,,,,,,,
,,097181,001,2023-07-31_12h45.47.457,arm3_eps,2022.2.5,Win32,60.05645307,613a9a5a92a1c84fc4e3fd07,64c7fed44a04f777bb1e18ce,64c8014b2d8b7cc81a4f1258,right,1,0.75,0.2429,1,-0.03673094,0.0751,16,0,16,0,1,,,,,,,,,,
,,097181,001,2023-07-31_12h45.47.457,arm3_eps,2022.2.5,Win32,60.05645307,613a9a5a92a1c84fc4e3fd07,64c7fed44a04f777bb1e18ce,64c8014b2d8b7cc81a4f1258,right,1,0.75,0.2429,1,-0.061557432,0.8333,17,0,17,0,1,,,,,,,,,,
,,097181,001,2023-07-31_12h45.47.457,arm3_eps,2022.2.5,Win32,60.05645307,613a9a5a92a1c84fc4e3fd07,64c7fed44a04f777bb1e18ce,64c8014b2d8b7cc81a4f1258,up,1,0.75,0.2429,1,0,1.0778,18,0,18,0,1,,,,,,,,,,
,,097181,001,2023-07-31_12h45.47.457,arm3_eps,2022.2.5,Win32,60.05645307,613a9a5a92a1c84fc4e3fd07,64c7fed44a04f777bb1e18ce,64c8014b2d8b7cc81a4f1258,right,1,0.75,0.2429,1,-0.004274677,2.4789,19,0,19,0,1,,,,,,,,,,
,,097181,001,2023-07-31_12h45.47.457,arm3_eps,2022.2.5,Win32,60.05645307,613a9a5a92a1c84fc4e3fd07,64c7fed44a04f777bb1e18ce,64c8014b2d8b7cc81a4f1258,right,1,0.75,0.2429,1,0.017318866,0.1965,20,0,20,0,1,,,,,,,,,,
,,097181,001,2023-07-31_12h45.47.457,arm3_eps,2022.2.5,Win32,60.05645307,613a9a5a92a1c84fc4e3fd07,64c7fed44a04f777bb1e18ce,64c8014b2d8b7cc81a4f1258,right,1,0.75,0.2429,1,0.03199291,0.1346,21,0,21,0,1,,,,,,,,,,
,,097181,001,2023-07-31_12h45.47.457,arm3_eps,2022.2.5,Win32,60.05645307,613a9a5a92a1c84fc4e3fd07,64c7fed44a04f777bb1e18ce,64c8014b2d8b7cc81a4f1258,right,1,0.75,0.2429,1,0.038987391,0.1266,22,0,22,0,1,,,,,,,,,,
,,097181,001,2023-07-31_12h45.47.457,arm3_eps,2022.2.5,Win32,60.05645307,613a9a5a92a1c84fc4e3fd07,64c7fed44a04f777bb1e18ce,64c8014b2d8b7cc81a4f1258,right,1,0.75,0.2429,1,0.019841414,0.1005,23,0,23,0,1,,,,,,,,,,
,,097181,001,2023-07-31_12h45.47.457,arm3_eps,2022.2.5,Win32,60.05645307,613a9a5a92a1c84fc4e3fd07,64c7fed44a04f777bb1e18ce,64c8014b2d8b7cc81a4f1258,right,1,0.75,0.2429,1,0.053762058,0.1168,24,0,24,0,1,,,,,,,,,,
,,097181,001,2023-07-31_12h45.47.457,arm3_eps,2022.2.5,Win32,60.05645307,613a9a5a92a1c84fc4e3fd07,64c7fed44a04f777bb1e18ce,64c8014b2d8b7cc81a4f1258,right,1,0.75,0.2429,1,0.051800717,0.1074,25,0,25,0,1,,,,,,,,,,
,,097181,001,2023-07-31_12h45.47.457,arm3_eps,2022.2.5,Win32,60.05645307,613a9a5a92a1c84fc4e3fd07,64c7fed44a04f777bb1e18ce,64c8014b2d8b7cc81a4f1258,right,1,0.75,0.2429,1,0.044371957,0.0826,26,0,26,0,1,,,,,,,,,,
,,097181,001,2023-07-31_12h45.47.457,arm3_eps,2022.2.5,Win32,60.05645307,613a9a5a92a1c84fc4e3fd07,64c7fed44a04f777bb1e18ce,64c8014b2d8b7cc81a4f1258,right,1,0.75,0.2429,1,0.078219614,0.1682,27,0,27,0,1,,,,,,,,,,
,,097181,001,2023-07-31_12h45.47.457,arm3_eps,2022.2.5,Win32,60.05645307,613a9a5a92a1c84fc4e3fd07,64c7fed44a04f777bb1e18ce,64c8014b2d8b7cc81a4f1258,up,-1,0.75,0.2429,1,0,0.6362,28,0,28,0,1,,,,,,,,,,
,,097181,001,2023-07-31_12h45.47.457,arm3_eps,2022.2.5,Win32,60.05645307,613a9a5a92a1c84fc4e3fd07,64c7fed44a04f777bb1e18ce,64c8014b2d8b7cc81a4f1258,right,-1,0.75,0.2429,1,0.005382717,1.4794,29,0,29,0,1,,,,,,,,,,
,,097181,001,2023-07-31_12h45.47.457,arm3_eps,2022.2.5,Win32,60.05645307,613a9a5a92a1c84fc4e3fd07,64c7fed44a04f777bb1e18ce,64c8014b2d8b7cc81a4f1258,right,-1,0.75,0.2429,1,-0.008161891,0.3003,30,0,30,0,1,,,,,,,,,,
,,097181,001,2023-07-31_12h45.47.457,arm3_eps,2022.2.5,Win32,60.05645307,613a9a5a92a1c84fc4e3fd07,64c7fed44a04f777bb1e18ce,64c8014b2d8b7cc81a4f1258,right,-1,0.75,0.2429,1,-0.02318309,0.1323,31,0,31,0,1,,,,,,,,,,
,,097181,001,2023-07-31_12h45.47.457,arm3_eps,2022.2.5,Win32,60.05645307,613a9a5a92a1c84fc4e3fd07,64c7fed44a04f777bb1e18ce,64c8014b2d8b7cc81a4f1258,right,-1,0.75,0.2429,1,-0.056646846,0.1108,32,0,32,0,1,,,,,,,,,,
,,097181,001,2023-07-31_12h45.47.457,arm3_eps,2022.2.5,Win32,60.05645307,613a9a5a92a1c84fc4e3fd07,64c7fed44a04f777bb1e18ce,64c8014b2d8b7cc81a4f1258,right,-1,0.75,0.2429,1,-0.067714477,0.1025,33,0,33,0,1,,,,,,,,,,
,,097181,001,2023-07-31_12h45.47.457,arm3_eps,2022.2.5,Win32,60.05645307,613a9a5a92a1c84fc4e3fd07,64c7fed44a04f777bb1e18ce,64c8014b2d8b7cc81a4f1258,right,-1,0.75,0.2429,1,-0.083369678,0.0996,34,0,34,0,1,,,,,,,,,,
,,097181,001,2023-07-31_12h45.47.457,arm3_eps,2022.2.5,Win32,60.05645307,613a9a5a92a1c84fc4e3fd07,64c7fed44a04f777bb1e18ce,64c8014b2d8b7cc81a4f1258,right,-1,0.75,0.2429,1,-0.077522973,0.1315,35,0,35,0,1,,,,,,,,,,
,,097181,001,2023-07-31_12h45.47.457,arm3_eps,2022.2.5,Win32,60.05645307,613a9a5a92a1c84fc4e3fd07,64c7fed44a04f777bb1e18ce,64c8014b2d8b7cc81a4f1258,right,-1,0.75,0.2429,1,-0.05854621,0.0811,36,0,36,0,1,,,,,,,,,,
,,097181,001,2023-07-31_12h45.47.457,arm3_eps,2022.2.5,Win32,60.05645307,613a9a5a92a1c84fc4e3fd07,64c7fed44a04f777bb1e18ce,64c8014b2d8b7cc81a4f1258,right,-1,0.75,0.2429,1,-0.064079399,0.0992,37,0,37,0,1,,,,,,,,,,
,,097181,001,2023-07-31_12h45.47.457,arm3_eps,2022.2.5,Win32,60.05645307,613a9a5a92a1c84fc4e3fd07,64c7fed44a04f777bb1e18ce,64c8014b2d8b7cc81a4f1258,right,-1,0.75,0.2429,1,-0.065557728,0.1184,38,0,38,0,1,,,,,,,,,,
,,097181,001,2023-07-31_12h45.47.457,arm3_eps,2022.2.5,Win32,60.05645307,613a9a5a92a1c84fc4e3fd07,64c7fed44a04f777bb1e18ce,64c8014b2d8b7cc81a4f1258,right,-1,0.75,0.2429,1,-0.074615836,0.216,39,0,39,0,1,,,,,,,,,,
,,097181,001,2023-07-31_12h45.47.457,arm3_eps,2022.2.5,Win32,60.05645307,613a9a5a92a1c84fc4e3fd07,64c7fed44a04f777bb1e18ce,64c8014b2d8b7cc81a4f1258,down,1,0.75,0.2429,2,0,0.4632,40,0,40,0,1,,,,,,,,,,
,,097181,001,2023-07-31_12h45.47.457,arm3_eps,2022.2.5,Win32,60.05645307,613a9a5a92a1c84fc4e3fd07,64c7fed44a04f777bb1e18ce,64c8014b2d8b7cc81a4f1258,right,1,0.75,0.2429,2,-0.001893641,1.389,41,0,41,0,1,,,,,,,,,,
,,097181,001,2023-07-31_12h45.47.457,arm3_eps,2022.2.5,Win32,60.05645307,613a9a5a92a1c84fc4e3fd07,64c7fed44a04f777bb1e18ce,64c8014b2d8b7cc81a4f1258,right,1,0.75,0.2429,2,0.014568636,0.1775,42,0,42,0,1,,,,,,,,,,
,,097181,001,2023-07-31_12h45.47.457,arm3_eps,2022.2.5,Win32,60.05645307,613a9a5a92a1c84fc4e3fd07,64c7fed44a04f777bb1e18ce,64c8014b2d8b7cc81a4f1258,right,1,0.75,0.2429,2,0.027994399,0.1262,43,0,43,0,1,,,,,,,,,,
,,097181,001,2023-07-31_12h45.47.457,arm3_eps,2022.2.5,Win32,60.05645307,613a9a5a92a1c84fc4e3fd07,64c7fed44a04f777bb1e18ce,64c8014b2d8b7cc81a4f1258,right,1,0.75,0.2429,2,0.050981463,0.1452,44,0,44,0,1,,,,,,,,,,
,,097181,001,2023-07-31_12h45.47.457,arm3_eps,2022.2.5,Win32,60.05645307,613a9a5a92a1c84fc4e3fd07,64c7fed44a04f777bb1e18ce,64c8014b2d8b7cc81a4f1258,right,1,0.75,0.2429,2,0.086707592,0.1152,45,0,45,0,1,,,,,,,,,,
,,097181,001,2023-07-31_12h45.47.457,arm3_eps,2022.2.5,Win32,60.05645307,613a9a5a92a1c84fc4e3fd07,64c7fed44a04f777bb1e18ce,64c8014b2d8b7cc81a4f1258,right,1,0.75,0.2429,2,0.089516643,0.1275,46,0,46,0,1,,,,,,,,,,
,,097181,001,2023-07-31_12h45.47.457,arm3_eps,2022.2.5,Win32,60.05645307,613a9a5a92a1c84fc4e3fd07,64c7fed44a04f777bb1e18ce,64c8014b2d8b7cc81a4f1258,right,1,0.75,0.2429,2,0.085091447,0.1168,47,0,47,0,1,,,,,,,,,,
,,097181,001,2023-07-31_12h45.47.457,arm3_eps,2022.2.5,Win32,60.05645307,613a9a5a92a1c84fc4e3fd07,64c7fed44a04f777bb1e18ce,64c8014b2d8b7cc81a4f1258,right,1,0.75,0.2429,2,0.1005802,0.1413,48,0,48,0,1,,,,,,,,,,
,,097181,001,2023-07-31_12h45.47.457,arm3_eps,2022.2.5,Win32,60.05645307,613a9a5a92a1c84fc4e3fd07,64c7fed44a04f777bb1e18ce,64c8014b2d8b7cc81a4f1258,right,1,0.75,0.2429,2,0.104933909,0.1544,49,0,49,0,1,,,,,,,,,,
space,9.6726,097181,001,2023-07-31_12h45.47.457,arm3_eps,2022.2.5,Win32,60.05645307,613a9a5a92a1c84fc4e3fd07,64c7fed44a04f777bb1e18ce,64c8014b2d8b7cc81a4f1258,,,,,,,,,,,,,,,,,,,,,,
space,11.4888,097181,001,2023-07-31_12h45.47.457,arm3_eps,2022.2.5,Win32,60.05645307,613a9a5a92a1c84fc4e3fd07,64c7fed44a04f777bb1e18ce,64c8014b2d8b7cc81a4f1258,,,,,,,,,,,,,,,,,,,,,,
space,1.1368,097181,001,2023-07-31_12h45.47.457,arm3_eps,2022.2.5,Win32,60.05645307,613a9a5a92a1c84fc4e3fd07,64c7fed44a04f777bb1e18ce,64c8014b2d8b7cc81a4f1258,,,,,,,,,,,,,,,,,,,,,,
,,097181,001,2023-07-31_12h45.47.457,arm3_eps,2022.2.5,Win32,60.05645307,613a9a5a92a1c84fc4e3fd07,64c7fed44a04f777bb1e18ce,64c8014b2d8b7cc81a4f1258,right,1,0.75,0.05,0,0.043429282,1.8127,0,0,0,0,1,,,,,,,,,,
,,097181,001,2023-07-31_12h45.47.457,arm3_eps,2022.2.5,Win32,60.05645307,613a9a5a92a1c84fc4e3fd07,64c7fed44a04f777bb1e18ce,64c8014b2d8b7cc81a4f1258,right,1,0.75,0.05,0,0.056685355,0.3842,1,0,1,0,1,,,,,,,,,,
,,097181,001,2023-07-31_12h45.47.457,arm3_eps,2022.2.5,Win32,60.05645307,613a9a5a92a1c84fc4e3fd07,64c7fed44a04f777bb1e18ce,64c8014b2d8b7cc81a4f1258,right,1,0.75,0.05,0,0.053989931,0.166,2,0,2,0,1,,,,,,,,,,
,,097181,001,2023-07-31_12h45.47.457,arm3_eps,2022.2.5,Win32,60.05645307,613a9a5a92a1c84fc4e3fd07,64c7fed44a04f777bb1e18ce,64c8014b2d8b7cc81a4f1258,right,1,0.75,0.05,0,0.072072512,0.1162,3,0,3,0,1,,,,,,,,,,
,,097181,001,2023-07-31_12h45.47.457,arm3_eps,2022.2.5,Win32,60.05645307,613a9a5a92a1c84fc4e3fd07,64c7fed44a04f777bb1e18ce,64c8014b2d8b7cc81a4f1258,right,1,0.75,0.05,0,0.084707377,0.1348,4,0,4,0,1,,,,,,,,,,
,,097181,001,2023-07-31_12h45.47.457,arm3_eps,2022.2.5,Win32,60.05645307,613a9a5a92a1c84fc4e3fd07,64c7fed44a04f777bb1e18ce,64c8014b2d8b7cc81a4f1258,right,1,0.75,0.05,0,0.071447507,0.1488,5,0,5,0,1,,,,,,,,,,
,,097181,001,2023-07-31_12h45.47.457,arm3_eps,2022.2.5,Win32,60.05645307,613a9a5a92a1c84fc4e3fd07,64c7fed44a04f777bb1e18ce,64c8014b2d8b7cc81a4f1258,up,-1,0.75,0.05,0,0,1.1345,6,0,6,0,1,,,,,,,,,,
,,097181,001,2023-07-31_12h45.47.457,arm3_eps,2022.2.5,Win32,60.05645307,613a9a5a92a1c84fc4e3fd07,64c7fed44a04f777bb1e18ce,64c8014b2d8b7cc81a4f1258,right,-1,0.75,0.05,0,-0.013083586,1.2103,7,0,7,0,1,,,,,,,,,,
,,097181,001,2023-07-31_12h45.47.457,arm3_eps,2022.2.5,Win32,60.05645307,613a9a5a92a1c84fc4e3fd07,64c7fed44a04f777bb1e18ce,64c8014b2d8b7cc81a4f1258,right,-1,0.75,0.05,0,-0.041055126,0.1495,8,0,8,0,1,,,,,,,,,,
,,097181,001,2023-07-31_12h45.47.457,arm3_eps,2022.2.5,Win32,60.05645307,613a9a5a92a1c84fc4e3fd07,64c7fed44a04f777bb1e18ce,64c8014b2d8b7cc81a4f1258,right,-1,0.75,0.05,0,-0.016851599,0.1181,9,0,9,0,1,,,,,,,,,,
,,097181,001,2023-07-31_12h45.47.457,arm3_eps,2022.2.5,Win32,60.05645307,613a9a5a92a1c84fc4e3fd07,64c7fed44a04f777bb1e18ce,64c8014b2d8b7cc81a4f1258,right,-1,0.75,0.05,0,0.000430063,0.1166,10,0,10,0,1,,,,,,,,,,
,,097181,001,2023-07-31_12h45.47.457,arm3_eps,2022.2.5,Win32,60.05645307,613a9a5a92a1c84fc4e3fd07,64c7fed44a04f777bb1e18ce,64c8014b2d8b7cc81a4f1258,right,-1,0.75,0.05,0,-0.004598008,0.1163,11,0,11,0,1,,,,,,,,,,
,,097181,001,2023-07-31_12h45.47.457,arm3_eps,2022.2.5,Win32,60.05645307,613a9a5a92a1c84fc4e3fd07,64c7fed44a04f777bb1e18ce,64c8014b2d8b7cc81a4f1258,right,-1,0.75,0.05,0,0.002503781,0.0985,12,0,12,0,1,,,,,,,,,,
,,097181,001,2023-07-31_12h45.47.457,arm3_eps,2022.2.5,Win32,60.05645307,613a9a5a92a1c84fc4e3fd07,64c7fed44a04f777bb1e18ce,64c8014b2d8b7cc81a4f1258,right,-1,0.75,0.05,0,0.017289675,0.1154,13,0,13,0,1,,,,,,,,,,
,,097181,001,2023-07-31_12h45.47.457,arm3_eps,2022.2.5,Win32,60.05645307,613a9a5a92a1c84fc4e3fd07,64c7fed44a04f777bb1e18ce,64c8014b2d8b7cc81a4f1258,right,-1,0.75,0.05,0,0.006099455,0.116,14,0,14,0,1,,,,,,,,,,
,,097181,001,2023-07-31_12h45.47.457,arm3_eps,2022.2.5,Win32,60.05645307,613a9a5a92a1c84fc4e3fd07,64c7fed44a04f777bb1e18ce,64c8014b2d8b7cc81a4f1258,right,-1,0.75,0.05,0,0.01207804,0.1175,15,0,15,0,1,,,,,,,,,,
,,097181,001,2023-07-31_12h45.47.457,arm3_eps,2022.2.5,Win32,60.05645307,613a9a5a92a1c84fc4e3fd07,64c7fed44a04f777bb1e18ce,64c8014b2d8b7cc81a4f1258,right,-1,0.75,0.05,0,0.016202408,0.1324,16,0,16,0,1,,,,,,,,,,
,,097181,001,2023-07-31_12h45.47.457,arm3_eps,2022.2.5,Win32,60.05645307,613a9a5a92a1c84fc4e3fd07,64c7fed44a04f777bb1e18ce,64c8014b2d8b7cc81a4f1258,right,-1,0.75,0.05,0,0.014879189,0.6152,17,0,17,0,1,,,,,,,,,,
,,097181,001,2023-07-31_12h45.47.457,arm3_eps,2022.2.5,Win32,60.05645307,613a9a5a92a1c84fc4e3fd07,64c7fed44a04f777bb1e18ce,64c8014b2d8b7cc81a4f1258,down,-1,0.75,0.05,1,0,0.5668,18,0,18,0,1,,,,,,,,,,
,,097181,001,2023-07-31_12h45.47.457,arm3_eps,2022.2.5,Win32,60.05645307,613a9a5a92a1c84fc4e3fd07,64c7fed44a04f777bb1e18ce,64c8014b2d8b7cc81a4f1258,right,-1,0.75,0.05,1,-0.006329169,0.9456,19,0,19,0,1,,,,,,,,,,
,,097181,001,2023-07-31_12h45.47.457,arm3_eps,2022.2.5,Win32,60.05645307,613a9a5a92a1c84fc4e3fd07,64c7fed44a04f777bb1e18ce,64c8014b2d8b7cc81a4f1258,right,-1,0.75,0.05,1,0.009679344,0.1611,20,0,20,0,1,,,,,,,,,,
,,097181,001,2023-07-31_12h45.47.457,arm3_eps,2022.2.5,Win32,60.05645307,613a9a5a92a1c84fc4e3fd07,64c7fed44a04f777bb1e18ce,64c8014b2d8b7cc81a4f1258,right,-1,0.75,0.05,1,-0.00090732,0.1281,21,0,21,0,1,,,,,,,,,,
,,097181,001,2023-07-31_12h45.47.457,arm3_eps,2022.2.5,Win32,60.05645307,613a9a5a92a1c84fc4e3fd07,64c7fed44a04f777bb1e18ce,64c8014b2d8b7cc81a4f1258,right,-1,0.75,0.05,1,-0.000375478,0.1113,22,0,22,0,1,,,,,,,,,,
,,097181,001,2023-07-31_12h45.47.457,arm3_eps,2022.2.5,Win32,60.05645307,613a9a5a92a1c84fc4e3fd07,64c7fed44a04f777bb1e18ce,64c8014b2d8b7cc81a4f1258,right,-1,0.75,0.05,1,-0.006065842,0.1112,23,0,23,0,1,,,,,,,,,,
,,097181,001,2023-07-31_12h45.47.457,arm3_eps,2022.2.5,Win32,60.05645307,613a9a5a92a1c84fc4e3fd07,64c7fed44a04f777bb1e18ce,64c8014b2d8b7cc81a4f1258,right,-1,0.75,0.05,1,-0.012926112,0.1253,24,0,24,0,1,,,,,,,,,,
,,097181,001,2023-07-31_12h45.47.457,arm3_eps,2022.2.5,Win32,60.05645307,613a9a5a92a1c84fc4e3fd07,64c7fed44a04f777bb1e18ce,64c8014b2d8b7cc81a4f1258,right,-1,0.75,0.05,1,-0.007434664,0.1337,25,0,25,0,1,,,,,,,,,,
,,097181,001,2023-07-31_12h45.47.457,arm3_eps,2022.2.5,Win32,60.05645307,613a9a5a92a1c84fc4e3fd07,64c7fed44a04f777bb1e18ce,64c8014b2d8b7cc81a4f1258,right,-1,0.75,0.05,1,-0.030866154,0.9938,26,0,26,0,1,,,,,,,,,,
,,097181,001,2023-07-31_12h45.47.457,arm3_eps,2022.2.5,Win32,60.05645307,613a9a5a92a1c84fc4e3fd07,64c7fed44a04f777bb1e18ce,64c8014b2d8b7cc81a4f1258,down,1,0.75,0.05,2,0,0.9447,27,0,27,0,1,,,,,,,,,,
,,097181,001,2023-07-31_12h45.47.457,arm3_eps,2022.2.5,Win32,60.05645307,613a9a5a92a1c84fc4e3fd07,64c7fed44a04f777bb1e18ce,64c8014b2d8b7cc81a4f1258,right,1,0.75,0.05,2,-0.019244305,1.1135,28,0,28,0,1,,,,,,,,,,
,,097181,001,2023-07-31_12h45.47.457,arm3_eps,2022.2.5,Win32,60.05645307,613a9a5a92a1c84fc4e3fd07,64c7fed44a04f777bb1e18ce,64c8014b2d8b7cc81a4f1258,right,1,0.75,0.05,2,-0.041586994,0.1658,29,0,29,0,1,,,,,,,,,,
,,097181,001,2023-07-31_12h45.47.457,arm3_eps,2022.2.5,Win32,60.05645307,613a9a5a92a1c84fc4e3fd07,64c7fed44a04f777bb1e18ce,64c8014b2d8b7cc81a4f1258,right,1,0.75,0.05,2,-0.037572133,0.1185,30,0,30,0,1,,,,,,,,,,
,,097181,001,2023-07-31_12h45.47.457,arm3_eps,2022.2.5,Win32,60.05645307,613a9a5a92a1c84fc4e3fd07,64c7fed44a04f777bb1e18ce,64c8014b2d8b7cc81a4f1258,right,1,0.75,0.05,2,-0.0366587,0.1321,31,0,31,0,1,,,,,,,,,,
,,097181,001,2023-07-31_12h45.47.457,arm3_eps,2022.2.5,Win32,60.05645307,613a9a5a92a1c84fc4e3fd07,64c7fed44a04f777bb1e18ce,64c8014b2d8b7cc81a4f1258,right,1,0.75,0.05,2,-0.024334933,0.1335,32,0,32,0,1,,,,,,,,,,
,,097181,001,2023-07-31_12h45.47.457,arm3_eps,2022.2.5,Win32,60.05645307,613a9a5a92a1c84fc4e3fd07,64c7fed44a04f777bb1e18ce,64c8014b2d8b7cc81a4f1258,right,1,0.75,0.05,2,-0.00955992,0.1326,33,0,33,0,1,,,,,,,,,,
,,097181,001,2023-07-31_12h45.47.457,arm3_eps,2022.2.5,Win32,60.05645307,613a9a5a92a1c84fc4e3fd07,64c7fed44a04f777bb1e18ce,64c8014b2d8b7cc81a4f1258,right,1,0.75,0.05,2,0.025499617,0.1507,34,0,34,0,1,,,,,,,,,,
,,097181,001,2023-07-31_12h45.47.457,arm3_eps,2022.2.5,Win32,60.05645307,613a9a5a92a1c84fc4e3fd07,64c7fed44a04f777bb1e18ce,64c8014b2d8b7cc81a4f1258,right,1,0.75,0.05,2,0.025554635,0.1815,35,0,35,0,1,,,,,,,,,,
,,097181,001,2023-07-31_12h45.47.457,arm3_eps,2022.2.5,Win32,60.05645307,613a9a5a92a1c84fc4e3fd07,64c7fed44a04f777bb1e18ce,64c8014b2d8b7cc81a4f1258,right,1,0.75,0.05,2,0.054096855,0.2167,36,0,36,0,1,,,,,,,,,,
,,097181,001,2023-07-31_12h45.47.457,arm3_eps,2022.2.5,Win32,60.05645307,613a9a5a92a1c84fc4e3fd07,64c7fed44a04f777bb1e18ce,64c8014b2d8b7cc81a4f1258,right,1,0.75,0.05,2,0.103931059,0.1661,37,0,37,0,1,,,,,,,,,,
,,097181,001,2023-07-31_12h45.47.457,arm3_eps,2022.2.5,Win32,60.05645307,613a9a5a92a1c84fc4e3fd07,64c7fed44a04f777bb1e18ce,64c8014b2d8b7cc81a4f1258,up,1,0.75,0.05,3,0,1.0338,38,0,38,0,1,,,,,,,,,,
,,097181,001,2023-07-31_12h45.47.457,arm3_eps,2022.2.5,Win32,60.05645307,613a9a5a92a1c84fc4e3fd07,64c7fed44a04f777bb1e18ce,64c8014b2d8b7cc81a4f1258,right,1,0.75,0.05,3,0.01109456,0.9118,39,0,39,0,1,,,,,,,,,,
,,097181,001,2023-07-31_12h45.47.457,arm3_eps,2022.2.5,Win32,60.05645307,613a9a5a92a1c84fc4e3fd07,64c7fed44a04f777bb1e18ce,64c8014b2d8b7cc81a4f1258,right,1,0.75,0.05,3,-0.001455677,0.14,40,0,40,0,1,,,,,,,,,,
,,097181,001,2023-07-31_12h45.47.457,arm3_eps,2022.2.5,Win32,60.05645307,613a9a5a92a1c84fc4e3fd07,64c7fed44a04f777bb1e18ce,64c8014b2d8b7cc81a4f1258,right,1,0.75,0.05,3,0.033185304,0.1513,41,0,41,0,1,,,,,,,,,,
,,097181,001,2023-07-31_12h45.47.457,arm3_eps,2022.2.5,Win32,60.05645307,613a9a5a92a1c84fc4e3fd07,64c7fed44a04f777bb1e18ce,64c8014b2d8b7cc81a4f1258,right,1,0.75,0.05,3,0.036607627,0.1274,42,0,42,0,1,,,,,,,,,,
,,097181,001,2023-07-31_12h45.47.457,arm3_eps,2022.2.5,Win32,60.05645307,613a9a5a92a1c84fc4e3fd07,64c7fed44a04f777bb1e18ce,64c8014b2d8b7cc81a4f1258,right,1,0.75,0.05,3,0.034765964,0.1304,43,0,43,0,1,,,,,,,,,,
,,097181,001,2023-07-31_12h45.47.457,arm3_eps,2022.2.5,Win32,60.05645307,613a9a5a92a1c84fc4e3fd07,64c7fed44a04f777bb1e18ce,64c8014b2d8b7cc81a4f1258,right,1,0.75,0.05,3,0.027680784,0.1344,44,0,44,0,1,,,,,,,,,,
,,097181,001,2023-07-31_12h45.47.457,arm3_eps,2022.2.5,Win32,60.05645307,613a9a5a92a1c84fc4e3fd07,64c7fed44a04f777bb1e18ce,64c8014b2d8b7cc81a4f1258,right,1,0.75,0.05,3,0.022924372,0.1781,45,0,45,0,1,,,,,,,,,,
,,097181,001,2023-07-31_12h45.47.457,arm3_eps,2022.2.5,Win32,60.05645307,613a9a5a92a1c84fc4e3fd07,64c7fed44a04f777bb1e18ce,64c8014b2d8b7cc81a4f1258,right,1,0.75,0.05,3,0.026960569,0.1443,46,0,46,0,1,,,,,,,,,,
,,097181,001,2023-07-31_12h45.47.457,arm3_eps,2022.2.5,Win32,60.05645307,613a9a5a92a1c84fc4e3fd07,64c7fed44a04f777bb1e18ce,64c8014b2d8b7cc81a4f1258,right,1,0.75,0.05,3,0.040789419,0.1794,47,0,47,0,1,,,,,,,,,,
,,097181,001,2023-07-31_12h45.47.457,arm3_eps,2022.2.5,Win32,60.05645307,613a9a5a92a1c84fc4e3fd07,64c7fed44a04f777bb1e18ce,64c8014b2d8b7cc81a4f1258,up,1,0.75,0.05,3,0,1.4939,48,0,48,0,1,,,,,,,,,,
,,097181,001,2023-07-31_12h45.47.457,arm3_eps,2022.2.5,Win32,60.05645307,613a9a5a92a1c84fc4e3fd07,64c7fed44a04f777bb1e18ce,64c8014b2d8b7cc81a4f1258,right,1,0.75,0.05,3,0.019605247,0.878,49,0,49,0,1,,,,,,,,,,
space,9.3867,097181,001,2023-07-31_12h45.47.457,arm3_eps,2022.2.5,Win32,60.05645307,613a9a5a92a1c84fc4e3fd07,64c7fed44a04f777bb1e18ce,64c8014b2d8b7cc81a4f1258,,,,,,,,,,,,,,,,,,,,,,
space,0.8856,097181,001,2023-07-31_12h45.47.457,arm3_eps,2022.2.5,Win32,60.05645307,613a9a5a92a1c84fc4e3fd07,64c7fed44a04f777bb1e18ce,64c8014b2d8b7cc81a4f1258,,,,,,,,,,,,,,,,,,,,,,
,,097181,001,2023-07-31_12h45.47.457,arm3_eps,2022.2.5,Win32,60.05645307,613a9a5a92a1c84fc4e3fd07,64c7fed44a04f777bb1e18ce,64c8014b2d8b7cc81a4f1258,right,1,0.75,0.5,0,0.005507277,1.1229,0,0,0,0,1,,,,,,,,,,
,,097181,001,2023-07-31_12h45.47.457,arm3_eps,2022.2.5,Win32,60.05645307,613a9a5a92a1c84fc4e3fd07,64c7fed44a04f777bb1e18ce,64c8014b2d8b7cc81a4f1258,right,1,0.75,0.5,0,0.05515899,0.146,1,0,1,0,1,,,,,,,,,,
,,097181,001,2023-07-31_12h45.47.457,arm3_eps,2022.2.5,Win32,60.05645307,613a9a5a92a1c84fc4e3fd07,64c7fed44a04f777bb1e18ce,64c8014b2d8b7cc81a4f1258,right,1,0.75,0.5,0,0.044560279,0.1277,2,0,2,0,1,,,,,,,,,,
,,097181,001,2023-07-31_12h45.47.457,arm3_eps,2022.2.5,Win32,60.05645307,613a9a5a92a1c84fc4e3fd07,64c7fed44a04f777bb1e18ce,64c8014b2d8b7cc81a4f1258,right,1,0.75,0.5,0,0.07251621,0.1122,3,0,3,0,1,,,,,,,,,,
,,097181,001,2023-07-31_12h45.47.457,arm3_eps,2022.2.5,Win32,60.05645307,613a9a5a92a1c84fc4e3fd07,64c7fed44a04f777bb1e18ce,64c8014b2d8b7cc81a4f1258,right,1,0.75,0.5,0,0.08556251,0.1154,4,0,4,0,1,,,,,,,,,,
,,097181,001,2023-07-31_12h45.47.457,arm3_eps,2022.2.5,Win32,60.05645307,613a9a5a92a1c84fc4e3fd07,64c7fed44a04f777bb1e18ce,64c8014b2d8b7cc81a4f1258,right,1,0.75,0.5,0,0.083069765,0.0954,5,0,5,0,1,,,,,,,,,,
,,097181,001,2023-07-31_12h45.47.457,arm3_eps,2022.2.5,Win32,60.05645307,613a9a5a92a1c84fc4e3fd07,64c7fed44a04f777bb1e18ce,64c8014b2d8b7cc81a4f1258,right,1,0.75,0.5,0,0.090965182,0.1278,6,0,6,0,1,,,,,,,,,,
,,097181,001,2023-07-31_12h45.47.457,arm3_eps,2022.2.5,Win32,60.05645307,613a9a5a92a1c84fc4e3fd07,64c7fed44a04f777bb1e18ce,64c8014b2d8b7cc81a4f1258,right,1,0.75,0.5,0,0.125711776,0.1268,7,0,7,0,1,,,,,,,,,,
,,097181,001,2023-07-31_12h45.47.457,arm3_eps,2022.2.5,Win32,60.05645307,613a9a5a92a1c84fc4e3fd07,64c7fed44a04f777bb1e18ce,64c8014b2d8b7cc81a4f1258,up,-1,0.75,0.5,1,0,0.3628,8,0,8,0,1,,,,,,,,,,
,,097181,001,2023-07-31_12h45.47.457,arm3_eps,2022.2.5,Win32,60.05645307,613a9a5a92a1c84fc4e3fd07,64c7fed44a04f777bb1e18ce,64c8014b2d8b7cc81a4f1258,right,-1,0.75,0.5,1,-0.017735283,0.8674,9,0,9,0,1,,,,,,,,,,
,,097181,001,2023-07-31_12h45.47.457,arm3_eps,2022.2.5,Win32,60.05645307,613a9a5a92a1c84fc4e3fd07,64c7fed44a04f777bb1e18ce,64c8014b2d8b7cc81a4f1258,right,-1,0.75,0.5,1,-0.035757388,0.1433,10,0,10,0,1,,,,,,,,,,
,,097181,001,2023-07-31_12h45.47.457,arm3_eps,2022.2.5,Win32,60.05645307,613a9a5a92a1c84fc4e3fd07,64c7fed44a04f777bb1e18ce,64c8014b2d8b7cc81a4f1258,right,-1,0.75,0.5,1,-0.055819098,0.1172,11,0,11,0,1,,,,,,,,,,
,,097181,001,2023-07-31_12h45.47.457,arm3_eps,2022.2.5,Win32,60.05645307,613a9a5a92a1c84fc4e3fd07,64c7fed44a04f777bb1e18ce,64c8014b2d8b7cc81a4f1258,right,-1,0.75,0.5,1,-0.049169887,0.0939,12,0,12,0,1,,,,,,,,,,
,,097181,001,2023-07-31_12h45.47.457,arm3_eps,2022.2.5,Win32,60.05645307,613a9a5a92a1c84fc4e3fd07,64c7fed44a04f777bb1e18ce,64c8014b2d8b7cc81a4f1258,right,-1,0.75,0.5,1,-0.070496234,0.1096,13,0,13,0,1,,,,,,,,,,
,,097181,001,2023-07-31_12h45.47.457,arm3_eps,2022.2.5,Win32,60.05645307,613a9a5a92a1c84fc4e3fd07,64c7fed44a04f777bb1e18ce,64c8014b2d8b7cc81a4f1258,right,-1,0.75,0.5,1,-0.071813274,0.1072,14,0,14,0,1,,,,,,,,,,
,,097181,001,2023-07-31_12h45.47.457,arm3_eps,2022.2.5,Win32,60.05645307,613a9a5a92a1c84fc4e3fd07,64c7fed44a04f777bb1e18ce,64c8014b2d8b7cc81a4f1258,right,-1,0.75,0.5,1,-0.062845539,0.0979,15,0,15,0,1,,,,,,,,,,
,,097181,001,2023-07-31_12h45.47.457,arm3_eps,2022.2.5,Win32,60.05645307,613a9a5a92a1c84fc4e3fd07,64c7fed44a04f777bb1e18ce,64c8014b2d8b7cc81a4f1258,right,-1,0.75,0.5,1,-0.071309141,0.1135,16,0,16,0,1,,,,,,,,,,
,,097181,001,2023-07-31_12h45.47.457,arm3_eps,2022.2.5,Win32,60.05645307,613a9a5a92a1c84fc4e3fd07,64c7fed44a04f777bb1e18ce,64c8014b2d8b7cc81a4f1258,down,-1,0.75,0.5,1,0,0.3355,17,0,17,0,1,,,,,,,,,,
,,097181,001,2023-07-31_12h45.47.457,arm3_eps,2022.2.5,Win32,60.05645307,613a9a5a92a1c84fc4e3fd07,64c7fed44a04f777bb1e18ce,64c8014b2d8b7cc81a4f1258,right,-1,0.75,0.5,1,-0.002864954,0.8147,18,0,18,0,1,,,,,,,,,,
,,097181,001,2023-07-31_12h45.47.457,arm3_eps,2022.2.5,Win32,60.05645307,613a9a5a92a1c84fc4e3fd07,64c7fed44a04f777bb1e18ce,64c8014b2d8b7cc81a4f1258,right,-1,0.75,0.5,1,-0.01723124,0.1271,19,0,19,0,1,,,,,,,,,,
,,097181,001,2023-07-31_12h45.47.457,arm3_eps,2022.2.5,Win32,60.05645307,613a9a5a92a1c84fc4e3fd07,64c7fed44a04f777bb1e18ce,64c8014b2d8b7cc81a4f1258,right,-1,0.75,0.5,1,-0.03267408,0.1275,20,0,20,0,1,,,,,,,,,,
,,097181,001,2023-07-31_12h45.47.457,arm3_eps,2022.2.5,Win32,60.05645307,613a9a5a92a1c84fc4e3fd07,64c7fed44a04f777bb1e18ce,64c8014b2d8b7cc81a4f1258,right,-1,0.75,0.5,1,-0.075799529,0.2434,21,0,21,0,1,,,,,,,,,,
,,097181,001,2023-07-31_12h45.47.457,arm3_eps,2022.2.5,Win32,60.05645307,613a9a5a92a1c84fc4e3fd07,64c7fed44a04f777bb1e18ce,64c8014b2d8b7cc81a4f1258,right,-1,0.75,0.5,1,-0.062556399,0.1304,22,0,22,0,1,,,,,,,,,,
,,097181,001,2023-07-31_12h45.47.457,arm3_eps,2022.2.5,Win32,60.05645307,613a9a5a92a1c84fc4e3fd07,64c7fed44a04f777bb1e18ce,64c8014b2d8b7cc81a4f1258,right,-1,0.75,0.5,1,-0.061428455,0.1452,23,0,23,0,1,,,,,,,,,,
,,097181,001,2023-07-31_12h45.47.457,arm3_eps,2022.2.5,Win32,60.05645307,613a9a5a92a1c84fc4e3fd07,64c7fed44a04f777bb1e18ce,64c8014b2d8b7cc81a4f1258,right,-1,0.75,0.5,1,-0.06105976,0.1599,24,0,24,0,1,,,,,,,,,,
,,097181,001,2023-07-31_12h45.47.457,arm3_eps,2022.2.5,Win32,60.05645307,613a9a5a92a1c84fc4e3fd07,64c7fed44a04f777bb1e18ce,64c8014b2d8b7cc81a4f1258,right,-1,0.75,0.5,1,-0.05621477,0.1446,25,0,25,0,1,,,,,,,,,,
,,097181,001,2023-07-31_12h45.47.457,arm3_eps,2022.2.5,Win32,60.05645307,613a9a5a92a1c84fc4e3fd07,64c7fed44a04f777bb1e18ce,64c8014b2d8b7cc81a4f1258,right,-1,0.75,0.5,1,-0.092326001,0.1605,26,0,26,0,1,,,,,,,,,,
,,097181,001,2023-07-31_12h45.47.457,arm3_eps,2022.2.5,Win32,60.05645307,613a9a5a92a1c84fc4e3fd07,64c7fed44a04f777bb1e18ce,64c8014b2d8b7cc81a4f1258,right,-1,0.75,0.5,1,-0.096877833,0.1901,27,0,27,0,1,,,,,,,,,,
,,097181,001,2023-07-31_12h45.47.457,arm3_eps,2022.2.5,Win32,60.05645307,613a9a5a92a1c84fc4e3fd07,64c7fed44a04f777bb1e18ce,64c8014b2d8b7cc81a4f1258,down,-1,0.75,0.5,2,0,1.1667,28,0,28,0,1,,,,,,,,,,
,,097181,001,2023-07-31_12h45.47.457,arm3_eps,2022.2.5,Win32,60.05645307,613a9a5a92a1c84fc4e3fd07,64c7fed44a04f777bb1e18ce,64c8014b2d8b7cc81a4f1258,right,-1,0.75,0.5,2,-0.043492442,1.0136,29,0,29,0,1,,,,,,,,,,
,,097181,001,2023-07-31_12h45.47.457,arm3_eps,2022.2.5,Win32,60.05645307,613a9a5a92a1c84fc4e3fd07,64c7fed44a04f777bb1e18ce,64c8014b2d8b7cc81a4f1258,right,-1,0.75,0.5,2,-0.061963358,0.1434,30,0,30,0,1,,,,,,,,,,
,,097181,001,2023-07-31_12h45.47.457,arm3_eps,2022.2.5,Win32,60.05645307,613a9a5a92a1c84fc4e3fd07,64c7fed44a04f777bb1e18ce,64c8014b2d8b7cc81a4f1258,right,-1,0.75,0.5,2,-0.040821215,0.2519,31,0,31,0,1,,,,,,,,,,
,,097181,001,2023-07-31_12h45.47.457,arm3_eps,2022.2.5,Win32,60.05645307,613a9a5a92a1c84fc4e3fd07,64c7fed44a04f777bb1e18ce,64c8014b2d8b7cc81a4f1258,right,-1,0.75,0.5,2,-0.049372002,0.1263,32,0,32,0,1,,,,,,,,,,
,,097181,001,2023-07-31_12h45.47.457,arm3_eps,2022.2.5,Win32,60.05645307,613a9a5a92a1c84fc4e3fd07,64c7fed44a04f777bb1e18ce,64c8014b2d8b7cc81a4f1258,right,-1,0.75,0.5,2,-0.057899841,0.1245,33,0,33,0,1,,,,,,,,,,
,,097181,001,2023-07-31_12h45.47.457,arm3_eps,2022.2.5,Win32,60.05645307,613a9a5a92a1c84fc4e3fd07,64c7fed44a04f777bb1e18ce,64c8014b2d8b7cc81a4f1258,right,-1,0.75,0.5,2,-0.089244068,0.1148,34,0,34,0,1,,,,,,,,,,
,,097181,001,2023-07-31_12h45.47.457,arm3_eps,2022.2.5,Win32,60.05645307,613a9a5a92a1c84fc4e3fd07,64c7fed44a04f777bb1e18ce,64c8014b2d8b7cc81a4f1258,right,-1,0.75,0.5,2,-0.109364851,0.1264,35,0,35,0,1,,,,,,,,,,
,,097181,001,2023-07-31_12h45.47.457,arm3_eps,2022.2.5,Win32,60.05645307,613a9a5a92a1c84fc4e3fd07,64c7fed44a04f777bb1e18ce,64c8014b2d8b7cc81a4f1258,right,-1,0.75,0.5,2,-0.147117325,0.1349,36,0,36,0,1,,,,,,,,,,
,,097181,001,2023-07-31_12h45.47.457,arm3_eps,2022.2.5,Win32,60.05645307,613a9a5a92a1c84fc4e3fd07,64c7fed44a04f777bb1e18ce,64c8014b2d8b7cc81a4f1258,right,-1,0.75,0.5,2,-0.148018072,0.1602,37,0,37,0,1,,,,,,,,,,
,,097181,001,2023-07-31_12h45.47.457,arm3_eps,2022.2.5,Win32,60.05645307,613a9a5a92a1c84fc4e3fd07,64c7fed44a04f777bb1e18ce,64c8014b2d8b7cc81a4f1258,down,1,0.75,0.5,3,0,0.3772,38,0,38,0,1,,,,,,,,,,
,,097181,001,2023-07-31_12h45.47.457,arm3_eps,2022.2.5,Win32,60.05645307,613a9a5a92a1c84fc4e3fd07,64c7fed44a04f777bb1e18ce,64c8014b2d8b7cc81a4f1258,right,1,0.75,0.5,3,0.022016237,0.8126,39,0,39,0,1,,,,,,,,,,
,,097181,001,2023-07-31_12h45.47.457,arm3_eps,2022.2.5,Win32,60.05645307,613a9a5a92a1c84fc4e3fd07,64c7fed44a04f777bb1e18ce,64c8014b2d8b7cc81a4f1258,right,1,0.75,0.5,3,0.003581439,0.1441,40,0,40,0,1,,,,,,,,,,
,,097181,001,2023-07-31_12h45.47.457,arm3_eps,2022.2.5,Win32,60.05645307,613a9a5a92a1c84fc4e3fd07,64c7fed44a04f777bb1e18ce,64c8014b2d8b7cc81a4f1258,right,1,0.75,0.5,3,-0.014449359,0.1339,41,0,41,0,1,,,,,,,,,,
,,097181,001,2023-07-31_12h45.47.457,arm3_eps,2022.2.5,Win32,60.05645307,613a9a5a92a1c84fc4e3fd07,64c7fed44a04f777bb1e18ce,64c8014b2d8b7cc81a4f1258,right,1,0.75,0.5,3,0.008819304,0.1129,42,0,42,0,1,,,,,,,,,,
,,097181,001,2023-07-31_12h45.47.457,arm3_eps,2022.2.5,Win32,60.05645307,613a9a5a92a1c84fc4e3fd07,64c7fed44a04f777bb1e18ce,64c8014b2d8b7cc81a4f1258,right,1,0.75,0.5,3,0.021402907,0.1148,43,0,43,0,1,,,,,,,,,,
,,097181,001,2023-07-31_12h45.47.457,arm3_eps,2022.2.5,Win32,60.05645307,613a9a5a92a1c84fc4e3fd07,64c7fed44a04f777bb1e18ce,64c8014b2d8b7cc81a4f1258,right,1,0.75,0.5,3,0.042499885,0.1332,44,0,44,0,1,,,,,,,,,,
,,097181,001,2023-07-31_12h45.47.457,arm3_eps,2022.2.5,Win32,60.05645307,613a9a5a92a1c84fc4e3fd07,64c7fed44a04f777bb1e18ce,64c8014b2d8b7cc81a4f1258,right,1,0.75,0.5,3,0.047556815,0.1342,45,0,45,0,1,,,,,,,,,,
,,097181,001,2023-07-31_12h45.47.457,arm3_eps,2022.2.5,Win32,60.05645307,613a9a5a92a1c84fc4e3fd07,64c7fed44a04f777bb1e18ce,64c8014b2d8b7cc81a4f1258,right,1,0.75,0.5,3,0.087628782,0.1267,46,0,46,0,1,,,,,,,,,,
,,097181,001,2023-07-31_12h45.47.457,arm3_eps,2022.2.5,Win32,60.05645307,613a9a5a92a1c84fc4e3fd07,64c7fed44a04f777bb1e18ce,64c8014b2d8b7cc81a4f1258,up,-1,0.75,0.5,3,0,0.4808,47,0,47,0,1,,,,,,,,,,
,,097181,001,2023-07-31_12h45.47.457,arm3_eps,2022.2.5,Win32,60.05645307,613a9a5a92a1c84fc4e3fd07,64c7fed44a04f777bb1e18ce,64c8014b2d8b7cc81a4f1258,right,-1,0.75,0.5,3,-0.039884216,0.7102,48,0,48,0,1,,,,,,,,,,
,,097181,001,2023-07-31_12h45.47.457,arm3_eps,2022.2.5,Win32,60.05645307,613a9a5a92a1c84fc4e3fd07,64c7fed44a04f777bb1e18ce,64c8014b2d8b7cc81a4f1258,right,-1,0.75,0.5,3,-0.066773758,0.1665,49,0,49,0,1,,,,,,,,,,
space,1.9716,097181,001,2023-07-31_12h45.47.457,arm3_eps,2022.2.5,Win32,60.05645307,613a9a5a92a1c84fc4e3fd07,64c7fed44a04f777bb1e18ce,64c8014b2d8b7cc81a4f1258,,,,,,,,,,,,,,,,,,,,,,
space,3.4532,097181,001,2023-07-31_12h45.47.457,arm3_eps,2022.2.5,Win32,60.05645307,613a9a5a92a1c84fc4e3fd07,64c7fed44a04f777bb1e18ce,64c8014b2d8b7cc81a4f1258,right,-1,0.75,0.1786,0,-0.015765367,0.7098,,,,,,0,0,0,0,1,,,,,
,,097181,001,2023-07-31_12h45.47.457,arm3_eps,2022.2.5,Win32,60.05645307,613a9a5a92a1c84fc4e3fd07,64c7fed44a04f777bb1e18ce,64c8014b2d8b7cc81a4f1258,right,-1,0.75,0.1786,0,-0.023715053,0.1938,,,,,,1,0,1,0,1,,,,,
,,097181,001,2023-07-31_12h45.47.457,arm3_eps,2022.2.5,Win32,60.05645307,613a9a5a92a1c84fc4e3fd07,64c7fed44a04f777bb1e18ce,64c8014b2d8b7cc81a4f1258,right,-1,0.75,0.1786,0,-0.038558198,0.1115,,,,,,2,0,2,0,1,,,,,
,,097181,001,2023-07-31_12h45.47.457,arm3_eps,2022.2.5,Win32,60.05645307,613a9a5a92a1c84fc4e3fd07,64c7fed44a04f777bb1e18ce,64c8014b2d8b7cc81a4f1258,right,-1,0.75,0.1786,0,-0.047209786,0.1117,,,,,,3,0,3,0,1,,,,,
,,097181,001,2023-07-31_12h45.47.457,arm3_eps,2022.2.5,Win32,60.05645307,613a9a5a92a1c84fc4e3fd07,64c7fed44a04f777bb1e18ce,64c8014b2d8b7cc81a4f1258,right,-1,0.75,0.1786,0,-0.015459794,0.0752,,,,,,4,0,4,0,1,,,,,
,,097181,001,2023-07-31_12h45.47.457,arm3_eps,2022.2.5,Win32,60.05645307,613a9a5a92a1c84fc4e3fd07,64c7fed44a04f777bb1e18ce,64c8014b2d8b7cc81a4f1258,right,-1,0.75,0.1786,0,-0.026097691,0.1016,,,,,,5,0,5,0,1,,,,,
,,097181,001,2023-07-31_12h45.47.457,arm3_eps,2022.2.5,Win32,60.05645307,613a9a5a92a1c84fc4e3fd07,64c7fed44a04f777bb1e18ce,64c8014b2d8b7cc81a4f1258,down,1,0.75,0.1786,1,0,0.377,,,,,,6,0,6,0,1,,,,,
,,097181,001,2023-07-31_12h45.47.457,arm3_eps,2022.2.5,Win32,60.05645307,613a9a5a92a1c84fc4e3fd07,64c7fed44a04f777bb1e18ce,64c8014b2d8b7cc81a4f1258,right,1,0.75,0.1786,1,-0.00107283,0.8789,,,,,,7,0,7,0,1,,,,,
,,097181,001,2023-07-31_12h45.47.457,arm3_eps,2022.2.5,Win32,60.05645307,613a9a5a92a1c84fc4e3fd07,64c7fed44a04f777bb1e18ce,64c8014b2d8b7cc81a4f1258,right,1,0.75,0.1786,1,-0.000484498,0.1434,,,,,,8,0,8,0,1,,,,,
,,097181,001,2023-07-31_12h45.47.457,arm3_eps,2022.2.5,Win32,60.05645307,613a9a5a92a1c84fc4e3fd07,64c7fed44a04f777bb1e18ce,64c8014b2d8b7cc81a4f1258,right,1,0.75,0.1786,1,0.008570319,0.0772,,,,,,9,0,9,0,1,,,,,
,,097181,001,2023-07-31_12h45.47.457,arm3_eps,2022.2.5,Win32,60.05645307,613a9a5a92a1c84fc4e3fd07,64c7fed44a04f777bb1e18ce,64c8014b2d8b7cc81a4f1258,right,1,0.75,0.1786,1,0.031229582,0.0934,,,,,,10,0,10,0,1,,,,,
,,097181,001,2023-07-31_12h45.47.457,arm3_eps,2022.2.5,Win32,60.05645307,613a9a5a92a1c84fc4e3fd07,64c7fed44a04f777bb1e18ce,64c8014b2d8b7cc81a4f1258,right,1,0.75,0.1786,1,0.02819099,0.1024,,,,,,11,0,11,0,1,,,,,
,,097181,001,2023-07-31_12h45.47.457,arm3_eps,2022.2.5,Win32,60.05645307,613a9a5a92a1c84fc4e3fd07,64c7fed44a04f777bb1e18ce,64c8014b2d8b7cc81a4f1258,right,1,0.75,0.1786,1,0.048942285,0.1068,,,,,,12,0,12,0,1,,,,,
,,097181,001,2023-07-31_12h45.47.457,arm3_eps,2022.2.5,Win32,60.05645307,613a9a5a92a1c84fc4e3fd07,64c7fed44a04f777bb1e18ce,64c8014b2d8b7cc81a4f1258,right,1,0.75,0.1786,1,0.07189287,0.1115,,,,,,13,0,13,0,1,,,,,
,,097181,001,2023-07-31_12h45.47.457,arm3_eps,2022.2.5,Win32,60.05645307,613a9a5a92a1c84fc4e3fd07,64c7fed44a04f777bb1e18ce,64c8014b2d8b7cc81a4f1258,up,1,0.75,0.1786,2,0,0.4647,,,,,,14,0,14,0,1,,,,,
,,097181,001,2023-07-31_12h45.47.457,arm3_eps,2022.2.5,Win32,60.05645307,613a9a5a92a1c84fc4e3fd07,64c7fed44a04f777bb1e18ce,64c8014b2d8b7cc81a4f1258,right,1,0.75,0.1786,2,-0.001091944,0.8636,,,,,,15,0,15,0,1,,,,,
,,097181,001,2023-07-31_12h45.47.457,arm3_eps,2022.2.5,Win32,60.05645307,613a9a5a92a1c84fc4e3fd07,64c7fed44a04f777bb1e18ce,64c8014b2d8b7cc81a4f1258,right,1,0.75,0.1786,2,0.024074552,0.143,,,,,,16,0,16,0,1,,,,,
,,097181,001,2023-07-31_12h45.47.457,arm3_eps,2022.2.5,Win32,60.05645307,613a9a5a92a1c84fc4e3fd07,64c7fed44a04f777bb1e18ce,64c8014b2d8b7cc81a4f1258,right,1,0.75,0.1786,2,0.012733627,0.1142,,,,,,17,0,17,0,1,,,,,
,,097181,001,2023-07-31_12h45.47.457,arm3_eps,2022.2.5,Win32,60.05645307,613a9a5a92a1c84fc4e3fd07,64c7fed44a04f777bb1e18ce,64c8014b2d8b7cc81a4f1258,right,1,0.75,0.1786,2,0.032522835,0.127,,,,,,18,0,18,0,1,,,,,
,,097181,001,2023-07-31_12h45.47.457,arm3_eps,2022.2.5,Win32,60.05645307,613a9a5a92a1c84fc4e3fd07,64c7fed44a04f777bb1e18ce,64c8014b2d8b7cc81a4f1258,right,1,0.75,0.1786,2,0.029400174,0.077,,,,,,19,0,19,0,1,,,,,
,,097181,001,2023-07-31_12h45.47.457,arm3_eps,2022.2.5,Win32,60.05645307,613a9a5a92a1c84fc4e3fd07,64c7fed44a04f777bb1e18ce,64c8014b2d8b7cc81a4f1258,right,1,0.75,0.1786,2,0.051607026,0.0935,,,,,,20,0,20,0,1,,,,,
,,097181,001,2023-07-31_12h45.47.457,arm3_eps,2022.2.5,Win32,60.05645307,613a9a5a92a1c84fc4e3fd07,64c7fed44a04f777bb1e18ce,64c8014b2d8b7cc81a4f1258,right,1,0.75,0.1786,2,0.070157439,0.1102,,,,,,21,0,21,0,1,,,,,
,,097181,001,2023-07-31_12h45.47.457,arm3_eps,2022.2.5,Win32,60.05645307,613a9a5a92a1c84fc4e3fd07,64c7fed44a04f777bb1e18ce,64c8014b2d8b7cc81a4f1258,right,1,0.75,0.1786,2,0.103118307,0.1099,,,,,,22,0,22,0,1,,,,,
,,097181,001,2023-07-31_12h45.47.457,arm3_eps,2022.2.5,Win32,60.05645307,613a9a5a92a1c84fc4e3fd07,64c7fed44a04f777bb1e18ce,64c8014b2d8b7cc81a4f1258,up,1,0.75,0.1786,3,0,0.4768,,,,,,23,0,23,0,1,,,,,
,,097181,001,2023-07-31_12h45.47.457,arm3_eps,2022.2.5,Win32,60.05645307,613a9a5a92a1c84fc4e3fd07,64c7fed44a04f777bb1e18ce,64c8014b2d8b7cc81a4f1258,right,1,0.75,0.1786,3,0.003139979,0.7792,,,,,,24,0,24,0,1,,,,,
,,097181,001,2023-07-31_12h45.47.457,arm3_eps,2022.2.5,Win32,60.05645307,613a9a5a92a1c84fc4e3fd07,64c7fed44a04f777bb1e18ce,64c8014b2d8b7cc81a4f1258,right,1,0.75,0.1786,3,0.004844036,0.1438,,,,,,25,0,25,0,1,,,,,
,,097181,001,2023-07-31_12h45.47.457,arm3_eps,2022.2.5,Win32,60.05645307,613a9a5a92a1c84fc4e3fd07,64c7fed44a04f777bb1e18ce,64c8014b2d8b7cc81a4f1258,right,1,0.75,0.1786,3,-0.012237421,0.142,,,,,,26,0,26,0,1,,,,,
,,097181,001,2023-07-31_12h45.47.457,arm3_eps,2022.2.5,Win32,60.05645307,613a9a5a92a1c84fc4e3fd07,64c7fed44a04f777bb1e18ce,64c8014b2d8b7cc81a4f1258,right,1,0.75,0.1786,3,-0.005912358,0.2008,,,,,,27,0,27,0,1,,,,,
,,097181,001,2023-07-31_12h45.47.457,arm3_eps,2022.2.5,Win32,60.05645307,613a9a5a92a1c84fc4e3fd07,64c7fed44a04f777bb1e18ce,64c8014b2d8b7cc81a4f1258,right,1,0.75,0.1786,3,0.012853253,0.1268,,,,,,28,0,28,0,1,,,,,
,,097181,001,2023-07-31_12h45.47.457,arm3_eps,2022.2.5,Win32,60.05645307,613a9a5a92a1c84fc4e3fd07,64c7fed44a04f777bb1e18ce,64c8014b2d8b7cc81a4f1258,right,1,0.75,0.1786,3,-0.001401499,0.1139,,,,,,29,0,29,0,1,,,,,
,,097181,001,2023-07-31_12h45.47.457,arm3_eps,2022.2.5,Win32,60.05645307,613a9a5a92a1c84fc4e3fd07,64c7fed44a04f777bb1e18ce,64c8014b2d8b7cc81a4f1258,right,1,0.75,0.1786,3,0.02705408,0.2091,,,,,,30,0,30,0,1,,,,,
,,097181,001,2023-07-31_12h45.47.457,arm3_eps,2022.2.5,Win32,60.05645307,613a9a5a92a1c84fc4e3fd07,64c7fed44a04f777bb1e18ce,64c8014b2d8b7cc81a4f1258,right,1,0.75,0.1786,3,0.03119188,0.1615,,,,,,31,0,31,0,1,,,,,
,,097181,001,2023-07-31_12h45.47.457,arm3_eps,2022.2.5,Win32,60.05645307,613a9a5a92a1c84fc4e3fd07,64c7fed44a04f777bb1e18ce,64c8014b2d8b7cc81a4f1258,right,1,0.75,0.1786,3,0.034140369,0.1601,,,,,,32,0,32,0,1,,,,,
,,097181,001,2023-07-31_12h45.47.457,arm3_eps,2022.2.5,Win32,60.05645307,613a9a5a92a1c84fc4e3fd07,64c7fed44a04f777bb1e18ce,64c8014b2d8b7cc81a4f1258,down,1,0.75,0.1786,2,0,0.1936,,,,,,33,0,33,0,1,,,,,
,,097181,001,2023-07-31_12h45.47.457,arm3_eps,2022.2.5,Win32,60.05645307,613a9a5a92a1c84fc4e3fd07,64c7fed44a04f777bb1e18ce,64c8014b2d8b7cc81a4f1258,right,1,0.75,0.1786,2,0.012905246,0.9401,,,,,,34,0,34,0,1,,,,,
,,097181,001,2023-07-31_12h45.47.457,arm3_eps,2022.2.5,Win32,60.05645307,613a9a5a92a1c84fc4e3fd07,64c7fed44a04f777bb1e18ce,64c8014b2d8b7cc81a4f1258,right,1,0.75,0.1786,2,0.023350252,0.1327,,,,,,35,0,35,0,1,,,,,
,,097181,001,2023-07-31_12h45.47.457,arm3_eps,2022.2.5,Win32,60.05645307,613a9a5a92a1c84fc4e3fd07,64c7fed44a04f777bb1e18ce,64c8014b2d8b7cc81a4f1258,right,1,0.75,0.1786,2,0.043298585,0.114,,,,,,36,0,36,0,1,,,,,
,,097181,001,2023-07-31_12h45.47.457,arm3_eps,2022.2.5,Win32,60.05645307,613a9a5a92a1c84fc4e3fd07,64c7fed44a04f777bb1e18ce,64c8014b2d8b7cc81a4f1258,right,1,0.75,0.1786,2,0.031514724,0.1097,,,,,,37,0,37,0,1,,,,,
,,097181,001,2023-07-31_12h45.47.457,arm3_eps,2022.2.5,Win32,60.05645307,613a9a5a92a1c84fc4e3fd07,64c7fed44a04f777bb1e18ce,64c8014b2d8b7cc81a4f1258,right,1,0.75,0.1786,2,0.061194716,0.1114,,,,,,38,0,38,0,1,,,,,
,,097181,001,2023-07-31_12h45.47.457,arm3_eps,2022.2.5,Win32,60.05645307,613a9a5a92a1c84fc4e3fd07,64c7fed44a04f777bb1e18ce,64c8014b2d8b7cc81a4f1258,right,1,0.75,0.1786,2,0.062431366,0.1116,,,,,,39,0,39,0,1,,,,,
,,097181,001,2023-07-31_12h45.47.457,arm3_eps,2022.2.5,Win32,60.05645307,613a9a5a92a1c84fc4e3fd07,64c7fed44a04f777bb1e18ce,64c8014b2d8b7cc81a4f1258,right,1,0.75,0.1786,2,0.082412941,0.1011,,,,,,40,0,40,0,1,,,,,
,,097181,001,2023-07-31_12h45.47.457,arm3_eps,2022.2.5,Win32,60.05645307,613a9a5a92a1c84fc4e3fd07,64c7fed44a04f777bb1e18ce,64c8014b2d8b7cc81a4f1258,right,1,0.75,0.1786,2,0.098096189,0.1103,,,,,,41,0,41,0,1,,,,,
,,097181,001,2023-07-31_12h45.47.457,arm3_eps,2022.2.5,Win32,60.05645307,613a9a5a92a1c84fc4e3fd07,64c7fed44a04f777bb1e18ce,64c8014b2d8b7cc81a4f1258,right,1,0.75,0.1786,2,0.067045138,0.1111,,,,,,42,0,42,0,1,,,,,
,,097181,001,2023-07-31_12h45.47.457,arm3_eps,2022.2.5,Win32,60.05645307,613a9a5a92a1c84fc4e3fd07,64c7fed44a04f777bb1e18ce,64c8014b2d8b7cc81a4f1258,up,-1,0.75,0.1786,3,0,0.5938,,,,,,43,0,43,0,1,,,,,
,,097181,001,2023-07-31_12h45.47.457,arm3_eps,2022.2.5,Win32,60.05645307,613a9a5a92a1c84fc4e3fd07,64c7fed44a04f777bb1e18ce,64c8014b2d8b7cc81a4f1258,right,-1,0.75,0.1786,3,-0.028866224,0.3937,,,,,,44,0,44,0,1,,,,,
,,097181,001,2023-07-31_12h45.47.457,arm3_eps,2022.2.5,Win32,60.05645307,613a9a5a92a1c84fc4e3fd07,64c7fed44a04f777bb1e18ce,64c8014b2d8b7cc81a4f1258,right,-1,0.75,0.1786,3,-0.038231881,0.2123,,,,,,45,0,45,0,1,,,,,
,,097181,001,2023-07-31_12h45.47.457,arm3_eps,2022.2.5,Win32,60.05645307,613a9a5a92a1c84fc4e3fd07,64c7fed44a04f777bb1e18ce,64c8014b2d8b7cc81a4f1258,right,-1,0.75,0.1786,3,-0.057533108,0.1445,,,,,,46,0,46,0,1,,,,,
,,097181,001,2023-07-31_12h45.47.457,arm3_eps,2022.2.5,Win32,60.05645307,613a9a5a92a1c84fc4e3fd07,64c7fed44a04f777bb1e18ce,64c8014b2d8b7cc81a4f1258,right,-1,0.75,0.1786,3,-0.056865244,0.1278,,,,,,47,0,47,0,1,,,,,
,,097181,001,2023-07-31_12h45.47.457,arm3_eps,2022.2.5,Win32,60.05645307,613a9a5a92a1c84fc4e3fd07,64c7fed44a04f777bb1e18ce,64c8014b2d8b7cc81a4f1258,right,-1,0.75,0.1786,3,-0.073288938,0.1115,,,,,,48,0,48,0,1,,,,,
,,097181,001,2023-07-31_12h45.47.457,arm3_eps,2022.2.5,Win32,60.05645307,613a9a5a92a1c84fc4e3fd07,64c7fed44a04f777bb1e18ce,64c8014b2d8b7cc81a4f1258,right,-1,0.75,0.1786,3,-0.085997,0.0977,,,,,,49,0,49,0,1,,,,,
,,097181,001,2023-07-31_12h45.47.457,arm3_eps,2022.2.5,Win32,60.05645307,613a9a5a92a1c84fc4e3fd07,64c7fed44a04f777bb1e18ce,64c8014b2d8b7cc81a4f1258,right,-1,0.75,0.1786,3,-0.098878578,0.1119,,,,,,50,0,50,0,1,,,,,
,,097181,001,2023-07-31_12h45.47.457,arm3_eps,2022.2.5,Win32,60.05645307,613a9a5a92a1c84fc4e3fd07,64c7fed44a04f777bb1e18ce,64c8014b2d8b7cc81a4f1258,right,-1,0.75,0.1786,3,-0.127972297,0.1085,,,,,,51,0,51,0,1,,,,,
,,097181,001,2023-07-31_12h45.47.457,arm3_eps,2022.2.5,Win32,60.05645307,613a9a5a92a1c84fc4e3fd07,64c7fed44a04f777bb1e18ce,64c8014b2d8b7cc81a4f1258,up,-1,0.75,0.1786,3,0,0.2507,,,,,,52,0,52,0,1,,,,,
,,097181,001,2023-07-31_12h45.47.457,arm3_eps,2022.2.5,Win32,60.05645307,613a9a5a92a1c84fc4e3fd07,64c7fed44a04f777bb1e18ce,64c8014b2d8b7cc81a4f1258,right,-1,0.75,0.1786,3,-0.019057336,0.7682,,,,,,53,0,53,0,1,,,,,
,,097181,001,2023-07-31_12h45.47.457,arm3_eps,2022.2.5,Win32,60.05645307,613a9a5a92a1c84fc4e3fd07,64c7fed44a04f777bb1e18ce,64c8014b2d8b7cc81a4f1258,right,-1,0.75,0.1786,3,-0.03450578,0.1626,,,,,,54,0,54,0,1,,,,,
,,097181,001,2023-07-31_12h45.47.457,arm3_eps,2022.2.5,Win32,60.05645307,613a9a5a92a1c84fc4e3fd07,64c7fed44a04f777bb1e18ce,64c8014b2d8b7cc81a4f1258,right,-1,0.75,0.1786,3,-0.060631847,0.1439,,,,,,55,0,55,0,1,,,,,
,,097181,001,2023-07-31_12h45.47.457,arm3_eps,2022.2.5,Win32,60.05645307,613a9a5a92a1c84fc4e3fd07,64c7fed44a04f777bb1e18ce,64c8014b2d8b7cc81a4f1258,right,-1,0.75,0.1786,3,-0.049779659,0.095,,,,,,56,0,56,0,1,,,,,
,,097181,001,2023-07-31_12h45.47.457,arm3_eps,2022.2.5,Win32,60.05645307,613a9a5a92a1c84fc4e3fd07,64c7fed44a04f777bb1e18ce,64c8014b2d8b7cc81a4f1258,right,-1,0.75,0.1786,3,-0.023895091,0.1106,,,,,,57,0,57,0,1,,,,,
,,097181,001,2023-07-31_12h45.47.457,arm3_eps,2022.2.5,Win32,60.05645307,613a9a5a92a1c84fc4e3fd07,64c7fed44a04f777bb1e18ce,64c8014b2d8b7cc81a4f1258,right,-1,0.75,0.1786,3,-0.03019316,0.1118,,,,,,58,0,58,0,1,,,,,
,,097181,001,2023-07-31_12h45.47.457,arm3_eps,2022.2.5,Win32,60.05645307,613a9a5a92a1c84fc4e3fd07,64c7fed44a04f777bb1e18ce,64c8014b2d8b7cc81a4f1258,right,-1,0.75,0.1786,3,-0.004841085,0.1278,,,,,,59,0,59,0,1,,,,,
,,097181,001,2023-07-31_12h45.47.457,arm3_eps,2022.2.5,Win32,60.05645307,613a9a5a92a1c84fc4e3fd07,64c7fed44a04f777bb1e18ce,64c8014b2d8b7cc81a4f1258,right,-1,0.75,0.1786,3,-0.031082874,0.1107,,,,,,60,0,60,0,1,,,,,
,,097181,001,2023-07-31_12h45.47.457,arm3_eps,2022.2.5,Win32,60.05645307,613a9a5a92a1c84fc4e3fd07,64c7fed44a04f777bb1e18ce,64c8014b2d8b7cc81a4f1258,right,-1,0.75,0.1786,3,-0.060950952,0.0969,,,,,,61,0,61,0,1,,,,,
,,097181,001,2023-07-31_12h45.47.457,arm3_eps,2022.2.5,Win32,60.05645307,613a9a5a92a1c84fc4e3fd07,64c7fed44a04f777bb1e18ce,64c8014b2d8b7cc81a4f1258,down,-1,0.75,0.1786,4,0,0.5767,,,,,,62,0,62,0,1,,,,,
,,097181,001,2023-07-31_12h45.47.457,arm3_eps,2022.2.5,Win32,60.05645307,613a9a5a92a1c84fc4e3fd07,64c7fed44a04f777bb1e18ce,64c8014b2d8b7cc81a4f1258,right,-1,0.75,0.1786,4,0.010781875,0.9461,,,,,,63,0,63,0,1,,,,,
,,097181,001,2023-07-31_12h45.47.457,arm3_eps,2022.2.5,Win32,60.05645307,613a9a5a92a1c84fc4e3fd07,64c7fed44a04f777bb1e18ce,64c8014b2d8b7cc81a4f1258,right,-1,0.75,0.1786,4,0.002157232,0.1182,,,,,,64,0,64,0,1,,,,,
,,097181,001,2023-07-31_12h45.47.457,arm3_eps,2022.2.5,Win32,60.05645307,613a9a5a92a1c84fc4e3fd07,64c7fed44a04f777bb1e18ce,64c8014b2d8b7cc81a4f1258,right,-1,0.75,0.1786,4,0.027787541,0.2356,,,,,,65,0,65,0,1,,,,,
,,097181,001,2023-07-31_12h45.47.457,arm3_eps,2022.2.5,Win32,60.05645307,613a9a5a92a1c84fc4e3fd07,64c7fed44a04f777bb1e18ce,64c8014b2d8b7cc81a4f1258,right,-1,0.75,0.1786,4,0.010725846,0.1125,,,,,,66,0,66,0,1,,,,,
,,097181,001,2023-07-31_12h45.47.457,arm3_eps,2022.2.5,Win32,60.05645307,613a9a5a92a1c84fc4e3fd07,64c7fed44a04f777bb1e18ce,64c8014b2d8b7cc81a4f1258,right,-1,0.75,0.1786,4,0.003976258,0.1182,,,,,,67,0,67,0,1,,,,,
,,097181,001,2023-07-31_12h45.47.457,arm3_eps,2022.2.5,Win32,60.05645307,613a9a5a92a1c84fc4e3fd07,64c7fed44a04f777bb1e18ce,64c8014b2d8b7cc81a4f1258,right,-1,0.75,0.1786,4,-0.062693256,0.1173,,,,,,68,0,68,0,1,,,,,
,,097181,001,2023-07-31_12h45.47.457,arm3_eps,2022.2.5,Win32,60.05645307,613a9a5a92a1c84fc4e3fd07,64c7fed44a04f777bb1e18ce,64c8014b2d8b7cc81a4f1258,right,-1,0.75,0.1786,4,-0.074195655,0.2153,,,,,,69,0,69,0,1,,,,,
,,097181,001,2023-07-31_12h45.47.457,arm3_eps,2022.2.5,Win32,60.05645307,613a9a5a92a1c84fc4e3fd07,64c7fed44a04f777bb1e18ce,64c8014b2d8b7cc81a4f1258,down,-1,0.75,0.1786,5,0,0.417,,,,,,70,0,70,0,1,,,,,
,,097181,001,2023-07-31_12h45.47.457,arm3_eps,2022.2.5,Win32,60.05645307,613a9a5a92a1c84fc4e3fd07,64c7fed44a04f777bb1e18ce,64c8014b2d8b7cc81a4f1258,right,-1,0.75,0.1786,5,-0.005159967,0.3406,,,,,,71,0,71,0,1,,,,,
,,097181,001,2023-07-31_12h45.47.457,arm3_eps,2022.2.5,Win32,60.05645307,613a9a5a92a1c84fc4e3fd07,64c7fed44a04f777bb1e18ce,64c8014b2d8b7cc81a4f1258,right,-1,0.75,0.1786,5,0.000457246,0.2318,,,,,,72,0,72,0,1,,,,,
,,097181,001,2023-07-31_12h45.47.457,arm3_eps,2022.2.5,Win32,60.05645307,613a9a5a92a1c84fc4e3fd07,64c7fed44a04f777bb1e18ce,64c8014b2d8b7cc81a4f1258,right,-1,0.75,0.1786,5,-0.018402029,0.145,,,,,,73,0,73,0,1,,,,,
,,097181,001,2023-07-31_12h45.47.457,arm3_eps,2022.2.5,Win32,60.05645307,613a9a5a92a1c84fc4e3fd07,64c7fed44a04f777bb1e18ce,64c8014b2d8b7cc81a4f1258,right,-1,0.75,0.1786,5,-0.022254863,0.1108,,,,,,74,0,74,0,1,,,,,
,,097181,001,2023-07-31_12h45.47.457,arm3_eps,2022.2.5,Win32,60.05645307,613a9a5a92a1c84fc4e3fd07,64c7fed44a04f777bb1e18ce,64c8014b2d8b7cc81a4f1258,right,-1,0.75,0.1786,5,-0.019976877,0.1278,,,,,,75,0,75,0,1,,,,,
,,097181,001,2023-07-31_12h45.47.457,arm3_eps,2022.2.5,Win32,60.05645307,613a9a5a92a1c84fc4e3fd07,64c7fed44a04f777bb1e18ce,64c8014b2d8b7cc81a4f1258,right,-1,0.75,0.1786,5,-0.025246107,0.1616,,,,,,76,0,76,0,1,,,,,
,,097181,001,2023-07-31_12h45.47.457,arm3_eps,2022.2.5,Win32,60.05645307,613a9a5a92a1c84fc4e3fd07,64c7fed44a04f777bb1e18ce,64c8014b2d8b7cc81a4f1258,right,-1,0.75,0.1786,5,-0.064805289,0.1446,,,,,,77,0,77,0,1,,,,,
,,097181,001,2023-07-31_12h45.47.457,arm3_eps,2022.2.5,Win32,60.05645307,613a9a5a92a1c84fc4e3fd07,64c7fed44a04f777bb1e18ce,64c8014b2d8b7cc81a4f1258,down,1,0.75,0.1786,6,0,0.4277,,,,,,78,0,78,0,1,,,,,
,,097181,001,2023-07-31_12h45.47.457,arm3_eps,2022.2.5,Win32,60.05645307,613a9a5a92a1c84fc4e3fd07,64c7fed44a04f777bb1e18ce,64c8014b2d8b7cc81a4f1258,right,1,0.75,0.1786,6,-0.003955589,0.8706,,,,,,79,0,79,0,1,,,,,
,,097181,001,2023-07-31_12h45.47.457,arm3_eps,2022.2.5,Win32,60.05645307,613a9a5a92a1c84fc4e3fd07,64c7fed44a04f777bb1e18ce,64c8014b2d8b7cc81a4f1258,right,1,0.75,0.1786,6,-0.027567055,0.1463,,,,,,80,0,80,0,1,,,,,
,,097181,001,2023-07-31_12h45.47.457,arm3_eps,2022.2.5,Win32,60.05645307,613a9a5a92a1c84fc4e3fd07,64c7fed44a04f777bb1e18ce,64c8014b2d8b7cc81a4f1258,right,1,0.75,0.1786,6,-0.02571957,0.1519,,,,,,81,0,81,0,1,,,,,
,,097181,001,2023-07-31_12h45.47.457,arm3_eps,2022.2.5,Win32,60.05645307,613a9a5a92a1c84fc4e3fd07,64c7fed44a04f777bb1e18ce,64c8014b2d8b7cc81a4f1258,right,1,0.75,0.1786,6,-0.001201871,0.1126,,,,,,82,0,82,0,1,,,,,
,,097181,001,2023-07-31_12h45.47.457,arm3_eps,2022.2.5,Win32,60.05645307,613a9a5a92a1c84fc4e3fd07,64c7fed44a04f777bb1e18ce,64c8014b2d8b7cc81a4f1258,right,1,0.75,0.1786,6,0.02800864,0.1188,,,,,,83,0,83,0,1,,,,,
,,097181,001,2023-07-31_12h45.47.457,arm3_eps,2022.2.5,Win32,60.05645307,613a9a5a92a1c84fc4e3fd07,64c7fed44a04f777bb1e18ce,64c8014b2d8b7cc81a4f1258,up,1,0.75,0.1786,7,0,0.5268,,,,,,84,0,84,0,1,,,,,
,,097181,001,2023-07-31_12h45.47.457,arm3_eps,2022.2.5,Win32,60.05645307,613a9a5a92a1c84fc4e3fd07,64c7fed44a04f777bb1e18ce,64c8014b2d8b7cc81a4f1258,right,1,0.75,0.1786,7,0.001453449,0.8343,,,,,,85,0,85,0,1,,,,,
,,097181,001,2023-07-31_12h45.47.457,arm3_eps,2022.2.5,Win32,60.05645307,613a9a5a92a1c84fc4e3fd07,64c7fed44a04f777bb1e18ce,64c8014b2d8b7cc81a4f1258,right,1,0.75,0.1786,7,0.013848444,0.1609,,,,,,86,0,86,0,1,,,,,
,,097181,001,2023-07-31_12h45.47.457,arm3_eps,2022.2.5,Win32,60.05645307,613a9a5a92a1c84fc4e3fd07,64c7fed44a04f777bb1e18ce,64c8014b2d8b7cc81a4f1258,right,1,0.75,0.1786,7,0.022879357,0.1283,,,,,,87,0,87,0,1,,,,,
,,097181,001,2023-07-31_12h45.47.457,arm3_eps,2022.2.5,Win32,60.05645307,613a9a5a92a1c84fc4e3fd07,64c7fed44a04f777bb1e18ce,64c8014b2d8b7cc81a4f1258,right,1,0.75,0.1786,7,0.04009158,0.0986,,,,,,88,0,88,0,1,,,,,
,,097181,001,2023-07-31_12h45.47.457,arm3_eps,2022.2.5,Win32,60.05645307,613a9a5a92a1c84fc4e3fd07,64c7fed44a04f777bb1e18ce,64c8014b2d8b7cc81a4f1258,right,1,0.75,0.1786,7,0.061045526,0.1116,,,,,,89,0,89,0,1,,,,,
,,097181,001,2023-07-31_12h45.47.457,arm3_eps,2022.2.5,Win32,60.05645307,613a9a5a92a1c84fc4e3fd07,64c7fed44a04f777bb1e18ce,64c8014b2d8b7cc81a4f1258,down,1,0.75,0.1786,6,0,0.761,,,,,,90,0,90,0,1,,,,,
,,097181,001,2023-07-31_12h45.47.457,arm3_eps,2022.2.5,Win32,60.05645307,613a9a5a92a1c84fc4e3fd07,64c7fed44a04f777bb1e18ce,64c8014b2d8b7cc81a4f1258,right,1,0.75,0.1786,6,0.047446655,0.9018,,,,,,91,0,91,0,1,,,,,
,,097181,001,2023-07-31_12h45.47.457,arm3_eps,2022.2.5,Win32,60.05645307,613a9a5a92a1c84fc4e3fd07,64c7fed44a04f777bb1e18ce,64c8014b2d8b7cc81a4f1258,right,1,0.75,0.1786,6,0.06990451,0.2945,,,,,,92,0,92,0,1,,,,,
,,097181,001,2023-07-31_12h45.47.457,arm3_eps,2022.2.5,Win32,60.05645307,613a9a5a92a1c84fc4e3fd07,64c7fed44a04f777bb1e18ce,64c8014b2d8b7cc81a4f1258,right,1,0.75,0.1786,6,0.074762782,0.1153,,,,,,93,0,93,0,1,,,,,
,,097181,001,2023-07-31_12h45.47.457,arm3_eps,2022.2.5,Win32,60.05645307,613a9a5a92a1c84fc4e3fd07,64c7fed44a04f777bb1e18ce,64c8014b2d8b7cc81a4f1258,right,1,0.75,0.1786,6,0.113838435,0.1449,,,,,,94,0,94,0,1,,,,,
,,097181,001,2023-07-31_12h45.47.457,arm3_eps,2022.2.5,Win32,60.05645307,613a9a5a92a1c84fc4e3fd07,64c7fed44a04f777bb1e18ce,64c8014b2d8b7cc81a4f1258,right,1,0.75,0.1786,6,0.125775135,0.0986,,,,,,95,0,95,0,1,,,,,
,,097181,001,2023-07-31_12h45.47.457,arm3_eps,2022.2.5,Win32,60.05645307,613a9a5a92a1c84fc4e3fd07,64c7fed44a04f777bb1e18ce,64c8014b2d8b7cc81a4f1258,right,1,0.75,0.1786,6,0.124253582,0.1228,,,,,,96,0,96,0,1,,,,,
,,097181,001,2023-07-31_12h45.47.457,arm3_eps,2022.2.5,Win32,60.05645307,613a9a5a92a1c84fc4e3fd07,64c7fed44a04f777bb1e18ce,64c8014b2d8b7cc81a4f1258,right,1,0.75,0.1786,6,0.15260161,0.1333,,,,,,97,0,97,0,1,,,,,
,,097181,001,2023-07-31_12h45.47.457,arm3_eps,2022.2.5,Win32,60.05645307,613a9a5a92a1c84fc4e3fd07,64c7fed44a04f777bb1e18ce,64c8014b2d8b7cc81a4f1258,right,1,0.75,0.1786,6,0.18055884,0.1314,,,,,,98,0,98,0,1,,,,,
,,097181,001,2023-07-31_12h45.47.457,arm3_eps,2022.2.5,Win32,60.05645307,613a9a5a92a1c84fc4e3fd07,64c7fed44a04f777bb1e18ce,64c8014b2d8b7cc81a4f1258,up,1,0.75,0.1786,7,0,0.6145,,,,,,99,0,99,0,1,,,,,
,,097181,001,2023-07-31_12h45.47.457,arm3_eps,2022.2.5,Win32,60.05645307,613a9a5a92a1c84fc4e3fd07,64c7fed44a04f777bb1e18ce,64c8014b2d8b7cc81a4f1258,right,1,0.75,0.1786,7,0.001806788,0.8031,,,,,,100,0,100,0,1,,,,,
,,097181,001,2023-07-31_12h45.47.457,arm3_eps,2022.2.5,Win32,60.05645307,613a9a5a92a1c84fc4e3fd07,64c7fed44a04f777bb1e18ce,64c8014b2d8b7cc81a4f1258,right,1,0.75,0.1786,7,0.025984256,0.1605,,,,,,101,0,101,0,1,,,,,
,,097181,001,2023-07-31_12h45.47.457,arm3_eps,2022.2.5,Win32,60.05645307,613a9a5a92a1c84fc4e3fd07,64c7fed44a04f777bb1e18ce,64c8014b2d8b7cc81a4f1258,right,1,0.75,0.1786,7,0.029289278,0.1008,,,,,,102,0,102,0,1,,,,,
,,097181,001,2023-07-31_12h45.47.457,arm3_eps,2022.2.5,Win32,60.05645307,613a9a5a92a1c84fc4e3fd07,64c7fed44a04f777bb1e18ce,64c8014b2d8b7cc81a4f1258,right,1,0.75,0.1786,7,0.028402736,0.1113,,,,,,103,0,103,0,1,,,,,
,,097181,001,2023-07-31_12h45.47.457,arm3_eps,2022.2.5,Win32,60.05645307,613a9a5a92a1c84fc4e3fd07,64c7fed44a04f777bb1e18ce,64c8014b2d8b7cc81a4f1258,right,1,0.75,0.1786,7,0.032579773,0.1113,,,,,,104,0,104,0,1,,,,,
,,097181,001,2023-07-31_12h45.47.457,arm3_eps,2022.2.5,Win32,60.05645307,613a9a5a92a1c84fc4e3fd07,64c7fed44a04f777bb1e18ce,64c8014b2d8b7cc81a4f1258,right,1,0.75,0.1786,7,0.02689524,0.1111,,,,,,105,0,105,0,1,,,,,
,,097181,001,2023-07-31_12h45.47.457,arm3_eps,2022.2.5,Win32,60.05645307,613a9a5a92a1c84fc4e3fd07,64c7fed44a04f777bb1e18ce,64c8014b2d8b7cc81a4f1258,right,1,0.75,0.1786,7,0.023862422,0.4801,,,,,,106,0,106,0,1,,,,,
,,097181,001,2023-07-31_12h45.47.457,arm3_eps,2022.2.5,Win32,60.05645307,613a9a5a92a1c84fc4e3fd07,64c7fed44a04f777bb1e18ce,64c8014b2d8b7cc81a4f1258,right,1,0.75,0.1786,7,0.049251795,0.1919,,,,,,107,0,107,0,1,,,,,
,,097181,001,2023-07-31_12h45.47.457,arm3_eps,2022.2.5,Win32,60.05645307,613a9a5a92a1c84fc4e3fd07,64c7fed44a04f777bb1e18ce,64c8014b2d8b7cc81a4f1258,down,1,0.75,0.1786,6,0,0.5942,,,,,,108,0,108,0,1,,,,,
,,097181,001,2023-07-31_12h45.47.457,arm3_eps,2022.2.5,Win32,60.05645307,613a9a5a92a1c84fc4e3fd07,64c7fed44a04f777bb1e18ce,64c8014b2d8b7cc81a4f1258,right,1,0.75,0.1786,6,0.015564483,0.6872,,,,,,109,0,109,0,1,,,,,
,,097181,001,2023-07-31_12h45.47.457,arm3_eps,2022.2.5,Win32,60.05645307,613a9a5a92a1c84fc4e3fd07,64c7fed44a04f777bb1e18ce,64c8014b2d8b7cc81a4f1258,right,1,0.75,0.1786,6,0.04292734,0.1455,,,,,,110,0,110,0,1,,,,,
,,097181,001,2023-07-31_12h45.47.457,arm3_eps,2022.2.5,Win32,60.05645307,613a9a5a92a1c84fc4e3fd07,64c7fed44a04f777bb1e18ce,64c8014b2d8b7cc81a4f1258,right,1,0.75,0.1786,6,0.061834055,0.261,,,,,,111,0,111,0,1,,,,,
,,097181,001,2023-07-31_12h45.47.457,arm3_eps,2022.2.5,Win32,60.05645307,613a9a5a92a1c84fc4e3fd07,64c7fed44a04f777bb1e18ce,64c8014b2d8b7cc81a4f1258,right,1,0.75,0.1786,6,0.040125996,0.1266,,,,,,112,0,112,0,1,,,,,
,,097181,001,2023-07-31_12h45.47.457,arm3_eps,2022.2.5,Win32,60.05645307,613a9a5a92a1c84fc4e3fd07,64c7fed44a04f777bb1e18ce,64c8014b2d8b7cc81a4f1258,right,1,0.75,0.1786,6,0.068481172,0.1276,,,,,,113,0,113,0,1,,,,,
,,097181,001,2023-07-31_12h45.47.457,arm3_eps,2022.2.5,Win32,60.05645307,613a9a5a92a1c84fc4e3fd07,64c7fed44a04f777bb1e18ce,64c8014b2d8b7cc81a4f1258,right,1,0.75,0.1786,6,0.052992142,0.2941,,,,,,114,0,114,0,1,,,,,
,,097181,001,2023-07-31_12h45.47.457,arm3_eps,2022.2.5,Win32,60.05645307,613a9a5a92a1c84fc4e3fd07,64c7fed44a04f777bb1e18ce,64c8014b2d8b7cc81a4f1258,right,1,0.75,0.1786,6,0.07674043,0.161,,,,,,115,0,115,0,1,,,,,
,,097181,001,2023-07-31_12h45.47.457,arm3_eps,2022.2.5,Win32,60.05645307,613a9a5a92a1c84fc4e3fd07,64c7fed44a04f777bb1e18ce,64c8014b2d8b7cc81a4f1258,right,1,0.75,0.1786,6,0.094478513,0.1112,,,,,,116,0,116,0,1,,,,,
,,097181,001,2023-07-31_12h45.47.457,arm3_eps,2022.2.5,Win32,60.05645307,613a9a5a92a1c84fc4e3fd07,64c7fed44a04f777bb1e18ce,64c8014b2d8b7cc81a4f1258,right,1,0.75,0.1786,6,0.097734871,0.1278,,,,,,117,0,117,0,1,,,,,
,,097181,001,2023-07-31_12h45.47.457,arm3_eps,2022.2.5,Win32,60.05645307,613a9a5a92a1c84fc4e3fd07,64c7fed44a04f777bb1e18ce,64c8014b2d8b7cc81a4f1258,up,1,0.75,0.1786,6,0,1.5293,,,,,,118,0,118,0,1,,,,,
,,097181,001,2023-07-31_12h45.47.457,arm3_eps,2022.2.5,Win32,60.05645307,613a9a5a92a1c84fc4e3fd07,64c7fed44a04f777bb1e18ce,64c8014b2d8b7cc81a4f1258,right,1,0.75,0.1786,6,0.013612539,0.6014,,,,,,119,0,119,0,1,,,,,
,,097181,001,2023-07-31_12h45.47.457,arm3_eps,2022.2.5,Win32,60.05645307,613a9a5a92a1c84fc4e3fd07,64c7fed44a04f777bb1e18ce,64c8014b2d8b7cc81a4f1258,right,1,0.75,0.1786,6,0.037470935,0.5625,,,,,,120,0,120,0,1,,,,,
,,097181,001,2023-07-31_12h45.47.457,arm3_eps,2022.2.5,Win32,60.05645307,613a9a5a92a1c84fc4e3fd07,64c7fed44a04f777bb1e18ce,64c8014b2d8b7cc81a4f1258,right,1,0.75,0.1786,6,0.051994872,0.1588,,,,,,121,0,121,0,1,,,,,
,,097181,001,2023-07-31_12h45.47.457,arm3_eps,2022.2.5,Win32,60.05645307,613a9a5a92a1c84fc4e3fd07,64c7fed44a04f777bb1e18ce,64c8014b2d8b7cc81a4f1258,right,1,0.75,0.1786,6,0.056302349,0.1344,,,,,,122,0,122,0,1,,,,,
,,097181,001,2023-07-31_12h45.47.457,arm3_eps,2022.2.5,Win32,60.05645307,613a9a5a92a1c84fc4e3fd07,64c7fed44a04f777bb1e18ce,64c8014b2d8b7cc81a4f1258,right,1,0.75,0.1786,6,0.053906777,0.1612,,,,,,123,0,123,0,1,,,,,
,,097181,001,2023-07-31_12h45.47.457,arm3_eps,2022.2.5,Win32,60.05645307,613a9a5a92a1c84fc4e3fd07,64c7fed44a04f777bb1e18ce,64c8014b2d8b7cc81a4f1258,right,1,0.75,0.1786,6,0.04954197,0.1117,,,,,,124,0,124,0,1,,,,,
,,097181,001,2023-07-31_12h45.47.457,arm3_eps,2022.2.5,Win32,60.05645307,613a9a5a92a1c84fc4e3fd07,64c7fed44a04f777bb1e18ce,64c8014b2d8b7cc81a4f1258,right,1,0.75,0.1786,6,0.066558868,0.1452,,,,,,125,0,125,0,1,,,,,
,,097181,001,2023-07-31_12h45.47.457,arm3_eps,2022.2.5,Win32,60.05645307,613a9a5a92a1c84fc4e3fd07,64c7fed44a04f777bb1e18ce,64c8014b2d8b7cc81a4f1258,right,1,0.75,0.1786,6,0.046817119,0.1439,,,,,,126,0,126,0,1,,,,,
,,097181,001,2023-07-31_12h45.47.457,arm3_eps,2022.2.5,Win32,60.05645307,613a9a5a92a1c84fc4e3fd07,64c7fed44a04f777bb1e18ce,64c8014b2d8b7cc81a4f1258,up,1,0.75,0.1786,7,0,0.494,,,,,,127,0,127,0,1,,,,,
,,097181,001,2023-07-31_12h45.47.457,arm3_eps,2022.2.5,Win32,60.05645307,613a9a5a92a1c84fc4e3fd07,64c7fed44a04f777bb1e18ce,64c8014b2d8b7cc81a4f1258,right,1,0.75,0.1786,7,-0.017727423,0.6702,,,,,,128,0,128,0,1,,,,,
,,097181,001,2023-07-31_12h45.47.457,arm3_eps,2022.2.5,Win32,60.05645307,613a9a5a92a1c84fc4e3fd07,64c7fed44a04f777bb1e18ce,64c8014b2d8b7cc81a4f1258,right,1,0.75,0.1786,7,-0.018627848,0.1649,,,,,,129,0,129,0,1,,,,,
,,097181,001,2023-07-31_12h45.47.457,arm3_eps,2022.2.5,Win32,60.05645307,613a9a5a92a1c84fc4e3fd07,64c7fed44a04f777bb1e18ce,64c8014b2d8b7cc81a4f1258,right,1,0.75,0.1786,7,-0.006065874,0.1482,,,,,,130,0,130,0,1,,,,,
,,097181,001,2023-07-31_12h45.47.457,arm3_eps,2022.2.5,Win32,60.05645307,613a9a5a92a1c84fc4e3fd07,64c7fed44a04f777bb1e18ce,64c8014b2d8b7cc81a4f1258,right,1,0.75,0.1786,7,-0.016150449,0.1332,,,,,,131,0,131,0,1,,,,,
,,097181,001,2023-07-31_12h45.47.457,arm3_eps,2022.2.5,Win32,60.05645307,613a9a5a92a1c84fc4e3fd07,64c7fed44a04f777bb1e18ce,64c8014b2d8b7cc81a4f1258,right,1,0.75,0.1786,7,-0.044238939,0.1303,,,,,,132,0,132,0,1,,,,,
,,097181,001,2023-07-31_12h45.47.457,arm3_eps,2022.2.5,Win32,60.05645307,613a9a5a92a1c84fc4e3fd07,64c7fed44a04f777bb1e18ce,64c8014b2d8b7cc81a4f1258,right,1,0.75,0.1786,7,-0.055085852,0.1113,,,,,,133,0,133,0,1,,,,,
,,097181,001,2023-07-31_12h45.47.457,arm3_eps,2022.2.5,Win32,60.05645307,613a9a5a92a1c84fc4e3fd07,64c7fed44a04f777bb1e18ce,64c8014b2d8b7cc81a4f1258,right,1,0.75,0.1786,7,-0.05779337,0.1177,,,,,,134,0,134,0,1,,,,,
,,097181,001,2023-07-31_12h45.47.457,arm3_eps,2022.2.5,Win32,60.05645307,613a9a5a92a1c84fc4e3fd07,64c7fed44a04f777bb1e18ce,64c8014b2d8b7cc81a4f1258,right,1,0.75,0.1786,7,-0.051820675,0.1437,,,,,,135,0,135,0,1,,,,,
,,097181,001,2023-07-31_12h45.47.457,arm3_eps,2022.2.5,Win32,60.05645307,613a9a5a92a1c84fc4e3fd07,64c7fed44a04f777bb1e18ce,64c8014b2d8b7cc81a4f1258,down,1,0.75,0.1786,6,0,0.1776,,,,,,136,0,136,0,1,,,,,
,,097181,001,2023-07-31_12h45.47.457,arm3_eps,2022.2.5,Win32,60.05645307,613a9a5a92a1c84fc4e3fd07,64c7fed44a04f777bb1e18ce,64c8014b2d8b7cc81a4f1258,right,1,0.75,0.1786,6,0.018330437,0.5515,,,,,,137,0,137,0,1,,,,,
,,097181,001,2023-07-31_12h45.47.457,arm3_eps,2022.2.5,Win32,60.05645307,613a9a5a92a1c84fc4e3fd07,64c7fed44a04f777bb1e18ce,64c8014b2d8b7cc81a4f1258,right,1,0.75,0.1786,6,0.054897637,0.1927,,,,,,138,0,138,0,1,,,,,
,,097181,001,2023-07-31_12h45.47.457,arm3_eps,2022.2.5,Win32,60.05645307,613a9a5a92a1c84fc4e3fd07,64c7fed44a04f777bb1e18ce,64c8014b2d8b7cc81a4f1258,right,1,0.75,0.1786,6,0.033787483,0.1613,,,,,,139,0,139,0,1,,,,,
,,097181,001,2023-07-31_12h45.47.457,arm3_eps,2022.2.5,Win32,60.05645307,613a9a5a92a1c84fc4e3fd07,64c7fed44a04f777bb1e18ce,64c8014b2d8b7cc81a4f1258,right,1,0.75,0.1786,6,0.039327417,0.1303,,,,,,140,0,140,0,1,,,,,
,,097181,001,2023-07-31_12h45.47.457,arm3_eps,2022.2.5,Win32,60.05645307,613a9a5a92a1c84fc4e3fd07,64c7fed44a04f777bb1e18ce,64c8014b2d8b7cc81a4f1258,right,1,0.75,0.1786,6,0.046824651,0.1281,,,,,,141,0,141,0,1,,,,,
,,097181,001,2023-07-31_12h45.47.457,arm3_eps,2022.2.5,Win32,60.05645307,613a9a5a92a1c84fc4e3fd07,64c7fed44a04f777bb1e18ce,64c8014b2d8b7cc81a4f1258,right,1,0.75,0.1786,6,0.044989445,0.1265,,,,,,142,0,142,0,1,,,,,
,,097181,001,2023-07-31_12h45.47.457,arm3_eps,2022.2.5,Win32,60.05645307,613a9a5a92a1c84fc4e3fd07,64c7fed44a04f777bb1e18ce,64c8014b2d8b7cc81a4f1258,right,1,0.75,0.1786,6,0.080464473,0.1275,,,,,,143,0,143,0,1,,,,,
,,097181,001,2023-07-31_12h45.47.457,arm3_eps,2022.2.5,Win32,60.05645307,613a9a5a92a1c84fc4e3fd07,64c7fed44a04f777bb1e18ce,64c8014b2d8b7cc81a4f1258,right,1,0.75,0.1786,6,0.126204587,0.1132,,,,,,144,0,144,0,1,,,,,
,,097181,001,2023-07-31_12h45.47.457,arm3_eps,2022.2.5,Win32,60.05645307,613a9a5a92a1c84fc4e3fd07,64c7fed44a04f777bb1e18ce,64c8014b2d8b7cc81a4f1258,right,1,0.75,0.1786,6,0.133688739,0.131,,,,,,145,0,145,0,1,,,,,
,,097181,001,2023-07-31_12h45.47.457,arm3_eps,2022.2.5,Win32,60.05645307,613a9a5a92a1c84fc4e3fd07,64c7fed44a04f777bb1e18ce,64c8014b2d8b7cc81a4f1258,right,1,0.75,0.1786,6,0.155222943,0.1293,,,,,,146,0,146,0,1,,,,,
,,097181,001,2023-07-31_12h45.47.457,arm3_eps,2022.2.5,Win32,60.05645307,613a9a5a92a1c84fc4e3fd07,64c7fed44a04f777bb1e18ce,64c8014b2d8b7cc81a4f1258,right,1,0.75,0.1786,6,0.170011405,0.1442,,,,,,147,0,147,0,1,,,,,
,,097181,001,2023-07-31_12h45.47.457,arm3_eps,2022.2.5,Win32,60.05645307,613a9a5a92a1c84fc4e3fd07,64c7fed44a04f777bb1e18ce,64c8014b2d8b7cc81a4f1258,up,-1,0.75,0.1786,7,0,0.4617,,,,,,148,0,148,0,1,,,,,
,,097181,001,2023-07-31_12h45.47.457,arm3_eps,2022.2.5,Win32,60.05645307,613a9a5a92a1c84fc4e3fd07,64c7fed44a04f777bb1e18ce,64c8014b2d8b7cc81a4f1258,right,-1,0.75,0.1786,7,-0.009704549,0.4788,,,,,,149,0,149,0,1,,,,,
,,097181,001,2023-07-31_12h45.47.457,arm3_eps,2022.2.5,Win32,60.05645307,613a9a5a92a1c84fc4e3fd07,64c7fed44a04f777bb1e18ce,64c8014b2d8b7cc81a4f1258,right,-1,0.75,0.1786,7,-0.022336572,0.1894,,,,,,150,0,150,0,1,,,,,
,,097181,001,2023-07-31_12h45.47.457,arm3_eps,2022.2.5,Win32,60.05645307,613a9a5a92a1c84fc4e3fd07,64c7fed44a04f777bb1e18ce,64c8014b2d8b7cc81a4f1258,right,-1,0.75,0.1786,7,-0.029039726,0.1431,,,,,,151,0,151,0,1,,,,,
,,097181,001,2023-07-31_12h45.47.457,arm3_eps,2022.2.5,Win32,60.05645307,613a9a5a92a1c84fc4e3fd07,64c7fed44a04f777bb1e18ce,64c8014b2d8b7cc81a4f1258,right,-1,0.75,0.1786,7,-0.060063591,0.1267,,,,,,152,0,152,0,1,,,,,
,,097181,001,2023-07-31_12h45.47.457,arm3_eps,2022.2.5,Win32,60.05645307,613a9a5a92a1c84fc4e3fd07,64c7fed44a04f777bb1e18ce,64c8014b2d8b7cc81a4f1258,right,-1,0.75,0.1786,7,-0.048071238,0.1102,,,,,,153,0,153,0,1,,,,,
,,097181,001,2023-07-31_12h45.47.457,arm3_eps,2022.2.5,Win32,60.05645307,613a9a5a92a1c84fc4e3fd07,64c7fed44a04f777bb1e18ce,64c8014b2d8b7cc81a4f1258,right,-1,0.75,0.1786,7,-0.057484336,0.118,,,,,,154,0,154,0,1,,,,,
,,097181,001,2023-07-31_12h45.47.457,arm3_eps,2022.2.5,Win32,60.05645307,613a9a5a92a1c84fc4e3fd07,64c7fed44a04f777bb1e18ce,64c8014b2d8b7cc81a4f1258,right,-1,0.75,0.1786,7,-0.082053157,0.1154,,,,,,155,0,155,0,1,,,,,
,,097181,001,2023-07-31_12h45.47.457,arm3_eps,2022.2.5,Win32,60.05645307,613a9a5a92a1c84fc4e3fd07,64c7fed44a04f777bb1e18ce,64c8014b2d8b7cc81a4f1258,right,-1,0.75,0.1786,7,-0.093330014,0.1125,,,,,,156,0,156,0,1,,,,,
,,097181,001,2023-07-31_12h45.47.457,arm3_eps,2022.2.5,Win32,60.05645307,613a9a5a92a1c84fc4e3fd07,64c7fed44a04f777bb1e18ce,64c8014b2d8b7cc81a4f1258,right,-1,0.75,0.1786,7,-0.09737795,0.1105,,,,,,157,0,157,0,1,,,,,
,,097181,001,2023-07-31_12h45.47.457,arm3_eps,2022.2.5,Win32,60.05645307,613a9a5a92a1c84fc4e3fd07,64c7fed44a04f777bb1e18ce,64c8014b2d8b7cc81a4f1258,down,-1,0.75,0.1786,8,0,0.3286,,,,,,158,0,158,0,1,,,,,
,,097181,001,2023-07-31_12h45.47.457,arm3_eps,2022.2.5,Win32,60.05645307,613a9a5a92a1c84fc4e3fd07,64c7fed44a04f777bb1e18ce,64c8014b2d8b7cc81a4f1258,right,-1,0.75,0.1786,8,-0.016173906,0.8338,,,,,,159,0,159,0,1,,,,,
,,097181,001,2023-07-31_12h45.47.457,arm3_eps,2022.2.5,Win32,60.05645307,613a9a5a92a1c84fc4e3fd07,64c7fed44a04f777bb1e18ce,64c8014b2d8b7cc81a4f1258,right,-1,0.75,0.1786,8,-0.066223747,0.1459,,,,,,160,0,160,0,1,,,,,
,,097181,001,2023-07-31_12h45.47.457,arm3_eps,2022.2.5,Win32,60.05645307,613a9a5a92a1c84fc4e3fd07,64c7fed44a04f777bb1e18ce,64c8014b2d8b7cc81a4f1258,right,-1,0.75,0.1786,8,-0.107093427,0.1441,,,,,,161,0,161,0,1,,,,,
,,097181,001,2023-07-31_12h45.47.457,arm3_eps,2022.2.5,Win32,60.05645307,613a9a5a92a1c84fc4e3fd07,64c7fed44a04f777bb1e18ce,64c8014b2d8b7cc81a4f1258,right,-1,0.75,0.1786,8,-0.123241323,0.1108,,,,,,162,0,162,0,1,,,,,
,,097181,001,2023-07-31_12h45.47.457,arm3_eps,2022.2.5,Win32,60.05645307,613a9a5a92a1c84fc4e3fd07,64c7fed44a04f777bb1e18ce,64c8014b2d8b7cc81a4f1258,right,-1,0.75,0.1786,8,-0.127464482,0.1273,,,,,,163,0,163,0,1,,,,,
,,097181,001,2023-07-31_12h45.47.457,arm3_eps,2022.2.5,Win32,60.05645307,613a9a5a92a1c84fc4e3fd07,64c7fed44a04f777bb1e18ce,64c8014b2d8b7cc81a4f1258,right,-1,0.75,0.1786,8,-0.148937393,0.1266,,,,,,164,0,164,0,1,,,,,
,,097181,001,2023-07-31_12h45.47.457,arm3_eps,2022.2.5,Win32,60.05645307,613a9a5a92a1c84fc4e3fd07,64c7fed44a04f777bb1e18ce,64c8014b2d8b7cc81a4f1258,right,-1,0.75,0.1786,8,-0.141010869,0.1278,,,,,,165,0,165,0,1,,,,,
,,097181,001,2023-07-31_12h45.47.457,arm3_eps,2022.2.5,Win32,60.05645307,613a9a5a92a1c84fc4e3fd07,64c7fed44a04f777bb1e18ce,64c8014b2d8b7cc81a4f1258,right,-1,0.75,0.1786,8,-0.107414194,0.1266,,,,,,166,0,166,0,1,,,,,
,,097181,001,2023-07-31_12h45.47.457,arm3_eps,2022.2.5,Win32,60.05645307,613a9a5a92a1c84fc4e3fd07,64c7fed44a04f777bb1e18ce,64c8014b2d8b7cc81a4f1258,right,-1,0.75,0.1786,8,-0.086369184,0.2603,,,,,,167,0,167,0,1,,,,,
,,097181,001,2023-07-31_12h45.47.457,arm3_eps,2022.2.5,Win32,60.05645307,613a9a5a92a1c84fc4e3fd07,64c7fed44a04f777bb1e18ce,64c8014b2d8b7cc81a4f1258,right,-1,0.75,0.1786,8,-0.092444134,0.2145,,,,,,168,0,168,0,1,,,,,
,,097181,001,2023-07-31_12h45.47.457,arm3_eps,2022.2.5,Win32,60.05645307,613a9a5a92a1c84fc4e3fd07,64c7fed44a04f777bb1e18ce,64c8014b2d8b7cc81a4f1258,right,-1,0.75,0.1786,8,-0.09145869,0.3263,,,,,,169,0,169,0,1,,,,,
,,097181,001,2023-07-31_12h45.47.457,arm3_eps,2022.2.5,Win32,60.05645307,613a9a5a92a1c84fc4e3fd07,64c7fed44a04f777bb1e18ce,64c8014b2d8b7cc81a4f1258,right,-1,0.75,0.1786,8,-0.069055831,0.5265,,,,,,170,0,170,0,1,,,,,
,,097181,001,2023-07-31_12h45.47.457,arm3_eps,2022.2.5,Win32,60.05645307,613a9a5a92a1c84fc4e3fd07,64c7fed44a04f777bb1e18ce,64c8014b2d8b7cc81a4f1258,down,1,0.75,0.1786,8,0,1.1021,,,,,,171,0,171,0,1,,,,,
,,097181,001,2023-07-31_12h45.47.457,arm3_eps,2022.2.5,Win32,60.05645307,613a9a5a92a1c84fc4e3fd07,64c7fed44a04f777bb1e18ce,64c8014b2d8b7cc81a4f1258,right,1,0.75,0.1786,8,-0.014961757,1.0036,,,,,,172,0,172,0,1,,,,,
,,097181,001,2023-07-31_12h45.47.457,arm3_eps,2022.2.5,Win32,60.05645307,613a9a5a92a1c84fc4e3fd07,64c7fed44a04f777bb1e18ce,64c8014b2d8b7cc81a4f1258,right,1,0.75,0.1786,8,0.008753759,0.1759,,,,,,173,0,173,0,1,,,,,
,,097181,001,2023-07-31_12h45.47.457,arm3_eps,2022.2.5,Win32,60.05645307,613a9a5a92a1c84fc4e3fd07,64c7fed44a04f777bb1e18ce,64c8014b2d8b7cc81a4f1258,right,1,0.75,0.1786,8,0.029244302,0.1266,,,,,,174,0,174,0,1,,,,,
,,097181,001,2023-07-31_12h45.47.457,arm3_eps,2022.2.5,Win32,60.05645307,613a9a5a92a1c84fc4e3fd07,64c7fed44a04f777bb1e18ce,64c8014b2d8b7cc81a4f1258,right,1,0.75,0.1786,8,0.040565772,0.1121,,,,,,175,0,175,0,1,,,,,
,,097181,001,2023-07-31_12h45.47.457,arm3_eps,2022.2.5,Win32,60.05645307,613a9a5a92a1c84fc4e3fd07,64c7fed44a04f777bb1e18ce,64c8014b2d8b7cc81a4f1258,right,1,0.75,0.1786,8,0.056674352,0.1239,,,,,,176,0,176,0,1,,,,,
,,097181,001,2023-07-31_12h45.47.457,arm3_eps,2022.2.5,Win32,60.05645307,613a9a5a92a1c84fc4e3fd07,64c7fed44a04f777bb1e18ce,64c8014b2d8b7cc81a4f1258,right,1,0.75,0.1786,8,0.090374626,0.1294,,,,,,177,0,177,0,1,,,,,
,,097181,001,2023-07-31_12h45.47.457,arm3_eps,2022.2.5,Win32,60.05645307,613a9a5a92a1c84fc4e3fd07,64c7fed44a04f777bb1e18ce,64c8014b2d8b7cc81a4f1258,right,1,0.75,0.1786,8,0.097129389,0.1437,,,,,,178,0,178,0,1,,,,,
,,097181,001,2023-07-31_12h45.47.457,arm3_eps,2022.2.5,Win32,60.05645307,613a9a5a92a1c84fc4e3fd07,64c7fed44a04f777bb1e18ce,64c8014b2d8b7cc81a4f1258,right,1,0.75,0.1786,8,0.128689868,0.1311,,,,,,179,0,179,0,1,,,,,
,,097181,001,2023-07-31_12h45.47.457,arm3_eps,2022.2.5,Win32,60.05645307,613a9a5a92a1c84fc4e3fd07,64c7fed44a04f777bb1e18ce,64c8014b2d8b7cc81a4f1258,right,1,0.75,0.1786,8,0.085701369,0.1424,,,,,,180,0,180,0,1,,,,,
,,097181,001,2023-07-31_12h45.47.457,arm3_eps,2022.2.5,Win32,60.05645307,613a9a5a92a1c84fc4e3fd07,64c7fed44a04f777bb1e18ce,64c8014b2d8b7cc81a4f1258,up,1,0.75,0.1786,9,0,0.3499,,,,,,181,0,181,0,1,,,,,
,,097181,001,2023-07-31_12h45.47.457,arm3_eps,2022.2.5,Win32,60.05645307,613a9a5a92a1c84fc4e3fd07,64c7fed44a04f777bb1e18ce,64c8014b2d8b7cc81a4f1258,right,1,0.75,0.1786,9,0.024147141,0.5733,,,,,,182,0,182,0,1,,,,,
,,097181,001,2023-07-31_12h45.47.457,arm3_eps,2022.2.5,Win32,60.05645307,613a9a5a92a1c84fc4e3fd07,64c7fed44a04f777bb1e18ce,64c8014b2d8b7cc81a4f1258,right,1,0.75,0.1786,9,0.028872639,0.3161,,,,,,183,0,183,0,1,,,,,
,,097181,001,2023-07-31_12h45.47.457,arm3_eps,2022.2.5,Win32,60.05645307,613a9a5a92a1c84fc4e3fd07,64c7fed44a04f777bb1e18ce,64c8014b2d8b7cc81a4f1258,right,1,0.75,0.1786,9,0.020227745,0.146,,,,,,184,0,184,0,1,,,,,
,,097181,001,2023-07-31_12h45.47.457,arm3_eps,2022.2.5,Win32,60.05645307,613a9a5a92a1c84fc4e3fd07,64c7fed44a04f777bb1e18ce,64c8014b2d8b7cc81a4f1258,right,1,0.75,0.1786,9,0.018207183,0.1607,,,,,,185,0,185,0,1,,,,,
,,097181,001,2023-07-31_12h45.47.457,arm3_eps,2022.2.5,Win32,60.05645307,613a9a5a92a1c84fc4e3fd07,64c7fed44a04f777bb1e18ce,64c8014b2d8b7cc81a4f1258,right,1,0.75,0.1786,9,0.006350206,0.2124,,,,,,186,0,186,0,1,,,,,
,,097181,001,2023-07-31_12h45.47.457,arm3_eps,2022.2.5,Win32,60.05645307,613a9a5a92a1c84fc4e3fd07,64c7fed44a04f777bb1e18ce,64c8014b2d8b7cc81a4f1258,right,1,0.75,0.1786,9,0.011572785,0.1188,,,,,,187,0,187,0,1,,,,,
,,097181,001,2023-07-31_12h45.47.457,arm3_eps,2022.2.5,Win32,60.05645307,613a9a5a92a1c84fc4e3fd07,64c7fed44a04f777bb1e18ce,64c8014b2d8b7cc81a4f1258,right,1,0.75,0.1786,9,0.027306816,0.2846,,,,,,188,0,188,0,1,,,,,
,,097181,001,2023-07-31_12h45.47.457,arm3_eps,2022.2.5,Win32,60.05645307,613a9a5a92a1c84fc4e3fd07,64c7fed44a04f777bb1e18ce,64c8014b2d8b7cc81a4f1258,right,1,0.75,0.1786,9,0.012228646,0.1634,,,,,,189,0,189,0,1,,,,,
,,097181,001,2023-07-31_12h45.47.457,arm3_eps,2022.2.5,Win32,60.05645307,613a9a5a92a1c84fc4e3fd07,64c7fed44a04f777bb1e18ce,64c8014b2d8b7cc81a4f1258,right,1,0.75,0.1786,9,0.042988547,0.1665,,,,,,190,0,190,0,1,,,,,
,,097181,001,2023-07-31_12h45.47.457,arm3_eps,2022.2.5,Win32,60.05645307,613a9a5a92a1c84fc4e3fd07,64c7fed44a04f777bb1e18ce,64c8014b2d8b7cc81a4f1258,right,1,0.75,0.1786,9,0.043903267,0.1603,,,,,,191,0,191,0,1,,,,,
,,097181,001,2023-07-31_12h45.47.457,arm3_eps,2022.2.5,Win32,60.05645307,613a9a5a92a1c84fc4e3fd07,64c7fed44a04f777bb1e18ce,64c8014b2d8b7cc81a4f1258,up,1,0.75,0.1786,10,0,0.3807,,,,,,192,0,192,0,1,,,,,
,,097181,001,2023-07-31_12h45.47.457,arm3_eps,2022.2.5,Win32,60.05645307,613a9a5a92a1c84fc4e3fd07,64c7fed44a04f777bb1e18ce,64c8014b2d8b7cc81a4f1258,right,1,0.75,0.1786,10,-0.031100801,0.7653,,,,,,193,0,193,0,1,,,,,
,,097181,001,2023-07-31_12h45.47.457,arm3_eps,2022.2.5,Win32,60.05645307,613a9a5a92a1c84fc4e3fd07,64c7fed44a04f777bb1e18ce,64c8014b2d8b7cc81a4f1258,right,1,0.75,0.1786,10,0.002836176,0.1715,,,,,,194,0,194,0,1,,,,,
,,097181,001,2023-07-31_12h45.47.457,arm3_eps,2022.2.5,Win32,60.05645307,613a9a5a92a1c84fc4e3fd07,64c7fed44a04f777bb1e18ce,64c8014b2d8b7cc81a4f1258,right,1,0.75,0.1786,10,-0.004529319,0.1299,,,,,,195,0,195,0,1,,,,,
,,097181,001,2023-07-31_12h45.47.457,arm3_eps,2022.2.5,Win32,60.05645307,613a9a5a92a1c84fc4e3fd07,64c7fed44a04f777bb1e18ce,64c8014b2d8b7cc81a4f1258,right,1,0.75,0.1786,10,-0.014447089,0.1445,,,,,,196,0,196,0,1,,,,,
,,097181,001,2023-07-31_12h45.47.457,arm3_eps,2022.2.5,Win32,60.05645307,613a9a5a92a1c84fc4e3fd07,64c7fed44a04f777bb1e18ce,64c8014b2d8b7cc81a4f1258,right,1,0.75,0.1786,10,-0.026822892,0.1455,,,,,,197,0,197,0,1,,,,,
,,097181,001,2023-07-31_12h45.47.457,arm3_eps,2022.2.5,Win32,60.05645307,613a9a5a92a1c84fc4e3fd07,64c7fed44a04f777bb1e18ce,64c8014b2d8b7cc81a4f1258,right,1,0.75,0.1786,10,-0.03316187,0.1287,,,,,,198,0,198,0,1,,,,,
,,097181,001,2023-07-31_12h45.47.457,arm3_eps,2022.2.5,Win32,60.05645307,613a9a5a92a1c84fc4e3fd07,64c7fed44a04f777bb1e18ce,64c8014b2d8b7cc81a4f1258,right,1,0.75,0.1786,10,-0.019712883,0.1448,,,,,,199,0,199,0,1,,,,,
,,097181,001,2023-07-31_12h45.47.457,arm3_eps,2022.2.5,Win32,60.05645307,613a9a5a92a1c84fc4e3fd07,64c7fed44a04f777bb1e18ce,64c8014b2d8b7cc81a4f1258,right,1,0.75,0.1786,10,-0.024942517,0.145,,,,,,200,0,200,0,1,,,,,
,,097181,001,2023-07-31_12h45.47.457,arm3_eps,2022.2.5,Win32,60.05645307,613a9a5a92a1c84fc4e3fd07,64c7fed44a04f777bb1e18ce,64c8014b2d8b7cc81a4f1258,down,1,0.75,0.1786,10,0,0.9518,,,,,,201,0,201,0,1,,,,,
,,097181,001,2023-07-31_12h45.47.457,arm3_eps,2022.2.5,Win32,60.05645307,613a9a5a92a1c84fc4e3fd07,64c7fed44a04f777bb1e18ce,64c8014b2d8b7cc81a4f1258,right,1,0.75,0.1786,10,0.003715018,0.6187,,,,,,202,0,202,0,1,,,,,
,,097181,001,2023-07-31_12h45.47.457,arm3_eps,2022.2.5,Win32,60.05645307,613a9a5a92a1c84fc4e3fd07,64c7fed44a04f777bb1e18ce,64c8014b2d8b7cc81a4f1258,right,1,0.75,0.1786,10,0.023248245,0.1961,,,,,,203,0,203,0,1,,,,,
,,097181,001,2023-07-31_12h45.47.457,arm3_eps,2022.2.5,Win32,60.05645307,613a9a5a92a1c84fc4e3fd07,64c7fed44a04f777bb1e18ce,64c8014b2d8b7cc81a4f1258,right,1,0.75,0.1786,10,0.015709115,0.1451,,,,,,204,0,204,0,1,,,,,
,,097181,001,2023-07-31_12h45.47.457,arm3_eps,2022.2.5,Win32,60.05645307,613a9a5a92a1c84fc4e3fd07,64c7fed44a04f777bb1e18ce,64c8014b2d8b7cc81a4f1258,right,1,0.75,0.1786,10,0.04139741,0.1448,,,,,,205,0,205,0,1,,,,,
,,097181,001,2023-07-31_12h45.47.457,arm3_eps,2022.2.5,Win32,60.05645307,613a9a5a92a1c84fc4e3fd07,64c7fed44a04f777bb1e18ce,64c8014b2d8b7cc81a4f1258,right,1,0.75,0.1786,10,0.049449646,0.1324,,,,,,206,0,206,0,1,,,,,
,,097181,001,2023-07-31_12h45.47.457,arm3_eps,2022.2.5,Win32,60.05645307,613a9a5a92a1c84fc4e3fd07,64c7fed44a04f777bb1e18ce,64c8014b2d8b7cc81a4f1258,right,1,0.75,0.1786,10,0.062743152,0.1359,,,,,,207,0,207,0,1,,,,,
,,097181,001,2023-07-31_12h45.47.457,arm3_eps,2022.2.5,Win32,60.05645307,613a9a5a92a1c84fc4e3fd07,64c7fed44a04f777bb1e18ce,64c8014b2d8b7cc81a4f1258,right,1,0.75,0.1786,10,0.050393254,0.1366,,,,,,208,0,208,0,1,,,,,
,,097181,001,2023-07-31_12h45.47.457,arm3_eps,2022.2.5,Win32,60.05645307,613a9a5a92a1c84fc4e3fd07,64c7fed44a04f777bb1e18ce,64c8014b2d8b7cc81a4f1258,right,1,0.75,0.1786,10,0.044774323,0.1614,,,,,,209,0,209,0,1,,,,,
,,097181,001,2023-07-31_12h45.47.457,arm3_eps,2022.2.5,Win32,60.05645307,613a9a5a92a1c84fc4e3fd07,64c7fed44a04f777bb1e18ce,64c8014b2d8b7cc81a4f1258,up,1,0.75,0.1786,11,0,0.228,,,,,,210,0,210,0,1,,,,,
,,097181,001,2023-07-31_12h45.47.457,arm3_eps,2022.2.5,Win32,60.05645307,613a9a5a92a1c84fc4e3fd07,64c7fed44a04f777bb1e18ce,64c8014b2d8b7cc81a4f1258,right,1,0.75,0.1786,11,-0.023622017,0.8587,,,,,,211,0,211,0,1,,,,,
,,097181,001,2023-07-31_12h45.47.457,arm3_eps,2022.2.5,Win32,60.05645307,613a9a5a92a1c84fc4e3fd07,64c7fed44a04f777bb1e18ce,64c8014b2d8b7cc81a4f1258,right,1,0.75,0.1786,11,-0.018883045,0.1778,,,,,,212,0,212,0,1,,,,,
,,097181,001,2023-07-31_12h45.47.457,arm3_eps,2022.2.5,Win32,60.05645307,613a9a5a92a1c84fc4e3fd07,64c7fed44a04f777bb1e18ce,64c8014b2d8b7cc81a4f1258,right,1,0.75,0.1786,11,0.009187072,0.1448,,,,,,213,0,213,0,1,,,,,
,,097181,001,2023-07-31_12h45.47.457,arm3_eps,2022.2.5,Win32,60.05645307,613a9a5a92a1c84fc4e3fd07,64c7fed44a04f777bb1e18ce,64c8014b2d8b7cc81a4f1258,right,1,0.75,0.1786,11,0.013862275,0.1115,,,,,,214,0,214,0,1,,,,,
,,097181,001,2023-07-31_12h45.47.457,arm3_eps,2022.2.5,Win32,60.05645307,613a9a5a92a1c84fc4e3fd07,64c7fed44a04f777bb1e18ce,64c8014b2d8b7cc81a4f1258,right,1,0.75,0.1786,11,0.032470624,0.112,,,,,,215,0,215,0,1,,,,,
,,097181,001,2023-07-31_12h45.47.457,arm3_eps,2022.2.5,Win32,60.05645307,613a9a5a92a1c84fc4e3fd07,64c7fed44a04f777bb1e18ce,64c8014b2d8b7cc81a4f1258,right,1,0.75,0.1786,11,0.051263151,0.1279,,,,,,216,0,216,0,1,,,,,
,,097181,001,2023-07-31_12h45.47.457,arm3_eps,2022.2.5,Win32,60.05645307,613a9a5a92a1c84fc4e3fd07,64c7fed44a04f777bb1e18ce,64c8014b2d8b7cc81a4f1258,right,1,0.75,0.1786,11,0.074377819,0.1445,,,,,,217,0,217,0,1,,,,,
,,097181,001,2023-07-31_12h45.47.457,arm3_eps,2022.2.5,Win32,60.05645307,613a9a5a92a1c84fc4e3fd07,64c7fed44a04f777bb1e18ce,64c8014b2d8b7cc81a4f1258,right,1,0.75,0.1786,11,0.093140036,0.131,,,,,,218,0,218,0,1,,,,,
,,097181,001,2023-07-31_12h45.47.457,arm3_eps,2022.2.5,Win32,60.05645307,613a9a5a92a1c84fc4e3fd07,64c7fed44a04f777bb1e18ce,64c8014b2d8b7cc81a4f1258,up,1,0.75,0.1786,12,0,0.4129,,,,,,219,0,219,0,1,,,,,
,,097181,001,2023-07-31_12h45.47.457,arm3_eps,2022.2.5,Win32,60.05645307,613a9a5a92a1c84fc4e3fd07,64c7fed44a04f777bb1e18ce,64c8014b2d8b7cc81a4f1258,right,1,0.75,0.1786,12,0.036635942,0.4416,,,,,,220,0,220,0,1,,,,,
,,097181,001,2023-07-31_12h45.47.457,arm3_eps,2022.2.5,Win32,60.05645307,613a9a5a92a1c84fc4e3fd07,64c7fed44a04f777bb1e18ce,64c8014b2d8b7cc81a4f1258,right,1,0.75,0.1786,12,0.070457396,0.208,,,,,,221,0,221,0,1,,,,,
,,097181,001,2023-07-31_12h45.47.457,arm3_eps,2022.2.5,Win32,60.05645307,613a9a5a92a1c84fc4e3fd07,64c7fed44a04f777bb1e18ce,64c8014b2d8b7cc81a4f1258,right,1,0.75,0.1786,12,0.100835392,0.1428,,,,,,222,0,222,0,1,,,,,
,,097181,001,2023-07-31_12h45.47.457,arm3_eps,2022.2.5,Win32,60.05645307,613a9a5a92a1c84fc4e3fd07,64c7fed44a04f777bb1e18ce,64c8014b2d8b7cc81a4f1258,right,1,0.75,0.1786,12,0.113404153,0.1366,,,,,,223,0,223,0,1,,,,,
,,097181,001,2023-07-31_12h45.47.457,arm3_eps,2022.2.5,Win32,60.05645307,613a9a5a92a1c84fc4e3fd07,64c7fed44a04f777bb1e18ce,64c8014b2d8b7cc81a4f1258,right,1,0.75,0.1786,12,0.119492906,0.1449,,,,,,224,0,224,0,1,,,,,
,,097181,001,2023-07-31_12h45.47.457,arm3_eps,2022.2.5,Win32,60.05645307,613a9a5a92a1c84fc4e3fd07,64c7fed44a04f777bb1e18ce,64c8014b2d8b7cc81a4f1258,right,1,0.75,0.1786,12,0.151349449,0.128,,,,,,225,0,225,0,1,,,,,
,,097181,001,2023-07-31_12h45.47.457,arm3_eps,2022.2.5,Win32,60.05645307,613a9a5a92a1c84fc4e3fd07,64c7fed44a04f777bb1e18ce,64c8014b2d8b7cc81a4f1258,right,1,0.75,0.1786,12,0.180832384,0.1414,,,,,,226,0,226,0,1,,,,,
,,097181,001,2023-07-31_12h45.47.457,arm3_eps,2022.2.5,Win32,60.05645307,613a9a5a92a1c84fc4e3fd07,64c7fed44a04f777bb1e18ce,64c8014b2d8b7cc81a4f1258,right,1,0.75,0.1786,12,0.180989212,0.1445,,,,,,227,0,227,0,1,,,,,
,,097181,001,2023-07-31_12h45.47.457,arm3_eps,2022.2.5,Win32,60.05645307,613a9a5a92a1c84fc4e3fd07,64c7fed44a04f777bb1e18ce,64c8014b2d8b7cc81a4f1258,up,1,0.75,0.1786,13,0,0.4761,,,,,,228,0,228,0,1,,,,,
,,097181,001,2023-07-31_12h45.47.457,arm3_eps,2022.2.5,Win32,60.05645307,613a9a5a92a1c84fc4e3fd07,64c7fed44a04f777bb1e18ce,64c8014b2d8b7cc81a4f1258,right,1,0.75,0.1786,13,-0.002540827,0.9209,,,,,,229,0,229,0,1,,,,,
,,097181,001,2023-07-31_12h45.47.457,arm3_eps,2022.2.5,Win32,60.05645307,613a9a5a92a1c84fc4e3fd07,64c7fed44a04f777bb1e18ce,64c8014b2d8b7cc81a4f1258,right,1,0.75,0.1786,13,-0.019436826,0.1582,,,,,,230,0,230,0,1,,,,,
,,097181,001,2023-07-31_12h45.47.457,arm3_eps,2022.2.5,Win32,60.05645307,613a9a5a92a1c84fc4e3fd07,64c7fed44a04f777bb1e18ce,64c8014b2d8b7cc81a4f1258,right,1,0.75,0.1786,13,-0.00841095,0.1508,,,,,,231,0,231,0,1,,,,,
,,097181,001,2023-07-31_12h45.47.457,arm3_eps,2022.2.5,Win32,60.05645307,613a9a5a92a1c84fc4e3fd07,64c7fed44a04f777bb1e18ce,64c8014b2d8b7cc81a4f1258,right,1,0.75,0.1786,13,-0.005090839,0.1315,,,,,,232,0,232,0,1,,,,,
,,097181,001,2023-07-31_12h45.47.457,arm3_eps,2022.2.5,Win32,60.05645307,613a9a5a92a1c84fc4e3fd07,64c7fed44a04f777bb1e18ce,64c8014b2d8b7cc81a4f1258,right,1,0.75,0.1786,13,0.028854667,0.1781,,,,,,233,0,233,0,1,,,,,
,,097181,001,2023-07-31_12h45.47.457,arm3_eps,2022.2.5,Win32,60.05645307,613a9a5a92a1c84fc4e3fd07,64c7fed44a04f777bb1e18ce,64c8014b2d8b7cc81a4f1258,right,1,0.75,0.1786,13,0.040997716,0.1963,,,,,,234,0,234,0,1,,,,,
,,097181,001,2023-07-31_12h45.47.457,arm3_eps,2022.2.5,Win32,60.05645307,613a9a5a92a1c84fc4e3fd07,64c7fed44a04f777bb1e18ce,64c8014b2d8b7cc81a4f1258,right,1,0.75,0.1786,13,0.04946023,0.1615,,,,,,235,0,235,0,1,,,,,
,,097181,001,2023-07-31_12h45.47.457,arm3_eps,2022.2.5,Win32,60.05645307,613a9a5a92a1c84fc4e3fd07,64c7fed44a04f777bb1e18ce,64c8014b2d8b7cc81a4f1258,up,-1,0.75,0.1786,13,0,0.4611,,,,,,236,0,236,0,1,,,,,
,,097181,001,2023-07-31_12h45.47.457,arm3_eps,2022.2.5,Win32,60.05645307,613a9a5a92a1c84fc4e3fd07,64c7fed44a04f777bb1e18ce,64c8014b2d8b7cc81a4f1258,right,-1,0.75,0.1786,13,0.01102544,0.5295,,,,,,237,0,237,0,1,,,,,
,,097181,001,2023-07-31_12h45.47.457,arm3_eps,2022.2.5,Win32,60.05645307,613a9a5a92a1c84fc4e3fd07,64c7fed44a04f777bb1e18ce,64c8014b2d8b7cc81a4f1258,right,-1,0.75,0.1786,13,-0.013055,0.2845,,,,,,238,0,238,0,1,,,,,
,,097181,001,2023-07-31_12h45.47.457,arm3_eps,2022.2.5,Win32,60.05645307,613a9a5a92a1c84fc4e3fd07,64c7fed44a04f777bb1e18ce,64c8014b2d8b7cc81a4f1258,right,-1,0.75,0.1786,13,-0.050651723,0.1657,,,,,,239,0,239,0,1,,,,,
,,097181,001,2023-07-31_12h45.47.457,arm3_eps,2022.2.5,Win32,60.05645307,613a9a5a92a1c84fc4e3fd07,64c7fed44a04f777bb1e18ce,64c8014b2d8b7cc81a4f1258,right,-1,0.75,0.1786,13,-0.038965617,0.1333,,,,,,240,0,240,0,1,,,,,
,,097181,001,2023-07-31_12h45.47.457,arm3_eps,2022.2.5,Win32,60.05645307,613a9a5a92a1c84fc4e3fd07,64c7fed44a04f777bb1e18ce,64c8014b2d8b7cc81a4f1258,right,-1,0.75,0.1786,13,-0.067201981,0.1339,,,,,,241,0,241,0,1,,,,,
,,097181,001,2023-07-31_12h45.47.457,arm3_eps,2022.2.5,Win32,60.05645307,613a9a5a92a1c84fc4e3fd07,64c7fed44a04f777bb1e18ce,64c8014b2d8b7cc81a4f1258,right,-1,0.75,0.1786,13,-0.071829421,0.1325,,,,,,242,0,242,0,1,,,,,
,,097181,001,2023-07-31_12h45.47.457,arm3_eps,2022.2.5,Win32,60.05645307,613a9a5a92a1c84fc4e3fd07,64c7fed44a04f777bb1e18ce,64c8014b2d8b7cc81a4f1258,right,-1,0.75,0.1786,13,-0.093246561,0.1678,,,,,,243,0,243,0,1,,,,,
,,097181,001,2023-07-31_12h45.47.457,arm3_eps,2022.2.5,Win32,60.05645307,613a9a5a92a1c84fc4e3fd07,64c7fed44a04f777bb1e18ce,64c8014b2d8b7cc81a4f1258,right,-1,0.75,0.1786,13,-0.09546679,0.1684,,,,,,244,0,244,0,1,,,,,
,,097181,001,2023-07-31_12h45.47.457,arm3_eps,2022.2.5,Win32,60.05645307,613a9a5a92a1c84fc4e3fd07,64c7fed44a04f777bb1e18ce,64c8014b2d8b7cc81a4f1258,down,-1,0.75,0.1786,13,0,1.0009,,,,,,245,0,245,0,1,,,,,
,,097181,001,2023-07-31_12h45.47.457,arm3_eps,2022.2.5,Win32,60.05645307,613a9a5a92a1c84fc4e3fd07,64c7fed44a04f777bb1e18ce,64c8014b2d8b7cc81a4f1258,right,-1,0.75,0.1786,13,0.00778236,7.5902,,,,,,246,0,246,0,1,,,,,
,,097181,001,2023-07-31_12h45.47.457,arm3_eps,2022.2.5,Win32,60.05645307,613a9a5a92a1c84fc4e3fd07,64c7fed44a04f777bb1e18ce,64c8014b2d8b7cc81a4f1258,right,-1,0.75,0.1786,13,0.013283814,0.0945,,,,,,247,0,247,0,1,,,,,
,,097181,001,2023-07-31_12h45.47.457,arm3_eps,2022.2.5,Win32,60.05645307,613a9a5a92a1c84fc4e3fd07,64c7fed44a04f777bb1e18ce,64c8014b2d8b7cc81a4f1258,right,-1,0.75,0.1786,13,0.018609461,0.15,,,,,,248,0,248,0,1,,,,,
,,097181,001,2023-07-31_12h45.47.457,arm3_eps,2022.2.5,Win32,60.05645307,613a9a5a92a1c84fc4e3fd07,64c7fed44a04f777bb1e18ce,64c8014b2d8b7cc81a4f1258,right,-1,0.75,0.1786,13,-0.00710579,0.1625,,,,,,249,0,249,0,1,,,,,
,,097181,001,2023-07-31_12h45.47.457,arm3_eps,2022.2.5,Win32,60.05645307,613a9a5a92a1c84fc4e3fd07,64c7fed44a04f777bb1e18ce,64c8014b2d8b7cc81a4f1258,right,-1,0.75,0.1786,13,-0.021569401,0.1283,,,,,,250,0,250,0,1,,,,,
,,097181,001,2023-07-31_12h45.47.457,arm3_eps,2022.2.5,Win32,60.05645307,613a9a5a92a1c84fc4e3fd07,64c7fed44a04f777bb1e18ce,64c8014b2d8b7cc81a4f1258,down,1,0.75,0.1786,14,0,0.3943,,,,,,251,0,251,0,1,,,,,
,,097181,001,2023-07-31_12h45.47.457,arm3_eps,2022.2.5,Win32,60.05645307,613a9a5a92a1c84fc4e3fd07,64c7fed44a04f777bb1e18ce,64c8014b2d8b7cc81a4f1258,right,1,0.75,0.1786,14,0.016313647,0.8292,,,,,,252,0,252,0,1,,,,,
,,097181,001,2023-07-31_12h45.47.457,arm3_eps,2022.2.5,Win32,60.05645307,613a9a5a92a1c84fc4e3fd07,64c7fed44a04f777bb1e18ce,64c8014b2d8b7cc81a4f1258,right,1,0.75,0.1786,14,0.014254472,0.1515,,,,,,253,0,253,0,1,,,,,
,,097181,001,2023-07-31_12h45.47.457,arm3_eps,2022.2.5,Win32,60.05645307,613a9a5a92a1c84fc4e3fd07,64c7fed44a04f777bb1e18ce,64c8014b2d8b7cc81a4f1258,right,1,0.75,0.1786,14,0.002224473,0.1165,,,,,,254,0,254,0,1,,,,,
