space_bar.keys,space_bar.rt,participant,session,date,expName,psychopyVersion,OS,frameRate,PROLIFIC_PID,STUDY_ID,SESSION_ID,resp.keys,state,q_prob,eps_prob,score,price,resp.rt,train.thisRepN,train.thisTrialN,train.thisN,train.thisIndex,train.ran,steps.thisRepN,steps.thisTrialN,steps.thisN,steps.thisIndex,steps.ran,blocks.thisRepN,blocks.thisTrialN,blocks.thisN,blocks.thisIndex,blocks.ran
space,31.7401,135911,001,2023-07-31_20h57.41.731,arm3_eps,2022.2.5,Win32,59.88741167,606c6e9f7e86c0264ab3d7d8,64c7fed44a04f777bb1e18ce,64c803ab12bd89c3cdb9aa8b,,,,,,,,,,,,,,,,,,,,,,
space,3.3948,135911,001,2023-07-31_20h57.41.731,arm3_eps,2022.2.5,Win32,59.88741167,606c6e9f7e86c0264ab3d7d8,64c7fed44a04f777bb1e18ce,64c803ab12bd89c3cdb9aa8b,,,,,,,,,,,,,,,,,,,,,,
space,15.5288,135911,001,2023-07-31_20h57.41.731,arm3_eps,2022.2.5,Win32,59.88741167,606c6e9f7e86c0264ab3d7d8,64c7fed44a04f777bb1e18ce,64c803ab12bd89c3cdb9aa8b,,,,,,,,,,,,,,,,,,,,,,
space,25.5167,135911,001,2023-07-31_20h57.41.731,arm3_eps,2022.2.5,Win32,59.88741167,606c6e9f7e86c0264ab3d7d8,64c7fed44a04f777bb1e18ce,64c803ab12bd89c3cdb9aa8b,,,,,,,,,,,,,,,,,,,,,,
space,16.5823,135911,001,2023-07-31_20h57.41.731,arm3_eps,2022.2.5,Win32,59.88741167,606c6e9f7e86c0264ab3d7d8,64c7fed44a04f777bb1e18ce,64c803ab12bd89c3cdb9aa8b,,,,,,,,,,,,,,,,,,,,,,
space,22.4004,135911,001,2023-07-31_20h57.41.731,arm3_eps,2022.2.5,Win32,59.88741167,606c6e9f7e86c0264ab3d7d8,64c7fed44a04f777bb1e18ce,64c803ab12bd89c3cdb9aa8b,,,,,,,,,,,,,,,,,,,,,,
space,3.0621,135911,001,2023-07-31_20h57.41.731,arm3_eps,2022.2.5,Win32,59.88741167,606c6e9f7e86c0264ab3d7d8,64c7fed44a04f777bb1e18ce,64c803ab12bd89c3cdb9aa8b,,,,,,,,,,,,,,,,,,,,,,
,,135911,001,2023-07-31_20h57.41.731,arm3_eps,2022.2.5,Win32,59.88741167,606c6e9f7e86c0264ab3d7d8,64c7fed44a04f777bb1e18ce,64c803ab12bd89c3cdb9aa8b,right,1,1,0.2429,0,-0.004971792,4.3021,0,0,0,0,1,,,,,,,,,,
,,135911,001,2023-07-31_20h57.41.731,arm3_eps,2022.2.5,Win32,59.88741167,606c6e9f7e86c0264ab3d7d8,64c7fed44a04f777bb1e18ce,64c803ab12bd89c3cdb9aa8b,right,1,1,0.2429,0,0.011913461,2.3867,1,0,1,0,1,,,,,,,,,,
,,135911,001,2023-07-31_20h57.41.731,arm3_eps,2022.2.5,Win32,59.88741167,606c6e9f7e86c0264ab3d7d8,64c7fed44a04f777bb1e18ce,64c803ab12bd89c3cdb9aa8b,right,1,1,0.2429,0,0.001247038,4.8276,2,0,2,0,1,,,,,,,,,,
,,135911,001,2023-07-31_20h57.41.731,arm3_eps,2022.2.5,Win32,59.88741167,606c6e9f7e86c0264ab3d7d8,64c7fed44a04f777bb1e18ce,64c803ab12bd89c3cdb9aa8b,right,1,1,0.2429,0,0.031861089,1.3707,3,0,3,0,1,,,,,,,,,,
,,135911,001,2023-07-31_20h57.41.731,arm3_eps,2022.2.5,Win32,59.88741167,606c6e9f7e86c0264ab3d7d8,64c7fed44a04f777bb1e18ce,64c803ab12bd89c3cdb9aa8b,right,1,1,0.2429,0,0.023681063,1.0184,4,0,4,0,1,,,,,,,,,,
,,135911,001,2023-07-31_20h57.41.731,arm3_eps,2022.2.5,Win32,59.88741167,606c6e9f7e86c0264ab3d7d8,64c7fed44a04f777bb1e18ce,64c803ab12bd89c3cdb9aa8b,right,1,1,0.2429,0,0.039020974,0.882,5,0,5,0,1,,,,,,,,,,
,,135911,001,2023-07-31_20h57.41.731,arm3_eps,2022.2.5,Win32,59.88741167,606c6e9f7e86c0264ab3d7d8,64c7fed44a04f777bb1e18ce,64c803ab12bd89c3cdb9aa8b,up,1,1,0.2429,1,0,5.4848,6,0,6,0,1,,,,,,,,,,
,,135911,001,2023-07-31_20h57.41.731,arm3_eps,2022.2.5,Win32,59.88741167,606c6e9f7e86c0264ab3d7d8,64c7fed44a04f777bb1e18ce,64c803ab12bd89c3cdb9aa8b,right,1,1,0.2429,1,0.01823656,3.873,7,0,7,0,1,,,,,,,,,,
,,135911,001,2023-07-31_20h57.41.731,arm3_eps,2022.2.5,Win32,59.88741167,606c6e9f7e86c0264ab3d7d8,64c7fed44a04f777bb1e18ce,64c803ab12bd89c3cdb9aa8b,right,1,1,0.2429,1,-0.007812729,0.7414,8,0,8,0,1,,,,,,,,,,
,,135911,001,2023-07-31_20h57.41.731,arm3_eps,2022.2.5,Win32,59.88741167,606c6e9f7e86c0264ab3d7d8,64c7fed44a04f777bb1e18ce,64c803ab12bd89c3cdb9aa8b,right,1,1,0.2429,1,-0.005448828,0.638,9,0,9,0,1,,,,,,,,,,
,,135911,001,2023-07-31_20h57.41.731,arm3_eps,2022.2.5,Win32,59.88741167,606c6e9f7e86c0264ab3d7d8,64c7fed44a04f777bb1e18ce,64c803ab12bd89c3cdb9aa8b,right,1,1,0.2429,1,-0.009998354,0.5891,10,0,10,0,1,,,,,,,,,,
,,135911,001,2023-07-31_20h57.41.731,arm3_eps,2022.2.5,Win32,59.88741167,606c6e9f7e86c0264ab3d7d8,64c7fed44a04f777bb1e18ce,64c803ab12bd89c3cdb9aa8b,right,1,1,0.2429,1,0.002659856,1.1161,11,0,11,0,1,,,,,,,,,,
,,135911,001,2023-07-31_20h57.41.731,arm3_eps,2022.2.5,Win32,59.88741167,606c6e9f7e86c0264ab3d7d8,64c7fed44a04f777bb1e18ce,64c803ab12bd89c3cdb9aa8b,right,1,1,0.2429,1,-0.015356873,0.6633,12,0,12,0,1,,,,,,,,,,
,,135911,001,2023-07-31_20h57.41.731,arm3_eps,2022.2.5,Win32,59.88741167,606c6e9f7e86c0264ab3d7d8,64c7fed44a04f777bb1e18ce,64c803ab12bd89c3cdb9aa8b,right,1,1,0.2429,1,-0.008091697,2.7091,13,0,13,0,1,,,,,,,,,,
,,135911,001,2023-07-31_20h57.41.731,arm3_eps,2022.2.5,Win32,59.88741167,606c6e9f7e86c0264ab3d7d8,64c7fed44a04f777bb1e18ce,64c803ab12bd89c3cdb9aa8b,right,1,1,0.2429,1,0.010794522,0.7356,14,0,14,0,1,,,,,,,,,,
,,135911,001,2023-07-31_20h57.41.731,arm3_eps,2022.2.5,Win32,59.88741167,606c6e9f7e86c0264ab3d7d8,64c7fed44a04f777bb1e18ce,64c803ab12bd89c3cdb9aa8b,up,1,1,0.2429,2,0,1.1458,15,0,15,0,1,,,,,,,,,,
,,135911,001,2023-07-31_20h57.41.731,arm3_eps,2022.2.5,Win32,59.88741167,606c6e9f7e86c0264ab3d7d8,64c7fed44a04f777bb1e18ce,64c803ab12bd89c3cdb9aa8b,right,1,1,0.2429,2,-0.017694346,1.5158,16,0,16,0,1,,,,,,,,,,
,,135911,001,2023-07-31_20h57.41.731,arm3_eps,2022.2.5,Win32,59.88741167,606c6e9f7e86c0264ab3d7d8,64c7fed44a04f777bb1e18ce,64c803ab12bd89c3cdb9aa8b,right,1,1,0.2429,2,-0.023054908,0.4467,17,0,17,0,1,,,,,,,,,,
,,135911,001,2023-07-31_20h57.41.731,arm3_eps,2022.2.5,Win32,59.88741167,606c6e9f7e86c0264ab3d7d8,64c7fed44a04f777bb1e18ce,64c803ab12bd89c3cdb9aa8b,right,1,1,0.2429,2,0.00443439,0.2129,18,0,18,0,1,,,,,,,,,,
,,135911,001,2023-07-31_20h57.41.731,arm3_eps,2022.2.5,Win32,59.88741167,606c6e9f7e86c0264ab3d7d8,64c7fed44a04f777bb1e18ce,64c803ab12bd89c3cdb9aa8b,right,1,1,0.2429,2,0.030916321,0.7401,19,0,19,0,1,,,,,,,,,,
,,135911,001,2023-07-31_20h57.41.731,arm3_eps,2022.2.5,Win32,59.88741167,606c6e9f7e86c0264ab3d7d8,64c7fed44a04f777bb1e18ce,64c803ab12bd89c3cdb9aa8b,right,1,1,0.2429,2,0.040555577,0.4854,20,0,20,0,1,,,,,,,,,,
,,135911,001,2023-07-31_20h57.41.731,arm3_eps,2022.2.5,Win32,59.88741167,606c6e9f7e86c0264ab3d7d8,64c7fed44a04f777bb1e18ce,64c803ab12bd89c3cdb9aa8b,up,1,1,0.2429,3,0,0.6897,21,0,21,0,1,,,,,,,,,,
,,135911,001,2023-07-31_20h57.41.731,arm3_eps,2022.2.5,Win32,59.88741167,606c6e9f7e86c0264ab3d7d8,64c7fed44a04f777bb1e18ce,64c803ab12bd89c3cdb9aa8b,right,1,1,0.2429,3,-0.00392036,1.0788,22,0,22,0,1,,,,,,,,,,
,,135911,001,2023-07-31_20h57.41.731,arm3_eps,2022.2.5,Win32,59.88741167,606c6e9f7e86c0264ab3d7d8,64c7fed44a04f777bb1e18ce,64c803ab12bd89c3cdb9aa8b,right,1,1,0.2429,3,0.014900508,0.4256,23,0,23,0,1,,,,,,,,,,
,,135911,001,2023-07-31_20h57.41.731,arm3_eps,2022.2.5,Win32,59.88741167,606c6e9f7e86c0264ab3d7d8,64c7fed44a04f777bb1e18ce,64c803ab12bd89c3cdb9aa8b,right,1,1,0.2429,3,0.018660285,0.8159,24,0,24,0,1,,,,,,,,,,
,,135911,001,2023-07-31_20h57.41.731,arm3_eps,2022.2.5,Win32,59.88741167,606c6e9f7e86c0264ab3d7d8,64c7fed44a04f777bb1e18ce,64c803ab12bd89c3cdb9aa8b,right,1,1,0.2429,3,0.007158177,0.6629,25,0,25,0,1,,,,,,,,,,
,,135911,001,2023-07-31_20h57.41.731,arm3_eps,2022.2.5,Win32,59.88741167,606c6e9f7e86c0264ab3d7d8,64c7fed44a04f777bb1e18ce,64c803ab12bd89c3cdb9aa8b,right,1,1,0.2429,3,0.004089065,0.4683,26,0,26,0,1,,,,,,,,,,
,,135911,001,2023-07-31_20h57.41.731,arm3_eps,2022.2.5,Win32,59.88741167,606c6e9f7e86c0264ab3d7d8,64c7fed44a04f777bb1e18ce,64c803ab12bd89c3cdb9aa8b,up,1,1,0.2429,4,0,0.7685,27,0,27,0,1,,,,,,,,,,
,,135911,001,2023-07-31_20h57.41.731,arm3_eps,2022.2.5,Win32,59.88741167,606c6e9f7e86c0264ab3d7d8,64c7fed44a04f777bb1e18ce,64c803ab12bd89c3cdb9aa8b,right,1,1,0.2429,4,0.026710815,1.0194,28,0,28,0,1,,,,,,,,,,
,,135911,001,2023-07-31_20h57.41.731,arm3_eps,2022.2.5,Win32,59.88741167,606c6e9f7e86c0264ab3d7d8,64c7fed44a04f777bb1e18ce,64c803ab12bd89c3cdb9aa8b,right,1,1,0.2429,4,0.059450456,0.6157,29,0,29,0,1,,,,,,,,,,
,,135911,001,2023-07-31_20h57.41.731,arm3_eps,2022.2.5,Win32,59.88741167,606c6e9f7e86c0264ab3d7d8,64c7fed44a04f777bb1e18ce,64c803ab12bd89c3cdb9aa8b,up,-1,1,0.2429,5,0,0.9421,30,0,30,0,1,,,,,,,,,,
,,135911,001,2023-07-31_20h57.41.731,arm3_eps,2022.2.5,Win32,59.88741167,606c6e9f7e86c0264ab3d7d8,64c7fed44a04f777bb1e18ce,64c803ab12bd89c3cdb9aa8b,right,-1,1,0.2429,5,0.018266161,1.4508,31,0,31,0,1,,,,,,,,,,
,,135911,001,2023-07-31_20h57.41.731,arm3_eps,2022.2.5,Win32,59.88741167,606c6e9f7e86c0264ab3d7d8,64c7fed44a04f777bb1e18ce,64c803ab12bd89c3cdb9aa8b,right,-1,1,0.2429,5,0.012257328,0.5103,32,0,32,0,1,,,,,,,,,,
,,135911,001,2023-07-31_20h57.41.731,arm3_eps,2022.2.5,Win32,59.88741167,606c6e9f7e86c0264ab3d7d8,64c7fed44a04f777bb1e18ce,64c803ab12bd89c3cdb9aa8b,right,-1,1,0.2429,5,-0.015075848,0.2498,33,0,33,0,1,,,,,,,,,,
,,135911,001,2023-07-31_20h57.41.731,arm3_eps,2022.2.5,Win32,59.88741167,606c6e9f7e86c0264ab3d7d8,64c7fed44a04f777bb1e18ce,64c803ab12bd89c3cdb9aa8b,right,-1,1,0.2429,5,-0.054250454,0.6227,34,0,34,0,1,,,,,,,,,,
,,135911,001,2023-07-31_20h57.41.731,arm3_eps,2022.2.5,Win32,59.88741167,606c6e9f7e86c0264ab3d7d8,64c7fed44a04f777bb1e18ce,64c803ab12bd89c3cdb9aa8b,right,-1,1,0.2429,5,-0.07187447,0.3415,35,0,35,0,1,,,,,,,,,,
,,135911,001,2023-07-31_20h57.41.731,arm3_eps,2022.2.5,Win32,59.88741167,606c6e9f7e86c0264ab3d7d8,64c7fed44a04f777bb1e18ce,64c803ab12bd89c3cdb9aa8b,right,-1,1,0.2429,5,-0.082647175,0.4168,36,0,36,0,1,,,,,,,,,,
,,135911,001,2023-07-31_20h57.41.731,arm3_eps,2022.2.5,Win32,59.88741167,606c6e9f7e86c0264ab3d7d8,64c7fed44a04f777bb1e18ce,64c803ab12bd89c3cdb9aa8b,down,-1,1,0.2429,6,0,1.0214,37,0,37,0,1,,,,,,,,,,
,,135911,001,2023-07-31_20h57.41.731,arm3_eps,2022.2.5,Win32,59.88741167,606c6e9f7e86c0264ab3d7d8,64c7fed44a04f777bb1e18ce,64c803ab12bd89c3cdb9aa8b,right,-1,1,0.2429,6,0.009579377,1.1679,38,0,38,0,1,,,,,,,,,,
,,135911,001,2023-07-31_20h57.41.731,arm3_eps,2022.2.5,Win32,59.88741167,606c6e9f7e86c0264ab3d7d8,64c7fed44a04f777bb1e18ce,64c803ab12bd89c3cdb9aa8b,right,-1,1,0.2429,6,0.003869944,0.2055,39,0,39,0,1,,,,,,,,,,
,,135911,001,2023-07-31_20h57.41.731,arm3_eps,2022.2.5,Win32,59.88741167,606c6e9f7e86c0264ab3d7d8,64c7fed44a04f777bb1e18ce,64c803ab12bd89c3cdb9aa8b,right,-1,1,0.2429,6,-0.040760331,0.2044,40,0,40,0,1,,,,,,,,,,
,,135911,001,2023-07-31_20h57.41.731,arm3_eps,2022.2.5,Win32,59.88741167,606c6e9f7e86c0264ab3d7d8,64c7fed44a04f777bb1e18ce,64c803ab12bd89c3cdb9aa8b,right,-1,1,0.2429,6,-0.043650477,0.3402,41,0,41,0,1,,,,,,,,,,
,,135911,001,2023-07-31_20h57.41.731,arm3_eps,2022.2.5,Win32,59.88741167,606c6e9f7e86c0264ab3d7d8,64c7fed44a04f777bb1e18ce,64c803ab12bd89c3cdb9aa8b,right,-1,1,0.2429,6,-0.035336777,0.3338,42,0,42,0,1,,,,,,,,,,
,,135911,001,2023-07-31_20h57.41.731,arm3_eps,2022.2.5,Win32,59.88741167,606c6e9f7e86c0264ab3d7d8,64c7fed44a04f777bb1e18ce,64c803ab12bd89c3cdb9aa8b,right,-1,1,0.2429,6,-0.072264903,0.2959,43,0,43,0,1,,,,,,,,,,
,,135911,001,2023-07-31_20h57.41.731,arm3_eps,2022.2.5,Win32,59.88741167,606c6e9f7e86c0264ab3d7d8,64c7fed44a04f777bb1e18ce,64c803ab12bd89c3cdb9aa8b,down,-1,1,0.2429,7,0,1.2362,44,0,44,0,1,,,,,,,,,,
,,135911,001,2023-07-31_20h57.41.731,arm3_eps,2022.2.5,Win32,59.88741167,606c6e9f7e86c0264ab3d7d8,64c7fed44a04f777bb1e18ce,64c803ab12bd89c3cdb9aa8b,right,-1,1,0.2429,7,0.021253622,1.0277,45,0,45,0,1,,,,,,,,,,
,,135911,001,2023-07-31_20h57.41.731,arm3_eps,2022.2.5,Win32,59.88741167,606c6e9f7e86c0264ab3d7d8,64c7fed44a04f777bb1e18ce,64c803ab12bd89c3cdb9aa8b,right,-1,1,0.2429,7,0.027665616,0.9037,46,0,46,0,1,,,,,,,,,,
,,135911,001,2023-07-31_20h57.41.731,arm3_eps,2022.2.5,Win32,59.88741167,606c6e9f7e86c0264ab3d7d8,64c7fed44a04f777bb1e18ce,64c803ab12bd89c3cdb9aa8b,right,-1,1,0.2429,7,0.027589653,0.1872,47,0,47,0,1,,,,,,,,,,
,,135911,001,2023-07-31_20h57.41.731,arm3_eps,2022.2.5,Win32,59.88741167,606c6e9f7e86c0264ab3d7d8,64c7fed44a04f777bb1e18ce,64c803ab12bd89c3cdb9aa8b,right,-1,1,0.2429,7,0.010587066,0.6031,48,0,48,0,1,,,,,,,,,,
,,135911,001,2023-07-31_20h57.41.731,arm3_eps,2022.2.5,Win32,59.88741167,606c6e9f7e86c0264ab3d7d8,64c7fed44a04f777bb1e18ce,64c803ab12bd89c3cdb9aa8b,right,-1,1,0.2429,7,-0.012030467,0.4266,49,0,49,0,1,,,,,,,,,,
space,29.2919,135911,001,2023-07-31_20h57.41.731,arm3_eps,2022.2.5,Win32,59.88741167,606c6e9f7e86c0264ab3d7d8,64c7fed44a04f777bb1e18ce,64c803ab12bd89c3cdb9aa8b,,,,,,,,,,,,,,,,,,,,,,
space,28.9944,135911,001,2023-07-31_20h57.41.731,arm3_eps,2022.2.5,Win32,59.88741167,606c6e9f7e86c0264ab3d7d8,64c7fed44a04f777bb1e18ce,64c803ab12bd89c3cdb9aa8b,,,,,,,,,,,,,,,,,,,,,,
space,15.5904,135911,001,2023-07-31_20h57.41.731,arm3_eps,2022.2.5,Win32,59.88741167,606c6e9f7e86c0264ab3d7d8,64c7fed44a04f777bb1e18ce,64c803ab12bd89c3cdb9aa8b,,,,,,,,,,,,,,,,,,,,,,
space,6.4819,135911,001,2023-07-31_20h57.41.731,arm3_eps,2022.2.5,Win32,59.88741167,606c6e9f7e86c0264ab3d7d8,64c7fed44a04f777bb1e18ce,64c803ab12bd89c3cdb9aa8b,,,,,,,,,,,,,,,,,,,,,,
space,21.0476,135911,001,2023-07-31_20h57.41.731,arm3_eps,2022.2.5,Win32,59.88741167,606c6e9f7e86c0264ab3d7d8,64c7fed44a04f777bb1e18ce,64c803ab12bd89c3cdb9aa8b,,,,,,,,,,,,,,,,,,,,,,
space,2.4164,135911,001,2023-07-31_20h57.41.731,arm3_eps,2022.2.5,Win32,59.88741167,606c6e9f7e86c0264ab3d7d8,64c7fed44a04f777bb1e18ce,64c803ab12bd89c3cdb9aa8b,,,,,,,,,,,,,,,,,,,,,,
,,135911,001,2023-07-31_20h57.41.731,arm3_eps,2022.2.5,Win32,59.88741167,606c6e9f7e86c0264ab3d7d8,64c7fed44a04f777bb1e18ce,64c803ab12bd89c3cdb9aa8b,right,-1,0.75,0.2429,0,0.008365663,2.9714,0,0,0,0,1,,,,,,,,,,
,,135911,001,2023-07-31_20h57.41.731,arm3_eps,2022.2.5,Win32,59.88741167,606c6e9f7e86c0264ab3d7d8,64c7fed44a04f777bb1e18ce,64c803ab12bd89c3cdb9aa8b,right,-1,0.75,0.2429,0,-0.016566337,0.5026,1,0,1,0,1,,,,,,,,,,
,,135911,001,2023-07-31_20h57.41.731,arm3_eps,2022.2.5,Win32,59.88741167,606c6e9f7e86c0264ab3d7d8,64c7fed44a04f777bb1e18ce,64c803ab12bd89c3cdb9aa8b,up,-1,0.75,0.2429,-1,0,0.9711,2,0,2,0,1,,,,,,,,,,
,,135911,001,2023-07-31_20h57.41.731,arm3_eps,2022.2.5,Win32,59.88741167,606c6e9f7e86c0264ab3d7d8,64c7fed44a04f777bb1e18ce,64c803ab12bd89c3cdb9aa8b,right,-1,0.75,0.2429,-1,-0.025829274,2.2853,3,0,3,0,1,,,,,,,,,,
,,135911,001,2023-07-31_20h57.41.731,arm3_eps,2022.2.5,Win32,59.88741167,606c6e9f7e86c0264ab3d7d8,64c7fed44a04f777bb1e18ce,64c803ab12bd89c3cdb9aa8b,right,-1,0.75,0.2429,-1,-0.042535065,0.4154,4,0,4,0,1,,,,,,,,,,
,,135911,001,2023-07-31_20h57.41.731,arm3_eps,2022.2.5,Win32,59.88741167,606c6e9f7e86c0264ab3d7d8,64c7fed44a04f777bb1e18ce,64c803ab12bd89c3cdb9aa8b,down,1,0.75,0.2429,-1,0,2.2699,5,0,5,0,1,,,,,,,,,,
,,135911,001,2023-07-31_20h57.41.731,arm3_eps,2022.2.5,Win32,59.88741167,606c6e9f7e86c0264ab3d7d8,64c7fed44a04f777bb1e18ce,64c803ab12bd89c3cdb9aa8b,right,1,0.75,0.2429,-1,0.008136601,1.4712,6,0,6,0,1,,,,,,,,,,
,,135911,001,2023-07-31_20h57.41.731,arm3_eps,2022.2.5,Win32,59.88741167,606c6e9f7e86c0264ab3d7d8,64c7fed44a04f777bb1e18ce,64c803ab12bd89c3cdb9aa8b,right,1,0.75,0.2429,-1,0.027477856,0.2314,7,0,7,0,1,,,,,,,,,,
,,135911,001,2023-07-31_20h57.41.731,arm3_eps,2022.2.5,Win32,59.88741167,606c6e9f7e86c0264ab3d7d8,64c7fed44a04f777bb1e18ce,64c803ab12bd89c3cdb9aa8b,up,1,0.75,0.2429,-1,0,1.2215,8,0,8,0,1,,,,,,,,,,
,,135911,001,2023-07-31_20h57.41.731,arm3_eps,2022.2.5,Win32,59.88741167,606c6e9f7e86c0264ab3d7d8,64c7fed44a04f777bb1e18ce,64c803ab12bd89c3cdb9aa8b,right,1,0.75,0.2429,-1,0.02505487,1.2884,9,0,9,0,1,,,,,,,,,,
,,135911,001,2023-07-31_20h57.41.731,arm3_eps,2022.2.5,Win32,59.88741167,606c6e9f7e86c0264ab3d7d8,64c7fed44a04f777bb1e18ce,64c803ab12bd89c3cdb9aa8b,right,1,0.75,0.2429,-1,0.003898497,0.2308,10,0,10,0,1,,,,,,,,,,
,,135911,001,2023-07-31_20h57.41.731,arm3_eps,2022.2.5,Win32,59.88741167,606c6e9f7e86c0264ab3d7d8,64c7fed44a04f777bb1e18ce,64c803ab12bd89c3cdb9aa8b,right,1,0.75,0.2429,-1,0.018872513,0.4381,11,0,11,0,1,,,,,,,,,,
,,135911,001,2023-07-31_20h57.41.731,arm3_eps,2022.2.5,Win32,59.88741167,606c6e9f7e86c0264ab3d7d8,64c7fed44a04f777bb1e18ce,64c803ab12bd89c3cdb9aa8b,up,1,0.75,0.2429,0,0,0.9723,12,0,12,0,1,,,,,,,,,,
,,135911,001,2023-07-31_20h57.41.731,arm3_eps,2022.2.5,Win32,59.88741167,606c6e9f7e86c0264ab3d7d8,64c7fed44a04f777bb1e18ce,64c803ab12bd89c3cdb9aa8b,right,1,0.75,0.2429,0,0.018355188,2.2557,13,0,13,0,1,,,,,,,,,,
,,135911,001,2023-07-31_20h57.41.731,arm3_eps,2022.2.5,Win32,59.88741167,606c6e9f7e86c0264ab3d7d8,64c7fed44a04f777bb1e18ce,64c803ab12bd89c3cdb9aa8b,right,1,0.75,0.2429,0,-0.001727419,0.2028,14,0,14,0,1,,,,,,,,,,
,,135911,001,2023-07-31_20h57.41.731,arm3_eps,2022.2.5,Win32,59.88741167,606c6e9f7e86c0264ab3d7d8,64c7fed44a04f777bb1e18ce,64c803ab12bd89c3cdb9aa8b,right,1,0.75,0.2429,0,0.012407169,0.4493,15,0,15,0,1,,,,,,,,,,
,,135911,001,2023-07-31_20h57.41.731,arm3_eps,2022.2.5,Win32,59.88741167,606c6e9f7e86c0264ab3d7d8,64c7fed44a04f777bb1e18ce,64c803ab12bd89c3cdb9aa8b,up,-1,0.75,0.2429,1,0,0.8866,16,0,16,0,1,,,,,,,,,,
,,135911,001,2023-07-31_20h57.41.731,arm3_eps,2022.2.5,Win32,59.88741167,606c6e9f7e86c0264ab3d7d8,64c7fed44a04f777bb1e18ce,64c803ab12bd89c3cdb9aa8b,right,-1,0.75,0.2429,1,-0.007989342,1.0869,17,0,17,0,1,,,,,,,,,,
,,135911,001,2023-07-31_20h57.41.731,arm3_eps,2022.2.5,Win32,59.88741167,606c6e9f7e86c0264ab3d7d8,64c7fed44a04f777bb1e18ce,64c803ab12bd89c3cdb9aa8b,right,-1,0.75,0.2429,1,0.001771568,0.2224,18,0,18,0,1,,,,,,,,,,
,,135911,001,2023-07-31_20h57.41.731,arm3_eps,2022.2.5,Win32,59.88741167,606c6e9f7e86c0264ab3d7d8,64c7fed44a04f777bb1e18ce,64c803ab12bd89c3cdb9aa8b,right,-1,0.75,0.2429,1,0.010535961,0.4849,19,0,19,0,1,,,,,,,,,,
,,135911,001,2023-07-31_20h57.41.731,arm3_eps,2022.2.5,Win32,59.88741167,606c6e9f7e86c0264ab3d7d8,64c7fed44a04f777bb1e18ce,64c803ab12bd89c3cdb9aa8b,right,-1,0.75,0.2429,1,0.014315819,2.8414,20,0,20,0,1,,,,,,,,,,
,,135911,001,2023-07-31_20h57.41.731,arm3_eps,2022.2.5,Win32,59.88741167,606c6e9f7e86c0264ab3d7d8,64c7fed44a04f777bb1e18ce,64c803ab12bd89c3cdb9aa8b,right,-1,0.75,0.2429,1,0.011924265,1.695,21,0,21,0,1,,,,,,,,,,
,,135911,001,2023-07-31_20h57.41.731,arm3_eps,2022.2.5,Win32,59.88741167,606c6e9f7e86c0264ab3d7d8,64c7fed44a04f777bb1e18ce,64c803ab12bd89c3cdb9aa8b,up,-1,0.75,0.2429,0,0,0.9701,22,0,22,0,1,,,,,,,,,,
,,135911,001,2023-07-31_20h57.41.731,arm3_eps,2022.2.5,Win32,59.88741167,606c6e9f7e86c0264ab3d7d8,64c7fed44a04f777bb1e18ce,64c803ab12bd89c3cdb9aa8b,right,-1,0.75,0.2429,0,-0.022067366,1.6303,23,0,23,0,1,,,,,,,,,,
,,135911,001,2023-07-31_20h57.41.731,arm3_eps,2022.2.5,Win32,59.88741167,606c6e9f7e86c0264ab3d7d8,64c7fed44a04f777bb1e18ce,64c803ab12bd89c3cdb9aa8b,right,-1,0.75,0.2429,0,-0.039412671,0.4163,24,0,24,0,1,,,,,,,,,,
,,135911,001,2023-07-31_20h57.41.731,arm3_eps,2022.2.5,Win32,59.88741167,606c6e9f7e86c0264ab3d7d8,64c7fed44a04f777bb1e18ce,64c803ab12bd89c3cdb9aa8b,right,-1,0.75,0.2429,0,-0.03634641,0.4486,25,0,25,0,1,,,,,,,,,,
,,135911,001,2023-07-31_20h57.41.731,arm3_eps,2022.2.5,Win32,59.88741167,606c6e9f7e86c0264ab3d7d8,64c7fed44a04f777bb1e18ce,64c803ab12bd89c3cdb9aa8b,down,-1,0.75,0.2429,1,0,0.9811,26,0,26,0,1,,,,,,,,,,
,,135911,001,2023-07-31_20h57.41.731,arm3_eps,2022.2.5,Win32,59.88741167,606c6e9f7e86c0264ab3d7d8,64c7fed44a04f777bb1e18ce,64c803ab12bd89c3cdb9aa8b,right,-1,0.75,0.2429,1,-0.024627282,1.1765,27,0,27,0,1,,,,,,,,,,
,,135911,001,2023-07-31_20h57.41.731,arm3_eps,2022.2.5,Win32,59.88741167,606c6e9f7e86c0264ab3d7d8,64c7fed44a04f777bb1e18ce,64c803ab12bd89c3cdb9aa8b,right,-1,0.75,0.2429,1,-0.004347118,0.4839,28,0,28,0,1,,,,,,,,,,
,,135911,001,2023-07-31_20h57.41.731,arm3_eps,2022.2.5,Win32,59.88741167,606c6e9f7e86c0264ab3d7d8,64c7fed44a04f777bb1e18ce,64c803ab12bd89c3cdb9aa8b,right,-1,0.75,0.2429,1,-0.012571723,0.2165,29,0,29,0,1,,,,,,,,,,
,,135911,001,2023-07-31_20h57.41.731,arm3_eps,2022.2.5,Win32,59.88741167,606c6e9f7e86c0264ab3d7d8,64c7fed44a04f777bb1e18ce,64c803ab12bd89c3cdb9aa8b,right,-1,0.75,0.2429,1,-0.023301621,1.9116,30,0,30,0,1,,,,,,,,,,
,,135911,001,2023-07-31_20h57.41.731,arm3_eps,2022.2.5,Win32,59.88741167,606c6e9f7e86c0264ab3d7d8,64c7fed44a04f777bb1e18ce,64c803ab12bd89c3cdb9aa8b,right,-1,0.75,0.2429,1,-0.017012978,0.7552,31,0,31,0,1,,,,,,,,,,
,,135911,001,2023-07-31_20h57.41.731,arm3_eps,2022.2.5,Win32,59.88741167,606c6e9f7e86c0264ab3d7d8,64c7fed44a04f777bb1e18ce,64c803ab12bd89c3cdb9aa8b,right,-1,0.75,0.2429,1,0.009239447,0.7477,32,0,32,0,1,,,,,,,,,,
,,135911,001,2023-07-31_20h57.41.731,arm3_eps,2022.2.5,Win32,59.88741167,606c6e9f7e86c0264ab3d7d8,64c7fed44a04f777bb1e18ce,64c803ab12bd89c3cdb9aa8b,up,-1,0.75,0.2429,0,0,1.9171,33,0,33,0,1,,,,,,,,,,
,,135911,001,2023-07-31_20h57.41.731,arm3_eps,2022.2.5,Win32,59.88741167,606c6e9f7e86c0264ab3d7d8,64c7fed44a04f777bb1e18ce,64c803ab12bd89c3cdb9aa8b,right,-1,0.75,0.2429,0,0.005789254,2.1477,34,0,34,0,1,,,,,,,,,,
,,135911,001,2023-07-31_20h57.41.731,arm3_eps,2022.2.5,Win32,59.88741167,606c6e9f7e86c0264ab3d7d8,64c7fed44a04f777bb1e18ce,64c803ab12bd89c3cdb9aa8b,right,-1,0.75,0.2429,0,0.001148355,0.3926,35,0,35,0,1,,,,,,,,,,
,,135911,001,2023-07-31_20h57.41.731,arm3_eps,2022.2.5,Win32,59.88741167,606c6e9f7e86c0264ab3d7d8,64c7fed44a04f777bb1e18ce,64c803ab12bd89c3cdb9aa8b,right,-1,0.75,0.2429,0,-0.014284961,2.7843,36,0,36,0,1,,,,,,,,,,
,,135911,001,2023-07-31_20h57.41.731,arm3_eps,2022.2.5,Win32,59.88741167,606c6e9f7e86c0264ab3d7d8,64c7fed44a04f777bb1e18ce,64c803ab12bd89c3cdb9aa8b,right,-1,0.75,0.2429,0,-0.02253799,0.4807,37,0,37,0,1,,,,,,,,,,
,,135911,001,2023-07-31_20h57.41.731,arm3_eps,2022.2.5,Win32,59.88741167,606c6e9f7e86c0264ab3d7d8,64c7fed44a04f777bb1e18ce,64c803ab12bd89c3cdb9aa8b,right,-1,0.75,0.2429,0,-0.033179768,0.4764,38,0,38,0,1,,,,,,,,,,
,,135911,001,2023-07-31_20h57.41.731,arm3_eps,2022.2.5,Win32,59.88741167,606c6e9f7e86c0264ab3d7d8,64c7fed44a04f777bb1e18ce,64c803ab12bd89c3cdb9aa8b,down,-1,0.75,0.2429,1,0,1.217,39,0,39,0,1,,,,,,,,,,
,,135911,001,2023-07-31_20h57.41.731,arm3_eps,2022.2.5,Win32,59.88741167,606c6e9f7e86c0264ab3d7d8,64c7fed44a04f777bb1e18ce,64c803ab12bd89c3cdb9aa8b,right,-1,0.75,0.2429,1,-0.026449664,0.9227,40,0,40,0,1,,,,,,,,,,
,,135911,001,2023-07-31_20h57.41.731,arm3_eps,2022.2.5,Win32,59.88741167,606c6e9f7e86c0264ab3d7d8,64c7fed44a04f777bb1e18ce,64c803ab12bd89c3cdb9aa8b,right,-1,0.75,0.2429,1,-0.028381712,1.3793,41,0,41,0,1,,,,,,,,,,
,,135911,001,2023-07-31_20h57.41.731,arm3_eps,2022.2.5,Win32,59.88741167,606c6e9f7e86c0264ab3d7d8,64c7fed44a04f777bb1e18ce,64c803ab12bd89c3cdb9aa8b,down,-1,0.75,0.2429,2,0,0.859,42,0,42,0,1,,,,,,,,,,
,,135911,001,2023-07-31_20h57.41.731,arm3_eps,2022.2.5,Win32,59.88741167,606c6e9f7e86c0264ab3d7d8,64c7fed44a04f777bb1e18ce,64c803ab12bd89c3cdb9aa8b,right,-1,0.75,0.2429,2,-0.007747582,0.9109,43,0,43,0,1,,,,,,,,,,
,,135911,001,2023-07-31_20h57.41.731,arm3_eps,2022.2.5,Win32,59.88741167,606c6e9f7e86c0264ab3d7d8,64c7fed44a04f777bb1e18ce,64c803ab12bd89c3cdb9aa8b,right,-1,0.75,0.2429,2,-0.038442228,0.181,44,0,44,0,1,,,,,,,,,,
,,135911,001,2023-07-31_20h57.41.731,arm3_eps,2022.2.5,Win32,59.88741167,606c6e9f7e86c0264ab3d7d8,64c7fed44a04f777bb1e18ce,64c803ab12bd89c3cdb9aa8b,down,-1,0.75,0.2429,3,0,0.834,45,0,45,0,1,,,,,,,,,,
,,135911,001,2023-07-31_20h57.41.731,arm3_eps,2022.2.5,Win32,59.88741167,606c6e9f7e86c0264ab3d7d8,64c7fed44a04f777bb1e18ce,64c803ab12bd89c3cdb9aa8b,right,-1,0.75,0.2429,3,-0.042590055,0.9267,46,0,46,0,1,,,,,,,,,,
,,135911,001,2023-07-31_20h57.41.731,arm3_eps,2022.2.5,Win32,59.88741167,606c6e9f7e86c0264ab3d7d8,64c7fed44a04f777bb1e18ce,64c803ab12bd89c3cdb9aa8b,down,-1,0.75,0.2429,3,0,0.795,47,0,47,0,1,,,,,,,,,,
,,135911,001,2023-07-31_20h57.41.731,arm3_eps,2022.2.5,Win32,59.88741167,606c6e9f7e86c0264ab3d7d8,64c7fed44a04f777bb1e18ce,64c803ab12bd89c3cdb9aa8b,right,-1,0.75,0.2429,3,-0.029178272,1.1355,48,0,48,0,1,,,,,,,,,,
,,135911,001,2023-07-31_20h57.41.731,arm3_eps,2022.2.5,Win32,59.88741167,606c6e9f7e86c0264ab3d7d8,64c7fed44a04f777bb1e18ce,64c803ab12bd89c3cdb9aa8b,right,-1,0.75,0.2429,3,-0.037838651,0.6146,49,0,49,0,1,,,,,,,,,,
space,26.0891,135911,001,2023-07-31_20h57.41.731,arm3_eps,2022.2.5,Win32,59.88741167,606c6e9f7e86c0264ab3d7d8,64c7fed44a04f777bb1e18ce,64c803ab12bd89c3cdb9aa8b,,,,,,,,,,,,,,,,,,,,,,
space,20.8121,135911,001,2023-07-31_20h57.41.731,arm3_eps,2022.2.5,Win32,59.88741167,606c6e9f7e86c0264ab3d7d8,64c7fed44a04f777bb1e18ce,64c803ab12bd89c3cdb9aa8b,,,,,,,,,,,,,,,,,,,,,,
space,1.6843,135911,001,2023-07-31_20h57.41.731,arm3_eps,2022.2.5,Win32,59.88741167,606c6e9f7e86c0264ab3d7d8,64c7fed44a04f777bb1e18ce,64c803ab12bd89c3cdb9aa8b,,,,,,,,,,,,,,,,,,,,,,
,,135911,001,2023-07-31_20h57.41.731,arm3_eps,2022.2.5,Win32,59.88741167,606c6e9f7e86c0264ab3d7d8,64c7fed44a04f777bb1e18ce,64c803ab12bd89c3cdb9aa8b,down,-1,0.75,0.05,1,0,3.982,0,0,0,0,1,,,,,,,,,,
,,135911,001,2023-07-31_20h57.41.731,arm3_eps,2022.2.5,Win32,59.88741167,606c6e9f7e86c0264ab3d7d8,64c7fed44a04f777bb1e18ce,64c803ab12bd89c3cdb9aa8b,right,-1,0.75,0.05,1,0.000790539,2.2108,1,0,1,0,1,,,,,,,,,,
,,135911,001,2023-07-31_20h57.41.731,arm3_eps,2022.2.5,Win32,59.88741167,606c6e9f7e86c0264ab3d7d8,64c7fed44a04f777bb1e18ce,64c803ab12bd89c3cdb9aa8b,right,-1,0.75,0.05,1,-0.002718414,0.567,2,0,2,0,1,,,,,,,,,,
,,135911,001,2023-07-31_20h57.41.731,arm3_eps,2022.2.5,Win32,59.88741167,606c6e9f7e86c0264ab3d7d8,64c7fed44a04f777bb1e18ce,64c803ab12bd89c3cdb9aa8b,down,1,0.75,0.05,2,0,0.865,3,0,3,0,1,,,,,,,,,,
,,135911,001,2023-07-31_20h57.41.731,arm3_eps,2022.2.5,Win32,59.88741167,606c6e9f7e86c0264ab3d7d8,64c7fed44a04f777bb1e18ce,64c803ab12bd89c3cdb9aa8b,down,1,0.75,0.05,1,0,1.4242,4,0,4,0,1,,,,,,,,,,
,,135911,001,2023-07-31_20h57.41.731,arm3_eps,2022.2.5,Win32,59.88741167,606c6e9f7e86c0264ab3d7d8,64c7fed44a04f777bb1e18ce,64c803ab12bd89c3cdb9aa8b,up,1,0.75,0.05,2,0,1.946,5,0,5,0,1,,,,,,,,,,
,,135911,001,2023-07-31_20h57.41.731,arm3_eps,2022.2.5,Win32,59.88741167,606c6e9f7e86c0264ab3d7d8,64c7fed44a04f777bb1e18ce,64c803ab12bd89c3cdb9aa8b,down,1,0.75,0.05,1,0,1.32,6,0,6,0,1,,,,,,,,,,
,,135911,001,2023-07-31_20h57.41.731,arm3_eps,2022.2.5,Win32,59.88741167,606c6e9f7e86c0264ab3d7d8,64c7fed44a04f777bb1e18ce,64c803ab12bd89c3cdb9aa8b,up,1,0.75,0.05,1,0,2.0187,7,0,7,0,1,,,,,,,,,,
,,135911,001,2023-07-31_20h57.41.731,arm3_eps,2022.2.5,Win32,59.88741167,606c6e9f7e86c0264ab3d7d8,64c7fed44a04f777bb1e18ce,64c803ab12bd89c3cdb9aa8b,right,1,0.75,0.05,1,-0.016472169,1.3689,8,0,8,0,1,,,,,,,,,,
,,135911,001,2023-07-31_20h57.41.731,arm3_eps,2022.2.5,Win32,59.88741167,606c6e9f7e86c0264ab3d7d8,64c7fed44a04f777bb1e18ce,64c803ab12bd89c3cdb9aa8b,right,1,0.75,0.05,1,0.002864409,0.5742,9,0,9,0,1,,,,,,,,,,
,,135911,001,2023-07-31_20h57.41.731,arm3_eps,2022.2.5,Win32,59.88741167,606c6e9f7e86c0264ab3d7d8,64c7fed44a04f777bb1e18ce,64c803ab12bd89c3cdb9aa8b,right,1,0.75,0.05,1,0.013304577,0.5664,10,0,10,0,1,,,,,,,,,,
,,135911,001,2023-07-31_20h57.41.731,arm3_eps,2022.2.5,Win32,59.88741167,606c6e9f7e86c0264ab3d7d8,64c7fed44a04f777bb1e18ce,64c803ab12bd89c3cdb9aa8b,right,1,0.75,0.05,1,0.01261501,0.5189,11,0,11,0,1,,,,,,,,,,
,,135911,001,2023-07-31_20h57.41.731,arm3_eps,2022.2.5,Win32,59.88741167,606c6e9f7e86c0264ab3d7d8,64c7fed44a04f777bb1e18ce,64c803ab12bd89c3cdb9aa8b,right,1,0.75,0.05,1,-0.011498373,1.354,12,0,12,0,1,,,,,,,,,,
,,135911,001,2023-07-31_20h57.41.731,arm3_eps,2022.2.5,Win32,59.88741167,606c6e9f7e86c0264ab3d7d8,64c7fed44a04f777bb1e18ce,64c803ab12bd89c3cdb9aa8b,up,1,0.75,0.05,1,0,1.0116,13,0,13,0,1,,,,,,,,,,
,,135911,001,2023-07-31_20h57.41.731,arm3_eps,2022.2.5,Win32,59.88741167,606c6e9f7e86c0264ab3d7d8,64c7fed44a04f777bb1e18ce,64c803ab12bd89c3cdb9aa8b,right,1,0.75,0.05,1,0.011978466,2.1828,14,0,14,0,1,,,,,,,,,,
,,135911,001,2023-07-31_20h57.41.731,arm3_eps,2022.2.5,Win32,59.88741167,606c6e9f7e86c0264ab3d7d8,64c7fed44a04f777bb1e18ce,64c803ab12bd89c3cdb9aa8b,right,1,0.75,0.05,1,0.019587321,1.2661,15,0,15,0,1,,,,,,,,,,
,,135911,001,2023-07-31_20h57.41.731,arm3_eps,2022.2.5,Win32,59.88741167,606c6e9f7e86c0264ab3d7d8,64c7fed44a04f777bb1e18ce,64c803ab12bd89c3cdb9aa8b,up,1,0.75,0.05,2,0,0.8875,16,0,16,0,1,,,,,,,,,,
,,135911,001,2023-07-31_20h57.41.731,arm3_eps,2022.2.5,Win32,59.88741167,606c6e9f7e86c0264ab3d7d8,64c7fed44a04f777bb1e18ce,64c803ab12bd89c3cdb9aa8b,right,1,0.75,0.05,2,0.005357448,1.6317,17,0,17,0,1,,,,,,,,,,
,,135911,001,2023-07-31_20h57.41.731,arm3_eps,2022.2.5,Win32,59.88741167,606c6e9f7e86c0264ab3d7d8,64c7fed44a04f777bb1e18ce,64c803ab12bd89c3cdb9aa8b,right,1,0.75,0.05,2,0.011758932,0.7611,18,0,18,0,1,,,,,,,,,,
,,135911,001,2023-07-31_20h57.41.731,arm3_eps,2022.2.5,Win32,59.88741167,606c6e9f7e86c0264ab3d7d8,64c7fed44a04f777bb1e18ce,64c803ab12bd89c3cdb9aa8b,up,1,0.75,0.05,2,0,0.7651,19,0,19,0,1,,,,,,,,,,
,,135911,001,2023-07-31_20h57.41.731,arm3_eps,2022.2.5,Win32,59.88741167,606c6e9f7e86c0264ab3d7d8,64c7fed44a04f777bb1e18ce,64c803ab12bd89c3cdb9aa8b,right,1,0.75,0.05,2,-0.000520953,1.1109,20,0,20,0,1,,,,,,,,,,
,,135911,001,2023-07-31_20h57.41.731,arm3_eps,2022.2.5,Win32,59.88741167,606c6e9f7e86c0264ab3d7d8,64c7fed44a04f777bb1e18ce,64c803ab12bd89c3cdb9aa8b,right,1,0.75,0.05,2,-0.014237547,0.606,21,0,21,0,1,,,,,,,,,,
,,135911,001,2023-07-31_20h57.41.731,arm3_eps,2022.2.5,Win32,59.88741167,606c6e9f7e86c0264ab3d7d8,64c7fed44a04f777bb1e18ce,64c803ab12bd89c3cdb9aa8b,right,1,0.75,0.05,2,0.013814788,0.632,22,0,22,0,1,,,,,,,,,,
,,135911,001,2023-07-31_20h57.41.731,arm3_eps,2022.2.5,Win32,59.88741167,606c6e9f7e86c0264ab3d7d8,64c7fed44a04f777bb1e18ce,64c803ab12bd89c3cdb9aa8b,up,1,0.75,0.05,3,0,0.9643,23,0,23,0,1,,,,,,,,,,
,,135911,001,2023-07-31_20h57.41.731,arm3_eps,2022.2.5,Win32,59.88741167,606c6e9f7e86c0264ab3d7d8,64c7fed44a04f777bb1e18ce,64c803ab12bd89c3cdb9aa8b,right,1,0.75,0.05,3,0.019980946,1.0313,24,0,24,0,1,,,,,,,,,,
,,135911,001,2023-07-31_20h57.41.731,arm3_eps,2022.2.5,Win32,59.88741167,606c6e9f7e86c0264ab3d7d8,64c7fed44a04f777bb1e18ce,64c803ab12bd89c3cdb9aa8b,right,1,0.75,0.05,3,0.029582411,0.5852,25,0,25,0,1,,,,,,,,,,
,,135911,001,2023-07-31_20h57.41.731,arm3_eps,2022.2.5,Win32,59.88741167,606c6e9f7e86c0264ab3d7d8,64c7fed44a04f777bb1e18ce,64c803ab12bd89c3cdb9aa8b,up,1,0.75,0.05,4,0,0.7695,26,0,26,0,1,,,,,,,,,,
,,135911,001,2023-07-31_20h57.41.731,arm3_eps,2022.2.5,Win32,59.88741167,606c6e9f7e86c0264ab3d7d8,64c7fed44a04f777bb1e18ce,64c803ab12bd89c3cdb9aa8b,right,1,0.75,0.05,4,0.002510252,1.286,27,0,27,0,1,,,,,,,,,,
,,135911,001,2023-07-31_20h57.41.731,arm3_eps,2022.2.5,Win32,59.88741167,606c6e9f7e86c0264ab3d7d8,64c7fed44a04f777bb1e18ce,64c803ab12bd89c3cdb9aa8b,right,1,0.75,0.05,4,-0.00771813,1.6947,28,0,28,0,1,,,,,,,,,,
,,135911,001,2023-07-31_20h57.41.731,arm3_eps,2022.2.5,Win32,59.88741167,606c6e9f7e86c0264ab3d7d8,64c7fed44a04f777bb1e18ce,64c803ab12bd89c3cdb9aa8b,down,1,0.75,0.05,3,0,1.0984,29,0,29,0,1,,,,,,,,,,
,,135911,001,2023-07-31_20h57.41.731,arm3_eps,2022.2.5,Win32,59.88741167,606c6e9f7e86c0264ab3d7d8,64c7fed44a04f777bb1e18ce,64c803ab12bd89c3cdb9aa8b,right,1,0.75,0.05,3,-0.019275323,1.2818,30,0,30,0,1,,,,,,,,,,
,,135911,001,2023-07-31_20h57.41.731,arm3_eps,2022.2.5,Win32,59.88741167,606c6e9f7e86c0264ab3d7d8,64c7fed44a04f777bb1e18ce,64c803ab12bd89c3cdb9aa8b,right,1,0.75,0.05,3,0.006361963,0.6493,31,0,31,0,1,,,,,,,,,,
,,135911,001,2023-07-31_20h57.41.731,arm3_eps,2022.2.5,Win32,59.88741167,606c6e9f7e86c0264ab3d7d8,64c7fed44a04f777bb1e18ce,64c803ab12bd89c3cdb9aa8b,up,1,0.75,0.05,4,0,1.1427,32,0,32,0,1,,,,,,,,,,
,,135911,001,2023-07-31_20h57.41.731,arm3_eps,2022.2.5,Win32,59.88741167,606c6e9f7e86c0264ab3d7d8,64c7fed44a04f777bb1e18ce,64c803ab12bd89c3cdb9aa8b,right,1,0.75,0.05,4,0.006686956,1.437,33,0,33,0,1,,,,,,,,,,
,,135911,001,2023-07-31_20h57.41.731,arm3_eps,2022.2.5,Win32,59.88741167,606c6e9f7e86c0264ab3d7d8,64c7fed44a04f777bb1e18ce,64c803ab12bd89c3cdb9aa8b,right,1,0.75,0.05,4,0.006501596,0.6318,34,0,34,0,1,,,,,,,,,,
,,135911,001,2023-07-31_20h57.41.731,arm3_eps,2022.2.5,Win32,59.88741167,606c6e9f7e86c0264ab3d7d8,64c7fed44a04f777bb1e18ce,64c803ab12bd89c3cdb9aa8b,right,1,0.75,0.05,4,0.011897196,0.5811,35,0,35,0,1,,,,,,,,,,
,,135911,001,2023-07-31_20h57.41.731,arm3_eps,2022.2.5,Win32,59.88741167,606c6e9f7e86c0264ab3d7d8,64c7fed44a04f777bb1e18ce,64c803ab12bd89c3cdb9aa8b,up,1,0.75,0.05,5,0,1.2847,36,0,36,0,1,,,,,,,,,,
,,135911,001,2023-07-31_20h57.41.731,arm3_eps,2022.2.5,Win32,59.88741167,606c6e9f7e86c0264ab3d7d8,64c7fed44a04f777bb1e18ce,64c803ab12bd89c3cdb9aa8b,right,1,0.75,0.05,5,-0.000656067,1.7645,37,0,37,0,1,,,,,,,,,,
,,135911,001,2023-07-31_20h57.41.731,arm3_eps,2022.2.5,Win32,59.88741167,606c6e9f7e86c0264ab3d7d8,64c7fed44a04f777bb1e18ce,64c803ab12bd89c3cdb9aa8b,down,1,0.75,0.05,4,0,1.1318,38,0,38,0,1,,,,,,,,,,
,,135911,001,2023-07-31_20h57.41.731,arm3_eps,2022.2.5,Win32,59.88741167,606c6e9f7e86c0264ab3d7d8,64c7fed44a04f777bb1e18ce,64c803ab12bd89c3cdb9aa8b,right,1,0.75,0.05,4,0.01568368,1.2636,39,0,39,0,1,,,,,,,,,,
,,135911,001,2023-07-31_20h57.41.731,arm3_eps,2022.2.5,Win32,59.88741167,606c6e9f7e86c0264ab3d7d8,64c7fed44a04f777bb1e18ce,64c803ab12bd89c3cdb9aa8b,up,1,0.75,0.05,5,0,1.1678,40,0,40,0,1,,,,,,,,,,
,,135911,001,2023-07-31_20h57.41.731,arm3_eps,2022.2.5,Win32,59.88741167,606c6e9f7e86c0264ab3d7d8,64c7fed44a04f777bb1e18ce,64c803ab12bd89c3cdb9aa8b,right,1,0.75,0.05,5,0.019026211,1.7489,41,0,41,0,1,,,,,,,,,,
,,135911,001,2023-07-31_20h57.41.731,arm3_eps,2022.2.5,Win32,59.88741167,606c6e9f7e86c0264ab3d7d8,64c7fed44a04f777bb1e18ce,64c803ab12bd89c3cdb9aa8b,up,-1,0.75,0.05,6,0,1.1318,42,0,42,0,1,,,,,,,,,,
,,135911,001,2023-07-31_20h57.41.731,arm3_eps,2022.2.5,Win32,59.88741167,606c6e9f7e86c0264ab3d7d8,64c7fed44a04f777bb1e18ce,64c803ab12bd89c3cdb9aa8b,right,-1,0.75,0.05,6,-0.003806232,1.8243,43,0,43,0,1,,,,,,,,,,
,,135911,001,2023-07-31_20h57.41.731,arm3_eps,2022.2.5,Win32,59.88741167,606c6e9f7e86c0264ab3d7d8,64c7fed44a04f777bb1e18ce,64c803ab12bd89c3cdb9aa8b,right,-1,0.75,0.05,6,-0.004589309,0.611,44,0,44,0,1,,,,,,,,,,
,,135911,001,2023-07-31_20h57.41.731,arm3_eps,2022.2.5,Win32,59.88741167,606c6e9f7e86c0264ab3d7d8,64c7fed44a04f777bb1e18ce,64c803ab12bd89c3cdb9aa8b,right,-1,0.75,0.05,6,-0.024476009,1.0341,45,0,45,0,1,,,,,,,,,,
,,135911,001,2023-07-31_20h57.41.731,arm3_eps,2022.2.5,Win32,59.88741167,606c6e9f7e86c0264ab3d7d8,64c7fed44a04f777bb1e18ce,64c803ab12bd89c3cdb9aa8b,down,-1,0.75,0.05,7,0,0.8479,46,0,46,0,1,,,,,,,,,,
,,135911,001,2023-07-31_20h57.41.731,arm3_eps,2022.2.5,Win32,59.88741167,606c6e9f7e86c0264ab3d7d8,64c7fed44a04f777bb1e18ce,64c803ab12bd89c3cdb9aa8b,right,-1,0.75,0.05,7,0.010333101,1.361,47,0,47,0,1,,,,,,,,,,
,,135911,001,2023-07-31_20h57.41.731,arm3_eps,2022.2.5,Win32,59.88741167,606c6e9f7e86c0264ab3d7d8,64c7fed44a04f777bb1e18ce,64c803ab12bd89c3cdb9aa8b,right,-1,0.75,0.05,7,-0.008495008,0.6058,48,0,48,0,1,,,,,,,,,,
,,135911,001,2023-07-31_20h57.41.731,arm3_eps,2022.2.5,Win32,59.88741167,606c6e9f7e86c0264ab3d7d8,64c7fed44a04f777bb1e18ce,64c803ab12bd89c3cdb9aa8b,down,-1,0.75,0.05,7,-0.008495008,3.3895,49,0,49,0,1,,,,,,,,,,
space,8.7843,135911,001,2023-07-31_20h57.41.731,arm3_eps,2022.2.5,Win32,59.88741167,606c6e9f7e86c0264ab3d7d8,64c7fed44a04f777bb1e18ce,64c803ab12bd89c3cdb9aa8b,,,,,,,,,,,,,,,,,,,,,,
space,0.9577,135911,001,2023-07-31_20h57.41.731,arm3_eps,2022.2.5,Win32,59.88741167,606c6e9f7e86c0264ab3d7d8,64c7fed44a04f777bb1e18ce,64c803ab12bd89c3cdb9aa8b,,,,,,,,,,,,,,,,,,,,,,
,,135911,001,2023-07-31_20h57.41.731,arm3_eps,2022.2.5,Win32,59.88741167,606c6e9f7e86c0264ab3d7d8,64c7fed44a04f777bb1e18ce,64c803ab12bd89c3cdb9aa8b,right,-1,0.75,0.5,0,-0.006235348,2.1887,0,0,0,0,1,,,,,,,,,,
,,135911,001,2023-07-31_20h57.41.731,arm3_eps,2022.2.5,Win32,59.88741167,606c6e9f7e86c0264ab3d7d8,64c7fed44a04f777bb1e18ce,64c803ab12bd89c3cdb9aa8b,right,-1,0.75,0.5,0,-0.008133086,1.7485,1,0,1,0,1,,,,,,,,,,
,,135911,001,2023-07-31_20h57.41.731,arm3_eps,2022.2.5,Win32,59.88741167,606c6e9f7e86c0264ab3d7d8,64c7fed44a04f777bb1e18ce,64c803ab12bd89c3cdb9aa8b,right,-1,0.75,0.5,0,-0.022745728,0.5025,2,0,2,0,1,,,,,,,,,,
,,135911,001,2023-07-31_20h57.41.731,arm3_eps,2022.2.5,Win32,59.88741167,606c6e9f7e86c0264ab3d7d8,64c7fed44a04f777bb1e18ce,64c803ab12bd89c3cdb9aa8b,down,-1,0.75,0.5,0,0,0.9695,3,0,3,0,1,,,,,,,,,,
,,135911,001,2023-07-31_20h57.41.731,arm3_eps,2022.2.5,Win32,59.88741167,606c6e9f7e86c0264ab3d7d8,64c7fed44a04f777bb1e18ce,64c803ab12bd89c3cdb9aa8b,right,-1,0.75,0.5,0,-0.016394362,1.1018,4,0,4,0,1,,,,,,,,,,
,,135911,001,2023-07-31_20h57.41.731,arm3_eps,2022.2.5,Win32,59.88741167,606c6e9f7e86c0264ab3d7d8,64c7fed44a04f777bb1e18ce,64c803ab12bd89c3cdb9aa8b,right,-1,0.75,0.5,0,-0.012874093,1.1342,5,0,5,0,1,,,,,,,,,,
,,135911,001,2023-07-31_20h57.41.731,arm3_eps,2022.2.5,Win32,59.88741167,606c6e9f7e86c0264ab3d7d8,64c7fed44a04f777bb1e18ce,64c803ab12bd89c3cdb9aa8b,down,-1,0.75,0.5,1,0,1.208,6,0,6,0,1,,,,,,,,,,
,,135911,001,2023-07-31_20h57.41.731,arm3_eps,2022.2.5,Win32,59.88741167,606c6e9f7e86c0264ab3d7d8,64c7fed44a04f777bb1e18ce,64c803ab12bd89c3cdb9aa8b,right,-1,0.75,0.5,1,-0.027937252,1.8778,7,0,7,0,1,,,,,,,,,,
,,135911,001,2023-07-31_20h57.41.731,arm3_eps,2022.2.5,Win32,59.88741167,606c6e9f7e86c0264ab3d7d8,64c7fed44a04f777bb1e18ce,64c803ab12bd89c3cdb9aa8b,right,-1,0.75,0.5,1,-0.021826487,0.6437,8,0,8,0,1,,,,,,,,,,
,,135911,001,2023-07-31_20h57.41.731,arm3_eps,2022.2.5,Win32,59.88741167,606c6e9f7e86c0264ab3d7d8,64c7fed44a04f777bb1e18ce,64c803ab12bd89c3cdb9aa8b,right,-1,0.75,0.5,1,0.005246209,0.489,9,0,9,0,1,,,,,,,,,,
,,135911,001,2023-07-31_20h57.41.731,arm3_eps,2022.2.5,Win32,59.88741167,606c6e9f7e86c0264ab3d7d8,64c7fed44a04f777bb1e18ce,64c803ab12bd89c3cdb9aa8b,right,-1,0.75,0.5,1,-0.00477778,0.6326,10,0,10,0,1,,,,,,,,,,
,,135911,001,2023-07-31_20h57.41.731,arm3_eps,2022.2.5,Win32,59.88741167,606c6e9f7e86c0264ab3d7d8,64c7fed44a04f777bb1e18ce,64c803ab12bd89c3cdb9aa8b,up,1,0.75,0.5,0,0,0.9818,11,0,11,0,1,,,,,,,,,,
,,135911,001,2023-07-31_20h57.41.731,arm3_eps,2022.2.5,Win32,59.88741167,606c6e9f7e86c0264ab3d7d8,64c7fed44a04f777bb1e18ce,64c803ab12bd89c3cdb9aa8b,right,1,0.75,0.5,0,0.011384978,1.7676,12,0,12,0,1,,,,,,,,,,
,,135911,001,2023-07-31_20h57.41.731,arm3_eps,2022.2.5,Win32,59.88741167,606c6e9f7e86c0264ab3d7d8,64c7fed44a04f777bb1e18ce,64c803ab12bd89c3cdb9aa8b,up,1,0.75,0.5,1,0,0.9084,13,0,13,0,1,,,,,,,,,,
,,135911,001,2023-07-31_20h57.41.731,arm3_eps,2022.2.5,Win32,59.88741167,606c6e9f7e86c0264ab3d7d8,64c7fed44a04f777bb1e18ce,64c803ab12bd89c3cdb9aa8b,right,1,0.75,0.5,1,0.005868674,1.0516,14,0,14,0,1,,,,,,,,,,
,,135911,001,2023-07-31_20h57.41.731,arm3_eps,2022.2.5,Win32,59.88741167,606c6e9f7e86c0264ab3d7d8,64c7fed44a04f777bb1e18ce,64c803ab12bd89c3cdb9aa8b,right,1,0.75,0.5,1,0.004995846,0.8288,15,0,15,0,1,,,,,,,,,,
,,135911,001,2023-07-31_20h57.41.731,arm3_eps,2022.2.5,Win32,59.88741167,606c6e9f7e86c0264ab3d7d8,64c7fed44a04f777bb1e18ce,64c803ab12bd89c3cdb9aa8b,right,1,0.75,0.5,1,-0.004548136,1.7647,16,0,16,0,1,,,,,,,,,,
,,135911,001,2023-07-31_20h57.41.731,arm3_eps,2022.2.5,Win32,59.88741167,606c6e9f7e86c0264ab3d7d8,64c7fed44a04f777bb1e18ce,64c803ab12bd89c3cdb9aa8b,right,1,0.75,0.5,1,-0.003015336,1.3879,17,0,17,0,1,,,,,,,,,,
,,135911,001,2023-07-31_20h57.41.731,arm3_eps,2022.2.5,Win32,59.88741167,606c6e9f7e86c0264ab3d7d8,64c7fed44a04f777bb1e18ce,64c803ab12bd89c3cdb9aa8b,down,1,0.75,0.5,0,0,1.0672,18,0,18,0,1,,,,,,,,,,
,,135911,001,2023-07-31_20h57.41.731,arm3_eps,2022.2.5,Win32,59.88741167,606c6e9f7e86c0264ab3d7d8,64c7fed44a04f777bb1e18ce,64c803ab12bd89c3cdb9aa8b,right,1,0.75,0.5,0,-0.002778239,1.0457,19,0,19,0,1,,,,,,,,,,
,,135911,001,2023-07-31_20h57.41.731,arm3_eps,2022.2.5,Win32,59.88741167,606c6e9f7e86c0264ab3d7d8,64c7fed44a04f777bb1e18ce,64c803ab12bd89c3cdb9aa8b,right,1,0.75,0.5,0,0.01295161,0.1734,20,0,20,0,1,,,,,,,,,,
,,135911,001,2023-07-31_20h57.41.731,arm3_eps,2022.2.5,Win32,59.88741167,606c6e9f7e86c0264ab3d7d8,64c7fed44a04f777bb1e18ce,64c803ab12bd89c3cdb9aa8b,right,1,0.75,0.5,0,-0.007824896,0.7505,21,0,21,0,1,,,,,,,,,,
,,135911,001,2023-07-31_20h57.41.731,arm3_eps,2022.2.5,Win32,59.88741167,606c6e9f7e86c0264ab3d7d8,64c7fed44a04f777bb1e18ce,64c803ab12bd89c3cdb9aa8b,right,1,0.75,0.5,0,0.023385081,1.2079,22,0,22,0,1,,,,,,,,,,
,,135911,001,2023-07-31_20h57.41.731,arm3_eps,2022.2.5,Win32,59.88741167,606c6e9f7e86c0264ab3d7d8,64c7fed44a04f777bb1e18ce,64c803ab12bd89c3cdb9aa8b,up,1,0.75,0.5,1,0,0.5509,23,0,23,0,1,,,,,,,,,,
,,135911,001,2023-07-31_20h57.41.731,arm3_eps,2022.2.5,Win32,59.88741167,606c6e9f7e86c0264ab3d7d8,64c7fed44a04f777bb1e18ce,64c803ab12bd89c3cdb9aa8b,right,1,0.75,0.5,1,0.017017365,0.8852,24,0,24,0,1,,,,,,,,,,
,,135911,001,2023-07-31_20h57.41.731,arm3_eps,2022.2.5,Win32,59.88741167,606c6e9f7e86c0264ab3d7d8,64c7fed44a04f777bb1e18ce,64c803ab12bd89c3cdb9aa8b,right,1,0.75,0.5,1,0.001545318,1.0678,25,0,25,0,1,,,,,,,,,,
,,135911,001,2023-07-31_20h57.41.731,arm3_eps,2022.2.5,Win32,59.88741167,606c6e9f7e86c0264ab3d7d8,64c7fed44a04f777bb1e18ce,64c803ab12bd89c3cdb9aa8b,right,1,0.75,0.5,1,0.029635825,0.5849,26,0,26,0,1,,,,,,,,,,
,,135911,001,2023-07-31_20h57.41.731,arm3_eps,2022.2.5,Win32,59.88741167,606c6e9f7e86c0264ab3d7d8,64c7fed44a04f777bb1e18ce,64c803ab12bd89c3cdb9aa8b,up,-1,0.75,0.5,1,0,0.7451,27,0,27,0,1,,,,,,,,,,
,,135911,001,2023-07-31_20h57.41.731,arm3_eps,2022.2.5,Win32,59.88741167,606c6e9f7e86c0264ab3d7d8,64c7fed44a04f777bb1e18ce,64c803ab12bd89c3cdb9aa8b,right,-1,0.75,0.5,1,-0.023275429,1.5752,28,0,28,0,1,,,,,,,,,,
,,135911,001,2023-07-31_20h57.41.731,arm3_eps,2022.2.5,Win32,59.88741167,606c6e9f7e86c0264ab3d7d8,64c7fed44a04f777bb1e18ce,64c803ab12bd89c3cdb9aa8b,right,-1,0.75,0.5,1,-0.032486217,0.4604,29,0,29,0,1,,,,,,,,,,
,,135911,001,2023-07-31_20h57.41.731,arm3_eps,2022.2.5,Win32,59.88741167,606c6e9f7e86c0264ab3d7d8,64c7fed44a04f777bb1e18ce,64c803ab12bd89c3cdb9aa8b,right,-1,0.75,0.5,1,-0.017255728,0.6093,30,0,30,0,1,,,,,,,,,,
,,135911,001,2023-07-31_20h57.41.731,arm3_eps,2022.2.5,Win32,59.88741167,606c6e9f7e86c0264ab3d7d8,64c7fed44a04f777bb1e18ce,64c803ab12bd89c3cdb9aa8b,down,1,0.75,0.5,2,0,1.136,31,0,31,0,1,,,,,,,,,,
,,135911,001,2023-07-31_20h57.41.731,arm3_eps,2022.2.5,Win32,59.88741167,606c6e9f7e86c0264ab3d7d8,64c7fed44a04f777bb1e18ce,64c803ab12bd89c3cdb9aa8b,right,1,0.75,0.5,2,-0.008550147,1.4069,32,0,32,0,1,,,,,,,,,,
,,135911,001,2023-07-31_20h57.41.731,arm3_eps,2022.2.5,Win32,59.88741167,606c6e9f7e86c0264ab3d7d8,64c7fed44a04f777bb1e18ce,64c803ab12bd89c3cdb9aa8b,right,1,0.75,0.5,2,-0.012576122,0.7946,33,0,33,0,1,,,,,,,,,,
,,135911,001,2023-07-31_20h57.41.731,arm3_eps,2022.2.5,Win32,59.88741167,606c6e9f7e86c0264ab3d7d8,64c7fed44a04f777bb1e18ce,64c803ab12bd89c3cdb9aa8b,right,1,0.75,0.5,2,-0.025604655,0.5375,34,0,34,0,1,,,,,,,,,,
,,135911,001,2023-07-31_20h57.41.731,arm3_eps,2022.2.5,Win32,59.88741167,606c6e9f7e86c0264ab3d7d8,64c7fed44a04f777bb1e18ce,64c803ab12bd89c3cdb9aa8b,right,1,0.75,0.5,2,-0.011068945,0.6026,35,0,35,0,1,,,,,,,,,,
,,135911,001,2023-07-31_20h57.41.731,arm3_eps,2022.2.5,Win32,59.88741167,606c6e9f7e86c0264ab3d7d8,64c7fed44a04f777bb1e18ce,64c803ab12bd89c3cdb9aa8b,right,1,0.75,0.5,2,0.010067631,0.7071,36,0,36,0,1,,,,,,,,,,
,,135911,001,2023-07-31_20h57.41.731,arm3_eps,2022.2.5,Win32,59.88741167,606c6e9f7e86c0264ab3d7d8,64c7fed44a04f777bb1e18ce,64c803ab12bd89c3cdb9aa8b,right,1,0.75,0.5,2,0.03213728,0.5261,37,0,37,0,1,,,,,,,,,,
,,135911,001,2023-07-31_20h57.41.731,arm3_eps,2022.2.5,Win32,59.88741167,606c6e9f7e86c0264ab3d7d8,64c7fed44a04f777bb1e18ce,64c803ab12bd89c3cdb9aa8b,right,1,0.75,0.5,2,0.02120255,0.7528,38,0,38,0,1,,,,,,,,,,
,,135911,001,2023-07-31_20h57.41.731,arm3_eps,2022.2.5,Win32,59.88741167,606c6e9f7e86c0264ab3d7d8,64c7fed44a04f777bb1e18ce,64c803ab12bd89c3cdb9aa8b,up,-1,0.75,0.5,3,0,0.8105,39,0,39,0,1,,,,,,,,,,
,,135911,001,2023-07-31_20h57.41.731,arm3_eps,2022.2.5,Win32,59.88741167,606c6e9f7e86c0264ab3d7d8,64c7fed44a04f777bb1e18ce,64c803ab12bd89c3cdb9aa8b,right,-1,0.75,0.5,3,-0.019891449,1.5341,40,0,40,0,1,,,,,,,,,,
,,135911,001,2023-07-31_20h57.41.731,arm3_eps,2022.2.5,Win32,59.88741167,606c6e9f7e86c0264ab3d7d8,64c7fed44a04f777bb1e18ce,64c803ab12bd89c3cdb9aa8b,right,-1,0.75,0.5,3,-0.035801492,0.732,41,0,41,0,1,,,,,,,,,,
,,135911,001,2023-07-31_20h57.41.731,arm3_eps,2022.2.5,Win32,59.88741167,606c6e9f7e86c0264ab3d7d8,64c7fed44a04f777bb1e18ce,64c803ab12bd89c3cdb9aa8b,down,1,0.75,0.5,4,0,1.2205,42,0,42,0,1,,,,,,,,,,
,,135911,001,2023-07-31_20h57.41.731,arm3_eps,2022.2.5,Win32,59.88741167,606c6e9f7e86c0264ab3d7d8,64c7fed44a04f777bb1e18ce,64c803ab12bd89c3cdb9aa8b,right,1,0.75,0.5,4,0.01055563,0.9683,43,0,43,0,1,,,,,,,,,,
,,135911,001,2023-07-31_20h57.41.731,arm3_eps,2022.2.5,Win32,59.88741167,606c6e9f7e86c0264ab3d7d8,64c7fed44a04f777bb1e18ce,64c803ab12bd89c3cdb9aa8b,right,1,0.75,0.5,4,-0.019561382,0.6285,44,0,44,0,1,,,,,,,,,,
,,135911,001,2023-07-31_20h57.41.731,arm3_eps,2022.2.5,Win32,59.88741167,606c6e9f7e86c0264ab3d7d8,64c7fed44a04f777bb1e18ce,64c803ab12bd89c3cdb9aa8b,right,1,0.75,0.5,4,-0.020720278,1.1555,45,0,45,0,1,,,,,,,,,,
,,135911,001,2023-07-31_20h57.41.731,arm3_eps,2022.2.5,Win32,59.88741167,606c6e9f7e86c0264ab3d7d8,64c7fed44a04f777bb1e18ce,64c803ab12bd89c3cdb9aa8b,right,1,0.75,0.5,4,-0.009294799,0.5319,46,0,46,0,1,,,,,,,,,,
,,135911,001,2023-07-31_20h57.41.731,arm3_eps,2022.2.5,Win32,59.88741167,606c6e9f7e86c0264ab3d7d8,64c7fed44a04f777bb1e18ce,64c803ab12bd89c3cdb9aa8b,right,1,0.75,0.5,4,0.015227878,0.4387,47,0,47,0,1,,,,,,,,,,
,,135911,001,2023-07-31_20h57.41.731,arm3_eps,2022.2.5,Win32,59.88741167,606c6e9f7e86c0264ab3d7d8,64c7fed44a04f777bb1e18ce,64c803ab12bd89c3cdb9aa8b,right,1,0.75,0.5,4,0.014318239,0.8046,48,0,48,0,1,,,,,,,,,,
,,135911,001,2023-07-31_20h57.41.731,arm3_eps,2022.2.5,Win32,59.88741167,606c6e9f7e86c0264ab3d7d8,64c7fed44a04f777bb1e18ce,64c803ab12bd89c3cdb9aa8b,up,1,0.75,0.5,4,0.014318239,0.7958,49,0,49,0,1,,,,,,,,,,
space,2.2005,135911,001,2023-07-31_20h57.41.731,arm3_eps,2022.2.5,Win32,59.88741167,606c6e9f7e86c0264ab3d7d8,64c7fed44a04f777bb1e18ce,64c803ab12bd89c3cdb9aa8b,,,,,,,,,,,,,,,,,,,,,,
space,5.4924,135911,001,2023-07-31_20h57.41.731,arm3_eps,2022.2.5,Win32,59.88741167,606c6e9f7e86c0264ab3d7d8,64c7fed44a04f777bb1e18ce,64c803ab12bd89c3cdb9aa8b,right,1,0.75,0.3714,0,0.005346527,1.5998,,,,,,0,0,0,0,1,,,,,
,,135911,001,2023-07-31_20h57.41.731,arm3_eps,2022.2.5,Win32,59.88741167,606c6e9f7e86c0264ab3d7d8,64c7fed44a04f777bb1e18ce,64c803ab12bd89c3cdb9aa8b,right,1,0.75,0.3714,0,0.031916669,0.7236,,,,,,1,0,1,0,1,,,,,
,,135911,001,2023-07-31_20h57.41.731,arm3_eps,2022.2.5,Win32,59.88741167,606c6e9f7e86c0264ab3d7d8,64c7fed44a04f777bb1e18ce,64c803ab12bd89c3cdb9aa8b,right,1,0.75,0.3714,0,0.040153156,0.6084,,,,,,2,0,2,0,1,,,,,
,,135911,001,2023-07-31_20h57.41.731,arm3_eps,2022.2.5,Win32,59.88741167,606c6e9f7e86c0264ab3d7d8,64c7fed44a04f777bb1e18ce,64c803ab12bd89c3cdb9aa8b,right,1,0.75,0.3714,0,0.049322923,1.1347,,,,,,3,0,3,0,1,,,,,
,,135911,001,2023-07-31_20h57.41.731,arm3_eps,2022.2.5,Win32,59.88741167,606c6e9f7e86c0264ab3d7d8,64c7fed44a04f777bb1e18ce,64c803ab12bd89c3cdb9aa8b,right,1,0.75,0.3714,0,0.06840057,0.6652,,,,,,4,0,4,0,1,,,,,
,,135911,001,2023-07-31_20h57.41.731,arm3_eps,2022.2.5,Win32,59.88741167,606c6e9f7e86c0264ab3d7d8,64c7fed44a04f777bb1e18ce,64c803ab12bd89c3cdb9aa8b,up,1,0.75,0.3714,1,0,1.6152,,,,,,5,0,5,0,1,,,,,
,,135911,001,2023-07-31_20h57.41.731,arm3_eps,2022.2.5,Win32,59.88741167,606c6e9f7e86c0264ab3d7d8,64c7fed44a04f777bb1e18ce,64c803ab12bd89c3cdb9aa8b,right,1,0.75,0.3714,1,0.021515669,1.4152,,,,,,6,0,6,0,1,,,,,
,,135911,001,2023-07-31_20h57.41.731,arm3_eps,2022.2.5,Win32,59.88741167,606c6e9f7e86c0264ab3d7d8,64c7fed44a04f777bb1e18ce,64c803ab12bd89c3cdb9aa8b,up,1,0.75,0.3714,2,0,1.4989,,,,,,7,0,7,0,1,,,,,
,,135911,001,2023-07-31_20h57.41.731,arm3_eps,2022.2.5,Win32,59.88741167,606c6e9f7e86c0264ab3d7d8,64c7fed44a04f777bb1e18ce,64c803ab12bd89c3cdb9aa8b,right,1,0.75,0.3714,2,0.003390674,0.9942,,,,,,8,0,8,0,1,,,,,
,,135911,001,2023-07-31_20h57.41.731,arm3_eps,2022.2.5,Win32,59.88741167,606c6e9f7e86c0264ab3d7d8,64c7fed44a04f777bb1e18ce,64c803ab12bd89c3cdb9aa8b,right,1,0.75,0.3714,2,0.02222251,0.3988,,,,,,9,0,9,0,1,,,,,
,,135911,001,2023-07-31_20h57.41.731,arm3_eps,2022.2.5,Win32,59.88741167,606c6e9f7e86c0264ab3d7d8,64c7fed44a04f777bb1e18ce,64c803ab12bd89c3cdb9aa8b,up,-1,0.75,0.3714,3,0,0.7246,,,,,,10,0,10,0,1,,,,,
,,135911,001,2023-07-31_20h57.41.731,arm3_eps,2022.2.5,Win32,59.88741167,606c6e9f7e86c0264ab3d7d8,64c7fed44a04f777bb1e18ce,64c803ab12bd89c3cdb9aa8b,right,-1,0.75,0.3714,3,-0.012152384,1.0278,,,,,,11,0,11,0,1,,,,,
,,135911,001,2023-07-31_20h57.41.731,arm3_eps,2022.2.5,Win32,59.88741167,606c6e9f7e86c0264ab3d7d8,64c7fed44a04f777bb1e18ce,64c803ab12bd89c3cdb9aa8b,right,-1,0.75,0.3714,3,-0.0380645,0.437,,,,,,12,0,12,0,1,,,,,
,,135911,001,2023-07-31_20h57.41.731,arm3_eps,2022.2.5,Win32,59.88741167,606c6e9f7e86c0264ab3d7d8,64c7fed44a04f777bb1e18ce,64c803ab12bd89c3cdb9aa8b,down,-1,0.75,0.3714,4,0,0.7875,,,,,,13,0,13,0,1,,,,,
,,135911,001,2023-07-31_20h57.41.731,arm3_eps,2022.2.5,Win32,59.88741167,606c6e9f7e86c0264ab3d7d8,64c7fed44a04f777bb1e18ce,64c803ab12bd89c3cdb9aa8b,right,-1,0.75,0.3714,4,-0.016852351,0.9685,,,,,,14,0,14,0,1,,,,,
,,135911,001,2023-07-31_20h57.41.731,arm3_eps,2022.2.5,Win32,59.88741167,606c6e9f7e86c0264ab3d7d8,64c7fed44a04f777bb1e18ce,64c803ab12bd89c3cdb9aa8b,right,-1,0.75,0.3714,4,-0.01935647,0.572,,,,,,15,0,15,0,1,,,,,
,,135911,001,2023-07-31_20h57.41.731,arm3_eps,2022.2.5,Win32,59.88741167,606c6e9f7e86c0264ab3d7d8,64c7fed44a04f777bb1e18ce,64c803ab12bd89c3cdb9aa8b,right,-1,0.75,0.3714,4,-0.029334603,1.7984,,,,,,16,0,16,0,1,,,,,
,,135911,001,2023-07-31_20h57.41.731,arm3_eps,2022.2.5,Win32,59.88741167,606c6e9f7e86c0264ab3d7d8,64c7fed44a04f777bb1e18ce,64c803ab12bd89c3cdb9aa8b,down,-1,0.75,0.3714,5,0,0.836,,,,,,17,0,17,0,1,,,,,
,,135911,001,2023-07-31_20h57.41.731,arm3_eps,2022.2.5,Win32,59.88741167,606c6e9f7e86c0264ab3d7d8,64c7fed44a04f777bb1e18ce,64c803ab12bd89c3cdb9aa8b,right,-1,0.75,0.3714,5,-0.0435605,1.3743,,,,,,18,0,18,0,1,,,,,
,,135911,001,2023-07-31_20h57.41.731,arm3_eps,2022.2.5,Win32,59.88741167,606c6e9f7e86c0264ab3d7d8,64c7fed44a04f777bb1e18ce,64c803ab12bd89c3cdb9aa8b,down,-1,0.75,0.3714,6,0,1.1713,,,,,,19,0,19,0,1,,,,,
,,135911,001,2023-07-31_20h57.41.731,arm3_eps,2022.2.5,Win32,59.88741167,606c6e9f7e86c0264ab3d7d8,64c7fed44a04f777bb1e18ce,64c803ab12bd89c3cdb9aa8b,right,-1,0.75,0.3714,6,0.004566892,1.0069,,,,,,20,0,20,0,1,,,,,
,,135911,001,2023-07-31_20h57.41.731,arm3_eps,2022.2.5,Win32,59.88741167,606c6e9f7e86c0264ab3d7d8,64c7fed44a04f777bb1e18ce,64c803ab12bd89c3cdb9aa8b,right,-1,0.75,0.3714,6,-0.017424013,0.5795,,,,,,21,0,21,0,1,,,,,
,,135911,001,2023-07-31_20h57.41.731,arm3_eps,2022.2.5,Win32,59.88741167,606c6e9f7e86c0264ab3d7d8,64c7fed44a04f777bb1e18ce,64c803ab12bd89c3cdb9aa8b,down,1,0.75,0.3714,7,0,0.8916,,,,,,22,0,22,0,1,,,,,
,,135911,001,2023-07-31_20h57.41.731,arm3_eps,2022.2.5,Win32,59.88741167,606c6e9f7e86c0264ab3d7d8,64c7fed44a04f777bb1e18ce,64c803ab12bd89c3cdb9aa8b,right,1,0.75,0.3714,7,0.051325539,1.2913,,,,,,23,0,23,0,1,,,,,
,,135911,001,2023-07-31_20h57.41.731,arm3_eps,2022.2.5,Win32,59.88741167,606c6e9f7e86c0264ab3d7d8,64c7fed44a04f777bb1e18ce,64c803ab12bd89c3cdb9aa8b,up,1,0.75,0.3714,8,0,0.8599,,,,,,24,0,24,0,1,,,,,
,,135911,001,2023-07-31_20h57.41.731,arm3_eps,2022.2.5,Win32,59.88741167,606c6e9f7e86c0264ab3d7d8,64c7fed44a04f777bb1e18ce,64c803ab12bd89c3cdb9aa8b,right,1,0.75,0.3714,8,-0.00948555,1.2279,,,,,,25,0,25,0,1,,,,,
,,135911,001,2023-07-31_20h57.41.731,arm3_eps,2022.2.5,Win32,59.88741167,606c6e9f7e86c0264ab3d7d8,64c7fed44a04f777bb1e18ce,64c803ab12bd89c3cdb9aa8b,right,1,0.75,0.3714,8,-0.004274404,2.016,,,,,,26,0,26,0,1,,,,,
,,135911,001,2023-07-31_20h57.41.731,arm3_eps,2022.2.5,Win32,59.88741167,606c6e9f7e86c0264ab3d7d8,64c7fed44a04f777bb1e18ce,64c803ab12bd89c3cdb9aa8b,right,1,0.75,0.3714,8,-0.011597848,0.9006,,,,,,27,0,27,0,1,,,,,
,,135911,001,2023-07-31_20h57.41.731,arm3_eps,2022.2.5,Win32,59.88741167,606c6e9f7e86c0264ab3d7d8,64c7fed44a04f777bb1e18ce,64c803ab12bd89c3cdb9aa8b,right,1,0.75,0.3714,8,-0.000697108,0.4641,,,,,,28,0,28,0,1,,,,,
,,135911,001,2023-07-31_20h57.41.731,arm3_eps,2022.2.5,Win32,59.88741167,606c6e9f7e86c0264ab3d7d8,64c7fed44a04f777bb1e18ce,64c803ab12bd89c3cdb9aa8b,right,1,0.75,0.3714,8,0.013613581,0.4205,,,,,,29,0,29,0,1,,,,,
,,135911,001,2023-07-31_20h57.41.731,arm3_eps,2022.2.5,Win32,59.88741167,606c6e9f7e86c0264ab3d7d8,64c7fed44a04f777bb1e18ce,64c803ab12bd89c3cdb9aa8b,up,1,0.75,0.3714,9,0,1.0924,,,,,,30,0,30,0,1,,,,,
,,135911,001,2023-07-31_20h57.41.731,arm3_eps,2022.2.5,Win32,59.88741167,606c6e9f7e86c0264ab3d7d8,64c7fed44a04f777bb1e18ce,64c803ab12bd89c3cdb9aa8b,right,1,0.75,0.3714,9,0.02382095,0.868,,,,,,31,0,31,0,1,,,,,
,,135911,001,2023-07-31_20h57.41.731,arm3_eps,2022.2.5,Win32,59.88741167,606c6e9f7e86c0264ab3d7d8,64c7fed44a04f777bb1e18ce,64c803ab12bd89c3cdb9aa8b,right,1,0.75,0.3714,9,0.029673364,0.6521,,,,,,32,0,32,0,1,,,,,
,,135911,001,2023-07-31_20h57.41.731,arm3_eps,2022.2.5,Win32,59.88741167,606c6e9f7e86c0264ab3d7d8,64c7fed44a04f777bb1e18ce,64c803ab12bd89c3cdb9aa8b,up,1,0.75,0.3714,9,0,0.4652,,,,,,33,0,33,0,1,,,,,
,,135911,001,2023-07-31_20h57.41.731,arm3_eps,2022.2.5,Win32,59.88741167,606c6e9f7e86c0264ab3d7d8,64c7fed44a04f777bb1e18ce,64c803ab12bd89c3cdb9aa8b,right,1,0.75,0.3714,9,-0.016849563,1.2178,,,,,,34,0,34,0,1,,,,,
,,135911,001,2023-07-31_20h57.41.731,arm3_eps,2022.2.5,Win32,59.88741167,606c6e9f7e86c0264ab3d7d8,64c7fed44a04f777bb1e18ce,64c803ab12bd89c3cdb9aa8b,right,1,0.75,0.3714,9,-0.024020843,0.5251,,,,,,35,0,35,0,1,,,,,
,,135911,001,2023-07-31_20h57.41.731,arm3_eps,2022.2.5,Win32,59.88741167,606c6e9f7e86c0264ab3d7d8,64c7fed44a04f777bb1e18ce,64c803ab12bd89c3cdb9aa8b,right,1,0.75,0.3714,9,-0.017393156,0.7756,,,,,,36,0,36,0,1,,,,,
,,135911,001,2023-07-31_20h57.41.731,arm3_eps,2022.2.5,Win32,59.88741167,606c6e9f7e86c0264ab3d7d8,64c7fed44a04f777bb1e18ce,64c803ab12bd89c3cdb9aa8b,down,1,0.75,0.3714,8,0,0.9155,,,,,,37,0,37,0,1,,,,,
,,135911,001,2023-07-31_20h57.41.731,arm3_eps,2022.2.5,Win32,59.88741167,606c6e9f7e86c0264ab3d7d8,64c7fed44a04f777bb1e18ce,64c803ab12bd89c3cdb9aa8b,right,1,0.75,0.3714,8,-0.050070508,1.0792,,,,,,38,0,38,0,1,,,,,
,,135911,001,2023-07-31_20h57.41.731,arm3_eps,2022.2.5,Win32,59.88741167,606c6e9f7e86c0264ab3d7d8,64c7fed44a04f777bb1e18ce,64c803ab12bd89c3cdb9aa8b,right,1,0.75,0.3714,8,-0.036021436,0.7025,,,,,,39,0,39,0,1,,,,,
,,135911,001,2023-07-31_20h57.41.731,arm3_eps,2022.2.5,Win32,59.88741167,606c6e9f7e86c0264ab3d7d8,64c7fed44a04f777bb1e18ce,64c803ab12bd89c3cdb9aa8b,right,1,0.75,0.3714,8,-0.02598707,0.4815,,,,,,40,0,40,0,1,,,,,
,,135911,001,2023-07-31_20h57.41.731,arm3_eps,2022.2.5,Win32,59.88741167,606c6e9f7e86c0264ab3d7d8,64c7fed44a04f777bb1e18ce,64c803ab12bd89c3cdb9aa8b,right,1,0.75,0.3714,8,-0.029079665,0.9417,,,,,,41,0,41,0,1,,,,,
,,135911,001,2023-07-31_20h57.41.731,arm3_eps,2022.2.5,Win32,59.88741167,606c6e9f7e86c0264ab3d7d8,64c7fed44a04f777bb1e18ce,64c803ab12bd89c3cdb9aa8b,right,1,0.75,0.3714,8,-0.028988061,1.0565,,,,,,42,0,42,0,1,,,,,
,,135911,001,2023-07-31_20h57.41.731,arm3_eps,2022.2.5,Win32,59.88741167,606c6e9f7e86c0264ab3d7d8,64c7fed44a04f777bb1e18ce,64c803ab12bd89c3cdb9aa8b,down,1,0.75,0.3714,8,0,1.0528,,,,,,43,0,43,0,1,,,,,
,,135911,001,2023-07-31_20h57.41.731,arm3_eps,2022.2.5,Win32,59.88741167,606c6e9f7e86c0264ab3d7d8,64c7fed44a04f777bb1e18ce,64c803ab12bd89c3cdb9aa8b,right,1,0.75,0.3714,8,0.003237086,1.1032,,,,,,44,0,44,0,1,,,,,
,,135911,001,2023-07-31_20h57.41.731,arm3_eps,2022.2.5,Win32,59.88741167,606c6e9f7e86c0264ab3d7d8,64c7fed44a04f777bb1e18ce,64c803ab12bd89c3cdb9aa8b,right,1,0.75,0.3714,8,0.030216246,1.038,,,,,,45,0,45,0,1,,,,,
,,135911,001,2023-07-31_20h57.41.731,arm3_eps,2022.2.5,Win32,59.88741167,606c6e9f7e86c0264ab3d7d8,64c7fed44a04f777bb1e18ce,64c803ab12bd89c3cdb9aa8b,up,-1,0.75,0.3714,9,0,0.4681,,,,,,46,0,46,0,1,,,,,
,,135911,001,2023-07-31_20h57.41.731,arm3_eps,2022.2.5,Win32,59.88741167,606c6e9f7e86c0264ab3d7d8,64c7fed44a04f777bb1e18ce,64c803ab12bd89c3cdb9aa8b,right,-1,0.75,0.3714,9,-0.044993128,2.4532,,,,,,47,0,47,0,1,,,,,
,,135911,001,2023-07-31_20h57.41.731,arm3_eps,2022.2.5,Win32,59.88741167,606c6e9f7e86c0264ab3d7d8,64c7fed44a04f777bb1e18ce,64c803ab12bd89c3cdb9aa8b,right,-1,0.75,0.3714,9,-0.041267964,0.6486,,,,,,48,0,48,0,1,,,,,
,,135911,001,2023-07-31_20h57.41.731,arm3_eps,2022.2.5,Win32,59.88741167,606c6e9f7e86c0264ab3d7d8,64c7fed44a04f777bb1e18ce,64c803ab12bd89c3cdb9aa8b,right,-1,0.75,0.3714,9,-0.049834417,0.6594,,,,,,49,0,49,0,1,,,,,
,,135911,001,2023-07-31_20h57.41.731,arm3_eps,2022.2.5,Win32,59.88741167,606c6e9f7e86c0264ab3d7d8,64c7fed44a04f777bb1e18ce,64c803ab12bd89c3cdb9aa8b,down,-1,0.75,0.3714,9,0,0.9151,,,,,,50,0,50,0,1,,,,,
,,135911,001,2023-07-31_20h57.41.731,arm3_eps,2022.2.5,Win32,59.88741167,606c6e9f7e86c0264ab3d7d8,64c7fed44a04f777bb1e18ce,64c803ab12bd89c3cdb9aa8b,right,-1,0.75,0.3714,9,-0.001140453,1.0631,,,,,,51,0,51,0,1,,,,,
,,135911,001,2023-07-31_20h57.41.731,arm3_eps,2022.2.5,Win32,59.88741167,606c6e9f7e86c0264ab3d7d8,64c7fed44a04f777bb1e18ce,64c803ab12bd89c3cdb9aa8b,right,-1,0.75,0.3714,9,0.000311481,0.864,,,,,,52,0,52,0,1,,,,,
,,135911,001,2023-07-31_20h57.41.731,arm3_eps,2022.2.5,Win32,59.88741167,606c6e9f7e86c0264ab3d7d8,64c7fed44a04f777bb1e18ce,64c803ab12bd89c3cdb9aa8b,right,-1,0.75,0.3714,9,-0.003168415,1.0996,,,,,,53,0,53,0,1,,,,,
,,135911,001,2023-07-31_20h57.41.731,arm3_eps,2022.2.5,Win32,59.88741167,606c6e9f7e86c0264ab3d7d8,64c7fed44a04f777bb1e18ce,64c803ab12bd89c3cdb9aa8b,right,-1,0.75,0.3714,9,-0.011457655,0.7832,,,,,,54,0,54,0,1,,,,,
,,135911,001,2023-07-31_20h57.41.731,arm3_eps,2022.2.5,Win32,59.88741167,606c6e9f7e86c0264ab3d7d8,64c7fed44a04f777bb1e18ce,64c803ab12bd89c3cdb9aa8b,right,-1,0.75,0.3714,9,-0.03347182,0.9509,,,,,,55,0,55,0,1,,,,,
,,135911,001,2023-07-31_20h57.41.731,arm3_eps,2022.2.5,Win32,59.88741167,606c6e9f7e86c0264ab3d7d8,64c7fed44a04f777bb1e18ce,64c803ab12bd89c3cdb9aa8b,down,-1,0.75,0.3714,9,0,0.4569,,,,,,56,0,56,0,1,,,,,
,,135911,001,2023-07-31_20h57.41.731,arm3_eps,2022.2.5,Win32,59.88741167,606c6e9f7e86c0264ab3d7d8,64c7fed44a04f777bb1e18ce,64c803ab12bd89c3cdb9aa8b,right,-1,0.75,0.3714,9,-0.020487612,1.0504,,,,,,57,0,57,0,1,,,,,
,,135911,001,2023-07-31_20h57.41.731,arm3_eps,2022.2.5,Win32,59.88741167,606c6e9f7e86c0264ab3d7d8,64c7fed44a04f777bb1e18ce,64c803ab12bd89c3cdb9aa8b,right,-1,0.75,0.3714,9,-0.040792305,0.4675,,,,,,58,0,58,0,1,,,,,
,,135911,001,2023-07-31_20h57.41.731,arm3_eps,2022.2.5,Win32,59.88741167,606c6e9f7e86c0264ab3d7d8,64c7fed44a04f777bb1e18ce,64c803ab12bd89c3cdb9aa8b,down,1,0.75,0.3714,10,0,0.7839,,,,,,59,0,59,0,1,,,,,
,,135911,001,2023-07-31_20h57.41.731,arm3_eps,2022.2.5,Win32,59.88741167,606c6e9f7e86c0264ab3d7d8,64c7fed44a04f777bb1e18ce,64c803ab12bd89c3cdb9aa8b,right,1,0.75,0.3714,10,0.003352017,1.0438,,,,,,60,0,60,0,1,,,,,
,,135911,001,2023-07-31_20h57.41.731,arm3_eps,2022.2.5,Win32,59.88741167,606c6e9f7e86c0264ab3d7d8,64c7fed44a04f777bb1e18ce,64c803ab12bd89c3cdb9aa8b,right,1,0.75,0.3714,10,0.021670936,0.4623,,,,,,61,0,61,0,1,,,,,
,,135911,001,2023-07-31_20h57.41.731,arm3_eps,2022.2.5,Win32,59.88741167,606c6e9f7e86c0264ab3d7d8,64c7fed44a04f777bb1e18ce,64c803ab12bd89c3cdb9aa8b,right,1,0.75,0.3714,10,0.028013759,0.5954,,,,,,62,0,62,0,1,,,,,
,,135911,001,2023-07-31_20h57.41.731,arm3_eps,2022.2.5,Win32,59.88741167,606c6e9f7e86c0264ab3d7d8,64c7fed44a04f777bb1e18ce,64c803ab12bd89c3cdb9aa8b,up,-1,0.75,0.3714,10,0,0.9549,,,,,,63,0,63,0,1,,,,,
,,135911,001,2023-07-31_20h57.41.731,arm3_eps,2022.2.5,Win32,59.88741167,606c6e9f7e86c0264ab3d7d8,64c7fed44a04f777bb1e18ce,64c803ab12bd89c3cdb9aa8b,right,-1,0.75,0.3714,10,-0.04198883,0.9045,,,,,,64,0,64,0,1,,,,,
,,135911,001,2023-07-31_20h57.41.731,arm3_eps,2022.2.5,Win32,59.88741167,606c6e9f7e86c0264ab3d7d8,64c7fed44a04f777bb1e18ce,64c803ab12bd89c3cdb9aa8b,right,-1,0.75,0.3714,10,-0.034268208,0.5918,,,,,,65,0,65,0,1,,,,,
,,135911,001,2023-07-31_20h57.41.731,arm3_eps,2022.2.5,Win32,59.88741167,606c6e9f7e86c0264ab3d7d8,64c7fed44a04f777bb1e18ce,64c803ab12bd89c3cdb9aa8b,down,-1,0.75,0.3714,11,0,1.0713,,,,,,66,0,66,0,1,,,,,
,,135911,001,2023-07-31_20h57.41.731,arm3_eps,2022.2.5,Win32,59.88741167,606c6e9f7e86c0264ab3d7d8,64c7fed44a04f777bb1e18ce,64c803ab12bd89c3cdb9aa8b,right,-1,0.75,0.3714,11,-0.014154308,1.0084,,,,,,67,0,67,0,1,,,,,
,,135911,001,2023-07-31_20h57.41.731,arm3_eps,2022.2.5,Win32,59.88741167,606c6e9f7e86c0264ab3d7d8,64c7fed44a04f777bb1e18ce,64c803ab12bd89c3cdb9aa8b,right,-1,0.75,0.3714,11,-0.000852732,0.4919,,,,,,68,0,68,0,1,,,,,
,,135911,001,2023-07-31_20h57.41.731,arm3_eps,2022.2.5,Win32,59.88741167,606c6e9f7e86c0264ab3d7d8,64c7fed44a04f777bb1e18ce,64c803ab12bd89c3cdb9aa8b,right,-1,0.75,0.3714,11,-0.025390158,0.5513,,,,,,69,0,69,0,1,,,,,
,,135911,001,2023-07-31_20h57.41.731,arm3_eps,2022.2.5,Win32,59.88741167,606c6e9f7e86c0264ab3d7d8,64c7fed44a04f777bb1e18ce,64c803ab12bd89c3cdb9aa8b,down,1,0.75,0.3714,11,0,0.8088,,,,,,70,0,70,0,1,,,,,
,,135911,001,2023-07-31_20h57.41.731,arm3_eps,2022.2.5,Win32,59.88741167,606c6e9f7e86c0264ab3d7d8,64c7fed44a04f777bb1e18ce,64c803ab12bd89c3cdb9aa8b,right,1,0.75,0.3714,11,0.008510995,1.0042,,,,,,71,0,71,0,1,,,,,
,,135911,001,2023-07-31_20h57.41.731,arm3_eps,2022.2.5,Win32,59.88741167,606c6e9f7e86c0264ab3d7d8,64c7fed44a04f777bb1e18ce,64c803ab12bd89c3cdb9aa8b,right,1,0.75,0.3714,11,-0.00762787,0.3917,,,,,,72,0,72,0,1,,,,,
,,135911,001,2023-07-31_20h57.41.731,arm3_eps,2022.2.5,Win32,59.88741167,606c6e9f7e86c0264ab3d7d8,64c7fed44a04f777bb1e18ce,64c803ab12bd89c3cdb9aa8b,right,1,0.75,0.3714,11,0.032437505,0.6554,,,,,,73,0,73,0,1,,,,,
,,135911,001,2023-07-31_20h57.41.731,arm3_eps,2022.2.5,Win32,59.88741167,606c6e9f7e86c0264ab3d7d8,64c7fed44a04f777bb1e18ce,64c803ab12bd89c3cdb9aa8b,up,1,0.75,0.3714,12,0,0.8042,,,,,,74,0,74,0,1,,,,,
,,135911,001,2023-07-31_20h57.41.731,arm3_eps,2022.2.5,Win32,59.88741167,606c6e9f7e86c0264ab3d7d8,64c7fed44a04f777bb1e18ce,64c803ab12bd89c3cdb9aa8b,right,1,0.75,0.3714,12,-0.004634478,1.0721,,,,,,75,0,75,0,1,,,,,
,,135911,001,2023-07-31_20h57.41.731,arm3_eps,2022.2.5,Win32,59.88741167,606c6e9f7e86c0264ab3d7d8,64c7fed44a04f777bb1e18ce,64c803ab12bd89c3cdb9aa8b,up,1,0.75,0.3714,13,0,1.1369,,,,,,76,0,76,0,1,,,,,
,,135911,001,2023-07-31_20h57.41.731,arm3_eps,2022.2.5,Win32,59.88741167,606c6e9f7e86c0264ab3d7d8,64c7fed44a04f777bb1e18ce,64c803ab12bd89c3cdb9aa8b,right,1,0.75,0.3714,13,0.016957337,0.9197,,,,,,77,0,77,0,1,,,,,
,,135911,001,2023-07-31_20h57.41.731,arm3_eps,2022.2.5,Win32,59.88741167,606c6e9f7e86c0264ab3d7d8,64c7fed44a04f777bb1e18ce,64c803ab12bd89c3cdb9aa8b,up,1,0.75,0.3714,13,0,0.9571,,,,,,78,0,78,0,1,,,,,
,,135911,001,2023-07-31_20h57.41.731,arm3_eps,2022.2.5,Win32,59.88741167,606c6e9f7e86c0264ab3d7d8,64c7fed44a04f777bb1e18ce,64c803ab12bd89c3cdb9aa8b,right,1,0.75,0.3714,13,0.040212872,1.0294,,,,,,79,0,79,0,1,,,,,
,,135911,001,2023-07-31_20h57.41.731,arm3_eps,2022.2.5,Win32,59.88741167,606c6e9f7e86c0264ab3d7d8,64c7fed44a04f777bb1e18ce,64c803ab12bd89c3cdb9aa8b,up,1,0.75,0.3714,13,0,0.8049,,,,,,80,0,80,0,1,,,,,
,,135911,001,2023-07-31_20h57.41.731,arm3_eps,2022.2.5,Win32,59.88741167,606c6e9f7e86c0264ab3d7d8,64c7fed44a04f777bb1e18ce,64c803ab12bd89c3cdb9aa8b,right,1,0.75,0.3714,13,0.052107061,1.1214,,,,,,81,0,81,0,1,,,,,
,,135911,001,2023-07-31_20h57.41.731,arm3_eps,2022.2.5,Win32,59.88741167,606c6e9f7e86c0264ab3d7d8,64c7fed44a04f777bb1e18ce,64c803ab12bd89c3cdb9aa8b,right,1,0.75,0.3714,13,0.048241521,0.6948,,,,,,82,0,82,0,1,,,,,
,,135911,001,2023-07-31_20h57.41.731,arm3_eps,2022.2.5,Win32,59.88741167,606c6e9f7e86c0264ab3d7d8,64c7fed44a04f777bb1e18ce,64c803ab12bd89c3cdb9aa8b,up,-1,0.75,0.3714,14,0,0.8351,,,,,,83,0,83,0,1,,,,,
,,135911,001,2023-07-31_20h57.41.731,arm3_eps,2022.2.5,Win32,59.88741167,606c6e9f7e86c0264ab3d7d8,64c7fed44a04f777bb1e18ce,64c803ab12bd89c3cdb9aa8b,right,-1,0.75,0.3714,14,-0.009646931,0.9806,,,,,,84,0,84,0,1,,,,,
,,135911,001,2023-07-31_20h57.41.731,arm3_eps,2022.2.5,Win32,59.88741167,606c6e9f7e86c0264ab3d7d8,64c7fed44a04f777bb1e18ce,64c803ab12bd89c3cdb9aa8b,right,-1,0.75,0.3714,14,-0.047399969,0.6246,,,,,,85,0,85,0,1,,,,,
,,135911,001,2023-07-31_20h57.41.731,arm3_eps,2022.2.5,Win32,59.88741167,606c6e9f7e86c0264ab3d7d8,64c7fed44a04f777bb1e18ce,64c803ab12bd89c3cdb9aa8b,down,-1,0.75,0.3714,15,0,1.0315,,,,,,86,0,86,0,1,,,,,
,,135911,001,2023-07-31_20h57.41.731,arm3_eps,2022.2.5,Win32,59.88741167,606c6e9f7e86c0264ab3d7d8,64c7fed44a04f777bb1e18ce,64c803ab12bd89c3cdb9aa8b,right,-1,0.75,0.3714,15,0.014471181,0.9614,,,,,,87,0,87,0,1,,,,,
,,135911,001,2023-07-31_20h57.41.731,arm3_eps,2022.2.5,Win32,59.88741167,606c6e9f7e86c0264ab3d7d8,64c7fed44a04f777bb1e18ce,64c803ab12bd89c3cdb9aa8b,up,-1,0.75,0.3714,14,0,1.3661,,,,,,88,0,88,0,1,,,,,
,,135911,001,2023-07-31_20h57.41.731,arm3_eps,2022.2.5,Win32,59.88741167,606c6e9f7e86c0264ab3d7d8,64c7fed44a04f777bb1e18ce,64c803ab12bd89c3cdb9aa8b,right,-1,0.75,0.3714,14,0.003577484,1.323,,,,,,89,0,89,0,1,,,,,
,,135911,001,2023-07-31_20h57.41.731,arm3_eps,2022.2.5,Win32,59.88741167,606c6e9f7e86c0264ab3d7d8,64c7fed44a04f777bb1e18ce,64c803ab12bd89c3cdb9aa8b,right,-1,0.75,0.3714,14,-0.034218627,0.6171,,,,,,90,0,90,0,1,,,,,
,,135911,001,2023-07-31_20h57.41.731,arm3_eps,2022.2.5,Win32,59.88741167,606c6e9f7e86c0264ab3d7d8,64c7fed44a04f777bb1e18ce,64c803ab12bd89c3cdb9aa8b,down,1,0.75,0.3714,15,0,1.1437,,,,,,91,0,91,0,1,,,,,
,,135911,001,2023-07-31_20h57.41.731,arm3_eps,2022.2.5,Win32,59.88741167,606c6e9f7e86c0264ab3d7d8,64c7fed44a04f777bb1e18ce,64c803ab12bd89c3cdb9aa8b,right,1,0.75,0.3714,15,0.006931672,0.8708,,,,,,92,0,92,0,1,,,,,
,,135911,001,2023-07-31_20h57.41.731,arm3_eps,2022.2.5,Win32,59.88741167,606c6e9f7e86c0264ab3d7d8,64c7fed44a04f777bb1e18ce,64c803ab12bd89c3cdb9aa8b,right,1,0.75,0.3714,15,0.021755893,0.3905,,,,,,93,0,93,0,1,,,,,
,,135911,001,2023-07-31_20h57.41.731,arm3_eps,2022.2.5,Win32,59.88741167,606c6e9f7e86c0264ab3d7d8,64c7fed44a04f777bb1e18ce,64c803ab12bd89c3cdb9aa8b,right,1,0.75,0.3714,15,0.007647256,0.6492,,,,,,94,0,94,0,1,,,,,
,,135911,001,2023-07-31_20h57.41.731,arm3_eps,2022.2.5,Win32,59.88741167,606c6e9f7e86c0264ab3d7d8,64c7fed44a04f777bb1e18ce,64c803ab12bd89c3cdb9aa8b,right,1,0.75,0.3714,15,0.024914047,0.6196,,,,,,95,0,95,0,1,,,,,
,,135911,001,2023-07-31_20h57.41.731,arm3_eps,2022.2.5,Win32,59.88741167,606c6e9f7e86c0264ab3d7d8,64c7fed44a04f777bb1e18ce,64c803ab12bd89c3cdb9aa8b,up,-1,0.75,0.3714,16,0,0.7704,,,,,,96,0,96,0,1,,,,,
,,135911,001,2023-07-31_20h57.41.731,arm3_eps,2022.2.5,Win32,59.88741167,606c6e9f7e86c0264ab3d7d8,64c7fed44a04f777bb1e18ce,64c803ab12bd89c3cdb9aa8b,right,-1,0.75,0.3714,16,-0.018745251,1.0081,,,,,,97,0,97,0,1,,,,,
,,135911,001,2023-07-31_20h57.41.731,arm3_eps,2022.2.5,Win32,59.88741167,606c6e9f7e86c0264ab3d7d8,64c7fed44a04f777bb1e18ce,64c803ab12bd89c3cdb9aa8b,right,-1,0.75,0.3714,16,-0.020956175,0.5493,,,,,,98,0,98,0,1,,,,,
,,135911,001,2023-07-31_20h57.41.731,arm3_eps,2022.2.5,Win32,59.88741167,606c6e9f7e86c0264ab3d7d8,64c7fed44a04f777bb1e18ce,64c803ab12bd89c3cdb9aa8b,right,-1,0.75,0.3714,16,-0.015040837,0.6997,,,,,,99,0,99,0,1,,,,,
,,135911,001,2023-07-31_20h57.41.731,arm3_eps,2022.2.5,Win32,59.88741167,606c6e9f7e86c0264ab3d7d8,64c7fed44a04f777bb1e18ce,64c803ab12bd89c3cdb9aa8b,right,-1,0.75,0.3714,16,0.009935191,0.7031,,,,,,100,0,100,0,1,,,,,
,,135911,001,2023-07-31_20h57.41.731,arm3_eps,2022.2.5,Win32,59.88741167,606c6e9f7e86c0264ab3d7d8,64c7fed44a04f777bb1e18ce,64c803ab12bd89c3cdb9aa8b,right,-1,0.75,0.3714,16,0.007076749,0.6495,,,,,,101,0,101,0,1,,,,,
,,135911,001,2023-07-31_20h57.41.731,arm3_eps,2022.2.5,Win32,59.88741167,606c6e9f7e86c0264ab3d7d8,64c7fed44a04f777bb1e18ce,64c803ab12bd89c3cdb9aa8b,right,-1,0.75,0.3714,16,-0.009697954,2.3118,,,,,,102,0,102,0,1,,,,,
,,135911,001,2023-07-31_20h57.41.731,arm3_eps,2022.2.5,Win32,59.88741167,606c6e9f7e86c0264ab3d7d8,64c7fed44a04f777bb1e18ce,64c803ab12bd89c3cdb9aa8b,right,-1,0.75,0.3714,16,-0.031395339,0.8991,,,,,,103,0,103,0,1,,,,,
,,135911,001,2023-07-31_20h57.41.731,arm3_eps,2022.2.5,Win32,59.88741167,606c6e9f7e86c0264ab3d7d8,64c7fed44a04f777bb1e18ce,64c803ab12bd89c3cdb9aa8b,down,1,0.75,0.3714,16,0,1.0062,,,,,,104,0,104,0,1,,,,,
,,135911,001,2023-07-31_20h57.41.731,arm3_eps,2022.2.5,Win32,59.88741167,606c6e9f7e86c0264ab3d7d8,64c7fed44a04f777bb1e18ce,64c803ab12bd89c3cdb9aa8b,right,1,0.75,0.3714,16,-0.013566528,1.1064,,,,,,105,0,105,0,1,,,,,
,,135911,001,2023-07-31_20h57.41.731,arm3_eps,2022.2.5,Win32,59.88741167,606c6e9f7e86c0264ab3d7d8,64c7fed44a04f777bb1e18ce,64c803ab12bd89c3cdb9aa8b,right,1,0.75,0.3714,16,-0.026063488,0.6162,,,,,,106,0,106,0,1,,,,,
,,135911,001,2023-07-31_20h57.41.731,arm3_eps,2022.2.5,Win32,59.88741167,606c6e9f7e86c0264ab3d7d8,64c7fed44a04f777bb1e18ce,64c803ab12bd89c3cdb9aa8b,right,1,0.75,0.3714,16,-0.014151102,0.5593,,,,,,107,0,107,0,1,,,,,
,,135911,001,2023-07-31_20h57.41.731,arm3_eps,2022.2.5,Win32,59.88741167,606c6e9f7e86c0264ab3d7d8,64c7fed44a04f777bb1e18ce,64c803ab12bd89c3cdb9aa8b,right,1,0.75,0.3714,16,0.00317983,0.5287,,,,,,108,0,108,0,1,,,,,
,,135911,001,2023-07-31_20h57.41.731,arm3_eps,2022.2.5,Win32,59.88741167,606c6e9f7e86c0264ab3d7d8,64c7fed44a04f777bb1e18ce,64c803ab12bd89c3cdb9aa8b,right,1,0.75,0.3714,16,0.001629395,0.8994,,,,,,109,0,109,0,1,,,,,
,,135911,001,2023-07-31_20h57.41.731,arm3_eps,2022.2.5,Win32,59.88741167,606c6e9f7e86c0264ab3d7d8,64c7fed44a04f777bb1e18ce,64c803ab12bd89c3cdb9aa8b,right,1,0.75,0.3714,16,0.021463277,0.7267,,,,,,110,0,110,0,1,,,,,
,,135911,001,2023-07-31_20h57.41.731,arm3_eps,2022.2.5,Win32,59.88741167,606c6e9f7e86c0264ab3d7d8,64c7fed44a04f777bb1e18ce,64c803ab12bd89c3cdb9aa8b,up,1,0.75,0.3714,17,0,0.7694,,,,,,111,0,111,0,1,,,,,
,,135911,001,2023-07-31_20h57.41.731,arm3_eps,2022.2.5,Win32,59.88741167,606c6e9f7e86c0264ab3d7d8,64c7fed44a04f777bb1e18ce,64c803ab12bd89c3cdb9aa8b,right,1,0.75,0.3714,17,0.026428231,1.2062,,,,,,112,0,112,0,1,,,,,
,,135911,001,2023-07-31_20h57.41.731,arm3_eps,2022.2.5,Win32,59.88741167,606c6e9f7e86c0264ab3d7d8,64c7fed44a04f777bb1e18ce,64c803ab12bd89c3cdb9aa8b,right,1,0.75,0.3714,17,0.034176956,0.8173,,,,,,113,0,113,0,1,,,,,
,,135911,001,2023-07-31_20h57.41.731,arm3_eps,2022.2.5,Win32,59.88741167,606c6e9f7e86c0264ab3d7d8,64c7fed44a04f777bb1e18ce,64c803ab12bd89c3cdb9aa8b,up,1,0.75,0.3714,18,0,0.8882,,,,,,114,0,114,0,1,,,,,
,,135911,001,2023-07-31_20h57.41.731,arm3_eps,2022.2.5,Win32,59.88741167,606c6e9f7e86c0264ab3d7d8,64c7fed44a04f777bb1e18ce,64c803ab12bd89c3cdb9aa8b,right,1,0.75,0.3714,18,0.021773859,1,,,,,,115,0,115,0,1,,,,,
,,135911,001,2023-07-31_20h57.41.731,arm3_eps,2022.2.5,Win32,59.88741167,606c6e9f7e86c0264ab3d7d8,64c7fed44a04f777bb1e18ce,64c803ab12bd89c3cdb9aa8b,right,1,0.75,0.3714,18,0.025941905,0.6504,,,,,,116,0,116,0,1,,,,,
,,135911,001,2023-07-31_20h57.41.731,arm3_eps,2022.2.5,Win32,59.88741167,606c6e9f7e86c0264ab3d7d8,64c7fed44a04f777bb1e18ce,64c803ab12bd89c3cdb9aa8b,up,1,0.75,0.3714,18,0,0.9043,,,,,,117,0,117,0,1,,,,,
,,135911,001,2023-07-31_20h57.41.731,arm3_eps,2022.2.5,Win32,59.88741167,606c6e9f7e86c0264ab3d7d8,64c7fed44a04f777bb1e18ce,64c803ab12bd89c3cdb9aa8b,right,1,0.75,0.3714,18,0.017067347,1.1048,,,,,,118,0,118,0,1,,,,,
,,135911,001,2023-07-31_20h57.41.731,arm3_eps,2022.2.5,Win32,59.88741167,606c6e9f7e86c0264ab3d7d8,64c7fed44a04f777bb1e18ce,64c803ab12bd89c3cdb9aa8b,right,1,0.75,0.3714,18,0.00807443,0.5909,,,,,,119,0,119,0,1,,,,,
,,135911,001,2023-07-31_20h57.41.731,arm3_eps,2022.2.5,Win32,59.88741167,606c6e9f7e86c0264ab3d7d8,64c7fed44a04f777bb1e18ce,64c803ab12bd89c3cdb9aa8b,right,1,0.75,0.3714,18,0.000320559,0.9114,,,,,,120,0,120,0,1,,,,,
,,135911,001,2023-07-31_20h57.41.731,arm3_eps,2022.2.5,Win32,59.88741167,606c6e9f7e86c0264ab3d7d8,64c7fed44a04f777bb1e18ce,64c803ab12bd89c3cdb9aa8b,right,1,0.75,0.3714,18,-0.003966197,0.7167,,,,,,121,0,121,0,1,,,,,
,,135911,001,2023-07-31_20h57.41.731,arm3_eps,2022.2.5,Win32,59.88741167,606c6e9f7e86c0264ab3d7d8,64c7fed44a04f777bb1e18ce,64c803ab12bd89c3cdb9aa8b,right,1,0.75,0.3714,18,0.008958569,1.3092,,,,,,122,0,122,0,1,,,,,
,,135911,001,2023-07-31_20h57.41.731,arm3_eps,2022.2.5,Win32,59.88741167,606c6e9f7e86c0264ab3d7d8,64c7fed44a04f777bb1e18ce,64c803ab12bd89c3cdb9aa8b,right,1,0.75,0.3714,18,-0.000241041,1.7205,,,,,,123,0,123,0,1,,,,,
,,135911,001,2023-07-31_20h57.41.731,arm3_eps,2022.2.5,Win32,59.88741167,606c6e9f7e86c0264ab3d7d8,64c7fed44a04f777bb1e18ce,64c803ab12bd89c3cdb9aa8b,right,1,0.75,0.3714,18,-0.012621613,0.7311,,,,,,124,0,124,0,1,,,,,
,,135911,001,2023-07-31_20h57.41.731,arm3_eps,2022.2.5,Win32,59.88741167,606c6e9f7e86c0264ab3d7d8,64c7fed44a04f777bb1e18ce,64c803ab12bd89c3cdb9aa8b,down,-1,0.75,0.3714,17,0,0.9167,,,,,,125,0,125,0,1,,,,,
,,135911,001,2023-07-31_20h57.41.731,arm3_eps,2022.2.5,Win32,59.88741167,606c6e9f7e86c0264ab3d7d8,64c7fed44a04f777bb1e18ce,64c803ab12bd89c3cdb9aa8b,right,-1,0.75,0.3714,17,0.013496595,1.1878,,,,,,126,0,126,0,1,,,,,
,,135911,001,2023-07-31_20h57.41.731,arm3_eps,2022.2.5,Win32,59.88741167,606c6e9f7e86c0264ab3d7d8,64c7fed44a04f777bb1e18ce,64c803ab12bd89c3cdb9aa8b,right,-1,0.75,0.3714,17,-0.013454811,0.6495,,,,,,127,0,127,0,1,,,,,
,,135911,001,2023-07-31_20h57.41.731,arm3_eps,2022.2.5,Win32,59.88741167,606c6e9f7e86c0264ab3d7d8,64c7fed44a04f777bb1e18ce,64c803ab12bd89c3cdb9aa8b,down,-1,0.75,0.3714,18,0,1.9487,,,,,,128,0,128,0,1,,,,,
,,135911,001,2023-07-31_20h57.41.731,arm3_eps,2022.2.5,Win32,59.88741167,606c6e9f7e86c0264ab3d7d8,64c7fed44a04f777bb1e18ce,64c803ab12bd89c3cdb9aa8b,right,-1,0.75,0.3714,18,0.021020046,1.0454,,,,,,129,0,129,0,1,,,,,
,,135911,001,2023-07-31_20h57.41.731,arm3_eps,2022.2.5,Win32,59.88741167,606c6e9f7e86c0264ab3d7d8,64c7fed44a04f777bb1e18ce,64c803ab12bd89c3cdb9aa8b,right,-1,0.75,0.3714,18,-0.014294982,0.5653,,,,,,130,0,130,0,1,,,,,
,,135911,001,2023-07-31_20h57.41.731,arm3_eps,2022.2.5,Win32,59.88741167,606c6e9f7e86c0264ab3d7d8,64c7fed44a04f777bb1e18ce,64c803ab12bd89c3cdb9aa8b,right,-1,0.75,0.3714,18,-0.009722984,1.4041,,,,,,131,0,131,0,1,,,,,
,,135911,001,2023-07-31_20h57.41.731,arm3_eps,2022.2.5,Win32,59.88741167,606c6e9f7e86c0264ab3d7d8,64c7fed44a04f777bb1e18ce,64c803ab12bd89c3cdb9aa8b,right,-1,0.75,0.3714,18,-0.009734918,1.1308,,,,,,132,0,132,0,1,,,,,
,,135911,001,2023-07-31_20h57.41.731,arm3_eps,2022.2.5,Win32,59.88741167,606c6e9f7e86c0264ab3d7d8,64c7fed44a04f777bb1e18ce,64c803ab12bd89c3cdb9aa8b,right,-1,0.75,0.3714,18,-0.015679203,1.3252,,,,,,133,0,133,0,1,,,,,
,,135911,001,2023-07-31_20h57.41.731,arm3_eps,2022.2.5,Win32,59.88741167,606c6e9f7e86c0264ab3d7d8,64c7fed44a04f777bb1e18ce,64c803ab12bd89c3cdb9aa8b,down,-1,0.75,0.3714,19,0,0.8711,,,,,,134,0,134,0,1,,,,,
,,135911,001,2023-07-31_20h57.41.731,arm3_eps,2022.2.5,Win32,59.88741167,606c6e9f7e86c0264ab3d7d8,64c7fed44a04f777bb1e18ce,64c803ab12bd89c3cdb9aa8b,right,-1,0.75,0.3714,19,0.008308087,0.9134,,,,,,135,0,135,0,1,,,,,
,,135911,001,2023-07-31_20h57.41.731,arm3_eps,2022.2.5,Win32,59.88741167,606c6e9f7e86c0264ab3d7d8,64c7fed44a04f777bb1e18ce,64c803ab12bd89c3cdb9aa8b,right,-1,0.75,0.3714,19,-0.015564038,0.5353,,,,,,136,0,136,0,1,,,,,
,,135911,001,2023-07-31_20h57.41.731,arm3_eps,2022.2.5,Win32,59.88741167,606c6e9f7e86c0264ab3d7d8,64c7fed44a04f777bb1e18ce,64c803ab12bd89c3cdb9aa8b,right,-1,0.75,0.3714,19,-0.005695291,0.6493,,,,,,137,0,137,0,1,,,,,
,,135911,001,2023-07-31_20h57.41.731,arm3_eps,2022.2.5,Win32,59.88741167,606c6e9f7e86c0264ab3d7d8,64c7fed44a04f777bb1e18ce,64c803ab12bd89c3cdb9aa8b,down,1,0.75,0.3714,20,0,1.1822,,,,,,138,0,138,0,1,,,,,
,,135911,001,2023-07-31_20h57.41.731,arm3_eps,2022.2.5,Win32,59.88741167,606c6e9f7e86c0264ab3d7d8,64c7fed44a04f777bb1e18ce,64c803ab12bd89c3cdb9aa8b,right,1,0.75,0.3714,20,0.037855636,1.1622,,,,,,139,0,139,0,1,,,,,
,,135911,001,2023-07-31_20h57.41.731,arm3_eps,2022.2.5,Win32,59.88741167,606c6e9f7e86c0264ab3d7d8,64c7fed44a04f777bb1e18ce,64c803ab12bd89c3cdb9aa8b,right,1,0.75,0.3714,20,0.026835302,0.5671,,,,,,140,0,140,0,1,,,,,
,,135911,001,2023-07-31_20h57.41.731,arm3_eps,2022.2.5,Win32,59.88741167,606c6e9f7e86c0264ab3d7d8,64c7fed44a04f777bb1e18ce,64c803ab12bd89c3cdb9aa8b,right,1,0.75,0.3714,20,0.022046625,0.5443,,,,,,141,0,141,0,1,,,,,
,,135911,001,2023-07-31_20h57.41.731,arm3_eps,2022.2.5,Win32,59.88741167,606c6e9f7e86c0264ab3d7d8,64c7fed44a04f777bb1e18ce,64c803ab12bd89c3cdb9aa8b,up,1,0.75,0.3714,21,0,0.8992,,,,,,142,0,142,0,1,,,,,
,,135911,001,2023-07-31_20h57.41.731,arm3_eps,2022.2.5,Win32,59.88741167,606c6e9f7e86c0264ab3d7d8,64c7fed44a04f777bb1e18ce,64c803ab12bd89c3cdb9aa8b,right,1,0.75,0.3714,21,-0.011540756,1.4186,,,,,,143,0,143,0,1,,,,,
,,135911,001,2023-07-31_20h57.41.731,arm3_eps,2022.2.5,Win32,59.88741167,606c6e9f7e86c0264ab3d7d8,64c7fed44a04f777bb1e18ce,64c803ab12bd89c3cdb9aa8b,right,1,0.75,0.3714,21,0.002714355,0.708,,,,,,144,0,144,0,1,,,,,
,,135911,001,2023-07-31_20h57.41.731,arm3_eps,2022.2.5,Win32,59.88741167,606c6e9f7e86c0264ab3d7d8,64c7fed44a04f777bb1e18ce,64c803ab12bd89c3cdb9aa8b,right,1,0.75,0.3714,21,-0.02879827,0.9351,,,,,,145,0,145,0,1,,,,,
,,135911,001,2023-07-31_20h57.41.731,arm3_eps,2022.2.5,Win32,59.88741167,606c6e9f7e86c0264ab3d7d8,64c7fed44a04f777bb1e18ce,64c803ab12bd89c3cdb9aa8b,down,1,0.75,0.3714,20,0,0.865,,,,,,146,0,146,0,1,,,,,
,,135911,001,2023-07-31_20h57.41.731,arm3_eps,2022.2.5,Win32,59.88741167,606c6e9f7e86c0264ab3d7d8,64c7fed44a04f777bb1e18ce,64c803ab12bd89c3cdb9aa8b,right,1,0.75,0.3714,20,-0.009896908,1.3616,,,,,,147,0,147,0,1,,,,,
,,135911,001,2023-07-31_20h57.41.731,arm3_eps,2022.2.5,Win32,59.88741167,606c6e9f7e86c0264ab3d7d8,64c7fed44a04f777bb1e18ce,64c803ab12bd89c3cdb9aa8b,right,1,0.75,0.3714,20,0.006534612,0.3988,,,,,,148,0,148,0,1,,,,,
,,135911,001,2023-07-31_20h57.41.731,arm3_eps,2022.2.5,Win32,59.88741167,606c6e9f7e86c0264ab3d7d8,64c7fed44a04f777bb1e18ce,64c803ab12bd89c3cdb9aa8b,up,1,0.75,0.3714,21,0,0.9898,,,,,,149,0,149,0,1,,,,,
,,135911,001,2023-07-31_20h57.41.731,arm3_eps,2022.2.5,Win32,59.88741167,606c6e9f7e86c0264ab3d7d8,64c7fed44a04f777bb1e18ce,64c803ab12bd89c3cdb9aa8b,right,1,0.75,0.3714,21,-0.00027489,1.0021,,,,,,150,0,150,0,1,,,,,
,,135911,001,2023-07-31_20h57.41.731,arm3_eps,2022.2.5,Win32,59.88741167,606c6e9f7e86c0264ab3d7d8,64c7fed44a04f777bb1e18ce,64c803ab12bd89c3cdb9aa8b,right,1,0.75,0.3714,21,0.043687534,0.4318,,,,,,151,0,151,0,1,,,,,
,,135911,001,2023-07-31_20h57.41.731,arm3_eps,2022.2.5,Win32,59.88741167,606c6e9f7e86c0264ab3d7d8,64c7fed44a04f777bb1e18ce,64c803ab12bd89c3cdb9aa8b,up,1,0.75,0.3714,22,0,0.7812,,,,,,152,0,152,0,1,,,,,
,,135911,001,2023-07-31_20h57.41.731,arm3_eps,2022.2.5,Win32,59.88741167,606c6e9f7e86c0264ab3d7d8,64c7fed44a04f777bb1e18ce,64c803ab12bd89c3cdb9aa8b,right,1,0.75,0.3714,22,-0.000931632,1.1037,,,,,,153,0,153,0,1,,,,,
,,135911,001,2023-07-31_20h57.41.731,arm3_eps,2022.2.5,Win32,59.88741167,606c6e9f7e86c0264ab3d7d8,64c7fed44a04f777bb1e18ce,64c803ab12bd89c3cdb9aa8b,right,1,0.75,0.3714,22,0.022954796,0.4485,,,,,,154,0,154,0,1,,,,,
,,135911,001,2023-07-31_20h57.41.731,arm3_eps,2022.2.5,Win32,59.88741167,606c6e9f7e86c0264ab3d7d8,64c7fed44a04f777bb1e18ce,64c803ab12bd89c3cdb9aa8b,up,1,0.75,0.3714,23,0,0.8442,,,,,,155,0,155,0,1,,,,,
,,135911,001,2023-07-31_20h57.41.731,arm3_eps,2022.2.5,Win32,59.88741167,606c6e9f7e86c0264ab3d7d8,64c7fed44a04f777bb1e18ce,64c803ab12bd89c3cdb9aa8b,right,1,0.75,0.3714,23,0.011629007,0.9116,,,,,,156,0,156,0,1,,,,,
,,135911,001,2023-07-31_20h57.41.731,arm3_eps,2022.2.5,Win32,59.88741167,606c6e9f7e86c0264ab3d7d8,64c7fed44a04f777bb1e18ce,64c803ab12bd89c3cdb9aa8b,right,1,0.75,0.3714,23,0.002619216,0.4525,,,,,,157,0,157,0,1,,,,,
,,135911,001,2023-07-31_20h57.41.731,arm3_eps,2022.2.5,Win32,59.88741167,606c6e9f7e86c0264ab3d7d8,64c7fed44a04f777bb1e18ce,64c803ab12bd89c3cdb9aa8b,right,1,0.75,0.3714,23,0.020234724,0.9323,,,,,,158,0,158,0,1,,,,,
,,135911,001,2023-07-31_20h57.41.731,arm3_eps,2022.2.5,Win32,59.88741167,606c6e9f7e86c0264ab3d7d8,64c7fed44a04f777bb1e18ce,64c803ab12bd89c3cdb9aa8b,right,1,0.75,0.3714,23,0.002449396,0.6437,,,,,,159,0,159,0,1,,,,,
,,135911,001,2023-07-31_20h57.41.731,arm3_eps,2022.2.5,Win32,59.88741167,606c6e9f7e86c0264ab3d7d8,64c7fed44a04f777bb1e18ce,64c803ab12bd89c3cdb9aa8b,right,1,0.75,0.3714,23,0.008567323,0.9549,,,,,,160,0,160,0,1,,,,,
,,135911,001,2023-07-31_20h57.41.731,arm3_eps,2022.2.5,Win32,59.88741167,606c6e9f7e86c0264ab3d7d8,64c7fed44a04f777bb1e18ce,64c803ab12bd89c3cdb9aa8b,right,1,0.75,0.3714,23,-0.005796776,1.5146,,,,,,161,0,161,0,1,,,,,
,,135911,001,2023-07-31_20h57.41.731,arm3_eps,2022.2.5,Win32,59.88741167,606c6e9f7e86c0264ab3d7d8,64c7fed44a04f777bb1e18ce,64c803ab12bd89c3cdb9aa8b,right,1,0.75,0.3714,23,-0.004939353,0.5978,,,,,,162,0,162,0,1,,,,,
,,135911,001,2023-07-31_20h57.41.731,arm3_eps,2022.2.5,Win32,59.88741167,606c6e9f7e86c0264ab3d7d8,64c7fed44a04f777bb1e18ce,64c803ab12bd89c3cdb9aa8b,right,1,0.75,0.3714,23,0.003022331,0.4771,,,,,,163,0,163,0,1,,,,,
,,135911,001,2023-07-31_20h57.41.731,arm3_eps,2022.2.5,Win32,59.88741167,606c6e9f7e86c0264ab3d7d8,64c7fed44a04f777bb1e18ce,64c803ab12bd89c3cdb9aa8b,right,1,0.75,0.3714,23,-0.014278887,1.4012,,,,,,164,0,164,0,1,,,,,
,,135911,001,2023-07-31_20h57.41.731,arm3_eps,2022.2.5,Win32,59.88741167,606c6e9f7e86c0264ab3d7d8,64c7fed44a04f777bb1e18ce,64c803ab12bd89c3cdb9aa8b,right,1,0.75,0.3714,23,-0.012529216,1.632,,,,,,165,0,165,0,1,,,,,
,,135911,001,2023-07-31_20h57.41.731,arm3_eps,2022.2.5,Win32,59.88741167,606c6e9f7e86c0264ab3d7d8,64c7fed44a04f777bb1e18ce,64c803ab12bd89c3cdb9aa8b,up,-1,0.75,0.3714,24,0,1.0219,,,,,,166,0,166,0,1,,,,,
,,135911,001,2023-07-31_20h57.41.731,arm3_eps,2022.2.5,Win32,59.88741167,606c6e9f7e86c0264ab3d7d8,64c7fed44a04f777bb1e18ce,64c803ab12bd89c3cdb9aa8b,right,-1,0.75,0.3714,24,-0.004098053,1.0658,,,,,,167,0,167,0,1,,,,,
,,135911,001,2023-07-31_20h57.41.731,arm3_eps,2022.2.5,Win32,59.88741167,606c6e9f7e86c0264ab3d7d8,64c7fed44a04f777bb1e18ce,64c803ab12bd89c3cdb9aa8b,right,-1,0.75,0.3714,24,-0.023708263,0.666,,,,,,168,0,168,0,1,,,,,
,,135911,001,2023-07-31_20h57.41.731,arm3_eps,2022.2.5,Win32,59.88741167,606c6e9f7e86c0264ab3d7d8,64c7fed44a04f777bb1e18ce,64c803ab12bd89c3cdb9aa8b,down,-1,0.75,0.3714,25,0,1.2484,,,,,,169,0,169,0,1,,,,,
,,135911,001,2023-07-31_20h57.41.731,arm3_eps,2022.2.5,Win32,59.88741167,606c6e9f7e86c0264ab3d7d8,64c7fed44a04f777bb1e18ce,64c803ab12bd89c3cdb9aa8b,right,-1,0.75,0.3714,25,-0.023128693,0.9448,,,,,,170,0,170,0,1,,,,,
,,135911,001,2023-07-31_20h57.41.731,arm3_eps,2022.2.5,Win32,59.88741167,606c6e9f7e86c0264ab3d7d8,64c7fed44a04f777bb1e18ce,64c803ab12bd89c3cdb9aa8b,down,-1,0.75,0.3714,26,0,1.0219,,,,,,171,0,171,0,1,,,,,
,,135911,001,2023-07-31_20h57.41.731,arm3_eps,2022.2.5,Win32,59.88741167,606c6e9f7e86c0264ab3d7d8,64c7fed44a04f777bb1e18ce,64c803ab12bd89c3cdb9aa8b,right,-1,0.75,0.3714,26,-0.002306228,1.0887,,,,,,172,0,172,0,1,,,,,
,,135911,001,2023-07-31_20h57.41.731,arm3_eps,2022.2.5,Win32,59.88741167,606c6e9f7e86c0264ab3d7d8,64c7fed44a04f777bb1e18ce,64c803ab12bd89c3cdb9aa8b,right,-1,0.75,0.3714,26,-0.014937449,0.7923,,,,,,173,0,173,0,1,,,,,
,,135911,001,2023-07-31_20h57.41.731,arm3_eps,2022.2.5,Win32,59.88741167,606c6e9f7e86c0264ab3d7d8,64c7fed44a04f777bb1e18ce,64c803ab12bd89c3cdb9aa8b,down,-1,0.75,0.3714,26,0,0.8326,,,,,,174,0,174,0,1,,,,,
,,135911,001,2023-07-31_20h57.41.731,arm3_eps,2022.2.5,Win32,59.88741167,606c6e9f7e86c0264ab3d7d8,64c7fed44a04f777bb1e18ce,64c803ab12bd89c3cdb9aa8b,right,-1,0.75,0.3714,26,-0.018269507,1.4661,,,,,,175,0,175,0,1,,,,,
,,135911,001,2023-07-31_20h57.41.731,arm3_eps,2022.2.5,Win32,59.88741167,606c6e9f7e86c0264ab3d7d8,64c7fed44a04f777bb1e18ce,64c803ab12bd89c3cdb9aa8b,right,-1,0.75,0.3714,26,-0.00916085,0.4665,,,,,,176,0,176,0,1,,,,,
,,135911,001,2023-07-31_20h57.41.731,arm3_eps,2022.2.5,Win32,59.88741167,606c6e9f7e86c0264ab3d7d8,64c7fed44a04f777bb1e18ce,64c803ab12bd89c3cdb9aa8b,down,-1,0.75,0.3714,27,0,1.1591,,,,,,177,0,177,0,1,,,,,
,,135911,001,2023-07-31_20h57.41.731,arm3_eps,2022.2.5,Win32,59.88741167,606c6e9f7e86c0264ab3d7d8,64c7fed44a04f777bb1e18ce,64c803ab12bd89c3cdb9aa8b,right,-1,0.75,0.3714,27,0.021552502,1.1568,,,,,,178,0,178,0,1,,,,,
,,135911,001,2023-07-31_20h57.41.731,arm3_eps,2022.2.5,Win32,59.88741167,606c6e9f7e86c0264ab3d7d8,64c7fed44a04f777bb1e18ce,64c803ab12bd89c3cdb9aa8b,right,-1,0.75,0.3714,27,0.008001725,0.4906,,,,,,179,0,179,0,1,,,,,
,,135911,001,2023-07-31_20h57.41.731,arm3_eps,2022.2.5,Win32,59.88741167,606c6e9f7e86c0264ab3d7d8,64c7fed44a04f777bb1e18ce,64c803ab12bd89c3cdb9aa8b,right,-1,0.75,0.3714,27,-0.005657345,0.734,,,,,,180,0,180,0,1,,,,,
,,135911,001,2023-07-31_20h57.41.731,arm3_eps,2022.2.5,Win32,59.88741167,606c6e9f7e86c0264ab3d7d8,64c7fed44a04f777bb1e18ce,64c803ab12bd89c3cdb9aa8b,right,-1,0.75,0.3714,27,-0.004916412,0.6663,,,,,,181,0,181,0,1,,,,,
,,135911,001,2023-07-31_20h57.41.731,arm3_eps,2022.2.5,Win32,59.88741167,606c6e9f7e86c0264ab3d7d8,64c7fed44a04f777bb1e18ce,64c803ab12bd89c3cdb9aa8b,right,-1,0.75,0.3714,27,0.00671598,0.2765,,,,,,182,0,182,0,1,,,,,
,,135911,001,2023-07-31_20h57.41.731,arm3_eps,2022.2.5,Win32,59.88741167,606c6e9f7e86c0264ab3d7d8,64c7fed44a04f777bb1e18ce,64c803ab12bd89c3cdb9aa8b,right,-1,0.75,0.3714,27,-0.001772453,0.6493,,,,,,183,0,183,0,1,,,,,
,,135911,001,2023-07-31_20h57.41.731,arm3_eps,2022.2.5,Win32,59.88741167,606c6e9f7e86c0264ab3d7d8,64c7fed44a04f777bb1e18ce,64c803ab12bd89c3cdb9aa8b,up,-1,0.75,0.3714,26,0,1.2318,,,,,,184,0,184,0,1,,,,,
,,135911,001,2023-07-31_20h57.41.731,arm3_eps,2022.2.5,Win32,59.88741167,606c6e9f7e86c0264ab3d7d8,64c7fed44a04f777bb1e18ce,64c803ab12bd89c3cdb9aa8b,right,-1,0.75,0.3714,26,-0.010149432,0.9778,,,,,,185,0,185,0,1,,,,,
,,135911,001,2023-07-31_20h57.41.731,arm3_eps,2022.2.5,Win32,59.88741167,606c6e9f7e86c0264ab3d7d8,64c7fed44a04f777bb1e18ce,64c803ab12bd89c3cdb9aa8b,right,-1,0.75,0.3714,26,-0.023218465,0.1984,,,,,,186,0,186,0,1,,,,,
,,135911,001,2023-07-31_20h57.41.731,arm3_eps,2022.2.5,Win32,59.88741167,606c6e9f7e86c0264ab3d7d8,64c7fed44a04f777bb1e18ce,64c803ab12bd89c3cdb9aa8b,right,-1,0.75,0.3714,26,-0.015860298,0.1818,,,,,,187,0,187,0,1,,,,,
,,135911,001,2023-07-31_20h57.41.731,arm3_eps,2022.2.5,Win32,59.88741167,606c6e9f7e86c0264ab3d7d8,64c7fed44a04f777bb1e18ce,64c803ab12bd89c3cdb9aa8b,right,-1,0.75,0.3714,26,-0.010054262,0.66,,,,,,188,0,188,0,1,,,,,
,,135911,001,2023-07-31_20h57.41.731,arm3_eps,2022.2.5,Win32,59.88741167,606c6e9f7e86c0264ab3d7d8,64c7fed44a04f777bb1e18ce,64c803ab12bd89c3cdb9aa8b,right,-1,0.75,0.3714,26,0.001210559,0.5455,,,,,,189,0,189,0,1,,,,,
,,135911,001,2023-07-31_20h57.41.731,arm3_eps,2022.2.5,Win32,59.88741167,606c6e9f7e86c0264ab3d7d8,64c7fed44a04f777bb1e18ce,64c803ab12bd89c3cdb9aa8b,right,-1,0.75,0.3714,26,-0.014784929,0.8197,,,,,,190,0,190,0,1,,,,,
,,135911,001,2023-07-31_20h57.41.731,arm3_eps,2022.2.5,Win32,59.88741167,606c6e9f7e86c0264ab3d7d8,64c7fed44a04f777bb1e18ce,64c803ab12bd89c3cdb9aa8b,down,-1,0.75,0.3714,26,0,0.8492,,,,,,191,0,191,0,1,,,,,
,,135911,001,2023-07-31_20h57.41.731,arm3_eps,2022.2.5,Win32,59.88741167,606c6e9f7e86c0264ab3d7d8,64c7fed44a04f777bb1e18ce,64c803ab12bd89c3cdb9aa8b,right,-1,0.75,0.3714,26,-0.001131749,1.0192,,,,,,192,0,192,0,1,,,,,
,,135911,001,2023-07-31_20h57.41.731,arm3_eps,2022.2.5,Win32,59.88741167,606c6e9f7e86c0264ab3d7d8,64c7fed44a04f777bb1e18ce,64c803ab12bd89c3cdb9aa8b,right,-1,0.75,0.3714,26,0.016850888,0.5892,,,,,,193,0,193,0,1,,,,,
,,135911,001,2023-07-31_20h57.41.731,arm3_eps,2022.2.5,Win32,59.88741167,606c6e9f7e86c0264ab3d7d8,64c7fed44a04f777bb1e18ce,64c803ab12bd89c3cdb9aa8b,right,-1,0.75,0.3714,26,0.008002162,0.5495,,,,,,194,0,194,0,1,,,,,
,,135911,001,2023-07-31_20h57.41.731,arm3_eps,2022.2.5,Win32,59.88741167,606c6e9f7e86c0264ab3d7d8,64c7fed44a04f777bb1e18ce,64c803ab12bd89c3cdb9aa8b,right,-1,0.75,0.3714,26,-0.004971917,0.703,,,,,,195,0,195,0,1,,,,,
,,135911,001,2023-07-31_20h57.41.731,arm3_eps,2022.2.5,Win32,59.88741167,606c6e9f7e86c0264ab3d7d8,64c7fed44a04f777bb1e18ce,64c803ab12bd89c3cdb9aa8b,right,-1,0.75,0.3714,26,-0.001572033,2.4581,,,,,,196,0,196,0,1,,,,,
,,135911,001,2023-07-31_20h57.41.731,arm3_eps,2022.2.5,Win32,59.88741167,606c6e9f7e86c0264ab3d7d8,64c7fed44a04f777bb1e18ce,64c803ab12bd89c3cdb9aa8b,right,-1,0.75,0.3714,26,0.010906002,0.52,,,,,,197,0,197,0,1,,,,,
,,135911,001,2023-07-31_20h57.41.731,arm3_eps,2022.2.5,Win32,59.88741167,606c6e9f7e86c0264ab3d7d8,64c7fed44a04f777bb1e18ce,64c803ab12bd89c3cdb9aa8b,right,-1,0.75,0.3714,26,-0.010982707,0.7158,,,,,,198,0,198,0,1,,,,,
,,135911,001,2023-07-31_20h57.41.731,arm3_eps,2022.2.5,Win32,59.88741167,606c6e9f7e86c0264ab3d7d8,64c7fed44a04f777bb1e18ce,64c803ab12bd89c3cdb9aa8b,right,-1,0.75,0.3714,26,-0.023447194,0.5407,,,,,,199,0,199,0,1,,,,,
,,135911,001,2023-07-31_20h57.41.731,arm3_eps,2022.2.5,Win32,59.88741167,606c6e9f7e86c0264ab3d7d8,64c7fed44a04f777bb1e18ce,64c803ab12bd89c3cdb9aa8b,down,-1,0.75,0.3714,27,0,0.6873,,,,,,200,0,200,0,1,,,,,
,,135911,001,2023-07-31_20h57.41.731,arm3_eps,2022.2.5,Win32,59.88741167,606c6e9f7e86c0264ab3d7d8,64c7fed44a04f777bb1e18ce,64c803ab12bd89c3cdb9aa8b,right,-1,0.75,0.3714,27,0.000627816,1.6559,,,,,,201,0,201,0,1,,,,,
,,135911,001,2023-07-31_20h57.41.731,arm3_eps,2022.2.5,Win32,59.88741167,606c6e9f7e86c0264ab3d7d8,64c7fed44a04f777bb1e18ce,64c803ab12bd89c3cdb9aa8b,right,-1,0.75,0.3714,27,-0.032144609,0.648,,,,,,202,0,202,0,1,,,,,
,,135911,001,2023-07-31_20h57.41.731,arm3_eps,2022.2.5,Win32,59.88741167,606c6e9f7e86c0264ab3d7d8,64c7fed44a04f777bb1e18ce,64c803ab12bd89c3cdb9aa8b,down,1,0.75,0.3714,28,0,0.7256,,,,,,203,0,203,0,1,,,,,
,,135911,001,2023-07-31_20h57.41.731,arm3_eps,2022.2.5,Win32,59.88741167,606c6e9f7e86c0264ab3d7d8,64c7fed44a04f777bb1e18ce,64c803ab12bd89c3cdb9aa8b,right,1,0.75,0.3714,28,0.018297624,1.0125,,,,,,204,0,204,0,1,,,,,
,,135911,001,2023-07-31_20h57.41.731,arm3_eps,2022.2.5,Win32,59.88741167,606c6e9f7e86c0264ab3d7d8,64c7fed44a04f777bb1e18ce,64c803ab12bd89c3cdb9aa8b,right,1,0.75,0.3714,28,0.020986514,0.7027,,,,,,205,0,205,0,1,,,,,
,,135911,001,2023-07-31_20h57.41.731,arm3_eps,2022.2.5,Win32,59.88741167,606c6e9f7e86c0264ab3d7d8,64c7fed44a04f777bb1e18ce,64c803ab12bd89c3cdb9aa8b,up,1,0.75,0.3714,29,0,0.8499,,,,,,206,0,206,0,1,,,,,
,,135911,001,2023-07-31_20h57.41.731,arm3_eps,2022.2.5,Win32,59.88741167,606c6e9f7e86c0264ab3d7d8,64c7fed44a04f777bb1e18ce,64c803ab12bd89c3cdb9aa8b,right,1,0.75,0.3714,29,-0.015542505,0.9158,,,,,,207,0,207,0,1,,,,,
,,135911,001,2023-07-31_20h57.41.731,arm3_eps,2022.2.5,Win32,59.88741167,606c6e9f7e86c0264ab3d7d8,64c7fed44a04f777bb1e18ce,64c803ab12bd89c3cdb9aa8b,right,1,0.75,0.3714,29,-0.003943604,0.2015,,,,,,208,0,208,0,1,,,,,
,,135911,001,2023-07-31_20h57.41.731,arm3_eps,2022.2.5,Win32,59.88741167,606c6e9f7e86c0264ab3d7d8,64c7fed44a04f777bb1e18ce,64c803ab12bd89c3cdb9aa8b,right,1,0.75,0.3714,29,0.017939729,0.5316,,,,,,209,0,209,0,1,,,,,
,,135911,001,2023-07-31_20h57.41.731,arm3_eps,2022.2.5,Win32,59.88741167,606c6e9f7e86c0264ab3d7d8,64c7fed44a04f777bb1e18ce,64c803ab12bd89c3cdb9aa8b,right,1,0.75,0.3714,29,0.022464082,0.5329,,,,,,210,0,210,0,1,,,,,
,,135911,001,2023-07-31_20h57.41.731,arm3_eps,2022.2.5,Win32,59.88741167,606c6e9f7e86c0264ab3d7d8,64c7fed44a04f777bb1e18ce,64c803ab12bd89c3cdb9aa8b,up,1,0.75,0.3714,30,0,0.7093,,,,,,211,0,211,0,1,,,,,
,,135911,001,2023-07-31_20h57.41.731,arm3_eps,2022.2.5,Win32,59.88741167,606c6e9f7e86c0264ab3d7d8,64c7fed44a04f777bb1e18ce,64c803ab12bd89c3cdb9aa8b,right,1,0.75,0.3714,30,0.016331503,0.9122,,,,,,212,0,212,0,1,,,,,
,,135911,001,2023-07-31_20h57.41.731,arm3_eps,2022.2.5,Win32,59.88741167,606c6e9f7e86c0264ab3d7d8,64c7fed44a04f777bb1e18ce,64c803ab12bd89c3cdb9aa8b,right,1,0.75,0.3714,30,0.02736373,0.2351,,,,,,213,0,213,0,1,,,,,
,,135911,001,2023-07-31_20h57.41.731,arm3_eps,2022.2.5,Win32,59.88741167,606c6e9f7e86c0264ab3d7d8,64c7fed44a04f777bb1e18ce,64c803ab12bd89c3cdb9aa8b,up,-1,0.75,0.3714,31,0,0.8489,,,,,,214,0,214,0,1,,,,,
,,135911,001,2023-07-31_20h57.41.731,arm3_eps,2022.2.5,Win32,59.88741167,606c6e9f7e86c0264ab3d7d8,64c7fed44a04f777bb1e18ce,64c803ab12bd89c3cdb9aa8b,right,-1,0.75,0.3714,31,0.02518354,0.9549,,,,,,215,0,215,0,1,,,,,
,,135911,001,2023-07-31_20h57.41.731,arm3_eps,2022.2.5,Win32,59.88741167,606c6e9f7e86c0264ab3d7d8,64c7fed44a04f777bb1e18ce,64c803ab12bd89c3cdb9aa8b,right,-1,0.75,0.3714,31,0.009732069,0.1836,,,,,,216,0,216,0,1,,,,,
,,135911,001,2023-07-31_20h57.41.731,arm3_eps,2022.2.5,Win32,59.88741167,606c6e9f7e86c0264ab3d7d8,64c7fed44a04f777bb1e18ce,64c803ab12bd89c3cdb9aa8b,right,-1,0.75,0.3714,31,0.013995025,0.4882,,,,,,217,0,217,0,1,,,,,
,,135911,001,2023-07-31_20h57.41.731,arm3_eps,2022.2.5,Win32,59.88741167,606c6e9f7e86c0264ab3d7d8,64c7fed44a04f777bb1e18ce,64c803ab12bd89c3cdb9aa8b,right,-1,0.75,0.3714,31,0.001670156,0.5659,,,,,,218,0,218,0,1,,,,,
,,135911,001,2023-07-31_20h57.41.731,arm3_eps,2022.2.5,Win32,59.88741167,606c6e9f7e86c0264ab3d7d8,64c7fed44a04f777bb1e18ce,64c803ab12bd89c3cdb9aa8b,right,-1,0.75,0.3714,31,-0.005454265,0.4608,,,,,,219,0,219,0,1,,,,,
,,135911,001,2023-07-31_20h57.41.731,arm3_eps,2022.2.5,Win32,59.88741167,606c6e9f7e86c0264ab3d7d8,64c7fed44a04f777bb1e18ce,64c803ab12bd89c3cdb9aa8b,right,-1,0.75,0.3714,31,-0.007614619,0.4901,,,,,,220,0,220,0,1,,,,,
,,135911,001,2023-07-31_20h57.41.731,arm3_eps,2022.2.5,Win32,59.88741167,606c6e9f7e86c0264ab3d7d8,64c7fed44a04f777bb1e18ce,64c803ab12bd89c3cdb9aa8b,right,-1,0.75,0.3714,31,-0.013789775,0.4322,,,,,,221,0,221,0,1,,,,,
,,135911,001,2023-07-31_20h57.41.731,arm3_eps,2022.2.5,Win32,59.88741167,606c6e9f7e86c0264ab3d7d8,64c7fed44a04f777bb1e18ce,64c803ab12bd89c3cdb9aa8b,down,-1,0.75,0.3714,31,0,0.7153,,,,,,222,0,222,0,1,,,,,
,,135911,001,2023-07-31_20h57.41.731,arm3_eps,2022.2.5,Win32,59.88741167,606c6e9f7e86c0264ab3d7d8,64c7fed44a04f777bb1e18ce,64c803ab12bd89c3cdb9aa8b,right,-1,0.75,0.3714,31,-0.007716924,1.0821,,,,,,223,0,223,0,1,,,,,
,,135911,001,2023-07-31_20h57.41.731,arm3_eps,2022.2.5,Win32,59.88741167,606c6e9f7e86c0264ab3d7d8,64c7fed44a04f777bb1e18ce,64c803ab12bd89c3cdb9aa8b,right,-1,0.75,0.3714,31,-0.016400548,0.1863,,,,,,224,0,224,0,1,,,,,
,,135911,001,2023-07-31_20h57.41.731,arm3_eps,2022.2.5,Win32,59.88741167,606c6e9f7e86c0264ab3d7d8,64c7fed44a04f777bb1e18ce,64c803ab12bd89c3cdb9aa8b,right,-1,0.75,0.3714,31,-0.032740588,0.1659,,,,,,225,0,225,0,1,,,,,
,,135911,001,2023-07-31_20h57.41.731,arm3_eps,2022.2.5,Win32,59.88741167,606c6e9f7e86c0264ab3d7d8,64c7fed44a04f777bb1e18ce,64c803ab12bd89c3cdb9aa8b,down,-1,0.75,0.3714,31,0,0.6754,,,,,,226,0,226,0,1,,,,,
,,135911,001,2023-07-31_20h57.41.731,arm3_eps,2022.2.5,Win32,59.88741167,606c6e9f7e86c0264ab3d7d8,64c7fed44a04f777bb1e18ce,64c803ab12bd89c3cdb9aa8b,right,-1,0.75,0.3714,31,0.024902816,1.0523,,,,,,227,0,227,0,1,,,,,
,,135911,001,2023-07-31_20h57.41.731,arm3_eps,2022.2.5,Win32,59.88741167,606c6e9f7e86c0264ab3d7d8,64c7fed44a04f777bb1e18ce,64c803ab12bd89c3cdb9aa8b,right,-1,0.75,0.3714,31,0.017483017,0.5492,,,,,,228,0,228,0,1,,,,,
,,135911,001,2023-07-31_20h57.41.731,arm3_eps,2022.2.5,Win32,59.88741167,606c6e9f7e86c0264ab3d7d8,64c7fed44a04f777bb1e18ce,64c803ab12bd89c3cdb9aa8b,right,-1,0.75,0.3714,31,0.003844734,0.6655,,,,,,229,0,229,0,1,,,,,
,,135911,001,2023-07-31_20h57.41.731,arm3_eps,2022.2.5,Win32,59.88741167,606c6e9f7e86c0264ab3d7d8,64c7fed44a04f777bb1e18ce,64c803ab12bd89c3cdb9aa8b,down,-1,0.75,0.3714,31,0,1.0989,,,,,,230,0,230,0,1,,,,,
,,135911,001,2023-07-31_20h57.41.731,arm3_eps,2022.2.5,Win32,59.88741167,606c6e9f7e86c0264ab3d7d8,64c7fed44a04f777bb1e18ce,64c803ab12bd89c3cdb9aa8b,right,-1,0.75,0.3714,31,-0.007146351,1.0192,,,,,,231,0,231,0,1,,,,,
,,135911,001,2023-07-31_20h57.41.731,arm3_eps,2022.2.5,Win32,59.88741167,606c6e9f7e86c0264ab3d7d8,64c7fed44a04f777bb1e18ce,64c803ab12bd89c3cdb9aa8b,right,-1,0.75,0.3714,31,0.000450168,0.4457,,,,,,232,0,232,0,1,,,,,
,,135911,001,2023-07-31_20h57.41.731,arm3_eps,2022.2.5,Win32,59.88741167,606c6e9f7e86c0264ab3d7d8,64c7fed44a04f777bb1e18ce,64c803ab12bd89c3cdb9aa8b,right,-1,0.75,0.3714,31,-0.002697796,0.3825,,,,,,233,0,233,0,1,,,,,
,,135911,001,2023-07-31_20h57.41.731,arm3_eps,2022.2.5,Win32,59.88741167,606c6e9f7e86c0264ab3d7d8,64c7fed44a04f777bb1e18ce,64c803ab12bd89c3cdb9aa8b,right,-1,0.75,0.3714,31,-0.009880439,0.5708,,,,,,234,0,234,0,1,,,,,
,,135911,001,2023-07-31_20h57.41.731,arm3_eps,2022.2.5,Win32,59.88741167,606c6e9f7e86c0264ab3d7d8,64c7fed44a04f777bb1e18ce,64c803ab12bd89c3cdb9aa8b,right,-1,0.75,0.3714,31,-0.005003482,1.2762,,,,,,235,0,235,0,1,,,,,
,,135911,001,2023-07-31_20h57.41.731,arm3_eps,2022.2.5,Win32,59.88741167,606c6e9f7e86c0264ab3d7d8,64c7fed44a04f777bb1e18ce,64c803ab12bd89c3cdb9aa8b,down,-1,0.75,0.3714,31,0,1.1157,,,,,,236,0,236,0,1,,,,,
,,135911,001,2023-07-31_20h57.41.731,arm3_eps,2022.2.5,Win32,59.88741167,606c6e9f7e86c0264ab3d7d8,64c7fed44a04f777bb1e18ce,64c803ab12bd89c3cdb9aa8b,right,-1,0.75,0.3714,31,-0.023604339,1.0238,,,,,,237,0,237,0,1,,,,,
,,135911,001,2023-07-31_20h57.41.731,arm3_eps,2022.2.5,Win32,59.88741167,606c6e9f7e86c0264ab3d7d8,64c7fed44a04f777bb1e18ce,64c803ab12bd89c3cdb9aa8b,down,-1,0.75,0.3714,32,0,0.8101,,,,,,238,0,238,0,1,,,,,
,,135911,001,2023-07-31_20h57.41.731,arm3_eps,2022.2.5,Win32,59.88741167,606c6e9f7e86c0264ab3d7d8,64c7fed44a04f777bb1e18ce,64c803ab12bd89c3cdb9aa8b,right,-1,0.75,0.3714,32,-0.005780418,1.1974,,,,,,239,0,239,0,1,,,,,
,,135911,001,2023-07-31_20h57.41.731,arm3_eps,2022.2.5,Win32,59.88741167,606c6e9f7e86c0264ab3d7d8,64c7fed44a04f777bb1e18ce,64c803ab12bd89c3cdb9aa8b,down,-1,0.75,0.3714,33,0,0.9286,,,,,,240,0,240,0,1,,,,,
,,135911,001,2023-07-31_20h57.41.731,arm3_eps,2022.2.5,Win32,59.88741167,606c6e9f7e86c0264ab3d7d8,64c7fed44a04f777bb1e18ce,64c803ab12bd89c3cdb9aa8b,right,-1,0.75,0.3714,33,-0.040182374,0.9292,,,,,,241,0,241,0,1,,,,,
,,135911,001,2023-07-31_20h57.41.731,arm3_eps,2022.2.5,Win32,59.88741167,606c6e9f7e86c0264ab3d7d8,64c7fed44a04f777bb1e18ce,64c803ab12bd89c3cdb9aa8b,down,-1,0.75,0.3714,34,0,0.765,,,,,,242,0,242,0,1,,,,,
,,135911,001,2023-07-31_20h57.41.731,arm3_eps,2022.2.5,Win32,59.88741167,606c6e9f7e86c0264ab3d7d8,64c7fed44a04f777bb1e18ce,64c803ab12bd89c3cdb9aa8b,right,-1,0.75,0.3714,34,-0.01212684,1.5612,,,,,,243,0,243,0,1,,,,,
,,135911,001,2023-07-31_20h57.41.731,arm3_eps,2022.2.5,Win32,59.88741167,606c6e9f7e86c0264ab3d7d8,64c7fed44a04f777bb1e18ce,64c803ab12bd89c3cdb9aa8b,right,-1,0.75,0.3714,34,0.007938729,0.5024,,,,,,244,0,244,0,1,,,,,
,,135911,001,2023-07-31_20h57.41.731,arm3_eps,2022.2.5,Win32,59.88741167,606c6e9f7e86c0264ab3d7d8,64c7fed44a04f777bb1e18ce,64c803ab12bd89c3cdb9aa8b,right,-1,0.75,0.3714,34,-0.005848032,0.465,,,,,,245,0,245,0,1,,,,,
,,135911,001,2023-07-31_20h57.41.731,arm3_eps,2022.2.5,Win32,59.88741167,606c6e9f7e86c0264ab3d7d8,64c7fed44a04f777bb1e18ce,64c803ab12bd89c3cdb9aa8b,right,-1,0.75,0.3714,34,-0.015838423,0.7579,,,,,,246,0,246,0,1,,,,,
,,135911,001,2023-07-31_20h57.41.731,arm3_eps,2022.2.5,Win32,59.88741167,606c6e9f7e86c0264ab3d7d8,64c7fed44a04f777bb1e18ce,64c803ab12bd89c3cdb9aa8b,right,-1,0.75,0.3714,34,-0.015549677,0.576,,,,,,247,0,247,0,1,,,,,
,,135911,001,2023-07-31_20h57.41.731,arm3_eps,2022.2.5,Win32,59.88741167,606c6e9f7e86c0264ab3d7d8,64c7fed44a04f777bb1e18ce,64c803ab12bd89c3cdb9aa8b,right,-1,0.75,0.3714,34,-0.019038155,0.632,,,,,,248,0,248,0,1,,,,,
,,135911,001,2023-07-31_20h57.41.731,arm3_eps,2022.2.5,Win32,59.88741167,606c6e9f7e86c0264ab3d7d8,64c7fed44a04f777bb1e18ce,64c803ab12bd89c3cdb9aa8b,down,1,0.75,0.3714,34,0,0.599,,,,,,249,0,249,0,1,,,,,
,,135911,001,2023-07-31_20h57.41.731,arm3_eps,2022.2.5,Win32,59.88741167,606c6e9f7e86c0264ab3d7d8,64c7fed44a04f777bb1e18ce,64c803ab12bd89c3cdb9aa8b,right,1,0.75,0.3714,34,-0.001055203,1.0172,,,,,,250,0,250,0,1,,,,,
,,135911,001,2023-07-31_20h57.41.731,arm3_eps,2022.2.5,Win32,59.88741167,606c6e9f7e86c0264ab3d7d8,64c7fed44a04f777bb1e18ce,64c803ab12bd89c3cdb9aa8b,right,1,0.75,0.3714,34,0.019379588,0.2033,,,,,,251,0,251,0,1,,,,,
,,135911,001,2023-07-31_20h57.41.731,arm3_eps,2022.2.5,Win32,59.88741167,606c6e9f7e86c0264ab3d7d8,64c7fed44a04f777bb1e18ce,64c803ab12bd89c3cdb9aa8b,up,-1,0.75,0.3714,35,0,0.9325,,,,,,252,0,252,0,1,,,,,
,,135911,001,2023-07-31_20h57.41.731,arm3_eps,2022.2.5,Win32,59.88741167,606c6e9f7e86c0264ab3d7d8,64c7fed44a04f777bb1e18ce,64c803ab12bd89c3cdb9aa8b,right,-1,0.75,0.3714,35,-0.00971111,0.8813,,,,,,253,0,253,0,1,,,,,
,,135911,001,2023-07-31_20h57.41.731,arm3_eps,2022.2.5,Win32,59.88741167,606c6e9f7e86c0264ab3d7d8,64c7fed44a04f777bb1e18ce,64c803ab12bd89c3cdb9aa8b,right,-1,0.75,0.3714,35,-0.041853874,0.2013,,,,,,254,0,254,0,1,,,,,
,,135911,001,2023-07-31_20h57.41.731,arm3_eps,2022.2.5,Win32,59.88741167,606c6e9f7e86c0264ab3d7d8,64c7fed44a04f777bb1e18ce,64c803ab12bd89c3cdb9aa8b,down,-1,0.75,0.3714,36,0,0.641,,,,,,255,0,255,0,1,,,,,
,,135911,001,2023-07-31_20h57.41.731,arm3_eps,2022.2.5,Win32,59.88741167,606c6e9f7e86c0264ab3d7d8,64c7fed44a04f777bb1e18ce,64c803ab12bd89c3cdb9aa8b,right,-1,0.75,0.3714,36,-0.001354464,1.1722,,,,,,256,0,256,0,1,,,,,
,,135911,001,2023-07-31_20h57.41.731,arm3_eps,2022.2.5,Win32,59.88741167,606c6e9f7e86c0264ab3d7d8,64c7fed44a04f777bb1e18ce,64c803ab12bd89c3cdb9aa8b,right,-1,0.75,0.3714,36,-0.010309868,0.6485,,,,,,257,0,257,0,1,,,,,
