space_bar.keys,space_bar.rt,participant,session,date,expName,psychopyVersion,OS,frameRate,PROLIFIC_PID,STUDY_ID,SESSION_ID,resp.keys,state,q_prob,eps_prob,score,price,resp.rt,train.thisRepN,train.thisTrialN,train.thisN,train.thisIndex,train.ran,steps.thisRepN,steps.thisTrialN,steps.thisN,steps.thisIndex,steps.ran,blocks.thisRepN,blocks.thisTrialN,blocks.thisN,blocks.thisIndex,blocks.ran
space,23.108,151143,001,2023-07-31_20h48.30.634,arm3_eps,2022.2.5,Win32,59.95203837,597866321cb0370001f56015,64c7fed44a04f777bb1e18ce,64c801501ee09f812973950f,,,,,,,,,,,,,,,,,,,,,,
space,4.23,151143,001,2023-07-31_20h48.30.634,arm3_eps,2022.2.5,Win32,59.95203837,597866321cb0370001f56015,64c7fed44a04f777bb1e18ce,64c801501ee09f812973950f,,,,,,,,,,,,,,,,,,,,,,
space,20.157,151143,001,2023-07-31_20h48.30.634,arm3_eps,2022.2.5,Win32,59.95203837,597866321cb0370001f56015,64c7fed44a04f777bb1e18ce,64c801501ee09f812973950f,,,,,,,,,,,,,,,,,,,,,,
space,14.173,151143,001,2023-07-31_20h48.30.634,arm3_eps,2022.2.5,Win32,59.95203837,597866321cb0370001f56015,64c7fed44a04f777bb1e18ce,64c801501ee09f812973950f,,,,,,,,,,,,,,,,,,,,,,
space,17.614,151143,001,2023-07-31_20h48.30.634,arm3_eps,2022.2.5,Win32,59.95203837,597866321cb0370001f56015,64c7fed44a04f777bb1e18ce,64c801501ee09f812973950f,,,,,,,,,,,,,,,,,,,,,,
space,13.132,151143,001,2023-07-31_20h48.30.634,arm3_eps,2022.2.5,Win32,59.95203837,597866321cb0370001f56015,64c7fed44a04f777bb1e18ce,64c801501ee09f812973950f,,,,,,,,,,,,,,,,,,,,,,
space,1.451,151143,001,2023-07-31_20h48.30.634,arm3_eps,2022.2.5,Win32,59.95203837,597866321cb0370001f56015,64c7fed44a04f777bb1e18ce,64c801501ee09f812973950f,,,,,,,,,,,,,,,,,,,,,,
,,151143,001,2023-07-31_20h48.30.634,arm3_eps,2022.2.5,Win32,59.95203837,597866321cb0370001f56015,64c7fed44a04f777bb1e18ce,64c801501ee09f812973950f,right,-1,1,0.2429,0,0.008326167,3.772,0,0,0,0,1,,,,,,,,,,
,,151143,001,2023-07-31_20h48.30.634,arm3_eps,2022.2.5,Win32,59.95203837,597866321cb0370001f56015,64c7fed44a04f777bb1e18ce,64c801501ee09f812973950f,right,-1,1,0.2429,0,-0.009362187,7.367,1,0,1,0,1,,,,,,,,,,
,,151143,001,2023-07-31_20h48.30.634,arm3_eps,2022.2.5,Win32,59.95203837,597866321cb0370001f56015,64c7fed44a04f777bb1e18ce,64c801501ee09f812973950f,down,-1,1,0.2429,1,0,2.705,2,0,2,0,1,,,,,,,,,,
,,151143,001,2023-07-31_20h48.30.634,arm3_eps,2022.2.5,Win32,59.95203837,597866321cb0370001f56015,64c7fed44a04f777bb1e18ce,64c801501ee09f812973950f,right,-1,1,0.2429,1,0.002453764,2.868,3,0,3,0,1,,,,,,,,,,
,,151143,001,2023-07-31_20h48.30.634,arm3_eps,2022.2.5,Win32,59.95203837,597866321cb0370001f56015,64c7fed44a04f777bb1e18ce,64c801501ee09f812973950f,right,-1,1,0.2429,1,0.017686915,0.956,4,0,4,0,1,,,,,,,,,,
,,151143,001,2023-07-31_20h48.30.634,arm3_eps,2022.2.5,Win32,59.95203837,597866321cb0370001f56015,64c7fed44a04f777bb1e18ce,64c801501ee09f812973950f,right,-1,1,0.2429,1,-0.004875383,0.836,5,0,5,0,1,,,,,,,,,,
,,151143,001,2023-07-31_20h48.30.634,arm3_eps,2022.2.5,Win32,59.95203837,597866321cb0370001f56015,64c7fed44a04f777bb1e18ce,64c801501ee09f812973950f,right,-1,1,0.2429,1,-0.008409323,0.637,6,0,6,0,1,,,,,,,,,,
,,151143,001,2023-07-31_20h48.30.634,arm3_eps,2022.2.5,Win32,59.95203837,597866321cb0370001f56015,64c7fed44a04f777bb1e18ce,64c801501ee09f812973950f,down,1,1,0.2429,2,0,1.422,7,0,7,0,1,,,,,,,,,,
,,151143,001,2023-07-31_20h48.30.634,arm3_eps,2022.2.5,Win32,59.95203837,597866321cb0370001f56015,64c7fed44a04f777bb1e18ce,64c801501ee09f812973950f,right,1,1,0.2429,2,0.016050471,5.194,8,0,8,0,1,,,,,,,,,,
,,151143,001,2023-07-31_20h48.30.634,arm3_eps,2022.2.5,Win32,59.95203837,597866321cb0370001f56015,64c7fed44a04f777bb1e18ce,64c801501ee09f812973950f,right,1,1,0.2429,2,0.012233038,0.684,9,0,9,0,1,,,,,,,,,,
,,151143,001,2023-07-31_20h48.30.634,arm3_eps,2022.2.5,Win32,59.95203837,597866321cb0370001f56015,64c7fed44a04f777bb1e18ce,64c801501ee09f812973950f,right,1,1,0.2429,2,0.020772114,0.538,10,0,10,0,1,,,,,,,,,,
,,151143,001,2023-07-31_20h48.30.634,arm3_eps,2022.2.5,Win32,59.95203837,597866321cb0370001f56015,64c7fed44a04f777bb1e18ce,64c801501ee09f812973950f,right,1,1,0.2429,2,0.017836653,0.519,11,0,11,0,1,,,,,,,,,,
,,151143,001,2023-07-31_20h48.30.634,arm3_eps,2022.2.5,Win32,59.95203837,597866321cb0370001f56015,64c7fed44a04f777bb1e18ce,64c801501ee09f812973950f,right,1,1,0.2429,2,0.010650111,0.52,12,0,12,0,1,,,,,,,,,,
,,151143,001,2023-07-31_20h48.30.634,arm3_eps,2022.2.5,Win32,59.95203837,597866321cb0370001f56015,64c7fed44a04f777bb1e18ce,64c801501ee09f812973950f,right,1,1,0.2429,2,0.045879832,1.306,13,0,13,0,1,,,,,,,,,,
,,151143,001,2023-07-31_20h48.30.634,arm3_eps,2022.2.5,Win32,59.95203837,597866321cb0370001f56015,64c7fed44a04f777bb1e18ce,64c801501ee09f812973950f,right,1,1,0.2429,2,0.044380807,0.69,14,0,14,0,1,,,,,,,,,,
,,151143,001,2023-07-31_20h48.30.634,arm3_eps,2022.2.5,Win32,59.95203837,597866321cb0370001f56015,64c7fed44a04f777bb1e18ce,64c801501ee09f812973950f,up,1,1,0.2429,3,0,1.004,15,0,15,0,1,,,,,,,,,,
,,151143,001,2023-07-31_20h48.30.634,arm3_eps,2022.2.5,Win32,59.95203837,597866321cb0370001f56015,64c7fed44a04f777bb1e18ce,64c801501ee09f812973950f,right,1,1,0.2429,3,0.034108159,1.79,16,0,16,0,1,,,,,,,,,,
,,151143,001,2023-07-31_20h48.30.634,arm3_eps,2022.2.5,Win32,59.95203837,597866321cb0370001f56015,64c7fed44a04f777bb1e18ce,64c801501ee09f812973950f,right,1,1,0.2429,3,0.031858682,1.106,17,0,17,0,1,,,,,,,,,,
,,151143,001,2023-07-31_20h48.30.634,arm3_eps,2022.2.5,Win32,59.95203837,597866321cb0370001f56015,64c7fed44a04f777bb1e18ce,64c801501ee09f812973950f,right,1,1,0.2429,3,0.03774194,1.522,18,0,18,0,1,,,,,,,,,,
,,151143,001,2023-07-31_20h48.30.634,arm3_eps,2022.2.5,Win32,59.95203837,597866321cb0370001f56015,64c7fed44a04f777bb1e18ce,64c801501ee09f812973950f,right,1,1,0.2429,3,0.054848874,0.439,19,0,19,0,1,,,,,,,,,,
,,151143,001,2023-07-31_20h48.30.634,arm3_eps,2022.2.5,Win32,59.95203837,597866321cb0370001f56015,64c7fed44a04f777bb1e18ce,64c801501ee09f812973950f,up,1,1,0.2429,4,0,0.413,20,0,20,0,1,,,,,,,,,,
,,151143,001,2023-07-31_20h48.30.634,arm3_eps,2022.2.5,Win32,59.95203837,597866321cb0370001f56015,64c7fed44a04f777bb1e18ce,64c801501ee09f812973950f,right,1,1,0.2429,4,0.009961282,1.083,21,0,21,0,1,,,,,,,,,,
,,151143,001,2023-07-31_20h48.30.634,arm3_eps,2022.2.5,Win32,59.95203837,597866321cb0370001f56015,64c7fed44a04f777bb1e18ce,64c801501ee09f812973950f,right,1,1,0.2429,4,0.020107462,0.756,22,0,22,0,1,,,,,,,,,,
,,151143,001,2023-07-31_20h48.30.634,arm3_eps,2022.2.5,Win32,59.95203837,597866321cb0370001f56015,64c7fed44a04f777bb1e18ce,64c801501ee09f812973950f,up,1,1,0.2429,5,0,0.383,23,0,23,0,1,,,,,,,,,,
,,151143,001,2023-07-31_20h48.30.634,arm3_eps,2022.2.5,Win32,59.95203837,597866321cb0370001f56015,64c7fed44a04f777bb1e18ce,64c801501ee09f812973950f,right,1,1,0.2429,5,0.047106904,0.723,24,0,24,0,1,,,,,,,,,,
,,151143,001,2023-07-31_20h48.30.634,arm3_eps,2022.2.5,Win32,59.95203837,597866321cb0370001f56015,64c7fed44a04f777bb1e18ce,64c801501ee09f812973950f,right,1,1,0.2429,5,0.077783821,0.804,25,0,25,0,1,,,,,,,,,,
,,151143,001,2023-07-31_20h48.30.634,arm3_eps,2022.2.5,Win32,59.95203837,597866321cb0370001f56015,64c7fed44a04f777bb1e18ce,64c801501ee09f812973950f,right,1,1,0.2429,5,0.071676487,0.674,26,0,26,0,1,,,,,,,,,,
,,151143,001,2023-07-31_20h48.30.634,arm3_eps,2022.2.5,Win32,59.95203837,597866321cb0370001f56015,64c7fed44a04f777bb1e18ce,64c801501ee09f812973950f,right,1,1,0.2429,5,0.072741571,1.019,27,0,27,0,1,,,,,,,,,,
,,151143,001,2023-07-31_20h48.30.634,arm3_eps,2022.2.5,Win32,59.95203837,597866321cb0370001f56015,64c7fed44a04f777bb1e18ce,64c801501ee09f812973950f,up,1,1,0.2429,6,0,0.636,28,0,28,0,1,,,,,,,,,,
,,151143,001,2023-07-31_20h48.30.634,arm3_eps,2022.2.5,Win32,59.95203837,597866321cb0370001f56015,64c7fed44a04f777bb1e18ce,64c801501ee09f812973950f,right,1,1,0.2429,6,-0.001118184,1.39,29,0,29,0,1,,,,,,,,,,
,,151143,001,2023-07-31_20h48.30.634,arm3_eps,2022.2.5,Win32,59.95203837,597866321cb0370001f56015,64c7fed44a04f777bb1e18ce,64c801501ee09f812973950f,right,1,1,0.2429,6,-0.000726767,0.92,30,0,30,0,1,,,,,,,,,,
,,151143,001,2023-07-31_20h48.30.634,arm3_eps,2022.2.5,Win32,59.95203837,597866321cb0370001f56015,64c7fed44a04f777bb1e18ce,64c801501ee09f812973950f,right,1,1,0.2429,6,0.034849407,0.504,31,0,31,0,1,,,,,,,,,,
,,151143,001,2023-07-31_20h48.30.634,arm3_eps,2022.2.5,Win32,59.95203837,597866321cb0370001f56015,64c7fed44a04f777bb1e18ce,64c801501ee09f812973950f,right,1,1,0.2429,6,0.05148496,0.787,32,0,32,0,1,,,,,,,,,,
,,151143,001,2023-07-31_20h48.30.634,arm3_eps,2022.2.5,Win32,59.95203837,597866321cb0370001f56015,64c7fed44a04f777bb1e18ce,64c801501ee09f812973950f,right,1,1,0.2429,6,0.056950507,0.503,33,0,33,0,1,,,,,,,,,,
,,151143,001,2023-07-31_20h48.30.634,arm3_eps,2022.2.5,Win32,59.95203837,597866321cb0370001f56015,64c7fed44a04f777bb1e18ce,64c801501ee09f812973950f,up,1,1,0.2429,7,0,0.972,34,0,34,0,1,,,,,,,,,,
,,151143,001,2023-07-31_20h48.30.634,arm3_eps,2022.2.5,Win32,59.95203837,597866321cb0370001f56015,64c7fed44a04f777bb1e18ce,64c801501ee09f812973950f,right,1,1,0.2429,7,0.013994731,2.835,35,0,35,0,1,,,,,,,,,,
,,151143,001,2023-07-31_20h48.30.634,arm3_eps,2022.2.5,Win32,59.95203837,597866321cb0370001f56015,64c7fed44a04f777bb1e18ce,64c801501ee09f812973950f,right,1,1,0.2429,7,0.052775388,0.554,36,0,36,0,1,,,,,,,,,,
,,151143,001,2023-07-31_20h48.30.634,arm3_eps,2022.2.5,Win32,59.95203837,597866321cb0370001f56015,64c7fed44a04f777bb1e18ce,64c801501ee09f812973950f,right,1,1,0.2429,7,0.078313193,0.453,37,0,37,0,1,,,,,,,,,,
,,151143,001,2023-07-31_20h48.30.634,arm3_eps,2022.2.5,Win32,59.95203837,597866321cb0370001f56015,64c7fed44a04f777bb1e18ce,64c801501ee09f812973950f,right,1,1,0.2429,7,0.097827515,0.422,38,0,38,0,1,,,,,,,,,,
,,151143,001,2023-07-31_20h48.30.634,arm3_eps,2022.2.5,Win32,59.95203837,597866321cb0370001f56015,64c7fed44a04f777bb1e18ce,64c801501ee09f812973950f,up,1,1,0.2429,8,0,0.485,39,0,39,0,1,,,,,,,,,,
,,151143,001,2023-07-31_20h48.30.634,arm3_eps,2022.2.5,Win32,59.95203837,597866321cb0370001f56015,64c7fed44a04f777bb1e18ce,64c801501ee09f812973950f,right,1,1,0.2429,8,-0.009318263,1.483,40,0,40,0,1,,,,,,,,,,
,,151143,001,2023-07-31_20h48.30.634,arm3_eps,2022.2.5,Win32,59.95203837,597866321cb0370001f56015,64c7fed44a04f777bb1e18ce,64c801501ee09f812973950f,right,1,1,0.2429,8,0.002217339,0.492,41,0,41,0,1,,,,,,,,,,
,,151143,001,2023-07-31_20h48.30.634,arm3_eps,2022.2.5,Win32,59.95203837,597866321cb0370001f56015,64c7fed44a04f777bb1e18ce,64c801501ee09f812973950f,right,1,1,0.2429,8,0.016084287,0.434,42,0,42,0,1,,,,,,,,,,
,,151143,001,2023-07-31_20h48.30.634,arm3_eps,2022.2.5,Win32,59.95203837,597866321cb0370001f56015,64c7fed44a04f777bb1e18ce,64c801501ee09f812973950f,right,1,1,0.2429,8,0.05267051,0.334,43,0,43,0,1,,,,,,,,,,
,,151143,001,2023-07-31_20h48.30.634,arm3_eps,2022.2.5,Win32,59.95203837,597866321cb0370001f56015,64c7fed44a04f777bb1e18ce,64c801501ee09f812973950f,right,1,1,0.2429,8,0.053016487,0.586,44,0,44,0,1,,,,,,,,,,
,,151143,001,2023-07-31_20h48.30.634,arm3_eps,2022.2.5,Win32,59.95203837,597866321cb0370001f56015,64c7fed44a04f777bb1e18ce,64c801501ee09f812973950f,right,1,1,0.2429,8,0.059988921,0.486,45,0,45,0,1,,,,,,,,,,
,,151143,001,2023-07-31_20h48.30.634,arm3_eps,2022.2.5,Win32,59.95203837,597866321cb0370001f56015,64c7fed44a04f777bb1e18ce,64c801501ee09f812973950f,right,1,1,0.2429,8,0.041842102,0.505,46,0,46,0,1,,,,,,,,,,
,,151143,001,2023-07-31_20h48.30.634,arm3_eps,2022.2.5,Win32,59.95203837,597866321cb0370001f56015,64c7fed44a04f777bb1e18ce,64c801501ee09f812973950f,up,1,1,0.2429,9,0,0.722,47,0,47,0,1,,,,,,,,,,
,,151143,001,2023-07-31_20h48.30.634,arm3_eps,2022.2.5,Win32,59.95203837,597866321cb0370001f56015,64c7fed44a04f777bb1e18ce,64c801501ee09f812973950f,right,1,1,0.2429,9,-0.000977234,3.037,48,0,48,0,1,,,,,,,,,,
,,151143,001,2023-07-31_20h48.30.634,arm3_eps,2022.2.5,Win32,59.95203837,597866321cb0370001f56015,64c7fed44a04f777bb1e18ce,64c801501ee09f812973950f,right,1,1,0.2429,9,0.014384043,1.19,49,0,49,0,1,,,,,,,,,,
space,23.766,151143,001,2023-07-31_20h48.30.634,arm3_eps,2022.2.5,Win32,59.95203837,597866321cb0370001f56015,64c7fed44a04f777bb1e18ce,64c801501ee09f812973950f,,,,,,,,,,,,,,,,,,,,,,
space,16.384,151143,001,2023-07-31_20h48.30.634,arm3_eps,2022.2.5,Win32,59.95203837,597866321cb0370001f56015,64c7fed44a04f777bb1e18ce,64c801501ee09f812973950f,,,,,,,,,,,,,,,,,,,,,,
space,11.232,151143,001,2023-07-31_20h48.30.634,arm3_eps,2022.2.5,Win32,59.95203837,597866321cb0370001f56015,64c7fed44a04f777bb1e18ce,64c801501ee09f812973950f,,,,,,,,,,,,,,,,,,,,,,
space,3.212,151143,001,2023-07-31_20h48.30.634,arm3_eps,2022.2.5,Win32,59.95203837,597866321cb0370001f56015,64c7fed44a04f777bb1e18ce,64c801501ee09f812973950f,,,,,,,,,,,,,,,,,,,,,,
space,5.707,151143,001,2023-07-31_20h48.30.634,arm3_eps,2022.2.5,Win32,59.95203837,597866321cb0370001f56015,64c7fed44a04f777bb1e18ce,64c801501ee09f812973950f,,,,,,,,,,,,,,,,,,,,,,
space,1.67,151143,001,2023-07-31_20h48.30.634,arm3_eps,2022.2.5,Win32,59.95203837,597866321cb0370001f56015,64c7fed44a04f777bb1e18ce,64c801501ee09f812973950f,,,,,,,,,,,,,,,,,,,,,,
,,151143,001,2023-07-31_20h48.30.634,arm3_eps,2022.2.5,Win32,59.95203837,597866321cb0370001f56015,64c7fed44a04f777bb1e18ce,64c801501ee09f812973950f,right,1,0.75,0.2429,0,0.025451931,1.592,0,0,0,0,1,,,,,,,,,,
,,151143,001,2023-07-31_20h48.30.634,arm3_eps,2022.2.5,Win32,59.95203837,597866321cb0370001f56015,64c7fed44a04f777bb1e18ce,64c801501ee09f812973950f,right,1,0.75,0.2429,0,0.057851177,0.75,1,0,1,0,1,,,,,,,,,,
,,151143,001,2023-07-31_20h48.30.634,arm3_eps,2022.2.5,Win32,59.95203837,597866321cb0370001f56015,64c7fed44a04f777bb1e18ce,64c801501ee09f812973950f,right,1,0.75,0.2429,0,0.069379085,0.502,2,0,2,0,1,,,,,,,,,,
,,151143,001,2023-07-31_20h48.30.634,arm3_eps,2022.2.5,Win32,59.95203837,597866321cb0370001f56015,64c7fed44a04f777bb1e18ce,64c801501ee09f812973950f,right,1,0.75,0.2429,0,0.036565475,0.601,3,0,3,0,1,,,,,,,,,,
,,151143,001,2023-07-31_20h48.30.634,arm3_eps,2022.2.5,Win32,59.95203837,597866321cb0370001f56015,64c7fed44a04f777bb1e18ce,64c801501ee09f812973950f,up,1,0.75,0.2429,1,0,0.55,4,0,4,0,1,,,,,,,,,,
,,151143,001,2023-07-31_20h48.30.634,arm3_eps,2022.2.5,Win32,59.95203837,597866321cb0370001f56015,64c7fed44a04f777bb1e18ce,64c801501ee09f812973950f,right,1,0.75,0.2429,1,0.002938123,2.481,5,0,5,0,1,,,,,,,,,,
,,151143,001,2023-07-31_20h48.30.634,arm3_eps,2022.2.5,Win32,59.95203837,597866321cb0370001f56015,64c7fed44a04f777bb1e18ce,64c801501ee09f812973950f,right,1,0.75,0.2429,1,0.015956335,0.564,6,0,6,0,1,,,,,,,,,,
,,151143,001,2023-07-31_20h48.30.634,arm3_eps,2022.2.5,Win32,59.95203837,597866321cb0370001f56015,64c7fed44a04f777bb1e18ce,64c801501ee09f812973950f,right,1,0.75,0.2429,1,0.020355359,0.523,7,0,7,0,1,,,,,,,,,,
,,151143,001,2023-07-31_20h48.30.634,arm3_eps,2022.2.5,Win32,59.95203837,597866321cb0370001f56015,64c7fed44a04f777bb1e18ce,64c801501ee09f812973950f,up,1,0.75,0.2429,1,0,0.5,8,0,8,0,1,,,,,,,,,,
,,151143,001,2023-07-31_20h48.30.634,arm3_eps,2022.2.5,Win32,59.95203837,597866321cb0370001f56015,64c7fed44a04f777bb1e18ce,64c801501ee09f812973950f,right,1,0.75,0.2429,1,-0.002768131,2.112,9,0,9,0,1,,,,,,,,,,
,,151143,001,2023-07-31_20h48.30.634,arm3_eps,2022.2.5,Win32,59.95203837,597866321cb0370001f56015,64c7fed44a04f777bb1e18ce,64c801501ee09f812973950f,right,1,0.75,0.2429,1,-0.002980566,0.373,10,0,10,0,1,,,,,,,,,,
,,151143,001,2023-07-31_20h48.30.634,arm3_eps,2022.2.5,Win32,59.95203837,597866321cb0370001f56015,64c7fed44a04f777bb1e18ce,64c801501ee09f812973950f,right,1,0.75,0.2429,1,0.00176981,0.397,11,0,11,0,1,,,,,,,,,,
,,151143,001,2023-07-31_20h48.30.634,arm3_eps,2022.2.5,Win32,59.95203837,597866321cb0370001f56015,64c7fed44a04f777bb1e18ce,64c801501ee09f812973950f,right,1,0.75,0.2429,1,0.011680002,0.468,12,0,12,0,1,,,,,,,,,,
,,151143,001,2023-07-31_20h48.30.634,arm3_eps,2022.2.5,Win32,59.95203837,597866321cb0370001f56015,64c7fed44a04f777bb1e18ce,64c801501ee09f812973950f,right,1,0.75,0.2429,1,0.016454775,0.433,13,0,13,0,1,,,,,,,,,,
,,151143,001,2023-07-31_20h48.30.634,arm3_eps,2022.2.5,Win32,59.95203837,597866321cb0370001f56015,64c7fed44a04f777bb1e18ce,64c801501ee09f812973950f,up,-1,0.75,0.2429,1,0,0.352,14,0,14,0,1,,,,,,,,,,
,,151143,001,2023-07-31_20h48.30.634,arm3_eps,2022.2.5,Win32,59.95203837,597866321cb0370001f56015,64c7fed44a04f777bb1e18ce,64c801501ee09f812973950f,right,-1,0.75,0.2429,1,-0.03545151,1.372,15,0,15,0,1,,,,,,,,,,
,,151143,001,2023-07-31_20h48.30.634,arm3_eps,2022.2.5,Win32,59.95203837,597866321cb0370001f56015,64c7fed44a04f777bb1e18ce,64c801501ee09f812973950f,right,-1,0.75,0.2429,1,-0.050479995,0.45,16,0,16,0,1,,,,,,,,,,
,,151143,001,2023-07-31_20h48.30.634,arm3_eps,2022.2.5,Win32,59.95203837,597866321cb0370001f56015,64c7fed44a04f777bb1e18ce,64c801501ee09f812973950f,right,-1,0.75,0.2429,1,-0.051686314,0.679,17,0,17,0,1,,,,,,,,,,
,,151143,001,2023-07-31_20h48.30.634,arm3_eps,2022.2.5,Win32,59.95203837,597866321cb0370001f56015,64c7fed44a04f777bb1e18ce,64c801501ee09f812973950f,up,-1,0.75,0.2429,0,0,0.805,18,0,18,0,1,,,,,,,,,,
,,151143,001,2023-07-31_20h48.30.634,arm3_eps,2022.2.5,Win32,59.95203837,597866321cb0370001f56015,64c7fed44a04f777bb1e18ce,64c801501ee09f812973950f,right,-1,0.75,0.2429,0,0.017880701,1.266,19,0,19,0,1,,,,,,,,,,
,,151143,001,2023-07-31_20h48.30.634,arm3_eps,2022.2.5,Win32,59.95203837,597866321cb0370001f56015,64c7fed44a04f777bb1e18ce,64c801501ee09f812973950f,right,-1,0.75,0.2429,0,0.000289411,2.383,20,0,20,0,1,,,,,,,,,,
,,151143,001,2023-07-31_20h48.30.634,arm3_eps,2022.2.5,Win32,59.95203837,597866321cb0370001f56015,64c7fed44a04f777bb1e18ce,64c801501ee09f812973950f,right,-1,0.75,0.2429,0,-0.000929891,0.335,21,0,21,0,1,,,,,,,,,,
,,151143,001,2023-07-31_20h48.30.634,arm3_eps,2022.2.5,Win32,59.95203837,597866321cb0370001f56015,64c7fed44a04f777bb1e18ce,64c801501ee09f812973950f,right,-1,0.75,0.2429,0,-0.00591596,0.25,22,0,22,0,1,,,,,,,,,,
,,151143,001,2023-07-31_20h48.30.634,arm3_eps,2022.2.5,Win32,59.95203837,597866321cb0370001f56015,64c7fed44a04f777bb1e18ce,64c801501ee09f812973950f,right,-1,0.75,0.2429,0,-0.038367845,0.708,23,0,23,0,1,,,,,,,,,,
,,151143,001,2023-07-31_20h48.30.634,arm3_eps,2022.2.5,Win32,59.95203837,597866321cb0370001f56015,64c7fed44a04f777bb1e18ce,64c801501ee09f812973950f,down,-1,0.75,0.2429,1,0,0.77,24,0,24,0,1,,,,,,,,,,
,,151143,001,2023-07-31_20h48.30.634,arm3_eps,2022.2.5,Win32,59.95203837,597866321cb0370001f56015,64c7fed44a04f777bb1e18ce,64c801501ee09f812973950f,right,-1,0.75,0.2429,1,0.000692237,1.416,25,0,25,0,1,,,,,,,,,,
,,151143,001,2023-07-31_20h48.30.634,arm3_eps,2022.2.5,Win32,59.95203837,597866321cb0370001f56015,64c7fed44a04f777bb1e18ce,64c801501ee09f812973950f,right,-1,0.75,0.2429,1,-0.022377286,0.717,26,0,26,0,1,,,,,,,,,,
,,151143,001,2023-07-31_20h48.30.634,arm3_eps,2022.2.5,Win32,59.95203837,597866321cb0370001f56015,64c7fed44a04f777bb1e18ce,64c801501ee09f812973950f,down,1,0.75,0.2429,2,0,0.769,27,0,27,0,1,,,,,,,,,,
,,151143,001,2023-07-31_20h48.30.634,arm3_eps,2022.2.5,Win32,59.95203837,597866321cb0370001f56015,64c7fed44a04f777bb1e18ce,64c801501ee09f812973950f,right,1,0.75,0.2429,2,0.001148228,0.895,28,0,28,0,1,,,,,,,,,,
,,151143,001,2023-07-31_20h48.30.634,arm3_eps,2022.2.5,Win32,59.95203837,597866321cb0370001f56015,64c7fed44a04f777bb1e18ce,64c801501ee09f812973950f,up,1,0.75,0.2429,3,0,0.971,29,0,29,0,1,,,,,,,,,,
,,151143,001,2023-07-31_20h48.30.634,arm3_eps,2022.2.5,Win32,59.95203837,597866321cb0370001f56015,64c7fed44a04f777bb1e18ce,64c801501ee09f812973950f,right,1,0.75,0.2429,3,0.007581325,0.887,30,0,30,0,1,,,,,,,,,,
,,151143,001,2023-07-31_20h48.30.634,arm3_eps,2022.2.5,Win32,59.95203837,597866321cb0370001f56015,64c7fed44a04f777bb1e18ce,64c801501ee09f812973950f,up,1,0.75,0.2429,4,0,1.168,31,0,31,0,1,,,,,,,,,,
,,151143,001,2023-07-31_20h48.30.634,arm3_eps,2022.2.5,Win32,59.95203837,597866321cb0370001f56015,64c7fed44a04f777bb1e18ce,64c801501ee09f812973950f,right,1,0.75,0.2429,4,0.018842075,1.785,32,0,32,0,1,,,,,,,,,,
,,151143,001,2023-07-31_20h48.30.634,arm3_eps,2022.2.5,Win32,59.95203837,597866321cb0370001f56015,64c7fed44a04f777bb1e18ce,64c801501ee09f812973950f,right,1,0.75,0.2429,4,0.018453789,0.652,33,0,33,0,1,,,,,,,,,,
,,151143,001,2023-07-31_20h48.30.634,arm3_eps,2022.2.5,Win32,59.95203837,597866321cb0370001f56015,64c7fed44a04f777bb1e18ce,64c801501ee09f812973950f,down,1,0.75,0.2429,3,0,0.765,34,0,34,0,1,,,,,,,,,,
,,151143,001,2023-07-31_20h48.30.634,arm3_eps,2022.2.5,Win32,59.95203837,597866321cb0370001f56015,64c7fed44a04f777bb1e18ce,64c801501ee09f812973950f,right,1,0.75,0.2429,3,0.000690685,0.858,35,0,35,0,1,,,,,,,,,,
,,151143,001,2023-07-31_20h48.30.634,arm3_eps,2022.2.5,Win32,59.95203837,597866321cb0370001f56015,64c7fed44a04f777bb1e18ce,64c801501ee09f812973950f,right,1,0.75,0.2429,3,-0.000246768,0.57,36,0,36,0,1,,,,,,,,,,
,,151143,001,2023-07-31_20h48.30.634,arm3_eps,2022.2.5,Win32,59.95203837,597866321cb0370001f56015,64c7fed44a04f777bb1e18ce,64c801501ee09f812973950f,up,1,0.75,0.2429,4,0,0.734,37,0,37,0,1,,,,,,,,,,
,,151143,001,2023-07-31_20h48.30.634,arm3_eps,2022.2.5,Win32,59.95203837,597866321cb0370001f56015,64c7fed44a04f777bb1e18ce,64c801501ee09f812973950f,right,1,0.75,0.2429,4,0.024443247,0.883,38,0,38,0,1,,,,,,,,,,
,,151143,001,2023-07-31_20h48.30.634,arm3_eps,2022.2.5,Win32,59.95203837,597866321cb0370001f56015,64c7fed44a04f777bb1e18ce,64c801501ee09f812973950f,right,1,0.75,0.2429,4,0.027062569,0.42,39,0,39,0,1,,,,,,,,,,
,,151143,001,2023-07-31_20h48.30.634,arm3_eps,2022.2.5,Win32,59.95203837,597866321cb0370001f56015,64c7fed44a04f777bb1e18ce,64c801501ee09f812973950f,up,1,0.75,0.2429,5,0,0.606,40,0,40,0,1,,,,,,,,,,
,,151143,001,2023-07-31_20h48.30.634,arm3_eps,2022.2.5,Win32,59.95203837,597866321cb0370001f56015,64c7fed44a04f777bb1e18ce,64c801501ee09f812973950f,right,1,0.75,0.2429,5,0.012474972,0.947,41,0,41,0,1,,,,,,,,,,
,,151143,001,2023-07-31_20h48.30.634,arm3_eps,2022.2.5,Win32,59.95203837,597866321cb0370001f56015,64c7fed44a04f777bb1e18ce,64c801501ee09f812973950f,right,1,0.75,0.2429,5,0.008766011,1.256,42,0,42,0,1,,,,,,,,,,
,,151143,001,2023-07-31_20h48.30.634,arm3_eps,2022.2.5,Win32,59.95203837,597866321cb0370001f56015,64c7fed44a04f777bb1e18ce,64c801501ee09f812973950f,right,1,0.75,0.2429,5,0.009493528,0.683,43,0,43,0,1,,,,,,,,,,
,,151143,001,2023-07-31_20h48.30.634,arm3_eps,2022.2.5,Win32,59.95203837,597866321cb0370001f56015,64c7fed44a04f777bb1e18ce,64c801501ee09f812973950f,down,1,0.75,0.2429,4,0,0.9,44,0,44,0,1,,,,,,,,,,
,,151143,001,2023-07-31_20h48.30.634,arm3_eps,2022.2.5,Win32,59.95203837,597866321cb0370001f56015,64c7fed44a04f777bb1e18ce,64c801501ee09f812973950f,right,1,0.75,0.2429,4,-0.001776723,1.033,45,0,45,0,1,,,,,,,,,,
,,151143,001,2023-07-31_20h48.30.634,arm3_eps,2022.2.5,Win32,59.95203837,597866321cb0370001f56015,64c7fed44a04f777bb1e18ce,64c801501ee09f812973950f,right,1,0.75,0.2429,4,0.020840084,0.896,46,0,46,0,1,,,,,,,,,,
,,151143,001,2023-07-31_20h48.30.634,arm3_eps,2022.2.5,Win32,59.95203837,597866321cb0370001f56015,64c7fed44a04f777bb1e18ce,64c801501ee09f812973950f,right,1,0.75,0.2429,4,-0.009418538,0.559,47,0,47,0,1,,,,,,,,,,
,,151143,001,2023-07-31_20h48.30.634,arm3_eps,2022.2.5,Win32,59.95203837,597866321cb0370001f56015,64c7fed44a04f777bb1e18ce,64c801501ee09f812973950f,up,1,0.75,0.2429,5,0,0.553,48,0,48,0,1,,,,,,,,,,
,,151143,001,2023-07-31_20h48.30.634,arm3_eps,2022.2.5,Win32,59.95203837,597866321cb0370001f56015,64c7fed44a04f777bb1e18ce,64c801501ee09f812973950f,right,1,0.75,0.2429,5,-0.003093775,0.936,49,0,49,0,1,,,,,,,,,,
space,22.032,151143,001,2023-07-31_20h48.30.634,arm3_eps,2022.2.5,Win32,59.95203837,597866321cb0370001f56015,64c7fed44a04f777bb1e18ce,64c801501ee09f812973950f,,,,,,,,,,,,,,,,,,,,,,
space,17.562,151143,001,2023-07-31_20h48.30.634,arm3_eps,2022.2.5,Win32,59.95203837,597866321cb0370001f56015,64c7fed44a04f777bb1e18ce,64c801501ee09f812973950f,,,,,,,,,,,,,,,,,,,,,,
space,0.869,151143,001,2023-07-31_20h48.30.634,arm3_eps,2022.2.5,Win32,59.95203837,597866321cb0370001f56015,64c7fed44a04f777bb1e18ce,64c801501ee09f812973950f,,,,,,,,,,,,,,,,,,,,,,
,,151143,001,2023-07-31_20h48.30.634,arm3_eps,2022.2.5,Win32,59.95203837,597866321cb0370001f56015,64c7fed44a04f777bb1e18ce,64c801501ee09f812973950f,right,1,0.75,0.05,0,0.034274904,1.315,0,0,0,0,1,,,,,,,,,,
,,151143,001,2023-07-31_20h48.30.634,arm3_eps,2022.2.5,Win32,59.95203837,597866321cb0370001f56015,64c7fed44a04f777bb1e18ce,64c801501ee09f812973950f,right,1,0.75,0.05,0,0.032823874,0.65,1,0,1,0,1,,,,,,,,,,
,,151143,001,2023-07-31_20h48.30.634,arm3_eps,2022.2.5,Win32,59.95203837,597866321cb0370001f56015,64c7fed44a04f777bb1e18ce,64c801501ee09f812973950f,up,1,0.75,0.05,1,0,0.418,2,0,2,0,1,,,,,,,,,,
,,151143,001,2023-07-31_20h48.30.634,arm3_eps,2022.2.5,Win32,59.95203837,597866321cb0370001f56015,64c7fed44a04f777bb1e18ce,64c801501ee09f812973950f,right,1,0.75,0.05,1,0.045377508,1.189,3,0,3,0,1,,,,,,,,,,
,,151143,001,2023-07-31_20h48.30.634,arm3_eps,2022.2.5,Win32,59.95203837,597866321cb0370001f56015,64c7fed44a04f777bb1e18ce,64c801501ee09f812973950f,right,1,0.75,0.05,1,0.031526338,0.567,4,0,4,0,1,,,,,,,,,,
,,151143,001,2023-07-31_20h48.30.634,arm3_eps,2022.2.5,Win32,59.95203837,597866321cb0370001f56015,64c7fed44a04f777bb1e18ce,64c801501ee09f812973950f,up,1,0.75,0.05,1,0,0.501,5,0,5,0,1,,,,,,,,,,
,,151143,001,2023-07-31_20h48.30.634,arm3_eps,2022.2.5,Win32,59.95203837,597866321cb0370001f56015,64c7fed44a04f777bb1e18ce,64c801501ee09f812973950f,right,1,0.75,0.05,1,0.006194167,1.207,6,0,6,0,1,,,,,,,,,,
,,151143,001,2023-07-31_20h48.30.634,arm3_eps,2022.2.5,Win32,59.95203837,597866321cb0370001f56015,64c7fed44a04f777bb1e18ce,64c801501ee09f812973950f,right,1,0.75,0.05,1,0.02646495,0.332,7,0,7,0,1,,,,,,,,,,
,,151143,001,2023-07-31_20h48.30.634,arm3_eps,2022.2.5,Win32,59.95203837,597866321cb0370001f56015,64c7fed44a04f777bb1e18ce,64c801501ee09f812973950f,up,1,0.75,0.05,2,0,0.682,8,0,8,0,1,,,,,,,,,,
,,151143,001,2023-07-31_20h48.30.634,arm3_eps,2022.2.5,Win32,59.95203837,597866321cb0370001f56015,64c7fed44a04f777bb1e18ce,64c801501ee09f812973950f,right,1,0.75,0.05,2,-0.027454921,1.197,9,0,9,0,1,,,,,,,,,,
,,151143,001,2023-07-31_20h48.30.634,arm3_eps,2022.2.5,Win32,59.95203837,597866321cb0370001f56015,64c7fed44a04f777bb1e18ce,64c801501ee09f812973950f,right,1,0.75,0.05,2,-0.030397319,0.302,10,0,10,0,1,,,,,,,,,,
,,151143,001,2023-07-31_20h48.30.634,arm3_eps,2022.2.5,Win32,59.95203837,597866321cb0370001f56015,64c7fed44a04f777bb1e18ce,64c801501ee09f812973950f,right,1,0.75,0.05,2,0.031466687,0.668,11,0,11,0,1,,,,,,,,,,
,,151143,001,2023-07-31_20h48.30.634,arm3_eps,2022.2.5,Win32,59.95203837,597866321cb0370001f56015,64c7fed44a04f777bb1e18ce,64c801501ee09f812973950f,right,1,0.75,0.05,2,0.054723706,0.789,12,0,12,0,1,,,,,,,,,,
,,151143,001,2023-07-31_20h48.30.634,arm3_eps,2022.2.5,Win32,59.95203837,597866321cb0370001f56015,64c7fed44a04f777bb1e18ce,64c801501ee09f812973950f,up,1,0.75,0.05,3,0,0.339,13,0,13,0,1,,,,,,,,,,
,,151143,001,2023-07-31_20h48.30.634,arm3_eps,2022.2.5,Win32,59.95203837,597866321cb0370001f56015,64c7fed44a04f777bb1e18ce,64c801501ee09f812973950f,right,1,0.75,0.05,3,0.033491835,1.043,14,0,14,0,1,,,,,,,,,,
,,151143,001,2023-07-31_20h48.30.634,arm3_eps,2022.2.5,Win32,59.95203837,597866321cb0370001f56015,64c7fed44a04f777bb1e18ce,64c801501ee09f812973950f,right,1,0.75,0.05,3,0.040168531,0.382,15,0,15,0,1,,,,,,,,,,
,,151143,001,2023-07-31_20h48.30.634,arm3_eps,2022.2.5,Win32,59.95203837,597866321cb0370001f56015,64c7fed44a04f777bb1e18ce,64c801501ee09f812973950f,right,1,0.75,0.05,3,0.031759226,0.414,16,0,16,0,1,,,,,,,,,,
,,151143,001,2023-07-31_20h48.30.634,arm3_eps,2022.2.5,Win32,59.95203837,597866321cb0370001f56015,64c7fed44a04f777bb1e18ce,64c801501ee09f812973950f,right,1,0.75,0.05,3,0.038458228,0.597,17,0,17,0,1,,,,,,,,,,
,,151143,001,2023-07-31_20h48.30.634,arm3_eps,2022.2.5,Win32,59.95203837,597866321cb0370001f56015,64c7fed44a04f777bb1e18ce,64c801501ee09f812973950f,up,1,0.75,0.05,4,0,0.402,18,0,18,0,1,,,,,,,,,,
,,151143,001,2023-07-31_20h48.30.634,arm3_eps,2022.2.5,Win32,59.95203837,597866321cb0370001f56015,64c7fed44a04f777bb1e18ce,64c801501ee09f812973950f,right,1,0.75,0.05,4,0.010871096,1.607,19,0,19,0,1,,,,,,,,,,
,,151143,001,2023-07-31_20h48.30.634,arm3_eps,2022.2.5,Win32,59.95203837,597866321cb0370001f56015,64c7fed44a04f777bb1e18ce,64c801501ee09f812973950f,right,1,0.75,0.05,4,0.017189981,0.417,20,0,20,0,1,,,,,,,,,,
,,151143,001,2023-07-31_20h48.30.634,arm3_eps,2022.2.5,Win32,59.95203837,597866321cb0370001f56015,64c7fed44a04f777bb1e18ce,64c801501ee09f812973950f,right,1,0.75,0.05,4,0.00691285,0.512,21,0,21,0,1,,,,,,,,,,
,,151143,001,2023-07-31_20h48.30.634,arm3_eps,2022.2.5,Win32,59.95203837,597866321cb0370001f56015,64c7fed44a04f777bb1e18ce,64c801501ee09f812973950f,up,1,0.75,0.05,5,0,0.484,22,0,22,0,1,,,,,,,,,,
,,151143,001,2023-07-31_20h48.30.634,arm3_eps,2022.2.5,Win32,59.95203837,597866321cb0370001f56015,64c7fed44a04f777bb1e18ce,64c801501ee09f812973950f,right,1,0.75,0.05,5,-0.006096306,0.809,23,0,23,0,1,,,,,,,,,,
,,151143,001,2023-07-31_20h48.30.634,arm3_eps,2022.2.5,Win32,59.95203837,597866321cb0370001f56015,64c7fed44a04f777bb1e18ce,64c801501ee09f812973950f,up,1,0.75,0.05,6,0,0.84,24,0,24,0,1,,,,,,,,,,
,,151143,001,2023-07-31_20h48.30.634,arm3_eps,2022.2.5,Win32,59.95203837,597866321cb0370001f56015,64c7fed44a04f777bb1e18ce,64c801501ee09f812973950f,right,1,0.75,0.05,6,0.006208362,0.822,25,0,25,0,1,,,,,,,,,,
,,151143,001,2023-07-31_20h48.30.634,arm3_eps,2022.2.5,Win32,59.95203837,597866321cb0370001f56015,64c7fed44a04f777bb1e18ce,64c801501ee09f812973950f,up,1,0.75,0.05,6,0,0.463,26,0,26,0,1,,,,,,,,,,
,,151143,001,2023-07-31_20h48.30.634,arm3_eps,2022.2.5,Win32,59.95203837,597866321cb0370001f56015,64c7fed44a04f777bb1e18ce,64c801501ee09f812973950f,right,1,0.75,0.05,6,-0.01432611,1.034,27,0,27,0,1,,,,,,,,,,
,,151143,001,2023-07-31_20h48.30.634,arm3_eps,2022.2.5,Win32,59.95203837,597866321cb0370001f56015,64c7fed44a04f777bb1e18ce,64c801501ee09f812973950f,right,1,0.75,0.05,6,-0.001903286,0.732,28,0,28,0,1,,,,,,,,,,
,,151143,001,2023-07-31_20h48.30.634,arm3_eps,2022.2.5,Win32,59.95203837,597866321cb0370001f56015,64c7fed44a04f777bb1e18ce,64c801501ee09f812973950f,down,1,0.75,0.05,5,0,0.716,29,0,29,0,1,,,,,,,,,,
,,151143,001,2023-07-31_20h48.30.634,arm3_eps,2022.2.5,Win32,59.95203837,597866321cb0370001f56015,64c7fed44a04f777bb1e18ce,64c801501ee09f812973950f,right,1,0.75,0.05,5,0.03695497,0.949,30,0,30,0,1,,,,,,,,,,
,,151143,001,2023-07-31_20h48.30.634,arm3_eps,2022.2.5,Win32,59.95203837,597866321cb0370001f56015,64c7fed44a04f777bb1e18ce,64c801501ee09f812973950f,up,1,0.75,0.05,6,0,0.568,31,0,31,0,1,,,,,,,,,,
,,151143,001,2023-07-31_20h48.30.634,arm3_eps,2022.2.5,Win32,59.95203837,597866321cb0370001f56015,64c7fed44a04f777bb1e18ce,64c801501ee09f812973950f,right,1,0.75,0.05,6,-0.007847654,0.848,32,0,32,0,1,,,,,,,,,,
,,151143,001,2023-07-31_20h48.30.634,arm3_eps,2022.2.5,Win32,59.95203837,597866321cb0370001f56015,64c7fed44a04f777bb1e18ce,64c801501ee09f812973950f,right,1,0.75,0.05,6,-0.006770248,1.425,33,0,33,0,1,,,,,,,,,,
,,151143,001,2023-07-31_20h48.30.634,arm3_eps,2022.2.5,Win32,59.95203837,597866321cb0370001f56015,64c7fed44a04f777bb1e18ce,64c801501ee09f812973950f,up,1,0.75,0.05,6,0,0.783,34,0,34,0,1,,,,,,,,,,
,,151143,001,2023-07-31_20h48.30.634,arm3_eps,2022.2.5,Win32,59.95203837,597866321cb0370001f56015,64c7fed44a04f777bb1e18ce,64c801501ee09f812973950f,right,1,0.75,0.05,6,0.01149173,0.85,35,0,35,0,1,,,,,,,,,,
,,151143,001,2023-07-31_20h48.30.634,arm3_eps,2022.2.5,Win32,59.95203837,597866321cb0370001f56015,64c7fed44a04f777bb1e18ce,64c801501ee09f812973950f,right,1,0.75,0.05,6,0.030026979,1.905,36,0,36,0,1,,,,,,,,,,
,,151143,001,2023-07-31_20h48.30.634,arm3_eps,2022.2.5,Win32,59.95203837,597866321cb0370001f56015,64c7fed44a04f777bb1e18ce,64c801501ee09f812973950f,up,1,0.75,0.05,7,0,0.552,37,0,37,0,1,,,,,,,,,,
,,151143,001,2023-07-31_20h48.30.634,arm3_eps,2022.2.5,Win32,59.95203837,597866321cb0370001f56015,64c7fed44a04f777bb1e18ce,64c801501ee09f812973950f,right,1,0.75,0.05,7,-0.00479237,0.892,38,0,38,0,1,,,,,,,,,,
,,151143,001,2023-07-31_20h48.30.634,arm3_eps,2022.2.5,Win32,59.95203837,597866321cb0370001f56015,64c7fed44a04f777bb1e18ce,64c801501ee09f812973950f,right,1,0.75,0.05,7,-0.002898918,0.676,39,0,39,0,1,,,,,,,,,,
,,151143,001,2023-07-31_20h48.30.634,arm3_eps,2022.2.5,Win32,59.95203837,597866321cb0370001f56015,64c7fed44a04f777bb1e18ce,64c801501ee09f812973950f,up,1,0.75,0.05,8,0,0.534,40,0,40,0,1,,,,,,,,,,
,,151143,001,2023-07-31_20h48.30.634,arm3_eps,2022.2.5,Win32,59.95203837,597866321cb0370001f56015,64c7fed44a04f777bb1e18ce,64c801501ee09f812973950f,right,1,0.75,0.05,8,0.032672019,0.959,41,0,41,0,1,,,,,,,,,,
,,151143,001,2023-07-31_20h48.30.634,arm3_eps,2022.2.5,Win32,59.95203837,597866321cb0370001f56015,64c7fed44a04f777bb1e18ce,64c801501ee09f812973950f,right,1,0.75,0.05,8,0.02004161,0.638,42,0,42,0,1,,,,,,,,,,
,,151143,001,2023-07-31_20h48.30.634,arm3_eps,2022.2.5,Win32,59.95203837,597866321cb0370001f56015,64c7fed44a04f777bb1e18ce,64c801501ee09f812973950f,up,1,0.75,0.05,8,0,1.283,43,0,43,0,1,,,,,,,,,,
,,151143,001,2023-07-31_20h48.30.634,arm3_eps,2022.2.5,Win32,59.95203837,597866321cb0370001f56015,64c7fed44a04f777bb1e18ce,64c801501ee09f812973950f,right,1,0.75,0.05,8,0.025362212,0.878,44,0,44,0,1,,,,,,,,,,
,,151143,001,2023-07-31_20h48.30.634,arm3_eps,2022.2.5,Win32,59.95203837,597866321cb0370001f56015,64c7fed44a04f777bb1e18ce,64c801501ee09f812973950f,right,1,0.75,0.05,8,0.059280818,0.327,45,0,45,0,1,,,,,,,,,,
,,151143,001,2023-07-31_20h48.30.634,arm3_eps,2022.2.5,Win32,59.95203837,597866321cb0370001f56015,64c7fed44a04f777bb1e18ce,64c801501ee09f812973950f,up,1,0.75,0.05,9,0,0.364,46,0,46,0,1,,,,,,,,,,
,,151143,001,2023-07-31_20h48.30.634,arm3_eps,2022.2.5,Win32,59.95203837,597866321cb0370001f56015,64c7fed44a04f777bb1e18ce,64c801501ee09f812973950f,right,1,0.75,0.05,9,-0.007355348,0.784,47,0,47,0,1,,,,,,,,,,
,,151143,001,2023-07-31_20h48.30.634,arm3_eps,2022.2.5,Win32,59.95203837,597866321cb0370001f56015,64c7fed44a04f777bb1e18ce,64c801501ee09f812973950f,right,1,0.75,0.05,9,0.005831155,0.539,48,0,48,0,1,,,,,,,,,,
,,151143,001,2023-07-31_20h48.30.634,arm3_eps,2022.2.5,Win32,59.95203837,597866321cb0370001f56015,64c7fed44a04f777bb1e18ce,64c801501ee09f812973950f,up,1,0.75,0.05,9,0.005831155,0.345,49,0,49,0,1,,,,,,,,,,
space,10.149,151143,001,2023-07-31_20h48.30.634,arm3_eps,2022.2.5,Win32,59.95203837,597866321cb0370001f56015,64c7fed44a04f777bb1e18ce,64c801501ee09f812973950f,,,,,,,,,,,,,,,,,,,,,,
space,1.022,151143,001,2023-07-31_20h48.30.634,arm3_eps,2022.2.5,Win32,59.95203837,597866321cb0370001f56015,64c7fed44a04f777bb1e18ce,64c801501ee09f812973950f,,,,,,,,,,,,,,,,,,,,,,
,,151143,001,2023-07-31_20h48.30.634,arm3_eps,2022.2.5,Win32,59.95203837,597866321cb0370001f56015,64c7fed44a04f777bb1e18ce,64c801501ee09f812973950f,right,1,0.75,0.5,0,-0.011973304,0.716,0,0,0,0,1,,,,,,,,,,
,,151143,001,2023-07-31_20h48.30.634,arm3_eps,2022.2.5,Win32,59.95203837,597866321cb0370001f56015,64c7fed44a04f777bb1e18ce,64c801501ee09f812973950f,right,1,0.75,0.5,0,-0.009893575,0.415,1,0,1,0,1,,,,,,,,,,
,,151143,001,2023-07-31_20h48.30.634,arm3_eps,2022.2.5,Win32,59.95203837,597866321cb0370001f56015,64c7fed44a04f777bb1e18ce,64c801501ee09f812973950f,up,1,0.75,0.5,1,0,0.407,2,0,2,0,1,,,,,,,,,,
,,151143,001,2023-07-31_20h48.30.634,arm3_eps,2022.2.5,Win32,59.95203837,597866321cb0370001f56015,64c7fed44a04f777bb1e18ce,64c801501ee09f812973950f,right,1,0.75,0.5,1,-0.028381367,0.571,3,0,3,0,1,,,,,,,,,,
,,151143,001,2023-07-31_20h48.30.634,arm3_eps,2022.2.5,Win32,59.95203837,597866321cb0370001f56015,64c7fed44a04f777bb1e18ce,64c801501ee09f812973950f,right,1,0.75,0.5,1,-0.000639161,0.367,4,0,4,0,1,,,,,,,,,,
,,151143,001,2023-07-31_20h48.30.634,arm3_eps,2022.2.5,Win32,59.95203837,597866321cb0370001f56015,64c7fed44a04f777bb1e18ce,64c801501ee09f812973950f,up,1,0.75,0.5,1,0,0.453,5,0,5,0,1,,,,,,,,,,
,,151143,001,2023-07-31_20h48.30.634,arm3_eps,2022.2.5,Win32,59.95203837,597866321cb0370001f56015,64c7fed44a04f777bb1e18ce,64c801501ee09f812973950f,right,1,0.75,0.5,1,0.017805633,0.549,6,0,6,0,1,,,,,,,,,,
,,151143,001,2023-07-31_20h48.30.634,arm3_eps,2022.2.5,Win32,59.95203837,597866321cb0370001f56015,64c7fed44a04f777bb1e18ce,64c801501ee09f812973950f,right,1,0.75,0.5,1,0.046687776,0.331,7,0,7,0,1,,,,,,,,,,
,,151143,001,2023-07-31_20h48.30.634,arm3_eps,2022.2.5,Win32,59.95203837,597866321cb0370001f56015,64c7fed44a04f777bb1e18ce,64c801501ee09f812973950f,down,-1,0.75,0.5,1,0,0.68,8,0,8,0,1,,,,,,,,,,
,,151143,001,2023-07-31_20h48.30.634,arm3_eps,2022.2.5,Win32,59.95203837,597866321cb0370001f56015,64c7fed44a04f777bb1e18ce,64c801501ee09f812973950f,right,-1,0.75,0.5,1,-0.025867405,0.636,9,0,9,0,1,,,,,,,,,,
,,151143,001,2023-07-31_20h48.30.634,arm3_eps,2022.2.5,Win32,59.95203837,597866321cb0370001f56015,64c7fed44a04f777bb1e18ce,64c801501ee09f812973950f,right,-1,0.75,0.5,1,-0.034285814,0.284,10,0,10,0,1,,,,,,,,,,
,,151143,001,2023-07-31_20h48.30.634,arm3_eps,2022.2.5,Win32,59.95203837,597866321cb0370001f56015,64c7fed44a04f777bb1e18ce,64c801501ee09f812973950f,down,1,0.75,0.5,2,0,0.604,11,0,11,0,1,,,,,,,,,,
,,151143,001,2023-07-31_20h48.30.634,arm3_eps,2022.2.5,Win32,59.95203837,597866321cb0370001f56015,64c7fed44a04f777bb1e18ce,64c801501ee09f812973950f,right,1,0.75,0.5,2,0.019861327,0.55,12,0,12,0,1,,,,,,,,,,
,,151143,001,2023-07-31_20h48.30.634,arm3_eps,2022.2.5,Win32,59.95203837,597866321cb0370001f56015,64c7fed44a04f777bb1e18ce,64c801501ee09f812973950f,right,1,0.75,0.5,2,0.028015457,0.335,13,0,13,0,1,,,,,,,,,,
,,151143,001,2023-07-31_20h48.30.634,arm3_eps,2022.2.5,Win32,59.95203837,597866321cb0370001f56015,64c7fed44a04f777bb1e18ce,64c801501ee09f812973950f,up,-1,0.75,0.5,3,0,0.487,14,0,14,0,1,,,,,,,,,,
,,151143,001,2023-07-31_20h48.30.634,arm3_eps,2022.2.5,Win32,59.95203837,597866321cb0370001f56015,64c7fed44a04f777bb1e18ce,64c801501ee09f812973950f,right,-1,0.75,0.5,3,-0.01128503,0.824,15,0,15,0,1,,,,,,,,,,
,,151143,001,2023-07-31_20h48.30.634,arm3_eps,2022.2.5,Win32,59.95203837,597866321cb0370001f56015,64c7fed44a04f777bb1e18ce,64c801501ee09f812973950f,right,-1,0.75,0.5,3,0.003159759,0.25,16,0,16,0,1,,,,,,,,,,
,,151143,001,2023-07-31_20h48.30.634,arm3_eps,2022.2.5,Win32,59.95203837,597866321cb0370001f56015,64c7fed44a04f777bb1e18ce,64c801501ee09f812973950f,up,-1,0.75,0.5,2,0,0.701,17,0,17,0,1,,,,,,,,,,
,,151143,001,2023-07-31_20h48.30.634,arm3_eps,2022.2.5,Win32,59.95203837,597866321cb0370001f56015,64c7fed44a04f777bb1e18ce,64c801501ee09f812973950f,right,-1,0.75,0.5,2,-0.03925327,0.806,18,0,18,0,1,,,,,,,,,,
,,151143,001,2023-07-31_20h48.30.634,arm3_eps,2022.2.5,Win32,59.95203837,597866321cb0370001f56015,64c7fed44a04f777bb1e18ce,64c801501ee09f812973950f,right,-1,0.75,0.5,2,-0.069368407,0.233,19,0,19,0,1,,,,,,,,,,
,,151143,001,2023-07-31_20h48.30.634,arm3_eps,2022.2.5,Win32,59.95203837,597866321cb0370001f56015,64c7fed44a04f777bb1e18ce,64c801501ee09f812973950f,right,-1,0.75,0.5,2,-0.056751931,1.253,20,0,20,0,1,,,,,,,,,,
,,151143,001,2023-07-31_20h48.30.634,arm3_eps,2022.2.5,Win32,59.95203837,597866321cb0370001f56015,64c7fed44a04f777bb1e18ce,64c801501ee09f812973950f,down,1,0.75,0.5,2,0,0.663,21,0,21,0,1,,,,,,,,,,
,,151143,001,2023-07-31_20h48.30.634,arm3_eps,2022.2.5,Win32,59.95203837,597866321cb0370001f56015,64c7fed44a04f777bb1e18ce,64c801501ee09f812973950f,right,1,0.75,0.5,2,0.021156797,0.857,22,0,22,0,1,,,,,,,,,,
,,151143,001,2023-07-31_20h48.30.634,arm3_eps,2022.2.5,Win32,59.95203837,597866321cb0370001f56015,64c7fed44a04f777bb1e18ce,64c801501ee09f812973950f,right,1,0.75,0.5,2,0.006390348,0.334,23,0,23,0,1,,,,,,,,,,
,,151143,001,2023-07-31_20h48.30.634,arm3_eps,2022.2.5,Win32,59.95203837,597866321cb0370001f56015,64c7fed44a04f777bb1e18ce,64c801501ee09f812973950f,down,-1,0.75,0.5,1,0,0.477,24,0,24,0,1,,,,,,,,,,
,,151143,001,2023-07-31_20h48.30.634,arm3_eps,2022.2.5,Win32,59.95203837,597866321cb0370001f56015,64c7fed44a04f777bb1e18ce,64c801501ee09f812973950f,right,-1,0.75,0.5,1,-0.013078389,0.883,25,0,25,0,1,,,,,,,,,,
,,151143,001,2023-07-31_20h48.30.634,arm3_eps,2022.2.5,Win32,59.95203837,597866321cb0370001f56015,64c7fed44a04f777bb1e18ce,64c801501ee09f812973950f,right,-1,0.75,0.5,1,-0.0158408,0.263,26,0,26,0,1,,,,,,,,,,
,,151143,001,2023-07-31_20h48.30.634,arm3_eps,2022.2.5,Win32,59.95203837,597866321cb0370001f56015,64c7fed44a04f777bb1e18ce,64c801501ee09f812973950f,right,-1,0.75,0.5,1,-0.014002976,0.264,27,0,27,0,1,,,,,,,,,,
,,151143,001,2023-07-31_20h48.30.634,arm3_eps,2022.2.5,Win32,59.95203837,597866321cb0370001f56015,64c7fed44a04f777bb1e18ce,64c801501ee09f812973950f,down,1,0.75,0.5,2,0,0.655,28,0,28,0,1,,,,,,,,,,
,,151143,001,2023-07-31_20h48.30.634,arm3_eps,2022.2.5,Win32,59.95203837,597866321cb0370001f56015,64c7fed44a04f777bb1e18ce,64c801501ee09f812973950f,right,1,0.75,0.5,2,0.052196264,0.939,29,0,29,0,1,,,,,,,,,,
,,151143,001,2023-07-31_20h48.30.634,arm3_eps,2022.2.5,Win32,59.95203837,597866321cb0370001f56015,64c7fed44a04f777bb1e18ce,64c801501ee09f812973950f,right,1,0.75,0.5,2,0.067627022,1.374,30,0,30,0,1,,,,,,,,,,
,,151143,001,2023-07-31_20h48.30.634,arm3_eps,2022.2.5,Win32,59.95203837,597866321cb0370001f56015,64c7fed44a04f777bb1e18ce,64c801501ee09f812973950f,up,-1,0.75,0.5,3,0,0.758,31,0,31,0,1,,,,,,,,,,
,,151143,001,2023-07-31_20h48.30.634,arm3_eps,2022.2.5,Win32,59.95203837,597866321cb0370001f56015,64c7fed44a04f777bb1e18ce,64c801501ee09f812973950f,right,-1,0.75,0.5,3,-0.009828455,0.9,32,0,32,0,1,,,,,,,,,,
,,151143,001,2023-07-31_20h48.30.634,arm3_eps,2022.2.5,Win32,59.95203837,597866321cb0370001f56015,64c7fed44a04f777bb1e18ce,64c801501ee09f812973950f,right,-1,0.75,0.5,3,-0.024450848,0.549,33,0,33,0,1,,,,,,,,,,
,,151143,001,2023-07-31_20h48.30.634,arm3_eps,2022.2.5,Win32,59.95203837,597866321cb0370001f56015,64c7fed44a04f777bb1e18ce,64c801501ee09f812973950f,up,-1,0.75,0.5,2,0,0.939,34,0,34,0,1,,,,,,,,,,
,,151143,001,2023-07-31_20h48.30.634,arm3_eps,2022.2.5,Win32,59.95203837,597866321cb0370001f56015,64c7fed44a04f777bb1e18ce,64c801501ee09f812973950f,right,-1,0.75,0.5,2,-0.036441641,0.916,35,0,35,0,1,,,,,,,,,,
,,151143,001,2023-07-31_20h48.30.634,arm3_eps,2022.2.5,Win32,59.95203837,597866321cb0370001f56015,64c7fed44a04f777bb1e18ce,64c801501ee09f812973950f,right,-1,0.75,0.5,2,-0.053486045,0.508,36,0,36,0,1,,,,,,,,,,
,,151143,001,2023-07-31_20h48.30.634,arm3_eps,2022.2.5,Win32,59.95203837,597866321cb0370001f56015,64c7fed44a04f777bb1e18ce,64c801501ee09f812973950f,down,1,0.75,0.5,2,0,0.64,37,0,37,0,1,,,,,,,,,,
,,151143,001,2023-07-31_20h48.30.634,arm3_eps,2022.2.5,Win32,59.95203837,597866321cb0370001f56015,64c7fed44a04f777bb1e18ce,64c801501ee09f812973950f,right,1,0.75,0.5,2,0.020359045,1.052,38,0,38,0,1,,,,,,,,,,
,,151143,001,2023-07-31_20h48.30.634,arm3_eps,2022.2.5,Win32,59.95203837,597866321cb0370001f56015,64c7fed44a04f777bb1e18ce,64c801501ee09f812973950f,right,1,0.75,0.5,2,0.058142011,0.401,39,0,39,0,1,,,,,,,,,,
,,151143,001,2023-07-31_20h48.30.634,arm3_eps,2022.2.5,Win32,59.95203837,597866321cb0370001f56015,64c7fed44a04f777bb1e18ce,64c801501ee09f812973950f,up,-1,0.75,0.5,3,0,0.353,40,0,40,0,1,,,,,,,,,,
,,151143,001,2023-07-31_20h48.30.634,arm3_eps,2022.2.5,Win32,59.95203837,597866321cb0370001f56015,64c7fed44a04f777bb1e18ce,64c801501ee09f812973950f,right,-1,0.75,0.5,3,0.010038693,0.871,41,0,41,0,1,,,,,,,,,,
,,151143,001,2023-07-31_20h48.30.634,arm3_eps,2022.2.5,Win32,59.95203837,597866321cb0370001f56015,64c7fed44a04f777bb1e18ce,64c801501ee09f812973950f,right,-1,0.75,0.5,3,-0.015349917,0.46,42,0,42,0,1,,,,,,,,,,
,,151143,001,2023-07-31_20h48.30.634,arm3_eps,2022.2.5,Win32,59.95203837,597866321cb0370001f56015,64c7fed44a04f777bb1e18ce,64c801501ee09f812973950f,down,-1,0.75,0.5,4,0,0.599,43,0,43,0,1,,,,,,,,,,
,,151143,001,2023-07-31_20h48.30.634,arm3_eps,2022.2.5,Win32,59.95203837,597866321cb0370001f56015,64c7fed44a04f777bb1e18ce,64c801501ee09f812973950f,right,-1,0.75,0.5,4,0.003592848,0.887,44,0,44,0,1,,,,,,,,,,
,,151143,001,2023-07-31_20h48.30.634,arm3_eps,2022.2.5,Win32,59.95203837,597866321cb0370001f56015,64c7fed44a04f777bb1e18ce,64c801501ee09f812973950f,right,-1,0.75,0.5,4,-0.002982909,0.541,45,0,45,0,1,,,,,,,,,,
,,151143,001,2023-07-31_20h48.30.634,arm3_eps,2022.2.5,Win32,59.95203837,597866321cb0370001f56015,64c7fed44a04f777bb1e18ce,64c801501ee09f812973950f,down,1,0.75,0.5,5,0,0.452,46,0,46,0,1,,,,,,,,,,
,,151143,001,2023-07-31_20h48.30.634,arm3_eps,2022.2.5,Win32,59.95203837,597866321cb0370001f56015,64c7fed44a04f777bb1e18ce,64c801501ee09f812973950f,right,1,0.75,0.5,5,-0.018941028,0.773,47,0,47,0,1,,,,,,,,,,
,,151143,001,2023-07-31_20h48.30.634,arm3_eps,2022.2.5,Win32,59.95203837,597866321cb0370001f56015,64c7fed44a04f777bb1e18ce,64c801501ee09f812973950f,right,1,0.75,0.5,5,-0.012031872,0.669,48,0,48,0,1,,,,,,,,,,
,,151143,001,2023-07-31_20h48.30.634,arm3_eps,2022.2.5,Win32,59.95203837,597866321cb0370001f56015,64c7fed44a04f777bb1e18ce,64c801501ee09f812973950f,up,1,0.75,0.5,5,-0.012031872,0.605,49,0,49,0,1,,,,,,,,,,
space,2.03,151143,001,2023-07-31_20h48.30.634,arm3_eps,2022.2.5,Win32,59.95203837,597866321cb0370001f56015,64c7fed44a04f777bb1e18ce,64c801501ee09f812973950f,,,,,,,,,,,,,,,,,,,,,,
space,6.147,151143,001,2023-07-31_20h48.30.634,arm3_eps,2022.2.5,Win32,59.95203837,597866321cb0370001f56015,64c7fed44a04f777bb1e18ce,64c801501ee09f812973950f,right,1,0.75,0.05,0,0.033015003,0.834,,,,,,0,0,0,0,1,,,,,
,,151143,001,2023-07-31_20h48.30.634,arm3_eps,2022.2.5,Win32,59.95203837,597866321cb0370001f56015,64c7fed44a04f777bb1e18ce,64c801501ee09f812973950f,up,1,0.75,0.05,0,0,0.923,,,,,,1,0,1,0,1,,,,,
,,151143,001,2023-07-31_20h48.30.634,arm3_eps,2022.2.5,Win32,59.95203837,597866321cb0370001f56015,64c7fed44a04f777bb1e18ce,64c801501ee09f812973950f,right,1,0.75,0.05,0,-0.011450366,1.008,,,,,,2,0,2,0,1,,,,,
,,151143,001,2023-07-31_20h48.30.634,arm3_eps,2022.2.5,Win32,59.95203837,597866321cb0370001f56015,64c7fed44a04f777bb1e18ce,64c801501ee09f812973950f,right,1,0.75,0.05,0,-0.017965033,0.466,,,,,,3,0,3,0,1,,,,,
,,151143,001,2023-07-31_20h48.30.634,arm3_eps,2022.2.5,Win32,59.95203837,597866321cb0370001f56015,64c7fed44a04f777bb1e18ce,64c801501ee09f812973950f,up,1,0.75,0.05,1,0,0.517,,,,,,4,0,4,0,1,,,,,
,,151143,001,2023-07-31_20h48.30.634,arm3_eps,2022.2.5,Win32,59.95203837,597866321cb0370001f56015,64c7fed44a04f777bb1e18ce,64c801501ee09f812973950f,right,1,0.75,0.05,1,0.000778019,1.112,,,,,,5,0,5,0,1,,,,,
,,151143,001,2023-07-31_20h48.30.634,arm3_eps,2022.2.5,Win32,59.95203837,597866321cb0370001f56015,64c7fed44a04f777bb1e18ce,64c801501ee09f812973950f,right,1,0.75,0.05,1,0.010029978,0.455,,,,,,6,0,6,0,1,,,,,
,,151143,001,2023-07-31_20h48.30.634,arm3_eps,2022.2.5,Win32,59.95203837,597866321cb0370001f56015,64c7fed44a04f777bb1e18ce,64c801501ee09f812973950f,right,1,0.75,0.05,1,0.009944249,1.23,,,,,,7,0,7,0,1,,,,,
,,151143,001,2023-07-31_20h48.30.634,arm3_eps,2022.2.5,Win32,59.95203837,597866321cb0370001f56015,64c7fed44a04f777bb1e18ce,64c801501ee09f812973950f,down,1,0.75,0.05,0,0,1.207,,,,,,8,0,8,0,1,,,,,
,,151143,001,2023-07-31_20h48.30.634,arm3_eps,2022.2.5,Win32,59.95203837,597866321cb0370001f56015,64c7fed44a04f777bb1e18ce,64c801501ee09f812973950f,right,1,0.75,0.05,0,0.015224518,1.228,,,,,,9,0,9,0,1,,,,,
,,151143,001,2023-07-31_20h48.30.634,arm3_eps,2022.2.5,Win32,59.95203837,597866321cb0370001f56015,64c7fed44a04f777bb1e18ce,64c801501ee09f812973950f,right,1,0.75,0.05,0,0.020650246,0.448,,,,,,10,0,10,0,1,,,,,
,,151143,001,2023-07-31_20h48.30.634,arm3_eps,2022.2.5,Win32,59.95203837,597866321cb0370001f56015,64c7fed44a04f777bb1e18ce,64c801501ee09f812973950f,up,1,0.75,0.05,1,0,0.491,,,,,,11,0,11,0,1,,,,,
,,151143,001,2023-07-31_20h48.30.634,arm3_eps,2022.2.5,Win32,59.95203837,597866321cb0370001f56015,64c7fed44a04f777bb1e18ce,64c801501ee09f812973950f,right,1,0.75,0.05,1,0.030439865,0.968,,,,,,12,0,12,0,1,,,,,
,,151143,001,2023-07-31_20h48.30.634,arm3_eps,2022.2.5,Win32,59.95203837,597866321cb0370001f56015,64c7fed44a04f777bb1e18ce,64c801501ee09f812973950f,up,1,0.75,0.05,1,0,0.624,,,,,,13,0,13,0,1,,,,,
,,151143,001,2023-07-31_20h48.30.634,arm3_eps,2022.2.5,Win32,59.95203837,597866321cb0370001f56015,64c7fed44a04f777bb1e18ce,64c801501ee09f812973950f,right,1,0.75,0.05,1,-0.020327636,0.88,,,,,,14,0,14,0,1,,,,,
,,151143,001,2023-07-31_20h48.30.634,arm3_eps,2022.2.5,Win32,59.95203837,597866321cb0370001f56015,64c7fed44a04f777bb1e18ce,64c801501ee09f812973950f,up,1,0.75,0.05,1,0,0.703,,,,,,15,0,15,0,1,,,,,
,,151143,001,2023-07-31_20h48.30.634,arm3_eps,2022.2.5,Win32,59.95203837,597866321cb0370001f56015,64c7fed44a04f777bb1e18ce,64c801501ee09f812973950f,right,1,0.75,0.05,1,0.007554258,0.571,,,,,,16,0,16,0,1,,,,,
,,151143,001,2023-07-31_20h48.30.634,arm3_eps,2022.2.5,Win32,59.95203837,597866321cb0370001f56015,64c7fed44a04f777bb1e18ce,64c801501ee09f812973950f,up,1,0.75,0.05,2,0,0.554,,,,,,17,0,17,0,1,,,,,
,,151143,001,2023-07-31_20h48.30.634,arm3_eps,2022.2.5,Win32,59.95203837,597866321cb0370001f56015,64c7fed44a04f777bb1e18ce,64c801501ee09f812973950f,right,1,0.75,0.05,2,-0.010392827,0.864,,,,,,18,0,18,0,1,,,,,
,,151143,001,2023-07-31_20h48.30.634,arm3_eps,2022.2.5,Win32,59.95203837,597866321cb0370001f56015,64c7fed44a04f777bb1e18ce,64c801501ee09f812973950f,up,1,0.75,0.05,3,0,0.656,,,,,,19,0,19,0,1,,,,,
,,151143,001,2023-07-31_20h48.30.634,arm3_eps,2022.2.5,Win32,59.95203837,597866321cb0370001f56015,64c7fed44a04f777bb1e18ce,64c801501ee09f812973950f,right,1,0.75,0.05,3,0.03994721,1,,,,,,20,0,20,0,1,,,,,
,,151143,001,2023-07-31_20h48.30.634,arm3_eps,2022.2.5,Win32,59.95203837,597866321cb0370001f56015,64c7fed44a04f777bb1e18ce,64c801501ee09f812973950f,up,1,0.75,0.05,4,0,0.452,,,,,,21,0,21,0,1,,,,,
,,151143,001,2023-07-31_20h48.30.634,arm3_eps,2022.2.5,Win32,59.95203837,597866321cb0370001f56015,64c7fed44a04f777bb1e18ce,64c801501ee09f812973950f,right,1,0.75,0.05,4,0.004232518,0.905,,,,,,22,0,22,0,1,,,,,
,,151143,001,2023-07-31_20h48.30.634,arm3_eps,2022.2.5,Win32,59.95203837,597866321cb0370001f56015,64c7fed44a04f777bb1e18ce,64c801501ee09f812973950f,right,1,0.75,0.05,4,0.000859247,0.867,,,,,,23,0,23,0,1,,,,,
,,151143,001,2023-07-31_20h48.30.634,arm3_eps,2022.2.5,Win32,59.95203837,597866321cb0370001f56015,64c7fed44a04f777bb1e18ce,64c801501ee09f812973950f,up,1,0.75,0.05,5,0,0.551,,,,,,24,0,24,0,1,,,,,
,,151143,001,2023-07-31_20h48.30.634,arm3_eps,2022.2.5,Win32,59.95203837,597866321cb0370001f56015,64c7fed44a04f777bb1e18ce,64c801501ee09f812973950f,right,1,0.75,0.05,5,0.012037361,0.915,,,,,,25,0,25,0,1,,,,,
,,151143,001,2023-07-31_20h48.30.634,arm3_eps,2022.2.5,Win32,59.95203837,597866321cb0370001f56015,64c7fed44a04f777bb1e18ce,64c801501ee09f812973950f,up,1,0.75,0.05,6,0,1.298,,,,,,26,0,26,0,1,,,,,
,,151143,001,2023-07-31_20h48.30.634,arm3_eps,2022.2.5,Win32,59.95203837,597866321cb0370001f56015,64c7fed44a04f777bb1e18ce,64c801501ee09f812973950f,right,1,0.75,0.05,6,0.00229481,0.773,,,,,,27,0,27,0,1,,,,,
,,151143,001,2023-07-31_20h48.30.634,arm3_eps,2022.2.5,Win32,59.95203837,597866321cb0370001f56015,64c7fed44a04f777bb1e18ce,64c801501ee09f812973950f,right,1,0.75,0.05,6,6.63805E-05,0.886,,,,,,28,0,28,0,1,,,,,
,,151143,001,2023-07-31_20h48.30.634,arm3_eps,2022.2.5,Win32,59.95203837,597866321cb0370001f56015,64c7fed44a04f777bb1e18ce,64c801501ee09f812973950f,down,-1,0.75,0.05,5,0,0.749,,,,,,29,0,29,0,1,,,,,
,,151143,001,2023-07-31_20h48.30.634,arm3_eps,2022.2.5,Win32,59.95203837,597866321cb0370001f56015,64c7fed44a04f777bb1e18ce,64c801501ee09f812973950f,right,-1,0.75,0.05,5,-0.011569953,0.935,,,,,,30,0,30,0,1,,,,,
,,151143,001,2023-07-31_20h48.30.634,arm3_eps,2022.2.5,Win32,59.95203837,597866321cb0370001f56015,64c7fed44a04f777bb1e18ce,64c801501ee09f812973950f,right,-1,0.75,0.05,5,-0.014364875,0.568,,,,,,31,0,31,0,1,,,,,
,,151143,001,2023-07-31_20h48.30.634,arm3_eps,2022.2.5,Win32,59.95203837,597866321cb0370001f56015,64c7fed44a04f777bb1e18ce,64c801501ee09f812973950f,up,-1,0.75,0.05,5,0,0.682,,,,,,32,0,32,0,1,,,,,
,,151143,001,2023-07-31_20h48.30.634,arm3_eps,2022.2.5,Win32,59.95203837,597866321cb0370001f56015,64c7fed44a04f777bb1e18ce,64c801501ee09f812973950f,right,-1,0.75,0.05,5,-0.034167198,0.903,,,,,,33,0,33,0,1,,,,,
,,151143,001,2023-07-31_20h48.30.634,arm3_eps,2022.2.5,Win32,59.95203837,597866321cb0370001f56015,64c7fed44a04f777bb1e18ce,64c801501ee09f812973950f,down,1,0.75,0.05,6,0,0.584,,,,,,34,0,34,0,1,,,,,
,,151143,001,2023-07-31_20h48.30.634,arm3_eps,2022.2.5,Win32,59.95203837,597866321cb0370001f56015,64c7fed44a04f777bb1e18ce,64c801501ee09f812973950f,right,1,0.75,0.05,6,0.015964962,0.839,,,,,,35,0,35,0,1,,,,,
,,151143,001,2023-07-31_20h48.30.634,arm3_eps,2022.2.5,Win32,59.95203837,597866321cb0370001f56015,64c7fed44a04f777bb1e18ce,64c801501ee09f812973950f,up,1,0.75,0.05,7,0,0.55,,,,,,36,0,36,0,1,,,,,
,,151143,001,2023-07-31_20h48.30.634,arm3_eps,2022.2.5,Win32,59.95203837,597866321cb0370001f56015,64c7fed44a04f777bb1e18ce,64c801501ee09f812973950f,right,1,0.75,0.05,7,0.006855231,0.824,,,,,,37,0,37,0,1,,,,,
,,151143,001,2023-07-31_20h48.30.634,arm3_eps,2022.2.5,Win32,59.95203837,597866321cb0370001f56015,64c7fed44a04f777bb1e18ce,64c801501ee09f812973950f,up,1,0.75,0.05,8,0,0.733,,,,,,38,0,38,0,1,,,,,
,,151143,001,2023-07-31_20h48.30.634,arm3_eps,2022.2.5,Win32,59.95203837,597866321cb0370001f56015,64c7fed44a04f777bb1e18ce,64c801501ee09f812973950f,right,1,0.75,0.05,8,0.02454355,0.799,,,,,,39,0,39,0,1,,,,,
,,151143,001,2023-07-31_20h48.30.634,arm3_eps,2022.2.5,Win32,59.95203837,597866321cb0370001f56015,64c7fed44a04f777bb1e18ce,64c801501ee09f812973950f,right,1,0.75,0.05,8,-0.002810617,0.817,,,,,,40,0,40,0,1,,,,,
,,151143,001,2023-07-31_20h48.30.634,arm3_eps,2022.2.5,Win32,59.95203837,597866321cb0370001f56015,64c7fed44a04f777bb1e18ce,64c801501ee09f812973950f,right,1,0.75,0.05,8,-0.012214524,0.733,,,,,,41,0,41,0,1,,,,,
,,151143,001,2023-07-31_20h48.30.634,arm3_eps,2022.2.5,Win32,59.95203837,597866321cb0370001f56015,64c7fed44a04f777bb1e18ce,64c801501ee09f812973950f,up,1,0.75,0.05,9,0,0.838,,,,,,42,0,42,0,1,,,,,
,,151143,001,2023-07-31_20h48.30.634,arm3_eps,2022.2.5,Win32,59.95203837,597866321cb0370001f56015,64c7fed44a04f777bb1e18ce,64c801501ee09f812973950f,right,1,0.75,0.05,9,0.006964672,0.703,,,,,,43,0,43,0,1,,,,,
,,151143,001,2023-07-31_20h48.30.634,arm3_eps,2022.2.5,Win32,59.95203837,597866321cb0370001f56015,64c7fed44a04f777bb1e18ce,64c801501ee09f812973950f,up,1,0.75,0.05,10,0,0.599,,,,,,44,0,44,0,1,,,,,
,,151143,001,2023-07-31_20h48.30.634,arm3_eps,2022.2.5,Win32,59.95203837,597866321cb0370001f56015,64c7fed44a04f777bb1e18ce,64c801501ee09f812973950f,right,1,0.75,0.05,10,0.019846262,0.91,,,,,,45,0,45,0,1,,,,,
,,151143,001,2023-07-31_20h48.30.634,arm3_eps,2022.2.5,Win32,59.95203837,597866321cb0370001f56015,64c7fed44a04f777bb1e18ce,64c801501ee09f812973950f,up,1,0.75,0.05,11,0,0.733,,,,,,46,0,46,0,1,,,,,
,,151143,001,2023-07-31_20h48.30.634,arm3_eps,2022.2.5,Win32,59.95203837,597866321cb0370001f56015,64c7fed44a04f777bb1e18ce,64c801501ee09f812973950f,right,1,0.75,0.05,11,0.017450174,0.848,,,,,,47,0,47,0,1,,,,,
,,151143,001,2023-07-31_20h48.30.634,arm3_eps,2022.2.5,Win32,59.95203837,597866321cb0370001f56015,64c7fed44a04f777bb1e18ce,64c801501ee09f812973950f,up,1,0.75,0.05,11,0,0.42,,,,,,48,0,48,0,1,,,,,
,,151143,001,2023-07-31_20h48.30.634,arm3_eps,2022.2.5,Win32,59.95203837,597866321cb0370001f56015,64c7fed44a04f777bb1e18ce,64c801501ee09f812973950f,right,1,0.75,0.05,11,-0.006570365,2.196,,,,,,49,0,49,0,1,,,,,
,,151143,001,2023-07-31_20h48.30.634,arm3_eps,2022.2.5,Win32,59.95203837,597866321cb0370001f56015,64c7fed44a04f777bb1e18ce,64c801501ee09f812973950f,down,1,0.75,0.05,11,0,0.732,,,,,,50,0,50,0,1,,,,,
,,151143,001,2023-07-31_20h48.30.634,arm3_eps,2022.2.5,Win32,59.95203837,597866321cb0370001f56015,64c7fed44a04f777bb1e18ce,64c801501ee09f812973950f,right,1,0.75,0.05,11,-0.013421031,0.803,,,,,,51,0,51,0,1,,,,,
,,151143,001,2023-07-31_20h48.30.634,arm3_eps,2022.2.5,Win32,59.95203837,597866321cb0370001f56015,64c7fed44a04f777bb1e18ce,64c801501ee09f812973950f,down,1,0.75,0.05,10,0,0.517,,,,,,52,0,52,0,1,,,,,
,,151143,001,2023-07-31_20h48.30.634,arm3_eps,2022.2.5,Win32,59.95203837,597866321cb0370001f56015,64c7fed44a04f777bb1e18ce,64c801501ee09f812973950f,right,1,0.75,0.05,10,-0.009893543,0.885,,,,,,53,0,53,0,1,,,,,
,,151143,001,2023-07-31_20h48.30.634,arm3_eps,2022.2.5,Win32,59.95203837,597866321cb0370001f56015,64c7fed44a04f777bb1e18ce,64c801501ee09f812973950f,right,1,0.75,0.05,10,-0.020999929,0.434,,,,,,54,0,54,0,1,,,,,
,,151143,001,2023-07-31_20h48.30.634,arm3_eps,2022.2.5,Win32,59.95203837,597866321cb0370001f56015,64c7fed44a04f777bb1e18ce,64c801501ee09f812973950f,up,1,0.75,0.05,11,0,0.602,,,,,,55,0,55,0,1,,,,,
,,151143,001,2023-07-31_20h48.30.634,arm3_eps,2022.2.5,Win32,59.95203837,597866321cb0370001f56015,64c7fed44a04f777bb1e18ce,64c801501ee09f812973950f,right,1,0.75,0.05,11,0.013726762,0.846,,,,,,56,0,56,0,1,,,,,
,,151143,001,2023-07-31_20h48.30.634,arm3_eps,2022.2.5,Win32,59.95203837,597866321cb0370001f56015,64c7fed44a04f777bb1e18ce,64c801501ee09f812973950f,up,1,0.75,0.05,12,0,1.105,,,,,,57,0,57,0,1,,,,,
,,151143,001,2023-07-31_20h48.30.634,arm3_eps,2022.2.5,Win32,59.95203837,597866321cb0370001f56015,64c7fed44a04f777bb1e18ce,64c801501ee09f812973950f,right,1,0.75,0.05,12,-0.020768563,0.801,,,,,,58,0,58,0,1,,,,,
,,151143,001,2023-07-31_20h48.30.634,arm3_eps,2022.2.5,Win32,59.95203837,597866321cb0370001f56015,64c7fed44a04f777bb1e18ce,64c801501ee09f812973950f,right,1,0.75,0.05,12,-0.028397509,0.681,,,,,,59,0,59,0,1,,,,,
,,151143,001,2023-07-31_20h48.30.634,arm3_eps,2022.2.5,Win32,59.95203837,597866321cb0370001f56015,64c7fed44a04f777bb1e18ce,64c801501ee09f812973950f,right,1,0.75,0.05,12,-0.033132629,0.48,,,,,,60,0,60,0,1,,,,,
,,151143,001,2023-07-31_20h48.30.634,arm3_eps,2022.2.5,Win32,59.95203837,597866321cb0370001f56015,64c7fed44a04f777bb1e18ce,64c801501ee09f812973950f,up,1,0.75,0.05,13,0,0.611,,,,,,61,0,61,0,1,,,,,
,,151143,001,2023-07-31_20h48.30.634,arm3_eps,2022.2.5,Win32,59.95203837,597866321cb0370001f56015,64c7fed44a04f777bb1e18ce,64c801501ee09f812973950f,right,1,0.75,0.05,13,0.015126439,0.851,,,,,,62,0,62,0,1,,,,,
,,151143,001,2023-07-31_20h48.30.634,arm3_eps,2022.2.5,Win32,59.95203837,597866321cb0370001f56015,64c7fed44a04f777bb1e18ce,64c801501ee09f812973950f,right,1,0.75,0.05,13,-0.004346088,1.069,,,,,,63,0,63,0,1,,,,,
,,151143,001,2023-07-31_20h48.30.634,arm3_eps,2022.2.5,Win32,59.95203837,597866321cb0370001f56015,64c7fed44a04f777bb1e18ce,64c801501ee09f812973950f,up,1,0.75,0.05,14,0,0.591,,,,,,64,0,64,0,1,,,,,
,,151143,001,2023-07-31_20h48.30.634,arm3_eps,2022.2.5,Win32,59.95203837,597866321cb0370001f56015,64c7fed44a04f777bb1e18ce,64c801501ee09f812973950f,right,1,0.75,0.05,14,0.00120876,0.849,,,,,,65,0,65,0,1,,,,,
,,151143,001,2023-07-31_20h48.30.634,arm3_eps,2022.2.5,Win32,59.95203837,597866321cb0370001f56015,64c7fed44a04f777bb1e18ce,64c801501ee09f812973950f,right,1,0.75,0.05,14,0.008909751,0.671,,,,,,66,0,66,0,1,,,,,
,,151143,001,2023-07-31_20h48.30.634,arm3_eps,2022.2.5,Win32,59.95203837,597866321cb0370001f56015,64c7fed44a04f777bb1e18ce,64c801501ee09f812973950f,up,1,0.75,0.05,14,0,0.38,,,,,,67,0,67,0,1,,,,,
,,151143,001,2023-07-31_20h48.30.634,arm3_eps,2022.2.5,Win32,59.95203837,597866321cb0370001f56015,64c7fed44a04f777bb1e18ce,64c801501ee09f812973950f,right,1,0.75,0.05,14,0.013105693,1.015,,,,,,68,0,68,0,1,,,,,
,,151143,001,2023-07-31_20h48.30.634,arm3_eps,2022.2.5,Win32,59.95203837,597866321cb0370001f56015,64c7fed44a04f777bb1e18ce,64c801501ee09f812973950f,up,1,0.75,0.05,15,0,1.451,,,,,,69,0,69,0,1,,,,,
,,151143,001,2023-07-31_20h48.30.634,arm3_eps,2022.2.5,Win32,59.95203837,597866321cb0370001f56015,64c7fed44a04f777bb1e18ce,64c801501ee09f812973950f,right,1,0.75,0.05,15,0.046158933,0.903,,,,,,70,0,70,0,1,,,,,
,,151143,001,2023-07-31_20h48.30.634,arm3_eps,2022.2.5,Win32,59.95203837,597866321cb0370001f56015,64c7fed44a04f777bb1e18ce,64c801501ee09f812973950f,up,1,0.75,0.05,16,0,0.787,,,,,,71,0,71,0,1,,,,,
,,151143,001,2023-07-31_20h48.30.634,arm3_eps,2022.2.5,Win32,59.95203837,597866321cb0370001f56015,64c7fed44a04f777bb1e18ce,64c801501ee09f812973950f,right,1,0.75,0.05,16,0.009188335,0.951,,,,,,72,0,72,0,1,,,,,
,,151143,001,2023-07-31_20h48.30.634,arm3_eps,2022.2.5,Win32,59.95203837,597866321cb0370001f56015,64c7fed44a04f777bb1e18ce,64c801501ee09f812973950f,up,1,0.75,0.05,16,0,0.422,,,,,,73,0,73,0,1,,,,,
,,151143,001,2023-07-31_20h48.30.634,arm3_eps,2022.2.5,Win32,59.95203837,597866321cb0370001f56015,64c7fed44a04f777bb1e18ce,64c801501ee09f812973950f,right,1,0.75,0.05,16,0.007948727,1.656,,,,,,74,0,74,0,1,,,,,
,,151143,001,2023-07-31_20h48.30.634,arm3_eps,2022.2.5,Win32,59.95203837,597866321cb0370001f56015,64c7fed44a04f777bb1e18ce,64c801501ee09f812973950f,right,1,0.75,0.05,16,7.66633E-05,0.699,,,,,,75,0,75,0,1,,,,,
,,151143,001,2023-07-31_20h48.30.634,arm3_eps,2022.2.5,Win32,59.95203837,597866321cb0370001f56015,64c7fed44a04f777bb1e18ce,64c801501ee09f812973950f,down,1,0.75,0.05,15,0,0.766,,,,,,76,0,76,0,1,,,,,
,,151143,001,2023-07-31_20h48.30.634,arm3_eps,2022.2.5,Win32,59.95203837,597866321cb0370001f56015,64c7fed44a04f777bb1e18ce,64c801501ee09f812973950f,right,1,0.75,0.05,15,0.001515373,0.909,,,,,,77,0,77,0,1,,,,,
,,151143,001,2023-07-31_20h48.30.634,arm3_eps,2022.2.5,Win32,59.95203837,597866321cb0370001f56015,64c7fed44a04f777bb1e18ce,64c801501ee09f812973950f,up,1,0.75,0.05,16,0,0.497,,,,,,78,0,78,0,1,,,,,
,,151143,001,2023-07-31_20h48.30.634,arm3_eps,2022.2.5,Win32,59.95203837,597866321cb0370001f56015,64c7fed44a04f777bb1e18ce,64c801501ee09f812973950f,right,1,0.75,0.05,16,-0.021063211,0.873,,,,,,79,0,79,0,1,,,,,
,,151143,001,2023-07-31_20h48.30.634,arm3_eps,2022.2.5,Win32,59.95203837,597866321cb0370001f56015,64c7fed44a04f777bb1e18ce,64c801501ee09f812973950f,up,1,0.75,0.05,17,0,0.55,,,,,,80,0,80,0,1,,,,,
,,151143,001,2023-07-31_20h48.30.634,arm3_eps,2022.2.5,Win32,59.95203837,597866321cb0370001f56015,64c7fed44a04f777bb1e18ce,64c801501ee09f812973950f,right,1,0.75,0.05,17,0.038058668,1.03,,,,,,81,0,81,0,1,,,,,
,,151143,001,2023-07-31_20h48.30.634,arm3_eps,2022.2.5,Win32,59.95203837,597866321cb0370001f56015,64c7fed44a04f777bb1e18ce,64c801501ee09f812973950f,right,1,0.75,0.05,17,0.013019222,0.687,,,,,,82,0,82,0,1,,,,,
,,151143,001,2023-07-31_20h48.30.634,arm3_eps,2022.2.5,Win32,59.95203837,597866321cb0370001f56015,64c7fed44a04f777bb1e18ce,64c801501ee09f812973950f,up,1,0.75,0.05,18,0,0.541,,,,,,83,0,83,0,1,,,,,
,,151143,001,2023-07-31_20h48.30.634,arm3_eps,2022.2.5,Win32,59.95203837,597866321cb0370001f56015,64c7fed44a04f777bb1e18ce,64c801501ee09f812973950f,right,1,0.75,0.05,18,0.00943892,0.911,,,,,,84,0,84,0,1,,,,,
,,151143,001,2023-07-31_20h48.30.634,arm3_eps,2022.2.5,Win32,59.95203837,597866321cb0370001f56015,64c7fed44a04f777bb1e18ce,64c801501ee09f812973950f,up,1,0.75,0.05,19,0,0.484,,,,,,85,0,85,0,1,,,,,
,,151143,001,2023-07-31_20h48.30.634,arm3_eps,2022.2.5,Win32,59.95203837,597866321cb0370001f56015,64c7fed44a04f777bb1e18ce,64c801501ee09f812973950f,right,1,0.75,0.05,19,0.006979805,0.982,,,,,,86,0,86,0,1,,,,,
,,151143,001,2023-07-31_20h48.30.634,arm3_eps,2022.2.5,Win32,59.95203837,597866321cb0370001f56015,64c7fed44a04f777bb1e18ce,64c801501ee09f812973950f,up,1,0.75,0.05,20,0,0.52,,,,,,87,0,87,0,1,,,,,
,,151143,001,2023-07-31_20h48.30.634,arm3_eps,2022.2.5,Win32,59.95203837,597866321cb0370001f56015,64c7fed44a04f777bb1e18ce,64c801501ee09f812973950f,right,1,0.75,0.05,20,0.016982753,0.882,,,,,,88,0,88,0,1,,,,,
,,151143,001,2023-07-31_20h48.30.634,arm3_eps,2022.2.5,Win32,59.95203837,597866321cb0370001f56015,64c7fed44a04f777bb1e18ce,64c801501ee09f812973950f,right,1,0.75,0.05,20,-0.012363324,0.569,,,,,,89,0,89,0,1,,,,,
,,151143,001,2023-07-31_20h48.30.634,arm3_eps,2022.2.5,Win32,59.95203837,597866321cb0370001f56015,64c7fed44a04f777bb1e18ce,64c801501ee09f812973950f,right,1,0.75,0.05,20,-0.021068659,0.415,,,,,,90,0,90,0,1,,,,,
,,151143,001,2023-07-31_20h48.30.634,arm3_eps,2022.2.5,Win32,59.95203837,597866321cb0370001f56015,64c7fed44a04f777bb1e18ce,64c801501ee09f812973950f,right,1,0.75,0.05,20,-0.001310366,0.699,,,,,,91,0,91,0,1,,,,,
,,151143,001,2023-07-31_20h48.30.634,arm3_eps,2022.2.5,Win32,59.95203837,597866321cb0370001f56015,64c7fed44a04f777bb1e18ce,64c801501ee09f812973950f,up,1,0.75,0.05,20,0,0.314,,,,,,92,0,92,0,1,,,,,
,,151143,001,2023-07-31_20h48.30.634,arm3_eps,2022.2.5,Win32,59.95203837,597866321cb0370001f56015,64c7fed44a04f777bb1e18ce,64c801501ee09f812973950f,right,1,0.75,0.05,20,-0.014032183,1.381,,,,,,93,0,93,0,1,,,,,
,,151143,001,2023-07-31_20h48.30.634,arm3_eps,2022.2.5,Win32,59.95203837,597866321cb0370001f56015,64c7fed44a04f777bb1e18ce,64c801501ee09f812973950f,up,1,0.75,0.05,21,0,0.5,,,,,,94,0,94,0,1,,,,,
,,151143,001,2023-07-31_20h48.30.634,arm3_eps,2022.2.5,Win32,59.95203837,597866321cb0370001f56015,64c7fed44a04f777bb1e18ce,64c801501ee09f812973950f,right,1,0.75,0.05,21,-0.030059063,0.85,,,,,,95,0,95,0,1,,,,,
,,151143,001,2023-07-31_20h48.30.634,arm3_eps,2022.2.5,Win32,59.95203837,597866321cb0370001f56015,64c7fed44a04f777bb1e18ce,64c801501ee09f812973950f,up,1,0.75,0.05,22,0,0.526,,,,,,96,0,96,0,1,,,,,
,,151143,001,2023-07-31_20h48.30.634,arm3_eps,2022.2.5,Win32,59.95203837,597866321cb0370001f56015,64c7fed44a04f777bb1e18ce,64c801501ee09f812973950f,right,1,0.75,0.05,22,0.035015473,0.806,,,,,,97,0,97,0,1,,,,,
,,151143,001,2023-07-31_20h48.30.634,arm3_eps,2022.2.5,Win32,59.95203837,597866321cb0370001f56015,64c7fed44a04f777bb1e18ce,64c801501ee09f812973950f,up,1,0.75,0.05,23,0,0.663,,,,,,98,0,98,0,1,,,,,
,,151143,001,2023-07-31_20h48.30.634,arm3_eps,2022.2.5,Win32,59.95203837,597866321cb0370001f56015,64c7fed44a04f777bb1e18ce,64c801501ee09f812973950f,right,1,0.75,0.05,23,0.002800892,0.842,,,,,,99,0,99,0,1,,,,,
,,151143,001,2023-07-31_20h48.30.634,arm3_eps,2022.2.5,Win32,59.95203837,597866321cb0370001f56015,64c7fed44a04f777bb1e18ce,64c801501ee09f812973950f,down,1,0.75,0.05,23,0,1.165,,,,,,100,0,100,0,1,,,,,
,,151143,001,2023-07-31_20h48.30.634,arm3_eps,2022.2.5,Win32,59.95203837,597866321cb0370001f56015,64c7fed44a04f777bb1e18ce,64c801501ee09f812973950f,right,1,0.75,0.05,23,0.013534538,0.892,,,,,,101,0,101,0,1,,,,,
,,151143,001,2023-07-31_20h48.30.634,arm3_eps,2022.2.5,Win32,59.95203837,597866321cb0370001f56015,64c7fed44a04f777bb1e18ce,64c801501ee09f812973950f,down,1,0.75,0.05,22,0,1.153,,,,,,102,0,102,0,1,,,,,
,,151143,001,2023-07-31_20h48.30.634,arm3_eps,2022.2.5,Win32,59.95203837,597866321cb0370001f56015,64c7fed44a04f777bb1e18ce,64c801501ee09f812973950f,right,1,0.75,0.05,22,0.01313606,0.956,,,,,,103,0,103,0,1,,,,,
,,151143,001,2023-07-31_20h48.30.634,arm3_eps,2022.2.5,Win32,59.95203837,597866321cb0370001f56015,64c7fed44a04f777bb1e18ce,64c801501ee09f812973950f,up,1,0.75,0.05,23,0,0.433,,,,,,104,0,104,0,1,,,,,
,,151143,001,2023-07-31_20h48.30.634,arm3_eps,2022.2.5,Win32,59.95203837,597866321cb0370001f56015,64c7fed44a04f777bb1e18ce,64c801501ee09f812973950f,right,1,0.75,0.05,23,0.022805749,0.87,,,,,,105,0,105,0,1,,,,,
,,151143,001,2023-07-31_20h48.30.634,arm3_eps,2022.2.5,Win32,59.95203837,597866321cb0370001f56015,64c7fed44a04f777bb1e18ce,64c801501ee09f812973950f,up,1,0.75,0.05,23,0,0.88,,,,,,106,0,106,0,1,,,,,
,,151143,001,2023-07-31_20h48.30.634,arm3_eps,2022.2.5,Win32,59.95203837,597866321cb0370001f56015,64c7fed44a04f777bb1e18ce,64c801501ee09f812973950f,right,1,0.75,0.05,23,0.04106568,1.225,,,,,,107,0,107,0,1,,,,,
,,151143,001,2023-07-31_20h48.30.634,arm3_eps,2022.2.5,Win32,59.95203837,597866321cb0370001f56015,64c7fed44a04f777bb1e18ce,64c801501ee09f812973950f,up,1,0.75,0.05,24,0,0.535,,,,,,108,0,108,0,1,,,,,
,,151143,001,2023-07-31_20h48.30.634,arm3_eps,2022.2.5,Win32,59.95203837,597866321cb0370001f56015,64c7fed44a04f777bb1e18ce,64c801501ee09f812973950f,right,1,0.75,0.05,24,0.017068964,0.893,,,,,,109,0,109,0,1,,,,,
,,151143,001,2023-07-31_20h48.30.634,arm3_eps,2022.2.5,Win32,59.95203837,597866321cb0370001f56015,64c7fed44a04f777bb1e18ce,64c801501ee09f812973950f,up,1,0.75,0.05,24,0,0.469,,,,,,110,0,110,0,1,,,,,
,,151143,001,2023-07-31_20h48.30.634,arm3_eps,2022.2.5,Win32,59.95203837,597866321cb0370001f56015,64c7fed44a04f777bb1e18ce,64c801501ee09f812973950f,right,1,0.75,0.05,24,-0.001657334,0.857,,,,,,111,0,111,0,1,,,,,
,,151143,001,2023-07-31_20h48.30.634,arm3_eps,2022.2.5,Win32,59.95203837,597866321cb0370001f56015,64c7fed44a04f777bb1e18ce,64c801501ee09f812973950f,right,1,0.75,0.05,24,-0.019489297,0.767,,,,,,112,0,112,0,1,,,,,
,,151143,001,2023-07-31_20h48.30.634,arm3_eps,2022.2.5,Win32,59.95203837,597866321cb0370001f56015,64c7fed44a04f777bb1e18ce,64c801501ee09f812973950f,down,1,0.75,0.05,24,0,0.499,,,,,,113,0,113,0,1,,,,,
,,151143,001,2023-07-31_20h48.30.634,arm3_eps,2022.2.5,Win32,59.95203837,597866321cb0370001f56015,64c7fed44a04f777bb1e18ce,64c801501ee09f812973950f,right,1,0.75,0.05,24,0.013473892,0.872,,,,,,114,0,114,0,1,,,,,
,,151143,001,2023-07-31_20h48.30.634,arm3_eps,2022.2.5,Win32,59.95203837,597866321cb0370001f56015,64c7fed44a04f777bb1e18ce,64c801501ee09f812973950f,up,1,0.75,0.05,25,0,0.48,,,,,,115,0,115,0,1,,,,,
,,151143,001,2023-07-31_20h48.30.634,arm3_eps,2022.2.5,Win32,59.95203837,597866321cb0370001f56015,64c7fed44a04f777bb1e18ce,64c801501ee09f812973950f,right,1,0.75,0.05,25,0.003675346,0.923,,,,,,116,0,116,0,1,,,,,
,,151143,001,2023-07-31_20h48.30.634,arm3_eps,2022.2.5,Win32,59.95203837,597866321cb0370001f56015,64c7fed44a04f777bb1e18ce,64c801501ee09f812973950f,up,1,0.75,0.05,25,0,0.589,,,,,,117,0,117,0,1,,,,,
,,151143,001,2023-07-31_20h48.30.634,arm3_eps,2022.2.5,Win32,59.95203837,597866321cb0370001f56015,64c7fed44a04f777bb1e18ce,64c801501ee09f812973950f,right,1,0.75,0.05,25,0.033968629,1.141,,,,,,118,0,118,0,1,,,,,
,,151143,001,2023-07-31_20h48.30.634,arm3_eps,2022.2.5,Win32,59.95203837,597866321cb0370001f56015,64c7fed44a04f777bb1e18ce,64c801501ee09f812973950f,right,1,0.75,0.05,25,0.032808215,1.082,,,,,,119,0,119,0,1,,,,,
,,151143,001,2023-07-31_20h48.30.634,arm3_eps,2022.2.5,Win32,59.95203837,597866321cb0370001f56015,64c7fed44a04f777bb1e18ce,64c801501ee09f812973950f,up,1,0.75,0.05,26,0,0.521,,,,,,120,0,120,0,1,,,,,
,,151143,001,2023-07-31_20h48.30.634,arm3_eps,2022.2.5,Win32,59.95203837,597866321cb0370001f56015,64c7fed44a04f777bb1e18ce,64c801501ee09f812973950f,right,1,0.75,0.05,26,0.01949558,0.867,,,,,,121,0,121,0,1,,,,,
,,151143,001,2023-07-31_20h48.30.634,arm3_eps,2022.2.5,Win32,59.95203837,597866321cb0370001f56015,64c7fed44a04f777bb1e18ce,64c801501ee09f812973950f,up,-1,0.75,0.05,27,0,0.517,,,,,,122,0,122,0,1,,,,,
,,151143,001,2023-07-31_20h48.30.634,arm3_eps,2022.2.5,Win32,59.95203837,597866321cb0370001f56015,64c7fed44a04f777bb1e18ce,64c801501ee09f812973950f,right,-1,0.75,0.05,27,0.023932901,0.834,,,,,,123,0,123,0,1,,,,,
,,151143,001,2023-07-31_20h48.30.634,arm3_eps,2022.2.5,Win32,59.95203837,597866321cb0370001f56015,64c7fed44a04f777bb1e18ce,64c801501ee09f812973950f,up,-1,0.75,0.05,26,0,0.619,,,,,,124,0,124,0,1,,,,,
,,151143,001,2023-07-31_20h48.30.634,arm3_eps,2022.2.5,Win32,59.95203837,597866321cb0370001f56015,64c7fed44a04f777bb1e18ce,64c801501ee09f812973950f,right,-1,0.75,0.05,26,-0.013049701,0.975,,,,,,125,0,125,0,1,,,,,
,,151143,001,2023-07-31_20h48.30.634,arm3_eps,2022.2.5,Win32,59.95203837,597866321cb0370001f56015,64c7fed44a04f777bb1e18ce,64c801501ee09f812973950f,down,-1,0.75,0.05,27,0,0.651,,,,,,126,0,126,0,1,,,,,
,,151143,001,2023-07-31_20h48.30.634,arm3_eps,2022.2.5,Win32,59.95203837,597866321cb0370001f56015,64c7fed44a04f777bb1e18ce,64c801501ee09f812973950f,right,-1,0.75,0.05,27,-0.026457197,0.893,,,,,,127,0,127,0,1,,,,,
,,151143,001,2023-07-31_20h48.30.634,arm3_eps,2022.2.5,Win32,59.95203837,597866321cb0370001f56015,64c7fed44a04f777bb1e18ce,64c801501ee09f812973950f,down,1,0.75,0.05,28,0,0.484,,,,,,128,0,128,0,1,,,,,
,,151143,001,2023-07-31_20h48.30.634,arm3_eps,2022.2.5,Win32,59.95203837,597866321cb0370001f56015,64c7fed44a04f777bb1e18ce,64c801501ee09f812973950f,right,1,0.75,0.05,28,0.024254353,0.842,,,,,,129,0,129,0,1,,,,,
,,151143,001,2023-07-31_20h48.30.634,arm3_eps,2022.2.5,Win32,59.95203837,597866321cb0370001f56015,64c7fed44a04f777bb1e18ce,64c801501ee09f812973950f,right,1,0.75,0.05,28,0.014355306,0.754,,,,,,130,0,130,0,1,,,,,
,,151143,001,2023-07-31_20h48.30.634,arm3_eps,2022.2.5,Win32,59.95203837,597866321cb0370001f56015,64c7fed44a04f777bb1e18ce,64c801501ee09f812973950f,up,1,0.75,0.05,29,0,0.568,,,,,,131,0,131,0,1,,,,,
,,151143,001,2023-07-31_20h48.30.634,arm3_eps,2022.2.5,Win32,59.95203837,597866321cb0370001f56015,64c7fed44a04f777bb1e18ce,64c801501ee09f812973950f,right,1,0.75,0.05,29,0.00858766,0.862,,,,,,132,0,132,0,1,,,,,
,,151143,001,2023-07-31_20h48.30.634,arm3_eps,2022.2.5,Win32,59.95203837,597866321cb0370001f56015,64c7fed44a04f777bb1e18ce,64c801501ee09f812973950f,up,1,0.75,0.05,30,0,0.492,,,,,,133,0,133,0,1,,,,,
,,151143,001,2023-07-31_20h48.30.634,arm3_eps,2022.2.5,Win32,59.95203837,597866321cb0370001f56015,64c7fed44a04f777bb1e18ce,64c801501ee09f812973950f,right,1,0.75,0.05,30,0.023226541,0.877,,,,,,134,0,134,0,1,,,,,
,,151143,001,2023-07-31_20h48.30.634,arm3_eps,2022.2.5,Win32,59.95203837,597866321cb0370001f56015,64c7fed44a04f777bb1e18ce,64c801501ee09f812973950f,up,1,0.75,0.05,30,0,0.581,,,,,,135,0,135,0,1,,,,,
,,151143,001,2023-07-31_20h48.30.634,arm3_eps,2022.2.5,Win32,59.95203837,597866321cb0370001f56015,64c7fed44a04f777bb1e18ce,64c801501ee09f812973950f,right,1,0.75,0.05,30,0.029514386,1.763,,,,,,136,0,136,0,1,,,,,
,,151143,001,2023-07-31_20h48.30.634,arm3_eps,2022.2.5,Win32,59.95203837,597866321cb0370001f56015,64c7fed44a04f777bb1e18ce,64c801501ee09f812973950f,up,1,0.75,0.05,30,0,0.556,,,,,,137,0,137,0,1,,,,,
,,151143,001,2023-07-31_20h48.30.634,arm3_eps,2022.2.5,Win32,59.95203837,597866321cb0370001f56015,64c7fed44a04f777bb1e18ce,64c801501ee09f812973950f,right,1,0.75,0.05,30,-0.018026593,1.633,,,,,,138,0,138,0,1,,,,,
,,151143,001,2023-07-31_20h48.30.634,arm3_eps,2022.2.5,Win32,59.95203837,597866321cb0370001f56015,64c7fed44a04f777bb1e18ce,64c801501ee09f812973950f,right,1,0.75,0.05,30,-0.017410135,0.534,,,,,,139,0,139,0,1,,,,,
,,151143,001,2023-07-31_20h48.30.634,arm3_eps,2022.2.5,Win32,59.95203837,597866321cb0370001f56015,64c7fed44a04f777bb1e18ce,64c801501ee09f812973950f,up,1,0.75,0.05,31,0,1.157,,,,,,140,0,140,0,1,,,,,
,,151143,001,2023-07-31_20h48.30.634,arm3_eps,2022.2.5,Win32,59.95203837,597866321cb0370001f56015,64c7fed44a04f777bb1e18ce,64c801501ee09f812973950f,right,1,0.75,0.05,31,0.004648382,0.843,,,,,,141,0,141,0,1,,,,,
,,151143,001,2023-07-31_20h48.30.634,arm3_eps,2022.2.5,Win32,59.95203837,597866321cb0370001f56015,64c7fed44a04f777bb1e18ce,64c801501ee09f812973950f,up,1,0.75,0.05,32,0,0.724,,,,,,142,0,142,0,1,,,,,
,,151143,001,2023-07-31_20h48.30.634,arm3_eps,2022.2.5,Win32,59.95203837,597866321cb0370001f56015,64c7fed44a04f777bb1e18ce,64c801501ee09f812973950f,right,1,0.75,0.05,32,-0.012779236,0.843,,,,,,143,0,143,0,1,,,,,
,,151143,001,2023-07-31_20h48.30.634,arm3_eps,2022.2.5,Win32,59.95203837,597866321cb0370001f56015,64c7fed44a04f777bb1e18ce,64c801501ee09f812973950f,up,1,0.75,0.05,32,0,0.75,,,,,,144,0,144,0,1,,,,,
,,151143,001,2023-07-31_20h48.30.634,arm3_eps,2022.2.5,Win32,59.95203837,597866321cb0370001f56015,64c7fed44a04f777bb1e18ce,64c801501ee09f812973950f,right,1,0.75,0.05,32,-0.009443145,1.218,,,,,,145,0,145,0,1,,,,,
,,151143,001,2023-07-31_20h48.30.634,arm3_eps,2022.2.5,Win32,59.95203837,597866321cb0370001f56015,64c7fed44a04f777bb1e18ce,64c801501ee09f812973950f,up,1,0.75,0.05,32,0,0.801,,,,,,146,0,146,0,1,,,,,
,,151143,001,2023-07-31_20h48.30.634,arm3_eps,2022.2.5,Win32,59.95203837,597866321cb0370001f56015,64c7fed44a04f777bb1e18ce,64c801501ee09f812973950f,right,1,0.75,0.05,32,0.028871127,0.873,,,,,,147,0,147,0,1,,,,,
,,151143,001,2023-07-31_20h48.30.634,arm3_eps,2022.2.5,Win32,59.95203837,597866321cb0370001f56015,64c7fed44a04f777bb1e18ce,64c801501ee09f812973950f,right,1,0.75,0.05,32,0.039381455,0.745,,,,,,148,0,148,0,1,,,,,
,,151143,001,2023-07-31_20h48.30.634,arm3_eps,2022.2.5,Win32,59.95203837,597866321cb0370001f56015,64c7fed44a04f777bb1e18ce,64c801501ee09f812973950f,up,1,0.75,0.05,33,0,0.369,,,,,,149,0,149,0,1,,,,,
,,151143,001,2023-07-31_20h48.30.634,arm3_eps,2022.2.5,Win32,59.95203837,597866321cb0370001f56015,64c7fed44a04f777bb1e18ce,64c801501ee09f812973950f,right,1,0.75,0.05,33,-0.000812346,0.823,,,,,,150,0,150,0,1,,,,,
,,151143,001,2023-07-31_20h48.30.634,arm3_eps,2022.2.5,Win32,59.95203837,597866321cb0370001f56015,64c7fed44a04f777bb1e18ce,64c801501ee09f812973950f,up,1,0.75,0.05,34,0,0.484,,,,,,151,0,151,0,1,,,,,
,,151143,001,2023-07-31_20h48.30.634,arm3_eps,2022.2.5,Win32,59.95203837,597866321cb0370001f56015,64c7fed44a04f777bb1e18ce,64c801501ee09f812973950f,right,1,0.75,0.05,34,0.022470684,0.797,,,,,,152,0,152,0,1,,,,,
,,151143,001,2023-07-31_20h48.30.634,arm3_eps,2022.2.5,Win32,59.95203837,597866321cb0370001f56015,64c7fed44a04f777bb1e18ce,64c801501ee09f812973950f,up,1,0.75,0.05,35,0,0.435,,,,,,153,0,153,0,1,,,,,
,,151143,001,2023-07-31_20h48.30.634,arm3_eps,2022.2.5,Win32,59.95203837,597866321cb0370001f56015,64c7fed44a04f777bb1e18ce,64c801501ee09f812973950f,right,1,0.75,0.05,35,0.01146431,0.917,,,,,,154,0,154,0,1,,,,,
,,151143,001,2023-07-31_20h48.30.634,arm3_eps,2022.2.5,Win32,59.95203837,597866321cb0370001f56015,64c7fed44a04f777bb1e18ce,64c801501ee09f812973950f,up,-1,0.75,0.05,35,0,0.567,,,,,,155,0,155,0,1,,,,,
,,151143,001,2023-07-31_20h48.30.634,arm3_eps,2022.2.5,Win32,59.95203837,597866321cb0370001f56015,64c7fed44a04f777bb1e18ce,64c801501ee09f812973950f,right,-1,0.75,0.05,35,-0.001137297,0.987,,,,,,156,0,156,0,1,,,,,
,,151143,001,2023-07-31_20h48.30.634,arm3_eps,2022.2.5,Win32,59.95203837,597866321cb0370001f56015,64c7fed44a04f777bb1e18ce,64c801501ee09f812973950f,down,-1,0.75,0.05,36,0,0.831,,,,,,157,0,157,0,1,,,,,
,,151143,001,2023-07-31_20h48.30.634,arm3_eps,2022.2.5,Win32,59.95203837,597866321cb0370001f56015,64c7fed44a04f777bb1e18ce,64c801501ee09f812973950f,right,-1,0.75,0.05,36,-0.027736444,0.793,,,,,,158,0,158,0,1,,,,,
,,151143,001,2023-07-31_20h48.30.634,arm3_eps,2022.2.5,Win32,59.95203837,597866321cb0370001f56015,64c7fed44a04f777bb1e18ce,64c801501ee09f812973950f,down,-1,0.75,0.05,37,0,0.549,,,,,,159,0,159,0,1,,,,,
,,151143,001,2023-07-31_20h48.30.634,arm3_eps,2022.2.5,Win32,59.95203837,597866321cb0370001f56015,64c7fed44a04f777bb1e18ce,64c801501ee09f812973950f,right,-1,0.75,0.05,37,-0.01311281,0.846,,,,,,160,0,160,0,1,,,,,
,,151143,001,2023-07-31_20h48.30.634,arm3_eps,2022.2.5,Win32,59.95203837,597866321cb0370001f56015,64c7fed44a04f777bb1e18ce,64c801501ee09f812973950f,down,-1,0.75,0.05,38,0,0.453,,,,,,161,0,161,0,1,,,,,
,,151143,001,2023-07-31_20h48.30.634,arm3_eps,2022.2.5,Win32,59.95203837,597866321cb0370001f56015,64c7fed44a04f777bb1e18ce,64c801501ee09f812973950f,right,-1,0.75,0.05,38,-0.012378672,0.893,,,,,,162,0,162,0,1,,,,,
,,151143,001,2023-07-31_20h48.30.634,arm3_eps,2022.2.5,Win32,59.95203837,597866321cb0370001f56015,64c7fed44a04f777bb1e18ce,64c801501ee09f812973950f,right,-1,0.75,0.05,38,0.002304321,0.716,,,,,,163,0,163,0,1,,,,,
,,151143,001,2023-07-31_20h48.30.634,arm3_eps,2022.2.5,Win32,59.95203837,597866321cb0370001f56015,64c7fed44a04f777bb1e18ce,64c801501ee09f812973950f,up,-1,0.75,0.05,37,0,0.64,,,,,,164,0,164,0,1,,,,,
,,151143,001,2023-07-31_20h48.30.634,arm3_eps,2022.2.5,Win32,59.95203837,597866321cb0370001f56015,64c7fed44a04f777bb1e18ce,64c801501ee09f812973950f,right,-1,0.75,0.05,37,0.027786312,1.122,,,,,,165,0,165,0,1,,,,,
,,151143,001,2023-07-31_20h48.30.634,arm3_eps,2022.2.5,Win32,59.95203837,597866321cb0370001f56015,64c7fed44a04f777bb1e18ce,64c801501ee09f812973950f,down,-1,0.75,0.05,37,0,1.017,,,,,,166,0,166,0,1,,,,,
,,151143,001,2023-07-31_20h48.30.634,arm3_eps,2022.2.5,Win32,59.95203837,597866321cb0370001f56015,64c7fed44a04f777bb1e18ce,64c801501ee09f812973950f,right,-1,0.75,0.05,37,-0.029352641,0.861,,,,,,167,0,167,0,1,,,,,
,,151143,001,2023-07-31_20h48.30.634,arm3_eps,2022.2.5,Win32,59.95203837,597866321cb0370001f56015,64c7fed44a04f777bb1e18ce,64c801501ee09f812973950f,down,-1,0.75,0.05,38,0,0.733,,,,,,168,0,168,0,1,,,,,
,,151143,001,2023-07-31_20h48.30.634,arm3_eps,2022.2.5,Win32,59.95203837,597866321cb0370001f56015,64c7fed44a04f777bb1e18ce,64c801501ee09f812973950f,right,-1,0.75,0.05,38,-0.018438252,0.859,,,,,,169,0,169,0,1,,,,,
,,151143,001,2023-07-31_20h48.30.634,arm3_eps,2022.2.5,Win32,59.95203837,597866321cb0370001f56015,64c7fed44a04f777bb1e18ce,64c801501ee09f812973950f,down,-1,0.75,0.05,39,0,0.544,,,,,,170,0,170,0,1,,,,,
,,151143,001,2023-07-31_20h48.30.634,arm3_eps,2022.2.5,Win32,59.95203837,597866321cb0370001f56015,64c7fed44a04f777bb1e18ce,64c801501ee09f812973950f,right,-1,0.75,0.05,39,-0.007779469,0.875,,,,,,171,0,171,0,1,,,,,
,,151143,001,2023-07-31_20h48.30.634,arm3_eps,2022.2.5,Win32,59.95203837,597866321cb0370001f56015,64c7fed44a04f777bb1e18ce,64c801501ee09f812973950f,down,-1,0.75,0.05,40,0,0.636,,,,,,172,0,172,0,1,,,,,
,,151143,001,2023-07-31_20h48.30.634,arm3_eps,2022.2.5,Win32,59.95203837,597866321cb0370001f56015,64c7fed44a04f777bb1e18ce,64c801501ee09f812973950f,right,-1,0.75,0.05,40,0.007643831,0.833,,,,,,173,0,173,0,1,,,,,
,,151143,001,2023-07-31_20h48.30.634,arm3_eps,2022.2.5,Win32,59.95203837,597866321cb0370001f56015,64c7fed44a04f777bb1e18ce,64c801501ee09f812973950f,up,-1,0.75,0.05,39,0,0.532,,,,,,174,0,174,0,1,,,,,
,,151143,001,2023-07-31_20h48.30.634,arm3_eps,2022.2.5,Win32,59.95203837,597866321cb0370001f56015,64c7fed44a04f777bb1e18ce,64c801501ee09f812973950f,right,-1,0.75,0.05,39,-0.003760291,0.865,,,,,,175,0,175,0,1,,,,,
,,151143,001,2023-07-31_20h48.30.634,arm3_eps,2022.2.5,Win32,59.95203837,597866321cb0370001f56015,64c7fed44a04f777bb1e18ce,64c801501ee09f812973950f,down,-1,0.75,0.05,40,0,0.887,,,,,,176,0,176,0,1,,,,,
,,151143,001,2023-07-31_20h48.30.634,arm3_eps,2022.2.5,Win32,59.95203837,597866321cb0370001f56015,64c7fed44a04f777bb1e18ce,64c801501ee09f812973950f,right,-1,0.75,0.05,40,0.006005763,0.842,,,,,,177,0,177,0,1,,,,,
,,151143,001,2023-07-31_20h48.30.634,arm3_eps,2022.2.5,Win32,59.95203837,597866321cb0370001f56015,64c7fed44a04f777bb1e18ce,64c801501ee09f812973950f,down,-1,0.75,0.05,41,0,0.753,,,,,,178,0,178,0,1,,,,,
,,151143,001,2023-07-31_20h48.30.634,arm3_eps,2022.2.5,Win32,59.95203837,597866321cb0370001f56015,64c7fed44a04f777bb1e18ce,64c801501ee09f812973950f,right,-1,0.75,0.05,41,0.031418774,0.652,,,,,,179,0,179,0,1,,,,,
,,151143,001,2023-07-31_20h48.30.634,arm3_eps,2022.2.5,Win32,59.95203837,597866321cb0370001f56015,64c7fed44a04f777bb1e18ce,64c801501ee09f812973950f,down,-1,0.75,0.05,42,0,0.764,,,,,,180,0,180,0,1,,,,,
,,151143,001,2023-07-31_20h48.30.634,arm3_eps,2022.2.5,Win32,59.95203837,597866321cb0370001f56015,64c7fed44a04f777bb1e18ce,64c801501ee09f812973950f,right,-1,0.75,0.05,42,0.003579756,0.724,,,,,,181,0,181,0,1,,,,,
,,151143,001,2023-07-31_20h48.30.634,arm3_eps,2022.2.5,Win32,59.95203837,597866321cb0370001f56015,64c7fed44a04f777bb1e18ce,64c801501ee09f812973950f,down,-1,0.75,0.05,42,0,0.59,,,,,,182,0,182,0,1,,,,,
,,151143,001,2023-07-31_20h48.30.634,arm3_eps,2022.2.5,Win32,59.95203837,597866321cb0370001f56015,64c7fed44a04f777bb1e18ce,64c801501ee09f812973950f,right,-1,0.75,0.05,42,0.007212751,1.095,,,,,,183,0,183,0,1,,,,,
,,151143,001,2023-07-31_20h48.30.634,arm3_eps,2022.2.5,Win32,59.95203837,597866321cb0370001f56015,64c7fed44a04f777bb1e18ce,64c801501ee09f812973950f,down,-1,0.75,0.05,42,0,0.928,,,,,,184,0,184,0,1,,,,,
,,151143,001,2023-07-31_20h48.30.634,arm3_eps,2022.2.5,Win32,59.95203837,597866321cb0370001f56015,64c7fed44a04f777bb1e18ce,64c801501ee09f812973950f,right,-1,0.75,0.05,42,0.004384773,0.719,,,,,,185,0,185,0,1,,,,,
,,151143,001,2023-07-31_20h48.30.634,arm3_eps,2022.2.5,Win32,59.95203837,597866321cb0370001f56015,64c7fed44a04f777bb1e18ce,64c801501ee09f812973950f,right,-1,0.75,0.05,42,-0.001418367,0.901,,,,,,186,0,186,0,1,,,,,
,,151143,001,2023-07-31_20h48.30.634,arm3_eps,2022.2.5,Win32,59.95203837,597866321cb0370001f56015,64c7fed44a04f777bb1e18ce,64c801501ee09f812973950f,down,-1,0.75,0.05,43,0,0.451,,,,,,187,0,187,0,1,,,,,
,,151143,001,2023-07-31_20h48.30.634,arm3_eps,2022.2.5,Win32,59.95203837,597866321cb0370001f56015,64c7fed44a04f777bb1e18ce,64c801501ee09f812973950f,right,-1,0.75,0.05,43,0.01608266,0.843,,,,,,188,0,188,0,1,,,,,
,,151143,001,2023-07-31_20h48.30.634,arm3_eps,2022.2.5,Win32,59.95203837,597866321cb0370001f56015,64c7fed44a04f777bb1e18ce,64c801501ee09f812973950f,right,-1,0.75,0.05,43,-0.000344932,0.583,,,,,,189,0,189,0,1,,,,,
,,151143,001,2023-07-31_20h48.30.634,arm3_eps,2022.2.5,Win32,59.95203837,597866321cb0370001f56015,64c7fed44a04f777bb1e18ce,64c801501ee09f812973950f,up,-1,0.75,0.05,43,0,1.05,,,,,,190,0,190,0,1,,,,,
,,151143,001,2023-07-31_20h48.30.634,arm3_eps,2022.2.5,Win32,59.95203837,597866321cb0370001f56015,64c7fed44a04f777bb1e18ce,64c801501ee09f812973950f,right,-1,0.75,0.05,43,-0.021040043,0.887,,,,,,191,0,191,0,1,,,,,
,,151143,001,2023-07-31_20h48.30.634,arm3_eps,2022.2.5,Win32,59.95203837,597866321cb0370001f56015,64c7fed44a04f777bb1e18ce,64c801501ee09f812973950f,down,-1,0.75,0.05,44,0,0.751,,,,,,192,0,192,0,1,,,,,
,,151143,001,2023-07-31_20h48.30.634,arm3_eps,2022.2.5,Win32,59.95203837,597866321cb0370001f56015,64c7fed44a04f777bb1e18ce,64c801501ee09f812973950f,right,-1,0.75,0.05,44,-0.055847891,1.242,,,,,,193,0,193,0,1,,,,,
,,151143,001,2023-07-31_20h48.30.634,arm3_eps,2022.2.5,Win32,59.95203837,597866321cb0370001f56015,64c7fed44a04f777bb1e18ce,64c801501ee09f812973950f,down,1,0.75,0.05,44,0,0.435,,,,,,194,0,194,0,1,,,,,
,,151143,001,2023-07-31_20h48.30.634,arm3_eps,2022.2.5,Win32,59.95203837,597866321cb0370001f56015,64c7fed44a04f777bb1e18ce,64c801501ee09f812973950f,right,1,0.75,0.05,44,-0.007745448,0.877,,,,,,195,0,195,0,1,,,,,
,,151143,001,2023-07-31_20h48.30.634,arm3_eps,2022.2.5,Win32,59.95203837,597866321cb0370001f56015,64c7fed44a04f777bb1e18ce,64c801501ee09f812973950f,down,1,0.75,0.05,43,0,1.055,,,,,,196,0,196,0,1,,,,,
,,151143,001,2023-07-31_20h48.30.634,arm3_eps,2022.2.5,Win32,59.95203837,597866321cb0370001f56015,64c7fed44a04f777bb1e18ce,64c801501ee09f812973950f,right,1,0.75,0.05,43,0.003877079,0.857,,,,,,197,0,197,0,1,,,,,
,,151143,001,2023-07-31_20h48.30.634,arm3_eps,2022.2.5,Win32,59.95203837,597866321cb0370001f56015,64c7fed44a04f777bb1e18ce,64c801501ee09f812973950f,up,1,0.75,0.05,44,0,0.816,,,,,,198,0,198,0,1,,,,,
,,151143,001,2023-07-31_20h48.30.634,arm3_eps,2022.2.5,Win32,59.95203837,597866321cb0370001f56015,64c7fed44a04f777bb1e18ce,64c801501ee09f812973950f,right,1,0.75,0.05,44,0.0296843,0.805,,,,,,199,0,199,0,1,,,,,
,,151143,001,2023-07-31_20h48.30.634,arm3_eps,2022.2.5,Win32,59.95203837,597866321cb0370001f56015,64c7fed44a04f777bb1e18ce,64c801501ee09f812973950f,up,1,0.75,0.05,45,0,0.485,,,,,,200,0,200,0,1,,,,,
,,151143,001,2023-07-31_20h48.30.634,arm3_eps,2022.2.5,Win32,59.95203837,597866321cb0370001f56015,64c7fed44a04f777bb1e18ce,64c801501ee09f812973950f,right,1,0.75,0.05,45,-0.000143402,0.887,,,,,,201,0,201,0,1,,,,,
,,151143,001,2023-07-31_20h48.30.634,arm3_eps,2022.2.5,Win32,59.95203837,597866321cb0370001f56015,64c7fed44a04f777bb1e18ce,64c801501ee09f812973950f,down,1,0.75,0.05,44,0,0.887,,,,,,202,0,202,0,1,,,,,
,,151143,001,2023-07-31_20h48.30.634,arm3_eps,2022.2.5,Win32,59.95203837,597866321cb0370001f56015,64c7fed44a04f777bb1e18ce,64c801501ee09f812973950f,right,1,0.75,0.05,44,0.016167319,0.78,,,,,,203,0,203,0,1,,,,,
,,151143,001,2023-07-31_20h48.30.634,arm3_eps,2022.2.5,Win32,59.95203837,597866321cb0370001f56015,64c7fed44a04f777bb1e18ce,64c801501ee09f812973950f,up,1,0.75,0.05,44,0,0.549,,,,,,204,0,204,0,1,,,,,
,,151143,001,2023-07-31_20h48.30.634,arm3_eps,2022.2.5,Win32,59.95203837,597866321cb0370001f56015,64c7fed44a04f777bb1e18ce,64c801501ee09f812973950f,right,1,0.75,0.05,44,0.017564506,1.006,,,,,,205,0,205,0,1,,,,,
,,151143,001,2023-07-31_20h48.30.634,arm3_eps,2022.2.5,Win32,59.95203837,597866321cb0370001f56015,64c7fed44a04f777bb1e18ce,64c801501ee09f812973950f,up,1,0.75,0.05,45,0,0.615,,,,,,206,0,206,0,1,,,,,
,,151143,001,2023-07-31_20h48.30.634,arm3_eps,2022.2.5,Win32,59.95203837,597866321cb0370001f56015,64c7fed44a04f777bb1e18ce,64c801501ee09f812973950f,right,1,0.75,0.05,45,0.028909493,2.272,,,,,,207,0,207,0,1,,,,,
,,151143,001,2023-07-31_20h48.30.634,arm3_eps,2022.2.5,Win32,59.95203837,597866321cb0370001f56015,64c7fed44a04f777bb1e18ce,64c801501ee09f812973950f,right,1,0.75,0.05,45,0.023612158,0.875,,,,,,208,0,208,0,1,,,,,
,,151143,001,2023-07-31_20h48.30.634,arm3_eps,2022.2.5,Win32,59.95203837,597866321cb0370001f56015,64c7fed44a04f777bb1e18ce,64c801501ee09f812973950f,up,1,0.75,0.05,46,0,0.427,,,,,,209,0,209,0,1,,,,,
,,151143,001,2023-07-31_20h48.30.634,arm3_eps,2022.2.5,Win32,59.95203837,597866321cb0370001f56015,64c7fed44a04f777bb1e18ce,64c801501ee09f812973950f,right,1,0.75,0.05,46,0.016514744,1.065,,,,,,210,0,210,0,1,,,,,
,,151143,001,2023-07-31_20h48.30.634,arm3_eps,2022.2.5,Win32,59.95203837,597866321cb0370001f56015,64c7fed44a04f777bb1e18ce,64c801501ee09f812973950f,up,1,0.75,0.05,47,0,0.601,,,,,,211,0,211,0,1,,,,,
,,151143,001,2023-07-31_20h48.30.634,arm3_eps,2022.2.5,Win32,59.95203837,597866321cb0370001f56015,64c7fed44a04f777bb1e18ce,64c801501ee09f812973950f,right,1,0.75,0.05,47,0.023629792,1.027,,,,,,212,0,212,0,1,,,,,
,,151143,001,2023-07-31_20h48.30.634,arm3_eps,2022.2.5,Win32,59.95203837,597866321cb0370001f56015,64c7fed44a04f777bb1e18ce,64c801501ee09f812973950f,up,1,0.75,0.05,48,0,0.5,,,,,,213,0,213,0,1,,,,,
,,151143,001,2023-07-31_20h48.30.634,arm3_eps,2022.2.5,Win32,59.95203837,597866321cb0370001f56015,64c7fed44a04f777bb1e18ce,64c801501ee09f812973950f,right,1,0.75,0.05,48,-0.017736306,0.928,,,,,,214,0,214,0,1,,,,,
,,151143,001,2023-07-31_20h48.30.634,arm3_eps,2022.2.5,Win32,59.95203837,597866321cb0370001f56015,64c7fed44a04f777bb1e18ce,64c801501ee09f812973950f,up,1,0.75,0.05,48,0,0.598,,,,,,215,0,215,0,1,,,,,
,,151143,001,2023-07-31_20h48.30.634,arm3_eps,2022.2.5,Win32,59.95203837,597866321cb0370001f56015,64c7fed44a04f777bb1e18ce,64c801501ee09f812973950f,right,1,0.75,0.05,48,-0.026873611,0.854,,,,,,216,0,216,0,1,,,,,
,,151143,001,2023-07-31_20h48.30.634,arm3_eps,2022.2.5,Win32,59.95203837,597866321cb0370001f56015,64c7fed44a04f777bb1e18ce,64c801501ee09f812973950f,up,1,0.75,0.05,48,0,1.338,,,,,,217,0,217,0,1,,,,,
,,151143,001,2023-07-31_20h48.30.634,arm3_eps,2022.2.5,Win32,59.95203837,597866321cb0370001f56015,64c7fed44a04f777bb1e18ce,64c801501ee09f812973950f,right,1,0.75,0.05,48,-0.009759672,0.832,,,,,,218,0,218,0,1,,,,,
,,151143,001,2023-07-31_20h48.30.634,arm3_eps,2022.2.5,Win32,59.95203837,597866321cb0370001f56015,64c7fed44a04f777bb1e18ce,64c801501ee09f812973950f,up,1,0.75,0.05,49,0,0.566,,,,,,219,0,219,0,1,,,,,
,,151143,001,2023-07-31_20h48.30.634,arm3_eps,2022.2.5,Win32,59.95203837,597866321cb0370001f56015,64c7fed44a04f777bb1e18ce,64c801501ee09f812973950f,right,1,0.75,0.05,49,-0.002329003,0.815,,,,,,220,0,220,0,1,,,,,
,,151143,001,2023-07-31_20h48.30.634,arm3_eps,2022.2.5,Win32,59.95203837,597866321cb0370001f56015,64c7fed44a04f777bb1e18ce,64c801501ee09f812973950f,up,1,0.75,0.05,50,0,0.566,,,,,,221,0,221,0,1,,,,,
,,151143,001,2023-07-31_20h48.30.634,arm3_eps,2022.2.5,Win32,59.95203837,597866321cb0370001f56015,64c7fed44a04f777bb1e18ce,64c801501ee09f812973950f,right,1,0.75,0.05,50,-0.006289131,1.454,,,,,,222,0,222,0,1,,,,,
,,151143,001,2023-07-31_20h48.30.634,arm3_eps,2022.2.5,Win32,59.95203837,597866321cb0370001f56015,64c7fed44a04f777bb1e18ce,64c801501ee09f812973950f,up,1,0.75,0.05,51,0,0.884,,,,,,223,0,223,0,1,,,,,
,,151143,001,2023-07-31_20h48.30.634,arm3_eps,2022.2.5,Win32,59.95203837,597866321cb0370001f56015,64c7fed44a04f777bb1e18ce,64c801501ee09f812973950f,right,1,0.75,0.05,51,0.002922782,0.87,,,,,,224,0,224,0,1,,,,,
,,151143,001,2023-07-31_20h48.30.634,arm3_eps,2022.2.5,Win32,59.95203837,597866321cb0370001f56015,64c7fed44a04f777bb1e18ce,64c801501ee09f812973950f,up,1,0.75,0.05,52,0,0.675,,,,,,225,0,225,0,1,,,,,
,,151143,001,2023-07-31_20h48.30.634,arm3_eps,2022.2.5,Win32,59.95203837,597866321cb0370001f56015,64c7fed44a04f777bb1e18ce,64c801501ee09f812973950f,right,1,0.75,0.05,52,-0.016350187,1.632,,,,,,226,0,226,0,1,,,,,
,,151143,001,2023-07-31_20h48.30.634,arm3_eps,2022.2.5,Win32,59.95203837,597866321cb0370001f56015,64c7fed44a04f777bb1e18ce,64c801501ee09f812973950f,right,1,0.75,0.05,52,0.003000128,0.768,,,,,,227,0,227,0,1,,,,,
,,151143,001,2023-07-31_20h48.30.634,arm3_eps,2022.2.5,Win32,59.95203837,597866321cb0370001f56015,64c7fed44a04f777bb1e18ce,64c801501ee09f812973950f,up,1,0.75,0.05,52,0,0.727,,,,,,228,0,228,0,1,,,,,
,,151143,001,2023-07-31_20h48.30.634,arm3_eps,2022.2.5,Win32,59.95203837,597866321cb0370001f56015,64c7fed44a04f777bb1e18ce,64c801501ee09f812973950f,right,1,0.75,0.05,52,-0.000439635,0.742,,,,,,229,0,229,0,1,,,,,
,,151143,001,2023-07-31_20h48.30.634,arm3_eps,2022.2.5,Win32,59.95203837,597866321cb0370001f56015,64c7fed44a04f777bb1e18ce,64c801501ee09f812973950f,up,1,0.75,0.05,53,0,0.494,,,,,,230,0,230,0,1,,,,,
,,151143,001,2023-07-31_20h48.30.634,arm3_eps,2022.2.5,Win32,59.95203837,597866321cb0370001f56015,64c7fed44a04f777bb1e18ce,64c801501ee09f812973950f,right,1,0.75,0.05,53,0.045243159,0.569,,,,,,231,0,231,0,1,,,,,
,,151143,001,2023-07-31_20h48.30.634,arm3_eps,2022.2.5,Win32,59.95203837,597866321cb0370001f56015,64c7fed44a04f777bb1e18ce,64c801501ee09f812973950f,up,1,0.75,0.05,54,0,0.802,,,,,,232,0,232,0,1,,,,,
,,151143,001,2023-07-31_20h48.30.634,arm3_eps,2022.2.5,Win32,59.95203837,597866321cb0370001f56015,64c7fed44a04f777bb1e18ce,64c801501ee09f812973950f,right,1,0.75,0.05,54,0.02180248,0.854,,,,,,233,0,233,0,1,,,,,
,,151143,001,2023-07-31_20h48.30.634,arm3_eps,2022.2.5,Win32,59.95203837,597866321cb0370001f56015,64c7fed44a04f777bb1e18ce,64c801501ee09f812973950f,up,1,0.75,0.05,55,0,0.452,,,,,,234,0,234,0,1,,,,,
,,151143,001,2023-07-31_20h48.30.634,arm3_eps,2022.2.5,Win32,59.95203837,597866321cb0370001f56015,64c7fed44a04f777bb1e18ce,64c801501ee09f812973950f,right,1,0.75,0.05,55,0.014645807,0.988,,,,,,235,0,235,0,1,,,,,
,,151143,001,2023-07-31_20h48.30.634,arm3_eps,2022.2.5,Win32,59.95203837,597866321cb0370001f56015,64c7fed44a04f777bb1e18ce,64c801501ee09f812973950f,up,1,0.75,0.05,56,0,0.57,,,,,,236,0,236,0,1,,,,,
,,151143,001,2023-07-31_20h48.30.634,arm3_eps,2022.2.5,Win32,59.95203837,597866321cb0370001f56015,64c7fed44a04f777bb1e18ce,64c801501ee09f812973950f,right,1,0.75,0.05,56,0.008488061,0.99,,,,,,237,0,237,0,1,,,,,
,,151143,001,2023-07-31_20h48.30.634,arm3_eps,2022.2.5,Win32,59.95203837,597866321cb0370001f56015,64c7fed44a04f777bb1e18ce,64c801501ee09f812973950f,up,1,0.75,0.05,57,0,0.565,,,,,,238,0,238,0,1,,,,,
,,151143,001,2023-07-31_20h48.30.634,arm3_eps,2022.2.5,Win32,59.95203837,597866321cb0370001f56015,64c7fed44a04f777bb1e18ce,64c801501ee09f812973950f,right,1,0.75,0.05,57,0.00031872,1.024,,,,,,239,0,239,0,1,,,,,
,,151143,001,2023-07-31_20h48.30.634,arm3_eps,2022.2.5,Win32,59.95203837,597866321cb0370001f56015,64c7fed44a04f777bb1e18ce,64c801501ee09f812973950f,up,1,0.75,0.05,58,0,0.53,,,,,,240,0,240,0,1,,,,,
,,151143,001,2023-07-31_20h48.30.634,arm3_eps,2022.2.5,Win32,59.95203837,597866321cb0370001f56015,64c7fed44a04f777bb1e18ce,64c801501ee09f812973950f,right,1,0.75,0.05,58,0.022822474,0.885,,,,,,241,0,241,0,1,,,,,
,,151143,001,2023-07-31_20h48.30.634,arm3_eps,2022.2.5,Win32,59.95203837,597866321cb0370001f56015,64c7fed44a04f777bb1e18ce,64c801501ee09f812973950f,up,1,0.75,0.05,59,0,0.769,,,,,,242,0,242,0,1,,,,,
,,151143,001,2023-07-31_20h48.30.634,arm3_eps,2022.2.5,Win32,59.95203837,597866321cb0370001f56015,64c7fed44a04f777bb1e18ce,64c801501ee09f812973950f,right,1,0.75,0.05,59,0.008297935,0.845,,,,,,243,0,243,0,1,,,,,
,,151143,001,2023-07-31_20h48.30.634,arm3_eps,2022.2.5,Win32,59.95203837,597866321cb0370001f56015,64c7fed44a04f777bb1e18ce,64c801501ee09f812973950f,up,1,0.75,0.05,59,0,0.443,,,,,,244,0,244,0,1,,,,,
,,151143,001,2023-07-31_20h48.30.634,arm3_eps,2022.2.5,Win32,59.95203837,597866321cb0370001f56015,64c7fed44a04f777bb1e18ce,64c801501ee09f812973950f,right,1,0.75,0.05,59,0.030126992,0.893,,,,,,245,0,245,0,1,,,,,
,,151143,001,2023-07-31_20h48.30.634,arm3_eps,2022.2.5,Win32,59.95203837,597866321cb0370001f56015,64c7fed44a04f777bb1e18ce,64c801501ee09f812973950f,up,1,0.75,0.05,60,0,0.465,,,,,,246,0,246,0,1,,,,,
,,151143,001,2023-07-31_20h48.30.634,arm3_eps,2022.2.5,Win32,59.95203837,597866321cb0370001f56015,64c7fed44a04f777bb1e18ce,64c801501ee09f812973950f,right,1,0.75,0.05,60,0.025089501,0.887,,,,,,247,0,247,0,1,,,,,
,,151143,001,2023-07-31_20h48.30.634,arm3_eps,2022.2.5,Win32,59.95203837,597866321cb0370001f56015,64c7fed44a04f777bb1e18ce,64c801501ee09f812973950f,up,1,0.75,0.05,60,0,0.517,,,,,,248,0,248,0,1,,,,,
,,151143,001,2023-07-31_20h48.30.634,arm3_eps,2022.2.5,Win32,59.95203837,597866321cb0370001f56015,64c7fed44a04f777bb1e18ce,64c801501ee09f812973950f,right,1,0.75,0.05,60,0.034737019,0.811,,,,,,249,0,249,0,1,,,,,
,,151143,001,2023-07-31_20h48.30.634,arm3_eps,2022.2.5,Win32,59.95203837,597866321cb0370001f56015,64c7fed44a04f777bb1e18ce,64c801501ee09f812973950f,up,1,0.75,0.05,61,0,0.8,,,,,,250,0,250,0,1,,,,,
,,151143,001,2023-07-31_20h48.30.634,arm3_eps,2022.2.5,Win32,59.95203837,597866321cb0370001f56015,64c7fed44a04f777bb1e18ce,64c801501ee09f812973950f,right,1,0.75,0.05,61,-0.006719092,0.845,,,,,,251,0,251,0,1,,,,,
,,151143,001,2023-07-31_20h48.30.634,arm3_eps,2022.2.5,Win32,59.95203837,597866321cb0370001f56015,64c7fed44a04f777bb1e18ce,64c801501ee09f812973950f,up,1,0.75,0.05,62,0,0.833,,,,,,252,0,252,0,1,,,,,
,,151143,001,2023-07-31_20h48.30.634,arm3_eps,2022.2.5,Win32,59.95203837,597866321cb0370001f56015,64c7fed44a04f777bb1e18ce,64c801501ee09f812973950f,right,1,0.75,0.05,62,0.016320067,0.792,,,,,,253,0,253,0,1,,,,,
,,151143,001,2023-07-31_20h48.30.634,arm3_eps,2022.2.5,Win32,59.95203837,597866321cb0370001f56015,64c7fed44a04f777bb1e18ce,64c801501ee09f812973950f,right,1,0.75,0.05,62,0.012589888,1.315,,,,,,254,0,254,0,1,,,,,
,,151143,001,2023-07-31_20h48.30.634,arm3_eps,2022.2.5,Win32,59.95203837,597866321cb0370001f56015,64c7fed44a04f777bb1e18ce,64c801501ee09f812973950f,up,1,0.75,0.05,63,0,0.532,,,,,,255,0,255,0,1,,,,,
,,151143,001,2023-07-31_20h48.30.634,arm3_eps,2022.2.5,Win32,59.95203837,597866321cb0370001f56015,64c7fed44a04f777bb1e18ce,64c801501ee09f812973950f,right,1,0.75,0.05,63,-0.002106105,0.822,,,,,,256,0,256,0,1,,,,,
,,151143,001,2023-07-31_20h48.30.634,arm3_eps,2022.2.5,Win32,59.95203837,597866321cb0370001f56015,64c7fed44a04f777bb1e18ce,64c801501ee09f812973950f,up,1,0.75,0.05,64,0,0.55,,,,,,257,0,257,0,1,,,,,
,,151143,001,2023-07-31_20h48.30.634,arm3_eps,2022.2.5,Win32,59.95203837,597866321cb0370001f56015,64c7fed44a04f777bb1e18ce,64c801501ee09f812973950f,right,1,0.75,0.05,64,0.032709666,0.974,,,,,,258,0,258,0,1,,,,,
,,151143,001,2023-07-31_20h48.30.634,arm3_eps,2022.2.5,Win32,59.95203837,597866321cb0370001f56015,64c7fed44a04f777bb1e18ce,64c801501ee09f812973950f,up,1,0.75,0.05,65,0,0.418,,,,,,259,0,259,0,1,,,,,
,,151143,001,2023-07-31_20h48.30.634,arm3_eps,2022.2.5,Win32,59.95203837,597866321cb0370001f56015,64c7fed44a04f777bb1e18ce,64c801501ee09f812973950f,right,1,0.75,0.05,65,0.019050642,0.857,,,,,,260,0,260,0,1,,,,,
,,151143,001,2023-07-31_20h48.30.634,arm3_eps,2022.2.5,Win32,59.95203837,597866321cb0370001f56015,64c7fed44a04f777bb1e18ce,64c801501ee09f812973950f,right,1,0.75,0.05,65,0.011729222,1.156,,,,,,261,0,261,0,1,,,,,
,,151143,001,2023-07-31_20h48.30.634,arm3_eps,2022.2.5,Win32,59.95203837,597866321cb0370001f56015,64c7fed44a04f777bb1e18ce,64c801501ee09f812973950f,up,1,0.75,0.05,66,0,0.534,,,,,,262,0,262,0,1,,,,,
,,151143,001,2023-07-31_20h48.30.634,arm3_eps,2022.2.5,Win32,59.95203837,597866321cb0370001f56015,64c7fed44a04f777bb1e18ce,64c801501ee09f812973950f,right,1,0.75,0.05,66,0.021066802,0.84,,,,,,263,0,263,0,1,,,,,
,,151143,001,2023-07-31_20h48.30.634,arm3_eps,2022.2.5,Win32,59.95203837,597866321cb0370001f56015,64c7fed44a04f777bb1e18ce,64c801501ee09f812973950f,up,1,0.75,0.05,67,0,0.546,,,,,,264,0,264,0,1,,,,,
,,151143,001,2023-07-31_20h48.30.634,arm3_eps,2022.2.5,Win32,59.95203837,597866321cb0370001f56015,64c7fed44a04f777bb1e18ce,64c801501ee09f812973950f,right,1,0.75,0.05,67,0.016943221,0.78,,,,,,265,0,265,0,1,,,,,
,,151143,001,2023-07-31_20h48.30.634,arm3_eps,2022.2.5,Win32,59.95203837,597866321cb0370001f56015,64c7fed44a04f777bb1e18ce,64c801501ee09f812973950f,up,1,0.75,0.05,68,0,0.5,,,,,,266,0,266,0,1,,,,,
