space_bar.keys,space_bar.rt,participant,session,date,expName,psychopyVersion,OS,frameRate,PROLIFIC_PID,STUDY_ID,SESSION_ID,resp.keys,state,q_prob,eps_prob,score,price,resp.rt,train.thisRepN,train.thisTrialN,train.thisN,train.thisIndex,train.ran,steps.thisRepN,steps.thisTrialN,steps.thisN,steps.thisIndex,steps.ran,blocks.thisRepN,blocks.thisTrialN,blocks.thisN,blocks.thisIndex,blocks.ran
space,8.5534,185028,001,2023-07-31_20h44.15.309,arm3_eps,2022.2.5,Win32,143.6575205,60832513ad492f85d73a0574,64c7fed44a04f777bb1e18ce,64c800dfd20cd1d2831d836e,,,,,,,,,,,,,,,,,,,,,,
space,4.0204,185028,001,2023-07-31_20h44.15.309,arm3_eps,2022.2.5,Win32,143.6575205,60832513ad492f85d73a0574,64c7fed44a04f777bb1e18ce,64c800dfd20cd1d2831d836e,,,,,,,,,,,,,,,,,,,,,,
space,29.686,185028,001,2023-07-31_20h44.15.309,arm3_eps,2022.2.5,Win32,143.6575205,60832513ad492f85d73a0574,64c7fed44a04f777bb1e18ce,64c800dfd20cd1d2831d836e,,,,,,,,,,,,,,,,,,,,,,
space,19.1943,185028,001,2023-07-31_20h44.15.309,arm3_eps,2022.2.5,Win32,143.6575205,60832513ad492f85d73a0574,64c7fed44a04f777bb1e18ce,64c800dfd20cd1d2831d836e,,,,,,,,,,,,,,,,,,,,,,
space,14.4928,185028,001,2023-07-31_20h44.15.309,arm3_eps,2022.2.5,Win32,143.6575205,60832513ad492f85d73a0574,64c7fed44a04f777bb1e18ce,64c800dfd20cd1d2831d836e,,,,,,,,,,,,,,,,,,,,,,
space,9.2991,185028,001,2023-07-31_20h44.15.309,arm3_eps,2022.2.5,Win32,143.6575205,60832513ad492f85d73a0574,64c7fed44a04f777bb1e18ce,64c800dfd20cd1d2831d836e,,,,,,,,,,,,,,,,,,,,,,
space,1.4865,185028,001,2023-07-31_20h44.15.309,arm3_eps,2022.2.5,Win32,143.6575205,60832513ad492f85d73a0574,64c7fed44a04f777bb1e18ce,64c800dfd20cd1d2831d836e,,,,,,,,,,,,,,,,,,,,,,
,,185028,001,2023-07-31_20h44.15.309,arm3_eps,2022.2.5,Win32,143.6575205,60832513ad492f85d73a0574,64c7fed44a04f777bb1e18ce,64c800dfd20cd1d2831d836e,right,1,1,0.2429,0,-0.007336516,2.6836,0,0,0,0,1,,,,,,,,,,
,,185028,001,2023-07-31_20h44.15.309,arm3_eps,2022.2.5,Win32,143.6575205,60832513ad492f85d73a0574,64c7fed44a04f777bb1e18ce,64c800dfd20cd1d2831d836e,right,1,1,0.2429,0,-0.033002219,0.483,1,0,1,0,1,,,,,,,,,,
,,185028,001,2023-07-31_20h44.15.309,arm3_eps,2022.2.5,Win32,143.6575205,60832513ad492f85d73a0574,64c7fed44a04f777bb1e18ce,64c800dfd20cd1d2831d836e,right,1,1,0.2429,0,-0.011161129,0.3158,2,0,2,0,1,,,,,,,,,,
,,185028,001,2023-07-31_20h44.15.309,arm3_eps,2022.2.5,Win32,143.6575205,60832513ad492f85d73a0574,64c7fed44a04f777bb1e18ce,64c800dfd20cd1d2831d836e,right,1,1,0.2429,0,-0.006965225,0.3025,3,0,3,0,1,,,,,,,,,,
,,185028,001,2023-07-31_20h44.15.309,arm3_eps,2022.2.5,Win32,143.6575205,60832513ad492f85d73a0574,64c7fed44a04f777bb1e18ce,64c800dfd20cd1d2831d836e,right,1,1,0.2429,0,0.010489301,0.2925,4,0,4,0,1,,,,,,,,,,
,,185028,001,2023-07-31_20h44.15.309,arm3_eps,2022.2.5,Win32,143.6575205,60832513ad492f85d73a0574,64c7fed44a04f777bb1e18ce,64c800dfd20cd1d2831d836e,right,1,1,0.2429,0,0.029740508,0.2926,5,0,5,0,1,,,,,,,,,,
,,185028,001,2023-07-31_20h44.15.309,arm3_eps,2022.2.5,Win32,143.6575205,60832513ad492f85d73a0574,64c7fed44a04f777bb1e18ce,64c800dfd20cd1d2831d836e,right,1,1,0.2429,0,0.044011531,0.3411,6,0,6,0,1,,,,,,,,,,
,,185028,001,2023-07-31_20h44.15.309,arm3_eps,2022.2.5,Win32,143.6575205,60832513ad492f85d73a0574,64c7fed44a04f777bb1e18ce,64c800dfd20cd1d2831d836e,right,1,1,0.2429,0,0.069314785,0.2833,7,0,7,0,1,,,,,,,,,,
,,185028,001,2023-07-31_20h44.15.309,arm3_eps,2022.2.5,Win32,143.6575205,60832513ad492f85d73a0574,64c7fed44a04f777bb1e18ce,64c800dfd20cd1d2831d836e,up,-1,1,0.2429,1,0,0.9208,8,0,8,0,1,,,,,,,,,,
,,185028,001,2023-07-31_20h44.15.309,arm3_eps,2022.2.5,Win32,143.6575205,60832513ad492f85d73a0574,64c7fed44a04f777bb1e18ce,64c800dfd20cd1d2831d836e,right,-1,1,0.2429,1,0.024628115,1.7102,9,0,9,0,1,,,,,,,,,,
,,185028,001,2023-07-31_20h44.15.309,arm3_eps,2022.2.5,Win32,143.6575205,60832513ad492f85d73a0574,64c7fed44a04f777bb1e18ce,64c800dfd20cd1d2831d836e,right,-1,1,0.2429,1,-0.008312695,0.2346,10,0,10,0,1,,,,,,,,,,
,,185028,001,2023-07-31_20h44.15.309,arm3_eps,2022.2.5,Win32,143.6575205,60832513ad492f85d73a0574,64c7fed44a04f777bb1e18ce,64c800dfd20cd1d2831d836e,right,-1,1,0.2429,1,-0.040983266,0.2439,11,0,11,0,1,,,,,,,,,,
,,185028,001,2023-07-31_20h44.15.309,arm3_eps,2022.2.5,Win32,143.6575205,60832513ad492f85d73a0574,64c7fed44a04f777bb1e18ce,64c800dfd20cd1d2831d836e,right,-1,1,0.2429,1,-0.034848883,0.2119,12,0,12,0,1,,,,,,,,,,
,,185028,001,2023-07-31_20h44.15.309,arm3_eps,2022.2.5,Win32,143.6575205,60832513ad492f85d73a0574,64c7fed44a04f777bb1e18ce,64c800dfd20cd1d2831d836e,right,-1,1,0.2429,1,-0.020678631,0.2383,13,0,13,0,1,,,,,,,,,,
,,185028,001,2023-07-31_20h44.15.309,arm3_eps,2022.2.5,Win32,143.6575205,60832513ad492f85d73a0574,64c7fed44a04f777bb1e18ce,64c800dfd20cd1d2831d836e,right,-1,1,0.2429,1,-0.046371307,0.2468,14,0,14,0,1,,,,,,,,,,
,,185028,001,2023-07-31_20h44.15.309,arm3_eps,2022.2.5,Win32,143.6575205,60832513ad492f85d73a0574,64c7fed44a04f777bb1e18ce,64c800dfd20cd1d2831d836e,right,-1,1,0.2429,1,-0.065073849,0.2467,15,0,15,0,1,,,,,,,,,,
,,185028,001,2023-07-31_20h44.15.309,arm3_eps,2022.2.5,Win32,143.6575205,60832513ad492f85d73a0574,64c7fed44a04f777bb1e18ce,64c800dfd20cd1d2831d836e,right,-1,1,0.2429,1,-0.052550208,0.8392,16,0,16,0,1,,,,,,,,,,
,,185028,001,2023-07-31_20h44.15.309,arm3_eps,2022.2.5,Win32,143.6575205,60832513ad492f85d73a0574,64c7fed44a04f777bb1e18ce,64c800dfd20cd1d2831d836e,down,-1,1,0.2429,2,0,0.3919,17,0,17,0,1,,,,,,,,,,
,,185028,001,2023-07-31_20h44.15.309,arm3_eps,2022.2.5,Win32,143.6575205,60832513ad492f85d73a0574,64c7fed44a04f777bb1e18ce,64c800dfd20cd1d2831d836e,right,-1,1,0.2429,2,-0.032507887,0.6473,18,0,18,0,1,,,,,,,,,,
,,185028,001,2023-07-31_20h44.15.309,arm3_eps,2022.2.5,Win32,143.6575205,60832513ad492f85d73a0574,64c7fed44a04f777bb1e18ce,64c800dfd20cd1d2831d836e,right,-1,1,0.2429,2,-0.062933928,0.8365,19,0,19,0,1,,,,,,,,,,
,,185028,001,2023-07-31_20h44.15.309,arm3_eps,2022.2.5,Win32,143.6575205,60832513ad492f85d73a0574,64c7fed44a04f777bb1e18ce,64c800dfd20cd1d2831d836e,right,-1,1,0.2429,2,-0.082032484,0.2655,20,0,20,0,1,,,,,,,,,,
,,185028,001,2023-07-31_20h44.15.309,arm3_eps,2022.2.5,Win32,143.6575205,60832513ad492f85d73a0574,64c7fed44a04f777bb1e18ce,64c800dfd20cd1d2831d836e,right,-1,1,0.2429,2,-0.085494546,0.1917,21,0,21,0,1,,,,,,,,,,
,,185028,001,2023-07-31_20h44.15.309,arm3_eps,2022.2.5,Win32,143.6575205,60832513ad492f85d73a0574,64c7fed44a04f777bb1e18ce,64c800dfd20cd1d2831d836e,right,-1,1,0.2429,2,-0.07679351,0.2032,22,0,22,0,1,,,,,,,,,,
,,185028,001,2023-07-31_20h44.15.309,arm3_eps,2022.2.5,Win32,143.6575205,60832513ad492f85d73a0574,64c7fed44a04f777bb1e18ce,64c800dfd20cd1d2831d836e,right,-1,1,0.2429,2,-0.10450567,0.2112,23,0,23,0,1,,,,,,,,,,
,,185028,001,2023-07-31_20h44.15.309,arm3_eps,2022.2.5,Win32,143.6575205,60832513ad492f85d73a0574,64c7fed44a04f777bb1e18ce,64c800dfd20cd1d2831d836e,right,-1,1,0.2429,2,-0.07675101,0.2429,24,0,24,0,1,,,,,,,,,,
,,185028,001,2023-07-31_20h44.15.309,arm3_eps,2022.2.5,Win32,143.6575205,60832513ad492f85d73a0574,64c7fed44a04f777bb1e18ce,64c800dfd20cd1d2831d836e,right,-1,1,0.2429,2,-0.08305731,0.247,25,0,25,0,1,,,,,,,,,,
,,185028,001,2023-07-31_20h44.15.309,arm3_eps,2022.2.5,Win32,143.6575205,60832513ad492f85d73a0574,64c7fed44a04f777bb1e18ce,64c800dfd20cd1d2831d836e,right,-1,1,0.2429,2,-0.088872885,0.2358,26,0,26,0,1,,,,,,,,,,
,,185028,001,2023-07-31_20h44.15.309,arm3_eps,2022.2.5,Win32,143.6575205,60832513ad492f85d73a0574,64c7fed44a04f777bb1e18ce,64c800dfd20cd1d2831d836e,up,-1,1,0.2429,1,0,0.8337,27,0,27,0,1,,,,,,,,,,
,,185028,001,2023-07-31_20h44.15.309,arm3_eps,2022.2.5,Win32,143.6575205,60832513ad492f85d73a0574,64c7fed44a04f777bb1e18ce,64c800dfd20cd1d2831d836e,right,-1,1,0.2429,1,-0.037037351,1.7702,28,0,28,0,1,,,,,,,,,,
,,185028,001,2023-07-31_20h44.15.309,arm3_eps,2022.2.5,Win32,143.6575205,60832513ad492f85d73a0574,64c7fed44a04f777bb1e18ce,64c800dfd20cd1d2831d836e,right,-1,1,0.2429,1,-0.036088384,0.1857,29,0,29,0,1,,,,,,,,,,
,,185028,001,2023-07-31_20h44.15.309,arm3_eps,2022.2.5,Win32,143.6575205,60832513ad492f85d73a0574,64c7fed44a04f777bb1e18ce,64c800dfd20cd1d2831d836e,right,-1,1,0.2429,1,-0.051817634,0.1821,30,0,30,0,1,,,,,,,,,,
,,185028,001,2023-07-31_20h44.15.309,arm3_eps,2022.2.5,Win32,143.6575205,60832513ad492f85d73a0574,64c7fed44a04f777bb1e18ce,64c800dfd20cd1d2831d836e,right,-1,1,0.2429,1,-0.056072085,0.1664,31,0,31,0,1,,,,,,,,,,
,,185028,001,2023-07-31_20h44.15.309,arm3_eps,2022.2.5,Win32,143.6575205,60832513ad492f85d73a0574,64c7fed44a04f777bb1e18ce,64c800dfd20cd1d2831d836e,right,-1,1,0.2429,1,-0.061269195,0.1563,32,0,32,0,1,,,,,,,,,,
,,185028,001,2023-07-31_20h44.15.309,arm3_eps,2022.2.5,Win32,143.6575205,60832513ad492f85d73a0574,64c7fed44a04f777bb1e18ce,64c800dfd20cd1d2831d836e,right,-1,1,0.2429,1,-0.067128434,0.1557,33,0,33,0,1,,,,,,,,,,
,,185028,001,2023-07-31_20h44.15.309,arm3_eps,2022.2.5,Win32,143.6575205,60832513ad492f85d73a0574,64c7fed44a04f777bb1e18ce,64c800dfd20cd1d2831d836e,right,-1,1,0.2429,1,-0.058621551,0.1439,34,0,34,0,1,,,,,,,,,,
,,185028,001,2023-07-31_20h44.15.309,arm3_eps,2022.2.5,Win32,143.6575205,60832513ad492f85d73a0574,64c7fed44a04f777bb1e18ce,64c800dfd20cd1d2831d836e,right,-1,1,0.2429,1,-0.100372689,0.1654,35,0,35,0,1,,,,,,,,,,
,,185028,001,2023-07-31_20h44.15.309,arm3_eps,2022.2.5,Win32,143.6575205,60832513ad492f85d73a0574,64c7fed44a04f777bb1e18ce,64c800dfd20cd1d2831d836e,right,-1,1,0.2429,1,-0.088533849,0.1625,36,0,36,0,1,,,,,,,,,,
,,185028,001,2023-07-31_20h44.15.309,arm3_eps,2022.2.5,Win32,143.6575205,60832513ad492f85d73a0574,64c7fed44a04f777bb1e18ce,64c800dfd20cd1d2831d836e,right,-1,1,0.2429,1,-0.077150361,0.1675,37,0,37,0,1,,,,,,,,,,
,,185028,001,2023-07-31_20h44.15.309,arm3_eps,2022.2.5,Win32,143.6575205,60832513ad492f85d73a0574,64c7fed44a04f777bb1e18ce,64c800dfd20cd1d2831d836e,right,-1,1,0.2429,1,-0.101872678,0.1782,38,0,38,0,1,,,,,,,,,,
,,185028,001,2023-07-31_20h44.15.309,arm3_eps,2022.2.5,Win32,143.6575205,60832513ad492f85d73a0574,64c7fed44a04f777bb1e18ce,64c800dfd20cd1d2831d836e,right,-1,1,0.2429,1,-0.125925076,0.3273,39,0,39,0,1,,,,,,,,,,
,,185028,001,2023-07-31_20h44.15.309,arm3_eps,2022.2.5,Win32,143.6575205,60832513ad492f85d73a0574,64c7fed44a04f777bb1e18ce,64c800dfd20cd1d2831d836e,down,-1,1,0.2429,2,0,1.3388,40,0,40,0,1,,,,,,,,,,
,,185028,001,2023-07-31_20h44.15.309,arm3_eps,2022.2.5,Win32,143.6575205,60832513ad492f85d73a0574,64c7fed44a04f777bb1e18ce,64c800dfd20cd1d2831d836e,right,-1,1,0.2429,2,-0.022153625,1.1091,41,0,41,0,1,,,,,,,,,,
,,185028,001,2023-07-31_20h44.15.309,arm3_eps,2022.2.5,Win32,143.6575205,60832513ad492f85d73a0574,64c7fed44a04f777bb1e18ce,64c800dfd20cd1d2831d836e,right,-1,1,0.2429,2,-0.049965635,0.1673,42,0,42,0,1,,,,,,,,,,
,,185028,001,2023-07-31_20h44.15.309,arm3_eps,2022.2.5,Win32,143.6575205,60832513ad492f85d73a0574,64c7fed44a04f777bb1e18ce,64c800dfd20cd1d2831d836e,right,-1,1,0.2429,2,-0.086134308,0.1809,43,0,43,0,1,,,,,,,,,,
,,185028,001,2023-07-31_20h44.15.309,arm3_eps,2022.2.5,Win32,143.6575205,60832513ad492f85d73a0574,64c7fed44a04f777bb1e18ce,64c800dfd20cd1d2831d836e,right,-1,1,0.2429,2,-0.070510956,0.1656,44,0,44,0,1,,,,,,,,,,
,,185028,001,2023-07-31_20h44.15.309,arm3_eps,2022.2.5,Win32,143.6575205,60832513ad492f85d73a0574,64c7fed44a04f777bb1e18ce,64c800dfd20cd1d2831d836e,right,-1,1,0.2429,2,-0.096521707,0.1617,45,0,45,0,1,,,,,,,,,,
,,185028,001,2023-07-31_20h44.15.309,arm3_eps,2022.2.5,Win32,143.6575205,60832513ad492f85d73a0574,64c7fed44a04f777bb1e18ce,64c800dfd20cd1d2831d836e,right,-1,1,0.2429,2,-0.117914482,0.1637,46,0,46,0,1,,,,,,,,,,
,,185028,001,2023-07-31_20h44.15.309,arm3_eps,2022.2.5,Win32,143.6575205,60832513ad492f85d73a0574,64c7fed44a04f777bb1e18ce,64c800dfd20cd1d2831d836e,right,-1,1,0.2429,2,-0.114719092,0.1775,47,0,47,0,1,,,,,,,,,,
,,185028,001,2023-07-31_20h44.15.309,arm3_eps,2022.2.5,Win32,143.6575205,60832513ad492f85d73a0574,64c7fed44a04f777bb1e18ce,64c800dfd20cd1d2831d836e,right,-1,1,0.2429,2,-0.137519333,0.149,48,0,48,0,1,,,,,,,,,,
,,185028,001,2023-07-31_20h44.15.309,arm3_eps,2022.2.5,Win32,143.6575205,60832513ad492f85d73a0574,64c7fed44a04f777bb1e18ce,64c800dfd20cd1d2831d836e,down,-1,1,0.2429,2,-0.137519333,0.3475,49,0,49,0,1,,,,,,,,,,
space,24.9802,185028,001,2023-07-31_20h44.15.309,arm3_eps,2022.2.5,Win32,143.6575205,60832513ad492f85d73a0574,64c7fed44a04f777bb1e18ce,64c800dfd20cd1d2831d836e,,,,,,,,,,,,,,,,,,,,,,
space,11.8563,185028,001,2023-07-31_20h44.15.309,arm3_eps,2022.2.5,Win32,143.6575205,60832513ad492f85d73a0574,64c7fed44a04f777bb1e18ce,64c800dfd20cd1d2831d836e,,,,,,,,,,,,,,,,,,,,,,
space,15.9847,185028,001,2023-07-31_20h44.15.309,arm3_eps,2022.2.5,Win32,143.6575205,60832513ad492f85d73a0574,64c7fed44a04f777bb1e18ce,64c800dfd20cd1d2831d836e,,,,,,,,,,,,,,,,,,,,,,
space,7.3153,185028,001,2023-07-31_20h44.15.309,arm3_eps,2022.2.5,Win32,143.6575205,60832513ad492f85d73a0574,64c7fed44a04f777bb1e18ce,64c800dfd20cd1d2831d836e,,,,,,,,,,,,,,,,,,,,,,
space,13.9325,185028,001,2023-07-31_20h44.15.309,arm3_eps,2022.2.5,Win32,143.6575205,60832513ad492f85d73a0574,64c7fed44a04f777bb1e18ce,64c800dfd20cd1d2831d836e,,,,,,,,,,,,,,,,,,,,,,
space,1.2638,185028,001,2023-07-31_20h44.15.309,arm3_eps,2022.2.5,Win32,143.6575205,60832513ad492f85d73a0574,64c7fed44a04f777bb1e18ce,64c800dfd20cd1d2831d836e,,,,,,,,,,,,,,,,,,,,,,
,,185028,001,2023-07-31_20h44.15.309,arm3_eps,2022.2.5,Win32,143.6575205,60832513ad492f85d73a0574,64c7fed44a04f777bb1e18ce,64c800dfd20cd1d2831d836e,right,-1,0.75,0.2429,0,-0.046769537,2.0198,0,0,0,0,1,,,,,,,,,,
,,185028,001,2023-07-31_20h44.15.309,arm3_eps,2022.2.5,Win32,143.6575205,60832513ad492f85d73a0574,64c7fed44a04f777bb1e18ce,64c800dfd20cd1d2831d836e,right,-1,0.75,0.2429,0,-0.051842604,0.3358,1,0,1,0,1,,,,,,,,,,
,,185028,001,2023-07-31_20h44.15.309,arm3_eps,2022.2.5,Win32,143.6575205,60832513ad492f85d73a0574,64c7fed44a04f777bb1e18ce,64c800dfd20cd1d2831d836e,right,-1,0.75,0.2429,0,-0.063827752,0.2854,2,0,2,0,1,,,,,,,,,,
,,185028,001,2023-07-31_20h44.15.309,arm3_eps,2022.2.5,Win32,143.6575205,60832513ad492f85d73a0574,64c7fed44a04f777bb1e18ce,64c800dfd20cd1d2831d836e,right,-1,0.75,0.2429,0,-0.074791049,0.3968,3,0,3,0,1,,,,,,,,,,
,,185028,001,2023-07-31_20h44.15.309,arm3_eps,2022.2.5,Win32,143.6575205,60832513ad492f85d73a0574,64c7fed44a04f777bb1e18ce,64c800dfd20cd1d2831d836e,right,-1,0.75,0.2429,0,-0.113137264,0.3092,4,0,4,0,1,,,,,,,,,,
,,185028,001,2023-07-31_20h44.15.309,arm3_eps,2022.2.5,Win32,143.6575205,60832513ad492f85d73a0574,64c7fed44a04f777bb1e18ce,64c800dfd20cd1d2831d836e,down,-1,0.75,0.2429,1,0,0.3666,5,0,5,0,1,,,,,,,,,,
,,185028,001,2023-07-31_20h44.15.309,arm3_eps,2022.2.5,Win32,143.6575205,60832513ad492f85d73a0574,64c7fed44a04f777bb1e18ce,64c800dfd20cd1d2831d836e,right,-1,0.75,0.2429,1,-0.00919792,1.5008,6,0,6,0,1,,,,,,,,,,
,,185028,001,2023-07-31_20h44.15.309,arm3_eps,2022.2.5,Win32,143.6575205,60832513ad492f85d73a0574,64c7fed44a04f777bb1e18ce,64c800dfd20cd1d2831d836e,right,-1,0.75,0.2429,1,-0.019312627,0.3091,7,0,7,0,1,,,,,,,,,,
,,185028,001,2023-07-31_20h44.15.309,arm3_eps,2022.2.5,Win32,143.6575205,60832513ad492f85d73a0574,64c7fed44a04f777bb1e18ce,64c800dfd20cd1d2831d836e,right,-1,0.75,0.2429,1,-0.005297697,0.2301,8,0,8,0,1,,,,,,,,,,
,,185028,001,2023-07-31_20h44.15.309,arm3_eps,2022.2.5,Win32,143.6575205,60832513ad492f85d73a0574,64c7fed44a04f777bb1e18ce,64c800dfd20cd1d2831d836e,right,-1,0.75,0.2429,1,-0.00624463,0.2811,9,0,9,0,1,,,,,,,,,,
,,185028,001,2023-07-31_20h44.15.309,arm3_eps,2022.2.5,Win32,143.6575205,60832513ad492f85d73a0574,64c7fed44a04f777bb1e18ce,64c800dfd20cd1d2831d836e,right,-1,0.75,0.2429,1,-0.020381354,0.2562,10,0,10,0,1,,,,,,,,,,
,,185028,001,2023-07-31_20h44.15.309,arm3_eps,2022.2.5,Win32,143.6575205,60832513ad492f85d73a0574,64c7fed44a04f777bb1e18ce,64c800dfd20cd1d2831d836e,right,-1,0.75,0.2429,1,-0.035322795,0.2513,11,0,11,0,1,,,,,,,,,,
,,185028,001,2023-07-31_20h44.15.309,arm3_eps,2022.2.5,Win32,143.6575205,60832513ad492f85d73a0574,64c7fed44a04f777bb1e18ce,64c800dfd20cd1d2831d836e,right,-1,0.75,0.2429,1,-0.048568268,0.3086,12,0,12,0,1,,,,,,,,,,
,,185028,001,2023-07-31_20h44.15.309,arm3_eps,2022.2.5,Win32,143.6575205,60832513ad492f85d73a0574,64c7fed44a04f777bb1e18ce,64c800dfd20cd1d2831d836e,right,-1,0.75,0.2429,1,-0.061781306,0.3419,13,0,13,0,1,,,,,,,,,,
,,185028,001,2023-07-31_20h44.15.309,arm3_eps,2022.2.5,Win32,143.6575205,60832513ad492f85d73a0574,64c7fed44a04f777bb1e18ce,64c800dfd20cd1d2831d836e,down,-1,0.75,0.2429,1,0,0.3374,14,0,14,0,1,,,,,,,,,,
,,185028,001,2023-07-31_20h44.15.309,arm3_eps,2022.2.5,Win32,143.6575205,60832513ad492f85d73a0574,64c7fed44a04f777bb1e18ce,64c800dfd20cd1d2831d836e,right,-1,0.75,0.2429,1,0.001546781,0.9336,15,0,15,0,1,,,,,,,,,,
,,185028,001,2023-07-31_20h44.15.309,arm3_eps,2022.2.5,Win32,143.6575205,60832513ad492f85d73a0574,64c7fed44a04f777bb1e18ce,64c800dfd20cd1d2831d836e,right,-1,0.75,0.2429,1,0.006652567,0.2535,16,0,16,0,1,,,,,,,,,,
,,185028,001,2023-07-31_20h44.15.309,arm3_eps,2022.2.5,Win32,143.6575205,60832513ad492f85d73a0574,64c7fed44a04f777bb1e18ce,64c800dfd20cd1d2831d836e,right,-1,0.75,0.2429,1,-0.004187943,0.2732,17,0,17,0,1,,,,,,,,,,
,,185028,001,2023-07-31_20h44.15.309,arm3_eps,2022.2.5,Win32,143.6575205,60832513ad492f85d73a0574,64c7fed44a04f777bb1e18ce,64c800dfd20cd1d2831d836e,right,-1,0.75,0.2429,1,0.010710475,0.2625,18,0,18,0,1,,,,,,,,,,
,,185028,001,2023-07-31_20h44.15.309,arm3_eps,2022.2.5,Win32,143.6575205,60832513ad492f85d73a0574,64c7fed44a04f777bb1e18ce,64c800dfd20cd1d2831d836e,right,-1,0.75,0.2429,1,0.020333322,0.2999,19,0,19,0,1,,,,,,,,,,
,,185028,001,2023-07-31_20h44.15.309,arm3_eps,2022.2.5,Win32,143.6575205,60832513ad492f85d73a0574,64c7fed44a04f777bb1e18ce,64c800dfd20cd1d2831d836e,right,-1,0.75,0.2429,1,0.015109633,0.391,20,0,20,0,1,,,,,,,,,,
,,185028,001,2023-07-31_20h44.15.309,arm3_eps,2022.2.5,Win32,143.6575205,60832513ad492f85d73a0574,64c7fed44a04f777bb1e18ce,64c800dfd20cd1d2831d836e,right,-1,0.75,0.2429,1,0.025043848,0.3271,21,0,21,0,1,,,,,,,,,,
,,185028,001,2023-07-31_20h44.15.309,arm3_eps,2022.2.5,Win32,143.6575205,60832513ad492f85d73a0574,64c7fed44a04f777bb1e18ce,64c800dfd20cd1d2831d836e,up,-1,0.75,0.2429,0,0,0.3924,22,0,22,0,1,,,,,,,,,,
,,185028,001,2023-07-31_20h44.15.309,arm3_eps,2022.2.5,Win32,143.6575205,60832513ad492f85d73a0574,64c7fed44a04f777bb1e18ce,64c800dfd20cd1d2831d836e,right,-1,0.75,0.2429,0,-0.008539336,0.7047,23,0,23,0,1,,,,,,,,,,
,,185028,001,2023-07-31_20h44.15.309,arm3_eps,2022.2.5,Win32,143.6575205,60832513ad492f85d73a0574,64c7fed44a04f777bb1e18ce,64c800dfd20cd1d2831d836e,right,-1,0.75,0.2429,0,-0.014585853,0.2771,24,0,24,0,1,,,,,,,,,,
,,185028,001,2023-07-31_20h44.15.309,arm3_eps,2022.2.5,Win32,143.6575205,60832513ad492f85d73a0574,64c7fed44a04f777bb1e18ce,64c800dfd20cd1d2831d836e,right,-1,0.75,0.2429,0,-0.045500827,0.1727,25,0,25,0,1,,,,,,,,,,
,,185028,001,2023-07-31_20h44.15.309,arm3_eps,2022.2.5,Win32,143.6575205,60832513ad492f85d73a0574,64c7fed44a04f777bb1e18ce,64c800dfd20cd1d2831d836e,right,-1,0.75,0.2429,0,-0.060468987,0.1293,26,0,26,0,1,,,,,,,,,,
,,185028,001,2023-07-31_20h44.15.309,arm3_eps,2022.2.5,Win32,143.6575205,60832513ad492f85d73a0574,64c7fed44a04f777bb1e18ce,64c800dfd20cd1d2831d836e,right,-1,0.75,0.2429,0,-0.061089577,0.1191,27,0,27,0,1,,,,,,,,,,
,,185028,001,2023-07-31_20h44.15.309,arm3_eps,2022.2.5,Win32,143.6575205,60832513ad492f85d73a0574,64c7fed44a04f777bb1e18ce,64c800dfd20cd1d2831d836e,right,-1,0.75,0.2429,0,-0.038653857,0.0944,28,0,28,0,1,,,,,,,,,,
,,185028,001,2023-07-31_20h44.15.309,arm3_eps,2022.2.5,Win32,143.6575205,60832513ad492f85d73a0574,64c7fed44a04f777bb1e18ce,64c800dfd20cd1d2831d836e,down,-1,0.75,0.2429,1,0,0.6988,29,0,29,0,1,,,,,,,,,,
,,185028,001,2023-07-31_20h44.15.309,arm3_eps,2022.2.5,Win32,143.6575205,60832513ad492f85d73a0574,64c7fed44a04f777bb1e18ce,64c800dfd20cd1d2831d836e,right,-1,0.75,0.2429,1,0.014701378,1.4276,30,0,30,0,1,,,,,,,,,,
,,185028,001,2023-07-31_20h44.15.309,arm3_eps,2022.2.5,Win32,143.6575205,60832513ad492f85d73a0574,64c7fed44a04f777bb1e18ce,64c800dfd20cd1d2831d836e,right,-1,0.75,0.2429,1,-0.008731991,0.2348,31,0,31,0,1,,,,,,,,,,
,,185028,001,2023-07-31_20h44.15.309,arm3_eps,2022.2.5,Win32,143.6575205,60832513ad492f85d73a0574,64c7fed44a04f777bb1e18ce,64c800dfd20cd1d2831d836e,right,-1,0.75,0.2429,1,-0.000691363,0.1824,32,0,32,0,1,,,,,,,,,,
,,185028,001,2023-07-31_20h44.15.309,arm3_eps,2022.2.5,Win32,143.6575205,60832513ad492f85d73a0574,64c7fed44a04f777bb1e18ce,64c800dfd20cd1d2831d836e,right,-1,0.75,0.2429,1,0.007992093,0.181,33,0,33,0,1,,,,,,,,,,
,,185028,001,2023-07-31_20h44.15.309,arm3_eps,2022.2.5,Win32,143.6575205,60832513ad492f85d73a0574,64c7fed44a04f777bb1e18ce,64c800dfd20cd1d2831d836e,up,-1,0.75,0.2429,1,0,1.0042,34,0,34,0,1,,,,,,,,,,
,,185028,001,2023-07-31_20h44.15.309,arm3_eps,2022.2.5,Win32,143.6575205,60832513ad492f85d73a0574,64c7fed44a04f777bb1e18ce,64c800dfd20cd1d2831d836e,right,-1,0.75,0.2429,1,-0.055715488,1.074,35,0,35,0,1,,,,,,,,,,
,,185028,001,2023-07-31_20h44.15.309,arm3_eps,2022.2.5,Win32,143.6575205,60832513ad492f85d73a0574,64c7fed44a04f777bb1e18ce,64c800dfd20cd1d2831d836e,right,-1,0.75,0.2429,1,-0.06130463,0.2007,36,0,36,0,1,,,,,,,,,,
,,185028,001,2023-07-31_20h44.15.309,arm3_eps,2022.2.5,Win32,143.6575205,60832513ad492f85d73a0574,64c7fed44a04f777bb1e18ce,64c800dfd20cd1d2831d836e,right,-1,0.75,0.2429,1,-0.07812192,0.1536,37,0,37,0,1,,,,,,,,,,
,,185028,001,2023-07-31_20h44.15.309,arm3_eps,2022.2.5,Win32,143.6575205,60832513ad492f85d73a0574,64c7fed44a04f777bb1e18ce,64c800dfd20cd1d2831d836e,down,-1,0.75,0.2429,2,0,0.401,38,0,38,0,1,,,,,,,,,,
,,185028,001,2023-07-31_20h44.15.309,arm3_eps,2022.2.5,Win32,143.6575205,60832513ad492f85d73a0574,64c7fed44a04f777bb1e18ce,64c800dfd20cd1d2831d836e,right,-1,0.75,0.2429,2,-0.023650032,1.4101,39,0,39,0,1,,,,,,,,,,
,,185028,001,2023-07-31_20h44.15.309,arm3_eps,2022.2.5,Win32,143.6575205,60832513ad492f85d73a0574,64c7fed44a04f777bb1e18ce,64c800dfd20cd1d2831d836e,right,-1,0.75,0.2429,2,-0.043487756,0.2746,40,0,40,0,1,,,,,,,,,,
,,185028,001,2023-07-31_20h44.15.309,arm3_eps,2022.2.5,Win32,143.6575205,60832513ad492f85d73a0574,64c7fed44a04f777bb1e18ce,64c800dfd20cd1d2831d836e,right,-1,0.75,0.2429,2,-0.078400501,0.2997,41,0,41,0,1,,,,,,,,,,
,,185028,001,2023-07-31_20h44.15.309,arm3_eps,2022.2.5,Win32,143.6575205,60832513ad492f85d73a0574,64c7fed44a04f777bb1e18ce,64c800dfd20cd1d2831d836e,down,-1,0.75,0.2429,3,0,0.4538,42,0,42,0,1,,,,,,,,,,
,,185028,001,2023-07-31_20h44.15.309,arm3_eps,2022.2.5,Win32,143.6575205,60832513ad492f85d73a0574,64c7fed44a04f777bb1e18ce,64c800dfd20cd1d2831d836e,right,-1,0.75,0.2429,3,-0.017670433,1.085,43,0,43,0,1,,,,,,,,,,
,,185028,001,2023-07-31_20h44.15.309,arm3_eps,2022.2.5,Win32,143.6575205,60832513ad492f85d73a0574,64c7fed44a04f777bb1e18ce,64c800dfd20cd1d2831d836e,down,-1,0.75,0.2429,4,0,0.7752,44,0,44,0,1,,,,,,,,,,
,,185028,001,2023-07-31_20h44.15.309,arm3_eps,2022.2.5,Win32,143.6575205,60832513ad492f85d73a0574,64c7fed44a04f777bb1e18ce,64c800dfd20cd1d2831d836e,right,-1,0.75,0.2429,4,-0.034710459,0.9225,45,0,45,0,1,,,,,,,,,,
,,185028,001,2023-07-31_20h44.15.309,arm3_eps,2022.2.5,Win32,143.6575205,60832513ad492f85d73a0574,64c7fed44a04f777bb1e18ce,64c800dfd20cd1d2831d836e,right,-1,0.75,0.2429,4,-0.030300561,0.4963,46,0,46,0,1,,,,,,,,,,
,,185028,001,2023-07-31_20h44.15.309,arm3_eps,2022.2.5,Win32,143.6575205,60832513ad492f85d73a0574,64c7fed44a04f777bb1e18ce,64c800dfd20cd1d2831d836e,down,-1,0.75,0.2429,5,0,0.5898,47,0,47,0,1,,,,,,,,,,
,,185028,001,2023-07-31_20h44.15.309,arm3_eps,2022.2.5,Win32,143.6575205,60832513ad492f85d73a0574,64c7fed44a04f777bb1e18ce,64c800dfd20cd1d2831d836e,right,-1,0.75,0.2429,5,-0.007756964,1.3239,48,0,48,0,1,,,,,,,,,,
,,185028,001,2023-07-31_20h44.15.309,arm3_eps,2022.2.5,Win32,143.6575205,60832513ad492f85d73a0574,64c7fed44a04f777bb1e18ce,64c800dfd20cd1d2831d836e,right,-1,0.75,0.2429,5,-0.035696323,0.6192,49,0,49,0,1,,,,,,,,,,
space,17.4363,185028,001,2023-07-31_20h44.15.309,arm3_eps,2022.2.5,Win32,143.6575205,60832513ad492f85d73a0574,64c7fed44a04f777bb1e18ce,64c800dfd20cd1d2831d836e,,,,,,,,,,,,,,,,,,,,,,
space,25.329,185028,001,2023-07-31_20h44.15.309,arm3_eps,2022.2.5,Win32,143.6575205,60832513ad492f85d73a0574,64c7fed44a04f777bb1e18ce,64c800dfd20cd1d2831d836e,,,,,,,,,,,,,,,,,,,,,,
space,1.0478,185028,001,2023-07-31_20h44.15.309,arm3_eps,2022.2.5,Win32,143.6575205,60832513ad492f85d73a0574,64c7fed44a04f777bb1e18ce,64c800dfd20cd1d2831d836e,,,,,,,,,,,,,,,,,,,,,,
,,185028,001,2023-07-31_20h44.15.309,arm3_eps,2022.2.5,Win32,143.6575205,60832513ad492f85d73a0574,64c7fed44a04f777bb1e18ce,64c800dfd20cd1d2831d836e,right,-1,0.75,0.05,0,0.000400515,1.0179,0,0,0,0,1,,,,,,,,,,
,,185028,001,2023-07-31_20h44.15.309,arm3_eps,2022.2.5,Win32,143.6575205,60832513ad492f85d73a0574,64c7fed44a04f777bb1e18ce,64c800dfd20cd1d2831d836e,down,-1,0.75,0.05,1,0,1.3921,1,0,1,0,1,,,,,,,,,,
,,185028,001,2023-07-31_20h44.15.309,arm3_eps,2022.2.5,Win32,143.6575205,60832513ad492f85d73a0574,64c7fed44a04f777bb1e18ce,64c800dfd20cd1d2831d836e,right,-1,0.75,0.05,1,0.007435904,1.2458,2,0,2,0,1,,,,,,,,,,
,,185028,001,2023-07-31_20h44.15.309,arm3_eps,2022.2.5,Win32,143.6575205,60832513ad492f85d73a0574,64c7fed44a04f777bb1e18ce,64c800dfd20cd1d2831d836e,right,-1,0.75,0.05,1,-0.019346255,0.5213,3,0,3,0,1,,,,,,,,,,
,,185028,001,2023-07-31_20h44.15.309,arm3_eps,2022.2.5,Win32,143.6575205,60832513ad492f85d73a0574,64c7fed44a04f777bb1e18ce,64c800dfd20cd1d2831d836e,down,-1,0.75,0.05,2,0,0.3992,4,0,4,0,1,,,,,,,,,,
,,185028,001,2023-07-31_20h44.15.309,arm3_eps,2022.2.5,Win32,143.6575205,60832513ad492f85d73a0574,64c7fed44a04f777bb1e18ce,64c800dfd20cd1d2831d836e,right,-1,0.75,0.05,2,-0.022145662,0.5382,5,0,5,0,1,,,,,,,,,,
,,185028,001,2023-07-31_20h44.15.309,arm3_eps,2022.2.5,Win32,143.6575205,60832513ad492f85d73a0574,64c7fed44a04f777bb1e18ce,64c800dfd20cd1d2831d836e,right,-1,0.75,0.05,2,-0.028267718,0.6512,6,0,6,0,1,,,,,,,,,,
,,185028,001,2023-07-31_20h44.15.309,arm3_eps,2022.2.5,Win32,143.6575205,60832513ad492f85d73a0574,64c7fed44a04f777bb1e18ce,64c800dfd20cd1d2831d836e,right,-1,0.75,0.05,2,-0.018153816,0.5437,7,0,7,0,1,,,,,,,,,,
,,185028,001,2023-07-31_20h44.15.309,arm3_eps,2022.2.5,Win32,143.6575205,60832513ad492f85d73a0574,64c7fed44a04f777bb1e18ce,64c800dfd20cd1d2831d836e,down,-1,0.75,0.05,3,0,0.4896,8,0,8,0,1,,,,,,,,,,
,,185028,001,2023-07-31_20h44.15.309,arm3_eps,2022.2.5,Win32,143.6575205,60832513ad492f85d73a0574,64c7fed44a04f777bb1e18ce,64c800dfd20cd1d2831d836e,right,-1,0.75,0.05,3,-0.003682596,1.0407,9,0,9,0,1,,,,,,,,,,
,,185028,001,2023-07-31_20h44.15.309,arm3_eps,2022.2.5,Win32,143.6575205,60832513ad492f85d73a0574,64c7fed44a04f777bb1e18ce,64c800dfd20cd1d2831d836e,right,-1,0.75,0.05,3,-0.03299252,0.3903,10,0,10,0,1,,,,,,,,,,
,,185028,001,2023-07-31_20h44.15.309,arm3_eps,2022.2.5,Win32,143.6575205,60832513ad492f85d73a0574,64c7fed44a04f777bb1e18ce,64c800dfd20cd1d2831d836e,down,-1,0.75,0.05,4,0,0.3867,11,0,11,0,1,,,,,,,,,,
,,185028,001,2023-07-31_20h44.15.309,arm3_eps,2022.2.5,Win32,143.6575205,60832513ad492f85d73a0574,64c7fed44a04f777bb1e18ce,64c800dfd20cd1d2831d836e,right,-1,0.75,0.05,4,0.007474463,0.5843,12,0,12,0,1,,,,,,,,,,
,,185028,001,2023-07-31_20h44.15.309,arm3_eps,2022.2.5,Win32,143.6575205,60832513ad492f85d73a0574,64c7fed44a04f777bb1e18ce,64c800dfd20cd1d2831d836e,right,-1,0.75,0.05,4,0.000453456,0.4261,13,0,13,0,1,,,,,,,,,,
,,185028,001,2023-07-31_20h44.15.309,arm3_eps,2022.2.5,Win32,143.6575205,60832513ad492f85d73a0574,64c7fed44a04f777bb1e18ce,64c800dfd20cd1d2831d836e,right,-1,0.75,0.05,4,0.010464618,0.3817,14,0,14,0,1,,,,,,,,,,
,,185028,001,2023-07-31_20h44.15.309,arm3_eps,2022.2.5,Win32,143.6575205,60832513ad492f85d73a0574,64c7fed44a04f777bb1e18ce,64c800dfd20cd1d2831d836e,right,-1,0.75,0.05,4,-0.020502853,0.4383,15,0,15,0,1,,,,,,,,,,
,,185028,001,2023-07-31_20h44.15.309,arm3_eps,2022.2.5,Win32,143.6575205,60832513ad492f85d73a0574,64c7fed44a04f777bb1e18ce,64c800dfd20cd1d2831d836e,right,-1,0.75,0.05,4,0.00273319,0.4806,16,0,16,0,1,,,,,,,,,,
,,185028,001,2023-07-31_20h44.15.309,arm3_eps,2022.2.5,Win32,143.6575205,60832513ad492f85d73a0574,64c7fed44a04f777bb1e18ce,64c800dfd20cd1d2831d836e,down,-1,0.75,0.05,5,0,1.2045,17,0,17,0,1,,,,,,,,,,
,,185028,001,2023-07-31_20h44.15.309,arm3_eps,2022.2.5,Win32,143.6575205,60832513ad492f85d73a0574,64c7fed44a04f777bb1e18ce,64c800dfd20cd1d2831d836e,right,-1,0.75,0.05,5,-0.003583219,1.0475,18,0,18,0,1,,,,,,,,,,
,,185028,001,2023-07-31_20h44.15.309,arm3_eps,2022.2.5,Win32,143.6575205,60832513ad492f85d73a0574,64c7fed44a04f777bb1e18ce,64c800dfd20cd1d2831d836e,right,-1,0.75,0.05,5,-0.009268195,0.3577,19,0,19,0,1,,,,,,,,,,
,,185028,001,2023-07-31_20h44.15.309,arm3_eps,2022.2.5,Win32,143.6575205,60832513ad492f85d73a0574,64c7fed44a04f777bb1e18ce,64c800dfd20cd1d2831d836e,right,-1,0.75,0.05,5,-0.03718323,0.3182,20,0,20,0,1,,,,,,,,,,
,,185028,001,2023-07-31_20h44.15.309,arm3_eps,2022.2.5,Win32,143.6575205,60832513ad492f85d73a0574,64c7fed44a04f777bb1e18ce,64c800dfd20cd1d2831d836e,right,-1,0.75,0.05,5,-0.02654154,0.3706,21,0,21,0,1,,,,,,,,,,
,,185028,001,2023-07-31_20h44.15.309,arm3_eps,2022.2.5,Win32,143.6575205,60832513ad492f85d73a0574,64c7fed44a04f777bb1e18ce,64c800dfd20cd1d2831d836e,right,-1,0.75,0.05,5,-0.030382441,0.4099,22,0,22,0,1,,,,,,,,,,
,,185028,001,2023-07-31_20h44.15.309,arm3_eps,2022.2.5,Win32,143.6575205,60832513ad492f85d73a0574,64c7fed44a04f777bb1e18ce,64c800dfd20cd1d2831d836e,down,-1,0.75,0.05,6,0,0.3357,23,0,23,0,1,,,,,,,,,,
,,185028,001,2023-07-31_20h44.15.309,arm3_eps,2022.2.5,Win32,143.6575205,60832513ad492f85d73a0574,64c7fed44a04f777bb1e18ce,64c800dfd20cd1d2831d836e,right,-1,0.75,0.05,6,0.003897711,0.5137,24,0,24,0,1,,,,,,,,,,
,,185028,001,2023-07-31_20h44.15.309,arm3_eps,2022.2.5,Win32,143.6575205,60832513ad492f85d73a0574,64c7fed44a04f777bb1e18ce,64c800dfd20cd1d2831d836e,right,-1,0.75,0.05,6,-0.012761298,0.4176,25,0,25,0,1,,,,,,,,,,
,,185028,001,2023-07-31_20h44.15.309,arm3_eps,2022.2.5,Win32,143.6575205,60832513ad492f85d73a0574,64c7fed44a04f777bb1e18ce,64c800dfd20cd1d2831d836e,right,-1,0.75,0.05,6,-0.005136504,0.3897,26,0,26,0,1,,,,,,,,,,
,,185028,001,2023-07-31_20h44.15.309,arm3_eps,2022.2.5,Win32,143.6575205,60832513ad492f85d73a0574,64c7fed44a04f777bb1e18ce,64c800dfd20cd1d2831d836e,right,-1,0.75,0.05,6,0.006669943,0.3899,27,0,27,0,1,,,,,,,,,,
,,185028,001,2023-07-31_20h44.15.309,arm3_eps,2022.2.5,Win32,143.6575205,60832513ad492f85d73a0574,64c7fed44a04f777bb1e18ce,64c800dfd20cd1d2831d836e,right,-1,0.75,0.05,6,-0.013087146,0.4796,28,0,28,0,1,,,,,,,,,,
,,185028,001,2023-07-31_20h44.15.309,arm3_eps,2022.2.5,Win32,143.6575205,60832513ad492f85d73a0574,64c7fed44a04f777bb1e18ce,64c800dfd20cd1d2831d836e,up,-1,0.75,0.05,5,0,0.6762,29,0,29,0,1,,,,,,,,,,
,,185028,001,2023-07-31_20h44.15.309,arm3_eps,2022.2.5,Win32,143.6575205,60832513ad492f85d73a0574,64c7fed44a04f777bb1e18ce,64c800dfd20cd1d2831d836e,right,-1,0.75,0.05,5,0.001703041,0.8452,30,0,30,0,1,,,,,,,,,,
,,185028,001,2023-07-31_20h44.15.309,arm3_eps,2022.2.5,Win32,143.6575205,60832513ad492f85d73a0574,64c7fed44a04f777bb1e18ce,64c800dfd20cd1d2831d836e,right,-1,0.75,0.05,5,-0.04276664,0.1665,31,0,31,0,1,,,,,,,,,,
,,185028,001,2023-07-31_20h44.15.309,arm3_eps,2022.2.5,Win32,143.6575205,60832513ad492f85d73a0574,64c7fed44a04f777bb1e18ce,64c800dfd20cd1d2831d836e,right,-1,0.75,0.05,5,-0.043713694,0.1461,32,0,32,0,1,,,,,,,,,,
,,185028,001,2023-07-31_20h44.15.309,arm3_eps,2022.2.5,Win32,143.6575205,60832513ad492f85d73a0574,64c7fed44a04f777bb1e18ce,64c800dfd20cd1d2831d836e,down,-1,0.75,0.05,6,0,0.3411,33,0,33,0,1,,,,,,,,,,
,,185028,001,2023-07-31_20h44.15.309,arm3_eps,2022.2.5,Win32,143.6575205,60832513ad492f85d73a0574,64c7fed44a04f777bb1e18ce,64c800dfd20cd1d2831d836e,right,-1,0.75,0.05,6,-0.017037381,0.7908,34,0,34,0,1,,,,,,,,,,
,,185028,001,2023-07-31_20h44.15.309,arm3_eps,2022.2.5,Win32,143.6575205,60832513ad492f85d73a0574,64c7fed44a04f777bb1e18ce,64c800dfd20cd1d2831d836e,right,-1,0.75,0.05,6,-0.028622011,0.2227,35,0,35,0,1,,,,,,,,,,
,,185028,001,2023-07-31_20h44.15.309,arm3_eps,2022.2.5,Win32,143.6575205,60832513ad492f85d73a0574,64c7fed44a04f777bb1e18ce,64c800dfd20cd1d2831d836e,down,-1,0.75,0.05,7,0,0.7648,36,0,36,0,1,,,,,,,,,,
,,185028,001,2023-07-31_20h44.15.309,arm3_eps,2022.2.5,Win32,143.6575205,60832513ad492f85d73a0574,64c7fed44a04f777bb1e18ce,64c800dfd20cd1d2831d836e,right,-1,0.75,0.05,7,0.016861808,1.3998,37,0,37,0,1,,,,,,,,,,
,,185028,001,2023-07-31_20h44.15.309,arm3_eps,2022.2.5,Win32,143.6575205,60832513ad492f85d73a0574,64c7fed44a04f777bb1e18ce,64c800dfd20cd1d2831d836e,right,-1,0.75,0.05,7,0.013821812,0.2181,38,0,38,0,1,,,,,,,,,,
,,185028,001,2023-07-31_20h44.15.309,arm3_eps,2022.2.5,Win32,143.6575205,60832513ad492f85d73a0574,64c7fed44a04f777bb1e18ce,64c800dfd20cd1d2831d836e,right,-1,0.75,0.05,7,0.011775765,0.2273,39,0,39,0,1,,,,,,,,,,
,,185028,001,2023-07-31_20h44.15.309,arm3_eps,2022.2.5,Win32,143.6575205,60832513ad492f85d73a0574,64c7fed44a04f777bb1e18ce,64c800dfd20cd1d2831d836e,right,-1,0.75,0.05,7,-0.023147376,0.3267,40,0,40,0,1,,,,,,,,,,
,,185028,001,2023-07-31_20h44.15.309,arm3_eps,2022.2.5,Win32,143.6575205,60832513ad492f85d73a0574,64c7fed44a04f777bb1e18ce,64c800dfd20cd1d2831d836e,right,-1,0.75,0.05,7,-0.041428494,0.3332,41,0,41,0,1,,,,,,,,,,
,,185028,001,2023-07-31_20h44.15.309,arm3_eps,2022.2.5,Win32,143.6575205,60832513ad492f85d73a0574,64c7fed44a04f777bb1e18ce,64c800dfd20cd1d2831d836e,down,-1,0.75,0.05,8,0,0.4303,42,0,42,0,1,,,,,,,,,,
,,185028,001,2023-07-31_20h44.15.309,arm3_eps,2022.2.5,Win32,143.6575205,60832513ad492f85d73a0574,64c7fed44a04f777bb1e18ce,64c800dfd20cd1d2831d836e,right,-1,0.75,0.05,8,0.013474611,1.1245,43,0,43,0,1,,,,,,,,,,
,,185028,001,2023-07-31_20h44.15.309,arm3_eps,2022.2.5,Win32,143.6575205,60832513ad492f85d73a0574,64c7fed44a04f777bb1e18ce,64c800dfd20cd1d2831d836e,right,-1,0.75,0.05,8,0.005570275,0.2473,44,0,44,0,1,,,,,,,,,,
,,185028,001,2023-07-31_20h44.15.309,arm3_eps,2022.2.5,Win32,143.6575205,60832513ad492f85d73a0574,64c7fed44a04f777bb1e18ce,64c800dfd20cd1d2831d836e,right,-1,0.75,0.05,8,0.00674889,0.2144,45,0,45,0,1,,,,,,,,,,
,,185028,001,2023-07-31_20h44.15.309,arm3_eps,2022.2.5,Win32,143.6575205,60832513ad492f85d73a0574,64c7fed44a04f777bb1e18ce,64c800dfd20cd1d2831d836e,right,-1,0.75,0.05,8,-0.00092738,0.2355,46,0,46,0,1,,,,,,,,,,
,,185028,001,2023-07-31_20h44.15.309,arm3_eps,2022.2.5,Win32,143.6575205,60832513ad492f85d73a0574,64c7fed44a04f777bb1e18ce,64c800dfd20cd1d2831d836e,down,-1,0.75,0.05,8,0,0.6536,47,0,47,0,1,,,,,,,,,,
,,185028,001,2023-07-31_20h44.15.309,arm3_eps,2022.2.5,Win32,143.6575205,60832513ad492f85d73a0574,64c7fed44a04f777bb1e18ce,64c800dfd20cd1d2831d836e,right,-1,0.75,0.05,8,-0.048856669,1.1166,48,0,48,0,1,,,,,,,,,,
,,185028,001,2023-07-31_20h44.15.309,arm3_eps,2022.2.5,Win32,143.6575205,60832513ad492f85d73a0574,64c7fed44a04f777bb1e18ce,64c800dfd20cd1d2831d836e,right,-1,0.75,0.05,8,-0.063854233,0.3268,49,0,49,0,1,,,,,,,,,,
space,5.3719,185028,001,2023-07-31_20h44.15.309,arm3_eps,2022.2.5,Win32,143.6575205,60832513ad492f85d73a0574,64c7fed44a04f777bb1e18ce,64c800dfd20cd1d2831d836e,,,,,,,,,,,,,,,,,,,,,,
space,1.1979,185028,001,2023-07-31_20h44.15.309,arm3_eps,2022.2.5,Win32,143.6575205,60832513ad492f85d73a0574,64c7fed44a04f777bb1e18ce,64c800dfd20cd1d2831d836e,,,,,,,,,,,,,,,,,,,,,,
,,185028,001,2023-07-31_20h44.15.309,arm3_eps,2022.2.5,Win32,143.6575205,60832513ad492f85d73a0574,64c7fed44a04f777bb1e18ce,64c800dfd20cd1d2831d836e,right,-1,0.75,0.5,0,-0.039953543,0.9266,0,0,0,0,1,,,,,,,,,,
,,185028,001,2023-07-31_20h44.15.309,arm3_eps,2022.2.5,Win32,143.6575205,60832513ad492f85d73a0574,64c7fed44a04f777bb1e18ce,64c800dfd20cd1d2831d836e,right,-1,0.75,0.5,0,-0.040154242,0.2304,1,0,1,0,1,,,,,,,,,,
,,185028,001,2023-07-31_20h44.15.309,arm3_eps,2022.2.5,Win32,143.6575205,60832513ad492f85d73a0574,64c7fed44a04f777bb1e18ce,64c800dfd20cd1d2831d836e,right,-1,0.75,0.5,0,-0.048481934,0.202,2,0,2,0,1,,,,,,,,,,
,,185028,001,2023-07-31_20h44.15.309,arm3_eps,2022.2.5,Win32,143.6575205,60832513ad492f85d73a0574,64c7fed44a04f777bb1e18ce,64c800dfd20cd1d2831d836e,right,-1,0.75,0.5,0,-0.035049044,0.4821,3,0,3,0,1,,,,,,,,,,
,,185028,001,2023-07-31_20h44.15.309,arm3_eps,2022.2.5,Win32,143.6575205,60832513ad492f85d73a0574,64c7fed44a04f777bb1e18ce,64c800dfd20cd1d2831d836e,right,-1,0.75,0.5,0,-0.034633904,0.3309,4,0,4,0,1,,,,,,,,,,
,,185028,001,2023-07-31_20h44.15.309,arm3_eps,2022.2.5,Win32,143.6575205,60832513ad492f85d73a0574,64c7fed44a04f777bb1e18ce,64c800dfd20cd1d2831d836e,right,-1,0.75,0.5,0,-0.042247221,0.1938,5,0,5,0,1,,,,,,,,,,
,,185028,001,2023-07-31_20h44.15.309,arm3_eps,2022.2.5,Win32,143.6575205,60832513ad492f85d73a0574,64c7fed44a04f777bb1e18ce,64c800dfd20cd1d2831d836e,down,1,0.75,0.5,1,0,0.4437,6,0,6,0,1,,,,,,,,,,
,,185028,001,2023-07-31_20h44.15.309,arm3_eps,2022.2.5,Win32,143.6575205,60832513ad492f85d73a0574,64c7fed44a04f777bb1e18ce,64c800dfd20cd1d2831d836e,right,1,0.75,0.5,1,0.036850003,0.4714,7,0,7,0,1,,,,,,,,,,
,,185028,001,2023-07-31_20h44.15.309,arm3_eps,2022.2.5,Win32,143.6575205,60832513ad492f85d73a0574,64c7fed44a04f777bb1e18ce,64c800dfd20cd1d2831d836e,right,1,0.75,0.5,1,0.018641202,0.3598,8,0,8,0,1,,,,,,,,,,
,,185028,001,2023-07-31_20h44.15.309,arm3_eps,2022.2.5,Win32,143.6575205,60832513ad492f85d73a0574,64c7fed44a04f777bb1e18ce,64c800dfd20cd1d2831d836e,right,1,0.75,0.5,1,0.043074658,0.3301,9,0,9,0,1,,,,,,,,,,
,,185028,001,2023-07-31_20h44.15.309,arm3_eps,2022.2.5,Win32,143.6575205,60832513ad492f85d73a0574,64c7fed44a04f777bb1e18ce,64c800dfd20cd1d2831d836e,up,-1,0.75,0.5,1,0,0.2712,10,0,10,0,1,,,,,,,,,,
,,185028,001,2023-07-31_20h44.15.309,arm3_eps,2022.2.5,Win32,143.6575205,60832513ad492f85d73a0574,64c7fed44a04f777bb1e18ce,64c800dfd20cd1d2831d836e,right,-1,0.75,0.5,1,-0.03181767,0.5162,11,0,11,0,1,,,,,,,,,,
,,185028,001,2023-07-31_20h44.15.309,arm3_eps,2022.2.5,Win32,143.6575205,60832513ad492f85d73a0574,64c7fed44a04f777bb1e18ce,64c800dfd20cd1d2831d836e,right,-1,0.75,0.5,1,-0.068400901,0.3512,12,0,12,0,1,,,,,,,,,,
,,185028,001,2023-07-31_20h44.15.309,arm3_eps,2022.2.5,Win32,143.6575205,60832513ad492f85d73a0574,64c7fed44a04f777bb1e18ce,64c800dfd20cd1d2831d836e,right,-1,0.75,0.5,1,-0.100887454,0.3401,13,0,13,0,1,,,,,,,,,,
,,185028,001,2023-07-31_20h44.15.309,arm3_eps,2022.2.5,Win32,143.6575205,60832513ad492f85d73a0574,64c7fed44a04f777bb1e18ce,64c800dfd20cd1d2831d836e,down,-1,0.75,0.5,2,0,0.281,14,0,14,0,1,,,,,,,,,,
,,185028,001,2023-07-31_20h44.15.309,arm3_eps,2022.2.5,Win32,143.6575205,60832513ad492f85d73a0574,64c7fed44a04f777bb1e18ce,64c800dfd20cd1d2831d836e,right,-1,0.75,0.5,2,0.034127961,0.4052,15,0,15,0,1,,,,,,,,,,
,,185028,001,2023-07-31_20h44.15.309,arm3_eps,2022.2.5,Win32,143.6575205,60832513ad492f85d73a0574,64c7fed44a04f777bb1e18ce,64c800dfd20cd1d2831d836e,right,-1,0.75,0.5,2,0.002606809,0.2805,16,0,16,0,1,,,,,,,,,,
,,185028,001,2023-07-31_20h44.15.309,arm3_eps,2022.2.5,Win32,143.6575205,60832513ad492f85d73a0574,64c7fed44a04f777bb1e18ce,64c800dfd20cd1d2831d836e,right,-1,0.75,0.5,2,0.019459224,0.3412,17,0,17,0,1,,,,,,,,,,
,,185028,001,2023-07-31_20h44.15.309,arm3_eps,2022.2.5,Win32,143.6575205,60832513ad492f85d73a0574,64c7fed44a04f777bb1e18ce,64c800dfd20cd1d2831d836e,right,-1,0.75,0.5,2,-0.003343667,0.3401,18,0,18,0,1,,,,,,,,,,
,,185028,001,2023-07-31_20h44.15.309,arm3_eps,2022.2.5,Win32,143.6575205,60832513ad492f85d73a0574,64c7fed44a04f777bb1e18ce,64c800dfd20cd1d2831d836e,right,-1,0.75,0.5,2,-0.013470525,0.3255,19,0,19,0,1,,,,,,,,,,
,,185028,001,2023-07-31_20h44.15.309,arm3_eps,2022.2.5,Win32,143.6575205,60832513ad492f85d73a0574,64c7fed44a04f777bb1e18ce,64c800dfd20cd1d2831d836e,down,1,0.75,0.5,3,0,0.6752,20,0,20,0,1,,,,,,,,,,
,,185028,001,2023-07-31_20h44.15.309,arm3_eps,2022.2.5,Win32,143.6575205,60832513ad492f85d73a0574,64c7fed44a04f777bb1e18ce,64c800dfd20cd1d2831d836e,right,1,0.75,0.5,3,0.026305994,0.457,21,0,21,0,1,,,,,,,,,,
,,185028,001,2023-07-31_20h44.15.309,arm3_eps,2022.2.5,Win32,143.6575205,60832513ad492f85d73a0574,64c7fed44a04f777bb1e18ce,64c800dfd20cd1d2831d836e,right,1,0.75,0.5,3,0.012042867,0.3201,22,0,22,0,1,,,,,,,,,,
,,185028,001,2023-07-31_20h44.15.309,arm3_eps,2022.2.5,Win32,143.6575205,60832513ad492f85d73a0574,64c7fed44a04f777bb1e18ce,64c800dfd20cd1d2831d836e,right,1,0.75,0.5,3,0.015124833,0.315,23,0,23,0,1,,,,,,,,,,
,,185028,001,2023-07-31_20h44.15.309,arm3_eps,2022.2.5,Win32,143.6575205,60832513ad492f85d73a0574,64c7fed44a04f777bb1e18ce,64c800dfd20cd1d2831d836e,up,1,0.75,0.5,4,0,0.3812,24,0,24,0,1,,,,,,,,,,
,,185028,001,2023-07-31_20h44.15.309,arm3_eps,2022.2.5,Win32,143.6575205,60832513ad492f85d73a0574,64c7fed44a04f777bb1e18ce,64c800dfd20cd1d2831d836e,right,1,0.75,0.5,4,-0.00753916,0.3359,25,0,25,0,1,,,,,,,,,,
,,185028,001,2023-07-31_20h44.15.309,arm3_eps,2022.2.5,Win32,143.6575205,60832513ad492f85d73a0574,64c7fed44a04f777bb1e18ce,64c800dfd20cd1d2831d836e,right,1,0.75,0.5,4,-0.009135579,0.2868,26,0,26,0,1,,,,,,,,,,
,,185028,001,2023-07-31_20h44.15.309,arm3_eps,2022.2.5,Win32,143.6575205,60832513ad492f85d73a0574,64c7fed44a04f777bb1e18ce,64c800dfd20cd1d2831d836e,right,1,0.75,0.5,4,0.018342051,0.2844,27,0,27,0,1,,,,,,,,,,
,,185028,001,2023-07-31_20h44.15.309,arm3_eps,2022.2.5,Win32,143.6575205,60832513ad492f85d73a0574,64c7fed44a04f777bb1e18ce,64c800dfd20cd1d2831d836e,up,-1,0.75,0.5,5,0,0.5597,28,0,28,0,1,,,,,,,,,,
,,185028,001,2023-07-31_20h44.15.309,arm3_eps,2022.2.5,Win32,143.6575205,60832513ad492f85d73a0574,64c7fed44a04f777bb1e18ce,64c800dfd20cd1d2831d836e,right,-1,0.75,0.5,5,-0.013648805,0.3259,29,0,29,0,1,,,,,,,,,,
,,185028,001,2023-07-31_20h44.15.309,arm3_eps,2022.2.5,Win32,143.6575205,60832513ad492f85d73a0574,64c7fed44a04f777bb1e18ce,64c800dfd20cd1d2831d836e,right,-1,0.75,0.5,5,-0.003976334,0.2995,30,0,30,0,1,,,,,,,,,,
,,185028,001,2023-07-31_20h44.15.309,arm3_eps,2022.2.5,Win32,143.6575205,60832513ad492f85d73a0574,64c7fed44a04f777bb1e18ce,64c800dfd20cd1d2831d836e,right,-1,0.75,0.5,5,0.022414324,0.1961,31,0,31,0,1,,,,,,,,,,
,,185028,001,2023-07-31_20h44.15.309,arm3_eps,2022.2.5,Win32,143.6575205,60832513ad492f85d73a0574,64c7fed44a04f777bb1e18ce,64c800dfd20cd1d2831d836e,up,1,0.75,0.5,4,0,0.5316,32,0,32,0,1,,,,,,,,,,
,,185028,001,2023-07-31_20h44.15.309,arm3_eps,2022.2.5,Win32,143.6575205,60832513ad492f85d73a0574,64c7fed44a04f777bb1e18ce,64c800dfd20cd1d2831d836e,right,1,0.75,0.5,4,0.038344508,0.4712,33,0,33,0,1,,,,,,,,,,
,,185028,001,2023-07-31_20h44.15.309,arm3_eps,2022.2.5,Win32,143.6575205,60832513ad492f85d73a0574,64c7fed44a04f777bb1e18ce,64c800dfd20cd1d2831d836e,right,1,0.75,0.5,4,0.034876938,0.3138,34,0,34,0,1,,,,,,,,,,
,,185028,001,2023-07-31_20h44.15.309,arm3_eps,2022.2.5,Win32,143.6575205,60832513ad492f85d73a0574,64c7fed44a04f777bb1e18ce,64c800dfd20cd1d2831d836e,right,1,0.75,0.5,4,0.066352568,0.2103,35,0,35,0,1,,,,,,,,,,
,,185028,001,2023-07-31_20h44.15.309,arm3_eps,2022.2.5,Win32,143.6575205,60832513ad492f85d73a0574,64c7fed44a04f777bb1e18ce,64c800dfd20cd1d2831d836e,up,-1,0.75,0.5,5,0,0.3212,36,0,36,0,1,,,,,,,,,,
,,185028,001,2023-07-31_20h44.15.309,arm3_eps,2022.2.5,Win32,143.6575205,60832513ad492f85d73a0574,64c7fed44a04f777bb1e18ce,64c800dfd20cd1d2831d836e,right,-1,0.75,0.5,5,0.005350742,0.3126,37,0,37,0,1,,,,,,,,,,
,,185028,001,2023-07-31_20h44.15.309,arm3_eps,2022.2.5,Win32,143.6575205,60832513ad492f85d73a0574,64c7fed44a04f777bb1e18ce,64c800dfd20cd1d2831d836e,right,-1,0.75,0.5,5,0.008772705,0.2656,38,0,38,0,1,,,,,,,,,,
,,185028,001,2023-07-31_20h44.15.309,arm3_eps,2022.2.5,Win32,143.6575205,60832513ad492f85d73a0574,64c7fed44a04f777bb1e18ce,64c800dfd20cd1d2831d836e,right,-1,0.75,0.5,5,0.001383711,0.1899,39,0,39,0,1,,,,,,,,,,
,,185028,001,2023-07-31_20h44.15.309,arm3_eps,2022.2.5,Win32,143.6575205,60832513ad492f85d73a0574,64c7fed44a04f777bb1e18ce,64c800dfd20cd1d2831d836e,down,-1,0.75,0.5,5,0,0.4141,40,0,40,0,1,,,,,,,,,,
,,185028,001,2023-07-31_20h44.15.309,arm3_eps,2022.2.5,Win32,143.6575205,60832513ad492f85d73a0574,64c7fed44a04f777bb1e18ce,64c800dfd20cd1d2831d836e,right,-1,0.75,0.5,5,-0.016949925,0.43,41,0,41,0,1,,,,,,,,,,
,,185028,001,2023-07-31_20h44.15.309,arm3_eps,2022.2.5,Win32,143.6575205,60832513ad492f85d73a0574,64c7fed44a04f777bb1e18ce,64c800dfd20cd1d2831d836e,right,-1,0.75,0.5,5,-0.009446359,0.3767,42,0,42,0,1,,,,,,,,,,
,,185028,001,2023-07-31_20h44.15.309,arm3_eps,2022.2.5,Win32,143.6575205,60832513ad492f85d73a0574,64c7fed44a04f777bb1e18ce,64c800dfd20cd1d2831d836e,right,-1,0.75,0.5,5,-0.015627447,0.1567,43,0,43,0,1,,,,,,,,,,
,,185028,001,2023-07-31_20h44.15.309,arm3_eps,2022.2.5,Win32,143.6575205,60832513ad492f85d73a0574,64c7fed44a04f777bb1e18ce,64c800dfd20cd1d2831d836e,down,-1,0.75,0.5,6,0,0.3725,44,0,44,0,1,,,,,,,,,,
,,185028,001,2023-07-31_20h44.15.309,arm3_eps,2022.2.5,Win32,143.6575205,60832513ad492f85d73a0574,64c7fed44a04f777bb1e18ce,64c800dfd20cd1d2831d836e,right,-1,0.75,0.5,6,-0.000142616,0.2943,45,0,45,0,1,,,,,,,,,,
,,185028,001,2023-07-31_20h44.15.309,arm3_eps,2022.2.5,Win32,143.6575205,60832513ad492f85d73a0574,64c7fed44a04f777bb1e18ce,64c800dfd20cd1d2831d836e,right,-1,0.75,0.5,6,-0.017072905,0.2145,46,0,46,0,1,,,,,,,,,,
,,185028,001,2023-07-31_20h44.15.309,arm3_eps,2022.2.5,Win32,143.6575205,60832513ad492f85d73a0574,64c7fed44a04f777bb1e18ce,64c800dfd20cd1d2831d836e,right,-1,0.75,0.5,6,-0.046876151,0.1735,47,0,47,0,1,,,,,,,,,,
,,185028,001,2023-07-31_20h44.15.309,arm3_eps,2022.2.5,Win32,143.6575205,60832513ad492f85d73a0574,64c7fed44a04f777bb1e18ce,64c800dfd20cd1d2831d836e,down,-1,0.75,0.5,7,0,0.5135,48,0,48,0,1,,,,,,,,,,
,,185028,001,2023-07-31_20h44.15.309,arm3_eps,2022.2.5,Win32,143.6575205,60832513ad492f85d73a0574,64c7fed44a04f777bb1e18ce,64c800dfd20cd1d2831d836e,right,-1,0.75,0.5,7,-0.033205531,0.4098,49,0,49,0,1,,,,,,,,,,
space,2.1208,185028,001,2023-07-31_20h44.15.309,arm3_eps,2022.2.5,Win32,143.6575205,60832513ad492f85d73a0574,64c7fed44a04f777bb1e18ce,64c800dfd20cd1d2831d836e,,,,,,,,,,,,,,,,,,,,,,
space,2.9713,185028,001,2023-07-31_20h44.15.309,arm3_eps,2022.2.5,Win32,143.6575205,60832513ad492f85d73a0574,64c7fed44a04f777bb1e18ce,64c800dfd20cd1d2831d836e,right,-1,0.75,0.3714,0,0.000756736,1.2456,,,,,,0,0,0,0,1,,,,,
,,185028,001,2023-07-31_20h44.15.309,arm3_eps,2022.2.5,Win32,143.6575205,60832513ad492f85d73a0574,64c7fed44a04f777bb1e18ce,64c800dfd20cd1d2831d836e,right,-1,0.75,0.3714,0,-0.040550715,0.4335,,,,,,1,0,1,0,1,,,,,
,,185028,001,2023-07-31_20h44.15.309,arm3_eps,2022.2.5,Win32,143.6575205,60832513ad492f85d73a0574,64c7fed44a04f777bb1e18ce,64c800dfd20cd1d2831d836e,right,-1,0.75,0.3714,0,-0.037967901,0.3373,,,,,,2,0,2,0,1,,,,,
,,185028,001,2023-07-31_20h44.15.309,arm3_eps,2022.2.5,Win32,143.6575205,60832513ad492f85d73a0574,64c7fed44a04f777bb1e18ce,64c800dfd20cd1d2831d836e,down,-1,0.75,0.3714,1,0,0.4515,,,,,,3,0,3,0,1,,,,,
,,185028,001,2023-07-31_20h44.15.309,arm3_eps,2022.2.5,Win32,143.6575205,60832513ad492f85d73a0574,64c7fed44a04f777bb1e18ce,64c800dfd20cd1d2831d836e,right,-1,0.75,0.3714,1,0.001732034,0.8188,,,,,,4,0,4,0,1,,,,,
,,185028,001,2023-07-31_20h44.15.309,arm3_eps,2022.2.5,Win32,143.6575205,60832513ad492f85d73a0574,64c7fed44a04f777bb1e18ce,64c800dfd20cd1d2831d836e,right,-1,0.75,0.3714,1,-0.032151839,0.3543,,,,,,5,0,5,0,1,,,,,
,,185028,001,2023-07-31_20h44.15.309,arm3_eps,2022.2.5,Win32,143.6575205,60832513ad492f85d73a0574,64c7fed44a04f777bb1e18ce,64c800dfd20cd1d2831d836e,right,-1,0.75,0.3714,1,-0.014346329,0.4459,,,,,,6,0,6,0,1,,,,,
,,185028,001,2023-07-31_20h44.15.309,arm3_eps,2022.2.5,Win32,143.6575205,60832513ad492f85d73a0574,64c7fed44a04f777bb1e18ce,64c800dfd20cd1d2831d836e,down,1,0.75,0.3714,2,0,0.6419,,,,,,7,0,7,0,1,,,,,
,,185028,001,2023-07-31_20h44.15.309,arm3_eps,2022.2.5,Win32,143.6575205,60832513ad492f85d73a0574,64c7fed44a04f777bb1e18ce,64c800dfd20cd1d2831d836e,right,1,0.75,0.3714,2,0.020426825,0.5718,,,,,,8,0,8,0,1,,,,,
,,185028,001,2023-07-31_20h44.15.309,arm3_eps,2022.2.5,Win32,143.6575205,60832513ad492f85d73a0574,64c7fed44a04f777bb1e18ce,64c800dfd20cd1d2831d836e,right,1,0.75,0.3714,2,-0.002484309,0.4256,,,,,,9,0,9,0,1,,,,,
,,185028,001,2023-07-31_20h44.15.309,arm3_eps,2022.2.5,Win32,143.6575205,60832513ad492f85d73a0574,64c7fed44a04f777bb1e18ce,64c800dfd20cd1d2831d836e,up,-1,0.75,0.3714,3,0,0.9033,,,,,,10,0,10,0,1,,,,,
,,185028,001,2023-07-31_20h44.15.309,arm3_eps,2022.2.5,Win32,143.6575205,60832513ad492f85d73a0574,64c7fed44a04f777bb1e18ce,64c800dfd20cd1d2831d836e,right,-1,0.75,0.3714,3,-0.021270806,0.7711,,,,,,11,0,11,0,1,,,,,
,,185028,001,2023-07-31_20h44.15.309,arm3_eps,2022.2.5,Win32,143.6575205,60832513ad492f85d73a0574,64c7fed44a04f777bb1e18ce,64c800dfd20cd1d2831d836e,right,-1,0.75,0.3714,3,-0.014555879,0.3299,,,,,,12,0,12,0,1,,,,,
,,185028,001,2023-07-31_20h44.15.309,arm3_eps,2022.2.5,Win32,143.6575205,60832513ad492f85d73a0574,64c7fed44a04f777bb1e18ce,64c800dfd20cd1d2831d836e,right,-1,0.75,0.3714,3,-0.027563395,0.346,,,,,,13,0,13,0,1,,,,,
,,185028,001,2023-07-31_20h44.15.309,arm3_eps,2022.2.5,Win32,143.6575205,60832513ad492f85d73a0574,64c7fed44a04f777bb1e18ce,64c800dfd20cd1d2831d836e,down,-1,0.75,0.3714,4,0,0.4262,,,,,,14,0,14,0,1,,,,,
,,185028,001,2023-07-31_20h44.15.309,arm3_eps,2022.2.5,Win32,143.6575205,60832513ad492f85d73a0574,64c7fed44a04f777bb1e18ce,64c800dfd20cd1d2831d836e,right,-1,0.75,0.3714,4,0.011762042,0.5338,,,,,,15,0,15,0,1,,,,,
,,185028,001,2023-07-31_20h44.15.309,arm3_eps,2022.2.5,Win32,143.6575205,60832513ad492f85d73a0574,64c7fed44a04f777bb1e18ce,64c800dfd20cd1d2831d836e,right,-1,0.75,0.3714,4,-0.003926983,0.3601,,,,,,16,0,16,0,1,,,,,
,,185028,001,2023-07-31_20h44.15.309,arm3_eps,2022.2.5,Win32,143.6575205,60832513ad492f85d73a0574,64c7fed44a04f777bb1e18ce,64c800dfd20cd1d2831d836e,right,-1,0.75,0.3714,4,-0.029079429,0.3667,,,,,,17,0,17,0,1,,,,,
,,185028,001,2023-07-31_20h44.15.309,arm3_eps,2022.2.5,Win32,143.6575205,60832513ad492f85d73a0574,64c7fed44a04f777bb1e18ce,64c800dfd20cd1d2831d836e,down,-1,0.75,0.3714,4,0,0.4998,,,,,,18,0,18,0,1,,,,,
,,185028,001,2023-07-31_20h44.15.309,arm3_eps,2022.2.5,Win32,143.6575205,60832513ad492f85d73a0574,64c7fed44a04f777bb1e18ce,64c800dfd20cd1d2831d836e,right,-1,0.75,0.3714,4,-0.044514899,0.5294,,,,,,19,0,19,0,1,,,,,
,,185028,001,2023-07-31_20h44.15.309,arm3_eps,2022.2.5,Win32,143.6575205,60832513ad492f85d73a0574,64c7fed44a04f777bb1e18ce,64c800dfd20cd1d2831d836e,right,-1,0.75,0.3714,4,-0.047662916,0.3209,,,,,,20,0,20,0,1,,,,,
,,185028,001,2023-07-31_20h44.15.309,arm3_eps,2022.2.5,Win32,143.6575205,60832513ad492f85d73a0574,64c7fed44a04f777bb1e18ce,64c800dfd20cd1d2831d836e,down,1,0.75,0.3714,5,0,0.4174,,,,,,21,0,21,0,1,,,,,
,,185028,001,2023-07-31_20h44.15.309,arm3_eps,2022.2.5,Win32,143.6575205,60832513ad492f85d73a0574,64c7fed44a04f777bb1e18ce,64c800dfd20cd1d2831d836e,right,1,0.75,0.3714,5,0.018551659,0.742,,,,,,22,0,22,0,1,,,,,
,,185028,001,2023-07-31_20h44.15.309,arm3_eps,2022.2.5,Win32,143.6575205,60832513ad492f85d73a0574,64c7fed44a04f777bb1e18ce,64c800dfd20cd1d2831d836e,right,1,0.75,0.3714,5,0.03165206,0.5445,,,,,,23,0,23,0,1,,,,,
,,185028,001,2023-07-31_20h44.15.309,arm3_eps,2022.2.5,Win32,143.6575205,60832513ad492f85d73a0574,64c7fed44a04f777bb1e18ce,64c800dfd20cd1d2831d836e,up,1,0.75,0.3714,6,0,0.7904,,,,,,24,0,24,0,1,,,,,
,,185028,001,2023-07-31_20h44.15.309,arm3_eps,2022.2.5,Win32,143.6575205,60832513ad492f85d73a0574,64c7fed44a04f777bb1e18ce,64c800dfd20cd1d2831d836e,right,1,0.75,0.3714,6,0.008057446,0.6036,,,,,,25,0,25,0,1,,,,,
,,185028,001,2023-07-31_20h44.15.309,arm3_eps,2022.2.5,Win32,143.6575205,60832513ad492f85d73a0574,64c7fed44a04f777bb1e18ce,64c800dfd20cd1d2831d836e,right,1,0.75,0.3714,6,0.059376716,0.2812,,,,,,26,0,26,0,1,,,,,
,,185028,001,2023-07-31_20h44.15.309,arm3_eps,2022.2.5,Win32,143.6575205,60832513ad492f85d73a0574,64c7fed44a04f777bb1e18ce,64c800dfd20cd1d2831d836e,up,1,0.75,0.3714,7,0,0.5924,,,,,,27,0,27,0,1,,,,,
,,185028,001,2023-07-31_20h44.15.309,arm3_eps,2022.2.5,Win32,143.6575205,60832513ad492f85d73a0574,64c7fed44a04f777bb1e18ce,64c800dfd20cd1d2831d836e,right,1,0.75,0.3714,7,0.010722599,0.5837,,,,,,28,0,28,0,1,,,,,
,,185028,001,2023-07-31_20h44.15.309,arm3_eps,2022.2.5,Win32,143.6575205,60832513ad492f85d73a0574,64c7fed44a04f777bb1e18ce,64c800dfd20cd1d2831d836e,right,1,0.75,0.3714,7,0.020385227,0.2587,,,,,,29,0,29,0,1,,,,,
,,185028,001,2023-07-31_20h44.15.309,arm3_eps,2022.2.5,Win32,143.6575205,60832513ad492f85d73a0574,64c7fed44a04f777bb1e18ce,64c800dfd20cd1d2831d836e,right,1,0.75,0.3714,7,0.007300561,1.6019,,,,,,30,0,30,0,1,,,,,
,,185028,001,2023-07-31_20h44.15.309,arm3_eps,2022.2.5,Win32,143.6575205,60832513ad492f85d73a0574,64c7fed44a04f777bb1e18ce,64c800dfd20cd1d2831d836e,up,1,0.75,0.3714,8,0,0.7652,,,,,,31,0,31,0,1,,,,,
,,185028,001,2023-07-31_20h44.15.309,arm3_eps,2022.2.5,Win32,143.6575205,60832513ad492f85d73a0574,64c7fed44a04f777bb1e18ce,64c800dfd20cd1d2831d836e,right,1,0.75,0.3714,8,0.005257959,0.6016,,,,,,32,0,32,0,1,,,,,
,,185028,001,2023-07-31_20h44.15.309,arm3_eps,2022.2.5,Win32,143.6575205,60832513ad492f85d73a0574,64c7fed44a04f777bb1e18ce,64c800dfd20cd1d2831d836e,right,1,0.75,0.3714,8,0.033622531,0.7373,,,,,,33,0,33,0,1,,,,,
,,185028,001,2023-07-31_20h44.15.309,arm3_eps,2022.2.5,Win32,143.6575205,60832513ad492f85d73a0574,64c7fed44a04f777bb1e18ce,64c800dfd20cd1d2831d836e,right,1,0.75,0.3714,8,0.054120314,0.2598,,,,,,34,0,34,0,1,,,,,
,,185028,001,2023-07-31_20h44.15.309,arm3_eps,2022.2.5,Win32,143.6575205,60832513ad492f85d73a0574,64c7fed44a04f777bb1e18ce,64c800dfd20cd1d2831d836e,up,-1,0.75,0.3714,8,0,0.4178,,,,,,35,0,35,0,1,,,,,
,,185028,001,2023-07-31_20h44.15.309,arm3_eps,2022.2.5,Win32,143.6575205,60832513ad492f85d73a0574,64c7fed44a04f777bb1e18ce,64c800dfd20cd1d2831d836e,right,-1,0.75,0.3714,8,0.007256012,0.6841,,,,,,36,0,36,0,1,,,,,
,,185028,001,2023-07-31_20h44.15.309,arm3_eps,2022.2.5,Win32,143.6575205,60832513ad492f85d73a0574,64c7fed44a04f777bb1e18ce,64c800dfd20cd1d2831d836e,right,-1,0.75,0.3714,8,-0.004240648,0.4152,,,,,,37,0,37,0,1,,,,,
,,185028,001,2023-07-31_20h44.15.309,arm3_eps,2022.2.5,Win32,143.6575205,60832513ad492f85d73a0574,64c7fed44a04f777bb1e18ce,64c800dfd20cd1d2831d836e,down,-1,0.75,0.3714,9,0,0.57,,,,,,38,0,38,0,1,,,,,
,,185028,001,2023-07-31_20h44.15.309,arm3_eps,2022.2.5,Win32,143.6575205,60832513ad492f85d73a0574,64c7fed44a04f777bb1e18ce,64c800dfd20cd1d2831d836e,right,-1,0.75,0.3714,9,0.00658234,0.5266,,,,,,39,0,39,0,1,,,,,
,,185028,001,2023-07-31_20h44.15.309,arm3_eps,2022.2.5,Win32,143.6575205,60832513ad492f85d73a0574,64c7fed44a04f777bb1e18ce,64c800dfd20cd1d2831d836e,right,-1,0.75,0.3714,9,0.010066862,0.3291,,,,,,40,0,40,0,1,,,,,
,,185028,001,2023-07-31_20h44.15.309,arm3_eps,2022.2.5,Win32,143.6575205,60832513ad492f85d73a0574,64c7fed44a04f777bb1e18ce,64c800dfd20cd1d2831d836e,right,-1,0.75,0.3714,9,0.014129819,0.3261,,,,,,41,0,41,0,1,,,,,
,,185028,001,2023-07-31_20h44.15.309,arm3_eps,2022.2.5,Win32,143.6575205,60832513ad492f85d73a0574,64c7fed44a04f777bb1e18ce,64c800dfd20cd1d2831d836e,down,-1,0.75,0.3714,9,0,0.7413,,,,,,42,0,42,0,1,,,,,
,,185028,001,2023-07-31_20h44.15.309,arm3_eps,2022.2.5,Win32,143.6575205,60832513ad492f85d73a0574,64c7fed44a04f777bb1e18ce,64c800dfd20cd1d2831d836e,right,-1,0.75,0.3714,9,-0.014153554,0.5858,,,,,,43,0,43,0,1,,,,,
,,185028,001,2023-07-31_20h44.15.309,arm3_eps,2022.2.5,Win32,143.6575205,60832513ad492f85d73a0574,64c7fed44a04f777bb1e18ce,64c800dfd20cd1d2831d836e,right,-1,0.75,0.3714,9,-0.056437335,0.4506,,,,,,44,0,44,0,1,,,,,
,,185028,001,2023-07-31_20h44.15.309,arm3_eps,2022.2.5,Win32,143.6575205,60832513ad492f85d73a0574,64c7fed44a04f777bb1e18ce,64c800dfd20cd1d2831d836e,down,1,0.75,0.3714,10,0,0.513,,,,,,45,0,45,0,1,,,,,
,,185028,001,2023-07-31_20h44.15.309,arm3_eps,2022.2.5,Win32,143.6575205,60832513ad492f85d73a0574,64c7fed44a04f777bb1e18ce,64c800dfd20cd1d2831d836e,right,1,0.75,0.3714,10,0.003692285,0.5506,,,,,,46,0,46,0,1,,,,,
,,185028,001,2023-07-31_20h44.15.309,arm3_eps,2022.2.5,Win32,143.6575205,60832513ad492f85d73a0574,64c7fed44a04f777bb1e18ce,64c800dfd20cd1d2831d836e,right,1,0.75,0.3714,10,0.008584818,0.4605,,,,,,47,0,47,0,1,,,,,
,,185028,001,2023-07-31_20h44.15.309,arm3_eps,2022.2.5,Win32,143.6575205,60832513ad492f85d73a0574,64c7fed44a04f777bb1e18ce,64c800dfd20cd1d2831d836e,right,1,0.75,0.3714,10,0.016576525,1.3992,,,,,,48,0,48,0,1,,,,,
,,185028,001,2023-07-31_20h44.15.309,arm3_eps,2022.2.5,Win32,143.6575205,60832513ad492f85d73a0574,64c7fed44a04f777bb1e18ce,64c800dfd20cd1d2831d836e,right,1,0.75,0.3714,10,0.009793579,0.5734,,,,,,49,0,49,0,1,,,,,
,,185028,001,2023-07-31_20h44.15.309,arm3_eps,2022.2.5,Win32,143.6575205,60832513ad492f85d73a0574,64c7fed44a04f777bb1e18ce,64c800dfd20cd1d2831d836e,up,-1,0.75,0.3714,11,0,0.5801,,,,,,50,0,50,0,1,,,,,
,,185028,001,2023-07-31_20h44.15.309,arm3_eps,2022.2.5,Win32,143.6575205,60832513ad492f85d73a0574,64c7fed44a04f777bb1e18ce,64c800dfd20cd1d2831d836e,right,-1,0.75,0.3714,11,-0.01851104,0.5787,,,,,,51,0,51,0,1,,,,,
,,185028,001,2023-07-31_20h44.15.309,arm3_eps,2022.2.5,Win32,143.6575205,60832513ad492f85d73a0574,64c7fed44a04f777bb1e18ce,64c800dfd20cd1d2831d836e,right,-1,0.75,0.3714,11,-0.075720261,0.2828,,,,,,52,0,52,0,1,,,,,
,,185028,001,2023-07-31_20h44.15.309,arm3_eps,2022.2.5,Win32,143.6575205,60832513ad492f85d73a0574,64c7fed44a04f777bb1e18ce,64c800dfd20cd1d2831d836e,down,-1,0.75,0.3714,12,0,0.4395,,,,,,53,0,53,0,1,,,,,
,,185028,001,2023-07-31_20h44.15.309,arm3_eps,2022.2.5,Win32,143.6575205,60832513ad492f85d73a0574,64c7fed44a04f777bb1e18ce,64c800dfd20cd1d2831d836e,right,-1,0.75,0.3714,12,-0.014416571,0.3745,,,,,,54,0,54,0,1,,,,,
,,185028,001,2023-07-31_20h44.15.309,arm3_eps,2022.2.5,Win32,143.6575205,60832513ad492f85d73a0574,64c7fed44a04f777bb1e18ce,64c800dfd20cd1d2831d836e,right,-1,0.75,0.3714,12,-0.039242427,0.3384,,,,,,55,0,55,0,1,,,,,
,,185028,001,2023-07-31_20h44.15.309,arm3_eps,2022.2.5,Win32,143.6575205,60832513ad492f85d73a0574,64c7fed44a04f777bb1e18ce,64c800dfd20cd1d2831d836e,down,-1,0.75,0.3714,13,0,0.4836,,,,,,56,0,56,0,1,,,,,
,,185028,001,2023-07-31_20h44.15.309,arm3_eps,2022.2.5,Win32,143.6575205,60832513ad492f85d73a0574,64c7fed44a04f777bb1e18ce,64c800dfd20cd1d2831d836e,right,-1,0.75,0.3714,13,0.006604295,0.4712,,,,,,57,0,57,0,1,,,,,
,,185028,001,2023-07-31_20h44.15.309,arm3_eps,2022.2.5,Win32,143.6575205,60832513ad492f85d73a0574,64c7fed44a04f777bb1e18ce,64c800dfd20cd1d2831d836e,right,-1,0.75,0.3714,13,0.010592378,0.2889,,,,,,58,0,58,0,1,,,,,
,,185028,001,2023-07-31_20h44.15.309,arm3_eps,2022.2.5,Win32,143.6575205,60832513ad492f85d73a0574,64c7fed44a04f777bb1e18ce,64c800dfd20cd1d2831d836e,right,-1,0.75,0.3714,13,-0.018269228,0.349,,,,,,59,0,59,0,1,,,,,
,,185028,001,2023-07-31_20h44.15.309,arm3_eps,2022.2.5,Win32,143.6575205,60832513ad492f85d73a0574,64c7fed44a04f777bb1e18ce,64c800dfd20cd1d2831d836e,down,-1,0.75,0.3714,14,0,0.5288,,,,,,60,0,60,0,1,,,,,
,,185028,001,2023-07-31_20h44.15.309,arm3_eps,2022.2.5,Win32,143.6575205,60832513ad492f85d73a0574,64c7fed44a04f777bb1e18ce,64c800dfd20cd1d2831d836e,right,-1,0.75,0.3714,14,0.002827541,0.4379,,,,,,61,0,61,0,1,,,,,
,,185028,001,2023-07-31_20h44.15.309,arm3_eps,2022.2.5,Win32,143.6575205,60832513ad492f85d73a0574,64c7fed44a04f777bb1e18ce,64c800dfd20cd1d2831d836e,right,-1,0.75,0.3714,14,-0.031136524,0.2483,,,,,,62,0,62,0,1,,,,,
,,185028,001,2023-07-31_20h44.15.309,arm3_eps,2022.2.5,Win32,143.6575205,60832513ad492f85d73a0574,64c7fed44a04f777bb1e18ce,64c800dfd20cd1d2831d836e,right,-1,0.75,0.3714,14,-0.045243006,0.3044,,,,,,63,0,63,0,1,,,,,
,,185028,001,2023-07-31_20h44.15.309,arm3_eps,2022.2.5,Win32,143.6575205,60832513ad492f85d73a0574,64c7fed44a04f777bb1e18ce,64c800dfd20cd1d2831d836e,down,1,0.75,0.3714,15,0,0.7603,,,,,,64,0,64,0,1,,,,,
,,185028,001,2023-07-31_20h44.15.309,arm3_eps,2022.2.5,Win32,143.6575205,60832513ad492f85d73a0574,64c7fed44a04f777bb1e18ce,64c800dfd20cd1d2831d836e,right,1,0.75,0.3714,15,-0.012960117,0.5074,,,,,,65,0,65,0,1,,,,,
,,185028,001,2023-07-31_20h44.15.309,arm3_eps,2022.2.5,Win32,143.6575205,60832513ad492f85d73a0574,64c7fed44a04f777bb1e18ce,64c800dfd20cd1d2831d836e,right,1,0.75,0.3714,15,-0.007869327,0.2842,,,,,,66,0,66,0,1,,,,,
,,185028,001,2023-07-31_20h44.15.309,arm3_eps,2022.2.5,Win32,143.6575205,60832513ad492f85d73a0574,64c7fed44a04f777bb1e18ce,64c800dfd20cd1d2831d836e,right,1,0.75,0.3714,15,-0.012160411,0.2673,,,,,,67,0,67,0,1,,,,,
,,185028,001,2023-07-31_20h44.15.309,arm3_eps,2022.2.5,Win32,143.6575205,60832513ad492f85d73a0574,64c7fed44a04f777bb1e18ce,64c800dfd20cd1d2831d836e,up,1,0.75,0.3714,16,0,0.6965,,,,,,68,0,68,0,1,,,,,
,,185028,001,2023-07-31_20h44.15.309,arm3_eps,2022.2.5,Win32,143.6575205,60832513ad492f85d73a0574,64c7fed44a04f777bb1e18ce,64c800dfd20cd1d2831d836e,right,1,0.75,0.3714,16,0.015501432,0.5675,,,,,,69,0,69,0,1,,,,,
,,185028,001,2023-07-31_20h44.15.309,arm3_eps,2022.2.5,Win32,143.6575205,60832513ad492f85d73a0574,64c7fed44a04f777bb1e18ce,64c800dfd20cd1d2831d836e,right,1,0.75,0.3714,16,0.025508691,0.2167,,,,,,70,0,70,0,1,,,,,
,,185028,001,2023-07-31_20h44.15.309,arm3_eps,2022.2.5,Win32,143.6575205,60832513ad492f85d73a0574,64c7fed44a04f777bb1e18ce,64c800dfd20cd1d2831d836e,right,1,0.75,0.3714,16,0.041615911,0.2811,,,,,,71,0,71,0,1,,,,,
,,185028,001,2023-07-31_20h44.15.309,arm3_eps,2022.2.5,Win32,143.6575205,60832513ad492f85d73a0574,64c7fed44a04f777bb1e18ce,64c800dfd20cd1d2831d836e,up,-1,0.75,0.3714,17,0,0.3898,,,,,,72,0,72,0,1,,,,,
,,185028,001,2023-07-31_20h44.15.309,arm3_eps,2022.2.5,Win32,143.6575205,60832513ad492f85d73a0574,64c7fed44a04f777bb1e18ce,64c800dfd20cd1d2831d836e,right,-1,0.75,0.3714,17,-0.009874513,0.4797,,,,,,73,0,73,0,1,,,,,
,,185028,001,2023-07-31_20h44.15.309,arm3_eps,2022.2.5,Win32,143.6575205,60832513ad492f85d73a0574,64c7fed44a04f777bb1e18ce,64c800dfd20cd1d2831d836e,right,-1,0.75,0.3714,17,-0.009603422,0.2002,,,,,,74,0,74,0,1,,,,,
,,185028,001,2023-07-31_20h44.15.309,arm3_eps,2022.2.5,Win32,143.6575205,60832513ad492f85d73a0574,64c7fed44a04f777bb1e18ce,64c800dfd20cd1d2831d836e,right,-1,0.75,0.3714,17,0.010954422,0.1754,,,,,,75,0,75,0,1,,,,,
,,185028,001,2023-07-31_20h44.15.309,arm3_eps,2022.2.5,Win32,143.6575205,60832513ad492f85d73a0574,64c7fed44a04f777bb1e18ce,64c800dfd20cd1d2831d836e,right,-1,0.75,0.3714,17,0.003635028,0.8165,,,,,,76,0,76,0,1,,,,,
,,185028,001,2023-07-31_20h44.15.309,arm3_eps,2022.2.5,Win32,143.6575205,60832513ad492f85d73a0574,64c7fed44a04f777bb1e18ce,64c800dfd20cd1d2831d836e,right,-1,0.75,0.3714,17,-0.01135247,0.5951,,,,,,77,0,77,0,1,,,,,
,,185028,001,2023-07-31_20h44.15.309,arm3_eps,2022.2.5,Win32,143.6575205,60832513ad492f85d73a0574,64c7fed44a04f777bb1e18ce,64c800dfd20cd1d2831d836e,down,1,0.75,0.3714,18,0,0.3568,,,,,,78,0,78,0,1,,,,,
,,185028,001,2023-07-31_20h44.15.309,arm3_eps,2022.2.5,Win32,143.6575205,60832513ad492f85d73a0574,64c7fed44a04f777bb1e18ce,64c800dfd20cd1d2831d836e,right,1,0.75,0.3714,18,0.015958372,0.6744,,,,,,79,0,79,0,1,,,,,
,,185028,001,2023-07-31_20h44.15.309,arm3_eps,2022.2.5,Win32,143.6575205,60832513ad492f85d73a0574,64c7fed44a04f777bb1e18ce,64c800dfd20cd1d2831d836e,right,1,0.75,0.3714,18,0.030736229,0.2973,,,,,,80,0,80,0,1,,,,,
,,185028,001,2023-07-31_20h44.15.309,arm3_eps,2022.2.5,Win32,143.6575205,60832513ad492f85d73a0574,64c7fed44a04f777bb1e18ce,64c800dfd20cd1d2831d836e,right,1,0.75,0.3714,18,0.023003045,0.3749,,,,,,81,0,81,0,1,,,,,
,,185028,001,2023-07-31_20h44.15.309,arm3_eps,2022.2.5,Win32,143.6575205,60832513ad492f85d73a0574,64c7fed44a04f777bb1e18ce,64c800dfd20cd1d2831d836e,up,-1,0.75,0.3714,18,0,0.518,,,,,,82,0,82,0,1,,,,,
,,185028,001,2023-07-31_20h44.15.309,arm3_eps,2022.2.5,Win32,143.6575205,60832513ad492f85d73a0574,64c7fed44a04f777bb1e18ce,64c800dfd20cd1d2831d836e,right,-1,0.75,0.3714,18,-0.010432439,0.8283,,,,,,83,0,83,0,1,,,,,
,,185028,001,2023-07-31_20h44.15.309,arm3_eps,2022.2.5,Win32,143.6575205,60832513ad492f85d73a0574,64c7fed44a04f777bb1e18ce,64c800dfd20cd1d2831d836e,right,-1,0.75,0.3714,18,-0.014245428,0.2937,,,,,,84,0,84,0,1,,,,,
,,185028,001,2023-07-31_20h44.15.309,arm3_eps,2022.2.5,Win32,143.6575205,60832513ad492f85d73a0574,64c7fed44a04f777bb1e18ce,64c800dfd20cd1d2831d836e,right,-1,0.75,0.3714,18,0.003930591,0.4991,,,,,,85,0,85,0,1,,,,,
,,185028,001,2023-07-31_20h44.15.309,arm3_eps,2022.2.5,Win32,143.6575205,60832513ad492f85d73a0574,64c7fed44a04f777bb1e18ce,64c800dfd20cd1d2831d836e,right,-1,0.75,0.3714,18,-0.009800129,0.53,,,,,,86,0,86,0,1,,,,,
,,185028,001,2023-07-31_20h44.15.309,arm3_eps,2022.2.5,Win32,143.6575205,60832513ad492f85d73a0574,64c7fed44a04f777bb1e18ce,64c800dfd20cd1d2831d836e,down,-1,0.75,0.3714,19,0,0.738,,,,,,87,0,87,0,1,,,,,
,,185028,001,2023-07-31_20h44.15.309,arm3_eps,2022.2.5,Win32,143.6575205,60832513ad492f85d73a0574,64c7fed44a04f777bb1e18ce,64c800dfd20cd1d2831d836e,right,-1,0.75,0.3714,19,-0.022290993,0.8331,,,,,,88,0,88,0,1,,,,,
,,185028,001,2023-07-31_20h44.15.309,arm3_eps,2022.2.5,Win32,143.6575205,60832513ad492f85d73a0574,64c7fed44a04f777bb1e18ce,64c800dfd20cd1d2831d836e,right,-1,0.75,0.3714,19,-0.017958466,0.4827,,,,,,89,0,89,0,1,,,,,
,,185028,001,2023-07-31_20h44.15.309,arm3_eps,2022.2.5,Win32,143.6575205,60832513ad492f85d73a0574,64c7fed44a04f777bb1e18ce,64c800dfd20cd1d2831d836e,right,-1,0.75,0.3714,19,0.005868582,0.4085,,,,,,90,0,90,0,1,,,,,
,,185028,001,2023-07-31_20h44.15.309,arm3_eps,2022.2.5,Win32,143.6575205,60832513ad492f85d73a0574,64c7fed44a04f777bb1e18ce,64c800dfd20cd1d2831d836e,right,-1,0.75,0.3714,19,0.003483219,0.4159,,,,,,91,0,91,0,1,,,,,
,,185028,001,2023-07-31_20h44.15.309,arm3_eps,2022.2.5,Win32,143.6575205,60832513ad492f85d73a0574,64c7fed44a04f777bb1e18ce,64c800dfd20cd1d2831d836e,right,-1,0.75,0.3714,19,-0.00222622,0.4781,,,,,,92,0,92,0,1,,,,,
,,185028,001,2023-07-31_20h44.15.309,arm3_eps,2022.2.5,Win32,143.6575205,60832513ad492f85d73a0574,64c7fed44a04f777bb1e18ce,64c800dfd20cd1d2831d836e,down,1,0.75,0.3714,20,0,0.3697,,,,,,93,0,93,0,1,,,,,
,,185028,001,2023-07-31_20h44.15.309,arm3_eps,2022.2.5,Win32,143.6575205,60832513ad492f85d73a0574,64c7fed44a04f777bb1e18ce,64c800dfd20cd1d2831d836e,right,1,0.75,0.3714,20,0.012390388,0.7639,,,,,,94,0,94,0,1,,,,,
,,185028,001,2023-07-31_20h44.15.309,arm3_eps,2022.2.5,Win32,143.6575205,60832513ad492f85d73a0574,64c7fed44a04f777bb1e18ce,64c800dfd20cd1d2831d836e,right,1,0.75,0.3714,20,0.041946263,0.5266,,,,,,95,0,95,0,1,,,,,
,,185028,001,2023-07-31_20h44.15.309,arm3_eps,2022.2.5,Win32,143.6575205,60832513ad492f85d73a0574,64c7fed44a04f777bb1e18ce,64c800dfd20cd1d2831d836e,up,1,0.75,0.3714,20,0,0.3889,,,,,,96,0,96,0,1,,,,,
,,185028,001,2023-07-31_20h44.15.309,arm3_eps,2022.2.5,Win32,143.6575205,60832513ad492f85d73a0574,64c7fed44a04f777bb1e18ce,64c800dfd20cd1d2831d836e,right,1,0.75,0.3714,20,0.034970101,0.5676,,,,,,97,0,97,0,1,,,,,
,,185028,001,2023-07-31_20h44.15.309,arm3_eps,2022.2.5,Win32,143.6575205,60832513ad492f85d73a0574,64c7fed44a04f777bb1e18ce,64c800dfd20cd1d2831d836e,right,1,0.75,0.3714,20,0.040741542,0.4664,,,,,,98,0,98,0,1,,,,,
,,185028,001,2023-07-31_20h44.15.309,arm3_eps,2022.2.5,Win32,143.6575205,60832513ad492f85d73a0574,64c7fed44a04f777bb1e18ce,64c800dfd20cd1d2831d836e,up,1,0.75,0.3714,21,0,0.3384,,,,,,99,0,99,0,1,,,,,
,,185028,001,2023-07-31_20h44.15.309,arm3_eps,2022.2.5,Win32,143.6575205,60832513ad492f85d73a0574,64c7fed44a04f777bb1e18ce,64c800dfd20cd1d2831d836e,right,1,0.75,0.3714,21,0.020296486,0.5543,,,,,,100,0,100,0,1,,,,,
,,185028,001,2023-07-31_20h44.15.309,arm3_eps,2022.2.5,Win32,143.6575205,60832513ad492f85d73a0574,64c7fed44a04f777bb1e18ce,64c800dfd20cd1d2831d836e,right,1,0.75,0.3714,21,0.017244907,0.4173,,,,,,101,0,101,0,1,,,,,
,,185028,001,2023-07-31_20h44.15.309,arm3_eps,2022.2.5,Win32,143.6575205,60832513ad492f85d73a0574,64c7fed44a04f777bb1e18ce,64c800dfd20cd1d2831d836e,up,1,0.75,0.3714,21,0,0.4661,,,,,,102,0,102,0,1,,,,,
,,185028,001,2023-07-31_20h44.15.309,arm3_eps,2022.2.5,Win32,143.6575205,60832513ad492f85d73a0574,64c7fed44a04f777bb1e18ce,64c800dfd20cd1d2831d836e,right,1,0.75,0.3714,21,0.012032075,0.6203,,,,,,103,0,103,0,1,,,,,
,,185028,001,2023-07-31_20h44.15.309,arm3_eps,2022.2.5,Win32,143.6575205,60832513ad492f85d73a0574,64c7fed44a04f777bb1e18ce,64c800dfd20cd1d2831d836e,right,1,0.75,0.3714,21,0.061716898,0.3424,,,,,,104,0,104,0,1,,,,,
,,185028,001,2023-07-31_20h44.15.309,arm3_eps,2022.2.5,Win32,143.6575205,60832513ad492f85d73a0574,64c7fed44a04f777bb1e18ce,64c800dfd20cd1d2831d836e,up,1,0.75,0.3714,21,0,0.3445,,,,,,105,0,105,0,1,,,,,
,,185028,001,2023-07-31_20h44.15.309,arm3_eps,2022.2.5,Win32,143.6575205,60832513ad492f85d73a0574,64c7fed44a04f777bb1e18ce,64c800dfd20cd1d2831d836e,right,1,0.75,0.3714,21,0.019315291,0.6009,,,,,,106,0,106,0,1,,,,,
,,185028,001,2023-07-31_20h44.15.309,arm3_eps,2022.2.5,Win32,143.6575205,60832513ad492f85d73a0574,64c7fed44a04f777bb1e18ce,64c800dfd20cd1d2831d836e,right,1,0.75,0.3714,21,0.014461981,0.3846,,,,,,107,0,107,0,1,,,,,
,,185028,001,2023-07-31_20h44.15.309,arm3_eps,2022.2.5,Win32,143.6575205,60832513ad492f85d73a0574,64c7fed44a04f777bb1e18ce,64c800dfd20cd1d2831d836e,up,-1,0.75,0.3714,22,0,0.4145,,,,,,108,0,108,0,1,,,,,
,,185028,001,2023-07-31_20h44.15.309,arm3_eps,2022.2.5,Win32,143.6575205,60832513ad492f85d73a0574,64c7fed44a04f777bb1e18ce,64c800dfd20cd1d2831d836e,right,-1,0.75,0.3714,22,-0.060864358,0.549,,,,,,109,0,109,0,1,,,,,
,,185028,001,2023-07-31_20h44.15.309,arm3_eps,2022.2.5,Win32,143.6575205,60832513ad492f85d73a0574,64c7fed44a04f777bb1e18ce,64c800dfd20cd1d2831d836e,right,-1,0.75,0.3714,22,-0.068882344,0.2525,,,,,,110,0,110,0,1,,,,,
,,185028,001,2023-07-31_20h44.15.309,arm3_eps,2022.2.5,Win32,143.6575205,60832513ad492f85d73a0574,64c7fed44a04f777bb1e18ce,64c800dfd20cd1d2831d836e,down,-1,0.75,0.3714,23,0,0.4465,,,,,,111,0,111,0,1,,,,,
,,185028,001,2023-07-31_20h44.15.309,arm3_eps,2022.2.5,Win32,143.6575205,60832513ad492f85d73a0574,64c7fed44a04f777bb1e18ce,64c800dfd20cd1d2831d836e,right,-1,0.75,0.3714,23,-0.00241883,0.5725,,,,,,112,0,112,0,1,,,,,
,,185028,001,2023-07-31_20h44.15.309,arm3_eps,2022.2.5,Win32,143.6575205,60832513ad492f85d73a0574,64c7fed44a04f777bb1e18ce,64c800dfd20cd1d2831d836e,right,-1,0.75,0.3714,23,-0.028273946,0.3422,,,,,,113,0,113,0,1,,,,,
,,185028,001,2023-07-31_20h44.15.309,arm3_eps,2022.2.5,Win32,143.6575205,60832513ad492f85d73a0574,64c7fed44a04f777bb1e18ce,64c800dfd20cd1d2831d836e,down,-1,0.75,0.3714,24,0,0.4655,,,,,,114,0,114,0,1,,,,,
,,185028,001,2023-07-31_20h44.15.309,arm3_eps,2022.2.5,Win32,143.6575205,60832513ad492f85d73a0574,64c7fed44a04f777bb1e18ce,64c800dfd20cd1d2831d836e,right,-1,0.75,0.3714,24,0.003701943,0.6513,,,,,,115,0,115,0,1,,,,,
,,185028,001,2023-07-31_20h44.15.309,arm3_eps,2022.2.5,Win32,143.6575205,60832513ad492f85d73a0574,64c7fed44a04f777bb1e18ce,64c800dfd20cd1d2831d836e,right,-1,0.75,0.3714,24,0.031689443,0.2969,,,,,,116,0,116,0,1,,,,,
,,185028,001,2023-07-31_20h44.15.309,arm3_eps,2022.2.5,Win32,143.6575205,60832513ad492f85d73a0574,64c7fed44a04f777bb1e18ce,64c800dfd20cd1d2831d836e,right,-1,0.75,0.3714,24,0.02023783,0.9829,,,,,,117,0,117,0,1,,,,,
,,185028,001,2023-07-31_20h44.15.309,arm3_eps,2022.2.5,Win32,143.6575205,60832513ad492f85d73a0574,64c7fed44a04f777bb1e18ce,64c800dfd20cd1d2831d836e,right,-1,0.75,0.3714,24,0.017347324,0.6328,,,,,,118,0,118,0,1,,,,,
,,185028,001,2023-07-31_20h44.15.309,arm3_eps,2022.2.5,Win32,143.6575205,60832513ad492f85d73a0574,64c7fed44a04f777bb1e18ce,64c800dfd20cd1d2831d836e,up,-1,0.75,0.3714,23,0,1.1418,,,,,,119,0,119,0,1,,,,,
,,185028,001,2023-07-31_20h44.15.309,arm3_eps,2022.2.5,Win32,143.6575205,60832513ad492f85d73a0574,64c7fed44a04f777bb1e18ce,64c800dfd20cd1d2831d836e,right,-1,0.75,0.3714,23,-0.032591116,0.7536,,,,,,120,0,120,0,1,,,,,
,,185028,001,2023-07-31_20h44.15.309,arm3_eps,2022.2.5,Win32,143.6575205,60832513ad492f85d73a0574,64c7fed44a04f777bb1e18ce,64c800dfd20cd1d2831d836e,down,-1,0.75,0.3714,24,0,0.5506,,,,,,121,0,121,0,1,,,,,
,,185028,001,2023-07-31_20h44.15.309,arm3_eps,2022.2.5,Win32,143.6575205,60832513ad492f85d73a0574,64c7fed44a04f777bb1e18ce,64c800dfd20cd1d2831d836e,right,-1,0.75,0.3714,24,-0.02934477,0.6768,,,,,,122,0,122,0,1,,,,,
,,185028,001,2023-07-31_20h44.15.309,arm3_eps,2022.2.5,Win32,143.6575205,60832513ad492f85d73a0574,64c7fed44a04f777bb1e18ce,64c800dfd20cd1d2831d836e,right,-1,0.75,0.3714,24,-0.00918174,1.6951,,,,,,123,0,123,0,1,,,,,
,,185028,001,2023-07-31_20h44.15.309,arm3_eps,2022.2.5,Win32,143.6575205,60832513ad492f85d73a0574,64c7fed44a04f777bb1e18ce,64c800dfd20cd1d2831d836e,down,1,0.75,0.3714,25,0,0.7396,,,,,,124,0,124,0,1,,,,,
,,185028,001,2023-07-31_20h44.15.309,arm3_eps,2022.2.5,Win32,143.6575205,60832513ad492f85d73a0574,64c7fed44a04f777bb1e18ce,64c800dfd20cd1d2831d836e,right,1,0.75,0.3714,25,-0.008127542,0.6178,,,,,,125,0,125,0,1,,,,,
,,185028,001,2023-07-31_20h44.15.309,arm3_eps,2022.2.5,Win32,143.6575205,60832513ad492f85d73a0574,64c7fed44a04f777bb1e18ce,64c800dfd20cd1d2831d836e,down,1,0.75,0.3714,25,0,0.5426,,,,,,126,0,126,0,1,,,,,
,,185028,001,2023-07-31_20h44.15.309,arm3_eps,2022.2.5,Win32,143.6575205,60832513ad492f85d73a0574,64c7fed44a04f777bb1e18ce,64c800dfd20cd1d2831d836e,right,1,0.75,0.3714,25,0.039452917,0.6938,,,,,,127,0,127,0,1,,,,,
,,185028,001,2023-07-31_20h44.15.309,arm3_eps,2022.2.5,Win32,143.6575205,60832513ad492f85d73a0574,64c7fed44a04f777bb1e18ce,64c800dfd20cd1d2831d836e,up,-1,0.75,0.3714,25,0,0.5376,,,,,,128,0,128,0,1,,,,,
,,185028,001,2023-07-31_20h44.15.309,arm3_eps,2022.2.5,Win32,143.6575205,60832513ad492f85d73a0574,64c7fed44a04f777bb1e18ce,64c800dfd20cd1d2831d836e,right,-1,0.75,0.3714,25,0.037767853,0.5742,,,,,,129,0,129,0,1,,,,,
,,185028,001,2023-07-31_20h44.15.309,arm3_eps,2022.2.5,Win32,143.6575205,60832513ad492f85d73a0574,64c7fed44a04f777bb1e18ce,64c800dfd20cd1d2831d836e,up,-1,0.75,0.3714,24,0,0.5767,,,,,,130,0,130,0,1,,,,,
,,185028,001,2023-07-31_20h44.15.309,arm3_eps,2022.2.5,Win32,143.6575205,60832513ad492f85d73a0574,64c7fed44a04f777bb1e18ce,64c800dfd20cd1d2831d836e,right,-1,0.75,0.3714,24,-0.031615752,0.5966,,,,,,131,0,131,0,1,,,,,
,,185028,001,2023-07-31_20h44.15.309,arm3_eps,2022.2.5,Win32,143.6575205,60832513ad492f85d73a0574,64c7fed44a04f777bb1e18ce,64c800dfd20cd1d2831d836e,down,1,0.75,0.3714,25,0,0.4961,,,,,,132,0,132,0,1,,,,,
,,185028,001,2023-07-31_20h44.15.309,arm3_eps,2022.2.5,Win32,143.6575205,60832513ad492f85d73a0574,64c7fed44a04f777bb1e18ce,64c800dfd20cd1d2831d836e,right,1,0.75,0.3714,25,0.017065866,0.6054,,,,,,133,0,133,0,1,,,,,
,,185028,001,2023-07-31_20h44.15.309,arm3_eps,2022.2.5,Win32,143.6575205,60832513ad492f85d73a0574,64c7fed44a04f777bb1e18ce,64c800dfd20cd1d2831d836e,right,1,0.75,0.3714,25,0.025700071,0.7171,,,,,,134,0,134,0,1,,,,,
,,185028,001,2023-07-31_20h44.15.309,arm3_eps,2022.2.5,Win32,143.6575205,60832513ad492f85d73a0574,64c7fed44a04f777bb1e18ce,64c800dfd20cd1d2831d836e,up,1,0.75,0.3714,26,0,0.5052,,,,,,135,0,135,0,1,,,,,
,,185028,001,2023-07-31_20h44.15.309,arm3_eps,2022.2.5,Win32,143.6575205,60832513ad492f85d73a0574,64c7fed44a04f777bb1e18ce,64c800dfd20cd1d2831d836e,right,1,0.75,0.3714,26,-0.01757102,1.0528,,,,,,136,0,136,0,1,,,,,
,,185028,001,2023-07-31_20h44.15.309,arm3_eps,2022.2.5,Win32,143.6575205,60832513ad492f85d73a0574,64c7fed44a04f777bb1e18ce,64c800dfd20cd1d2831d836e,right,1,0.75,0.3714,26,-0.043470123,0.4286,,,,,,137,0,137,0,1,,,,,
,,185028,001,2023-07-31_20h44.15.309,arm3_eps,2022.2.5,Win32,143.6575205,60832513ad492f85d73a0574,64c7fed44a04f777bb1e18ce,64c800dfd20cd1d2831d836e,down,1,0.75,0.3714,26,0,0.8042,,,,,,138,0,138,0,1,,,,,
,,185028,001,2023-07-31_20h44.15.309,arm3_eps,2022.2.5,Win32,143.6575205,60832513ad492f85d73a0574,64c7fed44a04f777bb1e18ce,64c800dfd20cd1d2831d836e,right,1,0.75,0.3714,26,-0.00618658,0.587,,,,,,139,0,139,0,1,,,,,
,,185028,001,2023-07-31_20h44.15.309,arm3_eps,2022.2.5,Win32,143.6575205,60832513ad492f85d73a0574,64c7fed44a04f777bb1e18ce,64c800dfd20cd1d2831d836e,right,1,0.75,0.3714,26,0.014439089,0.4425,,,,,,140,0,140,0,1,,,,,
,,185028,001,2023-07-31_20h44.15.309,arm3_eps,2022.2.5,Win32,143.6575205,60832513ad492f85d73a0574,64c7fed44a04f777bb1e18ce,64c800dfd20cd1d2831d836e,right,1,0.75,0.3714,26,0.016656622,0.4125,,,,,,141,0,141,0,1,,,,,
,,185028,001,2023-07-31_20h44.15.309,arm3_eps,2022.2.5,Win32,143.6575205,60832513ad492f85d73a0574,64c7fed44a04f777bb1e18ce,64c800dfd20cd1d2831d836e,up,1,0.75,0.3714,27,0,0.5909,,,,,,142,0,142,0,1,,,,,
,,185028,001,2023-07-31_20h44.15.309,arm3_eps,2022.2.5,Win32,143.6575205,60832513ad492f85d73a0574,64c7fed44a04f777bb1e18ce,64c800dfd20cd1d2831d836e,right,1,0.75,0.3714,27,0.008936288,0.5847,,,,,,143,0,143,0,1,,,,,
,,185028,001,2023-07-31_20h44.15.309,arm3_eps,2022.2.5,Win32,143.6575205,60832513ad492f85d73a0574,64c7fed44a04f777bb1e18ce,64c800dfd20cd1d2831d836e,right,1,0.75,0.3714,27,0.003560879,0.3475,,,,,,144,0,144,0,1,,,,,
,,185028,001,2023-07-31_20h44.15.309,arm3_eps,2022.2.5,Win32,143.6575205,60832513ad492f85d73a0574,64c7fed44a04f777bb1e18ce,64c800dfd20cd1d2831d836e,right,1,0.75,0.3714,27,0.020097206,0.3866,,,,,,145,0,145,0,1,,,,,
,,185028,001,2023-07-31_20h44.15.309,arm3_eps,2022.2.5,Win32,143.6575205,60832513ad492f85d73a0574,64c7fed44a04f777bb1e18ce,64c800dfd20cd1d2831d836e,up,1,0.75,0.3714,27,0,0.2868,,,,,,146,0,146,0,1,,,,,
,,185028,001,2023-07-31_20h44.15.309,arm3_eps,2022.2.5,Win32,143.6575205,60832513ad492f85d73a0574,64c7fed44a04f777bb1e18ce,64c800dfd20cd1d2831d836e,right,1,0.75,0.3714,27,0.004816869,0.4664,,,,,,147,0,147,0,1,,,,,
,,185028,001,2023-07-31_20h44.15.309,arm3_eps,2022.2.5,Win32,143.6575205,60832513ad492f85d73a0574,64c7fed44a04f777bb1e18ce,64c800dfd20cd1d2831d836e,right,1,0.75,0.3714,27,-0.006106863,0.289,,,,,,148,0,148,0,1,,,,,
,,185028,001,2023-07-31_20h44.15.309,arm3_eps,2022.2.5,Win32,143.6575205,60832513ad492f85d73a0574,64c7fed44a04f777bb1e18ce,64c800dfd20cd1d2831d836e,right,1,0.75,0.3714,27,0.025462465,0.4483,,,,,,149,0,149,0,1,,,,,
,,185028,001,2023-07-31_20h44.15.309,arm3_eps,2022.2.5,Win32,143.6575205,60832513ad492f85d73a0574,64c7fed44a04f777bb1e18ce,64c800dfd20cd1d2831d836e,up,1,0.75,0.3714,28,0,0.3207,,,,,,150,0,150,0,1,,,,,
,,185028,001,2023-07-31_20h44.15.309,arm3_eps,2022.2.5,Win32,143.6575205,60832513ad492f85d73a0574,64c7fed44a04f777bb1e18ce,64c800dfd20cd1d2831d836e,right,1,0.75,0.3714,28,-0.009004237,0.4305,,,,,,151,0,151,0,1,,,,,
,,185028,001,2023-07-31_20h44.15.309,arm3_eps,2022.2.5,Win32,143.6575205,60832513ad492f85d73a0574,64c7fed44a04f777bb1e18ce,64c800dfd20cd1d2831d836e,right,1,0.75,0.3714,28,-0.006540321,0.4321,,,,,,152,0,152,0,1,,,,,
,,185028,001,2023-07-31_20h44.15.309,arm3_eps,2022.2.5,Win32,143.6575205,60832513ad492f85d73a0574,64c7fed44a04f777bb1e18ce,64c800dfd20cd1d2831d836e,up,-1,0.75,0.3714,29,0,0.6976,,,,,,153,0,153,0,1,,,,,
,,185028,001,2023-07-31_20h44.15.309,arm3_eps,2022.2.5,Win32,143.6575205,60832513ad492f85d73a0574,64c7fed44a04f777bb1e18ce,64c800dfd20cd1d2831d836e,right,-1,0.75,0.3714,29,-0.017750365,0.5194,,,,,,154,0,154,0,1,,,,,
,,185028,001,2023-07-31_20h44.15.309,arm3_eps,2022.2.5,Win32,143.6575205,60832513ad492f85d73a0574,64c7fed44a04f777bb1e18ce,64c800dfd20cd1d2831d836e,right,-1,0.75,0.3714,29,-0.024405545,0.3228,,,,,,155,0,155,0,1,,,,,
,,185028,001,2023-07-31_20h44.15.309,arm3_eps,2022.2.5,Win32,143.6575205,60832513ad492f85d73a0574,64c7fed44a04f777bb1e18ce,64c800dfd20cd1d2831d836e,down,-1,0.75,0.3714,29,0,0.8883,,,,,,156,0,156,0,1,,,,,
,,185028,001,2023-07-31_20h44.15.309,arm3_eps,2022.2.5,Win32,143.6575205,60832513ad492f85d73a0574,64c7fed44a04f777bb1e18ce,64c800dfd20cd1d2831d836e,right,-1,0.75,0.3714,29,-0.043387098,0.5381,,,,,,157,0,157,0,1,,,,,
,,185028,001,2023-07-31_20h44.15.309,arm3_eps,2022.2.5,Win32,143.6575205,60832513ad492f85d73a0574,64c7fed44a04f777bb1e18ce,64c800dfd20cd1d2831d836e,right,-1,0.75,0.3714,29,-0.074290691,0.3605,,,,,,158,0,158,0,1,,,,,
,,185028,001,2023-07-31_20h44.15.309,arm3_eps,2022.2.5,Win32,143.6575205,60832513ad492f85d73a0574,64c7fed44a04f777bb1e18ce,64c800dfd20cd1d2831d836e,down,-1,0.75,0.3714,29,0,0.321,,,,,,159,0,159,0,1,,,,,
,,185028,001,2023-07-31_20h44.15.309,arm3_eps,2022.2.5,Win32,143.6575205,60832513ad492f85d73a0574,64c7fed44a04f777bb1e18ce,64c800dfd20cd1d2831d836e,right,-1,0.75,0.3714,29,-0.019747884,0.6675,,,,,,160,0,160,0,1,,,,,
,,185028,001,2023-07-31_20h44.15.309,arm3_eps,2022.2.5,Win32,143.6575205,60832513ad492f85d73a0574,64c7fed44a04f777bb1e18ce,64c800dfd20cd1d2831d836e,right,-1,0.75,0.3714,29,-0.021284442,0.4267,,,,,,161,0,161,0,1,,,,,
,,185028,001,2023-07-31_20h44.15.309,arm3_eps,2022.2.5,Win32,143.6575205,60832513ad492f85d73a0574,64c7fed44a04f777bb1e18ce,64c800dfd20cd1d2831d836e,down,1,0.75,0.3714,29,0,0.3983,,,,,,162,0,162,0,1,,,,,
,,185028,001,2023-07-31_20h44.15.309,arm3_eps,2022.2.5,Win32,143.6575205,60832513ad492f85d73a0574,64c7fed44a04f777bb1e18ce,64c800dfd20cd1d2831d836e,right,1,0.75,0.3714,29,-0.009603212,0.5759,,,,,,163,0,163,0,1,,,,,
,,185028,001,2023-07-31_20h44.15.309,arm3_eps,2022.2.5,Win32,143.6575205,60832513ad492f85d73a0574,64c7fed44a04f777bb1e18ce,64c800dfd20cd1d2831d836e,right,1,0.75,0.3714,29,-0.006716964,0.3091,,,,,,164,0,164,0,1,,,,,
,,185028,001,2023-07-31_20h44.15.309,arm3_eps,2022.2.5,Win32,143.6575205,60832513ad492f85d73a0574,64c7fed44a04f777bb1e18ce,64c800dfd20cd1d2831d836e,right,1,0.75,0.3714,29,-0.016900697,0.3908,,,,,,165,0,165,0,1,,,,,
,,185028,001,2023-07-31_20h44.15.309,arm3_eps,2022.2.5,Win32,143.6575205,60832513ad492f85d73a0574,64c7fed44a04f777bb1e18ce,64c800dfd20cd1d2831d836e,down,1,0.75,0.3714,29,0,0.2768,,,,,,166,0,166,0,1,,,,,
,,185028,001,2023-07-31_20h44.15.309,arm3_eps,2022.2.5,Win32,143.6575205,60832513ad492f85d73a0574,64c7fed44a04f777bb1e18ce,64c800dfd20cd1d2831d836e,right,1,0.75,0.3714,29,0.015952095,0.5296,,,,,,167,0,167,0,1,,,,,
,,185028,001,2023-07-31_20h44.15.309,arm3_eps,2022.2.5,Win32,143.6575205,60832513ad492f85d73a0574,64c7fed44a04f777bb1e18ce,64c800dfd20cd1d2831d836e,right,1,0.75,0.3714,29,4.05741E-05,0.3587,,,,,,168,0,168,0,1,,,,,
,,185028,001,2023-07-31_20h44.15.309,arm3_eps,2022.2.5,Win32,143.6575205,60832513ad492f85d73a0574,64c7fed44a04f777bb1e18ce,64c800dfd20cd1d2831d836e,right,1,0.75,0.3714,29,0.021412521,0.2917,,,,,,169,0,169,0,1,,,,,
,,185028,001,2023-07-31_20h44.15.309,arm3_eps,2022.2.5,Win32,143.6575205,60832513ad492f85d73a0574,64c7fed44a04f777bb1e18ce,64c800dfd20cd1d2831d836e,up,1,0.75,0.3714,30,0,0.341,,,,,,170,0,170,0,1,,,,,
,,185028,001,2023-07-31_20h44.15.309,arm3_eps,2022.2.5,Win32,143.6575205,60832513ad492f85d73a0574,64c7fed44a04f777bb1e18ce,64c800dfd20cd1d2831d836e,right,1,0.75,0.3714,30,0.00959669,0.4772,,,,,,171,0,171,0,1,,,,,
,,185028,001,2023-07-31_20h44.15.309,arm3_eps,2022.2.5,Win32,143.6575205,60832513ad492f85d73a0574,64c7fed44a04f777bb1e18ce,64c800dfd20cd1d2831d836e,right,1,0.75,0.3714,30,-0.034595156,0.3203,,,,,,172,0,172,0,1,,,,,
,,185028,001,2023-07-31_20h44.15.309,arm3_eps,2022.2.5,Win32,143.6575205,60832513ad492f85d73a0574,64c7fed44a04f777bb1e18ce,64c800dfd20cd1d2831d836e,right,1,0.75,0.3714,30,-0.030242754,0.3424,,,,,,173,0,173,0,1,,,,,
,,185028,001,2023-07-31_20h44.15.309,arm3_eps,2022.2.5,Win32,143.6575205,60832513ad492f85d73a0574,64c7fed44a04f777bb1e18ce,64c800dfd20cd1d2831d836e,down,-1,0.75,0.3714,29,0,0.3094,,,,,,174,0,174,0,1,,,,,
,,185028,001,2023-07-31_20h44.15.309,arm3_eps,2022.2.5,Win32,143.6575205,60832513ad492f85d73a0574,64c7fed44a04f777bb1e18ce,64c800dfd20cd1d2831d836e,right,-1,0.75,0.3714,29,-0.005265181,0.5746,,,,,,175,0,175,0,1,,,,,
,,185028,001,2023-07-31_20h44.15.309,arm3_eps,2022.2.5,Win32,143.6575205,60832513ad492f85d73a0574,64c7fed44a04f777bb1e18ce,64c800dfd20cd1d2831d836e,right,-1,0.75,0.3714,29,0.000815965,0.2587,,,,,,176,0,176,0,1,,,,,
,,185028,001,2023-07-31_20h44.15.309,arm3_eps,2022.2.5,Win32,143.6575205,60832513ad492f85d73a0574,64c7fed44a04f777bb1e18ce,64c800dfd20cd1d2831d836e,right,-1,0.75,0.3714,29,-0.070711533,0.3409,,,,,,177,0,177,0,1,,,,,
,,185028,001,2023-07-31_20h44.15.309,arm3_eps,2022.2.5,Win32,143.6575205,60832513ad492f85d73a0574,64c7fed44a04f777bb1e18ce,64c800dfd20cd1d2831d836e,down,-1,0.75,0.3714,29,0,0.3037,,,,,,178,0,178,0,1,,,,,
,,185028,001,2023-07-31_20h44.15.309,arm3_eps,2022.2.5,Win32,143.6575205,60832513ad492f85d73a0574,64c7fed44a04f777bb1e18ce,64c800dfd20cd1d2831d836e,right,-1,0.75,0.3714,29,0.001104794,0.4983,,,,,,179,0,179,0,1,,,,,
,,185028,001,2023-07-31_20h44.15.309,arm3_eps,2022.2.5,Win32,143.6575205,60832513ad492f85d73a0574,64c7fed44a04f777bb1e18ce,64c800dfd20cd1d2831d836e,right,-1,0.75,0.3714,29,-0.015180446,0.3285,,,,,,180,0,180,0,1,,,,,
,,185028,001,2023-07-31_20h44.15.309,arm3_eps,2022.2.5,Win32,143.6575205,60832513ad492f85d73a0574,64c7fed44a04f777bb1e18ce,64c800dfd20cd1d2831d836e,down,-1,0.75,0.3714,30,0,0.5219,,,,,,181,0,181,0,1,,,,,
,,185028,001,2023-07-31_20h44.15.309,arm3_eps,2022.2.5,Win32,143.6575205,60832513ad492f85d73a0574,64c7fed44a04f777bb1e18ce,64c800dfd20cd1d2831d836e,right,-1,0.75,0.3714,30,-0.024877033,0.5443,,,,,,182,0,182,0,1,,,,,
,,185028,001,2023-07-31_20h44.15.309,arm3_eps,2022.2.5,Win32,143.6575205,60832513ad492f85d73a0574,64c7fed44a04f777bb1e18ce,64c800dfd20cd1d2831d836e,right,-1,0.75,0.3714,30,-0.013074469,0.3419,,,,,,183,0,183,0,1,,,,,
,,185028,001,2023-07-31_20h44.15.309,arm3_eps,2022.2.5,Win32,143.6575205,60832513ad492f85d73a0574,64c7fed44a04f777bb1e18ce,64c800dfd20cd1d2831d836e,right,-1,0.75,0.3714,30,-0.025467935,0.3222,,,,,,184,0,184,0,1,,,,,
,,185028,001,2023-07-31_20h44.15.309,arm3_eps,2022.2.5,Win32,143.6575205,60832513ad492f85d73a0574,64c7fed44a04f777bb1e18ce,64c800dfd20cd1d2831d836e,right,-1,0.75,0.3714,30,-0.006193394,0.4446,,,,,,185,0,185,0,1,,,,,
,,185028,001,2023-07-31_20h44.15.309,arm3_eps,2022.2.5,Win32,143.6575205,60832513ad492f85d73a0574,64c7fed44a04f777bb1e18ce,64c800dfd20cd1d2831d836e,right,-1,0.75,0.3714,30,-0.015313896,0.3596,,,,,,186,0,186,0,1,,,,,
,,185028,001,2023-07-31_20h44.15.309,arm3_eps,2022.2.5,Win32,143.6575205,60832513ad492f85d73a0574,64c7fed44a04f777bb1e18ce,64c800dfd20cd1d2831d836e,up,-1,0.75,0.3714,29,0,0.5157,,,,,,187,0,187,0,1,,,,,
,,185028,001,2023-07-31_20h44.15.309,arm3_eps,2022.2.5,Win32,143.6575205,60832513ad492f85d73a0574,64c7fed44a04f777bb1e18ce,64c800dfd20cd1d2831d836e,right,-1,0.75,0.3714,29,-0.029806817,0.5299,,,,,,188,0,188,0,1,,,,,
,,185028,001,2023-07-31_20h44.15.309,arm3_eps,2022.2.5,Win32,143.6575205,60832513ad492f85d73a0574,64c7fed44a04f777bb1e18ce,64c800dfd20cd1d2831d836e,right,-1,0.75,0.3714,29,-0.080182168,0.2288,,,,,,189,0,189,0,1,,,,,
,,185028,001,2023-07-31_20h44.15.309,arm3_eps,2022.2.5,Win32,143.6575205,60832513ad492f85d73a0574,64c7fed44a04f777bb1e18ce,64c800dfd20cd1d2831d836e,down,-1,0.75,0.3714,30,0,0.456,,,,,,190,0,190,0,1,,,,,
,,185028,001,2023-07-31_20h44.15.309,arm3_eps,2022.2.5,Win32,143.6575205,60832513ad492f85d73a0574,64c7fed44a04f777bb1e18ce,64c800dfd20cd1d2831d836e,right,-1,0.75,0.3714,30,-0.008044969,0.5503,,,,,,191,0,191,0,1,,,,,
,,185028,001,2023-07-31_20h44.15.309,arm3_eps,2022.2.5,Win32,143.6575205,60832513ad492f85d73a0574,64c7fed44a04f777bb1e18ce,64c800dfd20cd1d2831d836e,right,-1,0.75,0.3714,30,-0.012174458,0.2751,,,,,,192,0,192,0,1,,,,,
,,185028,001,2023-07-31_20h44.15.309,arm3_eps,2022.2.5,Win32,143.6575205,60832513ad492f85d73a0574,64c7fed44a04f777bb1e18ce,64c800dfd20cd1d2831d836e,right,-1,0.75,0.3714,30,-0.009978843,0.351,,,,,,193,0,193,0,1,,,,,
,,185028,001,2023-07-31_20h44.15.309,arm3_eps,2022.2.5,Win32,143.6575205,60832513ad492f85d73a0574,64c7fed44a04f777bb1e18ce,64c800dfd20cd1d2831d836e,down,-1,0.75,0.3714,31,0,0.4095,,,,,,194,0,194,0,1,,,,,
,,185028,001,2023-07-31_20h44.15.309,arm3_eps,2022.2.5,Win32,143.6575205,60832513ad492f85d73a0574,64c7fed44a04f777bb1e18ce,64c800dfd20cd1d2831d836e,right,-1,0.75,0.3714,31,0.027370837,0.4511,,,,,,195,0,195,0,1,,,,,
,,185028,001,2023-07-31_20h44.15.309,arm3_eps,2022.2.5,Win32,143.6575205,60832513ad492f85d73a0574,64c7fed44a04f777bb1e18ce,64c800dfd20cd1d2831d836e,right,-1,0.75,0.3714,31,0.009843974,0.3291,,,,,,196,0,196,0,1,,,,,
,,185028,001,2023-07-31_20h44.15.309,arm3_eps,2022.2.5,Win32,143.6575205,60832513ad492f85d73a0574,64c7fed44a04f777bb1e18ce,64c800dfd20cd1d2831d836e,up,-1,0.75,0.3714,30,0,0.7035,,,,,,197,0,197,0,1,,,,,
,,185028,001,2023-07-31_20h44.15.309,arm3_eps,2022.2.5,Win32,143.6575205,60832513ad492f85d73a0574,64c7fed44a04f777bb1e18ce,64c800dfd20cd1d2831d836e,right,-1,0.75,0.3714,30,-0.031656833,0.5492,,,,,,198,0,198,0,1,,,,,
,,185028,001,2023-07-31_20h44.15.309,arm3_eps,2022.2.5,Win32,143.6575205,60832513ad492f85d73a0574,64c7fed44a04f777bb1e18ce,64c800dfd20cd1d2831d836e,right,-1,0.75,0.3714,30,-0.052489192,0.2462,,,,,,199,0,199,0,1,,,,,
,,185028,001,2023-07-31_20h44.15.309,arm3_eps,2022.2.5,Win32,143.6575205,60832513ad492f85d73a0574,64c7fed44a04f777bb1e18ce,64c800dfd20cd1d2831d836e,down,1,0.75,0.3714,30,0,0.329,,,,,,200,0,200,0,1,,,,,
,,185028,001,2023-07-31_20h44.15.309,arm3_eps,2022.2.5,Win32,143.6575205,60832513ad492f85d73a0574,64c7fed44a04f777bb1e18ce,64c800dfd20cd1d2831d836e,right,1,0.75,0.3714,30,0.011209144,0.5263,,,,,,201,0,201,0,1,,,,,
,,185028,001,2023-07-31_20h44.15.309,arm3_eps,2022.2.5,Win32,143.6575205,60832513ad492f85d73a0574,64c7fed44a04f777bb1e18ce,64c800dfd20cd1d2831d836e,right,1,0.75,0.3714,30,-0.00139581,0.2384,,,,,,202,0,202,0,1,,,,,
,,185028,001,2023-07-31_20h44.15.309,arm3_eps,2022.2.5,Win32,143.6575205,60832513ad492f85d73a0574,64c7fed44a04f777bb1e18ce,64c800dfd20cd1d2831d836e,right,1,0.75,0.3714,30,0.019960907,0.4818,,,,,,203,0,203,0,1,,,,,
,,185028,001,2023-07-31_20h44.15.309,arm3_eps,2022.2.5,Win32,143.6575205,60832513ad492f85d73a0574,64c7fed44a04f777bb1e18ce,64c800dfd20cd1d2831d836e,up,-1,0.75,0.3714,31,0,0.3403,,,,,,204,0,204,0,1,,,,,
,,185028,001,2023-07-31_20h44.15.309,arm3_eps,2022.2.5,Win32,143.6575205,60832513ad492f85d73a0574,64c7fed44a04f777bb1e18ce,64c800dfd20cd1d2831d836e,right,-1,0.75,0.3714,31,-0.003063621,0.4825,,,,,,205,0,205,0,1,,,,,
,,185028,001,2023-07-31_20h44.15.309,arm3_eps,2022.2.5,Win32,143.6575205,60832513ad492f85d73a0574,64c7fed44a04f777bb1e18ce,64c800dfd20cd1d2831d836e,right,-1,0.75,0.3714,31,0.009907638,0.2258,,,,,,206,0,206,0,1,,,,,
,,185028,001,2023-07-31_20h44.15.309,arm3_eps,2022.2.5,Win32,143.6575205,60832513ad492f85d73a0574,64c7fed44a04f777bb1e18ce,64c800dfd20cd1d2831d836e,right,-1,0.75,0.3714,31,-0.002250504,0.2819,,,,,,207,0,207,0,1,,,,,
,,185028,001,2023-07-31_20h44.15.309,arm3_eps,2022.2.5,Win32,143.6575205,60832513ad492f85d73a0574,64c7fed44a04f777bb1e18ce,64c800dfd20cd1d2831d836e,right,-1,0.75,0.3714,31,-0.008772072,0.3952,,,,,,208,0,208,0,1,,,,,
,,185028,001,2023-07-31_20h44.15.309,arm3_eps,2022.2.5,Win32,143.6575205,60832513ad492f85d73a0574,64c7fed44a04f777bb1e18ce,64c800dfd20cd1d2831d836e,down,1,0.75,0.3714,32,0,0.7449,,,,,,209,0,209,0,1,,,,,
,,185028,001,2023-07-31_20h44.15.309,arm3_eps,2022.2.5,Win32,143.6575205,60832513ad492f85d73a0574,64c7fed44a04f777bb1e18ce,64c800dfd20cd1d2831d836e,right,1,0.75,0.3714,32,0.023427645,0.5012,,,,,,210,0,210,0,1,,,,,
,,185028,001,2023-07-31_20h44.15.309,arm3_eps,2022.2.5,Win32,143.6575205,60832513ad492f85d73a0574,64c7fed44a04f777bb1e18ce,64c800dfd20cd1d2831d836e,right,1,0.75,0.3714,32,0.07242489,0.2369,,,,,,211,0,211,0,1,,,,,
,,185028,001,2023-07-31_20h44.15.309,arm3_eps,2022.2.5,Win32,143.6575205,60832513ad492f85d73a0574,64c7fed44a04f777bb1e18ce,64c800dfd20cd1d2831d836e,up,-1,0.75,0.3714,33,0,0.4477,,,,,,212,0,212,0,1,,,,,
,,185028,001,2023-07-31_20h44.15.309,arm3_eps,2022.2.5,Win32,143.6575205,60832513ad492f85d73a0574,64c7fed44a04f777bb1e18ce,64c800dfd20cd1d2831d836e,right,-1,0.75,0.3714,33,-0.023121381,0.4429,,,,,,213,0,213,0,1,,,,,
,,185028,001,2023-07-31_20h44.15.309,arm3_eps,2022.2.5,Win32,143.6575205,60832513ad492f85d73a0574,64c7fed44a04f777bb1e18ce,64c800dfd20cd1d2831d836e,right,-1,0.75,0.3714,33,-0.040491912,0.212,,,,,,214,0,214,0,1,,,,,
,,185028,001,2023-07-31_20h44.15.309,arm3_eps,2022.2.5,Win32,143.6575205,60832513ad492f85d73a0574,64c7fed44a04f777bb1e18ce,64c800dfd20cd1d2831d836e,down,-1,0.75,0.3714,34,0,0.4849,,,,,,215,0,215,0,1,,,,,
,,185028,001,2023-07-31_20h44.15.309,arm3_eps,2022.2.5,Win32,143.6575205,60832513ad492f85d73a0574,64c7fed44a04f777bb1e18ce,64c800dfd20cd1d2831d836e,right,-1,0.75,0.3714,34,-0.022387319,0.5968,,,,,,216,0,216,0,1,,,,,
,,185028,001,2023-07-31_20h44.15.309,arm3_eps,2022.2.5,Win32,143.6575205,60832513ad492f85d73a0574,64c7fed44a04f777bb1e18ce,64c800dfd20cd1d2831d836e,right,-1,0.75,0.3714,34,-0.037593484,0.2084,,,,,,217,0,217,0,1,,,,,
,,185028,001,2023-07-31_20h44.15.309,arm3_eps,2022.2.5,Win32,143.6575205,60832513ad492f85d73a0574,64c7fed44a04f777bb1e18ce,64c800dfd20cd1d2831d836e,right,-1,0.75,0.3714,34,-0.066237218,0.2742,,,,,,218,0,218,0,1,,,,,
,,185028,001,2023-07-31_20h44.15.309,arm3_eps,2022.2.5,Win32,143.6575205,60832513ad492f85d73a0574,64c7fed44a04f777bb1e18ce,64c800dfd20cd1d2831d836e,down,-1,0.75,0.3714,35,0,0.2668,,,,,,219,0,219,0,1,,,,,
,,185028,001,2023-07-31_20h44.15.309,arm3_eps,2022.2.5,Win32,143.6575205,60832513ad492f85d73a0574,64c7fed44a04f777bb1e18ce,64c800dfd20cd1d2831d836e,right,-1,0.75,0.3714,35,-0.026931463,0.3897,,,,,,220,0,220,0,1,,,,,
,,185028,001,2023-07-31_20h44.15.309,arm3_eps,2022.2.5,Win32,143.6575205,60832513ad492f85d73a0574,64c7fed44a04f777bb1e18ce,64c800dfd20cd1d2831d836e,right,-1,0.75,0.3714,35,-0.034014635,0.3656,,,,,,221,0,221,0,1,,,,,
,,185028,001,2023-07-31_20h44.15.309,arm3_eps,2022.2.5,Win32,143.6575205,60832513ad492f85d73a0574,64c7fed44a04f777bb1e18ce,64c800dfd20cd1d2831d836e,down,-1,0.75,0.3714,36,0,0.5226,,,,,,222,0,222,0,1,,,,,
,,185028,001,2023-07-31_20h44.15.309,arm3_eps,2022.2.5,Win32,143.6575205,60832513ad492f85d73a0574,64c7fed44a04f777bb1e18ce,64c800dfd20cd1d2831d836e,right,-1,0.75,0.3714,36,0.018480313,0.4017,,,,,,223,0,223,0,1,,,,,
,,185028,001,2023-07-31_20h44.15.309,arm3_eps,2022.2.5,Win32,143.6575205,60832513ad492f85d73a0574,64c7fed44a04f777bb1e18ce,64c800dfd20cd1d2831d836e,right,-1,0.75,0.3714,36,-0.004393757,0.2346,,,,,,224,0,224,0,1,,,,,
,,185028,001,2023-07-31_20h44.15.309,arm3_eps,2022.2.5,Win32,143.6575205,60832513ad492f85d73a0574,64c7fed44a04f777bb1e18ce,64c800dfd20cd1d2831d836e,right,-1,0.75,0.3714,36,-0.019083528,0.3881,,,,,,225,0,225,0,1,,,,,
,,185028,001,2023-07-31_20h44.15.309,arm3_eps,2022.2.5,Win32,143.6575205,60832513ad492f85d73a0574,64c7fed44a04f777bb1e18ce,64c800dfd20cd1d2831d836e,down,-1,0.75,0.3714,37,0,0.3687,,,,,,226,0,226,0,1,,,,,
,,185028,001,2023-07-31_20h44.15.309,arm3_eps,2022.2.5,Win32,143.6575205,60832513ad492f85d73a0574,64c7fed44a04f777bb1e18ce,64c800dfd20cd1d2831d836e,right,-1,0.75,0.3714,37,-0.002707554,0.5136,,,,,,227,0,227,0,1,,,,,
,,185028,001,2023-07-31_20h44.15.309,arm3_eps,2022.2.5,Win32,143.6575205,60832513ad492f85d73a0574,64c7fed44a04f777bb1e18ce,64c800dfd20cd1d2831d836e,right,-1,0.75,0.3714,37,0.012600584,0.2029,,,,,,228,0,228,0,1,,,,,
,,185028,001,2023-07-31_20h44.15.309,arm3_eps,2022.2.5,Win32,143.6575205,60832513ad492f85d73a0574,64c7fed44a04f777bb1e18ce,64c800dfd20cd1d2831d836e,right,-1,0.75,0.3714,37,0.032025067,0.2901,,,,,,229,0,229,0,1,,,,,
,,185028,001,2023-07-31_20h44.15.309,arm3_eps,2022.2.5,Win32,143.6575205,60832513ad492f85d73a0574,64c7fed44a04f777bb1e18ce,64c800dfd20cd1d2831d836e,right,-1,0.75,0.3714,37,-0.01397812,0.5588,,,,,,230,0,230,0,1,,,,,
,,185028,001,2023-07-31_20h44.15.309,arm3_eps,2022.2.5,Win32,143.6575205,60832513ad492f85d73a0574,64c7fed44a04f777bb1e18ce,64c800dfd20cd1d2831d836e,up,1,0.75,0.3714,36,0,0.6937,,,,,,231,0,231,0,1,,,,,
,,185028,001,2023-07-31_20h44.15.309,arm3_eps,2022.2.5,Win32,143.6575205,60832513ad492f85d73a0574,64c7fed44a04f777bb1e18ce,64c800dfd20cd1d2831d836e,right,1,0.75,0.3714,36,0.027398432,0.5512,,,,,,232,0,232,0,1,,,,,
,,185028,001,2023-07-31_20h44.15.309,arm3_eps,2022.2.5,Win32,143.6575205,60832513ad492f85d73a0574,64c7fed44a04f777bb1e18ce,64c800dfd20cd1d2831d836e,right,1,0.75,0.3714,36,0.030747329,0.2141,,,,,,233,0,233,0,1,,,,,
,,185028,001,2023-07-31_20h44.15.309,arm3_eps,2022.2.5,Win32,143.6575205,60832513ad492f85d73a0574,64c7fed44a04f777bb1e18ce,64c800dfd20cd1d2831d836e,up,-1,0.75,0.3714,36,0,0.4114,,,,,,234,0,234,0,1,,,,,
,,185028,001,2023-07-31_20h44.15.309,arm3_eps,2022.2.5,Win32,143.6575205,60832513ad492f85d73a0574,64c7fed44a04f777bb1e18ce,64c800dfd20cd1d2831d836e,right,-1,0.75,0.3714,36,-0.011368933,0.5605,,,,,,235,0,235,0,1,,,,,
,,185028,001,2023-07-31_20h44.15.309,arm3_eps,2022.2.5,Win32,143.6575205,60832513ad492f85d73a0574,64c7fed44a04f777bb1e18ce,64c800dfd20cd1d2831d836e,right,-1,0.75,0.3714,36,-0.016630843,0.3686,,,,,,236,0,236,0,1,,,,,
,,185028,001,2023-07-31_20h44.15.309,arm3_eps,2022.2.5,Win32,143.6575205,60832513ad492f85d73a0574,64c7fed44a04f777bb1e18ce,64c800dfd20cd1d2831d836e,right,-1,0.75,0.3714,36,-0.048057021,0.1878,,,,,,237,0,237,0,1,,,,,
,,185028,001,2023-07-31_20h44.15.309,arm3_eps,2022.2.5,Win32,143.6575205,60832513ad492f85d73a0574,64c7fed44a04f777bb1e18ce,64c800dfd20cd1d2831d836e,down,-1,0.75,0.3714,37,0,0.3192,,,,,,238,0,238,0,1,,,,,
,,185028,001,2023-07-31_20h44.15.309,arm3_eps,2022.2.5,Win32,143.6575205,60832513ad492f85d73a0574,64c7fed44a04f777bb1e18ce,64c800dfd20cd1d2831d836e,right,-1,0.75,0.3714,37,0.018903394,0.4399,,,,,,239,0,239,0,1,,,,,
,,185028,001,2023-07-31_20h44.15.309,arm3_eps,2022.2.5,Win32,143.6575205,60832513ad492f85d73a0574,64c7fed44a04f777bb1e18ce,64c800dfd20cd1d2831d836e,right,-1,0.75,0.3714,37,0.007379054,0.1873,,,,,,240,0,240,0,1,,,,,
,,185028,001,2023-07-31_20h44.15.309,arm3_eps,2022.2.5,Win32,143.6575205,60832513ad492f85d73a0574,64c7fed44a04f777bb1e18ce,64c800dfd20cd1d2831d836e,right,-1,0.75,0.3714,37,0.000278944,0.3129,,,,,,241,0,241,0,1,,,,,
,,185028,001,2023-07-31_20h44.15.309,arm3_eps,2022.2.5,Win32,143.6575205,60832513ad492f85d73a0574,64c7fed44a04f777bb1e18ce,64c800dfd20cd1d2831d836e,right,-1,0.75,0.3714,37,0.003046773,0.4297,,,,,,242,0,242,0,1,,,,,
,,185028,001,2023-07-31_20h44.15.309,arm3_eps,2022.2.5,Win32,143.6575205,60832513ad492f85d73a0574,64c7fed44a04f777bb1e18ce,64c800dfd20cd1d2831d836e,down,1,0.75,0.3714,38,0,0.5386,,,,,,243,0,243,0,1,,,,,
,,185028,001,2023-07-31_20h44.15.309,arm3_eps,2022.2.5,Win32,143.6575205,60832513ad492f85d73a0574,64c7fed44a04f777bb1e18ce,64c800dfd20cd1d2831d836e,right,1,0.75,0.3714,38,0.001521178,0.5005,,,,,,244,0,244,0,1,,,,,
,,185028,001,2023-07-31_20h44.15.309,arm3_eps,2022.2.5,Win32,143.6575205,60832513ad492f85d73a0574,64c7fed44a04f777bb1e18ce,64c800dfd20cd1d2831d836e,right,1,0.75,0.3714,38,-0.009353148,0.2065,,,,,,245,0,245,0,1,,,,,
,,185028,001,2023-07-31_20h44.15.309,arm3_eps,2022.2.5,Win32,143.6575205,60832513ad492f85d73a0574,64c7fed44a04f777bb1e18ce,64c800dfd20cd1d2831d836e,up,1,0.75,0.3714,39,0,0.6527,,,,,,246,0,246,0,1,,,,,
,,185028,001,2023-07-31_20h44.15.309,arm3_eps,2022.2.5,Win32,143.6575205,60832513ad492f85d73a0574,64c7fed44a04f777bb1e18ce,64c800dfd20cd1d2831d836e,right,1,0.75,0.3714,39,-0.040184136,0.4306,,,,,,247,0,247,0,1,,,,,
,,185028,001,2023-07-31_20h44.15.309,arm3_eps,2022.2.5,Win32,143.6575205,60832513ad492f85d73a0574,64c7fed44a04f777bb1e18ce,64c800dfd20cd1d2831d836e,right,1,0.75,0.3714,39,-0.036749692,0.1878,,,,,,248,0,248,0,1,,,,,
,,185028,001,2023-07-31_20h44.15.309,arm3_eps,2022.2.5,Win32,143.6575205,60832513ad492f85d73a0574,64c7fed44a04f777bb1e18ce,64c800dfd20cd1d2831d836e,right,1,0.75,0.3714,39,-0.017441125,0.4244,,,,,,249,0,249,0,1,,,,,
,,185028,001,2023-07-31_20h44.15.309,arm3_eps,2022.2.5,Win32,143.6575205,60832513ad492f85d73a0574,64c7fed44a04f777bb1e18ce,64c800dfd20cd1d2831d836e,up,1,0.75,0.3714,39,0,0.53,,,,,,250,0,250,0,1,,,,,
,,185028,001,2023-07-31_20h44.15.309,arm3_eps,2022.2.5,Win32,143.6575205,60832513ad492f85d73a0574,64c7fed44a04f777bb1e18ce,64c800dfd20cd1d2831d836e,right,1,0.75,0.3714,39,0.011332045,0.4802,,,,,,251,0,251,0,1,,,,,
,,185028,001,2023-07-31_20h44.15.309,arm3_eps,2022.2.5,Win32,143.6575205,60832513ad492f85d73a0574,64c7fed44a04f777bb1e18ce,64c800dfd20cd1d2831d836e,right,1,0.75,0.3714,39,0.045194121,0.3345,,,,,,252,0,252,0,1,,,,,
,,185028,001,2023-07-31_20h44.15.309,arm3_eps,2022.2.5,Win32,143.6575205,60832513ad492f85d73a0574,64c7fed44a04f777bb1e18ce,64c800dfd20cd1d2831d836e,up,-1,0.75,0.3714,40,0,0.4021,,,,,,253,0,253,0,1,,,,,
,,185028,001,2023-07-31_20h44.15.309,arm3_eps,2022.2.5,Win32,143.6575205,60832513ad492f85d73a0574,64c7fed44a04f777bb1e18ce,64c800dfd20cd1d2831d836e,right,-1,0.75,0.3714,40,-0.004408374,0.401,,,,,,254,0,254,0,1,,,,,
,,185028,001,2023-07-31_20h44.15.309,arm3_eps,2022.2.5,Win32,143.6575205,60832513ad492f85d73a0574,64c7fed44a04f777bb1e18ce,64c800dfd20cd1d2831d836e,right,-1,0.75,0.3714,40,-0.020830124,0.2262,,,,,,255,0,255,0,1,,,,,
,,185028,001,2023-07-31_20h44.15.309,arm3_eps,2022.2.5,Win32,143.6575205,60832513ad492f85d73a0574,64c7fed44a04f777bb1e18ce,64c800dfd20cd1d2831d836e,down,-1,0.75,0.3714,41,0,0.4646,,,,,,256,0,256,0,1,,,,,
