space_bar.keys,space_bar.rt,participant,session,date,expName,psychopyVersion,OS,frameRate,PROLIFIC_PID,STUDY_ID,SESSION_ID,resp.keys,state,q_prob,eps_prob,score,price,resp.rt,train.thisRepN,train.thisTrialN,train.thisN,train.thisIndex,train.ran,steps.thisRepN,steps.thisTrialN,steps.thisN,steps.thisIndex,steps.ran,blocks.thisRepN,blocks.thisTrialN,blocks.thisN,blocks.thisIndex,blocks.ran
space,11.8726,213561,001,2023-07-31_20h46.06.560,arm3_eps,2022.2.5,Win32,60.27727547,60d4fbe3187fe07b082fdb6d,64c7fed44a04f777bb1e18ce,64c801620b2c1e175ee05aee,,,,,,,,,,,,,,,,,,,,,,
space,4.5882,213561,001,2023-07-31_20h46.06.560,arm3_eps,2022.2.5,Win32,60.27727547,60d4fbe3187fe07b082fdb6d,64c7fed44a04f777bb1e18ce,64c801620b2c1e175ee05aee,,,,,,,,,,,,,,,,,,,,,,
space,16.0463,213561,001,2023-07-31_20h46.06.560,arm3_eps,2022.2.5,Win32,60.27727547,60d4fbe3187fe07b082fdb6d,64c7fed44a04f777bb1e18ce,64c801620b2c1e175ee05aee,,,,,,,,,,,,,,,,,,,,,,
space,25.4567,213561,001,2023-07-31_20h46.06.560,arm3_eps,2022.2.5,Win32,60.27727547,60d4fbe3187fe07b082fdb6d,64c7fed44a04f777bb1e18ce,64c801620b2c1e175ee05aee,,,,,,,,,,,,,,,,,,,,,,
space,26.4823,213561,001,2023-07-31_20h46.06.560,arm3_eps,2022.2.5,Win32,60.27727547,60d4fbe3187fe07b082fdb6d,64c7fed44a04f777bb1e18ce,64c801620b2c1e175ee05aee,,,,,,,,,,,,,,,,,,,,,,
space,12.9951,213561,001,2023-07-31_20h46.06.560,arm3_eps,2022.2.5,Win32,60.27727547,60d4fbe3187fe07b082fdb6d,64c7fed44a04f777bb1e18ce,64c801620b2c1e175ee05aee,,,,,,,,,,,,,,,,,,,,,,
space,2.4193,213561,001,2023-07-31_20h46.06.560,arm3_eps,2022.2.5,Win32,60.27727547,60d4fbe3187fe07b082fdb6d,64c7fed44a04f777bb1e18ce,64c801620b2c1e175ee05aee,,,,,,,,,,,,,,,,,,,,,,
,,213561,001,2023-07-31_20h46.06.560,arm3_eps,2022.2.5,Win32,60.27727547,60d4fbe3187fe07b082fdb6d,64c7fed44a04f777bb1e18ce,64c801620b2c1e175ee05aee,up,1,1,0.2429,-1,0,8.6619,0,0,0,0,1,,,,,,,,,,
,,213561,001,2023-07-31_20h46.06.560,arm3_eps,2022.2.5,Win32,60.27727547,60d4fbe3187fe07b082fdb6d,64c7fed44a04f777bb1e18ce,64c801620b2c1e175ee05aee,down,1,1,0.2429,-2,0,2.5345,1,0,1,0,1,,,,,,,,,,
,,213561,001,2023-07-31_20h46.06.560,arm3_eps,2022.2.5,Win32,60.27727547,60d4fbe3187fe07b082fdb6d,64c7fed44a04f777bb1e18ce,64c801620b2c1e175ee05aee,right,1,1,0.2429,-2,0.008339293,10.0874,2,0,2,0,1,,,,,,,,,,
,,213561,001,2023-07-31_20h46.06.560,arm3_eps,2022.2.5,Win32,60.27727547,60d4fbe3187fe07b082fdb6d,64c7fed44a04f777bb1e18ce,64c801620b2c1e175ee05aee,right,1,1,0.2429,-2,0.011254348,1.4692,3,0,3,0,1,,,,,,,,,,
,,213561,001,2023-07-31_20h46.06.560,arm3_eps,2022.2.5,Win32,60.27727547,60d4fbe3187fe07b082fdb6d,64c7fed44a04f777bb1e18ce,64c801620b2c1e175ee05aee,right,1,1,0.2429,-2,-0.005065311,0.6346,4,0,4,0,1,,,,,,,,,,
,,213561,001,2023-07-31_20h46.06.560,arm3_eps,2022.2.5,Win32,60.27727547,60d4fbe3187fe07b082fdb6d,64c7fed44a04f777bb1e18ce,64c801620b2c1e175ee05aee,right,1,1,0.2429,-2,0.031557697,0.3673,5,0,5,0,1,,,,,,,,,,
,,213561,001,2023-07-31_20h46.06.560,arm3_eps,2022.2.5,Win32,60.27727547,60d4fbe3187fe07b082fdb6d,64c7fed44a04f777bb1e18ce,64c801620b2c1e175ee05aee,right,1,1,0.2429,-2,0.044373241,0.3507,6,0,6,0,1,,,,,,,,,,
,,213561,001,2023-07-31_20h46.06.560,arm3_eps,2022.2.5,Win32,60.27727547,60d4fbe3187fe07b082fdb6d,64c7fed44a04f777bb1e18ce,64c801620b2c1e175ee05aee,right,1,1,0.2429,-2,0.050675211,0.5676,7,0,7,0,1,,,,,,,,,,
,,213561,001,2023-07-31_20h46.06.560,arm3_eps,2022.2.5,Win32,60.27727547,60d4fbe3187fe07b082fdb6d,64c7fed44a04f777bb1e18ce,64c801620b2c1e175ee05aee,right,1,1,0.2429,-2,0.037251131,0.3174,8,0,8,0,1,,,,,,,,,,
,,213561,001,2023-07-31_20h46.06.560,arm3_eps,2022.2.5,Win32,60.27727547,60d4fbe3187fe07b082fdb6d,64c7fed44a04f777bb1e18ce,64c801620b2c1e175ee05aee,right,1,1,0.2429,-2,0.031599534,0.5678,9,0,9,0,1,,,,,,,,,,
,,213561,001,2023-07-31_20h46.06.560,arm3_eps,2022.2.5,Win32,60.27727547,60d4fbe3187fe07b082fdb6d,64c7fed44a04f777bb1e18ce,64c801620b2c1e175ee05aee,right,1,1,0.2429,-2,0.028862334,3.8871,10,0,10,0,1,,,,,,,,,,
,,213561,001,2023-07-31_20h46.06.560,arm3_eps,2022.2.5,Win32,60.27727547,60d4fbe3187fe07b082fdb6d,64c7fed44a04f777bb1e18ce,64c801620b2c1e175ee05aee,right,1,1,0.2429,-2,0.028737332,0.3514,11,0,11,0,1,,,,,,,,,,
,,213561,001,2023-07-31_20h46.06.560,arm3_eps,2022.2.5,Win32,60.27727547,60d4fbe3187fe07b082fdb6d,64c7fed44a04f777bb1e18ce,64c801620b2c1e175ee05aee,right,1,1,0.2429,-2,0.03667977,0.2673,12,0,12,0,1,,,,,,,,,,
,,213561,001,2023-07-31_20h46.06.560,arm3_eps,2022.2.5,Win32,60.27727547,60d4fbe3187fe07b082fdb6d,64c7fed44a04f777bb1e18ce,64c801620b2c1e175ee05aee,right,1,1,0.2429,-2,0.065958557,0.2675,13,0,13,0,1,,,,,,,,,,
,,213561,001,2023-07-31_20h46.06.560,arm3_eps,2022.2.5,Win32,60.27727547,60d4fbe3187fe07b082fdb6d,64c7fed44a04f777bb1e18ce,64c801620b2c1e175ee05aee,up,-1,1,0.2429,-1,0,13.2786,14,0,14,0,1,,,,,,,,,,
,,213561,001,2023-07-31_20h46.06.560,arm3_eps,2022.2.5,Win32,60.27727547,60d4fbe3187fe07b082fdb6d,64c7fed44a04f777bb1e18ce,64c801620b2c1e175ee05aee,right,-1,1,0.2429,-1,0.014258868,1.5809,15,0,15,0,1,,,,,,,,,,
,,213561,001,2023-07-31_20h46.06.560,arm3_eps,2022.2.5,Win32,60.27727547,60d4fbe3187fe07b082fdb6d,64c7fed44a04f777bb1e18ce,64c801620b2c1e175ee05aee,right,-1,1,0.2429,-1,-0.025020778,0.2509,16,0,16,0,1,,,,,,,,,,
,,213561,001,2023-07-31_20h46.06.560,arm3_eps,2022.2.5,Win32,60.27727547,60d4fbe3187fe07b082fdb6d,64c7fed44a04f777bb1e18ce,64c801620b2c1e175ee05aee,right,-1,1,0.2429,-1,-0.028224642,0.5003,17,0,17,0,1,,,,,,,,,,
,,213561,001,2023-07-31_20h46.06.560,arm3_eps,2022.2.5,Win32,60.27727547,60d4fbe3187fe07b082fdb6d,64c7fed44a04f777bb1e18ce,64c801620b2c1e175ee05aee,right,-1,1,0.2429,-1,-0.025320773,0.2253,18,0,18,0,1,,,,,,,,,,
,,213561,001,2023-07-31_20h46.06.560,arm3_eps,2022.2.5,Win32,60.27727547,60d4fbe3187fe07b082fdb6d,64c7fed44a04f777bb1e18ce,64c801620b2c1e175ee05aee,right,-1,1,0.2429,-1,-0.025473804,0.3013,19,0,19,0,1,,,,,,,,,,
,,213561,001,2023-07-31_20h46.06.560,arm3_eps,2022.2.5,Win32,60.27727547,60d4fbe3187fe07b082fdb6d,64c7fed44a04f777bb1e18ce,64c801620b2c1e175ee05aee,right,-1,1,0.2429,-1,-0.060229782,0.2009,20,0,20,0,1,,,,,,,,,,
,,213561,001,2023-07-31_20h46.06.560,arm3_eps,2022.2.5,Win32,60.27727547,60d4fbe3187fe07b082fdb6d,64c7fed44a04f777bb1e18ce,64c801620b2c1e175ee05aee,right,-1,1,0.2429,-1,-0.075659189,0.2841,21,0,21,0,1,,,,,,,,,,
,,213561,001,2023-07-31_20h46.06.560,arm3_eps,2022.2.5,Win32,60.27727547,60d4fbe3187fe07b082fdb6d,64c7fed44a04f777bb1e18ce,64c801620b2c1e175ee05aee,right,-1,1,0.2429,-1,-0.05934123,0.2174,22,0,22,0,1,,,,,,,,,,
,,213561,001,2023-07-31_20h46.06.560,arm3_eps,2022.2.5,Win32,60.27727547,60d4fbe3187fe07b082fdb6d,64c7fed44a04f777bb1e18ce,64c801620b2c1e175ee05aee,right,-1,1,0.2429,-1,-0.077410673,0.251,23,0,23,0,1,,,,,,,,,,
,,213561,001,2023-07-31_20h46.06.560,arm3_eps,2022.2.5,Win32,60.27727547,60d4fbe3187fe07b082fdb6d,64c7fed44a04f777bb1e18ce,64c801620b2c1e175ee05aee,right,-1,1,0.2429,-1,-0.101544461,0.2508,24,0,24,0,1,,,,,,,,,,
,,213561,001,2023-07-31_20h46.06.560,arm3_eps,2022.2.5,Win32,60.27727547,60d4fbe3187fe07b082fdb6d,64c7fed44a04f777bb1e18ce,64c801620b2c1e175ee05aee,right,-1,1,0.2429,-1,-0.1244919,0.1508,25,0,25,0,1,,,,,,,,,,
,,213561,001,2023-07-31_20h46.06.560,arm3_eps,2022.2.5,Win32,60.27727547,60d4fbe3187fe07b082fdb6d,64c7fed44a04f777bb1e18ce,64c801620b2c1e175ee05aee,right,-1,1,0.2429,-1,-0.120939417,0.2167,26,0,26,0,1,,,,,,,,,,
,,213561,001,2023-07-31_20h46.06.560,arm3_eps,2022.2.5,Win32,60.27727547,60d4fbe3187fe07b082fdb6d,64c7fed44a04f777bb1e18ce,64c801620b2c1e175ee05aee,down,1,1,0.2429,0,0,5.8389,27,0,27,0,1,,,,,,,,,,
,,213561,001,2023-07-31_20h46.06.560,arm3_eps,2022.2.5,Win32,60.27727547,60d4fbe3187fe07b082fdb6d,64c7fed44a04f777bb1e18ce,64c801620b2c1e175ee05aee,right,1,1,0.2429,0,-0.011637831,1.1338,28,0,28,0,1,,,,,,,,,,
,,213561,001,2023-07-31_20h46.06.560,arm3_eps,2022.2.5,Win32,60.27727547,60d4fbe3187fe07b082fdb6d,64c7fed44a04f777bb1e18ce,64c801620b2c1e175ee05aee,right,1,1,0.2429,0,0.00714559,0.5511,29,0,29,0,1,,,,,,,,,,
,,213561,001,2023-07-31_20h46.06.560,arm3_eps,2022.2.5,Win32,60.27727547,60d4fbe3187fe07b082fdb6d,64c7fed44a04f777bb1e18ce,64c801620b2c1e175ee05aee,right,1,1,0.2429,0,0.028404009,0.5677,30,0,30,0,1,,,,,,,,,,
,,213561,001,2023-07-31_20h46.06.560,arm3_eps,2022.2.5,Win32,60.27727547,60d4fbe3187fe07b082fdb6d,64c7fed44a04f777bb1e18ce,64c801620b2c1e175ee05aee,right,1,1,0.2429,0,0.036161745,0.2173,31,0,31,0,1,,,,,,,,,,
,,213561,001,2023-07-31_20h46.06.560,arm3_eps,2022.2.5,Win32,60.27727547,60d4fbe3187fe07b082fdb6d,64c7fed44a04f777bb1e18ce,64c801620b2c1e175ee05aee,right,1,1,0.2429,0,0.044665378,0.2175,32,0,32,0,1,,,,,,,,,,
,,213561,001,2023-07-31_20h46.06.560,arm3_eps,2022.2.5,Win32,60.27727547,60d4fbe3187fe07b082fdb6d,64c7fed44a04f777bb1e18ce,64c801620b2c1e175ee05aee,right,1,1,0.2429,0,0.066234002,0.3837,33,0,33,0,1,,,,,,,,,,
,,213561,001,2023-07-31_20h46.06.560,arm3_eps,2022.2.5,Win32,60.27727547,60d4fbe3187fe07b082fdb6d,64c7fed44a04f777bb1e18ce,64c801620b2c1e175ee05aee,right,1,1,0.2429,0,0.082141256,0.4447,34,0,34,0,1,,,,,,,,,,
,,213561,001,2023-07-31_20h46.06.560,arm3_eps,2022.2.5,Win32,60.27727547,60d4fbe3187fe07b082fdb6d,64c7fed44a04f777bb1e18ce,64c801620b2c1e175ee05aee,right,1,1,0.2429,0,0.061003227,0.2174,35,0,35,0,1,,,,,,,,,,
,,213561,001,2023-07-31_20h46.06.560,arm3_eps,2022.2.5,Win32,60.27727547,60d4fbe3187fe07b082fdb6d,64c7fed44a04f777bb1e18ce,64c801620b2c1e175ee05aee,right,1,1,0.2429,0,0.057574088,0.2172,36,0,36,0,1,,,,,,,,,,
,,213561,001,2023-07-31_20h46.06.560,arm3_eps,2022.2.5,Win32,60.27727547,60d4fbe3187fe07b082fdb6d,64c7fed44a04f777bb1e18ce,64c801620b2c1e175ee05aee,right,1,1,0.2429,0,0.104171289,0.2005,37,0,37,0,1,,,,,,,,,,
,,213561,001,2023-07-31_20h46.06.560,arm3_eps,2022.2.5,Win32,60.27727547,60d4fbe3187fe07b082fdb6d,64c7fed44a04f777bb1e18ce,64c801620b2c1e175ee05aee,right,1,1,0.2429,0,0.118476534,0.234,38,0,38,0,1,,,,,,,,,,
,,213561,001,2023-07-31_20h46.06.560,arm3_eps,2022.2.5,Win32,60.27727547,60d4fbe3187fe07b082fdb6d,64c7fed44a04f777bb1e18ce,64c801620b2c1e175ee05aee,right,1,1,0.2429,0,0.150143552,0.1838,39,0,39,0,1,,,,,,,,,,
,,213561,001,2023-07-31_20h46.06.560,arm3_eps,2022.2.5,Win32,60.27727547,60d4fbe3187fe07b082fdb6d,64c7fed44a04f777bb1e18ce,64c801620b2c1e175ee05aee,up,-1,1,0.2429,1,0,1.7179,40,0,40,0,1,,,,,,,,,,
,,213561,001,2023-07-31_20h46.06.560,arm3_eps,2022.2.5,Win32,60.27727547,60d4fbe3187fe07b082fdb6d,64c7fed44a04f777bb1e18ce,64c801620b2c1e175ee05aee,right,-1,1,0.2429,1,0.018031715,0.7855,41,0,41,0,1,,,,,,,,,,
,,213561,001,2023-07-31_20h46.06.560,arm3_eps,2022.2.5,Win32,60.27727547,60d4fbe3187fe07b082fdb6d,64c7fed44a04f777bb1e18ce,64c801620b2c1e175ee05aee,right,-1,1,0.2429,1,0.0125196,0.2506,42,0,42,0,1,,,,,,,,,,
,,213561,001,2023-07-31_20h46.06.560,arm3_eps,2022.2.5,Win32,60.27727547,60d4fbe3187fe07b082fdb6d,64c7fed44a04f777bb1e18ce,64c801620b2c1e175ee05aee,right,-1,1,0.2429,1,0.016344199,0.1841,43,0,43,0,1,,,,,,,,,,
,,213561,001,2023-07-31_20h46.06.560,arm3_eps,2022.2.5,Win32,60.27727547,60d4fbe3187fe07b082fdb6d,64c7fed44a04f777bb1e18ce,64c801620b2c1e175ee05aee,right,-1,1,0.2429,1,-0.003944056,0.4034,44,0,44,0,1,,,,,,,,,,
,,213561,001,2023-07-31_20h46.06.560,arm3_eps,2022.2.5,Win32,60.27727547,60d4fbe3187fe07b082fdb6d,64c7fed44a04f777bb1e18ce,64c801620b2c1e175ee05aee,right,-1,1,0.2429,1,-0.019013981,0.1674,45,0,45,0,1,,,,,,,,,,
,,213561,001,2023-07-31_20h46.06.560,arm3_eps,2022.2.5,Win32,60.27727547,60d4fbe3187fe07b082fdb6d,64c7fed44a04f777bb1e18ce,64c801620b2c1e175ee05aee,right,-1,1,0.2429,1,-0.040848101,0.1172,46,0,46,0,1,,,,,,,,,,
,,213561,001,2023-07-31_20h46.06.560,arm3_eps,2022.2.5,Win32,60.27727547,60d4fbe3187fe07b082fdb6d,64c7fed44a04f777bb1e18ce,64c801620b2c1e175ee05aee,right,-1,1,0.2429,1,-0.04813977,0.2343,47,0,47,0,1,,,,,,,,,,
,,213561,001,2023-07-31_20h46.06.560,arm3_eps,2022.2.5,Win32,60.27727547,60d4fbe3187fe07b082fdb6d,64c7fed44a04f777bb1e18ce,64c801620b2c1e175ee05aee,right,-1,1,0.2429,1,-0.075651272,0.2175,48,0,48,0,1,,,,,,,,,,
,,213561,001,2023-07-31_20h46.06.560,arm3_eps,2022.2.5,Win32,60.27727547,60d4fbe3187fe07b082fdb6d,64c7fed44a04f777bb1e18ce,64c801620b2c1e175ee05aee,right,-1,1,0.2429,1,-0.050884856,0.134,49,0,49,0,1,,,,,,,,,,
space,22.7355,213561,001,2023-07-31_20h46.06.560,arm3_eps,2022.2.5,Win32,60.27727547,60d4fbe3187fe07b082fdb6d,64c7fed44a04f777bb1e18ce,64c801620b2c1e175ee05aee,,,,,,,,,,,,,,,,,,,,,,
space,4.0795,213561,001,2023-07-31_20h46.06.560,arm3_eps,2022.2.5,Win32,60.27727547,60d4fbe3187fe07b082fdb6d,64c7fed44a04f777bb1e18ce,64c801620b2c1e175ee05aee,,,,,,,,,,,,,,,,,,,,,,
space,15.8308,213561,001,2023-07-31_20h46.06.560,arm3_eps,2022.2.5,Win32,60.27727547,60d4fbe3187fe07b082fdb6d,64c7fed44a04f777bb1e18ce,64c801620b2c1e175ee05aee,,,,,,,,,,,,,,,,,,,,,,
space,10.1735,213561,001,2023-07-31_20h46.06.560,arm3_eps,2022.2.5,Win32,60.27727547,60d4fbe3187fe07b082fdb6d,64c7fed44a04f777bb1e18ce,64c801620b2c1e175ee05aee,,,,,,,,,,,,,,,,,,,,,,
space,3.1529,213561,001,2023-07-31_20h46.06.560,arm3_eps,2022.2.5,Win32,60.27727547,60d4fbe3187fe07b082fdb6d,64c7fed44a04f777bb1e18ce,64c801620b2c1e175ee05aee,,,,,,,,,,,,,,,,,,,,,,
space,1.8194,213561,001,2023-07-31_20h46.06.560,arm3_eps,2022.2.5,Win32,60.27727547,60d4fbe3187fe07b082fdb6d,64c7fed44a04f777bb1e18ce,64c801620b2c1e175ee05aee,,,,,,,,,,,,,,,,,,,,,,
,,213561,001,2023-07-31_20h46.06.560,arm3_eps,2022.2.5,Win32,60.27727547,60d4fbe3187fe07b082fdb6d,64c7fed44a04f777bb1e18ce,64c801620b2c1e175ee05aee,right,-1,0.75,0.2429,0,-0.017245394,6.9236,0,0,0,0,1,,,,,,,,,,
,,213561,001,2023-07-31_20h46.06.560,arm3_eps,2022.2.5,Win32,60.27727547,60d4fbe3187fe07b082fdb6d,64c7fed44a04f777bb1e18ce,64c801620b2c1e175ee05aee,right,-1,0.75,0.2429,0,-0.007801044,0.6006,1,0,1,0,1,,,,,,,,,,
,,213561,001,2023-07-31_20h46.06.560,arm3_eps,2022.2.5,Win32,60.27727547,60d4fbe3187fe07b082fdb6d,64c7fed44a04f777bb1e18ce,64c801620b2c1e175ee05aee,right,-1,0.75,0.2429,0,0.010685811,1.2681,2,0,2,0,1,,,,,,,,,,
,,213561,001,2023-07-31_20h46.06.560,arm3_eps,2022.2.5,Win32,60.27727547,60d4fbe3187fe07b082fdb6d,64c7fed44a04f777bb1e18ce,64c801620b2c1e175ee05aee,right,-1,0.75,0.2429,0,0.013206046,0.8846,3,0,3,0,1,,,,,,,,,,
,,213561,001,2023-07-31_20h46.06.560,arm3_eps,2022.2.5,Win32,60.27727547,60d4fbe3187fe07b082fdb6d,64c7fed44a04f777bb1e18ce,64c801620b2c1e175ee05aee,right,-1,0.75,0.2429,0,0.00757431,0.5511,4,0,4,0,1,,,,,,,,,,
,,213561,001,2023-07-31_20h46.06.560,arm3_eps,2022.2.5,Win32,60.27727547,60d4fbe3187fe07b082fdb6d,64c7fed44a04f777bb1e18ce,64c801620b2c1e175ee05aee,right,-1,0.75,0.2429,0,0.013737004,0.8178,5,0,5,0,1,,,,,,,,,,
,,213561,001,2023-07-31_20h46.06.560,arm3_eps,2022.2.5,Win32,60.27727547,60d4fbe3187fe07b082fdb6d,64c7fed44a04f777bb1e18ce,64c801620b2c1e175ee05aee,right,-1,0.75,0.2429,0,0.030791079,0.7512,6,0,6,0,1,,,,,,,,,,
,,213561,001,2023-07-31_20h46.06.560,arm3_eps,2022.2.5,Win32,60.27727547,60d4fbe3187fe07b082fdb6d,64c7fed44a04f777bb1e18ce,64c801620b2c1e175ee05aee,down,-1,0.75,0.2429,1,0,1.702,7,0,7,0,1,,,,,,,,,,
,,213561,001,2023-07-31_20h46.06.560,arm3_eps,2022.2.5,Win32,60.27727547,60d4fbe3187fe07b082fdb6d,64c7fed44a04f777bb1e18ce,64c801620b2c1e175ee05aee,right,-1,0.75,0.2429,1,-0.005162739,2.0695,8,0,8,0,1,,,,,,,,,,
,,213561,001,2023-07-31_20h46.06.560,arm3_eps,2022.2.5,Win32,60.27727547,60d4fbe3187fe07b082fdb6d,64c7fed44a04f777bb1e18ce,64c801620b2c1e175ee05aee,right,-1,0.75,0.2429,1,-0.006527292,0.461,9,0,9,0,1,,,,,,,,,,
,,213561,001,2023-07-31_20h46.06.560,arm3_eps,2022.2.5,Win32,60.27727547,60d4fbe3187fe07b082fdb6d,64c7fed44a04f777bb1e18ce,64c801620b2c1e175ee05aee,right,-1,0.75,0.2429,1,-0.025111116,1.0013,10,0,10,0,1,,,,,,,,,,
,,213561,001,2023-07-31_20h46.06.560,arm3_eps,2022.2.5,Win32,60.27727547,60d4fbe3187fe07b082fdb6d,64c7fed44a04f777bb1e18ce,64c801620b2c1e175ee05aee,right,-1,0.75,0.2429,1,-0.04142237,0.7178,11,0,11,0,1,,,,,,,,,,
,,213561,001,2023-07-31_20h46.06.560,arm3_eps,2022.2.5,Win32,60.27727547,60d4fbe3187fe07b082fdb6d,64c7fed44a04f777bb1e18ce,64c801620b2c1e175ee05aee,right,-1,0.75,0.2429,1,-0.064146024,0.4679,12,0,12,0,1,,,,,,,,,,
,,213561,001,2023-07-31_20h46.06.560,arm3_eps,2022.2.5,Win32,60.27727547,60d4fbe3187fe07b082fdb6d,64c7fed44a04f777bb1e18ce,64c801620b2c1e175ee05aee,right,-1,0.75,0.2429,1,-0.063521827,0.5679,13,0,13,0,1,,,,,,,,,,
,,213561,001,2023-07-31_20h46.06.560,arm3_eps,2022.2.5,Win32,60.27727547,60d4fbe3187fe07b082fdb6d,64c7fed44a04f777bb1e18ce,64c801620b2c1e175ee05aee,right,-1,0.75,0.2429,1,-0.069781644,0.4678,14,0,14,0,1,,,,,,,,,,
,,213561,001,2023-07-31_20h46.06.560,arm3_eps,2022.2.5,Win32,60.27727547,60d4fbe3187fe07b082fdb6d,64c7fed44a04f777bb1e18ce,64c801620b2c1e175ee05aee,right,-1,0.75,0.2429,1,-0.074459062,0.8511,15,0,15,0,1,,,,,,,,,,
,,213561,001,2023-07-31_20h46.06.560,arm3_eps,2022.2.5,Win32,60.27727547,60d4fbe3187fe07b082fdb6d,64c7fed44a04f777bb1e18ce,64c801620b2c1e175ee05aee,right,-1,0.75,0.2429,1,-0.079924192,0.551,16,0,16,0,1,,,,,,,,,,
,,213561,001,2023-07-31_20h46.06.560,arm3_eps,2022.2.5,Win32,60.27727547,60d4fbe3187fe07b082fdb6d,64c7fed44a04f777bb1e18ce,64c801620b2c1e175ee05aee,down,-1,0.75,0.2429,2,0,0.8681,17,0,17,0,1,,,,,,,,,,
,,213561,001,2023-07-31_20h46.06.560,arm3_eps,2022.2.5,Win32,60.27727547,60d4fbe3187fe07b082fdb6d,64c7fed44a04f777bb1e18ce,64c801620b2c1e175ee05aee,right,-1,0.75,0.2429,2,0.003435256,1.0018,18,0,18,0,1,,,,,,,,,,
,,213561,001,2023-07-31_20h46.06.560,arm3_eps,2022.2.5,Win32,60.27727547,60d4fbe3187fe07b082fdb6d,64c7fed44a04f777bb1e18ce,64c801620b2c1e175ee05aee,right,-1,0.75,0.2429,2,0.000841582,0.3674,19,0,19,0,1,,,,,,,,,,
,,213561,001,2023-07-31_20h46.06.560,arm3_eps,2022.2.5,Win32,60.27727547,60d4fbe3187fe07b082fdb6d,64c7fed44a04f777bb1e18ce,64c801620b2c1e175ee05aee,right,-1,0.75,0.2429,2,-0.010880841,0.7178,20,0,20,0,1,,,,,,,,,,
,,213561,001,2023-07-31_20h46.06.560,arm3_eps,2022.2.5,Win32,60.27727547,60d4fbe3187fe07b082fdb6d,64c7fed44a04f777bb1e18ce,64c801620b2c1e175ee05aee,right,-1,0.75,0.2429,2,-0.008149298,0.4677,21,0,21,0,1,,,,,,,,,,
,,213561,001,2023-07-31_20h46.06.560,arm3_eps,2022.2.5,Win32,60.27727547,60d4fbe3187fe07b082fdb6d,64c7fed44a04f777bb1e18ce,64c801620b2c1e175ee05aee,right,-1,0.75,0.2429,2,-0.011306779,0.5675,22,0,22,0,1,,,,,,,,,,
,,213561,001,2023-07-31_20h46.06.560,arm3_eps,2022.2.5,Win32,60.27727547,60d4fbe3187fe07b082fdb6d,64c7fed44a04f777bb1e18ce,64c801620b2c1e175ee05aee,right,-1,0.75,0.2429,2,-0.024062044,0.5176,23,0,23,0,1,,,,,,,,,,
,,213561,001,2023-07-31_20h46.06.560,arm3_eps,2022.2.5,Win32,60.27727547,60d4fbe3187fe07b082fdb6d,64c7fed44a04f777bb1e18ce,64c801620b2c1e175ee05aee,right,-1,0.75,0.2429,2,-0.045568885,0.4843,24,0,24,0,1,,,,,,,,,,
,,213561,001,2023-07-31_20h46.06.560,arm3_eps,2022.2.5,Win32,60.27727547,60d4fbe3187fe07b082fdb6d,64c7fed44a04f777bb1e18ce,64c801620b2c1e175ee05aee,right,-1,0.75,0.2429,2,-0.080429716,1.427,25,0,25,0,1,,,,,,,,,,
,,213561,001,2023-07-31_20h46.06.560,arm3_eps,2022.2.5,Win32,60.27727547,60d4fbe3187fe07b082fdb6d,64c7fed44a04f777bb1e18ce,64c801620b2c1e175ee05aee,right,-1,0.75,0.2429,2,-0.088027743,0.5508,26,0,26,0,1,,,,,,,,,,
,,213561,001,2023-07-31_20h46.06.560,arm3_eps,2022.2.5,Win32,60.27727547,60d4fbe3187fe07b082fdb6d,64c7fed44a04f777bb1e18ce,64c801620b2c1e175ee05aee,right,-1,0.75,0.2429,2,-0.083969183,0.5341,27,0,27,0,1,,,,,,,,,,
,,213561,001,2023-07-31_20h46.06.560,arm3_eps,2022.2.5,Win32,60.27727547,60d4fbe3187fe07b082fdb6d,64c7fed44a04f777bb1e18ce,64c801620b2c1e175ee05aee,right,-1,0.75,0.2429,2,-0.067694044,0.5676,28,0,28,0,1,,,,,,,,,,
,,213561,001,2023-07-31_20h46.06.560,arm3_eps,2022.2.5,Win32,60.27727547,60d4fbe3187fe07b082fdb6d,64c7fed44a04f777bb1e18ce,64c801620b2c1e175ee05aee,down,1,0.75,0.2429,3,0,0.9511,29,0,29,0,1,,,,,,,,,,
,,213561,001,2023-07-31_20h46.06.560,arm3_eps,2022.2.5,Win32,60.27727547,60d4fbe3187fe07b082fdb6d,64c7fed44a04f777bb1e18ce,64c801620b2c1e175ee05aee,right,1,0.75,0.2429,3,0.007241854,1.3853,30,0,30,0,1,,,,,,,,,,
,,213561,001,2023-07-31_20h46.06.560,arm3_eps,2022.2.5,Win32,60.27727547,60d4fbe3187fe07b082fdb6d,64c7fed44a04f777bb1e18ce,64c801620b2c1e175ee05aee,right,1,0.75,0.2429,3,0.025530476,0.4175,31,0,31,0,1,,,,,,,,,,
,,213561,001,2023-07-31_20h46.06.560,arm3_eps,2022.2.5,Win32,60.27727547,60d4fbe3187fe07b082fdb6d,64c7fed44a04f777bb1e18ce,64c801620b2c1e175ee05aee,right,1,0.75,0.2429,3,0.03725904,0.4009,32,0,32,0,1,,,,,,,,,,
,,213561,001,2023-07-31_20h46.06.560,arm3_eps,2022.2.5,Win32,60.27727547,60d4fbe3187fe07b082fdb6d,64c7fed44a04f777bb1e18ce,64c801620b2c1e175ee05aee,right,1,0.75,0.2429,3,0.053518613,1.0427,33,0,33,0,1,,,,,,,,,,
,,213561,001,2023-07-31_20h46.06.560,arm3_eps,2022.2.5,Win32,60.27727547,60d4fbe3187fe07b082fdb6d,64c7fed44a04f777bb1e18ce,64c801620b2c1e175ee05aee,right,1,0.75,0.2429,3,0.07765501,0.4342,34,0,34,0,1,,,,,,,,,,
,,213561,001,2023-07-31_20h46.06.560,arm3_eps,2022.2.5,Win32,60.27727547,60d4fbe3187fe07b082fdb6d,64c7fed44a04f777bb1e18ce,64c801620b2c1e175ee05aee,right,1,0.75,0.2429,3,0.067030836,0.4257,35,0,35,0,1,,,,,,,,,,
,,213561,001,2023-07-31_20h46.06.560,arm3_eps,2022.2.5,Win32,60.27727547,60d4fbe3187fe07b082fdb6d,64c7fed44a04f777bb1e18ce,64c801620b2c1e175ee05aee,right,1,0.75,0.2429,3,0.074764175,0.435,36,0,36,0,1,,,,,,,,,,
,,213561,001,2023-07-31_20h46.06.560,arm3_eps,2022.2.5,Win32,60.27727547,60d4fbe3187fe07b082fdb6d,64c7fed44a04f777bb1e18ce,64c801620b2c1e175ee05aee,right,1,0.75,0.2429,3,0.068733197,1.3185,37,0,37,0,1,,,,,,,,,,
,,213561,001,2023-07-31_20h46.06.560,arm3_eps,2022.2.5,Win32,60.27727547,60d4fbe3187fe07b082fdb6d,64c7fed44a04f777bb1e18ce,64c801620b2c1e175ee05aee,up,1,0.75,0.2429,3,0,1.0515,38,0,38,0,1,,,,,,,,,,
,,213561,001,2023-07-31_20h46.06.560,arm3_eps,2022.2.5,Win32,60.27727547,60d4fbe3187fe07b082fdb6d,64c7fed44a04f777bb1e18ce,64c801620b2c1e175ee05aee,right,1,0.75,0.2429,3,0.033595741,1.3519,39,0,39,0,1,,,,,,,,,,
,,213561,001,2023-07-31_20h46.06.560,arm3_eps,2022.2.5,Win32,60.27727547,60d4fbe3187fe07b082fdb6d,64c7fed44a04f777bb1e18ce,64c801620b2c1e175ee05aee,right,1,0.75,0.2429,3,0.058511272,0.2007,40,0,40,0,1,,,,,,,,,,
,,213561,001,2023-07-31_20h46.06.560,arm3_eps,2022.2.5,Win32,60.27727547,60d4fbe3187fe07b082fdb6d,64c7fed44a04f777bb1e18ce,64c801620b2c1e175ee05aee,right,1,0.75,0.2429,3,0.059793544,0.1166,41,0,41,0,1,,,,,,,,,,
,,213561,001,2023-07-31_20h46.06.560,arm3_eps,2022.2.5,Win32,60.27727547,60d4fbe3187fe07b082fdb6d,64c7fed44a04f777bb1e18ce,64c801620b2c1e175ee05aee,right,1,0.75,0.2429,3,0.070387277,0.6673,42,0,42,0,1,,,,,,,,,,
,,213561,001,2023-07-31_20h46.06.560,arm3_eps,2022.2.5,Win32,60.27727547,60d4fbe3187fe07b082fdb6d,64c7fed44a04f777bb1e18ce,64c801620b2c1e175ee05aee,up,1,0.75,0.2429,3,0,1.1103,43,0,43,0,1,,,,,,,,,,
,,213561,001,2023-07-31_20h46.06.560,arm3_eps,2022.2.5,Win32,60.27727547,60d4fbe3187fe07b082fdb6d,64c7fed44a04f777bb1e18ce,64c801620b2c1e175ee05aee,up,1,0.75,0.2429,4,0,2.2526,44,0,44,0,1,,,,,,,,,,
,,213561,001,2023-07-31_20h46.06.560,arm3_eps,2022.2.5,Win32,60.27727547,60d4fbe3187fe07b082fdb6d,64c7fed44a04f777bb1e18ce,64c801620b2c1e175ee05aee,right,1,0.75,0.2429,4,0.00245025,3.17,45,0,45,0,1,,,,,,,,,,
,,213561,001,2023-07-31_20h46.06.560,arm3_eps,2022.2.5,Win32,60.27727547,60d4fbe3187fe07b082fdb6d,64c7fed44a04f777bb1e18ce,64c801620b2c1e175ee05aee,right,1,0.75,0.2429,4,0.017255096,0.5847,46,0,46,0,1,,,,,,,,,,
,,213561,001,2023-07-31_20h46.06.560,arm3_eps,2022.2.5,Win32,60.27727547,60d4fbe3187fe07b082fdb6d,64c7fed44a04f777bb1e18ce,64c801620b2c1e175ee05aee,right,1,0.75,0.2429,4,0.029782497,0.6676,47,0,47,0,1,,,,,,,,,,
,,213561,001,2023-07-31_20h46.06.560,arm3_eps,2022.2.5,Win32,60.27727547,60d4fbe3187fe07b082fdb6d,64c7fed44a04f777bb1e18ce,64c801620b2c1e175ee05aee,right,1,0.75,0.2429,4,0.039147354,0.6233,48,0,48,0,1,,,,,,,,,,
,,213561,001,2023-07-31_20h46.06.560,arm3_eps,2022.2.5,Win32,60.27727547,60d4fbe3187fe07b082fdb6d,64c7fed44a04f777bb1e18ce,64c801620b2c1e175ee05aee,right,1,0.75,0.2429,4,0.062505116,0.8845,49,0,49,0,1,,,,,,,,,,
space,7.7946,213561,001,2023-07-31_20h46.06.560,arm3_eps,2022.2.5,Win32,60.27727547,60d4fbe3187fe07b082fdb6d,64c7fed44a04f777bb1e18ce,64c801620b2c1e175ee05aee,,,,,,,,,,,,,,,,,,,,,,
space,7.3564,213561,001,2023-07-31_20h46.06.560,arm3_eps,2022.2.5,Win32,60.27727547,60d4fbe3187fe07b082fdb6d,64c7fed44a04f777bb1e18ce,64c801620b2c1e175ee05aee,,,,,,,,,,,,,,,,,,,,,,
space,1.2726,213561,001,2023-07-31_20h46.06.560,arm3_eps,2022.2.5,Win32,60.27727547,60d4fbe3187fe07b082fdb6d,64c7fed44a04f777bb1e18ce,64c801620b2c1e175ee05aee,,,,,,,,,,,,,,,,,,,,,,
,,213561,001,2023-07-31_20h46.06.560,arm3_eps,2022.2.5,Win32,60.27727547,60d4fbe3187fe07b082fdb6d,64c7fed44a04f777bb1e18ce,64c801620b2c1e175ee05aee,right,1,0.75,0.05,0,0.012957046,2.3938,0,0,0,0,1,,,,,,,,,,
,,213561,001,2023-07-31_20h46.06.560,arm3_eps,2022.2.5,Win32,60.27727547,60d4fbe3187fe07b082fdb6d,64c7fed44a04f777bb1e18ce,64c801620b2c1e175ee05aee,right,1,0.75,0.05,0,0.016797941,0.9484,1,0,1,0,1,,,,,,,,,,
,,213561,001,2023-07-31_20h46.06.560,arm3_eps,2022.2.5,Win32,60.27727547,60d4fbe3187fe07b082fdb6d,64c7fed44a04f777bb1e18ce,64c801620b2c1e175ee05aee,right,1,0.75,0.05,0,0.055012807,0.5824,2,0,2,0,1,,,,,,,,,,
,,213561,001,2023-07-31_20h46.06.560,arm3_eps,2022.2.5,Win32,60.27727547,60d4fbe3187fe07b082fdb6d,64c7fed44a04f777bb1e18ce,64c801620b2c1e175ee05aee,right,1,0.75,0.05,0,0.034850017,0.5262,3,0,3,0,1,,,,,,,,,,
,,213561,001,2023-07-31_20h46.06.560,arm3_eps,2022.2.5,Win32,60.27727547,60d4fbe3187fe07b082fdb6d,64c7fed44a04f777bb1e18ce,64c801620b2c1e175ee05aee,up,1,0.75,0.05,1,0,0.5854,4,0,4,0,1,,,,,,,,,,
,,213561,001,2023-07-31_20h46.06.560,arm3_eps,2022.2.5,Win32,60.27727547,60d4fbe3187fe07b082fdb6d,64c7fed44a04f777bb1e18ce,64c801620b2c1e175ee05aee,right,1,0.75,0.05,1,0.011046481,0.8458,5,0,5,0,1,,,,,,,,,,
,,213561,001,2023-07-31_20h46.06.560,arm3_eps,2022.2.5,Win32,60.27727547,60d4fbe3187fe07b082fdb6d,64c7fed44a04f777bb1e18ce,64c801620b2c1e175ee05aee,right,1,0.75,0.05,1,0.023083476,0.4696,6,0,6,0,1,,,,,,,,,,
,,213561,001,2023-07-31_20h46.06.560,arm3_eps,2022.2.5,Win32,60.27727547,60d4fbe3187fe07b082fdb6d,64c7fed44a04f777bb1e18ce,64c801620b2c1e175ee05aee,right,1,0.75,0.05,1,0.047072141,0.4822,7,0,7,0,1,,,,,,,,,,
,,213561,001,2023-07-31_20h46.06.560,arm3_eps,2022.2.5,Win32,60.27727547,60d4fbe3187fe07b082fdb6d,64c7fed44a04f777bb1e18ce,64c801620b2c1e175ee05aee,right,1,0.75,0.05,1,0.03132022,0.4953,8,0,8,0,1,,,,,,,,,,
,,213561,001,2023-07-31_20h46.06.560,arm3_eps,2022.2.5,Win32,60.27727547,60d4fbe3187fe07b082fdb6d,64c7fed44a04f777bb1e18ce,64c801620b2c1e175ee05aee,right,1,0.75,0.05,1,0.036629943,0.3764,9,0,9,0,1,,,,,,,,,,
,,213561,001,2023-07-31_20h46.06.560,arm3_eps,2022.2.5,Win32,60.27727547,60d4fbe3187fe07b082fdb6d,64c7fed44a04f777bb1e18ce,64c801620b2c1e175ee05aee,right,1,0.75,0.05,1,0.031456469,0.4796,10,0,10,0,1,,,,,,,,,,
,,213561,001,2023-07-31_20h46.06.560,arm3_eps,2022.2.5,Win32,60.27727547,60d4fbe3187fe07b082fdb6d,64c7fed44a04f777bb1e18ce,64c801620b2c1e175ee05aee,down,1,0.75,0.05,0,0,0.6444,11,0,11,0,1,,,,,,,,,,
,,213561,001,2023-07-31_20h46.06.560,arm3_eps,2022.2.5,Win32,60.27727547,60d4fbe3187fe07b082fdb6d,64c7fed44a04f777bb1e18ce,64c801620b2c1e175ee05aee,right,1,0.75,0.05,0,-0.031810785,0.9918,12,0,12,0,1,,,,,,,,,,
,,213561,001,2023-07-31_20h46.06.560,arm3_eps,2022.2.5,Win32,60.27727547,60d4fbe3187fe07b082fdb6d,64c7fed44a04f777bb1e18ce,64c801620b2c1e175ee05aee,right,1,0.75,0.05,0,-0.047952054,0.3097,13,0,13,0,1,,,,,,,,,,
,,213561,001,2023-07-31_20h46.06.560,arm3_eps,2022.2.5,Win32,60.27727547,60d4fbe3187fe07b082fdb6d,64c7fed44a04f777bb1e18ce,64c801620b2c1e175ee05aee,right,1,0.75,0.05,0,-0.023079063,0.1995,14,0,14,0,1,,,,,,,,,,
,,213561,001,2023-07-31_20h46.06.560,arm3_eps,2022.2.5,Win32,60.27727547,60d4fbe3187fe07b082fdb6d,64c7fed44a04f777bb1e18ce,64c801620b2c1e175ee05aee,right,1,0.75,0.05,0,-0.022528614,0.2984,15,0,15,0,1,,,,,,,,,,
,,213561,001,2023-07-31_20h46.06.560,arm3_eps,2022.2.5,Win32,60.27727547,60d4fbe3187fe07b082fdb6d,64c7fed44a04f777bb1e18ce,64c801620b2c1e175ee05aee,right,1,0.75,0.05,0,-0.011135048,0.1793,16,0,16,0,1,,,,,,,,,,
,,213561,001,2023-07-31_20h46.06.560,arm3_eps,2022.2.5,Win32,60.27727547,60d4fbe3187fe07b082fdb6d,64c7fed44a04f777bb1e18ce,64c801620b2c1e175ee05aee,right,1,0.75,0.05,0,0.020196125,0.2106,17,0,17,0,1,,,,,,,,,,
,,213561,001,2023-07-31_20h46.06.560,arm3_eps,2022.2.5,Win32,60.27727547,60d4fbe3187fe07b082fdb6d,64c7fed44a04f777bb1e18ce,64c801620b2c1e175ee05aee,right,1,0.75,0.05,0,0.031079516,0.2773,18,0,18,0,1,,,,,,,,,,
,,213561,001,2023-07-31_20h46.06.560,arm3_eps,2022.2.5,Win32,60.27727547,60d4fbe3187fe07b082fdb6d,64c7fed44a04f777bb1e18ce,64c801620b2c1e175ee05aee,right,1,0.75,0.05,0,0.04252086,0.1548,19,0,19,0,1,,,,,,,,,,
,,213561,001,2023-07-31_20h46.06.560,arm3_eps,2022.2.5,Win32,60.27727547,60d4fbe3187fe07b082fdb6d,64c7fed44a04f777bb1e18ce,64c801620b2c1e175ee05aee,up,1,0.75,0.05,1,0,0.8495,20,0,20,0,1,,,,,,,,,,
,,213561,001,2023-07-31_20h46.06.560,arm3_eps,2022.2.5,Win32,60.27727547,60d4fbe3187fe07b082fdb6d,64c7fed44a04f777bb1e18ce,64c801620b2c1e175ee05aee,right,1,0.75,0.05,1,0.003187594,0.8184,21,0,21,0,1,,,,,,,,,,
,,213561,001,2023-07-31_20h46.06.560,arm3_eps,2022.2.5,Win32,60.27727547,60d4fbe3187fe07b082fdb6d,64c7fed44a04f777bb1e18ce,64c801620b2c1e175ee05aee,right,1,0.75,0.05,1,0.040481773,0.1985,22,0,22,0,1,,,,,,,,,,
,,213561,001,2023-07-31_20h46.06.560,arm3_eps,2022.2.5,Win32,60.27727547,60d4fbe3187fe07b082fdb6d,64c7fed44a04f777bb1e18ce,64c801620b2c1e175ee05aee,right,1,0.75,0.05,1,0.057874521,0.3275,23,0,23,0,1,,,,,,,,,,
,,213561,001,2023-07-31_20h46.06.560,arm3_eps,2022.2.5,Win32,60.27727547,60d4fbe3187fe07b082fdb6d,64c7fed44a04f777bb1e18ce,64c801620b2c1e175ee05aee,right,1,0.75,0.05,1,0.077566271,0.4589,24,0,24,0,1,,,,,,,,,,
,,213561,001,2023-07-31_20h46.06.560,arm3_eps,2022.2.5,Win32,60.27727547,60d4fbe3187fe07b082fdb6d,64c7fed44a04f777bb1e18ce,64c801620b2c1e175ee05aee,up,1,0.75,0.05,1,0,0.7457,25,0,25,0,1,,,,,,,,,,
,,213561,001,2023-07-31_20h46.06.560,arm3_eps,2022.2.5,Win32,60.27727547,60d4fbe3187fe07b082fdb6d,64c7fed44a04f777bb1e18ce,64c801620b2c1e175ee05aee,right,1,0.75,0.05,1,-0.012438026,1.1303,26,0,26,0,1,,,,,,,,,,
,,213561,001,2023-07-31_20h46.06.560,arm3_eps,2022.2.5,Win32,60.27727547,60d4fbe3187fe07b082fdb6d,64c7fed44a04f777bb1e18ce,64c801620b2c1e175ee05aee,right,1,0.75,0.05,1,0.013253772,0.7991,27,0,27,0,1,,,,,,,,,,
,,213561,001,2023-07-31_20h46.06.560,arm3_eps,2022.2.5,Win32,60.27727547,60d4fbe3187fe07b082fdb6d,64c7fed44a04f777bb1e18ce,64c801620b2c1e175ee05aee,right,1,0.75,0.05,1,0.019404013,0.3825,28,0,28,0,1,,,,,,,,,,
,,213561,001,2023-07-31_20h46.06.560,arm3_eps,2022.2.5,Win32,60.27727547,60d4fbe3187fe07b082fdb6d,64c7fed44a04f777bb1e18ce,64c801620b2c1e175ee05aee,right,1,0.75,0.05,1,0.041564069,0.2157,29,0,29,0,1,,,,,,,,,,
,,213561,001,2023-07-31_20h46.06.560,arm3_eps,2022.2.5,Win32,60.27727547,60d4fbe3187fe07b082fdb6d,64c7fed44a04f777bb1e18ce,64c801620b2c1e175ee05aee,right,1,0.75,0.05,1,0.031311352,0.1557,30,0,30,0,1,,,,,,,,,,
,,213561,001,2023-07-31_20h46.06.560,arm3_eps,2022.2.5,Win32,60.27727547,60d4fbe3187fe07b082fdb6d,64c7fed44a04f777bb1e18ce,64c801620b2c1e175ee05aee,right,1,0.75,0.05,1,0.012234166,0.5207,31,0,31,0,1,,,,,,,,,,
,,213561,001,2023-07-31_20h46.06.560,arm3_eps,2022.2.5,Win32,60.27727547,60d4fbe3187fe07b082fdb6d,64c7fed44a04f777bb1e18ce,64c801620b2c1e175ee05aee,down,1,0.75,0.05,0,0,0.361,32,0,32,0,1,,,,,,,,,,
,,213561,001,2023-07-31_20h46.06.560,arm3_eps,2022.2.5,Win32,60.27727547,60d4fbe3187fe07b082fdb6d,64c7fed44a04f777bb1e18ce,64c801620b2c1e175ee05aee,up,1,0.75,0.05,1,0,1.4628,33,0,33,0,1,,,,,,,,,,
,,213561,001,2023-07-31_20h46.06.560,arm3_eps,2022.2.5,Win32,60.27727547,60d4fbe3187fe07b082fdb6d,64c7fed44a04f777bb1e18ce,64c801620b2c1e175ee05aee,right,1,0.75,0.05,1,-0.014658678,1.7174,34,0,34,0,1,,,,,,,,,,
,,213561,001,2023-07-31_20h46.06.560,arm3_eps,2022.2.5,Win32,60.27727547,60d4fbe3187fe07b082fdb6d,64c7fed44a04f777bb1e18ce,64c801620b2c1e175ee05aee,right,1,0.75,0.05,1,0.024194783,0.1821,35,0,35,0,1,,,,,,,,,,
,,213561,001,2023-07-31_20h46.06.560,arm3_eps,2022.2.5,Win32,60.27727547,60d4fbe3187fe07b082fdb6d,64c7fed44a04f777bb1e18ce,64c801620b2c1e175ee05aee,right,1,0.75,0.05,1,0.037674469,0.2493,36,0,36,0,1,,,,,,,,,,
,,213561,001,2023-07-31_20h46.06.560,arm3_eps,2022.2.5,Win32,60.27727547,60d4fbe3187fe07b082fdb6d,64c7fed44a04f777bb1e18ce,64c801620b2c1e175ee05aee,right,1,0.75,0.05,1,0.092845529,0.1708,37,0,37,0,1,,,,,,,,,,
,,213561,001,2023-07-31_20h46.06.560,arm3_eps,2022.2.5,Win32,60.27727547,60d4fbe3187fe07b082fdb6d,64c7fed44a04f777bb1e18ce,64c801620b2c1e175ee05aee,right,1,0.75,0.05,1,0.102431457,0.1664,38,0,38,0,1,,,,,,,,,,
,,213561,001,2023-07-31_20h46.06.560,arm3_eps,2022.2.5,Win32,60.27727547,60d4fbe3187fe07b082fdb6d,64c7fed44a04f777bb1e18ce,64c801620b2c1e175ee05aee,up,1,0.75,0.05,1,0,0.6706,39,0,39,0,1,,,,,,,,,,
,,213561,001,2023-07-31_20h46.06.560,arm3_eps,2022.2.5,Win32,60.27727547,60d4fbe3187fe07b082fdb6d,64c7fed44a04f777bb1e18ce,64c801620b2c1e175ee05aee,right,1,0.75,0.05,1,0.044060464,0.8243,40,0,40,0,1,,,,,,,,,,
,,213561,001,2023-07-31_20h46.06.560,arm3_eps,2022.2.5,Win32,60.27727547,60d4fbe3187fe07b082fdb6d,64c7fed44a04f777bb1e18ce,64c801620b2c1e175ee05aee,right,1,0.75,0.05,1,0.077910081,0.1877,41,0,41,0,1,,,,,,,,,,
,,213561,001,2023-07-31_20h46.06.560,arm3_eps,2022.2.5,Win32,60.27727547,60d4fbe3187fe07b082fdb6d,64c7fed44a04f777bb1e18ce,64c801620b2c1e175ee05aee,right,1,0.75,0.05,1,0.080317347,0.1684,42,0,42,0,1,,,,,,,,,,
,,213561,001,2023-07-31_20h46.06.560,arm3_eps,2022.2.5,Win32,60.27727547,60d4fbe3187fe07b082fdb6d,64c7fed44a04f777bb1e18ce,64c801620b2c1e175ee05aee,right,1,0.75,0.05,1,0.088765577,0.17,43,0,43,0,1,,,,,,,,,,
,,213561,001,2023-07-31_20h46.06.560,arm3_eps,2022.2.5,Win32,60.27727547,60d4fbe3187fe07b082fdb6d,64c7fed44a04f777bb1e18ce,64c801620b2c1e175ee05aee,right,1,0.75,0.05,1,0.101733262,0.1431,44,0,44,0,1,,,,,,,,,,
,,213561,001,2023-07-31_20h46.06.560,arm3_eps,2022.2.5,Win32,60.27727547,60d4fbe3187fe07b082fdb6d,64c7fed44a04f777bb1e18ce,64c801620b2c1e175ee05aee,right,1,0.75,0.05,1,0.077573092,0.2593,45,0,45,0,1,,,,,,,,,,
,,213561,001,2023-07-31_20h46.06.560,arm3_eps,2022.2.5,Win32,60.27727547,60d4fbe3187fe07b082fdb6d,64c7fed44a04f777bb1e18ce,64c801620b2c1e175ee05aee,right,1,0.75,0.05,1,0.080580189,0.2101,46,0,46,0,1,,,,,,,,,,
,,213561,001,2023-07-31_20h46.06.560,arm3_eps,2022.2.5,Win32,60.27727547,60d4fbe3187fe07b082fdb6d,64c7fed44a04f777bb1e18ce,64c801620b2c1e175ee05aee,right,1,0.75,0.05,1,0.092939524,0.2867,47,0,47,0,1,,,,,,,,,,
,,213561,001,2023-07-31_20h46.06.560,arm3_eps,2022.2.5,Win32,60.27727547,60d4fbe3187fe07b082fdb6d,64c7fed44a04f777bb1e18ce,64c801620b2c1e175ee05aee,right,1,0.75,0.05,1,0.083408182,0.8041,48,0,48,0,1,,,,,,,,,,
,,213561,001,2023-07-31_20h46.06.560,arm3_eps,2022.2.5,Win32,60.27727547,60d4fbe3187fe07b082fdb6d,64c7fed44a04f777bb1e18ce,64c801620b2c1e175ee05aee,down,1,0.75,0.05,1,0.083408182,0.8991,49,0,49,0,1,,,,,,,,,,
space,2.1052,213561,001,2023-07-31_20h46.06.560,arm3_eps,2022.2.5,Win32,60.27727547,60d4fbe3187fe07b082fdb6d,64c7fed44a04f777bb1e18ce,64c801620b2c1e175ee05aee,,,,,,,,,,,,,,,,,,,,,,
space,0.6443,213561,001,2023-07-31_20h46.06.560,arm3_eps,2022.2.5,Win32,60.27727547,60d4fbe3187fe07b082fdb6d,64c7fed44a04f777bb1e18ce,64c801620b2c1e175ee05aee,,,,,,,,,,,,,,,,,,,,,,
,,213561,001,2023-07-31_20h46.06.560,arm3_eps,2022.2.5,Win32,60.27727547,60d4fbe3187fe07b082fdb6d,64c7fed44a04f777bb1e18ce,64c801620b2c1e175ee05aee,right,1,0.75,0.5,0,0.029641628,0.7243,0,0,0,0,1,,,,,,,,,,
,,213561,001,2023-07-31_20h46.06.560,arm3_eps,2022.2.5,Win32,60.27727547,60d4fbe3187fe07b082fdb6d,64c7fed44a04f777bb1e18ce,64c801620b2c1e175ee05aee,right,1,0.75,0.5,0,0.045356116,0.2039,1,0,1,0,1,,,,,,,,,,
,,213561,001,2023-07-31_20h46.06.560,arm3_eps,2022.2.5,Win32,60.27727547,60d4fbe3187fe07b082fdb6d,64c7fed44a04f777bb1e18ce,64c801620b2c1e175ee05aee,right,1,0.75,0.5,0,0.056146471,0.1997,2,0,2,0,1,,,,,,,,,,
,,213561,001,2023-07-31_20h46.06.560,arm3_eps,2022.2.5,Win32,60.27727547,60d4fbe3187fe07b082fdb6d,64c7fed44a04f777bb1e18ce,64c801620b2c1e175ee05aee,right,1,0.75,0.5,0,0.031641123,0.3151,3,0,3,0,1,,,,,,,,,,
,,213561,001,2023-07-31_20h46.06.560,arm3_eps,2022.2.5,Win32,60.27727547,60d4fbe3187fe07b082fdb6d,64c7fed44a04f777bb1e18ce,64c801620b2c1e175ee05aee,right,1,0.75,0.5,0,0.060031845,0.2725,4,0,4,0,1,,,,,,,,,,
,,213561,001,2023-07-31_20h46.06.560,arm3_eps,2022.2.5,Win32,60.27727547,60d4fbe3187fe07b082fdb6d,64c7fed44a04f777bb1e18ce,64c801620b2c1e175ee05aee,right,1,0.75,0.5,0,0.099718287,0.4493,5,0,5,0,1,,,,,,,,,,
,,213561,001,2023-07-31_20h46.06.560,arm3_eps,2022.2.5,Win32,60.27727547,60d4fbe3187fe07b082fdb6d,64c7fed44a04f777bb1e18ce,64c801620b2c1e175ee05aee,right,1,0.75,0.5,0,0.104634842,0.3697,6,0,6,0,1,,,,,,,,,,
,,213561,001,2023-07-31_20h46.06.560,arm3_eps,2022.2.5,Win32,60.27727547,60d4fbe3187fe07b082fdb6d,64c7fed44a04f777bb1e18ce,64c801620b2c1e175ee05aee,right,1,0.75,0.5,0,0.104376008,0.5568,7,0,7,0,1,,,,,,,,,,
,,213561,001,2023-07-31_20h46.06.560,arm3_eps,2022.2.5,Win32,60.27727547,60d4fbe3187fe07b082fdb6d,64c7fed44a04f777bb1e18ce,64c801620b2c1e175ee05aee,up,1,0.75,0.5,1,0,0.599,8,0,8,0,1,,,,,,,,,,
,,213561,001,2023-07-31_20h46.06.560,arm3_eps,2022.2.5,Win32,60.27727547,60d4fbe3187fe07b082fdb6d,64c7fed44a04f777bb1e18ce,64c801620b2c1e175ee05aee,right,1,0.75,0.5,1,-0.005608745,0.8853,9,0,9,0,1,,,,,,,,,,
,,213561,001,2023-07-31_20h46.06.560,arm3_eps,2022.2.5,Win32,60.27727547,60d4fbe3187fe07b082fdb6d,64c7fed44a04f777bb1e18ce,64c801620b2c1e175ee05aee,right,1,0.75,0.5,1,-0.011347722,0.2259,10,0,10,0,1,,,,,,,,,,
,,213561,001,2023-07-31_20h46.06.560,arm3_eps,2022.2.5,Win32,60.27727547,60d4fbe3187fe07b082fdb6d,64c7fed44a04f777bb1e18ce,64c801620b2c1e175ee05aee,right,1,0.75,0.5,1,0.013120142,0.1659,11,0,11,0,1,,,,,,,,,,
,,213561,001,2023-07-31_20h46.06.560,arm3_eps,2022.2.5,Win32,60.27727547,60d4fbe3187fe07b082fdb6d,64c7fed44a04f777bb1e18ce,64c801620b2c1e175ee05aee,right,1,0.75,0.5,1,0.023850266,0.4417,12,0,12,0,1,,,,,,,,,,
,,213561,001,2023-07-31_20h46.06.560,arm3_eps,2022.2.5,Win32,60.27727547,60d4fbe3187fe07b082fdb6d,64c7fed44a04f777bb1e18ce,64c801620b2c1e175ee05aee,right,1,0.75,0.5,1,0.055186419,0.3108,13,0,13,0,1,,,,,,,,,,
,,213561,001,2023-07-31_20h46.06.560,arm3_eps,2022.2.5,Win32,60.27727547,60d4fbe3187fe07b082fdb6d,64c7fed44a04f777bb1e18ce,64c801620b2c1e175ee05aee,right,1,0.75,0.5,1,0.06239842,0.2359,14,0,14,0,1,,,,,,,,,,
,,213561,001,2023-07-31_20h46.06.560,arm3_eps,2022.2.5,Win32,60.27727547,60d4fbe3187fe07b082fdb6d,64c7fed44a04f777bb1e18ce,64c801620b2c1e175ee05aee,right,1,0.75,0.5,1,0.053559764,0.2117,15,0,15,0,1,,,,,,,,,,
,,213561,001,2023-07-31_20h46.06.560,arm3_eps,2022.2.5,Win32,60.27727547,60d4fbe3187fe07b082fdb6d,64c7fed44a04f777bb1e18ce,64c801620b2c1e175ee05aee,right,1,0.75,0.5,1,0.088442688,0.2714,16,0,16,0,1,,,,,,,,,,
,,213561,001,2023-07-31_20h46.06.560,arm3_eps,2022.2.5,Win32,60.27727547,60d4fbe3187fe07b082fdb6d,64c7fed44a04f777bb1e18ce,64c801620b2c1e175ee05aee,right,1,0.75,0.5,1,0.072585395,0.4567,17,0,17,0,1,,,,,,,,,,
,,213561,001,2023-07-31_20h46.06.560,arm3_eps,2022.2.5,Win32,60.27727547,60d4fbe3187fe07b082fdb6d,64c7fed44a04f777bb1e18ce,64c801620b2c1e175ee05aee,up,1,0.75,0.5,1,0,0.2983,18,0,18,0,1,,,,,,,,,,
,,213561,001,2023-07-31_20h46.06.560,arm3_eps,2022.2.5,Win32,60.27727547,60d4fbe3187fe07b082fdb6d,64c7fed44a04f777bb1e18ce,64c801620b2c1e175ee05aee,right,1,0.75,0.5,1,0.007875456,1.0835,19,0,19,0,1,,,,,,,,,,
,,213561,001,2023-07-31_20h46.06.560,arm3_eps,2022.2.5,Win32,60.27727547,60d4fbe3187fe07b082fdb6d,64c7fed44a04f777bb1e18ce,64c801620b2c1e175ee05aee,right,1,0.75,0.5,1,0.035612742,0.2327,20,0,20,0,1,,,,,,,,,,
,,213561,001,2023-07-31_20h46.06.560,arm3_eps,2022.2.5,Win32,60.27727547,60d4fbe3187fe07b082fdb6d,64c7fed44a04f777bb1e18ce,64c801620b2c1e175ee05aee,right,1,0.75,0.5,1,0.052811795,0.1874,21,0,21,0,1,,,,,,,,,,
,,213561,001,2023-07-31_20h46.06.560,arm3_eps,2022.2.5,Win32,60.27727547,60d4fbe3187fe07b082fdb6d,64c7fed44a04f777bb1e18ce,64c801620b2c1e175ee05aee,right,1,0.75,0.5,1,0.026991617,0.4039,22,0,22,0,1,,,,,,,,,,
,,213561,001,2023-07-31_20h46.06.560,arm3_eps,2022.2.5,Win32,60.27727547,60d4fbe3187fe07b082fdb6d,64c7fed44a04f777bb1e18ce,64c801620b2c1e175ee05aee,right,1,0.75,0.5,1,0.011088057,0.2125,23,0,23,0,1,,,,,,,,,,
,,213561,001,2023-07-31_20h46.06.560,arm3_eps,2022.2.5,Win32,60.27727547,60d4fbe3187fe07b082fdb6d,64c7fed44a04f777bb1e18ce,64c801620b2c1e175ee05aee,right,1,0.75,0.5,1,0.034450864,0.2239,24,0,24,0,1,,,,,,,,,,
,,213561,001,2023-07-31_20h46.06.560,arm3_eps,2022.2.5,Win32,60.27727547,60d4fbe3187fe07b082fdb6d,64c7fed44a04f777bb1e18ce,64c801620b2c1e175ee05aee,right,1,0.75,0.5,1,0.04851265,0.3825,25,0,25,0,1,,,,,,,,,,
,,213561,001,2023-07-31_20h46.06.560,arm3_eps,2022.2.5,Win32,60.27727547,60d4fbe3187fe07b082fdb6d,64c7fed44a04f777bb1e18ce,64c801620b2c1e175ee05aee,right,1,0.75,0.5,1,0.060297267,0.2441,26,0,26,0,1,,,,,,,,,,
,,213561,001,2023-07-31_20h46.06.560,arm3_eps,2022.2.5,Win32,60.27727547,60d4fbe3187fe07b082fdb6d,64c7fed44a04f777bb1e18ce,64c801620b2c1e175ee05aee,right,1,0.75,0.5,1,0.058428602,0.3658,27,0,27,0,1,,,,,,,,,,
,,213561,001,2023-07-31_20h46.06.560,arm3_eps,2022.2.5,Win32,60.27727547,60d4fbe3187fe07b082fdb6d,64c7fed44a04f777bb1e18ce,64c801620b2c1e175ee05aee,right,1,0.75,0.5,1,0.083199331,7.2301,28,0,28,0,1,,,,,,,,,,
,,213561,001,2023-07-31_20h46.06.560,arm3_eps,2022.2.5,Win32,60.27727547,60d4fbe3187fe07b082fdb6d,64c7fed44a04f777bb1e18ce,64c801620b2c1e175ee05aee,up,1,0.75,0.5,2,0,1.2015,29,0,29,0,1,,,,,,,,,,
,,213561,001,2023-07-31_20h46.06.560,arm3_eps,2022.2.5,Win32,60.27727547,60d4fbe3187fe07b082fdb6d,64c7fed44a04f777bb1e18ce,64c801620b2c1e175ee05aee,down,1,0.75,0.5,1,0,0.018,30,0,30,0,1,,,,,,,,,,
,,213561,001,2023-07-31_20h46.06.560,arm3_eps,2022.2.5,Win32,60.27727547,60d4fbe3187fe07b082fdb6d,64c7fed44a04f777bb1e18ce,64c801620b2c1e175ee05aee,right,1,0.75,0.5,1,0.013036644,1.1398,31,0,31,0,1,,,,,,,,,,
,,213561,001,2023-07-31_20h46.06.560,arm3_eps,2022.2.5,Win32,60.27727547,60d4fbe3187fe07b082fdb6d,64c7fed44a04f777bb1e18ce,64c801620b2c1e175ee05aee,up,-1,0.75,0.5,1,0,0.2995,32,0,32,0,1,,,,,,,,,,
,,213561,001,2023-07-31_20h46.06.560,arm3_eps,2022.2.5,Win32,60.27727547,60d4fbe3187fe07b082fdb6d,64c7fed44a04f777bb1e18ce,64c801620b2c1e175ee05aee,down,-1,0.75,0.5,2,0,0.8541,33,0,33,0,1,,,,,,,,,,
,,213561,001,2023-07-31_20h46.06.560,arm3_eps,2022.2.5,Win32,60.27727547,60d4fbe3187fe07b082fdb6d,64c7fed44a04f777bb1e18ce,64c801620b2c1e175ee05aee,right,-1,0.75,0.5,2,-0.00279112,1.5567,34,0,34,0,1,,,,,,,,,,
,,213561,001,2023-07-31_20h46.06.560,arm3_eps,2022.2.5,Win32,60.27727547,60d4fbe3187fe07b082fdb6d,64c7fed44a04f777bb1e18ce,64c801620b2c1e175ee05aee,right,-1,0.75,0.5,2,-0.007544076,0.1871,35,0,35,0,1,,,,,,,,,,
,,213561,001,2023-07-31_20h46.06.560,arm3_eps,2022.2.5,Win32,60.27727547,60d4fbe3187fe07b082fdb6d,64c7fed44a04f777bb1e18ce,64c801620b2c1e175ee05aee,right,-1,0.75,0.5,2,-0.025097715,0.1697,36,0,36,0,1,,,,,,,,,,
,,213561,001,2023-07-31_20h46.06.560,arm3_eps,2022.2.5,Win32,60.27727547,60d4fbe3187fe07b082fdb6d,64c7fed44a04f777bb1e18ce,64c801620b2c1e175ee05aee,right,-1,0.75,0.5,2,-0.031266823,0.1522,37,0,37,0,1,,,,,,,,,,
,,213561,001,2023-07-31_20h46.06.560,arm3_eps,2022.2.5,Win32,60.27727547,60d4fbe3187fe07b082fdb6d,64c7fed44a04f777bb1e18ce,64c801620b2c1e175ee05aee,right,-1,0.75,0.5,2,-0.045488716,0.1227,38,0,38,0,1,,,,,,,,,,
,,213561,001,2023-07-31_20h46.06.560,arm3_eps,2022.2.5,Win32,60.27727547,60d4fbe3187fe07b082fdb6d,64c7fed44a04f777bb1e18ce,64c801620b2c1e175ee05aee,right,-1,0.75,0.5,2,-0.05375776,0.2497,39,0,39,0,1,,,,,,,,,,
,,213561,001,2023-07-31_20h46.06.560,arm3_eps,2022.2.5,Win32,60.27727547,60d4fbe3187fe07b082fdb6d,64c7fed44a04f777bb1e18ce,64c801620b2c1e175ee05aee,right,-1,0.75,0.5,2,-0.082427808,0.1518,40,0,40,0,1,,,,,,,,,,
,,213561,001,2023-07-31_20h46.06.560,arm3_eps,2022.2.5,Win32,60.27727547,60d4fbe3187fe07b082fdb6d,64c7fed44a04f777bb1e18ce,64c801620b2c1e175ee05aee,down,-1,0.75,0.5,3,0,0.3099,41,0,41,0,1,,,,,,,,,,
,,213561,001,2023-07-31_20h46.06.560,arm3_eps,2022.2.5,Win32,60.27727547,60d4fbe3187fe07b082fdb6d,64c7fed44a04f777bb1e18ce,64c801620b2c1e175ee05aee,right,-1,0.75,0.5,3,-0.031055213,0.902,42,0,42,0,1,,,,,,,,,,
,,213561,001,2023-07-31_20h46.06.560,arm3_eps,2022.2.5,Win32,60.27727547,60d4fbe3187fe07b082fdb6d,64c7fed44a04f777bb1e18ce,64c801620b2c1e175ee05aee,right,-1,0.75,0.5,3,-0.019761794,0.1826,43,0,43,0,1,,,,,,,,,,
,,213561,001,2023-07-31_20h46.06.560,arm3_eps,2022.2.5,Win32,60.27727547,60d4fbe3187fe07b082fdb6d,64c7fed44a04f777bb1e18ce,64c801620b2c1e175ee05aee,right,-1,0.75,0.5,3,-0.057193767,0.1424,44,0,44,0,1,,,,,,,,,,
,,213561,001,2023-07-31_20h46.06.560,arm3_eps,2022.2.5,Win32,60.27727547,60d4fbe3187fe07b082fdb6d,64c7fed44a04f777bb1e18ce,64c801620b2c1e175ee05aee,right,-1,0.75,0.5,3,-0.085824104,0.1525,45,0,45,0,1,,,,,,,,,,
,,213561,001,2023-07-31_20h46.06.560,arm3_eps,2022.2.5,Win32,60.27727547,60d4fbe3187fe07b082fdb6d,64c7fed44a04f777bb1e18ce,64c801620b2c1e175ee05aee,right,-1,0.75,0.5,3,-0.08312923,0.1334,46,0,46,0,1,,,,,,,,,,
,,213561,001,2023-07-31_20h46.06.560,arm3_eps,2022.2.5,Win32,60.27727547,60d4fbe3187fe07b082fdb6d,64c7fed44a04f777bb1e18ce,64c801620b2c1e175ee05aee,right,-1,0.75,0.5,3,-0.05501191,0.1196,47,0,47,0,1,,,,,,,,,,
,,213561,001,2023-07-31_20h46.06.560,arm3_eps,2022.2.5,Win32,60.27727547,60d4fbe3187fe07b082fdb6d,64c7fed44a04f777bb1e18ce,64c801620b2c1e175ee05aee,right,-1,0.75,0.5,3,-0.038091225,0.3772,48,0,48,0,1,,,,,,,,,,
,,213561,001,2023-07-31_20h46.06.560,arm3_eps,2022.2.5,Win32,60.27727547,60d4fbe3187fe07b082fdb6d,64c7fed44a04f777bb1e18ce,64c801620b2c1e175ee05aee,right,-1,0.75,0.5,3,-0.019068646,0.2277,49,0,49,0,1,,,,,,,,,,
space,2.5472,213561,001,2023-07-31_20h46.06.560,arm3_eps,2022.2.5,Win32,60.27727547,60d4fbe3187fe07b082fdb6d,64c7fed44a04f777bb1e18ce,64c801620b2c1e175ee05aee,,,,,,,,,,,,,,,,,,,,,,
space,3.6124,213561,001,2023-07-31_20h46.06.560,arm3_eps,2022.2.5,Win32,60.27727547,60d4fbe3187fe07b082fdb6d,64c7fed44a04f777bb1e18ce,64c801620b2c1e175ee05aee,right,-1,0.75,0.05,0,-0.03690785,0.623,,,,,,0,0,0,0,1,,,,,
,,213561,001,2023-07-31_20h46.06.560,arm3_eps,2022.2.5,Win32,60.27727547,60d4fbe3187fe07b082fdb6d,64c7fed44a04f777bb1e18ce,64c801620b2c1e175ee05aee,right,-1,0.75,0.05,0,-0.069631983,0.2694,,,,,,1,0,1,0,1,,,,,
,,213561,001,2023-07-31_20h46.06.560,arm3_eps,2022.2.5,Win32,60.27727547,60d4fbe3187fe07b082fdb6d,64c7fed44a04f777bb1e18ce,64c801620b2c1e175ee05aee,right,-1,0.75,0.05,0,-0.05607829,0.4748,,,,,,2,0,2,0,1,,,,,
,,213561,001,2023-07-31_20h46.06.560,arm3_eps,2022.2.5,Win32,60.27727547,60d4fbe3187fe07b082fdb6d,64c7fed44a04f777bb1e18ce,64c801620b2c1e175ee05aee,down,-1,0.75,0.05,0,0,0.8215,,,,,,3,0,3,0,1,,,,,
,,213561,001,2023-07-31_20h46.06.560,arm3_eps,2022.2.5,Win32,60.27727547,60d4fbe3187fe07b082fdb6d,64c7fed44a04f777bb1e18ce,64c801620b2c1e175ee05aee,right,-1,0.75,0.05,0,-0.007315103,1.0696,,,,,,4,0,4,0,1,,,,,
,,213561,001,2023-07-31_20h46.06.560,arm3_eps,2022.2.5,Win32,60.27727547,60d4fbe3187fe07b082fdb6d,64c7fed44a04f777bb1e18ce,64c801620b2c1e175ee05aee,right,-1,0.75,0.05,0,-0.047709273,0.7985,,,,,,5,0,5,0,1,,,,,
,,213561,001,2023-07-31_20h46.06.560,arm3_eps,2022.2.5,Win32,60.27727547,60d4fbe3187fe07b082fdb6d,64c7fed44a04f777bb1e18ce,64c801620b2c1e175ee05aee,right,-1,0.75,0.05,0,-0.057600761,0.3421,,,,,,6,0,6,0,1,,,,,
,,213561,001,2023-07-31_20h46.06.560,arm3_eps,2022.2.5,Win32,60.27727547,60d4fbe3187fe07b082fdb6d,64c7fed44a04f777bb1e18ce,64c801620b2c1e175ee05aee,right,-1,0.75,0.05,0,-0.067554091,0.1531,,,,,,7,0,7,0,1,,,,,
,,213561,001,2023-07-31_20h46.06.560,arm3_eps,2022.2.5,Win32,60.27727547,60d4fbe3187fe07b082fdb6d,64c7fed44a04f777bb1e18ce,64c801620b2c1e175ee05aee,down,-1,0.75,0.05,1,0,0.449,,,,,,8,0,8,0,1,,,,,
,,213561,001,2023-07-31_20h46.06.560,arm3_eps,2022.2.5,Win32,60.27727547,60d4fbe3187fe07b082fdb6d,64c7fed44a04f777bb1e18ce,64c801620b2c1e175ee05aee,right,-1,0.75,0.05,1,-0.007156422,0.8729,,,,,,9,0,9,0,1,,,,,
,,213561,001,2023-07-31_20h46.06.560,arm3_eps,2022.2.5,Win32,60.27727547,60d4fbe3187fe07b082fdb6d,64c7fed44a04f777bb1e18ce,64c801620b2c1e175ee05aee,right,-1,0.75,0.05,1,-0.016916797,0.2336,,,,,,10,0,10,0,1,,,,,
,,213561,001,2023-07-31_20h46.06.560,arm3_eps,2022.2.5,Win32,60.27727547,60d4fbe3187fe07b082fdb6d,64c7fed44a04f777bb1e18ce,64c801620b2c1e175ee05aee,right,-1,0.75,0.05,1,-0.01607112,0.1608,,,,,,11,0,11,0,1,,,,,
,,213561,001,2023-07-31_20h46.06.560,arm3_eps,2022.2.5,Win32,60.27727547,60d4fbe3187fe07b082fdb6d,64c7fed44a04f777bb1e18ce,64c801620b2c1e175ee05aee,right,-1,0.75,0.05,1,-0.011469849,0.1573,,,,,,12,0,12,0,1,,,,,
,,213561,001,2023-07-31_20h46.06.560,arm3_eps,2022.2.5,Win32,60.27727547,60d4fbe3187fe07b082fdb6d,64c7fed44a04f777bb1e18ce,64c801620b2c1e175ee05aee,right,-1,0.75,0.05,1,-0.008263317,0.128,,,,,,13,0,13,0,1,,,,,
,,213561,001,2023-07-31_20h46.06.560,arm3_eps,2022.2.5,Win32,60.27727547,60d4fbe3187fe07b082fdb6d,64c7fed44a04f777bb1e18ce,64c801620b2c1e175ee05aee,right,-1,0.75,0.05,1,-0.023547908,0.3662,,,,,,14,0,14,0,1,,,,,
,,213561,001,2023-07-31_20h46.06.560,arm3_eps,2022.2.5,Win32,60.27727547,60d4fbe3187fe07b082fdb6d,64c7fed44a04f777bb1e18ce,64c801620b2c1e175ee05aee,right,-1,0.75,0.05,1,-0.07605877,0.2486,,,,,,15,0,15,0,1,,,,,
,,213561,001,2023-07-31_20h46.06.560,arm3_eps,2022.2.5,Win32,60.27727547,60d4fbe3187fe07b082fdb6d,64c7fed44a04f777bb1e18ce,64c801620b2c1e175ee05aee,right,-1,0.75,0.05,1,-0.121548368,0.1232,,,,,,16,0,16,0,1,,,,,
,,213561,001,2023-07-31_20h46.06.560,arm3_eps,2022.2.5,Win32,60.27727547,60d4fbe3187fe07b082fdb6d,64c7fed44a04f777bb1e18ce,64c801620b2c1e175ee05aee,right,-1,0.75,0.05,1,-0.099957027,0.4322,,,,,,17,0,17,0,1,,,,,
,,213561,001,2023-07-31_20h46.06.560,arm3_eps,2022.2.5,Win32,60.27727547,60d4fbe3187fe07b082fdb6d,64c7fed44a04f777bb1e18ce,64c801620b2c1e175ee05aee,right,-1,0.75,0.05,1,-0.062440212,0.2078,,,,,,18,0,18,0,1,,,,,
,,213561,001,2023-07-31_20h46.06.560,arm3_eps,2022.2.5,Win32,60.27727547,60d4fbe3187fe07b082fdb6d,64c7fed44a04f777bb1e18ce,64c801620b2c1e175ee05aee,right,-1,0.75,0.05,1,-0.113294813,0.2113,,,,,,19,0,19,0,1,,,,,
,,213561,001,2023-07-31_20h46.06.560,arm3_eps,2022.2.5,Win32,60.27727547,60d4fbe3187fe07b082fdb6d,64c7fed44a04f777bb1e18ce,64c801620b2c1e175ee05aee,down,-1,0.75,0.05,2,0,0.7494,,,,,,20,0,20,0,1,,,,,
,,213561,001,2023-07-31_20h46.06.560,arm3_eps,2022.2.5,Win32,60.27727547,60d4fbe3187fe07b082fdb6d,64c7fed44a04f777bb1e18ce,64c801620b2c1e175ee05aee,right,-1,0.75,0.05,2,0.010136095,0.8685,,,,,,21,0,21,0,1,,,,,
,,213561,001,2023-07-31_20h46.06.560,arm3_eps,2022.2.5,Win32,60.27727547,60d4fbe3187fe07b082fdb6d,64c7fed44a04f777bb1e18ce,64c801620b2c1e175ee05aee,right,-1,0.75,0.05,2,0.002513875,0.1851,,,,,,22,0,22,0,1,,,,,
,,213561,001,2023-07-31_20h46.06.560,arm3_eps,2022.2.5,Win32,60.27727547,60d4fbe3187fe07b082fdb6d,64c7fed44a04f777bb1e18ce,64c801620b2c1e175ee05aee,right,-1,0.75,0.05,2,-0.029610785,0.178,,,,,,23,0,23,0,1,,,,,
,,213561,001,2023-07-31_20h46.06.560,arm3_eps,2022.2.5,Win32,60.27727547,60d4fbe3187fe07b082fdb6d,64c7fed44a04f777bb1e18ce,64c801620b2c1e175ee05aee,right,-1,0.75,0.05,2,-0.031012926,0.1886,,,,,,24,0,24,0,1,,,,,
,,213561,001,2023-07-31_20h46.06.560,arm3_eps,2022.2.5,Win32,60.27727547,60d4fbe3187fe07b082fdb6d,64c7fed44a04f777bb1e18ce,64c801620b2c1e175ee05aee,right,-1,0.75,0.05,2,-0.0429466,0.1289,,,,,,25,0,25,0,1,,,,,
,,213561,001,2023-07-31_20h46.06.560,arm3_eps,2022.2.5,Win32,60.27727547,60d4fbe3187fe07b082fdb6d,64c7fed44a04f777bb1e18ce,64c801620b2c1e175ee05aee,right,-1,0.75,0.05,2,-0.061028481,0.356,,,,,,26,0,26,0,1,,,,,
,,213561,001,2023-07-31_20h46.06.560,arm3_eps,2022.2.5,Win32,60.27727547,60d4fbe3187fe07b082fdb6d,64c7fed44a04f777bb1e18ce,64c801620b2c1e175ee05aee,down,-1,0.75,0.05,3,0,0.3231,,,,,,27,0,27,0,1,,,,,
,,213561,001,2023-07-31_20h46.06.560,arm3_eps,2022.2.5,Win32,60.27727547,60d4fbe3187fe07b082fdb6d,64c7fed44a04f777bb1e18ce,64c801620b2c1e175ee05aee,right,-1,0.75,0.05,3,-0.009601036,1.0558,,,,,,28,0,28,0,1,,,,,
,,213561,001,2023-07-31_20h46.06.560,arm3_eps,2022.2.5,Win32,60.27727547,60d4fbe3187fe07b082fdb6d,64c7fed44a04f777bb1e18ce,64c801620b2c1e175ee05aee,right,-1,0.75,0.05,3,-0.015492063,0.1819,,,,,,29,0,29,0,1,,,,,
,,213561,001,2023-07-31_20h46.06.560,arm3_eps,2022.2.5,Win32,60.27727547,60d4fbe3187fe07b082fdb6d,64c7fed44a04f777bb1e18ce,64c801620b2c1e175ee05aee,right,-1,0.75,0.05,3,-0.030627629,0.1601,,,,,,30,0,30,0,1,,,,,
,,213561,001,2023-07-31_20h46.06.560,arm3_eps,2022.2.5,Win32,60.27727547,60d4fbe3187fe07b082fdb6d,64c7fed44a04f777bb1e18ce,64c801620b2c1e175ee05aee,right,-1,0.75,0.05,3,-0.033531749,0.1725,,,,,,31,0,31,0,1,,,,,
,,213561,001,2023-07-31_20h46.06.560,arm3_eps,2022.2.5,Win32,60.27727547,60d4fbe3187fe07b082fdb6d,64c7fed44a04f777bb1e18ce,64c801620b2c1e175ee05aee,right,-1,0.75,0.05,3,-0.070514789,0.1561,,,,,,32,0,32,0,1,,,,,
,,213561,001,2023-07-31_20h46.06.560,arm3_eps,2022.2.5,Win32,60.27727547,60d4fbe3187fe07b082fdb6d,64c7fed44a04f777bb1e18ce,64c801620b2c1e175ee05aee,down,-1,0.75,0.05,4,0,0.3361,,,,,,33,0,33,0,1,,,,,
,,213561,001,2023-07-31_20h46.06.560,arm3_eps,2022.2.5,Win32,60.27727547,60d4fbe3187fe07b082fdb6d,64c7fed44a04f777bb1e18ce,64c801620b2c1e175ee05aee,right,-1,0.75,0.05,4,-0.021705952,1.0844,,,,,,34,0,34,0,1,,,,,
,,213561,001,2023-07-31_20h46.06.560,arm3_eps,2022.2.5,Win32,60.27727547,60d4fbe3187fe07b082fdb6d,64c7fed44a04f777bb1e18ce,64c801620b2c1e175ee05aee,right,-1,0.75,0.05,4,-0.039692685,0.1833,,,,,,35,0,35,0,1,,,,,
,,213561,001,2023-07-31_20h46.06.560,arm3_eps,2022.2.5,Win32,60.27727547,60d4fbe3187fe07b082fdb6d,64c7fed44a04f777bb1e18ce,64c801620b2c1e175ee05aee,right,-1,0.75,0.05,4,-0.075033617,0.1505,,,,,,36,0,36,0,1,,,,,
,,213561,001,2023-07-31_20h46.06.560,arm3_eps,2022.2.5,Win32,60.27727547,60d4fbe3187fe07b082fdb6d,64c7fed44a04f777bb1e18ce,64c801620b2c1e175ee05aee,down,-1,0.75,0.05,5,0,0.3161,,,,,,37,0,37,0,1,,,,,
,,213561,001,2023-07-31_20h46.06.560,arm3_eps,2022.2.5,Win32,60.27727547,60d4fbe3187fe07b082fdb6d,64c7fed44a04f777bb1e18ce,64c801620b2c1e175ee05aee,right,-1,0.75,0.05,5,-0.018487344,0.9054,,,,,,38,0,38,0,1,,,,,
,,213561,001,2023-07-31_20h46.06.560,arm3_eps,2022.2.5,Win32,60.27727547,60d4fbe3187fe07b082fdb6d,64c7fed44a04f777bb1e18ce,64c801620b2c1e175ee05aee,right,-1,0.75,0.05,5,-0.023352993,0.1749,,,,,,39,0,39,0,1,,,,,
,,213561,001,2023-07-31_20h46.06.560,arm3_eps,2022.2.5,Win32,60.27727547,60d4fbe3187fe07b082fdb6d,64c7fed44a04f777bb1e18ce,64c801620b2c1e175ee05aee,right,-1,0.75,0.05,5,-0.056986332,0.3096,,,,,,40,0,40,0,1,,,,,
,,213561,001,2023-07-31_20h46.06.560,arm3_eps,2022.2.5,Win32,60.27727547,60d4fbe3187fe07b082fdb6d,64c7fed44a04f777bb1e18ce,64c801620b2c1e175ee05aee,down,-1,0.75,0.05,5,0,0.5128,,,,,,41,0,41,0,1,,,,,
,,213561,001,2023-07-31_20h46.06.560,arm3_eps,2022.2.5,Win32,60.27727547,60d4fbe3187fe07b082fdb6d,64c7fed44a04f777bb1e18ce,64c801620b2c1e175ee05aee,right,-1,0.75,0.05,5,-0.013496118,0.9689,,,,,,42,0,42,0,1,,,,,
,,213561,001,2023-07-31_20h46.06.560,arm3_eps,2022.2.5,Win32,60.27727547,60d4fbe3187fe07b082fdb6d,64c7fed44a04f777bb1e18ce,64c801620b2c1e175ee05aee,right,-1,0.75,0.05,5,-0.041444769,0.1625,,,,,,43,0,43,0,1,,,,,
,,213561,001,2023-07-31_20h46.06.560,arm3_eps,2022.2.5,Win32,60.27727547,60d4fbe3187fe07b082fdb6d,64c7fed44a04f777bb1e18ce,64c801620b2c1e175ee05aee,right,-1,0.75,0.05,5,-0.041611694,0.1985,,,,,,44,0,44,0,1,,,,,
,,213561,001,2023-07-31_20h46.06.560,arm3_eps,2022.2.5,Win32,60.27727547,60d4fbe3187fe07b082fdb6d,64c7fed44a04f777bb1e18ce,64c801620b2c1e175ee05aee,down,-1,0.75,0.05,6,0,0.3735,,,,,,45,0,45,0,1,,,,,
,,213561,001,2023-07-31_20h46.06.560,arm3_eps,2022.2.5,Win32,60.27727547,60d4fbe3187fe07b082fdb6d,64c7fed44a04f777bb1e18ce,64c801620b2c1e175ee05aee,right,-1,0.75,0.05,6,-0.00077571,1.0019,,,,,,46,0,46,0,1,,,,,
,,213561,001,2023-07-31_20h46.06.560,arm3_eps,2022.2.5,Win32,60.27727547,60d4fbe3187fe07b082fdb6d,64c7fed44a04f777bb1e18ce,64c801620b2c1e175ee05aee,right,-1,0.75,0.05,6,-0.000100565,0.1654,,,,,,47,0,47,0,1,,,,,
,,213561,001,2023-07-31_20h46.06.560,arm3_eps,2022.2.5,Win32,60.27727547,60d4fbe3187fe07b082fdb6d,64c7fed44a04f777bb1e18ce,64c801620b2c1e175ee05aee,right,-1,0.75,0.05,6,-0.006803758,0.1712,,,,,,48,0,48,0,1,,,,,
,,213561,001,2023-07-31_20h46.06.560,arm3_eps,2022.2.5,Win32,60.27727547,60d4fbe3187fe07b082fdb6d,64c7fed44a04f777bb1e18ce,64c801620b2c1e175ee05aee,right,-1,0.75,0.05,6,-0.033514555,0.4099,,,,,,49,0,49,0,1,,,,,
,,213561,001,2023-07-31_20h46.06.560,arm3_eps,2022.2.5,Win32,60.27727547,60d4fbe3187fe07b082fdb6d,64c7fed44a04f777bb1e18ce,64c801620b2c1e175ee05aee,down,-1,0.75,0.05,6,0,0.5992,,,,,,50,0,50,0,1,,,,,
,,213561,001,2023-07-31_20h46.06.560,arm3_eps,2022.2.5,Win32,60.27727547,60d4fbe3187fe07b082fdb6d,64c7fed44a04f777bb1e18ce,64c801620b2c1e175ee05aee,right,-1,0.75,0.05,6,-0.006667289,0.8881,,,,,,51,0,51,0,1,,,,,
,,213561,001,2023-07-31_20h46.06.560,arm3_eps,2022.2.5,Win32,60.27727547,60d4fbe3187fe07b082fdb6d,64c7fed44a04f777bb1e18ce,64c801620b2c1e175ee05aee,right,-1,0.75,0.05,6,-0.002428117,0.1741,,,,,,52,0,52,0,1,,,,,
,,213561,001,2023-07-31_20h46.06.560,arm3_eps,2022.2.5,Win32,60.27727547,60d4fbe3187fe07b082fdb6d,64c7fed44a04f777bb1e18ce,64c801620b2c1e175ee05aee,right,-1,0.75,0.05,6,0.004670329,0.1432,,,,,,53,0,53,0,1,,,,,
,,213561,001,2023-07-31_20h46.06.560,arm3_eps,2022.2.5,Win32,60.27727547,60d4fbe3187fe07b082fdb6d,64c7fed44a04f777bb1e18ce,64c801620b2c1e175ee05aee,up,-1,0.75,0.05,5,0,0.6229,,,,,,54,0,54,0,1,,,,,
,,213561,001,2023-07-31_20h46.06.560,arm3_eps,2022.2.5,Win32,60.27727547,60d4fbe3187fe07b082fdb6d,64c7fed44a04f777bb1e18ce,64c801620b2c1e175ee05aee,right,-1,0.75,0.05,5,-0.0171023,1.1949,,,,,,55,0,55,0,1,,,,,
,,213561,001,2023-07-31_20h46.06.560,arm3_eps,2022.2.5,Win32,60.27727547,60d4fbe3187fe07b082fdb6d,64c7fed44a04f777bb1e18ce,64c801620b2c1e175ee05aee,right,-1,0.75,0.05,5,-0.023458722,0.1623,,,,,,56,0,56,0,1,,,,,
,,213561,001,2023-07-31_20h46.06.560,arm3_eps,2022.2.5,Win32,60.27727547,60d4fbe3187fe07b082fdb6d,64c7fed44a04f777bb1e18ce,64c801620b2c1e175ee05aee,down,-1,0.75,0.05,5,0,0.324,,,,,,57,0,57,0,1,,,,,
,,213561,001,2023-07-31_20h46.06.560,arm3_eps,2022.2.5,Win32,60.27727547,60d4fbe3187fe07b082fdb6d,64c7fed44a04f777bb1e18ce,64c801620b2c1e175ee05aee,right,-1,0.75,0.05,5,-0.043631227,0.9691,,,,,,58,0,58,0,1,,,,,
,,213561,001,2023-07-31_20h46.06.560,arm3_eps,2022.2.5,Win32,60.27727547,60d4fbe3187fe07b082fdb6d,64c7fed44a04f777bb1e18ce,64c801620b2c1e175ee05aee,right,-1,0.75,0.05,5,-0.03188216,0.1676,,,,,,59,0,59,0,1,,,,,
,,213561,001,2023-07-31_20h46.06.560,arm3_eps,2022.2.5,Win32,60.27727547,60d4fbe3187fe07b082fdb6d,64c7fed44a04f777bb1e18ce,64c801620b2c1e175ee05aee,right,-1,0.75,0.05,5,-0.054822626,0.1609,,,,,,60,0,60,0,1,,,,,
,,213561,001,2023-07-31_20h46.06.560,arm3_eps,2022.2.5,Win32,60.27727547,60d4fbe3187fe07b082fdb6d,64c7fed44a04f777bb1e18ce,64c801620b2c1e175ee05aee,down,-1,0.75,0.05,6,0,0.2732,,,,,,61,0,61,0,1,,,,,
,,213561,001,2023-07-31_20h46.06.560,arm3_eps,2022.2.5,Win32,60.27727547,60d4fbe3187fe07b082fdb6d,64c7fed44a04f777bb1e18ce,64c801620b2c1e175ee05aee,right,-1,0.75,0.05,6,0.004765683,0.9872,,,,,,62,0,62,0,1,,,,,
,,213561,001,2023-07-31_20h46.06.560,arm3_eps,2022.2.5,Win32,60.27727547,60d4fbe3187fe07b082fdb6d,64c7fed44a04f777bb1e18ce,64c801620b2c1e175ee05aee,right,-1,0.75,0.05,6,0.014190499,0.1823,,,,,,63,0,63,0,1,,,,,
,,213561,001,2023-07-31_20h46.06.560,arm3_eps,2022.2.5,Win32,60.27727547,60d4fbe3187fe07b082fdb6d,64c7fed44a04f777bb1e18ce,64c801620b2c1e175ee05aee,right,-1,0.75,0.05,6,-0.006381307,0.5185,,,,,,64,0,64,0,1,,,,,
,,213561,001,2023-07-31_20h46.06.560,arm3_eps,2022.2.5,Win32,60.27727547,60d4fbe3187fe07b082fdb6d,64c7fed44a04f777bb1e18ce,64c801620b2c1e175ee05aee,right,-1,0.75,0.05,6,-0.025065565,0.1244,,,,,,65,0,65,0,1,,,,,
,,213561,001,2023-07-31_20h46.06.560,arm3_eps,2022.2.5,Win32,60.27727547,60d4fbe3187fe07b082fdb6d,64c7fed44a04f777bb1e18ce,64c801620b2c1e175ee05aee,right,-1,0.75,0.05,6,-0.031680067,0.6163,,,,,,66,0,66,0,1,,,,,
,,213561,001,2023-07-31_20h46.06.560,arm3_eps,2022.2.5,Win32,60.27727547,60d4fbe3187fe07b082fdb6d,64c7fed44a04f777bb1e18ce,64c801620b2c1e175ee05aee,right,-1,0.75,0.05,6,-0.030334508,0.4875,,,,,,67,0,67,0,1,,,,,
,,213561,001,2023-07-31_20h46.06.560,arm3_eps,2022.2.5,Win32,60.27727547,60d4fbe3187fe07b082fdb6d,64c7fed44a04f777bb1e18ce,64c801620b2c1e175ee05aee,right,-1,0.75,0.05,6,-0.034153062,0.1487,,,,,,68,0,68,0,1,,,,,
,,213561,001,2023-07-31_20h46.06.560,arm3_eps,2022.2.5,Win32,60.27727547,60d4fbe3187fe07b082fdb6d,64c7fed44a04f777bb1e18ce,64c801620b2c1e175ee05aee,right,-1,0.75,0.05,6,-0.062384053,0.1731,,,,,,69,0,69,0,1,,,,,
,,213561,001,2023-07-31_20h46.06.560,arm3_eps,2022.2.5,Win32,60.27727547,60d4fbe3187fe07b082fdb6d,64c7fed44a04f777bb1e18ce,64c801620b2c1e175ee05aee,up,1,0.75,0.05,5,0,0.9212,,,,,,70,0,70,0,1,,,,,
,,213561,001,2023-07-31_20h46.06.560,arm3_eps,2022.2.5,Win32,60.27727547,60d4fbe3187fe07b082fdb6d,64c7fed44a04f777bb1e18ce,64c801620b2c1e175ee05aee,right,1,0.75,0.05,5,0.003120264,0.7289,,,,,,71,0,71,0,1,,,,,
,,213561,001,2023-07-31_20h46.06.560,arm3_eps,2022.2.5,Win32,60.27727547,60d4fbe3187fe07b082fdb6d,64c7fed44a04f777bb1e18ce,64c801620b2c1e175ee05aee,right,1,0.75,0.05,5,0.022676361,0.1845,,,,,,72,0,72,0,1,,,,,
,,213561,001,2023-07-31_20h46.06.560,arm3_eps,2022.2.5,Win32,60.27727547,60d4fbe3187fe07b082fdb6d,64c7fed44a04f777bb1e18ce,64c801620b2c1e175ee05aee,up,1,0.75,0.05,6,0,0.4851,,,,,,73,0,73,0,1,,,,,
,,213561,001,2023-07-31_20h46.06.560,arm3_eps,2022.2.5,Win32,60.27727547,60d4fbe3187fe07b082fdb6d,64c7fed44a04f777bb1e18ce,64c801620b2c1e175ee05aee,right,1,0.75,0.05,6,0.021516223,0.816,,,,,,74,0,74,0,1,,,,,
,,213561,001,2023-07-31_20h46.06.560,arm3_eps,2022.2.5,Win32,60.27727547,60d4fbe3187fe07b082fdb6d,64c7fed44a04f777bb1e18ce,64c801620b2c1e175ee05aee,right,1,0.75,0.05,6,0.036471997,0.1652,,,,,,75,0,75,0,1,,,,,
,,213561,001,2023-07-31_20h46.06.560,arm3_eps,2022.2.5,Win32,60.27727547,60d4fbe3187fe07b082fdb6d,64c7fed44a04f777bb1e18ce,64c801620b2c1e175ee05aee,up,1,0.75,0.05,6,0,0.1927,,,,,,76,0,76,0,1,,,,,
,,213561,001,2023-07-31_20h46.06.560,arm3_eps,2022.2.5,Win32,60.27727547,60d4fbe3187fe07b082fdb6d,64c7fed44a04f777bb1e18ce,64c801620b2c1e175ee05aee,right,1,0.75,0.05,6,-0.007539736,0.9963,,,,,,77,0,77,0,1,,,,,
,,213561,001,2023-07-31_20h46.06.560,arm3_eps,2022.2.5,Win32,60.27727547,60d4fbe3187fe07b082fdb6d,64c7fed44a04f777bb1e18ce,64c801620b2c1e175ee05aee,right,1,0.75,0.05,6,-0.002773092,0.1589,,,,,,78,0,78,0,1,,,,,
,,213561,001,2023-07-31_20h46.06.560,arm3_eps,2022.2.5,Win32,60.27727547,60d4fbe3187fe07b082fdb6d,64c7fed44a04f777bb1e18ce,64c801620b2c1e175ee05aee,right,1,0.75,0.05,6,0.005762264,0.1591,,,,,,79,0,79,0,1,,,,,
,,213561,001,2023-07-31_20h46.06.560,arm3_eps,2022.2.5,Win32,60.27727547,60d4fbe3187fe07b082fdb6d,64c7fed44a04f777bb1e18ce,64c801620b2c1e175ee05aee,up,1,0.75,0.05,6,0,0.2319,,,,,,80,0,80,0,1,,,,,
,,213561,001,2023-07-31_20h46.06.560,arm3_eps,2022.2.5,Win32,60.27727547,60d4fbe3187fe07b082fdb6d,64c7fed44a04f777bb1e18ce,64c801620b2c1e175ee05aee,right,1,0.75,0.05,6,0.017148692,0.7496,,,,,,81,0,81,0,1,,,,,
,,213561,001,2023-07-31_20h46.06.560,arm3_eps,2022.2.5,Win32,60.27727547,60d4fbe3187fe07b082fdb6d,64c7fed44a04f777bb1e18ce,64c801620b2c1e175ee05aee,right,1,0.75,0.05,6,0.013735577,0.1756,,,,,,82,0,82,0,1,,,,,
,,213561,001,2023-07-31_20h46.06.560,arm3_eps,2022.2.5,Win32,60.27727547,60d4fbe3187fe07b082fdb6d,64c7fed44a04f777bb1e18ce,64c801620b2c1e175ee05aee,right,1,0.75,0.05,6,0.046454385,0.1522,,,,,,83,0,83,0,1,,,,,
,,213561,001,2023-07-31_20h46.06.560,arm3_eps,2022.2.5,Win32,60.27727547,60d4fbe3187fe07b082fdb6d,64c7fed44a04f777bb1e18ce,64c801620b2c1e175ee05aee,right,1,0.75,0.05,6,0.066485201,0.3327,,,,,,84,0,84,0,1,,,,,
,,213561,001,2023-07-31_20h46.06.560,arm3_eps,2022.2.5,Win32,60.27727547,60d4fbe3187fe07b082fdb6d,64c7fed44a04f777bb1e18ce,64c801620b2c1e175ee05aee,right,1,0.75,0.05,6,0.100827607,0.1714,,,,,,85,0,85,0,1,,,,,
,,213561,001,2023-07-31_20h46.06.560,arm3_eps,2022.2.5,Win32,60.27727547,60d4fbe3187fe07b082fdb6d,64c7fed44a04f777bb1e18ce,64c801620b2c1e175ee05aee,up,-1,0.75,0.05,7,0,0.3824,,,,,,86,0,86,0,1,,,,,
,,213561,001,2023-07-31_20h46.06.560,arm3_eps,2022.2.5,Win32,60.27727547,60d4fbe3187fe07b082fdb6d,64c7fed44a04f777bb1e18ce,64c801620b2c1e175ee05aee,right,-1,0.75,0.05,7,-0.001086443,0.7545,,,,,,87,0,87,0,1,,,,,
,,213561,001,2023-07-31_20h46.06.560,arm3_eps,2022.2.5,Win32,60.27727547,60d4fbe3187fe07b082fdb6d,64c7fed44a04f777bb1e18ce,64c801620b2c1e175ee05aee,right,-1,0.75,0.05,7,-0.009985374,0.2044,,,,,,88,0,88,0,1,,,,,
,,213561,001,2023-07-31_20h46.06.560,arm3_eps,2022.2.5,Win32,60.27727547,60d4fbe3187fe07b082fdb6d,64c7fed44a04f777bb1e18ce,64c801620b2c1e175ee05aee,right,-1,0.75,0.05,7,-0.024035894,0.1763,,,,,,89,0,89,0,1,,,,,
,,213561,001,2023-07-31_20h46.06.560,arm3_eps,2022.2.5,Win32,60.27727547,60d4fbe3187fe07b082fdb6d,64c7fed44a04f777bb1e18ce,64c801620b2c1e175ee05aee,right,-1,0.75,0.05,7,-0.021819104,0.4959,,,,,,90,0,90,0,1,,,,,
,,213561,001,2023-07-31_20h46.06.560,arm3_eps,2022.2.5,Win32,60.27727547,60d4fbe3187fe07b082fdb6d,64c7fed44a04f777bb1e18ce,64c801620b2c1e175ee05aee,right,-1,0.75,0.05,7,-0.056805937,0.2111,,,,,,91,0,91,0,1,,,,,
,,213561,001,2023-07-31_20h46.06.560,arm3_eps,2022.2.5,Win32,60.27727547,60d4fbe3187fe07b082fdb6d,64c7fed44a04f777bb1e18ce,64c801620b2c1e175ee05aee,down,-1,0.75,0.05,7,0,0.3844,,,,,,92,0,92,0,1,,,,,
,,213561,001,2023-07-31_20h46.06.560,arm3_eps,2022.2.5,Win32,60.27727547,60d4fbe3187fe07b082fdb6d,64c7fed44a04f777bb1e18ce,64c801620b2c1e175ee05aee,right,-1,0.75,0.05,7,-0.0392321,0.9092,,,,,,93,0,93,0,1,,,,,
,,213561,001,2023-07-31_20h46.06.560,arm3_eps,2022.2.5,Win32,60.27727547,60d4fbe3187fe07b082fdb6d,64c7fed44a04f777bb1e18ce,64c801620b2c1e175ee05aee,right,-1,0.75,0.05,7,-0.038259603,0.1854,,,,,,94,0,94,0,1,,,,,
,,213561,001,2023-07-31_20h46.06.560,arm3_eps,2022.2.5,Win32,60.27727547,60d4fbe3187fe07b082fdb6d,64c7fed44a04f777bb1e18ce,64c801620b2c1e175ee05aee,right,-1,0.75,0.05,7,0.013949704,0.1876,,,,,,95,0,95,0,1,,,,,
,,213561,001,2023-07-31_20h46.06.560,arm3_eps,2022.2.5,Win32,60.27727547,60d4fbe3187fe07b082fdb6d,64c7fed44a04f777bb1e18ce,64c801620b2c1e175ee05aee,right,-1,0.75,0.05,7,-0.008682591,0.3651,,,,,,96,0,96,0,1,,,,,
,,213561,001,2023-07-31_20h46.06.560,arm3_eps,2022.2.5,Win32,60.27727547,60d4fbe3187fe07b082fdb6d,64c7fed44a04f777bb1e18ce,64c801620b2c1e175ee05aee,right,-1,0.75,0.05,7,-0.03488633,0.1902,,,,,,97,0,97,0,1,,,,,
,,213561,001,2023-07-31_20h46.06.560,arm3_eps,2022.2.5,Win32,60.27727547,60d4fbe3187fe07b082fdb6d,64c7fed44a04f777bb1e18ce,64c801620b2c1e175ee05aee,right,-1,0.75,0.05,7,-0.03642907,0.1934,,,,,,98,0,98,0,1,,,,,
,,213561,001,2023-07-31_20h46.06.560,arm3_eps,2022.2.5,Win32,60.27727547,60d4fbe3187fe07b082fdb6d,64c7fed44a04f777bb1e18ce,64c801620b2c1e175ee05aee,right,-1,0.75,0.05,7,-0.048279057,0.3842,,,,,,99,0,99,0,1,,,,,
,,213561,001,2023-07-31_20h46.06.560,arm3_eps,2022.2.5,Win32,60.27727547,60d4fbe3187fe07b082fdb6d,64c7fed44a04f777bb1e18ce,64c801620b2c1e175ee05aee,right,-1,0.75,0.05,7,-0.092734875,0.31,,,,,,100,0,100,0,1,,,,,
,,213561,001,2023-07-31_20h46.06.560,arm3_eps,2022.2.5,Win32,60.27727547,60d4fbe3187fe07b082fdb6d,64c7fed44a04f777bb1e18ce,64c801620b2c1e175ee05aee,right,-1,0.75,0.05,7,-0.079647497,0.2364,,,,,,101,0,101,0,1,,,,,
,,213561,001,2023-07-31_20h46.06.560,arm3_eps,2022.2.5,Win32,60.27727547,60d4fbe3187fe07b082fdb6d,64c7fed44a04f777bb1e18ce,64c801620b2c1e175ee05aee,right,-1,0.75,0.05,7,-0.074757462,0.3794,,,,,,102,0,102,0,1,,,,,
,,213561,001,2023-07-31_20h46.06.560,arm3_eps,2022.2.5,Win32,60.27727547,60d4fbe3187fe07b082fdb6d,64c7fed44a04f777bb1e18ce,64c801620b2c1e175ee05aee,right,-1,0.75,0.05,7,-0.092762453,0.379,,,,,,103,0,103,0,1,,,,,
,,213561,001,2023-07-31_20h46.06.560,arm3_eps,2022.2.5,Win32,60.27727547,60d4fbe3187fe07b082fdb6d,64c7fed44a04f777bb1e18ce,64c801620b2c1e175ee05aee,right,-1,0.75,0.05,7,-0.110776694,0.4043,,,,,,104,0,104,0,1,,,,,
,,213561,001,2023-07-31_20h46.06.560,arm3_eps,2022.2.5,Win32,60.27727547,60d4fbe3187fe07b082fdb6d,64c7fed44a04f777bb1e18ce,64c801620b2c1e175ee05aee,down,-1,0.75,0.05,8,0,0.4619,,,,,,105,0,105,0,1,,,,,
,,213561,001,2023-07-31_20h46.06.560,arm3_eps,2022.2.5,Win32,60.27727547,60d4fbe3187fe07b082fdb6d,64c7fed44a04f777bb1e18ce,64c801620b2c1e175ee05aee,right,-1,0.75,0.05,8,-0.013924905,0.8626,,,,,,106,0,106,0,1,,,,,
,,213561,001,2023-07-31_20h46.06.560,arm3_eps,2022.2.5,Win32,60.27727547,60d4fbe3187fe07b082fdb6d,64c7fed44a04f777bb1e18ce,64c801620b2c1e175ee05aee,right,-1,0.75,0.05,8,-0.036906979,0.1881,,,,,,107,0,107,0,1,,,,,
,,213561,001,2023-07-31_20h46.06.560,arm3_eps,2022.2.5,Win32,60.27727547,60d4fbe3187fe07b082fdb6d,64c7fed44a04f777bb1e18ce,64c801620b2c1e175ee05aee,right,-1,0.75,0.05,8,-0.044335967,0.2791,,,,,,108,0,108,0,1,,,,,
,,213561,001,2023-07-31_20h46.06.560,arm3_eps,2022.2.5,Win32,60.27727547,60d4fbe3187fe07b082fdb6d,64c7fed44a04f777bb1e18ce,64c801620b2c1e175ee05aee,right,-1,0.75,0.05,8,-0.068002239,0.1896,,,,,,109,0,109,0,1,,,,,
,,213561,001,2023-07-31_20h46.06.560,arm3_eps,2022.2.5,Win32,60.27727547,60d4fbe3187fe07b082fdb6d,64c7fed44a04f777bb1e18ce,64c801620b2c1e175ee05aee,down,-1,0.75,0.05,9,0,0.3183,,,,,,110,0,110,0,1,,,,,
,,213561,001,2023-07-31_20h46.06.560,arm3_eps,2022.2.5,Win32,60.27727547,60d4fbe3187fe07b082fdb6d,64c7fed44a04f777bb1e18ce,64c801620b2c1e175ee05aee,right,-1,0.75,0.05,9,0.001568783,0.6188,,,,,,111,0,111,0,1,,,,,
,,213561,001,2023-07-31_20h46.06.560,arm3_eps,2022.2.5,Win32,60.27727547,60d4fbe3187fe07b082fdb6d,64c7fed44a04f777bb1e18ce,64c801620b2c1e175ee05aee,right,-1,0.75,0.05,9,-0.011258003,0.1962,,,,,,112,0,112,0,1,,,,,
,,213561,001,2023-07-31_20h46.06.560,arm3_eps,2022.2.5,Win32,60.27727547,60d4fbe3187fe07b082fdb6d,64c7fed44a04f777bb1e18ce,64c801620b2c1e175ee05aee,right,-1,0.75,0.05,9,-0.005020155,0.1836,,,,,,113,0,113,0,1,,,,,
,,213561,001,2023-07-31_20h46.06.560,arm3_eps,2022.2.5,Win32,60.27727547,60d4fbe3187fe07b082fdb6d,64c7fed44a04f777bb1e18ce,64c801620b2c1e175ee05aee,right,-1,0.75,0.05,9,-0.035692638,0.1764,,,,,,114,0,114,0,1,,,,,
,,213561,001,2023-07-31_20h46.06.560,arm3_eps,2022.2.5,Win32,60.27727547,60d4fbe3187fe07b082fdb6d,64c7fed44a04f777bb1e18ce,64c801620b2c1e175ee05aee,right,-1,0.75,0.05,9,-0.070743917,0.3985,,,,,,115,0,115,0,1,,,,,
,,213561,001,2023-07-31_20h46.06.560,arm3_eps,2022.2.5,Win32,60.27727547,60d4fbe3187fe07b082fdb6d,64c7fed44a04f777bb1e18ce,64c801620b2c1e175ee05aee,right,-1,0.75,0.05,9,-0.088250158,0.225,,,,,,116,0,116,0,1,,,,,
,,213561,001,2023-07-31_20h46.06.560,arm3_eps,2022.2.5,Win32,60.27727547,60d4fbe3187fe07b082fdb6d,64c7fed44a04f777bb1e18ce,64c801620b2c1e175ee05aee,down,-1,0.75,0.05,9,0,0.3695,,,,,,117,0,117,0,1,,,,,
,,213561,001,2023-07-31_20h46.06.560,arm3_eps,2022.2.5,Win32,60.27727547,60d4fbe3187fe07b082fdb6d,64c7fed44a04f777bb1e18ce,64c801620b2c1e175ee05aee,right,-1,0.75,0.05,9,-0.010895048,0.7787,,,,,,118,0,118,0,1,,,,,
,,213561,001,2023-07-31_20h46.06.560,arm3_eps,2022.2.5,Win32,60.27727547,60d4fbe3187fe07b082fdb6d,64c7fed44a04f777bb1e18ce,64c801620b2c1e175ee05aee,right,-1,0.75,0.05,9,-0.021081373,0.1953,,,,,,119,0,119,0,1,,,,,
,,213561,001,2023-07-31_20h46.06.560,arm3_eps,2022.2.5,Win32,60.27727547,60d4fbe3187fe07b082fdb6d,64c7fed44a04f777bb1e18ce,64c801620b2c1e175ee05aee,right,-1,0.75,0.05,9,0.002021385,0.1904,,,,,,120,0,120,0,1,,,,,
,,213561,001,2023-07-31_20h46.06.560,arm3_eps,2022.2.5,Win32,60.27727547,60d4fbe3187fe07b082fdb6d,64c7fed44a04f777bb1e18ce,64c801620b2c1e175ee05aee,right,-1,0.75,0.05,9,-0.040055931,0.4264,,,,,,121,0,121,0,1,,,,,
,,213561,001,2023-07-31_20h46.06.560,arm3_eps,2022.2.5,Win32,60.27727547,60d4fbe3187fe07b082fdb6d,64c7fed44a04f777bb1e18ce,64c801620b2c1e175ee05aee,right,-1,0.75,0.05,9,-0.046981547,0.1985,,,,,,122,0,122,0,1,,,,,
,,213561,001,2023-07-31_20h46.06.560,arm3_eps,2022.2.5,Win32,60.27727547,60d4fbe3187fe07b082fdb6d,64c7fed44a04f777bb1e18ce,64c801620b2c1e175ee05aee,right,-1,0.75,0.05,9,-0.048243444,0.1742,,,,,,123,0,123,0,1,,,,,
,,213561,001,2023-07-31_20h46.06.560,arm3_eps,2022.2.5,Win32,60.27727547,60d4fbe3187fe07b082fdb6d,64c7fed44a04f777bb1e18ce,64c801620b2c1e175ee05aee,right,-1,0.75,0.05,9,-0.086417806,0.4791,,,,,,124,0,124,0,1,,,,,
,,213561,001,2023-07-31_20h46.06.560,arm3_eps,2022.2.5,Win32,60.27727547,60d4fbe3187fe07b082fdb6d,64c7fed44a04f777bb1e18ce,64c801620b2c1e175ee05aee,right,-1,0.75,0.05,9,-0.101636657,0.2256,,,,,,125,0,125,0,1,,,,,
,,213561,001,2023-07-31_20h46.06.560,arm3_eps,2022.2.5,Win32,60.27727547,60d4fbe3187fe07b082fdb6d,64c7fed44a04f777bb1e18ce,64c801620b2c1e175ee05aee,down,-1,0.75,0.05,10,0,0.4265,,,,,,126,0,126,0,1,,,,,
,,213561,001,2023-07-31_20h46.06.560,arm3_eps,2022.2.5,Win32,60.27727547,60d4fbe3187fe07b082fdb6d,64c7fed44a04f777bb1e18ce,64c801620b2c1e175ee05aee,right,-1,0.75,0.05,10,0.005869669,1.784,,,,,,127,0,127,0,1,,,,,
,,213561,001,2023-07-31_20h46.06.560,arm3_eps,2022.2.5,Win32,60.27727547,60d4fbe3187fe07b082fdb6d,64c7fed44a04f777bb1e18ce,64c801620b2c1e175ee05aee,right,-1,0.75,0.05,10,-0.007658337,0.4527,,,,,,128,0,128,0,1,,,,,
,,213561,001,2023-07-31_20h46.06.560,arm3_eps,2022.2.5,Win32,60.27727547,60d4fbe3187fe07b082fdb6d,64c7fed44a04f777bb1e18ce,64c801620b2c1e175ee05aee,right,-1,0.75,0.05,10,-0.011103242,0.1592,,,,,,129,0,129,0,1,,,,,
,,213561,001,2023-07-31_20h46.06.560,arm3_eps,2022.2.5,Win32,60.27727547,60d4fbe3187fe07b082fdb6d,64c7fed44a04f777bb1e18ce,64c801620b2c1e175ee05aee,right,-1,0.75,0.05,10,-0.003415479,0.1667,,,,,,130,0,130,0,1,,,,,
,,213561,001,2023-07-31_20h46.06.560,arm3_eps,2022.2.5,Win32,60.27727547,60d4fbe3187fe07b082fdb6d,64c7fed44a04f777bb1e18ce,64c801620b2c1e175ee05aee,up,-1,0.75,0.05,9,0,0.2575,,,,,,131,0,131,0,1,,,,,
,,213561,001,2023-07-31_20h46.06.560,arm3_eps,2022.2.5,Win32,60.27727547,60d4fbe3187fe07b082fdb6d,64c7fed44a04f777bb1e18ce,64c801620b2c1e175ee05aee,right,-1,0.75,0.05,9,0.033988228,0.8144,,,,,,132,0,132,0,1,,,,,
,,213561,001,2023-07-31_20h46.06.560,arm3_eps,2022.2.5,Win32,60.27727547,60d4fbe3187fe07b082fdb6d,64c7fed44a04f777bb1e18ce,64c801620b2c1e175ee05aee,right,-1,0.75,0.05,9,0.049944336,0.2026,,,,,,133,0,133,0,1,,,,,
,,213561,001,2023-07-31_20h46.06.560,arm3_eps,2022.2.5,Win32,60.27727547,60d4fbe3187fe07b082fdb6d,64c7fed44a04f777bb1e18ce,64c801620b2c1e175ee05aee,right,-1,0.75,0.05,9,0.075923951,0.1721,,,,,,134,0,134,0,1,,,,,
,,213561,001,2023-07-31_20h46.06.560,arm3_eps,2022.2.5,Win32,60.27727547,60d4fbe3187fe07b082fdb6d,64c7fed44a04f777bb1e18ce,64c801620b2c1e175ee05aee,right,-1,0.75,0.05,9,0.078804998,0.2225,,,,,,135,0,135,0,1,,,,,
,,213561,001,2023-07-31_20h46.06.560,arm3_eps,2022.2.5,Win32,60.27727547,60d4fbe3187fe07b082fdb6d,64c7fed44a04f777bb1e18ce,64c801620b2c1e175ee05aee,right,-1,0.75,0.05,9,0.059574824,0.3658,,,,,,136,0,136,0,1,,,,,
,,213561,001,2023-07-31_20h46.06.560,arm3_eps,2022.2.5,Win32,60.27727547,60d4fbe3187fe07b082fdb6d,64c7fed44a04f777bb1e18ce,64c801620b2c1e175ee05aee,right,-1,0.75,0.05,9,0.074431033,0.1714,,,,,,137,0,137,0,1,,,,,
,,213561,001,2023-07-31_20h46.06.560,arm3_eps,2022.2.5,Win32,60.27727547,60d4fbe3187fe07b082fdb6d,64c7fed44a04f777bb1e18ce,64c801620b2c1e175ee05aee,right,-1,0.75,0.05,9,0.069625528,0.1947,,,,,,138,0,138,0,1,,,,,
,,213561,001,2023-07-31_20h46.06.560,arm3_eps,2022.2.5,Win32,60.27727547,60d4fbe3187fe07b082fdb6d,64c7fed44a04f777bb1e18ce,64c801620b2c1e175ee05aee,up,-1,0.75,0.05,8,0,0.2065,,,,,,139,0,139,0,1,,,,,
,,213561,001,2023-07-31_20h46.06.560,arm3_eps,2022.2.5,Win32,60.27727547,60d4fbe3187fe07b082fdb6d,64c7fed44a04f777bb1e18ce,64c801620b2c1e175ee05aee,up,-1,0.75,0.05,8,0,9.8193,,,,,,140,0,140,0,1,,,,,
,,213561,001,2023-07-31_20h46.06.560,arm3_eps,2022.2.5,Win32,60.27727547,60d4fbe3187fe07b082fdb6d,64c7fed44a04f777bb1e18ce,64c801620b2c1e175ee05aee,down,-1,0.75,0.05,9,0,1.2009,,,,,,141,0,141,0,1,,,,,
,,213561,001,2023-07-31_20h46.06.560,arm3_eps,2022.2.5,Win32,60.27727547,60d4fbe3187fe07b082fdb6d,64c7fed44a04f777bb1e18ce,64c801620b2c1e175ee05aee,down,-1,0.75,0.05,10,0,0.151,,,,,,142,0,142,0,1,,,,,
,,213561,001,2023-07-31_20h46.06.560,arm3_eps,2022.2.5,Win32,60.27727547,60d4fbe3187fe07b082fdb6d,64c7fed44a04f777bb1e18ce,64c801620b2c1e175ee05aee,right,-1,0.75,0.05,10,0.01778411,1.2181,,,,,,143,0,143,0,1,,,,,
,,213561,001,2023-07-31_20h46.06.560,arm3_eps,2022.2.5,Win32,60.27727547,60d4fbe3187fe07b082fdb6d,64c7fed44a04f777bb1e18ce,64c801620b2c1e175ee05aee,right,-1,0.75,0.05,10,0.016912324,0.184,,,,,,144,0,144,0,1,,,,,
,,213561,001,2023-07-31_20h46.06.560,arm3_eps,2022.2.5,Win32,60.27727547,60d4fbe3187fe07b082fdb6d,64c7fed44a04f777bb1e18ce,64c801620b2c1e175ee05aee,right,-1,0.75,0.05,10,0.007406909,0.1672,,,,,,145,0,145,0,1,,,,,
,,213561,001,2023-07-31_20h46.06.560,arm3_eps,2022.2.5,Win32,60.27727547,60d4fbe3187fe07b082fdb6d,64c7fed44a04f777bb1e18ce,64c801620b2c1e175ee05aee,right,-1,0.75,0.05,10,0.004445798,0.1505,,,,,,146,0,146,0,1,,,,,
,,213561,001,2023-07-31_20h46.06.560,arm3_eps,2022.2.5,Win32,60.27727547,60d4fbe3187fe07b082fdb6d,64c7fed44a04f777bb1e18ce,64c801620b2c1e175ee05aee,right,-1,0.75,0.05,10,-0.051087744,0.1674,,,,,,147,0,147,0,1,,,,,
,,213561,001,2023-07-31_20h46.06.560,arm3_eps,2022.2.5,Win32,60.27727547,60d4fbe3187fe07b082fdb6d,64c7fed44a04f777bb1e18ce,64c801620b2c1e175ee05aee,right,-1,0.75,0.05,10,-0.038823216,0.1505,,,,,,148,0,148,0,1,,,,,
,,213561,001,2023-07-31_20h46.06.560,arm3_eps,2022.2.5,Win32,60.27727547,60d4fbe3187fe07b082fdb6d,64c7fed44a04f777bb1e18ce,64c801620b2c1e175ee05aee,down,-1,0.75,0.05,11,0,0.6176,,,,,,149,0,149,0,1,,,,,
,,213561,001,2023-07-31_20h46.06.560,arm3_eps,2022.2.5,Win32,60.27727547,60d4fbe3187fe07b082fdb6d,64c7fed44a04f777bb1e18ce,64c801620b2c1e175ee05aee,right,-1,0.75,0.05,11,-0.041382548,0.3871,,,,,,150,0,150,0,1,,,,,
,,213561,001,2023-07-31_20h46.06.560,arm3_eps,2022.2.5,Win32,60.27727547,60d4fbe3187fe07b082fdb6d,64c7fed44a04f777bb1e18ce,64c801620b2c1e175ee05aee,right,-1,0.75,0.05,11,-0.030406526,0.1784,,,,,,151,0,151,0,1,,,,,
,,213561,001,2023-07-31_20h46.06.560,arm3_eps,2022.2.5,Win32,60.27727547,60d4fbe3187fe07b082fdb6d,64c7fed44a04f777bb1e18ce,64c801620b2c1e175ee05aee,right,-1,0.75,0.05,11,-0.056418878,0.1506,,,,,,152,0,152,0,1,,,,,
,,213561,001,2023-07-31_20h46.06.560,arm3_eps,2022.2.5,Win32,60.27727547,60d4fbe3187fe07b082fdb6d,64c7fed44a04f777bb1e18ce,64c801620b2c1e175ee05aee,right,-1,0.75,0.05,11,-0.046582602,0.1508,,,,,,153,0,153,0,1,,,,,
,,213561,001,2023-07-31_20h46.06.560,arm3_eps,2022.2.5,Win32,60.27727547,60d4fbe3187fe07b082fdb6d,64c7fed44a04f777bb1e18ce,64c801620b2c1e175ee05aee,right,-1,0.75,0.05,11,-0.053208,0.3509,,,,,,154,0,154,0,1,,,,,
,,213561,001,2023-07-31_20h46.06.560,arm3_eps,2022.2.5,Win32,60.27727547,60d4fbe3187fe07b082fdb6d,64c7fed44a04f777bb1e18ce,64c801620b2c1e175ee05aee,right,-1,0.75,0.05,11,-0.07551,0.1673,,,,,,155,0,155,0,1,,,,,
,,213561,001,2023-07-31_20h46.06.560,arm3_eps,2022.2.5,Win32,60.27727547,60d4fbe3187fe07b082fdb6d,64c7fed44a04f777bb1e18ce,64c801620b2c1e175ee05aee,down,-1,0.75,0.05,12,0,0.1841,,,,,,156,0,156,0,1,,,,,
,,213561,001,2023-07-31_20h46.06.560,arm3_eps,2022.2.5,Win32,60.27727547,60d4fbe3187fe07b082fdb6d,64c7fed44a04f777bb1e18ce,64c801620b2c1e175ee05aee,right,-1,0.75,0.05,12,0.010773382,0.3424,,,,,,157,0,157,0,1,,,,,
,,213561,001,2023-07-31_20h46.06.560,arm3_eps,2022.2.5,Win32,60.27727547,60d4fbe3187fe07b082fdb6d,64c7fed44a04f777bb1e18ce,64c801620b2c1e175ee05aee,right,-1,0.75,0.05,12,-0.009320509,0.1505,,,,,,158,0,158,0,1,,,,,
,,213561,001,2023-07-31_20h46.06.560,arm3_eps,2022.2.5,Win32,60.27727547,60d4fbe3187fe07b082fdb6d,64c7fed44a04f777bb1e18ce,64c801620b2c1e175ee05aee,right,-1,0.75,0.05,12,-0.025052365,0.1506,,,,,,159,0,159,0,1,,,,,
,,213561,001,2023-07-31_20h46.06.560,arm3_eps,2022.2.5,Win32,60.27727547,60d4fbe3187fe07b082fdb6d,64c7fed44a04f777bb1e18ce,64c801620b2c1e175ee05aee,right,-1,0.75,0.05,12,-0.023255849,0.1673,,,,,,160,0,160,0,1,,,,,
,,213561,001,2023-07-31_20h46.06.560,arm3_eps,2022.2.5,Win32,60.27727547,60d4fbe3187fe07b082fdb6d,64c7fed44a04f777bb1e18ce,64c801620b2c1e175ee05aee,right,-1,0.75,0.05,12,-0.050581048,0.3175,,,,,,161,0,161,0,1,,,,,
,,213561,001,2023-07-31_20h46.06.560,arm3_eps,2022.2.5,Win32,60.27727547,60d4fbe3187fe07b082fdb6d,64c7fed44a04f777bb1e18ce,64c801620b2c1e175ee05aee,right,-1,0.75,0.05,12,-0.063117827,0.1338,,,,,,162,0,162,0,1,,,,,
,,213561,001,2023-07-31_20h46.06.560,arm3_eps,2022.2.5,Win32,60.27727547,60d4fbe3187fe07b082fdb6d,64c7fed44a04f777bb1e18ce,64c801620b2c1e175ee05aee,right,-1,0.75,0.05,12,-0.060360143,0.134,,,,,,163,0,163,0,1,,,,,
,,213561,001,2023-07-31_20h46.06.560,arm3_eps,2022.2.5,Win32,60.27727547,60d4fbe3187fe07b082fdb6d,64c7fed44a04f777bb1e18ce,64c801620b2c1e175ee05aee,down,-1,0.75,0.05,13,0,0.184,,,,,,164,0,164,0,1,,,,,
,,213561,001,2023-07-31_20h46.06.560,arm3_eps,2022.2.5,Win32,60.27727547,60d4fbe3187fe07b082fdb6d,64c7fed44a04f777bb1e18ce,64c801620b2c1e175ee05aee,right,-1,0.75,0.05,13,-0.013201036,0.2845,,,,,,165,0,165,0,1,,,,,
,,213561,001,2023-07-31_20h46.06.560,arm3_eps,2022.2.5,Win32,60.27727547,60d4fbe3187fe07b082fdb6d,64c7fed44a04f777bb1e18ce,64c801620b2c1e175ee05aee,right,-1,0.75,0.05,13,-0.016029815,0.1506,,,,,,166,0,166,0,1,,,,,
,,213561,001,2023-07-31_20h46.06.560,arm3_eps,2022.2.5,Win32,60.27727547,60d4fbe3187fe07b082fdb6d,64c7fed44a04f777bb1e18ce,64c801620b2c1e175ee05aee,right,-1,0.75,0.05,13,-0.002572366,0.184,,,,,,167,0,167,0,1,,,,,
,,213561,001,2023-07-31_20h46.06.560,arm3_eps,2022.2.5,Win32,60.27727547,60d4fbe3187fe07b082fdb6d,64c7fed44a04f777bb1e18ce,64c801620b2c1e175ee05aee,right,-1,0.75,0.05,13,0.005778054,0.1841,,,,,,168,0,168,0,1,,,,,
,,213561,001,2023-07-31_20h46.06.560,arm3_eps,2022.2.5,Win32,60.27727547,60d4fbe3187fe07b082fdb6d,64c7fed44a04f777bb1e18ce,64c801620b2c1e175ee05aee,right,-1,0.75,0.05,13,-0.009136078,0.1505,,,,,,169,0,169,0,1,,,,,
,,213561,001,2023-07-31_20h46.06.560,arm3_eps,2022.2.5,Win32,60.27727547,60d4fbe3187fe07b082fdb6d,64c7fed44a04f777bb1e18ce,64c801620b2c1e175ee05aee,right,-1,0.75,0.05,13,-0.054218127,0.1673,,,,,,170,0,170,0,1,,,,,
,,213561,001,2023-07-31_20h46.06.560,arm3_eps,2022.2.5,Win32,60.27727547,60d4fbe3187fe07b082fdb6d,64c7fed44a04f777bb1e18ce,64c801620b2c1e175ee05aee,down,-1,0.75,0.05,13,0,0.2674,,,,,,171,0,171,0,1,,,,,
,,213561,001,2023-07-31_20h46.06.560,arm3_eps,2022.2.5,Win32,60.27727547,60d4fbe3187fe07b082fdb6d,64c7fed44a04f777bb1e18ce,64c801620b2c1e175ee05aee,right,-1,0.75,0.05,13,0.002421982,0.2344,,,,,,172,0,172,0,1,,,,,
,,213561,001,2023-07-31_20h46.06.560,arm3_eps,2022.2.5,Win32,60.27727547,60d4fbe3187fe07b082fdb6d,64c7fed44a04f777bb1e18ce,64c801620b2c1e175ee05aee,right,-1,0.75,0.05,13,1.76696E-05,0.301,,,,,,173,0,173,0,1,,,,,
,,213561,001,2023-07-31_20h46.06.560,arm3_eps,2022.2.5,Win32,60.27727547,60d4fbe3187fe07b082fdb6d,64c7fed44a04f777bb1e18ce,64c801620b2c1e175ee05aee,right,-1,0.75,0.05,13,0.017368768,0.1506,,,,,,174,0,174,0,1,,,,,
,,213561,001,2023-07-31_20h46.06.560,arm3_eps,2022.2.5,Win32,60.27727547,60d4fbe3187fe07b082fdb6d,64c7fed44a04f777bb1e18ce,64c801620b2c1e175ee05aee,right,-1,0.75,0.05,13,-0.007549086,0.1671,,,,,,175,0,175,0,1,,,,,
,,213561,001,2023-07-31_20h46.06.560,arm3_eps,2022.2.5,Win32,60.27727547,60d4fbe3187fe07b082fdb6d,64c7fed44a04f777bb1e18ce,64c801620b2c1e175ee05aee,right,-1,0.75,0.05,13,-0.022387716,0.1676,,,,,,176,0,176,0,1,,,,,
,,213561,001,2023-07-31_20h46.06.560,arm3_eps,2022.2.5,Win32,60.27727547,60d4fbe3187fe07b082fdb6d,64c7fed44a04f777bb1e18ce,64c801620b2c1e175ee05aee,right,-1,0.75,0.05,13,-0.009404057,0.2006,,,,,,177,0,177,0,1,,,,,
,,213561,001,2023-07-31_20h46.06.560,arm3_eps,2022.2.5,Win32,60.27727547,60d4fbe3187fe07b082fdb6d,64c7fed44a04f777bb1e18ce,64c801620b2c1e175ee05aee,right,-1,0.75,0.05,13,-0.040001207,0.5343,,,,,,178,0,178,0,1,,,,,
,,213561,001,2023-07-31_20h46.06.560,arm3_eps,2022.2.5,Win32,60.27727547,60d4fbe3187fe07b082fdb6d,64c7fed44a04f777bb1e18ce,64c801620b2c1e175ee05aee,right,-1,0.75,0.05,13,-0.0278502,0.3174,,,,,,179,0,179,0,1,,,,,
,,213561,001,2023-07-31_20h46.06.560,arm3_eps,2022.2.5,Win32,60.27727547,60d4fbe3187fe07b082fdb6d,64c7fed44a04f777bb1e18ce,64c801620b2c1e175ee05aee,down,-1,0.75,0.05,14,0,0.234,,,,,,180,0,180,0,1,,,,,
,,213561,001,2023-07-31_20h46.06.560,arm3_eps,2022.2.5,Win32,60.27727547,60d4fbe3187fe07b082fdb6d,64c7fed44a04f777bb1e18ce,64c801620b2c1e175ee05aee,right,-1,0.75,0.05,14,0.000800848,0.7012,,,,,,181,0,181,0,1,,,,,
,,213561,001,2023-07-31_20h46.06.560,arm3_eps,2022.2.5,Win32,60.27727547,60d4fbe3187fe07b082fdb6d,64c7fed44a04f777bb1e18ce,64c801620b2c1e175ee05aee,right,-1,0.75,0.05,14,-0.021944093,0.184,,,,,,182,0,182,0,1,,,,,
,,213561,001,2023-07-31_20h46.06.560,arm3_eps,2022.2.5,Win32,60.27727547,60d4fbe3187fe07b082fdb6d,64c7fed44a04f777bb1e18ce,64c801620b2c1e175ee05aee,down,-1,0.75,0.05,15,0,0.3842,,,,,,183,0,183,0,1,,,,,
,,213561,001,2023-07-31_20h46.06.560,arm3_eps,2022.2.5,Win32,60.27727547,60d4fbe3187fe07b082fdb6d,64c7fed44a04f777bb1e18ce,64c801620b2c1e175ee05aee,right,-1,0.75,0.05,15,0.015068223,0.6511,,,,,,184,0,184,0,1,,,,,
,,213561,001,2023-07-31_20h46.06.560,arm3_eps,2022.2.5,Win32,60.27727547,60d4fbe3187fe07b082fdb6d,64c7fed44a04f777bb1e18ce,64c801620b2c1e175ee05aee,right,-1,0.75,0.05,15,0.009269452,0.1675,,,,,,185,0,185,0,1,,,,,
,,213561,001,2023-07-31_20h46.06.560,arm3_eps,2022.2.5,Win32,60.27727547,60d4fbe3187fe07b082fdb6d,64c7fed44a04f777bb1e18ce,64c801620b2c1e175ee05aee,right,-1,0.75,0.05,15,0.009118933,0.1508,,,,,,186,0,186,0,1,,,,,
,,213561,001,2023-07-31_20h46.06.560,arm3_eps,2022.2.5,Win32,60.27727547,60d4fbe3187fe07b082fdb6d,64c7fed44a04f777bb1e18ce,64c801620b2c1e175ee05aee,right,-1,0.75,0.05,15,-0.011665486,0.4509,,,,,,187,0,187,0,1,,,,,
,,213561,001,2023-07-31_20h46.06.560,arm3_eps,2022.2.5,Win32,60.27727547,60d4fbe3187fe07b082fdb6d,64c7fed44a04f777bb1e18ce,64c801620b2c1e175ee05aee,down,-1,0.75,0.05,16,0,0.4339,,,,,,188,0,188,0,1,,,,,
,,213561,001,2023-07-31_20h46.06.560,arm3_eps,2022.2.5,Win32,60.27727547,60d4fbe3187fe07b082fdb6d,64c7fed44a04f777bb1e18ce,64c801620b2c1e175ee05aee,right,-1,0.75,0.05,16,-0.032122563,0.3845,,,,,,189,0,189,0,1,,,,,
,,213561,001,2023-07-31_20h46.06.560,arm3_eps,2022.2.5,Win32,60.27727547,60d4fbe3187fe07b082fdb6d,64c7fed44a04f777bb1e18ce,64c801620b2c1e175ee05aee,right,-1,0.75,0.05,16,-0.047837342,0.4173,,,,,,190,0,190,0,1,,,,,
,,213561,001,2023-07-31_20h46.06.560,arm3_eps,2022.2.5,Win32,60.27727547,60d4fbe3187fe07b082fdb6d,64c7fed44a04f777bb1e18ce,64c801620b2c1e175ee05aee,down,-1,0.75,0.05,17,0,0.2507,,,,,,191,0,191,0,1,,,,,
,,213561,001,2023-07-31_20h46.06.560,arm3_eps,2022.2.5,Win32,60.27727547,60d4fbe3187fe07b082fdb6d,64c7fed44a04f777bb1e18ce,64c801620b2c1e175ee05aee,right,-1,0.75,0.05,17,-0.026020342,0.4211,,,,,,192,0,192,0,1,,,,,
,,213561,001,2023-07-31_20h46.06.560,arm3_eps,2022.2.5,Win32,60.27727547,60d4fbe3187fe07b082fdb6d,64c7fed44a04f777bb1e18ce,64c801620b2c1e175ee05aee,right,-1,0.75,0.05,17,-0.049506682,0.2999,,,,,,193,0,193,0,1,,,,,
,,213561,001,2023-07-31_20h46.06.560,arm3_eps,2022.2.5,Win32,60.27727547,60d4fbe3187fe07b082fdb6d,64c7fed44a04f777bb1e18ce,64c801620b2c1e175ee05aee,right,-1,0.75,0.05,17,-0.040506279,0.1505,,,,,,194,0,194,0,1,,,,,
,,213561,001,2023-07-31_20h46.06.560,arm3_eps,2022.2.5,Win32,60.27727547,60d4fbe3187fe07b082fdb6d,64c7fed44a04f777bb1e18ce,64c801620b2c1e175ee05aee,down,-1,0.75,0.05,18,0,0.2342,,,,,,195,0,195,0,1,,,,,
,,213561,001,2023-07-31_20h46.06.560,arm3_eps,2022.2.5,Win32,60.27727547,60d4fbe3187fe07b082fdb6d,64c7fed44a04f777bb1e18ce,64c801620b2c1e175ee05aee,right,-1,0.75,0.05,18,-0.010858896,0.5013,,,,,,196,0,196,0,1,,,,,
,,213561,001,2023-07-31_20h46.06.560,arm3_eps,2022.2.5,Win32,60.27727547,60d4fbe3187fe07b082fdb6d,64c7fed44a04f777bb1e18ce,64c801620b2c1e175ee05aee,right,-1,0.75,0.05,18,-0.006839729,0.1668,,,,,,197,0,197,0,1,,,,,
,,213561,001,2023-07-31_20h46.06.560,arm3_eps,2022.2.5,Win32,60.27727547,60d4fbe3187fe07b082fdb6d,64c7fed44a04f777bb1e18ce,64c801620b2c1e175ee05aee,right,-1,0.75,0.05,18,-0.009532934,0.2004,,,,,,198,0,198,0,1,,,,,
,,213561,001,2023-07-31_20h46.06.560,arm3_eps,2022.2.5,Win32,60.27727547,60d4fbe3187fe07b082fdb6d,64c7fed44a04f777bb1e18ce,64c801620b2c1e175ee05aee,right,-1,0.75,0.05,18,-0.011816114,0.1506,,,,,,199,0,199,0,1,,,,,
,,213561,001,2023-07-31_20h46.06.560,arm3_eps,2022.2.5,Win32,60.27727547,60d4fbe3187fe07b082fdb6d,64c7fed44a04f777bb1e18ce,64c801620b2c1e175ee05aee,down,-1,0.75,0.05,18,0,0.4675,,,,,,200,0,200,0,1,,,,,
,,213561,001,2023-07-31_20h46.06.560,arm3_eps,2022.2.5,Win32,60.27727547,60d4fbe3187fe07b082fdb6d,64c7fed44a04f777bb1e18ce,64c801620b2c1e175ee05aee,right,-1,0.75,0.05,18,-0.011581582,0.3175,,,,,,201,0,201,0,1,,,,,
,,213561,001,2023-07-31_20h46.06.560,arm3_eps,2022.2.5,Win32,60.27727547,60d4fbe3187fe07b082fdb6d,64c7fed44a04f777bb1e18ce,64c801620b2c1e175ee05aee,right,-1,0.75,0.05,18,-0.005852636,0.2173,,,,,,202,0,202,0,1,,,,,
,,213561,001,2023-07-31_20h46.06.560,arm3_eps,2022.2.5,Win32,60.27727547,60d4fbe3187fe07b082fdb6d,64c7fed44a04f777bb1e18ce,64c801620b2c1e175ee05aee,right,-1,0.75,0.05,18,-0.017821454,0.1838,,,,,,203,0,203,0,1,,,,,
,,213561,001,2023-07-31_20h46.06.560,arm3_eps,2022.2.5,Win32,60.27727547,60d4fbe3187fe07b082fdb6d,64c7fed44a04f777bb1e18ce,64c801620b2c1e175ee05aee,right,-1,0.75,0.05,18,-0.054632735,0.1674,,,,,,204,0,204,0,1,,,,,
,,213561,001,2023-07-31_20h46.06.560,arm3_eps,2022.2.5,Win32,60.27727547,60d4fbe3187fe07b082fdb6d,64c7fed44a04f777bb1e18ce,64c801620b2c1e175ee05aee,right,-1,0.75,0.05,18,-0.129834805,0.167,,,,,,205,0,205,0,1,,,,,
,,213561,001,2023-07-31_20h46.06.560,arm3_eps,2022.2.5,Win32,60.27727547,60d4fbe3187fe07b082fdb6d,64c7fed44a04f777bb1e18ce,64c801620b2c1e175ee05aee,down,1,0.75,0.05,18,0,0.2343,,,,,,206,0,206,0,1,,,,,
,,213561,001,2023-07-31_20h46.06.560,arm3_eps,2022.2.5,Win32,60.27727547,60d4fbe3187fe07b082fdb6d,64c7fed44a04f777bb1e18ce,64c801620b2c1e175ee05aee,right,1,0.75,0.05,18,0.048045306,0.3212,,,,,,207,0,207,0,1,,,,,
,,213561,001,2023-07-31_20h46.06.560,arm3_eps,2022.2.5,Win32,60.27727547,60d4fbe3187fe07b082fdb6d,64c7fed44a04f777bb1e18ce,64c801620b2c1e175ee05aee,right,1,0.75,0.05,18,0.055642602,0.2172,,,,,,208,0,208,0,1,,,,,
,,213561,001,2023-07-31_20h46.06.560,arm3_eps,2022.2.5,Win32,60.27727547,60d4fbe3187fe07b082fdb6d,64c7fed44a04f777bb1e18ce,64c801620b2c1e175ee05aee,right,1,0.75,0.05,18,0.026463681,0.8678,,,,,,209,0,209,0,1,,,,,
,,213561,001,2023-07-31_20h46.06.560,arm3_eps,2022.2.5,Win32,60.27727547,60d4fbe3187fe07b082fdb6d,64c7fed44a04f777bb1e18ce,64c801620b2c1e175ee05aee,right,1,0.75,0.05,18,0.051423128,0.1505,,,,,,210,0,210,0,1,,,,,
,,213561,001,2023-07-31_20h46.06.560,arm3_eps,2022.2.5,Win32,60.27727547,60d4fbe3187fe07b082fdb6d,64c7fed44a04f777bb1e18ce,64c801620b2c1e175ee05aee,right,1,0.75,0.05,18,0.065455589,0.1506,,,,,,211,0,211,0,1,,,,,
,,213561,001,2023-07-31_20h46.06.560,arm3_eps,2022.2.5,Win32,60.27727547,60d4fbe3187fe07b082fdb6d,64c7fed44a04f777bb1e18ce,64c801620b2c1e175ee05aee,right,1,0.75,0.05,18,0.064870604,0.1337,,,,,,212,0,212,0,1,,,,,
,,213561,001,2023-07-31_20h46.06.560,arm3_eps,2022.2.5,Win32,60.27727547,60d4fbe3187fe07b082fdb6d,64c7fed44a04f777bb1e18ce,64c801620b2c1e175ee05aee,up,1,0.75,0.05,18,0,0.2005,,,,,,213,0,213,0,1,,,,,
,,213561,001,2023-07-31_20h46.06.560,arm3_eps,2022.2.5,Win32,60.27727547,60d4fbe3187fe07b082fdb6d,64c7fed44a04f777bb1e18ce,64c801620b2c1e175ee05aee,right,1,0.75,0.05,18,0.035792506,0.3629,,,,,,214,0,214,0,1,,,,,
,,213561,001,2023-07-31_20h46.06.560,arm3_eps,2022.2.5,Win32,60.27727547,60d4fbe3187fe07b082fdb6d,64c7fed44a04f777bb1e18ce,64c801620b2c1e175ee05aee,right,1,0.75,0.05,18,0.029725532,0.1795,,,,,,215,0,215,0,1,,,,,
,,213561,001,2023-07-31_20h46.06.560,arm3_eps,2022.2.5,Win32,60.27727547,60d4fbe3187fe07b082fdb6d,64c7fed44a04f777bb1e18ce,64c801620b2c1e175ee05aee,up,1,0.75,0.05,19,0,0.3839,,,,,,216,0,216,0,1,,,,,
,,213561,001,2023-07-31_20h46.06.560,arm3_eps,2022.2.5,Win32,60.27727547,60d4fbe3187fe07b082fdb6d,64c7fed44a04f777bb1e18ce,64c801620b2c1e175ee05aee,right,1,0.75,0.05,19,0.012376418,0.4345,,,,,,217,0,217,0,1,,,,,
,,213561,001,2023-07-31_20h46.06.560,arm3_eps,2022.2.5,Win32,60.27727547,60d4fbe3187fe07b082fdb6d,64c7fed44a04f777bb1e18ce,64c801620b2c1e175ee05aee,right,1,0.75,0.05,19,0.021179676,0.2002,,,,,,218,0,218,0,1,,,,,
,,213561,001,2023-07-31_20h46.06.560,arm3_eps,2022.2.5,Win32,60.27727547,60d4fbe3187fe07b082fdb6d,64c7fed44a04f777bb1e18ce,64c801620b2c1e175ee05aee,right,1,0.75,0.05,19,0.037973347,0.1673,,,,,,219,0,219,0,1,,,,,
,,213561,001,2023-07-31_20h46.06.560,arm3_eps,2022.2.5,Win32,60.27727547,60d4fbe3187fe07b082fdb6d,64c7fed44a04f777bb1e18ce,64c801620b2c1e175ee05aee,up,1,0.75,0.05,20,0,0.2841,,,,,,220,0,220,0,1,,,,,
,,213561,001,2023-07-31_20h46.06.560,arm3_eps,2022.2.5,Win32,60.27727547,60d4fbe3187fe07b082fdb6d,64c7fed44a04f777bb1e18ce,64c801620b2c1e175ee05aee,right,1,0.75,0.05,20,-0.022147955,0.7849,,,,,,221,0,221,0,1,,,,,
,,213561,001,2023-07-31_20h46.06.560,arm3_eps,2022.2.5,Win32,60.27727547,60d4fbe3187fe07b082fdb6d,64c7fed44a04f777bb1e18ce,64c801620b2c1e175ee05aee,right,1,0.75,0.05,20,0.015304312,0.4009,,,,,,222,0,222,0,1,,,,,
,,213561,001,2023-07-31_20h46.06.560,arm3_eps,2022.2.5,Win32,60.27727547,60d4fbe3187fe07b082fdb6d,64c7fed44a04f777bb1e18ce,64c801620b2c1e175ee05aee,right,1,0.75,0.05,20,0.029077899,0.2009,,,,,,223,0,223,0,1,,,,,
,,213561,001,2023-07-31_20h46.06.560,arm3_eps,2022.2.5,Win32,60.27727547,60d4fbe3187fe07b082fdb6d,64c7fed44a04f777bb1e18ce,64c801620b2c1e175ee05aee,up,1,0.75,0.05,21,0,0.2508,,,,,,224,0,224,0,1,,,,,
,,213561,001,2023-07-31_20h46.06.560,arm3_eps,2022.2.5,Win32,60.27727547,60d4fbe3187fe07b082fdb6d,64c7fed44a04f777bb1e18ce,64c801620b2c1e175ee05aee,right,1,0.75,0.05,21,0.009391034,0.6347,,,,,,225,0,225,0,1,,,,,
,,213561,001,2023-07-31_20h46.06.560,arm3_eps,2022.2.5,Win32,60.27727547,60d4fbe3187fe07b082fdb6d,64c7fed44a04f777bb1e18ce,64c801620b2c1e175ee05aee,right,1,0.75,0.05,21,0.042576772,0.1673,,,,,,226,0,226,0,1,,,,,
,,213561,001,2023-07-31_20h46.06.560,arm3_eps,2022.2.5,Win32,60.27727547,60d4fbe3187fe07b082fdb6d,64c7fed44a04f777bb1e18ce,64c801620b2c1e175ee05aee,up,1,0.75,0.05,22,0,0.3508,,,,,,227,0,227,0,1,,,,,
,,213561,001,2023-07-31_20h46.06.560,arm3_eps,2022.2.5,Win32,60.27727547,60d4fbe3187fe07b082fdb6d,64c7fed44a04f777bb1e18ce,64c801620b2c1e175ee05aee,right,1,0.75,0.05,22,0.013635624,0.3512,,,,,,228,0,228,0,1,,,,,
,,213561,001,2023-07-31_20h46.06.560,arm3_eps,2022.2.5,Win32,60.27727547,60d4fbe3187fe07b082fdb6d,64c7fed44a04f777bb1e18ce,64c801620b2c1e175ee05aee,right,1,0.75,0.05,22,-0.006436182,0.2504,,,,,,229,0,229,0,1,,,,,
,,213561,001,2023-07-31_20h46.06.560,arm3_eps,2022.2.5,Win32,60.27727547,60d4fbe3187fe07b082fdb6d,64c7fed44a04f777bb1e18ce,64c801620b2c1e175ee05aee,right,1,0.75,0.05,22,-0.005406589,0.4343,,,,,,230,0,230,0,1,,,,,
,,213561,001,2023-07-31_20h46.06.560,arm3_eps,2022.2.5,Win32,60.27727547,60d4fbe3187fe07b082fdb6d,64c7fed44a04f777bb1e18ce,64c801620b2c1e175ee05aee,right,1,0.75,0.05,22,0.007280106,0.184,,,,,,231,0,231,0,1,,,,,
,,213561,001,2023-07-31_20h46.06.560,arm3_eps,2022.2.5,Win32,60.27727547,60d4fbe3187fe07b082fdb6d,64c7fed44a04f777bb1e18ce,64c801620b2c1e175ee05aee,up,1,0.75,0.05,22,0,0.2507,,,,,,232,0,232,0,1,,,,,
,,213561,001,2023-07-31_20h46.06.560,arm3_eps,2022.2.5,Win32,60.27727547,60d4fbe3187fe07b082fdb6d,64c7fed44a04f777bb1e18ce,64c801620b2c1e175ee05aee,right,1,0.75,0.05,22,0.032009766,0.8516,,,,,,233,0,233,0,1,,,,,
,,213561,001,2023-07-31_20h46.06.560,arm3_eps,2022.2.5,Win32,60.27727547,60d4fbe3187fe07b082fdb6d,64c7fed44a04f777bb1e18ce,64c801620b2c1e175ee05aee,down,1,0.75,0.05,21,0,0.2008,,,,,,234,0,234,0,1,,,,,
,,213561,001,2023-07-31_20h46.06.560,arm3_eps,2022.2.5,Win32,60.27727547,60d4fbe3187fe07b082fdb6d,64c7fed44a04f777bb1e18ce,64c801620b2c1e175ee05aee,right,1,0.75,0.05,21,0.013537919,0.8012,,,,,,235,0,235,0,1,,,,,
,,213561,001,2023-07-31_20h46.06.560,arm3_eps,2022.2.5,Win32,60.27727547,60d4fbe3187fe07b082fdb6d,64c7fed44a04f777bb1e18ce,64c801620b2c1e175ee05aee,right,1,0.75,0.05,21,0.023352418,0.134,,,,,,236,0,236,0,1,,,,,
,,213561,001,2023-07-31_20h46.06.560,arm3_eps,2022.2.5,Win32,60.27727547,60d4fbe3187fe07b082fdb6d,64c7fed44a04f777bb1e18ce,64c801620b2c1e175ee05aee,up,1,0.75,0.05,22,0,0.401,,,,,,237,0,237,0,1,,,,,
,,213561,001,2023-07-31_20h46.06.560,arm3_eps,2022.2.5,Win32,60.27727547,60d4fbe3187fe07b082fdb6d,64c7fed44a04f777bb1e18ce,64c801620b2c1e175ee05aee,right,1,0.75,0.05,22,0.015561979,0.6683,,,,,,238,0,238,0,1,,,,,
,,213561,001,2023-07-31_20h46.06.560,arm3_eps,2022.2.5,Win32,60.27727547,60d4fbe3187fe07b082fdb6d,64c7fed44a04f777bb1e18ce,64c801620b2c1e175ee05aee,right,1,0.75,0.05,22,0.011035534,0.1674,,,,,,239,0,239,0,1,,,,,
,,213561,001,2023-07-31_20h46.06.560,arm3_eps,2022.2.5,Win32,60.27727547,60d4fbe3187fe07b082fdb6d,64c7fed44a04f777bb1e18ce,64c801620b2c1e175ee05aee,right,1,0.75,0.05,22,-0.015159545,0.4342,,,,,,240,0,240,0,1,,,,,
,,213561,001,2023-07-31_20h46.06.560,arm3_eps,2022.2.5,Win32,60.27727547,60d4fbe3187fe07b082fdb6d,64c7fed44a04f777bb1e18ce,64c801620b2c1e175ee05aee,right,1,0.75,0.05,22,7.05111E-05,0.1672,,,,,,241,0,241,0,1,,,,,
,,213561,001,2023-07-31_20h46.06.560,arm3_eps,2022.2.5,Win32,60.27727547,60d4fbe3187fe07b082fdb6d,64c7fed44a04f777bb1e18ce,64c801620b2c1e175ee05aee,right,1,0.75,0.05,22,-0.033409607,0.2506,,,,,,242,0,242,0,1,,,,,
,,213561,001,2023-07-31_20h46.06.560,arm3_eps,2022.2.5,Win32,60.27727547,60d4fbe3187fe07b082fdb6d,64c7fed44a04f777bb1e18ce,64c801620b2c1e175ee05aee,right,1,0.75,0.05,22,-0.048640202,0.1674,,,,,,243,0,243,0,1,,,,,
,,213561,001,2023-07-31_20h46.06.560,arm3_eps,2022.2.5,Win32,60.27727547,60d4fbe3187fe07b082fdb6d,64c7fed44a04f777bb1e18ce,64c801620b2c1e175ee05aee,right,1,0.75,0.05,22,-0.047569906,0.1173,,,,,,244,0,244,0,1,,,,,
,,213561,001,2023-07-31_20h46.06.560,arm3_eps,2022.2.5,Win32,60.27727547,60d4fbe3187fe07b082fdb6d,64c7fed44a04f777bb1e18ce,64c801620b2c1e175ee05aee,right,1,0.75,0.05,22,-0.023189146,0.9011,,,,,,245,0,245,0,1,,,,,
,,213561,001,2023-07-31_20h46.06.560,arm3_eps,2022.2.5,Win32,60.27727547,60d4fbe3187fe07b082fdb6d,64c7fed44a04f777bb1e18ce,64c801620b2c1e175ee05aee,right,1,0.75,0.05,22,-0.019415597,0.1508,,,,,,246,0,246,0,1,,,,,
,,213561,001,2023-07-31_20h46.06.560,arm3_eps,2022.2.5,Win32,60.27727547,60d4fbe3187fe07b082fdb6d,64c7fed44a04f777bb1e18ce,64c801620b2c1e175ee05aee,up,1,0.75,0.05,23,0,0.9014,,,,,,247,0,247,0,1,,,,,
,,213561,001,2023-07-31_20h46.06.560,arm3_eps,2022.2.5,Win32,60.27727547,60d4fbe3187fe07b082fdb6d,64c7fed44a04f777bb1e18ce,64c801620b2c1e175ee05aee,right,1,0.75,0.05,23,0.032868011,0.3346,,,,,,248,0,248,0,1,,,,,
,,213561,001,2023-07-31_20h46.06.560,arm3_eps,2022.2.5,Win32,60.27727547,60d4fbe3187fe07b082fdb6d,64c7fed44a04f777bb1e18ce,64c801620b2c1e175ee05aee,right,1,0.75,0.05,23,0.043198383,0.2008,,,,,,249,0,249,0,1,,,,,
,,213561,001,2023-07-31_20h46.06.560,arm3_eps,2022.2.5,Win32,60.27727547,60d4fbe3187fe07b082fdb6d,64c7fed44a04f777bb1e18ce,64c801620b2c1e175ee05aee,right,1,0.75,0.05,23,0.051507404,0.1674,,,,,,250,0,250,0,1,,,,,
,,213561,001,2023-07-31_20h46.06.560,arm3_eps,2022.2.5,Win32,60.27727547,60d4fbe3187fe07b082fdb6d,64c7fed44a04f777bb1e18ce,64c801620b2c1e175ee05aee,right,1,0.75,0.05,23,0.057813494,0.3342,,,,,,251,0,251,0,1,,,,,
,,213561,001,2023-07-31_20h46.06.560,arm3_eps,2022.2.5,Win32,60.27727547,60d4fbe3187fe07b082fdb6d,64c7fed44a04f777bb1e18ce,64c801620b2c1e175ee05aee,right,1,0.75,0.05,23,0.108519975,0.1838,,,,,,252,0,252,0,1,,,,,
,,213561,001,2023-07-31_20h46.06.560,arm3_eps,2022.2.5,Win32,60.27727547,60d4fbe3187fe07b082fdb6d,64c7fed44a04f777bb1e18ce,64c801620b2c1e175ee05aee,up,1,0.75,0.05,24,0,0.2674,,,,,,253,0,253,0,1,,,,,
,,213561,001,2023-07-31_20h46.06.560,arm3_eps,2022.2.5,Win32,60.27727547,60d4fbe3187fe07b082fdb6d,64c7fed44a04f777bb1e18ce,64c801620b2c1e175ee05aee,right,1,0.75,0.05,24,-0.011285133,0.3678,,,,,,254,0,254,0,1,,,,,
,,213561,001,2023-07-31_20h46.06.560,arm3_eps,2022.2.5,Win32,60.27727547,60d4fbe3187fe07b082fdb6d,64c7fed44a04f777bb1e18ce,64c801620b2c1e175ee05aee,right,1,0.75,0.05,24,-0.032607179,0.2341,,,,,,255,0,255,0,1,,,,,
,,213561,001,2023-07-31_20h46.06.560,arm3_eps,2022.2.5,Win32,60.27727547,60d4fbe3187fe07b082fdb6d,64c7fed44a04f777bb1e18ce,64c801620b2c1e175ee05aee,right,1,0.75,0.05,24,-0.032730039,0.1005,,,,,,256,0,256,0,1,,,,,
,,213561,001,2023-07-31_20h46.06.560,arm3_eps,2022.2.5,Win32,60.27727547,60d4fbe3187fe07b082fdb6d,64c7fed44a04f777bb1e18ce,64c801620b2c1e175ee05aee,right,1,0.75,0.05,24,0.003765953,0.2174,,,,,,257,0,257,0,1,,,,,
