space_bar.keys,space_bar.rt,participant,session,date,expName,psychopyVersion,OS,frameRate,PROLIFIC_PID,STUDY_ID,SESSION_ID,resp.keys,state,q_prob,eps_prob,score,price,resp.rt,train.thisRepN,train.thisTrialN,train.thisN,train.thisIndex,train.ran,steps.thisRepN,steps.thisTrialN,steps.thisN,steps.thisIndex,steps.ran,blocks.thisRepN,blocks.thisTrialN,blocks.thisN,blocks.thisIndex,blocks.ran
space,26.5732,225663,001,2023-07-31_20h51.16.058,arm3_eps,2022.2.5,Win32,61.447708,60f275aeeae99d547a89f5b8,64c7fed44a04f777bb1e18ce,64c80136d40b93ae556bc6d4,,,,,,,,,,,,,,,,,,,,,,
space,7.6789,225663,001,2023-07-31_20h51.16.058,arm3_eps,2022.2.5,Win32,61.447708,60f275aeeae99d547a89f5b8,64c7fed44a04f777bb1e18ce,64c80136d40b93ae556bc6d4,,,,,,,,,,,,,,,,,,,,,,
space,25.8198,225663,001,2023-07-31_20h51.16.058,arm3_eps,2022.2.5,Win32,61.447708,60f275aeeae99d547a89f5b8,64c7fed44a04f777bb1e18ce,64c80136d40b93ae556bc6d4,,,,,,,,,,,,,,,,,,,,,,
space,34.7954,225663,001,2023-07-31_20h51.16.058,arm3_eps,2022.2.5,Win32,61.447708,60f275aeeae99d547a89f5b8,64c7fed44a04f777bb1e18ce,64c80136d40b93ae556bc6d4,,,,,,,,,,,,,,,,,,,,,,
space,39.4121,225663,001,2023-07-31_20h51.16.058,arm3_eps,2022.2.5,Win32,61.447708,60f275aeeae99d547a89f5b8,64c7fed44a04f777bb1e18ce,64c80136d40b93ae556bc6d4,,,,,,,,,,,,,,,,,,,,,,
space,16.6548,225663,001,2023-07-31_20h51.16.058,arm3_eps,2022.2.5,Win32,61.447708,60f275aeeae99d547a89f5b8,64c7fed44a04f777bb1e18ce,64c80136d40b93ae556bc6d4,,,,,,,,,,,,,,,,,,,,,,
space,7.2321,225663,001,2023-07-31_20h51.16.058,arm3_eps,2022.2.5,Win32,61.447708,60f275aeeae99d547a89f5b8,64c7fed44a04f777bb1e18ce,64c80136d40b93ae556bc6d4,,,,,,,,,,,,,,,,,,,,,,
,,225663,001,2023-07-31_20h51.16.058,arm3_eps,2022.2.5,Win32,61.447708,60f275aeeae99d547a89f5b8,64c7fed44a04f777bb1e18ce,64c80136d40b93ae556bc6d4,up,-1,1,0.2429,-1,0,129.5013,0,0,0,0,1,,,,,,,,,,
,,225663,001,2023-07-31_20h51.16.058,arm3_eps,2022.2.5,Win32,61.447708,60f275aeeae99d547a89f5b8,64c7fed44a04f777bb1e18ce,64c80136d40b93ae556bc6d4,up,-1,1,0.2429,-2,0,9.2768,1,0,1,0,1,,,,,,,,,,
,,225663,001,2023-07-31_20h51.16.058,arm3_eps,2022.2.5,Win32,61.447708,60f275aeeae99d547a89f5b8,64c7fed44a04f777bb1e18ce,64c80136d40b93ae556bc6d4,down,-1,1,0.2429,-1,0,2.4361,2,0,2,0,1,,,,,,,,,,
,,225663,001,2023-07-31_20h51.16.058,arm3_eps,2022.2.5,Win32,61.447708,60f275aeeae99d547a89f5b8,64c7fed44a04f777bb1e18ce,64c80136d40b93ae556bc6d4,down,-1,1,0.2429,0,0,3.9239,3,0,3,0,1,,,,,,,,,,
,,225663,001,2023-07-31_20h51.16.058,arm3_eps,2022.2.5,Win32,61.447708,60f275aeeae99d547a89f5b8,64c7fed44a04f777bb1e18ce,64c80136d40b93ae556bc6d4,up,1,1,0.2429,-1,0,3.2468,4,0,4,0,1,,,,,,,,,,
,,225663,001,2023-07-31_20h51.16.058,arm3_eps,2022.2.5,Win32,61.447708,60f275aeeae99d547a89f5b8,64c7fed44a04f777bb1e18ce,64c80136d40b93ae556bc6d4,down,1,1,0.2429,-2,0,2.2701,5,0,5,0,1,,,,,,,,,,
,,225663,001,2023-07-31_20h51.16.058,arm3_eps,2022.2.5,Win32,61.447708,60f275aeeae99d547a89f5b8,64c7fed44a04f777bb1e18ce,64c80136d40b93ae556bc6d4,down,1,1,0.2429,-3,0,2.053,6,0,6,0,1,,,,,,,,,,
,,225663,001,2023-07-31_20h51.16.058,arm3_eps,2022.2.5,Win32,61.447708,60f275aeeae99d547a89f5b8,64c7fed44a04f777bb1e18ce,64c80136d40b93ae556bc6d4,up,1,1,0.2429,-2,0,1.8211,7,0,7,0,1,,,,,,,,,,
,,225663,001,2023-07-31_20h51.16.058,arm3_eps,2022.2.5,Win32,61.447708,60f275aeeae99d547a89f5b8,64c7fed44a04f777bb1e18ce,64c80136d40b93ae556bc6d4,down,1,1,0.2429,-3,0,1.6392,8,0,8,0,1,,,,,,,,,,
,,225663,001,2023-07-31_20h51.16.058,arm3_eps,2022.2.5,Win32,61.447708,60f275aeeae99d547a89f5b8,64c7fed44a04f777bb1e18ce,64c80136d40b93ae556bc6d4,up,1,1,0.2429,-2,0,1.6876,9,0,9,0,1,,,,,,,,,,
,,225663,001,2023-07-31_20h51.16.058,arm3_eps,2022.2.5,Win32,61.447708,60f275aeeae99d547a89f5b8,64c7fed44a04f777bb1e18ce,64c80136d40b93ae556bc6d4,up,1,1,0.2429,-1,0,2.8316,10,0,10,0,1,,,,,,,,,,
,,225663,001,2023-07-31_20h51.16.058,arm3_eps,2022.2.5,Win32,61.447708,60f275aeeae99d547a89f5b8,64c7fed44a04f777bb1e18ce,64c80136d40b93ae556bc6d4,up,1,1,0.2429,0,0,1.2829,11,0,11,0,1,,,,,,,,,,
,,225663,001,2023-07-31_20h51.16.058,arm3_eps,2022.2.5,Win32,61.447708,60f275aeeae99d547a89f5b8,64c7fed44a04f777bb1e18ce,64c80136d40b93ae556bc6d4,up,1,1,0.2429,1,0,1.5604,12,0,12,0,1,,,,,,,,,,
,,225663,001,2023-07-31_20h51.16.058,arm3_eps,2022.2.5,Win32,61.447708,60f275aeeae99d547a89f5b8,64c7fed44a04f777bb1e18ce,64c80136d40b93ae556bc6d4,up,1,1,0.2429,2,0,1.3233,13,0,13,0,1,,,,,,,,,,
,,225663,001,2023-07-31_20h51.16.058,arm3_eps,2022.2.5,Win32,61.447708,60f275aeeae99d547a89f5b8,64c7fed44a04f777bb1e18ce,64c80136d40b93ae556bc6d4,up,1,1,0.2429,3,0,1.3254,14,0,14,0,1,,,,,,,,,,
,,225663,001,2023-07-31_20h51.16.058,arm3_eps,2022.2.5,Win32,61.447708,60f275aeeae99d547a89f5b8,64c7fed44a04f777bb1e18ce,64c80136d40b93ae556bc6d4,down,1,1,0.2429,2,0,2.3209,15,0,15,0,1,,,,,,,,,,
,,225663,001,2023-07-31_20h51.16.058,arm3_eps,2022.2.5,Win32,61.447708,60f275aeeae99d547a89f5b8,64c7fed44a04f777bb1e18ce,64c80136d40b93ae556bc6d4,up,1,1,0.2429,3,0,3.4064,16,0,16,0,1,,,,,,,,,,
,,225663,001,2023-07-31_20h51.16.058,arm3_eps,2022.2.5,Win32,61.447708,60f275aeeae99d547a89f5b8,64c7fed44a04f777bb1e18ce,64c80136d40b93ae556bc6d4,up,1,1,0.2429,4,0,1.7382,17,0,17,0,1,,,,,,,,,,
,,225663,001,2023-07-31_20h51.16.058,arm3_eps,2022.2.5,Win32,61.447708,60f275aeeae99d547a89f5b8,64c7fed44a04f777bb1e18ce,64c80136d40b93ae556bc6d4,up,1,1,0.2429,5,0,1.2422,18,0,18,0,1,,,,,,,,,,
,,225663,001,2023-07-31_20h51.16.058,arm3_eps,2022.2.5,Win32,61.447708,60f275aeeae99d547a89f5b8,64c7fed44a04f777bb1e18ce,64c80136d40b93ae556bc6d4,up,-1,1,0.2429,6,0,1.3943,19,0,19,0,1,,,,,,,,,,
,,225663,001,2023-07-31_20h51.16.058,arm3_eps,2022.2.5,Win32,61.447708,60f275aeeae99d547a89f5b8,64c7fed44a04f777bb1e18ce,64c80136d40b93ae556bc6d4,down,-1,1,0.2429,7,0,1.6799,20,0,20,0,1,,,,,,,,,,
,,225663,001,2023-07-31_20h51.16.058,arm3_eps,2022.2.5,Win32,61.447708,60f275aeeae99d547a89f5b8,64c7fed44a04f777bb1e18ce,64c80136d40b93ae556bc6d4,down,-1,1,0.2429,8,0,1.6942,21,0,21,0,1,,,,,,,,,,
,,225663,001,2023-07-31_20h51.16.058,arm3_eps,2022.2.5,Win32,61.447708,60f275aeeae99d547a89f5b8,64c7fed44a04f777bb1e18ce,64c80136d40b93ae556bc6d4,up,-1,1,0.2429,7,0,1.5578,22,0,22,0,1,,,,,,,,,,
,,225663,001,2023-07-31_20h51.16.058,arm3_eps,2022.2.5,Win32,61.447708,60f275aeeae99d547a89f5b8,64c7fed44a04f777bb1e18ce,64c80136d40b93ae556bc6d4,down,-1,1,0.2429,8,0,2.1797,23,0,23,0,1,,,,,,,,,,
,,225663,001,2023-07-31_20h51.16.058,arm3_eps,2022.2.5,Win32,61.447708,60f275aeeae99d547a89f5b8,64c7fed44a04f777bb1e18ce,64c80136d40b93ae556bc6d4,down,1,1,0.2429,9,0,2.555,24,0,24,0,1,,,,,,,,,,
,,225663,001,2023-07-31_20h51.16.058,arm3_eps,2022.2.5,Win32,61.447708,60f275aeeae99d547a89f5b8,64c7fed44a04f777bb1e18ce,64c80136d40b93ae556bc6d4,up,1,1,0.2429,10,0,1.9718,25,0,25,0,1,,,,,,,,,,
,,225663,001,2023-07-31_20h51.16.058,arm3_eps,2022.2.5,Win32,61.447708,60f275aeeae99d547a89f5b8,64c7fed44a04f777bb1e18ce,64c80136d40b93ae556bc6d4,up,1,1,0.2429,11,0,1.7753,26,0,26,0,1,,,,,,,,,,
,,225663,001,2023-07-31_20h51.16.058,arm3_eps,2022.2.5,Win32,61.447708,60f275aeeae99d547a89f5b8,64c7fed44a04f777bb1e18ce,64c80136d40b93ae556bc6d4,up,1,1,0.2429,12,0,1.5892,27,0,27,0,1,,,,,,,,,,
,,225663,001,2023-07-31_20h51.16.058,arm3_eps,2022.2.5,Win32,61.447708,60f275aeeae99d547a89f5b8,64c7fed44a04f777bb1e18ce,64c80136d40b93ae556bc6d4,up,1,1,0.2429,13,0,4.3317,28,0,28,0,1,,,,,,,,,,
,,225663,001,2023-07-31_20h51.16.058,arm3_eps,2022.2.5,Win32,61.447708,60f275aeeae99d547a89f5b8,64c7fed44a04f777bb1e18ce,64c80136d40b93ae556bc6d4,down,-1,1,0.2429,12,0,1.8075,29,0,29,0,1,,,,,,,,,,
,,225663,001,2023-07-31_20h51.16.058,arm3_eps,2022.2.5,Win32,61.447708,60f275aeeae99d547a89f5b8,64c7fed44a04f777bb1e18ce,64c80136d40b93ae556bc6d4,down,-1,1,0.2429,13,0,1.7733,30,0,30,0,1,,,,,,,,,,
,,225663,001,2023-07-31_20h51.16.058,arm3_eps,2022.2.5,Win32,61.447708,60f275aeeae99d547a89f5b8,64c7fed44a04f777bb1e18ce,64c80136d40b93ae556bc6d4,down,-1,1,0.2429,14,0,1.2074,31,0,31,0,1,,,,,,,,,,
,,225663,001,2023-07-31_20h51.16.058,arm3_eps,2022.2.5,Win32,61.447708,60f275aeeae99d547a89f5b8,64c7fed44a04f777bb1e18ce,64c80136d40b93ae556bc6d4,down,-1,1,0.2429,15,0,1.1568,32,0,32,0,1,,,,,,,,,,
,,225663,001,2023-07-31_20h51.16.058,arm3_eps,2022.2.5,Win32,61.447708,60f275aeeae99d547a89f5b8,64c7fed44a04f777bb1e18ce,64c80136d40b93ae556bc6d4,down,1,1,0.2429,16,0,0.9947,33,0,33,0,1,,,,,,,,,,
,,225663,001,2023-07-31_20h51.16.058,arm3_eps,2022.2.5,Win32,61.447708,60f275aeeae99d547a89f5b8,64c7fed44a04f777bb1e18ce,64c80136d40b93ae556bc6d4,up,1,1,0.2429,17,0,3.4143,34,0,34,0,1,,,,,,,,,,
,,225663,001,2023-07-31_20h51.16.058,arm3_eps,2022.2.5,Win32,61.447708,60f275aeeae99d547a89f5b8,64c7fed44a04f777bb1e18ce,64c80136d40b93ae556bc6d4,up,1,1,0.2429,18,0,1.7364,35,0,35,0,1,,,,,,,,,,
,,225663,001,2023-07-31_20h51.16.058,arm3_eps,2022.2.5,Win32,61.447708,60f275aeeae99d547a89f5b8,64c7fed44a04f777bb1e18ce,64c80136d40b93ae556bc6d4,down,1,1,0.2429,17,0,1.6556,36,0,36,0,1,,,,,,,,,,
,,225663,001,2023-07-31_20h51.16.058,arm3_eps,2022.2.5,Win32,61.447708,60f275aeeae99d547a89f5b8,64c7fed44a04f777bb1e18ce,64c80136d40b93ae556bc6d4,up,-1,1,0.2429,18,0,1.8399,37,0,37,0,1,,,,,,,,,,
,,225663,001,2023-07-31_20h51.16.058,arm3_eps,2022.2.5,Win32,61.447708,60f275aeeae99d547a89f5b8,64c7fed44a04f777bb1e18ce,64c80136d40b93ae556bc6d4,up,-1,1,0.2429,17,0,1.1083,38,0,38,0,1,,,,,,,,,,
,,225663,001,2023-07-31_20h51.16.058,arm3_eps,2022.2.5,Win32,61.447708,60f275aeeae99d547a89f5b8,64c7fed44a04f777bb1e18ce,64c80136d40b93ae556bc6d4,down,-1,1,0.2429,18,0,2.2248,39,0,39,0,1,,,,,,,,,,
,,225663,001,2023-07-31_20h51.16.058,arm3_eps,2022.2.5,Win32,61.447708,60f275aeeae99d547a89f5b8,64c7fed44a04f777bb1e18ce,64c80136d40b93ae556bc6d4,up,-1,1,0.2429,17,0,1.3084,40,0,40,0,1,,,,,,,,,,
,,225663,001,2023-07-31_20h51.16.058,arm3_eps,2022.2.5,Win32,61.447708,60f275aeeae99d547a89f5b8,64c7fed44a04f777bb1e18ce,64c80136d40b93ae556bc6d4,down,-1,1,0.2429,18,0,2.1078,41,0,41,0,1,,,,,,,,,,
,,225663,001,2023-07-31_20h51.16.058,arm3_eps,2022.2.5,Win32,61.447708,60f275aeeae99d547a89f5b8,64c7fed44a04f777bb1e18ce,64c80136d40b93ae556bc6d4,down,-1,1,0.2429,19,0,2.6232,42,0,42,0,1,,,,,,,,,,
,,225663,001,2023-07-31_20h51.16.058,arm3_eps,2022.2.5,Win32,61.447708,60f275aeeae99d547a89f5b8,64c7fed44a04f777bb1e18ce,64c80136d40b93ae556bc6d4,down,1,1,0.2429,20,0,1.4961,43,0,43,0,1,,,,,,,,,,
,,225663,001,2023-07-31_20h51.16.058,arm3_eps,2022.2.5,Win32,61.447708,60f275aeeae99d547a89f5b8,64c7fed44a04f777bb1e18ce,64c80136d40b93ae556bc6d4,up,1,1,0.2429,21,0,1.5586,44,0,44,0,1,,,,,,,,,,
,,225663,001,2023-07-31_20h51.16.058,arm3_eps,2022.2.5,Win32,61.447708,60f275aeeae99d547a89f5b8,64c7fed44a04f777bb1e18ce,64c80136d40b93ae556bc6d4,up,-1,1,0.2429,22,0,1.2097,45,0,45,0,1,,,,,,,,,,
,,225663,001,2023-07-31_20h51.16.058,arm3_eps,2022.2.5,Win32,61.447708,60f275aeeae99d547a89f5b8,64c7fed44a04f777bb1e18ce,64c80136d40b93ae556bc6d4,up,-1,1,0.2429,21,0,2.1453,46,0,46,0,1,,,,,,,,,,
,,225663,001,2023-07-31_20h51.16.058,arm3_eps,2022.2.5,Win32,61.447708,60f275aeeae99d547a89f5b8,64c7fed44a04f777bb1e18ce,64c80136d40b93ae556bc6d4,down,-1,1,0.2429,22,0,2.6137,47,0,47,0,1,,,,,,,,,,
,,225663,001,2023-07-31_20h51.16.058,arm3_eps,2022.2.5,Win32,61.447708,60f275aeeae99d547a89f5b8,64c7fed44a04f777bb1e18ce,64c80136d40b93ae556bc6d4,down,-1,1,0.2429,23,0,2.3076,48,0,48,0,1,,,,,,,,,,
,,225663,001,2023-07-31_20h51.16.058,arm3_eps,2022.2.5,Win32,61.447708,60f275aeeae99d547a89f5b8,64c7fed44a04f777bb1e18ce,64c80136d40b93ae556bc6d4,down,-1,1,0.2429,23,0,1.2784,49,0,49,0,1,,,,,,,,,,
space,10.1438,225663,001,2023-07-31_20h51.16.058,arm3_eps,2022.2.5,Win32,61.447708,60f275aeeae99d547a89f5b8,64c7fed44a04f777bb1e18ce,64c80136d40b93ae556bc6d4,,,,,,,,,,,,,,,,,,,,,,
space,6.0871,225663,001,2023-07-31_20h51.16.058,arm3_eps,2022.2.5,Win32,61.447708,60f275aeeae99d547a89f5b8,64c7fed44a04f777bb1e18ce,64c80136d40b93ae556bc6d4,,,,,,,,,,,,,,,,,,,,,,
space,2.6701,225663,001,2023-07-31_20h51.16.058,arm3_eps,2022.2.5,Win32,61.447708,60f275aeeae99d547a89f5b8,64c7fed44a04f777bb1e18ce,64c80136d40b93ae556bc6d4,,,,,,,,,,,,,,,,,,,,,,
space,23.147,225663,001,2023-07-31_20h51.16.058,arm3_eps,2022.2.5,Win32,61.447708,60f275aeeae99d547a89f5b8,64c7fed44a04f777bb1e18ce,64c80136d40b93ae556bc6d4,,,,,,,,,,,,,,,,,,,,,,
space,22.782,225663,001,2023-07-31_20h51.16.058,arm3_eps,2022.2.5,Win32,61.447708,60f275aeeae99d547a89f5b8,64c7fed44a04f777bb1e18ce,64c80136d40b93ae556bc6d4,,,,,,,,,,,,,,,,,,,,,,
space,6.196,225663,001,2023-07-31_20h51.16.058,arm3_eps,2022.2.5,Win32,61.447708,60f275aeeae99d547a89f5b8,64c7fed44a04f777bb1e18ce,64c80136d40b93ae556bc6d4,,,,,,,,,,,,,,,,,,,,,,
,,225663,001,2023-07-31_20h51.16.058,arm3_eps,2022.2.5,Win32,61.447708,60f275aeeae99d547a89f5b8,64c7fed44a04f777bb1e18ce,64c80136d40b93ae556bc6d4,down,1,0.75,0.2429,1,0,2.8771,0,0,0,0,1,,,,,,,,,,
,,225663,001,2023-07-31_20h51.16.058,arm3_eps,2022.2.5,Win32,61.447708,60f275aeeae99d547a89f5b8,64c7fed44a04f777bb1e18ce,64c80136d40b93ae556bc6d4,up,1,0.75,0.2429,1,0,1.5068,1,0,1,0,1,,,,,,,,,,
,,225663,001,2023-07-31_20h51.16.058,arm3_eps,2022.2.5,Win32,61.447708,60f275aeeae99d547a89f5b8,64c7fed44a04f777bb1e18ce,64c80136d40b93ae556bc6d4,up,1,0.75,0.2429,1,0,1.7699,2,0,2,0,1,,,,,,,,,,
,,225663,001,2023-07-31_20h51.16.058,arm3_eps,2022.2.5,Win32,61.447708,60f275aeeae99d547a89f5b8,64c7fed44a04f777bb1e18ce,64c80136d40b93ae556bc6d4,up,1,0.75,0.2429,2,0,2.4386,3,0,3,0,1,,,,,,,,,,
,,225663,001,2023-07-31_20h51.16.058,arm3_eps,2022.2.5,Win32,61.447708,60f275aeeae99d547a89f5b8,64c7fed44a04f777bb1e18ce,64c80136d40b93ae556bc6d4,up,-1,0.75,0.2429,2,0,1.4564,4,0,4,0,1,,,,,,,,,,
,,225663,001,2023-07-31_20h51.16.058,arm3_eps,2022.2.5,Win32,61.447708,60f275aeeae99d547a89f5b8,64c7fed44a04f777bb1e18ce,64c80136d40b93ae556bc6d4,down,-1,0.75,0.2429,3,0,3.1422,5,0,5,0,1,,,,,,,,,,
,,225663,001,2023-07-31_20h51.16.058,arm3_eps,2022.2.5,Win32,61.447708,60f275aeeae99d547a89f5b8,64c7fed44a04f777bb1e18ce,64c80136d40b93ae556bc6d4,down,-1,0.75,0.2429,3,0,1.2921,6,0,6,0,1,,,,,,,,,,
,,225663,001,2023-07-31_20h51.16.058,arm3_eps,2022.2.5,Win32,61.447708,60f275aeeae99d547a89f5b8,64c7fed44a04f777bb1e18ce,64c80136d40b93ae556bc6d4,down,1,0.75,0.2429,4,0,1.9805,7,0,7,0,1,,,,,,,,,,
,,225663,001,2023-07-31_20h51.16.058,arm3_eps,2022.2.5,Win32,61.447708,60f275aeeae99d547a89f5b8,64c7fed44a04f777bb1e18ce,64c80136d40b93ae556bc6d4,up,1,0.75,0.2429,5,0,1.7293,8,0,8,0,1,,,,,,,,,,
,,225663,001,2023-07-31_20h51.16.058,arm3_eps,2022.2.5,Win32,61.447708,60f275aeeae99d547a89f5b8,64c7fed44a04f777bb1e18ce,64c80136d40b93ae556bc6d4,up,1,0.75,0.2429,6,0,1.2732,9,0,9,0,1,,,,,,,,,,
,,225663,001,2023-07-31_20h51.16.058,arm3_eps,2022.2.5,Win32,61.447708,60f275aeeae99d547a89f5b8,64c7fed44a04f777bb1e18ce,64c80136d40b93ae556bc6d4,up,1,0.75,0.2429,6,0,2.0487,10,0,10,0,1,,,,,,,,,,
,,225663,001,2023-07-31_20h51.16.058,arm3_eps,2022.2.5,Win32,61.447708,60f275aeeae99d547a89f5b8,64c7fed44a04f777bb1e18ce,64c80136d40b93ae556bc6d4,up,1,0.75,0.2429,7,0,1.6989,11,0,11,0,1,,,,,,,,,,
,,225663,001,2023-07-31_20h51.16.058,arm3_eps,2022.2.5,Win32,61.447708,60f275aeeae99d547a89f5b8,64c7fed44a04f777bb1e18ce,64c80136d40b93ae556bc6d4,down,-1,0.75,0.2429,6,0,1.7454,12,0,12,0,1,,,,,,,,,,
,,225663,001,2023-07-31_20h51.16.058,arm3_eps,2022.2.5,Win32,61.447708,60f275aeeae99d547a89f5b8,64c7fed44a04f777bb1e18ce,64c80136d40b93ae556bc6d4,down,-1,0.75,0.2429,7,0,1.7558,13,0,13,0,1,,,,,,,,,,
,,225663,001,2023-07-31_20h51.16.058,arm3_eps,2022.2.5,Win32,61.447708,60f275aeeae99d547a89f5b8,64c7fed44a04f777bb1e18ce,64c80136d40b93ae556bc6d4,down,-1,0.75,0.2429,8,0,1.2574,14,0,14,0,1,,,,,,,,,,
,,225663,001,2023-07-31_20h51.16.058,arm3_eps,2022.2.5,Win32,61.447708,60f275aeeae99d547a89f5b8,64c7fed44a04f777bb1e18ce,64c80136d40b93ae556bc6d4,down,-1,0.75,0.2429,9,0,1.5002,15,0,15,0,1,,,,,,,,,,
,,225663,001,2023-07-31_20h51.16.058,arm3_eps,2022.2.5,Win32,61.447708,60f275aeeae99d547a89f5b8,64c7fed44a04f777bb1e18ce,64c80136d40b93ae556bc6d4,down,-1,0.75,0.2429,9,0,1.2378,16,0,16,0,1,,,,,,,,,,
,,225663,001,2023-07-31_20h51.16.058,arm3_eps,2022.2.5,Win32,61.447708,60f275aeeae99d547a89f5b8,64c7fed44a04f777bb1e18ce,64c80136d40b93ae556bc6d4,up,-1,0.75,0.2429,8,0,1.9081,17,0,17,0,1,,,,,,,,,,
,,225663,001,2023-07-31_20h51.16.058,arm3_eps,2022.2.5,Win32,61.447708,60f275aeeae99d547a89f5b8,64c7fed44a04f777bb1e18ce,64c80136d40b93ae556bc6d4,up,-1,0.75,0.2429,8,0,1.5251,18,0,18,0,1,,,,,,,,,,
,,225663,001,2023-07-31_20h51.16.058,arm3_eps,2022.2.5,Win32,61.447708,60f275aeeae99d547a89f5b8,64c7fed44a04f777bb1e18ce,64c80136d40b93ae556bc6d4,up,-1,0.75,0.2429,8,0,1.2577,19,0,19,0,1,,,,,,,,,,
,,225663,001,2023-07-31_20h51.16.058,arm3_eps,2022.2.5,Win32,61.447708,60f275aeeae99d547a89f5b8,64c7fed44a04f777bb1e18ce,64c80136d40b93ae556bc6d4,down,-1,0.75,0.2429,8,0,2.7829,20,0,20,0,1,,,,,,,,,,
,,225663,001,2023-07-31_20h51.16.058,arm3_eps,2022.2.5,Win32,61.447708,60f275aeeae99d547a89f5b8,64c7fed44a04f777bb1e18ce,64c80136d40b93ae556bc6d4,up,1,0.75,0.2429,7,0,1.4487,21,0,21,0,1,,,,,,,,,,
,,225663,001,2023-07-31_20h51.16.058,arm3_eps,2022.2.5,Win32,61.447708,60f275aeeae99d547a89f5b8,64c7fed44a04f777bb1e18ce,64c80136d40b93ae556bc6d4,up,1,0.75,0.2429,8,0,2.5611,22,0,22,0,1,,,,,,,,,,
,,225663,001,2023-07-31_20h51.16.058,arm3_eps,2022.2.5,Win32,61.447708,60f275aeeae99d547a89f5b8,64c7fed44a04f777bb1e18ce,64c80136d40b93ae556bc6d4,down,1,0.75,0.2429,7,0,1.8895,23,0,23,0,1,,,,,,,,,,
,,225663,001,2023-07-31_20h51.16.058,arm3_eps,2022.2.5,Win32,61.447708,60f275aeeae99d547a89f5b8,64c7fed44a04f777bb1e18ce,64c80136d40b93ae556bc6d4,up,1,0.75,0.2429,7,0,1.5325,24,0,24,0,1,,,,,,,,,,
,,225663,001,2023-07-31_20h51.16.058,arm3_eps,2022.2.5,Win32,61.447708,60f275aeeae99d547a89f5b8,64c7fed44a04f777bb1e18ce,64c80136d40b93ae556bc6d4,up,-1,0.75,0.2429,7,0,2.6901,25,0,25,0,1,,,,,,,,,,
,,225663,001,2023-07-31_20h51.16.058,arm3_eps,2022.2.5,Win32,61.447708,60f275aeeae99d547a89f5b8,64c7fed44a04f777bb1e18ce,64c80136d40b93ae556bc6d4,up,1,0.75,0.2429,7,0,1.9451,26,0,26,0,1,,,,,,,,,,
,,225663,001,2023-07-31_20h51.16.058,arm3_eps,2022.2.5,Win32,61.447708,60f275aeeae99d547a89f5b8,64c7fed44a04f777bb1e18ce,64c80136d40b93ae556bc6d4,up,1,0.75,0.2429,8,0,1.4771,27,0,27,0,1,,,,,,,,,,
,,225663,001,2023-07-31_20h51.16.058,arm3_eps,2022.2.5,Win32,61.447708,60f275aeeae99d547a89f5b8,64c7fed44a04f777bb1e18ce,64c80136d40b93ae556bc6d4,down,1,0.75,0.2429,7,0,1.3563,28,0,28,0,1,,,,,,,,,,
,,225663,001,2023-07-31_20h51.16.058,arm3_eps,2022.2.5,Win32,61.447708,60f275aeeae99d547a89f5b8,64c7fed44a04f777bb1e18ce,64c80136d40b93ae556bc6d4,up,1,0.75,0.2429,8,0,1.2538,29,0,29,0,1,,,,,,,,,,
,,225663,001,2023-07-31_20h51.16.058,arm3_eps,2022.2.5,Win32,61.447708,60f275aeeae99d547a89f5b8,64c7fed44a04f777bb1e18ce,64c80136d40b93ae556bc6d4,up,1,0.75,0.2429,8,0,1.2361,30,0,30,0,1,,,,,,,,,,
,,225663,001,2023-07-31_20h51.16.058,arm3_eps,2022.2.5,Win32,61.447708,60f275aeeae99d547a89f5b8,64c7fed44a04f777bb1e18ce,64c80136d40b93ae556bc6d4,up,1,0.75,0.2429,9,0,1.0201,31,0,31,0,1,,,,,,,,,,
,,225663,001,2023-07-31_20h51.16.058,arm3_eps,2022.2.5,Win32,61.447708,60f275aeeae99d547a89f5b8,64c7fed44a04f777bb1e18ce,64c80136d40b93ae556bc6d4,down,1,0.75,0.2429,9,0,1.4073,32,0,32,0,1,,,,,,,,,,
,,225663,001,2023-07-31_20h51.16.058,arm3_eps,2022.2.5,Win32,61.447708,60f275aeeae99d547a89f5b8,64c7fed44a04f777bb1e18ce,64c80136d40b93ae556bc6d4,up,-1,0.75,0.2429,9,0,2.6622,33,0,33,0,1,,,,,,,,,,
,,225663,001,2023-07-31_20h51.16.058,arm3_eps,2022.2.5,Win32,61.447708,60f275aeeae99d547a89f5b8,64c7fed44a04f777bb1e18ce,64c80136d40b93ae556bc6d4,up,-1,0.75,0.2429,9,0,1.9544,34,0,34,0,1,,,,,,,,,,
,,225663,001,2023-07-31_20h51.16.058,arm3_eps,2022.2.5,Win32,61.447708,60f275aeeae99d547a89f5b8,64c7fed44a04f777bb1e18ce,64c80136d40b93ae556bc6d4,up,-1,0.75,0.2429,8,0,1.1052,35,0,35,0,1,,,,,,,,,,
,,225663,001,2023-07-31_20h51.16.058,arm3_eps,2022.2.5,Win32,61.447708,60f275aeeae99d547a89f5b8,64c7fed44a04f777bb1e18ce,64c80136d40b93ae556bc6d4,up,1,0.75,0.2429,7,0,2.1379,36,0,36,0,1,,,,,,,,,,
,,225663,001,2023-07-31_20h51.16.058,arm3_eps,2022.2.5,Win32,61.447708,60f275aeeae99d547a89f5b8,64c7fed44a04f777bb1e18ce,64c80136d40b93ae556bc6d4,up,1,0.75,0.2429,7,0,1.2083,37,0,37,0,1,,,,,,,,,,
,,225663,001,2023-07-31_20h51.16.058,arm3_eps,2022.2.5,Win32,61.447708,60f275aeeae99d547a89f5b8,64c7fed44a04f777bb1e18ce,64c80136d40b93ae556bc6d4,up,1,0.75,0.2429,7,0,0.9907,38,0,38,0,1,,,,,,,,,,
,,225663,001,2023-07-31_20h51.16.058,arm3_eps,2022.2.5,Win32,61.447708,60f275aeeae99d547a89f5b8,64c7fed44a04f777bb1e18ce,64c80136d40b93ae556bc6d4,up,1,0.75,0.2429,8,0,1.1833,39,0,39,0,1,,,,,,,,,,
,,225663,001,2023-07-31_20h51.16.058,arm3_eps,2022.2.5,Win32,61.447708,60f275aeeae99d547a89f5b8,64c7fed44a04f777bb1e18ce,64c80136d40b93ae556bc6d4,up,1,0.75,0.2429,9,0,1.1108,40,0,40,0,1,,,,,,,,,,
,,225663,001,2023-07-31_20h51.16.058,arm3_eps,2022.2.5,Win32,61.447708,60f275aeeae99d547a89f5b8,64c7fed44a04f777bb1e18ce,64c80136d40b93ae556bc6d4,up,-1,0.75,0.2429,10,0,1.1764,41,0,41,0,1,,,,,,,,,,
,,225663,001,2023-07-31_20h51.16.058,arm3_eps,2022.2.5,Win32,61.447708,60f275aeeae99d547a89f5b8,64c7fed44a04f777bb1e18ce,64c80136d40b93ae556bc6d4,up,-1,0.75,0.2429,10,0,1.0227,42,0,42,0,1,,,,,,,,,,
,,225663,001,2023-07-31_20h51.16.058,arm3_eps,2022.2.5,Win32,61.447708,60f275aeeae99d547a89f5b8,64c7fed44a04f777bb1e18ce,64c80136d40b93ae556bc6d4,down,-1,0.75,0.2429,10,0,1.7207,43,0,43,0,1,,,,,,,,,,
,,225663,001,2023-07-31_20h51.16.058,arm3_eps,2022.2.5,Win32,61.447708,60f275aeeae99d547a89f5b8,64c7fed44a04f777bb1e18ce,64c80136d40b93ae556bc6d4,down,-1,0.75,0.2429,10,0,1.475,44,0,44,0,1,,,,,,,,,,
,,225663,001,2023-07-31_20h51.16.058,arm3_eps,2022.2.5,Win32,61.447708,60f275aeeae99d547a89f5b8,64c7fed44a04f777bb1e18ce,64c80136d40b93ae556bc6d4,down,-1,0.75,0.2429,11,0,1.2438,45,0,45,0,1,,,,,,,,,,
,,225663,001,2023-07-31_20h51.16.058,arm3_eps,2022.2.5,Win32,61.447708,60f275aeeae99d547a89f5b8,64c7fed44a04f777bb1e18ce,64c80136d40b93ae556bc6d4,down,-1,0.75,0.2429,11,0,1.0801,46,0,46,0,1,,,,,,,,,,
,,225663,001,2023-07-31_20h51.16.058,arm3_eps,2022.2.5,Win32,61.447708,60f275aeeae99d547a89f5b8,64c7fed44a04f777bb1e18ce,64c80136d40b93ae556bc6d4,up,1,0.75,0.2429,10,0,1.7075,47,0,47,0,1,,,,,,,,,,
,,225663,001,2023-07-31_20h51.16.058,arm3_eps,2022.2.5,Win32,61.447708,60f275aeeae99d547a89f5b8,64c7fed44a04f777bb1e18ce,64c80136d40b93ae556bc6d4,up,1,0.75,0.2429,11,0,1.1764,48,0,48,0,1,,,,,,,,,,
,,225663,001,2023-07-31_20h51.16.058,arm3_eps,2022.2.5,Win32,61.447708,60f275aeeae99d547a89f5b8,64c7fed44a04f777bb1e18ce,64c80136d40b93ae556bc6d4,up,1,0.75,0.2429,11,0,1.0435,49,0,49,0,1,,,,,,,,,,
space,8.3792,225663,001,2023-07-31_20h51.16.058,arm3_eps,2022.2.5,Win32,61.447708,60f275aeeae99d547a89f5b8,64c7fed44a04f777bb1e18ce,64c80136d40b93ae556bc6d4,,,,,,,,,,,,,,,,,,,,,,
space,7.9592,225663,001,2023-07-31_20h51.16.058,arm3_eps,2022.2.5,Win32,61.447708,60f275aeeae99d547a89f5b8,64c7fed44a04f777bb1e18ce,64c80136d40b93ae556bc6d4,,,,,,,,,,,,,,,,,,,,,,
space,1.1309,225663,001,2023-07-31_20h51.16.058,arm3_eps,2022.2.5,Win32,61.447708,60f275aeeae99d547a89f5b8,64c7fed44a04f777bb1e18ce,64c80136d40b93ae556bc6d4,,,,,,,,,,,,,,,,,,,,,,
,,225663,001,2023-07-31_20h51.16.058,arm3_eps,2022.2.5,Win32,61.447708,60f275aeeae99d547a89f5b8,64c7fed44a04f777bb1e18ce,64c80136d40b93ae556bc6d4,up,1,0.75,0.05,1,0,1.2312,0,0,0,0,1,,,,,,,,,,
,,225663,001,2023-07-31_20h51.16.058,arm3_eps,2022.2.5,Win32,61.447708,60f275aeeae99d547a89f5b8,64c7fed44a04f777bb1e18ce,64c80136d40b93ae556bc6d4,down,1,0.75,0.05,0,0,1.6325,1,0,1,0,1,,,,,,,,,,
,,225663,001,2023-07-31_20h51.16.058,arm3_eps,2022.2.5,Win32,61.447708,60f275aeeae99d547a89f5b8,64c7fed44a04f777bb1e18ce,64c80136d40b93ae556bc6d4,up,1,0.75,0.05,1,0,1.2316,2,0,2,0,1,,,,,,,,,,
,,225663,001,2023-07-31_20h51.16.058,arm3_eps,2022.2.5,Win32,61.447708,60f275aeeae99d547a89f5b8,64c7fed44a04f777bb1e18ce,64c80136d40b93ae556bc6d4,down,1,0.75,0.05,1,0,1.2495,3,0,3,0,1,,,,,,,,,,
,,225663,001,2023-07-31_20h51.16.058,arm3_eps,2022.2.5,Win32,61.447708,60f275aeeae99d547a89f5b8,64c7fed44a04f777bb1e18ce,64c80136d40b93ae556bc6d4,down,1,0.75,0.05,1,0,1.0136,4,0,4,0,1,,,,,,,,,,
,,225663,001,2023-07-31_20h51.16.058,arm3_eps,2022.2.5,Win32,61.447708,60f275aeeae99d547a89f5b8,64c7fed44a04f777bb1e18ce,64c80136d40b93ae556bc6d4,up,1,0.75,0.05,2,0,1.1097,5,0,5,0,1,,,,,,,,,,
,,225663,001,2023-07-31_20h51.16.058,arm3_eps,2022.2.5,Win32,61.447708,60f275aeeae99d547a89f5b8,64c7fed44a04f777bb1e18ce,64c80136d40b93ae556bc6d4,up,1,0.75,0.05,2,0,1.1894,6,0,6,0,1,,,,,,,,,,
,,225663,001,2023-07-31_20h51.16.058,arm3_eps,2022.2.5,Win32,61.447708,60f275aeeae99d547a89f5b8,64c7fed44a04f777bb1e18ce,64c80136d40b93ae556bc6d4,up,1,0.75,0.05,2,0,1.075,7,0,7,0,1,,,,,,,,,,
,,225663,001,2023-07-31_20h51.16.058,arm3_eps,2022.2.5,Win32,61.447708,60f275aeeae99d547a89f5b8,64c7fed44a04f777bb1e18ce,64c80136d40b93ae556bc6d4,up,1,0.75,0.05,3,0,1.3198,8,0,8,0,1,,,,,,,,,,
,,225663,001,2023-07-31_20h51.16.058,arm3_eps,2022.2.5,Win32,61.447708,60f275aeeae99d547a89f5b8,64c7fed44a04f777bb1e18ce,64c80136d40b93ae556bc6d4,up,1,0.75,0.05,4,0,1.1277,9,0,9,0,1,,,,,,,,,,
,,225663,001,2023-07-31_20h51.16.058,arm3_eps,2022.2.5,Win32,61.447708,60f275aeeae99d547a89f5b8,64c7fed44a04f777bb1e18ce,64c80136d40b93ae556bc6d4,up,1,0.75,0.05,5,0,0.9437,10,0,10,0,1,,,,,,,,,,
,,225663,001,2023-07-31_20h51.16.058,arm3_eps,2022.2.5,Win32,61.447708,60f275aeeae99d547a89f5b8,64c7fed44a04f777bb1e18ce,64c80136d40b93ae556bc6d4,up,1,0.75,0.05,6,0,1.0089,11,0,11,0,1,,,,,,,,,,
,,225663,001,2023-07-31_20h51.16.058,arm3_eps,2022.2.5,Win32,61.447708,60f275aeeae99d547a89f5b8,64c7fed44a04f777bb1e18ce,64c80136d40b93ae556bc6d4,up,1,0.75,0.05,7,0,1.0901,12,0,12,0,1,,,,,,,,,,
,,225663,001,2023-07-31_20h51.16.058,arm3_eps,2022.2.5,Win32,61.447708,60f275aeeae99d547a89f5b8,64c7fed44a04f777bb1e18ce,64c80136d40b93ae556bc6d4,up,1,0.75,0.05,8,0,1.1376,13,0,13,0,1,,,,,,,,,,
,,225663,001,2023-07-31_20h51.16.058,arm3_eps,2022.2.5,Win32,61.447708,60f275aeeae99d547a89f5b8,64c7fed44a04f777bb1e18ce,64c80136d40b93ae556bc6d4,up,1,0.75,0.05,8,0,1.2624,14,0,14,0,1,,,,,,,,,,
,,225663,001,2023-07-31_20h51.16.058,arm3_eps,2022.2.5,Win32,61.447708,60f275aeeae99d547a89f5b8,64c7fed44a04f777bb1e18ce,64c80136d40b93ae556bc6d4,down,1,0.75,0.05,7,0,1.4389,15,0,15,0,1,,,,,,,,,,
,,225663,001,2023-07-31_20h51.16.058,arm3_eps,2022.2.5,Win32,61.447708,60f275aeeae99d547a89f5b8,64c7fed44a04f777bb1e18ce,64c80136d40b93ae556bc6d4,up,1,0.75,0.05,7,0,1.2208,16,0,16,0,1,,,,,,,,,,
,,225663,001,2023-07-31_20h51.16.058,arm3_eps,2022.2.5,Win32,61.447708,60f275aeeae99d547a89f5b8,64c7fed44a04f777bb1e18ce,64c80136d40b93ae556bc6d4,up,1,0.75,0.05,8,0,1.2545,17,0,17,0,1,,,,,,,,,,
,,225663,001,2023-07-31_20h51.16.058,arm3_eps,2022.2.5,Win32,61.447708,60f275aeeae99d547a89f5b8,64c7fed44a04f777bb1e18ce,64c80136d40b93ae556bc6d4,up,1,0.75,0.05,9,0,0.9382,18,0,18,0,1,,,,,,,,,,
,,225663,001,2023-07-31_20h51.16.058,arm3_eps,2022.2.5,Win32,61.447708,60f275aeeae99d547a89f5b8,64c7fed44a04f777bb1e18ce,64c80136d40b93ae556bc6d4,up,1,0.75,0.05,9,0,1.2091,19,0,19,0,1,,,,,,,,,,
,,225663,001,2023-07-31_20h51.16.058,arm3_eps,2022.2.5,Win32,61.447708,60f275aeeae99d547a89f5b8,64c7fed44a04f777bb1e18ce,64c80136d40b93ae556bc6d4,up,1,0.75,0.05,10,0,1.122,20,0,20,0,1,,,,,,,,,,
,,225663,001,2023-07-31_20h51.16.058,arm3_eps,2022.2.5,Win32,61.447708,60f275aeeae99d547a89f5b8,64c7fed44a04f777bb1e18ce,64c80136d40b93ae556bc6d4,up,1,0.75,0.05,11,0,1.1938,21,0,21,0,1,,,,,,,,,,
,,225663,001,2023-07-31_20h51.16.058,arm3_eps,2022.2.5,Win32,61.447708,60f275aeeae99d547a89f5b8,64c7fed44a04f777bb1e18ce,64c80136d40b93ae556bc6d4,up,1,0.75,0.05,11,0,0.9943,22,0,22,0,1,,,,,,,,,,
,,225663,001,2023-07-31_20h51.16.058,arm3_eps,2022.2.5,Win32,61.447708,60f275aeeae99d547a89f5b8,64c7fed44a04f777bb1e18ce,64c80136d40b93ae556bc6d4,up,1,0.75,0.05,12,0,0.9908,23,0,23,0,1,,,,,,,,,,
,,225663,001,2023-07-31_20h51.16.058,arm3_eps,2022.2.5,Win32,61.447708,60f275aeeae99d547a89f5b8,64c7fed44a04f777bb1e18ce,64c80136d40b93ae556bc6d4,up,1,0.75,0.05,12,0,0.9902,24,0,24,0,1,,,,,,,,,,
,,225663,001,2023-07-31_20h51.16.058,arm3_eps,2022.2.5,Win32,61.447708,60f275aeeae99d547a89f5b8,64c7fed44a04f777bb1e18ce,64c80136d40b93ae556bc6d4,up,1,0.75,0.05,13,0,1.5416,25,0,25,0,1,,,,,,,,,,
,,225663,001,2023-07-31_20h51.16.058,arm3_eps,2022.2.5,Win32,61.447708,60f275aeeae99d547a89f5b8,64c7fed44a04f777bb1e18ce,64c80136d40b93ae556bc6d4,down,1,0.75,0.05,12,0,2.6088,26,0,26,0,1,,,,,,,,,,
,,225663,001,2023-07-31_20h51.16.058,arm3_eps,2022.2.5,Win32,61.447708,60f275aeeae99d547a89f5b8,64c7fed44a04f777bb1e18ce,64c80136d40b93ae556bc6d4,up,1,0.75,0.05,12,0,1.2575,27,0,27,0,1,,,,,,,,,,
,,225663,001,2023-07-31_20h51.16.058,arm3_eps,2022.2.5,Win32,61.447708,60f275aeeae99d547a89f5b8,64c7fed44a04f777bb1e18ce,64c80136d40b93ae556bc6d4,up,1,0.75,0.05,13,0,1.0251,28,0,28,0,1,,,,,,,,,,
,,225663,001,2023-07-31_20h51.16.058,arm3_eps,2022.2.5,Win32,61.447708,60f275aeeae99d547a89f5b8,64c7fed44a04f777bb1e18ce,64c80136d40b93ae556bc6d4,up,1,0.75,0.05,14,0,1.2525,29,0,29,0,1,,,,,,,,,,
,,225663,001,2023-07-31_20h51.16.058,arm3_eps,2022.2.5,Win32,61.447708,60f275aeeae99d547a89f5b8,64c7fed44a04f777bb1e18ce,64c80136d40b93ae556bc6d4,up,1,0.75,0.05,15,0,0.9985,30,0,30,0,1,,,,,,,,,,
,,225663,001,2023-07-31_20h51.16.058,arm3_eps,2022.2.5,Win32,61.447708,60f275aeeae99d547a89f5b8,64c7fed44a04f777bb1e18ce,64c80136d40b93ae556bc6d4,up,1,0.75,0.05,16,0,1.457,31,0,31,0,1,,,,,,,,,,
,,225663,001,2023-07-31_20h51.16.058,arm3_eps,2022.2.5,Win32,61.447708,60f275aeeae99d547a89f5b8,64c7fed44a04f777bb1e18ce,64c80136d40b93ae556bc6d4,up,1,0.75,0.05,17,0,1.0256,32,0,32,0,1,,,,,,,,,,
,,225663,001,2023-07-31_20h51.16.058,arm3_eps,2022.2.5,Win32,61.447708,60f275aeeae99d547a89f5b8,64c7fed44a04f777bb1e18ce,64c80136d40b93ae556bc6d4,up,1,0.75,0.05,18,0,1.0088,33,0,33,0,1,,,,,,,,,,
,,225663,001,2023-07-31_20h51.16.058,arm3_eps,2022.2.5,Win32,61.447708,60f275aeeae99d547a89f5b8,64c7fed44a04f777bb1e18ce,64c80136d40b93ae556bc6d4,up,1,0.75,0.05,19,0,0.9928,34,0,34,0,1,,,,,,,,,,
,,225663,001,2023-07-31_20h51.16.058,arm3_eps,2022.2.5,Win32,61.447708,60f275aeeae99d547a89f5b8,64c7fed44a04f777bb1e18ce,64c80136d40b93ae556bc6d4,up,1,0.75,0.05,20,0,0.9452,35,0,35,0,1,,,,,,,,,,
,,225663,001,2023-07-31_20h51.16.058,arm3_eps,2022.2.5,Win32,61.447708,60f275aeeae99d547a89f5b8,64c7fed44a04f777bb1e18ce,64c80136d40b93ae556bc6d4,up,1,0.75,0.05,21,0,0.8963,36,0,36,0,1,,,,,,,,,,
,,225663,001,2023-07-31_20h51.16.058,arm3_eps,2022.2.5,Win32,61.447708,60f275aeeae99d547a89f5b8,64c7fed44a04f777bb1e18ce,64c80136d40b93ae556bc6d4,up,1,0.75,0.05,22,0,1.1416,37,0,37,0,1,,,,,,,,,,
,,225663,001,2023-07-31_20h51.16.058,arm3_eps,2022.2.5,Win32,61.447708,60f275aeeae99d547a89f5b8,64c7fed44a04f777bb1e18ce,64c80136d40b93ae556bc6d4,up,1,0.75,0.05,23,0,0.9762,38,0,38,0,1,,,,,,,,,,
,,225663,001,2023-07-31_20h51.16.058,arm3_eps,2022.2.5,Win32,61.447708,60f275aeeae99d547a89f5b8,64c7fed44a04f777bb1e18ce,64c80136d40b93ae556bc6d4,up,1,0.75,0.05,24,0,0.9914,39,0,39,0,1,,,,,,,,,,
,,225663,001,2023-07-31_20h51.16.058,arm3_eps,2022.2.5,Win32,61.447708,60f275aeeae99d547a89f5b8,64c7fed44a04f777bb1e18ce,64c80136d40b93ae556bc6d4,up,1,0.75,0.05,25,0,1.0735,40,0,40,0,1,,,,,,,,,,
,,225663,001,2023-07-31_20h51.16.058,arm3_eps,2022.2.5,Win32,61.447708,60f275aeeae99d547a89f5b8,64c7fed44a04f777bb1e18ce,64c80136d40b93ae556bc6d4,up,1,0.75,0.05,26,0,1.4246,41,0,41,0,1,,,,,,,,,,
,,225663,001,2023-07-31_20h51.16.058,arm3_eps,2022.2.5,Win32,61.447708,60f275aeeae99d547a89f5b8,64c7fed44a04f777bb1e18ce,64c80136d40b93ae556bc6d4,up,1,0.75,0.05,27,0,0.9229,42,0,42,0,1,,,,,,,,,,
,,225663,001,2023-07-31_20h51.16.058,arm3_eps,2022.2.5,Win32,61.447708,60f275aeeae99d547a89f5b8,64c7fed44a04f777bb1e18ce,64c80136d40b93ae556bc6d4,up,1,0.75,0.05,28,0,0.9287,43,0,43,0,1,,,,,,,,,,
,,225663,001,2023-07-31_20h51.16.058,arm3_eps,2022.2.5,Win32,61.447708,60f275aeeae99d547a89f5b8,64c7fed44a04f777bb1e18ce,64c80136d40b93ae556bc6d4,up,1,0.75,0.05,29,0,0.8917,44,0,44,0,1,,,,,,,,,,
,,225663,001,2023-07-31_20h51.16.058,arm3_eps,2022.2.5,Win32,61.447708,60f275aeeae99d547a89f5b8,64c7fed44a04f777bb1e18ce,64c80136d40b93ae556bc6d4,up,1,0.75,0.05,30,0,0.9453,45,0,45,0,1,,,,,,,,,,
,,225663,001,2023-07-31_20h51.16.058,arm3_eps,2022.2.5,Win32,61.447708,60f275aeeae99d547a89f5b8,64c7fed44a04f777bb1e18ce,64c80136d40b93ae556bc6d4,up,1,0.75,0.05,31,0,0.8293,46,0,46,0,1,,,,,,,,,,
,,225663,001,2023-07-31_20h51.16.058,arm3_eps,2022.2.5,Win32,61.447708,60f275aeeae99d547a89f5b8,64c7fed44a04f777bb1e18ce,64c80136d40b93ae556bc6d4,up,1,0.75,0.05,32,0,0.8785,47,0,47,0,1,,,,,,,,,,
,,225663,001,2023-07-31_20h51.16.058,arm3_eps,2022.2.5,Win32,61.447708,60f275aeeae99d547a89f5b8,64c7fed44a04f777bb1e18ce,64c80136d40b93ae556bc6d4,up,1,0.75,0.05,33,0,0.9274,48,0,48,0,1,,,,,,,,,,
,,225663,001,2023-07-31_20h51.16.058,arm3_eps,2022.2.5,Win32,61.447708,60f275aeeae99d547a89f5b8,64c7fed44a04f777bb1e18ce,64c80136d40b93ae556bc6d4,up,1,0.75,0.05,33,0,1.424,49,0,49,0,1,,,,,,,,,,
space,2.8398,225663,001,2023-07-31_20h51.16.058,arm3_eps,2022.2.5,Win32,61.447708,60f275aeeae99d547a89f5b8,64c7fed44a04f777bb1e18ce,64c80136d40b93ae556bc6d4,,,,,,,,,,,,,,,,,,,,,,
space,1.1843,225663,001,2023-07-31_20h51.16.058,arm3_eps,2022.2.5,Win32,61.447708,60f275aeeae99d547a89f5b8,64c7fed44a04f777bb1e18ce,64c80136d40b93ae556bc6d4,,,,,,,,,,,,,,,,,,,,,,
,,225663,001,2023-07-31_20h51.16.058,arm3_eps,2022.2.5,Win32,61.447708,60f275aeeae99d547a89f5b8,64c7fed44a04f777bb1e18ce,64c80136d40b93ae556bc6d4,down,1,0.75,0.5,-1,0,0.9812,0,0,0,0,1,,,,,,,,,,
,,225663,001,2023-07-31_20h51.16.058,arm3_eps,2022.2.5,Win32,61.447708,60f275aeeae99d547a89f5b8,64c7fed44a04f777bb1e18ce,64c80136d40b93ae556bc6d4,up,1,0.75,0.5,0,0,1.2991,1,0,1,0,1,,,,,,,,,,
,,225663,001,2023-07-31_20h51.16.058,arm3_eps,2022.2.5,Win32,61.447708,60f275aeeae99d547a89f5b8,64c7fed44a04f777bb1e18ce,64c80136d40b93ae556bc6d4,up,-1,0.75,0.5,1,0,0.9774,2,0,2,0,1,,,,,,,,,,
,,225663,001,2023-07-31_20h51.16.058,arm3_eps,2022.2.5,Win32,61.447708,60f275aeeae99d547a89f5b8,64c7fed44a04f777bb1e18ce,64c80136d40b93ae556bc6d4,up,-1,0.75,0.5,0,0,1.01,3,0,3,0,1,,,,,,,,,,
,,225663,001,2023-07-31_20h51.16.058,arm3_eps,2022.2.5,Win32,61.447708,60f275aeeae99d547a89f5b8,64c7fed44a04f777bb1e18ce,64c80136d40b93ae556bc6d4,up,-1,0.75,0.5,-1,0,1.1239,4,0,4,0,1,,,,,,,,,,
,,225663,001,2023-07-31_20h51.16.058,arm3_eps,2022.2.5,Win32,61.447708,60f275aeeae99d547a89f5b8,64c7fed44a04f777bb1e18ce,64c80136d40b93ae556bc6d4,up,1,0.75,0.5,-2,0,1.4697,5,0,5,0,1,,,,,,,,,,
,,225663,001,2023-07-31_20h51.16.058,arm3_eps,2022.2.5,Win32,61.447708,60f275aeeae99d547a89f5b8,64c7fed44a04f777bb1e18ce,64c80136d40b93ae556bc6d4,up,-1,0.75,0.5,-1,0,1.2954,6,0,6,0,1,,,,,,,,,,
,,225663,001,2023-07-31_20h51.16.058,arm3_eps,2022.2.5,Win32,61.447708,60f275aeeae99d547a89f5b8,64c7fed44a04f777bb1e18ce,64c80136d40b93ae556bc6d4,up,1,0.75,0.5,-2,0,1.0382,7,0,7,0,1,,,,,,,,,,
,,225663,001,2023-07-31_20h51.16.058,arm3_eps,2022.2.5,Win32,61.447708,60f275aeeae99d547a89f5b8,64c7fed44a04f777bb1e18ce,64c80136d40b93ae556bc6d4,up,1,0.75,0.5,-1,0,0.9136,8,0,8,0,1,,,,,,,,,,
,,225663,001,2023-07-31_20h51.16.058,arm3_eps,2022.2.5,Win32,61.447708,60f275aeeae99d547a89f5b8,64c7fed44a04f777bb1e18ce,64c80136d40b93ae556bc6d4,up,-1,0.75,0.5,0,0,1.4847,9,0,9,0,1,,,,,,,,,,
,,225663,001,2023-07-31_20h51.16.058,arm3_eps,2022.2.5,Win32,61.447708,60f275aeeae99d547a89f5b8,64c7fed44a04f777bb1e18ce,64c80136d40b93ae556bc6d4,up,1,0.75,0.5,-1,0,1.0057,10,0,10,0,1,,,,,,,,,,
,,225663,001,2023-07-31_20h51.16.058,arm3_eps,2022.2.5,Win32,61.447708,60f275aeeae99d547a89f5b8,64c7fed44a04f777bb1e18ce,64c80136d40b93ae556bc6d4,up,-1,0.75,0.5,0,0,0.9046,11,0,11,0,1,,,,,,,,,,
,,225663,001,2023-07-31_20h51.16.058,arm3_eps,2022.2.5,Win32,61.447708,60f275aeeae99d547a89f5b8,64c7fed44a04f777bb1e18ce,64c80136d40b93ae556bc6d4,up,-1,0.75,0.5,0,0,0.8509,12,0,12,0,1,,,,,,,,,,
,,225663,001,2023-07-31_20h51.16.058,arm3_eps,2022.2.5,Win32,61.447708,60f275aeeae99d547a89f5b8,64c7fed44a04f777bb1e18ce,64c80136d40b93ae556bc6d4,up,-1,0.75,0.5,0,0,0.9441,13,0,13,0,1,,,,,,,,,,
,,225663,001,2023-07-31_20h51.16.058,arm3_eps,2022.2.5,Win32,61.447708,60f275aeeae99d547a89f5b8,64c7fed44a04f777bb1e18ce,64c80136d40b93ae556bc6d4,up,-1,0.75,0.5,-1,0,0.9192,14,0,14,0,1,,,,,,,,,,
,,225663,001,2023-07-31_20h51.16.058,arm3_eps,2022.2.5,Win32,61.447708,60f275aeeae99d547a89f5b8,64c7fed44a04f777bb1e18ce,64c80136d40b93ae556bc6d4,up,-1,0.75,0.5,-1,0,1.1074,15,0,15,0,1,,,,,,,,,,
,,225663,001,2023-07-31_20h51.16.058,arm3_eps,2022.2.5,Win32,61.447708,60f275aeeae99d547a89f5b8,64c7fed44a04f777bb1e18ce,64c80136d40b93ae556bc6d4,up,1,0.75,0.5,-1,0,0.8583,16,0,16,0,1,,,,,,,,,,
,,225663,001,2023-07-31_20h51.16.058,arm3_eps,2022.2.5,Win32,61.447708,60f275aeeae99d547a89f5b8,64c7fed44a04f777bb1e18ce,64c80136d40b93ae556bc6d4,up,1,0.75,0.5,0,0,0.9197,17,0,17,0,1,,,,,,,,,,
,,225663,001,2023-07-31_20h51.16.058,arm3_eps,2022.2.5,Win32,61.447708,60f275aeeae99d547a89f5b8,64c7fed44a04f777bb1e18ce,64c80136d40b93ae556bc6d4,up,1,0.75,0.5,1,0,1.0078,18,0,18,0,1,,,,,,,,,,
,,225663,001,2023-07-31_20h51.16.058,arm3_eps,2022.2.5,Win32,61.447708,60f275aeeae99d547a89f5b8,64c7fed44a04f777bb1e18ce,64c80136d40b93ae556bc6d4,up,1,0.75,0.5,1,0,0.7916,19,0,19,0,1,,,,,,,,,,
,,225663,001,2023-07-31_20h51.16.058,arm3_eps,2022.2.5,Win32,61.447708,60f275aeeae99d547a89f5b8,64c7fed44a04f777bb1e18ce,64c80136d40b93ae556bc6d4,up,1,0.75,0.5,1,0,0.9271,20,0,20,0,1,,,,,,,,,,
,,225663,001,2023-07-31_20h51.16.058,arm3_eps,2022.2.5,Win32,61.447708,60f275aeeae99d547a89f5b8,64c7fed44a04f777bb1e18ce,64c80136d40b93ae556bc6d4,up,-1,0.75,0.5,2,0,1.0231,21,0,21,0,1,,,,,,,,,,
,,225663,001,2023-07-31_20h51.16.058,arm3_eps,2022.2.5,Win32,61.447708,60f275aeeae99d547a89f5b8,64c7fed44a04f777bb1e18ce,64c80136d40b93ae556bc6d4,up,1,0.75,0.5,2,0,1.0935,22,0,22,0,1,,,,,,,,,,
,,225663,001,2023-07-31_20h51.16.058,arm3_eps,2022.2.5,Win32,61.447708,60f275aeeae99d547a89f5b8,64c7fed44a04f777bb1e18ce,64c80136d40b93ae556bc6d4,up,-1,0.75,0.5,3,0,1.0191,23,0,23,0,1,,,,,,,,,,
,,225663,001,2023-07-31_20h51.16.058,arm3_eps,2022.2.5,Win32,61.447708,60f275aeeae99d547a89f5b8,64c7fed44a04f777bb1e18ce,64c80136d40b93ae556bc6d4,up,-1,0.75,0.5,3,0,0.9681,24,0,24,0,1,,,,,,,,,,
,,225663,001,2023-07-31_20h51.16.058,arm3_eps,2022.2.5,Win32,61.447708,60f275aeeae99d547a89f5b8,64c7fed44a04f777bb1e18ce,64c80136d40b93ae556bc6d4,up,1,0.75,0.5,3,0,0.9405,25,0,25,0,1,,,,,,,,,,
,,225663,001,2023-07-31_20h51.16.058,arm3_eps,2022.2.5,Win32,61.447708,60f275aeeae99d547a89f5b8,64c7fed44a04f777bb1e18ce,64c80136d40b93ae556bc6d4,up,-1,0.75,0.5,4,0,1.1162,26,0,26,0,1,,,,,,,,,,
,,225663,001,2023-07-31_20h51.16.058,arm3_eps,2022.2.5,Win32,61.447708,60f275aeeae99d547a89f5b8,64c7fed44a04f777bb1e18ce,64c80136d40b93ae556bc6d4,up,-1,0.75,0.5,3,0,0.9605,27,0,27,0,1,,,,,,,,,,
,,225663,001,2023-07-31_20h51.16.058,arm3_eps,2022.2.5,Win32,61.447708,60f275aeeae99d547a89f5b8,64c7fed44a04f777bb1e18ce,64c80136d40b93ae556bc6d4,up,-1,0.75,0.5,2,0,1.1109,28,0,28,0,1,,,,,,,,,,
,,225663,001,2023-07-31_20h51.16.058,arm3_eps,2022.2.5,Win32,61.447708,60f275aeeae99d547a89f5b8,64c7fed44a04f777bb1e18ce,64c80136d40b93ae556bc6d4,up,1,0.75,0.5,2,0,0.8452,29,0,29,0,1,,,,,,,,,,
,,225663,001,2023-07-31_20h51.16.058,arm3_eps,2022.2.5,Win32,61.447708,60f275aeeae99d547a89f5b8,64c7fed44a04f777bb1e18ce,64c80136d40b93ae556bc6d4,up,-1,0.75,0.5,3,0,0.8617,30,0,30,0,1,,,,,,,,,,
,,225663,001,2023-07-31_20h51.16.058,arm3_eps,2022.2.5,Win32,61.447708,60f275aeeae99d547a89f5b8,64c7fed44a04f777bb1e18ce,64c80136d40b93ae556bc6d4,up,-1,0.75,0.5,3,0,0.8528,31,0,31,0,1,,,,,,,,,,
,,225663,001,2023-07-31_20h51.16.058,arm3_eps,2022.2.5,Win32,61.447708,60f275aeeae99d547a89f5b8,64c7fed44a04f777bb1e18ce,64c80136d40b93ae556bc6d4,up,1,0.75,0.5,2,0,0.9451,32,0,32,0,1,,,,,,,,,,
,,225663,001,2023-07-31_20h51.16.058,arm3_eps,2022.2.5,Win32,61.447708,60f275aeeae99d547a89f5b8,64c7fed44a04f777bb1e18ce,64c80136d40b93ae556bc6d4,up,-1,0.75,0.5,3,0,0.9944,33,0,33,0,1,,,,,,,,,,
,,225663,001,2023-07-31_20h51.16.058,arm3_eps,2022.2.5,Win32,61.447708,60f275aeeae99d547a89f5b8,64c7fed44a04f777bb1e18ce,64c80136d40b93ae556bc6d4,up,-1,0.75,0.5,2,0,0.884,34,0,34,0,1,,,,,,,,,,
,,225663,001,2023-07-31_20h51.16.058,arm3_eps,2022.2.5,Win32,61.447708,60f275aeeae99d547a89f5b8,64c7fed44a04f777bb1e18ce,64c80136d40b93ae556bc6d4,up,-1,0.75,0.5,1,0,0.91,35,0,35,0,1,,,,,,,,,,
,,225663,001,2023-07-31_20h51.16.058,arm3_eps,2022.2.5,Win32,61.447708,60f275aeeae99d547a89f5b8,64c7fed44a04f777bb1e18ce,64c80136d40b93ae556bc6d4,up,1,0.75,0.5,0,0,0.8779,36,0,36,0,1,,,,,,,,,,
,,225663,001,2023-07-31_20h51.16.058,arm3_eps,2022.2.5,Win32,61.447708,60f275aeeae99d547a89f5b8,64c7fed44a04f777bb1e18ce,64c80136d40b93ae556bc6d4,up,1,0.75,0.5,0,0,1.0095,37,0,37,0,1,,,,,,,,,,
,,225663,001,2023-07-31_20h51.16.058,arm3_eps,2022.2.5,Win32,61.447708,60f275aeeae99d547a89f5b8,64c7fed44a04f777bb1e18ce,64c80136d40b93ae556bc6d4,up,-1,0.75,0.5,1,0,0.827,38,0,38,0,1,,,,,,,,,,
,,225663,001,2023-07-31_20h51.16.058,arm3_eps,2022.2.5,Win32,61.447708,60f275aeeae99d547a89f5b8,64c7fed44a04f777bb1e18ce,64c80136d40b93ae556bc6d4,up,1,0.75,0.5,1,0,0.8882,39,0,39,0,1,,,,,,,,,,
,,225663,001,2023-07-31_20h51.16.058,arm3_eps,2022.2.5,Win32,61.447708,60f275aeeae99d547a89f5b8,64c7fed44a04f777bb1e18ce,64c80136d40b93ae556bc6d4,up,-1,0.75,0.5,1,0,0.867,40,0,40,0,1,,,,,,,,,,
,,225663,001,2023-07-31_20h51.16.058,arm3_eps,2022.2.5,Win32,61.447708,60f275aeeae99d547a89f5b8,64c7fed44a04f777bb1e18ce,64c80136d40b93ae556bc6d4,up,1,0.75,0.5,1,0,0.8529,41,0,41,0,1,,,,,,,,,,
,,225663,001,2023-07-31_20h51.16.058,arm3_eps,2022.2.5,Win32,61.447708,60f275aeeae99d547a89f5b8,64c7fed44a04f777bb1e18ce,64c80136d40b93ae556bc6d4,up,-1,0.75,0.5,1,0,0.6809,42,0,42,0,1,,,,,,,,,,
,,225663,001,2023-07-31_20h51.16.058,arm3_eps,2022.2.5,Win32,61.447708,60f275aeeae99d547a89f5b8,64c7fed44a04f777bb1e18ce,64c80136d40b93ae556bc6d4,up,1,0.75,0.5,0,0,0.8176,43,0,43,0,1,,,,,,,,,,
,,225663,001,2023-07-31_20h51.16.058,arm3_eps,2022.2.5,Win32,61.447708,60f275aeeae99d547a89f5b8,64c7fed44a04f777bb1e18ce,64c80136d40b93ae556bc6d4,up,-1,0.75,0.5,0,0,0.7954,44,0,44,0,1,,,,,,,,,,
,,225663,001,2023-07-31_20h51.16.058,arm3_eps,2022.2.5,Win32,61.447708,60f275aeeae99d547a89f5b8,64c7fed44a04f777bb1e18ce,64c80136d40b93ae556bc6d4,up,-1,0.75,0.5,-1,0,0.8154,45,0,45,0,1,,,,,,,,,,
,,225663,001,2023-07-31_20h51.16.058,arm3_eps,2022.2.5,Win32,61.447708,60f275aeeae99d547a89f5b8,64c7fed44a04f777bb1e18ce,64c80136d40b93ae556bc6d4,up,1,0.75,0.5,-2,0,0.9128,46,0,46,0,1,,,,,,,,,,
,,225663,001,2023-07-31_20h51.16.058,arm3_eps,2022.2.5,Win32,61.447708,60f275aeeae99d547a89f5b8,64c7fed44a04f777bb1e18ce,64c80136d40b93ae556bc6d4,up,1,0.75,0.5,-1,0,1.0408,47,0,47,0,1,,,,,,,,,,
,,225663,001,2023-07-31_20h51.16.058,arm3_eps,2022.2.5,Win32,61.447708,60f275aeeae99d547a89f5b8,64c7fed44a04f777bb1e18ce,64c80136d40b93ae556bc6d4,up,1,0.75,0.5,0,0,0.9001,48,0,48,0,1,,,,,,,,,,
,,225663,001,2023-07-31_20h51.16.058,arm3_eps,2022.2.5,Win32,61.447708,60f275aeeae99d547a89f5b8,64c7fed44a04f777bb1e18ce,64c80136d40b93ae556bc6d4,up,1,0.75,0.5,0,0,0.8307,49,0,49,0,1,,,,,,,,,,
space,8.7218,225663,001,2023-07-31_20h51.16.058,arm3_eps,2022.2.5,Win32,61.447708,60f275aeeae99d547a89f5b8,64c7fed44a04f777bb1e18ce,64c80136d40b93ae556bc6d4,,,,,,,,,,,,,,,,,,,,,,
space,6.3348,225663,001,2023-07-31_20h51.16.058,arm3_eps,2022.2.5,Win32,61.447708,60f275aeeae99d547a89f5b8,64c7fed44a04f777bb1e18ce,64c80136d40b93ae556bc6d4,up,1,0.75,0.4357,0,0,1.258,,,,,,0,0,0,0,1,,,,,
,,225663,001,2023-07-31_20h51.16.058,arm3_eps,2022.2.5,Win32,61.447708,60f275aeeae99d547a89f5b8,64c7fed44a04f777bb1e18ce,64c80136d40b93ae556bc6d4,up,-1,0.75,0.4357,1,0,1.1769,,,,,,1,0,1,0,1,,,,,
,,225663,001,2023-07-31_20h51.16.058,arm3_eps,2022.2.5,Win32,61.447708,60f275aeeae99d547a89f5b8,64c7fed44a04f777bb1e18ce,64c80136d40b93ae556bc6d4,up,-1,0.75,0.4357,0,0,1.0417,,,,,,2,0,2,0,1,,,,,
,,225663,001,2023-07-31_20h51.16.058,arm3_eps,2022.2.5,Win32,61.447708,60f275aeeae99d547a89f5b8,64c7fed44a04f777bb1e18ce,64c80136d40b93ae556bc6d4,down,-1,0.75,0.4357,1,0,1.4771,,,,,,3,0,3,0,1,,,,,
,,225663,001,2023-07-31_20h51.16.058,arm3_eps,2022.2.5,Win32,61.447708,60f275aeeae99d547a89f5b8,64c7fed44a04f777bb1e18ce,64c80136d40b93ae556bc6d4,up,1,0.75,0.4357,0,0,1.2832,,,,,,4,0,4,0,1,,,,,
,,225663,001,2023-07-31_20h51.16.058,arm3_eps,2022.2.5,Win32,61.447708,60f275aeeae99d547a89f5b8,64c7fed44a04f777bb1e18ce,64c80136d40b93ae556bc6d4,up,-1,0.75,0.4357,1,0,1.0746,,,,,,5,0,5,0,1,,,,,
,,225663,001,2023-07-31_20h51.16.058,arm3_eps,2022.2.5,Win32,61.447708,60f275aeeae99d547a89f5b8,64c7fed44a04f777bb1e18ce,64c80136d40b93ae556bc6d4,down,1,0.75,0.4357,2,0,1.2442,,,,,,6,0,6,0,1,,,,,
,,225663,001,2023-07-31_20h51.16.058,arm3_eps,2022.2.5,Win32,61.447708,60f275aeeae99d547a89f5b8,64c7fed44a04f777bb1e18ce,64c80136d40b93ae556bc6d4,down,1,0.75,0.4357,1,0,1.3083,,,,,,7,0,7,0,1,,,,,
,,225663,001,2023-07-31_20h51.16.058,arm3_eps,2022.2.5,Win32,61.447708,60f275aeeae99d547a89f5b8,64c7fed44a04f777bb1e18ce,64c80136d40b93ae556bc6d4,down,1,0.75,0.4357,0,0,1.1449,,,,,,8,0,8,0,1,,,,,
,,225663,001,2023-07-31_20h51.16.058,arm3_eps,2022.2.5,Win32,61.447708,60f275aeeae99d547a89f5b8,64c7fed44a04f777bb1e18ce,64c80136d40b93ae556bc6d4,up,1,0.75,0.4357,0,0,1.0288,,,,,,9,0,9,0,1,,,,,
,,225663,001,2023-07-31_20h51.16.058,arm3_eps,2022.2.5,Win32,61.447708,60f275aeeae99d547a89f5b8,64c7fed44a04f777bb1e18ce,64c80136d40b93ae556bc6d4,up,-1,0.75,0.4357,1,0,1.0125,,,,,,10,0,10,0,1,,,,,
,,225663,001,2023-07-31_20h51.16.058,arm3_eps,2022.2.5,Win32,61.447708,60f275aeeae99d547a89f5b8,64c7fed44a04f777bb1e18ce,64c80136d40b93ae556bc6d4,up,1,0.75,0.4357,0,0,0.9426,,,,,,11,0,11,0,1,,,,,
,,225663,001,2023-07-31_20h51.16.058,arm3_eps,2022.2.5,Win32,61.447708,60f275aeeae99d547a89f5b8,64c7fed44a04f777bb1e18ce,64c80136d40b93ae556bc6d4,up,-1,0.75,0.4357,0,0,1.2284,,,,,,12,0,12,0,1,,,,,
,,225663,001,2023-07-31_20h51.16.058,arm3_eps,2022.2.5,Win32,61.447708,60f275aeeae99d547a89f5b8,64c7fed44a04f777bb1e18ce,64c80136d40b93ae556bc6d4,up,-1,0.75,0.4357,-1,0,1.0809,,,,,,13,0,13,0,1,,,,,
,,225663,001,2023-07-31_20h51.16.058,arm3_eps,2022.2.5,Win32,61.447708,60f275aeeae99d547a89f5b8,64c7fed44a04f777bb1e18ce,64c80136d40b93ae556bc6d4,up,1,0.75,0.4357,-1,0,1.2603,,,,,,14,0,14,0,1,,,,,
,,225663,001,2023-07-31_20h51.16.058,arm3_eps,2022.2.5,Win32,61.447708,60f275aeeae99d547a89f5b8,64c7fed44a04f777bb1e18ce,64c80136d40b93ae556bc6d4,up,1,0.75,0.4357,-1,0,1.0101,,,,,,15,0,15,0,1,,,,,
,,225663,001,2023-07-31_20h51.16.058,arm3_eps,2022.2.5,Win32,61.447708,60f275aeeae99d547a89f5b8,64c7fed44a04f777bb1e18ce,64c80136d40b93ae556bc6d4,up,-1,0.75,0.4357,-1,0,0.9628,,,,,,16,0,16,0,1,,,,,
,,225663,001,2023-07-31_20h51.16.058,arm3_eps,2022.2.5,Win32,61.447708,60f275aeeae99d547a89f5b8,64c7fed44a04f777bb1e18ce,64c80136d40b93ae556bc6d4,up,-1,0.75,0.4357,-2,0,1.295,,,,,,17,0,17,0,1,,,,,
,,225663,001,2023-07-31_20h51.16.058,arm3_eps,2022.2.5,Win32,61.447708,60f275aeeae99d547a89f5b8,64c7fed44a04f777bb1e18ce,64c80136d40b93ae556bc6d4,up,1,0.75,0.4357,-3,0,1.0105,,,,,,18,0,18,0,1,,,,,
,,225663,001,2023-07-31_20h51.16.058,arm3_eps,2022.2.5,Win32,61.447708,60f275aeeae99d547a89f5b8,64c7fed44a04f777bb1e18ce,64c80136d40b93ae556bc6d4,up,-1,0.75,0.4357,-2,0,0.959,,,,,,19,0,19,0,1,,,,,
,,225663,001,2023-07-31_20h51.16.058,arm3_eps,2022.2.5,Win32,61.447708,60f275aeeae99d547a89f5b8,64c7fed44a04f777bb1e18ce,64c80136d40b93ae556bc6d4,up,-1,0.75,0.4357,-3,0,1.195,,,,,,20,0,20,0,1,,,,,
,,225663,001,2023-07-31_20h51.16.058,arm3_eps,2022.2.5,Win32,61.447708,60f275aeeae99d547a89f5b8,64c7fed44a04f777bb1e18ce,64c80136d40b93ae556bc6d4,up,1,0.75,0.4357,-4,0,1.1237,,,,,,21,0,21,0,1,,,,,
,,225663,001,2023-07-31_20h51.16.058,arm3_eps,2022.2.5,Win32,61.447708,60f275aeeae99d547a89f5b8,64c7fed44a04f777bb1e18ce,64c80136d40b93ae556bc6d4,up,-1,0.75,0.4357,-3,0,1.2814,,,,,,22,0,22,0,1,,,,,
,,225663,001,2023-07-31_20h51.16.058,arm3_eps,2022.2.5,Win32,61.447708,60f275aeeae99d547a89f5b8,64c7fed44a04f777bb1e18ce,64c80136d40b93ae556bc6d4,up,1,0.75,0.4357,-4,0,0.9232,,,,,,23,0,23,0,1,,,,,
,,225663,001,2023-07-31_20h51.16.058,arm3_eps,2022.2.5,Win32,61.447708,60f275aeeae99d547a89f5b8,64c7fed44a04f777bb1e18ce,64c80136d40b93ae556bc6d4,up,1,0.75,0.4357,-3,0,0.8986,,,,,,24,0,24,0,1,,,,,
,,225663,001,2023-07-31_20h51.16.058,arm3_eps,2022.2.5,Win32,61.447708,60f275aeeae99d547a89f5b8,64c7fed44a04f777bb1e18ce,64c80136d40b93ae556bc6d4,up,-1,0.75,0.4357,-2,0,0.9293,,,,,,25,0,25,0,1,,,,,
,,225663,001,2023-07-31_20h51.16.058,arm3_eps,2022.2.5,Win32,61.447708,60f275aeeae99d547a89f5b8,64c7fed44a04f777bb1e18ce,64c80136d40b93ae556bc6d4,up,1,0.75,0.4357,-3,0,0.9267,,,,,,26,0,26,0,1,,,,,
,,225663,001,2023-07-31_20h51.16.058,arm3_eps,2022.2.5,Win32,61.447708,60f275aeeae99d547a89f5b8,64c7fed44a04f777bb1e18ce,64c80136d40b93ae556bc6d4,up,-1,0.75,0.4357,-3,0,0.9904,,,,,,27,0,27,0,1,,,,,
,,225663,001,2023-07-31_20h51.16.058,arm3_eps,2022.2.5,Win32,61.447708,60f275aeeae99d547a89f5b8,64c7fed44a04f777bb1e18ce,64c80136d40b93ae556bc6d4,up,-1,0.75,0.4357,-4,0,0.8931,,,,,,28,0,28,0,1,,,,,
,,225663,001,2023-07-31_20h51.16.058,arm3_eps,2022.2.5,Win32,61.447708,60f275aeeae99d547a89f5b8,64c7fed44a04f777bb1e18ce,64c80136d40b93ae556bc6d4,up,1,0.75,0.4357,-5,0,0.9883,,,,,,29,0,29,0,1,,,,,
,,225663,001,2023-07-31_20h51.16.058,arm3_eps,2022.2.5,Win32,61.447708,60f275aeeae99d547a89f5b8,64c7fed44a04f777bb1e18ce,64c80136d40b93ae556bc6d4,up,-1,0.75,0.4357,-4,0,0.9729,,,,,,30,0,30,0,1,,,,,
,,225663,001,2023-07-31_20h51.16.058,arm3_eps,2022.2.5,Win32,61.447708,60f275aeeae99d547a89f5b8,64c7fed44a04f777bb1e18ce,64c80136d40b93ae556bc6d4,up,1,0.75,0.4357,-5,0,0.8708,,,,,,31,0,31,0,1,,,,,
,,225663,001,2023-07-31_20h51.16.058,arm3_eps,2022.2.5,Win32,61.447708,60f275aeeae99d547a89f5b8,64c7fed44a04f777bb1e18ce,64c80136d40b93ae556bc6d4,up,-1,0.75,0.4357,-4,0,0.8246,,,,,,32,0,32,0,1,,,,,
,,225663,001,2023-07-31_20h51.16.058,arm3_eps,2022.2.5,Win32,61.447708,60f275aeeae99d547a89f5b8,64c7fed44a04f777bb1e18ce,64c80136d40b93ae556bc6d4,up,-1,0.75,0.4357,-5,0,0.8503,,,,,,33,0,33,0,1,,,,,
,,225663,001,2023-07-31_20h51.16.058,arm3_eps,2022.2.5,Win32,61.447708,60f275aeeae99d547a89f5b8,64c7fed44a04f777bb1e18ce,64c80136d40b93ae556bc6d4,up,-1,0.75,0.4357,-6,0,0.8287,,,,,,34,0,34,0,1,,,,,
,,225663,001,2023-07-31_20h51.16.058,arm3_eps,2022.2.5,Win32,61.447708,60f275aeeae99d547a89f5b8,64c7fed44a04f777bb1e18ce,64c80136d40b93ae556bc6d4,up,1,0.75,0.4357,-6,0,0.9071,,,,,,35,0,35,0,1,,,,,
,,225663,001,2023-07-31_20h51.16.058,arm3_eps,2022.2.5,Win32,61.447708,60f275aeeae99d547a89f5b8,64c7fed44a04f777bb1e18ce,64c80136d40b93ae556bc6d4,up,1,0.75,0.4357,-6,0,0.9121,,,,,,36,0,36,0,1,,,,,
,,225663,001,2023-07-31_20h51.16.058,arm3_eps,2022.2.5,Win32,61.447708,60f275aeeae99d547a89f5b8,64c7fed44a04f777bb1e18ce,64c80136d40b93ae556bc6d4,up,-1,0.75,0.4357,-5,0,0.8777,,,,,,37,0,37,0,1,,,,,
,,225663,001,2023-07-31_20h51.16.058,arm3_eps,2022.2.5,Win32,61.447708,60f275aeeae99d547a89f5b8,64c7fed44a04f777bb1e18ce,64c80136d40b93ae556bc6d4,up,-1,0.75,0.4357,-6,0,1.0764,,,,,,38,0,38,0,1,,,,,
,,225663,001,2023-07-31_20h51.16.058,arm3_eps,2022.2.5,Win32,61.447708,60f275aeeae99d547a89f5b8,64c7fed44a04f777bb1e18ce,64c80136d40b93ae556bc6d4,up,-1,0.75,0.4357,-7,0,1.0283,,,,,,39,0,39,0,1,,,,,
,,225663,001,2023-07-31_20h51.16.058,arm3_eps,2022.2.5,Win32,61.447708,60f275aeeae99d547a89f5b8,64c7fed44a04f777bb1e18ce,64c80136d40b93ae556bc6d4,up,-1,0.75,0.4357,-8,0,1.0958,,,,,,40,0,40,0,1,,,,,
,,225663,001,2023-07-31_20h51.16.058,arm3_eps,2022.2.5,Win32,61.447708,60f275aeeae99d547a89f5b8,64c7fed44a04f777bb1e18ce,64c80136d40b93ae556bc6d4,down,-1,0.75,0.4357,-8,0,1.5102,,,,,,41,0,41,0,1,,,,,
,,225663,001,2023-07-31_20h51.16.058,arm3_eps,2022.2.5,Win32,61.447708,60f275aeeae99d547a89f5b8,64c7fed44a04f777bb1e18ce,64c80136d40b93ae556bc6d4,up,1,0.75,0.4357,-9,0,1.2332,,,,,,42,0,42,0,1,,,,,
,,225663,001,2023-07-31_20h51.16.058,arm3_eps,2022.2.5,Win32,61.447708,60f275aeeae99d547a89f5b8,64c7fed44a04f777bb1e18ce,64c80136d40b93ae556bc6d4,up,-1,0.75,0.4357,-9,0,1.2115,,,,,,43,0,43,0,1,,,,,
,,225663,001,2023-07-31_20h51.16.058,arm3_eps,2022.2.5,Win32,61.447708,60f275aeeae99d547a89f5b8,64c7fed44a04f777bb1e18ce,64c80136d40b93ae556bc6d4,up,-1,0.75,0.4357,-9,0,1.0755,,,,,,44,0,44,0,1,,,,,
,,225663,001,2023-07-31_20h51.16.058,arm3_eps,2022.2.5,Win32,61.447708,60f275aeeae99d547a89f5b8,64c7fed44a04f777bb1e18ce,64c80136d40b93ae556bc6d4,up,-1,0.75,0.4357,-10,0,0.9604,,,,,,45,0,45,0,1,,,,,
,,225663,001,2023-07-31_20h51.16.058,arm3_eps,2022.2.5,Win32,61.447708,60f275aeeae99d547a89f5b8,64c7fed44a04f777bb1e18ce,64c80136d40b93ae556bc6d4,up,-1,0.75,0.4357,-10,0,0.987,,,,,,46,0,46,0,1,,,,,
,,225663,001,2023-07-31_20h51.16.058,arm3_eps,2022.2.5,Win32,61.447708,60f275aeeae99d547a89f5b8,64c7fed44a04f777bb1e18ce,64c80136d40b93ae556bc6d4,up,1,0.75,0.4357,-11,0,0.9611,,,,,,47,0,47,0,1,,,,,
,,225663,001,2023-07-31_20h51.16.058,arm3_eps,2022.2.5,Win32,61.447708,60f275aeeae99d547a89f5b8,64c7fed44a04f777bb1e18ce,64c80136d40b93ae556bc6d4,up,1,0.75,0.4357,-10,0,1.0943,,,,,,48,0,48,0,1,,,,,
,,225663,001,2023-07-31_20h51.16.058,arm3_eps,2022.2.5,Win32,61.447708,60f275aeeae99d547a89f5b8,64c7fed44a04f777bb1e18ce,64c80136d40b93ae556bc6d4,up,-1,0.75,0.4357,-9,0,1.5619,,,,,,49,0,49,0,1,,,,,
,,225663,001,2023-07-31_20h51.16.058,arm3_eps,2022.2.5,Win32,61.447708,60f275aeeae99d547a89f5b8,64c7fed44a04f777bb1e18ce,64c80136d40b93ae556bc6d4,up,-1,0.75,0.4357,-10,0,0.9739,,,,,,50,0,50,0,1,,,,,
,,225663,001,2023-07-31_20h51.16.058,arm3_eps,2022.2.5,Win32,61.447708,60f275aeeae99d547a89f5b8,64c7fed44a04f777bb1e18ce,64c80136d40b93ae556bc6d4,up,1,0.75,0.4357,-11,0,1.0757,,,,,,51,0,51,0,1,,,,,
,,225663,001,2023-07-31_20h51.16.058,arm3_eps,2022.2.5,Win32,61.447708,60f275aeeae99d547a89f5b8,64c7fed44a04f777bb1e18ce,64c80136d40b93ae556bc6d4,up,1,0.75,0.4357,-10,0,0.9393,,,,,,52,0,52,0,1,,,,,
,,225663,001,2023-07-31_20h51.16.058,arm3_eps,2022.2.5,Win32,61.447708,60f275aeeae99d547a89f5b8,64c7fed44a04f777bb1e18ce,64c80136d40b93ae556bc6d4,up,-1,0.75,0.4357,-9,0,1.2926,,,,,,53,0,53,0,1,,,,,
,,225663,001,2023-07-31_20h51.16.058,arm3_eps,2022.2.5,Win32,61.447708,60f275aeeae99d547a89f5b8,64c7fed44a04f777bb1e18ce,64c80136d40b93ae556bc6d4,up,-1,0.75,0.4357,-9,0,0.9174,,,,,,54,0,54,0,1,,,,,
,,225663,001,2023-07-31_20h51.16.058,arm3_eps,2022.2.5,Win32,61.447708,60f275aeeae99d547a89f5b8,64c7fed44a04f777bb1e18ce,64c80136d40b93ae556bc6d4,up,-1,0.75,0.4357,-10,0,0.9409,,,,,,55,0,55,0,1,,,,,
,,225663,001,2023-07-31_20h51.16.058,arm3_eps,2022.2.5,Win32,61.447708,60f275aeeae99d547a89f5b8,64c7fed44a04f777bb1e18ce,64c80136d40b93ae556bc6d4,up,-1,0.75,0.4357,-11,0,0.8927,,,,,,56,0,56,0,1,,,,,
,,225663,001,2023-07-31_20h51.16.058,arm3_eps,2022.2.5,Win32,61.447708,60f275aeeae99d547a89f5b8,64c7fed44a04f777bb1e18ce,64c80136d40b93ae556bc6d4,down,-1,0.75,0.4357,-10,0,1.2586,,,,,,57,0,57,0,1,,,,,
,,225663,001,2023-07-31_20h51.16.058,arm3_eps,2022.2.5,Win32,61.447708,60f275aeeae99d547a89f5b8,64c7fed44a04f777bb1e18ce,64c80136d40b93ae556bc6d4,down,1,0.75,0.4357,-9,0,1.0952,,,,,,58,0,58,0,1,,,,,
,,225663,001,2023-07-31_20h51.16.058,arm3_eps,2022.2.5,Win32,61.447708,60f275aeeae99d547a89f5b8,64c7fed44a04f777bb1e18ce,64c80136d40b93ae556bc6d4,down,1,0.75,0.4357,-10,0,1.1043,,,,,,59,0,59,0,1,,,,,
,,225663,001,2023-07-31_20h51.16.058,arm3_eps,2022.2.5,Win32,61.447708,60f275aeeae99d547a89f5b8,64c7fed44a04f777bb1e18ce,64c80136d40b93ae556bc6d4,down,-1,0.75,0.4357,-11,0,1.067,,,,,,60,0,60,0,1,,,,,
,,225663,001,2023-07-31_20h51.16.058,arm3_eps,2022.2.5,Win32,61.447708,60f275aeeae99d547a89f5b8,64c7fed44a04f777bb1e18ce,64c80136d40b93ae556bc6d4,down,-1,0.75,0.4357,-10,0,1.2613,,,,,,61,0,61,0,1,,,,,
,,225663,001,2023-07-31_20h51.16.058,arm3_eps,2022.2.5,Win32,61.447708,60f275aeeae99d547a89f5b8,64c7fed44a04f777bb1e18ce,64c80136d40b93ae556bc6d4,down,1,0.75,0.4357,-9,0,1.161,,,,,,62,0,62,0,1,,,,,
,,225663,001,2023-07-31_20h51.16.058,arm3_eps,2022.2.5,Win32,61.447708,60f275aeeae99d547a89f5b8,64c7fed44a04f777bb1e18ce,64c80136d40b93ae556bc6d4,up,-1,0.75,0.4357,-8,0,1.2781,,,,,,63,0,63,0,1,,,,,
,,225663,001,2023-07-31_20h51.16.058,arm3_eps,2022.2.5,Win32,61.447708,60f275aeeae99d547a89f5b8,64c7fed44a04f777bb1e18ce,64c80136d40b93ae556bc6d4,up,1,0.75,0.4357,-8,0,1.1899,,,,,,64,0,64,0,1,,,,,
,,225663,001,2023-07-31_20h51.16.058,arm3_eps,2022.2.5,Win32,61.447708,60f275aeeae99d547a89f5b8,64c7fed44a04f777bb1e18ce,64c80136d40b93ae556bc6d4,up,1,0.75,0.4357,-7,0,0.9415,,,,,,65,0,65,0,1,,,,,
,,225663,001,2023-07-31_20h51.16.058,arm3_eps,2022.2.5,Win32,61.447708,60f275aeeae99d547a89f5b8,64c7fed44a04f777bb1e18ce,64c80136d40b93ae556bc6d4,up,-1,0.75,0.4357,-7,0,0.8757,,,,,,66,0,66,0,1,,,,,
,,225663,001,2023-07-31_20h51.16.058,arm3_eps,2022.2.5,Win32,61.447708,60f275aeeae99d547a89f5b8,64c7fed44a04f777bb1e18ce,64c80136d40b93ae556bc6d4,up,1,0.75,0.4357,-8,0,0.8799,,,,,,67,0,67,0,1,,,,,
,,225663,001,2023-07-31_20h51.16.058,arm3_eps,2022.2.5,Win32,61.447708,60f275aeeae99d547a89f5b8,64c7fed44a04f777bb1e18ce,64c80136d40b93ae556bc6d4,up,-1,0.75,0.4357,-8,0,1.076,,,,,,68,0,68,0,1,,,,,
,,225663,001,2023-07-31_20h51.16.058,arm3_eps,2022.2.5,Win32,61.447708,60f275aeeae99d547a89f5b8,64c7fed44a04f777bb1e18ce,64c80136d40b93ae556bc6d4,up,-1,0.75,0.4357,-8,0,1.3168,,,,,,69,0,69,0,1,,,,,
,,225663,001,2023-07-31_20h51.16.058,arm3_eps,2022.2.5,Win32,61.447708,60f275aeeae99d547a89f5b8,64c7fed44a04f777bb1e18ce,64c80136d40b93ae556bc6d4,up,-1,0.75,0.4357,-8,0,1.1787,,,,,,70,0,70,0,1,,,,,
,,225663,001,2023-07-31_20h51.16.058,arm3_eps,2022.2.5,Win32,61.447708,60f275aeeae99d547a89f5b8,64c7fed44a04f777bb1e18ce,64c80136d40b93ae556bc6d4,up,-1,0.75,0.4357,-9,0,0.9945,,,,,,71,0,71,0,1,,,,,
,,225663,001,2023-07-31_20h51.16.058,arm3_eps,2022.2.5,Win32,61.447708,60f275aeeae99d547a89f5b8,64c7fed44a04f777bb1e18ce,64c80136d40b93ae556bc6d4,up,-1,0.75,0.4357,-9,0,0.9334,,,,,,72,0,72,0,1,,,,,
,,225663,001,2023-07-31_20h51.16.058,arm3_eps,2022.2.5,Win32,61.447708,60f275aeeae99d547a89f5b8,64c7fed44a04f777bb1e18ce,64c80136d40b93ae556bc6d4,up,1,0.75,0.4357,-10,0,1.0633,,,,,,73,0,73,0,1,,,,,
,,225663,001,2023-07-31_20h51.16.058,arm3_eps,2022.2.5,Win32,61.447708,60f275aeeae99d547a89f5b8,64c7fed44a04f777bb1e18ce,64c80136d40b93ae556bc6d4,up,1,0.75,0.4357,-10,0,0.8796,,,,,,74,0,74,0,1,,,,,
,,225663,001,2023-07-31_20h51.16.058,arm3_eps,2022.2.5,Win32,61.447708,60f275aeeae99d547a89f5b8,64c7fed44a04f777bb1e18ce,64c80136d40b93ae556bc6d4,up,1,0.75,0.4357,-9,0,1.2096,,,,,,75,0,75,0,1,,,,,
,,225663,001,2023-07-31_20h51.16.058,arm3_eps,2022.2.5,Win32,61.447708,60f275aeeae99d547a89f5b8,64c7fed44a04f777bb1e18ce,64c80136d40b93ae556bc6d4,up,1,0.75,0.4357,-8,0,1.059,,,,,,76,0,76,0,1,,,,,
,,225663,001,2023-07-31_20h51.16.058,arm3_eps,2022.2.5,Win32,61.447708,60f275aeeae99d547a89f5b8,64c7fed44a04f777bb1e18ce,64c80136d40b93ae556bc6d4,up,1,0.75,0.4357,-8,0,1.061,,,,,,77,0,77,0,1,,,,,
,,225663,001,2023-07-31_20h51.16.058,arm3_eps,2022.2.5,Win32,61.447708,60f275aeeae99d547a89f5b8,64c7fed44a04f777bb1e18ce,64c80136d40b93ae556bc6d4,up,-1,0.75,0.4357,-7,0,1.0577,,,,,,78,0,78,0,1,,,,,
,,225663,001,2023-07-31_20h51.16.058,arm3_eps,2022.2.5,Win32,61.447708,60f275aeeae99d547a89f5b8,64c7fed44a04f777bb1e18ce,64c80136d40b93ae556bc6d4,up,-1,0.75,0.4357,-8,0,1.0276,,,,,,79,0,79,0,1,,,,,
,,225663,001,2023-07-31_20h51.16.058,arm3_eps,2022.2.5,Win32,61.447708,60f275aeeae99d547a89f5b8,64c7fed44a04f777bb1e18ce,64c80136d40b93ae556bc6d4,up,1,0.75,0.4357,-9,0,1.0263,,,,,,80,0,80,0,1,,,,,
,,225663,001,2023-07-31_20h51.16.058,arm3_eps,2022.2.5,Win32,61.447708,60f275aeeae99d547a89f5b8,64c7fed44a04f777bb1e18ce,64c80136d40b93ae556bc6d4,up,-1,0.75,0.4357,-8,0,1.0446,,,,,,81,0,81,0,1,,,,,
,,225663,001,2023-07-31_20h51.16.058,arm3_eps,2022.2.5,Win32,61.447708,60f275aeeae99d547a89f5b8,64c7fed44a04f777bb1e18ce,64c80136d40b93ae556bc6d4,up,1,0.75,0.4357,-9,0,1.1477,,,,,,82,0,82,0,1,,,,,
,,225663,001,2023-07-31_20h51.16.058,arm3_eps,2022.2.5,Win32,61.447708,60f275aeeae99d547a89f5b8,64c7fed44a04f777bb1e18ce,64c80136d40b93ae556bc6d4,up,1,0.75,0.4357,-8,0,0.8906,,,,,,83,0,83,0,1,,,,,
,,225663,001,2023-07-31_20h51.16.058,arm3_eps,2022.2.5,Win32,61.447708,60f275aeeae99d547a89f5b8,64c7fed44a04f777bb1e18ce,64c80136d40b93ae556bc6d4,up,-1,0.75,0.4357,-7,0,1.0465,,,,,,84,0,84,0,1,,,,,
,,225663,001,2023-07-31_20h51.16.058,arm3_eps,2022.2.5,Win32,61.447708,60f275aeeae99d547a89f5b8,64c7fed44a04f777bb1e18ce,64c80136d40b93ae556bc6d4,up,1,0.75,0.4357,-8,0,1.1893,,,,,,85,0,85,0,1,,,,,
,,225663,001,2023-07-31_20h51.16.058,arm3_eps,2022.2.5,Win32,61.447708,60f275aeeae99d547a89f5b8,64c7fed44a04f777bb1e18ce,64c80136d40b93ae556bc6d4,up,1,0.75,0.4357,-7,0,1.0791,,,,,,86,0,86,0,1,,,,,
,,225663,001,2023-07-31_20h51.16.058,arm3_eps,2022.2.5,Win32,61.447708,60f275aeeae99d547a89f5b8,64c7fed44a04f777bb1e18ce,64c80136d40b93ae556bc6d4,up,-1,0.75,0.4357,-6,0,1.2687,,,,,,87,0,87,0,1,,,,,
,,225663,001,2023-07-31_20h51.16.058,arm3_eps,2022.2.5,Win32,61.447708,60f275aeeae99d547a89f5b8,64c7fed44a04f777bb1e18ce,64c80136d40b93ae556bc6d4,up,-1,0.75,0.4357,-7,0,0.947,,,,,,88,0,88,0,1,,,,,
,,225663,001,2023-07-31_20h51.16.058,arm3_eps,2022.2.5,Win32,61.447708,60f275aeeae99d547a89f5b8,64c7fed44a04f777bb1e18ce,64c80136d40b93ae556bc6d4,up,-1,0.75,0.4357,-8,0,1.1832,,,,,,89,0,89,0,1,,,,,
,,225663,001,2023-07-31_20h51.16.058,arm3_eps,2022.2.5,Win32,61.447708,60f275aeeae99d547a89f5b8,64c7fed44a04f777bb1e18ce,64c80136d40b93ae556bc6d4,up,-1,0.75,0.4357,-9,0,1.3551,,,,,,90,0,90,0,1,,,,,
,,225663,001,2023-07-31_20h51.16.058,arm3_eps,2022.2.5,Win32,61.447708,60f275aeeae99d547a89f5b8,64c7fed44a04f777bb1e18ce,64c80136d40b93ae556bc6d4,down,-1,0.75,0.4357,-8,0,1.5421,,,,,,91,0,91,0,1,,,,,
,,225663,001,2023-07-31_20h51.16.058,arm3_eps,2022.2.5,Win32,61.447708,60f275aeeae99d547a89f5b8,64c7fed44a04f777bb1e18ce,64c80136d40b93ae556bc6d4,down,-1,0.75,0.4357,-8,0,1.0617,,,,,,92,0,92,0,1,,,,,
,,225663,001,2023-07-31_20h51.16.058,arm3_eps,2022.2.5,Win32,61.447708,60f275aeeae99d547a89f5b8,64c7fed44a04f777bb1e18ce,64c80136d40b93ae556bc6d4,down,-1,0.75,0.4357,-7,0,1.0638,,,,,,93,0,93,0,1,,,,,
,,225663,001,2023-07-31_20h51.16.058,arm3_eps,2022.2.5,Win32,61.447708,60f275aeeae99d547a89f5b8,64c7fed44a04f777bb1e18ce,64c80136d40b93ae556bc6d4,up,-1,0.75,0.4357,-8,0,1.3986,,,,,,94,0,94,0,1,,,,,
,,225663,001,2023-07-31_20h51.16.058,arm3_eps,2022.2.5,Win32,61.447708,60f275aeeae99d547a89f5b8,64c7fed44a04f777bb1e18ce,64c80136d40b93ae556bc6d4,up,-1,0.75,0.4357,-9,0,1.0551,,,,,,95,0,95,0,1,,,,,
,,225663,001,2023-07-31_20h51.16.058,arm3_eps,2022.2.5,Win32,61.447708,60f275aeeae99d547a89f5b8,64c7fed44a04f777bb1e18ce,64c80136d40b93ae556bc6d4,up,1,0.75,0.4357,-10,0,1.1259,,,,,,96,0,96,0,1,,,,,
,,225663,001,2023-07-31_20h51.16.058,arm3_eps,2022.2.5,Win32,61.447708,60f275aeeae99d547a89f5b8,64c7fed44a04f777bb1e18ce,64c80136d40b93ae556bc6d4,up,-1,0.75,0.4357,-9,0,1.5623,,,,,,97,0,97,0,1,,,,,
,,225663,001,2023-07-31_20h51.16.058,arm3_eps,2022.2.5,Win32,61.447708,60f275aeeae99d547a89f5b8,64c7fed44a04f777bb1e18ce,64c80136d40b93ae556bc6d4,up,-1,0.75,0.4357,-9,0,0.9764,,,,,,98,0,98,0,1,,,,,
,,225663,001,2023-07-31_20h51.16.058,arm3_eps,2022.2.5,Win32,61.447708,60f275aeeae99d547a89f5b8,64c7fed44a04f777bb1e18ce,64c80136d40b93ae556bc6d4,up,-1,0.75,0.4357,-10,0,0.7835,,,,,,99,0,99,0,1,,,,,
,,225663,001,2023-07-31_20h51.16.058,arm3_eps,2022.2.5,Win32,61.447708,60f275aeeae99d547a89f5b8,64c7fed44a04f777bb1e18ce,64c80136d40b93ae556bc6d4,up,-1,0.75,0.4357,-11,0,1.3099,,,,,,100,0,100,0,1,,,,,
,,225663,001,2023-07-31_20h51.16.058,arm3_eps,2022.2.5,Win32,61.447708,60f275aeeae99d547a89f5b8,64c7fed44a04f777bb1e18ce,64c80136d40b93ae556bc6d4,up,-1,0.75,0.4357,-11,0,1.1289,,,,,,101,0,101,0,1,,,,,
,,225663,001,2023-07-31_20h51.16.058,arm3_eps,2022.2.5,Win32,61.447708,60f275aeeae99d547a89f5b8,64c7fed44a04f777bb1e18ce,64c80136d40b93ae556bc6d4,up,-1,0.75,0.4357,-11,0,1.4107,,,,,,102,0,102,0,1,,,,,
,,225663,001,2023-07-31_20h51.16.058,arm3_eps,2022.2.5,Win32,61.447708,60f275aeeae99d547a89f5b8,64c7fed44a04f777bb1e18ce,64c80136d40b93ae556bc6d4,up,1,0.75,0.4357,-12,0,1.7318,,,,,,103,0,103,0,1,,,,,
,,225663,001,2023-07-31_20h51.16.058,arm3_eps,2022.2.5,Win32,61.447708,60f275aeeae99d547a89f5b8,64c7fed44a04f777bb1e18ce,64c80136d40b93ae556bc6d4,up,-1,0.75,0.4357,-11,0,1.0578,,,,,,104,0,104,0,1,,,,,
,,225663,001,2023-07-31_20h51.16.058,arm3_eps,2022.2.5,Win32,61.447708,60f275aeeae99d547a89f5b8,64c7fed44a04f777bb1e18ce,64c80136d40b93ae556bc6d4,up,-1,0.75,0.4357,-12,0,1.6122,,,,,,105,0,105,0,1,,,,,
,,225663,001,2023-07-31_20h51.16.058,arm3_eps,2022.2.5,Win32,61.447708,60f275aeeae99d547a89f5b8,64c7fed44a04f777bb1e18ce,64c80136d40b93ae556bc6d4,down,-1,0.75,0.4357,-12,0,1.7237,,,,,,106,0,106,0,1,,,,,
,,225663,001,2023-07-31_20h51.16.058,arm3_eps,2022.2.5,Win32,61.447708,60f275aeeae99d547a89f5b8,64c7fed44a04f777bb1e18ce,64c80136d40b93ae556bc6d4,down,1,0.75,0.4357,-11,0,1.197,,,,,,107,0,107,0,1,,,,,
,,225663,001,2023-07-31_20h51.16.058,arm3_eps,2022.2.5,Win32,61.447708,60f275aeeae99d547a89f5b8,64c7fed44a04f777bb1e18ce,64c80136d40b93ae556bc6d4,down,-1,0.75,0.4357,-11,0,1.1082,,,,,,108,0,108,0,1,,,,,
,,225663,001,2023-07-31_20h51.16.058,arm3_eps,2022.2.5,Win32,61.447708,60f275aeeae99d547a89f5b8,64c7fed44a04f777bb1e18ce,64c80136d40b93ae556bc6d4,down,1,0.75,0.4357,-10,0,0.9767,,,,,,109,0,109,0,1,,,,,
,,225663,001,2023-07-31_20h51.16.058,arm3_eps,2022.2.5,Win32,61.447708,60f275aeeae99d547a89f5b8,64c7fed44a04f777bb1e18ce,64c80136d40b93ae556bc6d4,down,-1,0.75,0.4357,-11,0,1.0785,,,,,,110,0,110,0,1,,,,,
,,225663,001,2023-07-31_20h51.16.058,arm3_eps,2022.2.5,Win32,61.447708,60f275aeeae99d547a89f5b8,64c7fed44a04f777bb1e18ce,64c80136d40b93ae556bc6d4,up,1,0.75,0.4357,-12,0,2.4126,,,,,,111,0,111,0,1,,,,,
,,225663,001,2023-07-31_20h51.16.058,arm3_eps,2022.2.5,Win32,61.447708,60f275aeeae99d547a89f5b8,64c7fed44a04f777bb1e18ce,64c80136d40b93ae556bc6d4,up,1,0.75,0.4357,-12,0,1.212,,,,,,112,0,112,0,1,,,,,
,,225663,001,2023-07-31_20h51.16.058,arm3_eps,2022.2.5,Win32,61.447708,60f275aeeae99d547a89f5b8,64c7fed44a04f777bb1e18ce,64c80136d40b93ae556bc6d4,up,1,0.75,0.4357,-11,0,1.4105,,,,,,113,0,113,0,1,,,,,
,,225663,001,2023-07-31_20h51.16.058,arm3_eps,2022.2.5,Win32,61.447708,60f275aeeae99d547a89f5b8,64c7fed44a04f777bb1e18ce,64c80136d40b93ae556bc6d4,up,1,0.75,0.4357,-11,0,1.412,,,,,,114,0,114,0,1,,,,,
,,225663,001,2023-07-31_20h51.16.058,arm3_eps,2022.2.5,Win32,61.447708,60f275aeeae99d547a89f5b8,64c7fed44a04f777bb1e18ce,64c80136d40b93ae556bc6d4,up,1,0.75,0.4357,-10,0,1.175,,,,,,115,0,115,0,1,,,,,
,,225663,001,2023-07-31_20h51.16.058,arm3_eps,2022.2.5,Win32,61.447708,60f275aeeae99d547a89f5b8,64c7fed44a04f777bb1e18ce,64c80136d40b93ae556bc6d4,up,-1,0.75,0.4357,-9,0,1.0951,,,,,,116,0,116,0,1,,,,,
,,225663,001,2023-07-31_20h51.16.058,arm3_eps,2022.2.5,Win32,61.447708,60f275aeeae99d547a89f5b8,64c7fed44a04f777bb1e18ce,64c80136d40b93ae556bc6d4,up,1,0.75,0.4357,-10,0,1.2931,,,,,,117,0,117,0,1,,,,,
,,225663,001,2023-07-31_20h51.16.058,arm3_eps,2022.2.5,Win32,61.447708,60f275aeeae99d547a89f5b8,64c7fed44a04f777bb1e18ce,64c80136d40b93ae556bc6d4,up,-1,0.75,0.4357,-10,0,1.1947,,,,,,118,0,118,0,1,,,,,
,,225663,001,2023-07-31_20h51.16.058,arm3_eps,2022.2.5,Win32,61.447708,60f275aeeae99d547a89f5b8,64c7fed44a04f777bb1e18ce,64c80136d40b93ae556bc6d4,up,-1,0.75,0.4357,-10,0,1.2601,,,,,,119,0,119,0,1,,,,,
,,225663,001,2023-07-31_20h51.16.058,arm3_eps,2022.2.5,Win32,61.447708,60f275aeeae99d547a89f5b8,64c7fed44a04f777bb1e18ce,64c80136d40b93ae556bc6d4,up,-1,0.75,0.4357,-11,0,1.2195,,,,,,120,0,120,0,1,,,,,
,,225663,001,2023-07-31_20h51.16.058,arm3_eps,2022.2.5,Win32,61.447708,60f275aeeae99d547a89f5b8,64c7fed44a04f777bb1e18ce,64c80136d40b93ae556bc6d4,up,1,0.75,0.4357,-12,0,1.4065,,,,,,121,0,121,0,1,,,,,
,,225663,001,2023-07-31_20h51.16.058,arm3_eps,2022.2.5,Win32,61.447708,60f275aeeae99d547a89f5b8,64c7fed44a04f777bb1e18ce,64c80136d40b93ae556bc6d4,up,-1,0.75,0.4357,-11,0,1.0605,,,,,,122,0,122,0,1,,,,,
,,225663,001,2023-07-31_20h51.16.058,arm3_eps,2022.2.5,Win32,61.447708,60f275aeeae99d547a89f5b8,64c7fed44a04f777bb1e18ce,64c80136d40b93ae556bc6d4,up,-1,0.75,0.4357,-12,0,1.0474,,,,,,123,0,123,0,1,,,,,
,,225663,001,2023-07-31_20h51.16.058,arm3_eps,2022.2.5,Win32,61.447708,60f275aeeae99d547a89f5b8,64c7fed44a04f777bb1e18ce,64c80136d40b93ae556bc6d4,up,-1,0.75,0.4357,-13,0,1.0077,,,,,,124,0,124,0,1,,,,,
,,225663,001,2023-07-31_20h51.16.058,arm3_eps,2022.2.5,Win32,61.447708,60f275aeeae99d547a89f5b8,64c7fed44a04f777bb1e18ce,64c80136d40b93ae556bc6d4,up,1,0.75,0.4357,-14,0,1.2771,,,,,,125,0,125,0,1,,,,,
,,225663,001,2023-07-31_20h51.16.058,arm3_eps,2022.2.5,Win32,61.447708,60f275aeeae99d547a89f5b8,64c7fed44a04f777bb1e18ce,64c80136d40b93ae556bc6d4,up,1,0.75,0.4357,-13,0,1.2753,,,,,,126,0,126,0,1,,,,,
,,225663,001,2023-07-31_20h51.16.058,arm3_eps,2022.2.5,Win32,61.447708,60f275aeeae99d547a89f5b8,64c7fed44a04f777bb1e18ce,64c80136d40b93ae556bc6d4,up,1,0.75,0.4357,-12,0,1.0612,,,,,,127,0,127,0,1,,,,,
,,225663,001,2023-07-31_20h51.16.058,arm3_eps,2022.2.5,Win32,61.447708,60f275aeeae99d547a89f5b8,64c7fed44a04f777bb1e18ce,64c80136d40b93ae556bc6d4,up,-1,0.75,0.4357,-11,0,1.0373,,,,,,128,0,128,0,1,,,,,
,,225663,001,2023-07-31_20h51.16.058,arm3_eps,2022.2.5,Win32,61.447708,60f275aeeae99d547a89f5b8,64c7fed44a04f777bb1e18ce,64c80136d40b93ae556bc6d4,up,-1,0.75,0.4357,-12,0,1.2844,,,,,,129,0,129,0,1,,,,,
,,225663,001,2023-07-31_20h51.16.058,arm3_eps,2022.2.5,Win32,61.447708,60f275aeeae99d547a89f5b8,64c7fed44a04f777bb1e18ce,64c80136d40b93ae556bc6d4,up,-1,0.75,0.4357,-13,0,1.0457,,,,,,130,0,130,0,1,,,,,
,,225663,001,2023-07-31_20h51.16.058,arm3_eps,2022.2.5,Win32,61.447708,60f275aeeae99d547a89f5b8,64c7fed44a04f777bb1e18ce,64c80136d40b93ae556bc6d4,up,1,0.75,0.4357,-14,0,0.8786,,,,,,131,0,131,0,1,,,,,
,,225663,001,2023-07-31_20h51.16.058,arm3_eps,2022.2.5,Win32,61.447708,60f275aeeae99d547a89f5b8,64c7fed44a04f777bb1e18ce,64c80136d40b93ae556bc6d4,down,-1,0.75,0.4357,-15,0,1.4944,,,,,,132,0,132,0,1,,,,,
,,225663,001,2023-07-31_20h51.16.058,arm3_eps,2022.2.5,Win32,61.447708,60f275aeeae99d547a89f5b8,64c7fed44a04f777bb1e18ce,64c80136d40b93ae556bc6d4,down,-1,0.75,0.4357,-14,0,1.0931,,,,,,133,0,133,0,1,,,,,
,,225663,001,2023-07-31_20h51.16.058,arm3_eps,2022.2.5,Win32,61.447708,60f275aeeae99d547a89f5b8,64c7fed44a04f777bb1e18ce,64c80136d40b93ae556bc6d4,down,1,0.75,0.4357,-14,0,1.1773,,,,,,134,0,134,0,1,,,,,
,,225663,001,2023-07-31_20h51.16.058,arm3_eps,2022.2.5,Win32,61.447708,60f275aeeae99d547a89f5b8,64c7fed44a04f777bb1e18ce,64c80136d40b93ae556bc6d4,down,-1,0.75,0.4357,-15,0,1.2099,,,,,,135,0,135,0,1,,,,,
,,225663,001,2023-07-31_20h51.16.058,arm3_eps,2022.2.5,Win32,61.447708,60f275aeeae99d547a89f5b8,64c7fed44a04f777bb1e18ce,64c80136d40b93ae556bc6d4,up,1,0.75,0.4357,-15,0,1.1305,,,,,,136,0,136,0,1,,,,,
,,225663,001,2023-07-31_20h51.16.058,arm3_eps,2022.2.5,Win32,61.447708,60f275aeeae99d547a89f5b8,64c7fed44a04f777bb1e18ce,64c80136d40b93ae556bc6d4,up,1,0.75,0.4357,-15,0,1.195,,,,,,137,0,137,0,1,,,,,
,,225663,001,2023-07-31_20h51.16.058,arm3_eps,2022.2.5,Win32,61.447708,60f275aeeae99d547a89f5b8,64c7fed44a04f777bb1e18ce,64c80136d40b93ae556bc6d4,up,1,0.75,0.4357,-14,0,1.0954,,,,,,138,0,138,0,1,,,,,
,,225663,001,2023-07-31_20h51.16.058,arm3_eps,2022.2.5,Win32,61.447708,60f275aeeae99d547a89f5b8,64c7fed44a04f777bb1e18ce,64c80136d40b93ae556bc6d4,up,-1,0.75,0.4357,-13,0,1.1116,,,,,,139,0,139,0,1,,,,,
,,225663,001,2023-07-31_20h51.16.058,arm3_eps,2022.2.5,Win32,61.447708,60f275aeeae99d547a89f5b8,64c7fed44a04f777bb1e18ce,64c80136d40b93ae556bc6d4,up,-1,0.75,0.4357,-14,0,1.134,,,,,,140,0,140,0,1,,,,,
,,225663,001,2023-07-31_20h51.16.058,arm3_eps,2022.2.5,Win32,61.447708,60f275aeeae99d547a89f5b8,64c7fed44a04f777bb1e18ce,64c80136d40b93ae556bc6d4,up,1,0.75,0.4357,-15,0,1.1271,,,,,,141,0,141,0,1,,,,,
,,225663,001,2023-07-31_20h51.16.058,arm3_eps,2022.2.5,Win32,61.447708,60f275aeeae99d547a89f5b8,64c7fed44a04f777bb1e18ce,64c80136d40b93ae556bc6d4,up,1,0.75,0.4357,-14,0,1.0953,,,,,,142,0,142,0,1,,,,,
,,225663,001,2023-07-31_20h51.16.058,arm3_eps,2022.2.5,Win32,61.447708,60f275aeeae99d547a89f5b8,64c7fed44a04f777bb1e18ce,64c80136d40b93ae556bc6d4,up,1,0.75,0.4357,-14,0,1.065,,,,,,143,0,143,0,1,,,,,
,,225663,001,2023-07-31_20h51.16.058,arm3_eps,2022.2.5,Win32,61.447708,60f275aeeae99d547a89f5b8,64c7fed44a04f777bb1e18ce,64c80136d40b93ae556bc6d4,up,1,0.75,0.4357,-13,0,1.1273,,,,,,144,0,144,0,1,,,,,
,,225663,001,2023-07-31_20h51.16.058,arm3_eps,2022.2.5,Win32,61.447708,60f275aeeae99d547a89f5b8,64c7fed44a04f777bb1e18ce,64c80136d40b93ae556bc6d4,up,1,0.75,0.4357,-13,0,1.2296,,,,,,145,0,145,0,1,,,,,
,,225663,001,2023-07-31_20h51.16.058,arm3_eps,2022.2.5,Win32,61.447708,60f275aeeae99d547a89f5b8,64c7fed44a04f777bb1e18ce,64c80136d40b93ae556bc6d4,up,-1,0.75,0.4357,-13,0,1.0181,,,,,,146,0,146,0,1,,,,,
,,225663,001,2023-07-31_20h51.16.058,arm3_eps,2022.2.5,Win32,61.447708,60f275aeeae99d547a89f5b8,64c7fed44a04f777bb1e18ce,64c80136d40b93ae556bc6d4,up,-1,0.75,0.4357,-14,0,1.0804,,,,,,147,0,147,0,1,,,,,
,,225663,001,2023-07-31_20h51.16.058,arm3_eps,2022.2.5,Win32,61.447708,60f275aeeae99d547a89f5b8,64c7fed44a04f777bb1e18ce,64c80136d40b93ae556bc6d4,up,-1,0.75,0.4357,-15,0,1.1779,,,,,,148,0,148,0,1,,,,,
,,225663,001,2023-07-31_20h51.16.058,arm3_eps,2022.2.5,Win32,61.447708,60f275aeeae99d547a89f5b8,64c7fed44a04f777bb1e18ce,64c80136d40b93ae556bc6d4,up,-1,0.75,0.4357,-16,0,1.1464,,,,,,149,0,149,0,1,,,,,
,,225663,001,2023-07-31_20h51.16.058,arm3_eps,2022.2.5,Win32,61.447708,60f275aeeae99d547a89f5b8,64c7fed44a04f777bb1e18ce,64c80136d40b93ae556bc6d4,up,1,0.75,0.4357,-17,0,1.0956,,,,,,150,0,150,0,1,,,,,
,,225663,001,2023-07-31_20h51.16.058,arm3_eps,2022.2.5,Win32,61.447708,60f275aeeae99d547a89f5b8,64c7fed44a04f777bb1e18ce,64c80136d40b93ae556bc6d4,up,-1,0.75,0.4357,-16,0,1.1117,,,,,,151,0,151,0,1,,,,,
,,225663,001,2023-07-31_20h51.16.058,arm3_eps,2022.2.5,Win32,61.447708,60f275aeeae99d547a89f5b8,64c7fed44a04f777bb1e18ce,64c80136d40b93ae556bc6d4,up,-1,0.75,0.4357,-17,0,1.1232,,,,,,152,0,152,0,1,,,,,
,,225663,001,2023-07-31_20h51.16.058,arm3_eps,2022.2.5,Win32,61.447708,60f275aeeae99d547a89f5b8,64c7fed44a04f777bb1e18ce,64c80136d40b93ae556bc6d4,up,1,0.75,0.4357,-18,0,1.06,,,,,,153,0,153,0,1,,,,,
,,225663,001,2023-07-31_20h51.16.058,arm3_eps,2022.2.5,Win32,61.447708,60f275aeeae99d547a89f5b8,64c7fed44a04f777bb1e18ce,64c80136d40b93ae556bc6d4,up,1,0.75,0.4357,-18,0,1.0941,,,,,,154,0,154,0,1,,,,,
,,225663,001,2023-07-31_20h51.16.058,arm3_eps,2022.2.5,Win32,61.447708,60f275aeeae99d547a89f5b8,64c7fed44a04f777bb1e18ce,64c80136d40b93ae556bc6d4,up,1,0.75,0.4357,-18,0,1.1244,,,,,,155,0,155,0,1,,,,,
,,225663,001,2023-07-31_20h51.16.058,arm3_eps,2022.2.5,Win32,61.447708,60f275aeeae99d547a89f5b8,64c7fed44a04f777bb1e18ce,64c80136d40b93ae556bc6d4,up,-1,0.75,0.4357,-17,0,1.1969,,,,,,156,0,156,0,1,,,,,
,,225663,001,2023-07-31_20h51.16.058,arm3_eps,2022.2.5,Win32,61.447708,60f275aeeae99d547a89f5b8,64c7fed44a04f777bb1e18ce,64c80136d40b93ae556bc6d4,up,-1,0.75,0.4357,-18,0,1.0339,,,,,,157,0,157,0,1,,,,,
,,225663,001,2023-07-31_20h51.16.058,arm3_eps,2022.2.5,Win32,61.447708,60f275aeeae99d547a89f5b8,64c7fed44a04f777bb1e18ce,64c80136d40b93ae556bc6d4,up,-1,0.75,0.4357,-18,0,1.7289,,,,,,158,0,158,0,1,,,,,
,,225663,001,2023-07-31_20h51.16.058,arm3_eps,2022.2.5,Win32,61.447708,60f275aeeae99d547a89f5b8,64c7fed44a04f777bb1e18ce,64c80136d40b93ae556bc6d4,up,1,0.75,0.4357,-19,0,0.9971,,,,,,159,0,159,0,1,,,,,
,,225663,001,2023-07-31_20h51.16.058,arm3_eps,2022.2.5,Win32,61.447708,60f275aeeae99d547a89f5b8,64c7fed44a04f777bb1e18ce,64c80136d40b93ae556bc6d4,up,1,0.75,0.4357,-18,0,1.1627,,,,,,160,0,160,0,1,,,,,
,,225663,001,2023-07-31_20h51.16.058,arm3_eps,2022.2.5,Win32,61.447708,60f275aeeae99d547a89f5b8,64c7fed44a04f777bb1e18ce,64c80136d40b93ae556bc6d4,up,-1,0.75,0.4357,-18,0,1.152,,,,,,161,0,161,0,1,,,,,
,,225663,001,2023-07-31_20h51.16.058,arm3_eps,2022.2.5,Win32,61.447708,60f275aeeae99d547a89f5b8,64c7fed44a04f777bb1e18ce,64c80136d40b93ae556bc6d4,up,1,0.75,0.4357,-18,0,1.0134,,,,,,162,0,162,0,1,,,,,
,,225663,001,2023-07-31_20h51.16.058,arm3_eps,2022.2.5,Win32,61.447708,60f275aeeae99d547a89f5b8,64c7fed44a04f777bb1e18ce,64c80136d40b93ae556bc6d4,up,-1,0.75,0.4357,-17,0,1.1117,,,,,,163,0,163,0,1,,,,,
,,225663,001,2023-07-31_20h51.16.058,arm3_eps,2022.2.5,Win32,61.447708,60f275aeeae99d547a89f5b8,64c7fed44a04f777bb1e18ce,64c80136d40b93ae556bc6d4,up,-1,0.75,0.4357,-18,0,1.0774,,,,,,164,0,164,0,1,,,,,
,,225663,001,2023-07-31_20h51.16.058,arm3_eps,2022.2.5,Win32,61.447708,60f275aeeae99d547a89f5b8,64c7fed44a04f777bb1e18ce,64c80136d40b93ae556bc6d4,up,1,0.75,0.4357,-19,0,1.0137,,,,,,165,0,165,0,1,,,,,
,,225663,001,2023-07-31_20h51.16.058,arm3_eps,2022.2.5,Win32,61.447708,60f275aeeae99d547a89f5b8,64c7fed44a04f777bb1e18ce,64c80136d40b93ae556bc6d4,up,-1,0.75,0.4357,-18,0,1.1375,,,,,,166,0,166,0,1,,,,,
,,225663,001,2023-07-31_20h51.16.058,arm3_eps,2022.2.5,Win32,61.447708,60f275aeeae99d547a89f5b8,64c7fed44a04f777bb1e18ce,64c80136d40b93ae556bc6d4,up,1,0.75,0.4357,-18,0,1.0447,,,,,,167,0,167,0,1,,,,,
,,225663,001,2023-07-31_20h51.16.058,arm3_eps,2022.2.5,Win32,61.447708,60f275aeeae99d547a89f5b8,64c7fed44a04f777bb1e18ce,64c80136d40b93ae556bc6d4,up,1,0.75,0.4357,-17,0,1.0111,,,,,,168,0,168,0,1,,,,,
,,225663,001,2023-07-31_20h51.16.058,arm3_eps,2022.2.5,Win32,61.447708,60f275aeeae99d547a89f5b8,64c7fed44a04f777bb1e18ce,64c80136d40b93ae556bc6d4,up,1,0.75,0.4357,-16,0,1.0955,,,,,,169,0,169,0,1,,,,,
,,225663,001,2023-07-31_20h51.16.058,arm3_eps,2022.2.5,Win32,61.447708,60f275aeeae99d547a89f5b8,64c7fed44a04f777bb1e18ce,64c80136d40b93ae556bc6d4,up,1,0.75,0.4357,-16,0,1.0119,,,,,,170,0,170,0,1,,,,,
,,225663,001,2023-07-31_20h51.16.058,arm3_eps,2022.2.5,Win32,61.447708,60f275aeeae99d547a89f5b8,64c7fed44a04f777bb1e18ce,64c80136d40b93ae556bc6d4,up,1,0.75,0.4357,-16,0,1.0159,,,,,,171,0,171,0,1,,,,,
,,225663,001,2023-07-31_20h51.16.058,arm3_eps,2022.2.5,Win32,61.447708,60f275aeeae99d547a89f5b8,64c7fed44a04f777bb1e18ce,64c80136d40b93ae556bc6d4,up,-1,0.75,0.4357,-15,0,1.0463,,,,,,172,0,172,0,1,,,,,
,,225663,001,2023-07-31_20h51.16.058,arm3_eps,2022.2.5,Win32,61.447708,60f275aeeae99d547a89f5b8,64c7fed44a04f777bb1e18ce,64c80136d40b93ae556bc6d4,down,1,0.75,0.4357,-14,0,1.5993,,,,,,173,0,173,0,1,,,,,
,,225663,001,2023-07-31_20h51.16.058,arm3_eps,2022.2.5,Win32,61.447708,60f275aeeae99d547a89f5b8,64c7fed44a04f777bb1e18ce,64c80136d40b93ae556bc6d4,down,1,0.75,0.4357,-15,0,1.1476,,,,,,174,0,174,0,1,,,,,
,,225663,001,2023-07-31_20h51.16.058,arm3_eps,2022.2.5,Win32,61.447708,60f275aeeae99d547a89f5b8,64c7fed44a04f777bb1e18ce,64c80136d40b93ae556bc6d4,down,1,0.75,0.4357,-16,0,1.1116,,,,,,175,0,175,0,1,,,,,
,,225663,001,2023-07-31_20h51.16.058,arm3_eps,2022.2.5,Win32,61.447708,60f275aeeae99d547a89f5b8,64c7fed44a04f777bb1e18ce,64c80136d40b93ae556bc6d4,up,-1,0.75,0.4357,-15,0,1.1969,,,,,,176,0,176,0,1,,,,,
,,225663,001,2023-07-31_20h51.16.058,arm3_eps,2022.2.5,Win32,61.447708,60f275aeeae99d547a89f5b8,64c7fed44a04f777bb1e18ce,64c80136d40b93ae556bc6d4,up,1,0.75,0.4357,-16,0,1.1443,,,,,,177,0,177,0,1,,,,,
,,225663,001,2023-07-31_20h51.16.058,arm3_eps,2022.2.5,Win32,61.447708,60f275aeeae99d547a89f5b8,64c7fed44a04f777bb1e18ce,64c80136d40b93ae556bc6d4,up,-1,0.75,0.4357,-15,0,1.0777,,,,,,178,0,178,0,1,,,,,
,,225663,001,2023-07-31_20h51.16.058,arm3_eps,2022.2.5,Win32,61.447708,60f275aeeae99d547a89f5b8,64c7fed44a04f777bb1e18ce,64c80136d40b93ae556bc6d4,down,1,0.75,0.4357,-14,0,1.5085,,,,,,179,0,179,0,1,,,,,
,,225663,001,2023-07-31_20h51.16.058,arm3_eps,2022.2.5,Win32,61.447708,60f275aeeae99d547a89f5b8,64c7fed44a04f777bb1e18ce,64c80136d40b93ae556bc6d4,up,-1,0.75,0.4357,-14,0,1.2698,,,,,,180,0,180,0,1,,,,,
,,225663,001,2023-07-31_20h51.16.058,arm3_eps,2022.2.5,Win32,61.447708,60f275aeeae99d547a89f5b8,64c7fed44a04f777bb1e18ce,64c80136d40b93ae556bc6d4,up,1,0.75,0.4357,-15,0,1.3978,,,,,,181,0,181,0,1,,,,,
,,225663,001,2023-07-31_20h51.16.058,arm3_eps,2022.2.5,Win32,61.447708,60f275aeeae99d547a89f5b8,64c7fed44a04f777bb1e18ce,64c80136d40b93ae556bc6d4,up,-1,0.75,0.4357,-14,0,1.0813,,,,,,182,0,182,0,1,,,,,
,,225663,001,2023-07-31_20h51.16.058,arm3_eps,2022.2.5,Win32,61.447708,60f275aeeae99d547a89f5b8,64c7fed44a04f777bb1e18ce,64c80136d40b93ae556bc6d4,up,1,0.75,0.4357,-15,0,1.0458,,,,,,183,0,183,0,1,,,,,
,,225663,001,2023-07-31_20h51.16.058,arm3_eps,2022.2.5,Win32,61.447708,60f275aeeae99d547a89f5b8,64c7fed44a04f777bb1e18ce,64c80136d40b93ae556bc6d4,up,-1,0.75,0.4357,-14,0,1.0412,,,,,,184,0,184,0,1,,,,,
,,225663,001,2023-07-31_20h51.16.058,arm3_eps,2022.2.5,Win32,61.447708,60f275aeeae99d547a89f5b8,64c7fed44a04f777bb1e18ce,64c80136d40b93ae556bc6d4,up,-1,0.75,0.4357,-15,0,1.0488,,,,,,185,0,185,0,1,,,,,
,,225663,001,2023-07-31_20h51.16.058,arm3_eps,2022.2.5,Win32,61.447708,60f275aeeae99d547a89f5b8,64c7fed44a04f777bb1e18ce,64c80136d40b93ae556bc6d4,up,1,0.75,0.4357,-16,0,1.0942,,,,,,186,0,186,0,1,,,,,
,,225663,001,2023-07-31_20h51.16.058,arm3_eps,2022.2.5,Win32,61.447708,60f275aeeae99d547a89f5b8,64c7fed44a04f777bb1e18ce,64c80136d40b93ae556bc6d4,up,1,0.75,0.4357,-15,0,1.0967,,,,,,187,0,187,0,1,,,,,
,,225663,001,2023-07-31_20h51.16.058,arm3_eps,2022.2.5,Win32,61.447708,60f275aeeae99d547a89f5b8,64c7fed44a04f777bb1e18ce,64c80136d40b93ae556bc6d4,up,1,0.75,0.4357,-14,0,1.2148,,,,,,188,0,188,0,1,,,,,
,,225663,001,2023-07-31_20h51.16.058,arm3_eps,2022.2.5,Win32,61.447708,60f275aeeae99d547a89f5b8,64c7fed44a04f777bb1e18ce,64c80136d40b93ae556bc6d4,up,1,0.75,0.4357,-13,0,1.061,,,,,,189,0,189,0,1,,,,,
,,225663,001,2023-07-31_20h51.16.058,arm3_eps,2022.2.5,Win32,61.447708,60f275aeeae99d547a89f5b8,64c7fed44a04f777bb1e18ce,64c80136d40b93ae556bc6d4,up,1,0.75,0.4357,-12,0,1.0597,,,,,,190,0,190,0,1,,,,,
,,225663,001,2023-07-31_20h51.16.058,arm3_eps,2022.2.5,Win32,61.447708,60f275aeeae99d547a89f5b8,64c7fed44a04f777bb1e18ce,64c80136d40b93ae556bc6d4,up,1,0.75,0.4357,-11,0,1.0977,,,,,,191,0,191,0,1,,,,,
,,225663,001,2023-07-31_20h51.16.058,arm3_eps,2022.2.5,Win32,61.447708,60f275aeeae99d547a89f5b8,64c7fed44a04f777bb1e18ce,64c80136d40b93ae556bc6d4,up,-1,0.75,0.4357,-10,0,1.0889,,,,,,192,0,192,0,1,,,,,
,,225663,001,2023-07-31_20h51.16.058,arm3_eps,2022.2.5,Win32,61.447708,60f275aeeae99d547a89f5b8,64c7fed44a04f777bb1e18ce,64c80136d40b93ae556bc6d4,up,1,0.75,0.4357,-11,0,1.0621,,,,,,193,0,193,0,1,,,,,
,,225663,001,2023-07-31_20h51.16.058,arm3_eps,2022.2.5,Win32,61.447708,60f275aeeae99d547a89f5b8,64c7fed44a04f777bb1e18ce,64c80136d40b93ae556bc6d4,up,1,0.75,0.4357,-10,0,1.0271,,,,,,194,0,194,0,1,,,,,
,,225663,001,2023-07-31_20h51.16.058,arm3_eps,2022.2.5,Win32,61.447708,60f275aeeae99d547a89f5b8,64c7fed44a04f777bb1e18ce,64c80136d40b93ae556bc6d4,up,1,0.75,0.4357,-9,0,1.0483,,,,,,195,0,195,0,1,,,,,
,,225663,001,2023-07-31_20h51.16.058,arm3_eps,2022.2.5,Win32,61.447708,60f275aeeae99d547a89f5b8,64c7fed44a04f777bb1e18ce,64c80136d40b93ae556bc6d4,up,-1,0.75,0.4357,-8,0,1.2612,,,,,,196,0,196,0,1,,,,,
,,225663,001,2023-07-31_20h51.16.058,arm3_eps,2022.2.5,Win32,61.447708,60f275aeeae99d547a89f5b8,64c7fed44a04f777bb1e18ce,64c80136d40b93ae556bc6d4,up,1,0.75,0.4357,-9,0,0.8801,,,,,,197,0,197,0,1,,,,,
,,225663,001,2023-07-31_20h51.16.058,arm3_eps,2022.2.5,Win32,61.447708,60f275aeeae99d547a89f5b8,64c7fed44a04f777bb1e18ce,64c80136d40b93ae556bc6d4,up,1,0.75,0.4357,-9,0,0.9623,,,,,,198,0,198,0,1,,,,,
,,225663,001,2023-07-31_20h51.16.058,arm3_eps,2022.2.5,Win32,61.447708,60f275aeeae99d547a89f5b8,64c7fed44a04f777bb1e18ce,64c80136d40b93ae556bc6d4,up,-1,0.75,0.4357,-8,0,0.9041,,,,,,199,0,199,0,1,,,,,
,,225663,001,2023-07-31_20h51.16.058,arm3_eps,2022.2.5,Win32,61.447708,60f275aeeae99d547a89f5b8,64c7fed44a04f777bb1e18ce,64c80136d40b93ae556bc6d4,up,1,0.75,0.4357,-9,0,0.8591,,,,,,200,0,200,0,1,,,,,
,,225663,001,2023-07-31_20h51.16.058,arm3_eps,2022.2.5,Win32,61.447708,60f275aeeae99d547a89f5b8,64c7fed44a04f777bb1e18ce,64c80136d40b93ae556bc6d4,up,1,0.75,0.4357,-8,0,1.2279,,,,,,201,0,201,0,1,,,,,
,,225663,001,2023-07-31_20h51.16.058,arm3_eps,2022.2.5,Win32,61.447708,60f275aeeae99d547a89f5b8,64c7fed44a04f777bb1e18ce,64c80136d40b93ae556bc6d4,up,1,0.75,0.4357,-7,0,0.9105,,,,,,202,0,202,0,1,,,,,
,,225663,001,2023-07-31_20h51.16.058,arm3_eps,2022.2.5,Win32,61.447708,60f275aeeae99d547a89f5b8,64c7fed44a04f777bb1e18ce,64c80136d40b93ae556bc6d4,up,-1,0.75,0.4357,-7,0,1.0436,,,,,,203,0,203,0,1,,,,,
,,225663,001,2023-07-31_20h51.16.058,arm3_eps,2022.2.5,Win32,61.447708,60f275aeeae99d547a89f5b8,64c7fed44a04f777bb1e18ce,64c80136d40b93ae556bc6d4,up,-1,0.75,0.4357,-7,0,0.9731,,,,,,204,0,204,0,1,,,,,
,,225663,001,2023-07-31_20h51.16.058,arm3_eps,2022.2.5,Win32,61.447708,60f275aeeae99d547a89f5b8,64c7fed44a04f777bb1e18ce,64c80136d40b93ae556bc6d4,up,-1,0.75,0.4357,-7,0,0.9082,,,,,,205,0,205,0,1,,,,,
,,225663,001,2023-07-31_20h51.16.058,arm3_eps,2022.2.5,Win32,61.447708,60f275aeeae99d547a89f5b8,64c7fed44a04f777bb1e18ce,64c80136d40b93ae556bc6d4,up,-1,0.75,0.4357,-8,0,1.0117,,,,,,206,0,206,0,1,,,,,
,,225663,001,2023-07-31_20h51.16.058,arm3_eps,2022.2.5,Win32,61.447708,60f275aeeae99d547a89f5b8,64c7fed44a04f777bb1e18ce,64c80136d40b93ae556bc6d4,up,-1,0.75,0.4357,-8,0,0.9075,,,,,,207,0,207,0,1,,,,,
,,225663,001,2023-07-31_20h51.16.058,arm3_eps,2022.2.5,Win32,61.447708,60f275aeeae99d547a89f5b8,64c7fed44a04f777bb1e18ce,64c80136d40b93ae556bc6d4,up,1,0.75,0.4357,-9,0,0.8993,,,,,,208,0,208,0,1,,,,,
,,225663,001,2023-07-31_20h51.16.058,arm3_eps,2022.2.5,Win32,61.447708,60f275aeeae99d547a89f5b8,64c7fed44a04f777bb1e18ce,64c80136d40b93ae556bc6d4,up,-1,0.75,0.4357,-8,0,0.914,,,,,,209,0,209,0,1,,,,,
,,225663,001,2023-07-31_20h51.16.058,arm3_eps,2022.2.5,Win32,61.447708,60f275aeeae99d547a89f5b8,64c7fed44a04f777bb1e18ce,64c80136d40b93ae556bc6d4,up,1,0.75,0.4357,-8,0,0.8944,,,,,,210,0,210,0,1,,,,,
,,225663,001,2023-07-31_20h51.16.058,arm3_eps,2022.2.5,Win32,61.447708,60f275aeeae99d547a89f5b8,64c7fed44a04f777bb1e18ce,64c80136d40b93ae556bc6d4,up,-1,0.75,0.4357,-8,0,0.8953,,,,,,211,0,211,0,1,,,,,
,,225663,001,2023-07-31_20h51.16.058,arm3_eps,2022.2.5,Win32,61.447708,60f275aeeae99d547a89f5b8,64c7fed44a04f777bb1e18ce,64c80136d40b93ae556bc6d4,up,-1,0.75,0.4357,-9,0,0.8804,,,,,,212,0,212,0,1,,,,,
,,225663,001,2023-07-31_20h51.16.058,arm3_eps,2022.2.5,Win32,61.447708,60f275aeeae99d547a89f5b8,64c7fed44a04f777bb1e18ce,64c80136d40b93ae556bc6d4,up,1,0.75,0.4357,-10,0,0.8595,,,,,,213,0,213,0,1,,,,,
,,225663,001,2023-07-31_20h51.16.058,arm3_eps,2022.2.5,Win32,61.447708,60f275aeeae99d547a89f5b8,64c7fed44a04f777bb1e18ce,64c80136d40b93ae556bc6d4,up,-1,0.75,0.4357,-10,0,0.8578,,,,,,214,0,214,0,1,,,,,
,,225663,001,2023-07-31_20h51.16.058,arm3_eps,2022.2.5,Win32,61.447708,60f275aeeae99d547a89f5b8,64c7fed44a04f777bb1e18ce,64c80136d40b93ae556bc6d4,up,-1,0.75,0.4357,-11,0,0.8673,,,,,,215,0,215,0,1,,,,,
,,225663,001,2023-07-31_20h51.16.058,arm3_eps,2022.2.5,Win32,61.447708,60f275aeeae99d547a89f5b8,64c7fed44a04f777bb1e18ce,64c80136d40b93ae556bc6d4,up,-1,0.75,0.4357,-12,0,0.8597,,,,,,216,0,216,0,1,,,,,
,,225663,001,2023-07-31_20h51.16.058,arm3_eps,2022.2.5,Win32,61.447708,60f275aeeae99d547a89f5b8,64c7fed44a04f777bb1e18ce,64c80136d40b93ae556bc6d4,up,-1,0.75,0.4357,-13,0,0.9286,,,,,,217,0,217,0,1,,,,,
,,225663,001,2023-07-31_20h51.16.058,arm3_eps,2022.2.5,Win32,61.447708,60f275aeeae99d547a89f5b8,64c7fed44a04f777bb1e18ce,64c80136d40b93ae556bc6d4,up,-1,0.75,0.4357,-14,0,0.9263,,,,,,218,0,218,0,1,,,,,
,,225663,001,2023-07-31_20h51.16.058,arm3_eps,2022.2.5,Win32,61.447708,60f275aeeae99d547a89f5b8,64c7fed44a04f777bb1e18ce,64c80136d40b93ae556bc6d4,up,1,0.75,0.4357,-15,0,0.8915,,,,,,219,0,219,0,1,,,,,
,,225663,001,2023-07-31_20h51.16.058,arm3_eps,2022.2.5,Win32,61.447708,60f275aeeae99d547a89f5b8,64c7fed44a04f777bb1e18ce,64c80136d40b93ae556bc6d4,up,-1,0.75,0.4357,-15,0,0.8586,,,,,,220,0,220,0,1,,,,,
,,225663,001,2023-07-31_20h51.16.058,arm3_eps,2022.2.5,Win32,61.447708,60f275aeeae99d547a89f5b8,64c7fed44a04f777bb1e18ce,64c80136d40b93ae556bc6d4,up,-1,0.75,0.4357,-16,0,0.8801,,,,,,221,0,221,0,1,,,,,
,,225663,001,2023-07-31_20h51.16.058,arm3_eps,2022.2.5,Win32,61.447708,60f275aeeae99d547a89f5b8,64c7fed44a04f777bb1e18ce,64c80136d40b93ae556bc6d4,up,1,0.75,0.4357,-16,0,0.8428,,,,,,222,0,222,0,1,,,,,
,,225663,001,2023-07-31_20h51.16.058,arm3_eps,2022.2.5,Win32,61.447708,60f275aeeae99d547a89f5b8,64c7fed44a04f777bb1e18ce,64c80136d40b93ae556bc6d4,up,1,0.75,0.4357,-15,0,0.8283,,,,,,223,0,223,0,1,,,,,
,,225663,001,2023-07-31_20h51.16.058,arm3_eps,2022.2.5,Win32,61.447708,60f275aeeae99d547a89f5b8,64c7fed44a04f777bb1e18ce,64c80136d40b93ae556bc6d4,up,-1,0.75,0.4357,-14,0,0.828,,,,,,224,0,224,0,1,,,,,
,,225663,001,2023-07-31_20h51.16.058,arm3_eps,2022.2.5,Win32,61.447708,60f275aeeae99d547a89f5b8,64c7fed44a04f777bb1e18ce,64c80136d40b93ae556bc6d4,up,1,0.75,0.4357,-15,0,0.8304,,,,,,225,0,225,0,1,,,,,
,,225663,001,2023-07-31_20h51.16.058,arm3_eps,2022.2.5,Win32,61.447708,60f275aeeae99d547a89f5b8,64c7fed44a04f777bb1e18ce,64c80136d40b93ae556bc6d4,up,-1,0.75,0.4357,-14,0,0.8435,,,,,,226,0,226,0,1,,,,,
,,225663,001,2023-07-31_20h51.16.058,arm3_eps,2022.2.5,Win32,61.447708,60f275aeeae99d547a89f5b8,64c7fed44a04f777bb1e18ce,64c80136d40b93ae556bc6d4,up,-1,0.75,0.4357,-15,0,0.8484,,,,,,227,0,227,0,1,,,,,
,,225663,001,2023-07-31_20h51.16.058,arm3_eps,2022.2.5,Win32,61.447708,60f275aeeae99d547a89f5b8,64c7fed44a04f777bb1e18ce,64c80136d40b93ae556bc6d4,up,-1,0.75,0.4357,-15,0,1.7614,,,,,,228,0,228,0,1,,,,,
,,225663,001,2023-07-31_20h51.16.058,arm3_eps,2022.2.5,Win32,61.447708,60f275aeeae99d547a89f5b8,64c7fed44a04f777bb1e18ce,64c80136d40b93ae556bc6d4,up,-1,0.75,0.4357,-16,0,1.246,,,,,,229,0,229,0,1,,,,,
,,225663,001,2023-07-31_20h51.16.058,arm3_eps,2022.2.5,Win32,61.447708,60f275aeeae99d547a89f5b8,64c7fed44a04f777bb1e18ce,64c80136d40b93ae556bc6d4,up,-1,0.75,0.4357,-17,0,1.0297,,,,,,230,0,230,0,1,,,,,
,,225663,001,2023-07-31_20h51.16.058,arm3_eps,2022.2.5,Win32,61.447708,60f275aeeae99d547a89f5b8,64c7fed44a04f777bb1e18ce,64c80136d40b93ae556bc6d4,up,1,0.75,0.4357,-17,0,1.3285,,,,,,231,0,231,0,1,,,,,
,,225663,001,2023-07-31_20h51.16.058,arm3_eps,2022.2.5,Win32,61.447708,60f275aeeae99d547a89f5b8,64c7fed44a04f777bb1e18ce,64c80136d40b93ae556bc6d4,up,1,0.75,0.4357,-17,0,1.1121,,,,,,232,0,232,0,1,,,,,
,,225663,001,2023-07-31_20h51.16.058,arm3_eps,2022.2.5,Win32,61.447708,60f275aeeae99d547a89f5b8,64c7fed44a04f777bb1e18ce,64c80136d40b93ae556bc6d4,up,1,0.75,0.4357,-17,0,0.9116,,,,,,233,0,233,0,1,,,,,
,,225663,001,2023-07-31_20h51.16.058,arm3_eps,2022.2.5,Win32,61.447708,60f275aeeae99d547a89f5b8,64c7fed44a04f777bb1e18ce,64c80136d40b93ae556bc6d4,up,1,0.75,0.4357,-16,0,0.8755,,,,,,234,0,234,0,1,,,,,
,,225663,001,2023-07-31_20h51.16.058,arm3_eps,2022.2.5,Win32,61.447708,60f275aeeae99d547a89f5b8,64c7fed44a04f777bb1e18ce,64c80136d40b93ae556bc6d4,up,-1,0.75,0.4357,-16,0,1.5285,,,,,,235,0,235,0,1,,,,,
,,225663,001,2023-07-31_20h51.16.058,arm3_eps,2022.2.5,Win32,61.447708,60f275aeeae99d547a89f5b8,64c7fed44a04f777bb1e18ce,64c80136d40b93ae556bc6d4,up,-1,0.75,0.4357,-17,0,1.0623,,,,,,236,0,236,0,1,,,,,
,,225663,001,2023-07-31_20h51.16.058,arm3_eps,2022.2.5,Win32,61.447708,60f275aeeae99d547a89f5b8,64c7fed44a04f777bb1e18ce,64c80136d40b93ae556bc6d4,up,1,0.75,0.4357,-18,0,0.9082,,,,,,237,0,237,0,1,,,,,
,,225663,001,2023-07-31_20h51.16.058,arm3_eps,2022.2.5,Win32,61.447708,60f275aeeae99d547a89f5b8,64c7fed44a04f777bb1e18ce,64c80136d40b93ae556bc6d4,up,1,0.75,0.4357,-17,0,1.2451,,,,,,238,0,238,0,1,,,,,
,,225663,001,2023-07-31_20h51.16.058,arm3_eps,2022.2.5,Win32,61.447708,60f275aeeae99d547a89f5b8,64c7fed44a04f777bb1e18ce,64c80136d40b93ae556bc6d4,up,1,0.75,0.4357,-16,0,0.8958,,,,,,239,0,239,0,1,,,,,
,,225663,001,2023-07-31_20h51.16.058,arm3_eps,2022.2.5,Win32,61.447708,60f275aeeae99d547a89f5b8,64c7fed44a04f777bb1e18ce,64c80136d40b93ae556bc6d4,up,-1,0.75,0.4357,-15,0,1.0326,,,,,,240,0,240,0,1,,,,,
,,225663,001,2023-07-31_20h51.16.058,arm3_eps,2022.2.5,Win32,61.447708,60f275aeeae99d547a89f5b8,64c7fed44a04f777bb1e18ce,64c80136d40b93ae556bc6d4,up,1,0.75,0.4357,-16,0,0.8803,,,,,,241,0,241,0,1,,,,,
,,225663,001,2023-07-31_20h51.16.058,arm3_eps,2022.2.5,Win32,61.447708,60f275aeeae99d547a89f5b8,64c7fed44a04f777bb1e18ce,64c80136d40b93ae556bc6d4,up,1,0.75,0.4357,-16,0,1.097,,,,,,242,0,242,0,1,,,,,
,,225663,001,2023-07-31_20h51.16.058,arm3_eps,2022.2.5,Win32,61.447708,60f275aeeae99d547a89f5b8,64c7fed44a04f777bb1e18ce,64c80136d40b93ae556bc6d4,up,1,0.75,0.4357,-15,0,1.0041,,,,,,243,0,243,0,1,,,,,
,,225663,001,2023-07-31_20h51.16.058,arm3_eps,2022.2.5,Win32,61.447708,60f275aeeae99d547a89f5b8,64c7fed44a04f777bb1e18ce,64c80136d40b93ae556bc6d4,up,-1,0.75,0.4357,-14,0,0.9628,,,,,,244,0,244,0,1,,,,,
,,225663,001,2023-07-31_20h51.16.058,arm3_eps,2022.2.5,Win32,61.447708,60f275aeeae99d547a89f5b8,64c7fed44a04f777bb1e18ce,64c80136d40b93ae556bc6d4,up,1,0.75,0.4357,-14,0,0.8966,,,,,,245,0,245,0,1,,,,,
,,225663,001,2023-07-31_20h51.16.058,arm3_eps,2022.2.5,Win32,61.447708,60f275aeeae99d547a89f5b8,64c7fed44a04f777bb1e18ce,64c80136d40b93ae556bc6d4,up,1,0.75,0.4357,-13,0,0.8789,,,,,,246,0,246,0,1,,,,,
,,225663,001,2023-07-31_20h51.16.058,arm3_eps,2022.2.5,Win32,61.447708,60f275aeeae99d547a89f5b8,64c7fed44a04f777bb1e18ce,64c80136d40b93ae556bc6d4,up,-1,0.75,0.4357,-12,0,0.93,,,,,,247,0,247,0,1,,,,,
,,225663,001,2023-07-31_20h51.16.058,arm3_eps,2022.2.5,Win32,61.447708,60f275aeeae99d547a89f5b8,64c7fed44a04f777bb1e18ce,64c80136d40b93ae556bc6d4,up,1,0.75,0.4357,-13,0,1.1289,,,,,,248,0,248,0,1,,,,,
,,225663,001,2023-07-31_20h51.16.058,arm3_eps,2022.2.5,Win32,61.447708,60f275aeeae99d547a89f5b8,64c7fed44a04f777bb1e18ce,64c80136d40b93ae556bc6d4,down,1,0.75,0.4357,-14,0,1.4643,,,,,,249,0,249,0,1,,,,,
,,225663,001,2023-07-31_20h51.16.058,arm3_eps,2022.2.5,Win32,61.447708,60f275aeeae99d547a89f5b8,64c7fed44a04f777bb1e18ce,64c80136d40b93ae556bc6d4,up,-1,0.75,0.4357,-13,0,1.1457,,,,,,250,0,250,0,1,,,,,
,,225663,001,2023-07-31_20h51.16.058,arm3_eps,2022.2.5,Win32,61.447708,60f275aeeae99d547a89f5b8,64c7fed44a04f777bb1e18ce,64c80136d40b93ae556bc6d4,up,-1,0.75,0.4357,-14,0,0.9626,,,,,,251,0,251,0,1,,,,,
,,225663,001,2023-07-31_20h51.16.058,arm3_eps,2022.2.5,Win32,61.447708,60f275aeeae99d547a89f5b8,64c7fed44a04f777bb1e18ce,64c80136d40b93ae556bc6d4,up,1,0.75,0.4357,-14,0,1.0113,,,,,,252,0,252,0,1,,,,,
,,225663,001,2023-07-31_20h51.16.058,arm3_eps,2022.2.5,Win32,61.447708,60f275aeeae99d547a89f5b8,64c7fed44a04f777bb1e18ce,64c80136d40b93ae556bc6d4,up,-1,0.75,0.4357,-13,0,0.9281,,,,,,253,0,253,0,1,,,,,
,,225663,001,2023-07-31_20h51.16.058,arm3_eps,2022.2.5,Win32,61.447708,60f275aeeae99d547a89f5b8,64c7fed44a04f777bb1e18ce,64c80136d40b93ae556bc6d4,up,1,0.75,0.4357,-14,0,0.984,,,,,,254,0,254,0,1,,,,,
,,225663,001,2023-07-31_20h51.16.058,arm3_eps,2022.2.5,Win32,61.447708,60f275aeeae99d547a89f5b8,64c7fed44a04f777bb1e18ce,64c80136d40b93ae556bc6d4,up,-1,0.75,0.4357,-14,0,0.9737,,,,,,255,0,255,0,1,,,,,
,,225663,001,2023-07-31_20h51.16.058,arm3_eps,2022.2.5,Win32,61.447708,60f275aeeae99d547a89f5b8,64c7fed44a04f777bb1e18ce,64c80136d40b93ae556bc6d4,down,-1,0.75,0.4357,-13,0,2.2613,,,,,,256,0,256,0,1,,,,,
,,225663,001,2023-07-31_20h51.16.058,arm3_eps,2022.2.5,Win32,61.447708,60f275aeeae99d547a89f5b8,64c7fed44a04f777bb1e18ce,64c80136d40b93ae556bc6d4,down,1,0.75,0.4357,-12,0,1.313,,,,,,257,0,257,0,1,,,,,
,,225663,001,2023-07-31_20h51.16.058,arm3_eps,2022.2.5,Win32,61.447708,60f275aeeae99d547a89f5b8,64c7fed44a04f777bb1e18ce,64c80136d40b93ae556bc6d4,down,1,0.75,0.4357,-13,0,1.0114,,,,,,258,0,258,0,1,,,,,
,,225663,001,2023-07-31_20h51.16.058,arm3_eps,2022.2.5,Win32,61.447708,60f275aeeae99d547a89f5b8,64c7fed44a04f777bb1e18ce,64c80136d40b93ae556bc6d4,down,-1,0.75,0.4357,-14,0,1.2945,,,,,,259,0,259,0,1,,,,,
,,225663,001,2023-07-31_20h51.16.058,arm3_eps,2022.2.5,Win32,61.447708,60f275aeeae99d547a89f5b8,64c7fed44a04f777bb1e18ce,64c80136d40b93ae556bc6d4,down,-1,0.75,0.4357,-13,0,1.0371,,,,,,260,0,260,0,1,,,,,
,,225663,001,2023-07-31_20h51.16.058,arm3_eps,2022.2.5,Win32,61.447708,60f275aeeae99d547a89f5b8,64c7fed44a04f777bb1e18ce,64c80136d40b93ae556bc6d4,down,-1,0.75,0.4357,-12,0,0.9799,,,,,,261,0,261,0,1,,,,,
,,225663,001,2023-07-31_20h51.16.058,arm3_eps,2022.2.5,Win32,61.447708,60f275aeeae99d547a89f5b8,64c7fed44a04f777bb1e18ce,64c80136d40b93ae556bc6d4,down,1,0.75,0.4357,-11,0,1.0136,,,,,,262,0,262,0,1,,,,,
,,225663,001,2023-07-31_20h51.16.058,arm3_eps,2022.2.5,Win32,61.447708,60f275aeeae99d547a89f5b8,64c7fed44a04f777bb1e18ce,64c80136d40b93ae556bc6d4,down,-1,0.75,0.4357,-12,0,1.146,,,,,,263,0,263,0,1,,,,,
,,225663,001,2023-07-31_20h51.16.058,arm3_eps,2022.2.5,Win32,61.447708,60f275aeeae99d547a89f5b8,64c7fed44a04f777bb1e18ce,64c80136d40b93ae556bc6d4,down,1,0.75,0.4357,-11,0,0.9589,,,,,,264,0,264,0,1,,,,,
,,225663,001,2023-07-31_20h51.16.058,arm3_eps,2022.2.5,Win32,61.447708,60f275aeeae99d547a89f5b8,64c7fed44a04f777bb1e18ce,64c80136d40b93ae556bc6d4,down,1,0.75,0.4357,-11,0,1.0131,,,,,,265,0,265,0,1,,,,,
,,225663,001,2023-07-31_20h51.16.058,arm3_eps,2022.2.5,Win32,61.447708,60f275aeeae99d547a89f5b8,64c7fed44a04f777bb1e18ce,64c80136d40b93ae556bc6d4,down,1,0.75,0.4357,-11,0,1.1951,,,,,,266,0,266,0,1,,,,,
,,225663,001,2023-07-31_20h51.16.058,arm3_eps,2022.2.5,Win32,61.447708,60f275aeeae99d547a89f5b8,64c7fed44a04f777bb1e18ce,64c80136d40b93ae556bc6d4,down,1,0.75,0.4357,-11,0,1.0985,,,,,,267,0,267,0,1,,,,,
,,225663,001,2023-07-31_20h51.16.058,arm3_eps,2022.2.5,Win32,61.447708,60f275aeeae99d547a89f5b8,64c7fed44a04f777bb1e18ce,64c80136d40b93ae556bc6d4,down,1,0.75,0.4357,-11,0,1.0291,,,,,,268,0,268,0,1,,,,,
,,225663,001,2023-07-31_20h51.16.058,arm3_eps,2022.2.5,Win32,61.447708,60f275aeeae99d547a89f5b8,64c7fed44a04f777bb1e18ce,64c80136d40b93ae556bc6d4,down,1,0.75,0.4357,-11,0,0.9139,,,,,,269,0,269,0,1,,,,,
,,225663,001,2023-07-31_20h51.16.058,arm3_eps,2022.2.5,Win32,61.447708,60f275aeeae99d547a89f5b8,64c7fed44a04f777bb1e18ce,64c80136d40b93ae556bc6d4,down,1,0.75,0.4357,-12,0,0.9976,,,,,,270,0,270,0,1,,,,,
,,225663,001,2023-07-31_20h51.16.058,arm3_eps,2022.2.5,Win32,61.447708,60f275aeeae99d547a89f5b8,64c7fed44a04f777bb1e18ce,64c80136d40b93ae556bc6d4,down,1,0.75,0.4357,-13,0,0.9939,,,,,,271,0,271,0,1,,,,,
,,225663,001,2023-07-31_20h51.16.058,arm3_eps,2022.2.5,Win32,61.447708,60f275aeeae99d547a89f5b8,64c7fed44a04f777bb1e18ce,64c80136d40b93ae556bc6d4,down,1,0.75,0.4357,-14,0,0.9785,,,,,,272,0,272,0,1,,,,,
,,225663,001,2023-07-31_20h51.16.058,arm3_eps,2022.2.5,Win32,61.447708,60f275aeeae99d547a89f5b8,64c7fed44a04f777bb1e18ce,64c80136d40b93ae556bc6d4,down,-1,0.75,0.4357,-14,0,0.9658,,,,,,273,0,273,0,1,,,,,
,,225663,001,2023-07-31_20h51.16.058,arm3_eps,2022.2.5,Win32,61.447708,60f275aeeae99d547a89f5b8,64c7fed44a04f777bb1e18ce,64c80136d40b93ae556bc6d4,down,1,0.75,0.4357,-13,0,0.8955,,,,,,274,0,274,0,1,,,,,
,,225663,001,2023-07-31_20h51.16.058,arm3_eps,2022.2.5,Win32,61.447708,60f275aeeae99d547a89f5b8,64c7fed44a04f777bb1e18ce,64c80136d40b93ae556bc6d4,down,-1,0.75,0.4357,-14,0,0.8827,,,,,,275,0,275,0,1,,,,,
,,225663,001,2023-07-31_20h51.16.058,arm3_eps,2022.2.5,Win32,61.447708,60f275aeeae99d547a89f5b8,64c7fed44a04f777bb1e18ce,64c80136d40b93ae556bc6d4,down,1,0.75,0.4357,-13,0,1.3944,,,,,,276,0,276,0,1,,,,,
,,225663,001,2023-07-31_20h51.16.058,arm3_eps,2022.2.5,Win32,61.447708,60f275aeeae99d547a89f5b8,64c7fed44a04f777bb1e18ce,64c80136d40b93ae556bc6d4,down,-1,0.75,0.4357,-14,0,1.0117,,,,,,277,0,277,0,1,,,,,
,,225663,001,2023-07-31_20h51.16.058,arm3_eps,2022.2.5,Win32,61.447708,60f275aeeae99d547a89f5b8,64c7fed44a04f777bb1e18ce,64c80136d40b93ae556bc6d4,down,-1,0.75,0.4357,-13,0,0.9261,,,,,,278,0,278,0,1,,,,,
,,225663,001,2023-07-31_20h51.16.058,arm3_eps,2022.2.5,Win32,61.447708,60f275aeeae99d547a89f5b8,64c7fed44a04f777bb1e18ce,64c80136d40b93ae556bc6d4,down,-1,0.75,0.4357,-12,0,0.8942,,,,,,279,0,279,0,1,,,,,
,,225663,001,2023-07-31_20h51.16.058,arm3_eps,2022.2.5,Win32,61.447708,60f275aeeae99d547a89f5b8,64c7fed44a04f777bb1e18ce,64c80136d40b93ae556bc6d4,down,-1,0.75,0.4357,-11,0,1.0121,,,,,,280,0,280,0,1,,,,,
,,225663,001,2023-07-31_20h51.16.058,arm3_eps,2022.2.5,Win32,61.447708,60f275aeeae99d547a89f5b8,64c7fed44a04f777bb1e18ce,64c80136d40b93ae556bc6d4,down,1,0.75,0.4357,-10,0,0.8798,,,,,,281,0,281,0,1,,,,,
,,225663,001,2023-07-31_20h51.16.058,arm3_eps,2022.2.5,Win32,61.447708,60f275aeeae99d547a89f5b8,64c7fed44a04f777bb1e18ce,64c80136d40b93ae556bc6d4,down,-1,0.75,0.4357,-10,0,0.8616,,,,,,282,0,282,0,1,,,,,
,,225663,001,2023-07-31_20h51.16.058,arm3_eps,2022.2.5,Win32,61.447708,60f275aeeae99d547a89f5b8,64c7fed44a04f777bb1e18ce,64c80136d40b93ae556bc6d4,down,-1,0.75,0.4357,-9,0,0.8969,,,,,,283,0,283,0,1,,,,,
