space_bar.keys,space_bar.rt,participant,session,date,expName,psychopyVersion,OS,frameRate,PROLIFIC_PID,STUDY_ID,SESSION_ID,resp.keys,state,q_prob,eps_prob,score,price,resp.rt,train.thisRepN,train.thisTrialN,train.thisN,train.thisIndex,train.ran,steps.thisRepN,steps.thisTrialN,steps.thisN,steps.thisIndex,steps.ran,blocks.thisRepN,blocks.thisTrialN,blocks.thisN,blocks.thisIndex,blocks.ran
space,1.8566,245934,001,2023-07-31_20h55.50.188,arm3_eps,2022.2.5,Win32,60.12867537,5ece064a75736a193990951a,64c7fed44a04f777bb1e18ce,64c8011a20b4977c093942f8,,,,,,,,,,,,,,,,,,,,,,
space,0.8725,245934,001,2023-07-31_20h55.50.188,arm3_eps,2022.2.5,Win32,60.12867537,5ece064a75736a193990951a,64c7fed44a04f777bb1e18ce,64c8011a20b4977c093942f8,,,,,,,,,,,,,,,,,,,,,,
space,8.063,245934,001,2023-07-31_20h55.50.188,arm3_eps,2022.2.5,Win32,60.12867537,5ece064a75736a193990951a,64c7fed44a04f777bb1e18ce,64c8011a20b4977c093942f8,,,,,,,,,,,,,,,,,,,,,,
space,1.3351,245934,001,2023-07-31_20h55.50.188,arm3_eps,2022.2.5,Win32,60.12867537,5ece064a75736a193990951a,64c7fed44a04f777bb1e18ce,64c8011a20b4977c093942f8,,,,,,,,,,,,,,,,,,,,,,
space,13.24,245934,001,2023-07-31_20h55.50.188,arm3_eps,2022.2.5,Win32,60.12867537,5ece064a75736a193990951a,64c7fed44a04f777bb1e18ce,64c8011a20b4977c093942f8,,,,,,,,,,,,,,,,,,,,,,
space,12.3871,245934,001,2023-07-31_20h55.50.188,arm3_eps,2022.2.5,Win32,60.12867537,5ece064a75736a193990951a,64c7fed44a04f777bb1e18ce,64c8011a20b4977c093942f8,,,,,,,,,,,,,,,,,,,,,,
space,2.1946,245934,001,2023-07-31_20h55.50.188,arm3_eps,2022.2.5,Win32,60.12867537,5ece064a75736a193990951a,64c7fed44a04f777bb1e18ce,64c8011a20b4977c093942f8,,,,,,,,,,,,,,,,,,,,,,
,,245934,001,2023-07-31_20h55.50.188,arm3_eps,2022.2.5,Win32,60.12867537,5ece064a75736a193990951a,64c7fed44a04f777bb1e18ce,64c8011a20b4977c093942f8,right,-1,1,0.2429,0,-0.003789316,8.677,0,0,0,0,1,,,,,,,,,,
,,245934,001,2023-07-31_20h55.50.188,arm3_eps,2022.2.5,Win32,60.12867537,5ece064a75736a193990951a,64c7fed44a04f777bb1e18ce,64c8011a20b4977c093942f8,right,-1,1,0.2429,0,-0.052889358,6.4183,1,0,1,0,1,,,,,,,,,,
,,245934,001,2023-07-31_20h55.50.188,arm3_eps,2022.2.5,Win32,60.12867537,5ece064a75736a193990951a,64c7fed44a04f777bb1e18ce,64c8011a20b4977c093942f8,down,1,1,0.2429,1,0,1.8269,2,0,2,0,1,,,,,,,,,,
,,245934,001,2023-07-31_20h55.50.188,arm3_eps,2022.2.5,Win32,60.12867537,5ece064a75736a193990951a,64c7fed44a04f777bb1e18ce,64c8011a20b4977c093942f8,right,1,1,0.2429,1,0.037307337,3.1948,3,0,3,0,1,,,,,,,,,,
,,245934,001,2023-07-31_20h55.50.188,arm3_eps,2022.2.5,Win32,60.12867537,5ece064a75736a193990951a,64c7fed44a04f777bb1e18ce,64c8011a20b4977c093942f8,right,1,1,0.2429,1,0.034604864,1.5265,4,0,4,0,1,,,,,,,,,,
,,245934,001,2023-07-31_20h55.50.188,arm3_eps,2022.2.5,Win32,60.12867537,5ece064a75736a193990951a,64c7fed44a04f777bb1e18ce,64c8011a20b4977c093942f8,up,1,1,0.2429,2,0,1.6042,5,0,5,0,1,,,,,,,,,,
,,245934,001,2023-07-31_20h55.50.188,arm3_eps,2022.2.5,Win32,60.12867537,5ece064a75736a193990951a,64c7fed44a04f777bb1e18ce,64c8011a20b4977c093942f8,right,1,1,0.2429,2,0.000779029,1.7342,6,0,6,0,1,,,,,,,,,,
,,245934,001,2023-07-31_20h55.50.188,arm3_eps,2022.2.5,Win32,60.12867537,5ece064a75736a193990951a,64c7fed44a04f777bb1e18ce,64c8011a20b4977c093942f8,up,1,1,0.2429,3,0,0.7989,7,0,7,0,1,,,,,,,,,,
,,245934,001,2023-07-31_20h55.50.188,arm3_eps,2022.2.5,Win32,60.12867537,5ece064a75736a193990951a,64c7fed44a04f777bb1e18ce,64c8011a20b4977c093942f8,down,1,1,0.2429,2,0,2.9118,8,0,8,0,1,,,,,,,,,,
,,245934,001,2023-07-31_20h55.50.188,arm3_eps,2022.2.5,Win32,60.12867537,5ece064a75736a193990951a,64c7fed44a04f777bb1e18ce,64c8011a20b4977c093942f8,right,1,1,0.2429,2,-0.032345762,1.7829,9,0,9,0,1,,,,,,,,,,
,,245934,001,2023-07-31_20h55.50.188,arm3_eps,2022.2.5,Win32,60.12867537,5ece064a75736a193990951a,64c7fed44a04f777bb1e18ce,64c8011a20b4977c093942f8,down,1,1,0.2429,1,0,1.2178,10,0,10,0,1,,,,,,,,,,
,,245934,001,2023-07-31_20h55.50.188,arm3_eps,2022.2.5,Win32,60.12867537,5ece064a75736a193990951a,64c7fed44a04f777bb1e18ce,64c8011a20b4977c093942f8,right,1,1,0.2429,1,-0.011897133,1.2839,11,0,11,0,1,,,,,,,,,,
,,245934,001,2023-07-31_20h55.50.188,arm3_eps,2022.2.5,Win32,60.12867537,5ece064a75736a193990951a,64c7fed44a04f777bb1e18ce,64c8011a20b4977c093942f8,up,1,1,0.2429,2,0,2.0686,12,0,12,0,1,,,,,,,,,,
,,245934,001,2023-07-31_20h55.50.188,arm3_eps,2022.2.5,Win32,60.12867537,5ece064a75736a193990951a,64c7fed44a04f777bb1e18ce,64c8011a20b4977c093942f8,up,1,1,0.2429,3,0,2.252,13,0,13,0,1,,,,,,,,,,
,,245934,001,2023-07-31_20h55.50.188,arm3_eps,2022.2.5,Win32,60.12867537,5ece064a75736a193990951a,64c7fed44a04f777bb1e18ce,64c8011a20b4977c093942f8,up,1,1,0.2429,4,0,1.7842,14,0,14,0,1,,,,,,,,,,
,,245934,001,2023-07-31_20h55.50.188,arm3_eps,2022.2.5,Win32,60.12867537,5ece064a75736a193990951a,64c7fed44a04f777bb1e18ce,64c8011a20b4977c093942f8,up,1,1,0.2429,5,0,1.2884,15,0,15,0,1,,,,,,,,,,
,,245934,001,2023-07-31_20h55.50.188,arm3_eps,2022.2.5,Win32,60.12867537,5ece064a75736a193990951a,64c7fed44a04f777bb1e18ce,64c8011a20b4977c093942f8,right,1,1,0.2429,5,0.032094488,2.6682,16,0,16,0,1,,,,,,,,,,
,,245934,001,2023-07-31_20h55.50.188,arm3_eps,2022.2.5,Win32,60.12867537,5ece064a75736a193990951a,64c7fed44a04f777bb1e18ce,64c8011a20b4977c093942f8,right,1,1,0.2429,5,0.019893937,0.6509,17,0,17,0,1,,,,,,,,,,
,,245934,001,2023-07-31_20h55.50.188,arm3_eps,2022.2.5,Win32,60.12867537,5ece064a75736a193990951a,64c7fed44a04f777bb1e18ce,64c8011a20b4977c093942f8,right,1,1,0.2429,5,0.021370341,0.6568,18,0,18,0,1,,,,,,,,,,
,,245934,001,2023-07-31_20h55.50.188,arm3_eps,2022.2.5,Win32,60.12867537,5ece064a75736a193990951a,64c7fed44a04f777bb1e18ce,64c8011a20b4977c093942f8,up,1,1,0.2429,6,0,1.0185,19,0,19,0,1,,,,,,,,,,
,,245934,001,2023-07-31_20h55.50.188,arm3_eps,2022.2.5,Win32,60.12867537,5ece064a75736a193990951a,64c7fed44a04f777bb1e18ce,64c8011a20b4977c093942f8,right,1,1,0.2429,6,0.039142584,3.2166,20,0,20,0,1,,,,,,,,,,
,,245934,001,2023-07-31_20h55.50.188,arm3_eps,2022.2.5,Win32,60.12867537,5ece064a75736a193990951a,64c7fed44a04f777bb1e18ce,64c8011a20b4977c093942f8,up,1,1,0.2429,7,0,4.3687,21,0,21,0,1,,,,,,,,,,
,,245934,001,2023-07-31_20h55.50.188,arm3_eps,2022.2.5,Win32,60.12867537,5ece064a75736a193990951a,64c7fed44a04f777bb1e18ce,64c8011a20b4977c093942f8,right,1,1,0.2429,7,0.051291152,0.9877,22,0,22,0,1,,,,,,,,,,
,,245934,001,2023-07-31_20h55.50.188,arm3_eps,2022.2.5,Win32,60.12867537,5ece064a75736a193990951a,64c7fed44a04f777bb1e18ce,64c8011a20b4977c093942f8,up,1,1,0.2429,8,0,0.4319,23,0,23,0,1,,,,,,,,,,
,,245934,001,2023-07-31_20h55.50.188,arm3_eps,2022.2.5,Win32,60.12867537,5ece064a75736a193990951a,64c7fed44a04f777bb1e18ce,64c8011a20b4977c093942f8,right,1,1,0.2429,8,0.033399833,1.0096,24,0,24,0,1,,,,,,,,,,
,,245934,001,2023-07-31_20h55.50.188,arm3_eps,2022.2.5,Win32,60.12867537,5ece064a75736a193990951a,64c7fed44a04f777bb1e18ce,64c8011a20b4977c093942f8,up,1,1,0.2429,9,0,0.1485,25,0,25,0,1,,,,,,,,,,
,,245934,001,2023-07-31_20h55.50.188,arm3_eps,2022.2.5,Win32,60.12867537,5ece064a75736a193990951a,64c7fed44a04f777bb1e18ce,64c8011a20b4977c093942f8,right,1,1,0.2429,9,0.006162773,1.0066,26,0,26,0,1,,,,,,,,,,
,,245934,001,2023-07-31_20h55.50.188,arm3_eps,2022.2.5,Win32,60.12867537,5ece064a75736a193990951a,64c7fed44a04f777bb1e18ce,64c8011a20b4977c093942f8,up,1,1,0.2429,10,0,0.2337,27,0,27,0,1,,,,,,,,,,
,,245934,001,2023-07-31_20h55.50.188,arm3_eps,2022.2.5,Win32,60.12867537,5ece064a75736a193990951a,64c7fed44a04f777bb1e18ce,64c8011a20b4977c093942f8,right,1,1,0.2429,10,0.015264262,0.8202,28,0,28,0,1,,,,,,,,,,
,,245934,001,2023-07-31_20h55.50.188,arm3_eps,2022.2.5,Win32,60.12867537,5ece064a75736a193990951a,64c7fed44a04f777bb1e18ce,64c8011a20b4977c093942f8,up,-1,1,0.2429,11,0,0.109,29,0,29,0,1,,,,,,,,,,
,,245934,001,2023-07-31_20h55.50.188,arm3_eps,2022.2.5,Win32,60.12867537,5ece064a75736a193990951a,64c7fed44a04f777bb1e18ce,64c8011a20b4977c093942f8,right,-1,1,0.2429,11,0.001341409,1.09,30,0,30,0,1,,,,,,,,,,
,,245934,001,2023-07-31_20h55.50.188,arm3_eps,2022.2.5,Win32,60.12867537,5ece064a75736a193990951a,64c7fed44a04f777bb1e18ce,64c8011a20b4977c093942f8,up,-1,1,0.2429,10,0,0.2007,31,0,31,0,1,,,,,,,,,,
,,245934,001,2023-07-31_20h55.50.188,arm3_eps,2022.2.5,Win32,60.12867537,5ece064a75736a193990951a,64c7fed44a04f777bb1e18ce,64c8011a20b4977c093942f8,right,-1,1,0.2429,10,-0.016426828,1.0928,32,0,32,0,1,,,,,,,,,,
,,245934,001,2023-07-31_20h55.50.188,arm3_eps,2022.2.5,Win32,60.12867537,5ece064a75736a193990951a,64c7fed44a04f777bb1e18ce,64c8011a20b4977c093942f8,down,-1,1,0.2429,11,0,1.0364,33,0,33,0,1,,,,,,,,,,
,,245934,001,2023-07-31_20h55.50.188,arm3_eps,2022.2.5,Win32,60.12867537,5ece064a75736a193990951a,64c7fed44a04f777bb1e18ce,64c8011a20b4977c093942f8,right,-1,1,0.2429,11,0.000461104,1.0426,34,0,34,0,1,,,,,,,,,,
,,245934,001,2023-07-31_20h55.50.188,arm3_eps,2022.2.5,Win32,60.12867537,5ece064a75736a193990951a,64c7fed44a04f777bb1e18ce,64c8011a20b4977c093942f8,down,1,1,0.2429,12,0,2.1565,35,0,35,0,1,,,,,,,,,,
,,245934,001,2023-07-31_20h55.50.188,arm3_eps,2022.2.5,Win32,60.12867537,5ece064a75736a193990951a,64c7fed44a04f777bb1e18ce,64c8011a20b4977c093942f8,right,1,1,0.2429,12,-0.006794636,1.1368,36,0,36,0,1,,,,,,,,,,
,,245934,001,2023-07-31_20h55.50.188,arm3_eps,2022.2.5,Win32,60.12867537,5ece064a75736a193990951a,64c7fed44a04f777bb1e18ce,64c8011a20b4977c093942f8,down,1,1,0.2429,11,0,0.8327,37,0,37,0,1,,,,,,,,,,
,,245934,001,2023-07-31_20h55.50.188,arm3_eps,2022.2.5,Win32,60.12867537,5ece064a75736a193990951a,64c7fed44a04f777bb1e18ce,64c8011a20b4977c093942f8,right,1,1,0.2429,11,0.043004692,0.9353,38,0,38,0,1,,,,,,,,,,
,,245934,001,2023-07-31_20h55.50.188,arm3_eps,2022.2.5,Win32,60.12867537,5ece064a75736a193990951a,64c7fed44a04f777bb1e18ce,64c8011a20b4977c093942f8,up,-1,1,0.2429,12,0,0.8008,39,0,39,0,1,,,,,,,,,,
,,245934,001,2023-07-31_20h55.50.188,arm3_eps,2022.2.5,Win32,60.12867537,5ece064a75736a193990951a,64c7fed44a04f777bb1e18ce,64c8011a20b4977c093942f8,right,-1,1,0.2429,12,0.004011646,0.7895,40,0,40,0,1,,,,,,,,,,
,,245934,001,2023-07-31_20h55.50.188,arm3_eps,2022.2.5,Win32,60.12867537,5ece064a75736a193990951a,64c7fed44a04f777bb1e18ce,64c8011a20b4977c093942f8,down,1,1,0.2429,13,0,0.704,41,0,41,0,1,,,,,,,,,,
,,245934,001,2023-07-31_20h55.50.188,arm3_eps,2022.2.5,Win32,60.12867537,5ece064a75736a193990951a,64c7fed44a04f777bb1e18ce,64c8011a20b4977c093942f8,right,1,1,0.2429,13,0.006143039,0.7944,42,0,42,0,1,,,,,,,,,,
,,245934,001,2023-07-31_20h55.50.188,arm3_eps,2022.2.5,Win32,60.12867537,5ece064a75736a193990951a,64c7fed44a04f777bb1e18ce,64c8011a20b4977c093942f8,down,1,1,0.2429,12,0,0.5653,43,0,43,0,1,,,,,,,,,,
,,245934,001,2023-07-31_20h55.50.188,arm3_eps,2022.2.5,Win32,60.12867537,5ece064a75736a193990951a,64c7fed44a04f777bb1e18ce,64c8011a20b4977c093942f8,right,1,1,0.2429,12,-0.011980006,0.874,44,0,44,0,1,,,,,,,,,,
,,245934,001,2023-07-31_20h55.50.188,arm3_eps,2022.2.5,Win32,60.12867537,5ece064a75736a193990951a,64c7fed44a04f777bb1e18ce,64c8011a20b4977c093942f8,up,1,1,0.2429,13,0,0.8082,45,0,45,0,1,,,,,,,,,,
,,245934,001,2023-07-31_20h55.50.188,arm3_eps,2022.2.5,Win32,60.12867537,5ece064a75736a193990951a,64c7fed44a04f777bb1e18ce,64c8011a20b4977c093942f8,right,1,1,0.2429,13,-0.000614237,0.6911,46,0,46,0,1,,,,,,,,,,
,,245934,001,2023-07-31_20h55.50.188,arm3_eps,2022.2.5,Win32,60.12867537,5ece064a75736a193990951a,64c7fed44a04f777bb1e18ce,64c8011a20b4977c093942f8,down,1,1,0.2429,12,0,1.1386,47,0,47,0,1,,,,,,,,,,
,,245934,001,2023-07-31_20h55.50.188,arm3_eps,2022.2.5,Win32,60.12867537,5ece064a75736a193990951a,64c7fed44a04f777bb1e18ce,64c8011a20b4977c093942f8,right,1,1,0.2429,12,0.00707772,0.8788,48,0,48,0,1,,,,,,,,,,
,,245934,001,2023-07-31_20h55.50.188,arm3_eps,2022.2.5,Win32,60.12867537,5ece064a75736a193990951a,64c7fed44a04f777bb1e18ce,64c8011a20b4977c093942f8,up,1,1,0.2429,12,0.00707772,0.5984,49,0,49,0,1,,,,,,,,,,
space,16.223,245934,001,2023-07-31_20h55.50.188,arm3_eps,2022.2.5,Win32,60.12867537,5ece064a75736a193990951a,64c7fed44a04f777bb1e18ce,64c8011a20b4977c093942f8,,,,,,,,,,,,,,,,,,,,,,
space,3.0019,245934,001,2023-07-31_20h55.50.188,arm3_eps,2022.2.5,Win32,60.12867537,5ece064a75736a193990951a,64c7fed44a04f777bb1e18ce,64c8011a20b4977c093942f8,,,,,,,,,,,,,,,,,,,,,,
space,2.2539,245934,001,2023-07-31_20h55.50.188,arm3_eps,2022.2.5,Win32,60.12867537,5ece064a75736a193990951a,64c7fed44a04f777bb1e18ce,64c8011a20b4977c093942f8,,,,,,,,,,,,,,,,,,,,,,
space,2.3773,245934,001,2023-07-31_20h55.50.188,arm3_eps,2022.2.5,Win32,60.12867537,5ece064a75736a193990951a,64c7fed44a04f777bb1e18ce,64c8011a20b4977c093942f8,,,,,,,,,,,,,,,,,,,,,,
space,1.2988,245934,001,2023-07-31_20h55.50.188,arm3_eps,2022.2.5,Win32,60.12867537,5ece064a75736a193990951a,64c7fed44a04f777bb1e18ce,64c8011a20b4977c093942f8,,,,,,,,,,,,,,,,,,,,,,
space,1.3702,245934,001,2023-07-31_20h55.50.188,arm3_eps,2022.2.5,Win32,60.12867537,5ece064a75736a193990951a,64c7fed44a04f777bb1e18ce,64c8011a20b4977c093942f8,,,,,,,,,,,,,,,,,,,,,,
,,245934,001,2023-07-31_20h55.50.188,arm3_eps,2022.2.5,Win32,60.12867537,5ece064a75736a193990951a,64c7fed44a04f777bb1e18ce,64c8011a20b4977c093942f8,up,1,0.75,0.2429,1,0,0.8047,0,0,0,0,1,,,,,,,,,,
,,245934,001,2023-07-31_20h55.50.188,arm3_eps,2022.2.5,Win32,60.12867537,5ece064a75736a193990951a,64c7fed44a04f777bb1e18ce,64c8011a20b4977c093942f8,up,1,0.75,0.2429,2,0,1.7363,1,0,1,0,1,,,,,,,,,,
,,245934,001,2023-07-31_20h55.50.188,arm3_eps,2022.2.5,Win32,60.12867537,5ece064a75736a193990951a,64c7fed44a04f777bb1e18ce,64c8011a20b4977c093942f8,up,1,0.75,0.2429,3,0,1.6845,2,0,2,0,1,,,,,,,,,,
,,245934,001,2023-07-31_20h55.50.188,arm3_eps,2022.2.5,Win32,60.12867537,5ece064a75736a193990951a,64c7fed44a04f777bb1e18ce,64c8011a20b4977c093942f8,up,-1,0.75,0.2429,4,0,1.4438,3,0,3,0,1,,,,,,,,,,
,,245934,001,2023-07-31_20h55.50.188,arm3_eps,2022.2.5,Win32,60.12867537,5ece064a75736a193990951a,64c7fed44a04f777bb1e18ce,64c8011a20b4977c093942f8,up,-1,0.75,0.2429,4,0,1.6945,4,0,4,0,1,,,,,,,,,,
,,245934,001,2023-07-31_20h55.50.188,arm3_eps,2022.2.5,Win32,60.12867537,5ece064a75736a193990951a,64c7fed44a04f777bb1e18ce,64c8011a20b4977c093942f8,up,1,0.75,0.2429,4,0,1.5177,5,0,5,0,1,,,,,,,,,,
,,245934,001,2023-07-31_20h55.50.188,arm3_eps,2022.2.5,Win32,60.12867537,5ece064a75736a193990951a,64c7fed44a04f777bb1e18ce,64c8011a20b4977c093942f8,down,1,0.75,0.2429,3,0,1.3343,6,0,6,0,1,,,,,,,,,,
,,245934,001,2023-07-31_20h55.50.188,arm3_eps,2022.2.5,Win32,60.12867537,5ece064a75736a193990951a,64c7fed44a04f777bb1e18ce,64c8011a20b4977c093942f8,up,-1,0.75,0.2429,4,0,1.4675,7,0,7,0,1,,,,,,,,,,
,,245934,001,2023-07-31_20h55.50.188,arm3_eps,2022.2.5,Win32,60.12867537,5ece064a75736a193990951a,64c7fed44a04f777bb1e18ce,64c8011a20b4977c093942f8,up,1,0.75,0.2429,3,0,2.3684,8,0,8,0,1,,,,,,,,,,
,,245934,001,2023-07-31_20h55.50.188,arm3_eps,2022.2.5,Win32,60.12867537,5ece064a75736a193990951a,64c7fed44a04f777bb1e18ce,64c8011a20b4977c093942f8,up,1,0.75,0.2429,4,0,1.2498,9,0,9,0,1,,,,,,,,,,
,,245934,001,2023-07-31_20h55.50.188,arm3_eps,2022.2.5,Win32,60.12867537,5ece064a75736a193990951a,64c7fed44a04f777bb1e18ce,64c8011a20b4977c093942f8,down,-1,0.75,0.2429,4,0,1.1678,10,0,10,0,1,,,,,,,,,,
,,245934,001,2023-07-31_20h55.50.188,arm3_eps,2022.2.5,Win32,60.12867537,5ece064a75736a193990951a,64c7fed44a04f777bb1e18ce,64c8011a20b4977c093942f8,down,1,0.75,0.2429,5,0,1.8408,11,0,11,0,1,,,,,,,,,,
,,245934,001,2023-07-31_20h55.50.188,arm3_eps,2022.2.5,Win32,60.12867537,5ece064a75736a193990951a,64c7fed44a04f777bb1e18ce,64c8011a20b4977c093942f8,down,1,0.75,0.2429,4,0,1.1684,12,0,12,0,1,,,,,,,,,,
,,245934,001,2023-07-31_20h55.50.188,arm3_eps,2022.2.5,Win32,60.12867537,5ece064a75736a193990951a,64c7fed44a04f777bb1e18ce,64c8011a20b4977c093942f8,right,1,0.75,0.2429,4,0.021064845,0.9342,13,0,13,0,1,,,,,,,,,,
,,245934,001,2023-07-31_20h55.50.188,arm3_eps,2022.2.5,Win32,60.12867537,5ece064a75736a193990951a,64c7fed44a04f777bb1e18ce,64c8011a20b4977c093942f8,down,1,0.75,0.2429,3,0,1.5022,14,0,14,0,1,,,,,,,,,,
,,245934,001,2023-07-31_20h55.50.188,arm3_eps,2022.2.5,Win32,60.12867537,5ece064a75736a193990951a,64c7fed44a04f777bb1e18ce,64c8011a20b4977c093942f8,right,1,0.75,0.2429,3,0.028923302,0.9338,15,0,15,0,1,,,,,,,,,,
,,245934,001,2023-07-31_20h55.50.188,arm3_eps,2022.2.5,Win32,60.12867537,5ece064a75736a193990951a,64c7fed44a04f777bb1e18ce,64c8011a20b4977c093942f8,up,1,0.75,0.2429,4,0,0.4175,16,0,16,0,1,,,,,,,,,,
,,245934,001,2023-07-31_20h55.50.188,arm3_eps,2022.2.5,Win32,60.12867537,5ece064a75736a193990951a,64c7fed44a04f777bb1e18ce,64c8011a20b4977c093942f8,right,1,0.75,0.2429,4,0.015299755,0.8731,17,0,17,0,1,,,,,,,,,,
,,245934,001,2023-07-31_20h55.50.188,arm3_eps,2022.2.5,Win32,60.12867537,5ece064a75736a193990951a,64c7fed44a04f777bb1e18ce,64c8011a20b4977c093942f8,up,1,0.75,0.2429,5,0,0.3004,18,0,18,0,1,,,,,,,,,,
,,245934,001,2023-07-31_20h55.50.188,arm3_eps,2022.2.5,Win32,60.12867537,5ece064a75736a193990951a,64c7fed44a04f777bb1e18ce,64c8011a20b4977c093942f8,right,1,0.75,0.2429,5,-0.018993183,0.8894,19,0,19,0,1,,,,,,,,,,
,,245934,001,2023-07-31_20h55.50.188,arm3_eps,2022.2.5,Win32,60.12867537,5ece064a75736a193990951a,64c7fed44a04f777bb1e18ce,64c8011a20b4977c093942f8,up,1,0.75,0.2429,6,0,0.4569,20,0,20,0,1,,,,,,,,,,
,,245934,001,2023-07-31_20h55.50.188,arm3_eps,2022.2.5,Win32,60.12867537,5ece064a75736a193990951a,64c7fed44a04f777bb1e18ce,64c8011a20b4977c093942f8,right,1,0.75,0.2429,6,0.001040185,0.9884,21,0,21,0,1,,,,,,,,,,
,,245934,001,2023-07-31_20h55.50.188,arm3_eps,2022.2.5,Win32,60.12867537,5ece064a75736a193990951a,64c7fed44a04f777bb1e18ce,64c8011a20b4977c093942f8,up,1,0.75,0.2429,7,0,0.4339,22,0,22,0,1,,,,,,,,,,
,,245934,001,2023-07-31_20h55.50.188,arm3_eps,2022.2.5,Win32,60.12867537,5ece064a75736a193990951a,64c7fed44a04f777bb1e18ce,64c8011a20b4977c093942f8,right,1,0.75,0.2429,7,-0.014931508,0.8989,23,0,23,0,1,,,,,,,,,,
,,245934,001,2023-07-31_20h55.50.188,arm3_eps,2022.2.5,Win32,60.12867537,5ece064a75736a193990951a,64c7fed44a04f777bb1e18ce,64c8011a20b4977c093942f8,up,1,0.75,0.2429,8,0,0.2344,24,0,24,0,1,,,,,,,,,,
,,245934,001,2023-07-31_20h55.50.188,arm3_eps,2022.2.5,Win32,60.12867537,5ece064a75736a193990951a,64c7fed44a04f777bb1e18ce,64c8011a20b4977c093942f8,right,1,0.75,0.2429,8,-0.034970552,0.9247,25,0,25,0,1,,,,,,,,,,
,,245934,001,2023-07-31_20h55.50.188,arm3_eps,2022.2.5,Win32,60.12867537,5ece064a75736a193990951a,64c7fed44a04f777bb1e18ce,64c8011a20b4977c093942f8,down,1,0.75,0.2429,8,0,0.4236,26,0,26,0,1,,,,,,,,,,
,,245934,001,2023-07-31_20h55.50.188,arm3_eps,2022.2.5,Win32,60.12867537,5ece064a75736a193990951a,64c7fed44a04f777bb1e18ce,64c8011a20b4977c093942f8,right,1,0.75,0.2429,8,0.010740413,1.3016,27,0,27,0,1,,,,,,,,,,
,,245934,001,2023-07-31_20h55.50.188,arm3_eps,2022.2.5,Win32,60.12867537,5ece064a75736a193990951a,64c7fed44a04f777bb1e18ce,64c8011a20b4977c093942f8,up,1,0.75,0.2429,8,0,0.2174,28,0,28,0,1,,,,,,,,,,
,,245934,001,2023-07-31_20h55.50.188,arm3_eps,2022.2.5,Win32,60.12867537,5ece064a75736a193990951a,64c7fed44a04f777bb1e18ce,64c8011a20b4977c093942f8,right,1,0.75,0.2429,8,0.013365053,1.104,29,0,29,0,1,,,,,,,,,,
,,245934,001,2023-07-31_20h55.50.188,arm3_eps,2022.2.5,Win32,60.12867537,5ece064a75736a193990951a,64c7fed44a04f777bb1e18ce,64c8011a20b4977c093942f8,up,1,0.75,0.2429,9,0,0.3685,30,0,30,0,1,,,,,,,,,,
,,245934,001,2023-07-31_20h55.50.188,arm3_eps,2022.2.5,Win32,60.12867537,5ece064a75736a193990951a,64c7fed44a04f777bb1e18ce,64c8011a20b4977c093942f8,right,1,0.75,0.2429,9,0.023486552,0.8265,31,0,31,0,1,,,,,,,,,,
,,245934,001,2023-07-31_20h55.50.188,arm3_eps,2022.2.5,Win32,60.12867537,5ece064a75736a193990951a,64c7fed44a04f777bb1e18ce,64c8011a20b4977c093942f8,right,1,0.75,0.2429,9,0.045308686,0.1842,32,0,32,0,1,,,,,,,,,,
,,245934,001,2023-07-31_20h55.50.188,arm3_eps,2022.2.5,Win32,60.12867537,5ece064a75736a193990951a,64c7fed44a04f777bb1e18ce,64c8011a20b4977c093942f8,up,-1,0.75,0.2429,10,0,0.4842,33,0,33,0,1,,,,,,,,,,
,,245934,001,2023-07-31_20h55.50.188,arm3_eps,2022.2.5,Win32,60.12867537,5ece064a75736a193990951a,64c7fed44a04f777bb1e18ce,64c8011a20b4977c093942f8,right,-1,0.75,0.2429,10,-0.007274475,0.863,34,0,34,0,1,,,,,,,,,,
,,245934,001,2023-07-31_20h55.50.188,arm3_eps,2022.2.5,Win32,60.12867537,5ece064a75736a193990951a,64c7fed44a04f777bb1e18ce,64c8011a20b4977c093942f8,up,-1,0.75,0.2429,9,0,0.5169,35,0,35,0,1,,,,,,,,,,
,,245934,001,2023-07-31_20h55.50.188,arm3_eps,2022.2.5,Win32,60.12867537,5ece064a75736a193990951a,64c7fed44a04f777bb1e18ce,64c8011a20b4977c093942f8,right,-1,0.75,0.2429,9,0.038745642,1.4355,36,0,36,0,1,,,,,,,,,,
,,245934,001,2023-07-31_20h55.50.188,arm3_eps,2022.2.5,Win32,60.12867537,5ece064a75736a193990951a,64c7fed44a04f777bb1e18ce,64c8011a20b4977c093942f8,up,-1,0.75,0.2429,8,0,0.4447,37,0,37,0,1,,,,,,,,,,
,,245934,001,2023-07-31_20h55.50.188,arm3_eps,2022.2.5,Win32,60.12867537,5ece064a75736a193990951a,64c7fed44a04f777bb1e18ce,64c8011a20b4977c093942f8,right,-1,0.75,0.2429,8,-0.033953003,1.5194,38,0,38,0,1,,,,,,,,,,
,,245934,001,2023-07-31_20h55.50.188,arm3_eps,2022.2.5,Win32,60.12867537,5ece064a75736a193990951a,64c7fed44a04f777bb1e18ce,64c8011a20b4977c093942f8,up,1,0.75,0.2429,8,0,0.3345,39,0,39,0,1,,,,,,,,,,
,,245934,001,2023-07-31_20h55.50.188,arm3_eps,2022.2.5,Win32,60.12867537,5ece064a75736a193990951a,64c7fed44a04f777bb1e18ce,64c8011a20b4977c093942f8,right,1,0.75,0.2429,8,0.016331815,1.1342,40,0,40,0,1,,,,,,,,,,
,,245934,001,2023-07-31_20h55.50.188,arm3_eps,2022.2.5,Win32,60.12867537,5ece064a75736a193990951a,64c7fed44a04f777bb1e18ce,64c8011a20b4977c093942f8,up,-1,0.75,0.2429,8,0,0.3003,41,0,41,0,1,,,,,,,,,,
,,245934,001,2023-07-31_20h55.50.188,arm3_eps,2022.2.5,Win32,60.12867537,5ece064a75736a193990951a,64c7fed44a04f777bb1e18ce,64c8011a20b4977c093942f8,right,-1,0.75,0.2429,8,0.01220042,0.8941,42,0,42,0,1,,,,,,,,,,
,,245934,001,2023-07-31_20h55.50.188,arm3_eps,2022.2.5,Win32,60.12867537,5ece064a75736a193990951a,64c7fed44a04f777bb1e18ce,64c8011a20b4977c093942f8,up,-1,0.75,0.2429,7,0,0.3002,43,0,43,0,1,,,,,,,,,,
,,245934,001,2023-07-31_20h55.50.188,arm3_eps,2022.2.5,Win32,60.12867537,5ece064a75736a193990951a,64c7fed44a04f777bb1e18ce,64c8011a20b4977c093942f8,right,-1,0.75,0.2429,7,-0.040991782,0.8109,44,0,44,0,1,,,,,,,,,,
,,245934,001,2023-07-31_20h55.50.188,arm3_eps,2022.2.5,Win32,60.12867537,5ece064a75736a193990951a,64c7fed44a04f777bb1e18ce,64c8011a20b4977c093942f8,up,-1,0.75,0.2429,7,0,0.3505,45,0,45,0,1,,,,,,,,,,
,,245934,001,2023-07-31_20h55.50.188,arm3_eps,2022.2.5,Win32,60.12867537,5ece064a75736a193990951a,64c7fed44a04f777bb1e18ce,64c8011a20b4977c093942f8,right,-1,0.75,0.2429,7,-0.001842765,0.8224,46,0,46,0,1,,,,,,,,,,
,,245934,001,2023-07-31_20h55.50.188,arm3_eps,2022.2.5,Win32,60.12867537,5ece064a75736a193990951a,64c7fed44a04f777bb1e18ce,64c8011a20b4977c093942f8,down,-1,0.75,0.2429,7,0,0.9672,47,0,47,0,1,,,,,,,,,,
,,245934,001,2023-07-31_20h55.50.188,arm3_eps,2022.2.5,Win32,60.12867537,5ece064a75736a193990951a,64c7fed44a04f777bb1e18ce,64c8011a20b4977c093942f8,right,-1,0.75,0.2429,7,-0.001724444,0.9057,48,0,48,0,1,,,,,,,,,,
,,245934,001,2023-07-31_20h55.50.188,arm3_eps,2022.2.5,Win32,60.12867537,5ece064a75736a193990951a,64c7fed44a04f777bb1e18ce,64c8011a20b4977c093942f8,down,-1,0.75,0.2429,7,-0.001724444,0.403,49,0,49,0,1,,,,,,,,,,
space,13.2014,245934,001,2023-07-31_20h55.50.188,arm3_eps,2022.2.5,Win32,60.12867537,5ece064a75736a193990951a,64c7fed44a04f777bb1e18ce,64c8011a20b4977c093942f8,,,,,,,,,,,,,,,,,,,,,,
space,25.8097,245934,001,2023-07-31_20h55.50.188,arm3_eps,2022.2.5,Win32,60.12867537,5ece064a75736a193990951a,64c7fed44a04f777bb1e18ce,64c8011a20b4977c093942f8,,,,,,,,,,,,,,,,,,,,,,
space,1.7754,245934,001,2023-07-31_20h55.50.188,arm3_eps,2022.2.5,Win32,60.12867537,5ece064a75736a193990951a,64c7fed44a04f777bb1e18ce,64c8011a20b4977c093942f8,,,,,,,,,,,,,,,,,,,,,,
,,245934,001,2023-07-31_20h55.50.188,arm3_eps,2022.2.5,Win32,60.12867537,5ece064a75736a193990951a,64c7fed44a04f777bb1e18ce,64c8011a20b4977c093942f8,right,-1,0.75,0.05,0,-0.00016604,1.8774,0,0,0,0,1,,,,,,,,,,
,,245934,001,2023-07-31_20h55.50.188,arm3_eps,2022.2.5,Win32,60.12867537,5ece064a75736a193990951a,64c7fed44a04f777bb1e18ce,64c8011a20b4977c093942f8,down,-1,0.75,0.05,0,0,0.9099,1,0,1,0,1,,,,,,,,,,
,,245934,001,2023-07-31_20h55.50.188,arm3_eps,2022.2.5,Win32,60.12867537,5ece064a75736a193990951a,64c7fed44a04f777bb1e18ce,64c8011a20b4977c093942f8,right,-1,0.75,0.05,0,-0.010004035,0.9992,2,0,2,0,1,,,,,,,,,,
,,245934,001,2023-07-31_20h55.50.188,arm3_eps,2022.2.5,Win32,60.12867537,5ece064a75736a193990951a,64c7fed44a04f777bb1e18ce,64c8011a20b4977c093942f8,down,-1,0.75,0.05,1,0,0.6343,3,0,3,0,1,,,,,,,,,,
,,245934,001,2023-07-31_20h55.50.188,arm3_eps,2022.2.5,Win32,60.12867537,5ece064a75736a193990951a,64c7fed44a04f777bb1e18ce,64c8011a20b4977c093942f8,right,-1,0.75,0.05,1,0.006274361,1.4173,4,0,4,0,1,,,,,,,,,,
,,245934,001,2023-07-31_20h55.50.188,arm3_eps,2022.2.5,Win32,60.12867537,5ece064a75736a193990951a,64c7fed44a04f777bb1e18ce,64c8011a20b4977c093942f8,down,-1,0.75,0.05,2,0,0.7058,5,0,5,0,1,,,,,,,,,,
,,245934,001,2023-07-31_20h55.50.188,arm3_eps,2022.2.5,Win32,60.12867537,5ece064a75736a193990951a,64c7fed44a04f777bb1e18ce,64c8011a20b4977c093942f8,right,-1,0.75,0.05,2,-0.004008201,1.1374,6,0,6,0,1,,,,,,,,,,
,,245934,001,2023-07-31_20h55.50.188,arm3_eps,2022.2.5,Win32,60.12867537,5ece064a75736a193990951a,64c7fed44a04f777bb1e18ce,64c8011a20b4977c093942f8,down,-1,0.75,0.05,3,0,0.423,7,0,7,0,1,,,,,,,,,,
,,245934,001,2023-07-31_20h55.50.188,arm3_eps,2022.2.5,Win32,60.12867537,5ece064a75736a193990951a,64c7fed44a04f777bb1e18ce,64c8011a20b4977c093942f8,right,-1,0.75,0.05,3,-0.00253538,1.2481,8,0,8,0,1,,,,,,,,,,
,,245934,001,2023-07-31_20h55.50.188,arm3_eps,2022.2.5,Win32,60.12867537,5ece064a75736a193990951a,64c7fed44a04f777bb1e18ce,64c8011a20b4977c093942f8,down,-1,0.75,0.05,4,0,0.3806,9,0,9,0,1,,,,,,,,,,
,,245934,001,2023-07-31_20h55.50.188,arm3_eps,2022.2.5,Win32,60.12867537,5ece064a75736a193990951a,64c7fed44a04f777bb1e18ce,64c8011a20b4977c093942f8,down,-1,0.75,0.05,5,0,1.3318,10,0,10,0,1,,,,,,,,,,
,,245934,001,2023-07-31_20h55.50.188,arm3_eps,2022.2.5,Win32,60.12867537,5ece064a75736a193990951a,64c7fed44a04f777bb1e18ce,64c8011a20b4977c093942f8,down,-1,0.75,0.05,6,0,1.4882,11,0,11,0,1,,,,,,,,,,
,,245934,001,2023-07-31_20h55.50.188,arm3_eps,2022.2.5,Win32,60.12867537,5ece064a75736a193990951a,64c7fed44a04f777bb1e18ce,64c8011a20b4977c093942f8,down,-1,0.75,0.05,7,0,1.5657,12,0,12,0,1,,,,,,,,,,
,,245934,001,2023-07-31_20h55.50.188,arm3_eps,2022.2.5,Win32,60.12867537,5ece064a75736a193990951a,64c7fed44a04f777bb1e18ce,64c8011a20b4977c093942f8,down,-1,0.75,0.05,8,0,1.4504,13,0,13,0,1,,,,,,,,,,
,,245934,001,2023-07-31_20h55.50.188,arm3_eps,2022.2.5,Win32,60.12867537,5ece064a75736a193990951a,64c7fed44a04f777bb1e18ce,64c8011a20b4977c093942f8,down,-1,0.75,0.05,9,0,1.3675,14,0,14,0,1,,,,,,,,,,
,,245934,001,2023-07-31_20h55.50.188,arm3_eps,2022.2.5,Win32,60.12867537,5ece064a75736a193990951a,64c7fed44a04f777bb1e18ce,64c8011a20b4977c093942f8,down,-1,0.75,0.05,10,0,1.123,15,0,15,0,1,,,,,,,,,,
,,245934,001,2023-07-31_20h55.50.188,arm3_eps,2022.2.5,Win32,60.12867537,5ece064a75736a193990951a,64c7fed44a04f777bb1e18ce,64c8011a20b4977c093942f8,down,-1,0.75,0.05,11,0,1.3025,16,0,16,0,1,,,,,,,,,,
,,245934,001,2023-07-31_20h55.50.188,arm3_eps,2022.2.5,Win32,60.12867537,5ece064a75736a193990951a,64c7fed44a04f777bb1e18ce,64c8011a20b4977c093942f8,down,-1,0.75,0.05,12,0,1.0518,17,0,17,0,1,,,,,,,,,,
,,245934,001,2023-07-31_20h55.50.188,arm3_eps,2022.2.5,Win32,60.12867537,5ece064a75736a193990951a,64c7fed44a04f777bb1e18ce,64c8011a20b4977c093942f8,down,-1,0.75,0.05,13,0,1.0646,18,0,18,0,1,,,,,,,,,,
,,245934,001,2023-07-31_20h55.50.188,arm3_eps,2022.2.5,Win32,60.12867537,5ece064a75736a193990951a,64c7fed44a04f777bb1e18ce,64c8011a20b4977c093942f8,right,-1,0.75,0.05,13,-0.012274562,1.4269,19,0,19,0,1,,,,,,,,,,
,,245934,001,2023-07-31_20h55.50.188,arm3_eps,2022.2.5,Win32,60.12867537,5ece064a75736a193990951a,64c7fed44a04f777bb1e18ce,64c8011a20b4977c093942f8,down,-1,0.75,0.05,14,0,0.4552,20,0,20,0,1,,,,,,,,,,
,,245934,001,2023-07-31_20h55.50.188,arm3_eps,2022.2.5,Win32,60.12867537,5ece064a75736a193990951a,64c7fed44a04f777bb1e18ce,64c8011a20b4977c093942f8,right,-1,0.75,0.05,14,-0.019410724,0.8639,21,0,21,0,1,,,,,,,,,,
,,245934,001,2023-07-31_20h55.50.188,arm3_eps,2022.2.5,Win32,60.12867537,5ece064a75736a193990951a,64c7fed44a04f777bb1e18ce,64c8011a20b4977c093942f8,down,-1,0.75,0.05,15,0,0.2839,22,0,22,0,1,,,,,,,,,,
,,245934,001,2023-07-31_20h55.50.188,arm3_eps,2022.2.5,Win32,60.12867537,5ece064a75736a193990951a,64c7fed44a04f777bb1e18ce,64c8011a20b4977c093942f8,down,1,0.75,0.05,16,0,0.8854,23,0,23,0,1,,,,,,,,,,
,,245934,001,2023-07-31_20h55.50.188,arm3_eps,2022.2.5,Win32,60.12867537,5ece064a75736a193990951a,64c7fed44a04f777bb1e18ce,64c8011a20b4977c093942f8,down,1,0.75,0.05,15,0,1.0411,24,0,24,0,1,,,,,,,,,,
,,245934,001,2023-07-31_20h55.50.188,arm3_eps,2022.2.5,Win32,60.12867537,5ece064a75736a193990951a,64c7fed44a04f777bb1e18ce,64c8011a20b4977c093942f8,right,1,0.75,0.05,15,0.003394841,1.8336,25,0,25,0,1,,,,,,,,,,
,,245934,001,2023-07-31_20h55.50.188,arm3_eps,2022.2.5,Win32,60.12867537,5ece064a75736a193990951a,64c7fed44a04f777bb1e18ce,64c8011a20b4977c093942f8,up,1,0.75,0.05,16,0,0.8358,26,0,26,0,1,,,,,,,,,,
,,245934,001,2023-07-31_20h55.50.188,arm3_eps,2022.2.5,Win32,60.12867537,5ece064a75736a193990951a,64c7fed44a04f777bb1e18ce,64c8011a20b4977c093942f8,right,1,0.75,0.05,16,0.031402805,0.8277,27,0,27,0,1,,,,,,,,,,
,,245934,001,2023-07-31_20h55.50.188,arm3_eps,2022.2.5,Win32,60.12867537,5ece064a75736a193990951a,64c7fed44a04f777bb1e18ce,64c8011a20b4977c093942f8,up,1,0.75,0.05,17,0,0.4839,28,0,28,0,1,,,,,,,,,,
,,245934,001,2023-07-31_20h55.50.188,arm3_eps,2022.2.5,Win32,60.12867537,5ece064a75736a193990951a,64c7fed44a04f777bb1e18ce,64c8011a20b4977c093942f8,right,1,0.75,0.05,17,0.01729173,0.6364,29,0,29,0,1,,,,,,,,,,
,,245934,001,2023-07-31_20h55.50.188,arm3_eps,2022.2.5,Win32,60.12867537,5ece064a75736a193990951a,64c7fed44a04f777bb1e18ce,64c8011a20b4977c093942f8,up,1,0.75,0.05,18,0,0.3377,30,0,30,0,1,,,,,,,,,,
,,245934,001,2023-07-31_20h55.50.188,arm3_eps,2022.2.5,Win32,60.12867537,5ece064a75736a193990951a,64c7fed44a04f777bb1e18ce,64c8011a20b4977c093942f8,right,1,0.75,0.05,18,0.025975914,0.5674,31,0,31,0,1,,,,,,,,,,
,,245934,001,2023-07-31_20h55.50.188,arm3_eps,2022.2.5,Win32,60.12867537,5ece064a75736a193990951a,64c7fed44a04f777bb1e18ce,64c8011a20b4977c093942f8,up,1,0.75,0.05,19,0,0.3381,32,0,32,0,1,,,,,,,,,,
,,245934,001,2023-07-31_20h55.50.188,arm3_eps,2022.2.5,Win32,60.12867537,5ece064a75736a193990951a,64c7fed44a04f777bb1e18ce,64c8011a20b4977c093942f8,right,1,0.75,0.05,19,-0.009746782,0.4692,33,0,33,0,1,,,,,,,,,,
,,245934,001,2023-07-31_20h55.50.188,arm3_eps,2022.2.5,Win32,60.12867537,5ece064a75736a193990951a,64c7fed44a04f777bb1e18ce,64c8011a20b4977c093942f8,up,1,0.75,0.05,20,0,0.3507,34,0,34,0,1,,,,,,,,,,
,,245934,001,2023-07-31_20h55.50.188,arm3_eps,2022.2.5,Win32,60.12867537,5ece064a75736a193990951a,64c7fed44a04f777bb1e18ce,64c8011a20b4977c093942f8,right,1,0.75,0.05,20,-0.015811033,0.6006,35,0,35,0,1,,,,,,,,,,
,,245934,001,2023-07-31_20h55.50.188,arm3_eps,2022.2.5,Win32,60.12867537,5ece064a75736a193990951a,64c7fed44a04f777bb1e18ce,64c8011a20b4977c093942f8,up,1,0.75,0.05,20,0,0.3072,36,0,36,0,1,,,,,,,,,,
,,245934,001,2023-07-31_20h55.50.188,arm3_eps,2022.2.5,Win32,60.12867537,5ece064a75736a193990951a,64c7fed44a04f777bb1e18ce,64c8011a20b4977c093942f8,right,1,0.75,0.05,20,0.027210933,1.0193,37,0,37,0,1,,,,,,,,,,
,,245934,001,2023-07-31_20h55.50.188,arm3_eps,2022.2.5,Win32,60.12867537,5ece064a75736a193990951a,64c7fed44a04f777bb1e18ce,64c8011a20b4977c093942f8,up,1,0.75,0.05,20,0,0.3864,38,0,38,0,1,,,,,,,,,,
,,245934,001,2023-07-31_20h55.50.188,arm3_eps,2022.2.5,Win32,60.12867537,5ece064a75736a193990951a,64c7fed44a04f777bb1e18ce,64c8011a20b4977c093942f8,up,1,0.75,0.05,20,0,0.9202,39,0,39,0,1,,,,,,,,,,
,,245934,001,2023-07-31_20h55.50.188,arm3_eps,2022.2.5,Win32,60.12867537,5ece064a75736a193990951a,64c7fed44a04f777bb1e18ce,64c8011a20b4977c093942f8,up,1,0.75,0.05,21,0,0.84,40,0,40,0,1,,,,,,,,,,
,,245934,001,2023-07-31_20h55.50.188,arm3_eps,2022.2.5,Win32,60.12867537,5ece064a75736a193990951a,64c7fed44a04f777bb1e18ce,64c8011a20b4977c093942f8,up,1,0.75,0.05,21,0,0.8038,41,0,41,0,1,,,,,,,,,,
,,245934,001,2023-07-31_20h55.50.188,arm3_eps,2022.2.5,Win32,60.12867537,5ece064a75736a193990951a,64c7fed44a04f777bb1e18ce,64c8011a20b4977c093942f8,up,1,0.75,0.05,22,0,0.8492,42,0,42,0,1,,,,,,,,,,
,,245934,001,2023-07-31_20h55.50.188,arm3_eps,2022.2.5,Win32,60.12867537,5ece064a75736a193990951a,64c7fed44a04f777bb1e18ce,64c8011a20b4977c093942f8,up,1,0.75,0.05,23,0,0.8336,43,0,43,0,1,,,,,,,,,,
,,245934,001,2023-07-31_20h55.50.188,arm3_eps,2022.2.5,Win32,60.12867537,5ece064a75736a193990951a,64c7fed44a04f777bb1e18ce,64c8011a20b4977c093942f8,up,1,0.75,0.05,24,0,0.8405,44,0,44,0,1,,,,,,,,,,
,,245934,001,2023-07-31_20h55.50.188,arm3_eps,2022.2.5,Win32,60.12867537,5ece064a75736a193990951a,64c7fed44a04f777bb1e18ce,64c8011a20b4977c093942f8,up,1,0.75,0.05,25,0,0.8178,45,0,45,0,1,,,,,,,,,,
,,245934,001,2023-07-31_20h55.50.188,arm3_eps,2022.2.5,Win32,60.12867537,5ece064a75736a193990951a,64c7fed44a04f777bb1e18ce,64c8011a20b4977c093942f8,up,1,0.75,0.05,25,0,1.1344,46,0,46,0,1,,,,,,,,,,
,,245934,001,2023-07-31_20h55.50.188,arm3_eps,2022.2.5,Win32,60.12867537,5ece064a75736a193990951a,64c7fed44a04f777bb1e18ce,64c8011a20b4977c093942f8,up,1,0.75,0.05,26,0,0.9845,47,0,47,0,1,,,,,,,,,,
,,245934,001,2023-07-31_20h55.50.188,arm3_eps,2022.2.5,Win32,60.12867537,5ece064a75736a193990951a,64c7fed44a04f777bb1e18ce,64c8011a20b4977c093942f8,up,1,0.75,0.05,27,0,0.8356,48,0,48,0,1,,,,,,,,,,
,,245934,001,2023-07-31_20h55.50.188,arm3_eps,2022.2.5,Win32,60.12867537,5ece064a75736a193990951a,64c7fed44a04f777bb1e18ce,64c8011a20b4977c093942f8,up,1,0.75,0.05,27,0,0.7753,49,0,49,0,1,,,,,,,,,,
space,5.3119,245934,001,2023-07-31_20h55.50.188,arm3_eps,2022.2.5,Win32,60.12867537,5ece064a75736a193990951a,64c7fed44a04f777bb1e18ce,64c8011a20b4977c093942f8,,,,,,,,,,,,,,,,,,,,,,
space,1.6384,245934,001,2023-07-31_20h55.50.188,arm3_eps,2022.2.5,Win32,60.12867537,5ece064a75736a193990951a,64c7fed44a04f777bb1e18ce,64c8011a20b4977c093942f8,,,,,,,,,,,,,,,,,,,,,,
,,245934,001,2023-07-31_20h55.50.188,arm3_eps,2022.2.5,Win32,60.12867537,5ece064a75736a193990951a,64c7fed44a04f777bb1e18ce,64c8011a20b4977c093942f8,right,1,0.75,0.5,0,-0.009531932,2.0086,0,0,0,0,1,,,,,,,,,,
,,245934,001,2023-07-31_20h55.50.188,arm3_eps,2022.2.5,Win32,60.12867537,5ece064a75736a193990951a,64c7fed44a04f777bb1e18ce,64c8011a20b4977c093942f8,down,-1,0.75,0.5,-1,0,1.2175,1,0,1,0,1,,,,,,,,,,
,,245934,001,2023-07-31_20h55.50.188,arm3_eps,2022.2.5,Win32,60.12867537,5ece064a75736a193990951a,64c7fed44a04f777bb1e18ce,64c8011a20b4977c093942f8,right,-1,0.75,0.5,-1,0.002804639,0.8421,2,0,2,0,1,,,,,,,,,,
,,245934,001,2023-07-31_20h55.50.188,arm3_eps,2022.2.5,Win32,60.12867537,5ece064a75736a193990951a,64c7fed44a04f777bb1e18ce,64c8011a20b4977c093942f8,up,1,0.75,0.5,-2,0,0.6166,3,0,3,0,1,,,,,,,,,,
,,245934,001,2023-07-31_20h55.50.188,arm3_eps,2022.2.5,Win32,60.12867537,5ece064a75736a193990951a,64c7fed44a04f777bb1e18ce,64c8011a20b4977c093942f8,right,1,0.75,0.5,-2,0.004267513,0.7509,4,0,4,0,1,,,,,,,,,,
,,245934,001,2023-07-31_20h55.50.188,arm3_eps,2022.2.5,Win32,60.12867537,5ece064a75736a193990951a,64c7fed44a04f777bb1e18ce,64c8011a20b4977c093942f8,down,-1,0.75,0.5,-3,0,0.6502,5,0,5,0,1,,,,,,,,,,
,,245934,001,2023-07-31_20h55.50.188,arm3_eps,2022.2.5,Win32,60.12867537,5ece064a75736a193990951a,64c7fed44a04f777bb1e18ce,64c8011a20b4977c093942f8,right,-1,0.75,0.5,-3,0.026262331,0.6346,6,0,6,0,1,,,,,,,,,,
,,245934,001,2023-07-31_20h55.50.188,arm3_eps,2022.2.5,Win32,60.12867537,5ece064a75736a193990951a,64c7fed44a04f777bb1e18ce,64c8011a20b4977c093942f8,up,-1,0.75,0.5,-4,0,0.3884,7,0,7,0,1,,,,,,,,,,
,,245934,001,2023-07-31_20h55.50.188,arm3_eps,2022.2.5,Win32,60.12867537,5ece064a75736a193990951a,64c7fed44a04f777bb1e18ce,64c8011a20b4977c093942f8,right,-1,0.75,0.5,-4,0.029898176,0.7345,8,0,8,0,1,,,,,,,,,,
,,245934,001,2023-07-31_20h55.50.188,arm3_eps,2022.2.5,Win32,60.12867537,5ece064a75736a193990951a,64c7fed44a04f777bb1e18ce,64c8011a20b4977c093942f8,up,1,0.75,0.5,-5,0,0.3842,9,0,9,0,1,,,,,,,,,,
,,245934,001,2023-07-31_20h55.50.188,arm3_eps,2022.2.5,Win32,60.12867537,5ece064a75736a193990951a,64c7fed44a04f777bb1e18ce,64c8011a20b4977c093942f8,right,1,0.75,0.5,-5,-0.001634363,0.584,10,0,10,0,1,,,,,,,,,,
,,245934,001,2023-07-31_20h55.50.188,arm3_eps,2022.2.5,Win32,60.12867537,5ece064a75736a193990951a,64c7fed44a04f777bb1e18ce,64c8011a20b4977c093942f8,down,1,0.75,0.5,-6,0,0.4014,11,0,11,0,1,,,,,,,,,,
,,245934,001,2023-07-31_20h55.50.188,arm3_eps,2022.2.5,Win32,60.12867537,5ece064a75736a193990951a,64c7fed44a04f777bb1e18ce,64c8011a20b4977c093942f8,right,1,0.75,0.5,-6,-0.000100134,1.4009,12,0,12,0,1,,,,,,,,,,
,,245934,001,2023-07-31_20h55.50.188,arm3_eps,2022.2.5,Win32,60.12867537,5ece064a75736a193990951a,64c7fed44a04f777bb1e18ce,64c8011a20b4977c093942f8,down,1,0.75,0.5,-7,0,0.3902,13,0,13,0,1,,,,,,,,,,
,,245934,001,2023-07-31_20h55.50.188,arm3_eps,2022.2.5,Win32,60.12867537,5ece064a75736a193990951a,64c7fed44a04f777bb1e18ce,64c8011a20b4977c093942f8,right,1,0.75,0.5,-7,-0.002924166,0.767,14,0,14,0,1,,,,,,,,,,
,,245934,001,2023-07-31_20h55.50.188,arm3_eps,2022.2.5,Win32,60.12867537,5ece064a75736a193990951a,64c7fed44a04f777bb1e18ce,64c8011a20b4977c093942f8,up,-1,0.75,0.5,-6,0,0.4387,15,0,15,0,1,,,,,,,,,,
,,245934,001,2023-07-31_20h55.50.188,arm3_eps,2022.2.5,Win32,60.12867537,5ece064a75736a193990951a,64c7fed44a04f777bb1e18ce,64c8011a20b4977c093942f8,right,-1,0.75,0.5,-6,-0.027172502,1.1342,16,0,16,0,1,,,,,,,,,,
,,245934,001,2023-07-31_20h55.50.188,arm3_eps,2022.2.5,Win32,60.12867537,5ece064a75736a193990951a,64c7fed44a04f777bb1e18ce,64c8011a20b4977c093942f8,down,-1,0.75,0.5,-5,0,0.4696,17,0,17,0,1,,,,,,,,,,
,,245934,001,2023-07-31_20h55.50.188,arm3_eps,2022.2.5,Win32,60.12867537,5ece064a75736a193990951a,64c7fed44a04f777bb1e18ce,64c8011a20b4977c093942f8,right,-1,0.75,0.5,-5,-0.028944079,0.745,18,0,18,0,1,,,,,,,,,,
,,245934,001,2023-07-31_20h55.50.188,arm3_eps,2022.2.5,Win32,60.12867537,5ece064a75736a193990951a,64c7fed44a04f777bb1e18ce,64c8011a20b4977c093942f8,up,1,0.75,0.5,-5,0,0.4103,19,0,19,0,1,,,,,,,,,,
,,245934,001,2023-07-31_20h55.50.188,arm3_eps,2022.2.5,Win32,60.12867537,5ece064a75736a193990951a,64c7fed44a04f777bb1e18ce,64c8011a20b4977c093942f8,right,1,0.75,0.5,-5,0.008285615,1.1259,20,0,20,0,1,,,,,,,,,,
,,245934,001,2023-07-31_20h55.50.188,arm3_eps,2022.2.5,Win32,60.12867537,5ece064a75736a193990951a,64c7fed44a04f777bb1e18ce,64c8011a20b4977c093942f8,up,1,0.75,0.5,-5,0,1.3504,21,0,21,0,1,,,,,,,,,,
,,245934,001,2023-07-31_20h55.50.188,arm3_eps,2022.2.5,Win32,60.12867537,5ece064a75736a193990951a,64c7fed44a04f777bb1e18ce,64c8011a20b4977c093942f8,right,1,0.75,0.5,-5,0.030903374,0.5938,22,0,22,0,1,,,,,,,,,,
,,245934,001,2023-07-31_20h55.50.188,arm3_eps,2022.2.5,Win32,60.12867537,5ece064a75736a193990951a,64c7fed44a04f777bb1e18ce,64c8011a20b4977c093942f8,up,-1,0.75,0.5,-4,0,0.4589,23,0,23,0,1,,,,,,,,,,
,,245934,001,2023-07-31_20h55.50.188,arm3_eps,2022.2.5,Win32,60.12867537,5ece064a75736a193990951a,64c7fed44a04f777bb1e18ce,64c8011a20b4977c093942f8,right,-1,0.75,0.5,-4,0.008594393,0.6523,24,0,24,0,1,,,,,,,,,,
,,245934,001,2023-07-31_20h55.50.188,arm3_eps,2022.2.5,Win32,60.12867537,5ece064a75736a193990951a,64c7fed44a04f777bb1e18ce,64c8011a20b4977c093942f8,down,-1,0.75,0.5,-3,0,0.9844,25,0,25,0,1,,,,,,,,,,
,,245934,001,2023-07-31_20h55.50.188,arm3_eps,2022.2.5,Win32,60.12867537,5ece064a75736a193990951a,64c7fed44a04f777bb1e18ce,64c8011a20b4977c093942f8,right,-1,0.75,0.5,-3,-0.020411284,0.661,26,0,26,0,1,,,,,,,,,,
,,245934,001,2023-07-31_20h55.50.188,arm3_eps,2022.2.5,Win32,60.12867537,5ece064a75736a193990951a,64c7fed44a04f777bb1e18ce,64c8011a20b4977c093942f8,up,1,0.75,0.5,-4,0,0.5787,27,0,27,0,1,,,,,,,,,,
,,245934,001,2023-07-31_20h55.50.188,arm3_eps,2022.2.5,Win32,60.12867537,5ece064a75736a193990951a,64c7fed44a04f777bb1e18ce,64c8011a20b4977c093942f8,right,1,0.75,0.5,-4,-0.002837514,0.8498,28,0,28,0,1,,,,,,,,,,
,,245934,001,2023-07-31_20h55.50.188,arm3_eps,2022.2.5,Win32,60.12867537,5ece064a75736a193990951a,64c7fed44a04f777bb1e18ce,64c8011a20b4977c093942f8,down,1,0.75,0.5,-5,0,0.307,29,0,29,0,1,,,,,,,,,,
,,245934,001,2023-07-31_20h55.50.188,arm3_eps,2022.2.5,Win32,60.12867537,5ece064a75736a193990951a,64c7fed44a04f777bb1e18ce,64c8011a20b4977c093942f8,right,1,0.75,0.5,-5,0.005875539,0.6422,30,0,30,0,1,,,,,,,,,,
,,245934,001,2023-07-31_20h55.50.188,arm3_eps,2022.2.5,Win32,60.12867537,5ece064a75736a193990951a,64c7fed44a04f777bb1e18ce,64c8011a20b4977c093942f8,up,1,0.75,0.5,-4,0,0.2993,31,0,31,0,1,,,,,,,,,,
,,245934,001,2023-07-31_20h55.50.188,arm3_eps,2022.2.5,Win32,60.12867537,5ece064a75736a193990951a,64c7fed44a04f777bb1e18ce,64c8011a20b4977c093942f8,right,1,0.75,0.5,-4,0.004202019,0.5317,32,0,32,0,1,,,,,,,,,,
,,245934,001,2023-07-31_20h55.50.188,arm3_eps,2022.2.5,Win32,60.12867537,5ece064a75736a193990951a,64c7fed44a04f777bb1e18ce,64c8011a20b4977c093942f8,up,-1,0.75,0.5,-3,0,0.4294,33,0,33,0,1,,,,,,,,,,
,,245934,001,2023-07-31_20h55.50.188,arm3_eps,2022.2.5,Win32,60.12867537,5ece064a75736a193990951a,64c7fed44a04f777bb1e18ce,64c8011a20b4977c093942f8,right,-1,0.75,0.5,-3,0.031792063,0.3481,34,0,34,0,1,,,,,,,,,,
,,245934,001,2023-07-31_20h55.50.188,arm3_eps,2022.2.5,Win32,60.12867537,5ece064a75736a193990951a,64c7fed44a04f777bb1e18ce,64c8011a20b4977c093942f8,up,-1,0.75,0.5,-4,0,0.4611,35,0,35,0,1,,,,,,,,,,
,,245934,001,2023-07-31_20h55.50.188,arm3_eps,2022.2.5,Win32,60.12867537,5ece064a75736a193990951a,64c7fed44a04f777bb1e18ce,64c8011a20b4977c093942f8,right,-1,0.75,0.5,-4,0.013845645,0.505,36,0,36,0,1,,,,,,,,,,
,,245934,001,2023-07-31_20h55.50.188,arm3_eps,2022.2.5,Win32,60.12867537,5ece064a75736a193990951a,64c7fed44a04f777bb1e18ce,64c8011a20b4977c093942f8,down,1,0.75,0.5,-4,0,0.3115,37,0,37,0,1,,,,,,,,,,
,,245934,001,2023-07-31_20h55.50.188,arm3_eps,2022.2.5,Win32,60.12867537,5ece064a75736a193990951a,64c7fed44a04f777bb1e18ce,64c8011a20b4977c093942f8,right,1,0.75,0.5,-4,0.029165383,0.7466,38,0,38,0,1,,,,,,,,,,
,,245934,001,2023-07-31_20h55.50.188,arm3_eps,2022.2.5,Win32,60.12867537,5ece064a75736a193990951a,64c7fed44a04f777bb1e18ce,64c8011a20b4977c093942f8,up,-1,0.75,0.5,-3,0,0.2628,39,0,39,0,1,,,,,,,,,,
,,245934,001,2023-07-31_20h55.50.188,arm3_eps,2022.2.5,Win32,60.12867537,5ece064a75736a193990951a,64c7fed44a04f777bb1e18ce,64c8011a20b4977c093942f8,right,-1,0.75,0.5,-3,-0.016066239,0.3237,40,0,40,0,1,,,,,,,,,,
,,245934,001,2023-07-31_20h55.50.188,arm3_eps,2022.2.5,Win32,60.12867537,5ece064a75736a193990951a,64c7fed44a04f777bb1e18ce,64c8011a20b4977c093942f8,up,1,0.75,0.5,-4,0,0.3451,41,0,41,0,1,,,,,,,,,,
,,245934,001,2023-07-31_20h55.50.188,arm3_eps,2022.2.5,Win32,60.12867537,5ece064a75736a193990951a,64c7fed44a04f777bb1e18ce,64c8011a20b4977c093942f8,right,1,0.75,0.5,-4,-0.016913129,0.2327,42,0,42,0,1,,,,,,,,,,
,,245934,001,2023-07-31_20h55.50.188,arm3_eps,2022.2.5,Win32,60.12867537,5ece064a75736a193990951a,64c7fed44a04f777bb1e18ce,64c8011a20b4977c093942f8,up,-1,0.75,0.5,-3,0,0.3274,43,0,43,0,1,,,,,,,,,,
,,245934,001,2023-07-31_20h55.50.188,arm3_eps,2022.2.5,Win32,60.12867537,5ece064a75736a193990951a,64c7fed44a04f777bb1e18ce,64c8011a20b4977c093942f8,right,-1,0.75,0.5,-3,-0.01081091,0.7478,44,0,44,0,1,,,,,,,,,,
,,245934,001,2023-07-31_20h55.50.188,arm3_eps,2022.2.5,Win32,60.12867537,5ece064a75736a193990951a,64c7fed44a04f777bb1e18ce,64c8011a20b4977c093942f8,down,-1,0.75,0.5,-2,0,0.2908,45,0,45,0,1,,,,,,,,,,
,,245934,001,2023-07-31_20h55.50.188,arm3_eps,2022.2.5,Win32,60.12867537,5ece064a75736a193990951a,64c7fed44a04f777bb1e18ce,64c8011a20b4977c093942f8,right,-1,0.75,0.5,-2,0.005769838,0.4003,46,0,46,0,1,,,,,,,,,,
,,245934,001,2023-07-31_20h55.50.188,arm3_eps,2022.2.5,Win32,60.12867537,5ece064a75736a193990951a,64c7fed44a04f777bb1e18ce,64c8011a20b4977c093942f8,up,1,0.75,0.5,-3,0,0.2247,47,0,47,0,1,,,,,,,,,,
,,245934,001,2023-07-31_20h55.50.188,arm3_eps,2022.2.5,Win32,60.12867537,5ece064a75736a193990951a,64c7fed44a04f777bb1e18ce,64c8011a20b4977c093942f8,right,1,0.75,0.5,-3,0.00668431,0.3961,48,0,48,0,1,,,,,,,,,,
,,245934,001,2023-07-31_20h55.50.188,arm3_eps,2022.2.5,Win32,60.12867537,5ece064a75736a193990951a,64c7fed44a04f777bb1e18ce,64c8011a20b4977c093942f8,down,1,0.75,0.5,-3,0.00668431,0.2768,49,0,49,0,1,,,,,,,,,,
space,1.92,245934,001,2023-07-31_20h55.50.188,arm3_eps,2022.2.5,Win32,60.12867537,5ece064a75736a193990951a,64c7fed44a04f777bb1e18ce,64c8011a20b4977c093942f8,,,,,,,,,,,,,,,,,,,,,,
space,3.6452,245934,001,2023-07-31_20h55.50.188,arm3_eps,2022.2.5,Win32,60.12867537,5ece064a75736a193990951a,64c7fed44a04f777bb1e18ce,64c8011a20b4977c093942f8,right,1,0.75,0.5,0,-0.005348297,0.5608,,,,,,0,0,0,0,1,,,,,
,,245934,001,2023-07-31_20h55.50.188,arm3_eps,2022.2.5,Win32,60.12867537,5ece064a75736a193990951a,64c7fed44a04f777bb1e18ce,64c8011a20b4977c093942f8,up,-1,0.75,0.5,1,0,0.695,,,,,,1,0,1,0,1,,,,,
,,245934,001,2023-07-31_20h55.50.188,arm3_eps,2022.2.5,Win32,60.12867537,5ece064a75736a193990951a,64c7fed44a04f777bb1e18ce,64c8011a20b4977c093942f8,right,-1,0.75,0.5,1,0.016430678,0.7107,,,,,,2,0,2,0,1,,,,,
,,245934,001,2023-07-31_20h55.50.188,arm3_eps,2022.2.5,Win32,60.12867537,5ece064a75736a193990951a,64c7fed44a04f777bb1e18ce,64c8011a20b4977c093942f8,up,-1,0.75,0.5,0,0,0.5759,,,,,,3,0,3,0,1,,,,,
,,245934,001,2023-07-31_20h55.50.188,arm3_eps,2022.2.5,Win32,60.12867537,5ece064a75736a193990951a,64c7fed44a04f777bb1e18ce,64c8011a20b4977c093942f8,right,-1,0.75,0.5,0,-0.003630552,0.6855,,,,,,4,0,4,0,1,,,,,
,,245934,001,2023-07-31_20h55.50.188,arm3_eps,2022.2.5,Win32,60.12867537,5ece064a75736a193990951a,64c7fed44a04f777bb1e18ce,64c8011a20b4977c093942f8,up,-1,0.75,0.5,-1,0,0.5804,,,,,,5,0,5,0,1,,,,,
,,245934,001,2023-07-31_20h55.50.188,arm3_eps,2022.2.5,Win32,60.12867537,5ece064a75736a193990951a,64c7fed44a04f777bb1e18ce,64c8011a20b4977c093942f8,right,-1,0.75,0.5,-1,-0.005875301,1.2416,,,,,,6,0,6,0,1,,,,,
,,245934,001,2023-07-31_20h55.50.188,arm3_eps,2022.2.5,Win32,60.12867537,5ece064a75736a193990951a,64c7fed44a04f777bb1e18ce,64c8011a20b4977c093942f8,up,1,0.75,0.5,-2,0,0.564,,,,,,7,0,7,0,1,,,,,
,,245934,001,2023-07-31_20h55.50.188,arm3_eps,2022.2.5,Win32,60.12867537,5ece064a75736a193990951a,64c7fed44a04f777bb1e18ce,64c8011a20b4977c093942f8,right,1,0.75,0.5,-2,0.015368752,0.7681,,,,,,8,0,8,0,1,,,,,
,,245934,001,2023-07-31_20h55.50.188,arm3_eps,2022.2.5,Win32,60.12867537,5ece064a75736a193990951a,64c7fed44a04f777bb1e18ce,64c8011a20b4977c093942f8,down,-1,0.75,0.5,-2,0,0.6266,,,,,,9,0,9,0,1,,,,,
,,245934,001,2023-07-31_20h55.50.188,arm3_eps,2022.2.5,Win32,60.12867537,5ece064a75736a193990951a,64c7fed44a04f777bb1e18ce,64c8011a20b4977c093942f8,right,-1,0.75,0.5,-2,-0.016089696,0.8423,,,,,,10,0,10,0,1,,,,,
,,245934,001,2023-07-31_20h55.50.188,arm3_eps,2022.2.5,Win32,60.12867537,5ece064a75736a193990951a,64c7fed44a04f777bb1e18ce,64c8011a20b4977c093942f8,down,1,0.75,0.5,-1,0,0.7428,,,,,,11,0,11,0,1,,,,,
,,245934,001,2023-07-31_20h55.50.188,arm3_eps,2022.2.5,Win32,60.12867537,5ece064a75736a193990951a,64c7fed44a04f777bb1e18ce,64c8011a20b4977c093942f8,right,1,0.75,0.5,-1,0.009395,0.7406,,,,,,12,0,12,0,1,,,,,
,,245934,001,2023-07-31_20h55.50.188,arm3_eps,2022.2.5,Win32,60.12867537,5ece064a75736a193990951a,64c7fed44a04f777bb1e18ce,64c8011a20b4977c093942f8,up,1,0.75,0.5,-1,0,0.7376,,,,,,13,0,13,0,1,,,,,
,,245934,001,2023-07-31_20h55.50.188,arm3_eps,2022.2.5,Win32,60.12867537,5ece064a75736a193990951a,64c7fed44a04f777bb1e18ce,64c8011a20b4977c093942f8,right,1,0.75,0.5,-1,-0.005453475,0.7136,,,,,,14,0,14,0,1,,,,,
,,245934,001,2023-07-31_20h55.50.188,arm3_eps,2022.2.5,Win32,60.12867537,5ece064a75736a193990951a,64c7fed44a04f777bb1e18ce,64c8011a20b4977c093942f8,up,1,0.75,0.5,0,0,0.9627,,,,,,15,0,15,0,1,,,,,
,,245934,001,2023-07-31_20h55.50.188,arm3_eps,2022.2.5,Win32,60.12867537,5ece064a75736a193990951a,64c7fed44a04f777bb1e18ce,64c8011a20b4977c093942f8,right,1,0.75,0.5,0,0.013170587,0.6605,,,,,,16,0,16,0,1,,,,,
,,245934,001,2023-07-31_20h55.50.188,arm3_eps,2022.2.5,Win32,60.12867537,5ece064a75736a193990951a,64c7fed44a04f777bb1e18ce,64c8011a20b4977c093942f8,down,1,0.75,0.5,0,0,0.8191,,,,,,17,0,17,0,1,,,,,
,,245934,001,2023-07-31_20h55.50.188,arm3_eps,2022.2.5,Win32,60.12867537,5ece064a75736a193990951a,64c7fed44a04f777bb1e18ce,64c8011a20b4977c093942f8,right,1,0.75,0.5,0,0.00885031,0.665,,,,,,18,0,18,0,1,,,,,
,,245934,001,2023-07-31_20h55.50.188,arm3_eps,2022.2.5,Win32,60.12867537,5ece064a75736a193990951a,64c7fed44a04f777bb1e18ce,64c8011a20b4977c093942f8,up,-1,0.75,0.5,1,0,0.7905,,,,,,19,0,19,0,1,,,,,
,,245934,001,2023-07-31_20h55.50.188,arm3_eps,2022.2.5,Win32,60.12867537,5ece064a75736a193990951a,64c7fed44a04f777bb1e18ce,64c8011a20b4977c093942f8,right,-1,0.75,0.5,1,-0.01274742,0.6036,,,,,,20,0,20,0,1,,,,,
,,245934,001,2023-07-31_20h55.50.188,arm3_eps,2022.2.5,Win32,60.12867537,5ece064a75736a193990951a,64c7fed44a04f777bb1e18ce,64c8011a20b4977c093942f8,down,-1,0.75,0.5,2,0,1.1341,,,,,,21,0,21,0,1,,,,,
,,245934,001,2023-07-31_20h55.50.188,arm3_eps,2022.2.5,Win32,60.12867537,5ece064a75736a193990951a,64c7fed44a04f777bb1e18ce,64c8011a20b4977c093942f8,right,-1,0.75,0.5,2,-0.001095763,0.5751,,,,,,22,0,22,0,1,,,,,
,,245934,001,2023-07-31_20h55.50.188,arm3_eps,2022.2.5,Win32,60.12867537,5ece064a75736a193990951a,64c7fed44a04f777bb1e18ce,64c8011a20b4977c093942f8,right,-1,0.75,0.5,2,-0.003537279,1.3171,,,,,,23,0,23,0,1,,,,,
,,245934,001,2023-07-31_20h55.50.188,arm3_eps,2022.2.5,Win32,60.12867537,5ece064a75736a193990951a,64c7fed44a04f777bb1e18ce,64c8011a20b4977c093942f8,down,-1,0.75,0.5,2,0,0.8575,,,,,,24,0,24,0,1,,,,,
,,245934,001,2023-07-31_20h55.50.188,arm3_eps,2022.2.5,Win32,60.12867537,5ece064a75736a193990951a,64c7fed44a04f777bb1e18ce,64c8011a20b4977c093942f8,right,-1,0.75,0.5,2,-0.047987734,0.6367,,,,,,25,0,25,0,1,,,,,
,,245934,001,2023-07-31_20h55.50.188,arm3_eps,2022.2.5,Win32,60.12867537,5ece064a75736a193990951a,64c7fed44a04f777bb1e18ce,64c8011a20b4977c093942f8,right,-1,0.75,0.5,2,-0.035420026,1.0504,,,,,,26,0,26,0,1,,,,,
,,245934,001,2023-07-31_20h55.50.188,arm3_eps,2022.2.5,Win32,60.12867537,5ece064a75736a193990951a,64c7fed44a04f777bb1e18ce,64c8011a20b4977c093942f8,up,-1,0.75,0.5,1,0,0.4996,,,,,,27,0,27,0,1,,,,,
,,245934,001,2023-07-31_20h55.50.188,arm3_eps,2022.2.5,Win32,60.12867537,5ece064a75736a193990951a,64c7fed44a04f777bb1e18ce,64c8011a20b4977c093942f8,right,-1,0.75,0.5,1,-0.006134134,1.0137,,,,,,28,0,28,0,1,,,,,
,,245934,001,2023-07-31_20h55.50.188,arm3_eps,2022.2.5,Win32,60.12867537,5ece064a75736a193990951a,64c7fed44a04f777bb1e18ce,64c8011a20b4977c093942f8,down,1,0.75,0.5,1,0,0.4834,,,,,,29,0,29,0,1,,,,,
,,245934,001,2023-07-31_20h55.50.188,arm3_eps,2022.2.5,Win32,60.12867537,5ece064a75736a193990951a,64c7fed44a04f777bb1e18ce,64c8011a20b4977c093942f8,right,1,0.75,0.5,1,-0.012069,0.7216,,,,,,30,0,30,0,1,,,,,
,,245934,001,2023-07-31_20h55.50.188,arm3_eps,2022.2.5,Win32,60.12867537,5ece064a75736a193990951a,64c7fed44a04f777bb1e18ce,64c8011a20b4977c093942f8,up,-1,0.75,0.5,2,0,0.5213,,,,,,31,0,31,0,1,,,,,
,,245934,001,2023-07-31_20h55.50.188,arm3_eps,2022.2.5,Win32,60.12867537,5ece064a75736a193990951a,64c7fed44a04f777bb1e18ce,64c8011a20b4977c093942f8,right,-1,0.75,0.5,2,0.0135366,0.6395,,,,,,32,0,32,0,1,,,,,
,,245934,001,2023-07-31_20h55.50.188,arm3_eps,2022.2.5,Win32,60.12867537,5ece064a75736a193990951a,64c7fed44a04f777bb1e18ce,64c8011a20b4977c093942f8,down,1,0.75,0.5,3,0,0.9461,,,,,,33,0,33,0,1,,,,,
,,245934,001,2023-07-31_20h55.50.188,arm3_eps,2022.2.5,Win32,60.12867537,5ece064a75736a193990951a,64c7fed44a04f777bb1e18ce,64c8011a20b4977c093942f8,right,1,0.75,0.5,3,-0.009130503,0.4303,,,,,,34,0,34,0,1,,,,,
,,245934,001,2023-07-31_20h55.50.188,arm3_eps,2022.2.5,Win32,60.12867537,5ece064a75736a193990951a,64c7fed44a04f777bb1e18ce,64c8011a20b4977c093942f8,down,-1,0.75,0.5,2,0,1.1101,,,,,,35,0,35,0,1,,,,,
,,245934,001,2023-07-31_20h55.50.188,arm3_eps,2022.2.5,Win32,60.12867537,5ece064a75736a193990951a,64c7fed44a04f777bb1e18ce,64c8011a20b4977c093942f8,right,-1,0.75,0.5,2,-0.002154872,0.5863,,,,,,36,0,36,0,1,,,,,
,,245934,001,2023-07-31_20h55.50.188,arm3_eps,2022.2.5,Win32,60.12867537,5ece064a75736a193990951a,64c7fed44a04f777bb1e18ce,64c8011a20b4977c093942f8,up,-1,0.75,0.5,1,0,0.59,,,,,,37,0,37,0,1,,,,,
,,245934,001,2023-07-31_20h55.50.188,arm3_eps,2022.2.5,Win32,60.12867537,5ece064a75736a193990951a,64c7fed44a04f777bb1e18ce,64c8011a20b4977c093942f8,right,-1,0.75,0.5,1,-0.022994017,0.9219,,,,,,38,0,38,0,1,,,,,
,,245934,001,2023-07-31_20h55.50.188,arm3_eps,2022.2.5,Win32,60.12867537,5ece064a75736a193990951a,64c7fed44a04f777bb1e18ce,64c8011a20b4977c093942f8,right,-1,0.75,0.5,1,-0.033051499,0.2596,,,,,,39,0,39,0,1,,,,,
,,245934,001,2023-07-31_20h55.50.188,arm3_eps,2022.2.5,Win32,60.12867537,5ece064a75736a193990951a,64c7fed44a04f777bb1e18ce,64c8011a20b4977c093942f8,up,-1,0.75,0.5,0,0,0.9937,,,,,,40,0,40,0,1,,,,,
,,245934,001,2023-07-31_20h55.50.188,arm3_eps,2022.2.5,Win32,60.12867537,5ece064a75736a193990951a,64c7fed44a04f777bb1e18ce,64c8011a20b4977c093942f8,right,-1,0.75,0.5,0,-0.036971127,0.9141,,,,,,41,0,41,0,1,,,,,
,,245934,001,2023-07-31_20h55.50.188,arm3_eps,2022.2.5,Win32,60.12867537,5ece064a75736a193990951a,64c7fed44a04f777bb1e18ce,64c8011a20b4977c093942f8,right,-1,0.75,0.5,0,-0.061106906,0.9471,,,,,,42,0,42,0,1,,,,,
,,245934,001,2023-07-31_20h55.50.188,arm3_eps,2022.2.5,Win32,60.12867537,5ece064a75736a193990951a,64c7fed44a04f777bb1e18ce,64c8011a20b4977c093942f8,down,-1,0.75,0.5,1,0,0.4659,,,,,,43,0,43,0,1,,,,,
,,245934,001,2023-07-31_20h55.50.188,arm3_eps,2022.2.5,Win32,60.12867537,5ece064a75736a193990951a,64c7fed44a04f777bb1e18ce,64c8011a20b4977c093942f8,right,-1,0.75,0.5,1,-0.009241149,0.8294,,,,,,44,0,44,0,1,,,,,
,,245934,001,2023-07-31_20h55.50.188,arm3_eps,2022.2.5,Win32,60.12867537,5ece064a75736a193990951a,64c7fed44a04f777bb1e18ce,64c8011a20b4977c093942f8,down,-1,0.75,0.5,2,0,1.1912,,,,,,45,0,45,0,1,,,,,
,,245934,001,2023-07-31_20h55.50.188,arm3_eps,2022.2.5,Win32,60.12867537,5ece064a75736a193990951a,64c7fed44a04f777bb1e18ce,64c8011a20b4977c093942f8,right,-1,0.75,0.5,2,-0.009520065,0.7794,,,,,,46,0,46,0,1,,,,,
,,245934,001,2023-07-31_20h55.50.188,arm3_eps,2022.2.5,Win32,60.12867537,5ece064a75736a193990951a,64c7fed44a04f777bb1e18ce,64c8011a20b4977c093942f8,down,-1,0.75,0.5,3,0,1.1512,,,,,,47,0,47,0,1,,,,,
,,245934,001,2023-07-31_20h55.50.188,arm3_eps,2022.2.5,Win32,60.12867537,5ece064a75736a193990951a,64c7fed44a04f777bb1e18ce,64c8011a20b4977c093942f8,right,-1,0.75,0.5,3,0.002674228,0.8207,,,,,,48,0,48,0,1,,,,,
,,245934,001,2023-07-31_20h55.50.188,arm3_eps,2022.2.5,Win32,60.12867537,5ece064a75736a193990951a,64c7fed44a04f777bb1e18ce,64c8011a20b4977c093942f8,up,-1,0.75,0.5,2,0,1.2594,,,,,,49,0,49,0,1,,,,,
,,245934,001,2023-07-31_20h55.50.188,arm3_eps,2022.2.5,Win32,60.12867537,5ece064a75736a193990951a,64c7fed44a04f777bb1e18ce,64c8011a20b4977c093942f8,right,-1,0.75,0.5,2,-0.008195323,0.5805,,,,,,50,0,50,0,1,,,,,
,,245934,001,2023-07-31_20h55.50.188,arm3_eps,2022.2.5,Win32,60.12867537,5ece064a75736a193990951a,64c7fed44a04f777bb1e18ce,64c8011a20b4977c093942f8,down,-1,0.75,0.5,3,0,0.6172,,,,,,51,0,51,0,1,,,,,
,,245934,001,2023-07-31_20h55.50.188,arm3_eps,2022.2.5,Win32,60.12867537,5ece064a75736a193990951a,64c7fed44a04f777bb1e18ce,64c8011a20b4977c093942f8,right,-1,0.75,0.5,3,-0.033975879,0.886,,,,,,52,0,52,0,1,,,,,
,,245934,001,2023-07-31_20h55.50.188,arm3_eps,2022.2.5,Win32,60.12867537,5ece064a75736a193990951a,64c7fed44a04f777bb1e18ce,64c8011a20b4977c093942f8,right,-1,0.75,0.5,3,-0.031881913,0.8472,,,,,,53,0,53,0,1,,,,,
,,245934,001,2023-07-31_20h55.50.188,arm3_eps,2022.2.5,Win32,60.12867537,5ece064a75736a193990951a,64c7fed44a04f777bb1e18ce,64c8011a20b4977c093942f8,down,1,0.75,0.5,4,0,0.7635,,,,,,54,0,54,0,1,,,,,
,,245934,001,2023-07-31_20h55.50.188,arm3_eps,2022.2.5,Win32,60.12867537,5ece064a75736a193990951a,64c7fed44a04f777bb1e18ce,64c8011a20b4977c093942f8,right,1,0.75,0.5,4,0.052570827,0.7632,,,,,,55,0,55,0,1,,,,,
,,245934,001,2023-07-31_20h55.50.188,arm3_eps,2022.2.5,Win32,60.12867537,5ece064a75736a193990951a,64c7fed44a04f777bb1e18ce,64c8011a20b4977c093942f8,up,-1,0.75,0.5,4,0,1.0686,,,,,,56,0,56,0,1,,,,,
,,245934,001,2023-07-31_20h55.50.188,arm3_eps,2022.2.5,Win32,60.12867537,5ece064a75736a193990951a,64c7fed44a04f777bb1e18ce,64c8011a20b4977c093942f8,right,-1,0.75,0.5,4,0.005352626,0.6473,,,,,,57,0,57,0,1,,,,,
,,245934,001,2023-07-31_20h55.50.188,arm3_eps,2022.2.5,Win32,60.12867537,5ece064a75736a193990951a,64c7fed44a04f777bb1e18ce,64c8011a20b4977c093942f8,right,-1,0.75,0.5,4,-0.011145141,0.8652,,,,,,58,0,58,0,1,,,,,
,,245934,001,2023-07-31_20h55.50.188,arm3_eps,2022.2.5,Win32,60.12867537,5ece064a75736a193990951a,64c7fed44a04f777bb1e18ce,64c8011a20b4977c093942f8,up,-1,0.75,0.5,3,0,0.4267,,,,,,59,0,59,0,1,,,,,
,,245934,001,2023-07-31_20h55.50.188,arm3_eps,2022.2.5,Win32,60.12867537,5ece064a75736a193990951a,64c7fed44a04f777bb1e18ce,64c8011a20b4977c093942f8,right,-1,0.75,0.5,3,-0.011327207,0.61,,,,,,60,0,60,0,1,,,,,
,,245934,001,2023-07-31_20h55.50.188,arm3_eps,2022.2.5,Win32,60.12867537,5ece064a75736a193990951a,64c7fed44a04f777bb1e18ce,64c8011a20b4977c093942f8,right,-1,0.75,0.5,3,-0.005096745,0.6479,,,,,,61,0,61,0,1,,,,,
,,245934,001,2023-07-31_20h55.50.188,arm3_eps,2022.2.5,Win32,60.12867537,5ece064a75736a193990951a,64c7fed44a04f777bb1e18ce,64c8011a20b4977c093942f8,down,1,0.75,0.5,4,0,0.3459,,,,,,62,0,62,0,1,,,,,
,,245934,001,2023-07-31_20h55.50.188,arm3_eps,2022.2.5,Win32,60.12867537,5ece064a75736a193990951a,64c7fed44a04f777bb1e18ce,64c8011a20b4977c093942f8,right,1,0.75,0.5,4,0.0012446,0.6302,,,,,,63,0,63,0,1,,,,,
,,245934,001,2023-07-31_20h55.50.188,arm3_eps,2022.2.5,Win32,60.12867537,5ece064a75736a193990951a,64c7fed44a04f777bb1e18ce,64c8011a20b4977c093942f8,up,-1,0.75,0.5,5,0,1.0658,,,,,,64,0,64,0,1,,,,,
,,245934,001,2023-07-31_20h55.50.188,arm3_eps,2022.2.5,Win32,60.12867537,5ece064a75736a193990951a,64c7fed44a04f777bb1e18ce,64c8011a20b4977c093942f8,right,-1,0.75,0.5,5,0.002884339,0.4864,,,,,,65,0,65,0,1,,,,,
,,245934,001,2023-07-31_20h55.50.188,arm3_eps,2022.2.5,Win32,60.12867537,5ece064a75736a193990951a,64c7fed44a04f777bb1e18ce,64c8011a20b4977c093942f8,down,-1,0.75,0.5,6,0,0.8447,,,,,,66,0,66,0,1,,,,,
,,245934,001,2023-07-31_20h55.50.188,arm3_eps,2022.2.5,Win32,60.12867537,5ece064a75736a193990951a,64c7fed44a04f777bb1e18ce,64c8011a20b4977c093942f8,right,-1,0.75,0.5,6,-0.021340906,0.4592,,,,,,67,0,67,0,1,,,,,
,,245934,001,2023-07-31_20h55.50.188,arm3_eps,2022.2.5,Win32,60.12867537,5ece064a75736a193990951a,64c7fed44a04f777bb1e18ce,64c8011a20b4977c093942f8,up,-1,0.75,0.5,6,0,0.8634,,,,,,68,0,68,0,1,,,,,
,,245934,001,2023-07-31_20h55.50.188,arm3_eps,2022.2.5,Win32,60.12867537,5ece064a75736a193990951a,64c7fed44a04f777bb1e18ce,64c8011a20b4977c093942f8,right,-1,0.75,0.5,6,0.000291857,0.6005,,,,,,69,0,69,0,1,,,,,
,,245934,001,2023-07-31_20h55.50.188,arm3_eps,2022.2.5,Win32,60.12867537,5ece064a75736a193990951a,64c7fed44a04f777bb1e18ce,64c8011a20b4977c093942f8,down,1,0.75,0.5,7,0,0.7154,,,,,,70,0,70,0,1,,,,,
,,245934,001,2023-07-31_20h55.50.188,arm3_eps,2022.2.5,Win32,60.12867537,5ece064a75736a193990951a,64c7fed44a04f777bb1e18ce,64c8011a20b4977c093942f8,right,1,0.75,0.5,7,0.01822116,0.497,,,,,,71,0,71,0,1,,,,,
,,245934,001,2023-07-31_20h55.50.188,arm3_eps,2022.2.5,Win32,60.12867537,5ece064a75736a193990951a,64c7fed44a04f777bb1e18ce,64c8011a20b4977c093942f8,up,1,0.75,0.5,7,0,0.5474,,,,,,72,0,72,0,1,,,,,
,,245934,001,2023-07-31_20h55.50.188,arm3_eps,2022.2.5,Win32,60.12867537,5ece064a75736a193990951a,64c7fed44a04f777bb1e18ce,64c8011a20b4977c093942f8,right,1,0.75,0.5,7,0.045597812,0.4741,,,,,,73,0,73,0,1,,,,,
,,245934,001,2023-07-31_20h55.50.188,arm3_eps,2022.2.5,Win32,60.12867537,5ece064a75736a193990951a,64c7fed44a04f777bb1e18ce,64c8011a20b4977c093942f8,down,-1,0.75,0.5,6,0,0.6854,,,,,,74,0,74,0,1,,,,,
,,245934,001,2023-07-31_20h55.50.188,arm3_eps,2022.2.5,Win32,60.12867537,5ece064a75736a193990951a,64c7fed44a04f777bb1e18ce,64c8011a20b4977c093942f8,right,-1,0.75,0.5,6,-0.013758713,0.8805,,,,,,75,0,75,0,1,,,,,
,,245934,001,2023-07-31_20h55.50.188,arm3_eps,2022.2.5,Win32,60.12867537,5ece064a75736a193990951a,64c7fed44a04f777bb1e18ce,64c8011a20b4977c093942f8,up,1,0.75,0.5,6,0,0.514,,,,,,76,0,76,0,1,,,,,
,,245934,001,2023-07-31_20h55.50.188,arm3_eps,2022.2.5,Win32,60.12867537,5ece064a75736a193990951a,64c7fed44a04f777bb1e18ce,64c8011a20b4977c093942f8,right,1,0.75,0.5,6,0.012406636,0.7955,,,,,,77,0,77,0,1,,,,,
,,245934,001,2023-07-31_20h55.50.188,arm3_eps,2022.2.5,Win32,60.12867537,5ece064a75736a193990951a,64c7fed44a04f777bb1e18ce,64c8011a20b4977c093942f8,up,-1,0.75,0.5,7,0,0.584,,,,,,78,0,78,0,1,,,,,
,,245934,001,2023-07-31_20h55.50.188,arm3_eps,2022.2.5,Win32,60.12867537,5ece064a75736a193990951a,64c7fed44a04f777bb1e18ce,64c8011a20b4977c093942f8,right,-1,0.75,0.5,7,-0.020645807,0.6665,,,,,,79,0,79,0,1,,,,,
,,245934,001,2023-07-31_20h55.50.188,arm3_eps,2022.2.5,Win32,60.12867537,5ece064a75736a193990951a,64c7fed44a04f777bb1e18ce,64c8011a20b4977c093942f8,up,1,0.75,0.5,6,0,0.854,,,,,,80,0,80,0,1,,,,,
,,245934,001,2023-07-31_20h55.50.188,arm3_eps,2022.2.5,Win32,60.12867537,5ece064a75736a193990951a,64c7fed44a04f777bb1e18ce,64c8011a20b4977c093942f8,right,1,0.75,0.5,6,-0.003163783,0.566,,,,,,81,0,81,0,1,,,,,
,,245934,001,2023-07-31_20h55.50.188,arm3_eps,2022.2.5,Win32,60.12867537,5ece064a75736a193990951a,64c7fed44a04f777bb1e18ce,64c8011a20b4977c093942f8,down,1,0.75,0.5,5,0,1.0608,,,,,,82,0,82,0,1,,,,,
,,245934,001,2023-07-31_20h55.50.188,arm3_eps,2022.2.5,Win32,60.12867537,5ece064a75736a193990951a,64c7fed44a04f777bb1e18ce,64c8011a20b4977c093942f8,right,1,0.75,0.5,5,0.018300102,0.552,,,,,,83,0,83,0,1,,,,,
,,245934,001,2023-07-31_20h55.50.188,arm3_eps,2022.2.5,Win32,60.12867537,5ece064a75736a193990951a,64c7fed44a04f777bb1e18ce,64c8011a20b4977c093942f8,up,1,0.75,0.5,6,0,0.7603,,,,,,84,0,84,0,1,,,,,
,,245934,001,2023-07-31_20h55.50.188,arm3_eps,2022.2.5,Win32,60.12867537,5ece064a75736a193990951a,64c7fed44a04f777bb1e18ce,64c8011a20b4977c093942f8,right,1,0.75,0.5,6,-0.012956843,0.6351,,,,,,85,0,85,0,1,,,,,
,,245934,001,2023-07-31_20h55.50.188,arm3_eps,2022.2.5,Win32,60.12867537,5ece064a75736a193990951a,64c7fed44a04f777bb1e18ce,64c8011a20b4977c093942f8,down,1,0.75,0.5,6,0,1.0083,,,,,,86,0,86,0,1,,,,,
,,245934,001,2023-07-31_20h55.50.188,arm3_eps,2022.2.5,Win32,60.12867537,5ece064a75736a193990951a,64c7fed44a04f777bb1e18ce,64c8011a20b4977c093942f8,right,1,0.75,0.5,6,0.028396491,0.6022,,,,,,87,0,87,0,1,,,,,
,,245934,001,2023-07-31_20h55.50.188,arm3_eps,2022.2.5,Win32,60.12867537,5ece064a75736a193990951a,64c7fed44a04f777bb1e18ce,64c8011a20b4977c093942f8,up,1,0.75,0.5,7,0,0.6671,,,,,,88,0,88,0,1,,,,,
,,245934,001,2023-07-31_20h55.50.188,arm3_eps,2022.2.5,Win32,60.12867537,5ece064a75736a193990951a,64c7fed44a04f777bb1e18ce,64c8011a20b4977c093942f8,right,1,0.75,0.5,7,0.016952869,0.5191,,,,,,89,0,89,0,1,,,,,
,,245934,001,2023-07-31_20h55.50.188,arm3_eps,2022.2.5,Win32,60.12867537,5ece064a75736a193990951a,64c7fed44a04f777bb1e18ce,64c8011a20b4977c093942f8,up,-1,0.75,0.5,8,0,0.7938,,,,,,90,0,90,0,1,,,,,
,,245934,001,2023-07-31_20h55.50.188,arm3_eps,2022.2.5,Win32,60.12867537,5ece064a75736a193990951a,64c7fed44a04f777bb1e18ce,64c8011a20b4977c093942f8,right,-1,0.75,0.5,8,-0.017551515,0.6768,,,,,,91,0,91,0,1,,,,,
,,245934,001,2023-07-31_20h55.50.188,arm3_eps,2022.2.5,Win32,60.12867537,5ece064a75736a193990951a,64c7fed44a04f777bb1e18ce,64c8011a20b4977c093942f8,up,1,0.75,0.5,7,0,0.8144,,,,,,92,0,92,0,1,,,,,
,,245934,001,2023-07-31_20h55.50.188,arm3_eps,2022.2.5,Win32,60.12867537,5ece064a75736a193990951a,64c7fed44a04f777bb1e18ce,64c8011a20b4977c093942f8,right,1,0.75,0.5,7,-0.006715824,0.5264,,,,,,93,0,93,0,1,,,,,
,,245934,001,2023-07-31_20h55.50.188,arm3_eps,2022.2.5,Win32,60.12867537,5ece064a75736a193990951a,64c7fed44a04f777bb1e18ce,64c8011a20b4977c093942f8,up,-1,0.75,0.5,7,0,0.6693,,,,,,94,0,94,0,1,,,,,
,,245934,001,2023-07-31_20h55.50.188,arm3_eps,2022.2.5,Win32,60.12867537,5ece064a75736a193990951a,64c7fed44a04f777bb1e18ce,64c8011a20b4977c093942f8,right,-1,0.75,0.5,7,0.011867678,0.5159,,,,,,95,0,95,0,1,,,,,
,,245934,001,2023-07-31_20h55.50.188,arm3_eps,2022.2.5,Win32,60.12867537,5ece064a75736a193990951a,64c7fed44a04f777bb1e18ce,64c8011a20b4977c093942f8,down,1,0.75,0.5,8,0,0.3819,,,,,,96,0,96,0,1,,,,,
,,245934,001,2023-07-31_20h55.50.188,arm3_eps,2022.2.5,Win32,60.12867537,5ece064a75736a193990951a,64c7fed44a04f777bb1e18ce,64c8011a20b4977c093942f8,right,1,0.75,0.5,8,0.01892851,0.4959,,,,,,97,0,97,0,1,,,,,
,,245934,001,2023-07-31_20h55.50.188,arm3_eps,2022.2.5,Win32,60.12867537,5ece064a75736a193990951a,64c7fed44a04f777bb1e18ce,64c8011a20b4977c093942f8,up,-1,0.75,0.5,9,0,0.7933,,,,,,98,0,98,0,1,,,,,
,,245934,001,2023-07-31_20h55.50.188,arm3_eps,2022.2.5,Win32,60.12867537,5ece064a75736a193990951a,64c7fed44a04f777bb1e18ce,64c8011a20b4977c093942f8,right,-1,0.75,0.5,9,-0.004284354,0.4285,,,,,,99,0,99,0,1,,,,,
,,245934,001,2023-07-31_20h55.50.188,arm3_eps,2022.2.5,Win32,60.12867537,5ece064a75736a193990951a,64c7fed44a04f777bb1e18ce,64c8011a20b4977c093942f8,down,1,0.75,0.5,10,0,0.884,,,,,,100,0,100,0,1,,,,,
,,245934,001,2023-07-31_20h55.50.188,arm3_eps,2022.2.5,Win32,60.12867537,5ece064a75736a193990951a,64c7fed44a04f777bb1e18ce,64c8011a20b4977c093942f8,right,1,0.75,0.5,10,-0.016775628,0.4054,,,,,,101,0,101,0,1,,,,,
,,245934,001,2023-07-31_20h55.50.188,arm3_eps,2022.2.5,Win32,60.12867537,5ece064a75736a193990951a,64c7fed44a04f777bb1e18ce,64c8011a20b4977c093942f8,down,-1,0.75,0.5,10,0,1.6689,,,,,,102,0,102,0,1,,,,,
,,245934,001,2023-07-31_20h55.50.188,arm3_eps,2022.2.5,Win32,60.12867537,5ece064a75736a193990951a,64c7fed44a04f777bb1e18ce,64c8011a20b4977c093942f8,right,-1,0.75,0.5,10,0.019654908,0.7467,,,,,,103,0,103,0,1,,,,,
,,245934,001,2023-07-31_20h55.50.188,arm3_eps,2022.2.5,Win32,60.12867537,5ece064a75736a193990951a,64c7fed44a04f777bb1e18ce,64c8011a20b4977c093942f8,down,1,0.75,0.5,11,0,0.6656,,,,,,104,0,104,0,1,,,,,
,,245934,001,2023-07-31_20h55.50.188,arm3_eps,2022.2.5,Win32,60.12867537,5ece064a75736a193990951a,64c7fed44a04f777bb1e18ce,64c8011a20b4977c093942f8,right,1,0.75,0.5,11,0.004853419,0.7414,,,,,,105,0,105,0,1,,,,,
,,245934,001,2023-07-31_20h55.50.188,arm3_eps,2022.2.5,Win32,60.12867537,5ece064a75736a193990951a,64c7fed44a04f777bb1e18ce,64c8011a20b4977c093942f8,right,1,0.75,0.5,11,0.00538214,1.2403,,,,,,106,0,106,0,1,,,,,
,,245934,001,2023-07-31_20h55.50.188,arm3_eps,2022.2.5,Win32,60.12867537,5ece064a75736a193990951a,64c7fed44a04f777bb1e18ce,64c8011a20b4977c093942f8,up,-1,0.75,0.5,12,0,0.7576,,,,,,107,0,107,0,1,,,,,
,,245934,001,2023-07-31_20h55.50.188,arm3_eps,2022.2.5,Win32,60.12867537,5ece064a75736a193990951a,64c7fed44a04f777bb1e18ce,64c8011a20b4977c093942f8,right,-1,0.75,0.5,12,0.005490092,0.5307,,,,,,108,0,108,0,1,,,,,
,,245934,001,2023-07-31_20h55.50.188,arm3_eps,2022.2.5,Win32,60.12867537,5ece064a75736a193990951a,64c7fed44a04f777bb1e18ce,64c8011a20b4977c093942f8,right,-1,0.75,0.5,12,-0.021920199,0.6294,,,,,,109,0,109,0,1,,,,,
,,245934,001,2023-07-31_20h55.50.188,arm3_eps,2022.2.5,Win32,60.12867537,5ece064a75736a193990951a,64c7fed44a04f777bb1e18ce,64c8011a20b4977c093942f8,down,-1,0.75,0.5,12,0,0.9959,,,,,,110,0,110,0,1,,,,,
,,245934,001,2023-07-31_20h55.50.188,arm3_eps,2022.2.5,Win32,60.12867537,5ece064a75736a193990951a,64c7fed44a04f777bb1e18ce,64c8011a20b4977c093942f8,right,-1,0.75,0.5,12,-0.027297728,0.5014,,,,,,111,0,111,0,1,,,,,
,,245934,001,2023-07-31_20h55.50.188,arm3_eps,2022.2.5,Win32,60.12867537,5ece064a75736a193990951a,64c7fed44a04f777bb1e18ce,64c8011a20b4977c093942f8,right,-1,0.75,0.5,12,-0.032441598,0.6297,,,,,,112,0,112,0,1,,,,,
,,245934,001,2023-07-31_20h55.50.188,arm3_eps,2022.2.5,Win32,60.12867537,5ece064a75736a193990951a,64c7fed44a04f777bb1e18ce,64c8011a20b4977c093942f8,down,1,0.75,0.5,13,0,0.7602,,,,,,113,0,113,0,1,,,,,
,,245934,001,2023-07-31_20h55.50.188,arm3_eps,2022.2.5,Win32,60.12867537,5ece064a75736a193990951a,64c7fed44a04f777bb1e18ce,64c8011a20b4977c093942f8,right,1,0.75,0.5,13,0.004999835,0.4326,,,,,,114,0,114,0,1,,,,,
,,245934,001,2023-07-31_20h55.50.188,arm3_eps,2022.2.5,Win32,60.12867537,5ece064a75736a193990951a,64c7fed44a04f777bb1e18ce,64c8011a20b4977c093942f8,right,1,0.75,0.5,13,-0.015588488,0.7775,,,,,,115,0,115,0,1,,,,,
,,245934,001,2023-07-31_20h55.50.188,arm3_eps,2022.2.5,Win32,60.12867537,5ece064a75736a193990951a,64c7fed44a04f777bb1e18ce,64c8011a20b4977c093942f8,down,1,0.75,0.5,12,0,1.1873,,,,,,116,0,116,0,1,,,,,
,,245934,001,2023-07-31_20h55.50.188,arm3_eps,2022.2.5,Win32,60.12867537,5ece064a75736a193990951a,64c7fed44a04f777bb1e18ce,64c8011a20b4977c093942f8,right,1,0.75,0.5,12,0.004919927,0.8377,,,,,,117,0,117,0,1,,,,,
,,245934,001,2023-07-31_20h55.50.188,arm3_eps,2022.2.5,Win32,60.12867537,5ece064a75736a193990951a,64c7fed44a04f777bb1e18ce,64c8011a20b4977c093942f8,up,-1,0.75,0.5,12,0,0.3768,,,,,,118,0,118,0,1,,,,,
,,245934,001,2023-07-31_20h55.50.188,arm3_eps,2022.2.5,Win32,60.12867537,5ece064a75736a193990951a,64c7fed44a04f777bb1e18ce,64c8011a20b4977c093942f8,right,-1,0.75,0.5,12,0.010718829,0.5223,,,,,,119,0,119,0,1,,,,,
,,245934,001,2023-07-31_20h55.50.188,arm3_eps,2022.2.5,Win32,60.12867537,5ece064a75736a193990951a,64c7fed44a04f777bb1e18ce,64c8011a20b4977c093942f8,right,-1,0.75,0.5,12,-0.003387939,0.7081,,,,,,120,0,120,0,1,,,,,
,,245934,001,2023-07-31_20h55.50.188,arm3_eps,2022.2.5,Win32,60.12867537,5ece064a75736a193990951a,64c7fed44a04f777bb1e18ce,64c8011a20b4977c093942f8,up,-1,0.75,0.5,11,0,0.7322,,,,,,121,0,121,0,1,,,,,
,,245934,001,2023-07-31_20h55.50.188,arm3_eps,2022.2.5,Win32,60.12867537,5ece064a75736a193990951a,64c7fed44a04f777bb1e18ce,64c8011a20b4977c093942f8,right,-1,0.75,0.5,11,-0.021468342,0.4768,,,,,,122,0,122,0,1,,,,,
,,245934,001,2023-07-31_20h55.50.188,arm3_eps,2022.2.5,Win32,60.12867537,5ece064a75736a193990951a,64c7fed44a04f777bb1e18ce,64c8011a20b4977c093942f8,right,-1,0.75,0.5,11,-0.025547062,0.5465,,,,,,123,0,123,0,1,,,,,
,,245934,001,2023-07-31_20h55.50.188,arm3_eps,2022.2.5,Win32,60.12867537,5ece064a75736a193990951a,64c7fed44a04f777bb1e18ce,64c8011a20b4977c093942f8,up,-1,0.75,0.5,10,0,0.9301,,,,,,124,0,124,0,1,,,,,
,,245934,001,2023-07-31_20h55.50.188,arm3_eps,2022.2.5,Win32,60.12867537,5ece064a75736a193990951a,64c7fed44a04f777bb1e18ce,64c8011a20b4977c093942f8,right,-1,0.75,0.5,10,0.019051323,0.4865,,,,,,125,0,125,0,1,,,,,
,,245934,001,2023-07-31_20h55.50.188,arm3_eps,2022.2.5,Win32,60.12867537,5ece064a75736a193990951a,64c7fed44a04f777bb1e18ce,64c8011a20b4977c093942f8,right,-1,0.75,0.5,10,-0.018347204,0.4053,,,,,,126,0,126,0,1,,,,,
,,245934,001,2023-07-31_20h55.50.188,arm3_eps,2022.2.5,Win32,60.12867537,5ece064a75736a193990951a,64c7fed44a04f777bb1e18ce,64c8011a20b4977c093942f8,down,-1,0.75,0.5,10,0,0.8705,,,,,,127,0,127,0,1,,,,,
,,245934,001,2023-07-31_20h55.50.188,arm3_eps,2022.2.5,Win32,60.12867537,5ece064a75736a193990951a,64c7fed44a04f777bb1e18ce,64c8011a20b4977c093942f8,right,-1,0.75,0.5,10,0.00102438,0.5291,,,,,,128,0,128,0,1,,,,,
,,245934,001,2023-07-31_20h55.50.188,arm3_eps,2022.2.5,Win32,60.12867537,5ece064a75736a193990951a,64c7fed44a04f777bb1e18ce,64c8011a20b4977c093942f8,right,-1,0.75,0.5,10,-0.000198236,0.4459,,,,,,129,0,129,0,1,,,,,
,,245934,001,2023-07-31_20h55.50.188,arm3_eps,2022.2.5,Win32,60.12867537,5ece064a75736a193990951a,64c7fed44a04f777bb1e18ce,64c8011a20b4977c093942f8,down,1,0.75,0.5,11,0,0.7591,,,,,,130,0,130,0,1,,,,,
,,245934,001,2023-07-31_20h55.50.188,arm3_eps,2022.2.5,Win32,60.12867537,5ece064a75736a193990951a,64c7fed44a04f777bb1e18ce,64c8011a20b4977c093942f8,right,1,0.75,0.5,11,0.023057096,0.4297,,,,,,131,0,131,0,1,,,,,
,,245934,001,2023-07-31_20h55.50.188,arm3_eps,2022.2.5,Win32,60.12867537,5ece064a75736a193990951a,64c7fed44a04f777bb1e18ce,64c8011a20b4977c093942f8,right,1,0.75,0.5,11,0.009984504,1.5225,,,,,,132,0,132,0,1,,,,,
,,245934,001,2023-07-31_20h55.50.188,arm3_eps,2022.2.5,Win32,60.12867537,5ece064a75736a193990951a,64c7fed44a04f777bb1e18ce,64c8011a20b4977c093942f8,up,1,0.75,0.5,12,0,0.5731,,,,,,133,0,133,0,1,,,,,
,,245934,001,2023-07-31_20h55.50.188,arm3_eps,2022.2.5,Win32,60.12867537,5ece064a75736a193990951a,64c7fed44a04f777bb1e18ce,64c8011a20b4977c093942f8,right,1,0.75,0.5,12,0.02716075,0.4955,,,,,,134,0,134,0,1,,,,,
,,245934,001,2023-07-31_20h55.50.188,arm3_eps,2022.2.5,Win32,60.12867537,5ece064a75736a193990951a,64c7fed44a04f777bb1e18ce,64c8011a20b4977c093942f8,right,1,0.75,0.5,12,0.047180175,0.5406,,,,,,135,0,135,0,1,,,,,
,,245934,001,2023-07-31_20h55.50.188,arm3_eps,2022.2.5,Win32,60.12867537,5ece064a75736a193990951a,64c7fed44a04f777bb1e18ce,64c8011a20b4977c093942f8,up,1,0.75,0.5,13,0,1.0002,,,,,,136,0,136,0,1,,,,,
,,245934,001,2023-07-31_20h55.50.188,arm3_eps,2022.2.5,Win32,60.12867537,5ece064a75736a193990951a,64c7fed44a04f777bb1e18ce,64c8011a20b4977c093942f8,right,1,0.75,0.5,13,0.034957965,0.4558,,,,,,137,0,137,0,1,,,,,
,,245934,001,2023-07-31_20h55.50.188,arm3_eps,2022.2.5,Win32,60.12867537,5ece064a75736a193990951a,64c7fed44a04f777bb1e18ce,64c8011a20b4977c093942f8,right,1,0.75,0.5,13,0.029108925,0.4478,,,,,,138,0,138,0,1,,,,,
,,245934,001,2023-07-31_20h55.50.188,arm3_eps,2022.2.5,Win32,60.12867537,5ece064a75736a193990951a,64c7fed44a04f777bb1e18ce,64c8011a20b4977c093942f8,up,-1,0.75,0.5,14,0,0.8325,,,,,,139,0,139,0,1,,,,,
,,245934,001,2023-07-31_20h55.50.188,arm3_eps,2022.2.5,Win32,60.12867537,5ece064a75736a193990951a,64c7fed44a04f777bb1e18ce,64c8011a20b4977c093942f8,right,-1,0.75,0.5,14,-0.029394472,0.4159,,,,,,140,0,140,0,1,,,,,
,,245934,001,2023-07-31_20h55.50.188,arm3_eps,2022.2.5,Win32,60.12867537,5ece064a75736a193990951a,64c7fed44a04f777bb1e18ce,64c8011a20b4977c093942f8,right,-1,0.75,0.5,14,-0.017265005,0.4887,,,,,,141,0,141,0,1,,,,,
,,245934,001,2023-07-31_20h55.50.188,arm3_eps,2022.2.5,Win32,60.12867537,5ece064a75736a193990951a,64c7fed44a04f777bb1e18ce,64c8011a20b4977c093942f8,down,-1,0.75,0.5,15,0,0.8313,,,,,,142,0,142,0,1,,,,,
,,245934,001,2023-07-31_20h55.50.188,arm3_eps,2022.2.5,Win32,60.12867537,5ece064a75736a193990951a,64c7fed44a04f777bb1e18ce,64c8011a20b4977c093942f8,right,-1,0.75,0.5,15,0.009494416,0.4339,,,,,,143,0,143,0,1,,,,,
,,245934,001,2023-07-31_20h55.50.188,arm3_eps,2022.2.5,Win32,60.12867537,5ece064a75736a193990951a,64c7fed44a04f777bb1e18ce,64c8011a20b4977c093942f8,up,1,0.75,0.5,15,0,0.5891,,,,,,144,0,144,0,1,,,,,
,,245934,001,2023-07-31_20h55.50.188,arm3_eps,2022.2.5,Win32,60.12867537,5ece064a75736a193990951a,64c7fed44a04f777bb1e18ce,64c8011a20b4977c093942f8,up,1,0.75,0.5,15,0,0.2211,,,,,,145,0,145,0,1,,,,,
,,245934,001,2023-07-31_20h55.50.188,arm3_eps,2022.2.5,Win32,60.12867537,5ece064a75736a193990951a,64c7fed44a04f777bb1e18ce,64c8011a20b4977c093942f8,right,1,0.75,0.5,15,0.006866225,0.8425,,,,,,146,0,146,0,1,,,,,
,,245934,001,2023-07-31_20h55.50.188,arm3_eps,2022.2.5,Win32,60.12867537,5ece064a75736a193990951a,64c7fed44a04f777bb1e18ce,64c8011a20b4977c093942f8,right,1,0.75,0.5,15,0.028654249,0.2616,,,,,,147,0,147,0,1,,,,,
,,245934,001,2023-07-31_20h55.50.188,arm3_eps,2022.2.5,Win32,60.12867537,5ece064a75736a193990951a,64c7fed44a04f777bb1e18ce,64c8011a20b4977c093942f8,up,1,0.75,0.5,16,0,0.4602,,,,,,148,0,148,0,1,,,,,
,,245934,001,2023-07-31_20h55.50.188,arm3_eps,2022.2.5,Win32,60.12867537,5ece064a75736a193990951a,64c7fed44a04f777bb1e18ce,64c8011a20b4977c093942f8,right,1,0.75,0.5,16,0.019768332,0.4656,,,,,,149,0,149,0,1,,,,,
,,245934,001,2023-07-31_20h55.50.188,arm3_eps,2022.2.5,Win32,60.12867537,5ece064a75736a193990951a,64c7fed44a04f777bb1e18ce,64c8011a20b4977c093942f8,right,1,0.75,0.5,16,0.032244923,0.3734,,,,,,150,0,150,0,1,,,,,
,,245934,001,2023-07-31_20h55.50.188,arm3_eps,2022.2.5,Win32,60.12867537,5ece064a75736a193990951a,64c7fed44a04f777bb1e18ce,64c8011a20b4977c093942f8,up,-1,0.75,0.5,17,0,1.3464,,,,,,151,0,151,0,1,,,,,
,,245934,001,2023-07-31_20h55.50.188,arm3_eps,2022.2.5,Win32,60.12867537,5ece064a75736a193990951a,64c7fed44a04f777bb1e18ce,64c8011a20b4977c093942f8,right,-1,0.75,0.5,17,-0.002542696,0.4574,,,,,,152,0,152,0,1,,,,,
,,245934,001,2023-07-31_20h55.50.188,arm3_eps,2022.2.5,Win32,60.12867537,5ece064a75736a193990951a,64c7fed44a04f777bb1e18ce,64c8011a20b4977c093942f8,right,-1,0.75,0.5,17,0.009524674,0.4799,,,,,,153,0,153,0,1,,,,,
,,245934,001,2023-07-31_20h55.50.188,arm3_eps,2022.2.5,Win32,60.12867537,5ece064a75736a193990951a,64c7fed44a04f777bb1e18ce,64c8011a20b4977c093942f8,down,1,0.75,0.5,18,0,0.8837,,,,,,154,0,154,0,1,,,,,
,,245934,001,2023-07-31_20h55.50.188,arm3_eps,2022.2.5,Win32,60.12867537,5ece064a75736a193990951a,64c7fed44a04f777bb1e18ce,64c8011a20b4977c093942f8,right,1,0.75,0.5,18,-0.014476788,0.4138,,,,,,155,0,155,0,1,,,,,
,,245934,001,2023-07-31_20h55.50.188,arm3_eps,2022.2.5,Win32,60.12867537,5ece064a75736a193990951a,64c7fed44a04f777bb1e18ce,64c8011a20b4977c093942f8,right,1,0.75,0.5,18,0.009482197,0.3832,,,,,,156,0,156,0,1,,,,,
,,245934,001,2023-07-31_20h55.50.188,arm3_eps,2022.2.5,Win32,60.12867537,5ece064a75736a193990951a,64c7fed44a04f777bb1e18ce,64c8011a20b4977c093942f8,up,1,0.75,0.5,18,0,0.7795,,,,,,157,0,157,0,1,,,,,
,,245934,001,2023-07-31_20h55.50.188,arm3_eps,2022.2.5,Win32,60.12867537,5ece064a75736a193990951a,64c7fed44a04f777bb1e18ce,64c8011a20b4977c093942f8,right,1,0.75,0.5,18,-0.005882929,0.5325,,,,,,158,0,158,0,1,,,,,
,,245934,001,2023-07-31_20h55.50.188,arm3_eps,2022.2.5,Win32,60.12867537,5ece064a75736a193990951a,64c7fed44a04f777bb1e18ce,64c8011a20b4977c093942f8,right,1,0.75,0.5,18,0.013243769,0.3232,,,,,,159,0,159,0,1,,,,,
,,245934,001,2023-07-31_20h55.50.188,arm3_eps,2022.2.5,Win32,60.12867537,5ece064a75736a193990951a,64c7fed44a04f777bb1e18ce,64c8011a20b4977c093942f8,down,1,0.75,0.5,18,0,0.8205,,,,,,160,0,160,0,1,,,,,
,,245934,001,2023-07-31_20h55.50.188,arm3_eps,2022.2.5,Win32,60.12867537,5ece064a75736a193990951a,64c7fed44a04f777bb1e18ce,64c8011a20b4977c093942f8,right,1,0.75,0.5,18,0.007466448,0.4532,,,,,,161,0,161,0,1,,,,,
,,245934,001,2023-07-31_20h55.50.188,arm3_eps,2022.2.5,Win32,60.12867537,5ece064a75736a193990951a,64c7fed44a04f777bb1e18ce,64c8011a20b4977c093942f8,right,1,0.75,0.5,18,0.034962714,0.468,,,,,,162,0,162,0,1,,,,,
,,245934,001,2023-07-31_20h55.50.188,arm3_eps,2022.2.5,Win32,60.12867537,5ece064a75736a193990951a,64c7fed44a04f777bb1e18ce,64c8011a20b4977c093942f8,up,-1,0.75,0.5,19,0,0.5158,,,,,,163,0,163,0,1,,,,,
,,245934,001,2023-07-31_20h55.50.188,arm3_eps,2022.2.5,Win32,60.12867537,5ece064a75736a193990951a,64c7fed44a04f777bb1e18ce,64c8011a20b4977c093942f8,right,-1,0.75,0.5,19,0.001355769,0.4012,,,,,,164,0,164,0,1,,,,,
,,245934,001,2023-07-31_20h55.50.188,arm3_eps,2022.2.5,Win32,60.12867537,5ece064a75736a193990951a,64c7fed44a04f777bb1e18ce,64c8011a20b4977c093942f8,right,-1,0.75,0.5,19,0.017946642,0.3459,,,,,,165,0,165,0,1,,,,,
,,245934,001,2023-07-31_20h55.50.188,arm3_eps,2022.2.5,Win32,60.12867537,5ece064a75736a193990951a,64c7fed44a04f777bb1e18ce,64c8011a20b4977c093942f8,down,1,0.75,0.5,20,0,0.4643,,,,,,166,0,166,0,1,,,,,
,,245934,001,2023-07-31_20h55.50.188,arm3_eps,2022.2.5,Win32,60.12867537,5ece064a75736a193990951a,64c7fed44a04f777bb1e18ce,64c8011a20b4977c093942f8,right,1,0.75,0.5,20,0.036191141,0.5174,,,,,,167,0,167,0,1,,,,,
,,245934,001,2023-07-31_20h55.50.188,arm3_eps,2022.2.5,Win32,60.12867537,5ece064a75736a193990951a,64c7fed44a04f777bb1e18ce,64c8011a20b4977c093942f8,right,1,0.75,0.5,20,0.032028798,0.3386,,,,,,168,0,168,0,1,,,,,
,,245934,001,2023-07-31_20h55.50.188,arm3_eps,2022.2.5,Win32,60.12867537,5ece064a75736a193990951a,64c7fed44a04f777bb1e18ce,64c8011a20b4977c093942f8,up,-1,0.75,0.5,21,0,0.7894,,,,,,169,0,169,0,1,,,,,
,,245934,001,2023-07-31_20h55.50.188,arm3_eps,2022.2.5,Win32,60.12867537,5ece064a75736a193990951a,64c7fed44a04f777bb1e18ce,64c8011a20b4977c093942f8,right,-1,0.75,0.5,21,-0.020410881,0.4723,,,,,,170,0,170,0,1,,,,,
,,245934,001,2023-07-31_20h55.50.188,arm3_eps,2022.2.5,Win32,60.12867537,5ece064a75736a193990951a,64c7fed44a04f777bb1e18ce,64c8011a20b4977c093942f8,right,-1,0.75,0.5,21,-0.029245563,0.2816,,,,,,171,0,171,0,1,,,,,
,,245934,001,2023-07-31_20h55.50.188,arm3_eps,2022.2.5,Win32,60.12867537,5ece064a75736a193990951a,64c7fed44a04f777bb1e18ce,64c8011a20b4977c093942f8,down,1,0.75,0.5,22,0,0.5693,,,,,,172,0,172,0,1,,,,,
,,245934,001,2023-07-31_20h55.50.188,arm3_eps,2022.2.5,Win32,60.12867537,5ece064a75736a193990951a,64c7fed44a04f777bb1e18ce,64c8011a20b4977c093942f8,right,1,0.75,0.5,22,-0.010914782,0.4436,,,,,,173,0,173,0,1,,,,,
,,245934,001,2023-07-31_20h55.50.188,arm3_eps,2022.2.5,Win32,60.12867537,5ece064a75736a193990951a,64c7fed44a04f777bb1e18ce,64c8011a20b4977c093942f8,right,1,0.75,0.5,22,-0.009629491,0.3365,,,,,,174,0,174,0,1,,,,,
,,245934,001,2023-07-31_20h55.50.188,arm3_eps,2022.2.5,Win32,60.12867537,5ece064a75736a193990951a,64c7fed44a04f777bb1e18ce,64c8011a20b4977c093942f8,up,-1,0.75,0.5,22,0,0.5491,,,,,,175,0,175,0,1,,,,,
,,245934,001,2023-07-31_20h55.50.188,arm3_eps,2022.2.5,Win32,60.12867537,5ece064a75736a193990951a,64c7fed44a04f777bb1e18ce,64c8011a20b4977c093942f8,right,-1,0.75,0.5,22,-0.005310027,0.592,,,,,,176,0,176,0,1,,,,,
,,245934,001,2023-07-31_20h55.50.188,arm3_eps,2022.2.5,Win32,60.12867537,5ece064a75736a193990951a,64c7fed44a04f777bb1e18ce,64c8011a20b4977c093942f8,right,-1,0.75,0.5,22,-0.003614496,0.4022,,,,,,177,0,177,0,1,,,,,
,,245934,001,2023-07-31_20h55.50.188,arm3_eps,2022.2.5,Win32,60.12867537,5ece064a75736a193990951a,64c7fed44a04f777bb1e18ce,64c8011a20b4977c093942f8,up,-1,0.75,0.5,21,0,0.7539,,,,,,178,0,178,0,1,,,,,
,,245934,001,2023-07-31_20h55.50.188,arm3_eps,2022.2.5,Win32,60.12867537,5ece064a75736a193990951a,64c7fed44a04f777bb1e18ce,64c8011a20b4977c093942f8,right,-1,0.75,0.5,21,-0.014910025,0.478,,,,,,179,0,179,0,1,,,,,
,,245934,001,2023-07-31_20h55.50.188,arm3_eps,2022.2.5,Win32,60.12867537,5ece064a75736a193990951a,64c7fed44a04f777bb1e18ce,64c8011a20b4977c093942f8,right,-1,0.75,0.5,21,-0.01834788,0.4833,,,,,,180,0,180,0,1,,,,,
,,245934,001,2023-07-31_20h55.50.188,arm3_eps,2022.2.5,Win32,60.12867537,5ece064a75736a193990951a,64c7fed44a04f777bb1e18ce,64c8011a20b4977c093942f8,down,1,0.75,0.5,21,0,0.5819,,,,,,181,0,181,0,1,,,,,
,,245934,001,2023-07-31_20h55.50.188,arm3_eps,2022.2.5,Win32,60.12867537,5ece064a75736a193990951a,64c7fed44a04f777bb1e18ce,64c8011a20b4977c093942f8,right,1,0.75,0.5,21,0.016055989,0.572,,,,,,182,0,182,0,1,,,,,
,,245934,001,2023-07-31_20h55.50.188,arm3_eps,2022.2.5,Win32,60.12867537,5ece064a75736a193990951a,64c7fed44a04f777bb1e18ce,64c8011a20b4977c093942f8,right,1,0.75,0.5,21,0.043345611,0.3993,,,,,,183,0,183,0,1,,,,,
,,245934,001,2023-07-31_20h55.50.188,arm3_eps,2022.2.5,Win32,60.12867537,5ece064a75736a193990951a,64c7fed44a04f777bb1e18ce,64c8011a20b4977c093942f8,up,1,0.75,0.5,21,0,0.6822,,,,,,184,0,184,0,1,,,,,
,,245934,001,2023-07-31_20h55.50.188,arm3_eps,2022.2.5,Win32,60.12867537,5ece064a75736a193990951a,64c7fed44a04f777bb1e18ce,64c8011a20b4977c093942f8,right,1,0.75,0.5,21,-0.018605303,0.4544,,,,,,185,0,185,0,1,,,,,
,,245934,001,2023-07-31_20h55.50.188,arm3_eps,2022.2.5,Win32,60.12867537,5ece064a75736a193990951a,64c7fed44a04f777bb1e18ce,64c8011a20b4977c093942f8,right,1,0.75,0.5,21,0.000444718,0.3857,,,,,,186,0,186,0,1,,,,,
,,245934,001,2023-07-31_20h55.50.188,arm3_eps,2022.2.5,Win32,60.12867537,5ece064a75736a193990951a,64c7fed44a04f777bb1e18ce,64c8011a20b4977c093942f8,up,-1,0.75,0.5,22,0,0.7068,,,,,,187,0,187,0,1,,,,,
,,245934,001,2023-07-31_20h55.50.188,arm3_eps,2022.2.5,Win32,60.12867537,5ece064a75736a193990951a,64c7fed44a04f777bb1e18ce,64c8011a20b4977c093942f8,right,-1,0.75,0.5,22,0.016863218,0.6526,,,,,,188,0,188,0,1,,,,,
,,245934,001,2023-07-31_20h55.50.188,arm3_eps,2022.2.5,Win32,60.12867537,5ece064a75736a193990951a,64c7fed44a04f777bb1e18ce,64c8011a20b4977c093942f8,right,-1,0.75,0.5,22,0.005294994,0.3656,,,,,,189,0,189,0,1,,,,,
,,245934,001,2023-07-31_20h55.50.188,arm3_eps,2022.2.5,Win32,60.12867537,5ece064a75736a193990951a,64c7fed44a04f777bb1e18ce,64c8011a20b4977c093942f8,down,-1,0.75,0.5,23,0,0.6077,,,,,,190,0,190,0,1,,,,,
,,245934,001,2023-07-31_20h55.50.188,arm3_eps,2022.2.5,Win32,60.12867537,5ece064a75736a193990951a,64c7fed44a04f777bb1e18ce,64c8011a20b4977c093942f8,right,-1,0.75,0.5,23,-0.010470115,0.5223,,,,,,191,0,191,0,1,,,,,
,,245934,001,2023-07-31_20h55.50.188,arm3_eps,2022.2.5,Win32,60.12867537,5ece064a75736a193990951a,64c7fed44a04f777bb1e18ce,64c8011a20b4977c093942f8,right,-1,0.75,0.5,23,0.006663497,0.2808,,,,,,192,0,192,0,1,,,,,
,,245934,001,2023-07-31_20h55.50.188,arm3_eps,2022.2.5,Win32,60.12867537,5ece064a75736a193990951a,64c7fed44a04f777bb1e18ce,64c8011a20b4977c093942f8,up,-1,0.75,0.5,22,0,0.6318,,,,,,193,0,193,0,1,,,,,
,,245934,001,2023-07-31_20h55.50.188,arm3_eps,2022.2.5,Win32,60.12867537,5ece064a75736a193990951a,64c7fed44a04f777bb1e18ce,64c8011a20b4977c093942f8,right,-1,0.75,0.5,22,-0.006223614,0.5817,,,,,,194,0,194,0,1,,,,,
,,245934,001,2023-07-31_20h55.50.188,arm3_eps,2022.2.5,Win32,60.12867537,5ece064a75736a193990951a,64c7fed44a04f777bb1e18ce,64c8011a20b4977c093942f8,right,-1,0.75,0.5,22,-0.006512412,0.3167,,,,,,195,0,195,0,1,,,,,
,,245934,001,2023-07-31_20h55.50.188,arm3_eps,2022.2.5,Win32,60.12867537,5ece064a75736a193990951a,64c7fed44a04f777bb1e18ce,64c8011a20b4977c093942f8,down,1,0.75,0.5,22,0,0.6495,,,,,,196,0,196,0,1,,,,,
,,245934,001,2023-07-31_20h55.50.188,arm3_eps,2022.2.5,Win32,60.12867537,5ece064a75736a193990951a,64c7fed44a04f777bb1e18ce,64c8011a20b4977c093942f8,right,1,0.75,0.5,22,0.007927459,0.5634,,,,,,197,0,197,0,1,,,,,
,,245934,001,2023-07-31_20h55.50.188,arm3_eps,2022.2.5,Win32,60.12867537,5ece064a75736a193990951a,64c7fed44a04f777bb1e18ce,64c8011a20b4977c093942f8,right,1,0.75,0.5,22,0.020431987,0.3855,,,,,,198,0,198,0,1,,,,,
,,245934,001,2023-07-31_20h55.50.188,arm3_eps,2022.2.5,Win32,60.12867537,5ece064a75736a193990951a,64c7fed44a04f777bb1e18ce,64c8011a20b4977c093942f8,up,-1,0.75,0.5,23,0,0.4518,,,,,,199,0,199,0,1,,,,,
,,245934,001,2023-07-31_20h55.50.188,arm3_eps,2022.2.5,Win32,60.12867537,5ece064a75736a193990951a,64c7fed44a04f777bb1e18ce,64c8011a20b4977c093942f8,right,-1,0.75,0.5,23,-0.030125818,0.4861,,,,,,200,0,200,0,1,,,,,
,,245934,001,2023-07-31_20h55.50.188,arm3_eps,2022.2.5,Win32,60.12867537,5ece064a75736a193990951a,64c7fed44a04f777bb1e18ce,64c8011a20b4977c093942f8,right,-1,0.75,0.5,23,-0.063466014,0.3031,,,,,,201,0,201,0,1,,,,,
,,245934,001,2023-07-31_20h55.50.188,arm3_eps,2022.2.5,Win32,60.12867537,5ece064a75736a193990951a,64c7fed44a04f777bb1e18ce,64c8011a20b4977c093942f8,up,-1,0.75,0.5,22,0,0.6468,,,,,,202,0,202,0,1,,,,,
,,245934,001,2023-07-31_20h55.50.188,arm3_eps,2022.2.5,Win32,60.12867537,5ece064a75736a193990951a,64c7fed44a04f777bb1e18ce,64c8011a20b4977c093942f8,right,-1,0.75,0.5,22,-0.041105231,0.5611,,,,,,203,0,203,0,1,,,,,
,,245934,001,2023-07-31_20h55.50.188,arm3_eps,2022.2.5,Win32,60.12867537,5ece064a75736a193990951a,64c7fed44a04f777bb1e18ce,64c8011a20b4977c093942f8,right,-1,0.75,0.5,22,-0.034442387,0.2205,,,,,,204,0,204,0,1,,,,,
,,245934,001,2023-07-31_20h55.50.188,arm3_eps,2022.2.5,Win32,60.12867537,5ece064a75736a193990951a,64c7fed44a04f777bb1e18ce,64c8011a20b4977c093942f8,down,1,0.75,0.5,22,0,0.5981,,,,,,205,0,205,0,1,,,,,
,,245934,001,2023-07-31_20h55.50.188,arm3_eps,2022.2.5,Win32,60.12867537,5ece064a75736a193990951a,64c7fed44a04f777bb1e18ce,64c8011a20b4977c093942f8,right,1,0.75,0.5,22,-0.001235697,0.5875,,,,,,206,0,206,0,1,,,,,
,,245934,001,2023-07-31_20h55.50.188,arm3_eps,2022.2.5,Win32,60.12867537,5ece064a75736a193990951a,64c7fed44a04f777bb1e18ce,64c8011a20b4977c093942f8,right,1,0.75,0.5,22,0.026036409,0.3369,,,,,,207,0,207,0,1,,,,,
,,245934,001,2023-07-31_20h55.50.188,arm3_eps,2022.2.5,Win32,60.12867537,5ece064a75736a193990951a,64c7fed44a04f777bb1e18ce,64c8011a20b4977c093942f8,up,1,0.75,0.5,22,0,0.7345,,,,,,208,0,208,0,1,,,,,
,,245934,001,2023-07-31_20h55.50.188,arm3_eps,2022.2.5,Win32,60.12867537,5ece064a75736a193990951a,64c7fed44a04f777bb1e18ce,64c8011a20b4977c093942f8,right,1,0.75,0.5,22,0.028523286,0.4929,,,,,,209,0,209,0,1,,,,,
,,245934,001,2023-07-31_20h55.50.188,arm3_eps,2022.2.5,Win32,60.12867537,5ece064a75736a193990951a,64c7fed44a04f777bb1e18ce,64c8011a20b4977c093942f8,right,1,0.75,0.5,22,0.011657344,0.2315,,,,,,210,0,210,0,1,,,,,
,,245934,001,2023-07-31_20h55.50.188,arm3_eps,2022.2.5,Win32,60.12867537,5ece064a75736a193990951a,64c7fed44a04f777bb1e18ce,64c8011a20b4977c093942f8,up,1,0.75,0.5,23,0,0.5304,,,,,,211,0,211,0,1,,,,,
,,245934,001,2023-07-31_20h55.50.188,arm3_eps,2022.2.5,Win32,60.12867537,5ece064a75736a193990951a,64c7fed44a04f777bb1e18ce,64c8011a20b4977c093942f8,right,1,0.75,0.5,23,0.061254181,0.4372,,,,,,212,0,212,0,1,,,,,
,,245934,001,2023-07-31_20h55.50.188,arm3_eps,2022.2.5,Win32,60.12867537,5ece064a75736a193990951a,64c7fed44a04f777bb1e18ce,64c8011a20b4977c093942f8,right,1,0.75,0.5,23,0.073282004,0.2531,,,,,,213,0,213,0,1,,,,,
,,245934,001,2023-07-31_20h55.50.188,arm3_eps,2022.2.5,Win32,60.12867537,5ece064a75736a193990951a,64c7fed44a04f777bb1e18ce,64c8011a20b4977c093942f8,up,-1,0.75,0.5,24,0,0.5637,,,,,,214,0,214,0,1,,,,,
,,245934,001,2023-07-31_20h55.50.188,arm3_eps,2022.2.5,Win32,60.12867537,5ece064a75736a193990951a,64c7fed44a04f777bb1e18ce,64c8011a20b4977c093942f8,right,-1,0.75,0.5,24,0.021749536,0.4125,,,,,,215,0,215,0,1,,,,,
,,245934,001,2023-07-31_20h55.50.188,arm3_eps,2022.2.5,Win32,60.12867537,5ece064a75736a193990951a,64c7fed44a04f777bb1e18ce,64c8011a20b4977c093942f8,right,-1,0.75,0.5,24,0.005877728,0.5135,,,,,,216,0,216,0,1,,,,,
,,245934,001,2023-07-31_20h55.50.188,arm3_eps,2022.2.5,Win32,60.12867537,5ece064a75736a193990951a,64c7fed44a04f777bb1e18ce,64c8011a20b4977c093942f8,down,1,0.75,0.5,25,0,0.5897,,,,,,217,0,217,0,1,,,,,
,,245934,001,2023-07-31_20h55.50.188,arm3_eps,2022.2.5,Win32,60.12867537,5ece064a75736a193990951a,64c7fed44a04f777bb1e18ce,64c8011a20b4977c093942f8,right,1,0.75,0.5,25,-0.009353396,0.4501,,,,,,218,0,218,0,1,,,,,
,,245934,001,2023-07-31_20h55.50.188,arm3_eps,2022.2.5,Win32,60.12867537,5ece064a75736a193990951a,64c7fed44a04f777bb1e18ce,64c8011a20b4977c093942f8,right,1,0.75,0.5,25,-0.020343705,0.3997,,,,,,219,0,219,0,1,,,,,
,,245934,001,2023-07-31_20h55.50.188,arm3_eps,2022.2.5,Win32,60.12867537,5ece064a75736a193990951a,64c7fed44a04f777bb1e18ce,64c8011a20b4977c093942f8,down,1,0.75,0.5,25,0,0.6971,,,,,,220,0,220,0,1,,,,,
,,245934,001,2023-07-31_20h55.50.188,arm3_eps,2022.2.5,Win32,60.12867537,5ece064a75736a193990951a,64c7fed44a04f777bb1e18ce,64c8011a20b4977c093942f8,right,1,0.75,0.5,25,-0.000921902,0.5584,,,,,,221,0,221,0,1,,,,,
,,245934,001,2023-07-31_20h55.50.188,arm3_eps,2022.2.5,Win32,60.12867537,5ece064a75736a193990951a,64c7fed44a04f777bb1e18ce,64c8011a20b4977c093942f8,right,1,0.75,0.5,25,-0.000806599,0.4342,,,,,,222,0,222,0,1,,,,,
,,245934,001,2023-07-31_20h55.50.188,arm3_eps,2022.2.5,Win32,60.12867537,5ece064a75736a193990951a,64c7fed44a04f777bb1e18ce,64c8011a20b4977c093942f8,up,1,0.75,0.5,25,0,1.3681,,,,,,223,0,223,0,1,,,,,
,,245934,001,2023-07-31_20h55.50.188,arm3_eps,2022.2.5,Win32,60.12867537,5ece064a75736a193990951a,64c7fed44a04f777bb1e18ce,64c8011a20b4977c093942f8,right,1,0.75,0.5,25,0.01298617,0.3414,,,,,,224,0,224,0,1,,,,,
,,245934,001,2023-07-31_20h55.50.188,arm3_eps,2022.2.5,Win32,60.12867537,5ece064a75736a193990951a,64c7fed44a04f777bb1e18ce,64c8011a20b4977c093942f8,right,1,0.75,0.5,25,0.026466482,0.2928,,,,,,225,0,225,0,1,,,,,
,,245934,001,2023-07-31_20h55.50.188,arm3_eps,2022.2.5,Win32,60.12867537,5ece064a75736a193990951a,64c7fed44a04f777bb1e18ce,64c8011a20b4977c093942f8,up,1,0.75,0.5,26,0,0.5269,,,,,,226,0,226,0,1,,,,,
,,245934,001,2023-07-31_20h55.50.188,arm3_eps,2022.2.5,Win32,60.12867537,5ece064a75736a193990951a,64c7fed44a04f777bb1e18ce,64c8011a20b4977c093942f8,right,1,0.75,0.5,26,0.008536479,0.3889,,,,,,227,0,227,0,1,,,,,
,,245934,001,2023-07-31_20h55.50.188,arm3_eps,2022.2.5,Win32,60.12867537,5ece064a75736a193990951a,64c7fed44a04f777bb1e18ce,64c8011a20b4977c093942f8,right,1,0.75,0.5,26,0.035926339,0.5453,,,,,,228,0,228,0,1,,,,,
,,245934,001,2023-07-31_20h55.50.188,arm3_eps,2022.2.5,Win32,60.12867537,5ece064a75736a193990951a,64c7fed44a04f777bb1e18ce,64c8011a20b4977c093942f8,up,-1,0.75,0.5,27,0,0.6356,,,,,,229,0,229,0,1,,,,,
,,245934,001,2023-07-31_20h55.50.188,arm3_eps,2022.2.5,Win32,60.12867537,5ece064a75736a193990951a,64c7fed44a04f777bb1e18ce,64c8011a20b4977c093942f8,right,-1,0.75,0.5,27,-0.014031023,0.4184,,,,,,230,0,230,0,1,,,,,
,,245934,001,2023-07-31_20h55.50.188,arm3_eps,2022.2.5,Win32,60.12867537,5ece064a75736a193990951a,64c7fed44a04f777bb1e18ce,64c8011a20b4977c093942f8,right,-1,0.75,0.5,27,-0.048926897,0.2977,,,,,,231,0,231,0,1,,,,,
,,245934,001,2023-07-31_20h55.50.188,arm3_eps,2022.2.5,Win32,60.12867537,5ece064a75736a193990951a,64c7fed44a04f777bb1e18ce,64c8011a20b4977c093942f8,down,-1,0.75,0.5,28,0,0.4642,,,,,,232,0,232,0,1,,,,,
,,245934,001,2023-07-31_20h55.50.188,arm3_eps,2022.2.5,Win32,60.12867537,5ece064a75736a193990951a,64c7fed44a04f777bb1e18ce,64c8011a20b4977c093942f8,right,-1,0.75,0.5,28,-0.023051973,0.5153,,,,,,233,0,233,0,1,,,,,
,,245934,001,2023-07-31_20h55.50.188,arm3_eps,2022.2.5,Win32,60.12867537,5ece064a75736a193990951a,64c7fed44a04f777bb1e18ce,64c8011a20b4977c093942f8,right,-1,0.75,0.5,28,-0.018221604,0.2987,,,,,,234,0,234,0,1,,,,,
,,245934,001,2023-07-31_20h55.50.188,arm3_eps,2022.2.5,Win32,60.12867537,5ece064a75736a193990951a,64c7fed44a04f777bb1e18ce,64c8011a20b4977c093942f8,down,-1,0.75,0.5,28,0,1.3331,,,,,,235,0,235,0,1,,,,,
,,245934,001,2023-07-31_20h55.50.188,arm3_eps,2022.2.5,Win32,60.12867537,5ece064a75736a193990951a,64c7fed44a04f777bb1e18ce,64c8011a20b4977c093942f8,right,-1,0.75,0.5,28,-0.009508617,0.5939,,,,,,236,0,236,0,1,,,,,
,,245934,001,2023-07-31_20h55.50.188,arm3_eps,2022.2.5,Win32,60.12867537,5ece064a75736a193990951a,64c7fed44a04f777bb1e18ce,64c8011a20b4977c093942f8,right,-1,0.75,0.5,28,-0.00340087,0.3139,,,,,,237,0,237,0,1,,,,,
,,245934,001,2023-07-31_20h55.50.188,arm3_eps,2022.2.5,Win32,60.12867537,5ece064a75736a193990951a,64c7fed44a04f777bb1e18ce,64c8011a20b4977c093942f8,down,-1,0.75,0.5,29,0,0.6972,,,,,,238,0,238,0,1,,,,,
,,245934,001,2023-07-31_20h55.50.188,arm3_eps,2022.2.5,Win32,60.12867537,5ece064a75736a193990951a,64c7fed44a04f777bb1e18ce,64c8011a20b4977c093942f8,right,-1,0.75,0.5,29,-0.00450628,0.4334,,,,,,239,0,239,0,1,,,,,
,,245934,001,2023-07-31_20h55.50.188,arm3_eps,2022.2.5,Win32,60.12867537,5ece064a75736a193990951a,64c7fed44a04f777bb1e18ce,64c8011a20b4977c093942f8,right,-1,0.75,0.5,29,-0.0236675,0.2964,,,,,,240,0,240,0,1,,,,,
,,245934,001,2023-07-31_20h55.50.188,arm3_eps,2022.2.5,Win32,60.12867537,5ece064a75736a193990951a,64c7fed44a04f777bb1e18ce,64c8011a20b4977c093942f8,down,1,0.75,0.5,29,0,0.4337,,,,,,241,0,241,0,1,,,,,
,,245934,001,2023-07-31_20h55.50.188,arm3_eps,2022.2.5,Win32,60.12867537,5ece064a75736a193990951a,64c7fed44a04f777bb1e18ce,64c8011a20b4977c093942f8,right,1,0.75,0.5,29,0.001221797,0.5554,,,,,,242,0,242,0,1,,,,,
,,245934,001,2023-07-31_20h55.50.188,arm3_eps,2022.2.5,Win32,60.12867537,5ece064a75736a193990951a,64c7fed44a04f777bb1e18ce,64c8011a20b4977c093942f8,right,1,0.75,0.5,29,0.017369922,0.6467,,,,,,243,0,243,0,1,,,,,
,,245934,001,2023-07-31_20h55.50.188,arm3_eps,2022.2.5,Win32,60.12867537,5ece064a75736a193990951a,64c7fed44a04f777bb1e18ce,64c8011a20b4977c093942f8,down,-1,0.75,0.5,28,0,0.7691,,,,,,244,0,244,0,1,,,,,
,,245934,001,2023-07-31_20h55.50.188,arm3_eps,2022.2.5,Win32,60.12867537,5ece064a75736a193990951a,64c7fed44a04f777bb1e18ce,64c8011a20b4977c093942f8,right,-1,0.75,0.5,28,-0.010904203,0.3765,,,,,,245,0,245,0,1,,,,,
,,245934,001,2023-07-31_20h55.50.188,arm3_eps,2022.2.5,Win32,60.12867537,5ece064a75736a193990951a,64c7fed44a04f777bb1e18ce,64c8011a20b4977c093942f8,right,-1,0.75,0.5,28,-0.020146943,0.4424,,,,,,246,0,246,0,1,,,,,
,,245934,001,2023-07-31_20h55.50.188,arm3_eps,2022.2.5,Win32,60.12867537,5ece064a75736a193990951a,64c7fed44a04f777bb1e18ce,64c8011a20b4977c093942f8,up,1,0.75,0.5,27,0,0.6679,,,,,,247,0,247,0,1,,,,,
,,245934,001,2023-07-31_20h55.50.188,arm3_eps,2022.2.5,Win32,60.12867537,5ece064a75736a193990951a,64c7fed44a04f777bb1e18ce,64c8011a20b4977c093942f8,right,1,0.75,0.5,27,0.00112974,0.636,,,,,,248,0,248,0,1,,,,,
,,245934,001,2023-07-31_20h55.50.188,arm3_eps,2022.2.5,Win32,60.12867537,5ece064a75736a193990951a,64c7fed44a04f777bb1e18ce,64c8011a20b4977c093942f8,right,1,0.75,0.5,27,0.004305288,0.3302,,,,,,249,0,249,0,1,,,,,
,,245934,001,2023-07-31_20h55.50.188,arm3_eps,2022.2.5,Win32,60.12867537,5ece064a75736a193990951a,64c7fed44a04f777bb1e18ce,64c8011a20b4977c093942f8,up,1,0.75,0.5,27,0,0.9995,,,,,,250,0,250,0,1,,,,,
,,245934,001,2023-07-31_20h55.50.188,arm3_eps,2022.2.5,Win32,60.12867537,5ece064a75736a193990951a,64c7fed44a04f777bb1e18ce,64c8011a20b4977c093942f8,right,1,0.75,0.5,27,-0.000179364,0.5114,,,,,,251,0,251,0,1,,,,,
,,245934,001,2023-07-31_20h55.50.188,arm3_eps,2022.2.5,Win32,60.12867537,5ece064a75736a193990951a,64c7fed44a04f777bb1e18ce,64c8011a20b4977c093942f8,right,1,0.75,0.5,27,0.030799523,0.4482,,,,,,252,0,252,0,1,,,,,
,,245934,001,2023-07-31_20h55.50.188,arm3_eps,2022.2.5,Win32,60.12867537,5ece064a75736a193990951a,64c7fed44a04f777bb1e18ce,64c8011a20b4977c093942f8,up,-1,0.75,0.5,27,0,0.4721,,,,,,253,0,253,0,1,,,,,
,,245934,001,2023-07-31_20h55.50.188,arm3_eps,2022.2.5,Win32,60.12867537,5ece064a75736a193990951a,64c7fed44a04f777bb1e18ce,64c8011a20b4977c093942f8,right,-1,0.75,0.5,27,-0.014991318,0.4386,,,,,,254,0,254,0,1,,,,,
,,245934,001,2023-07-31_20h55.50.188,arm3_eps,2022.2.5,Win32,60.12867537,5ece064a75736a193990951a,64c7fed44a04f777bb1e18ce,64c8011a20b4977c093942f8,right,-1,0.75,0.5,27,-0.051620742,0.482,,,,,,255,0,255,0,1,,,,,
,,245934,001,2023-07-31_20h55.50.188,arm3_eps,2022.2.5,Win32,60.12867537,5ece064a75736a193990951a,64c7fed44a04f777bb1e18ce,64c8011a20b4977c093942f8,down,1,0.75,0.5,28,0,0.5476,,,,,,256,0,256,0,1,,,,,
,,245934,001,2023-07-31_20h55.50.188,arm3_eps,2022.2.5,Win32,60.12867537,5ece064a75736a193990951a,64c7fed44a04f777bb1e18ce,64c8011a20b4977c093942f8,right,1,0.75,0.5,28,0.017856431,0.4582,,,,,,257,0,257,0,1,,,,,
,,245934,001,2023-07-31_20h55.50.188,arm3_eps,2022.2.5,Win32,60.12867537,5ece064a75736a193990951a,64c7fed44a04f777bb1e18ce,64c8011a20b4977c093942f8,right,1,0.75,0.5,28,0.007244984,0.3778,,,,,,258,0,258,0,1,,,,,
,,245934,001,2023-07-31_20h55.50.188,arm3_eps,2022.2.5,Win32,60.12867537,5ece064a75736a193990951a,64c7fed44a04f777bb1e18ce,64c8011a20b4977c093942f8,up,-1,0.75,0.5,28,0,0.7891,,,,,,259,0,259,0,1,,,,,
,,245934,001,2023-07-31_20h55.50.188,arm3_eps,2022.2.5,Win32,60.12867537,5ece064a75736a193990951a,64c7fed44a04f777bb1e18ce,64c8011a20b4977c093942f8,right,-1,0.75,0.5,28,0.017327723,0.4152,,,,,,260,0,260,0,1,,,,,
,,245934,001,2023-07-31_20h55.50.188,arm3_eps,2022.2.5,Win32,60.12867537,5ece064a75736a193990951a,64c7fed44a04f777bb1e18ce,64c8011a20b4977c093942f8,right,-1,0.75,0.5,28,0.024672685,0.2648,,,,,,261,0,261,0,1,,,,,
,,245934,001,2023-07-31_20h55.50.188,arm3_eps,2022.2.5,Win32,60.12867537,5ece064a75736a193990951a,64c7fed44a04f777bb1e18ce,64c8011a20b4977c093942f8,down,1,0.75,0.5,29,0,0.7175,,,,,,262,0,262,0,1,,,,,
,,245934,001,2023-07-31_20h55.50.188,arm3_eps,2022.2.5,Win32,60.12867537,5ece064a75736a193990951a,64c7fed44a04f777bb1e18ce,64c8011a20b4977c093942f8,right,1,0.75,0.5,29,-0.012307853,0.3861,,,,,,263,0,263,0,1,,,,,
,,245934,001,2023-07-31_20h55.50.188,arm3_eps,2022.2.5,Win32,60.12867537,5ece064a75736a193990951a,64c7fed44a04f777bb1e18ce,64c8011a20b4977c093942f8,right,1,0.75,0.5,29,0.007776882,0.6054,,,,,,264,0,264,0,1,,,,,
,,245934,001,2023-07-31_20h55.50.188,arm3_eps,2022.2.5,Win32,60.12867537,5ece064a75736a193990951a,64c7fed44a04f777bb1e18ce,64c8011a20b4977c093942f8,down,-1,0.75,0.5,29,0,0.8049,,,,,,265,0,265,0,1,,,,,
,,245934,001,2023-07-31_20h55.50.188,arm3_eps,2022.2.5,Win32,60.12867537,5ece064a75736a193990951a,64c7fed44a04f777bb1e18ce,64c8011a20b4977c093942f8,right,-1,0.75,0.5,29,0.009816108,0.4788,,,,,,266,0,266,0,1,,,,,
,,245934,001,2023-07-31_20h55.50.188,arm3_eps,2022.2.5,Win32,60.12867537,5ece064a75736a193990951a,64c7fed44a04f777bb1e18ce,64c8011a20b4977c093942f8,right,-1,0.75,0.5,29,-0.005276712,0.3985,,,,,,267,0,267,0,1,,,,,