space_bar.keys,space_bar.rt,participant,session,date,expName,psychopyVersion,OS,frameRate,PROLIFIC_PID,STUDY_ID,SESSION_ID,resp.keys,state,q_prob,eps_prob,score,price,resp.rt,train.thisRepN,train.thisTrialN,train.thisN,train.thisIndex,train.ran,steps.thisRepN,steps.thisTrialN,steps.thisN,steps.thisIndex,steps.ran,blocks.thisRepN,blocks.thisTrialN,blocks.thisN,blocks.thisIndex,blocks.ran
space,148.084,248924,001,2023-07-31_20h47.25.133,arm3_eps,2022.2.5,Linux x86_64,58.27505828,609d93dea742beade6157bdc,64c7fed44a04f777bb1e18ce,64c800c02bbc19106020c9f9,,,,,,,,,,,,,,,,,,,,,,
space,4.399,248924,001,2023-07-31_20h47.25.133,arm3_eps,2022.2.5,Linux x86_64,58.27505828,609d93dea742beade6157bdc,64c7fed44a04f777bb1e18ce,64c800c02bbc19106020c9f9,,,,,,,,,,,,,,,,,,,,,,
space,98.114,248924,001,2023-07-31_20h47.25.133,arm3_eps,2022.2.5,Linux x86_64,58.27505828,609d93dea742beade6157bdc,64c7fed44a04f777bb1e18ce,64c800c02bbc19106020c9f9,,,,,,,,,,,,,,,,,,,,,,
space,19.106,248924,001,2023-07-31_20h47.25.133,arm3_eps,2022.2.5,Linux x86_64,58.27505828,609d93dea742beade6157bdc,64c7fed44a04f777bb1e18ce,64c800c02bbc19106020c9f9,,,,,,,,,,,,,,,,,,,,,,
space,21.261,248924,001,2023-07-31_20h47.25.133,arm3_eps,2022.2.5,Linux x86_64,58.27505828,609d93dea742beade6157bdc,64c7fed44a04f777bb1e18ce,64c800c02bbc19106020c9f9,,,,,,,,,,,,,,,,,,,,,,
space,11.448,248924,001,2023-07-31_20h47.25.133,arm3_eps,2022.2.5,Linux x86_64,58.27505828,609d93dea742beade6157bdc,64c7fed44a04f777bb1e18ce,64c800c02bbc19106020c9f9,,,,,,,,,,,,,,,,,,,,,,
space,3.624,248924,001,2023-07-31_20h47.25.133,arm3_eps,2022.2.5,Linux x86_64,58.27505828,609d93dea742beade6157bdc,64c7fed44a04f777bb1e18ce,64c800c02bbc19106020c9f9,,,,,,,,,,,,,,,,,,,,,,
,,248924,001,2023-07-31_20h47.25.133,arm3_eps,2022.2.5,Linux x86_64,58.27505828,609d93dea742beade6157bdc,64c7fed44a04f777bb1e18ce,64c800c02bbc19106020c9f9,up,-1,1,0.2429,-1,0,24.678,0,0,0,0,1,,,,,,,,,,
,,248924,001,2023-07-31_20h47.25.133,arm3_eps,2022.2.5,Linux x86_64,58.27505828,609d93dea742beade6157bdc,64c7fed44a04f777bb1e18ce,64c800c02bbc19106020c9f9,down,-1,1,0.2429,0,0,3.125,1,0,1,0,1,,,,,,,,,,
,,248924,001,2023-07-31_20h47.25.133,arm3_eps,2022.2.5,Linux x86_64,58.27505828,609d93dea742beade6157bdc,64c7fed44a04f777bb1e18ce,64c800c02bbc19106020c9f9,up,-1,1,0.2429,-1,0,11.559,2,0,2,0,1,,,,,,,,,,
,,248924,001,2023-07-31_20h47.25.133,arm3_eps,2022.2.5,Linux x86_64,58.27505828,609d93dea742beade6157bdc,64c7fed44a04f777bb1e18ce,64c800c02bbc19106020c9f9,down,-1,1,0.2429,0,0,1.358,3,0,3,0,1,,,,,,,,,,
,,248924,001,2023-07-31_20h47.25.133,arm3_eps,2022.2.5,Linux x86_64,58.27505828,609d93dea742beade6157bdc,64c7fed44a04f777bb1e18ce,64c800c02bbc19106020c9f9,up,-1,1,0.2429,-1,0,2.65,4,0,4,0,1,,,,,,,,,,
,,248924,001,2023-07-31_20h47.25.133,arm3_eps,2022.2.5,Linux x86_64,58.27505828,609d93dea742beade6157bdc,64c7fed44a04f777bb1e18ce,64c800c02bbc19106020c9f9,down,-1,1,0.2429,0,0,2.221,5,0,5,0,1,,,,,,,,,,
,,248924,001,2023-07-31_20h47.25.133,arm3_eps,2022.2.5,Linux x86_64,58.27505828,609d93dea742beade6157bdc,64c7fed44a04f777bb1e18ce,64c800c02bbc19106020c9f9,up,1,1,0.2429,-1,0,3.987,6,0,6,0,1,,,,,,,,,,
,,248924,001,2023-07-31_20h47.25.133,arm3_eps,2022.2.5,Linux x86_64,58.27505828,609d93dea742beade6157bdc,64c7fed44a04f777bb1e18ce,64c800c02bbc19106020c9f9,down,-1,1,0.2429,-2,0,1.78,7,0,7,0,1,,,,,,,,,,
,,248924,001,2023-07-31_20h47.25.133,arm3_eps,2022.2.5,Linux x86_64,58.27505828,609d93dea742beade6157bdc,64c7fed44a04f777bb1e18ce,64c800c02bbc19106020c9f9,up,1,1,0.2429,-3,0,2.872,8,0,8,0,1,,,,,,,,,,
,,248924,001,2023-07-31_20h47.25.133,arm3_eps,2022.2.5,Linux x86_64,58.27505828,609d93dea742beade6157bdc,64c7fed44a04f777bb1e18ce,64c800c02bbc19106020c9f9,down,1,1,0.2429,-4,0,2.321,9,0,9,0,1,,,,,,,,,,
,,248924,001,2023-07-31_20h47.25.133,arm3_eps,2022.2.5,Linux x86_64,58.27505828,609d93dea742beade6157bdc,64c7fed44a04f777bb1e18ce,64c800c02bbc19106020c9f9,up,1,1,0.2429,-3,0,2.036,10,0,10,0,1,,,,,,,,,,
,,248924,001,2023-07-31_20h47.25.133,arm3_eps,2022.2.5,Linux x86_64,58.27505828,609d93dea742beade6157bdc,64c7fed44a04f777bb1e18ce,64c800c02bbc19106020c9f9,up,1,1,0.2429,-2,0,10.29,11,0,11,0,1,,,,,,,,,,
,,248924,001,2023-07-31_20h47.25.133,arm3_eps,2022.2.5,Linux x86_64,58.27505828,609d93dea742beade6157bdc,64c7fed44a04f777bb1e18ce,64c800c02bbc19106020c9f9,right,1,1,0.2429,-2,0.027690113,10.559,12,0,12,0,1,,,,,,,,,,
,,248924,001,2023-07-31_20h47.25.133,arm3_eps,2022.2.5,Linux x86_64,58.27505828,609d93dea742beade6157bdc,64c7fed44a04f777bb1e18ce,64c800c02bbc19106020c9f9,right,1,1,0.2429,-2,0.024818983,1.137,13,0,13,0,1,,,,,,,,,,
,,248924,001,2023-07-31_20h47.25.133,arm3_eps,2022.2.5,Linux x86_64,58.27505828,609d93dea742beade6157bdc,64c7fed44a04f777bb1e18ce,64c800c02bbc19106020c9f9,right,1,1,0.2429,-2,0.019495629,1.159,14,0,14,0,1,,,,,,,,,,
,,248924,001,2023-07-31_20h47.25.133,arm3_eps,2022.2.5,Linux x86_64,58.27505828,609d93dea742beade6157bdc,64c7fed44a04f777bb1e18ce,64c800c02bbc19106020c9f9,down,1,1,0.2429,-3,0,1.607,15,0,15,0,1,,,,,,,,,,
,,248924,001,2023-07-31_20h47.25.133,arm3_eps,2022.2.5,Linux x86_64,58.27505828,609d93dea742beade6157bdc,64c7fed44a04f777bb1e18ce,64c800c02bbc19106020c9f9,right,1,1,0.2429,-3,0.017457176,1.437,16,0,16,0,1,,,,,,,,,,
,,248924,001,2023-07-31_20h47.25.133,arm3_eps,2022.2.5,Linux x86_64,58.27505828,609d93dea742beade6157bdc,64c7fed44a04f777bb1e18ce,64c800c02bbc19106020c9f9,right,1,1,0.2429,-3,0.03017275,0.508,17,0,17,0,1,,,,,,,,,,
,,248924,001,2023-07-31_20h47.25.133,arm3_eps,2022.2.5,Linux x86_64,58.27505828,609d93dea742beade6157bdc,64c7fed44a04f777bb1e18ce,64c800c02bbc19106020c9f9,up,1,1,0.2429,-2,0,2.453,18,0,18,0,1,,,,,,,,,,
,,248924,001,2023-07-31_20h47.25.133,arm3_eps,2022.2.5,Linux x86_64,58.27505828,609d93dea742beade6157bdc,64c7fed44a04f777bb1e18ce,64c800c02bbc19106020c9f9,right,1,1,0.2429,-2,0.025230682,1.246,19,0,19,0,1,,,,,,,,,,
,,248924,001,2023-07-31_20h47.25.133,arm3_eps,2022.2.5,Linux x86_64,58.27505828,609d93dea742beade6157bdc,64c7fed44a04f777bb1e18ce,64c800c02bbc19106020c9f9,right,1,1,0.2429,-2,0.004762375,0.368,20,0,20,0,1,,,,,,,,,,
,,248924,001,2023-07-31_20h47.25.133,arm3_eps,2022.2.5,Linux x86_64,58.27505828,609d93dea742beade6157bdc,64c7fed44a04f777bb1e18ce,64c800c02bbc19106020c9f9,down,1,1,0.2429,-3,0,1.726,21,0,21,0,1,,,,,,,,,,
,,248924,001,2023-07-31_20h47.25.133,arm3_eps,2022.2.5,Linux x86_64,58.27505828,609d93dea742beade6157bdc,64c7fed44a04f777bb1e18ce,64c800c02bbc19106020c9f9,right,1,1,0.2429,-3,0.012177888,1.092,22,0,22,0,1,,,,,,,,,,
,,248924,001,2023-07-31_20h47.25.133,arm3_eps,2022.2.5,Linux x86_64,58.27505828,609d93dea742beade6157bdc,64c7fed44a04f777bb1e18ce,64c800c02bbc19106020c9f9,right,1,1,0.2429,-3,0.010647361,0.334,23,0,23,0,1,,,,,,,,,,
,,248924,001,2023-07-31_20h47.25.133,arm3_eps,2022.2.5,Linux x86_64,58.27505828,609d93dea742beade6157bdc,64c7fed44a04f777bb1e18ce,64c800c02bbc19106020c9f9,right,1,1,0.2429,-3,0.012884942,0.428,24,0,24,0,1,,,,,,,,,,
,,248924,001,2023-07-31_20h47.25.133,arm3_eps,2022.2.5,Linux x86_64,58.27505828,609d93dea742beade6157bdc,64c7fed44a04f777bb1e18ce,64c800c02bbc19106020c9f9,up,1,1,0.2429,-2,0,1.069,25,0,25,0,1,,,,,,,,,,
,,248924,001,2023-07-31_20h47.25.133,arm3_eps,2022.2.5,Linux x86_64,58.27505828,609d93dea742beade6157bdc,64c7fed44a04f777bb1e18ce,64c800c02bbc19106020c9f9,right,1,1,0.2429,-2,0.043178488,1.215,26,0,26,0,1,,,,,,,,,,
,,248924,001,2023-07-31_20h47.25.133,arm3_eps,2022.2.5,Linux x86_64,58.27505828,609d93dea742beade6157bdc,64c7fed44a04f777bb1e18ce,64c800c02bbc19106020c9f9,right,1,1,0.2429,-2,0.055473188,0.418,27,0,27,0,1,,,,,,,,,,
,,248924,001,2023-07-31_20h47.25.133,arm3_eps,2022.2.5,Linux x86_64,58.27505828,609d93dea742beade6157bdc,64c7fed44a04f777bb1e18ce,64c800c02bbc19106020c9f9,right,1,1,0.2429,-2,0.037831398,0.477,28,0,28,0,1,,,,,,,,,,
,,248924,001,2023-07-31_20h47.25.133,arm3_eps,2022.2.5,Linux x86_64,58.27505828,609d93dea742beade6157bdc,64c7fed44a04f777bb1e18ce,64c800c02bbc19106020c9f9,right,1,1,0.2429,-2,0.070551011,0.744,29,0,29,0,1,,,,,,,,,,
,,248924,001,2023-07-31_20h47.25.133,arm3_eps,2022.2.5,Linux x86_64,58.27505828,609d93dea742beade6157bdc,64c7fed44a04f777bb1e18ce,64c800c02bbc19106020c9f9,right,1,1,0.2429,-2,0.08694183,0.426,30,0,30,0,1,,,,,,,,,,
,,248924,001,2023-07-31_20h47.25.133,arm3_eps,2022.2.5,Linux x86_64,58.27505828,609d93dea742beade6157bdc,64c7fed44a04f777bb1e18ce,64c800c02bbc19106020c9f9,right,1,1,0.2429,-2,0.086224797,0.618,31,0,31,0,1,,,,,,,,,,
,,248924,001,2023-07-31_20h47.25.133,arm3_eps,2022.2.5,Linux x86_64,58.27505828,609d93dea742beade6157bdc,64c7fed44a04f777bb1e18ce,64c800c02bbc19106020c9f9,right,1,1,0.2429,-2,0.083543396,0.685,32,0,32,0,1,,,,,,,,,,
,,248924,001,2023-07-31_20h47.25.133,arm3_eps,2022.2.5,Linux x86_64,58.27505828,609d93dea742beade6157bdc,64c7fed44a04f777bb1e18ce,64c800c02bbc19106020c9f9,up,1,1,0.2429,-1,0,1.186,33,0,33,0,1,,,,,,,,,,
,,248924,001,2023-07-31_20h47.25.133,arm3_eps,2022.2.5,Linux x86_64,58.27505828,609d93dea742beade6157bdc,64c7fed44a04f777bb1e18ce,64c800c02bbc19106020c9f9,right,1,1,0.2429,-1,0.017300444,2.466,34,0,34,0,1,,,,,,,,,,
,,248924,001,2023-07-31_20h47.25.133,arm3_eps,2022.2.5,Linux x86_64,58.27505828,609d93dea742beade6157bdc,64c7fed44a04f777bb1e18ce,64c800c02bbc19106020c9f9,right,1,1,0.2429,-1,0.032552278,0.329,35,0,35,0,1,,,,,,,,,,
,,248924,001,2023-07-31_20h47.25.133,arm3_eps,2022.2.5,Linux x86_64,58.27505828,609d93dea742beade6157bdc,64c7fed44a04f777bb1e18ce,64c800c02bbc19106020c9f9,right,1,1,0.2429,-1,0.071475203,0.269,36,0,36,0,1,,,,,,,,,,
,,248924,001,2023-07-31_20h47.25.133,arm3_eps,2022.2.5,Linux x86_64,58.27505828,609d93dea742beade6157bdc,64c7fed44a04f777bb1e18ce,64c800c02bbc19106020c9f9,right,1,1,0.2429,-1,0.0619277,0.321,37,0,37,0,1,,,,,,,,,,
,,248924,001,2023-07-31_20h47.25.133,arm3_eps,2022.2.5,Linux x86_64,58.27505828,609d93dea742beade6157bdc,64c7fed44a04f777bb1e18ce,64c800c02bbc19106020c9f9,right,1,1,0.2429,-1,0.071607149,0.294,38,0,38,0,1,,,,,,,,,,
,,248924,001,2023-07-31_20h47.25.133,arm3_eps,2022.2.5,Linux x86_64,58.27505828,609d93dea742beade6157bdc,64c7fed44a04f777bb1e18ce,64c800c02bbc19106020c9f9,right,1,1,0.2429,-1,0.079294379,1.129,39,0,39,0,1,,,,,,,,,,
,,248924,001,2023-07-31_20h47.25.133,arm3_eps,2022.2.5,Linux x86_64,58.27505828,609d93dea742beade6157bdc,64c7fed44a04f777bb1e18ce,64c800c02bbc19106020c9f9,down,1,1,0.2429,-2,0,1.003,40,0,40,0,1,,,,,,,,,,
,,248924,001,2023-07-31_20h47.25.133,arm3_eps,2022.2.5,Linux x86_64,58.27505828,609d93dea742beade6157bdc,64c7fed44a04f777bb1e18ce,64c800c02bbc19106020c9f9,right,1,1,0.2429,-2,0.016153936,1.05,41,0,41,0,1,,,,,,,,,,
,,248924,001,2023-07-31_20h47.25.133,arm3_eps,2022.2.5,Linux x86_64,58.27505828,609d93dea742beade6157bdc,64c7fed44a04f777bb1e18ce,64c800c02bbc19106020c9f9,right,1,1,0.2429,-2,0.013351551,0.268,42,0,42,0,1,,,,,,,,,,
,,248924,001,2023-07-31_20h47.25.133,arm3_eps,2022.2.5,Linux x86_64,58.27505828,609d93dea742beade6157bdc,64c7fed44a04f777bb1e18ce,64c800c02bbc19106020c9f9,right,1,1,0.2429,-2,0.031870114,0.251,43,0,43,0,1,,,,,,,,,,
,,248924,001,2023-07-31_20h47.25.133,arm3_eps,2022.2.5,Linux x86_64,58.27505828,609d93dea742beade6157bdc,64c7fed44a04f777bb1e18ce,64c800c02bbc19106020c9f9,right,1,1,0.2429,-2,0.077288235,0.191,44,0,44,0,1,,,,,,,,,,
,,248924,001,2023-07-31_20h47.25.133,arm3_eps,2022.2.5,Linux x86_64,58.27505828,609d93dea742beade6157bdc,64c7fed44a04f777bb1e18ce,64c800c02bbc19106020c9f9,right,1,1,0.2429,-2,0.074134253,0.302,45,0,45,0,1,,,,,,,,,,
,,248924,001,2023-07-31_20h47.25.133,arm3_eps,2022.2.5,Linux x86_64,58.27505828,609d93dea742beade6157bdc,64c7fed44a04f777bb1e18ce,64c800c02bbc19106020c9f9,up,1,1,0.2429,-1,0,1.035,46,0,46,0,1,,,,,,,,,,
,,248924,001,2023-07-31_20h47.25.133,arm3_eps,2022.2.5,Linux x86_64,58.27505828,609d93dea742beade6157bdc,64c7fed44a04f777bb1e18ce,64c800c02bbc19106020c9f9,right,1,1,0.2429,-1,0.010203135,1.162,47,0,47,0,1,,,,,,,,,,
,,248924,001,2023-07-31_20h47.25.133,arm3_eps,2022.2.5,Linux x86_64,58.27505828,609d93dea742beade6157bdc,64c7fed44a04f777bb1e18ce,64c800c02bbc19106020c9f9,right,1,1,0.2429,-1,0.025950667,0.159,48,0,48,0,1,,,,,,,,,,
,,248924,001,2023-07-31_20h47.25.133,arm3_eps,2022.2.5,Linux x86_64,58.27505828,609d93dea742beade6157bdc,64c7fed44a04f777bb1e18ce,64c800c02bbc19106020c9f9,right,1,1,0.2429,-1,0.010845595,0.185,49,0,49,0,1,,,,,,,,,,
space,26.648,248924,001,2023-07-31_20h47.25.133,arm3_eps,2022.2.5,Linux x86_64,58.27505828,609d93dea742beade6157bdc,64c7fed44a04f777bb1e18ce,64c800c02bbc19106020c9f9,,,,,,,,,,,,,,,,,,,,,,
space,22.621,248924,001,2023-07-31_20h47.25.133,arm3_eps,2022.2.5,Linux x86_64,58.27505828,609d93dea742beade6157bdc,64c7fed44a04f777bb1e18ce,64c800c02bbc19106020c9f9,,,,,,,,,,,,,,,,,,,,,,
space,18.208,248924,001,2023-07-31_20h47.25.133,arm3_eps,2022.2.5,Linux x86_64,58.27505828,609d93dea742beade6157bdc,64c7fed44a04f777bb1e18ce,64c800c02bbc19106020c9f9,,,,,,,,,,,,,,,,,,,,,,
space,5.969,248924,001,2023-07-31_20h47.25.133,arm3_eps,2022.2.5,Linux x86_64,58.27505828,609d93dea742beade6157bdc,64c7fed44a04f777bb1e18ce,64c800c02bbc19106020c9f9,,,,,,,,,,,,,,,,,,,,,,
space,7.285,248924,001,2023-07-31_20h47.25.133,arm3_eps,2022.2.5,Linux x86_64,58.27505828,609d93dea742beade6157bdc,64c7fed44a04f777bb1e18ce,64c800c02bbc19106020c9f9,,,,,,,,,,,,,,,,,,,,,,
space,1.236,248924,001,2023-07-31_20h47.25.133,arm3_eps,2022.2.5,Linux x86_64,58.27505828,609d93dea742beade6157bdc,64c7fed44a04f777bb1e18ce,64c800c02bbc19106020c9f9,,,,,,,,,,,,,,,,,,,,,,
,,248924,001,2023-07-31_20h47.25.133,arm3_eps,2022.2.5,Linux x86_64,58.27505828,609d93dea742beade6157bdc,64c7fed44a04f777bb1e18ce,64c800c02bbc19106020c9f9,right,1,0.75,0.2429,0,-0.004683962,2.551,0,0,0,0,1,,,,,,,,,,
,,248924,001,2023-07-31_20h47.25.133,arm3_eps,2022.2.5,Linux x86_64,58.27505828,609d93dea742beade6157bdc,64c7fed44a04f777bb1e18ce,64c800c02bbc19106020c9f9,up,1,0.75,0.2429,0,0,1.058,1,0,1,0,1,,,,,,,,,,
,,248924,001,2023-07-31_20h47.25.133,arm3_eps,2022.2.5,Linux x86_64,58.27505828,609d93dea742beade6157bdc,64c7fed44a04f777bb1e18ce,64c800c02bbc19106020c9f9,right,1,0.75,0.2429,0,-0.01290683,1.603,2,0,2,0,1,,,,,,,,,,
,,248924,001,2023-07-31_20h47.25.133,arm3_eps,2022.2.5,Linux x86_64,58.27505828,609d93dea742beade6157bdc,64c7fed44a04f777bb1e18ce,64c800c02bbc19106020c9f9,up,1,0.75,0.2429,1,0,1.386,3,0,3,0,1,,,,,,,,,,
,,248924,001,2023-07-31_20h47.25.133,arm3_eps,2022.2.5,Linux x86_64,58.27505828,609d93dea742beade6157bdc,64c7fed44a04f777bb1e18ce,64c800c02bbc19106020c9f9,right,1,0.75,0.2429,1,-0.000421138,1.305,4,0,4,0,1,,,,,,,,,,
,,248924,001,2023-07-31_20h47.25.133,arm3_eps,2022.2.5,Linux x86_64,58.27505828,609d93dea742beade6157bdc,64c7fed44a04f777bb1e18ce,64c800c02bbc19106020c9f9,right,1,0.75,0.2429,1,0.042880353,0.618,5,0,5,0,1,,,,,,,,,,
,,248924,001,2023-07-31_20h47.25.133,arm3_eps,2022.2.5,Linux x86_64,58.27505828,609d93dea742beade6157bdc,64c7fed44a04f777bb1e18ce,64c800c02bbc19106020c9f9,right,1,0.75,0.2429,1,0.048556982,0.648,6,0,6,0,1,,,,,,,,,,
,,248924,001,2023-07-31_20h47.25.133,arm3_eps,2022.2.5,Linux x86_64,58.27505828,609d93dea742beade6157bdc,64c7fed44a04f777bb1e18ce,64c800c02bbc19106020c9f9,up,1,0.75,0.2429,2,0,2.675,7,0,7,0,1,,,,,,,,,,
,,248924,001,2023-07-31_20h47.25.133,arm3_eps,2022.2.5,Linux x86_64,58.27505828,609d93dea742beade6157bdc,64c7fed44a04f777bb1e18ce,64c800c02bbc19106020c9f9,right,1,0.75,0.2429,2,-0.006157921,0.881,8,0,8,0,1,,,,,,,,,,
,,248924,001,2023-07-31_20h47.25.133,arm3_eps,2022.2.5,Linux x86_64,58.27505828,609d93dea742beade6157bdc,64c7fed44a04f777bb1e18ce,64c800c02bbc19106020c9f9,right,1,0.75,0.2429,2,0.04593076,0.324,9,0,9,0,1,,,,,,,,,,
,,248924,001,2023-07-31_20h47.25.133,arm3_eps,2022.2.5,Linux x86_64,58.27505828,609d93dea742beade6157bdc,64c7fed44a04f777bb1e18ce,64c800c02bbc19106020c9f9,right,1,0.75,0.2429,2,0.060539549,0.341,10,0,10,0,1,,,,,,,,,,
,,248924,001,2023-07-31_20h47.25.133,arm3_eps,2022.2.5,Linux x86_64,58.27505828,609d93dea742beade6157bdc,64c7fed44a04f777bb1e18ce,64c800c02bbc19106020c9f9,up,1,0.75,0.2429,3,0,0.823,11,0,11,0,1,,,,,,,,,,
,,248924,001,2023-07-31_20h47.25.133,arm3_eps,2022.2.5,Linux x86_64,58.27505828,609d93dea742beade6157bdc,64c7fed44a04f777bb1e18ce,64c800c02bbc19106020c9f9,right,1,0.75,0.2429,3,-0.003452116,0.949,12,0,12,0,1,,,,,,,,,,
,,248924,001,2023-07-31_20h47.25.133,arm3_eps,2022.2.5,Linux x86_64,58.27505828,609d93dea742beade6157bdc,64c7fed44a04f777bb1e18ce,64c800c02bbc19106020c9f9,right,1,0.75,0.2429,3,0.005777165,0.367,13,0,13,0,1,,,,,,,,,,
,,248924,001,2023-07-31_20h47.25.133,arm3_eps,2022.2.5,Linux x86_64,58.27505828,609d93dea742beade6157bdc,64c7fed44a04f777bb1e18ce,64c800c02bbc19106020c9f9,right,1,0.75,0.2429,3,0.002003599,0.303,14,0,14,0,1,,,,,,,,,,
,,248924,001,2023-07-31_20h47.25.133,arm3_eps,2022.2.5,Linux x86_64,58.27505828,609d93dea742beade6157bdc,64c7fed44a04f777bb1e18ce,64c800c02bbc19106020c9f9,up,1,0.75,0.2429,4,0,0.689,15,0,15,0,1,,,,,,,,,,
,,248924,001,2023-07-31_20h47.25.133,arm3_eps,2022.2.5,Linux x86_64,58.27505828,609d93dea742beade6157bdc,64c7fed44a04f777bb1e18ce,64c800c02bbc19106020c9f9,right,1,0.75,0.2429,4,-0.000749215,1.026,16,0,16,0,1,,,,,,,,,,
,,248924,001,2023-07-31_20h47.25.133,arm3_eps,2022.2.5,Linux x86_64,58.27505828,609d93dea742beade6157bdc,64c7fed44a04f777bb1e18ce,64c800c02bbc19106020c9f9,right,1,0.75,0.2429,4,-5.54639E-05,0.317,17,0,17,0,1,,,,,,,,,,
,,248924,001,2023-07-31_20h47.25.133,arm3_eps,2022.2.5,Linux x86_64,58.27505828,609d93dea742beade6157bdc,64c7fed44a04f777bb1e18ce,64c800c02bbc19106020c9f9,down,1,0.75,0.2429,3,0,0.736,18,0,18,0,1,,,,,,,,,,
,,248924,001,2023-07-31_20h47.25.133,arm3_eps,2022.2.5,Linux x86_64,58.27505828,609d93dea742beade6157bdc,64c7fed44a04f777bb1e18ce,64c800c02bbc19106020c9f9,right,1,0.75,0.2429,3,-0.018453722,0.957,19,0,19,0,1,,,,,,,,,,
,,248924,001,2023-07-31_20h47.25.133,arm3_eps,2022.2.5,Linux x86_64,58.27505828,609d93dea742beade6157bdc,64c7fed44a04f777bb1e18ce,64c800c02bbc19106020c9f9,right,1,0.75,0.2429,3,0.001390577,0.237,20,0,20,0,1,,,,,,,,,,
,,248924,001,2023-07-31_20h47.25.133,arm3_eps,2022.2.5,Linux x86_64,58.27505828,609d93dea742beade6157bdc,64c7fed44a04f777bb1e18ce,64c800c02bbc19106020c9f9,right,1,0.75,0.2429,3,0.011530725,0.237,21,0,21,0,1,,,,,,,,,,
,,248924,001,2023-07-31_20h47.25.133,arm3_eps,2022.2.5,Linux x86_64,58.27505828,609d93dea742beade6157bdc,64c7fed44a04f777bb1e18ce,64c800c02bbc19106020c9f9,right,1,0.75,0.2429,3,0.020571775,0.435,22,0,22,0,1,,,,,,,,,,
,,248924,001,2023-07-31_20h47.25.133,arm3_eps,2022.2.5,Linux x86_64,58.27505828,609d93dea742beade6157bdc,64c7fed44a04f777bb1e18ce,64c800c02bbc19106020c9f9,up,1,0.75,0.2429,4,0,0.868,23,0,23,0,1,,,,,,,,,,
,,248924,001,2023-07-31_20h47.25.133,arm3_eps,2022.2.5,Linux x86_64,58.27505828,609d93dea742beade6157bdc,64c7fed44a04f777bb1e18ce,64c800c02bbc19106020c9f9,right,1,0.75,0.2429,4,0.010339083,1.321,24,0,24,0,1,,,,,,,,,,
,,248924,001,2023-07-31_20h47.25.133,arm3_eps,2022.2.5,Linux x86_64,58.27505828,609d93dea742beade6157bdc,64c7fed44a04f777bb1e18ce,64c800c02bbc19106020c9f9,right,1,0.75,0.2429,4,0.034521362,0.327,25,0,25,0,1,,,,,,,,,,
,,248924,001,2023-07-31_20h47.25.133,arm3_eps,2022.2.5,Linux x86_64,58.27505828,609d93dea742beade6157bdc,64c7fed44a04f777bb1e18ce,64c800c02bbc19106020c9f9,right,1,0.75,0.2429,4,0.030911044,0.219,26,0,26,0,1,,,,,,,,,,
,,248924,001,2023-07-31_20h47.25.133,arm3_eps,2022.2.5,Linux x86_64,58.27505828,609d93dea742beade6157bdc,64c7fed44a04f777bb1e18ce,64c800c02bbc19106020c9f9,down,-1,0.75,0.2429,4,0,0.852,27,0,27,0,1,,,,,,,,,,
,,248924,001,2023-07-31_20h47.25.133,arm3_eps,2022.2.5,Linux x86_64,58.27505828,609d93dea742beade6157bdc,64c7fed44a04f777bb1e18ce,64c800c02bbc19106020c9f9,right,-1,0.75,0.2429,4,-0.007716521,1.066,28,0,28,0,1,,,,,,,,,,
,,248924,001,2023-07-31_20h47.25.133,arm3_eps,2022.2.5,Linux x86_64,58.27505828,609d93dea742beade6157bdc,64c7fed44a04f777bb1e18ce,64c800c02bbc19106020c9f9,right,-1,0.75,0.2429,4,-0.000555043,0.146,29,0,29,0,1,,,,,,,,,,
,,248924,001,2023-07-31_20h47.25.133,arm3_eps,2022.2.5,Linux x86_64,58.27505828,609d93dea742beade6157bdc,64c7fed44a04f777bb1e18ce,64c800c02bbc19106020c9f9,right,-1,0.75,0.2429,4,0.018355486,0.156,30,0,30,0,1,,,,,,,,,,
,,248924,001,2023-07-31_20h47.25.133,arm3_eps,2022.2.5,Linux x86_64,58.27505828,609d93dea742beade6157bdc,64c7fed44a04f777bb1e18ce,64c800c02bbc19106020c9f9,up,-1,0.75,0.2429,3,0,0.771,31,0,31,0,1,,,,,,,,,,
,,248924,001,2023-07-31_20h47.25.133,arm3_eps,2022.2.5,Linux x86_64,58.27505828,609d93dea742beade6157bdc,64c7fed44a04f777bb1e18ce,64c800c02bbc19106020c9f9,right,-1,0.75,0.2429,3,0.001217464,0.931,32,0,32,0,1,,,,,,,,,,
,,248924,001,2023-07-31_20h47.25.133,arm3_eps,2022.2.5,Linux x86_64,58.27505828,609d93dea742beade6157bdc,64c7fed44a04f777bb1e18ce,64c800c02bbc19106020c9f9,right,-1,0.75,0.2429,3,-0.00191875,0.127,33,0,33,0,1,,,,,,,,,,
,,248924,001,2023-07-31_20h47.25.133,arm3_eps,2022.2.5,Linux x86_64,58.27505828,609d93dea742beade6157bdc,64c7fed44a04f777bb1e18ce,64c800c02bbc19106020c9f9,right,-1,0.75,0.2429,3,-0.023417222,0.12,34,0,34,0,1,,,,,,,,,,
,,248924,001,2023-07-31_20h47.25.133,arm3_eps,2022.2.5,Linux x86_64,58.27505828,609d93dea742beade6157bdc,64c7fed44a04f777bb1e18ce,64c800c02bbc19106020c9f9,up,-1,0.75,0.2429,2,0,0.788,35,0,35,0,1,,,,,,,,,,
,,248924,001,2023-07-31_20h47.25.133,arm3_eps,2022.2.5,Linux x86_64,58.27505828,609d93dea742beade6157bdc,64c7fed44a04f777bb1e18ce,64c800c02bbc19106020c9f9,right,-1,0.75,0.2429,2,0.006658644,0.83,36,0,36,0,1,,,,,,,,,,
,,248924,001,2023-07-31_20h47.25.133,arm3_eps,2022.2.5,Linux x86_64,58.27505828,609d93dea742beade6157bdc,64c7fed44a04f777bb1e18ce,64c800c02bbc19106020c9f9,right,-1,0.75,0.2429,2,-0.01050827,0.193,37,0,37,0,1,,,,,,,,,,
,,248924,001,2023-07-31_20h47.25.133,arm3_eps,2022.2.5,Linux x86_64,58.27505828,609d93dea742beade6157bdc,64c7fed44a04f777bb1e18ce,64c800c02bbc19106020c9f9,down,-1,0.75,0.2429,2,0,0.762,38,0,38,0,1,,,,,,,,,,
,,248924,001,2023-07-31_20h47.25.133,arm3_eps,2022.2.5,Linux x86_64,58.27505828,609d93dea742beade6157bdc,64c7fed44a04f777bb1e18ce,64c800c02bbc19106020c9f9,right,-1,0.75,0.2429,2,-0.020004987,0.964,39,0,39,0,1,,,,,,,,,,
,,248924,001,2023-07-31_20h47.25.133,arm3_eps,2022.2.5,Linux x86_64,58.27505828,609d93dea742beade6157bdc,64c7fed44a04f777bb1e18ce,64c800c02bbc19106020c9f9,right,-1,0.75,0.2429,2,-0.018032359,0.194,40,0,40,0,1,,,,,,,,,,
,,248924,001,2023-07-31_20h47.25.133,arm3_eps,2022.2.5,Linux x86_64,58.27505828,609d93dea742beade6157bdc,64c7fed44a04f777bb1e18ce,64c800c02bbc19106020c9f9,up,-1,0.75,0.2429,2,0,0.569,41,0,41,0,1,,,,,,,,,,
,,248924,001,2023-07-31_20h47.25.133,arm3_eps,2022.2.5,Linux x86_64,58.27505828,609d93dea742beade6157bdc,64c7fed44a04f777bb1e18ce,64c800c02bbc19106020c9f9,right,-1,0.75,0.2429,2,-0.023232485,1.038,42,0,42,0,1,,,,,,,,,,
,,248924,001,2023-07-31_20h47.25.133,arm3_eps,2022.2.5,Linux x86_64,58.27505828,609d93dea742beade6157bdc,64c7fed44a04f777bb1e18ce,64c800c02bbc19106020c9f9,right,-1,0.75,0.2429,2,-0.041347329,0.2,43,0,43,0,1,,,,,,,,,,
,,248924,001,2023-07-31_20h47.25.133,arm3_eps,2022.2.5,Linux x86_64,58.27505828,609d93dea742beade6157bdc,64c7fed44a04f777bb1e18ce,64c800c02bbc19106020c9f9,up,-1,0.75,0.2429,1,0,0.436,44,0,44,0,1,,,,,,,,,,
,,248924,001,2023-07-31_20h47.25.133,arm3_eps,2022.2.5,Linux x86_64,58.27505828,609d93dea742beade6157bdc,64c7fed44a04f777bb1e18ce,64c800c02bbc19106020c9f9,down,1,0.75,0.2429,2,0,1.577,45,0,45,0,1,,,,,,,,,,
,,248924,001,2023-07-31_20h47.25.133,arm3_eps,2022.2.5,Linux x86_64,58.27505828,609d93dea742beade6157bdc,64c7fed44a04f777bb1e18ce,64c800c02bbc19106020c9f9,down,1,0.75,0.2429,1,0,2.057,46,0,46,0,1,,,,,,,,,,
,,248924,001,2023-07-31_20h47.25.133,arm3_eps,2022.2.5,Linux x86_64,58.27505828,609d93dea742beade6157bdc,64c7fed44a04f777bb1e18ce,64c800c02bbc19106020c9f9,up,1,0.75,0.2429,1,0,1.061,47,0,47,0,1,,,,,,,,,,
,,248924,001,2023-07-31_20h47.25.133,arm3_eps,2022.2.5,Linux x86_64,58.27505828,609d93dea742beade6157bdc,64c7fed44a04f777bb1e18ce,64c800c02bbc19106020c9f9,up,1,0.75,0.2429,1,0,1.515,48,0,48,0,1,,,,,,,,,,
,,248924,001,2023-07-31_20h47.25.133,arm3_eps,2022.2.5,Linux x86_64,58.27505828,609d93dea742beade6157bdc,64c7fed44a04f777bb1e18ce,64c800c02bbc19106020c9f9,down,1,0.75,0.2429,1,0,1.035,49,0,49,0,1,,,,,,,,,,
space,19.52,248924,001,2023-07-31_20h47.25.133,arm3_eps,2022.2.5,Linux x86_64,58.27505828,609d93dea742beade6157bdc,64c7fed44a04f777bb1e18ce,64c800c02bbc19106020c9f9,,,,,,,,,,,,,,,,,,,,,,
space,8.136,248924,001,2023-07-31_20h47.25.133,arm3_eps,2022.2.5,Linux x86_64,58.27505828,609d93dea742beade6157bdc,64c7fed44a04f777bb1e18ce,64c800c02bbc19106020c9f9,,,,,,,,,,,,,,,,,,,,,,
space,1.359,248924,001,2023-07-31_20h47.25.133,arm3_eps,2022.2.5,Linux x86_64,58.27505828,609d93dea742beade6157bdc,64c7fed44a04f777bb1e18ce,64c800c02bbc19106020c9f9,,,,,,,,,,,,,,,,,,,,,,
,,248924,001,2023-07-31_20h47.25.133,arm3_eps,2022.2.5,Linux x86_64,58.27505828,609d93dea742beade6157bdc,64c7fed44a04f777bb1e18ce,64c800c02bbc19106020c9f9,up,1,0.75,0.05,1,0,2.434,0,0,0,0,1,,,,,,,,,,
,,248924,001,2023-07-31_20h47.25.133,arm3_eps,2022.2.5,Linux x86_64,58.27505828,609d93dea742beade6157bdc,64c7fed44a04f777bb1e18ce,64c800c02bbc19106020c9f9,down,1,0.75,0.05,0,0,2.398,1,0,1,0,1,,,,,,,,,,
,,248924,001,2023-07-31_20h47.25.133,arm3_eps,2022.2.5,Linux x86_64,58.27505828,609d93dea742beade6157bdc,64c7fed44a04f777bb1e18ce,64c800c02bbc19106020c9f9,down,1,0.75,0.05,-1,0,1.656,2,0,2,0,1,,,,,,,,,,
,,248924,001,2023-07-31_20h47.25.133,arm3_eps,2022.2.5,Linux x86_64,58.27505828,609d93dea742beade6157bdc,64c7fed44a04f777bb1e18ce,64c800c02bbc19106020c9f9,up,1,0.75,0.05,0,0,1.002,3,0,3,0,1,,,,,,,,,,
,,248924,001,2023-07-31_20h47.25.133,arm3_eps,2022.2.5,Linux x86_64,58.27505828,609d93dea742beade6157bdc,64c7fed44a04f777bb1e18ce,64c800c02bbc19106020c9f9,up,1,0.75,0.05,1,0,2.032,4,0,4,0,1,,,,,,,,,,
,,248924,001,2023-07-31_20h47.25.133,arm3_eps,2022.2.5,Linux x86_64,58.27505828,609d93dea742beade6157bdc,64c7fed44a04f777bb1e18ce,64c800c02bbc19106020c9f9,up,-1,0.75,0.05,2,0,2.236,5,0,5,0,1,,,,,,,,,,
,,248924,001,2023-07-31_20h47.25.133,arm3_eps,2022.2.5,Linux x86_64,58.27505828,609d93dea742beade6157bdc,64c7fed44a04f777bb1e18ce,64c800c02bbc19106020c9f9,down,-1,0.75,0.05,3,0,2.483,6,0,6,0,1,,,,,,,,,,
,,248924,001,2023-07-31_20h47.25.133,arm3_eps,2022.2.5,Linux x86_64,58.27505828,609d93dea742beade6157bdc,64c7fed44a04f777bb1e18ce,64c800c02bbc19106020c9f9,up,-1,0.75,0.05,3,0,3.999,7,0,7,0,1,,,,,,,,,,
,,248924,001,2023-07-31_20h47.25.133,arm3_eps,2022.2.5,Linux x86_64,58.27505828,609d93dea742beade6157bdc,64c7fed44a04f777bb1e18ce,64c800c02bbc19106020c9f9,down,-1,0.75,0.05,3,0,2.315,8,0,8,0,1,,,,,,,,,,
,,248924,001,2023-07-31_20h47.25.133,arm3_eps,2022.2.5,Linux x86_64,58.27505828,609d93dea742beade6157bdc,64c7fed44a04f777bb1e18ce,64c800c02bbc19106020c9f9,up,-1,0.75,0.05,2,0,1.704,9,0,9,0,1,,,,,,,,,,
,,248924,001,2023-07-31_20h47.25.133,arm3_eps,2022.2.5,Linux x86_64,58.27505828,609d93dea742beade6157bdc,64c7fed44a04f777bb1e18ce,64c800c02bbc19106020c9f9,down,-1,0.75,0.05,3,0,1.367,10,0,10,0,1,,,,,,,,,,
,,248924,001,2023-07-31_20h47.25.133,arm3_eps,2022.2.5,Linux x86_64,58.27505828,609d93dea742beade6157bdc,64c7fed44a04f777bb1e18ce,64c800c02bbc19106020c9f9,down,-1,0.75,0.05,4,0,1.278,11,0,11,0,1,,,,,,,,,,
,,248924,001,2023-07-31_20h47.25.133,arm3_eps,2022.2.5,Linux x86_64,58.27505828,609d93dea742beade6157bdc,64c7fed44a04f777bb1e18ce,64c800c02bbc19106020c9f9,down,-1,0.75,0.05,5,0,1.56,12,0,12,0,1,,,,,,,,,,
,,248924,001,2023-07-31_20h47.25.133,arm3_eps,2022.2.5,Linux x86_64,58.27505828,609d93dea742beade6157bdc,64c7fed44a04f777bb1e18ce,64c800c02bbc19106020c9f9,down,-1,0.75,0.05,5,0,1.449,13,0,13,0,1,,,,,,,,,,
,,248924,001,2023-07-31_20h47.25.133,arm3_eps,2022.2.5,Linux x86_64,58.27505828,609d93dea742beade6157bdc,64c7fed44a04f777bb1e18ce,64c800c02bbc19106020c9f9,down,-1,0.75,0.05,5,0,1.421,14,0,14,0,1,,,,,,,,,,
,,248924,001,2023-07-31_20h47.25.133,arm3_eps,2022.2.5,Linux x86_64,58.27505828,609d93dea742beade6157bdc,64c7fed44a04f777bb1e18ce,64c800c02bbc19106020c9f9,up,-1,0.75,0.05,4,0,1.17,15,0,15,0,1,,,,,,,,,,
,,248924,001,2023-07-31_20h47.25.133,arm3_eps,2022.2.5,Linux x86_64,58.27505828,609d93dea742beade6157bdc,64c7fed44a04f777bb1e18ce,64c800c02bbc19106020c9f9,down,1,0.75,0.05,5,0,0.951,16,0,16,0,1,,,,,,,,,,
,,248924,001,2023-07-31_20h47.25.133,arm3_eps,2022.2.5,Linux x86_64,58.27505828,609d93dea742beade6157bdc,64c7fed44a04f777bb1e18ce,64c800c02bbc19106020c9f9,up,1,0.75,0.05,5,0,1.582,17,0,17,0,1,,,,,,,,,,
,,248924,001,2023-07-31_20h47.25.133,arm3_eps,2022.2.5,Linux x86_64,58.27505828,609d93dea742beade6157bdc,64c7fed44a04f777bb1e18ce,64c800c02bbc19106020c9f9,right,1,0.75,0.05,5,0.012804919,1.1,18,0,18,0,1,,,,,,,,,,
,,248924,001,2023-07-31_20h47.25.133,arm3_eps,2022.2.5,Linux x86_64,58.27505828,609d93dea742beade6157bdc,64c7fed44a04f777bb1e18ce,64c800c02bbc19106020c9f9,up,1,0.75,0.05,6,0,0.753,19,0,19,0,1,,,,,,,,,,
,,248924,001,2023-07-31_20h47.25.133,arm3_eps,2022.2.5,Linux x86_64,58.27505828,609d93dea742beade6157bdc,64c7fed44a04f777bb1e18ce,64c800c02bbc19106020c9f9,right,1,0.75,0.05,6,0.01213592,1.102,20,0,20,0,1,,,,,,,,,,
,,248924,001,2023-07-31_20h47.25.133,arm3_eps,2022.2.5,Linux x86_64,58.27505828,609d93dea742beade6157bdc,64c7fed44a04f777bb1e18ce,64c800c02bbc19106020c9f9,up,1,0.75,0.05,7,0,0.551,21,0,21,0,1,,,,,,,,,,
,,248924,001,2023-07-31_20h47.25.133,arm3_eps,2022.2.5,Linux x86_64,58.27505828,609d93dea742beade6157bdc,64c7fed44a04f777bb1e18ce,64c800c02bbc19106020c9f9,down,1,0.75,0.05,6,0,3.107,22,0,22,0,1,,,,,,,,,,
,,248924,001,2023-07-31_20h47.25.133,arm3_eps,2022.2.5,Linux x86_64,58.27505828,609d93dea742beade6157bdc,64c7fed44a04f777bb1e18ce,64c800c02bbc19106020c9f9,down,1,0.75,0.05,6,0,1.566,23,0,23,0,1,,,,,,,,,,
,,248924,001,2023-07-31_20h47.25.133,arm3_eps,2022.2.5,Linux x86_64,58.27505828,609d93dea742beade6157bdc,64c7fed44a04f777bb1e18ce,64c800c02bbc19106020c9f9,down,1,0.75,0.05,6,0,1.581,24,0,24,0,1,,,,,,,,,,
,,248924,001,2023-07-31_20h47.25.133,arm3_eps,2022.2.5,Linux x86_64,58.27505828,609d93dea742beade6157bdc,64c7fed44a04f777bb1e18ce,64c800c02bbc19106020c9f9,up,1,0.75,0.05,7,0,1.305,25,0,25,0,1,,,,,,,,,,
,,248924,001,2023-07-31_20h47.25.133,arm3_eps,2022.2.5,Linux x86_64,58.27505828,609d93dea742beade6157bdc,64c7fed44a04f777bb1e18ce,64c800c02bbc19106020c9f9,up,1,0.75,0.05,8,0,1.186,26,0,26,0,1,,,,,,,,,,
,,248924,001,2023-07-31_20h47.25.133,arm3_eps,2022.2.5,Linux x86_64,58.27505828,609d93dea742beade6157bdc,64c7fed44a04f777bb1e18ce,64c800c02bbc19106020c9f9,down,1,0.75,0.05,7,0,1.442,27,0,27,0,1,,,,,,,,,,
,,248924,001,2023-07-31_20h47.25.133,arm3_eps,2022.2.5,Linux x86_64,58.27505828,609d93dea742beade6157bdc,64c7fed44a04f777bb1e18ce,64c800c02bbc19106020c9f9,up,-1,0.75,0.05,8,0,1.883,28,0,28,0,1,,,,,,,,,,
,,248924,001,2023-07-31_20h47.25.133,arm3_eps,2022.2.5,Linux x86_64,58.27505828,609d93dea742beade6157bdc,64c7fed44a04f777bb1e18ce,64c800c02bbc19106020c9f9,up,-1,0.75,0.05,7,0,1.77,29,0,29,0,1,,,,,,,,,,
,,248924,001,2023-07-31_20h47.25.133,arm3_eps,2022.2.5,Linux x86_64,58.27505828,609d93dea742beade6157bdc,64c7fed44a04f777bb1e18ce,64c800c02bbc19106020c9f9,down,-1,0.75,0.05,8,0,1.026,30,0,30,0,1,,,,,,,,,,
,,248924,001,2023-07-31_20h47.25.133,arm3_eps,2022.2.5,Linux x86_64,58.27505828,609d93dea742beade6157bdc,64c7fed44a04f777bb1e18ce,64c800c02bbc19106020c9f9,right,-1,0.75,0.05,8,-0.031605872,1.032,31,0,31,0,1,,,,,,,,,,
,,248924,001,2023-07-31_20h47.25.133,arm3_eps,2022.2.5,Linux x86_64,58.27505828,609d93dea742beade6157bdc,64c7fed44a04f777bb1e18ce,64c800c02bbc19106020c9f9,right,-1,0.75,0.05,8,-0.057602747,0.145,32,0,32,0,1,,,,,,,,,,
,,248924,001,2023-07-31_20h47.25.133,arm3_eps,2022.2.5,Linux x86_64,58.27505828,609d93dea742beade6157bdc,64c7fed44a04f777bb1e18ce,64c800c02bbc19106020c9f9,right,-1,0.75,0.05,8,-0.090686266,0.122,33,0,33,0,1,,,,,,,,,,
,,248924,001,2023-07-31_20h47.25.133,arm3_eps,2022.2.5,Linux x86_64,58.27505828,609d93dea742beade6157bdc,64c7fed44a04f777bb1e18ce,64c800c02bbc19106020c9f9,down,-1,0.75,0.05,8,0,1.637,34,0,34,0,1,,,,,,,,,,
,,248924,001,2023-07-31_20h47.25.133,arm3_eps,2022.2.5,Linux x86_64,58.27505828,609d93dea742beade6157bdc,64c7fed44a04f777bb1e18ce,64c800c02bbc19106020c9f9,right,-1,0.75,0.05,8,-0.041880691,0.813,35,0,35,0,1,,,,,,,,,,
,,248924,001,2023-07-31_20h47.25.133,arm3_eps,2022.2.5,Linux x86_64,58.27505828,609d93dea742beade6157bdc,64c7fed44a04f777bb1e18ce,64c800c02bbc19106020c9f9,down,-1,0.75,0.05,9,0,0.688,36,0,36,0,1,,,,,,,,,,
,,248924,001,2023-07-31_20h47.25.133,arm3_eps,2022.2.5,Linux x86_64,58.27505828,609d93dea742beade6157bdc,64c7fed44a04f777bb1e18ce,64c800c02bbc19106020c9f9,down,-1,0.75,0.05,10,0,1.333,37,0,37,0,1,,,,,,,,,,
,,248924,001,2023-07-31_20h47.25.133,arm3_eps,2022.2.5,Linux x86_64,58.27505828,609d93dea742beade6157bdc,64c7fed44a04f777bb1e18ce,64c800c02bbc19106020c9f9,up,-1,0.75,0.05,10,0,1.4,38,0,38,0,1,,,,,,,,,,
,,248924,001,2023-07-31_20h47.25.133,arm3_eps,2022.2.5,Linux x86_64,58.27505828,609d93dea742beade6157bdc,64c7fed44a04f777bb1e18ce,64c800c02bbc19106020c9f9,down,-1,0.75,0.05,11,0,0.992,39,0,39,0,1,,,,,,,,,,
,,248924,001,2023-07-31_20h47.25.133,arm3_eps,2022.2.5,Linux x86_64,58.27505828,609d93dea742beade6157bdc,64c7fed44a04f777bb1e18ce,64c800c02bbc19106020c9f9,down,-1,0.75,0.05,12,0,1.433,40,0,40,0,1,,,,,,,,,,
,,248924,001,2023-07-31_20h47.25.133,arm3_eps,2022.2.5,Linux x86_64,58.27505828,609d93dea742beade6157bdc,64c7fed44a04f777bb1e18ce,64c800c02bbc19106020c9f9,up,-1,0.75,0.05,12,0,1.084,41,0,41,0,1,,,,,,,,,,
,,248924,001,2023-07-31_20h47.25.133,arm3_eps,2022.2.5,Linux x86_64,58.27505828,609d93dea742beade6157bdc,64c7fed44a04f777bb1e18ce,64c800c02bbc19106020c9f9,right,-1,0.75,0.05,12,0.005820803,0.8,42,0,42,0,1,,,,,,,,,,
,,248924,001,2023-07-31_20h47.25.133,arm3_eps,2022.2.5,Linux x86_64,58.27505828,609d93dea742beade6157bdc,64c7fed44a04f777bb1e18ce,64c800c02bbc19106020c9f9,right,-1,0.75,0.05,12,-0.006956344,0.152,43,0,43,0,1,,,,,,,,,,
,,248924,001,2023-07-31_20h47.25.133,arm3_eps,2022.2.5,Linux x86_64,58.27505828,609d93dea742beade6157bdc,64c7fed44a04f777bb1e18ce,64c800c02bbc19106020c9f9,down,-1,0.75,0.05,13,0,0.717,44,0,44,0,1,,,,,,,,,,
,,248924,001,2023-07-31_20h47.25.133,arm3_eps,2022.2.5,Linux x86_64,58.27505828,609d93dea742beade6157bdc,64c7fed44a04f777bb1e18ce,64c800c02bbc19106020c9f9,right,-1,0.75,0.05,13,0.001958573,1.099,45,0,45,0,1,,,,,,,,,,
,,248924,001,2023-07-31_20h47.25.133,arm3_eps,2022.2.5,Linux x86_64,58.27505828,609d93dea742beade6157bdc,64c7fed44a04f777bb1e18ce,64c800c02bbc19106020c9f9,down,-1,0.75,0.05,14,0,0.56,46,0,46,0,1,,,,,,,,,,
,,248924,001,2023-07-31_20h47.25.133,arm3_eps,2022.2.5,Linux x86_64,58.27505828,609d93dea742beade6157bdc,64c7fed44a04f777bb1e18ce,64c800c02bbc19106020c9f9,right,-1,0.75,0.05,14,-0.030001623,0.998,47,0,47,0,1,,,,,,,,,,
,,248924,001,2023-07-31_20h47.25.133,arm3_eps,2022.2.5,Linux x86_64,58.27505828,609d93dea742beade6157bdc,64c7fed44a04f777bb1e18ce,64c800c02bbc19106020c9f9,down,-1,0.75,0.05,15,0,0.385,48,0,48,0,1,,,,,,,,,,
,,248924,001,2023-07-31_20h47.25.133,arm3_eps,2022.2.5,Linux x86_64,58.27505828,609d93dea742beade6157bdc,64c7fed44a04f777bb1e18ce,64c800c02bbc19106020c9f9,down,-1,0.75,0.05,15,0,1.07,49,0,49,0,1,,,,,,,,,,
space,8.207,248924,001,2023-07-31_20h47.25.133,arm3_eps,2022.2.5,Linux x86_64,58.27505828,609d93dea742beade6157bdc,64c7fed44a04f777bb1e18ce,64c800c02bbc19106020c9f9,,,,,,,,,,,,,,,,,,,,,,
space,1.367,248924,001,2023-07-31_20h47.25.133,arm3_eps,2022.2.5,Linux x86_64,58.27505828,609d93dea742beade6157bdc,64c7fed44a04f777bb1e18ce,64c800c02bbc19106020c9f9,,,,,,,,,,,,,,,,,,,,,,
,,248924,001,2023-07-31_20h47.25.133,arm3_eps,2022.2.5,Linux x86_64,58.27505828,609d93dea742beade6157bdc,64c7fed44a04f777bb1e18ce,64c800c02bbc19106020c9f9,down,1,0.75,0.5,0,0,2.065,0,0,0,0,1,,,,,,,,,,
,,248924,001,2023-07-31_20h47.25.133,arm3_eps,2022.2.5,Linux x86_64,58.27505828,609d93dea742beade6157bdc,64c7fed44a04f777bb1e18ce,64c800c02bbc19106020c9f9,up,-1,0.75,0.5,1,0,1.538,1,0,1,0,1,,,,,,,,,,
,,248924,001,2023-07-31_20h47.25.133,arm3_eps,2022.2.5,Linux x86_64,58.27505828,609d93dea742beade6157bdc,64c7fed44a04f777bb1e18ce,64c800c02bbc19106020c9f9,down,1,0.75,0.5,2,0,1.191,2,0,2,0,1,,,,,,,,,,
,,248924,001,2023-07-31_20h47.25.133,arm3_eps,2022.2.5,Linux x86_64,58.27505828,609d93dea742beade6157bdc,64c7fed44a04f777bb1e18ce,64c800c02bbc19106020c9f9,up,1,0.75,0.5,2,0,1.126,3,0,3,0,1,,,,,,,,,,
,,248924,001,2023-07-31_20h47.25.133,arm3_eps,2022.2.5,Linux x86_64,58.27505828,609d93dea742beade6157bdc,64c7fed44a04f777bb1e18ce,64c800c02bbc19106020c9f9,up,1,0.75,0.5,2,0,1.286,4,0,4,0,1,,,,,,,,,,
,,248924,001,2023-07-31_20h47.25.133,arm3_eps,2022.2.5,Linux x86_64,58.27505828,609d93dea742beade6157bdc,64c7fed44a04f777bb1e18ce,64c800c02bbc19106020c9f9,right,1,0.75,0.5,2,-0.032976954,0.848,5,0,5,0,1,,,,,,,,,,
,,248924,001,2023-07-31_20h47.25.133,arm3_eps,2022.2.5,Linux x86_64,58.27505828,609d93dea742beade6157bdc,64c7fed44a04f777bb1e18ce,64c800c02bbc19106020c9f9,right,1,0.75,0.5,2,-0.020455708,0.135,6,0,6,0,1,,,,,,,,,,
,,248924,001,2023-07-31_20h47.25.133,arm3_eps,2022.2.5,Linux x86_64,58.27505828,609d93dea742beade6157bdc,64c7fed44a04f777bb1e18ce,64c800c02bbc19106020c9f9,right,1,0.75,0.5,2,-0.031659225,0.141,7,0,7,0,1,,,,,,,,,,
,,248924,001,2023-07-31_20h47.25.133,arm3_eps,2022.2.5,Linux x86_64,58.27505828,609d93dea742beade6157bdc,64c7fed44a04f777bb1e18ce,64c800c02bbc19106020c9f9,right,1,0.75,0.5,2,-0.052076494,0.267,8,0,8,0,1,,,,,,,,,,
,,248924,001,2023-07-31_20h47.25.133,arm3_eps,2022.2.5,Linux x86_64,58.27505828,609d93dea742beade6157bdc,64c7fed44a04f777bb1e18ce,64c800c02bbc19106020c9f9,up,-1,0.75,0.5,2,0,0.539,9,0,9,0,1,,,,,,,,,,
,,248924,001,2023-07-31_20h47.25.133,arm3_eps,2022.2.5,Linux x86_64,58.27505828,609d93dea742beade6157bdc,64c7fed44a04f777bb1e18ce,64c800c02bbc19106020c9f9,right,-1,0.75,0.5,2,0.014125139,1.013,10,0,10,0,1,,,,,,,,,,
,,248924,001,2023-07-31_20h47.25.133,arm3_eps,2022.2.5,Linux x86_64,58.27505828,609d93dea742beade6157bdc,64c7fed44a04f777bb1e18ce,64c800c02bbc19106020c9f9,right,-1,0.75,0.5,2,-0.014703256,0.124,11,0,11,0,1,,,,,,,,,,
,,248924,001,2023-07-31_20h47.25.133,arm3_eps,2022.2.5,Linux x86_64,58.27505828,609d93dea742beade6157bdc,64c7fed44a04f777bb1e18ce,64c800c02bbc19106020c9f9,down,-1,0.75,0.5,3,0,0.518,12,0,12,0,1,,,,,,,,,,
,,248924,001,2023-07-31_20h47.25.133,arm3_eps,2022.2.5,Linux x86_64,58.27505828,609d93dea742beade6157bdc,64c7fed44a04f777bb1e18ce,64c800c02bbc19106020c9f9,right,-1,0.75,0.5,3,-0.023504188,0.833,13,0,13,0,1,,,,,,,,,,
,,248924,001,2023-07-31_20h47.25.133,arm3_eps,2022.2.5,Linux x86_64,58.27505828,609d93dea742beade6157bdc,64c7fed44a04f777bb1e18ce,64c800c02bbc19106020c9f9,right,-1,0.75,0.5,3,-0.020392245,0.127,14,0,14,0,1,,,,,,,,,,
,,248924,001,2023-07-31_20h47.25.133,arm3_eps,2022.2.5,Linux x86_64,58.27505828,609d93dea742beade6157bdc,64c7fed44a04f777bb1e18ce,64c800c02bbc19106020c9f9,right,-1,0.75,0.5,3,-0.011533569,0.12,15,0,15,0,1,,,,,,,,,,
,,248924,001,2023-07-31_20h47.25.133,arm3_eps,2022.2.5,Linux x86_64,58.27505828,609d93dea742beade6157bdc,64c7fed44a04f777bb1e18ce,64c800c02bbc19106020c9f9,right,-1,0.75,0.5,3,-0.043760527,0.118,16,0,16,0,1,,,,,,,,,,
,,248924,001,2023-07-31_20h47.25.133,arm3_eps,2022.2.5,Linux x86_64,58.27505828,609d93dea742beade6157bdc,64c7fed44a04f777bb1e18ce,64c800c02bbc19106020c9f9,right,-1,0.75,0.5,3,-0.055508263,0.126,17,0,17,0,1,,,,,,,,,,
,,248924,001,2023-07-31_20h47.25.133,arm3_eps,2022.2.5,Linux x86_64,58.27505828,609d93dea742beade6157bdc,64c7fed44a04f777bb1e18ce,64c800c02bbc19106020c9f9,right,-1,0.75,0.5,3,-0.08394138,0.152,18,0,18,0,1,,,,,,,,,,
,,248924,001,2023-07-31_20h47.25.133,arm3_eps,2022.2.5,Linux x86_64,58.27505828,609d93dea742beade6157bdc,64c7fed44a04f777bb1e18ce,64c800c02bbc19106020c9f9,down,-1,0.75,0.5,4,0,0.93,19,0,19,0,1,,,,,,,,,,
,,248924,001,2023-07-31_20h47.25.133,arm3_eps,2022.2.5,Linux x86_64,58.27505828,609d93dea742beade6157bdc,64c7fed44a04f777bb1e18ce,64c800c02bbc19106020c9f9,right,-1,0.75,0.5,4,-0.024390331,0.697,20,0,20,0,1,,,,,,,,,,
,,248924,001,2023-07-31_20h47.25.133,arm3_eps,2022.2.5,Linux x86_64,58.27505828,609d93dea742beade6157bdc,64c7fed44a04f777bb1e18ce,64c800c02bbc19106020c9f9,right,-1,0.75,0.5,4,-0.051972241,0.127,21,0,21,0,1,,,,,,,,,,
,,248924,001,2023-07-31_20h47.25.133,arm3_eps,2022.2.5,Linux x86_64,58.27505828,609d93dea742beade6157bdc,64c7fed44a04f777bb1e18ce,64c800c02bbc19106020c9f9,right,-1,0.75,0.5,4,-0.048255999,0.136,22,0,22,0,1,,,,,,,,,,
,,248924,001,2023-07-31_20h47.25.133,arm3_eps,2022.2.5,Linux x86_64,58.27505828,609d93dea742beade6157bdc,64c7fed44a04f777bb1e18ce,64c800c02bbc19106020c9f9,right,-1,0.75,0.5,4,-0.072296241,0.135,23,0,23,0,1,,,,,,,,,,
,,248924,001,2023-07-31_20h47.25.133,arm3_eps,2022.2.5,Linux x86_64,58.27505828,609d93dea742beade6157bdc,64c7fed44a04f777bb1e18ce,64c800c02bbc19106020c9f9,right,-1,0.75,0.5,4,-0.047531272,0.124,24,0,24,0,1,,,,,,,,,,
,,248924,001,2023-07-31_20h47.25.133,arm3_eps,2022.2.5,Linux x86_64,58.27505828,609d93dea742beade6157bdc,64c7fed44a04f777bb1e18ce,64c800c02bbc19106020c9f9,up,1,0.75,0.5,3,0,0.775,25,0,25,0,1,,,,,,,,,,
,,248924,001,2023-07-31_20h47.25.133,arm3_eps,2022.2.5,Linux x86_64,58.27505828,609d93dea742beade6157bdc,64c7fed44a04f777bb1e18ce,64c800c02bbc19106020c9f9,right,1,0.75,0.5,3,-0.006646181,0.933,26,0,26,0,1,,,,,,,,,,
,,248924,001,2023-07-31_20h47.25.133,arm3_eps,2022.2.5,Linux x86_64,58.27505828,609d93dea742beade6157bdc,64c7fed44a04f777bb1e18ce,64c800c02bbc19106020c9f9,right,1,0.75,0.5,3,-0.008834865,0.144,27,0,27,0,1,,,,,,,,,,
,,248924,001,2023-07-31_20h47.25.133,arm3_eps,2022.2.5,Linux x86_64,58.27505828,609d93dea742beade6157bdc,64c7fed44a04f777bb1e18ce,64c800c02bbc19106020c9f9,right,1,0.75,0.5,3,-0.039773109,0.139,28,0,28,0,1,,,,,,,,,,
,,248924,001,2023-07-31_20h47.25.133,arm3_eps,2022.2.5,Linux x86_64,58.27505828,609d93dea742beade6157bdc,64c7fed44a04f777bb1e18ce,64c800c02bbc19106020c9f9,right,1,0.75,0.5,3,-0.053009616,0.134,29,0,29,0,1,,,,,,,,,,
,,248924,001,2023-07-31_20h47.25.133,arm3_eps,2022.2.5,Linux x86_64,58.27505828,609d93dea742beade6157bdc,64c7fed44a04f777bb1e18ce,64c800c02bbc19106020c9f9,right,1,0.75,0.5,3,-0.037131113,0.126,30,0,30,0,1,,,,,,,,,,
,,248924,001,2023-07-31_20h47.25.133,arm3_eps,2022.2.5,Linux x86_64,58.27505828,609d93dea742beade6157bdc,64c7fed44a04f777bb1e18ce,64c800c02bbc19106020c9f9,right,1,0.75,0.5,3,-0.044272895,0.186,31,0,31,0,1,,,,,,,,,,
,,248924,001,2023-07-31_20h47.25.133,arm3_eps,2022.2.5,Linux x86_64,58.27505828,609d93dea742beade6157bdc,64c7fed44a04f777bb1e18ce,64c800c02bbc19106020c9f9,right,1,0.75,0.5,3,-0.050312196,0.209,32,0,32,0,1,,,,,,,,,,
,,248924,001,2023-07-31_20h47.25.133,arm3_eps,2022.2.5,Linux x86_64,58.27505828,609d93dea742beade6157bdc,64c7fed44a04f777bb1e18ce,64c800c02bbc19106020c9f9,right,1,0.75,0.5,3,-0.014677935,0.152,33,0,33,0,1,,,,,,,,,,
,,248924,001,2023-07-31_20h47.25.133,arm3_eps,2022.2.5,Linux x86_64,58.27505828,609d93dea742beade6157bdc,64c7fed44a04f777bb1e18ce,64c800c02bbc19106020c9f9,right,1,0.75,0.5,3,0.001530654,0.146,34,0,34,0,1,,,,,,,,,,
,,248924,001,2023-07-31_20h47.25.133,arm3_eps,2022.2.5,Linux x86_64,58.27505828,609d93dea742beade6157bdc,64c7fed44a04f777bb1e18ce,64c800c02bbc19106020c9f9,right,1,0.75,0.5,3,-0.008975816,0.141,35,0,35,0,1,,,,,,,,,,
,,248924,001,2023-07-31_20h47.25.133,arm3_eps,2022.2.5,Linux x86_64,58.27505828,609d93dea742beade6157bdc,64c7fed44a04f777bb1e18ce,64c800c02bbc19106020c9f9,right,1,0.75,0.5,3,0.024486888,0.152,36,0,36,0,1,,,,,,,,,,
,,248924,001,2023-07-31_20h47.25.133,arm3_eps,2022.2.5,Linux x86_64,58.27505828,609d93dea742beade6157bdc,64c7fed44a04f777bb1e18ce,64c800c02bbc19106020c9f9,right,1,0.75,0.5,3,0.024216081,0.175,37,0,37,0,1,,,,,,,,,,
,,248924,001,2023-07-31_20h47.25.133,arm3_eps,2022.2.5,Linux x86_64,58.27505828,609d93dea742beade6157bdc,64c7fed44a04f777bb1e18ce,64c800c02bbc19106020c9f9,down,1,0.75,0.5,3,0,0.552,38,0,38,0,1,,,,,,,,,,
,,248924,001,2023-07-31_20h47.25.133,arm3_eps,2022.2.5,Linux x86_64,58.27505828,609d93dea742beade6157bdc,64c7fed44a04f777bb1e18ce,64c800c02bbc19106020c9f9,right,1,0.75,0.5,3,-0.011570575,0.846,39,0,39,0,1,,,,,,,,,,
,,248924,001,2023-07-31_20h47.25.133,arm3_eps,2022.2.5,Linux x86_64,58.27505828,609d93dea742beade6157bdc,64c7fed44a04f777bb1e18ce,64c800c02bbc19106020c9f9,right,1,0.75,0.5,3,-0.010953757,0.156,40,0,40,0,1,,,,,,,,,,
,,248924,001,2023-07-31_20h47.25.133,arm3_eps,2022.2.5,Linux x86_64,58.27505828,609d93dea742beade6157bdc,64c7fed44a04f777bb1e18ce,64c800c02bbc19106020c9f9,right,1,0.75,0.5,3,0.003197792,0.135,41,0,41,0,1,,,,,,,,,,
,,248924,001,2023-07-31_20h47.25.133,arm3_eps,2022.2.5,Linux x86_64,58.27505828,609d93dea742beade6157bdc,64c7fed44a04f777bb1e18ce,64c800c02bbc19106020c9f9,right,1,0.75,0.5,3,0.013188419,0.145,42,0,42,0,1,,,,,,,,,,
,,248924,001,2023-07-31_20h47.25.133,arm3_eps,2022.2.5,Linux x86_64,58.27505828,609d93dea742beade6157bdc,64c7fed44a04f777bb1e18ce,64c800c02bbc19106020c9f9,right,1,0.75,0.5,3,0.026930999,0.139,43,0,43,0,1,,,,,,,,,,
,,248924,001,2023-07-31_20h47.25.133,arm3_eps,2022.2.5,Linux x86_64,58.27505828,609d93dea742beade6157bdc,64c7fed44a04f777bb1e18ce,64c800c02bbc19106020c9f9,down,1,0.75,0.5,3,0,0.535,44,0,44,0,1,,,,,,,,,,
,,248924,001,2023-07-31_20h47.25.133,arm3_eps,2022.2.5,Linux x86_64,58.27505828,609d93dea742beade6157bdc,64c7fed44a04f777bb1e18ce,64c800c02bbc19106020c9f9,right,1,0.75,0.5,3,0.025169019,0.825,45,0,45,0,1,,,,,,,,,,
,,248924,001,2023-07-31_20h47.25.133,arm3_eps,2022.2.5,Linux x86_64,58.27505828,609d93dea742beade6157bdc,64c7fed44a04f777bb1e18ce,64c800c02bbc19106020c9f9,right,1,0.75,0.5,3,0.033853808,0.172,46,0,46,0,1,,,,,,,,,,
,,248924,001,2023-07-31_20h47.25.133,arm3_eps,2022.2.5,Linux x86_64,58.27505828,609d93dea742beade6157bdc,64c7fed44a04f777bb1e18ce,64c800c02bbc19106020c9f9,right,1,0.75,0.5,3,0.068123921,0.134,47,0,47,0,1,,,,,,,,,,
,,248924,001,2023-07-31_20h47.25.133,arm3_eps,2022.2.5,Linux x86_64,58.27505828,609d93dea742beade6157bdc,64c7fed44a04f777bb1e18ce,64c800c02bbc19106020c9f9,up,-1,0.75,0.5,4,0,0.418,48,0,48,0,1,,,,,,,,,,
,,248924,001,2023-07-31_20h47.25.133,arm3_eps,2022.2.5,Linux x86_64,58.27505828,609d93dea742beade6157bdc,64c7fed44a04f777bb1e18ce,64c800c02bbc19106020c9f9,right,-1,0.75,0.5,4,-0.012560954,0.891,49,0,49,0,1,,,,,,,,,,
space,2.022,248924,001,2023-07-31_20h47.25.133,arm3_eps,2022.2.5,Linux x86_64,58.27505828,609d93dea742beade6157bdc,64c7fed44a04f777bb1e18ce,64c800c02bbc19106020c9f9,,,,,,,,,,,,,,,,,,,,,,
space,2.21,248924,001,2023-07-31_20h47.25.133,arm3_eps,2022.2.5,Linux x86_64,58.27505828,609d93dea742beade6157bdc,64c7fed44a04f777bb1e18ce,64c800c02bbc19106020c9f9,down,-1,0.75,0.1143,1,0,1.574,,,,,,0,0,0,0,1,,,,,
,,248924,001,2023-07-31_20h47.25.133,arm3_eps,2022.2.5,Linux x86_64,58.27505828,609d93dea742beade6157bdc,64c7fed44a04f777bb1e18ce,64c800c02bbc19106020c9f9,down,-1,0.75,0.1143,2,0,1.445,,,,,,1,0,1,0,1,,,,,
,,248924,001,2023-07-31_20h47.25.133,arm3_eps,2022.2.5,Linux x86_64,58.27505828,609d93dea742beade6157bdc,64c7fed44a04f777bb1e18ce,64c800c02bbc19106020c9f9,up,-1,0.75,0.1143,1,0,1.259,,,,,,2,0,2,0,1,,,,,
,,248924,001,2023-07-31_20h47.25.133,arm3_eps,2022.2.5,Linux x86_64,58.27505828,609d93dea742beade6157bdc,64c7fed44a04f777bb1e18ce,64c800c02bbc19106020c9f9,right,-1,0.75,0.1143,1,-0.045853936,0.855,,,,,,3,0,3,0,1,,,,,
,,248924,001,2023-07-31_20h47.25.133,arm3_eps,2022.2.5,Linux x86_64,58.27505828,609d93dea742beade6157bdc,64c7fed44a04f777bb1e18ce,64c800c02bbc19106020c9f9,right,-1,0.75,0.1143,1,-0.06632173,0.151,,,,,,4,0,4,0,1,,,,,
,,248924,001,2023-07-31_20h47.25.133,arm3_eps,2022.2.5,Linux x86_64,58.27505828,609d93dea742beade6157bdc,64c7fed44a04f777bb1e18ce,64c800c02bbc19106020c9f9,down,-1,0.75,0.1143,2,0,0.736,,,,,,5,0,5,0,1,,,,,
,,248924,001,2023-07-31_20h47.25.133,arm3_eps,2022.2.5,Linux x86_64,58.27505828,609d93dea742beade6157bdc,64c7fed44a04f777bb1e18ce,64c800c02bbc19106020c9f9,right,-1,0.75,0.1143,2,-0.001392834,1.533,,,,,,6,0,6,0,1,,,,,
,,248924,001,2023-07-31_20h47.25.133,arm3_eps,2022.2.5,Linux x86_64,58.27505828,609d93dea742beade6157bdc,64c7fed44a04f777bb1e18ce,64c800c02bbc19106020c9f9,up,-1,0.75,0.1143,1,0,0.773,,,,,,7,0,7,0,1,,,,,
,,248924,001,2023-07-31_20h47.25.133,arm3_eps,2022.2.5,Linux x86_64,58.27505828,609d93dea742beade6157bdc,64c7fed44a04f777bb1e18ce,64c800c02bbc19106020c9f9,right,-1,0.75,0.1143,1,-0.020727999,0.834,,,,,,8,0,8,0,1,,,,,
,,248924,001,2023-07-31_20h47.25.133,arm3_eps,2022.2.5,Linux x86_64,58.27505828,609d93dea742beade6157bdc,64c7fed44a04f777bb1e18ce,64c800c02bbc19106020c9f9,right,-1,0.75,0.1143,1,-0.011453085,0.162,,,,,,9,0,9,0,1,,,,,
,,248924,001,2023-07-31_20h47.25.133,arm3_eps,2022.2.5,Linux x86_64,58.27505828,609d93dea742beade6157bdc,64c7fed44a04f777bb1e18ce,64c800c02bbc19106020c9f9,down,-1,0.75,0.1143,1,0,0.507,,,,,,10,0,10,0,1,,,,,
,,248924,001,2023-07-31_20h47.25.133,arm3_eps,2022.2.5,Linux x86_64,58.27505828,609d93dea742beade6157bdc,64c7fed44a04f777bb1e18ce,64c800c02bbc19106020c9f9,right,-1,0.75,0.1143,1,0.006186783,1.057,,,,,,11,0,11,0,1,,,,,
,,248924,001,2023-07-31_20h47.25.133,arm3_eps,2022.2.5,Linux x86_64,58.27505828,609d93dea742beade6157bdc,64c7fed44a04f777bb1e18ce,64c800c02bbc19106020c9f9,right,-1,0.75,0.1143,1,-0.038864531,0.587,,,,,,12,0,12,0,1,,,,,
,,248924,001,2023-07-31_20h47.25.133,arm3_eps,2022.2.5,Linux x86_64,58.27505828,609d93dea742beade6157bdc,64c7fed44a04f777bb1e18ce,64c800c02bbc19106020c9f9,up,-1,0.75,0.1143,1,0,1.779,,,,,,13,0,13,0,1,,,,,
,,248924,001,2023-07-31_20h47.25.133,arm3_eps,2022.2.5,Linux x86_64,58.27505828,609d93dea742beade6157bdc,64c7fed44a04f777bb1e18ce,64c800c02bbc19106020c9f9,right,-1,0.75,0.1143,1,0.022125157,0.933,,,,,,14,0,14,0,1,,,,,
,,248924,001,2023-07-31_20h47.25.133,arm3_eps,2022.2.5,Linux x86_64,58.27505828,609d93dea742beade6157bdc,64c7fed44a04f777bb1e18ce,64c800c02bbc19106020c9f9,right,-1,0.75,0.1143,1,0.015434254,0.152,,,,,,15,0,15,0,1,,,,,
,,248924,001,2023-07-31_20h47.25.133,arm3_eps,2022.2.5,Linux x86_64,58.27505828,609d93dea742beade6157bdc,64c7fed44a04f777bb1e18ce,64c800c02bbc19106020c9f9,down,-1,0.75,0.1143,2,0,0.989,,,,,,16,0,16,0,1,,,,,
,,248924,001,2023-07-31_20h47.25.133,arm3_eps,2022.2.5,Linux x86_64,58.27505828,609d93dea742beade6157bdc,64c7fed44a04f777bb1e18ce,64c800c02bbc19106020c9f9,right,-1,0.75,0.1143,2,0.012641746,1.136,,,,,,17,0,17,0,1,,,,,
,,248924,001,2023-07-31_20h47.25.133,arm3_eps,2022.2.5,Linux x86_64,58.27505828,609d93dea742beade6157bdc,64c7fed44a04f777bb1e18ce,64c800c02bbc19106020c9f9,down,1,0.75,0.1143,2,0,0.773,,,,,,18,0,18,0,1,,,,,
,,248924,001,2023-07-31_20h47.25.133,arm3_eps,2022.2.5,Linux x86_64,58.27505828,609d93dea742beade6157bdc,64c7fed44a04f777bb1e18ce,64c800c02bbc19106020c9f9,right,1,0.75,0.1143,2,0.010856821,1.332,,,,,,19,0,19,0,1,,,,,
,,248924,001,2023-07-31_20h47.25.133,arm3_eps,2022.2.5,Linux x86_64,58.27505828,609d93dea742beade6157bdc,64c7fed44a04f777bb1e18ce,64c800c02bbc19106020c9f9,right,1,0.75,0.1143,2,-0.005702664,0.157,,,,,,20,0,20,0,1,,,,,
,,248924,001,2023-07-31_20h47.25.133,arm3_eps,2022.2.5,Linux x86_64,58.27505828,609d93dea742beade6157bdc,64c7fed44a04f777bb1e18ce,64c800c02bbc19106020c9f9,right,1,0.75,0.1143,2,-0.002521213,0.119,,,,,,21,0,21,0,1,,,,,
,,248924,001,2023-07-31_20h47.25.133,arm3_eps,2022.2.5,Linux x86_64,58.27505828,609d93dea742beade6157bdc,64c7fed44a04f777bb1e18ce,64c800c02bbc19106020c9f9,down,1,0.75,0.1143,1,0,0.934,,,,,,22,0,22,0,1,,,,,
,,248924,001,2023-07-31_20h47.25.133,arm3_eps,2022.2.5,Linux x86_64,58.27505828,609d93dea742beade6157bdc,64c7fed44a04f777bb1e18ce,64c800c02bbc19106020c9f9,right,1,0.75,0.1143,1,-0.007240048,0.887,,,,,,23,0,23,0,1,,,,,
,,248924,001,2023-07-31_20h47.25.133,arm3_eps,2022.2.5,Linux x86_64,58.27505828,609d93dea742beade6157bdc,64c7fed44a04f777bb1e18ce,64c800c02bbc19106020c9f9,right,1,0.75,0.1143,1,-0.010377094,0.134,,,,,,24,0,24,0,1,,,,,
,,248924,001,2023-07-31_20h47.25.133,arm3_eps,2022.2.5,Linux x86_64,58.27505828,609d93dea742beade6157bdc,64c7fed44a04f777bb1e18ce,64c800c02bbc19106020c9f9,up,-1,0.75,0.1143,1,0,0.501,,,,,,25,0,25,0,1,,,,,
,,248924,001,2023-07-31_20h47.25.133,arm3_eps,2022.2.5,Linux x86_64,58.27505828,609d93dea742beade6157bdc,64c7fed44a04f777bb1e18ce,64c800c02bbc19106020c9f9,right,-1,0.75,0.1143,1,0.005916416,0.841,,,,,,26,0,26,0,1,,,,,
,,248924,001,2023-07-31_20h47.25.133,arm3_eps,2022.2.5,Linux x86_64,58.27505828,609d93dea742beade6157bdc,64c7fed44a04f777bb1e18ce,64c800c02bbc19106020c9f9,right,-1,0.75,0.1143,1,-0.016364326,0.136,,,,,,27,0,27,0,1,,,,,
,,248924,001,2023-07-31_20h47.25.133,arm3_eps,2022.2.5,Linux x86_64,58.27505828,609d93dea742beade6157bdc,64c7fed44a04f777bb1e18ce,64c800c02bbc19106020c9f9,up,1,0.75,0.1143,0,0,0.69,,,,,,28,0,28,0,1,,,,,
,,248924,001,2023-07-31_20h47.25.133,arm3_eps,2022.2.5,Linux x86_64,58.27505828,609d93dea742beade6157bdc,64c7fed44a04f777bb1e18ce,64c800c02bbc19106020c9f9,right,1,0.75,0.1143,0,0.000158277,0.771,,,,,,29,0,29,0,1,,,,,
,,248924,001,2023-07-31_20h47.25.133,arm3_eps,2022.2.5,Linux x86_64,58.27505828,609d93dea742beade6157bdc,64c7fed44a04f777bb1e18ce,64c800c02bbc19106020c9f9,right,1,0.75,0.1143,0,0.012233441,0.167,,,,,,30,0,30,0,1,,,,,
,,248924,001,2023-07-31_20h47.25.133,arm3_eps,2022.2.5,Linux x86_64,58.27505828,609d93dea742beade6157bdc,64c7fed44a04f777bb1e18ce,64c800c02bbc19106020c9f9,down,1,0.75,0.1143,-1,0,0.543,,,,,,31,0,31,0,1,,,,,
,,248924,001,2023-07-31_20h47.25.133,arm3_eps,2022.2.5,Linux x86_64,58.27505828,609d93dea742beade6157bdc,64c7fed44a04f777bb1e18ce,64c800c02bbc19106020c9f9,right,1,0.75,0.1143,-1,0.004324296,0.934,,,,,,32,0,32,0,1,,,,,
,,248924,001,2023-07-31_20h47.25.133,arm3_eps,2022.2.5,Linux x86_64,58.27505828,609d93dea742beade6157bdc,64c7fed44a04f777bb1e18ce,64c800c02bbc19106020c9f9,right,1,0.75,0.1143,-1,0.035500315,0.153,,,,,,33,0,33,0,1,,,,,
,,248924,001,2023-07-31_20h47.25.133,arm3_eps,2022.2.5,Linux x86_64,58.27505828,609d93dea742beade6157bdc,64c7fed44a04f777bb1e18ce,64c800c02bbc19106020c9f9,right,1,0.75,0.1143,-1,0.037942268,0.124,,,,,,34,0,34,0,1,,,,,
,,248924,001,2023-07-31_20h47.25.133,arm3_eps,2022.2.5,Linux x86_64,58.27505828,609d93dea742beade6157bdc,64c7fed44a04f777bb1e18ce,64c800c02bbc19106020c9f9,down,1,0.75,0.1143,-2,0,0.919,,,,,,35,0,35,0,1,,,,,
,,248924,001,2023-07-31_20h47.25.133,arm3_eps,2022.2.5,Linux x86_64,58.27505828,609d93dea742beade6157bdc,64c7fed44a04f777bb1e18ce,64c800c02bbc19106020c9f9,right,1,0.75,0.1143,-2,-0.012907907,0.764,,,,,,36,0,36,0,1,,,,,
,,248924,001,2023-07-31_20h47.25.133,arm3_eps,2022.2.5,Linux x86_64,58.27505828,609d93dea742beade6157bdc,64c7fed44a04f777bb1e18ce,64c800c02bbc19106020c9f9,right,1,0.75,0.1143,-2,0.010672597,0.145,,,,,,37,0,37,0,1,,,,,
,,248924,001,2023-07-31_20h47.25.133,arm3_eps,2022.2.5,Linux x86_64,58.27505828,609d93dea742beade6157bdc,64c7fed44a04f777bb1e18ce,64c800c02bbc19106020c9f9,right,1,0.75,0.1143,-2,-0.005507845,0.156,,,,,,38,0,38,0,1,,,,,
,,248924,001,2023-07-31_20h47.25.133,arm3_eps,2022.2.5,Linux x86_64,58.27505828,609d93dea742beade6157bdc,64c7fed44a04f777bb1e18ce,64c800c02bbc19106020c9f9,up,1,0.75,0.1143,-2,0,2.154,,,,,,39,0,39,0,1,,,,,
,,248924,001,2023-07-31_20h47.25.133,arm3_eps,2022.2.5,Linux x86_64,58.27505828,609d93dea742beade6157bdc,64c7fed44a04f777bb1e18ce,64c800c02bbc19106020c9f9,right,1,0.75,0.1143,-2,-0.000153826,1.119,,,,,,40,0,40,0,1,,,,,
,,248924,001,2023-07-31_20h47.25.133,arm3_eps,2022.2.5,Linux x86_64,58.27505828,609d93dea742beade6157bdc,64c7fed44a04f777bb1e18ce,64c800c02bbc19106020c9f9,up,1,0.75,0.1143,-1,0,0.717,,,,,,41,0,41,0,1,,,,,
,,248924,001,2023-07-31_20h47.25.133,arm3_eps,2022.2.5,Linux x86_64,58.27505828,609d93dea742beade6157bdc,64c7fed44a04f777bb1e18ce,64c800c02bbc19106020c9f9,right,1,0.75,0.1143,-1,0.016656668,1.233,,,,,,42,0,42,0,1,,,,,
,,248924,001,2023-07-31_20h47.25.133,arm3_eps,2022.2.5,Linux x86_64,58.27505828,609d93dea742beade6157bdc,64c7fed44a04f777bb1e18ce,64c800c02bbc19106020c9f9,up,1,0.75,0.1143,0,0,1.87,,,,,,43,0,43,0,1,,,,,
,,248924,001,2023-07-31_20h47.25.133,arm3_eps,2022.2.5,Linux x86_64,58.27505828,609d93dea742beade6157bdc,64c7fed44a04f777bb1e18ce,64c800c02bbc19106020c9f9,right,1,0.75,0.1143,0,0.020790103,1.23,,,,,,44,0,44,0,1,,,,,
,,248924,001,2023-07-31_20h47.25.133,arm3_eps,2022.2.5,Linux x86_64,58.27505828,609d93dea742beade6157bdc,64c7fed44a04f777bb1e18ce,64c800c02bbc19106020c9f9,down,1,0.75,0.1143,0,0,0.752,,,,,,45,0,45,0,1,,,,,
,,248924,001,2023-07-31_20h47.25.133,arm3_eps,2022.2.5,Linux x86_64,58.27505828,609d93dea742beade6157bdc,64c7fed44a04f777bb1e18ce,64c800c02bbc19106020c9f9,right,1,0.75,0.1143,0,0.014535367,1.017,,,,,,46,0,46,0,1,,,,,
,,248924,001,2023-07-31_20h47.25.133,arm3_eps,2022.2.5,Linux x86_64,58.27505828,609d93dea742beade6157bdc,64c7fed44a04f777bb1e18ce,64c800c02bbc19106020c9f9,down,1,0.75,0.1143,-1,0,1.109,,,,,,47,0,47,0,1,,,,,
,,248924,001,2023-07-31_20h47.25.133,arm3_eps,2022.2.5,Linux x86_64,58.27505828,609d93dea742beade6157bdc,64c7fed44a04f777bb1e18ce,64c800c02bbc19106020c9f9,right,1,0.75,0.1143,-1,-0.039209969,0.915,,,,,,48,0,48,0,1,,,,,
,,248924,001,2023-07-31_20h47.25.133,arm3_eps,2022.2.5,Linux x86_64,58.27505828,609d93dea742beade6157bdc,64c7fed44a04f777bb1e18ce,64c800c02bbc19106020c9f9,up,1,0.75,0.1143,0,0,0.61,,,,,,49,0,49,0,1,,,,,
,,248924,001,2023-07-31_20h47.25.133,arm3_eps,2022.2.5,Linux x86_64,58.27505828,609d93dea742beade6157bdc,64c7fed44a04f777bb1e18ce,64c800c02bbc19106020c9f9,right,1,0.75,0.1143,0,0.018236006,1.076,,,,,,50,0,50,0,1,,,,,
,,248924,001,2023-07-31_20h47.25.133,arm3_eps,2022.2.5,Linux x86_64,58.27505828,609d93dea742beade6157bdc,64c7fed44a04f777bb1e18ce,64c800c02bbc19106020c9f9,up,1,0.75,0.1143,1,0,0.973,,,,,,51,0,51,0,1,,,,,
,,248924,001,2023-07-31_20h47.25.133,arm3_eps,2022.2.5,Linux x86_64,58.27505828,609d93dea742beade6157bdc,64c7fed44a04f777bb1e18ce,64c800c02bbc19106020c9f9,right,1,0.75,0.1143,1,0.032988777,1.041,,,,,,52,0,52,0,1,,,,,
,,248924,001,2023-07-31_20h47.25.133,arm3_eps,2022.2.5,Linux x86_64,58.27505828,609d93dea742beade6157bdc,64c7fed44a04f777bb1e18ce,64c800c02bbc19106020c9f9,right,1,0.75,0.1143,1,0.047614357,0.537,,,,,,53,0,53,0,1,,,,,
,,248924,001,2023-07-31_20h47.25.133,arm3_eps,2022.2.5,Linux x86_64,58.27505828,609d93dea742beade6157bdc,64c7fed44a04f777bb1e18ce,64c800c02bbc19106020c9f9,down,1,0.75,0.1143,0,0,0.643,,,,,,54,0,54,0,1,,,,,
,,248924,001,2023-07-31_20h47.25.133,arm3_eps,2022.2.5,Linux x86_64,58.27505828,609d93dea742beade6157bdc,64c7fed44a04f777bb1e18ce,64c800c02bbc19106020c9f9,right,1,0.75,0.1143,0,0.011476679,0.854,,,,,,55,0,55,0,1,,,,,
,,248924,001,2023-07-31_20h47.25.133,arm3_eps,2022.2.5,Linux x86_64,58.27505828,609d93dea742beade6157bdc,64c7fed44a04f777bb1e18ce,64c800c02bbc19106020c9f9,up,1,0.75,0.1143,1,0,0.421,,,,,,56,0,56,0,1,,,,,
,,248924,001,2023-07-31_20h47.25.133,arm3_eps,2022.2.5,Linux x86_64,58.27505828,609d93dea742beade6157bdc,64c7fed44a04f777bb1e18ce,64c800c02bbc19106020c9f9,right,1,0.75,0.1143,1,-0.009684694,1.454,,,,,,57,0,57,0,1,,,,,
,,248924,001,2023-07-31_20h47.25.133,arm3_eps,2022.2.5,Linux x86_64,58.27505828,609d93dea742beade6157bdc,64c7fed44a04f777bb1e18ce,64c800c02bbc19106020c9f9,up,1,0.75,0.1143,2,0,1.673,,,,,,58,0,58,0,1,,,,,
,,248924,001,2023-07-31_20h47.25.133,arm3_eps,2022.2.5,Linux x86_64,58.27505828,609d93dea742beade6157bdc,64c7fed44a04f777bb1e18ce,64c800c02bbc19106020c9f9,right,1,0.75,0.1143,2,0.016322515,1.041,,,,,,59,0,59,0,1,,,,,
,,248924,001,2023-07-31_20h47.25.133,arm3_eps,2022.2.5,Linux x86_64,58.27505828,609d93dea742beade6157bdc,64c7fed44a04f777bb1e18ce,64c800c02bbc19106020c9f9,up,1,0.75,0.1143,3,0,0.986,,,,,,60,0,60,0,1,,,,,
,,248924,001,2023-07-31_20h47.25.133,arm3_eps,2022.2.5,Linux x86_64,58.27505828,609d93dea742beade6157bdc,64c7fed44a04f777bb1e18ce,64c800c02bbc19106020c9f9,right,1,0.75,0.1143,3,0.02863879,0.864,,,,,,61,0,61,0,1,,,,,
,,248924,001,2023-07-31_20h47.25.133,arm3_eps,2022.2.5,Linux x86_64,58.27505828,609d93dea742beade6157bdc,64c7fed44a04f777bb1e18ce,64c800c02bbc19106020c9f9,up,-1,0.75,0.1143,3,0,1.309,,,,,,62,0,62,0,1,,,,,
,,248924,001,2023-07-31_20h47.25.133,arm3_eps,2022.2.5,Linux x86_64,58.27505828,609d93dea742beade6157bdc,64c7fed44a04f777bb1e18ce,64c800c02bbc19106020c9f9,right,-1,0.75,0.1143,3,-0.008509237,0.82,,,,,,63,0,63,0,1,,,,,
,,248924,001,2023-07-31_20h47.25.133,arm3_eps,2022.2.5,Linux x86_64,58.27505828,609d93dea742beade6157bdc,64c7fed44a04f777bb1e18ce,64c800c02bbc19106020c9f9,down,-1,0.75,0.1143,4,0,0.585,,,,,,64,0,64,0,1,,,,,
,,248924,001,2023-07-31_20h47.25.133,arm3_eps,2022.2.5,Linux x86_64,58.27505828,609d93dea742beade6157bdc,64c7fed44a04f777bb1e18ce,64c800c02bbc19106020c9f9,up,-1,0.75,0.1143,3,0,1.273,,,,,,65,0,65,0,1,,,,,
,,248924,001,2023-07-31_20h47.25.133,arm3_eps,2022.2.5,Linux x86_64,58.27505828,609d93dea742beade6157bdc,64c7fed44a04f777bb1e18ce,64c800c02bbc19106020c9f9,right,-1,0.75,0.1143,3,0.019079132,2.038,,,,,,66,0,66,0,1,,,,,
,,248924,001,2023-07-31_20h47.25.133,arm3_eps,2022.2.5,Linux x86_64,58.27505828,609d93dea742beade6157bdc,64c7fed44a04f777bb1e18ce,64c800c02bbc19106020c9f9,up,1,0.75,0.1143,2,0,0.936,,,,,,67,0,67,0,1,,,,,
,,248924,001,2023-07-31_20h47.25.133,arm3_eps,2022.2.5,Linux x86_64,58.27505828,609d93dea742beade6157bdc,64c7fed44a04f777bb1e18ce,64c800c02bbc19106020c9f9,right,1,0.75,0.1143,2,-0.002314003,41.228,,,,,,68,0,68,0,1,,,,,
,,248924,001,2023-07-31_20h47.25.133,arm3_eps,2022.2.5,Linux x86_64,58.27505828,609d93dea742beade6157bdc,64c7fed44a04f777bb1e18ce,64c800c02bbc19106020c9f9,down,1,0.75,0.1143,1,0,0.651,,,,,,69,0,69,0,1,,,,,
,,248924,001,2023-07-31_20h47.25.133,arm3_eps,2022.2.5,Linux x86_64,58.27505828,609d93dea742beade6157bdc,64c7fed44a04f777bb1e18ce,64c800c02bbc19106020c9f9,right,1,0.75,0.1143,1,0.010751603,2.002,,,,,,70,0,70,0,1,,,,,
,,248924,001,2023-07-31_20h47.25.133,arm3_eps,2022.2.5,Linux x86_64,58.27505828,609d93dea742beade6157bdc,64c7fed44a04f777bb1e18ce,64c800c02bbc19106020c9f9,up,1,0.75,0.1143,2,0,0.969,,,,,,71,0,71,0,1,,,,,
,,248924,001,2023-07-31_20h47.25.133,arm3_eps,2022.2.5,Linux x86_64,58.27505828,609d93dea742beade6157bdc,64c7fed44a04f777bb1e18ce,64c800c02bbc19106020c9f9,right,1,0.75,0.1143,2,-0.006354587,1.307,,,,,,72,0,72,0,1,,,,,
,,248924,001,2023-07-31_20h47.25.133,arm3_eps,2022.2.5,Linux x86_64,58.27505828,609d93dea742beade6157bdc,64c7fed44a04f777bb1e18ce,64c800c02bbc19106020c9f9,up,-1,0.75,0.1143,3,0,4.203,,,,,,73,0,73,0,1,,,,,
,,248924,001,2023-07-31_20h47.25.133,arm3_eps,2022.2.5,Linux x86_64,58.27505828,609d93dea742beade6157bdc,64c7fed44a04f777bb1e18ce,64c800c02bbc19106020c9f9,right,-1,0.75,0.1143,3,-0.010491184,1.05,,,,,,74,0,74,0,1,,,,,
,,248924,001,2023-07-31_20h47.25.133,arm3_eps,2022.2.5,Linux x86_64,58.27505828,609d93dea742beade6157bdc,64c7fed44a04f777bb1e18ce,64c800c02bbc19106020c9f9,down,-1,0.75,0.1143,4,0,9.624,,,,,,75,0,75,0,1,,,,,
,,248924,001,2023-07-31_20h47.25.133,arm3_eps,2022.2.5,Linux x86_64,58.27505828,609d93dea742beade6157bdc,64c7fed44a04f777bb1e18ce,64c800c02bbc19106020c9f9,right,-1,0.75,0.1143,4,-0.032507839,0.936,,,,,,76,0,76,0,1,,,,,
,,248924,001,2023-07-31_20h47.25.133,arm3_eps,2022.2.5,Linux x86_64,58.27505828,609d93dea742beade6157bdc,64c7fed44a04f777bb1e18ce,64c800c02bbc19106020c9f9,down,-1,0.75,0.1143,5,0,0.854,,,,,,77,0,77,0,1,,,,,
,,248924,001,2023-07-31_20h47.25.133,arm3_eps,2022.2.5,Linux x86_64,58.27505828,609d93dea742beade6157bdc,64c7fed44a04f777bb1e18ce,64c800c02bbc19106020c9f9,right,-1,0.75,0.1143,5,0.000480908,0.882,,,,,,78,0,78,0,1,,,,,
,,248924,001,2023-07-31_20h47.25.133,arm3_eps,2022.2.5,Linux x86_64,58.27505828,609d93dea742beade6157bdc,64c7fed44a04f777bb1e18ce,64c800c02bbc19106020c9f9,up,-1,0.75,0.1143,5,0,2.82,,,,,,79,0,79,0,1,,,,,
,,248924,001,2023-07-31_20h47.25.133,arm3_eps,2022.2.5,Linux x86_64,58.27505828,609d93dea742beade6157bdc,64c7fed44a04f777bb1e18ce,64c800c02bbc19106020c9f9,right,-1,0.75,0.1143,5,-0.017755778,0.837,,,,,,80,0,80,0,1,,,,,
,,248924,001,2023-07-31_20h47.25.133,arm3_eps,2022.2.5,Linux x86_64,58.27505828,609d93dea742beade6157bdc,64c7fed44a04f777bb1e18ce,64c800c02bbc19106020c9f9,down,-1,0.75,0.1143,6,0,0.76,,,,,,81,0,81,0,1,,,,,
,,248924,001,2023-07-31_20h47.25.133,arm3_eps,2022.2.5,Linux x86_64,58.27505828,609d93dea742beade6157bdc,64c7fed44a04f777bb1e18ce,64c800c02bbc19106020c9f9,right,-1,0.75,0.1143,6,-0.021113353,1.082,,,,,,82,0,82,0,1,,,,,
,,248924,001,2023-07-31_20h47.25.133,arm3_eps,2022.2.5,Linux x86_64,58.27505828,609d93dea742beade6157bdc,64c7fed44a04f777bb1e18ce,64c800c02bbc19106020c9f9,up,-1,0.75,0.1143,5,0,0.719,,,,,,83,0,83,0,1,,,,,
,,248924,001,2023-07-31_20h47.25.133,arm3_eps,2022.2.5,Linux x86_64,58.27505828,609d93dea742beade6157bdc,64c7fed44a04f777bb1e18ce,64c800c02bbc19106020c9f9,right,-1,0.75,0.1143,5,-0.004943437,0.821,,,,,,84,0,84,0,1,,,,,
,,248924,001,2023-07-31_20h47.25.133,arm3_eps,2022.2.5,Linux x86_64,58.27505828,609d93dea742beade6157bdc,64c7fed44a04f777bb1e18ce,64c800c02bbc19106020c9f9,down,-1,0.75,0.1143,6,0,0.35,,,,,,85,0,85,0,1,,,,,
,,248924,001,2023-07-31_20h47.25.133,arm3_eps,2022.2.5,Linux x86_64,58.27505828,609d93dea742beade6157bdc,64c7fed44a04f777bb1e18ce,64c800c02bbc19106020c9f9,right,-1,0.75,0.1143,6,0.023687641,1.465,,,,,,86,0,86,0,1,,,,,
,,248924,001,2023-07-31_20h47.25.133,arm3_eps,2022.2.5,Linux x86_64,58.27505828,609d93dea742beade6157bdc,64c7fed44a04f777bb1e18ce,64c800c02bbc19106020c9f9,down,1,0.75,0.1143,7,0,9.746,,,,,,87,0,87,0,1,,,,,
,,248924,001,2023-07-31_20h47.25.133,arm3_eps,2022.2.5,Linux x86_64,58.27505828,609d93dea742beade6157bdc,64c7fed44a04f777bb1e18ce,64c800c02bbc19106020c9f9,right,1,0.75,0.1143,7,0.021199006,1.009,,,,,,88,0,88,0,1,,,,,
,,248924,001,2023-07-31_20h47.25.133,arm3_eps,2022.2.5,Linux x86_64,58.27505828,609d93dea742beade6157bdc,64c7fed44a04f777bb1e18ce,64c800c02bbc19106020c9f9,down,1,0.75,0.1143,6,0,0.941,,,,,,89,0,89,0,1,,,,,
,,248924,001,2023-07-31_20h47.25.133,arm3_eps,2022.2.5,Linux x86_64,58.27505828,609d93dea742beade6157bdc,64c7fed44a04f777bb1e18ce,64c800c02bbc19106020c9f9,right,1,0.75,0.1143,6,0.002571511,0.802,,,,,,90,0,90,0,1,,,,,
,,248924,001,2023-07-31_20h47.25.133,arm3_eps,2022.2.5,Linux x86_64,58.27505828,609d93dea742beade6157bdc,64c7fed44a04f777bb1e18ce,64c800c02bbc19106020c9f9,up,1,0.75,0.1143,7,0,1.204,,,,,,91,0,91,0,1,,,,,
,,248924,001,2023-07-31_20h47.25.133,arm3_eps,2022.2.5,Linux x86_64,58.27505828,609d93dea742beade6157bdc,64c7fed44a04f777bb1e18ce,64c800c02bbc19106020c9f9,right,1,0.75,0.1143,7,0.007238326,1.007,,,,,,92,0,92,0,1,,,,,
,,248924,001,2023-07-31_20h47.25.133,arm3_eps,2022.2.5,Linux x86_64,58.27505828,609d93dea742beade6157bdc,64c7fed44a04f777bb1e18ce,64c800c02bbc19106020c9f9,up,1,0.75,0.1143,7,0,0.794,,,,,,93,0,93,0,1,,,,,
,,248924,001,2023-07-31_20h47.25.133,arm3_eps,2022.2.5,Linux x86_64,58.27505828,609d93dea742beade6157bdc,64c7fed44a04f777bb1e18ce,64c800c02bbc19106020c9f9,right,1,0.75,0.1143,7,-0.002982396,0.901,,,,,,94,0,94,0,1,,,,,
,,248924,001,2023-07-31_20h47.25.133,arm3_eps,2022.2.5,Linux x86_64,58.27505828,609d93dea742beade6157bdc,64c7fed44a04f777bb1e18ce,64c800c02bbc19106020c9f9,up,1,0.75,0.1143,8,0,0.707,,,,,,95,0,95,0,1,,,,,
,,248924,001,2023-07-31_20h47.25.133,arm3_eps,2022.2.5,Linux x86_64,58.27505828,609d93dea742beade6157bdc,64c7fed44a04f777bb1e18ce,64c800c02bbc19106020c9f9,right,1,0.75,0.1143,8,0.005033794,1.172,,,,,,96,0,96,0,1,,,,,
,,248924,001,2023-07-31_20h47.25.133,arm3_eps,2022.2.5,Linux x86_64,58.27505828,609d93dea742beade6157bdc,64c7fed44a04f777bb1e18ce,64c800c02bbc19106020c9f9,up,-1,0.75,0.1143,9,0,0.586,,,,,,97,0,97,0,1,,,,,
,,248924,001,2023-07-31_20h47.25.133,arm3_eps,2022.2.5,Linux x86_64,58.27505828,609d93dea742beade6157bdc,64c7fed44a04f777bb1e18ce,64c800c02bbc19106020c9f9,right,-1,0.75,0.1143,9,-0.031014625,1.243,,,,,,98,0,98,0,1,,,,,
,,248924,001,2023-07-31_20h47.25.133,arm3_eps,2022.2.5,Linux x86_64,58.27505828,609d93dea742beade6157bdc,64c7fed44a04f777bb1e18ce,64c800c02bbc19106020c9f9,down,-1,0.75,0.1143,9,0,0.955,,,,,,99,0,99,0,1,,,,,
,,248924,001,2023-07-31_20h47.25.133,arm3_eps,2022.2.5,Linux x86_64,58.27505828,609d93dea742beade6157bdc,64c7fed44a04f777bb1e18ce,64c800c02bbc19106020c9f9,right,-1,0.75,0.1143,9,-0.005725387,0.899,,,,,,100,0,100,0,1,,,,,
,,248924,001,2023-07-31_20h47.25.133,arm3_eps,2022.2.5,Linux x86_64,58.27505828,609d93dea742beade6157bdc,64c7fed44a04f777bb1e18ce,64c800c02bbc19106020c9f9,up,1,0.75,0.1143,9,0,0.224,,,,,,101,0,101,0,1,,,,,
,,248924,001,2023-07-31_20h47.25.133,arm3_eps,2022.2.5,Linux x86_64,58.27505828,609d93dea742beade6157bdc,64c7fed44a04f777bb1e18ce,64c800c02bbc19106020c9f9,right,1,0.75,0.1143,9,-0.00264139,0.864,,,,,,102,0,102,0,1,,,,,
,,248924,001,2023-07-31_20h47.25.133,arm3_eps,2022.2.5,Linux x86_64,58.27505828,609d93dea742beade6157bdc,64c7fed44a04f777bb1e18ce,64c800c02bbc19106020c9f9,up,1,0.75,0.1143,10,0,0.485,,,,,,103,0,103,0,1,,,,,
,,248924,001,2023-07-31_20h47.25.133,arm3_eps,2022.2.5,Linux x86_64,58.27505828,609d93dea742beade6157bdc,64c7fed44a04f777bb1e18ce,64c800c02bbc19106020c9f9,right,1,0.75,0.1143,10,0.028050171,0.875,,,,,,104,0,104,0,1,,,,,
,,248924,001,2023-07-31_20h47.25.133,arm3_eps,2022.2.5,Linux x86_64,58.27505828,609d93dea742beade6157bdc,64c7fed44a04f777bb1e18ce,64c800c02bbc19106020c9f9,down,1,0.75,0.1143,9,0,0.809,,,,,,105,0,105,0,1,,,,,
,,248924,001,2023-07-31_20h47.25.133,arm3_eps,2022.2.5,Linux x86_64,58.27505828,609d93dea742beade6157bdc,64c7fed44a04f777bb1e18ce,64c800c02bbc19106020c9f9,right,1,0.75,0.1143,9,0.035550983,0.838,,,,,,106,0,106,0,1,,,,,
,,248924,001,2023-07-31_20h47.25.133,arm3_eps,2022.2.5,Linux x86_64,58.27505828,609d93dea742beade6157bdc,64c7fed44a04f777bb1e18ce,64c800c02bbc19106020c9f9,up,1,0.75,0.1143,10,0,0.773,,,,,,107,0,107,0,1,,,,,
,,248924,001,2023-07-31_20h47.25.133,arm3_eps,2022.2.5,Linux x86_64,58.27505828,609d93dea742beade6157bdc,64c7fed44a04f777bb1e18ce,64c800c02bbc19106020c9f9,right,1,0.75,0.1143,10,0.010716259,0.803,,,,,,108,0,108,0,1,,,,,
,,248924,001,2023-07-31_20h47.25.133,arm3_eps,2022.2.5,Linux x86_64,58.27505828,609d93dea742beade6157bdc,64c7fed44a04f777bb1e18ce,64c800c02bbc19106020c9f9,up,1,0.75,0.1143,11,0,1.813,,,,,,109,0,109,0,1,,,,,
,,248924,001,2023-07-31_20h47.25.133,arm3_eps,2022.2.5,Linux x86_64,58.27505828,609d93dea742beade6157bdc,64c7fed44a04f777bb1e18ce,64c800c02bbc19106020c9f9,right,1,0.75,0.1143,11,-0.02004773,0.855,,,,,,110,0,110,0,1,,,,,
,,248924,001,2023-07-31_20h47.25.133,arm3_eps,2022.2.5,Linux x86_64,58.27505828,609d93dea742beade6157bdc,64c7fed44a04f777bb1e18ce,64c800c02bbc19106020c9f9,up,1,0.75,0.1143,12,0,0.821,,,,,,111,0,111,0,1,,,,,
,,248924,001,2023-07-31_20h47.25.133,arm3_eps,2022.2.5,Linux x86_64,58.27505828,609d93dea742beade6157bdc,64c7fed44a04f777bb1e18ce,64c800c02bbc19106020c9f9,right,1,0.75,0.1143,12,0.0050444,0.831,,,,,,112,0,112,0,1,,,,,
,,248924,001,2023-07-31_20h47.25.133,arm3_eps,2022.2.5,Linux x86_64,58.27505828,609d93dea742beade6157bdc,64c7fed44a04f777bb1e18ce,64c800c02bbc19106020c9f9,down,1,0.75,0.1143,11,0,0.595,,,,,,113,0,113,0,1,,,,,
,,248924,001,2023-07-31_20h47.25.133,arm3_eps,2022.2.5,Linux x86_64,58.27505828,609d93dea742beade6157bdc,64c7fed44a04f777bb1e18ce,64c800c02bbc19106020c9f9,right,1,0.75,0.1143,11,0.012026891,0.792,,,,,,114,0,114,0,1,,,,,
,,248924,001,2023-07-31_20h47.25.133,arm3_eps,2022.2.5,Linux x86_64,58.27505828,609d93dea742beade6157bdc,64c7fed44a04f777bb1e18ce,64c800c02bbc19106020c9f9,up,1,0.75,0.1143,12,0,0.376,,,,,,115,0,115,0,1,,,,,
,,248924,001,2023-07-31_20h47.25.133,arm3_eps,2022.2.5,Linux x86_64,58.27505828,609d93dea742beade6157bdc,64c7fed44a04f777bb1e18ce,64c800c02bbc19106020c9f9,right,1,0.75,0.1143,12,0.019642262,0.856,,,,,,116,0,116,0,1,,,,,
,,248924,001,2023-07-31_20h47.25.133,arm3_eps,2022.2.5,Linux x86_64,58.27505828,609d93dea742beade6157bdc,64c7fed44a04f777bb1e18ce,64c800c02bbc19106020c9f9,up,1,0.75,0.1143,13,0,0.711,,,,,,117,0,117,0,1,,,,,
,,248924,001,2023-07-31_20h47.25.133,arm3_eps,2022.2.5,Linux x86_64,58.27505828,609d93dea742beade6157bdc,64c7fed44a04f777bb1e18ce,64c800c02bbc19106020c9f9,right,1,0.75,0.1143,13,0.031753218,0.79,,,,,,118,0,118,0,1,,,,,
,,248924,001,2023-07-31_20h47.25.133,arm3_eps,2022.2.5,Linux x86_64,58.27505828,609d93dea742beade6157bdc,64c7fed44a04f777bb1e18ce,64c800c02bbc19106020c9f9,down,1,0.75,0.1143,12,0,0.778,,,,,,119,0,119,0,1,,,,,
,,248924,001,2023-07-31_20h47.25.133,arm3_eps,2022.2.5,Linux x86_64,58.27505828,609d93dea742beade6157bdc,64c7fed44a04f777bb1e18ce,64c800c02bbc19106020c9f9,right,1,0.75,0.1143,12,-0.010271286,0.823,,,,,,120,0,120,0,1,,,,,
,,248924,001,2023-07-31_20h47.25.133,arm3_eps,2022.2.5,Linux x86_64,58.27505828,609d93dea742beade6157bdc,64c7fed44a04f777bb1e18ce,64c800c02bbc19106020c9f9,up,1,0.75,0.1143,12,0,0.284,,,,,,121,0,121,0,1,,,,,
,,248924,001,2023-07-31_20h47.25.133,arm3_eps,2022.2.5,Linux x86_64,58.27505828,609d93dea742beade6157bdc,64c7fed44a04f777bb1e18ce,64c800c02bbc19106020c9f9,right,1,0.75,0.1143,12,0.008155291,0.792,,,,,,122,0,122,0,1,,,,,
,,248924,001,2023-07-31_20h47.25.133,arm3_eps,2022.2.5,Linux x86_64,58.27505828,609d93dea742beade6157bdc,64c7fed44a04f777bb1e18ce,64c800c02bbc19106020c9f9,down,1,0.75,0.1143,11,0,0.252,,,,,,123,0,123,0,1,,,,,
,,248924,001,2023-07-31_20h47.25.133,arm3_eps,2022.2.5,Linux x86_64,58.27505828,609d93dea742beade6157bdc,64c7fed44a04f777bb1e18ce,64c800c02bbc19106020c9f9,right,1,0.75,0.1143,11,-0.023545011,0.817,,,,,,124,0,124,0,1,,,,,
,,248924,001,2023-07-31_20h47.25.133,arm3_eps,2022.2.5,Linux x86_64,58.27505828,609d93dea742beade6157bdc,64c7fed44a04f777bb1e18ce,64c800c02bbc19106020c9f9,up,1,0.75,0.1143,11,0,0.207,,,,,,125,0,125,0,1,,,,,
,,248924,001,2023-07-31_20h47.25.133,arm3_eps,2022.2.5,Linux x86_64,58.27505828,609d93dea742beade6157bdc,64c7fed44a04f777bb1e18ce,64c800c02bbc19106020c9f9,right,1,0.75,0.1143,11,0.033270484,0.788,,,,,,126,0,126,0,1,,,,,
,,248924,001,2023-07-31_20h47.25.133,arm3_eps,2022.2.5,Linux x86_64,58.27505828,609d93dea742beade6157bdc,64c7fed44a04f777bb1e18ce,64c800c02bbc19106020c9f9,up,1,0.75,0.1143,12,0,0.22,,,,,,127,0,127,0,1,,,,,
,,248924,001,2023-07-31_20h47.25.133,arm3_eps,2022.2.5,Linux x86_64,58.27505828,609d93dea742beade6157bdc,64c7fed44a04f777bb1e18ce,64c800c02bbc19106020c9f9,right,1,0.75,0.1143,12,-0.033996606,0.798,,,,,,128,0,128,0,1,,,,,
,,248924,001,2023-07-31_20h47.25.133,arm3_eps,2022.2.5,Linux x86_64,58.27505828,609d93dea742beade6157bdc,64c7fed44a04f777bb1e18ce,64c800c02bbc19106020c9f9,up,1,0.75,0.1143,12,0,0.251,,,,,,129,0,129,0,1,,,,,
,,248924,001,2023-07-31_20h47.25.133,arm3_eps,2022.2.5,Linux x86_64,58.27505828,609d93dea742beade6157bdc,64c7fed44a04f777bb1e18ce,64c800c02bbc19106020c9f9,right,1,0.75,0.1143,12,0.002115162,0.846,,,,,,130,0,130,0,1,,,,,
,,248924,001,2023-07-31_20h47.25.133,arm3_eps,2022.2.5,Linux x86_64,58.27505828,609d93dea742beade6157bdc,64c7fed44a04f777bb1e18ce,64c800c02bbc19106020c9f9,down,1,0.75,0.1143,12,0,0.653,,,,,,131,0,131,0,1,,,,,
,,248924,001,2023-07-31_20h47.25.133,arm3_eps,2022.2.5,Linux x86_64,58.27505828,609d93dea742beade6157bdc,64c7fed44a04f777bb1e18ce,64c800c02bbc19106020c9f9,right,1,0.75,0.1143,12,0.007116952,0.75,,,,,,132,0,132,0,1,,,,,
,,248924,001,2023-07-31_20h47.25.133,arm3_eps,2022.2.5,Linux x86_64,58.27505828,609d93dea742beade6157bdc,64c7fed44a04f777bb1e18ce,64c800c02bbc19106020c9f9,up,-1,0.75,0.1143,13,0,0.241,,,,,,133,0,133,0,1,,,,,
,,248924,001,2023-07-31_20h47.25.133,arm3_eps,2022.2.5,Linux x86_64,58.27505828,609d93dea742beade6157bdc,64c7fed44a04f777bb1e18ce,64c800c02bbc19106020c9f9,right,-1,0.75,0.1143,13,0.025742105,0.886,,,,,,134,0,134,0,1,,,,,
,,248924,001,2023-07-31_20h47.25.133,arm3_eps,2022.2.5,Linux x86_64,58.27505828,609d93dea742beade6157bdc,64c7fed44a04f777bb1e18ce,64c800c02bbc19106020c9f9,up,-1,0.75,0.1143,12,0,0.292,,,,,,135,0,135,0,1,,,,,
,,248924,001,2023-07-31_20h47.25.133,arm3_eps,2022.2.5,Linux x86_64,58.27505828,609d93dea742beade6157bdc,64c7fed44a04f777bb1e18ce,64c800c02bbc19106020c9f9,right,-1,0.75,0.1143,12,-0.00609896,0.87,,,,,,136,0,136,0,1,,,,,
,,248924,001,2023-07-31_20h47.25.133,arm3_eps,2022.2.5,Linux x86_64,58.27505828,609d93dea742beade6157bdc,64c7fed44a04f777bb1e18ce,64c800c02bbc19106020c9f9,down,-1,0.75,0.1143,12,0,0.26,,,,,,137,0,137,0,1,,,,,
,,248924,001,2023-07-31_20h47.25.133,arm3_eps,2022.2.5,Linux x86_64,58.27505828,609d93dea742beade6157bdc,64c7fed44a04f777bb1e18ce,64c800c02bbc19106020c9f9,right,-1,0.75,0.1143,12,-0.02035691,0.774,,,,,,138,0,138,0,1,,,,,
,,248924,001,2023-07-31_20h47.25.133,arm3_eps,2022.2.5,Linux x86_64,58.27505828,609d93dea742beade6157bdc,64c7fed44a04f777bb1e18ce,64c800c02bbc19106020c9f9,up,-1,0.75,0.1143,12,0,0.267,,,,,,139,0,139,0,1,,,,,
,,248924,001,2023-07-31_20h47.25.133,arm3_eps,2022.2.5,Linux x86_64,58.27505828,609d93dea742beade6157bdc,64c7fed44a04f777bb1e18ce,64c800c02bbc19106020c9f9,right,-1,0.75,0.1143,12,0.011529665,0.765,,,,,,140,0,140,0,1,,,,,
,,248924,001,2023-07-31_20h47.25.133,arm3_eps,2022.2.5,Linux x86_64,58.27505828,609d93dea742beade6157bdc,64c7fed44a04f777bb1e18ce,64c800c02bbc19106020c9f9,up,-1,0.75,0.1143,11,0,0.207,,,,,,141,0,141,0,1,,,,,
,,248924,001,2023-07-31_20h47.25.133,arm3_eps,2022.2.5,Linux x86_64,58.27505828,609d93dea742beade6157bdc,64c7fed44a04f777bb1e18ce,64c800c02bbc19106020c9f9,right,-1,0.75,0.1143,11,0.034201771,0.966,,,,,,142,0,142,0,1,,,,,
,,248924,001,2023-07-31_20h47.25.133,arm3_eps,2022.2.5,Linux x86_64,58.27505828,609d93dea742beade6157bdc,64c7fed44a04f777bb1e18ce,64c800c02bbc19106020c9f9,up,1,0.75,0.1143,10,0,0.285,,,,,,143,0,143,0,1,,,,,
,,248924,001,2023-07-31_20h47.25.133,arm3_eps,2022.2.5,Linux x86_64,58.27505828,609d93dea742beade6157bdc,64c7fed44a04f777bb1e18ce,64c800c02bbc19106020c9f9,right,1,0.75,0.1143,10,0.012807362,0.702,,,,,,144,0,144,0,1,,,,,
,,248924,001,2023-07-31_20h47.25.133,arm3_eps,2022.2.5,Linux x86_64,58.27505828,609d93dea742beade6157bdc,64c7fed44a04f777bb1e18ce,64c800c02bbc19106020c9f9,up,1,0.75,0.1143,11,0,0.184,,,,,,145,0,145,0,1,,,,,
,,248924,001,2023-07-31_20h47.25.133,arm3_eps,2022.2.5,Linux x86_64,58.27505828,609d93dea742beade6157bdc,64c7fed44a04f777bb1e18ce,64c800c02bbc19106020c9f9,right,1,0.75,0.1143,11,-0.010373473,1.164,,,,,,146,0,146,0,1,,,,,
,,248924,001,2023-07-31_20h47.25.133,arm3_eps,2022.2.5,Linux x86_64,58.27505828,609d93dea742beade6157bdc,64c7fed44a04f777bb1e18ce,64c800c02bbc19106020c9f9,up,1,0.75,0.1143,11,0,0.508,,,,,,147,0,147,0,1,,,,,
,,248924,001,2023-07-31_20h47.25.133,arm3_eps,2022.2.5,Linux x86_64,58.27505828,609d93dea742beade6157bdc,64c7fed44a04f777bb1e18ce,64c800c02bbc19106020c9f9,right,1,0.75,0.1143,11,0.019057918,0.5,,,,,,148,0,148,0,1,,,,,
,,248924,001,2023-07-31_20h47.25.133,arm3_eps,2022.2.5,Linux x86_64,58.27505828,609d93dea742beade6157bdc,64c7fed44a04f777bb1e18ce,64c800c02bbc19106020c9f9,down,1,0.75,0.1143,10,0,1.457,,,,,,149,0,149,0,1,,,,,
,,248924,001,2023-07-31_20h47.25.133,arm3_eps,2022.2.5,Linux x86_64,58.27505828,609d93dea742beade6157bdc,64c7fed44a04f777bb1e18ce,64c800c02bbc19106020c9f9,right,1,0.75,0.1143,10,0.003687479,0.787,,,,,,150,0,150,0,1,,,,,
,,248924,001,2023-07-31_20h47.25.133,arm3_eps,2022.2.5,Linux x86_64,58.27505828,609d93dea742beade6157bdc,64c7fed44a04f777bb1e18ce,64c800c02bbc19106020c9f9,up,1,0.75,0.1143,10,0,0.219,,,,,,151,0,151,0,1,,,,,
,,248924,001,2023-07-31_20h47.25.133,arm3_eps,2022.2.5,Linux x86_64,58.27505828,609d93dea742beade6157bdc,64c7fed44a04f777bb1e18ce,64c800c02bbc19106020c9f9,right,1,0.75,0.1143,10,-0.009959974,0.733,,,,,,152,0,152,0,1,,,,,
,,248924,001,2023-07-31_20h47.25.133,arm3_eps,2022.2.5,Linux x86_64,58.27505828,609d93dea742beade6157bdc,64c7fed44a04f777bb1e18ce,64c800c02bbc19106020c9f9,up,1,0.75,0.1143,11,0,0.222,,,,,,153,0,153,0,1,,,,,
,,248924,001,2023-07-31_20h47.25.133,arm3_eps,2022.2.5,Linux x86_64,58.27505828,609d93dea742beade6157bdc,64c7fed44a04f777bb1e18ce,64c800c02bbc19106020c9f9,right,1,0.75,0.1143,11,0.008779444,0.866,,,,,,154,0,154,0,1,,,,,
,,248924,001,2023-07-31_20h47.25.133,arm3_eps,2022.2.5,Linux x86_64,58.27505828,609d93dea742beade6157bdc,64c7fed44a04f777bb1e18ce,64c800c02bbc19106020c9f9,up,1,0.75,0.1143,12,0,0.193,,,,,,155,0,155,0,1,,,,,
,,248924,001,2023-07-31_20h47.25.133,arm3_eps,2022.2.5,Linux x86_64,58.27505828,609d93dea742beade6157bdc,64c7fed44a04f777bb1e18ce,64c800c02bbc19106020c9f9,right,1,0.75,0.1143,12,0.017646474,1.049,,,,,,156,0,156,0,1,,,,,
,,248924,001,2023-07-31_20h47.25.133,arm3_eps,2022.2.5,Linux x86_64,58.27505828,609d93dea742beade6157bdc,64c7fed44a04f777bb1e18ce,64c800c02bbc19106020c9f9,up,1,0.75,0.1143,12,0,0.205,,,,,,157,0,157,0,1,,,,,
,,248924,001,2023-07-31_20h47.25.133,arm3_eps,2022.2.5,Linux x86_64,58.27505828,609d93dea742beade6157bdc,64c7fed44a04f777bb1e18ce,64c800c02bbc19106020c9f9,right,1,0.75,0.1143,12,0.013857208,0.752,,,,,,158,0,158,0,1,,,,,
,,248924,001,2023-07-31_20h47.25.133,arm3_eps,2022.2.5,Linux x86_64,58.27505828,609d93dea742beade6157bdc,64c7fed44a04f777bb1e18ce,64c800c02bbc19106020c9f9,down,1,0.75,0.1143,11,0,0.119,,,,,,159,0,159,0,1,,,,,
,,248924,001,2023-07-31_20h47.25.133,arm3_eps,2022.2.5,Linux x86_64,58.27505828,609d93dea742beade6157bdc,64c7fed44a04f777bb1e18ce,64c800c02bbc19106020c9f9,right,1,0.75,0.1143,11,0.030185392,0.701,,,,,,160,0,160,0,1,,,,,
,,248924,001,2023-07-31_20h47.25.133,arm3_eps,2022.2.5,Linux x86_64,58.27505828,609d93dea742beade6157bdc,64c7fed44a04f777bb1e18ce,64c800c02bbc19106020c9f9,up,-1,0.75,0.1143,12,0,0.178,,,,,,161,0,161,0,1,,,,,
,,248924,001,2023-07-31_20h47.25.133,arm3_eps,2022.2.5,Linux x86_64,58.27505828,609d93dea742beade6157bdc,64c7fed44a04f777bb1e18ce,64c800c02bbc19106020c9f9,right,-1,0.75,0.1143,12,-0.014865643,0.682,,,,,,162,0,162,0,1,,,,,
,,248924,001,2023-07-31_20h47.25.133,arm3_eps,2022.2.5,Linux x86_64,58.27505828,609d93dea742beade6157bdc,64c7fed44a04f777bb1e18ce,64c800c02bbc19106020c9f9,up,-1,0.75,0.1143,11,0,0.158,,,,,,163,0,163,0,1,,,,,
,,248924,001,2023-07-31_20h47.25.133,arm3_eps,2022.2.5,Linux x86_64,58.27505828,609d93dea742beade6157bdc,64c7fed44a04f777bb1e18ce,64c800c02bbc19106020c9f9,right,-1,0.75,0.1143,11,-0.023973132,0.774,,,,,,164,0,164,0,1,,,,,
,,248924,001,2023-07-31_20h47.25.133,arm3_eps,2022.2.5,Linux x86_64,58.27505828,609d93dea742beade6157bdc,64c7fed44a04f777bb1e18ce,64c800c02bbc19106020c9f9,up,-1,0.75,0.1143,11,0,0.092,,,,,,165,0,165,0,1,,,,,
,,248924,001,2023-07-31_20h47.25.133,arm3_eps,2022.2.5,Linux x86_64,58.27505828,609d93dea742beade6157bdc,64c7fed44a04f777bb1e18ce,64c800c02bbc19106020c9f9,right,-1,0.75,0.1143,11,-0.014005535,0.699,,,,,,166,0,166,0,1,,,,,
,,248924,001,2023-07-31_20h47.25.133,arm3_eps,2022.2.5,Linux x86_64,58.27505828,609d93dea742beade6157bdc,64c7fed44a04f777bb1e18ce,64c800c02bbc19106020c9f9,up,1,0.75,0.1143,10,0,0.085,,,,,,167,0,167,0,1,,,,,
,,248924,001,2023-07-31_20h47.25.133,arm3_eps,2022.2.5,Linux x86_64,58.27505828,609d93dea742beade6157bdc,64c7fed44a04f777bb1e18ce,64c800c02bbc19106020c9f9,right,1,0.75,0.1143,10,0.010532285,0.67,,,,,,168,0,168,0,1,,,,,
,,248924,001,2023-07-31_20h47.25.133,arm3_eps,2022.2.5,Linux x86_64,58.27505828,609d93dea742beade6157bdc,64c7fed44a04f777bb1e18ce,64c800c02bbc19106020c9f9,up,1,0.75,0.1143,11,0,0.101,,,,,,169,0,169,0,1,,,,,
,,248924,001,2023-07-31_20h47.25.133,arm3_eps,2022.2.5,Linux x86_64,58.27505828,609d93dea742beade6157bdc,64c7fed44a04f777bb1e18ce,64c800c02bbc19106020c9f9,right,1,0.75,0.1143,11,-0.003710724,0.718,,,,,,170,0,170,0,1,,,,,
,,248924,001,2023-07-31_20h47.25.133,arm3_eps,2022.2.5,Linux x86_64,58.27505828,609d93dea742beade6157bdc,64c7fed44a04f777bb1e18ce,64c800c02bbc19106020c9f9,up,1,0.75,0.1143,12,0,0.118,,,,,,171,0,171,0,1,,,,,
,,248924,001,2023-07-31_20h47.25.133,arm3_eps,2022.2.5,Linux x86_64,58.27505828,609d93dea742beade6157bdc,64c7fed44a04f777bb1e18ce,64c800c02bbc19106020c9f9,right,1,0.75,0.1143,12,-0.02053065,0.62,,,,,,172,0,172,0,1,,,,,
,,248924,001,2023-07-31_20h47.25.133,arm3_eps,2022.2.5,Linux x86_64,58.27505828,609d93dea742beade6157bdc,64c7fed44a04f777bb1e18ce,64c800c02bbc19106020c9f9,up,1,0.75,0.1143,12,0,0.167,,,,,,173,0,173,0,1,,,,,
,,248924,001,2023-07-31_20h47.25.133,arm3_eps,2022.2.5,Linux x86_64,58.27505828,609d93dea742beade6157bdc,64c7fed44a04f777bb1e18ce,64c800c02bbc19106020c9f9,right,1,0.75,0.1143,12,0.013890873,0.604,,,,,,174,0,174,0,1,,,,,
,,248924,001,2023-07-31_20h47.25.133,arm3_eps,2022.2.5,Linux x86_64,58.27505828,609d93dea742beade6157bdc,64c7fed44a04f777bb1e18ce,64c800c02bbc19106020c9f9,down,1,0.75,0.1143,12,0,0.26,,,,,,175,0,175,0,1,,,,,
,,248924,001,2023-07-31_20h47.25.133,arm3_eps,2022.2.5,Linux x86_64,58.27505828,609d93dea742beade6157bdc,64c7fed44a04f777bb1e18ce,64c800c02bbc19106020c9f9,right,1,0.75,0.1143,12,-0.041855419,0.679,,,,,,176,0,176,0,1,,,,,
,,248924,001,2023-07-31_20h47.25.133,arm3_eps,2022.2.5,Linux x86_64,58.27505828,609d93dea742beade6157bdc,64c7fed44a04f777bb1e18ce,64c800c02bbc19106020c9f9,up,1,0.75,0.1143,13,0,0.204,,,,,,177,0,177,0,1,,,,,
,,248924,001,2023-07-31_20h47.25.133,arm3_eps,2022.2.5,Linux x86_64,58.27505828,609d93dea742beade6157bdc,64c7fed44a04f777bb1e18ce,64c800c02bbc19106020c9f9,right,1,0.75,0.1143,13,0.012034582,0.833,,,,,,178,0,178,0,1,,,,,
,,248924,001,2023-07-31_20h47.25.133,arm3_eps,2022.2.5,Linux x86_64,58.27505828,609d93dea742beade6157bdc,64c7fed44a04f777bb1e18ce,64c800c02bbc19106020c9f9,up,1,0.75,0.1143,14,0,0.194,,,,,,179,0,179,0,1,,,,,
,,248924,001,2023-07-31_20h47.25.133,arm3_eps,2022.2.5,Linux x86_64,58.27505828,609d93dea742beade6157bdc,64c7fed44a04f777bb1e18ce,64c800c02bbc19106020c9f9,down,1,0.75,0.1143,14,0,1.45,,,,,,180,0,180,0,1,,,,,
,,248924,001,2023-07-31_20h47.25.133,arm3_eps,2022.2.5,Linux x86_64,58.27505828,609d93dea742beade6157bdc,64c7fed44a04f777bb1e18ce,64c800c02bbc19106020c9f9,up,1,0.75,0.1143,15,0,0.764,,,,,,181,0,181,0,1,,,,,
,,248924,001,2023-07-31_20h47.25.133,arm3_eps,2022.2.5,Linux x86_64,58.27505828,609d93dea742beade6157bdc,64c7fed44a04f777bb1e18ce,64c800c02bbc19106020c9f9,down,1,0.75,0.1143,14,0,0.922,,,,,,182,0,182,0,1,,,,,
,,248924,001,2023-07-31_20h47.25.133,arm3_eps,2022.2.5,Linux x86_64,58.27505828,609d93dea742beade6157bdc,64c7fed44a04f777bb1e18ce,64c800c02bbc19106020c9f9,up,1,0.75,0.1143,15,0,0.517,,,,,,183,0,183,0,1,,,,,
,,248924,001,2023-07-31_20h47.25.133,arm3_eps,2022.2.5,Linux x86_64,58.27505828,609d93dea742beade6157bdc,64c7fed44a04f777bb1e18ce,64c800c02bbc19106020c9f9,up,1,0.75,0.1143,16,0,0.866,,,,,,184,0,184,0,1,,,,,
,,248924,001,2023-07-31_20h47.25.133,arm3_eps,2022.2.5,Linux x86_64,58.27505828,609d93dea742beade6157bdc,64c7fed44a04f777bb1e18ce,64c800c02bbc19106020c9f9,down,1,0.75,0.1143,15,0,1.131,,,,,,185,0,185,0,1,,,,,
,,248924,001,2023-07-31_20h47.25.133,arm3_eps,2022.2.5,Linux x86_64,58.27505828,609d93dea742beade6157bdc,64c7fed44a04f777bb1e18ce,64c800c02bbc19106020c9f9,up,1,0.75,0.1143,16,0,0.451,,,,,,186,0,186,0,1,,,,,
,,248924,001,2023-07-31_20h47.25.133,arm3_eps,2022.2.5,Linux x86_64,58.27505828,609d93dea742beade6157bdc,64c7fed44a04f777bb1e18ce,64c800c02bbc19106020c9f9,up,-1,0.75,0.1143,17,0,1.082,,,,,,187,0,187,0,1,,,,,
,,248924,001,2023-07-31_20h47.25.133,arm3_eps,2022.2.5,Linux x86_64,58.27505828,609d93dea742beade6157bdc,64c7fed44a04f777bb1e18ce,64c800c02bbc19106020c9f9,down,-1,0.75,0.1143,18,0,1.004,,,,,,188,0,188,0,1,,,,,
,,248924,001,2023-07-31_20h47.25.133,arm3_eps,2022.2.5,Linux x86_64,58.27505828,609d93dea742beade6157bdc,64c7fed44a04f777bb1e18ce,64c800c02bbc19106020c9f9,up,-1,0.75,0.1143,17,0,1.284,,,,,,189,0,189,0,1,,,,,
,,248924,001,2023-07-31_20h47.25.133,arm3_eps,2022.2.5,Linux x86_64,58.27505828,609d93dea742beade6157bdc,64c7fed44a04f777bb1e18ce,64c800c02bbc19106020c9f9,right,-1,0.75,0.1143,17,-0.002452514,0.949,,,,,,190,0,190,0,1,,,,,
,,248924,001,2023-07-31_20h47.25.133,arm3_eps,2022.2.5,Linux x86_64,58.27505828,609d93dea742beade6157bdc,64c7fed44a04f777bb1e18ce,64c800c02bbc19106020c9f9,up,-1,0.75,0.1143,17,0,0.427,,,,,,191,0,191,0,1,,,,,
,,248924,001,2023-07-31_20h47.25.133,arm3_eps,2022.2.5,Linux x86_64,58.27505828,609d93dea742beade6157bdc,64c7fed44a04f777bb1e18ce,64c800c02bbc19106020c9f9,down,-1,0.75,0.1143,18,0,0.853,,,,,,192,0,192,0,1,,,,,
,,248924,001,2023-07-31_20h47.25.133,arm3_eps,2022.2.5,Linux x86_64,58.27505828,609d93dea742beade6157bdc,64c7fed44a04f777bb1e18ce,64c800c02bbc19106020c9f9,right,-1,0.75,0.1143,18,-0.018102827,1.636,,,,,,193,0,193,0,1,,,,,
,,248924,001,2023-07-31_20h47.25.133,arm3_eps,2022.2.5,Linux x86_64,58.27505828,609d93dea742beade6157bdc,64c7fed44a04f777bb1e18ce,64c800c02bbc19106020c9f9,right,-1,0.75,0.1143,18,-0.026906808,0.154,,,,,,194,0,194,0,1,,,,,
,,248924,001,2023-07-31_20h47.25.133,arm3_eps,2022.2.5,Linux x86_64,58.27505828,609d93dea742beade6157bdc,64c7fed44a04f777bb1e18ce,64c800c02bbc19106020c9f9,up,-1,0.75,0.1143,18,0,0.476,,,,,,195,0,195,0,1,,,,,
,,248924,001,2023-07-31_20h47.25.133,arm3_eps,2022.2.5,Linux x86_64,58.27505828,609d93dea742beade6157bdc,64c7fed44a04f777bb1e18ce,64c800c02bbc19106020c9f9,right,-1,0.75,0.1143,18,0.002188321,1.064,,,,,,196,0,196,0,1,,,,,
,,248924,001,2023-07-31_20h47.25.133,arm3_eps,2022.2.5,Linux x86_64,58.27505828,609d93dea742beade6157bdc,64c7fed44a04f777bb1e18ce,64c800c02bbc19106020c9f9,up,-1,0.75,0.1143,17,0,0.204,,,,,,197,0,197,0,1,,,,,
,,248924,001,2023-07-31_20h47.25.133,arm3_eps,2022.2.5,Linux x86_64,58.27505828,609d93dea742beade6157bdc,64c7fed44a04f777bb1e18ce,64c800c02bbc19106020c9f9,right,-1,0.75,0.1143,17,0.023012874,0.832,,,,,,198,0,198,0,1,,,,,
,,248924,001,2023-07-31_20h47.25.133,arm3_eps,2022.2.5,Linux x86_64,58.27505828,609d93dea742beade6157bdc,64c7fed44a04f777bb1e18ce,64c800c02bbc19106020c9f9,up,-1,0.75,0.1143,16,0,0.594,,,,,,199,0,199,0,1,,,,,
,,248924,001,2023-07-31_20h47.25.133,arm3_eps,2022.2.5,Linux x86_64,58.27505828,609d93dea742beade6157bdc,64c7fed44a04f777bb1e18ce,64c800c02bbc19106020c9f9,down,-1,0.75,0.1143,17,0,1.099,,,,,,200,0,200,0,1,,,,,
,,248924,001,2023-07-31_20h47.25.133,arm3_eps,2022.2.5,Linux x86_64,58.27505828,609d93dea742beade6157bdc,64c7fed44a04f777bb1e18ce,64c800c02bbc19106020c9f9,right,-1,0.75,0.1143,17,-0.011560203,1.867,,,,,,201,0,201,0,1,,,,,
,,248924,001,2023-07-31_20h47.25.133,arm3_eps,2022.2.5,Linux x86_64,58.27505828,609d93dea742beade6157bdc,64c7fed44a04f777bb1e18ce,64c800c02bbc19106020c9f9,up,-1,0.75,0.1143,16,0,0.639,,,,,,202,0,202,0,1,,,,,
,,248924,001,2023-07-31_20h47.25.133,arm3_eps,2022.2.5,Linux x86_64,58.27505828,609d93dea742beade6157bdc,64c7fed44a04f777bb1e18ce,64c800c02bbc19106020c9f9,down,-1,0.75,0.1143,17,0,1.009,,,,,,203,0,203,0,1,,,,,
,,248924,001,2023-07-31_20h47.25.133,arm3_eps,2022.2.5,Linux x86_64,58.27505828,609d93dea742beade6157bdc,64c7fed44a04f777bb1e18ce,64c800c02bbc19106020c9f9,right,-1,0.75,0.1143,17,-0.012577043,1.084,,,,,,204,0,204,0,1,,,,,
,,248924,001,2023-07-31_20h47.25.133,arm3_eps,2022.2.5,Linux x86_64,58.27505828,609d93dea742beade6157bdc,64c7fed44a04f777bb1e18ce,64c800c02bbc19106020c9f9,up,1,0.75,0.1143,17,0,0.835,,,,,,205,0,205,0,1,,,,,
,,248924,001,2023-07-31_20h47.25.133,arm3_eps,2022.2.5,Linux x86_64,58.27505828,609d93dea742beade6157bdc,64c7fed44a04f777bb1e18ce,64c800c02bbc19106020c9f9,right,1,0.75,0.1143,17,0.002459922,2.616,,,,,,206,0,206,0,1,,,,,
,,248924,001,2023-07-31_20h47.25.133,arm3_eps,2022.2.5,Linux x86_64,58.27505828,609d93dea742beade6157bdc,64c7fed44a04f777bb1e18ce,64c800c02bbc19106020c9f9,up,1,0.75,0.1143,18,0,0.501,,,,,,207,0,207,0,1,,,,,
,,248924,001,2023-07-31_20h47.25.133,arm3_eps,2022.2.5,Linux x86_64,58.27505828,609d93dea742beade6157bdc,64c7fed44a04f777bb1e18ce,64c800c02bbc19106020c9f9,right,1,0.75,0.1143,18,0.005636394,1.001,,,,,,208,0,208,0,1,,,,,
,,248924,001,2023-07-31_20h47.25.133,arm3_eps,2022.2.5,Linux x86_64,58.27505828,609d93dea742beade6157bdc,64c7fed44a04f777bb1e18ce,64c800c02bbc19106020c9f9,up,1,0.75,0.1143,19,0,0.208,,,,,,209,0,209,0,1,,,,,
,,248924,001,2023-07-31_20h47.25.133,arm3_eps,2022.2.5,Linux x86_64,58.27505828,609d93dea742beade6157bdc,64c7fed44a04f777bb1e18ce,64c800c02bbc19106020c9f9,right,1,0.75,0.1143,19,-0.016706707,0.739,,,,,,210,0,210,0,1,,,,,
,,248924,001,2023-07-31_20h47.25.133,arm3_eps,2022.2.5,Linux x86_64,58.27505828,609d93dea742beade6157bdc,64c7fed44a04f777bb1e18ce,64c800c02bbc19106020c9f9,up,1,0.75,0.1143,20,0,0.203,,,,,,211,0,211,0,1,,,,,
,,248924,001,2023-07-31_20h47.25.133,arm3_eps,2022.2.5,Linux x86_64,58.27505828,609d93dea742beade6157bdc,64c7fed44a04f777bb1e18ce,64c800c02bbc19106020c9f9,right,1,0.75,0.1143,20,0.033123432,0.702,,,,,,212,0,212,0,1,,,,,
,,248924,001,2023-07-31_20h47.25.133,arm3_eps,2022.2.5,Linux x86_64,58.27505828,609d93dea742beade6157bdc,64c7fed44a04f777bb1e18ce,64c800c02bbc19106020c9f9,down,1,0.75,0.1143,19,0,0.202,,,,,,213,0,213,0,1,,,,,
,,248924,001,2023-07-31_20h47.25.133,arm3_eps,2022.2.5,Linux x86_64,58.27505828,609d93dea742beade6157bdc,64c7fed44a04f777bb1e18ce,64c800c02bbc19106020c9f9,right,1,0.75,0.1143,19,-0.002185954,0.682,,,,,,214,0,214,0,1,,,,,
,,248924,001,2023-07-31_20h47.25.133,arm3_eps,2022.2.5,Linux x86_64,58.27505828,609d93dea742beade6157bdc,64c7fed44a04f777bb1e18ce,64c800c02bbc19106020c9f9,up,1,0.75,0.1143,20,0,0.193,,,,,,215,0,215,0,1,,,,,
,,248924,001,2023-07-31_20h47.25.133,arm3_eps,2022.2.5,Linux x86_64,58.27505828,609d93dea742beade6157bdc,64c7fed44a04f777bb1e18ce,64c800c02bbc19106020c9f9,right,1,0.75,0.1143,20,0.003035313,0.757,,,,,,216,0,216,0,1,,,,,
,,248924,001,2023-07-31_20h47.25.133,arm3_eps,2022.2.5,Linux x86_64,58.27505828,609d93dea742beade6157bdc,64c7fed44a04f777bb1e18ce,64c800c02bbc19106020c9f9,up,1,0.75,0.1143,21,0,0.185,,,,,,217,0,217,0,1,,,,,
,,248924,001,2023-07-31_20h47.25.133,arm3_eps,2022.2.5,Linux x86_64,58.27505828,609d93dea742beade6157bdc,64c7fed44a04f777bb1e18ce,64c800c02bbc19106020c9f9,right,1,0.75,0.1143,21,0.011955078,0.654,,,,,,218,0,218,0,1,,,,,
,,248924,001,2023-07-31_20h47.25.133,arm3_eps,2022.2.5,Linux x86_64,58.27505828,609d93dea742beade6157bdc,64c7fed44a04f777bb1e18ce,64c800c02bbc19106020c9f9,up,1,0.75,0.1143,22,0,0.166,,,,,,219,0,219,0,1,,,,,
,,248924,001,2023-07-31_20h47.25.133,arm3_eps,2022.2.5,Linux x86_64,58.27505828,609d93dea742beade6157bdc,64c7fed44a04f777bb1e18ce,64c800c02bbc19106020c9f9,right,1,0.75,0.1143,22,0.001292847,0.875,,,,,,220,0,220,0,1,,,,,
,,248924,001,2023-07-31_20h47.25.133,arm3_eps,2022.2.5,Linux x86_64,58.27505828,609d93dea742beade6157bdc,64c7fed44a04f777bb1e18ce,64c800c02bbc19106020c9f9,up,1,0.75,0.1143,23,0,0.203,,,,,,221,0,221,0,1,,,,,
,,248924,001,2023-07-31_20h47.25.133,arm3_eps,2022.2.5,Linux x86_64,58.27505828,609d93dea742beade6157bdc,64c7fed44a04f777bb1e18ce,64c800c02bbc19106020c9f9,right,1,0.75,0.1143,23,0.015148417,0.866,,,,,,222,0,222,0,1,,,,,
,,248924,001,2023-07-31_20h47.25.133,arm3_eps,2022.2.5,Linux x86_64,58.27505828,609d93dea742beade6157bdc,64c7fed44a04f777bb1e18ce,64c800c02bbc19106020c9f9,up,1,0.75,0.1143,24,0,0.175,,,,,,223,0,223,0,1,,,,,
,,248924,001,2023-07-31_20h47.25.133,arm3_eps,2022.2.5,Linux x86_64,58.27505828,609d93dea742beade6157bdc,64c7fed44a04f777bb1e18ce,64c800c02bbc19106020c9f9,right,1,0.75,0.1143,24,0.018302958,0.967,,,,,,224,0,224,0,1,,,,,
,,248924,001,2023-07-31_20h47.25.133,arm3_eps,2022.2.5,Linux x86_64,58.27505828,609d93dea742beade6157bdc,64c7fed44a04f777bb1e18ce,64c800c02bbc19106020c9f9,up,1,0.75,0.1143,25,0,0.159,,,,,,225,0,225,0,1,,,,,
,,248924,001,2023-07-31_20h47.25.133,arm3_eps,2022.2.5,Linux x86_64,58.27505828,609d93dea742beade6157bdc,64c7fed44a04f777bb1e18ce,64c800c02bbc19106020c9f9,right,1,0.75,0.1143,25,0.022499579,0.804,,,,,,226,0,226,0,1,,,,,
,,248924,001,2023-07-31_20h47.25.133,arm3_eps,2022.2.5,Linux x86_64,58.27505828,609d93dea742beade6157bdc,64c7fed44a04f777bb1e18ce,64c800c02bbc19106020c9f9,up,1,0.75,0.1143,26,0,0.135,,,,,,227,0,227,0,1,,,,,
,,248924,001,2023-07-31_20h47.25.133,arm3_eps,2022.2.5,Linux x86_64,58.27505828,609d93dea742beade6157bdc,64c7fed44a04f777bb1e18ce,64c800c02bbc19106020c9f9,right,1,0.75,0.1143,26,0.018234256,0.749,,,,,,228,0,228,0,1,,,,,
,,248924,001,2023-07-31_20h47.25.133,arm3_eps,2022.2.5,Linux x86_64,58.27505828,609d93dea742beade6157bdc,64c7fed44a04f777bb1e18ce,64c800c02bbc19106020c9f9,up,1,0.75,0.1143,27,0,0.178,,,,,,229,0,229,0,1,,,,,
,,248924,001,2023-07-31_20h47.25.133,arm3_eps,2022.2.5,Linux x86_64,58.27505828,609d93dea742beade6157bdc,64c7fed44a04f777bb1e18ce,64c800c02bbc19106020c9f9,right,1,0.75,0.1143,27,0.004806501,0.76,,,,,,230,0,230,0,1,,,,,
,,248924,001,2023-07-31_20h47.25.133,arm3_eps,2022.2.5,Linux x86_64,58.27505828,609d93dea742beade6157bdc,64c7fed44a04f777bb1e18ce,64c800c02bbc19106020c9f9,up,1,0.75,0.1143,28,0,0.187,,,,,,231,0,231,0,1,,,,,
,,248924,001,2023-07-31_20h47.25.133,arm3_eps,2022.2.5,Linux x86_64,58.27505828,609d93dea742beade6157bdc,64c7fed44a04f777bb1e18ce,64c800c02bbc19106020c9f9,right,1,0.75,0.1143,28,0.007160756,0.817,,,,,,232,0,232,0,1,,,,,
,,248924,001,2023-07-31_20h47.25.133,arm3_eps,2022.2.5,Linux x86_64,58.27505828,609d93dea742beade6157bdc,64c7fed44a04f777bb1e18ce,64c800c02bbc19106020c9f9,down,1,0.75,0.1143,27,0,0.13,,,,,,233,0,233,0,1,,,,,
,,248924,001,2023-07-31_20h47.25.133,arm3_eps,2022.2.5,Linux x86_64,58.27505828,609d93dea742beade6157bdc,64c7fed44a04f777bb1e18ce,64c800c02bbc19106020c9f9,right,1,0.75,0.1143,27,0.015461501,0.775,,,,,,234,0,234,0,1,,,,,
,,248924,001,2023-07-31_20h47.25.133,arm3_eps,2022.2.5,Linux x86_64,58.27505828,609d93dea742beade6157bdc,64c7fed44a04f777bb1e18ce,64c800c02bbc19106020c9f9,up,1,0.75,0.1143,28,0,0.124,,,,,,235,0,235,0,1,,,,,
,,248924,001,2023-07-31_20h47.25.133,arm3_eps,2022.2.5,Linux x86_64,58.27505828,609d93dea742beade6157bdc,64c7fed44a04f777bb1e18ce,64c800c02bbc19106020c9f9,right,1,0.75,0.1143,28,-0.048561177,0.804,,,,,,236,0,236,0,1,,,,,
,,248924,001,2023-07-31_20h47.25.133,arm3_eps,2022.2.5,Linux x86_64,58.27505828,609d93dea742beade6157bdc,64c7fed44a04f777bb1e18ce,64c800c02bbc19106020c9f9,up,-1,0.75,0.1143,29,0,0.201,,,,,,237,0,237,0,1,,,,,
,,248924,001,2023-07-31_20h47.25.133,arm3_eps,2022.2.5,Linux x86_64,58.27505828,609d93dea742beade6157bdc,64c7fed44a04f777bb1e18ce,64c800c02bbc19106020c9f9,right,-1,0.75,0.1143,29,0.008699655,0.749,,,,,,238,0,238,0,1,,,,,
,,248924,001,2023-07-31_20h47.25.133,arm3_eps,2022.2.5,Linux x86_64,58.27505828,609d93dea742beade6157bdc,64c7fed44a04f777bb1e18ce,64c800c02bbc19106020c9f9,up,-1,0.75,0.1143,29,0,0.173,,,,,,239,0,239,0,1,,,,,
,,248924,001,2023-07-31_20h47.25.133,arm3_eps,2022.2.5,Linux x86_64,58.27505828,609d93dea742beade6157bdc,64c7fed44a04f777bb1e18ce,64c800c02bbc19106020c9f9,right,-1,0.75,0.1143,29,-0.027027008,0.771,,,,,,240,0,240,0,1,,,,,
,,248924,001,2023-07-31_20h47.25.133,arm3_eps,2022.2.5,Linux x86_64,58.27505828,609d93dea742beade6157bdc,64c7fed44a04f777bb1e18ce,64c800c02bbc19106020c9f9,down,-1,0.75,0.1143,30,0,0.118,,,,,,241,0,241,0,1,,,,,
,,248924,001,2023-07-31_20h47.25.133,arm3_eps,2022.2.5,Linux x86_64,58.27505828,609d93dea742beade6157bdc,64c7fed44a04f777bb1e18ce,64c800c02bbc19106020c9f9,right,-1,0.75,0.1143,30,-0.040097908,0.799,,,,,,242,0,242,0,1,,,,,
,,248924,001,2023-07-31_20h47.25.133,arm3_eps,2022.2.5,Linux x86_64,58.27505828,609d93dea742beade6157bdc,64c7fed44a04f777bb1e18ce,64c800c02bbc19106020c9f9,up,-1,0.75,0.1143,29,0,0.143,,,,,,243,0,243,0,1,,,,,
,,248924,001,2023-07-31_20h47.25.133,arm3_eps,2022.2.5,Linux x86_64,58.27505828,609d93dea742beade6157bdc,64c7fed44a04f777bb1e18ce,64c800c02bbc19106020c9f9,right,-1,0.75,0.1143,29,-0.018908913,0.776,,,,,,244,0,244,0,1,,,,,
,,248924,001,2023-07-31_20h47.25.133,arm3_eps,2022.2.5,Linux x86_64,58.27505828,609d93dea742beade6157bdc,64c7fed44a04f777bb1e18ce,64c800c02bbc19106020c9f9,down,-1,0.75,0.1143,30,0,0.09,,,,,,245,0,245,0,1,,,,,
,,248924,001,2023-07-31_20h47.25.133,arm3_eps,2022.2.5,Linux x86_64,58.27505828,609d93dea742beade6157bdc,64c7fed44a04f777bb1e18ce,64c800c02bbc19106020c9f9,right,-1,0.75,0.1143,30,0.007463878,0.803,,,,,,246,0,246,0,1,,,,,
,,248924,001,2023-07-31_20h47.25.133,arm3_eps,2022.2.5,Linux x86_64,58.27505828,609d93dea742beade6157bdc,64c7fed44a04f777bb1e18ce,64c800c02bbc19106020c9f9,up,-1,0.75,0.1143,29,0,0.168,,,,,,247,0,247,0,1,,,,,
,,248924,001,2023-07-31_20h47.25.133,arm3_eps,2022.2.5,Linux x86_64,58.27505828,609d93dea742beade6157bdc,64c7fed44a04f777bb1e18ce,64c800c02bbc19106020c9f9,right,-1,0.75,0.1143,29,-0.01528721,0.714,,,,,,248,0,248,0,1,,,,,
,,248924,001,2023-07-31_20h47.25.133,arm3_eps,2022.2.5,Linux x86_64,58.27505828,609d93dea742beade6157bdc,64c7fed44a04f777bb1e18ce,64c800c02bbc19106020c9f9,down,-1,0.75,0.1143,30,0,0.158,,,,,,249,0,249,0,1,,,,,
,,248924,001,2023-07-31_20h47.25.133,arm3_eps,2022.2.5,Linux x86_64,58.27505828,609d93dea742beade6157bdc,64c7fed44a04f777bb1e18ce,64c800c02bbc19106020c9f9,right,-1,0.75,0.1143,30,-0.023500485,0.806,,,,,,250,0,250,0,1,,,,,
