space_bar.keys,space_bar.rt,participant,session,date,expName,psychopyVersion,OS,frameRate,PROLIFIC_PID,STUDY_ID,SESSION_ID,resp.keys,state,q_prob,eps_prob,score,price,resp.rt,train.thisRepN,train.thisTrialN,train.thisN,train.thisIndex,train.ran,steps.thisRepN,steps.thisTrialN,steps.thisN,steps.thisIndex,steps.ran,blocks.thisRepN,blocks.thisTrialN,blocks.thisN,blocks.thisIndex,blocks.ran
space,8.2444,271559,001,2023-07-31_19h46.38.700,arm3_eps,2022.2.5,MacIntel,60.04202942,60cf8cd5edc8abe7af47f138,64c7fed44a04f777bb1e18ce,64c800d7548c6b5d0d21ead7,,,,,,,,,,,,,,,,,,,,,,
space,0.7602,271559,001,2023-07-31_19h46.38.700,arm3_eps,2022.2.5,MacIntel,60.04202942,60cf8cd5edc8abe7af47f138,64c7fed44a04f777bb1e18ce,64c800d7548c6b5d0d21ead7,,,,,,,,,,,,,,,,,,,,,,
space,5.1612,271559,001,2023-07-31_19h46.38.700,arm3_eps,2022.2.5,MacIntel,60.04202942,60cf8cd5edc8abe7af47f138,64c7fed44a04f777bb1e18ce,64c800d7548c6b5d0d21ead7,,,,,,,,,,,,,,,,,,,,,,
space,3.288,271559,001,2023-07-31_19h46.38.700,arm3_eps,2022.2.5,MacIntel,60.04202942,60cf8cd5edc8abe7af47f138,64c7fed44a04f777bb1e18ce,64c800d7548c6b5d0d21ead7,,,,,,,,,,,,,,,,,,,,,,
space,7.5671,271559,001,2023-07-31_19h46.38.700,arm3_eps,2022.2.5,MacIntel,60.04202942,60cf8cd5edc8abe7af47f138,64c7fed44a04f777bb1e18ce,64c800d7548c6b5d0d21ead7,,,,,,,,,,,,,,,,,,,,,,
space,3.1318,271559,001,2023-07-31_19h46.38.700,arm3_eps,2022.2.5,MacIntel,60.04202942,60cf8cd5edc8abe7af47f138,64c7fed44a04f777bb1e18ce,64c800d7548c6b5d0d21ead7,,,,,,,,,,,,,,,,,,,,,,
space,0.8513,271559,001,2023-07-31_19h46.38.700,arm3_eps,2022.2.5,MacIntel,60.04202942,60cf8cd5edc8abe7af47f138,64c7fed44a04f777bb1e18ce,64c800d7548c6b5d0d21ead7,,,,,,,,,,,,,,,,,,,,,,
,,271559,001,2023-07-31_19h46.38.700,arm3_eps,2022.2.5,MacIntel,60.04202942,60cf8cd5edc8abe7af47f138,64c7fed44a04f777bb1e18ce,64c800d7548c6b5d0d21ead7,right,-1,1,0.2429,0,0.015908942,1.2484,0,0,0,0,1,,,,,,,,,,
,,271559,001,2023-07-31_19h46.38.700,arm3_eps,2022.2.5,MacIntel,60.04202942,60cf8cd5edc8abe7af47f138,64c7fed44a04f777bb1e18ce,64c800d7548c6b5d0d21ead7,right,-1,1,0.2429,0,0.004409383,3.1614,1,0,1,0,1,,,,,,,,,,
,,271559,001,2023-07-31_19h46.38.700,arm3_eps,2022.2.5,MacIntel,60.04202942,60cf8cd5edc8abe7af47f138,64c7fed44a04f777bb1e18ce,64c800d7548c6b5d0d21ead7,right,-1,1,0.2429,0,-0.012068129,0.394,2,0,2,0,1,,,,,,,,,,
,,271559,001,2023-07-31_19h46.38.700,arm3_eps,2022.2.5,MacIntel,60.04202942,60cf8cd5edc8abe7af47f138,64c7fed44a04f777bb1e18ce,64c800d7548c6b5d0d21ead7,right,-1,1,0.2429,0,-0.030647342,0.2663,3,0,3,0,1,,,,,,,,,,
,,271559,001,2023-07-31_19h46.38.700,arm3_eps,2022.2.5,MacIntel,60.04202942,60cf8cd5edc8abe7af47f138,64c7fed44a04f777bb1e18ce,64c800d7548c6b5d0d21ead7,right,-1,1,0.2429,0,-0.015757703,0.2879,4,0,4,0,1,,,,,,,,,,
,,271559,001,2023-07-31_19h46.38.700,arm3_eps,2022.2.5,MacIntel,60.04202942,60cf8cd5edc8abe7af47f138,64c7fed44a04f777bb1e18ce,64c800d7548c6b5d0d21ead7,right,-1,1,0.2429,0,-0.03551621,0.4179,5,0,5,0,1,,,,,,,,,,
,,271559,001,2023-07-31_19h46.38.700,arm3_eps,2022.2.5,MacIntel,60.04202942,60cf8cd5edc8abe7af47f138,64c7fed44a04f777bb1e18ce,64c800d7548c6b5d0d21ead7,right,-1,1,0.2429,0,-0.048275989,0.218,6,0,6,0,1,,,,,,,,,,
,,271559,001,2023-07-31_19h46.38.700,arm3_eps,2022.2.5,MacIntel,60.04202942,60cf8cd5edc8abe7af47f138,64c7fed44a04f777bb1e18ce,64c800d7548c6b5d0d21ead7,down,1,1,0.2429,1,0,0.3239,7,0,7,0,1,,,,,,,,,,
,,271559,001,2023-07-31_19h46.38.700,arm3_eps,2022.2.5,MacIntel,60.04202942,60cf8cd5edc8abe7af47f138,64c7fed44a04f777bb1e18ce,64c800d7548c6b5d0d21ead7,right,1,1,0.2429,1,-0.002695581,1.018,8,0,8,0,1,,,,,,,,,,
,,271559,001,2023-07-31_19h46.38.700,arm3_eps,2022.2.5,MacIntel,60.04202942,60cf8cd5edc8abe7af47f138,64c7fed44a04f777bb1e18ce,64c800d7548c6b5d0d21ead7,right,1,1,0.2429,1,0.008279264,0.2105,9,0,9,0,1,,,,,,,,,,
,,271559,001,2023-07-31_19h46.38.700,arm3_eps,2022.2.5,MacIntel,60.04202942,60cf8cd5edc8abe7af47f138,64c7fed44a04f777bb1e18ce,64c800d7548c6b5d0d21ead7,right,1,1,0.2429,1,0.028201433,0.1889,10,0,10,0,1,,,,,,,,,,
,,271559,001,2023-07-31_19h46.38.700,arm3_eps,2022.2.5,MacIntel,60.04202942,60cf8cd5edc8abe7af47f138,64c7fed44a04f777bb1e18ce,64c800d7548c6b5d0d21ead7,right,1,1,0.2429,1,0.003324324,0.3951,11,0,11,0,1,,,,,,,,,,
,,271559,001,2023-07-31_19h46.38.700,arm3_eps,2022.2.5,MacIntel,60.04202942,60cf8cd5edc8abe7af47f138,64c7fed44a04f777bb1e18ce,64c800d7548c6b5d0d21ead7,right,1,1,0.2429,1,0.003213741,0.1493,12,0,12,0,1,,,,,,,,,,
,,271559,001,2023-07-31_19h46.38.700,arm3_eps,2022.2.5,MacIntel,60.04202942,60cf8cd5edc8abe7af47f138,64c7fed44a04f777bb1e18ce,64c800d7548c6b5d0d21ead7,right,1,1,0.2429,1,0.013488127,0.2103,13,0,13,0,1,,,,,,,,,,
,,271559,001,2023-07-31_19h46.38.700,arm3_eps,2022.2.5,MacIntel,60.04202942,60cf8cd5edc8abe7af47f138,64c7fed44a04f777bb1e18ce,64c800d7548c6b5d0d21ead7,right,1,1,0.2429,1,0.005579666,0.2269,14,0,14,0,1,,,,,,,,,,
,,271559,001,2023-07-31_19h46.38.700,arm3_eps,2022.2.5,MacIntel,60.04202942,60cf8cd5edc8abe7af47f138,64c7fed44a04f777bb1e18ce,64c800d7548c6b5d0d21ead7,up,-1,1,0.2429,2,0,0.2958,15,0,15,0,1,,,,,,,,,,
,,271559,001,2023-07-31_19h46.38.700,arm3_eps,2022.2.5,MacIntel,60.04202942,60cf8cd5edc8abe7af47f138,64c7fed44a04f777bb1e18ce,64c800d7548c6b5d0d21ead7,right,-1,1,0.2429,2,0.010765365,0.4273,16,0,16,0,1,,,,,,,,,,
,,271559,001,2023-07-31_19h46.38.700,arm3_eps,2022.2.5,MacIntel,60.04202942,60cf8cd5edc8abe7af47f138,64c7fed44a04f777bb1e18ce,64c800d7548c6b5d0d21ead7,right,-1,1,0.2429,2,-0.008109747,0.3732,17,0,17,0,1,,,,,,,,,,
,,271559,001,2023-07-31_19h46.38.700,arm3_eps,2022.2.5,MacIntel,60.04202942,60cf8cd5edc8abe7af47f138,64c7fed44a04f777bb1e18ce,64c800d7548c6b5d0d21ead7,right,-1,1,0.2429,2,-0.014546851,0.1846,18,0,18,0,1,,,,,,,,,,
,,271559,001,2023-07-31_19h46.38.700,arm3_eps,2022.2.5,MacIntel,60.04202942,60cf8cd5edc8abe7af47f138,64c7fed44a04f777bb1e18ce,64c800d7548c6b5d0d21ead7,right,-1,1,0.2429,2,-0.040340673,0.1451,19,0,19,0,1,,,,,,,,,,
,,271559,001,2023-07-31_19h46.38.700,arm3_eps,2022.2.5,MacIntel,60.04202942,60cf8cd5edc8abe7af47f138,64c7fed44a04f777bb1e18ce,64c800d7548c6b5d0d21ead7,right,-1,1,0.2429,2,-0.014011998,0.1794,20,0,20,0,1,,,,,,,,,,
,,271559,001,2023-07-31_19h46.38.700,arm3_eps,2022.2.5,MacIntel,60.04202942,60cf8cd5edc8abe7af47f138,64c7fed44a04f777bb1e18ce,64c800d7548c6b5d0d21ead7,right,-1,1,0.2429,2,-0.033785695,0.3272,21,0,21,0,1,,,,,,,,,,
,,271559,001,2023-07-31_19h46.38.700,arm3_eps,2022.2.5,MacIntel,60.04202942,60cf8cd5edc8abe7af47f138,64c7fed44a04f777bb1e18ce,64c800d7548c6b5d0d21ead7,down,-1,1,0.2429,3,0,0.3184,22,0,22,0,1,,,,,,,,,,
,,271559,001,2023-07-31_19h46.38.700,arm3_eps,2022.2.5,MacIntel,60.04202942,60cf8cd5edc8abe7af47f138,64c7fed44a04f777bb1e18ce,64c800d7548c6b5d0d21ead7,right,-1,1,0.2429,3,-0.014879368,0.837,23,0,23,0,1,,,,,,,,,,
,,271559,001,2023-07-31_19h46.38.700,arm3_eps,2022.2.5,MacIntel,60.04202942,60cf8cd5edc8abe7af47f138,64c7fed44a04f777bb1e18ce,64c800d7548c6b5d0d21ead7,right,-1,1,0.2429,3,-0.01825375,0.1418,24,0,24,0,1,,,,,,,,,,
,,271559,001,2023-07-31_19h46.38.700,arm3_eps,2022.2.5,MacIntel,60.04202942,60cf8cd5edc8abe7af47f138,64c7fed44a04f777bb1e18ce,64c800d7548c6b5d0d21ead7,right,-1,1,0.2429,3,-0.01607174,0.1673,25,0,25,0,1,,,,,,,,,,
,,271559,001,2023-07-31_19h46.38.700,arm3_eps,2022.2.5,MacIntel,60.04202942,60cf8cd5edc8abe7af47f138,64c7fed44a04f777bb1e18ce,64c800d7548c6b5d0d21ead7,right,-1,1,0.2429,3,-0.03715294,0.1334,26,0,26,0,1,,,,,,,,,,
,,271559,001,2023-07-31_19h46.38.700,arm3_eps,2022.2.5,MacIntel,60.04202942,60cf8cd5edc8abe7af47f138,64c7fed44a04f777bb1e18ce,64c800d7548c6b5d0d21ead7,right,-1,1,0.2429,3,-0.047744974,0.1649,27,0,27,0,1,,,,,,,,,,
,,271559,001,2023-07-31_19h46.38.700,arm3_eps,2022.2.5,MacIntel,60.04202942,60cf8cd5edc8abe7af47f138,64c7fed44a04f777bb1e18ce,64c800d7548c6b5d0d21ead7,down,-1,1,0.2429,4,0,0.2316,28,0,28,0,1,,,,,,,,,,
,,271559,001,2023-07-31_19h46.38.700,arm3_eps,2022.2.5,MacIntel,60.04202942,60cf8cd5edc8abe7af47f138,64c7fed44a04f777bb1e18ce,64c800d7548c6b5d0d21ead7,right,-1,1,0.2429,4,0.002710761,1.0093,29,0,29,0,1,,,,,,,,,,
,,271559,001,2023-07-31_19h46.38.700,arm3_eps,2022.2.5,MacIntel,60.04202942,60cf8cd5edc8abe7af47f138,64c7fed44a04f777bb1e18ce,64c800d7548c6b5d0d21ead7,right,-1,1,0.2429,4,0.007750032,0.2822,30,0,30,0,1,,,,,,,,,,
,,271559,001,2023-07-31_19h46.38.700,arm3_eps,2022.2.5,MacIntel,60.04202942,60cf8cd5edc8abe7af47f138,64c7fed44a04f777bb1e18ce,64c800d7548c6b5d0d21ead7,right,-1,1,0.2429,4,-0.026637545,0.1513,31,0,31,0,1,,,,,,,,,,
,,271559,001,2023-07-31_19h46.38.700,arm3_eps,2022.2.5,MacIntel,60.04202942,60cf8cd5edc8abe7af47f138,64c7fed44a04f777bb1e18ce,64c800d7548c6b5d0d21ead7,right,-1,1,0.2429,4,-0.045195245,0.1518,32,0,32,0,1,,,,,,,,,,
,,271559,001,2023-07-31_19h46.38.700,arm3_eps,2022.2.5,MacIntel,60.04202942,60cf8cd5edc8abe7af47f138,64c7fed44a04f777bb1e18ce,64c800d7548c6b5d0d21ead7,right,-1,1,0.2429,4,-0.074817488,0.136,33,0,33,0,1,,,,,,,,,,
,,271559,001,2023-07-31_19h46.38.700,arm3_eps,2022.2.5,MacIntel,60.04202942,60cf8cd5edc8abe7af47f138,64c7fed44a04f777bb1e18ce,64c800d7548c6b5d0d21ead7,right,-1,1,0.2429,4,-0.097953474,0.1165,34,0,34,0,1,,,,,,,,,,
,,271559,001,2023-07-31_19h46.38.700,arm3_eps,2022.2.5,MacIntel,60.04202942,60cf8cd5edc8abe7af47f138,64c7fed44a04f777bb1e18ce,64c800d7548c6b5d0d21ead7,down,-1,1,0.2429,5,0,0.4029,35,0,35,0,1,,,,,,,,,,
,,271559,001,2023-07-31_19h46.38.700,arm3_eps,2022.2.5,MacIntel,60.04202942,60cf8cd5edc8abe7af47f138,64c7fed44a04f777bb1e18ce,64c800d7548c6b5d0d21ead7,right,-1,1,0.2429,5,-0.015636047,1.9898,36,0,36,0,1,,,,,,,,,,
,,271559,001,2023-07-31_19h46.38.700,arm3_eps,2022.2.5,MacIntel,60.04202942,60cf8cd5edc8abe7af47f138,64c7fed44a04f777bb1e18ce,64c800d7548c6b5d0d21ead7,right,-1,1,0.2429,5,-0.01366725,0.2009,37,0,37,0,1,,,,,,,,,,
,,271559,001,2023-07-31_19h46.38.700,arm3_eps,2022.2.5,MacIntel,60.04202942,60cf8cd5edc8abe7af47f138,64c7fed44a04f777bb1e18ce,64c800d7548c6b5d0d21ead7,right,-1,1,0.2429,5,-0.01808973,0.1425,38,0,38,0,1,,,,,,,,,,
,,271559,001,2023-07-31_19h46.38.700,arm3_eps,2022.2.5,MacIntel,60.04202942,60cf8cd5edc8abe7af47f138,64c7fed44a04f777bb1e18ce,64c800d7548c6b5d0d21ead7,right,-1,1,0.2429,5,-0.060015372,0.1567,39,0,39,0,1,,,,,,,,,,
,,271559,001,2023-07-31_19h46.38.700,arm3_eps,2022.2.5,MacIntel,60.04202942,60cf8cd5edc8abe7af47f138,64c7fed44a04f777bb1e18ce,64c800d7548c6b5d0d21ead7,right,-1,1,0.2429,5,-0.063058055,0.1344,40,0,40,0,1,,,,,,,,,,
,,271559,001,2023-07-31_19h46.38.700,arm3_eps,2022.2.5,MacIntel,60.04202942,60cf8cd5edc8abe7af47f138,64c7fed44a04f777bb1e18ce,64c800d7548c6b5d0d21ead7,down,-1,1,0.2429,6,0,0.3517,41,0,41,0,1,,,,,,,,,,
,,271559,001,2023-07-31_19h46.38.700,arm3_eps,2022.2.5,MacIntel,60.04202942,60cf8cd5edc8abe7af47f138,64c7fed44a04f777bb1e18ce,64c800d7548c6b5d0d21ead7,right,-1,1,0.2429,6,-0.027060665,0.7907,42,0,42,0,1,,,,,,,,,,
,,271559,001,2023-07-31_19h46.38.700,arm3_eps,2022.2.5,MacIntel,60.04202942,60cf8cd5edc8abe7af47f138,64c7fed44a04f777bb1e18ce,64c800d7548c6b5d0d21ead7,right,-1,1,0.2429,6,-0.02758944,0.1604,43,0,43,0,1,,,,,,,,,,
,,271559,001,2023-07-31_19h46.38.700,arm3_eps,2022.2.5,MacIntel,60.04202942,60cf8cd5edc8abe7af47f138,64c7fed44a04f777bb1e18ce,64c800d7548c6b5d0d21ead7,right,-1,1,0.2429,6,-0.049680751,0.1304,44,0,44,0,1,,,,,,,,,,
,,271559,001,2023-07-31_19h46.38.700,arm3_eps,2022.2.5,MacIntel,60.04202942,60cf8cd5edc8abe7af47f138,64c7fed44a04f777bb1e18ce,64c800d7548c6b5d0d21ead7,down,-1,1,0.2429,7,0,0.269,45,0,45,0,1,,,,,,,,,,
,,271559,001,2023-07-31_19h46.38.700,arm3_eps,2022.2.5,MacIntel,60.04202942,60cf8cd5edc8abe7af47f138,64c7fed44a04f777bb1e18ce,64c800d7548c6b5d0d21ead7,right,-1,1,0.2429,7,0.010265247,0.8239,46,0,46,0,1,,,,,,,,,,
,,271559,001,2023-07-31_19h46.38.700,arm3_eps,2022.2.5,MacIntel,60.04202942,60cf8cd5edc8abe7af47f138,64c7fed44a04f777bb1e18ce,64c800d7548c6b5d0d21ead7,right,-1,1,0.2429,7,0.005940614,0.1492,47,0,47,0,1,,,,,,,,,,
,,271559,001,2023-07-31_19h46.38.700,arm3_eps,2022.2.5,MacIntel,60.04202942,60cf8cd5edc8abe7af47f138,64c7fed44a04f777bb1e18ce,64c800d7548c6b5d0d21ead7,right,-1,1,0.2429,7,-0.019711024,0.1603,48,0,48,0,1,,,,,,,,,,
,,271559,001,2023-07-31_19h46.38.700,arm3_eps,2022.2.5,MacIntel,60.04202942,60cf8cd5edc8abe7af47f138,64c7fed44a04f777bb1e18ce,64c800d7548c6b5d0d21ead7,right,-1,1,0.2429,7,-0.001694839,0.1528,49,0,49,0,1,,,,,,,,,,
space,9.8177,271559,001,2023-07-31_19h46.38.700,arm3_eps,2022.2.5,MacIntel,60.04202942,60cf8cd5edc8abe7af47f138,64c7fed44a04f777bb1e18ce,64c800d7548c6b5d0d21ead7,,,,,,,,,,,,,,,,,,,,,,
space,9.9751,271559,001,2023-07-31_19h46.38.700,arm3_eps,2022.2.5,MacIntel,60.04202942,60cf8cd5edc8abe7af47f138,64c7fed44a04f777bb1e18ce,64c800d7548c6b5d0d21ead7,,,,,,,,,,,,,,,,,,,,,,
space,8.845,271559,001,2023-07-31_19h46.38.700,arm3_eps,2022.2.5,MacIntel,60.04202942,60cf8cd5edc8abe7af47f138,64c7fed44a04f777bb1e18ce,64c800d7548c6b5d0d21ead7,,,,,,,,,,,,,,,,,,,,,,
space,1.0244,271559,001,2023-07-31_19h46.38.700,arm3_eps,2022.2.5,MacIntel,60.04202942,60cf8cd5edc8abe7af47f138,64c7fed44a04f777bb1e18ce,64c800d7548c6b5d0d21ead7,,,,,,,,,,,,,,,,,,,,,,
space,0.6437,271559,001,2023-07-31_19h46.38.700,arm3_eps,2022.2.5,MacIntel,60.04202942,60cf8cd5edc8abe7af47f138,64c7fed44a04f777bb1e18ce,64c800d7548c6b5d0d21ead7,,,,,,,,,,,,,,,,,,,,,,
space,0.6928,271559,001,2023-07-31_19h46.38.700,arm3_eps,2022.2.5,MacIntel,60.04202942,60cf8cd5edc8abe7af47f138,64c7fed44a04f777bb1e18ce,64c800d7548c6b5d0d21ead7,,,,,,,,,,,,,,,,,,,,,,
,,271559,001,2023-07-31_19h46.38.700,arm3_eps,2022.2.5,MacIntel,60.04202942,60cf8cd5edc8abe7af47f138,64c7fed44a04f777bb1e18ce,64c800d7548c6b5d0d21ead7,right,-1,0.75,0.2429,0,-0.029714384,0.5061,0,0,0,0,1,,,,,,,,,,
,,271559,001,2023-07-31_19h46.38.700,arm3_eps,2022.2.5,MacIntel,60.04202942,60cf8cd5edc8abe7af47f138,64c7fed44a04f777bb1e18ce,64c800d7548c6b5d0d21ead7,right,-1,0.75,0.2429,0,-0.036631896,0.2827,1,0,1,0,1,,,,,,,,,,
,,271559,001,2023-07-31_19h46.38.700,arm3_eps,2022.2.5,MacIntel,60.04202942,60cf8cd5edc8abe7af47f138,64c7fed44a04f777bb1e18ce,64c800d7548c6b5d0d21ead7,right,-1,0.75,0.2429,0,-0.03960927,0.243,2,0,2,0,1,,,,,,,,,,
,,271559,001,2023-07-31_19h46.38.700,arm3_eps,2022.2.5,MacIntel,60.04202942,60cf8cd5edc8abe7af47f138,64c7fed44a04f777bb1e18ce,64c800d7548c6b5d0d21ead7,right,-1,0.75,0.2429,0,-0.017199826,0.3912,3,0,3,0,1,,,,,,,,,,
,,271559,001,2023-07-31_19h46.38.700,arm3_eps,2022.2.5,MacIntel,60.04202942,60cf8cd5edc8abe7af47f138,64c7fed44a04f777bb1e18ce,64c800d7548c6b5d0d21ead7,down,-1,0.75,0.2429,1,0,0.3774,4,0,4,0,1,,,,,,,,,,
,,271559,001,2023-07-31_19h46.38.700,arm3_eps,2022.2.5,MacIntel,60.04202942,60cf8cd5edc8abe7af47f138,64c7fed44a04f777bb1e18ce,64c800d7548c6b5d0d21ead7,right,-1,0.75,0.2429,1,-0.026027117,1.8583,5,0,5,0,1,,,,,,,,,,
,,271559,001,2023-07-31_19h46.38.700,arm3_eps,2022.2.5,MacIntel,60.04202942,60cf8cd5edc8abe7af47f138,64c7fed44a04f777bb1e18ce,64c800d7548c6b5d0d21ead7,right,-1,0.75,0.2429,1,-0.031101765,0.162,6,0,6,0,1,,,,,,,,,,
,,271559,001,2023-07-31_19h46.38.700,arm3_eps,2022.2.5,MacIntel,60.04202942,60cf8cd5edc8abe7af47f138,64c7fed44a04f777bb1e18ce,64c800d7548c6b5d0d21ead7,right,-1,0.75,0.2429,1,-0.063872918,0.1356,7,0,7,0,1,,,,,,,,,,
,,271559,001,2023-07-31_19h46.38.700,arm3_eps,2022.2.5,MacIntel,60.04202942,60cf8cd5edc8abe7af47f138,64c7fed44a04f777bb1e18ce,64c800d7548c6b5d0d21ead7,down,1,0.75,0.2429,2,0,0.2449,8,0,8,0,1,,,,,,,,,,
,,271559,001,2023-07-31_19h46.38.700,arm3_eps,2022.2.5,MacIntel,60.04202942,60cf8cd5edc8abe7af47f138,64c7fed44a04f777bb1e18ce,64c800d7548c6b5d0d21ead7,right,1,0.75,0.2429,2,0.000113179,0.8109,9,0,9,0,1,,,,,,,,,,
,,271559,001,2023-07-31_19h46.38.700,arm3_eps,2022.2.5,MacIntel,60.04202942,60cf8cd5edc8abe7af47f138,64c7fed44a04f777bb1e18ce,64c800d7548c6b5d0d21ead7,right,1,0.75,0.2429,2,0.010112519,0.3058,10,0,10,0,1,,,,,,,,,,
,,271559,001,2023-07-31_19h46.38.700,arm3_eps,2022.2.5,MacIntel,60.04202942,60cf8cd5edc8abe7af47f138,64c7fed44a04f777bb1e18ce,64c800d7548c6b5d0d21ead7,up,-1,0.75,0.2429,3,0,0.3085,11,0,11,0,1,,,,,,,,,,
,,271559,001,2023-07-31_19h46.38.700,arm3_eps,2022.2.5,MacIntel,60.04202942,60cf8cd5edc8abe7af47f138,64c7fed44a04f777bb1e18ce,64c800d7548c6b5d0d21ead7,right,-1,0.75,0.2429,3,-0.003753473,0.7593,12,0,12,0,1,,,,,,,,,,
,,271559,001,2023-07-31_19h46.38.700,arm3_eps,2022.2.5,MacIntel,60.04202942,60cf8cd5edc8abe7af47f138,64c7fed44a04f777bb1e18ce,64c800d7548c6b5d0d21ead7,right,-1,0.75,0.2429,3,-0.023896862,0.1914,13,0,13,0,1,,,,,,,,,,
,,271559,001,2023-07-31_19h46.38.700,arm3_eps,2022.2.5,MacIntel,60.04202942,60cf8cd5edc8abe7af47f138,64c7fed44a04f777bb1e18ce,64c800d7548c6b5d0d21ead7,down,-1,0.75,0.2429,4,0,0.2435,14,0,14,0,1,,,,,,,,,,
,,271559,001,2023-07-31_19h46.38.700,arm3_eps,2022.2.5,MacIntel,60.04202942,60cf8cd5edc8abe7af47f138,64c7fed44a04f777bb1e18ce,64c800d7548c6b5d0d21ead7,right,-1,0.75,0.2429,4,0.019613259,0.8109,15,0,15,0,1,,,,,,,,,,
,,271559,001,2023-07-31_19h46.38.700,arm3_eps,2022.2.5,MacIntel,60.04202942,60cf8cd5edc8abe7af47f138,64c7fed44a04f777bb1e18ce,64c800d7548c6b5d0d21ead7,right,-1,0.75,0.2429,4,0.009291586,0.3148,16,0,16,0,1,,,,,,,,,,
,,271559,001,2023-07-31_19h46.38.700,arm3_eps,2022.2.5,MacIntel,60.04202942,60cf8cd5edc8abe7af47f138,64c7fed44a04f777bb1e18ce,64c800d7548c6b5d0d21ead7,up,1,0.75,0.2429,3,0,0.5688,17,0,17,0,1,,,,,,,,,,
,,271559,001,2023-07-31_19h46.38.700,arm3_eps,2022.2.5,MacIntel,60.04202942,60cf8cd5edc8abe7af47f138,64c7fed44a04f777bb1e18ce,64c800d7548c6b5d0d21ead7,right,1,0.75,0.2429,3,-0.007481867,0.9644,18,0,18,0,1,,,,,,,,,,
,,271559,001,2023-07-31_19h46.38.700,arm3_eps,2022.2.5,MacIntel,60.04202942,60cf8cd5edc8abe7af47f138,64c7fed44a04f777bb1e18ce,64c800d7548c6b5d0d21ead7,right,1,0.75,0.2429,3,0.023065434,0.1943,19,0,19,0,1,,,,,,,,,,
,,271559,001,2023-07-31_19h46.38.700,arm3_eps,2022.2.5,MacIntel,60.04202942,60cf8cd5edc8abe7af47f138,64c7fed44a04f777bb1e18ce,64c800d7548c6b5d0d21ead7,up,1,0.75,0.2429,3,0,0.3984,20,0,20,0,1,,,,,,,,,,
,,271559,001,2023-07-31_19h46.38.700,arm3_eps,2022.2.5,MacIntel,60.04202942,60cf8cd5edc8abe7af47f138,64c7fed44a04f777bb1e18ce,64c800d7548c6b5d0d21ead7,right,1,0.75,0.2429,3,0.027986132,0.9951,21,0,21,0,1,,,,,,,,,,
,,271559,001,2023-07-31_19h46.38.700,arm3_eps,2022.2.5,MacIntel,60.04202942,60cf8cd5edc8abe7af47f138,64c7fed44a04f777bb1e18ce,64c800d7548c6b5d0d21ead7,right,1,0.75,0.2429,3,0.050240406,0.1781,22,0,22,0,1,,,,,,,,,,
,,271559,001,2023-07-31_19h46.38.700,arm3_eps,2022.2.5,MacIntel,60.04202942,60cf8cd5edc8abe7af47f138,64c7fed44a04f777bb1e18ce,64c800d7548c6b5d0d21ead7,right,1,0.75,0.2429,3,0.049202294,0.1486,23,0,23,0,1,,,,,,,,,,
,,271559,001,2023-07-31_19h46.38.700,arm3_eps,2022.2.5,MacIntel,60.04202942,60cf8cd5edc8abe7af47f138,64c7fed44a04f777bb1e18ce,64c800d7548c6b5d0d21ead7,up,1,0.75,0.2429,3,0,0.2561,24,0,24,0,1,,,,,,,,,,
,,271559,001,2023-07-31_19h46.38.700,arm3_eps,2022.2.5,MacIntel,60.04202942,60cf8cd5edc8abe7af47f138,64c7fed44a04f777bb1e18ce,64c800d7548c6b5d0d21ead7,right,1,0.75,0.2429,3,0.002794999,0.8524,25,0,25,0,1,,,,,,,,,,
,,271559,001,2023-07-31_19h46.38.700,arm3_eps,2022.2.5,MacIntel,60.04202942,60cf8cd5edc8abe7af47f138,64c7fed44a04f777bb1e18ce,64c800d7548c6b5d0d21ead7,right,1,0.75,0.2429,3,-0.010022633,0.1465,26,0,26,0,1,,,,,,,,,,
,,271559,001,2023-07-31_19h46.38.700,arm3_eps,2022.2.5,MacIntel,60.04202942,60cf8cd5edc8abe7af47f138,64c7fed44a04f777bb1e18ce,64c800d7548c6b5d0d21ead7,down,1,0.75,0.2429,2,0,0.4979,27,0,27,0,1,,,,,,,,,,
,,271559,001,2023-07-31_19h46.38.700,arm3_eps,2022.2.5,MacIntel,60.04202942,60cf8cd5edc8abe7af47f138,64c7fed44a04f777bb1e18ce,64c800d7548c6b5d0d21ead7,right,1,0.75,0.2429,2,0.012962288,1.2913,28,0,28,0,1,,,,,,,,,,
,,271559,001,2023-07-31_19h46.38.700,arm3_eps,2022.2.5,MacIntel,60.04202942,60cf8cd5edc8abe7af47f138,64c7fed44a04f777bb1e18ce,64c800d7548c6b5d0d21ead7,right,1,0.75,0.2429,2,0.02019144,0.1394,29,0,29,0,1,,,,,,,,,,
,,271559,001,2023-07-31_19h46.38.700,arm3_eps,2022.2.5,MacIntel,60.04202942,60cf8cd5edc8abe7af47f138,64c7fed44a04f777bb1e18ce,64c800d7548c6b5d0d21ead7,up,1,0.75,0.2429,3,0,2.5397,30,0,30,0,1,,,,,,,,,,
,,271559,001,2023-07-31_19h46.38.700,arm3_eps,2022.2.5,MacIntel,60.04202942,60cf8cd5edc8abe7af47f138,64c7fed44a04f777bb1e18ce,64c800d7548c6b5d0d21ead7,right,1,0.75,0.2429,3,-0.008201353,6.1,31,0,31,0,1,,,,,,,,,,
,,271559,001,2023-07-31_19h46.38.700,arm3_eps,2022.2.5,MacIntel,60.04202942,60cf8cd5edc8abe7af47f138,64c7fed44a04f777bb1e18ce,64c800d7548c6b5d0d21ead7,right,1,0.75,0.2429,3,0.001317689,0.2366,32,0,32,0,1,,,,,,,,,,
,,271559,001,2023-07-31_19h46.38.700,arm3_eps,2022.2.5,MacIntel,60.04202942,60cf8cd5edc8abe7af47f138,64c7fed44a04f777bb1e18ce,64c800d7548c6b5d0d21ead7,right,1,0.75,0.2429,3,0.018999597,0.1468,33,0,33,0,1,,,,,,,,,,
,,271559,001,2023-07-31_19h46.38.700,arm3_eps,2022.2.5,MacIntel,60.04202942,60cf8cd5edc8abe7af47f138,64c7fed44a04f777bb1e18ce,64c800d7548c6b5d0d21ead7,up,1,0.75,0.2429,4,0,0.4113,34,0,34,0,1,,,,,,,,,,
,,271559,001,2023-07-31_19h46.38.700,arm3_eps,2022.2.5,MacIntel,60.04202942,60cf8cd5edc8abe7af47f138,64c7fed44a04f777bb1e18ce,64c800d7548c6b5d0d21ead7,right,1,0.75,0.2429,4,-0.012520309,0.9888,35,0,35,0,1,,,,,,,,,,
,,271559,001,2023-07-31_19h46.38.700,arm3_eps,2022.2.5,MacIntel,60.04202942,60cf8cd5edc8abe7af47f138,64c7fed44a04f777bb1e18ce,64c800d7548c6b5d0d21ead7,right,1,0.75,0.2429,4,0.003143289,0.1435,36,0,36,0,1,,,,,,,,,,
,,271559,001,2023-07-31_19h46.38.700,arm3_eps,2022.2.5,MacIntel,60.04202942,60cf8cd5edc8abe7af47f138,64c7fed44a04f777bb1e18ce,64c800d7548c6b5d0d21ead7,up,1,0.75,0.2429,4,0,0.4077,37,0,37,0,1,,,,,,,,,,
,,271559,001,2023-07-31_19h46.38.700,arm3_eps,2022.2.5,MacIntel,60.04202942,60cf8cd5edc8abe7af47f138,64c7fed44a04f777bb1e18ce,64c800d7548c6b5d0d21ead7,right,1,0.75,0.2429,4,0.015465693,0.8669,38,0,38,0,1,,,,,,,,,,
,,271559,001,2023-07-31_19h46.38.700,arm3_eps,2022.2.5,MacIntel,60.04202942,60cf8cd5edc8abe7af47f138,64c7fed44a04f777bb1e18ce,64c800d7548c6b5d0d21ead7,right,1,0.75,0.2429,4,0.039315232,0.175,39,0,39,0,1,,,,,,,,,,
,,271559,001,2023-07-31_19h46.38.700,arm3_eps,2022.2.5,MacIntel,60.04202942,60cf8cd5edc8abe7af47f138,64c7fed44a04f777bb1e18ce,64c800d7548c6b5d0d21ead7,up,-1,0.75,0.2429,5,0,0.3077,40,0,40,0,1,,,,,,,,,,
,,271559,001,2023-07-31_19h46.38.700,arm3_eps,2022.2.5,MacIntel,60.04202942,60cf8cd5edc8abe7af47f138,64c7fed44a04f777bb1e18ce,64c800d7548c6b5d0d21ead7,right,-1,0.75,0.2429,5,-0.013650408,0.6651,41,0,41,0,1,,,,,,,,,,
,,271559,001,2023-07-31_19h46.38.700,arm3_eps,2022.2.5,MacIntel,60.04202942,60cf8cd5edc8abe7af47f138,64c7fed44a04f777bb1e18ce,64c800d7548c6b5d0d21ead7,right,-1,0.75,0.2429,5,-0.036607949,0.1596,42,0,42,0,1,,,,,,,,,,
,,271559,001,2023-07-31_19h46.38.700,arm3_eps,2022.2.5,MacIntel,60.04202942,60cf8cd5edc8abe7af47f138,64c7fed44a04f777bb1e18ce,64c800d7548c6b5d0d21ead7,down,-1,0.75,0.2429,6,0,0.258,43,0,43,0,1,,,,,,,,,,
,,271559,001,2023-07-31_19h46.38.700,arm3_eps,2022.2.5,MacIntel,60.04202942,60cf8cd5edc8abe7af47f138,64c7fed44a04f777bb1e18ce,64c800d7548c6b5d0d21ead7,right,-1,0.75,0.2429,6,0.017272558,0.6784,44,0,44,0,1,,,,,,,,,,
,,271559,001,2023-07-31_19h46.38.700,arm3_eps,2022.2.5,MacIntel,60.04202942,60cf8cd5edc8abe7af47f138,64c7fed44a04f777bb1e18ce,64c800d7548c6b5d0d21ead7,right,-1,0.75,0.2429,6,0.035543462,0.1619,45,0,45,0,1,,,,,,,,,,
,,271559,001,2023-07-31_19h46.38.700,arm3_eps,2022.2.5,MacIntel,60.04202942,60cf8cd5edc8abe7af47f138,64c7fed44a04f777bb1e18ce,64c800d7548c6b5d0d21ead7,right,-1,0.75,0.2429,6,0.047575467,0.1323,46,0,46,0,1,,,,,,,,,,
,,271559,001,2023-07-31_19h46.38.700,arm3_eps,2022.2.5,MacIntel,60.04202942,60cf8cd5edc8abe7af47f138,64c7fed44a04f777bb1e18ce,64c800d7548c6b5d0d21ead7,up,-1,0.75,0.2429,5,0,0.2082,47,0,47,0,1,,,,,,,,,,
,,271559,001,2023-07-31_19h46.38.700,arm3_eps,2022.2.5,MacIntel,60.04202942,60cf8cd5edc8abe7af47f138,64c7fed44a04f777bb1e18ce,64c800d7548c6b5d0d21ead7,right,-1,0.75,0.2429,5,0.004206081,0.5952,48,0,48,0,1,,,,,,,,,,
,,271559,001,2023-07-31_19h46.38.700,arm3_eps,2022.2.5,MacIntel,60.04202942,60cf8cd5edc8abe7af47f138,64c7fed44a04f777bb1e18ce,64c800d7548c6b5d0d21ead7,right,-1,0.75,0.2429,5,0.008809105,0.2244,49,0,49,0,1,,,,,,,,,,
space,5.8311,271559,001,2023-07-31_19h46.38.700,arm3_eps,2022.2.5,MacIntel,60.04202942,60cf8cd5edc8abe7af47f138,64c7fed44a04f777bb1e18ce,64c800d7548c6b5d0d21ead7,,,,,,,,,,,,,,,,,,,,,,
space,2.4043,271559,001,2023-07-31_19h46.38.700,arm3_eps,2022.2.5,MacIntel,60.04202942,60cf8cd5edc8abe7af47f138,64c7fed44a04f777bb1e18ce,64c800d7548c6b5d0d21ead7,,,,,,,,,,,,,,,,,,,,,,
space,0.5921,271559,001,2023-07-31_19h46.38.700,arm3_eps,2022.2.5,MacIntel,60.04202942,60cf8cd5edc8abe7af47f138,64c7fed44a04f777bb1e18ce,64c800d7548c6b5d0d21ead7,,,,,,,,,,,,,,,,,,,,,,
,,271559,001,2023-07-31_19h46.38.700,arm3_eps,2022.2.5,MacIntel,60.04202942,60cf8cd5edc8abe7af47f138,64c7fed44a04f777bb1e18ce,64c800d7548c6b5d0d21ead7,right,-1,0.75,0.05,0,-0.018797313,0.6763,0,0,0,0,1,,,,,,,,,,
,,271559,001,2023-07-31_19h46.38.700,arm3_eps,2022.2.5,MacIntel,60.04202942,60cf8cd5edc8abe7af47f138,64c7fed44a04f777bb1e18ce,64c800d7548c6b5d0d21ead7,right,-1,0.75,0.05,0,-0.013959945,0.4441,1,0,1,0,1,,,,,,,,,,
,,271559,001,2023-07-31_19h46.38.700,arm3_eps,2022.2.5,MacIntel,60.04202942,60cf8cd5edc8abe7af47f138,64c7fed44a04f777bb1e18ce,64c800d7548c6b5d0d21ead7,right,-1,0.75,0.05,0,0.000742948,0.6266,2,0,2,0,1,,,,,,,,,,
,,271559,001,2023-07-31_19h46.38.700,arm3_eps,2022.2.5,MacIntel,60.04202942,60cf8cd5edc8abe7af47f138,64c7fed44a04f777bb1e18ce,64c800d7548c6b5d0d21ead7,down,-1,0.75,0.05,1,0,0.349,3,0,3,0,1,,,,,,,,,,
,,271559,001,2023-07-31_19h46.38.700,arm3_eps,2022.2.5,MacIntel,60.04202942,60cf8cd5edc8abe7af47f138,64c7fed44a04f777bb1e18ce,64c800d7548c6b5d0d21ead7,right,-1,0.75,0.05,1,-0.016396405,0.9065,4,0,4,0,1,,,,,,,,,,
,,271559,001,2023-07-31_19h46.38.700,arm3_eps,2022.2.5,MacIntel,60.04202942,60cf8cd5edc8abe7af47f138,64c7fed44a04f777bb1e18ce,64c800d7548c6b5d0d21ead7,right,-1,0.75,0.05,1,0.009707064,0.1928,5,0,5,0,1,,,,,,,,,,
,,271559,001,2023-07-31_19h46.38.700,arm3_eps,2022.2.5,MacIntel,60.04202942,60cf8cd5edc8abe7af47f138,64c7fed44a04f777bb1e18ce,64c800d7548c6b5d0d21ead7,right,-1,0.75,0.05,1,0.003280224,0.3522,6,0,6,0,1,,,,,,,,,,
,,271559,001,2023-07-31_19h46.38.700,arm3_eps,2022.2.5,MacIntel,60.04202942,60cf8cd5edc8abe7af47f138,64c7fed44a04f777bb1e18ce,64c800d7548c6b5d0d21ead7,right,-1,0.75,0.05,1,-0.002680485,0.3448,7,0,7,0,1,,,,,,,,,,
,,271559,001,2023-07-31_19h46.38.700,arm3_eps,2022.2.5,MacIntel,60.04202942,60cf8cd5edc8abe7af47f138,64c7fed44a04f777bb1e18ce,64c800d7548c6b5d0d21ead7,down,-1,0.75,0.05,2,0,0.3117,8,0,8,0,1,,,,,,,,,,
,,271559,001,2023-07-31_19h46.38.700,arm3_eps,2022.2.5,MacIntel,60.04202942,60cf8cd5edc8abe7af47f138,64c7fed44a04f777bb1e18ce,64c800d7548c6b5d0d21ead7,right,-1,0.75,0.05,2,0.008014746,0.9432,9,0,9,0,1,,,,,,,,,,
,,271559,001,2023-07-31_19h46.38.700,arm3_eps,2022.2.5,MacIntel,60.04202942,60cf8cd5edc8abe7af47f138,64c7fed44a04f777bb1e18ce,64c800d7548c6b5d0d21ead7,right,-1,0.75,0.05,2,-0.009251781,0.1848,10,0,10,0,1,,,,,,,,,,
,,271559,001,2023-07-31_19h46.38.700,arm3_eps,2022.2.5,MacIntel,60.04202942,60cf8cd5edc8abe7af47f138,64c7fed44a04f777bb1e18ce,64c800d7548c6b5d0d21ead7,right,-1,0.75,0.05,2,0.008169412,0.2633,11,0,11,0,1,,,,,,,,,,
,,271559,001,2023-07-31_19h46.38.700,arm3_eps,2022.2.5,MacIntel,60.04202942,60cf8cd5edc8abe7af47f138,64c7fed44a04f777bb1e18ce,64c800d7548c6b5d0d21ead7,right,-1,0.75,0.05,2,-6.24599E-05,0.4621,12,0,12,0,1,,,,,,,,,,
,,271559,001,2023-07-31_19h46.38.700,arm3_eps,2022.2.5,MacIntel,60.04202942,60cf8cd5edc8abe7af47f138,64c7fed44a04f777bb1e18ce,64c800d7548c6b5d0d21ead7,up,-1,0.75,0.05,1,0,0.7466,13,0,13,0,1,,,,,,,,,,
,,271559,001,2023-07-31_19h46.38.700,arm3_eps,2022.2.5,MacIntel,60.04202942,60cf8cd5edc8abe7af47f138,64c7fed44a04f777bb1e18ce,64c800d7548c6b5d0d21ead7,right,-1,0.75,0.05,1,-0.005088791,0.9643,14,0,14,0,1,,,,,,,,,,
,,271559,001,2023-07-31_19h46.38.700,arm3_eps,2022.2.5,MacIntel,60.04202942,60cf8cd5edc8abe7af47f138,64c7fed44a04f777bb1e18ce,64c800d7548c6b5d0d21ead7,right,-1,0.75,0.05,1,-0.009779425,0.2091,15,0,15,0,1,,,,,,,,,,
,,271559,001,2023-07-31_19h46.38.700,arm3_eps,2022.2.5,MacIntel,60.04202942,60cf8cd5edc8abe7af47f138,64c7fed44a04f777bb1e18ce,64c800d7548c6b5d0d21ead7,right,-1,0.75,0.05,1,-0.010964067,0.1957,16,0,16,0,1,,,,,,,,,,
,,271559,001,2023-07-31_19h46.38.700,arm3_eps,2022.2.5,MacIntel,60.04202942,60cf8cd5edc8abe7af47f138,64c7fed44a04f777bb1e18ce,64c800d7548c6b5d0d21ead7,down,-1,0.75,0.05,2,0,0.451,17,0,17,0,1,,,,,,,,,,
,,271559,001,2023-07-31_19h46.38.700,arm3_eps,2022.2.5,MacIntel,60.04202942,60cf8cd5edc8abe7af47f138,64c7fed44a04f777bb1e18ce,64c800d7548c6b5d0d21ead7,right,-1,0.75,0.05,2,0.010220181,0.6389,18,0,18,0,1,,,,,,,,,,
,,271559,001,2023-07-31_19h46.38.700,arm3_eps,2022.2.5,MacIntel,60.04202942,60cf8cd5edc8abe7af47f138,64c7fed44a04f777bb1e18ce,64c800d7548c6b5d0d21ead7,right,-1,0.75,0.05,2,0.027928908,0.1964,19,0,19,0,1,,,,,,,,,,
,,271559,001,2023-07-31_19h46.38.700,arm3_eps,2022.2.5,MacIntel,60.04202942,60cf8cd5edc8abe7af47f138,64c7fed44a04f777bb1e18ce,64c800d7548c6b5d0d21ead7,down,-1,0.75,0.05,3,0,0.7458,20,0,20,0,1,,,,,,,,,,
,,271559,001,2023-07-31_19h46.38.700,arm3_eps,2022.2.5,MacIntel,60.04202942,60cf8cd5edc8abe7af47f138,64c7fed44a04f777bb1e18ce,64c800d7548c6b5d0d21ead7,right,-1,0.75,0.05,3,-0.013441477,0.6508,21,0,21,0,1,,,,,,,,,,
,,271559,001,2023-07-31_19h46.38.700,arm3_eps,2022.2.5,MacIntel,60.04202942,60cf8cd5edc8abe7af47f138,64c7fed44a04f777bb1e18ce,64c800d7548c6b5d0d21ead7,right,-1,0.75,0.05,3,-0.008686541,0.1723,22,0,22,0,1,,,,,,,,,,
,,271559,001,2023-07-31_19h46.38.700,arm3_eps,2022.2.5,MacIntel,60.04202942,60cf8cd5edc8abe7af47f138,64c7fed44a04f777bb1e18ce,64c800d7548c6b5d0d21ead7,right,-1,0.75,0.05,3,-0.016603326,0.1486,23,0,23,0,1,,,,,,,,,,
,,271559,001,2023-07-31_19h46.38.700,arm3_eps,2022.2.5,MacIntel,60.04202942,60cf8cd5edc8abe7af47f138,64c7fed44a04f777bb1e18ce,64c800d7548c6b5d0d21ead7,down,1,0.75,0.05,4,0,0.6722,24,0,24,0,1,,,,,,,,,,
,,271559,001,2023-07-31_19h46.38.700,arm3_eps,2022.2.5,MacIntel,60.04202942,60cf8cd5edc8abe7af47f138,64c7fed44a04f777bb1e18ce,64c800d7548c6b5d0d21ead7,right,1,0.75,0.05,4,0.000747426,1.782,25,0,25,0,1,,,,,,,,,,
,,271559,001,2023-07-31_19h46.38.700,arm3_eps,2022.2.5,MacIntel,60.04202942,60cf8cd5edc8abe7af47f138,64c7fed44a04f777bb1e18ce,64c800d7548c6b5d0d21ead7,right,1,0.75,0.05,4,-0.009507182,0.4727,26,0,26,0,1,,,,,,,,,,
,,271559,001,2023-07-31_19h46.38.700,arm3_eps,2022.2.5,MacIntel,60.04202942,60cf8cd5edc8abe7af47f138,64c7fed44a04f777bb1e18ce,64c800d7548c6b5d0d21ead7,right,1,0.75,0.05,4,-0.004222697,0.1782,27,0,27,0,1,,,,,,,,,,
,,271559,001,2023-07-31_19h46.38.700,arm3_eps,2022.2.5,MacIntel,60.04202942,60cf8cd5edc8abe7af47f138,64c7fed44a04f777bb1e18ce,64c800d7548c6b5d0d21ead7,right,1,0.75,0.05,4,-0.036606956,0.1459,28,0,28,0,1,,,,,,,,,,
,,271559,001,2023-07-31_19h46.38.700,arm3_eps,2022.2.5,MacIntel,60.04202942,60cf8cd5edc8abe7af47f138,64c7fed44a04f777bb1e18ce,64c800d7548c6b5d0d21ead7,right,1,0.75,0.05,4,-0.048979243,0.1771,29,0,29,0,1,,,,,,,,,,
,,271559,001,2023-07-31_19h46.38.700,arm3_eps,2022.2.5,MacIntel,60.04202942,60cf8cd5edc8abe7af47f138,64c7fed44a04f777bb1e18ce,64c800d7548c6b5d0d21ead7,down,1,0.75,0.05,3,0,0.4979,30,0,30,0,1,,,,,,,,,,
,,271559,001,2023-07-31_19h46.38.700,arm3_eps,2022.2.5,MacIntel,60.04202942,60cf8cd5edc8abe7af47f138,64c7fed44a04f777bb1e18ce,64c800d7548c6b5d0d21ead7,right,1,0.75,0.05,3,-0.008544627,1.0603,31,0,31,0,1,,,,,,,,,,
,,271559,001,2023-07-31_19h46.38.700,arm3_eps,2022.2.5,MacIntel,60.04202942,60cf8cd5edc8abe7af47f138,64c7fed44a04f777bb1e18ce,64c800d7548c6b5d0d21ead7,right,1,0.75,0.05,3,-0.00228528,0.4013,32,0,32,0,1,,,,,,,,,,
,,271559,001,2023-07-31_19h46.38.700,arm3_eps,2022.2.5,MacIntel,60.04202942,60cf8cd5edc8abe7af47f138,64c7fed44a04f777bb1e18ce,64c800d7548c6b5d0d21ead7,right,1,0.75,0.05,3,0.021154354,0.1671,33,0,33,0,1,,,,,,,,,,
,,271559,001,2023-07-31_19h46.38.700,arm3_eps,2022.2.5,MacIntel,60.04202942,60cf8cd5edc8abe7af47f138,64c7fed44a04f777bb1e18ce,64c800d7548c6b5d0d21ead7,up,1,0.75,0.05,4,0,0.3403,34,0,34,0,1,,,,,,,,,,
,,271559,001,2023-07-31_19h46.38.700,arm3_eps,2022.2.5,MacIntel,60.04202942,60cf8cd5edc8abe7af47f138,64c7fed44a04f777bb1e18ce,64c800d7548c6b5d0d21ead7,right,1,0.75,0.05,4,0.005221702,0.6518,35,0,35,0,1,,,,,,,,,,
,,271559,001,2023-07-31_19h46.38.700,arm3_eps,2022.2.5,MacIntel,60.04202942,60cf8cd5edc8abe7af47f138,64c7fed44a04f777bb1e18ce,64c800d7548c6b5d0d21ead7,right,1,0.75,0.05,4,0.049178631,0.2042,36,0,36,0,1,,,,,,,,,,
,,271559,001,2023-07-31_19h46.38.700,arm3_eps,2022.2.5,MacIntel,60.04202942,60cf8cd5edc8abe7af47f138,64c7fed44a04f777bb1e18ce,64c800d7548c6b5d0d21ead7,up,1,0.75,0.05,5,0,0.4895,37,0,37,0,1,,,,,,,,,,
,,271559,001,2023-07-31_19h46.38.700,arm3_eps,2022.2.5,MacIntel,60.04202942,60cf8cd5edc8abe7af47f138,64c7fed44a04f777bb1e18ce,64c800d7548c6b5d0d21ead7,right,1,0.75,0.05,5,0.016001876,0.8173,38,0,38,0,1,,,,,,,,,,
,,271559,001,2023-07-31_19h46.38.700,arm3_eps,2022.2.5,MacIntel,60.04202942,60cf8cd5edc8abe7af47f138,64c7fed44a04f777bb1e18ce,64c800d7548c6b5d0d21ead7,right,1,0.75,0.05,5,0.016889459,0.2879,39,0,39,0,1,,,,,,,,,,
,,271559,001,2023-07-31_19h46.38.700,arm3_eps,2022.2.5,MacIntel,60.04202942,60cf8cd5edc8abe7af47f138,64c7fed44a04f777bb1e18ce,64c800d7548c6b5d0d21ead7,up,1,0.75,0.05,6,0,0.3425,40,0,40,0,1,,,,,,,,,,
,,271559,001,2023-07-31_19h46.38.700,arm3_eps,2022.2.5,MacIntel,60.04202942,60cf8cd5edc8abe7af47f138,64c7fed44a04f777bb1e18ce,64c800d7548c6b5d0d21ead7,right,1,0.75,0.05,6,0.008615891,0.7769,41,0,41,0,1,,,,,,,,,,
,,271559,001,2023-07-31_19h46.38.700,arm3_eps,2022.2.5,MacIntel,60.04202942,60cf8cd5edc8abe7af47f138,64c7fed44a04f777bb1e18ce,64c800d7548c6b5d0d21ead7,right,1,0.75,0.05,6,0.018128478,0.1962,42,0,42,0,1,,,,,,,,,,
,,271559,001,2023-07-31_19h46.38.700,arm3_eps,2022.2.5,MacIntel,60.04202942,60cf8cd5edc8abe7af47f138,64c7fed44a04f777bb1e18ce,64c800d7548c6b5d0d21ead7,down,1,0.75,0.05,5,0,0.782,43,0,43,0,1,,,,,,,,,,
,,271559,001,2023-07-31_19h46.38.700,arm3_eps,2022.2.5,MacIntel,60.04202942,60cf8cd5edc8abe7af47f138,64c7fed44a04f777bb1e18ce,64c800d7548c6b5d0d21ead7,right,1,0.75,0.05,5,0.026419555,0.8117,44,0,44,0,1,,,,,,,,,,
,,271559,001,2023-07-31_19h46.38.700,arm3_eps,2022.2.5,MacIntel,60.04202942,60cf8cd5edc8abe7af47f138,64c7fed44a04f777bb1e18ce,64c800d7548c6b5d0d21ead7,right,1,0.75,0.05,5,0.044839799,0.2022,45,0,45,0,1,,,,,,,,,,
,,271559,001,2023-07-31_19h46.38.700,arm3_eps,2022.2.5,MacIntel,60.04202942,60cf8cd5edc8abe7af47f138,64c7fed44a04f777bb1e18ce,64c800d7548c6b5d0d21ead7,up,1,0.75,0.05,6,0,0.3344,46,0,46,0,1,,,,,,,,,,
,,271559,001,2023-07-31_19h46.38.700,arm3_eps,2022.2.5,MacIntel,60.04202942,60cf8cd5edc8abe7af47f138,64c7fed44a04f777bb1e18ce,64c800d7548c6b5d0d21ead7,right,1,0.75,0.05,6,0.024703534,0.7777,47,0,47,0,1,,,,,,,,,,
,,271559,001,2023-07-31_19h46.38.700,arm3_eps,2022.2.5,MacIntel,60.04202942,60cf8cd5edc8abe7af47f138,64c7fed44a04f777bb1e18ce,64c800d7548c6b5d0d21ead7,right,1,0.75,0.05,6,0.00364376,0.3966,48,0,48,0,1,,,,,,,,,,
,,271559,001,2023-07-31_19h46.38.700,arm3_eps,2022.2.5,MacIntel,60.04202942,60cf8cd5edc8abe7af47f138,64c7fed44a04f777bb1e18ce,64c800d7548c6b5d0d21ead7,right,1,0.75,0.05,6,-0.009874313,0.1948,49,0,49,0,1,,,,,,,,,,
space,4.3131,271559,001,2023-07-31_19h46.38.700,arm3_eps,2022.2.5,MacIntel,60.04202942,60cf8cd5edc8abe7af47f138,64c7fed44a04f777bb1e18ce,64c800d7548c6b5d0d21ead7,,,,,,,,,,,,,,,,,,,,,,
space,0.6647,271559,001,2023-07-31_19h46.38.700,arm3_eps,2022.2.5,MacIntel,60.04202942,60cf8cd5edc8abe7af47f138,64c7fed44a04f777bb1e18ce,64c800d7548c6b5d0d21ead7,,,,,,,,,,,,,,,,,,,,,,
,,271559,001,2023-07-31_19h46.38.700,arm3_eps,2022.2.5,MacIntel,60.04202942,60cf8cd5edc8abe7af47f138,64c7fed44a04f777bb1e18ce,64c800d7548c6b5d0d21ead7,right,1,0.75,0.5,0,-0.016444273,0.5205,0,0,0,0,1,,,,,,,,,,
,,271559,001,2023-07-31_19h46.38.700,arm3_eps,2022.2.5,MacIntel,60.04202942,60cf8cd5edc8abe7af47f138,64c7fed44a04f777bb1e18ce,64c800d7548c6b5d0d21ead7,right,1,0.75,0.5,0,0.015275807,0.3334,1,0,1,0,1,,,,,,,,,,
,,271559,001,2023-07-31_19h46.38.700,arm3_eps,2022.2.5,MacIntel,60.04202942,60cf8cd5edc8abe7af47f138,64c7fed44a04f777bb1e18ce,64c800d7548c6b5d0d21ead7,right,1,0.75,0.5,0,0.023430565,0.2994,2,0,2,0,1,,,,,,,,,,
,,271559,001,2023-07-31_19h46.38.700,arm3_eps,2022.2.5,MacIntel,60.04202942,60cf8cd5edc8abe7af47f138,64c7fed44a04f777bb1e18ce,64c800d7548c6b5d0d21ead7,right,1,0.75,0.5,0,0.029749777,0.7597,3,0,3,0,1,,,,,,,,,,
,,271559,001,2023-07-31_19h46.38.700,arm3_eps,2022.2.5,MacIntel,60.04202942,60cf8cd5edc8abe7af47f138,64c7fed44a04f777bb1e18ce,64c800d7548c6b5d0d21ead7,up,-1,0.75,0.5,1,0,0.2918,4,0,4,0,1,,,,,,,,,,
,,271559,001,2023-07-31_19h46.38.700,arm3_eps,2022.2.5,MacIntel,60.04202942,60cf8cd5edc8abe7af47f138,64c7fed44a04f777bb1e18ce,64c800d7548c6b5d0d21ead7,right,-1,0.75,0.5,1,-0.033835526,0.8791,5,0,5,0,1,,,,,,,,,,
,,271559,001,2023-07-31_19h46.38.700,arm3_eps,2022.2.5,MacIntel,60.04202942,60cf8cd5edc8abe7af47f138,64c7fed44a04f777bb1e18ce,64c800d7548c6b5d0d21ead7,down,-1,0.75,0.5,1,0,0.5051,6,0,6,0,1,,,,,,,,,,
,,271559,001,2023-07-31_19h46.38.700,arm3_eps,2022.2.5,MacIntel,60.04202942,60cf8cd5edc8abe7af47f138,64c7fed44a04f777bb1e18ce,64c800d7548c6b5d0d21ead7,right,-1,0.75,0.5,1,-0.018538417,0.8249,7,0,7,0,1,,,,,,,,,,
,,271559,001,2023-07-31_19h46.38.700,arm3_eps,2022.2.5,MacIntel,60.04202942,60cf8cd5edc8abe7af47f138,64c7fed44a04f777bb1e18ce,64c800d7548c6b5d0d21ead7,right,-1,0.75,0.5,1,0.013642453,0.5888,8,0,8,0,1,,,,,,,,,,
,,271559,001,2023-07-31_19h46.38.700,arm3_eps,2022.2.5,MacIntel,60.04202942,60cf8cd5edc8abe7af47f138,64c7fed44a04f777bb1e18ce,64c800d7548c6b5d0d21ead7,up,1,0.75,0.5,1,0,0.3278,9,0,9,0,1,,,,,,,,,,
,,271559,001,2023-07-31_19h46.38.700,arm3_eps,2022.2.5,MacIntel,60.04202942,60cf8cd5edc8abe7af47f138,64c7fed44a04f777bb1e18ce,64c800d7548c6b5d0d21ead7,right,1,0.75,0.5,1,0.008364445,0.3916,10,0,10,0,1,,,,,,,,,,
,,271559,001,2023-07-31_19h46.38.700,arm3_eps,2022.2.5,MacIntel,60.04202942,60cf8cd5edc8abe7af47f138,64c7fed44a04f777bb1e18ce,64c800d7548c6b5d0d21ead7,right,1,0.75,0.5,1,0.028354764,0.167,11,0,11,0,1,,,,,,,,,,
,,271559,001,2023-07-31_19h46.38.700,arm3_eps,2022.2.5,MacIntel,60.04202942,60cf8cd5edc8abe7af47f138,64c7fed44a04f777bb1e18ce,64c800d7548c6b5d0d21ead7,right,1,0.75,0.5,1,0.057208805,0.1849,12,0,12,0,1,,,,,,,,,,
,,271559,001,2023-07-31_19h46.38.700,arm3_eps,2022.2.5,MacIntel,60.04202942,60cf8cd5edc8abe7af47f138,64c7fed44a04f777bb1e18ce,64c800d7548c6b5d0d21ead7,up,1,0.75,0.5,2,0,0.2573,13,0,13,0,1,,,,,,,,,,
,,271559,001,2023-07-31_19h46.38.700,arm3_eps,2022.2.5,MacIntel,60.04202942,60cf8cd5edc8abe7af47f138,64c7fed44a04f777bb1e18ce,64c800d7548c6b5d0d21ead7,right,1,0.75,0.5,2,-0.052026952,0.6874,14,0,14,0,1,,,,,,,,,,
,,271559,001,2023-07-31_19h46.38.700,arm3_eps,2022.2.5,MacIntel,60.04202942,60cf8cd5edc8abe7af47f138,64c7fed44a04f777bb1e18ce,64c800d7548c6b5d0d21ead7,right,1,0.75,0.5,2,-0.053426782,0.1548,15,0,15,0,1,,,,,,,,,,
,,271559,001,2023-07-31_19h46.38.700,arm3_eps,2022.2.5,MacIntel,60.04202942,60cf8cd5edc8abe7af47f138,64c7fed44a04f777bb1e18ce,64c800d7548c6b5d0d21ead7,down,-1,0.75,0.5,1,0,0.2789,16,0,16,0,1,,,,,,,,,,
,,271559,001,2023-07-31_19h46.38.700,arm3_eps,2022.2.5,MacIntel,60.04202942,60cf8cd5edc8abe7af47f138,64c7fed44a04f777bb1e18ce,64c800d7548c6b5d0d21ead7,right,-1,0.75,0.5,1,-0.023636806,0.8351,17,0,17,0,1,,,,,,,,,,
,,271559,001,2023-07-31_19h46.38.700,arm3_eps,2022.2.5,MacIntel,60.04202942,60cf8cd5edc8abe7af47f138,64c7fed44a04f777bb1e18ce,64c800d7548c6b5d0d21ead7,right,-1,0.75,0.5,1,-0.021900258,0.1789,18,0,18,0,1,,,,,,,,,,
,,271559,001,2023-07-31_19h46.38.700,arm3_eps,2022.2.5,MacIntel,60.04202942,60cf8cd5edc8abe7af47f138,64c7fed44a04f777bb1e18ce,64c800d7548c6b5d0d21ead7,right,-1,0.75,0.5,1,-0.020858727,0.2072,19,0,19,0,1,,,,,,,,,,
,,271559,001,2023-07-31_19h46.38.700,arm3_eps,2022.2.5,MacIntel,60.04202942,60cf8cd5edc8abe7af47f138,64c7fed44a04f777bb1e18ce,64c800d7548c6b5d0d21ead7,down,-1,0.75,0.5,2,0,0.4727,20,0,20,0,1,,,,,,,,,,
,,271559,001,2023-07-31_19h46.38.700,arm3_eps,2022.2.5,MacIntel,60.04202942,60cf8cd5edc8abe7af47f138,64c7fed44a04f777bb1e18ce,64c800d7548c6b5d0d21ead7,up,-1,0.75,0.5,1,0,1.481,21,0,21,0,1,,,,,,,,,,
,,271559,001,2023-07-31_19h46.38.700,arm3_eps,2022.2.5,MacIntel,60.04202942,60cf8cd5edc8abe7af47f138,64c7fed44a04f777bb1e18ce,64c800d7548c6b5d0d21ead7,right,-1,0.75,0.5,1,-0.015248588,0.8126,22,0,22,0,1,,,,,,,,,,
,,271559,001,2023-07-31_19h46.38.700,arm3_eps,2022.2.5,MacIntel,60.04202942,60cf8cd5edc8abe7af47f138,64c7fed44a04f777bb1e18ce,64c800d7548c6b5d0d21ead7,right,-1,0.75,0.5,1,-0.023900871,0.1705,23,0,23,0,1,,,,,,,,,,
,,271559,001,2023-07-31_19h46.38.700,arm3_eps,2022.2.5,MacIntel,60.04202942,60cf8cd5edc8abe7af47f138,64c7fed44a04f777bb1e18ce,64c800d7548c6b5d0d21ead7,down,1,0.75,0.5,1,0,0.4384,24,0,24,0,1,,,,,,,,,,
,,271559,001,2023-07-31_19h46.38.700,arm3_eps,2022.2.5,MacIntel,60.04202942,60cf8cd5edc8abe7af47f138,64c7fed44a04f777bb1e18ce,64c800d7548c6b5d0d21ead7,right,1,0.75,0.5,1,-0.020558683,0.7718,25,0,25,0,1,,,,,,,,,,
,,271559,001,2023-07-31_19h46.38.700,arm3_eps,2022.2.5,MacIntel,60.04202942,60cf8cd5edc8abe7af47f138,64c7fed44a04f777bb1e18ce,64c800d7548c6b5d0d21ead7,right,1,0.75,0.5,1,0.002295532,0.1795,26,0,26,0,1,,,,,,,,,,
,,271559,001,2023-07-31_19h46.38.700,arm3_eps,2022.2.5,MacIntel,60.04202942,60cf8cd5edc8abe7af47f138,64c7fed44a04f777bb1e18ce,64c800d7548c6b5d0d21ead7,up,-1,0.75,0.5,2,0,0.9094,27,0,27,0,1,,,,,,,,,,
,,271559,001,2023-07-31_19h46.38.700,arm3_eps,2022.2.5,MacIntel,60.04202942,60cf8cd5edc8abe7af47f138,64c7fed44a04f777bb1e18ce,64c800d7548c6b5d0d21ead7,right,-1,0.75,0.5,2,0.013953981,0.9218,28,0,28,0,1,,,,,,,,,,
,,271559,001,2023-07-31_19h46.38.700,arm3_eps,2022.2.5,MacIntel,60.04202942,60cf8cd5edc8abe7af47f138,64c7fed44a04f777bb1e18ce,64c800d7548c6b5d0d21ead7,right,-1,0.75,0.5,2,0.023325338,0.2023,29,0,29,0,1,,,,,,,,,,
,,271559,001,2023-07-31_19h46.38.700,arm3_eps,2022.2.5,MacIntel,60.04202942,60cf8cd5edc8abe7af47f138,64c7fed44a04f777bb1e18ce,64c800d7548c6b5d0d21ead7,right,-1,0.75,0.5,2,0.035048898,0.3489,30,0,30,0,1,,,,,,,,,,
,,271559,001,2023-07-31_19h46.38.700,arm3_eps,2022.2.5,MacIntel,60.04202942,60cf8cd5edc8abe7af47f138,64c7fed44a04f777bb1e18ce,64c800d7548c6b5d0d21ead7,up,1,0.75,0.5,2,0,0.4189,31,0,31,0,1,,,,,,,,,,
,,271559,001,2023-07-31_19h46.38.700,arm3_eps,2022.2.5,MacIntel,60.04202942,60cf8cd5edc8abe7af47f138,64c7fed44a04f777bb1e18ce,64c800d7548c6b5d0d21ead7,right,1,0.75,0.5,2,0.006080063,0.762,32,0,32,0,1,,,,,,,,,,
,,271559,001,2023-07-31_19h46.38.700,arm3_eps,2022.2.5,MacIntel,60.04202942,60cf8cd5edc8abe7af47f138,64c7fed44a04f777bb1e18ce,64c800d7548c6b5d0d21ead7,right,1,0.75,0.5,2,0.029489357,0.1935,33,0,33,0,1,,,,,,,,,,
,,271559,001,2023-07-31_19h46.38.700,arm3_eps,2022.2.5,MacIntel,60.04202942,60cf8cd5edc8abe7af47f138,64c7fed44a04f777bb1e18ce,64c800d7548c6b5d0d21ead7,right,1,0.75,0.5,2,0.035409309,0.2345,34,0,34,0,1,,,,,,,,,,
,,271559,001,2023-07-31_19h46.38.700,arm3_eps,2022.2.5,MacIntel,60.04202942,60cf8cd5edc8abe7af47f138,64c7fed44a04f777bb1e18ce,64c800d7548c6b5d0d21ead7,up,-1,0.75,0.5,2,0,0.3329,35,0,35,0,1,,,,,,,,,,
,,271559,001,2023-07-31_19h46.38.700,arm3_eps,2022.2.5,MacIntel,60.04202942,60cf8cd5edc8abe7af47f138,64c7fed44a04f777bb1e18ce,64c800d7548c6b5d0d21ead7,right,-1,0.75,0.5,2,-0.031486739,0.7578,36,0,36,0,1,,,,,,,,,,
,,271559,001,2023-07-31_19h46.38.700,arm3_eps,2022.2.5,MacIntel,60.04202942,60cf8cd5edc8abe7af47f138,64c7fed44a04f777bb1e18ce,64c800d7548c6b5d0d21ead7,right,-1,0.75,0.5,2,-0.032517469,0.1792,37,0,37,0,1,,,,,,,,,,
,,271559,001,2023-07-31_19h46.38.700,arm3_eps,2022.2.5,MacIntel,60.04202942,60cf8cd5edc8abe7af47f138,64c7fed44a04f777bb1e18ce,64c800d7548c6b5d0d21ead7,down,-1,0.75,0.5,3,0,0.4897,38,0,38,0,1,,,,,,,,,,
,,271559,001,2023-07-31_19h46.38.700,arm3_eps,2022.2.5,MacIntel,60.04202942,60cf8cd5edc8abe7af47f138,64c7fed44a04f777bb1e18ce,64c800d7548c6b5d0d21ead7,right,-1,0.75,0.5,3,-0.002164811,0.8169,39,0,39,0,1,,,,,,,,,,
,,271559,001,2023-07-31_19h46.38.700,arm3_eps,2022.2.5,MacIntel,60.04202942,60cf8cd5edc8abe7af47f138,64c7fed44a04f777bb1e18ce,64c800d7548c6b5d0d21ead7,right,-1,0.75,0.5,3,-0.018738368,0.1496,40,0,40,0,1,,,,,,,,,,
,,271559,001,2023-07-31_19h46.38.700,arm3_eps,2022.2.5,MacIntel,60.04202942,60cf8cd5edc8abe7af47f138,64c7fed44a04f777bb1e18ce,64c800d7548c6b5d0d21ead7,right,-1,0.75,0.5,3,-0.053259332,0.1884,41,0,41,0,1,,,,,,,,,,
,,271559,001,2023-07-31_19h46.38.700,arm3_eps,2022.2.5,MacIntel,60.04202942,60cf8cd5edc8abe7af47f138,64c7fed44a04f777bb1e18ce,64c800d7548c6b5d0d21ead7,down,-1,0.75,0.5,4,0,0.3995,42,0,42,0,1,,,,,,,,,,
,,271559,001,2023-07-31_19h46.38.700,arm3_eps,2022.2.5,MacIntel,60.04202942,60cf8cd5edc8abe7af47f138,64c7fed44a04f777bb1e18ce,64c800d7548c6b5d0d21ead7,right,-1,0.75,0.5,4,-0.016318614,1.0537,43,0,43,0,1,,,,,,,,,,
,,271559,001,2023-07-31_19h46.38.700,arm3_eps,2022.2.5,MacIntel,60.04202942,60cf8cd5edc8abe7af47f138,64c7fed44a04f777bb1e18ce,64c800d7548c6b5d0d21ead7,right,-1,0.75,0.5,4,-0.009343785,0.1722,44,0,44,0,1,,,,,,,,,,
,,271559,001,2023-07-31_19h46.38.700,arm3_eps,2022.2.5,MacIntel,60.04202942,60cf8cd5edc8abe7af47f138,64c7fed44a04f777bb1e18ce,64c800d7548c6b5d0d21ead7,right,-1,0.75,0.5,4,-0.013914335,0.1739,45,0,45,0,1,,,,,,,,,,
,,271559,001,2023-07-31_19h46.38.700,arm3_eps,2022.2.5,MacIntel,60.04202942,60cf8cd5edc8abe7af47f138,64c7fed44a04f777bb1e18ce,64c800d7548c6b5d0d21ead7,up,-1,0.75,0.5,3,0,1.0695,46,0,46,0,1,,,,,,,,,,
,,271559,001,2023-07-31_19h46.38.700,arm3_eps,2022.2.5,MacIntel,60.04202942,60cf8cd5edc8abe7af47f138,64c7fed44a04f777bb1e18ce,64c800d7548c6b5d0d21ead7,right,-1,0.75,0.5,3,0.006032851,0.5384,47,0,47,0,1,,,,,,,,,,
,,271559,001,2023-07-31_19h46.38.700,arm3_eps,2022.2.5,MacIntel,60.04202942,60cf8cd5edc8abe7af47f138,64c7fed44a04f777bb1e18ce,64c800d7548c6b5d0d21ead7,right,-1,0.75,0.5,3,0.015302512,0.1854,48,0,48,0,1,,,,,,,,,,
,,271559,001,2023-07-31_19h46.38.700,arm3_eps,2022.2.5,MacIntel,60.04202942,60cf8cd5edc8abe7af47f138,64c7fed44a04f777bb1e18ce,64c800d7548c6b5d0d21ead7,right,-1,0.75,0.5,3,-0.001151959,0.1792,49,0,49,0,1,,,,,,,,,,
space,1.1734,271559,001,2023-07-31_19h46.38.700,arm3_eps,2022.2.5,MacIntel,60.04202942,60cf8cd5edc8abe7af47f138,64c7fed44a04f777bb1e18ce,64c800d7548c6b5d0d21ead7,,,,,,,,,,,,,,,,,,,,,,
space,1.284,271559,001,2023-07-31_19h46.38.700,arm3_eps,2022.2.5,MacIntel,60.04202942,60cf8cd5edc8abe7af47f138,64c7fed44a04f777bb1e18ce,64c800d7548c6b5d0d21ead7,right,-1,0.75,0.3071,0,-0.016615208,0.8982,,,,,,0,0,0,0,1,,,,,
,,271559,001,2023-07-31_19h46.38.700,arm3_eps,2022.2.5,MacIntel,60.04202942,60cf8cd5edc8abe7af47f138,64c7fed44a04f777bb1e18ce,64c800d7548c6b5d0d21ead7,right,-1,0.75,0.3071,0,-0.035865482,0.1966,,,,,,1,0,1,0,1,,,,,
,,271559,001,2023-07-31_19h46.38.700,arm3_eps,2022.2.5,MacIntel,60.04202942,60cf8cd5edc8abe7af47f138,64c7fed44a04f777bb1e18ce,64c800d7548c6b5d0d21ead7,right,-1,0.75,0.3071,0,-0.06748455,0.1487,,,,,,2,0,2,0,1,,,,,
,,271559,001,2023-07-31_19h46.38.700,arm3_eps,2022.2.5,MacIntel,60.04202942,60cf8cd5edc8abe7af47f138,64c7fed44a04f777bb1e18ce,64c800d7548c6b5d0d21ead7,right,-1,0.75,0.3071,0,-0.041008309,0.2415,,,,,,3,0,3,0,1,,,,,
,,271559,001,2023-07-31_19h46.38.700,arm3_eps,2022.2.5,MacIntel,60.04202942,60cf8cd5edc8abe7af47f138,64c7fed44a04f777bb1e18ce,64c800d7548c6b5d0d21ead7,down,1,0.75,0.3071,1,0,0.2837,,,,,,4,0,4,0,1,,,,,
,,271559,001,2023-07-31_19h46.38.700,arm3_eps,2022.2.5,MacIntel,60.04202942,60cf8cd5edc8abe7af47f138,64c7fed44a04f777bb1e18ce,64c800d7548c6b5d0d21ead7,right,1,0.75,0.3071,1,-0.016461197,0.7852,,,,,,5,0,5,0,1,,,,,
,,271559,001,2023-07-31_19h46.38.700,arm3_eps,2022.2.5,MacIntel,60.04202942,60cf8cd5edc8abe7af47f138,64c7fed44a04f777bb1e18ce,64c800d7548c6b5d0d21ead7,right,1,0.75,0.3071,1,-0.008616781,0.1579,,,,,,6,0,6,0,1,,,,,
,,271559,001,2023-07-31_19h46.38.700,arm3_eps,2022.2.5,MacIntel,60.04202942,60cf8cd5edc8abe7af47f138,64c7fed44a04f777bb1e18ce,64c800d7548c6b5d0d21ead7,right,1,0.75,0.3071,1,0.002474427,0.2076,,,,,,7,0,7,0,1,,,,,
,,271559,001,2023-07-31_19h46.38.700,arm3_eps,2022.2.5,MacIntel,60.04202942,60cf8cd5edc8abe7af47f138,64c7fed44a04f777bb1e18ce,64c800d7548c6b5d0d21ead7,right,1,0.75,0.3071,1,-0.006860411,0.3978,,,,,,8,0,8,0,1,,,,,
,,271559,001,2023-07-31_19h46.38.700,arm3_eps,2022.2.5,MacIntel,60.04202942,60cf8cd5edc8abe7af47f138,64c7fed44a04f777bb1e18ce,64c800d7548c6b5d0d21ead7,right,1,0.75,0.3071,1,0.00628088,0.5429,,,,,,9,0,9,0,1,,,,,
,,271559,001,2023-07-31_19h46.38.700,arm3_eps,2022.2.5,MacIntel,60.04202942,60cf8cd5edc8abe7af47f138,64c7fed44a04f777bb1e18ce,64c800d7548c6b5d0d21ead7,up,1,0.75,0.3071,2,0,0.2715,,,,,,10,0,10,0,1,,,,,
,,271559,001,2023-07-31_19h46.38.700,arm3_eps,2022.2.5,MacIntel,60.04202942,60cf8cd5edc8abe7af47f138,64c7fed44a04f777bb1e18ce,64c800d7548c6b5d0d21ead7,right,1,0.75,0.3071,2,0.010330588,0.3956,,,,,,11,0,11,0,1,,,,,
,,271559,001,2023-07-31_19h46.38.700,arm3_eps,2022.2.5,MacIntel,60.04202942,60cf8cd5edc8abe7af47f138,64c7fed44a04f777bb1e18ce,64c800d7548c6b5d0d21ead7,right,1,0.75,0.3071,2,0.025235255,0.1665,,,,,,12,0,12,0,1,,,,,
,,271559,001,2023-07-31_19h46.38.700,arm3_eps,2022.2.5,MacIntel,60.04202942,60cf8cd5edc8abe7af47f138,64c7fed44a04f777bb1e18ce,64c800d7548c6b5d0d21ead7,right,1,0.75,0.3071,2,0.025103582,0.1576,,,,,,13,0,13,0,1,,,,,
,,271559,001,2023-07-31_19h46.38.700,arm3_eps,2022.2.5,MacIntel,60.04202942,60cf8cd5edc8abe7af47f138,64c7fed44a04f777bb1e18ce,64c800d7548c6b5d0d21ead7,right,1,0.75,0.3071,2,-0.005018149,0.1326,,,,,,14,0,14,0,1,,,,,
,,271559,001,2023-07-31_19h46.38.700,arm3_eps,2022.2.5,MacIntel,60.04202942,60cf8cd5edc8abe7af47f138,64c7fed44a04f777bb1e18ce,64c800d7548c6b5d0d21ead7,right,1,0.75,0.3071,2,-0.027845073,0.135,,,,,,15,0,15,0,1,,,,,
,,271559,001,2023-07-31_19h46.38.700,arm3_eps,2022.2.5,MacIntel,60.04202942,60cf8cd5edc8abe7af47f138,64c7fed44a04f777bb1e18ce,64c800d7548c6b5d0d21ead7,down,1,0.75,0.3071,1,0,0.3308,,,,,,16,0,16,0,1,,,,,
,,271559,001,2023-07-31_19h46.38.700,arm3_eps,2022.2.5,MacIntel,60.04202942,60cf8cd5edc8abe7af47f138,64c7fed44a04f777bb1e18ce,64c800d7548c6b5d0d21ead7,right,1,0.75,0.3071,1,0.002966141,0.5593,,,,,,17,0,17,0,1,,,,,
,,271559,001,2023-07-31_19h46.38.700,arm3_eps,2022.2.5,MacIntel,60.04202942,60cf8cd5edc8abe7af47f138,64c7fed44a04f777bb1e18ce,64c800d7548c6b5d0d21ead7,right,1,0.75,0.3071,1,-0.002608101,0.1851,,,,,,18,0,18,0,1,,,,,
,,271559,001,2023-07-31_19h46.38.700,arm3_eps,2022.2.5,MacIntel,60.04202942,60cf8cd5edc8abe7af47f138,64c7fed44a04f777bb1e18ce,64c800d7548c6b5d0d21ead7,right,1,0.75,0.3071,1,0.000193195,0.155,,,,,,19,0,19,0,1,,,,,
,,271559,001,2023-07-31_19h46.38.700,arm3_eps,2022.2.5,MacIntel,60.04202942,60cf8cd5edc8abe7af47f138,64c7fed44a04f777bb1e18ce,64c800d7548c6b5d0d21ead7,right,1,0.75,0.3071,1,-0.000966573,0.2362,,,,,,20,0,20,0,1,,,,,
,,271559,001,2023-07-31_19h46.38.700,arm3_eps,2022.2.5,MacIntel,60.04202942,60cf8cd5edc8abe7af47f138,64c7fed44a04f777bb1e18ce,64c800d7548c6b5d0d21ead7,up,-1,0.75,0.3071,1,0,0.2504,,,,,,21,0,21,0,1,,,,,
,,271559,001,2023-07-31_19h46.38.700,arm3_eps,2022.2.5,MacIntel,60.04202942,60cf8cd5edc8abe7af47f138,64c7fed44a04f777bb1e18ce,64c800d7548c6b5d0d21ead7,right,-1,0.75,0.3071,1,-0.041989748,0.311,,,,,,22,0,22,0,1,,,,,
,,271559,001,2023-07-31_19h46.38.700,arm3_eps,2022.2.5,MacIntel,60.04202942,60cf8cd5edc8abe7af47f138,64c7fed44a04f777bb1e18ce,64c800d7548c6b5d0d21ead7,right,-1,0.75,0.3071,1,-0.034650303,0.3012,,,,,,23,0,23,0,1,,,,,
,,271559,001,2023-07-31_19h46.38.700,arm3_eps,2022.2.5,MacIntel,60.04202942,60cf8cd5edc8abe7af47f138,64c7fed44a04f777bb1e18ce,64c800d7548c6b5d0d21ead7,down,-1,0.75,0.3071,2,0,0.4503,,,,,,24,0,24,0,1,,,,,
,,271559,001,2023-07-31_19h46.38.700,arm3_eps,2022.2.5,MacIntel,60.04202942,60cf8cd5edc8abe7af47f138,64c7fed44a04f777bb1e18ce,64c800d7548c6b5d0d21ead7,right,-1,0.75,0.3071,2,0.020692847,0.697,,,,,,25,0,25,0,1,,,,,
,,271559,001,2023-07-31_19h46.38.700,arm3_eps,2022.2.5,MacIntel,60.04202942,60cf8cd5edc8abe7af47f138,64c7fed44a04f777bb1e18ce,64c800d7548c6b5d0d21ead7,right,-1,0.75,0.3071,2,-0.006055948,0.1623,,,,,,26,0,26,0,1,,,,,
,,271559,001,2023-07-31_19h46.38.700,arm3_eps,2022.2.5,MacIntel,60.04202942,60cf8cd5edc8abe7af47f138,64c7fed44a04f777bb1e18ce,64c800d7548c6b5d0d21ead7,right,-1,0.75,0.3071,2,-0.01116236,0.3624,,,,,,27,0,27,0,1,,,,,
,,271559,001,2023-07-31_19h46.38.700,arm3_eps,2022.2.5,MacIntel,60.04202942,60cf8cd5edc8abe7af47f138,64c7fed44a04f777bb1e18ce,64c800d7548c6b5d0d21ead7,down,1,0.75,0.3071,3,0,1.1486,,,,,,28,0,28,0,1,,,,,
,,271559,001,2023-07-31_19h46.38.700,arm3_eps,2022.2.5,MacIntel,60.04202942,60cf8cd5edc8abe7af47f138,64c7fed44a04f777bb1e18ce,64c800d7548c6b5d0d21ead7,right,1,0.75,0.3071,3,0.015932835,0.7321,,,,,,29,0,29,0,1,,,,,
,,271559,001,2023-07-31_19h46.38.700,arm3_eps,2022.2.5,MacIntel,60.04202942,60cf8cd5edc8abe7af47f138,64c7fed44a04f777bb1e18ce,64c800d7548c6b5d0d21ead7,right,1,0.75,0.3071,3,-0.004933016,0.1464,,,,,,30,0,30,0,1,,,,,
,,271559,001,2023-07-31_19h46.38.700,arm3_eps,2022.2.5,MacIntel,60.04202942,60cf8cd5edc8abe7af47f138,64c7fed44a04f777bb1e18ce,64c800d7548c6b5d0d21ead7,right,1,0.75,0.3071,3,0.021835169,0.1514,,,,,,31,0,31,0,1,,,,,
,,271559,001,2023-07-31_19h46.38.700,arm3_eps,2022.2.5,MacIntel,60.04202942,60cf8cd5edc8abe7af47f138,64c7fed44a04f777bb1e18ce,64c800d7548c6b5d0d21ead7,right,1,0.75,0.3071,3,0.014409677,0.1747,,,,,,32,0,32,0,1,,,,,
,,271559,001,2023-07-31_19h46.38.700,arm3_eps,2022.2.5,MacIntel,60.04202942,60cf8cd5edc8abe7af47f138,64c7fed44a04f777bb1e18ce,64c800d7548c6b5d0d21ead7,right,1,0.75,0.3071,3,0.008082659,0.1551,,,,,,33,0,33,0,1,,,,,
,,271559,001,2023-07-31_19h46.38.700,arm3_eps,2022.2.5,MacIntel,60.04202942,60cf8cd5edc8abe7af47f138,64c7fed44a04f777bb1e18ce,64c800d7548c6b5d0d21ead7,right,1,0.75,0.3071,3,0.043929414,0.1743,,,,,,34,0,34,0,1,,,,,
,,271559,001,2023-07-31_19h46.38.700,arm3_eps,2022.2.5,MacIntel,60.04202942,60cf8cd5edc8abe7af47f138,64c7fed44a04f777bb1e18ce,64c800d7548c6b5d0d21ead7,up,-1,0.75,0.3071,4,0,0.7475,,,,,,35,0,35,0,1,,,,,
,,271559,001,2023-07-31_19h46.38.700,arm3_eps,2022.2.5,MacIntel,60.04202942,60cf8cd5edc8abe7af47f138,64c7fed44a04f777bb1e18ce,64c800d7548c6b5d0d21ead7,right,-1,0.75,0.3071,4,-0.012960661,0.4524,,,,,,36,0,36,0,1,,,,,
,,271559,001,2023-07-31_19h46.38.700,arm3_eps,2022.2.5,MacIntel,60.04202942,60cf8cd5edc8abe7af47f138,64c7fed44a04f777bb1e18ce,64c800d7548c6b5d0d21ead7,right,-1,0.75,0.3071,4,-0.026611975,0.1946,,,,,,37,0,37,0,1,,,,,
,,271559,001,2023-07-31_19h46.38.700,arm3_eps,2022.2.5,MacIntel,60.04202942,60cf8cd5edc8abe7af47f138,64c7fed44a04f777bb1e18ce,64c800d7548c6b5d0d21ead7,right,-1,0.75,0.3071,4,-0.050451375,0.1538,,,,,,38,0,38,0,1,,,,,
,,271559,001,2023-07-31_19h46.38.700,arm3_eps,2022.2.5,MacIntel,60.04202942,60cf8cd5edc8abe7af47f138,64c7fed44a04f777bb1e18ce,64c800d7548c6b5d0d21ead7,down,1,0.75,0.3071,5,0,0.1905,,,,,,39,0,39,0,1,,,,,
,,271559,001,2023-07-31_19h46.38.700,arm3_eps,2022.2.5,MacIntel,60.04202942,60cf8cd5edc8abe7af47f138,64c7fed44a04f777bb1e18ce,64c800d7548c6b5d0d21ead7,right,1,0.75,0.3071,5,-2.85352E-05,0.4338,,,,,,40,0,40,0,1,,,,,
,,271559,001,2023-07-31_19h46.38.700,arm3_eps,2022.2.5,MacIntel,60.04202942,60cf8cd5edc8abe7af47f138,64c7fed44a04f777bb1e18ce,64c800d7548c6b5d0d21ead7,right,1,0.75,0.3071,5,-0.003185169,0.187,,,,,,41,0,41,0,1,,,,,
,,271559,001,2023-07-31_19h46.38.700,arm3_eps,2022.2.5,MacIntel,60.04202942,60cf8cd5edc8abe7af47f138,64c7fed44a04f777bb1e18ce,64c800d7548c6b5d0d21ead7,right,1,0.75,0.3071,5,0.007885137,0.1533,,,,,,42,0,42,0,1,,,,,
,,271559,001,2023-07-31_19h46.38.700,arm3_eps,2022.2.5,MacIntel,60.04202942,60cf8cd5edc8abe7af47f138,64c7fed44a04f777bb1e18ce,64c800d7548c6b5d0d21ead7,right,1,0.75,0.3071,5,0.012762338,0.3775,,,,,,43,0,43,0,1,,,,,
,,271559,001,2023-07-31_19h46.38.700,arm3_eps,2022.2.5,MacIntel,60.04202942,60cf8cd5edc8abe7af47f138,64c7fed44a04f777bb1e18ce,64c800d7548c6b5d0d21ead7,right,1,0.75,0.3071,5,0.027067312,0.1469,,,,,,44,0,44,0,1,,,,,
,,271559,001,2023-07-31_19h46.38.700,arm3_eps,2022.2.5,MacIntel,60.04202942,60cf8cd5edc8abe7af47f138,64c7fed44a04f777bb1e18ce,64c800d7548c6b5d0d21ead7,right,1,0.75,0.3071,5,0.023623017,0.213,,,,,,45,0,45,0,1,,,,,
,,271559,001,2023-07-31_19h46.38.700,arm3_eps,2022.2.5,MacIntel,60.04202942,60cf8cd5edc8abe7af47f138,64c7fed44a04f777bb1e18ce,64c800d7548c6b5d0d21ead7,up,-1,0.75,0.3071,5,0,0.3103,,,,,,46,0,46,0,1,,,,,
,,271559,001,2023-07-31_19h46.38.700,arm3_eps,2022.2.5,MacIntel,60.04202942,60cf8cd5edc8abe7af47f138,64c7fed44a04f777bb1e18ce,64c800d7548c6b5d0d21ead7,right,-1,0.75,0.3071,5,-0.0025125,0.259,,,,,,47,0,47,0,1,,,,,
,,271559,001,2023-07-31_19h46.38.700,arm3_eps,2022.2.5,MacIntel,60.04202942,60cf8cd5edc8abe7af47f138,64c7fed44a04f777bb1e18ce,64c800d7548c6b5d0d21ead7,right,-1,0.75,0.3071,5,-0.003307427,0.3367,,,,,,48,0,48,0,1,,,,,
,,271559,001,2023-07-31_19h46.38.700,arm3_eps,2022.2.5,MacIntel,60.04202942,60cf8cd5edc8abe7af47f138,64c7fed44a04f777bb1e18ce,64c800d7548c6b5d0d21ead7,right,-1,0.75,0.3071,5,-0.015797492,0.1715,,,,,,49,0,49,0,1,,,,,
,,271559,001,2023-07-31_19h46.38.700,arm3_eps,2022.2.5,MacIntel,60.04202942,60cf8cd5edc8abe7af47f138,64c7fed44a04f777bb1e18ce,64c800d7548c6b5d0d21ead7,down,-1,0.75,0.3071,6,0,0.2531,,,,,,50,0,50,0,1,,,,,
,,271559,001,2023-07-31_19h46.38.700,arm3_eps,2022.2.5,MacIntel,60.04202942,60cf8cd5edc8abe7af47f138,64c7fed44a04f777bb1e18ce,64c800d7548c6b5d0d21ead7,right,-1,0.75,0.3071,6,-0.039086707,0.4777,,,,,,51,0,51,0,1,,,,,
,,271559,001,2023-07-31_19h46.38.700,arm3_eps,2022.2.5,MacIntel,60.04202942,60cf8cd5edc8abe7af47f138,64c7fed44a04f777bb1e18ce,64c800d7548c6b5d0d21ead7,right,-1,0.75,0.3071,6,-0.067942015,0.1606,,,,,,52,0,52,0,1,,,,,
,,271559,001,2023-07-31_19h46.38.700,arm3_eps,2022.2.5,MacIntel,60.04202942,60cf8cd5edc8abe7af47f138,64c7fed44a04f777bb1e18ce,64c800d7548c6b5d0d21ead7,right,-1,0.75,0.3071,6,-0.080800953,0.1587,,,,,,53,0,53,0,1,,,,,
,,271559,001,2023-07-31_19h46.38.700,arm3_eps,2022.2.5,MacIntel,60.04202942,60cf8cd5edc8abe7af47f138,64c7fed44a04f777bb1e18ce,64c800d7548c6b5d0d21ead7,down,-1,0.75,0.3071,7,0,0.4589,,,,,,54,0,54,0,1,,,,,
,,271559,001,2023-07-31_19h46.38.700,arm3_eps,2022.2.5,MacIntel,60.04202942,60cf8cd5edc8abe7af47f138,64c7fed44a04f777bb1e18ce,64c800d7548c6b5d0d21ead7,right,-1,0.75,0.3071,7,0.016346848,0.5737,,,,,,55,0,55,0,1,,,,,
,,271559,001,2023-07-31_19h46.38.700,arm3_eps,2022.2.5,MacIntel,60.04202942,60cf8cd5edc8abe7af47f138,64c7fed44a04f777bb1e18ce,64c800d7548c6b5d0d21ead7,right,-1,0.75,0.3071,7,0.023467939,0.1533,,,,,,56,0,56,0,1,,,,,
,,271559,001,2023-07-31_19h46.38.700,arm3_eps,2022.2.5,MacIntel,60.04202942,60cf8cd5edc8abe7af47f138,64c7fed44a04f777bb1e18ce,64c800d7548c6b5d0d21ead7,up,1,0.75,0.3071,6,0,0.3137,,,,,,57,0,57,0,1,,,,,
,,271559,001,2023-07-31_19h46.38.700,arm3_eps,2022.2.5,MacIntel,60.04202942,60cf8cd5edc8abe7af47f138,64c7fed44a04f777bb1e18ce,64c800d7548c6b5d0d21ead7,right,1,0.75,0.3071,6,0.024141405,0.688,,,,,,58,0,58,0,1,,,,,
,,271559,001,2023-07-31_19h46.38.700,arm3_eps,2022.2.5,MacIntel,60.04202942,60cf8cd5edc8abe7af47f138,64c7fed44a04f777bb1e18ce,64c800d7548c6b5d0d21ead7,right,1,0.75,0.3071,6,0.037711753,0.145,,,,,,59,0,59,0,1,,,,,
,,271559,001,2023-07-31_19h46.38.700,arm3_eps,2022.2.5,MacIntel,60.04202942,60cf8cd5edc8abe7af47f138,64c7fed44a04f777bb1e18ce,64c800d7548c6b5d0d21ead7,right,1,0.75,0.3071,6,0.061382649,0.1271,,,,,,60,0,60,0,1,,,,,
,,271559,001,2023-07-31_19h46.38.700,arm3_eps,2022.2.5,MacIntel,60.04202942,60cf8cd5edc8abe7af47f138,64c7fed44a04f777bb1e18ce,64c800d7548c6b5d0d21ead7,up,1,0.75,0.3071,6,0,0.3297,,,,,,61,0,61,0,1,,,,,
,,271559,001,2023-07-31_19h46.38.700,arm3_eps,2022.2.5,MacIntel,60.04202942,60cf8cd5edc8abe7af47f138,64c7fed44a04f777bb1e18ce,64c800d7548c6b5d0d21ead7,right,1,0.75,0.3071,6,0.037423758,0.4135,,,,,,62,0,62,0,1,,,,,
,,271559,001,2023-07-31_19h46.38.700,arm3_eps,2022.2.5,MacIntel,60.04202942,60cf8cd5edc8abe7af47f138,64c7fed44a04f777bb1e18ce,64c800d7548c6b5d0d21ead7,right,1,0.75,0.3071,6,0.040355107,0.1516,,,,,,63,0,63,0,1,,,,,
,,271559,001,2023-07-31_19h46.38.700,arm3_eps,2022.2.5,MacIntel,60.04202942,60cf8cd5edc8abe7af47f138,64c7fed44a04f777bb1e18ce,64c800d7548c6b5d0d21ead7,right,1,0.75,0.3071,6,0.05991431,0.1599,,,,,,64,0,64,0,1,,,,,
,,271559,001,2023-07-31_19h46.38.700,arm3_eps,2022.2.5,MacIntel,60.04202942,60cf8cd5edc8abe7af47f138,64c7fed44a04f777bb1e18ce,64c800d7548c6b5d0d21ead7,up,1,0.75,0.3071,6,0,0.2371,,,,,,65,0,65,0,1,,,,,
,,271559,001,2023-07-31_19h46.38.700,arm3_eps,2022.2.5,MacIntel,60.04202942,60cf8cd5edc8abe7af47f138,64c7fed44a04f777bb1e18ce,64c800d7548c6b5d0d21ead7,right,1,0.75,0.3071,6,0.012700481,0.517,,,,,,66,0,66,0,1,,,,,
,,271559,001,2023-07-31_19h46.38.700,arm3_eps,2022.2.5,MacIntel,60.04202942,60cf8cd5edc8abe7af47f138,64c7fed44a04f777bb1e18ce,64c800d7548c6b5d0d21ead7,right,1,0.75,0.3071,6,-0.008769701,0.1523,,,,,,67,0,67,0,1,,,,,
,,271559,001,2023-07-31_19h46.38.700,arm3_eps,2022.2.5,MacIntel,60.04202942,60cf8cd5edc8abe7af47f138,64c7fed44a04f777bb1e18ce,64c800d7548c6b5d0d21ead7,up,1,0.75,0.3071,7,0,0.7902,,,,,,68,0,68,0,1,,,,,
,,271559,001,2023-07-31_19h46.38.700,arm3_eps,2022.2.5,MacIntel,60.04202942,60cf8cd5edc8abe7af47f138,64c7fed44a04f777bb1e18ce,64c800d7548c6b5d0d21ead7,right,1,0.75,0.3071,7,-0.010786055,0.7183,,,,,,69,0,69,0,1,,,,,
,,271559,001,2023-07-31_19h46.38.700,arm3_eps,2022.2.5,MacIntel,60.04202942,60cf8cd5edc8abe7af47f138,64c7fed44a04f777bb1e18ce,64c800d7548c6b5d0d21ead7,right,1,0.75,0.3071,7,-0.0327394,0.1565,,,,,,70,0,70,0,1,,,,,
,,271559,001,2023-07-31_19h46.38.700,arm3_eps,2022.2.5,MacIntel,60.04202942,60cf8cd5edc8abe7af47f138,64c7fed44a04f777bb1e18ce,64c800d7548c6b5d0d21ead7,down,-1,0.75,0.3071,7,0,0.6003,,,,,,71,0,71,0,1,,,,,
,,271559,001,2023-07-31_19h46.38.700,arm3_eps,2022.2.5,MacIntel,60.04202942,60cf8cd5edc8abe7af47f138,64c7fed44a04f777bb1e18ce,64c800d7548c6b5d0d21ead7,right,-1,0.75,0.3071,7,0.001305429,0.7998,,,,,,72,0,72,0,1,,,,,
,,271559,001,2023-07-31_19h46.38.700,arm3_eps,2022.2.5,MacIntel,60.04202942,60cf8cd5edc8abe7af47f138,64c7fed44a04f777bb1e18ce,64c800d7548c6b5d0d21ead7,right,-1,0.75,0.3071,7,-0.041377219,0.1261,,,,,,73,0,73,0,1,,,,,
,,271559,001,2023-07-31_19h46.38.700,arm3_eps,2022.2.5,MacIntel,60.04202942,60cf8cd5edc8abe7af47f138,64c7fed44a04f777bb1e18ce,64c800d7548c6b5d0d21ead7,down,-1,0.75,0.3071,8,0,0.2339,,,,,,74,0,74,0,1,,,,,
,,271559,001,2023-07-31_19h46.38.700,arm3_eps,2022.2.5,MacIntel,60.04202942,60cf8cd5edc8abe7af47f138,64c7fed44a04f777bb1e18ce,64c800d7548c6b5d0d21ead7,right,-1,0.75,0.3071,8,-0.028997311,0.3613,,,,,,75,0,75,0,1,,,,,
,,271559,001,2023-07-31_19h46.38.700,arm3_eps,2022.2.5,MacIntel,60.04202942,60cf8cd5edc8abe7af47f138,64c7fed44a04f777bb1e18ce,64c800d7548c6b5d0d21ead7,down,1,0.75,0.3071,8,0,0.6456,,,,,,76,0,76,0,1,,,,,
,,271559,001,2023-07-31_19h46.38.700,arm3_eps,2022.2.5,MacIntel,60.04202942,60cf8cd5edc8abe7af47f138,64c7fed44a04f777bb1e18ce,64c800d7548c6b5d0d21ead7,right,1,0.75,0.3071,8,0.039849748,0.7964,,,,,,77,0,77,0,1,,,,,
,,271559,001,2023-07-31_19h46.38.700,arm3_eps,2022.2.5,MacIntel,60.04202942,60cf8cd5edc8abe7af47f138,64c7fed44a04f777bb1e18ce,64c800d7548c6b5d0d21ead7,up,1,0.75,0.3071,9,0,0.3309,,,,,,78,0,78,0,1,,,,,
,,271559,001,2023-07-31_19h46.38.700,arm3_eps,2022.2.5,MacIntel,60.04202942,60cf8cd5edc8abe7af47f138,64c7fed44a04f777bb1e18ce,64c800d7548c6b5d0d21ead7,right,1,0.75,0.3071,9,0.018460437,0.7995,,,,,,79,0,79,0,1,,,,,
,,271559,001,2023-07-31_19h46.38.700,arm3_eps,2022.2.5,MacIntel,60.04202942,60cf8cd5edc8abe7af47f138,64c7fed44a04f777bb1e18ce,64c800d7548c6b5d0d21ead7,right,1,0.75,0.3071,9,0.010570023,0.1677,,,,,,80,0,80,0,1,,,,,
,,271559,001,2023-07-31_19h46.38.700,arm3_eps,2022.2.5,MacIntel,60.04202942,60cf8cd5edc8abe7af47f138,64c7fed44a04f777bb1e18ce,64c800d7548c6b5d0d21ead7,up,1,0.75,0.3071,9,0,0.5816,,,,,,81,0,81,0,1,,,,,
,,271559,001,2023-07-31_19h46.38.700,arm3_eps,2022.2.5,MacIntel,60.04202942,60cf8cd5edc8abe7af47f138,64c7fed44a04f777bb1e18ce,64c800d7548c6b5d0d21ead7,right,1,0.75,0.3071,9,0.048900228,0.5752,,,,,,82,0,82,0,1,,,,,
,,271559,001,2023-07-31_19h46.38.700,arm3_eps,2022.2.5,MacIntel,60.04202942,60cf8cd5edc8abe7af47f138,64c7fed44a04f777bb1e18ce,64c800d7548c6b5d0d21ead7,right,1,0.75,0.3071,9,0.038999914,0.1751,,,,,,83,0,83,0,1,,,,,
,,271559,001,2023-07-31_19h46.38.700,arm3_eps,2022.2.5,MacIntel,60.04202942,60cf8cd5edc8abe7af47f138,64c7fed44a04f777bb1e18ce,64c800d7548c6b5d0d21ead7,right,1,0.75,0.3071,9,0.080916483,0.1421,,,,,,84,0,84,0,1,,,,,
,,271559,001,2023-07-31_19h46.38.700,arm3_eps,2022.2.5,MacIntel,60.04202942,60cf8cd5edc8abe7af47f138,64c7fed44a04f777bb1e18ce,64c800d7548c6b5d0d21ead7,up,-1,0.75,0.3071,10,0,0.2932,,,,,,85,0,85,0,1,,,,,
,,271559,001,2023-07-31_19h46.38.700,arm3_eps,2022.2.5,MacIntel,60.04202942,60cf8cd5edc8abe7af47f138,64c7fed44a04f777bb1e18ce,64c800d7548c6b5d0d21ead7,right,-1,0.75,0.3071,10,0.032900641,0.5732,,,,,,86,0,86,0,1,,,,,
,,271559,001,2023-07-31_19h46.38.700,arm3_eps,2022.2.5,MacIntel,60.04202942,60cf8cd5edc8abe7af47f138,64c7fed44a04f777bb1e18ce,64c800d7548c6b5d0d21ead7,right,-1,0.75,0.3071,10,0.027175289,0.1756,,,,,,87,0,87,0,1,,,,,
,,271559,001,2023-07-31_19h46.38.700,arm3_eps,2022.2.5,MacIntel,60.04202942,60cf8cd5edc8abe7af47f138,64c7fed44a04f777bb1e18ce,64c800d7548c6b5d0d21ead7,down,1,0.75,0.3071,11,0,0.9317,,,,,,88,0,88,0,1,,,,,
,,271559,001,2023-07-31_19h46.38.700,arm3_eps,2022.2.5,MacIntel,60.04202942,60cf8cd5edc8abe7af47f138,64c7fed44a04f777bb1e18ce,64c800d7548c6b5d0d21ead7,right,1,0.75,0.3071,11,0.019652859,0.6324,,,,,,89,0,89,0,1,,,,,
,,271559,001,2023-07-31_19h46.38.700,arm3_eps,2022.2.5,MacIntel,60.04202942,60cf8cd5edc8abe7af47f138,64c7fed44a04f777bb1e18ce,64c800d7548c6b5d0d21ead7,right,1,0.75,0.3071,11,0.002129503,0.129,,,,,,90,0,90,0,1,,,,,
,,271559,001,2023-07-31_19h46.38.700,arm3_eps,2022.2.5,MacIntel,60.04202942,60cf8cd5edc8abe7af47f138,64c7fed44a04f777bb1e18ce,64c800d7548c6b5d0d21ead7,up,1,0.75,0.3071,11,0,0.334,,,,,,91,0,91,0,1,,,,,
,,271559,001,2023-07-31_19h46.38.700,arm3_eps,2022.2.5,MacIntel,60.04202942,60cf8cd5edc8abe7af47f138,64c7fed44a04f777bb1e18ce,64c800d7548c6b5d0d21ead7,right,1,0.75,0.3071,11,-0.015428391,0.5394,,,,,,92,0,92,0,1,,,,,
,,271559,001,2023-07-31_19h46.38.700,arm3_eps,2022.2.5,MacIntel,60.04202942,60cf8cd5edc8abe7af47f138,64c7fed44a04f777bb1e18ce,64c800d7548c6b5d0d21ead7,right,1,0.75,0.3071,11,-0.020478942,0.2077,,,,,,93,0,93,0,1,,,,,
,,271559,001,2023-07-31_19h46.38.700,arm3_eps,2022.2.5,MacIntel,60.04202942,60cf8cd5edc8abe7af47f138,64c7fed44a04f777bb1e18ce,64c800d7548c6b5d0d21ead7,down,1,0.75,0.3071,10,0,0.2777,,,,,,94,0,94,0,1,,,,,
,,271559,001,2023-07-31_19h46.38.700,arm3_eps,2022.2.5,MacIntel,60.04202942,60cf8cd5edc8abe7af47f138,64c7fed44a04f777bb1e18ce,64c800d7548c6b5d0d21ead7,right,1,0.75,0.3071,10,0.020829859,0.5967,,,,,,95,0,95,0,1,,,,,
,,271559,001,2023-07-31_19h46.38.700,arm3_eps,2022.2.5,MacIntel,60.04202942,60cf8cd5edc8abe7af47f138,64c7fed44a04f777bb1e18ce,64c800d7548c6b5d0d21ead7,right,1,0.75,0.3071,10,-0.009011371,0.1499,,,,,,96,0,96,0,1,,,,,
,,271559,001,2023-07-31_19h46.38.700,arm3_eps,2022.2.5,MacIntel,60.04202942,60cf8cd5edc8abe7af47f138,64c7fed44a04f777bb1e18ce,64c800d7548c6b5d0d21ead7,down,1,0.75,0.3071,9,0,0.2085,,,,,,97,0,97,0,1,,,,,
,,271559,001,2023-07-31_19h46.38.700,arm3_eps,2022.2.5,MacIntel,60.04202942,60cf8cd5edc8abe7af47f138,64c7fed44a04f777bb1e18ce,64c800d7548c6b5d0d21ead7,right,1,0.75,0.3071,9,0.036991729,0.3991,,,,,,98,0,98,0,1,,,,,
,,271559,001,2023-07-31_19h46.38.700,arm3_eps,2022.2.5,MacIntel,60.04202942,60cf8cd5edc8abe7af47f138,64c7fed44a04f777bb1e18ce,64c800d7548c6b5d0d21ead7,right,1,0.75,0.3071,9,0.028353826,0.1758,,,,,,99,0,99,0,1,,,,,
,,271559,001,2023-07-31_19h46.38.700,arm3_eps,2022.2.5,MacIntel,60.04202942,60cf8cd5edc8abe7af47f138,64c7fed44a04f777bb1e18ce,64c800d7548c6b5d0d21ead7,right,1,0.75,0.3071,9,0.015866313,0.1624,,,,,,100,0,100,0,1,,,,,
,,271559,001,2023-07-31_19h46.38.700,arm3_eps,2022.2.5,MacIntel,60.04202942,60cf8cd5edc8abe7af47f138,64c7fed44a04f777bb1e18ce,64c800d7548c6b5d0d21ead7,up,-1,0.75,0.3071,9,0,0.2931,,,,,,101,0,101,0,1,,,,,
,,271559,001,2023-07-31_19h46.38.700,arm3_eps,2022.2.5,MacIntel,60.04202942,60cf8cd5edc8abe7af47f138,64c7fed44a04f777bb1e18ce,64c800d7548c6b5d0d21ead7,right,-1,0.75,0.3071,9,0.021878781,0.4122,,,,,,102,0,102,0,1,,,,,
,,271559,001,2023-07-31_19h46.38.700,arm3_eps,2022.2.5,MacIntel,60.04202942,60cf8cd5edc8abe7af47f138,64c7fed44a04f777bb1e18ce,64c800d7548c6b5d0d21ead7,right,-1,0.75,0.3071,9,-0.013556383,0.1673,,,,,,103,0,103,0,1,,,,,
,,271559,001,2023-07-31_19h46.38.700,arm3_eps,2022.2.5,MacIntel,60.04202942,60cf8cd5edc8abe7af47f138,64c7fed44a04f777bb1e18ce,64c800d7548c6b5d0d21ead7,right,-1,0.75,0.3071,9,-0.000810633,0.1542,,,,,,104,0,104,0,1,,,,,
,,271559,001,2023-07-31_19h46.38.700,arm3_eps,2022.2.5,MacIntel,60.04202942,60cf8cd5edc8abe7af47f138,64c7fed44a04f777bb1e18ce,64c800d7548c6b5d0d21ead7,right,-1,0.75,0.3071,9,-0.011713669,0.2115,,,,,,105,0,105,0,1,,,,,
,,271559,001,2023-07-31_19h46.38.700,arm3_eps,2022.2.5,MacIntel,60.04202942,60cf8cd5edc8abe7af47f138,64c7fed44a04f777bb1e18ce,64c800d7548c6b5d0d21ead7,right,-1,0.75,0.3071,9,-0.024788259,0.1606,,,,,,106,0,106,0,1,,,,,
,,271559,001,2023-07-31_19h46.38.700,arm3_eps,2022.2.5,MacIntel,60.04202942,60cf8cd5edc8abe7af47f138,64c7fed44a04f777bb1e18ce,64c800d7548c6b5d0d21ead7,down,-1,0.75,0.3071,10,0,0.3436,,,,,,107,0,107,0,1,,,,,
,,271559,001,2023-07-31_19h46.38.700,arm3_eps,2022.2.5,MacIntel,60.04202942,60cf8cd5edc8abe7af47f138,64c7fed44a04f777bb1e18ce,64c800d7548c6b5d0d21ead7,right,-1,0.75,0.3071,10,-0.037960064,0.6793,,,,,,108,0,108,0,1,,,,,
,,271559,001,2023-07-31_19h46.38.700,arm3_eps,2022.2.5,MacIntel,60.04202942,60cf8cd5edc8abe7af47f138,64c7fed44a04f777bb1e18ce,64c800d7548c6b5d0d21ead7,right,-1,0.75,0.3071,10,-0.035394656,0.1674,,,,,,109,0,109,0,1,,,,,
,,271559,001,2023-07-31_19h46.38.700,arm3_eps,2022.2.5,MacIntel,60.04202942,60cf8cd5edc8abe7af47f138,64c7fed44a04f777bb1e18ce,64c800d7548c6b5d0d21ead7,down,-1,0.75,0.3071,11,0,0.3183,,,,,,110,0,110,0,1,,,,,
,,271559,001,2023-07-31_19h46.38.700,arm3_eps,2022.2.5,MacIntel,60.04202942,60cf8cd5edc8abe7af47f138,64c7fed44a04f777bb1e18ce,64c800d7548c6b5d0d21ead7,right,-1,0.75,0.3071,11,0.026162892,0.5451,,,,,,111,0,111,0,1,,,,,
,,271559,001,2023-07-31_19h46.38.700,arm3_eps,2022.2.5,MacIntel,60.04202942,60cf8cd5edc8abe7af47f138,64c7fed44a04f777bb1e18ce,64c800d7548c6b5d0d21ead7,right,-1,0.75,0.3071,11,0.036682714,0.1469,,,,,,112,0,112,0,1,,,,,
,,271559,001,2023-07-31_19h46.38.700,arm3_eps,2022.2.5,MacIntel,60.04202942,60cf8cd5edc8abe7af47f138,64c7fed44a04f777bb1e18ce,64c800d7548c6b5d0d21ead7,right,-1,0.75,0.3071,11,0.01507379,0.5443,,,,,,113,0,113,0,1,,,,,
,,271559,001,2023-07-31_19h46.38.700,arm3_eps,2022.2.5,MacIntel,60.04202942,60cf8cd5edc8abe7af47f138,64c7fed44a04f777bb1e18ce,64c800d7548c6b5d0d21ead7,right,-1,0.75,0.3071,11,-0.017862911,0.4457,,,,,,114,0,114,0,1,,,,,
,,271559,001,2023-07-31_19h46.38.700,arm3_eps,2022.2.5,MacIntel,60.04202942,60cf8cd5edc8abe7af47f138,64c7fed44a04f777bb1e18ce,64c800d7548c6b5d0d21ead7,down,-1,0.75,0.3071,12,0,0.5408,,,,,,115,0,115,0,1,,,,,
,,271559,001,2023-07-31_19h46.38.700,arm3_eps,2022.2.5,MacIntel,60.04202942,60cf8cd5edc8abe7af47f138,64c7fed44a04f777bb1e18ce,64c800d7548c6b5d0d21ead7,right,-1,0.75,0.3071,12,0.009148062,0.472,,,,,,116,0,116,0,1,,,,,
,,271559,001,2023-07-31_19h46.38.700,arm3_eps,2022.2.5,MacIntel,60.04202942,60cf8cd5edc8abe7af47f138,64c7fed44a04f777bb1e18ce,64c800d7548c6b5d0d21ead7,right,-1,0.75,0.3071,12,0.001793427,0.184,,,,,,117,0,117,0,1,,,,,
,,271559,001,2023-07-31_19h46.38.700,arm3_eps,2022.2.5,MacIntel,60.04202942,60cf8cd5edc8abe7af47f138,64c7fed44a04f777bb1e18ce,64c800d7548c6b5d0d21ead7,right,-1,0.75,0.3071,12,0.045480707,0.1818,,,,,,118,0,118,0,1,,,,,
,,271559,001,2023-07-31_19h46.38.700,arm3_eps,2022.2.5,MacIntel,60.04202942,60cf8cd5edc8abe7af47f138,64c7fed44a04f777bb1e18ce,64c800d7548c6b5d0d21ead7,up,-1,0.75,0.3071,11,0,0.4115,,,,,,119,0,119,0,1,,,,,
,,271559,001,2023-07-31_19h46.38.700,arm3_eps,2022.2.5,MacIntel,60.04202942,60cf8cd5edc8abe7af47f138,64c7fed44a04f777bb1e18ce,64c800d7548c6b5d0d21ead7,right,-1,0.75,0.3071,11,-0.005887854,0.6619,,,,,,120,0,120,0,1,,,,,
,,271559,001,2023-07-31_19h46.38.700,arm3_eps,2022.2.5,MacIntel,60.04202942,60cf8cd5edc8abe7af47f138,64c7fed44a04f777bb1e18ce,64c800d7548c6b5d0d21ead7,right,-1,0.75,0.3071,11,-0.010891835,0.154,,,,,,121,0,121,0,1,,,,,
,,271559,001,2023-07-31_19h46.38.700,arm3_eps,2022.2.5,MacIntel,60.04202942,60cf8cd5edc8abe7af47f138,64c7fed44a04f777bb1e18ce,64c800d7548c6b5d0d21ead7,right,-1,0.75,0.3071,11,-0.037609312,0.1543,,,,,,122,0,122,0,1,,,,,
,,271559,001,2023-07-31_19h46.38.700,arm3_eps,2022.2.5,MacIntel,60.04202942,60cf8cd5edc8abe7af47f138,64c7fed44a04f777bb1e18ce,64c800d7548c6b5d0d21ead7,down,-1,0.75,0.3071,12,0,0.231,,,,,,123,0,123,0,1,,,,,
,,271559,001,2023-07-31_19h46.38.700,arm3_eps,2022.2.5,MacIntel,60.04202942,60cf8cd5edc8abe7af47f138,64c7fed44a04f777bb1e18ce,64c800d7548c6b5d0d21ead7,right,-1,0.75,0.3071,12,0.024157288,0.6111,,,,,,124,0,124,0,1,,,,,
,,271559,001,2023-07-31_19h46.38.700,arm3_eps,2022.2.5,MacIntel,60.04202942,60cf8cd5edc8abe7af47f138,64c7fed44a04f777bb1e18ce,64c800d7548c6b5d0d21ead7,right,-1,0.75,0.3071,12,0.020829746,0.1719,,,,,,125,0,125,0,1,,,,,
,,271559,001,2023-07-31_19h46.38.700,arm3_eps,2022.2.5,MacIntel,60.04202942,60cf8cd5edc8abe7af47f138,64c7fed44a04f777bb1e18ce,64c800d7548c6b5d0d21ead7,up,-1,0.75,0.3071,11,0,0.5624,,,,,,126,0,126,0,1,,,,,
,,271559,001,2023-07-31_19h46.38.700,arm3_eps,2022.2.5,MacIntel,60.04202942,60cf8cd5edc8abe7af47f138,64c7fed44a04f777bb1e18ce,64c800d7548c6b5d0d21ead7,right,-1,0.75,0.3071,11,0.00877777,0.4919,,,,,,127,0,127,0,1,,,,,
,,271559,001,2023-07-31_19h46.38.700,arm3_eps,2022.2.5,MacIntel,60.04202942,60cf8cd5edc8abe7af47f138,64c7fed44a04f777bb1e18ce,64c800d7548c6b5d0d21ead7,right,-1,0.75,0.3071,11,-0.028751395,0.1734,,,,,,128,0,128,0,1,,,,,
,,271559,001,2023-07-31_19h46.38.700,arm3_eps,2022.2.5,MacIntel,60.04202942,60cf8cd5edc8abe7af47f138,64c7fed44a04f777bb1e18ce,64c800d7548c6b5d0d21ead7,down,-1,0.75,0.3071,12,0,0.2982,,,,,,129,0,129,0,1,,,,,
,,271559,001,2023-07-31_19h46.38.700,arm3_eps,2022.2.5,MacIntel,60.04202942,60cf8cd5edc8abe7af47f138,64c7fed44a04f777bb1e18ce,64c800d7548c6b5d0d21ead7,right,-1,0.75,0.3071,12,-0.013282972,0.7801,,,,,,130,0,130,0,1,,,,,
,,271559,001,2023-07-31_19h46.38.700,arm3_eps,2022.2.5,MacIntel,60.04202942,60cf8cd5edc8abe7af47f138,64c7fed44a04f777bb1e18ce,64c800d7548c6b5d0d21ead7,right,-1,0.75,0.3071,12,-0.038065511,0.1495,,,,,,131,0,131,0,1,,,,,
,,271559,001,2023-07-31_19h46.38.700,arm3_eps,2022.2.5,MacIntel,60.04202942,60cf8cd5edc8abe7af47f138,64c7fed44a04f777bb1e18ce,64c800d7548c6b5d0d21ead7,down,-1,0.75,0.3071,12,0,0.467,,,,,,132,0,132,0,1,,,,,
,,271559,001,2023-07-31_19h46.38.700,arm3_eps,2022.2.5,MacIntel,60.04202942,60cf8cd5edc8abe7af47f138,64c7fed44a04f777bb1e18ce,64c800d7548c6b5d0d21ead7,right,-1,0.75,0.3071,12,-0.004581941,0.712,,,,,,133,0,133,0,1,,,,,
,,271559,001,2023-07-31_19h46.38.700,arm3_eps,2022.2.5,MacIntel,60.04202942,60cf8cd5edc8abe7af47f138,64c7fed44a04f777bb1e18ce,64c800d7548c6b5d0d21ead7,right,-1,0.75,0.3071,12,-0.009286303,0.166,,,,,,134,0,134,0,1,,,,,
,,271559,001,2023-07-31_19h46.38.700,arm3_eps,2022.2.5,MacIntel,60.04202942,60cf8cd5edc8abe7af47f138,64c7fed44a04f777bb1e18ce,64c800d7548c6b5d0d21ead7,right,-1,0.75,0.3071,12,-0.009946308,0.2678,,,,,,135,0,135,0,1,,,,,
,,271559,001,2023-07-31_19h46.38.700,arm3_eps,2022.2.5,MacIntel,60.04202942,60cf8cd5edc8abe7af47f138,64c7fed44a04f777bb1e18ce,64c800d7548c6b5d0d21ead7,right,-1,0.75,0.3071,12,-0.035740884,0.1648,,,,,,136,0,136,0,1,,,,,
,,271559,001,2023-07-31_19h46.38.700,arm3_eps,2022.2.5,MacIntel,60.04202942,60cf8cd5edc8abe7af47f138,64c7fed44a04f777bb1e18ce,64c800d7548c6b5d0d21ead7,down,-1,0.75,0.3071,13,0,0.3644,,,,,,137,0,137,0,1,,,,,
,,271559,001,2023-07-31_19h46.38.700,arm3_eps,2022.2.5,MacIntel,60.04202942,60cf8cd5edc8abe7af47f138,64c7fed44a04f777bb1e18ce,64c800d7548c6b5d0d21ead7,right,-1,0.75,0.3071,13,-0.013506857,0.8165,,,,,,138,0,138,0,1,,,,,
,,271559,001,2023-07-31_19h46.38.700,arm3_eps,2022.2.5,MacIntel,60.04202942,60cf8cd5edc8abe7af47f138,64c7fed44a04f777bb1e18ce,64c800d7548c6b5d0d21ead7,right,-1,0.75,0.3071,13,-0.046499933,0.1553,,,,,,139,0,139,0,1,,,,,
,,271559,001,2023-07-31_19h46.38.700,arm3_eps,2022.2.5,MacIntel,60.04202942,60cf8cd5edc8abe7af47f138,64c7fed44a04f777bb1e18ce,64c800d7548c6b5d0d21ead7,right,-1,0.75,0.3071,13,-0.049979463,0.1919,,,,,,140,0,140,0,1,,,,,
,,271559,001,2023-07-31_19h46.38.700,arm3_eps,2022.2.5,MacIntel,60.04202942,60cf8cd5edc8abe7af47f138,64c7fed44a04f777bb1e18ce,64c800d7548c6b5d0d21ead7,down,-1,0.75,0.3071,14,0,0.4861,,,,,,141,0,141,0,1,,,,,
,,271559,001,2023-07-31_19h46.38.700,arm3_eps,2022.2.5,MacIntel,60.04202942,60cf8cd5edc8abe7af47f138,64c7fed44a04f777bb1e18ce,64c800d7548c6b5d0d21ead7,right,-1,0.75,0.3071,14,0.003061636,0.6346,,,,,,142,0,142,0,1,,,,,
,,271559,001,2023-07-31_19h46.38.700,arm3_eps,2022.2.5,MacIntel,60.04202942,60cf8cd5edc8abe7af47f138,64c7fed44a04f777bb1e18ce,64c800d7548c6b5d0d21ead7,right,-1,0.75,0.3071,14,-0.027473916,0.1597,,,,,,143,0,143,0,1,,,,,
,,271559,001,2023-07-31_19h46.38.700,arm3_eps,2022.2.5,MacIntel,60.04202942,60cf8cd5edc8abe7af47f138,64c7fed44a04f777bb1e18ce,64c800d7548c6b5d0d21ead7,down,-1,0.75,0.3071,15,0,0.2727,,,,,,144,0,144,0,1,,,,,
,,271559,001,2023-07-31_19h46.38.700,arm3_eps,2022.2.5,MacIntel,60.04202942,60cf8cd5edc8abe7af47f138,64c7fed44a04f777bb1e18ce,64c800d7548c6b5d0d21ead7,right,-1,0.75,0.3071,15,-0.006669652,0.785,,,,,,145,0,145,0,1,,,,,
,,271559,001,2023-07-31_19h46.38.700,arm3_eps,2022.2.5,MacIntel,60.04202942,60cf8cd5edc8abe7af47f138,64c7fed44a04f777bb1e18ce,64c800d7548c6b5d0d21ead7,right,-1,0.75,0.3071,15,-0.022001215,0.1701,,,,,,146,0,146,0,1,,,,,
,,271559,001,2023-07-31_19h46.38.700,arm3_eps,2022.2.5,MacIntel,60.04202942,60cf8cd5edc8abe7af47f138,64c7fed44a04f777bb1e18ce,64c800d7548c6b5d0d21ead7,right,-1,0.75,0.3071,15,-0.038471636,0.1595,,,,,,147,0,147,0,1,,,,,
,,271559,001,2023-07-31_19h46.38.700,arm3_eps,2022.2.5,MacIntel,60.04202942,60cf8cd5edc8abe7af47f138,64c7fed44a04f777bb1e18ce,64c800d7548c6b5d0d21ead7,down,-1,0.75,0.3071,16,0,0.2883,,,,,,148,0,148,0,1,,,,,
,,271559,001,2023-07-31_19h46.38.700,arm3_eps,2022.2.5,MacIntel,60.04202942,60cf8cd5edc8abe7af47f138,64c7fed44a04f777bb1e18ce,64c800d7548c6b5d0d21ead7,right,-1,0.75,0.3071,16,-0.015924932,0.8419,,,,,,149,0,149,0,1,,,,,
,,271559,001,2023-07-31_19h46.38.700,arm3_eps,2022.2.5,MacIntel,60.04202942,60cf8cd5edc8abe7af47f138,64c7fed44a04f777bb1e18ce,64c800d7548c6b5d0d21ead7,right,-1,0.75,0.3071,16,0.003438656,0.1748,,,,,,150,0,150,0,1,,,,,
,,271559,001,2023-07-31_19h46.38.700,arm3_eps,2022.2.5,MacIntel,60.04202942,60cf8cd5edc8abe7af47f138,64c7fed44a04f777bb1e18ce,64c800d7548c6b5d0d21ead7,right,-1,0.75,0.3071,16,0.01057716,0.2305,,,,,,151,0,151,0,1,,,,,
,,271559,001,2023-07-31_19h46.38.700,arm3_eps,2022.2.5,MacIntel,60.04202942,60cf8cd5edc8abe7af47f138,64c7fed44a04f777bb1e18ce,64c800d7548c6b5d0d21ead7,right,-1,0.75,0.3071,16,0.003525137,0.1668,,,,,,152,0,152,0,1,,,,,
,,271559,001,2023-07-31_19h46.38.700,arm3_eps,2022.2.5,MacIntel,60.04202942,60cf8cd5edc8abe7af47f138,64c7fed44a04f777bb1e18ce,64c800d7548c6b5d0d21ead7,right,-1,0.75,0.3071,16,0.001238372,0.1732,,,,,,153,0,153,0,1,,,,,
,,271559,001,2023-07-31_19h46.38.700,arm3_eps,2022.2.5,MacIntel,60.04202942,60cf8cd5edc8abe7af47f138,64c7fed44a04f777bb1e18ce,64c800d7548c6b5d0d21ead7,right,-1,0.75,0.3071,16,-0.002622917,0.1691,,,,,,154,0,154,0,1,,,,,
,,271559,001,2023-07-31_19h46.38.700,arm3_eps,2022.2.5,MacIntel,60.04202942,60cf8cd5edc8abe7af47f138,64c7fed44a04f777bb1e18ce,64c800d7548c6b5d0d21ead7,up,-1,0.75,0.3071,15,0,0.323,,,,,,155,0,155,0,1,,,,,
,,271559,001,2023-07-31_19h46.38.700,arm3_eps,2022.2.5,MacIntel,60.04202942,60cf8cd5edc8abe7af47f138,64c7fed44a04f777bb1e18ce,64c800d7548c6b5d0d21ead7,right,-1,0.75,0.3071,15,-0.00551942,0.7473,,,,,,156,0,156,0,1,,,,,
,,271559,001,2023-07-31_19h46.38.700,arm3_eps,2022.2.5,MacIntel,60.04202942,60cf8cd5edc8abe7af47f138,64c7fed44a04f777bb1e18ce,64c800d7548c6b5d0d21ead7,right,-1,0.75,0.3071,15,-0.0276719,0.1417,,,,,,157,0,157,0,1,,,,,
,,271559,001,2023-07-31_19h46.38.700,arm3_eps,2022.2.5,MacIntel,60.04202942,60cf8cd5edc8abe7af47f138,64c7fed44a04f777bb1e18ce,64c800d7548c6b5d0d21ead7,down,1,0.75,0.3071,16,0,0.3083,,,,,,158,0,158,0,1,,,,,
,,271559,001,2023-07-31_19h46.38.700,arm3_eps,2022.2.5,MacIntel,60.04202942,60cf8cd5edc8abe7af47f138,64c7fed44a04f777bb1e18ce,64c800d7548c6b5d0d21ead7,right,1,0.75,0.3071,16,0.027299883,0.5619,,,,,,159,0,159,0,1,,,,,
,,271559,001,2023-07-31_19h46.38.700,arm3_eps,2022.2.5,MacIntel,60.04202942,60cf8cd5edc8abe7af47f138,64c7fed44a04f777bb1e18ce,64c800d7548c6b5d0d21ead7,right,1,0.75,0.3071,16,0.059927655,0.2227,,,,,,160,0,160,0,1,,,,,
,,271559,001,2023-07-31_19h46.38.700,arm3_eps,2022.2.5,MacIntel,60.04202942,60cf8cd5edc8abe7af47f138,64c7fed44a04f777bb1e18ce,64c800d7548c6b5d0d21ead7,up,1,0.75,0.3071,17,0,0.3401,,,,,,161,0,161,0,1,,,,,
,,271559,001,2023-07-31_19h46.38.700,arm3_eps,2022.2.5,MacIntel,60.04202942,60cf8cd5edc8abe7af47f138,64c7fed44a04f777bb1e18ce,64c800d7548c6b5d0d21ead7,right,1,0.75,0.3071,17,-0.003509373,0.8297,,,,,,162,0,162,0,1,,,,,
,,271559,001,2023-07-31_19h46.38.700,arm3_eps,2022.2.5,MacIntel,60.04202942,60cf8cd5edc8abe7af47f138,64c7fed44a04f777bb1e18ce,64c800d7548c6b5d0d21ead7,right,1,0.75,0.3071,17,-0.021957225,0.1502,,,,,,163,0,163,0,1,,,,,
,,271559,001,2023-07-31_19h46.38.700,arm3_eps,2022.2.5,MacIntel,60.04202942,60cf8cd5edc8abe7af47f138,64c7fed44a04f777bb1e18ce,64c800d7548c6b5d0d21ead7,right,1,0.75,0.3071,17,-0.001092513,0.1566,,,,,,164,0,164,0,1,,,,,
,,271559,001,2023-07-31_19h46.38.700,arm3_eps,2022.2.5,MacIntel,60.04202942,60cf8cd5edc8abe7af47f138,64c7fed44a04f777bb1e18ce,64c800d7548c6b5d0d21ead7,right,1,0.75,0.3071,17,0.007729581,0.1723,,,,,,165,0,165,0,1,,,,,
,,271559,001,2023-07-31_19h46.38.700,arm3_eps,2022.2.5,MacIntel,60.04202942,60cf8cd5edc8abe7af47f138,64c7fed44a04f777bb1e18ce,64c800d7548c6b5d0d21ead7,right,1,0.75,0.3071,17,0.020061653,0.1931,,,,,,166,0,166,0,1,,,,,
,,271559,001,2023-07-31_19h46.38.700,arm3_eps,2022.2.5,MacIntel,60.04202942,60cf8cd5edc8abe7af47f138,64c7fed44a04f777bb1e18ce,64c800d7548c6b5d0d21ead7,up,-1,0.75,0.3071,18,0,0.2861,,,,,,167,0,167,0,1,,,,,
,,271559,001,2023-07-31_19h46.38.700,arm3_eps,2022.2.5,MacIntel,60.04202942,60cf8cd5edc8abe7af47f138,64c7fed44a04f777bb1e18ce,64c800d7548c6b5d0d21ead7,right,-1,0.75,0.3071,18,-0.008531356,0.6759,,,,,,168,0,168,0,1,,,,,
,,271559,001,2023-07-31_19h46.38.700,arm3_eps,2022.2.5,MacIntel,60.04202942,60cf8cd5edc8abe7af47f138,64c7fed44a04f777bb1e18ce,64c800d7548c6b5d0d21ead7,right,-1,0.75,0.3071,18,-0.027149975,0.1746,,,,,,169,0,169,0,1,,,,,
,,271559,001,2023-07-31_19h46.38.700,arm3_eps,2022.2.5,MacIntel,60.04202942,60cf8cd5edc8abe7af47f138,64c7fed44a04f777bb1e18ce,64c800d7548c6b5d0d21ead7,down,-1,0.75,0.3071,19,0,0.3586,,,,,,170,0,170,0,1,,,,,
,,271559,001,2023-07-31_19h46.38.700,arm3_eps,2022.2.5,MacIntel,60.04202942,60cf8cd5edc8abe7af47f138,64c7fed44a04f777bb1e18ce,64c800d7548c6b5d0d21ead7,right,-1,0.75,0.3071,19,-0.014630237,0.7538,,,,,,171,0,171,0,1,,,,,
,,271559,001,2023-07-31_19h46.38.700,arm3_eps,2022.2.5,MacIntel,60.04202942,60cf8cd5edc8abe7af47f138,64c7fed44a04f777bb1e18ce,64c800d7548c6b5d0d21ead7,right,-1,0.75,0.3071,19,-0.000100749,0.3558,,,,,,172,0,172,0,1,,,,,
,,271559,001,2023-07-31_19h46.38.700,arm3_eps,2022.2.5,MacIntel,60.04202942,60cf8cd5edc8abe7af47f138,64c7fed44a04f777bb1e18ce,64c800d7548c6b5d0d21ead7,right,-1,0.75,0.3071,19,-0.008967178,0.2054,,,,,,173,0,173,0,1,,,,,
,,271559,001,2023-07-31_19h46.38.700,arm3_eps,2022.2.5,MacIntel,60.04202942,60cf8cd5edc8abe7af47f138,64c7fed44a04f777bb1e18ce,64c800d7548c6b5d0d21ead7,right,-1,0.75,0.3071,19,-0.014024587,0.195,,,,,,174,0,174,0,1,,,,,
,,271559,001,2023-07-31_19h46.38.700,arm3_eps,2022.2.5,MacIntel,60.04202942,60cf8cd5edc8abe7af47f138,64c7fed44a04f777bb1e18ce,64c800d7548c6b5d0d21ead7,down,1,0.75,0.3071,20,0,0.4179,,,,,,175,0,175,0,1,,,,,
,,271559,001,2023-07-31_19h46.38.700,arm3_eps,2022.2.5,MacIntel,60.04202942,60cf8cd5edc8abe7af47f138,64c7fed44a04f777bb1e18ce,64c800d7548c6b5d0d21ead7,right,1,0.75,0.3071,20,0.024301354,0.7929,,,,,,176,0,176,0,1,,,,,
,,271559,001,2023-07-31_19h46.38.700,arm3_eps,2022.2.5,MacIntel,60.04202942,60cf8cd5edc8abe7af47f138,64c7fed44a04f777bb1e18ce,64c800d7548c6b5d0d21ead7,right,1,0.75,0.3071,20,0.042288829,0.2057,,,,,,177,0,177,0,1,,,,,
,,271559,001,2023-07-31_19h46.38.700,arm3_eps,2022.2.5,MacIntel,60.04202942,60cf8cd5edc8abe7af47f138,64c7fed44a04f777bb1e18ce,64c800d7548c6b5d0d21ead7,up,1,0.75,0.3071,21,0,0.4631,,,,,,178,0,178,0,1,,,,,
,,271559,001,2023-07-31_19h46.38.700,arm3_eps,2022.2.5,MacIntel,60.04202942,60cf8cd5edc8abe7af47f138,64c7fed44a04f777bb1e18ce,64c800d7548c6b5d0d21ead7,right,1,0.75,0.3071,21,0.019962606,0.6389,,,,,,179,0,179,0,1,,,,,
,,271559,001,2023-07-31_19h46.38.700,arm3_eps,2022.2.5,MacIntel,60.04202942,60cf8cd5edc8abe7af47f138,64c7fed44a04f777bb1e18ce,64c800d7548c6b5d0d21ead7,right,1,0.75,0.3071,21,0.016995835,0.1863,,,,,,180,0,180,0,1,,,,,
,,271559,001,2023-07-31_19h46.38.700,arm3_eps,2022.2.5,MacIntel,60.04202942,60cf8cd5edc8abe7af47f138,64c7fed44a04f777bb1e18ce,64c800d7548c6b5d0d21ead7,up,-1,0.75,0.3071,21,0,0.3687,,,,,,181,0,181,0,1,,,,,
,,271559,001,2023-07-31_19h46.38.700,arm3_eps,2022.2.5,MacIntel,60.04202942,60cf8cd5edc8abe7af47f138,64c7fed44a04f777bb1e18ce,64c800d7548c6b5d0d21ead7,right,-1,0.75,0.3071,21,-0.003632189,0.7546,,,,,,182,0,182,0,1,,,,,
,,271559,001,2023-07-31_19h46.38.700,arm3_eps,2022.2.5,MacIntel,60.04202942,60cf8cd5edc8abe7af47f138,64c7fed44a04f777bb1e18ce,64c800d7548c6b5d0d21ead7,right,-1,0.75,0.3071,21,-0.042622506,0.1797,,,,,,183,0,183,0,1,,,,,
,,271559,001,2023-07-31_19h46.38.700,arm3_eps,2022.2.5,MacIntel,60.04202942,60cf8cd5edc8abe7af47f138,64c7fed44a04f777bb1e18ce,64c800d7548c6b5d0d21ead7,right,-1,0.75,0.3071,21,-0.026306678,0.1464,,,,,,184,0,184,0,1,,,,,
,,271559,001,2023-07-31_19h46.38.700,arm3_eps,2022.2.5,MacIntel,60.04202942,60cf8cd5edc8abe7af47f138,64c7fed44a04f777bb1e18ce,64c800d7548c6b5d0d21ead7,down,-1,0.75,0.3071,22,0,0.4552,,,,,,185,0,185,0,1,,,,,
,,271559,001,2023-07-31_19h46.38.700,arm3_eps,2022.2.5,MacIntel,60.04202942,60cf8cd5edc8abe7af47f138,64c7fed44a04f777bb1e18ce,64c800d7548c6b5d0d21ead7,right,-1,0.75,0.3071,22,-0.037393616,0.5696,,,,,,186,0,186,0,1,,,,,
,,271559,001,2023-07-31_19h46.38.700,arm3_eps,2022.2.5,MacIntel,60.04202942,60cf8cd5edc8abe7af47f138,64c7fed44a04f777bb1e18ce,64c800d7548c6b5d0d21ead7,right,-1,0.75,0.3071,22,-0.021684237,0.1607,,,,,,187,0,187,0,1,,,,,
,,271559,001,2023-07-31_19h46.38.700,arm3_eps,2022.2.5,MacIntel,60.04202942,60cf8cd5edc8abe7af47f138,64c7fed44a04f777bb1e18ce,64c800d7548c6b5d0d21ead7,down,-1,0.75,0.3071,23,0,0.3334,,,,,,188,0,188,0,1,,,,,
,,271559,001,2023-07-31_19h46.38.700,arm3_eps,2022.2.5,MacIntel,60.04202942,60cf8cd5edc8abe7af47f138,64c7fed44a04f777bb1e18ce,64c800d7548c6b5d0d21ead7,right,-1,0.75,0.3071,23,-0.012140967,0.4896,,,,,,189,0,189,0,1,,,,,
,,271559,001,2023-07-31_19h46.38.700,arm3_eps,2022.2.5,MacIntel,60.04202942,60cf8cd5edc8abe7af47f138,64c7fed44a04f777bb1e18ce,64c800d7548c6b5d0d21ead7,right,-1,0.75,0.3071,23,-0.00646152,0.1364,,,,,,190,0,190,0,1,,,,,
,,271559,001,2023-07-31_19h46.38.700,arm3_eps,2022.2.5,MacIntel,60.04202942,60cf8cd5edc8abe7af47f138,64c7fed44a04f777bb1e18ce,64c800d7548c6b5d0d21ead7,right,-1,0.75,0.3071,23,-0.039689916,0.1715,,,,,,191,0,191,0,1,,,,,
,,271559,001,2023-07-31_19h46.38.700,arm3_eps,2022.2.5,MacIntel,60.04202942,60cf8cd5edc8abe7af47f138,64c7fed44a04f777bb1e18ce,64c800d7548c6b5d0d21ead7,down,-1,0.75,0.3071,24,0,0.2875,,,,,,192,0,192,0,1,,,,,
,,271559,001,2023-07-31_19h46.38.700,arm3_eps,2022.2.5,MacIntel,60.04202942,60cf8cd5edc8abe7af47f138,64c7fed44a04f777bb1e18ce,64c800d7548c6b5d0d21ead7,right,-1,0.75,0.3071,24,-0.017033915,0.5565,,,,,,193,0,193,0,1,,,,,
,,271559,001,2023-07-31_19h46.38.700,arm3_eps,2022.2.5,MacIntel,60.04202942,60cf8cd5edc8abe7af47f138,64c7fed44a04f777bb1e18ce,64c800d7548c6b5d0d21ead7,right,-1,0.75,0.3071,24,-0.012200437,0.1806,,,,,,194,0,194,0,1,,,,,
,,271559,001,2023-07-31_19h46.38.700,arm3_eps,2022.2.5,MacIntel,60.04202942,60cf8cd5edc8abe7af47f138,64c7fed44a04f777bb1e18ce,64c800d7548c6b5d0d21ead7,down,1,0.75,0.3071,24,0,0.9088,,,,,,195,0,195,0,1,,,,,
,,271559,001,2023-07-31_19h46.38.700,arm3_eps,2022.2.5,MacIntel,60.04202942,60cf8cd5edc8abe7af47f138,64c7fed44a04f777bb1e18ce,64c800d7548c6b5d0d21ead7,right,1,0.75,0.3071,24,-0.002238488,0.4587,,,,,,196,0,196,0,1,,,,,
,,271559,001,2023-07-31_19h46.38.700,arm3_eps,2022.2.5,MacIntel,60.04202942,60cf8cd5edc8abe7af47f138,64c7fed44a04f777bb1e18ce,64c800d7548c6b5d0d21ead7,right,1,0.75,0.3071,24,0.010756812,0.2147,,,,,,197,0,197,0,1,,,,,
,,271559,001,2023-07-31_19h46.38.700,arm3_eps,2022.2.5,MacIntel,60.04202942,60cf8cd5edc8abe7af47f138,64c7fed44a04f777bb1e18ce,64c800d7548c6b5d0d21ead7,right,1,0.75,0.3071,24,0.033764215,0.1476,,,,,,198,0,198,0,1,,,,,
,,271559,001,2023-07-31_19h46.38.700,arm3_eps,2022.2.5,MacIntel,60.04202942,60cf8cd5edc8abe7af47f138,64c7fed44a04f777bb1e18ce,64c800d7548c6b5d0d21ead7,up,-1,0.75,0.3071,25,0,0.2486,,,,,,199,0,199,0,1,,,,,
,,271559,001,2023-07-31_19h46.38.700,arm3_eps,2022.2.5,MacIntel,60.04202942,60cf8cd5edc8abe7af47f138,64c7fed44a04f777bb1e18ce,64c800d7548c6b5d0d21ead7,right,-1,0.75,0.3071,25,-0.004586442,0.4897,,,,,,200,0,200,0,1,,,,,
,,271559,001,2023-07-31_19h46.38.700,arm3_eps,2022.2.5,MacIntel,60.04202942,60cf8cd5edc8abe7af47f138,64c7fed44a04f777bb1e18ce,64c800d7548c6b5d0d21ead7,right,-1,0.75,0.3071,25,-0.032825793,0.1641,,,,,,201,0,201,0,1,,,,,
,,271559,001,2023-07-31_19h46.38.700,arm3_eps,2022.2.5,MacIntel,60.04202942,60cf8cd5edc8abe7af47f138,64c7fed44a04f777bb1e18ce,64c800d7548c6b5d0d21ead7,right,-1,0.75,0.3071,25,-0.065867197,0.1489,,,,,,202,0,202,0,1,,,,,
,,271559,001,2023-07-31_19h46.38.700,arm3_eps,2022.2.5,MacIntel,60.04202942,60cf8cd5edc8abe7af47f138,64c7fed44a04f777bb1e18ce,64c800d7548c6b5d0d21ead7,down,1,0.75,0.3071,26,0,0.2674,,,,,,203,0,203,0,1,,,,,
,,271559,001,2023-07-31_19h46.38.700,arm3_eps,2022.2.5,MacIntel,60.04202942,60cf8cd5edc8abe7af47f138,64c7fed44a04f777bb1e18ce,64c800d7548c6b5d0d21ead7,right,1,0.75,0.3071,26,0.016664877,0.6942,,,,,,204,0,204,0,1,,,,,
,,271559,001,2023-07-31_19h46.38.700,arm3_eps,2022.2.5,MacIntel,60.04202942,60cf8cd5edc8abe7af47f138,64c7fed44a04f777bb1e18ce,64c800d7548c6b5d0d21ead7,up,1,0.75,0.3071,27,0,0.3922,,,,,,205,0,205,0,1,,,,,
,,271559,001,2023-07-31_19h46.38.700,arm3_eps,2022.2.5,MacIntel,60.04202942,60cf8cd5edc8abe7af47f138,64c7fed44a04f777bb1e18ce,64c800d7548c6b5d0d21ead7,right,1,0.75,0.3071,27,-0.011911079,0.7103,,,,,,206,0,206,0,1,,,,,
,,271559,001,2023-07-31_19h46.38.700,arm3_eps,2022.2.5,MacIntel,60.04202942,60cf8cd5edc8abe7af47f138,64c7fed44a04f777bb1e18ce,64c800d7548c6b5d0d21ead7,right,1,0.75,0.3071,27,0.036581508,0.1454,,,,,,207,0,207,0,1,,,,,
,,271559,001,2023-07-31_19h46.38.700,arm3_eps,2022.2.5,MacIntel,60.04202942,60cf8cd5edc8abe7af47f138,64c7fed44a04f777bb1e18ce,64c800d7548c6b5d0d21ead7,up,1,0.75,0.3071,28,0,0.4833,,,,,,208,0,208,0,1,,,,,
,,271559,001,2023-07-31_19h46.38.700,arm3_eps,2022.2.5,MacIntel,60.04202942,60cf8cd5edc8abe7af47f138,64c7fed44a04f777bb1e18ce,64c800d7548c6b5d0d21ead7,right,1,0.75,0.3071,28,0.014430425,0.4865,,,,,,209,0,209,0,1,,,,,
,,271559,001,2023-07-31_19h46.38.700,arm3_eps,2022.2.5,MacIntel,60.04202942,60cf8cd5edc8abe7af47f138,64c7fed44a04f777bb1e18ce,64c800d7548c6b5d0d21ead7,right,1,0.75,0.3071,28,0.032140321,0.1795,,,,,,210,0,210,0,1,,,,,
,,271559,001,2023-07-31_19h46.38.700,arm3_eps,2022.2.5,MacIntel,60.04202942,60cf8cd5edc8abe7af47f138,64c7fed44a04f777bb1e18ce,64c800d7548c6b5d0d21ead7,up,1,0.75,0.3071,29,0,0.2522,,,,,,211,0,211,0,1,,,,,
,,271559,001,2023-07-31_19h46.38.700,arm3_eps,2022.2.5,MacIntel,60.04202942,60cf8cd5edc8abe7af47f138,64c7fed44a04f777bb1e18ce,64c800d7548c6b5d0d21ead7,right,1,0.75,0.3071,29,0.001393125,0.7524,,,,,,212,0,212,0,1,,,,,
,,271559,001,2023-07-31_19h46.38.700,arm3_eps,2022.2.5,MacIntel,60.04202942,60cf8cd5edc8abe7af47f138,64c7fed44a04f777bb1e18ce,64c800d7548c6b5d0d21ead7,right,1,0.75,0.3071,29,0.018412456,0.1737,,,,,,213,0,213,0,1,,,,,
,,271559,001,2023-07-31_19h46.38.700,arm3_eps,2022.2.5,MacIntel,60.04202942,60cf8cd5edc8abe7af47f138,64c7fed44a04f777bb1e18ce,64c800d7548c6b5d0d21ead7,up,1,0.75,0.3071,29,0,0.2926,,,,,,214,0,214,0,1,,,,,
,,271559,001,2023-07-31_19h46.38.700,arm3_eps,2022.2.5,MacIntel,60.04202942,60cf8cd5edc8abe7af47f138,64c7fed44a04f777bb1e18ce,64c800d7548c6b5d0d21ead7,right,1,0.75,0.3071,29,0.01986879,0.4992,,,,,,215,0,215,0,1,,,,,
,,271559,001,2023-07-31_19h46.38.700,arm3_eps,2022.2.5,MacIntel,60.04202942,60cf8cd5edc8abe7af47f138,64c7fed44a04f777bb1e18ce,64c800d7548c6b5d0d21ead7,right,1,0.75,0.3071,29,0.040405787,0.1811,,,,,,216,0,216,0,1,,,,,
,,271559,001,2023-07-31_19h46.38.700,arm3_eps,2022.2.5,MacIntel,60.04202942,60cf8cd5edc8abe7af47f138,64c7fed44a04f777bb1e18ce,64c800d7548c6b5d0d21ead7,up,1,0.75,0.3071,30,0,0.2545,,,,,,217,0,217,0,1,,,,,
,,271559,001,2023-07-31_19h46.38.700,arm3_eps,2022.2.5,MacIntel,60.04202942,60cf8cd5edc8abe7af47f138,64c7fed44a04f777bb1e18ce,64c800d7548c6b5d0d21ead7,right,1,0.75,0.3071,30,-0.000947466,0.5773,,,,,,218,0,218,0,1,,,,,
,,271559,001,2023-07-31_19h46.38.700,arm3_eps,2022.2.5,MacIntel,60.04202942,60cf8cd5edc8abe7af47f138,64c7fed44a04f777bb1e18ce,64c800d7548c6b5d0d21ead7,right,1,0.75,0.3071,30,0.000369511,0.1689,,,,,,219,0,219,0,1,,,,,
,,271559,001,2023-07-31_19h46.38.700,arm3_eps,2022.2.5,MacIntel,60.04202942,60cf8cd5edc8abe7af47f138,64c7fed44a04f777bb1e18ce,64c800d7548c6b5d0d21ead7,up,1,0.75,0.3071,31,0,0.2336,,,,,,220,0,220,0,1,,,,,
,,271559,001,2023-07-31_19h46.38.700,arm3_eps,2022.2.5,MacIntel,60.04202942,60cf8cd5edc8abe7af47f138,64c7fed44a04f777bb1e18ce,64c800d7548c6b5d0d21ead7,right,1,0.75,0.3071,31,0.011489846,0.4926,,,,,,221,0,221,0,1,,,,,
,,271559,001,2023-07-31_19h46.38.700,arm3_eps,2022.2.5,MacIntel,60.04202942,60cf8cd5edc8abe7af47f138,64c7fed44a04f777bb1e18ce,64c800d7548c6b5d0d21ead7,right,1,0.75,0.3071,31,0.06017799,0.1689,,,,,,222,0,222,0,1,,,,,
,,271559,001,2023-07-31_19h46.38.700,arm3_eps,2022.2.5,MacIntel,60.04202942,60cf8cd5edc8abe7af47f138,64c7fed44a04f777bb1e18ce,64c800d7548c6b5d0d21ead7,up,1,0.75,0.3071,32,0,0.2575,,,,,,223,0,223,0,1,,,,,
,,271559,001,2023-07-31_19h46.38.700,arm3_eps,2022.2.5,MacIntel,60.04202942,60cf8cd5edc8abe7af47f138,64c7fed44a04f777bb1e18ce,64c800d7548c6b5d0d21ead7,right,1,0.75,0.3071,32,0.031114835,0.5344,,,,,,224,0,224,0,1,,,,,
,,271559,001,2023-07-31_19h46.38.700,arm3_eps,2022.2.5,MacIntel,60.04202942,60cf8cd5edc8abe7af47f138,64c7fed44a04f777bb1e18ce,64c800d7548c6b5d0d21ead7,right,1,0.75,0.3071,32,0.049152012,0.1617,,,,,,225,0,225,0,1,,,,,
,,271559,001,2023-07-31_19h46.38.700,arm3_eps,2022.2.5,MacIntel,60.04202942,60cf8cd5edc8abe7af47f138,64c7fed44a04f777bb1e18ce,64c800d7548c6b5d0d21ead7,up,1,0.75,0.3071,32,0,0.2222,,,,,,226,0,226,0,1,,,,,
,,271559,001,2023-07-31_19h46.38.700,arm3_eps,2022.2.5,MacIntel,60.04202942,60cf8cd5edc8abe7af47f138,64c7fed44a04f777bb1e18ce,64c800d7548c6b5d0d21ead7,right,1,0.75,0.3071,32,-0.015206059,0.4914,,,,,,227,0,227,0,1,,,,,
,,271559,001,2023-07-31_19h46.38.700,arm3_eps,2022.2.5,MacIntel,60.04202942,60cf8cd5edc8abe7af47f138,64c7fed44a04f777bb1e18ce,64c800d7548c6b5d0d21ead7,right,1,0.75,0.3071,32,0.009680882,0.1688,,,,,,228,0,228,0,1,,,,,
,,271559,001,2023-07-31_19h46.38.700,arm3_eps,2022.2.5,MacIntel,60.04202942,60cf8cd5edc8abe7af47f138,64c7fed44a04f777bb1e18ce,64c800d7548c6b5d0d21ead7,up,-1,0.75,0.3071,33,0,0.3866,,,,,,229,0,229,0,1,,,,,
,,271559,001,2023-07-31_19h46.38.700,arm3_eps,2022.2.5,MacIntel,60.04202942,60cf8cd5edc8abe7af47f138,64c7fed44a04f777bb1e18ce,64c800d7548c6b5d0d21ead7,right,-1,0.75,0.3071,33,-0.01095585,0.4881,,,,,,230,0,230,0,1,,,,,
,,271559,001,2023-07-31_19h46.38.700,arm3_eps,2022.2.5,MacIntel,60.04202942,60cf8cd5edc8abe7af47f138,64c7fed44a04f777bb1e18ce,64c800d7548c6b5d0d21ead7,right,-1,0.75,0.3071,33,-0.018372443,0.1498,,,,,,231,0,231,0,1,,,,,
,,271559,001,2023-07-31_19h46.38.700,arm3_eps,2022.2.5,MacIntel,60.04202942,60cf8cd5edc8abe7af47f138,64c7fed44a04f777bb1e18ce,64c800d7548c6b5d0d21ead7,down,-1,0.75,0.3071,34,0,0.4062,,,,,,232,0,232,0,1,,,,,
,,271559,001,2023-07-31_19h46.38.700,arm3_eps,2022.2.5,MacIntel,60.04202942,60cf8cd5edc8abe7af47f138,64c7fed44a04f777bb1e18ce,64c800d7548c6b5d0d21ead7,right,-1,0.75,0.3071,34,0.015340244,1.0498,,,,,,233,0,233,0,1,,,,,
,,271559,001,2023-07-31_19h46.38.700,arm3_eps,2022.2.5,MacIntel,60.04202942,60cf8cd5edc8abe7af47f138,64c7fed44a04f777bb1e18ce,64c800d7548c6b5d0d21ead7,down,1,0.75,0.3071,35,0,0.2083,,,,,,234,0,234,0,1,,,,,
,,271559,001,2023-07-31_19h46.38.700,arm3_eps,2022.2.5,MacIntel,60.04202942,60cf8cd5edc8abe7af47f138,64c7fed44a04f777bb1e18ce,64c800d7548c6b5d0d21ead7,right,1,0.75,0.3071,35,0.027712821,2.656,,,,,,235,0,235,0,1,,,,,
,,271559,001,2023-07-31_19h46.38.700,arm3_eps,2022.2.5,MacIntel,60.04202942,60cf8cd5edc8abe7af47f138,64c7fed44a04f777bb1e18ce,64c800d7548c6b5d0d21ead7,up,-1,0.75,0.3071,35,0,0.3821,,,,,,236,0,236,0,1,,,,,
,,271559,001,2023-07-31_19h46.38.700,arm3_eps,2022.2.5,MacIntel,60.04202942,60cf8cd5edc8abe7af47f138,64c7fed44a04f777bb1e18ce,64c800d7548c6b5d0d21ead7,right,-1,0.75,0.3071,35,0.002116017,2.0576,,,,,,237,0,237,0,1,,,,,
,,271559,001,2023-07-31_19h46.38.700,arm3_eps,2022.2.5,MacIntel,60.04202942,60cf8cd5edc8abe7af47f138,64c7fed44a04f777bb1e18ce,64c800d7548c6b5d0d21ead7,right,-1,0.75,0.3071,35,-0.034490313,0.2037,,,,,,238,0,238,0,1,,,,,
,,271559,001,2023-07-31_19h46.38.700,arm3_eps,2022.2.5,MacIntel,60.04202942,60cf8cd5edc8abe7af47f138,64c7fed44a04f777bb1e18ce,64c800d7548c6b5d0d21ead7,up,1,0.75,0.3071,35,0,0.4444,,,,,,239,0,239,0,1,,,,,
,,271559,001,2023-07-31_19h46.38.700,arm3_eps,2022.2.5,MacIntel,60.04202942,60cf8cd5edc8abe7af47f138,64c7fed44a04f777bb1e18ce,64c800d7548c6b5d0d21ead7,down,-1,0.75,0.3071,34,0,0.3171,,,,,,240,0,240,0,1,,,,,
,,271559,001,2023-07-31_19h46.38.700,arm3_eps,2022.2.5,MacIntel,60.04202942,60cf8cd5edc8abe7af47f138,64c7fed44a04f777bb1e18ce,64c800d7548c6b5d0d21ead7,right,-1,0.75,0.3071,34,0.001434766,0.9378,,,,,,241,0,241,0,1,,,,,
,,271559,001,2023-07-31_19h46.38.700,arm3_eps,2022.2.5,MacIntel,60.04202942,60cf8cd5edc8abe7af47f138,64c7fed44a04f777bb1e18ce,64c800d7548c6b5d0d21ead7,right,-1,0.75,0.3071,34,-0.012779981,0.2619,,,,,,242,0,242,0,1,,,,,
,,271559,001,2023-07-31_19h46.38.700,arm3_eps,2022.2.5,MacIntel,60.04202942,60cf8cd5edc8abe7af47f138,64c7fed44a04f777bb1e18ce,64c800d7548c6b5d0d21ead7,down,1,0.75,0.3071,35,0,0.7727,,,,,,243,0,243,0,1,,,,,
,,271559,001,2023-07-31_19h46.38.700,arm3_eps,2022.2.5,MacIntel,60.04202942,60cf8cd5edc8abe7af47f138,64c7fed44a04f777bb1e18ce,64c800d7548c6b5d0d21ead7,right,1,0.75,0.3071,35,-0.001423447,1.9178,,,,,,244,0,244,0,1,,,,,
,,271559,001,2023-07-31_19h46.38.700,arm3_eps,2022.2.5,MacIntel,60.04202942,60cf8cd5edc8abe7af47f138,64c7fed44a04f777bb1e18ce,64c800d7548c6b5d0d21ead7,right,1,0.75,0.3071,35,-0.020635347,0.178,,,,,,245,0,245,0,1,,,,,
,,271559,001,2023-07-31_19h46.38.700,arm3_eps,2022.2.5,MacIntel,60.04202942,60cf8cd5edc8abe7af47f138,64c7fed44a04f777bb1e18ce,64c800d7548c6b5d0d21ead7,down,1,0.75,0.3071,35,0,0.7786,,,,,,246,0,246,0,1,,,,,
,,271559,001,2023-07-31_19h46.38.700,arm3_eps,2022.2.5,MacIntel,60.04202942,60cf8cd5edc8abe7af47f138,64c7fed44a04f777bb1e18ce,64c800d7548c6b5d0d21ead7,right,1,0.75,0.3071,35,-0.012402765,0.8305,,,,,,247,0,247,0,1,,,,,
,,271559,001,2023-07-31_19h46.38.700,arm3_eps,2022.2.5,MacIntel,60.04202942,60cf8cd5edc8abe7af47f138,64c7fed44a04f777bb1e18ce,64c800d7548c6b5d0d21ead7,right,1,0.75,0.3071,35,-0.005096589,0.1605,,,,,,248,0,248,0,1,,,,,
,,271559,001,2023-07-31_19h46.38.700,arm3_eps,2022.2.5,MacIntel,60.04202942,60cf8cd5edc8abe7af47f138,64c7fed44a04f777bb1e18ce,64c800d7548c6b5d0d21ead7,down,1,0.75,0.3071,34,0,0.4775,,,,,,249,0,249,0,1,,,,,
,,271559,001,2023-07-31_19h46.38.700,arm3_eps,2022.2.5,MacIntel,60.04202942,60cf8cd5edc8abe7af47f138,64c7fed44a04f777bb1e18ce,64c800d7548c6b5d0d21ead7,right,1,0.75,0.3071,34,0.018305759,0.4585,,,,,,250,0,250,0,1,,,,,
