space_bar.keys,space_bar.rt,participant,session,date,expName,psychopyVersion,OS,frameRate,PROLIFIC_PID,STUDY_ID,SESSION_ID,resp.keys,state,q_prob,eps_prob,score,price,resp.rt,train.thisRepN,train.thisTrialN,train.thisN,train.thisIndex,train.ran,steps.thisRepN,steps.thisTrialN,steps.thisN,steps.thisIndex,steps.ran,blocks.thisRepN,blocks.thisTrialN,blocks.thisN,blocks.thisIndex,blocks.ran
space,5.4394,297991,001,2023-07-31_19h44.44.622,arm3_eps,2022.2.5,Win32,14.99497668,60d1a4da9e47f5d3b3e85a70,64c7fed44a04f777bb1e18ce,64c8011bee3eec4e1c68af25,,,,,,,,,,,,,,,,,,,,,,
space,3.1509,297991,001,2023-07-31_19h44.44.622,arm3_eps,2022.2.5,Win32,14.99497668,60d1a4da9e47f5d3b3e85a70,64c7fed44a04f777bb1e18ce,64c8011bee3eec4e1c68af25,,,,,,,,,,,,,,,,,,,,,,
space,13.648,297991,001,2023-07-31_19h44.44.622,arm3_eps,2022.2.5,Win32,14.99497668,60d1a4da9e47f5d3b3e85a70,64c7fed44a04f777bb1e18ce,64c8011bee3eec4e1c68af25,,,,,,,,,,,,,,,,,,,,,,
space,4.2014,297991,001,2023-07-31_19h44.44.622,arm3_eps,2022.2.5,Win32,14.99497668,60d1a4da9e47f5d3b3e85a70,64c7fed44a04f777bb1e18ce,64c8011bee3eec4e1c68af25,,,,,,,,,,,,,,,,,,,,,,
space,9.3455,297991,001,2023-07-31_19h44.44.622,arm3_eps,2022.2.5,Win32,14.99497668,60d1a4da9e47f5d3b3e85a70,64c7fed44a04f777bb1e18ce,64c8011bee3eec4e1c68af25,,,,,,,,,,,,,,,,,,,,,,
space,2.987,297991,001,2023-07-31_19h44.44.622,arm3_eps,2022.2.5,Win32,14.99497668,60d1a4da9e47f5d3b3e85a70,64c7fed44a04f777bb1e18ce,64c8011bee3eec4e1c68af25,,,,,,,,,,,,,,,,,,,,,,
space,1.4935,297991,001,2023-07-31_19h44.44.622,arm3_eps,2022.2.5,Win32,14.99497668,60d1a4da9e47f5d3b3e85a70,64c7fed44a04f777bb1e18ce,64c8011bee3eec4e1c68af25,,,,,,,,,,,,,,,,,,,,,,
,,297991,001,2023-07-31_19h44.44.622,arm3_eps,2022.2.5,Win32,14.99497668,60d1a4da9e47f5d3b3e85a70,64c7fed44a04f777bb1e18ce,64c8011bee3eec4e1c68af25,right,-1,1,0.2429,0,0.000636978,1.0812,0,0,0,0,1,,,,,,,,,,
,,297991,001,2023-07-31_19h44.44.622,arm3_eps,2022.2.5,Win32,14.99497668,60d1a4da9e47f5d3b3e85a70,64c7fed44a04f777bb1e18ce,64c8011bee3eec4e1c68af25,right,-1,1,0.2429,0,-0.045519365,2.0037,1,0,1,0,1,,,,,,,,,,
,,297991,001,2023-07-31_19h44.44.622,arm3_eps,2022.2.5,Win32,14.99497668,60d1a4da9e47f5d3b3e85a70,64c7fed44a04f777bb1e18ce,64c8011bee3eec4e1c68af25,right,-1,1,0.2429,0,-0.049056442,0.642,2,0,2,0,1,,,,,,,,,,
,,297991,001,2023-07-31_19h44.44.622,arm3_eps,2022.2.5,Win32,14.99497668,60d1a4da9e47f5d3b3e85a70,64c7fed44a04f777bb1e18ce,64c8011bee3eec4e1c68af25,right,-1,1,0.2429,0,-0.096352562,0.4471,3,0,3,0,1,,,,,,,,,,
,,297991,001,2023-07-31_19h44.44.622,arm3_eps,2022.2.5,Win32,14.99497668,60d1a4da9e47f5d3b3e85a70,64c7fed44a04f777bb1e18ce,64c8011bee3eec4e1c68af25,right,-1,1,0.2429,0,-0.076797303,0.1807,4,0,4,0,1,,,,,,,,,,
,,297991,001,2023-07-31_19h44.44.622,arm3_eps,2022.2.5,Win32,14.99497668,60d1a4da9e47f5d3b3e85a70,64c7fed44a04f777bb1e18ce,64c8011bee3eec4e1c68af25,right,-1,1,0.2429,0,-0.087563956,0.1803,5,0,5,0,1,,,,,,,,,,
,,297991,001,2023-07-31_19h44.44.622,arm3_eps,2022.2.5,Win32,14.99497668,60d1a4da9e47f5d3b3e85a70,64c7fed44a04f777bb1e18ce,64c8011bee3eec4e1c68af25,right,-1,1,0.2429,0,-0.103807688,0.1805,6,0,6,0,1,,,,,,,,,,
,,297991,001,2023-07-31_19h44.44.622,arm3_eps,2022.2.5,Win32,14.99497668,60d1a4da9e47f5d3b3e85a70,64c7fed44a04f777bb1e18ce,64c8011bee3eec4e1c68af25,right,-1,1,0.2429,0,-0.094263561,0.7048,7,0,7,0,1,,,,,,,,,,
,,297991,001,2023-07-31_19h44.44.622,arm3_eps,2022.2.5,Win32,14.99497668,60d1a4da9e47f5d3b3e85a70,64c7fed44a04f777bb1e18ce,64c8011bee3eec4e1c68af25,down,-1,1,0.2429,1,0,0.6264,8,0,8,0,1,,,,,,,,,,
,,297991,001,2023-07-31_19h44.44.622,arm3_eps,2022.2.5,Win32,14.99497668,60d1a4da9e47f5d3b3e85a70,64c7fed44a04f777bb1e18ce,64c8011bee3eec4e1c68af25,right,-1,1,0.2429,1,-0.015974934,2.1738,9,0,9,0,1,,,,,,,,,,
,,297991,001,2023-07-31_19h44.44.622,arm3_eps,2022.2.5,Win32,14.99497668,60d1a4da9e47f5d3b3e85a70,64c7fed44a04f777bb1e18ce,64c8011bee3eec4e1c68af25,right,-1,1,0.2429,1,-0.031604866,0.4372,10,0,10,0,1,,,,,,,,,,
,,297991,001,2023-07-31_19h44.44.622,arm3_eps,2022.2.5,Win32,14.99497668,60d1a4da9e47f5d3b3e85a70,64c7fed44a04f777bb1e18ce,64c8011bee3eec4e1c68af25,right,-1,1,0.2429,1,-0.01727587,0.1804,11,0,11,0,1,,,,,,,,,,
,,297991,001,2023-07-31_19h44.44.622,arm3_eps,2022.2.5,Win32,14.99497668,60d1a4da9e47f5d3b3e85a70,64c7fed44a04f777bb1e18ce,64c8011bee3eec4e1c68af25,right,-1,1,0.2429,1,-0.038463613,0.0971,12,0,12,0,1,,,,,,,,,,
,,297991,001,2023-07-31_19h44.44.622,arm3_eps,2022.2.5,Win32,14.99497668,60d1a4da9e47f5d3b3e85a70,64c7fed44a04f777bb1e18ce,64c8011bee3eec4e1c68af25,right,-1,1,0.2429,1,-0.098270879,0.267,13,0,13,0,1,,,,,,,,,,
,,297991,001,2023-07-31_19h44.44.622,arm3_eps,2022.2.5,Win32,14.99497668,60d1a4da9e47f5d3b3e85a70,64c7fed44a04f777bb1e18ce,64c8011bee3eec4e1c68af25,right,-1,1,0.2429,1,-0.067178025,0.7247,14,0,14,0,1,,,,,,,,,,
,,297991,001,2023-07-31_19h44.44.622,arm3_eps,2022.2.5,Win32,14.99497668,60d1a4da9e47f5d3b3e85a70,64c7fed44a04f777bb1e18ce,64c8011bee3eec4e1c68af25,right,-1,1,0.2429,1,-0.069217874,0.0959,15,0,15,0,1,,,,,,,,,,
,,297991,001,2023-07-31_19h44.44.622,arm3_eps,2022.2.5,Win32,14.99497668,60d1a4da9e47f5d3b3e85a70,64c7fed44a04f777bb1e18ce,64c8011bee3eec4e1c68af25,right,-1,1,0.2429,1,-0.095689013,0.1875,16,0,16,0,1,,,,,,,,,,
,,297991,001,2023-07-31_19h44.44.622,arm3_eps,2022.2.5,Win32,14.99497668,60d1a4da9e47f5d3b3e85a70,64c7fed44a04f777bb1e18ce,64c8011bee3eec4e1c68af25,right,-1,1,0.2429,1,-0.107010942,0.1912,17,0,17,0,1,,,,,,,,,,
,,297991,001,2023-07-31_19h44.44.622,arm3_eps,2022.2.5,Win32,14.99497668,60d1a4da9e47f5d3b3e85a70,64c7fed44a04f777bb1e18ce,64c8011bee3eec4e1c68af25,up,-1,1,0.2429,0,0,0.7132,18,0,18,0,1,,,,,,,,,,
,,297991,001,2023-07-31_19h44.44.622,arm3_eps,2022.2.5,Win32,14.99497668,60d1a4da9e47f5d3b3e85a70,64c7fed44a04f777bb1e18ce,64c8011bee3eec4e1c68af25,right,-1,1,0.2429,0,-0.029022357,1.1992,19,0,19,0,1,,,,,,,,,,
,,297991,001,2023-07-31_19h44.44.622,arm3_eps,2022.2.5,Win32,14.99497668,60d1a4da9e47f5d3b3e85a70,64c7fed44a04f777bb1e18ce,64c8011bee3eec4e1c68af25,right,-1,1,0.2429,0,-0.043082927,0.1807,20,0,20,0,1,,,,,,,,,,
,,297991,001,2023-07-31_19h44.44.622,arm3_eps,2022.2.5,Win32,14.99497668,60d1a4da9e47f5d3b3e85a70,64c7fed44a04f777bb1e18ce,64c8011bee3eec4e1c68af25,right,-1,1,0.2429,0,-0.083978459,0.0966,21,0,21,0,1,,,,,,,,,,
,,297991,001,2023-07-31_19h44.44.622,arm3_eps,2022.2.5,Win32,14.99497668,60d1a4da9e47f5d3b3e85a70,64c7fed44a04f777bb1e18ce,64c8011bee3eec4e1c68af25,right,-1,1,0.2429,0,-0.114474672,0.1922,22,0,22,0,1,,,,,,,,,,
,,297991,001,2023-07-31_19h44.44.622,arm3_eps,2022.2.5,Win32,14.99497668,60d1a4da9e47f5d3b3e85a70,64c7fed44a04f777bb1e18ce,64c8011bee3eec4e1c68af25,right,-1,1,0.2429,0,-0.106067381,0.1007,23,0,23,0,1,,,,,,,,,,
,,297991,001,2023-07-31_19h44.44.622,arm3_eps,2022.2.5,Win32,14.99497668,60d1a4da9e47f5d3b3e85a70,64c7fed44a04f777bb1e18ce,64c8011bee3eec4e1c68af25,right,-1,1,0.2429,0,-0.1040274,0.0965,24,0,24,0,1,,,,,,,,,,
,,297991,001,2023-07-31_19h44.44.622,arm3_eps,2022.2.5,Win32,14.99497668,60d1a4da9e47f5d3b3e85a70,64c7fed44a04f777bb1e18ce,64c8011bee3eec4e1c68af25,right,-1,1,0.2429,0,-0.11710891,0.1818,25,0,25,0,1,,,,,,,,,,
,,297991,001,2023-07-31_19h44.44.622,arm3_eps,2022.2.5,Win32,14.99497668,60d1a4da9e47f5d3b3e85a70,64c7fed44a04f777bb1e18ce,64c8011bee3eec4e1c68af25,right,-1,1,0.2429,0,-0.132116231,0.1914,26,0,26,0,1,,,,,,,,,,
,,297991,001,2023-07-31_19h44.44.622,arm3_eps,2022.2.5,Win32,14.99497668,60d1a4da9e47f5d3b3e85a70,64c7fed44a04f777bb1e18ce,64c8011bee3eec4e1c68af25,down,1,1,0.2429,1,0,0.2827,27,0,27,0,1,,,,,,,,,,
,,297991,001,2023-07-31_19h44.44.622,arm3_eps,2022.2.5,Win32,14.99497668,60d1a4da9e47f5d3b3e85a70,64c7fed44a04f777bb1e18ce,64c8011bee3eec4e1c68af25,right,1,1,0.2429,1,0.014090987,0.9817,28,0,28,0,1,,,,,,,,,,
,,297991,001,2023-07-31_19h44.44.622,arm3_eps,2022.2.5,Win32,14.99497668,60d1a4da9e47f5d3b3e85a70,64c7fed44a04f777bb1e18ce,64c8011bee3eec4e1c68af25,right,1,1,0.2429,1,0.009610378,0.0956,29,0,29,0,1,,,,,,,,,,
,,297991,001,2023-07-31_19h44.44.622,arm3_eps,2022.2.5,Win32,14.99497668,60d1a4da9e47f5d3b3e85a70,64c7fed44a04f777bb1e18ce,64c8011bee3eec4e1c68af25,right,1,1,0.2429,1,0.016898688,0.1014,30,0,30,0,1,,,,,,,,,,
,,297991,001,2023-07-31_19h44.44.622,arm3_eps,2022.2.5,Win32,14.99497668,60d1a4da9e47f5d3b3e85a70,64c7fed44a04f777bb1e18ce,64c8011bee3eec4e1c68af25,right,1,1,0.2429,1,0.017661377,0.0949,31,0,31,0,1,,,,,,,,,,
,,297991,001,2023-07-31_19h44.44.622,arm3_eps,2022.2.5,Win32,14.99497668,60d1a4da9e47f5d3b3e85a70,64c7fed44a04f777bb1e18ce,64c8011bee3eec4e1c68af25,right,1,1,0.2429,1,0.070570511,0.093,32,0,32,0,1,,,,,,,,,,
,,297991,001,2023-07-31_19h44.44.622,arm3_eps,2022.2.5,Win32,14.99497668,60d1a4da9e47f5d3b3e85a70,64c7fed44a04f777bb1e18ce,64c8011bee3eec4e1c68af25,right,1,1,0.2429,1,0.110933171,0.0934,33,0,33,0,1,,,,,,,,,,
,,297991,001,2023-07-31_19h44.44.622,arm3_eps,2022.2.5,Win32,14.99497668,60d1a4da9e47f5d3b3e85a70,64c7fed44a04f777bb1e18ce,64c8011bee3eec4e1c68af25,up,1,1,0.2429,2,0,0.1907,34,0,34,0,1,,,,,,,,,,
,,297991,001,2023-07-31_19h44.44.622,arm3_eps,2022.2.5,Win32,14.99497668,60d1a4da9e47f5d3b3e85a70,64c7fed44a04f777bb1e18ce,64c8011bee3eec4e1c68af25,right,1,1,0.2429,2,0.002139996,0.4339,35,0,35,0,1,,,,,,,,,,
,,297991,001,2023-07-31_19h44.44.622,arm3_eps,2022.2.5,Win32,14.99497668,60d1a4da9e47f5d3b3e85a70,64c7fed44a04f777bb1e18ce,64c8011bee3eec4e1c68af25,right,1,1,0.2429,2,0.022794248,0.3685,36,0,36,0,1,,,,,,,,,,
,,297991,001,2023-07-31_19h44.44.622,arm3_eps,2022.2.5,Win32,14.99497668,60d1a4da9e47f5d3b3e85a70,64c7fed44a04f777bb1e18ce,64c8011bee3eec4e1c68af25,right,1,1,0.2429,2,0.022122311,0.0997,37,0,37,0,1,,,,,,,,,,
,,297991,001,2023-07-31_19h44.44.622,arm3_eps,2022.2.5,Win32,14.99497668,60d1a4da9e47f5d3b3e85a70,64c7fed44a04f777bb1e18ce,64c8011bee3eec4e1c68af25,right,1,1,0.2429,2,0.023308326,0.0086,38,0,38,0,1,,,,,,,,,,
,,297991,001,2023-07-31_19h44.44.622,arm3_eps,2022.2.5,Win32,14.99497668,60d1a4da9e47f5d3b3e85a70,64c7fed44a04f777bb1e18ce,64c8011bee3eec4e1c68af25,right,1,1,0.2429,2,0.043768875,0.1002,39,0,39,0,1,,,,,,,,,,
,,297991,001,2023-07-31_19h44.44.622,arm3_eps,2022.2.5,Win32,14.99497668,60d1a4da9e47f5d3b3e85a70,64c7fed44a04f777bb1e18ce,64c8011bee3eec4e1c68af25,right,1,1,0.2429,2,0.050520097,0.269,40,0,40,0,1,,,,,,,,,,
,,297991,001,2023-07-31_19h44.44.622,arm3_eps,2022.2.5,Win32,14.99497668,60d1a4da9e47f5d3b3e85a70,64c7fed44a04f777bb1e18ce,64c8011bee3eec4e1c68af25,right,1,1,0.2429,2,0.084358462,0.1087,41,0,41,0,1,,,,,,,,,,
,,297991,001,2023-07-31_19h44.44.622,arm3_eps,2022.2.5,Win32,14.99497668,60d1a4da9e47f5d3b3e85a70,64c7fed44a04f777bb1e18ce,64c8011bee3eec4e1c68af25,down,-1,1,0.2429,1,0,0.1891,42,0,42,0,1,,,,,,,,,,
,,297991,001,2023-07-31_19h44.44.622,arm3_eps,2022.2.5,Win32,14.99497668,60d1a4da9e47f5d3b3e85a70,64c7fed44a04f777bb1e18ce,64c8011bee3eec4e1c68af25,right,-1,1,0.2429,1,-0.008789428,1.1397,43,0,43,0,1,,,,,,,,,,
,,297991,001,2023-07-31_19h44.44.622,arm3_eps,2022.2.5,Win32,14.99497668,60d1a4da9e47f5d3b3e85a70,64c7fed44a04f777bb1e18ce,64c8011bee3eec4e1c68af25,right,-1,1,0.2429,1,0.003153504,0.0941,44,0,44,0,1,,,,,,,,,,
,,297991,001,2023-07-31_19h44.44.622,arm3_eps,2022.2.5,Win32,14.99497668,60d1a4da9e47f5d3b3e85a70,64c7fed44a04f777bb1e18ce,64c8011bee3eec4e1c68af25,right,-1,1,0.2429,1,0.003424589,0.0961,45,0,45,0,1,,,,,,,,,,
,,297991,001,2023-07-31_19h44.44.622,arm3_eps,2022.2.5,Win32,14.99497668,60d1a4da9e47f5d3b3e85a70,64c7fed44a04f777bb1e18ce,64c8011bee3eec4e1c68af25,right,-1,1,0.2429,1,-0.019846884,0.0965,46,0,46,0,1,,,,,,,,,,
,,297991,001,2023-07-31_19h44.44.622,arm3_eps,2022.2.5,Win32,14.99497668,60d1a4da9e47f5d3b3e85a70,64c7fed44a04f777bb1e18ce,64c8011bee3eec4e1c68af25,right,-1,1,0.2429,1,-0.047221993,0.104,47,0,47,0,1,,,,,,,,,,
,,297991,001,2023-07-31_19h44.44.622,arm3_eps,2022.2.5,Win32,14.99497668,60d1a4da9e47f5d3b3e85a70,64c7fed44a04f777bb1e18ce,64c8011bee3eec4e1c68af25,right,-1,1,0.2429,1,-0.058727938,0.0927,48,0,48,0,1,,,,,,,,,,
,,297991,001,2023-07-31_19h44.44.622,arm3_eps,2022.2.5,Win32,14.99497668,60d1a4da9e47f5d3b3e85a70,64c7fed44a04f777bb1e18ce,64c8011bee3eec4e1c68af25,down,-1,1,0.2429,1,-0.058727938,0.367,49,0,49,0,1,,,,,,,,,,
space,3.931,297991,001,2023-07-31_19h44.44.622,arm3_eps,2022.2.5,Win32,14.99497668,60d1a4da9e47f5d3b3e85a70,64c7fed44a04f777bb1e18ce,64c8011bee3eec4e1c68af25,,,,,,,,,,,,,,,,,,,,,,
space,5.5732,297991,001,2023-07-31_19h44.44.622,arm3_eps,2022.2.5,Win32,14.99497668,60d1a4da9e47f5d3b3e85a70,64c7fed44a04f777bb1e18ce,64c8011bee3eec4e1c68af25,,,,,,,,,,,,,,,,,,,,,,
space,0.8381,297991,001,2023-07-31_19h44.44.622,arm3_eps,2022.2.5,Win32,14.99497668,60d1a4da9e47f5d3b3e85a70,64c7fed44a04f777bb1e18ce,64c8011bee3eec4e1c68af25,,,,,,,,,,,,,,,,,,,,,,
space,1.1031,297991,001,2023-07-31_19h44.44.622,arm3_eps,2022.2.5,Win32,14.99497668,60d1a4da9e47f5d3b3e85a70,64c7fed44a04f777bb1e18ce,64c8011bee3eec4e1c68af25,,,,,,,,,,,,,,,,,,,,,,
space,3.3613,297991,001,2023-07-31_19h44.44.622,arm3_eps,2022.2.5,Win32,14.99497668,60d1a4da9e47f5d3b3e85a70,64c7fed44a04f777bb1e18ce,64c8011bee3eec4e1c68af25,,,,,,,,,,,,,,,,,,,,,,
space,0.8836,297991,001,2023-07-31_19h44.44.622,arm3_eps,2022.2.5,Win32,14.99497668,60d1a4da9e47f5d3b3e85a70,64c7fed44a04f777bb1e18ce,64c8011bee3eec4e1c68af25,,,,,,,,,,,,,,,,,,,,,,
,,297991,001,2023-07-31_19h44.44.622,arm3_eps,2022.2.5,Win32,14.99497668,60d1a4da9e47f5d3b3e85a70,64c7fed44a04f777bb1e18ce,64c8011bee3eec4e1c68af25,right,-1,0.75,0.2429,0,0.021050518,1.0298,0,0,0,0,1,,,,,,,,,,
,,297991,001,2023-07-31_19h44.44.622,arm3_eps,2022.2.5,Win32,14.99497668,60d1a4da9e47f5d3b3e85a70,64c7fed44a04f777bb1e18ce,64c8011bee3eec4e1c68af25,right,-1,0.75,0.2429,0,0.001118698,0.5336,1,0,1,0,1,,,,,,,,,,
,,297991,001,2023-07-31_19h44.44.622,arm3_eps,2022.2.5,Win32,14.99497668,60d1a4da9e47f5d3b3e85a70,64c7fed44a04f777bb1e18ce,64c8011bee3eec4e1c68af25,right,-1,0.75,0.2429,0,-0.022026337,0.4611,2,0,2,0,1,,,,,,,,,,
,,297991,001,2023-07-31_19h44.44.622,arm3_eps,2022.2.5,Win32,14.99497668,60d1a4da9e47f5d3b3e85a70,64c7fed44a04f777bb1e18ce,64c8011bee3eec4e1c68af25,down,1,0.75,0.2429,1,0,1.3337,3,0,3,0,1,,,,,,,,,,
,,297991,001,2023-07-31_19h44.44.622,arm3_eps,2022.2.5,Win32,14.99497668,60d1a4da9e47f5d3b3e85a70,64c7fed44a04f777bb1e18ce,64c8011bee3eec4e1c68af25,right,1,0.75,0.2429,1,0.02163674,1.2173,4,0,4,0,1,,,,,,,,,,
,,297991,001,2023-07-31_19h44.44.622,arm3_eps,2022.2.5,Win32,14.99497668,60d1a4da9e47f5d3b3e85a70,64c7fed44a04f777bb1e18ce,64c8011bee3eec4e1c68af25,right,1,0.75,0.2429,1,0.040679584,0.2887,5,0,5,0,1,,,,,,,,,,
,,297991,001,2023-07-31_19h44.44.622,arm3_eps,2022.2.5,Win32,14.99497668,60d1a4da9e47f5d3b3e85a70,64c7fed44a04f777bb1e18ce,64c8011bee3eec4e1c68af25,right,1,0.75,0.2429,1,0.050952292,0.267,6,0,6,0,1,,,,,,,,,,
,,297991,001,2023-07-31_19h44.44.622,arm3_eps,2022.2.5,Win32,14.99497668,60d1a4da9e47f5d3b3e85a70,64c7fed44a04f777bb1e18ce,64c8011bee3eec4e1c68af25,up,1,0.75,0.2429,2,0,0.4432,7,0,7,0,1,,,,,,,,,,
,,297991,001,2023-07-31_19h44.44.622,arm3_eps,2022.2.5,Win32,14.99497668,60d1a4da9e47f5d3b3e85a70,64c7fed44a04f777bb1e18ce,64c8011bee3eec4e1c68af25,right,1,0.75,0.2429,2,-0.009437596,0.862,8,0,8,0,1,,,,,,,,,,
,,297991,001,2023-07-31_19h44.44.622,arm3_eps,2022.2.5,Win32,14.99497668,60d1a4da9e47f5d3b3e85a70,64c7fed44a04f777bb1e18ce,64c8011bee3eec4e1c68af25,right,1,0.75,0.2429,2,-0.01104862,0.1871,9,0,9,0,1,,,,,,,,,,
,,297991,001,2023-07-31_19h44.44.622,arm3_eps,2022.2.5,Win32,14.99497668,60d1a4da9e47f5d3b3e85a70,64c7fed44a04f777bb1e18ce,64c8011bee3eec4e1c68af25,right,1,0.75,0.2429,2,-0.003505743,0.0974,10,0,10,0,1,,,,,,,,,,
,,297991,001,2023-07-31_19h44.44.622,arm3_eps,2022.2.5,Win32,14.99497668,60d1a4da9e47f5d3b3e85a70,64c7fed44a04f777bb1e18ce,64c8011bee3eec4e1c68af25,right,1,0.75,0.2429,2,0.002502505,0.624,11,0,11,0,1,,,,,,,,,,
,,297991,001,2023-07-31_19h44.44.622,arm3_eps,2022.2.5,Win32,14.99497668,60d1a4da9e47f5d3b3e85a70,64c7fed44a04f777bb1e18ce,64c8011bee3eec4e1c68af25,up,1,0.75,0.2429,2,0,0.7869,12,0,12,0,1,,,,,,,,,,
,,297991,001,2023-07-31_19h44.44.622,arm3_eps,2022.2.5,Win32,14.99497668,60d1a4da9e47f5d3b3e85a70,64c7fed44a04f777bb1e18ce,64c8011bee3eec4e1c68af25,right,1,0.75,0.2429,2,-0.001313602,1.2034,13,0,13,0,1,,,,,,,,,,
,,297991,001,2023-07-31_19h44.44.622,arm3_eps,2022.2.5,Win32,14.99497668,60d1a4da9e47f5d3b3e85a70,64c7fed44a04f777bb1e18ce,64c8011bee3eec4e1c68af25,right,1,0.75,0.2429,2,0.013364215,0.1802,14,0,14,0,1,,,,,,,,,,
,,297991,001,2023-07-31_19h44.44.622,arm3_eps,2022.2.5,Win32,14.99497668,60d1a4da9e47f5d3b3e85a70,64c7fed44a04f777bb1e18ce,64c8011bee3eec4e1c68af25,right,1,0.75,0.2429,2,0.005799369,0.1765,15,0,15,0,1,,,,,,,,,,
,,297991,001,2023-07-31_19h44.44.622,arm3_eps,2022.2.5,Win32,14.99497668,60d1a4da9e47f5d3b3e85a70,64c7fed44a04f777bb1e18ce,64c8011bee3eec4e1c68af25,right,1,0.75,0.2429,2,0.008420606,0.09,16,0,16,0,1,,,,,,,,,,
,,297991,001,2023-07-31_19h44.44.622,arm3_eps,2022.2.5,Win32,14.99497668,60d1a4da9e47f5d3b3e85a70,64c7fed44a04f777bb1e18ce,64c8011bee3eec4e1c68af25,right,1,0.75,0.2429,2,-0.004338834,0.262,17,0,17,0,1,,,,,,,,,,
,,297991,001,2023-07-31_19h44.44.622,arm3_eps,2022.2.5,Win32,14.99497668,60d1a4da9e47f5d3b3e85a70,64c7fed44a04f777bb1e18ce,64c8011bee3eec4e1c68af25,down,1,0.75,0.2429,1,0,0.443,18,0,18,0,1,,,,,,,,,,
,,297991,001,2023-07-31_19h44.44.622,arm3_eps,2022.2.5,Win32,14.99497668,60d1a4da9e47f5d3b3e85a70,64c7fed44a04f777bb1e18ce,64c8011bee3eec4e1c68af25,right,1,0.75,0.2429,1,0.01728861,1.2313,19,0,19,0,1,,,,,,,,,,
,,297991,001,2023-07-31_19h44.44.622,arm3_eps,2022.2.5,Win32,14.99497668,60d1a4da9e47f5d3b3e85a70,64c7fed44a04f777bb1e18ce,64c8011bee3eec4e1c68af25,right,1,0.75,0.2429,1,0.052809459,0.0989,20,0,20,0,1,,,,,,,,,,
,,297991,001,2023-07-31_19h44.44.622,arm3_eps,2022.2.5,Win32,14.99497668,60d1a4da9e47f5d3b3e85a70,64c7fed44a04f777bb1e18ce,64c8011bee3eec4e1c68af25,right,1,0.75,0.2429,1,0.053189418,0.0992,21,0,21,0,1,,,,,,,,,,
,,297991,001,2023-07-31_19h44.44.622,arm3_eps,2022.2.5,Win32,14.99497668,60d1a4da9e47f5d3b3e85a70,64c7fed44a04f777bb1e18ce,64c8011bee3eec4e1c68af25,up,1,0.75,0.2429,1,0,0.2743,22,0,22,0,1,,,,,,,,,,
,,297991,001,2023-07-31_19h44.44.622,arm3_eps,2022.2.5,Win32,14.99497668,60d1a4da9e47f5d3b3e85a70,64c7fed44a04f777bb1e18ce,64c8011bee3eec4e1c68af25,right,1,0.75,0.2429,1,0.03006829,1.1521,23,0,23,0,1,,,,,,,,,,
,,297991,001,2023-07-31_19h44.44.622,arm3_eps,2022.2.5,Win32,14.99497668,60d1a4da9e47f5d3b3e85a70,64c7fed44a04f777bb1e18ce,64c8011bee3eec4e1c68af25,right,1,0.75,0.2429,1,0.017782647,0.1897,24,0,24,0,1,,,,,,,,,,
,,297991,001,2023-07-31_19h44.44.622,arm3_eps,2022.2.5,Win32,14.99497668,60d1a4da9e47f5d3b3e85a70,64c7fed44a04f777bb1e18ce,64c8011bee3eec4e1c68af25,right,1,0.75,0.2429,1,0.03397112,0.0917,25,0,25,0,1,,,,,,,,,,
,,297991,001,2023-07-31_19h44.44.622,arm3_eps,2022.2.5,Win32,14.99497668,60d1a4da9e47f5d3b3e85a70,64c7fed44a04f777bb1e18ce,64c8011bee3eec4e1c68af25,right,1,0.75,0.2429,1,0.048941124,0.0942,26,0,26,0,1,,,,,,,,,,
,,297991,001,2023-07-31_19h44.44.622,arm3_eps,2022.2.5,Win32,14.99497668,60d1a4da9e47f5d3b3e85a70,64c7fed44a04f777bb1e18ce,64c8011bee3eec4e1c68af25,right,1,0.75,0.2429,1,0.07530136,0.0949,27,0,27,0,1,,,,,,,,,,
,,297991,001,2023-07-31_19h44.44.622,arm3_eps,2022.2.5,Win32,14.99497668,60d1a4da9e47f5d3b3e85a70,64c7fed44a04f777bb1e18ce,64c8011bee3eec4e1c68af25,up,1,0.75,0.2429,2,0,0.3517,28,0,28,0,1,,,,,,,,,,
,,297991,001,2023-07-31_19h44.44.622,arm3_eps,2022.2.5,Win32,14.99497668,60d1a4da9e47f5d3b3e85a70,64c7fed44a04f777bb1e18ce,64c8011bee3eec4e1c68af25,right,1,0.75,0.2429,2,0.017762163,0.9482,29,0,29,0,1,,,,,,,,,,
,,297991,001,2023-07-31_19h44.44.622,arm3_eps,2022.2.5,Win32,14.99497668,60d1a4da9e47f5d3b3e85a70,64c7fed44a04f777bb1e18ce,64c8011bee3eec4e1c68af25,right,1,0.75,0.2429,2,0.015378311,0.1867,30,0,30,0,1,,,,,,,,,,
,,297991,001,2023-07-31_19h44.44.622,arm3_eps,2022.2.5,Win32,14.99497668,60d1a4da9e47f5d3b3e85a70,64c7fed44a04f777bb1e18ce,64c8011bee3eec4e1c68af25,right,1,0.75,0.2429,2,0.054579368,0.0956,31,0,31,0,1,,,,,,,,,,
,,297991,001,2023-07-31_19h44.44.622,arm3_eps,2022.2.5,Win32,14.99497668,60d1a4da9e47f5d3b3e85a70,64c7fed44a04f777bb1e18ce,64c8011bee3eec4e1c68af25,right,1,0.75,0.2429,2,0.048397342,0.096,32,0,32,0,1,,,,,,,,,,
,,297991,001,2023-07-31_19h44.44.622,arm3_eps,2022.2.5,Win32,14.99497668,60d1a4da9e47f5d3b3e85a70,64c7fed44a04f777bb1e18ce,64c8011bee3eec4e1c68af25,up,1,0.75,0.2429,3,0,0.4434,33,0,33,0,1,,,,,,,,,,
,,297991,001,2023-07-31_19h44.44.622,arm3_eps,2022.2.5,Win32,14.99497668,60d1a4da9e47f5d3b3e85a70,64c7fed44a04f777bb1e18ce,64c8011bee3eec4e1c68af25,right,1,0.75,0.2429,3,0.010784813,0.9408,34,0,34,0,1,,,,,,,,,,
,,297991,001,2023-07-31_19h44.44.622,arm3_eps,2022.2.5,Win32,14.99497668,60d1a4da9e47f5d3b3e85a70,64c7fed44a04f777bb1e18ce,64c8011bee3eec4e1c68af25,right,1,0.75,0.2429,3,0.017007861,0.1788,35,0,35,0,1,,,,,,,,,,
,,297991,001,2023-07-31_19h44.44.622,arm3_eps,2022.2.5,Win32,14.99497668,60d1a4da9e47f5d3b3e85a70,64c7fed44a04f777bb1e18ce,64c8011bee3eec4e1c68af25,right,1,0.75,0.2429,3,0.030836486,0.0943,36,0,36,0,1,,,,,,,,,,
,,297991,001,2023-07-31_19h44.44.622,arm3_eps,2022.2.5,Win32,14.99497668,60d1a4da9e47f5d3b3e85a70,64c7fed44a04f777bb1e18ce,64c8011bee3eec4e1c68af25,right,1,0.75,0.2429,3,0.045235141,0.0908,37,0,37,0,1,,,,,,,,,,
,,297991,001,2023-07-31_19h44.44.622,arm3_eps,2022.2.5,Win32,14.99497668,60d1a4da9e47f5d3b3e85a70,64c7fed44a04f777bb1e18ce,64c8011bee3eec4e1c68af25,right,1,0.75,0.2429,3,0.034624408,0.0964,38,0,38,0,1,,,,,,,,,,
,,297991,001,2023-07-31_19h44.44.622,arm3_eps,2022.2.5,Win32,14.99497668,60d1a4da9e47f5d3b3e85a70,64c7fed44a04f777bb1e18ce,64c8011bee3eec4e1c68af25,up,1,0.75,0.2429,4,0,0.436,39,0,39,0,1,,,,,,,,,,
,,297991,001,2023-07-31_19h44.44.622,arm3_eps,2022.2.5,Win32,14.99497668,60d1a4da9e47f5d3b3e85a70,64c7fed44a04f777bb1e18ce,64c8011bee3eec4e1c68af25,right,1,0.75,0.2429,4,-0.017841651,1.1178,40,0,40,0,1,,,,,,,,,,
,,297991,001,2023-07-31_19h44.44.622,arm3_eps,2022.2.5,Win32,14.99497668,60d1a4da9e47f5d3b3e85a70,64c7fed44a04f777bb1e18ce,64c8011bee3eec4e1c68af25,right,1,0.75,0.2429,4,-0.039255194,0.0978,41,0,41,0,1,,,,,,,,,,
,,297991,001,2023-07-31_19h44.44.622,arm3_eps,2022.2.5,Win32,14.99497668,60d1a4da9e47f5d3b3e85a70,64c7fed44a04f777bb1e18ce,64c8011bee3eec4e1c68af25,right,1,0.75,0.2429,4,-0.050995721,0.0985,42,0,42,0,1,,,,,,,,,,
,,297991,001,2023-07-31_19h44.44.622,arm3_eps,2022.2.5,Win32,14.99497668,60d1a4da9e47f5d3b3e85a70,64c7fed44a04f777bb1e18ce,64c8011bee3eec4e1c68af25,right,1,0.75,0.2429,4,-0.03496854,0.0896,43,0,43,0,1,,,,,,,,,,
,,297991,001,2023-07-31_19h44.44.622,arm3_eps,2022.2.5,Win32,14.99497668,60d1a4da9e47f5d3b3e85a70,64c7fed44a04f777bb1e18ce,64c8011bee3eec4e1c68af25,down,1,0.75,0.2429,3,0,0.2602,44,0,44,0,1,,,,,,,,,,
,,297991,001,2023-07-31_19h44.44.622,arm3_eps,2022.2.5,Win32,14.99497668,60d1a4da9e47f5d3b3e85a70,64c7fed44a04f777bb1e18ce,64c8011bee3eec4e1c68af25,right,1,0.75,0.2429,3,0.004645992,1.0397,45,0,45,0,1,,,,,,,,,,
,,297991,001,2023-07-31_19h44.44.622,arm3_eps,2022.2.5,Win32,14.99497668,60d1a4da9e47f5d3b3e85a70,64c7fed44a04f777bb1e18ce,64c8011bee3eec4e1c68af25,right,1,0.75,0.2429,3,0.028265232,0.0914,46,0,46,0,1,,,,,,,,,,
,,297991,001,2023-07-31_19h44.44.622,arm3_eps,2022.2.5,Win32,14.99497668,60d1a4da9e47f5d3b3e85a70,64c7fed44a04f777bb1e18ce,64c8011bee3eec4e1c68af25,right,1,0.75,0.2429,3,0.032330624,0.0937,47,0,47,0,1,,,,,,,,,,
,,297991,001,2023-07-31_19h44.44.622,arm3_eps,2022.2.5,Win32,14.99497668,60d1a4da9e47f5d3b3e85a70,64c7fed44a04f777bb1e18ce,64c8011bee3eec4e1c68af25,up,1,0.75,0.2429,4,0,0.3498,48,0,48,0,1,,,,,,,,,,
,,297991,001,2023-07-31_19h44.44.622,arm3_eps,2022.2.5,Win32,14.99497668,60d1a4da9e47f5d3b3e85a70,64c7fed44a04f777bb1e18ce,64c8011bee3eec4e1c68af25,right,1,0.75,0.2429,4,0.012836681,0.85,49,0,49,0,1,,,,,,,,,,
space,6.8349,297991,001,2023-07-31_19h44.44.622,arm3_eps,2022.2.5,Win32,14.99497668,60d1a4da9e47f5d3b3e85a70,64c7fed44a04f777bb1e18ce,64c8011bee3eec4e1c68af25,,,,,,,,,,,,,,,,,,,,,,
space,1.2151,297991,001,2023-07-31_19h44.44.622,arm3_eps,2022.2.5,Win32,14.99497668,60d1a4da9e47f5d3b3e85a70,64c7fed44a04f777bb1e18ce,64c8011bee3eec4e1c68af25,,,,,,,,,,,,,,,,,,,,,,
space,0.7133,297991,001,2023-07-31_19h44.44.622,arm3_eps,2022.2.5,Win32,14.99497668,60d1a4da9e47f5d3b3e85a70,64c7fed44a04f777bb1e18ce,64c8011bee3eec4e1c68af25,,,,,,,,,,,,,,,,,,,,,,
,,297991,001,2023-07-31_19h44.44.622,arm3_eps,2022.2.5,Win32,14.99497668,60d1a4da9e47f5d3b3e85a70,64c7fed44a04f777bb1e18ce,64c8011bee3eec4e1c68af25,right,1,0.75,0.05,0,0.041005567,0.8936,0,0,0,0,1,,,,,,,,,,
,,297991,001,2023-07-31_19h44.44.622,arm3_eps,2022.2.5,Win32,14.99497668,60d1a4da9e47f5d3b3e85a70,64c7fed44a04f777bb1e18ce,64c8011bee3eec4e1c68af25,right,1,0.75,0.05,0,0.078522142,0.1883,1,0,1,0,1,,,,,,,,,,
,,297991,001,2023-07-31_19h44.44.622,arm3_eps,2022.2.5,Win32,14.99497668,60d1a4da9e47f5d3b3e85a70,64c7fed44a04f777bb1e18ce,64c8011bee3eec4e1c68af25,right,1,0.75,0.05,0,0.09634895,0.2726,2,0,2,0,1,,,,,,,,,,
,,297991,001,2023-07-31_19h44.44.622,arm3_eps,2022.2.5,Win32,14.99497668,60d1a4da9e47f5d3b3e85a70,64c7fed44a04f777bb1e18ce,64c8011bee3eec4e1c68af25,up,1,0.75,0.05,1,0,0.4521,3,0,3,0,1,,,,,,,,,,
,,297991,001,2023-07-31_19h44.44.622,arm3_eps,2022.2.5,Win32,14.99497668,60d1a4da9e47f5d3b3e85a70,64c7fed44a04f777bb1e18ce,64c8011bee3eec4e1c68af25,up,1,0.75,0.05,2,0,2.0661,4,0,4,0,1,,,,,,,,,,
,,297991,001,2023-07-31_19h44.44.622,arm3_eps,2022.2.5,Win32,14.99497668,60d1a4da9e47f5d3b3e85a70,64c7fed44a04f777bb1e18ce,64c8011bee3eec4e1c68af25,right,1,0.75,0.05,2,0.003191429,0.2683,5,0,5,0,1,,,,,,,,,,
,,297991,001,2023-07-31_19h44.44.622,arm3_eps,2022.2.5,Win32,14.99497668,60d1a4da9e47f5d3b3e85a70,64c7fed44a04f777bb1e18ce,64c8011bee3eec4e1c68af25,right,1,0.75,0.05,2,0.010631215,0.6982,6,0,6,0,1,,,,,,,,,,
,,297991,001,2023-07-31_19h44.44.622,arm3_eps,2022.2.5,Win32,14.99497668,60d1a4da9e47f5d3b3e85a70,64c7fed44a04f777bb1e18ce,64c8011bee3eec4e1c68af25,right,1,0.75,0.05,2,0.045199735,0.0955,7,0,7,0,1,,,,,,,,,,
,,297991,001,2023-07-31_19h44.44.622,arm3_eps,2022.2.5,Win32,14.99497668,60d1a4da9e47f5d3b3e85a70,64c7fed44a04f777bb1e18ce,64c8011bee3eec4e1c68af25,up,1,0.75,0.05,2,0,0.7876,8,0,8,0,1,,,,,,,,,,
,,297991,001,2023-07-31_19h44.44.622,arm3_eps,2022.2.5,Win32,14.99497668,60d1a4da9e47f5d3b3e85a70,64c7fed44a04f777bb1e18ce,64c8011bee3eec4e1c68af25,right,1,0.75,0.05,2,0.00692338,3.0263,9,0,9,0,1,,,,,,,,,,
,,297991,001,2023-07-31_19h44.44.622,arm3_eps,2022.2.5,Win32,14.99497668,60d1a4da9e47f5d3b3e85a70,64c7fed44a04f777bb1e18ce,64c8011bee3eec4e1c68af25,right,1,0.75,0.05,2,0.052130734,0.0908,10,0,10,0,1,,,,,,,,,,
,,297991,001,2023-07-31_19h44.44.622,arm3_eps,2022.2.5,Win32,14.99497668,60d1a4da9e47f5d3b3e85a70,64c7fed44a04f777bb1e18ce,64c8011bee3eec4e1c68af25,right,1,0.75,0.05,2,0.061028403,0.1826,11,0,11,0,1,,,,,,,,,,
,,297991,001,2023-07-31_19h44.44.622,arm3_eps,2022.2.5,Win32,14.99497668,60d1a4da9e47f5d3b3e85a70,64c7fed44a04f777bb1e18ce,64c8011bee3eec4e1c68af25,up,1,0.75,0.05,3,0,0.4426,12,0,12,0,1,,,,,,,,,,
,,297991,001,2023-07-31_19h44.44.622,arm3_eps,2022.2.5,Win32,14.99497668,60d1a4da9e47f5d3b3e85a70,64c7fed44a04f777bb1e18ce,64c8011bee3eec4e1c68af25,right,1,0.75,0.05,3,0.017975116,0.9403,13,0,13,0,1,,,,,,,,,,
,,297991,001,2023-07-31_19h44.44.622,arm3_eps,2022.2.5,Win32,14.99497668,60d1a4da9e47f5d3b3e85a70,64c7fed44a04f777bb1e18ce,64c8011bee3eec4e1c68af25,right,1,0.75,0.05,3,0.060418733,0.0938,14,0,14,0,1,,,,,,,,,,
,,297991,001,2023-07-31_19h44.44.622,arm3_eps,2022.2.5,Win32,14.99497668,60d1a4da9e47f5d3b3e85a70,64c7fed44a04f777bb1e18ce,64c8011bee3eec4e1c68af25,right,1,0.75,0.05,3,0.086845201,0.1046,15,0,15,0,1,,,,,,,,,,
,,297991,001,2023-07-31_19h44.44.622,arm3_eps,2022.2.5,Win32,14.99497668,60d1a4da9e47f5d3b3e85a70,64c7fed44a04f777bb1e18ce,64c8011bee3eec4e1c68af25,up,1,0.75,0.05,4,0,0.3659,16,0,16,0,1,,,,,,,,,,
,,297991,001,2023-07-31_19h44.44.622,arm3_eps,2022.2.5,Win32,14.99497668,60d1a4da9e47f5d3b3e85a70,64c7fed44a04f777bb1e18ce,64c8011bee3eec4e1c68af25,right,1,0.75,0.05,4,-0.008142367,0.8608,17,0,17,0,1,,,,,,,,,,
,,297991,001,2023-07-31_19h44.44.622,arm3_eps,2022.2.5,Win32,14.99497668,60d1a4da9e47f5d3b3e85a70,64c7fed44a04f777bb1e18ce,64c8011bee3eec4e1c68af25,right,1,0.75,0.05,4,0.007364157,0.0976,18,0,18,0,1,,,,,,,,,,
,,297991,001,2023-07-31_19h44.44.622,arm3_eps,2022.2.5,Win32,14.99497668,60d1a4da9e47f5d3b3e85a70,64c7fed44a04f777bb1e18ce,64c8011bee3eec4e1c68af25,right,1,0.75,0.05,4,-0.000336913,0.0958,19,0,19,0,1,,,,,,,,,,
,,297991,001,2023-07-31_19h44.44.622,arm3_eps,2022.2.5,Win32,14.99497668,60d1a4da9e47f5d3b3e85a70,64c7fed44a04f777bb1e18ce,64c8011bee3eec4e1c68af25,up,1,0.75,0.05,5,0,1.4147,20,0,20,0,1,,,,,,,,,,
,,297991,001,2023-07-31_19h44.44.622,arm3_eps,2022.2.5,Win32,14.99497668,60d1a4da9e47f5d3b3e85a70,64c7fed44a04f777bb1e18ce,64c8011bee3eec4e1c68af25,right,1,0.75,0.05,5,0.00379744,0.8692,21,0,21,0,1,,,,,,,,,,
,,297991,001,2023-07-31_19h44.44.622,arm3_eps,2022.2.5,Win32,14.99497668,60d1a4da9e47f5d3b3e85a70,64c7fed44a04f777bb1e18ce,64c8011bee3eec4e1c68af25,right,1,0.75,0.05,5,0.002744753,0.0921,22,0,22,0,1,,,,,,,,,,
,,297991,001,2023-07-31_19h44.44.622,arm3_eps,2022.2.5,Win32,14.99497668,60d1a4da9e47f5d3b3e85a70,64c7fed44a04f777bb1e18ce,64c8011bee3eec4e1c68af25,right,1,0.75,0.05,5,0.037665418,0.0891,23,0,23,0,1,,,,,,,,,,
,,297991,001,2023-07-31_19h44.44.622,arm3_eps,2022.2.5,Win32,14.99497668,60d1a4da9e47f5d3b3e85a70,64c7fed44a04f777bb1e18ce,64c8011bee3eec4e1c68af25,down,1,0.75,0.05,4,0,0.8001,24,0,24,0,1,,,,,,,,,,
,,297991,001,2023-07-31_19h44.44.622,arm3_eps,2022.2.5,Win32,14.99497668,60d1a4da9e47f5d3b3e85a70,64c7fed44a04f777bb1e18ce,64c8011bee3eec4e1c68af25,right,1,0.75,0.05,4,-0.030106353,0.8622,25,0,25,0,1,,,,,,,,,,
,,297991,001,2023-07-31_19h44.44.622,arm3_eps,2022.2.5,Win32,14.99497668,60d1a4da9e47f5d3b3e85a70,64c7fed44a04f777bb1e18ce,64c8011bee3eec4e1c68af25,right,1,0.75,0.05,4,0.024960005,0.1059,26,0,26,0,1,,,,,,,,,,
,,297991,001,2023-07-31_19h44.44.622,arm3_eps,2022.2.5,Win32,14.99497668,60d1a4da9e47f5d3b3e85a70,64c7fed44a04f777bb1e18ce,64c8011bee3eec4e1c68af25,right,1,0.75,0.05,4,0.008436912,0.0936,27,0,27,0,1,,,,,,,,,,
,,297991,001,2023-07-31_19h44.44.622,arm3_eps,2022.2.5,Win32,14.99497668,60d1a4da9e47f5d3b3e85a70,64c7fed44a04f777bb1e18ce,64c8011bee3eec4e1c68af25,right,1,0.75,0.05,4,0.001394006,0.7071,28,0,28,0,1,,,,,,,,,,
,,297991,001,2023-07-31_19h44.44.622,arm3_eps,2022.2.5,Win32,14.99497668,60d1a4da9e47f5d3b3e85a70,64c7fed44a04f777bb1e18ce,64c8011bee3eec4e1c68af25,down,1,0.75,0.05,3,0,0.3538,29,0,29,0,1,,,,,,,,,,
,,297991,001,2023-07-31_19h44.44.622,arm3_eps,2022.2.5,Win32,14.99497668,60d1a4da9e47f5d3b3e85a70,64c7fed44a04f777bb1e18ce,64c8011bee3eec4e1c68af25,right,1,0.75,0.05,3,0.042363136,0.8737,30,0,30,0,1,,,,,,,,,,
,,297991,001,2023-07-31_19h44.44.622,arm3_eps,2022.2.5,Win32,14.99497668,60d1a4da9e47f5d3b3e85a70,64c7fed44a04f777bb1e18ce,64c8011bee3eec4e1c68af25,right,1,0.75,0.05,3,0.018994046,0.0934,31,0,31,0,1,,,,,,,,,,
,,297991,001,2023-07-31_19h44.44.622,arm3_eps,2022.2.5,Win32,14.99497668,60d1a4da9e47f5d3b3e85a70,64c7fed44a04f777bb1e18ce,64c8011bee3eec4e1c68af25,right,1,0.75,0.05,3,0.02689644,0.097,32,0,32,0,1,,,,,,,,,,
,,297991,001,2023-07-31_19h44.44.622,arm3_eps,2022.2.5,Win32,14.99497668,60d1a4da9e47f5d3b3e85a70,64c7fed44a04f777bb1e18ce,64c8011bee3eec4e1c68af25,right,1,0.75,0.05,3,0.049066344,0.1101,33,0,33,0,1,,,,,,,,,,
,,297991,001,2023-07-31_19h44.44.622,arm3_eps,2022.2.5,Win32,14.99497668,60d1a4da9e47f5d3b3e85a70,64c7fed44a04f777bb1e18ce,64c8011bee3eec4e1c68af25,up,1,0.75,0.05,3,0,0.3573,34,0,34,0,1,,,,,,,,,,
,,297991,001,2023-07-31_19h44.44.622,arm3_eps,2022.2.5,Win32,14.99497668,60d1a4da9e47f5d3b3e85a70,64c7fed44a04f777bb1e18ce,64c8011bee3eec4e1c68af25,right,1,0.75,0.05,3,-0.01144991,1.0351,35,0,35,0,1,,,,,,,,,,
,,297991,001,2023-07-31_19h44.44.622,arm3_eps,2022.2.5,Win32,14.99497668,60d1a4da9e47f5d3b3e85a70,64c7fed44a04f777bb1e18ce,64c8011bee3eec4e1c68af25,right,1,0.75,0.05,3,-0.000563114,0.096,36,0,36,0,1,,,,,,,,,,
,,297991,001,2023-07-31_19h44.44.622,arm3_eps,2022.2.5,Win32,14.99497668,60d1a4da9e47f5d3b3e85a70,64c7fed44a04f777bb1e18ce,64c8011bee3eec4e1c68af25,right,1,0.75,0.05,3,0.021688027,0.0968,37,0,37,0,1,,,,,,,,,,
,,297991,001,2023-07-31_19h44.44.622,arm3_eps,2022.2.5,Win32,14.99497668,60d1a4da9e47f5d3b3e85a70,64c7fed44a04f777bb1e18ce,64c8011bee3eec4e1c68af25,right,1,0.75,0.05,3,-0.004311856,0.0995,38,0,38,0,1,,,,,,,,,,
,,297991,001,2023-07-31_19h44.44.622,arm3_eps,2022.2.5,Win32,14.99497668,60d1a4da9e47f5d3b3e85a70,64c7fed44a04f777bb1e18ce,64c8011bee3eec4e1c68af25,right,1,0.75,0.05,3,-0.019271281,0.5308,39,0,39,0,1,,,,,,,,,,
,,297991,001,2023-07-31_19h44.44.622,arm3_eps,2022.2.5,Win32,14.99497668,60d1a4da9e47f5d3b3e85a70,64c7fed44a04f777bb1e18ce,64c8011bee3eec4e1c68af25,down,1,0.75,0.05,2,0,0.5164,40,0,40,0,1,,,,,,,,,,
,,297991,001,2023-07-31_19h44.44.622,arm3_eps,2022.2.5,Win32,14.99497668,60d1a4da9e47f5d3b3e85a70,64c7fed44a04f777bb1e18ce,64c8011bee3eec4e1c68af25,right,1,0.75,0.05,2,0.016745734,1.3788,41,0,41,0,1,,,,,,,,,,
,,297991,001,2023-07-31_19h44.44.622,arm3_eps,2022.2.5,Win32,14.99497668,60d1a4da9e47f5d3b3e85a70,64c7fed44a04f777bb1e18ce,64c8011bee3eec4e1c68af25,right,1,0.75,0.05,2,0.021074209,0.0966,42,0,42,0,1,,,,,,,,,,
,,297991,001,2023-07-31_19h44.44.622,arm3_eps,2022.2.5,Win32,14.99497668,60d1a4da9e47f5d3b3e85a70,64c7fed44a04f777bb1e18ce,64c8011bee3eec4e1c68af25,right,1,0.75,0.05,2,0.046753629,0.0961,43,0,43,0,1,,,,,,,,,,
,,297991,001,2023-07-31_19h44.44.622,arm3_eps,2022.2.5,Win32,14.99497668,60d1a4da9e47f5d3b3e85a70,64c7fed44a04f777bb1e18ce,64c8011bee3eec4e1c68af25,right,1,0.75,0.05,2,0.05843224,0.1792,44,0,44,0,1,,,,,,,,,,
,,297991,001,2023-07-31_19h44.44.622,arm3_eps,2022.2.5,Win32,14.99497668,60d1a4da9e47f5d3b3e85a70,64c7fed44a04f777bb1e18ce,64c8011bee3eec4e1c68af25,up,1,0.75,0.05,3,0,0.0949,45,0,45,0,1,,,,,,,,,,
,,297991,001,2023-07-31_19h44.44.622,arm3_eps,2022.2.5,Win32,14.99497668,60d1a4da9e47f5d3b3e85a70,64c7fed44a04f777bb1e18ce,64c8011bee3eec4e1c68af25,right,1,0.75,0.05,3,0.016481191,0.7759,46,0,46,0,1,,,,,,,,,,
,,297991,001,2023-07-31_19h44.44.622,arm3_eps,2022.2.5,Win32,14.99497668,60d1a4da9e47f5d3b3e85a70,64c7fed44a04f777bb1e18ce,64c8011bee3eec4e1c68af25,right,1,0.75,0.05,3,0.039498064,0.1028,47,0,47,0,1,,,,,,,,,,
,,297991,001,2023-07-31_19h44.44.622,arm3_eps,2022.2.5,Win32,14.99497668,60d1a4da9e47f5d3b3e85a70,64c7fed44a04f777bb1e18ce,64c8011bee3eec4e1c68af25,right,1,0.75,0.05,3,0.043548956,0.0941,48,0,48,0,1,,,,,,,,,,
,,297991,001,2023-07-31_19h44.44.622,arm3_eps,2022.2.5,Win32,14.99497668,60d1a4da9e47f5d3b3e85a70,64c7fed44a04f777bb1e18ce,64c8011bee3eec4e1c68af25,up,1,0.75,0.05,3,0.043548956,0.1875,49,0,49,0,1,,,,,,,,,,
space,1.416,297991,001,2023-07-31_19h44.44.622,arm3_eps,2022.2.5,Win32,14.99497668,60d1a4da9e47f5d3b3e85a70,64c7fed44a04f777bb1e18ce,64c8011bee3eec4e1c68af25,,,,,,,,,,,,,,,,,,,,,,
space,0.7083,297991,001,2023-07-31_19h44.44.622,arm3_eps,2022.2.5,Win32,14.99497668,60d1a4da9e47f5d3b3e85a70,64c7fed44a04f777bb1e18ce,64c8011bee3eec4e1c68af25,,,,,,,,,,,,,,,,,,,,,,
,,297991,001,2023-07-31_19h44.44.622,arm3_eps,2022.2.5,Win32,14.99497668,60d1a4da9e47f5d3b3e85a70,64c7fed44a04f777bb1e18ce,64c8011bee3eec4e1c68af25,right,1,0.75,0.5,0,0.010825812,0.5334,0,0,0,0,1,,,,,,,,,,
,,297991,001,2023-07-31_19h44.44.622,arm3_eps,2022.2.5,Win32,14.99497668,60d1a4da9e47f5d3b3e85a70,64c7fed44a04f777bb1e18ce,64c8011bee3eec4e1c68af25,right,1,0.75,0.5,0,0.008988682,0.1931,1,0,1,0,1,,,,,,,,,,
,,297991,001,2023-07-31_19h44.44.622,arm3_eps,2022.2.5,Win32,14.99497668,60d1a4da9e47f5d3b3e85a70,64c7fed44a04f777bb1e18ce,64c8011bee3eec4e1c68af25,right,1,0.75,0.5,0,-0.019393401,0.0089,2,0,2,0,1,,,,,,,,,,
,,297991,001,2023-07-31_19h44.44.622,arm3_eps,2022.2.5,Win32,14.99497668,60d1a4da9e47f5d3b3e85a70,64c7fed44a04f777bb1e18ce,64c8011bee3eec4e1c68af25,right,1,0.75,0.5,0,0.0216005,0.0929,3,0,3,0,1,,,,,,,,,,
,,297991,001,2023-07-31_19h44.44.622,arm3_eps,2022.2.5,Win32,14.99497668,60d1a4da9e47f5d3b3e85a70,64c7fed44a04f777bb1e18ce,64c8011bee3eec4e1c68af25,down,1,0.75,0.5,-1,0,0.5303,4,0,4,0,1,,,,,,,,,,
,,297991,001,2023-07-31_19h44.44.622,arm3_eps,2022.2.5,Win32,14.99497668,60d1a4da9e47f5d3b3e85a70,64c7fed44a04f777bb1e18ce,64c8011bee3eec4e1c68af25,right,1,0.75,0.5,-1,0.025558387,1.0145,5,0,5,0,1,,,,,,,,,,
,,297991,001,2023-07-31_19h44.44.622,arm3_eps,2022.2.5,Win32,14.99497668,60d1a4da9e47f5d3b3e85a70,64c7fed44a04f777bb1e18ce,64c8011bee3eec4e1c68af25,right,1,0.75,0.5,-1,0.017123349,0.0959,6,0,6,0,1,,,,,,,,,,
,,297991,001,2023-07-31_19h44.44.622,arm3_eps,2022.2.5,Win32,14.99497668,60d1a4da9e47f5d3b3e85a70,64c7fed44a04f777bb1e18ce,64c8011bee3eec4e1c68af25,up,1,0.75,0.5,0,0,0.6142,7,0,7,0,1,,,,,,,,,,
,,297991,001,2023-07-31_19h44.44.622,arm3_eps,2022.2.5,Win32,14.99497668,60d1a4da9e47f5d3b3e85a70,64c7fed44a04f777bb1e18ce,64c8011bee3eec4e1c68af25,right,1,0.75,0.5,0,0.002099083,0.768,8,0,8,0,1,,,,,,,,,,
,,297991,001,2023-07-31_19h44.44.622,arm3_eps,2022.2.5,Win32,14.99497668,60d1a4da9e47f5d3b3e85a70,64c7fed44a04f777bb1e18ce,64c8011bee3eec4e1c68af25,right,1,0.75,0.5,0,0.008956831,0.182,9,0,9,0,1,,,,,,,,,,
,,297991,001,2023-07-31_19h44.44.622,arm3_eps,2022.2.5,Win32,14.99497668,60d1a4da9e47f5d3b3e85a70,64c7fed44a04f777bb1e18ce,64c8011bee3eec4e1c68af25,right,1,0.75,0.5,0,-0.008130582,0.0966,10,0,10,0,1,,,,,,,,,,
,,297991,001,2023-07-31_19h44.44.622,arm3_eps,2022.2.5,Win32,14.99497668,60d1a4da9e47f5d3b3e85a70,64c7fed44a04f777bb1e18ce,64c8011bee3eec4e1c68af25,down,-1,0.75,0.5,-1,0,0.5226,11,0,11,0,1,,,,,,,,,,
,,297991,001,2023-07-31_19h44.44.622,arm3_eps,2022.2.5,Win32,14.99497668,60d1a4da9e47f5d3b3e85a70,64c7fed44a04f777bb1e18ce,64c8011bee3eec4e1c68af25,right,-1,0.75,0.5,-1,-0.00552151,0.7553,12,0,12,0,1,,,,,,,,,,
,,297991,001,2023-07-31_19h44.44.622,arm3_eps,2022.2.5,Win32,14.99497668,60d1a4da9e47f5d3b3e85a70,64c7fed44a04f777bb1e18ce,64c8011bee3eec4e1c68af25,right,-1,0.75,0.5,-1,-0.023690757,0.1894,13,0,13,0,1,,,,,,,,,,
,,297991,001,2023-07-31_19h44.44.622,arm3_eps,2022.2.5,Win32,14.99497668,60d1a4da9e47f5d3b3e85a70,64c7fed44a04f777bb1e18ce,64c8011bee3eec4e1c68af25,right,-1,0.75,0.5,-1,-0.038120051,0.0936,14,0,14,0,1,,,,,,,,,,
,,297991,001,2023-07-31_19h44.44.622,arm3_eps,2022.2.5,Win32,14.99497668,60d1a4da9e47f5d3b3e85a70,64c7fed44a04f777bb1e18ce,64c8011bee3eec4e1c68af25,down,1,0.75,0.5,-1,0,0.5255,15,0,15,0,1,,,,,,,,,,
,,297991,001,2023-07-31_19h44.44.622,arm3_eps,2022.2.5,Win32,14.99497668,60d1a4da9e47f5d3b3e85a70,64c7fed44a04f777bb1e18ce,64c8011bee3eec4e1c68af25,right,1,0.75,0.5,-1,-0.008673788,1.0668,16,0,16,0,1,,,,,,,,,,
,,297991,001,2023-07-31_19h44.44.622,arm3_eps,2022.2.5,Win32,14.99497668,60d1a4da9e47f5d3b3e85a70,64c7fed44a04f777bb1e18ce,64c8011bee3eec4e1c68af25,right,1,0.75,0.5,-1,-0.020776614,0.0996,17,0,17,0,1,,,,,,,,,,
,,297991,001,2023-07-31_19h44.44.622,arm3_eps,2022.2.5,Win32,14.99497668,60d1a4da9e47f5d3b3e85a70,64c7fed44a04f777bb1e18ce,64c8011bee3eec4e1c68af25,right,1,0.75,0.5,-1,-0.019921273,0.0978,18,0,18,0,1,,,,,,,,,,
,,297991,001,2023-07-31_19h44.44.622,arm3_eps,2022.2.5,Win32,14.99497668,60d1a4da9e47f5d3b3e85a70,64c7fed44a04f777bb1e18ce,64c8011bee3eec4e1c68af25,right,1,0.75,0.5,-1,0.006584754,0.4462,19,0,19,0,1,,,,,,,,,,
,,297991,001,2023-07-31_19h44.44.622,arm3_eps,2022.2.5,Win32,14.99497668,60d1a4da9e47f5d3b3e85a70,64c7fed44a04f777bb1e18ce,64c8011bee3eec4e1c68af25,down,-1,0.75,0.5,-2,0,0.6964,20,0,20,0,1,,,,,,,,,,
,,297991,001,2023-07-31_19h44.44.622,arm3_eps,2022.2.5,Win32,14.99497668,60d1a4da9e47f5d3b3e85a70,64c7fed44a04f777bb1e18ce,64c8011bee3eec4e1c68af25,right,-1,0.75,0.5,-2,0.023442676,0.7977,21,0,21,0,1,,,,,,,,,,
,,297991,001,2023-07-31_19h44.44.622,arm3_eps,2022.2.5,Win32,14.99497668,60d1a4da9e47f5d3b3e85a70,64c7fed44a04f777bb1e18ce,64c8011bee3eec4e1c68af25,right,-1,0.75,0.5,-2,0.011135665,0.0934,22,0,22,0,1,,,,,,,,,,
,,297991,001,2023-07-31_19h44.44.622,arm3_eps,2022.2.5,Win32,14.99497668,60d1a4da9e47f5d3b3e85a70,64c7fed44a04f777bb1e18ce,64c8011bee3eec4e1c68af25,right,-1,0.75,0.5,-2,0.002204173,0.1759,23,0,23,0,1,,,,,,,,,,
,,297991,001,2023-07-31_19h44.44.622,arm3_eps,2022.2.5,Win32,14.99497668,60d1a4da9e47f5d3b3e85a70,64c7fed44a04f777bb1e18ce,64c8011bee3eec4e1c68af25,right,-1,0.75,0.5,-2,-0.008673781,0.2778,24,0,24,0,1,,,,,,,,,,
,,297991,001,2023-07-31_19h44.44.622,arm3_eps,2022.2.5,Win32,14.99497668,60d1a4da9e47f5d3b3e85a70,64c7fed44a04f777bb1e18ce,64c8011bee3eec4e1c68af25,up,-1,0.75,0.5,-3,0,1.7823,25,0,25,0,1,,,,,,,,,,
,,297991,001,2023-07-31_19h44.44.622,arm3_eps,2022.2.5,Win32,14.99497668,60d1a4da9e47f5d3b3e85a70,64c7fed44a04f777bb1e18ce,64c8011bee3eec4e1c68af25,right,-1,0.75,0.5,-3,0.021624173,1.0538,26,0,26,0,1,,,,,,,,,,
,,297991,001,2023-07-31_19h44.44.622,arm3_eps,2022.2.5,Win32,14.99497668,60d1a4da9e47f5d3b3e85a70,64c7fed44a04f777bb1e18ce,64c8011bee3eec4e1c68af25,right,-1,0.75,0.5,-3,-0.001460554,0.0959,27,0,27,0,1,,,,,,,,,,
,,297991,001,2023-07-31_19h44.44.622,arm3_eps,2022.2.5,Win32,14.99497668,60d1a4da9e47f5d3b3e85a70,64c7fed44a04f777bb1e18ce,64c8011bee3eec4e1c68af25,right,-1,0.75,0.5,-3,0.011585817,0.0953,28,0,28,0,1,,,,,,,,,,
,,297991,001,2023-07-31_19h44.44.622,arm3_eps,2022.2.5,Win32,14.99497668,60d1a4da9e47f5d3b3e85a70,64c7fed44a04f777bb1e18ce,64c8011bee3eec4e1c68af25,right,-1,0.75,0.5,-3,0.010774037,0.0914,29,0,29,0,1,,,,,,,,,,
,,297991,001,2023-07-31_19h44.44.622,arm3_eps,2022.2.5,Win32,14.99497668,60d1a4da9e47f5d3b3e85a70,64c7fed44a04f777bb1e18ce,64c8011bee3eec4e1c68af25,down,-1,0.75,0.5,-2,0,0.527,30,0,30,0,1,,,,,,,,,,
,,297991,001,2023-07-31_19h44.44.622,arm3_eps,2022.2.5,Win32,14.99497668,60d1a4da9e47f5d3b3e85a70,64c7fed44a04f777bb1e18ce,64c8011bee3eec4e1c68af25,right,-1,0.75,0.5,-2,-0.016327274,0.8736,31,0,31,0,1,,,,,,,,,,
,,297991,001,2023-07-31_19h44.44.622,arm3_eps,2022.2.5,Win32,14.99497668,60d1a4da9e47f5d3b3e85a70,64c7fed44a04f777bb1e18ce,64c8011bee3eec4e1c68af25,right,-1,0.75,0.5,-2,-0.039181147,0.0961,32,0,32,0,1,,,,,,,,,,
,,297991,001,2023-07-31_19h44.44.622,arm3_eps,2022.2.5,Win32,14.99497668,60d1a4da9e47f5d3b3e85a70,64c7fed44a04f777bb1e18ce,64c8011bee3eec4e1c68af25,right,-1,0.75,0.5,-2,-0.037703125,0.0967,33,0,33,0,1,,,,,,,,,,
,,297991,001,2023-07-31_19h44.44.622,arm3_eps,2022.2.5,Win32,14.99497668,60d1a4da9e47f5d3b3e85a70,64c7fed44a04f777bb1e18ce,64c8011bee3eec4e1c68af25,down,1,0.75,0.5,-1,0,0.4462,34,0,34,0,1,,,,,,,,,,
,,297991,001,2023-07-31_19h44.44.622,arm3_eps,2022.2.5,Win32,14.99497668,60d1a4da9e47f5d3b3e85a70,64c7fed44a04f777bb1e18ce,64c8011bee3eec4e1c68af25,right,1,0.75,0.5,-1,0.020126706,0.5937,35,0,35,0,1,,,,,,,,,,
,,297991,001,2023-07-31_19h44.44.622,arm3_eps,2022.2.5,Win32,14.99497668,60d1a4da9e47f5d3b3e85a70,64c7fed44a04f777bb1e18ce,64c8011bee3eec4e1c68af25,right,1,0.75,0.5,-1,0.023000353,0.1786,36,0,36,0,1,,,,,,,,,,
,,297991,001,2023-07-31_19h44.44.622,arm3_eps,2022.2.5,Win32,14.99497668,60d1a4da9e47f5d3b3e85a70,64c7fed44a04f777bb1e18ce,64c8011bee3eec4e1c68af25,right,1,0.75,0.5,-1,0.044884252,0.1038,37,0,37,0,1,,,,,,,,,,
,,297991,001,2023-07-31_19h44.44.622,arm3_eps,2022.2.5,Win32,14.99497668,60d1a4da9e47f5d3b3e85a70,64c7fed44a04f777bb1e18ce,64c8011bee3eec4e1c68af25,right,1,0.75,0.5,-1,0.051037311,0.0992,38,0,38,0,1,,,,,,,,,,
,,297991,001,2023-07-31_19h44.44.622,arm3_eps,2022.2.5,Win32,14.99497668,60d1a4da9e47f5d3b3e85a70,64c7fed44a04f777bb1e18ce,64c8011bee3eec4e1c68af25,up,1,0.75,0.5,0,0,0.4475,39,0,39,0,1,,,,,,,,,,
,,297991,001,2023-07-31_19h44.44.622,arm3_eps,2022.2.5,Win32,14.99497668,60d1a4da9e47f5d3b3e85a70,64c7fed44a04f777bb1e18ce,64c8011bee3eec4e1c68af25,right,1,0.75,0.5,0,0.004149479,0.7616,40,0,40,0,1,,,,,,,,,,
,,297991,001,2023-07-31_19h44.44.622,arm3_eps,2022.2.5,Win32,14.99497668,60d1a4da9e47f5d3b3e85a70,64c7fed44a04f777bb1e18ce,64c8011bee3eec4e1c68af25,right,1,0.75,0.5,0,-0.003829214,0.0965,41,0,41,0,1,,,,,,,,,,
,,297991,001,2023-07-31_19h44.44.622,arm3_eps,2022.2.5,Win32,14.99497668,60d1a4da9e47f5d3b3e85a70,64c7fed44a04f777bb1e18ce,64c8011bee3eec4e1c68af25,right,1,0.75,0.5,0,0.00998316,0.0933,42,0,42,0,1,,,,,,,,,,
,,297991,001,2023-07-31_19h44.44.622,arm3_eps,2022.2.5,Win32,14.99497668,60d1a4da9e47f5d3b3e85a70,64c7fed44a04f777bb1e18ce,64c8011bee3eec4e1c68af25,right,1,0.75,0.5,0,-0.001139706,0.0951,43,0,43,0,1,,,,,,,,,,
,,297991,001,2023-07-31_19h44.44.622,arm3_eps,2022.2.5,Win32,14.99497668,60d1a4da9e47f5d3b3e85a70,64c7fed44a04f777bb1e18ce,64c8011bee3eec4e1c68af25,right,1,0.75,0.5,0,0.007800066,0.5426,44,0,44,0,1,,,,,,,,,,
,,297991,001,2023-07-31_19h44.44.622,arm3_eps,2022.2.5,Win32,14.99497668,60d1a4da9e47f5d3b3e85a70,64c7fed44a04f777bb1e18ce,64c8011bee3eec4e1c68af25,up,1,0.75,0.5,0,0,0.6288,45,0,45,0,1,,,,,,,,,,
,,297991,001,2023-07-31_19h44.44.622,arm3_eps,2022.2.5,Win32,14.99497668,60d1a4da9e47f5d3b3e85a70,64c7fed44a04f777bb1e18ce,64c8011bee3eec4e1c68af25,right,1,0.75,0.5,0,0.03232894,1.0395,46,0,46,0,1,,,,,,,,,,
,,297991,001,2023-07-31_19h44.44.622,arm3_eps,2022.2.5,Win32,14.99497668,60d1a4da9e47f5d3b3e85a70,64c7fed44a04f777bb1e18ce,64c8011bee3eec4e1c68af25,right,1,0.75,0.5,0,0.048598829,0.0917,47,0,47,0,1,,,,,,,,,,
,,297991,001,2023-07-31_19h44.44.622,arm3_eps,2022.2.5,Win32,14.99497668,60d1a4da9e47f5d3b3e85a70,64c7fed44a04f777bb1e18ce,64c8011bee3eec4e1c68af25,right,1,0.75,0.5,0,0.042191174,0.1015,48,0,48,0,1,,,,,,,,,,
,,297991,001,2023-07-31_19h44.44.622,arm3_eps,2022.2.5,Win32,14.99497668,60d1a4da9e47f5d3b3e85a70,64c7fed44a04f777bb1e18ce,64c8011bee3eec4e1c68af25,right,1,0.75,0.5,0,0.056909715,0.0944,49,0,49,0,1,,,,,,,,,,
space,2.0021,297991,001,2023-07-31_19h44.44.622,arm3_eps,2022.2.5,Win32,14.99497668,60d1a4da9e47f5d3b3e85a70,64c7fed44a04f777bb1e18ce,64c8011bee3eec4e1c68af25,,,,,,,,,,,,,,,,,,,,,,
space,4.4914,297991,001,2023-07-31_19h44.44.622,arm3_eps,2022.2.5,Win32,14.99497668,60d1a4da9e47f5d3b3e85a70,64c7fed44a04f777bb1e18ce,64c8011bee3eec4e1c68af25,right,1,0.75,0.2429,0,0.024001172,0.712,,,,,,0,0,0,0,1,,,,,
,,297991,001,2023-07-31_19h44.44.622,arm3_eps,2022.2.5,Win32,14.99497668,60d1a4da9e47f5d3b3e85a70,64c7fed44a04f777bb1e18ce,64c8011bee3eec4e1c68af25,right,1,0.75,0.2429,0,-0.00250055,0.0962,,,,,,1,0,1,0,1,,,,,
,,297991,001,2023-07-31_19h44.44.622,arm3_eps,2022.2.5,Win32,14.99497668,60d1a4da9e47f5d3b3e85a70,64c7fed44a04f777bb1e18ce,64c8011bee3eec4e1c68af25,up,1,0.75,0.2429,0,0,0.3527,,,,,,2,0,2,0,1,,,,,
,,297991,001,2023-07-31_19h44.44.622,arm3_eps,2022.2.5,Win32,14.99497668,60d1a4da9e47f5d3b3e85a70,64c7fed44a04f777bb1e18ce,64c8011bee3eec4e1c68af25,right,1,0.75,0.2429,0,0.032991257,0.9422,,,,,,3,0,3,0,1,,,,,
,,297991,001,2023-07-31_19h44.44.622,arm3_eps,2022.2.5,Win32,14.99497668,60d1a4da9e47f5d3b3e85a70,64c7fed44a04f777bb1e18ce,64c8011bee3eec4e1c68af25,right,1,0.75,0.2429,0,0.056708273,0.1836,,,,,,4,0,4,0,1,,,,,
,,297991,001,2023-07-31_19h44.44.622,arm3_eps,2022.2.5,Win32,14.99497668,60d1a4da9e47f5d3b3e85a70,64c7fed44a04f777bb1e18ce,64c8011bee3eec4e1c68af25,right,1,0.75,0.2429,0,0.090929165,0.0997,,,,,,5,0,5,0,1,,,,,
,,297991,001,2023-07-31_19h44.44.622,arm3_eps,2022.2.5,Win32,14.99497668,60d1a4da9e47f5d3b3e85a70,64c7fed44a04f777bb1e18ce,64c8011bee3eec4e1c68af25,up,-1,0.75,0.2429,1,0,0.1921,,,,,,6,0,6,0,1,,,,,
,,297991,001,2023-07-31_19h44.44.622,arm3_eps,2022.2.5,Win32,14.99497668,60d1a4da9e47f5d3b3e85a70,64c7fed44a04f777bb1e18ce,64c8011bee3eec4e1c68af25,right,-1,0.75,0.2429,1,0.002905951,1.4849,,,,,,7,0,7,0,1,,,,,
,,297991,001,2023-07-31_19h44.44.622,arm3_eps,2022.2.5,Win32,14.99497668,60d1a4da9e47f5d3b3e85a70,64c7fed44a04f777bb1e18ce,64c8011bee3eec4e1c68af25,right,-1,0.75,0.2429,1,-0.013497119,0.1902,,,,,,8,0,8,0,1,,,,,
,,297991,001,2023-07-31_19h44.44.622,arm3_eps,2022.2.5,Win32,14.99497668,60d1a4da9e47f5d3b3e85a70,64c7fed44a04f777bb1e18ce,64c8011bee3eec4e1c68af25,down,-1,0.75,0.2429,2,0,0.4526,,,,,,9,0,9,0,1,,,,,
,,297991,001,2023-07-31_19h44.44.622,arm3_eps,2022.2.5,Win32,14.99497668,60d1a4da9e47f5d3b3e85a70,64c7fed44a04f777bb1e18ce,64c8011bee3eec4e1c68af25,right,-1,0.75,0.2429,2,-0.035576451,0.8764,,,,,,10,0,10,0,1,,,,,
,,297991,001,2023-07-31_19h44.44.622,arm3_eps,2022.2.5,Win32,14.99497668,60d1a4da9e47f5d3b3e85a70,64c7fed44a04f777bb1e18ce,64c8011bee3eec4e1c68af25,right,-1,0.75,0.2429,2,-0.039937138,0.0929,,,,,,11,0,11,0,1,,,,,
,,297991,001,2023-07-31_19h44.44.622,arm3_eps,2022.2.5,Win32,14.99497668,60d1a4da9e47f5d3b3e85a70,64c7fed44a04f777bb1e18ce,64c8011bee3eec4e1c68af25,right,-1,0.75,0.2429,2,-0.038405071,0.1803,,,,,,12,0,12,0,1,,,,,
,,297991,001,2023-07-31_19h44.44.622,arm3_eps,2022.2.5,Win32,14.99497668,60d1a4da9e47f5d3b3e85a70,64c7fed44a04f777bb1e18ce,64c8011bee3eec4e1c68af25,up,-1,0.75,0.2429,1,0,0.6121,,,,,,13,0,13,0,1,,,,,
,,297991,001,2023-07-31_19h44.44.622,arm3_eps,2022.2.5,Win32,14.99497668,60d1a4da9e47f5d3b3e85a70,64c7fed44a04f777bb1e18ce,64c8011bee3eec4e1c68af25,right,-1,0.75,0.2429,1,0.011361092,0.8603,,,,,,14,0,14,0,1,,,,,
,,297991,001,2023-07-31_19h44.44.622,arm3_eps,2022.2.5,Win32,14.99497668,60d1a4da9e47f5d3b3e85a70,64c7fed44a04f777bb1e18ce,64c8011bee3eec4e1c68af25,right,-1,0.75,0.2429,1,0.00055913,0.0957,,,,,,15,0,15,0,1,,,,,
,,297991,001,2023-07-31_19h44.44.622,arm3_eps,2022.2.5,Win32,14.99497668,60d1a4da9e47f5d3b3e85a70,64c7fed44a04f777bb1e18ce,64c8011bee3eec4e1c68af25,right,-1,0.75,0.2429,1,-0.002727796,0.0972,,,,,,16,0,16,0,1,,,,,
,,297991,001,2023-07-31_19h44.44.622,arm3_eps,2022.2.5,Win32,14.99497668,60d1a4da9e47f5d3b3e85a70,64c7fed44a04f777bb1e18ce,64c8011bee3eec4e1c68af25,up,-1,0.75,0.2429,0,0,0.6194,,,,,,17,0,17,0,1,,,,,
,,297991,001,2023-07-31_19h44.44.622,arm3_eps,2022.2.5,Win32,14.99497668,60d1a4da9e47f5d3b3e85a70,64c7fed44a04f777bb1e18ce,64c8011bee3eec4e1c68af25,right,-1,0.75,0.2429,0,-0.013640227,0.7858,,,,,,18,0,18,0,1,,,,,
,,297991,001,2023-07-31_19h44.44.622,arm3_eps,2022.2.5,Win32,14.99497668,60d1a4da9e47f5d3b3e85a70,64c7fed44a04f777bb1e18ce,64c8011bee3eec4e1c68af25,right,-1,0.75,0.2429,0,0.017278753,0.093,,,,,,19,0,19,0,1,,,,,
,,297991,001,2023-07-31_19h44.44.622,arm3_eps,2022.2.5,Win32,14.99497668,60d1a4da9e47f5d3b3e85a70,64c7fed44a04f777bb1e18ce,64c8011bee3eec4e1c68af25,right,-1,0.75,0.2429,0,0.025539475,0.099,,,,,,20,0,20,0,1,,,,,
,,297991,001,2023-07-31_19h44.44.622,arm3_eps,2022.2.5,Win32,14.99497668,60d1a4da9e47f5d3b3e85a70,64c7fed44a04f777bb1e18ce,64c8011bee3eec4e1c68af25,right,-1,0.75,0.2429,0,0.011561176,0.1831,,,,,,21,0,21,0,1,,,,,
,,297991,001,2023-07-31_19h44.44.622,arm3_eps,2022.2.5,Win32,14.99497668,60d1a4da9e47f5d3b3e85a70,64c7fed44a04f777bb1e18ce,64c8011bee3eec4e1c68af25,down,1,0.75,0.2429,1,0,0.2681,,,,,,22,0,22,0,1,,,,,
,,297991,001,2023-07-31_19h44.44.622,arm3_eps,2022.2.5,Win32,14.99497668,60d1a4da9e47f5d3b3e85a70,64c7fed44a04f777bb1e18ce,64c8011bee3eec4e1c68af25,right,1,0.75,0.2429,1,0.000200504,0.8595,,,,,,23,0,23,0,1,,,,,
,,297991,001,2023-07-31_19h44.44.622,arm3_eps,2022.2.5,Win32,14.99497668,60d1a4da9e47f5d3b3e85a70,64c7fed44a04f777bb1e18ce,64c8011bee3eec4e1c68af25,right,1,0.75,0.2429,1,-0.008021479,0.0944,,,,,,24,0,24,0,1,,,,,
,,297991,001,2023-07-31_19h44.44.622,arm3_eps,2022.2.5,Win32,14.99497668,60d1a4da9e47f5d3b3e85a70,64c7fed44a04f777bb1e18ce,64c8011bee3eec4e1c68af25,right,1,0.75,0.2429,1,0.011163341,0.0962,,,,,,25,0,25,0,1,,,,,
,,297991,001,2023-07-31_19h44.44.622,arm3_eps,2022.2.5,Win32,14.99497668,60d1a4da9e47f5d3b3e85a70,64c7fed44a04f777bb1e18ce,64c8011bee3eec4e1c68af25,up,-1,0.75,0.2429,2,0,0.6177,,,,,,26,0,26,0,1,,,,,
,,297991,001,2023-07-31_19h44.44.622,arm3_eps,2022.2.5,Win32,14.99497668,60d1a4da9e47f5d3b3e85a70,64c7fed44a04f777bb1e18ce,64c8011bee3eec4e1c68af25,right,-1,0.75,0.2429,2,-0.036479914,0.7795,,,,,,27,0,27,0,1,,,,,
,,297991,001,2023-07-31_19h44.44.622,arm3_eps,2022.2.5,Win32,14.99497668,60d1a4da9e47f5d3b3e85a70,64c7fed44a04f777bb1e18ce,64c8011bee3eec4e1c68af25,right,-1,0.75,0.2429,2,-0.038107746,0.1016,,,,,,28,0,28,0,1,,,,,
,,297991,001,2023-07-31_19h44.44.622,arm3_eps,2022.2.5,Win32,14.99497668,60d1a4da9e47f5d3b3e85a70,64c7fed44a04f777bb1e18ce,64c8011bee3eec4e1c68af25,right,-1,0.75,0.2429,2,-0.008534156,0.0968,,,,,,29,0,29,0,1,,,,,
,,297991,001,2023-07-31_19h44.44.622,arm3_eps,2022.2.5,Win32,14.99497668,60d1a4da9e47f5d3b3e85a70,64c7fed44a04f777bb1e18ce,64c8011bee3eec4e1c68af25,right,-1,0.75,0.2429,2,-0.020427408,0.0989,,,,,,30,0,30,0,1,,,,,
,,297991,001,2023-07-31_19h44.44.622,arm3_eps,2022.2.5,Win32,14.99497668,60d1a4da9e47f5d3b3e85a70,64c7fed44a04f777bb1e18ce,64c8011bee3eec4e1c68af25,right,-1,0.75,0.2429,2,-0.027923869,0.2003,,,,,,31,0,31,0,1,,,,,
,,297991,001,2023-07-31_19h44.44.622,arm3_eps,2022.2.5,Win32,14.99497668,60d1a4da9e47f5d3b3e85a70,64c7fed44a04f777bb1e18ce,64c8011bee3eec4e1c68af25,down,1,0.75,0.2429,3,0,0.2647,,,,,,32,0,32,0,1,,,,,
,,297991,001,2023-07-31_19h44.44.622,arm3_eps,2022.2.5,Win32,14.99497668,60d1a4da9e47f5d3b3e85a70,64c7fed44a04f777bb1e18ce,64c8011bee3eec4e1c68af25,right,1,0.75,0.2429,3,-0.007402379,0.8942,,,,,,33,0,33,0,1,,,,,
,,297991,001,2023-07-31_19h44.44.622,arm3_eps,2022.2.5,Win32,14.99497668,60d1a4da9e47f5d3b3e85a70,64c7fed44a04f777bb1e18ce,64c8011bee3eec4e1c68af25,right,1,0.75,0.2429,3,-0.016249471,0.0941,,,,,,34,0,34,0,1,,,,,
,,297991,001,2023-07-31_19h44.44.622,arm3_eps,2022.2.5,Win32,14.99497668,60d1a4da9e47f5d3b3e85a70,64c7fed44a04f777bb1e18ce,64c8011bee3eec4e1c68af25,right,1,0.75,0.2429,3,0.007059489,0.0984,,,,,,35,0,35,0,1,,,,,
,,297991,001,2023-07-31_19h44.44.622,arm3_eps,2022.2.5,Win32,14.99497668,60d1a4da9e47f5d3b3e85a70,64c7fed44a04f777bb1e18ce,64c8011bee3eec4e1c68af25,right,1,0.75,0.2429,3,0.027211984,0.0087,,,,,,36,0,36,0,1,,,,,
,,297991,001,2023-07-31_19h44.44.622,arm3_eps,2022.2.5,Win32,14.99497668,60d1a4da9e47f5d3b3e85a70,64c7fed44a04f777bb1e18ce,64c8011bee3eec4e1c68af25,up,1,0.75,0.2429,4,0,0.4533,,,,,,37,0,37,0,1,,,,,
,,297991,001,2023-07-31_19h44.44.622,arm3_eps,2022.2.5,Win32,14.99497668,60d1a4da9e47f5d3b3e85a70,64c7fed44a04f777bb1e18ce,64c8011bee3eec4e1c68af25,right,1,0.75,0.2429,4,0.014383388,0.6119,,,,,,38,0,38,0,1,,,,,
,,297991,001,2023-07-31_19h44.44.622,arm3_eps,2022.2.5,Win32,14.99497668,60d1a4da9e47f5d3b3e85a70,64c7fed44a04f777bb1e18ce,64c8011bee3eec4e1c68af25,right,1,0.75,0.2429,4,0.003680176,0.0985,,,,,,39,0,39,0,1,,,,,
,,297991,001,2023-07-31_19h44.44.622,arm3_eps,2022.2.5,Win32,14.99497668,60d1a4da9e47f5d3b3e85a70,64c7fed44a04f777bb1e18ce,64c8011bee3eec4e1c68af25,right,1,0.75,0.2429,4,0.027621865,0.1,,,,,,40,0,40,0,1,,,,,
,,297991,001,2023-07-31_19h44.44.622,arm3_eps,2022.2.5,Win32,14.99497668,60d1a4da9e47f5d3b3e85a70,64c7fed44a04f777bb1e18ce,64c8011bee3eec4e1c68af25,right,1,0.75,0.2429,4,0.041848458,0.1012,,,,,,41,0,41,0,1,,,,,
,,297991,001,2023-07-31_19h44.44.622,arm3_eps,2022.2.5,Win32,14.99497668,60d1a4da9e47f5d3b3e85a70,64c7fed44a04f777bb1e18ce,64c8011bee3eec4e1c68af25,up,1,0.75,0.2429,5,0,0.359,,,,,,42,0,42,0,1,,,,,
,,297991,001,2023-07-31_19h44.44.622,arm3_eps,2022.2.5,Win32,14.99497668,60d1a4da9e47f5d3b3e85a70,64c7fed44a04f777bb1e18ce,64c8011bee3eec4e1c68af25,right,1,0.75,0.2429,5,0.018782845,0.7229,,,,,,43,0,43,0,1,,,,,
,,297991,001,2023-07-31_19h44.44.622,arm3_eps,2022.2.5,Win32,14.99497668,60d1a4da9e47f5d3b3e85a70,64c7fed44a04f777bb1e18ce,64c8011bee3eec4e1c68af25,right,1,0.75,0.2429,5,0.033536081,0.0964,,,,,,44,0,44,0,1,,,,,
,,297991,001,2023-07-31_19h44.44.622,arm3_eps,2022.2.5,Win32,14.99497668,60d1a4da9e47f5d3b3e85a70,64c7fed44a04f777bb1e18ce,64c8011bee3eec4e1c68af25,right,1,0.75,0.2429,5,0.032969963,0.094,,,,,,45,0,45,0,1,,,,,
,,297991,001,2023-07-31_19h44.44.622,arm3_eps,2022.2.5,Win32,14.99497668,60d1a4da9e47f5d3b3e85a70,64c7fed44a04f777bb1e18ce,64c8011bee3eec4e1c68af25,up,1,0.75,0.2429,6,0,0.3697,,,,,,46,0,46,0,1,,,,,
,,297991,001,2023-07-31_19h44.44.622,arm3_eps,2022.2.5,Win32,14.99497668,60d1a4da9e47f5d3b3e85a70,64c7fed44a04f777bb1e18ce,64c8011bee3eec4e1c68af25,right,1,0.75,0.2429,6,-0.003932179,0.7815,,,,,,47,0,47,0,1,,,,,
,,297991,001,2023-07-31_19h44.44.622,arm3_eps,2022.2.5,Win32,14.99497668,60d1a4da9e47f5d3b3e85a70,64c7fed44a04f777bb1e18ce,64c8011bee3eec4e1c68af25,right,1,0.75,0.2429,6,-0.006951219,0.1033,,,,,,48,0,48,0,1,,,,,
,,297991,001,2023-07-31_19h44.44.622,arm3_eps,2022.2.5,Win32,14.99497668,60d1a4da9e47f5d3b3e85a70,64c7fed44a04f777bb1e18ce,64c8011bee3eec4e1c68af25,right,1,0.75,0.2429,6,-0.011762556,0.0926,,,,,,49,0,49,0,1,,,,,
,,297991,001,2023-07-31_19h44.44.622,arm3_eps,2022.2.5,Win32,14.99497668,60d1a4da9e47f5d3b3e85a70,64c7fed44a04f777bb1e18ce,64c8011bee3eec4e1c68af25,right,1,0.75,0.2429,6,-0.00487239,0.6258,,,,,,50,0,50,0,1,,,,,
,,297991,001,2023-07-31_19h44.44.622,arm3_eps,2022.2.5,Win32,14.99497668,60d1a4da9e47f5d3b3e85a70,64c7fed44a04f777bb1e18ce,64c8011bee3eec4e1c68af25,down,1,0.75,0.2429,5,0,0.1884,,,,,,51,0,51,0,1,,,,,
,,297991,001,2023-07-31_19h44.44.622,arm3_eps,2022.2.5,Win32,14.99497668,60d1a4da9e47f5d3b3e85a70,64c7fed44a04f777bb1e18ce,64c8011bee3eec4e1c68af25,right,1,0.75,0.2429,5,-0.004292456,0.876,,,,,,52,0,52,0,1,,,,,
,,297991,001,2023-07-31_19h44.44.622,arm3_eps,2022.2.5,Win32,14.99497668,60d1a4da9e47f5d3b3e85a70,64c7fed44a04f777bb1e18ce,64c8011bee3eec4e1c68af25,right,1,0.75,0.2429,5,0.019904037,0.0961,,,,,,53,0,53,0,1,,,,,
,,297991,001,2023-07-31_19h44.44.622,arm3_eps,2022.2.5,Win32,14.99497668,60d1a4da9e47f5d3b3e85a70,64c7fed44a04f777bb1e18ce,64c8011bee3eec4e1c68af25,right,1,0.75,0.2429,5,0.037291215,0.0088,,,,,,54,0,54,0,1,,,,,
,,297991,001,2023-07-31_19h44.44.622,arm3_eps,2022.2.5,Win32,14.99497668,60d1a4da9e47f5d3b3e85a70,64c7fed44a04f777bb1e18ce,64c8011bee3eec4e1c68af25,up,1,0.75,0.2429,5,0,0.3559,,,,,,55,0,55,0,1,,,,,
,,297991,001,2023-07-31_19h44.44.622,arm3_eps,2022.2.5,Win32,14.99497668,60d1a4da9e47f5d3b3e85a70,64c7fed44a04f777bb1e18ce,64c8011bee3eec4e1c68af25,right,1,0.75,0.2429,5,0.007120738,1.117,,,,,,56,0,56,0,1,,,,,
,,297991,001,2023-07-31_19h44.44.622,arm3_eps,2022.2.5,Win32,14.99497668,60d1a4da9e47f5d3b3e85a70,64c7fed44a04f777bb1e18ce,64c8011bee3eec4e1c68af25,right,1,0.75,0.2429,5,0.015946345,0.0962,,,,,,57,0,57,0,1,,,,,
,,297991,001,2023-07-31_19h44.44.622,arm3_eps,2022.2.5,Win32,14.99497668,60d1a4da9e47f5d3b3e85a70,64c7fed44a04f777bb1e18ce,64c8011bee3eec4e1c68af25,right,1,0.75,0.2429,5,0.010506858,0.1025,,,,,,58,0,58,0,1,,,,,
,,297991,001,2023-07-31_19h44.44.622,arm3_eps,2022.2.5,Win32,14.99497668,60d1a4da9e47f5d3b3e85a70,64c7fed44a04f777bb1e18ce,64c8011bee3eec4e1c68af25,right,1,0.75,0.2429,5,0.033658149,0.0088,,,,,,59,0,59,0,1,,,,,
,,297991,001,2023-07-31_19h44.44.622,arm3_eps,2022.2.5,Win32,14.99497668,60d1a4da9e47f5d3b3e85a70,64c7fed44a04f777bb1e18ce,64c8011bee3eec4e1c68af25,up,-1,0.75,0.2429,6,0,0.6184,,,,,,60,0,60,0,1,,,,,
,,297991,001,2023-07-31_19h44.44.622,arm3_eps,2022.2.5,Win32,14.99497668,60d1a4da9e47f5d3b3e85a70,64c7fed44a04f777bb1e18ce,64c8011bee3eec4e1c68af25,right,-1,0.75,0.2429,6,0.032678992,0.7905,,,,,,61,0,61,0,1,,,,,
,,297991,001,2023-07-31_19h44.44.622,arm3_eps,2022.2.5,Win32,14.99497668,60d1a4da9e47f5d3b3e85a70,64c7fed44a04f777bb1e18ce,64c8011bee3eec4e1c68af25,right,-1,0.75,0.2429,6,0.027754026,0.098,,,,,,62,0,62,0,1,,,,,
,,297991,001,2023-07-31_19h44.44.622,arm3_eps,2022.2.5,Win32,14.99497668,60d1a4da9e47f5d3b3e85a70,64c7fed44a04f777bb1e18ce,64c8011bee3eec4e1c68af25,right,-1,0.75,0.2429,6,0.007759321,0.0093,,,,,,63,0,63,0,1,,,,,
,,297991,001,2023-07-31_19h44.44.622,arm3_eps,2022.2.5,Win32,14.99497668,60d1a4da9e47f5d3b3e85a70,64c7fed44a04f777bb1e18ce,64c8011bee3eec4e1c68af25,right,-1,0.75,0.2429,6,-0.005337107,0.1828,,,,,,64,0,64,0,1,,,,,
,,297991,001,2023-07-31_19h44.44.622,arm3_eps,2022.2.5,Win32,14.99497668,60d1a4da9e47f5d3b3e85a70,64c7fed44a04f777bb1e18ce,64c8011bee3eec4e1c68af25,down,-1,0.75,0.2429,7,0,0.5356,,,,,,65,0,65,0,1,,,,,
,,297991,001,2023-07-31_19h44.44.622,arm3_eps,2022.2.5,Win32,14.99497668,60d1a4da9e47f5d3b3e85a70,64c7fed44a04f777bb1e18ce,64c8011bee3eec4e1c68af25,right,-1,0.75,0.2429,7,-0.028755591,0.7752,,,,,,66,0,66,0,1,,,,,
,,297991,001,2023-07-31_19h44.44.622,arm3_eps,2022.2.5,Win32,14.99497668,60d1a4da9e47f5d3b3e85a70,64c7fed44a04f777bb1e18ce,64c8011bee3eec4e1c68af25,right,-1,0.75,0.2429,7,-0.030950517,0.1752,,,,,,67,0,67,0,1,,,,,
,,297991,001,2023-07-31_19h44.44.622,arm3_eps,2022.2.5,Win32,14.99497668,60d1a4da9e47f5d3b3e85a70,64c7fed44a04f777bb1e18ce,64c8011bee3eec4e1c68af25,right,-1,0.75,0.2429,7,-0.062624518,0.0089,,,,,,68,0,68,0,1,,,,,
,,297991,001,2023-07-31_19h44.44.622,arm3_eps,2022.2.5,Win32,14.99497668,60d1a4da9e47f5d3b3e85a70,64c7fed44a04f777bb1e18ce,64c8011bee3eec4e1c68af25,right,-1,0.75,0.2429,7,-0.077112448,0.0932,,,,,,69,0,69,0,1,,,,,
,,297991,001,2023-07-31_19h44.44.622,arm3_eps,2022.2.5,Win32,14.99497668,60d1a4da9e47f5d3b3e85a70,64c7fed44a04f777bb1e18ce,64c8011bee3eec4e1c68af25,down,-1,0.75,0.2429,8,0,0.451,,,,,,70,0,70,0,1,,,,,
,,297991,001,2023-07-31_19h44.44.622,arm3_eps,2022.2.5,Win32,14.99497668,60d1a4da9e47f5d3b3e85a70,64c7fed44a04f777bb1e18ce,64c8011bee3eec4e1c68af25,right,-1,0.75,0.2429,8,-0.015912221,0.8779,,,,,,71,0,71,0,1,,,,,
,,297991,001,2023-07-31_19h44.44.622,arm3_eps,2022.2.5,Win32,14.99497668,60d1a4da9e47f5d3b3e85a70,64c7fed44a04f777bb1e18ce,64c8011bee3eec4e1c68af25,right,-1,0.75,0.2429,8,-0.005589982,0.0954,,,,,,72,0,72,0,1,,,,,
,,297991,001,2023-07-31_19h44.44.622,arm3_eps,2022.2.5,Win32,14.99497668,60d1a4da9e47f5d3b3e85a70,64c7fed44a04f777bb1e18ce,64c8011bee3eec4e1c68af25,right,-1,0.75,0.2429,8,-0.024180827,0.0954,,,,,,73,0,73,0,1,,,,,
,,297991,001,2023-07-31_19h44.44.622,arm3_eps,2022.2.5,Win32,14.99497668,60d1a4da9e47f5d3b3e85a70,64c7fed44a04f777bb1e18ce,64c8011bee3eec4e1c68af25,down,-1,0.75,0.2429,9,0,0.6081,,,,,,74,0,74,0,1,,,,,
,,297991,001,2023-07-31_19h44.44.622,arm3_eps,2022.2.5,Win32,14.99497668,60d1a4da9e47f5d3b3e85a70,64c7fed44a04f777bb1e18ce,64c8011bee3eec4e1c68af25,right,-1,0.75,0.2429,9,0.002137149,0.7828,,,,,,75,0,75,0,1,,,,,
,,297991,001,2023-07-31_19h44.44.622,arm3_eps,2022.2.5,Win32,14.99497668,60d1a4da9e47f5d3b3e85a70,64c7fed44a04f777bb1e18ce,64c8011bee3eec4e1c68af25,right,-1,0.75,0.2429,9,-0.004088976,0.0937,,,,,,76,0,76,0,1,,,,,
,,297991,001,2023-07-31_19h44.44.622,arm3_eps,2022.2.5,Win32,14.99497668,60d1a4da9e47f5d3b3e85a70,64c7fed44a04f777bb1e18ce,64c8011bee3eec4e1c68af25,right,-1,0.75,0.2429,9,0.002091524,0.0945,,,,,,77,0,77,0,1,,,,,
,,297991,001,2023-07-31_19h44.44.622,arm3_eps,2022.2.5,Win32,14.99497668,60d1a4da9e47f5d3b3e85a70,64c7fed44a04f777bb1e18ce,64c8011bee3eec4e1c68af25,right,-1,0.75,0.2429,9,0.00694636,0.1005,,,,,,78,0,78,0,1,,,,,
,,297991,001,2023-07-31_19h44.44.622,arm3_eps,2022.2.5,Win32,14.99497668,60d1a4da9e47f5d3b3e85a70,64c7fed44a04f777bb1e18ce,64c8011bee3eec4e1c68af25,down,-1,0.75,0.2429,10,0,0.71,,,,,,79,0,79,0,1,,,,,
,,297991,001,2023-07-31_19h44.44.622,arm3_eps,2022.2.5,Win32,14.99497668,60d1a4da9e47f5d3b3e85a70,64c7fed44a04f777bb1e18ce,64c8011bee3eec4e1c68af25,right,-1,0.75,0.2429,10,-0.033182845,0.7856,,,,,,80,0,80,0,1,,,,,
,,297991,001,2023-07-31_19h44.44.622,arm3_eps,2022.2.5,Win32,14.99497668,60d1a4da9e47f5d3b3e85a70,64c7fed44a04f777bb1e18ce,64c8011bee3eec4e1c68af25,right,-1,0.75,0.2429,10,-0.054693819,0.0922,,,,,,81,0,81,0,1,,,,,
,,297991,001,2023-07-31_19h44.44.622,arm3_eps,2022.2.5,Win32,14.99497668,60d1a4da9e47f5d3b3e85a70,64c7fed44a04f777bb1e18ce,64c8011bee3eec4e1c68af25,right,-1,0.75,0.2429,10,-0.075023763,0.0972,,,,,,82,0,82,0,1,,,,,
,,297991,001,2023-07-31_19h44.44.622,arm3_eps,2022.2.5,Win32,14.99497668,60d1a4da9e47f5d3b3e85a70,64c7fed44a04f777bb1e18ce,64c8011bee3eec4e1c68af25,right,-1,0.75,0.2429,10,-0.078682591,0.0994,,,,,,83,0,83,0,1,,,,,
,,297991,001,2023-07-31_19h44.44.622,arm3_eps,2022.2.5,Win32,14.99497668,60d1a4da9e47f5d3b3e85a70,64c7fed44a04f777bb1e18ce,64c8011bee3eec4e1c68af25,up,1,0.75,0.2429,9,0,0.1806,,,,,,84,0,84,0,1,,,,,
,,297991,001,2023-07-31_19h44.44.622,arm3_eps,2022.2.5,Win32,14.99497668,60d1a4da9e47f5d3b3e85a70,64c7fed44a04f777bb1e18ce,64c8011bee3eec4e1c68af25,right,1,0.75,0.2429,9,0.018012471,1.0419,,,,,,85,0,85,0,1,,,,,
,,297991,001,2023-07-31_19h44.44.622,arm3_eps,2022.2.5,Win32,14.99497668,60d1a4da9e47f5d3b3e85a70,64c7fed44a04f777bb1e18ce,64c8011bee3eec4e1c68af25,right,1,0.75,0.2429,9,0.017163381,0.0089,,,,,,86,0,86,0,1,,,,,
,,297991,001,2023-07-31_19h44.44.622,arm3_eps,2022.2.5,Win32,14.99497668,60d1a4da9e47f5d3b3e85a70,64c7fed44a04f777bb1e18ce,64c8011bee3eec4e1c68af25,right,1,0.75,0.2429,9,0.070796245,0.1047,,,,,,87,0,87,0,1,,,,,
,,297991,001,2023-07-31_19h44.44.622,arm3_eps,2022.2.5,Win32,14.99497668,60d1a4da9e47f5d3b3e85a70,64c7fed44a04f777bb1e18ce,64c8011bee3eec4e1c68af25,up,-1,0.75,0.2429,10,0,0.2944,,,,,,88,0,88,0,1,,,,,
,,297991,001,2023-07-31_19h44.44.622,arm3_eps,2022.2.5,Win32,14.99497668,60d1a4da9e47f5d3b3e85a70,64c7fed44a04f777bb1e18ce,64c8011bee3eec4e1c68af25,right,-1,0.75,0.2429,10,0.008174645,0.8043,,,,,,89,0,89,0,1,,,,,
,,297991,001,2023-07-31_19h44.44.622,arm3_eps,2022.2.5,Win32,14.99497668,60d1a4da9e47f5d3b3e85a70,64c7fed44a04f777bb1e18ce,64c8011bee3eec4e1c68af25,right,-1,0.75,0.2429,10,-0.02727487,0.1838,,,,,,90,0,90,0,1,,,,,
,,297991,001,2023-07-31_19h44.44.622,arm3_eps,2022.2.5,Win32,14.99497668,60d1a4da9e47f5d3b3e85a70,64c7fed44a04f777bb1e18ce,64c8011bee3eec4e1c68af25,right,-1,0.75,0.2429,10,-0.016930507,0.093,,,,,,91,0,91,0,1,,,,,
,,297991,001,2023-07-31_19h44.44.622,arm3_eps,2022.2.5,Win32,14.99497668,60d1a4da9e47f5d3b3e85a70,64c7fed44a04f777bb1e18ce,64c8011bee3eec4e1c68af25,down,-1,0.75,0.2429,11,0,0.2757,,,,,,92,0,92,0,1,,,,,
,,297991,001,2023-07-31_19h44.44.622,arm3_eps,2022.2.5,Win32,14.99497668,60d1a4da9e47f5d3b3e85a70,64c7fed44a04f777bb1e18ce,64c8011bee3eec4e1c68af25,right,-1,0.75,0.2429,11,-0.023104832,0.8633,,,,,,93,0,93,0,1,,,,,
,,297991,001,2023-07-31_19h44.44.622,arm3_eps,2022.2.5,Win32,14.99497668,60d1a4da9e47f5d3b3e85a70,64c7fed44a04f777bb1e18ce,64c8011bee3eec4e1c68af25,right,-1,0.75,0.2429,11,-0.056453509,0.0973,,,,,,94,0,94,0,1,,,,,
,,297991,001,2023-07-31_19h44.44.622,arm3_eps,2022.2.5,Win32,14.99497668,60d1a4da9e47f5d3b3e85a70,64c7fed44a04f777bb1e18ce,64c8011bee3eec4e1c68af25,down,1,0.75,0.2429,12,0,0.4412,,,,,,95,0,95,0,1,,,,,
,,297991,001,2023-07-31_19h44.44.622,arm3_eps,2022.2.5,Win32,14.99497668,60d1a4da9e47f5d3b3e85a70,64c7fed44a04f777bb1e18ce,64c8011bee3eec4e1c68af25,right,1,0.75,0.2429,12,0.013902641,0.7933,,,,,,96,0,96,0,1,,,,,
,,297991,001,2023-07-31_19h44.44.622,arm3_eps,2022.2.5,Win32,14.99497668,60d1a4da9e47f5d3b3e85a70,64c7fed44a04f777bb1e18ce,64c8011bee3eec4e1c68af25,right,1,0.75,0.2429,12,0.022039872,0.0966,,,,,,97,0,97,0,1,,,,,
,,297991,001,2023-07-31_19h44.44.622,arm3_eps,2022.2.5,Win32,14.99497668,60d1a4da9e47f5d3b3e85a70,64c7fed44a04f777bb1e18ce,64c8011bee3eec4e1c68af25,up,1,0.75,0.2429,13,0,0.7991,,,,,,98,0,98,0,1,,,,,
,,297991,001,2023-07-31_19h44.44.622,arm3_eps,2022.2.5,Win32,14.99497668,60d1a4da9e47f5d3b3e85a70,64c7fed44a04f777bb1e18ce,64c8011bee3eec4e1c68af25,right,1,0.75,0.2429,13,-0.013503968,0.8012,,,,,,99,0,99,0,1,,,,,
,,297991,001,2023-07-31_19h44.44.622,arm3_eps,2022.2.5,Win32,14.99497668,60d1a4da9e47f5d3b3e85a70,64c7fed44a04f777bb1e18ce,64c8011bee3eec4e1c68af25,right,1,0.75,0.2429,13,-0.001785413,0.1034,,,,,,100,0,100,0,1,,,,,
,,297991,001,2023-07-31_19h44.44.622,arm3_eps,2022.2.5,Win32,14.99497668,60d1a4da9e47f5d3b3e85a70,64c7fed44a04f777bb1e18ce,64c8011bee3eec4e1c68af25,up,-1,0.75,0.2429,14,0,0.7942,,,,,,101,0,101,0,1,,,,,
,,297991,001,2023-07-31_19h44.44.622,arm3_eps,2022.2.5,Win32,14.99497668,60d1a4da9e47f5d3b3e85a70,64c7fed44a04f777bb1e18ce,64c8011bee3eec4e1c68af25,right,-1,0.75,0.2429,14,0.012750428,0.7135,,,,,,102,0,102,0,1,,,,,
,,297991,001,2023-07-31_19h44.44.622,arm3_eps,2022.2.5,Win32,14.99497668,60d1a4da9e47f5d3b3e85a70,64c7fed44a04f777bb1e18ce,64c8011bee3eec4e1c68af25,right,-1,0.75,0.2429,14,-0.024853092,0.0953,,,,,,103,0,103,0,1,,,,,
,,297991,001,2023-07-31_19h44.44.622,arm3_eps,2022.2.5,Win32,14.99497668,60d1a4da9e47f5d3b3e85a70,64c7fed44a04f777bb1e18ce,64c8011bee3eec4e1c68af25,right,-1,0.75,0.2429,14,-0.013330458,0.0989,,,,,,104,0,104,0,1,,,,,
,,297991,001,2023-07-31_19h44.44.622,arm3_eps,2022.2.5,Win32,14.99497668,60d1a4da9e47f5d3b3e85a70,64c7fed44a04f777bb1e18ce,64c8011bee3eec4e1c68af25,down,-1,0.75,0.2429,15,0,0.3707,,,,,,105,0,105,0,1,,,,,
,,297991,001,2023-07-31_19h44.44.622,arm3_eps,2022.2.5,Win32,14.99497668,60d1a4da9e47f5d3b3e85a70,64c7fed44a04f777bb1e18ce,64c8011bee3eec4e1c68af25,right,-1,0.75,0.2429,15,-0.048580898,0.7836,,,,,,106,0,106,0,1,,,,,
,,297991,001,2023-07-31_19h44.44.622,arm3_eps,2022.2.5,Win32,14.99497668,60d1a4da9e47f5d3b3e85a70,64c7fed44a04f777bb1e18ce,64c8011bee3eec4e1c68af25,right,-1,0.75,0.2429,15,-0.078302813,0.096,,,,,,107,0,107,0,1,,,,,
,,297991,001,2023-07-31_19h44.44.622,arm3_eps,2022.2.5,Win32,14.99497668,60d1a4da9e47f5d3b3e85a70,64c7fed44a04f777bb1e18ce,64c8011bee3eec4e1c68af25,right,-1,0.75,0.2429,15,-0.06601536,0.096,,,,,,108,0,108,0,1,,,,,
,,297991,001,2023-07-31_19h44.44.622,arm3_eps,2022.2.5,Win32,14.99497668,60d1a4da9e47f5d3b3e85a70,64c7fed44a04f777bb1e18ce,64c8011bee3eec4e1c68af25,down,-1,0.75,0.2429,15,0,0.1881,,,,,,109,0,109,0,1,,,,,
,,297991,001,2023-07-31_19h44.44.622,arm3_eps,2022.2.5,Win32,14.99497668,60d1a4da9e47f5d3b3e85a70,64c7fed44a04f777bb1e18ce,64c8011bee3eec4e1c68af25,right,-1,0.75,0.2429,15,0.00593293,0.9558,,,,,,110,0,110,0,1,,,,,
,,297991,001,2023-07-31_19h44.44.622,arm3_eps,2022.2.5,Win32,14.99497668,60d1a4da9e47f5d3b3e85a70,64c7fed44a04f777bb1e18ce,64c8011bee3eec4e1c68af25,right,-1,0.75,0.2429,15,0.031204119,0.0977,,,,,,111,0,111,0,1,,,,,
,,297991,001,2023-07-31_19h44.44.622,arm3_eps,2022.2.5,Win32,14.99497668,60d1a4da9e47f5d3b3e85a70,64c7fed44a04f777bb1e18ce,64c8011bee3eec4e1c68af25,right,-1,0.75,0.2429,15,0.033736662,0.0894,,,,,,112,0,112,0,1,,,,,
,,297991,001,2023-07-31_19h44.44.622,arm3_eps,2022.2.5,Win32,14.99497668,60d1a4da9e47f5d3b3e85a70,64c7fed44a04f777bb1e18ce,64c8011bee3eec4e1c68af25,up,1,0.75,0.2429,14,0,0.4495,,,,,,113,0,113,0,1,,,,,
,,297991,001,2023-07-31_19h44.44.622,arm3_eps,2022.2.5,Win32,14.99497668,60d1a4da9e47f5d3b3e85a70,64c7fed44a04f777bb1e18ce,64c8011bee3eec4e1c68af25,right,1,0.75,0.2429,14,0.030232866,0.8701,,,,,,114,0,114,0,1,,,,,
,,297991,001,2023-07-31_19h44.44.622,arm3_eps,2022.2.5,Win32,14.99497668,60d1a4da9e47f5d3b3e85a70,64c7fed44a04f777bb1e18ce,64c8011bee3eec4e1c68af25,right,1,0.75,0.2429,14,0.072943695,0.0997,,,,,,115,0,115,0,1,,,,,
,,297991,001,2023-07-31_19h44.44.622,arm3_eps,2022.2.5,Win32,14.99497668,60d1a4da9e47f5d3b3e85a70,64c7fed44a04f777bb1e18ce,64c8011bee3eec4e1c68af25,right,1,0.75,0.2429,14,0.109819606,0.0925,,,,,,116,0,116,0,1,,,,,
,,297991,001,2023-07-31_19h44.44.622,arm3_eps,2022.2.5,Win32,14.99497668,60d1a4da9e47f5d3b3e85a70,64c7fed44a04f777bb1e18ce,64c8011bee3eec4e1c68af25,up,1,0.75,0.2429,15,0,0.1836,,,,,,117,0,117,0,1,,,,,
,,297991,001,2023-07-31_19h44.44.622,arm3_eps,2022.2.5,Win32,14.99497668,60d1a4da9e47f5d3b3e85a70,64c7fed44a04f777bb1e18ce,64c8011bee3eec4e1c68af25,right,1,0.75,0.2429,15,0.028811654,0.8184,,,,,,118,0,118,0,1,,,,,
,,297991,001,2023-07-31_19h44.44.622,arm3_eps,2022.2.5,Win32,14.99497668,60d1a4da9e47f5d3b3e85a70,64c7fed44a04f777bb1e18ce,64c8011bee3eec4e1c68af25,right,1,0.75,0.2429,15,0.035277889,0.1002,,,,,,119,0,119,0,1,,,,,
,,297991,001,2023-07-31_19h44.44.622,arm3_eps,2022.2.5,Win32,14.99497668,60d1a4da9e47f5d3b3e85a70,64c7fed44a04f777bb1e18ce,64c8011bee3eec4e1c68af25,right,1,0.75,0.2429,15,0.028221525,0.0963,,,,,,120,0,120,0,1,,,,,
,,297991,001,2023-07-31_19h44.44.622,arm3_eps,2022.2.5,Win32,14.99497668,60d1a4da9e47f5d3b3e85a70,64c7fed44a04f777bb1e18ce,64c8011bee3eec4e1c68af25,up,1,0.75,0.2429,16,0,0.2845,,,,,,121,0,121,0,1,,,,,
,,297991,001,2023-07-31_19h44.44.622,arm3_eps,2022.2.5,Win32,14.99497668,60d1a4da9e47f5d3b3e85a70,64c7fed44a04f777bb1e18ce,64c8011bee3eec4e1c68af25,right,1,0.75,0.2429,16,0.004625485,0.8041,,,,,,122,0,122,0,1,,,,,
,,297991,001,2023-07-31_19h44.44.622,arm3_eps,2022.2.5,Win32,14.99497668,60d1a4da9e47f5d3b3e85a70,64c7fed44a04f777bb1e18ce,64c8011bee3eec4e1c68af25,right,1,0.75,0.2429,16,0.029398794,0.0932,,,,,,123,0,123,0,1,,,,,
,,297991,001,2023-07-31_19h44.44.622,arm3_eps,2022.2.5,Win32,14.99497668,60d1a4da9e47f5d3b3e85a70,64c7fed44a04f777bb1e18ce,64c8011bee3eec4e1c68af25,right,1,0.75,0.2429,16,0.061798228,0.1012,,,,,,124,0,124,0,1,,,,,
,,297991,001,2023-07-31_19h44.44.622,arm3_eps,2022.2.5,Win32,14.99497668,60d1a4da9e47f5d3b3e85a70,64c7fed44a04f777bb1e18ce,64c8011bee3eec4e1c68af25,up,-1,0.75,0.2429,16,0,0.6956,,,,,,125,0,125,0,1,,,,,
,,297991,001,2023-07-31_19h44.44.622,arm3_eps,2022.2.5,Win32,14.99497668,60d1a4da9e47f5d3b3e85a70,64c7fed44a04f777bb1e18ce,64c8011bee3eec4e1c68af25,right,-1,0.75,0.2429,16,0.008911523,0.8006,,,,,,126,0,126,0,1,,,,,
,,297991,001,2023-07-31_19h44.44.622,arm3_eps,2022.2.5,Win32,14.99497668,60d1a4da9e47f5d3b3e85a70,64c7fed44a04f777bb1e18ce,64c8011bee3eec4e1c68af25,right,-1,0.75,0.2429,16,-0.00114652,0.0959,,,,,,127,0,127,0,1,,,,,
,,297991,001,2023-07-31_19h44.44.622,arm3_eps,2022.2.5,Win32,14.99497668,60d1a4da9e47f5d3b3e85a70,64c7fed44a04f777bb1e18ce,64c8011bee3eec4e1c68af25,right,-1,0.75,0.2429,16,-0.02246352,0.0973,,,,,,128,0,128,0,1,,,,,
,,297991,001,2023-07-31_19h44.44.622,arm3_eps,2022.2.5,Win32,14.99497668,60d1a4da9e47f5d3b3e85a70,64c7fed44a04f777bb1e18ce,64c8011bee3eec4e1c68af25,down,1,0.75,0.2429,16,0,0.6198,,,,,,129,0,129,0,1,,,,,
,,297991,001,2023-07-31_19h44.44.622,arm3_eps,2022.2.5,Win32,14.99497668,60d1a4da9e47f5d3b3e85a70,64c7fed44a04f777bb1e18ce,64c8011bee3eec4e1c68af25,right,1,0.75,0.2429,16,0.014089668,0.8824,,,,,,130,0,130,0,1,,,,,
,,297991,001,2023-07-31_19h44.44.622,arm3_eps,2022.2.5,Win32,14.99497668,60d1a4da9e47f5d3b3e85a70,64c7fed44a04f777bb1e18ce,64c8011bee3eec4e1c68af25,right,1,0.75,0.2429,16,0.030244442,0.0906,,,,,,131,0,131,0,1,,,,,
,,297991,001,2023-07-31_19h44.44.622,arm3_eps,2022.2.5,Win32,14.99497668,60d1a4da9e47f5d3b3e85a70,64c7fed44a04f777bb1e18ce,64c8011bee3eec4e1c68af25,right,1,0.75,0.2429,16,0.030169005,0.1032,,,,,,132,0,132,0,1,,,,,
,,297991,001,2023-07-31_19h44.44.622,arm3_eps,2022.2.5,Win32,14.99497668,60d1a4da9e47f5d3b3e85a70,64c7fed44a04f777bb1e18ce,64c8011bee3eec4e1c68af25,right,1,0.75,0.2429,16,0.009005943,0.7151,,,,,,133,0,133,0,1,,,,,
,,297991,001,2023-07-31_19h44.44.622,arm3_eps,2022.2.5,Win32,14.99497668,60d1a4da9e47f5d3b3e85a70,64c7fed44a04f777bb1e18ce,64c8011bee3eec4e1c68af25,right,1,0.75,0.2429,16,0.010064849,0.1836,,,,,,134,0,134,0,1,,,,,
,,297991,001,2023-07-31_19h44.44.622,arm3_eps,2022.2.5,Win32,14.99497668,60d1a4da9e47f5d3b3e85a70,64c7fed44a04f777bb1e18ce,64c8011bee3eec4e1c68af25,right,1,0.75,0.2429,16,0.021956944,0.5291,,,,,,135,0,135,0,1,,,,,
,,297991,001,2023-07-31_19h44.44.622,arm3_eps,2022.2.5,Win32,14.99497668,60d1a4da9e47f5d3b3e85a70,64c7fed44a04f777bb1e18ce,64c8011bee3eec4e1c68af25,up,1,0.75,0.2429,16,0,0.1812,,,,,,136,0,136,0,1,,,,,
,,297991,001,2023-07-31_19h44.44.622,arm3_eps,2022.2.5,Win32,14.99497668,60d1a4da9e47f5d3b3e85a70,64c7fed44a04f777bb1e18ce,64c8011bee3eec4e1c68af25,right,1,0.75,0.2429,16,-0.004602385,0.8068,,,,,,137,0,137,0,1,,,,,
,,297991,001,2023-07-31_19h44.44.622,arm3_eps,2022.2.5,Win32,14.99497668,60d1a4da9e47f5d3b3e85a70,64c7fed44a04f777bb1e18ce,64c8011bee3eec4e1c68af25,right,1,0.75,0.2429,16,-0.005178477,0.1806,,,,,,138,0,138,0,1,,,,,
,,297991,001,2023-07-31_19h44.44.622,arm3_eps,2022.2.5,Win32,14.99497668,60d1a4da9e47f5d3b3e85a70,64c7fed44a04f777bb1e18ce,64c8011bee3eec4e1c68af25,right,1,0.75,0.2429,16,0.017106918,0.0945,,,,,,139,0,139,0,1,,,,,
,,297991,001,2023-07-31_19h44.44.622,arm3_eps,2022.2.5,Win32,14.99497668,60d1a4da9e47f5d3b3e85a70,64c7fed44a04f777bb1e18ce,64c8011bee3eec4e1c68af25,up,1,0.75,0.2429,17,0,0.5372,,,,,,140,0,140,0,1,,,,,
,,297991,001,2023-07-31_19h44.44.622,arm3_eps,2022.2.5,Win32,14.99497668,60d1a4da9e47f5d3b3e85a70,64c7fed44a04f777bb1e18ce,64c8011bee3eec4e1c68af25,right,1,0.75,0.2429,17,-0.008730876,0.7918,,,,,,141,0,141,0,1,,,,,
,,297991,001,2023-07-31_19h44.44.622,arm3_eps,2022.2.5,Win32,14.99497668,60d1a4da9e47f5d3b3e85a70,64c7fed44a04f777bb1e18ce,64c8011bee3eec4e1c68af25,right,1,0.75,0.2429,17,0.008204094,0.0961,,,,,,142,0,142,0,1,,,,,
,,297991,001,2023-07-31_19h44.44.622,arm3_eps,2022.2.5,Win32,14.99497668,60d1a4da9e47f5d3b3e85a70,64c7fed44a04f777bb1e18ce,64c8011bee3eec4e1c68af25,right,1,0.75,0.2429,17,0.000582754,0.0967,,,,,,143,0,143,0,1,,,,,
,,297991,001,2023-07-31_19h44.44.622,arm3_eps,2022.2.5,Win32,14.99497668,60d1a4da9e47f5d3b3e85a70,64c7fed44a04f777bb1e18ce,64c8011bee3eec4e1c68af25,up,1,0.75,0.2429,17,0,0.4511,,,,,,144,0,144,0,1,,,,,
,,297991,001,2023-07-31_19h44.44.622,arm3_eps,2022.2.5,Win32,14.99497668,60d1a4da9e47f5d3b3e85a70,64c7fed44a04f777bb1e18ce,64c8011bee3eec4e1c68af25,right,1,0.75,0.2429,17,0.013677644,0.7857,,,,,,145,0,145,0,1,,,,,
,,297991,001,2023-07-31_19h44.44.622,arm3_eps,2022.2.5,Win32,14.99497668,60d1a4da9e47f5d3b3e85a70,64c7fed44a04f777bb1e18ce,64c8011bee3eec4e1c68af25,right,1,0.75,0.2429,17,0.005026943,0.0969,,,,,,146,0,146,0,1,,,,,
,,297991,001,2023-07-31_19h44.44.622,arm3_eps,2022.2.5,Win32,14.99497668,60d1a4da9e47f5d3b3e85a70,64c7fed44a04f777bb1e18ce,64c8011bee3eec4e1c68af25,up,1,0.75,0.2429,18,0,0.7979,,,,,,147,0,147,0,1,,,,,
,,297991,001,2023-07-31_19h44.44.622,arm3_eps,2022.2.5,Win32,14.99497668,60d1a4da9e47f5d3b3e85a70,64c7fed44a04f777bb1e18ce,64c8011bee3eec4e1c68af25,right,1,0.75,0.2429,18,0.018853777,0.6131,,,,,,148,0,148,0,1,,,,,
,,297991,001,2023-07-31_19h44.44.622,arm3_eps,2022.2.5,Win32,14.99497668,60d1a4da9e47f5d3b3e85a70,64c7fed44a04f777bb1e18ce,64c8011bee3eec4e1c68af25,right,1,0.75,0.2429,18,0.042471807,0.1781,,,,,,149,0,149,0,1,,,,,
,,297991,001,2023-07-31_19h44.44.622,arm3_eps,2022.2.5,Win32,14.99497668,60d1a4da9e47f5d3b3e85a70,64c7fed44a04f777bb1e18ce,64c8011bee3eec4e1c68af25,right,1,0.75,0.2429,18,0.021041145,0.366,,,,,,150,0,150,0,1,,,,,
,,297991,001,2023-07-31_19h44.44.622,arm3_eps,2022.2.5,Win32,14.99497668,60d1a4da9e47f5d3b3e85a70,64c7fed44a04f777bb1e18ce,64c8011bee3eec4e1c68af25,up,1,0.75,0.2429,19,0,0.445,,,,,,151,0,151,0,1,,,,,
,,297991,001,2023-07-31_19h44.44.622,arm3_eps,2022.2.5,Win32,14.99497668,60d1a4da9e47f5d3b3e85a70,64c7fed44a04f777bb1e18ce,64c8011bee3eec4e1c68af25,right,1,0.75,0.2429,19,0.014721096,0.7937,,,,,,152,0,152,0,1,,,,,
,,297991,001,2023-07-31_19h44.44.622,arm3_eps,2022.2.5,Win32,14.99497668,60d1a4da9e47f5d3b3e85a70,64c7fed44a04f777bb1e18ce,64c8011bee3eec4e1c68af25,right,1,0.75,0.2429,19,0.018524881,0.0923,,,,,,153,0,153,0,1,,,,,
,,297991,001,2023-07-31_19h44.44.622,arm3_eps,2022.2.5,Win32,14.99497668,60d1a4da9e47f5d3b3e85a70,64c7fed44a04f777bb1e18ce,64c8011bee3eec4e1c68af25,right,1,0.75,0.2429,19,0.039609144,0.1022,,,,,,154,0,154,0,1,,,,,
,,297991,001,2023-07-31_19h44.44.622,arm3_eps,2022.2.5,Win32,14.99497668,60d1a4da9e47f5d3b3e85a70,64c7fed44a04f777bb1e18ce,64c8011bee3eec4e1c68af25,up,1,0.75,0.2429,20,0,0.3636,,,,,,155,0,155,0,1,,,,,
,,297991,001,2023-07-31_19h44.44.622,arm3_eps,2022.2.5,Win32,14.99497668,60d1a4da9e47f5d3b3e85a70,64c7fed44a04f777bb1e18ce,64c8011bee3eec4e1c68af25,right,1,0.75,0.2429,20,0.004775835,0.7688,,,,,,156,0,156,0,1,,,,,
,,297991,001,2023-07-31_19h44.44.622,arm3_eps,2022.2.5,Win32,14.99497668,60d1a4da9e47f5d3b3e85a70,64c7fed44a04f777bb1e18ce,64c8011bee3eec4e1c68af25,right,1,0.75,0.2429,20,0.016933046,0.094,,,,,,157,0,157,0,1,,,,,
,,297991,001,2023-07-31_19h44.44.622,arm3_eps,2022.2.5,Win32,14.99497668,60d1a4da9e47f5d3b3e85a70,64c7fed44a04f777bb1e18ce,64c8011bee3eec4e1c68af25,right,1,0.75,0.2429,20,0.015358217,0.0984,,,,,,158,0,158,0,1,,,,,
,,297991,001,2023-07-31_19h44.44.622,arm3_eps,2022.2.5,Win32,14.99497668,60d1a4da9e47f5d3b3e85a70,64c7fed44a04f777bb1e18ce,64c8011bee3eec4e1c68af25,up,1,0.75,0.2429,21,0,0.3683,,,,,,159,0,159,0,1,,,,,
,,297991,001,2023-07-31_19h44.44.622,arm3_eps,2022.2.5,Win32,14.99497668,60d1a4da9e47f5d3b3e85a70,64c7fed44a04f777bb1e18ce,64c8011bee3eec4e1c68af25,right,1,0.75,0.2429,21,-0.009115708,0.7925,,,,,,160,0,160,0,1,,,,,
,,297991,001,2023-07-31_19h44.44.622,arm3_eps,2022.2.5,Win32,14.99497668,60d1a4da9e47f5d3b3e85a70,64c7fed44a04f777bb1e18ce,64c8011bee3eec4e1c68af25,right,1,0.75,0.2429,21,-0.032939542,0.1009,,,,,,161,0,161,0,1,,,,,
,,297991,001,2023-07-31_19h44.44.622,arm3_eps,2022.2.5,Win32,14.99497668,60d1a4da9e47f5d3b3e85a70,64c7fed44a04f777bb1e18ce,64c8011bee3eec4e1c68af25,right,1,0.75,0.2429,21,-0.036225063,0.0963,,,,,,162,0,162,0,1,,,,,
,,297991,001,2023-07-31_19h44.44.622,arm3_eps,2022.2.5,Win32,14.99497668,60d1a4da9e47f5d3b3e85a70,64c7fed44a04f777bb1e18ce,64c8011bee3eec4e1c68af25,down,1,0.75,0.2429,21,0,0.3543,,,,,,163,0,163,0,1,,,,,
,,297991,001,2023-07-31_19h44.44.622,arm3_eps,2022.2.5,Win32,14.99497668,60d1a4da9e47f5d3b3e85a70,64c7fed44a04f777bb1e18ce,64c8011bee3eec4e1c68af25,right,1,0.75,0.2429,21,0.025637402,0.8084,,,,,,164,0,164,0,1,,,,,
,,297991,001,2023-07-31_19h44.44.622,arm3_eps,2022.2.5,Win32,14.99497668,60d1a4da9e47f5d3b3e85a70,64c7fed44a04f777bb1e18ce,64c8011bee3eec4e1c68af25,right,1,0.75,0.2429,21,0.045887256,0.1039,,,,,,165,0,165,0,1,,,,,
,,297991,001,2023-07-31_19h44.44.622,arm3_eps,2022.2.5,Win32,14.99497668,60d1a4da9e47f5d3b3e85a70,64c7fed44a04f777bb1e18ce,64c8011bee3eec4e1c68af25,right,1,0.75,0.2429,21,0.048378794,0.0963,,,,,,166,0,166,0,1,,,,,
,,297991,001,2023-07-31_19h44.44.622,arm3_eps,2022.2.5,Win32,14.99497668,60d1a4da9e47f5d3b3e85a70,64c7fed44a04f777bb1e18ce,64c8011bee3eec4e1c68af25,up,1,0.75,0.2429,22,0,0.284,,,,,,167,0,167,0,1,,,,,
,,297991,001,2023-07-31_19h44.44.622,arm3_eps,2022.2.5,Win32,14.99497668,60d1a4da9e47f5d3b3e85a70,64c7fed44a04f777bb1e18ce,64c8011bee3eec4e1c68af25,right,1,0.75,0.2429,22,0.012459569,0.7001,,,,,,168,0,168,0,1,,,,,
,,297991,001,2023-07-31_19h44.44.622,arm3_eps,2022.2.5,Win32,14.99497668,60d1a4da9e47f5d3b3e85a70,64c7fed44a04f777bb1e18ce,64c8011bee3eec4e1c68af25,right,1,0.75,0.2429,22,0.058011764,0.0963,,,,,,169,0,169,0,1,,,,,
,,297991,001,2023-07-31_19h44.44.622,arm3_eps,2022.2.5,Win32,14.99497668,60d1a4da9e47f5d3b3e85a70,64c7fed44a04f777bb1e18ce,64c8011bee3eec4e1c68af25,right,1,0.75,0.2429,22,0.097373199,0.0959,,,,,,170,0,170,0,1,,,,,
,,297991,001,2023-07-31_19h44.44.622,arm3_eps,2022.2.5,Win32,14.99497668,60d1a4da9e47f5d3b3e85a70,64c7fed44a04f777bb1e18ce,64c8011bee3eec4e1c68af25,up,1,0.75,0.2429,23,0,0.2012,,,,,,171,0,171,0,1,,,,,
,,297991,001,2023-07-31_19h44.44.622,arm3_eps,2022.2.5,Win32,14.99497668,60d1a4da9e47f5d3b3e85a70,64c7fed44a04f777bb1e18ce,64c8011bee3eec4e1c68af25,right,1,0.75,0.2429,23,-0.032502402,0.6318,,,,,,172,0,172,0,1,,,,,
,,297991,001,2023-07-31_19h44.44.622,arm3_eps,2022.2.5,Win32,14.99497668,60d1a4da9e47f5d3b3e85a70,64c7fed44a04f777bb1e18ce,64c8011bee3eec4e1c68af25,right,1,0.75,0.2429,23,-0.017212712,0.1841,,,,,,173,0,173,0,1,,,,,
,,297991,001,2023-07-31_19h44.44.622,arm3_eps,2022.2.5,Win32,14.99497668,60d1a4da9e47f5d3b3e85a70,64c7fed44a04f777bb1e18ce,64c8011bee3eec4e1c68af25,right,1,0.75,0.2429,23,-0.017611821,0.0976,,,,,,174,0,174,0,1,,,,,
,,297991,001,2023-07-31_19h44.44.622,arm3_eps,2022.2.5,Win32,14.99497668,60d1a4da9e47f5d3b3e85a70,64c7fed44a04f777bb1e18ce,64c8011bee3eec4e1c68af25,down,1,0.75,0.2429,22,0,0.365,,,,,,175,0,175,0,1,,,,,
,,297991,001,2023-07-31_19h44.44.622,arm3_eps,2022.2.5,Win32,14.99497668,60d1a4da9e47f5d3b3e85a70,64c7fed44a04f777bb1e18ce,64c8011bee3eec4e1c68af25,right,1,0.75,0.2429,22,0.028056053,0.6155,,,,,,176,0,176,0,1,,,,,
,,297991,001,2023-07-31_19h44.44.622,arm3_eps,2022.2.5,Win32,14.99497668,60d1a4da9e47f5d3b3e85a70,64c7fed44a04f777bb1e18ce,64c8011bee3eec4e1c68af25,right,1,0.75,0.2429,22,-0.001627794,0.0963,,,,,,177,0,177,0,1,,,,,
,,297991,001,2023-07-31_19h44.44.622,arm3_eps,2022.2.5,Win32,14.99497668,60d1a4da9e47f5d3b3e85a70,64c7fed44a04f777bb1e18ce,64c8011bee3eec4e1c68af25,right,1,0.75,0.2429,22,-0.013963965,0.0942,,,,,,178,0,178,0,1,,,,,
,,297991,001,2023-07-31_19h44.44.622,arm3_eps,2022.2.5,Win32,14.99497668,60d1a4da9e47f5d3b3e85a70,64c7fed44a04f777bb1e18ce,64c8011bee3eec4e1c68af25,down,1,0.75,0.2429,21,0,0.6252,,,,,,179,0,179,0,1,,,,,
,,297991,001,2023-07-31_19h44.44.622,arm3_eps,2022.2.5,Win32,14.99497668,60d1a4da9e47f5d3b3e85a70,64c7fed44a04f777bb1e18ce,64c8011bee3eec4e1c68af25,right,1,0.75,0.2429,21,0.001986935,0.6065,,,,,,180,0,180,0,1,,,,,
,,297991,001,2023-07-31_19h44.44.622,arm3_eps,2022.2.5,Win32,14.99497668,60d1a4da9e47f5d3b3e85a70,64c7fed44a04f777bb1e18ce,64c8011bee3eec4e1c68af25,right,1,0.75,0.2429,21,0.03792894,0.1007,,,,,,181,0,181,0,1,,,,,
,,297991,001,2023-07-31_19h44.44.622,arm3_eps,2022.2.5,Win32,14.99497668,60d1a4da9e47f5d3b3e85a70,64c7fed44a04f777bb1e18ce,64c8011bee3eec4e1c68af25,right,1,0.75,0.2429,21,0.031471666,0.0973,,,,,,182,0,182,0,1,,,,,
,,297991,001,2023-07-31_19h44.44.622,arm3_eps,2022.2.5,Win32,14.99497668,60d1a4da9e47f5d3b3e85a70,64c7fed44a04f777bb1e18ce,64c8011bee3eec4e1c68af25,right,1,0.75,0.2429,21,0.056655803,0.1864,,,,,,183,0,183,0,1,,,,,
,,297991,001,2023-07-31_19h44.44.622,arm3_eps,2022.2.5,Win32,14.99497668,60d1a4da9e47f5d3b3e85a70,64c7fed44a04f777bb1e18ce,64c8011bee3eec4e1c68af25,up,1,0.75,0.2429,21,0,0.1911,,,,,,184,0,184,0,1,,,,,
,,297991,001,2023-07-31_19h44.44.622,arm3_eps,2022.2.5,Win32,14.99497668,60d1a4da9e47f5d3b3e85a70,64c7fed44a04f777bb1e18ce,64c8011bee3eec4e1c68af25,right,1,0.75,0.2429,21,-0.001645124,0.609,,,,,,185,0,185,0,1,,,,,
,,297991,001,2023-07-31_19h44.44.622,arm3_eps,2022.2.5,Win32,14.99497668,60d1a4da9e47f5d3b3e85a70,64c7fed44a04f777bb1e18ce,64c8011bee3eec4e1c68af25,right,1,0.75,0.2429,21,0.003297987,0.2129,,,,,,186,0,186,0,1,,,,,
,,297991,001,2023-07-31_19h44.44.622,arm3_eps,2022.2.5,Win32,14.99497668,60d1a4da9e47f5d3b3e85a70,64c7fed44a04f777bb1e18ce,64c8011bee3eec4e1c68af25,right,1,0.75,0.2429,21,0.050342083,0.0948,,,,,,187,0,187,0,1,,,,,
,,297991,001,2023-07-31_19h44.44.622,arm3_eps,2022.2.5,Win32,14.99497668,60d1a4da9e47f5d3b3e85a70,64c7fed44a04f777bb1e18ce,64c8011bee3eec4e1c68af25,up,1,0.75,0.2429,21,0,0.181,,,,,,188,0,188,0,1,,,,,
,,297991,001,2023-07-31_19h44.44.622,arm3_eps,2022.2.5,Win32,14.99497668,60d1a4da9e47f5d3b3e85a70,64c7fed44a04f777bb1e18ce,64c8011bee3eec4e1c68af25,right,1,0.75,0.2429,21,0.01865089,0.6287,,,,,,189,0,189,0,1,,,,,
,,297991,001,2023-07-31_19h44.44.622,arm3_eps,2022.2.5,Win32,14.99497668,60d1a4da9e47f5d3b3e85a70,64c7fed44a04f777bb1e18ce,64c8011bee3eec4e1c68af25,right,1,0.75,0.2429,21,0.011161236,0.0934,,,,,,190,0,190,0,1,,,,,
,,297991,001,2023-07-31_19h44.44.622,arm3_eps,2022.2.5,Win32,14.99497668,60d1a4da9e47f5d3b3e85a70,64c7fed44a04f777bb1e18ce,64c8011bee3eec4e1c68af25,right,1,0.75,0.2429,21,0.031040287,0.0933,,,,,,191,0,191,0,1,,,,,
,,297991,001,2023-07-31_19h44.44.622,arm3_eps,2022.2.5,Win32,14.99497668,60d1a4da9e47f5d3b3e85a70,64c7fed44a04f777bb1e18ce,64c8011bee3eec4e1c68af25,up,1,0.75,0.2429,21,0,0.2623,,,,,,192,0,192,0,1,,,,,
,,297991,001,2023-07-31_19h44.44.622,arm3_eps,2022.2.5,Win32,14.99497668,60d1a4da9e47f5d3b3e85a70,64c7fed44a04f777bb1e18ce,64c8011bee3eec4e1c68af25,right,1,0.75,0.2429,21,0.013047089,0.6359,,,,,,193,0,193,0,1,,,,,
,,297991,001,2023-07-31_19h44.44.622,arm3_eps,2022.2.5,Win32,14.99497668,60d1a4da9e47f5d3b3e85a70,64c7fed44a04f777bb1e18ce,64c8011bee3eec4e1c68af25,right,1,0.75,0.2429,21,0.017400641,0.0945,,,,,,194,0,194,0,1,,,,,
,,297991,001,2023-07-31_19h44.44.622,arm3_eps,2022.2.5,Win32,14.99497668,60d1a4da9e47f5d3b3e85a70,64c7fed44a04f777bb1e18ce,64c8011bee3eec4e1c68af25,right,1,0.75,0.2429,21,0.011309869,0.0976,,,,,,195,0,195,0,1,,,,,
,,297991,001,2023-07-31_19h44.44.622,arm3_eps,2022.2.5,Win32,14.99497668,60d1a4da9e47f5d3b3e85a70,64c7fed44a04f777bb1e18ce,64c8011bee3eec4e1c68af25,up,-1,0.75,0.2429,22,0,0.1841,,,,,,196,0,196,0,1,,,,,
,,297991,001,2023-07-31_19h44.44.622,arm3_eps,2022.2.5,Win32,14.99497668,60d1a4da9e47f5d3b3e85a70,64c7fed44a04f777bb1e18ce,64c8011bee3eec4e1c68af25,right,-1,0.75,0.2429,22,-0.014962066,0.8081,,,,,,197,0,197,0,1,,,,,
,,297991,001,2023-07-31_19h44.44.622,arm3_eps,2022.2.5,Win32,14.99497668,60d1a4da9e47f5d3b3e85a70,64c7fed44a04f777bb1e18ce,64c8011bee3eec4e1c68af25,right,-1,0.75,0.2429,22,-0.041165991,0.0992,,,,,,198,0,198,0,1,,,,,
,,297991,001,2023-07-31_19h44.44.622,arm3_eps,2022.2.5,Win32,14.99497668,60d1a4da9e47f5d3b3e85a70,64c7fed44a04f777bb1e18ce,64c8011bee3eec4e1c68af25,right,-1,0.75,0.2429,22,-0.05841457,0.1859,,,,,,199,0,199,0,1,,,,,
,,297991,001,2023-07-31_19h44.44.622,arm3_eps,2022.2.5,Win32,14.99497668,60d1a4da9e47f5d3b3e85a70,64c7fed44a04f777bb1e18ce,64c8011bee3eec4e1c68af25,down,-1,0.75,0.2429,22,0,0.1856,,,,,,200,0,200,0,1,,,,,
,,297991,001,2023-07-31_19h44.44.622,arm3_eps,2022.2.5,Win32,14.99497668,60d1a4da9e47f5d3b3e85a70,64c7fed44a04f777bb1e18ce,64c8011bee3eec4e1c68af25,right,-1,0.75,0.2429,22,-0.017758987,0.7968,,,,,,201,0,201,0,1,,,,,
,,297991,001,2023-07-31_19h44.44.622,arm3_eps,2022.2.5,Win32,14.99497668,60d1a4da9e47f5d3b3e85a70,64c7fed44a04f777bb1e18ce,64c8011bee3eec4e1c68af25,right,-1,0.75,0.2429,22,-0.014131891,0.1866,,,,,,202,0,202,0,1,,,,,
,,297991,001,2023-07-31_19h44.44.622,arm3_eps,2022.2.5,Win32,14.99497668,60d1a4da9e47f5d3b3e85a70,64c7fed44a04f777bb1e18ce,64c8011bee3eec4e1c68af25,right,-1,0.75,0.2429,22,-0.05618617,0.1037,,,,,,203,0,203,0,1,,,,,
,,297991,001,2023-07-31_19h44.44.622,arm3_eps,2022.2.5,Win32,14.99497668,60d1a4da9e47f5d3b3e85a70,64c7fed44a04f777bb1e18ce,64c8011bee3eec4e1c68af25,down,-1,0.75,0.2429,23,0,0.194,,,,,,204,0,204,0,1,,,,,
,,297991,001,2023-07-31_19h44.44.622,arm3_eps,2022.2.5,Win32,14.99497668,60d1a4da9e47f5d3b3e85a70,64c7fed44a04f777bb1e18ce,64c8011bee3eec4e1c68af25,right,-1,0.75,0.2429,23,-0.02755905,0.8214,,,,,,205,0,205,0,1,,,,,
,,297991,001,2023-07-31_19h44.44.622,arm3_eps,2022.2.5,Win32,14.99497668,60d1a4da9e47f5d3b3e85a70,64c7fed44a04f777bb1e18ce,64c8011bee3eec4e1c68af25,right,-1,0.75,0.2429,23,-0.033828251,0.1104,,,,,,206,0,206,0,1,,,,,
,,297991,001,2023-07-31_19h44.44.622,arm3_eps,2022.2.5,Win32,14.99497668,60d1a4da9e47f5d3b3e85a70,64c7fed44a04f777bb1e18ce,64c8011bee3eec4e1c68af25,right,-1,0.75,0.2429,23,-0.053897751,0.1894,,,,,,207,0,207,0,1,,,,,
,,297991,001,2023-07-31_19h44.44.622,arm3_eps,2022.2.5,Win32,14.99497668,60d1a4da9e47f5d3b3e85a70,64c7fed44a04f777bb1e18ce,64c8011bee3eec4e1c68af25,down,-1,0.75,0.2429,24,0,0.0974,,,,,,208,0,208,0,1,,,,,
,,297991,001,2023-07-31_19h44.44.622,arm3_eps,2022.2.5,Win32,14.99497668,60d1a4da9e47f5d3b3e85a70,64c7fed44a04f777bb1e18ce,64c8011bee3eec4e1c68af25,right,-1,0.75,0.2429,24,-0.024904272,0.6337,,,,,,209,0,209,0,1,,,,,
,,297991,001,2023-07-31_19h44.44.622,arm3_eps,2022.2.5,Win32,14.99497668,60d1a4da9e47f5d3b3e85a70,64c7fed44a04f777bb1e18ce,64c8011bee3eec4e1c68af25,right,-1,0.75,0.2429,24,-0.001135348,0.1809,,,,,,210,0,210,0,1,,,,,
,,297991,001,2023-07-31_19h44.44.622,arm3_eps,2022.2.5,Win32,14.99497668,60d1a4da9e47f5d3b3e85a70,64c7fed44a04f777bb1e18ce,64c8011bee3eec4e1c68af25,right,-1,0.75,0.2429,24,0.00992984,0.0956,,,,,,211,0,211,0,1,,,,,
,,297991,001,2023-07-31_19h44.44.622,arm3_eps,2022.2.5,Win32,14.99497668,60d1a4da9e47f5d3b3e85a70,64c7fed44a04f777bb1e18ce,64c8011bee3eec4e1c68af25,right,-1,0.75,0.2429,24,0.003572167,0.0989,,,,,,212,0,212,0,1,,,,,
,,297991,001,2023-07-31_19h44.44.622,arm3_eps,2022.2.5,Win32,14.99497668,60d1a4da9e47f5d3b3e85a70,64c7fed44a04f777bb1e18ce,64c8011bee3eec4e1c68af25,right,-1,0.75,0.2429,24,-0.040629974,0.1927,,,,,,213,0,213,0,1,,,,,
,,297991,001,2023-07-31_19h44.44.622,arm3_eps,2022.2.5,Win32,14.99497668,60d1a4da9e47f5d3b3e85a70,64c7fed44a04f777bb1e18ce,64c8011bee3eec4e1c68af25,down,-1,0.75,0.2429,25,0,0.3653,,,,,,214,0,214,0,1,,,,,
,,297991,001,2023-07-31_19h44.44.622,arm3_eps,2022.2.5,Win32,14.99497668,60d1a4da9e47f5d3b3e85a70,64c7fed44a04f777bb1e18ce,64c8011bee3eec4e1c68af25,right,-1,0.75,0.2429,25,0.003000707,0.6257,,,,,,215,0,215,0,1,,,,,
,,297991,001,2023-07-31_19h44.44.622,arm3_eps,2022.2.5,Win32,14.99497668,60d1a4da9e47f5d3b3e85a70,64c7fed44a04f777bb1e18ce,64c8011bee3eec4e1c68af25,right,-1,0.75,0.2429,25,0.018396403,0.0947,,,,,,216,0,216,0,1,,,,,
,,297991,001,2023-07-31_19h44.44.622,arm3_eps,2022.2.5,Win32,14.99497668,60d1a4da9e47f5d3b3e85a70,64c7fed44a04f777bb1e18ce,64c8011bee3eec4e1c68af25,right,-1,0.75,0.2429,25,0.002916839,0.1946,,,,,,217,0,217,0,1,,,,,
,,297991,001,2023-07-31_19h44.44.622,arm3_eps,2022.2.5,Win32,14.99497668,60d1a4da9e47f5d3b3e85a70,64c7fed44a04f777bb1e18ce,64c8011bee3eec4e1c68af25,right,-1,0.75,0.2429,25,-0.000816057,0.0986,,,,,,218,0,218,0,1,,,,,
,,297991,001,2023-07-31_19h44.44.622,arm3_eps,2022.2.5,Win32,14.99497668,60d1a4da9e47f5d3b3e85a70,64c7fed44a04f777bb1e18ce,64c8011bee3eec4e1c68af25,right,-1,0.75,0.2429,25,-0.01389592,0.2752,,,,,,219,0,219,0,1,,,,,
,,297991,001,2023-07-31_19h44.44.622,arm3_eps,2022.2.5,Win32,14.99497668,60d1a4da9e47f5d3b3e85a70,64c7fed44a04f777bb1e18ce,64c8011bee3eec4e1c68af25,down,-1,0.75,0.2429,26,0,0.1821,,,,,,220,0,220,0,1,,,,,
,,297991,001,2023-07-31_19h44.44.622,arm3_eps,2022.2.5,Win32,14.99497668,60d1a4da9e47f5d3b3e85a70,64c7fed44a04f777bb1e18ce,64c8011bee3eec4e1c68af25,right,-1,0.75,0.2429,26,-0.030015437,0.6951,,,,,,221,0,221,0,1,,,,,
,,297991,001,2023-07-31_19h44.44.622,arm3_eps,2022.2.5,Win32,14.99497668,60d1a4da9e47f5d3b3e85a70,64c7fed44a04f777bb1e18ce,64c8011bee3eec4e1c68af25,right,-1,0.75,0.2429,26,-0.040318112,0.0946,,,,,,222,0,222,0,1,,,,,
,,297991,001,2023-07-31_19h44.44.622,arm3_eps,2022.2.5,Win32,14.99497668,60d1a4da9e47f5d3b3e85a70,64c7fed44a04f777bb1e18ce,64c8011bee3eec4e1c68af25,right,-1,0.75,0.2429,26,-0.034027736,0.1821,,,,,,223,0,223,0,1,,,,,
,,297991,001,2023-07-31_19h44.44.622,arm3_eps,2022.2.5,Win32,14.99497668,60d1a4da9e47f5d3b3e85a70,64c7fed44a04f777bb1e18ce,64c8011bee3eec4e1c68af25,down,-1,0.75,0.2429,27,0,0.6283,,,,,,224,0,224,0,1,,,,,
,,297991,001,2023-07-31_19h44.44.622,arm3_eps,2022.2.5,Win32,14.99497668,60d1a4da9e47f5d3b3e85a70,64c7fed44a04f777bb1e18ce,64c8011bee3eec4e1c68af25,right,-1,0.75,0.2429,27,-0.022769005,0.6121,,,,,,225,0,225,0,1,,,,,
,,297991,001,2023-07-31_19h44.44.622,arm3_eps,2022.2.5,Win32,14.99497668,60d1a4da9e47f5d3b3e85a70,64c7fed44a04f777bb1e18ce,64c8011bee3eec4e1c68af25,right,-1,0.75,0.2429,27,-0.023022231,0.0977,,,,,,226,0,226,0,1,,,,,
,,297991,001,2023-07-31_19h44.44.622,arm3_eps,2022.2.5,Win32,14.99497668,60d1a4da9e47f5d3b3e85a70,64c7fed44a04f777bb1e18ce,64c8011bee3eec4e1c68af25,right,-1,0.75,0.2429,27,-0.022408041,0.1011,,,,,,227,0,227,0,1,,,,,
,,297991,001,2023-07-31_19h44.44.622,arm3_eps,2022.2.5,Win32,14.99497668,60d1a4da9e47f5d3b3e85a70,64c7fed44a04f777bb1e18ce,64c8011bee3eec4e1c68af25,down,-1,0.75,0.2429,28,0,0.4426,,,,,,228,0,228,0,1,,,,,
,,297991,001,2023-07-31_19h44.44.622,arm3_eps,2022.2.5,Win32,14.99497668,60d1a4da9e47f5d3b3e85a70,64c7fed44a04f777bb1e18ce,64c8011bee3eec4e1c68af25,right,-1,0.75,0.2429,28,0.017706033,0.6042,,,,,,229,0,229,0,1,,,,,
,,297991,001,2023-07-31_19h44.44.622,arm3_eps,2022.2.5,Win32,14.99497668,60d1a4da9e47f5d3b3e85a70,64c7fed44a04f777bb1e18ce,64c8011bee3eec4e1c68af25,right,-1,0.75,0.2429,28,0.020784036,0.1815,,,,,,230,0,230,0,1,,,,,
,,297991,001,2023-07-31_19h44.44.622,arm3_eps,2022.2.5,Win32,14.99497668,60d1a4da9e47f5d3b3e85a70,64c7fed44a04f777bb1e18ce,64c8011bee3eec4e1c68af25,right,-1,0.75,0.2429,28,-0.001422631,0.0942,,,,,,231,0,231,0,1,,,,,
,,297991,001,2023-07-31_19h44.44.622,arm3_eps,2022.2.5,Win32,14.99497668,60d1a4da9e47f5d3b3e85a70,64c7fed44a04f777bb1e18ce,64c8011bee3eec4e1c68af25,right,-1,0.75,0.2429,28,-0.022441438,0.5414,,,,,,232,0,232,0,1,,,,,
,,297991,001,2023-07-31_19h44.44.622,arm3_eps,2022.2.5,Win32,14.99497668,60d1a4da9e47f5d3b3e85a70,64c7fed44a04f777bb1e18ce,64c8011bee3eec4e1c68af25,down,-1,0.75,0.2429,29,0,0.1827,,,,,,233,0,233,0,1,,,,,
,,297991,001,2023-07-31_19h44.44.622,arm3_eps,2022.2.5,Win32,14.99497668,60d1a4da9e47f5d3b3e85a70,64c7fed44a04f777bb1e18ce,64c8011bee3eec4e1c68af25,right,-1,0.75,0.2429,29,0.007394166,0.6095,,,,,,234,0,234,0,1,,,,,
,,297991,001,2023-07-31_19h44.44.622,arm3_eps,2022.2.5,Win32,14.99497668,60d1a4da9e47f5d3b3e85a70,64c7fed44a04f777bb1e18ce,64c8011bee3eec4e1c68af25,right,-1,0.75,0.2429,29,0.015589584,0.1877,,,,,,235,0,235,0,1,,,,,
,,297991,001,2023-07-31_19h44.44.622,arm3_eps,2022.2.5,Win32,14.99497668,60d1a4da9e47f5d3b3e85a70,64c7fed44a04f777bb1e18ce,64c8011bee3eec4e1c68af25,right,-1,0.75,0.2429,29,0.007881948,0.0941,,,,,,236,0,236,0,1,,,,,
,,297991,001,2023-07-31_19h44.44.622,arm3_eps,2022.2.5,Win32,14.99497668,60d1a4da9e47f5d3b3e85a70,64c7fed44a04f777bb1e18ce,64c8011bee3eec4e1c68af25,down,1,0.75,0.2429,29,0,0.3585,,,,,,237,0,237,0,1,,,,,
,,297991,001,2023-07-31_19h44.44.622,arm3_eps,2022.2.5,Win32,14.99497668,60d1a4da9e47f5d3b3e85a70,64c7fed44a04f777bb1e18ce,64c8011bee3eec4e1c68af25,right,1,0.75,0.2429,29,0.011972958,0.6952,,,,,,238,0,238,0,1,,,,,
,,297991,001,2023-07-31_19h44.44.622,arm3_eps,2022.2.5,Win32,14.99497668,60d1a4da9e47f5d3b3e85a70,64c7fed44a04f777bb1e18ce,64c8011bee3eec4e1c68af25,right,1,0.75,0.2429,29,-0.019733203,0.1949,,,,,,239,0,239,0,1,,,,,
,,297991,001,2023-07-31_19h44.44.622,arm3_eps,2022.2.5,Win32,14.99497668,60d1a4da9e47f5d3b3e85a70,64c7fed44a04f777bb1e18ce,64c8011bee3eec4e1c68af25,right,1,0.75,0.2429,29,-0.016660437,0.0106,,,,,,240,0,240,0,1,,,,,
,,297991,001,2023-07-31_19h44.44.622,arm3_eps,2022.2.5,Win32,14.99497668,60d1a4da9e47f5d3b3e85a70,64c7fed44a04f777bb1e18ce,64c8011bee3eec4e1c68af25,up,-1,0.75,0.2429,30,0,0.3728,,,,,,241,0,241,0,1,,,,,
,,297991,001,2023-07-31_19h44.44.622,arm3_eps,2022.2.5,Win32,14.99497668,60d1a4da9e47f5d3b3e85a70,64c7fed44a04f777bb1e18ce,64c8011bee3eec4e1c68af25,right,-1,0.75,0.2429,30,-0.020345706,0.7155,,,,,,242,0,242,0,1,,,,,
,,297991,001,2023-07-31_19h44.44.622,arm3_eps,2022.2.5,Win32,14.99497668,60d1a4da9e47f5d3b3e85a70,64c7fed44a04f777bb1e18ce,64c8011bee3eec4e1c68af25,right,-1,0.75,0.2429,30,-0.048902507,0.0982,,,,,,243,0,243,0,1,,,,,
,,297991,001,2023-07-31_19h44.44.622,arm3_eps,2022.2.5,Win32,14.99497668,60d1a4da9e47f5d3b3e85a70,64c7fed44a04f777bb1e18ce,64c8011bee3eec4e1c68af25,right,-1,0.75,0.2429,30,-0.073858754,0.0937,,,,,,244,0,244,0,1,,,,,
,,297991,001,2023-07-31_19h44.44.622,arm3_eps,2022.2.5,Win32,14.99497668,60d1a4da9e47f5d3b3e85a70,64c7fed44a04f777bb1e18ce,64c8011bee3eec4e1c68af25,down,-1,0.75,0.2429,31,0,0.2862,,,,,,245,0,245,0,1,,,,,
,,297991,001,2023-07-31_19h44.44.622,arm3_eps,2022.2.5,Win32,14.99497668,60d1a4da9e47f5d3b3e85a70,64c7fed44a04f777bb1e18ce,64c8011bee3eec4e1c68af25,right,-1,0.75,0.2429,31,0.011315775,0.8051,,,,,,246,0,246,0,1,,,,,
,,297991,001,2023-07-31_19h44.44.622,arm3_eps,2022.2.5,Win32,14.99497668,60d1a4da9e47f5d3b3e85a70,64c7fed44a04f777bb1e18ce,64c8011bee3eec4e1c68af25,right,-1,0.75,0.2429,31,0.001209926,0.1001,,,,,,247,0,247,0,1,,,,,
,,297991,001,2023-07-31_19h44.44.622,arm3_eps,2022.2.5,Win32,14.99497668,60d1a4da9e47f5d3b3e85a70,64c7fed44a04f777bb1e18ce,64c8011bee3eec4e1c68af25,right,-1,0.75,0.2429,31,0.00600147,0.0982,,,,,,248,0,248,0,1,,,,,
,,297991,001,2023-07-31_19h44.44.622,arm3_eps,2022.2.5,Win32,14.99497668,60d1a4da9e47f5d3b3e85a70,64c7fed44a04f777bb1e18ce,64c8011bee3eec4e1c68af25,right,-1,0.75,0.2429,31,-0.01170804,0.0973,,,,,,249,0,249,0,1,,,,,
,,297991,001,2023-07-31_19h44.44.622,arm3_eps,2022.2.5,Win32,14.99497668,60d1a4da9e47f5d3b3e85a70,64c7fed44a04f777bb1e18ce,64c8011bee3eec4e1c68af25,down,-1,0.75,0.2429,31,0,0.3538,,,,,,250,0,250,0,1,,,,,
,,297991,001,2023-07-31_19h44.44.622,arm3_eps,2022.2.5,Win32,14.99497668,60d1a4da9e47f5d3b3e85a70,64c7fed44a04f777bb1e18ce,64c8011bee3eec4e1c68af25,right,-1,0.75,0.2429,31,-0.03838466,0.622,,,,,,251,0,251,0,1,,,,,
,,297991,001,2023-07-31_19h44.44.622,arm3_eps,2022.2.5,Win32,14.99497668,60d1a4da9e47f5d3b3e85a70,64c7fed44a04f777bb1e18ce,64c8011bee3eec4e1c68af25,right,-1,0.75,0.2429,31,-0.03322399,0.0964,,,,,,252,0,252,0,1,,,,,
,,297991,001,2023-07-31_19h44.44.622,arm3_eps,2022.2.5,Win32,14.99497668,60d1a4da9e47f5d3b3e85a70,64c7fed44a04f777bb1e18ce,64c8011bee3eec4e1c68af25,right,-1,0.75,0.2429,31,-0.068540025,0.0993,,,,,,253,0,253,0,1,,,,,
,,297991,001,2023-07-31_19h44.44.622,arm3_eps,2022.2.5,Win32,14.99497668,60d1a4da9e47f5d3b3e85a70,64c7fed44a04f777bb1e18ce,64c8011bee3eec4e1c68af25,right,-1,0.75,0.2429,31,-0.065814768,0.094,,,,,,254,0,254,0,1,,,,,
,,297991,001,2023-07-31_19h44.44.622,arm3_eps,2022.2.5,Win32,14.99497668,60d1a4da9e47f5d3b3e85a70,64c7fed44a04f777bb1e18ce,64c8011bee3eec4e1c68af25,down,-1,0.75,0.2429,32,0,0.1818,,,,,,255,0,255,0,1,,,,,
,,297991,001,2023-07-31_19h44.44.622,arm3_eps,2022.2.5,Win32,14.99497668,60d1a4da9e47f5d3b3e85a70,64c7fed44a04f777bb1e18ce,64c8011bee3eec4e1c68af25,right,-1,0.75,0.2429,32,-0.003333768,0.7102,,,,,,256,0,256,0,1,,,,,
