space_bar.keys,space_bar.rt,participant,session,date,expName,psychopyVersion,OS,frameRate,PROLIFIC_PID,STUDY_ID,SESSION_ID,resp.keys,state,q_prob,eps_prob,score,price,resp.rt,train.thisRepN,train.thisTrialN,train.thisN,train.thisIndex,train.ran,steps.thisRepN,steps.thisTrialN,steps.thisN,steps.thisIndex,steps.ran,blocks.thisRepN,blocks.thisTrialN,blocks.thisN,blocks.thisIndex,blocks.ran
space,13.5,299977,001,2023-07-31_21h04.51.851,arm3_eps,2022.2.5,Win32,59.95203837,60a2bf8caed2e8c3b108588b,64c7fed44a04f777bb1e18ce,64c80154548c6b5d0d21eaf5,,,,,,,,,,,,,,,,,,,,,,
space,10.653,299977,001,2023-07-31_21h04.51.851,arm3_eps,2022.2.5,Win32,59.95203837,60a2bf8caed2e8c3b108588b,64c7fed44a04f777bb1e18ce,64c80154548c6b5d0d21eaf5,,,,,,,,,,,,,,,,,,,,,,
space,26.593,299977,001,2023-07-31_21h04.51.851,arm3_eps,2022.2.5,Win32,59.95203837,60a2bf8caed2e8c3b108588b,64c7fed44a04f777bb1e18ce,64c80154548c6b5d0d21eaf5,,,,,,,,,,,,,,,,,,,,,,
space,16.582,299977,001,2023-07-31_21h04.51.851,arm3_eps,2022.2.5,Win32,59.95203837,60a2bf8caed2e8c3b108588b,64c7fed44a04f777bb1e18ce,64c80154548c6b5d0d21eaf5,,,,,,,,,,,,,,,,,,,,,,
space,24.189,299977,001,2023-07-31_21h04.51.851,arm3_eps,2022.2.5,Win32,59.95203837,60a2bf8caed2e8c3b108588b,64c7fed44a04f777bb1e18ce,64c80154548c6b5d0d21eaf5,,,,,,,,,,,,,,,,,,,,,,
space,26.869,299977,001,2023-07-31_21h04.51.851,arm3_eps,2022.2.5,Win32,59.95203837,60a2bf8caed2e8c3b108588b,64c7fed44a04f777bb1e18ce,64c80154548c6b5d0d21eaf5,,,,,,,,,,,,,,,,,,,,,,
space,3.421,299977,001,2023-07-31_21h04.51.851,arm3_eps,2022.2.5,Win32,59.95203837,60a2bf8caed2e8c3b108588b,64c7fed44a04f777bb1e18ce,64c80154548c6b5d0d21eaf5,,,,,,,,,,,,,,,,,,,,,,
,,299977,001,2023-07-31_21h04.51.851,arm3_eps,2022.2.5,Win32,59.95203837,60a2bf8caed2e8c3b108588b,64c7fed44a04f777bb1e18ce,64c80154548c6b5d0d21eaf5,right,-1,1,0.2429,0,0.001502698,3.954,0,0,0,0,1,,,,,,,,,,
,,299977,001,2023-07-31_21h04.51.851,arm3_eps,2022.2.5,Win32,59.95203837,60a2bf8caed2e8c3b108588b,64c7fed44a04f777bb1e18ce,64c80154548c6b5d0d21eaf5,up,-1,1,0.2429,-1,0,3.815,1,0,1,0,1,,,,,,,,,,
,,299977,001,2023-07-31_21h04.51.851,arm3_eps,2022.2.5,Win32,59.95203837,60a2bf8caed2e8c3b108588b,64c7fed44a04f777bb1e18ce,64c80154548c6b5d0d21eaf5,right,-1,1,0.2429,-1,-0.001179812,2.875,2,0,2,0,1,,,,,,,,,,
,,299977,001,2023-07-31_21h04.51.851,arm3_eps,2022.2.5,Win32,59.95203837,60a2bf8caed2e8c3b108588b,64c7fed44a04f777bb1e18ce,64c80154548c6b5d0d21eaf5,right,-1,1,0.2429,-1,-0.046307216,0.5,3,0,3,0,1,,,,,,,,,,
,,299977,001,2023-07-31_21h04.51.851,arm3_eps,2022.2.5,Win32,59.95203837,60a2bf8caed2e8c3b108588b,64c7fed44a04f777bb1e18ce,64c80154548c6b5d0d21eaf5,right,-1,1,0.2429,-1,-0.071007087,1.271,4,0,4,0,1,,,,,,,,,,
,,299977,001,2023-07-31_21h04.51.851,arm3_eps,2022.2.5,Win32,59.95203837,60a2bf8caed2e8c3b108588b,64c7fed44a04f777bb1e18ce,64c80154548c6b5d0d21eaf5,right,-1,1,0.2429,-1,-0.079229199,0.533,5,0,5,0,1,,,,,,,,,,
,,299977,001,2023-07-31_21h04.51.851,arm3_eps,2022.2.5,Win32,59.95203837,60a2bf8caed2e8c3b108588b,64c7fed44a04f777bb1e18ce,64c80154548c6b5d0d21eaf5,right,-1,1,0.2429,-1,-0.090685577,0.256,6,0,6,0,1,,,,,,,,,,
,,299977,001,2023-07-31_21h04.51.851,arm3_eps,2022.2.5,Win32,59.95203837,60a2bf8caed2e8c3b108588b,64c7fed44a04f777bb1e18ce,64c80154548c6b5d0d21eaf5,right,-1,1,0.2429,-1,-0.10892382,1.253,7,0,7,0,1,,,,,,,,,,
,,299977,001,2023-07-31_21h04.51.851,arm3_eps,2022.2.5,Win32,59.95203837,60a2bf8caed2e8c3b108588b,64c7fed44a04f777bb1e18ce,64c80154548c6b5d0d21eaf5,right,-1,1,0.2429,-1,-0.118047013,0.393,8,0,8,0,1,,,,,,,,,,
,,299977,001,2023-07-31_21h04.51.851,arm3_eps,2022.2.5,Win32,59.95203837,60a2bf8caed2e8c3b108588b,64c7fed44a04f777bb1e18ce,64c80154548c6b5d0d21eaf5,right,-1,1,0.2429,-1,-0.142481134,0.376,9,0,9,0,1,,,,,,,,,,
,,299977,001,2023-07-31_21h04.51.851,arm3_eps,2022.2.5,Win32,59.95203837,60a2bf8caed2e8c3b108588b,64c7fed44a04f777bb1e18ce,64c80154548c6b5d0d21eaf5,right,-1,1,0.2429,-1,-0.180244959,0.304,10,0,10,0,1,,,,,,,,,,
,,299977,001,2023-07-31_21h04.51.851,arm3_eps,2022.2.5,Win32,59.95203837,60a2bf8caed2e8c3b108588b,64c7fed44a04f777bb1e18ce,64c80154548c6b5d0d21eaf5,right,-1,1,0.2429,-1,-0.191502923,0.214,11,0,11,0,1,,,,,,,,,,
,,299977,001,2023-07-31_21h04.51.851,arm3_eps,2022.2.5,Win32,59.95203837,60a2bf8caed2e8c3b108588b,64c7fed44a04f777bb1e18ce,64c80154548c6b5d0d21eaf5,right,-1,1,0.2429,-1,-0.197090895,0.339,12,0,12,0,1,,,,,,,,,,
,,299977,001,2023-07-31_21h04.51.851,arm3_eps,2022.2.5,Win32,59.95203837,60a2bf8caed2e8c3b108588b,64c7fed44a04f777bb1e18ce,64c80154548c6b5d0d21eaf5,right,-1,1,0.2429,-1,-0.213769186,0.236,13,0,13,0,1,,,,,,,,,,
,,299977,001,2023-07-31_21h04.51.851,arm3_eps,2022.2.5,Win32,59.95203837,60a2bf8caed2e8c3b108588b,64c7fed44a04f777bb1e18ce,64c80154548c6b5d0d21eaf5,down,-1,1,0.2429,0,0,3.886,14,0,14,0,1,,,,,,,,,,
,,299977,001,2023-07-31_21h04.51.851,arm3_eps,2022.2.5,Win32,59.95203837,60a2bf8caed2e8c3b108588b,64c7fed44a04f777bb1e18ce,64c80154548c6b5d0d21eaf5,right,-1,1,0.2429,0,-0.010840645,1.355,15,0,15,0,1,,,,,,,,,,
,,299977,001,2023-07-31_21h04.51.851,arm3_eps,2022.2.5,Win32,59.95203837,60a2bf8caed2e8c3b108588b,64c7fed44a04f777bb1e18ce,64c80154548c6b5d0d21eaf5,right,-1,1,0.2429,0,0.011686476,1.005,16,0,16,0,1,,,,,,,,,,
,,299977,001,2023-07-31_21h04.51.851,arm3_eps,2022.2.5,Win32,59.95203837,60a2bf8caed2e8c3b108588b,64c7fed44a04f777bb1e18ce,64c80154548c6b5d0d21eaf5,right,-1,1,0.2429,0,0.030743311,0.194,17,0,17,0,1,,,,,,,,,,
,,299977,001,2023-07-31_21h04.51.851,arm3_eps,2022.2.5,Win32,59.95203837,60a2bf8caed2e8c3b108588b,64c7fed44a04f777bb1e18ce,64c80154548c6b5d0d21eaf5,right,-1,1,0.2429,0,0.041516818,0.208,18,0,18,0,1,,,,,,,,,,
,,299977,001,2023-07-31_21h04.51.851,arm3_eps,2022.2.5,Win32,59.95203837,60a2bf8caed2e8c3b108588b,64c7fed44a04f777bb1e18ce,64c80154548c6b5d0d21eaf5,right,-1,1,0.2429,0,-0.031988487,0.202,19,0,19,0,1,,,,,,,,,,
,,299977,001,2023-07-31_21h04.51.851,arm3_eps,2022.2.5,Win32,59.95203837,60a2bf8caed2e8c3b108588b,64c7fed44a04f777bb1e18ce,64c80154548c6b5d0d21eaf5,right,-1,1,0.2429,0,-0.051094808,0.189,20,0,20,0,1,,,,,,,,,,
,,299977,001,2023-07-31_21h04.51.851,arm3_eps,2022.2.5,Win32,59.95203837,60a2bf8caed2e8c3b108588b,64c7fed44a04f777bb1e18ce,64c80154548c6b5d0d21eaf5,right,-1,1,0.2429,0,-0.051706846,0.191,21,0,21,0,1,,,,,,,,,,
,,299977,001,2023-07-31_21h04.51.851,arm3_eps,2022.2.5,Win32,59.95203837,60a2bf8caed2e8c3b108588b,64c7fed44a04f777bb1e18ce,64c80154548c6b5d0d21eaf5,right,-1,1,0.2429,0,-0.086599989,0.222,22,0,22,0,1,,,,,,,,,,
,,299977,001,2023-07-31_21h04.51.851,arm3_eps,2022.2.5,Win32,59.95203837,60a2bf8caed2e8c3b108588b,64c7fed44a04f777bb1e18ce,64c80154548c6b5d0d21eaf5,right,-1,1,0.2429,0,-0.125542432,0.187,23,0,23,0,1,,,,,,,,,,
,,299977,001,2023-07-31_21h04.51.851,arm3_eps,2022.2.5,Win32,59.95203837,60a2bf8caed2e8c3b108588b,64c7fed44a04f777bb1e18ce,64c80154548c6b5d0d21eaf5,right,-1,1,0.2429,0,-0.115494708,0.215,24,0,24,0,1,,,,,,,,,,
,,299977,001,2023-07-31_21h04.51.851,arm3_eps,2022.2.5,Win32,59.95203837,60a2bf8caed2e8c3b108588b,64c7fed44a04f777bb1e18ce,64c80154548c6b5d0d21eaf5,right,-1,1,0.2429,0,-0.160219157,0.217,25,0,25,0,1,,,,,,,,,,
,,299977,001,2023-07-31_21h04.51.851,arm3_eps,2022.2.5,Win32,59.95203837,60a2bf8caed2e8c3b108588b,64c7fed44a04f777bb1e18ce,64c80154548c6b5d0d21eaf5,right,-1,1,0.2429,0,-0.145394615,0.213,26,0,26,0,1,,,,,,,,,,
,,299977,001,2023-07-31_21h04.51.851,arm3_eps,2022.2.5,Win32,59.95203837,60a2bf8caed2e8c3b108588b,64c7fed44a04f777bb1e18ce,64c80154548c6b5d0d21eaf5,down,-1,1,0.2429,1,0,1.15,27,0,27,0,1,,,,,,,,,,
,,299977,001,2023-07-31_21h04.51.851,arm3_eps,2022.2.5,Win32,59.95203837,60a2bf8caed2e8c3b108588b,64c7fed44a04f777bb1e18ce,64c80154548c6b5d0d21eaf5,right,-1,1,0.2429,1,0.003300283,1.605,28,0,28,0,1,,,,,,,,,,
,,299977,001,2023-07-31_21h04.51.851,arm3_eps,2022.2.5,Win32,59.95203837,60a2bf8caed2e8c3b108588b,64c7fed44a04f777bb1e18ce,64c80154548c6b5d0d21eaf5,right,-1,1,0.2429,1,-0.036582524,0.396,29,0,29,0,1,,,,,,,,,,
,,299977,001,2023-07-31_21h04.51.851,arm3_eps,2022.2.5,Win32,59.95203837,60a2bf8caed2e8c3b108588b,64c7fed44a04f777bb1e18ce,64c80154548c6b5d0d21eaf5,right,-1,1,0.2429,1,-0.035721918,0.254,30,0,30,0,1,,,,,,,,,,
,,299977,001,2023-07-31_21h04.51.851,arm3_eps,2022.2.5,Win32,59.95203837,60a2bf8caed2e8c3b108588b,64c7fed44a04f777bb1e18ce,64c80154548c6b5d0d21eaf5,right,-1,1,0.2429,1,-0.053013733,0.266,31,0,31,0,1,,,,,,,,,,
,,299977,001,2023-07-31_21h04.51.851,arm3_eps,2022.2.5,Win32,59.95203837,60a2bf8caed2e8c3b108588b,64c7fed44a04f777bb1e18ce,64c80154548c6b5d0d21eaf5,right,-1,1,0.2429,1,-0.07250257,0.237,32,0,32,0,1,,,,,,,,,,
,,299977,001,2023-07-31_21h04.51.851,arm3_eps,2022.2.5,Win32,59.95203837,60a2bf8caed2e8c3b108588b,64c7fed44a04f777bb1e18ce,64c80154548c6b5d0d21eaf5,right,-1,1,0.2429,1,-0.109168548,0.308,33,0,33,0,1,,,,,,,,,,
,,299977,001,2023-07-31_21h04.51.851,arm3_eps,2022.2.5,Win32,59.95203837,60a2bf8caed2e8c3b108588b,64c7fed44a04f777bb1e18ce,64c80154548c6b5d0d21eaf5,right,-1,1,0.2429,1,-0.137892518,0.296,34,0,34,0,1,,,,,,,,,,
,,299977,001,2023-07-31_21h04.51.851,arm3_eps,2022.2.5,Win32,59.95203837,60a2bf8caed2e8c3b108588b,64c7fed44a04f777bb1e18ce,64c80154548c6b5d0d21eaf5,right,-1,1,0.2429,1,-0.160618597,0.389,35,0,35,0,1,,,,,,,,,,
,,299977,001,2023-07-31_21h04.51.851,arm3_eps,2022.2.5,Win32,59.95203837,60a2bf8caed2e8c3b108588b,64c7fed44a04f777bb1e18ce,64c80154548c6b5d0d21eaf5,down,-1,1,0.2429,2,0,0.37,36,0,36,0,1,,,,,,,,,,
,,299977,001,2023-07-31_21h04.51.851,arm3_eps,2022.2.5,Win32,59.95203837,60a2bf8caed2e8c3b108588b,64c7fed44a04f777bb1e18ce,64c80154548c6b5d0d21eaf5,right,-1,1,0.2429,2,-0.006750433,2.136,37,0,37,0,1,,,,,,,,,,
,,299977,001,2023-07-31_21h04.51.851,arm3_eps,2022.2.5,Win32,59.95203837,60a2bf8caed2e8c3b108588b,64c7fed44a04f777bb1e18ce,64c80154548c6b5d0d21eaf5,right,-1,1,0.2429,2,-0.021709235,0.91,38,0,38,0,1,,,,,,,,,,
,,299977,001,2023-07-31_21h04.51.851,arm3_eps,2022.2.5,Win32,59.95203837,60a2bf8caed2e8c3b108588b,64c7fed44a04f777bb1e18ce,64c80154548c6b5d0d21eaf5,right,-1,1,0.2429,2,-0.003610721,0.7,39,0,39,0,1,,,,,,,,,,
,,299977,001,2023-07-31_21h04.51.851,arm3_eps,2022.2.5,Win32,59.95203837,60a2bf8caed2e8c3b108588b,64c7fed44a04f777bb1e18ce,64c80154548c6b5d0d21eaf5,right,-1,1,0.2429,2,0.003856836,0.307,40,0,40,0,1,,,,,,,,,,
,,299977,001,2023-07-31_21h04.51.851,arm3_eps,2022.2.5,Win32,59.95203837,60a2bf8caed2e8c3b108588b,64c7fed44a04f777bb1e18ce,64c80154548c6b5d0d21eaf5,right,-1,1,0.2429,2,-0.011601484,0.293,41,0,41,0,1,,,,,,,,,,
,,299977,001,2023-07-31_21h04.51.851,arm3_eps,2022.2.5,Win32,59.95203837,60a2bf8caed2e8c3b108588b,64c7fed44a04f777bb1e18ce,64c80154548c6b5d0d21eaf5,right,-1,1,0.2429,2,-0.037507026,0.286,42,0,42,0,1,,,,,,,,,,
,,299977,001,2023-07-31_21h04.51.851,arm3_eps,2022.2.5,Win32,59.95203837,60a2bf8caed2e8c3b108588b,64c7fed44a04f777bb1e18ce,64c80154548c6b5d0d21eaf5,right,-1,1,0.2429,2,-0.040790313,0.304,43,0,43,0,1,,,,,,,,,,
,,299977,001,2023-07-31_21h04.51.851,arm3_eps,2022.2.5,Win32,59.95203837,60a2bf8caed2e8c3b108588b,64c7fed44a04f777bb1e18ce,64c80154548c6b5d0d21eaf5,right,-1,1,0.2429,2,-0.042755318,0.299,44,0,44,0,1,,,,,,,,,,
,,299977,001,2023-07-31_21h04.51.851,arm3_eps,2022.2.5,Win32,59.95203837,60a2bf8caed2e8c3b108588b,64c7fed44a04f777bb1e18ce,64c80154548c6b5d0d21eaf5,right,-1,1,0.2429,2,-0.061310323,0.305,45,0,45,0,1,,,,,,,,,,
,,299977,001,2023-07-31_21h04.51.851,arm3_eps,2022.2.5,Win32,59.95203837,60a2bf8caed2e8c3b108588b,64c7fed44a04f777bb1e18ce,64c80154548c6b5d0d21eaf5,down,-1,1,0.2429,3,0,0.84,46,0,46,0,1,,,,,,,,,,
,,299977,001,2023-07-31_21h04.51.851,arm3_eps,2022.2.5,Win32,59.95203837,60a2bf8caed2e8c3b108588b,64c7fed44a04f777bb1e18ce,64c80154548c6b5d0d21eaf5,right,-1,1,0.2429,3,0.002363357,1.018,47,0,47,0,1,,,,,,,,,,
,,299977,001,2023-07-31_21h04.51.851,arm3_eps,2022.2.5,Win32,59.95203837,60a2bf8caed2e8c3b108588b,64c7fed44a04f777bb1e18ce,64c80154548c6b5d0d21eaf5,right,-1,1,0.2429,3,-0.014299332,0.288,48,0,48,0,1,,,,,,,,,,
,,299977,001,2023-07-31_21h04.51.851,arm3_eps,2022.2.5,Win32,59.95203837,60a2bf8caed2e8c3b108588b,64c7fed44a04f777bb1e18ce,64c80154548c6b5d0d21eaf5,right,-1,1,0.2429,3,-0.041993611,0.399,49,0,49,0,1,,,,,,,,,,
space,18.264,299977,001,2023-07-31_21h04.51.851,arm3_eps,2022.2.5,Win32,59.95203837,60a2bf8caed2e8c3b108588b,64c7fed44a04f777bb1e18ce,64c80154548c6b5d0d21eaf5,,,,,,,,,,,,,,,,,,,,,,
space,24.161,299977,001,2023-07-31_21h04.51.851,arm3_eps,2022.2.5,Win32,59.95203837,60a2bf8caed2e8c3b108588b,64c7fed44a04f777bb1e18ce,64c80154548c6b5d0d21eaf5,,,,,,,,,,,,,,,,,,,,,,
space,16.754,299977,001,2023-07-31_21h04.51.851,arm3_eps,2022.2.5,Win32,59.95203837,60a2bf8caed2e8c3b108588b,64c7fed44a04f777bb1e18ce,64c80154548c6b5d0d21eaf5,,,,,,,,,,,,,,,,,,,,,,
space,15.373,299977,001,2023-07-31_21h04.51.851,arm3_eps,2022.2.5,Win32,59.95203837,60a2bf8caed2e8c3b108588b,64c7fed44a04f777bb1e18ce,64c80154548c6b5d0d21eaf5,,,,,,,,,,,,,,,,,,,,,,
space,5.822,299977,001,2023-07-31_21h04.51.851,arm3_eps,2022.2.5,Win32,59.95203837,60a2bf8caed2e8c3b108588b,64c7fed44a04f777bb1e18ce,64c80154548c6b5d0d21eaf5,,,,,,,,,,,,,,,,,,,,,,
space,1.447,299977,001,2023-07-31_21h04.51.851,arm3_eps,2022.2.5,Win32,59.95203837,60a2bf8caed2e8c3b108588b,64c7fed44a04f777bb1e18ce,64c80154548c6b5d0d21eaf5,,,,,,,,,,,,,,,,,,,,,,
,,299977,001,2023-07-31_21h04.51.851,arm3_eps,2022.2.5,Win32,59.95203837,60a2bf8caed2e8c3b108588b,64c7fed44a04f777bb1e18ce,64c80154548c6b5d0d21eaf5,right,-1,0.75,0.2429,0,0.002034627,0.619,0,0,0,0,1,,,,,,,,,,
,,299977,001,2023-07-31_21h04.51.851,arm3_eps,2022.2.5,Win32,59.95203837,60a2bf8caed2e8c3b108588b,64c7fed44a04f777bb1e18ce,64c80154548c6b5d0d21eaf5,right,-1,0.75,0.2429,0,-0.001466269,0.587,1,0,1,0,1,,,,,,,,,,
,,299977,001,2023-07-31_21h04.51.851,arm3_eps,2022.2.5,Win32,59.95203837,60a2bf8caed2e8c3b108588b,64c7fed44a04f777bb1e18ce,64c80154548c6b5d0d21eaf5,up,1,0.75,0.2429,-1,0,0.902,2,0,2,0,1,,,,,,,,,,
,,299977,001,2023-07-31_21h04.51.851,arm3_eps,2022.2.5,Win32,59.95203837,60a2bf8caed2e8c3b108588b,64c7fed44a04f777bb1e18ce,64c80154548c6b5d0d21eaf5,right,1,0.75,0.2429,-1,0.031084855,1.095,3,0,3,0,1,,,,,,,,,,
,,299977,001,2023-07-31_21h04.51.851,arm3_eps,2022.2.5,Win32,59.95203837,60a2bf8caed2e8c3b108588b,64c7fed44a04f777bb1e18ce,64c80154548c6b5d0d21eaf5,right,1,0.75,0.2429,-1,0.047248832,0.674,4,0,4,0,1,,,,,,,,,,
,,299977,001,2023-07-31_21h04.51.851,arm3_eps,2022.2.5,Win32,59.95203837,60a2bf8caed2e8c3b108588b,64c7fed44a04f777bb1e18ce,64c80154548c6b5d0d21eaf5,up,-1,0.75,0.2429,0,0,0.42,5,0,5,0,1,,,,,,,,,,
,,299977,001,2023-07-31_21h04.51.851,arm3_eps,2022.2.5,Win32,59.95203837,60a2bf8caed2e8c3b108588b,64c7fed44a04f777bb1e18ce,64c80154548c6b5d0d21eaf5,right,-1,0.75,0.2429,0,-0.018518305,1.083,6,0,6,0,1,,,,,,,,,,
,,299977,001,2023-07-31_21h04.51.851,arm3_eps,2022.2.5,Win32,59.95203837,60a2bf8caed2e8c3b108588b,64c7fed44a04f777bb1e18ce,64c80154548c6b5d0d21eaf5,right,-1,0.75,0.2429,0,-0.053550521,0.361,7,0,7,0,1,,,,,,,,,,
,,299977,001,2023-07-31_21h04.51.851,arm3_eps,2022.2.5,Win32,59.95203837,60a2bf8caed2e8c3b108588b,64c7fed44a04f777bb1e18ce,64c80154548c6b5d0d21eaf5,down,-1,0.75,0.2429,1,0,0.768,8,0,8,0,1,,,,,,,,,,
,,299977,001,2023-07-31_21h04.51.851,arm3_eps,2022.2.5,Win32,59.95203837,60a2bf8caed2e8c3b108588b,64c7fed44a04f777bb1e18ce,64c80154548c6b5d0d21eaf5,right,-1,0.75,0.2429,1,0.005503738,1.032,9,0,9,0,1,,,,,,,,,,
,,299977,001,2023-07-31_21h04.51.851,arm3_eps,2022.2.5,Win32,59.95203837,60a2bf8caed2e8c3b108588b,64c7fed44a04f777bb1e18ce,64c80154548c6b5d0d21eaf5,right,-1,0.75,0.2429,1,-0.032975653,0.315,10,0,10,0,1,,,,,,,,,,
,,299977,001,2023-07-31_21h04.51.851,arm3_eps,2022.2.5,Win32,59.95203837,60a2bf8caed2e8c3b108588b,64c7fed44a04f777bb1e18ce,64c80154548c6b5d0d21eaf5,down,-1,0.75,0.2429,1,0,0.476,11,0,11,0,1,,,,,,,,,,
,,299977,001,2023-07-31_21h04.51.851,arm3_eps,2022.2.5,Win32,59.95203837,60a2bf8caed2e8c3b108588b,64c7fed44a04f777bb1e18ce,64c80154548c6b5d0d21eaf5,right,-1,0.75,0.2429,1,-0.030725873,1.201,12,0,12,0,1,,,,,,,,,,
,,299977,001,2023-07-31_21h04.51.851,arm3_eps,2022.2.5,Win32,59.95203837,60a2bf8caed2e8c3b108588b,64c7fed44a04f777bb1e18ce,64c80154548c6b5d0d21eaf5,right,-1,0.75,0.2429,1,-0.026434171,0.54,13,0,13,0,1,,,,,,,,,,
,,299977,001,2023-07-31_21h04.51.851,arm3_eps,2022.2.5,Win32,59.95203837,60a2bf8caed2e8c3b108588b,64c7fed44a04f777bb1e18ce,64c80154548c6b5d0d21eaf5,right,-1,0.75,0.2429,1,-0.06203888,0.986,14,0,14,0,1,,,,,,,,,,
,,299977,001,2023-07-31_21h04.51.851,arm3_eps,2022.2.5,Win32,59.95203837,60a2bf8caed2e8c3b108588b,64c7fed44a04f777bb1e18ce,64c80154548c6b5d0d21eaf5,down,-1,0.75,0.2429,1,0,0.759,15,0,15,0,1,,,,,,,,,,
,,299977,001,2023-07-31_21h04.51.851,arm3_eps,2022.2.5,Win32,59.95203837,60a2bf8caed2e8c3b108588b,64c7fed44a04f777bb1e18ce,64c80154548c6b5d0d21eaf5,right,-1,0.75,0.2429,1,-0.045953743,1.05,16,0,16,0,1,,,,,,,,,,
,,299977,001,2023-07-31_21h04.51.851,arm3_eps,2022.2.5,Win32,59.95203837,60a2bf8caed2e8c3b108588b,64c7fed44a04f777bb1e18ce,64c80154548c6b5d0d21eaf5,right,-1,0.75,0.2429,1,-0.032278279,0.266,17,0,17,0,1,,,,,,,,,,
,,299977,001,2023-07-31_21h04.51.851,arm3_eps,2022.2.5,Win32,59.95203837,60a2bf8caed2e8c3b108588b,64c7fed44a04f777bb1e18ce,64c80154548c6b5d0d21eaf5,down,-1,0.75,0.2429,2,0,0.717,18,0,18,0,1,,,,,,,,,,
,,299977,001,2023-07-31_21h04.51.851,arm3_eps,2022.2.5,Win32,59.95203837,60a2bf8caed2e8c3b108588b,64c7fed44a04f777bb1e18ce,64c80154548c6b5d0d21eaf5,right,-1,0.75,0.2429,2,-0.019997401,1.117,19,0,19,0,1,,,,,,,,,,
,,299977,001,2023-07-31_21h04.51.851,arm3_eps,2022.2.5,Win32,59.95203837,60a2bf8caed2e8c3b108588b,64c7fed44a04f777bb1e18ce,64c80154548c6b5d0d21eaf5,right,-1,0.75,0.2429,2,0.002233713,0.276,20,0,20,0,1,,,,,,,,,,
,,299977,001,2023-07-31_21h04.51.851,arm3_eps,2022.2.5,Win32,59.95203837,60a2bf8caed2e8c3b108588b,64c7fed44a04f777bb1e18ce,64c80154548c6b5d0d21eaf5,right,-1,0.75,0.2429,2,-0.005438526,0.371,21,0,21,0,1,,,,,,,,,,
,,299977,001,2023-07-31_21h04.51.851,arm3_eps,2022.2.5,Win32,59.95203837,60a2bf8caed2e8c3b108588b,64c7fed44a04f777bb1e18ce,64c80154548c6b5d0d21eaf5,right,-1,0.75,0.2429,2,-0.000695169,0.513,22,0,22,0,1,,,,,,,,,,
,,299977,001,2023-07-31_21h04.51.851,arm3_eps,2022.2.5,Win32,59.95203837,60a2bf8caed2e8c3b108588b,64c7fed44a04f777bb1e18ce,64c80154548c6b5d0d21eaf5,up,-1,0.75,0.2429,2,0,0.066,23,0,23,0,1,,,,,,,,,,
,,299977,001,2023-07-31_21h04.51.851,arm3_eps,2022.2.5,Win32,59.95203837,60a2bf8caed2e8c3b108588b,64c7fed44a04f777bb1e18ce,64c80154548c6b5d0d21eaf5,right,-1,0.75,0.2429,2,-0.006822679,1.055,24,0,24,0,1,,,,,,,,,,
,,299977,001,2023-07-31_21h04.51.851,arm3_eps,2022.2.5,Win32,59.95203837,60a2bf8caed2e8c3b108588b,64c7fed44a04f777bb1e18ce,64c80154548c6b5d0d21eaf5,right,-1,0.75,0.2429,2,-0.020236432,0.291,25,0,25,0,1,,,,,,,,,,
,,299977,001,2023-07-31_21h04.51.851,arm3_eps,2022.2.5,Win32,59.95203837,60a2bf8caed2e8c3b108588b,64c7fed44a04f777bb1e18ce,64c80154548c6b5d0d21eaf5,right,-1,0.75,0.2429,2,-0.028260265,0.288,26,0,26,0,1,,,,,,,,,,
,,299977,001,2023-07-31_21h04.51.851,arm3_eps,2022.2.5,Win32,59.95203837,60a2bf8caed2e8c3b108588b,64c7fed44a04f777bb1e18ce,64c80154548c6b5d0d21eaf5,right,-1,0.75,0.2429,2,-0.02828719,0.272,27,0,27,0,1,,,,,,,,,,
,,299977,001,2023-07-31_21h04.51.851,arm3_eps,2022.2.5,Win32,59.95203837,60a2bf8caed2e8c3b108588b,64c7fed44a04f777bb1e18ce,64c80154548c6b5d0d21eaf5,up,-1,0.75,0.2429,1,0,1.24,28,0,28,0,1,,,,,,,,,,
,,299977,001,2023-07-31_21h04.51.851,arm3_eps,2022.2.5,Win32,59.95203837,60a2bf8caed2e8c3b108588b,64c7fed44a04f777bb1e18ce,64c80154548c6b5d0d21eaf5,right,-1,0.75,0.2429,1,-0.01803499,0.918,29,0,29,0,1,,,,,,,,,,
,,299977,001,2023-07-31_21h04.51.851,arm3_eps,2022.2.5,Win32,59.95203837,60a2bf8caed2e8c3b108588b,64c7fed44a04f777bb1e18ce,64c80154548c6b5d0d21eaf5,right,-1,0.75,0.2429,1,-0.016186457,0.249,30,0,30,0,1,,,,,,,,,,
,,299977,001,2023-07-31_21h04.51.851,arm3_eps,2022.2.5,Win32,59.95203837,60a2bf8caed2e8c3b108588b,64c7fed44a04f777bb1e18ce,64c80154548c6b5d0d21eaf5,right,-1,0.75,0.2429,1,-0.027199308,0.193,31,0,31,0,1,,,,,,,,,,
,,299977,001,2023-07-31_21h04.51.851,arm3_eps,2022.2.5,Win32,59.95203837,60a2bf8caed2e8c3b108588b,64c7fed44a04f777bb1e18ce,64c80154548c6b5d0d21eaf5,right,-1,0.75,0.2429,1,-0.034593689,0.246,32,0,32,0,1,,,,,,,,,,
,,299977,001,2023-07-31_21h04.51.851,arm3_eps,2022.2.5,Win32,59.95203837,60a2bf8caed2e8c3b108588b,64c7fed44a04f777bb1e18ce,64c80154548c6b5d0d21eaf5,right,-1,0.75,0.2429,1,0.004816004,0.23,33,0,33,0,1,,,,,,,,,,
,,299977,001,2023-07-31_21h04.51.851,arm3_eps,2022.2.5,Win32,59.95203837,60a2bf8caed2e8c3b108588b,64c7fed44a04f777bb1e18ce,64c80154548c6b5d0d21eaf5,down,-1,0.75,0.2429,2,0,1.462,34,0,34,0,1,,,,,,,,,,
,,299977,001,2023-07-31_21h04.51.851,arm3_eps,2022.2.5,Win32,59.95203837,60a2bf8caed2e8c3b108588b,64c7fed44a04f777bb1e18ce,64c80154548c6b5d0d21eaf5,right,-1,0.75,0.2429,2,-0.02016562,0.903,35,0,35,0,1,,,,,,,,,,
,,299977,001,2023-07-31_21h04.51.851,arm3_eps,2022.2.5,Win32,59.95203837,60a2bf8caed2e8c3b108588b,64c7fed44a04f777bb1e18ce,64c80154548c6b5d0d21eaf5,right,-1,0.75,0.2429,2,-0.055573011,0.276,36,0,36,0,1,,,,,,,,,,
,,299977,001,2023-07-31_21h04.51.851,arm3_eps,2022.2.5,Win32,59.95203837,60a2bf8caed2e8c3b108588b,64c7fed44a04f777bb1e18ce,64c80154548c6b5d0d21eaf5,right,-1,0.75,0.2429,2,-0.108281512,0.266,37,0,37,0,1,,,,,,,,,,
,,299977,001,2023-07-31_21h04.51.851,arm3_eps,2022.2.5,Win32,59.95203837,60a2bf8caed2e8c3b108588b,64c7fed44a04f777bb1e18ce,64c80154548c6b5d0d21eaf5,down,-1,0.75,0.2429,3,0,0.691,38,0,38,0,1,,,,,,,,,,
,,299977,001,2023-07-31_21h04.51.851,arm3_eps,2022.2.5,Win32,59.95203837,60a2bf8caed2e8c3b108588b,64c7fed44a04f777bb1e18ce,64c80154548c6b5d0d21eaf5,right,-1,0.75,0.2429,3,-0.033168444,1.115,39,0,39,0,1,,,,,,,,,,
,,299977,001,2023-07-31_21h04.51.851,arm3_eps,2022.2.5,Win32,59.95203837,60a2bf8caed2e8c3b108588b,64c7fed44a04f777bb1e18ce,64c80154548c6b5d0d21eaf5,right,-1,0.75,0.2429,3,-0.025550494,0.335,40,0,40,0,1,,,,,,,,,,
,,299977,001,2023-07-31_21h04.51.851,arm3_eps,2022.2.5,Win32,59.95203837,60a2bf8caed2e8c3b108588b,64c7fed44a04f777bb1e18ce,64c80154548c6b5d0d21eaf5,down,-1,0.75,0.2429,3,0,0.777,41,0,41,0,1,,,,,,,,,,
,,299977,001,2023-07-31_21h04.51.851,arm3_eps,2022.2.5,Win32,59.95203837,60a2bf8caed2e8c3b108588b,64c7fed44a04f777bb1e18ce,64c80154548c6b5d0d21eaf5,right,-1,0.75,0.2429,3,0.005961497,0.95,42,0,42,0,1,,,,,,,,,,
,,299977,001,2023-07-31_21h04.51.851,arm3_eps,2022.2.5,Win32,59.95203837,60a2bf8caed2e8c3b108588b,64c7fed44a04f777bb1e18ce,64c80154548c6b5d0d21eaf5,right,-1,0.75,0.2429,3,-0.008484674,0.332,43,0,43,0,1,,,,,,,,,,
,,299977,001,2023-07-31_21h04.51.851,arm3_eps,2022.2.5,Win32,59.95203837,60a2bf8caed2e8c3b108588b,64c7fed44a04f777bb1e18ce,64c80154548c6b5d0d21eaf5,right,-1,0.75,0.2429,3,-0.026238287,0.237,44,0,44,0,1,,,,,,,,,,
,,299977,001,2023-07-31_21h04.51.851,arm3_eps,2022.2.5,Win32,59.95203837,60a2bf8caed2e8c3b108588b,64c7fed44a04f777bb1e18ce,64c80154548c6b5d0d21eaf5,right,-1,0.75,0.2429,3,-0.041412606,0.328,45,0,45,0,1,,,,,,,,,,
,,299977,001,2023-07-31_21h04.51.851,arm3_eps,2022.2.5,Win32,59.95203837,60a2bf8caed2e8c3b108588b,64c7fed44a04f777bb1e18ce,64c80154548c6b5d0d21eaf5,down,-1,0.75,0.2429,4,0,0.498,46,0,46,0,1,,,,,,,,,,
,,299977,001,2023-07-31_21h04.51.851,arm3_eps,2022.2.5,Win32,59.95203837,60a2bf8caed2e8c3b108588b,64c7fed44a04f777bb1e18ce,64c80154548c6b5d0d21eaf5,right,-1,0.75,0.2429,4,-0.027126124,0.937,47,0,47,0,1,,,,,,,,,,
,,299977,001,2023-07-31_21h04.51.851,arm3_eps,2022.2.5,Win32,59.95203837,60a2bf8caed2e8c3b108588b,64c7fed44a04f777bb1e18ce,64c80154548c6b5d0d21eaf5,right,-1,0.75,0.2429,4,-0.010542334,0.469,48,0,48,0,1,,,,,,,,,,
,,299977,001,2023-07-31_21h04.51.851,arm3_eps,2022.2.5,Win32,59.95203837,60a2bf8caed2e8c3b108588b,64c7fed44a04f777bb1e18ce,64c80154548c6b5d0d21eaf5,right,-1,0.75,0.2429,4,-0.019812796,0.696,49,0,49,0,1,,,,,,,,,,
space,27.032,299977,001,2023-07-31_21h04.51.851,arm3_eps,2022.2.5,Win32,59.95203837,60a2bf8caed2e8c3b108588b,64c7fed44a04f777bb1e18ce,64c80154548c6b5d0d21eaf5,,,,,,,,,,,,,,,,,,,,,,
space,46.7,299977,001,2023-07-31_21h04.51.851,arm3_eps,2022.2.5,Win32,59.95203837,60a2bf8caed2e8c3b108588b,64c7fed44a04f777bb1e18ce,64c80154548c6b5d0d21eaf5,,,,,,,,,,,,,,,,,,,,,,
space,1.842,299977,001,2023-07-31_21h04.51.851,arm3_eps,2022.2.5,Win32,59.95203837,60a2bf8caed2e8c3b108588b,64c7fed44a04f777bb1e18ce,64c80154548c6b5d0d21eaf5,,,,,,,,,,,,,,,,,,,,,,
,,299977,001,2023-07-31_21h04.51.851,arm3_eps,2022.2.5,Win32,59.95203837,60a2bf8caed2e8c3b108588b,64c7fed44a04f777bb1e18ce,64c80154548c6b5d0d21eaf5,right,-1,0.75,0.05,0,-0.012883371,1.641,0,0,0,0,1,,,,,,,,,,
,,299977,001,2023-07-31_21h04.51.851,arm3_eps,2022.2.5,Win32,59.95203837,60a2bf8caed2e8c3b108588b,64c7fed44a04f777bb1e18ce,64c80154548c6b5d0d21eaf5,right,-1,0.75,0.05,0,-0.044643,0.444,1,0,1,0,1,,,,,,,,,,
,,299977,001,2023-07-31_21h04.51.851,arm3_eps,2022.2.5,Win32,59.95203837,60a2bf8caed2e8c3b108588b,64c7fed44a04f777bb1e18ce,64c80154548c6b5d0d21eaf5,up,-1,0.75,0.05,0,0,0.526,2,0,2,0,1,,,,,,,,,,
,,299977,001,2023-07-31_21h04.51.851,arm3_eps,2022.2.5,Win32,59.95203837,60a2bf8caed2e8c3b108588b,64c7fed44a04f777bb1e18ce,64c80154548c6b5d0d21eaf5,right,-1,0.75,0.05,0,-0.027776357,1.119,3,0,3,0,1,,,,,,,,,,
,,299977,001,2023-07-31_21h04.51.851,arm3_eps,2022.2.5,Win32,59.95203837,60a2bf8caed2e8c3b108588b,64c7fed44a04f777bb1e18ce,64c80154548c6b5d0d21eaf5,right,-1,0.75,0.05,0,-0.034923315,0.312,4,0,4,0,1,,,,,,,,,,
,,299977,001,2023-07-31_21h04.51.851,arm3_eps,2022.2.5,Win32,59.95203837,60a2bf8caed2e8c3b108588b,64c7fed44a04f777bb1e18ce,64c80154548c6b5d0d21eaf5,down,-1,0.75,0.05,0,0,0.975,5,0,5,0,1,,,,,,,,,,
,,299977,001,2023-07-31_21h04.51.851,arm3_eps,2022.2.5,Win32,59.95203837,60a2bf8caed2e8c3b108588b,64c7fed44a04f777bb1e18ce,64c80154548c6b5d0d21eaf5,right,-1,0.75,0.05,0,-0.02289503,0.915,6,0,6,0,1,,,,,,,,,,
,,299977,001,2023-07-31_21h04.51.851,arm3_eps,2022.2.5,Win32,59.95203837,60a2bf8caed2e8c3b108588b,64c7fed44a04f777bb1e18ce,64c80154548c6b5d0d21eaf5,right,-1,0.75,0.05,0,-0.043461523,0.307,7,0,7,0,1,,,,,,,,,,
,,299977,001,2023-07-31_21h04.51.851,arm3_eps,2022.2.5,Win32,59.95203837,60a2bf8caed2e8c3b108588b,64c7fed44a04f777bb1e18ce,64c80154548c6b5d0d21eaf5,down,1,0.75,0.05,0,0,1.162,8,0,8,0,1,,,,,,,,,,
,,299977,001,2023-07-31_21h04.51.851,arm3_eps,2022.2.5,Win32,59.95203837,60a2bf8caed2e8c3b108588b,64c7fed44a04f777bb1e18ce,64c80154548c6b5d0d21eaf5,right,1,0.75,0.05,0,0.014929448,0.805,9,0,9,0,1,,,,,,,,,,
,,299977,001,2023-07-31_21h04.51.851,arm3_eps,2022.2.5,Win32,59.95203837,60a2bf8caed2e8c3b108588b,64c7fed44a04f777bb1e18ce,64c80154548c6b5d0d21eaf5,right,1,0.75,0.05,0,0.022723118,0.61,10,0,10,0,1,,,,,,,,,,
,,299977,001,2023-07-31_21h04.51.851,arm3_eps,2022.2.5,Win32,59.95203837,60a2bf8caed2e8c3b108588b,64c7fed44a04f777bb1e18ce,64c80154548c6b5d0d21eaf5,up,1,0.75,0.05,0,0,0.577,11,0,11,0,1,,,,,,,,,,
,,299977,001,2023-07-31_21h04.51.851,arm3_eps,2022.2.5,Win32,59.95203837,60a2bf8caed2e8c3b108588b,64c7fed44a04f777bb1e18ce,64c80154548c6b5d0d21eaf5,right,1,0.75,0.05,0,0.009154786,1.558,12,0,12,0,1,,,,,,,,,,
,,299977,001,2023-07-31_21h04.51.851,arm3_eps,2022.2.5,Win32,59.95203837,60a2bf8caed2e8c3b108588b,64c7fed44a04f777bb1e18ce,64c80154548c6b5d0d21eaf5,right,1,0.75,0.05,0,0.035177656,0.36,13,0,13,0,1,,,,,,,,,,
,,299977,001,2023-07-31_21h04.51.851,arm3_eps,2022.2.5,Win32,59.95203837,60a2bf8caed2e8c3b108588b,64c7fed44a04f777bb1e18ce,64c80154548c6b5d0d21eaf5,up,-1,0.75,0.05,0,0,0.909,14,0,14,0,1,,,,,,,,,,
,,299977,001,2023-07-31_21h04.51.851,arm3_eps,2022.2.5,Win32,59.95203837,60a2bf8caed2e8c3b108588b,64c7fed44a04f777bb1e18ce,64c80154548c6b5d0d21eaf5,right,-1,0.75,0.05,0,0.005774493,0.969,15,0,15,0,1,,,,,,,,,,
,,299977,001,2023-07-31_21h04.51.851,arm3_eps,2022.2.5,Win32,59.95203837,60a2bf8caed2e8c3b108588b,64c7fed44a04f777bb1e18ce,64c80154548c6b5d0d21eaf5,right,-1,0.75,0.05,0,-0.023318473,0.301,16,0,16,0,1,,,,,,,,,,
,,299977,001,2023-07-31_21h04.51.851,arm3_eps,2022.2.5,Win32,59.95203837,60a2bf8caed2e8c3b108588b,64c7fed44a04f777bb1e18ce,64c80154548c6b5d0d21eaf5,right,-1,0.75,0.05,0,-0.037493767,0.302,17,0,17,0,1,,,,,,,,,,
,,299977,001,2023-07-31_21h04.51.851,arm3_eps,2022.2.5,Win32,59.95203837,60a2bf8caed2e8c3b108588b,64c7fed44a04f777bb1e18ce,64c80154548c6b5d0d21eaf5,down,-1,0.75,0.05,1,0,0.676,18,0,18,0,1,,,,,,,,,,
,,299977,001,2023-07-31_21h04.51.851,arm3_eps,2022.2.5,Win32,59.95203837,60a2bf8caed2e8c3b108588b,64c7fed44a04f777bb1e18ce,64c80154548c6b5d0d21eaf5,right,-1,0.75,0.05,1,0.007082501,0.953,19,0,19,0,1,,,,,,,,,,
,,299977,001,2023-07-31_21h04.51.851,arm3_eps,2022.2.5,Win32,59.95203837,60a2bf8caed2e8c3b108588b,64c7fed44a04f777bb1e18ce,64c80154548c6b5d0d21eaf5,right,-1,0.75,0.05,1,0.017205413,0.243,20,0,20,0,1,,,,,,,,,,
,,299977,001,2023-07-31_21h04.51.851,arm3_eps,2022.2.5,Win32,59.95203837,60a2bf8caed2e8c3b108588b,64c7fed44a04f777bb1e18ce,64c80154548c6b5d0d21eaf5,right,-1,0.75,0.05,1,0.039796263,0.419,21,0,21,0,1,,,,,,,,,,
,,299977,001,2023-07-31_21h04.51.851,arm3_eps,2022.2.5,Win32,59.95203837,60a2bf8caed2e8c3b108588b,64c7fed44a04f777bb1e18ce,64c80154548c6b5d0d21eaf5,up,-1,0.75,0.05,0,0,0.503,22,0,22,0,1,,,,,,,,,,
,,299977,001,2023-07-31_21h04.51.851,arm3_eps,2022.2.5,Win32,59.95203837,60a2bf8caed2e8c3b108588b,64c7fed44a04f777bb1e18ce,64c80154548c6b5d0d21eaf5,right,-1,0.75,0.05,0,-0.048012358,1.058,23,0,23,0,1,,,,,,,,,,
,,299977,001,2023-07-31_21h04.51.851,arm3_eps,2022.2.5,Win32,59.95203837,60a2bf8caed2e8c3b108588b,64c7fed44a04f777bb1e18ce,64c80154548c6b5d0d21eaf5,right,-1,0.75,0.05,0,-0.072659451,0.287,24,0,24,0,1,,,,,,,,,,
,,299977,001,2023-07-31_21h04.51.851,arm3_eps,2022.2.5,Win32,59.95203837,60a2bf8caed2e8c3b108588b,64c7fed44a04f777bb1e18ce,64c80154548c6b5d0d21eaf5,down,-1,0.75,0.05,0,0,0.548,25,0,25,0,1,,,,,,,,,,
,,299977,001,2023-07-31_21h04.51.851,arm3_eps,2022.2.5,Win32,59.95203837,60a2bf8caed2e8c3b108588b,64c7fed44a04f777bb1e18ce,64c80154548c6b5d0d21eaf5,right,-1,0.75,0.05,0,0.015017035,0.943,26,0,26,0,1,,,,,,,,,,
,,299977,001,2023-07-31_21h04.51.851,arm3_eps,2022.2.5,Win32,59.95203837,60a2bf8caed2e8c3b108588b,64c7fed44a04f777bb1e18ce,64c80154548c6b5d0d21eaf5,right,-1,0.75,0.05,0,-0.018574511,0.256,27,0,27,0,1,,,,,,,,,,
,,299977,001,2023-07-31_21h04.51.851,arm3_eps,2022.2.5,Win32,59.95203837,60a2bf8caed2e8c3b108588b,64c7fed44a04f777bb1e18ce,64c80154548c6b5d0d21eaf5,right,-1,0.75,0.05,0,-0.030109963,0.321,28,0,28,0,1,,,,,,,,,,
,,299977,001,2023-07-31_21h04.51.851,arm3_eps,2022.2.5,Win32,59.95203837,60a2bf8caed2e8c3b108588b,64c7fed44a04f777bb1e18ce,64c80154548c6b5d0d21eaf5,up,-1,0.75,0.05,0,0,0.773,29,0,29,0,1,,,,,,,,,,
,,299977,001,2023-07-31_21h04.51.851,arm3_eps,2022.2.5,Win32,59.95203837,60a2bf8caed2e8c3b108588b,64c7fed44a04f777bb1e18ce,64c80154548c6b5d0d21eaf5,right,-1,0.75,0.05,0,-0.010032926,0.838,30,0,30,0,1,,,,,,,,,,
,,299977,001,2023-07-31_21h04.51.851,arm3_eps,2022.2.5,Win32,59.95203837,60a2bf8caed2e8c3b108588b,64c7fed44a04f777bb1e18ce,64c80154548c6b5d0d21eaf5,right,-1,0.75,0.05,0,-0.027893872,0.275,31,0,31,0,1,,,,,,,,,,
,,299977,001,2023-07-31_21h04.51.851,arm3_eps,2022.2.5,Win32,59.95203837,60a2bf8caed2e8c3b108588b,64c7fed44a04f777bb1e18ce,64c80154548c6b5d0d21eaf5,right,-1,0.75,0.05,0,0.00495401,0.51,32,0,32,0,1,,,,,,,,,,
,,299977,001,2023-07-31_21h04.51.851,arm3_eps,2022.2.5,Win32,59.95203837,60a2bf8caed2e8c3b108588b,64c7fed44a04f777bb1e18ce,64c80154548c6b5d0d21eaf5,right,-1,0.75,0.05,0,-0.005532489,0.618,33,0,33,0,1,,,,,,,,,,
,,299977,001,2023-07-31_21h04.51.851,arm3_eps,2022.2.5,Win32,59.95203837,60a2bf8caed2e8c3b108588b,64c7fed44a04f777bb1e18ce,64c80154548c6b5d0d21eaf5,up,-1,0.75,0.05,-1,0,0.795,34,0,34,0,1,,,,,,,,,,
,,299977,001,2023-07-31_21h04.51.851,arm3_eps,2022.2.5,Win32,59.95203837,60a2bf8caed2e8c3b108588b,64c7fed44a04f777bb1e18ce,64c80154548c6b5d0d21eaf5,right,-1,0.75,0.05,-1,-0.03167312,0.889,35,0,35,0,1,,,,,,,,,,
,,299977,001,2023-07-31_21h04.51.851,arm3_eps,2022.2.5,Win32,59.95203837,60a2bf8caed2e8c3b108588b,64c7fed44a04f777bb1e18ce,64c80154548c6b5d0d21eaf5,right,-1,0.75,0.05,-1,-0.042803403,0.235,36,0,36,0,1,,,,,,,,,,
,,299977,001,2023-07-31_21h04.51.851,arm3_eps,2022.2.5,Win32,59.95203837,60a2bf8caed2e8c3b108588b,64c7fed44a04f777bb1e18ce,64c80154548c6b5d0d21eaf5,right,-1,0.75,0.05,-1,-0.009397147,0.393,37,0,37,0,1,,,,,,,,,,
,,299977,001,2023-07-31_21h04.51.851,arm3_eps,2022.2.5,Win32,59.95203837,60a2bf8caed2e8c3b108588b,64c7fed44a04f777bb1e18ce,64c80154548c6b5d0d21eaf5,right,-1,0.75,0.05,-1,-0.015155814,0.376,38,0,38,0,1,,,,,,,,,,
,,299977,001,2023-07-31_21h04.51.851,arm3_eps,2022.2.5,Win32,59.95203837,60a2bf8caed2e8c3b108588b,64c7fed44a04f777bb1e18ce,64c80154548c6b5d0d21eaf5,right,-1,0.75,0.05,-1,-0.000993615,0.394,39,0,39,0,1,,,,,,,,,,
,,299977,001,2023-07-31_21h04.51.851,arm3_eps,2022.2.5,Win32,59.95203837,60a2bf8caed2e8c3b108588b,64c7fed44a04f777bb1e18ce,64c80154548c6b5d0d21eaf5,down,-1,0.75,0.05,0,0,0.895,40,0,40,0,1,,,,,,,,,,
,,299977,001,2023-07-31_21h04.51.851,arm3_eps,2022.2.5,Win32,59.95203837,60a2bf8caed2e8c3b108588b,64c7fed44a04f777bb1e18ce,64c80154548c6b5d0d21eaf5,right,-1,0.75,0.05,0,0.003232123,0.979,41,0,41,0,1,,,,,,,,,,
,,299977,001,2023-07-31_21h04.51.851,arm3_eps,2022.2.5,Win32,59.95203837,60a2bf8caed2e8c3b108588b,64c7fed44a04f777bb1e18ce,64c80154548c6b5d0d21eaf5,right,-1,0.75,0.05,0,-0.006735451,0.311,42,0,42,0,1,,,,,,,,,,
,,299977,001,2023-07-31_21h04.51.851,arm3_eps,2022.2.5,Win32,59.95203837,60a2bf8caed2e8c3b108588b,64c7fed44a04f777bb1e18ce,64c80154548c6b5d0d21eaf5,right,-1,0.75,0.05,0,-0.026804121,0.357,43,0,43,0,1,,,,,,,,,,
,,299977,001,2023-07-31_21h04.51.851,arm3_eps,2022.2.5,Win32,59.95203837,60a2bf8caed2e8c3b108588b,64c7fed44a04f777bb1e18ce,64c80154548c6b5d0d21eaf5,right,-1,0.75,0.05,0,-0.028438077,0.327,44,0,44,0,1,,,,,,,,,,
,,299977,001,2023-07-31_21h04.51.851,arm3_eps,2022.2.5,Win32,59.95203837,60a2bf8caed2e8c3b108588b,64c7fed44a04f777bb1e18ce,64c80154548c6b5d0d21eaf5,up,-1,0.75,0.05,0,0,0.935,45,0,45,0,1,,,,,,,,,,
,,299977,001,2023-07-31_21h04.51.851,arm3_eps,2022.2.5,Win32,59.95203837,60a2bf8caed2e8c3b108588b,64c7fed44a04f777bb1e18ce,64c80154548c6b5d0d21eaf5,right,-1,0.75,0.05,0,-0.016526627,0.871,46,0,46,0,1,,,,,,,,,,
,,299977,001,2023-07-31_21h04.51.851,arm3_eps,2022.2.5,Win32,59.95203837,60a2bf8caed2e8c3b108588b,64c7fed44a04f777bb1e18ce,64c80154548c6b5d0d21eaf5,right,-1,0.75,0.05,0,-0.020162939,0.215,47,0,47,0,1,,,,,,,,,,
,,299977,001,2023-07-31_21h04.51.851,arm3_eps,2022.2.5,Win32,59.95203837,60a2bf8caed2e8c3b108588b,64c7fed44a04f777bb1e18ce,64c80154548c6b5d0d21eaf5,right,-1,0.75,0.05,0,-0.019027655,0.256,48,0,48,0,1,,,,,,,,,,
,,299977,001,2023-07-31_21h04.51.851,arm3_eps,2022.2.5,Win32,59.95203837,60a2bf8caed2e8c3b108588b,64c7fed44a04f777bb1e18ce,64c80154548c6b5d0d21eaf5,right,-1,0.75,0.05,0,-0.020755946,0.31,49,0,49,0,1,,,,,,,,,,
space,5.055,299977,001,2023-07-31_21h04.51.851,arm3_eps,2022.2.5,Win32,59.95203837,60a2bf8caed2e8c3b108588b,64c7fed44a04f777bb1e18ce,64c80154548c6b5d0d21eaf5,,,,,,,,,,,,,,,,,,,,,,
space,1.602,299977,001,2023-07-31_21h04.51.851,arm3_eps,2022.2.5,Win32,59.95203837,60a2bf8caed2e8c3b108588b,64c7fed44a04f777bb1e18ce,64c80154548c6b5d0d21eaf5,,,,,,,,,,,,,,,,,,,,,,
,,299977,001,2023-07-31_21h04.51.851,arm3_eps,2022.2.5,Win32,59.95203837,60a2bf8caed2e8c3b108588b,64c7fed44a04f777bb1e18ce,64c80154548c6b5d0d21eaf5,right,-1,0.75,0.5,0,-0.035055567,1.254,0,0,0,0,1,,,,,,,,,,
,,299977,001,2023-07-31_21h04.51.851,arm3_eps,2022.2.5,Win32,59.95203837,60a2bf8caed2e8c3b108588b,64c7fed44a04f777bb1e18ce,64c80154548c6b5d0d21eaf5,right,-1,0.75,0.5,0,-0.023373005,0.439,1,0,1,0,1,,,,,,,,,,
,,299977,001,2023-07-31_21h04.51.851,arm3_eps,2022.2.5,Win32,59.95203837,60a2bf8caed2e8c3b108588b,64c7fed44a04f777bb1e18ce,64c80154548c6b5d0d21eaf5,down,1,0.75,0.5,1,0,0.312,2,0,2,0,1,,,,,,,,,,
,,299977,001,2023-07-31_21h04.51.851,arm3_eps,2022.2.5,Win32,59.95203837,60a2bf8caed2e8c3b108588b,64c7fed44a04f777bb1e18ce,64c80154548c6b5d0d21eaf5,right,1,0.75,0.5,1,0.026710405,1.096,3,0,3,0,1,,,,,,,,,,
,,299977,001,2023-07-31_21h04.51.851,arm3_eps,2022.2.5,Win32,59.95203837,60a2bf8caed2e8c3b108588b,64c7fed44a04f777bb1e18ce,64c80154548c6b5d0d21eaf5,right,1,0.75,0.5,1,0.018697245,0.383,4,0,4,0,1,,,,,,,,,,
,,299977,001,2023-07-31_21h04.51.851,arm3_eps,2022.2.5,Win32,59.95203837,60a2bf8caed2e8c3b108588b,64c7fed44a04f777bb1e18ce,64c80154548c6b5d0d21eaf5,right,1,0.75,0.5,1,0.033319841,0.29,5,0,5,0,1,,,,,,,,,,
,,299977,001,2023-07-31_21h04.51.851,arm3_eps,2022.2.5,Win32,59.95203837,60a2bf8caed2e8c3b108588b,64c7fed44a04f777bb1e18ce,64c80154548c6b5d0d21eaf5,right,1,0.75,0.5,1,0.054943974,0.395,6,0,6,0,1,,,,,,,,,,
,,299977,001,2023-07-31_21h04.51.851,arm3_eps,2022.2.5,Win32,59.95203837,60a2bf8caed2e8c3b108588b,64c7fed44a04f777bb1e18ce,64c80154548c6b5d0d21eaf5,up,-1,0.75,0.5,1,0,0.373,7,0,7,0,1,,,,,,,,,,
,,299977,001,2023-07-31_21h04.51.851,arm3_eps,2022.2.5,Win32,59.95203837,60a2bf8caed2e8c3b108588b,64c7fed44a04f777bb1e18ce,64c80154548c6b5d0d21eaf5,right,-1,0.75,0.5,1,0.001392104,0.806,8,0,8,0,1,,,,,,,,,,
,,299977,001,2023-07-31_21h04.51.851,arm3_eps,2022.2.5,Win32,59.95203837,60a2bf8caed2e8c3b108588b,64c7fed44a04f777bb1e18ce,64c80154548c6b5d0d21eaf5,right,-1,0.75,0.5,1,0.015054206,0.318,9,0,9,0,1,,,,,,,,,,
,,299977,001,2023-07-31_21h04.51.851,arm3_eps,2022.2.5,Win32,59.95203837,60a2bf8caed2e8c3b108588b,64c7fed44a04f777bb1e18ce,64c80154548c6b5d0d21eaf5,down,1,0.75,0.5,2,0,0.866,10,0,10,0,1,,,,,,,,,,
,,299977,001,2023-07-31_21h04.51.851,arm3_eps,2022.2.5,Win32,59.95203837,60a2bf8caed2e8c3b108588b,64c7fed44a04f777bb1e18ce,64c80154548c6b5d0d21eaf5,right,1,0.75,0.5,2,-0.001037949,0.804,11,0,11,0,1,,,,,,,,,,
,,299977,001,2023-07-31_21h04.51.851,arm3_eps,2022.2.5,Win32,59.95203837,60a2bf8caed2e8c3b108588b,64c7fed44a04f777bb1e18ce,64c80154548c6b5d0d21eaf5,right,1,0.75,0.5,2,0.031515563,0.326,12,0,12,0,1,,,,,,,,,,
,,299977,001,2023-07-31_21h04.51.851,arm3_eps,2022.2.5,Win32,59.95203837,60a2bf8caed2e8c3b108588b,64c7fed44a04f777bb1e18ce,64c80154548c6b5d0d21eaf5,down,1,0.75,0.5,1,0,0.78,13,0,13,0,1,,,,,,,,,,
,,299977,001,2023-07-31_21h04.51.851,arm3_eps,2022.2.5,Win32,59.95203837,60a2bf8caed2e8c3b108588b,64c7fed44a04f777bb1e18ce,64c80154548c6b5d0d21eaf5,right,1,0.75,0.5,1,0.019642618,0.852,14,0,14,0,1,,,,,,,,,,
,,299977,001,2023-07-31_21h04.51.851,arm3_eps,2022.2.5,Win32,59.95203837,60a2bf8caed2e8c3b108588b,64c7fed44a04f777bb1e18ce,64c80154548c6b5d0d21eaf5,right,1,0.75,0.5,1,0.036162452,0.279,15,0,15,0,1,,,,,,,,,,
,,299977,001,2023-07-31_21h04.51.851,arm3_eps,2022.2.5,Win32,59.95203837,60a2bf8caed2e8c3b108588b,64c7fed44a04f777bb1e18ce,64c80154548c6b5d0d21eaf5,right,1,0.75,0.5,1,0.021443455,0.307,16,0,16,0,1,,,,,,,,,,
,,299977,001,2023-07-31_21h04.51.851,arm3_eps,2022.2.5,Win32,59.95203837,60a2bf8caed2e8c3b108588b,64c7fed44a04f777bb1e18ce,64c80154548c6b5d0d21eaf5,up,1,0.75,0.5,2,0,0.779,17,0,17,0,1,,,,,,,,,,
,,299977,001,2023-07-31_21h04.51.851,arm3_eps,2022.2.5,Win32,59.95203837,60a2bf8caed2e8c3b108588b,64c7fed44a04f777bb1e18ce,64c80154548c6b5d0d21eaf5,right,1,0.75,0.5,2,0.011404753,0.873,18,0,18,0,1,,,,,,,,,,
,,299977,001,2023-07-31_21h04.51.851,arm3_eps,2022.2.5,Win32,59.95203837,60a2bf8caed2e8c3b108588b,64c7fed44a04f777bb1e18ce,64c80154548c6b5d0d21eaf5,right,1,0.75,0.5,2,0.022055712,0.28,19,0,19,0,1,,,,,,,,,,
,,299977,001,2023-07-31_21h04.51.851,arm3_eps,2022.2.5,Win32,59.95203837,60a2bf8caed2e8c3b108588b,64c7fed44a04f777bb1e18ce,64c80154548c6b5d0d21eaf5,right,1,0.75,0.5,2,0.065779024,0.451,20,0,20,0,1,,,,,,,,,,
,,299977,001,2023-07-31_21h04.51.851,arm3_eps,2022.2.5,Win32,59.95203837,60a2bf8caed2e8c3b108588b,64c7fed44a04f777bb1e18ce,64c80154548c6b5d0d21eaf5,up,1,0.75,0.5,3,0,0.735,21,0,21,0,1,,,,,,,,,,
,,299977,001,2023-07-31_21h04.51.851,arm3_eps,2022.2.5,Win32,59.95203837,60a2bf8caed2e8c3b108588b,64c7fed44a04f777bb1e18ce,64c80154548c6b5d0d21eaf5,right,1,0.75,0.5,3,0.04175773,0.89,22,0,22,0,1,,,,,,,,,,
,,299977,001,2023-07-31_21h04.51.851,arm3_eps,2022.2.5,Win32,59.95203837,60a2bf8caed2e8c3b108588b,64c7fed44a04f777bb1e18ce,64c80154548c6b5d0d21eaf5,right,1,0.75,0.5,3,0.062202185,0.292,23,0,23,0,1,,,,,,,,,,
,,299977,001,2023-07-31_21h04.51.851,arm3_eps,2022.2.5,Win32,59.95203837,60a2bf8caed2e8c3b108588b,64c7fed44a04f777bb1e18ce,64c80154548c6b5d0d21eaf5,right,1,0.75,0.5,3,0.082106572,0.809,24,0,24,0,1,,,,,,,,,,
,,299977,001,2023-07-31_21h04.51.851,arm3_eps,2022.2.5,Win32,59.95203837,60a2bf8caed2e8c3b108588b,64c7fed44a04f777bb1e18ce,64c80154548c6b5d0d21eaf5,up,-1,0.75,0.5,4,0,0.375,25,0,25,0,1,,,,,,,,,,
,,299977,001,2023-07-31_21h04.51.851,arm3_eps,2022.2.5,Win32,59.95203837,60a2bf8caed2e8c3b108588b,64c7fed44a04f777bb1e18ce,64c80154548c6b5d0d21eaf5,right,-1,0.75,0.5,4,-0.007311535,0.835,26,0,26,0,1,,,,,,,,,,
,,299977,001,2023-07-31_21h04.51.851,arm3_eps,2022.2.5,Win32,59.95203837,60a2bf8caed2e8c3b108588b,64c7fed44a04f777bb1e18ce,64c80154548c6b5d0d21eaf5,right,-1,0.75,0.5,4,-0.020885372,0.441,27,0,27,0,1,,,,,,,,,,
,,299977,001,2023-07-31_21h04.51.851,arm3_eps,2022.2.5,Win32,59.95203837,60a2bf8caed2e8c3b108588b,64c7fed44a04f777bb1e18ce,64c80154548c6b5d0d21eaf5,right,-1,0.75,0.5,4,-0.027767436,0.358,28,0,28,0,1,,,,,,,,,,
,,299977,001,2023-07-31_21h04.51.851,arm3_eps,2022.2.5,Win32,59.95203837,60a2bf8caed2e8c3b108588b,64c7fed44a04f777bb1e18ce,64c80154548c6b5d0d21eaf5,down,1,0.75,0.5,5,0,0.411,29,0,29,0,1,,,,,,,,,,
,,299977,001,2023-07-31_21h04.51.851,arm3_eps,2022.2.5,Win32,59.95203837,60a2bf8caed2e8c3b108588b,64c7fed44a04f777bb1e18ce,64c80154548c6b5d0d21eaf5,right,1,0.75,0.5,5,0.019916234,0.934,30,0,30,0,1,,,,,,,,,,
,,299977,001,2023-07-31_21h04.51.851,arm3_eps,2022.2.5,Win32,59.95203837,60a2bf8caed2e8c3b108588b,64c7fed44a04f777bb1e18ce,64c80154548c6b5d0d21eaf5,right,1,0.75,0.5,5,0.033922337,0.276,31,0,31,0,1,,,,,,,,,,
,,299977,001,2023-07-31_21h04.51.851,arm3_eps,2022.2.5,Win32,59.95203837,60a2bf8caed2e8c3b108588b,64c7fed44a04f777bb1e18ce,64c80154548c6b5d0d21eaf5,right,1,0.75,0.5,5,0.0261345,0.313,32,0,32,0,1,,,,,,,,,,
,,299977,001,2023-07-31_21h04.51.851,arm3_eps,2022.2.5,Win32,59.95203837,60a2bf8caed2e8c3b108588b,64c7fed44a04f777bb1e18ce,64c80154548c6b5d0d21eaf5,up,-1,0.75,0.5,5,0,0.576,33,0,33,0,1,,,,,,,,,,
,,299977,001,2023-07-31_21h04.51.851,arm3_eps,2022.2.5,Win32,59.95203837,60a2bf8caed2e8c3b108588b,64c7fed44a04f777bb1e18ce,64c80154548c6b5d0d21eaf5,right,-1,0.75,0.5,5,-0.015620109,0.842,34,0,34,0,1,,,,,,,,,,
,,299977,001,2023-07-31_21h04.51.851,arm3_eps,2022.2.5,Win32,59.95203837,60a2bf8caed2e8c3b108588b,64c7fed44a04f777bb1e18ce,64c80154548c6b5d0d21eaf5,right,-1,0.75,0.5,5,-0.032166857,0.314,35,0,35,0,1,,,,,,,,,,
,,299977,001,2023-07-31_21h04.51.851,arm3_eps,2022.2.5,Win32,59.95203837,60a2bf8caed2e8c3b108588b,64c7fed44a04f777bb1e18ce,64c80154548c6b5d0d21eaf5,right,-1,0.75,0.5,5,-0.03097408,0.278,36,0,36,0,1,,,,,,,,,,
,,299977,001,2023-07-31_21h04.51.851,arm3_eps,2022.2.5,Win32,59.95203837,60a2bf8caed2e8c3b108588b,64c7fed44a04f777bb1e18ce,64c80154548c6b5d0d21eaf5,down,-1,0.75,0.5,6,0,0.682,37,0,37,0,1,,,,,,,,,,
,,299977,001,2023-07-31_21h04.51.851,arm3_eps,2022.2.5,Win32,59.95203837,60a2bf8caed2e8c3b108588b,64c7fed44a04f777bb1e18ce,64c80154548c6b5d0d21eaf5,right,-1,0.75,0.5,6,-0.048297428,0.935,38,0,38,0,1,,,,,,,,,,
,,299977,001,2023-07-31_21h04.51.851,arm3_eps,2022.2.5,Win32,59.95203837,60a2bf8caed2e8c3b108588b,64c7fed44a04f777bb1e18ce,64c80154548c6b5d0d21eaf5,right,-1,0.75,0.5,6,-0.05271558,0.496,39,0,39,0,1,,,,,,,,,,
,,299977,001,2023-07-31_21h04.51.851,arm3_eps,2022.2.5,Win32,59.95203837,60a2bf8caed2e8c3b108588b,64c7fed44a04f777bb1e18ce,64c80154548c6b5d0d21eaf5,down,-1,0.75,0.5,6,0,0.544,40,0,40,0,1,,,,,,,,,,
,,299977,001,2023-07-31_21h04.51.851,arm3_eps,2022.2.5,Win32,59.95203837,60a2bf8caed2e8c3b108588b,64c7fed44a04f777bb1e18ce,64c80154548c6b5d0d21eaf5,right,-1,0.75,0.5,6,-0.033535199,0.842,41,0,41,0,1,,,,,,,,,,
,,299977,001,2023-07-31_21h04.51.851,arm3_eps,2022.2.5,Win32,59.95203837,60a2bf8caed2e8c3b108588b,64c7fed44a04f777bb1e18ce,64c80154548c6b5d0d21eaf5,right,-1,0.75,0.5,6,-0.054201325,0.283,42,0,42,0,1,,,,,,,,,,
,,299977,001,2023-07-31_21h04.51.851,arm3_eps,2022.2.5,Win32,59.95203837,60a2bf8caed2e8c3b108588b,64c7fed44a04f777bb1e18ce,64c80154548c6b5d0d21eaf5,right,-1,0.75,0.5,6,-0.055699369,0.299,43,0,43,0,1,,,,,,,,,,
,,299977,001,2023-07-31_21h04.51.851,arm3_eps,2022.2.5,Win32,59.95203837,60a2bf8caed2e8c3b108588b,64c7fed44a04f777bb1e18ce,64c80154548c6b5d0d21eaf5,down,-1,0.75,0.5,7,0,0.316,44,0,44,0,1,,,,,,,,,,
,,299977,001,2023-07-31_21h04.51.851,arm3_eps,2022.2.5,Win32,59.95203837,60a2bf8caed2e8c3b108588b,64c7fed44a04f777bb1e18ce,64c80154548c6b5d0d21eaf5,right,-1,0.75,0.5,7,-0.021971088,1.132,45,0,45,0,1,,,,,,,,,,
,,299977,001,2023-07-31_21h04.51.851,arm3_eps,2022.2.5,Win32,59.95203837,60a2bf8caed2e8c3b108588b,64c7fed44a04f777bb1e18ce,64c80154548c6b5d0d21eaf5,right,-1,0.75,0.5,7,-0.010562516,0.243,46,0,46,0,1,,,,,,,,,,
,,299977,001,2023-07-31_21h04.51.851,arm3_eps,2022.2.5,Win32,59.95203837,60a2bf8caed2e8c3b108588b,64c7fed44a04f777bb1e18ce,64c80154548c6b5d0d21eaf5,right,-1,0.75,0.5,7,-0.018800706,0.499,47,0,47,0,1,,,,,,,,,,
,,299977,001,2023-07-31_21h04.51.851,arm3_eps,2022.2.5,Win32,59.95203837,60a2bf8caed2e8c3b108588b,64c7fed44a04f777bb1e18ce,64c80154548c6b5d0d21eaf5,up,-1,0.75,0.5,7,0,0.975,48,0,48,0,1,,,,,,,,,,
,,299977,001,2023-07-31_21h04.51.851,arm3_eps,2022.2.5,Win32,59.95203837,60a2bf8caed2e8c3b108588b,64c7fed44a04f777bb1e18ce,64c80154548c6b5d0d21eaf5,right,-1,0.75,0.5,7,0.001659877,0.886,49,0,49,0,1,,,,,,,,,,
space,2.68,299977,001,2023-07-31_21h04.51.851,arm3_eps,2022.2.5,Win32,59.95203837,60a2bf8caed2e8c3b108588b,64c7fed44a04f777bb1e18ce,64c80154548c6b5d0d21eaf5,,,,,,,,,,,,,,,,,,,,,,
space,3.143,299977,001,2023-07-31_21h04.51.851,arm3_eps,2022.2.5,Win32,59.95203837,60a2bf8caed2e8c3b108588b,64c7fed44a04f777bb1e18ce,64c80154548c6b5d0d21eaf5,right,-1,0.75,0.3071,0,0.005782331,0.883,,,,,,0,0,0,0,1,,,,,
,,299977,001,2023-07-31_21h04.51.851,arm3_eps,2022.2.5,Win32,59.95203837,60a2bf8caed2e8c3b108588b,64c7fed44a04f777bb1e18ce,64c80154548c6b5d0d21eaf5,right,-1,0.75,0.3071,0,-0.04060126,0.447,,,,,,1,0,1,0,1,,,,,
,,299977,001,2023-07-31_21h04.51.851,arm3_eps,2022.2.5,Win32,59.95203837,60a2bf8caed2e8c3b108588b,64c7fed44a04f777bb1e18ce,64c80154548c6b5d0d21eaf5,down,1,0.75,0.3071,0,0,0.978,,,,,,2,0,2,0,1,,,,,
,,299977,001,2023-07-31_21h04.51.851,arm3_eps,2022.2.5,Win32,59.95203837,60a2bf8caed2e8c3b108588b,64c7fed44a04f777bb1e18ce,64c80154548c6b5d0d21eaf5,right,1,0.75,0.3071,0,0.0266203,0.941,,,,,,3,0,3,0,1,,,,,
,,299977,001,2023-07-31_21h04.51.851,arm3_eps,2022.2.5,Win32,59.95203837,60a2bf8caed2e8c3b108588b,64c7fed44a04f777bb1e18ce,64c80154548c6b5d0d21eaf5,right,1,0.75,0.3071,0,0.020438568,0.337,,,,,,4,0,4,0,1,,,,,
,,299977,001,2023-07-31_21h04.51.851,arm3_eps,2022.2.5,Win32,59.95203837,60a2bf8caed2e8c3b108588b,64c7fed44a04f777bb1e18ce,64c80154548c6b5d0d21eaf5,up,1,0.75,0.3071,1,0,0.707,,,,,,5,0,5,0,1,,,,,
,,299977,001,2023-07-31_21h04.51.851,arm3_eps,2022.2.5,Win32,59.95203837,60a2bf8caed2e8c3b108588b,64c7fed44a04f777bb1e18ce,64c80154548c6b5d0d21eaf5,right,1,0.75,0.3071,1,-0.020127243,0.999,,,,,,6,0,6,0,1,,,,,
,,299977,001,2023-07-31_21h04.51.851,arm3_eps,2022.2.5,Win32,59.95203837,60a2bf8caed2e8c3b108588b,64c7fed44a04f777bb1e18ce,64c80154548c6b5d0d21eaf5,right,1,0.75,0.3071,1,-0.038518838,0.348,,,,,,7,0,7,0,1,,,,,
,,299977,001,2023-07-31_21h04.51.851,arm3_eps,2022.2.5,Win32,59.95203837,60a2bf8caed2e8c3b108588b,64c7fed44a04f777bb1e18ce,64c80154548c6b5d0d21eaf5,down,-1,0.75,0.3071,0,0,0.396,,,,,,8,0,8,0,1,,,,,
,,299977,001,2023-07-31_21h04.51.851,arm3_eps,2022.2.5,Win32,59.95203837,60a2bf8caed2e8c3b108588b,64c7fed44a04f777bb1e18ce,64c80154548c6b5d0d21eaf5,right,-1,0.75,0.3071,0,0.030837462,0.901,,,,,,9,0,9,0,1,,,,,
,,299977,001,2023-07-31_21h04.51.851,arm3_eps,2022.2.5,Win32,59.95203837,60a2bf8caed2e8c3b108588b,64c7fed44a04f777bb1e18ce,64c80154548c6b5d0d21eaf5,right,-1,0.75,0.3071,0,0.014941591,0.26,,,,,,10,0,10,0,1,,,,,
,,299977,001,2023-07-31_21h04.51.851,arm3_eps,2022.2.5,Win32,59.95203837,60a2bf8caed2e8c3b108588b,64c7fed44a04f777bb1e18ce,64c80154548c6b5d0d21eaf5,down,-1,0.75,0.3071,0,0,0.781,,,,,,11,0,11,0,1,,,,,
,,299977,001,2023-07-31_21h04.51.851,arm3_eps,2022.2.5,Win32,59.95203837,60a2bf8caed2e8c3b108588b,64c7fed44a04f777bb1e18ce,64c80154548c6b5d0d21eaf5,right,-1,0.75,0.3071,0,-0.00795982,0.726,,,,,,12,0,12,0,1,,,,,
,,299977,001,2023-07-31_21h04.51.851,arm3_eps,2022.2.5,Win32,59.95203837,60a2bf8caed2e8c3b108588b,64c7fed44a04f777bb1e18ce,64c80154548c6b5d0d21eaf5,right,-1,0.75,0.3071,0,-0.017509783,0.242,,,,,,13,0,13,0,1,,,,,
,,299977,001,2023-07-31_21h04.51.851,arm3_eps,2022.2.5,Win32,59.95203837,60a2bf8caed2e8c3b108588b,64c7fed44a04f777bb1e18ce,64c80154548c6b5d0d21eaf5,up,-1,0.75,0.3071,0,0,1.076,,,,,,14,0,14,0,1,,,,,
,,299977,001,2023-07-31_21h04.51.851,arm3_eps,2022.2.5,Win32,59.95203837,60a2bf8caed2e8c3b108588b,64c7fed44a04f777bb1e18ce,64c80154548c6b5d0d21eaf5,right,-1,0.75,0.3071,0,-0.009579075,0.917,,,,,,15,0,15,0,1,,,,,
,,299977,001,2023-07-31_21h04.51.851,arm3_eps,2022.2.5,Win32,59.95203837,60a2bf8caed2e8c3b108588b,64c7fed44a04f777bb1e18ce,64c80154548c6b5d0d21eaf5,right,-1,0.75,0.3071,0,-0.038258754,0.227,,,,,,16,0,16,0,1,,,,,
,,299977,001,2023-07-31_21h04.51.851,arm3_eps,2022.2.5,Win32,59.95203837,60a2bf8caed2e8c3b108588b,64c7fed44a04f777bb1e18ce,64c80154548c6b5d0d21eaf5,down,-1,0.75,0.3071,1,0,0.547,,,,,,17,0,17,0,1,,,,,
,,299977,001,2023-07-31_21h04.51.851,arm3_eps,2022.2.5,Win32,59.95203837,60a2bf8caed2e8c3b108588b,64c7fed44a04f777bb1e18ce,64c80154548c6b5d0d21eaf5,right,-1,0.75,0.3071,1,0.005394058,0.845,,,,,,18,0,18,0,1,,,,,
,,299977,001,2023-07-31_21h04.51.851,arm3_eps,2022.2.5,Win32,59.95203837,60a2bf8caed2e8c3b108588b,64c7fed44a04f777bb1e18ce,64c80154548c6b5d0d21eaf5,right,-1,0.75,0.3071,1,-0.011308486,0.261,,,,,,19,0,19,0,1,,,,,
,,299977,001,2023-07-31_21h04.51.851,arm3_eps,2022.2.5,Win32,59.95203837,60a2bf8caed2e8c3b108588b,64c7fed44a04f777bb1e18ce,64c80154548c6b5d0d21eaf5,right,-1,0.75,0.3071,1,-0.015976157,0.274,,,,,,20,0,20,0,1,,,,,
,,299977,001,2023-07-31_21h04.51.851,arm3_eps,2022.2.5,Win32,59.95203837,60a2bf8caed2e8c3b108588b,64c7fed44a04f777bb1e18ce,64c80154548c6b5d0d21eaf5,up,-1,0.75,0.3071,1,0,0.717,,,,,,21,0,21,0,1,,,,,
,,299977,001,2023-07-31_21h04.51.851,arm3_eps,2022.2.5,Win32,59.95203837,60a2bf8caed2e8c3b108588b,64c7fed44a04f777bb1e18ce,64c80154548c6b5d0d21eaf5,right,-1,0.75,0.3071,1,-0.028113413,0.855,,,,,,22,0,22,0,1,,,,,
,,299977,001,2023-07-31_21h04.51.851,arm3_eps,2022.2.5,Win32,59.95203837,60a2bf8caed2e8c3b108588b,64c7fed44a04f777bb1e18ce,64c80154548c6b5d0d21eaf5,right,-1,0.75,0.3071,1,-0.063480393,0.236,,,,,,23,0,23,0,1,,,,,
,,299977,001,2023-07-31_21h04.51.851,arm3_eps,2022.2.5,Win32,59.95203837,60a2bf8caed2e8c3b108588b,64c7fed44a04f777bb1e18ce,64c80154548c6b5d0d21eaf5,down,1,0.75,0.3071,1,0,0.672,,,,,,24,0,24,0,1,,,,,
,,299977,001,2023-07-31_21h04.51.851,arm3_eps,2022.2.5,Win32,59.95203837,60a2bf8caed2e8c3b108588b,64c7fed44a04f777bb1e18ce,64c80154548c6b5d0d21eaf5,right,1,0.75,0.3071,1,0.002912834,0.846,,,,,,25,0,25,0,1,,,,,
,,299977,001,2023-07-31_21h04.51.851,arm3_eps,2022.2.5,Win32,59.95203837,60a2bf8caed2e8c3b108588b,64c7fed44a04f777bb1e18ce,64c80154548c6b5d0d21eaf5,right,1,0.75,0.3071,1,0.032259282,0.426,,,,,,26,0,26,0,1,,,,,
,,299977,001,2023-07-31_21h04.51.851,arm3_eps,2022.2.5,Win32,59.95203837,60a2bf8caed2e8c3b108588b,64c7fed44a04f777bb1e18ce,64c80154548c6b5d0d21eaf5,up,1,0.75,0.3071,2,0,0.637,,,,,,27,0,27,0,1,,,,,
,,299977,001,2023-07-31_21h04.51.851,arm3_eps,2022.2.5,Win32,59.95203837,60a2bf8caed2e8c3b108588b,64c7fed44a04f777bb1e18ce,64c80154548c6b5d0d21eaf5,right,1,0.75,0.3071,2,0.008746619,0.853,,,,,,28,0,28,0,1,,,,,
,,299977,001,2023-07-31_21h04.51.851,arm3_eps,2022.2.5,Win32,59.95203837,60a2bf8caed2e8c3b108588b,64c7fed44a04f777bb1e18ce,64c80154548c6b5d0d21eaf5,right,1,0.75,0.3071,2,0.010027081,0.26,,,,,,29,0,29,0,1,,,,,
,,299977,001,2023-07-31_21h04.51.851,arm3_eps,2022.2.5,Win32,59.95203837,60a2bf8caed2e8c3b108588b,64c7fed44a04f777bb1e18ce,64c80154548c6b5d0d21eaf5,up,1,0.75,0.3071,2,0,0.794,,,,,,30,0,30,0,1,,,,,
,,299977,001,2023-07-31_21h04.51.851,arm3_eps,2022.2.5,Win32,59.95203837,60a2bf8caed2e8c3b108588b,64c7fed44a04f777bb1e18ce,64c80154548c6b5d0d21eaf5,right,1,0.75,0.3071,2,-0.005201482,0.668,,,,,,31,0,31,0,1,,,,,
,,299977,001,2023-07-31_21h04.51.851,arm3_eps,2022.2.5,Win32,59.95203837,60a2bf8caed2e8c3b108588b,64c7fed44a04f777bb1e18ce,64c80154548c6b5d0d21eaf5,right,1,0.75,0.3071,2,0.007681396,0.262,,,,,,32,0,32,0,1,,,,,
,,299977,001,2023-07-31_21h04.51.851,arm3_eps,2022.2.5,Win32,59.95203837,60a2bf8caed2e8c3b108588b,64c7fed44a04f777bb1e18ce,64c80154548c6b5d0d21eaf5,up,1,0.75,0.3071,3,0,0.615,,,,,,33,0,33,0,1,,,,,
,,299977,001,2023-07-31_21h04.51.851,arm3_eps,2022.2.5,Win32,59.95203837,60a2bf8caed2e8c3b108588b,64c7fed44a04f777bb1e18ce,64c80154548c6b5d0d21eaf5,right,1,0.75,0.3071,3,0.006642385,0.887,,,,,,34,0,34,0,1,,,,,
,,299977,001,2023-07-31_21h04.51.851,arm3_eps,2022.2.5,Win32,59.95203837,60a2bf8caed2e8c3b108588b,64c7fed44a04f777bb1e18ce,64c80154548c6b5d0d21eaf5,right,1,0.75,0.3071,3,0.018788211,0.207,,,,,,35,0,35,0,1,,,,,
,,299977,001,2023-07-31_21h04.51.851,arm3_eps,2022.2.5,Win32,59.95203837,60a2bf8caed2e8c3b108588b,64c7fed44a04f777bb1e18ce,64c80154548c6b5d0d21eaf5,up,1,0.75,0.3071,4,0,1.11,,,,,,36,0,36,0,1,,,,,
,,299977,001,2023-07-31_21h04.51.851,arm3_eps,2022.2.5,Win32,59.95203837,60a2bf8caed2e8c3b108588b,64c7fed44a04f777bb1e18ce,64c80154548c6b5d0d21eaf5,right,1,0.75,0.3071,4,-0.00903633,0.806,,,,,,37,0,37,0,1,,,,,
,,299977,001,2023-07-31_21h04.51.851,arm3_eps,2022.2.5,Win32,59.95203837,60a2bf8caed2e8c3b108588b,64c7fed44a04f777bb1e18ce,64c80154548c6b5d0d21eaf5,right,1,0.75,0.3071,4,0.009187801,0.279,,,,,,38,0,38,0,1,,,,,
,,299977,001,2023-07-31_21h04.51.851,arm3_eps,2022.2.5,Win32,59.95203837,60a2bf8caed2e8c3b108588b,64c7fed44a04f777bb1e18ce,64c80154548c6b5d0d21eaf5,up,1,0.75,0.3071,5,0,0.768,,,,,,39,0,39,0,1,,,,,
,,299977,001,2023-07-31_21h04.51.851,arm3_eps,2022.2.5,Win32,59.95203837,60a2bf8caed2e8c3b108588b,64c7fed44a04f777bb1e18ce,64c80154548c6b5d0d21eaf5,right,1,0.75,0.3071,5,0.046542163,0.782,,,,,,40,0,40,0,1,,,,,
,,299977,001,2023-07-31_21h04.51.851,arm3_eps,2022.2.5,Win32,59.95203837,60a2bf8caed2e8c3b108588b,64c7fed44a04f777bb1e18ce,64c80154548c6b5d0d21eaf5,right,1,0.75,0.3071,5,0.038553768,0.277,,,,,,41,0,41,0,1,,,,,
,,299977,001,2023-07-31_21h04.51.851,arm3_eps,2022.2.5,Win32,59.95203837,60a2bf8caed2e8c3b108588b,64c7fed44a04f777bb1e18ce,64c80154548c6b5d0d21eaf5,down,-1,0.75,0.3071,4,0,0.565,,,,,,42,0,42,0,1,,,,,
,,299977,001,2023-07-31_21h04.51.851,arm3_eps,2022.2.5,Win32,59.95203837,60a2bf8caed2e8c3b108588b,64c7fed44a04f777bb1e18ce,64c80154548c6b5d0d21eaf5,right,-1,0.75,0.3071,4,-0.010110324,0.8,,,,,,43,0,43,0,1,,,,,
,,299977,001,2023-07-31_21h04.51.851,arm3_eps,2022.2.5,Win32,59.95203837,60a2bf8caed2e8c3b108588b,64c7fed44a04f777bb1e18ce,64c80154548c6b5d0d21eaf5,right,-1,0.75,0.3071,4,-0.050351755,0.287,,,,,,44,0,44,0,1,,,,,
,,299977,001,2023-07-31_21h04.51.851,arm3_eps,2022.2.5,Win32,59.95203837,60a2bf8caed2e8c3b108588b,64c7fed44a04f777bb1e18ce,64c80154548c6b5d0d21eaf5,down,-1,0.75,0.3071,4,0,0.573,,,,,,45,0,45,0,1,,,,,
,,299977,001,2023-07-31_21h04.51.851,arm3_eps,2022.2.5,Win32,59.95203837,60a2bf8caed2e8c3b108588b,64c7fed44a04f777bb1e18ce,64c80154548c6b5d0d21eaf5,right,-1,0.75,0.3071,4,-0.004175038,1.235,,,,,,46,0,46,0,1,,,,,
,,299977,001,2023-07-31_21h04.51.851,arm3_eps,2022.2.5,Win32,59.95203837,60a2bf8caed2e8c3b108588b,64c7fed44a04f777bb1e18ce,64c80154548c6b5d0d21eaf5,right,-1,0.75,0.3071,4,-0.034943952,0.221,,,,,,47,0,47,0,1,,,,,
,,299977,001,2023-07-31_21h04.51.851,arm3_eps,2022.2.5,Win32,59.95203837,60a2bf8caed2e8c3b108588b,64c7fed44a04f777bb1e18ce,64c80154548c6b5d0d21eaf5,down,-1,0.75,0.3071,5,0,0.739,,,,,,48,0,48,0,1,,,,,
,,299977,001,2023-07-31_21h04.51.851,arm3_eps,2022.2.5,Win32,59.95203837,60a2bf8caed2e8c3b108588b,64c7fed44a04f777bb1e18ce,64c80154548c6b5d0d21eaf5,right,-1,0.75,0.3071,5,-0.005030639,0.817,,,,,,49,0,49,0,1,,,,,
,,299977,001,2023-07-31_21h04.51.851,arm3_eps,2022.2.5,Win32,59.95203837,60a2bf8caed2e8c3b108588b,64c7fed44a04f777bb1e18ce,64c80154548c6b5d0d21eaf5,right,-1,0.75,0.3071,5,-0.008203012,0.21,,,,,,50,0,50,0,1,,,,,
,,299977,001,2023-07-31_21h04.51.851,arm3_eps,2022.2.5,Win32,59.95203837,60a2bf8caed2e8c3b108588b,64c7fed44a04f777bb1e18ce,64c80154548c6b5d0d21eaf5,down,1,0.75,0.3071,6,0,0.505,,,,,,51,0,51,0,1,,,,,
,,299977,001,2023-07-31_21h04.51.851,arm3_eps,2022.2.5,Win32,59.95203837,60a2bf8caed2e8c3b108588b,64c7fed44a04f777bb1e18ce,64c80154548c6b5d0d21eaf5,right,1,0.75,0.3071,6,-0.018570237,0.825,,,,,,52,0,52,0,1,,,,,
,,299977,001,2023-07-31_21h04.51.851,arm3_eps,2022.2.5,Win32,59.95203837,60a2bf8caed2e8c3b108588b,64c7fed44a04f777bb1e18ce,64c80154548c6b5d0d21eaf5,right,1,0.75,0.3071,6,0.039602855,0.254,,,,,,53,0,53,0,1,,,,,
,,299977,001,2023-07-31_21h04.51.851,arm3_eps,2022.2.5,Win32,59.95203837,60a2bf8caed2e8c3b108588b,64c7fed44a04f777bb1e18ce,64c80154548c6b5d0d21eaf5,up,1,0.75,0.3071,7,0,0.607,,,,,,54,0,54,0,1,,,,,
,,299977,001,2023-07-31_21h04.51.851,arm3_eps,2022.2.5,Win32,59.95203837,60a2bf8caed2e8c3b108588b,64c7fed44a04f777bb1e18ce,64c80154548c6b5d0d21eaf5,right,1,0.75,0.3071,7,1.70573E-05,0.771,,,,,,55,0,55,0,1,,,,,
,,299977,001,2023-07-31_21h04.51.851,arm3_eps,2022.2.5,Win32,59.95203837,60a2bf8caed2e8c3b108588b,64c7fed44a04f777bb1e18ce,64c80154548c6b5d0d21eaf5,right,1,0.75,0.3071,7,0.010693001,0.277,,,,,,56,0,56,0,1,,,,,
,,299977,001,2023-07-31_21h04.51.851,arm3_eps,2022.2.5,Win32,59.95203837,60a2bf8caed2e8c3b108588b,64c7fed44a04f777bb1e18ce,64c80154548c6b5d0d21eaf5,up,1,0.75,0.3071,8,0,1.06,,,,,,57,0,57,0,1,,,,,
,,299977,001,2023-07-31_21h04.51.851,arm3_eps,2022.2.5,Win32,59.95203837,60a2bf8caed2e8c3b108588b,64c7fed44a04f777bb1e18ce,64c80154548c6b5d0d21eaf5,right,1,0.75,0.3071,8,0.019810433,0.767,,,,,,58,0,58,0,1,,,,,
,,299977,001,2023-07-31_21h04.51.851,arm3_eps,2022.2.5,Win32,59.95203837,60a2bf8caed2e8c3b108588b,64c7fed44a04f777bb1e18ce,64c80154548c6b5d0d21eaf5,right,1,0.75,0.3071,8,0.013164917,0.278,,,,,,59,0,59,0,1,,,,,
,,299977,001,2023-07-31_21h04.51.851,arm3_eps,2022.2.5,Win32,59.95203837,60a2bf8caed2e8c3b108588b,64c7fed44a04f777bb1e18ce,64c80154548c6b5d0d21eaf5,up,1,0.75,0.3071,9,0,0.571,,,,,,60,0,60,0,1,,,,,
,,299977,001,2023-07-31_21h04.51.851,arm3_eps,2022.2.5,Win32,59.95203837,60a2bf8caed2e8c3b108588b,64c7fed44a04f777bb1e18ce,64c80154548c6b5d0d21eaf5,right,1,0.75,0.3071,9,0.011114135,0.728,,,,,,61,0,61,0,1,,,,,
,,299977,001,2023-07-31_21h04.51.851,arm3_eps,2022.2.5,Win32,59.95203837,60a2bf8caed2e8c3b108588b,64c7fed44a04f777bb1e18ce,64c80154548c6b5d0d21eaf5,right,1,0.75,0.3071,9,0.043148485,0.253,,,,,,62,0,62,0,1,,,,,
,,299977,001,2023-07-31_21h04.51.851,arm3_eps,2022.2.5,Win32,59.95203837,60a2bf8caed2e8c3b108588b,64c7fed44a04f777bb1e18ce,64c80154548c6b5d0d21eaf5,up,-1,0.75,0.3071,10,0,0.405,,,,,,63,0,63,0,1,,,,,
,,299977,001,2023-07-31_21h04.51.851,arm3_eps,2022.2.5,Win32,59.95203837,60a2bf8caed2e8c3b108588b,64c7fed44a04f777bb1e18ce,64c80154548c6b5d0d21eaf5,right,-1,0.75,0.3071,10,-0.012191423,0.806,,,,,,64,0,64,0,1,,,,,
,,299977,001,2023-07-31_21h04.51.851,arm3_eps,2022.2.5,Win32,59.95203837,60a2bf8caed2e8c3b108588b,64c7fed44a04f777bb1e18ce,64c80154548c6b5d0d21eaf5,right,-1,0.75,0.3071,10,-0.017794667,0.242,,,,,,65,0,65,0,1,,,,,
,,299977,001,2023-07-31_21h04.51.851,arm3_eps,2022.2.5,Win32,59.95203837,60a2bf8caed2e8c3b108588b,64c7fed44a04f777bb1e18ce,64c80154548c6b5d0d21eaf5,down,1,0.75,0.3071,11,0,0.383,,,,,,66,0,66,0,1,,,,,
,,299977,001,2023-07-31_21h04.51.851,arm3_eps,2022.2.5,Win32,59.95203837,60a2bf8caed2e8c3b108588b,64c7fed44a04f777bb1e18ce,64c80154548c6b5d0d21eaf5,right,1,0.75,0.3071,11,-0.006683132,0.751,,,,,,67,0,67,0,1,,,,,
,,299977,001,2023-07-31_21h04.51.851,arm3_eps,2022.2.5,Win32,59.95203837,60a2bf8caed2e8c3b108588b,64c7fed44a04f777bb1e18ce,64c80154548c6b5d0d21eaf5,right,1,0.75,0.3071,11,-0.022511049,0.197,,,,,,68,0,68,0,1,,,,,
,,299977,001,2023-07-31_21h04.51.851,arm3_eps,2022.2.5,Win32,59.95203837,60a2bf8caed2e8c3b108588b,64c7fed44a04f777bb1e18ce,64c80154548c6b5d0d21eaf5,down,1,0.75,0.3071,10,0,0.58,,,,,,69,0,69,0,1,,,,,
,,299977,001,2023-07-31_21h04.51.851,arm3_eps,2022.2.5,Win32,59.95203837,60a2bf8caed2e8c3b108588b,64c7fed44a04f777bb1e18ce,64c80154548c6b5d0d21eaf5,right,1,0.75,0.3071,10,0.035410523,0.704,,,,,,70,0,70,0,1,,,,,
,,299977,001,2023-07-31_21h04.51.851,arm3_eps,2022.2.5,Win32,59.95203837,60a2bf8caed2e8c3b108588b,64c7fed44a04f777bb1e18ce,64c80154548c6b5d0d21eaf5,right,1,0.75,0.3071,10,0.061901399,0.267,,,,,,71,0,71,0,1,,,,,
,,299977,001,2023-07-31_21h04.51.851,arm3_eps,2022.2.5,Win32,59.95203837,60a2bf8caed2e8c3b108588b,64c7fed44a04f777bb1e18ce,64c80154548c6b5d0d21eaf5,up,1,0.75,0.3071,11,0,0.542,,,,,,72,0,72,0,1,,,,,
,,299977,001,2023-07-31_21h04.51.851,arm3_eps,2022.2.5,Win32,59.95203837,60a2bf8caed2e8c3b108588b,64c7fed44a04f777bb1e18ce,64c80154548c6b5d0d21eaf5,right,1,0.75,0.3071,11,-0.009284985,0.755,,,,,,73,0,73,0,1,,,,,
,,299977,001,2023-07-31_21h04.51.851,arm3_eps,2022.2.5,Win32,59.95203837,60a2bf8caed2e8c3b108588b,64c7fed44a04f777bb1e18ce,64c80154548c6b5d0d21eaf5,right,1,0.75,0.3071,11,0.006445367,0.22,,,,,,74,0,74,0,1,,,,,
,,299977,001,2023-07-31_21h04.51.851,arm3_eps,2022.2.5,Win32,59.95203837,60a2bf8caed2e8c3b108588b,64c7fed44a04f777bb1e18ce,64c80154548c6b5d0d21eaf5,up,1,0.75,0.3071,12,0,0.953,,,,,,75,0,75,0,1,,,,,
,,299977,001,2023-07-31_21h04.51.851,arm3_eps,2022.2.5,Win32,59.95203837,60a2bf8caed2e8c3b108588b,64c7fed44a04f777bb1e18ce,64c80154548c6b5d0d21eaf5,right,1,0.75,0.3071,12,-0.003568471,0.723,,,,,,76,0,76,0,1,,,,,
,,299977,001,2023-07-31_21h04.51.851,arm3_eps,2022.2.5,Win32,59.95203837,60a2bf8caed2e8c3b108588b,64c7fed44a04f777bb1e18ce,64c80154548c6b5d0d21eaf5,right,1,0.75,0.3071,12,-0.007631279,0.212,,,,,,77,0,77,0,1,,,,,
,,299977,001,2023-07-31_21h04.51.851,arm3_eps,2022.2.5,Win32,59.95203837,60a2bf8caed2e8c3b108588b,64c7fed44a04f777bb1e18ce,64c80154548c6b5d0d21eaf5,right,1,0.75,0.3071,12,0.004059828,0.478,,,,,,78,0,78,0,1,,,,,
,,299977,001,2023-07-31_21h04.51.851,arm3_eps,2022.2.5,Win32,59.95203837,60a2bf8caed2e8c3b108588b,64c7fed44a04f777bb1e18ce,64c80154548c6b5d0d21eaf5,up,1,0.75,0.3071,13,0,0.509,,,,,,79,0,79,0,1,,,,,
,,299977,001,2023-07-31_21h04.51.851,arm3_eps,2022.2.5,Win32,59.95203837,60a2bf8caed2e8c3b108588b,64c7fed44a04f777bb1e18ce,64c80154548c6b5d0d21eaf5,right,1,0.75,0.3071,13,-0.000455774,0.786,,,,,,80,0,80,0,1,,,,,
,,299977,001,2023-07-31_21h04.51.851,arm3_eps,2022.2.5,Win32,59.95203837,60a2bf8caed2e8c3b108588b,64c7fed44a04f777bb1e18ce,64c80154548c6b5d0d21eaf5,right,1,0.75,0.3071,13,0.036826119,0.28,,,,,,81,0,81,0,1,,,,,
,,299977,001,2023-07-31_21h04.51.851,arm3_eps,2022.2.5,Win32,59.95203837,60a2bf8caed2e8c3b108588b,64c7fed44a04f777bb1e18ce,64c80154548c6b5d0d21eaf5,up,1,0.75,0.3071,14,0,0.525,,,,,,82,0,82,0,1,,,,,
,,299977,001,2023-07-31_21h04.51.851,arm3_eps,2022.2.5,Win32,59.95203837,60a2bf8caed2e8c3b108588b,64c7fed44a04f777bb1e18ce,64c80154548c6b5d0d21eaf5,right,1,0.75,0.3071,14,-0.00256577,0.804,,,,,,83,0,83,0,1,,,,,
,,299977,001,2023-07-31_21h04.51.851,arm3_eps,2022.2.5,Win32,59.95203837,60a2bf8caed2e8c3b108588b,64c7fed44a04f777bb1e18ce,64c80154548c6b5d0d21eaf5,right,1,0.75,0.3071,14,0.025784661,0.254,,,,,,84,0,84,0,1,,,,,
,,299977,001,2023-07-31_21h04.51.851,arm3_eps,2022.2.5,Win32,59.95203837,60a2bf8caed2e8c3b108588b,64c7fed44a04f777bb1e18ce,64c80154548c6b5d0d21eaf5,down,1,0.75,0.3071,13,0,0.8,,,,,,85,0,85,0,1,,,,,
,,299977,001,2023-07-31_21h04.51.851,arm3_eps,2022.2.5,Win32,59.95203837,60a2bf8caed2e8c3b108588b,64c7fed44a04f777bb1e18ce,64c80154548c6b5d0d21eaf5,right,1,0.75,0.3071,13,0.005366816,0.901,,,,,,86,0,86,0,1,,,,,
,,299977,001,2023-07-31_21h04.51.851,arm3_eps,2022.2.5,Win32,59.95203837,60a2bf8caed2e8c3b108588b,64c7fed44a04f777bb1e18ce,64c80154548c6b5d0d21eaf5,right,1,0.75,0.3071,13,-0.000890592,0.216,,,,,,87,0,87,0,1,,,,,
,,299977,001,2023-07-31_21h04.51.851,arm3_eps,2022.2.5,Win32,59.95203837,60a2bf8caed2e8c3b108588b,64c7fed44a04f777bb1e18ce,64c80154548c6b5d0d21eaf5,up,-1,0.75,0.3071,14,0,0.618,,,,,,88,0,88,0,1,,,,,
,,299977,001,2023-07-31_21h04.51.851,arm3_eps,2022.2.5,Win32,59.95203837,60a2bf8caed2e8c3b108588b,64c7fed44a04f777bb1e18ce,64c80154548c6b5d0d21eaf5,right,-1,0.75,0.3071,14,-0.008284496,0.837,,,,,,89,0,89,0,1,,,,,
,,299977,001,2023-07-31_21h04.51.851,arm3_eps,2022.2.5,Win32,59.95203837,60a2bf8caed2e8c3b108588b,64c7fed44a04f777bb1e18ce,64c80154548c6b5d0d21eaf5,right,-1,0.75,0.3071,14,-0.014781477,0.244,,,,,,90,0,90,0,1,,,,,
,,299977,001,2023-07-31_21h04.51.851,arm3_eps,2022.2.5,Win32,59.95203837,60a2bf8caed2e8c3b108588b,64c7fed44a04f777bb1e18ce,64c80154548c6b5d0d21eaf5,down,-1,0.75,0.3071,15,0,0.651,,,,,,91,0,91,0,1,,,,,
,,299977,001,2023-07-31_21h04.51.851,arm3_eps,2022.2.5,Win32,59.95203837,60a2bf8caed2e8c3b108588b,64c7fed44a04f777bb1e18ce,64c80154548c6b5d0d21eaf5,right,-1,0.75,0.3071,15,0.007458915,0.77,,,,,,92,0,92,0,1,,,,,
,,299977,001,2023-07-31_21h04.51.851,arm3_eps,2022.2.5,Win32,59.95203837,60a2bf8caed2e8c3b108588b,64c7fed44a04f777bb1e18ce,64c80154548c6b5d0d21eaf5,right,-1,0.75,0.3071,15,0.018013449,0.229,,,,,,93,0,93,0,1,,,,,
,,299977,001,2023-07-31_21h04.51.851,arm3_eps,2022.2.5,Win32,59.95203837,60a2bf8caed2e8c3b108588b,64c7fed44a04f777bb1e18ce,64c80154548c6b5d0d21eaf5,down,-1,0.75,0.3071,15,0,1.045,,,,,,94,0,94,0,1,,,,,
,,299977,001,2023-07-31_21h04.51.851,arm3_eps,2022.2.5,Win32,59.95203837,60a2bf8caed2e8c3b108588b,64c7fed44a04f777bb1e18ce,64c80154548c6b5d0d21eaf5,right,-1,0.75,0.3071,15,0.012167757,0.703,,,,,,95,0,95,0,1,,,,,
,,299977,001,2023-07-31_21h04.51.851,arm3_eps,2022.2.5,Win32,59.95203837,60a2bf8caed2e8c3b108588b,64c7fed44a04f777bb1e18ce,64c80154548c6b5d0d21eaf5,right,-1,0.75,0.3071,15,-0.029698169,0.231,,,,,,96,0,96,0,1,,,,,
,,299977,001,2023-07-31_21h04.51.851,arm3_eps,2022.2.5,Win32,59.95203837,60a2bf8caed2e8c3b108588b,64c7fed44a04f777bb1e18ce,64c80154548c6b5d0d21eaf5,down,-1,0.75,0.3071,16,0,0.711,,,,,,97,0,97,0,1,,,,,
,,299977,001,2023-07-31_21h04.51.851,arm3_eps,2022.2.5,Win32,59.95203837,60a2bf8caed2e8c3b108588b,64c7fed44a04f777bb1e18ce,64c80154548c6b5d0d21eaf5,right,-1,0.75,0.3071,16,0.027698518,0.657,,,,,,98,0,98,0,1,,,,,
,,299977,001,2023-07-31_21h04.51.851,arm3_eps,2022.2.5,Win32,59.95203837,60a2bf8caed2e8c3b108588b,64c7fed44a04f777bb1e18ce,64c80154548c6b5d0d21eaf5,right,-1,0.75,0.3071,16,0.00764216,0.23,,,,,,99,0,99,0,1,,,,,
,,299977,001,2023-07-31_21h04.51.851,arm3_eps,2022.2.5,Win32,59.95203837,60a2bf8caed2e8c3b108588b,64c7fed44a04f777bb1e18ce,64c80154548c6b5d0d21eaf5,up,-1,0.75,0.3071,16,0,1.122,,,,,,100,0,100,0,1,,,,,
,,299977,001,2023-07-31_21h04.51.851,arm3_eps,2022.2.5,Win32,59.95203837,60a2bf8caed2e8c3b108588b,64c7fed44a04f777bb1e18ce,64c80154548c6b5d0d21eaf5,right,-1,0.75,0.3071,16,0.003154144,0.626,,,,,,101,0,101,0,1,,,,,
,,299977,001,2023-07-31_21h04.51.851,arm3_eps,2022.2.5,Win32,59.95203837,60a2bf8caed2e8c3b108588b,64c7fed44a04f777bb1e18ce,64c80154548c6b5d0d21eaf5,right,-1,0.75,0.3071,16,-0.02088481,0.223,,,,,,102,0,102,0,1,,,,,
,,299977,001,2023-07-31_21h04.51.851,arm3_eps,2022.2.5,Win32,59.95203837,60a2bf8caed2e8c3b108588b,64c7fed44a04f777bb1e18ce,64c80154548c6b5d0d21eaf5,down,-1,0.75,0.3071,17,0,0.487,,,,,,103,0,103,0,1,,,,,
,,299977,001,2023-07-31_21h04.51.851,arm3_eps,2022.2.5,Win32,59.95203837,60a2bf8caed2e8c3b108588b,64c7fed44a04f777bb1e18ce,64c80154548c6b5d0d21eaf5,right,-1,0.75,0.3071,17,-0.005922135,0.777,,,,,,104,0,104,0,1,,,,,
,,299977,001,2023-07-31_21h04.51.851,arm3_eps,2022.2.5,Win32,59.95203837,60a2bf8caed2e8c3b108588b,64c7fed44a04f777bb1e18ce,64c80154548c6b5d0d21eaf5,right,-1,0.75,0.3071,17,-0.013036924,0.205,,,,,,105,0,105,0,1,,,,,
,,299977,001,2023-07-31_21h04.51.851,arm3_eps,2022.2.5,Win32,59.95203837,60a2bf8caed2e8c3b108588b,64c7fed44a04f777bb1e18ce,64c80154548c6b5d0d21eaf5,down,-1,0.75,0.3071,18,0,0.424,,,,,,106,0,106,0,1,,,,,
,,299977,001,2023-07-31_21h04.51.851,arm3_eps,2022.2.5,Win32,59.95203837,60a2bf8caed2e8c3b108588b,64c7fed44a04f777bb1e18ce,64c80154548c6b5d0d21eaf5,right,-1,0.75,0.3071,18,-0.012391846,0.717,,,,,,107,0,107,0,1,,,,,
,,299977,001,2023-07-31_21h04.51.851,arm3_eps,2022.2.5,Win32,59.95203837,60a2bf8caed2e8c3b108588b,64c7fed44a04f777bb1e18ce,64c80154548c6b5d0d21eaf5,right,-1,0.75,0.3071,18,-0.034927275,0.229,,,,,,108,0,108,0,1,,,,,
,,299977,001,2023-07-31_21h04.51.851,arm3_eps,2022.2.5,Win32,59.95203837,60a2bf8caed2e8c3b108588b,64c7fed44a04f777bb1e18ce,64c80154548c6b5d0d21eaf5,down,-1,0.75,0.3071,19,0,0.473,,,,,,109,0,109,0,1,,,,,
,,299977,001,2023-07-31_21h04.51.851,arm3_eps,2022.2.5,Win32,59.95203837,60a2bf8caed2e8c3b108588b,64c7fed44a04f777bb1e18ce,64c80154548c6b5d0d21eaf5,right,-1,0.75,0.3071,19,0.012820187,0.819,,,,,,110,0,110,0,1,,,,,
,,299977,001,2023-07-31_21h04.51.851,arm3_eps,2022.2.5,Win32,59.95203837,60a2bf8caed2e8c3b108588b,64c7fed44a04f777bb1e18ce,64c80154548c6b5d0d21eaf5,right,-1,0.75,0.3071,19,0.005332718,0.38,,,,,,111,0,111,0,1,,,,,
,,299977,001,2023-07-31_21h04.51.851,arm3_eps,2022.2.5,Win32,59.95203837,60a2bf8caed2e8c3b108588b,64c7fed44a04f777bb1e18ce,64c80154548c6b5d0d21eaf5,down,-1,0.75,0.3071,19,0,0.946,,,,,,112,0,112,0,1,,,,,
,,299977,001,2023-07-31_21h04.51.851,arm3_eps,2022.2.5,Win32,59.95203837,60a2bf8caed2e8c3b108588b,64c7fed44a04f777bb1e18ce,64c80154548c6b5d0d21eaf5,right,-1,0.75,0.3071,19,-0.022622341,0.599,,,,,,113,0,113,0,1,,,,,
,,299977,001,2023-07-31_21h04.51.851,arm3_eps,2022.2.5,Win32,59.95203837,60a2bf8caed2e8c3b108588b,64c7fed44a04f777bb1e18ce,64c80154548c6b5d0d21eaf5,right,-1,0.75,0.3071,19,-0.009893596,0.268,,,,,,114,0,114,0,1,,,,,
,,299977,001,2023-07-31_21h04.51.851,arm3_eps,2022.2.5,Win32,59.95203837,60a2bf8caed2e8c3b108588b,64c7fed44a04f777bb1e18ce,64c80154548c6b5d0d21eaf5,right,-1,0.75,0.3071,19,-0.014180767,0.504,,,,,,115,0,115,0,1,,,,,
,,299977,001,2023-07-31_21h04.51.851,arm3_eps,2022.2.5,Win32,59.95203837,60a2bf8caed2e8c3b108588b,64c7fed44a04f777bb1e18ce,64c80154548c6b5d0d21eaf5,down,-1,0.75,0.3071,20,0,0.616,,,,,,116,0,116,0,1,,,,,
,,299977,001,2023-07-31_21h04.51.851,arm3_eps,2022.2.5,Win32,59.95203837,60a2bf8caed2e8c3b108588b,64c7fed44a04f777bb1e18ce,64c80154548c6b5d0d21eaf5,right,-1,0.75,0.3071,20,0.029334323,0.694,,,,,,117,0,117,0,1,,,,,
,,299977,001,2023-07-31_21h04.51.851,arm3_eps,2022.2.5,Win32,59.95203837,60a2bf8caed2e8c3b108588b,64c7fed44a04f777bb1e18ce,64c80154548c6b5d0d21eaf5,right,-1,0.75,0.3071,20,0.015076478,0.29,,,,,,118,0,118,0,1,,,,,
,,299977,001,2023-07-31_21h04.51.851,arm3_eps,2022.2.5,Win32,59.95203837,60a2bf8caed2e8c3b108588b,64c7fed44a04f777bb1e18ce,64c80154548c6b5d0d21eaf5,right,-1,0.75,0.3071,20,0.033780838,0.333,,,,,,119,0,119,0,1,,,,,
,,299977,001,2023-07-31_21h04.51.851,arm3_eps,2022.2.5,Win32,59.95203837,60a2bf8caed2e8c3b108588b,64c7fed44a04f777bb1e18ce,64c80154548c6b5d0d21eaf5,right,-1,0.75,0.3071,20,-0.00052212,0.946,,,,,,120,0,120,0,1,,,,,
,,299977,001,2023-07-31_21h04.51.851,arm3_eps,2022.2.5,Win32,59.95203837,60a2bf8caed2e8c3b108588b,64c7fed44a04f777bb1e18ce,64c80154548c6b5d0d21eaf5,down,-1,0.75,0.3071,21,0,1.243,,,,,,121,0,121,0,1,,,,,
,,299977,001,2023-07-31_21h04.51.851,arm3_eps,2022.2.5,Win32,59.95203837,60a2bf8caed2e8c3b108588b,64c7fed44a04f777bb1e18ce,64c80154548c6b5d0d21eaf5,right,-1,0.75,0.3071,21,-0.016017083,0.702,,,,,,122,0,122,0,1,,,,,
,,299977,001,2023-07-31_21h04.51.851,arm3_eps,2022.2.5,Win32,59.95203837,60a2bf8caed2e8c3b108588b,64c7fed44a04f777bb1e18ce,64c80154548c6b5d0d21eaf5,right,-1,0.75,0.3071,21,-0.033805209,0.292,,,,,,123,0,123,0,1,,,,,
,,299977,001,2023-07-31_21h04.51.851,arm3_eps,2022.2.5,Win32,59.95203837,60a2bf8caed2e8c3b108588b,64c7fed44a04f777bb1e18ce,64c80154548c6b5d0d21eaf5,right,-1,0.75,0.3071,21,-0.022483912,0.61,,,,,,124,0,124,0,1,,,,,
,,299977,001,2023-07-31_21h04.51.851,arm3_eps,2022.2.5,Win32,59.95203837,60a2bf8caed2e8c3b108588b,64c7fed44a04f777bb1e18ce,64c80154548c6b5d0d21eaf5,right,-1,0.75,0.3071,21,-0.014947218,0.431,,,,,,125,0,125,0,1,,,,,
,,299977,001,2023-07-31_21h04.51.851,arm3_eps,2022.2.5,Win32,59.95203837,60a2bf8caed2e8c3b108588b,64c7fed44a04f777bb1e18ce,64c80154548c6b5d0d21eaf5,right,-1,0.75,0.3071,21,0.000890782,0.432,,,,,,126,0,126,0,1,,,,,
,,299977,001,2023-07-31_21h04.51.851,arm3_eps,2022.2.5,Win32,59.95203837,60a2bf8caed2e8c3b108588b,64c7fed44a04f777bb1e18ce,64c80154548c6b5d0d21eaf5,right,-1,0.75,0.3071,21,-0.015719729,0.945,,,,,,127,0,127,0,1,,,,,
,,299977,001,2023-07-31_21h04.51.851,arm3_eps,2022.2.5,Win32,59.95203837,60a2bf8caed2e8c3b108588b,64c7fed44a04f777bb1e18ce,64c80154548c6b5d0d21eaf5,down,-1,0.75,0.3071,21,0,0.708,,,,,,128,0,128,0,1,,,,,
,,299977,001,2023-07-31_21h04.51.851,arm3_eps,2022.2.5,Win32,59.95203837,60a2bf8caed2e8c3b108588b,64c7fed44a04f777bb1e18ce,64c80154548c6b5d0d21eaf5,right,-1,0.75,0.3071,21,-0.015238478,0.526,,,,,,129,0,129,0,1,,,,,
,,299977,001,2023-07-31_21h04.51.851,arm3_eps,2022.2.5,Win32,59.95203837,60a2bf8caed2e8c3b108588b,64c7fed44a04f777bb1e18ce,64c80154548c6b5d0d21eaf5,right,-1,0.75,0.3071,21,-0.030860053,0.387,,,,,,130,0,130,0,1,,,,,
,,299977,001,2023-07-31_21h04.51.851,arm3_eps,2022.2.5,Win32,59.95203837,60a2bf8caed2e8c3b108588b,64c7fed44a04f777bb1e18ce,64c80154548c6b5d0d21eaf5,down,-1,0.75,0.3071,22,0,0.632,,,,,,131,0,131,0,1,,,,,
,,299977,001,2023-07-31_21h04.51.851,arm3_eps,2022.2.5,Win32,59.95203837,60a2bf8caed2e8c3b108588b,64c7fed44a04f777bb1e18ce,64c80154548c6b5d0d21eaf5,right,-1,0.75,0.3071,22,-0.027496276,0.703,,,,,,132,0,132,0,1,,,,,
,,299977,001,2023-07-31_21h04.51.851,arm3_eps,2022.2.5,Win32,59.95203837,60a2bf8caed2e8c3b108588b,64c7fed44a04f777bb1e18ce,64c80154548c6b5d0d21eaf5,right,-1,0.75,0.3071,22,-0.054911801,0.291,,,,,,133,0,133,0,1,,,,,
,,299977,001,2023-07-31_21h04.51.851,arm3_eps,2022.2.5,Win32,59.95203837,60a2bf8caed2e8c3b108588b,64c7fed44a04f777bb1e18ce,64c80154548c6b5d0d21eaf5,down,-1,0.75,0.3071,23,0,0.287,,,,,,134,0,134,0,1,,,,,
,,299977,001,2023-07-31_21h04.51.851,arm3_eps,2022.2.5,Win32,59.95203837,60a2bf8caed2e8c3b108588b,64c7fed44a04f777bb1e18ce,64c80154548c6b5d0d21eaf5,right,-1,0.75,0.3071,23,-0.029085162,0.757,,,,,,135,0,135,0,1,,,,,
,,299977,001,2023-07-31_21h04.51.851,arm3_eps,2022.2.5,Win32,59.95203837,60a2bf8caed2e8c3b108588b,64c7fed44a04f777bb1e18ce,64c80154548c6b5d0d21eaf5,right,-1,0.75,0.3071,23,-0.061661207,0.292,,,,,,136,0,136,0,1,,,,,
,,299977,001,2023-07-31_21h04.51.851,arm3_eps,2022.2.5,Win32,59.95203837,60a2bf8caed2e8c3b108588b,64c7fed44a04f777bb1e18ce,64c80154548c6b5d0d21eaf5,down,-1,0.75,0.3071,23,0,0.502,,,,,,137,0,137,0,1,,,,,
,,299977,001,2023-07-31_21h04.51.851,arm3_eps,2022.2.5,Win32,59.95203837,60a2bf8caed2e8c3b108588b,64c7fed44a04f777bb1e18ce,64c80154548c6b5d0d21eaf5,right,-1,0.75,0.3071,23,-0.01419778,0.713,,,,,,138,0,138,0,1,,,,,
,,299977,001,2023-07-31_21h04.51.851,arm3_eps,2022.2.5,Win32,59.95203837,60a2bf8caed2e8c3b108588b,64c7fed44a04f777bb1e18ce,64c80154548c6b5d0d21eaf5,right,-1,0.75,0.3071,23,-0.016471034,0.276,,,,,,139,0,139,0,1,,,,,
,,299977,001,2023-07-31_21h04.51.851,arm3_eps,2022.2.5,Win32,59.95203837,60a2bf8caed2e8c3b108588b,64c7fed44a04f777bb1e18ce,64c80154548c6b5d0d21eaf5,down,-1,0.75,0.3071,24,0,0.549,,,,,,140,0,140,0,1,,,,,
,,299977,001,2023-07-31_21h04.51.851,arm3_eps,2022.2.5,Win32,59.95203837,60a2bf8caed2e8c3b108588b,64c7fed44a04f777bb1e18ce,64c80154548c6b5d0d21eaf5,right,-1,0.75,0.3071,24,0.000845058,0.802,,,,,,141,0,141,0,1,,,,,
,,299977,001,2023-07-31_21h04.51.851,arm3_eps,2022.2.5,Win32,59.95203837,60a2bf8caed2e8c3b108588b,64c7fed44a04f777bb1e18ce,64c80154548c6b5d0d21eaf5,right,-1,0.75,0.3071,24,-0.0291823,0.252,,,,,,142,0,142,0,1,,,,,
,,299977,001,2023-07-31_21h04.51.851,arm3_eps,2022.2.5,Win32,59.95203837,60a2bf8caed2e8c3b108588b,64c7fed44a04f777bb1e18ce,64c80154548c6b5d0d21eaf5,up,-1,0.75,0.3071,23,0,0.761,,,,,,143,0,143,0,1,,,,,
,,299977,001,2023-07-31_21h04.51.851,arm3_eps,2022.2.5,Win32,59.95203837,60a2bf8caed2e8c3b108588b,64c7fed44a04f777bb1e18ce,64c80154548c6b5d0d21eaf5,right,-1,0.75,0.3071,23,-0.002942706,0.75,,,,,,144,0,144,0,1,,,,,
,,299977,001,2023-07-31_21h04.51.851,arm3_eps,2022.2.5,Win32,59.95203837,60a2bf8caed2e8c3b108588b,64c7fed44a04f777bb1e18ce,64c80154548c6b5d0d21eaf5,right,-1,0.75,0.3071,23,-0.002389295,0.246,,,,,,145,0,145,0,1,,,,,
,,299977,001,2023-07-31_21h04.51.851,arm3_eps,2022.2.5,Win32,59.95203837,60a2bf8caed2e8c3b108588b,64c7fed44a04f777bb1e18ce,64c80154548c6b5d0d21eaf5,right,-1,0.75,0.3071,23,-0.012889203,0.285,,,,,,146,0,146,0,1,,,,,
,,299977,001,2023-07-31_21h04.51.851,arm3_eps,2022.2.5,Win32,59.95203837,60a2bf8caed2e8c3b108588b,64c7fed44a04f777bb1e18ce,64c80154548c6b5d0d21eaf5,right,-1,0.75,0.3071,23,-0.022119564,0.443,,,,,,147,0,147,0,1,,,,,
,,299977,001,2023-07-31_21h04.51.851,arm3_eps,2022.2.5,Win32,59.95203837,60a2bf8caed2e8c3b108588b,64c7fed44a04f777bb1e18ce,64c80154548c6b5d0d21eaf5,down,-1,0.75,0.3071,24,0,0.818,,,,,,148,0,148,0,1,,,,,
,,299977,001,2023-07-31_21h04.51.851,arm3_eps,2022.2.5,Win32,59.95203837,60a2bf8caed2e8c3b108588b,64c7fed44a04f777bb1e18ce,64c80154548c6b5d0d21eaf5,right,-1,0.75,0.3071,24,-0.020399461,0.785,,,,,,149,0,149,0,1,,,,,
,,299977,001,2023-07-31_21h04.51.851,arm3_eps,2022.2.5,Win32,59.95203837,60a2bf8caed2e8c3b108588b,64c7fed44a04f777bb1e18ce,64c80154548c6b5d0d21eaf5,right,-1,0.75,0.3071,24,-0.05538186,0.265,,,,,,150,0,150,0,1,,,,,
,,299977,001,2023-07-31_21h04.51.851,arm3_eps,2022.2.5,Win32,59.95203837,60a2bf8caed2e8c3b108588b,64c7fed44a04f777bb1e18ce,64c80154548c6b5d0d21eaf5,down,-1,0.75,0.3071,25,0,0.395,,,,,,151,0,151,0,1,,,,,
,,299977,001,2023-07-31_21h04.51.851,arm3_eps,2022.2.5,Win32,59.95203837,60a2bf8caed2e8c3b108588b,64c7fed44a04f777bb1e18ce,64c80154548c6b5d0d21eaf5,right,-1,0.75,0.3071,25,-0.017729482,0.729,,,,,,152,0,152,0,1,,,,,
,,299977,001,2023-07-31_21h04.51.851,arm3_eps,2022.2.5,Win32,59.95203837,60a2bf8caed2e8c3b108588b,64c7fed44a04f777bb1e18ce,64c80154548c6b5d0d21eaf5,right,-1,0.75,0.3071,25,-0.00303402,0.261,,,,,,153,0,153,0,1,,,,,
,,299977,001,2023-07-31_21h04.51.851,arm3_eps,2022.2.5,Win32,59.95203837,60a2bf8caed2e8c3b108588b,64c7fed44a04f777bb1e18ce,64c80154548c6b5d0d21eaf5,right,-1,0.75,0.3071,25,-0.021399267,0.31,,,,,,154,0,154,0,1,,,,,
,,299977,001,2023-07-31_21h04.51.851,arm3_eps,2022.2.5,Win32,59.95203837,60a2bf8caed2e8c3b108588b,64c7fed44a04f777bb1e18ce,64c80154548c6b5d0d21eaf5,right,-1,0.75,0.3071,25,-0.016560914,0.496,,,,,,155,0,155,0,1,,,,,
,,299977,001,2023-07-31_21h04.51.851,arm3_eps,2022.2.5,Win32,59.95203837,60a2bf8caed2e8c3b108588b,64c7fed44a04f777bb1e18ce,64c80154548c6b5d0d21eaf5,down,-1,0.75,0.3071,26,0,0.638,,,,,,156,0,156,0,1,,,,,
,,299977,001,2023-07-31_21h04.51.851,arm3_eps,2022.2.5,Win32,59.95203837,60a2bf8caed2e8c3b108588b,64c7fed44a04f777bb1e18ce,64c80154548c6b5d0d21eaf5,right,-1,0.75,0.3071,26,-0.004550987,0.871,,,,,,157,0,157,0,1,,,,,
,,299977,001,2023-07-31_21h04.51.851,arm3_eps,2022.2.5,Win32,59.95203837,60a2bf8caed2e8c3b108588b,64c7fed44a04f777bb1e18ce,64c80154548c6b5d0d21eaf5,right,-1,0.75,0.3071,26,-0.01200996,0.286,,,,,,158,0,158,0,1,,,,,
,,299977,001,2023-07-31_21h04.51.851,arm3_eps,2022.2.5,Win32,59.95203837,60a2bf8caed2e8c3b108588b,64c7fed44a04f777bb1e18ce,64c80154548c6b5d0d21eaf5,right,-1,0.75,0.3071,26,0.006296978,0.5,,,,,,159,0,159,0,1,,,,,
,,299977,001,2023-07-31_21h04.51.851,arm3_eps,2022.2.5,Win32,59.95203837,60a2bf8caed2e8c3b108588b,64c7fed44a04f777bb1e18ce,64c80154548c6b5d0d21eaf5,right,-1,0.75,0.3071,26,0.009476009,0.403,,,,,,160,0,160,0,1,,,,,
,,299977,001,2023-07-31_21h04.51.851,arm3_eps,2022.2.5,Win32,59.95203837,60a2bf8caed2e8c3b108588b,64c7fed44a04f777bb1e18ce,64c80154548c6b5d0d21eaf5,up,1,0.75,0.3071,25,0,0.444,,,,,,161,0,161,0,1,,,,,
,,299977,001,2023-07-31_21h04.51.851,arm3_eps,2022.2.5,Win32,59.95203837,60a2bf8caed2e8c3b108588b,64c7fed44a04f777bb1e18ce,64c80154548c6b5d0d21eaf5,right,1,0.75,0.3071,25,0.017313249,0.869,,,,,,162,0,162,0,1,,,,,
,,299977,001,2023-07-31_21h04.51.851,arm3_eps,2022.2.5,Win32,59.95203837,60a2bf8caed2e8c3b108588b,64c7fed44a04f777bb1e18ce,64c80154548c6b5d0d21eaf5,right,1,0.75,0.3071,25,0.054941864,0.244,,,,,,163,0,163,0,1,,,,,
,,299977,001,2023-07-31_21h04.51.851,arm3_eps,2022.2.5,Win32,59.95203837,60a2bf8caed2e8c3b108588b,64c7fed44a04f777bb1e18ce,64c80154548c6b5d0d21eaf5,up,1,0.75,0.3071,26,0,0.72,,,,,,164,0,164,0,1,,,,,
,,299977,001,2023-07-31_21h04.51.851,arm3_eps,2022.2.5,Win32,59.95203837,60a2bf8caed2e8c3b108588b,64c7fed44a04f777bb1e18ce,64c80154548c6b5d0d21eaf5,right,1,0.75,0.3071,26,0.002392401,0.612,,,,,,165,0,165,0,1,,,,,
,,299977,001,2023-07-31_21h04.51.851,arm3_eps,2022.2.5,Win32,59.95203837,60a2bf8caed2e8c3b108588b,64c7fed44a04f777bb1e18ce,64c80154548c6b5d0d21eaf5,right,1,0.75,0.3071,26,-0.004191564,0.335,,,,,,166,0,166,0,1,,,,,
,,299977,001,2023-07-31_21h04.51.851,arm3_eps,2022.2.5,Win32,59.95203837,60a2bf8caed2e8c3b108588b,64c7fed44a04f777bb1e18ce,64c80154548c6b5d0d21eaf5,right,1,0.75,0.3071,26,0.013430453,0.395,,,,,,167,0,167,0,1,,,,,
,,299977,001,2023-07-31_21h04.51.851,arm3_eps,2022.2.5,Win32,59.95203837,60a2bf8caed2e8c3b108588b,64c7fed44a04f777bb1e18ce,64c80154548c6b5d0d21eaf5,up,-1,0.75,0.3071,27,0,0.731,,,,,,168,0,168,0,1,,,,,
,,299977,001,2023-07-31_21h04.51.851,arm3_eps,2022.2.5,Win32,59.95203837,60a2bf8caed2e8c3b108588b,64c7fed44a04f777bb1e18ce,64c80154548c6b5d0d21eaf5,right,-1,0.75,0.3071,27,-0.030615357,0.635,,,,,,169,0,169,0,1,,,,,
,,299977,001,2023-07-31_21h04.51.851,arm3_eps,2022.2.5,Win32,59.95203837,60a2bf8caed2e8c3b108588b,64c7fed44a04f777bb1e18ce,64c80154548c6b5d0d21eaf5,right,-1,0.75,0.3071,27,-0.047473583,0.274,,,,,,170,0,170,0,1,,,,,
,,299977,001,2023-07-31_21h04.51.851,arm3_eps,2022.2.5,Win32,59.95203837,60a2bf8caed2e8c3b108588b,64c7fed44a04f777bb1e18ce,64c80154548c6b5d0d21eaf5,down,1,0.75,0.3071,28,0,0.448,,,,,,171,0,171,0,1,,,,,
,,299977,001,2023-07-31_21h04.51.851,arm3_eps,2022.2.5,Win32,59.95203837,60a2bf8caed2e8c3b108588b,64c7fed44a04f777bb1e18ce,64c80154548c6b5d0d21eaf5,right,1,0.75,0.3071,28,0.00544369,0.785,,,,,,172,0,172,0,1,,,,,
,,299977,001,2023-07-31_21h04.51.851,arm3_eps,2022.2.5,Win32,59.95203837,60a2bf8caed2e8c3b108588b,64c7fed44a04f777bb1e18ce,64c80154548c6b5d0d21eaf5,right,1,0.75,0.3071,28,0.041181911,0.328,,,,,,173,0,173,0,1,,,,,
,,299977,001,2023-07-31_21h04.51.851,arm3_eps,2022.2.5,Win32,59.95203837,60a2bf8caed2e8c3b108588b,64c7fed44a04f777bb1e18ce,64c80154548c6b5d0d21eaf5,up,1,0.75,0.3071,29,0,0.425,,,,,,174,0,174,0,1,,,,,
,,299977,001,2023-07-31_21h04.51.851,arm3_eps,2022.2.5,Win32,59.95203837,60a2bf8caed2e8c3b108588b,64c7fed44a04f777bb1e18ce,64c80154548c6b5d0d21eaf5,right,1,0.75,0.3071,29,0.038455786,0.77,,,,,,175,0,175,0,1,,,,,
,,299977,001,2023-07-31_21h04.51.851,arm3_eps,2022.2.5,Win32,59.95203837,60a2bf8caed2e8c3b108588b,64c7fed44a04f777bb1e18ce,64c80154548c6b5d0d21eaf5,right,1,0.75,0.3071,29,0.042098593,0.247,,,,,,176,0,176,0,1,,,,,
,,299977,001,2023-07-31_21h04.51.851,arm3_eps,2022.2.5,Win32,59.95203837,60a2bf8caed2e8c3b108588b,64c7fed44a04f777bb1e18ce,64c80154548c6b5d0d21eaf5,up,1,0.75,0.3071,30,0,0.678,,,,,,177,0,177,0,1,,,,,
,,299977,001,2023-07-31_21h04.51.851,arm3_eps,2022.2.5,Win32,59.95203837,60a2bf8caed2e8c3b108588b,64c7fed44a04f777bb1e18ce,64c80154548c6b5d0d21eaf5,right,1,0.75,0.3071,30,0.004424057,0.774,,,,,,178,0,178,0,1,,,,,
,,299977,001,2023-07-31_21h04.51.851,arm3_eps,2022.2.5,Win32,59.95203837,60a2bf8caed2e8c3b108588b,64c7fed44a04f777bb1e18ce,64c80154548c6b5d0d21eaf5,right,1,0.75,0.3071,30,0.038377584,0.28,,,,,,179,0,179,0,1,,,,,
,,299977,001,2023-07-31_21h04.51.851,arm3_eps,2022.2.5,Win32,59.95203837,60a2bf8caed2e8c3b108588b,64c7fed44a04f777bb1e18ce,64c80154548c6b5d0d21eaf5,up,1,0.75,0.3071,31,0,0.461,,,,,,180,0,180,0,1,,,,,
,,299977,001,2023-07-31_21h04.51.851,arm3_eps,2022.2.5,Win32,59.95203837,60a2bf8caed2e8c3b108588b,64c7fed44a04f777bb1e18ce,64c80154548c6b5d0d21eaf5,right,1,0.75,0.3071,31,-0.003883456,1.017,,,,,,181,0,181,0,1,,,,,
,,299977,001,2023-07-31_21h04.51.851,arm3_eps,2022.2.5,Win32,59.95203837,60a2bf8caed2e8c3b108588b,64c7fed44a04f777bb1e18ce,64c80154548c6b5d0d21eaf5,right,1,0.75,0.3071,31,0.020215126,0.246,,,,,,182,0,182,0,1,,,,,
,,299977,001,2023-07-31_21h04.51.851,arm3_eps,2022.2.5,Win32,59.95203837,60a2bf8caed2e8c3b108588b,64c7fed44a04f777bb1e18ce,64c80154548c6b5d0d21eaf5,up,1,0.75,0.3071,32,0,0.509,,,,,,183,0,183,0,1,,,,,
,,299977,001,2023-07-31_21h04.51.851,arm3_eps,2022.2.5,Win32,59.95203837,60a2bf8caed2e8c3b108588b,64c7fed44a04f777bb1e18ce,64c80154548c6b5d0d21eaf5,right,1,0.75,0.3071,32,-0.009049199,0.728,,,,,,184,0,184,0,1,,,,,
,,299977,001,2023-07-31_21h04.51.851,arm3_eps,2022.2.5,Win32,59.95203837,60a2bf8caed2e8c3b108588b,64c7fed44a04f777bb1e18ce,64c80154548c6b5d0d21eaf5,right,1,0.75,0.3071,32,-0.016789432,0.236,,,,,,185,0,185,0,1,,,,,
,,299977,001,2023-07-31_21h04.51.851,arm3_eps,2022.2.5,Win32,59.95203837,60a2bf8caed2e8c3b108588b,64c7fed44a04f777bb1e18ce,64c80154548c6b5d0d21eaf5,down,1,0.75,0.3071,31,0,0.393,,,,,,186,0,186,0,1,,,,,
,,299977,001,2023-07-31_21h04.51.851,arm3_eps,2022.2.5,Win32,59.95203837,60a2bf8caed2e8c3b108588b,64c7fed44a04f777bb1e18ce,64c80154548c6b5d0d21eaf5,right,1,0.75,0.3071,31,0.007118996,0.819,,,,,,187,0,187,0,1,,,,,
,,299977,001,2023-07-31_21h04.51.851,arm3_eps,2022.2.5,Win32,59.95203837,60a2bf8caed2e8c3b108588b,64c7fed44a04f777bb1e18ce,64c80154548c6b5d0d21eaf5,right,1,0.75,0.3071,31,0.018839228,0.224,,,,,,188,0,188,0,1,,,,,
,,299977,001,2023-07-31_21h04.51.851,arm3_eps,2022.2.5,Win32,59.95203837,60a2bf8caed2e8c3b108588b,64c7fed44a04f777bb1e18ce,64c80154548c6b5d0d21eaf5,up,1,0.75,0.3071,31,0,0.461,,,,,,189,0,189,0,1,,,,,
,,299977,001,2023-07-31_21h04.51.851,arm3_eps,2022.2.5,Win32,59.95203837,60a2bf8caed2e8c3b108588b,64c7fed44a04f777bb1e18ce,64c80154548c6b5d0d21eaf5,right,1,0.75,0.3071,31,-0.008371271,0.679,,,,,,190,0,190,0,1,,,,,
,,299977,001,2023-07-31_21h04.51.851,arm3_eps,2022.2.5,Win32,59.95203837,60a2bf8caed2e8c3b108588b,64c7fed44a04f777bb1e18ce,64c80154548c6b5d0d21eaf5,right,1,0.75,0.3071,31,0.003674275,0.28,,,,,,191,0,191,0,1,,,,,
,,299977,001,2023-07-31_21h04.51.851,arm3_eps,2022.2.5,Win32,59.95203837,60a2bf8caed2e8c3b108588b,64c7fed44a04f777bb1e18ce,64c80154548c6b5d0d21eaf5,right,1,0.75,0.3071,31,0.017436638,0.26,,,,,,192,0,192,0,1,,,,,
,,299977,001,2023-07-31_21h04.51.851,arm3_eps,2022.2.5,Win32,59.95203837,60a2bf8caed2e8c3b108588b,64c7fed44a04f777bb1e18ce,64c80154548c6b5d0d21eaf5,up,1,0.75,0.3071,32,0,0.378,,,,,,193,0,193,0,1,,,,,
,,299977,001,2023-07-31_21h04.51.851,arm3_eps,2022.2.5,Win32,59.95203837,60a2bf8caed2e8c3b108588b,64c7fed44a04f777bb1e18ce,64c80154548c6b5d0d21eaf5,right,1,0.75,0.3071,32,-0.006262495,0.323,,,,,,194,0,194,0,1,,,,,
,,299977,001,2023-07-31_21h04.51.851,arm3_eps,2022.2.5,Win32,59.95203837,60a2bf8caed2e8c3b108588b,64c7fed44a04f777bb1e18ce,64c80154548c6b5d0d21eaf5,right,1,0.75,0.3071,32,0.02216177,0.304,,,,,,195,0,195,0,1,,,,,
,,299977,001,2023-07-31_21h04.51.851,arm3_eps,2022.2.5,Win32,59.95203837,60a2bf8caed2e8c3b108588b,64c7fed44a04f777bb1e18ce,64c80154548c6b5d0d21eaf5,right,1,0.75,0.3071,32,0.02291965,1.226,,,,,,196,0,196,0,1,,,,,
,,299977,001,2023-07-31_21h04.51.851,arm3_eps,2022.2.5,Win32,59.95203837,60a2bf8caed2e8c3b108588b,64c7fed44a04f777bb1e18ce,64c80154548c6b5d0d21eaf5,up,1,0.75,0.3071,33,0,0.486,,,,,,197,0,197,0,1,,,,,
,,299977,001,2023-07-31_21h04.51.851,arm3_eps,2022.2.5,Win32,59.95203837,60a2bf8caed2e8c3b108588b,64c7fed44a04f777bb1e18ce,64c80154548c6b5d0d21eaf5,right,1,0.75,0.3071,33,0.039599161,0.784,,,,,,198,0,198,0,1,,,,,
,,299977,001,2023-07-31_21h04.51.851,arm3_eps,2022.2.5,Win32,59.95203837,60a2bf8caed2e8c3b108588b,64c7fed44a04f777bb1e18ce,64c80154548c6b5d0d21eaf5,right,1,0.75,0.3071,33,0.055342427,0.262,,,,,,199,0,199,0,1,,,,,
,,299977,001,2023-07-31_21h04.51.851,arm3_eps,2022.2.5,Win32,59.95203837,60a2bf8caed2e8c3b108588b,64c7fed44a04f777bb1e18ce,64c80154548c6b5d0d21eaf5,up,1,0.75,0.3071,34,0,0.324,,,,,,200,0,200,0,1,,,,,
,,299977,001,2023-07-31_21h04.51.851,arm3_eps,2022.2.5,Win32,59.95203837,60a2bf8caed2e8c3b108588b,64c7fed44a04f777bb1e18ce,64c80154548c6b5d0d21eaf5,right,1,0.75,0.3071,34,-0.020290193,0.766,,,,,,201,0,201,0,1,,,,,
,,299977,001,2023-07-31_21h04.51.851,arm3_eps,2022.2.5,Win32,59.95203837,60a2bf8caed2e8c3b108588b,64c7fed44a04f777bb1e18ce,64c80154548c6b5d0d21eaf5,right,1,0.75,0.3071,34,0.009113901,0.261,,,,,,202,0,202,0,1,,,,,
,,299977,001,2023-07-31_21h04.51.851,arm3_eps,2022.2.5,Win32,59.95203837,60a2bf8caed2e8c3b108588b,64c7fed44a04f777bb1e18ce,64c80154548c6b5d0d21eaf5,right,1,0.75,0.3071,34,0.010159134,0.274,,,,,,203,0,203,0,1,,,,,
,,299977,001,2023-07-31_21h04.51.851,arm3_eps,2022.2.5,Win32,59.95203837,60a2bf8caed2e8c3b108588b,64c7fed44a04f777bb1e18ce,64c80154548c6b5d0d21eaf5,up,-1,0.75,0.3071,35,0,0.527,,,,,,204,0,204,0,1,,,,,
,,299977,001,2023-07-31_21h04.51.851,arm3_eps,2022.2.5,Win32,59.95203837,60a2bf8caed2e8c3b108588b,64c7fed44a04f777bb1e18ce,64c80154548c6b5d0d21eaf5,right,-1,0.75,0.3071,35,-0.009478571,0.701,,,,,,205,0,205,0,1,,,,,
,,299977,001,2023-07-31_21h04.51.851,arm3_eps,2022.2.5,Win32,59.95203837,60a2bf8caed2e8c3b108588b,64c7fed44a04f777bb1e18ce,64c80154548c6b5d0d21eaf5,right,-1,0.75,0.3071,35,-0.012506834,0.227,,,,,,206,0,206,0,1,,,,,
,,299977,001,2023-07-31_21h04.51.851,arm3_eps,2022.2.5,Win32,59.95203837,60a2bf8caed2e8c3b108588b,64c7fed44a04f777bb1e18ce,64c80154548c6b5d0d21eaf5,down,-1,0.75,0.3071,36,0,0.495,,,,,,207,0,207,0,1,,,,,
,,299977,001,2023-07-31_21h04.51.851,arm3_eps,2022.2.5,Win32,59.95203837,60a2bf8caed2e8c3b108588b,64c7fed44a04f777bb1e18ce,64c80154548c6b5d0d21eaf5,right,-1,0.75,0.3071,36,-0.010163461,0.612,,,,,,208,0,208,0,1,,,,,
,,299977,001,2023-07-31_21h04.51.851,arm3_eps,2022.2.5,Win32,59.95203837,60a2bf8caed2e8c3b108588b,64c7fed44a04f777bb1e18ce,64c80154548c6b5d0d21eaf5,right,-1,0.75,0.3071,36,-0.0356789,0.243,,,,,,209,0,209,0,1,,,,,
,,299977,001,2023-07-31_21h04.51.851,arm3_eps,2022.2.5,Win32,59.95203837,60a2bf8caed2e8c3b108588b,64c7fed44a04f777bb1e18ce,64c80154548c6b5d0d21eaf5,right,-1,0.75,0.3071,36,-0.036917508,0.238,,,,,,210,0,210,0,1,,,,,
,,299977,001,2023-07-31_21h04.51.851,arm3_eps,2022.2.5,Win32,59.95203837,60a2bf8caed2e8c3b108588b,64c7fed44a04f777bb1e18ce,64c80154548c6b5d0d21eaf5,down,-1,0.75,0.3071,37,0,0.361,,,,,,211,0,211,0,1,,,,,
,,299977,001,2023-07-31_21h04.51.851,arm3_eps,2022.2.5,Win32,59.95203837,60a2bf8caed2e8c3b108588b,64c7fed44a04f777bb1e18ce,64c80154548c6b5d0d21eaf5,right,-1,0.75,0.3071,37,-0.007715468,0.768,,,,,,212,0,212,0,1,,,,,
,,299977,001,2023-07-31_21h04.51.851,arm3_eps,2022.2.5,Win32,59.95203837,60a2bf8caed2e8c3b108588b,64c7fed44a04f777bb1e18ce,64c80154548c6b5d0d21eaf5,right,-1,0.75,0.3071,37,-0.045645442,0.221,,,,,,213,0,213,0,1,,,,,
,,299977,001,2023-07-31_21h04.51.851,arm3_eps,2022.2.5,Win32,59.95203837,60a2bf8caed2e8c3b108588b,64c7fed44a04f777bb1e18ce,64c80154548c6b5d0d21eaf5,right,-1,0.75,0.3071,37,-0.03809612,0.212,,,,,,214,0,214,0,1,,,,,
,,299977,001,2023-07-31_21h04.51.851,arm3_eps,2022.2.5,Win32,59.95203837,60a2bf8caed2e8c3b108588b,64c7fed44a04f777bb1e18ce,64c80154548c6b5d0d21eaf5,down,1,0.75,0.3071,38,0,0.409,,,,,,215,0,215,0,1,,,,,
,,299977,001,2023-07-31_21h04.51.851,arm3_eps,2022.2.5,Win32,59.95203837,60a2bf8caed2e8c3b108588b,64c7fed44a04f777bb1e18ce,64c80154548c6b5d0d21eaf5,right,1,0.75,0.3071,38,0.02346042,0.805,,,,,,216,0,216,0,1,,,,,
,,299977,001,2023-07-31_21h04.51.851,arm3_eps,2022.2.5,Win32,59.95203837,60a2bf8caed2e8c3b108588b,64c7fed44a04f777bb1e18ce,64c80154548c6b5d0d21eaf5,right,1,0.75,0.3071,38,0.043249706,0.378,,,,,,217,0,217,0,1,,,,,
,,299977,001,2023-07-31_21h04.51.851,arm3_eps,2022.2.5,Win32,59.95203837,60a2bf8caed2e8c3b108588b,64c7fed44a04f777bb1e18ce,64c80154548c6b5d0d21eaf5,up,-1,0.75,0.3071,38,0,0.348,,,,,,218,0,218,0,1,,,,,
,,299977,001,2023-07-31_21h04.51.851,arm3_eps,2022.2.5,Win32,59.95203837,60a2bf8caed2e8c3b108588b,64c7fed44a04f777bb1e18ce,64c80154548c6b5d0d21eaf5,right,-1,0.75,0.3071,38,-0.033396523,0.645,,,,,,219,0,219,0,1,,,,,
,,299977,001,2023-07-31_21h04.51.851,arm3_eps,2022.2.5,Win32,59.95203837,60a2bf8caed2e8c3b108588b,64c7fed44a04f777bb1e18ce,64c80154548c6b5d0d21eaf5,right,-1,0.75,0.3071,38,-0.046835147,0.276,,,,,,220,0,220,0,1,,,,,
,,299977,001,2023-07-31_21h04.51.851,arm3_eps,2022.2.5,Win32,59.95203837,60a2bf8caed2e8c3b108588b,64c7fed44a04f777bb1e18ce,64c80154548c6b5d0d21eaf5,down,-1,0.75,0.3071,39,0,0.26,,,,,,221,0,221,0,1,,,,,
,,299977,001,2023-07-31_21h04.51.851,arm3_eps,2022.2.5,Win32,59.95203837,60a2bf8caed2e8c3b108588b,64c7fed44a04f777bb1e18ce,64c80154548c6b5d0d21eaf5,right,-1,0.75,0.3071,39,-0.036508406,0.737,,,,,,222,0,222,0,1,,,,,
,,299977,001,2023-07-31_21h04.51.851,arm3_eps,2022.2.5,Win32,59.95203837,60a2bf8caed2e8c3b108588b,64c7fed44a04f777bb1e18ce,64c80154548c6b5d0d21eaf5,right,-1,0.75,0.3071,39,-0.06565146,0.192,,,,,,223,0,223,0,1,,,,,
,,299977,001,2023-07-31_21h04.51.851,arm3_eps,2022.2.5,Win32,59.95203837,60a2bf8caed2e8c3b108588b,64c7fed44a04f777bb1e18ce,64c80154548c6b5d0d21eaf5,down,-1,0.75,0.3071,39,0,0.326,,,,,,224,0,224,0,1,,,,,
,,299977,001,2023-07-31_21h04.51.851,arm3_eps,2022.2.5,Win32,59.95203837,60a2bf8caed2e8c3b108588b,64c7fed44a04f777bb1e18ce,64c80154548c6b5d0d21eaf5,right,-1,0.75,0.3071,39,-0.010843761,0.815,,,,,,225,0,225,0,1,,,,,
,,299977,001,2023-07-31_21h04.51.851,arm3_eps,2022.2.5,Win32,59.95203837,60a2bf8caed2e8c3b108588b,64c7fed44a04f777bb1e18ce,64c80154548c6b5d0d21eaf5,right,-1,0.75,0.3071,39,-0.016425407,0.225,,,,,,226,0,226,0,1,,,,,
,,299977,001,2023-07-31_21h04.51.851,arm3_eps,2022.2.5,Win32,59.95203837,60a2bf8caed2e8c3b108588b,64c7fed44a04f777bb1e18ce,64c80154548c6b5d0d21eaf5,right,-1,0.75,0.3071,39,-0.00391923,0.216,,,,,,227,0,227,0,1,,,,,
,,299977,001,2023-07-31_21h04.51.851,arm3_eps,2022.2.5,Win32,59.95203837,60a2bf8caed2e8c3b108588b,64c7fed44a04f777bb1e18ce,64c80154548c6b5d0d21eaf5,down,-1,0.75,0.3071,40,0,0.378,,,,,,228,0,228,0,1,,,,,
,,299977,001,2023-07-31_21h04.51.851,arm3_eps,2022.2.5,Win32,59.95203837,60a2bf8caed2e8c3b108588b,64c7fed44a04f777bb1e18ce,64c80154548c6b5d0d21eaf5,right,-1,0.75,0.3071,40,0.009263195,0.597,,,,,,229,0,229,0,1,,,,,
,,299977,001,2023-07-31_21h04.51.851,arm3_eps,2022.2.5,Win32,59.95203837,60a2bf8caed2e8c3b108588b,64c7fed44a04f777bb1e18ce,64c80154548c6b5d0d21eaf5,right,-1,0.75,0.3071,40,0.008220701,0.227,,,,,,230,0,230,0,1,,,,,
,,299977,001,2023-07-31_21h04.51.851,arm3_eps,2022.2.5,Win32,59.95203837,60a2bf8caed2e8c3b108588b,64c7fed44a04f777bb1e18ce,64c80154548c6b5d0d21eaf5,right,-1,0.75,0.3071,40,0.010200787,0.193,,,,,,231,0,231,0,1,,,,,
,,299977,001,2023-07-31_21h04.51.851,arm3_eps,2022.2.5,Win32,59.95203837,60a2bf8caed2e8c3b108588b,64c7fed44a04f777bb1e18ce,64c80154548c6b5d0d21eaf5,up,-1,0.75,0.3071,40,0,0.543,,,,,,232,0,232,0,1,,,,,
,,299977,001,2023-07-31_21h04.51.851,arm3_eps,2022.2.5,Win32,59.95203837,60a2bf8caed2e8c3b108588b,64c7fed44a04f777bb1e18ce,64c80154548c6b5d0d21eaf5,right,-1,0.75,0.3071,40,-0.004016404,0.487,,,,,,233,0,233,0,1,,,,,
,,299977,001,2023-07-31_21h04.51.851,arm3_eps,2022.2.5,Win32,59.95203837,60a2bf8caed2e8c3b108588b,64c7fed44a04f777bb1e18ce,64c80154548c6b5d0d21eaf5,right,-1,0.75,0.3071,40,-0.037040244,0.241,,,,,,234,0,234,0,1,,,,,
,,299977,001,2023-07-31_21h04.51.851,arm3_eps,2022.2.5,Win32,59.95203837,60a2bf8caed2e8c3b108588b,64c7fed44a04f777bb1e18ce,64c80154548c6b5d0d21eaf5,right,-1,0.75,0.3071,40,-0.026155871,0.361,,,,,,235,0,235,0,1,,,,,
,,299977,001,2023-07-31_21h04.51.851,arm3_eps,2022.2.5,Win32,59.95203837,60a2bf8caed2e8c3b108588b,64c7fed44a04f777bb1e18ce,64c80154548c6b5d0d21eaf5,down,-1,0.75,0.3071,41,0,0.408,,,,,,236,0,236,0,1,,,,,
,,299977,001,2023-07-31_21h04.51.851,arm3_eps,2022.2.5,Win32,59.95203837,60a2bf8caed2e8c3b108588b,64c7fed44a04f777bb1e18ce,64c80154548c6b5d0d21eaf5,right,-1,0.75,0.3071,41,-0.002176545,0.754,,,,,,237,0,237,0,1,,,,,
,,299977,001,2023-07-31_21h04.51.851,arm3_eps,2022.2.5,Win32,59.95203837,60a2bf8caed2e8c3b108588b,64c7fed44a04f777bb1e18ce,64c80154548c6b5d0d21eaf5,right,-1,0.75,0.3071,41,-0.03555764,0.242,,,,,,238,0,238,0,1,,,,,
,,299977,001,2023-07-31_21h04.51.851,arm3_eps,2022.2.5,Win32,59.95203837,60a2bf8caed2e8c3b108588b,64c7fed44a04f777bb1e18ce,64c80154548c6b5d0d21eaf5,right,-1,0.75,0.3071,41,-0.032425381,0.323,,,,,,239,0,239,0,1,,,,,
,,299977,001,2023-07-31_21h04.51.851,arm3_eps,2022.2.5,Win32,59.95203837,60a2bf8caed2e8c3b108588b,64c7fed44a04f777bb1e18ce,64c80154548c6b5d0d21eaf5,down,-1,0.75,0.3071,41,0,0.398,,,,,,240,0,240,0,1,,,,,
,,299977,001,2023-07-31_21h04.51.851,arm3_eps,2022.2.5,Win32,59.95203837,60a2bf8caed2e8c3b108588b,64c7fed44a04f777bb1e18ce,64c80154548c6b5d0d21eaf5,right,-1,0.75,0.3071,41,-0.035028764,0.608,,,,,,241,0,241,0,1,,,,,
,,299977,001,2023-07-31_21h04.51.851,arm3_eps,2022.2.5,Win32,59.95203837,60a2bf8caed2e8c3b108588b,64c7fed44a04f777bb1e18ce,64c80154548c6b5d0d21eaf5,right,-1,0.75,0.3071,41,-0.084036844,0.257,,,,,,242,0,242,0,1,,,,,
,,299977,001,2023-07-31_21h04.51.851,arm3_eps,2022.2.5,Win32,59.95203837,60a2bf8caed2e8c3b108588b,64c7fed44a04f777bb1e18ce,64c80154548c6b5d0d21eaf5,right,-1,0.75,0.3071,41,-0.090111816,0.205,,,,,,243,0,243,0,1,,,,,
,,299977,001,2023-07-31_21h04.51.851,arm3_eps,2022.2.5,Win32,59.95203837,60a2bf8caed2e8c3b108588b,64c7fed44a04f777bb1e18ce,64c80154548c6b5d0d21eaf5,down,-1,0.75,0.3071,42,0,0.328,,,,,,244,0,244,0,1,,,,,
,,299977,001,2023-07-31_21h04.51.851,arm3_eps,2022.2.5,Win32,59.95203837,60a2bf8caed2e8c3b108588b,64c7fed44a04f777bb1e18ce,64c80154548c6b5d0d21eaf5,right,-1,0.75,0.3071,42,-0.030916526,0.653,,,,,,245,0,245,0,1,,,,,
,,299977,001,2023-07-31_21h04.51.851,arm3_eps,2022.2.5,Win32,59.95203837,60a2bf8caed2e8c3b108588b,64c7fed44a04f777bb1e18ce,64c80154548c6b5d0d21eaf5,right,-1,0.75,0.3071,42,-0.043634649,0.214,,,,,,246,0,246,0,1,,,,,
,,299977,001,2023-07-31_21h04.51.851,arm3_eps,2022.2.5,Win32,59.95203837,60a2bf8caed2e8c3b108588b,64c7fed44a04f777bb1e18ce,64c80154548c6b5d0d21eaf5,right,-1,0.75,0.3071,42,-0.06211445,0.242,,,,,,247,0,247,0,1,,,,,
,,299977,001,2023-07-31_21h04.51.851,arm3_eps,2022.2.5,Win32,59.95203837,60a2bf8caed2e8c3b108588b,64c7fed44a04f777bb1e18ce,64c80154548c6b5d0d21eaf5,down,1,0.75,0.3071,43,0,0.358,,,,,,248,0,248,0,1,,,,,
,,299977,001,2023-07-31_21h04.51.851,arm3_eps,2022.2.5,Win32,59.95203837,60a2bf8caed2e8c3b108588b,64c7fed44a04f777bb1e18ce,64c80154548c6b5d0d21eaf5,right,1,0.75,0.3071,43,0.031000192,0.72,,,,,,249,0,249,0,1,,,,,
,,299977,001,2023-07-31_21h04.51.851,arm3_eps,2022.2.5,Win32,59.95203837,60a2bf8caed2e8c3b108588b,64c7fed44a04f777bb1e18ce,64c80154548c6b5d0d21eaf5,right,1,0.75,0.3071,43,0.046044528,0.26,,,,,,250,0,250,0,1,,,,,
,,299977,001,2023-07-31_21h04.51.851,arm3_eps,2022.2.5,Win32,59.95203837,60a2bf8caed2e8c3b108588b,64c7fed44a04f777bb1e18ce,64c80154548c6b5d0d21eaf5,up,-1,0.75,0.3071,43,0,0.595,,,,,,251,0,251,0,1,,,,,
,,299977,001,2023-07-31_21h04.51.851,arm3_eps,2022.2.5,Win32,59.95203837,60a2bf8caed2e8c3b108588b,64c7fed44a04f777bb1e18ce,64c80154548c6b5d0d21eaf5,right,-1,0.75,0.3071,43,-0.013538113,0.914,,,,,,252,0,252,0,1,,,,,
,,299977,001,2023-07-31_21h04.51.851,arm3_eps,2022.2.5,Win32,59.95203837,60a2bf8caed2e8c3b108588b,64c7fed44a04f777bb1e18ce,64c80154548c6b5d0d21eaf5,right,-1,0.75,0.3071,43,-0.005153706,0.267,,,,,,253,0,253,0,1,,,,,
,,299977,001,2023-07-31_21h04.51.851,arm3_eps,2022.2.5,Win32,59.95203837,60a2bf8caed2e8c3b108588b,64c7fed44a04f777bb1e18ce,64c80154548c6b5d0d21eaf5,down,-1,0.75,0.3071,44,0,0.453,,,,,,254,0,254,0,1,,,,,
,,299977,001,2023-07-31_21h04.51.851,arm3_eps,2022.2.5,Win32,59.95203837,60a2bf8caed2e8c3b108588b,64c7fed44a04f777bb1e18ce,64c80154548c6b5d0d21eaf5,right,-1,0.75,0.3071,44,0.016926101,0.605,,,,,,255,0,255,0,1,,,,,
,,299977,001,2023-07-31_21h04.51.851,arm3_eps,2022.2.5,Win32,59.95203837,60a2bf8caed2e8c3b108588b,64c7fed44a04f777bb1e18ce,64c80154548c6b5d0d21eaf5,right,-1,0.75,0.3071,44,0.026732064,0.254,,,,,,256,0,256,0,1,,,,,
,,299977,001,2023-07-31_21h04.51.851,arm3_eps,2022.2.5,Win32,59.95203837,60a2bf8caed2e8c3b108588b,64c7fed44a04f777bb1e18ce,64c80154548c6b5d0d21eaf5,up,-1,0.75,0.3071,43,0,0.467,,,,,,257,0,257,0,1,,,,,
,,299977,001,2023-07-31_21h04.51.851,arm3_eps,2022.2.5,Win32,59.95203837,60a2bf8caed2e8c3b108588b,64c7fed44a04f777bb1e18ce,64c80154548c6b5d0d21eaf5,right,-1,0.75,0.3071,43,0.013746501,0.879,,,,,,258,0,258,0,1,,,,,
,,299977,001,2023-07-31_21h04.51.851,arm3_eps,2022.2.5,Win32,59.95203837,60a2bf8caed2e8c3b108588b,64c7fed44a04f777bb1e18ce,64c80154548c6b5d0d21eaf5,right,-1,0.75,0.3071,43,-0.012613594,0.197,,,,,,259,0,259,0,1,,,,,
