space_bar.keys,space_bar.rt,participant,session,date,expName,psychopyVersion,OS,frameRate,PROLIFIC_PID,STUDY_ID,SESSION_ID,resp.keys,state,q_prob,eps_prob,score,price,resp.rt,train.thisRepN,train.thisTrialN,train.thisN,train.thisIndex,train.ran,steps.thisRepN,steps.thisTrialN,steps.thisN,steps.thisIndex,steps.ran,blocks.thisRepN,blocks.thisTrialN,blocks.thisN,blocks.thisIndex,blocks.ran
space,13.913,312967,001,2023-07-31_20h49.28.931,arm3_eps,2022.2.5,Win32,60.30635629,61768384731ac05202ee94a9,64c7fed44a04f777bb1e18ce,64c801456a07b2af717fe4dc,,,,,,,,,,,,,,,,,,,,,,
space,14.4117,312967,001,2023-07-31_20h49.28.931,arm3_eps,2022.2.5,Win32,60.30635629,61768384731ac05202ee94a9,64c7fed44a04f777bb1e18ce,64c801456a07b2af717fe4dc,,,,,,,,,,,,,,,,,,,,,,
space,704.6722,312967,001,2023-07-31_20h49.28.931,arm3_eps,2022.2.5,Win32,60.30635629,61768384731ac05202ee94a9,64c7fed44a04f777bb1e18ce,64c801456a07b2af717fe4dc,,,,,,,,,,,,,,,,,,,,,,
space,21.694,312967,001,2023-07-31_20h49.28.931,arm3_eps,2022.2.5,Win32,60.30635629,61768384731ac05202ee94a9,64c7fed44a04f777bb1e18ce,64c801456a07b2af717fe4dc,,,,,,,,,,,,,,,,,,,,,,
space,26.2294,312967,001,2023-07-31_20h49.28.931,arm3_eps,2022.2.5,Win32,60.30635629,61768384731ac05202ee94a9,64c7fed44a04f777bb1e18ce,64c801456a07b2af717fe4dc,,,,,,,,,,,,,,,,,,,,,,
space,7.3911,312967,001,2023-07-31_20h49.28.931,arm3_eps,2022.2.5,Win32,60.30635629,61768384731ac05202ee94a9,64c7fed44a04f777bb1e18ce,64c801456a07b2af717fe4dc,,,,,,,,,,,,,,,,,,,,,,
space,1.8854,312967,001,2023-07-31_20h49.28.931,arm3_eps,2022.2.5,Win32,60.30635629,61768384731ac05202ee94a9,64c7fed44a04f777bb1e18ce,64c801456a07b2af717fe4dc,,,,,,,,,,,,,,,,,,,,,,
,,312967,001,2023-07-31_20h49.28.931,arm3_eps,2022.2.5,Win32,60.30635629,61768384731ac05202ee94a9,64c7fed44a04f777bb1e18ce,64c801456a07b2af717fe4dc,down,1,1,0.2429,-1,0,1.4754,0,0,0,0,1,,,,,,,,,,
,,312967,001,2023-07-31_20h49.28.931,arm3_eps,2022.2.5,Win32,60.30635629,61768384731ac05202ee94a9,64c7fed44a04f777bb1e18ce,64c801456a07b2af717fe4dc,right,1,1,0.2429,-1,-0.007746629,3.2483,1,0,1,0,1,,,,,,,,,,
,,312967,001,2023-07-31_20h49.28.931,arm3_eps,2022.2.5,Win32,60.30635629,61768384731ac05202ee94a9,64c7fed44a04f777bb1e18ce,64c801456a07b2af717fe4dc,right,1,1,0.2429,-1,-0.005540177,0.8619,2,0,2,0,1,,,,,,,,,,
,,312967,001,2023-07-31_20h49.28.931,arm3_eps,2022.2.5,Win32,60.30635629,61768384731ac05202ee94a9,64c7fed44a04f777bb1e18ce,64c801456a07b2af717fe4dc,right,1,1,0.2429,-1,0.015997457,1.5816,3,0,3,0,1,,,,,,,,,,
,,312967,001,2023-07-31_20h49.28.931,arm3_eps,2022.2.5,Win32,60.30635629,61768384731ac05202ee94a9,64c7fed44a04f777bb1e18ce,64c801456a07b2af717fe4dc,right,1,1,0.2429,-1,0.009530863,0.7486,4,0,4,0,1,,,,,,,,,,
,,312967,001,2023-07-31_20h49.28.931,arm3_eps,2022.2.5,Win32,60.30635629,61768384731ac05202ee94a9,64c7fed44a04f777bb1e18ce,64c801456a07b2af717fe4dc,right,1,1,0.2429,-1,0.037138043,1.2816,5,0,5,0,1,,,,,,,,,,
,,312967,001,2023-07-31_20h49.28.931,arm3_eps,2022.2.5,Win32,60.30635629,61768384731ac05202ee94a9,64c7fed44a04f777bb1e18ce,64c801456a07b2af717fe4dc,up,1,1,0.2429,0,0,0.6412,6,0,6,0,1,,,,,,,,,,
,,312967,001,2023-07-31_20h49.28.931,arm3_eps,2022.2.5,Win32,60.30635629,61768384731ac05202ee94a9,64c7fed44a04f777bb1e18ce,64c801456a07b2af717fe4dc,right,1,1,0.2429,0,0.018843179,1.3003,7,0,7,0,1,,,,,,,,,,
,,312967,001,2023-07-31_20h49.28.931,arm3_eps,2022.2.5,Win32,60.30635629,61768384731ac05202ee94a9,64c7fed44a04f777bb1e18ce,64c801456a07b2af717fe4dc,right,1,1,0.2429,0,0.047812449,1.0874,8,0,8,0,1,,,,,,,,,,
,,312967,001,2023-07-31_20h49.28.931,arm3_eps,2022.2.5,Win32,60.30635629,61768384731ac05202ee94a9,64c7fed44a04f777bb1e18ce,64c801456a07b2af717fe4dc,right,1,1,0.2429,0,0.051237774,0.5841,9,0,9,0,1,,,,,,,,,,
,,312967,001,2023-07-31_20h49.28.931,arm3_eps,2022.2.5,Win32,60.30635629,61768384731ac05202ee94a9,64c7fed44a04f777bb1e18ce,64c801456a07b2af717fe4dc,down,1,1,0.2429,-1,0,0.7525,10,0,10,0,1,,,,,,,,,,
,,312967,001,2023-07-31_20h49.28.931,arm3_eps,2022.2.5,Win32,60.30635629,61768384731ac05202ee94a9,64c7fed44a04f777bb1e18ce,64c801456a07b2af717fe4dc,right,1,1,0.2429,-1,-0.016679534,1.525,11,0,11,0,1,,,,,,,,,,
,,312967,001,2023-07-31_20h49.28.931,arm3_eps,2022.2.5,Win32,60.30635629,61768384731ac05202ee94a9,64c7fed44a04f777bb1e18ce,64c801456a07b2af717fe4dc,right,1,1,0.2429,-1,-0.01071341,0.3564,12,0,12,0,1,,,,,,,,,,
,,312967,001,2023-07-31_20h49.28.931,arm3_eps,2022.2.5,Win32,60.30635629,61768384731ac05202ee94a9,64c7fed44a04f777bb1e18ce,64c801456a07b2af717fe4dc,right,1,1,0.2429,-1,0.020565411,0.3721,13,0,13,0,1,,,,,,,,,,
,,312967,001,2023-07-31_20h49.28.931,arm3_eps,2022.2.5,Win32,60.30635629,61768384731ac05202ee94a9,64c7fed44a04f777bb1e18ce,64c801456a07b2af717fe4dc,right,1,1,0.2429,-1,0.021674318,0.2997,14,0,14,0,1,,,,,,,,,,
,,312967,001,2023-07-31_20h49.28.931,arm3_eps,2022.2.5,Win32,60.30635629,61768384731ac05202ee94a9,64c7fed44a04f777bb1e18ce,64c801456a07b2af717fe4dc,right,1,1,0.2429,-1,0.06452026,0.2667,15,0,15,0,1,,,,,,,,,,
,,312967,001,2023-07-31_20h49.28.931,arm3_eps,2022.2.5,Win32,60.30635629,61768384731ac05202ee94a9,64c7fed44a04f777bb1e18ce,64c801456a07b2af717fe4dc,right,1,1,0.2429,-1,0.106132375,0.216,16,0,16,0,1,,,,,,,,,,
,,312967,001,2023-07-31_20h49.28.931,arm3_eps,2022.2.5,Win32,60.30635629,61768384731ac05202ee94a9,64c7fed44a04f777bb1e18ce,64c801456a07b2af717fe4dc,up,-1,1,0.2429,0,0,0.2161,17,0,17,0,1,,,,,,,,,,
,,312967,001,2023-07-31_20h49.28.931,arm3_eps,2022.2.5,Win32,60.30635629,61768384731ac05202ee94a9,64c7fed44a04f777bb1e18ce,64c801456a07b2af717fe4dc,right,-1,1,0.2429,0,0.016916847,0.9383,18,0,18,0,1,,,,,,,,,,
,,312967,001,2023-07-31_20h49.28.931,arm3_eps,2022.2.5,Win32,60.30635629,61768384731ac05202ee94a9,64c7fed44a04f777bb1e18ce,64c801456a07b2af717fe4dc,right,-1,1,0.2429,0,0.012618965,0.4022,19,0,19,0,1,,,,,,,,,,
,,312967,001,2023-07-31_20h49.28.931,arm3_eps,2022.2.5,Win32,60.30635629,61768384731ac05202ee94a9,64c7fed44a04f777bb1e18ce,64c801456a07b2af717fe4dc,right,-1,1,0.2429,0,0.007364576,0.2728,20,0,20,0,1,,,,,,,,,,
,,312967,001,2023-07-31_20h49.28.931,arm3_eps,2022.2.5,Win32,60.30635629,61768384731ac05202ee94a9,64c7fed44a04f777bb1e18ce,64c801456a07b2af717fe4dc,right,-1,1,0.2429,0,-0.002939421,0.2148,21,0,21,0,1,,,,,,,,,,
,,312967,001,2023-07-31_20h49.28.931,arm3_eps,2022.2.5,Win32,60.30635629,61768384731ac05202ee94a9,64c7fed44a04f777bb1e18ce,64c801456a07b2af717fe4dc,right,-1,1,0.2429,0,-0.032025295,0.1184,22,0,22,0,1,,,,,,,,,,
,,312967,001,2023-07-31_20h49.28.931,arm3_eps,2022.2.5,Win32,60.30635629,61768384731ac05202ee94a9,64c7fed44a04f777bb1e18ce,64c801456a07b2af717fe4dc,right,-1,1,0.2429,0,-0.077791346,0.2352,23,0,23,0,1,,,,,,,,,,
,,312967,001,2023-07-31_20h49.28.931,arm3_eps,2022.2.5,Win32,60.30635629,61768384731ac05202ee94a9,64c7fed44a04f777bb1e18ce,64c801456a07b2af717fe4dc,down,-1,1,0.2429,1,0,0.9864,24,0,24,0,1,,,,,,,,,,
,,312967,001,2023-07-31_20h49.28.931,arm3_eps,2022.2.5,Win32,60.30635629,61768384731ac05202ee94a9,64c7fed44a04f777bb1e18ce,64c801456a07b2af717fe4dc,right,-1,1,0.2429,1,0.021224359,0.9878,25,0,25,0,1,,,,,,,,,,
,,312967,001,2023-07-31_20h49.28.931,arm3_eps,2022.2.5,Win32,60.30635629,61768384731ac05202ee94a9,64c7fed44a04f777bb1e18ce,64c801456a07b2af717fe4dc,right,-1,1,0.2429,1,0.008309811,0.1684,26,0,26,0,1,,,,,,,,,,
,,312967,001,2023-07-31_20h49.28.931,arm3_eps,2022.2.5,Win32,60.30635629,61768384731ac05202ee94a9,64c7fed44a04f777bb1e18ce,64c801456a07b2af717fe4dc,right,-1,1,0.2429,1,0.016649878,0.1584,27,0,27,0,1,,,,,,,,,,
,,312967,001,2023-07-31_20h49.28.931,arm3_eps,2022.2.5,Win32,60.30635629,61768384731ac05202ee94a9,64c7fed44a04f777bb1e18ce,64c801456a07b2af717fe4dc,right,-1,1,0.2429,1,0.003388506,0.2255,28,0,28,0,1,,,,,,,,,,
,,312967,001,2023-07-31_20h49.28.931,arm3_eps,2022.2.5,Win32,60.30635629,61768384731ac05202ee94a9,64c7fed44a04f777bb1e18ce,64c801456a07b2af717fe4dc,right,-1,1,0.2429,1,-0.003793596,0.2223,29,0,29,0,1,,,,,,,,,,
,,312967,001,2023-07-31_20h49.28.931,arm3_eps,2022.2.5,Win32,60.30635629,61768384731ac05202ee94a9,64c7fed44a04f777bb1e18ce,64c801456a07b2af717fe4dc,right,-1,1,0.2429,1,0.00646801,0.2003,30,0,30,0,1,,,,,,,,,,
,,312967,001,2023-07-31_20h49.28.931,arm3_eps,2022.2.5,Win32,60.30635629,61768384731ac05202ee94a9,64c7fed44a04f777bb1e18ce,64c801456a07b2af717fe4dc,right,-1,1,0.2429,1,-0.009184441,0.1746,31,0,31,0,1,,,,,,,,,,
,,312967,001,2023-07-31_20h49.28.931,arm3_eps,2022.2.5,Win32,60.30635629,61768384731ac05202ee94a9,64c7fed44a04f777bb1e18ce,64c801456a07b2af717fe4dc,right,-1,1,0.2429,1,-0.034740982,0.1811,32,0,32,0,1,,,,,,,,,,
,,312967,001,2023-07-31_20h49.28.931,arm3_eps,2022.2.5,Win32,60.30635629,61768384731ac05202ee94a9,64c7fed44a04f777bb1e18ce,64c801456a07b2af717fe4dc,right,-1,1,0.2429,1,-0.034810358,0.2429,33,0,33,0,1,,,,,,,,,,
,,312967,001,2023-07-31_20h49.28.931,arm3_eps,2022.2.5,Win32,60.30635629,61768384731ac05202ee94a9,64c7fed44a04f777bb1e18ce,64c801456a07b2af717fe4dc,down,-1,1,0.2429,2,0,0.3273,34,0,34,0,1,,,,,,,,,,
,,312967,001,2023-07-31_20h49.28.931,arm3_eps,2022.2.5,Win32,60.30635629,61768384731ac05202ee94a9,64c7fed44a04f777bb1e18ce,64c801456a07b2af717fe4dc,right,-1,1,0.2429,2,-0.034602091,1.132,35,0,35,0,1,,,,,,,,,,
,,312967,001,2023-07-31_20h49.28.931,arm3_eps,2022.2.5,Win32,60.30635629,61768384731ac05202ee94a9,64c7fed44a04f777bb1e18ce,64c801456a07b2af717fe4dc,right,-1,1,0.2429,2,-0.014118925,0.5018,36,0,36,0,1,,,,,,,,,,
,,312967,001,2023-07-31_20h49.28.931,arm3_eps,2022.2.5,Win32,60.30635629,61768384731ac05202ee94a9,64c7fed44a04f777bb1e18ce,64c801456a07b2af717fe4dc,right,-1,1,0.2429,2,-0.003718424,0.185,37,0,37,0,1,,,,,,,,,,
,,312967,001,2023-07-31_20h49.28.931,arm3_eps,2022.2.5,Win32,60.30635629,61768384731ac05202ee94a9,64c7fed44a04f777bb1e18ce,64c801456a07b2af717fe4dc,right,-1,1,0.2429,2,0.008149398,0.1853,38,0,38,0,1,,,,,,,,,,
,,312967,001,2023-07-31_20h49.28.931,arm3_eps,2022.2.5,Win32,60.30635629,61768384731ac05202ee94a9,64c7fed44a04f777bb1e18ce,64c801456a07b2af717fe4dc,right,-1,1,0.2429,2,0.000921355,0.1198,39,0,39,0,1,,,,,,,,,,
,,312967,001,2023-07-31_20h49.28.931,arm3_eps,2022.2.5,Win32,60.30635629,61768384731ac05202ee94a9,64c7fed44a04f777bb1e18ce,64c801456a07b2af717fe4dc,right,-1,1,0.2429,2,0.013594347,0.2021,40,0,40,0,1,,,,,,,,,,
,,312967,001,2023-07-31_20h49.28.931,arm3_eps,2022.2.5,Win32,60.30635629,61768384731ac05202ee94a9,64c7fed44a04f777bb1e18ce,64c801456a07b2af717fe4dc,right,-1,1,0.2429,2,0.021677697,0.1685,41,0,41,0,1,,,,,,,,,,
,,312967,001,2023-07-31_20h49.28.931,arm3_eps,2022.2.5,Win32,60.30635629,61768384731ac05202ee94a9,64c7fed44a04f777bb1e18ce,64c801456a07b2af717fe4dc,right,-1,1,0.2429,2,0.025301304,0.3018,42,0,42,0,1,,,,,,,,,,
,,312967,001,2023-07-31_20h49.28.931,arm3_eps,2022.2.5,Win32,60.30635629,61768384731ac05202ee94a9,64c7fed44a04f777bb1e18ce,64c801456a07b2af717fe4dc,right,-1,1,0.2429,2,0.050851943,0.102,43,0,43,0,1,,,,,,,,,,
,,312967,001,2023-07-31_20h49.28.931,arm3_eps,2022.2.5,Win32,60.30635629,61768384731ac05202ee94a9,64c7fed44a04f777bb1e18ce,64c801456a07b2af717fe4dc,up,-1,1,0.2429,1,0,0.3855,44,0,44,0,1,,,,,,,,,,
,,312967,001,2023-07-31_20h49.28.931,arm3_eps,2022.2.5,Win32,60.30635629,61768384731ac05202ee94a9,64c7fed44a04f777bb1e18ce,64c801456a07b2af717fe4dc,right,-1,1,0.2429,1,-0.023721372,1.0187,45,0,45,0,1,,,,,,,,,,
,,312967,001,2023-07-31_20h49.28.931,arm3_eps,2022.2.5,Win32,60.30635629,61768384731ac05202ee94a9,64c7fed44a04f777bb1e18ce,64c801456a07b2af717fe4dc,right,-1,1,0.2429,1,-0.016032524,0.2143,46,0,46,0,1,,,,,,,,,,
,,312967,001,2023-07-31_20h49.28.931,arm3_eps,2022.2.5,Win32,60.30635629,61768384731ac05202ee94a9,64c7fed44a04f777bb1e18ce,64c801456a07b2af717fe4dc,right,-1,1,0.2429,1,-0.05369591,0.1666,47,0,47,0,1,,,,,,,,,,
,,312967,001,2023-07-31_20h49.28.931,arm3_eps,2022.2.5,Win32,60.30635629,61768384731ac05202ee94a9,64c7fed44a04f777bb1e18ce,64c801456a07b2af717fe4dc,right,-1,1,0.2429,1,-0.063624059,0.1656,48,0,48,0,1,,,,,,,,,,
,,312967,001,2023-07-31_20h49.28.931,arm3_eps,2022.2.5,Win32,60.30635629,61768384731ac05202ee94a9,64c7fed44a04f777bb1e18ce,64c801456a07b2af717fe4dc,right,-1,1,0.2429,1,-0.063851903,0.1629,49,0,49,0,1,,,,,,,,,,
space,1.7948,312967,001,2023-07-31_20h49.28.931,arm3_eps,2022.2.5,Win32,60.30635629,61768384731ac05202ee94a9,64c7fed44a04f777bb1e18ce,64c801456a07b2af717fe4dc,,,,,,,,,,,,,,,,,,,,,,
space,9.452,312967,001,2023-07-31_20h49.28.931,arm3_eps,2022.2.5,Win32,60.30635629,61768384731ac05202ee94a9,64c7fed44a04f777bb1e18ce,64c801456a07b2af717fe4dc,,,,,,,,,,,,,,,,,,,,,,
space,6.7279,312967,001,2023-07-31_20h49.28.931,arm3_eps,2022.2.5,Win32,60.30635629,61768384731ac05202ee94a9,64c7fed44a04f777bb1e18ce,64c801456a07b2af717fe4dc,,,,,,,,,,,,,,,,,,,,,,
space,3.966,312967,001,2023-07-31_20h49.28.931,arm3_eps,2022.2.5,Win32,60.30635629,61768384731ac05202ee94a9,64c7fed44a04f777bb1e18ce,64c801456a07b2af717fe4dc,,,,,,,,,,,,,,,,,,,,,,
space,4.9685,312967,001,2023-07-31_20h49.28.931,arm3_eps,2022.2.5,Win32,60.30635629,61768384731ac05202ee94a9,64c7fed44a04f777bb1e18ce,64c801456a07b2af717fe4dc,,,,,,,,,,,,,,,,,,,,,,
space,1.636,312967,001,2023-07-31_20h49.28.931,arm3_eps,2022.2.5,Win32,60.30635629,61768384731ac05202ee94a9,64c7fed44a04f777bb1e18ce,64c801456a07b2af717fe4dc,,,,,,,,,,,,,,,,,,,,,,
,,312967,001,2023-07-31_20h49.28.931,arm3_eps,2022.2.5,Win32,60.30635629,61768384731ac05202ee94a9,64c7fed44a04f777bb1e18ce,64c801456a07b2af717fe4dc,right,-1,0.75,0.2429,0,-0.012398403,1.1337,0,0,0,0,1,,,,,,,,,,
,,312967,001,2023-07-31_20h49.28.931,arm3_eps,2022.2.5,Win32,60.30635629,61768384731ac05202ee94a9,64c7fed44a04f777bb1e18ce,64c801456a07b2af717fe4dc,right,-1,0.75,0.2429,0,-0.041613749,0.397,1,0,1,0,1,,,,,,,,,,
,,312967,001,2023-07-31_20h49.28.931,arm3_eps,2022.2.5,Win32,60.30635629,61768384731ac05202ee94a9,64c7fed44a04f777bb1e18ce,64c801456a07b2af717fe4dc,right,-1,0.75,0.2429,0,-0.058228105,0.2386,2,0,2,0,1,,,,,,,,,,
,,312967,001,2023-07-31_20h49.28.931,arm3_eps,2022.2.5,Win32,60.30635629,61768384731ac05202ee94a9,64c7fed44a04f777bb1e18ce,64c801456a07b2af717fe4dc,right,-1,0.75,0.2429,0,-0.082522309,0.2133,3,0,3,0,1,,,,,,,,,,
,,312967,001,2023-07-31_20h49.28.931,arm3_eps,2022.2.5,Win32,60.30635629,61768384731ac05202ee94a9,64c7fed44a04f777bb1e18ce,64c801456a07b2af717fe4dc,down,-1,0.75,0.2429,1,0,0.7057,4,0,4,0,1,,,,,,,,,,
,,312967,001,2023-07-31_20h49.28.931,arm3_eps,2022.2.5,Win32,60.30635629,61768384731ac05202ee94a9,64c7fed44a04f777bb1e18ce,64c801456a07b2af717fe4dc,right,-1,0.75,0.2429,1,-0.00296347,0.9819,5,0,5,0,1,,,,,,,,,,
,,312967,001,2023-07-31_20h49.28.931,arm3_eps,2022.2.5,Win32,60.30635629,61768384731ac05202ee94a9,64c7fed44a04f777bb1e18ce,64c801456a07b2af717fe4dc,right,-1,0.75,0.2429,1,-0.029191322,0.3834,6,0,6,0,1,,,,,,,,,,
,,312967,001,2023-07-31_20h49.28.931,arm3_eps,2022.2.5,Win32,60.30635629,61768384731ac05202ee94a9,64c7fed44a04f777bb1e18ce,64c801456a07b2af717fe4dc,right,-1,0.75,0.2429,1,-0.037515596,0.232,7,0,7,0,1,,,,,,,,,,
,,312967,001,2023-07-31_20h49.28.931,arm3_eps,2022.2.5,Win32,60.30635629,61768384731ac05202ee94a9,64c7fed44a04f777bb1e18ce,64c801456a07b2af717fe4dc,right,-1,0.75,0.2429,1,-0.037991003,0.2494,8,0,8,0,1,,,,,,,,,,
,,312967,001,2023-07-31_20h49.28.931,arm3_eps,2022.2.5,Win32,60.30635629,61768384731ac05202ee94a9,64c7fed44a04f777bb1e18ce,64c801456a07b2af717fe4dc,right,-1,0.75,0.2429,1,-0.025876468,0.1983,9,0,9,0,1,,,,,,,,,,
,,312967,001,2023-07-31_20h49.28.931,arm3_eps,2022.2.5,Win32,60.30635629,61768384731ac05202ee94a9,64c7fed44a04f777bb1e18ce,64c801456a07b2af717fe4dc,right,-1,0.75,0.2429,1,-0.043348724,0.2161,10,0,10,0,1,,,,,,,,,,
,,312967,001,2023-07-31_20h49.28.931,arm3_eps,2022.2.5,Win32,60.30635629,61768384731ac05202ee94a9,64c7fed44a04f777bb1e18ce,64c801456a07b2af717fe4dc,right,-1,0.75,0.2429,1,-0.022887268,0.2319,11,0,11,0,1,,,,,,,,,,
,,312967,001,2023-07-31_20h49.28.931,arm3_eps,2022.2.5,Win32,60.30635629,61768384731ac05202ee94a9,64c7fed44a04f777bb1e18ce,64c801456a07b2af717fe4dc,right,-1,0.75,0.2429,1,0.004295595,0.2657,12,0,12,0,1,,,,,,,,,,
,,312967,001,2023-07-31_20h49.28.931,arm3_eps,2022.2.5,Win32,60.30635629,61768384731ac05202ee94a9,64c7fed44a04f777bb1e18ce,64c801456a07b2af717fe4dc,right,-1,0.75,0.2429,1,-0.022114988,0.3163,13,0,13,0,1,,,,,,,,,,
,,312967,001,2023-07-31_20h49.28.931,arm3_eps,2022.2.5,Win32,60.30635629,61768384731ac05202ee94a9,64c7fed44a04f777bb1e18ce,64c801456a07b2af717fe4dc,down,-1,0.75,0.2429,2,0,0.5996,14,0,14,0,1,,,,,,,,,,
,,312967,001,2023-07-31_20h49.28.931,arm3_eps,2022.2.5,Win32,60.30635629,61768384731ac05202ee94a9,64c7fed44a04f777bb1e18ce,64c801456a07b2af717fe4dc,right,-1,0.75,0.2429,2,-0.013325653,0.8589,15,0,15,0,1,,,,,,,,,,
,,312967,001,2023-07-31_20h49.28.931,arm3_eps,2022.2.5,Win32,60.30635629,61768384731ac05202ee94a9,64c7fed44a04f777bb1e18ce,64c801456a07b2af717fe4dc,right,-1,0.75,0.2429,2,-0.00111293,0.1939,16,0,16,0,1,,,,,,,,,,
,,312967,001,2023-07-31_20h49.28.931,arm3_eps,2022.2.5,Win32,60.30635629,61768384731ac05202ee94a9,64c7fed44a04f777bb1e18ce,64c801456a07b2af717fe4dc,right,-1,0.75,0.2429,2,-0.019232251,0.1943,17,0,17,0,1,,,,,,,,,,
,,312967,001,2023-07-31_20h49.28.931,arm3_eps,2022.2.5,Win32,60.30635629,61768384731ac05202ee94a9,64c7fed44a04f777bb1e18ce,64c801456a07b2af717fe4dc,right,-1,0.75,0.2429,2,-0.033992531,0.2014,18,0,18,0,1,,,,,,,,,,
,,312967,001,2023-07-31_20h49.28.931,arm3_eps,2022.2.5,Win32,60.30635629,61768384731ac05202ee94a9,64c7fed44a04f777bb1e18ce,64c801456a07b2af717fe4dc,right,-1,0.75,0.2429,2,-0.062241387,0.2309,19,0,19,0,1,,,,,,,,,,
,,312967,001,2023-07-31_20h49.28.931,arm3_eps,2022.2.5,Win32,60.30635629,61768384731ac05202ee94a9,64c7fed44a04f777bb1e18ce,64c801456a07b2af717fe4dc,right,-1,0.75,0.2429,2,-0.071697524,0.3242,20,0,20,0,1,,,,,,,,,,
,,312967,001,2023-07-31_20h49.28.931,arm3_eps,2022.2.5,Win32,60.30635629,61768384731ac05202ee94a9,64c7fed44a04f777bb1e18ce,64c801456a07b2af717fe4dc,right,-1,0.75,0.2429,2,-0.089325083,0.3085,21,0,21,0,1,,,,,,,,,,
,,312967,001,2023-07-31_20h49.28.931,arm3_eps,2022.2.5,Win32,60.30635629,61768384731ac05202ee94a9,64c7fed44a04f777bb1e18ce,64c801456a07b2af717fe4dc,down,-1,0.75,0.2429,3,0,0.1969,22,0,22,0,1,,,,,,,,,,
,,312967,001,2023-07-31_20h49.28.931,arm3_eps,2022.2.5,Win32,60.30635629,61768384731ac05202ee94a9,64c7fed44a04f777bb1e18ce,64c801456a07b2af717fe4dc,right,-1,0.75,0.2429,3,0.004388289,0.8681,23,0,23,0,1,,,,,,,,,,
,,312967,001,2023-07-31_20h49.28.931,arm3_eps,2022.2.5,Win32,60.30635629,61768384731ac05202ee94a9,64c7fed44a04f777bb1e18ce,64c801456a07b2af717fe4dc,right,-1,0.75,0.2429,3,-0.002107388,0.23,24,0,24,0,1,,,,,,,,,,
,,312967,001,2023-07-31_20h49.28.931,arm3_eps,2022.2.5,Win32,60.30635629,61768384731ac05202ee94a9,64c7fed44a04f777bb1e18ce,64c801456a07b2af717fe4dc,right,-1,0.75,0.2429,3,-0.001677641,0.3755,25,0,25,0,1,,,,,,,,,,
,,312967,001,2023-07-31_20h49.28.931,arm3_eps,2022.2.5,Win32,60.30635629,61768384731ac05202ee94a9,64c7fed44a04f777bb1e18ce,64c801456a07b2af717fe4dc,right,-1,0.75,0.2429,3,-0.00391182,0.4111,26,0,26,0,1,,,,,,,,,,
,,312967,001,2023-07-31_20h49.28.931,arm3_eps,2022.2.5,Win32,60.30635629,61768384731ac05202ee94a9,64c7fed44a04f777bb1e18ce,64c801456a07b2af717fe4dc,right,-1,0.75,0.2429,3,-0.022969597,0.2146,27,0,27,0,1,,,,,,,,,,
,,312967,001,2023-07-31_20h49.28.931,arm3_eps,2022.2.5,Win32,60.30635629,61768384731ac05202ee94a9,64c7fed44a04f777bb1e18ce,64c801456a07b2af717fe4dc,right,-1,0.75,0.2429,3,-0.021314133,0.1572,28,0,28,0,1,,,,,,,,,,
,,312967,001,2023-07-31_20h49.28.931,arm3_eps,2022.2.5,Win32,60.30635629,61768384731ac05202ee94a9,64c7fed44a04f777bb1e18ce,64c801456a07b2af717fe4dc,right,-1,0.75,0.2429,3,0.018804578,0.1851,29,0,29,0,1,,,,,,,,,,
,,312967,001,2023-07-31_20h49.28.931,arm3_eps,2022.2.5,Win32,60.30635629,61768384731ac05202ee94a9,64c7fed44a04f777bb1e18ce,64c801456a07b2af717fe4dc,right,-1,0.75,0.2429,3,0.006583606,0.307,30,0,30,0,1,,,,,,,,,,
,,312967,001,2023-07-31_20h49.28.931,arm3_eps,2022.2.5,Win32,60.30635629,61768384731ac05202ee94a9,64c7fed44a04f777bb1e18ce,64c801456a07b2af717fe4dc,right,-1,0.75,0.2429,3,0.002133326,0.1965,31,0,31,0,1,,,,,,,,,,
,,312967,001,2023-07-31_20h49.28.931,arm3_eps,2022.2.5,Win32,60.30635629,61768384731ac05202ee94a9,64c7fed44a04f777bb1e18ce,64c801456a07b2af717fe4dc,right,-1,0.75,0.2429,3,-0.043490269,0.2244,32,0,32,0,1,,,,,,,,,,
,,312967,001,2023-07-31_20h49.28.931,arm3_eps,2022.2.5,Win32,60.30635629,61768384731ac05202ee94a9,64c7fed44a04f777bb1e18ce,64c801456a07b2af717fe4dc,right,-1,0.75,0.2429,3,-0.062093348,0.405,33,0,33,0,1,,,,,,,,,,
,,312967,001,2023-07-31_20h49.28.931,arm3_eps,2022.2.5,Win32,60.30635629,61768384731ac05202ee94a9,64c7fed44a04f777bb1e18ce,64c801456a07b2af717fe4dc,down,-1,0.75,0.2429,4,0,0.3185,34,0,34,0,1,,,,,,,,,,
,,312967,001,2023-07-31_20h49.28.931,arm3_eps,2022.2.5,Win32,60.30635629,61768384731ac05202ee94a9,64c7fed44a04f777bb1e18ce,64c801456a07b2af717fe4dc,right,-1,0.75,0.2429,4,-0.004600875,0.8738,35,0,35,0,1,,,,,,,,,,
,,312967,001,2023-07-31_20h49.28.931,arm3_eps,2022.2.5,Win32,60.30635629,61768384731ac05202ee94a9,64c7fed44a04f777bb1e18ce,64c801456a07b2af717fe4dc,right,-1,0.75,0.2429,4,-0.028318333,0.2108,36,0,36,0,1,,,,,,,,,,
,,312967,001,2023-07-31_20h49.28.931,arm3_eps,2022.2.5,Win32,60.30635629,61768384731ac05202ee94a9,64c7fed44a04f777bb1e18ce,64c801456a07b2af717fe4dc,right,-1,0.75,0.2429,4,-0.033244843,0.2114,37,0,37,0,1,,,,,,,,,,
,,312967,001,2023-07-31_20h49.28.931,arm3_eps,2022.2.5,Win32,60.30635629,61768384731ac05202ee94a9,64c7fed44a04f777bb1e18ce,64c801456a07b2af717fe4dc,right,-1,0.75,0.2429,4,-0.042284871,0.1642,38,0,38,0,1,,,,,,,,,,
,,312967,001,2023-07-31_20h49.28.931,arm3_eps,2022.2.5,Win32,60.30635629,61768384731ac05202ee94a9,64c7fed44a04f777bb1e18ce,64c801456a07b2af717fe4dc,right,-1,0.75,0.2429,4,-0.087993414,0.207,39,0,39,0,1,,,,,,,,,,
,,312967,001,2023-07-31_20h49.28.931,arm3_eps,2022.2.5,Win32,60.30635629,61768384731ac05202ee94a9,64c7fed44a04f777bb1e18ce,64c801456a07b2af717fe4dc,right,-1,0.75,0.2429,4,-0.098052536,0.274,40,0,40,0,1,,,,,,,,,,
,,312967,001,2023-07-31_20h49.28.931,arm3_eps,2022.2.5,Win32,60.30635629,61768384731ac05202ee94a9,64c7fed44a04f777bb1e18ce,64c801456a07b2af717fe4dc,down,1,0.75,0.2429,4,0,0.2103,41,0,41,0,1,,,,,,,,,,
,,312967,001,2023-07-31_20h49.28.931,arm3_eps,2022.2.5,Win32,60.30635629,61768384731ac05202ee94a9,64c7fed44a04f777bb1e18ce,64c801456a07b2af717fe4dc,right,1,0.75,0.2429,4,-0.007327405,1.1991,42,0,42,0,1,,,,,,,,,,
,,312967,001,2023-07-31_20h49.28.931,arm3_eps,2022.2.5,Win32,60.30635629,61768384731ac05202ee94a9,64c7fed44a04f777bb1e18ce,64c801456a07b2af717fe4dc,right,1,0.75,0.2429,4,-0.009561381,0.2388,43,0,43,0,1,,,,,,,,,,
,,312967,001,2023-07-31_20h49.28.931,arm3_eps,2022.2.5,Win32,60.30635629,61768384731ac05202ee94a9,64c7fed44a04f777bb1e18ce,64c801456a07b2af717fe4dc,right,1,0.75,0.2429,4,0.017537241,0.2307,44,0,44,0,1,,,,,,,,,,
,,312967,001,2023-07-31_20h49.28.931,arm3_eps,2022.2.5,Win32,60.30635629,61768384731ac05202ee94a9,64c7fed44a04f777bb1e18ce,64c801456a07b2af717fe4dc,right,1,0.75,0.2429,4,0.036183727,0.2088,45,0,45,0,1,,,,,,,,,,
,,312967,001,2023-07-31_20h49.28.931,arm3_eps,2022.2.5,Win32,60.30635629,61768384731ac05202ee94a9,64c7fed44a04f777bb1e18ce,64c801456a07b2af717fe4dc,right,1,0.75,0.2429,4,0.06354162,0.3274,46,0,46,0,1,,,,,,,,,,
,,312967,001,2023-07-31_20h49.28.931,arm3_eps,2022.2.5,Win32,60.30635629,61768384731ac05202ee94a9,64c7fed44a04f777bb1e18ce,64c801456a07b2af717fe4dc,right,1,0.75,0.2429,4,0.074184663,0.2603,47,0,47,0,1,,,,,,,,,,
,,312967,001,2023-07-31_20h49.28.931,arm3_eps,2022.2.5,Win32,60.30635629,61768384731ac05202ee94a9,64c7fed44a04f777bb1e18ce,64c801456a07b2af717fe4dc,up,1,0.75,0.2429,5,0,0.2582,48,0,48,0,1,,,,,,,,,,
,,312967,001,2023-07-31_20h49.28.931,arm3_eps,2022.2.5,Win32,60.30635629,61768384731ac05202ee94a9,64c7fed44a04f777bb1e18ce,64c801456a07b2af717fe4dc,right,1,0.75,0.2429,5,0.012897964,0.7896,49,0,49,0,1,,,,,,,,,,
space,16.7729,312967,001,2023-07-31_20h49.28.931,arm3_eps,2022.2.5,Win32,60.30635629,61768384731ac05202ee94a9,64c7fed44a04f777bb1e18ce,64c801456a07b2af717fe4dc,,,,,,,,,,,,,,,,,,,,,,
space,12.4725,312967,001,2023-07-31_20h49.28.931,arm3_eps,2022.2.5,Win32,60.30635629,61768384731ac05202ee94a9,64c7fed44a04f777bb1e18ce,64c801456a07b2af717fe4dc,,,,,,,,,,,,,,,,,,,,,,
space,0.8514,312967,001,2023-07-31_20h49.28.931,arm3_eps,2022.2.5,Win32,60.30635629,61768384731ac05202ee94a9,64c7fed44a04f777bb1e18ce,64c801456a07b2af717fe4dc,,,,,,,,,,,,,,,,,,,,,,
,,312967,001,2023-07-31_20h49.28.931,arm3_eps,2022.2.5,Win32,60.30635629,61768384731ac05202ee94a9,64c7fed44a04f777bb1e18ce,64c801456a07b2af717fe4dc,right,1,0.75,0.05,0,-0.013714136,1.8866,0,0,0,0,1,,,,,,,,,,
,,312967,001,2023-07-31_20h49.28.931,arm3_eps,2022.2.5,Win32,60.30635629,61768384731ac05202ee94a9,64c7fed44a04f777bb1e18ce,64c801456a07b2af717fe4dc,right,1,0.75,0.05,0,-0.007924078,0.7808,1,0,1,0,1,,,,,,,,,,
,,312967,001,2023-07-31_20h49.28.931,arm3_eps,2022.2.5,Win32,60.30635629,61768384731ac05202ee94a9,64c7fed44a04f777bb1e18ce,64c801456a07b2af717fe4dc,right,1,0.75,0.05,0,-0.006902657,0.2106,2,0,2,0,1,,,,,,,,,,
,,312967,001,2023-07-31_20h49.28.931,arm3_eps,2022.2.5,Win32,60.30635629,61768384731ac05202ee94a9,64c7fed44a04f777bb1e18ce,64c801456a07b2af717fe4dc,right,1,0.75,0.05,0,0.005003907,0.2719,3,0,3,0,1,,,,,,,,,,
,,312967,001,2023-07-31_20h49.28.931,arm3_eps,2022.2.5,Win32,60.30635629,61768384731ac05202ee94a9,64c7fed44a04f777bb1e18ce,64c801456a07b2af717fe4dc,right,1,0.75,0.05,0,0.020856757,0.4077,4,0,4,0,1,,,,,,,,,,
,,312967,001,2023-07-31_20h49.28.931,arm3_eps,2022.2.5,Win32,60.30635629,61768384731ac05202ee94a9,64c7fed44a04f777bb1e18ce,64c801456a07b2af717fe4dc,right,1,0.75,0.05,0,0.040540407,0.2583,5,0,5,0,1,,,,,,,,,,
,,312967,001,2023-07-31_20h49.28.931,arm3_eps,2022.2.5,Win32,60.30635629,61768384731ac05202ee94a9,64c7fed44a04f777bb1e18ce,64c801456a07b2af717fe4dc,up,1,0.75,0.05,1,0,0.3797,6,0,6,0,1,,,,,,,,,,
,,312967,001,2023-07-31_20h49.28.931,arm3_eps,2022.2.5,Win32,60.30635629,61768384731ac05202ee94a9,64c7fed44a04f777bb1e18ce,64c801456a07b2af717fe4dc,right,1,0.75,0.05,1,0.029316087,1.0275,7,0,7,0,1,,,,,,,,,,
,,312967,001,2023-07-31_20h49.28.931,arm3_eps,2022.2.5,Win32,60.30635629,61768384731ac05202ee94a9,64c7fed44a04f777bb1e18ce,64c801456a07b2af717fe4dc,right,1,0.75,0.05,1,0.042447261,0.1981,8,0,8,0,1,,,,,,,,,,
,,312967,001,2023-07-31_20h49.28.931,arm3_eps,2022.2.5,Win32,60.30635629,61768384731ac05202ee94a9,64c7fed44a04f777bb1e18ce,64c801456a07b2af717fe4dc,right,1,0.75,0.05,1,0.029289801,0.2062,9,0,9,0,1,,,,,,,,,,
,,312967,001,2023-07-31_20h49.28.931,arm3_eps,2022.2.5,Win32,60.30635629,61768384731ac05202ee94a9,64c7fed44a04f777bb1e18ce,64c801456a07b2af717fe4dc,right,1,0.75,0.05,1,0.0391465,0.2279,10,0,10,0,1,,,,,,,,,,
,,312967,001,2023-07-31_20h49.28.931,arm3_eps,2022.2.5,Win32,60.30635629,61768384731ac05202ee94a9,64c7fed44a04f777bb1e18ce,64c801456a07b2af717fe4dc,right,1,0.75,0.05,1,0.037765239,0.3403,11,0,11,0,1,,,,,,,,,,
,,312967,001,2023-07-31_20h49.28.931,arm3_eps,2022.2.5,Win32,60.30635629,61768384731ac05202ee94a9,64c7fed44a04f777bb1e18ce,64c801456a07b2af717fe4dc,right,1,0.75,0.05,1,0.02717961,0.2831,12,0,12,0,1,,,,,,,,,,
,,312967,001,2023-07-31_20h49.28.931,arm3_eps,2022.2.5,Win32,60.30635629,61768384731ac05202ee94a9,64c7fed44a04f777bb1e18ce,64c801456a07b2af717fe4dc,right,1,0.75,0.05,1,0.035785961,0.4234,13,0,13,0,1,,,,,,,,,,
,,312967,001,2023-07-31_20h49.28.931,arm3_eps,2022.2.5,Win32,60.30635629,61768384731ac05202ee94a9,64c7fed44a04f777bb1e18ce,64c801456a07b2af717fe4dc,up,1,0.75,0.05,1,0,0.3714,14,0,14,0,1,,,,,,,,,,
,,312967,001,2023-07-31_20h49.28.931,arm3_eps,2022.2.5,Win32,60.30635629,61768384731ac05202ee94a9,64c7fed44a04f777bb1e18ce,64c801456a07b2af717fe4dc,right,1,0.75,0.05,1,-0.008761301,1.016,15,0,15,0,1,,,,,,,,,,
,,312967,001,2023-07-31_20h49.28.931,arm3_eps,2022.2.5,Win32,60.30635629,61768384731ac05202ee94a9,64c7fed44a04f777bb1e18ce,64c801456a07b2af717fe4dc,right,1,0.75,0.05,1,-0.003895395,0.2212,16,0,16,0,1,,,,,,,,,,
,,312967,001,2023-07-31_20h49.28.931,arm3_eps,2022.2.5,Win32,60.30635629,61768384731ac05202ee94a9,64c7fed44a04f777bb1e18ce,64c801456a07b2af717fe4dc,right,1,0.75,0.05,1,-0.016355559,0.3993,17,0,17,0,1,,,,,,,,,,
,,312967,001,2023-07-31_20h49.28.931,arm3_eps,2022.2.5,Win32,60.30635629,61768384731ac05202ee94a9,64c7fed44a04f777bb1e18ce,64c801456a07b2af717fe4dc,right,1,0.75,0.05,1,-0.01969062,0.2219,18,0,18,0,1,,,,,,,,,,
,,312967,001,2023-07-31_20h49.28.931,arm3_eps,2022.2.5,Win32,60.30635629,61768384731ac05202ee94a9,64c7fed44a04f777bb1e18ce,64c801456a07b2af717fe4dc,right,1,0.75,0.05,1,0.010420965,0.1921,19,0,19,0,1,,,,,,,,,,
,,312967,001,2023-07-31_20h49.28.931,arm3_eps,2022.2.5,Win32,60.30635629,61768384731ac05202ee94a9,64c7fed44a04f777bb1e18ce,64c801456a07b2af717fe4dc,right,1,0.75,0.05,1,0.020827143,0.3884,20,0,20,0,1,,,,,,,,,,
,,312967,001,2023-07-31_20h49.28.931,arm3_eps,2022.2.5,Win32,60.30635629,61768384731ac05202ee94a9,64c7fed44a04f777bb1e18ce,64c801456a07b2af717fe4dc,right,1,0.75,0.05,1,0.034963409,0.1669,21,0,21,0,1,,,,,,,,,,
,,312967,001,2023-07-31_20h49.28.931,arm3_eps,2022.2.5,Win32,60.30635629,61768384731ac05202ee94a9,64c7fed44a04f777bb1e18ce,64c801456a07b2af717fe4dc,right,1,0.75,0.05,1,0.032416348,0.1743,22,0,22,0,1,,,,,,,,,,
,,312967,001,2023-07-31_20h49.28.931,arm3_eps,2022.2.5,Win32,60.30635629,61768384731ac05202ee94a9,64c7fed44a04f777bb1e18ce,64c801456a07b2af717fe4dc,up,1,0.75,0.05,2,0,0.2588,23,0,23,0,1,,,,,,,,,,
,,312967,001,2023-07-31_20h49.28.931,arm3_eps,2022.2.5,Win32,60.30635629,61768384731ac05202ee94a9,64c7fed44a04f777bb1e18ce,64c801456a07b2af717fe4dc,right,1,0.75,0.05,2,-0.01029781,0.6433,24,0,24,0,1,,,,,,,,,,
,,312967,001,2023-07-31_20h49.28.931,arm3_eps,2022.2.5,Win32,60.30635629,61768384731ac05202ee94a9,64c7fed44a04f777bb1e18ce,64c801456a07b2af717fe4dc,right,1,0.75,0.05,2,-0.005174575,0.2388,25,0,25,0,1,,,,,,,,,,
,,312967,001,2023-07-31_20h49.28.931,arm3_eps,2022.2.5,Win32,60.30635629,61768384731ac05202ee94a9,64c7fed44a04f777bb1e18ce,64c801456a07b2af717fe4dc,right,1,0.75,0.05,2,0.027025749,0.1938,26,0,26,0,1,,,,,,,,,,
,,312967,001,2023-07-31_20h49.28.931,arm3_eps,2022.2.5,Win32,60.30635629,61768384731ac05202ee94a9,64c7fed44a04f777bb1e18ce,64c801456a07b2af717fe4dc,right,1,0.75,0.05,2,0.041082911,0.1737,27,0,27,0,1,,,,,,,,,,
,,312967,001,2023-07-31_20h49.28.931,arm3_eps,2022.2.5,Win32,60.30635629,61768384731ac05202ee94a9,64c7fed44a04f777bb1e18ce,64c801456a07b2af717fe4dc,right,1,0.75,0.05,2,0.054809814,0.2075,28,0,28,0,1,,,,,,,,,,
,,312967,001,2023-07-31_20h49.28.931,arm3_eps,2022.2.5,Win32,60.30635629,61768384731ac05202ee94a9,64c7fed44a04f777bb1e18ce,64c801456a07b2af717fe4dc,up,1,0.75,0.05,3,0,0.3734,29,0,29,0,1,,,,,,,,,,
,,312967,001,2023-07-31_20h49.28.931,arm3_eps,2022.2.5,Win32,60.30635629,61768384731ac05202ee94a9,64c7fed44a04f777bb1e18ce,64c801456a07b2af717fe4dc,right,1,0.75,0.05,3,-0.008522698,0.4665,30,0,30,0,1,,,,,,,,,,
,,312967,001,2023-07-31_20h49.28.931,arm3_eps,2022.2.5,Win32,60.30635629,61768384731ac05202ee94a9,64c7fed44a04f777bb1e18ce,64c801456a07b2af717fe4dc,right,1,0.75,0.05,3,0.005507387,0.1909,31,0,31,0,1,,,,,,,,,,
,,312967,001,2023-07-31_20h49.28.931,arm3_eps,2022.2.5,Win32,60.30635629,61768384731ac05202ee94a9,64c7fed44a04f777bb1e18ce,64c801456a07b2af717fe4dc,right,1,0.75,0.05,3,0.023306462,0.4582,32,0,32,0,1,,,,,,,,,,
,,312967,001,2023-07-31_20h49.28.931,arm3_eps,2022.2.5,Win32,60.30635629,61768384731ac05202ee94a9,64c7fed44a04f777bb1e18ce,64c801456a07b2af717fe4dc,right,1,0.75,0.05,3,0.052547547,0.207,33,0,33,0,1,,,,,,,,,,
,,312967,001,2023-07-31_20h49.28.931,arm3_eps,2022.2.5,Win32,60.30635629,61768384731ac05202ee94a9,64c7fed44a04f777bb1e18ce,64c801456a07b2af717fe4dc,up,-1,0.75,0.05,4,0,0.1391,34,0,34,0,1,,,,,,,,,,
,,312967,001,2023-07-31_20h49.28.931,arm3_eps,2022.2.5,Win32,60.30635629,61768384731ac05202ee94a9,64c7fed44a04f777bb1e18ce,64c801456a07b2af717fe4dc,right,-1,0.75,0.05,4,-0.012883045,0.499,35,0,35,0,1,,,,,,,,,,
,,312967,001,2023-07-31_20h49.28.931,arm3_eps,2022.2.5,Win32,60.30635629,61768384731ac05202ee94a9,64c7fed44a04f777bb1e18ce,64c801456a07b2af717fe4dc,right,-1,0.75,0.05,4,-0.081916411,0.2219,36,0,36,0,1,,,,,,,,,,
,,312967,001,2023-07-31_20h49.28.931,arm3_eps,2022.2.5,Win32,60.30635629,61768384731ac05202ee94a9,64c7fed44a04f777bb1e18ce,64c801456a07b2af717fe4dc,right,-1,0.75,0.05,4,-0.081227971,0.5106,37,0,37,0,1,,,,,,,,,,
,,312967,001,2023-07-31_20h49.28.931,arm3_eps,2022.2.5,Win32,60.30635629,61768384731ac05202ee94a9,64c7fed44a04f777bb1e18ce,64c801456a07b2af717fe4dc,down,-1,0.75,0.05,5,0,0.1937,38,0,38,0,1,,,,,,,,,,
,,312967,001,2023-07-31_20h49.28.931,arm3_eps,2022.2.5,Win32,60.30635629,61768384731ac05202ee94a9,64c7fed44a04f777bb1e18ce,64c801456a07b2af717fe4dc,right,-1,0.75,0.05,5,-0.020828873,0.9838,39,0,39,0,1,,,,,,,,,,
,,312967,001,2023-07-31_20h49.28.931,arm3_eps,2022.2.5,Win32,60.30635629,61768384731ac05202ee94a9,64c7fed44a04f777bb1e18ce,64c801456a07b2af717fe4dc,right,-1,0.75,0.05,5,-0.004605752,0.1955,40,0,40,0,1,,,,,,,,,,
,,312967,001,2023-07-31_20h49.28.931,arm3_eps,2022.2.5,Win32,60.30635629,61768384731ac05202ee94a9,64c7fed44a04f777bb1e18ce,64c801456a07b2af717fe4dc,right,-1,0.75,0.05,5,-0.008596042,0.3824,41,0,41,0,1,,,,,,,,,,
,,312967,001,2023-07-31_20h49.28.931,arm3_eps,2022.2.5,Win32,60.30635629,61768384731ac05202ee94a9,64c7fed44a04f777bb1e18ce,64c801456a07b2af717fe4dc,right,-1,0.75,0.05,5,-0.019381572,0.3886,42,0,42,0,1,,,,,,,,,,
,,312967,001,2023-07-31_20h49.28.931,arm3_eps,2022.2.5,Win32,60.30635629,61768384731ac05202ee94a9,64c7fed44a04f777bb1e18ce,64c801456a07b2af717fe4dc,down,-1,0.75,0.05,6,0,0.7234,43,0,43,0,1,,,,,,,,,,
,,312967,001,2023-07-31_20h49.28.931,arm3_eps,2022.2.5,Win32,60.30635629,61768384731ac05202ee94a9,64c7fed44a04f777bb1e18ce,64c801456a07b2af717fe4dc,right,-1,0.75,0.05,6,-0.034628052,0.9662,44,0,44,0,1,,,,,,,,,,
,,312967,001,2023-07-31_20h49.28.931,arm3_eps,2022.2.5,Win32,60.30635629,61768384731ac05202ee94a9,64c7fed44a04f777bb1e18ce,64c801456a07b2af717fe4dc,right,-1,0.75,0.05,6,-0.0426047,0.2053,45,0,45,0,1,,,,,,,,,,
,,312967,001,2023-07-31_20h49.28.931,arm3_eps,2022.2.5,Win32,60.30635629,61768384731ac05202ee94a9,64c7fed44a04f777bb1e18ce,64c801456a07b2af717fe4dc,down,-1,0.75,0.05,7,0,0.2667,46,0,46,0,1,,,,,,,,,,
,,312967,001,2023-07-31_20h49.28.931,arm3_eps,2022.2.5,Win32,60.30635629,61768384731ac05202ee94a9,64c7fed44a04f777bb1e18ce,64c801456a07b2af717fe4dc,right,-1,0.75,0.05,7,0.032155218,0.7069,47,0,47,0,1,,,,,,,,,,
,,312967,001,2023-07-31_20h49.28.931,arm3_eps,2022.2.5,Win32,60.30635629,61768384731ac05202ee94a9,64c7fed44a04f777bb1e18ce,64c801456a07b2af717fe4dc,right,-1,0.75,0.05,7,0.02341929,0.2128,48,0,48,0,1,,,,,,,,,,
,,312967,001,2023-07-31_20h49.28.931,arm3_eps,2022.2.5,Win32,60.30635629,61768384731ac05202ee94a9,64c7fed44a04f777bb1e18ce,64c801456a07b2af717fe4dc,right,-1,0.75,0.05,7,0.00727397,0.1788,49,0,49,0,1,,,,,,,,,,
space,16.5446,312967,001,2023-07-31_20h49.28.931,arm3_eps,2022.2.5,Win32,60.30635629,61768384731ac05202ee94a9,64c7fed44a04f777bb1e18ce,64c801456a07b2af717fe4dc,,,,,,,,,,,,,,,,,,,,,,
space,2.0526,312967,001,2023-07-31_20h49.28.931,arm3_eps,2022.2.5,Win32,60.30635629,61768384731ac05202ee94a9,64c7fed44a04f777bb1e18ce,64c801456a07b2af717fe4dc,,,,,,,,,,,,,,,,,,,,,,
,,312967,001,2023-07-31_20h49.28.931,arm3_eps,2022.2.5,Win32,60.30635629,61768384731ac05202ee94a9,64c7fed44a04f777bb1e18ce,64c801456a07b2af717fe4dc,up,1,0.75,0.5,0,0,1.2863,0,0,0,0,1,,,,,,,,,,
,,312967,001,2023-07-31_20h49.28.931,arm3_eps,2022.2.5,Win32,60.30635629,61768384731ac05202ee94a9,64c7fed44a04f777bb1e18ce,64c801456a07b2af717fe4dc,right,1,0.75,0.5,0,-0.010334633,0.9563,1,0,1,0,1,,,,,,,,,,
,,312967,001,2023-07-31_20h49.28.931,arm3_eps,2022.2.5,Win32,60.30635629,61768384731ac05202ee94a9,64c7fed44a04f777bb1e18ce,64c801456a07b2af717fe4dc,right,1,0.75,0.5,0,-0.015774105,0.2661,2,0,2,0,1,,,,,,,,,,
,,312967,001,2023-07-31_20h49.28.931,arm3_eps,2022.2.5,Win32,60.30635629,61768384731ac05202ee94a9,64c7fed44a04f777bb1e18ce,64c801456a07b2af717fe4dc,right,1,0.75,0.5,0,-0.007485665,0.2717,3,0,3,0,1,,,,,,,,,,
,,312967,001,2023-07-31_20h49.28.931,arm3_eps,2022.2.5,Win32,60.30635629,61768384731ac05202ee94a9,64c7fed44a04f777bb1e18ce,64c801456a07b2af717fe4dc,right,1,0.75,0.5,0,-0.012890858,0.1896,4,0,4,0,1,,,,,,,,,,
,,312967,001,2023-07-31_20h49.28.931,arm3_eps,2022.2.5,Win32,60.30635629,61768384731ac05202ee94a9,64c7fed44a04f777bb1e18ce,64c801456a07b2af717fe4dc,right,1,0.75,0.5,0,-0.013268055,0.2252,5,0,5,0,1,,,,,,,,,,
,,312967,001,2023-07-31_20h49.28.931,arm3_eps,2022.2.5,Win32,60.30635629,61768384731ac05202ee94a9,64c7fed44a04f777bb1e18ce,64c801456a07b2af717fe4dc,right,1,0.75,0.5,0,0.00974736,0.2409,6,0,6,0,1,,,,,,,,,,
,,312967,001,2023-07-31_20h49.28.931,arm3_eps,2022.2.5,Win32,60.30635629,61768384731ac05202ee94a9,64c7fed44a04f777bb1e18ce,64c801456a07b2af717fe4dc,right,1,0.75,0.5,0,-0.00342332,0.3733,7,0,7,0,1,,,,,,,,,,
,,312967,001,2023-07-31_20h49.28.931,arm3_eps,2022.2.5,Win32,60.30635629,61768384731ac05202ee94a9,64c7fed44a04f777bb1e18ce,64c801456a07b2af717fe4dc,right,1,0.75,0.5,0,-0.019583351,0.3899,8,0,8,0,1,,,,,,,,,,
,,312967,001,2023-07-31_20h49.28.931,arm3_eps,2022.2.5,Win32,60.30635629,61768384731ac05202ee94a9,64c7fed44a04f777bb1e18ce,64c801456a07b2af717fe4dc,right,1,0.75,0.5,0,-0.023905487,0.3744,9,0,9,0,1,,,,,,,,,,
,,312967,001,2023-07-31_20h49.28.931,arm3_eps,2022.2.5,Win32,60.30635629,61768384731ac05202ee94a9,64c7fed44a04f777bb1e18ce,64c801456a07b2af717fe4dc,right,1,0.75,0.5,0,-0.041203223,0.19,10,0,10,0,1,,,,,,,,,,
,,312967,001,2023-07-31_20h49.28.931,arm3_eps,2022.2.5,Win32,60.30635629,61768384731ac05202ee94a9,64c7fed44a04f777bb1e18ce,64c801456a07b2af717fe4dc,down,1,0.75,0.5,-1,0,0.6975,11,0,11,0,1,,,,,,,,,,
,,312967,001,2023-07-31_20h49.28.931,arm3_eps,2022.2.5,Win32,60.30635629,61768384731ac05202ee94a9,64c7fed44a04f777bb1e18ce,64c801456a07b2af717fe4dc,right,1,0.75,0.5,-1,0.020655274,0.9313,12,0,12,0,1,,,,,,,,,,
,,312967,001,2023-07-31_20h49.28.931,arm3_eps,2022.2.5,Win32,60.30635629,61768384731ac05202ee94a9,64c7fed44a04f777bb1e18ce,64c801456a07b2af717fe4dc,right,1,0.75,0.5,-1,0.034323578,0.1828,13,0,13,0,1,,,,,,,,,,
,,312967,001,2023-07-31_20h49.28.931,arm3_eps,2022.2.5,Win32,60.30635629,61768384731ac05202ee94a9,64c7fed44a04f777bb1e18ce,64c801456a07b2af717fe4dc,right,1,0.75,0.5,-1,0.029413825,0.173,14,0,14,0,1,,,,,,,,,,
,,312967,001,2023-07-31_20h49.28.931,arm3_eps,2022.2.5,Win32,60.30635629,61768384731ac05202ee94a9,64c7fed44a04f777bb1e18ce,64c801456a07b2af717fe4dc,right,1,0.75,0.5,-1,0.040761752,0.1725,15,0,15,0,1,,,,,,,,,,
,,312967,001,2023-07-31_20h49.28.931,arm3_eps,2022.2.5,Win32,60.30635629,61768384731ac05202ee94a9,64c7fed44a04f777bb1e18ce,64c801456a07b2af717fe4dc,up,1,0.75,0.5,0,0,0.2116,16,0,16,0,1,,,,,,,,,,
,,312967,001,2023-07-31_20h49.28.931,arm3_eps,2022.2.5,Win32,60.30635629,61768384731ac05202ee94a9,64c7fed44a04f777bb1e18ce,64c801456a07b2af717fe4dc,right,1,0.75,0.5,0,-0.005089484,0.7478,17,0,17,0,1,,,,,,,,,,
,,312967,001,2023-07-31_20h49.28.931,arm3_eps,2022.2.5,Win32,60.30635629,61768384731ac05202ee94a9,64c7fed44a04f777bb1e18ce,64c801456a07b2af717fe4dc,right,1,0.75,0.5,0,0.03547166,0.2388,18,0,18,0,1,,,,,,,,,,
,,312967,001,2023-07-31_20h49.28.931,arm3_eps,2022.2.5,Win32,60.30635629,61768384731ac05202ee94a9,64c7fed44a04f777bb1e18ce,64c801456a07b2af717fe4dc,right,1,0.75,0.5,0,0.062462235,0.1936,19,0,19,0,1,,,,,,,,,,
,,312967,001,2023-07-31_20h49.28.931,arm3_eps,2022.2.5,Win32,60.30635629,61768384731ac05202ee94a9,64c7fed44a04f777bb1e18ce,64c801456a07b2af717fe4dc,up,1,0.75,0.5,0,0,0.192,20,0,20,0,1,,,,,,,,,,
,,312967,001,2023-07-31_20h49.28.931,arm3_eps,2022.2.5,Win32,60.30635629,61768384731ac05202ee94a9,64c7fed44a04f777bb1e18ce,64c801456a07b2af717fe4dc,right,1,0.75,0.5,0,-0.001149068,0.9244,21,0,21,0,1,,,,,,,,,,
,,312967,001,2023-07-31_20h49.28.931,arm3_eps,2022.2.5,Win32,60.30635629,61768384731ac05202ee94a9,64c7fed44a04f777bb1e18ce,64c801456a07b2af717fe4dc,right,1,0.75,0.5,0,-0.013927389,0.2079,22,0,22,0,1,,,,,,,,,,
,,312967,001,2023-07-31_20h49.28.931,arm3_eps,2022.2.5,Win32,60.30635629,61768384731ac05202ee94a9,64c7fed44a04f777bb1e18ce,64c801456a07b2af717fe4dc,right,1,0.75,0.5,0,0.014236356,0.1994,23,0,23,0,1,,,,,,,,,,
,,312967,001,2023-07-31_20h49.28.931,arm3_eps,2022.2.5,Win32,60.30635629,61768384731ac05202ee94a9,64c7fed44a04f777bb1e18ce,64c801456a07b2af717fe4dc,right,1,0.75,0.5,0,0.010819453,0.229,24,0,24,0,1,,,,,,,,,,
,,312967,001,2023-07-31_20h49.28.931,arm3_eps,2022.2.5,Win32,60.30635629,61768384731ac05202ee94a9,64c7fed44a04f777bb1e18ce,64c801456a07b2af717fe4dc,right,1,0.75,0.5,0,0.005374371,0.2149,25,0,25,0,1,,,,,,,,,,
,,312967,001,2023-07-31_20h49.28.931,arm3_eps,2022.2.5,Win32,60.30635629,61768384731ac05202ee94a9,64c7fed44a04f777bb1e18ce,64c801456a07b2af717fe4dc,right,1,0.75,0.5,0,0.005285428,0.1555,26,0,26,0,1,,,,,,,,,,
,,312967,001,2023-07-31_20h49.28.931,arm3_eps,2022.2.5,Win32,60.30635629,61768384731ac05202ee94a9,64c7fed44a04f777bb1e18ce,64c801456a07b2af717fe4dc,right,1,0.75,0.5,0,0.017623947,0.2184,27,0,27,0,1,,,,,,,,,,
,,312967,001,2023-07-31_20h49.28.931,arm3_eps,2022.2.5,Win32,60.30635629,61768384731ac05202ee94a9,64c7fed44a04f777bb1e18ce,64c801456a07b2af717fe4dc,right,1,0.75,0.5,0,0.01693121,0.3387,28,0,28,0,1,,,,,,,,,,
,,312967,001,2023-07-31_20h49.28.931,arm3_eps,2022.2.5,Win32,60.30635629,61768384731ac05202ee94a9,64c7fed44a04f777bb1e18ce,64c801456a07b2af717fe4dc,up,-1,0.75,0.5,1,0,0.2566,29,0,29,0,1,,,,,,,,,,
,,312967,001,2023-07-31_20h49.28.931,arm3_eps,2022.2.5,Win32,60.30635629,61768384731ac05202ee94a9,64c7fed44a04f777bb1e18ce,64c801456a07b2af717fe4dc,right,-1,0.75,0.5,1,-0.012148291,0.754,30,0,30,0,1,,,,,,,,,,
,,312967,001,2023-07-31_20h49.28.931,arm3_eps,2022.2.5,Win32,60.30635629,61768384731ac05202ee94a9,64c7fed44a04f777bb1e18ce,64c801456a07b2af717fe4dc,right,-1,0.75,0.5,1,-0.022621446,0.1995,31,0,31,0,1,,,,,,,,,,
,,312967,001,2023-07-31_20h49.28.931,arm3_eps,2022.2.5,Win32,60.30635629,61768384731ac05202ee94a9,64c7fed44a04f777bb1e18ce,64c801456a07b2af717fe4dc,right,-1,0.75,0.5,1,-0.101090617,0.2286,32,0,32,0,1,,,,,,,,,,
,,312967,001,2023-07-31_20h49.28.931,arm3_eps,2022.2.5,Win32,60.30635629,61768384731ac05202ee94a9,64c7fed44a04f777bb1e18ce,64c801456a07b2af717fe4dc,down,-1,0.75,0.5,2,0,0.7914,33,0,33,0,1,,,,,,,,,,
,,312967,001,2023-07-31_20h49.28.931,arm3_eps,2022.2.5,Win32,60.30635629,61768384731ac05202ee94a9,64c7fed44a04f777bb1e18ce,64c801456a07b2af717fe4dc,right,-1,0.75,0.5,2,0.013961737,0.9068,34,0,34,0,1,,,,,,,,,,
,,312967,001,2023-07-31_20h49.28.931,arm3_eps,2022.2.5,Win32,60.30635629,61768384731ac05202ee94a9,64c7fed44a04f777bb1e18ce,64c801456a07b2af717fe4dc,right,-1,0.75,0.5,2,-0.011679982,0.2239,35,0,35,0,1,,,,,,,,,,
,,312967,001,2023-07-31_20h49.28.931,arm3_eps,2022.2.5,Win32,60.30635629,61768384731ac05202ee94a9,64c7fed44a04f777bb1e18ce,64c801456a07b2af717fe4dc,right,-1,0.75,0.5,2,-0.016141198,0.191,36,0,36,0,1,,,,,,,,,,
,,312967,001,2023-07-31_20h49.28.931,arm3_eps,2022.2.5,Win32,60.30635629,61768384731ac05202ee94a9,64c7fed44a04f777bb1e18ce,64c801456a07b2af717fe4dc,right,-1,0.75,0.5,2,0.010724454,0.1906,37,0,37,0,1,,,,,,,,,,
,,312967,001,2023-07-31_20h49.28.931,arm3_eps,2022.2.5,Win32,60.30635629,61768384731ac05202ee94a9,64c7fed44a04f777bb1e18ce,64c801456a07b2af717fe4dc,right,-1,0.75,0.5,2,-0.02159968,0.1821,38,0,38,0,1,,,,,,,,,,
,,312967,001,2023-07-31_20h49.28.931,arm3_eps,2022.2.5,Win32,60.30635629,61768384731ac05202ee94a9,64c7fed44a04f777bb1e18ce,64c801456a07b2af717fe4dc,right,-1,0.75,0.5,2,-0.057626816,0.2031,39,0,39,0,1,,,,,,,,,,
,,312967,001,2023-07-31_20h49.28.931,arm3_eps,2022.2.5,Win32,60.30635629,61768384731ac05202ee94a9,64c7fed44a04f777bb1e18ce,64c801456a07b2af717fe4dc,up,1,0.75,0.5,1,0,0.9177,40,0,40,0,1,,,,,,,,,,
,,312967,001,2023-07-31_20h49.28.931,arm3_eps,2022.2.5,Win32,60.30635629,61768384731ac05202ee94a9,64c7fed44a04f777bb1e18ce,64c801456a07b2af717fe4dc,right,1,0.75,0.5,1,0.01362885,0.7818,41,0,41,0,1,,,,,,,,,,
,,312967,001,2023-07-31_20h49.28.931,arm3_eps,2022.2.5,Win32,60.30635629,61768384731ac05202ee94a9,64c7fed44a04f777bb1e18ce,64c801456a07b2af717fe4dc,right,1,0.75,0.5,1,0.018336112,0.1972,42,0,42,0,1,,,,,,,,,,
,,312967,001,2023-07-31_20h49.28.931,arm3_eps,2022.2.5,Win32,60.30635629,61768384731ac05202ee94a9,64c7fed44a04f777bb1e18ce,64c801456a07b2af717fe4dc,right,1,0.75,0.5,1,0.035802372,0.1768,43,0,43,0,1,,,,,,,,,,
,,312967,001,2023-07-31_20h49.28.931,arm3_eps,2022.2.5,Win32,60.30635629,61768384731ac05202ee94a9,64c7fed44a04f777bb1e18ce,64c801456a07b2af717fe4dc,right,1,0.75,0.5,1,0.033929906,0.1906,44,0,44,0,1,,,,,,,,,,
,,312967,001,2023-07-31_20h49.28.931,arm3_eps,2022.2.5,Win32,60.30635629,61768384731ac05202ee94a9,64c7fed44a04f777bb1e18ce,64c801456a07b2af717fe4dc,up,1,0.75,0.5,2,0,0.4415,45,0,45,0,1,,,,,,,,,,
,,312967,001,2023-07-31_20h49.28.931,arm3_eps,2022.2.5,Win32,60.30635629,61768384731ac05202ee94a9,64c7fed44a04f777bb1e18ce,64c801456a07b2af717fe4dc,right,1,0.75,0.5,2,0.010507229,0.8087,46,0,46,0,1,,,,,,,,,,
,,312967,001,2023-07-31_20h49.28.931,arm3_eps,2022.2.5,Win32,60.30635629,61768384731ac05202ee94a9,64c7fed44a04f777bb1e18ce,64c801456a07b2af717fe4dc,right,1,0.75,0.5,2,0.00765234,0.2069,47,0,47,0,1,,,,,,,,,,
,,312967,001,2023-07-31_20h49.28.931,arm3_eps,2022.2.5,Win32,60.30635629,61768384731ac05202ee94a9,64c7fed44a04f777bb1e18ce,64c801456a07b2af717fe4dc,right,1,0.75,0.5,2,0.020898148,0.2403,48,0,48,0,1,,,,,,,,,,
,,312967,001,2023-07-31_20h49.28.931,arm3_eps,2022.2.5,Win32,60.30635629,61768384731ac05202ee94a9,64c7fed44a04f777bb1e18ce,64c801456a07b2af717fe4dc,right,1,0.75,0.5,2,0.058733566,0.2766,49,0,49,0,1,,,,,,,,,,
space,1.7623,312967,001,2023-07-31_20h49.28.931,arm3_eps,2022.2.5,Win32,60.30635629,61768384731ac05202ee94a9,64c7fed44a04f777bb1e18ce,64c801456a07b2af717fe4dc,,,,,,,,,,,,,,,,,,,,,,
space,6.1301,312967,001,2023-07-31_20h49.28.931,arm3_eps,2022.2.5,Win32,60.30635629,61768384731ac05202ee94a9,64c7fed44a04f777bb1e18ce,64c801456a07b2af717fe4dc,right,1,0.75,0.5,0,0.006669862,1.0915,,,,,,0,0,0,0,1,,,,,
,,312967,001,2023-07-31_20h49.28.931,arm3_eps,2022.2.5,Win32,60.30635629,61768384731ac05202ee94a9,64c7fed44a04f777bb1e18ce,64c801456a07b2af717fe4dc,right,1,0.75,0.5,0,0.015046663,0.2583,,,,,,1,0,1,0,1,,,,,
,,312967,001,2023-07-31_20h49.28.931,arm3_eps,2022.2.5,Win32,60.30635629,61768384731ac05202ee94a9,64c7fed44a04f777bb1e18ce,64c801456a07b2af717fe4dc,right,1,0.75,0.5,0,0.019074062,0.1572,,,,,,2,0,2,0,1,,,,,
,,312967,001,2023-07-31_20h49.28.931,arm3_eps,2022.2.5,Win32,60.30635629,61768384731ac05202ee94a9,64c7fed44a04f777bb1e18ce,64c801456a07b2af717fe4dc,up,-1,0.75,0.5,1,0,1.7755,,,,,,3,0,3,0,1,,,,,
,,312967,001,2023-07-31_20h49.28.931,arm3_eps,2022.2.5,Win32,60.30635629,61768384731ac05202ee94a9,64c7fed44a04f777bb1e18ce,64c801456a07b2af717fe4dc,right,-1,0.75,0.5,1,-0.009319352,1.1102,,,,,,4,0,4,0,1,,,,,
,,312967,001,2023-07-31_20h49.28.931,arm3_eps,2022.2.5,Win32,60.30635629,61768384731ac05202ee94a9,64c7fed44a04f777bb1e18ce,64c801456a07b2af717fe4dc,right,-1,0.75,0.5,1,-0.031477971,0.2215,,,,,,5,0,5,0,1,,,,,
,,312967,001,2023-07-31_20h49.28.931,arm3_eps,2022.2.5,Win32,60.30635629,61768384731ac05202ee94a9,64c7fed44a04f777bb1e18ce,64c801456a07b2af717fe4dc,right,-1,0.75,0.5,1,-0.04726271,0.1776,,,,,,6,0,6,0,1,,,,,
,,312967,001,2023-07-31_20h49.28.931,arm3_eps,2022.2.5,Win32,60.30635629,61768384731ac05202ee94a9,64c7fed44a04f777bb1e18ce,64c801456a07b2af717fe4dc,right,-1,0.75,0.5,1,-0.041184612,0.1392,,,,,,7,0,7,0,1,,,,,
,,312967,001,2023-07-31_20h49.28.931,arm3_eps,2022.2.5,Win32,60.30635629,61768384731ac05202ee94a9,64c7fed44a04f777bb1e18ce,64c801456a07b2af717fe4dc,down,-1,0.75,0.5,2,0,0.2919,,,,,,8,0,8,0,1,,,,,
,,312967,001,2023-07-31_20h49.28.931,arm3_eps,2022.2.5,Win32,60.30635629,61768384731ac05202ee94a9,64c7fed44a04f777bb1e18ce,64c801456a07b2af717fe4dc,right,-1,0.75,0.5,2,-0.021502402,0.8919,,,,,,9,0,9,0,1,,,,,
,,312967,001,2023-07-31_20h49.28.931,arm3_eps,2022.2.5,Win32,60.30635629,61768384731ac05202ee94a9,64c7fed44a04f777bb1e18ce,64c801456a07b2af717fe4dc,right,-1,0.75,0.5,2,-0.026596055,0.1822,,,,,,10,0,10,0,1,,,,,
,,312967,001,2023-07-31_20h49.28.931,arm3_eps,2022.2.5,Win32,60.30635629,61768384731ac05202ee94a9,64c7fed44a04f777bb1e18ce,64c801456a07b2af717fe4dc,right,-1,0.75,0.5,2,-0.016436722,0.1969,,,,,,11,0,11,0,1,,,,,
,,312967,001,2023-07-31_20h49.28.931,arm3_eps,2022.2.5,Win32,60.30635629,61768384731ac05202ee94a9,64c7fed44a04f777bb1e18ce,64c801456a07b2af717fe4dc,right,-1,0.75,0.5,2,0.005137522,0.3803,,,,,,12,0,12,0,1,,,,,
,,312967,001,2023-07-31_20h49.28.931,arm3_eps,2022.2.5,Win32,60.30635629,61768384731ac05202ee94a9,64c7fed44a04f777bb1e18ce,64c801456a07b2af717fe4dc,down,-1,0.75,0.5,2,0,0.4237,,,,,,13,0,13,0,1,,,,,
,,312967,001,2023-07-31_20h49.28.931,arm3_eps,2022.2.5,Win32,60.30635629,61768384731ac05202ee94a9,64c7fed44a04f777bb1e18ce,64c801456a07b2af717fe4dc,right,-1,0.75,0.5,2,-0.019890678,0.8909,,,,,,14,0,14,0,1,,,,,
,,312967,001,2023-07-31_20h49.28.931,arm3_eps,2022.2.5,Win32,60.30635629,61768384731ac05202ee94a9,64c7fed44a04f777bb1e18ce,64c801456a07b2af717fe4dc,right,-1,0.75,0.5,2,-0.049519147,0.2075,,,,,,15,0,15,0,1,,,,,
,,312967,001,2023-07-31_20h49.28.931,arm3_eps,2022.2.5,Win32,60.30635629,61768384731ac05202ee94a9,64c7fed44a04f777bb1e18ce,64c801456a07b2af717fe4dc,right,-1,0.75,0.5,2,-0.049717274,0.1746,,,,,,16,0,16,0,1,,,,,
,,312967,001,2023-07-31_20h49.28.931,arm3_eps,2022.2.5,Win32,60.30635629,61768384731ac05202ee94a9,64c7fed44a04f777bb1e18ce,64c801456a07b2af717fe4dc,down,-1,0.75,0.5,3,0,0.2948,,,,,,17,0,17,0,1,,,,,
,,312967,001,2023-07-31_20h49.28.931,arm3_eps,2022.2.5,Win32,60.30635629,61768384731ac05202ee94a9,64c7fed44a04f777bb1e18ce,64c801456a07b2af717fe4dc,right,-1,0.75,0.5,3,-0.009812059,0.8106,,,,,,18,0,18,0,1,,,,,
,,312967,001,2023-07-31_20h49.28.931,arm3_eps,2022.2.5,Win32,60.30635629,61768384731ac05202ee94a9,64c7fed44a04f777bb1e18ce,64c801456a07b2af717fe4dc,right,-1,0.75,0.5,3,-0.026235523,0.2,,,,,,19,0,19,0,1,,,,,
,,312967,001,2023-07-31_20h49.28.931,arm3_eps,2022.2.5,Win32,60.30635629,61768384731ac05202ee94a9,64c7fed44a04f777bb1e18ce,64c801456a07b2af717fe4dc,right,-1,0.75,0.5,3,-0.033294692,0.1918,,,,,,20,0,20,0,1,,,,,
,,312967,001,2023-07-31_20h49.28.931,arm3_eps,2022.2.5,Win32,60.30635629,61768384731ac05202ee94a9,64c7fed44a04f777bb1e18ce,64c801456a07b2af717fe4dc,right,-1,0.75,0.5,3,-0.014248351,0.1679,,,,,,21,0,21,0,1,,,,,
,,312967,001,2023-07-31_20h49.28.931,arm3_eps,2022.2.5,Win32,60.30635629,61768384731ac05202ee94a9,64c7fed44a04f777bb1e18ce,64c801456a07b2af717fe4dc,down,1,0.75,0.5,3,0,0.4568,,,,,,22,0,22,0,1,,,,,
,,312967,001,2023-07-31_20h49.28.931,arm3_eps,2022.2.5,Win32,60.30635629,61768384731ac05202ee94a9,64c7fed44a04f777bb1e18ce,64c801456a07b2af717fe4dc,right,1,0.75,0.5,3,0.002391537,1.0594,,,,,,23,0,23,0,1,,,,,
,,312967,001,2023-07-31_20h49.28.931,arm3_eps,2022.2.5,Win32,60.30635629,61768384731ac05202ee94a9,64c7fed44a04f777bb1e18ce,64c801456a07b2af717fe4dc,right,1,0.75,0.5,3,0.033003101,0.1422,,,,,,24,0,24,0,1,,,,,
,,312967,001,2023-07-31_20h49.28.931,arm3_eps,2022.2.5,Win32,60.30635629,61768384731ac05202ee94a9,64c7fed44a04f777bb1e18ce,64c801456a07b2af717fe4dc,right,1,0.75,0.5,3,0.040216821,0.4002,,,,,,25,0,25,0,1,,,,,
,,312967,001,2023-07-31_20h49.28.931,arm3_eps,2022.2.5,Win32,60.30635629,61768384731ac05202ee94a9,64c7fed44a04f777bb1e18ce,64c801456a07b2af717fe4dc,up,-1,0.75,0.5,4,0,0.3232,,,,,,26,0,26,0,1,,,,,
,,312967,001,2023-07-31_20h49.28.931,arm3_eps,2022.2.5,Win32,60.30635629,61768384731ac05202ee94a9,64c7fed44a04f777bb1e18ce,64c801456a07b2af717fe4dc,right,-1,0.75,0.5,4,0.00522477,0.6935,,,,,,27,0,27,0,1,,,,,
,,312967,001,2023-07-31_20h49.28.931,arm3_eps,2022.2.5,Win32,60.30635629,61768384731ac05202ee94a9,64c7fed44a04f777bb1e18ce,64c801456a07b2af717fe4dc,right,-1,0.75,0.5,4,0.011920173,0.2417,,,,,,28,0,28,0,1,,,,,
,,312967,001,2023-07-31_20h49.28.931,arm3_eps,2022.2.5,Win32,60.30635629,61768384731ac05202ee94a9,64c7fed44a04f777bb1e18ce,64c801456a07b2af717fe4dc,right,-1,0.75,0.5,4,-0.00073163,0.1904,,,,,,29,0,29,0,1,,,,,
,,312967,001,2023-07-31_20h49.28.931,arm3_eps,2022.2.5,Win32,60.30635629,61768384731ac05202ee94a9,64c7fed44a04f777bb1e18ce,64c801456a07b2af717fe4dc,right,-1,0.75,0.5,4,-0.019728429,0.3778,,,,,,30,0,30,0,1,,,,,
,,312967,001,2023-07-31_20h49.28.931,arm3_eps,2022.2.5,Win32,60.30635629,61768384731ac05202ee94a9,64c7fed44a04f777bb1e18ce,64c801456a07b2af717fe4dc,right,-1,0.75,0.5,4,-0.019721231,0.1575,,,,,,31,0,31,0,1,,,,,
,,312967,001,2023-07-31_20h49.28.931,arm3_eps,2022.2.5,Win32,60.30635629,61768384731ac05202ee94a9,64c7fed44a04f777bb1e18ce,64c801456a07b2af717fe4dc,down,1,0.75,0.5,4,0,0.3247,,,,,,32,0,32,0,1,,,,,
,,312967,001,2023-07-31_20h49.28.931,arm3_eps,2022.2.5,Win32,60.30635629,61768384731ac05202ee94a9,64c7fed44a04f777bb1e18ce,64c801456a07b2af717fe4dc,right,1,0.75,0.5,4,0.000160076,0.9116,,,,,,33,0,33,0,1,,,,,
,,312967,001,2023-07-31_20h49.28.931,arm3_eps,2022.2.5,Win32,60.30635629,61768384731ac05202ee94a9,64c7fed44a04f777bb1e18ce,64c801456a07b2af717fe4dc,right,1,0.75,0.5,4,0.007791711,0.1937,,,,,,34,0,34,0,1,,,,,
,,312967,001,2023-07-31_20h49.28.931,arm3_eps,2022.2.5,Win32,60.30635629,61768384731ac05202ee94a9,64c7fed44a04f777bb1e18ce,64c801456a07b2af717fe4dc,right,1,0.75,0.5,4,0.046036761,0.1775,,,,,,35,0,35,0,1,,,,,
,,312967,001,2023-07-31_20h49.28.931,arm3_eps,2022.2.5,Win32,60.30635629,61768384731ac05202ee94a9,64c7fed44a04f777bb1e18ce,64c801456a07b2af717fe4dc,right,1,0.75,0.5,4,0.057119591,0.1799,,,,,,36,0,36,0,1,,,,,
,,312967,001,2023-07-31_20h49.28.931,arm3_eps,2022.2.5,Win32,60.30635629,61768384731ac05202ee94a9,64c7fed44a04f777bb1e18ce,64c801456a07b2af717fe4dc,up,1,0.75,0.5,5,0,0.5439,,,,,,37,0,37,0,1,,,,,
,,312967,001,2023-07-31_20h49.28.931,arm3_eps,2022.2.5,Win32,60.30635629,61768384731ac05202ee94a9,64c7fed44a04f777bb1e18ce,64c801456a07b2af717fe4dc,right,1,0.75,0.5,5,0.004176512,0.9804,,,,,,38,0,38,0,1,,,,,
,,312967,001,2023-07-31_20h49.28.931,arm3_eps,2022.2.5,Win32,60.30635629,61768384731ac05202ee94a9,64c7fed44a04f777bb1e18ce,64c801456a07b2af717fe4dc,right,1,0.75,0.5,5,0.012860838,0.2066,,,,,,39,0,39,0,1,,,,,
,,312967,001,2023-07-31_20h49.28.931,arm3_eps,2022.2.5,Win32,60.30635629,61768384731ac05202ee94a9,64c7fed44a04f777bb1e18ce,64c801456a07b2af717fe4dc,right,1,0.75,0.5,5,0.045520549,0.1749,,,,,,40,0,40,0,1,,,,,
,,312967,001,2023-07-31_20h49.28.931,arm3_eps,2022.2.5,Win32,60.30635629,61768384731ac05202ee94a9,64c7fed44a04f777bb1e18ce,64c801456a07b2af717fe4dc,right,1,0.75,0.5,5,0.063265999,0.1743,,,,,,41,0,41,0,1,,,,,
,,312967,001,2023-07-31_20h49.28.931,arm3_eps,2022.2.5,Win32,60.30635629,61768384731ac05202ee94a9,64c7fed44a04f777bb1e18ce,64c801456a07b2af717fe4dc,up,-1,0.75,0.5,6,0,0.317,,,,,,42,0,42,0,1,,,,,
,,312967,001,2023-07-31_20h49.28.931,arm3_eps,2022.2.5,Win32,60.30635629,61768384731ac05202ee94a9,64c7fed44a04f777bb1e18ce,64c801456a07b2af717fe4dc,right,-1,0.75,0.5,6,-0.031456056,0.7825,,,,,,43,0,43,0,1,,,,,
,,312967,001,2023-07-31_20h49.28.931,arm3_eps,2022.2.5,Win32,60.30635629,61768384731ac05202ee94a9,64c7fed44a04f777bb1e18ce,64c801456a07b2af717fe4dc,right,-1,0.75,0.5,6,-0.04451536,0.2221,,,,,,44,0,44,0,1,,,,,
,,312967,001,2023-07-31_20h49.28.931,arm3_eps,2022.2.5,Win32,60.30635629,61768384731ac05202ee94a9,64c7fed44a04f777bb1e18ce,64c801456a07b2af717fe4dc,right,-1,0.75,0.5,6,-0.02782677,0.1805,,,,,,45,0,45,0,1,,,,,
,,312967,001,2023-07-31_20h49.28.931,arm3_eps,2022.2.5,Win32,60.30635629,61768384731ac05202ee94a9,64c7fed44a04f777bb1e18ce,64c801456a07b2af717fe4dc,right,-1,0.75,0.5,6,-0.048585422,0.3153,,,,,,46,0,46,0,1,,,,,
,,312967,001,2023-07-31_20h49.28.931,arm3_eps,2022.2.5,Win32,60.30635629,61768384731ac05202ee94a9,64c7fed44a04f777bb1e18ce,64c801456a07b2af717fe4dc,down,-1,0.75,0.5,7,0,0.4237,,,,,,47,0,47,0,1,,,,,
,,312967,001,2023-07-31_20h49.28.931,arm3_eps,2022.2.5,Win32,60.30635629,61768384731ac05202ee94a9,64c7fed44a04f777bb1e18ce,64c801456a07b2af717fe4dc,right,-1,0.75,0.5,7,-0.054237831,0.8728,,,,,,48,0,48,0,1,,,,,
,,312967,001,2023-07-31_20h49.28.931,arm3_eps,2022.2.5,Win32,60.30635629,61768384731ac05202ee94a9,64c7fed44a04f777bb1e18ce,64c801456a07b2af717fe4dc,right,-1,0.75,0.5,7,-0.062680624,0.1581,,,,,,49,0,49,0,1,,,,,
,,312967,001,2023-07-31_20h49.28.931,arm3_eps,2022.2.5,Win32,60.30635629,61768384731ac05202ee94a9,64c7fed44a04f777bb1e18ce,64c801456a07b2af717fe4dc,right,-1,0.75,0.5,7,-0.071492089,0.1531,,,,,,50,0,50,0,1,,,,,
,,312967,001,2023-07-31_20h49.28.931,arm3_eps,2022.2.5,Win32,60.30635629,61768384731ac05202ee94a9,64c7fed44a04f777bb1e18ce,64c801456a07b2af717fe4dc,down,-1,0.75,0.5,7,0,0.1651,,,,,,51,0,51,0,1,,,,,
,,312967,001,2023-07-31_20h49.28.931,arm3_eps,2022.2.5,Win32,60.30635629,61768384731ac05202ee94a9,64c7fed44a04f777bb1e18ce,64c801456a07b2af717fe4dc,right,-1,0.75,0.5,7,-0.041096584,0.8341,,,,,,52,0,52,0,1,,,,,
,,312967,001,2023-07-31_20h49.28.931,arm3_eps,2022.2.5,Win32,60.30635629,61768384731ac05202ee94a9,64c7fed44a04f777bb1e18ce,64c801456a07b2af717fe4dc,right,-1,0.75,0.5,7,-0.074136554,0.1819,,,,,,53,0,53,0,1,,,,,
,,312967,001,2023-07-31_20h49.28.931,arm3_eps,2022.2.5,Win32,60.30635629,61768384731ac05202ee94a9,64c7fed44a04f777bb1e18ce,64c801456a07b2af717fe4dc,right,-1,0.75,0.5,7,-0.097119964,0.2661,,,,,,54,0,54,0,1,,,,,
,,312967,001,2023-07-31_20h49.28.931,arm3_eps,2022.2.5,Win32,60.30635629,61768384731ac05202ee94a9,64c7fed44a04f777bb1e18ce,64c801456a07b2af717fe4dc,down,1,0.75,0.5,8,0,0.2639,,,,,,55,0,55,0,1,,,,,
,,312967,001,2023-07-31_20h49.28.931,arm3_eps,2022.2.5,Win32,60.30635629,61768384731ac05202ee94a9,64c7fed44a04f777bb1e18ce,64c801456a07b2af717fe4dc,right,1,0.75,0.5,8,0.009787992,1.0402,,,,,,56,0,56,0,1,,,,,
,,312967,001,2023-07-31_20h49.28.931,arm3_eps,2022.2.5,Win32,60.30635629,61768384731ac05202ee94a9,64c7fed44a04f777bb1e18ce,64c801456a07b2af717fe4dc,right,1,0.75,0.5,8,-0.014433071,0.2159,,,,,,57,0,57,0,1,,,,,
,,312967,001,2023-07-31_20h49.28.931,arm3_eps,2022.2.5,Win32,60.30635629,61768384731ac05202ee94a9,64c7fed44a04f777bb1e18ce,64c801456a07b2af717fe4dc,right,1,0.75,0.5,8,-0.024973025,0.1564,,,,,,58,0,58,0,1,,,,,
,,312967,001,2023-07-31_20h49.28.931,arm3_eps,2022.2.5,Win32,60.30635629,61768384731ac05202ee94a9,64c7fed44a04f777bb1e18ce,64c801456a07b2af717fe4dc,right,1,0.75,0.5,8,-0.01635025,0.1911,,,,,,59,0,59,0,1,,,,,
,,312967,001,2023-07-31_20h49.28.931,arm3_eps,2022.2.5,Win32,60.30635629,61768384731ac05202ee94a9,64c7fed44a04f777bb1e18ce,64c801456a07b2af717fe4dc,right,1,0.75,0.5,8,0.004315123,0.1976,,,,,,60,0,60,0,1,,,,,
,,312967,001,2023-07-31_20h49.28.931,arm3_eps,2022.2.5,Win32,60.30635629,61768384731ac05202ee94a9,64c7fed44a04f777bb1e18ce,64c801456a07b2af717fe4dc,right,1,0.75,0.5,8,0.00807583,0.2245,,,,,,61,0,61,0,1,,,,,
,,312967,001,2023-07-31_20h49.28.931,arm3_eps,2022.2.5,Win32,60.30635629,61768384731ac05202ee94a9,64c7fed44a04f777bb1e18ce,64c801456a07b2af717fe4dc,right,1,0.75,0.5,8,0.025621315,0.1798,,,,,,62,0,62,0,1,,,,,
,,312967,001,2023-07-31_20h49.28.931,arm3_eps,2022.2.5,Win32,60.30635629,61768384731ac05202ee94a9,64c7fed44a04f777bb1e18ce,64c801456a07b2af717fe4dc,right,1,0.75,0.5,8,-0.011036722,0.3414,,,,,,63,0,63,0,1,,,,,
,,312967,001,2023-07-31_20h49.28.931,arm3_eps,2022.2.5,Win32,60.30635629,61768384731ac05202ee94a9,64c7fed44a04f777bb1e18ce,64c801456a07b2af717fe4dc,right,1,0.75,0.5,8,0.004107327,0.1919,,,,,,64,0,64,0,1,,,,,
,,312967,001,2023-07-31_20h49.28.931,arm3_eps,2022.2.5,Win32,60.30635629,61768384731ac05202ee94a9,64c7fed44a04f777bb1e18ce,64c801456a07b2af717fe4dc,right,1,0.75,0.5,8,0.01297554,0.1834,,,,,,65,0,65,0,1,,,,,
,,312967,001,2023-07-31_20h49.28.931,arm3_eps,2022.2.5,Win32,60.30635629,61768384731ac05202ee94a9,64c7fed44a04f777bb1e18ce,64c801456a07b2af717fe4dc,up,1,0.75,0.5,8,0,0.9757,,,,,,66,0,66,0,1,,,,,
,,312967,001,2023-07-31_20h49.28.931,arm3_eps,2022.2.5,Win32,60.30635629,61768384731ac05202ee94a9,64c7fed44a04f777bb1e18ce,64c801456a07b2af717fe4dc,right,1,0.75,0.5,8,0.014100008,0.8019,,,,,,67,0,67,0,1,,,,,
,,312967,001,2023-07-31_20h49.28.931,arm3_eps,2022.2.5,Win32,60.30635629,61768384731ac05202ee94a9,64c7fed44a04f777bb1e18ce,64c801456a07b2af717fe4dc,right,1,0.75,0.5,8,0.000390366,0.2151,,,,,,68,0,68,0,1,,,,,
,,312967,001,2023-07-31_20h49.28.931,arm3_eps,2022.2.5,Win32,60.30635629,61768384731ac05202ee94a9,64c7fed44a04f777bb1e18ce,64c801456a07b2af717fe4dc,right,1,0.75,0.5,8,0.033584481,0.1657,,,,,,69,0,69,0,1,,,,,
,,312967,001,2023-07-31_20h49.28.931,arm3_eps,2022.2.5,Win32,60.30635629,61768384731ac05202ee94a9,64c7fed44a04f777bb1e18ce,64c801456a07b2af717fe4dc,right,1,0.75,0.5,8,0.042382237,0.1656,,,,,,70,0,70,0,1,,,,,
,,312967,001,2023-07-31_20h49.28.931,arm3_eps,2022.2.5,Win32,60.30635629,61768384731ac05202ee94a9,64c7fed44a04f777bb1e18ce,64c801456a07b2af717fe4dc,right,1,0.75,0.5,8,0.043691907,0.1623,,,,,,71,0,71,0,1,,,,,
,,312967,001,2023-07-31_20h49.28.931,arm3_eps,2022.2.5,Win32,60.30635629,61768384731ac05202ee94a9,64c7fed44a04f777bb1e18ce,64c801456a07b2af717fe4dc,up,1,0.75,0.5,9,0,0.2252,,,,,,72,0,72,0,1,,,,,
,,312967,001,2023-07-31_20h49.28.931,arm3_eps,2022.2.5,Win32,60.30635629,61768384731ac05202ee94a9,64c7fed44a04f777bb1e18ce,64c801456a07b2af717fe4dc,right,1,0.75,0.5,9,0.029257127,0.5757,,,,,,73,0,73,0,1,,,,,
,,312967,001,2023-07-31_20h49.28.931,arm3_eps,2022.2.5,Win32,60.30635629,61768384731ac05202ee94a9,64c7fed44a04f777bb1e18ce,64c801456a07b2af717fe4dc,right,1,0.75,0.5,9,0.01380207,0.1967,,,,,,74,0,74,0,1,,,,,
,,312967,001,2023-07-31_20h49.28.931,arm3_eps,2022.2.5,Win32,60.30635629,61768384731ac05202ee94a9,64c7fed44a04f777bb1e18ce,64c801456a07b2af717fe4dc,right,1,0.75,0.5,9,0.031605009,0.1591,,,,,,75,0,75,0,1,,,,,
,,312967,001,2023-07-31_20h49.28.931,arm3_eps,2022.2.5,Win32,60.30635629,61768384731ac05202ee94a9,64c7fed44a04f777bb1e18ce,64c801456a07b2af717fe4dc,right,1,0.75,0.5,9,0.045863079,0.3897,,,,,,76,0,76,0,1,,,,,
,,312967,001,2023-07-31_20h49.28.931,arm3_eps,2022.2.5,Win32,60.30635629,61768384731ac05202ee94a9,64c7fed44a04f777bb1e18ce,64c801456a07b2af717fe4dc,up,1,0.75,0.5,10,0,0.1575,,,,,,77,0,77,0,1,,,,,
,,312967,001,2023-07-31_20h49.28.931,arm3_eps,2022.2.5,Win32,60.30635629,61768384731ac05202ee94a9,64c7fed44a04f777bb1e18ce,64c801456a07b2af717fe4dc,right,1,0.75,0.5,10,0.023482089,0.6921,,,,,,78,0,78,0,1,,,,,
,,312967,001,2023-07-31_20h49.28.931,arm3_eps,2022.2.5,Win32,60.30635629,61768384731ac05202ee94a9,64c7fed44a04f777bb1e18ce,64c801456a07b2af717fe4dc,right,1,0.75,0.5,10,0.070700012,0.1907,,,,,,79,0,79,0,1,,,,,
,,312967,001,2023-07-31_20h49.28.931,arm3_eps,2022.2.5,Win32,60.30635629,61768384731ac05202ee94a9,64c7fed44a04f777bb1e18ce,64c801456a07b2af717fe4dc,right,1,0.75,0.5,10,0.109542552,0.1582,,,,,,80,0,80,0,1,,,,,
,,312967,001,2023-07-31_20h49.28.931,arm3_eps,2022.2.5,Win32,60.30635629,61768384731ac05202ee94a9,64c7fed44a04f777bb1e18ce,64c801456a07b2af717fe4dc,right,1,0.75,0.5,10,0.155933905,0.1588,,,,,,81,0,81,0,1,,,,,
,,312967,001,2023-07-31_20h49.28.931,arm3_eps,2022.2.5,Win32,60.30635629,61768384731ac05202ee94a9,64c7fed44a04f777bb1e18ce,64c801456a07b2af717fe4dc,up,1,0.75,0.5,11,0,0.1569,,,,,,82,0,82,0,1,,,,,
,,312967,001,2023-07-31_20h49.28.931,arm3_eps,2022.2.5,Win32,60.30635629,61768384731ac05202ee94a9,64c7fed44a04f777bb1e18ce,64c801456a07b2af717fe4dc,right,1,0.75,0.5,11,-0.015800639,0.6894,,,,,,83,0,83,0,1,,,,,
,,312967,001,2023-07-31_20h49.28.931,arm3_eps,2022.2.5,Win32,60.30635629,61768384731ac05202ee94a9,64c7fed44a04f777bb1e18ce,64c801456a07b2af717fe4dc,right,1,0.75,0.5,11,-0.002980738,0.2158,,,,,,84,0,84,0,1,,,,,
,,312967,001,2023-07-31_20h49.28.931,arm3_eps,2022.2.5,Win32,60.30635629,61768384731ac05202ee94a9,64c7fed44a04f777bb1e18ce,64c801456a07b2af717fe4dc,right,1,0.75,0.5,11,-0.019111429,0.3654,,,,,,85,0,85,0,1,,,,,
,,312967,001,2023-07-31_20h49.28.931,arm3_eps,2022.2.5,Win32,60.30635629,61768384731ac05202ee94a9,64c7fed44a04f777bb1e18ce,64c801456a07b2af717fe4dc,right,1,0.75,0.5,11,0.017773452,0.3493,,,,,,86,0,86,0,1,,,,,
,,312967,001,2023-07-31_20h49.28.931,arm3_eps,2022.2.5,Win32,60.30635629,61768384731ac05202ee94a9,64c7fed44a04f777bb1e18ce,64c801456a07b2af717fe4dc,right,1,0.75,0.5,11,0.013913144,0.3815,,,,,,87,0,87,0,1,,,,,
,,312967,001,2023-07-31_20h49.28.931,arm3_eps,2022.2.5,Win32,60.30635629,61768384731ac05202ee94a9,64c7fed44a04f777bb1e18ce,64c801456a07b2af717fe4dc,right,1,0.75,0.5,11,0.027123603,0.4011,,,,,,88,0,88,0,1,,,,,
,,312967,001,2023-07-31_20h49.28.931,arm3_eps,2022.2.5,Win32,60.30635629,61768384731ac05202ee94a9,64c7fed44a04f777bb1e18ce,64c801456a07b2af717fe4dc,right,1,0.75,0.5,11,0.032739395,0.1076,,,,,,89,0,89,0,1,,,,,
,,312967,001,2023-07-31_20h49.28.931,arm3_eps,2022.2.5,Win32,60.30635629,61768384731ac05202ee94a9,64c7fed44a04f777bb1e18ce,64c801456a07b2af717fe4dc,up,1,0.75,0.5,11,0,0.2063,,,,,,90,0,90,0,1,,,,,
,,312967,001,2023-07-31_20h49.28.931,arm3_eps,2022.2.5,Win32,60.30635629,61768384731ac05202ee94a9,64c7fed44a04f777bb1e18ce,64c801456a07b2af717fe4dc,right,1,0.75,0.5,11,0.007651531,0.802,,,,,,91,0,91,0,1,,,,,
,,312967,001,2023-07-31_20h49.28.931,arm3_eps,2022.2.5,Win32,60.30635629,61768384731ac05202ee94a9,64c7fed44a04f777bb1e18ce,64c801456a07b2af717fe4dc,right,1,0.75,0.5,11,0.036768608,0.2075,,,,,,92,0,92,0,1,,,,,
,,312967,001,2023-07-31_20h49.28.931,arm3_eps,2022.2.5,Win32,60.30635629,61768384731ac05202ee94a9,64c7fed44a04f777bb1e18ce,64c801456a07b2af717fe4dc,right,1,0.75,0.5,11,0.055275367,0.1559,,,,,,93,0,93,0,1,,,,,
,,312967,001,2023-07-31_20h49.28.931,arm3_eps,2022.2.5,Win32,60.30635629,61768384731ac05202ee94a9,64c7fed44a04f777bb1e18ce,64c801456a07b2af717fe4dc,right,1,0.75,0.5,11,0.062017459,0.155,,,,,,94,0,94,0,1,,,,,
,,312967,001,2023-07-31_20h49.28.931,arm3_eps,2022.2.5,Win32,60.30635629,61768384731ac05202ee94a9,64c7fed44a04f777bb1e18ce,64c801456a07b2af717fe4dc,up,-1,0.75,0.5,11,0,0.1733,,,,,,95,0,95,0,1,,,,,
,,312967,001,2023-07-31_20h49.28.931,arm3_eps,2022.2.5,Win32,60.30635629,61768384731ac05202ee94a9,64c7fed44a04f777bb1e18ce,64c801456a07b2af717fe4dc,right,-1,0.75,0.5,11,-0.004587092,1.0094,,,,,,96,0,96,0,1,,,,,
,,312967,001,2023-07-31_20h49.28.931,arm3_eps,2022.2.5,Win32,60.30635629,61768384731ac05202ee94a9,64c7fed44a04f777bb1e18ce,64c801456a07b2af717fe4dc,right,-1,0.75,0.5,11,-0.012678544,0.191,,,,,,97,0,97,0,1,,,,,
,,312967,001,2023-07-31_20h49.28.931,arm3_eps,2022.2.5,Win32,60.30635629,61768384731ac05202ee94a9,64c7fed44a04f777bb1e18ce,64c801456a07b2af717fe4dc,right,-1,0.75,0.5,11,-0.002885717,0.1841,,,,,,98,0,98,0,1,,,,,
,,312967,001,2023-07-31_20h49.28.931,arm3_eps,2022.2.5,Win32,60.30635629,61768384731ac05202ee94a9,64c7fed44a04f777bb1e18ce,64c801456a07b2af717fe4dc,right,-1,0.75,0.5,11,-0.035136039,0.2747,,,,,,99,0,99,0,1,,,,,
,,312967,001,2023-07-31_20h49.28.931,arm3_eps,2022.2.5,Win32,60.30635629,61768384731ac05202ee94a9,64c7fed44a04f777bb1e18ce,64c801456a07b2af717fe4dc,down,-1,0.75,0.5,12,0,0.2403,,,,,,100,0,100,0,1,,,,,
,,312967,001,2023-07-31_20h49.28.931,arm3_eps,2022.2.5,Win32,60.30635629,61768384731ac05202ee94a9,64c7fed44a04f777bb1e18ce,64c801456a07b2af717fe4dc,right,-1,0.75,0.5,12,-0.00855823,0.5874,,,,,,101,0,101,0,1,,,,,
,,312967,001,2023-07-31_20h49.28.931,arm3_eps,2022.2.5,Win32,60.30635629,61768384731ac05202ee94a9,64c7fed44a04f777bb1e18ce,64c801456a07b2af717fe4dc,right,-1,0.75,0.5,12,-0.001320045,0.1998,,,,,,102,0,102,0,1,,,,,
,,312967,001,2023-07-31_20h49.28.931,arm3_eps,2022.2.5,Win32,60.30635629,61768384731ac05202ee94a9,64c7fed44a04f777bb1e18ce,64c801456a07b2af717fe4dc,right,-1,0.75,0.5,12,-0.041154612,0.1787,,,,,,103,0,103,0,1,,,,,
,,312967,001,2023-07-31_20h49.28.931,arm3_eps,2022.2.5,Win32,60.30635629,61768384731ac05202ee94a9,64c7fed44a04f777bb1e18ce,64c801456a07b2af717fe4dc,down,-1,0.75,0.5,12,0,0.2986,,,,,,104,0,104,0,1,,,,,
,,312967,001,2023-07-31_20h49.28.931,arm3_eps,2022.2.5,Win32,60.30635629,61768384731ac05202ee94a9,64c7fed44a04f777bb1e18ce,64c801456a07b2af717fe4dc,right,-1,0.75,0.5,12,0.004433304,0.5292,,,,,,105,0,105,0,1,,,,,
,,312967,001,2023-07-31_20h49.28.931,arm3_eps,2022.2.5,Win32,60.30635629,61768384731ac05202ee94a9,64c7fed44a04f777bb1e18ce,64c801456a07b2af717fe4dc,right,-1,0.75,0.5,12,-0.011160445,0.2389,,,,,,106,0,106,0,1,,,,,
,,312967,001,2023-07-31_20h49.28.931,arm3_eps,2022.2.5,Win32,60.30635629,61768384731ac05202ee94a9,64c7fed44a04f777bb1e18ce,64c801456a07b2af717fe4dc,right,-1,0.75,0.5,12,-0.016512091,0.1913,,,,,,107,0,107,0,1,,,,,
,,312967,001,2023-07-31_20h49.28.931,arm3_eps,2022.2.5,Win32,60.30635629,61768384731ac05202ee94a9,64c7fed44a04f777bb1e18ce,64c801456a07b2af717fe4dc,right,-1,0.75,0.5,12,-0.004324423,0.1442,,,,,,108,0,108,0,1,,,,,
,,312967,001,2023-07-31_20h49.28.931,arm3_eps,2022.2.5,Win32,60.30635629,61768384731ac05202ee94a9,64c7fed44a04f777bb1e18ce,64c801456a07b2af717fe4dc,right,-1,0.75,0.5,12,-0.018055968,0.2945,,,,,,109,0,109,0,1,,,,,
,,312967,001,2023-07-31_20h49.28.931,arm3_eps,2022.2.5,Win32,60.30635629,61768384731ac05202ee94a9,64c7fed44a04f777bb1e18ce,64c801456a07b2af717fe4dc,right,-1,0.75,0.5,12,-0.020135771,0.1402,,,,,,110,0,110,0,1,,,,,
,,312967,001,2023-07-31_20h49.28.931,arm3_eps,2022.2.5,Win32,60.30635629,61768384731ac05202ee94a9,64c7fed44a04f777bb1e18ce,64c801456a07b2af717fe4dc,right,-1,0.75,0.5,12,-0.04611708,0.3749,,,,,,111,0,111,0,1,,,,,
,,312967,001,2023-07-31_20h49.28.931,arm3_eps,2022.2.5,Win32,60.30635629,61768384731ac05202ee94a9,64c7fed44a04f777bb1e18ce,64c801456a07b2af717fe4dc,right,-1,0.75,0.5,12,-0.082975991,0.2345,,,,,,112,0,112,0,1,,,,,
,,312967,001,2023-07-31_20h49.28.931,arm3_eps,2022.2.5,Win32,60.30635629,61768384731ac05202ee94a9,64c7fed44a04f777bb1e18ce,64c801456a07b2af717fe4dc,down,1,0.75,0.5,13,0,0.003,,,,,,113,0,113,0,1,,,,,
,,312967,001,2023-07-31_20h49.28.931,arm3_eps,2022.2.5,Win32,60.30635629,61768384731ac05202ee94a9,64c7fed44a04f777bb1e18ce,64c801456a07b2af717fe4dc,right,1,0.75,0.5,13,0.013461713,0.5573,,,,,,114,0,114,0,1,,,,,
,,312967,001,2023-07-31_20h49.28.931,arm3_eps,2022.2.5,Win32,60.30635629,61768384731ac05202ee94a9,64c7fed44a04f777bb1e18ce,64c801456a07b2af717fe4dc,right,1,0.75,0.5,13,0.0098983,0.1782,,,,,,115,0,115,0,1,,,,,
,,312967,001,2023-07-31_20h49.28.931,arm3_eps,2022.2.5,Win32,60.30635629,61768384731ac05202ee94a9,64c7fed44a04f777bb1e18ce,64c801456a07b2af717fe4dc,right,1,0.75,0.5,13,0.006432752,0.2653,,,,,,116,0,116,0,1,,,,,
,,312967,001,2023-07-31_20h49.28.931,arm3_eps,2022.2.5,Win32,60.30635629,61768384731ac05202ee94a9,64c7fed44a04f777bb1e18ce,64c801456a07b2af717fe4dc,right,1,0.75,0.5,13,0.046011178,0.1793,,,,,,117,0,117,0,1,,,,,
,,312967,001,2023-07-31_20h49.28.931,arm3_eps,2022.2.5,Win32,60.30635629,61768384731ac05202ee94a9,64c7fed44a04f777bb1e18ce,64c801456a07b2af717fe4dc,right,1,0.75,0.5,13,0.036411781,0.1385,,,,,,118,0,118,0,1,,,,,
,,312967,001,2023-07-31_20h49.28.931,arm3_eps,2022.2.5,Win32,60.30635629,61768384731ac05202ee94a9,64c7fed44a04f777bb1e18ce,64c801456a07b2af717fe4dc,up,1,0.75,0.5,14,0,0.3232,,,,,,119,0,119,0,1,,,,,
,,312967,001,2023-07-31_20h49.28.931,arm3_eps,2022.2.5,Win32,60.30635629,61768384731ac05202ee94a9,64c7fed44a04f777bb1e18ce,64c801456a07b2af717fe4dc,right,1,0.75,0.5,14,0.009855185,0.3738,,,,,,120,0,120,0,1,,,,,
,,312967,001,2023-07-31_20h49.28.931,arm3_eps,2022.2.5,Win32,60.30635629,61768384731ac05202ee94a9,64c7fed44a04f777bb1e18ce,64c801456a07b2af717fe4dc,right,1,0.75,0.5,14,0.005070057,0.2027,,,,,,121,0,121,0,1,,,,,
,,312967,001,2023-07-31_20h49.28.931,arm3_eps,2022.2.5,Win32,60.30635629,61768384731ac05202ee94a9,64c7fed44a04f777bb1e18ce,64c801456a07b2af717fe4dc,right,1,0.75,0.5,14,0.025919915,0.1823,,,,,,122,0,122,0,1,,,,,
,,312967,001,2023-07-31_20h49.28.931,arm3_eps,2022.2.5,Win32,60.30635629,61768384731ac05202ee94a9,64c7fed44a04f777bb1e18ce,64c801456a07b2af717fe4dc,right,1,0.75,0.5,14,0.00905635,0.1305,,,,,,123,0,123,0,1,,,,,
,,312967,001,2023-07-31_20h49.28.931,arm3_eps,2022.2.5,Win32,60.30635629,61768384731ac05202ee94a9,64c7fed44a04f777bb1e18ce,64c801456a07b2af717fe4dc,right,1,0.75,0.5,14,0.024277721,0.1241,,,,,,124,0,124,0,1,,,,,
,,312967,001,2023-07-31_20h49.28.931,arm3_eps,2022.2.5,Win32,60.30635629,61768384731ac05202ee94a9,64c7fed44a04f777bb1e18ce,64c801456a07b2af717fe4dc,right,1,0.75,0.5,14,0.023940549,0.1907,,,,,,125,0,125,0,1,,,,,
,,312967,001,2023-07-31_20h49.28.931,arm3_eps,2022.2.5,Win32,60.30635629,61768384731ac05202ee94a9,64c7fed44a04f777bb1e18ce,64c801456a07b2af717fe4dc,right,1,0.75,0.5,14,0.042723711,0.1417,,,,,,126,0,126,0,1,,,,,
,,312967,001,2023-07-31_20h49.28.931,arm3_eps,2022.2.5,Win32,60.30635629,61768384731ac05202ee94a9,64c7fed44a04f777bb1e18ce,64c801456a07b2af717fe4dc,up,1,0.75,0.5,15,0,0.4323,,,,,,127,0,127,0,1,,,,,
,,312967,001,2023-07-31_20h49.28.931,arm3_eps,2022.2.5,Win32,60.30635629,61768384731ac05202ee94a9,64c7fed44a04f777bb1e18ce,64c801456a07b2af717fe4dc,right,1,0.75,0.5,15,0.016438239,0.2594,,,,,,128,0,128,0,1,,,,,
,,312967,001,2023-07-31_20h49.28.931,arm3_eps,2022.2.5,Win32,60.30635629,61768384731ac05202ee94a9,64c7fed44a04f777bb1e18ce,64c801456a07b2af717fe4dc,right,1,0.75,0.5,15,-0.004455647,0.1715,,,,,,129,0,129,0,1,,,,,
,,312967,001,2023-07-31_20h49.28.931,arm3_eps,2022.2.5,Win32,60.30635629,61768384731ac05202ee94a9,64c7fed44a04f777bb1e18ce,64c801456a07b2af717fe4dc,right,1,0.75,0.5,15,-0.018126328,0.1106,,,,,,130,0,130,0,1,,,,,
,,312967,001,2023-07-31_20h49.28.931,arm3_eps,2022.2.5,Win32,60.30635629,61768384731ac05202ee94a9,64c7fed44a04f777bb1e18ce,64c801456a07b2af717fe4dc,right,1,0.75,0.5,15,-0.028058674,0.1578,,,,,,131,0,131,0,1,,,,,
,,312967,001,2023-07-31_20h49.28.931,arm3_eps,2022.2.5,Win32,60.30635629,61768384731ac05202ee94a9,64c7fed44a04f777bb1e18ce,64c801456a07b2af717fe4dc,right,1,0.75,0.5,15,0.002378573,0.1156,,,,,,132,0,132,0,1,,,,,
,,312967,001,2023-07-31_20h49.28.931,arm3_eps,2022.2.5,Win32,60.30635629,61768384731ac05202ee94a9,64c7fed44a04f777bb1e18ce,64c801456a07b2af717fe4dc,right,1,0.75,0.5,15,0.044673316,0.1537,,,,,,133,0,133,0,1,,,,,
,,312967,001,2023-07-31_20h49.28.931,arm3_eps,2022.2.5,Win32,60.30635629,61768384731ac05202ee94a9,64c7fed44a04f777bb1e18ce,64c801456a07b2af717fe4dc,right,1,0.75,0.5,15,0.049068277,0.2831,,,,,,134,0,134,0,1,,,,,
,,312967,001,2023-07-31_20h49.28.931,arm3_eps,2022.2.5,Win32,60.30635629,61768384731ac05202ee94a9,64c7fed44a04f777bb1e18ce,64c801456a07b2af717fe4dc,up,1,0.75,0.5,15,0,0.3177,,,,,,135,0,135,0,1,,,,,
,,312967,001,2023-07-31_20h49.28.931,arm3_eps,2022.2.5,Win32,60.30635629,61768384731ac05202ee94a9,64c7fed44a04f777bb1e18ce,64c801456a07b2af717fe4dc,right,1,0.75,0.5,15,0.036842792,0.2782,,,,,,136,0,136,0,1,,,,,
,,312967,001,2023-07-31_20h49.28.931,arm3_eps,2022.2.5,Win32,60.30635629,61768384731ac05202ee94a9,64c7fed44a04f777bb1e18ce,64c801456a07b2af717fe4dc,right,1,0.75,0.5,15,0.024809551,0.1695,,,,,,137,0,137,0,1,,,,,
,,312967,001,2023-07-31_20h49.28.931,arm3_eps,2022.2.5,Win32,60.30635629,61768384731ac05202ee94a9,64c7fed44a04f777bb1e18ce,64c801456a07b2af717fe4dc,right,1,0.75,0.5,15,0.069895032,0.1731,,,,,,138,0,138,0,1,,,,,
,,312967,001,2023-07-31_20h49.28.931,arm3_eps,2022.2.5,Win32,60.30635629,61768384731ac05202ee94a9,64c7fed44a04f777bb1e18ce,64c801456a07b2af717fe4dc,right,1,0.75,0.5,15,0.087541351,0.1584,,,,,,139,0,139,0,1,,,,,
,,312967,001,2023-07-31_20h49.28.931,arm3_eps,2022.2.5,Win32,60.30635629,61768384731ac05202ee94a9,64c7fed44a04f777bb1e18ce,64c801456a07b2af717fe4dc,right,1,0.75,0.5,15,0.088675284,0.111,,,,,,140,0,140,0,1,,,,,
,,312967,001,2023-07-31_20h49.28.931,arm3_eps,2022.2.5,Win32,60.30635629,61768384731ac05202ee94a9,64c7fed44a04f777bb1e18ce,64c801456a07b2af717fe4dc,up,1,0.75,0.5,16,0,0.2744,,,,,,141,0,141,0,1,,,,,
,,312967,001,2023-07-31_20h49.28.931,arm3_eps,2022.2.5,Win32,60.30635629,61768384731ac05202ee94a9,64c7fed44a04f777bb1e18ce,64c801456a07b2af717fe4dc,right,1,0.75,0.5,16,0.011121385,0.2404,,,,,,142,0,142,0,1,,,,,
,,312967,001,2023-07-31_20h49.28.931,arm3_eps,2022.2.5,Win32,60.30635629,61768384731ac05202ee94a9,64c7fed44a04f777bb1e18ce,64c801456a07b2af717fe4dc,right,1,0.75,0.5,16,0.033528118,0.1411,,,,,,143,0,143,0,1,,,,,
,,312967,001,2023-07-31_20h49.28.931,arm3_eps,2022.2.5,Win32,60.30635629,61768384731ac05202ee94a9,64c7fed44a04f777bb1e18ce,64c801456a07b2af717fe4dc,right,1,0.75,0.5,16,0.027116851,0.1657,,,,,,144,0,144,0,1,,,,,
,,312967,001,2023-07-31_20h49.28.931,arm3_eps,2022.2.5,Win32,60.30635629,61768384731ac05202ee94a9,64c7fed44a04f777bb1e18ce,64c801456a07b2af717fe4dc,right,1,0.75,0.5,16,0.030837454,0.1889,,,,,,145,0,145,0,1,,,,,
,,312967,001,2023-07-31_20h49.28.931,arm3_eps,2022.2.5,Win32,60.30635629,61768384731ac05202ee94a9,64c7fed44a04f777bb1e18ce,64c801456a07b2af717fe4dc,right,1,0.75,0.5,16,0.061358011,0.1259,,,,,,146,0,146,0,1,,,,,
,,312967,001,2023-07-31_20h49.28.931,arm3_eps,2022.2.5,Win32,60.30635629,61768384731ac05202ee94a9,64c7fed44a04f777bb1e18ce,64c801456a07b2af717fe4dc,right,1,0.75,0.5,16,0.064458697,0.3273,,,,,,147,0,147,0,1,,,,,
,,312967,001,2023-07-31_20h49.28.931,arm3_eps,2022.2.5,Win32,60.30635629,61768384731ac05202ee94a9,64c7fed44a04f777bb1e18ce,64c801456a07b2af717fe4dc,right,1,0.75,0.5,16,0.096738254,0.1653,,,,,,148,0,148,0,1,,,,,
,,312967,001,2023-07-31_20h49.28.931,arm3_eps,2022.2.5,Win32,60.30635629,61768384731ac05202ee94a9,64c7fed44a04f777bb1e18ce,64c801456a07b2af717fe4dc,right,1,0.75,0.5,16,0.103124637,0.1315,,,,,,149,0,149,0,1,,,,,
,,312967,001,2023-07-31_20h49.28.931,arm3_eps,2022.2.5,Win32,60.30635629,61768384731ac05202ee94a9,64c7fed44a04f777bb1e18ce,64c801456a07b2af717fe4dc,up,-1,0.75,0.5,16,0,0.1834,,,,,,150,0,150,0,1,,,,,
,,312967,001,2023-07-31_20h49.28.931,arm3_eps,2022.2.5,Win32,60.30635629,61768384731ac05202ee94a9,64c7fed44a04f777bb1e18ce,64c801456a07b2af717fe4dc,right,-1,0.75,0.5,16,-0.004717288,0.3166,,,,,,151,0,151,0,1,,,,,
,,312967,001,2023-07-31_20h49.28.931,arm3_eps,2022.2.5,Win32,60.30635629,61768384731ac05202ee94a9,64c7fed44a04f777bb1e18ce,64c801456a07b2af717fe4dc,right,-1,0.75,0.5,16,-0.042600941,0.329,,,,,,152,0,152,0,1,,,,,
,,312967,001,2023-07-31_20h49.28.931,arm3_eps,2022.2.5,Win32,60.30635629,61768384731ac05202ee94a9,64c7fed44a04f777bb1e18ce,64c801456a07b2af717fe4dc,down,1,0.75,0.5,17,0,0.2942,,,,,,153,0,153,0,1,,,,,
,,312967,001,2023-07-31_20h49.28.931,arm3_eps,2022.2.5,Win32,60.30635629,61768384731ac05202ee94a9,64c7fed44a04f777bb1e18ce,64c801456a07b2af717fe4dc,right,1,0.75,0.5,17,0.013222901,0.0053,,,,,,154,0,154,0,1,,,,,
,,312967,001,2023-07-31_20h49.28.931,arm3_eps,2022.2.5,Win32,60.30635629,61768384731ac05202ee94a9,64c7fed44a04f777bb1e18ce,64c801456a07b2af717fe4dc,right,1,0.75,0.5,17,0.006262592,0.1663,,,,,,155,0,155,0,1,,,,,
,,312967,001,2023-07-31_20h49.28.931,arm3_eps,2022.2.5,Win32,60.30635629,61768384731ac05202ee94a9,64c7fed44a04f777bb1e18ce,64c801456a07b2af717fe4dc,right,1,0.75,0.5,17,0.026785025,0.3324,,,,,,156,0,156,0,1,,,,,
,,312967,001,2023-07-31_20h49.28.931,arm3_eps,2022.2.5,Win32,60.30635629,61768384731ac05202ee94a9,64c7fed44a04f777bb1e18ce,64c801456a07b2af717fe4dc,right,1,0.75,0.5,17,0.040655254,0.1989,,,,,,157,0,157,0,1,,,,,
,,312967,001,2023-07-31_20h49.28.931,arm3_eps,2022.2.5,Win32,60.30635629,61768384731ac05202ee94a9,64c7fed44a04f777bb1e18ce,64c801456a07b2af717fe4dc,right,1,0.75,0.5,17,0.048815025,0.1482,,,,,,158,0,158,0,1,,,,,
,,312967,001,2023-07-31_20h49.28.931,arm3_eps,2022.2.5,Win32,60.30635629,61768384731ac05202ee94a9,64c7fed44a04f777bb1e18ce,64c801456a07b2af717fe4dc,right,1,0.75,0.5,17,0.086173398,0.3487,,,,,,159,0,159,0,1,,,,,
,,312967,001,2023-07-31_20h49.28.931,arm3_eps,2022.2.5,Win32,60.30635629,61768384731ac05202ee94a9,64c7fed44a04f777bb1e18ce,64c801456a07b2af717fe4dc,up,1,0.75,0.5,18,0,0.1821,,,,,,160,0,160,0,1,,,,,
,,312967,001,2023-07-31_20h49.28.931,arm3_eps,2022.2.5,Win32,60.30635629,61768384731ac05202ee94a9,64c7fed44a04f777bb1e18ce,64c801456a07b2af717fe4dc,right,1,0.75,0.5,18,0.002724093,0.2006,,,,,,161,0,161,0,1,,,,,
,,312967,001,2023-07-31_20h49.28.931,arm3_eps,2022.2.5,Win32,60.30635629,61768384731ac05202ee94a9,64c7fed44a04f777bb1e18ce,64c801456a07b2af717fe4dc,right,1,0.75,0.5,18,0.001035743,0.3742,,,,,,162,0,162,0,1,,,,,
,,312967,001,2023-07-31_20h49.28.931,arm3_eps,2022.2.5,Win32,60.30635629,61768384731ac05202ee94a9,64c7fed44a04f777bb1e18ce,64c801456a07b2af717fe4dc,right,1,0.75,0.5,18,0.008269113,0.1356,,,,,,163,0,163,0,1,,,,,
,,312967,001,2023-07-31_20h49.28.931,arm3_eps,2022.2.5,Win32,60.30635629,61768384731ac05202ee94a9,64c7fed44a04f777bb1e18ce,64c801456a07b2af717fe4dc,right,1,0.75,0.5,18,0.014588713,0.2457,,,,,,164,0,164,0,1,,,,,
,,312967,001,2023-07-31_20h49.28.931,arm3_eps,2022.2.5,Win32,60.30635629,61768384731ac05202ee94a9,64c7fed44a04f777bb1e18ce,64c801456a07b2af717fe4dc,right,1,0.75,0.5,18,0.034913032,0.1239,,,,,,165,0,165,0,1,,,,,
,,312967,001,2023-07-31_20h49.28.931,arm3_eps,2022.2.5,Win32,60.30635629,61768384731ac05202ee94a9,64c7fed44a04f777bb1e18ce,64c801456a07b2af717fe4dc,right,1,0.75,0.5,18,0.040557007,0.3612,,,,,,166,0,166,0,1,,,,,
,,312967,001,2023-07-31_20h49.28.931,arm3_eps,2022.2.5,Win32,60.30635629,61768384731ac05202ee94a9,64c7fed44a04f777bb1e18ce,64c801456a07b2af717fe4dc,right,1,0.75,0.5,18,0.018021982,0.1146,,,,,,167,0,167,0,1,,,,,
,,312967,001,2023-07-31_20h49.28.931,arm3_eps,2022.2.5,Win32,60.30635629,61768384731ac05202ee94a9,64c7fed44a04f777bb1e18ce,64c801456a07b2af717fe4dc,right,1,0.75,0.5,18,0.035665351,0.1898,,,,,,168,0,168,0,1,,,,,
,,312967,001,2023-07-31_20h49.28.931,arm3_eps,2022.2.5,Win32,60.30635629,61768384731ac05202ee94a9,64c7fed44a04f777bb1e18ce,64c801456a07b2af717fe4dc,right,1,0.75,0.5,18,0.051155607,0.0743,,,,,,169,0,169,0,1,,,,,
,,312967,001,2023-07-31_20h49.28.931,arm3_eps,2022.2.5,Win32,60.30635629,61768384731ac05202ee94a9,64c7fed44a04f777bb1e18ce,64c801456a07b2af717fe4dc,right,1,0.75,0.5,18,0.074142481,0.1409,,,,,,170,0,170,0,1,,,,,
,,312967,001,2023-07-31_20h49.28.931,arm3_eps,2022.2.5,Win32,60.30635629,61768384731ac05202ee94a9,64c7fed44a04f777bb1e18ce,64c801456a07b2af717fe4dc,right,1,0.75,0.5,18,0.073811519,0.2247,,,,,,171,0,171,0,1,,,,,
,,312967,001,2023-07-31_20h49.28.931,arm3_eps,2022.2.5,Win32,60.30635629,61768384731ac05202ee94a9,64c7fed44a04f777bb1e18ce,64c801456a07b2af717fe4dc,up,-1,0.75,0.5,19,0,0.3079,,,,,,172,0,172,0,1,,,,,
,,312967,001,2023-07-31_20h49.28.931,arm3_eps,2022.2.5,Win32,60.30635629,61768384731ac05202ee94a9,64c7fed44a04f777bb1e18ce,64c801456a07b2af717fe4dc,right,-1,0.75,0.5,19,-0.008902721,0.317,,,,,,173,0,173,0,1,,,,,
,,312967,001,2023-07-31_20h49.28.931,arm3_eps,2022.2.5,Win32,60.30635629,61768384731ac05202ee94a9,64c7fed44a04f777bb1e18ce,64c801456a07b2af717fe4dc,right,-1,0.75,0.5,19,-0.050093725,0.136,,,,,,174,0,174,0,1,,,,,
,,312967,001,2023-07-31_20h49.28.931,arm3_eps,2022.2.5,Win32,60.30635629,61768384731ac05202ee94a9,64c7fed44a04f777bb1e18ce,64c801456a07b2af717fe4dc,right,-1,0.75,0.5,19,-0.075218501,0.1321,,,,,,175,0,175,0,1,,,,,
,,312967,001,2023-07-31_20h49.28.931,arm3_eps,2022.2.5,Win32,60.30635629,61768384731ac05202ee94a9,64c7fed44a04f777bb1e18ce,64c801456a07b2af717fe4dc,down,-1,0.75,0.5,19,0,0.5667,,,,,,176,0,176,0,1,,,,,
,,312967,001,2023-07-31_20h49.28.931,arm3_eps,2022.2.5,Win32,60.30635629,61768384731ac05202ee94a9,64c7fed44a04f777bb1e18ce,64c801456a07b2af717fe4dc,right,-1,0.75,0.5,19,0.003904308,0.198,,,,,,177,0,177,0,1,,,,,
,,312967,001,2023-07-31_20h49.28.931,arm3_eps,2022.2.5,Win32,60.30635629,61768384731ac05202ee94a9,64c7fed44a04f777bb1e18ce,64c801456a07b2af717fe4dc,right,-1,0.75,0.5,19,0.013162092,0.4117,,,,,,178,0,178,0,1,,,,,
,,312967,001,2023-07-31_20h49.28.931,arm3_eps,2022.2.5,Win32,60.30635629,61768384731ac05202ee94a9,64c7fed44a04f777bb1e18ce,64c801456a07b2af717fe4dc,right,-1,0.75,0.5,19,0.01836266,0.1099,,,,,,179,0,179,0,1,,,,,
,,312967,001,2023-07-31_20h49.28.931,arm3_eps,2022.2.5,Win32,60.30635629,61768384731ac05202ee94a9,64c7fed44a04f777bb1e18ce,64c801456a07b2af717fe4dc,up,1,0.75,0.5,18,0,0.3112,,,,,,180,0,180,0,1,,,,,
,,312967,001,2023-07-31_20h49.28.931,arm3_eps,2022.2.5,Win32,60.30635629,61768384731ac05202ee94a9,64c7fed44a04f777bb1e18ce,64c801456a07b2af717fe4dc,right,1,0.75,0.5,18,0.015929228,0.3228,,,,,,181,0,181,0,1,,,,,
,,312967,001,2023-07-31_20h49.28.931,arm3_eps,2022.2.5,Win32,60.30635629,61768384731ac05202ee94a9,64c7fed44a04f777bb1e18ce,64c801456a07b2af717fe4dc,right,1,0.75,0.5,18,0.005427006,0.169,,,,,,182,0,182,0,1,,,,,
,,312967,001,2023-07-31_20h49.28.931,arm3_eps,2022.2.5,Win32,60.30635629,61768384731ac05202ee94a9,64c7fed44a04f777bb1e18ce,64c801456a07b2af717fe4dc,right,1,0.75,0.5,18,0.021782743,0.1494,,,,,,183,0,183,0,1,,,,,
,,312967,001,2023-07-31_20h49.28.931,arm3_eps,2022.2.5,Win32,60.30635629,61768384731ac05202ee94a9,64c7fed44a04f777bb1e18ce,64c801456a07b2af717fe4dc,right,1,0.75,0.5,18,0.02786049,0.1481,,,,,,184,0,184,0,1,,,,,
,,312967,001,2023-07-31_20h49.28.931,arm3_eps,2022.2.5,Win32,60.30635629,61768384731ac05202ee94a9,64c7fed44a04f777bb1e18ce,64c801456a07b2af717fe4dc,right,1,0.75,0.5,18,0.034861484,0.1499,,,,,,185,0,185,0,1,,,,,
,,312967,001,2023-07-31_20h49.28.931,arm3_eps,2022.2.5,Win32,60.30635629,61768384731ac05202ee94a9,64c7fed44a04f777bb1e18ce,64c801456a07b2af717fe4dc,right,1,0.75,0.5,18,0.066373604,0.1313,,,,,,186,0,186,0,1,,,,,
,,312967,001,2023-07-31_20h49.28.931,arm3_eps,2022.2.5,Win32,60.30635629,61768384731ac05202ee94a9,64c7fed44a04f777bb1e18ce,64c801456a07b2af717fe4dc,right,1,0.75,0.5,18,0.067823844,0.1161,,,,,,187,0,187,0,1,,,,,
,,312967,001,2023-07-31_20h49.28.931,arm3_eps,2022.2.5,Win32,60.30635629,61768384731ac05202ee94a9,64c7fed44a04f777bb1e18ce,64c801456a07b2af717fe4dc,up,-1,0.75,0.5,19,0,0.0908,,,,,,188,0,188,0,1,,,,,
,,312967,001,2023-07-31_20h49.28.931,arm3_eps,2022.2.5,Win32,60.30635629,61768384731ac05202ee94a9,64c7fed44a04f777bb1e18ce,64c801456a07b2af717fe4dc,right,-1,0.75,0.5,19,0.006754687,0.2907,,,,,,189,0,189,0,1,,,,,
,,312967,001,2023-07-31_20h49.28.931,arm3_eps,2022.2.5,Win32,60.30635629,61768384731ac05202ee94a9,64c7fed44a04f777bb1e18ce,64c801456a07b2af717fe4dc,right,-1,0.75,0.5,19,-0.02049839,0.174,,,,,,190,0,190,0,1,,,,,
,,312967,001,2023-07-31_20h49.28.931,arm3_eps,2022.2.5,Win32,60.30635629,61768384731ac05202ee94a9,64c7fed44a04f777bb1e18ce,64c801456a07b2af717fe4dc,right,-1,0.75,0.5,19,-0.05873834,0.1446,,,,,,191,0,191,0,1,,,,,
,,312967,001,2023-07-31_20h49.28.931,arm3_eps,2022.2.5,Win32,60.30635629,61768384731ac05202ee94a9,64c7fed44a04f777bb1e18ce,64c801456a07b2af717fe4dc,right,-1,0.75,0.5,19,-0.077872342,0.5074,,,,,,192,0,192,0,1,,,,,
,,312967,001,2023-07-31_20h49.28.931,arm3_eps,2022.2.5,Win32,60.30635629,61768384731ac05202ee94a9,64c7fed44a04f777bb1e18ce,64c801456a07b2af717fe4dc,down,-1,0.75,0.5,20,0,0.1567,,,,,,193,0,193,0,1,,,,,
,,312967,001,2023-07-31_20h49.28.931,arm3_eps,2022.2.5,Win32,60.30635629,61768384731ac05202ee94a9,64c7fed44a04f777bb1e18ce,64c801456a07b2af717fe4dc,right,-1,0.75,0.5,20,-0.038798498,0.3778,,,,,,194,0,194,0,1,,,,,
,,312967,001,2023-07-31_20h49.28.931,arm3_eps,2022.2.5,Win32,60.30635629,61768384731ac05202ee94a9,64c7fed44a04f777bb1e18ce,64c801456a07b2af717fe4dc,right,-1,0.75,0.5,20,-0.061960924,0.1202,,,,,,195,0,195,0,1,,,,,
,,312967,001,2023-07-31_20h49.28.931,arm3_eps,2022.2.5,Win32,60.30635629,61768384731ac05202ee94a9,64c7fed44a04f777bb1e18ce,64c801456a07b2af717fe4dc,right,-1,0.75,0.5,20,-0.090359599,0.1317,,,,,,196,0,196,0,1,,,,,
,,312967,001,2023-07-31_20h49.28.931,arm3_eps,2022.2.5,Win32,60.30635629,61768384731ac05202ee94a9,64c7fed44a04f777bb1e18ce,64c801456a07b2af717fe4dc,right,-1,0.75,0.5,20,-0.109631274,0.1268,,,,,,197,0,197,0,1,,,,,
,,312967,001,2023-07-31_20h49.28.931,arm3_eps,2022.2.5,Win32,60.30635629,61768384731ac05202ee94a9,64c7fed44a04f777bb1e18ce,64c801456a07b2af717fe4dc,right,-1,0.75,0.5,20,-0.095799854,0.1079,,,,,,198,0,198,0,1,,,,,
,,312967,001,2023-07-31_20h49.28.931,arm3_eps,2022.2.5,Win32,60.30635629,61768384731ac05202ee94a9,64c7fed44a04f777bb1e18ce,64c801456a07b2af717fe4dc,down,-1,0.75,0.5,21,0,0.3514,,,,,,199,0,199,0,1,,,,,
,,312967,001,2023-07-31_20h49.28.931,arm3_eps,2022.2.5,Win32,60.30635629,61768384731ac05202ee94a9,64c7fed44a04f777bb1e18ce,64c801456a07b2af717fe4dc,right,-1,0.75,0.5,21,0.005586049,0.1907,,,,,,200,0,200,0,1,,,,,
,,312967,001,2023-07-31_20h49.28.931,arm3_eps,2022.2.5,Win32,60.30635629,61768384731ac05202ee94a9,64c7fed44a04f777bb1e18ce,64c801456a07b2af717fe4dc,right,-1,0.75,0.5,21,0.010355737,0.1583,,,,,,201,0,201,0,1,,,,,
,,312967,001,2023-07-31_20h49.28.931,arm3_eps,2022.2.5,Win32,60.30635629,61768384731ac05202ee94a9,64c7fed44a04f777bb1e18ce,64c801456a07b2af717fe4dc,right,-1,0.75,0.5,21,-0.021993748,0.1281,,,,,,202,0,202,0,1,,,,,
,,312967,001,2023-07-31_20h49.28.931,arm3_eps,2022.2.5,Win32,60.30635629,61768384731ac05202ee94a9,64c7fed44a04f777bb1e18ce,64c801456a07b2af717fe4dc,right,-1,0.75,0.5,21,-0.012556798,0.1267,,,,,,203,0,203,0,1,,,,,
,,312967,001,2023-07-31_20h49.28.931,arm3_eps,2022.2.5,Win32,60.30635629,61768384731ac05202ee94a9,64c7fed44a04f777bb1e18ce,64c801456a07b2af717fe4dc,right,-1,0.75,0.5,21,-0.043841323,0.1413,,,,,,204,0,204,0,1,,,,,
,,312967,001,2023-07-31_20h49.28.931,arm3_eps,2022.2.5,Win32,60.30635629,61768384731ac05202ee94a9,64c7fed44a04f777bb1e18ce,64c801456a07b2af717fe4dc,right,-1,0.75,0.5,21,-0.05824227,0.2965,,,,,,205,0,205,0,1,,,,,
,,312967,001,2023-07-31_20h49.28.931,arm3_eps,2022.2.5,Win32,60.30635629,61768384731ac05202ee94a9,64c7fed44a04f777bb1e18ce,64c801456a07b2af717fe4dc,right,-1,0.75,0.5,21,-0.094169777,0.1485,,,,,,206,0,206,0,1,,,,,
,,312967,001,2023-07-31_20h49.28.931,arm3_eps,2022.2.5,Win32,60.30635629,61768384731ac05202ee94a9,64c7fed44a04f777bb1e18ce,64c801456a07b2af717fe4dc,down,-1,0.75,0.5,22,0,0.0169,,,,,,207,0,207,0,1,,,,,
,,312967,001,2023-07-31_20h49.28.931,arm3_eps,2022.2.5,Win32,60.30635629,61768384731ac05202ee94a9,64c7fed44a04f777bb1e18ce,64c801456a07b2af717fe4dc,right,-1,0.75,0.5,22,0.004830999,0.1841,,,,,,208,0,208,0,1,,,,,
,,312967,001,2023-07-31_20h49.28.931,arm3_eps,2022.2.5,Win32,60.30635629,61768384731ac05202ee94a9,64c7fed44a04f777bb1e18ce,64c801456a07b2af717fe4dc,right,-1,0.75,0.5,22,0.000886538,0.136,,,,,,209,0,209,0,1,,,,,
,,312967,001,2023-07-31_20h49.28.931,arm3_eps,2022.2.5,Win32,60.30635629,61768384731ac05202ee94a9,64c7fed44a04f777bb1e18ce,64c801456a07b2af717fe4dc,right,-1,0.75,0.5,22,-0.025203666,0.1331,,,,,,210,0,210,0,1,,,,,
,,312967,001,2023-07-31_20h49.28.931,arm3_eps,2022.2.5,Win32,60.30635629,61768384731ac05202ee94a9,64c7fed44a04f777bb1e18ce,64c801456a07b2af717fe4dc,right,-1,0.75,0.5,22,-0.045171534,0.1156,,,,,,211,0,211,0,1,,,,,
,,312967,001,2023-07-31_20h49.28.931,arm3_eps,2022.2.5,Win32,60.30635629,61768384731ac05202ee94a9,64c7fed44a04f777bb1e18ce,64c801456a07b2af717fe4dc,right,-1,0.75,0.5,22,-0.063444825,0.2727,,,,,,212,0,212,0,1,,,,,
,,312967,001,2023-07-31_20h49.28.931,arm3_eps,2022.2.5,Win32,60.30635629,61768384731ac05202ee94a9,64c7fed44a04f777bb1e18ce,64c801456a07b2af717fe4dc,right,-1,0.75,0.5,22,-0.113542291,0.1162,,,,,,213,0,213,0,1,,,,,
,,312967,001,2023-07-31_20h49.28.931,arm3_eps,2022.2.5,Win32,60.30635629,61768384731ac05202ee94a9,64c7fed44a04f777bb1e18ce,64c801456a07b2af717fe4dc,down,1,0.75,0.5,23,0,0.1732,,,,,,214,0,214,0,1,,,,,
,,312967,001,2023-07-31_20h49.28.931,arm3_eps,2022.2.5,Win32,60.30635629,61768384731ac05202ee94a9,64c7fed44a04f777bb1e18ce,64c801456a07b2af717fe4dc,right,1,0.75,0.5,23,-0.008492742,0.1524,,,,,,215,0,215,0,1,,,,,
,,312967,001,2023-07-31_20h49.28.931,arm3_eps,2022.2.5,Win32,60.30635629,61768384731ac05202ee94a9,64c7fed44a04f777bb1e18ce,64c801456a07b2af717fe4dc,right,1,0.75,0.5,23,-0.000698558,0.1486,,,,,,216,0,216,0,1,,,,,
,,312967,001,2023-07-31_20h49.28.931,arm3_eps,2022.2.5,Win32,60.30635629,61768384731ac05202ee94a9,64c7fed44a04f777bb1e18ce,64c801456a07b2af717fe4dc,right,1,0.75,0.5,23,-0.029913196,0.2461,,,,,,217,0,217,0,1,,,,,
,,312967,001,2023-07-31_20h49.28.931,arm3_eps,2022.2.5,Win32,60.30635629,61768384731ac05202ee94a9,64c7fed44a04f777bb1e18ce,64c801456a07b2af717fe4dc,right,1,0.75,0.5,23,-0.049705872,0.124,,,,,,218,0,218,0,1,,,,,
,,312967,001,2023-07-31_20h49.28.931,arm3_eps,2022.2.5,Win32,60.30635629,61768384731ac05202ee94a9,64c7fed44a04f777bb1e18ce,64c801456a07b2af717fe4dc,right,1,0.75,0.5,23,-0.06232328,0.2245,,,,,,219,0,219,0,1,,,,,
,,312967,001,2023-07-31_20h49.28.931,arm3_eps,2022.2.5,Win32,60.30635629,61768384731ac05202ee94a9,64c7fed44a04f777bb1e18ce,64c801456a07b2af717fe4dc,down,-1,0.75,0.5,22,0,0.1583,,,,,,220,0,220,0,1,,,,,
,,312967,001,2023-07-31_20h49.28.931,arm3_eps,2022.2.5,Win32,60.30635629,61768384731ac05202ee94a9,64c7fed44a04f777bb1e18ce,64c801456a07b2af717fe4dc,right,-1,0.75,0.5,22,-0.021106157,0.1755,,,,,,221,0,221,0,1,,,,,
,,312967,001,2023-07-31_20h49.28.931,arm3_eps,2022.2.5,Win32,60.30635629,61768384731ac05202ee94a9,64c7fed44a04f777bb1e18ce,64c801456a07b2af717fe4dc,right,-1,0.75,0.5,22,-0.029503378,0.1453,,,,,,222,0,222,0,1,,,,,
,,312967,001,2023-07-31_20h49.28.931,arm3_eps,2022.2.5,Win32,60.30635629,61768384731ac05202ee94a9,64c7fed44a04f777bb1e18ce,64c801456a07b2af717fe4dc,right,-1,0.75,0.5,22,-0.035266897,0.1655,,,,,,223,0,223,0,1,,,,,
,,312967,001,2023-07-31_20h49.28.931,arm3_eps,2022.2.5,Win32,60.30635629,61768384731ac05202ee94a9,64c7fed44a04f777bb1e18ce,64c801456a07b2af717fe4dc,right,-1,0.75,0.5,22,-0.044902645,0.1547,,,,,,224,0,224,0,1,,,,,
,,312967,001,2023-07-31_20h49.28.931,arm3_eps,2022.2.5,Win32,60.30635629,61768384731ac05202ee94a9,64c7fed44a04f777bb1e18ce,64c801456a07b2af717fe4dc,right,-1,0.75,0.5,22,-0.071410709,0.1312,,,,,,225,0,225,0,1,,,,,
,,312967,001,2023-07-31_20h49.28.931,arm3_eps,2022.2.5,Win32,60.30635629,61768384731ac05202ee94a9,64c7fed44a04f777bb1e18ce,64c801456a07b2af717fe4dc,right,-1,0.75,0.5,22,-0.072197446,0.1434,,,,,,226,0,226,0,1,,,,,
,,312967,001,2023-07-31_20h49.28.931,arm3_eps,2022.2.5,Win32,60.30635629,61768384731ac05202ee94a9,64c7fed44a04f777bb1e18ce,64c801456a07b2af717fe4dc,right,-1,0.75,0.5,22,-0.072247319,0.1177,,,,,,227,0,227,0,1,,,,,
,,312967,001,2023-07-31_20h49.28.931,arm3_eps,2022.2.5,Win32,60.30635629,61768384731ac05202ee94a9,64c7fed44a04f777bb1e18ce,64c801456a07b2af717fe4dc,down,1,0.75,0.5,23,0,0.1052,,,,,,228,0,228,0,1,,,,,
,,312967,001,2023-07-31_20h49.28.931,arm3_eps,2022.2.5,Win32,60.30635629,61768384731ac05202ee94a9,64c7fed44a04f777bb1e18ce,64c801456a07b2af717fe4dc,right,1,0.75,0.5,23,0.009679423,0.1621,,,,,,229,0,229,0,1,,,,,
,,312967,001,2023-07-31_20h49.28.931,arm3_eps,2022.2.5,Win32,60.30635629,61768384731ac05202ee94a9,64c7fed44a04f777bb1e18ce,64c801456a07b2af717fe4dc,right,1,0.75,0.5,23,0.021492136,0.1701,,,,,,230,0,230,0,1,,,,,
,,312967,001,2023-07-31_20h49.28.931,arm3_eps,2022.2.5,Win32,60.30635629,61768384731ac05202ee94a9,64c7fed44a04f777bb1e18ce,64c801456a07b2af717fe4dc,right,1,0.75,0.5,23,0.032491546,0.149,,,,,,231,0,231,0,1,,,,,
,,312967,001,2023-07-31_20h49.28.931,arm3_eps,2022.2.5,Win32,60.30635629,61768384731ac05202ee94a9,64c7fed44a04f777bb1e18ce,64c801456a07b2af717fe4dc,right,1,0.75,0.5,23,0.060133344,0.1991,,,,,,232,0,232,0,1,,,,,
,,312967,001,2023-07-31_20h49.28.931,arm3_eps,2022.2.5,Win32,60.30635629,61768384731ac05202ee94a9,64c7fed44a04f777bb1e18ce,64c801456a07b2af717fe4dc,right,1,0.75,0.5,23,0.067015898,0.1663,,,,,,233,0,233,0,1,,,,,
,,312967,001,2023-07-31_20h49.28.931,arm3_eps,2022.2.5,Win32,60.30635629,61768384731ac05202ee94a9,64c7fed44a04f777bb1e18ce,64c801456a07b2af717fe4dc,up,1,0.75,0.5,24,0,0.1062,,,,,,234,0,234,0,1,,,,,
,,312967,001,2023-07-31_20h49.28.931,arm3_eps,2022.2.5,Win32,60.30635629,61768384731ac05202ee94a9,64c7fed44a04f777bb1e18ce,64c801456a07b2af717fe4dc,up,1,0.75,0.5,25,0,0.171,,,,,,235,0,235,0,1,,,,,
,,312967,001,2023-07-31_20h49.28.931,arm3_eps,2022.2.5,Win32,60.30635629,61768384731ac05202ee94a9,64c7fed44a04f777bb1e18ce,64c801456a07b2af717fe4dc,right,1,0.75,0.5,25,0.007064057,0.1281,,,,,,236,0,236,0,1,,,,,
,,312967,001,2023-07-31_20h49.28.931,arm3_eps,2022.2.5,Win32,60.30635629,61768384731ac05202ee94a9,64c7fed44a04f777bb1e18ce,64c801456a07b2af717fe4dc,right,1,0.75,0.5,25,0.006981668,0.1551,,,,,,237,0,237,0,1,,,,,
,,312967,001,2023-07-31_20h49.28.931,arm3_eps,2022.2.5,Win32,60.30635629,61768384731ac05202ee94a9,64c7fed44a04f777bb1e18ce,64c801456a07b2af717fe4dc,right,1,0.75,0.5,25,0.012541333,0.176,,,,,,238,0,238,0,1,,,,,
,,312967,001,2023-07-31_20h49.28.931,arm3_eps,2022.2.5,Win32,60.30635629,61768384731ac05202ee94a9,64c7fed44a04f777bb1e18ce,64c801456a07b2af717fe4dc,right,1,0.75,0.5,25,0.025643716,0.1686,,,,,,239,0,239,0,1,,,,,
,,312967,001,2023-07-31_20h49.28.931,arm3_eps,2022.2.5,Win32,60.30635629,61768384731ac05202ee94a9,64c7fed44a04f777bb1e18ce,64c801456a07b2af717fe4dc,right,1,0.75,0.5,25,0.04145461,0.1563,,,,,,240,0,240,0,1,,,,,
,,312967,001,2023-07-31_20h49.28.931,arm3_eps,2022.2.5,Win32,60.30635629,61768384731ac05202ee94a9,64c7fed44a04f777bb1e18ce,64c801456a07b2af717fe4dc,up,1,0.75,0.5,25,0,0.1859,,,,,,241,0,241,0,1,,,,,
,,312967,001,2023-07-31_20h49.28.931,arm3_eps,2022.2.5,Win32,60.30635629,61768384731ac05202ee94a9,64c7fed44a04f777bb1e18ce,64c801456a07b2af717fe4dc,right,1,0.75,0.5,25,0.006943391,0.1941,,,,,,242,0,242,0,1,,,,,
,,312967,001,2023-07-31_20h49.28.931,arm3_eps,2022.2.5,Win32,60.30635629,61768384731ac05202ee94a9,64c7fed44a04f777bb1e18ce,64c801456a07b2af717fe4dc,right,1,0.75,0.5,25,0.035115788,0.1768,,,,,,243,0,243,0,1,,,,,
,,312967,001,2023-07-31_20h49.28.931,arm3_eps,2022.2.5,Win32,60.30635629,61768384731ac05202ee94a9,64c7fed44a04f777bb1e18ce,64c801456a07b2af717fe4dc,right,1,0.75,0.5,25,0.024454754,0.1714,,,,,,244,0,244,0,1,,,,,
,,312967,001,2023-07-31_20h49.28.931,arm3_eps,2022.2.5,Win32,60.30635629,61768384731ac05202ee94a9,64c7fed44a04f777bb1e18ce,64c801456a07b2af717fe4dc,right,1,0.75,0.5,25,0.015413936,0.1418,,,,,,245,0,245,0,1,,,,,
,,312967,001,2023-07-31_20h49.28.931,arm3_eps,2022.2.5,Win32,60.30635629,61768384731ac05202ee94a9,64c7fed44a04f777bb1e18ce,64c801456a07b2af717fe4dc,right,1,0.75,0.5,25,0.007651901,0.1424,,,,,,246,0,246,0,1,,,,,
,,312967,001,2023-07-31_20h49.28.931,arm3_eps,2022.2.5,Win32,60.30635629,61768384731ac05202ee94a9,64c7fed44a04f777bb1e18ce,64c801456a07b2af717fe4dc,right,1,0.75,0.5,25,0.033778301,0.1158,,,,,,247,0,247,0,1,,,,,
,,312967,001,2023-07-31_20h49.28.931,arm3_eps,2022.2.5,Win32,60.30635629,61768384731ac05202ee94a9,64c7fed44a04f777bb1e18ce,64c801456a07b2af717fe4dc,right,1,0.75,0.5,25,0.025996948,0.1402,,,,,,248,0,248,0,1,,,,,
,,312967,001,2023-07-31_20h49.28.931,arm3_eps,2022.2.5,Win32,60.30635629,61768384731ac05202ee94a9,64c7fed44a04f777bb1e18ce,64c801456a07b2af717fe4dc,right,1,0.75,0.5,25,0.039072022,0.1061,,,,,,249,0,249,0,1,,,,,
,,312967,001,2023-07-31_20h49.28.931,arm3_eps,2022.2.5,Win32,60.30635629,61768384731ac05202ee94a9,64c7fed44a04f777bb1e18ce,64c801456a07b2af717fe4dc,right,1,0.75,0.5,25,0.0584805,0.092,,,,,,250,0,250,0,1,,,,,
,,312967,001,2023-07-31_20h49.28.931,arm3_eps,2022.2.5,Win32,60.30635629,61768384731ac05202ee94a9,64c7fed44a04f777bb1e18ce,64c801456a07b2af717fe4dc,up,1,0.75,0.5,25,0,0.2917,,,,,,251,0,251,0,1,,,,,
,,312967,001,2023-07-31_20h49.28.931,arm3_eps,2022.2.5,Win32,60.30635629,61768384731ac05202ee94a9,64c7fed44a04f777bb1e18ce,64c801456a07b2af717fe4dc,right,1,0.75,0.5,25,0.015380494,0.2,,,,,,252,0,252,0,1,,,,,
,,312967,001,2023-07-31_20h49.28.931,arm3_eps,2022.2.5,Win32,60.30635629,61768384731ac05202ee94a9,64c7fed44a04f777bb1e18ce,64c801456a07b2af717fe4dc,right,1,0.75,0.5,25,0.055858232,0.2705,,,,,,253,0,253,0,1,,,,,
,,312967,001,2023-07-31_20h49.28.931,arm3_eps,2022.2.5,Win32,60.30635629,61768384731ac05202ee94a9,64c7fed44a04f777bb1e18ce,64c801456a07b2af717fe4dc,right,1,0.75,0.5,25,0.054607345,0.1422,,,,,,254,0,254,0,1,,,,,
,,312967,001,2023-07-31_20h49.28.931,arm3_eps,2022.2.5,Win32,60.30635629,61768384731ac05202ee94a9,64c7fed44a04f777bb1e18ce,64c801456a07b2af717fe4dc,right,1,0.75,0.5,25,0.048166764,0.1414,,,,,,255,0,255,0,1,,,,,
,,312967,001,2023-07-31_20h49.28.931,arm3_eps,2022.2.5,Win32,60.30635629,61768384731ac05202ee94a9,64c7fed44a04f777bb1e18ce,64c801456a07b2af717fe4dc,up,1,0.75,0.5,26,0,0.1598,,,,,,256,0,256,0,1,,,,,
,,312967,001,2023-07-31_20h49.28.931,arm3_eps,2022.2.5,Win32,60.30635629,61768384731ac05202ee94a9,64c7fed44a04f777bb1e18ce,64c801456a07b2af717fe4dc,right,1,0.75,0.5,26,0.051853733,0.1915,,,,,,257,0,257,0,1,,,,,
,,312967,001,2023-07-31_20h49.28.931,arm3_eps,2022.2.5,Win32,60.30635629,61768384731ac05202ee94a9,64c7fed44a04f777bb1e18ce,64c801456a07b2af717fe4dc,right,1,0.75,0.5,26,0.08568423,0.1528,,,,,,258,0,258,0,1,,,,,
