space_bar.keys,space_bar.rt,participant,session,date,expName,psychopyVersion,OS,frameRate,PROLIFIC_PID,STUDY_ID,SESSION_ID,resp.keys,state,q_prob,eps_prob,score,price,resp.rt,train.thisRepN,train.thisTrialN,train.thisN,train.thisIndex,train.ran,steps.thisRepN,steps.thisTrialN,steps.thisN,steps.thisIndex,steps.ran,blocks.thisRepN,blocks.thisTrialN,blocks.thisN,blocks.thisIndex,blocks.ran
space,634.7618,324374,001,2023-07-31_12h47.45.222,arm3_eps,2022.2.5,Win32,60.06727535,64528908f63d6e6beb01b877,64c7fed44a04f777bb1e18ce,64c80129bb1a734c35a29bc9,,,,,,,,,,,,,,,,,,,,,,
space,3.6432,324374,001,2023-07-31_12h47.45.222,arm3_eps,2022.2.5,Win32,60.06727535,64528908f63d6e6beb01b877,64c7fed44a04f777bb1e18ce,64c80129bb1a734c35a29bc9,,,,,,,,,,,,,,,,,,,,,,
space,545.1794,324374,001,2023-07-31_12h47.45.222,arm3_eps,2022.2.5,Win32,60.06727535,64528908f63d6e6beb01b877,64c7fed44a04f777bb1e18ce,64c80129bb1a734c35a29bc9,,,,,,,,,,,,,,,,,,,,,,
space,24.8085,324374,001,2023-07-31_12h47.45.222,arm3_eps,2022.2.5,Win32,60.06727535,64528908f63d6e6beb01b877,64c7fed44a04f777bb1e18ce,64c80129bb1a734c35a29bc9,,,,,,,,,,,,,,,,,,,,,,
space,199.2344,324374,001,2023-07-31_12h47.45.222,arm3_eps,2022.2.5,Win32,60.06727535,64528908f63d6e6beb01b877,64c7fed44a04f777bb1e18ce,64c80129bb1a734c35a29bc9,,,,,,,,,,,,,,,,,,,,,,
space,9.8113,324374,001,2023-07-31_12h47.45.222,arm3_eps,2022.2.5,Win32,60.06727535,64528908f63d6e6beb01b877,64c7fed44a04f777bb1e18ce,64c80129bb1a734c35a29bc9,,,,,,,,,,,,,,,,,,,,,,
space,1.3946,324374,001,2023-07-31_12h47.45.222,arm3_eps,2022.2.5,Win32,60.06727535,64528908f63d6e6beb01b877,64c7fed44a04f777bb1e18ce,64c80129bb1a734c35a29bc9,,,,,,,,,,,,,,,,,,,,,,
,,324374,001,2023-07-31_12h47.45.222,arm3_eps,2022.2.5,Win32,60.06727535,64528908f63d6e6beb01b877,64c7fed44a04f777bb1e18ce,64c80129bb1a734c35a29bc9,right,1,1,0.2429,0,-0.019792068,3.5011,0,0,0,0,1,,,,,,,,,,
,,324374,001,2023-07-31_12h47.45.222,arm3_eps,2022.2.5,Win32,60.06727535,64528908f63d6e6beb01b877,64c7fed44a04f777bb1e18ce,64c80129bb1a734c35a29bc9,right,1,1,0.2429,0,0.026895697,1.9855,1,0,1,0,1,,,,,,,,,,
,,324374,001,2023-07-31_12h47.45.222,arm3_eps,2022.2.5,Win32,60.06727535,64528908f63d6e6beb01b877,64c7fed44a04f777bb1e18ce,64c80129bb1a734c35a29bc9,right,1,1,0.2429,0,0.042688642,0.901,2,0,2,0,1,,,,,,,,,,
,,324374,001,2023-07-31_12h47.45.222,arm3_eps,2022.2.5,Win32,60.06727535,64528908f63d6e6beb01b877,64c7fed44a04f777bb1e18ce,64c80129bb1a734c35a29bc9,right,1,1,0.2429,0,0.080938382,0.6674,3,0,3,0,1,,,,,,,,,,
,,324374,001,2023-07-31_12h47.45.222,arm3_eps,2022.2.5,Win32,60.06727535,64528908f63d6e6beb01b877,64c7fed44a04f777bb1e18ce,64c80129bb1a734c35a29bc9,up,-1,1,0.2429,1,0,1.1671,4,0,4,0,1,,,,,,,,,,
,,324374,001,2023-07-31_12h47.45.222,arm3_eps,2022.2.5,Win32,60.06727535,64528908f63d6e6beb01b877,64c7fed44a04f777bb1e18ce,64c80129bb1a734c35a29bc9,right,-1,1,0.2429,1,-0.005056103,1.5374,5,0,5,0,1,,,,,,,,,,
,,324374,001,2023-07-31_12h47.45.222,arm3_eps,2022.2.5,Win32,60.06727535,64528908f63d6e6beb01b877,64c7fed44a04f777bb1e18ce,64c80129bb1a734c35a29bc9,right,-1,1,0.2429,1,-0.051771479,0.7679,6,0,6,0,1,,,,,,,,,,
,,324374,001,2023-07-31_12h47.45.222,arm3_eps,2022.2.5,Win32,60.06727535,64528908f63d6e6beb01b877,64c7fed44a04f777bb1e18ce,64c80129bb1a734c35a29bc9,right,-1,1,0.2429,1,-0.058755895,0.572,7,0,7,0,1,,,,,,,,,,
,,324374,001,2023-07-31_12h47.45.222,arm3_eps,2022.2.5,Win32,60.06727535,64528908f63d6e6beb01b877,64c7fed44a04f777bb1e18ce,64c80129bb1a734c35a29bc9,right,-1,1,0.2429,1,-0.06658978,0.4489,8,0,8,0,1,,,,,,,,,,
,,324374,001,2023-07-31_12h47.45.222,arm3_eps,2022.2.5,Win32,60.06727535,64528908f63d6e6beb01b877,64c7fed44a04f777bb1e18ce,64c80129bb1a734c35a29bc9,down,-1,1,0.2429,2,0,0.6832,9,0,9,0,1,,,,,,,,,,
,,324374,001,2023-07-31_12h47.45.222,arm3_eps,2022.2.5,Win32,60.06727535,64528908f63d6e6beb01b877,64c7fed44a04f777bb1e18ce,64c80129bb1a734c35a29bc9,right,-1,1,0.2429,2,-0.018427753,0.6753,10,0,10,0,1,,,,,,,,,,
,,324374,001,2023-07-31_12h47.45.222,arm3_eps,2022.2.5,Win32,60.06727535,64528908f63d6e6beb01b877,64c7fed44a04f777bb1e18ce,64c80129bb1a734c35a29bc9,right,-1,1,0.2429,2,-0.021411084,5.6239,11,0,11,0,1,,,,,,,,,,
,,324374,001,2023-07-31_12h47.45.222,arm3_eps,2022.2.5,Win32,60.06727535,64528908f63d6e6beb01b877,64c7fed44a04f777bb1e18ce,64c80129bb1a734c35a29bc9,right,-1,1,0.2429,2,-0.02332521,0.4268,12,0,12,0,1,,,,,,,,,,
,,324374,001,2023-07-31_12h47.45.222,arm3_eps,2022.2.5,Win32,60.06727535,64528908f63d6e6beb01b877,64c7fed44a04f777bb1e18ce,64c80129bb1a734c35a29bc9,right,-1,1,0.2429,2,-0.033420619,0.4099,13,0,13,0,1,,,,,,,,,,
,,324374,001,2023-07-31_12h47.45.222,arm3_eps,2022.2.5,Win32,60.06727535,64528908f63d6e6beb01b877,64c7fed44a04f777bb1e18ce,64c80129bb1a734c35a29bc9,right,-1,1,0.2429,2,-0.034846715,0.934,14,0,14,0,1,,,,,,,,,,
,,324374,001,2023-07-31_12h47.45.222,arm3_eps,2022.2.5,Win32,60.06727535,64528908f63d6e6beb01b877,64c7fed44a04f777bb1e18ce,64c80129bb1a734c35a29bc9,right,-1,1,0.2429,2,-0.071005276,0.4672,15,0,15,0,1,,,,,,,,,,
,,324374,001,2023-07-31_12h47.45.222,arm3_eps,2022.2.5,Win32,60.06727535,64528908f63d6e6beb01b877,64c7fed44a04f777bb1e18ce,64c80129bb1a734c35a29bc9,down,-1,1,0.2429,3,0,0.5183,16,0,16,0,1,,,,,,,,,,
,,324374,001,2023-07-31_12h47.45.222,arm3_eps,2022.2.5,Win32,60.06727535,64528908f63d6e6beb01b877,64c7fed44a04f777bb1e18ce,64c80129bb1a734c35a29bc9,right,-1,1,0.2429,3,0.024402941,0.561,17,0,17,0,1,,,,,,,,,,
,,324374,001,2023-07-31_12h47.45.222,arm3_eps,2022.2.5,Win32,60.06727535,64528908f63d6e6beb01b877,64c7fed44a04f777bb1e18ce,64c80129bb1a734c35a29bc9,right,-1,1,0.2429,3,-0.014296086,1.0474,18,0,18,0,1,,,,,,,,,,
,,324374,001,2023-07-31_12h47.45.222,arm3_eps,2022.2.5,Win32,60.06727535,64528908f63d6e6beb01b877,64c7fed44a04f777bb1e18ce,64c80129bb1a734c35a29bc9,right,-1,1,0.2429,3,-0.000119225,0.2336,19,0,19,0,1,,,,,,,,,,
,,324374,001,2023-07-31_12h47.45.222,arm3_eps,2022.2.5,Win32,60.06727535,64528908f63d6e6beb01b877,64c7fed44a04f777bb1e18ce,64c80129bb1a734c35a29bc9,right,-1,1,0.2429,3,-0.037628383,0.2113,20,0,20,0,1,,,,,,,,,,
,,324374,001,2023-07-31_12h47.45.222,arm3_eps,2022.2.5,Win32,60.06727535,64528908f63d6e6beb01b877,64c7fed44a04f777bb1e18ce,64c80129bb1a734c35a29bc9,right,-1,1,0.2429,3,-0.054994596,0.3507,21,0,21,0,1,,,,,,,,,,
,,324374,001,2023-07-31_12h47.45.222,arm3_eps,2022.2.5,Win32,60.06727535,64528908f63d6e6beb01b877,64c7fed44a04f777bb1e18ce,64c80129bb1a734c35a29bc9,right,-1,1,0.2429,3,-0.08125906,0.3018,22,0,22,0,1,,,,,,,,,,
,,324374,001,2023-07-31_12h47.45.222,arm3_eps,2022.2.5,Win32,60.06727535,64528908f63d6e6beb01b877,64c7fed44a04f777bb1e18ce,64c80129bb1a734c35a29bc9,right,-1,1,0.2429,3,-0.101270885,0.3003,23,0,23,0,1,,,,,,,,,,
,,324374,001,2023-07-31_12h47.45.222,arm3_eps,2022.2.5,Win32,60.06727535,64528908f63d6e6beb01b877,64c7fed44a04f777bb1e18ce,64c80129bb1a734c35a29bc9,down,1,1,0.2429,4,0,0.2341,24,0,24,0,1,,,,,,,,,,
,,324374,001,2023-07-31_12h47.45.222,arm3_eps,2022.2.5,Win32,60.06727535,64528908f63d6e6beb01b877,64c7fed44a04f777bb1e18ce,64c80129bb1a734c35a29bc9,right,1,1,0.2429,4,-0.007406052,0.3796,25,0,25,0,1,,,,,,,,,,
,,324374,001,2023-07-31_12h47.45.222,arm3_eps,2022.2.5,Win32,60.06727535,64528908f63d6e6beb01b877,64c7fed44a04f777bb1e18ce,64c80129bb1a734c35a29bc9,right,1,1,0.2429,4,0.001527176,0.4663,26,0,26,0,1,,,,,,,,,,
,,324374,001,2023-07-31_12h47.45.222,arm3_eps,2022.2.5,Win32,60.06727535,64528908f63d6e6beb01b877,64c7fed44a04f777bb1e18ce,64c80129bb1a734c35a29bc9,right,1,1,0.2429,4,0.001859973,0.2376,27,0,27,0,1,,,,,,,,,,
,,324374,001,2023-07-31_12h47.45.222,arm3_eps,2022.2.5,Win32,60.06727535,64528908f63d6e6beb01b877,64c7fed44a04f777bb1e18ce,64c80129bb1a734c35a29bc9,right,1,1,0.2429,4,-0.010224914,0.3174,28,0,28,0,1,,,,,,,,,,
,,324374,001,2023-07-31_12h47.45.222,arm3_eps,2022.2.5,Win32,60.06727535,64528908f63d6e6beb01b877,64c7fed44a04f777bb1e18ce,64c80129bb1a734c35a29bc9,right,1,1,0.2429,4,-0.049681963,0.3841,29,0,29,0,1,,,,,,,,,,
,,324374,001,2023-07-31_12h47.45.222,arm3_eps,2022.2.5,Win32,60.06727535,64528908f63d6e6beb01b877,64c7fed44a04f777bb1e18ce,64c80129bb1a734c35a29bc9,right,1,1,0.2429,4,-0.037053395,0.3675,30,0,30,0,1,,,,,,,,,,
,,324374,001,2023-07-31_12h47.45.222,arm3_eps,2022.2.5,Win32,60.06727535,64528908f63d6e6beb01b877,64c7fed44a04f777bb1e18ce,64c80129bb1a734c35a29bc9,right,1,1,0.2429,4,-0.03247779,0.3241,31,0,31,0,1,,,,,,,,,,
,,324374,001,2023-07-31_12h47.45.222,arm3_eps,2022.2.5,Win32,60.06727535,64528908f63d6e6beb01b877,64c7fed44a04f777bb1e18ce,64c80129bb1a734c35a29bc9,up,1,1,0.2429,5,0,0.5701,32,0,32,0,1,,,,,,,,,,
,,324374,001,2023-07-31_12h47.45.222,arm3_eps,2022.2.5,Win32,60.06727535,64528908f63d6e6beb01b877,64c7fed44a04f777bb1e18ce,64c80129bb1a734c35a29bc9,right,1,1,0.2429,5,-0.004225436,0.3236,33,0,33,0,1,,,,,,,,,,
,,324374,001,2023-07-31_12h47.45.222,arm3_eps,2022.2.5,Win32,60.06727535,64528908f63d6e6beb01b877,64c7fed44a04f777bb1e18ce,64c80129bb1a734c35a29bc9,right,1,1,0.2429,5,-0.003969283,0.4007,34,0,34,0,1,,,,,,,,,,
,,324374,001,2023-07-31_12h47.45.222,arm3_eps,2022.2.5,Win32,60.06727535,64528908f63d6e6beb01b877,64c7fed44a04f777bb1e18ce,64c80129bb1a734c35a29bc9,right,1,1,0.2429,5,0.011103124,0.2831,35,0,35,0,1,,,,,,,,,,
,,324374,001,2023-07-31_12h47.45.222,arm3_eps,2022.2.5,Win32,60.06727535,64528908f63d6e6beb01b877,64c7fed44a04f777bb1e18ce,64c80129bb1a734c35a29bc9,right,1,1,0.2429,5,0.027743783,0.251,36,0,36,0,1,,,,,,,,,,
,,324374,001,2023-07-31_12h47.45.222,arm3_eps,2022.2.5,Win32,60.06727535,64528908f63d6e6beb01b877,64c7fed44a04f777bb1e18ce,64c80129bb1a734c35a29bc9,right,1,1,0.2429,5,0.026761411,0.2488,37,0,37,0,1,,,,,,,,,,
,,324374,001,2023-07-31_12h47.45.222,arm3_eps,2022.2.5,Win32,60.06727535,64528908f63d6e6beb01b877,64c7fed44a04f777bb1e18ce,64c80129bb1a734c35a29bc9,right,1,1,0.2429,5,0.051049701,0.2496,38,0,38,0,1,,,,,,,,,,
,,324374,001,2023-07-31_12h47.45.222,arm3_eps,2022.2.5,Win32,60.06727535,64528908f63d6e6beb01b877,64c7fed44a04f777bb1e18ce,64c80129bb1a734c35a29bc9,right,1,1,0.2429,5,0.046341383,0.2856,39,0,39,0,1,,,,,,,,,,
,,324374,001,2023-07-31_12h47.45.222,arm3_eps,2022.2.5,Win32,60.06727535,64528908f63d6e6beb01b877,64c7fed44a04f777bb1e18ce,64c80129bb1a734c35a29bc9,right,1,1,0.2429,5,0.055450907,0.3068,40,0,40,0,1,,,,,,,,,,
,,324374,001,2023-07-31_12h47.45.222,arm3_eps,2022.2.5,Win32,60.06727535,64528908f63d6e6beb01b877,64c7fed44a04f777bb1e18ce,64c80129bb1a734c35a29bc9,right,1,1,0.2429,5,0.066890777,0.2676,41,0,41,0,1,,,,,,,,,,
,,324374,001,2023-07-31_12h47.45.222,arm3_eps,2022.2.5,Win32,60.06727535,64528908f63d6e6beb01b877,64c7fed44a04f777bb1e18ce,64c80129bb1a734c35a29bc9,right,1,1,0.2429,5,0.076614614,0.3377,42,0,42,0,1,,,,,,,,,,
,,324374,001,2023-07-31_12h47.45.222,arm3_eps,2022.2.5,Win32,60.06727535,64528908f63d6e6beb01b877,64c7fed44a04f777bb1e18ce,64c80129bb1a734c35a29bc9,up,-1,1,0.2429,6,0,0.0829,43,0,43,0,1,,,,,,,,,,
,,324374,001,2023-07-31_12h47.45.222,arm3_eps,2022.2.5,Win32,60.06727535,64528908f63d6e6beb01b877,64c7fed44a04f777bb1e18ce,64c80129bb1a734c35a29bc9,right,-1,1,0.2429,6,-0.015519314,0.4155,44,0,44,0,1,,,,,,,,,,
,,324374,001,2023-07-31_12h47.45.222,arm3_eps,2022.2.5,Win32,60.06727535,64528908f63d6e6beb01b877,64c7fed44a04f777bb1e18ce,64c80129bb1a734c35a29bc9,right,-1,1,0.2429,6,-0.016680681,0.4505,45,0,45,0,1,,,,,,,,,,
,,324374,001,2023-07-31_12h47.45.222,arm3_eps,2022.2.5,Win32,60.06727535,64528908f63d6e6beb01b877,64c7fed44a04f777bb1e18ce,64c80129bb1a734c35a29bc9,right,-1,1,0.2429,6,-0.040582672,0.2035,46,0,46,0,1,,,,,,,,,,
,,324374,001,2023-07-31_12h47.45.222,arm3_eps,2022.2.5,Win32,60.06727535,64528908f63d6e6beb01b877,64c7fed44a04f777bb1e18ce,64c80129bb1a734c35a29bc9,right,-1,1,0.2429,6,-0.028505805,0.2174,47,0,47,0,1,,,,,,,,,,
,,324374,001,2023-07-31_12h47.45.222,arm3_eps,2022.2.5,Win32,60.06727535,64528908f63d6e6beb01b877,64c7fed44a04f777bb1e18ce,64c80129bb1a734c35a29bc9,right,-1,1,0.2429,6,-0.028295367,0.2177,48,0,48,0,1,,,,,,,,,,
,,324374,001,2023-07-31_12h47.45.222,arm3_eps,2022.2.5,Win32,60.06727535,64528908f63d6e6beb01b877,64c7fed44a04f777bb1e18ce,64c80129bb1a734c35a29bc9,right,-1,1,0.2429,6,-0.054367908,0.2335,49,0,49,0,1,,,,,,,,,,
space,25.2986,324374,001,2023-07-31_12h47.45.222,arm3_eps,2022.2.5,Win32,60.06727535,64528908f63d6e6beb01b877,64c7fed44a04f777bb1e18ce,64c80129bb1a734c35a29bc9,,,,,,,,,,,,,,,,,,,,,,
space,21.2667,324374,001,2023-07-31_12h47.45.222,arm3_eps,2022.2.5,Win32,60.06727535,64528908f63d6e6beb01b877,64c7fed44a04f777bb1e18ce,64c80129bb1a734c35a29bc9,,,,,,,,,,,,,,,,,,,,,,
space,341.5307,324374,001,2023-07-31_12h47.45.222,arm3_eps,2022.2.5,Win32,60.06727535,64528908f63d6e6beb01b877,64c7fed44a04f777bb1e18ce,64c80129bb1a734c35a29bc9,,,,,,,,,,,,,,,,,,,,,,
space,3.9976,324374,001,2023-07-31_12h47.45.222,arm3_eps,2022.2.5,Win32,60.06727535,64528908f63d6e6beb01b877,64c7fed44a04f777bb1e18ce,64c80129bb1a734c35a29bc9,,,,,,,,,,,,,,,,,,,,,,
space,94.1989,324374,001,2023-07-31_12h47.45.222,arm3_eps,2022.2.5,Win32,60.06727535,64528908f63d6e6beb01b877,64c7fed44a04f777bb1e18ce,64c80129bb1a734c35a29bc9,,,,,,,,,,,,,,,,,,,,,,
space,1.4997,324374,001,2023-07-31_12h47.45.222,arm3_eps,2022.2.5,Win32,60.06727535,64528908f63d6e6beb01b877,64c7fed44a04f777bb1e18ce,64c80129bb1a734c35a29bc9,,,,,,,,,,,,,,,,,,,,,,
,,324374,001,2023-07-31_12h47.45.222,arm3_eps,2022.2.5,Win32,60.06727535,64528908f63d6e6beb01b877,64c7fed44a04f777bb1e18ce,64c80129bb1a734c35a29bc9,right,-1,0.75,0.2429,0,-0.021486213,1.7322,0,0,0,0,1,,,,,,,,,,
,,324374,001,2023-07-31_12h47.45.222,arm3_eps,2022.2.5,Win32,60.06727535,64528908f63d6e6beb01b877,64c7fed44a04f777bb1e18ce,64c80129bb1a734c35a29bc9,right,-1,0.75,0.2429,0,-0.034222907,0.3817,1,0,1,0,1,,,,,,,,,,
,,324374,001,2023-07-31_12h47.45.222,arm3_eps,2022.2.5,Win32,60.06727535,64528908f63d6e6beb01b877,64c7fed44a04f777bb1e18ce,64c80129bb1a734c35a29bc9,down,-1,0.75,0.2429,1,0,1.44,2,0,2,0,1,,,,,,,,,,
,,324374,001,2023-07-31_12h47.45.222,arm3_eps,2022.2.5,Win32,60.06727535,64528908f63d6e6beb01b877,64c7fed44a04f777bb1e18ce,64c80129bb1a734c35a29bc9,right,-1,0.75,0.2429,1,-0.0021512,2.9084,3,0,3,0,1,,,,,,,,,,
,,324374,001,2023-07-31_12h47.45.222,arm3_eps,2022.2.5,Win32,60.06727535,64528908f63d6e6beb01b877,64c7fed44a04f777bb1e18ce,64c80129bb1a734c35a29bc9,up,1,0.75,0.2429,0,0,1.137,4,0,4,0,1,,,,,,,,,,
,,324374,001,2023-07-31_12h47.45.222,arm3_eps,2022.2.5,Win32,60.06727535,64528908f63d6e6beb01b877,64c7fed44a04f777bb1e18ce,64c80129bb1a734c35a29bc9,right,1,0.75,0.2429,0,0.007904154,1.2255,5,0,5,0,1,,,,,,,,,,
,,324374,001,2023-07-31_12h47.45.222,arm3_eps,2022.2.5,Win32,60.06727535,64528908f63d6e6beb01b877,64c7fed44a04f777bb1e18ce,64c80129bb1a734c35a29bc9,right,1,0.75,0.2429,0,-0.016854929,0.2144,6,0,6,0,1,,,,,,,,,,
,,324374,001,2023-07-31_12h47.45.222,arm3_eps,2022.2.5,Win32,60.06727535,64528908f63d6e6beb01b877,64c7fed44a04f777bb1e18ce,64c80129bb1a734c35a29bc9,right,1,0.75,0.2429,0,0.011329506,0.3527,7,0,7,0,1,,,,,,,,,,
,,324374,001,2023-07-31_12h47.45.222,arm3_eps,2022.2.5,Win32,60.06727535,64528908f63d6e6beb01b877,64c7fed44a04f777bb1e18ce,64c80129bb1a734c35a29bc9,right,1,0.75,0.2429,0,0.03886121,0.3319,8,0,8,0,1,,,,,,,,,,
,,324374,001,2023-07-31_12h47.45.222,arm3_eps,2022.2.5,Win32,60.06727535,64528908f63d6e6beb01b877,64c7fed44a04f777bb1e18ce,64c80129bb1a734c35a29bc9,up,1,0.75,0.2429,1,0,0.2375,9,0,9,0,1,,,,,,,,,,
,,324374,001,2023-07-31_12h47.45.222,arm3_eps,2022.2.5,Win32,60.06727535,64528908f63d6e6beb01b877,64c7fed44a04f777bb1e18ce,64c80129bb1a734c35a29bc9,right,1,0.75,0.2429,1,-0.006343553,0.66,10,0,10,0,1,,,,,,,,,,
,,324374,001,2023-07-31_12h47.45.222,arm3_eps,2022.2.5,Win32,60.06727535,64528908f63d6e6beb01b877,64c7fed44a04f777bb1e18ce,64c80129bb1a734c35a29bc9,right,1,0.75,0.2429,1,0.009044041,1.4187,11,0,11,0,1,,,,,,,,,,
,,324374,001,2023-07-31_12h47.45.222,arm3_eps,2022.2.5,Win32,60.06727535,64528908f63d6e6beb01b877,64c7fed44a04f777bb1e18ce,64c80129bb1a734c35a29bc9,right,1,0.75,0.2429,1,0.039759425,0.4669,12,0,12,0,1,,,,,,,,,,
,,324374,001,2023-07-31_12h47.45.222,arm3_eps,2022.2.5,Win32,60.06727535,64528908f63d6e6beb01b877,64c7fed44a04f777bb1e18ce,64c80129bb1a734c35a29bc9,right,1,0.75,0.2429,1,0.040773038,0.3234,13,0,13,0,1,,,,,,,,,,
,,324374,001,2023-07-31_12h47.45.222,arm3_eps,2022.2.5,Win32,60.06727535,64528908f63d6e6beb01b877,64c7fed44a04f777bb1e18ce,64c80129bb1a734c35a29bc9,right,1,0.75,0.2429,1,0.063471732,0.3511,14,0,14,0,1,,,,,,,,,,
,,324374,001,2023-07-31_12h47.45.222,arm3_eps,2022.2.5,Win32,60.06727535,64528908f63d6e6beb01b877,64c7fed44a04f777bb1e18ce,64c80129bb1a734c35a29bc9,up,-1,0.75,0.2429,2,0,0.6163,15,0,15,0,1,,,,,,,,,,
,,324374,001,2023-07-31_12h47.45.222,arm3_eps,2022.2.5,Win32,60.06727535,64528908f63d6e6beb01b877,64c7fed44a04f777bb1e18ce,64c80129bb1a734c35a29bc9,right,-1,0.75,0.2429,2,-0.008952859,0.3909,16,0,16,0,1,,,,,,,,,,
,,324374,001,2023-07-31_12h47.45.222,arm3_eps,2022.2.5,Win32,60.06727535,64528908f63d6e6beb01b877,64c7fed44a04f777bb1e18ce,64c80129bb1a734c35a29bc9,right,-1,0.75,0.2429,2,-0.02388558,0.2961,17,0,17,0,1,,,,,,,,,,
,,324374,001,2023-07-31_12h47.45.222,arm3_eps,2022.2.5,Win32,60.06727535,64528908f63d6e6beb01b877,64c7fed44a04f777bb1e18ce,64c80129bb1a734c35a29bc9,right,-1,0.75,0.2429,2,-0.025950521,0.2913,18,0,18,0,1,,,,,,,,,,
,,324374,001,2023-07-31_12h47.45.222,arm3_eps,2022.2.5,Win32,60.06727535,64528908f63d6e6beb01b877,64c7fed44a04f777bb1e18ce,64c80129bb1a734c35a29bc9,right,-1,0.75,0.2429,2,-0.02440768,0.2517,19,0,19,0,1,,,,,,,,,,
,,324374,001,2023-07-31_12h47.45.222,arm3_eps,2022.2.5,Win32,60.06727535,64528908f63d6e6beb01b877,64c7fed44a04f777bb1e18ce,64c80129bb1a734c35a29bc9,right,-1,0.75,0.2429,2,-0.004726247,0.3544,20,0,20,0,1,,,,,,,,,,
,,324374,001,2023-07-31_12h47.45.222,arm3_eps,2022.2.5,Win32,60.06727535,64528908f63d6e6beb01b877,64c7fed44a04f777bb1e18ce,64c80129bb1a734c35a29bc9,right,-1,0.75,0.2429,2,-0.000202876,0.3195,21,0,21,0,1,,,,,,,,,,
,,324374,001,2023-07-31_12h47.45.222,arm3_eps,2022.2.5,Win32,60.06727535,64528908f63d6e6beb01b877,64c7fed44a04f777bb1e18ce,64c80129bb1a734c35a29bc9,up,1,0.75,0.2429,2,0,0.5488,22,0,22,0,1,,,,,,,,,,
,,324374,001,2023-07-31_12h47.45.222,arm3_eps,2022.2.5,Win32,60.06727535,64528908f63d6e6beb01b877,64c7fed44a04f777bb1e18ce,64c80129bb1a734c35a29bc9,right,1,0.75,0.2429,2,0.044468751,0.3635,23,0,23,0,1,,,,,,,,,,
,,324374,001,2023-07-31_12h47.45.222,arm3_eps,2022.2.5,Win32,60.06727535,64528908f63d6e6beb01b877,64c7fed44a04f777bb1e18ce,64c80129bb1a734c35a29bc9,right,1,0.75,0.2429,2,0.062155296,0.5985,24,0,24,0,1,,,,,,,,,,
,,324374,001,2023-07-31_12h47.45.222,arm3_eps,2022.2.5,Win32,60.06727535,64528908f63d6e6beb01b877,64c7fed44a04f777bb1e18ce,64c80129bb1a734c35a29bc9,right,1,0.75,0.2429,2,0.104113276,0.1821,25,0,25,0,1,,,,,,,,,,
,,324374,001,2023-07-31_12h47.45.222,arm3_eps,2022.2.5,Win32,60.06727535,64528908f63d6e6beb01b877,64c7fed44a04f777bb1e18ce,64c80129bb1a734c35a29bc9,right,1,0.75,0.2429,2,0.139278468,0.1983,26,0,26,0,1,,,,,,,,,,
,,324374,001,2023-07-31_12h47.45.222,arm3_eps,2022.2.5,Win32,60.06727535,64528908f63d6e6beb01b877,64c7fed44a04f777bb1e18ce,64c80129bb1a734c35a29bc9,up,1,0.75,0.2429,3,0,0.35,27,0,27,0,1,,,,,,,,,,
,,324374,001,2023-07-31_12h47.45.222,arm3_eps,2022.2.5,Win32,60.06727535,64528908f63d6e6beb01b877,64c7fed44a04f777bb1e18ce,64c80129bb1a734c35a29bc9,right,1,0.75,0.2429,3,-0.002502916,0.2931,28,0,28,0,1,,,,,,,,,,
,,324374,001,2023-07-31_12h47.45.222,arm3_eps,2022.2.5,Win32,60.06727535,64528908f63d6e6beb01b877,64c7fed44a04f777bb1e18ce,64c80129bb1a734c35a29bc9,right,1,0.75,0.2429,3,0.004102604,0.2476,29,0,29,0,1,,,,,,,,,,
,,324374,001,2023-07-31_12h47.45.222,arm3_eps,2022.2.5,Win32,60.06727535,64528908f63d6e6beb01b877,64c7fed44a04f777bb1e18ce,64c80129bb1a734c35a29bc9,right,1,0.75,0.2429,3,0.012510546,0.2171,30,0,30,0,1,,,,,,,,,,
,,324374,001,2023-07-31_12h47.45.222,arm3_eps,2022.2.5,Win32,60.06727535,64528908f63d6e6beb01b877,64c7fed44a04f777bb1e18ce,64c80129bb1a734c35a29bc9,right,1,0.75,0.2429,3,0.026868095,0.2244,31,0,31,0,1,,,,,,,,,,
,,324374,001,2023-07-31_12h47.45.222,arm3_eps,2022.2.5,Win32,60.06727535,64528908f63d6e6beb01b877,64c7fed44a04f777bb1e18ce,64c80129bb1a734c35a29bc9,right,1,0.75,0.2429,3,0.018369014,0.2018,32,0,32,0,1,,,,,,,,,,
,,324374,001,2023-07-31_12h47.45.222,arm3_eps,2022.2.5,Win32,60.06727535,64528908f63d6e6beb01b877,64c7fed44a04f777bb1e18ce,64c80129bb1a734c35a29bc9,right,1,0.75,0.2429,3,0.053333145,0.2498,33,0,33,0,1,,,,,,,,,,
,,324374,001,2023-07-31_12h47.45.222,arm3_eps,2022.2.5,Win32,60.06727535,64528908f63d6e6beb01b877,64c7fed44a04f777bb1e18ce,64c80129bb1a734c35a29bc9,right,1,0.75,0.2429,3,0.083256678,0.2897,34,0,34,0,1,,,,,,,,,,
,,324374,001,2023-07-31_12h47.45.222,arm3_eps,2022.2.5,Win32,60.06727535,64528908f63d6e6beb01b877,64c7fed44a04f777bb1e18ce,64c80129bb1a734c35a29bc9,up,1,0.75,0.2429,4,0,0.2389,35,0,35,0,1,,,,,,,,,,
,,324374,001,2023-07-31_12h47.45.222,arm3_eps,2022.2.5,Win32,60.06727535,64528908f63d6e6beb01b877,64c7fed44a04f777bb1e18ce,64c80129bb1a734c35a29bc9,right,1,0.75,0.2429,4,-0.007640867,0.2644,36,0,36,0,1,,,,,,,,,,
,,324374,001,2023-07-31_12h47.45.222,arm3_eps,2022.2.5,Win32,60.06727535,64528908f63d6e6beb01b877,64c7fed44a04f777bb1e18ce,64c80129bb1a734c35a29bc9,right,1,0.75,0.2429,4,0.011281648,0.2151,37,0,37,0,1,,,,,,,,,,
,,324374,001,2023-07-31_12h47.45.222,arm3_eps,2022.2.5,Win32,60.06727535,64528908f63d6e6beb01b877,64c7fed44a04f777bb1e18ce,64c80129bb1a734c35a29bc9,right,1,0.75,0.2429,4,0.016836329,0.2144,38,0,38,0,1,,,,,,,,,,
,,324374,001,2023-07-31_12h47.45.222,arm3_eps,2022.2.5,Win32,60.06727535,64528908f63d6e6beb01b877,64c7fed44a04f777bb1e18ce,64c80129bb1a734c35a29bc9,right,1,0.75,0.2429,4,0.010074693,0.1916,39,0,39,0,1,,,,,,,,,,
,,324374,001,2023-07-31_12h47.45.222,arm3_eps,2022.2.5,Win32,60.06727535,64528908f63d6e6beb01b877,64c7fed44a04f777bb1e18ce,64c80129bb1a734c35a29bc9,right,1,0.75,0.2429,4,-0.006593157,0.232,40,0,40,0,1,,,,,,,,,,
,,324374,001,2023-07-31_12h47.45.222,arm3_eps,2022.2.5,Win32,60.06727535,64528908f63d6e6beb01b877,64c7fed44a04f777bb1e18ce,64c80129bb1a734c35a29bc9,up,1,0.75,0.2429,5,0,1.7383,41,0,41,0,1,,,,,,,,,,
,,324374,001,2023-07-31_12h47.45.222,arm3_eps,2022.2.5,Win32,60.06727535,64528908f63d6e6beb01b877,64c7fed44a04f777bb1e18ce,64c80129bb1a734c35a29bc9,right,1,0.75,0.2429,5,0.034563994,0.4617,42,0,42,0,1,,,,,,,,,,
,,324374,001,2023-07-31_12h47.45.222,arm3_eps,2022.2.5,Win32,60.06727535,64528908f63d6e6beb01b877,64c7fed44a04f777bb1e18ce,64c80129bb1a734c35a29bc9,right,1,0.75,0.2429,5,0.012684438,0.6137,43,0,43,0,1,,,,,,,,,,
,,324374,001,2023-07-31_12h47.45.222,arm3_eps,2022.2.5,Win32,60.06727535,64528908f63d6e6beb01b877,64c7fed44a04f777bb1e18ce,64c80129bb1a734c35a29bc9,right,1,0.75,0.2429,5,0.048212105,0.1987,44,0,44,0,1,,,,,,,,,,
,,324374,001,2023-07-31_12h47.45.222,arm3_eps,2022.2.5,Win32,60.06727535,64528908f63d6e6beb01b877,64c7fed44a04f777bb1e18ce,64c80129bb1a734c35a29bc9,up,1,0.75,0.2429,5,0,1.0002,45,0,45,0,1,,,,,,,,,,
,,324374,001,2023-07-31_12h47.45.222,arm3_eps,2022.2.5,Win32,60.06727535,64528908f63d6e6beb01b877,64c7fed44a04f777bb1e18ce,64c80129bb1a734c35a29bc9,right,1,0.75,0.2429,5,0.022653108,0.9264,46,0,46,0,1,,,,,,,,,,
,,324374,001,2023-07-31_12h47.45.222,arm3_eps,2022.2.5,Win32,60.06727535,64528908f63d6e6beb01b877,64c7fed44a04f777bb1e18ce,64c80129bb1a734c35a29bc9,right,1,0.75,0.2429,5,0.02663795,0.2026,47,0,47,0,1,,,,,,,,,,
,,324374,001,2023-07-31_12h47.45.222,arm3_eps,2022.2.5,Win32,60.06727535,64528908f63d6e6beb01b877,64c7fed44a04f777bb1e18ce,64c80129bb1a734c35a29bc9,right,1,0.75,0.2429,5,0.031156945,0.1855,48,0,48,0,1,,,,,,,,,,
,,324374,001,2023-07-31_12h47.45.222,arm3_eps,2022.2.5,Win32,60.06727535,64528908f63d6e6beb01b877,64c7fed44a04f777bb1e18ce,64c80129bb1a734c35a29bc9,right,1,0.75,0.2429,5,0.037378443,0.398,49,0,49,0,1,,,,,,,,,,
space,24.4818,324374,001,2023-07-31_12h47.45.222,arm3_eps,2022.2.5,Win32,60.06727535,64528908f63d6e6beb01b877,64c7fed44a04f777bb1e18ce,64c80129bb1a734c35a29bc9,,,,,,,,,,,,,,,,,,,,,,
space,16.9523,324374,001,2023-07-31_12h47.45.222,arm3_eps,2022.2.5,Win32,60.06727535,64528908f63d6e6beb01b877,64c7fed44a04f777bb1e18ce,64c80129bb1a734c35a29bc9,,,,,,,,,,,,,,,,,,,,,,
space,0.9333,324374,001,2023-07-31_12h47.45.222,arm3_eps,2022.2.5,Win32,60.06727535,64528908f63d6e6beb01b877,64c7fed44a04f777bb1e18ce,64c80129bb1a734c35a29bc9,,,,,,,,,,,,,,,,,,,,,,
,,324374,001,2023-07-31_12h47.45.222,arm3_eps,2022.2.5,Win32,60.06727535,64528908f63d6e6beb01b877,64c7fed44a04f777bb1e18ce,64c80129bb1a734c35a29bc9,up,1,0.75,0.05,1,0,2.1031,0,0,0,0,1,,,,,,,,,,
,,324374,001,2023-07-31_12h47.45.222,arm3_eps,2022.2.5,Win32,60.06727535,64528908f63d6e6beb01b877,64c7fed44a04f777bb1e18ce,64c80129bb1a734c35a29bc9,up,1,0.75,0.05,1,0,1.3073,1,0,1,0,1,,,,,,,,,,
,,324374,001,2023-07-31_12h47.45.222,arm3_eps,2022.2.5,Win32,60.06727535,64528908f63d6e6beb01b877,64c7fed44a04f777bb1e18ce,64c80129bb1a734c35a29bc9,up,1,0.75,0.05,2,0,1.0754,2,0,2,0,1,,,,,,,,,,
,,324374,001,2023-07-31_12h47.45.222,arm3_eps,2022.2.5,Win32,60.06727535,64528908f63d6e6beb01b877,64c7fed44a04f777bb1e18ce,64c80129bb1a734c35a29bc9,up,1,0.75,0.05,3,0,1.2987,3,0,3,0,1,,,,,,,,,,
,,324374,001,2023-07-31_12h47.45.222,arm3_eps,2022.2.5,Win32,60.06727535,64528908f63d6e6beb01b877,64c7fed44a04f777bb1e18ce,64c80129bb1a734c35a29bc9,right,1,0.75,0.05,3,-0.000453372,2.3099,4,0,4,0,1,,,,,,,,,,
,,324374,001,2023-07-31_12h47.45.222,arm3_eps,2022.2.5,Win32,60.06727535,64528908f63d6e6beb01b877,64c7fed44a04f777bb1e18ce,64c80129bb1a734c35a29bc9,right,1,0.75,0.05,3,0.003939505,0.5532,5,0,5,0,1,,,,,,,,,,
,,324374,001,2023-07-31_12h47.45.222,arm3_eps,2022.2.5,Win32,60.06727535,64528908f63d6e6beb01b877,64c7fed44a04f777bb1e18ce,64c80129bb1a734c35a29bc9,right,1,0.75,0.05,3,-0.001399482,0.5491,6,0,6,0,1,,,,,,,,,,
,,324374,001,2023-07-31_12h47.45.222,arm3_eps,2022.2.5,Win32,60.06727535,64528908f63d6e6beb01b877,64c7fed44a04f777bb1e18ce,64c80129bb1a734c35a29bc9,right,1,0.75,0.05,3,-0.002657853,0.4516,7,0,7,0,1,,,,,,,,,,
,,324374,001,2023-07-31_12h47.45.222,arm3_eps,2022.2.5,Win32,60.06727535,64528908f63d6e6beb01b877,64c7fed44a04f777bb1e18ce,64c80129bb1a734c35a29bc9,right,1,0.75,0.05,3,0.043704819,0.4554,8,0,8,0,1,,,,,,,,,,
,,324374,001,2023-07-31_12h47.45.222,arm3_eps,2022.2.5,Win32,60.06727535,64528908f63d6e6beb01b877,64c7fed44a04f777bb1e18ce,64c80129bb1a734c35a29bc9,up,1,0.75,0.05,3,0,0.4192,9,0,9,0,1,,,,,,,,,,
,,324374,001,2023-07-31_12h47.45.222,arm3_eps,2022.2.5,Win32,60.06727535,64528908f63d6e6beb01b877,64c7fed44a04f777bb1e18ce,64c80129bb1a734c35a29bc9,right,1,0.75,0.05,3,-0.006088867,3.0611,10,0,10,0,1,,,,,,,,,,
,,324374,001,2023-07-31_12h47.45.222,arm3_eps,2022.2.5,Win32,60.06727535,64528908f63d6e6beb01b877,64c7fed44a04f777bb1e18ce,64c80129bb1a734c35a29bc9,right,1,0.75,0.05,3,-0.00094024,0.2939,11,0,11,0,1,,,,,,,,,,
,,324374,001,2023-07-31_12h47.45.222,arm3_eps,2022.2.5,Win32,60.06727535,64528908f63d6e6beb01b877,64c7fed44a04f777bb1e18ce,64c80129bb1a734c35a29bc9,right,1,0.75,0.05,3,0.00459005,0.2174,12,0,12,0,1,,,,,,,,,,
,,324374,001,2023-07-31_12h47.45.222,arm3_eps,2022.2.5,Win32,60.06727535,64528908f63d6e6beb01b877,64c7fed44a04f777bb1e18ce,64c80129bb1a734c35a29bc9,right,1,0.75,0.05,3,0.035407056,0.284,13,0,13,0,1,,,,,,,,,,
,,324374,001,2023-07-31_12h47.45.222,arm3_eps,2022.2.5,Win32,60.06727535,64528908f63d6e6beb01b877,64c7fed44a04f777bb1e18ce,64c80129bb1a734c35a29bc9,right,1,0.75,0.05,3,0.043282582,0.3006,14,0,14,0,1,,,,,,,,,,
,,324374,001,2023-07-31_12h47.45.222,arm3_eps,2022.2.5,Win32,60.06727535,64528908f63d6e6beb01b877,64c7fed44a04f777bb1e18ce,64c80129bb1a734c35a29bc9,up,1,0.75,0.05,3,0,0.3336,15,0,15,0,1,,,,,,,,,,
,,324374,001,2023-07-31_12h47.45.222,arm3_eps,2022.2.5,Win32,60.06727535,64528908f63d6e6beb01b877,64c7fed44a04f777bb1e18ce,64c80129bb1a734c35a29bc9,right,1,0.75,0.05,3,0.010561007,1.0013,16,0,16,0,1,,,,,,,,,,
,,324374,001,2023-07-31_12h47.45.222,arm3_eps,2022.2.5,Win32,60.06727535,64528908f63d6e6beb01b877,64c7fed44a04f777bb1e18ce,64c80129bb1a734c35a29bc9,right,1,0.75,0.05,3,0.031730389,0.2348,17,0,17,0,1,,,,,,,,,,
,,324374,001,2023-07-31_12h47.45.222,arm3_eps,2022.2.5,Win32,60.06727535,64528908f63d6e6beb01b877,64c7fed44a04f777bb1e18ce,64c80129bb1a734c35a29bc9,right,1,0.75,0.05,3,0.056403479,0.1844,18,0,18,0,1,,,,,,,,,,
,,324374,001,2023-07-31_12h47.45.222,arm3_eps,2022.2.5,Win32,60.06727535,64528908f63d6e6beb01b877,64c7fed44a04f777bb1e18ce,64c80129bb1a734c35a29bc9,right,1,0.75,0.05,3,0.094846592,0.1677,19,0,19,0,1,,,,,,,,,,
,,324374,001,2023-07-31_12h47.45.222,arm3_eps,2022.2.5,Win32,60.06727535,64528908f63d6e6beb01b877,64c7fed44a04f777bb1e18ce,64c80129bb1a734c35a29bc9,up,1,0.75,0.05,4,0,0.1846,20,0,20,0,1,,,,,,,,,,
,,324374,001,2023-07-31_12h47.45.222,arm3_eps,2022.2.5,Win32,60.06727535,64528908f63d6e6beb01b877,64c7fed44a04f777bb1e18ce,64c80129bb1a734c35a29bc9,right,1,0.75,0.05,4,0.001433937,0.8993,21,0,21,0,1,,,,,,,,,,
,,324374,001,2023-07-31_12h47.45.222,arm3_eps,2022.2.5,Win32,60.06727535,64528908f63d6e6beb01b877,64c7fed44a04f777bb1e18ce,64c80129bb1a734c35a29bc9,right,1,0.75,0.05,4,-0.020026371,0.1996,22,0,22,0,1,,,,,,,,,,
,,324374,001,2023-07-31_12h47.45.222,arm3_eps,2022.2.5,Win32,60.06727535,64528908f63d6e6beb01b877,64c7fed44a04f777bb1e18ce,64c80129bb1a734c35a29bc9,right,1,0.75,0.05,4,0.001945061,0.1838,23,0,23,0,1,,,,,,,,,,
,,324374,001,2023-07-31_12h47.45.222,arm3_eps,2022.2.5,Win32,60.06727535,64528908f63d6e6beb01b877,64c7fed44a04f777bb1e18ce,64c80129bb1a734c35a29bc9,right,1,0.75,0.05,4,-0.008915082,0.7501,24,0,24,0,1,,,,,,,,,,
,,324374,001,2023-07-31_12h47.45.222,arm3_eps,2022.2.5,Win32,60.06727535,64528908f63d6e6beb01b877,64c7fed44a04f777bb1e18ce,64c80129bb1a734c35a29bc9,right,1,0.75,0.05,4,-0.005827646,0.6832,25,0,25,0,1,,,,,,,,,,
,,324374,001,2023-07-31_12h47.45.222,arm3_eps,2022.2.5,Win32,60.06727535,64528908f63d6e6beb01b877,64c7fed44a04f777bb1e18ce,64c80129bb1a734c35a29bc9,up,1,0.75,0.05,4,0,0.5829,26,0,26,0,1,,,,,,,,,,
,,324374,001,2023-07-31_12h47.45.222,arm3_eps,2022.2.5,Win32,60.06727535,64528908f63d6e6beb01b877,64c7fed44a04f777bb1e18ce,64c80129bb1a734c35a29bc9,right,1,0.75,0.05,4,-0.012743878,0.6005,27,0,27,0,1,,,,,,,,,,
,,324374,001,2023-07-31_12h47.45.222,arm3_eps,2022.2.5,Win32,60.06727535,64528908f63d6e6beb01b877,64c7fed44a04f777bb1e18ce,64c80129bb1a734c35a29bc9,right,1,0.75,0.05,4,0.017775533,0.284,28,0,28,0,1,,,,,,,,,,
,,324374,001,2023-07-31_12h47.45.222,arm3_eps,2022.2.5,Win32,60.06727535,64528908f63d6e6beb01b877,64c7fed44a04f777bb1e18ce,64c80129bb1a734c35a29bc9,right,1,0.75,0.05,4,0.066931889,0.2001,29,0,29,0,1,,,,,,,,,,
,,324374,001,2023-07-31_12h47.45.222,arm3_eps,2022.2.5,Win32,60.06727535,64528908f63d6e6beb01b877,64c7fed44a04f777bb1e18ce,64c80129bb1a734c35a29bc9,right,1,0.75,0.05,4,0.052337975,0.9677,30,0,30,0,1,,,,,,,,,,
,,324374,001,2023-07-31_12h47.45.222,arm3_eps,2022.2.5,Win32,60.06727535,64528908f63d6e6beb01b877,64c7fed44a04f777bb1e18ce,64c80129bb1a734c35a29bc9,right,1,0.75,0.05,4,0.059377967,0.2337,31,0,31,0,1,,,,,,,,,,
,,324374,001,2023-07-31_12h47.45.222,arm3_eps,2022.2.5,Win32,60.06727535,64528908f63d6e6beb01b877,64c7fed44a04f777bb1e18ce,64c80129bb1a734c35a29bc9,up,1,0.75,0.05,5,0,0.3509,32,0,32,0,1,,,,,,,,,,
,,324374,001,2023-07-31_12h47.45.222,arm3_eps,2022.2.5,Win32,60.06727535,64528908f63d6e6beb01b877,64c7fed44a04f777bb1e18ce,64c80129bb1a734c35a29bc9,right,1,0.75,0.05,5,0.002004836,0.5838,33,0,33,0,1,,,,,,,,,,
,,324374,001,2023-07-31_12h47.45.222,arm3_eps,2022.2.5,Win32,60.06727535,64528908f63d6e6beb01b877,64c7fed44a04f777bb1e18ce,64c80129bb1a734c35a29bc9,right,1,0.75,0.05,5,0.006781355,0.3508,34,0,34,0,1,,,,,,,,,,
,,324374,001,2023-07-31_12h47.45.222,arm3_eps,2022.2.5,Win32,60.06727535,64528908f63d6e6beb01b877,64c7fed44a04f777bb1e18ce,64c80129bb1a734c35a29bc9,right,1,0.75,0.05,5,0.020404638,0.217,35,0,35,0,1,,,,,,,,,,
,,324374,001,2023-07-31_12h47.45.222,arm3_eps,2022.2.5,Win32,60.06727535,64528908f63d6e6beb01b877,64c7fed44a04f777bb1e18ce,64c80129bb1a734c35a29bc9,right,1,0.75,0.05,5,0.030767357,0.1513,36,0,36,0,1,,,,,,,,,,
,,324374,001,2023-07-31_12h47.45.222,arm3_eps,2022.2.5,Win32,60.06727535,64528908f63d6e6beb01b877,64c7fed44a04f777bb1e18ce,64c80129bb1a734c35a29bc9,up,1,0.75,0.05,6,0,0.2342,37,0,37,0,1,,,,,,,,,,
,,324374,001,2023-07-31_12h47.45.222,arm3_eps,2022.2.5,Win32,60.06727535,64528908f63d6e6beb01b877,64c7fed44a04f777bb1e18ce,64c80129bb1a734c35a29bc9,right,1,0.75,0.05,6,0.004254413,0.3318,38,0,38,0,1,,,,,,,,,,
,,324374,001,2023-07-31_12h47.45.222,arm3_eps,2022.2.5,Win32,60.06727535,64528908f63d6e6beb01b877,64c7fed44a04f777bb1e18ce,64c80129bb1a734c35a29bc9,right,1,0.75,0.05,6,-0.002463137,0.5505,39,0,39,0,1,,,,,,,,,,
,,324374,001,2023-07-31_12h47.45.222,arm3_eps,2022.2.5,Win32,60.06727535,64528908f63d6e6beb01b877,64c7fed44a04f777bb1e18ce,64c80129bb1a734c35a29bc9,right,1,0.75,0.05,6,0.04313571,0.2505,40,0,40,0,1,,,,,,,,,,
,,324374,001,2023-07-31_12h47.45.222,arm3_eps,2022.2.5,Win32,60.06727535,64528908f63d6e6beb01b877,64c7fed44a04f777bb1e18ce,64c80129bb1a734c35a29bc9,right,1,0.75,0.05,6,0.048139233,0.3166,41,0,41,0,1,,,,,,,,,,
,,324374,001,2023-07-31_12h47.45.222,arm3_eps,2022.2.5,Win32,60.06727535,64528908f63d6e6beb01b877,64c7fed44a04f777bb1e18ce,64c80129bb1a734c35a29bc9,right,1,0.75,0.05,6,0.056177022,0.2673,42,0,42,0,1,,,,,,,,,,
,,324374,001,2023-07-31_12h47.45.222,arm3_eps,2022.2.5,Win32,60.06727535,64528908f63d6e6beb01b877,64c7fed44a04f777bb1e18ce,64c80129bb1a734c35a29bc9,up,1,0.75,0.05,6,0,0.2492,43,0,43,0,1,,,,,,,,,,
,,324374,001,2023-07-31_12h47.45.222,arm3_eps,2022.2.5,Win32,60.06727535,64528908f63d6e6beb01b877,64c7fed44a04f777bb1e18ce,64c80129bb1a734c35a29bc9,right,1,0.75,0.05,6,0.026574275,0.3325,44,0,44,0,1,,,,,,,,,,
,,324374,001,2023-07-31_12h47.45.222,arm3_eps,2022.2.5,Win32,60.06727535,64528908f63d6e6beb01b877,64c7fed44a04f777bb1e18ce,64c80129bb1a734c35a29bc9,right,1,0.75,0.05,6,0.032397752,0.3022,45,0,45,0,1,,,,,,,,,,
,,324374,001,2023-07-31_12h47.45.222,arm3_eps,2022.2.5,Win32,60.06727535,64528908f63d6e6beb01b877,64c7fed44a04f777bb1e18ce,64c80129bb1a734c35a29bc9,right,1,0.75,0.05,6,0.023414057,0.2369,46,0,46,0,1,,,,,,,,,,
,,324374,001,2023-07-31_12h47.45.222,arm3_eps,2022.2.5,Win32,60.06727535,64528908f63d6e6beb01b877,64c7fed44a04f777bb1e18ce,64c80129bb1a734c35a29bc9,right,1,0.75,0.05,6,0.032648813,0.267,47,0,47,0,1,,,,,,,,,,
,,324374,001,2023-07-31_12h47.45.222,arm3_eps,2022.2.5,Win32,60.06727535,64528908f63d6e6beb01b877,64c7fed44a04f777bb1e18ce,64c80129bb1a734c35a29bc9,right,1,0.75,0.05,6,0.055048377,0.2338,48,0,48,0,1,,,,,,,,,,
,,324374,001,2023-07-31_12h47.45.222,arm3_eps,2022.2.5,Win32,60.06727535,64528908f63d6e6beb01b877,64c7fed44a04f777bb1e18ce,64c80129bb1a734c35a29bc9,right,1,0.75,0.05,6,0.065722707,0.3,49,0,49,0,1,,,,,,,,,,
space,20.7635,324374,001,2023-07-31_12h47.45.222,arm3_eps,2022.2.5,Win32,60.06727535,64528908f63d6e6beb01b877,64c7fed44a04f777bb1e18ce,64c80129bb1a734c35a29bc9,,,,,,,,,,,,,,,,,,,,,,
space,0.8007,324374,001,2023-07-31_12h47.45.222,arm3_eps,2022.2.5,Win32,60.06727535,64528908f63d6e6beb01b877,64c7fed44a04f777bb1e18ce,64c80129bb1a734c35a29bc9,,,,,,,,,,,,,,,,,,,,,,
,,324374,001,2023-07-31_12h47.45.222,arm3_eps,2022.2.5,Win32,60.06727535,64528908f63d6e6beb01b877,64c7fed44a04f777bb1e18ce,64c80129bb1a734c35a29bc9,up,-1,0.75,0.5,1,0,1.6059,0,0,0,0,1,,,,,,,,,,
,,324374,001,2023-07-31_12h47.45.222,arm3_eps,2022.2.5,Win32,60.06727535,64528908f63d6e6beb01b877,64c7fed44a04f777bb1e18ce,64c80129bb1a734c35a29bc9,right,-1,0.75,0.5,1,-0.006880051,1.565,1,0,1,0,1,,,,,,,,,,
,,324374,001,2023-07-31_12h47.45.222,arm3_eps,2022.2.5,Win32,60.06727535,64528908f63d6e6beb01b877,64c7fed44a04f777bb1e18ce,64c80129bb1a734c35a29bc9,right,-1,0.75,0.5,1,0.006452968,0.5818,2,0,2,0,1,,,,,,,,,,
,,324374,001,2023-07-31_12h47.45.222,arm3_eps,2022.2.5,Win32,60.06727535,64528908f63d6e6beb01b877,64c7fed44a04f777bb1e18ce,64c80129bb1a734c35a29bc9,right,-1,0.75,0.5,1,0.002940955,0.2305,3,0,3,0,1,,,,,,,,,,
,,324374,001,2023-07-31_12h47.45.222,arm3_eps,2022.2.5,Win32,60.06727535,64528908f63d6e6beb01b877,64c7fed44a04f777bb1e18ce,64c80129bb1a734c35a29bc9,right,-1,0.75,0.5,1,-0.006453461,0.3003,4,0,4,0,1,,,,,,,,,,
,,324374,001,2023-07-31_12h47.45.222,arm3_eps,2022.2.5,Win32,60.06727535,64528908f63d6e6beb01b877,64c7fed44a04f777bb1e18ce,64c80129bb1a734c35a29bc9,down,-1,0.75,0.5,2,0,1.3679,5,0,5,0,1,,,,,,,,,,
,,324374,001,2023-07-31_12h47.45.222,arm3_eps,2022.2.5,Win32,60.06727535,64528908f63d6e6beb01b877,64c7fed44a04f777bb1e18ce,64c80129bb1a734c35a29bc9,right,-1,0.75,0.5,2,0.007433447,0.6252,6,0,6,0,1,,,,,,,,,,
,,324374,001,2023-07-31_12h47.45.222,arm3_eps,2022.2.5,Win32,60.06727535,64528908f63d6e6beb01b877,64c7fed44a04f777bb1e18ce,64c80129bb1a734c35a29bc9,right,-1,0.75,0.5,2,0.011854328,1.1992,7,0,7,0,1,,,,,,,,,,
,,324374,001,2023-07-31_12h47.45.222,arm3_eps,2022.2.5,Win32,60.06727535,64528908f63d6e6beb01b877,64c7fed44a04f777bb1e18ce,64c80129bb1a734c35a29bc9,right,-1,0.75,0.5,2,-0.009156027,0.2481,8,0,8,0,1,,,,,,,,,,
,,324374,001,2023-07-31_12h47.45.222,arm3_eps,2022.2.5,Win32,60.06727535,64528908f63d6e6beb01b877,64c7fed44a04f777bb1e18ce,64c80129bb1a734c35a29bc9,right,-1,0.75,0.5,2,0.001663415,0.1987,9,0,9,0,1,,,,,,,,,,
,,324374,001,2023-07-31_12h47.45.222,arm3_eps,2022.2.5,Win32,60.06727535,64528908f63d6e6beb01b877,64c7fed44a04f777bb1e18ce,64c80129bb1a734c35a29bc9,right,-1,0.75,0.5,2,-0.027679349,0.2411,10,0,10,0,1,,,,,,,,,,
,,324374,001,2023-07-31_12h47.45.222,arm3_eps,2022.2.5,Win32,60.06727535,64528908f63d6e6beb01b877,64c7fed44a04f777bb1e18ce,64c80129bb1a734c35a29bc9,down,1,0.75,0.5,2,0,1.0657,11,0,11,0,1,,,,,,,,,,
,,324374,001,2023-07-31_12h47.45.222,arm3_eps,2022.2.5,Win32,60.06727535,64528908f63d6e6beb01b877,64c7fed44a04f777bb1e18ce,64c80129bb1a734c35a29bc9,right,1,0.75,0.5,2,0.017862154,0.9918,12,0,12,0,1,,,,,,,,,,
,,324374,001,2023-07-31_12h47.45.222,arm3_eps,2022.2.5,Win32,60.06727535,64528908f63d6e6beb01b877,64c7fed44a04f777bb1e18ce,64c80129bb1a734c35a29bc9,right,1,0.75,0.5,2,0.048860799,0.1986,13,0,13,0,1,,,,,,,,,,
,,324374,001,2023-07-31_12h47.45.222,arm3_eps,2022.2.5,Win32,60.06727535,64528908f63d6e6beb01b877,64c7fed44a04f777bb1e18ce,64c80129bb1a734c35a29bc9,right,1,0.75,0.5,2,0.062047628,0.1821,14,0,14,0,1,,,,,,,,,,
,,324374,001,2023-07-31_12h47.45.222,arm3_eps,2022.2.5,Win32,60.06727535,64528908f63d6e6beb01b877,64c7fed44a04f777bb1e18ce,64c80129bb1a734c35a29bc9,right,1,0.75,0.5,2,0.075710075,0.1814,15,0,15,0,1,,,,,,,,,,
,,324374,001,2023-07-31_12h47.45.222,arm3_eps,2022.2.5,Win32,60.06727535,64528908f63d6e6beb01b877,64c7fed44a04f777bb1e18ce,64c80129bb1a734c35a29bc9,right,1,0.75,0.5,2,0.093443398,0.2187,16,0,16,0,1,,,,,,,,,,
,,324374,001,2023-07-31_12h47.45.222,arm3_eps,2022.2.5,Win32,60.06727535,64528908f63d6e6beb01b877,64c7fed44a04f777bb1e18ce,64c80129bb1a734c35a29bc9,right,1,0.75,0.5,2,0.140402481,0.2315,17,0,17,0,1,,,,,,,,,,
,,324374,001,2023-07-31_12h47.45.222,arm3_eps,2022.2.5,Win32,60.06727535,64528908f63d6e6beb01b877,64c7fed44a04f777bb1e18ce,64c80129bb1a734c35a29bc9,right,1,0.75,0.5,2,0.147151285,0.4819,18,0,18,0,1,,,,,,,,,,
,,324374,001,2023-07-31_12h47.45.222,arm3_eps,2022.2.5,Win32,60.06727535,64528908f63d6e6beb01b877,64c7fed44a04f777bb1e18ce,64c80129bb1a734c35a29bc9,right,1,0.75,0.5,2,0.140558623,0.4177,19,0,19,0,1,,,,,,,,,,
,,324374,001,2023-07-31_12h47.45.222,arm3_eps,2022.2.5,Win32,60.06727535,64528908f63d6e6beb01b877,64c7fed44a04f777bb1e18ce,64c80129bb1a734c35a29bc9,right,1,0.75,0.5,2,0.169737838,0.3822,20,0,20,0,1,,,,,,,,,,
,,324374,001,2023-07-31_12h47.45.222,arm3_eps,2022.2.5,Win32,60.06727535,64528908f63d6e6beb01b877,64c7fed44a04f777bb1e18ce,64c80129bb1a734c35a29bc9,up,1,0.75,0.5,3,0,0.7053,21,0,21,0,1,,,,,,,,,,
,,324374,001,2023-07-31_12h47.45.222,arm3_eps,2022.2.5,Win32,60.06727535,64528908f63d6e6beb01b877,64c7fed44a04f777bb1e18ce,64c80129bb1a734c35a29bc9,right,1,0.75,0.5,3,0.010198524,1.2141,22,0,22,0,1,,,,,,,,,,
,,324374,001,2023-07-31_12h47.45.222,arm3_eps,2022.2.5,Win32,60.06727535,64528908f63d6e6beb01b877,64c7fed44a04f777bb1e18ce,64c80129bb1a734c35a29bc9,right,1,0.75,0.5,3,0.014754735,0.2868,23,0,23,0,1,,,,,,,,,,
,,324374,001,2023-07-31_12h47.45.222,arm3_eps,2022.2.5,Win32,60.06727535,64528908f63d6e6beb01b877,64c7fed44a04f777bb1e18ce,64c80129bb1a734c35a29bc9,right,1,0.75,0.5,3,0.012092297,0.1983,24,0,24,0,1,,,,,,,,,,
,,324374,001,2023-07-31_12h47.45.222,arm3_eps,2022.2.5,Win32,60.06727535,64528908f63d6e6beb01b877,64c7fed44a04f777bb1e18ce,64c80129bb1a734c35a29bc9,right,1,0.75,0.5,3,0.0215214,0.2661,25,0,25,0,1,,,,,,,,,,
,,324374,001,2023-07-31_12h47.45.222,arm3_eps,2022.2.5,Win32,60.06727535,64528908f63d6e6beb01b877,64c7fed44a04f777bb1e18ce,64c80129bb1a734c35a29bc9,right,1,0.75,0.5,3,0.040359607,0.2378,26,0,26,0,1,,,,,,,,,,
,,324374,001,2023-07-31_12h47.45.222,arm3_eps,2022.2.5,Win32,60.06727535,64528908f63d6e6beb01b877,64c7fed44a04f777bb1e18ce,64c80129bb1a734c35a29bc9,up,1,0.75,0.5,4,0,0.5881,27,0,27,0,1,,,,,,,,,,
,,324374,001,2023-07-31_12h47.45.222,arm3_eps,2022.2.5,Win32,60.06727535,64528908f63d6e6beb01b877,64c7fed44a04f777bb1e18ce,64c80129bb1a734c35a29bc9,right,1,0.75,0.5,4,0.017943491,0.384,28,0,28,0,1,,,,,,,,,,
,,324374,001,2023-07-31_12h47.45.222,arm3_eps,2022.2.5,Win32,60.06727535,64528908f63d6e6beb01b877,64c7fed44a04f777bb1e18ce,64c80129bb1a734c35a29bc9,right,1,0.75,0.5,4,0.015389889,0.2682,29,0,29,0,1,,,,,,,,,,
,,324374,001,2023-07-31_12h47.45.222,arm3_eps,2022.2.5,Win32,60.06727535,64528908f63d6e6beb01b877,64c7fed44a04f777bb1e18ce,64c80129bb1a734c35a29bc9,right,1,0.75,0.5,4,0.017836601,0.2374,30,0,30,0,1,,,,,,,,,,
,,324374,001,2023-07-31_12h47.45.222,arm3_eps,2022.2.5,Win32,60.06727535,64528908f63d6e6beb01b877,64c7fed44a04f777bb1e18ce,64c80129bb1a734c35a29bc9,right,1,0.75,0.5,4,0.025713962,0.2073,31,0,31,0,1,,,,,,,,,,
,,324374,001,2023-07-31_12h47.45.222,arm3_eps,2022.2.5,Win32,60.06727535,64528908f63d6e6beb01b877,64c7fed44a04f777bb1e18ce,64c80129bb1a734c35a29bc9,right,1,0.75,0.5,4,0.053780152,0.2159,32,0,32,0,1,,,,,,,,,,
,,324374,001,2023-07-31_12h47.45.222,arm3_eps,2022.2.5,Win32,60.06727535,64528908f63d6e6beb01b877,64c7fed44a04f777bb1e18ce,64c80129bb1a734c35a29bc9,right,1,0.75,0.5,4,0.066416607,0.2375,33,0,33,0,1,,,,,,,,,,
,,324374,001,2023-07-31_12h47.45.222,arm3_eps,2022.2.5,Win32,60.06727535,64528908f63d6e6beb01b877,64c7fed44a04f777bb1e18ce,64c80129bb1a734c35a29bc9,right,1,0.75,0.5,4,0.082367362,0.3998,34,0,34,0,1,,,,,,,,,,
,,324374,001,2023-07-31_12h47.45.222,arm3_eps,2022.2.5,Win32,60.06727535,64528908f63d6e6beb01b877,64c7fed44a04f777bb1e18ce,64c80129bb1a734c35a29bc9,up,-1,0.75,0.5,5,0,1.2157,35,0,35,0,1,,,,,,,,,,
,,324374,001,2023-07-31_12h47.45.222,arm3_eps,2022.2.5,Win32,60.06727535,64528908f63d6e6beb01b877,64c7fed44a04f777bb1e18ce,64c80129bb1a734c35a29bc9,right,-1,0.75,0.5,5,0.015390718,1.2762,36,0,36,0,1,,,,,,,,,,
,,324374,001,2023-07-31_12h47.45.222,arm3_eps,2022.2.5,Win32,60.06727535,64528908f63d6e6beb01b877,64c7fed44a04f777bb1e18ce,64c80129bb1a734c35a29bc9,right,-1,0.75,0.5,5,-0.014236922,0.4012,37,0,37,0,1,,,,,,,,,,
,,324374,001,2023-07-31_12h47.45.222,arm3_eps,2022.2.5,Win32,60.06727535,64528908f63d6e6beb01b877,64c7fed44a04f777bb1e18ce,64c80129bb1a734c35a29bc9,right,-1,0.75,0.5,5,0.002942551,0.2479,38,0,38,0,1,,,,,,,,,,
,,324374,001,2023-07-31_12h47.45.222,arm3_eps,2022.2.5,Win32,60.06727535,64528908f63d6e6beb01b877,64c7fed44a04f777bb1e18ce,64c80129bb1a734c35a29bc9,right,-1,0.75,0.5,5,-0.020370936,0.2691,39,0,39,0,1,,,,,,,,,,
,,324374,001,2023-07-31_12h47.45.222,arm3_eps,2022.2.5,Win32,60.06727535,64528908f63d6e6beb01b877,64c7fed44a04f777bb1e18ce,64c80129bb1a734c35a29bc9,down,-1,0.75,0.5,6,0,1.2549,40,0,40,0,1,,,,,,,,,,
,,324374,001,2023-07-31_12h47.45.222,arm3_eps,2022.2.5,Win32,60.06727535,64528908f63d6e6beb01b877,64c7fed44a04f777bb1e18ce,64c80129bb1a734c35a29bc9,down,-1,0.75,0.5,6,0,2.1939,41,0,41,0,1,,,,,,,,,,
,,324374,001,2023-07-31_12h47.45.222,arm3_eps,2022.2.5,Win32,60.06727535,64528908f63d6e6beb01b877,64c7fed44a04f777bb1e18ce,64c80129bb1a734c35a29bc9,down,1,0.75,0.5,7,0,1.4307,42,0,42,0,1,,,,,,,,,,
,,324374,001,2023-07-31_12h47.45.222,arm3_eps,2022.2.5,Win32,60.06727535,64528908f63d6e6beb01b877,64c7fed44a04f777bb1e18ce,64c80129bb1a734c35a29bc9,down,1,0.75,0.5,6,0,1.0612,43,0,43,0,1,,,,,,,,,,
,,324374,001,2023-07-31_12h47.45.222,arm3_eps,2022.2.5,Win32,60.06727535,64528908f63d6e6beb01b877,64c7fed44a04f777bb1e18ce,64c80129bb1a734c35a29bc9,down,1,0.75,0.5,5,0,1.2631,44,0,44,0,1,,,,,,,,,,
,,324374,001,2023-07-31_12h47.45.222,arm3_eps,2022.2.5,Win32,60.06727535,64528908f63d6e6beb01b877,64c7fed44a04f777bb1e18ce,64c80129bb1a734c35a29bc9,up,-1,0.75,0.5,5,0,1.7154,45,0,45,0,1,,,,,,,,,,
,,324374,001,2023-07-31_12h47.45.222,arm3_eps,2022.2.5,Win32,60.06727535,64528908f63d6e6beb01b877,64c7fed44a04f777bb1e18ce,64c80129bb1a734c35a29bc9,up,-1,0.75,0.5,4,0,1.932,46,0,46,0,1,,,,,,,,,,
,,324374,001,2023-07-31_12h47.45.222,arm3_eps,2022.2.5,Win32,60.06727535,64528908f63d6e6beb01b877,64c7fed44a04f777bb1e18ce,64c80129bb1a734c35a29bc9,right,-1,0.75,0.5,4,-0.012368156,1.3807,47,0,47,0,1,,,,,,,,,,
,,324374,001,2023-07-31_12h47.45.222,arm3_eps,2022.2.5,Win32,60.06727535,64528908f63d6e6beb01b877,64c7fed44a04f777bb1e18ce,64c80129bb1a734c35a29bc9,right,-1,0.75,0.5,4,-0.033624993,0.2362,48,0,48,0,1,,,,,,,,,,
,,324374,001,2023-07-31_12h47.45.222,arm3_eps,2022.2.5,Win32,60.06727535,64528908f63d6e6beb01b877,64c7fed44a04f777bb1e18ce,64c80129bb1a734c35a29bc9,right,-1,0.75,0.5,4,-0.046036619,0.1505,49,0,49,0,1,,,,,,,,,,
space,2.0955,324374,001,2023-07-31_12h47.45.222,arm3_eps,2022.2.5,Win32,60.06727535,64528908f63d6e6beb01b877,64c7fed44a04f777bb1e18ce,64c80129bb1a734c35a29bc9,,,,,,,,,,,,,,,,,,,,,,
space,3.6862,324374,001,2023-07-31_12h47.45.222,arm3_eps,2022.2.5,Win32,60.06727535,64528908f63d6e6beb01b877,64c7fed44a04f777bb1e18ce,64c80129bb1a734c35a29bc9,right,-1,0.75,0.2429,0,0.019435149,8.5137,,,,,,0,0,0,0,1,,,,,
,,324374,001,2023-07-31_12h47.45.222,arm3_eps,2022.2.5,Win32,60.06727535,64528908f63d6e6beb01b877,64c7fed44a04f777bb1e18ce,64c80129bb1a734c35a29bc9,down,-1,0.75,0.2429,1,0,1.1839,,,,,,1,0,1,0,1,,,,,
,,324374,001,2023-07-31_12h47.45.222,arm3_eps,2022.2.5,Win32,60.06727535,64528908f63d6e6beb01b877,64c7fed44a04f777bb1e18ce,64c80129bb1a734c35a29bc9,right,-1,0.75,0.2429,1,-0.003302168,2.2754,,,,,,2,0,2,0,1,,,,,
,,324374,001,2023-07-31_12h47.45.222,arm3_eps,2022.2.5,Win32,60.06727535,64528908f63d6e6beb01b877,64c7fed44a04f777bb1e18ce,64c80129bb1a734c35a29bc9,down,1,0.75,0.2429,2,0,2.0979,,,,,,3,0,3,0,1,,,,,
,,324374,001,2023-07-31_12h47.45.222,arm3_eps,2022.2.5,Win32,60.06727535,64528908f63d6e6beb01b877,64c7fed44a04f777bb1e18ce,64c80129bb1a734c35a29bc9,right,1,0.75,0.2429,2,0.014542596,1.5125,,,,,,4,0,4,0,1,,,,,
,,324374,001,2023-07-31_12h47.45.222,arm3_eps,2022.2.5,Win32,60.06727535,64528908f63d6e6beb01b877,64c7fed44a04f777bb1e18ce,64c80129bb1a734c35a29bc9,up,1,0.75,0.2429,3,0,0.8164,,,,,,5,0,5,0,1,,,,,
,,324374,001,2023-07-31_12h47.45.222,arm3_eps,2022.2.5,Win32,60.06727535,64528908f63d6e6beb01b877,64c7fed44a04f777bb1e18ce,64c80129bb1a734c35a29bc9,right,1,0.75,0.2429,3,-0.00282482,1.7618,,,,,,6,0,6,0,1,,,,,
,,324374,001,2023-07-31_12h47.45.222,arm3_eps,2022.2.5,Win32,60.06727535,64528908f63d6e6beb01b877,64c7fed44a04f777bb1e18ce,64c80129bb1a734c35a29bc9,up,-1,0.75,0.2429,4,0,0.9554,,,,,,7,0,7,0,1,,,,,
,,324374,001,2023-07-31_12h47.45.222,arm3_eps,2022.2.5,Win32,60.06727535,64528908f63d6e6beb01b877,64c7fed44a04f777bb1e18ce,64c80129bb1a734c35a29bc9,right,-1,0.75,0.2429,4,0.022269827,1.3458,,,,,,8,0,8,0,1,,,,,
,,324374,001,2023-07-31_12h47.45.222,arm3_eps,2022.2.5,Win32,60.06727535,64528908f63d6e6beb01b877,64c7fed44a04f777bb1e18ce,64c80129bb1a734c35a29bc9,right,-1,0.75,0.2429,4,0.010629235,0.7144,,,,,,9,0,9,0,1,,,,,
,,324374,001,2023-07-31_12h47.45.222,arm3_eps,2022.2.5,Win32,60.06727535,64528908f63d6e6beb01b877,64c7fed44a04f777bb1e18ce,64c80129bb1a734c35a29bc9,down,-1,0.75,0.2429,5,0,0.8491,,,,,,10,0,10,0,1,,,,,
,,324374,001,2023-07-31_12h47.45.222,arm3_eps,2022.2.5,Win32,60.06727535,64528908f63d6e6beb01b877,64c7fed44a04f777bb1e18ce,64c80129bb1a734c35a29bc9,right,-1,0.75,0.2429,5,-0.030681177,2.2328,,,,,,11,0,11,0,1,,,,,
,,324374,001,2023-07-31_12h47.45.222,arm3_eps,2022.2.5,Win32,60.06727535,64528908f63d6e6beb01b877,64c7fed44a04f777bb1e18ce,64c80129bb1a734c35a29bc9,right,-1,0.75,0.2429,5,-0.048452853,0.3809,,,,,,12,0,12,0,1,,,,,
,,324374,001,2023-07-31_12h47.45.222,arm3_eps,2022.2.5,Win32,60.06727535,64528908f63d6e6beb01b877,64c7fed44a04f777bb1e18ce,64c80129bb1a734c35a29bc9,right,-1,0.75,0.2429,5,-0.060833784,0.481,,,,,,13,0,13,0,1,,,,,
,,324374,001,2023-07-31_12h47.45.222,arm3_eps,2022.2.5,Win32,60.06727535,64528908f63d6e6beb01b877,64c7fed44a04f777bb1e18ce,64c80129bb1a734c35a29bc9,right,-1,0.75,0.2429,5,-0.018889462,0.4825,,,,,,14,0,14,0,1,,,,,
,,324374,001,2023-07-31_12h47.45.222,arm3_eps,2022.2.5,Win32,60.06727535,64528908f63d6e6beb01b877,64c7fed44a04f777bb1e18ce,64c80129bb1a734c35a29bc9,right,-1,0.75,0.2429,5,-0.059537314,0.4658,,,,,,15,0,15,0,1,,,,,
,,324374,001,2023-07-31_12h47.45.222,arm3_eps,2022.2.5,Win32,60.06727535,64528908f63d6e6beb01b877,64c7fed44a04f777bb1e18ce,64c80129bb1a734c35a29bc9,down,-1,0.75,0.2429,6,0,0.566,,,,,,16,0,16,0,1,,,,,
,,324374,001,2023-07-31_12h47.45.222,arm3_eps,2022.2.5,Win32,60.06727535,64528908f63d6e6beb01b877,64c7fed44a04f777bb1e18ce,64c80129bb1a734c35a29bc9,right,-1,0.75,0.2429,6,-0.019723872,0.4636,,,,,,17,0,17,0,1,,,,,
,,324374,001,2023-07-31_12h47.45.222,arm3_eps,2022.2.5,Win32,60.06727535,64528908f63d6e6beb01b877,64c7fed44a04f777bb1e18ce,64c80129bb1a734c35a29bc9,right,-1,0.75,0.2429,6,-0.028650072,0.6149,,,,,,18,0,18,0,1,,,,,
,,324374,001,2023-07-31_12h47.45.222,arm3_eps,2022.2.5,Win32,60.06727535,64528908f63d6e6beb01b877,64c7fed44a04f777bb1e18ce,64c80129bb1a734c35a29bc9,right,-1,0.75,0.2429,6,-0.053863181,0.3987,,,,,,19,0,19,0,1,,,,,
,,324374,001,2023-07-31_12h47.45.222,arm3_eps,2022.2.5,Win32,60.06727535,64528908f63d6e6beb01b877,64c7fed44a04f777bb1e18ce,64c80129bb1a734c35a29bc9,down,-1,0.75,0.2429,7,0,0.5983,,,,,,20,0,20,0,1,,,,,
,,324374,001,2023-07-31_12h47.45.222,arm3_eps,2022.2.5,Win32,60.06727535,64528908f63d6e6beb01b877,64c7fed44a04f777bb1e18ce,64c80129bb1a734c35a29bc9,down,-1,0.75,0.2429,8,0,1.2136,,,,,,21,0,21,0,1,,,,,
,,324374,001,2023-07-31_12h47.45.222,arm3_eps,2022.2.5,Win32,60.06727535,64528908f63d6e6beb01b877,64c7fed44a04f777bb1e18ce,64c80129bb1a734c35a29bc9,up,-1,0.75,0.2429,7,0,1.1087,,,,,,22,0,22,0,1,,,,,
,,324374,001,2023-07-31_12h47.45.222,arm3_eps,2022.2.5,Win32,60.06727535,64528908f63d6e6beb01b877,64c7fed44a04f777bb1e18ce,64c80129bb1a734c35a29bc9,down,1,0.75,0.2429,8,0,2.3108,,,,,,23,0,23,0,1,,,,,
,,324374,001,2023-07-31_12h47.45.222,arm3_eps,2022.2.5,Win32,60.06727535,64528908f63d6e6beb01b877,64c7fed44a04f777bb1e18ce,64c80129bb1a734c35a29bc9,right,1,0.75,0.2429,8,0.00943289,1.5101,,,,,,24,0,24,0,1,,,,,
,,324374,001,2023-07-31_12h47.45.222,arm3_eps,2022.2.5,Win32,60.06727535,64528908f63d6e6beb01b877,64c7fed44a04f777bb1e18ce,64c80129bb1a734c35a29bc9,right,1,0.75,0.2429,8,0.005600136,0.2559,,,,,,25,0,25,0,1,,,,,
,,324374,001,2023-07-31_12h47.45.222,arm3_eps,2022.2.5,Win32,60.06727535,64528908f63d6e6beb01b877,64c7fed44a04f777bb1e18ce,64c80129bb1a734c35a29bc9,right,1,0.75,0.2429,8,0.001303034,0.239,,,,,,26,0,26,0,1,,,,,
,,324374,001,2023-07-31_12h47.45.222,arm3_eps,2022.2.5,Win32,60.06727535,64528908f63d6e6beb01b877,64c7fed44a04f777bb1e18ce,64c80129bb1a734c35a29bc9,right,1,0.75,0.2429,8,0.00875754,0.4301,,,,,,27,0,27,0,1,,,,,
,,324374,001,2023-07-31_12h47.45.222,arm3_eps,2022.2.5,Win32,60.06727535,64528908f63d6e6beb01b877,64c7fed44a04f777bb1e18ce,64c80129bb1a734c35a29bc9,right,1,0.75,0.2429,8,-0.004810598,0.4813,,,,,,28,0,28,0,1,,,,,
,,324374,001,2023-07-31_12h47.45.222,arm3_eps,2022.2.5,Win32,60.06727535,64528908f63d6e6beb01b877,64c7fed44a04f777bb1e18ce,64c80129bb1a734c35a29bc9,right,1,0.75,0.2429,8,0.004674915,0.3642,,,,,,29,0,29,0,1,,,,,
,,324374,001,2023-07-31_12h47.45.222,arm3_eps,2022.2.5,Win32,60.06727535,64528908f63d6e6beb01b877,64c7fed44a04f777bb1e18ce,64c80129bb1a734c35a29bc9,up,-1,0.75,0.2429,9,0,0.9397,,,,,,30,0,30,0,1,,,,,
,,324374,001,2023-07-31_12h47.45.222,arm3_eps,2022.2.5,Win32,60.06727535,64528908f63d6e6beb01b877,64c7fed44a04f777bb1e18ce,64c80129bb1a734c35a29bc9,right,-1,0.75,0.2429,9,-0.01495682,0.9935,,,,,,31,0,31,0,1,,,,,
,,324374,001,2023-07-31_12h47.45.222,arm3_eps,2022.2.5,Win32,60.06727535,64528908f63d6e6beb01b877,64c7fed44a04f777bb1e18ce,64c80129bb1a734c35a29bc9,right,-1,0.75,0.2429,9,-0.002243338,0.2337,,,,,,32,0,32,0,1,,,,,
,,324374,001,2023-07-31_12h47.45.222,arm3_eps,2022.2.5,Win32,60.06727535,64528908f63d6e6beb01b877,64c7fed44a04f777bb1e18ce,64c80129bb1a734c35a29bc9,right,-1,0.75,0.2429,9,-0.002804611,2.3984,,,,,,33,0,33,0,1,,,,,
,,324374,001,2023-07-31_12h47.45.222,arm3_eps,2022.2.5,Win32,60.06727535,64528908f63d6e6beb01b877,64c7fed44a04f777bb1e18ce,64c80129bb1a734c35a29bc9,down,1,0.75,0.2429,9,0,0.816,,,,,,34,0,34,0,1,,,,,
,,324374,001,2023-07-31_12h47.45.222,arm3_eps,2022.2.5,Win32,60.06727535,64528908f63d6e6beb01b877,64c7fed44a04f777bb1e18ce,64c80129bb1a734c35a29bc9,down,1,0.75,0.2429,8,0,1.4268,,,,,,35,0,35,0,1,,,,,
,,324374,001,2023-07-31_12h47.45.222,arm3_eps,2022.2.5,Win32,60.06727535,64528908f63d6e6beb01b877,64c7fed44a04f777bb1e18ce,64c80129bb1a734c35a29bc9,right,1,0.75,0.2429,8,0.000383689,1.2605,,,,,,36,0,36,0,1,,,,,
,,324374,001,2023-07-31_12h47.45.222,arm3_eps,2022.2.5,Win32,60.06727535,64528908f63d6e6beb01b877,64c7fed44a04f777bb1e18ce,64c80129bb1a734c35a29bc9,up,1,0.75,0.2429,8,0,0.755,,,,,,37,0,37,0,1,,,,,
,,324374,001,2023-07-31_12h47.45.222,arm3_eps,2022.2.5,Win32,60.06727535,64528908f63d6e6beb01b877,64c7fed44a04f777bb1e18ce,64c80129bb1a734c35a29bc9,right,1,0.75,0.2429,8,0.014905526,1.1659,,,,,,38,0,38,0,1,,,,,
,,324374,001,2023-07-31_12h47.45.222,arm3_eps,2022.2.5,Win32,60.06727535,64528908f63d6e6beb01b877,64c7fed44a04f777bb1e18ce,64c80129bb1a734c35a29bc9,up,-1,0.75,0.2429,9,0,0.5003,,,,,,39,0,39,0,1,,,,,
,,324374,001,2023-07-31_12h47.45.222,arm3_eps,2022.2.5,Win32,60.06727535,64528908f63d6e6beb01b877,64c7fed44a04f777bb1e18ce,64c80129bb1a734c35a29bc9,right,-1,0.75,0.2429,9,-0.016740483,0.8331,,,,,,40,0,40,0,1,,,,,
,,324374,001,2023-07-31_12h47.45.222,arm3_eps,2022.2.5,Win32,60.06727535,64528908f63d6e6beb01b877,64c7fed44a04f777bb1e18ce,64c80129bb1a734c35a29bc9,down,-1,0.75,0.2429,10,0,1.0013,,,,,,41,0,41,0,1,,,,,
,,324374,001,2023-07-31_12h47.45.222,arm3_eps,2022.2.5,Win32,60.06727535,64528908f63d6e6beb01b877,64c7fed44a04f777bb1e18ce,64c80129bb1a734c35a29bc9,right,-1,0.75,0.2429,10,-0.00608163,0.8308,,,,,,42,0,42,0,1,,,,,
,,324374,001,2023-07-31_12h47.45.222,arm3_eps,2022.2.5,Win32,60.06727535,64528908f63d6e6beb01b877,64c7fed44a04f777bb1e18ce,64c80129bb1a734c35a29bc9,down,-1,0.75,0.2429,11,0,0.5675,,,,,,43,0,43,0,1,,,,,
,,324374,001,2023-07-31_12h47.45.222,arm3_eps,2022.2.5,Win32,60.06727535,64528908f63d6e6beb01b877,64c7fed44a04f777bb1e18ce,64c80129bb1a734c35a29bc9,right,-1,0.75,0.2429,11,0.031617128,0.9466,,,,,,44,0,44,0,1,,,,,
,,324374,001,2023-07-31_12h47.45.222,arm3_eps,2022.2.5,Win32,60.06727535,64528908f63d6e6beb01b877,64c7fed44a04f777bb1e18ce,64c80129bb1a734c35a29bc9,right,-1,0.75,0.2429,11,0.024777211,0.6342,,,,,,45,0,45,0,1,,,,,
,,324374,001,2023-07-31_12h47.45.222,arm3_eps,2022.2.5,Win32,60.06727535,64528908f63d6e6beb01b877,64c7fed44a04f777bb1e18ce,64c80129bb1a734c35a29bc9,right,-1,0.75,0.2429,11,0.003093589,0.5504,,,,,,46,0,46,0,1,,,,,
,,324374,001,2023-07-31_12h47.45.222,arm3_eps,2022.2.5,Win32,60.06727535,64528908f63d6e6beb01b877,64c7fed44a04f777bb1e18ce,64c80129bb1a734c35a29bc9,right,-1,0.75,0.2429,11,-0.014725829,0.5702,,,,,,47,0,47,0,1,,,,,
,,324374,001,2023-07-31_12h47.45.222,arm3_eps,2022.2.5,Win32,60.06727535,64528908f63d6e6beb01b877,64c7fed44a04f777bb1e18ce,64c80129bb1a734c35a29bc9,down,-1,0.75,0.2429,12,0,0.5835,,,,,,48,0,48,0,1,,,,,
,,324374,001,2023-07-31_12h47.45.222,arm3_eps,2022.2.5,Win32,60.06727535,64528908f63d6e6beb01b877,64c7fed44a04f777bb1e18ce,64c80129bb1a734c35a29bc9,right,-1,0.75,0.2429,12,-0.023968157,0.9807,,,,,,49,0,49,0,1,,,,,
,,324374,001,2023-07-31_12h47.45.222,arm3_eps,2022.2.5,Win32,60.06727535,64528908f63d6e6beb01b877,64c7fed44a04f777bb1e18ce,64c80129bb1a734c35a29bc9,right,-1,0.75,0.2429,12,-0.021506153,0.3504,,,,,,50,0,50,0,1,,,,,
,,324374,001,2023-07-31_12h47.45.222,arm3_eps,2022.2.5,Win32,60.06727535,64528908f63d6e6beb01b877,64c7fed44a04f777bb1e18ce,64c80129bb1a734c35a29bc9,down,-1,0.75,0.2429,13,0,1.7328,,,,,,51,0,51,0,1,,,,,
,,324374,001,2023-07-31_12h47.45.222,arm3_eps,2022.2.5,Win32,60.06727535,64528908f63d6e6beb01b877,64c7fed44a04f777bb1e18ce,64c80129bb1a734c35a29bc9,right,-1,0.75,0.2429,13,-0.011274347,2.1792,,,,,,52,0,52,0,1,,,,,
,,324374,001,2023-07-31_12h47.45.222,arm3_eps,2022.2.5,Win32,60.06727535,64528908f63d6e6beb01b877,64c7fed44a04f777bb1e18ce,64c80129bb1a734c35a29bc9,right,-1,0.75,0.2429,13,-0.040482976,0.5502,,,,,,53,0,53,0,1,,,,,
,,324374,001,2023-07-31_12h47.45.222,arm3_eps,2022.2.5,Win32,60.06727535,64528908f63d6e6beb01b877,64c7fed44a04f777bb1e18ce,64c80129bb1a734c35a29bc9,right,-1,0.75,0.2429,13,-0.0550359,1.765,,,,,,54,0,54,0,1,,,,,
,,324374,001,2023-07-31_12h47.45.222,arm3_eps,2022.2.5,Win32,60.06727535,64528908f63d6e6beb01b877,64c7fed44a04f777bb1e18ce,64c80129bb1a734c35a29bc9,down,-1,0.75,0.2429,14,0,0.7364,,,,,,55,0,55,0,1,,,,,
,,324374,001,2023-07-31_12h47.45.222,arm3_eps,2022.2.5,Win32,60.06727535,64528908f63d6e6beb01b877,64c7fed44a04f777bb1e18ce,64c80129bb1a734c35a29bc9,right,-1,0.75,0.2429,14,-0.00052606,1.0102,,,,,,56,0,56,0,1,,,,,
,,324374,001,2023-07-31_12h47.45.222,arm3_eps,2022.2.5,Win32,60.06727535,64528908f63d6e6beb01b877,64c7fed44a04f777bb1e18ce,64c80129bb1a734c35a29bc9,down,-1,0.75,0.2429,15,0,0.3991,,,,,,57,0,57,0,1,,,,,
,,324374,001,2023-07-31_12h47.45.222,arm3_eps,2022.2.5,Win32,60.06727535,64528908f63d6e6beb01b877,64c7fed44a04f777bb1e18ce,64c80129bb1a734c35a29bc9,right,-1,0.75,0.2429,15,-0.019335086,0.8093,,,,,,58,0,58,0,1,,,,,
,,324374,001,2023-07-31_12h47.45.222,arm3_eps,2022.2.5,Win32,60.06727535,64528908f63d6e6beb01b877,64c7fed44a04f777bb1e18ce,64c80129bb1a734c35a29bc9,down,-1,0.75,0.2429,15,0,0.4177,,,,,,59,0,59,0,1,,,,,
,,324374,001,2023-07-31_12h47.45.222,arm3_eps,2022.2.5,Win32,60.06727535,64528908f63d6e6beb01b877,64c7fed44a04f777bb1e18ce,64c80129bb1a734c35a29bc9,right,-1,0.75,0.2429,15,-0.004332423,0.83,,,,,,60,0,60,0,1,,,,,
,,324374,001,2023-07-31_12h47.45.222,arm3_eps,2022.2.5,Win32,60.06727535,64528908f63d6e6beb01b877,64c7fed44a04f777bb1e18ce,64c80129bb1a734c35a29bc9,right,-1,0.75,0.2429,15,-0.004510168,1.1391,,,,,,61,0,61,0,1,,,,,
,,324374,001,2023-07-31_12h47.45.222,arm3_eps,2022.2.5,Win32,60.06727535,64528908f63d6e6beb01b877,64c7fed44a04f777bb1e18ce,64c80129bb1a734c35a29bc9,right,-1,0.75,0.2429,15,-0.004132385,0.3321,,,,,,62,0,62,0,1,,,,,
,,324374,001,2023-07-31_12h47.45.222,arm3_eps,2022.2.5,Win32,60.06727535,64528908f63d6e6beb01b877,64c7fed44a04f777bb1e18ce,64c80129bb1a734c35a29bc9,down,1,0.75,0.2429,15,0,0.6205,,,,,,63,0,63,0,1,,,,,
,,324374,001,2023-07-31_12h47.45.222,arm3_eps,2022.2.5,Win32,60.06727535,64528908f63d6e6beb01b877,64c7fed44a04f777bb1e18ce,64c80129bb1a734c35a29bc9,right,1,0.75,0.2429,15,0.029878831,1.3088,,,,,,64,0,64,0,1,,,,,
,,324374,001,2023-07-31_12h47.45.222,arm3_eps,2022.2.5,Win32,60.06727535,64528908f63d6e6beb01b877,64c7fed44a04f777bb1e18ce,64c80129bb1a734c35a29bc9,right,1,0.75,0.2429,15,0.041491644,0.3194,,,,,,65,0,65,0,1,,,,,
,,324374,001,2023-07-31_12h47.45.222,arm3_eps,2022.2.5,Win32,60.06727535,64528908f63d6e6beb01b877,64c7fed44a04f777bb1e18ce,64c80129bb1a734c35a29bc9,up,-1,0.75,0.2429,16,0,0.398,,,,,,66,0,66,0,1,,,,,
,,324374,001,2023-07-31_12h47.45.222,arm3_eps,2022.2.5,Win32,60.06727535,64528908f63d6e6beb01b877,64c7fed44a04f777bb1e18ce,64c80129bb1a734c35a29bc9,right,-1,0.75,0.2429,16,-0.004504534,0.9157,,,,,,67,0,67,0,1,,,,,
,,324374,001,2023-07-31_12h47.45.222,arm3_eps,2022.2.5,Win32,60.06727535,64528908f63d6e6beb01b877,64c7fed44a04f777bb1e18ce,64c80129bb1a734c35a29bc9,down,1,0.75,0.2429,17,0,0.6392,,,,,,68,0,68,0,1,,,,,
,,324374,001,2023-07-31_12h47.45.222,arm3_eps,2022.2.5,Win32,60.06727535,64528908f63d6e6beb01b877,64c7fed44a04f777bb1e18ce,64c80129bb1a734c35a29bc9,right,1,0.75,0.2429,17,0.004656342,1.0231,,,,,,69,0,69,0,1,,,,,
,,324374,001,2023-07-31_12h47.45.222,arm3_eps,2022.2.5,Win32,60.06727535,64528908f63d6e6beb01b877,64c7fed44a04f777bb1e18ce,64c80129bb1a734c35a29bc9,right,1,0.75,0.2429,17,-0.005720225,1.3232,,,,,,70,0,70,0,1,,,,,
,,324374,001,2023-07-31_12h47.45.222,arm3_eps,2022.2.5,Win32,60.06727535,64528908f63d6e6beb01b877,64c7fed44a04f777bb1e18ce,64c80129bb1a734c35a29bc9,down,1,0.75,0.2429,16,0,1.1647,,,,,,71,0,71,0,1,,,,,
,,324374,001,2023-07-31_12h47.45.222,arm3_eps,2022.2.5,Win32,60.06727535,64528908f63d6e6beb01b877,64c7fed44a04f777bb1e18ce,64c80129bb1a734c35a29bc9,right,1,0.75,0.2429,16,0.011907324,3.3785,,,,,,72,0,72,0,1,,,,,
,,324374,001,2023-07-31_12h47.45.222,arm3_eps,2022.2.5,Win32,60.06727535,64528908f63d6e6beb01b877,64c7fed44a04f777bb1e18ce,64c80129bb1a734c35a29bc9,up,1,0.75,0.2429,16,0,0.9204,,,,,,73,0,73,0,1,,,,,
,,324374,001,2023-07-31_12h47.45.222,arm3_eps,2022.2.5,Win32,60.06727535,64528908f63d6e6beb01b877,64c7fed44a04f777bb1e18ce,64c80129bb1a734c35a29bc9,right,1,0.75,0.2429,16,-0.017599791,1.4252,,,,,,74,0,74,0,1,,,,,
,,324374,001,2023-07-31_12h47.45.222,arm3_eps,2022.2.5,Win32,60.06727535,64528908f63d6e6beb01b877,64c7fed44a04f777bb1e18ce,64c80129bb1a734c35a29bc9,down,1,0.75,0.2429,16,0,0.8487,,,,,,75,0,75,0,1,,,,,
,,324374,001,2023-07-31_12h47.45.222,arm3_eps,2022.2.5,Win32,60.06727535,64528908f63d6e6beb01b877,64c7fed44a04f777bb1e18ce,64c80129bb1a734c35a29bc9,right,1,0.75,0.2429,16,-0.01089038,0.9641,,,,,,76,0,76,0,1,,,,,
,,324374,001,2023-07-31_12h47.45.222,arm3_eps,2022.2.5,Win32,60.06727535,64528908f63d6e6beb01b877,64c7fed44a04f777bb1e18ce,64c80129bb1a734c35a29bc9,right,1,0.75,0.2429,16,0.014266626,1.0985,,,,,,77,0,77,0,1,,,,,
,,324374,001,2023-07-31_12h47.45.222,arm3_eps,2022.2.5,Win32,60.06727535,64528908f63d6e6beb01b877,64c7fed44a04f777bb1e18ce,64c80129bb1a734c35a29bc9,right,1,0.75,0.2429,16,-0.018111321,0.4223,,,,,,78,0,78,0,1,,,,,
,,324374,001,2023-07-31_12h47.45.222,arm3_eps,2022.2.5,Win32,60.06727535,64528908f63d6e6beb01b877,64c7fed44a04f777bb1e18ce,64c80129bb1a734c35a29bc9,right,1,0.75,0.2429,16,0.006672283,0.6149,,,,,,79,0,79,0,1,,,,,
,,324374,001,2023-07-31_12h47.45.222,arm3_eps,2022.2.5,Win32,60.06727535,64528908f63d6e6beb01b877,64c7fed44a04f777bb1e18ce,64c80129bb1a734c35a29bc9,right,1,0.75,0.2429,16,-0.010397504,0.3379,,,,,,80,0,80,0,1,,,,,
,,324374,001,2023-07-31_12h47.45.222,arm3_eps,2022.2.5,Win32,60.06727535,64528908f63d6e6beb01b877,64c7fed44a04f777bb1e18ce,64c80129bb1a734c35a29bc9,right,1,0.75,0.2429,16,0.002540333,0.4183,,,,,,81,0,81,0,1,,,,,
,,324374,001,2023-07-31_12h47.45.222,arm3_eps,2022.2.5,Win32,60.06727535,64528908f63d6e6beb01b877,64c7fed44a04f777bb1e18ce,64c80129bb1a734c35a29bc9,right,1,0.75,0.2429,16,0.01385335,1.8547,,,,,,82,0,82,0,1,,,,,
,,324374,001,2023-07-31_12h47.45.222,arm3_eps,2022.2.5,Win32,60.06727535,64528908f63d6e6beb01b877,64c7fed44a04f777bb1e18ce,64c80129bb1a734c35a29bc9,right,1,0.75,0.2429,16,0.013799479,0.4396,,,,,,83,0,83,0,1,,,,,
,,324374,001,2023-07-31_12h47.45.222,arm3_eps,2022.2.5,Win32,60.06727535,64528908f63d6e6beb01b877,64c7fed44a04f777bb1e18ce,64c80129bb1a734c35a29bc9,right,1,0.75,0.2429,16,0.001511852,0.4403,,,,,,84,0,84,0,1,,,,,
,,324374,001,2023-07-31_12h47.45.222,arm3_eps,2022.2.5,Win32,60.06727535,64528908f63d6e6beb01b877,64c7fed44a04f777bb1e18ce,64c80129bb1a734c35a29bc9,right,1,0.75,0.2429,16,0.030645486,1.0816,,,,,,85,0,85,0,1,,,,,
,,324374,001,2023-07-31_12h47.45.222,arm3_eps,2022.2.5,Win32,60.06727535,64528908f63d6e6beb01b877,64c7fed44a04f777bb1e18ce,64c80129bb1a734c35a29bc9,right,1,0.75,0.2429,16,0.031998593,0.3311,,,,,,86,0,86,0,1,,,,,
,,324374,001,2023-07-31_12h47.45.222,arm3_eps,2022.2.5,Win32,60.06727535,64528908f63d6e6beb01b877,64c7fed44a04f777bb1e18ce,64c80129bb1a734c35a29bc9,up,1,0.75,0.2429,16,0,0.4033,,,,,,87,0,87,0,1,,,,,
,,324374,001,2023-07-31_12h47.45.222,arm3_eps,2022.2.5,Win32,60.06727535,64528908f63d6e6beb01b877,64c7fed44a04f777bb1e18ce,64c80129bb1a734c35a29bc9,right,1,0.75,0.2429,16,0.010758949,1.0423,,,,,,88,0,88,0,1,,,,,
,,324374,001,2023-07-31_12h47.45.222,arm3_eps,2022.2.5,Win32,60.06727535,64528908f63d6e6beb01b877,64c7fed44a04f777bb1e18ce,64c80129bb1a734c35a29bc9,right,1,0.75,0.2429,16,0.014587752,0.2148,,,,,,89,0,89,0,1,,,,,
,,324374,001,2023-07-31_12h47.45.222,arm3_eps,2022.2.5,Win32,60.06727535,64528908f63d6e6beb01b877,64c7fed44a04f777bb1e18ce,64c80129bb1a734c35a29bc9,right,1,0.75,0.2429,16,0.015818987,0.1811,,,,,,90,0,90,0,1,,,,,
,,324374,001,2023-07-31_12h47.45.222,arm3_eps,2022.2.5,Win32,60.06727535,64528908f63d6e6beb01b877,64c7fed44a04f777bb1e18ce,64c80129bb1a734c35a29bc9,right,1,0.75,0.2429,16,0.004797438,0.1892,,,,,,91,0,91,0,1,,,,,
,,324374,001,2023-07-31_12h47.45.222,arm3_eps,2022.2.5,Win32,60.06727535,64528908f63d6e6beb01b877,64c7fed44a04f777bb1e18ce,64c80129bb1a734c35a29bc9,up,1,0.75,0.2429,17,0,1.2156,,,,,,92,0,92,0,1,,,,,
,,324374,001,2023-07-31_12h47.45.222,arm3_eps,2022.2.5,Win32,60.06727535,64528908f63d6e6beb01b877,64c7fed44a04f777bb1e18ce,64c80129bb1a734c35a29bc9,right,1,0.75,0.2429,17,0.002052483,1.2279,,,,,,93,0,93,0,1,,,,,
,,324374,001,2023-07-31_12h47.45.222,arm3_eps,2022.2.5,Win32,60.06727535,64528908f63d6e6beb01b877,64c7fed44a04f777bb1e18ce,64c80129bb1a734c35a29bc9,up,-1,0.75,0.2429,18,0,0.5816,,,,,,94,0,94,0,1,,,,,
,,324374,001,2023-07-31_12h47.45.222,arm3_eps,2022.2.5,Win32,60.06727535,64528908f63d6e6beb01b877,64c7fed44a04f777bb1e18ce,64c80129bb1a734c35a29bc9,right,-1,0.75,0.2429,18,-0.00936079,0.7752,,,,,,95,0,95,0,1,,,,,
,,324374,001,2023-07-31_12h47.45.222,arm3_eps,2022.2.5,Win32,60.06727535,64528908f63d6e6beb01b877,64c7fed44a04f777bb1e18ce,64c80129bb1a734c35a29bc9,down,-1,0.75,0.2429,19,0,0.6158,,,,,,96,0,96,0,1,,,,,
,,324374,001,2023-07-31_12h47.45.222,arm3_eps,2022.2.5,Win32,60.06727535,64528908f63d6e6beb01b877,64c7fed44a04f777bb1e18ce,64c80129bb1a734c35a29bc9,right,-1,0.75,0.2429,19,-0.024747382,0.7604,,,,,,97,0,97,0,1,,,,,
,,324374,001,2023-07-31_12h47.45.222,arm3_eps,2022.2.5,Win32,60.06727535,64528908f63d6e6beb01b877,64c7fed44a04f777bb1e18ce,64c80129bb1a734c35a29bc9,down,-1,0.75,0.2429,19,0,0.8541,,,,,,98,0,98,0,1,,,,,
,,324374,001,2023-07-31_12h47.45.222,arm3_eps,2022.2.5,Win32,60.06727535,64528908f63d6e6beb01b877,64c7fed44a04f777bb1e18ce,64c80129bb1a734c35a29bc9,right,-1,0.75,0.2429,19,-0.009200445,0.7746,,,,,,99,0,99,0,1,,,,,
,,324374,001,2023-07-31_12h47.45.222,arm3_eps,2022.2.5,Win32,60.06727535,64528908f63d6e6beb01b877,64c7fed44a04f777bb1e18ce,64c80129bb1a734c35a29bc9,right,-1,0.75,0.2429,19,-0.015715348,0.5658,,,,,,100,0,100,0,1,,,,,
,,324374,001,2023-07-31_12h47.45.222,arm3_eps,2022.2.5,Win32,60.06727535,64528908f63d6e6beb01b877,64c7fed44a04f777bb1e18ce,64c80129bb1a734c35a29bc9,down,-1,0.75,0.2429,20,0,0.4827,,,,,,101,0,101,0,1,,,,,
,,324374,001,2023-07-31_12h47.45.222,arm3_eps,2022.2.5,Win32,60.06727535,64528908f63d6e6beb01b877,64c7fed44a04f777bb1e18ce,64c80129bb1a734c35a29bc9,right,-1,0.75,0.2429,20,-0.002877737,0.6668,,,,,,102,0,102,0,1,,,,,
,,324374,001,2023-07-31_12h47.45.222,arm3_eps,2022.2.5,Win32,60.06727535,64528908f63d6e6beb01b877,64c7fed44a04f777bb1e18ce,64c80129bb1a734c35a29bc9,right,-1,0.75,0.2429,20,-0.00240849,0.3673,,,,,,103,0,103,0,1,,,,,
,,324374,001,2023-07-31_12h47.45.222,arm3_eps,2022.2.5,Win32,60.06727535,64528908f63d6e6beb01b877,64c7fed44a04f777bb1e18ce,64c80129bb1a734c35a29bc9,down,-1,0.75,0.2429,21,0,0.4843,,,,,,104,0,104,0,1,,,,,
,,324374,001,2023-07-31_12h47.45.222,arm3_eps,2022.2.5,Win32,60.06727535,64528908f63d6e6beb01b877,64c7fed44a04f777bb1e18ce,64c80129bb1a734c35a29bc9,right,-1,0.75,0.2429,21,-0.003540287,0.6829,,,,,,105,0,105,0,1,,,,,
,,324374,001,2023-07-31_12h47.45.222,arm3_eps,2022.2.5,Win32,60.06727535,64528908f63d6e6beb01b877,64c7fed44a04f777bb1e18ce,64c80129bb1a734c35a29bc9,right,-1,0.75,0.2429,21,-0.008902871,0.7534,,,,,,106,0,106,0,1,,,,,
,,324374,001,2023-07-31_12h47.45.222,arm3_eps,2022.2.5,Win32,60.06727535,64528908f63d6e6beb01b877,64c7fed44a04f777bb1e18ce,64c80129bb1a734c35a29bc9,down,-1,0.75,0.2429,21,0,0.3336,,,,,,107,0,107,0,1,,,,,
,,324374,001,2023-07-31_12h47.45.222,arm3_eps,2022.2.5,Win32,60.06727535,64528908f63d6e6beb01b877,64c7fed44a04f777bb1e18ce,64c80129bb1a734c35a29bc9,right,-1,0.75,0.2429,21,-0.016520338,0.7473,,,,,,108,0,108,0,1,,,,,
,,324374,001,2023-07-31_12h47.45.222,arm3_eps,2022.2.5,Win32,60.06727535,64528908f63d6e6beb01b877,64c7fed44a04f777bb1e18ce,64c80129bb1a734c35a29bc9,right,-1,0.75,0.2429,21,-0.044364037,0.4344,,,,,,109,0,109,0,1,,,,,
,,324374,001,2023-07-31_12h47.45.222,arm3_eps,2022.2.5,Win32,60.06727535,64528908f63d6e6beb01b877,64c7fed44a04f777bb1e18ce,64c80129bb1a734c35a29bc9,down,-1,0.75,0.2429,22,0,0.2175,,,,,,110,0,110,0,1,,,,,
,,324374,001,2023-07-31_12h47.45.222,arm3_eps,2022.2.5,Win32,60.06727535,64528908f63d6e6beb01b877,64c7fed44a04f777bb1e18ce,64c80129bb1a734c35a29bc9,right,-1,0.75,0.2429,22,-0.029566414,0.4674,,,,,,111,0,111,0,1,,,,,
,,324374,001,2023-07-31_12h47.45.222,arm3_eps,2022.2.5,Win32,60.06727535,64528908f63d6e6beb01b877,64c7fed44a04f777bb1e18ce,64c80129bb1a734c35a29bc9,right,-1,0.75,0.2429,22,-0.0359232,0.3672,,,,,,112,0,112,0,1,,,,,
,,324374,001,2023-07-31_12h47.45.222,arm3_eps,2022.2.5,Win32,60.06727535,64528908f63d6e6beb01b877,64c7fed44a04f777bb1e18ce,64c80129bb1a734c35a29bc9,down,-1,0.75,0.2429,22,0,0.3344,,,,,,113,0,113,0,1,,,,,
,,324374,001,2023-07-31_12h47.45.222,arm3_eps,2022.2.5,Win32,60.06727535,64528908f63d6e6beb01b877,64c7fed44a04f777bb1e18ce,64c80129bb1a734c35a29bc9,right,-1,0.75,0.2429,22,0.011865163,0.9582,,,,,,114,0,114,0,1,,,,,
,,324374,001,2023-07-31_12h47.45.222,arm3_eps,2022.2.5,Win32,60.06727535,64528908f63d6e6beb01b877,64c7fed44a04f777bb1e18ce,64c80129bb1a734c35a29bc9,right,-1,0.75,0.2429,22,0.004137413,0.3174,,,,,,115,0,115,0,1,,,,,
,,324374,001,2023-07-31_12h47.45.222,arm3_eps,2022.2.5,Win32,60.06727535,64528908f63d6e6beb01b877,64c7fed44a04f777bb1e18ce,64c80129bb1a734c35a29bc9,right,-1,0.75,0.2429,22,-0.018749856,0.3004,,,,,,116,0,116,0,1,,,,,
,,324374,001,2023-07-31_12h47.45.222,arm3_eps,2022.2.5,Win32,60.06727535,64528908f63d6e6beb01b877,64c7fed44a04f777bb1e18ce,64c80129bb1a734c35a29bc9,right,-1,0.75,0.2429,22,-0.020686027,0.4553,,,,,,117,0,117,0,1,,,,,
,,324374,001,2023-07-31_12h47.45.222,arm3_eps,2022.2.5,Win32,60.06727535,64528908f63d6e6beb01b877,64c7fed44a04f777bb1e18ce,64c80129bb1a734c35a29bc9,down,-1,0.75,0.2429,23,0,0.5664,,,,,,118,0,118,0,1,,,,,
,,324374,001,2023-07-31_12h47.45.222,arm3_eps,2022.2.5,Win32,60.06727535,64528908f63d6e6beb01b877,64c7fed44a04f777bb1e18ce,64c80129bb1a734c35a29bc9,right,-1,0.75,0.2429,23,0.015690392,0.7465,,,,,,119,0,119,0,1,,,,,
,,324374,001,2023-07-31_12h47.45.222,arm3_eps,2022.2.5,Win32,60.06727535,64528908f63d6e6beb01b877,64c7fed44a04f777bb1e18ce,64c80129bb1a734c35a29bc9,right,-1,0.75,0.2429,23,0.011014176,0.3238,,,,,,120,0,120,0,1,,,,,
,,324374,001,2023-07-31_12h47.45.222,arm3_eps,2022.2.5,Win32,60.06727535,64528908f63d6e6beb01b877,64c7fed44a04f777bb1e18ce,64c80129bb1a734c35a29bc9,right,-1,0.75,0.2429,23,0.000780583,0.3999,,,,,,121,0,121,0,1,,,,,
,,324374,001,2023-07-31_12h47.45.222,arm3_eps,2022.2.5,Win32,60.06727535,64528908f63d6e6beb01b877,64c7fed44a04f777bb1e18ce,64c80129bb1a734c35a29bc9,right,-1,0.75,0.2429,23,0.015800571,0.3838,,,,,,122,0,122,0,1,,,,,
,,324374,001,2023-07-31_12h47.45.222,arm3_eps,2022.2.5,Win32,60.06727535,64528908f63d6e6beb01b877,64c7fed44a04f777bb1e18ce,64c80129bb1a734c35a29bc9,right,-1,0.75,0.2429,23,0.048531554,0.3512,,,,,,123,0,123,0,1,,,,,
,,324374,001,2023-07-31_12h47.45.222,arm3_eps,2022.2.5,Win32,60.06727535,64528908f63d6e6beb01b877,64c7fed44a04f777bb1e18ce,64c80129bb1a734c35a29bc9,up,-1,0.75,0.2429,22,0,0.2663,,,,,,124,0,124,0,1,,,,,
,,324374,001,2023-07-31_12h47.45.222,arm3_eps,2022.2.5,Win32,60.06727535,64528908f63d6e6beb01b877,64c7fed44a04f777bb1e18ce,64c80129bb1a734c35a29bc9,right,-1,0.75,0.2429,22,-0.028055305,1.1463,,,,,,125,0,125,0,1,,,,,
,,324374,001,2023-07-31_12h47.45.222,arm3_eps,2022.2.5,Win32,60.06727535,64528908f63d6e6beb01b877,64c7fed44a04f777bb1e18ce,64c80129bb1a734c35a29bc9,right,-1,0.75,0.2429,22,-0.015305426,0.4237,,,,,,126,0,126,0,1,,,,,
,,324374,001,2023-07-31_12h47.45.222,arm3_eps,2022.2.5,Win32,60.06727535,64528908f63d6e6beb01b877,64c7fed44a04f777bb1e18ce,64c80129bb1a734c35a29bc9,right,-1,0.75,0.2429,22,-0.038026539,0.3166,,,,,,127,0,127,0,1,,,,,
,,324374,001,2023-07-31_12h47.45.222,arm3_eps,2022.2.5,Win32,60.06727535,64528908f63d6e6beb01b877,64c7fed44a04f777bb1e18ce,64c80129bb1a734c35a29bc9,down,-1,0.75,0.2429,23,0,0.3888,,,,,,128,0,128,0,1,,,,,
,,324374,001,2023-07-31_12h47.45.222,arm3_eps,2022.2.5,Win32,60.06727535,64528908f63d6e6beb01b877,64c7fed44a04f777bb1e18ce,64c80129bb1a734c35a29bc9,right,-1,0.75,0.2429,23,-0.026103741,0.826,,,,,,129,0,129,0,1,,,,,
,,324374,001,2023-07-31_12h47.45.222,arm3_eps,2022.2.5,Win32,60.06727535,64528908f63d6e6beb01b877,64c7fed44a04f777bb1e18ce,64c80129bb1a734c35a29bc9,right,-1,0.75,0.2429,23,-0.039474782,0.2898,,,,,,130,0,130,0,1,,,,,
,,324374,001,2023-07-31_12h47.45.222,arm3_eps,2022.2.5,Win32,60.06727535,64528908f63d6e6beb01b877,64c7fed44a04f777bb1e18ce,64c80129bb1a734c35a29bc9,right,-1,0.75,0.2429,23,-0.045193628,0.3515,,,,,,131,0,131,0,1,,,,,
,,324374,001,2023-07-31_12h47.45.222,arm3_eps,2022.2.5,Win32,60.06727535,64528908f63d6e6beb01b877,64c7fed44a04f777bb1e18ce,64c80129bb1a734c35a29bc9,down,-1,0.75,0.2429,24,0,0.3825,,,,,,132,0,132,0,1,,,,,
,,324374,001,2023-07-31_12h47.45.222,arm3_eps,2022.2.5,Win32,60.06727535,64528908f63d6e6beb01b877,64c7fed44a04f777bb1e18ce,64c80129bb1a734c35a29bc9,right,-1,0.75,0.2429,24,0.027811838,1.2964,,,,,,133,0,133,0,1,,,,,
,,324374,001,2023-07-31_12h47.45.222,arm3_eps,2022.2.5,Win32,60.06727535,64528908f63d6e6beb01b877,64c7fed44a04f777bb1e18ce,64c80129bb1a734c35a29bc9,right,-1,0.75,0.2429,24,-0.006010379,0.3367,,,,,,134,0,134,0,1,,,,,
,,324374,001,2023-07-31_12h47.45.222,arm3_eps,2022.2.5,Win32,60.06727535,64528908f63d6e6beb01b877,64c7fed44a04f777bb1e18ce,64c80129bb1a734c35a29bc9,right,-1,0.75,0.2429,24,-0.005172451,0.3479,,,,,,135,0,135,0,1,,,,,
,,324374,001,2023-07-31_12h47.45.222,arm3_eps,2022.2.5,Win32,60.06727535,64528908f63d6e6beb01b877,64c7fed44a04f777bb1e18ce,64c80129bb1a734c35a29bc9,right,-1,0.75,0.2429,24,-0.017992816,0.4019,,,,,,136,0,136,0,1,,,,,
,,324374,001,2023-07-31_12h47.45.222,arm3_eps,2022.2.5,Win32,60.06727535,64528908f63d6e6beb01b877,64c7fed44a04f777bb1e18ce,64c80129bb1a734c35a29bc9,down,-1,0.75,0.2429,24,0,0.5057,,,,,,137,0,137,0,1,,,,,
,,324374,001,2023-07-31_12h47.45.222,arm3_eps,2022.2.5,Win32,60.06727535,64528908f63d6e6beb01b877,64c7fed44a04f777bb1e18ce,64c80129bb1a734c35a29bc9,right,-1,0.75,0.2429,24,0.024014971,1.0761,,,,,,138,0,138,0,1,,,,,
,,324374,001,2023-07-31_12h47.45.222,arm3_eps,2022.2.5,Win32,60.06727535,64528908f63d6e6beb01b877,64c7fed44a04f777bb1e18ce,64c80129bb1a734c35a29bc9,right,-1,0.75,0.2429,24,-0.011762223,0.2903,,,,,,139,0,139,0,1,,,,,
,,324374,001,2023-07-31_12h47.45.222,arm3_eps,2022.2.5,Win32,60.06727535,64528908f63d6e6beb01b877,64c7fed44a04f777bb1e18ce,64c80129bb1a734c35a29bc9,right,-1,0.75,0.2429,24,-0.018670972,0.7824,,,,,,140,0,140,0,1,,,,,
,,324374,001,2023-07-31_12h47.45.222,arm3_eps,2022.2.5,Win32,60.06727535,64528908f63d6e6beb01b877,64c7fed44a04f777bb1e18ce,64c80129bb1a734c35a29bc9,down,1,0.75,0.2429,24,0,0.3159,,,,,,141,0,141,0,1,,,,,
,,324374,001,2023-07-31_12h47.45.222,arm3_eps,2022.2.5,Win32,60.06727535,64528908f63d6e6beb01b877,64c7fed44a04f777bb1e18ce,64c80129bb1a734c35a29bc9,right,1,0.75,0.2429,24,0.009554701,1.0963,,,,,,142,0,142,0,1,,,,,
,,324374,001,2023-07-31_12h47.45.222,arm3_eps,2022.2.5,Win32,60.06727535,64528908f63d6e6beb01b877,64c7fed44a04f777bb1e18ce,64c80129bb1a734c35a29bc9,right,1,0.75,0.2429,24,0.019860499,0.2546,,,,,,143,0,143,0,1,,,,,
,,324374,001,2023-07-31_12h47.45.222,arm3_eps,2022.2.5,Win32,60.06727535,64528908f63d6e6beb01b877,64c7fed44a04f777bb1e18ce,64c80129bb1a734c35a29bc9,right,1,0.75,0.2429,24,-0.008593322,0.8651,,,,,,144,0,144,0,1,,,,,
,,324374,001,2023-07-31_12h47.45.222,arm3_eps,2022.2.5,Win32,60.06727535,64528908f63d6e6beb01b877,64c7fed44a04f777bb1e18ce,64c80129bb1a734c35a29bc9,down,1,0.75,0.2429,23,0,0.4361,,,,,,145,0,145,0,1,,,,,
,,324374,001,2023-07-31_12h47.45.222,arm3_eps,2022.2.5,Win32,60.06727535,64528908f63d6e6beb01b877,64c7fed44a04f777bb1e18ce,64c80129bb1a734c35a29bc9,right,1,0.75,0.2429,23,-0.019330836,0.8305,,,,,,146,0,146,0,1,,,,,
,,324374,001,2023-07-31_12h47.45.222,arm3_eps,2022.2.5,Win32,60.06727535,64528908f63d6e6beb01b877,64c7fed44a04f777bb1e18ce,64c80129bb1a734c35a29bc9,right,1,0.75,0.2429,23,-0.016940206,0.3827,,,,,,147,0,147,0,1,,,,,
,,324374,001,2023-07-31_12h47.45.222,arm3_eps,2022.2.5,Win32,60.06727535,64528908f63d6e6beb01b877,64c7fed44a04f777bb1e18ce,64c80129bb1a734c35a29bc9,right,1,0.75,0.2429,23,-0.02130085,0.3317,,,,,,148,0,148,0,1,,,,,
,,324374,001,2023-07-31_12h47.45.222,arm3_eps,2022.2.5,Win32,60.06727535,64528908f63d6e6beb01b877,64c7fed44a04f777bb1e18ce,64c80129bb1a734c35a29bc9,down,1,0.75,0.2429,23,0,0.4154,,,,,,149,0,149,0,1,,,,,
,,324374,001,2023-07-31_12h47.45.222,arm3_eps,2022.2.5,Win32,60.06727535,64528908f63d6e6beb01b877,64c7fed44a04f777bb1e18ce,64c80129bb1a734c35a29bc9,right,1,0.75,0.2429,23,0.00395652,0.944,,,,,,150,0,150,0,1,,,,,
,,324374,001,2023-07-31_12h47.45.222,arm3_eps,2022.2.5,Win32,60.06727535,64528908f63d6e6beb01b877,64c7fed44a04f777bb1e18ce,64c80129bb1a734c35a29bc9,right,1,0.75,0.2429,23,0.00964104,0.2311,,,,,,151,0,151,0,1,,,,,
,,324374,001,2023-07-31_12h47.45.222,arm3_eps,2022.2.5,Win32,60.06727535,64528908f63d6e6beb01b877,64c7fed44a04f777bb1e18ce,64c80129bb1a734c35a29bc9,right,1,0.75,0.2429,23,0.006842645,0.4221,,,,,,152,0,152,0,1,,,,,
,,324374,001,2023-07-31_12h47.45.222,arm3_eps,2022.2.5,Win32,60.06727535,64528908f63d6e6beb01b877,64c7fed44a04f777bb1e18ce,64c80129bb1a734c35a29bc9,up,-1,0.75,0.2429,24,0,0.432,,,,,,153,0,153,0,1,,,,,
,,324374,001,2023-07-31_12h47.45.222,arm3_eps,2022.2.5,Win32,60.06727535,64528908f63d6e6beb01b877,64c7fed44a04f777bb1e18ce,64c80129bb1a734c35a29bc9,right,-1,0.75,0.2429,24,-0.006918498,0.9164,,,,,,154,0,154,0,1,,,,,
,,324374,001,2023-07-31_12h47.45.222,arm3_eps,2022.2.5,Win32,60.06727535,64528908f63d6e6beb01b877,64c7fed44a04f777bb1e18ce,64c80129bb1a734c35a29bc9,right,-1,0.75,0.2429,24,0.000412517,0.2645,,,,,,155,0,155,0,1,,,,,
,,324374,001,2023-07-31_12h47.45.222,arm3_eps,2022.2.5,Win32,60.06727535,64528908f63d6e6beb01b877,64c7fed44a04f777bb1e18ce,64c80129bb1a734c35a29bc9,right,-1,0.75,0.2429,24,0.002456566,0.3548,,,,,,156,0,156,0,1,,,,,
,,324374,001,2023-07-31_12h47.45.222,arm3_eps,2022.2.5,Win32,60.06727535,64528908f63d6e6beb01b877,64c7fed44a04f777bb1e18ce,64c80129bb1a734c35a29bc9,right,-1,0.75,0.2429,24,-0.010632791,0.3818,,,,,,157,0,157,0,1,,,,,
,,324374,001,2023-07-31_12h47.45.222,arm3_eps,2022.2.5,Win32,60.06727535,64528908f63d6e6beb01b877,64c7fed44a04f777bb1e18ce,64c80129bb1a734c35a29bc9,right,-1,0.75,0.2429,24,-0.003423858,0.3815,,,,,,158,0,158,0,1,,,,,
,,324374,001,2023-07-31_12h47.45.222,arm3_eps,2022.2.5,Win32,60.06727535,64528908f63d6e6beb01b877,64c7fed44a04f777bb1e18ce,64c80129bb1a734c35a29bc9,right,-1,0.75,0.2429,24,-0.009459752,0.4806,,,,,,159,0,159,0,1,,,,,
,,324374,001,2023-07-31_12h47.45.222,arm3_eps,2022.2.5,Win32,60.06727535,64528908f63d6e6beb01b877,64c7fed44a04f777bb1e18ce,64c80129bb1a734c35a29bc9,down,1,0.75,0.2429,24,0,0.5723,,,,,,160,0,160,0,1,,,,,
,,324374,001,2023-07-31_12h47.45.222,arm3_eps,2022.2.5,Win32,60.06727535,64528908f63d6e6beb01b877,64c7fed44a04f777bb1e18ce,64c80129bb1a734c35a29bc9,right,1,0.75,0.2429,24,0.028791245,0.7945,,,,,,161,0,161,0,1,,,,,
,,324374,001,2023-07-31_12h47.45.222,arm3_eps,2022.2.5,Win32,60.06727535,64528908f63d6e6beb01b877,64c7fed44a04f777bb1e18ce,64c80129bb1a734c35a29bc9,right,1,0.75,0.2429,24,0.068489657,0.2223,,,,,,162,0,162,0,1,,,,,
,,324374,001,2023-07-31_12h47.45.222,arm3_eps,2022.2.5,Win32,60.06727535,64528908f63d6e6beb01b877,64c7fed44a04f777bb1e18ce,64c80129bb1a734c35a29bc9,right,1,0.75,0.2429,24,0.049308661,0.4416,,,,,,163,0,163,0,1,,,,,
,,324374,001,2023-07-31_12h47.45.222,arm3_eps,2022.2.5,Win32,60.06727535,64528908f63d6e6beb01b877,64c7fed44a04f777bb1e18ce,64c80129bb1a734c35a29bc9,right,1,0.75,0.2429,24,0.09078575,0.498,,,,,,164,0,164,0,1,,,,,
,,324374,001,2023-07-31_12h47.45.222,arm3_eps,2022.2.5,Win32,60.06727535,64528908f63d6e6beb01b877,64c7fed44a04f777bb1e18ce,64c80129bb1a734c35a29bc9,up,1,0.75,0.2429,24,0,0.2336,,,,,,165,0,165,0,1,,,,,
,,324374,001,2023-07-31_12h47.45.222,arm3_eps,2022.2.5,Win32,60.06727535,64528908f63d6e6beb01b877,64c7fed44a04f777bb1e18ce,64c80129bb1a734c35a29bc9,right,1,0.75,0.2429,24,0.010667481,0.8616,,,,,,166,0,166,0,1,,,,,
,,324374,001,2023-07-31_12h47.45.222,arm3_eps,2022.2.5,Win32,60.06727535,64528908f63d6e6beb01b877,64c7fed44a04f777bb1e18ce,64c80129bb1a734c35a29bc9,right,1,0.75,0.2429,24,0.050320845,0.3656,,,,,,167,0,167,0,1,,,,,
,,324374,001,2023-07-31_12h47.45.222,arm3_eps,2022.2.5,Win32,60.06727535,64528908f63d6e6beb01b877,64c7fed44a04f777bb1e18ce,64c80129bb1a734c35a29bc9,up,1,0.75,0.2429,25,0,0.7994,,,,,,168,0,168,0,1,,,,,
,,324374,001,2023-07-31_12h47.45.222,arm3_eps,2022.2.5,Win32,60.06727535,64528908f63d6e6beb01b877,64c7fed44a04f777bb1e18ce,64c80129bb1a734c35a29bc9,right,1,0.75,0.2429,25,0.004723781,0.8422,,,,,,169,0,169,0,1,,,,,
,,324374,001,2023-07-31_12h47.45.222,arm3_eps,2022.2.5,Win32,60.06727535,64528908f63d6e6beb01b877,64c7fed44a04f777bb1e18ce,64c80129bb1a734c35a29bc9,up,1,0.75,0.2429,26,0,0.3641,,,,,,170,0,170,0,1,,,,,
,,324374,001,2023-07-31_12h47.45.222,arm3_eps,2022.2.5,Win32,60.06727535,64528908f63d6e6beb01b877,64c7fed44a04f777bb1e18ce,64c80129bb1a734c35a29bc9,right,1,0.75,0.2429,26,0.022369244,0.7442,,,,,,171,0,171,0,1,,,,,
,,324374,001,2023-07-31_12h47.45.222,arm3_eps,2022.2.5,Win32,60.06727535,64528908f63d6e6beb01b877,64c7fed44a04f777bb1e18ce,64c80129bb1a734c35a29bc9,up,1,0.75,0.2429,27,0,0.3313,,,,,,172,0,172,0,1,,,,,
,,324374,001,2023-07-31_12h47.45.222,arm3_eps,2022.2.5,Win32,60.06727535,64528908f63d6e6beb01b877,64c7fed44a04f777bb1e18ce,64c80129bb1a734c35a29bc9,right,1,0.75,0.2429,27,-0.006394652,0.7606,,,,,,173,0,173,0,1,,,,,
,,324374,001,2023-07-31_12h47.45.222,arm3_eps,2022.2.5,Win32,60.06727535,64528908f63d6e6beb01b877,64c7fed44a04f777bb1e18ce,64c80129bb1a734c35a29bc9,up,1,0.75,0.2429,28,0,0.5989,,,,,,174,0,174,0,1,,,,,
,,324374,001,2023-07-31_12h47.45.222,arm3_eps,2022.2.5,Win32,60.06727535,64528908f63d6e6beb01b877,64c7fed44a04f777bb1e18ce,64c80129bb1a734c35a29bc9,right,1,0.75,0.2429,28,-0.005946274,0.7701,,,,,,175,0,175,0,1,,,,,
,,324374,001,2023-07-31_12h47.45.222,arm3_eps,2022.2.5,Win32,60.06727535,64528908f63d6e6beb01b877,64c7fed44a04f777bb1e18ce,64c80129bb1a734c35a29bc9,up,1,0.75,0.2429,29,0,0.4329,,,,,,176,0,176,0,1,,,,,
,,324374,001,2023-07-31_12h47.45.222,arm3_eps,2022.2.5,Win32,60.06727535,64528908f63d6e6beb01b877,64c7fed44a04f777bb1e18ce,64c80129bb1a734c35a29bc9,right,1,0.75,0.2429,29,-0.040188262,0.7679,,,,,,177,0,177,0,1,,,,,
,,324374,001,2023-07-31_12h47.45.222,arm3_eps,2022.2.5,Win32,60.06727535,64528908f63d6e6beb01b877,64c7fed44a04f777bb1e18ce,64c80129bb1a734c35a29bc9,right,1,0.75,0.2429,29,-0.016498079,1.739,,,,,,178,0,178,0,1,,,,,
,,324374,001,2023-07-31_12h47.45.222,arm3_eps,2022.2.5,Win32,60.06727535,64528908f63d6e6beb01b877,64c7fed44a04f777bb1e18ce,64c80129bb1a734c35a29bc9,right,1,0.75,0.2429,29,-0.035359139,0.3817,,,,,,179,0,179,0,1,,,,,
,,324374,001,2023-07-31_12h47.45.222,arm3_eps,2022.2.5,Win32,60.06727535,64528908f63d6e6beb01b877,64c7fed44a04f777bb1e18ce,64c80129bb1a734c35a29bc9,down,1,0.75,0.2429,28,0,0.3917,,,,,,180,0,180,0,1,,,,,
,,324374,001,2023-07-31_12h47.45.222,arm3_eps,2022.2.5,Win32,60.06727535,64528908f63d6e6beb01b877,64c7fed44a04f777bb1e18ce,64c80129bb1a734c35a29bc9,up,-1,0.75,0.2429,29,0,0.9966,,,,,,181,0,181,0,1,,,,,
,,324374,001,2023-07-31_12h47.45.222,arm3_eps,2022.2.5,Win32,60.06727535,64528908f63d6e6beb01b877,64c7fed44a04f777bb1e18ce,64c80129bb1a734c35a29bc9,down,-1,0.75,0.2429,30,0,1.3946,,,,,,182,0,182,0,1,,,,,
,,324374,001,2023-07-31_12h47.45.222,arm3_eps,2022.2.5,Win32,60.06727535,64528908f63d6e6beb01b877,64c7fed44a04f777bb1e18ce,64c80129bb1a734c35a29bc9,down,-1,0.75,0.2429,30,0,1.0977,,,,,,183,0,183,0,1,,,,,
,,324374,001,2023-07-31_12h47.45.222,arm3_eps,2022.2.5,Win32,60.06727535,64528908f63d6e6beb01b877,64c7fed44a04f777bb1e18ce,64c80129bb1a734c35a29bc9,up,-1,0.75,0.2429,30,0,1.0625,,,,,,184,0,184,0,1,,,,,
,,324374,001,2023-07-31_12h47.45.222,arm3_eps,2022.2.5,Win32,60.06727535,64528908f63d6e6beb01b877,64c7fed44a04f777bb1e18ce,64c80129bb1a734c35a29bc9,down,-1,0.75,0.2429,31,0,1.0108,,,,,,185,0,185,0,1,,,,,
,,324374,001,2023-07-31_12h47.45.222,arm3_eps,2022.2.5,Win32,60.06727535,64528908f63d6e6beb01b877,64c7fed44a04f777bb1e18ce,64c80129bb1a734c35a29bc9,up,-1,0.75,0.2429,30,0,1.1095,,,,,,186,0,186,0,1,,,,,
,,324374,001,2023-07-31_12h47.45.222,arm3_eps,2022.2.5,Win32,60.06727535,64528908f63d6e6beb01b877,64c7fed44a04f777bb1e18ce,64c80129bb1a734c35a29bc9,down,-1,0.75,0.2429,31,0,1.5178,,,,,,187,0,187,0,1,,,,,
,,324374,001,2023-07-31_12h47.45.222,arm3_eps,2022.2.5,Win32,60.06727535,64528908f63d6e6beb01b877,64c7fed44a04f777bb1e18ce,64c80129bb1a734c35a29bc9,down,1,0.75,0.2429,32,0,1.0006,,,,,,188,0,188,0,1,,,,,
,,324374,001,2023-07-31_12h47.45.222,arm3_eps,2022.2.5,Win32,60.06727535,64528908f63d6e6beb01b877,64c7fed44a04f777bb1e18ce,64c80129bb1a734c35a29bc9,down,1,0.75,0.2429,31,0,1.0839,,,,,,189,0,189,0,1,,,,,
,,324374,001,2023-07-31_12h47.45.222,arm3_eps,2022.2.5,Win32,60.06727535,64528908f63d6e6beb01b877,64c7fed44a04f777bb1e18ce,64c80129bb1a734c35a29bc9,down,1,0.75,0.2429,30,0,1.1834,,,,,,190,0,190,0,1,,,,,
,,324374,001,2023-07-31_12h47.45.222,arm3_eps,2022.2.5,Win32,60.06727535,64528908f63d6e6beb01b877,64c7fed44a04f777bb1e18ce,64c80129bb1a734c35a29bc9,up,1,0.75,0.2429,31,0,1.5978,,,,,,191,0,191,0,1,,,,,
,,324374,001,2023-07-31_12h47.45.222,arm3_eps,2022.2.5,Win32,60.06727535,64528908f63d6e6beb01b877,64c7fed44a04f777bb1e18ce,64c80129bb1a734c35a29bc9,up,1,0.75,0.2429,32,0,2.3534,,,,,,192,0,192,0,1,,,,,
,,324374,001,2023-07-31_12h47.45.222,arm3_eps,2022.2.5,Win32,60.06727535,64528908f63d6e6beb01b877,64c7fed44a04f777bb1e18ce,64c80129bb1a734c35a29bc9,up,1,0.75,0.2429,33,0,1.2026,,,,,,193,0,193,0,1,,,,,
,,324374,001,2023-07-31_12h47.45.222,arm3_eps,2022.2.5,Win32,60.06727535,64528908f63d6e6beb01b877,64c7fed44a04f777bb1e18ce,64c80129bb1a734c35a29bc9,up,1,0.75,0.2429,33,0,1.2155,,,,,,194,0,194,0,1,,,,,
,,324374,001,2023-07-31_12h47.45.222,arm3_eps,2022.2.5,Win32,60.06727535,64528908f63d6e6beb01b877,64c7fed44a04f777bb1e18ce,64c80129bb1a734c35a29bc9,up,1,0.75,0.2429,34,0,1.0681,,,,,,195,0,195,0,1,,,,,
,,324374,001,2023-07-31_12h47.45.222,arm3_eps,2022.2.5,Win32,60.06727535,64528908f63d6e6beb01b877,64c7fed44a04f777bb1e18ce,64c80129bb1a734c35a29bc9,up,1,0.75,0.2429,35,0,0.9148,,,,,,196,0,196,0,1,,,,,
,,324374,001,2023-07-31_12h47.45.222,arm3_eps,2022.2.5,Win32,60.06727535,64528908f63d6e6beb01b877,64c7fed44a04f777bb1e18ce,64c80129bb1a734c35a29bc9,down,-1,0.75,0.2429,35,0,1.114,,,,,,197,0,197,0,1,,,,,
,,324374,001,2023-07-31_12h47.45.222,arm3_eps,2022.2.5,Win32,60.06727535,64528908f63d6e6beb01b877,64c7fed44a04f777bb1e18ce,64c80129bb1a734c35a29bc9,down,1,0.75,0.2429,35,0,1.0802,,,,,,198,0,198,0,1,,,,,
,,324374,001,2023-07-31_12h47.45.222,arm3_eps,2022.2.5,Win32,60.06727535,64528908f63d6e6beb01b877,64c7fed44a04f777bb1e18ce,64c80129bb1a734c35a29bc9,down,-1,0.75,0.2429,34,0,0.979,,,,,,199,0,199,0,1,,,,,
,,324374,001,2023-07-31_12h47.45.222,arm3_eps,2022.2.5,Win32,60.06727535,64528908f63d6e6beb01b877,64c7fed44a04f777bb1e18ce,64c80129bb1a734c35a29bc9,down,-1,0.75,0.2429,35,0,1.2443,,,,,,200,0,200,0,1,,,,,
,,324374,001,2023-07-31_12h47.45.222,arm3_eps,2022.2.5,Win32,60.06727535,64528908f63d6e6beb01b877,64c7fed44a04f777bb1e18ce,64c80129bb1a734c35a29bc9,down,-1,0.75,0.2429,36,0,1.2,,,,,,201,0,201,0,1,,,,,
,,324374,001,2023-07-31_12h47.45.222,arm3_eps,2022.2.5,Win32,60.06727535,64528908f63d6e6beb01b877,64c7fed44a04f777bb1e18ce,64c80129bb1a734c35a29bc9,up,-1,0.75,0.2429,35,0,1.1341,,,,,,202,0,202,0,1,,,,,
,,324374,001,2023-07-31_12h47.45.222,arm3_eps,2022.2.5,Win32,60.06727535,64528908f63d6e6beb01b877,64c7fed44a04f777bb1e18ce,64c80129bb1a734c35a29bc9,down,-1,0.75,0.2429,36,0,1.0612,,,,,,203,0,203,0,1,,,,,
,,324374,001,2023-07-31_12h47.45.222,arm3_eps,2022.2.5,Win32,60.06727535,64528908f63d6e6beb01b877,64c7fed44a04f777bb1e18ce,64c80129bb1a734c35a29bc9,down,-1,0.75,0.2429,36,0,1.0849,,,,,,204,0,204,0,1,,,,,
,,324374,001,2023-07-31_12h47.45.222,arm3_eps,2022.2.5,Win32,60.06727535,64528908f63d6e6beb01b877,64c7fed44a04f777bb1e18ce,64c80129bb1a734c35a29bc9,down,1,0.75,0.2429,37,0,1.1341,,,,,,205,0,205,0,1,,,,,
,,324374,001,2023-07-31_12h47.45.222,arm3_eps,2022.2.5,Win32,60.06727535,64528908f63d6e6beb01b877,64c7fed44a04f777bb1e18ce,64c80129bb1a734c35a29bc9,up,1,0.75,0.2429,38,0,1.0609,,,,,,206,0,206,0,1,,,,,
,,324374,001,2023-07-31_12h47.45.222,arm3_eps,2022.2.5,Win32,60.06727535,64528908f63d6e6beb01b877,64c7fed44a04f777bb1e18ce,64c80129bb1a734c35a29bc9,down,-1,0.75,0.2429,37,0,1.0639,,,,,,207,0,207,0,1,,,,,
,,324374,001,2023-07-31_12h47.45.222,arm3_eps,2022.2.5,Win32,60.06727535,64528908f63d6e6beb01b877,64c7fed44a04f777bb1e18ce,64c80129bb1a734c35a29bc9,up,-1,0.75,0.2429,36,0,1.3753,,,,,,208,0,208,0,1,,,,,
,,324374,001,2023-07-31_12h47.45.222,arm3_eps,2022.2.5,Win32,60.06727535,64528908f63d6e6beb01b877,64c7fed44a04f777bb1e18ce,64c80129bb1a734c35a29bc9,right,-1,0.75,0.2429,36,-0.005018804,1.0271,,,,,,209,0,209,0,1,,,,,
,,324374,001,2023-07-31_12h47.45.222,arm3_eps,2022.2.5,Win32,60.06727535,64528908f63d6e6beb01b877,64c7fed44a04f777bb1e18ce,64c80129bb1a734c35a29bc9,right,-1,0.75,0.2429,36,0.002307712,0.3483,,,,,,210,0,210,0,1,,,,,
,,324374,001,2023-07-31_12h47.45.222,arm3_eps,2022.2.5,Win32,60.06727535,64528908f63d6e6beb01b877,64c7fed44a04f777bb1e18ce,64c80129bb1a734c35a29bc9,up,-1,0.75,0.2429,35,0,0.6331,,,,,,211,0,211,0,1,,,,,
,,324374,001,2023-07-31_12h47.45.222,arm3_eps,2022.2.5,Win32,60.06727535,64528908f63d6e6beb01b877,64c7fed44a04f777bb1e18ce,64c80129bb1a734c35a29bc9,down,-1,0.75,0.2429,35,0,1.3432,,,,,,212,0,212,0,1,,,,,
,,324374,001,2023-07-31_12h47.45.222,arm3_eps,2022.2.5,Win32,60.06727535,64528908f63d6e6beb01b877,64c7fed44a04f777bb1e18ce,64c80129bb1a734c35a29bc9,down,-1,0.75,0.2429,36,0,1.1259,,,,,,213,0,213,0,1,,,,,
,,324374,001,2023-07-31_12h47.45.222,arm3_eps,2022.2.5,Win32,60.06727535,64528908f63d6e6beb01b877,64c7fed44a04f777bb1e18ce,64c80129bb1a734c35a29bc9,down,-1,0.75,0.2429,37,0,1.9097,,,,,,214,0,214,0,1,,,,,
,,324374,001,2023-07-31_12h47.45.222,arm3_eps,2022.2.5,Win32,60.06727535,64528908f63d6e6beb01b877,64c7fed44a04f777bb1e18ce,64c80129bb1a734c35a29bc9,up,1,0.75,0.2429,36,0,1.1422,,,,,,215,0,215,0,1,,,,,
,,324374,001,2023-07-31_12h47.45.222,arm3_eps,2022.2.5,Win32,60.06727535,64528908f63d6e6beb01b877,64c7fed44a04f777bb1e18ce,64c80129bb1a734c35a29bc9,right,1,0.75,0.2429,36,-0.003890605,1.9776,,,,,,216,0,216,0,1,,,,,
,,324374,001,2023-07-31_12h47.45.222,arm3_eps,2022.2.5,Win32,60.06727535,64528908f63d6e6beb01b877,64c7fed44a04f777bb1e18ce,64c80129bb1a734c35a29bc9,right,1,0.75,0.2429,36,0.022474856,0.2161,,,,,,217,0,217,0,1,,,,,
,,324374,001,2023-07-31_12h47.45.222,arm3_eps,2022.2.5,Win32,60.06727535,64528908f63d6e6beb01b877,64c7fed44a04f777bb1e18ce,64c80129bb1a734c35a29bc9,down,-1,0.75,0.2429,36,0,0.7979,,,,,,218,0,218,0,1,,,,,
,,324374,001,2023-07-31_12h47.45.222,arm3_eps,2022.2.5,Win32,60.06727535,64528908f63d6e6beb01b877,64c7fed44a04f777bb1e18ce,64c80129bb1a734c35a29bc9,down,-1,0.75,0.2429,37,0,1.3817,,,,,,219,0,219,0,1,,,,,
,,324374,001,2023-07-31_12h47.45.222,arm3_eps,2022.2.5,Win32,60.06727535,64528908f63d6e6beb01b877,64c7fed44a04f777bb1e18ce,64c80129bb1a734c35a29bc9,down,1,0.75,0.2429,38,0,0.9825,,,,,,220,0,220,0,1,,,,,
,,324374,001,2023-07-31_12h47.45.222,arm3_eps,2022.2.5,Win32,60.06727535,64528908f63d6e6beb01b877,64c7fed44a04f777bb1e18ce,64c80129bb1a734c35a29bc9,right,1,0.75,0.2429,38,4.3566E-05,2.0184,,,,,,221,0,221,0,1,,,,,
,,324374,001,2023-07-31_12h47.45.222,arm3_eps,2022.2.5,Win32,60.06727535,64528908f63d6e6beb01b877,64c7fed44a04f777bb1e18ce,64c80129bb1a734c35a29bc9,right,1,0.75,0.2429,38,-0.004202824,0.2498,,,,,,222,0,222,0,1,,,,,
,,324374,001,2023-07-31_12h47.45.222,arm3_eps,2022.2.5,Win32,60.06727535,64528908f63d6e6beb01b877,64c7fed44a04f777bb1e18ce,64c80129bb1a734c35a29bc9,right,1,0.75,0.2429,38,4.03427E-05,0.5535,,,,,,223,0,223,0,1,,,,,
,,324374,001,2023-07-31_12h47.45.222,arm3_eps,2022.2.5,Win32,60.06727535,64528908f63d6e6beb01b877,64c7fed44a04f777bb1e18ce,64c80129bb1a734c35a29bc9,up,1,0.75,0.2429,38,0,0.5329,,,,,,224,0,224,0,1,,,,,
,,324374,001,2023-07-31_12h47.45.222,arm3_eps,2022.2.5,Win32,60.06727535,64528908f63d6e6beb01b877,64c7fed44a04f777bb1e18ce,64c80129bb1a734c35a29bc9,up,-1,0.75,0.2429,39,0,2.6926,,,,,,225,0,225,0,1,,,,,
,,324374,001,2023-07-31_12h47.45.222,arm3_eps,2022.2.5,Win32,60.06727535,64528908f63d6e6beb01b877,64c7fed44a04f777bb1e18ce,64c80129bb1a734c35a29bc9,down,-1,0.75,0.2429,40,0,3.0428,,,,,,226,0,226,0,1,,,,,
,,324374,001,2023-07-31_12h47.45.222,arm3_eps,2022.2.5,Win32,60.06727535,64528908f63d6e6beb01b877,64c7fed44a04f777bb1e18ce,64c80129bb1a734c35a29bc9,down,1,0.75,0.2429,40,0,1.3229,,,,,,227,0,227,0,1,,,,,
,,324374,001,2023-07-31_12h47.45.222,arm3_eps,2022.2.5,Win32,60.06727535,64528908f63d6e6beb01b877,64c7fed44a04f777bb1e18ce,64c80129bb1a734c35a29bc9,up,1,0.75,0.2429,40,0,1.1344,,,,,,228,0,228,0,1,,,,,
,,324374,001,2023-07-31_12h47.45.222,arm3_eps,2022.2.5,Win32,60.06727535,64528908f63d6e6beb01b877,64c7fed44a04f777bb1e18ce,64c80129bb1a734c35a29bc9,up,1,0.75,0.2429,41,0,1.0326,,,,,,229,0,229,0,1,,,,,
,,324374,001,2023-07-31_12h47.45.222,arm3_eps,2022.2.5,Win32,60.06727535,64528908f63d6e6beb01b877,64c7fed44a04f777bb1e18ce,64c80129bb1a734c35a29bc9,down,1,0.75,0.2429,41,0,1.0832,,,,,,230,0,230,0,1,,,,,
,,324374,001,2023-07-31_12h47.45.222,arm3_eps,2022.2.5,Win32,60.06727535,64528908f63d6e6beb01b877,64c7fed44a04f777bb1e18ce,64c80129bb1a734c35a29bc9,down,1,0.75,0.2429,40,0,1.0842,,,,,,231,0,231,0,1,,,,,
,,324374,001,2023-07-31_12h47.45.222,arm3_eps,2022.2.5,Win32,60.06727535,64528908f63d6e6beb01b877,64c7fed44a04f777bb1e18ce,64c80129bb1a734c35a29bc9,up,1,0.75,0.2429,41,0,0.9674,,,,,,232,0,232,0,1,,,,,
,,324374,001,2023-07-31_12h47.45.222,arm3_eps,2022.2.5,Win32,60.06727535,64528908f63d6e6beb01b877,64c7fed44a04f777bb1e18ce,64c80129bb1a734c35a29bc9,up,1,0.75,0.2429,42,0,0.9329,,,,,,233,0,233,0,1,,,,,
,,324374,001,2023-07-31_12h47.45.222,arm3_eps,2022.2.5,Win32,60.06727535,64528908f63d6e6beb01b877,64c7fed44a04f777bb1e18ce,64c80129bb1a734c35a29bc9,up,1,0.75,0.2429,43,0,0.9507,,,,,,234,0,234,0,1,,,,,
,,324374,001,2023-07-31_12h47.45.222,arm3_eps,2022.2.5,Win32,60.06727535,64528908f63d6e6beb01b877,64c7fed44a04f777bb1e18ce,64c80129bb1a734c35a29bc9,up,-1,0.75,0.2429,43,0,0.8998,,,,,,235,0,235,0,1,,,,,
,,324374,001,2023-07-31_12h47.45.222,arm3_eps,2022.2.5,Win32,60.06727535,64528908f63d6e6beb01b877,64c7fed44a04f777bb1e18ce,64c80129bb1a734c35a29bc9,down,-1,0.75,0.2429,44,0,1.1172,,,,,,236,0,236,0,1,,,,,
,,324374,001,2023-07-31_12h47.45.222,arm3_eps,2022.2.5,Win32,60.06727535,64528908f63d6e6beb01b877,64c7fed44a04f777bb1e18ce,64c80129bb1a734c35a29bc9,down,1,0.75,0.2429,45,0,1.0367,,,,,,237,0,237,0,1,,,,,
,,324374,001,2023-07-31_12h47.45.222,arm3_eps,2022.2.5,Win32,60.06727535,64528908f63d6e6beb01b877,64c7fed44a04f777bb1e18ce,64c80129bb1a734c35a29bc9,up,1,0.75,0.2429,45,0,1.066,,,,,,238,0,238,0,1,,,,,
,,324374,001,2023-07-31_12h47.45.222,arm3_eps,2022.2.5,Win32,60.06727535,64528908f63d6e6beb01b877,64c7fed44a04f777bb1e18ce,64c80129bb1a734c35a29bc9,down,-1,0.75,0.2429,44,0,0.9983,,,,,,239,0,239,0,1,,,,,
,,324374,001,2023-07-31_12h47.45.222,arm3_eps,2022.2.5,Win32,60.06727535,64528908f63d6e6beb01b877,64c7fed44a04f777bb1e18ce,64c80129bb1a734c35a29bc9,down,-1,0.75,0.2429,45,0,1.231,,,,,,240,0,240,0,1,,,,,
,,324374,001,2023-07-31_12h47.45.222,arm3_eps,2022.2.5,Win32,60.06727535,64528908f63d6e6beb01b877,64c7fed44a04f777bb1e18ce,64c80129bb1a734c35a29bc9,down,1,0.75,0.2429,45,0,1.065,,,,,,241,0,241,0,1,,,,,
,,324374,001,2023-07-31_12h47.45.222,arm3_eps,2022.2.5,Win32,60.06727535,64528908f63d6e6beb01b877,64c7fed44a04f777bb1e18ce,64c80129bb1a734c35a29bc9,up,1,0.75,0.2429,45,0,1.1847,,,,,,242,0,242,0,1,,,,,
,,324374,001,2023-07-31_12h47.45.222,arm3_eps,2022.2.5,Win32,60.06727535,64528908f63d6e6beb01b877,64c7fed44a04f777bb1e18ce,64c80129bb1a734c35a29bc9,up,-1,0.75,0.2429,46,0,1.0177,,,,,,243,0,243,0,1,,,,,
,,324374,001,2023-07-31_12h47.45.222,arm3_eps,2022.2.5,Win32,60.06727535,64528908f63d6e6beb01b877,64c7fed44a04f777bb1e18ce,64c80129bb1a734c35a29bc9,down,1,0.75,0.2429,46,0,1.2133,,,,,,244,0,244,0,1,,,,,
,,324374,001,2023-07-31_12h47.45.222,arm3_eps,2022.2.5,Win32,60.06727535,64528908f63d6e6beb01b877,64c7fed44a04f777bb1e18ce,64c80129bb1a734c35a29bc9,up,1,0.75,0.2429,46,0,0.9966,,,,,,245,0,245,0,1,,,,,
,,324374,001,2023-07-31_12h47.45.222,arm3_eps,2022.2.5,Win32,60.06727535,64528908f63d6e6beb01b877,64c7fed44a04f777bb1e18ce,64c80129bb1a734c35a29bc9,up,1,0.75,0.2429,47,0,0.9957,,,,,,246,0,246,0,1,,,,,
,,324374,001,2023-07-31_12h47.45.222,arm3_eps,2022.2.5,Win32,60.06727535,64528908f63d6e6beb01b877,64c7fed44a04f777bb1e18ce,64c80129bb1a734c35a29bc9,up,1,0.75,0.2429,47,0,0.9293,,,,,,247,0,247,0,1,,,,,
,,324374,001,2023-07-31_12h47.45.222,arm3_eps,2022.2.5,Win32,60.06727535,64528908f63d6e6beb01b877,64c7fed44a04f777bb1e18ce,64c80129bb1a734c35a29bc9,down,1,0.75,0.2429,46,0,1.1302,,,,,,248,0,248,0,1,,,,,
,,324374,001,2023-07-31_12h47.45.222,arm3_eps,2022.2.5,Win32,60.06727535,64528908f63d6e6beb01b877,64c7fed44a04f777bb1e18ce,64c80129bb1a734c35a29bc9,down,1,0.75,0.2429,45,0,1.2438,,,,,,249,0,249,0,1,,,,,
,,324374,001,2023-07-31_12h47.45.222,arm3_eps,2022.2.5,Win32,60.06727535,64528908f63d6e6beb01b877,64c7fed44a04f777bb1e18ce,64c80129bb1a734c35a29bc9,up,1,0.75,0.2429,46,0,0.927,,,,,,250,0,250,0,1,,,,,
,,324374,001,2023-07-31_12h47.45.222,arm3_eps,2022.2.5,Win32,60.06727535,64528908f63d6e6beb01b877,64c7fed44a04f777bb1e18ce,64c80129bb1a734c35a29bc9,up,-1,0.75,0.2429,47,0,0.9524,,,,,,251,0,251,0,1,,,,,
,,324374,001,2023-07-31_12h47.45.222,arm3_eps,2022.2.5,Win32,60.06727535,64528908f63d6e6beb01b877,64c7fed44a04f777bb1e18ce,64c80129bb1a734c35a29bc9,up,-1,0.75,0.2429,46,0,0.9264,,,,,,252,0,252,0,1,,,,,
,,324374,001,2023-07-31_12h47.45.222,arm3_eps,2022.2.5,Win32,60.06727535,64528908f63d6e6beb01b877,64c7fed44a04f777bb1e18ce,64c80129bb1a734c35a29bc9,down,-1,0.75,0.2429,47,0,1.1085,,,,,,253,0,253,0,1,,,,,
,,324374,001,2023-07-31_12h47.45.222,arm3_eps,2022.2.5,Win32,60.06727535,64528908f63d6e6beb01b877,64c7fed44a04f777bb1e18ce,64c80129bb1a734c35a29bc9,down,-1,0.75,0.2429,48,0,1.1573,,,,,,254,0,254,0,1,,,,,
,,324374,001,2023-07-31_12h47.45.222,arm3_eps,2022.2.5,Win32,60.06727535,64528908f63d6e6beb01b877,64c7fed44a04f777bb1e18ce,64c80129bb1a734c35a29bc9,up,-1,0.75,0.2429,47,0,1.167,,,,,,255,0,255,0,1,,,,,
,,324374,001,2023-07-31_12h47.45.222,arm3_eps,2022.2.5,Win32,60.06727535,64528908f63d6e6beb01b877,64c7fed44a04f777bb1e18ce,64c80129bb1a734c35a29bc9,down,1,0.75,0.2429,48,0,1.3437,,,,,,256,0,256,0,1,,,,,
,,324374,001,2023-07-31_12h47.45.222,arm3_eps,2022.2.5,Win32,60.06727535,64528908f63d6e6beb01b877,64c7fed44a04f777bb1e18ce,64c80129bb1a734c35a29bc9,up,-1,0.75,0.2429,49,0,1.1426,,,,,,257,0,257,0,1,,,,,
,,324374,001,2023-07-31_12h47.45.222,arm3_eps,2022.2.5,Win32,60.06727535,64528908f63d6e6beb01b877,64c7fed44a04f777bb1e18ce,64c80129bb1a734c35a29bc9,down,-1,0.75,0.2429,50,0,1.4798,,,,,,258,0,258,0,1,,,,,
,,324374,001,2023-07-31_12h47.45.222,arm3_eps,2022.2.5,Win32,60.06727535,64528908f63d6e6beb01b877,64c7fed44a04f777bb1e18ce,64c80129bb1a734c35a29bc9,right,-1,0.75,0.2429,50,-0.007561668,421.587,,,,,,259,0,259,0,1,,,,,
,,324374,001,2023-07-31_12h47.45.222,arm3_eps,2022.2.5,Win32,60.06727535,64528908f63d6e6beb01b877,64c7fed44a04f777bb1e18ce,64c80129bb1a734c35a29bc9,right,-1,0.75,0.2429,50,-0.009117945,0.9678,,,,,,260,0,260,0,1,,,,,
