space_bar.keys,space_bar.rt,participant,session,date,expName,psychopyVersion,OS,frameRate,PROLIFIC_PID,STUDY_ID,SESSION_ID,resp.keys,state,q_prob,eps_prob,score,price,resp.rt,train.thisRepN,train.thisTrialN,train.thisN,train.thisIndex,train.ran,steps.thisRepN,steps.thisTrialN,steps.thisN,steps.thisIndex,steps.ran,blocks.thisRepN,blocks.thisTrialN,blocks.thisN,blocks.thisIndex,blocks.ran
space,24.1434,326872,001,2023-07-31_20h50.03.645,arm3_eps,2022.2.5,Win32,59.93048064,60d1004080fadfada90afbe6,64c7fed44a04f777bb1e18ce,64c801f4d40b93ae556bc6f7,,,,,,,,,,,,,,,,,,,,,,
space,3.3106,326872,001,2023-07-31_20h50.03.645,arm3_eps,2022.2.5,Win32,59.93048064,60d1004080fadfada90afbe6,64c7fed44a04f777bb1e18ce,64c801f4d40b93ae556bc6f7,,,,,,,,,,,,,,,,,,,,,,
space,15.8572,326872,001,2023-07-31_20h50.03.645,arm3_eps,2022.2.5,Win32,59.93048064,60d1004080fadfada90afbe6,64c7fed44a04f777bb1e18ce,64c801f4d40b93ae556bc6f7,,,,,,,,,,,,,,,,,,,,,,
space,15.1882,326872,001,2023-07-31_20h50.03.645,arm3_eps,2022.2.5,Win32,59.93048064,60d1004080fadfada90afbe6,64c7fed44a04f777bb1e18ce,64c801f4d40b93ae556bc6f7,,,,,,,,,,,,,,,,,,,,,,
space,26.7112,326872,001,2023-07-31_20h50.03.645,arm3_eps,2022.2.5,Win32,59.93048064,60d1004080fadfada90afbe6,64c7fed44a04f777bb1e18ce,64c801f4d40b93ae556bc6f7,,,,,,,,,,,,,,,,,,,,,,
space,7.9174,326872,001,2023-07-31_20h50.03.645,arm3_eps,2022.2.5,Win32,59.93048064,60d1004080fadfada90afbe6,64c7fed44a04f777bb1e18ce,64c801f4d40b93ae556bc6f7,,,,,,,,,,,,,,,,,,,,,,
space,1.8724,326872,001,2023-07-31_20h50.03.645,arm3_eps,2022.2.5,Win32,59.93048064,60d1004080fadfada90afbe6,64c7fed44a04f777bb1e18ce,64c801f4d40b93ae556bc6f7,,,,,,,,,,,,,,,,,,,,,,
,,326872,001,2023-07-31_20h50.03.645,arm3_eps,2022.2.5,Win32,59.93048064,60d1004080fadfada90afbe6,64c7fed44a04f777bb1e18ce,64c801f4d40b93ae556bc6f7,up,1,1,0.2429,1,0,2.7743,0,0,0,0,1,,,,,,,,,,
,,326872,001,2023-07-31_20h50.03.645,arm3_eps,2022.2.5,Win32,59.93048064,60d1004080fadfada90afbe6,64c7fed44a04f777bb1e18ce,64c801f4d40b93ae556bc6f7,up,-1,1,0.2429,2,0,2.3858,1,0,1,0,1,,,,,,,,,,
,,326872,001,2023-07-31_20h50.03.645,arm3_eps,2022.2.5,Win32,59.93048064,60d1004080fadfada90afbe6,64c7fed44a04f777bb1e18ce,64c801f4d40b93ae556bc6f7,up,-1,1,0.2429,1,0,2.1933,2,0,2,0,1,,,,,,,,,,
,,326872,001,2023-07-31_20h50.03.645,arm3_eps,2022.2.5,Win32,59.93048064,60d1004080fadfada90afbe6,64c7fed44a04f777bb1e18ce,64c801f4d40b93ae556bc6f7,down,-1,1,0.2429,2,0,1.3366,3,0,3,0,1,,,,,,,,,,
,,326872,001,2023-07-31_20h50.03.645,arm3_eps,2022.2.5,Win32,59.93048064,60d1004080fadfada90afbe6,64c7fed44a04f777bb1e18ce,64c801f4d40b93ae556bc6f7,right,-1,1,0.2429,2,0.005409255,2.49,4,0,4,0,1,,,,,,,,,,
,,326872,001,2023-07-31_20h50.03.645,arm3_eps,2022.2.5,Win32,59.93048064,60d1004080fadfada90afbe6,64c7fed44a04f777bb1e18ce,64c801f4d40b93ae556bc6f7,down,1,1,0.2429,3,0,2.3457,5,0,5,0,1,,,,,,,,,,
,,326872,001,2023-07-31_20h50.03.645,arm3_eps,2022.2.5,Win32,59.93048064,60d1004080fadfada90afbe6,64c7fed44a04f777bb1e18ce,64c801f4d40b93ae556bc6f7,down,1,1,0.2429,2,0,1.8164,6,0,6,0,1,,,,,,,,,,
,,326872,001,2023-07-31_20h50.03.645,arm3_eps,2022.2.5,Win32,59.93048064,60d1004080fadfada90afbe6,64c7fed44a04f777bb1e18ce,64c801f4d40b93ae556bc6f7,up,1,1,0.2429,3,0,2.0127,7,0,7,0,1,,,,,,,,,,
,,326872,001,2023-07-31_20h50.03.645,arm3_eps,2022.2.5,Win32,59.93048064,60d1004080fadfada90afbe6,64c7fed44a04f777bb1e18ce,64c801f4d40b93ae556bc6f7,down,1,1,0.2429,2,0,1.8314,8,0,8,0,1,,,,,,,,,,
,,326872,001,2023-07-31_20h50.03.645,arm3_eps,2022.2.5,Win32,59.93048064,60d1004080fadfada90afbe6,64c7fed44a04f777bb1e18ce,64c801f4d40b93ae556bc6f7,right,1,1,0.2429,2,0.017235454,1.8025,9,0,9,0,1,,,,,,,,,,
,,326872,001,2023-07-31_20h50.03.645,arm3_eps,2022.2.5,Win32,59.93048064,60d1004080fadfada90afbe6,64c7fed44a04f777bb1e18ce,64c801f4d40b93ae556bc6f7,up,1,1,0.2429,3,0,3.1103,10,0,10,0,1,,,,,,,,,,
,,326872,001,2023-07-31_20h50.03.645,arm3_eps,2022.2.5,Win32,59.93048064,60d1004080fadfada90afbe6,64c7fed44a04f777bb1e18ce,64c801f4d40b93ae556bc6f7,right,1,1,0.2429,3,-0.004463414,1.372,11,0,11,0,1,,,,,,,,,,
,,326872,001,2023-07-31_20h50.03.645,arm3_eps,2022.2.5,Win32,59.93048064,60d1004080fadfada90afbe6,64c7fed44a04f777bb1e18ce,64c801f4d40b93ae556bc6f7,right,1,1,0.2429,3,0.026648328,1.1448,12,0,12,0,1,,,,,,,,,,
,,326872,001,2023-07-31_20h50.03.645,arm3_eps,2022.2.5,Win32,59.93048064,60d1004080fadfada90afbe6,64c7fed44a04f777bb1e18ce,64c801f4d40b93ae556bc6f7,up,-1,1,0.2429,4,0,1.2866,13,0,13,0,1,,,,,,,,,,
,,326872,001,2023-07-31_20h50.03.645,arm3_eps,2022.2.5,Win32,59.93048064,60d1004080fadfada90afbe6,64c7fed44a04f777bb1e18ce,64c801f4d40b93ae556bc6f7,right,-1,1,0.2429,4,0.008608522,1.4022,14,0,14,0,1,,,,,,,,,,
,,326872,001,2023-07-31_20h50.03.645,arm3_eps,2022.2.5,Win32,59.93048064,60d1004080fadfada90afbe6,64c7fed44a04f777bb1e18ce,64c801f4d40b93ae556bc6f7,right,-1,1,0.2429,4,-0.001512146,0.6492,15,0,15,0,1,,,,,,,,,,
,,326872,001,2023-07-31_20h50.03.645,arm3_eps,2022.2.5,Win32,59.93048064,60d1004080fadfada90afbe6,64c7fed44a04f777bb1e18ce,64c801f4d40b93ae556bc6f7,right,-1,1,0.2429,4,0.009687017,0.4674,16,0,16,0,1,,,,,,,,,,
,,326872,001,2023-07-31_20h50.03.645,arm3_eps,2022.2.5,Win32,59.93048064,60d1004080fadfada90afbe6,64c7fed44a04f777bb1e18ce,64c801f4d40b93ae556bc6f7,right,-1,1,0.2429,4,-0.011518127,0.3701,17,0,17,0,1,,,,,,,,,,
,,326872,001,2023-07-31_20h50.03.645,arm3_eps,2022.2.5,Win32,59.93048064,60d1004080fadfada90afbe6,64c7fed44a04f777bb1e18ce,64c801f4d40b93ae556bc6f7,right,-1,1,0.2429,4,-0.017066524,0.3479,18,0,18,0,1,,,,,,,,,,
,,326872,001,2023-07-31_20h50.03.645,arm3_eps,2022.2.5,Win32,59.93048064,60d1004080fadfada90afbe6,64c7fed44a04f777bb1e18ce,64c801f4d40b93ae556bc6f7,right,-1,1,0.2429,4,-0.041659728,0.3678,19,0,19,0,1,,,,,,,,,,
,,326872,001,2023-07-31_20h50.03.645,arm3_eps,2022.2.5,Win32,59.93048064,60d1004080fadfada90afbe6,64c7fed44a04f777bb1e18ce,64c801f4d40b93ae556bc6f7,right,-1,1,0.2429,4,-0.035307165,0.4512,20,0,20,0,1,,,,,,,,,,
,,326872,001,2023-07-31_20h50.03.645,arm3_eps,2022.2.5,Win32,59.93048064,60d1004080fadfada90afbe6,64c7fed44a04f777bb1e18ce,64c801f4d40b93ae556bc6f7,down,-1,1,0.2429,5,0,0.6356,21,0,21,0,1,,,,,,,,,,
,,326872,001,2023-07-31_20h50.03.645,arm3_eps,2022.2.5,Win32,59.93048064,60d1004080fadfada90afbe6,64c7fed44a04f777bb1e18ce,64c801f4d40b93ae556bc6f7,right,-1,1,0.2429,5,0.007440943,1.9609,22,0,22,0,1,,,,,,,,,,
,,326872,001,2023-07-31_20h50.03.645,arm3_eps,2022.2.5,Win32,59.93048064,60d1004080fadfada90afbe6,64c7fed44a04f777bb1e18ce,64c801f4d40b93ae556bc6f7,right,-1,1,0.2429,5,0.008363516,0.3983,23,0,23,0,1,,,,,,,,,,
,,326872,001,2023-07-31_20h50.03.645,arm3_eps,2022.2.5,Win32,59.93048064,60d1004080fadfada90afbe6,64c7fed44a04f777bb1e18ce,64c801f4d40b93ae556bc6f7,right,-1,1,0.2429,5,0.004678212,0.3175,24,0,24,0,1,,,,,,,,,,
,,326872,001,2023-07-31_20h50.03.645,arm3_eps,2022.2.5,Win32,59.93048064,60d1004080fadfada90afbe6,64c7fed44a04f777bb1e18ce,64c801f4d40b93ae556bc6f7,right,-1,1,0.2429,5,-0.028675662,0.3693,25,0,25,0,1,,,,,,,,,,
,,326872,001,2023-07-31_20h50.03.645,arm3_eps,2022.2.5,Win32,59.93048064,60d1004080fadfada90afbe6,64c7fed44a04f777bb1e18ce,64c801f4d40b93ae556bc6f7,right,-1,1,0.2429,5,-0.041359623,0.3174,26,0,26,0,1,,,,,,,,,,
,,326872,001,2023-07-31_20h50.03.645,arm3_eps,2022.2.5,Win32,59.93048064,60d1004080fadfada90afbe6,64c7fed44a04f777bb1e18ce,64c801f4d40b93ae556bc6f7,right,-1,1,0.2429,5,-0.017765257,0.367,27,0,27,0,1,,,,,,,,,,
,,326872,001,2023-07-31_20h50.03.645,arm3_eps,2022.2.5,Win32,59.93048064,60d1004080fadfada90afbe6,64c7fed44a04f777bb1e18ce,64c801f4d40b93ae556bc6f7,right,-1,1,0.2429,5,-0.035696299,0.3102,28,0,28,0,1,,,,,,,,,,
,,326872,001,2023-07-31_20h50.03.645,arm3_eps,2022.2.5,Win32,59.93048064,60d1004080fadfada90afbe6,64c7fed44a04f777bb1e18ce,64c801f4d40b93ae556bc6f7,right,-1,1,0.2429,5,-0.041201369,0.3019,29,0,29,0,1,,,,,,,,,,
,,326872,001,2023-07-31_20h50.03.645,arm3_eps,2022.2.5,Win32,59.93048064,60d1004080fadfada90afbe6,64c7fed44a04f777bb1e18ce,64c801f4d40b93ae556bc6f7,right,-1,1,0.2429,5,-0.038391288,0.2852,30,0,30,0,1,,,,,,,,,,
,,326872,001,2023-07-31_20h50.03.645,arm3_eps,2022.2.5,Win32,59.93048064,60d1004080fadfada90afbe6,64c7fed44a04f777bb1e18ce,64c801f4d40b93ae556bc6f7,down,-1,1,0.2429,6,0,1.2193,31,0,31,0,1,,,,,,,,,,
,,326872,001,2023-07-31_20h50.03.645,arm3_eps,2022.2.5,Win32,59.93048064,60d1004080fadfada90afbe6,64c7fed44a04f777bb1e18ce,64c801f4d40b93ae556bc6f7,right,-1,1,0.2429,6,0.006395346,1.6744,32,0,32,0,1,,,,,,,,,,
,,326872,001,2023-07-31_20h50.03.645,arm3_eps,2022.2.5,Win32,59.93048064,60d1004080fadfada90afbe6,64c7fed44a04f777bb1e18ce,64c801f4d40b93ae556bc6f7,right,-1,1,0.2429,6,-0.029928069,0.3663,33,0,33,0,1,,,,,,,,,,
,,326872,001,2023-07-31_20h50.03.645,arm3_eps,2022.2.5,Win32,59.93048064,60d1004080fadfada90afbe6,64c7fed44a04f777bb1e18ce,64c801f4d40b93ae556bc6f7,right,-1,1,0.2429,6,-0.016709777,0.4453,34,0,34,0,1,,,,,,,,,,
,,326872,001,2023-07-31_20h50.03.645,arm3_eps,2022.2.5,Win32,59.93048064,60d1004080fadfada90afbe6,64c7fed44a04f777bb1e18ce,64c801f4d40b93ae556bc6f7,right,-1,1,0.2429,6,-0.01164284,0.3724,35,0,35,0,1,,,,,,,,,,
,,326872,001,2023-07-31_20h50.03.645,arm3_eps,2022.2.5,Win32,59.93048064,60d1004080fadfada90afbe6,64c7fed44a04f777bb1e18ce,64c801f4d40b93ae556bc6f7,right,-1,1,0.2429,6,-0.024721579,0.344,36,0,36,0,1,,,,,,,,,,
,,326872,001,2023-07-31_20h50.03.645,arm3_eps,2022.2.5,Win32,59.93048064,60d1004080fadfada90afbe6,64c7fed44a04f777bb1e18ce,64c801f4d40b93ae556bc6f7,right,-1,1,0.2429,6,-0.037273144,0.3157,37,0,37,0,1,,,,,,,,,,
,,326872,001,2023-07-31_20h50.03.645,arm3_eps,2022.2.5,Win32,59.93048064,60d1004080fadfada90afbe6,64c7fed44a04f777bb1e18ce,64c801f4d40b93ae556bc6f7,down,-1,1,0.2429,7,0,0.5634,38,0,38,0,1,,,,,,,,,,
,,326872,001,2023-07-31_20h50.03.645,arm3_eps,2022.2.5,Win32,59.93048064,60d1004080fadfada90afbe6,64c7fed44a04f777bb1e18ce,64c801f4d40b93ae556bc6f7,right,-1,1,0.2429,7,-0.013594491,1.5612,39,0,39,0,1,,,,,,,,,,
,,326872,001,2023-07-31_20h50.03.645,arm3_eps,2022.2.5,Win32,59.93048064,60d1004080fadfada90afbe6,64c7fed44a04f777bb1e18ce,64c801f4d40b93ae556bc6f7,right,-1,1,0.2429,7,-0.005679768,0.5,40,0,40,0,1,,,,,,,,,,
,,326872,001,2023-07-31_20h50.03.645,arm3_eps,2022.2.5,Win32,59.93048064,60d1004080fadfada90afbe6,64c7fed44a04f777bb1e18ce,64c801f4d40b93ae556bc6f7,right,-1,1,0.2429,7,-0.024386741,0.5021,41,0,41,0,1,,,,,,,,,,
,,326872,001,2023-07-31_20h50.03.645,arm3_eps,2022.2.5,Win32,59.93048064,60d1004080fadfada90afbe6,64c7fed44a04f777bb1e18ce,64c801f4d40b93ae556bc6f7,right,-1,1,0.2429,7,-0.023220286,0.262,42,0,42,0,1,,,,,,,,,,
,,326872,001,2023-07-31_20h50.03.645,arm3_eps,2022.2.5,Win32,59.93048064,60d1004080fadfada90afbe6,64c7fed44a04f777bb1e18ce,64c801f4d40b93ae556bc6f7,right,-1,1,0.2429,7,-0.022693305,0.3027,43,0,43,0,1,,,,,,,,,,
,,326872,001,2023-07-31_20h50.03.645,arm3_eps,2022.2.5,Win32,59.93048064,60d1004080fadfada90afbe6,64c7fed44a04f777bb1e18ce,64c801f4d40b93ae556bc6f7,right,-1,1,0.2429,7,-0.026547418,0.3229,44,0,44,0,1,,,,,,,,,,
,,326872,001,2023-07-31_20h50.03.645,arm3_eps,2022.2.5,Win32,59.93048064,60d1004080fadfada90afbe6,64c7fed44a04f777bb1e18ce,64c801f4d40b93ae556bc6f7,down,1,1,0.2429,8,0,0.7502,45,0,45,0,1,,,,,,,,,,
,,326872,001,2023-07-31_20h50.03.645,arm3_eps,2022.2.5,Win32,59.93048064,60d1004080fadfada90afbe6,64c7fed44a04f777bb1e18ce,64c801f4d40b93ae556bc6f7,right,1,1,0.2429,8,0.014669441,1.3428,46,0,46,0,1,,,,,,,,,,
,,326872,001,2023-07-31_20h50.03.645,arm3_eps,2022.2.5,Win32,59.93048064,60d1004080fadfada90afbe6,64c7fed44a04f777bb1e18ce,64c801f4d40b93ae556bc6f7,right,1,1,0.2429,8,0.038077024,0.4656,47,0,47,0,1,,,,,,,,,,
,,326872,001,2023-07-31_20h50.03.645,arm3_eps,2022.2.5,Win32,59.93048064,60d1004080fadfada90afbe6,64c7fed44a04f777bb1e18ce,64c801f4d40b93ae556bc6f7,right,1,1,0.2429,8,0.038149199,0.4334,48,0,48,0,1,,,,,,,,,,
,,326872,001,2023-07-31_20h50.03.645,arm3_eps,2022.2.5,Win32,59.93048064,60d1004080fadfada90afbe6,64c7fed44a04f777bb1e18ce,64c801f4d40b93ae556bc6f7,up,1,1,0.2429,8,0.038149199,0.5221,49,0,49,0,1,,,,,,,,,,
space,17.5558,326872,001,2023-07-31_20h50.03.645,arm3_eps,2022.2.5,Win32,59.93048064,60d1004080fadfada90afbe6,64c7fed44a04f777bb1e18ce,64c801f4d40b93ae556bc6f7,,,,,,,,,,,,,,,,,,,,,,
space,12.2711,326872,001,2023-07-31_20h50.03.645,arm3_eps,2022.2.5,Win32,59.93048064,60d1004080fadfada90afbe6,64c7fed44a04f777bb1e18ce,64c801f4d40b93ae556bc6f7,,,,,,,,,,,,,,,,,,,,,,
space,7.114,326872,001,2023-07-31_20h50.03.645,arm3_eps,2022.2.5,Win32,59.93048064,60d1004080fadfada90afbe6,64c7fed44a04f777bb1e18ce,64c801f4d40b93ae556bc6f7,,,,,,,,,,,,,,,,,,,,,,
space,4.3661,326872,001,2023-07-31_20h50.03.645,arm3_eps,2022.2.5,Win32,59.93048064,60d1004080fadfada90afbe6,64c7fed44a04f777bb1e18ce,64c801f4d40b93ae556bc6f7,,,,,,,,,,,,,,,,,,,,,,
space,6.0813,326872,001,2023-07-31_20h50.03.645,arm3_eps,2022.2.5,Win32,59.93048064,60d1004080fadfada90afbe6,64c7fed44a04f777bb1e18ce,64c801f4d40b93ae556bc6f7,,,,,,,,,,,,,,,,,,,,,,
space,1.547,326872,001,2023-07-31_20h50.03.645,arm3_eps,2022.2.5,Win32,59.93048064,60d1004080fadfada90afbe6,64c7fed44a04f777bb1e18ce,64c801f4d40b93ae556bc6f7,,,,,,,,,,,,,,,,,,,,,,
,,326872,001,2023-07-31_20h50.03.645,arm3_eps,2022.2.5,Win32,59.93048064,60d1004080fadfada90afbe6,64c7fed44a04f777bb1e18ce,64c801f4d40b93ae556bc6f7,right,1,0.75,0.2429,0,0.034679867,2.9814,0,0,0,0,1,,,,,,,,,,
,,326872,001,2023-07-31_20h50.03.645,arm3_eps,2022.2.5,Win32,59.93048064,60d1004080fadfada90afbe6,64c7fed44a04f777bb1e18ce,64c801f4d40b93ae556bc6f7,up,1,0.75,0.2429,1,0,2.0086,1,0,1,0,1,,,,,,,,,,
,,326872,001,2023-07-31_20h50.03.645,arm3_eps,2022.2.5,Win32,59.93048064,60d1004080fadfada90afbe6,64c7fed44a04f777bb1e18ce,64c801f4d40b93ae556bc6f7,right,1,0.75,0.2429,1,-0.002342326,1.8224,2,0,2,0,1,,,,,,,,,,
,,326872,001,2023-07-31_20h50.03.645,arm3_eps,2022.2.5,Win32,59.93048064,60d1004080fadfada90afbe6,64c7fed44a04f777bb1e18ce,64c801f4d40b93ae556bc6f7,right,1,0.75,0.2429,1,0.014514505,0.725,3,0,3,0,1,,,,,,,,,,
,,326872,001,2023-07-31_20h50.03.645,arm3_eps,2022.2.5,Win32,59.93048064,60d1004080fadfada90afbe6,64c7fed44a04f777bb1e18ce,64c801f4d40b93ae556bc6f7,up,1,0.75,0.2429,2,0,0.91,4,0,4,0,1,,,,,,,,,,
,,326872,001,2023-07-31_20h50.03.645,arm3_eps,2022.2.5,Win32,59.93048064,60d1004080fadfada90afbe6,64c7fed44a04f777bb1e18ce,64c801f4d40b93ae556bc6f7,right,1,0.75,0.2429,2,0.002455902,1.3921,5,0,5,0,1,,,,,,,,,,
,,326872,001,2023-07-31_20h50.03.645,arm3_eps,2022.2.5,Win32,59.93048064,60d1004080fadfada90afbe6,64c7fed44a04f777bb1e18ce,64c801f4d40b93ae556bc6f7,right,1,0.75,0.2429,2,0.006184998,0.9787,6,0,6,0,1,,,,,,,,,,
,,326872,001,2023-07-31_20h50.03.645,arm3_eps,2022.2.5,Win32,59.93048064,60d1004080fadfada90afbe6,64c7fed44a04f777bb1e18ce,64c801f4d40b93ae556bc6f7,right,1,0.75,0.2429,2,0.027135047,0.4665,7,0,7,0,1,,,,,,,,,,
,,326872,001,2023-07-31_20h50.03.645,arm3_eps,2022.2.5,Win32,59.93048064,60d1004080fadfada90afbe6,64c7fed44a04f777bb1e18ce,64c801f4d40b93ae556bc6f7,up,1,0.75,0.2429,3,0,1.0296,8,0,8,0,1,,,,,,,,,,
,,326872,001,2023-07-31_20h50.03.645,arm3_eps,2022.2.5,Win32,59.93048064,60d1004080fadfada90afbe6,64c7fed44a04f777bb1e18ce,64c801f4d40b93ae556bc6f7,right,1,0.75,0.2429,3,0.004350574,1.2685,9,0,9,0,1,,,,,,,,,,
,,326872,001,2023-07-31_20h50.03.645,arm3_eps,2022.2.5,Win32,59.93048064,60d1004080fadfada90afbe6,64c7fed44a04f777bb1e18ce,64c801f4d40b93ae556bc6f7,right,1,0.75,0.2429,3,0.024586731,0.6092,10,0,10,0,1,,,,,,,,,,
,,326872,001,2023-07-31_20h50.03.645,arm3_eps,2022.2.5,Win32,59.93048064,60d1004080fadfada90afbe6,64c7fed44a04f777bb1e18ce,64c801f4d40b93ae556bc6f7,right,1,0.75,0.2429,3,0.029350592,0.4959,11,0,11,0,1,,,,,,,,,,
,,326872,001,2023-07-31_20h50.03.645,arm3_eps,2022.2.5,Win32,59.93048064,60d1004080fadfada90afbe6,64c7fed44a04f777bb1e18ce,64c801f4d40b93ae556bc6f7,right,1,0.75,0.2429,3,0.029376212,0.4665,12,0,12,0,1,,,,,,,,,,
,,326872,001,2023-07-31_20h50.03.645,arm3_eps,2022.2.5,Win32,59.93048064,60d1004080fadfada90afbe6,64c7fed44a04f777bb1e18ce,64c801f4d40b93ae556bc6f7,right,1,0.75,0.2429,3,-0.002357345,0.5514,13,0,13,0,1,,,,,,,,,,
,,326872,001,2023-07-31_20h50.03.645,arm3_eps,2022.2.5,Win32,59.93048064,60d1004080fadfada90afbe6,64c7fed44a04f777bb1e18ce,64c801f4d40b93ae556bc6f7,right,1,0.75,0.2429,3,-0.009775672,0.5285,14,0,14,0,1,,,,,,,,,,
,,326872,001,2023-07-31_20h50.03.645,arm3_eps,2022.2.5,Win32,59.93048064,60d1004080fadfada90afbe6,64c7fed44a04f777bb1e18ce,64c801f4d40b93ae556bc6f7,right,1,0.75,0.2429,3,-0.006731569,0.4294,15,0,15,0,1,,,,,,,,,,
,,326872,001,2023-07-31_20h50.03.645,arm3_eps,2022.2.5,Win32,59.93048064,60d1004080fadfada90afbe6,64c7fed44a04f777bb1e18ce,64c801f4d40b93ae556bc6f7,right,1,0.75,0.2429,3,-0.021130956,0.5644,16,0,16,0,1,,,,,,,,,,
,,326872,001,2023-07-31_20h50.03.645,arm3_eps,2022.2.5,Win32,59.93048064,60d1004080fadfada90afbe6,64c7fed44a04f777bb1e18ce,64c801f4d40b93ae556bc6f7,right,1,0.75,0.2429,3,-0.022761894,0.3853,17,0,17,0,1,,,,,,,,,,
,,326872,001,2023-07-31_20h50.03.645,arm3_eps,2022.2.5,Win32,59.93048064,60d1004080fadfada90afbe6,64c7fed44a04f777bb1e18ce,64c801f4d40b93ae556bc6f7,right,1,0.75,0.2429,3,-0.012845376,0.6392,18,0,18,0,1,,,,,,,,,,
,,326872,001,2023-07-31_20h50.03.645,arm3_eps,2022.2.5,Win32,59.93048064,60d1004080fadfada90afbe6,64c7fed44a04f777bb1e18ce,64c801f4d40b93ae556bc6f7,right,1,0.75,0.2429,3,0.011569402,0.4956,19,0,19,0,1,,,,,,,,,,
,,326872,001,2023-07-31_20h50.03.645,arm3_eps,2022.2.5,Win32,59.93048064,60d1004080fadfada90afbe6,64c7fed44a04f777bb1e18ce,64c801f4d40b93ae556bc6f7,right,1,0.75,0.2429,3,0.040597595,0.3942,20,0,20,0,1,,,,,,,,,,
,,326872,001,2023-07-31_20h50.03.645,arm3_eps,2022.2.5,Win32,59.93048064,60d1004080fadfada90afbe6,64c7fed44a04f777bb1e18ce,64c801f4d40b93ae556bc6f7,up,1,0.75,0.2429,4,0,1.6081,21,0,21,0,1,,,,,,,,,,
,,326872,001,2023-07-31_20h50.03.645,arm3_eps,2022.2.5,Win32,59.93048064,60d1004080fadfada90afbe6,64c7fed44a04f777bb1e18ce,64c801f4d40b93ae556bc6f7,right,1,0.75,0.2429,4,0.01751617,1.4604,22,0,22,0,1,,,,,,,,,,
,,326872,001,2023-07-31_20h50.03.645,arm3_eps,2022.2.5,Win32,59.93048064,60d1004080fadfada90afbe6,64c7fed44a04f777bb1e18ce,64c801f4d40b93ae556bc6f7,right,1,0.75,0.2429,4,0.016060153,0.3993,23,0,23,0,1,,,,,,,,,,
,,326872,001,2023-07-31_20h50.03.645,arm3_eps,2022.2.5,Win32,59.93048064,60d1004080fadfada90afbe6,64c7fed44a04f777bb1e18ce,64c801f4d40b93ae556bc6f7,right,1,0.75,0.2429,4,0.004301621,0.3553,24,0,24,0,1,,,,,,,,,,
,,326872,001,2023-07-31_20h50.03.645,arm3_eps,2022.2.5,Win32,59.93048064,60d1004080fadfada90afbe6,64c7fed44a04f777bb1e18ce,64c801f4d40b93ae556bc6f7,right,1,0.75,0.2429,4,0.015443821,0.418,25,0,25,0,1,,,,,,,,,,
,,326872,001,2023-07-31_20h50.03.645,arm3_eps,2022.2.5,Win32,59.93048064,60d1004080fadfada90afbe6,64c7fed44a04f777bb1e18ce,64c801f4d40b93ae556bc6f7,right,1,0.75,0.2429,4,-0.030868661,0.3687,26,0,26,0,1,,,,,,,,,,
,,326872,001,2023-07-31_20h50.03.645,arm3_eps,2022.2.5,Win32,59.93048064,60d1004080fadfada90afbe6,64c7fed44a04f777bb1e18ce,64c801f4d40b93ae556bc6f7,right,1,0.75,0.2429,4,-0.038808281,0.5678,27,0,27,0,1,,,,,,,,,,
,,326872,001,2023-07-31_20h50.03.645,arm3_eps,2022.2.5,Win32,59.93048064,60d1004080fadfada90afbe6,64c7fed44a04f777bb1e18ce,64c801f4d40b93ae556bc6f7,right,1,0.75,0.2429,4,-0.026150666,0.3005,28,0,28,0,1,,,,,,,,,,
,,326872,001,2023-07-31_20h50.03.645,arm3_eps,2022.2.5,Win32,59.93048064,60d1004080fadfada90afbe6,64c7fed44a04f777bb1e18ce,64c801f4d40b93ae556bc6f7,right,1,0.75,0.2429,4,-0.012120717,0.3137,29,0,29,0,1,,,,,,,,,,
,,326872,001,2023-07-31_20h50.03.645,arm3_eps,2022.2.5,Win32,59.93048064,60d1004080fadfada90afbe6,64c7fed44a04f777bb1e18ce,64c801f4d40b93ae556bc6f7,right,1,0.75,0.2429,4,0.003961564,0.286,30,0,30,0,1,,,,,,,,,,
,,326872,001,2023-07-31_20h50.03.645,arm3_eps,2022.2.5,Win32,59.93048064,60d1004080fadfada90afbe6,64c7fed44a04f777bb1e18ce,64c801f4d40b93ae556bc6f7,right,1,0.75,0.2429,4,-0.016241235,0.26,31,0,31,0,1,,,,,,,,,,
,,326872,001,2023-07-31_20h50.03.645,arm3_eps,2022.2.5,Win32,59.93048064,60d1004080fadfada90afbe6,64c7fed44a04f777bb1e18ce,64c801f4d40b93ae556bc6f7,right,1,0.75,0.2429,4,-0.019828017,0.3276,32,0,32,0,1,,,,,,,,,,
,,326872,001,2023-07-31_20h50.03.645,arm3_eps,2022.2.5,Win32,59.93048064,60d1004080fadfada90afbe6,64c7fed44a04f777bb1e18ce,64c801f4d40b93ae556bc6f7,right,1,0.75,0.2429,4,0.00587736,0.2813,33,0,33,0,1,,,,,,,,,,
,,326872,001,2023-07-31_20h50.03.645,arm3_eps,2022.2.5,Win32,59.93048064,60d1004080fadfada90afbe6,64c7fed44a04f777bb1e18ce,64c801f4d40b93ae556bc6f7,up,1,0.75,0.2429,5,0,2.1145,34,0,34,0,1,,,,,,,,,,
,,326872,001,2023-07-31_20h50.03.645,arm3_eps,2022.2.5,Win32,59.93048064,60d1004080fadfada90afbe6,64c7fed44a04f777bb1e18ce,64c801f4d40b93ae556bc6f7,right,1,0.75,0.2429,5,0.022402666,1.424,35,0,35,0,1,,,,,,,,,,
,,326872,001,2023-07-31_20h50.03.645,arm3_eps,2022.2.5,Win32,59.93048064,60d1004080fadfada90afbe6,64c7fed44a04f777bb1e18ce,64c801f4d40b93ae556bc6f7,right,1,0.75,0.2429,5,0.039719703,0.3336,36,0,36,0,1,,,,,,,,,,
,,326872,001,2023-07-31_20h50.03.645,arm3_eps,2022.2.5,Win32,59.93048064,60d1004080fadfada90afbe6,64c7fed44a04f777bb1e18ce,64c801f4d40b93ae556bc6f7,right,1,0.75,0.2429,5,0.078014179,0.2966,37,0,37,0,1,,,,,,,,,,
,,326872,001,2023-07-31_20h50.03.645,arm3_eps,2022.2.5,Win32,59.93048064,60d1004080fadfada90afbe6,64c7fed44a04f777bb1e18ce,64c801f4d40b93ae556bc6f7,right,1,0.75,0.2429,5,0.080611581,0.283,38,0,38,0,1,,,,,,,,,,
,,326872,001,2023-07-31_20h50.03.645,arm3_eps,2022.2.5,Win32,59.93048064,60d1004080fadfada90afbe6,64c7fed44a04f777bb1e18ce,64c801f4d40b93ae556bc6f7,right,1,0.75,0.2429,5,0.096157498,0.2511,39,0,39,0,1,,,,,,,,,,
,,326872,001,2023-07-31_20h50.03.645,arm3_eps,2022.2.5,Win32,59.93048064,60d1004080fadfada90afbe6,64c7fed44a04f777bb1e18ce,64c801f4d40b93ae556bc6f7,right,1,0.75,0.2429,5,0.10087379,0.2609,40,0,40,0,1,,,,,,,,,,
,,326872,001,2023-07-31_20h50.03.645,arm3_eps,2022.2.5,Win32,59.93048064,60d1004080fadfada90afbe6,64c7fed44a04f777bb1e18ce,64c801f4d40b93ae556bc6f7,right,1,0.75,0.2429,5,0.120653212,0.2487,41,0,41,0,1,,,,,,,,,,
,,326872,001,2023-07-31_20h50.03.645,arm3_eps,2022.2.5,Win32,59.93048064,60d1004080fadfada90afbe6,64c7fed44a04f777bb1e18ce,64c801f4d40b93ae556bc6f7,right,1,0.75,0.2429,5,0.120958222,0.2506,42,0,42,0,1,,,,,,,,,,
,,326872,001,2023-07-31_20h50.03.645,arm3_eps,2022.2.5,Win32,59.93048064,60d1004080fadfada90afbe6,64c7fed44a04f777bb1e18ce,64c801f4d40b93ae556bc6f7,right,1,0.75,0.2429,5,0.096591959,0.1608,43,0,43,0,1,,,,,,,,,,
,,326872,001,2023-07-31_20h50.03.645,arm3_eps,2022.2.5,Win32,59.93048064,60d1004080fadfada90afbe6,64c7fed44a04f777bb1e18ce,64c801f4d40b93ae556bc6f7,right,1,0.75,0.2429,5,0.07832017,0.3336,44,0,44,0,1,,,,,,,,,,
,,326872,001,2023-07-31_20h50.03.645,arm3_eps,2022.2.5,Win32,59.93048064,60d1004080fadfada90afbe6,64c7fed44a04f777bb1e18ce,64c801f4d40b93ae556bc6f7,right,1,0.75,0.2429,5,0.098492074,0.2325,45,0,45,0,1,,,,,,,,,,
,,326872,001,2023-07-31_20h50.03.645,arm3_eps,2022.2.5,Win32,59.93048064,60d1004080fadfada90afbe6,64c7fed44a04f777bb1e18ce,64c801f4d40b93ae556bc6f7,right,1,0.75,0.2429,5,0.074033465,0.2597,46,0,46,0,1,,,,,,,,,,
,,326872,001,2023-07-31_20h50.03.645,arm3_eps,2022.2.5,Win32,59.93048064,60d1004080fadfada90afbe6,64c7fed44a04f777bb1e18ce,64c801f4d40b93ae556bc6f7,up,-1,0.75,0.2429,5,0,0.8154,47,0,47,0,1,,,,,,,,,,
,,326872,001,2023-07-31_20h50.03.645,arm3_eps,2022.2.5,Win32,59.93048064,60d1004080fadfada90afbe6,64c7fed44a04f777bb1e18ce,64c801f4d40b93ae556bc6f7,right,-1,0.75,0.2429,5,0.018794172,1.4833,48,0,48,0,1,,,,,,,,,,
,,326872,001,2023-07-31_20h50.03.645,arm3_eps,2022.2.5,Win32,59.93048064,60d1004080fadfada90afbe6,64c7fed44a04f777bb1e18ce,64c801f4d40b93ae556bc6f7,right,-1,0.75,0.2429,5,-0.022783075,0.3987,49,0,49,0,1,,,,,,,,,,
space,9.6541,326872,001,2023-07-31_20h50.03.645,arm3_eps,2022.2.5,Win32,59.93048064,60d1004080fadfada90afbe6,64c7fed44a04f777bb1e18ce,64c801f4d40b93ae556bc6f7,,,,,,,,,,,,,,,,,,,,,,
space,9.9762,326872,001,2023-07-31_20h50.03.645,arm3_eps,2022.2.5,Win32,59.93048064,60d1004080fadfada90afbe6,64c7fed44a04f777bb1e18ce,64c801f4d40b93ae556bc6f7,,,,,,,,,,,,,,,,,,,,,,
space,1.197,326872,001,2023-07-31_20h50.03.645,arm3_eps,2022.2.5,Win32,59.93048064,60d1004080fadfada90afbe6,64c7fed44a04f777bb1e18ce,64c801f4d40b93ae556bc6f7,,,,,,,,,,,,,,,,,,,,,,
,,326872,001,2023-07-31_20h50.03.645,arm3_eps,2022.2.5,Win32,59.93048064,60d1004080fadfada90afbe6,64c7fed44a04f777bb1e18ce,64c801f4d40b93ae556bc6f7,right,-1,0.75,0.05,0,-0.012626489,1.2344,0,0,0,0,1,,,,,,,,,,
,,326872,001,2023-07-31_20h50.03.645,arm3_eps,2022.2.5,Win32,59.93048064,60d1004080fadfada90afbe6,64c7fed44a04f777bb1e18ce,64c801f4d40b93ae556bc6f7,right,-1,0.75,0.05,0,-0.024262411,0.3473,1,0,1,0,1,,,,,,,,,,
,,326872,001,2023-07-31_20h50.03.645,arm3_eps,2022.2.5,Win32,59.93048064,60d1004080fadfada90afbe6,64c7fed44a04f777bb1e18ce,64c801f4d40b93ae556bc6f7,right,-1,0.75,0.05,0,-0.011266243,0.2813,2,0,2,0,1,,,,,,,,,,
,,326872,001,2023-07-31_20h50.03.645,arm3_eps,2022.2.5,Win32,59.93048064,60d1004080fadfada90afbe6,64c7fed44a04f777bb1e18ce,64c801f4d40b93ae556bc6f7,right,-1,0.75,0.05,0,-0.006945117,0.2445,3,0,3,0,1,,,,,,,,,,
,,326872,001,2023-07-31_20h50.03.645,arm3_eps,2022.2.5,Win32,59.93048064,60d1004080fadfada90afbe6,64c7fed44a04f777bb1e18ce,64c801f4d40b93ae556bc6f7,right,-1,0.75,0.05,0,-0.006557547,0.2117,4,0,4,0,1,,,,,,,,,,
,,326872,001,2023-07-31_20h50.03.645,arm3_eps,2022.2.5,Win32,59.93048064,60d1004080fadfada90afbe6,64c7fed44a04f777bb1e18ce,64c801f4d40b93ae556bc6f7,right,-1,0.75,0.05,0,-0.007521476,0.201,5,0,5,0,1,,,,,,,,,,
,,326872,001,2023-07-31_20h50.03.645,arm3_eps,2022.2.5,Win32,59.93048064,60d1004080fadfada90afbe6,64c7fed44a04f777bb1e18ce,64c801f4d40b93ae556bc6f7,right,-1,0.75,0.05,0,0.020062983,0.151,6,0,6,0,1,,,,,,,,,,
,,326872,001,2023-07-31_20h50.03.645,arm3_eps,2022.2.5,Win32,59.93048064,60d1004080fadfada90afbe6,64c7fed44a04f777bb1e18ce,64c801f4d40b93ae556bc6f7,right,-1,0.75,0.05,0,-0.000409936,0.1443,7,0,7,0,1,,,,,,,,,,
,,326872,001,2023-07-31_20h50.03.645,arm3_eps,2022.2.5,Win32,59.93048064,60d1004080fadfada90afbe6,64c7fed44a04f777bb1e18ce,64c801f4d40b93ae556bc6f7,right,-1,0.75,0.05,0,-0.030854187,0.1931,8,0,8,0,1,,,,,,,,,,
,,326872,001,2023-07-31_20h50.03.645,arm3_eps,2022.2.5,Win32,59.93048064,60d1004080fadfada90afbe6,64c7fed44a04f777bb1e18ce,64c801f4d40b93ae556bc6f7,right,-1,0.75,0.05,0,-0.016972314,0.1827,9,0,9,0,1,,,,,,,,,,
,,326872,001,2023-07-31_20h50.03.645,arm3_eps,2022.2.5,Win32,59.93048064,60d1004080fadfada90afbe6,64c7fed44a04f777bb1e18ce,64c801f4d40b93ae556bc6f7,right,-1,0.75,0.05,0,-0.024413591,0.2118,10,0,10,0,1,,,,,,,,,,
,,326872,001,2023-07-31_20h50.03.645,arm3_eps,2022.2.5,Win32,59.93048064,60d1004080fadfada90afbe6,64c7fed44a04f777bb1e18ce,64c801f4d40b93ae556bc6f7,right,-1,0.75,0.05,0,-0.004725661,0.229,11,0,11,0,1,,,,,,,,,,
,,326872,001,2023-07-31_20h50.03.645,arm3_eps,2022.2.5,Win32,59.93048064,60d1004080fadfada90afbe6,64c7fed44a04f777bb1e18ce,64c801f4d40b93ae556bc6f7,down,-1,0.75,0.05,1,0,1.0117,12,0,12,0,1,,,,,,,,,,
,,326872,001,2023-07-31_20h50.03.645,arm3_eps,2022.2.5,Win32,59.93048064,60d1004080fadfada90afbe6,64c7fed44a04f777bb1e18ce,64c801f4d40b93ae556bc6f7,right,-1,0.75,0.05,1,-0.016309351,0.9386,13,0,13,0,1,,,,,,,,,,
,,326872,001,2023-07-31_20h50.03.645,arm3_eps,2022.2.5,Win32,59.93048064,60d1004080fadfada90afbe6,64c7fed44a04f777bb1e18ce,64c801f4d40b93ae556bc6f7,right,-1,0.75,0.05,1,-0.031035246,0.2533,14,0,14,0,1,,,,,,,,,,
,,326872,001,2023-07-31_20h50.03.645,arm3_eps,2022.2.5,Win32,59.93048064,60d1004080fadfada90afbe6,64c7fed44a04f777bb1e18ce,64c801f4d40b93ae556bc6f7,right,-1,0.75,0.05,1,-0.035596039,0.1628,15,0,15,0,1,,,,,,,,,,
,,326872,001,2023-07-31_20h50.03.645,arm3_eps,2022.2.5,Win32,59.93048064,60d1004080fadfada90afbe6,64c7fed44a04f777bb1e18ce,64c801f4d40b93ae556bc6f7,right,-1,0.75,0.05,1,-0.044437177,0.1601,16,0,16,0,1,,,,,,,,,,
,,326872,001,2023-07-31_20h50.03.645,arm3_eps,2022.2.5,Win32,59.93048064,60d1004080fadfada90afbe6,64c7fed44a04f777bb1e18ce,64c801f4d40b93ae556bc6f7,right,-1,0.75,0.05,1,-0.074240817,0.1585,17,0,17,0,1,,,,,,,,,,
,,326872,001,2023-07-31_20h50.03.645,arm3_eps,2022.2.5,Win32,59.93048064,60d1004080fadfada90afbe6,64c7fed44a04f777bb1e18ce,64c801f4d40b93ae556bc6f7,right,-1,0.75,0.05,1,-0.107289184,0.1365,18,0,18,0,1,,,,,,,,,,
,,326872,001,2023-07-31_20h50.03.645,arm3_eps,2022.2.5,Win32,59.93048064,60d1004080fadfada90afbe6,64c7fed44a04f777bb1e18ce,64c801f4d40b93ae556bc6f7,right,-1,0.75,0.05,1,-0.108787792,0.1464,19,0,19,0,1,,,,,,,,,,
,,326872,001,2023-07-31_20h50.03.645,arm3_eps,2022.2.5,Win32,59.93048064,60d1004080fadfada90afbe6,64c7fed44a04f777bb1e18ce,64c801f4d40b93ae556bc6f7,right,-1,0.75,0.05,1,-0.12435122,0.1984,20,0,20,0,1,,,,,,,,,,
,,326872,001,2023-07-31_20h50.03.645,arm3_eps,2022.2.5,Win32,59.93048064,60d1004080fadfada90afbe6,64c7fed44a04f777bb1e18ce,64c801f4d40b93ae556bc6f7,right,-1,0.75,0.05,1,-0.119343855,0.099,21,0,21,0,1,,,,,,,,,,
,,326872,001,2023-07-31_20h50.03.645,arm3_eps,2022.2.5,Win32,59.93048064,60d1004080fadfada90afbe6,64c7fed44a04f777bb1e18ce,64c801f4d40b93ae556bc6f7,right,-1,0.75,0.05,1,-0.144369086,0.1633,22,0,22,0,1,,,,,,,,,,
,,326872,001,2023-07-31_20h50.03.645,arm3_eps,2022.2.5,Win32,59.93048064,60d1004080fadfada90afbe6,64c7fed44a04f777bb1e18ce,64c801f4d40b93ae556bc6f7,right,-1,0.75,0.05,1,-0.180742568,0.1439,23,0,23,0,1,,,,,,,,,,
,,326872,001,2023-07-31_20h50.03.645,arm3_eps,2022.2.5,Win32,59.93048064,60d1004080fadfada90afbe6,64c7fed44a04f777bb1e18ce,64c801f4d40b93ae556bc6f7,right,-1,0.75,0.05,1,-0.198347711,0.1478,24,0,24,0,1,,,,,,,,,,
,,326872,001,2023-07-31_20h50.03.645,arm3_eps,2022.2.5,Win32,59.93048064,60d1004080fadfada90afbe6,64c7fed44a04f777bb1e18ce,64c801f4d40b93ae556bc6f7,down,-1,0.75,0.05,2,0,0.6415,25,0,25,0,1,,,,,,,,,,
,,326872,001,2023-07-31_20h50.03.645,arm3_eps,2022.2.5,Win32,59.93048064,60d1004080fadfada90afbe6,64c7fed44a04f777bb1e18ce,64c801f4d40b93ae556bc6f7,right,-1,0.75,0.05,2,-0.030257402,0.9235,26,0,26,0,1,,,,,,,,,,
,,326872,001,2023-07-31_20h50.03.645,arm3_eps,2022.2.5,Win32,59.93048064,60d1004080fadfada90afbe6,64c7fed44a04f777bb1e18ce,64c801f4d40b93ae556bc6f7,right,-1,0.75,0.05,2,-0.016093529,0.2626,27,0,27,0,1,,,,,,,,,,
,,326872,001,2023-07-31_20h50.03.645,arm3_eps,2022.2.5,Win32,59.93048064,60d1004080fadfada90afbe6,64c7fed44a04f777bb1e18ce,64c801f4d40b93ae556bc6f7,right,-1,0.75,0.05,2,-0.02427132,0.2077,28,0,28,0,1,,,,,,,,,,
,,326872,001,2023-07-31_20h50.03.645,arm3_eps,2022.2.5,Win32,59.93048064,60d1004080fadfada90afbe6,64c7fed44a04f777bb1e18ce,64c801f4d40b93ae556bc6f7,right,-1,0.75,0.05,2,-0.042940723,0.1518,29,0,29,0,1,,,,,,,,,,
,,326872,001,2023-07-31_20h50.03.645,arm3_eps,2022.2.5,Win32,59.93048064,60d1004080fadfada90afbe6,64c7fed44a04f777bb1e18ce,64c801f4d40b93ae556bc6f7,right,-1,0.75,0.05,2,-0.041106868,0.1305,30,0,30,0,1,,,,,,,,,,
,,326872,001,2023-07-31_20h50.03.645,arm3_eps,2022.2.5,Win32,59.93048064,60d1004080fadfada90afbe6,64c7fed44a04f777bb1e18ce,64c801f4d40b93ae556bc6f7,right,-1,0.75,0.05,2,-0.046941863,0.1471,31,0,31,0,1,,,,,,,,,,
,,326872,001,2023-07-31_20h50.03.645,arm3_eps,2022.2.5,Win32,59.93048064,60d1004080fadfada90afbe6,64c7fed44a04f777bb1e18ce,64c801f4d40b93ae556bc6f7,right,-1,0.75,0.05,2,-0.045468986,0.1309,32,0,32,0,1,,,,,,,,,,
,,326872,001,2023-07-31_20h50.03.645,arm3_eps,2022.2.5,Win32,59.93048064,60d1004080fadfada90afbe6,64c7fed44a04f777bb1e18ce,64c801f4d40b93ae556bc6f7,right,-1,0.75,0.05,2,-0.07927923,0.1451,33,0,33,0,1,,,,,,,,,,
,,326872,001,2023-07-31_20h50.03.645,arm3_eps,2022.2.5,Win32,59.93048064,60d1004080fadfada90afbe6,64c7fed44a04f777bb1e18ce,64c801f4d40b93ae556bc6f7,right,-1,0.75,0.05,2,-0.103904366,0.3693,34,0,34,0,1,,,,,,,,,,
,,326872,001,2023-07-31_20h50.03.645,arm3_eps,2022.2.5,Win32,59.93048064,60d1004080fadfada90afbe6,64c7fed44a04f777bb1e18ce,64c801f4d40b93ae556bc6f7,right,-1,0.75,0.05,2,-0.095574597,0.2473,35,0,35,0,1,,,,,,,,,,
,,326872,001,2023-07-31_20h50.03.645,arm3_eps,2022.2.5,Win32,59.93048064,60d1004080fadfada90afbe6,64c7fed44a04f777bb1e18ce,64c801f4d40b93ae556bc6f7,right,-1,0.75,0.05,2,-0.113995698,0.3138,36,0,36,0,1,,,,,,,,,,
,,326872,001,2023-07-31_20h50.03.645,arm3_eps,2022.2.5,Win32,59.93048064,60d1004080fadfada90afbe6,64c7fed44a04f777bb1e18ce,64c801f4d40b93ae556bc6f7,right,-1,0.75,0.05,2,-0.128760967,0.2492,37,0,37,0,1,,,,,,,,,,
,,326872,001,2023-07-31_20h50.03.645,arm3_eps,2022.2.5,Win32,59.93048064,60d1004080fadfada90afbe6,64c7fed44a04f777bb1e18ce,64c801f4d40b93ae556bc6f7,down,-1,0.75,0.05,2,0,0.5672,38,0,38,0,1,,,,,,,,,,
,,326872,001,2023-07-31_20h50.03.645,arm3_eps,2022.2.5,Win32,59.93048064,60d1004080fadfada90afbe6,64c7fed44a04f777bb1e18ce,64c801f4d40b93ae556bc6f7,right,-1,0.75,0.05,2,0.008156383,1.5266,39,0,39,0,1,,,,,,,,,,
,,326872,001,2023-07-31_20h50.03.645,arm3_eps,2022.2.5,Win32,59.93048064,60d1004080fadfada90afbe6,64c7fed44a04f777bb1e18ce,64c801f4d40b93ae556bc6f7,right,-1,0.75,0.05,2,-0.006168681,0.1504,40,0,40,0,1,,,,,,,,,,
,,326872,001,2023-07-31_20h50.03.645,arm3_eps,2022.2.5,Win32,59.93048064,60d1004080fadfada90afbe6,64c7fed44a04f777bb1e18ce,64c801f4d40b93ae556bc6f7,right,-1,0.75,0.05,2,-0.03408124,0.1994,41,0,41,0,1,,,,,,,,,,
,,326872,001,2023-07-31_20h50.03.645,arm3_eps,2022.2.5,Win32,59.93048064,60d1004080fadfada90afbe6,64c7fed44a04f777bb1e18ce,64c801f4d40b93ae556bc6f7,right,-1,0.75,0.05,2,-0.050463988,0.1471,42,0,42,0,1,,,,,,,,,,
,,326872,001,2023-07-31_20h50.03.645,arm3_eps,2022.2.5,Win32,59.93048064,60d1004080fadfada90afbe6,64c7fed44a04f777bb1e18ce,64c801f4d40b93ae556bc6f7,right,-1,0.75,0.05,2,-0.072467901,0.1629,43,0,43,0,1,,,,,,,,,,
,,326872,001,2023-07-31_20h50.03.645,arm3_eps,2022.2.5,Win32,59.93048064,60d1004080fadfada90afbe6,64c7fed44a04f777bb1e18ce,64c801f4d40b93ae556bc6f7,right,-1,0.75,0.05,2,-0.067129376,0.1514,44,0,44,0,1,,,,,,,,,,
,,326872,001,2023-07-31_20h50.03.645,arm3_eps,2022.2.5,Win32,59.93048064,60d1004080fadfada90afbe6,64c7fed44a04f777bb1e18ce,64c801f4d40b93ae556bc6f7,right,-1,0.75,0.05,2,-0.06098129,0.1624,45,0,45,0,1,,,,,,,,,,
,,326872,001,2023-07-31_20h50.03.645,arm3_eps,2022.2.5,Win32,59.93048064,60d1004080fadfada90afbe6,64c7fed44a04f777bb1e18ce,64c801f4d40b93ae556bc6f7,right,-1,0.75,0.05,2,-0.068570333,0.1635,46,0,46,0,1,,,,,,,,,,
,,326872,001,2023-07-31_20h50.03.645,arm3_eps,2022.2.5,Win32,59.93048064,60d1004080fadfada90afbe6,64c7fed44a04f777bb1e18ce,64c801f4d40b93ae556bc6f7,right,-1,0.75,0.05,2,-0.109053948,0.0965,47,0,47,0,1,,,,,,,,,,
,,326872,001,2023-07-31_20h50.03.645,arm3_eps,2022.2.5,Win32,59.93048064,60d1004080fadfada90afbe6,64c7fed44a04f777bb1e18ce,64c801f4d40b93ae556bc6f7,right,-1,0.75,0.05,2,-0.115440768,0.1797,48,0,48,0,1,,,,,,,,,,
,,326872,001,2023-07-31_20h50.03.645,arm3_eps,2022.2.5,Win32,59.93048064,60d1004080fadfada90afbe6,64c7fed44a04f777bb1e18ce,64c801f4d40b93ae556bc6f7,right,-1,0.75,0.05,2,-0.125050583,0.1619,49,0,49,0,1,,,,,,,,,,
space,4.6957,326872,001,2023-07-31_20h50.03.645,arm3_eps,2022.2.5,Win32,59.93048064,60d1004080fadfada90afbe6,64c7fed44a04f777bb1e18ce,64c801f4d40b93ae556bc6f7,,,,,,,,,,,,,,,,,,,,,,
space,1.0083,326872,001,2023-07-31_20h50.03.645,arm3_eps,2022.2.5,Win32,59.93048064,60d1004080fadfada90afbe6,64c7fed44a04f777bb1e18ce,64c801f4d40b93ae556bc6f7,,,,,,,,,,,,,,,,,,,,,,
,,326872,001,2023-07-31_20h50.03.645,arm3_eps,2022.2.5,Win32,59.93048064,60d1004080fadfada90afbe6,64c7fed44a04f777bb1e18ce,64c801f4d40b93ae556bc6f7,right,-1,0.75,0.5,0,0.002907651,1.0495,0,0,0,0,1,,,,,,,,,,
,,326872,001,2023-07-31_20h50.03.645,arm3_eps,2022.2.5,Win32,59.93048064,60d1004080fadfada90afbe6,64c7fed44a04f777bb1e18ce,64c801f4d40b93ae556bc6f7,right,-1,0.75,0.5,0,0.02711603,0.1783,1,0,1,0,1,,,,,,,,,,
,,326872,001,2023-07-31_20h50.03.645,arm3_eps,2022.2.5,Win32,59.93048064,60d1004080fadfada90afbe6,64c7fed44a04f777bb1e18ce,64c801f4d40b93ae556bc6f7,right,-1,0.75,0.5,0,0.016608907,0.1786,2,0,2,0,1,,,,,,,,,,
,,326872,001,2023-07-31_20h50.03.645,arm3_eps,2022.2.5,Win32,59.93048064,60d1004080fadfada90afbe6,64c7fed44a04f777bb1e18ce,64c801f4d40b93ae556bc6f7,right,-1,0.75,0.5,0,0.0161949,0.1465,3,0,3,0,1,,,,,,,,,,
,,326872,001,2023-07-31_20h50.03.645,arm3_eps,2022.2.5,Win32,59.93048064,60d1004080fadfada90afbe6,64c7fed44a04f777bb1e18ce,64c801f4d40b93ae556bc6f7,right,-1,0.75,0.5,0,0.021738336,0.1785,4,0,4,0,1,,,,,,,,,,
,,326872,001,2023-07-31_20h50.03.645,arm3_eps,2022.2.5,Win32,59.93048064,60d1004080fadfada90afbe6,64c7fed44a04f777bb1e18ce,64c801f4d40b93ae556bc6f7,right,-1,0.75,0.5,0,0.006357291,0.1592,5,0,5,0,1,,,,,,,,,,
,,326872,001,2023-07-31_20h50.03.645,arm3_eps,2022.2.5,Win32,59.93048064,60d1004080fadfada90afbe6,64c7fed44a04f777bb1e18ce,64c801f4d40b93ae556bc6f7,right,-1,0.75,0.5,0,0.006687712,0.1444,6,0,6,0,1,,,,,,,,,,
,,326872,001,2023-07-31_20h50.03.645,arm3_eps,2022.2.5,Win32,59.93048064,60d1004080fadfada90afbe6,64c7fed44a04f777bb1e18ce,64c801f4d40b93ae556bc6f7,right,-1,0.75,0.5,0,0.006550933,0.1985,7,0,7,0,1,,,,,,,,,,
,,326872,001,2023-07-31_20h50.03.645,arm3_eps,2022.2.5,Win32,59.93048064,60d1004080fadfada90afbe6,64c7fed44a04f777bb1e18ce,64c801f4d40b93ae556bc6f7,right,-1,0.75,0.5,0,0.022421287,0.1766,8,0,8,0,1,,,,,,,,,,
,,326872,001,2023-07-31_20h50.03.645,arm3_eps,2022.2.5,Win32,59.93048064,60d1004080fadfada90afbe6,64c7fed44a04f777bb1e18ce,64c801f4d40b93ae556bc6f7,right,-1,0.75,0.5,0,-0.012512978,0.1843,9,0,9,0,1,,,,,,,,,,
,,326872,001,2023-07-31_20h50.03.645,arm3_eps,2022.2.5,Win32,59.93048064,60d1004080fadfada90afbe6,64c7fed44a04f777bb1e18ce,64c801f4d40b93ae556bc6f7,right,-1,0.75,0.5,0,-0.013518531,0.224,10,0,10,0,1,,,,,,,,,,
,,326872,001,2023-07-31_20h50.03.645,arm3_eps,2022.2.5,Win32,59.93048064,60d1004080fadfada90afbe6,64c7fed44a04f777bb1e18ce,64c801f4d40b93ae556bc6f7,down,-1,0.75,0.5,1,0,0.5527,11,0,11,0,1,,,,,,,,,,
,,326872,001,2023-07-31_20h50.03.645,arm3_eps,2022.2.5,Win32,59.93048064,60d1004080fadfada90afbe6,64c7fed44a04f777bb1e18ce,64c801f4d40b93ae556bc6f7,right,-1,0.75,0.5,1,-0.002506402,1.4009,12,0,12,0,1,,,,,,,,,,
,,326872,001,2023-07-31_20h50.03.645,arm3_eps,2022.2.5,Win32,59.93048064,60d1004080fadfada90afbe6,64c7fed44a04f777bb1e18ce,64c801f4d40b93ae556bc6f7,right,-1,0.75,0.5,1,-0.011720491,0.1763,13,0,13,0,1,,,,,,,,,,
,,326872,001,2023-07-31_20h50.03.645,arm3_eps,2022.2.5,Win32,59.93048064,60d1004080fadfada90afbe6,64c7fed44a04f777bb1e18ce,64c801f4d40b93ae556bc6f7,right,-1,0.75,0.5,1,-0.042490314,0.1613,14,0,14,0,1,,,,,,,,,,
,,326872,001,2023-07-31_20h50.03.645,arm3_eps,2022.2.5,Win32,59.93048064,60d1004080fadfada90afbe6,64c7fed44a04f777bb1e18ce,64c801f4d40b93ae556bc6f7,right,-1,0.75,0.5,1,-0.032976619,0.1463,15,0,15,0,1,,,,,,,,,,
,,326872,001,2023-07-31_20h50.03.645,arm3_eps,2022.2.5,Win32,59.93048064,60d1004080fadfada90afbe6,64c7fed44a04f777bb1e18ce,64c801f4d40b93ae556bc6f7,right,-1,0.75,0.5,1,-0.026545147,0.1491,16,0,16,0,1,,,,,,,,,,
,,326872,001,2023-07-31_20h50.03.645,arm3_eps,2022.2.5,Win32,59.93048064,60d1004080fadfada90afbe6,64c7fed44a04f777bb1e18ce,64c801f4d40b93ae556bc6f7,right,-1,0.75,0.5,1,-0.012380823,0.1307,17,0,17,0,1,,,,,,,,,,
,,326872,001,2023-07-31_20h50.03.645,arm3_eps,2022.2.5,Win32,59.93048064,60d1004080fadfada90afbe6,64c7fed44a04f777bb1e18ce,64c801f4d40b93ae556bc6f7,right,-1,0.75,0.5,1,-0.007017279,0.1769,18,0,18,0,1,,,,,,,,,,
,,326872,001,2023-07-31_20h50.03.645,arm3_eps,2022.2.5,Win32,59.93048064,60d1004080fadfada90afbe6,64c7fed44a04f777bb1e18ce,64c801f4d40b93ae556bc6f7,right,-1,0.75,0.5,1,-0.028519568,0.1662,19,0,19,0,1,,,,,,,,,,
,,326872,001,2023-07-31_20h50.03.645,arm3_eps,2022.2.5,Win32,59.93048064,60d1004080fadfada90afbe6,64c7fed44a04f777bb1e18ce,64c801f4d40b93ae556bc6f7,right,-1,0.75,0.5,1,-0.037169497,0.276,20,0,20,0,1,,,,,,,,,,
,,326872,001,2023-07-31_20h50.03.645,arm3_eps,2022.2.5,Win32,59.93048064,60d1004080fadfada90afbe6,64c7fed44a04f777bb1e18ce,64c801f4d40b93ae556bc6f7,right,-1,0.75,0.5,1,-0.039876739,0.1788,21,0,21,0,1,,,,,,,,,,
,,326872,001,2023-07-31_20h50.03.645,arm3_eps,2022.2.5,Win32,59.93048064,60d1004080fadfada90afbe6,64c7fed44a04f777bb1e18ce,64c801f4d40b93ae556bc6f7,right,-1,0.75,0.5,1,-0.067783758,0.1447,22,0,22,0,1,,,,,,,,,,
,,326872,001,2023-07-31_20h50.03.645,arm3_eps,2022.2.5,Win32,59.93048064,60d1004080fadfada90afbe6,64c7fed44a04f777bb1e18ce,64c801f4d40b93ae556bc6f7,down,1,0.75,0.5,2,0,0.4842,23,0,23,0,1,,,,,,,,,,
,,326872,001,2023-07-31_20h50.03.645,arm3_eps,2022.2.5,Win32,59.93048064,60d1004080fadfada90afbe6,64c7fed44a04f777bb1e18ce,64c801f4d40b93ae556bc6f7,right,1,0.75,0.5,2,-0.022822553,1.2008,24,0,24,0,1,,,,,,,,,,
,,326872,001,2023-07-31_20h50.03.645,arm3_eps,2022.2.5,Win32,59.93048064,60d1004080fadfada90afbe6,64c7fed44a04f777bb1e18ce,64c801f4d40b93ae556bc6f7,right,1,0.75,0.5,2,-0.052317784,0.1359,25,0,25,0,1,,,,,,,,,,
,,326872,001,2023-07-31_20h50.03.645,arm3_eps,2022.2.5,Win32,59.93048064,60d1004080fadfada90afbe6,64c7fed44a04f777bb1e18ce,64c801f4d40b93ae556bc6f7,right,1,0.75,0.5,2,-0.043342855,0.127,26,0,26,0,1,,,,,,,,,,
,,326872,001,2023-07-31_20h50.03.645,arm3_eps,2022.2.5,Win32,59.93048064,60d1004080fadfada90afbe6,64c7fed44a04f777bb1e18ce,64c801f4d40b93ae556bc6f7,right,1,0.75,0.5,2,-0.008007241,0.1571,27,0,27,0,1,,,,,,,,,,
,,326872,001,2023-07-31_20h50.03.645,arm3_eps,2022.2.5,Win32,59.93048064,60d1004080fadfada90afbe6,64c7fed44a04f777bb1e18ce,64c801f4d40b93ae556bc6f7,right,1,0.75,0.5,2,0.019635004,0.1661,28,0,28,0,1,,,,,,,,,,
,,326872,001,2023-07-31_20h50.03.645,arm3_eps,2022.2.5,Win32,59.93048064,60d1004080fadfada90afbe6,64c7fed44a04f777bb1e18ce,64c801f4d40b93ae556bc6f7,right,1,0.75,0.5,2,0.036115617,0.1463,29,0,29,0,1,,,,,,,,,,
,,326872,001,2023-07-31_20h50.03.645,arm3_eps,2022.2.5,Win32,59.93048064,60d1004080fadfada90afbe6,64c7fed44a04f777bb1e18ce,64c801f4d40b93ae556bc6f7,right,1,0.75,0.5,2,0.061953412,0.1682,30,0,30,0,1,,,,,,,,,,
,,326872,001,2023-07-31_20h50.03.645,arm3_eps,2022.2.5,Win32,59.93048064,60d1004080fadfada90afbe6,64c7fed44a04f777bb1e18ce,64c801f4d40b93ae556bc6f7,right,1,0.75,0.5,2,0.067040836,0.1371,31,0,31,0,1,,,,,,,,,,
,,326872,001,2023-07-31_20h50.03.645,arm3_eps,2022.2.5,Win32,59.93048064,60d1004080fadfada90afbe6,64c7fed44a04f777bb1e18ce,64c801f4d40b93ae556bc6f7,up,1,0.75,0.5,3,0,0.5006,32,0,32,0,1,,,,,,,,,,
,,326872,001,2023-07-31_20h50.03.645,arm3_eps,2022.2.5,Win32,59.93048064,60d1004080fadfada90afbe6,64c7fed44a04f777bb1e18ce,64c801f4d40b93ae556bc6f7,right,1,0.75,0.5,3,0.010360785,1.1183,33,0,33,0,1,,,,,,,,,,
,,326872,001,2023-07-31_20h50.03.645,arm3_eps,2022.2.5,Win32,59.93048064,60d1004080fadfada90afbe6,64c7fed44a04f777bb1e18ce,64c801f4d40b93ae556bc6f7,right,1,0.75,0.5,3,0.022961511,0.1736,34,0,34,0,1,,,,,,,,,,
,,326872,001,2023-07-31_20h50.03.645,arm3_eps,2022.2.5,Win32,59.93048064,60d1004080fadfada90afbe6,64c7fed44a04f777bb1e18ce,64c801f4d40b93ae556bc6f7,right,1,0.75,0.5,3,0.042297896,0.1408,35,0,35,0,1,,,,,,,,,,
,,326872,001,2023-07-31_20h50.03.645,arm3_eps,2022.2.5,Win32,59.93048064,60d1004080fadfada90afbe6,64c7fed44a04f777bb1e18ce,64c801f4d40b93ae556bc6f7,right,1,0.75,0.5,3,0.024837416,0.177,36,0,36,0,1,,,,,,,,,,
,,326872,001,2023-07-31_20h50.03.645,arm3_eps,2022.2.5,Win32,59.93048064,60d1004080fadfada90afbe6,64c7fed44a04f777bb1e18ce,64c801f4d40b93ae556bc6f7,right,1,0.75,0.5,3,0.038294768,0.1455,37,0,37,0,1,,,,,,,,,,
,,326872,001,2023-07-31_20h50.03.645,arm3_eps,2022.2.5,Win32,59.93048064,60d1004080fadfada90afbe6,64c7fed44a04f777bb1e18ce,64c801f4d40b93ae556bc6f7,right,1,0.75,0.5,3,0.026005563,0.1574,38,0,38,0,1,,,,,,,,,,
,,326872,001,2023-07-31_20h50.03.645,arm3_eps,2022.2.5,Win32,59.93048064,60d1004080fadfada90afbe6,64c7fed44a04f777bb1e18ce,64c801f4d40b93ae556bc6f7,right,1,0.75,0.5,3,0.031319495,0.282,39,0,39,0,1,,,,,,,,,,
,,326872,001,2023-07-31_20h50.03.645,arm3_eps,2022.2.5,Win32,59.93048064,60d1004080fadfada90afbe6,64c7fed44a04f777bb1e18ce,64c801f4d40b93ae556bc6f7,up,-1,0.75,0.5,3,0,0.0019,40,0,40,0,1,,,,,,,,,,
,,326872,001,2023-07-31_20h50.03.645,arm3_eps,2022.2.5,Win32,59.93048064,60d1004080fadfada90afbe6,64c7fed44a04f777bb1e18ce,64c801f4d40b93ae556bc6f7,right,-1,0.75,0.5,3,-0.007839291,1.8447,41,0,41,0,1,,,,,,,,,,
,,326872,001,2023-07-31_20h50.03.645,arm3_eps,2022.2.5,Win32,59.93048064,60d1004080fadfada90afbe6,64c7fed44a04f777bb1e18ce,64c801f4d40b93ae556bc6f7,right,-1,0.75,0.5,3,0.035187992,0.1763,42,0,42,0,1,,,,,,,,,,
,,326872,001,2023-07-31_20h50.03.645,arm3_eps,2022.2.5,Win32,59.93048064,60d1004080fadfada90afbe6,64c7fed44a04f777bb1e18ce,64c801f4d40b93ae556bc6f7,right,-1,0.75,0.5,3,0.042681952,0.1607,43,0,43,0,1,,,,,,,,,,
,,326872,001,2023-07-31_20h50.03.645,arm3_eps,2022.2.5,Win32,59.93048064,60d1004080fadfada90afbe6,64c7fed44a04f777bb1e18ce,64c801f4d40b93ae556bc6f7,right,-1,0.75,0.5,3,0.039307502,0.1634,44,0,44,0,1,,,,,,,,,,
,,326872,001,2023-07-31_20h50.03.645,arm3_eps,2022.2.5,Win32,59.93048064,60d1004080fadfada90afbe6,64c7fed44a04f777bb1e18ce,64c801f4d40b93ae556bc6f7,right,-1,0.75,0.5,3,0.027388345,0.1614,45,0,45,0,1,,,,,,,,,,
,,326872,001,2023-07-31_20h50.03.645,arm3_eps,2022.2.5,Win32,59.93048064,60d1004080fadfada90afbe6,64c7fed44a04f777bb1e18ce,64c801f4d40b93ae556bc6f7,right,-1,0.75,0.5,3,-0.002167504,0.1622,46,0,46,0,1,,,,,,,,,,
,,326872,001,2023-07-31_20h50.03.645,arm3_eps,2022.2.5,Win32,59.93048064,60d1004080fadfada90afbe6,64c7fed44a04f777bb1e18ce,64c801f4d40b93ae556bc6f7,right,-1,0.75,0.5,3,0.003856642,0.1624,47,0,47,0,1,,,,,,,,,,
,,326872,001,2023-07-31_20h50.03.645,arm3_eps,2022.2.5,Win32,59.93048064,60d1004080fadfada90afbe6,64c7fed44a04f777bb1e18ce,64c801f4d40b93ae556bc6f7,right,-1,0.75,0.5,3,0.026020345,0.1417,48,0,48,0,1,,,,,,,,,,
,,326872,001,2023-07-31_20h50.03.645,arm3_eps,2022.2.5,Win32,59.93048064,60d1004080fadfada90afbe6,64c7fed44a04f777bb1e18ce,64c801f4d40b93ae556bc6f7,right,-1,0.75,0.5,3,0.002489569,0.1489,49,0,49,0,1,,,,,,,,,,
space,4.791,326872,001,2023-07-31_20h50.03.645,arm3_eps,2022.2.5,Win32,59.93048064,60d1004080fadfada90afbe6,64c7fed44a04f777bb1e18ce,64c801f4d40b93ae556bc6f7,,,,,,,,,,,,,,,,,,,,,,
space,4.6151,326872,001,2023-07-31_20h50.03.645,arm3_eps,2022.2.5,Win32,59.93048064,60d1004080fadfada90afbe6,64c7fed44a04f777bb1e18ce,64c801f4d40b93ae556bc6f7,right,-1,0.75,0.3071,0,-0.042640749,1.3723,,,,,,0,0,0,0,1,,,,,
,,326872,001,2023-07-31_20h50.03.645,arm3_eps,2022.2.5,Win32,59.93048064,60d1004080fadfada90afbe6,64c7fed44a04f777bb1e18ce,64c801f4d40b93ae556bc6f7,right,-1,0.75,0.3071,0,-0.053880198,0.2949,,,,,,1,0,1,0,1,,,,,
,,326872,001,2023-07-31_20h50.03.645,arm3_eps,2022.2.5,Win32,59.93048064,60d1004080fadfada90afbe6,64c7fed44a04f777bb1e18ce,64c801f4d40b93ae556bc6f7,right,-1,0.75,0.3071,0,-0.070731741,0.2287,,,,,,2,0,2,0,1,,,,,
,,326872,001,2023-07-31_20h50.03.645,arm3_eps,2022.2.5,Win32,59.93048064,60d1004080fadfada90afbe6,64c7fed44a04f777bb1e18ce,64c801f4d40b93ae556bc6f7,right,-1,0.75,0.3071,0,-0.077366531,0.1793,,,,,,3,0,3,0,1,,,,,
,,326872,001,2023-07-31_20h50.03.645,arm3_eps,2022.2.5,Win32,59.93048064,60d1004080fadfada90afbe6,64c7fed44a04f777bb1e18ce,64c801f4d40b93ae556bc6f7,right,-1,0.75,0.3071,0,-0.06150408,0.1482,,,,,,4,0,4,0,1,,,,,
,,326872,001,2023-07-31_20h50.03.645,arm3_eps,2022.2.5,Win32,59.93048064,60d1004080fadfada90afbe6,64c7fed44a04f777bb1e18ce,64c801f4d40b93ae556bc6f7,right,-1,0.75,0.3071,0,-0.068698874,0.1624,,,,,,5,0,5,0,1,,,,,
,,326872,001,2023-07-31_20h50.03.645,arm3_eps,2022.2.5,Win32,59.93048064,60d1004080fadfada90afbe6,64c7fed44a04f777bb1e18ce,64c801f4d40b93ae556bc6f7,right,-1,0.75,0.3071,0,-0.072405686,0.1474,,,,,,6,0,6,0,1,,,,,
,,326872,001,2023-07-31_20h50.03.645,arm3_eps,2022.2.5,Win32,59.93048064,60d1004080fadfada90afbe6,64c7fed44a04f777bb1e18ce,64c801f4d40b93ae556bc6f7,right,-1,0.75,0.3071,0,-0.07568965,0.2284,,,,,,7,0,7,0,1,,,,,
,,326872,001,2023-07-31_20h50.03.645,arm3_eps,2022.2.5,Win32,59.93048064,60d1004080fadfada90afbe6,64c7fed44a04f777bb1e18ce,64c801f4d40b93ae556bc6f7,right,-1,0.75,0.3071,0,-0.075638616,0.1854,,,,,,8,0,8,0,1,,,,,
,,326872,001,2023-07-31_20h50.03.645,arm3_eps,2022.2.5,Win32,59.93048064,60d1004080fadfada90afbe6,64c7fed44a04f777bb1e18ce,64c801f4d40b93ae556bc6f7,right,-1,0.75,0.3071,0,-0.08756174,0.2245,,,,,,9,0,9,0,1,,,,,
,,326872,001,2023-07-31_20h50.03.645,arm3_eps,2022.2.5,Win32,59.93048064,60d1004080fadfada90afbe6,64c7fed44a04f777bb1e18ce,64c801f4d40b93ae556bc6f7,right,-1,0.75,0.3071,0,-0.083676893,0.2954,,,,,,10,0,10,0,1,,,,,
,,326872,001,2023-07-31_20h50.03.645,arm3_eps,2022.2.5,Win32,59.93048064,60d1004080fadfada90afbe6,64c7fed44a04f777bb1e18ce,64c801f4d40b93ae556bc6f7,right,-1,0.75,0.3071,0,-0.099514808,0.3009,,,,,,11,0,11,0,1,,,,,
,,326872,001,2023-07-31_20h50.03.645,arm3_eps,2022.2.5,Win32,59.93048064,60d1004080fadfada90afbe6,64c7fed44a04f777bb1e18ce,64c801f4d40b93ae556bc6f7,down,1,0.75,0.3071,1,0,0.7783,,,,,,12,0,12,0,1,,,,,
,,326872,001,2023-07-31_20h50.03.645,arm3_eps,2022.2.5,Win32,59.93048064,60d1004080fadfada90afbe6,64c7fed44a04f777bb1e18ce,64c801f4d40b93ae556bc6f7,right,1,0.75,0.3071,1,0.014365397,1.2908,,,,,,13,0,13,0,1,,,,,
,,326872,001,2023-07-31_20h50.03.645,arm3_eps,2022.2.5,Win32,59.93048064,60d1004080fadfada90afbe6,64c7fed44a04f777bb1e18ce,64c801f4d40b93ae556bc6f7,right,1,0.75,0.3071,1,0.043890903,0.1612,,,,,,14,0,14,0,1,,,,,
,,326872,001,2023-07-31_20h50.03.645,arm3_eps,2022.2.5,Win32,59.93048064,60d1004080fadfada90afbe6,64c7fed44a04f777bb1e18ce,64c801f4d40b93ae556bc6f7,right,1,0.75,0.3071,1,0.032055515,0.1315,,,,,,15,0,15,0,1,,,,,
,,326872,001,2023-07-31_20h50.03.645,arm3_eps,2022.2.5,Win32,59.93048064,60d1004080fadfada90afbe6,64c7fed44a04f777bb1e18ce,64c801f4d40b93ae556bc6f7,right,1,0.75,0.3071,1,0.026336898,0.147,,,,,,16,0,16,0,1,,,,,
,,326872,001,2023-07-31_20h50.03.645,arm3_eps,2022.2.5,Win32,59.93048064,60d1004080fadfada90afbe6,64c7fed44a04f777bb1e18ce,64c801f4d40b93ae556bc6f7,right,1,0.75,0.3071,1,0.023329741,0.145,,,,,,17,0,17,0,1,,,,,
,,326872,001,2023-07-31_20h50.03.645,arm3_eps,2022.2.5,Win32,59.93048064,60d1004080fadfada90afbe6,64c7fed44a04f777bb1e18ce,64c801f4d40b93ae556bc6f7,right,1,0.75,0.3071,1,0.004888092,0.1467,,,,,,18,0,18,0,1,,,,,
,,326872,001,2023-07-31_20h50.03.645,arm3_eps,2022.2.5,Win32,59.93048064,60d1004080fadfada90afbe6,64c7fed44a04f777bb1e18ce,64c801f4d40b93ae556bc6f7,right,1,0.75,0.3071,1,-0.014366579,0.1458,,,,,,19,0,19,0,1,,,,,
,,326872,001,2023-07-31_20h50.03.645,arm3_eps,2022.2.5,Win32,59.93048064,60d1004080fadfada90afbe6,64c7fed44a04f777bb1e18ce,64c801f4d40b93ae556bc6f7,right,1,0.75,0.3071,1,-0.021027164,0.1663,,,,,,20,0,20,0,1,,,,,
,,326872,001,2023-07-31_20h50.03.645,arm3_eps,2022.2.5,Win32,59.93048064,60d1004080fadfada90afbe6,64c7fed44a04f777bb1e18ce,64c801f4d40b93ae556bc6f7,right,1,0.75,0.3071,1,-0.031028189,0.1367,,,,,,21,0,21,0,1,,,,,
,,326872,001,2023-07-31_20h50.03.645,arm3_eps,2022.2.5,Win32,59.93048064,60d1004080fadfada90afbe6,64c7fed44a04f777bb1e18ce,64c801f4d40b93ae556bc6f7,right,1,0.75,0.3071,1,-0.037753436,0.1488,,,,,,22,0,22,0,1,,,,,
,,326872,001,2023-07-31_20h50.03.645,arm3_eps,2022.2.5,Win32,59.93048064,60d1004080fadfada90afbe6,64c7fed44a04f777bb1e18ce,64c801f4d40b93ae556bc6f7,right,1,0.75,0.3071,1,-0.022869642,0.1681,,,,,,23,0,23,0,1,,,,,
,,326872,001,2023-07-31_20h50.03.645,arm3_eps,2022.2.5,Win32,59.93048064,60d1004080fadfada90afbe6,64c7fed44a04f777bb1e18ce,64c801f4d40b93ae556bc6f7,right,1,0.75,0.3071,1,-0.021658322,0.159,,,,,,24,0,24,0,1,,,,,
,,326872,001,2023-07-31_20h50.03.645,arm3_eps,2022.2.5,Win32,59.93048064,60d1004080fadfada90afbe6,64c7fed44a04f777bb1e18ce,64c801f4d40b93ae556bc6f7,up,1,0.75,0.3071,2,0,1.2951,,,,,,25,0,25,0,1,,,,,
,,326872,001,2023-07-31_20h50.03.645,arm3_eps,2022.2.5,Win32,59.93048064,60d1004080fadfada90afbe6,64c7fed44a04f777bb1e18ce,64c801f4d40b93ae556bc6f7,right,1,0.75,0.3071,2,0.04025888,0.8426,,,,,,26,0,26,0,1,,,,,
,,326872,001,2023-07-31_20h50.03.645,arm3_eps,2022.2.5,Win32,59.93048064,60d1004080fadfada90afbe6,64c7fed44a04f777bb1e18ce,64c801f4d40b93ae556bc6f7,right,1,0.75,0.3071,2,0.051672678,0.1632,,,,,,27,0,27,0,1,,,,,
,,326872,001,2023-07-31_20h50.03.645,arm3_eps,2022.2.5,Win32,59.93048064,60d1004080fadfada90afbe6,64c7fed44a04f777bb1e18ce,64c801f4d40b93ae556bc6f7,right,1,0.75,0.3071,2,0.089810236,0.1454,,,,,,28,0,28,0,1,,,,,
,,326872,001,2023-07-31_20h50.03.645,arm3_eps,2022.2.5,Win32,59.93048064,60d1004080fadfada90afbe6,64c7fed44a04f777bb1e18ce,64c801f4d40b93ae556bc6f7,right,1,0.75,0.3071,2,0.079817313,0.1527,,,,,,29,0,29,0,1,,,,,
,,326872,001,2023-07-31_20h50.03.645,arm3_eps,2022.2.5,Win32,59.93048064,60d1004080fadfada90afbe6,64c7fed44a04f777bb1e18ce,64c801f4d40b93ae556bc6f7,right,1,0.75,0.3071,2,0.052125639,0.1476,,,,,,30,0,30,0,1,,,,,
,,326872,001,2023-07-31_20h50.03.645,arm3_eps,2022.2.5,Win32,59.93048064,60d1004080fadfada90afbe6,64c7fed44a04f777bb1e18ce,64c801f4d40b93ae556bc6f7,right,1,0.75,0.3071,2,-0.000228169,0.1753,,,,,,31,0,31,0,1,,,,,
,,326872,001,2023-07-31_20h50.03.645,arm3_eps,2022.2.5,Win32,59.93048064,60d1004080fadfada90afbe6,64c7fed44a04f777bb1e18ce,64c801f4d40b93ae556bc6f7,right,1,0.75,0.3071,2,0.001953793,0.1946,,,,,,32,0,32,0,1,,,,,
,,326872,001,2023-07-31_20h50.03.645,arm3_eps,2022.2.5,Win32,59.93048064,60d1004080fadfada90afbe6,64c7fed44a04f777bb1e18ce,64c801f4d40b93ae556bc6f7,right,1,0.75,0.3071,2,-0.00205378,0.1658,,,,,,33,0,33,0,1,,,,,
,,326872,001,2023-07-31_20h50.03.645,arm3_eps,2022.2.5,Win32,59.93048064,60d1004080fadfada90afbe6,64c7fed44a04f777bb1e18ce,64c801f4d40b93ae556bc6f7,right,1,0.75,0.3071,2,0.02299719,0.1704,,,,,,34,0,34,0,1,,,,,
,,326872,001,2023-07-31_20h50.03.645,arm3_eps,2022.2.5,Win32,59.93048064,60d1004080fadfada90afbe6,64c7fed44a04f777bb1e18ce,64c801f4d40b93ae556bc6f7,right,1,0.75,0.3071,2,0.002282927,0.1965,,,,,,35,0,35,0,1,,,,,
,,326872,001,2023-07-31_20h50.03.645,arm3_eps,2022.2.5,Win32,59.93048064,60d1004080fadfada90afbe6,64c7fed44a04f777bb1e18ce,64c801f4d40b93ae556bc6f7,right,1,0.75,0.3071,2,0.008264283,0.1772,,,,,,36,0,36,0,1,,,,,
,,326872,001,2023-07-31_20h50.03.645,arm3_eps,2022.2.5,Win32,59.93048064,60d1004080fadfada90afbe6,64c7fed44a04f777bb1e18ce,64c801f4d40b93ae556bc6f7,up,-1,0.75,0.3071,3,0,0.8793,,,,,,37,0,37,0,1,,,,,
,,326872,001,2023-07-31_20h50.03.645,arm3_eps,2022.2.5,Win32,59.93048064,60d1004080fadfada90afbe6,64c7fed44a04f777bb1e18ce,64c801f4d40b93ae556bc6f7,right,-1,0.75,0.3071,3,-0.003659423,0.7534,,,,,,38,0,38,0,1,,,,,
,,326872,001,2023-07-31_20h50.03.645,arm3_eps,2022.2.5,Win32,59.93048064,60d1004080fadfada90afbe6,64c7fed44a04f777bb1e18ce,64c801f4d40b93ae556bc6f7,right,-1,0.75,0.3071,3,-0.009373818,0.1772,,,,,,39,0,39,0,1,,,,,
,,326872,001,2023-07-31_20h50.03.645,arm3_eps,2022.2.5,Win32,59.93048064,60d1004080fadfada90afbe6,64c7fed44a04f777bb1e18ce,64c801f4d40b93ae556bc6f7,right,-1,0.75,0.3071,3,-0.025334804,0.1649,,,,,,40,0,40,0,1,,,,,
,,326872,001,2023-07-31_20h50.03.645,arm3_eps,2022.2.5,Win32,59.93048064,60d1004080fadfada90afbe6,64c7fed44a04f777bb1e18ce,64c801f4d40b93ae556bc6f7,right,-1,0.75,0.3071,3,-0.064346004,0.1938,,,,,,41,0,41,0,1,,,,,
,,326872,001,2023-07-31_20h50.03.645,arm3_eps,2022.2.5,Win32,59.93048064,60d1004080fadfada90afbe6,64c7fed44a04f777bb1e18ce,64c801f4d40b93ae556bc6f7,right,-1,0.75,0.3071,3,-0.088369057,0.1623,,,,,,42,0,42,0,1,,,,,
,,326872,001,2023-07-31_20h50.03.645,arm3_eps,2022.2.5,Win32,59.93048064,60d1004080fadfada90afbe6,64c7fed44a04f777bb1e18ce,64c801f4d40b93ae556bc6f7,right,-1,0.75,0.3071,3,-0.118073294,0.1454,,,,,,43,0,43,0,1,,,,,
,,326872,001,2023-07-31_20h50.03.645,arm3_eps,2022.2.5,Win32,59.93048064,60d1004080fadfada90afbe6,64c7fed44a04f777bb1e18ce,64c801f4d40b93ae556bc6f7,right,-1,0.75,0.3071,3,-0.13373121,0.1622,,,,,,44,0,44,0,1,,,,,
,,326872,001,2023-07-31_20h50.03.645,arm3_eps,2022.2.5,Win32,59.93048064,60d1004080fadfada90afbe6,64c7fed44a04f777bb1e18ce,64c801f4d40b93ae556bc6f7,right,-1,0.75,0.3071,3,-0.142108112,0.145,,,,,,45,0,45,0,1,,,,,
,,326872,001,2023-07-31_20h50.03.645,arm3_eps,2022.2.5,Win32,59.93048064,60d1004080fadfada90afbe6,64c7fed44a04f777bb1e18ce,64c801f4d40b93ae556bc6f7,down,-1,0.75,0.3071,4,0,0.2926,,,,,,46,0,46,0,1,,,,,
,,326872,001,2023-07-31_20h50.03.645,arm3_eps,2022.2.5,Win32,59.93048064,60d1004080fadfada90afbe6,64c7fed44a04f777bb1e18ce,64c801f4d40b93ae556bc6f7,right,-1,0.75,0.3071,4,-0.00205275,1.0243,,,,,,47,0,47,0,1,,,,,
,,326872,001,2023-07-31_20h50.03.645,arm3_eps,2022.2.5,Win32,59.93048064,60d1004080fadfada90afbe6,64c7fed44a04f777bb1e18ce,64c801f4d40b93ae556bc6f7,right,-1,0.75,0.3071,4,-0.027854493,0.1927,,,,,,48,0,48,0,1,,,,,
,,326872,001,2023-07-31_20h50.03.645,arm3_eps,2022.2.5,Win32,59.93048064,60d1004080fadfada90afbe6,64c7fed44a04f777bb1e18ce,64c801f4d40b93ae556bc6f7,right,-1,0.75,0.3071,4,-0.031440372,0.1764,,,,,,49,0,49,0,1,,,,,
,,326872,001,2023-07-31_20h50.03.645,arm3_eps,2022.2.5,Win32,59.93048064,60d1004080fadfada90afbe6,64c7fed44a04f777bb1e18ce,64c801f4d40b93ae556bc6f7,right,-1,0.75,0.3071,4,-0.03544853,0.2079,,,,,,50,0,50,0,1,,,,,
,,326872,001,2023-07-31_20h50.03.645,arm3_eps,2022.2.5,Win32,59.93048064,60d1004080fadfada90afbe6,64c7fed44a04f777bb1e18ce,64c801f4d40b93ae556bc6f7,right,-1,0.75,0.3071,4,-0.06003125,0.2124,,,,,,51,0,51,0,1,,,,,
,,326872,001,2023-07-31_20h50.03.645,arm3_eps,2022.2.5,Win32,59.93048064,60d1004080fadfada90afbe6,64c7fed44a04f777bb1e18ce,64c801f4d40b93ae556bc6f7,right,-1,0.75,0.3071,4,-0.058638169,0.2271,,,,,,52,0,52,0,1,,,,,
,,326872,001,2023-07-31_20h50.03.645,arm3_eps,2022.2.5,Win32,59.93048064,60d1004080fadfada90afbe6,64c7fed44a04f777bb1e18ce,64c801f4d40b93ae556bc6f7,right,-1,0.75,0.3071,4,-0.052295524,0.1954,,,,,,53,0,53,0,1,,,,,
,,326872,001,2023-07-31_20h50.03.645,arm3_eps,2022.2.5,Win32,59.93048064,60d1004080fadfada90afbe6,64c7fed44a04f777bb1e18ce,64c801f4d40b93ae556bc6f7,right,-1,0.75,0.3071,4,-0.048032837,0.1944,,,,,,54,0,54,0,1,,,,,
,,326872,001,2023-07-31_20h50.03.645,arm3_eps,2022.2.5,Win32,59.93048064,60d1004080fadfada90afbe6,64c7fed44a04f777bb1e18ce,64c801f4d40b93ae556bc6f7,right,-1,0.75,0.3071,4,-0.070858097,0.2321,,,,,,55,0,55,0,1,,,,,
,,326872,001,2023-07-31_20h50.03.645,arm3_eps,2022.2.5,Win32,59.93048064,60d1004080fadfada90afbe6,64c7fed44a04f777bb1e18ce,64c801f4d40b93ae556bc6f7,down,1,0.75,0.3071,4,0,0.5282,,,,,,56,0,56,0,1,,,,,
,,326872,001,2023-07-31_20h50.03.645,arm3_eps,2022.2.5,Win32,59.93048064,60d1004080fadfada90afbe6,64c7fed44a04f777bb1e18ce,64c801f4d40b93ae556bc6f7,right,1,0.75,0.3071,4,0.003761117,0.8902,,,,,,57,0,57,0,1,,,,,
,,326872,001,2023-07-31_20h50.03.645,arm3_eps,2022.2.5,Win32,59.93048064,60d1004080fadfada90afbe6,64c7fed44a04f777bb1e18ce,64c801f4d40b93ae556bc6f7,right,1,0.75,0.3071,4,0.022061637,0.3509,,,,,,58,0,58,0,1,,,,,
,,326872,001,2023-07-31_20h50.03.645,arm3_eps,2022.2.5,Win32,59.93048064,60d1004080fadfada90afbe6,64c7fed44a04f777bb1e18ce,64c801f4d40b93ae556bc6f7,right,1,0.75,0.3071,4,0.036619589,0.2273,,,,,,59,0,59,0,1,,,,,
,,326872,001,2023-07-31_20h50.03.645,arm3_eps,2022.2.5,Win32,59.93048064,60d1004080fadfada90afbe6,64c7fed44a04f777bb1e18ce,64c801f4d40b93ae556bc6f7,right,1,0.75,0.3071,4,0.0133565,0.1743,,,,,,60,0,60,0,1,,,,,
,,326872,001,2023-07-31_20h50.03.645,arm3_eps,2022.2.5,Win32,59.93048064,60d1004080fadfada90afbe6,64c7fed44a04f777bb1e18ce,64c801f4d40b93ae556bc6f7,right,1,0.75,0.3071,4,0.011948841,0.1507,,,,,,61,0,61,0,1,,,,,
,,326872,001,2023-07-31_20h50.03.645,arm3_eps,2022.2.5,Win32,59.93048064,60d1004080fadfada90afbe6,64c7fed44a04f777bb1e18ce,64c801f4d40b93ae556bc6f7,right,1,0.75,0.3071,4,0.036758145,0.1627,,,,,,62,0,62,0,1,,,,,
,,326872,001,2023-07-31_20h50.03.645,arm3_eps,2022.2.5,Win32,59.93048064,60d1004080fadfada90afbe6,64c7fed44a04f777bb1e18ce,64c801f4d40b93ae556bc6f7,right,1,0.75,0.3071,4,0.050438256,0.1647,,,,,,63,0,63,0,1,,,,,
,,326872,001,2023-07-31_20h50.03.645,arm3_eps,2022.2.5,Win32,59.93048064,60d1004080fadfada90afbe6,64c7fed44a04f777bb1e18ce,64c801f4d40b93ae556bc6f7,right,1,0.75,0.3071,4,0.072553408,0.1817,,,,,,64,0,64,0,1,,,,,
,,326872,001,2023-07-31_20h50.03.645,arm3_eps,2022.2.5,Win32,59.93048064,60d1004080fadfada90afbe6,64c7fed44a04f777bb1e18ce,64c801f4d40b93ae556bc6f7,right,1,0.75,0.3071,4,0.079599674,1.0241,,,,,,65,0,65,0,1,,,,,
,,326872,001,2023-07-31_20h50.03.645,arm3_eps,2022.2.5,Win32,59.93048064,60d1004080fadfada90afbe6,64c7fed44a04f777bb1e18ce,64c801f4d40b93ae556bc6f7,up,-1,0.75,0.3071,5,0,0.6657,,,,,,66,0,66,0,1,,,,,
,,326872,001,2023-07-31_20h50.03.645,arm3_eps,2022.2.5,Win32,59.93048064,60d1004080fadfada90afbe6,64c7fed44a04f777bb1e18ce,64c801f4d40b93ae556bc6f7,right,-1,0.75,0.3071,5,-0.006876738,0.8167,,,,,,67,0,67,0,1,,,,,
,,326872,001,2023-07-31_20h50.03.645,arm3_eps,2022.2.5,Win32,59.93048064,60d1004080fadfada90afbe6,64c7fed44a04f777bb1e18ce,64c801f4d40b93ae556bc6f7,right,-1,0.75,0.3071,5,0.010791575,0.2261,,,,,,68,0,68,0,1,,,,,
,,326872,001,2023-07-31_20h50.03.645,arm3_eps,2022.2.5,Win32,59.93048064,60d1004080fadfada90afbe6,64c7fed44a04f777bb1e18ce,64c801f4d40b93ae556bc6f7,right,-1,0.75,0.3071,5,0.020629921,0.1908,,,,,,69,0,69,0,1,,,,,
,,326872,001,2023-07-31_20h50.03.645,arm3_eps,2022.2.5,Win32,59.93048064,60d1004080fadfada90afbe6,64c7fed44a04f777bb1e18ce,64c801f4d40b93ae556bc6f7,right,-1,0.75,0.3071,5,0.041896246,0.1679,,,,,,70,0,70,0,1,,,,,
,,326872,001,2023-07-31_20h50.03.645,arm3_eps,2022.2.5,Win32,59.93048064,60d1004080fadfada90afbe6,64c7fed44a04f777bb1e18ce,64c801f4d40b93ae556bc6f7,right,-1,0.75,0.3071,5,0.040303342,0.1395,,,,,,71,0,71,0,1,,,,,
,,326872,001,2023-07-31_20h50.03.645,arm3_eps,2022.2.5,Win32,59.93048064,60d1004080fadfada90afbe6,64c7fed44a04f777bb1e18ce,64c801f4d40b93ae556bc6f7,right,-1,0.75,0.3071,5,0.024398996,0.1407,,,,,,72,0,72,0,1,,,,,
,,326872,001,2023-07-31_20h50.03.645,arm3_eps,2022.2.5,Win32,59.93048064,60d1004080fadfada90afbe6,64c7fed44a04f777bb1e18ce,64c801f4d40b93ae556bc6f7,right,-1,0.75,0.3071,5,0.023521599,0.1455,,,,,,73,0,73,0,1,,,,,
,,326872,001,2023-07-31_20h50.03.645,arm3_eps,2022.2.5,Win32,59.93048064,60d1004080fadfada90afbe6,64c7fed44a04f777bb1e18ce,64c801f4d40b93ae556bc6f7,right,-1,0.75,0.3071,5,0.022461087,0.1893,,,,,,74,0,74,0,1,,,,,
,,326872,001,2023-07-31_20h50.03.645,arm3_eps,2022.2.5,Win32,59.93048064,60d1004080fadfada90afbe6,64c7fed44a04f777bb1e18ce,64c801f4d40b93ae556bc6f7,right,-1,0.75,0.3071,5,0.029105907,0.2095,,,,,,75,0,75,0,1,,,,,
,,326872,001,2023-07-31_20h50.03.645,arm3_eps,2022.2.5,Win32,59.93048064,60d1004080fadfada90afbe6,64c7fed44a04f777bb1e18ce,64c801f4d40b93ae556bc6f7,right,-1,0.75,0.3071,5,0.055981041,0.1764,,,,,,76,0,76,0,1,,,,,
,,326872,001,2023-07-31_20h50.03.645,arm3_eps,2022.2.5,Win32,59.93048064,60d1004080fadfada90afbe6,64c7fed44a04f777bb1e18ce,64c801f4d40b93ae556bc6f7,up,-1,0.75,0.3071,5,0,0.7916,,,,,,77,0,77,0,1,,,,,
,,326872,001,2023-07-31_20h50.03.645,arm3_eps,2022.2.5,Win32,59.93048064,60d1004080fadfada90afbe6,64c7fed44a04f777bb1e18ce,64c801f4d40b93ae556bc6f7,right,-1,0.75,0.3071,5,-0.044102254,0.7461,,,,,,78,0,78,0,1,,,,,
,,326872,001,2023-07-31_20h50.03.645,arm3_eps,2022.2.5,Win32,59.93048064,60d1004080fadfada90afbe6,64c7fed44a04f777bb1e18ce,64c801f4d40b93ae556bc6f7,right,-1,0.75,0.3071,5,-0.053067724,0.1763,,,,,,79,0,79,0,1,,,,,
,,326872,001,2023-07-31_20h50.03.645,arm3_eps,2022.2.5,Win32,59.93048064,60d1004080fadfada90afbe6,64c7fed44a04f777bb1e18ce,64c801f4d40b93ae556bc6f7,right,-1,0.75,0.3071,5,-0.041206307,0.1617,,,,,,80,0,80,0,1,,,,,
,,326872,001,2023-07-31_20h50.03.645,arm3_eps,2022.2.5,Win32,59.93048064,60d1004080fadfada90afbe6,64c7fed44a04f777bb1e18ce,64c801f4d40b93ae556bc6f7,right,-1,0.75,0.3071,5,-0.03817399,0.1774,,,,,,81,0,81,0,1,,,,,
,,326872,001,2023-07-31_20h50.03.645,arm3_eps,2022.2.5,Win32,59.93048064,60d1004080fadfada90afbe6,64c7fed44a04f777bb1e18ce,64c801f4d40b93ae556bc6f7,right,-1,0.75,0.3071,5,-0.082952888,0.1702,,,,,,82,0,82,0,1,,,,,
,,326872,001,2023-07-31_20h50.03.645,arm3_eps,2022.2.5,Win32,59.93048064,60d1004080fadfada90afbe6,64c7fed44a04f777bb1e18ce,64c801f4d40b93ae556bc6f7,right,-1,0.75,0.3071,5,-0.072295347,0.1908,,,,,,83,0,83,0,1,,,,,
,,326872,001,2023-07-31_20h50.03.645,arm3_eps,2022.2.5,Win32,59.93048064,60d1004080fadfada90afbe6,64c7fed44a04f777bb1e18ce,64c801f4d40b93ae556bc6f7,right,-1,0.75,0.3071,5,-0.076496637,0.1795,,,,,,84,0,84,0,1,,,,,
,,326872,001,2023-07-31_20h50.03.645,arm3_eps,2022.2.5,Win32,59.93048064,60d1004080fadfada90afbe6,64c7fed44a04f777bb1e18ce,64c801f4d40b93ae556bc6f7,right,-1,0.75,0.3071,5,-0.063585763,0.2274,,,,,,85,0,85,0,1,,,,,
,,326872,001,2023-07-31_20h50.03.645,arm3_eps,2022.2.5,Win32,59.93048064,60d1004080fadfada90afbe6,64c7fed44a04f777bb1e18ce,64c801f4d40b93ae556bc6f7,right,-1,0.75,0.3071,5,-0.07200162,0.1606,,,,,,86,0,86,0,1,,,,,
,,326872,001,2023-07-31_20h50.03.645,arm3_eps,2022.2.5,Win32,59.93048064,60d1004080fadfada90afbe6,64c7fed44a04f777bb1e18ce,64c801f4d40b93ae556bc6f7,right,-1,0.75,0.3071,5,-0.084406319,0.4637,,,,,,87,0,87,0,1,,,,,
,,326872,001,2023-07-31_20h50.03.645,arm3_eps,2022.2.5,Win32,59.93048064,60d1004080fadfada90afbe6,64c7fed44a04f777bb1e18ce,64c801f4d40b93ae556bc6f7,right,-1,0.75,0.3071,5,-0.074985674,0.269,,,,,,88,0,88,0,1,,,,,
,,326872,001,2023-07-31_20h50.03.645,arm3_eps,2022.2.5,Win32,59.93048064,60d1004080fadfada90afbe6,64c7fed44a04f777bb1e18ce,64c801f4d40b93ae556bc6f7,down,1,0.75,0.3071,6,0,0.5787,,,,,,89,0,89,0,1,,,,,
,,326872,001,2023-07-31_20h50.03.645,arm3_eps,2022.2.5,Win32,59.93048064,60d1004080fadfada90afbe6,64c7fed44a04f777bb1e18ce,64c801f4d40b93ae556bc6f7,right,1,0.75,0.3071,6,0.007982178,0.7952,,,,,,90,0,90,0,1,,,,,
,,326872,001,2023-07-31_20h50.03.645,arm3_eps,2022.2.5,Win32,59.93048064,60d1004080fadfada90afbe6,64c7fed44a04f777bb1e18ce,64c801f4d40b93ae556bc6f7,right,1,0.75,0.3071,6,0.002257805,0.1669,,,,,,91,0,91,0,1,,,,,
,,326872,001,2023-07-31_20h50.03.645,arm3_eps,2022.2.5,Win32,59.93048064,60d1004080fadfada90afbe6,64c7fed44a04f777bb1e18ce,64c801f4d40b93ae556bc6f7,right,1,0.75,0.3071,6,0.035831684,0.1583,,,,,,92,0,92,0,1,,,,,
,,326872,001,2023-07-31_20h50.03.645,arm3_eps,2022.2.5,Win32,59.93048064,60d1004080fadfada90afbe6,64c7fed44a04f777bb1e18ce,64c801f4d40b93ae556bc6f7,right,1,0.75,0.3071,6,0.058995825,0.1336,,,,,,93,0,93,0,1,,,,,
,,326872,001,2023-07-31_20h50.03.645,arm3_eps,2022.2.5,Win32,59.93048064,60d1004080fadfada90afbe6,64c7fed44a04f777bb1e18ce,64c801f4d40b93ae556bc6f7,right,1,0.75,0.3071,6,0.100560095,0.1675,,,,,,94,0,94,0,1,,,,,
,,326872,001,2023-07-31_20h50.03.645,arm3_eps,2022.2.5,Win32,59.93048064,60d1004080fadfada90afbe6,64c7fed44a04f777bb1e18ce,64c801f4d40b93ae556bc6f7,right,1,0.75,0.3071,6,0.098587449,0.16,,,,,,95,0,95,0,1,,,,,
,,326872,001,2023-07-31_20h50.03.645,arm3_eps,2022.2.5,Win32,59.93048064,60d1004080fadfada90afbe6,64c7fed44a04f777bb1e18ce,64c801f4d40b93ae556bc6f7,right,1,0.75,0.3071,6,0.094357407,0.1771,,,,,,96,0,96,0,1,,,,,
,,326872,001,2023-07-31_20h50.03.645,arm3_eps,2022.2.5,Win32,59.93048064,60d1004080fadfada90afbe6,64c7fed44a04f777bb1e18ce,64c801f4d40b93ae556bc6f7,right,1,0.75,0.3071,6,0.105249573,0.2327,,,,,,97,0,97,0,1,,,,,
,,326872,001,2023-07-31_20h50.03.645,arm3_eps,2022.2.5,Win32,59.93048064,60d1004080fadfada90afbe6,64c7fed44a04f777bb1e18ce,64c801f4d40b93ae556bc6f7,up,-1,0.75,0.3071,7,0,0.3625,,,,,,98,0,98,0,1,,,,,
,,326872,001,2023-07-31_20h50.03.645,arm3_eps,2022.2.5,Win32,59.93048064,60d1004080fadfada90afbe6,64c7fed44a04f777bb1e18ce,64c801f4d40b93ae556bc6f7,right,-1,0.75,0.3071,7,-0.01636927,0.7057,,,,,,99,0,99,0,1,,,,,
,,326872,001,2023-07-31_20h50.03.645,arm3_eps,2022.2.5,Win32,59.93048064,60d1004080fadfada90afbe6,64c7fed44a04f777bb1e18ce,64c801f4d40b93ae556bc6f7,right,-1,0.75,0.3071,7,-0.047785379,0.1607,,,,,,100,0,100,0,1,,,,,
,,326872,001,2023-07-31_20h50.03.645,arm3_eps,2022.2.5,Win32,59.93048064,60d1004080fadfada90afbe6,64c7fed44a04f777bb1e18ce,64c801f4d40b93ae556bc6f7,right,-1,0.75,0.3071,7,-0.087074423,0.1774,,,,,,101,0,101,0,1,,,,,
,,326872,001,2023-07-31_20h50.03.645,arm3_eps,2022.2.5,Win32,59.93048064,60d1004080fadfada90afbe6,64c7fed44a04f777bb1e18ce,64c801f4d40b93ae556bc6f7,right,-1,0.75,0.3071,7,-0.101692393,0.2066,,,,,,102,0,102,0,1,,,,,
,,326872,001,2023-07-31_20h50.03.645,arm3_eps,2022.2.5,Win32,59.93048064,60d1004080fadfada90afbe6,64c7fed44a04f777bb1e18ce,64c801f4d40b93ae556bc6f7,right,-1,0.75,0.3071,7,-0.112293326,0.1113,,,,,,103,0,103,0,1,,,,,
,,326872,001,2023-07-31_20h50.03.645,arm3_eps,2022.2.5,Win32,59.93048064,60d1004080fadfada90afbe6,64c7fed44a04f777bb1e18ce,64c801f4d40b93ae556bc6f7,down,1,0.75,0.3071,8,0,0.4781,,,,,,104,0,104,0,1,,,,,
,,326872,001,2023-07-31_20h50.03.645,arm3_eps,2022.2.5,Win32,59.93048064,60d1004080fadfada90afbe6,64c7fed44a04f777bb1e18ce,64c801f4d40b93ae556bc6f7,right,1,0.75,0.3071,8,0.023806604,0.8205,,,,,,105,0,105,0,1,,,,,
,,326872,001,2023-07-31_20h50.03.645,arm3_eps,2022.2.5,Win32,59.93048064,60d1004080fadfada90afbe6,64c7fed44a04f777bb1e18ce,64c801f4d40b93ae556bc6f7,right,1,0.75,0.3071,8,0.004580037,0.1625,,,,,,106,0,106,0,1,,,,,
,,326872,001,2023-07-31_20h50.03.645,arm3_eps,2022.2.5,Win32,59.93048064,60d1004080fadfada90afbe6,64c7fed44a04f777bb1e18ce,64c801f4d40b93ae556bc6f7,right,1,0.75,0.3071,8,-0.006571288,0.1662,,,,,,107,0,107,0,1,,,,,
,,326872,001,2023-07-31_20h50.03.645,arm3_eps,2022.2.5,Win32,59.93048064,60d1004080fadfada90afbe6,64c7fed44a04f777bb1e18ce,64c801f4d40b93ae556bc6f7,right,1,0.75,0.3071,8,-0.027861468,0.1461,,,,,,108,0,108,0,1,,,,,
,,326872,001,2023-07-31_20h50.03.645,arm3_eps,2022.2.5,Win32,59.93048064,60d1004080fadfada90afbe6,64c7fed44a04f777bb1e18ce,64c801f4d40b93ae556bc6f7,right,1,0.75,0.3071,8,-0.031803768,0.2004,,,,,,109,0,109,0,1,,,,,
,,326872,001,2023-07-31_20h50.03.645,arm3_eps,2022.2.5,Win32,59.93048064,60d1004080fadfada90afbe6,64c7fed44a04f777bb1e18ce,64c801f4d40b93ae556bc6f7,right,1,0.75,0.3071,8,-0.000699473,0.1847,,,,,,110,0,110,0,1,,,,,
,,326872,001,2023-07-31_20h50.03.645,arm3_eps,2022.2.5,Win32,59.93048064,60d1004080fadfada90afbe6,64c7fed44a04f777bb1e18ce,64c801f4d40b93ae556bc6f7,right,1,0.75,0.3071,8,-0.025478092,0.1797,,,,,,111,0,111,0,1,,,,,
,,326872,001,2023-07-31_20h50.03.645,arm3_eps,2022.2.5,Win32,59.93048064,60d1004080fadfada90afbe6,64c7fed44a04f777bb1e18ce,64c801f4d40b93ae556bc6f7,right,1,0.75,0.3071,8,0.005900172,0.1964,,,,,,112,0,112,0,1,,,,,
,,326872,001,2023-07-31_20h50.03.645,arm3_eps,2022.2.5,Win32,59.93048064,60d1004080fadfada90afbe6,64c7fed44a04f777bb1e18ce,64c801f4d40b93ae556bc6f7,right,1,0.75,0.3071,8,0.015479886,0.2307,,,,,,113,0,113,0,1,,,,,
,,326872,001,2023-07-31_20h50.03.645,arm3_eps,2022.2.5,Win32,59.93048064,60d1004080fadfada90afbe6,64c7fed44a04f777bb1e18ce,64c801f4d40b93ae556bc6f7,right,1,0.75,0.3071,8,0.041826775,0.463,,,,,,114,0,114,0,1,,,,,
,,326872,001,2023-07-31_20h50.03.645,arm3_eps,2022.2.5,Win32,59.93048064,60d1004080fadfada90afbe6,64c7fed44a04f777bb1e18ce,64c801f4d40b93ae556bc6f7,right,1,0.75,0.3071,8,0.019839689,0.372,,,,,,115,0,115,0,1,,,,,
,,326872,001,2023-07-31_20h50.03.645,arm3_eps,2022.2.5,Win32,59.93048064,60d1004080fadfada90afbe6,64c7fed44a04f777bb1e18ce,64c801f4d40b93ae556bc6f7,right,1,0.75,0.3071,8,-0.000229388,0.3147,,,,,,116,0,116,0,1,,,,,
,,326872,001,2023-07-31_20h50.03.645,arm3_eps,2022.2.5,Win32,59.93048064,60d1004080fadfada90afbe6,64c7fed44a04f777bb1e18ce,64c801f4d40b93ae556bc6f7,up,1,0.75,0.3071,9,0,3.8625,,,,,,117,0,117,0,1,,,,,
,,326872,001,2023-07-31_20h50.03.645,arm3_eps,2022.2.5,Win32,59.93048064,60d1004080fadfada90afbe6,64c7fed44a04f777bb1e18ce,64c801f4d40b93ae556bc6f7,right,1,0.75,0.3071,9,0.021648619,0.8202,,,,,,118,0,118,0,1,,,,,
,,326872,001,2023-07-31_20h50.03.645,arm3_eps,2022.2.5,Win32,59.93048064,60d1004080fadfada90afbe6,64c7fed44a04f777bb1e18ce,64c801f4d40b93ae556bc6f7,right,1,0.75,0.3071,9,0.022265032,0.2164,,,,,,119,0,119,0,1,,,,,
,,326872,001,2023-07-31_20h50.03.645,arm3_eps,2022.2.5,Win32,59.93048064,60d1004080fadfada90afbe6,64c7fed44a04f777bb1e18ce,64c801f4d40b93ae556bc6f7,right,1,0.75,0.3071,9,0.032319755,0.1325,,,,,,120,0,120,0,1,,,,,
,,326872,001,2023-07-31_20h50.03.645,arm3_eps,2022.2.5,Win32,59.93048064,60d1004080fadfada90afbe6,64c7fed44a04f777bb1e18ce,64c801f4d40b93ae556bc6f7,right,1,0.75,0.3071,9,0.04595078,0.1723,,,,,,121,0,121,0,1,,,,,
,,326872,001,2023-07-31_20h50.03.645,arm3_eps,2022.2.5,Win32,59.93048064,60d1004080fadfada90afbe6,64c7fed44a04f777bb1e18ce,64c801f4d40b93ae556bc6f7,right,1,0.75,0.3071,9,0.045800549,0.1515,,,,,,122,0,122,0,1,,,,,
,,326872,001,2023-07-31_20h50.03.645,arm3_eps,2022.2.5,Win32,59.93048064,60d1004080fadfada90afbe6,64c7fed44a04f777bb1e18ce,64c801f4d40b93ae556bc6f7,right,1,0.75,0.3071,9,0.038334522,0.1612,,,,,,123,0,123,0,1,,,,,
,,326872,001,2023-07-31_20h50.03.645,arm3_eps,2022.2.5,Win32,59.93048064,60d1004080fadfada90afbe6,64c7fed44a04f777bb1e18ce,64c801f4d40b93ae556bc6f7,right,1,0.75,0.3071,9,0.074722784,0.1447,,,,,,124,0,124,0,1,,,,,
,,326872,001,2023-07-31_20h50.03.645,arm3_eps,2022.2.5,Win32,59.93048064,60d1004080fadfada90afbe6,64c7fed44a04f777bb1e18ce,64c801f4d40b93ae556bc6f7,right,1,0.75,0.3071,9,0.073618621,0.1775,,,,,,125,0,125,0,1,,,,,
,,326872,001,2023-07-31_20h50.03.645,arm3_eps,2022.2.5,Win32,59.93048064,60d1004080fadfada90afbe6,64c7fed44a04f777bb1e18ce,64c801f4d40b93ae556bc6f7,right,1,0.75,0.3071,9,0.069077631,0.1658,,,,,,126,0,126,0,1,,,,,
,,326872,001,2023-07-31_20h50.03.645,arm3_eps,2022.2.5,Win32,59.93048064,60d1004080fadfada90afbe6,64c7fed44a04f777bb1e18ce,64c801f4d40b93ae556bc6f7,right,1,0.75,0.3071,9,0.095625958,0.1672,,,,,,127,0,127,0,1,,,,,
,,326872,001,2023-07-31_20h50.03.645,arm3_eps,2022.2.5,Win32,59.93048064,60d1004080fadfada90afbe6,64c7fed44a04f777bb1e18ce,64c801f4d40b93ae556bc6f7,right,1,0.75,0.3071,9,0.093352156,0.1493,,,,,,128,0,128,0,1,,,,,
,,326872,001,2023-07-31_20h50.03.645,arm3_eps,2022.2.5,Win32,59.93048064,60d1004080fadfada90afbe6,64c7fed44a04f777bb1e18ce,64c801f4d40b93ae556bc6f7,up,1,0.75,0.3071,10,0,0.382,,,,,,129,0,129,0,1,,,,,
,,326872,001,2023-07-31_20h50.03.645,arm3_eps,2022.2.5,Win32,59.93048064,60d1004080fadfada90afbe6,64c7fed44a04f777bb1e18ce,64c801f4d40b93ae556bc6f7,right,1,0.75,0.3071,10,0.009904389,0.8703,,,,,,130,0,130,0,1,,,,,
,,326872,001,2023-07-31_20h50.03.645,arm3_eps,2022.2.5,Win32,59.93048064,60d1004080fadfada90afbe6,64c7fed44a04f777bb1e18ce,64c801f4d40b93ae556bc6f7,right,1,0.75,0.3071,10,-0.018442232,0.1605,,,,,,131,0,131,0,1,,,,,
,,326872,001,2023-07-31_20h50.03.645,arm3_eps,2022.2.5,Win32,59.93048064,60d1004080fadfada90afbe6,64c7fed44a04f777bb1e18ce,64c801f4d40b93ae556bc6f7,right,1,0.75,0.3071,10,-0.003892848,0.1177,,,,,,132,0,132,0,1,,,,,
,,326872,001,2023-07-31_20h50.03.645,arm3_eps,2022.2.5,Win32,59.93048064,60d1004080fadfada90afbe6,64c7fed44a04f777bb1e18ce,64c801f4d40b93ae556bc6f7,right,1,0.75,0.3071,10,0.020283359,0.1806,,,,,,133,0,133,0,1,,,,,
,,326872,001,2023-07-31_20h50.03.645,arm3_eps,2022.2.5,Win32,59.93048064,60d1004080fadfada90afbe6,64c7fed44a04f777bb1e18ce,64c801f4d40b93ae556bc6f7,right,1,0.75,0.3071,10,0.026749357,0.1626,,,,,,134,0,134,0,1,,,,,
,,326872,001,2023-07-31_20h50.03.645,arm3_eps,2022.2.5,Win32,59.93048064,60d1004080fadfada90afbe6,64c7fed44a04f777bb1e18ce,64c801f4d40b93ae556bc6f7,right,1,0.75,0.3071,10,0.041122142,0.142,,,,,,135,0,135,0,1,,,,,
,,326872,001,2023-07-31_20h50.03.645,arm3_eps,2022.2.5,Win32,59.93048064,60d1004080fadfada90afbe6,64c7fed44a04f777bb1e18ce,64c801f4d40b93ae556bc6f7,right,1,0.75,0.3071,10,0.073889529,0.162,,,,,,136,0,136,0,1,,,,,
,,326872,001,2023-07-31_20h50.03.645,arm3_eps,2022.2.5,Win32,59.93048064,60d1004080fadfada90afbe6,64c7fed44a04f777bb1e18ce,64c801f4d40b93ae556bc6f7,right,1,0.75,0.3071,10,0.094349957,0.1426,,,,,,137,0,137,0,1,,,,,
,,326872,001,2023-07-31_20h50.03.645,arm3_eps,2022.2.5,Win32,59.93048064,60d1004080fadfada90afbe6,64c7fed44a04f777bb1e18ce,64c801f4d40b93ae556bc6f7,right,1,0.75,0.3071,10,0.125643109,0.1743,,,,,,138,0,138,0,1,,,,,
,,326872,001,2023-07-31_20h50.03.645,arm3_eps,2022.2.5,Win32,59.93048064,60d1004080fadfada90afbe6,64c7fed44a04f777bb1e18ce,64c801f4d40b93ae556bc6f7,right,1,0.75,0.3071,10,0.128292124,0.126,,,,,,139,0,139,0,1,,,,,
,,326872,001,2023-07-31_20h50.03.645,arm3_eps,2022.2.5,Win32,59.93048064,60d1004080fadfada90afbe6,64c7fed44a04f777bb1e18ce,64c801f4d40b93ae556bc6f7,up,1,0.75,0.3071,10,0,0.3324,,,,,,140,0,140,0,1,,,,,
,,326872,001,2023-07-31_20h50.03.645,arm3_eps,2022.2.5,Win32,59.93048064,60d1004080fadfada90afbe6,64c7fed44a04f777bb1e18ce,64c801f4d40b93ae556bc6f7,right,1,0.75,0.3071,10,-0.04168694,0.8638,,,,,,141,0,141,0,1,,,,,
,,326872,001,2023-07-31_20h50.03.645,arm3_eps,2022.2.5,Win32,59.93048064,60d1004080fadfada90afbe6,64c7fed44a04f777bb1e18ce,64c801f4d40b93ae556bc6f7,right,1,0.75,0.3071,10,-0.03412398,0.17,,,,,,142,0,142,0,1,,,,,
,,326872,001,2023-07-31_20h50.03.645,arm3_eps,2022.2.5,Win32,59.93048064,60d1004080fadfada90afbe6,64c7fed44a04f777bb1e18ce,64c801f4d40b93ae556bc6f7,right,1,0.75,0.3071,10,-0.033429346,0.1245,,,,,,143,0,143,0,1,,,,,
,,326872,001,2023-07-31_20h50.03.645,arm3_eps,2022.2.5,Win32,59.93048064,60d1004080fadfada90afbe6,64c7fed44a04f777bb1e18ce,64c801f4d40b93ae556bc6f7,right,1,0.75,0.3071,10,-0.073123166,0.1446,,,,,,144,0,144,0,1,,,,,
,,326872,001,2023-07-31_20h50.03.645,arm3_eps,2022.2.5,Win32,59.93048064,60d1004080fadfada90afbe6,64c7fed44a04f777bb1e18ce,64c801f4d40b93ae556bc6f7,right,1,0.75,0.3071,10,-0.073904931,0.1433,,,,,,145,0,145,0,1,,,,,
,,326872,001,2023-07-31_20h50.03.645,arm3_eps,2022.2.5,Win32,59.93048064,60d1004080fadfada90afbe6,64c7fed44a04f777bb1e18ce,64c801f4d40b93ae556bc6f7,right,1,0.75,0.3071,10,-0.066650737,0.1347,,,,,,146,0,146,0,1,,,,,
,,326872,001,2023-07-31_20h50.03.645,arm3_eps,2022.2.5,Win32,59.93048064,60d1004080fadfada90afbe6,64c7fed44a04f777bb1e18ce,64c801f4d40b93ae556bc6f7,down,1,0.75,0.3071,9,0,0.1961,,,,,,147,0,147,0,1,,,,,
,,326872,001,2023-07-31_20h50.03.645,arm3_eps,2022.2.5,Win32,59.93048064,60d1004080fadfada90afbe6,64c7fed44a04f777bb1e18ce,64c801f4d40b93ae556bc6f7,right,1,0.75,0.3071,9,-0.025845299,0.8205,,,,,,148,0,148,0,1,,,,,
,,326872,001,2023-07-31_20h50.03.645,arm3_eps,2022.2.5,Win32,59.93048064,60d1004080fadfada90afbe6,64c7fed44a04f777bb1e18ce,64c801f4d40b93ae556bc6f7,right,1,0.75,0.3071,9,-0.046637468,0.1502,,,,,,149,0,149,0,1,,,,,
,,326872,001,2023-07-31_20h50.03.645,arm3_eps,2022.2.5,Win32,59.93048064,60d1004080fadfada90afbe6,64c7fed44a04f777bb1e18ce,64c801f4d40b93ae556bc6f7,right,1,0.75,0.3071,9,-0.040507294,0.1752,,,,,,150,0,150,0,1,,,,,
,,326872,001,2023-07-31_20h50.03.645,arm3_eps,2022.2.5,Win32,59.93048064,60d1004080fadfada90afbe6,64c7fed44a04f777bb1e18ce,64c801f4d40b93ae556bc6f7,right,1,0.75,0.3071,9,-0.035687673,0.1564,,,,,,151,0,151,0,1,,,,,
,,326872,001,2023-07-31_20h50.03.645,arm3_eps,2022.2.5,Win32,59.93048064,60d1004080fadfada90afbe6,64c7fed44a04f777bb1e18ce,64c801f4d40b93ae556bc6f7,right,1,0.75,0.3071,9,-0.026130269,0.1483,,,,,,152,0,152,0,1,,,,,
,,326872,001,2023-07-31_20h50.03.645,arm3_eps,2022.2.5,Win32,59.93048064,60d1004080fadfada90afbe6,64c7fed44a04f777bb1e18ce,64c801f4d40b93ae556bc6f7,right,1,0.75,0.3071,9,-0.025710838,0.1707,,,,,,153,0,153,0,1,,,,,
,,326872,001,2023-07-31_20h50.03.645,arm3_eps,2022.2.5,Win32,59.93048064,60d1004080fadfada90afbe6,64c7fed44a04f777bb1e18ce,64c801f4d40b93ae556bc6f7,right,1,0.75,0.3071,9,-0.000502269,0.1755,,,,,,154,0,154,0,1,,,,,
,,326872,001,2023-07-31_20h50.03.645,arm3_eps,2022.2.5,Win32,59.93048064,60d1004080fadfada90afbe6,64c7fed44a04f777bb1e18ce,64c801f4d40b93ae556bc6f7,right,1,0.75,0.3071,9,0.022457488,0.1763,,,,,,155,0,155,0,1,,,,,
,,326872,001,2023-07-31_20h50.03.645,arm3_eps,2022.2.5,Win32,59.93048064,60d1004080fadfada90afbe6,64c7fed44a04f777bb1e18ce,64c801f4d40b93ae556bc6f7,right,1,0.75,0.3071,9,0.018717499,0.26,,,,,,156,0,156,0,1,,,,,
,,326872,001,2023-07-31_20h50.03.645,arm3_eps,2022.2.5,Win32,59.93048064,60d1004080fadfada90afbe6,64c7fed44a04f777bb1e18ce,64c801f4d40b93ae556bc6f7,right,1,0.75,0.3071,9,0.031650872,0.1748,,,,,,157,0,157,0,1,,,,,
,,326872,001,2023-07-31_20h50.03.645,arm3_eps,2022.2.5,Win32,59.93048064,60d1004080fadfada90afbe6,64c7fed44a04f777bb1e18ce,64c801f4d40b93ae556bc6f7,right,1,0.75,0.3071,9,0.058963992,0.1726,,,,,,158,0,158,0,1,,,,,
,,326872,001,2023-07-31_20h50.03.645,arm3_eps,2022.2.5,Win32,59.93048064,60d1004080fadfada90afbe6,64c7fed44a04f777bb1e18ce,64c801f4d40b93ae556bc6f7,right,1,0.75,0.3071,9,0.092129953,0.152,,,,,,159,0,159,0,1,,,,,
,,326872,001,2023-07-31_20h50.03.645,arm3_eps,2022.2.5,Win32,59.93048064,60d1004080fadfada90afbe6,64c7fed44a04f777bb1e18ce,64c801f4d40b93ae556bc6f7,up,1,0.75,0.3071,10,0,0.9091,,,,,,160,0,160,0,1,,,,,
,,326872,001,2023-07-31_20h50.03.645,arm3_eps,2022.2.5,Win32,59.93048064,60d1004080fadfada90afbe6,64c7fed44a04f777bb1e18ce,64c801f4d40b93ae556bc6f7,right,1,0.75,0.3071,10,-0.001547881,0.8668,,,,,,161,0,161,0,1,,,,,
,,326872,001,2023-07-31_20h50.03.645,arm3_eps,2022.2.5,Win32,59.93048064,60d1004080fadfada90afbe6,64c7fed44a04f777bb1e18ce,64c801f4d40b93ae556bc6f7,right,1,0.75,0.3071,10,0.030415369,0.224,,,,,,162,0,162,0,1,,,,,
,,326872,001,2023-07-31_20h50.03.645,arm3_eps,2022.2.5,Win32,59.93048064,60d1004080fadfada90afbe6,64c7fed44a04f777bb1e18ce,64c801f4d40b93ae556bc6f7,right,1,0.75,0.3071,10,0.003756785,0.1047,,,,,,163,0,163,0,1,,,,,
,,326872,001,2023-07-31_20h50.03.645,arm3_eps,2022.2.5,Win32,59.93048064,60d1004080fadfada90afbe6,64c7fed44a04f777bb1e18ce,64c801f4d40b93ae556bc6f7,right,1,0.75,0.3071,10,0.008538029,0.1137,,,,,,164,0,164,0,1,,,,,
,,326872,001,2023-07-31_20h50.03.645,arm3_eps,2022.2.5,Win32,59.93048064,60d1004080fadfada90afbe6,64c7fed44a04f777bb1e18ce,64c801f4d40b93ae556bc6f7,right,1,0.75,0.3071,10,0.027609172,0.1937,,,,,,165,0,165,0,1,,,,,
,,326872,001,2023-07-31_20h50.03.645,arm3_eps,2022.2.5,Win32,59.93048064,60d1004080fadfada90afbe6,64c7fed44a04f777bb1e18ce,64c801f4d40b93ae556bc6f7,right,1,0.75,0.3071,10,0.04100708,0.1615,,,,,,166,0,166,0,1,,,,,
,,326872,001,2023-07-31_20h50.03.645,arm3_eps,2022.2.5,Win32,59.93048064,60d1004080fadfada90afbe6,64c7fed44a04f777bb1e18ce,64c801f4d40b93ae556bc6f7,right,1,0.75,0.3071,10,0.049193463,0.1778,,,,,,167,0,167,0,1,,,,,
,,326872,001,2023-07-31_20h50.03.645,arm3_eps,2022.2.5,Win32,59.93048064,60d1004080fadfada90afbe6,64c7fed44a04f777bb1e18ce,64c801f4d40b93ae556bc6f7,right,1,0.75,0.3071,10,0.10676117,0.1953,,,,,,168,0,168,0,1,,,,,
,,326872,001,2023-07-31_20h50.03.645,arm3_eps,2022.2.5,Win32,59.93048064,60d1004080fadfada90afbe6,64c7fed44a04f777bb1e18ce,64c801f4d40b93ae556bc6f7,right,1,0.75,0.3071,10,0.112960418,0.1923,,,,,,169,0,169,0,1,,,,,
,,326872,001,2023-07-31_20h50.03.645,arm3_eps,2022.2.5,Win32,59.93048064,60d1004080fadfada90afbe6,64c7fed44a04f777bb1e18ce,64c801f4d40b93ae556bc6f7,right,1,0.75,0.3071,10,0.124692632,0.2062,,,,,,170,0,170,0,1,,,,,
,,326872,001,2023-07-31_20h50.03.645,arm3_eps,2022.2.5,Win32,59.93048064,60d1004080fadfada90afbe6,64c7fed44a04f777bb1e18ce,64c801f4d40b93ae556bc6f7,right,1,0.75,0.3071,10,0.085916163,0.4773,,,,,,171,0,171,0,1,,,,,
,,326872,001,2023-07-31_20h50.03.645,arm3_eps,2022.2.5,Win32,59.93048064,60d1004080fadfada90afbe6,64c7fed44a04f777bb1e18ce,64c801f4d40b93ae556bc6f7,right,1,0.75,0.3071,10,0.094866638,0.515,,,,,,172,0,172,0,1,,,,,
,,326872,001,2023-07-31_20h50.03.645,arm3_eps,2022.2.5,Win32,59.93048064,60d1004080fadfada90afbe6,64c7fed44a04f777bb1e18ce,64c801f4d40b93ae556bc6f7,up,1,0.75,0.3071,11,0,0.365,,,,,,173,0,173,0,1,,,,,
,,326872,001,2023-07-31_20h50.03.645,arm3_eps,2022.2.5,Win32,59.93048064,60d1004080fadfada90afbe6,64c7fed44a04f777bb1e18ce,64c801f4d40b93ae556bc6f7,right,1,0.75,0.3071,11,0.029935263,0.763,,,,,,174,0,174,0,1,,,,,
,,326872,001,2023-07-31_20h50.03.645,arm3_eps,2022.2.5,Win32,59.93048064,60d1004080fadfada90afbe6,64c7fed44a04f777bb1e18ce,64c801f4d40b93ae556bc6f7,right,1,0.75,0.3071,11,-0.009933979,0.1734,,,,,,175,0,175,0,1,,,,,
,,326872,001,2023-07-31_20h50.03.645,arm3_eps,2022.2.5,Win32,59.93048064,60d1004080fadfada90afbe6,64c7fed44a04f777bb1e18ce,64c801f4d40b93ae556bc6f7,right,1,0.75,0.3071,11,0.019477064,0.1488,,,,,,176,0,176,0,1,,,,,
,,326872,001,2023-07-31_20h50.03.645,arm3_eps,2022.2.5,Win32,59.93048064,60d1004080fadfada90afbe6,64c7fed44a04f777bb1e18ce,64c801f4d40b93ae556bc6f7,right,1,0.75,0.3071,11,0.005797042,0.1419,,,,,,177,0,177,0,1,,,,,
,,326872,001,2023-07-31_20h50.03.645,arm3_eps,2022.2.5,Win32,59.93048064,60d1004080fadfada90afbe6,64c7fed44a04f777bb1e18ce,64c801f4d40b93ae556bc6f7,right,1,0.75,0.3071,11,0.030847895,0.1939,,,,,,178,0,178,0,1,,,,,
,,326872,001,2023-07-31_20h50.03.645,arm3_eps,2022.2.5,Win32,59.93048064,60d1004080fadfada90afbe6,64c7fed44a04f777bb1e18ce,64c801f4d40b93ae556bc6f7,right,1,0.75,0.3071,11,0.008896004,0.1625,,,,,,179,0,179,0,1,,,,,
,,326872,001,2023-07-31_20h50.03.645,arm3_eps,2022.2.5,Win32,59.93048064,60d1004080fadfada90afbe6,64c7fed44a04f777bb1e18ce,64c801f4d40b93ae556bc6f7,right,1,0.75,0.3071,11,0.01052165,0.1657,,,,,,180,0,180,0,1,,,,,
,,326872,001,2023-07-31_20h50.03.645,arm3_eps,2022.2.5,Win32,59.93048064,60d1004080fadfada90afbe6,64c7fed44a04f777bb1e18ce,64c801f4d40b93ae556bc6f7,right,1,0.75,0.3071,11,0.032639859,0.2013,,,,,,181,0,181,0,1,,,,,
,,326872,001,2023-07-31_20h50.03.645,arm3_eps,2022.2.5,Win32,59.93048064,60d1004080fadfada90afbe6,64c7fed44a04f777bb1e18ce,64c801f4d40b93ae556bc6f7,right,1,0.75,0.3071,11,0.041350814,0.1865,,,,,,182,0,182,0,1,,,,,
,,326872,001,2023-07-31_20h50.03.645,arm3_eps,2022.2.5,Win32,59.93048064,60d1004080fadfada90afbe6,64c7fed44a04f777bb1e18ce,64c801f4d40b93ae556bc6f7,right,1,0.75,0.3071,11,0.051769169,0.1872,,,,,,183,0,183,0,1,,,,,
,,326872,001,2023-07-31_20h50.03.645,arm3_eps,2022.2.5,Win32,59.93048064,60d1004080fadfada90afbe6,64c7fed44a04f777bb1e18ce,64c801f4d40b93ae556bc6f7,right,1,0.75,0.3071,11,0.070041384,0.1612,,,,,,184,0,184,0,1,,,,,
,,326872,001,2023-07-31_20h50.03.645,arm3_eps,2022.2.5,Win32,59.93048064,60d1004080fadfada90afbe6,64c7fed44a04f777bb1e18ce,64c801f4d40b93ae556bc6f7,right,1,0.75,0.3071,11,0.074726251,0.2508,,,,,,185,0,185,0,1,,,,,
,,326872,001,2023-07-31_20h50.03.645,arm3_eps,2022.2.5,Win32,59.93048064,60d1004080fadfada90afbe6,64c7fed44a04f777bb1e18ce,64c801f4d40b93ae556bc6f7,up,1,0.75,0.3071,11,0,0.9587,,,,,,186,0,186,0,1,,,,,
,,326872,001,2023-07-31_20h50.03.645,arm3_eps,2022.2.5,Win32,59.93048064,60d1004080fadfada90afbe6,64c7fed44a04f777bb1e18ce,64c801f4d40b93ae556bc6f7,right,1,0.75,0.3071,11,-0.011509117,0.8406,,,,,,187,0,187,0,1,,,,,
,,326872,001,2023-07-31_20h50.03.645,arm3_eps,2022.2.5,Win32,59.93048064,60d1004080fadfada90afbe6,64c7fed44a04f777bb1e18ce,64c801f4d40b93ae556bc6f7,right,1,0.75,0.3071,11,0.008970014,0.1451,,,,,,188,0,188,0,1,,,,,
,,326872,001,2023-07-31_20h50.03.645,arm3_eps,2022.2.5,Win32,59.93048064,60d1004080fadfada90afbe6,64c7fed44a04f777bb1e18ce,64c801f4d40b93ae556bc6f7,right,1,0.75,0.3071,11,0.02951958,0.1598,,,,,,189,0,189,0,1,,,,,
,,326872,001,2023-07-31_20h50.03.645,arm3_eps,2022.2.5,Win32,59.93048064,60d1004080fadfada90afbe6,64c7fed44a04f777bb1e18ce,64c801f4d40b93ae556bc6f7,right,1,0.75,0.3071,11,0.036308136,0.176,,,,,,190,0,190,0,1,,,,,
,,326872,001,2023-07-31_20h50.03.645,arm3_eps,2022.2.5,Win32,59.93048064,60d1004080fadfada90afbe6,64c7fed44a04f777bb1e18ce,64c801f4d40b93ae556bc6f7,right,1,0.75,0.3071,11,0.043076458,0.1586,,,,,,191,0,191,0,1,,,,,
,,326872,001,2023-07-31_20h50.03.645,arm3_eps,2022.2.5,Win32,59.93048064,60d1004080fadfada90afbe6,64c7fed44a04f777bb1e18ce,64c801f4d40b93ae556bc6f7,right,1,0.75,0.3071,11,0.030999747,0.1751,,,,,,192,0,192,0,1,,,,,
,,326872,001,2023-07-31_20h50.03.645,arm3_eps,2022.2.5,Win32,59.93048064,60d1004080fadfada90afbe6,64c7fed44a04f777bb1e18ce,64c801f4d40b93ae556bc6f7,right,1,0.75,0.3071,11,0.046449869,0.1414,,,,,,193,0,193,0,1,,,,,
,,326872,001,2023-07-31_20h50.03.645,arm3_eps,2022.2.5,Win32,59.93048064,60d1004080fadfada90afbe6,64c7fed44a04f777bb1e18ce,64c801f4d40b93ae556bc6f7,right,1,0.75,0.3071,11,0.07042975,0.1824,,,,,,194,0,194,0,1,,,,,
,,326872,001,2023-07-31_20h50.03.645,arm3_eps,2022.2.5,Win32,59.93048064,60d1004080fadfada90afbe6,64c7fed44a04f777bb1e18ce,64c801f4d40b93ae556bc6f7,right,1,0.75,0.3071,11,0.094072272,0.1646,,,,,,195,0,195,0,1,,,,,
,,326872,001,2023-07-31_20h50.03.645,arm3_eps,2022.2.5,Win32,59.93048064,60d1004080fadfada90afbe6,64c7fed44a04f777bb1e18ce,64c801f4d40b93ae556bc6f7,right,1,0.75,0.3071,11,0.068376895,0.1742,,,,,,196,0,196,0,1,,,,,
,,326872,001,2023-07-31_20h50.03.645,arm3_eps,2022.2.5,Win32,59.93048064,60d1004080fadfada90afbe6,64c7fed44a04f777bb1e18ce,64c801f4d40b93ae556bc6f7,right,1,0.75,0.3071,11,0.059123685,0.1577,,,,,,197,0,197,0,1,,,,,
,,326872,001,2023-07-31_20h50.03.645,arm3_eps,2022.2.5,Win32,59.93048064,60d1004080fadfada90afbe6,64c7fed44a04f777bb1e18ce,64c801f4d40b93ae556bc6f7,right,1,0.75,0.3071,11,0.034820749,0.181,,,,,,198,0,198,0,1,,,,,
,,326872,001,2023-07-31_20h50.03.645,arm3_eps,2022.2.5,Win32,59.93048064,60d1004080fadfada90afbe6,64c7fed44a04f777bb1e18ce,64c801f4d40b93ae556bc6f7,up,-1,0.75,0.3071,12,0,0.9525,,,,,,199,0,199,0,1,,,,,
,,326872,001,2023-07-31_20h50.03.645,arm3_eps,2022.2.5,Win32,59.93048064,60d1004080fadfada90afbe6,64c7fed44a04f777bb1e18ce,64c801f4d40b93ae556bc6f7,right,-1,0.75,0.3071,12,-0.019714821,0.8483,,,,,,200,0,200,0,1,,,,,
,,326872,001,2023-07-31_20h50.03.645,arm3_eps,2022.2.5,Win32,59.93048064,60d1004080fadfada90afbe6,64c7fed44a04f777bb1e18ce,64c801f4d40b93ae556bc6f7,right,-1,0.75,0.3071,12,-0.039637411,0.1657,,,,,,201,0,201,0,1,,,,,
,,326872,001,2023-07-31_20h50.03.645,arm3_eps,2022.2.5,Win32,59.93048064,60d1004080fadfada90afbe6,64c7fed44a04f777bb1e18ce,64c801f4d40b93ae556bc6f7,right,-1,0.75,0.3071,12,-0.048232353,0.1843,,,,,,202,0,202,0,1,,,,,
,,326872,001,2023-07-31_20h50.03.645,arm3_eps,2022.2.5,Win32,59.93048064,60d1004080fadfada90afbe6,64c7fed44a04f777bb1e18ce,64c801f4d40b93ae556bc6f7,right,-1,0.75,0.3071,12,-0.025906386,0.12,,,,,,203,0,203,0,1,,,,,
,,326872,001,2023-07-31_20h50.03.645,arm3_eps,2022.2.5,Win32,59.93048064,60d1004080fadfada90afbe6,64c7fed44a04f777bb1e18ce,64c801f4d40b93ae556bc6f7,right,-1,0.75,0.3071,12,-0.045118425,0.1984,,,,,,204,0,204,0,1,,,,,
,,326872,001,2023-07-31_20h50.03.645,arm3_eps,2022.2.5,Win32,59.93048064,60d1004080fadfada90afbe6,64c7fed44a04f777bb1e18ce,64c801f4d40b93ae556bc6f7,right,-1,0.75,0.3071,12,-0.067592008,0.1338,,,,,,205,0,205,0,1,,,,,
,,326872,001,2023-07-31_20h50.03.645,arm3_eps,2022.2.5,Win32,59.93048064,60d1004080fadfada90afbe6,64c7fed44a04f777bb1e18ce,64c801f4d40b93ae556bc6f7,right,-1,0.75,0.3071,12,-0.071613665,0.179,,,,,,206,0,206,0,1,,,,,
,,326872,001,2023-07-31_20h50.03.645,arm3_eps,2022.2.5,Win32,59.93048064,60d1004080fadfada90afbe6,64c7fed44a04f777bb1e18ce,64c801f4d40b93ae556bc6f7,right,-1,0.75,0.3071,12,-0.086365355,0.1616,,,,,,207,0,207,0,1,,,,,
,,326872,001,2023-07-31_20h50.03.645,arm3_eps,2022.2.5,Win32,59.93048064,60d1004080fadfada90afbe6,64c7fed44a04f777bb1e18ce,64c801f4d40b93ae556bc6f7,right,-1,0.75,0.3071,12,-0.057915622,0.1608,,,,,,208,0,208,0,1,,,,,
,,326872,001,2023-07-31_20h50.03.645,arm3_eps,2022.2.5,Win32,59.93048064,60d1004080fadfada90afbe6,64c7fed44a04f777bb1e18ce,64c801f4d40b93ae556bc6f7,right,-1,0.75,0.3071,12,-0.070492581,0.1323,,,,,,209,0,209,0,1,,,,,
,,326872,001,2023-07-31_20h50.03.645,arm3_eps,2022.2.5,Win32,59.93048064,60d1004080fadfada90afbe6,64c7fed44a04f777bb1e18ce,64c801f4d40b93ae556bc6f7,down,-1,0.75,0.3071,13,0,0.3256,,,,,,210,0,210,0,1,,,,,
,,326872,001,2023-07-31_20h50.03.645,arm3_eps,2022.2.5,Win32,59.93048064,60d1004080fadfada90afbe6,64c7fed44a04f777bb1e18ce,64c801f4d40b93ae556bc6f7,right,-1,0.75,0.3071,13,-0.017247997,1.3558,,,,,,211,0,211,0,1,,,,,
,,326872,001,2023-07-31_20h50.03.645,arm3_eps,2022.2.5,Win32,59.93048064,60d1004080fadfada90afbe6,64c7fed44a04f777bb1e18ce,64c801f4d40b93ae556bc6f7,right,-1,0.75,0.3071,13,-0.052135142,0.1956,,,,,,212,0,212,0,1,,,,,
,,326872,001,2023-07-31_20h50.03.645,arm3_eps,2022.2.5,Win32,59.93048064,60d1004080fadfada90afbe6,64c7fed44a04f777bb1e18ce,64c801f4d40b93ae556bc6f7,right,-1,0.75,0.3071,13,-0.050455348,0.1761,,,,,,213,0,213,0,1,,,,,
,,326872,001,2023-07-31_20h50.03.645,arm3_eps,2022.2.5,Win32,59.93048064,60d1004080fadfada90afbe6,64c7fed44a04f777bb1e18ce,64c801f4d40b93ae556bc6f7,right,-1,0.75,0.3071,13,-0.046798557,0.1696,,,,,,214,0,214,0,1,,,,,
,,326872,001,2023-07-31_20h50.03.645,arm3_eps,2022.2.5,Win32,59.93048064,60d1004080fadfada90afbe6,64c7fed44a04f777bb1e18ce,64c801f4d40b93ae556bc6f7,right,-1,0.75,0.3071,13,-0.030391451,0.1794,,,,,,215,0,215,0,1,,,,,
,,326872,001,2023-07-31_20h50.03.645,arm3_eps,2022.2.5,Win32,59.93048064,60d1004080fadfada90afbe6,64c7fed44a04f777bb1e18ce,64c801f4d40b93ae556bc6f7,right,-1,0.75,0.3071,13,-0.026132233,0.2832,,,,,,216,0,216,0,1,,,,,
,,326872,001,2023-07-31_20h50.03.645,arm3_eps,2022.2.5,Win32,59.93048064,60d1004080fadfada90afbe6,64c7fed44a04f777bb1e18ce,64c801f4d40b93ae556bc6f7,right,-1,0.75,0.3071,13,-0.035861705,0.2635,,,,,,217,0,217,0,1,,,,,
,,326872,001,2023-07-31_20h50.03.645,arm3_eps,2022.2.5,Win32,59.93048064,60d1004080fadfada90afbe6,64c7fed44a04f777bb1e18ce,64c801f4d40b93ae556bc6f7,right,-1,0.75,0.3071,13,-0.036641698,0.2188,,,,,,218,0,218,0,1,,,,,
,,326872,001,2023-07-31_20h50.03.645,arm3_eps,2022.2.5,Win32,59.93048064,60d1004080fadfada90afbe6,64c7fed44a04f777bb1e18ce,64c801f4d40b93ae556bc6f7,right,-1,0.75,0.3071,13,-0.043152539,0.179,,,,,,219,0,219,0,1,,,,,
,,326872,001,2023-07-31_20h50.03.645,arm3_eps,2022.2.5,Win32,59.93048064,60d1004080fadfada90afbe6,64c7fed44a04f777bb1e18ce,64c801f4d40b93ae556bc6f7,right,-1,0.75,0.3071,13,-0.055528847,0.4798,,,,,,220,0,220,0,1,,,,,
,,326872,001,2023-07-31_20h50.03.645,arm3_eps,2022.2.5,Win32,59.93048064,60d1004080fadfada90afbe6,64c7fed44a04f777bb1e18ce,64c801f4d40b93ae556bc6f7,right,-1,0.75,0.3071,13,-0.083920028,0.1817,,,,,,221,0,221,0,1,,,,,
,,326872,001,2023-07-31_20h50.03.645,arm3_eps,2022.2.5,Win32,59.93048064,60d1004080fadfada90afbe6,64c7fed44a04f777bb1e18ce,64c801f4d40b93ae556bc6f7,right,-1,0.75,0.3071,13,-0.076237941,0.2288,,,,,,222,0,222,0,1,,,,,
,,326872,001,2023-07-31_20h50.03.645,arm3_eps,2022.2.5,Win32,59.93048064,60d1004080fadfada90afbe6,64c7fed44a04f777bb1e18ce,64c801f4d40b93ae556bc6f7,down,1,0.75,0.3071,14,0,2.3642,,,,,,223,0,223,0,1,,,,,
,,326872,001,2023-07-31_20h50.03.645,arm3_eps,2022.2.5,Win32,59.93048064,60d1004080fadfada90afbe6,64c7fed44a04f777bb1e18ce,64c801f4d40b93ae556bc6f7,right,1,0.75,0.3071,14,0.005431185,0.943,,,,,,224,0,224,0,1,,,,,
,,326872,001,2023-07-31_20h50.03.645,arm3_eps,2022.2.5,Win32,59.93048064,60d1004080fadfada90afbe6,64c7fed44a04f777bb1e18ce,64c801f4d40b93ae556bc6f7,right,1,0.75,0.3071,14,-0.002574967,0.1576,,,,,,225,0,225,0,1,,,,,
,,326872,001,2023-07-31_20h50.03.645,arm3_eps,2022.2.5,Win32,59.93048064,60d1004080fadfada90afbe6,64c7fed44a04f777bb1e18ce,64c801f4d40b93ae556bc6f7,right,1,0.75,0.3071,14,-0.02182595,0.1429,,,,,,226,0,226,0,1,,,,,
,,326872,001,2023-07-31_20h50.03.645,arm3_eps,2022.2.5,Win32,59.93048064,60d1004080fadfada90afbe6,64c7fed44a04f777bb1e18ce,64c801f4d40b93ae556bc6f7,right,1,0.75,0.3071,14,-0.023973146,0.1415,,,,,,227,0,227,0,1,,,,,
,,326872,001,2023-07-31_20h50.03.645,arm3_eps,2022.2.5,Win32,59.93048064,60d1004080fadfada90afbe6,64c7fed44a04f777bb1e18ce,64c801f4d40b93ae556bc6f7,right,1,0.75,0.3071,14,-0.002407961,0.1952,,,,,,228,0,228,0,1,,,,,
,,326872,001,2023-07-31_20h50.03.645,arm3_eps,2022.2.5,Win32,59.93048064,60d1004080fadfada90afbe6,64c7fed44a04f777bb1e18ce,64c801f4d40b93ae556bc6f7,right,1,0.75,0.3071,14,0.014026719,0.177,,,,,,229,0,229,0,1,,,,,
,,326872,001,2023-07-31_20h50.03.645,arm3_eps,2022.2.5,Win32,59.93048064,60d1004080fadfada90afbe6,64c7fed44a04f777bb1e18ce,64c801f4d40b93ae556bc6f7,right,1,0.75,0.3071,14,0.022252087,0.1687,,,,,,230,0,230,0,1,,,,,
,,326872,001,2023-07-31_20h50.03.645,arm3_eps,2022.2.5,Win32,59.93048064,60d1004080fadfada90afbe6,64c7fed44a04f777bb1e18ce,64c801f4d40b93ae556bc6f7,right,1,0.75,0.3071,14,0.048994592,0.192,,,,,,231,0,231,0,1,,,,,
,,326872,001,2023-07-31_20h50.03.645,arm3_eps,2022.2.5,Win32,59.93048064,60d1004080fadfada90afbe6,64c7fed44a04f777bb1e18ce,64c801f4d40b93ae556bc6f7,right,1,0.75,0.3071,14,0.052988368,0.1492,,,,,,232,0,232,0,1,,,,,
,,326872,001,2023-07-31_20h50.03.645,arm3_eps,2022.2.5,Win32,59.93048064,60d1004080fadfada90afbe6,64c7fed44a04f777bb1e18ce,64c801f4d40b93ae556bc6f7,right,1,0.75,0.3071,14,0.06884803,0.2352,,,,,,233,0,233,0,1,,,,,
,,326872,001,2023-07-31_20h50.03.645,arm3_eps,2022.2.5,Win32,59.93048064,60d1004080fadfada90afbe6,64c7fed44a04f777bb1e18ce,64c801f4d40b93ae556bc6f7,right,1,0.75,0.3071,14,0.043377912,0.2495,,,,,,234,0,234,0,1,,,,,
,,326872,001,2023-07-31_20h50.03.645,arm3_eps,2022.2.5,Win32,59.93048064,60d1004080fadfada90afbe6,64c7fed44a04f777bb1e18ce,64c801f4d40b93ae556bc6f7,right,1,0.75,0.3071,14,0.019229525,1.3241,,,,,,235,0,235,0,1,,,,,
,,326872,001,2023-07-31_20h50.03.645,arm3_eps,2022.2.5,Win32,59.93048064,60d1004080fadfada90afbe6,64c7fed44a04f777bb1e18ce,64c801f4d40b93ae556bc6f7,down,1,0.75,0.3071,13,0,2.7107,,,,,,236,0,236,0,1,,,,,
,,326872,001,2023-07-31_20h50.03.645,arm3_eps,2022.2.5,Win32,59.93048064,60d1004080fadfada90afbe6,64c7fed44a04f777bb1e18ce,64c801f4d40b93ae556bc6f7,right,1,0.75,0.3071,13,0.019493504,0.8684,,,,,,237,0,237,0,1,,,,,
,,326872,001,2023-07-31_20h50.03.645,arm3_eps,2022.2.5,Win32,59.93048064,60d1004080fadfada90afbe6,64c7fed44a04f777bb1e18ce,64c801f4d40b93ae556bc6f7,right,1,0.75,0.3071,13,0.012269576,0.1951,,,,,,238,0,238,0,1,,,,,
,,326872,001,2023-07-31_20h50.03.645,arm3_eps,2022.2.5,Win32,59.93048064,60d1004080fadfada90afbe6,64c7fed44a04f777bb1e18ce,64c801f4d40b93ae556bc6f7,right,1,0.75,0.3071,13,0.037757596,0.1621,,,,,,239,0,239,0,1,,,,,
,,326872,001,2023-07-31_20h50.03.645,arm3_eps,2022.2.5,Win32,59.93048064,60d1004080fadfada90afbe6,64c7fed44a04f777bb1e18ce,64c801f4d40b93ae556bc6f7,right,1,0.75,0.3071,13,0.087384598,0.1615,,,,,,240,0,240,0,1,,,,,
,,326872,001,2023-07-31_20h50.03.645,arm3_eps,2022.2.5,Win32,59.93048064,60d1004080fadfada90afbe6,64c7fed44a04f777bb1e18ce,64c801f4d40b93ae556bc6f7,right,1,0.75,0.3071,13,0.066507484,0.1784,,,,,,241,0,241,0,1,,,,,
,,326872,001,2023-07-31_20h50.03.645,arm3_eps,2022.2.5,Win32,59.93048064,60d1004080fadfada90afbe6,64c7fed44a04f777bb1e18ce,64c801f4d40b93ae556bc6f7,right,1,0.75,0.3071,13,0.081507596,0.1671,,,,,,242,0,242,0,1,,,,,
,,326872,001,2023-07-31_20h50.03.645,arm3_eps,2022.2.5,Win32,59.93048064,60d1004080fadfada90afbe6,64c7fed44a04f777bb1e18ce,64c801f4d40b93ae556bc6f7,right,1,0.75,0.3071,13,0.112852649,0.1792,,,,,,243,0,243,0,1,,,,,
,,326872,001,2023-07-31_20h50.03.645,arm3_eps,2022.2.5,Win32,59.93048064,60d1004080fadfada90afbe6,64c7fed44a04f777bb1e18ce,64c801f4d40b93ae556bc6f7,right,1,0.75,0.3071,13,0.143267274,0.1451,,,,,,244,0,244,0,1,,,,,
,,326872,001,2023-07-31_20h50.03.645,arm3_eps,2022.2.5,Win32,59.93048064,60d1004080fadfada90afbe6,64c7fed44a04f777bb1e18ce,64c801f4d40b93ae556bc6f7,right,1,0.75,0.3071,13,0.146157417,0.1622,,,,,,245,0,245,0,1,,,,,
,,326872,001,2023-07-31_20h50.03.645,arm3_eps,2022.2.5,Win32,59.93048064,60d1004080fadfada90afbe6,64c7fed44a04f777bb1e18ce,64c801f4d40b93ae556bc6f7,right,1,0.75,0.3071,13,0.165596183,0.2118,,,,,,246,0,246,0,1,,,,,
,,326872,001,2023-07-31_20h50.03.645,arm3_eps,2022.2.5,Win32,59.93048064,60d1004080fadfada90afbe6,64c7fed44a04f777bb1e18ce,64c801f4d40b93ae556bc6f7,right,1,0.75,0.3071,13,0.172668934,0.2272,,,,,,247,0,247,0,1,,,,,
,,326872,001,2023-07-31_20h50.03.645,arm3_eps,2022.2.5,Win32,59.93048064,60d1004080fadfada90afbe6,64c7fed44a04f777bb1e18ce,64c801f4d40b93ae556bc6f7,right,1,0.75,0.3071,13,0.215369303,0.1944,,,,,,248,0,248,0,1,,,,,
,,326872,001,2023-07-31_20h50.03.645,arm3_eps,2022.2.5,Win32,59.93048064,60d1004080fadfada90afbe6,64c7fed44a04f777bb1e18ce,64c801f4d40b93ae556bc6f7,up,-1,0.75,0.3071,14,0,0.8263,,,,,,249,0,249,0,1,,,,,
,,326872,001,2023-07-31_20h50.03.645,arm3_eps,2022.2.5,Win32,59.93048064,60d1004080fadfada90afbe6,64c7fed44a04f777bb1e18ce,64c801f4d40b93ae556bc6f7,right,-1,0.75,0.3071,14,-0.017104395,1.1931,,,,,,250,0,250,0,1,,,,,
,,326872,001,2023-07-31_20h50.03.645,arm3_eps,2022.2.5,Win32,59.93048064,60d1004080fadfada90afbe6,64c7fed44a04f777bb1e18ce,64c801f4d40b93ae556bc6f7,right,-1,0.75,0.3071,14,-0.041699292,0.1906,,,,,,251,0,251,0,1,,,,,
,,326872,001,2023-07-31_20h50.03.645,arm3_eps,2022.2.5,Win32,59.93048064,60d1004080fadfada90afbe6,64c7fed44a04f777bb1e18ce,64c801f4d40b93ae556bc6f7,right,-1,0.75,0.3071,14,-0.060008102,0.1356,,,,,,252,0,252,0,1,,,,,
,,326872,001,2023-07-31_20h50.03.645,arm3_eps,2022.2.5,Win32,59.93048064,60d1004080fadfada90afbe6,64c7fed44a04f777bb1e18ce,64c801f4d40b93ae556bc6f7,right,-1,0.75,0.3071,14,-0.040874427,0.1659,,,,,,253,0,253,0,1,,,,,
,,326872,001,2023-07-31_20h50.03.645,arm3_eps,2022.2.5,Win32,59.93048064,60d1004080fadfada90afbe6,64c7fed44a04f777bb1e18ce,64c801f4d40b93ae556bc6f7,right,-1,0.75,0.3071,14,-0.026320789,0.1575,,,,,,254,0,254,0,1,,,,,
