space_bar.keys,space_bar.rt,participant,session,date,expName,psychopyVersion,OS,frameRate,PROLIFIC_PID,STUDY_ID,SESSION_ID,resp.keys,state,q_prob,eps_prob,score,price,resp.rt,train.thisRepN,train.thisTrialN,train.thisN,train.thisIndex,train.ran,steps.thisRepN,steps.thisTrialN,steps.thisN,steps.thisIndex,steps.ran,blocks.thisRepN,blocks.thisTrialN,blocks.thisN,blocks.thisIndex,blocks.ran
space,4.8164,335097,001,2023-07-31_12h46.34.358,arm3_eps,2022.2.5,Win32,58.29204314,6148fd675993224dc86016d3,64c7fed44a04f777bb1e18ce,64c8010393ec381e169baf61,,,,,,,,,,,,,,,,,,,,,,
space,4.0335,335097,001,2023-07-31_12h46.34.358,arm3_eps,2022.2.5,Win32,58.29204314,6148fd675993224dc86016d3,64c7fed44a04f777bb1e18ce,64c8010393ec381e169baf61,,,,,,,,,,,,,,,,,,,,,,
space,11.5793,335097,001,2023-07-31_12h46.34.358,arm3_eps,2022.2.5,Win32,58.29204314,6148fd675993224dc86016d3,64c7fed44a04f777bb1e18ce,64c8010393ec381e169baf61,,,,,,,,,,,,,,,,,,,,,,
space,5.3114,335097,001,2023-07-31_12h46.34.358,arm3_eps,2022.2.5,Win32,58.29204314,6148fd675993224dc86016d3,64c7fed44a04f777bb1e18ce,64c8010393ec381e169baf61,,,,,,,,,,,,,,,,,,,,,,
space,810.367,335097,001,2023-07-31_12h46.34.358,arm3_eps,2022.2.5,Win32,58.29204314,6148fd675993224dc86016d3,64c7fed44a04f777bb1e18ce,64c8010393ec381e169baf61,,,,,,,,,,,,,,,,,,,,,,
space,12.6032,335097,001,2023-07-31_12h46.34.358,arm3_eps,2022.2.5,Win32,58.29204314,6148fd675993224dc86016d3,64c7fed44a04f777bb1e18ce,64c8010393ec381e169baf61,,,,,,,,,,,,,,,,,,,,,,
space,1.8727,335097,001,2023-07-31_12h46.34.358,arm3_eps,2022.2.5,Win32,58.29204314,6148fd675993224dc86016d3,64c7fed44a04f777bb1e18ce,64c8010393ec381e169baf61,,,,,,,,,,,,,,,,,,,,,,
,,335097,001,2023-07-31_12h46.34.358,arm3_eps,2022.2.5,Win32,58.29204314,6148fd675993224dc86016d3,64c7fed44a04f777bb1e18ce,64c8010393ec381e169baf61,right,-1,1,0.2429,0,-0.01931276,3.3631,0,0,0,0,1,,,,,,,,,,
,,335097,001,2023-07-31_12h46.34.358,arm3_eps,2022.2.5,Win32,58.29204314,6148fd675993224dc86016d3,64c7fed44a04f777bb1e18ce,64c8010393ec381e169baf61,up,-1,1,0.2429,-1,0,6.2436,1,0,1,0,1,,,,,,,,,,
,,335097,001,2023-07-31_12h46.34.358,arm3_eps,2022.2.5,Win32,58.29204314,6148fd675993224dc86016d3,64c7fed44a04f777bb1e18ce,64c8010393ec381e169baf61,right,-1,1,0.2429,-1,-0.015527171,3.5499,2,0,2,0,1,,,,,,,,,,
,,335097,001,2023-07-31_12h46.34.358,arm3_eps,2022.2.5,Win32,58.29204314,6148fd675993224dc86016d3,64c7fed44a04f777bb1e18ce,64c8010393ec381e169baf61,down,-1,1,0.2429,0,0,7.9057,3,0,3,0,1,,,,,,,,,,
,,335097,001,2023-07-31_12h46.34.358,arm3_eps,2022.2.5,Win32,58.29204314,6148fd675993224dc86016d3,64c7fed44a04f777bb1e18ce,64c8010393ec381e169baf61,right,-1,1,0.2429,0,0.00426501,6.724,4,0,4,0,1,,,,,,,,,,
,,335097,001,2023-07-31_12h46.34.358,arm3_eps,2022.2.5,Win32,58.29204314,6148fd675993224dc86016d3,64c7fed44a04f777bb1e18ce,64c8010393ec381e169baf61,down,-1,1,0.2429,1,0,6.4119,5,0,5,0,1,,,,,,,,,,
,,335097,001,2023-07-31_12h46.34.358,arm3_eps,2022.2.5,Win32,58.29204314,6148fd675993224dc86016d3,64c7fed44a04f777bb1e18ce,64c8010393ec381e169baf61,right,-1,1,0.2429,1,0.009548376,2.3757,6,0,6,0,1,,,,,,,,,,
,,335097,001,2023-07-31_12h46.34.358,arm3_eps,2022.2.5,Win32,58.29204314,6148fd675993224dc86016d3,64c7fed44a04f777bb1e18ce,64c8010393ec381e169baf61,up,-1,1,0.2429,0,0,2.3196,7,0,7,0,1,,,,,,,,,,
,,335097,001,2023-07-31_12h46.34.358,arm3_eps,2022.2.5,Win32,58.29204314,6148fd675993224dc86016d3,64c7fed44a04f777bb1e18ce,64c8010393ec381e169baf61,right,-1,1,0.2429,0,-0.023879938,3.0782,8,0,8,0,1,,,,,,,,,,
,,335097,001,2023-07-31_12h46.34.358,arm3_eps,2022.2.5,Win32,58.29204314,6148fd675993224dc86016d3,64c7fed44a04f777bb1e18ce,64c8010393ec381e169baf61,up,-1,1,0.2429,-1,0,1.7758,9,0,9,0,1,,,,,,,,,,
,,335097,001,2023-07-31_12h46.34.358,arm3_eps,2022.2.5,Win32,58.29204314,6148fd675993224dc86016d3,64c7fed44a04f777bb1e18ce,64c8010393ec381e169baf61,right,-1,1,0.2429,-1,-0.056072755,1.8185,10,0,10,0,1,,,,,,,,,,
,,335097,001,2023-07-31_12h46.34.358,arm3_eps,2022.2.5,Win32,58.29204314,6148fd675993224dc86016d3,64c7fed44a04f777bb1e18ce,64c8010393ec381e169baf61,down,1,1,0.2429,0,0,2.7536,11,0,11,0,1,,,,,,,,,,
,,335097,001,2023-07-31_12h46.34.358,arm3_eps,2022.2.5,Win32,58.29204314,6148fd675993224dc86016d3,64c7fed44a04f777bb1e18ce,64c8010393ec381e169baf61,right,1,1,0.2429,0,0.006745626,1.9877,12,0,12,0,1,,,,,,,,,,
,,335097,001,2023-07-31_12h46.34.358,arm3_eps,2022.2.5,Win32,58.29204314,6148fd675993224dc86016d3,64c7fed44a04f777bb1e18ce,64c8010393ec381e169baf61,up,1,1,0.2429,1,0,1.3205,13,0,13,0,1,,,,,,,,,,
,,335097,001,2023-07-31_12h46.34.358,arm3_eps,2022.2.5,Win32,58.29204314,6148fd675993224dc86016d3,64c7fed44a04f777bb1e18ce,64c8010393ec381e169baf61,right,1,1,0.2429,1,0.001437766,1.1538,14,0,14,0,1,,,,,,,,,,
,,335097,001,2023-07-31_12h46.34.358,arm3_eps,2022.2.5,Win32,58.29204314,6148fd675993224dc86016d3,64c7fed44a04f777bb1e18ce,64c8010393ec381e169baf61,down,1,1,0.2429,0,0,1.7681,15,0,15,0,1,,,,,,,,,,
,,335097,001,2023-07-31_12h46.34.358,arm3_eps,2022.2.5,Win32,58.29204314,6148fd675993224dc86016d3,64c7fed44a04f777bb1e18ce,64c8010393ec381e169baf61,right,1,1,0.2429,0,0.027028852,1.5799,16,0,16,0,1,,,,,,,,,,
,,335097,001,2023-07-31_12h46.34.358,arm3_eps,2022.2.5,Win32,58.29204314,6148fd675993224dc86016d3,64c7fed44a04f777bb1e18ce,64c8010393ec381e169baf61,up,1,1,0.2429,1,0,1.3822,17,0,17,0,1,,,,,,,,,,
,,335097,001,2023-07-31_12h46.34.358,arm3_eps,2022.2.5,Win32,58.29204314,6148fd675993224dc86016d3,64c7fed44a04f777bb1e18ce,64c8010393ec381e169baf61,right,1,1,0.2429,1,0.009986101,1.5071,18,0,18,0,1,,,,,,,,,,
,,335097,001,2023-07-31_12h46.34.358,arm3_eps,2022.2.5,Win32,58.29204314,6148fd675993224dc86016d3,64c7fed44a04f777bb1e18ce,64c8010393ec381e169baf61,down,1,1,0.2429,0,0,2.6171,19,0,19,0,1,,,,,,,,,,
,,335097,001,2023-07-31_12h46.34.358,arm3_eps,2022.2.5,Win32,58.29204314,6148fd675993224dc86016d3,64c7fed44a04f777bb1e18ce,64c8010393ec381e169baf61,right,1,1,0.2429,0,0.017969632,1.2763,20,0,20,0,1,,,,,,,,,,
,,335097,001,2023-07-31_12h46.34.358,arm3_eps,2022.2.5,Win32,58.29204314,6148fd675993224dc86016d3,64c7fed44a04f777bb1e18ce,64c8010393ec381e169baf61,down,1,1,0.2429,-1,0,1.0838,21,0,21,0,1,,,,,,,,,,
,,335097,001,2023-07-31_12h46.34.358,arm3_eps,2022.2.5,Win32,58.29204314,6148fd675993224dc86016d3,64c7fed44a04f777bb1e18ce,64c8010393ec381e169baf61,right,1,1,0.2429,-1,0.011415613,2.4411,22,0,22,0,1,,,,,,,,,,
,,335097,001,2023-07-31_12h46.34.358,arm3_eps,2022.2.5,Win32,58.29204314,6148fd675993224dc86016d3,64c7fed44a04f777bb1e18ce,64c8010393ec381e169baf61,down,1,1,0.2429,-2,0,1.0199,23,0,23,0,1,,,,,,,,,,
,,335097,001,2023-07-31_12h46.34.358,arm3_eps,2022.2.5,Win32,58.29204314,6148fd675993224dc86016d3,64c7fed44a04f777bb1e18ce,64c8010393ec381e169baf61,right,1,1,0.2429,-2,0.059423491,1.2351,24,0,24,0,1,,,,,,,,,,
,,335097,001,2023-07-31_12h46.34.358,arm3_eps,2022.2.5,Win32,58.29204314,6148fd675993224dc86016d3,64c7fed44a04f777bb1e18ce,64c8010393ec381e169baf61,up,-1,1,0.2429,-1,0,0.9606,25,0,25,0,1,,,,,,,,,,
,,335097,001,2023-07-31_12h46.34.358,arm3_eps,2022.2.5,Win32,58.29204314,6148fd675993224dc86016d3,64c7fed44a04f777bb1e18ce,64c8010393ec381e169baf61,right,-1,1,0.2429,-1,-0.005038995,1.0385,26,0,26,0,1,,,,,,,,,,
,,335097,001,2023-07-31_12h46.34.358,arm3_eps,2022.2.5,Win32,58.29204314,6148fd675993224dc86016d3,64c7fed44a04f777bb1e18ce,64c8010393ec381e169baf61,down,-1,1,0.2429,0,0,1.2375,27,0,27,0,1,,,,,,,,,,
,,335097,001,2023-07-31_12h46.34.358,arm3_eps,2022.2.5,Win32,58.29204314,6148fd675993224dc86016d3,64c7fed44a04f777bb1e18ce,64c8010393ec381e169baf61,right,-1,1,0.2429,0,-0.030037567,1.1789,28,0,28,0,1,,,,,,,,,,
,,335097,001,2023-07-31_12h46.34.358,arm3_eps,2022.2.5,Win32,58.29204314,6148fd675993224dc86016d3,64c7fed44a04f777bb1e18ce,64c8010393ec381e169baf61,down,-1,1,0.2429,1,0,0.7894,29,0,29,0,1,,,,,,,,,,
,,335097,001,2023-07-31_12h46.34.358,arm3_eps,2022.2.5,Win32,58.29204314,6148fd675993224dc86016d3,64c7fed44a04f777bb1e18ce,64c8010393ec381e169baf61,right,-1,1,0.2429,1,0.008316212,1.1975,30,0,30,0,1,,,,,,,,,,
,,335097,001,2023-07-31_12h46.34.358,arm3_eps,2022.2.5,Win32,58.29204314,6148fd675993224dc86016d3,64c7fed44a04f777bb1e18ce,64c8010393ec381e169baf61,down,-1,1,0.2429,2,0,1.6569,31,0,31,0,1,,,,,,,,,,
,,335097,001,2023-07-31_12h46.34.358,arm3_eps,2022.2.5,Win32,58.29204314,6148fd675993224dc86016d3,64c7fed44a04f777bb1e18ce,64c8010393ec381e169baf61,right,-1,1,0.2429,2,-0.000480252,0.9599,32,0,32,0,1,,,,,,,,,,
,,335097,001,2023-07-31_12h46.34.358,arm3_eps,2022.2.5,Win32,58.29204314,6148fd675993224dc86016d3,64c7fed44a04f777bb1e18ce,64c8010393ec381e169baf61,down,-1,1,0.2429,3,0,2.7703,33,0,33,0,1,,,,,,,,,,
,,335097,001,2023-07-31_12h46.34.358,arm3_eps,2022.2.5,Win32,58.29204314,6148fd675993224dc86016d3,64c7fed44a04f777bb1e18ce,64c8010393ec381e169baf61,right,-1,1,0.2429,3,-0.03117225,1.2335,34,0,34,0,1,,,,,,,,,,
,,335097,001,2023-07-31_12h46.34.358,arm3_eps,2022.2.5,Win32,58.29204314,6148fd675993224dc86016d3,64c7fed44a04f777bb1e18ce,64c8010393ec381e169baf61,down,1,1,0.2429,4,0,0.7963,35,0,35,0,1,,,,,,,,,,
,,335097,001,2023-07-31_12h46.34.358,arm3_eps,2022.2.5,Win32,58.29204314,6148fd675993224dc86016d3,64c7fed44a04f777bb1e18ce,64c8010393ec381e169baf61,right,1,1,0.2429,4,0.041329492,1.1327,36,0,36,0,1,,,,,,,,,,
,,335097,001,2023-07-31_12h46.34.358,arm3_eps,2022.2.5,Win32,58.29204314,6148fd675993224dc86016d3,64c7fed44a04f777bb1e18ce,64c8010393ec381e169baf61,up,1,1,0.2429,5,0,0.9016,37,0,37,0,1,,,,,,,,,,
,,335097,001,2023-07-31_12h46.34.358,arm3_eps,2022.2.5,Win32,58.29204314,6148fd675993224dc86016d3,64c7fed44a04f777bb1e18ce,64c8010393ec381e169baf61,right,1,1,0.2429,5,-0.005694325,0.9127,38,0,38,0,1,,,,,,,,,,
,,335097,001,2023-07-31_12h46.34.358,arm3_eps,2022.2.5,Win32,58.29204314,6148fd675993224dc86016d3,64c7fed44a04f777bb1e18ce,64c8010393ec381e169baf61,up,-1,1,0.2429,6,0,2.6831,39,0,39,0,1,,,,,,,,,,
,,335097,001,2023-07-31_12h46.34.358,arm3_eps,2022.2.5,Win32,58.29204314,6148fd675993224dc86016d3,64c7fed44a04f777bb1e18ce,64c8010393ec381e169baf61,right,-1,1,0.2429,6,0.017068704,0.9796,40,0,40,0,1,,,,,,,,,,
,,335097,001,2023-07-31_12h46.34.358,arm3_eps,2022.2.5,Win32,58.29204314,6148fd675993224dc86016d3,64c7fed44a04f777bb1e18ce,64c8010393ec381e169baf61,down,-1,1,0.2429,7,0,0.9487,41,0,41,0,1,,,,,,,,,,
,,335097,001,2023-07-31_12h46.34.358,arm3_eps,2022.2.5,Win32,58.29204314,6148fd675993224dc86016d3,64c7fed44a04f777bb1e18ce,64c8010393ec381e169baf61,right,-1,1,0.2429,7,-0.001026889,0.8775,42,0,42,0,1,,,,,,,,,,
,,335097,001,2023-07-31_12h46.34.358,arm3_eps,2022.2.5,Win32,58.29204314,6148fd675993224dc86016d3,64c7fed44a04f777bb1e18ce,64c8010393ec381e169baf61,up,-1,1,0.2429,6,0,1.0315,43,0,43,0,1,,,,,,,,,,
,,335097,001,2023-07-31_12h46.34.358,arm3_eps,2022.2.5,Win32,58.29204314,6148fd675993224dc86016d3,64c7fed44a04f777bb1e18ce,64c8010393ec381e169baf61,right,-1,1,0.2429,6,-0.010797446,1.0389,44,0,44,0,1,,,,,,,,,,
,,335097,001,2023-07-31_12h46.34.358,arm3_eps,2022.2.5,Win32,58.29204314,6148fd675993224dc86016d3,64c7fed44a04f777bb1e18ce,64c8010393ec381e169baf61,up,-1,1,0.2429,5,0,1.1974,45,0,45,0,1,,,,,,,,,,
,,335097,001,2023-07-31_12h46.34.358,arm3_eps,2022.2.5,Win32,58.29204314,6148fd675993224dc86016d3,64c7fed44a04f777bb1e18ce,64c8010393ec381e169baf61,right,-1,1,0.2429,5,0.005920421,0.9608,46,0,46,0,1,,,,,,,,,,
,,335097,001,2023-07-31_12h46.34.358,arm3_eps,2022.2.5,Win32,58.29204314,6148fd675993224dc86016d3,64c7fed44a04f777bb1e18ce,64c8010393ec381e169baf61,down,-1,1,0.2429,6,0,0.8671,47,0,47,0,1,,,,,,,,,,
,,335097,001,2023-07-31_12h46.34.358,arm3_eps,2022.2.5,Win32,58.29204314,6148fd675993224dc86016d3,64c7fed44a04f777bb1e18ce,64c8010393ec381e169baf61,right,-1,1,0.2429,6,-0.025547809,1.149,48,0,48,0,1,,,,,,,,,,
,,335097,001,2023-07-31_12h46.34.358,arm3_eps,2022.2.5,Win32,58.29204314,6148fd675993224dc86016d3,64c7fed44a04f777bb1e18ce,64c8010393ec381e169baf61,down,-1,1,0.2429,6,-0.025547809,1.0349,49,0,49,0,1,,,,,,,,,,
space,11.1715,335097,001,2023-07-31_12h46.34.358,arm3_eps,2022.2.5,Win32,58.29204314,6148fd675993224dc86016d3,64c7fed44a04f777bb1e18ce,64c8010393ec381e169baf61,,,,,,,,,,,,,,,,,,,,,,
space,11.1496,335097,001,2023-07-31_12h46.34.358,arm3_eps,2022.2.5,Win32,58.29204314,6148fd675993224dc86016d3,64c7fed44a04f777bb1e18ce,64c8010393ec381e169baf61,,,,,,,,,,,,,,,,,,,,,,
space,3.7009,335097,001,2023-07-31_12h46.34.358,arm3_eps,2022.2.5,Win32,58.29204314,6148fd675993224dc86016d3,64c7fed44a04f777bb1e18ce,64c8010393ec381e169baf61,,,,,,,,,,,,,,,,,,,,,,
space,6.8627,335097,001,2023-07-31_12h46.34.358,arm3_eps,2022.2.5,Win32,58.29204314,6148fd675993224dc86016d3,64c7fed44a04f777bb1e18ce,64c8010393ec381e169baf61,,,,,,,,,,,,,,,,,,,,,,
space,4.7103,335097,001,2023-07-31_12h46.34.358,arm3_eps,2022.2.5,Win32,58.29204314,6148fd675993224dc86016d3,64c7fed44a04f777bb1e18ce,64c8010393ec381e169baf61,,,,,,,,,,,,,,,,,,,,,,
space,2.2669,335097,001,2023-07-31_12h46.34.358,arm3_eps,2022.2.5,Win32,58.29204314,6148fd675993224dc86016d3,64c7fed44a04f777bb1e18ce,64c8010393ec381e169baf61,,,,,,,,,,,,,,,,,,,,,,
,,335097,001,2023-07-31_12h46.34.358,arm3_eps,2022.2.5,Win32,58.29204314,6148fd675993224dc86016d3,64c7fed44a04f777bb1e18ce,64c8010393ec381e169baf61,right,-1,0.75,0.2429,0,-0.000317347,4.8011,0,0,0,0,1,,,,,,,,,,
,,335097,001,2023-07-31_12h46.34.358,arm3_eps,2022.2.5,Win32,58.29204314,6148fd675993224dc86016d3,64c7fed44a04f777bb1e18ce,64c8010393ec381e169baf61,down,-1,0.75,0.2429,0,0,1.3765,1,0,1,0,1,,,,,,,,,,
,,335097,001,2023-07-31_12h46.34.358,arm3_eps,2022.2.5,Win32,58.29204314,6148fd675993224dc86016d3,64c7fed44a04f777bb1e18ce,64c8010393ec381e169baf61,right,-1,0.75,0.2429,0,0.000817594,2.4004,2,0,2,0,1,,,,,,,,,,
,,335097,001,2023-07-31_12h46.34.358,arm3_eps,2022.2.5,Win32,58.29204314,6148fd675993224dc86016d3,64c7fed44a04f777bb1e18ce,64c8010393ec381e169baf61,down,-1,0.75,0.2429,1,0,1.7502,3,0,3,0,1,,,,,,,,,,
,,335097,001,2023-07-31_12h46.34.358,arm3_eps,2022.2.5,Win32,58.29204314,6148fd675993224dc86016d3,64c7fed44a04f777bb1e18ce,64c8010393ec381e169baf61,right,-1,0.75,0.2429,1,-0.025511121,2.1472,4,0,4,0,1,,,,,,,,,,
,,335097,001,2023-07-31_12h46.34.358,arm3_eps,2022.2.5,Win32,58.29204314,6148fd675993224dc86016d3,64c7fed44a04f777bb1e18ce,64c8010393ec381e169baf61,down,-1,0.75,0.2429,1,0,0.9763,5,0,5,0,1,,,,,,,,,,
,,335097,001,2023-07-31_12h46.34.358,arm3_eps,2022.2.5,Win32,58.29204314,6148fd675993224dc86016d3,64c7fed44a04f777bb1e18ce,64c8010393ec381e169baf61,right,-1,0.75,0.2429,1,-0.027420707,2.4092,6,0,6,0,1,,,,,,,,,,
,,335097,001,2023-07-31_12h46.34.358,arm3_eps,2022.2.5,Win32,58.29204314,6148fd675993224dc86016d3,64c7fed44a04f777bb1e18ce,64c8010393ec381e169baf61,down,-1,0.75,0.2429,1,0,4.3372,7,0,7,0,1,,,,,,,,,,
,,335097,001,2023-07-31_12h46.34.358,arm3_eps,2022.2.5,Win32,58.29204314,6148fd675993224dc86016d3,64c7fed44a04f777bb1e18ce,64c8010393ec381e169baf61,right,-1,0.75,0.2429,1,-0.015529397,1.252,8,0,8,0,1,,,,,,,,,,
,,335097,001,2023-07-31_12h46.34.358,arm3_eps,2022.2.5,Win32,58.29204314,6148fd675993224dc86016d3,64c7fed44a04f777bb1e18ce,64c8010393ec381e169baf61,down,-1,0.75,0.2429,2,0,0.7795,9,0,9,0,1,,,,,,,,,,
,,335097,001,2023-07-31_12h46.34.358,arm3_eps,2022.2.5,Win32,58.29204314,6148fd675993224dc86016d3,64c7fed44a04f777bb1e18ce,64c8010393ec381e169baf61,right,-1,0.75,0.2429,2,-0.023690177,1.0705,10,0,10,0,1,,,,,,,,,,
,,335097,001,2023-07-31_12h46.34.358,arm3_eps,2022.2.5,Win32,58.29204314,6148fd675993224dc86016d3,64c7fed44a04f777bb1e18ce,64c8010393ec381e169baf61,down,-1,0.75,0.2429,2,0,0.5512,11,0,11,0,1,,,,,,,,,,
,,335097,001,2023-07-31_12h46.34.358,arm3_eps,2022.2.5,Win32,58.29204314,6148fd675993224dc86016d3,64c7fed44a04f777bb1e18ce,64c8010393ec381e169baf61,right,-1,0.75,0.2429,2,-0.003705454,1.4454,12,0,12,0,1,,,,,,,,,,
,,335097,001,2023-07-31_12h46.34.358,arm3_eps,2022.2.5,Win32,58.29204314,6148fd675993224dc86016d3,64c7fed44a04f777bb1e18ce,64c8010393ec381e169baf61,up,1,0.75,0.2429,2,0,1.6173,13,0,13,0,1,,,,,,,,,,
,,335097,001,2023-07-31_12h46.34.358,arm3_eps,2022.2.5,Win32,58.29204314,6148fd675993224dc86016d3,64c7fed44a04f777bb1e18ce,64c8010393ec381e169baf61,right,1,0.75,0.2429,2,0.037040913,1.8565,14,0,14,0,1,,,,,,,,,,
,,335097,001,2023-07-31_12h46.34.358,arm3_eps,2022.2.5,Win32,58.29204314,6148fd675993224dc86016d3,64c7fed44a04f777bb1e18ce,64c8010393ec381e169baf61,up,1,0.75,0.2429,3,0,0.3965,15,0,15,0,1,,,,,,,,,,
,,335097,001,2023-07-31_12h46.34.358,arm3_eps,2022.2.5,Win32,58.29204314,6148fd675993224dc86016d3,64c7fed44a04f777bb1e18ce,64c8010393ec381e169baf61,right,1,0.75,0.2429,3,-0.004753487,1.0759,16,0,16,0,1,,,,,,,,,,
,,335097,001,2023-07-31_12h46.34.358,arm3_eps,2022.2.5,Win32,58.29204314,6148fd675993224dc86016d3,64c7fed44a04f777bb1e18ce,64c8010393ec381e169baf61,up,-1,0.75,0.2429,4,0,1.8468,17,0,17,0,1,,,,,,,,,,
,,335097,001,2023-07-31_12h46.34.358,arm3_eps,2022.2.5,Win32,58.29204314,6148fd675993224dc86016d3,64c7fed44a04f777bb1e18ce,64c8010393ec381e169baf61,right,-1,0.75,0.2429,4,0.031561043,0.9266,18,0,18,0,1,,,,,,,,,,
,,335097,001,2023-07-31_12h46.34.358,arm3_eps,2022.2.5,Win32,58.29204314,6148fd675993224dc86016d3,64c7fed44a04f777bb1e18ce,64c8010393ec381e169baf61,down,-1,0.75,0.2429,4,0,1.0485,19,0,19,0,1,,,,,,,,,,
,,335097,001,2023-07-31_12h46.34.358,arm3_eps,2022.2.5,Win32,58.29204314,6148fd675993224dc86016d3,64c7fed44a04f777bb1e18ce,64c8010393ec381e169baf61,right,-1,0.75,0.2429,4,-0.01436715,1.1064,20,0,20,0,1,,,,,,,,,,
,,335097,001,2023-07-31_12h46.34.358,arm3_eps,2022.2.5,Win32,58.29204314,6148fd675993224dc86016d3,64c7fed44a04f777bb1e18ce,64c8010393ec381e169baf61,down,-1,0.75,0.2429,5,0,1.4778,21,0,21,0,1,,,,,,,,,,
,,335097,001,2023-07-31_12h46.34.358,arm3_eps,2022.2.5,Win32,58.29204314,6148fd675993224dc86016d3,64c7fed44a04f777bb1e18ce,64c8010393ec381e169baf61,right,-1,0.75,0.2429,5,0.024307673,1.0831,22,0,22,0,1,,,,,,,,,,
,,335097,001,2023-07-31_12h46.34.358,arm3_eps,2022.2.5,Win32,58.29204314,6148fd675993224dc86016d3,64c7fed44a04f777bb1e18ce,64c8010393ec381e169baf61,down,-1,0.75,0.2429,6,0,2.5091,23,0,23,0,1,,,,,,,,,,
,,335097,001,2023-07-31_12h46.34.358,arm3_eps,2022.2.5,Win32,58.29204314,6148fd675993224dc86016d3,64c7fed44a04f777bb1e18ce,64c8010393ec381e169baf61,right,-1,0.75,0.2429,6,-0.019892498,1.1567,24,0,24,0,1,,,,,,,,,,
,,335097,001,2023-07-31_12h46.34.358,arm3_eps,2022.2.5,Win32,58.29204314,6148fd675993224dc86016d3,64c7fed44a04f777bb1e18ce,64c8010393ec381e169baf61,down,-1,0.75,0.2429,7,0,0.5338,25,0,25,0,1,,,,,,,,,,
,,335097,001,2023-07-31_12h46.34.358,arm3_eps,2022.2.5,Win32,58.29204314,6148fd675993224dc86016d3,64c7fed44a04f777bb1e18ce,64c8010393ec381e169baf61,right,-1,0.75,0.2429,7,-0.015772837,1.1235,26,0,26,0,1,,,,,,,,,,
,,335097,001,2023-07-31_12h46.34.358,arm3_eps,2022.2.5,Win32,58.29204314,6148fd675993224dc86016d3,64c7fed44a04f777bb1e18ce,64c8010393ec381e169baf61,up,1,0.75,0.2429,6,0,1.9302,27,0,27,0,1,,,,,,,,,,
,,335097,001,2023-07-31_12h46.34.358,arm3_eps,2022.2.5,Win32,58.29204314,6148fd675993224dc86016d3,64c7fed44a04f777bb1e18ce,64c8010393ec381e169baf61,down,-1,0.75,0.2429,5,0,1.2429,28,0,28,0,1,,,,,,,,,,
,,335097,001,2023-07-31_12h46.34.358,arm3_eps,2022.2.5,Win32,58.29204314,6148fd675993224dc86016d3,64c7fed44a04f777bb1e18ce,64c8010393ec381e169baf61,right,-1,0.75,0.2429,5,-0.025949046,1.1863,29,0,29,0,1,,,,,,,,,,
,,335097,001,2023-07-31_12h46.34.358,arm3_eps,2022.2.5,Win32,58.29204314,6148fd675993224dc86016d3,64c7fed44a04f777bb1e18ce,64c8010393ec381e169baf61,down,-1,0.75,0.2429,5,0,1.4766,30,0,30,0,1,,,,,,,,,,
,,335097,001,2023-07-31_12h46.34.358,arm3_eps,2022.2.5,Win32,58.29204314,6148fd675993224dc86016d3,64c7fed44a04f777bb1e18ce,64c8010393ec381e169baf61,right,-1,0.75,0.2429,5,-0.004142645,1.2613,31,0,31,0,1,,,,,,,,,,
,,335097,001,2023-07-31_12h46.34.358,arm3_eps,2022.2.5,Win32,58.29204314,6148fd675993224dc86016d3,64c7fed44a04f777bb1e18ce,64c8010393ec381e169baf61,down,-1,0.75,0.2429,5,0,5.6207,32,0,32,0,1,,,,,,,,,,
,,335097,001,2023-07-31_12h46.34.358,arm3_eps,2022.2.5,Win32,58.29204314,6148fd675993224dc86016d3,64c7fed44a04f777bb1e18ce,64c8010393ec381e169baf61,right,-1,0.75,0.2429,5,-0.032115112,1.3517,33,0,33,0,1,,,,,,,,,,
,,335097,001,2023-07-31_12h46.34.358,arm3_eps,2022.2.5,Win32,58.29204314,6148fd675993224dc86016d3,64c7fed44a04f777bb1e18ce,64c8010393ec381e169baf61,down,1,0.75,0.2429,6,0,0.3832,34,0,34,0,1,,,,,,,,,,
,,335097,001,2023-07-31_12h46.34.358,arm3_eps,2022.2.5,Win32,58.29204314,6148fd675993224dc86016d3,64c7fed44a04f777bb1e18ce,64c8010393ec381e169baf61,right,1,0.75,0.2429,6,0.021993523,2.2024,35,0,35,0,1,,,,,,,,,,
,,335097,001,2023-07-31_12h46.34.358,arm3_eps,2022.2.5,Win32,58.29204314,6148fd675993224dc86016d3,64c7fed44a04f777bb1e18ce,64c8010393ec381e169baf61,up,1,0.75,0.2429,7,0,1.3855,36,0,36,0,1,,,,,,,,,,
,,335097,001,2023-07-31_12h46.34.358,arm3_eps,2022.2.5,Win32,58.29204314,6148fd675993224dc86016d3,64c7fed44a04f777bb1e18ce,64c8010393ec381e169baf61,right,1,0.75,0.2429,7,0.040558957,1.1451,37,0,37,0,1,,,,,,,,,,
,,335097,001,2023-07-31_12h46.34.358,arm3_eps,2022.2.5,Win32,58.29204314,6148fd675993224dc86016d3,64c7fed44a04f777bb1e18ce,64c8010393ec381e169baf61,up,1,0.75,0.2429,8,0,0.4721,38,0,38,0,1,,,,,,,,,,
,,335097,001,2023-07-31_12h46.34.358,arm3_eps,2022.2.5,Win32,58.29204314,6148fd675993224dc86016d3,64c7fed44a04f777bb1e18ce,64c8010393ec381e169baf61,right,1,0.75,0.2429,8,0.019027744,1.0978,39,0,39,0,1,,,,,,,,,,
,,335097,001,2023-07-31_12h46.34.358,arm3_eps,2022.2.5,Win32,58.29204314,6148fd675993224dc86016d3,64c7fed44a04f777bb1e18ce,64c8010393ec381e169baf61,down,-1,0.75,0.2429,7,0,0.9947,40,0,40,0,1,,,,,,,,,,
,,335097,001,2023-07-31_12h46.34.358,arm3_eps,2022.2.5,Win32,58.29204314,6148fd675993224dc86016d3,64c7fed44a04f777bb1e18ce,64c8010393ec381e169baf61,right,-1,0.75,0.2429,7,0.006147029,0.9958,41,0,41,0,1,,,,,,,,,,
,,335097,001,2023-07-31_12h46.34.358,arm3_eps,2022.2.5,Win32,58.29204314,6148fd675993224dc86016d3,64c7fed44a04f777bb1e18ce,64c8010393ec381e169baf61,up,-1,0.75,0.2429,6,0,1.0341,42,0,42,0,1,,,,,,,,,,
,,335097,001,2023-07-31_12h46.34.358,arm3_eps,2022.2.5,Win32,58.29204314,6148fd675993224dc86016d3,64c7fed44a04f777bb1e18ce,64c8010393ec381e169baf61,right,-1,0.75,0.2429,6,-0.016202524,1.1923,43,0,43,0,1,,,,,,,,,,
,,335097,001,2023-07-31_12h46.34.358,arm3_eps,2022.2.5,Win32,58.29204314,6148fd675993224dc86016d3,64c7fed44a04f777bb1e18ce,64c8010393ec381e169baf61,down,-1,0.75,0.2429,7,0,1.0847,44,0,44,0,1,,,,,,,,,,
,,335097,001,2023-07-31_12h46.34.358,arm3_eps,2022.2.5,Win32,58.29204314,6148fd675993224dc86016d3,64c7fed44a04f777bb1e18ce,64c8010393ec381e169baf61,right,-1,0.75,0.2429,7,-0.032963741,0.8097,45,0,45,0,1,,,,,,,,,,
,,335097,001,2023-07-31_12h46.34.358,arm3_eps,2022.2.5,Win32,58.29204314,6148fd675993224dc86016d3,64c7fed44a04f777bb1e18ce,64c8010393ec381e169baf61,down,-1,0.75,0.2429,8,0,0.7019,46,0,46,0,1,,,,,,,,,,
,,335097,001,2023-07-31_12h46.34.358,arm3_eps,2022.2.5,Win32,58.29204314,6148fd675993224dc86016d3,64c7fed44a04f777bb1e18ce,64c8010393ec381e169baf61,right,-1,0.75,0.2429,8,0.011401809,0.8065,47,0,47,0,1,,,,,,,,,,
,,335097,001,2023-07-31_12h46.34.358,arm3_eps,2022.2.5,Win32,58.29204314,6148fd675993224dc86016d3,64c7fed44a04f777bb1e18ce,64c8010393ec381e169baf61,up,1,0.75,0.2429,7,0,2.9957,48,0,48,0,1,,,,,,,,,,
,,335097,001,2023-07-31_12h46.34.358,arm3_eps,2022.2.5,Win32,58.29204314,6148fd675993224dc86016d3,64c7fed44a04f777bb1e18ce,64c8010393ec381e169baf61,right,1,0.75,0.2429,7,0.028019114,0.8794,49,0,49,0,1,,,,,,,,,,
space,2.4111,335097,001,2023-07-31_12h46.34.358,arm3_eps,2022.2.5,Win32,58.29204314,6148fd675993224dc86016d3,64c7fed44a04f777bb1e18ce,64c8010393ec381e169baf61,,,,,,,,,,,,,,,,,,,,,,
space,66.2273,335097,001,2023-07-31_12h46.34.358,arm3_eps,2022.2.5,Win32,58.29204314,6148fd675993224dc86016d3,64c7fed44a04f777bb1e18ce,64c8010393ec381e169baf61,,,,,,,,,,,,,,,,,,,,,,
space,1.2688,335097,001,2023-07-31_12h46.34.358,arm3_eps,2022.2.5,Win32,58.29204314,6148fd675993224dc86016d3,64c7fed44a04f777bb1e18ce,64c8010393ec381e169baf61,,,,,,,,,,,,,,,,,,,,,,
,,335097,001,2023-07-31_12h46.34.358,arm3_eps,2022.2.5,Win32,58.29204314,6148fd675993224dc86016d3,64c7fed44a04f777bb1e18ce,64c8010393ec381e169baf61,right,1,0.75,0.05,0,0.014692141,35.3558,0,0,0,0,1,,,,,,,,,,
,,335097,001,2023-07-31_12h46.34.358,arm3_eps,2022.2.5,Win32,58.29204314,6148fd675993224dc86016d3,64c7fed44a04f777bb1e18ce,64c8010393ec381e169baf61,down,1,0.75,0.05,0,0,1.0326,1,0,1,0,1,,,,,,,,,,
,,335097,001,2023-07-31_12h46.34.358,arm3_eps,2022.2.5,Win32,58.29204314,6148fd675993224dc86016d3,64c7fed44a04f777bb1e18ce,64c8010393ec381e169baf61,right,1,0.75,0.05,0,0.035291284,1.1097,2,0,2,0,1,,,,,,,,,,
,,335097,001,2023-07-31_12h46.34.358,arm3_eps,2022.2.5,Win32,58.29204314,6148fd675993224dc86016d3,64c7fed44a04f777bb1e18ce,64c8010393ec381e169baf61,up,1,0.75,0.05,0,0,0.5132,3,0,3,0,1,,,,,,,,,,
,,335097,001,2023-07-31_12h46.34.358,arm3_eps,2022.2.5,Win32,58.29204314,6148fd675993224dc86016d3,64c7fed44a04f777bb1e18ce,64c8010393ec381e169baf61,right,1,0.75,0.05,0,0.017899857,0.9446,4,0,4,0,1,,,,,,,,,,
,,335097,001,2023-07-31_12h46.34.358,arm3_eps,2022.2.5,Win32,58.29204314,6148fd675993224dc86016d3,64c7fed44a04f777bb1e18ce,64c8010393ec381e169baf61,up,1,0.75,0.05,1,0,3.3916,5,0,5,0,1,,,,,,,,,,
,,335097,001,2023-07-31_12h46.34.358,arm3_eps,2022.2.5,Win32,58.29204314,6148fd675993224dc86016d3,64c7fed44a04f777bb1e18ce,64c8010393ec381e169baf61,right,1,0.75,0.05,1,0.000176942,125.9161,6,0,6,0,1,,,,,,,,,,
,,335097,001,2023-07-31_12h46.34.358,arm3_eps,2022.2.5,Win32,58.29204314,6148fd675993224dc86016d3,64c7fed44a04f777bb1e18ce,64c8010393ec381e169baf61,down,1,0.75,0.05,1,0,0.9385,7,0,7,0,1,,,,,,,,,,
,,335097,001,2023-07-31_12h46.34.358,arm3_eps,2022.2.5,Win32,58.29204314,6148fd675993224dc86016d3,64c7fed44a04f777bb1e18ce,64c8010393ec381e169baf61,right,1,0.75,0.05,1,-0.010937831,0.8946,8,0,8,0,1,,,,,,,,,,
,,335097,001,2023-07-31_12h46.34.358,arm3_eps,2022.2.5,Win32,58.29204314,6148fd675993224dc86016d3,64c7fed44a04f777bb1e18ce,64c8010393ec381e169baf61,up,1,0.75,0.05,2,0,1.2628,9,0,9,0,1,,,,,,,,,,
,,335097,001,2023-07-31_12h46.34.358,arm3_eps,2022.2.5,Win32,58.29204314,6148fd675993224dc86016d3,64c7fed44a04f777bb1e18ce,64c8010393ec381e169baf61,right,1,0.75,0.05,2,-0.028860332,0.7621,10,0,10,0,1,,,,,,,,,,
,,335097,001,2023-07-31_12h46.34.358,arm3_eps,2022.2.5,Win32,58.29204314,6148fd675993224dc86016d3,64c7fed44a04f777bb1e18ce,64c8010393ec381e169baf61,down,1,0.75,0.05,2,0,1.3046,11,0,11,0,1,,,,,,,,,,
,,335097,001,2023-07-31_12h46.34.358,arm3_eps,2022.2.5,Win32,58.29204314,6148fd675993224dc86016d3,64c7fed44a04f777bb1e18ce,64c8010393ec381e169baf61,right,1,0.75,0.05,2,0.012459329,1.0838,12,0,12,0,1,,,,,,,,,,
,,335097,001,2023-07-31_12h46.34.358,arm3_eps,2022.2.5,Win32,58.29204314,6148fd675993224dc86016d3,64c7fed44a04f777bb1e18ce,64c8010393ec381e169baf61,up,1,0.75,0.05,3,0,1.0351,13,0,13,0,1,,,,,,,,,,
,,335097,001,2023-07-31_12h46.34.358,arm3_eps,2022.2.5,Win32,58.29204314,6148fd675993224dc86016d3,64c7fed44a04f777bb1e18ce,64c8010393ec381e169baf61,right,1,0.75,0.05,3,0.015020003,0.7212,14,0,14,0,1,,,,,,,,,,
,,335097,001,2023-07-31_12h46.34.358,arm3_eps,2022.2.5,Win32,58.29204314,6148fd675993224dc86016d3,64c7fed44a04f777bb1e18ce,64c8010393ec381e169baf61,down,1,0.75,0.05,3,0,0.7327,15,0,15,0,1,,,,,,,,,,
,,335097,001,2023-07-31_12h46.34.358,arm3_eps,2022.2.5,Win32,58.29204314,6148fd675993224dc86016d3,64c7fed44a04f777bb1e18ce,64c8010393ec381e169baf61,right,1,0.75,0.05,3,0.030044192,0.7807,16,0,16,0,1,,,,,,,,,,
,,335097,001,2023-07-31_12h46.34.358,arm3_eps,2022.2.5,Win32,58.29204314,6148fd675993224dc86016d3,64c7fed44a04f777bb1e18ce,64c8010393ec381e169baf61,up,1,0.75,0.05,4,0,1.4089,17,0,17,0,1,,,,,,,,,,
,,335097,001,2023-07-31_12h46.34.358,arm3_eps,2022.2.5,Win32,58.29204314,6148fd675993224dc86016d3,64c7fed44a04f777bb1e18ce,64c8010393ec381e169baf61,right,1,0.75,0.05,4,0.002914104,2.1637,18,0,18,0,1,,,,,,,,,,
,,335097,001,2023-07-31_12h46.34.358,arm3_eps,2022.2.5,Win32,58.29204314,6148fd675993224dc86016d3,64c7fed44a04f777bb1e18ce,64c8010393ec381e169baf61,down,1,0.75,0.05,3,0,0.9575,19,0,19,0,1,,,,,,,,,,
,,335097,001,2023-07-31_12h46.34.358,arm3_eps,2022.2.5,Win32,58.29204314,6148fd675993224dc86016d3,64c7fed44a04f777bb1e18ce,64c8010393ec381e169baf61,right,1,0.75,0.05,3,0.027890384,1.1451,20,0,20,0,1,,,,,,,,,,
,,335097,001,2023-07-31_12h46.34.358,arm3_eps,2022.2.5,Win32,58.29204314,6148fd675993224dc86016d3,64c7fed44a04f777bb1e18ce,64c8010393ec381e169baf61,up,1,0.75,0.05,4,0,0.7666,21,0,21,0,1,,,,,,,,,,
,,335097,001,2023-07-31_12h46.34.358,arm3_eps,2022.2.5,Win32,58.29204314,6148fd675993224dc86016d3,64c7fed44a04f777bb1e18ce,64c8010393ec381e169baf61,right,1,0.75,0.05,4,0.017043489,0.9667,22,0,22,0,1,,,,,,,,,,
,,335097,001,2023-07-31_12h46.34.358,arm3_eps,2022.2.5,Win32,58.29204314,6148fd675993224dc86016d3,64c7fed44a04f777bb1e18ce,64c8010393ec381e169baf61,up,1,0.75,0.05,5,0,0.7516,23,0,23,0,1,,,,,,,,,,
,,335097,001,2023-07-31_12h46.34.358,arm3_eps,2022.2.5,Win32,58.29204314,6148fd675993224dc86016d3,64c7fed44a04f777bb1e18ce,64c8010393ec381e169baf61,right,1,0.75,0.05,5,0.017124782,1.0167,24,0,24,0,1,,,,,,,,,,
,,335097,001,2023-07-31_12h46.34.358,arm3_eps,2022.2.5,Win32,58.29204314,6148fd675993224dc86016d3,64c7fed44a04f777bb1e18ce,64c8010393ec381e169baf61,up,1,0.75,0.05,5,0,1.7911,25,0,25,0,1,,,,,,,,,,
,,335097,001,2023-07-31_12h46.34.358,arm3_eps,2022.2.5,Win32,58.29204314,6148fd675993224dc86016d3,64c7fed44a04f777bb1e18ce,64c8010393ec381e169baf61,right,1,0.75,0.05,5,0.00060444,0.7698,26,0,26,0,1,,,,,,,,,,
,,335097,001,2023-07-31_12h46.34.358,arm3_eps,2022.2.5,Win32,58.29204314,6148fd675993224dc86016d3,64c7fed44a04f777bb1e18ce,64c8010393ec381e169baf61,up,1,0.75,0.05,6,0,1.0673,27,0,27,0,1,,,,,,,,,,
,,335097,001,2023-07-31_12h46.34.358,arm3_eps,2022.2.5,Win32,58.29204314,6148fd675993224dc86016d3,64c7fed44a04f777bb1e18ce,64c8010393ec381e169baf61,right,1,0.75,0.05,6,-0.001307945,0.7485,28,0,28,0,1,,,,,,,,,,
,,335097,001,2023-07-31_12h46.34.358,arm3_eps,2022.2.5,Win32,58.29204314,6148fd675993224dc86016d3,64c7fed44a04f777bb1e18ce,64c8010393ec381e169baf61,down,1,0.75,0.05,5,0,1.4117,29,0,29,0,1,,,,,,,,,,
,,335097,001,2023-07-31_12h46.34.358,arm3_eps,2022.2.5,Win32,58.29204314,6148fd675993224dc86016d3,64c7fed44a04f777bb1e18ce,64c8010393ec381e169baf61,right,1,0.75,0.05,5,-0.004085553,0.8279,30,0,30,0,1,,,,,,,,,,
,,335097,001,2023-07-31_12h46.34.358,arm3_eps,2022.2.5,Win32,58.29204314,6148fd675993224dc86016d3,64c7fed44a04f777bb1e18ce,64c8010393ec381e169baf61,down,1,0.75,0.05,4,0,1.0877,31,0,31,0,1,,,,,,,,,,
,,335097,001,2023-07-31_12h46.34.358,arm3_eps,2022.2.5,Win32,58.29204314,6148fd675993224dc86016d3,64c7fed44a04f777bb1e18ce,64c8010393ec381e169baf61,right,1,0.75,0.05,4,-0.014207872,0.7727,32,0,32,0,1,,,,,,,,,,
,,335097,001,2023-07-31_12h46.34.358,arm3_eps,2022.2.5,Win32,58.29204314,6148fd675993224dc86016d3,64c7fed44a04f777bb1e18ce,64c8010393ec381e169baf61,up,1,0.75,0.05,5,0,0.9192,33,0,33,0,1,,,,,,,,,,
,,335097,001,2023-07-31_12h46.34.358,arm3_eps,2022.2.5,Win32,58.29204314,6148fd675993224dc86016d3,64c7fed44a04f777bb1e18ce,64c8010393ec381e169baf61,right,1,0.75,0.05,5,0.04200044,0.8219,34,0,34,0,1,,,,,,,,,,
,,335097,001,2023-07-31_12h46.34.358,arm3_eps,2022.2.5,Win32,58.29204314,6148fd675993224dc86016d3,64c7fed44a04f777bb1e18ce,64c8010393ec381e169baf61,up,1,0.75,0.05,5,0,0.7461,35,0,35,0,1,,,,,,,,,,
,,335097,001,2023-07-31_12h46.34.358,arm3_eps,2022.2.5,Win32,58.29204314,6148fd675993224dc86016d3,64c7fed44a04f777bb1e18ce,64c8010393ec381e169baf61,right,1,0.75,0.05,5,0.058454099,0.9784,36,0,36,0,1,,,,,,,,,,
,,335097,001,2023-07-31_12h46.34.358,arm3_eps,2022.2.5,Win32,58.29204314,6148fd675993224dc86016d3,64c7fed44a04f777bb1e18ce,64c8010393ec381e169baf61,up,1,0.75,0.05,6,0,0.4342,37,0,37,0,1,,,,,,,,,,
,,335097,001,2023-07-31_12h46.34.358,arm3_eps,2022.2.5,Win32,58.29204314,6148fd675993224dc86016d3,64c7fed44a04f777bb1e18ce,64c8010393ec381e169baf61,right,1,0.75,0.05,6,-0.010800926,3.3376,38,0,38,0,1,,,,,,,,,,
,,335097,001,2023-07-31_12h46.34.358,arm3_eps,2022.2.5,Win32,58.29204314,6148fd675993224dc86016d3,64c7fed44a04f777bb1e18ce,64c8010393ec381e169baf61,down,1,0.75,0.05,5,0,1.4329,39,0,39,0,1,,,,,,,,,,
,,335097,001,2023-07-31_12h46.34.358,arm3_eps,2022.2.5,Win32,58.29204314,6148fd675993224dc86016d3,64c7fed44a04f777bb1e18ce,64c8010393ec381e169baf61,right,1,0.75,0.05,5,-0.011321913,0.8533,40,0,40,0,1,,,,,,,,,,
,,335097,001,2023-07-31_12h46.34.358,arm3_eps,2022.2.5,Win32,58.29204314,6148fd675993224dc86016d3,64c7fed44a04f777bb1e18ce,64c8010393ec381e169baf61,up,1,0.75,0.05,6,0,1.1357,41,0,41,0,1,,,,,,,,,,
,,335097,001,2023-07-31_12h46.34.358,arm3_eps,2022.2.5,Win32,58.29204314,6148fd675993224dc86016d3,64c7fed44a04f777bb1e18ce,64c8010393ec381e169baf61,right,1,0.75,0.05,6,0.006335275,0.9265,42,0,42,0,1,,,,,,,,,,
,,335097,001,2023-07-31_12h46.34.358,arm3_eps,2022.2.5,Win32,58.29204314,6148fd675993224dc86016d3,64c7fed44a04f777bb1e18ce,64c8010393ec381e169baf61,up,1,0.75,0.05,7,0,0.8532,43,0,43,0,1,,,,,,,,,,
,,335097,001,2023-07-31_12h46.34.358,arm3_eps,2022.2.5,Win32,58.29204314,6148fd675993224dc86016d3,64c7fed44a04f777bb1e18ce,64c8010393ec381e169baf61,right,1,0.75,0.05,7,0.018074369,35.1293,44,0,44,0,1,,,,,,,,,,
,,335097,001,2023-07-31_12h46.34.358,arm3_eps,2022.2.5,Win32,58.29204314,6148fd675993224dc86016d3,64c7fed44a04f777bb1e18ce,64c8010393ec381e169baf61,up,1,0.75,0.05,8,0,1.0716,45,0,45,0,1,,,,,,,,,,
,,335097,001,2023-07-31_12h46.34.358,arm3_eps,2022.2.5,Win32,58.29204314,6148fd675993224dc86016d3,64c7fed44a04f777bb1e18ce,64c8010393ec381e169baf61,right,1,0.75,0.05,8,0.020235417,0.9116,46,0,46,0,1,,,,,,,,,,
,,335097,001,2023-07-31_12h46.34.358,arm3_eps,2022.2.5,Win32,58.29204314,6148fd675993224dc86016d3,64c7fed44a04f777bb1e18ce,64c8010393ec381e169baf61,up,1,0.75,0.05,9,0,0.515,47,0,47,0,1,,,,,,,,,,
,,335097,001,2023-07-31_12h46.34.358,arm3_eps,2022.2.5,Win32,58.29204314,6148fd675993224dc86016d3,64c7fed44a04f777bb1e18ce,64c8010393ec381e169baf61,right,1,0.75,0.05,9,0.004345837,0.8519,48,0,48,0,1,,,,,,,,,,
,,335097,001,2023-07-31_12h46.34.358,arm3_eps,2022.2.5,Win32,58.29204314,6148fd675993224dc86016d3,64c7fed44a04f777bb1e18ce,64c8010393ec381e169baf61,up,1,0.75,0.05,9,0.004345837,0.8469,49,0,49,0,1,,,,,,,,,,
space,1.566,335097,001,2023-07-31_12h46.34.358,arm3_eps,2022.2.5,Win32,58.29204314,6148fd675993224dc86016d3,64c7fed44a04f777bb1e18ce,64c8010393ec381e169baf61,,,,,,,,,,,,,,,,,,,,,,
space,1.0832,335097,001,2023-07-31_12h46.34.358,arm3_eps,2022.2.5,Win32,58.29204314,6148fd675993224dc86016d3,64c7fed44a04f777bb1e18ce,64c8010393ec381e169baf61,,,,,,,,,,,,,,,,,,,,,,
,,335097,001,2023-07-31_12h46.34.358,arm3_eps,2022.2.5,Win32,58.29204314,6148fd675993224dc86016d3,64c7fed44a04f777bb1e18ce,64c8010393ec381e169baf61,right,1,0.75,0.5,0,-0.0031824,1.2682,0,0,0,0,1,,,,,,,,,,
,,335097,001,2023-07-31_12h46.34.358,arm3_eps,2022.2.5,Win32,58.29204314,6148fd675993224dc86016d3,64c7fed44a04f777bb1e18ce,64c8010393ec381e169baf61,up,1,0.75,0.5,1,0,0.5678,1,0,1,0,1,,,,,,,,,,
,,335097,001,2023-07-31_12h46.34.358,arm3_eps,2022.2.5,Win32,58.29204314,6148fd675993224dc86016d3,64c7fed44a04f777bb1e18ce,64c8010393ec381e169baf61,right,1,0.75,0.5,1,0.028586067,0.8424,2,0,2,0,1,,,,,,,,,,
,,335097,001,2023-07-31_12h46.34.358,arm3_eps,2022.2.5,Win32,58.29204314,6148fd675993224dc86016d3,64c7fed44a04f777bb1e18ce,64c8010393ec381e169baf61,up,1,0.75,0.5,2,0,0.5005,3,0,3,0,1,,,,,,,,,,
,,335097,001,2023-07-31_12h46.34.358,arm3_eps,2022.2.5,Win32,58.29204314,6148fd675993224dc86016d3,64c7fed44a04f777bb1e18ce,64c8010393ec381e169baf61,right,1,0.75,0.5,2,-0.00236738,0.8021,4,0,4,0,1,,,,,,,,,,
,,335097,001,2023-07-31_12h46.34.358,arm3_eps,2022.2.5,Win32,58.29204314,6148fd675993224dc86016d3,64c7fed44a04f777bb1e18ce,64c8010393ec381e169baf61,right,1,0.75,0.5,2,-0.001805231,1.6351,5,0,5,0,1,,,,,,,,,,
,,335097,001,2023-07-31_12h46.34.358,arm3_eps,2022.2.5,Win32,58.29204314,6148fd675993224dc86016d3,64c7fed44a04f777bb1e18ce,64c8010393ec381e169baf61,down,1,0.75,0.5,1,0,1.1683,6,0,6,0,1,,,,,,,,,,
,,335097,001,2023-07-31_12h46.34.358,arm3_eps,2022.2.5,Win32,58.29204314,6148fd675993224dc86016d3,64c7fed44a04f777bb1e18ce,64c8010393ec381e169baf61,right,1,0.75,0.5,1,0.018769165,0.8841,7,0,7,0,1,,,,,,,,,,
,,335097,001,2023-07-31_12h46.34.358,arm3_eps,2022.2.5,Win32,58.29204314,6148fd675993224dc86016d3,64c7fed44a04f777bb1e18ce,64c8010393ec381e169baf61,right,1,0.75,0.5,1,0.074865455,0.2416,8,0,8,0,1,,,,,,,,,,
,,335097,001,2023-07-31_12h46.34.358,arm3_eps,2022.2.5,Win32,58.29204314,6148fd675993224dc86016d3,64c7fed44a04f777bb1e18ce,64c8010393ec381e169baf61,up,1,0.75,0.5,2,0,1.1802,9,0,9,0,1,,,,,,,,,,
,,335097,001,2023-07-31_12h46.34.358,arm3_eps,2022.2.5,Win32,58.29204314,6148fd675993224dc86016d3,64c7fed44a04f777bb1e18ce,64c8010393ec381e169baf61,right,1,0.75,0.5,2,-0.015558718,0.8374,10,0,10,0,1,,,,,,,,,,
,,335097,001,2023-07-31_12h46.34.358,arm3_eps,2022.2.5,Win32,58.29204314,6148fd675993224dc86016d3,64c7fed44a04f777bb1e18ce,64c8010393ec381e169baf61,right,1,0.75,0.5,2,0.016682404,0.1894,11,0,11,0,1,,,,,,,,,,
,,335097,001,2023-07-31_12h46.34.358,arm3_eps,2022.2.5,Win32,58.29204314,6148fd675993224dc86016d3,64c7fed44a04f777bb1e18ce,64c8010393ec381e169baf61,right,1,0.75,0.5,2,0.012862136,0.2197,12,0,12,0,1,,,,,,,,,,
,,335097,001,2023-07-31_12h46.34.358,arm3_eps,2022.2.5,Win32,58.29204314,6148fd675993224dc86016d3,64c7fed44a04f777bb1e18ce,64c8010393ec381e169baf61,right,1,0.75,0.5,2,0.048139141,0.5148,13,0,13,0,1,,,,,,,,,,
,,335097,001,2023-07-31_12h46.34.358,arm3_eps,2022.2.5,Win32,58.29204314,6148fd675993224dc86016d3,64c7fed44a04f777bb1e18ce,64c8010393ec381e169baf61,right,1,0.75,0.5,2,0.060843106,0.1802,14,0,14,0,1,,,,,,,,,,
,,335097,001,2023-07-31_12h46.34.358,arm3_eps,2022.2.5,Win32,58.29204314,6148fd675993224dc86016d3,64c7fed44a04f777bb1e18ce,64c8010393ec381e169baf61,up,1,0.75,0.5,2,0,0.9316,15,0,15,0,1,,,,,,,,,,
,,335097,001,2023-07-31_12h46.34.358,arm3_eps,2022.2.5,Win32,58.29204314,6148fd675993224dc86016d3,64c7fed44a04f777bb1e18ce,64c8010393ec381e169baf61,right,1,0.75,0.5,2,-0.012761644,0.8511,16,0,16,0,1,,,,,,,,,,
,,335097,001,2023-07-31_12h46.34.358,arm3_eps,2022.2.5,Win32,58.29204314,6148fd675993224dc86016d3,64c7fed44a04f777bb1e18ce,64c8010393ec381e169baf61,right,1,0.75,0.5,2,-0.012833352,0.1612,17,0,17,0,1,,,,,,,,,,
,,335097,001,2023-07-31_12h46.34.358,arm3_eps,2022.2.5,Win32,58.29204314,6148fd675993224dc86016d3,64c7fed44a04f777bb1e18ce,64c8010393ec381e169baf61,right,1,0.75,0.5,2,0.015598409,0.2107,18,0,18,0,1,,,,,,,,,,
,,335097,001,2023-07-31_12h46.34.358,arm3_eps,2022.2.5,Win32,58.29204314,6148fd675993224dc86016d3,64c7fed44a04f777bb1e18ce,64c8010393ec381e169baf61,right,1,0.75,0.5,2,-0.018021057,0.1703,19,0,19,0,1,,,,,,,,,,
,,335097,001,2023-07-31_12h46.34.358,arm3_eps,2022.2.5,Win32,58.29204314,6148fd675993224dc86016d3,64c7fed44a04f777bb1e18ce,64c8010393ec381e169baf61,right,1,0.75,0.5,2,-0.018639806,0.223,20,0,20,0,1,,,,,,,,,,
,,335097,001,2023-07-31_12h46.34.358,arm3_eps,2022.2.5,Win32,58.29204314,6148fd675993224dc86016d3,64c7fed44a04f777bb1e18ce,64c8010393ec381e169baf61,right,1,0.75,0.5,2,-0.017391344,0.4992,21,0,21,0,1,,,,,,,,,,
,,335097,001,2023-07-31_12h46.34.358,arm3_eps,2022.2.5,Win32,58.29204314,6148fd675993224dc86016d3,64c7fed44a04f777bb1e18ce,64c8010393ec381e169baf61,right,1,0.75,0.5,2,0.008997276,0.5186,22,0,22,0,1,,,,,,,,,,
,,335097,001,2023-07-31_12h46.34.358,arm3_eps,2022.2.5,Win32,58.29204314,6148fd675993224dc86016d3,64c7fed44a04f777bb1e18ce,64c8010393ec381e169baf61,right,1,0.75,0.5,2,0.042005653,0.6993,23,0,23,0,1,,,,,,,,,,
,,335097,001,2023-07-31_12h46.34.358,arm3_eps,2022.2.5,Win32,58.29204314,6148fd675993224dc86016d3,64c7fed44a04f777bb1e18ce,64c8010393ec381e169baf61,up,-1,0.75,0.5,3,0,1.197,24,0,24,0,1,,,,,,,,,,
,,335097,001,2023-07-31_12h46.34.358,arm3_eps,2022.2.5,Win32,58.29204314,6148fd675993224dc86016d3,64c7fed44a04f777bb1e18ce,64c8010393ec381e169baf61,right,-1,0.75,0.5,3,-0.047862433,0.9454,25,0,25,0,1,,,,,,,,,,
,,335097,001,2023-07-31_12h46.34.358,arm3_eps,2022.2.5,Win32,58.29204314,6148fd675993224dc86016d3,64c7fed44a04f777bb1e18ce,64c8010393ec381e169baf61,right,-1,0.75,0.5,3,-0.047278409,0.2643,26,0,26,0,1,,,,,,,,,,
,,335097,001,2023-07-31_12h46.34.358,arm3_eps,2022.2.5,Win32,58.29204314,6148fd675993224dc86016d3,64c7fed44a04f777bb1e18ce,64c8010393ec381e169baf61,right,-1,0.75,0.5,3,-0.069406575,0.1827,27,0,27,0,1,,,,,,,,,,
,,335097,001,2023-07-31_12h46.34.358,arm3_eps,2022.2.5,Win32,58.29204314,6148fd675993224dc86016d3,64c7fed44a04f777bb1e18ce,64c8010393ec381e169baf61,right,-1,0.75,0.5,3,-0.066367808,0.1798,28,0,28,0,1,,,,,,,,,,
,,335097,001,2023-07-31_12h46.34.358,arm3_eps,2022.2.5,Win32,58.29204314,6148fd675993224dc86016d3,64c7fed44a04f777bb1e18ce,64c8010393ec381e169baf61,right,-1,0.75,0.5,3,-0.093841274,0.1627,29,0,29,0,1,,,,,,,,,,
,,335097,001,2023-07-31_12h46.34.358,arm3_eps,2022.2.5,Win32,58.29204314,6148fd675993224dc86016d3,64c7fed44a04f777bb1e18ce,64c8010393ec381e169baf61,right,-1,0.75,0.5,3,-0.088982257,0.2129,30,0,30,0,1,,,,,,,,,,
,,335097,001,2023-07-31_12h46.34.358,arm3_eps,2022.2.5,Win32,58.29204314,6148fd675993224dc86016d3,64c7fed44a04f777bb1e18ce,64c8010393ec381e169baf61,right,-1,0.75,0.5,3,-0.078188031,0.1959,31,0,31,0,1,,,,,,,,,,
,,335097,001,2023-07-31_12h46.34.358,arm3_eps,2022.2.5,Win32,58.29204314,6148fd675993224dc86016d3,64c7fed44a04f777bb1e18ce,64c8010393ec381e169baf61,right,-1,0.75,0.5,3,-0.09421233,0.2296,32,0,32,0,1,,,,,,,,,,
,,335097,001,2023-07-31_12h46.34.358,arm3_eps,2022.2.5,Win32,58.29204314,6148fd675993224dc86016d3,64c7fed44a04f777bb1e18ce,64c8010393ec381e169baf61,right,-1,0.75,0.5,3,-0.148422602,0.2343,33,0,33,0,1,,,,,,,,,,
,,335097,001,2023-07-31_12h46.34.358,arm3_eps,2022.2.5,Win32,58.29204314,6148fd675993224dc86016d3,64c7fed44a04f777bb1e18ce,64c8010393ec381e169baf61,down,1,0.75,0.5,3,0,0.9965,34,0,34,0,1,,,,,,,,,,
,,335097,001,2023-07-31_12h46.34.358,arm3_eps,2022.2.5,Win32,58.29204314,6148fd675993224dc86016d3,64c7fed44a04f777bb1e18ce,64c8010393ec381e169baf61,right,1,0.75,0.5,3,-0.021714785,0.886,35,0,35,0,1,,,,,,,,,,
,,335097,001,2023-07-31_12h46.34.358,arm3_eps,2022.2.5,Win32,58.29204314,6148fd675993224dc86016d3,64c7fed44a04f777bb1e18ce,64c8010393ec381e169baf61,right,1,0.75,0.5,3,0.001775034,0.201,36,0,36,0,1,,,,,,,,,,
,,335097,001,2023-07-31_12h46.34.358,arm3_eps,2022.2.5,Win32,58.29204314,6148fd675993224dc86016d3,64c7fed44a04f777bb1e18ce,64c8010393ec381e169baf61,right,1,0.75,0.5,3,0.027800353,0.1938,37,0,37,0,1,,,,,,,,,,
,,335097,001,2023-07-31_12h46.34.358,arm3_eps,2022.2.5,Win32,58.29204314,6148fd675993224dc86016d3,64c7fed44a04f777bb1e18ce,64c8010393ec381e169baf61,right,1,0.75,0.5,3,0.024865311,0.1842,38,0,38,0,1,,,,,,,,,,
,,335097,001,2023-07-31_12h46.34.358,arm3_eps,2022.2.5,Win32,58.29204314,6148fd675993224dc86016d3,64c7fed44a04f777bb1e18ce,64c8010393ec381e169baf61,right,1,0.75,0.5,3,0.068402778,0.1839,39,0,39,0,1,,,,,,,,,,
,,335097,001,2023-07-31_12h46.34.358,arm3_eps,2022.2.5,Win32,58.29204314,6148fd675993224dc86016d3,64c7fed44a04f777bb1e18ce,64c8010393ec381e169baf61,right,1,0.75,0.5,3,0.074111131,0.2013,40,0,40,0,1,,,,,,,,,,
,,335097,001,2023-07-31_12h46.34.358,arm3_eps,2022.2.5,Win32,58.29204314,6148fd675993224dc86016d3,64c7fed44a04f777bb1e18ce,64c8010393ec381e169baf61,right,1,0.75,0.5,3,0.098884648,0.2128,41,0,41,0,1,,,,,,,,,,
,,335097,001,2023-07-31_12h46.34.358,arm3_eps,2022.2.5,Win32,58.29204314,6148fd675993224dc86016d3,64c7fed44a04f777bb1e18ce,64c8010393ec381e169baf61,right,1,0.75,0.5,3,0.116008996,0.1968,42,0,42,0,1,,,,,,,,,,
,,335097,001,2023-07-31_12h46.34.358,arm3_eps,2022.2.5,Win32,58.29204314,6148fd675993224dc86016d3,64c7fed44a04f777bb1e18ce,64c8010393ec381e169baf61,up,1,0.75,0.5,4,0,0.7003,43,0,43,0,1,,,,,,,,,,
,,335097,001,2023-07-31_12h46.34.358,arm3_eps,2022.2.5,Win32,58.29204314,6148fd675993224dc86016d3,64c7fed44a04f777bb1e18ce,64c8010393ec381e169baf61,right,1,0.75,0.5,4,0.024377277,0.8927,44,0,44,0,1,,,,,,,,,,
,,335097,001,2023-07-31_12h46.34.358,arm3_eps,2022.2.5,Win32,58.29204314,6148fd675993224dc86016d3,64c7fed44a04f777bb1e18ce,64c8010393ec381e169baf61,right,1,0.75,0.5,4,0.041341197,0.1831,45,0,45,0,1,,,,,,,,,,
,,335097,001,2023-07-31_12h46.34.358,arm3_eps,2022.2.5,Win32,58.29204314,6148fd675993224dc86016d3,64c7fed44a04f777bb1e18ce,64c8010393ec381e169baf61,right,1,0.75,0.5,4,0.068136976,0.1671,46,0,46,0,1,,,,,,,,,,
,,335097,001,2023-07-31_12h46.34.358,arm3_eps,2022.2.5,Win32,58.29204314,6148fd675993224dc86016d3,64c7fed44a04f777bb1e18ce,64c8010393ec381e169baf61,right,1,0.75,0.5,4,0.070630729,0.1338,47,0,47,0,1,,,,,,,,,,
,,335097,001,2023-07-31_12h46.34.358,arm3_eps,2022.2.5,Win32,58.29204314,6148fd675993224dc86016d3,64c7fed44a04f777bb1e18ce,64c8010393ec381e169baf61,right,1,0.75,0.5,4,0.066884831,0.2335,48,0,48,0,1,,,,,,,,,,
,,335097,001,2023-07-31_12h46.34.358,arm3_eps,2022.2.5,Win32,58.29204314,6148fd675993224dc86016d3,64c7fed44a04f777bb1e18ce,64c8010393ec381e169baf61,right,1,0.75,0.5,4,0.08110509,0.2175,49,0,49,0,1,,,,,,,,,,
space,2.6859,335097,001,2023-07-31_12h46.34.358,arm3_eps,2022.2.5,Win32,58.29204314,6148fd675993224dc86016d3,64c7fed44a04f777bb1e18ce,64c8010393ec381e169baf61,,,,,,,,,,,,,,,,,,,,,,
space,1.6465,335097,001,2023-07-31_12h46.34.358,arm3_eps,2022.2.5,Win32,58.29204314,6148fd675993224dc86016d3,64c7fed44a04f777bb1e18ce,64c8010393ec381e169baf61,right,1,0.75,0.2429,0,0.016457944,1.5789,,,,,,0,0,0,0,1,,,,,
,,335097,001,2023-07-31_12h46.34.358,arm3_eps,2022.2.5,Win32,58.29204314,6148fd675993224dc86016d3,64c7fed44a04f777bb1e18ce,64c8010393ec381e169baf61,right,1,0.75,0.2429,0,0.006417189,0.21,,,,,,1,0,1,0,1,,,,,
,,335097,001,2023-07-31_12h46.34.358,arm3_eps,2022.2.5,Win32,58.29204314,6148fd675993224dc86016d3,64c7fed44a04f777bb1e18ce,64c8010393ec381e169baf61,right,1,0.75,0.2429,0,0.013466477,0.1636,,,,,,2,0,2,0,1,,,,,
,,335097,001,2023-07-31_12h46.34.358,arm3_eps,2022.2.5,Win32,58.29204314,6148fd675993224dc86016d3,64c7fed44a04f777bb1e18ce,64c8010393ec381e169baf61,right,1,0.75,0.2429,0,0.016042059,0.2025,,,,,,3,0,3,0,1,,,,,
,,335097,001,2023-07-31_12h46.34.358,arm3_eps,2022.2.5,Win32,58.29204314,6148fd675993224dc86016d3,64c7fed44a04f777bb1e18ce,64c8010393ec381e169baf61,right,1,0.75,0.2429,0,0.022849885,0.2007,,,,,,4,0,4,0,1,,,,,
,,335097,001,2023-07-31_12h46.34.358,arm3_eps,2022.2.5,Win32,58.29204314,6148fd675993224dc86016d3,64c7fed44a04f777bb1e18ce,64c8010393ec381e169baf61,right,1,0.75,0.2429,0,0.069194221,0.2777,,,,,,5,0,5,0,1,,,,,
,,335097,001,2023-07-31_12h46.34.358,arm3_eps,2022.2.5,Win32,58.29204314,6148fd675993224dc86016d3,64c7fed44a04f777bb1e18ce,64c8010393ec381e169baf61,right,1,0.75,0.2429,0,0.109304316,0.8599,,,,,,6,0,6,0,1,,,,,
,,335097,001,2023-07-31_12h46.34.358,arm3_eps,2022.2.5,Win32,58.29204314,6148fd675993224dc86016d3,64c7fed44a04f777bb1e18ce,64c8010393ec381e169baf61,right,1,0.75,0.2429,0,0.110118503,0.7265,,,,,,7,0,7,0,1,,,,,
,,335097,001,2023-07-31_12h46.34.358,arm3_eps,2022.2.5,Win32,58.29204314,6148fd675993224dc86016d3,64c7fed44a04f777bb1e18ce,64c8010393ec381e169baf61,up,1,0.75,0.2429,1,0,1.848,,,,,,8,0,8,0,1,,,,,
,,335097,001,2023-07-31_12h46.34.358,arm3_eps,2022.2.5,Win32,58.29204314,6148fd675993224dc86016d3,64c7fed44a04f777bb1e18ce,64c8010393ec381e169baf61,right,1,0.75,0.2429,1,0.01744162,0.8662,,,,,,9,0,9,0,1,,,,,
,,335097,001,2023-07-31_12h46.34.358,arm3_eps,2022.2.5,Win32,58.29204314,6148fd675993224dc86016d3,64c7fed44a04f777bb1e18ce,64c8010393ec381e169baf61,right,1,0.75,0.2429,1,0.029949391,1.052,,,,,,10,0,10,0,1,,,,,
,,335097,001,2023-07-31_12h46.34.358,arm3_eps,2022.2.5,Win32,58.29204314,6148fd675993224dc86016d3,64c7fed44a04f777bb1e18ce,64c8010393ec381e169baf61,right,1,0.75,0.2429,1,0.044149705,0.25,,,,,,11,0,11,0,1,,,,,
,,335097,001,2023-07-31_12h46.34.358,arm3_eps,2022.2.5,Win32,58.29204314,6148fd675993224dc86016d3,64c7fed44a04f777bb1e18ce,64c8010393ec381e169baf61,right,1,0.75,0.2429,1,-0.018738036,0.1789,,,,,,12,0,12,0,1,,,,,
,,335097,001,2023-07-31_12h46.34.358,arm3_eps,2022.2.5,Win32,58.29204314,6148fd675993224dc86016d3,64c7fed44a04f777bb1e18ce,64c8010393ec381e169baf61,right,1,0.75,0.2429,1,-0.045889256,0.5166,,,,,,13,0,13,0,1,,,,,
,,335097,001,2023-07-31_12h46.34.358,arm3_eps,2022.2.5,Win32,58.29204314,6148fd675993224dc86016d3,64c7fed44a04f777bb1e18ce,64c8010393ec381e169baf61,right,1,0.75,0.2429,1,-0.060737426,0.2072,,,,,,14,0,14,0,1,,,,,
,,335097,001,2023-07-31_12h46.34.358,arm3_eps,2022.2.5,Win32,58.29204314,6148fd675993224dc86016d3,64c7fed44a04f777bb1e18ce,64c8010393ec381e169baf61,down,1,0.75,0.2429,0,0,1.0459,,,,,,15,0,15,0,1,,,,,
,,335097,001,2023-07-31_12h46.34.358,arm3_eps,2022.2.5,Win32,58.29204314,6148fd675993224dc86016d3,64c7fed44a04f777bb1e18ce,64c8010393ec381e169baf61,right,1,0.75,0.2429,0,0.028677865,0.9952,,,,,,16,0,16,0,1,,,,,
,,335097,001,2023-07-31_12h46.34.358,arm3_eps,2022.2.5,Win32,58.29204314,6148fd675993224dc86016d3,64c7fed44a04f777bb1e18ce,64c8010393ec381e169baf61,right,1,0.75,0.2429,0,0.046010989,0.1685,,,,,,17,0,17,0,1,,,,,
,,335097,001,2023-07-31_12h46.34.358,arm3_eps,2022.2.5,Win32,58.29204314,6148fd675993224dc86016d3,64c7fed44a04f777bb1e18ce,64c8010393ec381e169baf61,right,1,0.75,0.2429,0,0.090750516,0.1475,,,,,,18,0,18,0,1,,,,,
,,335097,001,2023-07-31_12h46.34.358,arm3_eps,2022.2.5,Win32,58.29204314,6148fd675993224dc86016d3,64c7fed44a04f777bb1e18ce,64c8010393ec381e169baf61,right,1,0.75,0.2429,0,0.09171429,0.2564,,,,,,19,0,19,0,1,,,,,
,,335097,001,2023-07-31_12h46.34.358,arm3_eps,2022.2.5,Win32,58.29204314,6148fd675993224dc86016d3,64c7fed44a04f777bb1e18ce,64c8010393ec381e169baf61,right,1,0.75,0.2429,0,0.127857568,0.1995,,,,,,20,0,20,0,1,,,,,
,,335097,001,2023-07-31_12h46.34.358,arm3_eps,2022.2.5,Win32,58.29204314,6148fd675993224dc86016d3,64c7fed44a04f777bb1e18ce,64c8010393ec381e169baf61,right,1,0.75,0.2429,0,0.161574539,0.1842,,,,,,21,0,21,0,1,,,,,
,,335097,001,2023-07-31_12h46.34.358,arm3_eps,2022.2.5,Win32,58.29204314,6148fd675993224dc86016d3,64c7fed44a04f777bb1e18ce,64c8010393ec381e169baf61,right,1,0.75,0.2429,0,0.169587816,0.2123,,,,,,22,0,22,0,1,,,,,
,,335097,001,2023-07-31_12h46.34.358,arm3_eps,2022.2.5,Win32,58.29204314,6148fd675993224dc86016d3,64c7fed44a04f777bb1e18ce,64c8010393ec381e169baf61,right,1,0.75,0.2429,0,0.189968792,0.1866,,,,,,23,0,23,0,1,,,,,
,,335097,001,2023-07-31_12h46.34.358,arm3_eps,2022.2.5,Win32,58.29204314,6148fd675993224dc86016d3,64c7fed44a04f777bb1e18ce,64c8010393ec381e169baf61,right,1,0.75,0.2429,0,0.178639365,0.2298,,,,,,24,0,24,0,1,,,,,
,,335097,001,2023-07-31_12h46.34.358,arm3_eps,2022.2.5,Win32,58.29204314,6148fd675993224dc86016d3,64c7fed44a04f777bb1e18ce,64c8010393ec381e169baf61,right,1,0.75,0.2429,0,0.177524422,0.1974,,,,,,25,0,25,0,1,,,,,
,,335097,001,2023-07-31_12h46.34.358,arm3_eps,2022.2.5,Win32,58.29204314,6148fd675993224dc86016d3,64c7fed44a04f777bb1e18ce,64c8010393ec381e169baf61,up,1,0.75,0.2429,1,0,1.2171,,,,,,26,0,26,0,1,,,,,
,,335097,001,2023-07-31_12h46.34.358,arm3_eps,2022.2.5,Win32,58.29204314,6148fd675993224dc86016d3,64c7fed44a04f777bb1e18ce,64c8010393ec381e169baf61,right,1,0.75,0.2429,1,0.023948402,0.5851,,,,,,27,0,27,0,1,,,,,
,,335097,001,2023-07-31_12h46.34.358,arm3_eps,2022.2.5,Win32,58.29204314,6148fd675993224dc86016d3,64c7fed44a04f777bb1e18ce,64c8010393ec381e169baf61,right,1,0.75,0.2429,1,0.006258759,0.1823,,,,,,28,0,28,0,1,,,,,
,,335097,001,2023-07-31_12h46.34.358,arm3_eps,2022.2.5,Win32,58.29204314,6148fd675993224dc86016d3,64c7fed44a04f777bb1e18ce,64c8010393ec381e169baf61,right,1,0.75,0.2429,1,0.0419419,0.1732,,,,,,29,0,29,0,1,,,,,
,,335097,001,2023-07-31_12h46.34.358,arm3_eps,2022.2.5,Win32,58.29204314,6148fd675993224dc86016d3,64c7fed44a04f777bb1e18ce,64c8010393ec381e169baf61,right,1,0.75,0.2429,1,0.083191021,0.1999,,,,,,30,0,30,0,1,,,,,
,,335097,001,2023-07-31_12h46.34.358,arm3_eps,2022.2.5,Win32,58.29204314,6148fd675993224dc86016d3,64c7fed44a04f777bb1e18ce,64c8010393ec381e169baf61,right,1,0.75,0.2429,1,0.122331976,0.2127,,,,,,31,0,31,0,1,,,,,
,,335097,001,2023-07-31_12h46.34.358,arm3_eps,2022.2.5,Win32,58.29204314,6148fd675993224dc86016d3,64c7fed44a04f777bb1e18ce,64c8010393ec381e169baf61,right,1,0.75,0.2429,1,0.143046169,0.1443,,,,,,32,0,32,0,1,,,,,
,,335097,001,2023-07-31_12h46.34.358,arm3_eps,2022.2.5,Win32,58.29204314,6148fd675993224dc86016d3,64c7fed44a04f777bb1e18ce,64c8010393ec381e169baf61,up,1,0.75,0.2429,1,0,0.6333,,,,,,33,0,33,0,1,,,,,
,,335097,001,2023-07-31_12h46.34.358,arm3_eps,2022.2.5,Win32,58.29204314,6148fd675993224dc86016d3,64c7fed44a04f777bb1e18ce,64c8010393ec381e169baf61,right,1,0.75,0.2429,1,0.000171962,0.6699,,,,,,34,0,34,0,1,,,,,
,,335097,001,2023-07-31_12h46.34.358,arm3_eps,2022.2.5,Win32,58.29204314,6148fd675993224dc86016d3,64c7fed44a04f777bb1e18ce,64c8010393ec381e169baf61,right,1,0.75,0.2429,1,0.016427057,0.1855,,,,,,35,0,35,0,1,,,,,
,,335097,001,2023-07-31_12h46.34.358,arm3_eps,2022.2.5,Win32,58.29204314,6148fd675993224dc86016d3,64c7fed44a04f777bb1e18ce,64c8010393ec381e169baf61,right,1,0.75,0.2429,1,0.009553958,0.2108,,,,,,36,0,36,0,1,,,,,
,,335097,001,2023-07-31_12h46.34.358,arm3_eps,2022.2.5,Win32,58.29204314,6148fd675993224dc86016d3,64c7fed44a04f777bb1e18ce,64c8010393ec381e169baf61,right,1,0.75,0.2429,1,0.035889873,0.1982,,,,,,37,0,37,0,1,,,,,
,,335097,001,2023-07-31_12h46.34.358,arm3_eps,2022.2.5,Win32,58.29204314,6148fd675993224dc86016d3,64c7fed44a04f777bb1e18ce,64c8010393ec381e169baf61,right,1,0.75,0.2429,1,0.07384245,0.2314,,,,,,38,0,38,0,1,,,,,
,,335097,001,2023-07-31_12h46.34.358,arm3_eps,2022.2.5,Win32,58.29204314,6148fd675993224dc86016d3,64c7fed44a04f777bb1e18ce,64c8010393ec381e169baf61,right,1,0.75,0.2429,1,0.077725452,0.2308,,,,,,39,0,39,0,1,,,,,
,,335097,001,2023-07-31_12h46.34.358,arm3_eps,2022.2.5,Win32,58.29204314,6148fd675993224dc86016d3,64c7fed44a04f777bb1e18ce,64c8010393ec381e169baf61,right,1,0.75,0.2429,1,0.098678603,0.2098,,,,,,40,0,40,0,1,,,,,
,,335097,001,2023-07-31_12h46.34.358,arm3_eps,2022.2.5,Win32,58.29204314,6148fd675993224dc86016d3,64c7fed44a04f777bb1e18ce,64c8010393ec381e169baf61,right,1,0.75,0.2429,1,0.091706148,0.2318,,,,,,41,0,41,0,1,,,,,
,,335097,001,2023-07-31_12h46.34.358,arm3_eps,2022.2.5,Win32,58.29204314,6148fd675993224dc86016d3,64c7fed44a04f777bb1e18ce,64c8010393ec381e169baf61,right,1,0.75,0.2429,1,0.1004106,0.2307,,,,,,42,0,42,0,1,,,,,
,,335097,001,2023-07-31_12h46.34.358,arm3_eps,2022.2.5,Win32,58.29204314,6148fd675993224dc86016d3,64c7fed44a04f777bb1e18ce,64c8010393ec381e169baf61,right,1,0.75,0.2429,1,0.09553134,0.2313,,,,,,43,0,43,0,1,,,,,
,,335097,001,2023-07-31_12h46.34.358,arm3_eps,2022.2.5,Win32,58.29204314,6148fd675993224dc86016d3,64c7fed44a04f777bb1e18ce,64c8010393ec381e169baf61,right,1,0.75,0.2429,1,0.12316748,0.2084,,,,,,44,0,44,0,1,,,,,
,,335097,001,2023-07-31_12h46.34.358,arm3_eps,2022.2.5,Win32,58.29204314,6148fd675993224dc86016d3,64c7fed44a04f777bb1e18ce,64c8010393ec381e169baf61,right,1,0.75,0.2429,1,0.138388676,0.4816,,,,,,45,0,45,0,1,,,,,
,,335097,001,2023-07-31_12h46.34.358,arm3_eps,2022.2.5,Win32,58.29204314,6148fd675993224dc86016d3,64c7fed44a04f777bb1e18ce,64c8010393ec381e169baf61,up,1,0.75,0.2429,2,0,0.6732,,,,,,46,0,46,0,1,,,,,
,,335097,001,2023-07-31_12h46.34.358,arm3_eps,2022.2.5,Win32,58.29204314,6148fd675993224dc86016d3,64c7fed44a04f777bb1e18ce,64c8010393ec381e169baf61,right,1,0.75,0.2429,2,0.018124476,0.7908,,,,,,47,0,47,0,1,,,,,
,,335097,001,2023-07-31_12h46.34.358,arm3_eps,2022.2.5,Win32,58.29204314,6148fd675993224dc86016d3,64c7fed44a04f777bb1e18ce,64c8010393ec381e169baf61,right,1,0.75,0.2429,2,0.00626029,1.2264,,,,,,48,0,48,0,1,,,,,
,,335097,001,2023-07-31_12h46.34.358,arm3_eps,2022.2.5,Win32,58.29204314,6148fd675993224dc86016d3,64c7fed44a04f777bb1e18ce,64c8010393ec381e169baf61,right,1,0.75,0.2429,2,0.023445541,0.1751,,,,,,49,0,49,0,1,,,,,
,,335097,001,2023-07-31_12h46.34.358,arm3_eps,2022.2.5,Win32,58.29204314,6148fd675993224dc86016d3,64c7fed44a04f777bb1e18ce,64c8010393ec381e169baf61,right,1,0.75,0.2429,2,0.020915489,0.2006,,,,,,50,0,50,0,1,,,,,
,,335097,001,2023-07-31_12h46.34.358,arm3_eps,2022.2.5,Win32,58.29204314,6148fd675993224dc86016d3,64c7fed44a04f777bb1e18ce,64c8010393ec381e169baf61,right,1,0.75,0.2429,2,0.049870103,0.1792,,,,,,51,0,51,0,1,,,,,
,,335097,001,2023-07-31_12h46.34.358,arm3_eps,2022.2.5,Win32,58.29204314,6148fd675993224dc86016d3,64c7fed44a04f777bb1e18ce,64c8010393ec381e169baf61,right,1,0.75,0.2429,2,0.058592982,0.184,,,,,,52,0,52,0,1,,,,,
,,335097,001,2023-07-31_12h46.34.358,arm3_eps,2022.2.5,Win32,58.29204314,6148fd675993224dc86016d3,64c7fed44a04f777bb1e18ce,64c8010393ec381e169baf61,right,1,0.75,0.2429,2,0.083074227,0.2004,,,,,,53,0,53,0,1,,,,,
,,335097,001,2023-07-31_12h46.34.358,arm3_eps,2022.2.5,Win32,58.29204314,6148fd675993224dc86016d3,64c7fed44a04f777bb1e18ce,64c8010393ec381e169baf61,right,1,0.75,0.2429,2,0.119918009,0.2036,,,,,,54,0,54,0,1,,,,,
,,335097,001,2023-07-31_12h46.34.358,arm3_eps,2022.2.5,Win32,58.29204314,6148fd675993224dc86016d3,64c7fed44a04f777bb1e18ce,64c8010393ec381e169baf61,right,1,0.75,0.2429,2,0.141369189,0.1808,,,,,,55,0,55,0,1,,,,,
,,335097,001,2023-07-31_12h46.34.358,arm3_eps,2022.2.5,Win32,58.29204314,6148fd675993224dc86016d3,64c7fed44a04f777bb1e18ce,64c8010393ec381e169baf61,up,1,0.75,0.2429,2,0,0.551,,,,,,56,0,56,0,1,,,,,
,,335097,001,2023-07-31_12h46.34.358,arm3_eps,2022.2.5,Win32,58.29204314,6148fd675993224dc86016d3,64c7fed44a04f777bb1e18ce,64c8010393ec381e169baf61,right,1,0.75,0.2429,2,-0.012081493,0.4444,,,,,,57,0,57,0,1,,,,,
,,335097,001,2023-07-31_12h46.34.358,arm3_eps,2022.2.5,Win32,58.29204314,6148fd675993224dc86016d3,64c7fed44a04f777bb1e18ce,64c8010393ec381e169baf61,right,1,0.75,0.2429,2,-0.020244336,0.1803,,,,,,58,0,58,0,1,,,,,
,,335097,001,2023-07-31_12h46.34.358,arm3_eps,2022.2.5,Win32,58.29204314,6148fd675993224dc86016d3,64c7fed44a04f777bb1e18ce,64c8010393ec381e169baf61,right,1,0.75,0.2429,2,-0.012104799,0.1963,,,,,,59,0,59,0,1,,,,,
,,335097,001,2023-07-31_12h46.34.358,arm3_eps,2022.2.5,Win32,58.29204314,6148fd675993224dc86016d3,64c7fed44a04f777bb1e18ce,64c8010393ec381e169baf61,right,1,0.75,0.2429,2,0.000401206,0.2132,,,,,,60,0,60,0,1,,,,,
,,335097,001,2023-07-31_12h46.34.358,arm3_eps,2022.2.5,Win32,58.29204314,6148fd675993224dc86016d3,64c7fed44a04f777bb1e18ce,64c8010393ec381e169baf61,right,1,0.75,0.2429,2,-0.0243036,0.1859,,,,,,61,0,61,0,1,,,,,
,,335097,001,2023-07-31_12h46.34.358,arm3_eps,2022.2.5,Win32,58.29204314,6148fd675993224dc86016d3,64c7fed44a04f777bb1e18ce,64c8010393ec381e169baf61,right,1,0.75,0.2429,2,0.005388363,0.2634,,,,,,62,0,62,0,1,,,,,
,,335097,001,2023-07-31_12h46.34.358,arm3_eps,2022.2.5,Win32,58.29204314,6148fd675993224dc86016d3,64c7fed44a04f777bb1e18ce,64c8010393ec381e169baf61,right,1,0.75,0.2429,2,0.007524598,0.1206,,,,,,63,0,63,0,1,,,,,
,,335097,001,2023-07-31_12h46.34.358,arm3_eps,2022.2.5,Win32,58.29204314,6148fd675993224dc86016d3,64c7fed44a04f777bb1e18ce,64c8010393ec381e169baf61,right,1,0.75,0.2429,2,0.021147444,0.2304,,,,,,64,0,64,0,1,,,,,
,,335097,001,2023-07-31_12h46.34.358,arm3_eps,2022.2.5,Win32,58.29204314,6148fd675993224dc86016d3,64c7fed44a04f777bb1e18ce,64c8010393ec381e169baf61,right,1,0.75,0.2429,2,0.00737772,0.1966,,,,,,65,0,65,0,1,,,,,
,,335097,001,2023-07-31_12h46.34.358,arm3_eps,2022.2.5,Win32,58.29204314,6148fd675993224dc86016d3,64c7fed44a04f777bb1e18ce,64c8010393ec381e169baf61,right,1,0.75,0.2429,2,0.005960522,0.1969,,,,,,66,0,66,0,1,,,,,
,,335097,001,2023-07-31_12h46.34.358,arm3_eps,2022.2.5,Win32,58.29204314,6148fd675993224dc86016d3,64c7fed44a04f777bb1e18ce,64c8010393ec381e169baf61,right,1,0.75,0.2429,2,0.052310787,0.2175,,,,,,67,0,67,0,1,,,,,
,,335097,001,2023-07-31_12h46.34.358,arm3_eps,2022.2.5,Win32,58.29204314,6148fd675993224dc86016d3,64c7fed44a04f777bb1e18ce,64c8010393ec381e169baf61,right,1,0.75,0.2429,2,0.108423595,0.6163,,,,,,68,0,68,0,1,,,,,
,,335097,001,2023-07-31_12h46.34.358,arm3_eps,2022.2.5,Win32,58.29204314,6148fd675993224dc86016d3,64c7fed44a04f777bb1e18ce,64c8010393ec381e169baf61,up,1,0.75,0.2429,3,0,0.7298,,,,,,69,0,69,0,1,,,,,
,,335097,001,2023-07-31_12h46.34.358,arm3_eps,2022.2.5,Win32,58.29204314,6148fd675993224dc86016d3,64c7fed44a04f777bb1e18ce,64c8010393ec381e169baf61,right,1,0.75,0.2429,3,0.014027974,0.4969,,,,,,70,0,70,0,1,,,,,
,,335097,001,2023-07-31_12h46.34.358,arm3_eps,2022.2.5,Win32,58.29204314,6148fd675993224dc86016d3,64c7fed44a04f777bb1e18ce,64c8010393ec381e169baf61,right,1,0.75,0.2429,3,0.035285068,0.1631,,,,,,71,0,71,0,1,,,,,
,,335097,001,2023-07-31_12h46.34.358,arm3_eps,2022.2.5,Win32,58.29204314,6148fd675993224dc86016d3,64c7fed44a04f777bb1e18ce,64c8010393ec381e169baf61,right,1,0.75,0.2429,3,0.05710546,0.1669,,,,,,72,0,72,0,1,,,,,
,,335097,001,2023-07-31_12h46.34.358,arm3_eps,2022.2.5,Win32,58.29204314,6148fd675993224dc86016d3,64c7fed44a04f777bb1e18ce,64c8010393ec381e169baf61,right,1,0.75,0.2429,3,0.039402544,0.1691,,,,,,73,0,73,0,1,,,,,
,,335097,001,2023-07-31_12h46.34.358,arm3_eps,2022.2.5,Win32,58.29204314,6148fd675993224dc86016d3,64c7fed44a04f777bb1e18ce,64c8010393ec381e169baf61,right,1,0.75,0.2429,3,0.05309455,0.2173,,,,,,74,0,74,0,1,,,,,
,,335097,001,2023-07-31_12h46.34.358,arm3_eps,2022.2.5,Win32,58.29204314,6148fd675993224dc86016d3,64c7fed44a04f777bb1e18ce,64c8010393ec381e169baf61,right,1,0.75,0.2429,3,0.059545896,0.1964,,,,,,75,0,75,0,1,,,,,
,,335097,001,2023-07-31_12h46.34.358,arm3_eps,2022.2.5,Win32,58.29204314,6148fd675993224dc86016d3,64c7fed44a04f777bb1e18ce,64c8010393ec381e169baf61,right,1,0.75,0.2429,3,0.064196117,0.1961,,,,,,76,0,76,0,1,,,,,
,,335097,001,2023-07-31_12h46.34.358,arm3_eps,2022.2.5,Win32,58.29204314,6148fd675993224dc86016d3,64c7fed44a04f777bb1e18ce,64c8010393ec381e169baf61,right,1,0.75,0.2429,3,0.029045977,0.1837,,,,,,77,0,77,0,1,,,,,
,,335097,001,2023-07-31_12h46.34.358,arm3_eps,2022.2.5,Win32,58.29204314,6148fd675993224dc86016d3,64c7fed44a04f777bb1e18ce,64c8010393ec381e169baf61,right,1,0.75,0.2429,3,0.039071784,0.2117,,,,,,78,0,78,0,1,,,,,
,,335097,001,2023-07-31_12h46.34.358,arm3_eps,2022.2.5,Win32,58.29204314,6148fd675993224dc86016d3,64c7fed44a04f777bb1e18ce,64c8010393ec381e169baf61,right,1,0.75,0.2429,3,0.036579124,0.1781,,,,,,79,0,79,0,1,,,,,
,,335097,001,2023-07-31_12h46.34.358,arm3_eps,2022.2.5,Win32,58.29204314,6148fd675993224dc86016d3,64c7fed44a04f777bb1e18ce,64c8010393ec381e169baf61,right,1,0.75,0.2429,3,0.059067564,0.2395,,,,,,80,0,80,0,1,,,,,
,,335097,001,2023-07-31_12h46.34.358,arm3_eps,2022.2.5,Win32,58.29204314,6148fd675993224dc86016d3,64c7fed44a04f777bb1e18ce,64c8010393ec381e169baf61,right,1,0.75,0.2429,3,0.0667918,0.5327,,,,,,81,0,81,0,1,,,,,
,,335097,001,2023-07-31_12h46.34.358,arm3_eps,2022.2.5,Win32,58.29204314,6148fd675993224dc86016d3,64c7fed44a04f777bb1e18ce,64c8010393ec381e169baf61,up,1,0.75,0.2429,4,0,0.583,,,,,,82,0,82,0,1,,,,,
,,335097,001,2023-07-31_12h46.34.358,arm3_eps,2022.2.5,Win32,58.29204314,6148fd675993224dc86016d3,64c7fed44a04f777bb1e18ce,64c8010393ec381e169baf61,right,1,0.75,0.2429,4,0.003502927,0.5575,,,,,,83,0,83,0,1,,,,,
,,335097,001,2023-07-31_12h46.34.358,arm3_eps,2022.2.5,Win32,58.29204314,6148fd675993224dc86016d3,64c7fed44a04f777bb1e18ce,64c8010393ec381e169baf61,right,1,0.75,0.2429,4,0.047087963,0.2186,,,,,,84,0,84,0,1,,,,,
,,335097,001,2023-07-31_12h46.34.358,arm3_eps,2022.2.5,Win32,58.29204314,6148fd675993224dc86016d3,64c7fed44a04f777bb1e18ce,64c8010393ec381e169baf61,right,1,0.75,0.2429,4,0.079382295,0.2022,,,,,,85,0,85,0,1,,,,,
,,335097,001,2023-07-31_12h46.34.358,arm3_eps,2022.2.5,Win32,58.29204314,6148fd675993224dc86016d3,64c7fed44a04f777bb1e18ce,64c8010393ec381e169baf61,right,1,0.75,0.2429,4,0.107456025,0.1795,,,,,,86,0,86,0,1,,,,,
,,335097,001,2023-07-31_12h46.34.358,arm3_eps,2022.2.5,Win32,58.29204314,6148fd675993224dc86016d3,64c7fed44a04f777bb1e18ce,64c8010393ec381e169baf61,right,1,0.75,0.2429,4,0.15294715,0.1964,,,,,,87,0,87,0,1,,,,,
,,335097,001,2023-07-31_12h46.34.358,arm3_eps,2022.2.5,Win32,58.29204314,6148fd675993224dc86016d3,64c7fed44a04f777bb1e18ce,64c8010393ec381e169baf61,right,1,0.75,0.2429,4,0.168785337,0.2019,,,,,,88,0,88,0,1,,,,,
,,335097,001,2023-07-31_12h46.34.358,arm3_eps,2022.2.5,Win32,58.29204314,6148fd675993224dc86016d3,64c7fed44a04f777bb1e18ce,64c8010393ec381e169baf61,right,1,0.75,0.2429,4,0.200864643,0.179,,,,,,89,0,89,0,1,,,,,
,,335097,001,2023-07-31_12h46.34.358,arm3_eps,2022.2.5,Win32,58.29204314,6148fd675993224dc86016d3,64c7fed44a04f777bb1e18ce,64c8010393ec381e169baf61,up,1,0.75,0.2429,5,0,0.4547,,,,,,90,0,90,0,1,,,,,
,,335097,001,2023-07-31_12h46.34.358,arm3_eps,2022.2.5,Win32,58.29204314,6148fd675993224dc86016d3,64c7fed44a04f777bb1e18ce,64c8010393ec381e169baf61,right,1,0.75,0.2429,5,0.04711097,0.8268,,,,,,91,0,91,0,1,,,,,
,,335097,001,2023-07-31_12h46.34.358,arm3_eps,2022.2.5,Win32,58.29204314,6148fd675993224dc86016d3,64c7fed44a04f777bb1e18ce,64c8010393ec381e169baf61,right,1,0.75,0.2429,5,0.060660961,0.2408,,,,,,92,0,92,0,1,,,,,
,,335097,001,2023-07-31_12h46.34.358,arm3_eps,2022.2.5,Win32,58.29204314,6148fd675993224dc86016d3,64c7fed44a04f777bb1e18ce,64c8010393ec381e169baf61,right,1,0.75,0.2429,5,0.054305751,0.2135,,,,,,93,0,93,0,1,,,,,
,,335097,001,2023-07-31_12h46.34.358,arm3_eps,2022.2.5,Win32,58.29204314,6148fd675993224dc86016d3,64c7fed44a04f777bb1e18ce,64c8010393ec381e169baf61,right,1,0.75,0.2429,5,0.082098089,0.2136,,,,,,94,0,94,0,1,,,,,
,,335097,001,2023-07-31_12h46.34.358,arm3_eps,2022.2.5,Win32,58.29204314,6148fd675993224dc86016d3,64c7fed44a04f777bb1e18ce,64c8010393ec381e169baf61,right,1,0.75,0.2429,5,0.104048817,0.1803,,,,,,95,0,95,0,1,,,,,
,,335097,001,2023-07-31_12h46.34.358,arm3_eps,2022.2.5,Win32,58.29204314,6148fd675993224dc86016d3,64c7fed44a04f777bb1e18ce,64c8010393ec381e169baf61,right,1,0.75,0.2429,5,0.100118559,0.1964,,,,,,96,0,96,0,1,,,,,
,,335097,001,2023-07-31_12h46.34.358,arm3_eps,2022.2.5,Win32,58.29204314,6148fd675993224dc86016d3,64c7fed44a04f777bb1e18ce,64c8010393ec381e169baf61,right,1,0.75,0.2429,5,0.085728052,0.2119,,,,,,97,0,97,0,1,,,,,
,,335097,001,2023-07-31_12h46.34.358,arm3_eps,2022.2.5,Win32,58.29204314,6148fd675993224dc86016d3,64c7fed44a04f777bb1e18ce,64c8010393ec381e169baf61,right,1,0.75,0.2429,5,0.066320492,0.1803,,,,,,98,0,98,0,1,,,,,
,,335097,001,2023-07-31_12h46.34.358,arm3_eps,2022.2.5,Win32,58.29204314,6148fd675993224dc86016d3,64c7fed44a04f777bb1e18ce,64c8010393ec381e169baf61,right,1,0.75,0.2429,5,0.094092312,0.212,,,,,,99,0,99,0,1,,,,,
,,335097,001,2023-07-31_12h46.34.358,arm3_eps,2022.2.5,Win32,58.29204314,6148fd675993224dc86016d3,64c7fed44a04f777bb1e18ce,64c8010393ec381e169baf61,right,1,0.75,0.2429,5,0.106746336,0.1951,,,,,,100,0,100,0,1,,,,,
,,335097,001,2023-07-31_12h46.34.358,arm3_eps,2022.2.5,Win32,58.29204314,6148fd675993224dc86016d3,64c7fed44a04f777bb1e18ce,64c8010393ec381e169baf61,right,1,0.75,0.2429,5,0.134358086,0.1732,,,,,,101,0,101,0,1,,,,,
,,335097,001,2023-07-31_12h46.34.358,arm3_eps,2022.2.5,Win32,58.29204314,6148fd675993224dc86016d3,64c7fed44a04f777bb1e18ce,64c8010393ec381e169baf61,right,1,0.75,0.2429,5,0.157014066,0.2773,,,,,,102,0,102,0,1,,,,,
,,335097,001,2023-07-31_12h46.34.358,arm3_eps,2022.2.5,Win32,58.29204314,6148fd675993224dc86016d3,64c7fed44a04f777bb1e18ce,64c8010393ec381e169baf61,up,1,0.75,0.2429,6,0,0.684,,,,,,103,0,103,0,1,,,,,
,,335097,001,2023-07-31_12h46.34.358,arm3_eps,2022.2.5,Win32,58.29204314,6148fd675993224dc86016d3,64c7fed44a04f777bb1e18ce,64c8010393ec381e169baf61,right,1,0.75,0.2429,6,-0.001978299,0.7865,,,,,,104,0,104,0,1,,,,,
,,335097,001,2023-07-31_12h46.34.358,arm3_eps,2022.2.5,Win32,58.29204314,6148fd675993224dc86016d3,64c7fed44a04f777bb1e18ce,64c8010393ec381e169baf61,right,1,0.75,0.2429,6,-0.017898795,0.2006,,,,,,105,0,105,0,1,,,,,
,,335097,001,2023-07-31_12h46.34.358,arm3_eps,2022.2.5,Win32,58.29204314,6148fd675993224dc86016d3,64c7fed44a04f777bb1e18ce,64c8010393ec381e169baf61,right,1,0.75,0.2429,6,-0.009038304,0.184,,,,,,106,0,106,0,1,,,,,
,,335097,001,2023-07-31_12h46.34.358,arm3_eps,2022.2.5,Win32,58.29204314,6148fd675993224dc86016d3,64c7fed44a04f777bb1e18ce,64c8010393ec381e169baf61,right,1,0.75,0.2429,6,0.034834075,0.2035,,,,,,107,0,107,0,1,,,,,
,,335097,001,2023-07-31_12h46.34.358,arm3_eps,2022.2.5,Win32,58.29204314,6148fd675993224dc86016d3,64c7fed44a04f777bb1e18ce,64c8010393ec381e169baf61,right,1,0.75,0.2429,6,0.031622104,0.199,,,,,,108,0,108,0,1,,,,,
,,335097,001,2023-07-31_12h46.34.358,arm3_eps,2022.2.5,Win32,58.29204314,6148fd675993224dc86016d3,64c7fed44a04f777bb1e18ce,64c8010393ec381e169baf61,right,1,0.75,0.2429,6,0.065518421,0.1982,,,,,,109,0,109,0,1,,,,,
,,335097,001,2023-07-31_12h46.34.358,arm3_eps,2022.2.5,Win32,58.29204314,6148fd675993224dc86016d3,64c7fed44a04f777bb1e18ce,64c8010393ec381e169baf61,right,1,0.75,0.2429,6,0.06153434,0.1962,,,,,,110,0,110,0,1,,,,,
,,335097,001,2023-07-31_12h46.34.358,arm3_eps,2022.2.5,Win32,58.29204314,6148fd675993224dc86016d3,64c7fed44a04f777bb1e18ce,64c8010393ec381e169baf61,right,1,0.75,0.2429,6,0.070278231,0.2128,,,,,,111,0,111,0,1,,,,,
,,335097,001,2023-07-31_12h46.34.358,arm3_eps,2022.2.5,Win32,58.29204314,6148fd675993224dc86016d3,64c7fed44a04f777bb1e18ce,64c8010393ec381e169baf61,right,1,0.75,0.2429,6,0.07352336,0.1967,,,,,,112,0,112,0,1,,,,,
,,335097,001,2023-07-31_12h46.34.358,arm3_eps,2022.2.5,Win32,58.29204314,6148fd675993224dc86016d3,64c7fed44a04f777bb1e18ce,64c8010393ec381e169baf61,right,1,0.75,0.2429,6,0.100288637,0.1825,,,,,,113,0,113,0,1,,,,,
,,335097,001,2023-07-31_12h46.34.358,arm3_eps,2022.2.5,Win32,58.29204314,6148fd675993224dc86016d3,64c7fed44a04f777bb1e18ce,64c8010393ec381e169baf61,right,1,0.75,0.2429,6,0.100329003,0.2131,,,,,,114,0,114,0,1,,,,,
,,335097,001,2023-07-31_12h46.34.358,arm3_eps,2022.2.5,Win32,58.29204314,6148fd675993224dc86016d3,64c7fed44a04f777bb1e18ce,64c8010393ec381e169baf61,up,1,0.75,0.2429,7,0,0.4799,,,,,,115,0,115,0,1,,,,,
,,335097,001,2023-07-31_12h46.34.358,arm3_eps,2022.2.5,Win32,58.29204314,6148fd675993224dc86016d3,64c7fed44a04f777bb1e18ce,64c8010393ec381e169baf61,right,1,0.75,0.2429,7,-0.00259385,0.8421,,,,,,116,0,116,0,1,,,,,
,,335097,001,2023-07-31_12h46.34.358,arm3_eps,2022.2.5,Win32,58.29204314,6148fd675993224dc86016d3,64c7fed44a04f777bb1e18ce,64c8010393ec381e169baf61,right,1,0.75,0.2429,7,0.025623122,0.199,,,,,,117,0,117,0,1,,,,,
,,335097,001,2023-07-31_12h46.34.358,arm3_eps,2022.2.5,Win32,58.29204314,6148fd675993224dc86016d3,64c7fed44a04f777bb1e18ce,64c8010393ec381e169baf61,right,1,0.75,0.2429,7,0.079373475,0.2031,,,,,,118,0,118,0,1,,,,,
,,335097,001,2023-07-31_12h46.34.358,arm3_eps,2022.2.5,Win32,58.29204314,6148fd675993224dc86016d3,64c7fed44a04f777bb1e18ce,64c8010393ec381e169baf61,right,1,0.75,0.2429,7,0.074311335,0.2215,,,,,,119,0,119,0,1,,,,,
,,335097,001,2023-07-31_12h46.34.358,arm3_eps,2022.2.5,Win32,58.29204314,6148fd675993224dc86016d3,64c7fed44a04f777bb1e18ce,64c8010393ec381e169baf61,right,1,0.75,0.2429,7,0.069014657,0.2248,,,,,,120,0,120,0,1,,,,,
,,335097,001,2023-07-31_12h46.34.358,arm3_eps,2022.2.5,Win32,58.29204314,6148fd675993224dc86016d3,64c7fed44a04f777bb1e18ce,64c8010393ec381e169baf61,right,1,0.75,0.2429,7,0.071796097,0.2154,,,,,,121,0,121,0,1,,,,,
,,335097,001,2023-07-31_12h46.34.358,arm3_eps,2022.2.5,Win32,58.29204314,6148fd675993224dc86016d3,64c7fed44a04f777bb1e18ce,64c8010393ec381e169baf61,right,1,0.75,0.2429,7,0.07443308,0.2131,,,,,,122,0,122,0,1,,,,,
,,335097,001,2023-07-31_12h46.34.358,arm3_eps,2022.2.5,Win32,58.29204314,6148fd675993224dc86016d3,64c7fed44a04f777bb1e18ce,64c8010393ec381e169baf61,right,1,0.75,0.2429,7,0.060363182,0.2353,,,,,,123,0,123,0,1,,,,,
,,335097,001,2023-07-31_12h46.34.358,arm3_eps,2022.2.5,Win32,58.29204314,6148fd675993224dc86016d3,64c7fed44a04f777bb1e18ce,64c8010393ec381e169baf61,right,1,0.75,0.2429,7,0.073987605,0.2154,,,,,,124,0,124,0,1,,,,,
,,335097,001,2023-07-31_12h46.34.358,arm3_eps,2022.2.5,Win32,58.29204314,6148fd675993224dc86016d3,64c7fed44a04f777bb1e18ce,64c8010393ec381e169baf61,up,-1,0.75,0.2429,8,0,0.672,,,,,,125,0,125,0,1,,,,,
,,335097,001,2023-07-31_12h46.34.358,arm3_eps,2022.2.5,Win32,58.29204314,6148fd675993224dc86016d3,64c7fed44a04f777bb1e18ce,64c8010393ec381e169baf61,right,-1,0.75,0.2429,8,-0.033911869,0.4014,,,,,,126,0,126,0,1,,,,,
,,335097,001,2023-07-31_12h46.34.358,arm3_eps,2022.2.5,Win32,58.29204314,6148fd675993224dc86016d3,64c7fed44a04f777bb1e18ce,64c8010393ec381e169baf61,right,-1,0.75,0.2429,8,-0.01450003,0.205,,,,,,127,0,127,0,1,,,,,
,,335097,001,2023-07-31_12h46.34.358,arm3_eps,2022.2.5,Win32,58.29204314,6148fd675993224dc86016d3,64c7fed44a04f777bb1e18ce,64c8010393ec381e169baf61,right,-1,0.75,0.2429,8,-0.010569545,0.1699,,,,,,128,0,128,0,1,,,,,
,,335097,001,2023-07-31_12h46.34.358,arm3_eps,2022.2.5,Win32,58.29204314,6148fd675993224dc86016d3,64c7fed44a04f777bb1e18ce,64c8010393ec381e169baf61,right,-1,0.75,0.2429,8,-0.041374249,0.1804,,,,,,129,0,129,0,1,,,,,
,,335097,001,2023-07-31_12h46.34.358,arm3_eps,2022.2.5,Win32,58.29204314,6148fd675993224dc86016d3,64c7fed44a04f777bb1e18ce,64c8010393ec381e169baf61,right,-1,0.75,0.2429,8,-0.036254347,0.1964,,,,,,130,0,130,0,1,,,,,
,,335097,001,2023-07-31_12h46.34.358,arm3_eps,2022.2.5,Win32,58.29204314,6148fd675993224dc86016d3,64c7fed44a04f777bb1e18ce,64c8010393ec381e169baf61,right,-1,0.75,0.2429,8,-0.054811792,0.2033,,,,,,131,0,131,0,1,,,,,
,,335097,001,2023-07-31_12h46.34.358,arm3_eps,2022.2.5,Win32,58.29204314,6148fd675993224dc86016d3,64c7fed44a04f777bb1e18ce,64c8010393ec381e169baf61,right,-1,0.75,0.2429,8,-0.081880492,0.2218,,,,,,132,0,132,0,1,,,,,
,,335097,001,2023-07-31_12h46.34.358,arm3_eps,2022.2.5,Win32,58.29204314,6148fd675993224dc86016d3,64c7fed44a04f777bb1e18ce,64c8010393ec381e169baf61,right,-1,0.75,0.2429,8,-0.098534561,0.2159,,,,,,133,0,133,0,1,,,,,
,,335097,001,2023-07-31_12h46.34.358,arm3_eps,2022.2.5,Win32,58.29204314,6148fd675993224dc86016d3,64c7fed44a04f777bb1e18ce,64c8010393ec381e169baf61,right,-1,0.75,0.2429,8,-0.107556323,0.1812,,,,,,134,0,134,0,1,,,,,
,,335097,001,2023-07-31_12h46.34.358,arm3_eps,2022.2.5,Win32,58.29204314,6148fd675993224dc86016d3,64c7fed44a04f777bb1e18ce,64c8010393ec381e169baf61,down,1,0.75,0.2429,9,0,0.2814,,,,,,135,0,135,0,1,,,,,
,,335097,001,2023-07-31_12h46.34.358,arm3_eps,2022.2.5,Win32,58.29204314,6148fd675993224dc86016d3,64c7fed44a04f777bb1e18ce,64c8010393ec381e169baf61,right,1,0.75,0.2429,9,-0.000607779,0.4766,,,,,,136,0,136,0,1,,,,,
,,335097,001,2023-07-31_12h46.34.358,arm3_eps,2022.2.5,Win32,58.29204314,6148fd675993224dc86016d3,64c7fed44a04f777bb1e18ce,64c8010393ec381e169baf61,right,1,0.75,0.2429,9,0.028408492,0.3776,,,,,,137,0,137,0,1,,,,,
,,335097,001,2023-07-31_12h46.34.358,arm3_eps,2022.2.5,Win32,58.29204314,6148fd675993224dc86016d3,64c7fed44a04f777bb1e18ce,64c8010393ec381e169baf61,right,1,0.75,0.2429,9,0.042796846,0.1548,,,,,,138,0,138,0,1,,,,,
,,335097,001,2023-07-31_12h46.34.358,arm3_eps,2022.2.5,Win32,58.29204314,6148fd675993224dc86016d3,64c7fed44a04f777bb1e18ce,64c8010393ec381e169baf61,right,1,0.75,0.2429,9,0.033584634,0.2172,,,,,,139,0,139,0,1,,,,,
,,335097,001,2023-07-31_12h46.34.358,arm3_eps,2022.2.5,Win32,58.29204314,6148fd675993224dc86016d3,64c7fed44a04f777bb1e18ce,64c8010393ec381e169baf61,right,1,0.75,0.2429,9,0.026588379,0.179,,,,,,140,0,140,0,1,,,,,
,,335097,001,2023-07-31_12h46.34.358,arm3_eps,2022.2.5,Win32,58.29204314,6148fd675993224dc86016d3,64c7fed44a04f777bb1e18ce,64c8010393ec381e169baf61,right,1,0.75,0.2429,9,0.022005049,0.1974,,,,,,141,0,141,0,1,,,,,
,,335097,001,2023-07-31_12h46.34.358,arm3_eps,2022.2.5,Win32,58.29204314,6148fd675993224dc86016d3,64c7fed44a04f777bb1e18ce,64c8010393ec381e169baf61,right,1,0.75,0.2429,9,0.032990705,0.2137,,,,,,142,0,142,0,1,,,,,
,,335097,001,2023-07-31_12h46.34.358,arm3_eps,2022.2.5,Win32,58.29204314,6148fd675993224dc86016d3,64c7fed44a04f777bb1e18ce,64c8010393ec381e169baf61,right,1,0.75,0.2429,9,0.041074791,0.2445,,,,,,143,0,143,0,1,,,,,
,,335097,001,2023-07-31_12h46.34.358,arm3_eps,2022.2.5,Win32,58.29204314,6148fd675993224dc86016d3,64c7fed44a04f777bb1e18ce,64c8010393ec381e169baf61,right,1,0.75,0.2429,9,0.047904065,0.1916,,,,,,144,0,144,0,1,,,,,
,,335097,001,2023-07-31_12h46.34.358,arm3_eps,2022.2.5,Win32,58.29204314,6148fd675993224dc86016d3,64c7fed44a04f777bb1e18ce,64c8010393ec381e169baf61,right,1,0.75,0.2429,9,0.056803989,0.181,,,,,,145,0,145,0,1,,,,,
,,335097,001,2023-07-31_12h46.34.358,arm3_eps,2022.2.5,Win32,58.29204314,6148fd675993224dc86016d3,64c7fed44a04f777bb1e18ce,64c8010393ec381e169baf61,down,1,0.75,0.2429,8,0,0.4016,,,,,,146,0,146,0,1,,,,,
,,335097,001,2023-07-31_12h46.34.358,arm3_eps,2022.2.5,Win32,58.29204314,6148fd675993224dc86016d3,64c7fed44a04f777bb1e18ce,64c8010393ec381e169baf61,right,1,0.75,0.2429,8,0.001290059,0.9019,,,,,,147,0,147,0,1,,,,,
,,335097,001,2023-07-31_12h46.34.358,arm3_eps,2022.2.5,Win32,58.29204314,6148fd675993224dc86016d3,64c7fed44a04f777bb1e18ce,64c8010393ec381e169baf61,right,1,0.75,0.2429,8,-0.023293517,0.1674,,,,,,148,0,148,0,1,,,,,
,,335097,001,2023-07-31_12h46.34.358,arm3_eps,2022.2.5,Win32,58.29204314,6148fd675993224dc86016d3,64c7fed44a04f777bb1e18ce,64c8010393ec381e169baf61,right,1,0.75,0.2429,8,-0.037360884,0.1864,,,,,,149,0,149,0,1,,,,,
,,335097,001,2023-07-31_12h46.34.358,arm3_eps,2022.2.5,Win32,58.29204314,6148fd675993224dc86016d3,64c7fed44a04f777bb1e18ce,64c8010393ec381e169baf61,right,1,0.75,0.2429,8,-0.013222361,0.2468,,,,,,150,0,150,0,1,,,,,
,,335097,001,2023-07-31_12h46.34.358,arm3_eps,2022.2.5,Win32,58.29204314,6148fd675993224dc86016d3,64c7fed44a04f777bb1e18ce,64c8010393ec381e169baf61,right,1,0.75,0.2429,8,-0.018003786,0.1974,,,,,,151,0,151,0,1,,,,,
,,335097,001,2023-07-31_12h46.34.358,arm3_eps,2022.2.5,Win32,58.29204314,6148fd675993224dc86016d3,64c7fed44a04f777bb1e18ce,64c8010393ec381e169baf61,right,1,0.75,0.2429,8,-0.009790412,0.2134,,,,,,152,0,152,0,1,,,,,
,,335097,001,2023-07-31_12h46.34.358,arm3_eps,2022.2.5,Win32,58.29204314,6148fd675993224dc86016d3,64c7fed44a04f777bb1e18ce,64c8010393ec381e169baf61,right,1,0.75,0.2429,8,0.00159328,0.2038,,,,,,153,0,153,0,1,,,,,
,,335097,001,2023-07-31_12h46.34.358,arm3_eps,2022.2.5,Win32,58.29204314,6148fd675993224dc86016d3,64c7fed44a04f777bb1e18ce,64c8010393ec381e169baf61,right,1,0.75,0.2429,8,0.006508785,0.187,,,,,,154,0,154,0,1,,,,,
,,335097,001,2023-07-31_12h46.34.358,arm3_eps,2022.2.5,Win32,58.29204314,6148fd675993224dc86016d3,64c7fed44a04f777bb1e18ce,64c8010393ec381e169baf61,right,1,0.75,0.2429,8,-0.000711513,0.1779,,,,,,155,0,155,0,1,,,,,
,,335097,001,2023-07-31_12h46.34.358,arm3_eps,2022.2.5,Win32,58.29204314,6148fd675993224dc86016d3,64c7fed44a04f777bb1e18ce,64c8010393ec381e169baf61,right,1,0.75,0.2429,8,0.018146114,0.2125,,,,,,156,0,156,0,1,,,,,
,,335097,001,2023-07-31_12h46.34.358,arm3_eps,2022.2.5,Win32,58.29204314,6148fd675993224dc86016d3,64c7fed44a04f777bb1e18ce,64c8010393ec381e169baf61,right,1,0.75,0.2429,8,0.034409776,0.2013,,,,,,157,0,157,0,1,,,,,
,,335097,001,2023-07-31_12h46.34.358,arm3_eps,2022.2.5,Win32,58.29204314,6148fd675993224dc86016d3,64c7fed44a04f777bb1e18ce,64c8010393ec381e169baf61,right,1,0.75,0.2429,8,0.030522077,0.2277,,,,,,158,0,158,0,1,,,,,
,,335097,001,2023-07-31_12h46.34.358,arm3_eps,2022.2.5,Win32,58.29204314,6148fd675993224dc86016d3,64c7fed44a04f777bb1e18ce,64c8010393ec381e169baf61,up,-1,0.75,0.2429,9,0,0.9784,,,,,,159,0,159,0,1,,,,,
,,335097,001,2023-07-31_12h46.34.358,arm3_eps,2022.2.5,Win32,58.29204314,6148fd675993224dc86016d3,64c7fed44a04f777bb1e18ce,64c8010393ec381e169baf61,right,-1,0.75,0.2429,9,-0.011580751,0.6576,,,,,,160,0,160,0,1,,,,,
,,335097,001,2023-07-31_12h46.34.358,arm3_eps,2022.2.5,Win32,58.29204314,6148fd675993224dc86016d3,64c7fed44a04f777bb1e18ce,64c8010393ec381e169baf61,right,-1,0.75,0.2429,9,0.02636085,0.1699,,,,,,161,0,161,0,1,,,,,
,,335097,001,2023-07-31_12h46.34.358,arm3_eps,2022.2.5,Win32,58.29204314,6148fd675993224dc86016d3,64c7fed44a04f777bb1e18ce,64c8010393ec381e169baf61,right,-1,0.75,0.2429,9,0.014892935,0.2061,,,,,,162,0,162,0,1,,,,,
,,335097,001,2023-07-31_12h46.34.358,arm3_eps,2022.2.5,Win32,58.29204314,6148fd675993224dc86016d3,64c7fed44a04f777bb1e18ce,64c8010393ec381e169baf61,right,-1,0.75,0.2429,9,0.012907834,0.2167,,,,,,163,0,163,0,1,,,,,
,,335097,001,2023-07-31_12h46.34.358,arm3_eps,2022.2.5,Win32,58.29204314,6148fd675993224dc86016d3,64c7fed44a04f777bb1e18ce,64c8010393ec381e169baf61,right,-1,0.75,0.2429,9,-0.008252228,0.1416,,,,,,164,0,164,0,1,,,,,
,,335097,001,2023-07-31_12h46.34.358,arm3_eps,2022.2.5,Win32,58.29204314,6148fd675993224dc86016d3,64c7fed44a04f777bb1e18ce,64c8010393ec381e169baf61,right,-1,0.75,0.2429,9,-0.03188953,0.213,,,,,,165,0,165,0,1,,,,,
,,335097,001,2023-07-31_12h46.34.358,arm3_eps,2022.2.5,Win32,58.29204314,6148fd675993224dc86016d3,64c7fed44a04f777bb1e18ce,64c8010393ec381e169baf61,right,-1,0.75,0.2429,9,-0.085153368,0.1851,,,,,,166,0,166,0,1,,,,,
,,335097,001,2023-07-31_12h46.34.358,arm3_eps,2022.2.5,Win32,58.29204314,6148fd675993224dc86016d3,64c7fed44a04f777bb1e18ce,64c8010393ec381e169baf61,right,-1,0.75,0.2429,9,-0.114031729,0.2009,,,,,,167,0,167,0,1,,,,,
,,335097,001,2023-07-31_12h46.34.358,arm3_eps,2022.2.5,Win32,58.29204314,6148fd675993224dc86016d3,64c7fed44a04f777bb1e18ce,64c8010393ec381e169baf61,right,-1,0.75,0.2429,9,-0.126627402,0.2138,,,,,,168,0,168,0,1,,,,,
,,335097,001,2023-07-31_12h46.34.358,arm3_eps,2022.2.5,Win32,58.29204314,6148fd675993224dc86016d3,64c7fed44a04f777bb1e18ce,64c8010393ec381e169baf61,down,-1,0.75,0.2429,10,0,0.3468,,,,,,169,0,169,0,1,,,,,
,,335097,001,2023-07-31_12h46.34.358,arm3_eps,2022.2.5,Win32,58.29204314,6148fd675993224dc86016d3,64c7fed44a04f777bb1e18ce,64c8010393ec381e169baf61,right,-1,0.75,0.2429,10,-0.035761838,0.6985,,,,,,170,0,170,0,1,,,,,
,,335097,001,2023-07-31_12h46.34.358,arm3_eps,2022.2.5,Win32,58.29204314,6148fd675993224dc86016d3,64c7fed44a04f777bb1e18ce,64c8010393ec381e169baf61,right,-1,0.75,0.2429,10,-0.060930256,0.1515,,,,,,171,0,171,0,1,,,,,
,,335097,001,2023-07-31_12h46.34.358,arm3_eps,2022.2.5,Win32,58.29204314,6148fd675993224dc86016d3,64c7fed44a04f777bb1e18ce,64c8010393ec381e169baf61,right,-1,0.75,0.2429,10,-0.05952779,0.1994,,,,,,172,0,172,0,1,,,,,
,,335097,001,2023-07-31_12h46.34.358,arm3_eps,2022.2.5,Win32,58.29204314,6148fd675993224dc86016d3,64c7fed44a04f777bb1e18ce,64c8010393ec381e169baf61,right,-1,0.75,0.2429,10,-0.046732016,0.1903,,,,,,173,0,173,0,1,,,,,
,,335097,001,2023-07-31_12h46.34.358,arm3_eps,2022.2.5,Win32,58.29204314,6148fd675993224dc86016d3,64c7fed44a04f777bb1e18ce,64c8010393ec381e169baf61,right,-1,0.75,0.2429,10,-0.069686852,0.1695,,,,,,174,0,174,0,1,,,,,
,,335097,001,2023-07-31_12h46.34.358,arm3_eps,2022.2.5,Win32,58.29204314,6148fd675993224dc86016d3,64c7fed44a04f777bb1e18ce,64c8010393ec381e169baf61,right,-1,0.75,0.2429,10,-0.083702014,0.1997,,,,,,175,0,175,0,1,,,,,
,,335097,001,2023-07-31_12h46.34.358,arm3_eps,2022.2.5,Win32,58.29204314,6148fd675993224dc86016d3,64c7fed44a04f777bb1e18ce,64c8010393ec381e169baf61,right,-1,0.75,0.2429,10,-0.115129746,0.1853,,,,,,176,0,176,0,1,,,,,
,,335097,001,2023-07-31_12h46.34.358,arm3_eps,2022.2.5,Win32,58.29204314,6148fd675993224dc86016d3,64c7fed44a04f777bb1e18ce,64c8010393ec381e169baf61,right,-1,0.75,0.2429,10,-0.114659014,0.2462,,,,,,177,0,177,0,1,,,,,
,,335097,001,2023-07-31_12h46.34.358,arm3_eps,2022.2.5,Win32,58.29204314,6148fd675993224dc86016d3,64c7fed44a04f777bb1e18ce,64c8010393ec381e169baf61,right,-1,0.75,0.2429,10,-0.104588487,0.196,,,,,,178,0,178,0,1,,,,,
,,335097,001,2023-07-31_12h46.34.358,arm3_eps,2022.2.5,Win32,58.29204314,6148fd675993224dc86016d3,64c7fed44a04f777bb1e18ce,64c8010393ec381e169baf61,right,-1,0.75,0.2429,10,-0.127000435,0.1985,,,,,,179,0,179,0,1,,,,,
,,335097,001,2023-07-31_12h46.34.358,arm3_eps,2022.2.5,Win32,58.29204314,6148fd675993224dc86016d3,64c7fed44a04f777bb1e18ce,64c8010393ec381e169baf61,right,-1,0.75,0.2429,10,-0.113733551,0.2218,,,,,,180,0,180,0,1,,,,,
,,335097,001,2023-07-31_12h46.34.358,arm3_eps,2022.2.5,Win32,58.29204314,6148fd675993224dc86016d3,64c7fed44a04f777bb1e18ce,64c8010393ec381e169baf61,right,-1,0.75,0.2429,10,-0.120457341,0.2137,,,,,,181,0,181,0,1,,,,,
,,335097,001,2023-07-31_12h46.34.358,arm3_eps,2022.2.5,Win32,58.29204314,6148fd675993224dc86016d3,64c7fed44a04f777bb1e18ce,64c8010393ec381e169baf61,down,1,0.75,0.2429,11,0,2.1956,,,,,,182,0,182,0,1,,,,,
,,335097,001,2023-07-31_12h46.34.358,arm3_eps,2022.2.5,Win32,58.29204314,6148fd675993224dc86016d3,64c7fed44a04f777bb1e18ce,64c8010393ec381e169baf61,right,1,0.75,0.2429,11,0.014050687,0.683,,,,,,183,0,183,0,1,,,,,
,,335097,001,2023-07-31_12h46.34.358,arm3_eps,2022.2.5,Win32,58.29204314,6148fd675993224dc86016d3,64c7fed44a04f777bb1e18ce,64c8010393ec381e169baf61,right,1,0.75,0.2429,11,0.031375286,0.8047,,,,,,184,0,184,0,1,,,,,
,,335097,001,2023-07-31_12h46.34.358,arm3_eps,2022.2.5,Win32,58.29204314,6148fd675993224dc86016d3,64c7fed44a04f777bb1e18ce,64c8010393ec381e169baf61,right,1,0.75,0.2429,11,0.016617308,0.1851,,,,,,185,0,185,0,1,,,,,
,,335097,001,2023-07-31_12h46.34.358,arm3_eps,2022.2.5,Win32,58.29204314,6148fd675993224dc86016d3,64c7fed44a04f777bb1e18ce,64c8010393ec381e169baf61,right,1,0.75,0.2429,11,0.022051948,0.2003,,,,,,186,0,186,0,1,,,,,
,,335097,001,2023-07-31_12h46.34.358,arm3_eps,2022.2.5,Win32,58.29204314,6148fd675993224dc86016d3,64c7fed44a04f777bb1e18ce,64c8010393ec381e169baf61,right,1,0.75,0.2429,11,0.037442906,0.1793,,,,,,187,0,187,0,1,,,,,
,,335097,001,2023-07-31_12h46.34.358,arm3_eps,2022.2.5,Win32,58.29204314,6148fd675993224dc86016d3,64c7fed44a04f777bb1e18ce,64c8010393ec381e169baf61,right,1,0.75,0.2429,11,0.034410669,0.1956,,,,,,188,0,188,0,1,,,,,
,,335097,001,2023-07-31_12h46.34.358,arm3_eps,2022.2.5,Win32,58.29204314,6148fd675993224dc86016d3,64c7fed44a04f777bb1e18ce,64c8010393ec381e169baf61,right,1,0.75,0.2429,11,0.020699706,0.2121,,,,,,189,0,189,0,1,,,,,
,,335097,001,2023-07-31_12h46.34.358,arm3_eps,2022.2.5,Win32,58.29204314,6148fd675993224dc86016d3,64c7fed44a04f777bb1e18ce,64c8010393ec381e169baf61,right,1,0.75,0.2429,11,0.069557641,0.1843,,,,,,190,0,190,0,1,,,,,
,,335097,001,2023-07-31_12h46.34.358,arm3_eps,2022.2.5,Win32,58.29204314,6148fd675993224dc86016d3,64c7fed44a04f777bb1e18ce,64c8010393ec381e169baf61,right,1,0.75,0.2429,11,0.077393812,0.217,,,,,,191,0,191,0,1,,,,,
,,335097,001,2023-07-31_12h46.34.358,arm3_eps,2022.2.5,Win32,58.29204314,6148fd675993224dc86016d3,64c7fed44a04f777bb1e18ce,64c8010393ec381e169baf61,right,1,0.75,0.2429,11,0.121887966,0.217,,,,,,192,0,192,0,1,,,,,
,,335097,001,2023-07-31_12h46.34.358,arm3_eps,2022.2.5,Win32,58.29204314,6148fd675993224dc86016d3,64c7fed44a04f777bb1e18ce,64c8010393ec381e169baf61,down,1,0.75,0.2429,10,0,0.6133,,,,,,193,0,193,0,1,,,,,
,,335097,001,2023-07-31_12h46.34.358,arm3_eps,2022.2.5,Win32,58.29204314,6148fd675993224dc86016d3,64c7fed44a04f777bb1e18ce,64c8010393ec381e169baf61,right,1,0.75,0.2429,10,0.033524848,0.9754,,,,,,194,0,194,0,1,,,,,
,,335097,001,2023-07-31_12h46.34.358,arm3_eps,2022.2.5,Win32,58.29204314,6148fd675993224dc86016d3,64c7fed44a04f777bb1e18ce,64c8010393ec381e169baf61,right,1,0.75,0.2429,10,0.050785271,0.1449,,,,,,195,0,195,0,1,,,,,
,,335097,001,2023-07-31_12h46.34.358,arm3_eps,2022.2.5,Win32,58.29204314,6148fd675993224dc86016d3,64c7fed44a04f777bb1e18ce,64c8010393ec381e169baf61,right,1,0.75,0.2429,10,0.045001539,0.1841,,,,,,196,0,196,0,1,,,,,
,,335097,001,2023-07-31_12h46.34.358,arm3_eps,2022.2.5,Win32,58.29204314,6148fd675993224dc86016d3,64c7fed44a04f777bb1e18ce,64c8010393ec381e169baf61,right,1,0.75,0.2429,10,0.053874275,0.1767,,,,,,197,0,197,0,1,,,,,
,,335097,001,2023-07-31_12h46.34.358,arm3_eps,2022.2.5,Win32,58.29204314,6148fd675993224dc86016d3,64c7fed44a04f777bb1e18ce,64c8010393ec381e169baf61,right,1,0.75,0.2429,10,0.068168676,0.1657,,,,,,198,0,198,0,1,,,,,
,,335097,001,2023-07-31_12h46.34.358,arm3_eps,2022.2.5,Win32,58.29204314,6148fd675993224dc86016d3,64c7fed44a04f777bb1e18ce,64c8010393ec381e169baf61,right,1,0.75,0.2429,10,0.084887259,0.1633,,,,,,199,0,199,0,1,,,,,
,,335097,001,2023-07-31_12h46.34.358,arm3_eps,2022.2.5,Win32,58.29204314,6148fd675993224dc86016d3,64c7fed44a04f777bb1e18ce,64c8010393ec381e169baf61,right,1,0.75,0.2429,10,0.109199871,0.188,,,,,,200,0,200,0,1,,,,,
,,335097,001,2023-07-31_12h46.34.358,arm3_eps,2022.2.5,Win32,58.29204314,6148fd675993224dc86016d3,64c7fed44a04f777bb1e18ce,64c8010393ec381e169baf61,right,1,0.75,0.2429,10,0.127400064,0.1876,,,,,,201,0,201,0,1,,,,,
,,335097,001,2023-07-31_12h46.34.358,arm3_eps,2022.2.5,Win32,58.29204314,6148fd675993224dc86016d3,64c7fed44a04f777bb1e18ce,64c8010393ec381e169baf61,up,1,0.75,0.2429,10,0,0.3175,,,,,,202,0,202,0,1,,,,,
,,335097,001,2023-07-31_12h46.34.358,arm3_eps,2022.2.5,Win32,58.29204314,6148fd675993224dc86016d3,64c7fed44a04f777bb1e18ce,64c8010393ec381e169baf61,right,1,0.75,0.2429,10,0.023926232,0.6448,,,,,,203,0,203,0,1,,,,,
,,335097,001,2023-07-31_12h46.34.358,arm3_eps,2022.2.5,Win32,58.29204314,6148fd675993224dc86016d3,64c7fed44a04f777bb1e18ce,64c8010393ec381e169baf61,right,1,0.75,0.2429,10,0.049217621,0.1804,,,,,,204,0,204,0,1,,,,,
,,335097,001,2023-07-31_12h46.34.358,arm3_eps,2022.2.5,Win32,58.29204314,6148fd675993224dc86016d3,64c7fed44a04f777bb1e18ce,64c8010393ec381e169baf61,right,1,0.75,0.2429,10,0.050315014,0.1879,,,,,,205,0,205,0,1,,,,,
,,335097,001,2023-07-31_12h46.34.358,arm3_eps,2022.2.5,Win32,58.29204314,6148fd675993224dc86016d3,64c7fed44a04f777bb1e18ce,64c8010393ec381e169baf61,right,1,0.75,0.2429,10,0.093122759,0.2417,,,,,,206,0,206,0,1,,,,,
,,335097,001,2023-07-31_12h46.34.358,arm3_eps,2022.2.5,Win32,58.29204314,6148fd675993224dc86016d3,64c7fed44a04f777bb1e18ce,64c8010393ec381e169baf61,right,1,0.75,0.2429,10,0.093726197,0.1678,,,,,,207,0,207,0,1,,,,,
,,335097,001,2023-07-31_12h46.34.358,arm3_eps,2022.2.5,Win32,58.29204314,6148fd675993224dc86016d3,64c7fed44a04f777bb1e18ce,64c8010393ec381e169baf61,right,1,0.75,0.2429,10,0.145293105,0.2002,,,,,,208,0,208,0,1,,,,,
,,335097,001,2023-07-31_12h46.34.358,arm3_eps,2022.2.5,Win32,58.29204314,6148fd675993224dc86016d3,64c7fed44a04f777bb1e18ce,64c8010393ec381e169baf61,right,1,0.75,0.2429,10,0.173839455,0.1986,,,,,,209,0,209,0,1,,,,,
,,335097,001,2023-07-31_12h46.34.358,arm3_eps,2022.2.5,Win32,58.29204314,6148fd675993224dc86016d3,64c7fed44a04f777bb1e18ce,64c8010393ec381e169baf61,right,1,0.75,0.2429,10,0.176538079,0.2311,,,,,,210,0,210,0,1,,,,,
,,335097,001,2023-07-31_12h46.34.358,arm3_eps,2022.2.5,Win32,58.29204314,6148fd675993224dc86016d3,64c7fed44a04f777bb1e18ce,64c8010393ec381e169baf61,right,1,0.75,0.2429,10,0.182219651,0.1976,,,,,,211,0,211,0,1,,,,,
,,335097,001,2023-07-31_12h46.34.358,arm3_eps,2022.2.5,Win32,58.29204314,6148fd675993224dc86016d3,64c7fed44a04f777bb1e18ce,64c8010393ec381e169baf61,right,1,0.75,0.2429,10,0.189758941,0.2069,,,,,,212,0,212,0,1,,,,,
,,335097,001,2023-07-31_12h46.34.358,arm3_eps,2022.2.5,Win32,58.29204314,6148fd675993224dc86016d3,64c7fed44a04f777bb1e18ce,64c8010393ec381e169baf61,right,1,0.75,0.2429,10,0.204955493,0.2133,,,,,,213,0,213,0,1,,,,,
,,335097,001,2023-07-31_12h46.34.358,arm3_eps,2022.2.5,Win32,58.29204314,6148fd675993224dc86016d3,64c7fed44a04f777bb1e18ce,64c8010393ec381e169baf61,right,1,0.75,0.2429,10,0.236233604,0.1949,,,,,,214,0,214,0,1,,,,,
,,335097,001,2023-07-31_12h46.34.358,arm3_eps,2022.2.5,Win32,58.29204314,6148fd675993224dc86016d3,64c7fed44a04f777bb1e18ce,64c8010393ec381e169baf61,up,1,0.75,0.2429,11,0,0.8017,,,,,,215,0,215,0,1,,,,,
,,335097,001,2023-07-31_12h46.34.358,arm3_eps,2022.2.5,Win32,58.29204314,6148fd675993224dc86016d3,64c7fed44a04f777bb1e18ce,64c8010393ec381e169baf61,right,1,0.75,0.2429,11,0.010984405,0.3895,,,,,,216,0,216,0,1,,,,,
,,335097,001,2023-07-31_12h46.34.358,arm3_eps,2022.2.5,Win32,58.29204314,6148fd675993224dc86016d3,64c7fed44a04f777bb1e18ce,64c8010393ec381e169baf61,right,1,0.75,0.2429,11,0.0039485,0.1419,,,,,,217,0,217,0,1,,,,,
,,335097,001,2023-07-31_12h46.34.358,arm3_eps,2022.2.5,Win32,58.29204314,6148fd675993224dc86016d3,64c7fed44a04f777bb1e18ce,64c8010393ec381e169baf61,right,1,0.75,0.2429,11,0.022366222,0.1635,,,,,,218,0,218,0,1,,,,,
,,335097,001,2023-07-31_12h46.34.358,arm3_eps,2022.2.5,Win32,58.29204314,6148fd675993224dc86016d3,64c7fed44a04f777bb1e18ce,64c8010393ec381e169baf61,right,1,0.75,0.2429,11,0.052905193,0.2043,,,,,,219,0,219,0,1,,,,,
,,335097,001,2023-07-31_12h46.34.358,arm3_eps,2022.2.5,Win32,58.29204314,6148fd675993224dc86016d3,64c7fed44a04f777bb1e18ce,64c8010393ec381e169baf61,right,1,0.75,0.2429,11,0.041809867,0.2137,,,,,,220,0,220,0,1,,,,,
,,335097,001,2023-07-31_12h46.34.358,arm3_eps,2022.2.5,Win32,58.29204314,6148fd675993224dc86016d3,64c7fed44a04f777bb1e18ce,64c8010393ec381e169baf61,right,1,0.75,0.2429,11,0.050512731,0.201,,,,,,221,0,221,0,1,,,,,
,,335097,001,2023-07-31_12h46.34.358,arm3_eps,2022.2.5,Win32,58.29204314,6148fd675993224dc86016d3,64c7fed44a04f777bb1e18ce,64c8010393ec381e169baf61,right,1,0.75,0.2429,11,0.034532662,0.2135,,,,,,222,0,222,0,1,,,,,
,,335097,001,2023-07-31_12h46.34.358,arm3_eps,2022.2.5,Win32,58.29204314,6148fd675993224dc86016d3,64c7fed44a04f777bb1e18ce,64c8010393ec381e169baf61,right,1,0.75,0.2429,11,0.049041918,0.1805,,,,,,223,0,223,0,1,,,,,
,,335097,001,2023-07-31_12h46.34.358,arm3_eps,2022.2.5,Win32,58.29204314,6148fd675993224dc86016d3,64c7fed44a04f777bb1e18ce,64c8010393ec381e169baf61,right,1,0.75,0.2429,11,0.085533078,0.1976,,,,,,224,0,224,0,1,,,,,
,,335097,001,2023-07-31_12h46.34.358,arm3_eps,2022.2.5,Win32,58.29204314,6148fd675993224dc86016d3,64c7fed44a04f777bb1e18ce,64c8010393ec381e169baf61,right,1,0.75,0.2429,11,0.070102505,0.2302,,,,,,225,0,225,0,1,,,,,
,,335097,001,2023-07-31_12h46.34.358,arm3_eps,2022.2.5,Win32,58.29204314,6148fd675993224dc86016d3,64c7fed44a04f777bb1e18ce,64c8010393ec381e169baf61,right,1,0.75,0.2429,11,0.077706811,0.1963,,,,,,226,0,226,0,1,,,,,
,,335097,001,2023-07-31_12h46.34.358,arm3_eps,2022.2.5,Win32,58.29204314,6148fd675993224dc86016d3,64c7fed44a04f777bb1e18ce,64c8010393ec381e169baf61,right,1,0.75,0.2429,11,0.074875693,0.2188,,,,,,227,0,227,0,1,,,,,
,,335097,001,2023-07-31_12h46.34.358,arm3_eps,2022.2.5,Win32,58.29204314,6148fd675993224dc86016d3,64c7fed44a04f777bb1e18ce,64c8010393ec381e169baf61,up,-1,0.75,0.2429,12,0,0.6654,,,,,,228,0,228,0,1,,,,,
,,335097,001,2023-07-31_12h46.34.358,arm3_eps,2022.2.5,Win32,58.29204314,6148fd675993224dc86016d3,64c7fed44a04f777bb1e18ce,64c8010393ec381e169baf61,right,-1,0.75,0.2429,12,-0.029169873,0.501,,,,,,229,0,229,0,1,,,,,
,,335097,001,2023-07-31_12h46.34.358,arm3_eps,2022.2.5,Win32,58.29204314,6148fd675993224dc86016d3,64c7fed44a04f777bb1e18ce,64c8010393ec381e169baf61,right,-1,0.75,0.2429,12,-0.046734062,0.186,,,,,,230,0,230,0,1,,,,,
,,335097,001,2023-07-31_12h46.34.358,arm3_eps,2022.2.5,Win32,58.29204314,6148fd675993224dc86016d3,64c7fed44a04f777bb1e18ce,64c8010393ec381e169baf61,right,-1,0.75,0.2429,12,-0.089182576,0.1849,,,,,,231,0,231,0,1,,,,,
,,335097,001,2023-07-31_12h46.34.358,arm3_eps,2022.2.5,Win32,58.29204314,6148fd675993224dc86016d3,64c7fed44a04f777bb1e18ce,64c8010393ec381e169baf61,right,-1,0.75,0.2429,12,-0.110977636,0.2409,,,,,,232,0,232,0,1,,,,,
,,335097,001,2023-07-31_12h46.34.358,arm3_eps,2022.2.5,Win32,58.29204314,6148fd675993224dc86016d3,64c7fed44a04f777bb1e18ce,64c8010393ec381e169baf61,right,-1,0.75,0.2429,12,-0.105324141,0.2336,,,,,,233,0,233,0,1,,,,,
,,335097,001,2023-07-31_12h46.34.358,arm3_eps,2022.2.5,Win32,58.29204314,6148fd675993224dc86016d3,64c7fed44a04f777bb1e18ce,64c8010393ec381e169baf61,right,-1,0.75,0.2429,12,-0.10668457,0.1902,,,,,,234,0,234,0,1,,,,,
,,335097,001,2023-07-31_12h46.34.358,arm3_eps,2022.2.5,Win32,58.29204314,6148fd675993224dc86016d3,64c7fed44a04f777bb1e18ce,64c8010393ec381e169baf61,down,-1,0.75,0.2429,13,0,0.4628,,,,,,235,0,235,0,1,,,,,
,,335097,001,2023-07-31_12h46.34.358,arm3_eps,2022.2.5,Win32,58.29204314,6148fd675993224dc86016d3,64c7fed44a04f777bb1e18ce,64c8010393ec381e169baf61,right,-1,0.75,0.2429,13,-0.010581107,0.4604,,,,,,236,0,236,0,1,,,,,
,,335097,001,2023-07-31_12h46.34.358,arm3_eps,2022.2.5,Win32,58.29204314,6148fd675993224dc86016d3,64c7fed44a04f777bb1e18ce,64c8010393ec381e169baf61,right,-1,0.75,0.2429,13,-0.023134246,0.1607,,,,,,237,0,237,0,1,,,,,
,,335097,001,2023-07-31_12h46.34.358,arm3_eps,2022.2.5,Win32,58.29204314,6148fd675993224dc86016d3,64c7fed44a04f777bb1e18ce,64c8010393ec381e169baf61,right,-1,0.75,0.2429,13,-0.024944992,0.1879,,,,,,238,0,238,0,1,,,,,
,,335097,001,2023-07-31_12h46.34.358,arm3_eps,2022.2.5,Win32,58.29204314,6148fd675993224dc86016d3,64c7fed44a04f777bb1e18ce,64c8010393ec381e169baf61,right,-1,0.75,0.2429,13,-0.046810492,0.1971,,,,,,239,0,239,0,1,,,,,
,,335097,001,2023-07-31_12h46.34.358,arm3_eps,2022.2.5,Win32,58.29204314,6148fd675993224dc86016d3,64c7fed44a04f777bb1e18ce,64c8010393ec381e169baf61,right,-1,0.75,0.2429,13,-0.03812856,0.1844,,,,,,240,0,240,0,1,,,,,
,,335097,001,2023-07-31_12h46.34.358,arm3_eps,2022.2.5,Win32,58.29204314,6148fd675993224dc86016d3,64c7fed44a04f777bb1e18ce,64c8010393ec381e169baf61,right,-1,0.75,0.2429,13,-0.053881912,0.2014,,,,,,241,0,241,0,1,,,,,
,,335097,001,2023-07-31_12h46.34.358,arm3_eps,2022.2.5,Win32,58.29204314,6148fd675993224dc86016d3,64c7fed44a04f777bb1e18ce,64c8010393ec381e169baf61,right,-1,0.75,0.2429,13,-0.034787448,0.1968,,,,,,242,0,242,0,1,,,,,
,,335097,001,2023-07-31_12h46.34.358,arm3_eps,2022.2.5,Win32,58.29204314,6148fd675993224dc86016d3,64c7fed44a04f777bb1e18ce,64c8010393ec381e169baf61,right,-1,0.75,0.2429,13,-0.025084295,0.5003,,,,,,243,0,243,0,1,,,,,
,,335097,001,2023-07-31_12h46.34.358,arm3_eps,2022.2.5,Win32,58.29204314,6148fd675993224dc86016d3,64c7fed44a04f777bb1e18ce,64c8010393ec381e169baf61,right,-1,0.75,0.2429,13,-0.036843262,0.2075,,,,,,244,0,244,0,1,,,,,
,,335097,001,2023-07-31_12h46.34.358,arm3_eps,2022.2.5,Win32,58.29204314,6148fd675993224dc86016d3,64c7fed44a04f777bb1e18ce,64c8010393ec381e169baf61,right,-1,0.75,0.2429,13,-0.014401155,0.2407,,,,,,245,0,245,0,1,,,,,
,,335097,001,2023-07-31_12h46.34.358,arm3_eps,2022.2.5,Win32,58.29204314,6148fd675993224dc86016d3,64c7fed44a04f777bb1e18ce,64c8010393ec381e169baf61,right,-1,0.75,0.2429,13,-0.021336522,0.246,,,,,,246,0,246,0,1,,,,,
,,335097,001,2023-07-31_12h46.34.358,arm3_eps,2022.2.5,Win32,58.29204314,6148fd675993224dc86016d3,64c7fed44a04f777bb1e18ce,64c8010393ec381e169baf61,right,-1,0.75,0.2429,13,-0.022880565,0.2294,,,,,,247,0,247,0,1,,,,,
,,335097,001,2023-07-31_12h46.34.358,arm3_eps,2022.2.5,Win32,58.29204314,6148fd675993224dc86016d3,64c7fed44a04f777bb1e18ce,64c8010393ec381e169baf61,down,1,0.75,0.2429,14,0,2.0298,,,,,,248,0,248,0,1,,,,,
,,335097,001,2023-07-31_12h46.34.358,arm3_eps,2022.2.5,Win32,58.29204314,6148fd675993224dc86016d3,64c7fed44a04f777bb1e18ce,64c8010393ec381e169baf61,right,1,0.75,0.2429,14,-0.009241695,0.8784,,,,,,249,0,249,0,1,,,,,
,,335097,001,2023-07-31_12h46.34.358,arm3_eps,2022.2.5,Win32,58.29204314,6148fd675993224dc86016d3,64c7fed44a04f777bb1e18ce,64c8010393ec381e169baf61,right,1,0.75,0.2429,14,0.015766999,0.1968,,,,,,250,0,250,0,1,,,,,
,,335097,001,2023-07-31_12h46.34.358,arm3_eps,2022.2.5,Win32,58.29204314,6148fd675993224dc86016d3,64c7fed44a04f777bb1e18ce,64c8010393ec381e169baf61,right,1,0.75,0.2429,14,0.013910605,0.1798,,,,,,251,0,251,0,1,,,,,
,,335097,001,2023-07-31_12h46.34.358,arm3_eps,2022.2.5,Win32,58.29204314,6148fd675993224dc86016d3,64c7fed44a04f777bb1e18ce,64c8010393ec381e169baf61,right,1,0.75,0.2429,14,0.042794918,0.1797,,,,,,252,0,252,0,1,,,,,
,,335097,001,2023-07-31_12h46.34.358,arm3_eps,2022.2.5,Win32,58.29204314,6148fd675993224dc86016d3,64c7fed44a04f777bb1e18ce,64c8010393ec381e169baf61,right,1,0.75,0.2429,14,0.057595628,0.2136,,,,,,253,0,253,0,1,,,,,
,,335097,001,2023-07-31_12h46.34.358,arm3_eps,2022.2.5,Win32,58.29204314,6148fd675993224dc86016d3,64c7fed44a04f777bb1e18ce,64c8010393ec381e169baf61,right,1,0.75,0.2429,14,0.044177566,0.1997,,,,,,254,0,254,0,1,,,,,
,,335097,001,2023-07-31_12h46.34.358,arm3_eps,2022.2.5,Win32,58.29204314,6148fd675993224dc86016d3,64c7fed44a04f777bb1e18ce,64c8010393ec381e169baf61,right,1,0.75,0.2429,14,0.060319158,0.191,,,,,,255,0,255,0,1,,,,,
,,335097,001,2023-07-31_12h46.34.358,arm3_eps,2022.2.5,Win32,58.29204314,6148fd675993224dc86016d3,64c7fed44a04f777bb1e18ce,64c8010393ec381e169baf61,right,1,0.75,0.2429,14,0.088969435,0.2121,,,,,,256,0,256,0,1,,,,,
,,335097,001,2023-07-31_12h46.34.358,arm3_eps,2022.2.5,Win32,58.29204314,6148fd675993224dc86016d3,64c7fed44a04f777bb1e18ce,64c8010393ec381e169baf61,right,1,0.75,0.2429,14,0.127688793,0.1798,,,,,,257,0,257,0,1,,,,,
