space_bar.keys,space_bar.rt,participant,session,date,expName,psychopyVersion,OS,frameRate,PROLIFIC_PID,STUDY_ID,SESSION_ID,resp.keys,state,q_prob,eps_prob,score,price,resp.rt,train.thisRepN,train.thisTrialN,train.thisN,train.thisIndex,train.ran,steps.thisRepN,steps.thisTrialN,steps.thisN,steps.thisIndex,steps.ran,blocks.thisRepN,blocks.thisTrialN,blocks.thisN,blocks.thisIndex,blocks.ran
space,87.2029,338593,001,2023-07-31_12h47.09.803,arm3_eps,2022.2.5,Win32,59.9880024,614cb3ef28d3b76e2ac82cce,64c7fed44a04f777bb1e18ce,64c8016bb1bf89adf14c1089,,,,,,,,,,,,,,,,,,,,,,
space,42.4726,338593,001,2023-07-31_12h47.09.803,arm3_eps,2022.2.5,Win32,59.9880024,614cb3ef28d3b76e2ac82cce,64c7fed44a04f777bb1e18ce,64c8016bb1bf89adf14c1089,,,,,,,,,,,,,,,,,,,,,,
space,27.8788,338593,001,2023-07-31_12h47.09.803,arm3_eps,2022.2.5,Win32,59.9880024,614cb3ef28d3b76e2ac82cce,64c7fed44a04f777bb1e18ce,64c8016bb1bf89adf14c1089,,,,,,,,,,,,,,,,,,,,,,
space,20.7346,338593,001,2023-07-31_12h47.09.803,arm3_eps,2022.2.5,Win32,59.9880024,614cb3ef28d3b76e2ac82cce,64c7fed44a04f777bb1e18ce,64c8016bb1bf89adf14c1089,,,,,,,,,,,,,,,,,,,,,,
space,15.5427,338593,001,2023-07-31_12h47.09.803,arm3_eps,2022.2.5,Win32,59.9880024,614cb3ef28d3b76e2ac82cce,64c7fed44a04f777bb1e18ce,64c8016bb1bf89adf14c1089,,,,,,,,,,,,,,,,,,,,,,
space,9.9915,338593,001,2023-07-31_12h47.09.803,arm3_eps,2022.2.5,Win32,59.9880024,614cb3ef28d3b76e2ac82cce,64c7fed44a04f777bb1e18ce,64c8016bb1bf89adf14c1089,,,,,,,,,,,,,,,,,,,,,,
space,2.5896,338593,001,2023-07-31_12h47.09.803,arm3_eps,2022.2.5,Win32,59.9880024,614cb3ef28d3b76e2ac82cce,64c7fed44a04f777bb1e18ce,64c8016bb1bf89adf14c1089,,,,,,,,,,,,,,,,,,,,,,
,,338593,001,2023-07-31_12h47.09.803,arm3_eps,2022.2.5,Win32,59.9880024,614cb3ef28d3b76e2ac82cce,64c7fed44a04f777bb1e18ce,64c8016bb1bf89adf14c1089,up,1,1,0.2429,1,0,2.9335,0,0,0,0,1,,,,,,,,,,
,,338593,001,2023-07-31_12h47.09.803,arm3_eps,2022.2.5,Win32,59.9880024,614cb3ef28d3b76e2ac82cce,64c7fed44a04f777bb1e18ce,64c8016bb1bf89adf14c1089,up,1,1,0.2429,2,0,9.5771,1,0,1,0,1,,,,,,,,,,
,,338593,001,2023-07-31_12h47.09.803,arm3_eps,2022.2.5,Win32,59.9880024,614cb3ef28d3b76e2ac82cce,64c7fed44a04f777bb1e18ce,64c8016bb1bf89adf14c1089,down,-1,1,0.2429,1,0,1.7559,2,0,2,0,1,,,,,,,,,,
,,338593,001,2023-07-31_12h47.09.803,arm3_eps,2022.2.5,Win32,59.9880024,614cb3ef28d3b76e2ac82cce,64c7fed44a04f777bb1e18ce,64c8016bb1bf89adf14c1089,down,-1,1,0.2429,2,0,12.5853,3,0,3,0,1,,,,,,,,,,
,,338593,001,2023-07-31_12h47.09.803,arm3_eps,2022.2.5,Win32,59.9880024,614cb3ef28d3b76e2ac82cce,64c7fed44a04f777bb1e18ce,64c8016bb1bf89adf14c1089,up,1,1,0.2429,1,0,12.2341,4,0,4,0,1,,,,,,,,,,
,,338593,001,2023-07-31_12h47.09.803,arm3_eps,2022.2.5,Win32,59.9880024,614cb3ef28d3b76e2ac82cce,64c7fed44a04f777bb1e18ce,64c8016bb1bf89adf14c1089,up,-1,1,0.2429,2,0,1.3768,5,0,5,0,1,,,,,,,,,,
,,338593,001,2023-07-31_12h47.09.803,arm3_eps,2022.2.5,Win32,59.9880024,614cb3ef28d3b76e2ac82cce,64c7fed44a04f777bb1e18ce,64c8016bb1bf89adf14c1089,up,-1,1,0.2429,1,0,1.4726,6,0,6,0,1,,,,,,,,,,
,,338593,001,2023-07-31_12h47.09.803,arm3_eps,2022.2.5,Win32,59.9880024,614cb3ef28d3b76e2ac82cce,64c7fed44a04f777bb1e18ce,64c8016bb1bf89adf14c1089,down,-1,1,0.2429,2,0,1.5848,7,0,7,0,1,,,,,,,,,,
,,338593,001,2023-07-31_12h47.09.803,arm3_eps,2022.2.5,Win32,59.9880024,614cb3ef28d3b76e2ac82cce,64c7fed44a04f777bb1e18ce,64c8016bb1bf89adf14c1089,down,1,1,0.2429,3,0,1.3469,8,0,8,0,1,,,,,,,,,,
,,338593,001,2023-07-31_12h47.09.803,arm3_eps,2022.2.5,Win32,59.9880024,614cb3ef28d3b76e2ac82cce,64c7fed44a04f777bb1e18ce,64c8016bb1bf89adf14c1089,up,1,1,0.2429,4,0,1.1641,9,0,9,0,1,,,,,,,,,,
,,338593,001,2023-07-31_12h47.09.803,arm3_eps,2022.2.5,Win32,59.9880024,614cb3ef28d3b76e2ac82cce,64c7fed44a04f777bb1e18ce,64c8016bb1bf89adf14c1089,down,1,1,0.2429,3,0,1.0684,10,0,10,0,1,,,,,,,,,,
,,338593,001,2023-07-31_12h47.09.803,arm3_eps,2022.2.5,Win32,59.9880024,614cb3ef28d3b76e2ac82cce,64c7fed44a04f777bb1e18ce,64c8016bb1bf89adf14c1089,up,1,1,0.2429,4,0,0.9019,11,0,11,0,1,,,,,,,,,,
,,338593,001,2023-07-31_12h47.09.803,arm3_eps,2022.2.5,Win32,59.9880024,614cb3ef28d3b76e2ac82cce,64c7fed44a04f777bb1e18ce,64c8016bb1bf89adf14c1089,up,-1,1,0.2429,5,0,1.5841,12,0,12,0,1,,,,,,,,,,
,,338593,001,2023-07-31_12h47.09.803,arm3_eps,2022.2.5,Win32,59.9880024,614cb3ef28d3b76e2ac82cce,64c7fed44a04f777bb1e18ce,64c8016bb1bf89adf14c1089,up,1,1,0.2429,4,0,3.6745,13,0,13,0,1,,,,,,,,,,
,,338593,001,2023-07-31_12h47.09.803,arm3_eps,2022.2.5,Win32,59.9880024,614cb3ef28d3b76e2ac82cce,64c7fed44a04f777bb1e18ce,64c8016bb1bf89adf14c1089,up,-1,1,0.2429,5,0,1.1963,14,0,14,0,1,,,,,,,,,,
,,338593,001,2023-07-31_12h47.09.803,arm3_eps,2022.2.5,Win32,59.9880024,614cb3ef28d3b76e2ac82cce,64c7fed44a04f777bb1e18ce,64c8016bb1bf89adf14c1089,up,1,1,0.2429,4,0,1.1178,15,0,15,0,1,,,,,,,,,,
,,338593,001,2023-07-31_12h47.09.803,arm3_eps,2022.2.5,Win32,59.9880024,614cb3ef28d3b76e2ac82cce,64c7fed44a04f777bb1e18ce,64c8016bb1bf89adf14c1089,down,1,1,0.2429,3,0,1.2323,16,0,16,0,1,,,,,,,,,,
,,338593,001,2023-07-31_12h47.09.803,arm3_eps,2022.2.5,Win32,59.9880024,614cb3ef28d3b76e2ac82cce,64c7fed44a04f777bb1e18ce,64c8016bb1bf89adf14c1089,up,-1,1,0.2429,4,0,0.9373,17,0,17,0,1,,,,,,,,,,
,,338593,001,2023-07-31_12h47.09.803,arm3_eps,2022.2.5,Win32,59.9880024,614cb3ef28d3b76e2ac82cce,64c7fed44a04f777bb1e18ce,64c8016bb1bf89adf14c1089,up,-1,1,0.2429,3,0,1.4679,18,0,18,0,1,,,,,,,,,,
,,338593,001,2023-07-31_12h47.09.803,arm3_eps,2022.2.5,Win32,59.9880024,614cb3ef28d3b76e2ac82cce,64c7fed44a04f777bb1e18ce,64c8016bb1bf89adf14c1089,right,-1,1,0.2429,3,-0.000445645,1.7053,19,0,19,0,1,,,,,,,,,,
,,338593,001,2023-07-31_12h47.09.803,arm3_eps,2022.2.5,Win32,59.9880024,614cb3ef28d3b76e2ac82cce,64c7fed44a04f777bb1e18ce,64c8016bb1bf89adf14c1089,right,-1,1,0.2429,3,-0.024519818,1.5668,20,0,20,0,1,,,,,,,,,,
,,338593,001,2023-07-31_12h47.09.803,arm3_eps,2022.2.5,Win32,59.9880024,614cb3ef28d3b76e2ac82cce,64c7fed44a04f777bb1e18ce,64c8016bb1bf89adf14c1089,right,-1,1,0.2429,3,-0.020850927,0.5506,21,0,21,0,1,,,,,,,,,,
,,338593,001,2023-07-31_12h47.09.803,arm3_eps,2022.2.5,Win32,59.9880024,614cb3ef28d3b76e2ac82cce,64c7fed44a04f777bb1e18ce,64c8016bb1bf89adf14c1089,up,-1,1,0.2429,2,0,1.6287,22,0,22,0,1,,,,,,,,,,
,,338593,001,2023-07-31_12h47.09.803,arm3_eps,2022.2.5,Win32,59.9880024,614cb3ef28d3b76e2ac82cce,64c7fed44a04f777bb1e18ce,64c8016bb1bf89adf14c1089,right,-1,1,0.2429,2,-0.024814167,1.1031,23,0,23,0,1,,,,,,,,,,
,,338593,001,2023-07-31_12h47.09.803,arm3_eps,2022.2.5,Win32,59.9880024,614cb3ef28d3b76e2ac82cce,64c7fed44a04f777bb1e18ce,64c8016bb1bf89adf14c1089,down,-1,1,0.2429,3,0,1.3839,24,0,24,0,1,,,,,,,,,,
,,338593,001,2023-07-31_12h47.09.803,arm3_eps,2022.2.5,Win32,59.9880024,614cb3ef28d3b76e2ac82cce,64c7fed44a04f777bb1e18ce,64c8016bb1bf89adf14c1089,right,-1,1,0.2429,3,0.000906548,0.9723,25,0,25,0,1,,,,,,,,,,
,,338593,001,2023-07-31_12h47.09.803,arm3_eps,2022.2.5,Win32,59.9880024,614cb3ef28d3b76e2ac82cce,64c7fed44a04f777bb1e18ce,64c8016bb1bf89adf14c1089,right,-1,1,0.2429,3,-0.01027,0.4918,26,0,26,0,1,,,,,,,,,,
,,338593,001,2023-07-31_12h47.09.803,arm3_eps,2022.2.5,Win32,59.9880024,614cb3ef28d3b76e2ac82cce,64c7fed44a04f777bb1e18ce,64c8016bb1bf89adf14c1089,right,-1,1,0.2429,3,-0.007100164,0.3756,27,0,27,0,1,,,,,,,,,,
,,338593,001,2023-07-31_12h47.09.803,arm3_eps,2022.2.5,Win32,59.9880024,614cb3ef28d3b76e2ac82cce,64c7fed44a04f777bb1e18ce,64c8016bb1bf89adf14c1089,right,-1,1,0.2429,3,-0.007809731,0.834,28,0,28,0,1,,,,,,,,,,
,,338593,001,2023-07-31_12h47.09.803,arm3_eps,2022.2.5,Win32,59.9880024,614cb3ef28d3b76e2ac82cce,64c7fed44a04f777bb1e18ce,64c8016bb1bf89adf14c1089,right,-1,1,0.2429,3,-0.032459209,0.2529,29,0,29,0,1,,,,,,,,,,
,,338593,001,2023-07-31_12h47.09.803,arm3_eps,2022.2.5,Win32,59.9880024,614cb3ef28d3b76e2ac82cce,64c7fed44a04f777bb1e18ce,64c8016bb1bf89adf14c1089,right,-1,1,0.2429,3,-0.0415011,0.4416,30,0,30,0,1,,,,,,,,,,
,,338593,001,2023-07-31_12h47.09.803,arm3_eps,2022.2.5,Win32,59.9880024,614cb3ef28d3b76e2ac82cce,64c7fed44a04f777bb1e18ce,64c8016bb1bf89adf14c1089,right,-1,1,0.2429,3,-0.029497416,0.2392,31,0,31,0,1,,,,,,,,,,
,,338593,001,2023-07-31_12h47.09.803,arm3_eps,2022.2.5,Win32,59.9880024,614cb3ef28d3b76e2ac82cce,64c7fed44a04f777bb1e18ce,64c8016bb1bf89adf14c1089,right,-1,1,0.2429,3,-0.037143303,0.2364,32,0,32,0,1,,,,,,,,,,
,,338593,001,2023-07-31_12h47.09.803,arm3_eps,2022.2.5,Win32,59.9880024,614cb3ef28d3b76e2ac82cce,64c7fed44a04f777bb1e18ce,64c8016bb1bf89adf14c1089,down,-1,1,0.2429,4,0,1.2336,33,0,33,0,1,,,,,,,,,,
,,338593,001,2023-07-31_12h47.09.803,arm3_eps,2022.2.5,Win32,59.9880024,614cb3ef28d3b76e2ac82cce,64c7fed44a04f777bb1e18ce,64c8016bb1bf89adf14c1089,right,-1,1,0.2429,4,-0.008070206,0.9838,34,0,34,0,1,,,,,,,,,,
,,338593,001,2023-07-31_12h47.09.803,arm3_eps,2022.2.5,Win32,59.9880024,614cb3ef28d3b76e2ac82cce,64c7fed44a04f777bb1e18ce,64c8016bb1bf89adf14c1089,right,-1,1,0.2429,4,-0.027847794,0.2154,35,0,35,0,1,,,,,,,,,,
,,338593,001,2023-07-31_12h47.09.803,arm3_eps,2022.2.5,Win32,59.9880024,614cb3ef28d3b76e2ac82cce,64c7fed44a04f777bb1e18ce,64c8016bb1bf89adf14c1089,right,-1,1,0.2429,4,-0.071265327,0.2155,36,0,36,0,1,,,,,,,,,,
,,338593,001,2023-07-31_12h47.09.803,arm3_eps,2022.2.5,Win32,59.9880024,614cb3ef28d3b76e2ac82cce,64c7fed44a04f777bb1e18ce,64c8016bb1bf89adf14c1089,down,-1,1,0.2429,5,0,0.533,37,0,37,0,1,,,,,,,,,,
,,338593,001,2023-07-31_12h47.09.803,arm3_eps,2022.2.5,Win32,59.9880024,614cb3ef28d3b76e2ac82cce,64c7fed44a04f777bb1e18ce,64c8016bb1bf89adf14c1089,right,-1,1,0.2429,5,-0.022367305,0.8377,38,0,38,0,1,,,,,,,,,,
,,338593,001,2023-07-31_12h47.09.803,arm3_eps,2022.2.5,Win32,59.9880024,614cb3ef28d3b76e2ac82cce,64c7fed44a04f777bb1e18ce,64c8016bb1bf89adf14c1089,right,-1,1,0.2429,5,-0.017816607,0.2003,39,0,39,0,1,,,,,,,,,,
,,338593,001,2023-07-31_12h47.09.803,arm3_eps,2022.2.5,Win32,59.9880024,614cb3ef28d3b76e2ac82cce,64c7fed44a04f777bb1e18ce,64c8016bb1bf89adf14c1089,right,-1,1,0.2429,5,0.006621302,0.1701,40,0,40,0,1,,,,,,,,,,
,,338593,001,2023-07-31_12h47.09.803,arm3_eps,2022.2.5,Win32,59.9880024,614cb3ef28d3b76e2ac82cce,64c7fed44a04f777bb1e18ce,64c8016bb1bf89adf14c1089,right,-1,1,0.2429,5,-0.020766068,0.1683,41,0,41,0,1,,,,,,,,,,
,,338593,001,2023-07-31_12h47.09.803,arm3_eps,2022.2.5,Win32,59.9880024,614cb3ef28d3b76e2ac82cce,64c7fed44a04f777bb1e18ce,64c8016bb1bf89adf14c1089,right,-1,1,0.2429,5,-0.072946085,0.4583,42,0,42,0,1,,,,,,,,,,
,,338593,001,2023-07-31_12h47.09.803,arm3_eps,2022.2.5,Win32,59.9880024,614cb3ef28d3b76e2ac82cce,64c7fed44a04f777bb1e18ce,64c8016bb1bf89adf14c1089,down,-1,1,0.2429,6,0,1.4846,43,0,43,0,1,,,,,,,,,,
,,338593,001,2023-07-31_12h47.09.803,arm3_eps,2022.2.5,Win32,59.9880024,614cb3ef28d3b76e2ac82cce,64c7fed44a04f777bb1e18ce,64c8016bb1bf89adf14c1089,right,-1,1,0.2429,6,-0.021930068,0.8498,44,0,44,0,1,,,,,,,,,,
,,338593,001,2023-07-31_12h47.09.803,arm3_eps,2022.2.5,Win32,59.9880024,614cb3ef28d3b76e2ac82cce,64c7fed44a04f777bb1e18ce,64c8016bb1bf89adf14c1089,right,-1,1,0.2429,6,-0.052551109,0.2816,45,0,45,0,1,,,,,,,,,,
,,338593,001,2023-07-31_12h47.09.803,arm3_eps,2022.2.5,Win32,59.9880024,614cb3ef28d3b76e2ac82cce,64c7fed44a04f777bb1e18ce,64c8016bb1bf89adf14c1089,right,-1,1,0.2429,6,-0.059111013,0.3682,46,0,46,0,1,,,,,,,,,,
,,338593,001,2023-07-31_12h47.09.803,arm3_eps,2022.2.5,Win32,59.9880024,614cb3ef28d3b76e2ac82cce,64c7fed44a04f777bb1e18ce,64c8016bb1bf89adf14c1089,right,-1,1,0.2429,6,-0.088953615,0.243,47,0,47,0,1,,,,,,,,,,
,,338593,001,2023-07-31_12h47.09.803,arm3_eps,2022.2.5,Win32,59.9880024,614cb3ef28d3b76e2ac82cce,64c7fed44a04f777bb1e18ce,64c8016bb1bf89adf14c1089,right,-1,1,0.2429,6,-0.116587614,0.1849,48,0,48,0,1,,,,,,,,,,
,,338593,001,2023-07-31_12h47.09.803,arm3_eps,2022.2.5,Win32,59.9880024,614cb3ef28d3b76e2ac82cce,64c7fed44a04f777bb1e18ce,64c8016bb1bf89adf14c1089,down,-1,1,0.2429,6,-0.116587614,0.3587,49,0,49,0,1,,,,,,,,,,
space,30.2167,338593,001,2023-07-31_12h47.09.803,arm3_eps,2022.2.5,Win32,59.9880024,614cb3ef28d3b76e2ac82cce,64c7fed44a04f777bb1e18ce,64c8016bb1bf89adf14c1089,,,,,,,,,,,,,,,,,,,,,,
space,11.1834,338593,001,2023-07-31_12h47.09.803,arm3_eps,2022.2.5,Win32,59.9880024,614cb3ef28d3b76e2ac82cce,64c7fed44a04f777bb1e18ce,64c8016bb1bf89adf14c1089,,,,,,,,,,,,,,,,,,,,,,
space,5.5004,338593,001,2023-07-31_12h47.09.803,arm3_eps,2022.2.5,Win32,59.9880024,614cb3ef28d3b76e2ac82cce,64c7fed44a04f777bb1e18ce,64c8016bb1bf89adf14c1089,,,,,,,,,,,,,,,,,,,,,,
space,5.6775,338593,001,2023-07-31_12h47.09.803,arm3_eps,2022.2.5,Win32,59.9880024,614cb3ef28d3b76e2ac82cce,64c7fed44a04f777bb1e18ce,64c8016bb1bf89adf14c1089,,,,,,,,,,,,,,,,,,,,,,
space,1.4782,338593,001,2023-07-31_12h47.09.803,arm3_eps,2022.2.5,Win32,59.9880024,614cb3ef28d3b76e2ac82cce,64c7fed44a04f777bb1e18ce,64c8016bb1bf89adf14c1089,,,,,,,,,,,,,,,,,,,,,,
space,1.5502,338593,001,2023-07-31_12h47.09.803,arm3_eps,2022.2.5,Win32,59.9880024,614cb3ef28d3b76e2ac82cce,64c7fed44a04f777bb1e18ce,64c8016bb1bf89adf14c1089,,,,,,,,,,,,,,,,,,,,,,
,,338593,001,2023-07-31_12h47.09.803,arm3_eps,2022.2.5,Win32,59.9880024,614cb3ef28d3b76e2ac82cce,64c7fed44a04f777bb1e18ce,64c8016bb1bf89adf14c1089,down,1,0.75,0.2429,1,0,1.1655,0,0,0,0,1,,,,,,,,,,
,,338593,001,2023-07-31_12h47.09.803,arm3_eps,2022.2.5,Win32,59.9880024,614cb3ef28d3b76e2ac82cce,64c7fed44a04f777bb1e18ce,64c8016bb1bf89adf14c1089,right,1,0.75,0.2429,1,-0.001613523,2.4051,1,0,1,0,1,,,,,,,,,,
,,338593,001,2023-07-31_12h47.09.803,arm3_eps,2022.2.5,Win32,59.9880024,614cb3ef28d3b76e2ac82cce,64c7fed44a04f777bb1e18ce,64c8016bb1bf89adf14c1089,right,1,0.75,0.2429,1,0.007712828,0.3929,2,0,2,0,1,,,,,,,,,,
,,338593,001,2023-07-31_12h47.09.803,arm3_eps,2022.2.5,Win32,59.9880024,614cb3ef28d3b76e2ac82cce,64c7fed44a04f777bb1e18ce,64c8016bb1bf89adf14c1089,up,1,0.75,0.2429,2,0,0.6682,3,0,3,0,1,,,,,,,,,,
,,338593,001,2023-07-31_12h47.09.803,arm3_eps,2022.2.5,Win32,59.9880024,614cb3ef28d3b76e2ac82cce,64c7fed44a04f777bb1e18ce,64c8016bb1bf89adf14c1089,right,1,0.75,0.2429,2,0.022438983,0.9383,4,0,4,0,1,,,,,,,,,,
,,338593,001,2023-07-31_12h47.09.803,arm3_eps,2022.2.5,Win32,59.9880024,614cb3ef28d3b76e2ac82cce,64c7fed44a04f777bb1e18ce,64c8016bb1bf89adf14c1089,right,1,0.75,0.2429,2,0.037915815,0.3679,5,0,5,0,1,,,,,,,,,,
,,338593,001,2023-07-31_12h47.09.803,arm3_eps,2022.2.5,Win32,59.9880024,614cb3ef28d3b76e2ac82cce,64c7fed44a04f777bb1e18ce,64c8016bb1bf89adf14c1089,up,-1,0.75,0.2429,3,0,0.3415,6,0,6,0,1,,,,,,,,,,
,,338593,001,2023-07-31_12h47.09.803,arm3_eps,2022.2.5,Win32,59.9880024,614cb3ef28d3b76e2ac82cce,64c7fed44a04f777bb1e18ce,64c8016bb1bf89adf14c1089,right,-1,0.75,0.2429,3,0.01810496,0.8399,7,0,7,0,1,,,,,,,,,,
,,338593,001,2023-07-31_12h47.09.803,arm3_eps,2022.2.5,Win32,59.9880024,614cb3ef28d3b76e2ac82cce,64c7fed44a04f777bb1e18ce,64c8016bb1bf89adf14c1089,right,-1,0.75,0.2429,3,0.001245944,0.204,8,0,8,0,1,,,,,,,,,,
,,338593,001,2023-07-31_12h47.09.803,arm3_eps,2022.2.5,Win32,59.9880024,614cb3ef28d3b76e2ac82cce,64c7fed44a04f777bb1e18ce,64c8016bb1bf89adf14c1089,down,-1,0.75,0.2429,4,0,0.6518,9,0,9,0,1,,,,,,,,,,
,,338593,001,2023-07-31_12h47.09.803,arm3_eps,2022.2.5,Win32,59.9880024,614cb3ef28d3b76e2ac82cce,64c7fed44a04f777bb1e18ce,64c8016bb1bf89adf14c1089,right,-1,0.75,0.2429,4,-0.016300723,1.071,10,0,10,0,1,,,,,,,,,,
,,338593,001,2023-07-31_12h47.09.803,arm3_eps,2022.2.5,Win32,59.9880024,614cb3ef28d3b76e2ac82cce,64c7fed44a04f777bb1e18ce,64c8016bb1bf89adf14c1089,right,-1,0.75,0.2429,4,-0.0055575,0.2034,11,0,11,0,1,,,,,,,,,,
,,338593,001,2023-07-31_12h47.09.803,arm3_eps,2022.2.5,Win32,59.9880024,614cb3ef28d3b76e2ac82cce,64c7fed44a04f777bb1e18ce,64c8016bb1bf89adf14c1089,up,-1,0.75,0.2429,3,0,0.4424,12,0,12,0,1,,,,,,,,,,
,,338593,001,2023-07-31_12h47.09.803,arm3_eps,2022.2.5,Win32,59.9880024,614cb3ef28d3b76e2ac82cce,64c7fed44a04f777bb1e18ce,64c8016bb1bf89adf14c1089,right,-1,0.75,0.2429,3,-0.010349982,1.0703,13,0,13,0,1,,,,,,,,,,
,,338593,001,2023-07-31_12h47.09.803,arm3_eps,2022.2.5,Win32,59.9880024,614cb3ef28d3b76e2ac82cce,64c7fed44a04f777bb1e18ce,64c8016bb1bf89adf14c1089,down,-1,0.75,0.2429,4,0,0.7013,14,0,14,0,1,,,,,,,,,,
,,338593,001,2023-07-31_12h47.09.803,arm3_eps,2022.2.5,Win32,59.9880024,614cb3ef28d3b76e2ac82cce,64c7fed44a04f777bb1e18ce,64c8016bb1bf89adf14c1089,right,-1,0.75,0.2429,4,-0.010774047,0.9652,15,0,15,0,1,,,,,,,,,,
,,338593,001,2023-07-31_12h47.09.803,arm3_eps,2022.2.5,Win32,59.9880024,614cb3ef28d3b76e2ac82cce,64c7fed44a04f777bb1e18ce,64c8016bb1bf89adf14c1089,down,-1,0.75,0.2429,4,0,0.5845,16,0,16,0,1,,,,,,,,,,
,,338593,001,2023-07-31_12h47.09.803,arm3_eps,2022.2.5,Win32,59.9880024,614cb3ef28d3b76e2ac82cce,64c7fed44a04f777bb1e18ce,64c8016bb1bf89adf14c1089,up,-1,0.75,0.2429,3,0,1.4673,17,0,17,0,1,,,,,,,,,,
,,338593,001,2023-07-31_12h47.09.803,arm3_eps,2022.2.5,Win32,59.9880024,614cb3ef28d3b76e2ac82cce,64c7fed44a04f777bb1e18ce,64c8016bb1bf89adf14c1089,down,-1,0.75,0.2429,3,0,0.9714,18,0,18,0,1,,,,,,,,,,
,,338593,001,2023-07-31_12h47.09.803,arm3_eps,2022.2.5,Win32,59.9880024,614cb3ef28d3b76e2ac82cce,64c7fed44a04f777bb1e18ce,64c8016bb1bf89adf14c1089,right,-1,0.75,0.2429,3,0.018393562,1.3928,19,0,19,0,1,,,,,,,,,,
,,338593,001,2023-07-31_12h47.09.803,arm3_eps,2022.2.5,Win32,59.9880024,614cb3ef28d3b76e2ac82cce,64c7fed44a04f777bb1e18ce,64c8016bb1bf89adf14c1089,right,-1,0.75,0.2429,3,0.007006946,0.2902,20,0,20,0,1,,,,,,,,,,
,,338593,001,2023-07-31_12h47.09.803,arm3_eps,2022.2.5,Win32,59.9880024,614cb3ef28d3b76e2ac82cce,64c7fed44a04f777bb1e18ce,64c8016bb1bf89adf14c1089,right,-1,0.75,0.2429,3,-0.006759999,0.2046,21,0,21,0,1,,,,,,,,,,
,,338593,001,2023-07-31_12h47.09.803,arm3_eps,2022.2.5,Win32,59.9880024,614cb3ef28d3b76e2ac82cce,64c7fed44a04f777bb1e18ce,64c8016bb1bf89adf14c1089,down,-1,0.75,0.2429,4,0,0.7852,22,0,22,0,1,,,,,,,,,,
,,338593,001,2023-07-31_12h47.09.803,arm3_eps,2022.2.5,Win32,59.9880024,614cb3ef28d3b76e2ac82cce,64c7fed44a04f777bb1e18ce,64c8016bb1bf89adf14c1089,down,1,0.75,0.2429,5,0,1.2049,23,0,23,0,1,,,,,,,,,,
,,338593,001,2023-07-31_12h47.09.803,arm3_eps,2022.2.5,Win32,59.9880024,614cb3ef28d3b76e2ac82cce,64c7fed44a04f777bb1e18ce,64c8016bb1bf89adf14c1089,right,1,0.75,0.2429,5,-0.011697943,1.8325,24,0,24,0,1,,,,,,,,,,
,,338593,001,2023-07-31_12h47.09.803,arm3_eps,2022.2.5,Win32,59.9880024,614cb3ef28d3b76e2ac82cce,64c7fed44a04f777bb1e18ce,64c8016bb1bf89adf14c1089,up,1,0.75,0.2429,5,0,0.6674,25,0,25,0,1,,,,,,,,,,
,,338593,001,2023-07-31_12h47.09.803,arm3_eps,2022.2.5,Win32,59.9880024,614cb3ef28d3b76e2ac82cce,64c7fed44a04f777bb1e18ce,64c8016bb1bf89adf14c1089,up,-1,0.75,0.2429,6,0,1.6527,26,0,26,0,1,,,,,,,,,,
,,338593,001,2023-07-31_12h47.09.803,arm3_eps,2022.2.5,Win32,59.9880024,614cb3ef28d3b76e2ac82cce,64c7fed44a04f777bb1e18ce,64c8016bb1bf89adf14c1089,down,-1,0.75,0.2429,7,0,1.5684,27,0,27,0,1,,,,,,,,,,
,,338593,001,2023-07-31_12h47.09.803,arm3_eps,2022.2.5,Win32,59.9880024,614cb3ef28d3b76e2ac82cce,64c7fed44a04f777bb1e18ce,64c8016bb1bf89adf14c1089,up,-1,0.75,0.2429,6,0,1.5839,28,0,28,0,1,,,,,,,,,,
,,338593,001,2023-07-31_12h47.09.803,arm3_eps,2022.2.5,Win32,59.9880024,614cb3ef28d3b76e2ac82cce,64c7fed44a04f777bb1e18ce,64c8016bb1bf89adf14c1089,down,-1,0.75,0.2429,7,0,0.9568,29,0,29,0,1,,,,,,,,,,
,,338593,001,2023-07-31_12h47.09.803,arm3_eps,2022.2.5,Win32,59.9880024,614cb3ef28d3b76e2ac82cce,64c7fed44a04f777bb1e18ce,64c8016bb1bf89adf14c1089,down,-1,0.75,0.2429,8,0,2.9661,30,0,30,0,1,,,,,,,,,,
,,338593,001,2023-07-31_12h47.09.803,arm3_eps,2022.2.5,Win32,59.9880024,614cb3ef28d3b76e2ac82cce,64c7fed44a04f777bb1e18ce,64c8016bb1bf89adf14c1089,down,-1,0.75,0.2429,8,0,1.2562,31,0,31,0,1,,,,,,,,,,
,,338593,001,2023-07-31_12h47.09.803,arm3_eps,2022.2.5,Win32,59.9880024,614cb3ef28d3b76e2ac82cce,64c7fed44a04f777bb1e18ce,64c8016bb1bf89adf14c1089,up,-1,0.75,0.2429,7,0,1.588,32,0,32,0,1,,,,,,,,,,
,,338593,001,2023-07-31_12h47.09.803,arm3_eps,2022.2.5,Win32,59.9880024,614cb3ef28d3b76e2ac82cce,64c7fed44a04f777bb1e18ce,64c8016bb1bf89adf14c1089,down,-1,0.75,0.2429,8,0,0.9496,33,0,33,0,1,,,,,,,,,,
,,338593,001,2023-07-31_12h47.09.803,arm3_eps,2022.2.5,Win32,59.9880024,614cb3ef28d3b76e2ac82cce,64c7fed44a04f777bb1e18ce,64c8016bb1bf89adf14c1089,down,-1,0.75,0.2429,8,0,1.1889,34,0,34,0,1,,,,,,,,,,
,,338593,001,2023-07-31_12h47.09.803,arm3_eps,2022.2.5,Win32,59.9880024,614cb3ef28d3b76e2ac82cce,64c7fed44a04f777bb1e18ce,64c8016bb1bf89adf14c1089,up,-1,0.75,0.2429,7,0,1.2148,35,0,35,0,1,,,,,,,,,,
,,338593,001,2023-07-31_12h47.09.803,arm3_eps,2022.2.5,Win32,59.9880024,614cb3ef28d3b76e2ac82cce,64c7fed44a04f777bb1e18ce,64c8016bb1bf89adf14c1089,up,-1,0.75,0.2429,6,0,1.3509,36,0,36,0,1,,,,,,,,,,
,,338593,001,2023-07-31_12h47.09.803,arm3_eps,2022.2.5,Win32,59.9880024,614cb3ef28d3b76e2ac82cce,64c7fed44a04f777bb1e18ce,64c8016bb1bf89adf14c1089,down,-1,0.75,0.2429,7,0,1.1989,37,0,37,0,1,,,,,,,,,,
,,338593,001,2023-07-31_12h47.09.803,arm3_eps,2022.2.5,Win32,59.9880024,614cb3ef28d3b76e2ac82cce,64c7fed44a04f777bb1e18ce,64c8016bb1bf89adf14c1089,right,-1,0.75,0.2429,7,0.04199383,0.8504,38,0,38,0,1,,,,,,,,,,
,,338593,001,2023-07-31_12h47.09.803,arm3_eps,2022.2.5,Win32,59.9880024,614cb3ef28d3b76e2ac82cce,64c7fed44a04f777bb1e18ce,64c8016bb1bf89adf14c1089,down,-1,0.75,0.2429,8,0,0.7115,39,0,39,0,1,,,,,,,,,,
,,338593,001,2023-07-31_12h47.09.803,arm3_eps,2022.2.5,Win32,59.9880024,614cb3ef28d3b76e2ac82cce,64c7fed44a04f777bb1e18ce,64c8016bb1bf89adf14c1089,right,-1,0.75,0.2429,8,0.001106438,0.8261,40,0,40,0,1,,,,,,,,,,
,,338593,001,2023-07-31_12h47.09.803,arm3_eps,2022.2.5,Win32,59.9880024,614cb3ef28d3b76e2ac82cce,64c7fed44a04f777bb1e18ce,64c8016bb1bf89adf14c1089,down,-1,0.75,0.2429,8,0,0.5201,41,0,41,0,1,,,,,,,,,,
,,338593,001,2023-07-31_12h47.09.803,arm3_eps,2022.2.5,Win32,59.9880024,614cb3ef28d3b76e2ac82cce,64c7fed44a04f777bb1e18ce,64c8016bb1bf89adf14c1089,right,-1,0.75,0.2429,8,0.015069885,1.3003,42,0,42,0,1,,,,,,,,,,
,,338593,001,2023-07-31_12h47.09.803,arm3_eps,2022.2.5,Win32,59.9880024,614cb3ef28d3b76e2ac82cce,64c7fed44a04f777bb1e18ce,64c8016bb1bf89adf14c1089,right,-1,0.75,0.2429,8,-0.007150912,0.6005,43,0,43,0,1,,,,,,,,,,
,,338593,001,2023-07-31_12h47.09.803,arm3_eps,2022.2.5,Win32,59.9880024,614cb3ef28d3b76e2ac82cce,64c7fed44a04f777bb1e18ce,64c8016bb1bf89adf14c1089,right,-1,0.75,0.2429,8,-0.016349223,0.3506,44,0,44,0,1,,,,,,,,,,
,,338593,001,2023-07-31_12h47.09.803,arm3_eps,2022.2.5,Win32,59.9880024,614cb3ef28d3b76e2ac82cce,64c7fed44a04f777bb1e18ce,64c8016bb1bf89adf14c1089,right,-1,0.75,0.2429,8,-0.03035982,0.1891,45,0,45,0,1,,,,,,,,,,
,,338593,001,2023-07-31_12h47.09.803,arm3_eps,2022.2.5,Win32,59.9880024,614cb3ef28d3b76e2ac82cce,64c7fed44a04f777bb1e18ce,64c8016bb1bf89adf14c1089,down,-1,0.75,0.2429,9,0,1.8615,46,0,46,0,1,,,,,,,,,,
,,338593,001,2023-07-31_12h47.09.803,arm3_eps,2022.2.5,Win32,59.9880024,614cb3ef28d3b76e2ac82cce,64c7fed44a04f777bb1e18ce,64c8016bb1bf89adf14c1089,right,-1,0.75,0.2429,9,0.00382799,1.0683,47,0,47,0,1,,,,,,,,,,
,,338593,001,2023-07-31_12h47.09.803,arm3_eps,2022.2.5,Win32,59.9880024,614cb3ef28d3b76e2ac82cce,64c7fed44a04f777bb1e18ce,64c8016bb1bf89adf14c1089,down,1,0.75,0.2429,10,0,0.8346,48,0,48,0,1,,,,,,,,,,
,,338593,001,2023-07-31_12h47.09.803,arm3_eps,2022.2.5,Win32,59.9880024,614cb3ef28d3b76e2ac82cce,64c7fed44a04f777bb1e18ce,64c8016bb1bf89adf14c1089,right,1,0.75,0.2429,10,0.021185255,0.8113,49,0,49,0,1,,,,,,,,,,
space,4.1032,338593,001,2023-07-31_12h47.09.803,arm3_eps,2022.2.5,Win32,59.9880024,614cb3ef28d3b76e2ac82cce,64c7fed44a04f777bb1e18ce,64c8016bb1bf89adf14c1089,,,,,,,,,,,,,,,,,,,,,,
space,0.7128,338593,001,2023-07-31_12h47.09.803,arm3_eps,2022.2.5,Win32,59.9880024,614cb3ef28d3b76e2ac82cce,64c7fed44a04f777bb1e18ce,64c8016bb1bf89adf14c1089,,,,,,,,,,,,,,,,,,,,,,
space,0.8046,338593,001,2023-07-31_12h47.09.803,arm3_eps,2022.2.5,Win32,59.9880024,614cb3ef28d3b76e2ac82cce,64c7fed44a04f777bb1e18ce,64c8016bb1bf89adf14c1089,,,,,,,,,,,,,,,,,,,,,,
,,338593,001,2023-07-31_12h47.09.803,arm3_eps,2022.2.5,Win32,59.9880024,614cb3ef28d3b76e2ac82cce,64c7fed44a04f777bb1e18ce,64c8016bb1bf89adf14c1089,up,1,0.75,0.05,1,0,1.4686,0,0,0,0,1,,,,,,,,,,
,,338593,001,2023-07-31_12h47.09.803,arm3_eps,2022.2.5,Win32,59.9880024,614cb3ef28d3b76e2ac82cce,64c7fed44a04f777bb1e18ce,64c8016bb1bf89adf14c1089,up,1,0.75,0.05,2,0,1.2317,1,0,1,0,1,,,,,,,,,,
,,338593,001,2023-07-31_12h47.09.803,arm3_eps,2022.2.5,Win32,59.9880024,614cb3ef28d3b76e2ac82cce,64c7fed44a04f777bb1e18ce,64c8016bb1bf89adf14c1089,up,1,0.75,0.05,2,0,1.3219,2,0,2,0,1,,,,,,,,,,
,,338593,001,2023-07-31_12h47.09.803,arm3_eps,2022.2.5,Win32,59.9880024,614cb3ef28d3b76e2ac82cce,64c7fed44a04f777bb1e18ce,64c8016bb1bf89adf14c1089,down,-1,0.75,0.05,2,0,0.8879,3,0,3,0,1,,,,,,,,,,
,,338593,001,2023-07-31_12h47.09.803,arm3_eps,2022.2.5,Win32,59.9880024,614cb3ef28d3b76e2ac82cce,64c7fed44a04f777bb1e18ce,64c8016bb1bf89adf14c1089,down,-1,0.75,0.05,2,0,1.3835,4,0,4,0,1,,,,,,,,,,
,,338593,001,2023-07-31_12h47.09.803,arm3_eps,2022.2.5,Win32,59.9880024,614cb3ef28d3b76e2ac82cce,64c7fed44a04f777bb1e18ce,64c8016bb1bf89adf14c1089,right,-1,0.75,0.05,2,-0.0083738,0.8405,5,0,5,0,1,,,,,,,,,,
,,338593,001,2023-07-31_12h47.09.803,arm3_eps,2022.2.5,Win32,59.9880024,614cb3ef28d3b76e2ac82cce,64c7fed44a04f777bb1e18ce,64c8016bb1bf89adf14c1089,down,-1,0.75,0.05,2,0,0.5452,6,0,6,0,1,,,,,,,,,,
,,338593,001,2023-07-31_12h47.09.803,arm3_eps,2022.2.5,Win32,59.9880024,614cb3ef28d3b76e2ac82cce,64c7fed44a04f777bb1e18ce,64c8016bb1bf89adf14c1089,right,-1,0.75,0.05,2,0.015881403,1.1008,7,0,7,0,1,,,,,,,,,,
,,338593,001,2023-07-31_12h47.09.803,arm3_eps,2022.2.5,Win32,59.9880024,614cb3ef28d3b76e2ac82cce,64c7fed44a04f777bb1e18ce,64c8016bb1bf89adf14c1089,down,-1,0.75,0.05,2,0,1.0183,8,0,8,0,1,,,,,,,,,,
,,338593,001,2023-07-31_12h47.09.803,arm3_eps,2022.2.5,Win32,59.9880024,614cb3ef28d3b76e2ac82cce,64c7fed44a04f777bb1e18ce,64c8016bb1bf89adf14c1089,down,-1,0.75,0.05,3,0,2.6636,9,0,9,0,1,,,,,,,,,,
,,338593,001,2023-07-31_12h47.09.803,arm3_eps,2022.2.5,Win32,59.9880024,614cb3ef28d3b76e2ac82cce,64c7fed44a04f777bb1e18ce,64c8016bb1bf89adf14c1089,down,1,0.75,0.05,3,0,1.1189,10,0,10,0,1,,,,,,,,,,
,,338593,001,2023-07-31_12h47.09.803,arm3_eps,2022.2.5,Win32,59.9880024,614cb3ef28d3b76e2ac82cce,64c7fed44a04f777bb1e18ce,64c8016bb1bf89adf14c1089,up,1,0.75,0.05,4,0,0.7844,11,0,11,0,1,,,,,,,,,,
,,338593,001,2023-07-31_12h47.09.803,arm3_eps,2022.2.5,Win32,59.9880024,614cb3ef28d3b76e2ac82cce,64c7fed44a04f777bb1e18ce,64c8016bb1bf89adf14c1089,down,1,0.75,0.05,3,0,0.9635,12,0,12,0,1,,,,,,,,,,
,,338593,001,2023-07-31_12h47.09.803,arm3_eps,2022.2.5,Win32,59.9880024,614cb3ef28d3b76e2ac82cce,64c7fed44a04f777bb1e18ce,64c8016bb1bf89adf14c1089,up,1,0.75,0.05,4,0,0.7319,13,0,13,0,1,,,,,,,,,,
,,338593,001,2023-07-31_12h47.09.803,arm3_eps,2022.2.5,Win32,59.9880024,614cb3ef28d3b76e2ac82cce,64c7fed44a04f777bb1e18ce,64c8016bb1bf89adf14c1089,down,1,0.75,0.05,4,0,1.1565,14,0,14,0,1,,,,,,,,,,
,,338593,001,2023-07-31_12h47.09.803,arm3_eps,2022.2.5,Win32,59.9880024,614cb3ef28d3b76e2ac82cce,64c7fed44a04f777bb1e18ce,64c8016bb1bf89adf14c1089,up,1,0.75,0.05,5,0,0.8156,15,0,15,0,1,,,,,,,,,,
,,338593,001,2023-07-31_12h47.09.803,arm3_eps,2022.2.5,Win32,59.9880024,614cb3ef28d3b76e2ac82cce,64c7fed44a04f777bb1e18ce,64c8016bb1bf89adf14c1089,up,1,0.75,0.05,6,0,0.8577,16,0,16,0,1,,,,,,,,,,
,,338593,001,2023-07-31_12h47.09.803,arm3_eps,2022.2.5,Win32,59.9880024,614cb3ef28d3b76e2ac82cce,64c7fed44a04f777bb1e18ce,64c8016bb1bf89adf14c1089,up,1,0.75,0.05,7,0,1.2519,17,0,17,0,1,,,,,,,,,,
,,338593,001,2023-07-31_12h47.09.803,arm3_eps,2022.2.5,Win32,59.9880024,614cb3ef28d3b76e2ac82cce,64c7fed44a04f777bb1e18ce,64c8016bb1bf89adf14c1089,up,1,0.75,0.05,7,0,0.9648,18,0,18,0,1,,,,,,,,,,
,,338593,001,2023-07-31_12h47.09.803,arm3_eps,2022.2.5,Win32,59.9880024,614cb3ef28d3b76e2ac82cce,64c7fed44a04f777bb1e18ce,64c8016bb1bf89adf14c1089,down,1,0.75,0.05,6,0,0.902,19,0,19,0,1,,,,,,,,,,
,,338593,001,2023-07-31_12h47.09.803,arm3_eps,2022.2.5,Win32,59.9880024,614cb3ef28d3b76e2ac82cce,64c7fed44a04f777bb1e18ce,64c8016bb1bf89adf14c1089,up,1,0.75,0.05,7,0,0.7426,20,0,20,0,1,,,,,,,,,,
,,338593,001,2023-07-31_12h47.09.803,arm3_eps,2022.2.5,Win32,59.9880024,614cb3ef28d3b76e2ac82cce,64c7fed44a04f777bb1e18ce,64c8016bb1bf89adf14c1089,up,1,0.75,0.05,7,0,1.7764,21,0,21,0,1,,,,,,,,,,
,,338593,001,2023-07-31_12h47.09.803,arm3_eps,2022.2.5,Win32,59.9880024,614cb3ef28d3b76e2ac82cce,64c7fed44a04f777bb1e18ce,64c8016bb1bf89adf14c1089,right,1,0.75,0.05,7,0.011624594,1.5171,22,0,22,0,1,,,,,,,,,,
,,338593,001,2023-07-31_12h47.09.803,arm3_eps,2022.2.5,Win32,59.9880024,614cb3ef28d3b76e2ac82cce,64c7fed44a04f777bb1e18ce,64c8016bb1bf89adf14c1089,down,1,0.75,0.05,6,0,0.5008,23,0,23,0,1,,,,,,,,,,
,,338593,001,2023-07-31_12h47.09.803,arm3_eps,2022.2.5,Win32,59.9880024,614cb3ef28d3b76e2ac82cce,64c7fed44a04f777bb1e18ce,64c8016bb1bf89adf14c1089,up,1,0.75,0.05,7,0,3.2515,24,0,24,0,1,,,,,,,,,,
,,338593,001,2023-07-31_12h47.09.803,arm3_eps,2022.2.5,Win32,59.9880024,614cb3ef28d3b76e2ac82cce,64c7fed44a04f777bb1e18ce,64c8016bb1bf89adf14c1089,up,1,0.75,0.05,8,0,0.8754,25,0,25,0,1,,,,,,,,,,
,,338593,001,2023-07-31_12h47.09.803,arm3_eps,2022.2.5,Win32,59.9880024,614cb3ef28d3b76e2ac82cce,64c7fed44a04f777bb1e18ce,64c8016bb1bf89adf14c1089,right,1,0.75,0.05,8,-0.002967558,1.3035,26,0,26,0,1,,,,,,,,,,
,,338593,001,2023-07-31_12h47.09.803,arm3_eps,2022.2.5,Win32,59.9880024,614cb3ef28d3b76e2ac82cce,64c7fed44a04f777bb1e18ce,64c8016bb1bf89adf14c1089,up,1,0.75,0.05,9,0,0.7505,27,0,27,0,1,,,,,,,,,,
,,338593,001,2023-07-31_12h47.09.803,arm3_eps,2022.2.5,Win32,59.9880024,614cb3ef28d3b76e2ac82cce,64c7fed44a04f777bb1e18ce,64c8016bb1bf89adf14c1089,right,1,0.75,0.05,9,0.02179194,0.9184,28,0,28,0,1,,,,,,,,,,
,,338593,001,2023-07-31_12h47.09.803,arm3_eps,2022.2.5,Win32,59.9880024,614cb3ef28d3b76e2ac82cce,64c7fed44a04f777bb1e18ce,64c8016bb1bf89adf14c1089,down,1,0.75,0.05,8,0,1.1342,29,0,29,0,1,,,,,,,,,,
,,338593,001,2023-07-31_12h47.09.803,arm3_eps,2022.2.5,Win32,59.9880024,614cb3ef28d3b76e2ac82cce,64c7fed44a04f777bb1e18ce,64c8016bb1bf89adf14c1089,up,1,0.75,0.05,9,0,0.7474,30,0,30,0,1,,,,,,,,,,
,,338593,001,2023-07-31_12h47.09.803,arm3_eps,2022.2.5,Win32,59.9880024,614cb3ef28d3b76e2ac82cce,64c7fed44a04f777bb1e18ce,64c8016bb1bf89adf14c1089,up,1,0.75,0.05,9,0,0.7966,31,0,31,0,1,,,,,,,,,,
,,338593,001,2023-07-31_12h47.09.803,arm3_eps,2022.2.5,Win32,59.9880024,614cb3ef28d3b76e2ac82cce,64c7fed44a04f777bb1e18ce,64c8016bb1bf89adf14c1089,up,1,0.75,0.05,10,0,0.998,32,0,32,0,1,,,,,,,,,,
,,338593,001,2023-07-31_12h47.09.803,arm3_eps,2022.2.5,Win32,59.9880024,614cb3ef28d3b76e2ac82cce,64c7fed44a04f777bb1e18ce,64c8016bb1bf89adf14c1089,down,1,0.75,0.05,9,0,0.9122,33,0,33,0,1,,,,,,,,,,
,,338593,001,2023-07-31_12h47.09.803,arm3_eps,2022.2.5,Win32,59.9880024,614cb3ef28d3b76e2ac82cce,64c7fed44a04f777bb1e18ce,64c8016bb1bf89adf14c1089,up,1,0.75,0.05,10,0,0.8421,34,0,34,0,1,,,,,,,,,,
,,338593,001,2023-07-31_12h47.09.803,arm3_eps,2022.2.5,Win32,59.9880024,614cb3ef28d3b76e2ac82cce,64c7fed44a04f777bb1e18ce,64c8016bb1bf89adf14c1089,up,1,0.75,0.05,10,0,0.9626,35,0,35,0,1,,,,,,,,,,
,,338593,001,2023-07-31_12h47.09.803,arm3_eps,2022.2.5,Win32,59.9880024,614cb3ef28d3b76e2ac82cce,64c7fed44a04f777bb1e18ce,64c8016bb1bf89adf14c1089,up,1,0.75,0.05,11,0,1.3036,36,0,36,0,1,,,,,,,,,,
,,338593,001,2023-07-31_12h47.09.803,arm3_eps,2022.2.5,Win32,59.9880024,614cb3ef28d3b76e2ac82cce,64c7fed44a04f777bb1e18ce,64c8016bb1bf89adf14c1089,up,1,0.75,0.05,12,0,0.8845,37,0,37,0,1,,,,,,,,,,
,,338593,001,2023-07-31_12h47.09.803,arm3_eps,2022.2.5,Win32,59.9880024,614cb3ef28d3b76e2ac82cce,64c7fed44a04f777bb1e18ce,64c8016bb1bf89adf14c1089,up,1,0.75,0.05,13,0,0.8465,38,0,38,0,1,,,,,,,,,,
,,338593,001,2023-07-31_12h47.09.803,arm3_eps,2022.2.5,Win32,59.9880024,614cb3ef28d3b76e2ac82cce,64c7fed44a04f777bb1e18ce,64c8016bb1bf89adf14c1089,up,1,0.75,0.05,14,0,0.8917,39,0,39,0,1,,,,,,,,,,
,,338593,001,2023-07-31_12h47.09.803,arm3_eps,2022.2.5,Win32,59.9880024,614cb3ef28d3b76e2ac82cce,64c7fed44a04f777bb1e18ce,64c8016bb1bf89adf14c1089,up,1,0.75,0.05,15,0,0.8683,40,0,40,0,1,,,,,,,,,,
,,338593,001,2023-07-31_12h47.09.803,arm3_eps,2022.2.5,Win32,59.9880024,614cb3ef28d3b76e2ac82cce,64c7fed44a04f777bb1e18ce,64c8016bb1bf89adf14c1089,up,1,0.75,0.05,15,0,0.9507,41,0,41,0,1,,,,,,,,,,
,,338593,001,2023-07-31_12h47.09.803,arm3_eps,2022.2.5,Win32,59.9880024,614cb3ef28d3b76e2ac82cce,64c7fed44a04f777bb1e18ce,64c8016bb1bf89adf14c1089,down,1,0.75,0.05,14,0,0.8774,42,0,42,0,1,,,,,,,,,,
,,338593,001,2023-07-31_12h47.09.803,arm3_eps,2022.2.5,Win32,59.9880024,614cb3ef28d3b76e2ac82cce,64c7fed44a04f777bb1e18ce,64c8016bb1bf89adf14c1089,up,1,0.75,0.05,14,0,0.6875,43,0,43,0,1,,,,,,,,,,
,,338593,001,2023-07-31_12h47.09.803,arm3_eps,2022.2.5,Win32,59.9880024,614cb3ef28d3b76e2ac82cce,64c7fed44a04f777bb1e18ce,64c8016bb1bf89adf14c1089,up,1,0.75,0.05,14,0,0.834,44,0,44,0,1,,,,,,,,,,
,,338593,001,2023-07-31_12h47.09.803,arm3_eps,2022.2.5,Win32,59.9880024,614cb3ef28d3b76e2ac82cce,64c7fed44a04f777bb1e18ce,64c8016bb1bf89adf14c1089,down,1,0.75,0.05,14,0,0.8387,45,0,45,0,1,,,,,,,,,,
,,338593,001,2023-07-31_12h47.09.803,arm3_eps,2022.2.5,Win32,59.9880024,614cb3ef28d3b76e2ac82cce,64c7fed44a04f777bb1e18ce,64c8016bb1bf89adf14c1089,up,1,0.75,0.05,15,0,0.9831,46,0,46,0,1,,,,,,,,,,
,,338593,001,2023-07-31_12h47.09.803,arm3_eps,2022.2.5,Win32,59.9880024,614cb3ef28d3b76e2ac82cce,64c7fed44a04f777bb1e18ce,64c8016bb1bf89adf14c1089,up,1,0.75,0.05,16,0,0.9122,47,0,47,0,1,,,,,,,,,,
,,338593,001,2023-07-31_12h47.09.803,arm3_eps,2022.2.5,Win32,59.9880024,614cb3ef28d3b76e2ac82cce,64c7fed44a04f777bb1e18ce,64c8016bb1bf89adf14c1089,up,1,0.75,0.05,16,0,1.186,48,0,48,0,1,,,,,,,,,,
,,338593,001,2023-07-31_12h47.09.803,arm3_eps,2022.2.5,Win32,59.9880024,614cb3ef28d3b76e2ac82cce,64c7fed44a04f777bb1e18ce,64c8016bb1bf89adf14c1089,down,1,0.75,0.05,16,0,0.9342,49,0,49,0,1,,,,,,,,,,
space,4.8389,338593,001,2023-07-31_12h47.09.803,arm3_eps,2022.2.5,Win32,59.9880024,614cb3ef28d3b76e2ac82cce,64c7fed44a04f777bb1e18ce,64c8016bb1bf89adf14c1089,,,,,,,,,,,,,,,,,,,,,,
space,1.1362,338593,001,2023-07-31_12h47.09.803,arm3_eps,2022.2.5,Win32,59.9880024,614cb3ef28d3b76e2ac82cce,64c7fed44a04f777bb1e18ce,64c8016bb1bf89adf14c1089,,,,,,,,,,,,,,,,,,,,,,
,,338593,001,2023-07-31_12h47.09.803,arm3_eps,2022.2.5,Win32,59.9880024,614cb3ef28d3b76e2ac82cce,64c7fed44a04f777bb1e18ce,64c8016bb1bf89adf14c1089,right,1,0.75,0.5,0,-0.021832901,1.3158,0,0,0,0,1,,,,,,,,,,
,,338593,001,2023-07-31_12h47.09.803,arm3_eps,2022.2.5,Win32,59.9880024,614cb3ef28d3b76e2ac82cce,64c7fed44a04f777bb1e18ce,64c8016bb1bf89adf14c1089,right,1,0.75,0.5,0,-0.025149578,1.202,1,0,1,0,1,,,,,,,,,,
,,338593,001,2023-07-31_12h47.09.803,arm3_eps,2022.2.5,Win32,59.9880024,614cb3ef28d3b76e2ac82cce,64c7fed44a04f777bb1e18ce,64c8016bb1bf89adf14c1089,right,1,0.75,0.5,0,-0.013575714,0.3766,2,0,2,0,1,,,,,,,,,,
,,338593,001,2023-07-31_12h47.09.803,arm3_eps,2022.2.5,Win32,59.9880024,614cb3ef28d3b76e2ac82cce,64c7fed44a04f777bb1e18ce,64c8016bb1bf89adf14c1089,right,1,0.75,0.5,0,-0.003091819,0.3528,3,0,3,0,1,,,,,,,,,,
,,338593,001,2023-07-31_12h47.09.803,arm3_eps,2022.2.5,Win32,59.9880024,614cb3ef28d3b76e2ac82cce,64c7fed44a04f777bb1e18ce,64c8016bb1bf89adf14c1089,right,1,0.75,0.5,0,-0.000581016,0.2064,4,0,4,0,1,,,,,,,,,,
,,338593,001,2023-07-31_12h47.09.803,arm3_eps,2022.2.5,Win32,59.9880024,614cb3ef28d3b76e2ac82cce,64c7fed44a04f777bb1e18ce,64c8016bb1bf89adf14c1089,right,1,0.75,0.5,0,0.019580101,0.2006,5,0,5,0,1,,,,,,,,,,
,,338593,001,2023-07-31_12h47.09.803,arm3_eps,2022.2.5,Win32,59.9880024,614cb3ef28d3b76e2ac82cce,64c7fed44a04f777bb1e18ce,64c8016bb1bf89adf14c1089,right,1,0.75,0.5,0,0.013973153,0.35,6,0,6,0,1,,,,,,,,,,
,,338593,001,2023-07-31_12h47.09.803,arm3_eps,2022.2.5,Win32,59.9880024,614cb3ef28d3b76e2ac82cce,64c7fed44a04f777bb1e18ce,64c8016bb1bf89adf14c1089,right,1,0.75,0.5,0,0.00417022,0.2004,7,0,7,0,1,,,,,,,,,,
,,338593,001,2023-07-31_12h47.09.803,arm3_eps,2022.2.5,Win32,59.9880024,614cb3ef28d3b76e2ac82cce,64c7fed44a04f777bb1e18ce,64c8016bb1bf89adf14c1089,right,1,0.75,0.5,0,-0.001539697,0.4018,8,0,8,0,1,,,,,,,,,,
,,338593,001,2023-07-31_12h47.09.803,arm3_eps,2022.2.5,Win32,59.9880024,614cb3ef28d3b76e2ac82cce,64c7fed44a04f777bb1e18ce,64c8016bb1bf89adf14c1089,right,1,0.75,0.5,0,-0.00230404,0.3505,9,0,9,0,1,,,,,,,,,,
,,338593,001,2023-07-31_12h47.09.803,arm3_eps,2022.2.5,Win32,59.9880024,614cb3ef28d3b76e2ac82cce,64c7fed44a04f777bb1e18ce,64c8016bb1bf89adf14c1089,right,1,0.75,0.5,0,0.028853834,0.2007,10,0,10,0,1,,,,,,,,,,
,,338593,001,2023-07-31_12h47.09.803,arm3_eps,2022.2.5,Win32,59.9880024,614cb3ef28d3b76e2ac82cce,64c7fed44a04f777bb1e18ce,64c8016bb1bf89adf14c1089,right,1,0.75,0.5,0,0.037834485,0.184,11,0,11,0,1,,,,,,,,,,
,,338593,001,2023-07-31_12h47.09.803,arm3_eps,2022.2.5,Win32,59.9880024,614cb3ef28d3b76e2ac82cce,64c7fed44a04f777bb1e18ce,64c8016bb1bf89adf14c1089,up,-1,0.75,0.5,1,0,1.3749,12,0,12,0,1,,,,,,,,,,
,,338593,001,2023-07-31_12h47.09.803,arm3_eps,2022.2.5,Win32,59.9880024,614cb3ef28d3b76e2ac82cce,64c7fed44a04f777bb1e18ce,64c8016bb1bf89adf14c1089,right,-1,0.75,0.5,1,-0.054832003,1.2881,13,0,13,0,1,,,,,,,,,,
,,338593,001,2023-07-31_12h47.09.803,arm3_eps,2022.2.5,Win32,59.9880024,614cb3ef28d3b76e2ac82cce,64c7fed44a04f777bb1e18ce,64c8016bb1bf89adf14c1089,right,-1,0.75,0.5,1,-0.069296249,0.1682,14,0,14,0,1,,,,,,,,,,
,,338593,001,2023-07-31_12h47.09.803,arm3_eps,2022.2.5,Win32,59.9880024,614cb3ef28d3b76e2ac82cce,64c7fed44a04f777bb1e18ce,64c8016bb1bf89adf14c1089,right,-1,0.75,0.5,1,-0.093997919,0.9074,15,0,15,0,1,,,,,,,,,,
,,338593,001,2023-07-31_12h47.09.803,arm3_eps,2022.2.5,Win32,59.9880024,614cb3ef28d3b76e2ac82cce,64c7fed44a04f777bb1e18ce,64c8016bb1bf89adf14c1089,right,-1,0.75,0.5,1,-0.082626736,0.1741,16,0,16,0,1,,,,,,,,,,
,,338593,001,2023-07-31_12h47.09.803,arm3_eps,2022.2.5,Win32,59.9880024,614cb3ef28d3b76e2ac82cce,64c7fed44a04f777bb1e18ce,64c8016bb1bf89adf14c1089,right,-1,0.75,0.5,1,-0.088141681,0.1576,17,0,17,0,1,,,,,,,,,,
,,338593,001,2023-07-31_12h47.09.803,arm3_eps,2022.2.5,Win32,59.9880024,614cb3ef28d3b76e2ac82cce,64c7fed44a04f777bb1e18ce,64c8016bb1bf89adf14c1089,right,-1,0.75,0.5,1,-0.094902314,0.1678,18,0,18,0,1,,,,,,,,,,
,,338593,001,2023-07-31_12h47.09.803,arm3_eps,2022.2.5,Win32,59.9880024,614cb3ef28d3b76e2ac82cce,64c7fed44a04f777bb1e18ce,64c8016bb1bf89adf14c1089,right,-1,0.75,0.5,1,-0.106259793,0.1679,19,0,19,0,1,,,,,,,,,,
,,338593,001,2023-07-31_12h47.09.803,arm3_eps,2022.2.5,Win32,59.9880024,614cb3ef28d3b76e2ac82cce,64c7fed44a04f777bb1e18ce,64c8016bb1bf89adf14c1089,right,-1,0.75,0.5,1,-0.113761089,0.1593,20,0,20,0,1,,,,,,,,,,
,,338593,001,2023-07-31_12h47.09.803,arm3_eps,2022.2.5,Win32,59.9880024,614cb3ef28d3b76e2ac82cce,64c7fed44a04f777bb1e18ce,64c8016bb1bf89adf14c1089,right,-1,0.75,0.5,1,-0.115029878,0.16,21,0,21,0,1,,,,,,,,,,
,,338593,001,2023-07-31_12h47.09.803,arm3_eps,2022.2.5,Win32,59.9880024,614cb3ef28d3b76e2ac82cce,64c7fed44a04f777bb1e18ce,64c8016bb1bf89adf14c1089,right,-1,0.75,0.5,1,-0.121178224,0.1565,22,0,22,0,1,,,,,,,,,,
,,338593,001,2023-07-31_12h47.09.803,arm3_eps,2022.2.5,Win32,59.9880024,614cb3ef28d3b76e2ac82cce,64c7fed44a04f777bb1e18ce,64c8016bb1bf89adf14c1089,right,-1,0.75,0.5,1,-0.109725515,0.1694,23,0,23,0,1,,,,,,,,,,
,,338593,001,2023-07-31_12h47.09.803,arm3_eps,2022.2.5,Win32,59.9880024,614cb3ef28d3b76e2ac82cce,64c7fed44a04f777bb1e18ce,64c8016bb1bf89adf14c1089,right,-1,0.75,0.5,1,-0.141789559,0.1533,24,0,24,0,1,,,,,,,,,,
,,338593,001,2023-07-31_12h47.09.803,arm3_eps,2022.2.5,Win32,59.9880024,614cb3ef28d3b76e2ac82cce,64c7fed44a04f777bb1e18ce,64c8016bb1bf89adf14c1089,down,-1,0.75,0.5,2,0,1.042,25,0,25,0,1,,,,,,,,,,
,,338593,001,2023-07-31_12h47.09.803,arm3_eps,2022.2.5,Win32,59.9880024,614cb3ef28d3b76e2ac82cce,64c7fed44a04f777bb1e18ce,64c8016bb1bf89adf14c1089,right,-1,0.75,0.5,2,0.011513099,0.8553,26,0,26,0,1,,,,,,,,,,
,,338593,001,2023-07-31_12h47.09.803,arm3_eps,2022.2.5,Win32,59.9880024,614cb3ef28d3b76e2ac82cce,64c7fed44a04f777bb1e18ce,64c8016bb1bf89adf14c1089,right,-1,0.75,0.5,2,0.037361408,0.3561,27,0,27,0,1,,,,,,,,,,
,,338593,001,2023-07-31_12h47.09.803,arm3_eps,2022.2.5,Win32,59.9880024,614cb3ef28d3b76e2ac82cce,64c7fed44a04f777bb1e18ce,64c8016bb1bf89adf14c1089,right,-1,0.75,0.5,2,0.031183692,0.156,28,0,28,0,1,,,,,,,,,,
,,338593,001,2023-07-31_12h47.09.803,arm3_eps,2022.2.5,Win32,59.9880024,614cb3ef28d3b76e2ac82cce,64c7fed44a04f777bb1e18ce,64c8016bb1bf89adf14c1089,right,-1,0.75,0.5,2,0.010622948,0.1533,29,0,29,0,1,,,,,,,,,,
,,338593,001,2023-07-31_12h47.09.803,arm3_eps,2022.2.5,Win32,59.9880024,614cb3ef28d3b76e2ac82cce,64c7fed44a04f777bb1e18ce,64c8016bb1bf89adf14c1089,right,-1,0.75,0.5,2,1.58644E-05,0.1342,30,0,30,0,1,,,,,,,,,,
,,338593,001,2023-07-31_12h47.09.803,arm3_eps,2022.2.5,Win32,59.9880024,614cb3ef28d3b76e2ac82cce,64c7fed44a04f777bb1e18ce,64c8016bb1bf89adf14c1089,right,-1,0.75,0.5,2,-0.028568278,0.1437,31,0,31,0,1,,,,,,,,,,
,,338593,001,2023-07-31_12h47.09.803,arm3_eps,2022.2.5,Win32,59.9880024,614cb3ef28d3b76e2ac82cce,64c7fed44a04f777bb1e18ce,64c8016bb1bf89adf14c1089,right,-1,0.75,0.5,2,-0.055014666,0.1447,32,0,32,0,1,,,,,,,,,,
,,338593,001,2023-07-31_12h47.09.803,arm3_eps,2022.2.5,Win32,59.9880024,614cb3ef28d3b76e2ac82cce,64c7fed44a04f777bb1e18ce,64c8016bb1bf89adf14c1089,right,-1,0.75,0.5,2,-0.049722292,0.1539,33,0,33,0,1,,,,,,,,,,
,,338593,001,2023-07-31_12h47.09.803,arm3_eps,2022.2.5,Win32,59.9880024,614cb3ef28d3b76e2ac82cce,64c7fed44a04f777bb1e18ce,64c8016bb1bf89adf14c1089,right,-1,0.75,0.5,2,-0.058396965,0.1673,34,0,34,0,1,,,,,,,,,,
,,338593,001,2023-07-31_12h47.09.803,arm3_eps,2022.2.5,Win32,59.9880024,614cb3ef28d3b76e2ac82cce,64c7fed44a04f777bb1e18ce,64c8016bb1bf89adf14c1089,right,-1,0.75,0.5,2,-0.088886612,0.1518,35,0,35,0,1,,,,,,,,,,
,,338593,001,2023-07-31_12h47.09.803,arm3_eps,2022.2.5,Win32,59.9880024,614cb3ef28d3b76e2ac82cce,64c7fed44a04f777bb1e18ce,64c8016bb1bf89adf14c1089,right,-1,0.75,0.5,2,-0.089956565,0.1401,36,0,36,0,1,,,,,,,,,,
,,338593,001,2023-07-31_12h47.09.803,arm3_eps,2022.2.5,Win32,59.9880024,614cb3ef28d3b76e2ac82cce,64c7fed44a04f777bb1e18ce,64c8016bb1bf89adf14c1089,right,-1,0.75,0.5,2,-0.095635693,0.1516,37,0,37,0,1,,,,,,,,,,
,,338593,001,2023-07-31_12h47.09.803,arm3_eps,2022.2.5,Win32,59.9880024,614cb3ef28d3b76e2ac82cce,64c7fed44a04f777bb1e18ce,64c8016bb1bf89adf14c1089,down,-1,0.75,0.5,2,0,1.1741,38,0,38,0,1,,,,,,,,,,
,,338593,001,2023-07-31_12h47.09.803,arm3_eps,2022.2.5,Win32,59.9880024,614cb3ef28d3b76e2ac82cce,64c7fed44a04f777bb1e18ce,64c8016bb1bf89adf14c1089,right,-1,0.75,0.5,2,-0.015465787,1.1099,39,0,39,0,1,,,,,,,,,,
,,338593,001,2023-07-31_12h47.09.803,arm3_eps,2022.2.5,Win32,59.9880024,614cb3ef28d3b76e2ac82cce,64c7fed44a04f777bb1e18ce,64c8016bb1bf89adf14c1089,right,-1,0.75,0.5,2,-0.032174014,0.3927,40,0,40,0,1,,,,,,,,,,
,,338593,001,2023-07-31_12h47.09.803,arm3_eps,2022.2.5,Win32,59.9880024,614cb3ef28d3b76e2ac82cce,64c7fed44a04f777bb1e18ce,64c8016bb1bf89adf14c1089,down,1,0.75,0.5,3,0,0.3522,41,0,41,0,1,,,,,,,,,,
,,338593,001,2023-07-31_12h47.09.803,arm3_eps,2022.2.5,Win32,59.9880024,614cb3ef28d3b76e2ac82cce,64c7fed44a04f777bb1e18ce,64c8016bb1bf89adf14c1089,right,1,0.75,0.5,3,0.044534368,0.7177,42,0,42,0,1,,,,,,,,,,
,,338593,001,2023-07-31_12h47.09.803,arm3_eps,2022.2.5,Win32,59.9880024,614cb3ef28d3b76e2ac82cce,64c7fed44a04f777bb1e18ce,64c8016bb1bf89adf14c1089,right,1,0.75,0.5,3,0.04352105,0.2014,43,0,43,0,1,,,,,,,,,,
,,338593,001,2023-07-31_12h47.09.803,arm3_eps,2022.2.5,Win32,59.9880024,614cb3ef28d3b76e2ac82cce,64c7fed44a04f777bb1e18ce,64c8016bb1bf89adf14c1089,right,1,0.75,0.5,3,0.052746273,0.1542,44,0,44,0,1,,,,,,,,,,
,,338593,001,2023-07-31_12h47.09.803,arm3_eps,2022.2.5,Win32,59.9880024,614cb3ef28d3b76e2ac82cce,64c7fed44a04f777bb1e18ce,64c8016bb1bf89adf14c1089,right,1,0.75,0.5,3,0.073975798,0.1506,45,0,45,0,1,,,,,,,,,,
,,338593,001,2023-07-31_12h47.09.803,arm3_eps,2022.2.5,Win32,59.9880024,614cb3ef28d3b76e2ac82cce,64c7fed44a04f777bb1e18ce,64c8016bb1bf89adf14c1089,up,1,0.75,0.5,3,0,0.4017,46,0,46,0,1,,,,,,,,,,
,,338593,001,2023-07-31_12h47.09.803,arm3_eps,2022.2.5,Win32,59.9880024,614cb3ef28d3b76e2ac82cce,64c7fed44a04f777bb1e18ce,64c8016bb1bf89adf14c1089,right,1,0.75,0.5,3,0.003843041,0.9548,47,0,47,0,1,,,,,,,,,,
,,338593,001,2023-07-31_12h47.09.803,arm3_eps,2022.2.5,Win32,59.9880024,614cb3ef28d3b76e2ac82cce,64c7fed44a04f777bb1e18ce,64c8016bb1bf89adf14c1089,right,1,0.75,0.5,3,0.004191073,0.5714,48,0,48,0,1,,,,,,,,,,
,,338593,001,2023-07-31_12h47.09.803,arm3_eps,2022.2.5,Win32,59.9880024,614cb3ef28d3b76e2ac82cce,64c7fed44a04f777bb1e18ce,64c8016bb1bf89adf14c1089,right,1,0.75,0.5,3,0.003936494,0.1713,49,0,49,0,1,,,,,,,,,,
space,2.2269,338593,001,2023-07-31_12h47.09.803,arm3_eps,2022.2.5,Win32,59.9880024,614cb3ef28d3b76e2ac82cce,64c7fed44a04f777bb1e18ce,64c8016bb1bf89adf14c1089,,,,,,,,,,,,,,,,,,,,,,
space,4.8226,338593,001,2023-07-31_12h47.09.803,arm3_eps,2022.2.5,Win32,59.9880024,614cb3ef28d3b76e2ac82cce,64c7fed44a04f777bb1e18ce,64c8016bb1bf89adf14c1089,right,1,0.75,0.4357,0,-0.035473016,0.6748,,,,,,0,0,0,0,1,,,,,
,,338593,001,2023-07-31_12h47.09.803,arm3_eps,2022.2.5,Win32,59.9880024,614cb3ef28d3b76e2ac82cce,64c7fed44a04f777bb1e18ce,64c8016bb1bf89adf14c1089,right,1,0.75,0.4357,0,-0.009614557,0.3605,,,,,,1,0,1,0,1,,,,,
,,338593,001,2023-07-31_12h47.09.803,arm3_eps,2022.2.5,Win32,59.9880024,614cb3ef28d3b76e2ac82cce,64c7fed44a04f777bb1e18ce,64c8016bb1bf89adf14c1089,right,1,0.75,0.4357,0,0.025137821,0.2614,,,,,,2,0,2,0,1,,,,,
,,338593,001,2023-07-31_12h47.09.803,arm3_eps,2022.2.5,Win32,59.9880024,614cb3ef28d3b76e2ac82cce,64c7fed44a04f777bb1e18ce,64c8016bb1bf89adf14c1089,right,1,0.75,0.4357,0,0.058297946,0.1681,,,,,,3,0,3,0,1,,,,,
,,338593,001,2023-07-31_12h47.09.803,arm3_eps,2022.2.5,Win32,59.9880024,614cb3ef28d3b76e2ac82cce,64c7fed44a04f777bb1e18ce,64c8016bb1bf89adf14c1089,right,1,0.75,0.4357,0,0.072848253,0.4171,,,,,,4,0,4,0,1,,,,,
,,338593,001,2023-07-31_12h47.09.803,arm3_eps,2022.2.5,Win32,59.9880024,614cb3ef28d3b76e2ac82cce,64c7fed44a04f777bb1e18ce,64c8016bb1bf89adf14c1089,up,-1,0.75,0.4357,1,0,0.6961,,,,,,5,0,5,0,1,,,,,
,,338593,001,2023-07-31_12h47.09.803,arm3_eps,2022.2.5,Win32,59.9880024,614cb3ef28d3b76e2ac82cce,64c7fed44a04f777bb1e18ce,64c8016bb1bf89adf14c1089,right,-1,0.75,0.4357,1,-0.014538377,0.9079,,,,,,6,0,6,0,1,,,,,
,,338593,001,2023-07-31_12h47.09.803,arm3_eps,2022.2.5,Win32,59.9880024,614cb3ef28d3b76e2ac82cce,64c7fed44a04f777bb1e18ce,64c8016bb1bf89adf14c1089,right,-1,0.75,0.4357,1,-0.01600803,0.3169,,,,,,7,0,7,0,1,,,,,
,,338593,001,2023-07-31_12h47.09.803,arm3_eps,2022.2.5,Win32,59.9880024,614cb3ef28d3b76e2ac82cce,64c7fed44a04f777bb1e18ce,64c8016bb1bf89adf14c1089,right,-1,0.75,0.4357,1,0.001958734,0.2156,,,,,,8,0,8,0,1,,,,,
,,338593,001,2023-07-31_12h47.09.803,arm3_eps,2022.2.5,Win32,59.9880024,614cb3ef28d3b76e2ac82cce,64c7fed44a04f777bb1e18ce,64c8016bb1bf89adf14c1089,up,-1,0.75,0.4357,0,0,0.383,,,,,,9,0,9,0,1,,,,,
,,338593,001,2023-07-31_12h47.09.803,arm3_eps,2022.2.5,Win32,59.9880024,614cb3ef28d3b76e2ac82cce,64c7fed44a04f777bb1e18ce,64c8016bb1bf89adf14c1089,down,1,0.75,0.4357,1,0,0.8266,,,,,,10,0,10,0,1,,,,,
,,338593,001,2023-07-31_12h47.09.803,arm3_eps,2022.2.5,Win32,59.9880024,614cb3ef28d3b76e2ac82cce,64c7fed44a04f777bb1e18ce,64c8016bb1bf89adf14c1089,down,1,0.75,0.4357,0,0,0.8033,,,,,,11,0,11,0,1,,,,,
,,338593,001,2023-07-31_12h47.09.803,arm3_eps,2022.2.5,Win32,59.9880024,614cb3ef28d3b76e2ac82cce,64c7fed44a04f777bb1e18ce,64c8016bb1bf89adf14c1089,up,-1,0.75,0.4357,1,0,0.7051,,,,,,12,0,12,0,1,,,,,
,,338593,001,2023-07-31_12h47.09.803,arm3_eps,2022.2.5,Win32,59.9880024,614cb3ef28d3b76e2ac82cce,64c7fed44a04f777bb1e18ce,64c8016bb1bf89adf14c1089,up,-1,0.75,0.4357,0,0,1.3183,,,,,,13,0,13,0,1,,,,,
,,338593,001,2023-07-31_12h47.09.803,arm3_eps,2022.2.5,Win32,59.9880024,614cb3ef28d3b76e2ac82cce,64c7fed44a04f777bb1e18ce,64c8016bb1bf89adf14c1089,right,-1,0.75,0.4357,0,-0.00392226,0.7052,,,,,,14,0,14,0,1,,,,,
,,338593,001,2023-07-31_12h47.09.803,arm3_eps,2022.2.5,Win32,59.9880024,614cb3ef28d3b76e2ac82cce,64c7fed44a04f777bb1e18ce,64c8016bb1bf89adf14c1089,right,-1,0.75,0.4357,0,0.003189435,0.1627,,,,,,15,0,15,0,1,,,,,
,,338593,001,2023-07-31_12h47.09.803,arm3_eps,2022.2.5,Win32,59.9880024,614cb3ef28d3b76e2ac82cce,64c7fed44a04f777bb1e18ce,64c8016bb1bf89adf14c1089,right,-1,0.75,0.4357,0,-0.012170476,0.163,,,,,,16,0,16,0,1,,,,,
,,338593,001,2023-07-31_12h47.09.803,arm3_eps,2022.2.5,Win32,59.9880024,614cb3ef28d3b76e2ac82cce,64c7fed44a04f777bb1e18ce,64c8016bb1bf89adf14c1089,right,-1,0.75,0.4357,0,-0.045100881,0.1631,,,,,,17,0,17,0,1,,,,,
,,338593,001,2023-07-31_12h47.09.803,arm3_eps,2022.2.5,Win32,59.9880024,614cb3ef28d3b76e2ac82cce,64c7fed44a04f777bb1e18ce,64c8016bb1bf89adf14c1089,right,-1,0.75,0.4357,0,-0.032352463,0.1498,,,,,,18,0,18,0,1,,,,,
,,338593,001,2023-07-31_12h47.09.803,arm3_eps,2022.2.5,Win32,59.9880024,614cb3ef28d3b76e2ac82cce,64c7fed44a04f777bb1e18ce,64c8016bb1bf89adf14c1089,right,-1,0.75,0.4357,0,-0.06795592,0.1624,,,,,,19,0,19,0,1,,,,,
,,338593,001,2023-07-31_12h47.09.803,arm3_eps,2022.2.5,Win32,59.9880024,614cb3ef28d3b76e2ac82cce,64c7fed44a04f777bb1e18ce,64c8016bb1bf89adf14c1089,right,-1,0.75,0.4357,0,-0.103125937,0.1609,,,,,,20,0,20,0,1,,,,,
,,338593,001,2023-07-31_12h47.09.803,arm3_eps,2022.2.5,Win32,59.9880024,614cb3ef28d3b76e2ac82cce,64c7fed44a04f777bb1e18ce,64c8016bb1bf89adf14c1089,down,-1,0.75,0.4357,1,0,0.3295,,,,,,21,0,21,0,1,,,,,
,,338593,001,2023-07-31_12h47.09.803,arm3_eps,2022.2.5,Win32,59.9880024,614cb3ef28d3b76e2ac82cce,64c7fed44a04f777bb1e18ce,64c8016bb1bf89adf14c1089,right,-1,0.75,0.4357,1,-0.010323598,0.5599,,,,,,22,0,22,0,1,,,,,
,,338593,001,2023-07-31_12h47.09.803,arm3_eps,2022.2.5,Win32,59.9880024,614cb3ef28d3b76e2ac82cce,64c7fed44a04f777bb1e18ce,64c8016bb1bf89adf14c1089,right,-1,0.75,0.4357,1,-0.013399337,0.1865,,,,,,23,0,23,0,1,,,,,
,,338593,001,2023-07-31_12h47.09.803,arm3_eps,2022.2.5,Win32,59.9880024,614cb3ef28d3b76e2ac82cce,64c7fed44a04f777bb1e18ce,64c8016bb1bf89adf14c1089,right,-1,0.75,0.4357,1,-0.038102219,0.1942,,,,,,24,0,24,0,1,,,,,
,,338593,001,2023-07-31_12h47.09.803,arm3_eps,2022.2.5,Win32,59.9880024,614cb3ef28d3b76e2ac82cce,64c7fed44a04f777bb1e18ce,64c8016bb1bf89adf14c1089,right,-1,0.75,0.4357,1,-0.051753269,0.1462,,,,,,25,0,25,0,1,,,,,
,,338593,001,2023-07-31_12h47.09.803,arm3_eps,2022.2.5,Win32,59.9880024,614cb3ef28d3b76e2ac82cce,64c7fed44a04f777bb1e18ce,64c8016bb1bf89adf14c1089,right,-1,0.75,0.4357,1,-0.043727718,0.171,,,,,,26,0,26,0,1,,,,,
,,338593,001,2023-07-31_12h47.09.803,arm3_eps,2022.2.5,Win32,59.9880024,614cb3ef28d3b76e2ac82cce,64c7fed44a04f777bb1e18ce,64c8016bb1bf89adf14c1089,right,-1,0.75,0.4357,1,-0.064703644,0.1789,,,,,,27,0,27,0,1,,,,,
,,338593,001,2023-07-31_12h47.09.803,arm3_eps,2022.2.5,Win32,59.9880024,614cb3ef28d3b76e2ac82cce,64c7fed44a04f777bb1e18ce,64c8016bb1bf89adf14c1089,down,1,0.75,0.4357,2,0,0.263,,,,,,28,0,28,0,1,,,,,
,,338593,001,2023-07-31_12h47.09.803,arm3_eps,2022.2.5,Win32,59.9880024,614cb3ef28d3b76e2ac82cce,64c7fed44a04f777bb1e18ce,64c8016bb1bf89adf14c1089,right,1,0.75,0.4357,2,0.015289758,0.488,,,,,,29,0,29,0,1,,,,,
,,338593,001,2023-07-31_12h47.09.803,arm3_eps,2022.2.5,Win32,59.9880024,614cb3ef28d3b76e2ac82cce,64c7fed44a04f777bb1e18ce,64c8016bb1bf89adf14c1089,right,1,0.75,0.4357,2,0.023714628,0.1575,,,,,,30,0,30,0,1,,,,,
,,338593,001,2023-07-31_12h47.09.803,arm3_eps,2022.2.5,Win32,59.9880024,614cb3ef28d3b76e2ac82cce,64c7fed44a04f777bb1e18ce,64c8016bb1bf89adf14c1089,right,1,0.75,0.4357,2,0.054705165,0.1643,,,,,,31,0,31,0,1,,,,,
,,338593,001,2023-07-31_12h47.09.803,arm3_eps,2022.2.5,Win32,59.9880024,614cb3ef28d3b76e2ac82cce,64c7fed44a04f777bb1e18ce,64c8016bb1bf89adf14c1089,right,1,0.75,0.4357,2,0.094052387,0.1855,,,,,,32,0,32,0,1,,,,,
,,338593,001,2023-07-31_12h47.09.803,arm3_eps,2022.2.5,Win32,59.9880024,614cb3ef28d3b76e2ac82cce,64c7fed44a04f777bb1e18ce,64c8016bb1bf89adf14c1089,right,1,0.75,0.4357,2,0.119195967,0.1607,,,,,,33,0,33,0,1,,,,,
,,338593,001,2023-07-31_12h47.09.803,arm3_eps,2022.2.5,Win32,59.9880024,614cb3ef28d3b76e2ac82cce,64c7fed44a04f777bb1e18ce,64c8016bb1bf89adf14c1089,up,1,0.75,0.4357,3,0,0.2137,,,,,,34,0,34,0,1,,,,,
,,338593,001,2023-07-31_12h47.09.803,arm3_eps,2022.2.5,Win32,59.9880024,614cb3ef28d3b76e2ac82cce,64c7fed44a04f777bb1e18ce,64c8016bb1bf89adf14c1089,right,1,0.75,0.4357,3,0.009742812,0.5533,,,,,,35,0,35,0,1,,,,,
,,338593,001,2023-07-31_12h47.09.803,arm3_eps,2022.2.5,Win32,59.9880024,614cb3ef28d3b76e2ac82cce,64c7fed44a04f777bb1e18ce,64c8016bb1bf89adf14c1089,right,1,0.75,0.4357,3,0.014861677,0.161,,,,,,36,0,36,0,1,,,,,
,,338593,001,2023-07-31_12h47.09.803,arm3_eps,2022.2.5,Win32,59.9880024,614cb3ef28d3b76e2ac82cce,64c7fed44a04f777bb1e18ce,64c8016bb1bf89adf14c1089,right,1,0.75,0.4357,3,0.03196389,0.1529,,,,,,37,0,37,0,1,,,,,
,,338593,001,2023-07-31_12h47.09.803,arm3_eps,2022.2.5,Win32,59.9880024,614cb3ef28d3b76e2ac82cce,64c7fed44a04f777bb1e18ce,64c8016bb1bf89adf14c1089,right,1,0.75,0.4357,3,0.062199407,0.1659,,,,,,38,0,38,0,1,,,,,
,,338593,001,2023-07-31_12h47.09.803,arm3_eps,2022.2.5,Win32,59.9880024,614cb3ef28d3b76e2ac82cce,64c7fed44a04f777bb1e18ce,64c8016bb1bf89adf14c1089,right,1,0.75,0.4357,3,0.092004419,0.1619,,,,,,39,0,39,0,1,,,,,
,,338593,001,2023-07-31_12h47.09.803,arm3_eps,2022.2.5,Win32,59.9880024,614cb3ef28d3b76e2ac82cce,64c7fed44a04f777bb1e18ce,64c8016bb1bf89adf14c1089,up,-1,0.75,0.4357,4,0,0.1957,,,,,,40,0,40,0,1,,,,,
,,338593,001,2023-07-31_12h47.09.803,arm3_eps,2022.2.5,Win32,59.9880024,614cb3ef28d3b76e2ac82cce,64c7fed44a04f777bb1e18ce,64c8016bb1bf89adf14c1089,right,-1,0.75,0.4357,4,0.003865466,0.3564,,,,,,41,0,41,0,1,,,,,
,,338593,001,2023-07-31_12h47.09.803,arm3_eps,2022.2.5,Win32,59.9880024,614cb3ef28d3b76e2ac82cce,64c7fed44a04f777bb1e18ce,64c8016bb1bf89adf14c1089,right,-1,0.75,0.4357,4,0.003002822,0.311,,,,,,42,0,42,0,1,,,,,
,,338593,001,2023-07-31_12h47.09.803,arm3_eps,2022.2.5,Win32,59.9880024,614cb3ef28d3b76e2ac82cce,64c7fed44a04f777bb1e18ce,64c8016bb1bf89adf14c1089,right,-1,0.75,0.4357,4,0.009853897,0.1665,,,,,,43,0,43,0,1,,,,,
,,338593,001,2023-07-31_12h47.09.803,arm3_eps,2022.2.5,Win32,59.9880024,614cb3ef28d3b76e2ac82cce,64c7fed44a04f777bb1e18ce,64c8016bb1bf89adf14c1089,right,-1,0.75,0.4357,4,0.006894893,0.1685,,,,,,44,0,44,0,1,,,,,
,,338593,001,2023-07-31_12h47.09.803,arm3_eps,2022.2.5,Win32,59.9880024,614cb3ef28d3b76e2ac82cce,64c7fed44a04f777bb1e18ce,64c8016bb1bf89adf14c1089,right,-1,0.75,0.4357,4,-0.020017991,0.1689,,,,,,45,0,45,0,1,,,,,
,,338593,001,2023-07-31_12h47.09.803,arm3_eps,2022.2.5,Win32,59.9880024,614cb3ef28d3b76e2ac82cce,64c7fed44a04f777bb1e18ce,64c8016bb1bf89adf14c1089,right,-1,0.75,0.4357,4,-0.033972042,0.2102,,,,,,46,0,46,0,1,,,,,
,,338593,001,2023-07-31_12h47.09.803,arm3_eps,2022.2.5,Win32,59.9880024,614cb3ef28d3b76e2ac82cce,64c7fed44a04f777bb1e18ce,64c8016bb1bf89adf14c1089,right,-1,0.75,0.4357,4,-0.016751254,0.2094,,,,,,47,0,47,0,1,,,,,
,,338593,001,2023-07-31_12h47.09.803,arm3_eps,2022.2.5,Win32,59.9880024,614cb3ef28d3b76e2ac82cce,64c7fed44a04f777bb1e18ce,64c8016bb1bf89adf14c1089,right,-1,0.75,0.4357,4,-0.028734328,0.1994,,,,,,48,0,48,0,1,,,,,
,,338593,001,2023-07-31_12h47.09.803,arm3_eps,2022.2.5,Win32,59.9880024,614cb3ef28d3b76e2ac82cce,64c7fed44a04f777bb1e18ce,64c8016bb1bf89adf14c1089,right,-1,0.75,0.4357,4,-0.033278965,0.1913,,,,,,49,0,49,0,1,,,,,
,,338593,001,2023-07-31_12h47.09.803,arm3_eps,2022.2.5,Win32,59.9880024,614cb3ef28d3b76e2ac82cce,64c7fed44a04f777bb1e18ce,64c8016bb1bf89adf14c1089,down,-1,0.75,0.4357,5,0,0.432,,,,,,50,0,50,0,1,,,,,
,,338593,001,2023-07-31_12h47.09.803,arm3_eps,2022.2.5,Win32,59.9880024,614cb3ef28d3b76e2ac82cce,64c7fed44a04f777bb1e18ce,64c8016bb1bf89adf14c1089,right,-1,0.75,0.4357,5,-0.046124468,0.6816,,,,,,51,0,51,0,1,,,,,
,,338593,001,2023-07-31_12h47.09.803,arm3_eps,2022.2.5,Win32,59.9880024,614cb3ef28d3b76e2ac82cce,64c7fed44a04f777bb1e18ce,64c8016bb1bf89adf14c1089,right,-1,0.75,0.4357,5,-0.086582314,0.1487,,,,,,52,0,52,0,1,,,,,
,,338593,001,2023-07-31_12h47.09.803,arm3_eps,2022.2.5,Win32,59.9880024,614cb3ef28d3b76e2ac82cce,64c7fed44a04f777bb1e18ce,64c8016bb1bf89adf14c1089,right,-1,0.75,0.4357,5,-0.103784269,0.1641,,,,,,53,0,53,0,1,,,,,
,,338593,001,2023-07-31_12h47.09.803,arm3_eps,2022.2.5,Win32,59.9880024,614cb3ef28d3b76e2ac82cce,64c7fed44a04f777bb1e18ce,64c8016bb1bf89adf14c1089,right,-1,0.75,0.4357,5,-0.075233675,0.1596,,,,,,54,0,54,0,1,,,,,
,,338593,001,2023-07-31_12h47.09.803,arm3_eps,2022.2.5,Win32,59.9880024,614cb3ef28d3b76e2ac82cce,64c7fed44a04f777bb1e18ce,64c8016bb1bf89adf14c1089,right,-1,0.75,0.4357,5,-0.080800343,0.1569,,,,,,55,0,55,0,1,,,,,
,,338593,001,2023-07-31_12h47.09.803,arm3_eps,2022.2.5,Win32,59.9880024,614cb3ef28d3b76e2ac82cce,64c7fed44a04f777bb1e18ce,64c8016bb1bf89adf14c1089,down,-1,0.75,0.4357,6,0,0.7372,,,,,,56,0,56,0,1,,,,,
,,338593,001,2023-07-31_12h47.09.803,arm3_eps,2022.2.5,Win32,59.9880024,614cb3ef28d3b76e2ac82cce,64c7fed44a04f777bb1e18ce,64c8016bb1bf89adf14c1089,right,-1,0.75,0.4357,6,-0.009730124,0.3513,,,,,,57,0,57,0,1,,,,,
,,338593,001,2023-07-31_12h47.09.803,arm3_eps,2022.2.5,Win32,59.9880024,614cb3ef28d3b76e2ac82cce,64c7fed44a04f777bb1e18ce,64c8016bb1bf89adf14c1089,right,-1,0.75,0.4357,6,-0.021742135,0.1735,,,,,,58,0,58,0,1,,,,,
,,338593,001,2023-07-31_12h47.09.803,arm3_eps,2022.2.5,Win32,59.9880024,614cb3ef28d3b76e2ac82cce,64c7fed44a04f777bb1e18ce,64c8016bb1bf89adf14c1089,right,-1,0.75,0.4357,6,-0.042399828,0.1604,,,,,,59,0,59,0,1,,,,,
,,338593,001,2023-07-31_12h47.09.803,arm3_eps,2022.2.5,Win32,59.9880024,614cb3ef28d3b76e2ac82cce,64c7fed44a04f777bb1e18ce,64c8016bb1bf89adf14c1089,right,-1,0.75,0.4357,6,-0.017729403,0.164,,,,,,60,0,60,0,1,,,,,
,,338593,001,2023-07-31_12h47.09.803,arm3_eps,2022.2.5,Win32,59.9880024,614cb3ef28d3b76e2ac82cce,64c7fed44a04f777bb1e18ce,64c8016bb1bf89adf14c1089,right,-1,0.75,0.4357,6,-0.038322321,0.1606,,,,,,61,0,61,0,1,,,,,
,,338593,001,2023-07-31_12h47.09.803,arm3_eps,2022.2.5,Win32,59.9880024,614cb3ef28d3b76e2ac82cce,64c7fed44a04f777bb1e18ce,64c8016bb1bf89adf14c1089,right,-1,0.75,0.4357,6,-0.032274183,0.1603,,,,,,62,0,62,0,1,,,,,
,,338593,001,2023-07-31_12h47.09.803,arm3_eps,2022.2.5,Win32,59.9880024,614cb3ef28d3b76e2ac82cce,64c7fed44a04f777bb1e18ce,64c8016bb1bf89adf14c1089,right,-1,0.75,0.4357,6,-0.043363728,0.1472,,,,,,63,0,63,0,1,,,,,
,,338593,001,2023-07-31_12h47.09.803,arm3_eps,2022.2.5,Win32,59.9880024,614cb3ef28d3b76e2ac82cce,64c7fed44a04f777bb1e18ce,64c8016bb1bf89adf14c1089,down,1,0.75,0.4357,7,0,0.3325,,,,,,64,0,64,0,1,,,,,
,,338593,001,2023-07-31_12h47.09.803,arm3_eps,2022.2.5,Win32,59.9880024,614cb3ef28d3b76e2ac82cce,64c7fed44a04f777bb1e18ce,64c8016bb1bf89adf14c1089,right,1,0.75,0.4357,7,0.017001909,0.3311,,,,,,65,0,65,0,1,,,,,
,,338593,001,2023-07-31_12h47.09.803,arm3_eps,2022.2.5,Win32,59.9880024,614cb3ef28d3b76e2ac82cce,64c7fed44a04f777bb1e18ce,64c8016bb1bf89adf14c1089,right,1,0.75,0.4357,7,0.029360165,0.2003,,,,,,66,0,66,0,1,,,,,
,,338593,001,2023-07-31_12h47.09.803,arm3_eps,2022.2.5,Win32,59.9880024,614cb3ef28d3b76e2ac82cce,64c7fed44a04f777bb1e18ce,64c8016bb1bf89adf14c1089,right,1,0.75,0.4357,7,0.046802541,0.1638,,,,,,67,0,67,0,1,,,,,
,,338593,001,2023-07-31_12h47.09.803,arm3_eps,2022.2.5,Win32,59.9880024,614cb3ef28d3b76e2ac82cce,64c7fed44a04f777bb1e18ce,64c8016bb1bf89adf14c1089,right,1,0.75,0.4357,7,0.048244347,0.1629,,,,,,68,0,68,0,1,,,,,
,,338593,001,2023-07-31_12h47.09.803,arm3_eps,2022.2.5,Win32,59.9880024,614cb3ef28d3b76e2ac82cce,64c7fed44a04f777bb1e18ce,64c8016bb1bf89adf14c1089,right,1,0.75,0.4357,7,0.076013259,0.1611,,,,,,69,0,69,0,1,,,,,
,,338593,001,2023-07-31_12h47.09.803,arm3_eps,2022.2.5,Win32,59.9880024,614cb3ef28d3b76e2ac82cce,64c7fed44a04f777bb1e18ce,64c8016bb1bf89adf14c1089,right,1,0.75,0.4357,7,0.078622784,0.1452,,,,,,70,0,70,0,1,,,,,
,,338593,001,2023-07-31_12h47.09.803,arm3_eps,2022.2.5,Win32,59.9880024,614cb3ef28d3b76e2ac82cce,64c7fed44a04f777bb1e18ce,64c8016bb1bf89adf14c1089,up,-1,0.75,0.4357,8,0,0.2134,,,,,,71,0,71,0,1,,,,,
,,338593,001,2023-07-31_12h47.09.803,arm3_eps,2022.2.5,Win32,59.9880024,614cb3ef28d3b76e2ac82cce,64c7fed44a04f777bb1e18ce,64c8016bb1bf89adf14c1089,right,-1,0.75,0.4357,8,0.02041687,0.3033,,,,,,72,0,72,0,1,,,,,
,,338593,001,2023-07-31_12h47.09.803,arm3_eps,2022.2.5,Win32,59.9880024,614cb3ef28d3b76e2ac82cce,64c7fed44a04f777bb1e18ce,64c8016bb1bf89adf14c1089,right,-1,0.75,0.4357,8,-0.022184587,0.1404,,,,,,73,0,73,0,1,,,,,
,,338593,001,2023-07-31_12h47.09.803,arm3_eps,2022.2.5,Win32,59.9880024,614cb3ef28d3b76e2ac82cce,64c7fed44a04f777bb1e18ce,64c8016bb1bf89adf14c1089,right,-1,0.75,0.4357,8,-0.030830368,0.1509,,,,,,74,0,74,0,1,,,,,
,,338593,001,2023-07-31_12h47.09.803,arm3_eps,2022.2.5,Win32,59.9880024,614cb3ef28d3b76e2ac82cce,64c7fed44a04f777bb1e18ce,64c8016bb1bf89adf14c1089,right,-1,0.75,0.4357,8,-0.017749303,0.1633,,,,,,75,0,75,0,1,,,,,
,,338593,001,2023-07-31_12h47.09.803,arm3_eps,2022.2.5,Win32,59.9880024,614cb3ef28d3b76e2ac82cce,64c7fed44a04f777bb1e18ce,64c8016bb1bf89adf14c1089,right,-1,0.75,0.4357,8,-0.027440077,0.143,,,,,,76,0,76,0,1,,,,,
,,338593,001,2023-07-31_12h47.09.803,arm3_eps,2022.2.5,Win32,59.9880024,614cb3ef28d3b76e2ac82cce,64c7fed44a04f777bb1e18ce,64c8016bb1bf89adf14c1089,right,-1,0.75,0.4357,8,-0.056183173,0.1776,,,,,,77,0,77,0,1,,,,,
,,338593,001,2023-07-31_12h47.09.803,arm3_eps,2022.2.5,Win32,59.9880024,614cb3ef28d3b76e2ac82cce,64c7fed44a04f777bb1e18ce,64c8016bb1bf89adf14c1089,right,-1,0.75,0.4357,8,-0.036558263,0.1607,,,,,,78,0,78,0,1,,,,,
,,338593,001,2023-07-31_12h47.09.803,arm3_eps,2022.2.5,Win32,59.9880024,614cb3ef28d3b76e2ac82cce,64c7fed44a04f777bb1e18ce,64c8016bb1bf89adf14c1089,right,-1,0.75,0.4357,8,-0.054791818,0.1595,,,,,,79,0,79,0,1,,,,,
,,338593,001,2023-07-31_12h47.09.803,arm3_eps,2022.2.5,Win32,59.9880024,614cb3ef28d3b76e2ac82cce,64c7fed44a04f777bb1e18ce,64c8016bb1bf89adf14c1089,down,1,0.75,0.4357,9,0,0.4125,,,,,,80,0,80,0,1,,,,,
,,338593,001,2023-07-31_12h47.09.803,arm3_eps,2022.2.5,Win32,59.9880024,614cb3ef28d3b76e2ac82cce,64c7fed44a04f777bb1e18ce,64c8016bb1bf89adf14c1089,right,1,0.75,0.4357,9,0.002617531,0.3563,,,,,,81,0,81,0,1,,,,,
,,338593,001,2023-07-31_12h47.09.803,arm3_eps,2022.2.5,Win32,59.9880024,614cb3ef28d3b76e2ac82cce,64c7fed44a04f777bb1e18ce,64c8016bb1bf89adf14c1089,right,1,0.75,0.4357,9,0.000133804,0.1578,,,,,,82,0,82,0,1,,,,,
,,338593,001,2023-07-31_12h47.09.803,arm3_eps,2022.2.5,Win32,59.9880024,614cb3ef28d3b76e2ac82cce,64c7fed44a04f777bb1e18ce,64c8016bb1bf89adf14c1089,right,1,0.75,0.4357,9,0.058894908,0.1488,,,,,,83,0,83,0,1,,,,,
,,338593,001,2023-07-31_12h47.09.803,arm3_eps,2022.2.5,Win32,59.9880024,614cb3ef28d3b76e2ac82cce,64c7fed44a04f777bb1e18ce,64c8016bb1bf89adf14c1089,right,1,0.75,0.4357,9,0.065060472,0.1826,,,,,,84,0,84,0,1,,,,,
,,338593,001,2023-07-31_12h47.09.803,arm3_eps,2022.2.5,Win32,59.9880024,614cb3ef28d3b76e2ac82cce,64c7fed44a04f777bb1e18ce,64c8016bb1bf89adf14c1089,right,1,0.75,0.4357,9,0.067951925,0.1476,,,,,,85,0,85,0,1,,,,,
,,338593,001,2023-07-31_12h47.09.803,arm3_eps,2022.2.5,Win32,59.9880024,614cb3ef28d3b76e2ac82cce,64c7fed44a04f777bb1e18ce,64c8016bb1bf89adf14c1089,right,1,0.75,0.4357,9,0.069173129,0.1491,,,,,,86,0,86,0,1,,,,,
,,338593,001,2023-07-31_12h47.09.803,arm3_eps,2022.2.5,Win32,59.9880024,614cb3ef28d3b76e2ac82cce,64c7fed44a04f777bb1e18ce,64c8016bb1bf89adf14c1089,up,1,0.75,0.4357,10,0,0.2332,,,,,,87,0,87,0,1,,,,,
,,338593,001,2023-07-31_12h47.09.803,arm3_eps,2022.2.5,Win32,59.9880024,614cb3ef28d3b76e2ac82cce,64c7fed44a04f777bb1e18ce,64c8016bb1bf89adf14c1089,right,1,0.75,0.4357,10,0.018474353,0.4991,,,,,,88,0,88,0,1,,,,,
,,338593,001,2023-07-31_12h47.09.803,arm3_eps,2022.2.5,Win32,59.9880024,614cb3ef28d3b76e2ac82cce,64c7fed44a04f777bb1e18ce,64c8016bb1bf89adf14c1089,right,1,0.75,0.4357,10,0.028122188,0.1659,,,,,,89,0,89,0,1,,,,,
,,338593,001,2023-07-31_12h47.09.803,arm3_eps,2022.2.5,Win32,59.9880024,614cb3ef28d3b76e2ac82cce,64c7fed44a04f777bb1e18ce,64c8016bb1bf89adf14c1089,right,1,0.75,0.4357,10,0.041509501,0.1778,,,,,,90,0,90,0,1,,,,,
,,338593,001,2023-07-31_12h47.09.803,arm3_eps,2022.2.5,Win32,59.9880024,614cb3ef28d3b76e2ac82cce,64c7fed44a04f777bb1e18ce,64c8016bb1bf89adf14c1089,right,1,0.75,0.4357,10,0.029181075,0.1485,,,,,,91,0,91,0,1,,,,,
,,338593,001,2023-07-31_12h47.09.803,arm3_eps,2022.2.5,Win32,59.9880024,614cb3ef28d3b76e2ac82cce,64c7fed44a04f777bb1e18ce,64c8016bb1bf89adf14c1089,right,1,0.75,0.4357,10,0.033291443,0.1652,,,,,,92,0,92,0,1,,,,,
,,338593,001,2023-07-31_12h47.09.803,arm3_eps,2022.2.5,Win32,59.9880024,614cb3ef28d3b76e2ac82cce,64c7fed44a04f777bb1e18ce,64c8016bb1bf89adf14c1089,right,1,0.75,0.4357,10,0.027656327,0.1801,,,,,,93,0,93,0,1,,,,,
,,338593,001,2023-07-31_12h47.09.803,arm3_eps,2022.2.5,Win32,59.9880024,614cb3ef28d3b76e2ac82cce,64c7fed44a04f777bb1e18ce,64c8016bb1bf89adf14c1089,right,1,0.75,0.4357,10,0.065166376,0.1424,,,,,,94,0,94,0,1,,,,,
,,338593,001,2023-07-31_12h47.09.803,arm3_eps,2022.2.5,Win32,59.9880024,614cb3ef28d3b76e2ac82cce,64c7fed44a04f777bb1e18ce,64c8016bb1bf89adf14c1089,right,1,0.75,0.4357,10,0.068081594,0.4344,,,,,,95,0,95,0,1,,,,,
,,338593,001,2023-07-31_12h47.09.803,arm3_eps,2022.2.5,Win32,59.9880024,614cb3ef28d3b76e2ac82cce,64c7fed44a04f777bb1e18ce,64c8016bb1bf89adf14c1089,up,-1,0.75,0.4357,11,0,0.3322,,,,,,96,0,96,0,1,,,,,
,,338593,001,2023-07-31_12h47.09.803,arm3_eps,2022.2.5,Win32,59.9880024,614cb3ef28d3b76e2ac82cce,64c7fed44a04f777bb1e18ce,64c8016bb1bf89adf14c1089,right,-1,0.75,0.4357,11,-0.038295685,0.282,,,,,,97,0,97,0,1,,,,,
,,338593,001,2023-07-31_12h47.09.803,arm3_eps,2022.2.5,Win32,59.9880024,614cb3ef28d3b76e2ac82cce,64c7fed44a04f777bb1e18ce,64c8016bb1bf89adf14c1089,right,-1,0.75,0.4357,11,-0.071334001,0.1536,,,,,,98,0,98,0,1,,,,,
,,338593,001,2023-07-31_12h47.09.803,arm3_eps,2022.2.5,Win32,59.9880024,614cb3ef28d3b76e2ac82cce,64c7fed44a04f777bb1e18ce,64c8016bb1bf89adf14c1089,right,-1,0.75,0.4357,11,-0.071734567,0.1812,,,,,,99,0,99,0,1,,,,,
,,338593,001,2023-07-31_12h47.09.803,arm3_eps,2022.2.5,Win32,59.9880024,614cb3ef28d3b76e2ac82cce,64c7fed44a04f777bb1e18ce,64c8016bb1bf89adf14c1089,right,-1,0.75,0.4357,11,-0.07659269,0.1661,,,,,,100,0,100,0,1,,,,,
,,338593,001,2023-07-31_12h47.09.803,arm3_eps,2022.2.5,Win32,59.9880024,614cb3ef28d3b76e2ac82cce,64c7fed44a04f777bb1e18ce,64c8016bb1bf89adf14c1089,right,-1,0.75,0.4357,11,-0.09082306,0.1596,,,,,,101,0,101,0,1,,,,,
,,338593,001,2023-07-31_12h47.09.803,arm3_eps,2022.2.5,Win32,59.9880024,614cb3ef28d3b76e2ac82cce,64c7fed44a04f777bb1e18ce,64c8016bb1bf89adf14c1089,right,-1,0.75,0.4357,11,-0.072330608,0.1512,,,,,,102,0,102,0,1,,,,,
,,338593,001,2023-07-31_12h47.09.803,arm3_eps,2022.2.5,Win32,59.9880024,614cb3ef28d3b76e2ac82cce,64c7fed44a04f777bb1e18ce,64c8016bb1bf89adf14c1089,right,-1,0.75,0.4357,11,-0.063694073,0.1681,,,,,,103,0,103,0,1,,,,,
,,338593,001,2023-07-31_12h47.09.803,arm3_eps,2022.2.5,Win32,59.9880024,614cb3ef28d3b76e2ac82cce,64c7fed44a04f777bb1e18ce,64c8016bb1bf89adf14c1089,right,-1,0.75,0.4357,11,-0.057994488,0.1956,,,,,,104,0,104,0,1,,,,,
,,338593,001,2023-07-31_12h47.09.803,arm3_eps,2022.2.5,Win32,59.9880024,614cb3ef28d3b76e2ac82cce,64c7fed44a04f777bb1e18ce,64c8016bb1bf89adf14c1089,right,-1,0.75,0.4357,11,-0.051351613,0.1674,,,,,,105,0,105,0,1,,,,,
,,338593,001,2023-07-31_12h47.09.803,arm3_eps,2022.2.5,Win32,59.9880024,614cb3ef28d3b76e2ac82cce,64c7fed44a04f777bb1e18ce,64c8016bb1bf89adf14c1089,right,-1,0.75,0.4357,11,-0.064852331,0.1774,,,,,,106,0,106,0,1,,,,,
,,338593,001,2023-07-31_12h47.09.803,arm3_eps,2022.2.5,Win32,59.9880024,614cb3ef28d3b76e2ac82cce,64c7fed44a04f777bb1e18ce,64c8016bb1bf89adf14c1089,right,-1,0.75,0.4357,11,-0.075264404,0.1676,,,,,,107,0,107,0,1,,,,,
,,338593,001,2023-07-31_12h47.09.803,arm3_eps,2022.2.5,Win32,59.9880024,614cb3ef28d3b76e2ac82cce,64c7fed44a04f777bb1e18ce,64c8016bb1bf89adf14c1089,right,-1,0.75,0.4357,11,-0.101843466,0.1935,,,,,,108,0,108,0,1,,,,,
,,338593,001,2023-07-31_12h47.09.803,arm3_eps,2022.2.5,Win32,59.9880024,614cb3ef28d3b76e2ac82cce,64c7fed44a04f777bb1e18ce,64c8016bb1bf89adf14c1089,down,-1,0.75,0.4357,12,0,0.632,,,,,,109,0,109,0,1,,,,,
,,338593,001,2023-07-31_12h47.09.803,arm3_eps,2022.2.5,Win32,59.9880024,614cb3ef28d3b76e2ac82cce,64c7fed44a04f777bb1e18ce,64c8016bb1bf89adf14c1089,right,-1,0.75,0.4357,12,-0.001361136,0.3252,,,,,,110,0,110,0,1,,,,,
,,338593,001,2023-07-31_12h47.09.803,arm3_eps,2022.2.5,Win32,59.9880024,614cb3ef28d3b76e2ac82cce,64c7fed44a04f777bb1e18ce,64c8016bb1bf89adf14c1089,right,-1,0.75,0.4357,12,0.00257265,0.1645,,,,,,111,0,111,0,1,,,,,
,,338593,001,2023-07-31_12h47.09.803,arm3_eps,2022.2.5,Win32,59.9880024,614cb3ef28d3b76e2ac82cce,64c7fed44a04f777bb1e18ce,64c8016bb1bf89adf14c1089,right,-1,0.75,0.4357,12,0.010647779,0.1689,,,,,,112,0,112,0,1,,,,,
,,338593,001,2023-07-31_12h47.09.803,arm3_eps,2022.2.5,Win32,59.9880024,614cb3ef28d3b76e2ac82cce,64c7fed44a04f777bb1e18ce,64c8016bb1bf89adf14c1089,right,-1,0.75,0.4357,12,0.01100612,0.1775,,,,,,113,0,113,0,1,,,,,
,,338593,001,2023-07-31_12h47.09.803,arm3_eps,2022.2.5,Win32,59.9880024,614cb3ef28d3b76e2ac82cce,64c7fed44a04f777bb1e18ce,64c8016bb1bf89adf14c1089,right,-1,0.75,0.4357,12,-0.014133831,0.1697,,,,,,114,0,114,0,1,,,,,
,,338593,001,2023-07-31_12h47.09.803,arm3_eps,2022.2.5,Win32,59.9880024,614cb3ef28d3b76e2ac82cce,64c7fed44a04f777bb1e18ce,64c8016bb1bf89adf14c1089,right,-1,0.75,0.4357,12,0.016606398,0.3696,,,,,,115,0,115,0,1,,,,,
,,338593,001,2023-07-31_12h47.09.803,arm3_eps,2022.2.5,Win32,59.9880024,614cb3ef28d3b76e2ac82cce,64c7fed44a04f777bb1e18ce,64c8016bb1bf89adf14c1089,right,-1,0.75,0.4357,12,-0.019213227,0.1626,,,,,,116,0,116,0,1,,,,,
,,338593,001,2023-07-31_12h47.09.803,arm3_eps,2022.2.5,Win32,59.9880024,614cb3ef28d3b76e2ac82cce,64c7fed44a04f777bb1e18ce,64c8016bb1bf89adf14c1089,right,-1,0.75,0.4357,12,-0.029867897,0.1793,,,,,,117,0,117,0,1,,,,,
,,338593,001,2023-07-31_12h47.09.803,arm3_eps,2022.2.5,Win32,59.9880024,614cb3ef28d3b76e2ac82cce,64c7fed44a04f777bb1e18ce,64c8016bb1bf89adf14c1089,right,-1,0.75,0.4357,12,-0.049920425,0.1859,,,,,,118,0,118,0,1,,,,,
,,338593,001,2023-07-31_12h47.09.803,arm3_eps,2022.2.5,Win32,59.9880024,614cb3ef28d3b76e2ac82cce,64c7fed44a04f777bb1e18ce,64c8016bb1bf89adf14c1089,down,-1,0.75,0.4357,13,0,0.6667,,,,,,119,0,119,0,1,,,,,
,,338593,001,2023-07-31_12h47.09.803,arm3_eps,2022.2.5,Win32,59.9880024,614cb3ef28d3b76e2ac82cce,64c7fed44a04f777bb1e18ce,64c8016bb1bf89adf14c1089,right,-1,0.75,0.4357,13,0.01149106,0.3919,,,,,,120,0,120,0,1,,,,,
,,338593,001,2023-07-31_12h47.09.803,arm3_eps,2022.2.5,Win32,59.9880024,614cb3ef28d3b76e2ac82cce,64c7fed44a04f777bb1e18ce,64c8016bb1bf89adf14c1089,right,-1,0.75,0.4357,13,0.005418199,0.1627,,,,,,121,0,121,0,1,,,,,
,,338593,001,2023-07-31_12h47.09.803,arm3_eps,2022.2.5,Win32,59.9880024,614cb3ef28d3b76e2ac82cce,64c7fed44a04f777bb1e18ce,64c8016bb1bf89adf14c1089,right,-1,0.75,0.4357,13,-0.003789458,0.1614,,,,,,122,0,122,0,1,,,,,
,,338593,001,2023-07-31_12h47.09.803,arm3_eps,2022.2.5,Win32,59.9880024,614cb3ef28d3b76e2ac82cce,64c7fed44a04f777bb1e18ce,64c8016bb1bf89adf14c1089,right,-1,0.75,0.4357,13,-0.012851796,0.1616,,,,,,123,0,123,0,1,,,,,
,,338593,001,2023-07-31_12h47.09.803,arm3_eps,2022.2.5,Win32,59.9880024,614cb3ef28d3b76e2ac82cce,64c7fed44a04f777bb1e18ce,64c8016bb1bf89adf14c1089,right,-1,0.75,0.4357,13,-0.022419808,0.1528,,,,,,124,0,124,0,1,,,,,
,,338593,001,2023-07-31_12h47.09.803,arm3_eps,2022.2.5,Win32,59.9880024,614cb3ef28d3b76e2ac82cce,64c7fed44a04f777bb1e18ce,64c8016bb1bf89adf14c1089,right,-1,0.75,0.4357,13,-0.052530432,0.154,,,,,,125,0,125,0,1,,,,,
,,338593,001,2023-07-31_12h47.09.803,arm3_eps,2022.2.5,Win32,59.9880024,614cb3ef28d3b76e2ac82cce,64c7fed44a04f777bb1e18ce,64c8016bb1bf89adf14c1089,down,-1,0.75,0.4357,14,0,0.1778,,,,,,126,0,126,0,1,,,,,
,,338593,001,2023-07-31_12h47.09.803,arm3_eps,2022.2.5,Win32,59.9880024,614cb3ef28d3b76e2ac82cce,64c7fed44a04f777bb1e18ce,64c8016bb1bf89adf14c1089,right,-1,0.75,0.4357,14,0.014284886,0.2843,,,,,,127,0,127,0,1,,,,,
,,338593,001,2023-07-31_12h47.09.803,arm3_eps,2022.2.5,Win32,59.9880024,614cb3ef28d3b76e2ac82cce,64c7fed44a04f777bb1e18ce,64c8016bb1bf89adf14c1089,right,-1,0.75,0.4357,14,0.027949018,0.1505,,,,,,128,0,128,0,1,,,,,
,,338593,001,2023-07-31_12h47.09.803,arm3_eps,2022.2.5,Win32,59.9880024,614cb3ef28d3b76e2ac82cce,64c7fed44a04f777bb1e18ce,64c8016bb1bf89adf14c1089,right,-1,0.75,0.4357,14,0.032045508,0.1671,,,,,,129,0,129,0,1,,,,,
,,338593,001,2023-07-31_12h47.09.803,arm3_eps,2022.2.5,Win32,59.9880024,614cb3ef28d3b76e2ac82cce,64c7fed44a04f777bb1e18ce,64c8016bb1bf89adf14c1089,right,-1,0.75,0.4357,14,0.04648642,0.1514,,,,,,130,0,130,0,1,,,,,
,,338593,001,2023-07-31_12h47.09.803,arm3_eps,2022.2.5,Win32,59.9880024,614cb3ef28d3b76e2ac82cce,64c7fed44a04f777bb1e18ce,64c8016bb1bf89adf14c1089,right,-1,0.75,0.4357,14,0.011449394,0.1561,,,,,,131,0,131,0,1,,,,,
,,338593,001,2023-07-31_12h47.09.803,arm3_eps,2022.2.5,Win32,59.9880024,614cb3ef28d3b76e2ac82cce,64c7fed44a04f777bb1e18ce,64c8016bb1bf89adf14c1089,right,-1,0.75,0.4357,14,-0.008405798,0.1733,,,,,,132,0,132,0,1,,,,,
,,338593,001,2023-07-31_12h47.09.803,arm3_eps,2022.2.5,Win32,59.9880024,614cb3ef28d3b76e2ac82cce,64c7fed44a04f777bb1e18ce,64c8016bb1bf89adf14c1089,right,-1,0.75,0.4357,14,0.007650413,0.1607,,,,,,133,0,133,0,1,,,,,
,,338593,001,2023-07-31_12h47.09.803,arm3_eps,2022.2.5,Win32,59.9880024,614cb3ef28d3b76e2ac82cce,64c7fed44a04f777bb1e18ce,64c8016bb1bf89adf14c1089,right,-1,0.75,0.4357,14,0.03309734,0.1532,,,,,,134,0,134,0,1,,,,,
,,338593,001,2023-07-31_12h47.09.803,arm3_eps,2022.2.5,Win32,59.9880024,614cb3ef28d3b76e2ac82cce,64c7fed44a04f777bb1e18ce,64c8016bb1bf89adf14c1089,right,-1,0.75,0.4357,14,0.017914846,0.17,,,,,,135,0,135,0,1,,,,,
,,338593,001,2023-07-31_12h47.09.803,arm3_eps,2022.2.5,Win32,59.9880024,614cb3ef28d3b76e2ac82cce,64c7fed44a04f777bb1e18ce,64c8016bb1bf89adf14c1089,right,-1,0.75,0.4357,14,-0.002312028,0.394,,,,,,136,0,136,0,1,,,,,
,,338593,001,2023-07-31_12h47.09.803,arm3_eps,2022.2.5,Win32,59.9880024,614cb3ef28d3b76e2ac82cce,64c7fed44a04f777bb1e18ce,64c8016bb1bf89adf14c1089,down,-1,0.75,0.4357,15,0,0.4672,,,,,,137,0,137,0,1,,,,,
,,338593,001,2023-07-31_12h47.09.803,arm3_eps,2022.2.5,Win32,59.9880024,614cb3ef28d3b76e2ac82cce,64c7fed44a04f777bb1e18ce,64c8016bb1bf89adf14c1089,right,-1,0.75,0.4357,15,-0.011948406,0.3529,,,,,,138,0,138,0,1,,,,,
,,338593,001,2023-07-31_12h47.09.803,arm3_eps,2022.2.5,Win32,59.9880024,614cb3ef28d3b76e2ac82cce,64c7fed44a04f777bb1e18ce,64c8016bb1bf89adf14c1089,right,-1,0.75,0.4357,15,-0.00860751,0.1673,,,,,,139,0,139,0,1,,,,,
,,338593,001,2023-07-31_12h47.09.803,arm3_eps,2022.2.5,Win32,59.9880024,614cb3ef28d3b76e2ac82cce,64c7fed44a04f777bb1e18ce,64c8016bb1bf89adf14c1089,right,-1,0.75,0.4357,15,-0.018380672,0.1561,,,,,,140,0,140,0,1,,,,,
,,338593,001,2023-07-31_12h47.09.803,arm3_eps,2022.2.5,Win32,59.9880024,614cb3ef28d3b76e2ac82cce,64c7fed44a04f777bb1e18ce,64c8016bb1bf89adf14c1089,right,-1,0.75,0.4357,15,-0.012218928,0.1814,,,,,,141,0,141,0,1,,,,,
,,338593,001,2023-07-31_12h47.09.803,arm3_eps,2022.2.5,Win32,59.9880024,614cb3ef28d3b76e2ac82cce,64c7fed44a04f777bb1e18ce,64c8016bb1bf89adf14c1089,right,-1,0.75,0.4357,15,-0.050297495,0.1543,,,,,,142,0,142,0,1,,,,,
,,338593,001,2023-07-31_12h47.09.803,arm3_eps,2022.2.5,Win32,59.9880024,614cb3ef28d3b76e2ac82cce,64c7fed44a04f777bb1e18ce,64c8016bb1bf89adf14c1089,right,-1,0.75,0.4357,15,-0.029158691,0.1838,,,,,,143,0,143,0,1,,,,,
,,338593,001,2023-07-31_12h47.09.803,arm3_eps,2022.2.5,Win32,59.9880024,614cb3ef28d3b76e2ac82cce,64c7fed44a04f777bb1e18ce,64c8016bb1bf89adf14c1089,down,-1,0.75,0.4357,15,0,0.2336,,,,,,144,0,144,0,1,,,,,
,,338593,001,2023-07-31_12h47.09.803,arm3_eps,2022.2.5,Win32,59.9880024,614cb3ef28d3b76e2ac82cce,64c7fed44a04f777bb1e18ce,64c8016bb1bf89adf14c1089,right,-1,0.75,0.4357,15,-0.028491442,0.255,,,,,,145,0,145,0,1,,,,,
,,338593,001,2023-07-31_12h47.09.803,arm3_eps,2022.2.5,Win32,59.9880024,614cb3ef28d3b76e2ac82cce,64c7fed44a04f777bb1e18ce,64c8016bb1bf89adf14c1089,right,-1,0.75,0.4357,15,-0.021653799,0.5674,,,,,,146,0,146,0,1,,,,,
,,338593,001,2023-07-31_12h47.09.803,arm3_eps,2022.2.5,Win32,59.9880024,614cb3ef28d3b76e2ac82cce,64c7fed44a04f777bb1e18ce,64c8016bb1bf89adf14c1089,right,-1,0.75,0.4357,15,-0.001884458,0.156,,,,,,147,0,147,0,1,,,,,
,,338593,001,2023-07-31_12h47.09.803,arm3_eps,2022.2.5,Win32,59.9880024,614cb3ef28d3b76e2ac82cce,64c7fed44a04f777bb1e18ce,64c8016bb1bf89adf14c1089,right,-1,0.75,0.4357,15,0.017521991,0.167,,,,,,148,0,148,0,1,,,,,
,,338593,001,2023-07-31_12h47.09.803,arm3_eps,2022.2.5,Win32,59.9880024,614cb3ef28d3b76e2ac82cce,64c7fed44a04f777bb1e18ce,64c8016bb1bf89adf14c1089,right,-1,0.75,0.4357,15,0.007752618,0.1839,,,,,,149,0,149,0,1,,,,,
,,338593,001,2023-07-31_12h47.09.803,arm3_eps,2022.2.5,Win32,59.9880024,614cb3ef28d3b76e2ac82cce,64c7fed44a04f777bb1e18ce,64c8016bb1bf89adf14c1089,right,-1,0.75,0.4357,15,-0.014949479,0.1513,,,,,,150,0,150,0,1,,,,,
,,338593,001,2023-07-31_12h47.09.803,arm3_eps,2022.2.5,Win32,59.9880024,614cb3ef28d3b76e2ac82cce,64c7fed44a04f777bb1e18ce,64c8016bb1bf89adf14c1089,right,-1,0.75,0.4357,15,-0.024701498,0.1814,,,,,,151,0,151,0,1,,,,,
,,338593,001,2023-07-31_12h47.09.803,arm3_eps,2022.2.5,Win32,59.9880024,614cb3ef28d3b76e2ac82cce,64c7fed44a04f777bb1e18ce,64c8016bb1bf89adf14c1089,right,-1,0.75,0.4357,15,-0.064479566,0.1574,,,,,,152,0,152,0,1,,,,,
,,338593,001,2023-07-31_12h47.09.803,arm3_eps,2022.2.5,Win32,59.9880024,614cb3ef28d3b76e2ac82cce,64c7fed44a04f777bb1e18ce,64c8016bb1bf89adf14c1089,right,-1,0.75,0.4357,15,-0.070066893,0.1741,,,,,,153,0,153,0,1,,,,,
,,338593,001,2023-07-31_12h47.09.803,arm3_eps,2022.2.5,Win32,59.9880024,614cb3ef28d3b76e2ac82cce,64c7fed44a04f777bb1e18ce,64c8016bb1bf89adf14c1089,right,-1,0.75,0.4357,15,-0.103061547,0.1499,,,,,,154,0,154,0,1,,,,,
,,338593,001,2023-07-31_12h47.09.803,arm3_eps,2022.2.5,Win32,59.9880024,614cb3ef28d3b76e2ac82cce,64c7fed44a04f777bb1e18ce,64c8016bb1bf89adf14c1089,down,-1,0.75,0.4357,16,0,0.1678,,,,,,155,0,155,0,1,,,,,
,,338593,001,2023-07-31_12h47.09.803,arm3_eps,2022.2.5,Win32,59.9880024,614cb3ef28d3b76e2ac82cce,64c7fed44a04f777bb1e18ce,64c8016bb1bf89adf14c1089,right,-1,0.75,0.4357,16,-0.024036391,0.2994,,,,,,156,0,156,0,1,,,,,
,,338593,001,2023-07-31_12h47.09.803,arm3_eps,2022.2.5,Win32,59.9880024,614cb3ef28d3b76e2ac82cce,64c7fed44a04f777bb1e18ce,64c8016bb1bf89adf14c1089,right,-1,0.75,0.4357,16,-0.066478904,0.1547,,,,,,157,0,157,0,1,,,,,
,,338593,001,2023-07-31_12h47.09.803,arm3_eps,2022.2.5,Win32,59.9880024,614cb3ef28d3b76e2ac82cce,64c7fed44a04f777bb1e18ce,64c8016bb1bf89adf14c1089,right,-1,0.75,0.4357,16,-0.066528182,0.1516,,,,,,158,0,158,0,1,,,,,
,,338593,001,2023-07-31_12h47.09.803,arm3_eps,2022.2.5,Win32,59.9880024,614cb3ef28d3b76e2ac82cce,64c7fed44a04f777bb1e18ce,64c8016bb1bf89adf14c1089,right,-1,0.75,0.4357,16,-0.062832525,0.1565,,,,,,159,0,159,0,1,,,,,
,,338593,001,2023-07-31_12h47.09.803,arm3_eps,2022.2.5,Win32,59.9880024,614cb3ef28d3b76e2ac82cce,64c7fed44a04f777bb1e18ce,64c8016bb1bf89adf14c1089,right,-1,0.75,0.4357,16,-0.079408115,0.1567,,,,,,160,0,160,0,1,,,,,
,,338593,001,2023-07-31_12h47.09.803,arm3_eps,2022.2.5,Win32,59.9880024,614cb3ef28d3b76e2ac82cce,64c7fed44a04f777bb1e18ce,64c8016bb1bf89adf14c1089,down,-1,0.75,0.4357,17,0,0.3094,,,,,,161,0,161,0,1,,,,,
,,338593,001,2023-07-31_12h47.09.803,arm3_eps,2022.2.5,Win32,59.9880024,614cb3ef28d3b76e2ac82cce,64c7fed44a04f777bb1e18ce,64c8016bb1bf89adf14c1089,right,-1,0.75,0.4357,17,0.011998482,0.2017,,,,,,162,0,162,0,1,,,,,
,,338593,001,2023-07-31_12h47.09.803,arm3_eps,2022.2.5,Win32,59.9880024,614cb3ef28d3b76e2ac82cce,64c7fed44a04f777bb1e18ce,64c8016bb1bf89adf14c1089,right,-1,0.75,0.4357,17,0.017817343,0.1426,,,,,,163,0,163,0,1,,,,,
,,338593,001,2023-07-31_12h47.09.803,arm3_eps,2022.2.5,Win32,59.9880024,614cb3ef28d3b76e2ac82cce,64c7fed44a04f777bb1e18ce,64c8016bb1bf89adf14c1089,right,-1,0.75,0.4357,17,0.030152873,0.176,,,,,,164,0,164,0,1,,,,,
,,338593,001,2023-07-31_12h47.09.803,arm3_eps,2022.2.5,Win32,59.9880024,614cb3ef28d3b76e2ac82cce,64c7fed44a04f777bb1e18ce,64c8016bb1bf89adf14c1089,right,-1,0.75,0.4357,17,0.008807177,0.1674,,,,,,165,0,165,0,1,,,,,
,,338593,001,2023-07-31_12h47.09.803,arm3_eps,2022.2.5,Win32,59.9880024,614cb3ef28d3b76e2ac82cce,64c7fed44a04f777bb1e18ce,64c8016bb1bf89adf14c1089,right,-1,0.75,0.4357,17,-0.014048128,0.4684,,,,,,166,0,166,0,1,,,,,
,,338593,001,2023-07-31_12h47.09.803,arm3_eps,2022.2.5,Win32,59.9880024,614cb3ef28d3b76e2ac82cce,64c7fed44a04f777bb1e18ce,64c8016bb1bf89adf14c1089,right,-1,0.75,0.4357,17,0.004198191,0.1505,,,,,,167,0,167,0,1,,,,,
,,338593,001,2023-07-31_12h47.09.803,arm3_eps,2022.2.5,Win32,59.9880024,614cb3ef28d3b76e2ac82cce,64c7fed44a04f777bb1e18ce,64c8016bb1bf89adf14c1089,right,-1,0.75,0.4357,17,-0.019205215,0.3173,,,,,,168,0,168,0,1,,,,,
,,338593,001,2023-07-31_12h47.09.803,arm3_eps,2022.2.5,Win32,59.9880024,614cb3ef28d3b76e2ac82cce,64c7fed44a04f777bb1e18ce,64c8016bb1bf89adf14c1089,right,-1,0.75,0.4357,17,-0.038939909,0.1479,,,,,,169,0,169,0,1,,,,,
,,338593,001,2023-07-31_12h47.09.803,arm3_eps,2022.2.5,Win32,59.9880024,614cb3ef28d3b76e2ac82cce,64c7fed44a04f777bb1e18ce,64c8016bb1bf89adf14c1089,down,1,0.75,0.4357,18,0,0.2683,,,,,,170,0,170,0,1,,,,,
,,338593,001,2023-07-31_12h47.09.803,arm3_eps,2022.2.5,Win32,59.9880024,614cb3ef28d3b76e2ac82cce,64c7fed44a04f777bb1e18ce,64c8016bb1bf89adf14c1089,right,1,0.75,0.4357,18,0.012196669,0.2702,,,,,,171,0,171,0,1,,,,,
,,338593,001,2023-07-31_12h47.09.803,arm3_eps,2022.2.5,Win32,59.9880024,614cb3ef28d3b76e2ac82cce,64c7fed44a04f777bb1e18ce,64c8016bb1bf89adf14c1089,right,1,0.75,0.4357,18,0.019875564,0.1378,,,,,,172,0,172,0,1,,,,,
,,338593,001,2023-07-31_12h47.09.803,arm3_eps,2022.2.5,Win32,59.9880024,614cb3ef28d3b76e2ac82cce,64c7fed44a04f777bb1e18ce,64c8016bb1bf89adf14c1089,right,1,0.75,0.4357,18,0.038037774,0.1668,,,,,,173,0,173,0,1,,,,,
,,338593,001,2023-07-31_12h47.09.803,arm3_eps,2022.2.5,Win32,59.9880024,614cb3ef28d3b76e2ac82cce,64c7fed44a04f777bb1e18ce,64c8016bb1bf89adf14c1089,right,1,0.75,0.4357,18,0.043175506,0.1505,,,,,,174,0,174,0,1,,,,,
,,338593,001,2023-07-31_12h47.09.803,arm3_eps,2022.2.5,Win32,59.9880024,614cb3ef28d3b76e2ac82cce,64c7fed44a04f777bb1e18ce,64c8016bb1bf89adf14c1089,right,1,0.75,0.4357,18,0.015233736,0.1398,,,,,,175,0,175,0,1,,,,,
,,338593,001,2023-07-31_12h47.09.803,arm3_eps,2022.2.5,Win32,59.9880024,614cb3ef28d3b76e2ac82cce,64c7fed44a04f777bb1e18ce,64c8016bb1bf89adf14c1089,down,1,0.75,0.4357,17,0,0.245,,,,,,176,0,176,0,1,,,,,
,,338593,001,2023-07-31_12h47.09.803,arm3_eps,2022.2.5,Win32,59.9880024,614cb3ef28d3b76e2ac82cce,64c7fed44a04f777bb1e18ce,64c8016bb1bf89adf14c1089,right,1,0.75,0.4357,17,-0.011917021,0.3182,,,,,,177,0,177,0,1,,,,,
,,338593,001,2023-07-31_12h47.09.803,arm3_eps,2022.2.5,Win32,59.9880024,614cb3ef28d3b76e2ac82cce,64c7fed44a04f777bb1e18ce,64c8016bb1bf89adf14c1089,right,1,0.75,0.4357,17,0.039256664,0.3406,,,,,,178,0,178,0,1,,,,,
,,338593,001,2023-07-31_12h47.09.803,arm3_eps,2022.2.5,Win32,59.9880024,614cb3ef28d3b76e2ac82cce,64c7fed44a04f777bb1e18ce,64c8016bb1bf89adf14c1089,right,1,0.75,0.4357,17,0.059324349,0.158,,,,,,179,0,179,0,1,,,,,
,,338593,001,2023-07-31_12h47.09.803,arm3_eps,2022.2.5,Win32,59.9880024,614cb3ef28d3b76e2ac82cce,64c7fed44a04f777bb1e18ce,64c8016bb1bf89adf14c1089,right,1,0.75,0.4357,17,0.058511184,0.1348,,,,,,180,0,180,0,1,,,,,
,,338593,001,2023-07-31_12h47.09.803,arm3_eps,2022.2.5,Win32,59.9880024,614cb3ef28d3b76e2ac82cce,64c7fed44a04f777bb1e18ce,64c8016bb1bf89adf14c1089,right,1,0.75,0.4357,17,0.05378089,0.1842,,,,,,181,0,181,0,1,,,,,
,,338593,001,2023-07-31_12h47.09.803,arm3_eps,2022.2.5,Win32,59.9880024,614cb3ef28d3b76e2ac82cce,64c7fed44a04f777bb1e18ce,64c8016bb1bf89adf14c1089,up,1,0.75,0.4357,17,0,0.208,,,,,,182,0,182,0,1,,,,,
,,338593,001,2023-07-31_12h47.09.803,arm3_eps,2022.2.5,Win32,59.9880024,614cb3ef28d3b76e2ac82cce,64c7fed44a04f777bb1e18ce,64c8016bb1bf89adf14c1089,right,1,0.75,0.4357,17,-0.007023053,0.2785,,,,,,183,0,183,0,1,,,,,
,,338593,001,2023-07-31_12h47.09.803,arm3_eps,2022.2.5,Win32,59.9880024,614cb3ef28d3b76e2ac82cce,64c7fed44a04f777bb1e18ce,64c8016bb1bf89adf14c1089,right,1,0.75,0.4357,17,0.016219347,0.184,,,,,,184,0,184,0,1,,,,,
,,338593,001,2023-07-31_12h47.09.803,arm3_eps,2022.2.5,Win32,59.9880024,614cb3ef28d3b76e2ac82cce,64c7fed44a04f777bb1e18ce,64c8016bb1bf89adf14c1089,right,1,0.75,0.4357,17,0.029824674,0.1518,,,,,,185,0,185,0,1,,,,,
,,338593,001,2023-07-31_12h47.09.803,arm3_eps,2022.2.5,Win32,59.9880024,614cb3ef28d3b76e2ac82cce,64c7fed44a04f777bb1e18ce,64c8016bb1bf89adf14c1089,right,1,0.75,0.4357,17,0.05089963,0.1815,,,,,,186,0,186,0,1,,,,,
,,338593,001,2023-07-31_12h47.09.803,arm3_eps,2022.2.5,Win32,59.9880024,614cb3ef28d3b76e2ac82cce,64c7fed44a04f777bb1e18ce,64c8016bb1bf89adf14c1089,up,1,0.75,0.4357,18,0,0.6908,,,,,,187,0,187,0,1,,,,,
,,338593,001,2023-07-31_12h47.09.803,arm3_eps,2022.2.5,Win32,59.9880024,614cb3ef28d3b76e2ac82cce,64c7fed44a04f777bb1e18ce,64c8016bb1bf89adf14c1089,right,1,0.75,0.4357,18,-0.008598856,0.3513,,,,,,188,0,188,0,1,,,,,
,,338593,001,2023-07-31_12h47.09.803,arm3_eps,2022.2.5,Win32,59.9880024,614cb3ef28d3b76e2ac82cce,64c7fed44a04f777bb1e18ce,64c8016bb1bf89adf14c1089,right,1,0.75,0.4357,18,-0.003854779,0.1433,,,,,,189,0,189,0,1,,,,,
,,338593,001,2023-07-31_12h47.09.803,arm3_eps,2022.2.5,Win32,59.9880024,614cb3ef28d3b76e2ac82cce,64c7fed44a04f777bb1e18ce,64c8016bb1bf89adf14c1089,right,1,0.75,0.4357,18,-0.006907054,0.1841,,,,,,190,0,190,0,1,,,,,
,,338593,001,2023-07-31_12h47.09.803,arm3_eps,2022.2.5,Win32,59.9880024,614cb3ef28d3b76e2ac82cce,64c7fed44a04f777bb1e18ce,64c8016bb1bf89adf14c1089,down,-1,0.75,0.4357,17,0,0.6004,,,,,,191,0,191,0,1,,,,,
,,338593,001,2023-07-31_12h47.09.803,arm3_eps,2022.2.5,Win32,59.9880024,614cb3ef28d3b76e2ac82cce,64c7fed44a04f777bb1e18ce,64c8016bb1bf89adf14c1089,right,-1,0.75,0.4357,17,-0.00970024,0.6852,,,,,,192,0,192,0,1,,,,,
,,338593,001,2023-07-31_12h47.09.803,arm3_eps,2022.2.5,Win32,59.9880024,614cb3ef28d3b76e2ac82cce,64c7fed44a04f777bb1e18ce,64c8016bb1bf89adf14c1089,right,-1,0.75,0.4357,17,-0.010468492,0.1393,,,,,,193,0,193,0,1,,,,,
,,338593,001,2023-07-31_12h47.09.803,arm3_eps,2022.2.5,Win32,59.9880024,614cb3ef28d3b76e2ac82cce,64c7fed44a04f777bb1e18ce,64c8016bb1bf89adf14c1089,right,-1,0.75,0.4357,17,-0.00388444,0.1513,,,,,,194,0,194,0,1,,,,,
,,338593,001,2023-07-31_12h47.09.803,arm3_eps,2022.2.5,Win32,59.9880024,614cb3ef28d3b76e2ac82cce,64c7fed44a04f777bb1e18ce,64c8016bb1bf89adf14c1089,up,-1,0.75,0.4357,16,0,0.4147,,,,,,195,0,195,0,1,,,,,
,,338593,001,2023-07-31_12h47.09.803,arm3_eps,2022.2.5,Win32,59.9880024,614cb3ef28d3b76e2ac82cce,64c7fed44a04f777bb1e18ce,64c8016bb1bf89adf14c1089,right,-1,0.75,0.4357,16,-0.002835986,0.5159,,,,,,196,0,196,0,1,,,,,
,,338593,001,2023-07-31_12h47.09.803,arm3_eps,2022.2.5,Win32,59.9880024,614cb3ef28d3b76e2ac82cce,64c7fed44a04f777bb1e18ce,64c8016bb1bf89adf14c1089,right,-1,0.75,0.4357,16,-0.034185603,0.1504,,,,,,197,0,197,0,1,,,,,
,,338593,001,2023-07-31_12h47.09.803,arm3_eps,2022.2.5,Win32,59.9880024,614cb3ef28d3b76e2ac82cce,64c7fed44a04f777bb1e18ce,64c8016bb1bf89adf14c1089,down,1,0.75,0.4357,17,0,0.2398,,,,,,198,0,198,0,1,,,,,
,,338593,001,2023-07-31_12h47.09.803,arm3_eps,2022.2.5,Win32,59.9880024,614cb3ef28d3b76e2ac82cce,64c7fed44a04f777bb1e18ce,64c8016bb1bf89adf14c1089,down,1,0.75,0.4357,16,0,0.9087,,,,,,199,0,199,0,1,,,,,
,,338593,001,2023-07-31_12h47.09.803,arm3_eps,2022.2.5,Win32,59.9880024,614cb3ef28d3b76e2ac82cce,64c7fed44a04f777bb1e18ce,64c8016bb1bf89adf14c1089,right,1,0.75,0.4357,16,0.016845713,0.6954,,,,,,200,0,200,0,1,,,,,
,,338593,001,2023-07-31_12h47.09.803,arm3_eps,2022.2.5,Win32,59.9880024,614cb3ef28d3b76e2ac82cce,64c7fed44a04f777bb1e18ce,64c8016bb1bf89adf14c1089,right,1,0.75,0.4357,16,0.052602226,0.1665,,,,,,201,0,201,0,1,,,,,
,,338593,001,2023-07-31_12h47.09.803,arm3_eps,2022.2.5,Win32,59.9880024,614cb3ef28d3b76e2ac82cce,64c7fed44a04f777bb1e18ce,64c8016bb1bf89adf14c1089,right,1,0.75,0.4357,16,0.0608316,0.1835,,,,,,202,0,202,0,1,,,,,
,,338593,001,2023-07-31_12h47.09.803,arm3_eps,2022.2.5,Win32,59.9880024,614cb3ef28d3b76e2ac82cce,64c7fed44a04f777bb1e18ce,64c8016bb1bf89adf14c1089,right,1,0.75,0.4357,16,0.081839044,0.167,,,,,,203,0,203,0,1,,,,,
,,338593,001,2023-07-31_12h47.09.803,arm3_eps,2022.2.5,Win32,59.9880024,614cb3ef28d3b76e2ac82cce,64c7fed44a04f777bb1e18ce,64c8016bb1bf89adf14c1089,right,1,0.75,0.4357,16,0.130803448,0.1719,,,,,,204,0,204,0,1,,,,,
,,338593,001,2023-07-31_12h47.09.803,arm3_eps,2022.2.5,Win32,59.9880024,614cb3ef28d3b76e2ac82cce,64c7fed44a04f777bb1e18ce,64c8016bb1bf89adf14c1089,up,-1,0.75,0.4357,17,0,0.2172,,,,,,205,0,205,0,1,,,,,
,,338593,001,2023-07-31_12h47.09.803,arm3_eps,2022.2.5,Win32,59.9880024,614cb3ef28d3b76e2ac82cce,64c7fed44a04f777bb1e18ce,64c8016bb1bf89adf14c1089,right,-1,0.75,0.4357,17,-0.024266181,0.3687,,,,,,206,0,206,0,1,,,,,
,,338593,001,2023-07-31_12h47.09.803,arm3_eps,2022.2.5,Win32,59.9880024,614cb3ef28d3b76e2ac82cce,64c7fed44a04f777bb1e18ce,64c8016bb1bf89adf14c1089,right,-1,0.75,0.4357,17,-0.060940239,0.9672,,,,,,207,0,207,0,1,,,,,
,,338593,001,2023-07-31_12h47.09.803,arm3_eps,2022.2.5,Win32,59.9880024,614cb3ef28d3b76e2ac82cce,64c7fed44a04f777bb1e18ce,64c8016bb1bf89adf14c1089,right,-1,0.75,0.4357,17,-0.043846525,0.1557,,,,,,208,0,208,0,1,,,,,
,,338593,001,2023-07-31_12h47.09.803,arm3_eps,2022.2.5,Win32,59.9880024,614cb3ef28d3b76e2ac82cce,64c7fed44a04f777bb1e18ce,64c8016bb1bf89adf14c1089,right,-1,0.75,0.4357,17,-0.068449407,0.156,,,,,,209,0,209,0,1,,,,,
,,338593,001,2023-07-31_12h47.09.803,arm3_eps,2022.2.5,Win32,59.9880024,614cb3ef28d3b76e2ac82cce,64c7fed44a04f777bb1e18ce,64c8016bb1bf89adf14c1089,right,-1,0.75,0.4357,17,-0.075345685,0.1406,,,,,,210,0,210,0,1,,,,,
,,338593,001,2023-07-31_12h47.09.803,arm3_eps,2022.2.5,Win32,59.9880024,614cb3ef28d3b76e2ac82cce,64c7fed44a04f777bb1e18ce,64c8016bb1bf89adf14c1089,right,-1,0.75,0.4357,17,-0.099652023,0.1579,,,,,,211,0,211,0,1,,,,,
,,338593,001,2023-07-31_12h47.09.803,arm3_eps,2022.2.5,Win32,59.9880024,614cb3ef28d3b76e2ac82cce,64c7fed44a04f777bb1e18ce,64c8016bb1bf89adf14c1089,down,1,0.75,0.4357,18,0,0.1395,,,,,,212,0,212,0,1,,,,,
,,338593,001,2023-07-31_12h47.09.803,arm3_eps,2022.2.5,Win32,59.9880024,614cb3ef28d3b76e2ac82cce,64c7fed44a04f777bb1e18ce,64c8016bb1bf89adf14c1089,right,1,0.75,0.4357,18,0.031614257,0.3281,,,,,,213,0,213,0,1,,,,,
,,338593,001,2023-07-31_12h47.09.803,arm3_eps,2022.2.5,Win32,59.9880024,614cb3ef28d3b76e2ac82cce,64c7fed44a04f777bb1e18ce,64c8016bb1bf89adf14c1089,right,1,0.75,0.4357,18,0.010285891,0.3538,,,,,,214,0,214,0,1,,,,,
,,338593,001,2023-07-31_12h47.09.803,arm3_eps,2022.2.5,Win32,59.9880024,614cb3ef28d3b76e2ac82cce,64c7fed44a04f777bb1e18ce,64c8016bb1bf89adf14c1089,right,1,0.75,0.4357,18,0.01604534,0.1527,,,,,,215,0,215,0,1,,,,,
,,338593,001,2023-07-31_12h47.09.803,arm3_eps,2022.2.5,Win32,59.9880024,614cb3ef28d3b76e2ac82cce,64c7fed44a04f777bb1e18ce,64c8016bb1bf89adf14c1089,right,1,0.75,0.4357,18,0.027135224,0.165,,,,,,216,0,216,0,1,,,,,
,,338593,001,2023-07-31_12h47.09.803,arm3_eps,2022.2.5,Win32,59.9880024,614cb3ef28d3b76e2ac82cce,64c7fed44a04f777bb1e18ce,64c8016bb1bf89adf14c1089,right,1,0.75,0.4357,18,0.050859366,0.1624,,,,,,217,0,217,0,1,,,,,
,,338593,001,2023-07-31_12h47.09.803,arm3_eps,2022.2.5,Win32,59.9880024,614cb3ef28d3b76e2ac82cce,64c7fed44a04f777bb1e18ce,64c8016bb1bf89adf14c1089,right,1,0.75,0.4357,18,0.05191769,0.1504,,,,,,218,0,218,0,1,,,,,
,,338593,001,2023-07-31_12h47.09.803,arm3_eps,2022.2.5,Win32,59.9880024,614cb3ef28d3b76e2ac82cce,64c7fed44a04f777bb1e18ce,64c8016bb1bf89adf14c1089,up,-1,0.75,0.4357,19,0,0.2638,,,,,,219,0,219,0,1,,,,,
,,338593,001,2023-07-31_12h47.09.803,arm3_eps,2022.2.5,Win32,59.9880024,614cb3ef28d3b76e2ac82cce,64c7fed44a04f777bb1e18ce,64c8016bb1bf89adf14c1089,right,-1,0.75,0.4357,19,0.007058914,0.5568,,,,,,220,0,220,0,1,,,,,
,,338593,001,2023-07-31_12h47.09.803,arm3_eps,2022.2.5,Win32,59.9880024,614cb3ef28d3b76e2ac82cce,64c7fed44a04f777bb1e18ce,64c8016bb1bf89adf14c1089,right,-1,0.75,0.4357,19,-0.009972245,0.1528,,,,,,221,0,221,0,1,,,,,
,,338593,001,2023-07-31_12h47.09.803,arm3_eps,2022.2.5,Win32,59.9880024,614cb3ef28d3b76e2ac82cce,64c7fed44a04f777bb1e18ce,64c8016bb1bf89adf14c1089,right,-1,0.75,0.4357,19,-0.002060845,0.1789,,,,,,222,0,222,0,1,,,,,
,,338593,001,2023-07-31_12h47.09.803,arm3_eps,2022.2.5,Win32,59.9880024,614cb3ef28d3b76e2ac82cce,64c7fed44a04f777bb1e18ce,64c8016bb1bf89adf14c1089,right,-1,0.75,0.4357,19,0.035688397,0.1458,,,,,,223,0,223,0,1,,,,,
,,338593,001,2023-07-31_12h47.09.803,arm3_eps,2022.2.5,Win32,59.9880024,614cb3ef28d3b76e2ac82cce,64c7fed44a04f777bb1e18ce,64c8016bb1bf89adf14c1089,right,-1,0.75,0.4357,19,0.02850303,0.1621,,,,,,224,0,224,0,1,,,,,
,,338593,001,2023-07-31_12h47.09.803,arm3_eps,2022.2.5,Win32,59.9880024,614cb3ef28d3b76e2ac82cce,64c7fed44a04f777bb1e18ce,64c8016bb1bf89adf14c1089,right,-1,0.75,0.4357,19,0.005640725,0.1506,,,,,,225,0,225,0,1,,,,,
,,338593,001,2023-07-31_12h47.09.803,arm3_eps,2022.2.5,Win32,59.9880024,614cb3ef28d3b76e2ac82cce,64c7fed44a04f777bb1e18ce,64c8016bb1bf89adf14c1089,right,-1,0.75,0.4357,19,-0.010551858,0.1834,,,,,,226,0,226,0,1,,,,,
,,338593,001,2023-07-31_12h47.09.803,arm3_eps,2022.2.5,Win32,59.9880024,614cb3ef28d3b76e2ac82cce,64c7fed44a04f777bb1e18ce,64c8016bb1bf89adf14c1089,right,-1,0.75,0.4357,19,-0.051639153,0.1693,,,,,,227,0,227,0,1,,,,,
,,338593,001,2023-07-31_12h47.09.803,arm3_eps,2022.2.5,Win32,59.9880024,614cb3ef28d3b76e2ac82cce,64c7fed44a04f777bb1e18ce,64c8016bb1bf89adf14c1089,right,-1,0.75,0.4357,19,-0.041821307,0.1783,,,,,,228,0,228,0,1,,,,,
,,338593,001,2023-07-31_12h47.09.803,arm3_eps,2022.2.5,Win32,59.9880024,614cb3ef28d3b76e2ac82cce,64c7fed44a04f777bb1e18ce,64c8016bb1bf89adf14c1089,right,-1,0.75,0.4357,19,-0.046765702,0.1546,,,,,,229,0,229,0,1,,,,,
,,338593,001,2023-07-31_12h47.09.803,arm3_eps,2022.2.5,Win32,59.9880024,614cb3ef28d3b76e2ac82cce,64c7fed44a04f777bb1e18ce,64c8016bb1bf89adf14c1089,down,-1,0.75,0.4357,19,0,0.2115,,,,,,230,0,230,0,1,,,,,
,,338593,001,2023-07-31_12h47.09.803,arm3_eps,2022.2.5,Win32,59.9880024,614cb3ef28d3b76e2ac82cce,64c7fed44a04f777bb1e18ce,64c8016bb1bf89adf14c1089,right,-1,0.75,0.4357,19,-0.013251048,0.3061,,,,,,231,0,231,0,1,,,,,
,,338593,001,2023-07-31_12h47.09.803,arm3_eps,2022.2.5,Win32,59.9880024,614cb3ef28d3b76e2ac82cce,64c7fed44a04f777bb1e18ce,64c8016bb1bf89adf14c1089,right,-1,0.75,0.4357,19,-0.038713529,0.3604,,,,,,232,0,232,0,1,,,,,
,,338593,001,2023-07-31_12h47.09.803,arm3_eps,2022.2.5,Win32,59.9880024,614cb3ef28d3b76e2ac82cce,64c7fed44a04f777bb1e18ce,64c8016bb1bf89adf14c1089,right,-1,0.75,0.4357,19,-0.061372764,0.1658,,,,,,233,0,233,0,1,,,,,
,,338593,001,2023-07-31_12h47.09.803,arm3_eps,2022.2.5,Win32,59.9880024,614cb3ef28d3b76e2ac82cce,64c7fed44a04f777bb1e18ce,64c8016bb1bf89adf14c1089,right,-1,0.75,0.4357,19,-0.057477139,0.1628,,,,,,234,0,234,0,1,,,,,
,,338593,001,2023-07-31_12h47.09.803,arm3_eps,2022.2.5,Win32,59.9880024,614cb3ef28d3b76e2ac82cce,64c7fed44a04f777bb1e18ce,64c8016bb1bf89adf14c1089,down,1,0.75,0.4357,19,0,0.2,,,,,,235,0,235,0,1,,,,,
,,338593,001,2023-07-31_12h47.09.803,arm3_eps,2022.2.5,Win32,59.9880024,614cb3ef28d3b76e2ac82cce,64c7fed44a04f777bb1e18ce,64c8016bb1bf89adf14c1089,right,1,0.75,0.4357,19,0.007760457,0.2949,,,,,,236,0,236,0,1,,,,,
,,338593,001,2023-07-31_12h47.09.803,arm3_eps,2022.2.5,Win32,59.9880024,614cb3ef28d3b76e2ac82cce,64c7fed44a04f777bb1e18ce,64c8016bb1bf89adf14c1089,right,1,0.75,0.4357,19,0.021275716,0.1791,,,,,,237,0,237,0,1,,,,,
,,338593,001,2023-07-31_12h47.09.803,arm3_eps,2022.2.5,Win32,59.9880024,614cb3ef28d3b76e2ac82cce,64c7fed44a04f777bb1e18ce,64c8016bb1bf89adf14c1089,right,1,0.75,0.4357,19,0.043574714,0.1453,,,,,,238,0,238,0,1,,,,,
,,338593,001,2023-07-31_12h47.09.803,arm3_eps,2022.2.5,Win32,59.9880024,614cb3ef28d3b76e2ac82cce,64c7fed44a04f777bb1e18ce,64c8016bb1bf89adf14c1089,right,1,0.75,0.4357,19,0.058490174,0.1624,,,,,,239,0,239,0,1,,,,,
,,338593,001,2023-07-31_12h47.09.803,arm3_eps,2022.2.5,Win32,59.9880024,614cb3ef28d3b76e2ac82cce,64c7fed44a04f777bb1e18ce,64c8016bb1bf89adf14c1089,up,1,0.75,0.4357,20,0,0.2197,,,,,,240,0,240,0,1,,,,,
,,338593,001,2023-07-31_12h47.09.803,arm3_eps,2022.2.5,Win32,59.9880024,614cb3ef28d3b76e2ac82cce,64c7fed44a04f777bb1e18ce,64c8016bb1bf89adf14c1089,right,1,0.75,0.4357,20,0.003207011,0.3211,,,,,,241,0,241,0,1,,,,,
,,338593,001,2023-07-31_12h47.09.803,arm3_eps,2022.2.5,Win32,59.9880024,614cb3ef28d3b76e2ac82cce,64c7fed44a04f777bb1e18ce,64c8016bb1bf89adf14c1089,right,1,0.75,0.4357,20,0.014586043,0.159,,,,,,242,0,242,0,1,,,,,
,,338593,001,2023-07-31_12h47.09.803,arm3_eps,2022.2.5,Win32,59.9880024,614cb3ef28d3b76e2ac82cce,64c7fed44a04f777bb1e18ce,64c8016bb1bf89adf14c1089,right,1,0.75,0.4357,20,0.022379214,0.1494,,,,,,243,0,243,0,1,,,,,
,,338593,001,2023-07-31_12h47.09.803,arm3_eps,2022.2.5,Win32,59.9880024,614cb3ef28d3b76e2ac82cce,64c7fed44a04f777bb1e18ce,64c8016bb1bf89adf14c1089,down,1,0.75,0.4357,20,0,0.1985,,,,,,244,0,244,0,1,,,,,
,,338593,001,2023-07-31_12h47.09.803,arm3_eps,2022.2.5,Win32,59.9880024,614cb3ef28d3b76e2ac82cce,64c7fed44a04f777bb1e18ce,64c8016bb1bf89adf14c1089,right,1,0.75,0.4357,20,0.021000365,0.5548,,,,,,245,0,245,0,1,,,,,
,,338593,001,2023-07-31_12h47.09.803,arm3_eps,2022.2.5,Win32,59.9880024,614cb3ef28d3b76e2ac82cce,64c7fed44a04f777bb1e18ce,64c8016bb1bf89adf14c1089,right,1,0.75,0.4357,20,0.00296777,0.1453,,,,,,246,0,246,0,1,,,,,
,,338593,001,2023-07-31_12h47.09.803,arm3_eps,2022.2.5,Win32,59.9880024,614cb3ef28d3b76e2ac82cce,64c7fed44a04f777bb1e18ce,64c8016bb1bf89adf14c1089,right,1,0.75,0.4357,20,0.011702253,0.1624,,,,,,247,0,247,0,1,,,,,
,,338593,001,2023-07-31_12h47.09.803,arm3_eps,2022.2.5,Win32,59.9880024,614cb3ef28d3b76e2ac82cce,64c7fed44a04f777bb1e18ce,64c8016bb1bf89adf14c1089,up,1,0.75,0.4357,21,0,0.2317,,,,,,248,0,248,0,1,,,,,
,,338593,001,2023-07-31_12h47.09.803,arm3_eps,2022.2.5,Win32,59.9880024,614cb3ef28d3b76e2ac82cce,64c7fed44a04f777bb1e18ce,64c8016bb1bf89adf14c1089,right,1,0.75,0.4357,21,0.016873564,0.4144,,,,,,249,0,249,0,1,,,,,
,,338593,001,2023-07-31_12h47.09.803,arm3_eps,2022.2.5,Win32,59.9880024,614cb3ef28d3b76e2ac82cce,64c7fed44a04f777bb1e18ce,64c8016bb1bf89adf14c1089,right,1,0.75,0.4357,21,0.018827965,0.1591,,,,,,250,0,250,0,1,,,,,
,,338593,001,2023-07-31_12h47.09.803,arm3_eps,2022.2.5,Win32,59.9880024,614cb3ef28d3b76e2ac82cce,64c7fed44a04f777bb1e18ce,64c8016bb1bf89adf14c1089,up,1,0.75,0.4357,22,0,0.4125,,,,,,251,0,251,0,1,,,,,
,,338593,001,2023-07-31_12h47.09.803,arm3_eps,2022.2.5,Win32,59.9880024,614cb3ef28d3b76e2ac82cce,64c7fed44a04f777bb1e18ce,64c8016bb1bf89adf14c1089,right,1,0.75,0.4357,22,-0.011705164,0.3217,,,,,,252,0,252,0,1,,,,,
,,338593,001,2023-07-31_12h47.09.803,arm3_eps,2022.2.5,Win32,59.9880024,614cb3ef28d3b76e2ac82cce,64c7fed44a04f777bb1e18ce,64c8016bb1bf89adf14c1089,right,1,0.75,0.4357,22,0.001348256,0.1472,,,,,,253,0,253,0,1,,,,,
,,338593,001,2023-07-31_12h47.09.803,arm3_eps,2022.2.5,Win32,59.9880024,614cb3ef28d3b76e2ac82cce,64c7fed44a04f777bb1e18ce,64c8016bb1bf89adf14c1089,right,1,0.75,0.4357,22,0.00284546,0.1679,,,,,,254,0,254,0,1,,,,,
,,338593,001,2023-07-31_12h47.09.803,arm3_eps,2022.2.5,Win32,59.9880024,614cb3ef28d3b76e2ac82cce,64c7fed44a04f777bb1e18ce,64c8016bb1bf89adf14c1089,right,1,0.75,0.4357,22,0.028127851,0.4642,,,,,,255,0,255,0,1,,,,,
,,338593,001,2023-07-31_12h47.09.803,arm3_eps,2022.2.5,Win32,59.9880024,614cb3ef28d3b76e2ac82cce,64c7fed44a04f777bb1e18ce,64c8016bb1bf89adf14c1089,right,1,0.75,0.4357,22,0.057571075,0.1491,,,,,,256,0,256,0,1,,,,,
,,338593,001,2023-07-31_12h47.09.803,arm3_eps,2022.2.5,Win32,59.9880024,614cb3ef28d3b76e2ac82cce,64c7fed44a04f777bb1e18ce,64c8016bb1bf89adf14c1089,up,-1,0.75,0.4357,23,0,0.2384,,,,,,257,0,257,0,1,,,,,
,,338593,001,2023-07-31_12h47.09.803,arm3_eps,2022.2.5,Win32,59.9880024,614cb3ef28d3b76e2ac82cce,64c7fed44a04f777bb1e18ce,64c8016bb1bf89adf14c1089,right,-1,0.75,0.4357,23,-0.000124778,0.404,,,,,,258,0,258,0,1,,,,,
,,338593,001,2023-07-31_12h47.09.803,arm3_eps,2022.2.5,Win32,59.9880024,614cb3ef28d3b76e2ac82cce,64c7fed44a04f777bb1e18ce,64c8016bb1bf89adf14c1089,right,-1,0.75,0.4357,23,-0.012792961,0.1528,,,,,,259,0,259,0,1,,,,,
,,338593,001,2023-07-31_12h47.09.803,arm3_eps,2022.2.5,Win32,59.9880024,614cb3ef28d3b76e2ac82cce,64c7fed44a04f777bb1e18ce,64c8016bb1bf89adf14c1089,right,-1,0.75,0.4357,23,-0.005694321,0.179,,,,,,260,0,260,0,1,,,,,
,,338593,001,2023-07-31_12h47.09.803,arm3_eps,2022.2.5,Win32,59.9880024,614cb3ef28d3b76e2ac82cce,64c7fed44a04f777bb1e18ce,64c8016bb1bf89adf14c1089,right,-1,0.75,0.4357,23,0.036983174,0.1638,,,,,,261,0,261,0,1,,,,,
