space_bar.keys,space_bar.rt,participant,session,date,expName,psychopyVersion,OS,frameRate,PROLIFIC_PID,STUDY_ID,SESSION_ID,resp.keys,state,q_prob,eps_prob,score,price,resp.rt,train.thisRepN,train.thisTrialN,train.thisN,train.thisIndex,train.ran,steps.thisRepN,steps.thisTrialN,steps.thisN,steps.thisIndex,steps.ran,blocks.thisRepN,blocks.thisTrialN,blocks.thisN,blocks.thisIndex,blocks.ran
space,24.2626,353270,001,2023-07-31_20h46.28.579,arm3_eps,2022.2.5,Win32,120.1778632,60194185dc1e1f00083cb6c6,64c7fed44a04f777bb1e18ce,64c801684e7a4eb5256d5c93,,,,,,,,,,,,,,,,,,,,,,
space,2.9786,353270,001,2023-07-31_20h46.28.579,arm3_eps,2022.2.5,Win32,120.1778632,60194185dc1e1f00083cb6c6,64c7fed44a04f777bb1e18ce,64c801684e7a4eb5256d5c93,,,,,,,,,,,,,,,,,,,,,,
space,19.1613,353270,001,2023-07-31_20h46.28.579,arm3_eps,2022.2.5,Win32,120.1778632,60194185dc1e1f00083cb6c6,64c7fed44a04f777bb1e18ce,64c801684e7a4eb5256d5c93,,,,,,,,,,,,,,,,,,,,,,
space,23.9429,353270,001,2023-07-31_20h46.28.579,arm3_eps,2022.2.5,Win32,120.1778632,60194185dc1e1f00083cb6c6,64c7fed44a04f777bb1e18ce,64c801684e7a4eb5256d5c93,,,,,,,,,,,,,,,,,,,,,,
space,15.1003,353270,001,2023-07-31_20h46.28.579,arm3_eps,2022.2.5,Win32,120.1778632,60194185dc1e1f00083cb6c6,64c7fed44a04f777bb1e18ce,64c801684e7a4eb5256d5c93,,,,,,,,,,,,,,,,,,,,,,
space,13.6891,353270,001,2023-07-31_20h46.28.579,arm3_eps,2022.2.5,Win32,120.1778632,60194185dc1e1f00083cb6c6,64c7fed44a04f777bb1e18ce,64c801684e7a4eb5256d5c93,,,,,,,,,,,,,,,,,,,,,,
space,3.1392,353270,001,2023-07-31_20h46.28.579,arm3_eps,2022.2.5,Win32,120.1778632,60194185dc1e1f00083cb6c6,64c7fed44a04f777bb1e18ce,64c801684e7a4eb5256d5c93,,,,,,,,,,,,,,,,,,,,,,
,,353270,001,2023-07-31_20h46.28.579,arm3_eps,2022.2.5,Win32,120.1778632,60194185dc1e1f00083cb6c6,64c7fed44a04f777bb1e18ce,64c801684e7a4eb5256d5c93,right,-1,1,0.2429,0,-0.023040841,1.3809,0,0,0,0,1,,,,,,,,,,
,,353270,001,2023-07-31_20h46.28.579,arm3_eps,2022.2.5,Win32,120.1778632,60194185dc1e1f00083cb6c6,64c7fed44a04f777bb1e18ce,64c801684e7a4eb5256d5c93,up,-1,1,0.2429,-1,0,0.7149,1,0,1,0,1,,,,,,,,,,
,,353270,001,2023-07-31_20h46.28.579,arm3_eps,2022.2.5,Win32,120.1778632,60194185dc1e1f00083cb6c6,64c7fed44a04f777bb1e18ce,64c801684e7a4eb5256d5c93,right,-1,1,0.2429,-1,0.001973014,1.0117,2,0,2,0,1,,,,,,,,,,
,,353270,001,2023-07-31_20h46.28.579,arm3_eps,2022.2.5,Win32,120.1778632,60194185dc1e1f00083cb6c6,64c7fed44a04f777bb1e18ce,64c801684e7a4eb5256d5c93,right,-1,1,0.2429,-1,0.017986742,0.4115,3,0,3,0,1,,,,,,,,,,
,,353270,001,2023-07-31_20h46.28.579,arm3_eps,2022.2.5,Win32,120.1778632,60194185dc1e1f00083cb6c6,64c7fed44a04f777bb1e18ce,64c801684e7a4eb5256d5c93,right,-1,1,0.2429,-1,0.010857336,0.3662,4,0,4,0,1,,,,,,,,,,
,,353270,001,2023-07-31_20h46.28.579,arm3_eps,2022.2.5,Win32,120.1778632,60194185dc1e1f00083cb6c6,64c7fed44a04f777bb1e18ce,64c801684e7a4eb5256d5c93,right,-1,1,0.2429,-1,0.01497234,0.5171,5,0,5,0,1,,,,,,,,,,
,,353270,001,2023-07-31_20h46.28.579,arm3_eps,2022.2.5,Win32,120.1778632,60194185dc1e1f00083cb6c6,64c7fed44a04f777bb1e18ce,64c801684e7a4eb5256d5c93,right,-1,1,0.2429,-1,-0.008347564,0.4114,6,0,6,0,1,,,,,,,,,,
,,353270,001,2023-07-31_20h46.28.579,arm3_eps,2022.2.5,Win32,120.1778632,60194185dc1e1f00083cb6c6,64c7fed44a04f777bb1e18ce,64c801684e7a4eb5256d5c93,right,-1,1,0.2429,-1,-0.032469621,0.5122,7,0,7,0,1,,,,,,,,,,
,,353270,001,2023-07-31_20h46.28.579,arm3_eps,2022.2.5,Win32,120.1778632,60194185dc1e1f00083cb6c6,64c7fed44a04f777bb1e18ce,64c801684e7a4eb5256d5c93,right,-1,1,0.2429,-1,-0.040748798,0.2329,8,0,8,0,1,,,,,,,,,,
,,353270,001,2023-07-31_20h46.28.579,arm3_eps,2022.2.5,Win32,120.1778632,60194185dc1e1f00083cb6c6,64c7fed44a04f777bb1e18ce,64c801684e7a4eb5256d5c93,right,-1,1,0.2429,-1,-0.028221385,0.2483,9,0,9,0,1,,,,,,,,,,
,,353270,001,2023-07-31_20h46.28.579,arm3_eps,2022.2.5,Win32,120.1778632,60194185dc1e1f00083cb6c6,64c7fed44a04f777bb1e18ce,64c801684e7a4eb5256d5c93,right,-1,1,0.2429,-1,-0.018189098,0.1656,10,0,10,0,1,,,,,,,,,,
,,353270,001,2023-07-31_20h46.28.579,arm3_eps,2022.2.5,Win32,120.1778632,60194185dc1e1f00083cb6c6,64c7fed44a04f777bb1e18ce,64c801684e7a4eb5256d5c93,right,-1,1,0.2429,-1,-0.046034529,0.1827,11,0,11,0,1,,,,,,,,,,
,,353270,001,2023-07-31_20h46.28.579,arm3_eps,2022.2.5,Win32,120.1778632,60194185dc1e1f00083cb6c6,64c7fed44a04f777bb1e18ce,64c801684e7a4eb5256d5c93,right,-1,1,0.2429,-1,-0.00374659,0.1822,12,0,12,0,1,,,,,,,,,,
,,353270,001,2023-07-31_20h46.28.579,arm3_eps,2022.2.5,Win32,120.1778632,60194185dc1e1f00083cb6c6,64c7fed44a04f777bb1e18ce,64c801684e7a4eb5256d5c93,right,-1,1,0.2429,-1,-0.022046638,0.188,13,0,13,0,1,,,,,,,,,,
,,353270,001,2023-07-31_20h46.28.579,arm3_eps,2022.2.5,Win32,120.1778632,60194185dc1e1f00083cb6c6,64c7fed44a04f777bb1e18ce,64c801684e7a4eb5256d5c93,up,-1,1,0.2429,-2,0,0.9283,14,0,14,0,1,,,,,,,,,,
,,353270,001,2023-07-31_20h46.28.579,arm3_eps,2022.2.5,Win32,120.1778632,60194185dc1e1f00083cb6c6,64c7fed44a04f777bb1e18ce,64c801684e7a4eb5256d5c93,right,-1,1,0.2429,-2,-0.027657093,6.8705,15,0,15,0,1,,,,,,,,,,
,,353270,001,2023-07-31_20h46.28.579,arm3_eps,2022.2.5,Win32,120.1778632,60194185dc1e1f00083cb6c6,64c7fed44a04f777bb1e18ce,64c801684e7a4eb5256d5c93,right,-1,1,0.2429,-2,-0.060760696,2.4444,16,0,16,0,1,,,,,,,,,,
,,353270,001,2023-07-31_20h46.28.579,arm3_eps,2022.2.5,Win32,120.1778632,60194185dc1e1f00083cb6c6,64c7fed44a04f777bb1e18ce,64c801684e7a4eb5256d5c93,down,-1,1,0.2429,-1,0,2.0492,17,0,17,0,1,,,,,,,,,,
,,353270,001,2023-07-31_20h46.28.579,arm3_eps,2022.2.5,Win32,120.1778632,60194185dc1e1f00083cb6c6,64c7fed44a04f777bb1e18ce,64c801684e7a4eb5256d5c93,right,-1,1,0.2429,-1,-0.006407144,1.0528,18,0,18,0,1,,,,,,,,,,
,,353270,001,2023-07-31_20h46.28.579,arm3_eps,2022.2.5,Win32,120.1778632,60194185dc1e1f00083cb6c6,64c7fed44a04f777bb1e18ce,64c801684e7a4eb5256d5c93,right,-1,1,0.2429,-1,-0.01866717,0.9246,19,0,19,0,1,,,,,,,,,,
,,353270,001,2023-07-31_20h46.28.579,arm3_eps,2022.2.5,Win32,120.1778632,60194185dc1e1f00083cb6c6,64c7fed44a04f777bb1e18ce,64c801684e7a4eb5256d5c93,down,-1,1,0.2429,0,0,0.5397,20,0,20,0,1,,,,,,,,,,
,,353270,001,2023-07-31_20h46.28.579,arm3_eps,2022.2.5,Win32,120.1778632,60194185dc1e1f00083cb6c6,64c7fed44a04f777bb1e18ce,64c801684e7a4eb5256d5c93,right,-1,1,0.2429,0,0.015211565,0.7357,21,0,21,0,1,,,,,,,,,,
,,353270,001,2023-07-31_20h46.28.579,arm3_eps,2022.2.5,Win32,120.1778632,60194185dc1e1f00083cb6c6,64c7fed44a04f777bb1e18ce,64c801684e7a4eb5256d5c93,right,-1,1,0.2429,0,-0.008147788,0.3701,22,0,22,0,1,,,,,,,,,,
,,353270,001,2023-07-31_20h46.28.579,arm3_eps,2022.2.5,Win32,120.1778632,60194185dc1e1f00083cb6c6,64c7fed44a04f777bb1e18ce,64c801684e7a4eb5256d5c93,right,-1,1,0.2429,0,-0.024256837,0.2917,23,0,23,0,1,,,,,,,,,,
,,353270,001,2023-07-31_20h46.28.579,arm3_eps,2022.2.5,Win32,120.1778632,60194185dc1e1f00083cb6c6,64c7fed44a04f777bb1e18ce,64c801684e7a4eb5256d5c93,right,-1,1,0.2429,0,-0.029392274,0.2402,24,0,24,0,1,,,,,,,,,,
,,353270,001,2023-07-31_20h46.28.579,arm3_eps,2022.2.5,Win32,120.1778632,60194185dc1e1f00083cb6c6,64c7fed44a04f777bb1e18ce,64c801684e7a4eb5256d5c93,down,-1,1,0.2429,1,0,0.4396,25,0,25,0,1,,,,,,,,,,
,,353270,001,2023-07-31_20h46.28.579,arm3_eps,2022.2.5,Win32,120.1778632,60194185dc1e1f00083cb6c6,64c7fed44a04f777bb1e18ce,64c801684e7a4eb5256d5c93,right,-1,1,0.2429,1,-0.038440033,0.3128,26,0,26,0,1,,,,,,,,,,
,,353270,001,2023-07-31_20h46.28.579,arm3_eps,2022.2.5,Win32,120.1778632,60194185dc1e1f00083cb6c6,64c7fed44a04f777bb1e18ce,64c801684e7a4eb5256d5c93,right,-1,1,0.2429,1,-0.046817268,0.3129,27,0,27,0,1,,,,,,,,,,
,,353270,001,2023-07-31_20h46.28.579,arm3_eps,2022.2.5,Win32,120.1778632,60194185dc1e1f00083cb6c6,64c7fed44a04f777bb1e18ce,64c801684e7a4eb5256d5c93,right,-1,1,0.2429,1,-0.099046244,0.279,28,0,28,0,1,,,,,,,,,,
,,353270,001,2023-07-31_20h46.28.579,arm3_eps,2022.2.5,Win32,120.1778632,60194185dc1e1f00083cb6c6,64c7fed44a04f777bb1e18ce,64c801684e7a4eb5256d5c93,down,-1,1,0.2429,2,0,0.3337,29,0,29,0,1,,,,,,,,,,
,,353270,001,2023-07-31_20h46.28.579,arm3_eps,2022.2.5,Win32,120.1778632,60194185dc1e1f00083cb6c6,64c7fed44a04f777bb1e18ce,64c801684e7a4eb5256d5c93,right,-1,1,0.2429,2,0.027664454,0.2627,30,0,30,0,1,,,,,,,,,,
,,353270,001,2023-07-31_20h46.28.579,arm3_eps,2022.2.5,Win32,120.1778632,60194185dc1e1f00083cb6c6,64c7fed44a04f777bb1e18ce,64c801684e7a4eb5256d5c93,right,-1,1,0.2429,2,0.054738703,0.236,31,0,31,0,1,,,,,,,,,,
,,353270,001,2023-07-31_20h46.28.579,arm3_eps,2022.2.5,Win32,120.1778632,60194185dc1e1f00083cb6c6,64c7fed44a04f777bb1e18ce,64c801684e7a4eb5256d5c93,right,-1,1,0.2429,2,0.065819561,0.3331,32,0,32,0,1,,,,,,,,,,
,,353270,001,2023-07-31_20h46.28.579,arm3_eps,2022.2.5,Win32,120.1778632,60194185dc1e1f00083cb6c6,64c7fed44a04f777bb1e18ce,64c801684e7a4eb5256d5c93,up,-1,1,0.2429,1,0,0.2741,33,0,33,0,1,,,,,,,,,,
,,353270,001,2023-07-31_20h46.28.579,arm3_eps,2022.2.5,Win32,120.1778632,60194185dc1e1f00083cb6c6,64c7fed44a04f777bb1e18ce,64c801684e7a4eb5256d5c93,right,-1,1,0.2429,1,-0.009962954,0.7697,34,0,34,0,1,,,,,,,,,,
,,353270,001,2023-07-31_20h46.28.579,arm3_eps,2022.2.5,Win32,120.1778632,60194185dc1e1f00083cb6c6,64c7fed44a04f777bb1e18ce,64c801684e7a4eb5256d5c93,right,-1,1,0.2429,1,-0.018876853,0.1989,35,0,35,0,1,,,,,,,,,,
,,353270,001,2023-07-31_20h46.28.579,arm3_eps,2022.2.5,Win32,120.1778632,60194185dc1e1f00083cb6c6,64c7fed44a04f777bb1e18ce,64c801684e7a4eb5256d5c93,right,-1,1,0.2429,1,-0.050173514,0.1765,36,0,36,0,1,,,,,,,,,,
,,353270,001,2023-07-31_20h46.28.579,arm3_eps,2022.2.5,Win32,120.1778632,60194185dc1e1f00083cb6c6,64c7fed44a04f777bb1e18ce,64c801684e7a4eb5256d5c93,right,-1,1,0.2429,1,-0.057705211,0.1739,37,0,37,0,1,,,,,,,,,,
,,353270,001,2023-07-31_20h46.28.579,arm3_eps,2022.2.5,Win32,120.1778632,60194185dc1e1f00083cb6c6,64c7fed44a04f777bb1e18ce,64c801684e7a4eb5256d5c93,right,-1,1,0.2429,1,-0.094068233,0.187,38,0,38,0,1,,,,,,,,,,
,,353270,001,2023-07-31_20h46.28.579,arm3_eps,2022.2.5,Win32,120.1778632,60194185dc1e1f00083cb6c6,64c7fed44a04f777bb1e18ce,64c801684e7a4eb5256d5c93,right,-1,1,0.2429,1,-0.066345166,0.2001,39,0,39,0,1,,,,,,,,,,
,,353270,001,2023-07-31_20h46.28.579,arm3_eps,2022.2.5,Win32,120.1778632,60194185dc1e1f00083cb6c6,64c7fed44a04f777bb1e18ce,64c801684e7a4eb5256d5c93,down,1,1,0.2429,2,0,0.4339,40,0,40,0,1,,,,,,,,,,
,,353270,001,2023-07-31_20h46.28.579,arm3_eps,2022.2.5,Win32,120.1778632,60194185dc1e1f00083cb6c6,64c7fed44a04f777bb1e18ce,64c801684e7a4eb5256d5c93,right,1,1,0.2429,2,0.017225577,0.413,41,0,41,0,1,,,,,,,,,,
,,353270,001,2023-07-31_20h46.28.579,arm3_eps,2022.2.5,Win32,120.1778632,60194185dc1e1f00083cb6c6,64c7fed44a04f777bb1e18ce,64c801684e7a4eb5256d5c93,right,1,1,0.2429,2,0.040653159,0.2336,42,0,42,0,1,,,,,,,,,,
,,353270,001,2023-07-31_20h46.28.579,arm3_eps,2022.2.5,Win32,120.1778632,60194185dc1e1f00083cb6c6,64c7fed44a04f777bb1e18ce,64c801684e7a4eb5256d5c93,right,1,1,0.2429,2,0.0267418,0.2371,43,0,43,0,1,,,,,,,,,,
,,353270,001,2023-07-31_20h46.28.579,arm3_eps,2022.2.5,Win32,120.1778632,60194185dc1e1f00083cb6c6,64c7fed44a04f777bb1e18ce,64c801684e7a4eb5256d5c93,right,1,1,0.2429,2,0.012309499,0.8684,44,0,44,0,1,,,,,,,,,,
,,353270,001,2023-07-31_20h46.28.579,arm3_eps,2022.2.5,Win32,120.1778632,60194185dc1e1f00083cb6c6,64c7fed44a04f777bb1e18ce,64c801684e7a4eb5256d5c93,up,-1,1,0.2429,3,0,0.3294,45,0,45,0,1,,,,,,,,,,
,,353270,001,2023-07-31_20h46.28.579,arm3_eps,2022.2.5,Win32,120.1778632,60194185dc1e1f00083cb6c6,64c7fed44a04f777bb1e18ce,64c801684e7a4eb5256d5c93,right,-1,1,0.2429,3,-0.013554837,0.7753,46,0,46,0,1,,,,,,,,,,
,,353270,001,2023-07-31_20h46.28.579,arm3_eps,2022.2.5,Win32,120.1778632,60194185dc1e1f00083cb6c6,64c7fed44a04f777bb1e18ce,64c801684e7a4eb5256d5c93,right,-1,1,0.2429,3,-0.010954209,0.2411,47,0,47,0,1,,,,,,,,,,
,,353270,001,2023-07-31_20h46.28.579,arm3_eps,2022.2.5,Win32,120.1778632,60194185dc1e1f00083cb6c6,64c7fed44a04f777bb1e18ce,64c801684e7a4eb5256d5c93,right,-1,1,0.2429,3,-0.038394813,0.2129,48,0,48,0,1,,,,,,,,,,
,,353270,001,2023-07-31_20h46.28.579,arm3_eps,2022.2.5,Win32,120.1778632,60194185dc1e1f00083cb6c6,64c7fed44a04f777bb1e18ce,64c801684e7a4eb5256d5c93,right,-1,1,0.2429,3,-0.060736289,0.205,49,0,49,0,1,,,,,,,,,,
space,14.9253,353270,001,2023-07-31_20h46.28.579,arm3_eps,2022.2.5,Win32,120.1778632,60194185dc1e1f00083cb6c6,64c7fed44a04f777bb1e18ce,64c801684e7a4eb5256d5c93,,,,,,,,,,,,,,,,,,,,,,
space,21.3666,353270,001,2023-07-31_20h46.28.579,arm3_eps,2022.2.5,Win32,120.1778632,60194185dc1e1f00083cb6c6,64c7fed44a04f777bb1e18ce,64c801684e7a4eb5256d5c93,,,,,,,,,,,,,,,,,,,,,,
space,17.1048,353270,001,2023-07-31_20h46.28.579,arm3_eps,2022.2.5,Win32,120.1778632,60194185dc1e1f00083cb6c6,64c7fed44a04f777bb1e18ce,64c801684e7a4eb5256d5c93,,,,,,,,,,,,,,,,,,,,,,
space,5.7219,353270,001,2023-07-31_20h46.28.579,arm3_eps,2022.2.5,Win32,120.1778632,60194185dc1e1f00083cb6c6,64c7fed44a04f777bb1e18ce,64c801684e7a4eb5256d5c93,,,,,,,,,,,,,,,,,,,,,,
space,9.4345,353270,001,2023-07-31_20h46.28.579,arm3_eps,2022.2.5,Win32,120.1778632,60194185dc1e1f00083cb6c6,64c7fed44a04f777bb1e18ce,64c801684e7a4eb5256d5c93,,,,,,,,,,,,,,,,,,,,,,
space,1.4059,353270,001,2023-07-31_20h46.28.579,arm3_eps,2022.2.5,Win32,120.1778632,60194185dc1e1f00083cb6c6,64c7fed44a04f777bb1e18ce,64c801684e7a4eb5256d5c93,,,,,,,,,,,,,,,,,,,,,,
,,353270,001,2023-07-31_20h46.28.579,arm3_eps,2022.2.5,Win32,120.1778632,60194185dc1e1f00083cb6c6,64c7fed44a04f777bb1e18ce,64c801684e7a4eb5256d5c93,right,-1,0.75,0.2429,0,-0.05057065,1.1462,0,0,0,0,1,,,,,,,,,,
,,353270,001,2023-07-31_20h46.28.579,arm3_eps,2022.2.5,Win32,120.1778632,60194185dc1e1f00083cb6c6,64c7fed44a04f777bb1e18ce,64c801684e7a4eb5256d5c93,right,-1,0.75,0.2429,0,-0.067387593,0.536,1,0,1,0,1,,,,,,,,,,
,,353270,001,2023-07-31_20h46.28.579,arm3_eps,2022.2.5,Win32,120.1778632,60194185dc1e1f00083cb6c6,64c7fed44a04f777bb1e18ce,64c801684e7a4eb5256d5c93,down,-1,0.75,0.2429,1,0,0.3742,2,0,2,0,1,,,,,,,,,,
,,353270,001,2023-07-31_20h46.28.579,arm3_eps,2022.2.5,Win32,120.1778632,60194185dc1e1f00083cb6c6,64c7fed44a04f777bb1e18ce,64c801684e7a4eb5256d5c93,right,-1,0.75,0.2429,1,-0.004464201,0.7778,3,0,3,0,1,,,,,,,,,,
,,353270,001,2023-07-31_20h46.28.579,arm3_eps,2022.2.5,Win32,120.1778632,60194185dc1e1f00083cb6c6,64c7fed44a04f777bb1e18ce,64c801684e7a4eb5256d5c93,down,-1,0.75,0.2429,2,0,0.9538,4,0,4,0,1,,,,,,,,,,
,,353270,001,2023-07-31_20h46.28.579,arm3_eps,2022.2.5,Win32,120.1778632,60194185dc1e1f00083cb6c6,64c7fed44a04f777bb1e18ce,64c801684e7a4eb5256d5c93,right,-1,0.75,0.2429,2,0.040695702,0.7326,5,0,5,0,1,,,,,,,,,,
,,353270,001,2023-07-31_20h46.28.579,arm3_eps,2022.2.5,Win32,120.1778632,60194185dc1e1f00083cb6c6,64c7fed44a04f777bb1e18ce,64c801684e7a4eb5256d5c93,right,-1,0.75,0.2429,2,0.028146749,0.4596,6,0,6,0,1,,,,,,,,,,
,,353270,001,2023-07-31_20h46.28.579,arm3_eps,2022.2.5,Win32,120.1778632,60194185dc1e1f00083cb6c6,64c7fed44a04f777bb1e18ce,64c801684e7a4eb5256d5c93,up,1,0.75,0.2429,1,0,0.3597,7,0,7,0,1,,,,,,,,,,
,,353270,001,2023-07-31_20h46.28.579,arm3_eps,2022.2.5,Win32,120.1778632,60194185dc1e1f00083cb6c6,64c7fed44a04f777bb1e18ce,64c801684e7a4eb5256d5c93,right,1,0.75,0.2429,1,-0.024463211,0.7911,8,0,8,0,1,,,,,,,,,,
,,353270,001,2023-07-31_20h46.28.579,arm3_eps,2022.2.5,Win32,120.1778632,60194185dc1e1f00083cb6c6,64c7fed44a04f777bb1e18ce,64c801684e7a4eb5256d5c93,right,1,0.75,0.2429,1,-0.007837303,0.3845,9,0,9,0,1,,,,,,,,,,
,,353270,001,2023-07-31_20h46.28.579,arm3_eps,2022.2.5,Win32,120.1778632,60194185dc1e1f00083cb6c6,64c7fed44a04f777bb1e18ce,64c801684e7a4eb5256d5c93,down,1,0.75,0.2429,0,0,0.6571,10,0,10,0,1,,,,,,,,,,
,,353270,001,2023-07-31_20h46.28.579,arm3_eps,2022.2.5,Win32,120.1778632,60194185dc1e1f00083cb6c6,64c7fed44a04f777bb1e18ce,64c801684e7a4eb5256d5c93,right,1,0.75,0.2429,0,0.018301056,0.8906,11,0,11,0,1,,,,,,,,,,
,,353270,001,2023-07-31_20h46.28.579,arm3_eps,2022.2.5,Win32,120.1778632,60194185dc1e1f00083cb6c6,64c7fed44a04f777bb1e18ce,64c801684e7a4eb5256d5c93,right,1,0.75,0.2429,0,0.023079837,0.3215,12,0,12,0,1,,,,,,,,,,
,,353270,001,2023-07-31_20h46.28.579,arm3_eps,2022.2.5,Win32,120.1778632,60194185dc1e1f00083cb6c6,64c7fed44a04f777bb1e18ce,64c801684e7a4eb5256d5c93,up,-1,0.75,0.2429,0,0,0.3741,13,0,13,0,1,,,,,,,,,,
,,353270,001,2023-07-31_20h46.28.579,arm3_eps,2022.2.5,Win32,120.1778632,60194185dc1e1f00083cb6c6,64c7fed44a04f777bb1e18ce,64c801684e7a4eb5256d5c93,right,-1,0.75,0.2429,0,0.018763795,0.9959,14,0,14,0,1,,,,,,,,,,
,,353270,001,2023-07-31_20h46.28.579,arm3_eps,2022.2.5,Win32,120.1778632,60194185dc1e1f00083cb6c6,64c7fed44a04f777bb1e18ce,64c801684e7a4eb5256d5c93,right,-1,0.75,0.2429,0,0.003753586,0.4134,15,0,15,0,1,,,,,,,,,,
,,353270,001,2023-07-31_20h46.28.579,arm3_eps,2022.2.5,Win32,120.1778632,60194185dc1e1f00083cb6c6,64c7fed44a04f777bb1e18ce,64c801684e7a4eb5256d5c93,right,-1,0.75,0.2429,0,-0.01229249,0.4505,16,0,16,0,1,,,,,,,,,,
,,353270,001,2023-07-31_20h46.28.579,arm3_eps,2022.2.5,Win32,120.1778632,60194185dc1e1f00083cb6c6,64c7fed44a04f777bb1e18ce,64c801684e7a4eb5256d5c93,right,-1,0.75,0.2429,0,-0.010063484,0.5246,17,0,17,0,1,,,,,,,,,,
,,353270,001,2023-07-31_20h46.28.579,arm3_eps,2022.2.5,Win32,120.1778632,60194185dc1e1f00083cb6c6,64c7fed44a04f777bb1e18ce,64c801684e7a4eb5256d5c93,up,-1,0.75,0.2429,-1,0,0.6866,18,0,18,0,1,,,,,,,,,,
,,353270,001,2023-07-31_20h46.28.579,arm3_eps,2022.2.5,Win32,120.1778632,60194185dc1e1f00083cb6c6,64c7fed44a04f777bb1e18ce,64c801684e7a4eb5256d5c93,right,-1,0.75,0.2429,-1,-0.020978359,0.799,19,0,19,0,1,,,,,,,,,,
,,353270,001,2023-07-31_20h46.28.579,arm3_eps,2022.2.5,Win32,120.1778632,60194185dc1e1f00083cb6c6,64c7fed44a04f777bb1e18ce,64c801684e7a4eb5256d5c93,right,-1,0.75,0.2429,-1,-0.010746881,0.2419,20,0,20,0,1,,,,,,,,,,
,,353270,001,2023-07-31_20h46.28.579,arm3_eps,2022.2.5,Win32,120.1778632,60194185dc1e1f00083cb6c6,64c7fed44a04f777bb1e18ce,64c801684e7a4eb5256d5c93,down,-1,0.75,0.2429,-1,0,0.4391,21,0,21,0,1,,,,,,,,,,
,,353270,001,2023-07-31_20h46.28.579,arm3_eps,2022.2.5,Win32,120.1778632,60194185dc1e1f00083cb6c6,64c7fed44a04f777bb1e18ce,64c801684e7a4eb5256d5c93,right,-1,0.75,0.2429,-1,0.004584094,0.9438,22,0,22,0,1,,,,,,,,,,
,,353270,001,2023-07-31_20h46.28.579,arm3_eps,2022.2.5,Win32,120.1778632,60194185dc1e1f00083cb6c6,64c7fed44a04f777bb1e18ce,64c801684e7a4eb5256d5c93,right,-1,0.75,0.2429,-1,-0.037183039,0.1949,23,0,23,0,1,,,,,,,,,,
,,353270,001,2023-07-31_20h46.28.579,arm3_eps,2022.2.5,Win32,120.1778632,60194185dc1e1f00083cb6c6,64c7fed44a04f777bb1e18ce,64c801684e7a4eb5256d5c93,down,-1,0.75,0.2429,0,0,0.427,24,0,24,0,1,,,,,,,,,,
,,353270,001,2023-07-31_20h46.28.579,arm3_eps,2022.2.5,Win32,120.1778632,60194185dc1e1f00083cb6c6,64c7fed44a04f777bb1e18ce,64c801684e7a4eb5256d5c93,right,-1,0.75,0.2429,0,-0.026071786,0.7661,25,0,25,0,1,,,,,,,,,,
,,353270,001,2023-07-31_20h46.28.579,arm3_eps,2022.2.5,Win32,120.1778632,60194185dc1e1f00083cb6c6,64c7fed44a04f777bb1e18ce,64c801684e7a4eb5256d5c93,right,-1,0.75,0.2429,0,-0.023322018,0.2086,26,0,26,0,1,,,,,,,,,,
,,353270,001,2023-07-31_20h46.28.579,arm3_eps,2022.2.5,Win32,120.1778632,60194185dc1e1f00083cb6c6,64c7fed44a04f777bb1e18ce,64c801684e7a4eb5256d5c93,down,-1,0.75,0.2429,1,0,0.4013,27,0,27,0,1,,,,,,,,,,
,,353270,001,2023-07-31_20h46.28.579,arm3_eps,2022.2.5,Win32,120.1778632,60194185dc1e1f00083cb6c6,64c7fed44a04f777bb1e18ce,64c801684e7a4eb5256d5c93,right,-1,0.75,0.2429,1,0.016359221,0.7521,28,0,28,0,1,,,,,,,,,,
,,353270,001,2023-07-31_20h46.28.579,arm3_eps,2022.2.5,Win32,120.1778632,60194185dc1e1f00083cb6c6,64c7fed44a04f777bb1e18ce,64c801684e7a4eb5256d5c93,right,-1,0.75,0.2429,1,-0.009933338,0.1867,29,0,29,0,1,,,,,,,,,,
,,353270,001,2023-07-31_20h46.28.579,arm3_eps,2022.2.5,Win32,120.1778632,60194185dc1e1f00083cb6c6,64c7fed44a04f777bb1e18ce,64c801684e7a4eb5256d5c93,right,-1,0.75,0.2429,1,-0.014440915,0.2026,30,0,30,0,1,,,,,,,,,,
,,353270,001,2023-07-31_20h46.28.579,arm3_eps,2022.2.5,Win32,120.1778632,60194185dc1e1f00083cb6c6,64c7fed44a04f777bb1e18ce,64c801684e7a4eb5256d5c93,down,1,0.75,0.2429,2,0,0.4334,31,0,31,0,1,,,,,,,,,,
,,353270,001,2023-07-31_20h46.28.579,arm3_eps,2022.2.5,Win32,120.1778632,60194185dc1e1f00083cb6c6,64c7fed44a04f777bb1e18ce,64c801684e7a4eb5256d5c93,right,1,0.75,0.2429,2,0.025488603,1.8221,32,0,32,0,1,,,,,,,,,,
,,353270,001,2023-07-31_20h46.28.579,arm3_eps,2022.2.5,Win32,120.1778632,60194185dc1e1f00083cb6c6,64c7fed44a04f777bb1e18ce,64c801684e7a4eb5256d5c93,right,1,0.75,0.2429,2,0.060493326,0.275,33,0,33,0,1,,,,,,,,,,
,,353270,001,2023-07-31_20h46.28.579,arm3_eps,2022.2.5,Win32,120.1778632,60194185dc1e1f00083cb6c6,64c7fed44a04f777bb1e18ce,64c801684e7a4eb5256d5c93,up,-1,0.75,0.2429,3,0,0.5163,34,0,34,0,1,,,,,,,,,,
,,353270,001,2023-07-31_20h46.28.579,arm3_eps,2022.2.5,Win32,120.1778632,60194185dc1e1f00083cb6c6,64c7fed44a04f777bb1e18ce,64c801684e7a4eb5256d5c93,right,-1,0.75,0.2429,3,-0.033195589,0.6915,35,0,35,0,1,,,,,,,,,,
,,353270,001,2023-07-31_20h46.28.579,arm3_eps,2022.2.5,Win32,120.1778632,60194185dc1e1f00083cb6c6,64c7fed44a04f777bb1e18ce,64c801684e7a4eb5256d5c93,right,-1,0.75,0.2429,3,-0.050669785,0.2752,36,0,36,0,1,,,,,,,,,,
,,353270,001,2023-07-31_20h46.28.579,arm3_eps,2022.2.5,Win32,120.1778632,60194185dc1e1f00083cb6c6,64c7fed44a04f777bb1e18ce,64c801684e7a4eb5256d5c93,right,-1,0.75,0.2429,3,-0.07303512,0.2465,37,0,37,0,1,,,,,,,,,,
,,353270,001,2023-07-31_20h46.28.579,arm3_eps,2022.2.5,Win32,120.1778632,60194185dc1e1f00083cb6c6,64c7fed44a04f777bb1e18ce,64c801684e7a4eb5256d5c93,down,-1,0.75,0.2429,4,0,0.2669,38,0,38,0,1,,,,,,,,,,
,,353270,001,2023-07-31_20h46.28.579,arm3_eps,2022.2.5,Win32,120.1778632,60194185dc1e1f00083cb6c6,64c7fed44a04f777bb1e18ce,64c801684e7a4eb5256d5c93,right,-1,0.75,0.2429,4,0.001023947,0.5087,39,0,39,0,1,,,,,,,,,,
,,353270,001,2023-07-31_20h46.28.579,arm3_eps,2022.2.5,Win32,120.1778632,60194185dc1e1f00083cb6c6,64c7fed44a04f777bb1e18ce,64c801684e7a4eb5256d5c93,down,-1,0.75,0.2429,5,0,1.1867,40,0,40,0,1,,,,,,,,,,
,,353270,001,2023-07-31_20h46.28.579,arm3_eps,2022.2.5,Win32,120.1778632,60194185dc1e1f00083cb6c6,64c7fed44a04f777bb1e18ce,64c801684e7a4eb5256d5c93,right,-1,0.75,0.2429,5,-0.021314728,0.5248,41,0,41,0,1,,,,,,,,,,
,,353270,001,2023-07-31_20h46.28.579,arm3_eps,2022.2.5,Win32,120.1778632,60194185dc1e1f00083cb6c6,64c7fed44a04f777bb1e18ce,64c801684e7a4eb5256d5c93,down,-1,0.75,0.2429,6,0,0.7252,42,0,42,0,1,,,,,,,,,,
,,353270,001,2023-07-31_20h46.28.579,arm3_eps,2022.2.5,Win32,120.1778632,60194185dc1e1f00083cb6c6,64c7fed44a04f777bb1e18ce,64c801684e7a4eb5256d5c93,right,-1,0.75,0.2429,6,0.015576718,0.5634,43,0,43,0,1,,,,,,,,,,
,,353270,001,2023-07-31_20h46.28.579,arm3_eps,2022.2.5,Win32,120.1778632,60194185dc1e1f00083cb6c6,64c7fed44a04f777bb1e18ce,64c801684e7a4eb5256d5c93,down,1,0.75,0.2429,7,0,1.0112,44,0,44,0,1,,,,,,,,,,
,,353270,001,2023-07-31_20h46.28.579,arm3_eps,2022.2.5,Win32,120.1778632,60194185dc1e1f00083cb6c6,64c7fed44a04f777bb1e18ce,64c801684e7a4eb5256d5c93,right,1,0.75,0.2429,7,0.007590927,0.5543,45,0,45,0,1,,,,,,,,,,
,,353270,001,2023-07-31_20h46.28.579,arm3_eps,2022.2.5,Win32,120.1778632,60194185dc1e1f00083cb6c6,64c7fed44a04f777bb1e18ce,64c801684e7a4eb5256d5c93,right,1,0.75,0.2429,7,-0.019240612,0.4579,46,0,46,0,1,,,,,,,,,,
,,353270,001,2023-07-31_20h46.28.579,arm3_eps,2022.2.5,Win32,120.1778632,60194185dc1e1f00083cb6c6,64c7fed44a04f777bb1e18ce,64c801684e7a4eb5256d5c93,up,1,0.75,0.2429,7,0,0.7186,47,0,47,0,1,,,,,,,,,,
,,353270,001,2023-07-31_20h46.28.579,arm3_eps,2022.2.5,Win32,120.1778632,60194185dc1e1f00083cb6c6,64c7fed44a04f777bb1e18ce,64c801684e7a4eb5256d5c93,right,1,0.75,0.2429,7,0.034346287,0.8406,48,0,48,0,1,,,,,,,,,,
,,353270,001,2023-07-31_20h46.28.579,arm3_eps,2022.2.5,Win32,120.1778632,60194185dc1e1f00083cb6c6,64c7fed44a04f777bb1e18ce,64c801684e7a4eb5256d5c93,right,1,0.75,0.2429,7,0.033217514,0.5076,49,0,49,0,1,,,,,,,,,,
space,14.5559,353270,001,2023-07-31_20h46.28.579,arm3_eps,2022.2.5,Win32,120.1778632,60194185dc1e1f00083cb6c6,64c7fed44a04f777bb1e18ce,64c801684e7a4eb5256d5c93,,,,,,,,,,,,,,,,,,,,,,
space,29.0831,353270,001,2023-07-31_20h46.28.579,arm3_eps,2022.2.5,Win32,120.1778632,60194185dc1e1f00083cb6c6,64c7fed44a04f777bb1e18ce,64c801684e7a4eb5256d5c93,,,,,,,,,,,,,,,,,,,,,,
space,0.9822,353270,001,2023-07-31_20h46.28.579,arm3_eps,2022.2.5,Win32,120.1778632,60194185dc1e1f00083cb6c6,64c7fed44a04f777bb1e18ce,64c801684e7a4eb5256d5c93,,,,,,,,,,,,,,,,,,,,,,
,,353270,001,2023-07-31_20h46.28.579,arm3_eps,2022.2.5,Win32,120.1778632,60194185dc1e1f00083cb6c6,64c7fed44a04f777bb1e18ce,64c801684e7a4eb5256d5c93,up,1,0.75,0.05,0,0,1.7531,0,0,0,0,1,,,,,,,,,,
,,353270,001,2023-07-31_20h46.28.579,arm3_eps,2022.2.5,Win32,120.1778632,60194185dc1e1f00083cb6c6,64c7fed44a04f777bb1e18ce,64c801684e7a4eb5256d5c93,right,1,0.75,0.05,0,-0.021554073,2.0722,1,0,1,0,1,,,,,,,,,,
,,353270,001,2023-07-31_20h46.28.579,arm3_eps,2022.2.5,Win32,120.1778632,60194185dc1e1f00083cb6c6,64c7fed44a04f777bb1e18ce,64c801684e7a4eb5256d5c93,right,1,0.75,0.05,0,-0.030941452,0.2854,2,0,2,0,1,,,,,,,,,,
,,353270,001,2023-07-31_20h46.28.579,arm3_eps,2022.2.5,Win32,120.1778632,60194185dc1e1f00083cb6c6,64c7fed44a04f777bb1e18ce,64c801684e7a4eb5256d5c93,down,1,0.75,0.05,-1,0,0.3746,3,0,3,0,1,,,,,,,,,,
,,353270,001,2023-07-31_20h46.28.579,arm3_eps,2022.2.5,Win32,120.1778632,60194185dc1e1f00083cb6c6,64c7fed44a04f777bb1e18ce,64c801684e7a4eb5256d5c93,right,1,0.75,0.05,-1,-0.009092034,0.7656,4,0,4,0,1,,,,,,,,,,
,,353270,001,2023-07-31_20h46.28.579,arm3_eps,2022.2.5,Win32,120.1778632,60194185dc1e1f00083cb6c6,64c7fed44a04f777bb1e18ce,64c801684e7a4eb5256d5c93,right,1,0.75,0.05,-1,-0.029203214,0.4415,5,0,5,0,1,,,,,,,,,,
,,353270,001,2023-07-31_20h46.28.579,arm3_eps,2022.2.5,Win32,120.1778632,60194185dc1e1f00083cb6c6,64c7fed44a04f777bb1e18ce,64c801684e7a4eb5256d5c93,up,1,0.75,0.05,0,0,1.2315,6,0,6,0,1,,,,,,,,,,
,,353270,001,2023-07-31_20h46.28.579,arm3_eps,2022.2.5,Win32,120.1778632,60194185dc1e1f00083cb6c6,64c7fed44a04f777bb1e18ce,64c801684e7a4eb5256d5c93,up,1,0.75,0.05,1,0,0.8818,7,0,7,0,1,,,,,,,,,,
,,353270,001,2023-07-31_20h46.28.579,arm3_eps,2022.2.5,Win32,120.1778632,60194185dc1e1f00083cb6c6,64c7fed44a04f777bb1e18ce,64c801684e7a4eb5256d5c93,right,1,0.75,0.05,1,-0.008737828,1.9221,8,0,8,0,1,,,,,,,,,,
,,353270,001,2023-07-31_20h46.28.579,arm3_eps,2022.2.5,Win32,120.1778632,60194185dc1e1f00083cb6c6,64c7fed44a04f777bb1e18ce,64c801684e7a4eb5256d5c93,up,1,0.75,0.05,2,0,0.4001,9,0,9,0,1,,,,,,,,,,
,,353270,001,2023-07-31_20h46.28.579,arm3_eps,2022.2.5,Win32,120.1778632,60194185dc1e1f00083cb6c6,64c7fed44a04f777bb1e18ce,64c801684e7a4eb5256d5c93,up,1,0.75,0.05,3,0,1.6065,10,0,10,0,1,,,,,,,,,,
,,353270,001,2023-07-31_20h46.28.579,arm3_eps,2022.2.5,Win32,120.1778632,60194185dc1e1f00083cb6c6,64c7fed44a04f777bb1e18ce,64c801684e7a4eb5256d5c93,up,1,0.75,0.05,4,0,1.2895,11,0,11,0,1,,,,,,,,,,
,,353270,001,2023-07-31_20h46.28.579,arm3_eps,2022.2.5,Win32,120.1778632,60194185dc1e1f00083cb6c6,64c7fed44a04f777bb1e18ce,64c801684e7a4eb5256d5c93,right,1,0.75,0.05,4,-0.043840012,1.9885,12,0,12,0,1,,,,,,,,,,
,,353270,001,2023-07-31_20h46.28.579,arm3_eps,2022.2.5,Win32,120.1778632,60194185dc1e1f00083cb6c6,64c7fed44a04f777bb1e18ce,64c801684e7a4eb5256d5c93,up,1,0.75,0.05,5,0,0.7662,13,0,13,0,1,,,,,,,,,,
,,353270,001,2023-07-31_20h46.28.579,arm3_eps,2022.2.5,Win32,120.1778632,60194185dc1e1f00083cb6c6,64c7fed44a04f777bb1e18ce,64c801684e7a4eb5256d5c93,right,1,0.75,0.05,5,-0.001225301,0.816,14,0,14,0,1,,,,,,,,,,
,,353270,001,2023-07-31_20h46.28.579,arm3_eps,2022.2.5,Win32,120.1778632,60194185dc1e1f00083cb6c6,64c7fed44a04f777bb1e18ce,64c801684e7a4eb5256d5c93,up,1,0.75,0.05,6,0,0.6494,15,0,15,0,1,,,,,,,,,,
,,353270,001,2023-07-31_20h46.28.579,arm3_eps,2022.2.5,Win32,120.1778632,60194185dc1e1f00083cb6c6,64c7fed44a04f777bb1e18ce,64c801684e7a4eb5256d5c93,up,1,0.75,0.05,7,0,0.5684,16,0,16,0,1,,,,,,,,,,
,,353270,001,2023-07-31_20h46.28.579,arm3_eps,2022.2.5,Win32,120.1778632,60194185dc1e1f00083cb6c6,64c7fed44a04f777bb1e18ce,64c801684e7a4eb5256d5c93,right,1,0.75,0.05,7,-0.022152709,2.1023,17,0,17,0,1,,,,,,,,,,
,,353270,001,2023-07-31_20h46.28.579,arm3_eps,2022.2.5,Win32,120.1778632,60194185dc1e1f00083cb6c6,64c7fed44a04f777bb1e18ce,64c801684e7a4eb5256d5c93,right,1,0.75,0.05,7,-0.022972776,0.6825,18,0,18,0,1,,,,,,,,,,
,,353270,001,2023-07-31_20h46.28.579,arm3_eps,2022.2.5,Win32,120.1778632,60194185dc1e1f00083cb6c6,64c7fed44a04f777bb1e18ce,64c801684e7a4eb5256d5c93,up,1,0.75,0.05,8,0,0.342,19,0,19,0,1,,,,,,,,,,
,,353270,001,2023-07-31_20h46.28.579,arm3_eps,2022.2.5,Win32,120.1778632,60194185dc1e1f00083cb6c6,64c7fed44a04f777bb1e18ce,64c801684e7a4eb5256d5c93,up,1,0.75,0.05,9,0,0.7949,20,0,20,0,1,,,,,,,,,,
,,353270,001,2023-07-31_20h46.28.579,arm3_eps,2022.2.5,Win32,120.1778632,60194185dc1e1f00083cb6c6,64c7fed44a04f777bb1e18ce,64c801684e7a4eb5256d5c93,up,1,0.75,0.05,10,0,0.9071,21,0,21,0,1,,,,,,,,,,
,,353270,001,2023-07-31_20h46.28.579,arm3_eps,2022.2.5,Win32,120.1778632,60194185dc1e1f00083cb6c6,64c7fed44a04f777bb1e18ce,64c801684e7a4eb5256d5c93,up,1,0.75,0.05,11,0,1.7643,22,0,22,0,1,,,,,,,,,,
,,353270,001,2023-07-31_20h46.28.579,arm3_eps,2022.2.5,Win32,120.1778632,60194185dc1e1f00083cb6c6,64c7fed44a04f777bb1e18ce,64c801684e7a4eb5256d5c93,up,1,0.75,0.05,12,0,0.832,23,0,23,0,1,,,,,,,,,,
,,353270,001,2023-07-31_20h46.28.579,arm3_eps,2022.2.5,Win32,120.1778632,60194185dc1e1f00083cb6c6,64c7fed44a04f777bb1e18ce,64c801684e7a4eb5256d5c93,up,1,0.75,0.05,13,0,0.6081,24,0,24,0,1,,,,,,,,,,
,,353270,001,2023-07-31_20h46.28.579,arm3_eps,2022.2.5,Win32,120.1778632,60194185dc1e1f00083cb6c6,64c7fed44a04f777bb1e18ce,64c801684e7a4eb5256d5c93,up,1,0.75,0.05,14,0,1.1956,25,0,25,0,1,,,,,,,,,,
,,353270,001,2023-07-31_20h46.28.579,arm3_eps,2022.2.5,Win32,120.1778632,60194185dc1e1f00083cb6c6,64c7fed44a04f777bb1e18ce,64c801684e7a4eb5256d5c93,up,1,0.75,0.05,14,0,0.6926,26,0,26,0,1,,,,,,,,,,
,,353270,001,2023-07-31_20h46.28.579,arm3_eps,2022.2.5,Win32,120.1778632,60194185dc1e1f00083cb6c6,64c7fed44a04f777bb1e18ce,64c801684e7a4eb5256d5c93,up,1,0.75,0.05,15,0,0.7862,27,0,27,0,1,,,,,,,,,,
,,353270,001,2023-07-31_20h46.28.579,arm3_eps,2022.2.5,Win32,120.1778632,60194185dc1e1f00083cb6c6,64c7fed44a04f777bb1e18ce,64c801684e7a4eb5256d5c93,up,1,0.75,0.05,16,0,0.5834,28,0,28,0,1,,,,,,,,,,
,,353270,001,2023-07-31_20h46.28.579,arm3_eps,2022.2.5,Win32,120.1778632,60194185dc1e1f00083cb6c6,64c7fed44a04f777bb1e18ce,64c801684e7a4eb5256d5c93,up,1,0.75,0.05,16,0,0.5914,29,0,29,0,1,,,,,,,,,,
,,353270,001,2023-07-31_20h46.28.579,arm3_eps,2022.2.5,Win32,120.1778632,60194185dc1e1f00083cb6c6,64c7fed44a04f777bb1e18ce,64c801684e7a4eb5256d5c93,up,1,0.75,0.05,17,0,0.5963,30,0,30,0,1,,,,,,,,,,
,,353270,001,2023-07-31_20h46.28.579,arm3_eps,2022.2.5,Win32,120.1778632,60194185dc1e1f00083cb6c6,64c7fed44a04f777bb1e18ce,64c801684e7a4eb5256d5c93,up,1,0.75,0.05,18,0,0.952,31,0,31,0,1,,,,,,,,,,
,,353270,001,2023-07-31_20h46.28.579,arm3_eps,2022.2.5,Win32,120.1778632,60194185dc1e1f00083cb6c6,64c7fed44a04f777bb1e18ce,64c801684e7a4eb5256d5c93,up,1,0.75,0.05,19,0,0.6076,32,0,32,0,1,,,,,,,,,,
,,353270,001,2023-07-31_20h46.28.579,arm3_eps,2022.2.5,Win32,120.1778632,60194185dc1e1f00083cb6c6,64c7fed44a04f777bb1e18ce,64c801684e7a4eb5256d5c93,up,1,0.75,0.05,20,0,0.7756,33,0,33,0,1,,,,,,,,,,
,,353270,001,2023-07-31_20h46.28.579,arm3_eps,2022.2.5,Win32,120.1778632,60194185dc1e1f00083cb6c6,64c7fed44a04f777bb1e18ce,64c801684e7a4eb5256d5c93,up,1,0.75,0.05,20,0,0.666,34,0,34,0,1,,,,,,,,,,
,,353270,001,2023-07-31_20h46.28.579,arm3_eps,2022.2.5,Win32,120.1778632,60194185dc1e1f00083cb6c6,64c7fed44a04f777bb1e18ce,64c801684e7a4eb5256d5c93,up,1,0.75,0.05,21,0,0.7239,35,0,35,0,1,,,,,,,,,,
,,353270,001,2023-07-31_20h46.28.579,arm3_eps,2022.2.5,Win32,120.1778632,60194185dc1e1f00083cb6c6,64c7fed44a04f777bb1e18ce,64c801684e7a4eb5256d5c93,up,1,0.75,0.05,22,0,0.5495,36,0,36,0,1,,,,,,,,,,
,,353270,001,2023-07-31_20h46.28.579,arm3_eps,2022.2.5,Win32,120.1778632,60194185dc1e1f00083cb6c6,64c7fed44a04f777bb1e18ce,64c801684e7a4eb5256d5c93,up,1,0.75,0.05,23,0,0.5582,37,0,37,0,1,,,,,,,,,,
,,353270,001,2023-07-31_20h46.28.579,arm3_eps,2022.2.5,Win32,120.1778632,60194185dc1e1f00083cb6c6,64c7fed44a04f777bb1e18ce,64c801684e7a4eb5256d5c93,up,1,0.75,0.05,24,0,0.4751,38,0,38,0,1,,,,,,,,,,
,,353270,001,2023-07-31_20h46.28.579,arm3_eps,2022.2.5,Win32,120.1778632,60194185dc1e1f00083cb6c6,64c7fed44a04f777bb1e18ce,64c801684e7a4eb5256d5c93,up,1,0.75,0.05,25,0,0.7741,39,0,39,0,1,,,,,,,,,,
,,353270,001,2023-07-31_20h46.28.579,arm3_eps,2022.2.5,Win32,120.1778632,60194185dc1e1f00083cb6c6,64c7fed44a04f777bb1e18ce,64c801684e7a4eb5256d5c93,up,1,0.75,0.05,25,0,0.6173,40,0,40,0,1,,,,,,,,,,
,,353270,001,2023-07-31_20h46.28.579,arm3_eps,2022.2.5,Win32,120.1778632,60194185dc1e1f00083cb6c6,64c7fed44a04f777bb1e18ce,64c801684e7a4eb5256d5c93,up,1,0.75,0.05,26,0,0.774,41,0,41,0,1,,,,,,,,,,
,,353270,001,2023-07-31_20h46.28.579,arm3_eps,2022.2.5,Win32,120.1778632,60194185dc1e1f00083cb6c6,64c7fed44a04f777bb1e18ce,64c801684e7a4eb5256d5c93,up,1,0.75,0.05,27,0,0.5456,42,0,42,0,1,,,,,,,,,,
,,353270,001,2023-07-31_20h46.28.579,arm3_eps,2022.2.5,Win32,120.1778632,60194185dc1e1f00083cb6c6,64c7fed44a04f777bb1e18ce,64c801684e7a4eb5256d5c93,up,1,0.75,0.05,28,0,0.5661,43,0,43,0,1,,,,,,,,,,
,,353270,001,2023-07-31_20h46.28.579,arm3_eps,2022.2.5,Win32,120.1778632,60194185dc1e1f00083cb6c6,64c7fed44a04f777bb1e18ce,64c801684e7a4eb5256d5c93,up,1,0.75,0.05,29,0,0.5599,44,0,44,0,1,,,,,,,,,,
,,353270,001,2023-07-31_20h46.28.579,arm3_eps,2022.2.5,Win32,120.1778632,60194185dc1e1f00083cb6c6,64c7fed44a04f777bb1e18ce,64c801684e7a4eb5256d5c93,up,1,0.75,0.05,30,0,0.5362,45,0,45,0,1,,,,,,,,,,
,,353270,001,2023-07-31_20h46.28.579,arm3_eps,2022.2.5,Win32,120.1778632,60194185dc1e1f00083cb6c6,64c7fed44a04f777bb1e18ce,64c801684e7a4eb5256d5c93,up,-1,0.75,0.05,31,0,0.5673,46,0,46,0,1,,,,,,,,,,
,,353270,001,2023-07-31_20h46.28.579,arm3_eps,2022.2.5,Win32,120.1778632,60194185dc1e1f00083cb6c6,64c7fed44a04f777bb1e18ce,64c801684e7a4eb5256d5c93,up,-1,0.75,0.05,30,0,0.5664,47,0,47,0,1,,,,,,,,,,
,,353270,001,2023-07-31_20h46.28.579,arm3_eps,2022.2.5,Win32,120.1778632,60194185dc1e1f00083cb6c6,64c7fed44a04f777bb1e18ce,64c801684e7a4eb5256d5c93,up,-1,0.75,0.05,30,0,0.7582,48,0,48,0,1,,,,,,,,,,
,,353270,001,2023-07-31_20h46.28.579,arm3_eps,2022.2.5,Win32,120.1778632,60194185dc1e1f00083cb6c6,64c7fed44a04f777bb1e18ce,64c801684e7a4eb5256d5c93,up,-1,0.75,0.05,30,0,0.7664,49,0,49,0,1,,,,,,,,,,
space,6.384,353270,001,2023-07-31_20h46.28.579,arm3_eps,2022.2.5,Win32,120.1778632,60194185dc1e1f00083cb6c6,64c7fed44a04f777bb1e18ce,64c801684e7a4eb5256d5c93,,,,,,,,,,,,,,,,,,,,,,
space,0.9071,353270,001,2023-07-31_20h46.28.579,arm3_eps,2022.2.5,Win32,120.1778632,60194185dc1e1f00083cb6c6,64c7fed44a04f777bb1e18ce,64c801684e7a4eb5256d5c93,,,,,,,,,,,,,,,,,,,,,,
,,353270,001,2023-07-31_20h46.28.579,arm3_eps,2022.2.5,Win32,120.1778632,60194185dc1e1f00083cb6c6,64c7fed44a04f777bb1e18ce,64c801684e7a4eb5256d5c93,right,-1,0.75,0.5,0,-0.050605021,0.2776,0,0,0,0,1,,,,,,,,,,
,,353270,001,2023-07-31_20h46.28.579,arm3_eps,2022.2.5,Win32,120.1778632,60194185dc1e1f00083cb6c6,64c7fed44a04f777bb1e18ce,64c801684e7a4eb5256d5c93,right,-1,0.75,0.5,0,-0.04694315,2.506,1,0,1,0,1,,,,,,,,,,
,,353270,001,2023-07-31_20h46.28.579,arm3_eps,2022.2.5,Win32,120.1778632,60194185dc1e1f00083cb6c6,64c7fed44a04f777bb1e18ce,64c801684e7a4eb5256d5c93,right,-1,0.75,0.5,0,-0.061044319,0.2792,2,0,2,0,1,,,,,,,,,,
,,353270,001,2023-07-31_20h46.28.579,arm3_eps,2022.2.5,Win32,120.1778632,60194185dc1e1f00083cb6c6,64c7fed44a04f777bb1e18ce,64c801684e7a4eb5256d5c93,right,-1,0.75,0.5,0,-0.082030439,0.4371,3,0,3,0,1,,,,,,,,,,
,,353270,001,2023-07-31_20h46.28.579,arm3_eps,2022.2.5,Win32,120.1778632,60194185dc1e1f00083cb6c6,64c7fed44a04f777bb1e18ce,64c801684e7a4eb5256d5c93,right,-1,0.75,0.5,0,-0.100611585,0.4056,4,0,4,0,1,,,,,,,,,,
,,353270,001,2023-07-31_20h46.28.579,arm3_eps,2022.2.5,Win32,120.1778632,60194185dc1e1f00083cb6c6,64c7fed44a04f777bb1e18ce,64c801684e7a4eb5256d5c93,down,1,0.75,0.5,0,0,0.4553,5,0,5,0,1,,,,,,,,,,
,,353270,001,2023-07-31_20h46.28.579,arm3_eps,2022.2.5,Win32,120.1778632,60194185dc1e1f00083cb6c6,64c7fed44a04f777bb1e18ce,64c801684e7a4eb5256d5c93,right,1,0.75,0.5,0,0.022551935,0.8105,6,0,6,0,1,,,,,,,,,,
,,353270,001,2023-07-31_20h46.28.579,arm3_eps,2022.2.5,Win32,120.1778632,60194185dc1e1f00083cb6c6,64c7fed44a04f777bb1e18ce,64c801684e7a4eb5256d5c93,right,1,0.75,0.5,0,-0.007247658,0.46,7,0,7,0,1,,,,,,,,,,
,,353270,001,2023-07-31_20h46.28.579,arm3_eps,2022.2.5,Win32,120.1778632,60194185dc1e1f00083cb6c6,64c7fed44a04f777bb1e18ce,64c801684e7a4eb5256d5c93,right,1,0.75,0.5,0,0.001434204,0.4743,8,0,8,0,1,,,,,,,,,,
,,353270,001,2023-07-31_20h46.28.579,arm3_eps,2022.2.5,Win32,120.1778632,60194185dc1e1f00083cb6c6,64c7fed44a04f777bb1e18ce,64c801684e7a4eb5256d5c93,down,-1,0.75,0.5,-1,0,0.3639,9,0,9,0,1,,,,,,,,,,
,,353270,001,2023-07-31_20h46.28.579,arm3_eps,2022.2.5,Win32,120.1778632,60194185dc1e1f00083cb6c6,64c7fed44a04f777bb1e18ce,64c801684e7a4eb5256d5c93,right,-1,0.75,0.5,-1,0.028027959,0.5493,10,0,10,0,1,,,,,,,,,,
,,353270,001,2023-07-31_20h46.28.579,arm3_eps,2022.2.5,Win32,120.1778632,60194185dc1e1f00083cb6c6,64c7fed44a04f777bb1e18ce,64c801684e7a4eb5256d5c93,right,-1,0.75,0.5,-1,0.037655352,0.3248,11,0,11,0,1,,,,,,,,,,
,,353270,001,2023-07-31_20h46.28.579,arm3_eps,2022.2.5,Win32,120.1778632,60194185dc1e1f00083cb6c6,64c7fed44a04f777bb1e18ce,64c801684e7a4eb5256d5c93,down,-1,0.75,0.5,0,0,0.7291,12,0,12,0,1,,,,,,,,,,
,,353270,001,2023-07-31_20h46.28.579,arm3_eps,2022.2.5,Win32,120.1778632,60194185dc1e1f00083cb6c6,64c7fed44a04f777bb1e18ce,64c801684e7a4eb5256d5c93,right,-1,0.75,0.5,0,-0.021035316,0.5332,13,0,13,0,1,,,,,,,,,,
,,353270,001,2023-07-31_20h46.28.579,arm3_eps,2022.2.5,Win32,120.1778632,60194185dc1e1f00083cb6c6,64c7fed44a04f777bb1e18ce,64c801684e7a4eb5256d5c93,right,-1,0.75,0.5,0,-0.008091387,0.5744,14,0,14,0,1,,,,,,,,,,
,,353270,001,2023-07-31_20h46.28.579,arm3_eps,2022.2.5,Win32,120.1778632,60194185dc1e1f00083cb6c6,64c7fed44a04f777bb1e18ce,64c801684e7a4eb5256d5c93,down,-1,0.75,0.5,0,0,0.5778,15,0,15,0,1,,,,,,,,,,
,,353270,001,2023-07-31_20h46.28.579,arm3_eps,2022.2.5,Win32,120.1778632,60194185dc1e1f00083cb6c6,64c7fed44a04f777bb1e18ce,64c801684e7a4eb5256d5c93,right,-1,0.75,0.5,0,-0.01245909,0.5826,16,0,16,0,1,,,,,,,,,,
,,353270,001,2023-07-31_20h46.28.579,arm3_eps,2022.2.5,Win32,120.1778632,60194185dc1e1f00083cb6c6,64c7fed44a04f777bb1e18ce,64c801684e7a4eb5256d5c93,right,-1,0.75,0.5,0,-0.000345862,0.5186,17,0,17,0,1,,,,,,,,,,
,,353270,001,2023-07-31_20h46.28.579,arm3_eps,2022.2.5,Win32,120.1778632,60194185dc1e1f00083cb6c6,64c7fed44a04f777bb1e18ce,64c801684e7a4eb5256d5c93,down,-1,0.75,0.5,1,0,0.5621,18,0,18,0,1,,,,,,,,,,
,,353270,001,2023-07-31_20h46.28.579,arm3_eps,2022.2.5,Win32,120.1778632,60194185dc1e1f00083cb6c6,64c7fed44a04f777bb1e18ce,64c801684e7a4eb5256d5c93,right,-1,0.75,0.5,1,-0.005392862,0.5195,19,0,19,0,1,,,,,,,,,,
,,353270,001,2023-07-31_20h46.28.579,arm3_eps,2022.2.5,Win32,120.1778632,60194185dc1e1f00083cb6c6,64c7fed44a04f777bb1e18ce,64c801684e7a4eb5256d5c93,right,-1,0.75,0.5,1,0.007833318,0.5491,20,0,20,0,1,,,,,,,,,,
,,353270,001,2023-07-31_20h46.28.579,arm3_eps,2022.2.5,Win32,120.1778632,60194185dc1e1f00083cb6c6,64c7fed44a04f777bb1e18ce,64c801684e7a4eb5256d5c93,right,-1,0.75,0.5,1,-0.008440732,1.5724,21,0,21,0,1,,,,,,,,,,
,,353270,001,2023-07-31_20h46.28.579,arm3_eps,2022.2.5,Win32,120.1778632,60194185dc1e1f00083cb6c6,64c7fed44a04f777bb1e18ce,64c801684e7a4eb5256d5c93,down,1,0.75,0.5,2,0,0.566,22,0,22,0,1,,,,,,,,,,
,,353270,001,2023-07-31_20h46.28.579,arm3_eps,2022.2.5,Win32,120.1778632,60194185dc1e1f00083cb6c6,64c7fed44a04f777bb1e18ce,64c801684e7a4eb5256d5c93,right,1,0.75,0.5,2,0.038945081,0.5073,23,0,23,0,1,,,,,,,,,,
,,353270,001,2023-07-31_20h46.28.579,arm3_eps,2022.2.5,Win32,120.1778632,60194185dc1e1f00083cb6c6,64c7fed44a04f777bb1e18ce,64c801684e7a4eb5256d5c93,right,1,0.75,0.5,2,0.052349805,0.3411,24,0,24,0,1,,,,,,,,,,
,,353270,001,2023-07-31_20h46.28.579,arm3_eps,2022.2.5,Win32,120.1778632,60194185dc1e1f00083cb6c6,64c7fed44a04f777bb1e18ce,64c801684e7a4eb5256d5c93,up,1,0.75,0.5,3,0,0.4881,25,0,25,0,1,,,,,,,,,,
,,353270,001,2023-07-31_20h46.28.579,arm3_eps,2022.2.5,Win32,120.1778632,60194185dc1e1f00083cb6c6,64c7fed44a04f777bb1e18ce,64c801684e7a4eb5256d5c93,right,1,0.75,0.5,3,0.00219056,0.5661,26,0,26,0,1,,,,,,,,,,
,,353270,001,2023-07-31_20h46.28.579,arm3_eps,2022.2.5,Win32,120.1778632,60194185dc1e1f00083cb6c6,64c7fed44a04f777bb1e18ce,64c801684e7a4eb5256d5c93,right,1,0.75,0.5,3,0.004770465,0.7987,27,0,27,0,1,,,,,,,,,,
,,353270,001,2023-07-31_20h46.28.579,arm3_eps,2022.2.5,Win32,120.1778632,60194185dc1e1f00083cb6c6,64c7fed44a04f777bb1e18ce,64c801684e7a4eb5256d5c93,up,-1,0.75,0.5,4,0,0.4507,28,0,28,0,1,,,,,,,,,,
,,353270,001,2023-07-31_20h46.28.579,arm3_eps,2022.2.5,Win32,120.1778632,60194185dc1e1f00083cb6c6,64c7fed44a04f777bb1e18ce,64c801684e7a4eb5256d5c93,right,-1,0.75,0.5,4,0.002838693,0.5408,29,0,29,0,1,,,,,,,,,,
,,353270,001,2023-07-31_20h46.28.579,arm3_eps,2022.2.5,Win32,120.1778632,60194185dc1e1f00083cb6c6,64c7fed44a04f777bb1e18ce,64c801684e7a4eb5256d5c93,right,-1,0.75,0.5,4,-0.010870127,0.5657,30,0,30,0,1,,,,,,,,,,
,,353270,001,2023-07-31_20h46.28.579,arm3_eps,2022.2.5,Win32,120.1778632,60194185dc1e1f00083cb6c6,64c7fed44a04f777bb1e18ce,64c801684e7a4eb5256d5c93,right,-1,0.75,0.5,4,-0.015763865,1.3729,31,0,31,0,1,,,,,,,,,,
,,353270,001,2023-07-31_20h46.28.579,arm3_eps,2022.2.5,Win32,120.1778632,60194185dc1e1f00083cb6c6,64c7fed44a04f777bb1e18ce,64c801684e7a4eb5256d5c93,up,-1,0.75,0.5,3,0,0.6324,32,0,32,0,1,,,,,,,,,,
,,353270,001,2023-07-31_20h46.28.579,arm3_eps,2022.2.5,Win32,120.1778632,60194185dc1e1f00083cb6c6,64c7fed44a04f777bb1e18ce,64c801684e7a4eb5256d5c93,right,-1,0.75,0.5,3,-0.006794968,0.6454,33,0,33,0,1,,,,,,,,,,
,,353270,001,2023-07-31_20h46.28.579,arm3_eps,2022.2.5,Win32,120.1778632,60194185dc1e1f00083cb6c6,64c7fed44a04f777bb1e18ce,64c801684e7a4eb5256d5c93,right,-1,0.75,0.5,3,-0.010622015,0.2434,34,0,34,0,1,,,,,,,,,,
,,353270,001,2023-07-31_20h46.28.579,arm3_eps,2022.2.5,Win32,120.1778632,60194185dc1e1f00083cb6c6,64c7fed44a04f777bb1e18ce,64c801684e7a4eb5256d5c93,down,1,0.75,0.5,4,0,0.4492,35,0,35,0,1,,,,,,,,,,
,,353270,001,2023-07-31_20h46.28.579,arm3_eps,2022.2.5,Win32,120.1778632,60194185dc1e1f00083cb6c6,64c7fed44a04f777bb1e18ce,64c801684e7a4eb5256d5c93,right,1,0.75,0.5,4,0.016400836,0.5078,36,0,36,0,1,,,,,,,,,,
,,353270,001,2023-07-31_20h46.28.579,arm3_eps,2022.2.5,Win32,120.1778632,60194185dc1e1f00083cb6c6,64c7fed44a04f777bb1e18ce,64c801684e7a4eb5256d5c93,up,-1,0.75,0.5,4,0,0.8569,37,0,37,0,1,,,,,,,,,,
,,353270,001,2023-07-31_20h46.28.579,arm3_eps,2022.2.5,Win32,120.1778632,60194185dc1e1f00083cb6c6,64c7fed44a04f777bb1e18ce,64c801684e7a4eb5256d5c93,right,-1,0.75,0.5,4,-0.028496006,0.5104,38,0,38,0,1,,,,,,,,,,
,,353270,001,2023-07-31_20h46.28.579,arm3_eps,2022.2.5,Win32,120.1778632,60194185dc1e1f00083cb6c6,64c7fed44a04f777bb1e18ce,64c801684e7a4eb5256d5c93,down,1,0.75,0.5,5,0,0.8324,39,0,39,0,1,,,,,,,,,,
,,353270,001,2023-07-31_20h46.28.579,arm3_eps,2022.2.5,Win32,120.1778632,60194185dc1e1f00083cb6c6,64c7fed44a04f777bb1e18ce,64c801684e7a4eb5256d5c93,right,1,0.75,0.5,5,0.005294328,0.358,40,0,40,0,1,,,,,,,,,,
,,353270,001,2023-07-31_20h46.28.579,arm3_eps,2022.2.5,Win32,120.1778632,60194185dc1e1f00083cb6c6,64c7fed44a04f777bb1e18ce,64c801684e7a4eb5256d5c93,up,1,0.75,0.5,6,0,0.7493,41,0,41,0,1,,,,,,,,,,
,,353270,001,2023-07-31_20h46.28.579,arm3_eps,2022.2.5,Win32,120.1778632,60194185dc1e1f00083cb6c6,64c7fed44a04f777bb1e18ce,64c801684e7a4eb5256d5c93,right,1,0.75,0.5,6,-0.00503463,0.4251,42,0,42,0,1,,,,,,,,,,
,,353270,001,2023-07-31_20h46.28.579,arm3_eps,2022.2.5,Win32,120.1778632,60194185dc1e1f00083cb6c6,64c7fed44a04f777bb1e18ce,64c801684e7a4eb5256d5c93,up,1,0.75,0.5,7,0,0.7486,43,0,43,0,1,,,,,,,,,,
,,353270,001,2023-07-31_20h46.28.579,arm3_eps,2022.2.5,Win32,120.1778632,60194185dc1e1f00083cb6c6,64c7fed44a04f777bb1e18ce,64c801684e7a4eb5256d5c93,right,1,0.75,0.5,7,0.013400911,0.5415,44,0,44,0,1,,,,,,,,,,
,,353270,001,2023-07-31_20h46.28.579,arm3_eps,2022.2.5,Win32,120.1778632,60194185dc1e1f00083cb6c6,64c7fed44a04f777bb1e18ce,64c801684e7a4eb5256d5c93,up,-1,0.75,0.5,7,0,0.4582,45,0,45,0,1,,,,,,,,,,
,,353270,001,2023-07-31_20h46.28.579,arm3_eps,2022.2.5,Win32,120.1778632,60194185dc1e1f00083cb6c6,64c7fed44a04f777bb1e18ce,64c801684e7a4eb5256d5c93,right,-1,0.75,0.5,7,0.001844059,0.7918,46,0,46,0,1,,,,,,,,,,
,,353270,001,2023-07-31_20h46.28.579,arm3_eps,2022.2.5,Win32,120.1778632,60194185dc1e1f00083cb6c6,64c7fed44a04f777bb1e18ce,64c801684e7a4eb5256d5c93,down,-1,0.75,0.5,7,0,0.5491,47,0,47,0,1,,,,,,,,,,
,,353270,001,2023-07-31_20h46.28.579,arm3_eps,2022.2.5,Win32,120.1778632,60194185dc1e1f00083cb6c6,64c7fed44a04f777bb1e18ce,64c801684e7a4eb5256d5c93,right,-1,0.75,0.5,7,-0.028379896,0.5947,48,0,48,0,1,,,,,,,,,,
,,353270,001,2023-07-31_20h46.28.579,arm3_eps,2022.2.5,Win32,120.1778632,60194185dc1e1f00083cb6c6,64c7fed44a04f777bb1e18ce,64c801684e7a4eb5256d5c93,down,-1,0.75,0.5,7,-0.028379896,0.549,49,0,49,0,1,,,,,,,,,,
space,2.3237,353270,001,2023-07-31_20h46.28.579,arm3_eps,2022.2.5,Win32,120.1778632,60194185dc1e1f00083cb6c6,64c7fed44a04f777bb1e18ce,64c801684e7a4eb5256d5c93,,,,,,,,,,,,,,,,,,,,,,
space,4.4877,353270,001,2023-07-31_20h46.28.579,arm3_eps,2022.2.5,Win32,120.1778632,60194185dc1e1f00083cb6c6,64c7fed44a04f777bb1e18ce,64c801684e7a4eb5256d5c93,down,-1,0.75,0.3071,1,0,4.1386,,,,,,0,0,0,0,1,,,,,
,,353270,001,2023-07-31_20h46.28.579,arm3_eps,2022.2.5,Win32,120.1778632,60194185dc1e1f00083cb6c6,64c7fed44a04f777bb1e18ce,64c801684e7a4eb5256d5c93,right,-1,0.75,0.3071,1,-0.011577848,0.7463,,,,,,1,0,1,0,1,,,,,
,,353270,001,2023-07-31_20h46.28.579,arm3_eps,2022.2.5,Win32,120.1778632,60194185dc1e1f00083cb6c6,64c7fed44a04f777bb1e18ce,64c801684e7a4eb5256d5c93,down,-1,0.75,0.3071,2,0,0.4892,,,,,,2,0,2,0,1,,,,,
,,353270,001,2023-07-31_20h46.28.579,arm3_eps,2022.2.5,Win32,120.1778632,60194185dc1e1f00083cb6c6,64c7fed44a04f777bb1e18ce,64c801684e7a4eb5256d5c93,right,-1,0.75,0.3071,2,0.024592711,0.5589,,,,,,3,0,3,0,1,,,,,
,,353270,001,2023-07-31_20h46.28.579,arm3_eps,2022.2.5,Win32,120.1778632,60194185dc1e1f00083cb6c6,64c7fed44a04f777bb1e18ce,64c801684e7a4eb5256d5c93,up,-1,0.75,0.3071,2,0,0.8479,,,,,,4,0,4,0,1,,,,,
,,353270,001,2023-07-31_20h46.28.579,arm3_eps,2022.2.5,Win32,120.1778632,60194185dc1e1f00083cb6c6,64c7fed44a04f777bb1e18ce,64c801684e7a4eb5256d5c93,right,-1,0.75,0.3071,2,-0.022408171,0.7031,,,,,,5,0,5,0,1,,,,,
,,353270,001,2023-07-31_20h46.28.579,arm3_eps,2022.2.5,Win32,120.1778632,60194185dc1e1f00083cb6c6,64c7fed44a04f777bb1e18ce,64c801684e7a4eb5256d5c93,down,-1,0.75,0.3071,3,0,0.5548,,,,,,6,0,6,0,1,,,,,
,,353270,001,2023-07-31_20h46.28.579,arm3_eps,2022.2.5,Win32,120.1778632,60194185dc1e1f00083cb6c6,64c7fed44a04f777bb1e18ce,64c801684e7a4eb5256d5c93,right,-1,0.75,0.3071,3,0.015893327,1.2893,,,,,,7,0,7,0,1,,,,,
,,353270,001,2023-07-31_20h46.28.579,arm3_eps,2022.2.5,Win32,120.1778632,60194185dc1e1f00083cb6c6,64c7fed44a04f777bb1e18ce,64c801684e7a4eb5256d5c93,right,-1,0.75,0.3071,3,-0.010255983,0.8509,,,,,,8,0,8,0,1,,,,,
,,353270,001,2023-07-31_20h46.28.579,arm3_eps,2022.2.5,Win32,120.1778632,60194185dc1e1f00083cb6c6,64c7fed44a04f777bb1e18ce,64c801684e7a4eb5256d5c93,right,-1,0.75,0.3071,3,-0.001168536,0.4985,,,,,,9,0,9,0,1,,,,,
,,353270,001,2023-07-31_20h46.28.579,arm3_eps,2022.2.5,Win32,120.1778632,60194185dc1e1f00083cb6c6,64c7fed44a04f777bb1e18ce,64c801684e7a4eb5256d5c93,up,-1,0.75,0.3071,2,0,0.4816,,,,,,10,0,10,0,1,,,,,
,,353270,001,2023-07-31_20h46.28.579,arm3_eps,2022.2.5,Win32,120.1778632,60194185dc1e1f00083cb6c6,64c7fed44a04f777bb1e18ce,64c801684e7a4eb5256d5c93,right,-1,0.75,0.3071,2,-0.008864806,0.665,,,,,,11,0,11,0,1,,,,,
,,353270,001,2023-07-31_20h46.28.579,arm3_eps,2022.2.5,Win32,120.1778632,60194185dc1e1f00083cb6c6,64c7fed44a04f777bb1e18ce,64c801684e7a4eb5256d5c93,down,1,0.75,0.3071,3,0,0.9627,,,,,,12,0,12,0,1,,,,,
,,353270,001,2023-07-31_20h46.28.579,arm3_eps,2022.2.5,Win32,120.1778632,60194185dc1e1f00083cb6c6,64c7fed44a04f777bb1e18ce,64c801684e7a4eb5256d5c93,right,1,0.75,0.3071,3,-0.014346569,0.4127,,,,,,13,0,13,0,1,,,,,
,,353270,001,2023-07-31_20h46.28.579,arm3_eps,2022.2.5,Win32,120.1778632,60194185dc1e1f00083cb6c6,64c7fed44a04f777bb1e18ce,64c801684e7a4eb5256d5c93,up,1,0.75,0.3071,3,0,0.6084,,,,,,14,0,14,0,1,,,,,
,,353270,001,2023-07-31_20h46.28.579,arm3_eps,2022.2.5,Win32,120.1778632,60194185dc1e1f00083cb6c6,64c7fed44a04f777bb1e18ce,64c801684e7a4eb5256d5c93,right,1,0.75,0.3071,3,0.018332514,0.5302,,,,,,15,0,15,0,1,,,,,
,,353270,001,2023-07-31_20h46.28.579,arm3_eps,2022.2.5,Win32,120.1778632,60194185dc1e1f00083cb6c6,64c7fed44a04f777bb1e18ce,64c801684e7a4eb5256d5c93,up,1,0.75,0.3071,3,0,1.1468,,,,,,16,0,16,0,1,,,,,
,,353270,001,2023-07-31_20h46.28.579,arm3_eps,2022.2.5,Win32,120.1778632,60194185dc1e1f00083cb6c6,64c7fed44a04f777bb1e18ce,64c801684e7a4eb5256d5c93,right,1,0.75,0.3071,3,0.004603674,0.6361,,,,,,17,0,17,0,1,,,,,
,,353270,001,2023-07-31_20h46.28.579,arm3_eps,2022.2.5,Win32,120.1778632,60194185dc1e1f00083cb6c6,64c7fed44a04f777bb1e18ce,64c801684e7a4eb5256d5c93,up,-1,0.75,0.3071,4,0,0.8311,,,,,,18,0,18,0,1,,,,,
,,353270,001,2023-07-31_20h46.28.579,arm3_eps,2022.2.5,Win32,120.1778632,60194185dc1e1f00083cb6c6,64c7fed44a04f777bb1e18ce,64c801684e7a4eb5256d5c93,right,-1,0.75,0.3071,4,-0.014857333,0.505,,,,,,19,0,19,0,1,,,,,
,,353270,001,2023-07-31_20h46.28.579,arm3_eps,2022.2.5,Win32,120.1778632,60194185dc1e1f00083cb6c6,64c7fed44a04f777bb1e18ce,64c801684e7a4eb5256d5c93,down,1,0.75,0.3071,4,0,0.5494,,,,,,20,0,20,0,1,,,,,
,,353270,001,2023-07-31_20h46.28.579,arm3_eps,2022.2.5,Win32,120.1778632,60194185dc1e1f00083cb6c6,64c7fed44a04f777bb1e18ce,64c801684e7a4eb5256d5c93,right,1,0.75,0.3071,4,0.018776835,1.0189,,,,,,21,0,21,0,1,,,,,
,,353270,001,2023-07-31_20h46.28.579,arm3_eps,2022.2.5,Win32,120.1778632,60194185dc1e1f00083cb6c6,64c7fed44a04f777bb1e18ce,64c801684e7a4eb5256d5c93,up,1,0.75,0.3071,5,0,0.6421,,,,,,22,0,22,0,1,,,,,
,,353270,001,2023-07-31_20h46.28.579,arm3_eps,2022.2.5,Win32,120.1778632,60194185dc1e1f00083cb6c6,64c7fed44a04f777bb1e18ce,64c801684e7a4eb5256d5c93,right,1,0.75,0.3071,5,0.015358142,0.6089,,,,,,23,0,23,0,1,,,,,
,,353270,001,2023-07-31_20h46.28.579,arm3_eps,2022.2.5,Win32,120.1778632,60194185dc1e1f00083cb6c6,64c7fed44a04f777bb1e18ce,64c801684e7a4eb5256d5c93,up,1,0.75,0.3071,6,0,0.5551,,,,,,24,0,24,0,1,,,,,
,,353270,001,2023-07-31_20h46.28.579,arm3_eps,2022.2.5,Win32,120.1778632,60194185dc1e1f00083cb6c6,64c7fed44a04f777bb1e18ce,64c801684e7a4eb5256d5c93,up,1,0.75,0.3071,6,0,1.4437,,,,,,25,0,25,0,1,,,,,
,,353270,001,2023-07-31_20h46.28.579,arm3_eps,2022.2.5,Win32,120.1778632,60194185dc1e1f00083cb6c6,64c7fed44a04f777bb1e18ce,64c801684e7a4eb5256d5c93,up,1,0.75,0.3071,6,0,1.9982,,,,,,26,0,26,0,1,,,,,
,,353270,001,2023-07-31_20h46.28.579,arm3_eps,2022.2.5,Win32,120.1778632,60194185dc1e1f00083cb6c6,64c7fed44a04f777bb1e18ce,64c801684e7a4eb5256d5c93,up,1,0.75,0.3071,7,0,1.7685,,,,,,27,0,27,0,1,,,,,
,,353270,001,2023-07-31_20h46.28.579,arm3_eps,2022.2.5,Win32,120.1778632,60194185dc1e1f00083cb6c6,64c7fed44a04f777bb1e18ce,64c801684e7a4eb5256d5c93,right,1,0.75,0.3071,7,0.001885693,1.7189,,,,,,28,0,28,0,1,,,,,
,,353270,001,2023-07-31_20h46.28.579,arm3_eps,2022.2.5,Win32,120.1778632,60194185dc1e1f00083cb6c6,64c7fed44a04f777bb1e18ce,64c801684e7a4eb5256d5c93,up,-1,0.75,0.3071,8,0,0.514,,,,,,29,0,29,0,1,,,,,
,,353270,001,2023-07-31_20h46.28.579,arm3_eps,2022.2.5,Win32,120.1778632,60194185dc1e1f00083cb6c6,64c7fed44a04f777bb1e18ce,64c801684e7a4eb5256d5c93,right,-1,0.75,0.3071,8,-0.009833783,0.5497,,,,,,30,0,30,0,1,,,,,
,,353270,001,2023-07-31_20h46.28.579,arm3_eps,2022.2.5,Win32,120.1778632,60194185dc1e1f00083cb6c6,64c7fed44a04f777bb1e18ce,64c801684e7a4eb5256d5c93,down,1,0.75,0.3071,9,0,0.5773,,,,,,31,0,31,0,1,,,,,
,,353270,001,2023-07-31_20h46.28.579,arm3_eps,2022.2.5,Win32,120.1778632,60194185dc1e1f00083cb6c6,64c7fed44a04f777bb1e18ce,64c801684e7a4eb5256d5c93,down,-1,0.75,0.3071,9,0,1.4277,,,,,,32,0,32,0,1,,,,,
,,353270,001,2023-07-31_20h46.28.579,arm3_eps,2022.2.5,Win32,120.1778632,60194185dc1e1f00083cb6c6,64c7fed44a04f777bb1e18ce,64c801684e7a4eb5256d5c93,down,-1,0.75,0.3071,10,0,1.0795,,,,,,33,0,33,0,1,,,,,
,,353270,001,2023-07-31_20h46.28.579,arm3_eps,2022.2.5,Win32,120.1778632,60194185dc1e1f00083cb6c6,64c7fed44a04f777bb1e18ce,64c801684e7a4eb5256d5c93,up,1,0.75,0.3071,9,0,1.0499,,,,,,34,0,34,0,1,,,,,
,,353270,001,2023-07-31_20h46.28.579,arm3_eps,2022.2.5,Win32,120.1778632,60194185dc1e1f00083cb6c6,64c7fed44a04f777bb1e18ce,64c801684e7a4eb5256d5c93,up,1,0.75,0.3071,10,0,1.2253,,,,,,35,0,35,0,1,,,,,
,,353270,001,2023-07-31_20h46.28.579,arm3_eps,2022.2.5,Win32,120.1778632,60194185dc1e1f00083cb6c6,64c7fed44a04f777bb1e18ce,64c801684e7a4eb5256d5c93,down,1,0.75,0.3071,9,0,1.121,,,,,,36,0,36,0,1,,,,,
,,353270,001,2023-07-31_20h46.28.579,arm3_eps,2022.2.5,Win32,120.1778632,60194185dc1e1f00083cb6c6,64c7fed44a04f777bb1e18ce,64c801684e7a4eb5256d5c93,right,1,0.75,0.3071,9,0.001273332,1.3393,,,,,,37,0,37,0,1,,,,,
,,353270,001,2023-07-31_20h46.28.579,arm3_eps,2022.2.5,Win32,120.1778632,60194185dc1e1f00083cb6c6,64c7fed44a04f777bb1e18ce,64c801684e7a4eb5256d5c93,up,1,0.75,0.3071,10,0,0.4268,,,,,,38,0,38,0,1,,,,,
,,353270,001,2023-07-31_20h46.28.579,arm3_eps,2022.2.5,Win32,120.1778632,60194185dc1e1f00083cb6c6,64c7fed44a04f777bb1e18ce,64c801684e7a4eb5256d5c93,right,1,0.75,0.3071,10,0.000415009,0.8627,,,,,,39,0,39,0,1,,,,,
,,353270,001,2023-07-31_20h46.28.579,arm3_eps,2022.2.5,Win32,120.1778632,60194185dc1e1f00083cb6c6,64c7fed44a04f777bb1e18ce,64c801684e7a4eb5256d5c93,right,1,0.75,0.3071,10,0.014776148,1.2472,,,,,,40,0,40,0,1,,,,,
,,353270,001,2023-07-31_20h46.28.579,arm3_eps,2022.2.5,Win32,120.1778632,60194185dc1e1f00083cb6c6,64c7fed44a04f777bb1e18ce,64c801684e7a4eb5256d5c93,right,1,0.75,0.3071,10,0.006598339,0.5468,,,,,,41,0,41,0,1,,,,,
,,353270,001,2023-07-31_20h46.28.579,arm3_eps,2022.2.5,Win32,120.1778632,60194185dc1e1f00083cb6c6,64c7fed44a04f777bb1e18ce,64c801684e7a4eb5256d5c93,up,-1,0.75,0.3071,11,0,0.648,,,,,,42,0,42,0,1,,,,,
,,353270,001,2023-07-31_20h46.28.579,arm3_eps,2022.2.5,Win32,120.1778632,60194185dc1e1f00083cb6c6,64c7fed44a04f777bb1e18ce,64c801684e7a4eb5256d5c93,right,-1,0.75,0.3071,11,-0.00285136,0.7614,,,,,,43,0,43,0,1,,,,,
,,353270,001,2023-07-31_20h46.28.579,arm3_eps,2022.2.5,Win32,120.1778632,60194185dc1e1f00083cb6c6,64c7fed44a04f777bb1e18ce,64c801684e7a4eb5256d5c93,right,-1,0.75,0.3071,11,-0.002048938,1.3873,,,,,,44,0,44,0,1,,,,,
,,353270,001,2023-07-31_20h46.28.579,arm3_eps,2022.2.5,Win32,120.1778632,60194185dc1e1f00083cb6c6,64c7fed44a04f777bb1e18ce,64c801684e7a4eb5256d5c93,up,-1,0.75,0.3071,10,0,0.465,,,,,,45,0,45,0,1,,,,,
,,353270,001,2023-07-31_20h46.28.579,arm3_eps,2022.2.5,Win32,120.1778632,60194185dc1e1f00083cb6c6,64c7fed44a04f777bb1e18ce,64c801684e7a4eb5256d5c93,up,1,0.75,0.3071,10,0,1.9098,,,,,,46,0,46,0,1,,,,,
,,353270,001,2023-07-31_20h46.28.579,arm3_eps,2022.2.5,Win32,120.1778632,60194185dc1e1f00083cb6c6,64c7fed44a04f777bb1e18ce,64c801684e7a4eb5256d5c93,right,1,0.75,0.3071,10,-0.002303941,1.3775,,,,,,47,0,47,0,1,,,,,
,,353270,001,2023-07-31_20h46.28.579,arm3_eps,2022.2.5,Win32,120.1778632,60194185dc1e1f00083cb6c6,64c7fed44a04f777bb1e18ce,64c801684e7a4eb5256d5c93,up,1,0.75,0.3071,11,0,0.4986,,,,,,48,0,48,0,1,,,,,
,,353270,001,2023-07-31_20h46.28.579,arm3_eps,2022.2.5,Win32,120.1778632,60194185dc1e1f00083cb6c6,64c7fed44a04f777bb1e18ce,64c801684e7a4eb5256d5c93,right,1,0.75,0.3071,11,-0.013415194,1.4538,,,,,,49,0,49,0,1,,,,,
,,353270,001,2023-07-31_20h46.28.579,arm3_eps,2022.2.5,Win32,120.1778632,60194185dc1e1f00083cb6c6,64c7fed44a04f777bb1e18ce,64c801684e7a4eb5256d5c93,down,-1,0.75,0.3071,10,0,0.7084,,,,,,50,0,50,0,1,,,,,
,,353270,001,2023-07-31_20h46.28.579,arm3_eps,2022.2.5,Win32,120.1778632,60194185dc1e1f00083cb6c6,64c7fed44a04f777bb1e18ce,64c801684e7a4eb5256d5c93,right,-1,0.75,0.3071,10,-0.017018246,0.8464,,,,,,51,0,51,0,1,,,,,
,,353270,001,2023-07-31_20h46.28.579,arm3_eps,2022.2.5,Win32,120.1778632,60194185dc1e1f00083cb6c6,64c7fed44a04f777bb1e18ce,64c801684e7a4eb5256d5c93,right,-1,0.75,0.3071,10,-0.023070363,0.505,,,,,,52,0,52,0,1,,,,,
,,353270,001,2023-07-31_20h46.28.579,arm3_eps,2022.2.5,Win32,120.1778632,60194185dc1e1f00083cb6c6,64c7fed44a04f777bb1e18ce,64c801684e7a4eb5256d5c93,up,-1,0.75,0.3071,9,0,0.6141,,,,,,53,0,53,0,1,,,,,
,,353270,001,2023-07-31_20h46.28.579,arm3_eps,2022.2.5,Win32,120.1778632,60194185dc1e1f00083cb6c6,64c7fed44a04f777bb1e18ce,64c801684e7a4eb5256d5c93,right,-1,0.75,0.3071,9,-0.010188273,0.8708,,,,,,54,0,54,0,1,,,,,
,,353270,001,2023-07-31_20h46.28.579,arm3_eps,2022.2.5,Win32,120.1778632,60194185dc1e1f00083cb6c6,64c7fed44a04f777bb1e18ce,64c801684e7a4eb5256d5c93,down,-1,0.75,0.3071,9,0,0.4899,,,,,,55,0,55,0,1,,,,,
,,353270,001,2023-07-31_20h46.28.579,arm3_eps,2022.2.5,Win32,120.1778632,60194185dc1e1f00083cb6c6,64c7fed44a04f777bb1e18ce,64c801684e7a4eb5256d5c93,right,-1,0.75,0.3071,9,-0.046394701,1.2323,,,,,,56,0,56,0,1,,,,,
,,353270,001,2023-07-31_20h46.28.579,arm3_eps,2022.2.5,Win32,120.1778632,60194185dc1e1f00083cb6c6,64c7fed44a04f777bb1e18ce,64c801684e7a4eb5256d5c93,down,1,0.75,0.3071,10,0,0.6632,,,,,,57,0,57,0,1,,,,,
,,353270,001,2023-07-31_20h46.28.579,arm3_eps,2022.2.5,Win32,120.1778632,60194185dc1e1f00083cb6c6,64c7fed44a04f777bb1e18ce,64c801684e7a4eb5256d5c93,right,1,0.75,0.3071,10,0.01300241,0.999,,,,,,58,0,58,0,1,,,,,
,,353270,001,2023-07-31_20h46.28.579,arm3_eps,2022.2.5,Win32,120.1778632,60194185dc1e1f00083cb6c6,64c7fed44a04f777bb1e18ce,64c801684e7a4eb5256d5c93,right,1,0.75,0.3071,10,0.003995958,0.8729,,,,,,59,0,59,0,1,,,,,
,,353270,001,2023-07-31_20h46.28.579,arm3_eps,2022.2.5,Win32,120.1778632,60194185dc1e1f00083cb6c6,64c7fed44a04f777bb1e18ce,64c801684e7a4eb5256d5c93,up,1,0.75,0.3071,11,0,1.8455,,,,,,60,0,60,0,1,,,,,
,,353270,001,2023-07-31_20h46.28.579,arm3_eps,2022.2.5,Win32,120.1778632,60194185dc1e1f00083cb6c6,64c7fed44a04f777bb1e18ce,64c801684e7a4eb5256d5c93,right,1,0.75,0.3071,11,0.031556823,0.6917,,,,,,61,0,61,0,1,,,,,
,,353270,001,2023-07-31_20h46.28.579,arm3_eps,2022.2.5,Win32,120.1778632,60194185dc1e1f00083cb6c6,64c7fed44a04f777bb1e18ce,64c801684e7a4eb5256d5c93,up,-1,0.75,0.3071,12,0,0.8395,,,,,,62,0,62,0,1,,,,,
,,353270,001,2023-07-31_20h46.28.579,arm3_eps,2022.2.5,Win32,120.1778632,60194185dc1e1f00083cb6c6,64c7fed44a04f777bb1e18ce,64c801684e7a4eb5256d5c93,right,-1,0.75,0.3071,12,-0.026017059,1.6433,,,,,,63,0,63,0,1,,,,,
,,353270,001,2023-07-31_20h46.28.579,arm3_eps,2022.2.5,Win32,120.1778632,60194185dc1e1f00083cb6c6,64c7fed44a04f777bb1e18ce,64c801684e7a4eb5256d5c93,right,-1,0.75,0.3071,12,-0.017950214,0.6094,,,,,,64,0,64,0,1,,,,,
,,353270,001,2023-07-31_20h46.28.579,arm3_eps,2022.2.5,Win32,120.1778632,60194185dc1e1f00083cb6c6,64c7fed44a04f777bb1e18ce,64c801684e7a4eb5256d5c93,down,-1,0.75,0.3071,13,0,0.406,,,,,,65,0,65,0,1,,,,,
,,353270,001,2023-07-31_20h46.28.579,arm3_eps,2022.2.5,Win32,120.1778632,60194185dc1e1f00083cb6c6,64c7fed44a04f777bb1e18ce,64c801684e7a4eb5256d5c93,right,-1,0.75,0.3071,13,-0.006773565,0.9857,,,,,,66,0,66,0,1,,,,,
,,353270,001,2023-07-31_20h46.28.579,arm3_eps,2022.2.5,Win32,120.1778632,60194185dc1e1f00083cb6c6,64c7fed44a04f777bb1e18ce,64c801684e7a4eb5256d5c93,up,1,0.75,0.3071,12,0,0.98,,,,,,67,0,67,0,1,,,,,
,,353270,001,2023-07-31_20h46.28.579,arm3_eps,2022.2.5,Win32,120.1778632,60194185dc1e1f00083cb6c6,64c7fed44a04f777bb1e18ce,64c801684e7a4eb5256d5c93,right,1,0.75,0.3071,12,0.041310933,0.7954,,,,,,68,0,68,0,1,,,,,
,,353270,001,2023-07-31_20h46.28.579,arm3_eps,2022.2.5,Win32,120.1778632,60194185dc1e1f00083cb6c6,64c7fed44a04f777bb1e18ce,64c801684e7a4eb5256d5c93,up,1,0.75,0.3071,13,0,0.4893,,,,,,69,0,69,0,1,,,,,
,,353270,001,2023-07-31_20h46.28.579,arm3_eps,2022.2.5,Win32,120.1778632,60194185dc1e1f00083cb6c6,64c7fed44a04f777bb1e18ce,64c801684e7a4eb5256d5c93,up,1,0.75,0.3071,14,0,1.132,,,,,,70,0,70,0,1,,,,,
,,353270,001,2023-07-31_20h46.28.579,arm3_eps,2022.2.5,Win32,120.1778632,60194185dc1e1f00083cb6c6,64c7fed44a04f777bb1e18ce,64c801684e7a4eb5256d5c93,right,1,0.75,0.3071,14,0.007403511,1.7142,,,,,,71,0,71,0,1,,,,,
,,353270,001,2023-07-31_20h46.28.579,arm3_eps,2022.2.5,Win32,120.1778632,60194185dc1e1f00083cb6c6,64c7fed44a04f777bb1e18ce,64c801684e7a4eb5256d5c93,up,-1,0.75,0.3071,15,0,0.4951,,,,,,72,0,72,0,1,,,,,
,,353270,001,2023-07-31_20h46.28.579,arm3_eps,2022.2.5,Win32,120.1778632,60194185dc1e1f00083cb6c6,64c7fed44a04f777bb1e18ce,64c801684e7a4eb5256d5c93,right,-1,0.75,0.3071,15,-0.047046297,0.5761,,,,,,73,0,73,0,1,,,,,
,,353270,001,2023-07-31_20h46.28.579,arm3_eps,2022.2.5,Win32,120.1778632,60194185dc1e1f00083cb6c6,64c7fed44a04f777bb1e18ce,64c801684e7a4eb5256d5c93,down,-1,0.75,0.3071,16,0,1.2716,,,,,,74,0,74,0,1,,,,,
,,353270,001,2023-07-31_20h46.28.579,arm3_eps,2022.2.5,Win32,120.1778632,60194185dc1e1f00083cb6c6,64c7fed44a04f777bb1e18ce,64c801684e7a4eb5256d5c93,down,-1,0.75,0.3071,17,0,1.2613,,,,,,75,0,75,0,1,,,,,
,,353270,001,2023-07-31_20h46.28.579,arm3_eps,2022.2.5,Win32,120.1778632,60194185dc1e1f00083cb6c6,64c7fed44a04f777bb1e18ce,64c801684e7a4eb5256d5c93,down,-1,0.75,0.3071,18,0,1.1531,,,,,,76,0,76,0,1,,,,,
,,353270,001,2023-07-31_20h46.28.579,arm3_eps,2022.2.5,Win32,120.1778632,60194185dc1e1f00083cb6c6,64c7fed44a04f777bb1e18ce,64c801684e7a4eb5256d5c93,right,-1,0.75,0.3071,18,-0.015190307,1.5136,,,,,,77,0,77,0,1,,,,,
,,353270,001,2023-07-31_20h46.28.579,arm3_eps,2022.2.5,Win32,120.1778632,60194185dc1e1f00083cb6c6,64c7fed44a04f777bb1e18ce,64c801684e7a4eb5256d5c93,right,-1,0.75,0.3071,18,-0.01468335,0.5972,,,,,,78,0,78,0,1,,,,,
,,353270,001,2023-07-31_20h46.28.579,arm3_eps,2022.2.5,Win32,120.1778632,60194185dc1e1f00083cb6c6,64c7fed44a04f777bb1e18ce,64c801684e7a4eb5256d5c93,down,-1,0.75,0.3071,19,0,0.531,,,,,,79,0,79,0,1,,,,,
,,353270,001,2023-07-31_20h46.28.579,arm3_eps,2022.2.5,Win32,120.1778632,60194185dc1e1f00083cb6c6,64c7fed44a04f777bb1e18ce,64c801684e7a4eb5256d5c93,right,-1,0.75,0.3071,19,-0.006674152,0.8442,,,,,,80,0,80,0,1,,,,,
,,353270,001,2023-07-31_20h46.28.579,arm3_eps,2022.2.5,Win32,120.1778632,60194185dc1e1f00083cb6c6,64c7fed44a04f777bb1e18ce,64c801684e7a4eb5256d5c93,down,-1,0.75,0.3071,20,0,0.6262,,,,,,81,0,81,0,1,,,,,
,,353270,001,2023-07-31_20h46.28.579,arm3_eps,2022.2.5,Win32,120.1778632,60194185dc1e1f00083cb6c6,64c7fed44a04f777bb1e18ce,64c801684e7a4eb5256d5c93,right,-1,0.75,0.3071,20,-0.005027113,1.4565,,,,,,82,0,82,0,1,,,,,
,,353270,001,2023-07-31_20h46.28.579,arm3_eps,2022.2.5,Win32,120.1778632,60194185dc1e1f00083cb6c6,64c7fed44a04f777bb1e18ce,64c801684e7a4eb5256d5c93,right,-1,0.75,0.3071,20,-0.014642856,1.1987,,,,,,83,0,83,0,1,,,,,
,,353270,001,2023-07-31_20h46.28.579,arm3_eps,2022.2.5,Win32,120.1778632,60194185dc1e1f00083cb6c6,64c7fed44a04f777bb1e18ce,64c801684e7a4eb5256d5c93,down,1,0.75,0.3071,21,0,0.4469,,,,,,84,0,84,0,1,,,,,
,,353270,001,2023-07-31_20h46.28.579,arm3_eps,2022.2.5,Win32,120.1778632,60194185dc1e1f00083cb6c6,64c7fed44a04f777bb1e18ce,64c801684e7a4eb5256d5c93,right,1,0.75,0.3071,21,0.03660266,0.8195,,,,,,85,0,85,0,1,,,,,
,,353270,001,2023-07-31_20h46.28.579,arm3_eps,2022.2.5,Win32,120.1778632,60194185dc1e1f00083cb6c6,64c7fed44a04f777bb1e18ce,64c801684e7a4eb5256d5c93,up,-1,0.75,0.3071,22,0,0.7678,,,,,,86,0,86,0,1,,,,,
,,353270,001,2023-07-31_20h46.28.579,arm3_eps,2022.2.5,Win32,120.1778632,60194185dc1e1f00083cb6c6,64c7fed44a04f777bb1e18ce,64c801684e7a4eb5256d5c93,right,-1,0.75,0.3071,22,-0.00804597,0.9985,,,,,,87,0,87,0,1,,,,,
,,353270,001,2023-07-31_20h46.28.579,arm3_eps,2022.2.5,Win32,120.1778632,60194185dc1e1f00083cb6c6,64c7fed44a04f777bb1e18ce,64c801684e7a4eb5256d5c93,down,-1,0.75,0.3071,22,0,0.5638,,,,,,88,0,88,0,1,,,,,
,,353270,001,2023-07-31_20h46.28.579,arm3_eps,2022.2.5,Win32,120.1778632,60194185dc1e1f00083cb6c6,64c7fed44a04f777bb1e18ce,64c801684e7a4eb5256d5c93,right,-1,0.75,0.3071,22,-0.000740965,1.3574,,,,,,89,0,89,0,1,,,,,
,,353270,001,2023-07-31_20h46.28.579,arm3_eps,2022.2.5,Win32,120.1778632,60194185dc1e1f00083cb6c6,64c7fed44a04f777bb1e18ce,64c801684e7a4eb5256d5c93,down,1,0.75,0.3071,23,0,0.6667,,,,,,90,0,90,0,1,,,,,
,,353270,001,2023-07-31_20h46.28.579,arm3_eps,2022.2.5,Win32,120.1778632,60194185dc1e1f00083cb6c6,64c7fed44a04f777bb1e18ce,64c801684e7a4eb5256d5c93,right,1,0.75,0.3071,23,0.020825689,0.9406,,,,,,91,0,91,0,1,,,,,
,,353270,001,2023-07-31_20h46.28.579,arm3_eps,2022.2.5,Win32,120.1778632,60194185dc1e1f00083cb6c6,64c7fed44a04f777bb1e18ce,64c801684e7a4eb5256d5c93,up,1,0.75,0.3071,24,0,0.8401,,,,,,92,0,92,0,1,,,,,
,,353270,001,2023-07-31_20h46.28.579,arm3_eps,2022.2.5,Win32,120.1778632,60194185dc1e1f00083cb6c6,64c7fed44a04f777bb1e18ce,64c801684e7a4eb5256d5c93,right,1,0.75,0.3071,24,-0.002810115,0.9083,,,,,,93,0,93,0,1,,,,,
,,353270,001,2023-07-31_20h46.28.579,arm3_eps,2022.2.5,Win32,120.1778632,60194185dc1e1f00083cb6c6,64c7fed44a04f777bb1e18ce,64c801684e7a4eb5256d5c93,up,1,0.75,0.3071,25,0,0.9144,,,,,,94,0,94,0,1,,,,,
,,353270,001,2023-07-31_20h46.28.579,arm3_eps,2022.2.5,Win32,120.1778632,60194185dc1e1f00083cb6c6,64c7fed44a04f777bb1e18ce,64c801684e7a4eb5256d5c93,up,1,0.75,0.3071,25,0,1.3289,,,,,,95,0,95,0,1,,,,,
,,353270,001,2023-07-31_20h46.28.579,arm3_eps,2022.2.5,Win32,120.1778632,60194185dc1e1f00083cb6c6,64c7fed44a04f777bb1e18ce,64c801684e7a4eb5256d5c93,up,-1,0.75,0.3071,26,0,1.0357,,,,,,96,0,96,0,1,,,,,
,,353270,001,2023-07-31_20h46.28.579,arm3_eps,2022.2.5,Win32,120.1778632,60194185dc1e1f00083cb6c6,64c7fed44a04f777bb1e18ce,64c801684e7a4eb5256d5c93,down,-1,0.75,0.3071,27,0,2.0599,,,,,,97,0,97,0,1,,,,,
,,353270,001,2023-07-31_20h46.28.579,arm3_eps,2022.2.5,Win32,120.1778632,60194185dc1e1f00083cb6c6,64c7fed44a04f777bb1e18ce,64c801684e7a4eb5256d5c93,up,-1,0.75,0.3071,27,0,1.1031,,,,,,98,0,98,0,1,,,,,
,,353270,001,2023-07-31_20h46.28.579,arm3_eps,2022.2.5,Win32,120.1778632,60194185dc1e1f00083cb6c6,64c7fed44a04f777bb1e18ce,64c801684e7a4eb5256d5c93,right,-1,0.75,0.3071,27,-0.011330772,1.3399,,,,,,99,0,99,0,1,,,,,
,,353270,001,2023-07-31_20h46.28.579,arm3_eps,2022.2.5,Win32,120.1778632,60194185dc1e1f00083cb6c6,64c7fed44a04f777bb1e18ce,64c801684e7a4eb5256d5c93,down,-1,0.75,0.3071,28,0,0.5398,,,,,,100,0,100,0,1,,,,,
,,353270,001,2023-07-31_20h46.28.579,arm3_eps,2022.2.5,Win32,120.1778632,60194185dc1e1f00083cb6c6,64c7fed44a04f777bb1e18ce,64c801684e7a4eb5256d5c93,right,-1,0.75,0.3071,28,-0.006427791,1.1209,,,,,,101,0,101,0,1,,,,,
,,353270,001,2023-07-31_20h46.28.579,arm3_eps,2022.2.5,Win32,120.1778632,60194185dc1e1f00083cb6c6,64c7fed44a04f777bb1e18ce,64c801684e7a4eb5256d5c93,right,-1,0.75,0.3071,28,-0.004913796,1.8572,,,,,,102,0,102,0,1,,,,,
,,353270,001,2023-07-31_20h46.28.579,arm3_eps,2022.2.5,Win32,120.1778632,60194185dc1e1f00083cb6c6,64c7fed44a04f777bb1e18ce,64c801684e7a4eb5256d5c93,down,-1,0.75,0.3071,28,0,0.4841,,,,,,103,0,103,0,1,,,,,
,,353270,001,2023-07-31_20h46.28.579,arm3_eps,2022.2.5,Win32,120.1778632,60194185dc1e1f00083cb6c6,64c7fed44a04f777bb1e18ce,64c801684e7a4eb5256d5c93,right,-1,0.75,0.3071,28,-0.025072022,1.3452,,,,,,104,0,104,0,1,,,,,
,,353270,001,2023-07-31_20h46.28.579,arm3_eps,2022.2.5,Win32,120.1778632,60194185dc1e1f00083cb6c6,64c7fed44a04f777bb1e18ce,64c801684e7a4eb5256d5c93,down,-1,0.75,0.3071,29,0,0.3725,,,,,,105,0,105,0,1,,,,,
,,353270,001,2023-07-31_20h46.28.579,arm3_eps,2022.2.5,Win32,120.1778632,60194185dc1e1f00083cb6c6,64c7fed44a04f777bb1e18ce,64c801684e7a4eb5256d5c93,right,-1,0.75,0.3071,29,0.028968326,1.0979,,,,,,106,0,106,0,1,,,,,
,,353270,001,2023-07-31_20h46.28.579,arm3_eps,2022.2.5,Win32,120.1778632,60194185dc1e1f00083cb6c6,64c7fed44a04f777bb1e18ce,64c801684e7a4eb5256d5c93,up,1,0.75,0.3071,28,0,0.8135,,,,,,107,0,107,0,1,,,,,
,,353270,001,2023-07-31_20h46.28.579,arm3_eps,2022.2.5,Win32,120.1778632,60194185dc1e1f00083cb6c6,64c7fed44a04f777bb1e18ce,64c801684e7a4eb5256d5c93,right,1,0.75,0.3071,28,-0.006731728,0.8112,,,,,,108,0,108,0,1,,,,,
,,353270,001,2023-07-31_20h46.28.579,arm3_eps,2022.2.5,Win32,120.1778632,60194185dc1e1f00083cb6c6,64c7fed44a04f777bb1e18ce,64c801684e7a4eb5256d5c93,right,1,0.75,0.3071,28,-0.000991466,3.027,,,,,,109,0,109,0,1,,,,,
,,353270,001,2023-07-31_20h46.28.579,arm3_eps,2022.2.5,Win32,120.1778632,60194185dc1e1f00083cb6c6,64c7fed44a04f777bb1e18ce,64c801684e7a4eb5256d5c93,up,-1,0.75,0.3071,28,0,0.6483,,,,,,110,0,110,0,1,,,,,
,,353270,001,2023-07-31_20h46.28.579,arm3_eps,2022.2.5,Win32,120.1778632,60194185dc1e1f00083cb6c6,64c7fed44a04f777bb1e18ce,64c801684e7a4eb5256d5c93,right,-1,0.75,0.3071,28,0.017026361,0.9969,,,,,,111,0,111,0,1,,,,,
,,353270,001,2023-07-31_20h46.28.579,arm3_eps,2022.2.5,Win32,120.1778632,60194185dc1e1f00083cb6c6,64c7fed44a04f777bb1e18ce,64c801684e7a4eb5256d5c93,up,1,0.75,0.3071,27,0,0.9637,,,,,,112,0,112,0,1,,,,,
,,353270,001,2023-07-31_20h46.28.579,arm3_eps,2022.2.5,Win32,120.1778632,60194185dc1e1f00083cb6c6,64c7fed44a04f777bb1e18ce,64c801684e7a4eb5256d5c93,right,1,0.75,0.3071,27,0.003982791,0.7873,,,,,,113,0,113,0,1,,,,,
,,353270,001,2023-07-31_20h46.28.579,arm3_eps,2022.2.5,Win32,120.1778632,60194185dc1e1f00083cb6c6,64c7fed44a04f777bb1e18ce,64c801684e7a4eb5256d5c93,right,1,0.75,0.3071,27,0.009527369,0.8477,,,,,,114,0,114,0,1,,,,,
,,353270,001,2023-07-31_20h46.28.579,arm3_eps,2022.2.5,Win32,120.1778632,60194185dc1e1f00083cb6c6,64c7fed44a04f777bb1e18ce,64c801684e7a4eb5256d5c93,up,1,0.75,0.3071,28,0,0.4057,,,,,,115,0,115,0,1,,,,,
,,353270,001,2023-07-31_20h46.28.579,arm3_eps,2022.2.5,Win32,120.1778632,60194185dc1e1f00083cb6c6,64c7fed44a04f777bb1e18ce,64c801684e7a4eb5256d5c93,right,1,0.75,0.3071,28,0.029062285,0.7534,,,,,,116,0,116,0,1,,,,,
,,353270,001,2023-07-31_20h46.28.579,arm3_eps,2022.2.5,Win32,120.1778632,60194185dc1e1f00083cb6c6,64c7fed44a04f777bb1e18ce,64c801684e7a4eb5256d5c93,up,1,0.75,0.3071,29,0,0.8233,,,,,,117,0,117,0,1,,,,,
,,353270,001,2023-07-31_20h46.28.579,arm3_eps,2022.2.5,Win32,120.1778632,60194185dc1e1f00083cb6c6,64c7fed44a04f777bb1e18ce,64c801684e7a4eb5256d5c93,right,1,0.75,0.3071,29,0.011835462,0.8633,,,,,,118,0,118,0,1,,,,,
,,353270,001,2023-07-31_20h46.28.579,arm3_eps,2022.2.5,Win32,120.1778632,60194185dc1e1f00083cb6c6,64c7fed44a04f777bb1e18ce,64c801684e7a4eb5256d5c93,up,1,0.75,0.3071,30,0,0.6197,,,,,,119,0,119,0,1,,,,,
,,353270,001,2023-07-31_20h46.28.579,arm3_eps,2022.2.5,Win32,120.1778632,60194185dc1e1f00083cb6c6,64c7fed44a04f777bb1e18ce,64c801684e7a4eb5256d5c93,up,1,0.75,0.3071,31,0,1.8866,,,,,,120,0,120,0,1,,,,,
,,353270,001,2023-07-31_20h46.28.579,arm3_eps,2022.2.5,Win32,120.1778632,60194185dc1e1f00083cb6c6,64c7fed44a04f777bb1e18ce,64c801684e7a4eb5256d5c93,down,-1,0.75,0.3071,30,0,1.1802,,,,,,121,0,121,0,1,,,,,
,,353270,001,2023-07-31_20h46.28.579,arm3_eps,2022.2.5,Win32,120.1778632,60194185dc1e1f00083cb6c6,64c7fed44a04f777bb1e18ce,64c801684e7a4eb5256d5c93,up,1,0.75,0.3071,30,0,1.1686,,,,,,122,0,122,0,1,,,,,
,,353270,001,2023-07-31_20h46.28.579,arm3_eps,2022.2.5,Win32,120.1778632,60194185dc1e1f00083cb6c6,64c7fed44a04f777bb1e18ce,64c801684e7a4eb5256d5c93,right,1,0.75,0.3071,30,0.00895888,1.4769,,,,,,123,0,123,0,1,,,,,
,,353270,001,2023-07-31_20h46.28.579,arm3_eps,2022.2.5,Win32,120.1778632,60194185dc1e1f00083cb6c6,64c7fed44a04f777bb1e18ce,64c801684e7a4eb5256d5c93,right,1,0.75,0.3071,30,-0.009019317,0.6218,,,,,,124,0,124,0,1,,,,,
,,353270,001,2023-07-31_20h46.28.579,arm3_eps,2022.2.5,Win32,120.1778632,60194185dc1e1f00083cb6c6,64c7fed44a04f777bb1e18ce,64c801684e7a4eb5256d5c93,right,1,0.75,0.3071,30,0.011477568,0.4969,,,,,,125,0,125,0,1,,,,,
,,353270,001,2023-07-31_20h46.28.579,arm3_eps,2022.2.5,Win32,120.1778632,60194185dc1e1f00083cb6c6,64c7fed44a04f777bb1e18ce,64c801684e7a4eb5256d5c93,up,1,0.75,0.3071,31,0,0.6474,,,,,,126,0,126,0,1,,,,,
,,353270,001,2023-07-31_20h46.28.579,arm3_eps,2022.2.5,Win32,120.1778632,60194185dc1e1f00083cb6c6,64c7fed44a04f777bb1e18ce,64c801684e7a4eb5256d5c93,right,1,0.75,0.3071,31,0.033574885,0.7943,,,,,,127,0,127,0,1,,,,,
,,353270,001,2023-07-31_20h46.28.579,arm3_eps,2022.2.5,Win32,120.1778632,60194185dc1e1f00083cb6c6,64c7fed44a04f777bb1e18ce,64c801684e7a4eb5256d5c93,up,1,0.75,0.3071,31,0,0.5883,,,,,,128,0,128,0,1,,,,,
,,353270,001,2023-07-31_20h46.28.579,arm3_eps,2022.2.5,Win32,120.1778632,60194185dc1e1f00083cb6c6,64c7fed44a04f777bb1e18ce,64c801684e7a4eb5256d5c93,right,1,0.75,0.3071,31,0.002180021,1.2036,,,,,,129,0,129,0,1,,,,,
,,353270,001,2023-07-31_20h46.28.579,arm3_eps,2022.2.5,Win32,120.1778632,60194185dc1e1f00083cb6c6,64c7fed44a04f777bb1e18ce,64c801684e7a4eb5256d5c93,up,1,0.75,0.3071,32,0,0.5202,,,,,,130,0,130,0,1,,,,,
,,353270,001,2023-07-31_20h46.28.579,arm3_eps,2022.2.5,Win32,120.1778632,60194185dc1e1f00083cb6c6,64c7fed44a04f777bb1e18ce,64c801684e7a4eb5256d5c93,right,1,0.75,0.3071,32,0.003008535,1.0737,,,,,,131,0,131,0,1,,,,,
,,353270,001,2023-07-31_20h46.28.579,arm3_eps,2022.2.5,Win32,120.1778632,60194185dc1e1f00083cb6c6,64c7fed44a04f777bb1e18ce,64c801684e7a4eb5256d5c93,up,1,0.75,0.3071,33,0,1.5872,,,,,,132,0,132,0,1,,,,,
,,353270,001,2023-07-31_20h46.28.579,arm3_eps,2022.2.5,Win32,120.1778632,60194185dc1e1f00083cb6c6,64c7fed44a04f777bb1e18ce,64c801684e7a4eb5256d5c93,right,1,0.75,0.3071,33,-0.001564351,0.8285,,,,,,133,0,133,0,1,,,,,
,,353270,001,2023-07-31_20h46.28.579,arm3_eps,2022.2.5,Win32,120.1778632,60194185dc1e1f00083cb6c6,64c7fed44a04f777bb1e18ce,64c801684e7a4eb5256d5c93,up,1,0.75,0.3071,33,0,1.1458,,,,,,134,0,134,0,1,,,,,
,,353270,001,2023-07-31_20h46.28.579,arm3_eps,2022.2.5,Win32,120.1778632,60194185dc1e1f00083cb6c6,64c7fed44a04f777bb1e18ce,64c801684e7a4eb5256d5c93,up,1,0.75,0.3071,34,0,1.6989,,,,,,135,0,135,0,1,,,,,
,,353270,001,2023-07-31_20h46.28.579,arm3_eps,2022.2.5,Win32,120.1778632,60194185dc1e1f00083cb6c6,64c7fed44a04f777bb1e18ce,64c801684e7a4eb5256d5c93,up,1,0.75,0.3071,35,0,1.3975,,,,,,136,0,136,0,1,,,,,
,,353270,001,2023-07-31_20h46.28.579,arm3_eps,2022.2.5,Win32,120.1778632,60194185dc1e1f00083cb6c6,64c7fed44a04f777bb1e18ce,64c801684e7a4eb5256d5c93,down,1,0.75,0.3071,34,0,1.4599,,,,,,137,0,137,0,1,,,,,
,,353270,001,2023-07-31_20h46.28.579,arm3_eps,2022.2.5,Win32,120.1778632,60194185dc1e1f00083cb6c6,64c7fed44a04f777bb1e18ce,64c801684e7a4eb5256d5c93,up,1,0.75,0.3071,35,0,1.7273,,,,,,138,0,138,0,1,,,,,
,,353270,001,2023-07-31_20h46.28.579,arm3_eps,2022.2.5,Win32,120.1778632,60194185dc1e1f00083cb6c6,64c7fed44a04f777bb1e18ce,64c801684e7a4eb5256d5c93,down,-1,0.75,0.3071,35,0,1.4896,,,,,,139,0,139,0,1,,,,,
,,353270,001,2023-07-31_20h46.28.579,arm3_eps,2022.2.5,Win32,120.1778632,60194185dc1e1f00083cb6c6,64c7fed44a04f777bb1e18ce,64c801684e7a4eb5256d5c93,right,-1,0.75,0.3071,35,0.006442254,1.2272,,,,,,140,0,140,0,1,,,,,
,,353270,001,2023-07-31_20h46.28.579,arm3_eps,2022.2.5,Win32,120.1778632,60194185dc1e1f00083cb6c6,64c7fed44a04f777bb1e18ce,64c801684e7a4eb5256d5c93,right,-1,0.75,0.3071,35,-0.012335519,0.4182,,,,,,141,0,141,0,1,,,,,
,,353270,001,2023-07-31_20h46.28.579,arm3_eps,2022.2.5,Win32,120.1778632,60194185dc1e1f00083cb6c6,64c7fed44a04f777bb1e18ce,64c801684e7a4eb5256d5c93,down,1,0.75,0.3071,36,0,0.4307,,,,,,142,0,142,0,1,,,,,
,,353270,001,2023-07-31_20h46.28.579,arm3_eps,2022.2.5,Win32,120.1778632,60194185dc1e1f00083cb6c6,64c7fed44a04f777bb1e18ce,64c801684e7a4eb5256d5c93,right,1,0.75,0.3071,36,0.030062891,1.9023,,,,,,143,0,143,0,1,,,,,
,,353270,001,2023-07-31_20h46.28.579,arm3_eps,2022.2.5,Win32,120.1778632,60194185dc1e1f00083cb6c6,64c7fed44a04f777bb1e18ce,64c801684e7a4eb5256d5c93,up,1,0.75,0.3071,37,0,0.5635,,,,,,144,0,144,0,1,,,,,
,,353270,001,2023-07-31_20h46.28.579,arm3_eps,2022.2.5,Win32,120.1778632,60194185dc1e1f00083cb6c6,64c7fed44a04f777bb1e18ce,64c801684e7a4eb5256d5c93,right,1,0.75,0.3071,37,0.004165553,0.6201,,,,,,145,0,145,0,1,,,,,
,,353270,001,2023-07-31_20h46.28.579,arm3_eps,2022.2.5,Win32,120.1778632,60194185dc1e1f00083cb6c6,64c7fed44a04f777bb1e18ce,64c801684e7a4eb5256d5c93,down,-1,0.75,0.3071,36,0,0.7994,,,,,,146,0,146,0,1,,,,,
,,353270,001,2023-07-31_20h46.28.579,arm3_eps,2022.2.5,Win32,120.1778632,60194185dc1e1f00083cb6c6,64c7fed44a04f777bb1e18ce,64c801684e7a4eb5256d5c93,right,-1,0.75,0.3071,36,-0.019968273,0.8857,,,,,,147,0,147,0,1,,,,,
,,353270,001,2023-07-31_20h46.28.579,arm3_eps,2022.2.5,Win32,120.1778632,60194185dc1e1f00083cb6c6,64c7fed44a04f777bb1e18ce,64c801684e7a4eb5256d5c93,down,-1,0.75,0.3071,37,0,0.6975,,,,,,148,0,148,0,1,,,,,
,,353270,001,2023-07-31_20h46.28.579,arm3_eps,2022.2.5,Win32,120.1778632,60194185dc1e1f00083cb6c6,64c7fed44a04f777bb1e18ce,64c801684e7a4eb5256d5c93,right,-1,0.75,0.3071,37,0.006509546,1.087,,,,,,149,0,149,0,1,,,,,
,,353270,001,2023-07-31_20h46.28.579,arm3_eps,2022.2.5,Win32,120.1778632,60194185dc1e1f00083cb6c6,64c7fed44a04f777bb1e18ce,64c801684e7a4eb5256d5c93,right,-1,0.75,0.3071,37,-0.011686725,0.3693,,,,,,150,0,150,0,1,,,,,
,,353270,001,2023-07-31_20h46.28.579,arm3_eps,2022.2.5,Win32,120.1778632,60194185dc1e1f00083cb6c6,64c7fed44a04f777bb1e18ce,64c801684e7a4eb5256d5c93,down,1,0.75,0.3071,38,0,1.0391,,,,,,151,0,151,0,1,,,,,
,,353270,001,2023-07-31_20h46.28.579,arm3_eps,2022.2.5,Win32,120.1778632,60194185dc1e1f00083cb6c6,64c7fed44a04f777bb1e18ce,64c801684e7a4eb5256d5c93,right,1,0.75,0.3071,38,-0.004581012,0.9448,,,,,,152,0,152,0,1,,,,,
,,353270,001,2023-07-31_20h46.28.579,arm3_eps,2022.2.5,Win32,120.1778632,60194185dc1e1f00083cb6c6,64c7fed44a04f777bb1e18ce,64c801684e7a4eb5256d5c93,right,1,0.75,0.3071,38,0.009789851,0.5728,,,,,,153,0,153,0,1,,,,,
,,353270,001,2023-07-31_20h46.28.579,arm3_eps,2022.2.5,Win32,120.1778632,60194185dc1e1f00083cb6c6,64c7fed44a04f777bb1e18ce,64c801684e7a4eb5256d5c93,right,1,0.75,0.3071,38,-0.0065613,0.9793,,,,,,154,0,154,0,1,,,,,
,,353270,001,2023-07-31_20h46.28.579,arm3_eps,2022.2.5,Win32,120.1778632,60194185dc1e1f00083cb6c6,64c7fed44a04f777bb1e18ce,64c801684e7a4eb5256d5c93,down,1,0.75,0.3071,37,0,0.3781,,,,,,155,0,155,0,1,,,,,
,,353270,001,2023-07-31_20h46.28.579,arm3_eps,2022.2.5,Win32,120.1778632,60194185dc1e1f00083cb6c6,64c7fed44a04f777bb1e18ce,64c801684e7a4eb5256d5c93,right,1,0.75,0.3071,37,0.020569976,0.9367,,,,,,156,0,156,0,1,,,,,
,,353270,001,2023-07-31_20h46.28.579,arm3_eps,2022.2.5,Win32,120.1778632,60194185dc1e1f00083cb6c6,64c7fed44a04f777bb1e18ce,64c801684e7a4eb5256d5c93,right,1,0.75,0.3071,37,0.010588864,0.7729,,,,,,157,0,157,0,1,,,,,
,,353270,001,2023-07-31_20h46.28.579,arm3_eps,2022.2.5,Win32,120.1778632,60194185dc1e1f00083cb6c6,64c7fed44a04f777bb1e18ce,64c801684e7a4eb5256d5c93,up,-1,0.75,0.3071,37,0,0.6268,,,,,,158,0,158,0,1,,,,,
,,353270,001,2023-07-31_20h46.28.579,arm3_eps,2022.2.5,Win32,120.1778632,60194185dc1e1f00083cb6c6,64c7fed44a04f777bb1e18ce,64c801684e7a4eb5256d5c93,down,-1,0.75,0.3071,37,0,1.3865,,,,,,159,0,159,0,1,,,,,
,,353270,001,2023-07-31_20h46.28.579,arm3_eps,2022.2.5,Win32,120.1778632,60194185dc1e1f00083cb6c6,64c7fed44a04f777bb1e18ce,64c801684e7a4eb5256d5c93,right,-1,0.75,0.3071,37,-0.007774066,1.3717,,,,,,160,0,160,0,1,,,,,
,,353270,001,2023-07-31_20h46.28.579,arm3_eps,2022.2.5,Win32,120.1778632,60194185dc1e1f00083cb6c6,64c7fed44a04f777bb1e18ce,64c801684e7a4eb5256d5c93,down,-1,0.75,0.3071,38,0,0.3321,,,,,,161,0,161,0,1,,,,,
,,353270,001,2023-07-31_20h46.28.579,arm3_eps,2022.2.5,Win32,120.1778632,60194185dc1e1f00083cb6c6,64c7fed44a04f777bb1e18ce,64c801684e7a4eb5256d5c93,right,-1,0.75,0.3071,38,-0.003669069,0.9367,,,,,,162,0,162,0,1,,,,,
,,353270,001,2023-07-31_20h46.28.579,arm3_eps,2022.2.5,Win32,120.1778632,60194185dc1e1f00083cb6c6,64c7fed44a04f777bb1e18ce,64c801684e7a4eb5256d5c93,down,1,0.75,0.3071,39,0,0.7017,,,,,,163,0,163,0,1,,,,,
,,353270,001,2023-07-31_20h46.28.579,arm3_eps,2022.2.5,Win32,120.1778632,60194185dc1e1f00083cb6c6,64c7fed44a04f777bb1e18ce,64c801684e7a4eb5256d5c93,right,1,0.75,0.3071,39,-0.014601067,1.3124,,,,,,164,0,164,0,1,,,,,
,,353270,001,2023-07-31_20h46.28.579,arm3_eps,2022.2.5,Win32,120.1778632,60194185dc1e1f00083cb6c6,64c7fed44a04f777bb1e18ce,64c801684e7a4eb5256d5c93,right,1,0.75,0.3071,39,-0.021086008,0.5803,,,,,,165,0,165,0,1,,,,,
,,353270,001,2023-07-31_20h46.28.579,arm3_eps,2022.2.5,Win32,120.1778632,60194185dc1e1f00083cb6c6,64c7fed44a04f777bb1e18ce,64c801684e7a4eb5256d5c93,right,1,0.75,0.3071,39,-0.011599385,0.6808,,,,,,166,0,166,0,1,,,,,
,,353270,001,2023-07-31_20h46.28.579,arm3_eps,2022.2.5,Win32,120.1778632,60194185dc1e1f00083cb6c6,64c7fed44a04f777bb1e18ce,64c801684e7a4eb5256d5c93,down,1,0.75,0.3071,39,0,0.3395,,,,,,167,0,167,0,1,,,,,
,,353270,001,2023-07-31_20h46.28.579,arm3_eps,2022.2.5,Win32,120.1778632,60194185dc1e1f00083cb6c6,64c7fed44a04f777bb1e18ce,64c801684e7a4eb5256d5c93,right,1,0.75,0.3071,39,0.013838563,0.7581,,,,,,168,0,168,0,1,,,,,
,,353270,001,2023-07-31_20h46.28.579,arm3_eps,2022.2.5,Win32,120.1778632,60194185dc1e1f00083cb6c6,64c7fed44a04f777bb1e18ce,64c801684e7a4eb5256d5c93,up,1,0.75,0.3071,39,0,0.5897,,,,,,169,0,169,0,1,,,,,
,,353270,001,2023-07-31_20h46.28.579,arm3_eps,2022.2.5,Win32,120.1778632,60194185dc1e1f00083cb6c6,64c7fed44a04f777bb1e18ce,64c801684e7a4eb5256d5c93,right,1,0.75,0.3071,39,0.008386478,1.0358,,,,,,170,0,170,0,1,,,,,
,,353270,001,2023-07-31_20h46.28.579,arm3_eps,2022.2.5,Win32,120.1778632,60194185dc1e1f00083cb6c6,64c7fed44a04f777bb1e18ce,64c801684e7a4eb5256d5c93,up,1,0.75,0.3071,40,0,0.7636,,,,,,171,0,171,0,1,,,,,
,,353270,001,2023-07-31_20h46.28.579,arm3_eps,2022.2.5,Win32,120.1778632,60194185dc1e1f00083cb6c6,64c7fed44a04f777bb1e18ce,64c801684e7a4eb5256d5c93,right,1,0.75,0.3071,40,-0.005326625,0.8502,,,,,,172,0,172,0,1,,,,,
,,353270,001,2023-07-31_20h46.28.579,arm3_eps,2022.2.5,Win32,120.1778632,60194185dc1e1f00083cb6c6,64c7fed44a04f777bb1e18ce,64c801684e7a4eb5256d5c93,right,1,0.75,0.3071,40,0.010495304,1.5223,,,,,,173,0,173,0,1,,,,,
,,353270,001,2023-07-31_20h46.28.579,arm3_eps,2022.2.5,Win32,120.1778632,60194185dc1e1f00083cb6c6,64c7fed44a04f777bb1e18ce,64c801684e7a4eb5256d5c93,down,1,0.75,0.3071,40,0,0.7588,,,,,,174,0,174,0,1,,,,,
,,353270,001,2023-07-31_20h46.28.579,arm3_eps,2022.2.5,Win32,120.1778632,60194185dc1e1f00083cb6c6,64c7fed44a04f777bb1e18ce,64c801684e7a4eb5256d5c93,right,1,0.75,0.3071,40,0.018452043,0.9128,,,,,,175,0,175,0,1,,,,,
,,353270,001,2023-07-31_20h46.28.579,arm3_eps,2022.2.5,Win32,120.1778632,60194185dc1e1f00083cb6c6,64c7fed44a04f777bb1e18ce,64c801684e7a4eb5256d5c93,up,1,0.75,0.3071,41,0,0.5379,,,,,,176,0,176,0,1,,,,,
,,353270,001,2023-07-31_20h46.28.579,arm3_eps,2022.2.5,Win32,120.1778632,60194185dc1e1f00083cb6c6,64c7fed44a04f777bb1e18ce,64c801684e7a4eb5256d5c93,right,1,0.75,0.3071,41,0.032899665,1.0621,,,,,,177,0,177,0,1,,,,,
,,353270,001,2023-07-31_20h46.28.579,arm3_eps,2022.2.5,Win32,120.1778632,60194185dc1e1f00083cb6c6,64c7fed44a04f777bb1e18ce,64c801684e7a4eb5256d5c93,up,1,0.75,0.3071,42,0,1.2977,,,,,,178,0,178,0,1,,,,,
,,353270,001,2023-07-31_20h46.28.579,arm3_eps,2022.2.5,Win32,120.1778632,60194185dc1e1f00083cb6c6,64c7fed44a04f777bb1e18ce,64c801684e7a4eb5256d5c93,right,1,0.75,0.3071,42,0.001722214,1.0118,,,,,,179,0,179,0,1,,,,,
,,353270,001,2023-07-31_20h46.28.579,arm3_eps,2022.2.5,Win32,120.1778632,60194185dc1e1f00083cb6c6,64c7fed44a04f777bb1e18ce,64c801684e7a4eb5256d5c93,down,1,0.75,0.3071,41,0,0.4824,,,,,,180,0,180,0,1,,,,,
,,353270,001,2023-07-31_20h46.28.579,arm3_eps,2022.2.5,Win32,120.1778632,60194185dc1e1f00083cb6c6,64c7fed44a04f777bb1e18ce,64c801684e7a4eb5256d5c93,right,1,0.75,0.3071,41,0.003457705,0.8707,,,,,,181,0,181,0,1,,,,,
,,353270,001,2023-07-31_20h46.28.579,arm3_eps,2022.2.5,Win32,120.1778632,60194185dc1e1f00083cb6c6,64c7fed44a04f777bb1e18ce,64c801684e7a4eb5256d5c93,up,-1,0.75,0.3071,42,0,0.841,,,,,,182,0,182,0,1,,,,,
,,353270,001,2023-07-31_20h46.28.579,arm3_eps,2022.2.5,Win32,120.1778632,60194185dc1e1f00083cb6c6,64c7fed44a04f777bb1e18ce,64c801684e7a4eb5256d5c93,right,-1,0.75,0.3071,42,-0.002561264,0.6632,,,,,,183,0,183,0,1,,,,,
,,353270,001,2023-07-31_20h46.28.579,arm3_eps,2022.2.5,Win32,120.1778632,60194185dc1e1f00083cb6c6,64c7fed44a04f777bb1e18ce,64c801684e7a4eb5256d5c93,down,-1,0.75,0.3071,43,0,0.6802,,,,,,184,0,184,0,1,,,,,
,,353270,001,2023-07-31_20h46.28.579,arm3_eps,2022.2.5,Win32,120.1778632,60194185dc1e1f00083cb6c6,64c7fed44a04f777bb1e18ce,64c801684e7a4eb5256d5c93,down,1,0.75,0.3071,43,0,1.5772,,,,,,185,0,185,0,1,,,,,
,,353270,001,2023-07-31_20h46.28.579,arm3_eps,2022.2.5,Win32,120.1778632,60194185dc1e1f00083cb6c6,64c7fed44a04f777bb1e18ce,64c801684e7a4eb5256d5c93,right,1,0.75,0.3071,43,0.005194597,1.4767,,,,,,186,0,186,0,1,,,,,
,,353270,001,2023-07-31_20h46.28.579,arm3_eps,2022.2.5,Win32,120.1778632,60194185dc1e1f00083cb6c6,64c7fed44a04f777bb1e18ce,64c801684e7a4eb5256d5c93,right,1,0.75,0.3071,43,-0.005080008,0.4841,,,,,,187,0,187,0,1,,,,,
,,353270,001,2023-07-31_20h46.28.579,arm3_eps,2022.2.5,Win32,120.1778632,60194185dc1e1f00083cb6c6,64c7fed44a04f777bb1e18ce,64c801684e7a4eb5256d5c93,up,-1,0.75,0.3071,44,0,0.577,,,,,,188,0,188,0,1,,,,,
,,353270,001,2023-07-31_20h46.28.579,arm3_eps,2022.2.5,Win32,120.1778632,60194185dc1e1f00083cb6c6,64c7fed44a04f777bb1e18ce,64c801684e7a4eb5256d5c93,right,-1,0.75,0.3071,44,-0.007237407,0.884,,,,,,189,0,189,0,1,,,,,
,,353270,001,2023-07-31_20h46.28.579,arm3_eps,2022.2.5,Win32,120.1778632,60194185dc1e1f00083cb6c6,64c7fed44a04f777bb1e18ce,64c801684e7a4eb5256d5c93,down,1,0.75,0.3071,45,0,0.5393,,,,,,190,0,190,0,1,,,,,
,,353270,001,2023-07-31_20h46.28.579,arm3_eps,2022.2.5,Win32,120.1778632,60194185dc1e1f00083cb6c6,64c7fed44a04f777bb1e18ce,64c801684e7a4eb5256d5c93,up,-1,0.75,0.3071,45,0,1.3274,,,,,,191,0,191,0,1,,,,,
,,353270,001,2023-07-31_20h46.28.579,arm3_eps,2022.2.5,Win32,120.1778632,60194185dc1e1f00083cb6c6,64c7fed44a04f777bb1e18ce,64c801684e7a4eb5256d5c93,up,-1,0.75,0.3071,44,0,1.0559,,,,,,192,0,192,0,1,,,,,
,,353270,001,2023-07-31_20h46.28.579,arm3_eps,2022.2.5,Win32,120.1778632,60194185dc1e1f00083cb6c6,64c7fed44a04f777bb1e18ce,64c801684e7a4eb5256d5c93,down,-1,0.75,0.3071,44,0,1.0441,,,,,,193,0,193,0,1,,,,,
,,353270,001,2023-07-31_20h46.28.579,arm3_eps,2022.2.5,Win32,120.1778632,60194185dc1e1f00083cb6c6,64c7fed44a04f777bb1e18ce,64c801684e7a4eb5256d5c93,right,-1,0.75,0.3071,44,-0.003108297,1.206,,,,,,194,0,194,0,1,,,,,
,,353270,001,2023-07-31_20h46.28.579,arm3_eps,2022.2.5,Win32,120.1778632,60194185dc1e1f00083cb6c6,64c7fed44a04f777bb1e18ce,64c801684e7a4eb5256d5c93,right,-1,0.75,0.3071,44,-0.002099347,0.2473,,,,,,195,0,195,0,1,,,,,
,,353270,001,2023-07-31_20h46.28.579,arm3_eps,2022.2.5,Win32,120.1778632,60194185dc1e1f00083cb6c6,64c7fed44a04f777bb1e18ce,64c801684e7a4eb5256d5c93,up,-1,0.75,0.3071,43,0,0.6069,,,,,,196,0,196,0,1,,,,,
,,353270,001,2023-07-31_20h46.28.579,arm3_eps,2022.2.5,Win32,120.1778632,60194185dc1e1f00083cb6c6,64c7fed44a04f777bb1e18ce,64c801684e7a4eb5256d5c93,right,-1,0.75,0.3071,43,-0.023025398,1.3525,,,,,,197,0,197,0,1,,,,,
,,353270,001,2023-07-31_20h46.28.579,arm3_eps,2022.2.5,Win32,120.1778632,60194185dc1e1f00083cb6c6,64c7fed44a04f777bb1e18ce,64c801684e7a4eb5256d5c93,down,-1,0.75,0.3071,44,0,0.3979,,,,,,198,0,198,0,1,,,,,
,,353270,001,2023-07-31_20h46.28.579,arm3_eps,2022.2.5,Win32,120.1778632,60194185dc1e1f00083cb6c6,64c7fed44a04f777bb1e18ce,64c801684e7a4eb5256d5c93,right,-1,0.75,0.3071,44,-0.019082024,1.055,,,,,,199,0,199,0,1,,,,,
,,353270,001,2023-07-31_20h46.28.579,arm3_eps,2022.2.5,Win32,120.1778632,60194185dc1e1f00083cb6c6,64c7fed44a04f777bb1e18ce,64c801684e7a4eb5256d5c93,down,-1,0.75,0.3071,45,0,0.5015,,,,,,200,0,200,0,1,,,,,
,,353270,001,2023-07-31_20h46.28.579,arm3_eps,2022.2.5,Win32,120.1778632,60194185dc1e1f00083cb6c6,64c7fed44a04f777bb1e18ce,64c801684e7a4eb5256d5c93,down,-1,0.75,0.3071,46,0,1.013,,,,,,201,0,201,0,1,,,,,
,,353270,001,2023-07-31_20h46.28.579,arm3_eps,2022.2.5,Win32,120.1778632,60194185dc1e1f00083cb6c6,64c7fed44a04f777bb1e18ce,64c801684e7a4eb5256d5c93,down,1,0.75,0.3071,47,0,1.0816,,,,,,202,0,202,0,1,,,,,
,,353270,001,2023-07-31_20h46.28.579,arm3_eps,2022.2.5,Win32,120.1778632,60194185dc1e1f00083cb6c6,64c7fed44a04f777bb1e18ce,64c801684e7a4eb5256d5c93,up,-1,0.75,0.3071,48,0,1.1533,,,,,,203,0,203,0,1,,,,,
,,353270,001,2023-07-31_20h46.28.579,arm3_eps,2022.2.5,Win32,120.1778632,60194185dc1e1f00083cb6c6,64c7fed44a04f777bb1e18ce,64c801684e7a4eb5256d5c93,right,-1,0.75,0.3071,48,-0.012258639,1.3108,,,,,,204,0,204,0,1,,,,,
,,353270,001,2023-07-31_20h46.28.579,arm3_eps,2022.2.5,Win32,120.1778632,60194185dc1e1f00083cb6c6,64c7fed44a04f777bb1e18ce,64c801684e7a4eb5256d5c93,right,-1,0.75,0.3071,48,-0.020622298,0.3479,,,,,,205,0,205,0,1,,,,,
,,353270,001,2023-07-31_20h46.28.579,arm3_eps,2022.2.5,Win32,120.1778632,60194185dc1e1f00083cb6c6,64c7fed44a04f777bb1e18ce,64c801684e7a4eb5256d5c93,down,-1,0.75,0.3071,49,0,0.4324,,,,,,206,0,206,0,1,,,,,
,,353270,001,2023-07-31_20h46.28.579,arm3_eps,2022.2.5,Win32,120.1778632,60194185dc1e1f00083cb6c6,64c7fed44a04f777bb1e18ce,64c801684e7a4eb5256d5c93,right,-1,0.75,0.3071,49,-0.001322939,1.4689,,,,,,207,0,207,0,1,,,,,
,,353270,001,2023-07-31_20h46.28.579,arm3_eps,2022.2.5,Win32,120.1778632,60194185dc1e1f00083cb6c6,64c7fed44a04f777bb1e18ce,64c801684e7a4eb5256d5c93,right,-1,0.75,0.3071,49,-0.020327042,0.7228,,,,,,208,0,208,0,1,,,,,
,,353270,001,2023-07-31_20h46.28.579,arm3_eps,2022.2.5,Win32,120.1778632,60194185dc1e1f00083cb6c6,64c7fed44a04f777bb1e18ce,64c801684e7a4eb5256d5c93,down,-1,0.75,0.3071,49,0,0.7149,,,,,,209,0,209,0,1,,,,,
,,353270,001,2023-07-31_20h46.28.579,arm3_eps,2022.2.5,Win32,120.1778632,60194185dc1e1f00083cb6c6,64c7fed44a04f777bb1e18ce,64c801684e7a4eb5256d5c93,right,-1,0.75,0.3071,49,-0.0062724,0.6877,,,,,,210,0,210,0,1,,,,,
,,353270,001,2023-07-31_20h46.28.579,arm3_eps,2022.2.5,Win32,120.1778632,60194185dc1e1f00083cb6c6,64c7fed44a04f777bb1e18ce,64c801684e7a4eb5256d5c93,right,-1,0.75,0.3071,49,-0.011076766,0.8465,,,,,,211,0,211,0,1,,,,,
,,353270,001,2023-07-31_20h46.28.579,arm3_eps,2022.2.5,Win32,120.1778632,60194185dc1e1f00083cb6c6,64c7fed44a04f777bb1e18ce,64c801684e7a4eb5256d5c93,right,-1,0.75,0.3071,49,-0.008594058,1.3708,,,,,,212,0,212,0,1,,,,,
,,353270,001,2023-07-31_20h46.28.579,arm3_eps,2022.2.5,Win32,120.1778632,60194185dc1e1f00083cb6c6,64c7fed44a04f777bb1e18ce,64c801684e7a4eb5256d5c93,down,-1,0.75,0.3071,50,0,0.5072,,,,,,213,0,213,0,1,,,,,
,,353270,001,2023-07-31_20h46.28.579,arm3_eps,2022.2.5,Win32,120.1778632,60194185dc1e1f00083cb6c6,64c7fed44a04f777bb1e18ce,64c801684e7a4eb5256d5c93,right,-1,0.75,0.3071,50,-0.011036642,0.6303,,,,,,214,0,214,0,1,,,,,
,,353270,001,2023-07-31_20h46.28.579,arm3_eps,2022.2.5,Win32,120.1778632,60194185dc1e1f00083cb6c6,64c7fed44a04f777bb1e18ce,64c801684e7a4eb5256d5c93,right,-1,0.75,0.3071,50,-0.012864131,0.5183,,,,,,215,0,215,0,1,,,,,
,,353270,001,2023-07-31_20h46.28.579,arm3_eps,2022.2.5,Win32,120.1778632,60194185dc1e1f00083cb6c6,64c7fed44a04f777bb1e18ce,64c801684e7a4eb5256d5c93,down,1,0.75,0.3071,51,0,0.5817,,,,,,216,0,216,0,1,,,,,
,,353270,001,2023-07-31_20h46.28.579,arm3_eps,2022.2.5,Win32,120.1778632,60194185dc1e1f00083cb6c6,64c7fed44a04f777bb1e18ce,64c801684e7a4eb5256d5c93,right,1,0.75,0.3071,51,0.001861231,1.4988,,,,,,217,0,217,0,1,,,,,
,,353270,001,2023-07-31_20h46.28.579,arm3_eps,2022.2.5,Win32,120.1778632,60194185dc1e1f00083cb6c6,64c7fed44a04f777bb1e18ce,64c801684e7a4eb5256d5c93,right,1,0.75,0.3071,51,0.007221762,1.4962,,,,,,218,0,218,0,1,,,,,
,,353270,001,2023-07-31_20h46.28.579,arm3_eps,2022.2.5,Win32,120.1778632,60194185dc1e1f00083cb6c6,64c7fed44a04f777bb1e18ce,64c801684e7a4eb5256d5c93,right,1,0.75,0.3071,51,-0.000891988,0.6394,,,,,,219,0,219,0,1,,,,,
,,353270,001,2023-07-31_20h46.28.579,arm3_eps,2022.2.5,Win32,120.1778632,60194185dc1e1f00083cb6c6,64c7fed44a04f777bb1e18ce,64c801684e7a4eb5256d5c93,up,1,0.75,0.3071,52,0,0.5981,,,,,,220,0,220,0,1,,,,,
,,353270,001,2023-07-31_20h46.28.579,arm3_eps,2022.2.5,Win32,120.1778632,60194185dc1e1f00083cb6c6,64c7fed44a04f777bb1e18ce,64c801684e7a4eb5256d5c93,right,1,0.75,0.3071,52,-0.012097662,1.9687,,,,,,221,0,221,0,1,,,,,
,,353270,001,2023-07-31_20h46.28.579,arm3_eps,2022.2.5,Win32,120.1778632,60194185dc1e1f00083cb6c6,64c7fed44a04f777bb1e18ce,64c801684e7a4eb5256d5c93,down,1,0.75,0.3071,52,0,0.647,,,,,,222,0,222,0,1,,,,,
,,353270,001,2023-07-31_20h46.28.579,arm3_eps,2022.2.5,Win32,120.1778632,60194185dc1e1f00083cb6c6,64c7fed44a04f777bb1e18ce,64c801684e7a4eb5256d5c93,up,1,0.75,0.3071,52,0,1.07,,,,,,223,0,223,0,1,,,,,
,,353270,001,2023-07-31_20h46.28.579,arm3_eps,2022.2.5,Win32,120.1778632,60194185dc1e1f00083cb6c6,64c7fed44a04f777bb1e18ce,64c801684e7a4eb5256d5c93,right,1,0.75,0.3071,52,0.013813841,1.146,,,,,,224,0,224,0,1,,,,,
,,353270,001,2023-07-31_20h46.28.579,arm3_eps,2022.2.5,Win32,120.1778632,60194185dc1e1f00083cb6c6,64c7fed44a04f777bb1e18ce,64c801684e7a4eb5256d5c93,up,1,0.75,0.3071,53,0,0.8111,,,,,,225,0,225,0,1,,,,,
,,353270,001,2023-07-31_20h46.28.579,arm3_eps,2022.2.5,Win32,120.1778632,60194185dc1e1f00083cb6c6,64c7fed44a04f777bb1e18ce,64c801684e7a4eb5256d5c93,right,1,0.75,0.3071,53,-0.004208175,2.4846,,,,,,226,0,226,0,1,,,,,
,,353270,001,2023-07-31_20h46.28.579,arm3_eps,2022.2.5,Win32,120.1778632,60194185dc1e1f00083cb6c6,64c7fed44a04f777bb1e18ce,64c801684e7a4eb5256d5c93,right,1,0.75,0.3071,53,0.008557653,0.4995,,,,,,227,0,227,0,1,,,,,
,,353270,001,2023-07-31_20h46.28.579,arm3_eps,2022.2.5,Win32,120.1778632,60194185dc1e1f00083cb6c6,64c7fed44a04f777bb1e18ce,64c801684e7a4eb5256d5c93,right,1,0.75,0.3071,53,0.005204095,0.4602,,,,,,228,0,228,0,1,,,,,
,,353270,001,2023-07-31_20h46.28.579,arm3_eps,2022.2.5,Win32,120.1778632,60194185dc1e1f00083cb6c6,64c7fed44a04f777bb1e18ce,64c801684e7a4eb5256d5c93,right,1,0.75,0.3071,53,0.014786865,0.516,,,,,,229,0,229,0,1,,,,,
,,353270,001,2023-07-31_20h46.28.579,arm3_eps,2022.2.5,Win32,120.1778632,60194185dc1e1f00083cb6c6,64c7fed44a04f777bb1e18ce,64c801684e7a4eb5256d5c93,up,1,0.75,0.3071,54,0,0.7211,,,,,,230,0,230,0,1,,,,,
,,353270,001,2023-07-31_20h46.28.579,arm3_eps,2022.2.5,Win32,120.1778632,60194185dc1e1f00083cb6c6,64c7fed44a04f777bb1e18ce,64c801684e7a4eb5256d5c93,right,1,0.75,0.3071,54,0.0178614,0.6623,,,,,,231,0,231,0,1,,,,,
,,353270,001,2023-07-31_20h46.28.579,arm3_eps,2022.2.5,Win32,120.1778632,60194185dc1e1f00083cb6c6,64c7fed44a04f777bb1e18ce,64c801684e7a4eb5256d5c93,right,1,0.75,0.3071,54,0.012523049,0.7057,,,,,,232,0,232,0,1,,,,,
,,353270,001,2023-07-31_20h46.28.579,arm3_eps,2022.2.5,Win32,120.1778632,60194185dc1e1f00083cb6c6,64c7fed44a04f777bb1e18ce,64c801684e7a4eb5256d5c93,down,1,0.75,0.3071,54,0,0.5909,,,,,,233,0,233,0,1,,,,,
,,353270,001,2023-07-31_20h46.28.579,arm3_eps,2022.2.5,Win32,120.1778632,60194185dc1e1f00083cb6c6,64c7fed44a04f777bb1e18ce,64c801684e7a4eb5256d5c93,right,1,0.75,0.3071,54,0.008051832,0.7812,,,,,,234,0,234,0,1,,,,,
,,353270,001,2023-07-31_20h46.28.579,arm3_eps,2022.2.5,Win32,120.1778632,60194185dc1e1f00083cb6c6,64c7fed44a04f777bb1e18ce,64c801684e7a4eb5256d5c93,up,1,0.75,0.3071,54,0,0.8133,,,,,,235,0,235,0,1,,,,,
,,353270,001,2023-07-31_20h46.28.579,arm3_eps,2022.2.5,Win32,120.1778632,60194185dc1e1f00083cb6c6,64c7fed44a04f777bb1e18ce,64c801684e7a4eb5256d5c93,right,1,0.75,0.3071,54,0.015654163,0.7566,,,,,,236,0,236,0,1,,,,,
,,353270,001,2023-07-31_20h46.28.579,arm3_eps,2022.2.5,Win32,120.1778632,60194185dc1e1f00083cb6c6,64c7fed44a04f777bb1e18ce,64c801684e7a4eb5256d5c93,right,1,0.75,0.3071,54,0.019089101,0.4493,,,,,,237,0,237,0,1,,,,,
,,353270,001,2023-07-31_20h46.28.579,arm3_eps,2022.2.5,Win32,120.1778632,60194185dc1e1f00083cb6c6,64c7fed44a04f777bb1e18ce,64c801684e7a4eb5256d5c93,right,1,0.75,0.3071,54,-0.005450974,1.3551,,,,,,238,0,238,0,1,,,,,
,,353270,001,2023-07-31_20h46.28.579,arm3_eps,2022.2.5,Win32,120.1778632,60194185dc1e1f00083cb6c6,64c7fed44a04f777bb1e18ce,64c801684e7a4eb5256d5c93,up,1,0.75,0.3071,55,0,0.4977,,,,,,239,0,239,0,1,,,,,
,,353270,001,2023-07-31_20h46.28.579,arm3_eps,2022.2.5,Win32,120.1778632,60194185dc1e1f00083cb6c6,64c7fed44a04f777bb1e18ce,64c801684e7a4eb5256d5c93,right,1,0.75,0.3071,55,-0.029811382,0.7786,,,,,,240,0,240,0,1,,,,,
,,353270,001,2023-07-31_20h46.28.579,arm3_eps,2022.2.5,Win32,120.1778632,60194185dc1e1f00083cb6c6,64c7fed44a04f777bb1e18ce,64c801684e7a4eb5256d5c93,down,1,0.75,0.3071,54,0,0.5137,,,,,,241,0,241,0,1,,,,,
,,353270,001,2023-07-31_20h46.28.579,arm3_eps,2022.2.5,Win32,120.1778632,60194185dc1e1f00083cb6c6,64c7fed44a04f777bb1e18ce,64c801684e7a4eb5256d5c93,right,1,0.75,0.3071,54,0.045672612,1.3608,,,,,,242,0,242,0,1,,,,,
,,353270,001,2023-07-31_20h46.28.579,arm3_eps,2022.2.5,Win32,120.1778632,60194185dc1e1f00083cb6c6,64c7fed44a04f777bb1e18ce,64c801684e7a4eb5256d5c93,up,1,0.75,0.3071,55,0,0.6651,,,,,,243,0,243,0,1,,,,,
,,353270,001,2023-07-31_20h46.28.579,arm3_eps,2022.2.5,Win32,120.1778632,60194185dc1e1f00083cb6c6,64c7fed44a04f777bb1e18ce,64c801684e7a4eb5256d5c93,right,1,0.75,0.3071,55,0.003570236,1.2409,,,,,,244,0,244,0,1,,,,,
,,353270,001,2023-07-31_20h46.28.579,arm3_eps,2022.2.5,Win32,120.1778632,60194185dc1e1f00083cb6c6,64c7fed44a04f777bb1e18ce,64c801684e7a4eb5256d5c93,right,1,0.75,0.3071,55,-0.014762453,0.8416,,,,,,245,0,245,0,1,,,,,
,,353270,001,2023-07-31_20h46.28.579,arm3_eps,2022.2.5,Win32,120.1778632,60194185dc1e1f00083cb6c6,64c7fed44a04f777bb1e18ce,64c801684e7a4eb5256d5c93,right,1,0.75,0.3071,55,0.017754193,0.7316,,,,,,246,0,246,0,1,,,,,
,,353270,001,2023-07-31_20h46.28.579,arm3_eps,2022.2.5,Win32,120.1778632,60194185dc1e1f00083cb6c6,64c7fed44a04f777bb1e18ce,64c801684e7a4eb5256d5c93,down,-1,0.75,0.3071,54,0,0.5449,,,,,,247,0,247,0,1,,,,,
,,353270,001,2023-07-31_20h46.28.579,arm3_eps,2022.2.5,Win32,120.1778632,60194185dc1e1f00083cb6c6,64c7fed44a04f777bb1e18ce,64c801684e7a4eb5256d5c93,right,-1,0.75,0.3071,54,-0.010508039,0.7083,,,,,,248,0,248,0,1,,,,,
,,353270,001,2023-07-31_20h46.28.579,arm3_eps,2022.2.5,Win32,120.1778632,60194185dc1e1f00083cb6c6,64c7fed44a04f777bb1e18ce,64c801684e7a4eb5256d5c93,down,1,0.75,0.3071,55,0,0.5059,,,,,,249,0,249,0,1,,,,,
,,353270,001,2023-07-31_20h46.28.579,arm3_eps,2022.2.5,Win32,120.1778632,60194185dc1e1f00083cb6c6,64c7fed44a04f777bb1e18ce,64c801684e7a4eb5256d5c93,right,1,0.75,0.3071,55,-0.033185942,0.9586,,,,,,250,0,250,0,1,,,,,
,,353270,001,2023-07-31_20h46.28.579,arm3_eps,2022.2.5,Win32,120.1778632,60194185dc1e1f00083cb6c6,64c7fed44a04f777bb1e18ce,64c801684e7a4eb5256d5c93,down,-1,0.75,0.3071,54,0,0.5519,,,,,,251,0,251,0,1,,,,,
,,353270,001,2023-07-31_20h46.28.579,arm3_eps,2022.2.5,Win32,120.1778632,60194185dc1e1f00083cb6c6,64c7fed44a04f777bb1e18ce,64c801684e7a4eb5256d5c93,right,-1,0.75,0.3071,54,0.020394162,0.8046,,,,,,252,0,252,0,1,,,,,
,,353270,001,2023-07-31_20h46.28.579,arm3_eps,2022.2.5,Win32,120.1778632,60194185dc1e1f00083cb6c6,64c7fed44a04f777bb1e18ce,64c801684e7a4eb5256d5c93,right,-1,0.75,0.3071,54,-0.001316003,0.432,,,,,,253,0,253,0,1,,,,,
,,353270,001,2023-07-31_20h46.28.579,arm3_eps,2022.2.5,Win32,120.1778632,60194185dc1e1f00083cb6c6,64c7fed44a04f777bb1e18ce,64c801684e7a4eb5256d5c93,down,-1,0.75,0.3071,55,0,0.3274,,,,,,254,0,254,0,1,,,,,
,,353270,001,2023-07-31_20h46.28.579,arm3_eps,2022.2.5,Win32,120.1778632,60194185dc1e1f00083cb6c6,64c7fed44a04f777bb1e18ce,64c801684e7a4eb5256d5c93,right,-1,0.75,0.3071,55,-0.024395954,0.9138,,,,,,255,0,255,0,1,,,,,
,,353270,001,2023-07-31_20h46.28.579,arm3_eps,2022.2.5,Win32,120.1778632,60194185dc1e1f00083cb6c6,64c7fed44a04f777bb1e18ce,64c801684e7a4eb5256d5c93,down,1,0.75,0.3071,56,0,0.5383,,,,,,256,0,256,0,1,,,,,
,,353270,001,2023-07-31_20h46.28.579,arm3_eps,2022.2.5,Win32,120.1778632,60194185dc1e1f00083cb6c6,64c7fed44a04f777bb1e18ce,64c801684e7a4eb5256d5c93,right,1,0.75,0.3071,56,0.037278934,0.6748,,,,,,257,0,257,0,1,,,,,
,,353270,001,2023-07-31_20h46.28.579,arm3_eps,2022.2.5,Win32,120.1778632,60194185dc1e1f00083cb6c6,64c7fed44a04f777bb1e18ce,64c801684e7a4eb5256d5c93,up,1,0.75,0.3071,57,0,0.5019,,,,,,258,0,258,0,1,,,,,
,,353270,001,2023-07-31_20h46.28.579,arm3_eps,2022.2.5,Win32,120.1778632,60194185dc1e1f00083cb6c6,64c7fed44a04f777bb1e18ce,64c801684e7a4eb5256d5c93,right,1,0.75,0.3071,57,-0.023278975,0.3976,,,,,,259,0,259,0,1,,,,,
,,353270,001,2023-07-31_20h46.28.579,arm3_eps,2022.2.5,Win32,120.1778632,60194185dc1e1f00083cb6c6,64c7fed44a04f777bb1e18ce,64c801684e7a4eb5256d5c93,right,1,0.75,0.3071,57,-0.001556206,0.6722,,,,,,260,0,260,0,1,,,,,
,,353270,001,2023-07-31_20h46.28.579,arm3_eps,2022.2.5,Win32,120.1778632,60194185dc1e1f00083cb6c6,64c7fed44a04f777bb1e18ce,64c801684e7a4eb5256d5c93,right,1,0.75,0.3071,57,0.000764456,0.7387,,,,,,261,0,261,0,1,,,,,
,,353270,001,2023-07-31_20h46.28.579,arm3_eps,2022.2.5,Win32,120.1778632,60194185dc1e1f00083cb6c6,64c7fed44a04f777bb1e18ce,64c801684e7a4eb5256d5c93,up,-1,0.75,0.3071,57,0,0.4318,,,,,,262,0,262,0,1,,,,,
