space_bar.keys,space_bar.rt,participant,session,date,expName,psychopyVersion,OS,frameRate,PROLIFIC_PID,STUDY_ID,SESSION_ID,resp.keys,state,q_prob,eps_prob,score,price,resp.rt,train.thisRepN,train.thisTrialN,train.thisN,train.thisIndex,train.ran,steps.thisRepN,steps.thisTrialN,steps.thisN,steps.thisIndex,steps.ran,blocks.thisRepN,blocks.thisTrialN,blocks.thisN,blocks.thisIndex,blocks.ran
space,11.5169,358388,001,2023-07-31_19h44.41.058,arm3_eps,2022.2.5,Win32,119.3887297,613615da1eacf6204ce33479,64c7fed44a04f777bb1e18ce,64c80104b18bac10c73ca05a,,,,,,,,,,,,,,,,,,,,,,
space,22.968,358388,001,2023-07-31_19h44.41.058,arm3_eps,2022.2.5,Win32,119.3887297,613615da1eacf6204ce33479,64c7fed44a04f777bb1e18ce,64c80104b18bac10c73ca05a,,,,,,,,,,,,,,,,,,,,,,
space,14.6016,358388,001,2023-07-31_19h44.41.058,arm3_eps,2022.2.5,Win32,119.3887297,613615da1eacf6204ce33479,64c7fed44a04f777bb1e18ce,64c80104b18bac10c73ca05a,,,,,,,,,,,,,,,,,,,,,,
space,17.8854,358388,001,2023-07-31_19h44.41.058,arm3_eps,2022.2.5,Win32,119.3887297,613615da1eacf6204ce33479,64c7fed44a04f777bb1e18ce,64c80104b18bac10c73ca05a,,,,,,,,,,,,,,,,,,,,,,
space,18.6088,358388,001,2023-07-31_19h44.41.058,arm3_eps,2022.2.5,Win32,119.3887297,613615da1eacf6204ce33479,64c7fed44a04f777bb1e18ce,64c80104b18bac10c73ca05a,,,,,,,,,,,,,,,,,,,,,,
space,9.4524,358388,001,2023-07-31_19h44.41.058,arm3_eps,2022.2.5,Win32,119.3887297,613615da1eacf6204ce33479,64c7fed44a04f777bb1e18ce,64c80104b18bac10c73ca05a,,,,,,,,,,,,,,,,,,,,,,
space,1.6085,358388,001,2023-07-31_19h44.41.058,arm3_eps,2022.2.5,Win32,119.3887297,613615da1eacf6204ce33479,64c7fed44a04f777bb1e18ce,64c80104b18bac10c73ca05a,,,,,,,,,,,,,,,,,,,,,,
,,358388,001,2023-07-31_19h44.41.058,arm3_eps,2022.2.5,Win32,119.3887297,613615da1eacf6204ce33479,64c7fed44a04f777bb1e18ce,64c80104b18bac10c73ca05a,right,1,1,0.2429,0,0.00265895,3.1431,0,0,0,0,1,,,,,,,,,,
,,358388,001,2023-07-31_19h44.41.058,arm3_eps,2022.2.5,Win32,119.3887297,613615da1eacf6204ce33479,64c7fed44a04f777bb1e18ce,64c80104b18bac10c73ca05a,right,1,1,0.2429,0,0.024524378,1.2099,1,0,1,0,1,,,,,,,,,,
,,358388,001,2023-07-31_19h44.41.058,arm3_eps,2022.2.5,Win32,119.3887297,613615da1eacf6204ce33479,64c7fed44a04f777bb1e18ce,64c80104b18bac10c73ca05a,right,1,1,0.2429,0,0.032820932,0.5003,2,0,2,0,1,,,,,,,,,,
,,358388,001,2023-07-31_19h44.41.058,arm3_eps,2022.2.5,Win32,119.3887297,613615da1eacf6204ce33479,64c7fed44a04f777bb1e18ce,64c80104b18bac10c73ca05a,right,1,1,0.2429,0,0.034370274,0.3652,3,0,3,0,1,,,,,,,,,,
,,358388,001,2023-07-31_19h44.41.058,arm3_eps,2022.2.5,Win32,119.3887297,613615da1eacf6204ce33479,64c7fed44a04f777bb1e18ce,64c80104b18bac10c73ca05a,right,1,1,0.2429,0,0.04677384,0.4096,4,0,4,0,1,,,,,,,,,,
,,358388,001,2023-07-31_19h44.41.058,arm3_eps,2022.2.5,Win32,119.3887297,613615da1eacf6204ce33479,64c7fed44a04f777bb1e18ce,64c80104b18bac10c73ca05a,right,1,1,0.2429,0,0.046628009,0.6593,5,0,5,0,1,,,,,,,,,,
,,358388,001,2023-07-31_19h44.41.058,arm3_eps,2022.2.5,Win32,119.3887297,613615da1eacf6204ce33479,64c7fed44a04f777bb1e18ce,64c80104b18bac10c73ca05a,right,1,1,0.2429,0,0.034863326,0.425,6,0,6,0,1,,,,,,,,,,
,,358388,001,2023-07-31_19h44.41.058,arm3_eps,2022.2.5,Win32,119.3887297,613615da1eacf6204ce33479,64c7fed44a04f777bb1e18ce,64c80104b18bac10c73ca05a,right,1,1,0.2429,0,0.027751636,0.493,7,0,7,0,1,,,,,,,,,,
,,358388,001,2023-07-31_19h44.41.058,arm3_eps,2022.2.5,Win32,119.3887297,613615da1eacf6204ce33479,64c7fed44a04f777bb1e18ce,64c80104b18bac10c73ca05a,right,1,1,0.2429,0,0.041811542,0.3603,8,0,8,0,1,,,,,,,,,,
,,358388,001,2023-07-31_19h44.41.058,arm3_eps,2022.2.5,Win32,119.3887297,613615da1eacf6204ce33479,64c7fed44a04f777bb1e18ce,64c80104b18bac10c73ca05a,right,1,1,0.2429,0,0.041950028,0.3582,9,0,9,0,1,,,,,,,,,,
,,358388,001,2023-07-31_19h44.41.058,arm3_eps,2022.2.5,Win32,119.3887297,613615da1eacf6204ce33479,64c7fed44a04f777bb1e18ce,64c80104b18bac10c73ca05a,right,1,1,0.2429,0,0.032999766,0.3922,10,0,10,0,1,,,,,,,,,,
,,358388,001,2023-07-31_19h44.41.058,arm3_eps,2022.2.5,Win32,119.3887297,613615da1eacf6204ce33479,64c7fed44a04f777bb1e18ce,64c80104b18bac10c73ca05a,right,1,1,0.2429,0,0.01097557,1.3986,11,0,11,0,1,,,,,,,,,,
,,358388,001,2023-07-31_19h44.41.058,arm3_eps,2022.2.5,Win32,119.3887297,613615da1eacf6204ce33479,64c7fed44a04f777bb1e18ce,64c80104b18bac10c73ca05a,down,1,1,0.2429,-1,0,1.8265,12,0,12,0,1,,,,,,,,,,
,,358388,001,2023-07-31_19h44.41.058,arm3_eps,2022.2.5,Win32,119.3887297,613615da1eacf6204ce33479,64c7fed44a04f777bb1e18ce,64c80104b18bac10c73ca05a,right,1,1,0.2429,-1,0.02327188,2.7572,13,0,13,0,1,,,,,,,,,,
,,358388,001,2023-07-31_19h44.41.058,arm3_eps,2022.2.5,Win32,119.3887297,613615da1eacf6204ce33479,64c7fed44a04f777bb1e18ce,64c80104b18bac10c73ca05a,right,1,1,0.2429,-1,0.030798886,0.2039,14,0,14,0,1,,,,,,,,,,
,,358388,001,2023-07-31_19h44.41.058,arm3_eps,2022.2.5,Win32,119.3887297,613615da1eacf6204ce33479,64c7fed44a04f777bb1e18ce,64c80104b18bac10c73ca05a,right,1,1,0.2429,-1,0.031839699,0.2126,15,0,15,0,1,,,,,,,,,,
,,358388,001,2023-07-31_19h44.41.058,arm3_eps,2022.2.5,Win32,119.3887297,613615da1eacf6204ce33479,64c7fed44a04f777bb1e18ce,64c80104b18bac10c73ca05a,right,1,1,0.2429,-1,0.073304489,0.216,16,0,16,0,1,,,,,,,,,,
,,358388,001,2023-07-31_19h44.41.058,arm3_eps,2022.2.5,Win32,119.3887297,613615da1eacf6204ce33479,64c7fed44a04f777bb1e18ce,64c80104b18bac10c73ca05a,right,1,1,0.2429,-1,0.085575722,0.1993,17,0,17,0,1,,,,,,,,,,
,,358388,001,2023-07-31_19h44.41.058,arm3_eps,2022.2.5,Win32,119.3887297,613615da1eacf6204ce33479,64c7fed44a04f777bb1e18ce,64c80104b18bac10c73ca05a,right,1,1,0.2429,-1,0.088733323,0.1955,18,0,18,0,1,,,,,,,,,,
,,358388,001,2023-07-31_19h44.41.058,arm3_eps,2022.2.5,Win32,119.3887297,613615da1eacf6204ce33479,64c7fed44a04f777bb1e18ce,64c80104b18bac10c73ca05a,right,1,1,0.2429,-1,0.099376342,0.2077,19,0,19,0,1,,,,,,,,,,
,,358388,001,2023-07-31_19h44.41.058,arm3_eps,2022.2.5,Win32,119.3887297,613615da1eacf6204ce33479,64c7fed44a04f777bb1e18ce,64c80104b18bac10c73ca05a,right,1,1,0.2429,-1,0.114114076,0.196,20,0,20,0,1,,,,,,,,,,
,,358388,001,2023-07-31_19h44.41.058,arm3_eps,2022.2.5,Win32,119.3887297,613615da1eacf6204ce33479,64c7fed44a04f777bb1e18ce,64c80104b18bac10c73ca05a,right,1,1,0.2429,-1,0.122454485,0.211,21,0,21,0,1,,,,,,,,,,
,,358388,001,2023-07-31_19h44.41.058,arm3_eps,2022.2.5,Win32,119.3887297,613615da1eacf6204ce33479,64c7fed44a04f777bb1e18ce,64c80104b18bac10c73ca05a,right,1,1,0.2429,-1,0.128789734,0.2078,22,0,22,0,1,,,,,,,,,,
,,358388,001,2023-07-31_19h44.41.058,arm3_eps,2022.2.5,Win32,119.3887297,613615da1eacf6204ce33479,64c7fed44a04f777bb1e18ce,64c80104b18bac10c73ca05a,right,1,1,0.2429,-1,0.107776063,0.2088,23,0,23,0,1,,,,,,,,,,
,,358388,001,2023-07-31_19h44.41.058,arm3_eps,2022.2.5,Win32,119.3887297,613615da1eacf6204ce33479,64c7fed44a04f777bb1e18ce,64c80104b18bac10c73ca05a,right,1,1,0.2429,-1,0.13875654,0.2252,24,0,24,0,1,,,,,,,,,,
,,358388,001,2023-07-31_19h44.41.058,arm3_eps,2022.2.5,Win32,119.3887297,613615da1eacf6204ce33479,64c7fed44a04f777bb1e18ce,64c80104b18bac10c73ca05a,down,1,1,0.2429,-2,0,2.1841,25,0,25,0,1,,,,,,,,,,
,,358388,001,2023-07-31_19h44.41.058,arm3_eps,2022.2.5,Win32,119.3887297,613615da1eacf6204ce33479,64c7fed44a04f777bb1e18ce,64c80104b18bac10c73ca05a,right,1,1,0.2429,-2,0.045233336,0.5934,26,0,26,0,1,,,,,,,,,,
,,358388,001,2023-07-31_19h44.41.058,arm3_eps,2022.2.5,Win32,119.3887297,613615da1eacf6204ce33479,64c7fed44a04f777bb1e18ce,64c80104b18bac10c73ca05a,right,1,1,0.2429,-2,0.072186827,1.0372,27,0,27,0,1,,,,,,,,,,
,,358388,001,2023-07-31_19h44.41.058,arm3_eps,2022.2.5,Win32,119.3887297,613615da1eacf6204ce33479,64c7fed44a04f777bb1e18ce,64c80104b18bac10c73ca05a,right,1,1,0.2429,-2,0.072266204,4.1383,28,0,28,0,1,,,,,,,,,,
,,358388,001,2023-07-31_19h44.41.058,arm3_eps,2022.2.5,Win32,119.3887297,613615da1eacf6204ce33479,64c7fed44a04f777bb1e18ce,64c80104b18bac10c73ca05a,right,1,1,0.2429,-2,0.085810346,0.2419,29,0,29,0,1,,,,,,,,,,
,,358388,001,2023-07-31_19h44.41.058,arm3_eps,2022.2.5,Win32,119.3887297,613615da1eacf6204ce33479,64c7fed44a04f777bb1e18ce,64c80104b18bac10c73ca05a,right,1,1,0.2429,-2,0.080919968,0.1671,30,0,30,0,1,,,,,,,,,,
,,358388,001,2023-07-31_19h44.41.058,arm3_eps,2022.2.5,Win32,119.3887297,613615da1eacf6204ce33479,64c7fed44a04f777bb1e18ce,64c80104b18bac10c73ca05a,right,1,1,0.2429,-2,0.074379137,0.1838,31,0,31,0,1,,,,,,,,,,
,,358388,001,2023-07-31_19h44.41.058,arm3_eps,2022.2.5,Win32,119.3887297,613615da1eacf6204ce33479,64c7fed44a04f777bb1e18ce,64c80104b18bac10c73ca05a,right,1,1,0.2429,-2,0.085510369,0.1704,32,0,32,0,1,,,,,,,,,,
,,358388,001,2023-07-31_19h44.41.058,arm3_eps,2022.2.5,Win32,119.3887297,613615da1eacf6204ce33479,64c7fed44a04f777bb1e18ce,64c80104b18bac10c73ca05a,right,1,1,0.2429,-2,0.090112699,0.1819,33,0,33,0,1,,,,,,,,,,
,,358388,001,2023-07-31_19h44.41.058,arm3_eps,2022.2.5,Win32,119.3887297,613615da1eacf6204ce33479,64c7fed44a04f777bb1e18ce,64c80104b18bac10c73ca05a,right,1,1,0.2429,-2,0.088101839,0.1835,34,0,34,0,1,,,,,,,,,,
,,358388,001,2023-07-31_19h44.41.058,arm3_eps,2022.2.5,Win32,119.3887297,613615da1eacf6204ce33479,64c7fed44a04f777bb1e18ce,64c80104b18bac10c73ca05a,right,1,1,0.2429,-2,0.074682698,0.1952,35,0,35,0,1,,,,,,,,,,
,,358388,001,2023-07-31_19h44.41.058,arm3_eps,2022.2.5,Win32,119.3887297,613615da1eacf6204ce33479,64c7fed44a04f777bb1e18ce,64c80104b18bac10c73ca05a,right,1,1,0.2429,-2,0.105263221,0.2366,36,0,36,0,1,,,,,,,,,,
,,358388,001,2023-07-31_19h44.41.058,arm3_eps,2022.2.5,Win32,119.3887297,613615da1eacf6204ce33479,64c7fed44a04f777bb1e18ce,64c80104b18bac10c73ca05a,right,1,1,0.2429,-2,0.098498186,1.0255,37,0,37,0,1,,,,,,,,,,
,,358388,001,2023-07-31_19h44.41.058,arm3_eps,2022.2.5,Win32,119.3887297,613615da1eacf6204ce33479,64c7fed44a04f777bb1e18ce,64c80104b18bac10c73ca05a,up,1,1,0.2429,-1,0,1.0025,38,0,38,0,1,,,,,,,,,,
,,358388,001,2023-07-31_19h44.41.058,arm3_eps,2022.2.5,Win32,119.3887297,613615da1eacf6204ce33479,64c7fed44a04f777bb1e18ce,64c80104b18bac10c73ca05a,right,1,1,0.2429,-1,0.001212089,1.3493,39,0,39,0,1,,,,,,,,,,
,,358388,001,2023-07-31_19h44.41.058,arm3_eps,2022.2.5,Win32,119.3887297,613615da1eacf6204ce33479,64c7fed44a04f777bb1e18ce,64c80104b18bac10c73ca05a,right,1,1,0.2429,-1,0.009682675,0.1753,40,0,40,0,1,,,,,,,,,,
,,358388,001,2023-07-31_19h44.41.058,arm3_eps,2022.2.5,Win32,119.3887297,613615da1eacf6204ce33479,64c7fed44a04f777bb1e18ce,64c80104b18bac10c73ca05a,right,1,1,0.2429,-1,0.023934106,0.1654,41,0,41,0,1,,,,,,,,,,
,,358388,001,2023-07-31_19h44.41.058,arm3_eps,2022.2.5,Win32,119.3887297,613615da1eacf6204ce33479,64c7fed44a04f777bb1e18ce,64c80104b18bac10c73ca05a,right,1,1,0.2429,-1,-0.000285035,0.1748,42,0,42,0,1,,,,,,,,,,
,,358388,001,2023-07-31_19h44.41.058,arm3_eps,2022.2.5,Win32,119.3887297,613615da1eacf6204ce33479,64c7fed44a04f777bb1e18ce,64c80104b18bac10c73ca05a,right,1,1,0.2429,-1,0.025338243,0.1753,43,0,43,0,1,,,,,,,,,,
,,358388,001,2023-07-31_19h44.41.058,arm3_eps,2022.2.5,Win32,119.3887297,613615da1eacf6204ce33479,64c7fed44a04f777bb1e18ce,64c80104b18bac10c73ca05a,right,1,1,0.2429,-1,0.038798772,0.1669,44,0,44,0,1,,,,,,,,,,
,,358388,001,2023-07-31_19h44.41.058,arm3_eps,2022.2.5,Win32,119.3887297,613615da1eacf6204ce33479,64c7fed44a04f777bb1e18ce,64c80104b18bac10c73ca05a,right,1,1,0.2429,-1,0.039912005,0.1614,45,0,45,0,1,,,,,,,,,,
,,358388,001,2023-07-31_19h44.41.058,arm3_eps,2022.2.5,Win32,119.3887297,613615da1eacf6204ce33479,64c7fed44a04f777bb1e18ce,64c80104b18bac10c73ca05a,right,1,1,0.2429,-1,0.031066712,0.1858,46,0,46,0,1,,,,,,,,,,
,,358388,001,2023-07-31_19h44.41.058,arm3_eps,2022.2.5,Win32,119.3887297,613615da1eacf6204ce33479,64c7fed44a04f777bb1e18ce,64c80104b18bac10c73ca05a,right,1,1,0.2429,-1,0.017376814,0.1673,47,0,47,0,1,,,,,,,,,,
,,358388,001,2023-07-31_19h44.41.058,arm3_eps,2022.2.5,Win32,119.3887297,613615da1eacf6204ce33479,64c7fed44a04f777bb1e18ce,64c80104b18bac10c73ca05a,right,1,1,0.2429,-1,-0.000761938,0.1919,48,0,48,0,1,,,,,,,,,,
,,358388,001,2023-07-31_19h44.41.058,arm3_eps,2022.2.5,Win32,119.3887297,613615da1eacf6204ce33479,64c7fed44a04f777bb1e18ce,64c80104b18bac10c73ca05a,right,1,1,0.2429,-1,0.012371733,0.1921,49,0,49,0,1,,,,,,,,,,
space,2.7068,358388,001,2023-07-31_19h44.41.058,arm3_eps,2022.2.5,Win32,119.3887297,613615da1eacf6204ce33479,64c7fed44a04f777bb1e18ce,64c80104b18bac10c73ca05a,,,,,,,,,,,,,,,,,,,,,,
space,2.5911,358388,001,2023-07-31_19h44.41.058,arm3_eps,2022.2.5,Win32,119.3887297,613615da1eacf6204ce33479,64c7fed44a04f777bb1e18ce,64c80104b18bac10c73ca05a,,,,,,,,,,,,,,,,,,,,,,
space,1.1571,358388,001,2023-07-31_19h44.41.058,arm3_eps,2022.2.5,Win32,119.3887297,613615da1eacf6204ce33479,64c7fed44a04f777bb1e18ce,64c80104b18bac10c73ca05a,,,,,,,,,,,,,,,,,,,,,,
space,2.0235,358388,001,2023-07-31_19h44.41.058,arm3_eps,2022.2.5,Win32,119.3887297,613615da1eacf6204ce33479,64c7fed44a04f777bb1e18ce,64c80104b18bac10c73ca05a,,,,,,,,,,,,,,,,,,,,,,
space,1.0738,358388,001,2023-07-31_19h44.41.058,arm3_eps,2022.2.5,Win32,119.3887297,613615da1eacf6204ce33479,64c7fed44a04f777bb1e18ce,64c80104b18bac10c73ca05a,,,,,,,,,,,,,,,,,,,,,,
space,0.7505,358388,001,2023-07-31_19h44.41.058,arm3_eps,2022.2.5,Win32,119.3887297,613615da1eacf6204ce33479,64c7fed44a04f777bb1e18ce,64c80104b18bac10c73ca05a,,,,,,,,,,,,,,,,,,,,,,
,,358388,001,2023-07-31_19h44.41.058,arm3_eps,2022.2.5,Win32,119.3887297,613615da1eacf6204ce33479,64c7fed44a04f777bb1e18ce,64c80104b18bac10c73ca05a,right,1,0.75,0.2429,0,0.000906395,0.7577,0,0,0,0,1,,,,,,,,,,
,,358388,001,2023-07-31_19h44.41.058,arm3_eps,2022.2.5,Win32,119.3887297,613615da1eacf6204ce33479,64c7fed44a04f777bb1e18ce,64c80104b18bac10c73ca05a,right,1,0.75,0.2429,0,0.015642282,0.2836,1,0,1,0,1,,,,,,,,,,
,,358388,001,2023-07-31_19h44.41.058,arm3_eps,2022.2.5,Win32,119.3887297,613615da1eacf6204ce33479,64c7fed44a04f777bb1e18ce,64c80104b18bac10c73ca05a,right,1,0.75,0.2429,0,0.038703365,0.2919,2,0,2,0,1,,,,,,,,,,
,,358388,001,2023-07-31_19h44.41.058,arm3_eps,2022.2.5,Win32,119.3887297,613615da1eacf6204ce33479,64c7fed44a04f777bb1e18ce,64c80104b18bac10c73ca05a,right,1,0.75,0.2429,0,0.036468901,0.2762,3,0,3,0,1,,,,,,,,,,
,,358388,001,2023-07-31_19h44.41.058,arm3_eps,2022.2.5,Win32,119.3887297,613615da1eacf6204ce33479,64c7fed44a04f777bb1e18ce,64c80104b18bac10c73ca05a,right,1,0.75,0.2429,0,0.03472731,0.4003,4,0,4,0,1,,,,,,,,,,
,,358388,001,2023-07-31_19h44.41.058,arm3_eps,2022.2.5,Win32,119.3887297,613615da1eacf6204ce33479,64c7fed44a04f777bb1e18ce,64c80104b18bac10c73ca05a,up,1,0.75,0.2429,1,0,3.2406,5,0,5,0,1,,,,,,,,,,
,,358388,001,2023-07-31_19h44.41.058,arm3_eps,2022.2.5,Win32,119.3887297,613615da1eacf6204ce33479,64c7fed44a04f777bb1e18ce,64c80104b18bac10c73ca05a,right,1,0.75,0.2429,1,-0.005913692,0.9565,6,0,6,0,1,,,,,,,,,,
,,358388,001,2023-07-31_19h44.41.058,arm3_eps,2022.2.5,Win32,119.3887297,613615da1eacf6204ce33479,64c7fed44a04f777bb1e18ce,64c80104b18bac10c73ca05a,right,1,0.75,0.2429,1,-0.013385683,0.2429,7,0,7,0,1,,,,,,,,,,
,,358388,001,2023-07-31_19h44.41.058,arm3_eps,2022.2.5,Win32,119.3887297,613615da1eacf6204ce33479,64c7fed44a04f777bb1e18ce,64c80104b18bac10c73ca05a,right,1,0.75,0.2429,1,0.003828659,0.4406,8,0,8,0,1,,,,,,,,,,
,,358388,001,2023-07-31_19h44.41.058,arm3_eps,2022.2.5,Win32,119.3887297,613615da1eacf6204ce33479,64c7fed44a04f777bb1e18ce,64c80104b18bac10c73ca05a,down,1,0.75,0.2429,1,0,0.5077,9,0,9,0,1,,,,,,,,,,
,,358388,001,2023-07-31_19h44.41.058,arm3_eps,2022.2.5,Win32,119.3887297,613615da1eacf6204ce33479,64c7fed44a04f777bb1e18ce,64c80104b18bac10c73ca05a,right,1,0.75,0.2429,1,-0.017709966,1.1086,10,0,10,0,1,,,,,,,,,,
,,358388,001,2023-07-31_19h44.41.058,arm3_eps,2022.2.5,Win32,119.3887297,613615da1eacf6204ce33479,64c7fed44a04f777bb1e18ce,64c80104b18bac10c73ca05a,right,1,0.75,0.2429,1,0.034257978,0.3413,11,0,11,0,1,,,,,,,,,,
,,358388,001,2023-07-31_19h44.41.058,arm3_eps,2022.2.5,Win32,119.3887297,613615da1eacf6204ce33479,64c7fed44a04f777bb1e18ce,64c80104b18bac10c73ca05a,up,1,0.75,0.2429,1,0,4.1252,12,0,12,0,1,,,,,,,,,,
,,358388,001,2023-07-31_19h44.41.058,arm3_eps,2022.2.5,Win32,119.3887297,613615da1eacf6204ce33479,64c7fed44a04f777bb1e18ce,64c80104b18bac10c73ca05a,right,1,0.75,0.2429,1,0.007214824,1.5302,13,0,13,0,1,,,,,,,,,,
,,358388,001,2023-07-31_19h44.41.058,arm3_eps,2022.2.5,Win32,119.3887297,613615da1eacf6204ce33479,64c7fed44a04f777bb1e18ce,64c80104b18bac10c73ca05a,right,1,0.75,0.2429,1,0.018725543,0.2786,14,0,14,0,1,,,,,,,,,,
,,358388,001,2023-07-31_19h44.41.058,arm3_eps,2022.2.5,Win32,119.3887297,613615da1eacf6204ce33479,64c7fed44a04f777bb1e18ce,64c80104b18bac10c73ca05a,right,1,0.75,0.2429,1,0.009857848,0.2852,15,0,15,0,1,,,,,,,,,,
,,358388,001,2023-07-31_19h44.41.058,arm3_eps,2022.2.5,Win32,119.3887297,613615da1eacf6204ce33479,64c7fed44a04f777bb1e18ce,64c80104b18bac10c73ca05a,right,1,0.75,0.2429,1,0.009492231,0.2666,16,0,16,0,1,,,,,,,,,,
,,358388,001,2023-07-31_19h44.41.058,arm3_eps,2022.2.5,Win32,119.3887297,613615da1eacf6204ce33479,64c7fed44a04f777bb1e18ce,64c80104b18bac10c73ca05a,right,1,0.75,0.2429,1,0.033535627,0.5047,17,0,17,0,1,,,,,,,,,,
,,358388,001,2023-07-31_19h44.41.058,arm3_eps,2022.2.5,Win32,119.3887297,613615da1eacf6204ce33479,64c7fed44a04f777bb1e18ce,64c80104b18bac10c73ca05a,up,1,0.75,0.2429,2,0,0.6705,18,0,18,0,1,,,,,,,,,,
,,358388,001,2023-07-31_19h44.41.058,arm3_eps,2022.2.5,Win32,119.3887297,613615da1eacf6204ce33479,64c7fed44a04f777bb1e18ce,64c80104b18bac10c73ca05a,right,1,0.75,0.2429,2,0.008744555,0.9184,19,0,19,0,1,,,,,,,,,,
,,358388,001,2023-07-31_19h44.41.058,arm3_eps,2022.2.5,Win32,119.3887297,613615da1eacf6204ce33479,64c7fed44a04f777bb1e18ce,64c80104b18bac10c73ca05a,right,1,0.75,0.2429,2,0.026131308,0.1959,20,0,20,0,1,,,,,,,,,,
,,358388,001,2023-07-31_19h44.41.058,arm3_eps,2022.2.5,Win32,119.3887297,613615da1eacf6204ce33479,64c7fed44a04f777bb1e18ce,64c80104b18bac10c73ca05a,right,1,0.75,0.2429,2,0.041899906,0.209,21,0,21,0,1,,,,,,,,,,
,,358388,001,2023-07-31_19h44.41.058,arm3_eps,2022.2.5,Win32,119.3887297,613615da1eacf6204ce33479,64c7fed44a04f777bb1e18ce,64c80104b18bac10c73ca05a,right,1,0.75,0.2429,2,0.067731628,0.2068,22,0,22,0,1,,,,,,,,,,
,,358388,001,2023-07-31_19h44.41.058,arm3_eps,2022.2.5,Win32,119.3887297,613615da1eacf6204ce33479,64c7fed44a04f777bb1e18ce,64c80104b18bac10c73ca05a,up,1,0.75,0.2429,2,0,0.8126,23,0,23,0,1,,,,,,,,,,
,,358388,001,2023-07-31_19h44.41.058,arm3_eps,2022.2.5,Win32,119.3887297,613615da1eacf6204ce33479,64c7fed44a04f777bb1e18ce,64c80104b18bac10c73ca05a,right,1,0.75,0.2429,2,0.022408441,0.8171,24,0,24,0,1,,,,,,,,,,
,,358388,001,2023-07-31_19h44.41.058,arm3_eps,2022.2.5,Win32,119.3887297,613615da1eacf6204ce33479,64c7fed44a04f777bb1e18ce,64c80104b18bac10c73ca05a,right,1,0.75,0.2429,2,0.010223633,0.1938,25,0,25,0,1,,,,,,,,,,
,,358388,001,2023-07-31_19h44.41.058,arm3_eps,2022.2.5,Win32,119.3887297,613615da1eacf6204ce33479,64c7fed44a04f777bb1e18ce,64c80104b18bac10c73ca05a,right,1,0.75,0.2429,2,0.01071802,0.2078,26,0,26,0,1,,,,,,,,,,
,,358388,001,2023-07-31_19h44.41.058,arm3_eps,2022.2.5,Win32,119.3887297,613615da1eacf6204ce33479,64c7fed44a04f777bb1e18ce,64c80104b18bac10c73ca05a,right,1,0.75,0.2429,2,0.044698548,0.229,27,0,27,0,1,,,,,,,,,,
,,358388,001,2023-07-31_19h44.41.058,arm3_eps,2022.2.5,Win32,119.3887297,613615da1eacf6204ce33479,64c7fed44a04f777bb1e18ce,64c80104b18bac10c73ca05a,right,1,0.75,0.2429,2,0.069247143,0.2839,28,0,28,0,1,,,,,,,,,,
,,358388,001,2023-07-31_19h44.41.058,arm3_eps,2022.2.5,Win32,119.3887297,613615da1eacf6204ce33479,64c7fed44a04f777bb1e18ce,64c80104b18bac10c73ca05a,up,1,0.75,0.2429,3,0,0.7165,29,0,29,0,1,,,,,,,,,,
,,358388,001,2023-07-31_19h44.41.058,arm3_eps,2022.2.5,Win32,119.3887297,613615da1eacf6204ce33479,64c7fed44a04f777bb1e18ce,64c80104b18bac10c73ca05a,right,1,0.75,0.2429,3,0.001486123,0.7498,30,0,30,0,1,,,,,,,,,,
,,358388,001,2023-07-31_19h44.41.058,arm3_eps,2022.2.5,Win32,119.3887297,613615da1eacf6204ce33479,64c7fed44a04f777bb1e18ce,64c80104b18bac10c73ca05a,right,1,0.75,0.2429,3,0.00357809,0.158,31,0,31,0,1,,,,,,,,,,
,,358388,001,2023-07-31_19h44.41.058,arm3_eps,2022.2.5,Win32,119.3887297,613615da1eacf6204ce33479,64c7fed44a04f777bb1e18ce,64c80104b18bac10c73ca05a,right,1,0.75,0.2429,3,0.028846645,0.2039,32,0,32,0,1,,,,,,,,,,
,,358388,001,2023-07-31_19h44.41.058,arm3_eps,2022.2.5,Win32,119.3887297,613615da1eacf6204ce33479,64c7fed44a04f777bb1e18ce,64c80104b18bac10c73ca05a,right,1,0.75,0.2429,3,0.038247711,0.1952,33,0,33,0,1,,,,,,,,,,
,,358388,001,2023-07-31_19h44.41.058,arm3_eps,2022.2.5,Win32,119.3887297,613615da1eacf6204ce33479,64c7fed44a04f777bb1e18ce,64c80104b18bac10c73ca05a,right,1,0.75,0.2429,3,0.048237561,0.1818,34,0,34,0,1,,,,,,,,,,
,,358388,001,2023-07-31_19h44.41.058,arm3_eps,2022.2.5,Win32,119.3887297,613615da1eacf6204ce33479,64c7fed44a04f777bb1e18ce,64c80104b18bac10c73ca05a,up,1,0.75,0.2429,4,0,0.4531,35,0,35,0,1,,,,,,,,,,
,,358388,001,2023-07-31_19h44.41.058,arm3_eps,2022.2.5,Win32,119.3887297,613615da1eacf6204ce33479,64c7fed44a04f777bb1e18ce,64c80104b18bac10c73ca05a,right,1,0.75,0.2429,4,-0.01748602,0.6051,36,0,36,0,1,,,,,,,,,,
,,358388,001,2023-07-31_19h44.41.058,arm3_eps,2022.2.5,Win32,119.3887297,613615da1eacf6204ce33479,64c7fed44a04f777bb1e18ce,64c80104b18bac10c73ca05a,right,1,0.75,0.2429,4,0.016436295,0.1907,37,0,37,0,1,,,,,,,,,,
,,358388,001,2023-07-31_19h44.41.058,arm3_eps,2022.2.5,Win32,119.3887297,613615da1eacf6204ce33479,64c7fed44a04f777bb1e18ce,64c80104b18bac10c73ca05a,right,1,0.75,0.2429,4,0.056858084,0.1908,38,0,38,0,1,,,,,,,,,,
,,358388,001,2023-07-31_19h44.41.058,arm3_eps,2022.2.5,Win32,119.3887297,613615da1eacf6204ce33479,64c7fed44a04f777bb1e18ce,64c80104b18bac10c73ca05a,right,1,0.75,0.2429,4,0.068207333,0.2033,39,0,39,0,1,,,,,,,,,,
,,358388,001,2023-07-31_19h44.41.058,arm3_eps,2022.2.5,Win32,119.3887297,613615da1eacf6204ce33479,64c7fed44a04f777bb1e18ce,64c80104b18bac10c73ca05a,right,1,0.75,0.2429,4,0.086651149,0.2082,40,0,40,0,1,,,,,,,,,,
,,358388,001,2023-07-31_19h44.41.058,arm3_eps,2022.2.5,Win32,119.3887297,613615da1eacf6204ce33479,64c7fed44a04f777bb1e18ce,64c80104b18bac10c73ca05a,up,1,0.75,0.2429,5,0,0.341,41,0,41,0,1,,,,,,,,,,
,,358388,001,2023-07-31_19h44.41.058,arm3_eps,2022.2.5,Win32,119.3887297,613615da1eacf6204ce33479,64c7fed44a04f777bb1e18ce,64c80104b18bac10c73ca05a,right,1,0.75,0.2429,5,-0.008110592,0.676,42,0,42,0,1,,,,,,,,,,
,,358388,001,2023-07-31_19h44.41.058,arm3_eps,2022.2.5,Win32,119.3887297,613615da1eacf6204ce33479,64c7fed44a04f777bb1e18ce,64c80104b18bac10c73ca05a,right,1,0.75,0.2429,5,-0.013536799,0.2076,43,0,43,0,1,,,,,,,,,,
,,358388,001,2023-07-31_19h44.41.058,arm3_eps,2022.2.5,Win32,119.3887297,613615da1eacf6204ce33479,64c7fed44a04f777bb1e18ce,64c80104b18bac10c73ca05a,right,1,0.75,0.2429,5,-0.018887056,0.2037,44,0,44,0,1,,,,,,,,,,
,,358388,001,2023-07-31_19h44.41.058,arm3_eps,2022.2.5,Win32,119.3887297,613615da1eacf6204ce33479,64c7fed44a04f777bb1e18ce,64c80104b18bac10c73ca05a,right,1,0.75,0.2429,5,-0.031084077,0.2093,45,0,45,0,1,,,,,,,,,,
,,358388,001,2023-07-31_19h44.41.058,arm3_eps,2022.2.5,Win32,119.3887297,613615da1eacf6204ce33479,64c7fed44a04f777bb1e18ce,64c80104b18bac10c73ca05a,right,1,0.75,0.2429,5,-0.035736698,0.2167,46,0,46,0,1,,,,,,,,,,
,,358388,001,2023-07-31_19h44.41.058,arm3_eps,2022.2.5,Win32,119.3887297,613615da1eacf6204ce33479,64c7fed44a04f777bb1e18ce,64c80104b18bac10c73ca05a,down,-1,0.75,0.2429,4,0,0.3293,47,0,47,0,1,,,,,,,,,,
,,358388,001,2023-07-31_19h44.41.058,arm3_eps,2022.2.5,Win32,119.3887297,613615da1eacf6204ce33479,64c7fed44a04f777bb1e18ce,64c80104b18bac10c73ca05a,right,-1,0.75,0.2429,4,0.009830423,0.7545,48,0,48,0,1,,,,,,,,,,
,,358388,001,2023-07-31_19h44.41.058,arm3_eps,2022.2.5,Win32,119.3887297,613615da1eacf6204ce33479,64c7fed44a04f777bb1e18ce,64c80104b18bac10c73ca05a,right,-1,0.75,0.2429,4,-0.013147638,0.179,49,0,49,0,1,,,,,,,,,,
space,10.4948,358388,001,2023-07-31_19h44.41.058,arm3_eps,2022.2.5,Win32,119.3887297,613615da1eacf6204ce33479,64c7fed44a04f777bb1e18ce,64c80104b18bac10c73ca05a,,,,,,,,,,,,,,,,,,,,,,
space,24.3137,358388,001,2023-07-31_19h44.41.058,arm3_eps,2022.2.5,Win32,119.3887297,613615da1eacf6204ce33479,64c7fed44a04f777bb1e18ce,64c80104b18bac10c73ca05a,,,,,,,,,,,,,,,,,,,,,,
space,0.6174,358388,001,2023-07-31_19h44.41.058,arm3_eps,2022.2.5,Win32,119.3887297,613615da1eacf6204ce33479,64c7fed44a04f777bb1e18ce,64c80104b18bac10c73ca05a,,,,,,,,,,,,,,,,,,,,,,
,,358388,001,2023-07-31_19h44.41.058,arm3_eps,2022.2.5,Win32,119.3887297,613615da1eacf6204ce33479,64c7fed44a04f777bb1e18ce,64c80104b18bac10c73ca05a,right,-1,0.75,0.05,0,-0.021593645,2.0237,0,0,0,0,1,,,,,,,,,,
,,358388,001,2023-07-31_19h44.41.058,arm3_eps,2022.2.5,Win32,119.3887297,613615da1eacf6204ce33479,64c7fed44a04f777bb1e18ce,64c80104b18bac10c73ca05a,right,-1,0.75,0.05,0,-0.030038239,0.3784,1,0,1,0,1,,,,,,,,,,
,,358388,001,2023-07-31_19h44.41.058,arm3_eps,2022.2.5,Win32,119.3887297,613615da1eacf6204ce33479,64c7fed44a04f777bb1e18ce,64c80104b18bac10c73ca05a,right,-1,0.75,0.05,0,-0.061447535,0.3292,2,0,2,0,1,,,,,,,,,,
,,358388,001,2023-07-31_19h44.41.058,arm3_eps,2022.2.5,Win32,119.3887297,613615da1eacf6204ce33479,64c7fed44a04f777bb1e18ce,64c80104b18bac10c73ca05a,right,-1,0.75,0.05,0,-0.068286649,0.2926,3,0,3,0,1,,,,,,,,,,
,,358388,001,2023-07-31_19h44.41.058,arm3_eps,2022.2.5,Win32,119.3887297,613615da1eacf6204ce33479,64c7fed44a04f777bb1e18ce,64c80104b18bac10c73ca05a,right,-1,0.75,0.05,0,-0.073203057,0.3283,4,0,4,0,1,,,,,,,,,,
,,358388,001,2023-07-31_19h44.41.058,arm3_eps,2022.2.5,Win32,119.3887297,613615da1eacf6204ce33479,64c7fed44a04f777bb1e18ce,64c80104b18bac10c73ca05a,down,-1,0.75,0.05,1,0,1.3833,5,0,5,0,1,,,,,,,,,,
,,358388,001,2023-07-31_19h44.41.058,arm3_eps,2022.2.5,Win32,119.3887297,613615da1eacf6204ce33479,64c7fed44a04f777bb1e18ce,64c80104b18bac10c73ca05a,right,-1,0.75,0.05,1,-0.011306389,0.8625,6,0,6,0,1,,,,,,,,,,
,,358388,001,2023-07-31_19h44.41.058,arm3_eps,2022.2.5,Win32,119.3887297,613615da1eacf6204ce33479,64c7fed44a04f777bb1e18ce,64c80104b18bac10c73ca05a,right,-1,0.75,0.05,1,-0.022053027,0.2147,7,0,7,0,1,,,,,,,,,,
,,358388,001,2023-07-31_19h44.41.058,arm3_eps,2022.2.5,Win32,119.3887297,613615da1eacf6204ce33479,64c7fed44a04f777bb1e18ce,64c80104b18bac10c73ca05a,right,-1,0.75,0.05,1,-0.030248678,0.216,8,0,8,0,1,,,,,,,,,,
,,358388,001,2023-07-31_19h44.41.058,arm3_eps,2022.2.5,Win32,119.3887297,613615da1eacf6204ce33479,64c7fed44a04f777bb1e18ce,64c80104b18bac10c73ca05a,right,-1,0.75,0.05,1,-0.015017987,0.2172,9,0,9,0,1,,,,,,,,,,
,,358388,001,2023-07-31_19h44.41.058,arm3_eps,2022.2.5,Win32,119.3887297,613615da1eacf6204ce33479,64c7fed44a04f777bb1e18ce,64c80104b18bac10c73ca05a,right,-1,0.75,0.05,1,-0.003816772,0.2276,10,0,10,0,1,,,,,,,,,,
,,358388,001,2023-07-31_19h44.41.058,arm3_eps,2022.2.5,Win32,119.3887297,613615da1eacf6204ce33479,64c7fed44a04f777bb1e18ce,64c80104b18bac10c73ca05a,down,1,0.75,0.05,2,0,1.2187,11,0,11,0,1,,,,,,,,,,
,,358388,001,2023-07-31_19h44.41.058,arm3_eps,2022.2.5,Win32,119.3887297,613615da1eacf6204ce33479,64c7fed44a04f777bb1e18ce,64c80104b18bac10c73ca05a,right,1,0.75,0.05,2,-0.01967275,0.7427,12,0,12,0,1,,,,,,,,,,
,,358388,001,2023-07-31_19h44.41.058,arm3_eps,2022.2.5,Win32,119.3887297,613615da1eacf6204ce33479,64c7fed44a04f777bb1e18ce,64c80104b18bac10c73ca05a,right,1,0.75,0.05,2,-0.038391875,0.219,13,0,13,0,1,,,,,,,,,,
,,358388,001,2023-07-31_19h44.41.058,arm3_eps,2022.2.5,Win32,119.3887297,613615da1eacf6204ce33479,64c7fed44a04f777bb1e18ce,64c80104b18bac10c73ca05a,right,1,0.75,0.05,2,-0.056436135,0.2083,14,0,14,0,1,,,,,,,,,,
,,358388,001,2023-07-31_19h44.41.058,arm3_eps,2022.2.5,Win32,119.3887297,613615da1eacf6204ce33479,64c7fed44a04f777bb1e18ce,64c80104b18bac10c73ca05a,right,1,0.75,0.05,2,-0.060195338,0.2088,15,0,15,0,1,,,,,,,,,,
,,358388,001,2023-07-31_19h44.41.058,arm3_eps,2022.2.5,Win32,119.3887297,613615da1eacf6204ce33479,64c7fed44a04f777bb1e18ce,64c80104b18bac10c73ca05a,right,1,0.75,0.05,2,-0.075206329,0.2107,16,0,16,0,1,,,,,,,,,,
,,358388,001,2023-07-31_19h44.41.058,arm3_eps,2022.2.5,Win32,119.3887297,613615da1eacf6204ce33479,64c7fed44a04f777bb1e18ce,64c80104b18bac10c73ca05a,up,1,0.75,0.05,3,0,1.1675,17,0,17,0,1,,,,,,,,,,
,,358388,001,2023-07-31_19h44.41.058,arm3_eps,2022.2.5,Win32,119.3887297,613615da1eacf6204ce33479,64c7fed44a04f777bb1e18ce,64c80104b18bac10c73ca05a,right,1,0.75,0.05,3,0.026085149,0.6252,18,0,18,0,1,,,,,,,,,,
,,358388,001,2023-07-31_19h44.41.058,arm3_eps,2022.2.5,Win32,119.3887297,613615da1eacf6204ce33479,64c7fed44a04f777bb1e18ce,64c80104b18bac10c73ca05a,right,1,0.75,0.05,3,0.038233863,0.2337,19,0,19,0,1,,,,,,,,,,
,,358388,001,2023-07-31_19h44.41.058,arm3_eps,2022.2.5,Win32,119.3887297,613615da1eacf6204ce33479,64c7fed44a04f777bb1e18ce,64c80104b18bac10c73ca05a,right,1,0.75,0.05,3,0.065012612,0.1992,20,0,20,0,1,,,,,,,,,,
,,358388,001,2023-07-31_19h44.41.058,arm3_eps,2022.2.5,Win32,119.3887297,613615da1eacf6204ce33479,64c7fed44a04f777bb1e18ce,64c80104b18bac10c73ca05a,right,1,0.75,0.05,3,0.078153047,0.2076,21,0,21,0,1,,,,,,,,,,
,,358388,001,2023-07-31_19h44.41.058,arm3_eps,2022.2.5,Win32,119.3887297,613615da1eacf6204ce33479,64c7fed44a04f777bb1e18ce,64c80104b18bac10c73ca05a,right,1,0.75,0.05,3,0.072016848,0.2004,22,0,22,0,1,,,,,,,,,,
,,358388,001,2023-07-31_19h44.41.058,arm3_eps,2022.2.5,Win32,119.3887297,613615da1eacf6204ce33479,64c7fed44a04f777bb1e18ce,64c80104b18bac10c73ca05a,down,1,0.75,0.05,3,0,0.5743,23,0,23,0,1,,,,,,,,,,
,,358388,001,2023-07-31_19h44.41.058,arm3_eps,2022.2.5,Win32,119.3887297,613615da1eacf6204ce33479,64c7fed44a04f777bb1e18ce,64c80104b18bac10c73ca05a,right,1,0.75,0.05,3,0.036429566,1.1163,24,0,24,0,1,,,,,,,,,,
,,358388,001,2023-07-31_19h44.41.058,arm3_eps,2022.2.5,Win32,119.3887297,613615da1eacf6204ce33479,64c7fed44a04f777bb1e18ce,64c80104b18bac10c73ca05a,right,1,0.75,0.05,3,0.041541688,0.194,25,0,25,0,1,,,,,,,,,,
,,358388,001,2023-07-31_19h44.41.058,arm3_eps,2022.2.5,Win32,119.3887297,613615da1eacf6204ce33479,64c7fed44a04f777bb1e18ce,64c80104b18bac10c73ca05a,right,1,0.75,0.05,3,0.034742825,0.242,26,0,26,0,1,,,,,,,,,,
,,358388,001,2023-07-31_19h44.41.058,arm3_eps,2022.2.5,Win32,119.3887297,613615da1eacf6204ce33479,64c7fed44a04f777bb1e18ce,64c80104b18bac10c73ca05a,right,1,0.75,0.05,3,0.028245474,0.2109,27,0,27,0,1,,,,,,,,,,
,,358388,001,2023-07-31_19h44.41.058,arm3_eps,2022.2.5,Win32,119.3887297,613615da1eacf6204ce33479,64c7fed44a04f777bb1e18ce,64c80104b18bac10c73ca05a,right,1,0.75,0.05,3,0.048352025,0.2673,28,0,28,0,1,,,,,,,,,,
,,358388,001,2023-07-31_19h44.41.058,arm3_eps,2022.2.5,Win32,119.3887297,613615da1eacf6204ce33479,64c7fed44a04f777bb1e18ce,64c80104b18bac10c73ca05a,up,1,0.75,0.05,4,0,0.7505,29,0,29,0,1,,,,,,,,,,
,,358388,001,2023-07-31_19h44.41.058,arm3_eps,2022.2.5,Win32,119.3887297,613615da1eacf6204ce33479,64c7fed44a04f777bb1e18ce,64c80104b18bac10c73ca05a,right,1,0.75,0.05,4,-0.001968784,0.691,30,0,30,0,1,,,,,,,,,,
,,358388,001,2023-07-31_19h44.41.058,arm3_eps,2022.2.5,Win32,119.3887297,613615da1eacf6204ce33479,64c7fed44a04f777bb1e18ce,64c80104b18bac10c73ca05a,right,1,0.75,0.05,4,0.0056411,0.1914,31,0,31,0,1,,,,,,,,,,
,,358388,001,2023-07-31_19h44.41.058,arm3_eps,2022.2.5,Win32,119.3887297,613615da1eacf6204ce33479,64c7fed44a04f777bb1e18ce,64c80104b18bac10c73ca05a,right,1,0.75,0.05,4,0.002330345,0.2088,32,0,32,0,1,,,,,,,,,,
,,358388,001,2023-07-31_19h44.41.058,arm3_eps,2022.2.5,Win32,119.3887297,613615da1eacf6204ce33479,64c7fed44a04f777bb1e18ce,64c80104b18bac10c73ca05a,right,1,0.75,0.05,4,0.022980385,0.1937,33,0,33,0,1,,,,,,,,,,
,,358388,001,2023-07-31_19h44.41.058,arm3_eps,2022.2.5,Win32,119.3887297,613615da1eacf6204ce33479,64c7fed44a04f777bb1e18ce,64c80104b18bac10c73ca05a,right,1,0.75,0.05,4,0.031789489,0.2243,34,0,34,0,1,,,,,,,,,,
,,358388,001,2023-07-31_19h44.41.058,arm3_eps,2022.2.5,Win32,119.3887297,613615da1eacf6204ce33479,64c7fed44a04f777bb1e18ce,64c80104b18bac10c73ca05a,down,1,0.75,0.05,4,0,0.6086,35,0,35,0,1,,,,,,,,,,
,,358388,001,2023-07-31_19h44.41.058,arm3_eps,2022.2.5,Win32,119.3887297,613615da1eacf6204ce33479,64c7fed44a04f777bb1e18ce,64c80104b18bac10c73ca05a,right,1,0.75,0.05,4,0.00208893,0.8085,36,0,36,0,1,,,,,,,,,,
,,358388,001,2023-07-31_19h44.41.058,arm3_eps,2022.2.5,Win32,119.3887297,613615da1eacf6204ce33479,64c7fed44a04f777bb1e18ce,64c80104b18bac10c73ca05a,right,1,0.75,0.05,4,0.01696136,0.192,37,0,37,0,1,,,,,,,,,,
,,358388,001,2023-07-31_19h44.41.058,arm3_eps,2022.2.5,Win32,119.3887297,613615da1eacf6204ce33479,64c7fed44a04f777bb1e18ce,64c80104b18bac10c73ca05a,right,1,0.75,0.05,4,0.04167835,0.1918,38,0,38,0,1,,,,,,,,,,
,,358388,001,2023-07-31_19h44.41.058,arm3_eps,2022.2.5,Win32,119.3887297,613615da1eacf6204ce33479,64c7fed44a04f777bb1e18ce,64c80104b18bac10c73ca05a,right,1,0.75,0.05,4,0.064995662,0.2168,39,0,39,0,1,,,,,,,,,,
,,358388,001,2023-07-31_19h44.41.058,arm3_eps,2022.2.5,Win32,119.3887297,613615da1eacf6204ce33479,64c7fed44a04f777bb1e18ce,64c80104b18bac10c73ca05a,right,1,0.75,0.05,4,0.082172802,0.2251,40,0,40,0,1,,,,,,,,,,
,,358388,001,2023-07-31_19h44.41.058,arm3_eps,2022.2.5,Win32,119.3887297,613615da1eacf6204ce33479,64c7fed44a04f777bb1e18ce,64c80104b18bac10c73ca05a,up,1,0.75,0.05,5,0,0.6017,41,0,41,0,1,,,,,,,,,,
,,358388,001,2023-07-31_19h44.41.058,arm3_eps,2022.2.5,Win32,119.3887297,613615da1eacf6204ce33479,64c7fed44a04f777bb1e18ce,64c80104b18bac10c73ca05a,right,1,0.75,0.05,5,-0.028599312,0.9113,42,0,42,0,1,,,,,,,,,,
,,358388,001,2023-07-31_19h44.41.058,arm3_eps,2022.2.5,Win32,119.3887297,613615da1eacf6204ce33479,64c7fed44a04f777bb1e18ce,64c80104b18bac10c73ca05a,right,1,0.75,0.05,5,-0.032386031,0.3089,43,0,43,0,1,,,,,,,,,,
,,358388,001,2023-07-31_19h44.41.058,arm3_eps,2022.2.5,Win32,119.3887297,613615da1eacf6204ce33479,64c7fed44a04f777bb1e18ce,64c80104b18bac10c73ca05a,right,1,0.75,0.05,5,-0.068130821,0.2939,44,0,44,0,1,,,,,,,,,,
,,358388,001,2023-07-31_19h44.41.058,arm3_eps,2022.2.5,Win32,119.3887297,613615da1eacf6204ce33479,64c7fed44a04f777bb1e18ce,64c80104b18bac10c73ca05a,right,1,0.75,0.05,5,-0.056968951,0.3173,45,0,45,0,1,,,,,,,,,,
,,358388,001,2023-07-31_19h44.41.058,arm3_eps,2022.2.5,Win32,119.3887297,613615da1eacf6204ce33479,64c7fed44a04f777bb1e18ce,64c80104b18bac10c73ca05a,right,1,0.75,0.05,5,-0.070023277,0.291,46,0,46,0,1,,,,,,,,,,
,,358388,001,2023-07-31_19h44.41.058,arm3_eps,2022.2.5,Win32,119.3887297,613615da1eacf6204ce33479,64c7fed44a04f777bb1e18ce,64c80104b18bac10c73ca05a,down,1,0.75,0.05,4,0,0.4744,47,0,47,0,1,,,,,,,,,,
,,358388,001,2023-07-31_19h44.41.058,arm3_eps,2022.2.5,Win32,119.3887297,613615da1eacf6204ce33479,64c7fed44a04f777bb1e18ce,64c80104b18bac10c73ca05a,right,1,0.75,0.05,4,0.006142178,0.7421,48,0,48,0,1,,,,,,,,,,
,,358388,001,2023-07-31_19h44.41.058,arm3_eps,2022.2.5,Win32,119.3887297,613615da1eacf6204ce33479,64c7fed44a04f777bb1e18ce,64c80104b18bac10c73ca05a,right,1,0.75,0.05,4,0.039065448,0.2422,49,0,49,0,1,,,,,,,,,,
space,1.2167,358388,001,2023-07-31_19h44.41.058,arm3_eps,2022.2.5,Win32,119.3887297,613615da1eacf6204ce33479,64c7fed44a04f777bb1e18ce,64c80104b18bac10c73ca05a,,,,,,,,,,,,,,,,,,,,,,
space,0.4755,358388,001,2023-07-31_19h44.41.058,arm3_eps,2022.2.5,Win32,119.3887297,613615da1eacf6204ce33479,64c7fed44a04f777bb1e18ce,64c80104b18bac10c73ca05a,,,,,,,,,,,,,,,,,,,,,,
,,358388,001,2023-07-31_19h44.41.058,arm3_eps,2022.2.5,Win32,119.3887297,613615da1eacf6204ce33479,64c7fed44a04f777bb1e18ce,64c80104b18bac10c73ca05a,right,1,0.75,0.5,0,0.019995377,0.9003,0,0,0,0,1,,,,,,,,,,
,,358388,001,2023-07-31_19h44.41.058,arm3_eps,2022.2.5,Win32,119.3887297,613615da1eacf6204ce33479,64c7fed44a04f777bb1e18ce,64c80104b18bac10c73ca05a,right,1,0.75,0.5,0,0.030838899,0.1996,1,0,1,0,1,,,,,,,,,,
,,358388,001,2023-07-31_19h44.41.058,arm3_eps,2022.2.5,Win32,119.3887297,613615da1eacf6204ce33479,64c7fed44a04f777bb1e18ce,64c80104b18bac10c73ca05a,right,1,0.75,0.5,0,0.006277132,0.192,2,0,2,0,1,,,,,,,,,,
,,358388,001,2023-07-31_19h44.41.058,arm3_eps,2022.2.5,Win32,119.3887297,613615da1eacf6204ce33479,64c7fed44a04f777bb1e18ce,64c80104b18bac10c73ca05a,right,1,0.75,0.5,0,0.021079694,0.2336,3,0,3,0,1,,,,,,,,,,
,,358388,001,2023-07-31_19h44.41.058,arm3_eps,2022.2.5,Win32,119.3887297,613615da1eacf6204ce33479,64c7fed44a04f777bb1e18ce,64c80104b18bac10c73ca05a,right,1,0.75,0.5,0,0.02697607,0.242,4,0,4,0,1,,,,,,,,,,
,,358388,001,2023-07-31_19h44.41.058,arm3_eps,2022.2.5,Win32,119.3887297,613615da1eacf6204ce33479,64c7fed44a04f777bb1e18ce,64c80104b18bac10c73ca05a,up,-1,0.75,0.5,1,0,0.9002,5,0,5,0,1,,,,,,,,,,
,,358388,001,2023-07-31_19h44.41.058,arm3_eps,2022.2.5,Win32,119.3887297,613615da1eacf6204ce33479,64c7fed44a04f777bb1e18ce,64c80104b18bac10c73ca05a,right,-1,0.75,0.5,1,-0.004364675,0.6752,6,0,6,0,1,,,,,,,,,,
,,358388,001,2023-07-31_19h44.41.058,arm3_eps,2022.2.5,Win32,119.3887297,613615da1eacf6204ce33479,64c7fed44a04f777bb1e18ce,64c80104b18bac10c73ca05a,right,-1,0.75,0.5,1,-0.004287812,0.191,7,0,7,0,1,,,,,,,,,,
,,358388,001,2023-07-31_19h44.41.058,arm3_eps,2022.2.5,Win32,119.3887297,613615da1eacf6204ce33479,64c7fed44a04f777bb1e18ce,64c80104b18bac10c73ca05a,right,-1,0.75,0.5,1,-0.044948631,0.2006,8,0,8,0,1,,,,,,,,,,
,,358388,001,2023-07-31_19h44.41.058,arm3_eps,2022.2.5,Win32,119.3887297,613615da1eacf6204ce33479,64c7fed44a04f777bb1e18ce,64c80104b18bac10c73ca05a,right,-1,0.75,0.5,1,-0.079738369,0.2337,9,0,9,0,1,,,,,,,,,,
,,358388,001,2023-07-31_19h44.41.058,arm3_eps,2022.2.5,Win32,119.3887297,613615da1eacf6204ce33479,64c7fed44a04f777bb1e18ce,64c80104b18bac10c73ca05a,right,-1,0.75,0.5,1,-0.070961503,0.2604,10,0,10,0,1,,,,,,,,,,
,,358388,001,2023-07-31_19h44.41.058,arm3_eps,2022.2.5,Win32,119.3887297,613615da1eacf6204ce33479,64c7fed44a04f777bb1e18ce,64c80104b18bac10c73ca05a,down,1,0.75,0.5,2,0,0.7576,11,0,11,0,1,,,,,,,,,,
,,358388,001,2023-07-31_19h44.41.058,arm3_eps,2022.2.5,Win32,119.3887297,613615da1eacf6204ce33479,64c7fed44a04f777bb1e18ce,64c80104b18bac10c73ca05a,right,1,0.75,0.5,2,0.029288373,0.6504,12,0,12,0,1,,,,,,,,,,
,,358388,001,2023-07-31_19h44.41.058,arm3_eps,2022.2.5,Win32,119.3887297,613615da1eacf6204ce33479,64c7fed44a04f777bb1e18ce,64c80104b18bac10c73ca05a,right,1,0.75,0.5,2,0.042868977,0.2002,13,0,13,0,1,,,,,,,,,,
,,358388,001,2023-07-31_19h44.41.058,arm3_eps,2022.2.5,Win32,119.3887297,613615da1eacf6204ce33479,64c7fed44a04f777bb1e18ce,64c80104b18bac10c73ca05a,right,1,0.75,0.5,2,0.053495217,0.192,14,0,14,0,1,,,,,,,,,,
,,358388,001,2023-07-31_19h44.41.058,arm3_eps,2022.2.5,Win32,119.3887297,613615da1eacf6204ce33479,64c7fed44a04f777bb1e18ce,64c80104b18bac10c73ca05a,right,1,0.75,0.5,2,0.073749502,0.2347,15,0,15,0,1,,,,,,,,,,
,,358388,001,2023-07-31_19h44.41.058,arm3_eps,2022.2.5,Win32,119.3887297,613615da1eacf6204ce33479,64c7fed44a04f777bb1e18ce,64c80104b18bac10c73ca05a,right,1,0.75,0.5,2,0.095717186,0.2503,16,0,16,0,1,,,,,,,,,,
,,358388,001,2023-07-31_19h44.41.058,arm3_eps,2022.2.5,Win32,119.3887297,613615da1eacf6204ce33479,64c7fed44a04f777bb1e18ce,64c80104b18bac10c73ca05a,up,-1,0.75,0.5,3,0,0.6337,17,0,17,0,1,,,,,,,,,,
,,358388,001,2023-07-31_19h44.41.058,arm3_eps,2022.2.5,Win32,119.3887297,613615da1eacf6204ce33479,64c7fed44a04f777bb1e18ce,64c80104b18bac10c73ca05a,right,-1,0.75,0.5,3,-0.013505786,0.7589,18,0,18,0,1,,,,,,,,,,
,,358388,001,2023-07-31_19h44.41.058,arm3_eps,2022.2.5,Win32,119.3887297,613615da1eacf6204ce33479,64c7fed44a04f777bb1e18ce,64c80104b18bac10c73ca05a,right,-1,0.75,0.5,3,-0.042516151,0.1749,19,0,19,0,1,,,,,,,,,,
,,358388,001,2023-07-31_19h44.41.058,arm3_eps,2022.2.5,Win32,119.3887297,613615da1eacf6204ce33479,64c7fed44a04f777bb1e18ce,64c80104b18bac10c73ca05a,right,-1,0.75,0.5,3,-0.066128851,0.2002,20,0,20,0,1,,,,,,,,,,
,,358388,001,2023-07-31_19h44.41.058,arm3_eps,2022.2.5,Win32,119.3887297,613615da1eacf6204ce33479,64c7fed44a04f777bb1e18ce,64c80104b18bac10c73ca05a,right,-1,0.75,0.5,3,-0.057191883,0.2253,21,0,21,0,1,,,,,,,,,,
,,358388,001,2023-07-31_19h44.41.058,arm3_eps,2022.2.5,Win32,119.3887297,613615da1eacf6204ce33479,64c7fed44a04f777bb1e18ce,64c80104b18bac10c73ca05a,right,-1,0.75,0.5,3,-0.008842908,0.2085,22,0,22,0,1,,,,,,,,,,
,,358388,001,2023-07-31_19h44.41.058,arm3_eps,2022.2.5,Win32,119.3887297,613615da1eacf6204ce33479,64c7fed44a04f777bb1e18ce,64c80104b18bac10c73ca05a,up,-1,0.75,0.5,3,0,0.7187,23,0,23,0,1,,,,,,,,,,
,,358388,001,2023-07-31_19h44.41.058,arm3_eps,2022.2.5,Win32,119.3887297,613615da1eacf6204ce33479,64c7fed44a04f777bb1e18ce,64c80104b18bac10c73ca05a,right,-1,0.75,0.5,3,-0.022620017,0.7711,24,0,24,0,1,,,,,,,,,,
,,358388,001,2023-07-31_19h44.41.058,arm3_eps,2022.2.5,Win32,119.3887297,613615da1eacf6204ce33479,64c7fed44a04f777bb1e18ce,64c80104b18bac10c73ca05a,right,-1,0.75,0.5,3,-0.034164117,0.1753,25,0,25,0,1,,,,,,,,,,
,,358388,001,2023-07-31_19h44.41.058,arm3_eps,2022.2.5,Win32,119.3887297,613615da1eacf6204ce33479,64c7fed44a04f777bb1e18ce,64c80104b18bac10c73ca05a,right,-1,0.75,0.5,3,-0.019815667,0.2167,26,0,26,0,1,,,,,,,,,,
,,358388,001,2023-07-31_19h44.41.058,arm3_eps,2022.2.5,Win32,119.3887297,613615da1eacf6204ce33479,64c7fed44a04f777bb1e18ce,64c80104b18bac10c73ca05a,right,-1,0.75,0.5,3,-0.029725413,0.2005,27,0,27,0,1,,,,,,,,,,
,,358388,001,2023-07-31_19h44.41.058,arm3_eps,2022.2.5,Win32,119.3887297,613615da1eacf6204ce33479,64c7fed44a04f777bb1e18ce,64c80104b18bac10c73ca05a,right,-1,0.75,0.5,3,-0.04719489,0.2123,28,0,28,0,1,,,,,,,,,,
,,358388,001,2023-07-31_19h44.41.058,arm3_eps,2022.2.5,Win32,119.3887297,613615da1eacf6204ce33479,64c7fed44a04f777bb1e18ce,64c80104b18bac10c73ca05a,down,-1,0.75,0.5,4,0,0.7003,29,0,29,0,1,,,,,,,,,,
,,358388,001,2023-07-31_19h44.41.058,arm3_eps,2022.2.5,Win32,119.3887297,613615da1eacf6204ce33479,64c7fed44a04f777bb1e18ce,64c80104b18bac10c73ca05a,right,-1,0.75,0.5,4,0.01587613,0.5837,30,0,30,0,1,,,,,,,,,,
,,358388,001,2023-07-31_19h44.41.058,arm3_eps,2022.2.5,Win32,119.3887297,613615da1eacf6204ce33479,64c7fed44a04f777bb1e18ce,64c80104b18bac10c73ca05a,right,-1,0.75,0.5,4,0.030306017,0.1921,31,0,31,0,1,,,,,,,,,,
,,358388,001,2023-07-31_19h44.41.058,arm3_eps,2022.2.5,Win32,119.3887297,613615da1eacf6204ce33479,64c7fed44a04f777bb1e18ce,64c80104b18bac10c73ca05a,right,-1,0.75,0.5,4,0.034824861,0.1917,32,0,32,0,1,,,,,,,,,,
,,358388,001,2023-07-31_19h44.41.058,arm3_eps,2022.2.5,Win32,119.3887297,613615da1eacf6204ce33479,64c7fed44a04f777bb1e18ce,64c80104b18bac10c73ca05a,right,-1,0.75,0.5,4,0.045094017,0.217,33,0,33,0,1,,,,,,,,,,
,,358388,001,2023-07-31_19h44.41.058,arm3_eps,2022.2.5,Win32,119.3887297,613615da1eacf6204ce33479,64c7fed44a04f777bb1e18ce,64c80104b18bac10c73ca05a,right,-1,0.75,0.5,4,0.072403096,0.2172,34,0,34,0,1,,,,,,,,,,
,,358388,001,2023-07-31_19h44.41.058,arm3_eps,2022.2.5,Win32,119.3887297,613615da1eacf6204ce33479,64c7fed44a04f777bb1e18ce,64c80104b18bac10c73ca05a,right,-1,0.75,0.5,4,0.0780972,0.5585,35,0,35,0,1,,,,,,,,,,
,,358388,001,2023-07-31_19h44.41.058,arm3_eps,2022.2.5,Win32,119.3887297,613615da1eacf6204ce33479,64c7fed44a04f777bb1e18ce,64c80104b18bac10c73ca05a,right,-1,0.75,0.5,4,0.06488203,1.1915,36,0,36,0,1,,,,,,,,,,
,,358388,001,2023-07-31_19h44.41.058,arm3_eps,2022.2.5,Win32,119.3887297,613615da1eacf6204ce33479,64c7fed44a04f777bb1e18ce,64c80104b18bac10c73ca05a,down,1,0.75,0.5,5,0,1.2486,37,0,37,0,1,,,,,,,,,,
,,358388,001,2023-07-31_19h44.41.058,arm3_eps,2022.2.5,Win32,119.3887297,613615da1eacf6204ce33479,64c7fed44a04f777bb1e18ce,64c80104b18bac10c73ca05a,right,1,0.75,0.5,5,0.006193435,0.0006,38,0,38,0,1,,,,,,,,,,
,,358388,001,2023-07-31_19h44.41.058,arm3_eps,2022.2.5,Win32,119.3887297,613615da1eacf6204ce33479,64c7fed44a04f777bb1e18ce,64c80104b18bac10c73ca05a,right,1,0.75,0.5,5,0.020351666,0.867,39,0,39,0,1,,,,,,,,,,
,,358388,001,2023-07-31_19h44.41.058,arm3_eps,2022.2.5,Win32,119.3887297,613615da1eacf6204ce33479,64c7fed44a04f777bb1e18ce,64c80104b18bac10c73ca05a,right,1,0.75,0.5,5,0.039473323,0.178,40,0,40,0,1,,,,,,,,,,
,,358388,001,2023-07-31_19h44.41.058,arm3_eps,2022.2.5,Win32,119.3887297,613615da1eacf6204ce33479,64c7fed44a04f777bb1e18ce,64c80104b18bac10c73ca05a,right,1,0.75,0.5,5,0.057431141,0.1836,41,0,41,0,1,,,,,,,,,,
,,358388,001,2023-07-31_19h44.41.058,arm3_eps,2022.2.5,Win32,119.3887297,613615da1eacf6204ce33479,64c7fed44a04f777bb1e18ce,64c80104b18bac10c73ca05a,right,1,0.75,0.5,5,0.0734596,0.1584,42,0,42,0,1,,,,,,,,,,
,,358388,001,2023-07-31_19h44.41.058,arm3_eps,2022.2.5,Win32,119.3887297,613615da1eacf6204ce33479,64c7fed44a04f777bb1e18ce,64c80104b18bac10c73ca05a,right,1,0.75,0.5,5,0.072556262,0.1909,43,0,43,0,1,,,,,,,,,,
,,358388,001,2023-07-31_19h44.41.058,arm3_eps,2022.2.5,Win32,119.3887297,613615da1eacf6204ce33479,64c7fed44a04f777bb1e18ce,64c80104b18bac10c73ca05a,up,1,0.75,0.5,6,0,1.3843,44,0,44,0,1,,,,,,,,,,
,,358388,001,2023-07-31_19h44.41.058,arm3_eps,2022.2.5,Win32,119.3887297,613615da1eacf6204ce33479,64c7fed44a04f777bb1e18ce,64c80104b18bac10c73ca05a,right,1,0.75,0.5,6,0.021156477,0.9777,45,0,45,0,1,,,,,,,,,,
,,358388,001,2023-07-31_19h44.41.058,arm3_eps,2022.2.5,Win32,119.3887297,613615da1eacf6204ce33479,64c7fed44a04f777bb1e18ce,64c80104b18bac10c73ca05a,right,1,0.75,0.5,6,0.049753486,0.1921,46,0,46,0,1,,,,,,,,,,
,,358388,001,2023-07-31_19h44.41.058,arm3_eps,2022.2.5,Win32,119.3887297,613615da1eacf6204ce33479,64c7fed44a04f777bb1e18ce,64c80104b18bac10c73ca05a,right,1,0.75,0.5,6,0.058326419,0.2171,47,0,47,0,1,,,,,,,,,,
,,358388,001,2023-07-31_19h44.41.058,arm3_eps,2022.2.5,Win32,119.3887297,613615da1eacf6204ce33479,64c7fed44a04f777bb1e18ce,64c80104b18bac10c73ca05a,right,1,0.75,0.5,6,0.052085263,0.2154,48,0,48,0,1,,,,,,,,,,
,,358388,001,2023-07-31_19h44.41.058,arm3_eps,2022.2.5,Win32,119.3887297,613615da1eacf6204ce33479,64c7fed44a04f777bb1e18ce,64c80104b18bac10c73ca05a,right,1,0.75,0.5,6,0.021612229,0.5264,49,0,49,0,1,,,,,,,,,,
space,1.1661,358388,001,2023-07-31_19h44.41.058,arm3_eps,2022.2.5,Win32,119.3887297,613615da1eacf6204ce33479,64c7fed44a04f777bb1e18ce,64c80104b18bac10c73ca05a,,,,,,,,,,,,,,,,,,,,,,
space,3.0895,358388,001,2023-07-31_19h44.41.058,arm3_eps,2022.2.5,Win32,119.3887297,613615da1eacf6204ce33479,64c7fed44a04f777bb1e18ce,64c80104b18bac10c73ca05a,right,1,0.75,0.05,0,0.021820673,2.2919,,,,,,0,0,0,0,1,,,,,
,,358388,001,2023-07-31_19h44.41.058,arm3_eps,2022.2.5,Win32,119.3887297,613615da1eacf6204ce33479,64c7fed44a04f777bb1e18ce,64c80104b18bac10c73ca05a,right,1,0.75,0.05,0,0.028564301,0.2126,,,,,,1,0,1,0,1,,,,,
,,358388,001,2023-07-31_19h44.41.058,arm3_eps,2022.2.5,Win32,119.3887297,613615da1eacf6204ce33479,64c7fed44a04f777bb1e18ce,64c80104b18bac10c73ca05a,right,1,0.75,0.05,0,0.045054326,0.2328,,,,,,2,0,2,0,1,,,,,
,,358388,001,2023-07-31_19h44.41.058,arm3_eps,2022.2.5,Win32,119.3887297,613615da1eacf6204ce33479,64c7fed44a04f777bb1e18ce,64c80104b18bac10c73ca05a,right,1,0.75,0.05,0,0.051512151,0.2277,,,,,,3,0,3,0,1,,,,,
,,358388,001,2023-07-31_19h44.41.058,arm3_eps,2022.2.5,Win32,119.3887297,613615da1eacf6204ce33479,64c7fed44a04f777bb1e18ce,64c80104b18bac10c73ca05a,down,1,0.75,0.05,-1,0,0.8078,,,,,,4,0,4,0,1,,,,,
,,358388,001,2023-07-31_19h44.41.058,arm3_eps,2022.2.5,Win32,119.3887297,613615da1eacf6204ce33479,64c7fed44a04f777bb1e18ce,64c80104b18bac10c73ca05a,right,1,0.75,0.05,-1,0.029401047,0.737,,,,,,5,0,5,0,1,,,,,
,,358388,001,2023-07-31_19h44.41.058,arm3_eps,2022.2.5,Win32,119.3887297,613615da1eacf6204ce33479,64c7fed44a04f777bb1e18ce,64c80104b18bac10c73ca05a,right,1,0.75,0.05,-1,0.057821126,0.2026,,,,,,6,0,6,0,1,,,,,
,,358388,001,2023-07-31_19h44.41.058,arm3_eps,2022.2.5,Win32,119.3887297,613615da1eacf6204ce33479,64c7fed44a04f777bb1e18ce,64c80104b18bac10c73ca05a,right,1,0.75,0.05,-1,0.085270014,0.2086,,,,,,7,0,7,0,1,,,,,
,,358388,001,2023-07-31_19h44.41.058,arm3_eps,2022.2.5,Win32,119.3887297,613615da1eacf6204ce33479,64c7fed44a04f777bb1e18ce,64c80104b18bac10c73ca05a,up,1,0.75,0.05,0,0,0.9422,,,,,,8,0,8,0,1,,,,,
,,358388,001,2023-07-31_19h44.41.058,arm3_eps,2022.2.5,Win32,119.3887297,613615da1eacf6204ce33479,64c7fed44a04f777bb1e18ce,64c80104b18bac10c73ca05a,right,1,0.75,0.05,0,0.033708438,0.6993,,,,,,9,0,9,0,1,,,,,
,,358388,001,2023-07-31_19h44.41.058,arm3_eps,2022.2.5,Win32,119.3887297,613615da1eacf6204ce33479,64c7fed44a04f777bb1e18ce,64c80104b18bac10c73ca05a,right,1,0.75,0.05,0,0.00853681,0.1814,,,,,,10,0,10,0,1,,,,,
,,358388,001,2023-07-31_19h44.41.058,arm3_eps,2022.2.5,Win32,119.3887297,613615da1eacf6204ce33479,64c7fed44a04f777bb1e18ce,64c80104b18bac10c73ca05a,right,1,0.75,0.05,0,0.020380984,0.2026,,,,,,11,0,11,0,1,,,,,
,,358388,001,2023-07-31_19h44.41.058,arm3_eps,2022.2.5,Win32,119.3887297,613615da1eacf6204ce33479,64c7fed44a04f777bb1e18ce,64c80104b18bac10c73ca05a,right,1,0.75,0.05,0,0.017258343,0.2431,,,,,,12,0,12,0,1,,,,,
,,358388,001,2023-07-31_19h44.41.058,arm3_eps,2022.2.5,Win32,119.3887297,613615da1eacf6204ce33479,64c7fed44a04f777bb1e18ce,64c80104b18bac10c73ca05a,down,1,0.75,0.05,-1,0,0.8692,,,,,,13,0,13,0,1,,,,,
,,358388,001,2023-07-31_19h44.41.058,arm3_eps,2022.2.5,Win32,119.3887297,613615da1eacf6204ce33479,64c7fed44a04f777bb1e18ce,64c80104b18bac10c73ca05a,right,1,0.75,0.05,-1,0.032078929,0.6171,,,,,,14,0,14,0,1,,,,,
,,358388,001,2023-07-31_19h44.41.058,arm3_eps,2022.2.5,Win32,119.3887297,613615da1eacf6204ce33479,64c7fed44a04f777bb1e18ce,64c80104b18bac10c73ca05a,right,1,0.75,0.05,-1,0.051704708,0.182,,,,,,15,0,15,0,1,,,,,
,,358388,001,2023-07-31_19h44.41.058,arm3_eps,2022.2.5,Win32,119.3887297,613615da1eacf6204ce33479,64c7fed44a04f777bb1e18ce,64c80104b18bac10c73ca05a,right,1,0.75,0.05,-1,0.06241833,0.1776,,,,,,16,0,16,0,1,,,,,
,,358388,001,2023-07-31_19h44.41.058,arm3_eps,2022.2.5,Win32,119.3887297,613615da1eacf6204ce33479,64c7fed44a04f777bb1e18ce,64c80104b18bac10c73ca05a,right,1,0.75,0.05,-1,0.074925155,0.2091,,,,,,17,0,17,0,1,,,,,
,,358388,001,2023-07-31_19h44.41.058,arm3_eps,2022.2.5,Win32,119.3887297,613615da1eacf6204ce33479,64c7fed44a04f777bb1e18ce,64c80104b18bac10c73ca05a,up,1,0.75,0.05,0,0,0.5776,,,,,,18,0,18,0,1,,,,,
,,358388,001,2023-07-31_19h44.41.058,arm3_eps,2022.2.5,Win32,119.3887297,613615da1eacf6204ce33479,64c7fed44a04f777bb1e18ce,64c80104b18bac10c73ca05a,right,1,0.75,0.05,0,0.004120506,0.6916,,,,,,19,0,19,0,1,,,,,
,,358388,001,2023-07-31_19h44.41.058,arm3_eps,2022.2.5,Win32,119.3887297,613615da1eacf6204ce33479,64c7fed44a04f777bb1e18ce,64c80104b18bac10c73ca05a,right,1,0.75,0.05,0,0.017905772,0.1929,,,,,,20,0,20,0,1,,,,,
,,358388,001,2023-07-31_19h44.41.058,arm3_eps,2022.2.5,Win32,119.3887297,613615da1eacf6204ce33479,64c7fed44a04f777bb1e18ce,64c80104b18bac10c73ca05a,right,1,0.75,0.05,0,0.000859026,0.1836,,,,,,21,0,21,0,1,,,,,
,,358388,001,2023-07-31_19h44.41.058,arm3_eps,2022.2.5,Win32,119.3887297,613615da1eacf6204ce33479,64c7fed44a04f777bb1e18ce,64c80104b18bac10c73ca05a,right,1,0.75,0.05,0,0.035651808,0.2145,,,,,,22,0,22,0,1,,,,,
,,358388,001,2023-07-31_19h44.41.058,arm3_eps,2022.2.5,Win32,119.3887297,613615da1eacf6204ce33479,64c7fed44a04f777bb1e18ce,64c80104b18bac10c73ca05a,up,1,0.75,0.05,1,0,1.2419,,,,,,23,0,23,0,1,,,,,
,,358388,001,2023-07-31_19h44.41.058,arm3_eps,2022.2.5,Win32,119.3887297,613615da1eacf6204ce33479,64c7fed44a04f777bb1e18ce,64c80104b18bac10c73ca05a,right,1,0.75,0.05,1,-0.015860987,0.714,,,,,,24,0,24,0,1,,,,,
,,358388,001,2023-07-31_19h44.41.058,arm3_eps,2022.2.5,Win32,119.3887297,613615da1eacf6204ce33479,64c7fed44a04f777bb1e18ce,64c80104b18bac10c73ca05a,right,1,0.75,0.05,1,-0.002701687,0.217,,,,,,25,0,25,0,1,,,,,
,,358388,001,2023-07-31_19h44.41.058,arm3_eps,2022.2.5,Win32,119.3887297,613615da1eacf6204ce33479,64c7fed44a04f777bb1e18ce,64c80104b18bac10c73ca05a,right,1,0.75,0.05,1,0.04037026,0.189,,,,,,26,0,26,0,1,,,,,
,,358388,001,2023-07-31_19h44.41.058,arm3_eps,2022.2.5,Win32,119.3887297,613615da1eacf6204ce33479,64c7fed44a04f777bb1e18ce,64c80104b18bac10c73ca05a,right,1,0.75,0.05,1,0.058322213,0.24,,,,,,27,0,27,0,1,,,,,
,,358388,001,2023-07-31_19h44.41.058,arm3_eps,2022.2.5,Win32,119.3887297,613615da1eacf6204ce33479,64c7fed44a04f777bb1e18ce,64c80104b18bac10c73ca05a,up,1,0.75,0.05,2,0,0.5162,,,,,,28,0,28,0,1,,,,,
,,358388,001,2023-07-31_19h44.41.058,arm3_eps,2022.2.5,Win32,119.3887297,613615da1eacf6204ce33479,64c7fed44a04f777bb1e18ce,64c80104b18bac10c73ca05a,right,1,0.75,0.05,2,0.002938802,0.7131,,,,,,29,0,29,0,1,,,,,
,,358388,001,2023-07-31_19h44.41.058,arm3_eps,2022.2.5,Win32,119.3887297,613615da1eacf6204ce33479,64c7fed44a04f777bb1e18ce,64c80104b18bac10c73ca05a,right,1,0.75,0.05,2,-0.015645087,0.1513,,,,,,30,0,30,0,1,,,,,
,,358388,001,2023-07-31_19h44.41.058,arm3_eps,2022.2.5,Win32,119.3887297,613615da1eacf6204ce33479,64c7fed44a04f777bb1e18ce,64c80104b18bac10c73ca05a,right,1,0.75,0.05,2,-0.023527593,0.1815,,,,,,31,0,31,0,1,,,,,
,,358388,001,2023-07-31_19h44.41.058,arm3_eps,2022.2.5,Win32,119.3887297,613615da1eacf6204ce33479,64c7fed44a04f777bb1e18ce,64c80104b18bac10c73ca05a,up,1,0.75,0.05,3,0,1.3765,,,,,,32,0,32,0,1,,,,,
,,358388,001,2023-07-31_19h44.41.058,arm3_eps,2022.2.5,Win32,119.3887297,613615da1eacf6204ce33479,64c7fed44a04f777bb1e18ce,64c80104b18bac10c73ca05a,right,1,0.75,0.05,3,0.014661614,0.6653,,,,,,33,0,33,0,1,,,,,
,,358388,001,2023-07-31_19h44.41.058,arm3_eps,2022.2.5,Win32,119.3887297,613615da1eacf6204ce33479,64c7fed44a04f777bb1e18ce,64c80104b18bac10c73ca05a,right,1,0.75,0.05,3,0.025713001,0.1672,,,,,,34,0,34,0,1,,,,,
,,358388,001,2023-07-31_19h44.41.058,arm3_eps,2022.2.5,Win32,119.3887297,613615da1eacf6204ce33479,64c7fed44a04f777bb1e18ce,64c80104b18bac10c73ca05a,right,1,0.75,0.05,3,0.044666691,0.1837,,,,,,35,0,35,0,1,,,,,
,,358388,001,2023-07-31_19h44.41.058,arm3_eps,2022.2.5,Win32,119.3887297,613615da1eacf6204ce33479,64c7fed44a04f777bb1e18ce,64c80104b18bac10c73ca05a,up,1,0.75,0.05,4,0,0.6657,,,,,,36,0,36,0,1,,,,,
,,358388,001,2023-07-31_19h44.41.058,arm3_eps,2022.2.5,Win32,119.3887297,613615da1eacf6204ce33479,64c7fed44a04f777bb1e18ce,64c80104b18bac10c73ca05a,right,1,0.75,0.05,4,0.023243458,0.7133,,,,,,37,0,37,0,1,,,,,
,,358388,001,2023-07-31_19h44.41.058,arm3_eps,2022.2.5,Win32,119.3887297,613615da1eacf6204ce33479,64c7fed44a04f777bb1e18ce,64c80104b18bac10c73ca05a,right,1,0.75,0.05,4,0.005237986,0.3072,,,,,,38,0,38,0,1,,,,,
,,358388,001,2023-07-31_19h44.41.058,arm3_eps,2022.2.5,Win32,119.3887297,613615da1eacf6204ce33479,64c7fed44a04f777bb1e18ce,64c80104b18bac10c73ca05a,down,1,0.75,0.05,3,0,0.7824,,,,,,39,0,39,0,1,,,,,
,,358388,001,2023-07-31_19h44.41.058,arm3_eps,2022.2.5,Win32,119.3887297,613615da1eacf6204ce33479,64c7fed44a04f777bb1e18ce,64c80104b18bac10c73ca05a,right,1,0.75,0.05,3,0.016282944,0.7151,,,,,,40,0,40,0,1,,,,,
,,358388,001,2023-07-31_19h44.41.058,arm3_eps,2022.2.5,Win32,119.3887297,613615da1eacf6204ce33479,64c7fed44a04f777bb1e18ce,64c80104b18bac10c73ca05a,right,1,0.75,0.05,3,0.03493827,0.1526,,,,,,41,0,41,0,1,,,,,
,,358388,001,2023-07-31_19h44.41.058,arm3_eps,2022.2.5,Win32,119.3887297,613615da1eacf6204ce33479,64c7fed44a04f777bb1e18ce,64c80104b18bac10c73ca05a,right,1,0.75,0.05,3,0.077157607,0.193,,,,,,42,0,42,0,1,,,,,
,,358388,001,2023-07-31_19h44.41.058,arm3_eps,2022.2.5,Win32,119.3887297,613615da1eacf6204ce33479,64c7fed44a04f777bb1e18ce,64c80104b18bac10c73ca05a,up,1,0.75,0.05,4,0,0.7063,,,,,,43,0,43,0,1,,,,,
,,358388,001,2023-07-31_19h44.41.058,arm3_eps,2022.2.5,Win32,119.3887297,613615da1eacf6204ce33479,64c7fed44a04f777bb1e18ce,64c80104b18bac10c73ca05a,right,1,0.75,0.05,4,-0.019419293,0.7489,,,,,,44,0,44,0,1,,,,,
,,358388,001,2023-07-31_19h44.41.058,arm3_eps,2022.2.5,Win32,119.3887297,613615da1eacf6204ce33479,64c7fed44a04f777bb1e18ce,64c80104b18bac10c73ca05a,right,1,0.75,0.05,4,-0.006695772,0.1678,,,,,,45,0,45,0,1,,,,,
,,358388,001,2023-07-31_19h44.41.058,arm3_eps,2022.2.5,Win32,119.3887297,613615da1eacf6204ce33479,64c7fed44a04f777bb1e18ce,64c80104b18bac10c73ca05a,right,1,0.75,0.05,4,-0.007230596,0.1941,,,,,,46,0,46,0,1,,,,,
,,358388,001,2023-07-31_19h44.41.058,arm3_eps,2022.2.5,Win32,119.3887297,613615da1eacf6204ce33479,64c7fed44a04f777bb1e18ce,64c80104b18bac10c73ca05a,right,1,0.75,0.05,4,-0.018565189,0.6684,,,,,,47,0,47,0,1,,,,,
,,358388,001,2023-07-31_19h44.41.058,arm3_eps,2022.2.5,Win32,119.3887297,613615da1eacf6204ce33479,64c7fed44a04f777bb1e18ce,64c80104b18bac10c73ca05a,up,1,0.75,0.05,5,0,0.7189,,,,,,48,0,48,0,1,,,,,
,,358388,001,2023-07-31_19h44.41.058,arm3_eps,2022.2.5,Win32,119.3887297,613615da1eacf6204ce33479,64c7fed44a04f777bb1e18ce,64c80104b18bac10c73ca05a,right,1,0.75,0.05,5,-0.04259324,0.7669,,,,,,49,0,49,0,1,,,,,
,,358388,001,2023-07-31_19h44.41.058,arm3_eps,2022.2.5,Win32,119.3887297,613615da1eacf6204ce33479,64c7fed44a04f777bb1e18ce,64c80104b18bac10c73ca05a,right,1,0.75,0.05,5,-0.077245086,0.1593,,,,,,50,0,50,0,1,,,,,
,,358388,001,2023-07-31_19h44.41.058,arm3_eps,2022.2.5,Win32,119.3887297,613615da1eacf6204ce33479,64c7fed44a04f777bb1e18ce,64c80104b18bac10c73ca05a,right,1,0.75,0.05,5,-0.083176477,0.2014,,,,,,51,0,51,0,1,,,,,
,,358388,001,2023-07-31_19h44.41.058,arm3_eps,2022.2.5,Win32,119.3887297,613615da1eacf6204ce33479,64c7fed44a04f777bb1e18ce,64c80104b18bac10c73ca05a,down,1,0.75,0.05,4,0,0.6181,,,,,,52,0,52,0,1,,,,,
,,358388,001,2023-07-31_19h44.41.058,arm3_eps,2022.2.5,Win32,119.3887297,613615da1eacf6204ce33479,64c7fed44a04f777bb1e18ce,64c80104b18bac10c73ca05a,right,1,0.75,0.05,4,0.017535968,0.7286,,,,,,53,0,53,0,1,,,,,
,,358388,001,2023-07-31_19h44.41.058,arm3_eps,2022.2.5,Win32,119.3887297,613615da1eacf6204ce33479,64c7fed44a04f777bb1e18ce,64c80104b18bac10c73ca05a,right,1,0.75,0.05,4,0.051915609,0.1649,,,,,,54,0,54,0,1,,,,,
,,358388,001,2023-07-31_19h44.41.058,arm3_eps,2022.2.5,Win32,119.3887297,613615da1eacf6204ce33479,64c7fed44a04f777bb1e18ce,64c80104b18bac10c73ca05a,right,1,0.75,0.05,4,0.096297873,0.2182,,,,,,55,0,55,0,1,,,,,
,,358388,001,2023-07-31_19h44.41.058,arm3_eps,2022.2.5,Win32,119.3887297,613615da1eacf6204ce33479,64c7fed44a04f777bb1e18ce,64c80104b18bac10c73ca05a,up,1,0.75,0.05,5,0,0.6019,,,,,,56,0,56,0,1,,,,,
,,358388,001,2023-07-31_19h44.41.058,arm3_eps,2022.2.5,Win32,119.3887297,613615da1eacf6204ce33479,64c7fed44a04f777bb1e18ce,64c80104b18bac10c73ca05a,right,1,0.75,0.05,5,0.012010237,0.6804,,,,,,57,0,57,0,1,,,,,
,,358388,001,2023-07-31_19h44.41.058,arm3_eps,2022.2.5,Win32,119.3887297,613615da1eacf6204ce33479,64c7fed44a04f777bb1e18ce,64c80104b18bac10c73ca05a,right,1,0.75,0.05,5,0.001111193,0.1665,,,,,,58,0,58,0,1,,,,,
,,358388,001,2023-07-31_19h44.41.058,arm3_eps,2022.2.5,Win32,119.3887297,613615da1eacf6204ce33479,64c7fed44a04f777bb1e18ce,64c80104b18bac10c73ca05a,right,1,0.75,0.05,5,0.005670617,0.1763,,,,,,59,0,59,0,1,,,,,
,,358388,001,2023-07-31_19h44.41.058,arm3_eps,2022.2.5,Win32,119.3887297,613615da1eacf6204ce33479,64c7fed44a04f777bb1e18ce,64c80104b18bac10c73ca05a,up,1,0.75,0.05,6,0,0.5186,,,,,,60,0,60,0,1,,,,,
,,358388,001,2023-07-31_19h44.41.058,arm3_eps,2022.2.5,Win32,119.3887297,613615da1eacf6204ce33479,64c7fed44a04f777bb1e18ce,64c80104b18bac10c73ca05a,right,1,0.75,0.05,6,0.010206963,0.6163,,,,,,61,0,61,0,1,,,,,
,,358388,001,2023-07-31_19h44.41.058,arm3_eps,2022.2.5,Win32,119.3887297,613615da1eacf6204ce33479,64c7fed44a04f777bb1e18ce,64c80104b18bac10c73ca05a,right,1,0.75,0.05,6,0.042306665,0.1691,,,,,,62,0,62,0,1,,,,,
,,358388,001,2023-07-31_19h44.41.058,arm3_eps,2022.2.5,Win32,119.3887297,613615da1eacf6204ce33479,64c7fed44a04f777bb1e18ce,64c80104b18bac10c73ca05a,right,1,0.75,0.05,6,0.050687974,0.1836,,,,,,63,0,63,0,1,,,,,
,,358388,001,2023-07-31_19h44.41.058,arm3_eps,2022.2.5,Win32,119.3887297,613615da1eacf6204ce33479,64c7fed44a04f777bb1e18ce,64c80104b18bac10c73ca05a,up,1,0.75,0.05,7,0,0.4523,,,,,,64,0,64,0,1,,,,,
,,358388,001,2023-07-31_19h44.41.058,arm3_eps,2022.2.5,Win32,119.3887297,613615da1eacf6204ce33479,64c7fed44a04f777bb1e18ce,64c80104b18bac10c73ca05a,right,1,0.75,0.05,7,0.021640335,0.6163,,,,,,65,0,65,0,1,,,,,
,,358388,001,2023-07-31_19h44.41.058,arm3_eps,2022.2.5,Win32,119.3887297,613615da1eacf6204ce33479,64c7fed44a04f777bb1e18ce,64c80104b18bac10c73ca05a,right,1,0.75,0.05,7,0.069764863,0.1588,,,,,,66,0,66,0,1,,,,,
,,358388,001,2023-07-31_19h44.41.058,arm3_eps,2022.2.5,Win32,119.3887297,613615da1eacf6204ce33479,64c7fed44a04f777bb1e18ce,64c80104b18bac10c73ca05a,right,1,0.75,0.05,7,0.087736887,0.1399,,,,,,67,0,67,0,1,,,,,
,,358388,001,2023-07-31_19h44.41.058,arm3_eps,2022.2.5,Win32,119.3887297,613615da1eacf6204ce33479,64c7fed44a04f777bb1e18ce,64c80104b18bac10c73ca05a,up,1,0.75,0.05,8,0,0.3185,,,,,,68,0,68,0,1,,,,,
,,358388,001,2023-07-31_19h44.41.058,arm3_eps,2022.2.5,Win32,119.3887297,613615da1eacf6204ce33479,64c7fed44a04f777bb1e18ce,64c80104b18bac10c73ca05a,right,1,0.75,0.05,8,0.029079369,0.6397,,,,,,69,0,69,0,1,,,,,
,,358388,001,2023-07-31_19h44.41.058,arm3_eps,2022.2.5,Win32,119.3887297,613615da1eacf6204ce33479,64c7fed44a04f777bb1e18ce,64c80104b18bac10c73ca05a,right,1,0.75,0.05,8,0.045957861,0.1257,,,,,,70,0,70,0,1,,,,,
,,358388,001,2023-07-31_19h44.41.058,arm3_eps,2022.2.5,Win32,119.3887297,613615da1eacf6204ce33479,64c7fed44a04f777bb1e18ce,64c80104b18bac10c73ca05a,up,-1,0.75,0.05,9,0,0.3841,,,,,,71,0,71,0,1,,,,,
,,358388,001,2023-07-31_19h44.41.058,arm3_eps,2022.2.5,Win32,119.3887297,613615da1eacf6204ce33479,64c7fed44a04f777bb1e18ce,64c80104b18bac10c73ca05a,right,-1,0.75,0.05,9,-0.00401473,0.6124,,,,,,72,0,72,0,1,,,,,
,,358388,001,2023-07-31_19h44.41.058,arm3_eps,2022.2.5,Win32,119.3887297,613615da1eacf6204ce33479,64c7fed44a04f777bb1e18ce,64c80104b18bac10c73ca05a,right,-1,0.75,0.05,9,-0.004144915,0.1923,,,,,,73,0,73,0,1,,,,,
,,358388,001,2023-07-31_19h44.41.058,arm3_eps,2022.2.5,Win32,119.3887297,613615da1eacf6204ce33479,64c7fed44a04f777bb1e18ce,64c80104b18bac10c73ca05a,up,-1,0.75,0.05,9,0,0.6668,,,,,,74,0,74,0,1,,,,,
,,358388,001,2023-07-31_19h44.41.058,arm3_eps,2022.2.5,Win32,119.3887297,613615da1eacf6204ce33479,64c7fed44a04f777bb1e18ce,64c80104b18bac10c73ca05a,right,-1,0.75,0.05,9,-0.03588352,0.8135,,,,,,75,0,75,0,1,,,,,
,,358388,001,2023-07-31_19h44.41.058,arm3_eps,2022.2.5,Win32,119.3887297,613615da1eacf6204ce33479,64c7fed44a04f777bb1e18ce,64c80104b18bac10c73ca05a,right,-1,0.75,0.05,9,-0.03621414,0.1919,,,,,,76,0,76,0,1,,,,,
,,358388,001,2023-07-31_19h44.41.058,arm3_eps,2022.2.5,Win32,119.3887297,613615da1eacf6204ce33479,64c7fed44a04f777bb1e18ce,64c80104b18bac10c73ca05a,right,-1,0.75,0.05,9,-0.057096757,0.4753,,,,,,77,0,77,0,1,,,,,
,,358388,001,2023-07-31_19h44.41.058,arm3_eps,2022.2.5,Win32,119.3887297,613615da1eacf6204ce33479,64c7fed44a04f777bb1e18ce,64c80104b18bac10c73ca05a,up,-1,0.75,0.05,9,0,2.9169,,,,,,78,0,78,0,1,,,,,
,,358388,001,2023-07-31_19h44.41.058,arm3_eps,2022.2.5,Win32,119.3887297,613615da1eacf6204ce33479,64c7fed44a04f777bb1e18ce,64c80104b18bac10c73ca05a,right,-1,0.75,0.05,9,0.011201232,0.69,,,,,,79,0,79,0,1,,,,,
,,358388,001,2023-07-31_19h44.41.058,arm3_eps,2022.2.5,Win32,119.3887297,613615da1eacf6204ce33479,64c7fed44a04f777bb1e18ce,64c80104b18bac10c73ca05a,right,-1,0.75,0.05,9,0.005430798,0.2335,,,,,,80,0,80,0,1,,,,,
,,358388,001,2023-07-31_19h44.41.058,arm3_eps,2022.2.5,Win32,119.3887297,613615da1eacf6204ce33479,64c7fed44a04f777bb1e18ce,64c80104b18bac10c73ca05a,right,-1,0.75,0.05,9,0.012885239,0.3752,,,,,,81,0,81,0,1,,,,,
,,358388,001,2023-07-31_19h44.41.058,arm3_eps,2022.2.5,Win32,119.3887297,613615da1eacf6204ce33479,64c7fed44a04f777bb1e18ce,64c80104b18bac10c73ca05a,right,-1,0.75,0.05,9,0.021840528,2.0414,,,,,,82,0,82,0,1,,,,,
,,358388,001,2023-07-31_19h44.41.058,arm3_eps,2022.2.5,Win32,119.3887297,613615da1eacf6204ce33479,64c7fed44a04f777bb1e18ce,64c80104b18bac10c73ca05a,up,-1,0.75,0.05,8,0,0.8541,,,,,,83,0,83,0,1,,,,,
,,358388,001,2023-07-31_19h44.41.058,arm3_eps,2022.2.5,Win32,119.3887297,613615da1eacf6204ce33479,64c7fed44a04f777bb1e18ce,64c80104b18bac10c73ca05a,right,-1,0.75,0.05,8,-0.032666605,0.7694,,,,,,84,0,84,0,1,,,,,
,,358388,001,2023-07-31_19h44.41.058,arm3_eps,2022.2.5,Win32,119.3887297,613615da1eacf6204ce33479,64c7fed44a04f777bb1e18ce,64c80104b18bac10c73ca05a,right,-1,0.75,0.05,8,-0.048706874,0.1832,,,,,,85,0,85,0,1,,,,,
,,358388,001,2023-07-31_19h44.41.058,arm3_eps,2022.2.5,Win32,119.3887297,613615da1eacf6204ce33479,64c7fed44a04f777bb1e18ce,64c80104b18bac10c73ca05a,right,-1,0.75,0.05,8,-0.057047559,0.3039,,,,,,86,0,86,0,1,,,,,
,,358388,001,2023-07-31_19h44.41.058,arm3_eps,2022.2.5,Win32,119.3887297,613615da1eacf6204ce33479,64c7fed44a04f777bb1e18ce,64c80104b18bac10c73ca05a,right,-1,0.75,0.05,8,-0.093726283,0.2207,,,,,,87,0,87,0,1,,,,,
,,358388,001,2023-07-31_19h44.41.058,arm3_eps,2022.2.5,Win32,119.3887297,613615da1eacf6204ce33479,64c7fed44a04f777bb1e18ce,64c80104b18bac10c73ca05a,down,-1,0.75,0.05,9,0,0.9193,,,,,,88,0,88,0,1,,,,,
,,358388,001,2023-07-31_19h44.41.058,arm3_eps,2022.2.5,Win32,119.3887297,613615da1eacf6204ce33479,64c7fed44a04f777bb1e18ce,64c80104b18bac10c73ca05a,right,-1,0.75,0.05,9,-0.004921272,0.6695,,,,,,89,0,89,0,1,,,,,
,,358388,001,2023-07-31_19h44.41.058,arm3_eps,2022.2.5,Win32,119.3887297,613615da1eacf6204ce33479,64c7fed44a04f777bb1e18ce,64c80104b18bac10c73ca05a,right,-1,0.75,0.05,9,-0.003890277,0.1688,,,,,,90,0,90,0,1,,,,,
,,358388,001,2023-07-31_19h44.41.058,arm3_eps,2022.2.5,Win32,119.3887297,613615da1eacf6204ce33479,64c7fed44a04f777bb1e18ce,64c80104b18bac10c73ca05a,right,-1,0.75,0.05,9,-0.020807877,0.169,,,,,,91,0,91,0,1,,,,,
,,358388,001,2023-07-31_19h44.41.058,arm3_eps,2022.2.5,Win32,119.3887297,613615da1eacf6204ce33479,64c7fed44a04f777bb1e18ce,64c80104b18bac10c73ca05a,right,-1,0.75,0.05,9,-0.042994847,0.2685,,,,,,92,0,92,0,1,,,,,
,,358388,001,2023-07-31_19h44.41.058,arm3_eps,2022.2.5,Win32,119.3887297,613615da1eacf6204ce33479,64c7fed44a04f777bb1e18ce,64c80104b18bac10c73ca05a,down,-1,0.75,0.05,10,0,0.7203,,,,,,93,0,93,0,1,,,,,
,,358388,001,2023-07-31_19h44.41.058,arm3_eps,2022.2.5,Win32,119.3887297,613615da1eacf6204ce33479,64c7fed44a04f777bb1e18ce,64c80104b18bac10c73ca05a,right,-1,0.75,0.05,10,-0.003900688,0.6314,,,,,,94,0,94,0,1,,,,,
,,358388,001,2023-07-31_19h44.41.058,arm3_eps,2022.2.5,Win32,119.3887297,613615da1eacf6204ce33479,64c7fed44a04f777bb1e18ce,64c80104b18bac10c73ca05a,right,-1,0.75,0.05,10,-0.01264367,0.204,,,,,,95,0,95,0,1,,,,,
,,358388,001,2023-07-31_19h44.41.058,arm3_eps,2022.2.5,Win32,119.3887297,613615da1eacf6204ce33479,64c7fed44a04f777bb1e18ce,64c80104b18bac10c73ca05a,right,-1,0.75,0.05,10,-0.040764069,0.1575,,,,,,96,0,96,0,1,,,,,
,,358388,001,2023-07-31_19h44.41.058,arm3_eps,2022.2.5,Win32,119.3887297,613615da1eacf6204ce33479,64c7fed44a04f777bb1e18ce,64c80104b18bac10c73ca05a,right,-1,0.75,0.05,10,-0.051397477,0.2791,,,,,,97,0,97,0,1,,,,,
,,358388,001,2023-07-31_19h44.41.058,arm3_eps,2022.2.5,Win32,119.3887297,613615da1eacf6204ce33479,64c7fed44a04f777bb1e18ce,64c80104b18bac10c73ca05a,down,-1,0.75,0.05,10,0,0.5087,,,,,,98,0,98,0,1,,,,,
,,358388,001,2023-07-31_19h44.41.058,arm3_eps,2022.2.5,Win32,119.3887297,613615da1eacf6204ce33479,64c7fed44a04f777bb1e18ce,64c80104b18bac10c73ca05a,right,-1,0.75,0.05,10,-0.018009323,0.7249,,,,,,99,0,99,0,1,,,,,
,,358388,001,2023-07-31_19h44.41.058,arm3_eps,2022.2.5,Win32,119.3887297,613615da1eacf6204ce33479,64c7fed44a04f777bb1e18ce,64c80104b18bac10c73ca05a,right,-1,0.75,0.05,10,-0.020101271,0.1828,,,,,,100,0,100,0,1,,,,,
,,358388,001,2023-07-31_19h44.41.058,arm3_eps,2022.2.5,Win32,119.3887297,613615da1eacf6204ce33479,64c7fed44a04f777bb1e18ce,64c80104b18bac10c73ca05a,right,-1,0.75,0.05,10,-0.049915644,0.2406,,,,,,101,0,101,0,1,,,,,
,,358388,001,2023-07-31_19h44.41.058,arm3_eps,2022.2.5,Win32,119.3887297,613615da1eacf6204ce33479,64c7fed44a04f777bb1e18ce,64c80104b18bac10c73ca05a,right,-1,0.75,0.05,10,-0.093163297,0.5538,,,,,,102,0,102,0,1,,,,,
,,358388,001,2023-07-31_19h44.41.058,arm3_eps,2022.2.5,Win32,119.3887297,613615da1eacf6204ce33479,64c7fed44a04f777bb1e18ce,64c80104b18bac10c73ca05a,down,-1,0.75,0.05,11,0,1.1451,,,,,,103,0,103,0,1,,,,,
,,358388,001,2023-07-31_19h44.41.058,arm3_eps,2022.2.5,Win32,119.3887297,613615da1eacf6204ce33479,64c7fed44a04f777bb1e18ce,64c80104b18bac10c73ca05a,right,-1,0.75,0.05,11,-0.01806317,1.0662,,,,,,104,0,104,0,1,,,,,
,,358388,001,2023-07-31_19h44.41.058,arm3_eps,2022.2.5,Win32,119.3887297,613615da1eacf6204ce33479,64c7fed44a04f777bb1e18ce,64c80104b18bac10c73ca05a,right,-1,0.75,0.05,11,-0.01034149,0.1955,,,,,,105,0,105,0,1,,,,,
,,358388,001,2023-07-31_19h44.41.058,arm3_eps,2022.2.5,Win32,119.3887297,613615da1eacf6204ce33479,64c7fed44a04f777bb1e18ce,64c80104b18bac10c73ca05a,right,-1,0.75,0.05,11,-0.03775232,0.2698,,,,,,106,0,106,0,1,,,,,
,,358388,001,2023-07-31_19h44.41.058,arm3_eps,2022.2.5,Win32,119.3887297,613615da1eacf6204ce33479,64c7fed44a04f777bb1e18ce,64c80104b18bac10c73ca05a,right,-1,0.75,0.05,11,-0.065257562,0.282,,,,,,107,0,107,0,1,,,,,
,,358388,001,2023-07-31_19h44.41.058,arm3_eps,2022.2.5,Win32,119.3887297,613615da1eacf6204ce33479,64c7fed44a04f777bb1e18ce,64c80104b18bac10c73ca05a,down,-1,0.75,0.05,11,0,0.6422,,,,,,108,0,108,0,1,,,,,
,,358388,001,2023-07-31_19h44.41.058,arm3_eps,2022.2.5,Win32,119.3887297,613615da1eacf6204ce33479,64c7fed44a04f777bb1e18ce,64c80104b18bac10c73ca05a,right,-1,0.75,0.05,11,-0.014044608,2.2661,,,,,,109,0,109,0,1,,,,,
,,358388,001,2023-07-31_19h44.41.058,arm3_eps,2022.2.5,Win32,119.3887297,613615da1eacf6204ce33479,64c7fed44a04f777bb1e18ce,64c80104b18bac10c73ca05a,right,-1,0.75,0.05,11,-0.037850372,0.1898,,,,,,110,0,110,0,1,,,,,
,,358388,001,2023-07-31_19h44.41.058,arm3_eps,2022.2.5,Win32,119.3887297,613615da1eacf6204ce33479,64c7fed44a04f777bb1e18ce,64c80104b18bac10c73ca05a,right,-1,0.75,0.05,11,-0.054696974,0.2532,,,,,,111,0,111,0,1,,,,,
,,358388,001,2023-07-31_19h44.41.058,arm3_eps,2022.2.5,Win32,119.3887297,613615da1eacf6204ce33479,64c7fed44a04f777bb1e18ce,64c80104b18bac10c73ca05a,right,-1,0.75,0.05,11,-0.062322372,0.5556,,,,,,112,0,112,0,1,,,,,
,,358388,001,2023-07-31_19h44.41.058,arm3_eps,2022.2.5,Win32,119.3887297,613615da1eacf6204ce33479,64c7fed44a04f777bb1e18ce,64c80104b18bac10c73ca05a,down,-1,0.75,0.05,12,0,0.7416,,,,,,113,0,113,0,1,,,,,
,,358388,001,2023-07-31_19h44.41.058,arm3_eps,2022.2.5,Win32,119.3887297,613615da1eacf6204ce33479,64c7fed44a04f777bb1e18ce,64c80104b18bac10c73ca05a,right,-1,0.75,0.05,12,-0.00623531,0.7633,,,,,,114,0,114,0,1,,,,,
,,358388,001,2023-07-31_19h44.41.058,arm3_eps,2022.2.5,Win32,119.3887297,613615da1eacf6204ce33479,64c7fed44a04f777bb1e18ce,64c80104b18bac10c73ca05a,right,-1,0.75,0.05,12,-0.033456684,0.2014,,,,,,115,0,115,0,1,,,,,
,,358388,001,2023-07-31_19h44.41.058,arm3_eps,2022.2.5,Win32,119.3887297,613615da1eacf6204ce33479,64c7fed44a04f777bb1e18ce,64c80104b18bac10c73ca05a,right,-1,0.75,0.05,12,-0.00139029,0.2078,,,,,,116,0,116,0,1,,,,,
,,358388,001,2023-07-31_19h44.41.058,arm3_eps,2022.2.5,Win32,119.3887297,613615da1eacf6204ce33479,64c7fed44a04f777bb1e18ce,64c80104b18bac10c73ca05a,right,-1,0.75,0.05,12,-0.017394416,0.3024,,,,,,117,0,117,0,1,,,,,
,,358388,001,2023-07-31_19h44.41.058,arm3_eps,2022.2.5,Win32,119.3887297,613615da1eacf6204ce33479,64c7fed44a04f777bb1e18ce,64c80104b18bac10c73ca05a,up,-1,0.75,0.05,11,0,0.4587,,,,,,118,0,118,0,1,,,,,
,,358388,001,2023-07-31_19h44.41.058,arm3_eps,2022.2.5,Win32,119.3887297,613615da1eacf6204ce33479,64c7fed44a04f777bb1e18ce,64c80104b18bac10c73ca05a,right,-1,0.75,0.05,11,-0.010724439,0.6887,,,,,,119,0,119,0,1,,,,,
,,358388,001,2023-07-31_19h44.41.058,arm3_eps,2022.2.5,Win32,119.3887297,613615da1eacf6204ce33479,64c7fed44a04f777bb1e18ce,64c80104b18bac10c73ca05a,right,-1,0.75,0.05,11,-0.025827225,0.1517,,,,,,120,0,120,0,1,,,,,
,,358388,001,2023-07-31_19h44.41.058,arm3_eps,2022.2.5,Win32,119.3887297,613615da1eacf6204ce33479,64c7fed44a04f777bb1e18ce,64c80104b18bac10c73ca05a,right,-1,0.75,0.05,11,-0.037845073,0.2198,,,,,,121,0,121,0,1,,,,,
,,358388,001,2023-07-31_19h44.41.058,arm3_eps,2022.2.5,Win32,119.3887297,613615da1eacf6204ce33479,64c7fed44a04f777bb1e18ce,64c80104b18bac10c73ca05a,right,-1,0.75,0.05,11,-0.016742222,0.269,,,,,,122,0,122,0,1,,,,,
,,358388,001,2023-07-31_19h44.41.058,arm3_eps,2022.2.5,Win32,119.3887297,613615da1eacf6204ce33479,64c7fed44a04f777bb1e18ce,64c80104b18bac10c73ca05a,up,-1,0.75,0.05,10,0,0.3188,,,,,,123,0,123,0,1,,,,,
,,358388,001,2023-07-31_19h44.41.058,arm3_eps,2022.2.5,Win32,119.3887297,613615da1eacf6204ce33479,64c7fed44a04f777bb1e18ce,64c80104b18bac10c73ca05a,right,-1,0.75,0.05,10,-0.016675346,0.7064,,,,,,124,0,124,0,1,,,,,
,,358388,001,2023-07-31_19h44.41.058,arm3_eps,2022.2.5,Win32,119.3887297,613615da1eacf6204ce33479,64c7fed44a04f777bb1e18ce,64c80104b18bac10c73ca05a,right,-1,0.75,0.05,10,-0.040372784,0.152,,,,,,125,0,125,0,1,,,,,
,,358388,001,2023-07-31_19h44.41.058,arm3_eps,2022.2.5,Win32,119.3887297,613615da1eacf6204ce33479,64c7fed44a04f777bb1e18ce,64c80104b18bac10c73ca05a,right,-1,0.75,0.05,10,-0.05942237,0.1935,,,,,,126,0,126,0,1,,,,,
,,358388,001,2023-07-31_19h44.41.058,arm3_eps,2022.2.5,Win32,119.3887297,613615da1eacf6204ce33479,64c7fed44a04f777bb1e18ce,64c80104b18bac10c73ca05a,right,-1,0.75,0.05,10,-0.098728715,0.2591,,,,,,127,0,127,0,1,,,,,
,,358388,001,2023-07-31_19h44.41.058,arm3_eps,2022.2.5,Win32,119.3887297,613615da1eacf6204ce33479,64c7fed44a04f777bb1e18ce,64c80104b18bac10c73ca05a,down,-1,0.75,0.05,11,0,0.3924,,,,,,128,0,128,0,1,,,,,
,,358388,001,2023-07-31_19h44.41.058,arm3_eps,2022.2.5,Win32,119.3887297,613615da1eacf6204ce33479,64c7fed44a04f777bb1e18ce,64c80104b18bac10c73ca05a,right,-1,0.75,0.05,11,0.005376218,0.5901,,,,,,129,0,129,0,1,,,,,
,,358388,001,2023-07-31_19h44.41.058,arm3_eps,2022.2.5,Win32,119.3887297,613615da1eacf6204ce33479,64c7fed44a04f777bb1e18ce,64c80104b18bac10c73ca05a,right,-1,0.75,0.05,11,-0.002757549,0.1517,,,,,,130,0,130,0,1,,,,,
,,358388,001,2023-07-31_19h44.41.058,arm3_eps,2022.2.5,Win32,119.3887297,613615da1eacf6204ce33479,64c7fed44a04f777bb1e18ce,64c80104b18bac10c73ca05a,right,-1,0.75,0.05,11,-0.03065641,0.1672,,,,,,131,0,131,0,1,,,,,
,,358388,001,2023-07-31_19h44.41.058,arm3_eps,2022.2.5,Win32,119.3887297,613615da1eacf6204ce33479,64c7fed44a04f777bb1e18ce,64c80104b18bac10c73ca05a,right,-1,0.75,0.05,11,-0.024205606,0.2933,,,,,,132,0,132,0,1,,,,,
,,358388,001,2023-07-31_19h44.41.058,arm3_eps,2022.2.5,Win32,119.3887297,613615da1eacf6204ce33479,64c7fed44a04f777bb1e18ce,64c80104b18bac10c73ca05a,down,-1,0.75,0.05,12,0,0.4563,,,,,,133,0,133,0,1,,,,,
,,358388,001,2023-07-31_19h44.41.058,arm3_eps,2022.2.5,Win32,119.3887297,613615da1eacf6204ce33479,64c7fed44a04f777bb1e18ce,64c80104b18bac10c73ca05a,right,-1,0.75,0.05,12,0.001363882,0.6254,,,,,,134,0,134,0,1,,,,,
,,358388,001,2023-07-31_19h44.41.058,arm3_eps,2022.2.5,Win32,119.3887297,613615da1eacf6204ce33479,64c7fed44a04f777bb1e18ce,64c80104b18bac10c73ca05a,right,-1,0.75,0.05,12,0.021860341,0.1432,,,,,,135,0,135,0,1,,,,,
,,358388,001,2023-07-31_19h44.41.058,arm3_eps,2022.2.5,Win32,119.3887297,613615da1eacf6204ce33479,64c7fed44a04f777bb1e18ce,64c80104b18bac10c73ca05a,right,-1,0.75,0.05,12,-0.001059183,0.1689,,,,,,136,0,136,0,1,,,,,
,,358388,001,2023-07-31_19h44.41.058,arm3_eps,2022.2.5,Win32,119.3887297,613615da1eacf6204ce33479,64c7fed44a04f777bb1e18ce,64c80104b18bac10c73ca05a,right,-1,0.75,0.05,12,-0.010371213,0.2678,,,,,,137,0,137,0,1,,,,,
,,358388,001,2023-07-31_19h44.41.058,arm3_eps,2022.2.5,Win32,119.3887297,613615da1eacf6204ce33479,64c7fed44a04f777bb1e18ce,64c80104b18bac10c73ca05a,right,-1,0.75,0.05,12,-0.018261717,0.258,,,,,,138,0,138,0,1,,,,,
,,358388,001,2023-07-31_19h44.41.058,arm3_eps,2022.2.5,Win32,119.3887297,613615da1eacf6204ce33479,64c7fed44a04f777bb1e18ce,64c80104b18bac10c73ca05a,up,-1,0.75,0.05,11,0,0.4763,,,,,,139,0,139,0,1,,,,,
,,358388,001,2023-07-31_19h44.41.058,arm3_eps,2022.2.5,Win32,119.3887297,613615da1eacf6204ce33479,64c7fed44a04f777bb1e18ce,64c80104b18bac10c73ca05a,right,-1,0.75,0.05,11,-0.008227472,0.5795,,,,,,140,0,140,0,1,,,,,
,,358388,001,2023-07-31_19h44.41.058,arm3_eps,2022.2.5,Win32,119.3887297,613615da1eacf6204ce33479,64c7fed44a04f777bb1e18ce,64c80104b18bac10c73ca05a,right,-1,0.75,0.05,11,-0.011224937,0.1512,,,,,,141,0,141,0,1,,,,,
,,358388,001,2023-07-31_19h44.41.058,arm3_eps,2022.2.5,Win32,119.3887297,613615da1eacf6204ce33479,64c7fed44a04f777bb1e18ce,64c80104b18bac10c73ca05a,right,-1,0.75,0.05,11,0.006225774,0.1592,,,,,,142,0,142,0,1,,,,,
,,358388,001,2023-07-31_19h44.41.058,arm3_eps,2022.2.5,Win32,119.3887297,613615da1eacf6204ce33479,64c7fed44a04f777bb1e18ce,64c80104b18bac10c73ca05a,right,-1,0.75,0.05,11,-0.013057683,0.2763,,,,,,143,0,143,0,1,,,,,
,,358388,001,2023-07-31_19h44.41.058,arm3_eps,2022.2.5,Win32,119.3887297,613615da1eacf6204ce33479,64c7fed44a04f777bb1e18ce,64c80104b18bac10c73ca05a,right,-1,0.75,0.05,11,-0.026117793,0.1927,,,,,,144,0,144,0,1,,,,,
,,358388,001,2023-07-31_19h44.41.058,arm3_eps,2022.2.5,Win32,119.3887297,613615da1eacf6204ce33479,64c7fed44a04f777bb1e18ce,64c80104b18bac10c73ca05a,up,-1,0.75,0.05,10,0,0.4431,,,,,,145,0,145,0,1,,,,,
,,358388,001,2023-07-31_19h44.41.058,arm3_eps,2022.2.5,Win32,119.3887297,613615da1eacf6204ce33479,64c7fed44a04f777bb1e18ce,64c80104b18bac10c73ca05a,right,-1,0.75,0.05,10,-0.025858179,0.6912,,,,,,146,0,146,0,1,,,,,
,,358388,001,2023-07-31_19h44.41.058,arm3_eps,2022.2.5,Win32,119.3887297,613615da1eacf6204ce33479,64c7fed44a04f777bb1e18ce,64c80104b18bac10c73ca05a,right,-1,0.75,0.05,10,-0.010247988,0.1679,,,,,,147,0,147,0,1,,,,,
,,358388,001,2023-07-31_19h44.41.058,arm3_eps,2022.2.5,Win32,119.3887297,613615da1eacf6204ce33479,64c7fed44a04f777bb1e18ce,64c80104b18bac10c73ca05a,right,-1,0.75,0.05,10,-0.03280261,0.21,,,,,,148,0,148,0,1,,,,,
,,358388,001,2023-07-31_19h44.41.058,arm3_eps,2022.2.5,Win32,119.3887297,613615da1eacf6204ce33479,64c7fed44a04f777bb1e18ce,64c80104b18bac10c73ca05a,right,-1,0.75,0.05,10,-0.022052054,0.3146,,,,,,149,0,149,0,1,,,,,
,,358388,001,2023-07-31_19h44.41.058,arm3_eps,2022.2.5,Win32,119.3887297,613615da1eacf6204ce33479,64c7fed44a04f777bb1e18ce,64c80104b18bac10c73ca05a,up,-1,0.75,0.05,9,0,0.8276,,,,,,150,0,150,0,1,,,,,
,,358388,001,2023-07-31_19h44.41.058,arm3_eps,2022.2.5,Win32,119.3887297,613615da1eacf6204ce33479,64c7fed44a04f777bb1e18ce,64c80104b18bac10c73ca05a,right,-1,0.75,0.05,9,0.029548081,0.5799,,,,,,151,0,151,0,1,,,,,
,,358388,001,2023-07-31_19h44.41.058,arm3_eps,2022.2.5,Win32,119.3887297,613615da1eacf6204ce33479,64c7fed44a04f777bb1e18ce,64c80104b18bac10c73ca05a,right,-1,0.75,0.05,9,0.016666248,0.1764,,,,,,152,0,152,0,1,,,,,
,,358388,001,2023-07-31_19h44.41.058,arm3_eps,2022.2.5,Win32,119.3887297,613615da1eacf6204ce33479,64c7fed44a04f777bb1e18ce,64c80104b18bac10c73ca05a,right,-1,0.75,0.05,9,0.030287163,0.1844,,,,,,153,0,153,0,1,,,,,
,,358388,001,2023-07-31_19h44.41.058,arm3_eps,2022.2.5,Win32,119.3887297,613615da1eacf6204ce33479,64c7fed44a04f777bb1e18ce,64c80104b18bac10c73ca05a,right,-1,0.75,0.05,9,0.020545004,0.2769,,,,,,154,0,154,0,1,,,,,
,,358388,001,2023-07-31_19h44.41.058,arm3_eps,2022.2.5,Win32,119.3887297,613615da1eacf6204ce33479,64c7fed44a04f777bb1e18ce,64c80104b18bac10c73ca05a,up,-1,0.75,0.05,8,0,0.4312,,,,,,155,0,155,0,1,,,,,
,,358388,001,2023-07-31_19h44.41.058,arm3_eps,2022.2.5,Win32,119.3887297,613615da1eacf6204ce33479,64c7fed44a04f777bb1e18ce,64c80104b18bac10c73ca05a,right,-1,0.75,0.05,8,-0.012318806,0.5997,,,,,,156,0,156,0,1,,,,,
,,358388,001,2023-07-31_19h44.41.058,arm3_eps,2022.2.5,Win32,119.3887297,613615da1eacf6204ce33479,64c7fed44a04f777bb1e18ce,64c80104b18bac10c73ca05a,right,-1,0.75,0.05,8,-0.015344473,0.1586,,,,,,157,0,157,0,1,,,,,
,,358388,001,2023-07-31_19h44.41.058,arm3_eps,2022.2.5,Win32,119.3887297,613615da1eacf6204ce33479,64c7fed44a04f777bb1e18ce,64c80104b18bac10c73ca05a,right,-1,0.75,0.05,8,-0.026185335,0.191,,,,,,158,0,158,0,1,,,,,
,,358388,001,2023-07-31_19h44.41.058,arm3_eps,2022.2.5,Win32,119.3887297,613615da1eacf6204ce33479,64c7fed44a04f777bb1e18ce,64c80104b18bac10c73ca05a,right,-1,0.75,0.05,8,-0.03813673,0.2399,,,,,,159,0,159,0,1,,,,,
,,358388,001,2023-07-31_19h44.41.058,arm3_eps,2022.2.5,Win32,119.3887297,613615da1eacf6204ce33479,64c7fed44a04f777bb1e18ce,64c80104b18bac10c73ca05a,down,-1,0.75,0.05,8,0,0.7016,,,,,,160,0,160,0,1,,,,,
,,358388,001,2023-07-31_19h44.41.058,arm3_eps,2022.2.5,Win32,119.3887297,613615da1eacf6204ce33479,64c7fed44a04f777bb1e18ce,64c80104b18bac10c73ca05a,right,-1,0.75,0.05,8,0.000608824,0.7918,,,,,,161,0,161,0,1,,,,,
,,358388,001,2023-07-31_19h44.41.058,arm3_eps,2022.2.5,Win32,119.3887297,613615da1eacf6204ce33479,64c7fed44a04f777bb1e18ce,64c80104b18bac10c73ca05a,right,-1,0.75,0.05,8,0.00787543,0.1806,,,,,,162,0,162,0,1,,,,,
,,358388,001,2023-07-31_19h44.41.058,arm3_eps,2022.2.5,Win32,119.3887297,613615da1eacf6204ce33479,64c7fed44a04f777bb1e18ce,64c80104b18bac10c73ca05a,right,-1,0.75,0.05,8,0.003116742,0.2251,,,,,,163,0,163,0,1,,,,,
,,358388,001,2023-07-31_19h44.41.058,arm3_eps,2022.2.5,Win32,119.3887297,613615da1eacf6204ce33479,64c7fed44a04f777bb1e18ce,64c80104b18bac10c73ca05a,right,-1,0.75,0.05,8,0.007968459,0.2898,,,,,,164,0,164,0,1,,,,,
,,358388,001,2023-07-31_19h44.41.058,arm3_eps,2022.2.5,Win32,119.3887297,613615da1eacf6204ce33479,64c7fed44a04f777bb1e18ce,64c80104b18bac10c73ca05a,down,-1,0.75,0.05,8,0,0.8176,,,,,,165,0,165,0,1,,,,,
,,358388,001,2023-07-31_19h44.41.058,arm3_eps,2022.2.5,Win32,119.3887297,613615da1eacf6204ce33479,64c7fed44a04f777bb1e18ce,64c80104b18bac10c73ca05a,right,-1,0.75,0.05,8,-0.014783705,0.7886,,,,,,166,0,166,0,1,,,,,
,,358388,001,2023-07-31_19h44.41.058,arm3_eps,2022.2.5,Win32,119.3887297,613615da1eacf6204ce33479,64c7fed44a04f777bb1e18ce,64c80104b18bac10c73ca05a,right,-1,0.75,0.05,8,-0.011940446,0.1509,,,,,,167,0,167,0,1,,,,,
,,358388,001,2023-07-31_19h44.41.058,arm3_eps,2022.2.5,Win32,119.3887297,613615da1eacf6204ce33479,64c7fed44a04f777bb1e18ce,64c80104b18bac10c73ca05a,right,-1,0.75,0.05,8,-0.031577256,0.1673,,,,,,168,0,168,0,1,,,,,
,,358388,001,2023-07-31_19h44.41.058,arm3_eps,2022.2.5,Win32,119.3887297,613615da1eacf6204ce33479,64c7fed44a04f777bb1e18ce,64c80104b18bac10c73ca05a,right,-1,0.75,0.05,8,-0.019427647,0.2675,,,,,,169,0,169,0,1,,,,,
,,358388,001,2023-07-31_19h44.41.058,arm3_eps,2022.2.5,Win32,119.3887297,613615da1eacf6204ce33479,64c7fed44a04f777bb1e18ce,64c80104b18bac10c73ca05a,down,-1,0.75,0.05,8,0,0.6545,,,,,,170,0,170,0,1,,,,,
,,358388,001,2023-07-31_19h44.41.058,arm3_eps,2022.2.5,Win32,119.3887297,613615da1eacf6204ce33479,64c7fed44a04f777bb1e18ce,64c80104b18bac10c73ca05a,right,-1,0.75,0.05,8,-0.015723218,0.6327,,,,,,171,0,171,0,1,,,,,
,,358388,001,2023-07-31_19h44.41.058,arm3_eps,2022.2.5,Win32,119.3887297,613615da1eacf6204ce33479,64c7fed44a04f777bb1e18ce,64c80104b18bac10c73ca05a,right,-1,0.75,0.05,8,-0.015067117,0.1801,,,,,,172,0,172,0,1,,,,,
,,358388,001,2023-07-31_19h44.41.058,arm3_eps,2022.2.5,Win32,119.3887297,613615da1eacf6204ce33479,64c7fed44a04f777bb1e18ce,64c80104b18bac10c73ca05a,right,-1,0.75,0.05,8,-0.032035998,0.1844,,,,,,173,0,173,0,1,,,,,
,,358388,001,2023-07-31_19h44.41.058,arm3_eps,2022.2.5,Win32,119.3887297,613615da1eacf6204ce33479,64c7fed44a04f777bb1e18ce,64c80104b18bac10c73ca05a,right,-1,0.75,0.05,8,-0.03489244,0.1797,,,,,,174,0,174,0,1,,,,,
,,358388,001,2023-07-31_19h44.41.058,arm3_eps,2022.2.5,Win32,119.3887297,613615da1eacf6204ce33479,64c7fed44a04f777bb1e18ce,64c80104b18bac10c73ca05a,right,-1,0.75,0.05,8,-0.053737402,1.2459,,,,,,175,0,175,0,1,,,,,
,,358388,001,2023-07-31_19h44.41.058,arm3_eps,2022.2.5,Win32,119.3887297,613615da1eacf6204ce33479,64c7fed44a04f777bb1e18ce,64c80104b18bac10c73ca05a,down,-1,0.75,0.05,9,0,0.5343,,,,,,176,0,176,0,1,,,,,
,,358388,001,2023-07-31_19h44.41.058,arm3_eps,2022.2.5,Win32,119.3887297,613615da1eacf6204ce33479,64c7fed44a04f777bb1e18ce,64c80104b18bac10c73ca05a,right,-1,0.75,0.05,9,8.65014E-05,0.8527,,,,,,177,0,177,0,1,,,,,
,,358388,001,2023-07-31_19h44.41.058,arm3_eps,2022.2.5,Win32,119.3887297,613615da1eacf6204ce33479,64c7fed44a04f777bb1e18ce,64c80104b18bac10c73ca05a,right,-1,0.75,0.05,9,-0.016659545,0.1712,,,,,,178,0,178,0,1,,,,,
,,358388,001,2023-07-31_19h44.41.058,arm3_eps,2022.2.5,Win32,119.3887297,613615da1eacf6204ce33479,64c7fed44a04f777bb1e18ce,64c80104b18bac10c73ca05a,right,-1,0.75,0.05,9,-0.021301315,0.1592,,,,,,179,0,179,0,1,,,,,
,,358388,001,2023-07-31_19h44.41.058,arm3_eps,2022.2.5,Win32,119.3887297,613615da1eacf6204ce33479,64c7fed44a04f777bb1e18ce,64c80104b18bac10c73ca05a,right,-1,0.75,0.05,9,-0.034040671,0.204,,,,,,180,0,180,0,1,,,,,
,,358388,001,2023-07-31_19h44.41.058,arm3_eps,2022.2.5,Win32,119.3887297,613615da1eacf6204ce33479,64c7fed44a04f777bb1e18ce,64c80104b18bac10c73ca05a,down,-1,0.75,0.05,10,0,0.7086,,,,,,181,0,181,0,1,,,,,
,,358388,001,2023-07-31_19h44.41.058,arm3_eps,2022.2.5,Win32,119.3887297,613615da1eacf6204ce33479,64c7fed44a04f777bb1e18ce,64c80104b18bac10c73ca05a,right,-1,0.75,0.05,10,-0.022194177,0.5915,,,,,,182,0,182,0,1,,,,,
,,358388,001,2023-07-31_19h44.41.058,arm3_eps,2022.2.5,Win32,119.3887297,613615da1eacf6204ce33479,64c7fed44a04f777bb1e18ce,64c80104b18bac10c73ca05a,right,-1,0.75,0.05,10,-0.054332642,0.1533,,,,,,183,0,183,0,1,,,,,
,,358388,001,2023-07-31_19h44.41.058,arm3_eps,2022.2.5,Win32,119.3887297,613615da1eacf6204ce33479,64c7fed44a04f777bb1e18ce,64c80104b18bac10c73ca05a,right,-1,0.75,0.05,10,-0.06082889,0.158,,,,,,184,0,184,0,1,,,,,
,,358388,001,2023-07-31_19h44.41.058,arm3_eps,2022.2.5,Win32,119.3887297,613615da1eacf6204ce33479,64c7fed44a04f777bb1e18ce,64c80104b18bac10c73ca05a,right,-1,0.75,0.05,10,-0.077373151,0.1681,,,,,,185,0,185,0,1,,,,,
,,358388,001,2023-07-31_19h44.41.058,arm3_eps,2022.2.5,Win32,119.3887297,613615da1eacf6204ce33479,64c7fed44a04f777bb1e18ce,64c80104b18bac10c73ca05a,down,-1,0.75,0.05,11,0,0.4033,,,,,,186,0,186,0,1,,,,,
,,358388,001,2023-07-31_19h44.41.058,arm3_eps,2022.2.5,Win32,119.3887297,613615da1eacf6204ce33479,64c7fed44a04f777bb1e18ce,64c80104b18bac10c73ca05a,right,-1,0.75,0.05,11,-0.026544938,0.5674,,,,,,187,0,187,0,1,,,,,
,,358388,001,2023-07-31_19h44.41.058,arm3_eps,2022.2.5,Win32,119.3887297,613615da1eacf6204ce33479,64c7fed44a04f777bb1e18ce,64c80104b18bac10c73ca05a,right,-1,0.75,0.05,11,-0.043756873,0.1459,,,,,,188,0,188,0,1,,,,,
,,358388,001,2023-07-31_19h44.41.058,arm3_eps,2022.2.5,Win32,119.3887297,613615da1eacf6204ce33479,64c7fed44a04f777bb1e18ce,64c80104b18bac10c73ca05a,right,-1,0.75,0.05,11,-0.058182961,0.1449,,,,,,189,0,189,0,1,,,,,
,,358388,001,2023-07-31_19h44.41.058,arm3_eps,2022.2.5,Win32,119.3887297,613615da1eacf6204ce33479,64c7fed44a04f777bb1e18ce,64c80104b18bac10c73ca05a,right,-1,0.75,0.05,11,-0.04181268,0.1709,,,,,,190,0,190,0,1,,,,,
,,358388,001,2023-07-31_19h44.41.058,arm3_eps,2022.2.5,Win32,119.3887297,613615da1eacf6204ce33479,64c7fed44a04f777bb1e18ce,64c80104b18bac10c73ca05a,down,-1,0.75,0.05,12,0,1.0078,,,,,,191,0,191,0,1,,,,,
,,358388,001,2023-07-31_19h44.41.058,arm3_eps,2022.2.5,Win32,119.3887297,613615da1eacf6204ce33479,64c7fed44a04f777bb1e18ce,64c80104b18bac10c73ca05a,right,-1,0.75,0.05,12,-0.046054081,0.5384,,,,,,192,0,192,0,1,,,,,
,,358388,001,2023-07-31_19h44.41.058,arm3_eps,2022.2.5,Win32,119.3887297,613615da1eacf6204ce33479,64c7fed44a04f777bb1e18ce,64c80104b18bac10c73ca05a,right,-1,0.75,0.05,12,-0.040797907,0.1669,,,,,,193,0,193,0,1,,,,,
,,358388,001,2023-07-31_19h44.41.058,arm3_eps,2022.2.5,Win32,119.3887297,613615da1eacf6204ce33479,64c7fed44a04f777bb1e18ce,64c80104b18bac10c73ca05a,right,-1,0.75,0.05,12,-0.045696837,0.1424,,,,,,194,0,194,0,1,,,,,
,,358388,001,2023-07-31_19h44.41.058,arm3_eps,2022.2.5,Win32,119.3887297,613615da1eacf6204ce33479,64c7fed44a04f777bb1e18ce,64c80104b18bac10c73ca05a,right,-1,0.75,0.05,12,-0.056876069,0.166,,,,,,195,0,195,0,1,,,,,
,,358388,001,2023-07-31_19h44.41.058,arm3_eps,2022.2.5,Win32,119.3887297,613615da1eacf6204ce33479,64c7fed44a04f777bb1e18ce,64c80104b18bac10c73ca05a,down,1,0.75,0.05,13,0,1.1409,,,,,,196,0,196,0,1,,,,,
,,358388,001,2023-07-31_19h44.41.058,arm3_eps,2022.2.5,Win32,119.3887297,613615da1eacf6204ce33479,64c7fed44a04f777bb1e18ce,64c80104b18bac10c73ca05a,right,1,0.75,0.05,13,0.022076663,0.528,,,,,,197,0,197,0,1,,,,,
,,358388,001,2023-07-31_19h44.41.058,arm3_eps,2022.2.5,Win32,119.3887297,613615da1eacf6204ce33479,64c7fed44a04f777bb1e18ce,64c80104b18bac10c73ca05a,right,1,0.75,0.05,13,0.019677036,0.1581,,,,,,198,0,198,0,1,,,,,
,,358388,001,2023-07-31_19h44.41.058,arm3_eps,2022.2.5,Win32,119.3887297,613615da1eacf6204ce33479,64c7fed44a04f777bb1e18ce,64c80104b18bac10c73ca05a,right,1,0.75,0.05,13,0.020013146,0.1415,,,,,,199,0,199,0,1,,,,,
,,358388,001,2023-07-31_19h44.41.058,arm3_eps,2022.2.5,Win32,119.3887297,613615da1eacf6204ce33479,64c7fed44a04f777bb1e18ce,64c80104b18bac10c73ca05a,right,1,0.75,0.05,13,0.036220879,0.1539,,,,,,200,0,200,0,1,,,,,
,,358388,001,2023-07-31_19h44.41.058,arm3_eps,2022.2.5,Win32,119.3887297,613615da1eacf6204ce33479,64c7fed44a04f777bb1e18ce,64c80104b18bac10c73ca05a,up,1,0.75,0.05,14,0,0.5213,,,,,,201,0,201,0,1,,,,,
,,358388,001,2023-07-31_19h44.41.058,arm3_eps,2022.2.5,Win32,119.3887297,613615da1eacf6204ce33479,64c7fed44a04f777bb1e18ce,64c80104b18bac10c73ca05a,right,1,0.75,0.05,14,0.013556206,0.5692,,,,,,202,0,202,0,1,,,,,
,,358388,001,2023-07-31_19h44.41.058,arm3_eps,2022.2.5,Win32,119.3887297,613615da1eacf6204ce33479,64c7fed44a04f777bb1e18ce,64c80104b18bac10c73ca05a,right,1,0.75,0.05,14,0.027856036,0.1578,,,,,,203,0,203,0,1,,,,,
,,358388,001,2023-07-31_19h44.41.058,arm3_eps,2022.2.5,Win32,119.3887297,613615da1eacf6204ce33479,64c7fed44a04f777bb1e18ce,64c80104b18bac10c73ca05a,right,1,0.75,0.05,14,0.036825978,0.1661,,,,,,204,0,204,0,1,,,,,
,,358388,001,2023-07-31_19h44.41.058,arm3_eps,2022.2.5,Win32,119.3887297,613615da1eacf6204ce33479,64c7fed44a04f777bb1e18ce,64c80104b18bac10c73ca05a,right,1,0.75,0.05,14,0.058662855,0.1677,,,,,,205,0,205,0,1,,,,,
,,358388,001,2023-07-31_19h44.41.058,arm3_eps,2022.2.5,Win32,119.3887297,613615da1eacf6204ce33479,64c7fed44a04f777bb1e18ce,64c80104b18bac10c73ca05a,up,1,0.75,0.05,14,0,0.4529,,,,,,206,0,206,0,1,,,,,
,,358388,001,2023-07-31_19h44.41.058,arm3_eps,2022.2.5,Win32,119.3887297,613615da1eacf6204ce33479,64c7fed44a04f777bb1e18ce,64c80104b18bac10c73ca05a,right,1,0.75,0.05,14,0.057974784,0.6427,,,,,,207,0,207,0,1,,,,,
,,358388,001,2023-07-31_19h44.41.058,arm3_eps,2022.2.5,Win32,119.3887297,613615da1eacf6204ce33479,64c7fed44a04f777bb1e18ce,64c80104b18bac10c73ca05a,right,1,0.75,0.05,14,0.052268538,0.1574,,,,,,208,0,208,0,1,,,,,
,,358388,001,2023-07-31_19h44.41.058,arm3_eps,2022.2.5,Win32,119.3887297,613615da1eacf6204ce33479,64c7fed44a04f777bb1e18ce,64c80104b18bac10c73ca05a,right,1,0.75,0.05,14,0.07401618,0.1779,,,,,,209,0,209,0,1,,,,,
,,358388,001,2023-07-31_19h44.41.058,arm3_eps,2022.2.5,Win32,119.3887297,613615da1eacf6204ce33479,64c7fed44a04f777bb1e18ce,64c80104b18bac10c73ca05a,right,1,0.75,0.05,14,0.033768486,0.3333,,,,,,210,0,210,0,1,,,,,
,,358388,001,2023-07-31_19h44.41.058,arm3_eps,2022.2.5,Win32,119.3887297,613615da1eacf6204ce33479,64c7fed44a04f777bb1e18ce,64c80104b18bac10c73ca05a,up,1,0.75,0.05,15,0,1.0534,,,,,,211,0,211,0,1,,,,,
,,358388,001,2023-07-31_19h44.41.058,arm3_eps,2022.2.5,Win32,119.3887297,613615da1eacf6204ce33479,64c7fed44a04f777bb1e18ce,64c80104b18bac10c73ca05a,right,1,0.75,0.05,15,-0.011445154,0.5672,,,,,,212,0,212,0,1,,,,,
,,358388,001,2023-07-31_19h44.41.058,arm3_eps,2022.2.5,Win32,119.3887297,613615da1eacf6204ce33479,64c7fed44a04f777bb1e18ce,64c80104b18bac10c73ca05a,right,1,0.75,0.05,15,-0.019401081,0.1451,,,,,,213,0,213,0,1,,,,,
,,358388,001,2023-07-31_19h44.41.058,arm3_eps,2022.2.5,Win32,119.3887297,613615da1eacf6204ce33479,64c7fed44a04f777bb1e18ce,64c80104b18bac10c73ca05a,right,1,0.75,0.05,15,-0.032919259,0.1826,,,,,,214,0,214,0,1,,,,,
,,358388,001,2023-07-31_19h44.41.058,arm3_eps,2022.2.5,Win32,119.3887297,613615da1eacf6204ce33479,64c7fed44a04f777bb1e18ce,64c80104b18bac10c73ca05a,right,1,0.75,0.05,15,0.02791715,0.1898,,,,,,215,0,215,0,1,,,,,
,,358388,001,2023-07-31_19h44.41.058,arm3_eps,2022.2.5,Win32,119.3887297,613615da1eacf6204ce33479,64c7fed44a04f777bb1e18ce,64c80104b18bac10c73ca05a,up,1,0.75,0.05,16,0,0.6784,,,,,,216,0,216,0,1,,,,,
,,358388,001,2023-07-31_19h44.41.058,arm3_eps,2022.2.5,Win32,119.3887297,613615da1eacf6204ce33479,64c7fed44a04f777bb1e18ce,64c80104b18bac10c73ca05a,right,1,0.75,0.05,16,-0.02816522,0.5828,,,,,,217,0,217,0,1,,,,,
,,358388,001,2023-07-31_19h44.41.058,arm3_eps,2022.2.5,Win32,119.3887297,613615da1eacf6204ce33479,64c7fed44a04f777bb1e18ce,64c80104b18bac10c73ca05a,right,1,0.75,0.05,16,-0.022803514,0.1655,,,,,,218,0,218,0,1,,,,,
,,358388,001,2023-07-31_19h44.41.058,arm3_eps,2022.2.5,Win32,119.3887297,613615da1eacf6204ce33479,64c7fed44a04f777bb1e18ce,64c80104b18bac10c73ca05a,right,1,0.75,0.05,16,-0.019016587,0.1536,,,,,,219,0,219,0,1,,,,,
,,358388,001,2023-07-31_19h44.41.058,arm3_eps,2022.2.5,Win32,119.3887297,613615da1eacf6204ce33479,64c7fed44a04f777bb1e18ce,64c80104b18bac10c73ca05a,right,1,0.75,0.05,16,-0.014207892,0.2079,,,,,,220,0,220,0,1,,,,,
,,358388,001,2023-07-31_19h44.41.058,arm3_eps,2022.2.5,Win32,119.3887297,613615da1eacf6204ce33479,64c7fed44a04f777bb1e18ce,64c80104b18bac10c73ca05a,up,1,0.75,0.05,17,0,0.7161,,,,,,221,0,221,0,1,,,,,
,,358388,001,2023-07-31_19h44.41.058,arm3_eps,2022.2.5,Win32,119.3887297,613615da1eacf6204ce33479,64c7fed44a04f777bb1e18ce,64c80104b18bac10c73ca05a,right,1,0.75,0.05,17,0.019488887,0.5904,,,,,,222,0,222,0,1,,,,,
,,358388,001,2023-07-31_19h44.41.058,arm3_eps,2022.2.5,Win32,119.3887297,613615da1eacf6204ce33479,64c7fed44a04f777bb1e18ce,64c80104b18bac10c73ca05a,right,1,0.75,0.05,17,0.016049278,0.1408,,,,,,223,0,223,0,1,,,,,
,,358388,001,2023-07-31_19h44.41.058,arm3_eps,2022.2.5,Win32,119.3887297,613615da1eacf6204ce33479,64c7fed44a04f777bb1e18ce,64c80104b18bac10c73ca05a,right,1,0.75,0.05,17,0.032961197,0.1651,,,,,,224,0,224,0,1,,,,,
,,358388,001,2023-07-31_19h44.41.058,arm3_eps,2022.2.5,Win32,119.3887297,613615da1eacf6204ce33479,64c7fed44a04f777bb1e18ce,64c80104b18bac10c73ca05a,right,1,0.75,0.05,17,-0.001086176,0.1651,,,,,,225,0,225,0,1,,,,,
,,358388,001,2023-07-31_19h44.41.058,arm3_eps,2022.2.5,Win32,119.3887297,613615da1eacf6204ce33479,64c7fed44a04f777bb1e18ce,64c80104b18bac10c73ca05a,up,1,0.75,0.05,17,0,0.5033,,,,,,226,0,226,0,1,,,,,
,,358388,001,2023-07-31_19h44.41.058,arm3_eps,2022.2.5,Win32,119.3887297,613615da1eacf6204ce33479,64c7fed44a04f777bb1e18ce,64c80104b18bac10c73ca05a,right,1,0.75,0.05,17,0.012173961,0.5805,,,,,,227,0,227,0,1,,,,,
,,358388,001,2023-07-31_19h44.41.058,arm3_eps,2022.2.5,Win32,119.3887297,613615da1eacf6204ce33479,64c7fed44a04f777bb1e18ce,64c80104b18bac10c73ca05a,right,1,0.75,0.05,17,0.015159415,0.1405,,,,,,228,0,228,0,1,,,,,
,,358388,001,2023-07-31_19h44.41.058,arm3_eps,2022.2.5,Win32,119.3887297,613615da1eacf6204ce33479,64c7fed44a04f777bb1e18ce,64c80104b18bac10c73ca05a,right,1,0.75,0.05,17,0.019505388,0.1674,,,,,,229,0,229,0,1,,,,,
,,358388,001,2023-07-31_19h44.41.058,arm3_eps,2022.2.5,Win32,119.3887297,613615da1eacf6204ce33479,64c7fed44a04f777bb1e18ce,64c80104b18bac10c73ca05a,right,1,0.75,0.05,17,0.048879645,0.1769,,,,,,230,0,230,0,1,,,,,
,,358388,001,2023-07-31_19h44.41.058,arm3_eps,2022.2.5,Win32,119.3887297,613615da1eacf6204ce33479,64c7fed44a04f777bb1e18ce,64c80104b18bac10c73ca05a,up,1,0.75,0.05,18,0,0.3086,,,,,,231,0,231,0,1,,,,,
,,358388,001,2023-07-31_19h44.41.058,arm3_eps,2022.2.5,Win32,119.3887297,613615da1eacf6204ce33479,64c7fed44a04f777bb1e18ce,64c80104b18bac10c73ca05a,right,1,0.75,0.05,18,0.018067689,0.5629,,,,,,232,0,232,0,1,,,,,
,,358388,001,2023-07-31_19h44.41.058,arm3_eps,2022.2.5,Win32,119.3887297,613615da1eacf6204ce33479,64c7fed44a04f777bb1e18ce,64c80104b18bac10c73ca05a,right,1,0.75,0.05,18,0.041290874,0.1517,,,,,,233,0,233,0,1,,,,,
,,358388,001,2023-07-31_19h44.41.058,arm3_eps,2022.2.5,Win32,119.3887297,613615da1eacf6204ce33479,64c7fed44a04f777bb1e18ce,64c80104b18bac10c73ca05a,right,1,0.75,0.05,18,0.049839732,0.1586,,,,,,234,0,234,0,1,,,,,
,,358388,001,2023-07-31_19h44.41.058,arm3_eps,2022.2.5,Win32,119.3887297,613615da1eacf6204ce33479,64c7fed44a04f777bb1e18ce,64c80104b18bac10c73ca05a,right,1,0.75,0.05,18,0.060433082,0.152,,,,,,235,0,235,0,1,,,,,
,,358388,001,2023-07-31_19h44.41.058,arm3_eps,2022.2.5,Win32,119.3887297,613615da1eacf6204ce33479,64c7fed44a04f777bb1e18ce,64c80104b18bac10c73ca05a,up,1,0.75,0.05,19,0,0.4094,,,,,,236,0,236,0,1,,,,,
,,358388,001,2023-07-31_19h44.41.058,arm3_eps,2022.2.5,Win32,119.3887297,613615da1eacf6204ce33479,64c7fed44a04f777bb1e18ce,64c80104b18bac10c73ca05a,right,1,0.75,0.05,19,-0.031804288,0.5,,,,,,237,0,237,0,1,,,,,
,,358388,001,2023-07-31_19h44.41.058,arm3_eps,2022.2.5,Win32,119.3887297,613615da1eacf6204ce33479,64c7fed44a04f777bb1e18ce,64c80104b18bac10c73ca05a,right,1,0.75,0.05,19,-0.024038705,0.1581,,,,,,238,0,238,0,1,,,,,
,,358388,001,2023-07-31_19h44.41.058,arm3_eps,2022.2.5,Win32,119.3887297,613615da1eacf6204ce33479,64c7fed44a04f777bb1e18ce,64c80104b18bac10c73ca05a,right,1,0.75,0.05,19,-0.035396804,0.3326,,,,,,239,0,239,0,1,,,,,
,,358388,001,2023-07-31_19h44.41.058,arm3_eps,2022.2.5,Win32,119.3887297,613615da1eacf6204ce33479,64c7fed44a04f777bb1e18ce,64c80104b18bac10c73ca05a,right,1,0.75,0.05,19,-0.015015059,0.1827,,,,,,240,0,240,0,1,,,,,
,,358388,001,2023-07-31_19h44.41.058,arm3_eps,2022.2.5,Win32,119.3887297,613615da1eacf6204ce33479,64c7fed44a04f777bb1e18ce,64c80104b18bac10c73ca05a,right,1,0.75,0.05,19,-0.019362674,0.379,,,,,,241,0,241,0,1,,,,,
,,358388,001,2023-07-31_19h44.41.058,arm3_eps,2022.2.5,Win32,119.3887297,613615da1eacf6204ce33479,64c7fed44a04f777bb1e18ce,64c80104b18bac10c73ca05a,up,1,0.75,0.05,20,0,0.7079,,,,,,242,0,242,0,1,,,,,
,,358388,001,2023-07-31_19h44.41.058,arm3_eps,2022.2.5,Win32,119.3887297,613615da1eacf6204ce33479,64c7fed44a04f777bb1e18ce,64c80104b18bac10c73ca05a,right,1,0.75,0.05,20,0.016733098,0.6159,,,,,,243,0,243,0,1,,,,,
,,358388,001,2023-07-31_19h44.41.058,arm3_eps,2022.2.5,Win32,119.3887297,613615da1eacf6204ce33479,64c7fed44a04f777bb1e18ce,64c80104b18bac10c73ca05a,right,1,0.75,0.05,20,0.023457914,0.178,,,,,,244,0,244,0,1,,,,,
,,358388,001,2023-07-31_19h44.41.058,arm3_eps,2022.2.5,Win32,119.3887297,613615da1eacf6204ce33479,64c7fed44a04f777bb1e18ce,64c80104b18bac10c73ca05a,right,1,0.75,0.05,20,0.026737329,0.1828,,,,,,245,0,245,0,1,,,,,
,,358388,001,2023-07-31_19h44.41.058,arm3_eps,2022.2.5,Win32,119.3887297,613615da1eacf6204ce33479,64c7fed44a04f777bb1e18ce,64c80104b18bac10c73ca05a,right,1,0.75,0.05,20,0.050724099,0.1912,,,,,,246,0,246,0,1,,,,,
,,358388,001,2023-07-31_19h44.41.058,arm3_eps,2022.2.5,Win32,119.3887297,613615da1eacf6204ce33479,64c7fed44a04f777bb1e18ce,64c80104b18bac10c73ca05a,up,-1,0.75,0.05,21,0,0.3908,,,,,,247,0,247,0,1,,,,,
,,358388,001,2023-07-31_19h44.41.058,arm3_eps,2022.2.5,Win32,119.3887297,613615da1eacf6204ce33479,64c7fed44a04f777bb1e18ce,64c80104b18bac10c73ca05a,right,-1,0.75,0.05,21,-0.046573729,0.6756,,,,,,248,0,248,0,1,,,,,
,,358388,001,2023-07-31_19h44.41.058,arm3_eps,2022.2.5,Win32,119.3887297,613615da1eacf6204ce33479,64c7fed44a04f777bb1e18ce,64c80104b18bac10c73ca05a,right,-1,0.75,0.05,21,-0.091045008,0.1826,,,,,,249,0,249,0,1,,,,,
,,358388,001,2023-07-31_19h44.41.058,arm3_eps,2022.2.5,Win32,119.3887297,613615da1eacf6204ce33479,64c7fed44a04f777bb1e18ce,64c80104b18bac10c73ca05a,right,-1,0.75,0.05,21,-0.145372945,0.1918,,,,,,250,0,250,0,1,,,,,
,,358388,001,2023-07-31_19h44.41.058,arm3_eps,2022.2.5,Win32,119.3887297,613615da1eacf6204ce33479,64c7fed44a04f777bb1e18ce,64c80104b18bac10c73ca05a,down,-1,0.75,0.05,22,0,0.7025,,,,,,251,0,251,0,1,,,,,
,,358388,001,2023-07-31_19h44.41.058,arm3_eps,2022.2.5,Win32,119.3887297,613615da1eacf6204ce33479,64c7fed44a04f777bb1e18ce,64c80104b18bac10c73ca05a,right,-1,0.75,0.05,22,0.001297792,0.5417,,,,,,252,0,252,0,1,,,,,
,,358388,001,2023-07-31_19h44.41.058,arm3_eps,2022.2.5,Win32,119.3887297,613615da1eacf6204ce33479,64c7fed44a04f777bb1e18ce,64c80104b18bac10c73ca05a,right,-1,0.75,0.05,22,-0.00020122,0.157,,,,,,253,0,253,0,1,,,,,
,,358388,001,2023-07-31_19h44.41.058,arm3_eps,2022.2.5,Win32,119.3887297,613615da1eacf6204ce33479,64c7fed44a04f777bb1e18ce,64c80104b18bac10c73ca05a,right,-1,0.75,0.05,22,-0.026696521,0.1527,,,,,,254,0,254,0,1,,,,,
,,358388,001,2023-07-31_19h44.41.058,arm3_eps,2022.2.5,Win32,119.3887297,613615da1eacf6204ce33479,64c7fed44a04f777bb1e18ce,64c80104b18bac10c73ca05a,right,-1,0.75,0.05,22,-0.008601931,0.2449,,,,,,255,0,255,0,1,,,,,
,,358388,001,2023-07-31_19h44.41.058,arm3_eps,2022.2.5,Win32,119.3887297,613615da1eacf6204ce33479,64c7fed44a04f777bb1e18ce,64c80104b18bac10c73ca05a,down,-1,0.75,0.05,23,0,0.6451,,,,,,256,0,256,0,1,,,,,
,,358388,001,2023-07-31_19h44.41.058,arm3_eps,2022.2.5,Win32,119.3887297,613615da1eacf6204ce33479,64c7fed44a04f777bb1e18ce,64c80104b18bac10c73ca05a,right,-1,0.75,0.05,23,-0.000125247,0.668,,,,,,257,0,257,0,1,,,,,
,,358388,001,2023-07-31_19h44.41.058,arm3_eps,2022.2.5,Win32,119.3887297,613615da1eacf6204ce33479,64c7fed44a04f777bb1e18ce,64c80104b18bac10c73ca05a,right,-1,0.75,0.05,23,0.007472337,0.157,,,,,,258,0,258,0,1,,,,,
