space_bar.keys,space_bar.rt,participant,session,date,expName,psychopyVersion,OS,frameRate,PROLIFIC_PID,STUDY_ID,SESSION_ID,resp.keys,state,q_prob,eps_prob,score,price,resp.rt,train.thisRepN,train.thisTrialN,train.thisN,train.thisIndex,train.ran,steps.thisRepN,steps.thisTrialN,steps.thisN,steps.thisIndex,steps.ran,blocks.thisRepN,blocks.thisTrialN,blocks.thisN,blocks.thisIndex,blocks.ran
space,43.7282,374308,001,2023-07-29_15h37.41.359,arm3_eps,2022.2.5,Win32,7.500750075,615d50afaa1ddf26457e079c,64c47140896c8c63e34c6d2f,64c51612fa5ae87a355e34f2,,,,,,,,,,,,,,,,,,,,,,
space,7.0964,374308,001,2023-07-29_15h37.41.359,arm3_eps,2022.2.5,Win32,7.500750075,615d50afaa1ddf26457e079c,64c47140896c8c63e34c6d2f,64c51612fa5ae87a355e34f2,,,,,,,,,,,,,,,,,,,,,,
space,41.2762,374308,001,2023-07-29_15h37.41.359,arm3_eps,2022.2.5,Win32,7.500750075,615d50afaa1ddf26457e079c,64c47140896c8c63e34c6d2f,64c51612fa5ae87a355e34f2,,,,,,,,,,,,,,,,,,,,,,
space,26.6145,374308,001,2023-07-29_15h37.41.359,arm3_eps,2022.2.5,Win32,7.500750075,615d50afaa1ddf26457e079c,64c47140896c8c63e34c6d2f,64c51612fa5ae87a355e34f2,,,,,,,,,,,,,,,,,,,,,,
space,60.8204,374308,001,2023-07-29_15h37.41.359,arm3_eps,2022.2.5,Win32,7.500750075,615d50afaa1ddf26457e079c,64c47140896c8c63e34c6d2f,64c51612fa5ae87a355e34f2,,,,,,,,,,,,,,,,,,,,,,
space,28.3738,374308,001,2023-07-29_15h37.41.359,arm3_eps,2022.2.5,Win32,7.500750075,615d50afaa1ddf26457e079c,64c47140896c8c63e34c6d2f,64c51612fa5ae87a355e34f2,,,,,,,,,,,,,,,,,,,,,,
space,3.2462,374308,001,2023-07-29_15h37.41.359,arm3_eps,2022.2.5,Win32,7.500750075,615d50afaa1ddf26457e079c,64c47140896c8c63e34c6d2f,64c51612fa5ae87a355e34f2,,,,,,,,,,,,,,,,,,,,,,
,,374308,001,2023-07-29_15h37.41.359,arm3_eps,2022.2.5,Win32,7.500750075,615d50afaa1ddf26457e079c,64c47140896c8c63e34c6d2f,64c51612fa5ae87a355e34f2,right,-1,1,0.2429,0,-0.002785802,3.8453,0,0,0,0,1,,,,,,,,,,
,,374308,001,2023-07-29_15h37.41.359,arm3_eps,2022.2.5,Win32,7.500750075,615d50afaa1ddf26457e079c,64c47140896c8c63e34c6d2f,64c51612fa5ae87a355e34f2,right,-1,1,0.2429,0,-0.028803133,3.9329,1,0,1,0,1,,,,,,,,,,
,,374308,001,2023-07-29_15h37.41.359,arm3_eps,2022.2.5,Win32,7.500750075,615d50afaa1ddf26457e079c,64c47140896c8c63e34c6d2f,64c51612fa5ae87a355e34f2,right,-1,1,0.2429,0,-0.000254438,3.2611,2,0,2,0,1,,,,,,,,,,
,,374308,001,2023-07-29_15h37.41.359,arm3_eps,2022.2.5,Win32,7.500750075,615d50afaa1ddf26457e079c,64c47140896c8c63e34c6d2f,64c51612fa5ae87a355e34f2,right,-1,1,0.2429,0,-0.022434217,1.6351,3,0,3,0,1,,,,,,,,,,
,,374308,001,2023-07-29_15h37.41.359,arm3_eps,2022.2.5,Win32,7.500750075,615d50afaa1ddf26457e079c,64c47140896c8c63e34c6d2f,64c51612fa5ae87a355e34f2,right,-1,1,0.2429,0,-0.022904743,1.7994,4,0,4,0,1,,,,,,,,,,
,,374308,001,2023-07-29_15h37.41.359,arm3_eps,2022.2.5,Win32,7.500750075,615d50afaa1ddf26457e079c,64c47140896c8c63e34c6d2f,64c51612fa5ae87a355e34f2,right,-1,1,0.2429,0,-0.039475061,1.3092,5,0,5,0,1,,,,,,,,,,
,,374308,001,2023-07-29_15h37.41.359,arm3_eps,2022.2.5,Win32,7.500750075,615d50afaa1ddf26457e079c,64c47140896c8c63e34c6d2f,64c51612fa5ae87a355e34f2,right,-1,1,0.2429,0,-0.050748225,1.1486,6,0,6,0,1,,,,,,,,,,
,,374308,001,2023-07-29_15h37.41.359,arm3_eps,2022.2.5,Win32,7.500750075,615d50afaa1ddf26457e079c,64c47140896c8c63e34c6d2f,64c51612fa5ae87a355e34f2,right,-1,1,0.2429,0,-0.094031019,0.8426,7,0,7,0,1,,,,,,,,,,
,,374308,001,2023-07-29_15h37.41.359,arm3_eps,2022.2.5,Win32,7.500750075,615d50afaa1ddf26457e079c,64c47140896c8c63e34c6d2f,64c51612fa5ae87a355e34f2,right,-1,1,0.2429,0,-0.117685442,1.1644,8,0,8,0,1,,,,,,,,,,
,,374308,001,2023-07-29_15h37.41.359,arm3_eps,2022.2.5,Win32,7.500750075,615d50afaa1ddf26457e079c,64c47140896c8c63e34c6d2f,64c51612fa5ae87a355e34f2,right,-1,1,0.2429,0,-0.116610705,1.3308,9,0,9,0,1,,,,,,,,,,
,,374308,001,2023-07-29_15h37.41.359,arm3_eps,2022.2.5,Win32,7.500750075,615d50afaa1ddf26457e079c,64c47140896c8c63e34c6d2f,64c51612fa5ae87a355e34f2,right,-1,1,0.2429,0,-0.146664938,1.1537,10,0,10,0,1,,,,,,,,,,
,,374308,001,2023-07-29_15h37.41.359,arm3_eps,2022.2.5,Win32,7.500750075,615d50afaa1ddf26457e079c,64c47140896c8c63e34c6d2f,64c51612fa5ae87a355e34f2,right,-1,1,0.2429,0,-0.142353746,1.3162,11,0,11,0,1,,,,,,,,,,
,,374308,001,2023-07-29_15h37.41.359,arm3_eps,2022.2.5,Win32,7.500750075,615d50afaa1ddf26457e079c,64c47140896c8c63e34c6d2f,64c51612fa5ae87a355e34f2,up,-1,1,0.2429,-1,0,5.0731,12,0,12,0,1,,,,,,,,,,
,,374308,001,2023-07-29_15h37.41.359,arm3_eps,2022.2.5,Win32,7.500750075,615d50afaa1ddf26457e079c,64c47140896c8c63e34c6d2f,64c51612fa5ae87a355e34f2,right,-1,1,0.2429,-1,-0.019218746,19.8463,13,0,13,0,1,,,,,,,,,,
,,374308,001,2023-07-29_15h37.41.359,arm3_eps,2022.2.5,Win32,7.500750075,615d50afaa1ddf26457e079c,64c47140896c8c63e34c6d2f,64c51612fa5ae87a355e34f2,right,-1,1,0.2429,-1,-0.028194135,1.0037,14,0,14,0,1,,,,,,,,,,
,,374308,001,2023-07-29_15h37.41.359,arm3_eps,2022.2.5,Win32,7.500750075,615d50afaa1ddf26457e079c,64c47140896c8c63e34c6d2f,64c51612fa5ae87a355e34f2,right,-1,1,0.2429,-1,-0.05516668,1.1894,15,0,15,0,1,,,,,,,,,,
,,374308,001,2023-07-29_15h37.41.359,arm3_eps,2022.2.5,Win32,7.500750075,615d50afaa1ddf26457e079c,64c47140896c8c63e34c6d2f,64c51612fa5ae87a355e34f2,right,-1,1,0.2429,-1,-0.021968984,1.0041,16,0,16,0,1,,,,,,,,,,
,,374308,001,2023-07-29_15h37.41.359,arm3_eps,2022.2.5,Win32,7.500750075,615d50afaa1ddf26457e079c,64c47140896c8c63e34c6d2f,64c51612fa5ae87a355e34f2,right,-1,1,0.2429,-1,-0.019512176,1.1841,17,0,17,0,1,,,,,,,,,,
,,374308,001,2023-07-29_15h37.41.359,arm3_eps,2022.2.5,Win32,7.500750075,615d50afaa1ddf26457e079c,64c47140896c8c63e34c6d2f,64c51612fa5ae87a355e34f2,right,-1,1,0.2429,-1,-0.029212485,1.3867,18,0,18,0,1,,,,,,,,,,
,,374308,001,2023-07-29_15h37.41.359,arm3_eps,2022.2.5,Win32,7.500750075,615d50afaa1ddf26457e079c,64c47140896c8c63e34c6d2f,64c51612fa5ae87a355e34f2,right,-1,1,0.2429,-1,-0.049951079,1.0187,19,0,19,0,1,,,,,,,,,,
,,374308,001,2023-07-29_15h37.41.359,arm3_eps,2022.2.5,Win32,7.500750075,615d50afaa1ddf26457e079c,64c47140896c8c63e34c6d2f,64c51612fa5ae87a355e34f2,right,-1,1,0.2429,-1,-0.065820184,1.0045,20,0,20,0,1,,,,,,,,,,
,,374308,001,2023-07-29_15h37.41.359,arm3_eps,2022.2.5,Win32,7.500750075,615d50afaa1ddf26457e079c,64c47140896c8c63e34c6d2f,64c51612fa5ae87a355e34f2,right,-1,1,0.2429,-1,-0.116763038,0.8777,21,0,21,0,1,,,,,,,,,,
,,374308,001,2023-07-29_15h37.41.359,arm3_eps,2022.2.5,Win32,7.500750075,615d50afaa1ddf26457e079c,64c47140896c8c63e34c6d2f,64c51612fa5ae87a355e34f2,right,-1,1,0.2429,-1,-0.124319993,0.9048,22,0,22,0,1,,,,,,,,,,
,,374308,001,2023-07-29_15h37.41.359,arm3_eps,2022.2.5,Win32,7.500750075,615d50afaa1ddf26457e079c,64c47140896c8c63e34c6d2f,64c51612fa5ae87a355e34f2,right,-1,1,0.2429,-1,-0.119188868,0.6822,23,0,23,0,1,,,,,,,,,,
,,374308,001,2023-07-29_15h37.41.359,arm3_eps,2022.2.5,Win32,7.500750075,615d50afaa1ddf26457e079c,64c47140896c8c63e34c6d2f,64c51612fa5ae87a355e34f2,right,-1,1,0.2429,-1,-0.110880918,0.8658,24,0,24,0,1,,,,,,,,,,
,,374308,001,2023-07-29_15h37.41.359,arm3_eps,2022.2.5,Win32,7.500750075,615d50afaa1ddf26457e079c,64c47140896c8c63e34c6d2f,64c51612fa5ae87a355e34f2,down,-1,1,0.2429,0,0,15.6487,25,0,25,0,1,,,,,,,,,,
,,374308,001,2023-07-29_15h37.41.359,arm3_eps,2022.2.5,Win32,7.500750075,615d50afaa1ddf26457e079c,64c47140896c8c63e34c6d2f,64c51612fa5ae87a355e34f2,right,-1,1,0.2429,0,0.013361436,2.578,26,0,26,0,1,,,,,,,,,,
,,374308,001,2023-07-29_15h37.41.359,arm3_eps,2022.2.5,Win32,7.500750075,615d50afaa1ddf26457e079c,64c47140896c8c63e34c6d2f,64c51612fa5ae87a355e34f2,right,-1,1,0.2429,0,0.026418693,0.8359,27,0,27,0,1,,,,,,,,,,
,,374308,001,2023-07-29_15h37.41.359,arm3_eps,2022.2.5,Win32,7.500750075,615d50afaa1ddf26457e079c,64c47140896c8c63e34c6d2f,64c51612fa5ae87a355e34f2,right,-1,1,0.2429,0,0.020770647,0.8495,28,0,28,0,1,,,,,,,,,,
,,374308,001,2023-07-29_15h37.41.359,arm3_eps,2022.2.5,Win32,7.500750075,615d50afaa1ddf26457e079c,64c47140896c8c63e34c6d2f,64c51612fa5ae87a355e34f2,right,-1,1,0.2429,0,0.024858251,0.8268,29,0,29,0,1,,,,,,,,,,
,,374308,001,2023-07-29_15h37.41.359,arm3_eps,2022.2.5,Win32,7.500750075,615d50afaa1ddf26457e079c,64c47140896c8c63e34c6d2f,64c51612fa5ae87a355e34f2,right,-1,1,0.2429,0,0.026892713,0.8207,30,0,30,0,1,,,,,,,,,,
,,374308,001,2023-07-29_15h37.41.359,arm3_eps,2022.2.5,Win32,7.500750075,615d50afaa1ddf26457e079c,64c47140896c8c63e34c6d2f,64c51612fa5ae87a355e34f2,right,-1,1,0.2429,0,0.013588707,0.6619,31,0,31,0,1,,,,,,,,,,
,,374308,001,2023-07-29_15h37.41.359,arm3_eps,2022.2.5,Win32,7.500750075,615d50afaa1ddf26457e079c,64c47140896c8c63e34c6d2f,64c51612fa5ae87a355e34f2,right,-1,1,0.2429,0,0.004547621,0.8201,32,0,32,0,1,,,,,,,,,,
,,374308,001,2023-07-29_15h37.41.359,arm3_eps,2022.2.5,Win32,7.500750075,615d50afaa1ddf26457e079c,64c47140896c8c63e34c6d2f,64c51612fa5ae87a355e34f2,right,-1,1,0.2429,0,0.014106455,0.6592,33,0,33,0,1,,,,,,,,,,
,,374308,001,2023-07-29_15h37.41.359,arm3_eps,2022.2.5,Win32,7.500750075,615d50afaa1ddf26457e079c,64c47140896c8c63e34c6d2f,64c51612fa5ae87a355e34f2,right,-1,1,0.2429,0,-0.008745899,0.6606,34,0,34,0,1,,,,,,,,,,
,,374308,001,2023-07-29_15h37.41.359,arm3_eps,2022.2.5,Win32,7.500750075,615d50afaa1ddf26457e079c,64c47140896c8c63e34c6d2f,64c51612fa5ae87a355e34f2,right,-1,1,0.2429,0,-0.009000015,0.8198,35,0,35,0,1,,,,,,,,,,
,,374308,001,2023-07-29_15h37.41.359,arm3_eps,2022.2.5,Win32,7.500750075,615d50afaa1ddf26457e079c,64c47140896c8c63e34c6d2f,64c51612fa5ae87a355e34f2,right,-1,1,0.2429,0,-0.022758243,0.4953,36,0,36,0,1,,,,,,,,,,
,,374308,001,2023-07-29_15h37.41.359,arm3_eps,2022.2.5,Win32,7.500750075,615d50afaa1ddf26457e079c,64c47140896c8c63e34c6d2f,64c51612fa5ae87a355e34f2,right,-1,1,0.2429,0,-0.025183571,0.6681,37,0,37,0,1,,,,,,,,,,
,,374308,001,2023-07-29_15h37.41.359,arm3_eps,2022.2.5,Win32,7.500750075,615d50afaa1ddf26457e079c,64c47140896c8c63e34c6d2f,64c51612fa5ae87a355e34f2,down,-1,1,0.2429,1,0,6.8748,38,0,38,0,1,,,,,,,,,,
,,374308,001,2023-07-29_15h37.41.359,arm3_eps,2022.2.5,Win32,7.500750075,615d50afaa1ddf26457e079c,64c47140896c8c63e34c6d2f,64c51612fa5ae87a355e34f2,right,-1,1,0.2429,1,-0.037866144,2.0936,39,0,39,0,1,,,,,,,,,,
,,374308,001,2023-07-29_15h37.41.359,arm3_eps,2022.2.5,Win32,7.500750075,615d50afaa1ddf26457e079c,64c47140896c8c63e34c6d2f,64c51612fa5ae87a355e34f2,right,-1,1,0.2429,1,-0.067285143,0.8167,40,0,40,0,1,,,,,,,,,,
,,374308,001,2023-07-29_15h37.41.359,arm3_eps,2022.2.5,Win32,7.500750075,615d50afaa1ddf26457e079c,64c47140896c8c63e34c6d2f,64c51612fa5ae87a355e34f2,right,-1,1,0.2429,1,-0.081347095,0.6574,41,0,41,0,1,,,,,,,,,,
,,374308,001,2023-07-29_15h37.41.359,arm3_eps,2022.2.5,Win32,7.500750075,615d50afaa1ddf26457e079c,64c47140896c8c63e34c6d2f,64c51612fa5ae87a355e34f2,right,-1,1,0.2429,1,-0.108443635,0.8211,42,0,42,0,1,,,,,,,,,,
,,374308,001,2023-07-29_15h37.41.359,arm3_eps,2022.2.5,Win32,7.500750075,615d50afaa1ddf26457e079c,64c47140896c8c63e34c6d2f,64c51612fa5ae87a355e34f2,right,-1,1,0.2429,1,-0.146051709,0.6565,43,0,43,0,1,,,,,,,,,,
,,374308,001,2023-07-29_15h37.41.359,arm3_eps,2022.2.5,Win32,7.500750075,615d50afaa1ddf26457e079c,64c47140896c8c63e34c6d2f,64c51612fa5ae87a355e34f2,right,-1,1,0.2429,1,-0.173586974,0.6568,44,0,44,0,1,,,,,,,,,,
,,374308,001,2023-07-29_15h37.41.359,arm3_eps,2022.2.5,Win32,7.500750075,615d50afaa1ddf26457e079c,64c47140896c8c63e34c6d2f,64c51612fa5ae87a355e34f2,right,-1,1,0.2429,1,-0.169348073,0.6564,45,0,45,0,1,,,,,,,,,,
,,374308,001,2023-07-29_15h37.41.359,arm3_eps,2022.2.5,Win32,7.500750075,615d50afaa1ddf26457e079c,64c47140896c8c63e34c6d2f,64c51612fa5ae87a355e34f2,right,-1,1,0.2429,1,-0.195412253,0.8323,46,0,46,0,1,,,,,,,,,,
,,374308,001,2023-07-29_15h37.41.359,arm3_eps,2022.2.5,Win32,7.500750075,615d50afaa1ddf26457e079c,64c47140896c8c63e34c6d2f,64c51612fa5ae87a355e34f2,right,-1,1,0.2429,1,-0.200809926,0.4995,47,0,47,0,1,,,,,,,,,,
,,374308,001,2023-07-29_15h37.41.359,arm3_eps,2022.2.5,Win32,7.500750075,615d50afaa1ddf26457e079c,64c47140896c8c63e34c6d2f,64c51612fa5ae87a355e34f2,right,-1,1,0.2429,1,-0.198795861,0.5039,48,0,48,0,1,,,,,,,,,,
,,374308,001,2023-07-29_15h37.41.359,arm3_eps,2022.2.5,Win32,7.500750075,615d50afaa1ddf26457e079c,64c47140896c8c63e34c6d2f,64c51612fa5ae87a355e34f2,right,-1,1,0.2429,1,-0.203042813,0.5187,49,0,49,0,1,,,,,,,,,,
space,37.5024,374308,001,2023-07-29_15h37.41.359,arm3_eps,2022.2.5,Win32,7.500750075,615d50afaa1ddf26457e079c,64c47140896c8c63e34c6d2f,64c51612fa5ae87a355e34f2,,,,,,,,,,,,,,,,,,,,,,
space,28.1165,374308,001,2023-07-29_15h37.41.359,arm3_eps,2022.2.5,Win32,7.500750075,615d50afaa1ddf26457e079c,64c47140896c8c63e34c6d2f,64c51612fa5ae87a355e34f2,,,,,,,,,,,,,,,,,,,,,,
space,17.3077,374308,001,2023-07-29_15h37.41.359,arm3_eps,2022.2.5,Win32,7.500750075,615d50afaa1ddf26457e079c,64c47140896c8c63e34c6d2f,64c51612fa5ae87a355e34f2,,,,,,,,,,,,,,,,,,,,,,
space,12.4825,374308,001,2023-07-29_15h37.41.359,arm3_eps,2022.2.5,Win32,7.500750075,615d50afaa1ddf26457e079c,64c47140896c8c63e34c6d2f,64c51612fa5ae87a355e34f2,,,,,,,,,,,,,,,,,,,,,,
space,14.6516,374308,001,2023-07-29_15h37.41.359,arm3_eps,2022.2.5,Win32,7.500750075,615d50afaa1ddf26457e079c,64c47140896c8c63e34c6d2f,64c51612fa5ae87a355e34f2,,,,,,,,,,,,,,,,,,,,,,
space,3.6321,374308,001,2023-07-29_15h37.41.359,arm3_eps,2022.2.5,Win32,7.500750075,615d50afaa1ddf26457e079c,64c47140896c8c63e34c6d2f,64c51612fa5ae87a355e34f2,,,,,,,,,,,,,,,,,,,,,,
,,374308,001,2023-07-29_15h37.41.359,arm3_eps,2022.2.5,Win32,7.500750075,615d50afaa1ddf26457e079c,64c47140896c8c63e34c6d2f,64c51612fa5ae87a355e34f2,right,-1,0.75,0.2429,0,-0.022405925,1.4055,0,0,0,0,1,,,,,,,,,,
,,374308,001,2023-07-29_15h37.41.359,arm3_eps,2022.2.5,Win32,7.500750075,615d50afaa1ddf26457e079c,64c47140896c8c63e34c6d2f,64c51612fa5ae87a355e34f2,right,-1,0.75,0.2429,0,-0.030888627,0.7864,1,0,1,0,1,,,,,,,,,,
,,374308,001,2023-07-29_15h37.41.359,arm3_eps,2022.2.5,Win32,7.500750075,615d50afaa1ddf26457e079c,64c47140896c8c63e34c6d2f,64c51612fa5ae87a355e34f2,right,-1,0.75,0.2429,0,-0.024421865,1.2615,2,0,2,0,1,,,,,,,,,,
,,374308,001,2023-07-29_15h37.41.359,arm3_eps,2022.2.5,Win32,7.500750075,615d50afaa1ddf26457e079c,64c47140896c8c63e34c6d2f,64c51612fa5ae87a355e34f2,right,-1,0.75,0.2429,0,-0.018021863,0.8136,3,0,3,0,1,,,,,,,,,,
,,374308,001,2023-07-29_15h37.41.359,arm3_eps,2022.2.5,Win32,7.500750075,615d50afaa1ddf26457e079c,64c47140896c8c63e34c6d2f,64c51612fa5ae87a355e34f2,right,-1,0.75,0.2429,0,-0.03955829,0.9627,4,0,4,0,1,,,,,,,,,,
,,374308,001,2023-07-29_15h37.41.359,arm3_eps,2022.2.5,Win32,7.500750075,615d50afaa1ddf26457e079c,64c47140896c8c63e34c6d2f,64c51612fa5ae87a355e34f2,right,-1,0.75,0.2429,0,-0.041271575,0.6638,5,0,5,0,1,,,,,,,,,,
,,374308,001,2023-07-29_15h37.41.359,arm3_eps,2022.2.5,Win32,7.500750075,615d50afaa1ddf26457e079c,64c47140896c8c63e34c6d2f,64c51612fa5ae87a355e34f2,right,-1,0.75,0.2429,0,-0.044026995,0.6502,6,0,6,0,1,,,,,,,,,,
,,374308,001,2023-07-29_15h37.41.359,arm3_eps,2022.2.5,Win32,7.500750075,615d50afaa1ddf26457e079c,64c47140896c8c63e34c6d2f,64c51612fa5ae87a355e34f2,right,-1,0.75,0.2429,0,-0.061368225,0.6433,7,0,7,0,1,,,,,,,,,,
,,374308,001,2023-07-29_15h37.41.359,arm3_eps,2022.2.5,Win32,7.500750075,615d50afaa1ddf26457e079c,64c47140896c8c63e34c6d2f,64c51612fa5ae87a355e34f2,right,-1,0.75,0.2429,0,-0.049109777,0.6635,8,0,8,0,1,,,,,,,,,,
,,374308,001,2023-07-29_15h37.41.359,arm3_eps,2022.2.5,Win32,7.500750075,615d50afaa1ddf26457e079c,64c47140896c8c63e34c6d2f,64c51612fa5ae87a355e34f2,right,-1,0.75,0.2429,0,-0.046132935,0.8011,9,0,9,0,1,,,,,,,,,,
,,374308,001,2023-07-29_15h37.41.359,arm3_eps,2022.2.5,Win32,7.500750075,615d50afaa1ddf26457e079c,64c47140896c8c63e34c6d2f,64c51612fa5ae87a355e34f2,down,-1,0.75,0.2429,0,0,3.8893,10,0,10,0,1,,,,,,,,,,
,,374308,001,2023-07-29_15h37.41.359,arm3_eps,2022.2.5,Win32,7.500750075,615d50afaa1ddf26457e079c,64c47140896c8c63e34c6d2f,64c51612fa5ae87a355e34f2,right,-1,0.75,0.2429,0,-0.010298165,1.7753,11,0,11,0,1,,,,,,,,,,
,,374308,001,2023-07-29_15h37.41.359,arm3_eps,2022.2.5,Win32,7.500750075,615d50afaa1ddf26457e079c,64c47140896c8c63e34c6d2f,64c51612fa5ae87a355e34f2,right,-1,0.75,0.2429,0,-0.039314854,0.6408,12,0,12,0,1,,,,,,,,,,
,,374308,001,2023-07-29_15h37.41.359,arm3_eps,2022.2.5,Win32,7.500750075,615d50afaa1ddf26457e079c,64c47140896c8c63e34c6d2f,64c51612fa5ae87a355e34f2,right,-1,0.75,0.2429,0,-0.079957399,0.6465,13,0,13,0,1,,,,,,,,,,
,,374308,001,2023-07-29_15h37.41.359,arm3_eps,2022.2.5,Win32,7.500750075,615d50afaa1ddf26457e079c,64c47140896c8c63e34c6d2f,64c51612fa5ae87a355e34f2,right,-1,0.75,0.2429,0,-0.076976,0.6395,14,0,14,0,1,,,,,,,,,,
,,374308,001,2023-07-29_15h37.41.359,arm3_eps,2022.2.5,Win32,7.500750075,615d50afaa1ddf26457e079c,64c47140896c8c63e34c6d2f,64c51612fa5ae87a355e34f2,right,-1,0.75,0.2429,0,-0.065244141,0.6306,15,0,15,0,1,,,,,,,,,,
,,374308,001,2023-07-29_15h37.41.359,arm3_eps,2022.2.5,Win32,7.500750075,615d50afaa1ddf26457e079c,64c47140896c8c63e34c6d2f,64c51612fa5ae87a355e34f2,right,-1,0.75,0.2429,0,-0.066266916,0.628,16,0,16,0,1,,,,,,,,,,
,,374308,001,2023-07-29_15h37.41.359,arm3_eps,2022.2.5,Win32,7.500750075,615d50afaa1ddf26457e079c,64c47140896c8c63e34c6d2f,64c51612fa5ae87a355e34f2,right,-1,0.75,0.2429,0,-0.113157623,0.4787,17,0,17,0,1,,,,,,,,,,
,,374308,001,2023-07-29_15h37.41.359,arm3_eps,2022.2.5,Win32,7.500750075,615d50afaa1ddf26457e079c,64c47140896c8c63e34c6d2f,64c51612fa5ae87a355e34f2,right,-1,0.75,0.2429,0,-0.132270811,0.6308,18,0,18,0,1,,,,,,,,,,
,,374308,001,2023-07-29_15h37.41.359,arm3_eps,2022.2.5,Win32,7.500750075,615d50afaa1ddf26457e079c,64c47140896c8c63e34c6d2f,64c51612fa5ae87a355e34f2,right,-1,0.75,0.2429,0,-0.149992575,0.6295,19,0,19,0,1,,,,,,,,,,
,,374308,001,2023-07-29_15h37.41.359,arm3_eps,2022.2.5,Win32,7.500750075,615d50afaa1ddf26457e079c,64c47140896c8c63e34c6d2f,64c51612fa5ae87a355e34f2,right,-1,0.75,0.2429,0,-0.172084343,0.4736,20,0,20,0,1,,,,,,,,,,
,,374308,001,2023-07-29_15h37.41.359,arm3_eps,2022.2.5,Win32,7.500750075,615d50afaa1ddf26457e079c,64c47140896c8c63e34c6d2f,64c51612fa5ae87a355e34f2,right,-1,0.75,0.2429,0,-0.137871877,0.6341,21,0,21,0,1,,,,,,,,,,
,,374308,001,2023-07-29_15h37.41.359,arm3_eps,2022.2.5,Win32,7.500750075,615d50afaa1ddf26457e079c,64c47140896c8c63e34c6d2f,64c51612fa5ae87a355e34f2,right,-1,0.75,0.2429,0,-0.131823104,0.4835,22,0,22,0,1,,,,,,,,,,
,,374308,001,2023-07-29_15h37.41.359,arm3_eps,2022.2.5,Win32,7.500750075,615d50afaa1ddf26457e079c,64c47140896c8c63e34c6d2f,64c51612fa5ae87a355e34f2,down,1,0.75,0.2429,1,0,1.7253,23,0,23,0,1,,,,,,,,,,
,,374308,001,2023-07-29_15h37.41.359,arm3_eps,2022.2.5,Win32,7.500750075,615d50afaa1ddf26457e079c,64c47140896c8c63e34c6d2f,64c51612fa5ae87a355e34f2,right,1,0.75,0.2429,1,-0.004026133,1.8694,24,0,24,0,1,,,,,,,,,,
,,374308,001,2023-07-29_15h37.41.359,arm3_eps,2022.2.5,Win32,7.500750075,615d50afaa1ddf26457e079c,64c47140896c8c63e34c6d2f,64c51612fa5ae87a355e34f2,right,1,0.75,0.2429,1,-0.019155009,0.6264,25,0,25,0,1,,,,,,,,,,
,,374308,001,2023-07-29_15h37.41.359,arm3_eps,2022.2.5,Win32,7.500750075,615d50afaa1ddf26457e079c,64c47140896c8c63e34c6d2f,64c51612fa5ae87a355e34f2,right,1,0.75,0.2429,1,-0.043461832,0.6285,26,0,26,0,1,,,,,,,,,,
,,374308,001,2023-07-29_15h37.41.359,arm3_eps,2022.2.5,Win32,7.500750075,615d50afaa1ddf26457e079c,64c47140896c8c63e34c6d2f,64c51612fa5ae87a355e34f2,right,1,0.75,0.2429,1,-0.014037239,0.6346,27,0,27,0,1,,,,,,,,,,
,,374308,001,2023-07-29_15h37.41.359,arm3_eps,2022.2.5,Win32,7.500750075,615d50afaa1ddf26457e079c,64c47140896c8c63e34c6d2f,64c51612fa5ae87a355e34f2,right,1,0.75,0.2429,1,0.009406965,1.0971,28,0,28,0,1,,,,,,,,,,
,,374308,001,2023-07-29_15h37.41.359,arm3_eps,2022.2.5,Win32,7.500750075,615d50afaa1ddf26457e079c,64c47140896c8c63e34c6d2f,64c51612fa5ae87a355e34f2,right,1,0.75,0.2429,1,0.024191554,1.0932,29,0,29,0,1,,,,,,,,,,
,,374308,001,2023-07-29_15h37.41.359,arm3_eps,2022.2.5,Win32,7.500750075,615d50afaa1ddf26457e079c,64c47140896c8c63e34c6d2f,64c51612fa5ae87a355e34f2,right,1,0.75,0.2429,1,0.054107014,0.7875,30,0,30,0,1,,,,,,,,,,
,,374308,001,2023-07-29_15h37.41.359,arm3_eps,2022.2.5,Win32,7.500750075,615d50afaa1ddf26457e079c,64c47140896c8c63e34c6d2f,64c51612fa5ae87a355e34f2,right,1,0.75,0.2429,1,0.035677911,0.7964,31,0,31,0,1,,,,,,,,,,
,,374308,001,2023-07-29_15h37.41.359,arm3_eps,2022.2.5,Win32,7.500750075,615d50afaa1ddf26457e079c,64c47140896c8c63e34c6d2f,64c51612fa5ae87a355e34f2,right,1,0.75,0.2429,1,0.044379614,0.8018,32,0,32,0,1,,,,,,,,,,
,,374308,001,2023-07-29_15h37.41.359,arm3_eps,2022.2.5,Win32,7.500750075,615d50afaa1ddf26457e079c,64c47140896c8c63e34c6d2f,64c51612fa5ae87a355e34f2,right,1,0.75,0.2429,1,0.059522066,0.6327,33,0,33,0,1,,,,,,,,,,
,,374308,001,2023-07-29_15h37.41.359,arm3_eps,2022.2.5,Win32,7.500750075,615d50afaa1ddf26457e079c,64c47140896c8c63e34c6d2f,64c51612fa5ae87a355e34f2,right,1,0.75,0.2429,1,0.056493233,0.7877,34,0,34,0,1,,,,,,,,,,
,,374308,001,2023-07-29_15h37.41.359,arm3_eps,2022.2.5,Win32,7.500750075,615d50afaa1ddf26457e079c,64c47140896c8c63e34c6d2f,64c51612fa5ae87a355e34f2,right,1,0.75,0.2429,1,0.07054836,0.6325,35,0,35,0,1,,,,,,,,,,
,,374308,001,2023-07-29_15h37.41.359,arm3_eps,2022.2.5,Win32,7.500750075,615d50afaa1ddf26457e079c,64c47140896c8c63e34c6d2f,64c51612fa5ae87a355e34f2,up,1,0.75,0.2429,2,0,1.94,36,0,36,0,1,,,,,,,,,,
,,374308,001,2023-07-29_15h37.41.359,arm3_eps,2022.2.5,Win32,7.500750075,615d50afaa1ddf26457e079c,64c47140896c8c63e34c6d2f,64c51612fa5ae87a355e34f2,right,1,0.75,0.2429,2,0.030386074,3.9213,37,0,37,0,1,,,,,,,,,,
,,374308,001,2023-07-29_15h37.41.359,arm3_eps,2022.2.5,Win32,7.500750075,615d50afaa1ddf26457e079c,64c47140896c8c63e34c6d2f,64c51612fa5ae87a355e34f2,right,1,0.75,0.2429,2,0.050513918,1.4195,38,0,38,0,1,,,,,,,,,,
,,374308,001,2023-07-29_15h37.41.359,arm3_eps,2022.2.5,Win32,7.500750075,615d50afaa1ddf26457e079c,64c47140896c8c63e34c6d2f,64c51612fa5ae87a355e34f2,right,1,0.75,0.2429,2,0.079070685,1.4097,39,0,39,0,1,,,,,,,,,,
,,374308,001,2023-07-29_15h37.41.359,arm3_eps,2022.2.5,Win32,7.500750075,615d50afaa1ddf26457e079c,64c47140896c8c63e34c6d2f,64c51612fa5ae87a355e34f2,right,1,0.75,0.2429,2,0.092493383,1.4066,40,0,40,0,1,,,,,,,,,,
,,374308,001,2023-07-29_15h37.41.359,arm3_eps,2022.2.5,Win32,7.500750075,615d50afaa1ddf26457e079c,64c47140896c8c63e34c6d2f,64c51612fa5ae87a355e34f2,right,1,0.75,0.2429,2,0.087286661,0.7836,41,0,41,0,1,,,,,,,,,,
,,374308,001,2023-07-29_15h37.41.359,arm3_eps,2022.2.5,Win32,7.500750075,615d50afaa1ddf26457e079c,64c47140896c8c63e34c6d2f,64c51612fa5ae87a355e34f2,up,-1,0.75,0.2429,3,0,1.0969,42,0,42,0,1,,,,,,,,,,
,,374308,001,2023-07-29_15h37.41.359,arm3_eps,2022.2.5,Win32,7.500750075,615d50afaa1ddf26457e079c,64c47140896c8c63e34c6d2f,64c51612fa5ae87a355e34f2,right,-1,0.75,0.2429,3,-0.002515044,2.1893,43,0,43,0,1,,,,,,,,,,
,,374308,001,2023-07-29_15h37.41.359,arm3_eps,2022.2.5,Win32,7.500750075,615d50afaa1ddf26457e079c,64c47140896c8c63e34c6d2f,64c51612fa5ae87a355e34f2,right,-1,0.75,0.2429,3,-0.009491045,1.097,44,0,44,0,1,,,,,,,,,,
,,374308,001,2023-07-29_15h37.41.359,arm3_eps,2022.2.5,Win32,7.500750075,615d50afaa1ddf26457e079c,64c47140896c8c63e34c6d2f,64c51612fa5ae87a355e34f2,right,-1,0.75,0.2429,3,-0.006495957,0.9425,45,0,45,0,1,,,,,,,,,,
,,374308,001,2023-07-29_15h37.41.359,arm3_eps,2022.2.5,Win32,7.500750075,615d50afaa1ddf26457e079c,64c47140896c8c63e34c6d2f,64c51612fa5ae87a355e34f2,right,-1,0.75,0.2429,3,-0.011821187,0.63,46,0,46,0,1,,,,,,,,,,
,,374308,001,2023-07-29_15h37.41.359,arm3_eps,2022.2.5,Win32,7.500750075,615d50afaa1ddf26457e079c,64c47140896c8c63e34c6d2f,64c51612fa5ae87a355e34f2,right,-1,0.75,0.2429,3,0.012439046,1.5722,47,0,47,0,1,,,,,,,,,,
,,374308,001,2023-07-29_15h37.41.359,arm3_eps,2022.2.5,Win32,7.500750075,615d50afaa1ddf26457e079c,64c47140896c8c63e34c6d2f,64c51612fa5ae87a355e34f2,down,-1,0.75,0.2429,4,0,0.7938,48,0,48,0,1,,,,,,,,,,
,,374308,001,2023-07-29_15h37.41.359,arm3_eps,2022.2.5,Win32,7.500750075,615d50afaa1ddf26457e079c,64c47140896c8c63e34c6d2f,64c51612fa5ae87a355e34f2,right,-1,0.75,0.2429,4,0.002859906,2.3363,49,0,49,0,1,,,,,,,,,,
space,19.55,374308,001,2023-07-29_15h37.41.359,arm3_eps,2022.2.5,Win32,7.500750075,615d50afaa1ddf26457e079c,64c47140896c8c63e34c6d2f,64c51612fa5ae87a355e34f2,,,,,,,,,,,,,,,,,,,,,,
space,46.5275,374308,001,2023-07-29_15h37.41.359,arm3_eps,2022.2.5,Win32,7.500750075,615d50afaa1ddf26457e079c,64c47140896c8c63e34c6d2f,64c51612fa5ae87a355e34f2,,,,,,,,,,,,,,,,,,,,,,
space,2.5277,374308,001,2023-07-29_15h37.41.359,arm3_eps,2022.2.5,Win32,7.500750075,615d50afaa1ddf26457e079c,64c47140896c8c63e34c6d2f,64c51612fa5ae87a355e34f2,,,,,,,,,,,,,,,,,,,,,,
,,374308,001,2023-07-29_15h37.41.359,arm3_eps,2022.2.5,Win32,7.500750075,615d50afaa1ddf26457e079c,64c47140896c8c63e34c6d2f,64c51612fa5ae87a355e34f2,right,-1,0.75,0.05,0,-0.025374864,1.5045,0,0,0,0,1,,,,,,,,,,
,,374308,001,2023-07-29_15h37.41.359,arm3_eps,2022.2.5,Win32,7.500750075,615d50afaa1ddf26457e079c,64c47140896c8c63e34c6d2f,64c51612fa5ae87a355e34f2,right,-1,0.75,0.05,0,-0.053463609,0.9921,1,0,1,0,1,,,,,,,,,,
,,374308,001,2023-07-29_15h37.41.359,arm3_eps,2022.2.5,Win32,7.500750075,615d50afaa1ddf26457e079c,64c47140896c8c63e34c6d2f,64c51612fa5ae87a355e34f2,right,-1,0.75,0.05,0,-0.061189603,1.002,2,0,2,0,1,,,,,,,,,,
,,374308,001,2023-07-29_15h37.41.359,arm3_eps,2022.2.5,Win32,7.500750075,615d50afaa1ddf26457e079c,64c47140896c8c63e34c6d2f,64c51612fa5ae87a355e34f2,right,-1,0.75,0.05,0,-0.065011295,0.6824,3,0,3,0,1,,,,,,,,,,
,,374308,001,2023-07-29_15h37.41.359,arm3_eps,2022.2.5,Win32,7.500750075,615d50afaa1ddf26457e079c,64c47140896c8c63e34c6d2f,64c51612fa5ae87a355e34f2,right,-1,0.75,0.05,0,-0.049763917,0.6624,4,0,4,0,1,,,,,,,,,,
,,374308,001,2023-07-29_15h37.41.359,arm3_eps,2022.2.5,Win32,7.500750075,615d50afaa1ddf26457e079c,64c47140896c8c63e34c6d2f,64c51612fa5ae87a355e34f2,right,-1,0.75,0.05,0,-0.065465376,0.67,5,0,5,0,1,,,,,,,,,,
,,374308,001,2023-07-29_15h37.41.359,arm3_eps,2022.2.5,Win32,7.500750075,615d50afaa1ddf26457e079c,64c47140896c8c63e34c6d2f,64c51612fa5ae87a355e34f2,down,-1,0.75,0.05,1,0,0.9902,6,0,6,0,1,,,,,,,,,,
,,374308,001,2023-07-29_15h37.41.359,arm3_eps,2022.2.5,Win32,7.500750075,615d50afaa1ddf26457e079c,64c47140896c8c63e34c6d2f,64c51612fa5ae87a355e34f2,down,-1,0.75,0.05,2,0,3.0419,7,0,7,0,1,,,,,,,,,,
,,374308,001,2023-07-29_15h37.41.359,arm3_eps,2022.2.5,Win32,7.500750075,615d50afaa1ddf26457e079c,64c47140896c8c63e34c6d2f,64c51612fa5ae87a355e34f2,down,-1,0.75,0.05,3,0,2.7337,8,0,8,0,1,,,,,,,,,,
,,374308,001,2023-07-29_15h37.41.359,arm3_eps,2022.2.5,Win32,7.500750075,615d50afaa1ddf26457e079c,64c47140896c8c63e34c6d2f,64c51612fa5ae87a355e34f2,down,-1,0.75,0.05,3,0,2.8533,9,0,9,0,1,,,,,,,,,,
,,374308,001,2023-07-29_15h37.41.359,arm3_eps,2022.2.5,Win32,7.500750075,615d50afaa1ddf26457e079c,64c47140896c8c63e34c6d2f,64c51612fa5ae87a355e34f2,down,-1,0.75,0.05,3,0,2.6623,10,0,10,0,1,,,,,,,,,,
,,374308,001,2023-07-29_15h37.41.359,arm3_eps,2022.2.5,Win32,7.500750075,615d50afaa1ddf26457e079c,64c47140896c8c63e34c6d2f,64c51612fa5ae87a355e34f2,down,-1,0.75,0.05,4,0,2.6803,11,0,11,0,1,,,,,,,,,,
,,374308,001,2023-07-29_15h37.41.359,arm3_eps,2022.2.5,Win32,7.500750075,615d50afaa1ddf26457e079c,64c47140896c8c63e34c6d2f,64c51612fa5ae87a355e34f2,down,-1,0.75,0.05,5,0,2.7303,12,0,12,0,1,,,,,,,,,,
,,374308,001,2023-07-29_15h37.41.359,arm3_eps,2022.2.5,Win32,7.500750075,615d50afaa1ddf26457e079c,64c47140896c8c63e34c6d2f,64c51612fa5ae87a355e34f2,down,-1,0.75,0.05,6,0,2.5568,13,0,13,0,1,,,,,,,,,,
,,374308,001,2023-07-29_15h37.41.359,arm3_eps,2022.2.5,Win32,7.500750075,615d50afaa1ddf26457e079c,64c47140896c8c63e34c6d2f,64c51612fa5ae87a355e34f2,down,-1,0.75,0.05,7,0,2.606,14,0,14,0,1,,,,,,,,,,
,,374308,001,2023-07-29_15h37.41.359,arm3_eps,2022.2.5,Win32,7.500750075,615d50afaa1ddf26457e079c,64c47140896c8c63e34c6d2f,64c51612fa5ae87a355e34f2,down,-1,0.75,0.05,8,0,2.5744,15,0,15,0,1,,,,,,,,,,
,,374308,001,2023-07-29_15h37.41.359,arm3_eps,2022.2.5,Win32,7.500750075,615d50afaa1ddf26457e079c,64c47140896c8c63e34c6d2f,64c51612fa5ae87a355e34f2,down,-1,0.75,0.05,9,0,2.5031,16,0,16,0,1,,,,,,,,,,
,,374308,001,2023-07-29_15h37.41.359,arm3_eps,2022.2.5,Win32,7.500750075,615d50afaa1ddf26457e079c,64c47140896c8c63e34c6d2f,64c51612fa5ae87a355e34f2,down,-1,0.75,0.05,9,0,2.6751,17,0,17,0,1,,,,,,,,,,
,,374308,001,2023-07-29_15h37.41.359,arm3_eps,2022.2.5,Win32,7.500750075,615d50afaa1ddf26457e079c,64c47140896c8c63e34c6d2f,64c51612fa5ae87a355e34f2,down,-1,0.75,0.05,10,0,2.5137,18,0,18,0,1,,,,,,,,,,
,,374308,001,2023-07-29_15h37.41.359,arm3_eps,2022.2.5,Win32,7.500750075,615d50afaa1ddf26457e079c,64c47140896c8c63e34c6d2f,64c51612fa5ae87a355e34f2,down,-1,0.75,0.05,10,0,2.7138,19,0,19,0,1,,,,,,,,,,
,,374308,001,2023-07-29_15h37.41.359,arm3_eps,2022.2.5,Win32,7.500750075,615d50afaa1ddf26457e079c,64c47140896c8c63e34c6d2f,64c51612fa5ae87a355e34f2,down,-1,0.75,0.05,11,0,2.5198,20,0,20,0,1,,,,,,,,,,
,,374308,001,2023-07-29_15h37.41.359,arm3_eps,2022.2.5,Win32,7.500750075,615d50afaa1ddf26457e079c,64c47140896c8c63e34c6d2f,64c51612fa5ae87a355e34f2,down,-1,0.75,0.05,12,0,2.5128,21,0,21,0,1,,,,,,,,,,
,,374308,001,2023-07-29_15h37.41.359,arm3_eps,2022.2.5,Win32,7.500750075,615d50afaa1ddf26457e079c,64c47140896c8c63e34c6d2f,64c51612fa5ae87a355e34f2,down,-1,0.75,0.05,13,0,2.3816,22,0,22,0,1,,,,,,,,,,
,,374308,001,2023-07-29_15h37.41.359,arm3_eps,2022.2.5,Win32,7.500750075,615d50afaa1ddf26457e079c,64c47140896c8c63e34c6d2f,64c51612fa5ae87a355e34f2,down,-1,0.75,0.05,14,0,2.1492,23,0,23,0,1,,,,,,,,,,
,,374308,001,2023-07-29_15h37.41.359,arm3_eps,2022.2.5,Win32,7.500750075,615d50afaa1ddf26457e079c,64c47140896c8c63e34c6d2f,64c51612fa5ae87a355e34f2,down,-1,0.75,0.05,14,0,2.134,24,0,24,0,1,,,,,,,,,,
,,374308,001,2023-07-29_15h37.41.359,arm3_eps,2022.2.5,Win32,7.500750075,615d50afaa1ddf26457e079c,64c47140896c8c63e34c6d2f,64c51612fa5ae87a355e34f2,down,-1,0.75,0.05,14,0,2.2743,25,0,25,0,1,,,,,,,,,,
,,374308,001,2023-07-29_15h37.41.359,arm3_eps,2022.2.5,Win32,7.500750075,615d50afaa1ddf26457e079c,64c47140896c8c63e34c6d2f,64c51612fa5ae87a355e34f2,down,-1,0.75,0.05,14,0,2.2678,26,0,26,0,1,,,,,,,,,,
,,374308,001,2023-07-29_15h37.41.359,arm3_eps,2022.2.5,Win32,7.500750075,615d50afaa1ddf26457e079c,64c47140896c8c63e34c6d2f,64c51612fa5ae87a355e34f2,down,-1,0.75,0.05,15,0,2.2148,27,0,27,0,1,,,,,,,,,,
,,374308,001,2023-07-29_15h37.41.359,arm3_eps,2022.2.5,Win32,7.500750075,615d50afaa1ddf26457e079c,64c47140896c8c63e34c6d2f,64c51612fa5ae87a355e34f2,down,-1,0.75,0.05,15,0,2.1802,28,0,28,0,1,,,,,,,,,,
,,374308,001,2023-07-29_15h37.41.359,arm3_eps,2022.2.5,Win32,7.500750075,615d50afaa1ddf26457e079c,64c47140896c8c63e34c6d2f,64c51612fa5ae87a355e34f2,down,-1,0.75,0.05,15,0,2.3472,29,0,29,0,1,,,,,,,,,,
,,374308,001,2023-07-29_15h37.41.359,arm3_eps,2022.2.5,Win32,7.500750075,615d50afaa1ddf26457e079c,64c47140896c8c63e34c6d2f,64c51612fa5ae87a355e34f2,down,-1,0.75,0.05,16,0,2.1461,30,0,30,0,1,,,,,,,,,,
,,374308,001,2023-07-29_15h37.41.359,arm3_eps,2022.2.5,Win32,7.500750075,615d50afaa1ddf26457e079c,64c47140896c8c63e34c6d2f,64c51612fa5ae87a355e34f2,down,-1,0.75,0.05,17,0,2.2709,31,0,31,0,1,,,,,,,,,,
,,374308,001,2023-07-29_15h37.41.359,arm3_eps,2022.2.5,Win32,7.500750075,615d50afaa1ddf26457e079c,64c47140896c8c63e34c6d2f,64c51612fa5ae87a355e34f2,down,-1,0.75,0.05,17,0,2.4608,32,0,32,0,1,,,,,,,,,,
,,374308,001,2023-07-29_15h37.41.359,arm3_eps,2022.2.5,Win32,7.500750075,615d50afaa1ddf26457e079c,64c47140896c8c63e34c6d2f,64c51612fa5ae87a355e34f2,down,-1,0.75,0.05,18,0,2.304,33,0,33,0,1,,,,,,,,,,
,,374308,001,2023-07-29_15h37.41.359,arm3_eps,2022.2.5,Win32,7.500750075,615d50afaa1ddf26457e079c,64c47140896c8c63e34c6d2f,64c51612fa5ae87a355e34f2,down,-1,0.75,0.05,19,0,2.2252,34,0,34,0,1,,,,,,,,,,
,,374308,001,2023-07-29_15h37.41.359,arm3_eps,2022.2.5,Win32,7.500750075,615d50afaa1ddf26457e079c,64c47140896c8c63e34c6d2f,64c51612fa5ae87a355e34f2,down,-1,0.75,0.05,20,0,2.3402,35,0,35,0,1,,,,,,,,,,
,,374308,001,2023-07-29_15h37.41.359,arm3_eps,2022.2.5,Win32,7.500750075,615d50afaa1ddf26457e079c,64c47140896c8c63e34c6d2f,64c51612fa5ae87a355e34f2,down,-1,0.75,0.05,21,0,2.3672,36,0,36,0,1,,,,,,,,,,
,,374308,001,2023-07-29_15h37.41.359,arm3_eps,2022.2.5,Win32,7.500750075,615d50afaa1ddf26457e079c,64c47140896c8c63e34c6d2f,64c51612fa5ae87a355e34f2,down,-1,0.75,0.05,22,0,2.5337,37,0,37,0,1,,,,,,,,,,
,,374308,001,2023-07-29_15h37.41.359,arm3_eps,2022.2.5,Win32,7.500750075,615d50afaa1ddf26457e079c,64c47140896c8c63e34c6d2f,64c51612fa5ae87a355e34f2,down,-1,0.75,0.05,22,0,2.3947,38,0,38,0,1,,,,,,,,,,
,,374308,001,2023-07-29_15h37.41.359,arm3_eps,2022.2.5,Win32,7.500750075,615d50afaa1ddf26457e079c,64c47140896c8c63e34c6d2f,64c51612fa5ae87a355e34f2,down,-1,0.75,0.05,23,0,2.2115,39,0,39,0,1,,,,,,,,,,
,,374308,001,2023-07-29_15h37.41.359,arm3_eps,2022.2.5,Win32,7.500750075,615d50afaa1ddf26457e079c,64c47140896c8c63e34c6d2f,64c51612fa5ae87a355e34f2,down,-1,0.75,0.05,23,0,2.2165,40,0,40,0,1,,,,,,,,,,
,,374308,001,2023-07-29_15h37.41.359,arm3_eps,2022.2.5,Win32,7.500750075,615d50afaa1ddf26457e079c,64c47140896c8c63e34c6d2f,64c51612fa5ae87a355e34f2,down,-1,0.75,0.05,23,0,3.3617,41,0,41,0,1,,,,,,,,,,
,,374308,001,2023-07-29_15h37.41.359,arm3_eps,2022.2.5,Win32,7.500750075,615d50afaa1ddf26457e079c,64c47140896c8c63e34c6d2f,64c51612fa5ae87a355e34f2,down,-1,0.75,0.05,24,0,0.2855,42,0,42,0,1,,,,,,,,,,
,,374308,001,2023-07-29_15h37.41.359,arm3_eps,2022.2.5,Win32,7.500750075,615d50afaa1ddf26457e079c,64c47140896c8c63e34c6d2f,64c51612fa5ae87a355e34f2,down,-1,0.75,0.05,25,0,1.7967,43,0,43,0,1,,,,,,,,,,
,,374308,001,2023-07-29_15h37.41.359,arm3_eps,2022.2.5,Win32,7.500750075,615d50afaa1ddf26457e079c,64c47140896c8c63e34c6d2f,64c51612fa5ae87a355e34f2,down,-1,0.75,0.05,26,0,2.168,44,0,44,0,1,,,,,,,,,,
,,374308,001,2023-07-29_15h37.41.359,arm3_eps,2022.2.5,Win32,7.500750075,615d50afaa1ddf26457e079c,64c47140896c8c63e34c6d2f,64c51612fa5ae87a355e34f2,down,-1,0.75,0.05,27,0,2.2171,45,0,45,0,1,,,,,,,,,,
,,374308,001,2023-07-29_15h37.41.359,arm3_eps,2022.2.5,Win32,7.500750075,615d50afaa1ddf26457e079c,64c47140896c8c63e34c6d2f,64c51612fa5ae87a355e34f2,down,-1,0.75,0.05,28,0,2.3519,46,0,46,0,1,,,,,,,,,,
,,374308,001,2023-07-29_15h37.41.359,arm3_eps,2022.2.5,Win32,7.500750075,615d50afaa1ddf26457e079c,64c47140896c8c63e34c6d2f,64c51612fa5ae87a355e34f2,down,-1,0.75,0.05,28,0,2.1422,47,0,47,0,1,,,,,,,,,,
,,374308,001,2023-07-29_15h37.41.359,arm3_eps,2022.2.5,Win32,7.500750075,615d50afaa1ddf26457e079c,64c47140896c8c63e34c6d2f,64c51612fa5ae87a355e34f2,down,1,0.75,0.05,29,0,2.091,48,0,48,0,1,,,,,,,,,,
,,374308,001,2023-07-29_15h37.41.359,arm3_eps,2022.2.5,Win32,7.500750075,615d50afaa1ddf26457e079c,64c47140896c8c63e34c6d2f,64c51612fa5ae87a355e34f2,down,1,0.75,0.05,29,0,1.9088,49,0,49,0,1,,,,,,,,,,
space,48.3948,374308,001,2023-07-29_15h37.41.359,arm3_eps,2022.2.5,Win32,7.500750075,615d50afaa1ddf26457e079c,64c47140896c8c63e34c6d2f,64c51612fa5ae87a355e34f2,,,,,,,,,,,,,,,,,,,,,,
space,1.112,374308,001,2023-07-29_15h37.41.359,arm3_eps,2022.2.5,Win32,7.500750075,615d50afaa1ddf26457e079c,64c47140896c8c63e34c6d2f,64c51612fa5ae87a355e34f2,,,,,,,,,,,,,,,,,,,,,,
,,374308,001,2023-07-29_15h37.41.359,arm3_eps,2022.2.5,Win32,7.500750075,615d50afaa1ddf26457e079c,64c47140896c8c63e34c6d2f,64c51612fa5ae87a355e34f2,right,1,0.75,0.5,0,0.024685037,7.0666,0,0,0,0,1,,,,,,,,,,
,,374308,001,2023-07-29_15h37.41.359,arm3_eps,2022.2.5,Win32,7.500750075,615d50afaa1ddf26457e079c,64c47140896c8c63e34c6d2f,64c51612fa5ae87a355e34f2,right,1,0.75,0.5,0,0.038052536,0.7888,1,0,1,0,1,,,,,,,,,,
,,374308,001,2023-07-29_15h37.41.359,arm3_eps,2022.2.5,Win32,7.500750075,615d50afaa1ddf26457e079c,64c47140896c8c63e34c6d2f,64c51612fa5ae87a355e34f2,down,-1,0.75,0.5,-1,0,0.9467,2,0,2,0,1,,,,,,,,,,
,,374308,001,2023-07-29_15h37.41.359,arm3_eps,2022.2.5,Win32,7.500750075,615d50afaa1ddf26457e079c,64c47140896c8c63e34c6d2f,64c51612fa5ae87a355e34f2,right,-1,0.75,0.5,-1,0.027704899,1.8675,3,0,3,0,1,,,,,,,,,,
,,374308,001,2023-07-29_15h37.41.359,arm3_eps,2022.2.5,Win32,7.500750075,615d50afaa1ddf26457e079c,64c47140896c8c63e34c6d2f,64c51612fa5ae87a355e34f2,right,-1,0.75,0.5,-1,0.026524078,0.4801,4,0,4,0,1,,,,,,,,,,
,,374308,001,2023-07-29_15h37.41.359,arm3_eps,2022.2.5,Win32,7.500750075,615d50afaa1ddf26457e079c,64c47140896c8c63e34c6d2f,64c51612fa5ae87a355e34f2,right,-1,0.75,0.5,-1,0.016243508,0.4926,5,0,5,0,1,,,,,,,,,,
,,374308,001,2023-07-29_15h37.41.359,arm3_eps,2022.2.5,Win32,7.500750075,615d50afaa1ddf26457e079c,64c47140896c8c63e34c6d2f,64c51612fa5ae87a355e34f2,right,-1,0.75,0.5,-1,-0.000265548,0.4856,6,0,6,0,1,,,,,,,,,,
,,374308,001,2023-07-29_15h37.41.359,arm3_eps,2022.2.5,Win32,7.500750075,615d50afaa1ddf26457e079c,64c47140896c8c63e34c6d2f,64c51612fa5ae87a355e34f2,right,-1,0.75,0.5,-1,-0.026054593,0.4894,7,0,7,0,1,,,,,,,,,,
,,374308,001,2023-07-29_15h37.41.359,arm3_eps,2022.2.5,Win32,7.500750075,615d50afaa1ddf26457e079c,64c47140896c8c63e34c6d2f,64c51612fa5ae87a355e34f2,right,-1,0.75,0.5,-1,-0.002570816,0.6433,8,0,8,0,1,,,,,,,,,,
,,374308,001,2023-07-29_15h37.41.359,arm3_eps,2022.2.5,Win32,7.500750075,615d50afaa1ddf26457e079c,64c47140896c8c63e34c6d2f,64c51612fa5ae87a355e34f2,right,-1,0.75,0.5,-1,-0.003164813,0.9556,9,0,9,0,1,,,,,,,,,,
,,374308,001,2023-07-29_15h37.41.359,arm3_eps,2022.2.5,Win32,7.500750075,615d50afaa1ddf26457e079c,64c47140896c8c63e34c6d2f,64c51612fa5ae87a355e34f2,right,-1,0.75,0.5,-1,-0.004126978,0.4758,10,0,10,0,1,,,,,,,,,,
,,374308,001,2023-07-29_15h37.41.359,arm3_eps,2022.2.5,Win32,7.500750075,615d50afaa1ddf26457e079c,64c47140896c8c63e34c6d2f,64c51612fa5ae87a355e34f2,right,-1,0.75,0.5,-1,-0.034425098,0.6341,11,0,11,0,1,,,,,,,,,,
,,374308,001,2023-07-29_15h37.41.359,arm3_eps,2022.2.5,Win32,7.500750075,615d50afaa1ddf26457e079c,64c47140896c8c63e34c6d2f,64c51612fa5ae87a355e34f2,right,-1,0.75,0.5,-1,-0.040374648,0.6351,12,0,12,0,1,,,,,,,,,,
,,374308,001,2023-07-29_15h37.41.359,arm3_eps,2022.2.5,Win32,7.500750075,615d50afaa1ddf26457e079c,64c47140896c8c63e34c6d2f,64c51612fa5ae87a355e34f2,right,-1,0.75,0.5,-1,-0.074752694,0.6343,13,0,13,0,1,,,,,,,,,,
,,374308,001,2023-07-29_15h37.41.359,arm3_eps,2022.2.5,Win32,7.500750075,615d50afaa1ddf26457e079c,64c47140896c8c63e34c6d2f,64c51612fa5ae87a355e34f2,right,-1,0.75,0.5,-1,-0.066955906,0.6375,14,0,14,0,1,,,,,,,,,,
,,374308,001,2023-07-29_15h37.41.359,arm3_eps,2022.2.5,Win32,7.500750075,615d50afaa1ddf26457e079c,64c47140896c8c63e34c6d2f,64c51612fa5ae87a355e34f2,down,1,0.75,0.5,0,0,3.7673,15,0,15,0,1,,,,,,,,,,
,,374308,001,2023-07-29_15h37.41.359,arm3_eps,2022.2.5,Win32,7.500750075,615d50afaa1ddf26457e079c,64c47140896c8c63e34c6d2f,64c51612fa5ae87a355e34f2,right,1,0.75,0.5,0,0.004150984,2.6667,16,0,16,0,1,,,,,,,,,,
,,374308,001,2023-07-29_15h37.41.359,arm3_eps,2022.2.5,Win32,7.500750075,615d50afaa1ddf26457e079c,64c47140896c8c63e34c6d2f,64c51612fa5ae87a355e34f2,right,1,0.75,0.5,0,0.00163374,0.4893,17,0,17,0,1,,,,,,,,,,
,,374308,001,2023-07-29_15h37.41.359,arm3_eps,2022.2.5,Win32,7.500750075,615d50afaa1ddf26457e079c,64c47140896c8c63e34c6d2f,64c51612fa5ae87a355e34f2,right,1,0.75,0.5,0,0.009192805,0.483,18,0,18,0,1,,,,,,,,,,
,,374308,001,2023-07-29_15h37.41.359,arm3_eps,2022.2.5,Win32,7.500750075,615d50afaa1ddf26457e079c,64c47140896c8c63e34c6d2f,64c51612fa5ae87a355e34f2,right,1,0.75,0.5,0,0.007404271,0.4752,19,0,19,0,1,,,,,,,,,,
,,374308,001,2023-07-29_15h37.41.359,arm3_eps,2022.2.5,Win32,7.500750075,615d50afaa1ddf26457e079c,64c47140896c8c63e34c6d2f,64c51612fa5ae87a355e34f2,right,1,0.75,0.5,0,-0.013366536,0.6365,20,0,20,0,1,,,,,,,,,,
,,374308,001,2023-07-29_15h37.41.359,arm3_eps,2022.2.5,Win32,7.500750075,615d50afaa1ddf26457e079c,64c47140896c8c63e34c6d2f,64c51612fa5ae87a355e34f2,right,1,0.75,0.5,0,-0.011884845,0.4818,21,0,21,0,1,,,,,,,,,,
,,374308,001,2023-07-29_15h37.41.359,arm3_eps,2022.2.5,Win32,7.500750075,615d50afaa1ddf26457e079c,64c47140896c8c63e34c6d2f,64c51612fa5ae87a355e34f2,right,1,0.75,0.5,0,-0.013810717,0.6306,22,0,22,0,1,,,,,,,,,,
,,374308,001,2023-07-29_15h37.41.359,arm3_eps,2022.2.5,Win32,7.500750075,615d50afaa1ddf26457e079c,64c47140896c8c63e34c6d2f,64c51612fa5ae87a355e34f2,right,1,0.75,0.5,0,0.019819187,0.7894,23,0,23,0,1,,,,,,,,,,
,,374308,001,2023-07-29_15h37.41.359,arm3_eps,2022.2.5,Win32,7.500750075,615d50afaa1ddf26457e079c,64c47140896c8c63e34c6d2f,64c51612fa5ae87a355e34f2,right,1,0.75,0.5,0,0.039944732,0.6354,24,0,24,0,1,,,,,,,,,,
,,374308,001,2023-07-29_15h37.41.359,arm3_eps,2022.2.5,Win32,7.500750075,615d50afaa1ddf26457e079c,64c47140896c8c63e34c6d2f,64c51612fa5ae87a355e34f2,right,1,0.75,0.5,0,0.063511833,0.6352,25,0,25,0,1,,,,,,,,,,
,,374308,001,2023-07-29_15h37.41.359,arm3_eps,2022.2.5,Win32,7.500750075,615d50afaa1ddf26457e079c,64c47140896c8c63e34c6d2f,64c51612fa5ae87a355e34f2,right,1,0.75,0.5,0,0.060487227,0.6323,26,0,26,0,1,,,,,,,,,,
,,374308,001,2023-07-29_15h37.41.359,arm3_eps,2022.2.5,Win32,7.500750075,615d50afaa1ddf26457e079c,64c47140896c8c63e34c6d2f,64c51612fa5ae87a355e34f2,up,-1,0.75,0.5,1,0,1.5719,27,0,27,0,1,,,,,,,,,,
,,374308,001,2023-07-29_15h37.41.359,arm3_eps,2022.2.5,Win32,7.500750075,615d50afaa1ddf26457e079c,64c47140896c8c63e34c6d2f,64c51612fa5ae87a355e34f2,right,-1,0.75,0.5,1,-0.014486593,2.6545,28,0,28,0,1,,,,,,,,,,
,,374308,001,2023-07-29_15h37.41.359,arm3_eps,2022.2.5,Win32,7.500750075,615d50afaa1ddf26457e079c,64c47140896c8c63e34c6d2f,64c51612fa5ae87a355e34f2,right,-1,0.75,0.5,1,-0.022136148,0.6343,29,0,29,0,1,,,,,,,,,,
,,374308,001,2023-07-29_15h37.41.359,arm3_eps,2022.2.5,Win32,7.500750075,615d50afaa1ddf26457e079c,64c47140896c8c63e34c6d2f,64c51612fa5ae87a355e34f2,right,-1,0.75,0.5,1,-0.050945199,0.9554,30,0,30,0,1,,,,,,,,,,
,,374308,001,2023-07-29_15h37.41.359,arm3_eps,2022.2.5,Win32,7.500750075,615d50afaa1ddf26457e079c,64c47140896c8c63e34c6d2f,64c51612fa5ae87a355e34f2,right,-1,0.75,0.5,1,-0.050594798,1.8923,31,0,31,0,1,,,,,,,,,,
,,374308,001,2023-07-29_15h37.41.359,arm3_eps,2022.2.5,Win32,7.500750075,615d50afaa1ddf26457e079c,64c47140896c8c63e34c6d2f,64c51612fa5ae87a355e34f2,right,-1,0.75,0.5,1,-0.069126178,0.6381,32,0,32,0,1,,,,,,,,,,
,,374308,001,2023-07-29_15h37.41.359,arm3_eps,2022.2.5,Win32,7.500750075,615d50afaa1ddf26457e079c,64c47140896c8c63e34c6d2f,64c51612fa5ae87a355e34f2,right,-1,0.75,0.5,1,-0.060114647,0.6401,33,0,33,0,1,,,,,,,,,,
,,374308,001,2023-07-29_15h37.41.359,arm3_eps,2022.2.5,Win32,7.500750075,615d50afaa1ddf26457e079c,64c47140896c8c63e34c6d2f,64c51612fa5ae87a355e34f2,down,1,0.75,0.5,2,0,1.1005,34,0,34,0,1,,,,,,,,,,
,,374308,001,2023-07-29_15h37.41.359,arm3_eps,2022.2.5,Win32,7.500750075,615d50afaa1ddf26457e079c,64c47140896c8c63e34c6d2f,64c51612fa5ae87a355e34f2,right,1,0.75,0.5,2,0.002489419,1.878,35,0,35,0,1,,,,,,,,,,
,,374308,001,2023-07-29_15h37.41.359,arm3_eps,2022.2.5,Win32,7.500750075,615d50afaa1ddf26457e079c,64c47140896c8c63e34c6d2f,64c51612fa5ae87a355e34f2,right,1,0.75,0.5,2,-0.017753669,0.634,36,0,36,0,1,,,,,,,,,,
,,374308,001,2023-07-29_15h37.41.359,arm3_eps,2022.2.5,Win32,7.500750075,615d50afaa1ddf26457e079c,64c47140896c8c63e34c6d2f,64c51612fa5ae87a355e34f2,right,1,0.75,0.5,2,-0.012970459,0.6392,37,0,37,0,1,,,,,,,,,,
,,374308,001,2023-07-29_15h37.41.359,arm3_eps,2022.2.5,Win32,7.500750075,615d50afaa1ddf26457e079c,64c47140896c8c63e34c6d2f,64c51612fa5ae87a355e34f2,right,1,0.75,0.5,2,-0.000105672,0.7888,38,0,38,0,1,,,,,,,,,,
,,374308,001,2023-07-29_15h37.41.359,arm3_eps,2022.2.5,Win32,7.500750075,615d50afaa1ddf26457e079c,64c47140896c8c63e34c6d2f,64c51612fa5ae87a355e34f2,right,1,0.75,0.5,2,-0.023390735,0.6317,39,0,39,0,1,,,,,,,,,,
,,374308,001,2023-07-29_15h37.41.359,arm3_eps,2022.2.5,Win32,7.500750075,615d50afaa1ddf26457e079c,64c47140896c8c63e34c6d2f,64c51612fa5ae87a355e34f2,down,-1,0.75,0.5,1,0,1.1018,40,0,40,0,1,,,,,,,,,,
,,374308,001,2023-07-29_15h37.41.359,arm3_eps,2022.2.5,Win32,7.500750075,615d50afaa1ddf26457e079c,64c47140896c8c63e34c6d2f,64c51612fa5ae87a355e34f2,right,-1,0.75,0.5,1,-0.006662943,1.4035,41,0,41,0,1,,,,,,,,,,
,,374308,001,2023-07-29_15h37.41.359,arm3_eps,2022.2.5,Win32,7.500750075,615d50afaa1ddf26457e079c,64c47140896c8c63e34c6d2f,64c51612fa5ae87a355e34f2,right,-1,0.75,0.5,1,-0.012414468,0.7852,42,0,42,0,1,,,,,,,,,,
,,374308,001,2023-07-29_15h37.41.359,arm3_eps,2022.2.5,Win32,7.500750075,615d50afaa1ddf26457e079c,64c47140896c8c63e34c6d2f,64c51612fa5ae87a355e34f2,right,-1,0.75,0.5,1,-0.042678048,0.7873,43,0,43,0,1,,,,,,,,,,
,,374308,001,2023-07-29_15h37.41.359,arm3_eps,2022.2.5,Win32,7.500750075,615d50afaa1ddf26457e079c,64c47140896c8c63e34c6d2f,64c51612fa5ae87a355e34f2,right,-1,0.75,0.5,1,-0.024872938,0.4782,44,0,44,0,1,,,,,,,,,,
,,374308,001,2023-07-29_15h37.41.359,arm3_eps,2022.2.5,Win32,7.500750075,615d50afaa1ddf26457e079c,64c47140896c8c63e34c6d2f,64c51612fa5ae87a355e34f2,right,-1,0.75,0.5,1,-0.057130651,0.7924,45,0,45,0,1,,,,,,,,,,
,,374308,001,2023-07-29_15h37.41.359,arm3_eps,2022.2.5,Win32,7.500750075,615d50afaa1ddf26457e079c,64c47140896c8c63e34c6d2f,64c51612fa5ae87a355e34f2,right,-1,0.75,0.5,1,-0.079300227,0.4914,46,0,46,0,1,,,,,,,,,,
,,374308,001,2023-07-29_15h37.41.359,arm3_eps,2022.2.5,Win32,7.500750075,615d50afaa1ddf26457e079c,64c47140896c8c63e34c6d2f,64c51612fa5ae87a355e34f2,down,1,0.75,0.5,2,0,0.9647,47,0,47,0,1,,,,,,,,,,
,,374308,001,2023-07-29_15h37.41.359,arm3_eps,2022.2.5,Win32,7.500750075,615d50afaa1ddf26457e079c,64c47140896c8c63e34c6d2f,64c51612fa5ae87a355e34f2,right,1,0.75,0.5,2,-0.033963837,2.2142,48,0,48,0,1,,,,,,,,,,
,,374308,001,2023-07-29_15h37.41.359,arm3_eps,2022.2.5,Win32,7.500750075,615d50afaa1ddf26457e079c,64c47140896c8c63e34c6d2f,64c51612fa5ae87a355e34f2,right,1,0.75,0.5,2,0.01022351,0.6304,49,0,49,0,1,,,,,,,,,,
space,66.1433,374308,001,2023-07-29_15h37.41.359,arm3_eps,2022.2.5,Win32,7.500750075,615d50afaa1ddf26457e079c,64c47140896c8c63e34c6d2f,64c51612fa5ae87a355e34f2,,,,,,,,,,,,,,,,,,,,,,
space,13.1483,374308,001,2023-07-29_15h37.41.359,arm3_eps,2022.2.5,Win32,7.500750075,615d50afaa1ddf26457e079c,64c47140896c8c63e34c6d2f,64c51612fa5ae87a355e34f2,right,1,0.75,0.1143,0,0.014411257,3.1527,,,,,,0,0,0,0,1,,,,,
,,374308,001,2023-07-29_15h37.41.359,arm3_eps,2022.2.5,Win32,7.500750075,615d50afaa1ddf26457e079c,64c47140896c8c63e34c6d2f,64c51612fa5ae87a355e34f2,right,1,0.75,0.1143,0,0.004567795,0.6333,,,,,,1,0,1,0,1,,,,,
,,374308,001,2023-07-29_15h37.41.359,arm3_eps,2022.2.5,Win32,7.500750075,615d50afaa1ddf26457e079c,64c47140896c8c63e34c6d2f,64c51612fa5ae87a355e34f2,right,1,0.75,0.1143,0,0.022886462,0.6325,,,,,,2,0,2,0,1,,,,,
,,374308,001,2023-07-29_15h37.41.359,arm3_eps,2022.2.5,Win32,7.500750075,615d50afaa1ddf26457e079c,64c47140896c8c63e34c6d2f,64c51612fa5ae87a355e34f2,right,1,0.75,0.1143,0,0.020186516,0.6349,,,,,,3,0,3,0,1,,,,,
,,374308,001,2023-07-29_15h37.41.359,arm3_eps,2022.2.5,Win32,7.500750075,615d50afaa1ddf26457e079c,64c47140896c8c63e34c6d2f,64c51612fa5ae87a355e34f2,right,1,0.75,0.1143,0,0.03200922,0.4899,,,,,,4,0,4,0,1,,,,,
,,374308,001,2023-07-29_15h37.41.359,arm3_eps,2022.2.5,Win32,7.500750075,615d50afaa1ddf26457e079c,64c47140896c8c63e34c6d2f,64c51612fa5ae87a355e34f2,right,1,0.75,0.1143,0,0.054211652,0.4946,,,,,,5,0,5,0,1,,,,,
,,374308,001,2023-07-29_15h37.41.359,arm3_eps,2022.2.5,Win32,7.500750075,615d50afaa1ddf26457e079c,64c47140896c8c63e34c6d2f,64c51612fa5ae87a355e34f2,up,1,0.75,0.1143,0,0,0.4975,,,,,,6,0,6,0,1,,,,,
,,374308,001,2023-07-29_15h37.41.359,arm3_eps,2022.2.5,Win32,7.500750075,615d50afaa1ddf26457e079c,64c47140896c8c63e34c6d2f,64c51612fa5ae87a355e34f2,right,1,0.75,0.1143,0,0.039072092,2.3419,,,,,,7,0,7,0,1,,,,,
,,374308,001,2023-07-29_15h37.41.359,arm3_eps,2022.2.5,Win32,7.500750075,615d50afaa1ddf26457e079c,64c47140896c8c63e34c6d2f,64c51612fa5ae87a355e34f2,right,1,0.75,0.1143,0,0.065976384,0.6299,,,,,,8,0,8,0,1,,,,,
,,374308,001,2023-07-29_15h37.41.359,arm3_eps,2022.2.5,Win32,7.500750075,615d50afaa1ddf26457e079c,64c47140896c8c63e34c6d2f,64c51612fa5ae87a355e34f2,right,1,0.75,0.1143,0,0.082698192,0.3171,,,,,,9,0,9,0,1,,,,,
,,374308,001,2023-07-29_15h37.41.359,arm3_eps,2022.2.5,Win32,7.500750075,615d50afaa1ddf26457e079c,64c47140896c8c63e34c6d2f,64c51612fa5ae87a355e34f2,up,1,0.75,0.1143,0,0,0.9472,,,,,,10,0,10,0,1,,,,,
,,374308,001,2023-07-29_15h37.41.359,arm3_eps,2022.2.5,Win32,7.500750075,615d50afaa1ddf26457e079c,64c47140896c8c63e34c6d2f,64c51612fa5ae87a355e34f2,right,1,0.75,0.1143,0,0.003008615,1.4023,,,,,,11,0,11,0,1,,,,,
,,374308,001,2023-07-29_15h37.41.359,arm3_eps,2022.2.5,Win32,7.500750075,615d50afaa1ddf26457e079c,64c47140896c8c63e34c6d2f,64c51612fa5ae87a355e34f2,right,1,0.75,0.1143,0,0.029587147,0.6327,,,,,,12,0,12,0,1,,,,,
,,374308,001,2023-07-29_15h37.41.359,arm3_eps,2022.2.5,Win32,7.500750075,615d50afaa1ddf26457e079c,64c47140896c8c63e34c6d2f,64c51612fa5ae87a355e34f2,right,1,0.75,0.1143,0,0.034807318,0.7873,,,,,,13,0,13,0,1,,,,,
,,374308,001,2023-07-29_15h37.41.359,arm3_eps,2022.2.5,Win32,7.500750075,615d50afaa1ddf26457e079c,64c47140896c8c63e34c6d2f,64c51612fa5ae87a355e34f2,up,1,0.75,0.1143,0,0,1.1057,,,,,,14,0,14,0,1,,,,,
,,374308,001,2023-07-29_15h37.41.359,arm3_eps,2022.2.5,Win32,7.500750075,615d50afaa1ddf26457e079c,64c47140896c8c63e34c6d2f,64c51612fa5ae87a355e34f2,right,1,0.75,0.1143,0,0.018457107,2.0274,,,,,,15,0,15,0,1,,,,,
,,374308,001,2023-07-29_15h37.41.359,arm3_eps,2022.2.5,Win32,7.500750075,615d50afaa1ddf26457e079c,64c47140896c8c63e34c6d2f,64c51612fa5ae87a355e34f2,right,1,0.75,0.1143,0,0.034346844,0.4776,,,,,,16,0,16,0,1,,,,,
,,374308,001,2023-07-29_15h37.41.359,arm3_eps,2022.2.5,Win32,7.500750075,615d50afaa1ddf26457e079c,64c47140896c8c63e34c6d2f,64c51612fa5ae87a355e34f2,up,1,0.75,0.1143,1,0,0.946,,,,,,17,0,17,0,1,,,,,
,,374308,001,2023-07-29_15h37.41.359,arm3_eps,2022.2.5,Win32,7.500750075,615d50afaa1ddf26457e079c,64c47140896c8c63e34c6d2f,64c51612fa5ae87a355e34f2,up,1,0.75,0.1143,2,0,2.1792,,,,,,18,0,18,0,1,,,,,
,,374308,001,2023-07-29_15h37.41.359,arm3_eps,2022.2.5,Win32,7.500750075,615d50afaa1ddf26457e079c,64c47140896c8c63e34c6d2f,64c51612fa5ae87a355e34f2,up,1,0.75,0.1143,3,0,2.1984,,,,,,19,0,19,0,1,,,,,
,,374308,001,2023-07-29_15h37.41.359,arm3_eps,2022.2.5,Win32,7.500750075,615d50afaa1ddf26457e079c,64c47140896c8c63e34c6d2f,64c51612fa5ae87a355e34f2,up,1,0.75,0.1143,4,0,2.0232,,,,,,20,0,20,0,1,,,,,
,,374308,001,2023-07-29_15h37.41.359,arm3_eps,2022.2.5,Win32,7.500750075,615d50afaa1ddf26457e079c,64c47140896c8c63e34c6d2f,64c51612fa5ae87a355e34f2,up,1,0.75,0.1143,5,0,2.1889,,,,,,21,0,21,0,1,,,,,
,,374308,001,2023-07-29_15h37.41.359,arm3_eps,2022.2.5,Win32,7.500750075,615d50afaa1ddf26457e079c,64c47140896c8c63e34c6d2f,64c51612fa5ae87a355e34f2,up,1,0.75,0.1143,6,0,2.0412,,,,,,22,0,22,0,1,,,,,
,,374308,001,2023-07-29_15h37.41.359,arm3_eps,2022.2.5,Win32,7.500750075,615d50afaa1ddf26457e079c,64c47140896c8c63e34c6d2f,64c51612fa5ae87a355e34f2,up,1,0.75,0.1143,7,0,1.8718,,,,,,23,0,23,0,1,,,,,
,,374308,001,2023-07-29_15h37.41.359,arm3_eps,2022.2.5,Win32,7.500750075,615d50afaa1ddf26457e079c,64c47140896c8c63e34c6d2f,64c51612fa5ae87a355e34f2,up,1,0.75,0.1143,7,0,2.022,,,,,,24,0,24,0,1,,,,,
,,374308,001,2023-07-29_15h37.41.359,arm3_eps,2022.2.5,Win32,7.500750075,615d50afaa1ddf26457e079c,64c47140896c8c63e34c6d2f,64c51612fa5ae87a355e34f2,up,1,0.75,0.1143,8,0,2.1984,,,,,,25,0,25,0,1,,,,,
,,374308,001,2023-07-29_15h37.41.359,arm3_eps,2022.2.5,Win32,7.500750075,615d50afaa1ddf26457e079c,64c47140896c8c63e34c6d2f,64c51612fa5ae87a355e34f2,up,1,0.75,0.1143,9,0,2.1912,,,,,,26,0,26,0,1,,,,,
,,374308,001,2023-07-29_15h37.41.359,arm3_eps,2022.2.5,Win32,7.500750075,615d50afaa1ddf26457e079c,64c47140896c8c63e34c6d2f,64c51612fa5ae87a355e34f2,up,1,0.75,0.1143,9,0,2.0297,,,,,,27,0,27,0,1,,,,,
,,374308,001,2023-07-29_15h37.41.359,arm3_eps,2022.2.5,Win32,7.500750075,615d50afaa1ddf26457e079c,64c47140896c8c63e34c6d2f,64c51612fa5ae87a355e34f2,up,1,0.75,0.1143,10,0,2.0329,,,,,,28,0,28,0,1,,,,,
,,374308,001,2023-07-29_15h37.41.359,arm3_eps,2022.2.5,Win32,7.500750075,615d50afaa1ddf26457e079c,64c47140896c8c63e34c6d2f,64c51612fa5ae87a355e34f2,up,-1,0.75,0.1143,11,0,2.025,,,,,,29,0,29,0,1,,,,,
,,374308,001,2023-07-29_15h37.41.359,arm3_eps,2022.2.5,Win32,7.500750075,615d50afaa1ddf26457e079c,64c47140896c8c63e34c6d2f,64c51612fa5ae87a355e34f2,up,-1,0.75,0.1143,10,0,2.0304,,,,,,30,0,30,0,1,,,,,
,,374308,001,2023-07-29_15h37.41.359,arm3_eps,2022.2.5,Win32,7.500750075,615d50afaa1ddf26457e079c,64c47140896c8c63e34c6d2f,64c51612fa5ae87a355e34f2,right,-1,0.75,0.1143,10,0.00193991,1.8992,,,,,,31,0,31,0,1,,,,,
,,374308,001,2023-07-29_15h37.41.359,arm3_eps,2022.2.5,Win32,7.500750075,615d50afaa1ddf26457e079c,64c47140896c8c63e34c6d2f,64c51612fa5ae87a355e34f2,right,-1,0.75,0.1143,10,-0.007943661,0.4927,,,,,,32,0,32,0,1,,,,,
,,374308,001,2023-07-29_15h37.41.359,arm3_eps,2022.2.5,Win32,7.500750075,615d50afaa1ddf26457e079c,64c47140896c8c63e34c6d2f,64c51612fa5ae87a355e34f2,right,-1,0.75,0.1143,10,-0.00643409,0.4812,,,,,,33,0,33,0,1,,,,,
,,374308,001,2023-07-29_15h37.41.359,arm3_eps,2022.2.5,Win32,7.500750075,615d50afaa1ddf26457e079c,64c47140896c8c63e34c6d2f,64c51612fa5ae87a355e34f2,right,-1,0.75,0.1143,10,0.016379327,0.4764,,,,,,34,0,34,0,1,,,,,
,,374308,001,2023-07-29_15h37.41.359,arm3_eps,2022.2.5,Win32,7.500750075,615d50afaa1ddf26457e079c,64c47140896c8c63e34c6d2f,64c51612fa5ae87a355e34f2,right,-1,0.75,0.1143,10,0.026038233,0.6367,,,,,,35,0,35,0,1,,,,,
,,374308,001,2023-07-29_15h37.41.359,arm3_eps,2022.2.5,Win32,7.500750075,615d50afaa1ddf26457e079c,64c47140896c8c63e34c6d2f,64c51612fa5ae87a355e34f2,right,-1,0.75,0.1143,10,0.024281155,0.4744,,,,,,36,0,36,0,1,,,,,
,,374308,001,2023-07-29_15h37.41.359,arm3_eps,2022.2.5,Win32,7.500750075,615d50afaa1ddf26457e079c,64c47140896c8c63e34c6d2f,64c51612fa5ae87a355e34f2,down,1,0.75,0.1143,11,0,1.1067,,,,,,37,0,37,0,1,,,,,
,,374308,001,2023-07-29_15h37.41.359,arm3_eps,2022.2.5,Win32,7.500750075,615d50afaa1ddf26457e079c,64c47140896c8c63e34c6d2f,64c51612fa5ae87a355e34f2,down,1,0.75,0.1143,10,0,1.8997,,,,,,38,0,38,0,1,,,,,
,,374308,001,2023-07-29_15h37.41.359,arm3_eps,2022.2.5,Win32,7.500750075,615d50afaa1ddf26457e079c,64c47140896c8c63e34c6d2f,64c51612fa5ae87a355e34f2,right,1,0.75,0.1143,10,-0.007061485,4.0729,,,,,,39,0,39,0,1,,,,,
,,374308,001,2023-07-29_15h37.41.359,arm3_eps,2022.2.5,Win32,7.500750075,615d50afaa1ddf26457e079c,64c47140896c8c63e34c6d2f,64c51612fa5ae87a355e34f2,right,1,0.75,0.1143,10,-0.011745655,0.9443,,,,,,40,0,40,0,1,,,,,
,,374308,001,2023-07-29_15h37.41.359,arm3_eps,2022.2.5,Win32,7.500750075,615d50afaa1ddf26457e079c,64c47140896c8c63e34c6d2f,64c51612fa5ae87a355e34f2,right,1,0.75,0.1143,10,-0.017058755,0.4818,,,,,,41,0,41,0,1,,,,,
,,374308,001,2023-07-29_15h37.41.359,arm3_eps,2022.2.5,Win32,7.500750075,615d50afaa1ddf26457e079c,64c47140896c8c63e34c6d2f,64c51612fa5ae87a355e34f2,right,1,0.75,0.1143,10,0.007830921,0.4742,,,,,,42,0,42,0,1,,,,,
,,374308,001,2023-07-29_15h37.41.359,arm3_eps,2022.2.5,Win32,7.500750075,615d50afaa1ddf26457e079c,64c47140896c8c63e34c6d2f,64c51612fa5ae87a355e34f2,right,1,0.75,0.1143,10,-0.004439752,0.4834,,,,,,43,0,43,0,1,,,,,
,,374308,001,2023-07-29_15h37.41.359,arm3_eps,2022.2.5,Win32,7.500750075,615d50afaa1ddf26457e079c,64c47140896c8c63e34c6d2f,64c51612fa5ae87a355e34f2,right,1,0.75,0.1143,10,0.006546063,0.4771,,,,,,44,0,44,0,1,,,,,
,,374308,001,2023-07-29_15h37.41.359,arm3_eps,2022.2.5,Win32,7.500750075,615d50afaa1ddf26457e079c,64c47140896c8c63e34c6d2f,64c51612fa5ae87a355e34f2,right,1,0.75,0.1143,10,0.021508965,0.3188,,,,,,45,0,45,0,1,,,,,
,,374308,001,2023-07-29_15h37.41.359,arm3_eps,2022.2.5,Win32,7.500750075,615d50afaa1ddf26457e079c,64c47140896c8c63e34c6d2f,64c51612fa5ae87a355e34f2,right,1,0.75,0.1143,10,0.013430501,0.483,,,,,,46,0,46,0,1,,,,,
,,374308,001,2023-07-29_15h37.41.359,arm3_eps,2022.2.5,Win32,7.500750075,615d50afaa1ddf26457e079c,64c47140896c8c63e34c6d2f,64c51612fa5ae87a355e34f2,right,1,0.75,0.1143,10,0.022432019,0.7952,,,,,,47,0,47,0,1,,,,,
,,374308,001,2023-07-29_15h37.41.359,arm3_eps,2022.2.5,Win32,7.500750075,615d50afaa1ddf26457e079c,64c47140896c8c63e34c6d2f,64c51612fa5ae87a355e34f2,right,1,0.75,0.1143,10,0.049813327,0.4757,,,,,,48,0,48,0,1,,,,,
,,374308,001,2023-07-29_15h37.41.359,arm3_eps,2022.2.5,Win32,7.500750075,615d50afaa1ddf26457e079c,64c47140896c8c63e34c6d2f,64c51612fa5ae87a355e34f2,right,1,0.75,0.1143,10,0.057191301,0.4795,,,,,,49,0,49,0,1,,,,,
,,374308,001,2023-07-29_15h37.41.359,arm3_eps,2022.2.5,Win32,7.500750075,615d50afaa1ddf26457e079c,64c47140896c8c63e34c6d2f,64c51612fa5ae87a355e34f2,right,1,0.75,0.1143,10,0.06699877,0.4845,,,,,,50,0,50,0,1,,,,,
,,374308,001,2023-07-29_15h37.41.359,arm3_eps,2022.2.5,Win32,7.500750075,615d50afaa1ddf26457e079c,64c47140896c8c63e34c6d2f,64c51612fa5ae87a355e34f2,down,1,0.75,0.1143,9,0,1.7386,,,,,,51,0,51,0,1,,,,,
,,374308,001,2023-07-29_15h37.41.359,arm3_eps,2022.2.5,Win32,7.500750075,615d50afaa1ddf26457e079c,64c47140896c8c63e34c6d2f,64c51612fa5ae87a355e34f2,right,1,0.75,0.1143,9,0.018660373,3.6006,,,,,,52,0,52,0,1,,,,,
,,374308,001,2023-07-29_15h37.41.359,arm3_eps,2022.2.5,Win32,7.500750075,615d50afaa1ddf26457e079c,64c47140896c8c63e34c6d2f,64c51612fa5ae87a355e34f2,right,1,0.75,0.1143,9,0.020899357,0.4915,,,,,,53,0,53,0,1,,,,,
,,374308,001,2023-07-29_15h37.41.359,arm3_eps,2022.2.5,Win32,7.500750075,615d50afaa1ddf26457e079c,64c47140896c8c63e34c6d2f,64c51612fa5ae87a355e34f2,right,1,0.75,0.1143,9,0.013751843,0.1645,,,,,,54,0,54,0,1,,,,,
,,374308,001,2023-07-29_15h37.41.359,arm3_eps,2022.2.5,Win32,7.500750075,615d50afaa1ddf26457e079c,64c47140896c8c63e34c6d2f,64c51612fa5ae87a355e34f2,right,1,0.75,0.1143,9,0.007535353,0.4878,,,,,,55,0,55,0,1,,,,,
,,374308,001,2023-07-29_15h37.41.359,arm3_eps,2022.2.5,Win32,7.500750075,615d50afaa1ddf26457e079c,64c47140896c8c63e34c6d2f,64c51612fa5ae87a355e34f2,right,1,0.75,0.1143,9,0.031127069,0.3264,,,,,,56,0,56,0,1,,,,,
,,374308,001,2023-07-29_15h37.41.359,arm3_eps,2022.2.5,Win32,7.500750075,615d50afaa1ddf26457e079c,64c47140896c8c63e34c6d2f,64c51612fa5ae87a355e34f2,right,1,0.75,0.1143,9,-0.001444978,0.4874,,,,,,57,0,57,0,1,,,,,
,,374308,001,2023-07-29_15h37.41.359,arm3_eps,2022.2.5,Win32,7.500750075,615d50afaa1ddf26457e079c,64c47140896c8c63e34c6d2f,64c51612fa5ae87a355e34f2,right,1,0.75,0.1143,9,-0.004502135,0.4896,,,,,,58,0,58,0,1,,,,,
,,374308,001,2023-07-29_15h37.41.359,arm3_eps,2022.2.5,Win32,7.500750075,615d50afaa1ddf26457e079c,64c47140896c8c63e34c6d2f,64c51612fa5ae87a355e34f2,right,1,0.75,0.1143,9,0.008146638,0.8003,,,,,,59,0,59,0,1,,,,,
,,374308,001,2023-07-29_15h37.41.359,arm3_eps,2022.2.5,Win32,7.500750075,615d50afaa1ddf26457e079c,64c47140896c8c63e34c6d2f,64c51612fa5ae87a355e34f2,right,1,0.75,0.1143,9,0.019172775,0.4775,,,,,,60,0,60,0,1,,,,,
,,374308,001,2023-07-29_15h37.41.359,arm3_eps,2022.2.5,Win32,7.500750075,615d50afaa1ddf26457e079c,64c47140896c8c63e34c6d2f,64c51612fa5ae87a355e34f2,right,1,0.75,0.1143,9,0.028879763,0.4806,,,,,,61,0,61,0,1,,,,,
,,374308,001,2023-07-29_15h37.41.359,arm3_eps,2022.2.5,Win32,7.500750075,615d50afaa1ddf26457e079c,64c47140896c8c63e34c6d2f,64c51612fa5ae87a355e34f2,right,1,0.75,0.1143,9,0.044600016,0.4789,,,,,,62,0,62,0,1,,,,,
,,374308,001,2023-07-29_15h37.41.359,arm3_eps,2022.2.5,Win32,7.500750075,615d50afaa1ddf26457e079c,64c47140896c8c63e34c6d2f,64c51612fa5ae87a355e34f2,up,1,0.75,0.1143,10,0,0.7909,,,,,,63,0,63,0,1,,,,,
,,374308,001,2023-07-29_15h37.41.359,arm3_eps,2022.2.5,Win32,7.500750075,615d50afaa1ddf26457e079c,64c47140896c8c63e34c6d2f,64c51612fa5ae87a355e34f2,up,1,0.75,0.1143,11,0,1.8772,,,,,,64,0,64,0,1,,,,,
,,374308,001,2023-07-29_15h37.41.359,arm3_eps,2022.2.5,Win32,7.500750075,615d50afaa1ddf26457e079c,64c47140896c8c63e34c6d2f,64c51612fa5ae87a355e34f2,up,1,0.75,0.1143,11,0,2.7008,,,,,,65,0,65,0,1,,,,,
,,374308,001,2023-07-29_15h37.41.359,arm3_eps,2022.2.5,Win32,7.500750075,615d50afaa1ddf26457e079c,64c47140896c8c63e34c6d2f,64c51612fa5ae87a355e34f2,up,1,0.75,0.1143,12,0,2.0569,,,,,,66,0,66,0,1,,,,,
,,374308,001,2023-07-29_15h37.41.359,arm3_eps,2022.2.5,Win32,7.500750075,615d50afaa1ddf26457e079c,64c47140896c8c63e34c6d2f,64c51612fa5ae87a355e34f2,up,1,0.75,0.1143,13,0,2.0328,,,,,,67,0,67,0,1,,,,,
,,374308,001,2023-07-29_15h37.41.359,arm3_eps,2022.2.5,Win32,7.500750075,615d50afaa1ddf26457e079c,64c47140896c8c63e34c6d2f,64c51612fa5ae87a355e34f2,up,1,0.75,0.1143,14,0,2.0531,,,,,,68,0,68,0,1,,,,,
,,374308,001,2023-07-29_15h37.41.359,arm3_eps,2022.2.5,Win32,7.500750075,615d50afaa1ddf26457e079c,64c47140896c8c63e34c6d2f,64c51612fa5ae87a355e34f2,up,1,0.75,0.1143,15,0,2.0728,,,,,,69,0,69,0,1,,,,,
,,374308,001,2023-07-29_15h37.41.359,arm3_eps,2022.2.5,Win32,7.500750075,615d50afaa1ddf26457e079c,64c47140896c8c63e34c6d2f,64c51612fa5ae87a355e34f2,up,1,0.75,0.1143,15,0,1.9207,,,,,,70,0,70,0,1,,,,,
,,374308,001,2023-07-29_15h37.41.359,arm3_eps,2022.2.5,Win32,7.500750075,615d50afaa1ddf26457e079c,64c47140896c8c63e34c6d2f,64c51612fa5ae87a355e34f2,up,1,0.75,0.1143,16,0,1.9035,,,,,,71,0,71,0,1,,,,,
,,374308,001,2023-07-29_15h37.41.359,arm3_eps,2022.2.5,Win32,7.500750075,615d50afaa1ddf26457e079c,64c47140896c8c63e34c6d2f,64c51612fa5ae87a355e34f2,up,1,0.75,0.1143,17,0,2.0355,,,,,,72,0,72,0,1,,,,,
,,374308,001,2023-07-29_15h37.41.359,arm3_eps,2022.2.5,Win32,7.500750075,615d50afaa1ddf26457e079c,64c47140896c8c63e34c6d2f,64c51612fa5ae87a355e34f2,up,1,0.75,0.1143,18,0,2.0554,,,,,,73,0,73,0,1,,,,,
,,374308,001,2023-07-29_15h37.41.359,arm3_eps,2022.2.5,Win32,7.500750075,615d50afaa1ddf26457e079c,64c47140896c8c63e34c6d2f,64c51612fa5ae87a355e34f2,up,1,0.75,0.1143,19,0,1.8832,,,,,,74,0,74,0,1,,,,,
,,374308,001,2023-07-29_15h37.41.359,arm3_eps,2022.2.5,Win32,7.500750075,615d50afaa1ddf26457e079c,64c47140896c8c63e34c6d2f,64c51612fa5ae87a355e34f2,up,1,0.75,0.1143,20,0,2.0312,,,,,,75,0,75,0,1,,,,,
,,374308,001,2023-07-29_15h37.41.359,arm3_eps,2022.2.5,Win32,7.500750075,615d50afaa1ddf26457e079c,64c47140896c8c63e34c6d2f,64c51612fa5ae87a355e34f2,up,1,0.75,0.1143,21,0,1.7267,,,,,,76,0,76,0,1,,,,,
,,374308,001,2023-07-29_15h37.41.359,arm3_eps,2022.2.5,Win32,7.500750075,615d50afaa1ddf26457e079c,64c47140896c8c63e34c6d2f,64c51612fa5ae87a355e34f2,up,1,0.75,0.1143,22,0,1.8786,,,,,,77,0,77,0,1,,,,,
,,374308,001,2023-07-29_15h37.41.359,arm3_eps,2022.2.5,Win32,7.500750075,615d50afaa1ddf26457e079c,64c47140896c8c63e34c6d2f,64c51612fa5ae87a355e34f2,up,1,0.75,0.1143,23,0,2.0391,,,,,,78,0,78,0,1,,,,,
,,374308,001,2023-07-29_15h37.41.359,arm3_eps,2022.2.5,Win32,7.500750075,615d50afaa1ddf26457e079c,64c47140896c8c63e34c6d2f,64c51612fa5ae87a355e34f2,up,1,0.75,0.1143,24,0,1.881,,,,,,79,0,79,0,1,,,,,
,,374308,001,2023-07-29_15h37.41.359,arm3_eps,2022.2.5,Win32,7.500750075,615d50afaa1ddf26457e079c,64c47140896c8c63e34c6d2f,64c51612fa5ae87a355e34f2,up,1,0.75,0.1143,25,0,1.8784,,,,,,80,0,80,0,1,,,,,
,,374308,001,2023-07-29_15h37.41.359,arm3_eps,2022.2.5,Win32,7.500750075,615d50afaa1ddf26457e079c,64c47140896c8c63e34c6d2f,64c51612fa5ae87a355e34f2,up,1,0.75,0.1143,25,0,2.0473,,,,,,81,0,81,0,1,,,,,
,,374308,001,2023-07-29_15h37.41.359,arm3_eps,2022.2.5,Win32,7.500750075,615d50afaa1ddf26457e079c,64c47140896c8c63e34c6d2f,64c51612fa5ae87a355e34f2,up,1,0.75,0.1143,26,0,2.5121,,,,,,82,0,82,0,1,,,,,
,,374308,001,2023-07-29_15h37.41.359,arm3_eps,2022.2.5,Win32,7.500750075,615d50afaa1ddf26457e079c,64c47140896c8c63e34c6d2f,64c51612fa5ae87a355e34f2,up,1,0.75,0.1143,27,0,1.913,,,,,,83,0,83,0,1,,,,,
,,374308,001,2023-07-29_15h37.41.359,arm3_eps,2022.2.5,Win32,7.500750075,615d50afaa1ddf26457e079c,64c47140896c8c63e34c6d2f,64c51612fa5ae87a355e34f2,up,1,0.75,0.1143,28,0,2.2235,,,,,,84,0,84,0,1,,,,,
,,374308,001,2023-07-29_15h37.41.359,arm3_eps,2022.2.5,Win32,7.500750075,615d50afaa1ddf26457e079c,64c47140896c8c63e34c6d2f,64c51612fa5ae87a355e34f2,up,1,0.75,0.1143,28,0,2.6773,,,,,,85,0,85,0,1,,,,,
,,374308,001,2023-07-29_15h37.41.359,arm3_eps,2022.2.5,Win32,7.500750075,615d50afaa1ddf26457e079c,64c47140896c8c63e34c6d2f,64c51612fa5ae87a355e34f2,up,1,0.75,0.1143,29,0,2.0341,,,,,,86,0,86,0,1,,,,,
,,374308,001,2023-07-29_15h37.41.359,arm3_eps,2022.2.5,Win32,7.500750075,615d50afaa1ddf26457e079c,64c47140896c8c63e34c6d2f,64c51612fa5ae87a355e34f2,up,-1,0.75,0.1143,30,0,2.1885,,,,,,87,0,87,0,1,,,,,
,,374308,001,2023-07-29_15h37.41.359,arm3_eps,2022.2.5,Win32,7.500750075,615d50afaa1ddf26457e079c,64c47140896c8c63e34c6d2f,64c51612fa5ae87a355e34f2,up,1,0.75,0.1143,30,0,2.2062,,,,,,88,0,88,0,1,,,,,
,,374308,001,2023-07-29_15h37.41.359,arm3_eps,2022.2.5,Win32,7.500750075,615d50afaa1ddf26457e079c,64c47140896c8c63e34c6d2f,64c51612fa5ae87a355e34f2,up,1,0.75,0.1143,31,0,1.8968,,,,,,89,0,89,0,1,,,,,
,,374308,001,2023-07-29_15h37.41.359,arm3_eps,2022.2.5,Win32,7.500750075,615d50afaa1ddf26457e079c,64c47140896c8c63e34c6d2f,64c51612fa5ae87a355e34f2,up,1,0.75,0.1143,31,0,2.0801,,,,,,90,0,90,0,1,,,,,
,,374308,001,2023-07-29_15h37.41.359,arm3_eps,2022.2.5,Win32,7.500750075,615d50afaa1ddf26457e079c,64c47140896c8c63e34c6d2f,64c51612fa5ae87a355e34f2,up,1,0.75,0.1143,31,0,2.3505,,,,,,91,0,91,0,1,,,,,
,,374308,001,2023-07-29_15h37.41.359,arm3_eps,2022.2.5,Win32,7.500750075,615d50afaa1ddf26457e079c,64c47140896c8c63e34c6d2f,64c51612fa5ae87a355e34f2,up,1,0.75,0.1143,32,0,2.5216,,,,,,92,0,92,0,1,,,,,
,,374308,001,2023-07-29_15h37.41.359,arm3_eps,2022.2.5,Win32,7.500750075,615d50afaa1ddf26457e079c,64c47140896c8c63e34c6d2f,64c51612fa5ae87a355e34f2,up,1,0.75,0.1143,33,0,3.1293,,,,,,93,0,93,0,1,,,,,
,,374308,001,2023-07-29_15h37.41.359,arm3_eps,2022.2.5,Win32,7.500750075,615d50afaa1ddf26457e079c,64c47140896c8c63e34c6d2f,64c51612fa5ae87a355e34f2,up,1,0.75,0.1143,34,0,2.0383,,,,,,94,0,94,0,1,,,,,
,,374308,001,2023-07-29_15h37.41.359,arm3_eps,2022.2.5,Win32,7.500750075,615d50afaa1ddf26457e079c,64c47140896c8c63e34c6d2f,64c51612fa5ae87a355e34f2,up,1,0.75,0.1143,35,0,2.2008,,,,,,95,0,95,0,1,,,,,
,,374308,001,2023-07-29_15h37.41.359,arm3_eps,2022.2.5,Win32,7.500750075,615d50afaa1ddf26457e079c,64c47140896c8c63e34c6d2f,64c51612fa5ae87a355e34f2,up,1,0.75,0.1143,36,0,1.7297,,,,,,96,0,96,0,1,,,,,
,,374308,001,2023-07-29_15h37.41.359,arm3_eps,2022.2.5,Win32,7.500750075,615d50afaa1ddf26457e079c,64c47140896c8c63e34c6d2f,64c51612fa5ae87a355e34f2,up,1,0.75,0.1143,37,0,1.8836,,,,,,97,0,97,0,1,,,,,
,,374308,001,2023-07-29_15h37.41.359,arm3_eps,2022.2.5,Win32,7.500750075,615d50afaa1ddf26457e079c,64c47140896c8c63e34c6d2f,64c51612fa5ae87a355e34f2,up,1,0.75,0.1143,38,0,2.0521,,,,,,98,0,98,0,1,,,,,
,,374308,001,2023-07-29_15h37.41.359,arm3_eps,2022.2.5,Win32,7.500750075,615d50afaa1ddf26457e079c,64c47140896c8c63e34c6d2f,64c51612fa5ae87a355e34f2,up,1,0.75,0.1143,39,0,2.0411,,,,,,99,0,99,0,1,,,,,
,,374308,001,2023-07-29_15h37.41.359,arm3_eps,2022.2.5,Win32,7.500750075,615d50afaa1ddf26457e079c,64c47140896c8c63e34c6d2f,64c51612fa5ae87a355e34f2,up,1,0.75,0.1143,39,0,1.8852,,,,,,100,0,100,0,1,,,,,
,,374308,001,2023-07-29_15h37.41.359,arm3_eps,2022.2.5,Win32,7.500750075,615d50afaa1ddf26457e079c,64c47140896c8c63e34c6d2f,64c51612fa5ae87a355e34f2,up,1,0.75,0.1143,40,0,1.7273,,,,,,101,0,101,0,1,,,,,
,,374308,001,2023-07-29_15h37.41.359,arm3_eps,2022.2.5,Win32,7.500750075,615d50afaa1ddf26457e079c,64c47140896c8c63e34c6d2f,64c51612fa5ae87a355e34f2,up,1,0.75,0.1143,41,0,1.8738,,,,,,102,0,102,0,1,,,,,
,,374308,001,2023-07-29_15h37.41.359,arm3_eps,2022.2.5,Win32,7.500750075,615d50afaa1ddf26457e079c,64c47140896c8c63e34c6d2f,64c51612fa5ae87a355e34f2,up,1,0.75,0.1143,42,0,1.8882,,,,,,103,0,103,0,1,,,,,
,,374308,001,2023-07-29_15h37.41.359,arm3_eps,2022.2.5,Win32,7.500750075,615d50afaa1ddf26457e079c,64c47140896c8c63e34c6d2f,64c51612fa5ae87a355e34f2,up,-1,0.75,0.1143,43,0,2.0664,,,,,,104,0,104,0,1,,,,,
,,374308,001,2023-07-29_15h37.41.359,arm3_eps,2022.2.5,Win32,7.500750075,615d50afaa1ddf26457e079c,64c47140896c8c63e34c6d2f,64c51612fa5ae87a355e34f2,up,-1,0.75,0.1143,42,0,1.8864,,,,,,105,0,105,0,1,,,,,
,,374308,001,2023-07-29_15h37.41.359,arm3_eps,2022.2.5,Win32,7.500750075,615d50afaa1ddf26457e079c,64c47140896c8c63e34c6d2f,64c51612fa5ae87a355e34f2,down,1,0.75,0.1143,43,0,2.2036,,,,,,106,0,106,0,1,,,,,
,,374308,001,2023-07-29_15h37.41.359,arm3_eps,2022.2.5,Win32,7.500750075,615d50afaa1ddf26457e079c,64c47140896c8c63e34c6d2f,64c51612fa5ae87a355e34f2,down,1,0.75,0.1143,42,0,1.7497,,,,,,107,0,107,0,1,,,,,
,,374308,001,2023-07-29_15h37.41.359,arm3_eps,2022.2.5,Win32,7.500750075,615d50afaa1ddf26457e079c,64c47140896c8c63e34c6d2f,64c51612fa5ae87a355e34f2,up,1,0.75,0.1143,42,0,1.7278,,,,,,108,0,108,0,1,,,,,
,,374308,001,2023-07-29_15h37.41.359,arm3_eps,2022.2.5,Win32,7.500750075,615d50afaa1ddf26457e079c,64c47140896c8c63e34c6d2f,64c51612fa5ae87a355e34f2,up,1,0.75,0.1143,43,0,2.84,,,,,,109,0,109,0,1,,,,,
,,374308,001,2023-07-29_15h37.41.359,arm3_eps,2022.2.5,Win32,7.500750075,615d50afaa1ddf26457e079c,64c47140896c8c63e34c6d2f,64c51612fa5ae87a355e34f2,up,-1,0.75,0.1143,43,0,1.9148,,,,,,110,0,110,0,1,,,,,
,,374308,001,2023-07-29_15h37.41.359,arm3_eps,2022.2.5,Win32,7.500750075,615d50afaa1ddf26457e079c,64c47140896c8c63e34c6d2f,64c51612fa5ae87a355e34f2,up,-1,0.75,0.1143,42,0,2.0456,,,,,,111,0,111,0,1,,,,,
,,374308,001,2023-07-29_15h37.41.359,arm3_eps,2022.2.5,Win32,7.500750075,615d50afaa1ddf26457e079c,64c47140896c8c63e34c6d2f,64c51612fa5ae87a355e34f2,down,-1,0.75,0.1143,43,0,3.3012,,,,,,112,0,112,0,1,,,,,
,,374308,001,2023-07-29_15h37.41.359,arm3_eps,2022.2.5,Win32,7.500750075,615d50afaa1ddf26457e079c,64c47140896c8c63e34c6d2f,64c51612fa5ae87a355e34f2,down,-1,0.75,0.1143,44,0,2.2201,,,,,,113,0,113,0,1,,,,,
,,374308,001,2023-07-29_15h37.41.359,arm3_eps,2022.2.5,Win32,7.500750075,615d50afaa1ddf26457e079c,64c47140896c8c63e34c6d2f,64c51612fa5ae87a355e34f2,down,-1,0.75,0.1143,45,0,2.2375,,,,,,114,0,114,0,1,,,,,
,,374308,001,2023-07-29_15h37.41.359,arm3_eps,2022.2.5,Win32,7.500750075,615d50afaa1ddf26457e079c,64c47140896c8c63e34c6d2f,64c51612fa5ae87a355e34f2,down,-1,0.75,0.1143,46,0,1.8956,,,,,,115,0,115,0,1,,,,,
,,374308,001,2023-07-29_15h37.41.359,arm3_eps,2022.2.5,Win32,7.500750075,615d50afaa1ddf26457e079c,64c47140896c8c63e34c6d2f,64c51612fa5ae87a355e34f2,down,1,0.75,0.1143,46,0,1.8831,,,,,,116,0,116,0,1,,,,,
,,374308,001,2023-07-29_15h37.41.359,arm3_eps,2022.2.5,Win32,7.500750075,615d50afaa1ddf26457e079c,64c47140896c8c63e34c6d2f,64c51612fa5ae87a355e34f2,down,1,0.75,0.1143,45,0,2.2007,,,,,,117,0,117,0,1,,,,,
,,374308,001,2023-07-29_15h37.41.359,arm3_eps,2022.2.5,Win32,7.500750075,615d50afaa1ddf26457e079c,64c47140896c8c63e34c6d2f,64c51612fa5ae87a355e34f2,up,1,0.75,0.1143,46,0,4.1102,,,,,,118,0,118,0,1,,,,,
,,374308,001,2023-07-29_15h37.41.359,arm3_eps,2022.2.5,Win32,7.500750075,615d50afaa1ddf26457e079c,64c47140896c8c63e34c6d2f,64c51612fa5ae87a355e34f2,up,1,0.75,0.1143,47,0,1.8817,,,,,,119,0,119,0,1,,,,,
,,374308,001,2023-07-29_15h37.41.359,arm3_eps,2022.2.5,Win32,7.500750075,615d50afaa1ddf26457e079c,64c47140896c8c63e34c6d2f,64c51612fa5ae87a355e34f2,up,1,0.75,0.1143,47,0,2.2022,,,,,,120,0,120,0,1,,,,,
,,374308,001,2023-07-29_15h37.41.359,arm3_eps,2022.2.5,Win32,7.500750075,615d50afaa1ddf26457e079c,64c47140896c8c63e34c6d2f,64c51612fa5ae87a355e34f2,up,1,0.75,0.1143,47,0,2.0372,,,,,,121,0,121,0,1,,,,,
,,374308,001,2023-07-29_15h37.41.359,arm3_eps,2022.2.5,Win32,7.500750075,615d50afaa1ddf26457e079c,64c47140896c8c63e34c6d2f,64c51612fa5ae87a355e34f2,up,1,0.75,0.1143,48,0,2.0474,,,,,,122,0,122,0,1,,,,,
,,374308,001,2023-07-29_15h37.41.359,arm3_eps,2022.2.5,Win32,7.500750075,615d50afaa1ddf26457e079c,64c47140896c8c63e34c6d2f,64c51612fa5ae87a355e34f2,up,1,0.75,0.1143,49,0,2.045,,,,,,123,0,123,0,1,,,,,
,,374308,001,2023-07-29_15h37.41.359,arm3_eps,2022.2.5,Win32,7.500750075,615d50afaa1ddf26457e079c,64c47140896c8c63e34c6d2f,64c51612fa5ae87a355e34f2,up,1,0.75,0.1143,49,0,1.8891,,,,,,124,0,124,0,1,,,,,
,,374308,001,2023-07-29_15h37.41.359,arm3_eps,2022.2.5,Win32,7.500750075,615d50afaa1ddf26457e079c,64c47140896c8c63e34c6d2f,64c51612fa5ae87a355e34f2,up,1,0.75,0.1143,50,0,1.8868,,,,,,125,0,125,0,1,,,,,
,,374308,001,2023-07-29_15h37.41.359,arm3_eps,2022.2.5,Win32,7.500750075,615d50afaa1ddf26457e079c,64c47140896c8c63e34c6d2f,64c51612fa5ae87a355e34f2,up,1,0.75,0.1143,51,0,1.752,,,,,,126,0,126,0,1,,,,,
,,374308,001,2023-07-29_15h37.41.359,arm3_eps,2022.2.5,Win32,7.500750075,615d50afaa1ddf26457e079c,64c47140896c8c63e34c6d2f,64c51612fa5ae87a355e34f2,up,1,0.75,0.1143,52,0,1.8962,,,,,,127,0,127,0,1,,,,,
,,374308,001,2023-07-29_15h37.41.359,arm3_eps,2022.2.5,Win32,7.500750075,615d50afaa1ddf26457e079c,64c47140896c8c63e34c6d2f,64c51612fa5ae87a355e34f2,up,-1,0.75,0.1143,52,0,1.7395,,,,,,128,0,128,0,1,,,,,
,,374308,001,2023-07-29_15h37.41.359,arm3_eps,2022.2.5,Win32,7.500750075,615d50afaa1ddf26457e079c,64c47140896c8c63e34c6d2f,64c51612fa5ae87a355e34f2,up,-1,0.75,0.1143,52,0,1.809,,,,,,129,0,129,0,1,,,,,
,,374308,001,2023-07-29_15h37.41.359,arm3_eps,2022.2.5,Win32,7.500750075,615d50afaa1ddf26457e079c,64c47140896c8c63e34c6d2f,64c51612fa5ae87a355e34f2,up,-1,0.75,0.1143,51,0,1.7442,,,,,,130,0,130,0,1,,,,,
,,374308,001,2023-07-29_15h37.41.359,arm3_eps,2022.2.5,Win32,7.500750075,615d50afaa1ddf26457e079c,64c47140896c8c63e34c6d2f,64c51612fa5ae87a355e34f2,right,-1,0.75,0.1143,51,-0.024196022,1.8954,,,,,,131,0,131,0,1,,,,,
,,374308,001,2023-07-29_15h37.41.359,arm3_eps,2022.2.5,Win32,7.500750075,615d50afaa1ddf26457e079c,64c47140896c8c63e34c6d2f,64c51612fa5ae87a355e34f2,right,-1,0.75,0.1143,51,-0.030977978,0.1648,,,,,,132,0,132,0,1,,,,,
,,374308,001,2023-07-29_15h37.41.359,arm3_eps,2022.2.5,Win32,7.500750075,615d50afaa1ddf26457e079c,64c47140896c8c63e34c6d2f,64c51612fa5ae87a355e34f2,right,-1,0.75,0.1143,51,-0.051861327,0.1639,,,,,,133,0,133,0,1,,,,,
,,374308,001,2023-07-29_15h37.41.359,arm3_eps,2022.2.5,Win32,7.500750075,615d50afaa1ddf26457e079c,64c47140896c8c63e34c6d2f,64c51612fa5ae87a355e34f2,right,-1,0.75,0.1143,51,-0.063087492,0.0055,,,,,,134,0,134,0,1,,,,,
,,374308,001,2023-07-29_15h37.41.359,arm3_eps,2022.2.5,Win32,7.500750075,615d50afaa1ddf26457e079c,64c47140896c8c63e34c6d2f,64c51612fa5ae87a355e34f2,right,-1,0.75,0.1143,51,-0.069951214,0.1654,,,,,,135,0,135,0,1,,,,,
,,374308,001,2023-07-29_15h37.41.359,arm3_eps,2022.2.5,Win32,7.500750075,615d50afaa1ddf26457e079c,64c47140896c8c63e34c6d2f,64c51612fa5ae87a355e34f2,right,-1,0.75,0.1143,51,-0.093932004,0.167,,,,,,136,0,136,0,1,,,,,
,,374308,001,2023-07-29_15h37.41.359,arm3_eps,2022.2.5,Win32,7.500750075,615d50afaa1ddf26457e079c,64c47140896c8c63e34c6d2f,64c51612fa5ae87a355e34f2,down,-1,0.75,0.1143,52,0,0.3218,,,,,,137,0,137,0,1,,,,,
,,374308,001,2023-07-29_15h37.41.359,arm3_eps,2022.2.5,Win32,7.500750075,615d50afaa1ddf26457e079c,64c47140896c8c63e34c6d2f,64c51612fa5ae87a355e34f2,down,-1,0.75,0.1143,52,0,1.5786,,,,,,138,0,138,0,1,,,,,
,,374308,001,2023-07-29_15h37.41.359,arm3_eps,2022.2.5,Win32,7.500750075,615d50afaa1ddf26457e079c,64c47140896c8c63e34c6d2f,64c51612fa5ae87a355e34f2,down,1,0.75,0.1143,53,0,1.8957,,,,,,139,0,139,0,1,,,,,
,,374308,001,2023-07-29_15h37.41.359,arm3_eps,2022.2.5,Win32,7.500750075,615d50afaa1ddf26457e079c,64c47140896c8c63e34c6d2f,64c51612fa5ae87a355e34f2,down,1,0.75,0.1143,52,0,1.8918,,,,,,140,0,140,0,1,,,,,
,,374308,001,2023-07-29_15h37.41.359,arm3_eps,2022.2.5,Win32,7.500750075,615d50afaa1ddf26457e079c,64c47140896c8c63e34c6d2f,64c51612fa5ae87a355e34f2,down,1,0.75,0.1143,51,0,1.8981,,,,,,141,0,141,0,1,,,,,
,,374308,001,2023-07-29_15h37.41.359,arm3_eps,2022.2.5,Win32,7.500750075,615d50afaa1ddf26457e079c,64c47140896c8c63e34c6d2f,64c51612fa5ae87a355e34f2,up,1,0.75,0.1143,52,0,1.5802,,,,,,142,0,142,0,1,,,,,
,,374308,001,2023-07-29_15h37.41.359,arm3_eps,2022.2.5,Win32,7.500750075,615d50afaa1ddf26457e079c,64c47140896c8c63e34c6d2f,64c51612fa5ae87a355e34f2,up,1,0.75,0.1143,52,0,1.894,,,,,,143,0,143,0,1,,,,,
,,374308,001,2023-07-29_15h37.41.359,arm3_eps,2022.2.5,Win32,7.500750075,615d50afaa1ddf26457e079c,64c47140896c8c63e34c6d2f,64c51612fa5ae87a355e34f2,up,1,0.75,0.1143,52,0,2.2221,,,,,,144,0,144,0,1,,,,,
,,374308,001,2023-07-29_15h37.41.359,arm3_eps,2022.2.5,Win32,7.500750075,615d50afaa1ddf26457e079c,64c47140896c8c63e34c6d2f,64c51612fa5ae87a355e34f2,up,1,0.75,0.1143,53,0,2.0578,,,,,,145,0,145,0,1,,,,,
,,374308,001,2023-07-29_15h37.41.359,arm3_eps,2022.2.5,Win32,7.500750075,615d50afaa1ddf26457e079c,64c47140896c8c63e34c6d2f,64c51612fa5ae87a355e34f2,up,1,0.75,0.1143,54,0,2.0545,,,,,,146,0,146,0,1,,,,,
,,374308,001,2023-07-29_15h37.41.359,arm3_eps,2022.2.5,Win32,7.500750075,615d50afaa1ddf26457e079c,64c47140896c8c63e34c6d2f,64c51612fa5ae87a355e34f2,up,1,0.75,0.1143,55,0,1.9175,,,,,,147,0,147,0,1,,,,,
,,374308,001,2023-07-29_15h37.41.359,arm3_eps,2022.2.5,Win32,7.500750075,615d50afaa1ddf26457e079c,64c47140896c8c63e34c6d2f,64c51612fa5ae87a355e34f2,up,1,0.75,0.1143,56,0,2.2047,,,,,,148,0,148,0,1,,,,,
,,374308,001,2023-07-29_15h37.41.359,arm3_eps,2022.2.5,Win32,7.500750075,615d50afaa1ddf26457e079c,64c47140896c8c63e34c6d2f,64c51612fa5ae87a355e34f2,up,-1,0.75,0.1143,56,0,2.0675,,,,,,149,0,149,0,1,,,,,
,,374308,001,2023-07-29_15h37.41.359,arm3_eps,2022.2.5,Win32,7.500750075,615d50afaa1ddf26457e079c,64c47140896c8c63e34c6d2f,64c51612fa5ae87a355e34f2,up,-1,0.75,0.1143,55,0,4.4351,,,,,,150,0,150,0,1,,,,,
,,374308,001,2023-07-29_15h37.41.359,arm3_eps,2022.2.5,Win32,7.500750075,615d50afaa1ddf26457e079c,64c47140896c8c63e34c6d2f,64c51612fa5ae87a355e34f2,up,-1,0.75,0.1143,54,0,2.0477,,,,,,151,0,151,0,1,,,,,
,,374308,001,2023-07-29_15h37.41.359,arm3_eps,2022.2.5,Win32,7.500750075,615d50afaa1ddf26457e079c,64c47140896c8c63e34c6d2f,64c51612fa5ae87a355e34f2,down,1,0.75,0.1143,55,0,1.2576,,,,,,152,0,152,0,1,,,,,
,,374308,001,2023-07-29_15h37.41.359,arm3_eps,2022.2.5,Win32,7.500750075,615d50afaa1ddf26457e079c,64c47140896c8c63e34c6d2f,64c51612fa5ae87a355e34f2,down,1,0.75,0.1143,54,0,2.0443,,,,,,153,0,153,0,1,,,,,
,,374308,001,2023-07-29_15h37.41.359,arm3_eps,2022.2.5,Win32,7.500750075,615d50afaa1ddf26457e079c,64c47140896c8c63e34c6d2f,64c51612fa5ae87a355e34f2,down,1,0.75,0.1143,53,0,2.0507,,,,,,154,0,154,0,1,,,,,
,,374308,001,2023-07-29_15h37.41.359,arm3_eps,2022.2.5,Win32,7.500750075,615d50afaa1ddf26457e079c,64c47140896c8c63e34c6d2f,64c51612fa5ae87a355e34f2,up,1,0.75,0.1143,53,0,2.6899,,,,,,155,0,155,0,1,,,,,
,,374308,001,2023-07-29_15h37.41.359,arm3_eps,2022.2.5,Win32,7.500750075,615d50afaa1ddf26457e079c,64c47140896c8c63e34c6d2f,64c51612fa5ae87a355e34f2,right,1,0.75,0.1143,53,0.006724912,2.5179,,,,,,156,0,156,0,1,,,,,
,,374308,001,2023-07-29_15h37.41.359,arm3_eps,2022.2.5,Win32,7.500750075,615d50afaa1ddf26457e079c,64c47140896c8c63e34c6d2f,64c51612fa5ae87a355e34f2,right,1,0.75,0.1143,53,0.015894175,0.4833,,,,,,157,0,157,0,1,,,,,
,,374308,001,2023-07-29_15h37.41.359,arm3_eps,2022.2.5,Win32,7.500750075,615d50afaa1ddf26457e079c,64c47140896c8c63e34c6d2f,64c51612fa5ae87a355e34f2,up,-1,0.75,0.1143,54,0,0.48,,,,,,158,0,158,0,1,,,,,
,,374308,001,2023-07-29_15h37.41.359,arm3_eps,2022.2.5,Win32,7.500750075,615d50afaa1ddf26457e079c,64c47140896c8c63e34c6d2f,64c51612fa5ae87a355e34f2,up,-1,0.75,0.1143,53,0,1.7308,,,,,,159,0,159,0,1,,,,,
,,374308,001,2023-07-29_15h37.41.359,arm3_eps,2022.2.5,Win32,7.500750075,615d50afaa1ddf26457e079c,64c47140896c8c63e34c6d2f,64c51612fa5ae87a355e34f2,down,1,0.75,0.1143,54,0,1.7554,,,,,,160,0,160,0,1,,,,,
,,374308,001,2023-07-29_15h37.41.359,arm3_eps,2022.2.5,Win32,7.500750075,615d50afaa1ddf26457e079c,64c47140896c8c63e34c6d2f,64c51612fa5ae87a355e34f2,down,1,0.75,0.1143,53,0,2.0845,,,,,,161,0,161,0,1,,,,,
,,374308,001,2023-07-29_15h37.41.359,arm3_eps,2022.2.5,Win32,7.500750075,615d50afaa1ddf26457e079c,64c47140896c8c63e34c6d2f,64c51612fa5ae87a355e34f2,right,1,0.75,0.1143,53,0.006886454,1.7376,,,,,,162,0,162,0,1,,,,,
,,374308,001,2023-07-29_15h37.41.359,arm3_eps,2022.2.5,Win32,7.500750075,615d50afaa1ddf26457e079c,64c47140896c8c63e34c6d2f,64c51612fa5ae87a355e34f2,right,1,0.75,0.1143,53,0.051992205,0.481,,,,,,163,0,163,0,1,,,,,
,,374308,001,2023-07-29_15h37.41.359,arm3_eps,2022.2.5,Win32,7.500750075,615d50afaa1ddf26457e079c,64c47140896c8c63e34c6d2f,64c51612fa5ae87a355e34f2,up,-1,0.75,0.1143,54,0,0.8057,,,,,,164,0,164,0,1,,,,,
,,374308,001,2023-07-29_15h37.41.359,arm3_eps,2022.2.5,Win32,7.500750075,615d50afaa1ddf26457e079c,64c47140896c8c63e34c6d2f,64c51612fa5ae87a355e34f2,up,-1,0.75,0.1143,53,0,1.589,,,,,,165,0,165,0,1,,,,,
,,374308,001,2023-07-29_15h37.41.359,arm3_eps,2022.2.5,Win32,7.500750075,615d50afaa1ddf26457e079c,64c47140896c8c63e34c6d2f,64c51612fa5ae87a355e34f2,right,-1,0.75,0.1143,53,-0.023248889,2.8558,,,,,,166,0,166,0,1,,,,,
,,374308,001,2023-07-29_15h37.41.359,arm3_eps,2022.2.5,Win32,7.500750075,615d50afaa1ddf26457e079c,64c47140896c8c63e34c6d2f,64c51612fa5ae87a355e34f2,right,-1,0.75,0.1143,53,-0.038601089,0.6466,,,,,,167,0,167,0,1,,,,,
,,374308,001,2023-07-29_15h37.41.359,arm3_eps,2022.2.5,Win32,7.500750075,615d50afaa1ddf26457e079c,64c47140896c8c63e34c6d2f,64c51612fa5ae87a355e34f2,down,-1,0.75,0.1143,54,0,0.8142,,,,,,168,0,168,0,1,,,,,
,,374308,001,2023-07-29_15h37.41.359,arm3_eps,2022.2.5,Win32,7.500750075,615d50afaa1ddf26457e079c,64c47140896c8c63e34c6d2f,64c51612fa5ae87a355e34f2,down,-1,0.75,0.1143,55,0,2.6944,,,,,,169,0,169,0,1,,,,,
,,374308,001,2023-07-29_15h37.41.359,arm3_eps,2022.2.5,Win32,7.500750075,615d50afaa1ddf26457e079c,64c47140896c8c63e34c6d2f,64c51612fa5ae87a355e34f2,down,-1,0.75,0.1143,55,0,2.5487,,,,,,170,0,170,0,1,,,,,
,,374308,001,2023-07-29_15h37.41.359,arm3_eps,2022.2.5,Win32,7.500750075,615d50afaa1ddf26457e079c,64c47140896c8c63e34c6d2f,64c51612fa5ae87a355e34f2,down,-1,0.75,0.1143,56,0,2.2299,,,,,,171,0,171,0,1,,,,,
,,374308,001,2023-07-29_15h37.41.359,arm3_eps,2022.2.5,Win32,7.500750075,615d50afaa1ddf26457e079c,64c47140896c8c63e34c6d2f,64c51612fa5ae87a355e34f2,down,1,0.75,0.1143,57,0,2.2146,,,,,,172,0,172,0,1,,,,,
,,374308,001,2023-07-29_15h37.41.359,arm3_eps,2022.2.5,Win32,7.500750075,615d50afaa1ddf26457e079c,64c47140896c8c63e34c6d2f,64c51612fa5ae87a355e34f2,down,1,0.75,0.1143,57,0,2.2147,,,,,,173,0,173,0,1,,,,,
,,374308,001,2023-07-29_15h37.41.359,arm3_eps,2022.2.5,Win32,7.500750075,615d50afaa1ddf26457e079c,64c47140896c8c63e34c6d2f,64c51612fa5ae87a355e34f2,down,1,0.75,0.1143,56,0,2.065,,,,,,174,0,174,0,1,,,,,
,,374308,001,2023-07-29_15h37.41.359,arm3_eps,2022.2.5,Win32,7.500750075,615d50afaa1ddf26457e079c,64c47140896c8c63e34c6d2f,64c51612fa5ae87a355e34f2,right,1,0.75,0.1143,56,-0.013079187,1.5868,,,,,,175,0,175,0,1,,,,,
,,374308,001,2023-07-29_15h37.41.359,arm3_eps,2022.2.5,Win32,7.500750075,615d50afaa1ddf26457e079c,64c47140896c8c63e34c6d2f,64c51612fa5ae87a355e34f2,right,1,0.75,0.1143,56,-0.00751075,0.1662,,,,,,176,0,176,0,1,,,,,
,,374308,001,2023-07-29_15h37.41.359,arm3_eps,2022.2.5,Win32,7.500750075,615d50afaa1ddf26457e079c,64c47140896c8c63e34c6d2f,64c51612fa5ae87a355e34f2,right,1,0.75,0.1143,56,-0.047212862,0.1654,,,,,,177,0,177,0,1,,,,,
,,374308,001,2023-07-29_15h37.41.359,arm3_eps,2022.2.5,Win32,7.500750075,615d50afaa1ddf26457e079c,64c47140896c8c63e34c6d2f,64c51612fa5ae87a355e34f2,right,1,0.75,0.1143,56,-0.026129029,0.1651,,,,,,178,0,178,0,1,,,,,
,,374308,001,2023-07-29_15h37.41.359,arm3_eps,2022.2.5,Win32,7.500750075,615d50afaa1ddf26457e079c,64c47140896c8c63e34c6d2f,64c51612fa5ae87a355e34f2,right,1,0.75,0.1143,56,-0.03811307,0.1673,,,,,,179,0,179,0,1,,,,,
,,374308,001,2023-07-29_15h37.41.359,arm3_eps,2022.2.5,Win32,7.500750075,615d50afaa1ddf26457e079c,64c47140896c8c63e34c6d2f,64c51612fa5ae87a355e34f2,right,1,0.75,0.1143,56,-0.027567819,0.1668,,,,,,180,0,180,0,1,,,,,
,,374308,001,2023-07-29_15h37.41.359,arm3_eps,2022.2.5,Win32,7.500750075,615d50afaa1ddf26457e079c,64c47140896c8c63e34c6d2f,64c51612fa5ae87a355e34f2,right,1,0.75,0.1143,56,-0.01983234,0.1719,,,,,,181,0,181,0,1,,,,,
,,374308,001,2023-07-29_15h37.41.359,arm3_eps,2022.2.5,Win32,7.500750075,615d50afaa1ddf26457e079c,64c47140896c8c63e34c6d2f,64c51612fa5ae87a355e34f2,down,1,0.75,0.1143,56,0,0.6559,,,,,,182,0,182,0,1,,,,,
,,374308,001,2023-07-29_15h37.41.359,arm3_eps,2022.2.5,Win32,7.500750075,615d50afaa1ddf26457e079c,64c47140896c8c63e34c6d2f,64c51612fa5ae87a355e34f2,down,1,0.75,0.1143,55,0,2.0888,,,,,,183,0,183,0,1,,,,,
,,374308,001,2023-07-29_15h37.41.359,arm3_eps,2022.2.5,Win32,7.500750075,615d50afaa1ddf26457e079c,64c47140896c8c63e34c6d2f,64c51612fa5ae87a355e34f2,up,1,0.75,0.1143,56,0,1.2824,,,,,,184,0,184,0,1,,,,,
,,374308,001,2023-07-29_15h37.41.359,arm3_eps,2022.2.5,Win32,7.500750075,615d50afaa1ddf26457e079c,64c47140896c8c63e34c6d2f,64c51612fa5ae87a355e34f2,up,-1,0.75,0.1143,56,0,2.0573,,,,,,185,0,185,0,1,,,,,
,,374308,001,2023-07-29_15h37.41.359,arm3_eps,2022.2.5,Win32,7.500750075,615d50afaa1ddf26457e079c,64c47140896c8c63e34c6d2f,64c51612fa5ae87a355e34f2,up,-1,0.75,0.1143,56,0,2.2111,,,,,,186,0,186,0,1,,,,,
,,374308,001,2023-07-29_15h37.41.359,arm3_eps,2022.2.5,Win32,7.500750075,615d50afaa1ddf26457e079c,64c47140896c8c63e34c6d2f,64c51612fa5ae87a355e34f2,up,-1,0.75,0.1143,55,0,2.2183,,,,,,187,0,187,0,1,,,,,
,,374308,001,2023-07-29_15h37.41.359,arm3_eps,2022.2.5,Win32,7.500750075,615d50afaa1ddf26457e079c,64c47140896c8c63e34c6d2f,64c51612fa5ae87a355e34f2,right,-1,0.75,0.1143,55,0.01543106,1.5811,,,,,,188,0,188,0,1,,,,,
,,374308,001,2023-07-29_15h37.41.359,arm3_eps,2022.2.5,Win32,7.500750075,615d50afaa1ddf26457e079c,64c47140896c8c63e34c6d2f,64c51612fa5ae87a355e34f2,right,-1,0.75,0.1143,55,0.024500407,0.1653,,,,,,189,0,189,0,1,,,,,
,,374308,001,2023-07-29_15h37.41.359,arm3_eps,2022.2.5,Win32,7.500750075,615d50afaa1ddf26457e079c,64c47140896c8c63e34c6d2f,64c51612fa5ae87a355e34f2,right,-1,0.75,0.1143,55,0.011147475,0.0059,,,,,,190,0,190,0,1,,,,,
,,374308,001,2023-07-29_15h37.41.359,arm3_eps,2022.2.5,Win32,7.500750075,615d50afaa1ddf26457e079c,64c47140896c8c63e34c6d2f,64c51612fa5ae87a355e34f2,right,-1,0.75,0.1143,55,0.026769193,0.1663,,,,,,191,0,191,0,1,,,,,
,,374308,001,2023-07-29_15h37.41.359,arm3_eps,2022.2.5,Win32,7.500750075,615d50afaa1ddf26457e079c,64c47140896c8c63e34c6d2f,64c51612fa5ae87a355e34f2,right,-1,0.75,0.1143,55,0.045561554,0.0061,,,,,,192,0,192,0,1,,,,,
,,374308,001,2023-07-29_15h37.41.359,arm3_eps,2022.2.5,Win32,7.500750075,615d50afaa1ddf26457e079c,64c47140896c8c63e34c6d2f,64c51612fa5ae87a355e34f2,right,-1,0.75,0.1143,55,0.040036075,0.1678,,,,,,193,0,193,0,1,,,,,
,,374308,001,2023-07-29_15h37.41.359,arm3_eps,2022.2.5,Win32,7.500750075,615d50afaa1ddf26457e079c,64c47140896c8c63e34c6d2f,64c51612fa5ae87a355e34f2,right,-1,0.75,0.1143,55,0.043287645,0.0057,,,,,,194,0,194,0,1,,,,,
,,374308,001,2023-07-29_15h37.41.359,arm3_eps,2022.2.5,Win32,7.500750075,615d50afaa1ddf26457e079c,64c47140896c8c63e34c6d2f,64c51612fa5ae87a355e34f2,right,-1,0.75,0.1143,55,0.03322679,0.1649,,,,,,195,0,195,0,1,,,,,
,,374308,001,2023-07-29_15h37.41.359,arm3_eps,2022.2.5,Win32,7.500750075,615d50afaa1ddf26457e079c,64c47140896c8c63e34c6d2f,64c51612fa5ae87a355e34f2,right,-1,0.75,0.1143,55,0.039373591,0.1651,,,,,,196,0,196,0,1,,,,,
,,374308,001,2023-07-29_15h37.41.359,arm3_eps,2022.2.5,Win32,7.500750075,615d50afaa1ddf26457e079c,64c47140896c8c63e34c6d2f,64c51612fa5ae87a355e34f2,up,-1,0.75,0.1143,55,0,0.4963,,,,,,197,0,197,0,1,,,,,
,,374308,001,2023-07-29_15h37.41.359,arm3_eps,2022.2.5,Win32,7.500750075,615d50afaa1ddf26457e079c,64c47140896c8c63e34c6d2f,64c51612fa5ae87a355e34f2,right,-1,0.75,0.1143,55,-0.037076863,1.7372,,,,,,198,0,198,0,1,,,,,
,,374308,001,2023-07-29_15h37.41.359,arm3_eps,2022.2.5,Win32,7.500750075,615d50afaa1ddf26457e079c,64c47140896c8c63e34c6d2f,64c51612fa5ae87a355e34f2,right,-1,0.75,0.1143,55,-0.04033875,0.1659,,,,,,199,0,199,0,1,,,,,
,,374308,001,2023-07-29_15h37.41.359,arm3_eps,2022.2.5,Win32,7.500750075,615d50afaa1ddf26457e079c,64c47140896c8c63e34c6d2f,64c51612fa5ae87a355e34f2,right,-1,0.75,0.1143,55,-0.036229189,0.1695,,,,,,200,0,200,0,1,,,,,
,,374308,001,2023-07-29_15h37.41.359,arm3_eps,2022.2.5,Win32,7.500750075,615d50afaa1ddf26457e079c,64c47140896c8c63e34c6d2f,64c51612fa5ae87a355e34f2,right,-1,0.75,0.1143,55,-0.052127152,0.1651,,,,,,201,0,201,0,1,,,,,
,,374308,001,2023-07-29_15h37.41.359,arm3_eps,2022.2.5,Win32,7.500750075,615d50afaa1ddf26457e079c,64c47140896c8c63e34c6d2f,64c51612fa5ae87a355e34f2,right,-1,0.75,0.1143,55,-0.050963635,0.3285,,,,,,202,0,202,0,1,,,,,
,,374308,001,2023-07-29_15h37.41.359,arm3_eps,2022.2.5,Win32,7.500750075,615d50afaa1ddf26457e079c,64c47140896c8c63e34c6d2f,64c51612fa5ae87a355e34f2,right,-1,0.75,0.1143,55,-0.049345298,0.1648,,,,,,203,0,203,0,1,,,,,
,,374308,001,2023-07-29_15h37.41.359,arm3_eps,2022.2.5,Win32,7.500750075,615d50afaa1ddf26457e079c,64c47140896c8c63e34c6d2f,64c51612fa5ae87a355e34f2,down,-1,0.75,0.1143,56,0,0.963,,,,,,204,0,204,0,1,,,,,
,,374308,001,2023-07-29_15h37.41.359,arm3_eps,2022.2.5,Win32,7.500750075,615d50afaa1ddf26457e079c,64c47140896c8c63e34c6d2f,64c51612fa5ae87a355e34f2,down,1,0.75,0.1143,57,0,1.77,,,,,,205,0,205,0,1,,,,,
,,374308,001,2023-07-29_15h37.41.359,arm3_eps,2022.2.5,Win32,7.500750075,615d50afaa1ddf26457e079c,64c47140896c8c63e34c6d2f,64c51612fa5ae87a355e34f2,down,1,0.75,0.1143,56,0,2.0577,,,,,,206,0,206,0,1,,,,,
,,374308,001,2023-07-29_15h37.41.359,arm3_eps,2022.2.5,Win32,7.500750075,615d50afaa1ddf26457e079c,64c47140896c8c63e34c6d2f,64c51612fa5ae87a355e34f2,up,1,0.75,0.1143,57,0,2.2044,,,,,,207,0,207,0,1,,,,,
,,374308,001,2023-07-29_15h37.41.359,arm3_eps,2022.2.5,Win32,7.500750075,615d50afaa1ddf26457e079c,64c47140896c8c63e34c6d2f,64c51612fa5ae87a355e34f2,up,1,0.75,0.1143,58,0,1.9252,,,,,,208,0,208,0,1,,,,,
,,374308,001,2023-07-29_15h37.41.359,arm3_eps,2022.2.5,Win32,7.500750075,615d50afaa1ddf26457e079c,64c47140896c8c63e34c6d2f,64c51612fa5ae87a355e34f2,up,1,0.75,0.1143,58,0,2.0514,,,,,,209,0,209,0,1,,,,,
,,374308,001,2023-07-29_15h37.41.359,arm3_eps,2022.2.5,Win32,7.500750075,615d50afaa1ddf26457e079c,64c47140896c8c63e34c6d2f,64c51612fa5ae87a355e34f2,up,1,0.75,0.1143,59,0,2.0589,,,,,,210,0,210,0,1,,,,,
,,374308,001,2023-07-29_15h37.41.359,arm3_eps,2022.2.5,Win32,7.500750075,615d50afaa1ddf26457e079c,64c47140896c8c63e34c6d2f,64c51612fa5ae87a355e34f2,up,1,0.75,0.1143,60,0,2.1726,,,,,,211,0,211,0,1,,,,,
,,374308,001,2023-07-29_15h37.41.359,arm3_eps,2022.2.5,Win32,7.500750075,615d50afaa1ddf26457e079c,64c47140896c8c63e34c6d2f,64c51612fa5ae87a355e34f2,up,1,0.75,0.1143,61,0,1.846,,,,,,212,0,212,0,1,,,,,
,,374308,001,2023-07-29_15h37.41.359,arm3_eps,2022.2.5,Win32,7.500750075,615d50afaa1ddf26457e079c,64c47140896c8c63e34c6d2f,64c51612fa5ae87a355e34f2,up,1,0.75,0.1143,62,0,1.9594,,,,,,213,0,213,0,1,,,,,
,,374308,001,2023-07-29_15h37.41.359,arm3_eps,2022.2.5,Win32,7.500750075,615d50afaa1ddf26457e079c,64c47140896c8c63e34c6d2f,64c51612fa5ae87a355e34f2,up,1,0.75,0.1143,63,0,1.7505,,,,,,214,0,214,0,1,,,,,
,,374308,001,2023-07-29_15h37.41.359,arm3_eps,2022.2.5,Win32,7.500750075,615d50afaa1ddf26457e079c,64c47140896c8c63e34c6d2f,64c51612fa5ae87a355e34f2,up,-1,0.75,0.1143,63,0,1.7653,,,,,,215,0,215,0,1,,,,,
,,374308,001,2023-07-29_15h37.41.359,arm3_eps,2022.2.5,Win32,7.500750075,615d50afaa1ddf26457e079c,64c47140896c8c63e34c6d2f,64c51612fa5ae87a355e34f2,up,1,0.75,0.1143,62,0,1.9703,,,,,,216,0,216,0,1,,,,,
,,374308,001,2023-07-29_15h37.41.359,arm3_eps,2022.2.5,Win32,7.500750075,615d50afaa1ddf26457e079c,64c47140896c8c63e34c6d2f,64c51612fa5ae87a355e34f2,right,1,0.75,0.1143,62,0.008700542,1.9297,,,,,,217,0,217,0,1,,,,,
,,374308,001,2023-07-29_15h37.41.359,arm3_eps,2022.2.5,Win32,7.500750075,615d50afaa1ddf26457e079c,64c47140896c8c63e34c6d2f,64c51612fa5ae87a355e34f2,right,1,0.75,0.1143,62,0.027142103,0.1664,,,,,,218,0,218,0,1,,,,,
,,374308,001,2023-07-29_15h37.41.359,arm3_eps,2022.2.5,Win32,7.500750075,615d50afaa1ddf26457e079c,64c47140896c8c63e34c6d2f,64c51612fa5ae87a355e34f2,right,1,0.75,0.1143,62,0.035627734,0.0059,,,,,,219,0,219,0,1,,,,,
,,374308,001,2023-07-29_15h37.41.359,arm3_eps,2022.2.5,Win32,7.500750075,615d50afaa1ddf26457e079c,64c47140896c8c63e34c6d2f,64c51612fa5ae87a355e34f2,right,1,0.75,0.1143,62,0.064454323,0.1676,,,,,,220,0,220,0,1,,,,,
,,374308,001,2023-07-29_15h37.41.359,arm3_eps,2022.2.5,Win32,7.500750075,615d50afaa1ddf26457e079c,64c47140896c8c63e34c6d2f,64c51612fa5ae87a355e34f2,right,1,0.75,0.1143,62,0.078031159,0.1694,,,,,,221,0,221,0,1,,,,,
,,374308,001,2023-07-29_15h37.41.359,arm3_eps,2022.2.5,Win32,7.500750075,615d50afaa1ddf26457e079c,64c47140896c8c63e34c6d2f,64c51612fa5ae87a355e34f2,right,1,0.75,0.1143,62,0.093402573,0.1755,,,,,,222,0,222,0,1,,,,,
,,374308,001,2023-07-29_15h37.41.359,arm3_eps,2022.2.5,Win32,7.500750075,615d50afaa1ddf26457e079c,64c47140896c8c63e34c6d2f,64c51612fa5ae87a355e34f2,right,1,0.75,0.1143,62,0.088182282,0.0069,,,,,,223,0,223,0,1,,,,,
,,374308,001,2023-07-29_15h37.41.359,arm3_eps,2022.2.5,Win32,7.500750075,615d50afaa1ddf26457e079c,64c47140896c8c63e34c6d2f,64c51612fa5ae87a355e34f2,right,1,0.75,0.1143,62,0.107245684,0.1684,,,,,,224,0,224,0,1,,,,,
,,374308,001,2023-07-29_15h37.41.359,arm3_eps,2022.2.5,Win32,7.500750075,615d50afaa1ddf26457e079c,64c47140896c8c63e34c6d2f,64c51612fa5ae87a355e34f2,up,1,0.75,0.1143,63,0,0.9705,,,,,,225,0,225,0,1,,,,,
,,374308,001,2023-07-29_15h37.41.359,arm3_eps,2022.2.5,Win32,7.500750075,615d50afaa1ddf26457e079c,64c47140896c8c63e34c6d2f,64c51612fa5ae87a355e34f2,up,1,0.75,0.1143,64,0,2.2197,,,,,,226,0,226,0,1,,,,,
,,374308,001,2023-07-29_15h37.41.359,arm3_eps,2022.2.5,Win32,7.500750075,615d50afaa1ddf26457e079c,64c47140896c8c63e34c6d2f,64c51612fa5ae87a355e34f2,up,1,0.75,0.1143,64,0,2.2185,,,,,,227,0,227,0,1,,,,,
,,374308,001,2023-07-29_15h37.41.359,arm3_eps,2022.2.5,Win32,7.500750075,615d50afaa1ddf26457e079c,64c47140896c8c63e34c6d2f,64c51612fa5ae87a355e34f2,up,1,0.75,0.1143,65,0,3.9568,,,,,,228,0,228,0,1,,,,,
,,374308,001,2023-07-29_15h37.41.359,arm3_eps,2022.2.5,Win32,7.500750075,615d50afaa1ddf26457e079c,64c47140896c8c63e34c6d2f,64c51612fa5ae87a355e34f2,up,1,0.75,0.1143,66,0,21.2461,,,,,,229,0,229,0,1,,,,,
,,374308,001,2023-07-29_15h37.41.359,arm3_eps,2022.2.5,Win32,7.500750075,615d50afaa1ddf26457e079c,64c47140896c8c63e34c6d2f,64c51612fa5ae87a355e34f2,up,1,0.75,0.1143,67,0,1.4218,,,,,,230,0,230,0,1,,,,,
,,374308,001,2023-07-29_15h37.41.359,arm3_eps,2022.2.5,Win32,7.500750075,615d50afaa1ddf26457e079c,64c47140896c8c63e34c6d2f,64c51612fa5ae87a355e34f2,up,1,0.75,0.1143,67,0,1.8814,,,,,,231,0,231,0,1,,,,,
,,374308,001,2023-07-29_15h37.41.359,arm3_eps,2022.2.5,Win32,7.500750075,615d50afaa1ddf26457e079c,64c47140896c8c63e34c6d2f,64c51612fa5ae87a355e34f2,up,1,0.75,0.1143,67,0,1.6062,,,,,,232,0,232,0,1,,,,,
,,374308,001,2023-07-29_15h37.41.359,arm3_eps,2022.2.5,Win32,7.500750075,615d50afaa1ddf26457e079c,64c47140896c8c63e34c6d2f,64c51612fa5ae87a355e34f2,up,1,0.75,0.1143,68,0,1.9042,,,,,,233,0,233,0,1,,,,,
,,374308,001,2023-07-29_15h37.41.359,arm3_eps,2022.2.5,Win32,7.500750075,615d50afaa1ddf26457e079c,64c47140896c8c63e34c6d2f,64c51612fa5ae87a355e34f2,up,1,0.75,0.1143,69,0,1.8748,,,,,,234,0,234,0,1,,,,,
,,374308,001,2023-07-29_15h37.41.359,arm3_eps,2022.2.5,Win32,7.500750075,615d50afaa1ddf26457e079c,64c47140896c8c63e34c6d2f,64c51612fa5ae87a355e34f2,up,1,0.75,0.1143,69,0,1.5692,,,,,,235,0,235,0,1,,,,,
,,374308,001,2023-07-29_15h37.41.359,arm3_eps,2022.2.5,Win32,7.500750075,615d50afaa1ddf26457e079c,64c47140896c8c63e34c6d2f,64c51612fa5ae87a355e34f2,up,1,0.75,0.1143,70,0,1.8987,,,,,,236,0,236,0,1,,,,,
,,374308,001,2023-07-29_15h37.41.359,arm3_eps,2022.2.5,Win32,7.500750075,615d50afaa1ddf26457e079c,64c47140896c8c63e34c6d2f,64c51612fa5ae87a355e34f2,up,1,0.75,0.1143,71,0,1.899,,,,,,237,0,237,0,1,,,,,
,,374308,001,2023-07-29_15h37.41.359,arm3_eps,2022.2.5,Win32,7.500750075,615d50afaa1ddf26457e079c,64c47140896c8c63e34c6d2f,64c51612fa5ae87a355e34f2,up,1,0.75,0.1143,71,0,2.0333,,,,,,238,0,238,0,1,,,,,
,,374308,001,2023-07-29_15h37.41.359,arm3_eps,2022.2.5,Win32,7.500750075,615d50afaa1ddf26457e079c,64c47140896c8c63e34c6d2f,64c51612fa5ae87a355e34f2,up,1,0.75,0.1143,72,0,1.8838,,,,,,239,0,239,0,1,,,,,
,,374308,001,2023-07-29_15h37.41.359,arm3_eps,2022.2.5,Win32,7.500750075,615d50afaa1ddf26457e079c,64c47140896c8c63e34c6d2f,64c51612fa5ae87a355e34f2,up,1,0.75,0.1143,73,0,2.347,,,,,,240,0,240,0,1,,,,,
,,374308,001,2023-07-29_15h37.41.359,arm3_eps,2022.2.5,Win32,7.500750075,615d50afaa1ddf26457e079c,64c47140896c8c63e34c6d2f,64c51612fa5ae87a355e34f2,up,1,0.75,0.1143,74,0,2.8491,,,,,,241,0,241,0,1,,,,,
,,374308,001,2023-07-29_15h37.41.359,arm3_eps,2022.2.5,Win32,7.500750075,615d50afaa1ddf26457e079c,64c47140896c8c63e34c6d2f,64c51612fa5ae87a355e34f2,up,1,0.75,0.1143,74,0,2.8396,,,,,,242,0,242,0,1,,,,,
,,374308,001,2023-07-29_15h37.41.359,arm3_eps,2022.2.5,Win32,7.500750075,615d50afaa1ddf26457e079c,64c47140896c8c63e34c6d2f,64c51612fa5ae87a355e34f2,up,1,0.75,0.1143,75,0,2.3647,,,,,,243,0,243,0,1,,,,,
,,374308,001,2023-07-29_15h37.41.359,arm3_eps,2022.2.5,Win32,7.500750075,615d50afaa1ddf26457e079c,64c47140896c8c63e34c6d2f,64c51612fa5ae87a355e34f2,up,1,0.75,0.1143,76,0,1.8755,,,,,,244,0,244,0,1,,,,,
,,374308,001,2023-07-29_15h37.41.359,arm3_eps,2022.2.5,Win32,7.500750075,615d50afaa1ddf26457e079c,64c47140896c8c63e34c6d2f,64c51612fa5ae87a355e34f2,up,1,0.75,0.1143,77,0,1.5909,,,,,,245,0,245,0,1,,,,,
,,374308,001,2023-07-29_15h37.41.359,arm3_eps,2022.2.5,Win32,7.500750075,615d50afaa1ddf26457e079c,64c47140896c8c63e34c6d2f,64c51612fa5ae87a355e34f2,up,1,0.75,0.1143,77,0,2.2088,,,,,,246,0,246,0,1,,,,,
,,374308,001,2023-07-29_15h37.41.359,arm3_eps,2022.2.5,Win32,7.500750075,615d50afaa1ddf26457e079c,64c47140896c8c63e34c6d2f,64c51612fa5ae87a355e34f2,up,1,0.75,0.1143,78,0,1.1256,,,,,,247,0,247,0,1,,,,,
,,374308,001,2023-07-29_15h37.41.359,arm3_eps,2022.2.5,Win32,7.500750075,615d50afaa1ddf26457e079c,64c47140896c8c63e34c6d2f,64c51612fa5ae87a355e34f2,up,1,0.75,0.1143,79,0,1.7708,,,,,,248,0,248,0,1,,,,,
,,374308,001,2023-07-29_15h37.41.359,arm3_eps,2022.2.5,Win32,7.500750075,615d50afaa1ddf26457e079c,64c47140896c8c63e34c6d2f,64c51612fa5ae87a355e34f2,up,1,0.75,0.1143,80,0,1.7081,,,,,,249,0,249,0,1,,,,,
,,374308,001,2023-07-29_15h37.41.359,arm3_eps,2022.2.5,Win32,7.500750075,615d50afaa1ddf26457e079c,64c47140896c8c63e34c6d2f,64c51612fa5ae87a355e34f2,up,1,0.75,0.1143,81,0,1.584,,,,,,250,0,250,0,1,,,,,
,,374308,001,2023-07-29_15h37.41.359,arm3_eps,2022.2.5,Win32,7.500750075,615d50afaa1ddf26457e079c,64c47140896c8c63e34c6d2f,64c51612fa5ae87a355e34f2,up,1,0.75,0.1143,82,0,1.8678,,,,,,251,0,251,0,1,,,,,
,,374308,001,2023-07-29_15h37.41.359,arm3_eps,2022.2.5,Win32,7.500750075,615d50afaa1ddf26457e079c,64c47140896c8c63e34c6d2f,64c51612fa5ae87a355e34f2,up,1,0.75,0.1143,83,0,1.5576,,,,,,252,0,252,0,1,,,,,
,,374308,001,2023-07-29_15h37.41.359,arm3_eps,2022.2.5,Win32,7.500750075,615d50afaa1ddf26457e079c,64c47140896c8c63e34c6d2f,64c51612fa5ae87a355e34f2,up,1,0.75,0.1143,84,0,12.8807,,,,,,253,0,253,0,1,,,,,
,,374308,001,2023-07-29_15h37.41.359,arm3_eps,2022.2.5,Win32,7.500750075,615d50afaa1ddf26457e079c,64c47140896c8c63e34c6d2f,64c51612fa5ae87a355e34f2,up,1,0.75,0.1143,85,0,1.5661,,,,,,254,0,254,0,1,,,,,
,,374308,001,2023-07-29_15h37.41.359,arm3_eps,2022.2.5,Win32,7.500750075,615d50afaa1ddf26457e079c,64c47140896c8c63e34c6d2f,64c51612fa5ae87a355e34f2,up,1,0.75,0.1143,86,0,1.2757,,,,,,255,0,255,0,1,,,,,
,,374308,001,2023-07-29_15h37.41.359,arm3_eps,2022.2.5,Win32,7.500750075,615d50afaa1ddf26457e079c,64c47140896c8c63e34c6d2f,64c51612fa5ae87a355e34f2,up,1,0.75,0.1143,86,0,1.4356,,,,,,256,0,256,0,1,,,,,
,,374308,001,2023-07-29_15h37.41.359,arm3_eps,2022.2.5,Win32,7.500750075,615d50afaa1ddf26457e079c,64c47140896c8c63e34c6d2f,64c51612fa5ae87a355e34f2,up,1,0.75,0.1143,87,0,1.6357,,,,,,257,0,257,0,1,,,,,
,,374308,001,2023-07-29_15h37.41.359,arm3_eps,2022.2.5,Win32,7.500750075,615d50afaa1ddf26457e079c,64c47140896c8c63e34c6d2f,64c51612fa5ae87a355e34f2,up,1,0.75,0.1143,87,0,2.3758,,,,,,258,0,258,0,1,,,,,
,,374308,001,2023-07-29_15h37.41.359,arm3_eps,2022.2.5,Win32,7.500750075,615d50afaa1ddf26457e079c,64c47140896c8c63e34c6d2f,64c51612fa5ae87a355e34f2,up,1,0.75,0.1143,88,0,1.5495,,,,,,259,0,259,0,1,,,,,
,,374308,001,2023-07-29_15h37.41.359,arm3_eps,2022.2.5,Win32,7.500750075,615d50afaa1ddf26457e079c,64c47140896c8c63e34c6d2f,64c51612fa5ae87a355e34f2,up,1,0.75,0.1143,88,0,2.179,,,,,,260,0,260,0,1,,,,,
,,374308,001,2023-07-29_15h37.41.359,arm3_eps,2022.2.5,Win32,7.500750075,615d50afaa1ddf26457e079c,64c47140896c8c63e34c6d2f,64c51612fa5ae87a355e34f2,up,1,0.75,0.1143,89,0,1.4009,,,,,,261,0,261,0,1,,,,,
,,374308,001,2023-07-29_15h37.41.359,arm3_eps,2022.2.5,Win32,7.500750075,615d50afaa1ddf26457e079c,64c47140896c8c63e34c6d2f,64c51612fa5ae87a355e34f2,up,1,0.75,0.1143,89,0,1.3972,,,,,,262,0,262,0,1,,,,,
,,374308,001,2023-07-29_15h37.41.359,arm3_eps,2022.2.5,Win32,7.500750075,615d50afaa1ddf26457e079c,64c47140896c8c63e34c6d2f,64c51612fa5ae87a355e34f2,up,1,0.75,0.1143,90,0,1.8607,,,,,,263,0,263,0,1,,,,,
,,374308,001,2023-07-29_15h37.41.359,arm3_eps,2022.2.5,Win32,7.500750075,615d50afaa1ddf26457e079c,64c47140896c8c63e34c6d2f,64c51612fa5ae87a355e34f2,up,1,0.75,0.1143,90,0,1.7174,,,,,,264,0,264,0,1,,,,,
