space_bar.keys,space_bar.rt,participant,session,date,expName,psychopyVersion,OS,frameRate,PROLIFIC_PID,STUDY_ID,SESSION_ID,resp.keys,state,q_prob,eps_prob,score,price,resp.rt,train.thisRepN,train.thisTrialN,train.thisN,train.thisIndex,train.ran,steps.thisRepN,steps.thisTrialN,steps.thisN,steps.thisIndex,steps.ran,blocks.thisRepN,blocks.thisTrialN,blocks.thisN,blocks.thisIndex,blocks.ran
space,59.7258,424465,001,2023-07-31_20h42.57.847,arm3_eps,2022.2.5,MacIntel,59.99880002,616712249f8a8f034766cd47,64c7fed44a04f777bb1e18ce,64c8009def9a8395274c10cf,,,,,,,,,,,,,,,,,,,,,,
space,5.1003,424465,001,2023-07-31_20h42.57.847,arm3_eps,2022.2.5,MacIntel,59.99880002,616712249f8a8f034766cd47,64c7fed44a04f777bb1e18ce,64c8009def9a8395274c10cf,,,,,,,,,,,,,,,,,,,,,,
space,25.4824,424465,001,2023-07-31_20h42.57.847,arm3_eps,2022.2.5,MacIntel,59.99880002,616712249f8a8f034766cd47,64c7fed44a04f777bb1e18ce,64c8009def9a8395274c10cf,,,,,,,,,,,,,,,,,,,,,,
space,21.2712,424465,001,2023-07-31_20h42.57.847,arm3_eps,2022.2.5,MacIntel,59.99880002,616712249f8a8f034766cd47,64c7fed44a04f777bb1e18ce,64c8009def9a8395274c10cf,,,,,,,,,,,,,,,,,,,,,,
space,18.734,424465,001,2023-07-31_20h42.57.847,arm3_eps,2022.2.5,MacIntel,59.99880002,616712249f8a8f034766cd47,64c7fed44a04f777bb1e18ce,64c8009def9a8395274c10cf,,,,,,,,,,,,,,,,,,,,,,
space,12.5321,424465,001,2023-07-31_20h42.57.847,arm3_eps,2022.2.5,MacIntel,59.99880002,616712249f8a8f034766cd47,64c7fed44a04f777bb1e18ce,64c8009def9a8395274c10cf,,,,,,,,,,,,,,,,,,,,,,
space,2.4792,424465,001,2023-07-31_20h42.57.847,arm3_eps,2022.2.5,MacIntel,59.99880002,616712249f8a8f034766cd47,64c7fed44a04f777bb1e18ce,64c8009def9a8395274c10cf,,,,,,,,,,,,,,,,,,,,,,
,,424465,001,2023-07-31_20h42.57.847,arm3_eps,2022.2.5,MacIntel,59.99880002,616712249f8a8f034766cd47,64c7fed44a04f777bb1e18ce,64c8009def9a8395274c10cf,right,-1,1,0.2429,0,0.014065114,6.5569,0,0,0,0,1,,,,,,,,,,
,,424465,001,2023-07-31_20h42.57.847,arm3_eps,2022.2.5,MacIntel,59.99880002,616712249f8a8f034766cd47,64c7fed44a04f777bb1e18ce,64c8009def9a8395274c10cf,right,-1,1,0.2429,0,-0.008028029,0.4116,1,0,1,0,1,,,,,,,,,,
,,424465,001,2023-07-31_20h42.57.847,arm3_eps,2022.2.5,MacIntel,59.99880002,616712249f8a8f034766cd47,64c7fed44a04f777bb1e18ce,64c8009def9a8395274c10cf,right,-1,1,0.2429,0,-0.007593864,0.3868,2,0,2,0,1,,,,,,,,,,
,,424465,001,2023-07-31_20h42.57.847,arm3_eps,2022.2.5,MacIntel,59.99880002,616712249f8a8f034766cd47,64c7fed44a04f777bb1e18ce,64c8009def9a8395274c10cf,right,-1,1,0.2429,0,-0.011866696,0.3052,3,0,3,0,1,,,,,,,,,,
,,424465,001,2023-07-31_20h42.57.847,arm3_eps,2022.2.5,MacIntel,59.99880002,616712249f8a8f034766cd47,64c7fed44a04f777bb1e18ce,64c8009def9a8395274c10cf,right,-1,1,0.2429,0,-0.054902878,0.2825,4,0,4,0,1,,,,,,,,,,
,,424465,001,2023-07-31_20h42.57.847,arm3_eps,2022.2.5,MacIntel,59.99880002,616712249f8a8f034766cd47,64c7fed44a04f777bb1e18ce,64c8009def9a8395274c10cf,right,-1,1,0.2429,0,-0.06465477,0.3027,5,0,5,0,1,,,,,,,,,,
,,424465,001,2023-07-31_20h42.57.847,arm3_eps,2022.2.5,MacIntel,59.99880002,616712249f8a8f034766cd47,64c7fed44a04f777bb1e18ce,64c8009def9a8395274c10cf,right,-1,1,0.2429,0,-0.105705264,0.339,6,0,6,0,1,,,,,,,,,,
,,424465,001,2023-07-31_20h42.57.847,arm3_eps,2022.2.5,MacIntel,59.99880002,616712249f8a8f034766cd47,64c7fed44a04f777bb1e18ce,64c8009def9a8395274c10cf,right,-1,1,0.2429,0,-0.118695281,0.3154,7,0,7,0,1,,,,,,,,,,
,,424465,001,2023-07-31_20h42.57.847,arm3_eps,2022.2.5,MacIntel,59.99880002,616712249f8a8f034766cd47,64c7fed44a04f777bb1e18ce,64c8009def9a8395274c10cf,right,-1,1,0.2429,0,-0.100324402,0.3166,8,0,8,0,1,,,,,,,,,,
,,424465,001,2023-07-31_20h42.57.847,arm3_eps,2022.2.5,MacIntel,59.99880002,616712249f8a8f034766cd47,64c7fed44a04f777bb1e18ce,64c8009def9a8395274c10cf,right,-1,1,0.2429,0,-0.137382985,0.2603,9,0,9,0,1,,,,,,,,,,
,,424465,001,2023-07-31_20h42.57.847,arm3_eps,2022.2.5,MacIntel,59.99880002,616712249f8a8f034766cd47,64c7fed44a04f777bb1e18ce,64c8009def9a8395274c10cf,right,-1,1,0.2429,0,-0.148920632,0.2848,10,0,10,0,1,,,,,,,,,,
,,424465,001,2023-07-31_20h42.57.847,arm3_eps,2022.2.5,MacIntel,59.99880002,616712249f8a8f034766cd47,64c7fed44a04f777bb1e18ce,64c8009def9a8395274c10cf,down,1,1,0.2429,1,0,1.1987,11,0,11,0,1,,,,,,,,,,
,,424465,001,2023-07-31_20h42.57.847,arm3_eps,2022.2.5,MacIntel,59.99880002,616712249f8a8f034766cd47,64c7fed44a04f777bb1e18ce,64c8009def9a8395274c10cf,right,1,1,0.2429,1,0.006726411,3.515,12,0,12,0,1,,,,,,,,,,
,,424465,001,2023-07-31_20h42.57.847,arm3_eps,2022.2.5,MacIntel,59.99880002,616712249f8a8f034766cd47,64c7fed44a04f777bb1e18ce,64c8009def9a8395274c10cf,right,1,1,0.2429,1,0.043759985,0.3124,13,0,13,0,1,,,,,,,,,,
,,424465,001,2023-07-31_20h42.57.847,arm3_eps,2022.2.5,MacIntel,59.99880002,616712249f8a8f034766cd47,64c7fed44a04f777bb1e18ce,64c8009def9a8395274c10cf,right,1,1,0.2429,1,0.060337464,0.2848,14,0,14,0,1,,,,,,,,,,
,,424465,001,2023-07-31_20h42.57.847,arm3_eps,2022.2.5,MacIntel,59.99880002,616712249f8a8f034766cd47,64c7fed44a04f777bb1e18ce,64c8009def9a8395274c10cf,right,1,1,0.2429,1,0.095161624,0.2989,15,0,15,0,1,,,,,,,,,,
,,424465,001,2023-07-31_20h42.57.847,arm3_eps,2022.2.5,MacIntel,59.99880002,616712249f8a8f034766cd47,64c7fed44a04f777bb1e18ce,64c8009def9a8395274c10cf,right,1,1,0.2429,1,0.084691407,0.2394,16,0,16,0,1,,,,,,,,,,
,,424465,001,2023-07-31_20h42.57.847,arm3_eps,2022.2.5,MacIntel,59.99880002,616712249f8a8f034766cd47,64c7fed44a04f777bb1e18ce,64c8009def9a8395274c10cf,right,1,1,0.2429,1,0.089143319,0.2667,17,0,17,0,1,,,,,,,,,,
,,424465,001,2023-07-31_20h42.57.847,arm3_eps,2022.2.5,MacIntel,59.99880002,616712249f8a8f034766cd47,64c7fed44a04f777bb1e18ce,64c8009def9a8395274c10cf,right,1,1,0.2429,1,0.129457864,0.2772,18,0,18,0,1,,,,,,,,,,
,,424465,001,2023-07-31_20h42.57.847,arm3_eps,2022.2.5,MacIntel,59.99880002,616712249f8a8f034766cd47,64c7fed44a04f777bb1e18ce,64c8009def9a8395274c10cf,right,1,1,0.2429,1,0.139243488,0.2869,19,0,19,0,1,,,,,,,,,,
,,424465,001,2023-07-31_20h42.57.847,arm3_eps,2022.2.5,MacIntel,59.99880002,616712249f8a8f034766cd47,64c7fed44a04f777bb1e18ce,64c8009def9a8395274c10cf,right,1,1,0.2429,1,0.15976505,0.2638,20,0,20,0,1,,,,,,,,,,
,,424465,001,2023-07-31_20h42.57.847,arm3_eps,2022.2.5,MacIntel,59.99880002,616712249f8a8f034766cd47,64c7fed44a04f777bb1e18ce,64c8009def9a8395274c10cf,right,1,1,0.2429,1,0.134037072,0.2387,21,0,21,0,1,,,,,,,,,,
,,424465,001,2023-07-31_20h42.57.847,arm3_eps,2022.2.5,MacIntel,59.99880002,616712249f8a8f034766cd47,64c7fed44a04f777bb1e18ce,64c8009def9a8395274c10cf,up,1,1,0.2429,2,0,1.5858,22,0,22,0,1,,,,,,,,,,
,,424465,001,2023-07-31_20h42.57.847,arm3_eps,2022.2.5,MacIntel,59.99880002,616712249f8a8f034766cd47,64c7fed44a04f777bb1e18ce,64c8009def9a8395274c10cf,right,1,1,0.2429,2,0.025446174,2.5021,23,0,23,0,1,,,,,,,,,,
,,424465,001,2023-07-31_20h42.57.847,arm3_eps,2022.2.5,MacIntel,59.99880002,616712249f8a8f034766cd47,64c7fed44a04f777bb1e18ce,64c8009def9a8395274c10cf,right,1,1,0.2429,2,0.044267381,0.2853,24,0,24,0,1,,,,,,,,,,
,,424465,001,2023-07-31_20h42.57.847,arm3_eps,2022.2.5,MacIntel,59.99880002,616712249f8a8f034766cd47,64c7fed44a04f777bb1e18ce,64c8009def9a8395274c10cf,right,1,1,0.2429,2,0.05440524,0.2692,25,0,25,0,1,,,,,,,,,,
,,424465,001,2023-07-31_20h42.57.847,arm3_eps,2022.2.5,MacIntel,59.99880002,616712249f8a8f034766cd47,64c7fed44a04f777bb1e18ce,64c8009def9a8395274c10cf,right,1,1,0.2429,2,0.068916097,0.2333,26,0,26,0,1,,,,,,,,,,
,,424465,001,2023-07-31_20h42.57.847,arm3_eps,2022.2.5,MacIntel,59.99880002,616712249f8a8f034766cd47,64c7fed44a04f777bb1e18ce,64c8009def9a8395274c10cf,right,1,1,0.2429,2,0.084824542,0.2173,27,0,27,0,1,,,,,,,,,,
,,424465,001,2023-07-31_20h42.57.847,arm3_eps,2022.2.5,MacIntel,59.99880002,616712249f8a8f034766cd47,64c7fed44a04f777bb1e18ce,64c8009def9a8395274c10cf,right,1,1,0.2429,2,0.095742151,0.2377,28,0,28,0,1,,,,,,,,,,
,,424465,001,2023-07-31_20h42.57.847,arm3_eps,2022.2.5,MacIntel,59.99880002,616712249f8a8f034766cd47,64c7fed44a04f777bb1e18ce,64c8009def9a8395274c10cf,right,1,1,0.2429,2,0.062849528,0.2478,29,0,29,0,1,,,,,,,,,,
,,424465,001,2023-07-31_20h42.57.847,arm3_eps,2022.2.5,MacIntel,59.99880002,616712249f8a8f034766cd47,64c7fed44a04f777bb1e18ce,64c8009def9a8395274c10cf,right,1,1,0.2429,2,0.059421992,0.2655,30,0,30,0,1,,,,,,,,,,
,,424465,001,2023-07-31_20h42.57.847,arm3_eps,2022.2.5,MacIntel,59.99880002,616712249f8a8f034766cd47,64c7fed44a04f777bb1e18ce,64c8009def9a8395274c10cf,right,1,1,0.2429,2,0.088934224,0.2521,31,0,31,0,1,,,,,,,,,,
,,424465,001,2023-07-31_20h42.57.847,arm3_eps,2022.2.5,MacIntel,59.99880002,616712249f8a8f034766cd47,64c7fed44a04f777bb1e18ce,64c8009def9a8395274c10cf,right,1,1,0.2429,2,0.09602618,0.2821,32,0,32,0,1,,,,,,,,,,
,,424465,001,2023-07-31_20h42.57.847,arm3_eps,2022.2.5,MacIntel,59.99880002,616712249f8a8f034766cd47,64c7fed44a04f777bb1e18ce,64c8009def9a8395274c10cf,right,1,1,0.2429,2,0.124158181,0.2809,33,0,33,0,1,,,,,,,,,,
,,424465,001,2023-07-31_20h42.57.847,arm3_eps,2022.2.5,MacIntel,59.99880002,616712249f8a8f034766cd47,64c7fed44a04f777bb1e18ce,64c8009def9a8395274c10cf,up,1,1,0.2429,3,0,1.3671,34,0,34,0,1,,,,,,,,,,
,,424465,001,2023-07-31_20h42.57.847,arm3_eps,2022.2.5,MacIntel,59.99880002,616712249f8a8f034766cd47,64c7fed44a04f777bb1e18ce,64c8009def9a8395274c10cf,right,1,1,0.2429,3,-0.015899798,1.7182,35,0,35,0,1,,,,,,,,,,
,,424465,001,2023-07-31_20h42.57.847,arm3_eps,2022.2.5,MacIntel,59.99880002,616712249f8a8f034766cd47,64c7fed44a04f777bb1e18ce,64c8009def9a8395274c10cf,right,1,1,0.2429,3,-0.00387356,0.2731,36,0,36,0,1,,,,,,,,,,
,,424465,001,2023-07-31_20h42.57.847,arm3_eps,2022.2.5,MacIntel,59.99880002,616712249f8a8f034766cd47,64c7fed44a04f777bb1e18ce,64c8009def9a8395274c10cf,right,1,1,0.2429,3,-0.005325011,0.2163,37,0,37,0,1,,,,,,,,,,
,,424465,001,2023-07-31_20h42.57.847,arm3_eps,2022.2.5,MacIntel,59.99880002,616712249f8a8f034766cd47,64c7fed44a04f777bb1e18ce,64c8009def9a8395274c10cf,right,1,1,0.2429,3,0.006420532,0.1704,38,0,38,0,1,,,,,,,,,,
,,424465,001,2023-07-31_20h42.57.847,arm3_eps,2022.2.5,MacIntel,59.99880002,616712249f8a8f034766cd47,64c7fed44a04f777bb1e18ce,64c8009def9a8395274c10cf,right,1,1,0.2429,3,0.009535148,0.2482,39,0,39,0,1,,,,,,,,,,
,,424465,001,2023-07-31_20h42.57.847,arm3_eps,2022.2.5,MacIntel,59.99880002,616712249f8a8f034766cd47,64c7fed44a04f777bb1e18ce,64c8009def9a8395274c10cf,right,1,1,0.2429,3,-0.006402829,0.2699,40,0,40,0,1,,,,,,,,,,
,,424465,001,2023-07-31_20h42.57.847,arm3_eps,2022.2.5,MacIntel,59.99880002,616712249f8a8f034766cd47,64c7fed44a04f777bb1e18ce,64c8009def9a8395274c10cf,right,1,1,0.2429,3,-0.037859984,0.2593,41,0,41,0,1,,,,,,,,,,
,,424465,001,2023-07-31_20h42.57.847,arm3_eps,2022.2.5,MacIntel,59.99880002,616712249f8a8f034766cd47,64c7fed44a04f777bb1e18ce,64c8009def9a8395274c10cf,right,1,1,0.2429,3,-0.010249087,0.2988,42,0,42,0,1,,,,,,,,,,
,,424465,001,2023-07-31_20h42.57.847,arm3_eps,2022.2.5,MacIntel,59.99880002,616712249f8a8f034766cd47,64c7fed44a04f777bb1e18ce,64c8009def9a8395274c10cf,right,1,1,0.2429,3,0.027758115,0.2676,43,0,43,0,1,,,,,,,,,,
,,424465,001,2023-07-31_20h42.57.847,arm3_eps,2022.2.5,MacIntel,59.99880002,616712249f8a8f034766cd47,64c7fed44a04f777bb1e18ce,64c8009def9a8395274c10cf,right,1,1,0.2429,3,0.029731918,0.3665,44,0,44,0,1,,,,,,,,,,
,,424465,001,2023-07-31_20h42.57.847,arm3_eps,2022.2.5,MacIntel,59.99880002,616712249f8a8f034766cd47,64c7fed44a04f777bb1e18ce,64c8009def9a8395274c10cf,right,1,1,0.2429,3,0.056857655,0.2683,45,0,45,0,1,,,,,,,,,,
,,424465,001,2023-07-31_20h42.57.847,arm3_eps,2022.2.5,MacIntel,59.99880002,616712249f8a8f034766cd47,64c7fed44a04f777bb1e18ce,64c8009def9a8395274c10cf,up,1,1,0.2429,4,0,1.1992,46,0,46,0,1,,,,,,,,,,
,,424465,001,2023-07-31_20h42.57.847,arm3_eps,2022.2.5,MacIntel,59.99880002,616712249f8a8f034766cd47,64c7fed44a04f777bb1e18ce,64c8009def9a8395274c10cf,right,1,1,0.2429,4,-0.013348401,2.4962,47,0,47,0,1,,,,,,,,,,
,,424465,001,2023-07-31_20h42.57.847,arm3_eps,2022.2.5,MacIntel,59.99880002,616712249f8a8f034766cd47,64c7fed44a04f777bb1e18ce,64c8009def9a8395274c10cf,right,1,1,0.2429,4,0.002116036,0.2112,48,0,48,0,1,,,,,,,,,,
,,424465,001,2023-07-31_20h42.57.847,arm3_eps,2022.2.5,MacIntel,59.99880002,616712249f8a8f034766cd47,64c7fed44a04f777bb1e18ce,64c8009def9a8395274c10cf,right,1,1,0.2429,4,0.011692722,0.2539,49,0,49,0,1,,,,,,,,,,
space,26.1877,424465,001,2023-07-31_20h42.57.847,arm3_eps,2022.2.5,MacIntel,59.99880002,616712249f8a8f034766cd47,64c7fed44a04f777bb1e18ce,64c8009def9a8395274c10cf,,,,,,,,,,,,,,,,,,,,,,
space,19.8393,424465,001,2023-07-31_20h42.57.847,arm3_eps,2022.2.5,MacIntel,59.99880002,616712249f8a8f034766cd47,64c7fed44a04f777bb1e18ce,64c8009def9a8395274c10cf,,,,,,,,,,,,,,,,,,,,,,
space,18.3001,424465,001,2023-07-31_20h42.57.847,arm3_eps,2022.2.5,MacIntel,59.99880002,616712249f8a8f034766cd47,64c7fed44a04f777bb1e18ce,64c8009def9a8395274c10cf,,,,,,,,,,,,,,,,,,,,,,
space,9.7499,424465,001,2023-07-31_20h42.57.847,arm3_eps,2022.2.5,MacIntel,59.99880002,616712249f8a8f034766cd47,64c7fed44a04f777bb1e18ce,64c8009def9a8395274c10cf,,,,,,,,,,,,,,,,,,,,,,
space,12.0464,424465,001,2023-07-31_20h42.57.847,arm3_eps,2022.2.5,MacIntel,59.99880002,616712249f8a8f034766cd47,64c7fed44a04f777bb1e18ce,64c8009def9a8395274c10cf,,,,,,,,,,,,,,,,,,,,,,
space,1.4893,424465,001,2023-07-31_20h42.57.847,arm3_eps,2022.2.5,MacIntel,59.99880002,616712249f8a8f034766cd47,64c7fed44a04f777bb1e18ce,64c8009def9a8395274c10cf,,,,,,,,,,,,,,,,,,,,,,
,,424465,001,2023-07-31_20h42.57.847,arm3_eps,2022.2.5,MacIntel,59.99880002,616712249f8a8f034766cd47,64c7fed44a04f777bb1e18ce,64c8009def9a8395274c10cf,right,1,0.75,0.2429,0,0.017314792,1.7395,0,0,0,0,1,,,,,,,,,,
,,424465,001,2023-07-31_20h42.57.847,arm3_eps,2022.2.5,MacIntel,59.99880002,616712249f8a8f034766cd47,64c7fed44a04f777bb1e18ce,64c8009def9a8395274c10cf,right,1,0.75,0.2429,0,0.023859003,1.1026,1,0,1,0,1,,,,,,,,,,
,,424465,001,2023-07-31_20h42.57.847,arm3_eps,2022.2.5,MacIntel,59.99880002,616712249f8a8f034766cd47,64c7fed44a04f777bb1e18ce,64c8009def9a8395274c10cf,right,1,0.75,0.2429,0,0.033776318,1.2336,2,0,2,0,1,,,,,,,,,,
,,424465,001,2023-07-31_20h42.57.847,arm3_eps,2022.2.5,MacIntel,59.99880002,616712249f8a8f034766cd47,64c7fed44a04f777bb1e18ce,64c8009def9a8395274c10cf,up,-1,0.75,0.2429,0,0,1.2813,3,0,3,0,1,,,,,,,,,,
,,424465,001,2023-07-31_20h42.57.847,arm3_eps,2022.2.5,MacIntel,59.99880002,616712249f8a8f034766cd47,64c7fed44a04f777bb1e18ce,64c8009def9a8395274c10cf,right,-1,0.75,0.2429,0,-0.024873186,1.8989,4,0,4,0,1,,,,,,,,,,
,,424465,001,2023-07-31_20h42.57.847,arm3_eps,2022.2.5,MacIntel,59.99880002,616712249f8a8f034766cd47,64c7fed44a04f777bb1e18ce,64c8009def9a8395274c10cf,right,-1,0.75,0.2429,0,-0.031693054,1.1154,5,0,5,0,1,,,,,,,,,,
,,424465,001,2023-07-31_20h42.57.847,arm3_eps,2022.2.5,MacIntel,59.99880002,616712249f8a8f034766cd47,64c7fed44a04f777bb1e18ce,64c8009def9a8395274c10cf,right,-1,0.75,0.2429,0,-0.032255611,1.6176,6,0,6,0,1,,,,,,,,,,
,,424465,001,2023-07-31_20h42.57.847,arm3_eps,2022.2.5,MacIntel,59.99880002,616712249f8a8f034766cd47,64c7fed44a04f777bb1e18ce,64c8009def9a8395274c10cf,right,-1,0.75,0.2429,0,-0.023780314,1.6169,7,0,7,0,1,,,,,,,,,,
,,424465,001,2023-07-31_20h42.57.847,arm3_eps,2022.2.5,MacIntel,59.99880002,616712249f8a8f034766cd47,64c7fed44a04f777bb1e18ce,64c8009def9a8395274c10cf,down,-1,0.75,0.2429,0,0,0.6353,8,0,8,0,1,,,,,,,,,,
,,424465,001,2023-07-31_20h42.57.847,arm3_eps,2022.2.5,MacIntel,59.99880002,616712249f8a8f034766cd47,64c7fed44a04f777bb1e18ce,64c8009def9a8395274c10cf,right,-1,0.75,0.2429,0,-0.003412907,3.9456,9,0,9,0,1,,,,,,,,,,
,,424465,001,2023-07-31_20h42.57.847,arm3_eps,2022.2.5,MacIntel,59.99880002,616712249f8a8f034766cd47,64c7fed44a04f777bb1e18ce,64c8009def9a8395274c10cf,right,-1,0.75,0.2429,0,0.006292597,0.8252,10,0,10,0,1,,,,,,,,,,
,,424465,001,2023-07-31_20h42.57.847,arm3_eps,2022.2.5,MacIntel,59.99880002,616712249f8a8f034766cd47,64c7fed44a04f777bb1e18ce,64c8009def9a8395274c10cf,right,-1,0.75,0.2429,0,0.004154287,0.8009,11,0,11,0,1,,,,,,,,,,
,,424465,001,2023-07-31_20h42.57.847,arm3_eps,2022.2.5,MacIntel,59.99880002,616712249f8a8f034766cd47,64c7fed44a04f777bb1e18ce,64c8009def9a8395274c10cf,right,-1,0.75,0.2429,0,0.000149291,1.3191,12,0,12,0,1,,,,,,,,,,
,,424465,001,2023-07-31_20h42.57.847,arm3_eps,2022.2.5,MacIntel,59.99880002,616712249f8a8f034766cd47,64c7fed44a04f777bb1e18ce,64c8009def9a8395274c10cf,right,-1,0.75,0.2429,0,-0.009296927,0.9659,13,0,13,0,1,,,,,,,,,,
,,424465,001,2023-07-31_20h42.57.847,arm3_eps,2022.2.5,MacIntel,59.99880002,616712249f8a8f034766cd47,64c7fed44a04f777bb1e18ce,64c8009def9a8395274c10cf,down,-1,0.75,0.2429,1,0,0.9317,14,0,14,0,1,,,,,,,,,,
,,424465,001,2023-07-31_20h42.57.847,arm3_eps,2022.2.5,MacIntel,59.99880002,616712249f8a8f034766cd47,64c7fed44a04f777bb1e18ce,64c8009def9a8395274c10cf,right,-1,0.75,0.2429,1,-0.010161341,3.1178,15,0,15,0,1,,,,,,,,,,
,,424465,001,2023-07-31_20h42.57.847,arm3_eps,2022.2.5,MacIntel,59.99880002,616712249f8a8f034766cd47,64c7fed44a04f777bb1e18ce,64c8009def9a8395274c10cf,right,-1,0.75,0.2429,1,-0.0118758,0.9177,16,0,16,0,1,,,,,,,,,,
,,424465,001,2023-07-31_20h42.57.847,arm3_eps,2022.2.5,MacIntel,59.99880002,616712249f8a8f034766cd47,64c7fed44a04f777bb1e18ce,64c8009def9a8395274c10cf,right,-1,0.75,0.2429,1,-0.029149891,0.7478,17,0,17,0,1,,,,,,,,,,
,,424465,001,2023-07-31_20h42.57.847,arm3_eps,2022.2.5,MacIntel,59.99880002,616712249f8a8f034766cd47,64c7fed44a04f777bb1e18ce,64c8009def9a8395274c10cf,right,-1,0.75,0.2429,1,-0.024829297,0.8158,18,0,18,0,1,,,,,,,,,,
,,424465,001,2023-07-31_20h42.57.847,arm3_eps,2022.2.5,MacIntel,59.99880002,616712249f8a8f034766cd47,64c7fed44a04f777bb1e18ce,64c8009def9a8395274c10cf,right,-1,0.75,0.2429,1,-0.018794976,0.8851,19,0,19,0,1,,,,,,,,,,
,,424465,001,2023-07-31_20h42.57.847,arm3_eps,2022.2.5,MacIntel,59.99880002,616712249f8a8f034766cd47,64c7fed44a04f777bb1e18ce,64c8009def9a8395274c10cf,down,-1,0.75,0.2429,2,0,0.7958,20,0,20,0,1,,,,,,,,,,
,,424465,001,2023-07-31_20h42.57.847,arm3_eps,2022.2.5,MacIntel,59.99880002,616712249f8a8f034766cd47,64c7fed44a04f777bb1e18ce,64c8009def9a8395274c10cf,right,-1,0.75,0.2429,2,-0.055298012,1.6842,21,0,21,0,1,,,,,,,,,,
,,424465,001,2023-07-31_20h42.57.847,arm3_eps,2022.2.5,MacIntel,59.99880002,616712249f8a8f034766cd47,64c7fed44a04f777bb1e18ce,64c8009def9a8395274c10cf,right,-1,0.75,0.2429,2,-0.112102841,1.0032,22,0,22,0,1,,,,,,,,,,
,,424465,001,2023-07-31_20h42.57.847,arm3_eps,2022.2.5,MacIntel,59.99880002,616712249f8a8f034766cd47,64c7fed44a04f777bb1e18ce,64c8009def9a8395274c10cf,right,-1,0.75,0.2429,2,-0.123066316,4.7666,23,0,23,0,1,,,,,,,,,,
,,424465,001,2023-07-31_20h42.57.847,arm3_eps,2022.2.5,MacIntel,59.99880002,616712249f8a8f034766cd47,64c7fed44a04f777bb1e18ce,64c8009def9a8395274c10cf,down,-1,0.75,0.2429,3,0,1.344,24,0,24,0,1,,,,,,,,,,
,,424465,001,2023-07-31_20h42.57.847,arm3_eps,2022.2.5,MacIntel,59.99880002,616712249f8a8f034766cd47,64c7fed44a04f777bb1e18ce,64c8009def9a8395274c10cf,right,-1,0.75,0.2429,3,0.03149231,1.3801,25,0,25,0,1,,,,,,,,,,
,,424465,001,2023-07-31_20h42.57.847,arm3_eps,2022.2.5,MacIntel,59.99880002,616712249f8a8f034766cd47,64c7fed44a04f777bb1e18ce,64c8009def9a8395274c10cf,right,-1,0.75,0.2429,3,0.044169819,0.953,26,0,26,0,1,,,,,,,,,,
,,424465,001,2023-07-31_20h42.57.847,arm3_eps,2022.2.5,MacIntel,59.99880002,616712249f8a8f034766cd47,64c7fed44a04f777bb1e18ce,64c8009def9a8395274c10cf,right,-1,0.75,0.2429,3,0.039006454,0.9855,27,0,27,0,1,,,,,,,,,,
,,424465,001,2023-07-31_20h42.57.847,arm3_eps,2022.2.5,MacIntel,59.99880002,616712249f8a8f034766cd47,64c7fed44a04f777bb1e18ce,64c8009def9a8395274c10cf,up,-1,0.75,0.2429,2,0,0.9954,28,0,28,0,1,,,,,,,,,,
,,424465,001,2023-07-31_20h42.57.847,arm3_eps,2022.2.5,MacIntel,59.99880002,616712249f8a8f034766cd47,64c7fed44a04f777bb1e18ce,64c8009def9a8395274c10cf,right,-1,0.75,0.2429,2,0.007689233,2.6133,29,0,29,0,1,,,,,,,,,,
,,424465,001,2023-07-31_20h42.57.847,arm3_eps,2022.2.5,MacIntel,59.99880002,616712249f8a8f034766cd47,64c7fed44a04f777bb1e18ce,64c8009def9a8395274c10cf,right,-1,0.75,0.2429,2,0.012526947,0.8422,30,0,30,0,1,,,,,,,,,,
,,424465,001,2023-07-31_20h42.57.847,arm3_eps,2022.2.5,MacIntel,59.99880002,616712249f8a8f034766cd47,64c7fed44a04f777bb1e18ce,64c8009def9a8395274c10cf,right,-1,0.75,0.2429,2,-0.007188991,0.9055,31,0,31,0,1,,,,,,,,,,
,,424465,001,2023-07-31_20h42.57.847,arm3_eps,2022.2.5,MacIntel,59.99880002,616712249f8a8f034766cd47,64c7fed44a04f777bb1e18ce,64c8009def9a8395274c10cf,right,-1,0.75,0.2429,2,-0.008425038,1.2376,32,0,32,0,1,,,,,,,,,,
,,424465,001,2023-07-31_20h42.57.847,arm3_eps,2022.2.5,MacIntel,59.99880002,616712249f8a8f034766cd47,64c7fed44a04f777bb1e18ce,64c8009def9a8395274c10cf,right,-1,0.75,0.2429,2,-0.020409342,1.6817,33,0,33,0,1,,,,,,,,,,
,,424465,001,2023-07-31_20h42.57.847,arm3_eps,2022.2.5,MacIntel,59.99880002,616712249f8a8f034766cd47,64c7fed44a04f777bb1e18ce,64c8009def9a8395274c10cf,down,-1,0.75,0.2429,3,0,0.9187,34,0,34,0,1,,,,,,,,,,
,,424465,001,2023-07-31_20h42.57.847,arm3_eps,2022.2.5,MacIntel,59.99880002,616712249f8a8f034766cd47,64c7fed44a04f777bb1e18ce,64c8009def9a8395274c10cf,right,-1,0.75,0.2429,3,0.023690449,1.4792,35,0,35,0,1,,,,,,,,,,
,,424465,001,2023-07-31_20h42.57.847,arm3_eps,2022.2.5,MacIntel,59.99880002,616712249f8a8f034766cd47,64c7fed44a04f777bb1e18ce,64c8009def9a8395274c10cf,right,-1,0.75,0.2429,3,0.004636667,2.4993,36,0,36,0,1,,,,,,,,,,
,,424465,001,2023-07-31_20h42.57.847,arm3_eps,2022.2.5,MacIntel,59.99880002,616712249f8a8f034766cd47,64c7fed44a04f777bb1e18ce,64c8009def9a8395274c10cf,right,-1,0.75,0.2429,3,0.007363191,1.9996,37,0,37,0,1,,,,,,,,,,
,,424465,001,2023-07-31_20h42.57.847,arm3_eps,2022.2.5,MacIntel,59.99880002,616712249f8a8f034766cd47,64c7fed44a04f777bb1e18ce,64c8009def9a8395274c10cf,right,-1,0.75,0.2429,3,0.009154374,1.5172,38,0,38,0,1,,,,,,,,,,
,,424465,001,2023-07-31_20h42.57.847,arm3_eps,2022.2.5,MacIntel,59.99880002,616712249f8a8f034766cd47,64c7fed44a04f777bb1e18ce,64c8009def9a8395274c10cf,right,-1,0.75,0.2429,3,-0.01670462,1.4652,39,0,39,0,1,,,,,,,,,,
,,424465,001,2023-07-31_20h42.57.847,arm3_eps,2022.2.5,MacIntel,59.99880002,616712249f8a8f034766cd47,64c7fed44a04f777bb1e18ce,64c8009def9a8395274c10cf,right,-1,0.75,0.2429,3,-0.018445493,1.2221,40,0,40,0,1,,,,,,,,,,
,,424465,001,2023-07-31_20h42.57.847,arm3_eps,2022.2.5,MacIntel,59.99880002,616712249f8a8f034766cd47,64c7fed44a04f777bb1e18ce,64c8009def9a8395274c10cf,down,-1,0.75,0.2429,4,0,1.0502,41,0,41,0,1,,,,,,,,,,
,,424465,001,2023-07-31_20h42.57.847,arm3_eps,2022.2.5,MacIntel,59.99880002,616712249f8a8f034766cd47,64c7fed44a04f777bb1e18ce,64c8009def9a8395274c10cf,right,-1,0.75,0.2429,4,-0.011840163,2.48,42,0,42,0,1,,,,,,,,,,
,,424465,001,2023-07-31_20h42.57.847,arm3_eps,2022.2.5,MacIntel,59.99880002,616712249f8a8f034766cd47,64c7fed44a04f777bb1e18ce,64c8009def9a8395274c10cf,right,-1,0.75,0.2429,4,-0.029108805,2.2682,43,0,43,0,1,,,,,,,,,,
,,424465,001,2023-07-31_20h42.57.847,arm3_eps,2022.2.5,MacIntel,59.99880002,616712249f8a8f034766cd47,64c7fed44a04f777bb1e18ce,64c8009def9a8395274c10cf,right,-1,0.75,0.2429,4,-0.040356605,1.4014,44,0,44,0,1,,,,,,,,,,
,,424465,001,2023-07-31_20h42.57.847,arm3_eps,2022.2.5,MacIntel,59.99880002,616712249f8a8f034766cd47,64c7fed44a04f777bb1e18ce,64c8009def9a8395274c10cf,right,-1,0.75,0.2429,4,-0.036021128,1.0008,45,0,45,0,1,,,,,,,,,,
,,424465,001,2023-07-31_20h42.57.847,arm3_eps,2022.2.5,MacIntel,59.99880002,616712249f8a8f034766cd47,64c7fed44a04f777bb1e18ce,64c8009def9a8395274c10cf,right,-1,0.75,0.2429,4,-0.04182795,1.1831,46,0,46,0,1,,,,,,,,,,
,,424465,001,2023-07-31_20h42.57.847,arm3_eps,2022.2.5,MacIntel,59.99880002,616712249f8a8f034766cd47,64c7fed44a04f777bb1e18ce,64c8009def9a8395274c10cf,down,-1,0.75,0.2429,5,0,0.9863,47,0,47,0,1,,,,,,,,,,
,,424465,001,2023-07-31_20h42.57.847,arm3_eps,2022.2.5,MacIntel,59.99880002,616712249f8a8f034766cd47,64c7fed44a04f777bb1e18ce,64c8009def9a8395274c10cf,right,-1,0.75,0.2429,5,-0.012873772,2.6297,48,0,48,0,1,,,,,,,,,,
,,424465,001,2023-07-31_20h42.57.847,arm3_eps,2022.2.5,MacIntel,59.99880002,616712249f8a8f034766cd47,64c7fed44a04f777bb1e18ce,64c8009def9a8395274c10cf,right,-1,0.75,0.2429,5,-0.006608256,1.4,49,0,49,0,1,,,,,,,,,,
space,26.1033,424465,001,2023-07-31_20h42.57.847,arm3_eps,2022.2.5,MacIntel,59.99880002,616712249f8a8f034766cd47,64c7fed44a04f777bb1e18ce,64c8009def9a8395274c10cf,,,,,,,,,,,,,,,,,,,,,,
space,0.7474,424465,001,2023-07-31_20h42.57.847,arm3_eps,2022.2.5,MacIntel,59.99880002,616712249f8a8f034766cd47,64c7fed44a04f777bb1e18ce,64c8009def9a8395274c10cf,,,,,,,,,,,,,,,,,,,,,,
space,1.7663,424465,001,2023-07-31_20h42.57.847,arm3_eps,2022.2.5,MacIntel,59.99880002,616712249f8a8f034766cd47,64c7fed44a04f777bb1e18ce,64c8009def9a8395274c10cf,,,,,,,,,,,,,,,,,,,,,,
,,424465,001,2023-07-31_20h42.57.847,arm3_eps,2022.2.5,MacIntel,59.99880002,616712249f8a8f034766cd47,64c7fed44a04f777bb1e18ce,64c8009def9a8395274c10cf,right,-1,0.75,0.05,0,-0.012291187,6.1195,0,0,0,0,1,,,,,,,,,,
,,424465,001,2023-07-31_20h42.57.847,arm3_eps,2022.2.5,MacIntel,59.99880002,616712249f8a8f034766cd47,64c7fed44a04f777bb1e18ce,64c8009def9a8395274c10cf,right,-1,0.75,0.05,0,-0.057197074,3.0038,1,0,1,0,1,,,,,,,,,,
,,424465,001,2023-07-31_20h42.57.847,arm3_eps,2022.2.5,MacIntel,59.99880002,616712249f8a8f034766cd47,64c7fed44a04f777bb1e18ce,64c8009def9a8395274c10cf,down,-1,0.75,0.05,1,0,1.1018,2,0,2,0,1,,,,,,,,,,
,,424465,001,2023-07-31_20h42.57.847,arm3_eps,2022.2.5,MacIntel,59.99880002,616712249f8a8f034766cd47,64c7fed44a04f777bb1e18ce,64c8009def9a8395274c10cf,right,-1,0.75,0.05,1,0.002109962,2.7504,3,0,3,0,1,,,,,,,,,,
,,424465,001,2023-07-31_20h42.57.847,arm3_eps,2022.2.5,MacIntel,59.99880002,616712249f8a8f034766cd47,64c7fed44a04f777bb1e18ce,64c8009def9a8395274c10cf,right,-1,0.75,0.05,1,0.003447396,1.3043,4,0,4,0,1,,,,,,,,,,
,,424465,001,2023-07-31_20h42.57.847,arm3_eps,2022.2.5,MacIntel,59.99880002,616712249f8a8f034766cd47,64c7fed44a04f777bb1e18ce,64c8009def9a8395274c10cf,right,-1,0.75,0.05,1,1.43992E-05,2.7321,5,0,5,0,1,,,,,,,,,,
,,424465,001,2023-07-31_20h42.57.847,arm3_eps,2022.2.5,MacIntel,59.99880002,616712249f8a8f034766cd47,64c7fed44a04f777bb1e18ce,64c8009def9a8395274c10cf,down,-1,0.75,0.05,2,0,2.8667,6,0,6,0,1,,,,,,,,,,
,,424465,001,2023-07-31_20h42.57.847,arm3_eps,2022.2.5,MacIntel,59.99880002,616712249f8a8f034766cd47,64c7fed44a04f777bb1e18ce,64c8009def9a8395274c10cf,right,-1,0.75,0.05,2,-0.00349677,1.9084,7,0,7,0,1,,,,,,,,,,
,,424465,001,2023-07-31_20h42.57.847,arm3_eps,2022.2.5,MacIntel,59.99880002,616712249f8a8f034766cd47,64c7fed44a04f777bb1e18ce,64c8009def9a8395274c10cf,right,-1,0.75,0.05,2,-0.030237392,2.5177,8,0,8,0,1,,,,,,,,,,
,,424465,001,2023-07-31_20h42.57.847,arm3_eps,2022.2.5,MacIntel,59.99880002,616712249f8a8f034766cd47,64c7fed44a04f777bb1e18ce,64c8009def9a8395274c10cf,down,-1,0.75,0.05,3,0,1.2503,9,0,9,0,1,,,,,,,,,,
,,424465,001,2023-07-31_20h42.57.847,arm3_eps,2022.2.5,MacIntel,59.99880002,616712249f8a8f034766cd47,64c7fed44a04f777bb1e18ce,64c8009def9a8395274c10cf,right,-1,0.75,0.05,3,0.000147831,2.6497,10,0,10,0,1,,,,,,,,,,
,,424465,001,2023-07-31_20h42.57.847,arm3_eps,2022.2.5,MacIntel,59.99880002,616712249f8a8f034766cd47,64c7fed44a04f777bb1e18ce,64c8009def9a8395274c10cf,right,-1,0.75,0.05,3,-0.024906755,0.9837,11,0,11,0,1,,,,,,,,,,
,,424465,001,2023-07-31_20h42.57.847,arm3_eps,2022.2.5,MacIntel,59.99880002,616712249f8a8f034766cd47,64c7fed44a04f777bb1e18ce,64c8009def9a8395274c10cf,right,-1,0.75,0.05,3,-0.01770465,1.3837,12,0,12,0,1,,,,,,,,,,
,,424465,001,2023-07-31_20h42.57.847,arm3_eps,2022.2.5,MacIntel,59.99880002,616712249f8a8f034766cd47,64c7fed44a04f777bb1e18ce,64c8009def9a8395274c10cf,down,-1,0.75,0.05,4,0,1.0855,13,0,13,0,1,,,,,,,,,,
,,424465,001,2023-07-31_20h42.57.847,arm3_eps,2022.2.5,MacIntel,59.99880002,616712249f8a8f034766cd47,64c7fed44a04f777bb1e18ce,64c8009def9a8395274c10cf,right,-1,0.75,0.05,4,0.013965036,1.3133,14,0,14,0,1,,,,,,,,,,
,,424465,001,2023-07-31_20h42.57.847,arm3_eps,2022.2.5,MacIntel,59.99880002,616712249f8a8f034766cd47,64c7fed44a04f777bb1e18ce,64c8009def9a8395274c10cf,right,-1,0.75,0.05,4,0.016048084,2.386,15,0,15,0,1,,,,,,,,,,
,,424465,001,2023-07-31_20h42.57.847,arm3_eps,2022.2.5,MacIntel,59.99880002,616712249f8a8f034766cd47,64c7fed44a04f777bb1e18ce,64c8009def9a8395274c10cf,right,-1,0.75,0.05,4,-0.011397179,2.7426,16,0,16,0,1,,,,,,,,,,
,,424465,001,2023-07-31_20h42.57.847,arm3_eps,2022.2.5,MacIntel,59.99880002,616712249f8a8f034766cd47,64c7fed44a04f777bb1e18ce,64c8009def9a8395274c10cf,right,-1,0.75,0.05,4,0.005823585,1.8484,17,0,17,0,1,,,,,,,,,,
,,424465,001,2023-07-31_20h42.57.847,arm3_eps,2022.2.5,MacIntel,59.99880002,616712249f8a8f034766cd47,64c7fed44a04f777bb1e18ce,64c8009def9a8395274c10cf,up,-1,0.75,0.05,3,0,1.3159,18,0,18,0,1,,,,,,,,,,
,,424465,001,2023-07-31_20h42.57.847,arm3_eps,2022.2.5,MacIntel,59.99880002,616712249f8a8f034766cd47,64c7fed44a04f777bb1e18ce,64c8009def9a8395274c10cf,right,-1,0.75,0.05,3,-0.011921809,1.7121,19,0,19,0,1,,,,,,,,,,
,,424465,001,2023-07-31_20h42.57.847,arm3_eps,2022.2.5,MacIntel,59.99880002,616712249f8a8f034766cd47,64c7fed44a04f777bb1e18ce,64c8009def9a8395274c10cf,right,-1,0.75,0.05,3,-0.011850578,1.2166,20,0,20,0,1,,,,,,,,,,
,,424465,001,2023-07-31_20h42.57.847,arm3_eps,2022.2.5,MacIntel,59.99880002,616712249f8a8f034766cd47,64c7fed44a04f777bb1e18ce,64c8009def9a8395274c10cf,down,-1,0.75,0.05,4,0,1.8664,21,0,21,0,1,,,,,,,,,,
,,424465,001,2023-07-31_20h42.57.847,arm3_eps,2022.2.5,MacIntel,59.99880002,616712249f8a8f034766cd47,64c7fed44a04f777bb1e18ce,64c8009def9a8395274c10cf,right,-1,0.75,0.05,4,-0.007618112,1.1352,22,0,22,0,1,,,,,,,,,,
,,424465,001,2023-07-31_20h42.57.847,arm3_eps,2022.2.5,MacIntel,59.99880002,616712249f8a8f034766cd47,64c7fed44a04f777bb1e18ce,64c8009def9a8395274c10cf,right,-1,0.75,0.05,4,-0.008095555,1.1528,23,0,23,0,1,,,,,,,,,,
,,424465,001,2023-07-31_20h42.57.847,arm3_eps,2022.2.5,MacIntel,59.99880002,616712249f8a8f034766cd47,64c7fed44a04f777bb1e18ce,64c8009def9a8395274c10cf,right,-1,0.75,0.05,4,-0.033052763,1.071,24,0,24,0,1,,,,,,,,,,
,,424465,001,2023-07-31_20h42.57.847,arm3_eps,2022.2.5,MacIntel,59.99880002,616712249f8a8f034766cd47,64c7fed44a04f777bb1e18ce,64c8009def9a8395274c10cf,down,-1,0.75,0.05,5,0,1.3191,25,0,25,0,1,,,,,,,,,,
,,424465,001,2023-07-31_20h42.57.847,arm3_eps,2022.2.5,MacIntel,59.99880002,616712249f8a8f034766cd47,64c7fed44a04f777bb1e18ce,64c8009def9a8395274c10cf,right,-1,0.75,0.05,5,-0.005576239,1.2494,26,0,26,0,1,,,,,,,,,,
,,424465,001,2023-07-31_20h42.57.847,arm3_eps,2022.2.5,MacIntel,59.99880002,616712249f8a8f034766cd47,64c7fed44a04f777bb1e18ce,64c8009def9a8395274c10cf,right,-1,0.75,0.05,5,-0.039098551,1.083,27,0,27,0,1,,,,,,,,,,
,,424465,001,2023-07-31_20h42.57.847,arm3_eps,2022.2.5,MacIntel,59.99880002,616712249f8a8f034766cd47,64c7fed44a04f777bb1e18ce,64c8009def9a8395274c10cf,right,-1,0.75,0.05,5,-0.053003525,0.8617,28,0,28,0,1,,,,,,,,,,
,,424465,001,2023-07-31_20h42.57.847,arm3_eps,2022.2.5,MacIntel,59.99880002,616712249f8a8f034766cd47,64c7fed44a04f777bb1e18ce,64c8009def9a8395274c10cf,down,-1,0.75,0.05,5,0,0.9386,29,0,29,0,1,,,,,,,,,,
,,424465,001,2023-07-31_20h42.57.847,arm3_eps,2022.2.5,MacIntel,59.99880002,616712249f8a8f034766cd47,64c7fed44a04f777bb1e18ce,64c8009def9a8395274c10cf,right,-1,0.75,0.05,5,0.01975843,1.8669,30,0,30,0,1,,,,,,,,,,
,,424465,001,2023-07-31_20h42.57.847,arm3_eps,2022.2.5,MacIntel,59.99880002,616712249f8a8f034766cd47,64c7fed44a04f777bb1e18ce,64c8009def9a8395274c10cf,right,-1,0.75,0.05,5,-0.020190354,0.8651,31,0,31,0,1,,,,,,,,,,
,,424465,001,2023-07-31_20h42.57.847,arm3_eps,2022.2.5,MacIntel,59.99880002,616712249f8a8f034766cd47,64c7fed44a04f777bb1e18ce,64c8009def9a8395274c10cf,right,-1,0.75,0.05,5,-0.038715045,0.8531,32,0,32,0,1,,,,,,,,,,
,,424465,001,2023-07-31_20h42.57.847,arm3_eps,2022.2.5,MacIntel,59.99880002,616712249f8a8f034766cd47,64c7fed44a04f777bb1e18ce,64c8009def9a8395274c10cf,down,-1,0.75,0.05,6,0,0.7004,33,0,33,0,1,,,,,,,,,,
,,424465,001,2023-07-31_20h42.57.847,arm3_eps,2022.2.5,MacIntel,59.99880002,616712249f8a8f034766cd47,64c7fed44a04f777bb1e18ce,64c8009def9a8395274c10cf,right,-1,0.75,0.05,6,-0.033683135,1.9469,34,0,34,0,1,,,,,,,,,,
,,424465,001,2023-07-31_20h42.57.847,arm3_eps,2022.2.5,MacIntel,59.99880002,616712249f8a8f034766cd47,64c7fed44a04f777bb1e18ce,64c8009def9a8395274c10cf,right,-1,0.75,0.05,6,-0.035425803,1.8509,35,0,35,0,1,,,,,,,,,,
,,424465,001,2023-07-31_20h42.57.847,arm3_eps,2022.2.5,MacIntel,59.99880002,616712249f8a8f034766cd47,64c7fed44a04f777bb1e18ce,64c8009def9a8395274c10cf,down,-1,0.75,0.05,6,0,1.3028,36,0,36,0,1,,,,,,,,,,
,,424465,001,2023-07-31_20h42.57.847,arm3_eps,2022.2.5,MacIntel,59.99880002,616712249f8a8f034766cd47,64c7fed44a04f777bb1e18ce,64c8009def9a8395274c10cf,right,-1,0.75,0.05,6,0.006402134,1.3712,37,0,37,0,1,,,,,,,,,,
,,424465,001,2023-07-31_20h42.57.847,arm3_eps,2022.2.5,MacIntel,59.99880002,616712249f8a8f034766cd47,64c7fed44a04f777bb1e18ce,64c8009def9a8395274c10cf,right,-1,0.75,0.05,6,-0.002984275,0.6188,38,0,38,0,1,,,,,,,,,,
,,424465,001,2023-07-31_20h42.57.847,arm3_eps,2022.2.5,MacIntel,59.99880002,616712249f8a8f034766cd47,64c7fed44a04f777bb1e18ce,64c8009def9a8395274c10cf,right,-1,0.75,0.05,6,-0.032929067,0.6671,39,0,39,0,1,,,,,,,,,,
,,424465,001,2023-07-31_20h42.57.847,arm3_eps,2022.2.5,MacIntel,59.99880002,616712249f8a8f034766cd47,64c7fed44a04f777bb1e18ce,64c8009def9a8395274c10cf,right,-1,0.75,0.05,6,-0.03394875,0.7214,40,0,40,0,1,,,,,,,,,,
,,424465,001,2023-07-31_20h42.57.847,arm3_eps,2022.2.5,MacIntel,59.99880002,616712249f8a8f034766cd47,64c7fed44a04f777bb1e18ce,64c8009def9a8395274c10cf,down,-1,0.75,0.05,6,0,0.6716,41,0,41,0,1,,,,,,,,,,
,,424465,001,2023-07-31_20h42.57.847,arm3_eps,2022.2.5,MacIntel,59.99880002,616712249f8a8f034766cd47,64c7fed44a04f777bb1e18ce,64c8009def9a8395274c10cf,right,-1,0.75,0.05,6,-0.000353543,1.3186,42,0,42,0,1,,,,,,,,,,
,,424465,001,2023-07-31_20h42.57.847,arm3_eps,2022.2.5,MacIntel,59.99880002,616712249f8a8f034766cd47,64c7fed44a04f777bb1e18ce,64c8009def9a8395274c10cf,right,-1,0.75,0.05,6,0.006572364,0.7146,43,0,43,0,1,,,,,,,,,,
,,424465,001,2023-07-31_20h42.57.847,arm3_eps,2022.2.5,MacIntel,59.99880002,616712249f8a8f034766cd47,64c7fed44a04f777bb1e18ce,64c8009def9a8395274c10cf,right,-1,0.75,0.05,6,-0.0044822,0.7333,44,0,44,0,1,,,,,,,,,,
,,424465,001,2023-07-31_20h42.57.847,arm3_eps,2022.2.5,MacIntel,59.99880002,616712249f8a8f034766cd47,64c7fed44a04f777bb1e18ce,64c8009def9a8395274c10cf,right,-1,0.75,0.05,6,-0.028797009,0.739,45,0,45,0,1,,,,,,,,,,
,,424465,001,2023-07-31_20h42.57.847,arm3_eps,2022.2.5,MacIntel,59.99880002,616712249f8a8f034766cd47,64c7fed44a04f777bb1e18ce,64c8009def9a8395274c10cf,down,-1,0.75,0.05,7,0,0.6585,46,0,46,0,1,,,,,,,,,,
,,424465,001,2023-07-31_20h42.57.847,arm3_eps,2022.2.5,MacIntel,59.99880002,616712249f8a8f034766cd47,64c7fed44a04f777bb1e18ce,64c8009def9a8395274c10cf,right,-1,0.75,0.05,7,-0.000558235,1.1809,47,0,47,0,1,,,,,,,,,,
,,424465,001,2023-07-31_20h42.57.847,arm3_eps,2022.2.5,MacIntel,59.99880002,616712249f8a8f034766cd47,64c7fed44a04f777bb1e18ce,64c8009def9a8395274c10cf,right,-1,0.75,0.05,7,-0.02909448,2.3858,48,0,48,0,1,,,,,,,,,,
,,424465,001,2023-07-31_20h42.57.847,arm3_eps,2022.2.5,MacIntel,59.99880002,616712249f8a8f034766cd47,64c7fed44a04f777bb1e18ce,64c8009def9a8395274c10cf,down,-1,0.75,0.05,7,-0.02909448,1.317,49,0,49,0,1,,,,,,,,,,
space,36.716,424465,001,2023-07-31_20h42.57.847,arm3_eps,2022.2.5,MacIntel,59.99880002,616712249f8a8f034766cd47,64c7fed44a04f777bb1e18ce,64c8009def9a8395274c10cf,,,,,,,,,,,,,,,,,,,,,,
space,0.8003,424465,001,2023-07-31_20h42.57.847,arm3_eps,2022.2.5,MacIntel,59.99880002,616712249f8a8f034766cd47,64c7fed44a04f777bb1e18ce,64c8009def9a8395274c10cf,,,,,,,,,,,,,,,,,,,,,,
,,424465,001,2023-07-31_20h42.57.847,arm3_eps,2022.2.5,MacIntel,59.99880002,616712249f8a8f034766cd47,64c7fed44a04f777bb1e18ce,64c8009def9a8395274c10cf,right,-1,0.75,0.5,0,0.014975054,3.4232,0,0,0,0,1,,,,,,,,,,
,,424465,001,2023-07-31_20h42.57.847,arm3_eps,2022.2.5,MacIntel,59.99880002,616712249f8a8f034766cd47,64c7fed44a04f777bb1e18ce,64c8009def9a8395274c10cf,right,-1,0.75,0.5,0,-0.000488836,1.6665,1,0,1,0,1,,,,,,,,,,
,,424465,001,2023-07-31_20h42.57.847,arm3_eps,2022.2.5,MacIntel,59.99880002,616712249f8a8f034766cd47,64c7fed44a04f777bb1e18ce,64c8009def9a8395274c10cf,up,-1,0.75,0.5,-1,0,2.0723,2,0,2,0,1,,,,,,,,,,
,,424465,001,2023-07-31_20h42.57.847,arm3_eps,2022.2.5,MacIntel,59.99880002,616712249f8a8f034766cd47,64c7fed44a04f777bb1e18ce,64c8009def9a8395274c10cf,right,-1,0.75,0.5,-1,0.003068698,5.2364,3,0,3,0,1,,,,,,,,,,
,,424465,001,2023-07-31_20h42.57.847,arm3_eps,2022.2.5,MacIntel,59.99880002,616712249f8a8f034766cd47,64c7fed44a04f777bb1e18ce,64c8009def9a8395274c10cf,right,-1,0.75,0.5,-1,-0.011470028,1.0738,4,0,4,0,1,,,,,,,,,,
,,424465,001,2023-07-31_20h42.57.847,arm3_eps,2022.2.5,MacIntel,59.99880002,616712249f8a8f034766cd47,64c7fed44a04f777bb1e18ce,64c8009def9a8395274c10cf,right,-1,0.75,0.5,-1,0.022914547,1.2839,5,0,5,0,1,,,,,,,,,,
,,424465,001,2023-07-31_20h42.57.847,arm3_eps,2022.2.5,MacIntel,59.99880002,616712249f8a8f034766cd47,64c7fed44a04f777bb1e18ce,64c8009def9a8395274c10cf,up,-1,0.75,0.5,-2,0,1.3009,6,0,6,0,1,,,,,,,,,,
,,424465,001,2023-07-31_20h42.57.847,arm3_eps,2022.2.5,MacIntel,59.99880002,616712249f8a8f034766cd47,64c7fed44a04f777bb1e18ce,64c8009def9a8395274c10cf,right,-1,0.75,0.5,-2,-0.007182393,1.2756,7,0,7,0,1,,,,,,,,,,
,,424465,001,2023-07-31_20h42.57.847,arm3_eps,2022.2.5,MacIntel,59.99880002,616712249f8a8f034766cd47,64c7fed44a04f777bb1e18ce,64c8009def9a8395274c10cf,right,-1,0.75,0.5,-2,-0.033599993,0.8135,8,0,8,0,1,,,,,,,,,,
,,424465,001,2023-07-31_20h42.57.847,arm3_eps,2022.2.5,MacIntel,59.99880002,616712249f8a8f034766cd47,64c7fed44a04f777bb1e18ce,64c8009def9a8395274c10cf,right,-1,0.75,0.5,-2,-0.061593558,1.9139,9,0,9,0,1,,,,,,,,,,
,,424465,001,2023-07-31_20h42.57.847,arm3_eps,2022.2.5,MacIntel,59.99880002,616712249f8a8f034766cd47,64c7fed44a04f777bb1e18ce,64c8009def9a8395274c10cf,down,1,0.75,0.5,-1,0,2.7239,10,0,10,0,1,,,,,,,,,,
,,424465,001,2023-07-31_20h42.57.847,arm3_eps,2022.2.5,MacIntel,59.99880002,616712249f8a8f034766cd47,64c7fed44a04f777bb1e18ce,64c8009def9a8395274c10cf,right,1,0.75,0.5,-1,-0.005064038,1.8567,11,0,11,0,1,,,,,,,,,,
,,424465,001,2023-07-31_20h42.57.847,arm3_eps,2022.2.5,MacIntel,59.99880002,616712249f8a8f034766cd47,64c7fed44a04f777bb1e18ce,64c8009def9a8395274c10cf,right,1,0.75,0.5,-1,-0.003492358,1.4336,12,0,12,0,1,,,,,,,,,,
,,424465,001,2023-07-31_20h42.57.847,arm3_eps,2022.2.5,MacIntel,59.99880002,616712249f8a8f034766cd47,64c7fed44a04f777bb1e18ce,64c8009def9a8395274c10cf,right,1,0.75,0.5,-1,0.003196837,2.9684,13,0,13,0,1,,,,,,,,,,
,,424465,001,2023-07-31_20h42.57.847,arm3_eps,2022.2.5,MacIntel,59.99880002,616712249f8a8f034766cd47,64c7fed44a04f777bb1e18ce,64c8009def9a8395274c10cf,right,1,0.75,0.5,-1,0.02768501,1.6424,14,0,14,0,1,,,,,,,,,,
,,424465,001,2023-07-31_20h42.57.847,arm3_eps,2022.2.5,MacIntel,59.99880002,616712249f8a8f034766cd47,64c7fed44a04f777bb1e18ce,64c8009def9a8395274c10cf,up,1,0.75,0.5,0,0,0.8812,15,0,15,0,1,,,,,,,,,,
,,424465,001,2023-07-31_20h42.57.847,arm3_eps,2022.2.5,MacIntel,59.99880002,616712249f8a8f034766cd47,64c7fed44a04f777bb1e18ce,64c8009def9a8395274c10cf,right,1,0.75,0.5,0,-0.009201997,1.792,16,0,16,0,1,,,,,,,,,,
,,424465,001,2023-07-31_20h42.57.847,arm3_eps,2022.2.5,MacIntel,59.99880002,616712249f8a8f034766cd47,64c7fed44a04f777bb1e18ce,64c8009def9a8395274c10cf,right,1,0.75,0.5,0,0.02413944,0.9488,17,0,17,0,1,,,,,,,,,,
,,424465,001,2023-07-31_20h42.57.847,arm3_eps,2022.2.5,MacIntel,59.99880002,616712249f8a8f034766cd47,64c7fed44a04f777bb1e18ce,64c8009def9a8395274c10cf,right,1,0.75,0.5,0,0.020376917,1.1078,18,0,18,0,1,,,,,,,,,,
,,424465,001,2023-07-31_20h42.57.847,arm3_eps,2022.2.5,MacIntel,59.99880002,616712249f8a8f034766cd47,64c7fed44a04f777bb1e18ce,64c8009def9a8395274c10cf,right,1,0.75,0.5,0,0.020578002,1.1512,19,0,19,0,1,,,,,,,,,,
,,424465,001,2023-07-31_20h42.57.847,arm3_eps,2022.2.5,MacIntel,59.99880002,616712249f8a8f034766cd47,64c7fed44a04f777bb1e18ce,64c8009def9a8395274c10cf,up,-1,0.75,0.5,1,0,0.8999,20,0,20,0,1,,,,,,,,,,
,,424465,001,2023-07-31_20h42.57.847,arm3_eps,2022.2.5,MacIntel,59.99880002,616712249f8a8f034766cd47,64c7fed44a04f777bb1e18ce,64c8009def9a8395274c10cf,right,-1,0.75,0.5,1,-0.02250072,1.9687,21,0,21,0,1,,,,,,,,,,
,,424465,001,2023-07-31_20h42.57.847,arm3_eps,2022.2.5,MacIntel,59.99880002,616712249f8a8f034766cd47,64c7fed44a04f777bb1e18ce,64c8009def9a8395274c10cf,right,-1,0.75,0.5,1,-0.015567942,3.885,22,0,22,0,1,,,,,,,,,,
,,424465,001,2023-07-31_20h42.57.847,arm3_eps,2022.2.5,MacIntel,59.99880002,616712249f8a8f034766cd47,64c7fed44a04f777bb1e18ce,64c8009def9a8395274c10cf,right,-1,0.75,0.5,1,-0.005788242,0.706,23,0,23,0,1,,,,,,,,,,
,,424465,001,2023-07-31_20h42.57.847,arm3_eps,2022.2.5,MacIntel,59.99880002,616712249f8a8f034766cd47,64c7fed44a04f777bb1e18ce,64c8009def9a8395274c10cf,right,-1,0.75,0.5,1,-0.017388407,2.1093,24,0,24,0,1,,,,,,,,,,
,,424465,001,2023-07-31_20h42.57.847,arm3_eps,2022.2.5,MacIntel,59.99880002,616712249f8a8f034766cd47,64c7fed44a04f777bb1e18ce,64c8009def9a8395274c10cf,down,-1,0.75,0.5,2,0,0.7222,25,0,25,0,1,,,,,,,,,,
,,424465,001,2023-07-31_20h42.57.847,arm3_eps,2022.2.5,MacIntel,59.99880002,616712249f8a8f034766cd47,64c7fed44a04f777bb1e18ce,64c8009def9a8395274c10cf,right,-1,0.75,0.5,2,-0.041845086,1.1488,26,0,26,0,1,,,,,,,,,,
,,424465,001,2023-07-31_20h42.57.847,arm3_eps,2022.2.5,MacIntel,59.99880002,616712249f8a8f034766cd47,64c7fed44a04f777bb1e18ce,64c8009def9a8395274c10cf,right,-1,0.75,0.5,2,-0.05067367,1.6902,27,0,27,0,1,,,,,,,,,,
,,424465,001,2023-07-31_20h42.57.847,arm3_eps,2022.2.5,MacIntel,59.99880002,616712249f8a8f034766cd47,64c7fed44a04f777bb1e18ce,64c8009def9a8395274c10cf,down,-1,0.75,0.5,3,0,1.2219,28,0,28,0,1,,,,,,,,,,
,,424465,001,2023-07-31_20h42.57.847,arm3_eps,2022.2.5,MacIntel,59.99880002,616712249f8a8f034766cd47,64c7fed44a04f777bb1e18ce,64c8009def9a8395274c10cf,right,-1,0.75,0.5,3,0.001581279,0.9869,29,0,29,0,1,,,,,,,,,,
,,424465,001,2023-07-31_20h42.57.847,arm3_eps,2022.2.5,MacIntel,59.99880002,616712249f8a8f034766cd47,64c7fed44a04f777bb1e18ce,64c8009def9a8395274c10cf,right,-1,0.75,0.5,3,-0.017143671,1.0984,30,0,30,0,1,,,,,,,,,,
,,424465,001,2023-07-31_20h42.57.847,arm3_eps,2022.2.5,MacIntel,59.99880002,616712249f8a8f034766cd47,64c7fed44a04f777bb1e18ce,64c8009def9a8395274c10cf,right,-1,0.75,0.5,3,0.018643255,1.5305,31,0,31,0,1,,,,,,,,,,
,,424465,001,2023-07-31_20h42.57.847,arm3_eps,2022.2.5,MacIntel,59.99880002,616712249f8a8f034766cd47,64c7fed44a04f777bb1e18ce,64c8009def9a8395274c10cf,up,-1,0.75,0.5,2,0,0.9427,32,0,32,0,1,,,,,,,,,,
,,424465,001,2023-07-31_20h42.57.847,arm3_eps,2022.2.5,MacIntel,59.99880002,616712249f8a8f034766cd47,64c7fed44a04f777bb1e18ce,64c8009def9a8395274c10cf,right,-1,0.75,0.5,2,-0.020113566,1.0573,33,0,33,0,1,,,,,,,,,,
,,424465,001,2023-07-31_20h42.57.847,arm3_eps,2022.2.5,MacIntel,59.99880002,616712249f8a8f034766cd47,64c7fed44a04f777bb1e18ce,64c8009def9a8395274c10cf,right,-1,0.75,0.5,2,-0.028513934,0.5228,34,0,34,0,1,,,,,,,,,,
,,424465,001,2023-07-31_20h42.57.847,arm3_eps,2022.2.5,MacIntel,59.99880002,616712249f8a8f034766cd47,64c7fed44a04f777bb1e18ce,64c8009def9a8395274c10cf,right,-1,0.75,0.5,2,-0.025276133,0.9243,35,0,35,0,1,,,,,,,,,,
,,424465,001,2023-07-31_20h42.57.847,arm3_eps,2022.2.5,MacIntel,59.99880002,616712249f8a8f034766cd47,64c7fed44a04f777bb1e18ce,64c8009def9a8395274c10cf,down,-1,0.75,0.5,3,0,1.2982,36,0,36,0,1,,,,,,,,,,
,,424465,001,2023-07-31_20h42.57.847,arm3_eps,2022.2.5,MacIntel,59.99880002,616712249f8a8f034766cd47,64c7fed44a04f777bb1e18ce,64c8009def9a8395274c10cf,right,-1,0.75,0.5,3,-0.016040856,1.0097,37,0,37,0,1,,,,,,,,,,
,,424465,001,2023-07-31_20h42.57.847,arm3_eps,2022.2.5,MacIntel,59.99880002,616712249f8a8f034766cd47,64c7fed44a04f777bb1e18ce,64c8009def9a8395274c10cf,right,-1,0.75,0.5,3,-0.017636288,0.6033,38,0,38,0,1,,,,,,,,,,
,,424465,001,2023-07-31_20h42.57.847,arm3_eps,2022.2.5,MacIntel,59.99880002,616712249f8a8f034766cd47,64c7fed44a04f777bb1e18ce,64c8009def9a8395274c10cf,right,-1,0.75,0.5,3,-0.004164023,1.4282,39,0,39,0,1,,,,,,,,,,
,,424465,001,2023-07-31_20h42.57.847,arm3_eps,2022.2.5,MacIntel,59.99880002,616712249f8a8f034766cd47,64c7fed44a04f777bb1e18ce,64c8009def9a8395274c10cf,right,-1,0.75,0.5,3,-0.023746388,6.4672,40,0,40,0,1,,,,,,,,,,
,,424465,001,2023-07-31_20h42.57.847,arm3_eps,2022.2.5,MacIntel,59.99880002,616712249f8a8f034766cd47,64c7fed44a04f777bb1e18ce,64c8009def9a8395274c10cf,down,-1,0.75,0.5,4,0,0.7503,41,0,41,0,1,,,,,,,,,,
,,424465,001,2023-07-31_20h42.57.847,arm3_eps,2022.2.5,MacIntel,59.99880002,616712249f8a8f034766cd47,64c7fed44a04f777bb1e18ce,64c8009def9a8395274c10cf,right,-1,0.75,0.5,4,-0.057898804,1.8848,42,0,42,0,1,,,,,,,,,,
,,424465,001,2023-07-31_20h42.57.847,arm3_eps,2022.2.5,MacIntel,59.99880002,616712249f8a8f034766cd47,64c7fed44a04f777bb1e18ce,64c8009def9a8395274c10cf,right,-1,0.75,0.5,4,-0.048345153,0.9997,43,0,43,0,1,,,,,,,,,,
,,424465,001,2023-07-31_20h42.57.847,arm3_eps,2022.2.5,MacIntel,59.99880002,616712249f8a8f034766cd47,64c7fed44a04f777bb1e18ce,64c8009def9a8395274c10cf,right,-1,0.75,0.5,4,-0.05139878,0.7636,44,0,44,0,1,,,,,,,,,,
,,424465,001,2023-07-31_20h42.57.847,arm3_eps,2022.2.5,MacIntel,59.99880002,616712249f8a8f034766cd47,64c7fed44a04f777bb1e18ce,64c8009def9a8395274c10cf,down,1,0.75,0.5,5,0,1.5081,45,0,45,0,1,,,,,,,,,,
,,424465,001,2023-07-31_20h42.57.847,arm3_eps,2022.2.5,MacIntel,59.99880002,616712249f8a8f034766cd47,64c7fed44a04f777bb1e18ce,64c8009def9a8395274c10cf,right,1,0.75,0.5,5,0.018591837,2.6973,46,0,46,0,1,,,,,,,,,,
,,424465,001,2023-07-31_20h42.57.847,arm3_eps,2022.2.5,MacIntel,59.99880002,616712249f8a8f034766cd47,64c7fed44a04f777bb1e18ce,64c8009def9a8395274c10cf,right,1,0.75,0.5,5,-0.003142751,0.9675,47,0,47,0,1,,,,,,,,,,
,,424465,001,2023-07-31_20h42.57.847,arm3_eps,2022.2.5,MacIntel,59.99880002,616712249f8a8f034766cd47,64c7fed44a04f777bb1e18ce,64c8009def9a8395274c10cf,right,1,0.75,0.5,5,0.015912192,1.1994,48,0,48,0,1,,,,,,,,,,
,,424465,001,2023-07-31_20h42.57.847,arm3_eps,2022.2.5,MacIntel,59.99880002,616712249f8a8f034766cd47,64c7fed44a04f777bb1e18ce,64c8009def9a8395274c10cf,right,1,0.75,0.5,5,0.034158403,1.7475,49,0,49,0,1,,,,,,,,,,
space,2.1812,424465,001,2023-07-31_20h42.57.847,arm3_eps,2022.2.5,MacIntel,59.99880002,616712249f8a8f034766cd47,64c7fed44a04f777bb1e18ce,64c8009def9a8395274c10cf,,,,,,,,,,,,,,,,,,,,,,
space,4.1437,424465,001,2023-07-31_20h42.57.847,arm3_eps,2022.2.5,MacIntel,59.99880002,616712249f8a8f034766cd47,64c7fed44a04f777bb1e18ce,64c8009def9a8395274c10cf,right,1,0.75,0.2429,0,0.015740918,4.0027,,,,,,0,0,0,0,1,,,,,
,,424465,001,2023-07-31_20h42.57.847,arm3_eps,2022.2.5,MacIntel,59.99880002,616712249f8a8f034766cd47,64c7fed44a04f777bb1e18ce,64c8009def9a8395274c10cf,right,1,0.75,0.2429,0,0.001221215,5.4431,,,,,,1,0,1,0,1,,,,,
,,424465,001,2023-07-31_20h42.57.847,arm3_eps,2022.2.5,MacIntel,59.99880002,616712249f8a8f034766cd47,64c7fed44a04f777bb1e18ce,64c8009def9a8395274c10cf,right,1,0.75,0.2429,0,-0.004402127,1.8232,,,,,,2,0,2,0,1,,,,,
,,424465,001,2023-07-31_20h42.57.847,arm3_eps,2022.2.5,MacIntel,59.99880002,616712249f8a8f034766cd47,64c7fed44a04f777bb1e18ce,64c8009def9a8395274c10cf,up,1,0.75,0.2429,1,0,1.2222,,,,,,3,0,3,0,1,,,,,
,,424465,001,2023-07-31_20h42.57.847,arm3_eps,2022.2.5,MacIntel,59.99880002,616712249f8a8f034766cd47,64c7fed44a04f777bb1e18ce,64c8009def9a8395274c10cf,right,1,0.75,0.2429,1,0.01629729,2.4993,,,,,,4,0,4,0,1,,,,,
,,424465,001,2023-07-31_20h42.57.847,arm3_eps,2022.2.5,MacIntel,59.99880002,616712249f8a8f034766cd47,64c7fed44a04f777bb1e18ce,64c8009def9a8395274c10cf,right,1,0.75,0.2429,1,0.037913884,2.3964,,,,,,5,0,5,0,1,,,,,
,,424465,001,2023-07-31_20h42.57.847,arm3_eps,2022.2.5,MacIntel,59.99880002,616712249f8a8f034766cd47,64c7fed44a04f777bb1e18ce,64c8009def9a8395274c10cf,right,1,0.75,0.2429,1,0.055026959,2.0493,,,,,,6,0,6,0,1,,,,,
,,424465,001,2023-07-31_20h42.57.847,arm3_eps,2022.2.5,MacIntel,59.99880002,616712249f8a8f034766cd47,64c7fed44a04f777bb1e18ce,64c8009def9a8395274c10cf,up,-1,0.75,0.2429,2,0,2.0581,,,,,,7,0,7,0,1,,,,,
,,424465,001,2023-07-31_20h42.57.847,arm3_eps,2022.2.5,MacIntel,59.99880002,616712249f8a8f034766cd47,64c7fed44a04f777bb1e18ce,64c8009def9a8395274c10cf,right,-1,0.75,0.2429,2,0.011908935,3.0189,,,,,,8,0,8,0,1,,,,,
,,424465,001,2023-07-31_20h42.57.847,arm3_eps,2022.2.5,MacIntel,59.99880002,616712249f8a8f034766cd47,64c7fed44a04f777bb1e18ce,64c8009def9a8395274c10cf,right,-1,0.75,0.2429,2,-0.001396983,2.0512,,,,,,9,0,9,0,1,,,,,
,,424465,001,2023-07-31_20h42.57.847,arm3_eps,2022.2.5,MacIntel,59.99880002,616712249f8a8f034766cd47,64c7fed44a04f777bb1e18ce,64c8009def9a8395274c10cf,right,-1,0.75,0.2429,2,-0.007803486,1.9343,,,,,,10,0,10,0,1,,,,,
,,424465,001,2023-07-31_20h42.57.847,arm3_eps,2022.2.5,MacIntel,59.99880002,616712249f8a8f034766cd47,64c7fed44a04f777bb1e18ce,64c8009def9a8395274c10cf,right,-1,0.75,0.2429,2,0.009330267,1.7422,,,,,,11,0,11,0,1,,,,,
,,424465,001,2023-07-31_20h42.57.847,arm3_eps,2022.2.5,MacIntel,59.99880002,616712249f8a8f034766cd47,64c7fed44a04f777bb1e18ce,64c8009def9a8395274c10cf,right,-1,0.75,0.2429,2,-0.017513873,2.2493,,,,,,12,0,12,0,1,,,,,
,,424465,001,2023-07-31_20h42.57.847,arm3_eps,2022.2.5,MacIntel,59.99880002,616712249f8a8f034766cd47,64c7fed44a04f777bb1e18ce,64c8009def9a8395274c10cf,right,-1,0.75,0.2429,2,-0.008454247,2.4506,,,,,,13,0,13,0,1,,,,,
,,424465,001,2023-07-31_20h42.57.847,arm3_eps,2022.2.5,MacIntel,59.99880002,616712249f8a8f034766cd47,64c7fed44a04f777bb1e18ce,64c8009def9a8395274c10cf,down,-1,0.75,0.2429,3,0,0.948,,,,,,14,0,14,0,1,,,,,
,,424465,001,2023-07-31_20h42.57.847,arm3_eps,2022.2.5,MacIntel,59.99880002,616712249f8a8f034766cd47,64c7fed44a04f777bb1e18ce,64c8009def9a8395274c10cf,right,-1,0.75,0.2429,3,-0.020868454,2.4,,,,,,15,0,15,0,1,,,,,
,,424465,001,2023-07-31_20h42.57.847,arm3_eps,2022.2.5,MacIntel,59.99880002,616712249f8a8f034766cd47,64c7fed44a04f777bb1e18ce,64c8009def9a8395274c10cf,right,-1,0.75,0.2429,3,-0.001105386,1.3153,,,,,,16,0,16,0,1,,,,,
,,424465,001,2023-07-31_20h42.57.847,arm3_eps,2022.2.5,MacIntel,59.99880002,616712249f8a8f034766cd47,64c7fed44a04f777bb1e18ce,64c8009def9a8395274c10cf,right,-1,0.75,0.2429,3,0.00754283,1.6015,,,,,,17,0,17,0,1,,,,,
,,424465,001,2023-07-31_20h42.57.847,arm3_eps,2022.2.5,MacIntel,59.99880002,616712249f8a8f034766cd47,64c7fed44a04f777bb1e18ce,64c8009def9a8395274c10cf,right,-1,0.75,0.2429,3,0.006944993,2.9777,,,,,,18,0,18,0,1,,,,,
,,424465,001,2023-07-31_20h42.57.847,arm3_eps,2022.2.5,MacIntel,59.99880002,616712249f8a8f034766cd47,64c7fed44a04f777bb1e18ce,64c8009def9a8395274c10cf,up,-1,0.75,0.2429,2,0,1.1366,,,,,,19,0,19,0,1,,,,,
,,424465,001,2023-07-31_20h42.57.847,arm3_eps,2022.2.5,MacIntel,59.99880002,616712249f8a8f034766cd47,64c7fed44a04f777bb1e18ce,64c8009def9a8395274c10cf,right,-1,0.75,0.2429,2,-0.02659728,1.7652,,,,,,20,0,20,0,1,,,,,
,,424465,001,2023-07-31_20h42.57.847,arm3_eps,2022.2.5,MacIntel,59.99880002,616712249f8a8f034766cd47,64c7fed44a04f777bb1e18ce,64c8009def9a8395274c10cf,right,-1,0.75,0.2429,2,-0.030678985,2.6491,,,,,,21,0,21,0,1,,,,,
,,424465,001,2023-07-31_20h42.57.847,arm3_eps,2022.2.5,MacIntel,59.99880002,616712249f8a8f034766cd47,64c7fed44a04f777bb1e18ce,64c8009def9a8395274c10cf,down,-1,0.75,0.2429,3,0,1.7319,,,,,,22,0,22,0,1,,,,,
,,424465,001,2023-07-31_20h42.57.847,arm3_eps,2022.2.5,MacIntel,59.99880002,616712249f8a8f034766cd47,64c7fed44a04f777bb1e18ce,64c8009def9a8395274c10cf,right,-1,0.75,0.2429,3,0.001086226,1.0658,,,,,,23,0,23,0,1,,,,,
,,424465,001,2023-07-31_20h42.57.847,arm3_eps,2022.2.5,MacIntel,59.99880002,616712249f8a8f034766cd47,64c7fed44a04f777bb1e18ce,64c8009def9a8395274c10cf,right,-1,0.75,0.2429,3,-0.017809147,1.6627,,,,,,24,0,24,0,1,,,,,
,,424465,001,2023-07-31_20h42.57.847,arm3_eps,2022.2.5,MacIntel,59.99880002,616712249f8a8f034766cd47,64c7fed44a04f777bb1e18ce,64c8009def9a8395274c10cf,right,-1,0.75,0.2429,3,-0.050677486,1.5522,,,,,,25,0,25,0,1,,,,,
,,424465,001,2023-07-31_20h42.57.847,arm3_eps,2022.2.5,MacIntel,59.99880002,616712249f8a8f034766cd47,64c7fed44a04f777bb1e18ce,64c8009def9a8395274c10cf,down,-1,0.75,0.2429,4,0,0.615,,,,,,26,0,26,0,1,,,,,
,,424465,001,2023-07-31_20h42.57.847,arm3_eps,2022.2.5,MacIntel,59.99880002,616712249f8a8f034766cd47,64c7fed44a04f777bb1e18ce,64c8009def9a8395274c10cf,right,-1,0.75,0.2429,4,-0.031286224,1.3279,,,,,,27,0,27,0,1,,,,,
,,424465,001,2023-07-31_20h42.57.847,arm3_eps,2022.2.5,MacIntel,59.99880002,616712249f8a8f034766cd47,64c7fed44a04f777bb1e18ce,64c8009def9a8395274c10cf,right,-1,0.75,0.2429,4,-0.018286996,1.3527,,,,,,28,0,28,0,1,,,,,
,,424465,001,2023-07-31_20h42.57.847,arm3_eps,2022.2.5,MacIntel,59.99880002,616712249f8a8f034766cd47,64c7fed44a04f777bb1e18ce,64c8009def9a8395274c10cf,right,-1,0.75,0.2429,4,-0.058629004,1.329,,,,,,29,0,29,0,1,,,,,
,,424465,001,2023-07-31_20h42.57.847,arm3_eps,2022.2.5,MacIntel,59.99880002,616712249f8a8f034766cd47,64c7fed44a04f777bb1e18ce,64c8009def9a8395274c10cf,down,-1,0.75,0.2429,4,0,0.9275,,,,,,30,0,30,0,1,,,,,
,,424465,001,2023-07-31_20h42.57.847,arm3_eps,2022.2.5,MacIntel,59.99880002,616712249f8a8f034766cd47,64c7fed44a04f777bb1e18ce,64c8009def9a8395274c10cf,right,-1,0.75,0.2429,4,0.024205014,2.2559,,,,,,31,0,31,0,1,,,,,
,,424465,001,2023-07-31_20h42.57.847,arm3_eps,2022.2.5,MacIntel,59.99880002,616712249f8a8f034766cd47,64c7fed44a04f777bb1e18ce,64c8009def9a8395274c10cf,right,-1,0.75,0.2429,4,0.045087692,1.3628,,,,,,32,0,32,0,1,,,,,
,,424465,001,2023-07-31_20h42.57.847,arm3_eps,2022.2.5,MacIntel,59.99880002,616712249f8a8f034766cd47,64c7fed44a04f777bb1e18ce,64c8009def9a8395274c10cf,right,-1,0.75,0.2429,4,0.017939193,1.3645,,,,,,33,0,33,0,1,,,,,
,,424465,001,2023-07-31_20h42.57.847,arm3_eps,2022.2.5,MacIntel,59.99880002,616712249f8a8f034766cd47,64c7fed44a04f777bb1e18ce,64c8009def9a8395274c10cf,up,1,0.75,0.2429,3,0,0.9017,,,,,,34,0,34,0,1,,,,,
,,424465,001,2023-07-31_20h42.57.847,arm3_eps,2022.2.5,MacIntel,59.99880002,616712249f8a8f034766cd47,64c7fed44a04f777bb1e18ce,64c8009def9a8395274c10cf,right,1,0.75,0.2429,3,0.00082672,1.1141,,,,,,35,0,35,0,1,,,,,
,,424465,001,2023-07-31_20h42.57.847,arm3_eps,2022.2.5,MacIntel,59.99880002,616712249f8a8f034766cd47,64c7fed44a04f777bb1e18ce,64c8009def9a8395274c10cf,right,1,0.75,0.2429,3,0.006033764,0.6314,,,,,,36,0,36,0,1,,,,,
,,424465,001,2023-07-31_20h42.57.847,arm3_eps,2022.2.5,MacIntel,59.99880002,616712249f8a8f034766cd47,64c7fed44a04f777bb1e18ce,64c8009def9a8395274c10cf,right,1,0.75,0.2429,3,0.000792484,1.5498,,,,,,37,0,37,0,1,,,,,
,,424465,001,2023-07-31_20h42.57.847,arm3_eps,2022.2.5,MacIntel,59.99880002,616712249f8a8f034766cd47,64c7fed44a04f777bb1e18ce,64c8009def9a8395274c10cf,right,1,0.75,0.2429,3,0.022196258,0.9492,,,,,,38,0,38,0,1,,,,,
,,424465,001,2023-07-31_20h42.57.847,arm3_eps,2022.2.5,MacIntel,59.99880002,616712249f8a8f034766cd47,64c7fed44a04f777bb1e18ce,64c8009def9a8395274c10cf,up,1,0.75,0.2429,4,0,1.0506,,,,,,39,0,39,0,1,,,,,
,,424465,001,2023-07-31_20h42.57.847,arm3_eps,2022.2.5,MacIntel,59.99880002,616712249f8a8f034766cd47,64c7fed44a04f777bb1e18ce,64c8009def9a8395274c10cf,right,1,0.75,0.2429,4,0.002953467,2.3512,,,,,,40,0,40,0,1,,,,,
,,424465,001,2023-07-31_20h42.57.847,arm3_eps,2022.2.5,MacIntel,59.99880002,616712249f8a8f034766cd47,64c7fed44a04f777bb1e18ce,64c8009def9a8395274c10cf,right,1,0.75,0.2429,4,0.022814969,5.3358,,,,,,41,0,41,0,1,,,,,
,,424465,001,2023-07-31_20h42.57.847,arm3_eps,2022.2.5,MacIntel,59.99880002,616712249f8a8f034766cd47,64c7fed44a04f777bb1e18ce,64c8009def9a8395274c10cf,right,1,0.75,0.2429,4,0.034712177,1.5426,,,,,,42,0,42,0,1,,,,,
,,424465,001,2023-07-31_20h42.57.847,arm3_eps,2022.2.5,MacIntel,59.99880002,616712249f8a8f034766cd47,64c7fed44a04f777bb1e18ce,64c8009def9a8395274c10cf,right,1,0.75,0.2429,4,0.03894383,1.1332,,,,,,43,0,43,0,1,,,,,
,,424465,001,2023-07-31_20h42.57.847,arm3_eps,2022.2.5,MacIntel,59.99880002,616712249f8a8f034766cd47,64c7fed44a04f777bb1e18ce,64c8009def9a8395274c10cf,up,-1,0.75,0.2429,5,0,0.9861,,,,,,44,0,44,0,1,,,,,
,,424465,001,2023-07-31_20h42.57.847,arm3_eps,2022.2.5,MacIntel,59.99880002,616712249f8a8f034766cd47,64c7fed44a04f777bb1e18ce,64c8009def9a8395274c10cf,right,-1,0.75,0.2429,5,-0.025617984,1.4242,,,,,,45,0,45,0,1,,,,,
,,424465,001,2023-07-31_20h42.57.847,arm3_eps,2022.2.5,MacIntel,59.99880002,616712249f8a8f034766cd47,64c7fed44a04f777bb1e18ce,64c8009def9a8395274c10cf,right,-1,0.75,0.2429,5,-0.059037986,1.3174,,,,,,46,0,46,0,1,,,,,
,,424465,001,2023-07-31_20h42.57.847,arm3_eps,2022.2.5,MacIntel,59.99880002,616712249f8a8f034766cd47,64c7fed44a04f777bb1e18ce,64c8009def9a8395274c10cf,right,-1,0.75,0.2429,5,-0.085204707,1.2805,,,,,,47,0,47,0,1,,,,,
,,424465,001,2023-07-31_20h42.57.847,arm3_eps,2022.2.5,MacIntel,59.99880002,616712249f8a8f034766cd47,64c7fed44a04f777bb1e18ce,64c8009def9a8395274c10cf,right,-1,0.75,0.2429,5,-0.076136686,1.6438,,,,,,48,0,48,0,1,,,,,
,,424465,001,2023-07-31_20h42.57.847,arm3_eps,2022.2.5,MacIntel,59.99880002,616712249f8a8f034766cd47,64c7fed44a04f777bb1e18ce,64c8009def9a8395274c10cf,down,-1,0.75,0.2429,6,0,0.8494,,,,,,49,0,49,0,1,,,,,
,,424465,001,2023-07-31_20h42.57.847,arm3_eps,2022.2.5,MacIntel,59.99880002,616712249f8a8f034766cd47,64c7fed44a04f777bb1e18ce,64c8009def9a8395274c10cf,right,-1,0.75,0.2429,6,-0.030677398,1.7309,,,,,,50,0,50,0,1,,,,,
,,424465,001,2023-07-31_20h42.57.847,arm3_eps,2022.2.5,MacIntel,59.99880002,616712249f8a8f034766cd47,64c7fed44a04f777bb1e18ce,64c8009def9a8395274c10cf,right,-1,0.75,0.2429,6,0.007202939,1.4705,,,,,,51,0,51,0,1,,,,,
,,424465,001,2023-07-31_20h42.57.847,arm3_eps,2022.2.5,MacIntel,59.99880002,616712249f8a8f034766cd47,64c7fed44a04f777bb1e18ce,64c8009def9a8395274c10cf,right,-1,0.75,0.2429,6,0.014175442,1.0662,,,,,,52,0,52,0,1,,,,,
,,424465,001,2023-07-31_20h42.57.847,arm3_eps,2022.2.5,MacIntel,59.99880002,616712249f8a8f034766cd47,64c7fed44a04f777bb1e18ce,64c8009def9a8395274c10cf,right,-1,0.75,0.2429,6,0.014273595,0.9315,,,,,,53,0,53,0,1,,,,,
,,424465,001,2023-07-31_20h42.57.847,arm3_eps,2022.2.5,MacIntel,59.99880002,616712249f8a8f034766cd47,64c7fed44a04f777bb1e18ce,64c8009def9a8395274c10cf,right,-1,0.75,0.2429,6,0.010271495,1.716,,,,,,54,0,54,0,1,,,,,
,,424465,001,2023-07-31_20h42.57.847,arm3_eps,2022.2.5,MacIntel,59.99880002,616712249f8a8f034766cd47,64c7fed44a04f777bb1e18ce,64c8009def9a8395274c10cf,right,-1,0.75,0.2429,6,-0.041214889,1.4466,,,,,,55,0,55,0,1,,,,,
,,424465,001,2023-07-31_20h42.57.847,arm3_eps,2022.2.5,MacIntel,59.99880002,616712249f8a8f034766cd47,64c7fed44a04f777bb1e18ce,64c8009def9a8395274c10cf,right,-1,0.75,0.2429,6,-0.062276538,1.0503,,,,,,56,0,56,0,1,,,,,
,,424465,001,2023-07-31_20h42.57.847,arm3_eps,2022.2.5,MacIntel,59.99880002,616712249f8a8f034766cd47,64c7fed44a04f777bb1e18ce,64c8009def9a8395274c10cf,down,-1,0.75,0.2429,7,0,0.8684,,,,,,57,0,57,0,1,,,,,
,,424465,001,2023-07-31_20h42.57.847,arm3_eps,2022.2.5,MacIntel,59.99880002,616712249f8a8f034766cd47,64c7fed44a04f777bb1e18ce,64c8009def9a8395274c10cf,right,-1,0.75,0.2429,7,-0.003061966,1.1621,,,,,,58,0,58,0,1,,,,,
,,424465,001,2023-07-31_20h42.57.847,arm3_eps,2022.2.5,MacIntel,59.99880002,616712249f8a8f034766cd47,64c7fed44a04f777bb1e18ce,64c8009def9a8395274c10cf,right,-1,0.75,0.2429,7,0.007162027,1.2007,,,,,,59,0,59,0,1,,,,,
,,424465,001,2023-07-31_20h42.57.847,arm3_eps,2022.2.5,MacIntel,59.99880002,616712249f8a8f034766cd47,64c7fed44a04f777bb1e18ce,64c8009def9a8395274c10cf,right,-1,0.75,0.2429,7,0.017021527,2.9154,,,,,,60,0,60,0,1,,,,,
,,424465,001,2023-07-31_20h42.57.847,arm3_eps,2022.2.5,MacIntel,59.99880002,616712249f8a8f034766cd47,64c7fed44a04f777bb1e18ce,64c8009def9a8395274c10cf,right,-1,0.75,0.2429,7,0.021480493,1.1174,,,,,,61,0,61,0,1,,,,,
,,424465,001,2023-07-31_20h42.57.847,arm3_eps,2022.2.5,MacIntel,59.99880002,616712249f8a8f034766cd47,64c7fed44a04f777bb1e18ce,64c8009def9a8395274c10cf,right,-1,0.75,0.2429,7,0.002842358,1.5688,,,,,,62,0,62,0,1,,,,,
,,424465,001,2023-07-31_20h42.57.847,arm3_eps,2022.2.5,MacIntel,59.99880002,616712249f8a8f034766cd47,64c7fed44a04f777bb1e18ce,64c8009def9a8395274c10cf,right,-1,0.75,0.2429,7,-0.033637233,0.9824,,,,,,63,0,63,0,1,,,,,
,,424465,001,2023-07-31_20h42.57.847,arm3_eps,2022.2.5,MacIntel,59.99880002,616712249f8a8f034766cd47,64c7fed44a04f777bb1e18ce,64c8009def9a8395274c10cf,right,-1,0.75,0.2429,7,-0.044784732,1.3791,,,,,,64,0,64,0,1,,,,,
,,424465,001,2023-07-31_20h42.57.847,arm3_eps,2022.2.5,MacIntel,59.99880002,616712249f8a8f034766cd47,64c7fed44a04f777bb1e18ce,64c8009def9a8395274c10cf,down,-1,0.75,0.2429,8,0,0.6493,,,,,,65,0,65,0,1,,,,,
,,424465,001,2023-07-31_20h42.57.847,arm3_eps,2022.2.5,MacIntel,59.99880002,616712249f8a8f034766cd47,64c7fed44a04f777bb1e18ce,64c8009def9a8395274c10cf,right,-1,0.75,0.2429,8,-0.019623771,1.3093,,,,,,66,0,66,0,1,,,,,
,,424465,001,2023-07-31_20h42.57.847,arm3_eps,2022.2.5,MacIntel,59.99880002,616712249f8a8f034766cd47,64c7fed44a04f777bb1e18ce,64c8009def9a8395274c10cf,right,-1,0.75,0.2429,8,-0.046111731,1.2291,,,,,,67,0,67,0,1,,,,,
,,424465,001,2023-07-31_20h42.57.847,arm3_eps,2022.2.5,MacIntel,59.99880002,616712249f8a8f034766cd47,64c7fed44a04f777bb1e18ce,64c8009def9a8395274c10cf,right,-1,0.75,0.2429,8,-0.06592466,0.9011,,,,,,68,0,68,0,1,,,,,
,,424465,001,2023-07-31_20h42.57.847,arm3_eps,2022.2.5,MacIntel,59.99880002,616712249f8a8f034766cd47,64c7fed44a04f777bb1e18ce,64c8009def9a8395274c10cf,right,-1,0.75,0.2429,8,-0.06509515,0.8157,,,,,,69,0,69,0,1,,,,,
,,424465,001,2023-07-31_20h42.57.847,arm3_eps,2022.2.5,MacIntel,59.99880002,616712249f8a8f034766cd47,64c7fed44a04f777bb1e18ce,64c8009def9a8395274c10cf,down,-1,0.75,0.2429,9,0,0.738,,,,,,70,0,70,0,1,,,,,
,,424465,001,2023-07-31_20h42.57.847,arm3_eps,2022.2.5,MacIntel,59.99880002,616712249f8a8f034766cd47,64c7fed44a04f777bb1e18ce,64c8009def9a8395274c10cf,right,-1,0.75,0.2429,9,0.025790565,1.0447,,,,,,71,0,71,0,1,,,,,
,,424465,001,2023-07-31_20h42.57.847,arm3_eps,2022.2.5,MacIntel,59.99880002,616712249f8a8f034766cd47,64c7fed44a04f777bb1e18ce,64c8009def9a8395274c10cf,right,-1,0.75,0.2429,9,0.00993909,1.5605,,,,,,72,0,72,0,1,,,,,
,,424465,001,2023-07-31_20h42.57.847,arm3_eps,2022.2.5,MacIntel,59.99880002,616712249f8a8f034766cd47,64c7fed44a04f777bb1e18ce,64c8009def9a8395274c10cf,right,-1,0.75,0.2429,9,-0.004787106,2.7002,,,,,,73,0,73,0,1,,,,,
,,424465,001,2023-07-31_20h42.57.847,arm3_eps,2022.2.5,MacIntel,59.99880002,616712249f8a8f034766cd47,64c7fed44a04f777bb1e18ce,64c8009def9a8395274c10cf,right,-1,0.75,0.2429,9,-0.022575981,1.0156,,,,,,74,0,74,0,1,,,,,
,,424465,001,2023-07-31_20h42.57.847,arm3_eps,2022.2.5,MacIntel,59.99880002,616712249f8a8f034766cd47,64c7fed44a04f777bb1e18ce,64c8009def9a8395274c10cf,right,-1,0.75,0.2429,9,-0.014729929,1.4309,,,,,,75,0,75,0,1,,,,,
,,424465,001,2023-07-31_20h42.57.847,arm3_eps,2022.2.5,MacIntel,59.99880002,616712249f8a8f034766cd47,64c7fed44a04f777bb1e18ce,64c8009def9a8395274c10cf,right,-1,0.75,0.2429,9,-0.01367335,1.2178,,,,,,76,0,76,0,1,,,,,
,,424465,001,2023-07-31_20h42.57.847,arm3_eps,2022.2.5,MacIntel,59.99880002,616712249f8a8f034766cd47,64c7fed44a04f777bb1e18ce,64c8009def9a8395274c10cf,right,-1,0.75,0.2429,9,-0.007421014,1.0534,,,,,,77,0,77,0,1,,,,,
,,424465,001,2023-07-31_20h42.57.847,arm3_eps,2022.2.5,MacIntel,59.99880002,616712249f8a8f034766cd47,64c7fed44a04f777bb1e18ce,64c8009def9a8395274c10cf,right,-1,0.75,0.2429,9,-0.010078194,2.2688,,,,,,78,0,78,0,1,,,,,
,,424465,001,2023-07-31_20h42.57.847,arm3_eps,2022.2.5,MacIntel,59.99880002,616712249f8a8f034766cd47,64c7fed44a04f777bb1e18ce,64c8009def9a8395274c10cf,right,-1,0.75,0.2429,9,0.010666908,1.5493,,,,,,79,0,79,0,1,,,,,
,,424465,001,2023-07-31_20h42.57.847,arm3_eps,2022.2.5,MacIntel,59.99880002,616712249f8a8f034766cd47,64c7fed44a04f777bb1e18ce,64c8009def9a8395274c10cf,up,-1,0.75,0.2429,8,0,1.3195,,,,,,80,0,80,0,1,,,,,
,,424465,001,2023-07-31_20h42.57.847,arm3_eps,2022.2.5,MacIntel,59.99880002,616712249f8a8f034766cd47,64c7fed44a04f777bb1e18ce,64c8009def9a8395274c10cf,right,-1,0.75,0.2429,8,-0.012580893,23.6779,,,,,,81,0,81,0,1,,,,,
,,424465,001,2023-07-31_20h42.57.847,arm3_eps,2022.2.5,MacIntel,59.99880002,616712249f8a8f034766cd47,64c7fed44a04f777bb1e18ce,64c8009def9a8395274c10cf,right,-1,0.75,0.2429,8,-0.018644782,1.3016,,,,,,82,0,82,0,1,,,,,
,,424465,001,2023-07-31_20h42.57.847,arm3_eps,2022.2.5,MacIntel,59.99880002,616712249f8a8f034766cd47,64c7fed44a04f777bb1e18ce,64c8009def9a8395274c10cf,right,-1,0.75,0.2429,8,-0.059755531,0.9154,,,,,,83,0,83,0,1,,,,,
,,424465,001,2023-07-31_20h42.57.847,arm3_eps,2022.2.5,MacIntel,59.99880002,616712249f8a8f034766cd47,64c7fed44a04f777bb1e18ce,64c8009def9a8395274c10cf,down,-1,0.75,0.2429,8,0,1.2649,,,,,,84,0,84,0,1,,,,,
,,424465,001,2023-07-31_20h42.57.847,arm3_eps,2022.2.5,MacIntel,59.99880002,616712249f8a8f034766cd47,64c7fed44a04f777bb1e18ce,64c8009def9a8395274c10cf,right,-1,0.75,0.2429,8,-0.021871038,3.6521,,,,,,85,0,85,0,1,,,,,
,,424465,001,2023-07-31_20h42.57.847,arm3_eps,2022.2.5,MacIntel,59.99880002,616712249f8a8f034766cd47,64c7fed44a04f777bb1e18ce,64c8009def9a8395274c10cf,right,-1,0.75,0.2429,8,-0.052413901,1.0453,,,,,,86,0,86,0,1,,,,,
,,424465,001,2023-07-31_20h42.57.847,arm3_eps,2022.2.5,MacIntel,59.99880002,616712249f8a8f034766cd47,64c7fed44a04f777bb1e18ce,64c8009def9a8395274c10cf,right,-1,0.75,0.2429,8,-0.046778224,0.969,,,,,,87,0,87,0,1,,,,,
,,424465,001,2023-07-31_20h42.57.847,arm3_eps,2022.2.5,MacIntel,59.99880002,616712249f8a8f034766cd47,64c7fed44a04f777bb1e18ce,64c8009def9a8395274c10cf,down,-1,0.75,0.2429,9,0,0.7985,,,,,,88,0,88,0,1,,,,,
,,424465,001,2023-07-31_20h42.57.847,arm3_eps,2022.2.5,MacIntel,59.99880002,616712249f8a8f034766cd47,64c7fed44a04f777bb1e18ce,64c8009def9a8395274c10cf,right,-1,0.75,0.2429,9,-0.017952812,1.5957,,,,,,89,0,89,0,1,,,,,
,,424465,001,2023-07-31_20h42.57.847,arm3_eps,2022.2.5,MacIntel,59.99880002,616712249f8a8f034766cd47,64c7fed44a04f777bb1e18ce,64c8009def9a8395274c10cf,right,-1,0.75,0.2429,9,-0.015714646,0.814,,,,,,90,0,90,0,1,,,,,
,,424465,001,2023-07-31_20h42.57.847,arm3_eps,2022.2.5,MacIntel,59.99880002,616712249f8a8f034766cd47,64c7fed44a04f777bb1e18ce,64c8009def9a8395274c10cf,right,-1,0.75,0.2429,9,-0.027074735,0.7356,,,,,,91,0,91,0,1,,,,,
,,424465,001,2023-07-31_20h42.57.847,arm3_eps,2022.2.5,MacIntel,59.99880002,616712249f8a8f034766cd47,64c7fed44a04f777bb1e18ce,64c8009def9a8395274c10cf,right,-1,0.75,0.2429,9,-0.062282192,1.1505,,,,,,92,0,92,0,1,,,,,
,,424465,001,2023-07-31_20h42.57.847,arm3_eps,2022.2.5,MacIntel,59.99880002,616712249f8a8f034766cd47,64c7fed44a04f777bb1e18ce,64c8009def9a8395274c10cf,down,-1,0.75,0.2429,10,0,1.02,,,,,,93,0,93,0,1,,,,,
,,424465,001,2023-07-31_20h42.57.847,arm3_eps,2022.2.5,MacIntel,59.99880002,616712249f8a8f034766cd47,64c7fed44a04f777bb1e18ce,64c8009def9a8395274c10cf,right,-1,0.75,0.2429,10,-0.023690056,1.977,,,,,,94,0,94,0,1,,,,,
,,424465,001,2023-07-31_20h42.57.847,arm3_eps,2022.2.5,MacIntel,59.99880002,616712249f8a8f034766cd47,64c7fed44a04f777bb1e18ce,64c8009def9a8395274c10cf,right,-1,0.75,0.2429,10,-0.046827579,0.986,,,,,,95,0,95,0,1,,,,,
,,424465,001,2023-07-31_20h42.57.847,arm3_eps,2022.2.5,MacIntel,59.99880002,616712249f8a8f034766cd47,64c7fed44a04f777bb1e18ce,64c8009def9a8395274c10cf,right,-1,0.75,0.2429,10,-0.055017511,0.9504,,,,,,96,0,96,0,1,,,,,
,,424465,001,2023-07-31_20h42.57.847,arm3_eps,2022.2.5,MacIntel,59.99880002,616712249f8a8f034766cd47,64c7fed44a04f777bb1e18ce,64c8009def9a8395274c10cf,down,1,0.75,0.2429,11,0,1.2142,,,,,,97,0,97,0,1,,,,,
,,424465,001,2023-07-31_20h42.57.847,arm3_eps,2022.2.5,MacIntel,59.99880002,616712249f8a8f034766cd47,64c7fed44a04f777bb1e18ce,64c8009def9a8395274c10cf,right,1,0.75,0.2429,11,0.015920272,1.1471,,,,,,98,0,98,0,1,,,,,
,,424465,001,2023-07-31_20h42.57.847,arm3_eps,2022.2.5,MacIntel,59.99880002,616712249f8a8f034766cd47,64c7fed44a04f777bb1e18ce,64c8009def9a8395274c10cf,right,1,0.75,0.2429,11,0.049622265,0.7818,,,,,,99,0,99,0,1,,,,,
,,424465,001,2023-07-31_20h42.57.847,arm3_eps,2022.2.5,MacIntel,59.99880002,616712249f8a8f034766cd47,64c7fed44a04f777bb1e18ce,64c8009def9a8395274c10cf,right,1,0.75,0.2429,11,0.068674973,0.7235,,,,,,100,0,100,0,1,,,,,
,,424465,001,2023-07-31_20h42.57.847,arm3_eps,2022.2.5,MacIntel,59.99880002,616712249f8a8f034766cd47,64c7fed44a04f777bb1e18ce,64c8009def9a8395274c10cf,right,1,0.75,0.2429,11,0.060469979,0.9171,,,,,,101,0,101,0,1,,,,,
,,424465,001,2023-07-31_20h42.57.847,arm3_eps,2022.2.5,MacIntel,59.99880002,616712249f8a8f034766cd47,64c7fed44a04f777bb1e18ce,64c8009def9a8395274c10cf,right,1,0.75,0.2429,11,0.050449562,0.9492,,,,,,102,0,102,0,1,,,,,
,,424465,001,2023-07-31_20h42.57.847,arm3_eps,2022.2.5,MacIntel,59.99880002,616712249f8a8f034766cd47,64c7fed44a04f777bb1e18ce,64c8009def9a8395274c10cf,right,1,0.75,0.2429,11,0.04302852,0.8863,,,,,,103,0,103,0,1,,,,,
,,424465,001,2023-07-31_20h42.57.847,arm3_eps,2022.2.5,MacIntel,59.99880002,616712249f8a8f034766cd47,64c7fed44a04f777bb1e18ce,64c8009def9a8395274c10cf,up,1,0.75,0.2429,11,0,1.1113,,,,,,104,0,104,0,1,,,,,
,,424465,001,2023-07-31_20h42.57.847,arm3_eps,2022.2.5,MacIntel,59.99880002,616712249f8a8f034766cd47,64c7fed44a04f777bb1e18ce,64c8009def9a8395274c10cf,right,1,0.75,0.2429,11,0.025335903,4.7653,,,,,,105,0,105,0,1,,,,,
,,424465,001,2023-07-31_20h42.57.847,arm3_eps,2022.2.5,MacIntel,59.99880002,616712249f8a8f034766cd47,64c7fed44a04f777bb1e18ce,64c8009def9a8395274c10cf,right,1,0.75,0.2429,11,0.041145285,0.8229,,,,,,106,0,106,0,1,,,,,
,,424465,001,2023-07-31_20h42.57.847,arm3_eps,2022.2.5,MacIntel,59.99880002,616712249f8a8f034766cd47,64c7fed44a04f777bb1e18ce,64c8009def9a8395274c10cf,right,1,0.75,0.2429,11,0.055862043,0.8597,,,,,,107,0,107,0,1,,,,,
,,424465,001,2023-07-31_20h42.57.847,arm3_eps,2022.2.5,MacIntel,59.99880002,616712249f8a8f034766cd47,64c7fed44a04f777bb1e18ce,64c8009def9a8395274c10cf,right,1,0.75,0.2429,11,0.077334927,0.864,,,,,,108,0,108,0,1,,,,,
,,424465,001,2023-07-31_20h42.57.847,arm3_eps,2022.2.5,MacIntel,59.99880002,616712249f8a8f034766cd47,64c7fed44a04f777bb1e18ce,64c8009def9a8395274c10cf,up,1,0.75,0.2429,12,0,0.7189,,,,,,109,0,109,0,1,,,,,
,,424465,001,2023-07-31_20h42.57.847,arm3_eps,2022.2.5,MacIntel,59.99880002,616712249f8a8f034766cd47,64c7fed44a04f777bb1e18ce,64c8009def9a8395274c10cf,right,1,0.75,0.2429,12,0.015268215,1.8814,,,,,,110,0,110,0,1,,,,,
,,424465,001,2023-07-31_20h42.57.847,arm3_eps,2022.2.5,MacIntel,59.99880002,616712249f8a8f034766cd47,64c7fed44a04f777bb1e18ce,64c8009def9a8395274c10cf,right,1,0.75,0.2429,12,0.028299094,0.8876,,,,,,111,0,111,0,1,,,,,
,,424465,001,2023-07-31_20h42.57.847,arm3_eps,2022.2.5,MacIntel,59.99880002,616712249f8a8f034766cd47,64c7fed44a04f777bb1e18ce,64c8009def9a8395274c10cf,right,1,0.75,0.2429,12,0.046546402,1.0307,,,,,,112,0,112,0,1,,,,,
,,424465,001,2023-07-31_20h42.57.847,arm3_eps,2022.2.5,MacIntel,59.99880002,616712249f8a8f034766cd47,64c7fed44a04f777bb1e18ce,64c8009def9a8395274c10cf,right,1,0.75,0.2429,12,0.037187993,0.8838,,,,,,113,0,113,0,1,,,,,
,,424465,001,2023-07-31_20h42.57.847,arm3_eps,2022.2.5,MacIntel,59.99880002,616712249f8a8f034766cd47,64c7fed44a04f777bb1e18ce,64c8009def9a8395274c10cf,up,1,0.75,0.2429,13,0,0.9632,,,,,,114,0,114,0,1,,,,,
,,424465,001,2023-07-31_20h42.57.847,arm3_eps,2022.2.5,MacIntel,59.99880002,616712249f8a8f034766cd47,64c7fed44a04f777bb1e18ce,64c8009def9a8395274c10cf,right,1,0.75,0.2429,13,0.019311841,1.6943,,,,,,115,0,115,0,1,,,,,
,,424465,001,2023-07-31_20h42.57.847,arm3_eps,2022.2.5,MacIntel,59.99880002,616712249f8a8f034766cd47,64c7fed44a04f777bb1e18ce,64c8009def9a8395274c10cf,right,1,0.75,0.2429,13,0.037527788,0.954,,,,,,116,0,116,0,1,,,,,
,,424465,001,2023-07-31_20h42.57.847,arm3_eps,2022.2.5,MacIntel,59.99880002,616712249f8a8f034766cd47,64c7fed44a04f777bb1e18ce,64c8009def9a8395274c10cf,right,1,0.75,0.2429,13,0.041227717,0.8022,,,,,,117,0,117,0,1,,,,,
,,424465,001,2023-07-31_20h42.57.847,arm3_eps,2022.2.5,MacIntel,59.99880002,616712249f8a8f034766cd47,64c7fed44a04f777bb1e18ce,64c8009def9a8395274c10cf,right,1,0.75,0.2429,13,0.033408429,0.8096,,,,,,118,0,118,0,1,,,,,
,,424465,001,2023-07-31_20h42.57.847,arm3_eps,2022.2.5,MacIntel,59.99880002,616712249f8a8f034766cd47,64c7fed44a04f777bb1e18ce,64c8009def9a8395274c10cf,up,-1,0.75,0.2429,13,0,0.996,,,,,,119,0,119,0,1,,,,,
,,424465,001,2023-07-31_20h42.57.847,arm3_eps,2022.2.5,MacIntel,59.99880002,616712249f8a8f034766cd47,64c7fed44a04f777bb1e18ce,64c8009def9a8395274c10cf,right,-1,0.75,0.2429,13,-0.006086748,2.6667,,,,,,120,0,120,0,1,,,,,
,,424465,001,2023-07-31_20h42.57.847,arm3_eps,2022.2.5,MacIntel,59.99880002,616712249f8a8f034766cd47,64c7fed44a04f777bb1e18ce,64c8009def9a8395274c10cf,right,-1,0.75,0.2429,13,-8.3191E-05,0.8511,,,,,,121,0,121,0,1,,,,,
,,424465,001,2023-07-31_20h42.57.847,arm3_eps,2022.2.5,MacIntel,59.99880002,616712249f8a8f034766cd47,64c7fed44a04f777bb1e18ce,64c8009def9a8395274c10cf,right,-1,0.75,0.2429,13,0.031997889,0.9199,,,,,,122,0,122,0,1,,,,,
,,424465,001,2023-07-31_20h42.57.847,arm3_eps,2022.2.5,MacIntel,59.99880002,616712249f8a8f034766cd47,64c7fed44a04f777bb1e18ce,64c8009def9a8395274c10cf,right,-1,0.75,0.2429,13,0.003742086,1.6715,,,,,,123,0,123,0,1,,,,,
,,424465,001,2023-07-31_20h42.57.847,arm3_eps,2022.2.5,MacIntel,59.99880002,616712249f8a8f034766cd47,64c7fed44a04f777bb1e18ce,64c8009def9a8395274c10cf,right,-1,0.75,0.2429,13,-0.009605463,0.7372,,,,,,124,0,124,0,1,,,,,
,,424465,001,2023-07-31_20h42.57.847,arm3_eps,2022.2.5,MacIntel,59.99880002,616712249f8a8f034766cd47,64c7fed44a04f777bb1e18ce,64c8009def9a8395274c10cf,right,-1,0.75,0.2429,13,-0.0505555,1.0198,,,,,,125,0,125,0,1,,,,,
,,424465,001,2023-07-31_20h42.57.847,arm3_eps,2022.2.5,MacIntel,59.99880002,616712249f8a8f034766cd47,64c7fed44a04f777bb1e18ce,64c8009def9a8395274c10cf,right,-1,0.75,0.2429,13,-0.024287173,1.2166,,,,,,126,0,126,0,1,,,,,
,,424465,001,2023-07-31_20h42.57.847,arm3_eps,2022.2.5,MacIntel,59.99880002,616712249f8a8f034766cd47,64c7fed44a04f777bb1e18ce,64c8009def9a8395274c10cf,down,1,0.75,0.2429,14,0,1.1459,,,,,,127,0,127,0,1,,,,,
,,424465,001,2023-07-31_20h42.57.847,arm3_eps,2022.2.5,MacIntel,59.99880002,616712249f8a8f034766cd47,64c7fed44a04f777bb1e18ce,64c8009def9a8395274c10cf,right,1,0.75,0.2429,14,0.005790731,2.5849,,,,,,128,0,128,0,1,,,,,
,,424465,001,2023-07-31_20h42.57.847,arm3_eps,2022.2.5,MacIntel,59.99880002,616712249f8a8f034766cd47,64c7fed44a04f777bb1e18ce,64c8009def9a8395274c10cf,right,1,0.75,0.2429,14,0.036048061,2.3733,,,,,,129,0,129,0,1,,,,,
,,424465,001,2023-07-31_20h42.57.847,arm3_eps,2022.2.5,MacIntel,59.99880002,616712249f8a8f034766cd47,64c7fed44a04f777bb1e18ce,64c8009def9a8395274c10cf,right,1,0.75,0.2429,14,0.035253618,0.8385,,,,,,130,0,130,0,1,,,,,
,,424465,001,2023-07-31_20h42.57.847,arm3_eps,2022.2.5,MacIntel,59.99880002,616712249f8a8f034766cd47,64c7fed44a04f777bb1e18ce,64c8009def9a8395274c10cf,right,1,0.75,0.2429,14,0.074523001,0.7323,,,,,,131,0,131,0,1,,,,,
,,424465,001,2023-07-31_20h42.57.847,arm3_eps,2022.2.5,MacIntel,59.99880002,616712249f8a8f034766cd47,64c7fed44a04f777bb1e18ce,64c8009def9a8395274c10cf,up,1,0.75,0.2429,15,0,0.8334,,,,,,132,0,132,0,1,,,,,
,,424465,001,2023-07-31_20h42.57.847,arm3_eps,2022.2.5,MacIntel,59.99880002,616712249f8a8f034766cd47,64c7fed44a04f777bb1e18ce,64c8009def9a8395274c10cf,right,1,0.75,0.2429,15,0.006529817,2.6801,,,,,,133,0,133,0,1,,,,,
,,424465,001,2023-07-31_20h42.57.847,arm3_eps,2022.2.5,MacIntel,59.99880002,616712249f8a8f034766cd47,64c7fed44a04f777bb1e18ce,64c8009def9a8395274c10cf,right,1,0.75,0.2429,15,0.005537565,1.0802,,,,,,134,0,134,0,1,,,,,
,,424465,001,2023-07-31_20h42.57.847,arm3_eps,2022.2.5,MacIntel,59.99880002,616712249f8a8f034766cd47,64c7fed44a04f777bb1e18ce,64c8009def9a8395274c10cf,right,1,0.75,0.2429,15,0.024999694,0.7359,,,,,,135,0,135,0,1,,,,,
,,424465,001,2023-07-31_20h42.57.847,arm3_eps,2022.2.5,MacIntel,59.99880002,616712249f8a8f034766cd47,64c7fed44a04f777bb1e18ce,64c8009def9a8395274c10cf,right,1,0.75,0.2429,15,0.042003827,1.8676,,,,,,136,0,136,0,1,,,,,
,,424465,001,2023-07-31_20h42.57.847,arm3_eps,2022.2.5,MacIntel,59.99880002,616712249f8a8f034766cd47,64c7fed44a04f777bb1e18ce,64c8009def9a8395274c10cf,up,1,0.75,0.2429,16,0,1.0304,,,,,,137,0,137,0,1,,,,,
,,424465,001,2023-07-31_20h42.57.847,arm3_eps,2022.2.5,MacIntel,59.99880002,616712249f8a8f034766cd47,64c7fed44a04f777bb1e18ce,64c8009def9a8395274c10cf,right,1,0.75,0.2429,16,0.007283533,1.154,,,,,,138,0,138,0,1,,,,,
,,424465,001,2023-07-31_20h42.57.847,arm3_eps,2022.2.5,MacIntel,59.99880002,616712249f8a8f034766cd47,64c7fed44a04f777bb1e18ce,64c8009def9a8395274c10cf,right,1,0.75,0.2429,16,-0.00504147,0.7525,,,,,,139,0,139,0,1,,,,,
,,424465,001,2023-07-31_20h42.57.847,arm3_eps,2022.2.5,MacIntel,59.99880002,616712249f8a8f034766cd47,64c7fed44a04f777bb1e18ce,64c8009def9a8395274c10cf,right,1,0.75,0.2429,16,0.004040063,1.0007,,,,,,140,0,140,0,1,,,,,
,,424465,001,2023-07-31_20h42.57.847,arm3_eps,2022.2.5,MacIntel,59.99880002,616712249f8a8f034766cd47,64c7fed44a04f777bb1e18ce,64c8009def9a8395274c10cf,right,1,0.75,0.2429,16,0.025208244,0.9639,,,,,,141,0,141,0,1,,,,,
,,424465,001,2023-07-31_20h42.57.847,arm3_eps,2022.2.5,MacIntel,59.99880002,616712249f8a8f034766cd47,64c7fed44a04f777bb1e18ce,64c8009def9a8395274c10cf,right,1,0.75,0.2429,16,0.026412661,0.8297,,,,,,142,0,142,0,1,,,,,
,,424465,001,2023-07-31_20h42.57.847,arm3_eps,2022.2.5,MacIntel,59.99880002,616712249f8a8f034766cd47,64c7fed44a04f777bb1e18ce,64c8009def9a8395274c10cf,right,1,0.75,0.2429,16,0.025430268,0.8686,,,,,,143,0,143,0,1,,,,,
,,424465,001,2023-07-31_20h42.57.847,arm3_eps,2022.2.5,MacIntel,59.99880002,616712249f8a8f034766cd47,64c7fed44a04f777bb1e18ce,64c8009def9a8395274c10cf,right,1,0.75,0.2429,16,0.00605984,1.2477,,,,,,144,0,144,0,1,,,,,
,,424465,001,2023-07-31_20h42.57.847,arm3_eps,2022.2.5,MacIntel,59.99880002,616712249f8a8f034766cd47,64c7fed44a04f777bb1e18ce,64c8009def9a8395274c10cf,up,-1,0.75,0.2429,17,0,1.4031,,,,,,145,0,145,0,1,,,,,
,,424465,001,2023-07-31_20h42.57.847,arm3_eps,2022.2.5,MacIntel,59.99880002,616712249f8a8f034766cd47,64c7fed44a04f777bb1e18ce,64c8009def9a8395274c10cf,right,-1,0.75,0.2429,17,-0.0410974,1.0662,,,,,,146,0,146,0,1,,,,,
,,424465,001,2023-07-31_20h42.57.847,arm3_eps,2022.2.5,MacIntel,59.99880002,616712249f8a8f034766cd47,64c7fed44a04f777bb1e18ce,64c8009def9a8395274c10cf,right,-1,0.75,0.2429,17,-0.023145034,0.8845,,,,,,147,0,147,0,1,,,,,
,,424465,001,2023-07-31_20h42.57.847,arm3_eps,2022.2.5,MacIntel,59.99880002,616712249f8a8f034766cd47,64c7fed44a04f777bb1e18ce,64c8009def9a8395274c10cf,right,-1,0.75,0.2429,17,-0.014453921,0.9362,,,,,,148,0,148,0,1,,,,,
,,424465,001,2023-07-31_20h42.57.847,arm3_eps,2022.2.5,MacIntel,59.99880002,616712249f8a8f034766cd47,64c7fed44a04f777bb1e18ce,64c8009def9a8395274c10cf,right,-1,0.75,0.2429,17,-0.019496022,0.8465,,,,,,149,0,149,0,1,,,,,
,,424465,001,2023-07-31_20h42.57.847,arm3_eps,2022.2.5,MacIntel,59.99880002,616712249f8a8f034766cd47,64c7fed44a04f777bb1e18ce,64c8009def9a8395274c10cf,down,-1,0.75,0.2429,18,0,0.7478,,,,,,150,0,150,0,1,,,,,
,,424465,001,2023-07-31_20h42.57.847,arm3_eps,2022.2.5,MacIntel,59.99880002,616712249f8a8f034766cd47,64c7fed44a04f777bb1e18ce,64c8009def9a8395274c10cf,right,-1,0.75,0.2429,18,-0.026515297,1.9176,,,,,,151,0,151,0,1,,,,,
,,424465,001,2023-07-31_20h42.57.847,arm3_eps,2022.2.5,MacIntel,59.99880002,616712249f8a8f034766cd47,64c7fed44a04f777bb1e18ce,64c8009def9a8395274c10cf,right,-1,0.75,0.2429,18,-0.035024139,0.8732,,,,,,152,0,152,0,1,,,,,
,,424465,001,2023-07-31_20h42.57.847,arm3_eps,2022.2.5,MacIntel,59.99880002,616712249f8a8f034766cd47,64c7fed44a04f777bb1e18ce,64c8009def9a8395274c10cf,right,-1,0.75,0.2429,18,-0.026699474,0.8857,,,,,,153,0,153,0,1,,,,,
,,424465,001,2023-07-31_20h42.57.847,arm3_eps,2022.2.5,MacIntel,59.99880002,616712249f8a8f034766cd47,64c7fed44a04f777bb1e18ce,64c8009def9a8395274c10cf,right,-1,0.75,0.2429,18,-0.028055038,0.8329,,,,,,154,0,154,0,1,,,,,
,,424465,001,2023-07-31_20h42.57.847,arm3_eps,2022.2.5,MacIntel,59.99880002,616712249f8a8f034766cd47,64c7fed44a04f777bb1e18ce,64c8009def9a8395274c10cf,right,-1,0.75,0.2429,18,-0.01273522,0.8857,,,,,,155,0,155,0,1,,,,,
,,424465,001,2023-07-31_20h42.57.847,arm3_eps,2022.2.5,MacIntel,59.99880002,616712249f8a8f034766cd47,64c7fed44a04f777bb1e18ce,64c8009def9a8395274c10cf,right,-1,0.75,0.2429,18,-0.021713096,0.9994,,,,,,156,0,156,0,1,,,,,
,,424465,001,2023-07-31_20h42.57.847,arm3_eps,2022.2.5,MacIntel,59.99880002,616712249f8a8f034766cd47,64c7fed44a04f777bb1e18ce,64c8009def9a8395274c10cf,right,-1,0.75,0.2429,18,0.005811309,1.1849,,,,,,157,0,157,0,1,,,,,
,,424465,001,2023-07-31_20h42.57.847,arm3_eps,2022.2.5,MacIntel,59.99880002,616712249f8a8f034766cd47,64c7fed44a04f777bb1e18ce,64c8009def9a8395274c10cf,right,-1,0.75,0.2429,18,-0.010386659,1.2441,,,,,,158,0,158,0,1,,,,,
,,424465,001,2023-07-31_20h42.57.847,arm3_eps,2022.2.5,MacIntel,59.99880002,616712249f8a8f034766cd47,64c7fed44a04f777bb1e18ce,64c8009def9a8395274c10cf,down,1,0.75,0.2429,19,0,0.9866,,,,,,159,0,159,0,1,,,,,
,,424465,001,2023-07-31_20h42.57.847,arm3_eps,2022.2.5,MacIntel,59.99880002,616712249f8a8f034766cd47,64c7fed44a04f777bb1e18ce,64c8009def9a8395274c10cf,right,1,0.75,0.2429,19,0.012755798,1.0183,,,,,,160,0,160,0,1,,,,,
,,424465,001,2023-07-31_20h42.57.847,arm3_eps,2022.2.5,MacIntel,59.99880002,616712249f8a8f034766cd47,64c7fed44a04f777bb1e18ce,64c8009def9a8395274c10cf,right,1,0.75,0.2429,19,0.068376689,1.0008,,,,,,161,0,161,0,1,,,,,
,,424465,001,2023-07-31_20h42.57.847,arm3_eps,2022.2.5,MacIntel,59.99880002,616712249f8a8f034766cd47,64c7fed44a04f777bb1e18ce,64c8009def9a8395274c10cf,right,1,0.75,0.2429,19,0.088160209,0.7854,,,,,,162,0,162,0,1,,,,,
,,424465,001,2023-07-31_20h42.57.847,arm3_eps,2022.2.5,MacIntel,59.99880002,616712249f8a8f034766cd47,64c7fed44a04f777bb1e18ce,64c8009def9a8395274c10cf,up,1,0.75,0.2429,19,0,1.1529,,,,,,163,0,163,0,1,,,,,
,,424465,001,2023-07-31_20h42.57.847,arm3_eps,2022.2.5,MacIntel,59.99880002,616712249f8a8f034766cd47,64c7fed44a04f777bb1e18ce,64c8009def9a8395274c10cf,right,1,0.75,0.2429,19,0.003247832,2.7046,,,,,,164,0,164,0,1,,,,,
,,424465,001,2023-07-31_20h42.57.847,arm3_eps,2022.2.5,MacIntel,59.99880002,616712249f8a8f034766cd47,64c7fed44a04f777bb1e18ce,64c8009def9a8395274c10cf,right,1,0.75,0.2429,19,0.013735346,0.6192,,,,,,165,0,165,0,1,,,,,
,,424465,001,2023-07-31_20h42.57.847,arm3_eps,2022.2.5,MacIntel,59.99880002,616712249f8a8f034766cd47,64c7fed44a04f777bb1e18ce,64c8009def9a8395274c10cf,right,1,0.75,0.2429,19,0.026109013,1.8062,,,,,,166,0,166,0,1,,,,,
,,424465,001,2023-07-31_20h42.57.847,arm3_eps,2022.2.5,MacIntel,59.99880002,616712249f8a8f034766cd47,64c7fed44a04f777bb1e18ce,64c8009def9a8395274c10cf,right,1,0.75,0.2429,19,0.031444051,2.1045,,,,,,167,0,167,0,1,,,,,
,,424465,001,2023-07-31_20h42.57.847,arm3_eps,2022.2.5,MacIntel,59.99880002,616712249f8a8f034766cd47,64c7fed44a04f777bb1e18ce,64c8009def9a8395274c10cf,right,1,0.75,0.2429,19,0.022349127,1.5025,,,,,,168,0,168,0,1,,,,,
,,424465,001,2023-07-31_20h42.57.847,arm3_eps,2022.2.5,MacIntel,59.99880002,616712249f8a8f034766cd47,64c7fed44a04f777bb1e18ce,64c8009def9a8395274c10cf,up,1,0.75,0.2429,19,0,0.6356,,,,,,169,0,169,0,1,,,,,
,,424465,001,2023-07-31_20h42.57.847,arm3_eps,2022.2.5,MacIntel,59.99880002,616712249f8a8f034766cd47,64c7fed44a04f777bb1e18ce,64c8009def9a8395274c10cf,right,1,0.75,0.2429,19,-0.004127127,1.9155,,,,,,170,0,170,0,1,,,,,
,,424465,001,2023-07-31_20h42.57.847,arm3_eps,2022.2.5,MacIntel,59.99880002,616712249f8a8f034766cd47,64c7fed44a04f777bb1e18ce,64c8009def9a8395274c10cf,right,1,0.75,0.2429,19,0.016197742,1.0509,,,,,,171,0,171,0,1,,,,,
,,424465,001,2023-07-31_20h42.57.847,arm3_eps,2022.2.5,MacIntel,59.99880002,616712249f8a8f034766cd47,64c7fed44a04f777bb1e18ce,64c8009def9a8395274c10cf,right,1,0.75,0.2429,19,0.016944899,0.9032,,,,,,172,0,172,0,1,,,,,
,,424465,001,2023-07-31_20h42.57.847,arm3_eps,2022.2.5,MacIntel,59.99880002,616712249f8a8f034766cd47,64c7fed44a04f777bb1e18ce,64c8009def9a8395274c10cf,right,1,0.75,0.2429,19,0.026142389,0.8013,,,,,,173,0,173,0,1,,,,,
,,424465,001,2023-07-31_20h42.57.847,arm3_eps,2022.2.5,MacIntel,59.99880002,616712249f8a8f034766cd47,64c7fed44a04f777bb1e18ce,64c8009def9a8395274c10cf,up,1,0.75,0.2429,20,0,0.9199,,,,,,174,0,174,0,1,,,,,
,,424465,001,2023-07-31_20h42.57.847,arm3_eps,2022.2.5,MacIntel,59.99880002,616712249f8a8f034766cd47,64c7fed44a04f777bb1e18ce,64c8009def9a8395274c10cf,right,1,0.75,0.2429,20,0.010440282,1.2645,,,,,,175,0,175,0,1,,,,,
,,424465,001,2023-07-31_20h42.57.847,arm3_eps,2022.2.5,MacIntel,59.99880002,616712249f8a8f034766cd47,64c7fed44a04f777bb1e18ce,64c8009def9a8395274c10cf,right,1,0.75,0.2429,20,0.043033181,0.9012,,,,,,176,0,176,0,1,,,,,
,,424465,001,2023-07-31_20h42.57.847,arm3_eps,2022.2.5,MacIntel,59.99880002,616712249f8a8f034766cd47,64c7fed44a04f777bb1e18ce,64c8009def9a8395274c10cf,right,1,0.75,0.2429,20,0.016903883,0.9328,,,,,,177,0,177,0,1,,,,,
,,424465,001,2023-07-31_20h42.57.847,arm3_eps,2022.2.5,MacIntel,59.99880002,616712249f8a8f034766cd47,64c7fed44a04f777bb1e18ce,64c8009def9a8395274c10cf,up,1,0.75,0.2429,20,0,0.8999,,,,,,178,0,178,0,1,,,,,
,,424465,001,2023-07-31_20h42.57.847,arm3_eps,2022.2.5,MacIntel,59.99880002,616712249f8a8f034766cd47,64c7fed44a04f777bb1e18ce,64c8009def9a8395274c10cf,right,1,0.75,0.2429,20,0.033875223,1.0473,,,,,,179,0,179,0,1,,,,,
,,424465,001,2023-07-31_20h42.57.847,arm3_eps,2022.2.5,MacIntel,59.99880002,616712249f8a8f034766cd47,64c7fed44a04f777bb1e18ce,64c8009def9a8395274c10cf,right,1,0.75,0.2429,20,0.02631142,0.7495,,,,,,180,0,180,0,1,,,,,
,,424465,001,2023-07-31_20h42.57.847,arm3_eps,2022.2.5,MacIntel,59.99880002,616712249f8a8f034766cd47,64c7fed44a04f777bb1e18ce,64c8009def9a8395274c10cf,right,1,0.75,0.2429,20,0.02991383,0.6988,,,,,,181,0,181,0,1,,,,,
,,424465,001,2023-07-31_20h42.57.847,arm3_eps,2022.2.5,MacIntel,59.99880002,616712249f8a8f034766cd47,64c7fed44a04f777bb1e18ce,64c8009def9a8395274c10cf,up,1,0.75,0.2429,20,0,0.57,,,,,,182,0,182,0,1,,,,,
,,424465,001,2023-07-31_20h42.57.847,arm3_eps,2022.2.5,MacIntel,59.99880002,616712249f8a8f034766cd47,64c7fed44a04f777bb1e18ce,64c8009def9a8395274c10cf,right,1,0.75,0.2429,20,-0.029740566,0.9845,,,,,,183,0,183,0,1,,,,,
,,424465,001,2023-07-31_20h42.57.847,arm3_eps,2022.2.5,MacIntel,59.99880002,616712249f8a8f034766cd47,64c7fed44a04f777bb1e18ce,64c8009def9a8395274c10cf,right,1,0.75,0.2429,20,-0.003510478,0.587,,,,,,184,0,184,0,1,,,,,
,,424465,001,2023-07-31_20h42.57.847,arm3_eps,2022.2.5,MacIntel,59.99880002,616712249f8a8f034766cd47,64c7fed44a04f777bb1e18ce,64c8009def9a8395274c10cf,right,1,0.75,0.2429,20,0.002849569,1.0656,,,,,,185,0,185,0,1,,,,,
,,424465,001,2023-07-31_20h42.57.847,arm3_eps,2022.2.5,MacIntel,59.99880002,616712249f8a8f034766cd47,64c7fed44a04f777bb1e18ce,64c8009def9a8395274c10cf,right,1,0.75,0.2429,20,0.001577607,1.0334,,,,,,186,0,186,0,1,,,,,
,,424465,001,2023-07-31_20h42.57.847,arm3_eps,2022.2.5,MacIntel,59.99880002,616712249f8a8f034766cd47,64c7fed44a04f777bb1e18ce,64c8009def9a8395274c10cf,right,1,0.75,0.2429,20,0.021099496,1.2479,,,,,,187,0,187,0,1,,,,,
,,424465,001,2023-07-31_20h42.57.847,arm3_eps,2022.2.5,MacIntel,59.99880002,616712249f8a8f034766cd47,64c7fed44a04f777bb1e18ce,64c8009def9a8395274c10cf,up,1,0.75,0.2429,21,0,0.8193,,,,,,188,0,188,0,1,,,,,
,,424465,001,2023-07-31_20h42.57.847,arm3_eps,2022.2.5,MacIntel,59.99880002,616712249f8a8f034766cd47,64c7fed44a04f777bb1e18ce,64c8009def9a8395274c10cf,right,1,0.75,0.2429,21,0.023621827,1.0683,,,,,,189,0,189,0,1,,,,,
,,424465,001,2023-07-31_20h42.57.847,arm3_eps,2022.2.5,MacIntel,59.99880002,616712249f8a8f034766cd47,64c7fed44a04f777bb1e18ce,64c8009def9a8395274c10cf,right,1,0.75,0.2429,21,0.028533855,0.8042,,,,,,190,0,190,0,1,,,,,
,,424465,001,2023-07-31_20h42.57.847,arm3_eps,2022.2.5,MacIntel,59.99880002,616712249f8a8f034766cd47,64c7fed44a04f777bb1e18ce,64c8009def9a8395274c10cf,right,1,0.75,0.2429,21,0.035130248,0.9509,,,,,,191,0,191,0,1,,,,,
,,424465,001,2023-07-31_20h42.57.847,arm3_eps,2022.2.5,MacIntel,59.99880002,616712249f8a8f034766cd47,64c7fed44a04f777bb1e18ce,64c8009def9a8395274c10cf,right,1,0.75,0.2429,21,0.031851272,1.2331,,,,,,192,0,192,0,1,,,,,
,,424465,001,2023-07-31_20h42.57.847,arm3_eps,2022.2.5,MacIntel,59.99880002,616712249f8a8f034766cd47,64c7fed44a04f777bb1e18ce,64c8009def9a8395274c10cf,right,1,0.75,0.2429,21,0.009127165,0.8467,,,,,,193,0,193,0,1,,,,,
,,424465,001,2023-07-31_20h42.57.847,arm3_eps,2022.2.5,MacIntel,59.99880002,616712249f8a8f034766cd47,64c7fed44a04f777bb1e18ce,64c8009def9a8395274c10cf,up,1,0.75,0.2429,22,0,0.7228,,,,,,194,0,194,0,1,,,,,
,,424465,001,2023-07-31_20h42.57.847,arm3_eps,2022.2.5,MacIntel,59.99880002,616712249f8a8f034766cd47,64c7fed44a04f777bb1e18ce,64c8009def9a8395274c10cf,right,1,0.75,0.2429,22,0.04269687,1.1842,,,,,,195,0,195,0,1,,,,,
,,424465,001,2023-07-31_20h42.57.847,arm3_eps,2022.2.5,MacIntel,59.99880002,616712249f8a8f034766cd47,64c7fed44a04f777bb1e18ce,64c8009def9a8395274c10cf,right,1,0.75,0.2429,22,0.049740241,0.8185,,,,,,196,0,196,0,1,,,,,
,,424465,001,2023-07-31_20h42.57.847,arm3_eps,2022.2.5,MacIntel,59.99880002,616712249f8a8f034766cd47,64c7fed44a04f777bb1e18ce,64c8009def9a8395274c10cf,right,1,0.75,0.2429,22,0.069718099,0.735,,,,,,197,0,197,0,1,,,,,
,,424465,001,2023-07-31_20h42.57.847,arm3_eps,2022.2.5,MacIntel,59.99880002,616712249f8a8f034766cd47,64c7fed44a04f777bb1e18ce,64c8009def9a8395274c10cf,right,1,0.75,0.2429,22,0.057448722,0.6982,,,,,,198,0,198,0,1,,,,,
,,424465,001,2023-07-31_20h42.57.847,arm3_eps,2022.2.5,MacIntel,59.99880002,616712249f8a8f034766cd47,64c7fed44a04f777bb1e18ce,64c8009def9a8395274c10cf,up,1,0.75,0.2429,23,0,1.0176,,,,,,199,0,199,0,1,,,,,
,,424465,001,2023-07-31_20h42.57.847,arm3_eps,2022.2.5,MacIntel,59.99880002,616712249f8a8f034766cd47,64c7fed44a04f777bb1e18ce,64c8009def9a8395274c10cf,right,1,0.75,0.2429,23,-0.021775489,0.8831,,,,,,200,0,200,0,1,,,,,
,,424465,001,2023-07-31_20h42.57.847,arm3_eps,2022.2.5,MacIntel,59.99880002,616712249f8a8f034766cd47,64c7fed44a04f777bb1e18ce,64c8009def9a8395274c10cf,right,1,0.75,0.2429,23,0.01447904,0.7072,,,,,,201,0,201,0,1,,,,,
,,424465,001,2023-07-31_20h42.57.847,arm3_eps,2022.2.5,MacIntel,59.99880002,616712249f8a8f034766cd47,64c7fed44a04f777bb1e18ce,64c8009def9a8395274c10cf,right,1,0.75,0.2429,23,0.035530616,0.7332,,,,,,202,0,202,0,1,,,,,
,,424465,001,2023-07-31_20h42.57.847,arm3_eps,2022.2.5,MacIntel,59.99880002,616712249f8a8f034766cd47,64c7fed44a04f777bb1e18ce,64c8009def9a8395274c10cf,right,1,0.75,0.2429,23,0.021601918,0.8002,,,,,,203,0,203,0,1,,,,,
,,424465,001,2023-07-31_20h42.57.847,arm3_eps,2022.2.5,MacIntel,59.99880002,616712249f8a8f034766cd47,64c7fed44a04f777bb1e18ce,64c8009def9a8395274c10cf,right,1,0.75,0.2429,23,0.036527795,0.8007,,,,,,204,0,204,0,1,,,,,
,,424465,001,2023-07-31_20h42.57.847,arm3_eps,2022.2.5,MacIntel,59.99880002,616712249f8a8f034766cd47,64c7fed44a04f777bb1e18ce,64c8009def9a8395274c10cf,up,-1,0.75,0.2429,24,0,0.5483,,,,,,205,0,205,0,1,,,,,
,,424465,001,2023-07-31_20h42.57.847,arm3_eps,2022.2.5,MacIntel,59.99880002,616712249f8a8f034766cd47,64c7fed44a04f777bb1e18ce,64c8009def9a8395274c10cf,right,-1,0.75,0.2429,24,0.011346162,1.005,,,,,,206,0,206,0,1,,,,,
,,424465,001,2023-07-31_20h42.57.847,arm3_eps,2022.2.5,MacIntel,59.99880002,616712249f8a8f034766cd47,64c7fed44a04f777bb1e18ce,64c8009def9a8395274c10cf,right,-1,0.75,0.2429,24,-0.007854373,0.7004,,,,,,207,0,207,0,1,,,,,
,,424465,001,2023-07-31_20h42.57.847,arm3_eps,2022.2.5,MacIntel,59.99880002,616712249f8a8f034766cd47,64c7fed44a04f777bb1e18ce,64c8009def9a8395274c10cf,right,-1,0.75,0.2429,24,-0.017085112,0.7837,,,,,,208,0,208,0,1,,,,,
,,424465,001,2023-07-31_20h42.57.847,arm3_eps,2022.2.5,MacIntel,59.99880002,616712249f8a8f034766cd47,64c7fed44a04f777bb1e18ce,64c8009def9a8395274c10cf,down,-1,0.75,0.2429,25,0,0.8581,,,,,,209,0,209,0,1,,,,,
,,424465,001,2023-07-31_20h42.57.847,arm3_eps,2022.2.5,MacIntel,59.99880002,616712249f8a8f034766cd47,64c7fed44a04f777bb1e18ce,64c8009def9a8395274c10cf,right,-1,0.75,0.2429,25,0.010020756,0.9648,,,,,,210,0,210,0,1,,,,,
,,424465,001,2023-07-31_20h42.57.847,arm3_eps,2022.2.5,MacIntel,59.99880002,616712249f8a8f034766cd47,64c7fed44a04f777bb1e18ce,64c8009def9a8395274c10cf,right,-1,0.75,0.2429,25,0.001251776,0.6534,,,,,,211,0,211,0,1,,,,,
,,424465,001,2023-07-31_20h42.57.847,arm3_eps,2022.2.5,MacIntel,59.99880002,616712249f8a8f034766cd47,64c7fed44a04f777bb1e18ce,64c8009def9a8395274c10cf,right,-1,0.75,0.2429,25,-0.009902152,0.6987,,,,,,212,0,212,0,1,,,,,
,,424465,001,2023-07-31_20h42.57.847,arm3_eps,2022.2.5,MacIntel,59.99880002,616712249f8a8f034766cd47,64c7fed44a04f777bb1e18ce,64c8009def9a8395274c10cf,right,-1,0.75,0.2429,25,-0.018731097,0.783,,,,,,213,0,213,0,1,,,,,
,,424465,001,2023-07-31_20h42.57.847,arm3_eps,2022.2.5,MacIntel,59.99880002,616712249f8a8f034766cd47,64c7fed44a04f777bb1e18ce,64c8009def9a8395274c10cf,down,-1,0.75,0.2429,26,0,0.868,,,,,,214,0,214,0,1,,,,,
,,424465,001,2023-07-31_20h42.57.847,arm3_eps,2022.2.5,MacIntel,59.99880002,616712249f8a8f034766cd47,64c7fed44a04f777bb1e18ce,64c8009def9a8395274c10cf,right,-1,0.75,0.2429,26,-0.020006167,1.1943,,,,,,215,0,215,0,1,,,,,
,,424465,001,2023-07-31_20h42.57.847,arm3_eps,2022.2.5,MacIntel,59.99880002,616712249f8a8f034766cd47,64c7fed44a04f777bb1e18ce,64c8009def9a8395274c10cf,right,-1,0.75,0.2429,26,0.006214463,1.5513,,,,,,216,0,216,0,1,,,,,
,,424465,001,2023-07-31_20h42.57.847,arm3_eps,2022.2.5,MacIntel,59.99880002,616712249f8a8f034766cd47,64c7fed44a04f777bb1e18ce,64c8009def9a8395274c10cf,right,-1,0.75,0.2429,26,-0.000600278,1.0892,,,,,,217,0,217,0,1,,,,,
,,424465,001,2023-07-31_20h42.57.847,arm3_eps,2022.2.5,MacIntel,59.99880002,616712249f8a8f034766cd47,64c7fed44a04f777bb1e18ce,64c8009def9a8395274c10cf,right,-1,0.75,0.2429,26,-0.020388395,0.8335,,,,,,218,0,218,0,1,,,,,
,,424465,001,2023-07-31_20h42.57.847,arm3_eps,2022.2.5,MacIntel,59.99880002,616712249f8a8f034766cd47,64c7fed44a04f777bb1e18ce,64c8009def9a8395274c10cf,down,-1,0.75,0.2429,27,0,0.8352,,,,,,219,0,219,0,1,,,,,
,,424465,001,2023-07-31_20h42.57.847,arm3_eps,2022.2.5,MacIntel,59.99880002,616712249f8a8f034766cd47,64c7fed44a04f777bb1e18ce,64c8009def9a8395274c10cf,right,-1,0.75,0.2429,27,-0.025451955,0.9147,,,,,,220,0,220,0,1,,,,,
,,424465,001,2023-07-31_20h42.57.847,arm3_eps,2022.2.5,MacIntel,59.99880002,616712249f8a8f034766cd47,64c7fed44a04f777bb1e18ce,64c8009def9a8395274c10cf,right,-1,0.75,0.2429,27,-0.049836907,0.7196,,,,,,221,0,221,0,1,,,,,
,,424465,001,2023-07-31_20h42.57.847,arm3_eps,2022.2.5,MacIntel,59.99880002,616712249f8a8f034766cd47,64c7fed44a04f777bb1e18ce,64c8009def9a8395274c10cf,right,-1,0.75,0.2429,27,-0.068883966,0.6854,,,,,,222,0,222,0,1,,,,,
,,424465,001,2023-07-31_20h42.57.847,arm3_eps,2022.2.5,MacIntel,59.99880002,616712249f8a8f034766cd47,64c7fed44a04f777bb1e18ce,64c8009def9a8395274c10cf,down,1,0.75,0.2429,27,0,1.2846,,,,,,223,0,223,0,1,,,,,
,,424465,001,2023-07-31_20h42.57.847,arm3_eps,2022.2.5,MacIntel,59.99880002,616712249f8a8f034766cd47,64c7fed44a04f777bb1e18ce,64c8009def9a8395274c10cf,right,1,0.75,0.2429,27,0.019351428,1.0297,,,,,,224,0,224,0,1,,,,,
,,424465,001,2023-07-31_20h42.57.847,arm3_eps,2022.2.5,MacIntel,59.99880002,616712249f8a8f034766cd47,64c7fed44a04f777bb1e18ce,64c8009def9a8395274c10cf,right,1,0.75,0.2429,27,0.027879409,0.5869,,,,,,225,0,225,0,1,,,,,
,,424465,001,2023-07-31_20h42.57.847,arm3_eps,2022.2.5,MacIntel,59.99880002,616712249f8a8f034766cd47,64c7fed44a04f777bb1e18ce,64c8009def9a8395274c10cf,right,1,0.75,0.2429,27,0.050910172,0.6337,,,,,,226,0,226,0,1,,,,,
,,424465,001,2023-07-31_20h42.57.847,arm3_eps,2022.2.5,MacIntel,59.99880002,616712249f8a8f034766cd47,64c7fed44a04f777bb1e18ce,64c8009def9a8395274c10cf,right,1,0.75,0.2429,27,0.036352049,1.181,,,,,,227,0,227,0,1,,,,,
,,424465,001,2023-07-31_20h42.57.847,arm3_eps,2022.2.5,MacIntel,59.99880002,616712249f8a8f034766cd47,64c7fed44a04f777bb1e18ce,64c8009def9a8395274c10cf,right,1,0.75,0.2429,27,-0.029570273,1.6388,,,,,,228,0,228,0,1,,,,,
,,424465,001,2023-07-31_20h42.57.847,arm3_eps,2022.2.5,MacIntel,59.99880002,616712249f8a8f034766cd47,64c7fed44a04f777bb1e18ce,64c8009def9a8395274c10cf,right,1,0.75,0.2429,27,-0.034904815,0.7811,,,,,,229,0,229,0,1,,,,,
,,424465,001,2023-07-31_20h42.57.847,arm3_eps,2022.2.5,MacIntel,59.99880002,616712249f8a8f034766cd47,64c7fed44a04f777bb1e18ce,64c8009def9a8395274c10cf,right,1,0.75,0.2429,27,0.008799284,0.8521,,,,,,230,0,230,0,1,,,,,
,,424465,001,2023-07-31_20h42.57.847,arm3_eps,2022.2.5,MacIntel,59.99880002,616712249f8a8f034766cd47,64c7fed44a04f777bb1e18ce,64c8009def9a8395274c10cf,right,1,0.75,0.2429,27,0.022069472,1.0183,,,,,,231,0,231,0,1,,,,,
,,424465,001,2023-07-31_20h42.57.847,arm3_eps,2022.2.5,MacIntel,59.99880002,616712249f8a8f034766cd47,64c7fed44a04f777bb1e18ce,64c8009def9a8395274c10cf,up,1,0.75,0.2429,28,0,1.0537,,,,,,232,0,232,0,1,,,,,
,,424465,001,2023-07-31_20h42.57.847,arm3_eps,2022.2.5,MacIntel,59.99880002,616712249f8a8f034766cd47,64c7fed44a04f777bb1e18ce,64c8009def9a8395274c10cf,right,1,0.75,0.2429,28,0.003638366,1.071,,,,,,233,0,233,0,1,,,,,
,,424465,001,2023-07-31_20h42.57.847,arm3_eps,2022.2.5,MacIntel,59.99880002,616712249f8a8f034766cd47,64c7fed44a04f777bb1e18ce,64c8009def9a8395274c10cf,right,1,0.75,0.2429,28,-0.002879632,0.7893,,,,,,234,0,234,0,1,,,,,
,,424465,001,2023-07-31_20h42.57.847,arm3_eps,2022.2.5,MacIntel,59.99880002,616712249f8a8f034766cd47,64c7fed44a04f777bb1e18ce,64c8009def9a8395274c10cf,right,1,0.75,0.2429,28,0.042829775,1.3167,,,,,,235,0,235,0,1,,,,,
,,424465,001,2023-07-31_20h42.57.847,arm3_eps,2022.2.5,MacIntel,59.99880002,616712249f8a8f034766cd47,64c7fed44a04f777bb1e18ce,64c8009def9a8395274c10cf,right,1,0.75,0.2429,28,0.071993546,1.6652,,,,,,236,0,236,0,1,,,,,
,,424465,001,2023-07-31_20h42.57.847,arm3_eps,2022.2.5,MacIntel,59.99880002,616712249f8a8f034766cd47,64c7fed44a04f777bb1e18ce,64c8009def9a8395274c10cf,up,1,0.75,0.2429,29,0,1.4986,,,,,,237,0,237,0,1,,,,,
,,424465,001,2023-07-31_20h42.57.847,arm3_eps,2022.2.5,MacIntel,59.99880002,616712249f8a8f034766cd47,64c7fed44a04f777bb1e18ce,64c8009def9a8395274c10cf,right,1,0.75,0.2429,29,0.003705951,0.9144,,,,,,238,0,238,0,1,,,,,
,,424465,001,2023-07-31_20h42.57.847,arm3_eps,2022.2.5,MacIntel,59.99880002,616712249f8a8f034766cd47,64c7fed44a04f777bb1e18ce,64c8009def9a8395274c10cf,right,1,0.75,0.2429,29,0.026085702,0.6051,,,,,,239,0,239,0,1,,,,,
,,424465,001,2023-07-31_20h42.57.847,arm3_eps,2022.2.5,MacIntel,59.99880002,616712249f8a8f034766cd47,64c7fed44a04f777bb1e18ce,64c8009def9a8395274c10cf,right,1,0.75,0.2429,29,0.024635064,0.818,,,,,,240,0,240,0,1,,,,,
,,424465,001,2023-07-31_20h42.57.847,arm3_eps,2022.2.5,MacIntel,59.99880002,616712249f8a8f034766cd47,64c7fed44a04f777bb1e18ce,64c8009def9a8395274c10cf,right,1,0.75,0.2429,29,0.031006608,0.9511,,,,,,241,0,241,0,1,,,,,
,,424465,001,2023-07-31_20h42.57.847,arm3_eps,2022.2.5,MacIntel,59.99880002,616712249f8a8f034766cd47,64c7fed44a04f777bb1e18ce,64c8009def9a8395274c10cf,up,1,0.75,0.2429,30,0,0.7321,,,,,,242,0,242,0,1,,,,,
,,424465,001,2023-07-31_20h42.57.847,arm3_eps,2022.2.5,MacIntel,59.99880002,616712249f8a8f034766cd47,64c7fed44a04f777bb1e18ce,64c8009def9a8395274c10cf,right,1,0.75,0.2429,30,0.03632779,1.1169,,,,,,243,0,243,0,1,,,,,
,,424465,001,2023-07-31_20h42.57.847,arm3_eps,2022.2.5,MacIntel,59.99880002,616712249f8a8f034766cd47,64c7fed44a04f777bb1e18ce,64c8009def9a8395274c10cf,right,1,0.75,0.2429,30,0.065773004,1.9815,,,,,,244,0,244,0,1,,,,,
,,424465,001,2023-07-31_20h42.57.847,arm3_eps,2022.2.5,MacIntel,59.99880002,616712249f8a8f034766cd47,64c7fed44a04f777bb1e18ce,64c8009def9a8395274c10cf,right,1,0.75,0.2429,30,0.064361135,0.7346,,,,,,245,0,245,0,1,,,,,
,,424465,001,2023-07-31_20h42.57.847,arm3_eps,2022.2.5,MacIntel,59.99880002,616712249f8a8f034766cd47,64c7fed44a04f777bb1e18ce,64c8009def9a8395274c10cf,up,-1,0.75,0.2429,31,0,1.6156,,,,,,246,0,246,0,1,,,,,
,,424465,001,2023-07-31_20h42.57.847,arm3_eps,2022.2.5,MacIntel,59.99880002,616712249f8a8f034766cd47,64c7fed44a04f777bb1e18ce,64c8009def9a8395274c10cf,right,-1,0.75,0.2429,31,0.025388368,0.68,,,,,,247,0,247,0,1,,,,,
,,424465,001,2023-07-31_20h42.57.847,arm3_eps,2022.2.5,MacIntel,59.99880002,616712249f8a8f034766cd47,64c7fed44a04f777bb1e18ce,64c8009def9a8395274c10cf,right,-1,0.75,0.2429,31,0.023827355,1.4657,,,,,,248,0,248,0,1,,,,,
