space_bar.keys,space_bar.rt,participant,session,date,expName,psychopyVersion,OS,frameRate,PROLIFIC_PID,STUDY_ID,SESSION_ID,resp.keys,state,q_prob,eps_prob,score,price,resp.rt,train.thisRepN,train.thisTrialN,train.thisN,train.thisIndex,train.ran,steps.thisRepN,steps.thisTrialN,steps.thisN,steps.thisIndex,steps.ran,blocks.thisRepN,blocks.thisTrialN,blocks.thisN,blocks.thisIndex,blocks.ran
space,55.1592,426822,001,2023-07-31_12h45.09.547,arm3_eps,2022.2.5,Win32,59.79430758,5fc8088906bd7a10c6eced41,64c7fed44a04f777bb1e18ce,64c80117a7ea0453df128367,,,,,,,,,,,,,,,,,,,,,,
space,4.1681,426822,001,2023-07-31_12h45.09.547,arm3_eps,2022.2.5,Win32,59.79430758,5fc8088906bd7a10c6eced41,64c7fed44a04f777bb1e18ce,64c80117a7ea0453df128367,,,,,,,,,,,,,,,,,,,,,,
space,24.8783,426822,001,2023-07-31_12h45.09.547,arm3_eps,2022.2.5,Win32,59.79430758,5fc8088906bd7a10c6eced41,64c7fed44a04f777bb1e18ce,64c80117a7ea0453df128367,,,,,,,,,,,,,,,,,,,,,,
space,15.1198,426822,001,2023-07-31_12h45.09.547,arm3_eps,2022.2.5,Win32,59.79430758,5fc8088906bd7a10c6eced41,64c7fed44a04f777bb1e18ce,64c80117a7ea0453df128367,,,,,,,,,,,,,,,,,,,,,,
space,28.3944,426822,001,2023-07-31_12h45.09.547,arm3_eps,2022.2.5,Win32,59.79430758,5fc8088906bd7a10c6eced41,64c7fed44a04f777bb1e18ce,64c80117a7ea0453df128367,,,,,,,,,,,,,,,,,,,,,,
space,9.1103,426822,001,2023-07-31_12h45.09.547,arm3_eps,2022.2.5,Win32,59.79430758,5fc8088906bd7a10c6eced41,64c7fed44a04f777bb1e18ce,64c80117a7ea0453df128367,,,,,,,,,,,,,,,,,,,,,,
space,2.2857,426822,001,2023-07-31_12h45.09.547,arm3_eps,2022.2.5,Win32,59.79430758,5fc8088906bd7a10c6eced41,64c7fed44a04f777bb1e18ce,64c80117a7ea0453df128367,,,,,,,,,,,,,,,,,,,,,,
,,426822,001,2023-07-31_12h45.09.547,arm3_eps,2022.2.5,Win32,59.79430758,5fc8088906bd7a10c6eced41,64c7fed44a04f777bb1e18ce,64c80117a7ea0453df128367,right,-1,1,0.2429,0,-0.034236143,2.9557,0,0,0,0,1,,,,,,,,,,
,,426822,001,2023-07-31_12h45.09.547,arm3_eps,2022.2.5,Win32,59.79430758,5fc8088906bd7a10c6eced41,64c7fed44a04f777bb1e18ce,64c80117a7ea0453df128367,right,-1,1,0.2429,0,-0.021927178,1.2381,1,0,1,0,1,,,,,,,,,,
,,426822,001,2023-07-31_12h45.09.547,arm3_eps,2022.2.5,Win32,59.79430758,5fc8088906bd7a10c6eced41,64c7fed44a04f777bb1e18ce,64c80117a7ea0453df128367,right,-1,1,0.2429,0,-0.001934143,1.7896,2,0,2,0,1,,,,,,,,,,
,,426822,001,2023-07-31_12h45.09.547,arm3_eps,2022.2.5,Win32,59.79430758,5fc8088906bd7a10c6eced41,64c7fed44a04f777bb1e18ce,64c80117a7ea0453df128367,right,-1,1,0.2429,0,0.013073462,0.3808,3,0,3,0,1,,,,,,,,,,
,,426822,001,2023-07-31_12h45.09.547,arm3_eps,2022.2.5,Win32,59.79430758,5fc8088906bd7a10c6eced41,64c7fed44a04f777bb1e18ce,64c80117a7ea0453df128367,right,-1,1,0.2429,0,-0.009242004,0.3185,4,0,4,0,1,,,,,,,,,,
,,426822,001,2023-07-31_12h45.09.547,arm3_eps,2022.2.5,Win32,59.79430758,5fc8088906bd7a10c6eced41,64c7fed44a04f777bb1e18ce,64c80117a7ea0453df128367,right,-1,1,0.2429,0,-0.029581872,0.2839,5,0,5,0,1,,,,,,,,,,
,,426822,001,2023-07-31_12h45.09.547,arm3_eps,2022.2.5,Win32,59.79430758,5fc8088906bd7a10c6eced41,64c7fed44a04f777bb1e18ce,64c80117a7ea0453df128367,right,-1,1,0.2429,0,-0.061263202,0.3101,6,0,6,0,1,,,,,,,,,,
,,426822,001,2023-07-31_12h45.09.547,arm3_eps,2022.2.5,Win32,59.79430758,5fc8088906bd7a10c6eced41,64c7fed44a04f777bb1e18ce,64c80117a7ea0453df128367,right,-1,1,0.2429,0,-0.043871313,0.335,7,0,7,0,1,,,,,,,,,,
,,426822,001,2023-07-31_12h45.09.547,arm3_eps,2022.2.5,Win32,59.79430758,5fc8088906bd7a10c6eced41,64c7fed44a04f777bb1e18ce,64c80117a7ea0453df128367,right,-1,1,0.2429,0,-0.033707818,0.3185,8,0,8,0,1,,,,,,,,,,
,,426822,001,2023-07-31_12h45.09.547,arm3_eps,2022.2.5,Win32,59.79430758,5fc8088906bd7a10c6eced41,64c7fed44a04f777bb1e18ce,64c80117a7ea0453df128367,right,-1,1,0.2429,0,-0.033787568,0.2568,9,0,9,0,1,,,,,,,,,,
,,426822,001,2023-07-31_12h45.09.547,arm3_eps,2022.2.5,Win32,59.79430758,5fc8088906bd7a10c6eced41,64c7fed44a04f777bb1e18ce,64c80117a7ea0453df128367,right,-1,1,0.2429,0,-0.052145513,0.3404,10,0,10,0,1,,,,,,,,,,
,,426822,001,2023-07-31_12h45.09.547,arm3_eps,2022.2.5,Win32,59.79430758,5fc8088906bd7a10c6eced41,64c7fed44a04f777bb1e18ce,64c80117a7ea0453df128367,right,-1,1,0.2429,0,-0.058713015,0.3882,11,0,11,0,1,,,,,,,,,,
,,426822,001,2023-07-31_12h45.09.547,arm3_eps,2022.2.5,Win32,59.79430758,5fc8088906bd7a10c6eced41,64c7fed44a04f777bb1e18ce,64c80117a7ea0453df128367,down,1,1,0.2429,1,0,5.0525,12,0,12,0,1,,,,,,,,,,
,,426822,001,2023-07-31_12h45.09.547,arm3_eps,2022.2.5,Win32,59.79430758,5fc8088906bd7a10c6eced41,64c7fed44a04f777bb1e18ce,64c80117a7ea0453df128367,right,1,1,0.2429,1,-0.0064155,2.4711,13,0,13,0,1,,,,,,,,,,
,,426822,001,2023-07-31_12h45.09.547,arm3_eps,2022.2.5,Win32,59.79430758,5fc8088906bd7a10c6eced41,64c7fed44a04f777bb1e18ce,64c80117a7ea0453df128367,right,1,1,0.2429,1,0.008196769,0.4569,14,0,14,0,1,,,,,,,,,,
,,426822,001,2023-07-31_12h45.09.547,arm3_eps,2022.2.5,Win32,59.79430758,5fc8088906bd7a10c6eced41,64c7fed44a04f777bb1e18ce,64c80117a7ea0453df128367,right,1,1,0.2429,1,0.003163228,0.3683,15,0,15,0,1,,,,,,,,,,
,,426822,001,2023-07-31_12h45.09.547,arm3_eps,2022.2.5,Win32,59.79430758,5fc8088906bd7a10c6eced41,64c7fed44a04f777bb1e18ce,64c80117a7ea0453df128367,right,1,1,0.2429,1,0.030343078,0.3349,16,0,16,0,1,,,,,,,,,,
,,426822,001,2023-07-31_12h45.09.547,arm3_eps,2022.2.5,Win32,59.79430758,5fc8088906bd7a10c6eced41,64c7fed44a04f777bb1e18ce,64c80117a7ea0453df128367,right,1,1,0.2429,1,0.029465361,0.3079,17,0,17,0,1,,,,,,,,,,
,,426822,001,2023-07-31_12h45.09.547,arm3_eps,2022.2.5,Win32,59.79430758,5fc8088906bd7a10c6eced41,64c7fed44a04f777bb1e18ce,64c80117a7ea0453df128367,right,1,1,0.2429,1,0.035122411,0.2777,18,0,18,0,1,,,,,,,,,,
,,426822,001,2023-07-31_12h45.09.547,arm3_eps,2022.2.5,Win32,59.79430758,5fc8088906bd7a10c6eced41,64c7fed44a04f777bb1e18ce,64c80117a7ea0453df128367,right,1,1,0.2429,1,0.031987431,0.2726,19,0,19,0,1,,,,,,,,,,
,,426822,001,2023-07-31_12h45.09.547,arm3_eps,2022.2.5,Win32,59.79430758,5fc8088906bd7a10c6eced41,64c7fed44a04f777bb1e18ce,64c80117a7ea0453df128367,right,1,1,0.2429,1,0.02344808,0.2593,20,0,20,0,1,,,,,,,,,,
,,426822,001,2023-07-31_12h45.09.547,arm3_eps,2022.2.5,Win32,59.79430758,5fc8088906bd7a10c6eced41,64c7fed44a04f777bb1e18ce,64c80117a7ea0453df128367,right,1,1,0.2429,1,0.039127341,0.307,21,0,21,0,1,,,,,,,,,,
,,426822,001,2023-07-31_12h45.09.547,arm3_eps,2022.2.5,Win32,59.79430758,5fc8088906bd7a10c6eced41,64c7fed44a04f777bb1e18ce,64c80117a7ea0453df128367,right,1,1,0.2429,1,0.064361022,0.3346,22,0,22,0,1,,,,,,,,,,
,,426822,001,2023-07-31_12h45.09.547,arm3_eps,2022.2.5,Win32,59.79430758,5fc8088906bd7a10c6eced41,64c7fed44a04f777bb1e18ce,64c80117a7ea0453df128367,right,1,1,0.2429,1,0.064968201,0.3025,23,0,23,0,1,,,,,,,,,,
,,426822,001,2023-07-31_12h45.09.547,arm3_eps,2022.2.5,Win32,59.79430758,5fc8088906bd7a10c6eced41,64c7fed44a04f777bb1e18ce,64c80117a7ea0453df128367,right,1,1,0.2429,1,0.085113884,0.3853,24,0,24,0,1,,,,,,,,,,
,,426822,001,2023-07-31_12h45.09.547,arm3_eps,2022.2.5,Win32,59.79430758,5fc8088906bd7a10c6eced41,64c7fed44a04f777bb1e18ce,64c80117a7ea0453df128367,up,-1,1,0.2429,2,0,1.7904,25,0,25,0,1,,,,,,,,,,
,,426822,001,2023-07-31_12h45.09.547,arm3_eps,2022.2.5,Win32,59.79430758,5fc8088906bd7a10c6eced41,64c7fed44a04f777bb1e18ce,64c80117a7ea0453df128367,right,-1,1,0.2429,2,5.57947E-05,1.8246,26,0,26,0,1,,,,,,,,,,
,,426822,001,2023-07-31_12h45.09.547,arm3_eps,2022.2.5,Win32,59.79430758,5fc8088906bd7a10c6eced41,64c7fed44a04f777bb1e18ce,64c80117a7ea0453df128367,right,-1,1,0.2429,2,0.049479703,0.3345,27,0,27,0,1,,,,,,,,,,
,,426822,001,2023-07-31_12h45.09.547,arm3_eps,2022.2.5,Win32,59.79430758,5fc8088906bd7a10c6eced41,64c7fed44a04f777bb1e18ce,64c80117a7ea0453df128367,right,-1,1,0.2429,2,0.043222123,0.2136,28,0,28,0,1,,,,,,,,,,
,,426822,001,2023-07-31_12h45.09.547,arm3_eps,2022.2.5,Win32,59.79430758,5fc8088906bd7a10c6eced41,64c7fed44a04f777bb1e18ce,64c80117a7ea0453df128367,right,-1,1,0.2429,2,0.034202817,0.1563,29,0,29,0,1,,,,,,,,,,
,,426822,001,2023-07-31_12h45.09.547,arm3_eps,2022.2.5,Win32,59.79430758,5fc8088906bd7a10c6eced41,64c7fed44a04f777bb1e18ce,64c80117a7ea0453df128367,right,-1,1,0.2429,2,0.027610084,0.1599,30,0,30,0,1,,,,,,,,,,
,,426822,001,2023-07-31_12h45.09.547,arm3_eps,2022.2.5,Win32,59.79430758,5fc8088906bd7a10c6eced41,64c7fed44a04f777bb1e18ce,64c80117a7ea0453df128367,right,-1,1,0.2429,2,0.037733265,0.1683,31,0,31,0,1,,,,,,,,,,
,,426822,001,2023-07-31_12h45.09.547,arm3_eps,2022.2.5,Win32,59.79430758,5fc8088906bd7a10c6eced41,64c7fed44a04f777bb1e18ce,64c80117a7ea0453df128367,right,-1,1,0.2429,2,0.040373536,0.1588,32,0,32,0,1,,,,,,,,,,
,,426822,001,2023-07-31_12h45.09.547,arm3_eps,2022.2.5,Win32,59.79430758,5fc8088906bd7a10c6eced41,64c7fed44a04f777bb1e18ce,64c80117a7ea0453df128367,right,-1,1,0.2429,2,0.05204948,0.1679,33,0,33,0,1,,,,,,,,,,
,,426822,001,2023-07-31_12h45.09.547,arm3_eps,2022.2.5,Win32,59.79430758,5fc8088906bd7a10c6eced41,64c7fed44a04f777bb1e18ce,64c80117a7ea0453df128367,right,-1,1,0.2429,2,0.039616493,0.151,34,0,34,0,1,,,,,,,,,,
,,426822,001,2023-07-31_12h45.09.547,arm3_eps,2022.2.5,Win32,59.79430758,5fc8088906bd7a10c6eced41,64c7fed44a04f777bb1e18ce,64c80117a7ea0453df128367,right,-1,1,0.2429,2,0.038891335,0.2022,35,0,35,0,1,,,,,,,,,,
,,426822,001,2023-07-31_12h45.09.547,arm3_eps,2022.2.5,Win32,59.79430758,5fc8088906bd7a10c6eced41,64c7fed44a04f777bb1e18ce,64c80117a7ea0453df128367,right,-1,1,0.2429,2,0.010882299,0.1674,36,0,36,0,1,,,,,,,,,,
,,426822,001,2023-07-31_12h45.09.547,arm3_eps,2022.2.5,Win32,59.79430758,5fc8088906bd7a10c6eced41,64c7fed44a04f777bb1e18ce,64c80117a7ea0453df128367,right,-1,1,0.2429,2,0.026790007,0.189,37,0,37,0,1,,,,,,,,,,
,,426822,001,2023-07-31_12h45.09.547,arm3_eps,2022.2.5,Win32,59.79430758,5fc8088906bd7a10c6eced41,64c7fed44a04f777bb1e18ce,64c80117a7ea0453df128367,down,-1,1,0.2429,3,0,5.8877,38,0,38,0,1,,,,,,,,,,
,,426822,001,2023-07-31_12h45.09.547,arm3_eps,2022.2.5,Win32,59.79430758,5fc8088906bd7a10c6eced41,64c7fed44a04f777bb1e18ce,64c80117a7ea0453df128367,right,-1,1,0.2429,3,-0.006937848,1.8298,39,0,39,0,1,,,,,,,,,,
,,426822,001,2023-07-31_12h45.09.547,arm3_eps,2022.2.5,Win32,59.79430758,5fc8088906bd7a10c6eced41,64c7fed44a04f777bb1e18ce,64c80117a7ea0453df128367,right,-1,1,0.2429,3,-0.029741116,0.2689,40,0,40,0,1,,,,,,,,,,
,,426822,001,2023-07-31_12h45.09.547,arm3_eps,2022.2.5,Win32,59.79430758,5fc8088906bd7a10c6eced41,64c7fed44a04f777bb1e18ce,64c80117a7ea0453df128367,right,-1,1,0.2429,3,-0.023482957,0.2483,41,0,41,0,1,,,,,,,,,,
,,426822,001,2023-07-31_12h45.09.547,arm3_eps,2022.2.5,Win32,59.79430758,5fc8088906bd7a10c6eced41,64c7fed44a04f777bb1e18ce,64c80117a7ea0453df128367,right,-1,1,0.2429,3,-0.084944063,0.2049,42,0,42,0,1,,,,,,,,,,
,,426822,001,2023-07-31_12h45.09.547,arm3_eps,2022.2.5,Win32,59.79430758,5fc8088906bd7a10c6eced41,64c7fed44a04f777bb1e18ce,64c80117a7ea0453df128367,right,-1,1,0.2429,3,-0.101966636,0.2119,43,0,43,0,1,,,,,,,,,,
,,426822,001,2023-07-31_12h45.09.547,arm3_eps,2022.2.5,Win32,59.79430758,5fc8088906bd7a10c6eced41,64c7fed44a04f777bb1e18ce,64c80117a7ea0453df128367,right,-1,1,0.2429,3,-0.108750845,0.195,44,0,44,0,1,,,,,,,,,,
,,426822,001,2023-07-31_12h45.09.547,arm3_eps,2022.2.5,Win32,59.79430758,5fc8088906bd7a10c6eced41,64c7fed44a04f777bb1e18ce,64c80117a7ea0453df128367,right,-1,1,0.2429,3,-0.120181083,0.2163,45,0,45,0,1,,,,,,,,,,
,,426822,001,2023-07-31_12h45.09.547,arm3_eps,2022.2.5,Win32,59.79430758,5fc8088906bd7a10c6eced41,64c7fed44a04f777bb1e18ce,64c80117a7ea0453df128367,right,-1,1,0.2429,3,-0.13321863,0.2121,46,0,46,0,1,,,,,,,,,,
,,426822,001,2023-07-31_12h45.09.547,arm3_eps,2022.2.5,Win32,59.79430758,5fc8088906bd7a10c6eced41,64c7fed44a04f777bb1e18ce,64c80117a7ea0453df128367,right,-1,1,0.2429,3,-0.120965813,0.1841,47,0,47,0,1,,,,,,,,,,
,,426822,001,2023-07-31_12h45.09.547,arm3_eps,2022.2.5,Win32,59.79430758,5fc8088906bd7a10c6eced41,64c7fed44a04f777bb1e18ce,64c80117a7ea0453df128367,right,-1,1,0.2429,3,-0.158800658,0.2672,48,0,48,0,1,,,,,,,,,,
,,426822,001,2023-07-31_12h45.09.547,arm3_eps,2022.2.5,Win32,59.79430758,5fc8088906bd7a10c6eced41,64c7fed44a04f777bb1e18ce,64c80117a7ea0453df128367,right,-1,1,0.2429,3,-0.164984521,0.2474,49,0,49,0,1,,,,,,,,,,
space,22.9056,426822,001,2023-07-31_12h45.09.547,arm3_eps,2022.2.5,Win32,59.79430758,5fc8088906bd7a10c6eced41,64c7fed44a04f777bb1e18ce,64c80117a7ea0453df128367,,,,,,,,,,,,,,,,,,,,,,
space,12.6822,426822,001,2023-07-31_12h45.09.547,arm3_eps,2022.2.5,Win32,59.79430758,5fc8088906bd7a10c6eced41,64c7fed44a04f777bb1e18ce,64c80117a7ea0453df128367,,,,,,,,,,,,,,,,,,,,,,
space,15.0623,426822,001,2023-07-31_12h45.09.547,arm3_eps,2022.2.5,Win32,59.79430758,5fc8088906bd7a10c6eced41,64c7fed44a04f777bb1e18ce,64c80117a7ea0453df128367,,,,,,,,,,,,,,,,,,,,,,
space,11.3329,426822,001,2023-07-31_12h45.09.547,arm3_eps,2022.2.5,Win32,59.79430758,5fc8088906bd7a10c6eced41,64c7fed44a04f777bb1e18ce,64c80117a7ea0453df128367,,,,,,,,,,,,,,,,,,,,,,
space,16.3728,426822,001,2023-07-31_12h45.09.547,arm3_eps,2022.2.5,Win32,59.79430758,5fc8088906bd7a10c6eced41,64c7fed44a04f777bb1e18ce,64c80117a7ea0453df128367,,,,,,,,,,,,,,,,,,,,,,
space,1.7148,426822,001,2023-07-31_12h45.09.547,arm3_eps,2022.2.5,Win32,59.79430758,5fc8088906bd7a10c6eced41,64c7fed44a04f777bb1e18ce,64c80117a7ea0453df128367,,,,,,,,,,,,,,,,,,,,,,
,,426822,001,2023-07-31_12h45.09.547,arm3_eps,2022.2.5,Win32,59.79430758,5fc8088906bd7a10c6eced41,64c7fed44a04f777bb1e18ce,64c80117a7ea0453df128367,right,-1,0.75,0.2429,0,-0.005515881,1.7012,0,0,0,0,1,,,,,,,,,,
,,426822,001,2023-07-31_12h45.09.547,arm3_eps,2022.2.5,Win32,59.79430758,5fc8088906bd7a10c6eced41,64c7fed44a04f777bb1e18ce,64c80117a7ea0453df128367,right,-1,0.75,0.2429,0,-0.041997408,0.7785,1,0,1,0,1,,,,,,,,,,
,,426822,001,2023-07-31_12h45.09.547,arm3_eps,2022.2.5,Win32,59.79430758,5fc8088906bd7a10c6eced41,64c7fed44a04f777bb1e18ce,64c80117a7ea0453df128367,right,-1,0.75,0.2429,0,-0.033829646,0.7384,2,0,2,0,1,,,,,,,,,,
,,426822,001,2023-07-31_12h45.09.547,arm3_eps,2022.2.5,Win32,59.79430758,5fc8088906bd7a10c6eced41,64c7fed44a04f777bb1e18ce,64c80117a7ea0453df128367,down,-1,0.75,0.2429,0,0,1.5945,3,0,3,0,1,,,,,,,,,,
,,426822,001,2023-07-31_12h45.09.547,arm3_eps,2022.2.5,Win32,59.79430758,5fc8088906bd7a10c6eced41,64c7fed44a04f777bb1e18ce,64c80117a7ea0453df128367,right,-1,0.75,0.2429,0,-0.013303008,1.73,4,0,4,0,1,,,,,,,,,,
,,426822,001,2023-07-31_12h45.09.547,arm3_eps,2022.2.5,Win32,59.79430758,5fc8088906bd7a10c6eced41,64c7fed44a04f777bb1e18ce,64c80117a7ea0453df128367,right,-1,0.75,0.2429,0,-0.008812289,0.5178,5,0,5,0,1,,,,,,,,,,
,,426822,001,2023-07-31_12h45.09.547,arm3_eps,2022.2.5,Win32,59.79430758,5fc8088906bd7a10c6eced41,64c7fed44a04f777bb1e18ce,64c80117a7ea0453df128367,right,-1,0.75,0.2429,0,-0.039874572,0.4707,6,0,6,0,1,,,,,,,,,,
,,426822,001,2023-07-31_12h45.09.547,arm3_eps,2022.2.5,Win32,59.79430758,5fc8088906bd7a10c6eced41,64c7fed44a04f777bb1e18ce,64c80117a7ea0453df128367,right,-1,0.75,0.2429,0,-0.040074812,0.419,7,0,7,0,1,,,,,,,,,,
,,426822,001,2023-07-31_12h45.09.547,arm3_eps,2022.2.5,Win32,59.79430758,5fc8088906bd7a10c6eced41,64c7fed44a04f777bb1e18ce,64c80117a7ea0453df128367,down,1,0.75,0.2429,1,0,1.1097,8,0,8,0,1,,,,,,,,,,
,,426822,001,2023-07-31_12h45.09.547,arm3_eps,2022.2.5,Win32,59.79430758,5fc8088906bd7a10c6eced41,64c7fed44a04f777bb1e18ce,64c80117a7ea0453df128367,right,1,0.75,0.2429,1,-0.014940143,1.3718,9,0,9,0,1,,,,,,,,,,
,,426822,001,2023-07-31_12h45.09.547,arm3_eps,2022.2.5,Win32,59.79430758,5fc8088906bd7a10c6eced41,64c7fed44a04f777bb1e18ce,64c80117a7ea0453df128367,right,1,0.75,0.2429,1,0.009725438,0.4676,10,0,10,0,1,,,,,,,,,,
,,426822,001,2023-07-31_12h45.09.547,arm3_eps,2022.2.5,Win32,59.79430758,5fc8088906bd7a10c6eced41,64c7fed44a04f777bb1e18ce,64c80117a7ea0453df128367,right,1,0.75,0.2429,1,0.043791867,0.4684,11,0,11,0,1,,,,,,,,,,
,,426822,001,2023-07-31_12h45.09.547,arm3_eps,2022.2.5,Win32,59.79430758,5fc8088906bd7a10c6eced41,64c7fed44a04f777bb1e18ce,64c80117a7ea0453df128367,right,1,0.75,0.2429,1,0.019285493,1.1038,12,0,12,0,1,,,,,,,,,,
,,426822,001,2023-07-31_12h45.09.547,arm3_eps,2022.2.5,Win32,59.79430758,5fc8088906bd7a10c6eced41,64c7fed44a04f777bb1e18ce,64c80117a7ea0453df128367,up,1,0.75,0.2429,1,0,1.1044,13,0,13,0,1,,,,,,,,,,
,,426822,001,2023-07-31_12h45.09.547,arm3_eps,2022.2.5,Win32,59.79430758,5fc8088906bd7a10c6eced41,64c7fed44a04f777bb1e18ce,64c80117a7ea0453df128367,right,1,0.75,0.2429,1,0.006834829,4.2187,14,0,14,0,1,,,,,,,,,,
,,426822,001,2023-07-31_12h45.09.547,arm3_eps,2022.2.5,Win32,59.79430758,5fc8088906bd7a10c6eced41,64c7fed44a04f777bb1e18ce,64c80117a7ea0453df128367,right,1,0.75,0.2429,1,0.019967653,0.3947,15,0,15,0,1,,,,,,,,,,
,,426822,001,2023-07-31_12h45.09.547,arm3_eps,2022.2.5,Win32,59.79430758,5fc8088906bd7a10c6eced41,64c7fed44a04f777bb1e18ce,64c80117a7ea0453df128367,right,1,0.75,0.2429,1,0.012587414,0.3686,16,0,16,0,1,,,,,,,,,,
,,426822,001,2023-07-31_12h45.09.547,arm3_eps,2022.2.5,Win32,59.79430758,5fc8088906bd7a10c6eced41,64c7fed44a04f777bb1e18ce,64c80117a7ea0453df128367,right,1,0.75,0.2429,1,0.006230603,0.3839,17,0,17,0,1,,,,,,,,,,
,,426822,001,2023-07-31_12h45.09.547,arm3_eps,2022.2.5,Win32,59.79430758,5fc8088906bd7a10c6eced41,64c7fed44a04f777bb1e18ce,64c80117a7ea0453df128367,down,1,0.75,0.2429,0,0,1.6616,18,0,18,0,1,,,,,,,,,,
,,426822,001,2023-07-31_12h45.09.547,arm3_eps,2022.2.5,Win32,59.79430758,5fc8088906bd7a10c6eced41,64c7fed44a04f777bb1e18ce,64c80117a7ea0453df128367,right,1,0.75,0.2429,0,-0.00456878,1.4388,19,0,19,0,1,,,,,,,,,,
,,426822,001,2023-07-31_12h45.09.547,arm3_eps,2022.2.5,Win32,59.79430758,5fc8088906bd7a10c6eced41,64c7fed44a04f777bb1e18ce,64c80117a7ea0453df128367,right,1,0.75,0.2429,0,0.015900011,0.3848,20,0,20,0,1,,,,,,,,,,
,,426822,001,2023-07-31_12h45.09.547,arm3_eps,2022.2.5,Win32,59.79430758,5fc8088906bd7a10c6eced41,64c7fed44a04f777bb1e18ce,64c80117a7ea0453df128367,right,1,0.75,0.2429,0,0.010001378,0.3232,21,0,21,0,1,,,,,,,,,,
,,426822,001,2023-07-31_12h45.09.547,arm3_eps,2022.2.5,Win32,59.79430758,5fc8088906bd7a10c6eced41,64c7fed44a04f777bb1e18ce,64c80117a7ea0453df128367,right,1,0.75,0.2429,0,0.023277042,0.3806,22,0,22,0,1,,,,,,,,,,
,,426822,001,2023-07-31_12h45.09.547,arm3_eps,2022.2.5,Win32,59.79430758,5fc8088906bd7a10c6eced41,64c7fed44a04f777bb1e18ce,64c80117a7ea0453df128367,right,1,0.75,0.2429,0,0.022960105,0.3636,23,0,23,0,1,,,,,,,,,,
,,426822,001,2023-07-31_12h45.09.547,arm3_eps,2022.2.5,Win32,59.79430758,5fc8088906bd7a10c6eced41,64c7fed44a04f777bb1e18ce,64c80117a7ea0453df128367,up,1,0.75,0.2429,1,0,2.2655,24,0,24,0,1,,,,,,,,,,
,,426822,001,2023-07-31_12h45.09.547,arm3_eps,2022.2.5,Win32,59.79430758,5fc8088906bd7a10c6eced41,64c7fed44a04f777bb1e18ce,64c80117a7ea0453df128367,right,1,0.75,0.2429,1,0.028797395,1.1821,25,0,25,0,1,,,,,,,,,,
,,426822,001,2023-07-31_12h45.09.547,arm3_eps,2022.2.5,Win32,59.79430758,5fc8088906bd7a10c6eced41,64c7fed44a04f777bb1e18ce,64c80117a7ea0453df128367,right,1,0.75,0.2429,1,0.006132932,0.3849,26,0,26,0,1,,,,,,,,,,
,,426822,001,2023-07-31_12h45.09.547,arm3_eps,2022.2.5,Win32,59.79430758,5fc8088906bd7a10c6eced41,64c7fed44a04f777bb1e18ce,64c80117a7ea0453df128367,right,1,0.75,0.2429,1,0.027041654,0.8866,27,0,27,0,1,,,,,,,,,,
,,426822,001,2023-07-31_12h45.09.547,arm3_eps,2022.2.5,Win32,59.79430758,5fc8088906bd7a10c6eced41,64c7fed44a04f777bb1e18ce,64c80117a7ea0453df128367,up,1,0.75,0.2429,2,0,0.9622,28,0,28,0,1,,,,,,,,,,
,,426822,001,2023-07-31_12h45.09.547,arm3_eps,2022.2.5,Win32,59.79430758,5fc8088906bd7a10c6eced41,64c7fed44a04f777bb1e18ce,64c80117a7ea0453df128367,right,1,0.75,0.2429,2,0.049636552,1.2211,29,0,29,0,1,,,,,,,,,,
,,426822,001,2023-07-31_12h45.09.547,arm3_eps,2022.2.5,Win32,59.79430758,5fc8088906bd7a10c6eced41,64c7fed44a04f777bb1e18ce,64c80117a7ea0453df128367,right,1,0.75,0.2429,2,0.070924395,0.4093,30,0,30,0,1,,,,,,,,,,
,,426822,001,2023-07-31_12h45.09.547,arm3_eps,2022.2.5,Win32,59.79430758,5fc8088906bd7a10c6eced41,64c7fed44a04f777bb1e18ce,64c80117a7ea0453df128367,right,1,0.75,0.2429,2,0.079624859,0.669,31,0,31,0,1,,,,,,,,,,
,,426822,001,2023-07-31_12h45.09.547,arm3_eps,2022.2.5,Win32,59.79430758,5fc8088906bd7a10c6eced41,64c7fed44a04f777bb1e18ce,64c80117a7ea0453df128367,right,1,0.75,0.2429,2,0.086499028,1.1042,32,0,32,0,1,,,,,,,,,,
,,426822,001,2023-07-31_12h45.09.547,arm3_eps,2022.2.5,Win32,59.79430758,5fc8088906bd7a10c6eced41,64c7fed44a04f777bb1e18ce,64c80117a7ea0453df128367,up,-1,0.75,0.2429,3,0,0.5602,33,0,33,0,1,,,,,,,,,,
,,426822,001,2023-07-31_12h45.09.547,arm3_eps,2022.2.5,Win32,59.79430758,5fc8088906bd7a10c6eced41,64c7fed44a04f777bb1e18ce,64c80117a7ea0453df128367,right,-1,0.75,0.2429,3,0.021659875,1.0658,34,0,34,0,1,,,,,,,,,,
,,426822,001,2023-07-31_12h45.09.547,arm3_eps,2022.2.5,Win32,59.79430758,5fc8088906bd7a10c6eced41,64c7fed44a04f777bb1e18ce,64c80117a7ea0453df128367,right,-1,0.75,0.2429,3,0.031354058,0.3917,35,0,35,0,1,,,,,,,,,,
,,426822,001,2023-07-31_12h45.09.547,arm3_eps,2022.2.5,Win32,59.79430758,5fc8088906bd7a10c6eced41,64c7fed44a04f777bb1e18ce,64c80117a7ea0453df128367,down,-1,0.75,0.2429,3,0,1.3046,36,0,36,0,1,,,,,,,,,,
,,426822,001,2023-07-31_12h45.09.547,arm3_eps,2022.2.5,Win32,59.79430758,5fc8088906bd7a10c6eced41,64c7fed44a04f777bb1e18ce,64c80117a7ea0453df128367,right,-1,0.75,0.2429,3,0.005578432,1.3567,37,0,37,0,1,,,,,,,,,,
,,426822,001,2023-07-31_12h45.09.547,arm3_eps,2022.2.5,Win32,59.79430758,5fc8088906bd7a10c6eced41,64c7fed44a04f777bb1e18ce,64c80117a7ea0453df128367,right,-1,0.75,0.2429,3,-0.023082055,0.3399,38,0,38,0,1,,,,,,,,,,
,,426822,001,2023-07-31_12h45.09.547,arm3_eps,2022.2.5,Win32,59.79430758,5fc8088906bd7a10c6eced41,64c7fed44a04f777bb1e18ce,64c80117a7ea0453df128367,right,-1,0.75,0.2429,3,-0.050627055,0.4013,39,0,39,0,1,,,,,,,,,,
,,426822,001,2023-07-31_12h45.09.547,arm3_eps,2022.2.5,Win32,59.79430758,5fc8088906bd7a10c6eced41,64c7fed44a04f777bb1e18ce,64c80117a7ea0453df128367,down,1,0.75,0.2429,4,0,0.5364,40,0,40,0,1,,,,,,,,,,
,,426822,001,2023-07-31_12h45.09.547,arm3_eps,2022.2.5,Win32,59.79430758,5fc8088906bd7a10c6eced41,64c7fed44a04f777bb1e18ce,64c80117a7ea0453df128367,right,1,0.75,0.2429,4,0.041242753,1.0617,41,0,41,0,1,,,,,,,,,,
,,426822,001,2023-07-31_12h45.09.547,arm3_eps,2022.2.5,Win32,59.79430758,5fc8088906bd7a10c6eced41,64c7fed44a04f777bb1e18ce,64c80117a7ea0453df128367,right,1,0.75,0.2429,4,0.035071654,0.3415,42,0,42,0,1,,,,,,,,,,
,,426822,001,2023-07-31_12h45.09.547,arm3_eps,2022.2.5,Win32,59.79430758,5fc8088906bd7a10c6eced41,64c7fed44a04f777bb1e18ce,64c80117a7ea0453df128367,right,1,0.75,0.2429,4,0.014297208,0.3101,43,0,43,0,1,,,,,,,,,,
,,426822,001,2023-07-31_12h45.09.547,arm3_eps,2022.2.5,Win32,59.79430758,5fc8088906bd7a10c6eced41,64c7fed44a04f777bb1e18ce,64c80117a7ea0453df128367,down,-1,0.75,0.2429,4,0,0.6857,44,0,44,0,1,,,,,,,,,,
,,426822,001,2023-07-31_12h45.09.547,arm3_eps,2022.2.5,Win32,59.79430758,5fc8088906bd7a10c6eced41,64c7fed44a04f777bb1e18ce,64c80117a7ea0453df128367,right,-1,0.75,0.2429,4,-0.006719226,1.0253,45,0,45,0,1,,,,,,,,,,
,,426822,001,2023-07-31_12h45.09.547,arm3_eps,2022.2.5,Win32,59.79430758,5fc8088906bd7a10c6eced41,64c7fed44a04f777bb1e18ce,64c80117a7ea0453df128367,right,-1,0.75,0.2429,4,0.00397847,0.3678,46,0,46,0,1,,,,,,,,,,
,,426822,001,2023-07-31_12h45.09.547,arm3_eps,2022.2.5,Win32,59.79430758,5fc8088906bd7a10c6eced41,64c7fed44a04f777bb1e18ce,64c80117a7ea0453df128367,right,-1,0.75,0.2429,4,-0.022432037,0.2844,47,0,47,0,1,,,,,,,,,,
,,426822,001,2023-07-31_12h45.09.547,arm3_eps,2022.2.5,Win32,59.79430758,5fc8088906bd7a10c6eced41,64c7fed44a04f777bb1e18ce,64c80117a7ea0453df128367,right,-1,0.75,0.2429,4,-0.035943146,0.3895,48,0,48,0,1,,,,,,,,,,
,,426822,001,2023-07-31_12h45.09.547,arm3_eps,2022.2.5,Win32,59.79430758,5fc8088906bd7a10c6eced41,64c7fed44a04f777bb1e18ce,64c80117a7ea0453df128367,down,-1,0.75,0.2429,4,-0.035943146,0.5243,49,0,49,0,1,,,,,,,,,,
space,14.2958,426822,001,2023-07-31_12h45.09.547,arm3_eps,2022.2.5,Win32,59.79430758,5fc8088906bd7a10c6eced41,64c7fed44a04f777bb1e18ce,64c80117a7ea0453df128367,,,,,,,,,,,,,,,,,,,,,,
space,23.5113,426822,001,2023-07-31_12h45.09.547,arm3_eps,2022.2.5,Win32,59.79430758,5fc8088906bd7a10c6eced41,64c7fed44a04f777bb1e18ce,64c80117a7ea0453df128367,,,,,,,,,,,,,,,,,,,,,,
space,1.272,426822,001,2023-07-31_12h45.09.547,arm3_eps,2022.2.5,Win32,59.79430758,5fc8088906bd7a10c6eced41,64c7fed44a04f777bb1e18ce,64c80117a7ea0453df128367,,,,,,,,,,,,,,,,,,,,,,
,,426822,001,2023-07-31_12h45.09.547,arm3_eps,2022.2.5,Win32,59.79430758,5fc8088906bd7a10c6eced41,64c7fed44a04f777bb1e18ce,64c80117a7ea0453df128367,right,-1,0.75,0.05,0,0.001688477,2.6399,0,0,0,0,1,,,,,,,,,,
,,426822,001,2023-07-31_12h45.09.547,arm3_eps,2022.2.5,Win32,59.79430758,5fc8088906bd7a10c6eced41,64c7fed44a04f777bb1e18ce,64c80117a7ea0453df128367,right,-1,0.75,0.05,0,0.010282106,0.4262,1,0,1,0,1,,,,,,,,,,
,,426822,001,2023-07-31_12h45.09.547,arm3_eps,2022.2.5,Win32,59.79430758,5fc8088906bd7a10c6eced41,64c7fed44a04f777bb1e18ce,64c80117a7ea0453df128367,right,-1,0.75,0.05,0,0.015385877,0.5105,2,0,2,0,1,,,,,,,,,,
,,426822,001,2023-07-31_12h45.09.547,arm3_eps,2022.2.5,Win32,59.79430758,5fc8088906bd7a10c6eced41,64c7fed44a04f777bb1e18ce,64c80117a7ea0453df128367,down,1,0.75,0.05,0,0,0.8222,3,0,3,0,1,,,,,,,,,,
,,426822,001,2023-07-31_12h45.09.547,arm3_eps,2022.2.5,Win32,59.79430758,5fc8088906bd7a10c6eced41,64c7fed44a04f777bb1e18ce,64c80117a7ea0453df128367,right,1,0.75,0.05,0,0.012118042,1.3858,4,0,4,0,1,,,,,,,,,,
,,426822,001,2023-07-31_12h45.09.547,arm3_eps,2022.2.5,Win32,59.79430758,5fc8088906bd7a10c6eced41,64c7fed44a04f777bb1e18ce,64c80117a7ea0453df128367,right,1,0.75,0.05,0,0.004040859,0.351,5,0,5,0,1,,,,,,,,,,
,,426822,001,2023-07-31_12h45.09.547,arm3_eps,2022.2.5,Win32,59.79430758,5fc8088906bd7a10c6eced41,64c7fed44a04f777bb1e18ce,64c80117a7ea0453df128367,right,1,0.75,0.05,0,0.010101516,0.3514,6,0,6,0,1,,,,,,,,,,
,,426822,001,2023-07-31_12h45.09.547,arm3_eps,2022.2.5,Win32,59.79430758,5fc8088906bd7a10c6eced41,64c7fed44a04f777bb1e18ce,64c80117a7ea0453df128367,right,1,0.75,0.05,0,0.009705224,0.435,7,0,7,0,1,,,,,,,,,,
,,426822,001,2023-07-31_12h45.09.547,arm3_eps,2022.2.5,Win32,59.79430758,5fc8088906bd7a10c6eced41,64c7fed44a04f777bb1e18ce,64c80117a7ea0453df128367,up,1,0.75,0.05,0,0,1.0875,8,0,8,0,1,,,,,,,,,,
,,426822,001,2023-07-31_12h45.09.547,arm3_eps,2022.2.5,Win32,59.79430758,5fc8088906bd7a10c6eced41,64c7fed44a04f777bb1e18ce,64c80117a7ea0453df128367,right,1,0.75,0.05,0,-0.022091768,1.4711,9,0,9,0,1,,,,,,,,,,
,,426822,001,2023-07-31_12h45.09.547,arm3_eps,2022.2.5,Win32,59.79430758,5fc8088906bd7a10c6eced41,64c7fed44a04f777bb1e18ce,64c80117a7ea0453df128367,right,1,0.75,0.05,0,-0.031293972,0.2845,10,0,10,0,1,,,,,,,,,,
,,426822,001,2023-07-31_12h45.09.547,arm3_eps,2022.2.5,Win32,59.79430758,5fc8088906bd7a10c6eced41,64c7fed44a04f777bb1e18ce,64c80117a7ea0453df128367,right,1,0.75,0.05,0,-0.00151813,0.352,11,0,11,0,1,,,,,,,,,,
,,426822,001,2023-07-31_12h45.09.547,arm3_eps,2022.2.5,Win32,59.79430758,5fc8088906bd7a10c6eced41,64c7fed44a04f777bb1e18ce,64c80117a7ea0453df128367,right,1,0.75,0.05,0,0.006888529,0.3686,12,0,12,0,1,,,,,,,,,,
,,426822,001,2023-07-31_12h45.09.547,arm3_eps,2022.2.5,Win32,59.79430758,5fc8088906bd7a10c6eced41,64c7fed44a04f777bb1e18ce,64c80117a7ea0453df128367,right,1,0.75,0.05,0,0.038785982,0.3877,13,0,13,0,1,,,,,,,,,,
,,426822,001,2023-07-31_12h45.09.547,arm3_eps,2022.2.5,Win32,59.79430758,5fc8088906bd7a10c6eced41,64c7fed44a04f777bb1e18ce,64c80117a7ea0453df128367,right,1,0.75,0.05,0,0.014406479,0.6022,14,0,14,0,1,,,,,,,,,,
,,426822,001,2023-07-31_12h45.09.547,arm3_eps,2022.2.5,Win32,59.79430758,5fc8088906bd7a10c6eced41,64c7fed44a04f777bb1e18ce,64c80117a7ea0453df128367,right,1,0.75,0.05,0,-0.001947344,0.3516,15,0,15,0,1,,,,,,,,,,
,,426822,001,2023-07-31_12h45.09.547,arm3_eps,2022.2.5,Win32,59.79430758,5fc8088906bd7a10c6eced41,64c7fed44a04f777bb1e18ce,64c80117a7ea0453df128367,up,1,0.75,0.05,1,0,0.67,16,0,16,0,1,,,,,,,,,,
,,426822,001,2023-07-31_12h45.09.547,arm3_eps,2022.2.5,Win32,59.79430758,5fc8088906bd7a10c6eced41,64c7fed44a04f777bb1e18ce,64c80117a7ea0453df128367,right,1,0.75,0.05,1,0.03842826,1.2358,17,0,17,0,1,,,,,,,,,,
,,426822,001,2023-07-31_12h45.09.547,arm3_eps,2022.2.5,Win32,59.79430758,5fc8088906bd7a10c6eced41,64c7fed44a04f777bb1e18ce,64c80117a7ea0453df128367,right,1,0.75,0.05,1,0.067013108,0.4188,18,0,18,0,1,,,,,,,,,,
,,426822,001,2023-07-31_12h45.09.547,arm3_eps,2022.2.5,Win32,59.79430758,5fc8088906bd7a10c6eced41,64c7fed44a04f777bb1e18ce,64c80117a7ea0453df128367,right,1,0.75,0.05,1,0.074128772,0.4186,19,0,19,0,1,,,,,,,,,,
,,426822,001,2023-07-31_12h45.09.547,arm3_eps,2022.2.5,Win32,59.79430758,5fc8088906bd7a10c6eced41,64c7fed44a04f777bb1e18ce,64c80117a7ea0453df128367,right,1,0.75,0.05,1,0.077771897,0.5023,20,0,20,0,1,,,,,,,,,,
,,426822,001,2023-07-31_12h45.09.547,arm3_eps,2022.2.5,Win32,59.79430758,5fc8088906bd7a10c6eced41,64c7fed44a04f777bb1e18ce,64c80117a7ea0453df128367,up,1,0.75,0.05,2,0,0.4012,21,0,21,0,1,,,,,,,,,,
,,426822,001,2023-07-31_12h45.09.547,arm3_eps,2022.2.5,Win32,59.79430758,5fc8088906bd7a10c6eced41,64c7fed44a04f777bb1e18ce,64c80117a7ea0453df128367,right,1,0.75,0.05,2,-0.009049454,1.1547,22,0,22,0,1,,,,,,,,,,
,,426822,001,2023-07-31_12h45.09.547,arm3_eps,2022.2.5,Win32,59.79430758,5fc8088906bd7a10c6eced41,64c7fed44a04f777bb1e18ce,64c80117a7ea0453df128367,right,1,0.75,0.05,2,0.015790922,0.3701,23,0,23,0,1,,,,,,,,,,
,,426822,001,2023-07-31_12h45.09.547,arm3_eps,2022.2.5,Win32,59.79430758,5fc8088906bd7a10c6eced41,64c7fed44a04f777bb1e18ce,64c80117a7ea0453df128367,right,1,0.75,0.05,2,0.015283245,0.4017,24,0,24,0,1,,,,,,,,,,
,,426822,001,2023-07-31_12h45.09.547,arm3_eps,2022.2.5,Win32,59.79430758,5fc8088906bd7a10c6eced41,64c7fed44a04f777bb1e18ce,64c80117a7ea0453df128367,up,1,0.75,0.05,3,0,0.7034,25,0,25,0,1,,,,,,,,,,
,,426822,001,2023-07-31_12h45.09.547,arm3_eps,2022.2.5,Win32,59.79430758,5fc8088906bd7a10c6eced41,64c7fed44a04f777bb1e18ce,64c80117a7ea0453df128367,right,1,0.75,0.05,3,0.047250899,1.064,26,0,26,0,1,,,,,,,,,,
,,426822,001,2023-07-31_12h45.09.547,arm3_eps,2022.2.5,Win32,59.79430758,5fc8088906bd7a10c6eced41,64c7fed44a04f777bb1e18ce,64c80117a7ea0453df128367,right,1,0.75,0.05,3,0.070245136,0.3852,27,0,27,0,1,,,,,,,,,,
,,426822,001,2023-07-31_12h45.09.547,arm3_eps,2022.2.5,Win32,59.79430758,5fc8088906bd7a10c6eced41,64c7fed44a04f777bb1e18ce,64c80117a7ea0453df128367,right,1,0.75,0.05,3,0.086122304,0.3684,28,0,28,0,1,,,,,,,,,,
,,426822,001,2023-07-31_12h45.09.547,arm3_eps,2022.2.5,Win32,59.79430758,5fc8088906bd7a10c6eced41,64c7fed44a04f777bb1e18ce,64c80117a7ea0453df128367,up,1,0.75,0.05,4,0,0.5528,29,0,29,0,1,,,,,,,,,,
,,426822,001,2023-07-31_12h45.09.547,arm3_eps,2022.2.5,Win32,59.79430758,5fc8088906bd7a10c6eced41,64c7fed44a04f777bb1e18ce,64c80117a7ea0453df128367,right,1,0.75,0.05,4,0.021649748,1.0179,30,0,30,0,1,,,,,,,,,,
,,426822,001,2023-07-31_12h45.09.547,arm3_eps,2022.2.5,Win32,59.79430758,5fc8088906bd7a10c6eced41,64c7fed44a04f777bb1e18ce,64c80117a7ea0453df128367,right,1,0.75,0.05,4,0.057558868,0.419,31,0,31,0,1,,,,,,,,,,
,,426822,001,2023-07-31_12h45.09.547,arm3_eps,2022.2.5,Win32,59.79430758,5fc8088906bd7a10c6eced41,64c7fed44a04f777bb1e18ce,64c80117a7ea0453df128367,right,1,0.75,0.05,4,0.067659935,0.3676,32,0,32,0,1,,,,,,,,,,
,,426822,001,2023-07-31_12h45.09.547,arm3_eps,2022.2.5,Win32,59.79430758,5fc8088906bd7a10c6eced41,64c7fed44a04f777bb1e18ce,64c80117a7ea0453df128367,right,1,0.75,0.05,4,0.057987266,0.987,33,0,33,0,1,,,,,,,,,,
,,426822,001,2023-07-31_12h45.09.547,arm3_eps,2022.2.5,Win32,59.79430758,5fc8088906bd7a10c6eced41,64c7fed44a04f777bb1e18ce,64c80117a7ea0453df128367,up,1,0.75,0.05,5,0,1.7939,34,0,34,0,1,,,,,,,,,,
,,426822,001,2023-07-31_12h45.09.547,arm3_eps,2022.2.5,Win32,59.79430758,5fc8088906bd7a10c6eced41,64c7fed44a04f777bb1e18ce,64c80117a7ea0453df128367,right,1,0.75,0.05,5,-0.004988709,0.9938,35,0,35,0,1,,,,,,,,,,
,,426822,001,2023-07-31_12h45.09.547,arm3_eps,2022.2.5,Win32,59.79430758,5fc8088906bd7a10c6eced41,64c7fed44a04f777bb1e18ce,64c80117a7ea0453df128367,right,1,0.75,0.05,5,0.014794684,0.3686,36,0,36,0,1,,,,,,,,,,
,,426822,001,2023-07-31_12h45.09.547,arm3_eps,2022.2.5,Win32,59.79430758,5fc8088906bd7a10c6eced41,64c7fed44a04f777bb1e18ce,64c80117a7ea0453df128367,right,1,0.75,0.05,5,0.031932931,0.3346,37,0,37,0,1,,,,,,,,,,
,,426822,001,2023-07-31_12h45.09.547,arm3_eps,2022.2.5,Win32,59.79430758,5fc8088906bd7a10c6eced41,64c7fed44a04f777bb1e18ce,64c80117a7ea0453df128367,right,1,0.75,0.05,5,0.04706751,0.3684,38,0,38,0,1,,,,,,,,,,
,,426822,001,2023-07-31_12h45.09.547,arm3_eps,2022.2.5,Win32,59.79430758,5fc8088906bd7a10c6eced41,64c7fed44a04f777bb1e18ce,64c80117a7ea0453df128367,up,1,0.75,0.05,6,0,0.3849,39,0,39,0,1,,,,,,,,,,
,,426822,001,2023-07-31_12h45.09.547,arm3_eps,2022.2.5,Win32,59.79430758,5fc8088906bd7a10c6eced41,64c7fed44a04f777bb1e18ce,64c80117a7ea0453df128367,right,1,0.75,0.05,6,0.003233286,1.7213,40,0,40,0,1,,,,,,,,,,
,,426822,001,2023-07-31_12h45.09.547,arm3_eps,2022.2.5,Win32,59.79430758,5fc8088906bd7a10c6eced41,64c7fed44a04f777bb1e18ce,64c80117a7ea0453df128367,right,1,0.75,0.05,6,0.031495103,0.4524,41,0,41,0,1,,,,,,,,,,
,,426822,001,2023-07-31_12h45.09.547,arm3_eps,2022.2.5,Win32,59.79430758,5fc8088906bd7a10c6eced41,64c7fed44a04f777bb1e18ce,64c80117a7ea0453df128367,right,1,0.75,0.05,6,0.036914562,0.4184,42,0,42,0,1,,,,,,,,,,
,,426822,001,2023-07-31_12h45.09.547,arm3_eps,2022.2.5,Win32,59.79430758,5fc8088906bd7a10c6eced41,64c7fed44a04f777bb1e18ce,64c80117a7ea0453df128367,up,1,0.75,0.05,7,0,0.4848,43,0,43,0,1,,,,,,,,,,
,,426822,001,2023-07-31_12h45.09.547,arm3_eps,2022.2.5,Win32,59.79430758,5fc8088906bd7a10c6eced41,64c7fed44a04f777bb1e18ce,64c80117a7ea0453df128367,right,1,0.75,0.05,7,0.022119231,0.9852,44,0,44,0,1,,,,,,,,,,
,,426822,001,2023-07-31_12h45.09.547,arm3_eps,2022.2.5,Win32,59.79430758,5fc8088906bd7a10c6eced41,64c7fed44a04f777bb1e18ce,64c80117a7ea0453df128367,right,1,0.75,0.05,7,0.030203982,0.3217,45,0,45,0,1,,,,,,,,,,
,,426822,001,2023-07-31_12h45.09.547,arm3_eps,2022.2.5,Win32,59.79430758,5fc8088906bd7a10c6eced41,64c7fed44a04f777bb1e18ce,64c80117a7ea0453df128367,right,1,0.75,0.05,7,0.050924252,0.5191,46,0,46,0,1,,,,,,,,,,
,,426822,001,2023-07-31_12h45.09.547,arm3_eps,2022.2.5,Win32,59.79430758,5fc8088906bd7a10c6eced41,64c7fed44a04f777bb1e18ce,64c80117a7ea0453df128367,right,1,0.75,0.05,7,0.042893053,0.9039,47,0,47,0,1,,,,,,,,,,
,,426822,001,2023-07-31_12h45.09.547,arm3_eps,2022.2.5,Win32,59.79430758,5fc8088906bd7a10c6eced41,64c7fed44a04f777bb1e18ce,64c80117a7ea0453df128367,up,1,0.75,0.05,8,0,0.4353,48,0,48,0,1,,,,,,,,,,
,,426822,001,2023-07-31_12h45.09.547,arm3_eps,2022.2.5,Win32,59.79430758,5fc8088906bd7a10c6eced41,64c7fed44a04f777bb1e18ce,64c80117a7ea0453df128367,right,1,0.75,0.05,8,-0.018497242,1.0515,49,0,49,0,1,,,,,,,,,,
space,12.5895,426822,001,2023-07-31_12h45.09.547,arm3_eps,2022.2.5,Win32,59.79430758,5fc8088906bd7a10c6eced41,64c7fed44a04f777bb1e18ce,64c80117a7ea0453df128367,,,,,,,,,,,,,,,,,,,,,,
space,0.8712,426822,001,2023-07-31_12h45.09.547,arm3_eps,2022.2.5,Win32,59.79430758,5fc8088906bd7a10c6eced41,64c7fed44a04f777bb1e18ce,64c80117a7ea0453df128367,,,,,,,,,,,,,,,,,,,,,,
,,426822,001,2023-07-31_12h45.09.547,arm3_eps,2022.2.5,Win32,59.79430758,5fc8088906bd7a10c6eced41,64c7fed44a04f777bb1e18ce,64c80117a7ea0453df128367,right,1,0.75,0.5,0,-0.006087099,1.3631,0,0,0,0,1,,,,,,,,,,
,,426822,001,2023-07-31_12h45.09.547,arm3_eps,2022.2.5,Win32,59.79430758,5fc8088906bd7a10c6eced41,64c7fed44a04f777bb1e18ce,64c80117a7ea0453df128367,right,1,0.75,0.5,0,0.001791131,0.4663,1,0,1,0,1,,,,,,,,,,
,,426822,001,2023-07-31_12h45.09.547,arm3_eps,2022.2.5,Win32,59.79430758,5fc8088906bd7a10c6eced41,64c7fed44a04f777bb1e18ce,64c80117a7ea0453df128367,down,1,0.75,0.5,0,0,1.0787,2,0,2,0,1,,,,,,,,,,
,,426822,001,2023-07-31_12h45.09.547,arm3_eps,2022.2.5,Win32,59.79430758,5fc8088906bd7a10c6eced41,64c7fed44a04f777bb1e18ce,64c80117a7ea0453df128367,right,1,0.75,0.5,0,0.016561145,1.0877,3,0,3,0,1,,,,,,,,,,
,,426822,001,2023-07-31_12h45.09.547,arm3_eps,2022.2.5,Win32,59.79430758,5fc8088906bd7a10c6eced41,64c7fed44a04f777bb1e18ce,64c80117a7ea0453df128367,right,1,0.75,0.5,0,0.043696163,0.3505,4,0,4,0,1,,,,,,,,,,
,,426822,001,2023-07-31_12h45.09.547,arm3_eps,2022.2.5,Win32,59.79430758,5fc8088906bd7a10c6eced41,64c7fed44a04f777bb1e18ce,64c80117a7ea0453df128367,up,1,0.75,0.5,1,0,0.8532,5,0,5,0,1,,,,,,,,,,
,,426822,001,2023-07-31_12h45.09.547,arm3_eps,2022.2.5,Win32,59.79430758,5fc8088906bd7a10c6eced41,64c7fed44a04f777bb1e18ce,64c80117a7ea0453df128367,right,1,0.75,0.5,1,-0.010800395,1.0946,6,0,6,0,1,,,,,,,,,,
,,426822,001,2023-07-31_12h45.09.547,arm3_eps,2022.2.5,Win32,59.79430758,5fc8088906bd7a10c6eced41,64c7fed44a04f777bb1e18ce,64c80117a7ea0453df128367,right,1,0.75,0.5,1,0.012843633,0.3677,7,0,7,0,1,,,,,,,,,,
,,426822,001,2023-07-31_12h45.09.547,arm3_eps,2022.2.5,Win32,59.79430758,5fc8088906bd7a10c6eced41,64c7fed44a04f777bb1e18ce,64c80117a7ea0453df128367,right,1,0.75,0.5,1,0.04157704,0.3512,8,0,8,0,1,,,,,,,,,,
,,426822,001,2023-07-31_12h45.09.547,arm3_eps,2022.2.5,Win32,59.79430758,5fc8088906bd7a10c6eced41,64c7fed44a04f777bb1e18ce,64c80117a7ea0453df128367,up,1,0.75,0.5,2,0,0.43,9,0,9,0,1,,,,,,,,,,
,,426822,001,2023-07-31_12h45.09.547,arm3_eps,2022.2.5,Win32,59.79430758,5fc8088906bd7a10c6eced41,64c7fed44a04f777bb1e18ce,64c80117a7ea0453df128367,right,1,0.75,0.5,2,-0.009137622,1.1372,10,0,10,0,1,,,,,,,,,,
,,426822,001,2023-07-31_12h45.09.547,arm3_eps,2022.2.5,Win32,59.79430758,5fc8088906bd7a10c6eced41,64c7fed44a04f777bb1e18ce,64c80117a7ea0453df128367,right,1,0.75,0.5,2,-0.013967203,0.3672,11,0,11,0,1,,,,,,,,,,
,,426822,001,2023-07-31_12h45.09.547,arm3_eps,2022.2.5,Win32,59.79430758,5fc8088906bd7a10c6eced41,64c7fed44a04f777bb1e18ce,64c80117a7ea0453df128367,right,1,0.75,0.5,2,-0.034113919,0.385,12,0,12,0,1,,,,,,,,,,
,,426822,001,2023-07-31_12h45.09.547,arm3_eps,2022.2.5,Win32,59.79430758,5fc8088906bd7a10c6eced41,64c7fed44a04f777bb1e18ce,64c80117a7ea0453df128367,down,1,0.75,0.5,1,0,1.3884,13,0,13,0,1,,,,,,,,,,
,,426822,001,2023-07-31_12h45.09.547,arm3_eps,2022.2.5,Win32,59.79430758,5fc8088906bd7a10c6eced41,64c7fed44a04f777bb1e18ce,64c80117a7ea0453df128367,right,1,0.75,0.5,1,0.020261583,0.9694,14,0,14,0,1,,,,,,,,,,
,,426822,001,2023-07-31_12h45.09.547,arm3_eps,2022.2.5,Win32,59.79430758,5fc8088906bd7a10c6eced41,64c7fed44a04f777bb1e18ce,64c80117a7ea0453df128367,right,1,0.75,0.5,1,0.006884971,0.3329,15,0,15,0,1,,,,,,,,,,
,,426822,001,2023-07-31_12h45.09.547,arm3_eps,2022.2.5,Win32,59.79430758,5fc8088906bd7a10c6eced41,64c7fed44a04f777bb1e18ce,64c80117a7ea0453df128367,right,1,0.75,0.5,1,0.048762764,0.418,16,0,16,0,1,,,,,,,,,,
,,426822,001,2023-07-31_12h45.09.547,arm3_eps,2022.2.5,Win32,59.79430758,5fc8088906bd7a10c6eced41,64c7fed44a04f777bb1e18ce,64c80117a7ea0453df128367,up,-1,0.75,0.5,2,0,0.8197,17,0,17,0,1,,,,,,,,,,
,,426822,001,2023-07-31_12h45.09.547,arm3_eps,2022.2.5,Win32,59.79430758,5fc8088906bd7a10c6eced41,64c7fed44a04f777bb1e18ce,64c80117a7ea0453df128367,right,-1,0.75,0.5,2,0.028779307,0.9366,18,0,18,0,1,,,,,,,,,,
,,426822,001,2023-07-31_12h45.09.547,arm3_eps,2022.2.5,Win32,59.79430758,5fc8088906bd7a10c6eced41,64c7fed44a04f777bb1e18ce,64c80117a7ea0453df128367,right,-1,0.75,0.5,2,0.032271085,0.3676,19,0,19,0,1,,,,,,,,,,
,,426822,001,2023-07-31_12h45.09.547,arm3_eps,2022.2.5,Win32,59.79430758,5fc8088906bd7a10c6eced41,64c7fed44a04f777bb1e18ce,64c80117a7ea0453df128367,right,-1,0.75,0.5,2,0.00750391,0.2839,20,0,20,0,1,,,,,,,,,,
,,426822,001,2023-07-31_12h45.09.547,arm3_eps,2022.2.5,Win32,59.79430758,5fc8088906bd7a10c6eced41,64c7fed44a04f777bb1e18ce,64c80117a7ea0453df128367,down,-1,0.75,0.5,3,0,0.6866,21,0,21,0,1,,,,,,,,,,
,,426822,001,2023-07-31_12h45.09.547,arm3_eps,2022.2.5,Win32,59.79430758,5fc8088906bd7a10c6eced41,64c7fed44a04f777bb1e18ce,64c80117a7ea0453df128367,right,-1,0.75,0.5,3,-0.025065067,1.037,22,0,22,0,1,,,,,,,,,,
,,426822,001,2023-07-31_12h45.09.547,arm3_eps,2022.2.5,Win32,59.79430758,5fc8088906bd7a10c6eced41,64c7fed44a04f777bb1e18ce,64c80117a7ea0453df128367,right,-1,0.75,0.5,3,-0.067551289,0.3513,23,0,23,0,1,,,,,,,,,,
,,426822,001,2023-07-31_12h45.09.547,arm3_eps,2022.2.5,Win32,59.79430758,5fc8088906bd7a10c6eced41,64c7fed44a04f777bb1e18ce,64c80117a7ea0453df128367,right,-1,0.75,0.5,3,-0.063862197,0.2915,24,0,24,0,1,,,,,,,,,,
,,426822,001,2023-07-31_12h45.09.547,arm3_eps,2022.2.5,Win32,59.79430758,5fc8088906bd7a10c6eced41,64c7fed44a04f777bb1e18ce,64c80117a7ea0453df128367,down,-1,0.75,0.5,4,0,0.5188,25,0,25,0,1,,,,,,,,,,
,,426822,001,2023-07-31_12h45.09.547,arm3_eps,2022.2.5,Win32,59.79430758,5fc8088906bd7a10c6eced41,64c7fed44a04f777bb1e18ce,64c80117a7ea0453df128367,right,-1,0.75,0.5,4,0.010937125,1.0368,26,0,26,0,1,,,,,,,,,,
,,426822,001,2023-07-31_12h45.09.547,arm3_eps,2022.2.5,Win32,59.79430758,5fc8088906bd7a10c6eced41,64c7fed44a04f777bb1e18ce,64c80117a7ea0453df128367,right,-1,0.75,0.5,4,-0.00251679,0.3013,27,0,27,0,1,,,,,,,,,,
,,426822,001,2023-07-31_12h45.09.547,arm3_eps,2022.2.5,Win32,59.79430758,5fc8088906bd7a10c6eced41,64c7fed44a04f777bb1e18ce,64c80117a7ea0453df128367,right,-1,0.75,0.5,4,-0.00965459,0.3168,28,0,28,0,1,,,,,,,,,,
,,426822,001,2023-07-31_12h45.09.547,arm3_eps,2022.2.5,Win32,59.79430758,5fc8088906bd7a10c6eced41,64c7fed44a04f777bb1e18ce,64c80117a7ea0453df128367,right,-1,0.75,0.5,4,-0.037736356,0.3845,29,0,29,0,1,,,,,,,,,,
,,426822,001,2023-07-31_12h45.09.547,arm3_eps,2022.2.5,Win32,59.79430758,5fc8088906bd7a10c6eced41,64c7fed44a04f777bb1e18ce,64c80117a7ea0453df128367,down,1,0.75,0.5,5,0,0.4514,30,0,30,0,1,,,,,,,,,,
,,426822,001,2023-07-31_12h45.09.547,arm3_eps,2022.2.5,Win32,59.79430758,5fc8088906bd7a10c6eced41,64c7fed44a04f777bb1e18ce,64c80117a7ea0453df128367,right,1,0.75,0.5,5,0.006583381,1.0197,31,0,31,0,1,,,,,,,,,,
,,426822,001,2023-07-31_12h45.09.547,arm3_eps,2022.2.5,Win32,59.79430758,5fc8088906bd7a10c6eced41,64c7fed44a04f777bb1e18ce,64c80117a7ea0453df128367,right,1,0.75,0.5,5,0.023061344,0.3682,32,0,32,0,1,,,,,,,,,,
,,426822,001,2023-07-31_12h45.09.547,arm3_eps,2022.2.5,Win32,59.79430758,5fc8088906bd7a10c6eced41,64c7fed44a04f777bb1e18ce,64c80117a7ea0453df128367,right,1,0.75,0.5,5,0.030936467,0.3681,33,0,33,0,1,,,,,,,,,,
,,426822,001,2023-07-31_12h45.09.547,arm3_eps,2022.2.5,Win32,59.79430758,5fc8088906bd7a10c6eced41,64c7fed44a04f777bb1e18ce,64c80117a7ea0453df128367,up,1,0.75,0.5,6,0,0.6309,34,0,34,0,1,,,,,,,,,,
,,426822,001,2023-07-31_12h45.09.547,arm3_eps,2022.2.5,Win32,59.79430758,5fc8088906bd7a10c6eced41,64c7fed44a04f777bb1e18ce,64c80117a7ea0453df128367,right,1,0.75,0.5,6,0.007103573,1.0198,35,0,35,0,1,,,,,,,,,,
,,426822,001,2023-07-31_12h45.09.547,arm3_eps,2022.2.5,Win32,59.79430758,5fc8088906bd7a10c6eced41,64c7fed44a04f777bb1e18ce,64c80117a7ea0453df128367,right,1,0.75,0.5,6,-0.009758236,0.3662,36,0,36,0,1,,,,,,,,,,
,,426822,001,2023-07-31_12h45.09.547,arm3_eps,2022.2.5,Win32,59.79430758,5fc8088906bd7a10c6eced41,64c7fed44a04f777bb1e18ce,64c80117a7ea0453df128367,right,1,0.75,0.5,6,0.01747152,0.3011,37,0,37,0,1,,,,,,,,,,
,,426822,001,2023-07-31_12h45.09.547,arm3_eps,2022.2.5,Win32,59.79430758,5fc8088906bd7a10c6eced41,64c7fed44a04f777bb1e18ce,64c80117a7ea0453df128367,right,1,0.75,0.5,6,0.039716682,0.5679,38,0,38,0,1,,,,,,,,,,
,,426822,001,2023-07-31_12h45.09.547,arm3_eps,2022.2.5,Win32,59.79430758,5fc8088906bd7a10c6eced41,64c7fed44a04f777bb1e18ce,64c80117a7ea0453df128367,up,-1,0.75,0.5,6,0,0.485,39,0,39,0,1,,,,,,,,,,
,,426822,001,2023-07-31_12h45.09.547,arm3_eps,2022.2.5,Win32,59.79430758,5fc8088906bd7a10c6eced41,64c7fed44a04f777bb1e18ce,64c80117a7ea0453df128367,right,-1,0.75,0.5,6,-0.0144554,1.0366,40,0,40,0,1,,,,,,,,,,
,,426822,001,2023-07-31_12h45.09.547,arm3_eps,2022.2.5,Win32,59.79430758,5fc8088906bd7a10c6eced41,64c7fed44a04f777bb1e18ce,64c80117a7ea0453df128367,right,-1,0.75,0.5,6,-0.017634449,0.2841,41,0,41,0,1,,,,,,,,,,
,,426822,001,2023-07-31_12h45.09.547,arm3_eps,2022.2.5,Win32,59.79430758,5fc8088906bd7a10c6eced41,64c7fed44a04f777bb1e18ce,64c80117a7ea0453df128367,right,-1,0.75,0.5,6,-0.030066186,0.2842,42,0,42,0,1,,,,,,,,,,
,,426822,001,2023-07-31_12h45.09.547,arm3_eps,2022.2.5,Win32,59.79430758,5fc8088906bd7a10c6eced41,64c7fed44a04f777bb1e18ce,64c80117a7ea0453df128367,right,-1,0.75,0.5,6,-0.034991306,0.3346,43,0,43,0,1,,,,,,,,,,
,,426822,001,2023-07-31_12h45.09.547,arm3_eps,2022.2.5,Win32,59.79430758,5fc8088906bd7a10c6eced41,64c7fed44a04f777bb1e18ce,64c80117a7ea0453df128367,down,-1,0.75,0.5,7,0,0.5184,44,0,44,0,1,,,,,,,,,,
,,426822,001,2023-07-31_12h45.09.547,arm3_eps,2022.2.5,Win32,59.79430758,5fc8088906bd7a10c6eced41,64c7fed44a04f777bb1e18ce,64c80117a7ea0453df128367,right,-1,0.75,0.5,7,-0.026254241,1.0037,45,0,45,0,1,,,,,,,,,,
,,426822,001,2023-07-31_12h45.09.547,arm3_eps,2022.2.5,Win32,59.79430758,5fc8088906bd7a10c6eced41,64c7fed44a04f777bb1e18ce,64c80117a7ea0453df128367,right,-1,0.75,0.5,7,-0.010566526,0.317,46,0,46,0,1,,,,,,,,,,
,,426822,001,2023-07-31_12h45.09.547,arm3_eps,2022.2.5,Win32,59.79430758,5fc8088906bd7a10c6eced41,64c7fed44a04f777bb1e18ce,64c80117a7ea0453df128367,right,-1,0.75,0.5,7,-0.011762899,0.3685,47,0,47,0,1,,,,,,,,,,
,,426822,001,2023-07-31_12h45.09.547,arm3_eps,2022.2.5,Win32,59.79430758,5fc8088906bd7a10c6eced41,64c7fed44a04f777bb1e18ce,64c80117a7ea0453df128367,down,1,0.75,0.5,8,0,0.6518,48,0,48,0,1,,,,,,,,,,
,,426822,001,2023-07-31_12h45.09.547,arm3_eps,2022.2.5,Win32,59.79430758,5fc8088906bd7a10c6eced41,64c7fed44a04f777bb1e18ce,64c80117a7ea0453df128367,right,1,0.75,0.5,8,0.018739986,0.9868,49,0,49,0,1,,,,,,,,,,
space,2.1225,426822,001,2023-07-31_12h45.09.547,arm3_eps,2022.2.5,Win32,59.79430758,5fc8088906bd7a10c6eced41,64c7fed44a04f777bb1e18ce,64c80117a7ea0453df128367,,,,,,,,,,,,,,,,,,,,,,
space,4.0126,426822,001,2023-07-31_12h45.09.547,arm3_eps,2022.2.5,Win32,59.79430758,5fc8088906bd7a10c6eced41,64c7fed44a04f777bb1e18ce,64c80117a7ea0453df128367,right,1,0.75,0.3714,0,-0.008896383,0.9984,,,,,,0,0,0,0,1,,,,,
,,426822,001,2023-07-31_12h45.09.547,arm3_eps,2022.2.5,Win32,59.79430758,5fc8088906bd7a10c6eced41,64c7fed44a04f777bb1e18ce,64c80117a7ea0453df128367,right,1,0.75,0.3714,0,-0.026572236,0.5843,,,,,,1,0,1,0,1,,,,,
,,426822,001,2023-07-31_12h45.09.547,arm3_eps,2022.2.5,Win32,59.79430758,5fc8088906bd7a10c6eced41,64c7fed44a04f777bb1e18ce,64c80117a7ea0453df128367,right,1,0.75,0.3714,0,-0.011213352,0.5013,,,,,,2,0,2,0,1,,,,,
,,426822,001,2023-07-31_12h45.09.547,arm3_eps,2022.2.5,Win32,59.79430758,5fc8088906bd7a10c6eced41,64c7fed44a04f777bb1e18ce,64c80117a7ea0453df128367,right,1,0.75,0.3714,0,0.023772971,1.3213,,,,,,3,0,3,0,1,,,,,
,,426822,001,2023-07-31_12h45.09.547,arm3_eps,2022.2.5,Win32,59.79430758,5fc8088906bd7a10c6eced41,64c7fed44a04f777bb1e18ce,64c80117a7ea0453df128367,up,1,0.75,0.3714,0,0,0.6194,,,,,,4,0,4,0,1,,,,,
,,426822,001,2023-07-31_12h45.09.547,arm3_eps,2022.2.5,Win32,59.79430758,5fc8088906bd7a10c6eced41,64c7fed44a04f777bb1e18ce,64c80117a7ea0453df128367,right,1,0.75,0.3714,0,0.009015074,1.0703,,,,,,5,0,5,0,1,,,,,
,,426822,001,2023-07-31_12h45.09.547,arm3_eps,2022.2.5,Win32,59.79430758,5fc8088906bd7a10c6eced41,64c7fed44a04f777bb1e18ce,64c80117a7ea0453df128367,right,1,0.75,0.3714,0,0.027933542,0.368,,,,,,6,0,6,0,1,,,,,
,,426822,001,2023-07-31_12h45.09.547,arm3_eps,2022.2.5,Win32,59.79430758,5fc8088906bd7a10c6eced41,64c7fed44a04f777bb1e18ce,64c80117a7ea0453df128367,right,1,0.75,0.3714,0,0.02067228,0.3846,,,,,,7,0,7,0,1,,,,,
,,426822,001,2023-07-31_12h45.09.547,arm3_eps,2022.2.5,Win32,59.79430758,5fc8088906bd7a10c6eced41,64c7fed44a04f777bb1e18ce,64c80117a7ea0453df128367,right,1,0.75,0.3714,0,0.028091634,0.3842,,,,,,8,0,8,0,1,,,,,
,,426822,001,2023-07-31_12h45.09.547,arm3_eps,2022.2.5,Win32,59.79430758,5fc8088906bd7a10c6eced41,64c7fed44a04f777bb1e18ce,64c80117a7ea0453df128367,right,1,0.75,0.3714,0,0.041078296,0.5016,,,,,,9,0,9,0,1,,,,,
,,426822,001,2023-07-31_12h45.09.547,arm3_eps,2022.2.5,Win32,59.79430758,5fc8088906bd7a10c6eced41,64c7fed44a04f777bb1e18ce,64c80117a7ea0453df128367,up,1,0.75,0.3714,1,0,0.4513,,,,,,10,0,10,0,1,,,,,
,,426822,001,2023-07-31_12h45.09.547,arm3_eps,2022.2.5,Win32,59.79430758,5fc8088906bd7a10c6eced41,64c7fed44a04f777bb1e18ce,64c80117a7ea0453df128367,right,1,0.75,0.3714,1,0.007778587,0.8531,,,,,,11,0,11,0,1,,,,,
,,426822,001,2023-07-31_12h45.09.547,arm3_eps,2022.2.5,Win32,59.79430758,5fc8088906bd7a10c6eced41,64c7fed44a04f777bb1e18ce,64c80117a7ea0453df128367,right,1,0.75,0.3714,1,0.025375492,0.3351,,,,,,12,0,12,0,1,,,,,
,,426822,001,2023-07-31_12h45.09.547,arm3_eps,2022.2.5,Win32,59.79430758,5fc8088906bd7a10c6eced41,64c7fed44a04f777bb1e18ce,64c80117a7ea0453df128367,right,1,0.75,0.3714,1,0.063591674,0.3908,,,,,,13,0,13,0,1,,,,,
,,426822,001,2023-07-31_12h45.09.547,arm3_eps,2022.2.5,Win32,59.79430758,5fc8088906bd7a10c6eced41,64c7fed44a04f777bb1e18ce,64c80117a7ea0453df128367,up,1,0.75,0.3714,2,0,0.3846,,,,,,14,0,14,0,1,,,,,
,,426822,001,2023-07-31_12h45.09.547,arm3_eps,2022.2.5,Win32,59.79430758,5fc8088906bd7a10c6eced41,64c7fed44a04f777bb1e18ce,64c80117a7ea0453df128367,right,1,0.75,0.3714,2,0.024105168,0.9197,,,,,,15,0,15,0,1,,,,,
,,426822,001,2023-07-31_12h45.09.547,arm3_eps,2022.2.5,Win32,59.79430758,5fc8088906bd7a10c6eced41,64c7fed44a04f777bb1e18ce,64c80117a7ea0453df128367,right,1,0.75,0.3714,2,0.029615691,0.3398,,,,,,16,0,16,0,1,,,,,
,,426822,001,2023-07-31_12h45.09.547,arm3_eps,2022.2.5,Win32,59.79430758,5fc8088906bd7a10c6eced41,64c7fed44a04f777bb1e18ce,64c80117a7ea0453df128367,right,1,0.75,0.3714,2,0.023731583,0.3008,,,,,,17,0,17,0,1,,,,,
,,426822,001,2023-07-31_12h45.09.547,arm3_eps,2022.2.5,Win32,59.79430758,5fc8088906bd7a10c6eced41,64c7fed44a04f777bb1e18ce,64c80117a7ea0453df128367,right,1,0.75,0.3714,2,0.046256088,0.5517,,,,,,18,0,18,0,1,,,,,
,,426822,001,2023-07-31_12h45.09.547,arm3_eps,2022.2.5,Win32,59.79430758,5fc8088906bd7a10c6eced41,64c7fed44a04f777bb1e18ce,64c80117a7ea0453df128367,up,1,0.75,0.3714,3,0,0.3504,,,,,,19,0,19,0,1,,,,,
,,426822,001,2023-07-31_12h45.09.547,arm3_eps,2022.2.5,Win32,59.79430758,5fc8088906bd7a10c6eced41,64c7fed44a04f777bb1e18ce,64c80117a7ea0453df128367,right,1,0.75,0.3714,3,0.023495419,0.9362,,,,,,20,0,20,0,1,,,,,
,,426822,001,2023-07-31_12h45.09.547,arm3_eps,2022.2.5,Win32,59.79430758,5fc8088906bd7a10c6eced41,64c7fed44a04f777bb1e18ce,64c80117a7ea0453df128367,right,1,0.75,0.3714,3,0.035772861,0.3338,,,,,,21,0,21,0,1,,,,,
,,426822,001,2023-07-31_12h45.09.547,arm3_eps,2022.2.5,Win32,59.79430758,5fc8088906bd7a10c6eced41,64c7fed44a04f777bb1e18ce,64c80117a7ea0453df128367,right,1,0.75,0.3714,3,0.037184314,0.3345,,,,,,22,0,22,0,1,,,,,
,,426822,001,2023-07-31_12h45.09.547,arm3_eps,2022.2.5,Win32,59.79430758,5fc8088906bd7a10c6eced41,64c7fed44a04f777bb1e18ce,64c80117a7ea0453df128367,right,1,0.75,0.3714,3,0.053452856,0.34,,,,,,23,0,23,0,1,,,,,
,,426822,001,2023-07-31_12h45.09.547,arm3_eps,2022.2.5,Win32,59.79430758,5fc8088906bd7a10c6eced41,64c7fed44a04f777bb1e18ce,64c80117a7ea0453df128367,up,-1,0.75,0.3714,4,0,0.3679,,,,,,24,0,24,0,1,,,,,
,,426822,001,2023-07-31_12h45.09.547,arm3_eps,2022.2.5,Win32,59.79430758,5fc8088906bd7a10c6eced41,64c7fed44a04f777bb1e18ce,64c80117a7ea0453df128367,right,-1,0.75,0.3714,4,-0.039300578,0.9032,,,,,,25,0,25,0,1,,,,,
,,426822,001,2023-07-31_12h45.09.547,arm3_eps,2022.2.5,Win32,59.79430758,5fc8088906bd7a10c6eced41,64c7fed44a04f777bb1e18ce,64c80117a7ea0453df128367,right,-1,0.75,0.3714,4,-0.068325755,0.3679,,,,,,26,0,26,0,1,,,,,
,,426822,001,2023-07-31_12h45.09.547,arm3_eps,2022.2.5,Win32,59.79430758,5fc8088906bd7a10c6eced41,64c7fed44a04f777bb1e18ce,64c80117a7ea0453df128367,down,1,0.75,0.3714,5,0,0.8691,,,,,,27,0,27,0,1,,,,,
,,426822,001,2023-07-31_12h45.09.547,arm3_eps,2022.2.5,Win32,59.79430758,5fc8088906bd7a10c6eced41,64c7fed44a04f777bb1e18ce,64c80117a7ea0453df128367,right,1,0.75,0.3714,5,-0.017407403,1.0706,,,,,,28,0,28,0,1,,,,,
,,426822,001,2023-07-31_12h45.09.547,arm3_eps,2022.2.5,Win32,59.79430758,5fc8088906bd7a10c6eced41,64c7fed44a04f777bb1e18ce,64c80117a7ea0453df128367,right,1,0.75,0.3714,5,0.00914972,0.3843,,,,,,29,0,29,0,1,,,,,
,,426822,001,2023-07-31_12h45.09.547,arm3_eps,2022.2.5,Win32,59.79430758,5fc8088906bd7a10c6eced41,64c7fed44a04f777bb1e18ce,64c80117a7ea0453df128367,right,1,0.75,0.3714,5,0.038610275,0.251,,,,,,30,0,30,0,1,,,,,
,,426822,001,2023-07-31_12h45.09.547,arm3_eps,2022.2.5,Win32,59.79430758,5fc8088906bd7a10c6eced41,64c7fed44a04f777bb1e18ce,64c80117a7ea0453df128367,right,1,0.75,0.3714,5,0.019196412,1.1206,,,,,,31,0,31,0,1,,,,,
,,426822,001,2023-07-31_12h45.09.547,arm3_eps,2022.2.5,Win32,59.79430758,5fc8088906bd7a10c6eced41,64c7fed44a04f777bb1e18ce,64c80117a7ea0453df128367,right,1,0.75,0.3714,5,0.007104735,0.6745,,,,,,32,0,32,0,1,,,,,
,,426822,001,2023-07-31_12h45.09.547,arm3_eps,2022.2.5,Win32,59.79430758,5fc8088906bd7a10c6eced41,64c7fed44a04f777bb1e18ce,64c80117a7ea0453df128367,right,1,0.75,0.3714,5,0.009243021,0.658,,,,,,33,0,33,0,1,,,,,
,,426822,001,2023-07-31_12h45.09.547,arm3_eps,2022.2.5,Win32,59.79430758,5fc8088906bd7a10c6eced41,64c7fed44a04f777bb1e18ce,64c80117a7ea0453df128367,up,-1,0.75,0.3714,5,0,0.6217,,,,,,34,0,34,0,1,,,,,
,,426822,001,2023-07-31_12h45.09.547,arm3_eps,2022.2.5,Win32,59.79430758,5fc8088906bd7a10c6eced41,64c7fed44a04f777bb1e18ce,64c80117a7ea0453df128367,right,-1,0.75,0.3714,5,0.00495387,0.9847,,,,,,35,0,35,0,1,,,,,
,,426822,001,2023-07-31_12h45.09.547,arm3_eps,2022.2.5,Win32,59.79430758,5fc8088906bd7a10c6eced41,64c7fed44a04f777bb1e18ce,64c80117a7ea0453df128367,right,-1,0.75,0.3714,5,0.012993173,0.2512,,,,,,36,0,36,0,1,,,,,
,,426822,001,2023-07-31_12h45.09.547,arm3_eps,2022.2.5,Win32,59.79430758,5fc8088906bd7a10c6eced41,64c7fed44a04f777bb1e18ce,64c80117a7ea0453df128367,right,-1,0.75,0.3714,5,-0.004567395,0.2344,,,,,,37,0,37,0,1,,,,,
,,426822,001,2023-07-31_12h45.09.547,arm3_eps,2022.2.5,Win32,59.79430758,5fc8088906bd7a10c6eced41,64c7fed44a04f777bb1e18ce,64c80117a7ea0453df128367,right,-1,0.75,0.3714,5,-0.035331485,0.1847,,,,,,38,0,38,0,1,,,,,
,,426822,001,2023-07-31_12h45.09.547,arm3_eps,2022.2.5,Win32,59.79430758,5fc8088906bd7a10c6eced41,64c7fed44a04f777bb1e18ce,64c80117a7ea0453df128367,right,-1,0.75,0.3714,5,-0.026794738,0.2721,,,,,,39,0,39,0,1,,,,,
,,426822,001,2023-07-31_12h45.09.547,arm3_eps,2022.2.5,Win32,59.79430758,5fc8088906bd7a10c6eced41,64c7fed44a04f777bb1e18ce,64c80117a7ea0453df128367,right,-1,0.75,0.3714,5,-0.054101474,0.4355,,,,,,40,0,40,0,1,,,,,
,,426822,001,2023-07-31_12h45.09.547,arm3_eps,2022.2.5,Win32,59.79430758,5fc8088906bd7a10c6eced41,64c7fed44a04f777bb1e18ce,64c80117a7ea0453df128367,down,-1,0.75,0.3714,5,0,0.9379,,,,,,41,0,41,0,1,,,,,
,,426822,001,2023-07-31_12h45.09.547,arm3_eps,2022.2.5,Win32,59.79430758,5fc8088906bd7a10c6eced41,64c7fed44a04f777bb1e18ce,64c80117a7ea0453df128367,right,-1,0.75,0.3714,5,0.011935277,1.389,,,,,,42,0,42,0,1,,,,,
,,426822,001,2023-07-31_12h45.09.547,arm3_eps,2022.2.5,Win32,59.79430758,5fc8088906bd7a10c6eced41,64c7fed44a04f777bb1e18ce,64c80117a7ea0453df128367,right,-1,0.75,0.3714,5,0.001157974,0.2841,,,,,,43,0,43,0,1,,,,,
,,426822,001,2023-07-31_12h45.09.547,arm3_eps,2022.2.5,Win32,59.79430758,5fc8088906bd7a10c6eced41,64c7fed44a04f777bb1e18ce,64c80117a7ea0453df128367,right,-1,0.75,0.3714,5,-0.007501069,0.2841,,,,,,44,0,44,0,1,,,,,
,,426822,001,2023-07-31_12h45.09.547,arm3_eps,2022.2.5,Win32,59.79430758,5fc8088906bd7a10c6eced41,64c7fed44a04f777bb1e18ce,64c80117a7ea0453df128367,right,-1,0.75,0.3714,5,-0.008900508,0.271,,,,,,45,0,45,0,1,,,,,
,,426822,001,2023-07-31_12h45.09.547,arm3_eps,2022.2.5,Win32,59.79430758,5fc8088906bd7a10c6eced41,64c7fed44a04f777bb1e18ce,64c80117a7ea0453df128367,right,-1,0.75,0.3714,5,-0.009494995,0.3522,,,,,,46,0,46,0,1,,,,,
,,426822,001,2023-07-31_12h45.09.547,arm3_eps,2022.2.5,Win32,59.79430758,5fc8088906bd7a10c6eced41,64c7fed44a04f777bb1e18ce,64c80117a7ea0453df128367,down,-1,0.75,0.3714,6,0,0.539,,,,,,47,0,47,0,1,,,,,
,,426822,001,2023-07-31_12h45.09.547,arm3_eps,2022.2.5,Win32,59.79430758,5fc8088906bd7a10c6eced41,64c7fed44a04f777bb1e18ce,64c80117a7ea0453df128367,right,-1,0.75,0.3714,6,-0.031253542,1.067,,,,,,48,0,48,0,1,,,,,
,,426822,001,2023-07-31_12h45.09.547,arm3_eps,2022.2.5,Win32,59.79430758,5fc8088906bd7a10c6eced41,64c7fed44a04f777bb1e18ce,64c80117a7ea0453df128367,right,-1,0.75,0.3714,6,-0.021763714,0.3855,,,,,,49,0,49,0,1,,,,,
,,426822,001,2023-07-31_12h45.09.547,arm3_eps,2022.2.5,Win32,59.79430758,5fc8088906bd7a10c6eced41,64c7fed44a04f777bb1e18ce,64c80117a7ea0453df128367,right,-1,0.75,0.3714,6,-0.017316034,0.3542,,,,,,50,0,50,0,1,,,,,
,,426822,001,2023-07-31_12h45.09.547,arm3_eps,2022.2.5,Win32,59.79430758,5fc8088906bd7a10c6eced41,64c7fed44a04f777bb1e18ce,64c80117a7ea0453df128367,right,-1,0.75,0.3714,6,-0.033312808,0.3352,,,,,,51,0,51,0,1,,,,,
,,426822,001,2023-07-31_12h45.09.547,arm3_eps,2022.2.5,Win32,59.79430758,5fc8088906bd7a10c6eced41,64c7fed44a04f777bb1e18ce,64c80117a7ea0453df128367,down,1,0.75,0.3714,7,0,0.5856,,,,,,52,0,52,0,1,,,,,
,,426822,001,2023-07-31_12h45.09.547,arm3_eps,2022.2.5,Win32,59.79430758,5fc8088906bd7a10c6eced41,64c7fed44a04f777bb1e18ce,64c80117a7ea0453df128367,right,1,0.75,0.3714,7,0.019028252,0.9672,,,,,,53,0,53,0,1,,,,,
,,426822,001,2023-07-31_12h45.09.547,arm3_eps,2022.2.5,Win32,59.79430758,5fc8088906bd7a10c6eced41,64c7fed44a04f777bb1e18ce,64c80117a7ea0453df128367,right,1,0.75,0.3714,7,0.036422785,0.3183,,,,,,54,0,54,0,1,,,,,
,,426822,001,2023-07-31_12h45.09.547,arm3_eps,2022.2.5,Win32,59.79430758,5fc8088906bd7a10c6eced41,64c7fed44a04f777bb1e18ce,64c80117a7ea0453df128367,right,1,0.75,0.3714,7,0.053729046,0.2679,,,,,,55,0,55,0,1,,,,,
,,426822,001,2023-07-31_12h45.09.547,arm3_eps,2022.2.5,Win32,59.79430758,5fc8088906bd7a10c6eced41,64c7fed44a04f777bb1e18ce,64c80117a7ea0453df128367,up,1,0.75,0.3714,7,0,0.4033,,,,,,56,0,56,0,1,,,,,
,,426822,001,2023-07-31_12h45.09.547,arm3_eps,2022.2.5,Win32,59.79430758,5fc8088906bd7a10c6eced41,64c7fed44a04f777bb1e18ce,64c80117a7ea0453df128367,right,1,0.75,0.3714,7,0.005992124,1.0164,,,,,,57,0,57,0,1,,,,,
,,426822,001,2023-07-31_12h45.09.547,arm3_eps,2022.2.5,Win32,59.79430758,5fc8088906bd7a10c6eced41,64c7fed44a04f777bb1e18ce,64c80117a7ea0453df128367,right,1,0.75,0.3714,7,0.029318894,0.2525,,,,,,58,0,58,0,1,,,,,
,,426822,001,2023-07-31_12h45.09.547,arm3_eps,2022.2.5,Win32,59.79430758,5fc8088906bd7a10c6eced41,64c7fed44a04f777bb1e18ce,64c80117a7ea0453df128367,right,1,0.75,0.3714,7,0.04328577,0.3854,,,,,,59,0,59,0,1,,,,,
,,426822,001,2023-07-31_12h45.09.547,arm3_eps,2022.2.5,Win32,59.79430758,5fc8088906bd7a10c6eced41,64c7fed44a04f777bb1e18ce,64c80117a7ea0453df128367,up,1,0.75,0.3714,8,0,0.5036,,,,,,60,0,60,0,1,,,,,
,,426822,001,2023-07-31_12h45.09.547,arm3_eps,2022.2.5,Win32,59.79430758,5fc8088906bd7a10c6eced41,64c7fed44a04f777bb1e18ce,64c80117a7ea0453df128367,right,1,0.75,0.3714,8,0.027758631,0.854,,,,,,61,0,61,0,1,,,,,
,,426822,001,2023-07-31_12h45.09.547,arm3_eps,2022.2.5,Win32,59.79430758,5fc8088906bd7a10c6eced41,64c7fed44a04f777bb1e18ce,64c80117a7ea0453df128367,right,1,0.75,0.3714,8,0.009806912,0.3346,,,,,,62,0,62,0,1,,,,,
,,426822,001,2023-07-31_12h45.09.547,arm3_eps,2022.2.5,Win32,59.79430758,5fc8088906bd7a10c6eced41,64c7fed44a04f777bb1e18ce,64c80117a7ea0453df128367,right,1,0.75,0.3714,8,0.019225567,0.3686,,,,,,63,0,63,0,1,,,,,
,,426822,001,2023-07-31_12h45.09.547,arm3_eps,2022.2.5,Win32,59.79430758,5fc8088906bd7a10c6eced41,64c7fed44a04f777bb1e18ce,64c80117a7ea0453df128367,right,1,0.75,0.3714,8,0.054564912,0.3962,,,,,,64,0,64,0,1,,,,,
,,426822,001,2023-07-31_12h45.09.547,arm3_eps,2022.2.5,Win32,59.79430758,5fc8088906bd7a10c6eced41,64c7fed44a04f777bb1e18ce,64c80117a7ea0453df128367,up,1,0.75,0.3714,9,0,0.3676,,,,,,65,0,65,0,1,,,,,
,,426822,001,2023-07-31_12h45.09.547,arm3_eps,2022.2.5,Win32,59.79430758,5fc8088906bd7a10c6eced41,64c7fed44a04f777bb1e18ce,64c80117a7ea0453df128367,right,1,0.75,0.3714,9,0.011638247,1.0207,,,,,,66,0,66,0,1,,,,,
,,426822,001,2023-07-31_12h45.09.547,arm3_eps,2022.2.5,Win32,59.79430758,5fc8088906bd7a10c6eced41,64c7fed44a04f777bb1e18ce,64c80117a7ea0453df128367,right,1,0.75,0.3714,9,0.02341589,0.3134,,,,,,67,0,67,0,1,,,,,
,,426822,001,2023-07-31_12h45.09.547,arm3_eps,2022.2.5,Win32,59.79430758,5fc8088906bd7a10c6eced41,64c7fed44a04f777bb1e18ce,64c80117a7ea0453df128367,right,1,0.75,0.3714,9,0.041295885,0.2668,,,,,,68,0,68,0,1,,,,,
,,426822,001,2023-07-31_12h45.09.547,arm3_eps,2022.2.5,Win32,59.79430758,5fc8088906bd7a10c6eced41,64c7fed44a04f777bb1e18ce,64c80117a7ea0453df128367,up,-1,0.75,0.3714,10,0,0.4515,,,,,,69,0,69,0,1,,,,,
,,426822,001,2023-07-31_12h45.09.547,arm3_eps,2022.2.5,Win32,59.79430758,5fc8088906bd7a10c6eced41,64c7fed44a04f777bb1e18ce,64c80117a7ea0453df128367,right,-1,0.75,0.3714,10,0.00402496,0.9866,,,,,,70,0,70,0,1,,,,,
,,426822,001,2023-07-31_12h45.09.547,arm3_eps,2022.2.5,Win32,59.79430758,5fc8088906bd7a10c6eced41,64c7fed44a04f777bb1e18ce,64c80117a7ea0453df128367,right,-1,0.75,0.3714,10,-0.004468944,0.2843,,,,,,71,0,71,0,1,,,,,
,,426822,001,2023-07-31_12h45.09.547,arm3_eps,2022.2.5,Win32,59.79430758,5fc8088906bd7a10c6eced41,64c7fed44a04f777bb1e18ce,64c80117a7ea0453df128367,right,-1,0.75,0.3714,10,-0.006681196,0.3518,,,,,,72,0,72,0,1,,,,,
,,426822,001,2023-07-31_12h45.09.547,arm3_eps,2022.2.5,Win32,59.79430758,5fc8088906bd7a10c6eced41,64c7fed44a04f777bb1e18ce,64c80117a7ea0453df128367,right,-1,0.75,0.3714,10,0.020806473,0.7863,,,,,,73,0,73,0,1,,,,,
,,426822,001,2023-07-31_12h45.09.547,arm3_eps,2022.2.5,Win32,59.79430758,5fc8088906bd7a10c6eced41,64c7fed44a04f777bb1e18ce,64c80117a7ea0453df128367,down,-1,0.75,0.3714,11,0,0.8361,,,,,,74,0,74,0,1,,,,,
,,426822,001,2023-07-31_12h45.09.547,arm3_eps,2022.2.5,Win32,59.79430758,5fc8088906bd7a10c6eced41,64c7fed44a04f777bb1e18ce,64c80117a7ea0453df128367,right,-1,0.75,0.3714,11,0.011847027,0.9868,,,,,,75,0,75,0,1,,,,,
,,426822,001,2023-07-31_12h45.09.547,arm3_eps,2022.2.5,Win32,59.79430758,5fc8088906bd7a10c6eced41,64c7fed44a04f777bb1e18ce,64c80117a7ea0453df128367,right,-1,0.75,0.3714,11,-0.006797454,0.267,,,,,,76,0,76,0,1,,,,,
,,426822,001,2023-07-31_12h45.09.547,arm3_eps,2022.2.5,Win32,59.79430758,5fc8088906bd7a10c6eced41,64c7fed44a04f777bb1e18ce,64c80117a7ea0453df128367,right,-1,0.75,0.3714,11,0.019432545,0.2341,,,,,,77,0,77,0,1,,,,,
,,426822,001,2023-07-31_12h45.09.547,arm3_eps,2022.2.5,Win32,59.79430758,5fc8088906bd7a10c6eced41,64c7fed44a04f777bb1e18ce,64c80117a7ea0453df128367,right,-1,0.75,0.3714,11,0.013353125,0.3844,,,,,,78,0,78,0,1,,,,,
,,426822,001,2023-07-31_12h45.09.547,arm3_eps,2022.2.5,Win32,59.79430758,5fc8088906bd7a10c6eced41,64c7fed44a04f777bb1e18ce,64c80117a7ea0453df128367,down,-1,0.75,0.3714,12,0,0.7028,,,,,,79,0,79,0,1,,,,,
,,426822,001,2023-07-31_12h45.09.547,arm3_eps,2022.2.5,Win32,59.79430758,5fc8088906bd7a10c6eced41,64c7fed44a04f777bb1e18ce,64c80117a7ea0453df128367,right,-1,0.75,0.3714,12,-0.021434771,0.9585,,,,,,80,0,80,0,1,,,,,
,,426822,001,2023-07-31_12h45.09.547,arm3_eps,2022.2.5,Win32,59.79430758,5fc8088906bd7a10c6eced41,64c7fed44a04f777bb1e18ce,64c80117a7ea0453df128367,right,-1,0.75,0.3714,12,-0.036484549,0.3675,,,,,,81,0,81,0,1,,,,,
,,426822,001,2023-07-31_12h45.09.547,arm3_eps,2022.2.5,Win32,59.79430758,5fc8088906bd7a10c6eced41,64c7fed44a04f777bb1e18ce,64c80117a7ea0453df128367,right,-1,0.75,0.3714,12,-0.061689228,0.3338,,,,,,82,0,82,0,1,,,,,
,,426822,001,2023-07-31_12h45.09.547,arm3_eps,2022.2.5,Win32,59.79430758,5fc8088906bd7a10c6eced41,64c7fed44a04f777bb1e18ce,64c80117a7ea0453df128367,down,-1,0.75,0.3714,13,0,0.5193,,,,,,83,0,83,0,1,,,,,
,,426822,001,2023-07-31_12h45.09.547,arm3_eps,2022.2.5,Win32,59.79430758,5fc8088906bd7a10c6eced41,64c7fed44a04f777bb1e18ce,64c80117a7ea0453df128367,right,-1,0.75,0.3714,13,-0.012478882,1.0032,,,,,,84,0,84,0,1,,,,,
,,426822,001,2023-07-31_12h45.09.547,arm3_eps,2022.2.5,Win32,59.79430758,5fc8088906bd7a10c6eced41,64c7fed44a04f777bb1e18ce,64c80117a7ea0453df128367,right,-1,0.75,0.3714,13,-0.000972957,0.3511,,,,,,85,0,85,0,1,,,,,
,,426822,001,2023-07-31_12h45.09.547,arm3_eps,2022.2.5,Win32,59.79430758,5fc8088906bd7a10c6eced41,64c7fed44a04f777bb1e18ce,64c80117a7ea0453df128367,right,-1,0.75,0.3714,13,-0.016549294,0.3177,,,,,,86,0,86,0,1,,,,,
,,426822,001,2023-07-31_12h45.09.547,arm3_eps,2022.2.5,Win32,59.79430758,5fc8088906bd7a10c6eced41,64c7fed44a04f777bb1e18ce,64c80117a7ea0453df128367,down,1,0.75,0.3714,13,0,0.5353,,,,,,87,0,87,0,1,,,,,
,,426822,001,2023-07-31_12h45.09.547,arm3_eps,2022.2.5,Win32,59.79430758,5fc8088906bd7a10c6eced41,64c7fed44a04f777bb1e18ce,64c80117a7ea0453df128367,right,1,0.75,0.3714,13,0.024026817,0.9689,,,,,,88,0,88,0,1,,,,,
,,426822,001,2023-07-31_12h45.09.547,arm3_eps,2022.2.5,Win32,59.79430758,5fc8088906bd7a10c6eced41,64c7fed44a04f777bb1e18ce,64c80117a7ea0453df128367,right,1,0.75,0.3714,13,0.052672451,0.297,,,,,,89,0,89,0,1,,,,,
,,426822,001,2023-07-31_12h45.09.547,arm3_eps,2022.2.5,Win32,59.79430758,5fc8088906bd7a10c6eced41,64c7fed44a04f777bb1e18ce,64c80117a7ea0453df128367,right,1,0.75,0.3714,13,0.057453019,0.2674,,,,,,90,0,90,0,1,,,,,
,,426822,001,2023-07-31_12h45.09.547,arm3_eps,2022.2.5,Win32,59.79430758,5fc8088906bd7a10c6eced41,64c7fed44a04f777bb1e18ce,64c80117a7ea0453df128367,up,-1,0.75,0.3714,14,0,0.4511,,,,,,91,0,91,0,1,,,,,
,,426822,001,2023-07-31_12h45.09.547,arm3_eps,2022.2.5,Win32,59.79430758,5fc8088906bd7a10c6eced41,64c7fed44a04f777bb1e18ce,64c80117a7ea0453df128367,right,-1,0.75,0.3714,14,-0.028849993,0.915,,,,,,92,0,92,0,1,,,,,
,,426822,001,2023-07-31_12h45.09.547,arm3_eps,2022.2.5,Win32,59.79430758,5fc8088906bd7a10c6eced41,64c7fed44a04f777bb1e18ce,64c80117a7ea0453df128367,right,-1,0.75,0.3714,14,-0.037761063,0.2964,,,,,,93,0,93,0,1,,,,,
,,426822,001,2023-07-31_12h45.09.547,arm3_eps,2022.2.5,Win32,59.79430758,5fc8088906bd7a10c6eced41,64c7fed44a04f777bb1e18ce,64c80117a7ea0453df128367,right,-1,0.75,0.3714,14,-0.026790122,0.2058,,,,,,94,0,94,0,1,,,,,
,,426822,001,2023-07-31_12h45.09.547,arm3_eps,2022.2.5,Win32,59.79430758,5fc8088906bd7a10c6eced41,64c7fed44a04f777bb1e18ce,64c80117a7ea0453df128367,down,-1,0.75,0.3714,15,0,0.5027,,,,,,95,0,95,0,1,,,,,
,,426822,001,2023-07-31_12h45.09.547,arm3_eps,2022.2.5,Win32,59.79430758,5fc8088906bd7a10c6eced41,64c7fed44a04f777bb1e18ce,64c80117a7ea0453df128367,right,-1,0.75,0.3714,15,0.021518277,0.9699,,,,,,96,0,96,0,1,,,,,
,,426822,001,2023-07-31_12h45.09.547,arm3_eps,2022.2.5,Win32,59.79430758,5fc8088906bd7a10c6eced41,64c7fed44a04f777bb1e18ce,64c80117a7ea0453df128367,right,-1,0.75,0.3714,15,0.017893573,0.2338,,,,,,97,0,97,0,1,,,,,
,,426822,001,2023-07-31_12h45.09.547,arm3_eps,2022.2.5,Win32,59.79430758,5fc8088906bd7a10c6eced41,64c7fed44a04f777bb1e18ce,64c80117a7ea0453df128367,right,-1,0.75,0.3714,15,0.006232249,0.2002,,,,,,98,0,98,0,1,,,,,
,,426822,001,2023-07-31_12h45.09.547,arm3_eps,2022.2.5,Win32,59.79430758,5fc8088906bd7a10c6eced41,64c7fed44a04f777bb1e18ce,64c80117a7ea0453df128367,right,-1,0.75,0.3714,15,-0.006941705,0.1893,,,,,,99,0,99,0,1,,,,,
,,426822,001,2023-07-31_12h45.09.547,arm3_eps,2022.2.5,Win32,59.79430758,5fc8088906bd7a10c6eced41,64c7fed44a04f777bb1e18ce,64c80117a7ea0453df128367,right,-1,0.75,0.3714,15,-0.014993432,0.1504,,,,,,100,0,100,0,1,,,,,
,,426822,001,2023-07-31_12h45.09.547,arm3_eps,2022.2.5,Win32,59.79430758,5fc8088906bd7a10c6eced41,64c7fed44a04f777bb1e18ce,64c80117a7ea0453df128367,down,1,0.75,0.3714,16,0,0.6012,,,,,,101,0,101,0,1,,,,,
,,426822,001,2023-07-31_12h45.09.547,arm3_eps,2022.2.5,Win32,59.79430758,5fc8088906bd7a10c6eced41,64c7fed44a04f777bb1e18ce,64c80117a7ea0453df128367,right,1,0.75,0.3714,16,0.012159528,0.9699,,,,,,102,0,102,0,1,,,,,
,,426822,001,2023-07-31_12h45.09.547,arm3_eps,2022.2.5,Win32,59.79430758,5fc8088906bd7a10c6eced41,64c7fed44a04f777bb1e18ce,64c80117a7ea0453df128367,right,1,0.75,0.3714,16,0.053069641,0.3017,,,,,,103,0,103,0,1,,,,,
,,426822,001,2023-07-31_12h45.09.547,arm3_eps,2022.2.5,Win32,59.79430758,5fc8088906bd7a10c6eced41,64c7fed44a04f777bb1e18ce,64c80117a7ea0453df128367,right,1,0.75,0.3714,16,0.08764601,0.2006,,,,,,104,0,104,0,1,,,,,
,,426822,001,2023-07-31_12h45.09.547,arm3_eps,2022.2.5,Win32,59.79430758,5fc8088906bd7a10c6eced41,64c7fed44a04f777bb1e18ce,64c80117a7ea0453df128367,right,1,0.75,0.3714,16,0.09395276,0.1501,,,,,,105,0,105,0,1,,,,,
,,426822,001,2023-07-31_12h45.09.547,arm3_eps,2022.2.5,Win32,59.79430758,5fc8088906bd7a10c6eced41,64c7fed44a04f777bb1e18ce,64c80117a7ea0453df128367,up,1,0.75,0.3714,17,0,0.4357,,,,,,106,0,106,0,1,,,,,
,,426822,001,2023-07-31_12h45.09.547,arm3_eps,2022.2.5,Win32,59.79430758,5fc8088906bd7a10c6eced41,64c7fed44a04f777bb1e18ce,64c80117a7ea0453df128367,right,1,0.75,0.3714,17,-0.022526248,1.0042,,,,,,107,0,107,0,1,,,,,
,,426822,001,2023-07-31_12h45.09.547,arm3_eps,2022.2.5,Win32,59.79430758,5fc8088906bd7a10c6eced41,64c7fed44a04f777bb1e18ce,64c80117a7ea0453df128367,right,1,0.75,0.3714,17,-0.034453744,0.3683,,,,,,108,0,108,0,1,,,,,
,,426822,001,2023-07-31_12h45.09.547,arm3_eps,2022.2.5,Win32,59.79430758,5fc8088906bd7a10c6eced41,64c7fed44a04f777bb1e18ce,64c80117a7ea0453df128367,right,1,0.75,0.3714,17,-0.008576428,0.9027,,,,,,109,0,109,0,1,,,,,
,,426822,001,2023-07-31_12h45.09.547,arm3_eps,2022.2.5,Win32,59.79430758,5fc8088906bd7a10c6eced41,64c7fed44a04f777bb1e18ce,64c80117a7ea0453df128367,down,-1,0.75,0.3714,16,0,0.5019,,,,,,110,0,110,0,1,,,,,
,,426822,001,2023-07-31_12h45.09.547,arm3_eps,2022.2.5,Win32,59.79430758,5fc8088906bd7a10c6eced41,64c7fed44a04f777bb1e18ce,64c80117a7ea0453df128367,right,-1,0.75,0.3714,16,0.006704248,1.1036,,,,,,111,0,111,0,1,,,,,
,,426822,001,2023-07-31_12h45.09.547,arm3_eps,2022.2.5,Win32,59.79430758,5fc8088906bd7a10c6eced41,64c7fed44a04f777bb1e18ce,64c80117a7ea0453df128367,right,-1,0.75,0.3714,16,-0.015110947,0.2839,,,,,,112,0,112,0,1,,,,,
,,426822,001,2023-07-31_12h45.09.547,arm3_eps,2022.2.5,Win32,59.79430758,5fc8088906bd7a10c6eced41,64c7fed44a04f777bb1e18ce,64c80117a7ea0453df128367,right,-1,0.75,0.3714,16,-0.03815119,0.4346,,,,,,113,0,113,0,1,,,,,
,,426822,001,2023-07-31_12h45.09.547,arm3_eps,2022.2.5,Win32,59.79430758,5fc8088906bd7a10c6eced41,64c7fed44a04f777bb1e18ce,64c80117a7ea0453df128367,right,-1,0.75,0.3714,16,-0.01693481,1.0868,,,,,,114,0,114,0,1,,,,,
,,426822,001,2023-07-31_12h45.09.547,arm3_eps,2022.2.5,Win32,59.79430758,5fc8088906bd7a10c6eced41,64c7fed44a04f777bb1e18ce,64c80117a7ea0453df128367,down,-1,0.75,0.3714,17,0,0.8698,,,,,,115,0,115,0,1,,,,,
,,426822,001,2023-07-31_12h45.09.547,arm3_eps,2022.2.5,Win32,59.79430758,5fc8088906bd7a10c6eced41,64c7fed44a04f777bb1e18ce,64c80117a7ea0453df128367,right,-1,0.75,0.3714,17,-0.014220632,0.9659,,,,,,116,0,116,0,1,,,,,
,,426822,001,2023-07-31_12h45.09.547,arm3_eps,2022.2.5,Win32,59.79430758,5fc8088906bd7a10c6eced41,64c7fed44a04f777bb1e18ce,64c80117a7ea0453df128367,right,-1,0.75,0.3714,17,-0.014375981,0.3011,,,,,,117,0,117,0,1,,,,,
,,426822,001,2023-07-31_12h45.09.547,arm3_eps,2022.2.5,Win32,59.79430758,5fc8088906bd7a10c6eced41,64c7fed44a04f777bb1e18ce,64c80117a7ea0453df128367,right,-1,0.75,0.3714,17,-0.049306958,0.351,,,,,,118,0,118,0,1,,,,,
,,426822,001,2023-07-31_12h45.09.547,arm3_eps,2022.2.5,Win32,59.79430758,5fc8088906bd7a10c6eced41,64c7fed44a04f777bb1e18ce,64c80117a7ea0453df128367,down,1,0.75,0.3714,18,0,0.3847,,,,,,119,0,119,0,1,,,,,
,,426822,001,2023-07-31_12h45.09.547,arm3_eps,2022.2.5,Win32,59.79430758,5fc8088906bd7a10c6eced41,64c7fed44a04f777bb1e18ce,64c80117a7ea0453df128367,right,1,0.75,0.3714,18,0.039963823,0.9426,,,,,,120,0,120,0,1,,,,,
,,426822,001,2023-07-31_12h45.09.547,arm3_eps,2022.2.5,Win32,59.79430758,5fc8088906bd7a10c6eced41,64c7fed44a04f777bb1e18ce,64c80117a7ea0453df128367,right,1,0.75,0.3714,18,0.050369497,0.401,,,,,,121,0,121,0,1,,,,,
,,426822,001,2023-07-31_12h45.09.547,arm3_eps,2022.2.5,Win32,59.79430758,5fc8088906bd7a10c6eced41,64c7fed44a04f777bb1e18ce,64c80117a7ea0453df128367,up,-1,0.75,0.3714,19,0,1.4217,,,,,,122,0,122,0,1,,,,,
,,426822,001,2023-07-31_12h45.09.547,arm3_eps,2022.2.5,Win32,59.79430758,5fc8088906bd7a10c6eced41,64c7fed44a04f777bb1e18ce,64c80117a7ea0453df128367,right,-1,0.75,0.3714,19,-0.010130763,0.9199,,,,,,123,0,123,0,1,,,,,
,,426822,001,2023-07-31_12h45.09.547,arm3_eps,2022.2.5,Win32,59.79430758,5fc8088906bd7a10c6eced41,64c7fed44a04f777bb1e18ce,64c80117a7ea0453df128367,right,-1,0.75,0.3714,19,-0.016075577,0.3681,,,,,,124,0,124,0,1,,,,,
,,426822,001,2023-07-31_12h45.09.547,arm3_eps,2022.2.5,Win32,59.79430758,5fc8088906bd7a10c6eced41,64c7fed44a04f777bb1e18ce,64c80117a7ea0453df128367,down,1,0.75,0.3714,20,0,0.4512,,,,,,125,0,125,0,1,,,,,
,,426822,001,2023-07-31_12h45.09.547,arm3_eps,2022.2.5,Win32,59.79430758,5fc8088906bd7a10c6eced41,64c7fed44a04f777bb1e18ce,64c80117a7ea0453df128367,right,1,0.75,0.3714,20,0.015783122,0.9201,,,,,,126,0,126,0,1,,,,,
,,426822,001,2023-07-31_12h45.09.547,arm3_eps,2022.2.5,Win32,59.79430758,5fc8088906bd7a10c6eced41,64c7fed44a04f777bb1e18ce,64c80117a7ea0453df128367,right,1,0.75,0.3714,20,0.039230108,0.2846,,,,,,127,0,127,0,1,,,,,
,,426822,001,2023-07-31_12h45.09.547,arm3_eps,2022.2.5,Win32,59.79430758,5fc8088906bd7a10c6eced41,64c7fed44a04f777bb1e18ce,64c80117a7ea0453df128367,up,1,0.75,0.3714,21,0,0.5184,,,,,,128,0,128,0,1,,,,,
,,426822,001,2023-07-31_12h45.09.547,arm3_eps,2022.2.5,Win32,59.79430758,5fc8088906bd7a10c6eced41,64c7fed44a04f777bb1e18ce,64c80117a7ea0453df128367,right,1,0.75,0.3714,21,-0.028149952,0.9549,,,,,,129,0,129,0,1,,,,,
,,426822,001,2023-07-31_12h45.09.547,arm3_eps,2022.2.5,Win32,59.79430758,5fc8088906bd7a10c6eced41,64c7fed44a04f777bb1e18ce,64c80117a7ea0453df128367,right,1,0.75,0.3714,21,-0.035470889,0.3679,,,,,,130,0,130,0,1,,,,,
,,426822,001,2023-07-31_12h45.09.547,arm3_eps,2022.2.5,Win32,59.79430758,5fc8088906bd7a10c6eced41,64c7fed44a04f777bb1e18ce,64c80117a7ea0453df128367,down,1,0.75,0.3714,20,0,0.7693,,,,,,131,0,131,0,1,,,,,
,,426822,001,2023-07-31_12h45.09.547,arm3_eps,2022.2.5,Win32,59.79430758,5fc8088906bd7a10c6eced41,64c7fed44a04f777bb1e18ce,64c80117a7ea0453df128367,right,1,0.75,0.3714,20,-0.022899674,1.0026,,,,,,132,0,132,0,1,,,,,
,,426822,001,2023-07-31_12h45.09.547,arm3_eps,2022.2.5,Win32,59.79430758,5fc8088906bd7a10c6eced41,64c7fed44a04f777bb1e18ce,64c80117a7ea0453df128367,right,1,0.75,0.3714,20,0.00526126,0.2837,,,,,,133,0,133,0,1,,,,,
,,426822,001,2023-07-31_12h45.09.547,arm3_eps,2022.2.5,Win32,59.79430758,5fc8088906bd7a10c6eced41,64c7fed44a04f777bb1e18ce,64c80117a7ea0453df128367,right,1,0.75,0.3714,20,0.03050882,0.3842,,,,,,134,0,134,0,1,,,,,
,,426822,001,2023-07-31_12h45.09.547,arm3_eps,2022.2.5,Win32,59.79430758,5fc8088906bd7a10c6eced41,64c7fed44a04f777bb1e18ce,64c80117a7ea0453df128367,up,1,0.75,0.3714,21,0,0.5183,,,,,,135,0,135,0,1,,,,,
,,426822,001,2023-07-31_12h45.09.547,arm3_eps,2022.2.5,Win32,59.79430758,5fc8088906bd7a10c6eced41,64c7fed44a04f777bb1e18ce,64c80117a7ea0453df128367,right,1,0.75,0.3714,21,0.022127447,0.9705,,,,,,136,0,136,0,1,,,,,
,,426822,001,2023-07-31_12h45.09.547,arm3_eps,2022.2.5,Win32,59.79430758,5fc8088906bd7a10c6eced41,64c7fed44a04f777bb1e18ce,64c80117a7ea0453df128367,right,1,0.75,0.3714,21,0.04447172,0.3171,,,,,,137,0,137,0,1,,,,,
,,426822,001,2023-07-31_12h45.09.547,arm3_eps,2022.2.5,Win32,59.79430758,5fc8088906bd7a10c6eced41,64c7fed44a04f777bb1e18ce,64c80117a7ea0453df128367,right,1,0.75,0.3714,21,0.028177587,0.8193,,,,,,138,0,138,0,1,,,,,
,,426822,001,2023-07-31_12h45.09.547,arm3_eps,2022.2.5,Win32,59.79430758,5fc8088906bd7a10c6eced41,64c7fed44a04f777bb1e18ce,64c80117a7ea0453df128367,up,1,0.75,0.3714,21,0,0.6859,,,,,,139,0,139,0,1,,,,,
,,426822,001,2023-07-31_12h45.09.547,arm3_eps,2022.2.5,Win32,59.79430758,5fc8088906bd7a10c6eced41,64c7fed44a04f777bb1e18ce,64c80117a7ea0453df128367,right,1,0.75,0.3714,21,-0.021700891,0.9697,,,,,,140,0,140,0,1,,,,,
,,426822,001,2023-07-31_12h45.09.547,arm3_eps,2022.2.5,Win32,59.79430758,5fc8088906bd7a10c6eced41,64c7fed44a04f777bb1e18ce,64c80117a7ea0453df128367,right,1,0.75,0.3714,21,-0.03960096,0.2505,,,,,,141,0,141,0,1,,,,,
,,426822,001,2023-07-31_12h45.09.547,arm3_eps,2022.2.5,Win32,59.79430758,5fc8088906bd7a10c6eced41,64c7fed44a04f777bb1e18ce,64c80117a7ea0453df128367,down,1,0.75,0.3714,20,0,0.5854,,,,,,142,0,142,0,1,,,,,
,,426822,001,2023-07-31_12h45.09.547,arm3_eps,2022.2.5,Win32,59.79430758,5fc8088906bd7a10c6eced41,64c7fed44a04f777bb1e18ce,64c80117a7ea0453df128367,right,1,0.75,0.3714,20,-0.038971424,0.9364,,,,,,143,0,143,0,1,,,,,
,,426822,001,2023-07-31_12h45.09.547,arm3_eps,2022.2.5,Win32,59.79430758,5fc8088906bd7a10c6eced41,64c7fed44a04f777bb1e18ce,64c80117a7ea0453df128367,right,1,0.75,0.3714,20,-0.055587161,0.2343,,,,,,144,0,144,0,1,,,,,
,,426822,001,2023-07-31_12h45.09.547,arm3_eps,2022.2.5,Win32,59.79430758,5fc8088906bd7a10c6eced41,64c7fed44a04f777bb1e18ce,64c80117a7ea0453df128367,right,1,0.75,0.3714,20,-0.034977583,0.1669,,,,,,145,0,145,0,1,,,,,
,,426822,001,2023-07-31_12h45.09.547,arm3_eps,2022.2.5,Win32,59.79430758,5fc8088906bd7a10c6eced41,64c7fed44a04f777bb1e18ce,64c80117a7ea0453df128367,right,1,0.75,0.3714,20,-0.024226094,0.351,,,,,,146,0,146,0,1,,,,,
,,426822,001,2023-07-31_12h45.09.547,arm3_eps,2022.2.5,Win32,59.79430758,5fc8088906bd7a10c6eced41,64c7fed44a04f777bb1e18ce,64c80117a7ea0453df128367,down,-1,0.75,0.3714,19,0,1.1376,,,,,,147,0,147,0,1,,,,,
,,426822,001,2023-07-31_12h45.09.547,arm3_eps,2022.2.5,Win32,59.79430758,5fc8088906bd7a10c6eced41,64c7fed44a04f777bb1e18ce,64c80117a7ea0453df128367,right,-1,0.75,0.3714,19,-0.00640617,1.0367,,,,,,148,0,148,0,1,,,,,
,,426822,001,2023-07-31_12h45.09.547,arm3_eps,2022.2.5,Win32,59.79430758,5fc8088906bd7a10c6eced41,64c7fed44a04f777bb1e18ce,64c80117a7ea0453df128367,right,-1,0.75,0.3714,19,0.016086772,0.2343,,,,,,149,0,149,0,1,,,,,
,,426822,001,2023-07-31_12h45.09.547,arm3_eps,2022.2.5,Win32,59.79430758,5fc8088906bd7a10c6eced41,64c7fed44a04f777bb1e18ce,64c80117a7ea0453df128367,right,-1,0.75,0.3714,19,0.018315574,0.1505,,,,,,150,0,150,0,1,,,,,
,,426822,001,2023-07-31_12h45.09.547,arm3_eps,2022.2.5,Win32,59.79430758,5fc8088906bd7a10c6eced41,64c7fed44a04f777bb1e18ce,64c80117a7ea0453df128367,right,-1,0.75,0.3714,19,-0.007656015,0.1674,,,,,,151,0,151,0,1,,,,,
,,426822,001,2023-07-31_12h45.09.547,arm3_eps,2022.2.5,Win32,59.79430758,5fc8088906bd7a10c6eced41,64c7fed44a04f777bb1e18ce,64c80117a7ea0453df128367,right,-1,0.75,0.3714,19,-0.006316814,0.4677,,,,,,152,0,152,0,1,,,,,
,,426822,001,2023-07-31_12h45.09.547,arm3_eps,2022.2.5,Win32,59.79430758,5fc8088906bd7a10c6eced41,64c7fed44a04f777bb1e18ce,64c80117a7ea0453df128367,right,-1,0.75,0.3714,19,-0.029864666,0.6519,,,,,,153,0,153,0,1,,,,,
,,426822,001,2023-07-31_12h45.09.547,arm3_eps,2022.2.5,Win32,59.79430758,5fc8088906bd7a10c6eced41,64c7fed44a04f777bb1e18ce,64c80117a7ea0453df128367,down,-1,0.75,0.3714,19,0,0.7023,,,,,,154,0,154,0,1,,,,,
,,426822,001,2023-07-31_12h45.09.547,arm3_eps,2022.2.5,Win32,59.79430758,5fc8088906bd7a10c6eced41,64c7fed44a04f777bb1e18ce,64c80117a7ea0453df128367,right,-1,0.75,0.3714,19,-0.020773737,0.9532,,,,,,155,0,155,0,1,,,,,
,,426822,001,2023-07-31_12h45.09.547,arm3_eps,2022.2.5,Win32,59.79430758,5fc8088906bd7a10c6eced41,64c7fed44a04f777bb1e18ce,64c80117a7ea0453df128367,right,-1,0.75,0.3714,19,-0.005381996,0.3515,,,,,,156,0,156,0,1,,,,,
,,426822,001,2023-07-31_12h45.09.547,arm3_eps,2022.2.5,Win32,59.79430758,5fc8088906bd7a10c6eced41,64c7fed44a04f777bb1e18ce,64c80117a7ea0453df128367,right,-1,0.75,0.3714,19,0.021244302,0.2843,,,,,,157,0,157,0,1,,,,,
,,426822,001,2023-07-31_12h45.09.547,arm3_eps,2022.2.5,Win32,59.79430758,5fc8088906bd7a10c6eced41,64c7fed44a04f777bb1e18ce,64c80117a7ea0453df128367,up,-1,0.75,0.3714,18,0,0.6853,,,,,,158,0,158,0,1,,,,,
,,426822,001,2023-07-31_12h45.09.547,arm3_eps,2022.2.5,Win32,59.79430758,5fc8088906bd7a10c6eced41,64c7fed44a04f777bb1e18ce,64c80117a7ea0453df128367,right,-1,0.75,0.3714,18,0.006027058,1.1542,,,,,,159,0,159,0,1,,,,,
,,426822,001,2023-07-31_12h45.09.547,arm3_eps,2022.2.5,Win32,59.79430758,5fc8088906bd7a10c6eced41,64c7fed44a04f777bb1e18ce,64c80117a7ea0453df128367,right,-1,0.75,0.3714,18,-0.030470354,0.3177,,,,,,160,0,160,0,1,,,,,
,,426822,001,2023-07-31_12h45.09.547,arm3_eps,2022.2.5,Win32,59.79430758,5fc8088906bd7a10c6eced41,64c7fed44a04f777bb1e18ce,64c80117a7ea0453df128367,right,-1,0.75,0.3714,18,-0.013367729,0.2513,,,,,,161,0,161,0,1,,,,,
,,426822,001,2023-07-31_12h45.09.547,arm3_eps,2022.2.5,Win32,59.79430758,5fc8088906bd7a10c6eced41,64c7fed44a04f777bb1e18ce,64c80117a7ea0453df128367,right,-1,0.75,0.3714,18,-0.016482781,0.6011,,,,,,162,0,162,0,1,,,,,
,,426822,001,2023-07-31_12h45.09.547,arm3_eps,2022.2.5,Win32,59.79430758,5fc8088906bd7a10c6eced41,64c7fed44a04f777bb1e18ce,64c80117a7ea0453df128367,down,-1,0.75,0.3714,19,0,0.4678,,,,,,163,0,163,0,1,,,,,
,,426822,001,2023-07-31_12h45.09.547,arm3_eps,2022.2.5,Win32,59.79430758,5fc8088906bd7a10c6eced41,64c7fed44a04f777bb1e18ce,64c80117a7ea0453df128367,right,-1,0.75,0.3714,19,0.006700747,1.2714,,,,,,164,0,164,0,1,,,,,
,,426822,001,2023-07-31_12h45.09.547,arm3_eps,2022.2.5,Win32,59.79430758,5fc8088906bd7a10c6eced41,64c7fed44a04f777bb1e18ce,64c80117a7ea0453df128367,right,-1,0.75,0.3714,19,-0.014823403,0.418,,,,,,165,0,165,0,1,,,,,
,,426822,001,2023-07-31_12h45.09.547,arm3_eps,2022.2.5,Win32,59.79430758,5fc8088906bd7a10c6eced41,64c7fed44a04f777bb1e18ce,64c80117a7ea0453df128367,right,-1,0.75,0.3714,19,-0.021200589,0.2836,,,,,,166,0,166,0,1,,,,,
,,426822,001,2023-07-31_12h45.09.547,arm3_eps,2022.2.5,Win32,59.79430758,5fc8088906bd7a10c6eced41,64c7fed44a04f777bb1e18ce,64c80117a7ea0453df128367,right,-1,0.75,0.3714,19,-0.051270614,0.2678,,,,,,167,0,167,0,1,,,,,
,,426822,001,2023-07-31_12h45.09.547,arm3_eps,2022.2.5,Win32,59.79430758,5fc8088906bd7a10c6eced41,64c7fed44a04f777bb1e18ce,64c80117a7ea0453df128367,down,1,0.75,0.3714,20,0,0.6356,,,,,,168,0,168,0,1,,,,,
,,426822,001,2023-07-31_12h45.09.547,arm3_eps,2022.2.5,Win32,59.79430758,5fc8088906bd7a10c6eced41,64c7fed44a04f777bb1e18ce,64c80117a7ea0453df128367,right,1,0.75,0.3714,20,0.019519992,0.9031,,,,,,169,0,169,0,1,,,,,
,,426822,001,2023-07-31_12h45.09.547,arm3_eps,2022.2.5,Win32,59.79430758,5fc8088906bd7a10c6eced41,64c7fed44a04f777bb1e18ce,64c80117a7ea0453df128367,right,1,0.75,0.3714,20,0.047899382,0.3505,,,,,,170,0,170,0,1,,,,,
,,426822,001,2023-07-31_12h45.09.547,arm3_eps,2022.2.5,Win32,59.79430758,5fc8088906bd7a10c6eced41,64c7fed44a04f777bb1e18ce,64c80117a7ea0453df128367,up,1,0.75,0.3714,21,0,0.3833,,,,,,171,0,171,0,1,,,,,
,,426822,001,2023-07-31_12h45.09.547,arm3_eps,2022.2.5,Win32,59.79430758,5fc8088906bd7a10c6eced41,64c7fed44a04f777bb1e18ce,64c80117a7ea0453df128367,right,1,0.75,0.3714,21,0.027591643,1.0368,,,,,,172,0,172,0,1,,,,,
,,426822,001,2023-07-31_12h45.09.547,arm3_eps,2022.2.5,Win32,59.79430758,5fc8088906bd7a10c6eced41,64c7fed44a04f777bb1e18ce,64c80117a7ea0453df128367,right,1,0.75,0.3714,21,0.060394554,0.3,,,,,,173,0,173,0,1,,,,,
,,426822,001,2023-07-31_12h45.09.547,arm3_eps,2022.2.5,Win32,59.79430758,5fc8088906bd7a10c6eced41,64c7fed44a04f777bb1e18ce,64c80117a7ea0453df128367,up,1,0.75,0.3714,21,0,0.418,,,,,,174,0,174,0,1,,,,,
,,426822,001,2023-07-31_12h45.09.547,arm3_eps,2022.2.5,Win32,59.79430758,5fc8088906bd7a10c6eced41,64c7fed44a04f777bb1e18ce,64c80117a7ea0453df128367,right,1,0.75,0.3714,21,0.000674562,1.0035,,,,,,175,0,175,0,1,,,,,
,,426822,001,2023-07-31_12h45.09.547,arm3_eps,2022.2.5,Win32,59.79430758,5fc8088906bd7a10c6eced41,64c7fed44a04f777bb1e18ce,64c80117a7ea0453df128367,right,1,0.75,0.3714,21,0.015922407,0.2513,,,,,,176,0,176,0,1,,,,,
,,426822,001,2023-07-31_12h45.09.547,arm3_eps,2022.2.5,Win32,59.79430758,5fc8088906bd7a10c6eced41,64c7fed44a04f777bb1e18ce,64c80117a7ea0453df128367,right,1,0.75,0.3714,21,0.0337721,0.2005,,,,,,177,0,177,0,1,,,,,
,,426822,001,2023-07-31_12h45.09.547,arm3_eps,2022.2.5,Win32,59.79430758,5fc8088906bd7a10c6eced41,64c7fed44a04f777bb1e18ce,64c80117a7ea0453df128367,up,-1,0.75,0.3714,22,0,0.5514,,,,,,178,0,178,0,1,,,,,
,,426822,001,2023-07-31_12h45.09.547,arm3_eps,2022.2.5,Win32,59.79430758,5fc8088906bd7a10c6eced41,64c7fed44a04f777bb1e18ce,64c80117a7ea0453df128367,right,-1,0.75,0.3714,22,0.020181627,0.953,,,,,,179,0,179,0,1,,,,,
,,426822,001,2023-07-31_12h45.09.547,arm3_eps,2022.2.5,Win32,59.79430758,5fc8088906bd7a10c6eced41,64c7fed44a04f777bb1e18ce,64c80117a7ea0453df128367,right,-1,0.75,0.3714,22,0.005821905,0.2175,,,,,,180,0,180,0,1,,,,,
,,426822,001,2023-07-31_12h45.09.547,arm3_eps,2022.2.5,Win32,59.79430758,5fc8088906bd7a10c6eced41,64c7fed44a04f777bb1e18ce,64c80117a7ea0453df128367,right,-1,0.75,0.3714,22,-0.003060874,0.1837,,,,,,181,0,181,0,1,,,,,
,,426822,001,2023-07-31_12h45.09.547,arm3_eps,2022.2.5,Win32,59.79430758,5fc8088906bd7a10c6eced41,64c7fed44a04f777bb1e18ce,64c80117a7ea0453df128367,down,-1,0.75,0.3714,22,0,0.6351,,,,,,182,0,182,0,1,,,,,
,,426822,001,2023-07-31_12h45.09.547,arm3_eps,2022.2.5,Win32,59.79430758,5fc8088906bd7a10c6eced41,64c7fed44a04f777bb1e18ce,64c80117a7ea0453df128367,right,-1,0.75,0.3714,22,0.003646419,0.9701,,,,,,183,0,183,0,1,,,,,
,,426822,001,2023-07-31_12h45.09.547,arm3_eps,2022.2.5,Win32,59.79430758,5fc8088906bd7a10c6eced41,64c7fed44a04f777bb1e18ce,64c80117a7ea0453df128367,right,-1,0.75,0.3714,22,0.015312208,0.2001,,,,,,184,0,184,0,1,,,,,
,,426822,001,2023-07-31_12h45.09.547,arm3_eps,2022.2.5,Win32,59.79430758,5fc8088906bd7a10c6eced41,64c7fed44a04f777bb1e18ce,64c80117a7ea0453df128367,right,-1,0.75,0.3714,22,0.004047902,0.1676,,,,,,185,0,185,0,1,,,,,
,,426822,001,2023-07-31_12h45.09.547,arm3_eps,2022.2.5,Win32,59.79430758,5fc8088906bd7a10c6eced41,64c7fed44a04f777bb1e18ce,64c80117a7ea0453df128367,right,-1,0.75,0.3714,22,-0.050317382,0.2674,,,,,,186,0,186,0,1,,,,,
,,426822,001,2023-07-31_12h45.09.547,arm3_eps,2022.2.5,Win32,59.79430758,5fc8088906bd7a10c6eced41,64c7fed44a04f777bb1e18ce,64c80117a7ea0453df128367,down,-1,0.75,0.3714,23,0,0.6686,,,,,,187,0,187,0,1,,,,,
,,426822,001,2023-07-31_12h45.09.547,arm3_eps,2022.2.5,Win32,59.79430758,5fc8088906bd7a10c6eced41,64c7fed44a04f777bb1e18ce,64c80117a7ea0453df128367,right,-1,0.75,0.3714,23,0.004748291,0.9873,,,,,,188,0,188,0,1,,,,,
,,426822,001,2023-07-31_12h45.09.547,arm3_eps,2022.2.5,Win32,59.79430758,5fc8088906bd7a10c6eced41,64c7fed44a04f777bb1e18ce,64c80117a7ea0453df128367,right,-1,0.75,0.3714,23,0.005009684,0.2844,,,,,,189,0,189,0,1,,,,,
,,426822,001,2023-07-31_12h45.09.547,arm3_eps,2022.2.5,Win32,59.79430758,5fc8088906bd7a10c6eced41,64c7fed44a04f777bb1e18ce,64c80117a7ea0453df128367,right,-1,0.75,0.3714,23,-0.013182398,0.2413,,,,,,190,0,190,0,1,,,,,
,,426822,001,2023-07-31_12h45.09.547,arm3_eps,2022.2.5,Win32,59.79430758,5fc8088906bd7a10c6eced41,64c7fed44a04f777bb1e18ce,64c80117a7ea0453df128367,down,-1,0.75,0.3714,23,0,0.6359,,,,,,191,0,191,0,1,,,,,
,,426822,001,2023-07-31_12h45.09.547,arm3_eps,2022.2.5,Win32,59.79430758,5fc8088906bd7a10c6eced41,64c7fed44a04f777bb1e18ce,64c80117a7ea0453df128367,right,-1,0.75,0.3714,23,-0.021327987,0.8865,,,,,,192,0,192,0,1,,,,,
,,426822,001,2023-07-31_12h45.09.547,arm3_eps,2022.2.5,Win32,59.79430758,5fc8088906bd7a10c6eced41,64c7fed44a04f777bb1e18ce,64c80117a7ea0453df128367,right,-1,0.75,0.3714,23,0.015071188,0.2582,,,,,,193,0,193,0,1,,,,,
,,426822,001,2023-07-31_12h45.09.547,arm3_eps,2022.2.5,Win32,59.79430758,5fc8088906bd7a10c6eced41,64c7fed44a04f777bb1e18ce,64c80117a7ea0453df128367,right,-1,0.75,0.3714,23,0.063109328,0.2008,,,,,,194,0,194,0,1,,,,,
,,426822,001,2023-07-31_12h45.09.547,arm3_eps,2022.2.5,Win32,59.79430758,5fc8088906bd7a10c6eced41,64c7fed44a04f777bb1e18ce,64c80117a7ea0453df128367,up,-1,0.75,0.3714,22,0,0.535,,,,,,195,0,195,0,1,,,,,
,,426822,001,2023-07-31_12h45.09.547,arm3_eps,2022.2.5,Win32,59.79430758,5fc8088906bd7a10c6eced41,64c7fed44a04f777bb1e18ce,64c80117a7ea0453df128367,right,-1,0.75,0.3714,22,0.004922664,2.1746,,,,,,196,0,196,0,1,,,,,
,,426822,001,2023-07-31_12h45.09.547,arm3_eps,2022.2.5,Win32,59.79430758,5fc8088906bd7a10c6eced41,64c7fed44a04f777bb1e18ce,64c80117a7ea0453df128367,right,-1,0.75,0.3714,22,-0.02863314,0.3174,,,,,,197,0,197,0,1,,,,,
,,426822,001,2023-07-31_12h45.09.547,arm3_eps,2022.2.5,Win32,59.79430758,5fc8088906bd7a10c6eced41,64c7fed44a04f777bb1e18ce,64c80117a7ea0453df128367,right,-1,0.75,0.3714,22,-0.041275005,0.2507,,,,,,198,0,198,0,1,,,,,
,,426822,001,2023-07-31_12h45.09.547,arm3_eps,2022.2.5,Win32,59.79430758,5fc8088906bd7a10c6eced41,64c7fed44a04f777bb1e18ce,64c80117a7ea0453df128367,down,-1,0.75,0.3714,23,0,0.8359,,,,,,199,0,199,0,1,,,,,
,,426822,001,2023-07-31_12h45.09.547,arm3_eps,2022.2.5,Win32,59.79430758,5fc8088906bd7a10c6eced41,64c7fed44a04f777bb1e18ce,64c80117a7ea0453df128367,right,-1,0.75,0.3714,23,-0.011464635,0.9538,,,,,,200,0,200,0,1,,,,,
,,426822,001,2023-07-31_12h45.09.547,arm3_eps,2022.2.5,Win32,59.79430758,5fc8088906bd7a10c6eced41,64c7fed44a04f777bb1e18ce,64c80117a7ea0453df128367,right,-1,0.75,0.3714,23,-0.024718554,0.3003,,,,,,201,0,201,0,1,,,,,
,,426822,001,2023-07-31_12h45.09.547,arm3_eps,2022.2.5,Win32,59.79430758,5fc8088906bd7a10c6eced41,64c7fed44a04f777bb1e18ce,64c80117a7ea0453df128367,right,-1,0.75,0.3714,23,-0.020600924,0.2343,,,,,,202,0,202,0,1,,,,,
,,426822,001,2023-07-31_12h45.09.547,arm3_eps,2022.2.5,Win32,59.79430758,5fc8088906bd7a10c6eced41,64c7fed44a04f777bb1e18ce,64c80117a7ea0453df128367,right,-1,0.75,0.3714,23,-0.038820023,0.4516,,,,,,203,0,203,0,1,,,,,
,,426822,001,2023-07-31_12h45.09.547,arm3_eps,2022.2.5,Win32,59.79430758,5fc8088906bd7a10c6eced41,64c7fed44a04f777bb1e18ce,64c80117a7ea0453df128367,down,1,0.75,0.3714,24,0,0.3973,,,,,,204,0,204,0,1,,,,,
,,426822,001,2023-07-31_12h45.09.547,arm3_eps,2022.2.5,Win32,59.79430758,5fc8088906bd7a10c6eced41,64c7fed44a04f777bb1e18ce,64c80117a7ea0453df128367,right,1,0.75,0.3714,24,0.000473175,0.9371,,,,,,205,0,205,0,1,,,,,
,,426822,001,2023-07-31_12h45.09.547,arm3_eps,2022.2.5,Win32,59.79430758,5fc8088906bd7a10c6eced41,64c7fed44a04f777bb1e18ce,64c80117a7ea0453df128367,right,1,0.75,0.3714,24,0.009492738,0.2675,,,,,,206,0,206,0,1,,,,,
,,426822,001,2023-07-31_12h45.09.547,arm3_eps,2022.2.5,Win32,59.79430758,5fc8088906bd7a10c6eced41,64c7fed44a04f777bb1e18ce,64c80117a7ea0453df128367,right,1,0.75,0.3714,24,0.015796449,0.2008,,,,,,207,0,207,0,1,,,,,
,,426822,001,2023-07-31_12h45.09.547,arm3_eps,2022.2.5,Win32,59.79430758,5fc8088906bd7a10c6eced41,64c7fed44a04f777bb1e18ce,64c80117a7ea0453df128367,right,1,0.75,0.3714,24,0.007820985,0.2345,,,,,,208,0,208,0,1,,,,,
,,426822,001,2023-07-31_12h45.09.547,arm3_eps,2022.2.5,Win32,59.79430758,5fc8088906bd7a10c6eced41,64c7fed44a04f777bb1e18ce,64c80117a7ea0453df128367,up,1,0.75,0.3714,24,0,0.786,,,,,,209,0,209,0,1,,,,,
,,426822,001,2023-07-31_12h45.09.547,arm3_eps,2022.2.5,Win32,59.79430758,5fc8088906bd7a10c6eced41,64c7fed44a04f777bb1e18ce,64c80117a7ea0453df128367,right,1,0.75,0.3714,24,-0.008010002,0.8857,,,,,,210,0,210,0,1,,,,,
,,426822,001,2023-07-31_12h45.09.547,arm3_eps,2022.2.5,Win32,59.79430758,5fc8088906bd7a10c6eced41,64c7fed44a04f777bb1e18ce,64c80117a7ea0453df128367,right,1,0.75,0.3714,24,0.023346878,0.234,,,,,,211,0,211,0,1,,,,,
,,426822,001,2023-07-31_12h45.09.547,arm3_eps,2022.2.5,Win32,59.79430758,5fc8088906bd7a10c6eced41,64c7fed44a04f777bb1e18ce,64c80117a7ea0453df128367,right,1,0.75,0.3714,24,0.052638587,0.1836,,,,,,212,0,212,0,1,,,,,
,,426822,001,2023-07-31_12h45.09.547,arm3_eps,2022.2.5,Win32,59.79430758,5fc8088906bd7a10c6eced41,64c7fed44a04f777bb1e18ce,64c80117a7ea0453df128367,right,1,0.75,0.3714,24,0.085091555,0.184,,,,,,213,0,213,0,1,,,,,
,,426822,001,2023-07-31_12h45.09.547,arm3_eps,2022.2.5,Win32,59.79430758,5fc8088906bd7a10c6eced41,64c7fed44a04f777bb1e18ce,64c80117a7ea0453df128367,up,1,0.75,0.3714,24,0,0.3344,,,,,,214,0,214,0,1,,,,,
,,426822,001,2023-07-31_12h45.09.547,arm3_eps,2022.2.5,Win32,59.79430758,5fc8088906bd7a10c6eced41,64c7fed44a04f777bb1e18ce,64c80117a7ea0453df128367,right,1,0.75,0.3714,24,-0.009400157,0.8701,,,,,,215,0,215,0,1,,,,,
,,426822,001,2023-07-31_12h45.09.547,arm3_eps,2022.2.5,Win32,59.79430758,5fc8088906bd7a10c6eced41,64c7fed44a04f777bb1e18ce,64c80117a7ea0453df128367,right,1,0.75,0.3714,24,0.010871073,0.2,,,,,,216,0,216,0,1,,,,,
,,426822,001,2023-07-31_12h45.09.547,arm3_eps,2022.2.5,Win32,59.79430758,5fc8088906bd7a10c6eced41,64c7fed44a04f777bb1e18ce,64c80117a7ea0453df128367,right,1,0.75,0.3714,24,-0.003608848,0.1834,,,,,,217,0,217,0,1,,,,,
,,426822,001,2023-07-31_12h45.09.547,arm3_eps,2022.2.5,Win32,59.79430758,5fc8088906bd7a10c6eced41,64c7fed44a04f777bb1e18ce,64c80117a7ea0453df128367,right,1,0.75,0.3714,24,0.018365225,0.1502,,,,,,218,0,218,0,1,,,,,
,,426822,001,2023-07-31_12h45.09.547,arm3_eps,2022.2.5,Win32,59.79430758,5fc8088906bd7a10c6eced41,64c7fed44a04f777bb1e18ce,64c80117a7ea0453df128367,up,-1,0.75,0.3714,25,0,0.5858,,,,,,219,0,219,0,1,,,,,
,,426822,001,2023-07-31_12h45.09.547,arm3_eps,2022.2.5,Win32,59.79430758,5fc8088906bd7a10c6eced41,64c7fed44a04f777bb1e18ce,64c80117a7ea0453df128367,right,-1,0.75,0.3714,25,-0.003357583,0.869,,,,,,220,0,220,0,1,,,,,
,,426822,001,2023-07-31_12h45.09.547,arm3_eps,2022.2.5,Win32,59.79430758,5fc8088906bd7a10c6eced41,64c7fed44a04f777bb1e18ce,64c80117a7ea0453df128367,right,-1,0.75,0.3714,25,0.000813622,0.2341,,,,,,221,0,221,0,1,,,,,
,,426822,001,2023-07-31_12h45.09.547,arm3_eps,2022.2.5,Win32,59.79430758,5fc8088906bd7a10c6eced41,64c7fed44a04f777bb1e18ce,64c80117a7ea0453df128367,right,-1,0.75,0.3714,25,-0.01344179,0.1677,,,,,,222,0,222,0,1,,,,,
,,426822,001,2023-07-31_12h45.09.547,arm3_eps,2022.2.5,Win32,59.79430758,5fc8088906bd7a10c6eced41,64c7fed44a04f777bb1e18ce,64c80117a7ea0453df128367,right,-1,0.75,0.3714,25,-0.023348309,0.2013,,,,,,223,0,223,0,1,,,,,
,,426822,001,2023-07-31_12h45.09.547,arm3_eps,2022.2.5,Win32,59.79430758,5fc8088906bd7a10c6eced41,64c7fed44a04f777bb1e18ce,64c80117a7ea0453df128367,right,-1,0.75,0.3714,25,-0.027972078,0.201,,,,,,224,0,224,0,1,,,,,
,,426822,001,2023-07-31_12h45.09.547,arm3_eps,2022.2.5,Win32,59.79430758,5fc8088906bd7a10c6eced41,64c7fed44a04f777bb1e18ce,64c80117a7ea0453df128367,down,-1,0.75,0.3714,26,0,0.6359,,,,,,225,0,225,0,1,,,,,
,,426822,001,2023-07-31_12h45.09.547,arm3_eps,2022.2.5,Win32,59.79430758,5fc8088906bd7a10c6eced41,64c7fed44a04f777bb1e18ce,64c80117a7ea0453df128367,right,-1,0.75,0.3714,26,-0.017261555,0.9871,,,,,,226,0,226,0,1,,,,,
,,426822,001,2023-07-31_12h45.09.547,arm3_eps,2022.2.5,Win32,59.79430758,5fc8088906bd7a10c6eced41,64c7fed44a04f777bb1e18ce,64c80117a7ea0453df128367,right,-1,0.75,0.3714,26,-0.011592109,0.2841,,,,,,227,0,227,0,1,,,,,
,,426822,001,2023-07-31_12h45.09.547,arm3_eps,2022.2.5,Win32,59.79430758,5fc8088906bd7a10c6eced41,64c7fed44a04f777bb1e18ce,64c80117a7ea0453df128367,right,-1,0.75,0.3714,26,-0.031835271,0.1841,,,,,,228,0,228,0,1,,,,,
,,426822,001,2023-07-31_12h45.09.547,arm3_eps,2022.2.5,Win32,59.79430758,5fc8088906bd7a10c6eced41,64c7fed44a04f777bb1e18ce,64c80117a7ea0453df128367,right,-1,0.75,0.3714,26,-0.050904892,0.2847,,,,,,229,0,229,0,1,,,,,
,,426822,001,2023-07-31_12h45.09.547,arm3_eps,2022.2.5,Win32,59.79430758,5fc8088906bd7a10c6eced41,64c7fed44a04f777bb1e18ce,64c80117a7ea0453df128367,down,-1,0.75,0.3714,27,0,0.3682,,,,,,230,0,230,0,1,,,,,
,,426822,001,2023-07-31_12h45.09.547,arm3_eps,2022.2.5,Win32,59.79430758,5fc8088906bd7a10c6eced41,64c7fed44a04f777bb1e18ce,64c80117a7ea0453df128367,right,-1,0.75,0.3714,27,-0.021855715,0.9703,,,,,,231,0,231,0,1,,,,,
,,426822,001,2023-07-31_12h45.09.547,arm3_eps,2022.2.5,Win32,59.79430758,5fc8088906bd7a10c6eced41,64c7fed44a04f777bb1e18ce,64c80117a7ea0453df128367,right,-1,0.75,0.3714,27,-0.022706643,0.234,,,,,,232,0,232,0,1,,,,,
,,426822,001,2023-07-31_12h45.09.547,arm3_eps,2022.2.5,Win32,59.79430758,5fc8088906bd7a10c6eced41,64c7fed44a04f777bb1e18ce,64c80117a7ea0453df128367,right,-1,0.75,0.3714,27,-0.034812169,0.2006,,,,,,233,0,233,0,1,,,,,
,,426822,001,2023-07-31_12h45.09.547,arm3_eps,2022.2.5,Win32,59.79430758,5fc8088906bd7a10c6eced41,64c7fed44a04f777bb1e18ce,64c80117a7ea0453df128367,down,1,0.75,0.3714,28,0,0.4686,,,,,,234,0,234,0,1,,,,,
,,426822,001,2023-07-31_12h45.09.547,arm3_eps,2022.2.5,Win32,59.79430758,5fc8088906bd7a10c6eced41,64c7fed44a04f777bb1e18ce,64c80117a7ea0453df128367,right,1,0.75,0.3714,28,-0.017978202,0.9536,,,,,,235,0,235,0,1,,,,,
,,426822,001,2023-07-31_12h45.09.547,arm3_eps,2022.2.5,Win32,59.79430758,5fc8088906bd7a10c6eced41,64c7fed44a04f777bb1e18ce,64c80117a7ea0453df128367,right,1,0.75,0.3714,28,-0.012993809,0.2173,,,,,,236,0,236,0,1,,,,,
,,426822,001,2023-07-31_12h45.09.547,arm3_eps,2022.2.5,Win32,59.79430758,5fc8088906bd7a10c6eced41,64c7fed44a04f777bb1e18ce,64c80117a7ea0453df128367,right,1,0.75,0.3714,28,-0.021304968,0.184,,,,,,237,0,237,0,1,,,,,
,,426822,001,2023-07-31_12h45.09.547,arm3_eps,2022.2.5,Win32,59.79430758,5fc8088906bd7a10c6eced41,64c7fed44a04f777bb1e18ce,64c80117a7ea0453df128367,right,1,0.75,0.3714,28,-0.030766012,0.1677,,,,,,238,0,238,0,1,,,,,
,,426822,001,2023-07-31_12h45.09.547,arm3_eps,2022.2.5,Win32,59.79430758,5fc8088906bd7a10c6eced41,64c7fed44a04f777bb1e18ce,64c80117a7ea0453df128367,down,1,0.75,0.3714,27,0,0.4015,,,,,,239,0,239,0,1,,,,,
,,426822,001,2023-07-31_12h45.09.547,arm3_eps,2022.2.5,Win32,59.79430758,5fc8088906bd7a10c6eced41,64c7fed44a04f777bb1e18ce,64c80117a7ea0453df128367,right,1,0.75,0.3714,27,-0.005189186,0.9369,,,,,,240,0,240,0,1,,,,,
,,426822,001,2023-07-31_12h45.09.547,arm3_eps,2022.2.5,Win32,59.79430758,5fc8088906bd7a10c6eced41,64c7fed44a04f777bb1e18ce,64c80117a7ea0453df128367,right,1,0.75,0.3714,27,0.007562759,0.1837,,,,,,241,0,241,0,1,,,,,
,,426822,001,2023-07-31_12h45.09.547,arm3_eps,2022.2.5,Win32,59.79430758,5fc8088906bd7a10c6eced41,64c7fed44a04f777bb1e18ce,64c80117a7ea0453df128367,right,1,0.75,0.3714,27,0.001556542,0.184,,,,,,242,0,242,0,1,,,,,
,,426822,001,2023-07-31_12h45.09.547,arm3_eps,2022.2.5,Win32,59.79430758,5fc8088906bd7a10c6eced41,64c7fed44a04f777bb1e18ce,64c80117a7ea0453df128367,right,1,0.75,0.3714,27,0.028448679,0.1674,,,,,,243,0,243,0,1,,,,,
,,426822,001,2023-07-31_12h45.09.547,arm3_eps,2022.2.5,Win32,59.79430758,5fc8088906bd7a10c6eced41,64c7fed44a04f777bb1e18ce,64c80117a7ea0453df128367,right,1,0.75,0.3714,27,0.037093691,0.3507,,,,,,244,0,244,0,1,,,,,
,,426822,001,2023-07-31_12h45.09.547,arm3_eps,2022.2.5,Win32,59.79430758,5fc8088906bd7a10c6eced41,64c7fed44a04f777bb1e18ce,64c80117a7ea0453df128367,up,1,0.75,0.3714,27,0,0.5024,,,,,,245,0,245,0,1,,,,,
,,426822,001,2023-07-31_12h45.09.547,arm3_eps,2022.2.5,Win32,59.79430758,5fc8088906bd7a10c6eced41,64c7fed44a04f777bb1e18ce,64c80117a7ea0453df128367,right,1,0.75,0.3714,27,0.030614949,0.7367,,,,,,246,0,246,0,1,,,,,
,,426822,001,2023-07-31_12h45.09.547,arm3_eps,2022.2.5,Win32,59.79430758,5fc8088906bd7a10c6eced41,64c7fed44a04f777bb1e18ce,64c80117a7ea0453df128367,right,1,0.75,0.3714,27,0.014822322,0.2334,,,,,,247,0,247,0,1,,,,,
,,426822,001,2023-07-31_12h45.09.547,arm3_eps,2022.2.5,Win32,59.79430758,5fc8088906bd7a10c6eced41,64c7fed44a04f777bb1e18ce,64c80117a7ea0453df128367,right,1,0.75,0.3714,27,-0.003060055,0.1675,,,,,,248,0,248,0,1,,,,,
,,426822,001,2023-07-31_12h45.09.547,arm3_eps,2022.2.5,Win32,59.79430758,5fc8088906bd7a10c6eced41,64c7fed44a04f777bb1e18ce,64c80117a7ea0453df128367,right,1,0.75,0.3714,27,-0.016693495,0.2174,,,,,,249,0,249,0,1,,,,,
,,426822,001,2023-07-31_12h45.09.547,arm3_eps,2022.2.5,Win32,59.79430758,5fc8088906bd7a10c6eced41,64c7fed44a04f777bb1e18ce,64c80117a7ea0453df128367,right,1,0.75,0.3714,27,-0.033798279,0.2345,,,,,,250,0,250,0,1,,,,,
,,426822,001,2023-07-31_12h45.09.547,arm3_eps,2022.2.5,Win32,59.79430758,5fc8088906bd7a10c6eced41,64c7fed44a04f777bb1e18ce,64c80117a7ea0453df128367,right,1,0.75,0.3714,27,-0.031142419,0.1836,,,,,,251,0,251,0,1,,,,,
,,426822,001,2023-07-31_12h45.09.547,arm3_eps,2022.2.5,Win32,59.79430758,5fc8088906bd7a10c6eced41,64c7fed44a04f777bb1e18ce,64c80117a7ea0453df128367,down,-1,0.75,0.3714,26,0,0.8189,,,,,,252,0,252,0,1,,,,,
,,426822,001,2023-07-31_12h45.09.547,arm3_eps,2022.2.5,Win32,59.79430758,5fc8088906bd7a10c6eced41,64c7fed44a04f777bb1e18ce,64c80117a7ea0453df128367,right,-1,0.75,0.3714,26,-0.026443062,1.0538,,,,,,253,0,253,0,1,,,,,
,,426822,001,2023-07-31_12h45.09.547,arm3_eps,2022.2.5,Win32,59.79430758,5fc8088906bd7a10c6eced41,64c7fed44a04f777bb1e18ce,64c80117a7ea0453df128367,right,-1,0.75,0.3714,26,-0.02816912,0.3178,,,,,,254,0,254,0,1,,,,,
,,426822,001,2023-07-31_12h45.09.547,arm3_eps,2022.2.5,Win32,59.79430758,5fc8088906bd7a10c6eced41,64c7fed44a04f777bb1e18ce,64c80117a7ea0453df128367,right,-1,0.75,0.3714,26,-0.052313811,0.2677,,,,,,255,0,255,0,1,,,,,
,,426822,001,2023-07-31_12h45.09.547,arm3_eps,2022.2.5,Win32,59.79430758,5fc8088906bd7a10c6eced41,64c7fed44a04f777bb1e18ce,64c80117a7ea0453df128367,right,-1,0.75,0.3714,26,-0.05430849,0.2009,,,,,,256,0,256,0,1,,,,,
