space_bar.keys,space_bar.rt,participant,session,date,expName,psychopyVersion,OS,frameRate,PROLIFIC_PID,STUDY_ID,SESSION_ID,resp.keys,state,q_prob,eps_prob,score,price,resp.rt,train.thisRepN,train.thisTrialN,train.thisN,train.thisIndex,train.ran,steps.thisRepN,steps.thisTrialN,steps.thisN,steps.thisIndex,steps.ran,blocks.thisRepN,blocks.thisTrialN,blocks.thisN,blocks.thisIndex,blocks.ran
space,11.0502,456827,001,2023-07-31_20h43.19.824,arm3_eps,2022.2.5,Win32,30.01020347,6310a2fb7a4dd7e9a7e72dea,64c7fed44a04f777bb1e18ce,64c800b4c90673b07a763bf8,,,,,,,,,,,,,,,,,,,,,,
space,3.1442,456827,001,2023-07-31_20h43.19.824,arm3_eps,2022.2.5,Win32,30.01020347,6310a2fb7a4dd7e9a7e72dea,64c7fed44a04f777bb1e18ce,64c800b4c90673b07a763bf8,,,,,,,,,,,,,,,,,,,,,,
space,16.5823,456827,001,2023-07-31_20h43.19.824,arm3_eps,2022.2.5,Win32,30.01020347,6310a2fb7a4dd7e9a7e72dea,64c7fed44a04f777bb1e18ce,64c800b4c90673b07a763bf8,,,,,,,,,,,,,,,,,,,,,,
space,17.1216,456827,001,2023-07-31_20h43.19.824,arm3_eps,2022.2.5,Win32,30.01020347,6310a2fb7a4dd7e9a7e72dea,64c7fed44a04f777bb1e18ce,64c800b4c90673b07a763bf8,,,,,,,,,,,,,,,,,,,,,,
space,21.4634,456827,001,2023-07-31_20h43.19.824,arm3_eps,2022.2.5,Win32,30.01020347,6310a2fb7a4dd7e9a7e72dea,64c7fed44a04f777bb1e18ce,64c800b4c90673b07a763bf8,,,,,,,,,,,,,,,,,,,,,,
space,8.213,456827,001,2023-07-31_20h43.19.824,arm3_eps,2022.2.5,Win32,30.01020347,6310a2fb7a4dd7e9a7e72dea,64c7fed44a04f777bb1e18ce,64c800b4c90673b07a763bf8,,,,,,,,,,,,,,,,,,,,,,
space,3.027,456827,001,2023-07-31_20h43.19.824,arm3_eps,2022.2.5,Win32,30.01020347,6310a2fb7a4dd7e9a7e72dea,64c7fed44a04f777bb1e18ce,64c800b4c90673b07a763bf8,,,,,,,,,,,,,,,,,,,,,,
,,456827,001,2023-07-31_20h43.19.824,arm3_eps,2022.2.5,Win32,30.01020347,6310a2fb7a4dd7e9a7e72dea,64c7fed44a04f777bb1e18ce,64c800b4c90673b07a763bf8,right,-1,1,0.2429,0,-0.014937456,1.3043,0,0,0,0,1,,,,,,,,,,
,,456827,001,2023-07-31_20h43.19.824,arm3_eps,2022.2.5,Win32,30.01020347,6310a2fb7a4dd7e9a7e72dea,64c7fed44a04f777bb1e18ce,64c800b4c90673b07a763bf8,right,-1,1,0.2429,0,-0.019340423,1.3855,1,0,1,0,1,,,,,,,,,,
,,456827,001,2023-07-31_20h43.19.824,arm3_eps,2022.2.5,Win32,30.01020347,6310a2fb7a4dd7e9a7e72dea,64c7fed44a04f777bb1e18ce,64c800b4c90673b07a763bf8,right,-1,1,0.2429,0,-0.055079266,0.7327,2,0,2,0,1,,,,,,,,,,
,,456827,001,2023-07-31_20h43.19.824,arm3_eps,2022.2.5,Win32,30.01020347,6310a2fb7a4dd7e9a7e72dea,64c7fed44a04f777bb1e18ce,64c800b4c90673b07a763bf8,right,-1,1,0.2429,0,-0.053523925,0.4716,3,0,3,0,1,,,,,,,,,,
,,456827,001,2023-07-31_20h43.19.824,arm3_eps,2022.2.5,Win32,30.01020347,6310a2fb7a4dd7e9a7e72dea,64c7fed44a04f777bb1e18ce,64c800b4c90673b07a763bf8,right,-1,1,0.2429,0,-0.089328143,0.4031,4,0,4,0,1,,,,,,,,,,
,,456827,001,2023-07-31_20h43.19.824,arm3_eps,2022.2.5,Win32,30.01020347,6310a2fb7a4dd7e9a7e72dea,64c7fed44a04f777bb1e18ce,64c800b4c90673b07a763bf8,right,-1,1,0.2429,0,-0.092478011,0.4139,5,0,5,0,1,,,,,,,,,,
,,456827,001,2023-07-31_20h43.19.824,arm3_eps,2022.2.5,Win32,30.01020347,6310a2fb7a4dd7e9a7e72dea,64c7fed44a04f777bb1e18ce,64c800b4c90673b07a763bf8,right,-1,1,0.2429,0,-0.10228392,0.4859,6,0,6,0,1,,,,,,,,,,
,,456827,001,2023-07-31_20h43.19.824,arm3_eps,2022.2.5,Win32,30.01020347,6310a2fb7a4dd7e9a7e72dea,64c7fed44a04f777bb1e18ce,64c800b4c90673b07a763bf8,down,-1,1,0.2429,1,0,1.3491,7,0,7,0,1,,,,,,,,,,
,,456827,001,2023-07-31_20h43.19.824,arm3_eps,2022.2.5,Win32,30.01020347,6310a2fb7a4dd7e9a7e72dea,64c7fed44a04f777bb1e18ce,64c800b4c90673b07a763bf8,right,-1,1,0.2429,1,0.009495888,1.1911,8,0,8,0,1,,,,,,,,,,
,,456827,001,2023-07-31_20h43.19.824,arm3_eps,2022.2.5,Win32,30.01020347,6310a2fb7a4dd7e9a7e72dea,64c7fed44a04f777bb1e18ce,64c800b4c90673b07a763bf8,right,-1,1,0.2429,1,-0.015637425,0.3023,9,0,9,0,1,,,,,,,,,,
,,456827,001,2023-07-31_20h43.19.824,arm3_eps,2022.2.5,Win32,30.01020347,6310a2fb7a4dd7e9a7e72dea,64c7fed44a04f777bb1e18ce,64c800b4c90673b07a763bf8,right,-1,1,0.2429,1,-0.014502439,0.301,10,0,10,0,1,,,,,,,,,,
,,456827,001,2023-07-31_20h43.19.824,arm3_eps,2022.2.5,Win32,30.01020347,6310a2fb7a4dd7e9a7e72dea,64c7fed44a04f777bb1e18ce,64c800b4c90673b07a763bf8,right,-1,1,0.2429,1,-0.048072886,0.283,11,0,11,0,1,,,,,,,,,,
,,456827,001,2023-07-31_20h43.19.824,arm3_eps,2022.2.5,Win32,30.01020347,6310a2fb7a4dd7e9a7e72dea,64c7fed44a04f777bb1e18ce,64c800b4c90673b07a763bf8,right,-1,1,0.2429,1,-0.056873205,0.3227,12,0,12,0,1,,,,,,,,,,
,,456827,001,2023-07-31_20h43.19.824,arm3_eps,2022.2.5,Win32,30.01020347,6310a2fb7a4dd7e9a7e72dea,64c7fed44a04f777bb1e18ce,64c800b4c90673b07a763bf8,down,-1,1,0.2429,2,0,0.3415,13,0,13,0,1,,,,,,,,,,
,,456827,001,2023-07-31_20h43.19.824,arm3_eps,2022.2.5,Win32,30.01020347,6310a2fb7a4dd7e9a7e72dea,64c7fed44a04f777bb1e18ce,64c800b4c90673b07a763bf8,right,-1,1,0.2429,2,-0.064488154,1.0537,14,0,14,0,1,,,,,,,,,,
,,456827,001,2023-07-31_20h43.19.824,arm3_eps,2022.2.5,Win32,30.01020347,6310a2fb7a4dd7e9a7e72dea,64c7fed44a04f777bb1e18ce,64c800b4c90673b07a763bf8,right,-1,1,0.2429,2,-0.055024187,0.2483,15,0,15,0,1,,,,,,,,,,
,,456827,001,2023-07-31_20h43.19.824,arm3_eps,2022.2.5,Win32,30.01020347,6310a2fb7a4dd7e9a7e72dea,64c7fed44a04f777bb1e18ce,64c800b4c90673b07a763bf8,right,-1,1,0.2429,2,-0.080329296,0.2311,16,0,16,0,1,,,,,,,,,,
,,456827,001,2023-07-31_20h43.19.824,arm3_eps,2022.2.5,Win32,30.01020347,6310a2fb7a4dd7e9a7e72dea,64c7fed44a04f777bb1e18ce,64c800b4c90673b07a763bf8,right,-1,1,0.2429,2,-0.083125323,0.3029,17,0,17,0,1,,,,,,,,,,
,,456827,001,2023-07-31_20h43.19.824,arm3_eps,2022.2.5,Win32,30.01020347,6310a2fb7a4dd7e9a7e72dea,64c7fed44a04f777bb1e18ce,64c800b4c90673b07a763bf8,right,-1,1,0.2429,2,-0.107052344,0.2688,18,0,18,0,1,,,,,,,,,,
,,456827,001,2023-07-31_20h43.19.824,arm3_eps,2022.2.5,Win32,30.01020347,6310a2fb7a4dd7e9a7e72dea,64c7fed44a04f777bb1e18ce,64c800b4c90673b07a763bf8,right,-1,1,0.2429,2,-0.094869682,0.3507,19,0,19,0,1,,,,,,,,,,
,,456827,001,2023-07-31_20h43.19.824,arm3_eps,2022.2.5,Win32,30.01020347,6310a2fb7a4dd7e9a7e72dea,64c7fed44a04f777bb1e18ce,64c800b4c90673b07a763bf8,right,-1,1,0.2429,2,-0.073624412,0.3654,20,0,20,0,1,,,,,,,,,,
,,456827,001,2023-07-31_20h43.19.824,arm3_eps,2022.2.5,Win32,30.01020347,6310a2fb7a4dd7e9a7e72dea,64c7fed44a04f777bb1e18ce,64c800b4c90673b07a763bf8,right,-1,1,0.2429,2,-0.092186374,0.8689,21,0,21,0,1,,,,,,,,,,
,,456827,001,2023-07-31_20h43.19.824,arm3_eps,2022.2.5,Win32,30.01020347,6310a2fb7a4dd7e9a7e72dea,64c7fed44a04f777bb1e18ce,64c800b4c90673b07a763bf8,down,-1,1,0.2429,3,0,0.4165,22,0,22,0,1,,,,,,,,,,
,,456827,001,2023-07-31_20h43.19.824,arm3_eps,2022.2.5,Win32,30.01020347,6310a2fb7a4dd7e9a7e72dea,64c7fed44a04f777bb1e18ce,64c800b4c90673b07a763bf8,right,-1,1,0.2429,3,-0.042973008,0.9519,23,0,23,0,1,,,,,,,,,,
,,456827,001,2023-07-31_20h43.19.824,arm3_eps,2022.2.5,Win32,30.01020347,6310a2fb7a4dd7e9a7e72dea,64c7fed44a04f777bb1e18ce,64c800b4c90673b07a763bf8,right,-1,1,0.2429,3,-0.049179307,0.2293,24,0,24,0,1,,,,,,,,,,
,,456827,001,2023-07-31_20h43.19.824,arm3_eps,2022.2.5,Win32,30.01020347,6310a2fb7a4dd7e9a7e72dea,64c7fed44a04f777bb1e18ce,64c800b4c90673b07a763bf8,right,-1,1,0.2429,3,-0.045893408,0.1654,25,0,25,0,1,,,,,,,,,,
,,456827,001,2023-07-31_20h43.19.824,arm3_eps,2022.2.5,Win32,30.01020347,6310a2fb7a4dd7e9a7e72dea,64c7fed44a04f777bb1e18ce,64c800b4c90673b07a763bf8,right,-1,1,0.2429,3,-0.066101692,0.1628,26,0,26,0,1,,,,,,,,,,
,,456827,001,2023-07-31_20h43.19.824,arm3_eps,2022.2.5,Win32,30.01020347,6310a2fb7a4dd7e9a7e72dea,64c7fed44a04f777bb1e18ce,64c800b4c90673b07a763bf8,right,-1,1,0.2429,3,-0.061803894,0.2601,27,0,27,0,1,,,,,,,,,,
,,456827,001,2023-07-31_20h43.19.824,arm3_eps,2022.2.5,Win32,30.01020347,6310a2fb7a4dd7e9a7e72dea,64c7fed44a04f777bb1e18ce,64c800b4c90673b07a763bf8,right,-1,1,0.2429,3,-0.08165085,0.1683,28,0,28,0,1,,,,,,,,,,
,,456827,001,2023-07-31_20h43.19.824,arm3_eps,2022.2.5,Win32,30.01020347,6310a2fb7a4dd7e9a7e72dea,64c7fed44a04f777bb1e18ce,64c800b4c90673b07a763bf8,right,-1,1,0.2429,3,-0.082409543,0.1368,29,0,29,0,1,,,,,,,,,,
,,456827,001,2023-07-31_20h43.19.824,arm3_eps,2022.2.5,Win32,30.01020347,6310a2fb7a4dd7e9a7e72dea,64c7fed44a04f777bb1e18ce,64c800b4c90673b07a763bf8,right,-1,1,0.2429,3,-0.084646015,0.1661,30,0,30,0,1,,,,,,,,,,
,,456827,001,2023-07-31_20h43.19.824,arm3_eps,2022.2.5,Win32,30.01020347,6310a2fb7a4dd7e9a7e72dea,64c7fed44a04f777bb1e18ce,64c800b4c90673b07a763bf8,down,1,1,0.2429,4,0,0.1875,31,0,31,0,1,,,,,,,,,,
,,456827,001,2023-07-31_20h43.19.824,arm3_eps,2022.2.5,Win32,30.01020347,6310a2fb7a4dd7e9a7e72dea,64c7fed44a04f777bb1e18ce,64c800b4c90673b07a763bf8,right,1,1,0.2429,4,0.018851658,0.8618,32,0,32,0,1,,,,,,,,,,
,,456827,001,2023-07-31_20h43.19.824,arm3_eps,2022.2.5,Win32,30.01020347,6310a2fb7a4dd7e9a7e72dea,64c7fed44a04f777bb1e18ce,64c800b4c90673b07a763bf8,right,1,1,0.2429,4,0.014250274,0.148,33,0,33,0,1,,,,,,,,,,
,,456827,001,2023-07-31_20h43.19.824,arm3_eps,2022.2.5,Win32,30.01020347,6310a2fb7a4dd7e9a7e72dea,64c7fed44a04f777bb1e18ce,64c800b4c90673b07a763bf8,right,1,1,0.2429,4,0.01216413,0.1508,34,0,34,0,1,,,,,,,,,,
,,456827,001,2023-07-31_20h43.19.824,arm3_eps,2022.2.5,Win32,30.01020347,6310a2fb7a4dd7e9a7e72dea,64c7fed44a04f777bb1e18ce,64c800b4c90673b07a763bf8,right,1,1,0.2429,4,0.00258276,0.1522,35,0,35,0,1,,,,,,,,,,
,,456827,001,2023-07-31_20h43.19.824,arm3_eps,2022.2.5,Win32,30.01020347,6310a2fb7a4dd7e9a7e72dea,64c7fed44a04f777bb1e18ce,64c800b4c90673b07a763bf8,right,1,1,0.2429,4,0.018833496,0.1368,36,0,36,0,1,,,,,,,,,,
,,456827,001,2023-07-31_20h43.19.824,arm3_eps,2022.2.5,Win32,30.01020347,6310a2fb7a4dd7e9a7e72dea,64c7fed44a04f777bb1e18ce,64c800b4c90673b07a763bf8,right,1,1,0.2429,4,0.0217151,0.1329,37,0,37,0,1,,,,,,,,,,
,,456827,001,2023-07-31_20h43.19.824,arm3_eps,2022.2.5,Win32,30.01020347,6310a2fb7a4dd7e9a7e72dea,64c7fed44a04f777bb1e18ce,64c800b4c90673b07a763bf8,right,1,1,0.2429,4,0.026712361,0.2461,38,0,38,0,1,,,,,,,,,,
,,456827,001,2023-07-31_20h43.19.824,arm3_eps,2022.2.5,Win32,30.01020347,6310a2fb7a4dd7e9a7e72dea,64c7fed44a04f777bb1e18ce,64c800b4c90673b07a763bf8,up,1,1,0.2429,5,0,0.1947,39,0,39,0,1,,,,,,,,,,
,,456827,001,2023-07-31_20h43.19.824,arm3_eps,2022.2.5,Win32,30.01020347,6310a2fb7a4dd7e9a7e72dea,64c7fed44a04f777bb1e18ce,64c800b4c90673b07a763bf8,right,1,1,0.2429,5,-0.003946745,0.7881,40,0,40,0,1,,,,,,,,,,
,,456827,001,2023-07-31_20h43.19.824,arm3_eps,2022.2.5,Win32,30.01020347,6310a2fb7a4dd7e9a7e72dea,64c7fed44a04f777bb1e18ce,64c800b4c90673b07a763bf8,right,1,1,0.2429,5,0.030075067,0.1429,41,0,41,0,1,,,,,,,,,,
,,456827,001,2023-07-31_20h43.19.824,arm3_eps,2022.2.5,Win32,30.01020347,6310a2fb7a4dd7e9a7e72dea,64c7fed44a04f777bb1e18ce,64c800b4c90673b07a763bf8,right,1,1,0.2429,5,0.031904946,0.1347,42,0,42,0,1,,,,,,,,,,
,,456827,001,2023-07-31_20h43.19.824,arm3_eps,2022.2.5,Win32,30.01020347,6310a2fb7a4dd7e9a7e72dea,64c7fed44a04f777bb1e18ce,64c800b4c90673b07a763bf8,right,1,1,0.2429,5,0.026943639,0.1142,43,0,43,0,1,,,,,,,,,,
,,456827,001,2023-07-31_20h43.19.824,arm3_eps,2022.2.5,Win32,30.01020347,6310a2fb7a4dd7e9a7e72dea,64c7fed44a04f777bb1e18ce,64c800b4c90673b07a763bf8,right,1,1,0.2429,5,0.026386124,0.1069,44,0,44,0,1,,,,,,,,,,
,,456827,001,2023-07-31_20h43.19.824,arm3_eps,2022.2.5,Win32,30.01020347,6310a2fb7a4dd7e9a7e72dea,64c7fed44a04f777bb1e18ce,64c800b4c90673b07a763bf8,right,1,1,0.2429,5,0.044228198,0.1257,45,0,45,0,1,,,,,,,,,,
,,456827,001,2023-07-31_20h43.19.824,arm3_eps,2022.2.5,Win32,30.01020347,6310a2fb7a4dd7e9a7e72dea,64c7fed44a04f777bb1e18ce,64c800b4c90673b07a763bf8,right,1,1,0.2429,5,0.051093319,0.1275,46,0,46,0,1,,,,,,,,,,
,,456827,001,2023-07-31_20h43.19.824,arm3_eps,2022.2.5,Win32,30.01020347,6310a2fb7a4dd7e9a7e72dea,64c7fed44a04f777bb1e18ce,64c800b4c90673b07a763bf8,up,1,1,0.2429,6,0,0.1859,47,0,47,0,1,,,,,,,,,,
,,456827,001,2023-07-31_20h43.19.824,arm3_eps,2022.2.5,Win32,30.01020347,6310a2fb7a4dd7e9a7e72dea,64c7fed44a04f777bb1e18ce,64c800b4c90673b07a763bf8,right,1,1,0.2429,6,0.014628402,0.7896,48,0,48,0,1,,,,,,,,,,
,,456827,001,2023-07-31_20h43.19.824,arm3_eps,2022.2.5,Win32,30.01020347,6310a2fb7a4dd7e9a7e72dea,64c7fed44a04f777bb1e18ce,64c800b4c90673b07a763bf8,right,1,1,0.2429,6,0.002120145,0.1474,49,0,49,0,1,,,,,,,,,,
space,18.5681,456827,001,2023-07-31_20h43.19.824,arm3_eps,2022.2.5,Win32,30.01020347,6310a2fb7a4dd7e9a7e72dea,64c7fed44a04f777bb1e18ce,64c800b4c90673b07a763bf8,,,,,,,,,,,,,,,,,,,,,,
space,20.2788,456827,001,2023-07-31_20h43.19.824,arm3_eps,2022.2.5,Win32,30.01020347,6310a2fb7a4dd7e9a7e72dea,64c7fed44a04f777bb1e18ce,64c800b4c90673b07a763bf8,,,,,,,,,,,,,,,,,,,,,,
space,10.842,456827,001,2023-07-31_20h43.19.824,arm3_eps,2022.2.5,Win32,30.01020347,6310a2fb7a4dd7e9a7e72dea,64c7fed44a04f777bb1e18ce,64c800b4c90673b07a763bf8,,,,,,,,,,,,,,,,,,,,,,
space,3.9658,456827,001,2023-07-31_20h43.19.824,arm3_eps,2022.2.5,Win32,30.01020347,6310a2fb7a4dd7e9a7e72dea,64c7fed44a04f777bb1e18ce,64c800b4c90673b07a763bf8,,,,,,,,,,,,,,,,,,,,,,
space,7.7472,456827,001,2023-07-31_20h43.19.824,arm3_eps,2022.2.5,Win32,30.01020347,6310a2fb7a4dd7e9a7e72dea,64c7fed44a04f777bb1e18ce,64c800b4c90673b07a763bf8,,,,,,,,,,,,,,,,,,,,,,
space,1.5747,456827,001,2023-07-31_20h43.19.824,arm3_eps,2022.2.5,Win32,30.01020347,6310a2fb7a4dd7e9a7e72dea,64c7fed44a04f777bb1e18ce,64c800b4c90673b07a763bf8,,,,,,,,,,,,,,,,,,,,,,
,,456827,001,2023-07-31_20h43.19.824,arm3_eps,2022.2.5,Win32,30.01020347,6310a2fb7a4dd7e9a7e72dea,64c7fed44a04f777bb1e18ce,64c800b4c90673b07a763bf8,right,1,0.75,0.2429,0,-0.000206551,0.9738,0,0,0,0,1,,,,,,,,,,
,,456827,001,2023-07-31_20h43.19.824,arm3_eps,2022.2.5,Win32,30.01020347,6310a2fb7a4dd7e9a7e72dea,64c7fed44a04f777bb1e18ce,64c800b4c90673b07a763bf8,right,1,0.75,0.2429,0,0.020484216,0.3476,1,0,1,0,1,,,,,,,,,,
,,456827,001,2023-07-31_20h43.19.824,arm3_eps,2022.2.5,Win32,30.01020347,6310a2fb7a4dd7e9a7e72dea,64c7fed44a04f777bb1e18ce,64c800b4c90673b07a763bf8,right,1,0.75,0.2429,0,0.045605597,0.3137,2,0,2,0,1,,,,,,,,,,
,,456827,001,2023-07-31_20h43.19.824,arm3_eps,2022.2.5,Win32,30.01020347,6310a2fb7a4dd7e9a7e72dea,64c7fed44a04f777bb1e18ce,64c800b4c90673b07a763bf8,up,1,0.75,0.2429,1,0,0.5005,3,0,3,0,1,,,,,,,,,,
,,456827,001,2023-07-31_20h43.19.824,arm3_eps,2022.2.5,Win32,30.01020347,6310a2fb7a4dd7e9a7e72dea,64c7fed44a04f777bb1e18ce,64c800b4c90673b07a763bf8,right,1,0.75,0.2429,1,0.019908955,0.8936,4,0,4,0,1,,,,,,,,,,
,,456827,001,2023-07-31_20h43.19.824,arm3_eps,2022.2.5,Win32,30.01020347,6310a2fb7a4dd7e9a7e72dea,64c7fed44a04f777bb1e18ce,64c800b4c90673b07a763bf8,right,1,0.75,0.2429,1,0.021275924,0.1993,5,0,5,0,1,,,,,,,,,,
,,456827,001,2023-07-31_20h43.19.824,arm3_eps,2022.2.5,Win32,30.01020347,6310a2fb7a4dd7e9a7e72dea,64c7fed44a04f777bb1e18ce,64c800b4c90673b07a763bf8,right,1,0.75,0.2429,1,0.017416551,0.1683,6,0,6,0,1,,,,,,,,,,
,,456827,001,2023-07-31_20h43.19.824,arm3_eps,2022.2.5,Win32,30.01020347,6310a2fb7a4dd7e9a7e72dea,64c7fed44a04f777bb1e18ce,64c800b4c90673b07a763bf8,right,1,0.75,0.2429,1,0.03257058,0.1415,7,0,7,0,1,,,,,,,,,,
,,456827,001,2023-07-31_20h43.19.824,arm3_eps,2022.2.5,Win32,30.01020347,6310a2fb7a4dd7e9a7e72dea,64c7fed44a04f777bb1e18ce,64c800b4c90673b07a763bf8,up,-1,0.75,0.2429,2,0,0.4135,8,0,8,0,1,,,,,,,,,,
,,456827,001,2023-07-31_20h43.19.824,arm3_eps,2022.2.5,Win32,30.01020347,6310a2fb7a4dd7e9a7e72dea,64c7fed44a04f777bb1e18ce,64c800b4c90673b07a763bf8,right,-1,0.75,0.2429,2,0.003097583,0.7916,9,0,9,0,1,,,,,,,,,,
,,456827,001,2023-07-31_20h43.19.824,arm3_eps,2022.2.5,Win32,30.01020347,6310a2fb7a4dd7e9a7e72dea,64c7fed44a04f777bb1e18ce,64c800b4c90673b07a763bf8,right,-1,0.75,0.2429,2,0.014582903,0.1358,10,0,10,0,1,,,,,,,,,,
,,456827,001,2023-07-31_20h43.19.824,arm3_eps,2022.2.5,Win32,30.01020347,6310a2fb7a4dd7e9a7e72dea,64c7fed44a04f777bb1e18ce,64c800b4c90673b07a763bf8,right,-1,0.75,0.2429,2,-0.010502036,0.1386,11,0,11,0,1,,,,,,,,,,
,,456827,001,2023-07-31_20h43.19.824,arm3_eps,2022.2.5,Win32,30.01020347,6310a2fb7a4dd7e9a7e72dea,64c7fed44a04f777bb1e18ce,64c800b4c90673b07a763bf8,right,-1,0.75,0.2429,2,-0.015758436,0.1388,12,0,12,0,1,,,,,,,,,,
,,456827,001,2023-07-31_20h43.19.824,arm3_eps,2022.2.5,Win32,30.01020347,6310a2fb7a4dd7e9a7e72dea,64c7fed44a04f777bb1e18ce,64c800b4c90673b07a763bf8,right,-1,0.75,0.2429,2,-0.020531225,0.1352,13,0,13,0,1,,,,,,,,,,
,,456827,001,2023-07-31_20h43.19.824,arm3_eps,2022.2.5,Win32,30.01020347,6310a2fb7a4dd7e9a7e72dea,64c7fed44a04f777bb1e18ce,64c800b4c90673b07a763bf8,right,-1,0.75,0.2429,2,-0.044098758,0.1435,14,0,14,0,1,,,,,,,,,,
,,456827,001,2023-07-31_20h43.19.824,arm3_eps,2022.2.5,Win32,30.01020347,6310a2fb7a4dd7e9a7e72dea,64c7fed44a04f777bb1e18ce,64c800b4c90673b07a763bf8,down,-1,0.75,0.2429,3,0,0.4516,15,0,15,0,1,,,,,,,,,,
,,456827,001,2023-07-31_20h43.19.824,arm3_eps,2022.2.5,Win32,30.01020347,6310a2fb7a4dd7e9a7e72dea,64c7fed44a04f777bb1e18ce,64c800b4c90673b07a763bf8,right,-1,0.75,0.2429,3,-0.023327043,0.7483,16,0,16,0,1,,,,,,,,,,
,,456827,001,2023-07-31_20h43.19.824,arm3_eps,2022.2.5,Win32,30.01020347,6310a2fb7a4dd7e9a7e72dea,64c7fed44a04f777bb1e18ce,64c800b4c90673b07a763bf8,right,-1,0.75,0.2429,3,-0.023468251,0.1615,17,0,17,0,1,,,,,,,,,,
,,456827,001,2023-07-31_20h43.19.824,arm3_eps,2022.2.5,Win32,30.01020347,6310a2fb7a4dd7e9a7e72dea,64c7fed44a04f777bb1e18ce,64c800b4c90673b07a763bf8,right,-1,0.75,0.2429,3,-0.054923815,0.1641,18,0,18,0,1,,,,,,,,,,
,,456827,001,2023-07-31_20h43.19.824,arm3_eps,2022.2.5,Win32,30.01020347,6310a2fb7a4dd7e9a7e72dea,64c7fed44a04f777bb1e18ce,64c800b4c90673b07a763bf8,right,-1,0.75,0.2429,3,-0.056065929,0.1402,19,0,19,0,1,,,,,,,,,,
,,456827,001,2023-07-31_20h43.19.824,arm3_eps,2022.2.5,Win32,30.01020347,6310a2fb7a4dd7e9a7e72dea,64c7fed44a04f777bb1e18ce,64c800b4c90673b07a763bf8,right,-1,0.75,0.2429,3,-0.06810482,0.1459,20,0,20,0,1,,,,,,,,,,
,,456827,001,2023-07-31_20h43.19.824,arm3_eps,2022.2.5,Win32,30.01020347,6310a2fb7a4dd7e9a7e72dea,64c7fed44a04f777bb1e18ce,64c800b4c90673b07a763bf8,down,-1,0.75,0.2429,4,0,0.2043,21,0,21,0,1,,,,,,,,,,
,,456827,001,2023-07-31_20h43.19.824,arm3_eps,2022.2.5,Win32,30.01020347,6310a2fb7a4dd7e9a7e72dea,64c7fed44a04f777bb1e18ce,64c800b4c90673b07a763bf8,right,-1,0.75,0.2429,4,-0.007701751,0.7677,22,0,22,0,1,,,,,,,,,,
,,456827,001,2023-07-31_20h43.19.824,arm3_eps,2022.2.5,Win32,30.01020347,6310a2fb7a4dd7e9a7e72dea,64c7fed44a04f777bb1e18ce,64c800b4c90673b07a763bf8,right,-1,0.75,0.2429,4,-0.021378111,0.1438,23,0,23,0,1,,,,,,,,,,
,,456827,001,2023-07-31_20h43.19.824,arm3_eps,2022.2.5,Win32,30.01020347,6310a2fb7a4dd7e9a7e72dea,64c7fed44a04f777bb1e18ce,64c800b4c90673b07a763bf8,right,-1,0.75,0.2429,4,-0.046234351,0.1592,24,0,24,0,1,,,,,,,,,,
,,456827,001,2023-07-31_20h43.19.824,arm3_eps,2022.2.5,Win32,30.01020347,6310a2fb7a4dd7e9a7e72dea,64c7fed44a04f777bb1e18ce,64c800b4c90673b07a763bf8,right,-1,0.75,0.2429,4,-0.037144171,0.1407,25,0,25,0,1,,,,,,,,,,
,,456827,001,2023-07-31_20h43.19.824,arm3_eps,2022.2.5,Win32,30.01020347,6310a2fb7a4dd7e9a7e72dea,64c7fed44a04f777bb1e18ce,64c800b4c90673b07a763bf8,right,-1,0.75,0.2429,4,-0.022809807,0.1273,26,0,26,0,1,,,,,,,,,,
,,456827,001,2023-07-31_20h43.19.824,arm3_eps,2022.2.5,Win32,30.01020347,6310a2fb7a4dd7e9a7e72dea,64c7fed44a04f777bb1e18ce,64c800b4c90673b07a763bf8,right,-1,0.75,0.2429,4,-0.033359206,0.1962,27,0,27,0,1,,,,,,,,,,
,,456827,001,2023-07-31_20h43.19.824,arm3_eps,2022.2.5,Win32,30.01020347,6310a2fb7a4dd7e9a7e72dea,64c7fed44a04f777bb1e18ce,64c800b4c90673b07a763bf8,down,-1,0.75,0.2429,5,0,0.6697,28,0,28,0,1,,,,,,,,,,
,,456827,001,2023-07-31_20h43.19.824,arm3_eps,2022.2.5,Win32,30.01020347,6310a2fb7a4dd7e9a7e72dea,64c7fed44a04f777bb1e18ce,64c800b4c90673b07a763bf8,right,-1,0.75,0.2429,5,-0.014008007,0.7344,29,0,29,0,1,,,,,,,,,,
,,456827,001,2023-07-31_20h43.19.824,arm3_eps,2022.2.5,Win32,30.01020347,6310a2fb7a4dd7e9a7e72dea,64c7fed44a04f777bb1e18ce,64c800b4c90673b07a763bf8,right,-1,0.75,0.2429,5,0.011339134,0.1518,30,0,30,0,1,,,,,,,,,,
,,456827,001,2023-07-31_20h43.19.824,arm3_eps,2022.2.5,Win32,30.01020347,6310a2fb7a4dd7e9a7e72dea,64c7fed44a04f777bb1e18ce,64c800b4c90673b07a763bf8,right,-1,0.75,0.2429,5,-0.030011759,0.1576,31,0,31,0,1,,,,,,,,,,
,,456827,001,2023-07-31_20h43.19.824,arm3_eps,2022.2.5,Win32,30.01020347,6310a2fb7a4dd7e9a7e72dea,64c7fed44a04f777bb1e18ce,64c800b4c90673b07a763bf8,right,-1,0.75,0.2429,5,-0.022711983,0.1407,32,0,32,0,1,,,,,,,,,,
,,456827,001,2023-07-31_20h43.19.824,arm3_eps,2022.2.5,Win32,30.01020347,6310a2fb7a4dd7e9a7e72dea,64c7fed44a04f777bb1e18ce,64c800b4c90673b07a763bf8,right,-1,0.75,0.2429,5,-0.026312747,0.1349,33,0,33,0,1,,,,,,,,,,
,,456827,001,2023-07-31_20h43.19.824,arm3_eps,2022.2.5,Win32,30.01020347,6310a2fb7a4dd7e9a7e72dea,64c7fed44a04f777bb1e18ce,64c800b4c90673b07a763bf8,right,-1,0.75,0.2429,5,-0.022321936,0.1521,34,0,34,0,1,,,,,,,,,,
,,456827,001,2023-07-31_20h43.19.824,arm3_eps,2022.2.5,Win32,30.01020347,6310a2fb7a4dd7e9a7e72dea,64c7fed44a04f777bb1e18ce,64c800b4c90673b07a763bf8,down,1,0.75,0.2429,6,0,0.5921,35,0,35,0,1,,,,,,,,,,
,,456827,001,2023-07-31_20h43.19.824,arm3_eps,2022.2.5,Win32,30.01020347,6310a2fb7a4dd7e9a7e72dea,64c7fed44a04f777bb1e18ce,64c800b4c90673b07a763bf8,right,1,0.75,0.2429,6,-0.002268973,0.712,36,0,36,0,1,,,,,,,,,,
,,456827,001,2023-07-31_20h43.19.824,arm3_eps,2022.2.5,Win32,30.01020347,6310a2fb7a4dd7e9a7e72dea,64c7fed44a04f777bb1e18ce,64c800b4c90673b07a763bf8,right,1,0.75,0.2429,6,-0.007885104,0.1813,37,0,37,0,1,,,,,,,,,,
,,456827,001,2023-07-31_20h43.19.824,arm3_eps,2022.2.5,Win32,30.01020347,6310a2fb7a4dd7e9a7e72dea,64c7fed44a04f777bb1e18ce,64c800b4c90673b07a763bf8,right,1,0.75,0.2429,6,-0.014885196,0.1432,38,0,38,0,1,,,,,,,,,,
,,456827,001,2023-07-31_20h43.19.824,arm3_eps,2022.2.5,Win32,30.01020347,6310a2fb7a4dd7e9a7e72dea,64c7fed44a04f777bb1e18ce,64c800b4c90673b07a763bf8,right,1,0.75,0.2429,6,0.007465961,0.1285,39,0,39,0,1,,,,,,,,,,
,,456827,001,2023-07-31_20h43.19.824,arm3_eps,2022.2.5,Win32,30.01020347,6310a2fb7a4dd7e9a7e72dea,64c7fed44a04f777bb1e18ce,64c800b4c90673b07a763bf8,right,1,0.75,0.2429,6,0.036969698,0.13,40,0,40,0,1,,,,,,,,,,
,,456827,001,2023-07-31_20h43.19.824,arm3_eps,2022.2.5,Win32,30.01020347,6310a2fb7a4dd7e9a7e72dea,64c7fed44a04f777bb1e18ce,64c800b4c90673b07a763bf8,right,1,0.75,0.2429,6,0.035857821,0.1402,41,0,41,0,1,,,,,,,,,,
,,456827,001,2023-07-31_20h43.19.824,arm3_eps,2022.2.5,Win32,30.01020347,6310a2fb7a4dd7e9a7e72dea,64c7fed44a04f777bb1e18ce,64c800b4c90673b07a763bf8,right,1,0.75,0.2429,6,0.068743893,0.2158,42,0,42,0,1,,,,,,,,,,
,,456827,001,2023-07-31_20h43.19.824,arm3_eps,2022.2.5,Win32,30.01020347,6310a2fb7a4dd7e9a7e72dea,64c7fed44a04f777bb1e18ce,64c800b4c90673b07a763bf8,up,-1,0.75,0.2429,6,0,0.2593,43,0,43,0,1,,,,,,,,,,
,,456827,001,2023-07-31_20h43.19.824,arm3_eps,2022.2.5,Win32,30.01020347,6310a2fb7a4dd7e9a7e72dea,64c7fed44a04f777bb1e18ce,64c800b4c90673b07a763bf8,right,-1,0.75,0.2429,6,0.002675922,0.956,44,0,44,0,1,,,,,,,,,,
,,456827,001,2023-07-31_20h43.19.824,arm3_eps,2022.2.5,Win32,30.01020347,6310a2fb7a4dd7e9a7e72dea,64c7fed44a04f777bb1e18ce,64c800b4c90673b07a763bf8,right,-1,0.75,0.2429,6,-0.001448372,0.1446,45,0,45,0,1,,,,,,,,,,
,,456827,001,2023-07-31_20h43.19.824,arm3_eps,2022.2.5,Win32,30.01020347,6310a2fb7a4dd7e9a7e72dea,64c7fed44a04f777bb1e18ce,64c800b4c90673b07a763bf8,right,-1,0.75,0.2429,6,-0.028836734,0.1184,46,0,46,0,1,,,,,,,,,,
,,456827,001,2023-07-31_20h43.19.824,arm3_eps,2022.2.5,Win32,30.01020347,6310a2fb7a4dd7e9a7e72dea,64c7fed44a04f777bb1e18ce,64c800b4c90673b07a763bf8,right,-1,0.75,0.2429,6,-0.028241158,0.1488,47,0,47,0,1,,,,,,,,,,
,,456827,001,2023-07-31_20h43.19.824,arm3_eps,2022.2.5,Win32,30.01020347,6310a2fb7a4dd7e9a7e72dea,64c7fed44a04f777bb1e18ce,64c800b4c90673b07a763bf8,right,-1,0.75,0.2429,6,-0.027073365,0.1383,48,0,48,0,1,,,,,,,,,,
,,456827,001,2023-07-31_20h43.19.824,arm3_eps,2022.2.5,Win32,30.01020347,6310a2fb7a4dd7e9a7e72dea,64c7fed44a04f777bb1e18ce,64c800b4c90673b07a763bf8,right,-1,0.75,0.2429,6,-0.023291645,0.1335,49,0,49,0,1,,,,,,,,,,
space,11.6935,456827,001,2023-07-31_20h43.19.824,arm3_eps,2022.2.5,Win32,30.01020347,6310a2fb7a4dd7e9a7e72dea,64c7fed44a04f777bb1e18ce,64c800b4c90673b07a763bf8,,,,,,,,,,,,,,,,,,,,,,
space,14.5781,456827,001,2023-07-31_20h43.19.824,arm3_eps,2022.2.5,Win32,30.01020347,6310a2fb7a4dd7e9a7e72dea,64c7fed44a04f777bb1e18ce,64c800b4c90673b07a763bf8,,,,,,,,,,,,,,,,,,,,,,
space,1.1826,456827,001,2023-07-31_20h43.19.824,arm3_eps,2022.2.5,Win32,30.01020347,6310a2fb7a4dd7e9a7e72dea,64c7fed44a04f777bb1e18ce,64c800b4c90673b07a763bf8,,,,,,,,,,,,,,,,,,,,,,
,,456827,001,2023-07-31_20h43.19.824,arm3_eps,2022.2.5,Win32,30.01020347,6310a2fb7a4dd7e9a7e72dea,64c7fed44a04f777bb1e18ce,64c800b4c90673b07a763bf8,up,-1,0.75,0.05,-1,0,0.4673,0,0,0,0,1,,,,,,,,,,
,,456827,001,2023-07-31_20h43.19.824,arm3_eps,2022.2.5,Win32,30.01020347,6310a2fb7a4dd7e9a7e72dea,64c7fed44a04f777bb1e18ce,64c800b4c90673b07a763bf8,up,-1,0.75,0.05,-1,0,0.1687,1,0,1,0,1,,,,,,,,,,
,,456827,001,2023-07-31_20h43.19.824,arm3_eps,2022.2.5,Win32,30.01020347,6310a2fb7a4dd7e9a7e72dea,64c7fed44a04f777bb1e18ce,64c800b4c90673b07a763bf8,right,-1,0.75,0.05,-1,-0.014144727,4.129,2,0,2,0,1,,,,,,,,,,
,,456827,001,2023-07-31_20h43.19.824,arm3_eps,2022.2.5,Win32,30.01020347,6310a2fb7a4dd7e9a7e72dea,64c7fed44a04f777bb1e18ce,64c800b4c90673b07a763bf8,right,-1,0.75,0.05,-1,-0.040165107,0.1291,3,0,3,0,1,,,,,,,,,,
,,456827,001,2023-07-31_20h43.19.824,arm3_eps,2022.2.5,Win32,30.01020347,6310a2fb7a4dd7e9a7e72dea,64c7fed44a04f777bb1e18ce,64c800b4c90673b07a763bf8,right,-1,0.75,0.05,-1,-0.059942404,0.1222,4,0,4,0,1,,,,,,,,,,
,,456827,001,2023-07-31_20h43.19.824,arm3_eps,2022.2.5,Win32,30.01020347,6310a2fb7a4dd7e9a7e72dea,64c7fed44a04f777bb1e18ce,64c800b4c90673b07a763bf8,right,-1,0.75,0.05,-1,-0.104009721,0.1029,5,0,5,0,1,,,,,,,,,,
,,456827,001,2023-07-31_20h43.19.824,arm3_eps,2022.2.5,Win32,30.01020347,6310a2fb7a4dd7e9a7e72dea,64c7fed44a04f777bb1e18ce,64c800b4c90673b07a763bf8,down,-1,0.75,0.05,0,0,0.3017,6,0,6,0,1,,,,,,,,,,
,,456827,001,2023-07-31_20h43.19.824,arm3_eps,2022.2.5,Win32,30.01020347,6310a2fb7a4dd7e9a7e72dea,64c7fed44a04f777bb1e18ce,64c800b4c90673b07a763bf8,down,-1,0.75,0.05,0,0,1.2866,7,0,7,0,1,,,,,,,,,,
,,456827,001,2023-07-31_20h43.19.824,arm3_eps,2022.2.5,Win32,30.01020347,6310a2fb7a4dd7e9a7e72dea,64c7fed44a04f777bb1e18ce,64c800b4c90673b07a763bf8,down,-1,0.75,0.05,1,0,1.4487,8,0,8,0,1,,,,,,,,,,
,,456827,001,2023-07-31_20h43.19.824,arm3_eps,2022.2.5,Win32,30.01020347,6310a2fb7a4dd7e9a7e72dea,64c7fed44a04f777bb1e18ce,64c800b4c90673b07a763bf8,down,-1,0.75,0.05,2,0,1.0598,9,0,9,0,1,,,,,,,,,,
,,456827,001,2023-07-31_20h43.19.824,arm3_eps,2022.2.5,Win32,30.01020347,6310a2fb7a4dd7e9a7e72dea,64c7fed44a04f777bb1e18ce,64c800b4c90673b07a763bf8,down,-1,0.75,0.05,3,0,0.8732,10,0,10,0,1,,,,,,,,,,
,,456827,001,2023-07-31_20h43.19.824,arm3_eps,2022.2.5,Win32,30.01020347,6310a2fb7a4dd7e9a7e72dea,64c7fed44a04f777bb1e18ce,64c800b4c90673b07a763bf8,down,-1,0.75,0.05,3,0,0.8602,11,0,11,0,1,,,,,,,,,,
,,456827,001,2023-07-31_20h43.19.824,arm3_eps,2022.2.5,Win32,30.01020347,6310a2fb7a4dd7e9a7e72dea,64c7fed44a04f777bb1e18ce,64c800b4c90673b07a763bf8,down,1,0.75,0.05,3,0,1.0688,12,0,12,0,1,,,,,,,,,,
,,456827,001,2023-07-31_20h43.19.824,arm3_eps,2022.2.5,Win32,30.01020347,6310a2fb7a4dd7e9a7e72dea,64c7fed44a04f777bb1e18ce,64c800b4c90673b07a763bf8,down,1,0.75,0.05,2,0,0.9185,13,0,13,0,1,,,,,,,,,,
,,456827,001,2023-07-31_20h43.19.824,arm3_eps,2022.2.5,Win32,30.01020347,6310a2fb7a4dd7e9a7e72dea,64c7fed44a04f777bb1e18ce,64c800b4c90673b07a763bf8,right,1,0.75,0.05,2,0.016834108,1.0311,14,0,14,0,1,,,,,,,,,,
,,456827,001,2023-07-31_20h43.19.824,arm3_eps,2022.2.5,Win32,30.01020347,6310a2fb7a4dd7e9a7e72dea,64c7fed44a04f777bb1e18ce,64c800b4c90673b07a763bf8,right,1,0.75,0.05,2,0.020443936,0.1128,15,0,15,0,1,,,,,,,,,,
,,456827,001,2023-07-31_20h43.19.824,arm3_eps,2022.2.5,Win32,30.01020347,6310a2fb7a4dd7e9a7e72dea,64c7fed44a04f777bb1e18ce,64c800b4c90673b07a763bf8,right,1,0.75,0.05,2,0.048840769,0.1315,16,0,16,0,1,,,,,,,,,,
,,456827,001,2023-07-31_20h43.19.824,arm3_eps,2022.2.5,Win32,30.01020347,6310a2fb7a4dd7e9a7e72dea,64c7fed44a04f777bb1e18ce,64c800b4c90673b07a763bf8,right,1,0.75,0.05,2,0.047416108,0.1136,17,0,17,0,1,,,,,,,,,,
,,456827,001,2023-07-31_20h43.19.824,arm3_eps,2022.2.5,Win32,30.01020347,6310a2fb7a4dd7e9a7e72dea,64c7fed44a04f777bb1e18ce,64c800b4c90673b07a763bf8,right,1,0.75,0.05,2,0.071493717,0.1074,18,0,18,0,1,,,,,,,,,,
,,456827,001,2023-07-31_20h43.19.824,arm3_eps,2022.2.5,Win32,30.01020347,6310a2fb7a4dd7e9a7e72dea,64c7fed44a04f777bb1e18ce,64c800b4c90673b07a763bf8,up,1,0.75,0.05,3,0,0.2083,19,0,19,0,1,,,,,,,,,,
,,456827,001,2023-07-31_20h43.19.824,arm3_eps,2022.2.5,Win32,30.01020347,6310a2fb7a4dd7e9a7e72dea,64c7fed44a04f777bb1e18ce,64c800b4c90673b07a763bf8,up,1,0.75,0.05,3,0,1.0572,20,0,20,0,1,,,,,,,,,,
,,456827,001,2023-07-31_20h43.19.824,arm3_eps,2022.2.5,Win32,30.01020347,6310a2fb7a4dd7e9a7e72dea,64c7fed44a04f777bb1e18ce,64c800b4c90673b07a763bf8,right,1,0.75,0.05,3,-0.000358058,0.8417,21,0,21,0,1,,,,,,,,,,
,,456827,001,2023-07-31_20h43.19.824,arm3_eps,2022.2.5,Win32,30.01020347,6310a2fb7a4dd7e9a7e72dea,64c7fed44a04f777bb1e18ce,64c800b4c90673b07a763bf8,right,1,0.75,0.05,3,0.019891636,0.1465,22,0,22,0,1,,,,,,,,,,
,,456827,001,2023-07-31_20h43.19.824,arm3_eps,2022.2.5,Win32,30.01020347,6310a2fb7a4dd7e9a7e72dea,64c7fed44a04f777bb1e18ce,64c800b4c90673b07a763bf8,right,1,0.75,0.05,3,-0.001961541,0.1448,23,0,23,0,1,,,,,,,,,,
,,456827,001,2023-07-31_20h43.19.824,arm3_eps,2022.2.5,Win32,30.01020347,6310a2fb7a4dd7e9a7e72dea,64c7fed44a04f777bb1e18ce,64c800b4c90673b07a763bf8,right,1,0.75,0.05,3,0.005759215,0.1069,24,0,24,0,1,,,,,,,,,,
,,456827,001,2023-07-31_20h43.19.824,arm3_eps,2022.2.5,Win32,30.01020347,6310a2fb7a4dd7e9a7e72dea,64c7fed44a04f777bb1e18ce,64c800b4c90673b07a763bf8,right,1,0.75,0.05,3,0.019792287,0.1376,25,0,25,0,1,,,,,,,,,,
,,456827,001,2023-07-31_20h43.19.824,arm3_eps,2022.2.5,Win32,30.01020347,6310a2fb7a4dd7e9a7e72dea,64c7fed44a04f777bb1e18ce,64c800b4c90673b07a763bf8,up,1,0.75,0.05,4,0,0.2854,26,0,26,0,1,,,,,,,,,,
,,456827,001,2023-07-31_20h43.19.824,arm3_eps,2022.2.5,Win32,30.01020347,6310a2fb7a4dd7e9a7e72dea,64c7fed44a04f777bb1e18ce,64c800b4c90673b07a763bf8,right,1,0.75,0.05,4,-0.008615807,0.8486,27,0,27,0,1,,,,,,,,,,
,,456827,001,2023-07-31_20h43.19.824,arm3_eps,2022.2.5,Win32,30.01020347,6310a2fb7a4dd7e9a7e72dea,64c7fed44a04f777bb1e18ce,64c800b4c90673b07a763bf8,right,1,0.75,0.05,4,0.003119173,0.1307,28,0,28,0,1,,,,,,,,,,
,,456827,001,2023-07-31_20h43.19.824,arm3_eps,2022.2.5,Win32,30.01020347,6310a2fb7a4dd7e9a7e72dea,64c7fed44a04f777bb1e18ce,64c800b4c90673b07a763bf8,right,1,0.75,0.05,4,-0.003987152,0.1036,29,0,29,0,1,,,,,,,,,,
,,456827,001,2023-07-31_20h43.19.824,arm3_eps,2022.2.5,Win32,30.01020347,6310a2fb7a4dd7e9a7e72dea,64c7fed44a04f777bb1e18ce,64c800b4c90673b07a763bf8,right,1,0.75,0.05,4,0.008060967,0.1162,30,0,30,0,1,,,,,,,,,,
,,456827,001,2023-07-31_20h43.19.824,arm3_eps,2022.2.5,Win32,30.01020347,6310a2fb7a4dd7e9a7e72dea,64c7fed44a04f777bb1e18ce,64c800b4c90673b07a763bf8,up,1,0.75,0.05,5,0,0.2776,31,0,31,0,1,,,,,,,,,,
,,456827,001,2023-07-31_20h43.19.824,arm3_eps,2022.2.5,Win32,30.01020347,6310a2fb7a4dd7e9a7e72dea,64c7fed44a04f777bb1e18ce,64c800b4c90673b07a763bf8,up,1,0.75,0.05,6,0,0.8148,32,0,32,0,1,,,,,,,,,,
,,456827,001,2023-07-31_20h43.19.824,arm3_eps,2022.2.5,Win32,30.01020347,6310a2fb7a4dd7e9a7e72dea,64c7fed44a04f777bb1e18ce,64c800b4c90673b07a763bf8,right,1,0.75,0.05,6,0.012917888,0.88,33,0,33,0,1,,,,,,,,,,
,,456827,001,2023-07-31_20h43.19.824,arm3_eps,2022.2.5,Win32,30.01020347,6310a2fb7a4dd7e9a7e72dea,64c7fed44a04f777bb1e18ce,64c800b4c90673b07a763bf8,right,1,0.75,0.05,6,0.035684025,0.1542,34,0,34,0,1,,,,,,,,,,
,,456827,001,2023-07-31_20h43.19.824,arm3_eps,2022.2.5,Win32,30.01020347,6310a2fb7a4dd7e9a7e72dea,64c7fed44a04f777bb1e18ce,64c800b4c90673b07a763bf8,right,1,0.75,0.05,6,0.053822385,0.1238,35,0,35,0,1,,,,,,,,,,
,,456827,001,2023-07-31_20h43.19.824,arm3_eps,2022.2.5,Win32,30.01020347,6310a2fb7a4dd7e9a7e72dea,64c7fed44a04f777bb1e18ce,64c800b4c90673b07a763bf8,up,1,0.75,0.05,7,0,0.1845,36,0,36,0,1,,,,,,,,,,
,,456827,001,2023-07-31_20h43.19.824,arm3_eps,2022.2.5,Win32,30.01020347,6310a2fb7a4dd7e9a7e72dea,64c7fed44a04f777bb1e18ce,64c800b4c90673b07a763bf8,right,1,0.75,0.05,7,0.023734482,0.6312,37,0,37,0,1,,,,,,,,,,
,,456827,001,2023-07-31_20h43.19.824,arm3_eps,2022.2.5,Win32,30.01020347,6310a2fb7a4dd7e9a7e72dea,64c7fed44a04f777bb1e18ce,64c800b4c90673b07a763bf8,right,1,0.75,0.05,7,0.002689309,0.1431,38,0,38,0,1,,,,,,,,,,
,,456827,001,2023-07-31_20h43.19.824,arm3_eps,2022.2.5,Win32,30.01020347,6310a2fb7a4dd7e9a7e72dea,64c7fed44a04f777bb1e18ce,64c800b4c90673b07a763bf8,right,1,0.75,0.05,7,0.007919219,0.1186,39,0,39,0,1,,,,,,,,,,
,,456827,001,2023-07-31_20h43.19.824,arm3_eps,2022.2.5,Win32,30.01020347,6310a2fb7a4dd7e9a7e72dea,64c7fed44a04f777bb1e18ce,64c800b4c90673b07a763bf8,right,1,0.75,0.05,7,-0.010544244,0.1279,40,0,40,0,1,,,,,,,,,,
,,456827,001,2023-07-31_20h43.19.824,arm3_eps,2022.2.5,Win32,30.01020347,6310a2fb7a4dd7e9a7e72dea,64c7fed44a04f777bb1e18ce,64c800b4c90673b07a763bf8,up,1,0.75,0.05,8,0,0.6016,41,0,41,0,1,,,,,,,,,,
,,456827,001,2023-07-31_20h43.19.824,arm3_eps,2022.2.5,Win32,30.01020347,6310a2fb7a4dd7e9a7e72dea,64c7fed44a04f777bb1e18ce,64c800b4c90673b07a763bf8,right,1,0.75,0.05,8,0.011178399,0.8008,42,0,42,0,1,,,,,,,,,,
,,456827,001,2023-07-31_20h43.19.824,arm3_eps,2022.2.5,Win32,30.01020347,6310a2fb7a4dd7e9a7e72dea,64c7fed44a04f777bb1e18ce,64c800b4c90673b07a763bf8,right,1,0.75,0.05,8,0.022821272,0.1328,43,0,43,0,1,,,,,,,,,,
,,456827,001,2023-07-31_20h43.19.824,arm3_eps,2022.2.5,Win32,30.01020347,6310a2fb7a4dd7e9a7e72dea,64c7fed44a04f777bb1e18ce,64c800b4c90673b07a763bf8,right,1,0.75,0.05,8,0.006816827,0.1317,44,0,44,0,1,,,,,,,,,,
,,456827,001,2023-07-31_20h43.19.824,arm3_eps,2022.2.5,Win32,30.01020347,6310a2fb7a4dd7e9a7e72dea,64c7fed44a04f777bb1e18ce,64c800b4c90673b07a763bf8,right,1,0.75,0.05,8,0.015142866,0.1236,45,0,45,0,1,,,,,,,,,,
,,456827,001,2023-07-31_20h43.19.824,arm3_eps,2022.2.5,Win32,30.01020347,6310a2fb7a4dd7e9a7e72dea,64c7fed44a04f777bb1e18ce,64c800b4c90673b07a763bf8,right,1,0.75,0.05,8,-0.006077745,0.3331,46,0,46,0,1,,,,,,,,,,
,,456827,001,2023-07-31_20h43.19.824,arm3_eps,2022.2.5,Win32,30.01020347,6310a2fb7a4dd7e9a7e72dea,64c7fed44a04f777bb1e18ce,64c800b4c90673b07a763bf8,up,1,0.75,0.05,9,0,0.6772,47,0,47,0,1,,,,,,,,,,
,,456827,001,2023-07-31_20h43.19.824,arm3_eps,2022.2.5,Win32,30.01020347,6310a2fb7a4dd7e9a7e72dea,64c7fed44a04f777bb1e18ce,64c800b4c90673b07a763bf8,right,1,0.75,0.05,9,0.034576034,1.0031,48,0,48,0,1,,,,,,,,,,
,,456827,001,2023-07-31_20h43.19.824,arm3_eps,2022.2.5,Win32,30.01020347,6310a2fb7a4dd7e9a7e72dea,64c7fed44a04f777bb1e18ce,64c800b4c90673b07a763bf8,right,1,0.75,0.05,9,0.048663425,0.1369,49,0,49,0,1,,,,,,,,,,
space,6.8997,456827,001,2023-07-31_20h43.19.824,arm3_eps,2022.2.5,Win32,30.01020347,6310a2fb7a4dd7e9a7e72dea,64c7fed44a04f777bb1e18ce,64c800b4c90673b07a763bf8,,,,,,,,,,,,,,,,,,,,,,
space,0.6915,456827,001,2023-07-31_20h43.19.824,arm3_eps,2022.2.5,Win32,30.01020347,6310a2fb7a4dd7e9a7e72dea,64c7fed44a04f777bb1e18ce,64c800b4c90673b07a763bf8,,,,,,,,,,,,,,,,,,,,,,
,,456827,001,2023-07-31_20h43.19.824,arm3_eps,2022.2.5,Win32,30.01020347,6310a2fb7a4dd7e9a7e72dea,64c7fed44a04f777bb1e18ce,64c800b4c90673b07a763bf8,right,1,0.75,0.5,0,0.031210842,0.334,0,0,0,0,1,,,,,,,,,,
,,456827,001,2023-07-31_20h43.19.824,arm3_eps,2022.2.5,Win32,30.01020347,6310a2fb7a4dd7e9a7e72dea,64c7fed44a04f777bb1e18ce,64c800b4c90673b07a763bf8,right,1,0.75,0.5,0,0.031725034,0.1315,1,0,1,0,1,,,,,,,,,,
,,456827,001,2023-07-31_20h43.19.824,arm3_eps,2022.2.5,Win32,30.01020347,6310a2fb7a4dd7e9a7e72dea,64c7fed44a04f777bb1e18ce,64c800b4c90673b07a763bf8,up,1,0.75,0.5,0,0,0.5123,2,0,2,0,1,,,,,,,,,,
,,456827,001,2023-07-31_20h43.19.824,arm3_eps,2022.2.5,Win32,30.01020347,6310a2fb7a4dd7e9a7e72dea,64c7fed44a04f777bb1e18ce,64c800b4c90673b07a763bf8,right,1,0.75,0.5,0,0.023972723,0.7765,3,0,3,0,1,,,,,,,,,,
,,456827,001,2023-07-31_20h43.19.824,arm3_eps,2022.2.5,Win32,30.01020347,6310a2fb7a4dd7e9a7e72dea,64c7fed44a04f777bb1e18ce,64c800b4c90673b07a763bf8,right,1,0.75,0.5,0,0.055558159,0.1308,4,0,4,0,1,,,,,,,,,,
,,456827,001,2023-07-31_20h43.19.824,arm3_eps,2022.2.5,Win32,30.01020347,6310a2fb7a4dd7e9a7e72dea,64c7fed44a04f777bb1e18ce,64c800b4c90673b07a763bf8,right,1,0.75,0.5,0,0.056366446,0.1182,5,0,5,0,1,,,,,,,,,,
,,456827,001,2023-07-31_20h43.19.824,arm3_eps,2022.2.5,Win32,30.01020347,6310a2fb7a4dd7e9a7e72dea,64c7fed44a04f777bb1e18ce,64c800b4c90673b07a763bf8,up,-1,0.75,0.5,1,0,0.3454,6,0,6,0,1,,,,,,,,,,
,,456827,001,2023-07-31_20h43.19.824,arm3_eps,2022.2.5,Win32,30.01020347,6310a2fb7a4dd7e9a7e72dea,64c7fed44a04f777bb1e18ce,64c800b4c90673b07a763bf8,right,-1,0.75,0.5,1,-0.026002018,0.6139,7,0,7,0,1,,,,,,,,,,
,,456827,001,2023-07-31_20h43.19.824,arm3_eps,2022.2.5,Win32,30.01020347,6310a2fb7a4dd7e9a7e72dea,64c7fed44a04f777bb1e18ce,64c800b4c90673b07a763bf8,right,-1,0.75,0.5,1,-0.041165006,0.1641,8,0,8,0,1,,,,,,,,,,
,,456827,001,2023-07-31_20h43.19.824,arm3_eps,2022.2.5,Win32,30.01020347,6310a2fb7a4dd7e9a7e72dea,64c7fed44a04f777bb1e18ce,64c800b4c90673b07a763bf8,right,-1,0.75,0.5,1,-0.01374373,0.1612,9,0,9,0,1,,,,,,,,,,
,,456827,001,2023-07-31_20h43.19.824,arm3_eps,2022.2.5,Win32,30.01020347,6310a2fb7a4dd7e9a7e72dea,64c7fed44a04f777bb1e18ce,64c800b4c90673b07a763bf8,right,-1,0.75,0.5,1,-0.006573835,0.2771,10,0,10,0,1,,,,,,,,,,
,,456827,001,2023-07-31_20h43.19.824,arm3_eps,2022.2.5,Win32,30.01020347,6310a2fb7a4dd7e9a7e72dea,64c7fed44a04f777bb1e18ce,64c800b4c90673b07a763bf8,up,-1,0.75,0.5,0,0,0.3778,11,0,11,0,1,,,,,,,,,,
,,456827,001,2023-07-31_20h43.19.824,arm3_eps,2022.2.5,Win32,30.01020347,6310a2fb7a4dd7e9a7e72dea,64c7fed44a04f777bb1e18ce,64c800b4c90673b07a763bf8,right,-1,0.75,0.5,0,-0.017184937,0.7553,12,0,12,0,1,,,,,,,,,,
,,456827,001,2023-07-31_20h43.19.824,arm3_eps,2022.2.5,Win32,30.01020347,6310a2fb7a4dd7e9a7e72dea,64c7fed44a04f777bb1e18ce,64c800b4c90673b07a763bf8,right,-1,0.75,0.5,0,-0.043218202,0.1538,13,0,13,0,1,,,,,,,,,,
,,456827,001,2023-07-31_20h43.19.824,arm3_eps,2022.2.5,Win32,30.01020347,6310a2fb7a4dd7e9a7e72dea,64c7fed44a04f777bb1e18ce,64c800b4c90673b07a763bf8,right,-1,0.75,0.5,0,-0.06013064,0.1203,14,0,14,0,1,,,,,,,,,,
,,456827,001,2023-07-31_20h43.19.824,arm3_eps,2022.2.5,Win32,30.01020347,6310a2fb7a4dd7e9a7e72dea,64c7fed44a04f777bb1e18ce,64c800b4c90673b07a763bf8,right,-1,0.75,0.5,0,-0.09957582,0.1498,15,0,15,0,1,,,,,,,,,,
,,456827,001,2023-07-31_20h43.19.824,arm3_eps,2022.2.5,Win32,30.01020347,6310a2fb7a4dd7e9a7e72dea,64c7fed44a04f777bb1e18ce,64c800b4c90673b07a763bf8,down,-1,0.75,0.5,1,0,0.2003,16,0,16,0,1,,,,,,,,,,
,,456827,001,2023-07-31_20h43.19.824,arm3_eps,2022.2.5,Win32,30.01020347,6310a2fb7a4dd7e9a7e72dea,64c7fed44a04f777bb1e18ce,64c800b4c90673b07a763bf8,right,-1,0.75,0.5,1,0.045446809,0.8488,17,0,17,0,1,,,,,,,,,,
,,456827,001,2023-07-31_20h43.19.824,arm3_eps,2022.2.5,Win32,30.01020347,6310a2fb7a4dd7e9a7e72dea,64c7fed44a04f777bb1e18ce,64c800b4c90673b07a763bf8,right,-1,0.75,0.5,1,0.017589123,0.1588,18,0,18,0,1,,,,,,,,,,
,,456827,001,2023-07-31_20h43.19.824,arm3_eps,2022.2.5,Win32,30.01020347,6310a2fb7a4dd7e9a7e72dea,64c7fed44a04f777bb1e18ce,64c800b4c90673b07a763bf8,right,-1,0.75,0.5,1,0.009360815,0.1485,19,0,19,0,1,,,,,,,,,,
,,456827,001,2023-07-31_20h43.19.824,arm3_eps,2022.2.5,Win32,30.01020347,6310a2fb7a4dd7e9a7e72dea,64c7fed44a04f777bb1e18ce,64c800b4c90673b07a763bf8,right,-1,0.75,0.5,1,-0.005577264,0.1255,20,0,20,0,1,,,,,,,,,,
,,456827,001,2023-07-31_20h43.19.824,arm3_eps,2022.2.5,Win32,30.01020347,6310a2fb7a4dd7e9a7e72dea,64c7fed44a04f777bb1e18ce,64c800b4c90673b07a763bf8,down,-1,0.75,0.5,2,0,0.3157,21,0,21,0,1,,,,,,,,,,
,,456827,001,2023-07-31_20h43.19.824,arm3_eps,2022.2.5,Win32,30.01020347,6310a2fb7a4dd7e9a7e72dea,64c7fed44a04f777bb1e18ce,64c800b4c90673b07a763bf8,right,-1,0.75,0.5,2,-0.03490866,0.6451,22,0,22,0,1,,,,,,,,,,
,,456827,001,2023-07-31_20h43.19.824,arm3_eps,2022.2.5,Win32,30.01020347,6310a2fb7a4dd7e9a7e72dea,64c7fed44a04f777bb1e18ce,64c800b4c90673b07a763bf8,right,-1,0.75,0.5,2,-0.06182316,0.1638,23,0,23,0,1,,,,,,,,,,
,,456827,001,2023-07-31_20h43.19.824,arm3_eps,2022.2.5,Win32,30.01020347,6310a2fb7a4dd7e9a7e72dea,64c7fed44a04f777bb1e18ce,64c800b4c90673b07a763bf8,right,-1,0.75,0.5,2,-0.058692528,0.1211,24,0,24,0,1,,,,,,,,,,
,,456827,001,2023-07-31_20h43.19.824,arm3_eps,2022.2.5,Win32,30.01020347,6310a2fb7a4dd7e9a7e72dea,64c7fed44a04f777bb1e18ce,64c800b4c90673b07a763bf8,right,-1,0.75,0.5,2,-0.073850804,0.146,25,0,25,0,1,,,,,,,,,,
,,456827,001,2023-07-31_20h43.19.824,arm3_eps,2022.2.5,Win32,30.01020347,6310a2fb7a4dd7e9a7e72dea,64c7fed44a04f777bb1e18ce,64c800b4c90673b07a763bf8,right,-1,0.75,0.5,2,-0.101811637,0.1605,26,0,26,0,1,,,,,,,,,,
,,456827,001,2023-07-31_20h43.19.824,arm3_eps,2022.2.5,Win32,30.01020347,6310a2fb7a4dd7e9a7e72dea,64c7fed44a04f777bb1e18ce,64c800b4c90673b07a763bf8,down,-1,0.75,0.5,3,0,0.2048,27,0,27,0,1,,,,,,,,,,
,,456827,001,2023-07-31_20h43.19.824,arm3_eps,2022.2.5,Win32,30.01020347,6310a2fb7a4dd7e9a7e72dea,64c7fed44a04f777bb1e18ce,64c800b4c90673b07a763bf8,right,-1,0.75,0.5,3,-0.009292217,0.7815,28,0,28,0,1,,,,,,,,,,
,,456827,001,2023-07-31_20h43.19.824,arm3_eps,2022.2.5,Win32,30.01020347,6310a2fb7a4dd7e9a7e72dea,64c7fed44a04f777bb1e18ce,64c800b4c90673b07a763bf8,right,-1,0.75,0.5,3,-0.035907647,0.1476,29,0,29,0,1,,,,,,,,,,
,,456827,001,2023-07-31_20h43.19.824,arm3_eps,2022.2.5,Win32,30.01020347,6310a2fb7a4dd7e9a7e72dea,64c7fed44a04f777bb1e18ce,64c800b4c90673b07a763bf8,right,-1,0.75,0.5,3,-0.028806226,0.1059,30,0,30,0,1,,,,,,,,,,
,,456827,001,2023-07-31_20h43.19.824,arm3_eps,2022.2.5,Win32,30.01020347,6310a2fb7a4dd7e9a7e72dea,64c7fed44a04f777bb1e18ce,64c800b4c90673b07a763bf8,right,-1,0.75,0.5,3,0.002190144,0.1228,31,0,31,0,1,,,,,,,,,,
,,456827,001,2023-07-31_20h43.19.824,arm3_eps,2022.2.5,Win32,30.01020347,6310a2fb7a4dd7e9a7e72dea,64c7fed44a04f777bb1e18ce,64c800b4c90673b07a763bf8,up,1,0.75,0.5,2,0,0.4371,32,0,32,0,1,,,,,,,,,,
,,456827,001,2023-07-31_20h43.19.824,arm3_eps,2022.2.5,Win32,30.01020347,6310a2fb7a4dd7e9a7e72dea,64c7fed44a04f777bb1e18ce,64c800b4c90673b07a763bf8,right,1,0.75,0.5,2,-0.014972311,0.7973,33,0,33,0,1,,,,,,,,,,
,,456827,001,2023-07-31_20h43.19.824,arm3_eps,2022.2.5,Win32,30.01020347,6310a2fb7a4dd7e9a7e72dea,64c7fed44a04f777bb1e18ce,64c800b4c90673b07a763bf8,right,1,0.75,0.5,2,0.032280642,0.1366,34,0,34,0,1,,,,,,,,,,
,,456827,001,2023-07-31_20h43.19.824,arm3_eps,2022.2.5,Win32,30.01020347,6310a2fb7a4dd7e9a7e72dea,64c7fed44a04f777bb1e18ce,64c800b4c90673b07a763bf8,right,1,0.75,0.5,2,0.033281953,0.1228,35,0,35,0,1,,,,,,,,,,
,,456827,001,2023-07-31_20h43.19.824,arm3_eps,2022.2.5,Win32,30.01020347,6310a2fb7a4dd7e9a7e72dea,64c7fed44a04f777bb1e18ce,64c800b4c90673b07a763bf8,right,1,0.75,0.5,2,0.043467975,0.1767,36,0,36,0,1,,,,,,,,,,
,,456827,001,2023-07-31_20h43.19.824,arm3_eps,2022.2.5,Win32,30.01020347,6310a2fb7a4dd7e9a7e72dea,64c7fed44a04f777bb1e18ce,64c800b4c90673b07a763bf8,up,-1,0.75,0.5,3,0,0.3918,37,0,37,0,1,,,,,,,,,,
,,456827,001,2023-07-31_20h43.19.824,arm3_eps,2022.2.5,Win32,30.01020347,6310a2fb7a4dd7e9a7e72dea,64c7fed44a04f777bb1e18ce,64c800b4c90673b07a763bf8,right,-1,0.75,0.5,3,-0.019587268,0.8251,38,0,38,0,1,,,,,,,,,,
,,456827,001,2023-07-31_20h43.19.824,arm3_eps,2022.2.5,Win32,30.01020347,6310a2fb7a4dd7e9a7e72dea,64c7fed44a04f777bb1e18ce,64c800b4c90673b07a763bf8,right,-1,0.75,0.5,3,-0.02743581,0.1677,39,0,39,0,1,,,,,,,,,,
,,456827,001,2023-07-31_20h43.19.824,arm3_eps,2022.2.5,Win32,30.01020347,6310a2fb7a4dd7e9a7e72dea,64c7fed44a04f777bb1e18ce,64c800b4c90673b07a763bf8,right,-1,0.75,0.5,3,-0.004929083,0.1206,40,0,40,0,1,,,,,,,,,,
,,456827,001,2023-07-31_20h43.19.824,arm3_eps,2022.2.5,Win32,30.01020347,6310a2fb7a4dd7e9a7e72dea,64c7fed44a04f777bb1e18ce,64c800b4c90673b07a763bf8,right,-1,0.75,0.5,3,-0.022607003,0.1304,41,0,41,0,1,,,,,,,,,,
,,456827,001,2023-07-31_20h43.19.824,arm3_eps,2022.2.5,Win32,30.01020347,6310a2fb7a4dd7e9a7e72dea,64c7fed44a04f777bb1e18ce,64c800b4c90673b07a763bf8,right,-1,0.75,0.5,3,-0.036508595,0.1129,42,0,42,0,1,,,,,,,,,,
,,456827,001,2023-07-31_20h43.19.824,arm3_eps,2022.2.5,Win32,30.01020347,6310a2fb7a4dd7e9a7e72dea,64c7fed44a04f777bb1e18ce,64c800b4c90673b07a763bf8,down,1,0.75,0.5,3,0,0.6785,43,0,43,0,1,,,,,,,,,,
,,456827,001,2023-07-31_20h43.19.824,arm3_eps,2022.2.5,Win32,30.01020347,6310a2fb7a4dd7e9a7e72dea,64c7fed44a04f777bb1e18ce,64c800b4c90673b07a763bf8,right,1,0.75,0.5,3,-0.006564522,1.0187,44,0,44,0,1,,,,,,,,,,
,,456827,001,2023-07-31_20h43.19.824,arm3_eps,2022.2.5,Win32,30.01020347,6310a2fb7a4dd7e9a7e72dea,64c7fed44a04f777bb1e18ce,64c800b4c90673b07a763bf8,right,1,0.75,0.5,3,-0.008008079,0.1543,45,0,45,0,1,,,,,,,,,,
,,456827,001,2023-07-31_20h43.19.824,arm3_eps,2022.2.5,Win32,30.01020347,6310a2fb7a4dd7e9a7e72dea,64c7fed44a04f777bb1e18ce,64c800b4c90673b07a763bf8,right,1,0.75,0.5,3,0.000366019,0.151,46,0,46,0,1,,,,,,,,,,
,,456827,001,2023-07-31_20h43.19.824,arm3_eps,2022.2.5,Win32,30.01020347,6310a2fb7a4dd7e9a7e72dea,64c7fed44a04f777bb1e18ce,64c800b4c90673b07a763bf8,right,1,0.75,0.5,3,-0.020516892,0.15,47,0,47,0,1,,,,,,,,,,
,,456827,001,2023-07-31_20h43.19.824,arm3_eps,2022.2.5,Win32,30.01020347,6310a2fb7a4dd7e9a7e72dea,64c7fed44a04f777bb1e18ce,64c800b4c90673b07a763bf8,up,1,0.75,0.5,4,0,1.0831,48,0,48,0,1,,,,,,,,,,
,,456827,001,2023-07-31_20h43.19.824,arm3_eps,2022.2.5,Win32,30.01020347,6310a2fb7a4dd7e9a7e72dea,64c7fed44a04f777bb1e18ce,64c800b4c90673b07a763bf8,right,1,0.75,0.5,4,0.025381767,1.3341,49,0,49,0,1,,,,,,,,,,
space,3.0523,456827,001,2023-07-31_20h43.19.824,arm3_eps,2022.2.5,Win32,30.01020347,6310a2fb7a4dd7e9a7e72dea,64c7fed44a04f777bb1e18ce,64c800b4c90673b07a763bf8,,,,,,,,,,,,,,,,,,,,,,
space,2.5186,456827,001,2023-07-31_20h43.19.824,arm3_eps,2022.2.5,Win32,30.01020347,6310a2fb7a4dd7e9a7e72dea,64c7fed44a04f777bb1e18ce,64c800b4c90673b07a763bf8,right,1,0.75,0.3071,0,-0.003581419,0.5959,,,,,,0,0,0,0,1,,,,,
,,456827,001,2023-07-31_20h43.19.824,arm3_eps,2022.2.5,Win32,30.01020347,6310a2fb7a4dd7e9a7e72dea,64c7fed44a04f777bb1e18ce,64c800b4c90673b07a763bf8,right,1,0.75,0.3071,0,0.02192698,0.149,,,,,,1,0,1,0,1,,,,,
,,456827,001,2023-07-31_20h43.19.824,arm3_eps,2022.2.5,Win32,30.01020347,6310a2fb7a4dd7e9a7e72dea,64c7fed44a04f777bb1e18ce,64c800b4c90673b07a763bf8,right,1,0.75,0.3071,0,0.0544281,0.1322,,,,,,2,0,2,0,1,,,,,
,,456827,001,2023-07-31_20h43.19.824,arm3_eps,2022.2.5,Win32,30.01020347,6310a2fb7a4dd7e9a7e72dea,64c7fed44a04f777bb1e18ce,64c800b4c90673b07a763bf8,right,1,0.75,0.3071,0,0.055382751,0.1158,,,,,,3,0,3,0,1,,,,,
,,456827,001,2023-07-31_20h43.19.824,arm3_eps,2022.2.5,Win32,30.01020347,6310a2fb7a4dd7e9a7e72dea,64c7fed44a04f777bb1e18ce,64c800b4c90673b07a763bf8,up,1,0.75,0.3071,0,0,0.4384,,,,,,4,0,4,0,1,,,,,
,,456827,001,2023-07-31_20h43.19.824,arm3_eps,2022.2.5,Win32,30.01020347,6310a2fb7a4dd7e9a7e72dea,64c7fed44a04f777bb1e18ce,64c800b4c90673b07a763bf8,right,1,0.75,0.3071,0,0.010630366,0.7309,,,,,,5,0,5,0,1,,,,,
,,456827,001,2023-07-31_20h43.19.824,arm3_eps,2022.2.5,Win32,30.01020347,6310a2fb7a4dd7e9a7e72dea,64c7fed44a04f777bb1e18ce,64c800b4c90673b07a763bf8,right,1,0.75,0.3071,0,0.019398416,0.1436,,,,,,6,0,6,0,1,,,,,
,,456827,001,2023-07-31_20h43.19.824,arm3_eps,2022.2.5,Win32,30.01020347,6310a2fb7a4dd7e9a7e72dea,64c7fed44a04f777bb1e18ce,64c800b4c90673b07a763bf8,right,1,0.75,0.3071,0,0.05926365,0.1389,,,,,,7,0,7,0,1,,,,,
,,456827,001,2023-07-31_20h43.19.824,arm3_eps,2022.2.5,Win32,30.01020347,6310a2fb7a4dd7e9a7e72dea,64c7fed44a04f777bb1e18ce,64c800b4c90673b07a763bf8,right,1,0.75,0.3071,0,0.03637428,0.1244,,,,,,8,0,8,0,1,,,,,
,,456827,001,2023-07-31_20h43.19.824,arm3_eps,2022.2.5,Win32,30.01020347,6310a2fb7a4dd7e9a7e72dea,64c7fed44a04f777bb1e18ce,64c800b4c90673b07a763bf8,right,1,0.75,0.3071,0,0.039846643,0.2411,,,,,,9,0,9,0,1,,,,,
,,456827,001,2023-07-31_20h43.19.824,arm3_eps,2022.2.5,Win32,30.01020347,6310a2fb7a4dd7e9a7e72dea,64c7fed44a04f777bb1e18ce,64c800b4c90673b07a763bf8,up,1,0.75,0.3071,0,0,0.281,,,,,,10,0,10,0,1,,,,,
,,456827,001,2023-07-31_20h43.19.824,arm3_eps,2022.2.5,Win32,30.01020347,6310a2fb7a4dd7e9a7e72dea,64c7fed44a04f777bb1e18ce,64c800b4c90673b07a763bf8,right,1,0.75,0.3071,0,0.008464809,0.6119,,,,,,11,0,11,0,1,,,,,
,,456827,001,2023-07-31_20h43.19.824,arm3_eps,2022.2.5,Win32,30.01020347,6310a2fb7a4dd7e9a7e72dea,64c7fed44a04f777bb1e18ce,64c800b4c90673b07a763bf8,right,1,0.75,0.3071,0,0.02222365,0.1553,,,,,,12,0,12,0,1,,,,,
,,456827,001,2023-07-31_20h43.19.824,arm3_eps,2022.2.5,Win32,30.01020347,6310a2fb7a4dd7e9a7e72dea,64c7fed44a04f777bb1e18ce,64c800b4c90673b07a763bf8,right,1,0.75,0.3071,0,0.043930034,0.1125,,,,,,13,0,13,0,1,,,,,
,,456827,001,2023-07-31_20h43.19.824,arm3_eps,2022.2.5,Win32,30.01020347,6310a2fb7a4dd7e9a7e72dea,64c7fed44a04f777bb1e18ce,64c800b4c90673b07a763bf8,right,1,0.75,0.3071,0,0.035007632,0.1475,,,,,,14,0,14,0,1,,,,,
,,456827,001,2023-07-31_20h43.19.824,arm3_eps,2022.2.5,Win32,30.01020347,6310a2fb7a4dd7e9a7e72dea,64c7fed44a04f777bb1e18ce,64c800b4c90673b07a763bf8,right,1,0.75,0.3071,0,0.013888185,0.129,,,,,,15,0,15,0,1,,,,,
,,456827,001,2023-07-31_20h43.19.824,arm3_eps,2022.2.5,Win32,30.01020347,6310a2fb7a4dd7e9a7e72dea,64c7fed44a04f777bb1e18ce,64c800b4c90673b07a763bf8,up,-1,0.75,0.3071,1,0,0.6158,,,,,,16,0,16,0,1,,,,,
,,456827,001,2023-07-31_20h43.19.824,arm3_eps,2022.2.5,Win32,30.01020347,6310a2fb7a4dd7e9a7e72dea,64c7fed44a04f777bb1e18ce,64c800b4c90673b07a763bf8,right,-1,0.75,0.3071,1,-0.007809958,0.59,,,,,,17,0,17,0,1,,,,,
,,456827,001,2023-07-31_20h43.19.824,arm3_eps,2022.2.5,Win32,30.01020347,6310a2fb7a4dd7e9a7e72dea,64c7fed44a04f777bb1e18ce,64c800b4c90673b07a763bf8,right,-1,0.75,0.3071,1,0.023992655,0.1293,,,,,,18,0,18,0,1,,,,,
,,456827,001,2023-07-31_20h43.19.824,arm3_eps,2022.2.5,Win32,30.01020347,6310a2fb7a4dd7e9a7e72dea,64c7fed44a04f777bb1e18ce,64c800b4c90673b07a763bf8,right,-1,0.75,0.3071,1,0.022549372,0.134,,,,,,19,0,19,0,1,,,,,
,,456827,001,2023-07-31_20h43.19.824,arm3_eps,2022.2.5,Win32,30.01020347,6310a2fb7a4dd7e9a7e72dea,64c7fed44a04f777bb1e18ce,64c800b4c90673b07a763bf8,right,-1,0.75,0.3071,1,0.033952049,0.1226,,,,,,20,0,20,0,1,,,,,
,,456827,001,2023-07-31_20h43.19.824,arm3_eps,2022.2.5,Win32,30.01020347,6310a2fb7a4dd7e9a7e72dea,64c7fed44a04f777bb1e18ce,64c800b4c90673b07a763bf8,right,-1,0.75,0.3071,1,0.044743988,0.1084,,,,,,21,0,21,0,1,,,,,
,,456827,001,2023-07-31_20h43.19.824,arm3_eps,2022.2.5,Win32,30.01020347,6310a2fb7a4dd7e9a7e72dea,64c7fed44a04f777bb1e18ce,64c800b4c90673b07a763bf8,down,-1,0.75,0.3071,2,0,0.7882,,,,,,22,0,22,0,1,,,,,
,,456827,001,2023-07-31_20h43.19.824,arm3_eps,2022.2.5,Win32,30.01020347,6310a2fb7a4dd7e9a7e72dea,64c7fed44a04f777bb1e18ce,64c800b4c90673b07a763bf8,right,-1,0.75,0.3071,2,-0.006446879,0.7436,,,,,,23,0,23,0,1,,,,,
,,456827,001,2023-07-31_20h43.19.824,arm3_eps,2022.2.5,Win32,30.01020347,6310a2fb7a4dd7e9a7e72dea,64c7fed44a04f777bb1e18ce,64c800b4c90673b07a763bf8,right,-1,0.75,0.3071,2,0.027873543,0.1812,,,,,,24,0,24,0,1,,,,,
,,456827,001,2023-07-31_20h43.19.824,arm3_eps,2022.2.5,Win32,30.01020347,6310a2fb7a4dd7e9a7e72dea,64c7fed44a04f777bb1e18ce,64c800b4c90673b07a763bf8,right,-1,0.75,0.3071,2,0.048499787,0.1246,,,,,,25,0,25,0,1,,,,,
,,456827,001,2023-07-31_20h43.19.824,arm3_eps,2022.2.5,Win32,30.01020347,6310a2fb7a4dd7e9a7e72dea,64c7fed44a04f777bb1e18ce,64c800b4c90673b07a763bf8,right,-1,0.75,0.3071,2,0.036247898,0.1451,,,,,,26,0,26,0,1,,,,,
,,456827,001,2023-07-31_20h43.19.824,arm3_eps,2022.2.5,Win32,30.01020347,6310a2fb7a4dd7e9a7e72dea,64c7fed44a04f777bb1e18ce,64c800b4c90673b07a763bf8,right,-1,0.75,0.3071,2,0.012361609,0.1269,,,,,,27,0,27,0,1,,,,,
,,456827,001,2023-07-31_20h43.19.824,arm3_eps,2022.2.5,Win32,30.01020347,6310a2fb7a4dd7e9a7e72dea,64c7fed44a04f777bb1e18ce,64c800b4c90673b07a763bf8,right,-1,0.75,0.3071,2,-0.011511469,0.1195,,,,,,28,0,28,0,1,,,,,
,,456827,001,2023-07-31_20h43.19.824,arm3_eps,2022.2.5,Win32,30.01020347,6310a2fb7a4dd7e9a7e72dea,64c7fed44a04f777bb1e18ce,64c800b4c90673b07a763bf8,down,1,0.75,0.3071,3,0,0.2972,,,,,,29,0,29,0,1,,,,,
,,456827,001,2023-07-31_20h43.19.824,arm3_eps,2022.2.5,Win32,30.01020347,6310a2fb7a4dd7e9a7e72dea,64c7fed44a04f777bb1e18ce,64c800b4c90673b07a763bf8,right,1,0.75,0.3071,3,0.012076564,0.7195,,,,,,30,0,30,0,1,,,,,
,,456827,001,2023-07-31_20h43.19.824,arm3_eps,2022.2.5,Win32,30.01020347,6310a2fb7a4dd7e9a7e72dea,64c7fed44a04f777bb1e18ce,64c800b4c90673b07a763bf8,right,1,0.75,0.3071,3,0.000936346,0.1321,,,,,,31,0,31,0,1,,,,,
,,456827,001,2023-07-31_20h43.19.824,arm3_eps,2022.2.5,Win32,30.01020347,6310a2fb7a4dd7e9a7e72dea,64c7fed44a04f777bb1e18ce,64c800b4c90673b07a763bf8,right,1,0.75,0.3071,3,0.009901418,0.1541,,,,,,32,0,32,0,1,,,,,
,,456827,001,2023-07-31_20h43.19.824,arm3_eps,2022.2.5,Win32,30.01020347,6310a2fb7a4dd7e9a7e72dea,64c7fed44a04f777bb1e18ce,64c800b4c90673b07a763bf8,right,1,0.75,0.3071,3,-0.011305736,0.1475,,,,,,33,0,33,0,1,,,,,
,,456827,001,2023-07-31_20h43.19.824,arm3_eps,2022.2.5,Win32,30.01020347,6310a2fb7a4dd7e9a7e72dea,64c7fed44a04f777bb1e18ce,64c800b4c90673b07a763bf8,right,1,0.75,0.3071,3,0.008301973,0.4732,,,,,,34,0,34,0,1,,,,,
,,456827,001,2023-07-31_20h43.19.824,arm3_eps,2022.2.5,Win32,30.01020347,6310a2fb7a4dd7e9a7e72dea,64c7fed44a04f777bb1e18ce,64c800b4c90673b07a763bf8,up,1,0.75,0.3071,4,0,0.4796,,,,,,35,0,35,0,1,,,,,
,,456827,001,2023-07-31_20h43.19.824,arm3_eps,2022.2.5,Win32,30.01020347,6310a2fb7a4dd7e9a7e72dea,64c7fed44a04f777bb1e18ce,64c800b4c90673b07a763bf8,right,1,0.75,0.3071,4,-0.007863544,0.6399,,,,,,36,0,36,0,1,,,,,
,,456827,001,2023-07-31_20h43.19.824,arm3_eps,2022.2.5,Win32,30.01020347,6310a2fb7a4dd7e9a7e72dea,64c7fed44a04f777bb1e18ce,64c800b4c90673b07a763bf8,right,1,0.75,0.3071,4,0.004964381,0.1319,,,,,,37,0,37,0,1,,,,,
,,456827,001,2023-07-31_20h43.19.824,arm3_eps,2022.2.5,Win32,30.01020347,6310a2fb7a4dd7e9a7e72dea,64c7fed44a04f777bb1e18ce,64c800b4c90673b07a763bf8,right,1,0.75,0.3071,4,0.023585061,0.1369,,,,,,38,0,38,0,1,,,,,
,,456827,001,2023-07-31_20h43.19.824,arm3_eps,2022.2.5,Win32,30.01020347,6310a2fb7a4dd7e9a7e72dea,64c7fed44a04f777bb1e18ce,64c800b4c90673b07a763bf8,right,1,0.75,0.3071,4,0.013750449,0.1435,,,,,,39,0,39,0,1,,,,,
,,456827,001,2023-07-31_20h43.19.824,arm3_eps,2022.2.5,Win32,30.01020347,6310a2fb7a4dd7e9a7e72dea,64c7fed44a04f777bb1e18ce,64c800b4c90673b07a763bf8,right,1,0.75,0.3071,4,0.025598302,0.1687,,,,,,40,0,40,0,1,,,,,
,,456827,001,2023-07-31_20h43.19.824,arm3_eps,2022.2.5,Win32,30.01020347,6310a2fb7a4dd7e9a7e72dea,64c7fed44a04f777bb1e18ce,64c800b4c90673b07a763bf8,up,-1,0.75,0.3071,4,0,0.5648,,,,,,41,0,41,0,1,,,,,
,,456827,001,2023-07-31_20h43.19.824,arm3_eps,2022.2.5,Win32,30.01020347,6310a2fb7a4dd7e9a7e72dea,64c7fed44a04f777bb1e18ce,64c800b4c90673b07a763bf8,right,-1,0.75,0.3071,4,-0.013281958,0.75,,,,,,42,0,42,0,1,,,,,
,,456827,001,2023-07-31_20h43.19.824,arm3_eps,2022.2.5,Win32,30.01020347,6310a2fb7a4dd7e9a7e72dea,64c7fed44a04f777bb1e18ce,64c800b4c90673b07a763bf8,right,-1,0.75,0.3071,4,-0.029755282,0.1301,,,,,,43,0,43,0,1,,,,,
,,456827,001,2023-07-31_20h43.19.824,arm3_eps,2022.2.5,Win32,30.01020347,6310a2fb7a4dd7e9a7e72dea,64c7fed44a04f777bb1e18ce,64c800b4c90673b07a763bf8,right,-1,0.75,0.3071,4,-0.043449407,0.1564,,,,,,44,0,44,0,1,,,,,
,,456827,001,2023-07-31_20h43.19.824,arm3_eps,2022.2.5,Win32,30.01020347,6310a2fb7a4dd7e9a7e72dea,64c7fed44a04f777bb1e18ce,64c800b4c90673b07a763bf8,right,-1,0.75,0.3071,4,-0.054459987,0.1469,,,,,,45,0,45,0,1,,,,,
,,456827,001,2023-07-31_20h43.19.824,arm3_eps,2022.2.5,Win32,30.01020347,6310a2fb7a4dd7e9a7e72dea,64c7fed44a04f777bb1e18ce,64c800b4c90673b07a763bf8,right,-1,0.75,0.3071,4,-0.0559331,0.1495,,,,,,46,0,46,0,1,,,,,
,,456827,001,2023-07-31_20h43.19.824,arm3_eps,2022.2.5,Win32,30.01020347,6310a2fb7a4dd7e9a7e72dea,64c7fed44a04f777bb1e18ce,64c800b4c90673b07a763bf8,down,-1,0.75,0.3071,5,0,0.3507,,,,,,47,0,47,0,1,,,,,
,,456827,001,2023-07-31_20h43.19.824,arm3_eps,2022.2.5,Win32,30.01020347,6310a2fb7a4dd7e9a7e72dea,64c7fed44a04f777bb1e18ce,64c800b4c90673b07a763bf8,right,-1,0.75,0.3071,5,-0.02436294,0.6381,,,,,,48,0,48,0,1,,,,,
,,456827,001,2023-07-31_20h43.19.824,arm3_eps,2022.2.5,Win32,30.01020347,6310a2fb7a4dd7e9a7e72dea,64c7fed44a04f777bb1e18ce,64c800b4c90673b07a763bf8,right,-1,0.75,0.3071,5,-0.054495187,0.1638,,,,,,49,0,49,0,1,,,,,
,,456827,001,2023-07-31_20h43.19.824,arm3_eps,2022.2.5,Win32,30.01020347,6310a2fb7a4dd7e9a7e72dea,64c7fed44a04f777bb1e18ce,64c800b4c90673b07a763bf8,right,-1,0.75,0.3071,5,-0.067025809,0.1623,,,,,,50,0,50,0,1,,,,,
,,456827,001,2023-07-31_20h43.19.824,arm3_eps,2022.2.5,Win32,30.01020347,6310a2fb7a4dd7e9a7e72dea,64c7fed44a04f777bb1e18ce,64c800b4c90673b07a763bf8,right,-1,0.75,0.3071,5,-0.075706387,0.119,,,,,,51,0,51,0,1,,,,,
,,456827,001,2023-07-31_20h43.19.824,arm3_eps,2022.2.5,Win32,30.01020347,6310a2fb7a4dd7e9a7e72dea,64c7fed44a04f777bb1e18ce,64c800b4c90673b07a763bf8,right,-1,0.75,0.3071,5,-0.113801618,0.1262,,,,,,52,0,52,0,1,,,,,
,,456827,001,2023-07-31_20h43.19.824,arm3_eps,2022.2.5,Win32,30.01020347,6310a2fb7a4dd7e9a7e72dea,64c7fed44a04f777bb1e18ce,64c800b4c90673b07a763bf8,down,-1,0.75,0.3071,6,0,0.2915,,,,,,53,0,53,0,1,,,,,
,,456827,001,2023-07-31_20h43.19.824,arm3_eps,2022.2.5,Win32,30.01020347,6310a2fb7a4dd7e9a7e72dea,64c7fed44a04f777bb1e18ce,64c800b4c90673b07a763bf8,right,-1,0.75,0.3071,6,-0.001302756,0.744,,,,,,54,0,54,0,1,,,,,
,,456827,001,2023-07-31_20h43.19.824,arm3_eps,2022.2.5,Win32,30.01020347,6310a2fb7a4dd7e9a7e72dea,64c7fed44a04f777bb1e18ce,64c800b4c90673b07a763bf8,right,-1,0.75,0.3071,6,-0.014556704,0.1667,,,,,,55,0,55,0,1,,,,,
,,456827,001,2023-07-31_20h43.19.824,arm3_eps,2022.2.5,Win32,30.01020347,6310a2fb7a4dd7e9a7e72dea,64c7fed44a04f777bb1e18ce,64c800b4c90673b07a763bf8,right,-1,0.75,0.3071,6,0.01429713,0.1335,,,,,,56,0,56,0,1,,,,,
,,456827,001,2023-07-31_20h43.19.824,arm3_eps,2022.2.5,Win32,30.01020347,6310a2fb7a4dd7e9a7e72dea,64c7fed44a04f777bb1e18ce,64c800b4c90673b07a763bf8,right,-1,0.75,0.3071,6,0.006564676,0.1622,,,,,,57,0,57,0,1,,,,,
,,456827,001,2023-07-31_20h43.19.824,arm3_eps,2022.2.5,Win32,30.01020347,6310a2fb7a4dd7e9a7e72dea,64c7fed44a04f777bb1e18ce,64c800b4c90673b07a763bf8,right,-1,0.75,0.3071,6,-0.035018252,0.1193,,,,,,58,0,58,0,1,,,,,
,,456827,001,2023-07-31_20h43.19.824,arm3_eps,2022.2.5,Win32,30.01020347,6310a2fb7a4dd7e9a7e72dea,64c7fed44a04f777bb1e18ce,64c800b4c90673b07a763bf8,down,1,0.75,0.3071,7,0,0.5152,,,,,,59,0,59,0,1,,,,,
,,456827,001,2023-07-31_20h43.19.824,arm3_eps,2022.2.5,Win32,30.01020347,6310a2fb7a4dd7e9a7e72dea,64c7fed44a04f777bb1e18ce,64c800b4c90673b07a763bf8,right,1,0.75,0.3071,7,0.009035922,0.6625,,,,,,60,0,60,0,1,,,,,
,,456827,001,2023-07-31_20h43.19.824,arm3_eps,2022.2.5,Win32,30.01020347,6310a2fb7a4dd7e9a7e72dea,64c7fed44a04f777bb1e18ce,64c800b4c90673b07a763bf8,right,1,0.75,0.3071,7,0.013662666,0.1462,,,,,,61,0,61,0,1,,,,,
,,456827,001,2023-07-31_20h43.19.824,arm3_eps,2022.2.5,Win32,30.01020347,6310a2fb7a4dd7e9a7e72dea,64c7fed44a04f777bb1e18ce,64c800b4c90673b07a763bf8,right,1,0.75,0.3071,7,0.032208867,0.1458,,,,,,62,0,62,0,1,,,,,
,,456827,001,2023-07-31_20h43.19.824,arm3_eps,2022.2.5,Win32,30.01020347,6310a2fb7a4dd7e9a7e72dea,64c7fed44a04f777bb1e18ce,64c800b4c90673b07a763bf8,right,1,0.75,0.3071,7,0.047168679,0.1064,,,,,,63,0,63,0,1,,,,,
,,456827,001,2023-07-31_20h43.19.824,arm3_eps,2022.2.5,Win32,30.01020347,6310a2fb7a4dd7e9a7e72dea,64c7fed44a04f777bb1e18ce,64c800b4c90673b07a763bf8,right,1,0.75,0.3071,7,0.031554575,0.1591,,,,,,64,0,64,0,1,,,,,
,,456827,001,2023-07-31_20h43.19.824,arm3_eps,2022.2.5,Win32,30.01020347,6310a2fb7a4dd7e9a7e72dea,64c7fed44a04f777bb1e18ce,64c800b4c90673b07a763bf8,up,1,0.75,0.3071,8,0,0.4235,,,,,,65,0,65,0,1,,,,,
,,456827,001,2023-07-31_20h43.19.824,arm3_eps,2022.2.5,Win32,30.01020347,6310a2fb7a4dd7e9a7e72dea,64c7fed44a04f777bb1e18ce,64c800b4c90673b07a763bf8,right,1,0.75,0.3071,8,0.021410463,0.6973,,,,,,66,0,66,0,1,,,,,
,,456827,001,2023-07-31_20h43.19.824,arm3_eps,2022.2.5,Win32,30.01020347,6310a2fb7a4dd7e9a7e72dea,64c7fed44a04f777bb1e18ce,64c800b4c90673b07a763bf8,right,1,0.75,0.3071,8,0.03364137,0.1305,,,,,,67,0,67,0,1,,,,,
,,456827,001,2023-07-31_20h43.19.824,arm3_eps,2022.2.5,Win32,30.01020347,6310a2fb7a4dd7e9a7e72dea,64c7fed44a04f777bb1e18ce,64c800b4c90673b07a763bf8,right,1,0.75,0.3071,8,0.02436749,0.1605,,,,,,68,0,68,0,1,,,,,
,,456827,001,2023-07-31_20h43.19.824,arm3_eps,2022.2.5,Win32,30.01020347,6310a2fb7a4dd7e9a7e72dea,64c7fed44a04f777bb1e18ce,64c800b4c90673b07a763bf8,right,1,0.75,0.3071,8,0.034976736,0.1327,,,,,,69,0,69,0,1,,,,,
,,456827,001,2023-07-31_20h43.19.824,arm3_eps,2022.2.5,Win32,30.01020347,6310a2fb7a4dd7e9a7e72dea,64c7fed44a04f777bb1e18ce,64c800b4c90673b07a763bf8,right,1,0.75,0.3071,8,0.087836321,0.1293,,,,,,70,0,70,0,1,,,,,
,,456827,001,2023-07-31_20h43.19.824,arm3_eps,2022.2.5,Win32,30.01020347,6310a2fb7a4dd7e9a7e72dea,64c7fed44a04f777bb1e18ce,64c800b4c90673b07a763bf8,up,1,0.75,0.3071,9,0,0.3224,,,,,,71,0,71,0,1,,,,,
,,456827,001,2023-07-31_20h43.19.824,arm3_eps,2022.2.5,Win32,30.01020347,6310a2fb7a4dd7e9a7e72dea,64c7fed44a04f777bb1e18ce,64c800b4c90673b07a763bf8,right,1,0.75,0.3071,9,0.010809987,0.6699,,,,,,72,0,72,0,1,,,,,
,,456827,001,2023-07-31_20h43.19.824,arm3_eps,2022.2.5,Win32,30.01020347,6310a2fb7a4dd7e9a7e72dea,64c7fed44a04f777bb1e18ce,64c800b4c90673b07a763bf8,right,1,0.75,0.3071,9,0.003914285,0.1473,,,,,,73,0,73,0,1,,,,,
,,456827,001,2023-07-31_20h43.19.824,arm3_eps,2022.2.5,Win32,30.01020347,6310a2fb7a4dd7e9a7e72dea,64c7fed44a04f777bb1e18ce,64c800b4c90673b07a763bf8,right,1,0.75,0.3071,9,0.007025861,0.1147,,,,,,74,0,74,0,1,,,,,
,,456827,001,2023-07-31_20h43.19.824,arm3_eps,2022.2.5,Win32,30.01020347,6310a2fb7a4dd7e9a7e72dea,64c7fed44a04f777bb1e18ce,64c800b4c90673b07a763bf8,right,1,0.75,0.3071,9,0.025594405,0.1169,,,,,,75,0,75,0,1,,,,,
,,456827,001,2023-07-31_20h43.19.824,arm3_eps,2022.2.5,Win32,30.01020347,6310a2fb7a4dd7e9a7e72dea,64c7fed44a04f777bb1e18ce,64c800b4c90673b07a763bf8,right,1,0.75,0.3071,9,0.027409582,0.1524,,,,,,76,0,76,0,1,,,,,
,,456827,001,2023-07-31_20h43.19.824,arm3_eps,2022.2.5,Win32,30.01020347,6310a2fb7a4dd7e9a7e72dea,64c7fed44a04f777bb1e18ce,64c800b4c90673b07a763bf8,up,1,0.75,0.3071,10,0,0.399,,,,,,77,0,77,0,1,,,,,
,,456827,001,2023-07-31_20h43.19.824,arm3_eps,2022.2.5,Win32,30.01020347,6310a2fb7a4dd7e9a7e72dea,64c7fed44a04f777bb1e18ce,64c800b4c90673b07a763bf8,right,1,0.75,0.3071,10,-0.01542788,0.7391,,,,,,78,0,78,0,1,,,,,
,,456827,001,2023-07-31_20h43.19.824,arm3_eps,2022.2.5,Win32,30.01020347,6310a2fb7a4dd7e9a7e72dea,64c7fed44a04f777bb1e18ce,64c800b4c90673b07a763bf8,right,1,0.75,0.3071,10,0.001391803,0.1551,,,,,,79,0,79,0,1,,,,,
,,456827,001,2023-07-31_20h43.19.824,arm3_eps,2022.2.5,Win32,30.01020347,6310a2fb7a4dd7e9a7e72dea,64c7fed44a04f777bb1e18ce,64c800b4c90673b07a763bf8,right,1,0.75,0.3071,10,0.001974151,0.1578,,,,,,80,0,80,0,1,,,,,
,,456827,001,2023-07-31_20h43.19.824,arm3_eps,2022.2.5,Win32,30.01020347,6310a2fb7a4dd7e9a7e72dea,64c7fed44a04f777bb1e18ce,64c800b4c90673b07a763bf8,right,1,0.75,0.3071,10,-0.000613065,0.1437,,,,,,81,0,81,0,1,,,,,
,,456827,001,2023-07-31_20h43.19.824,arm3_eps,2022.2.5,Win32,30.01020347,6310a2fb7a4dd7e9a7e72dea,64c7fed44a04f777bb1e18ce,64c800b4c90673b07a763bf8,right,1,0.75,0.3071,10,0.023043103,0.1482,,,,,,82,0,82,0,1,,,,,
,,456827,001,2023-07-31_20h43.19.824,arm3_eps,2022.2.5,Win32,30.01020347,6310a2fb7a4dd7e9a7e72dea,64c7fed44a04f777bb1e18ce,64c800b4c90673b07a763bf8,up,-1,0.75,0.3071,11,0,0.3725,,,,,,83,0,83,0,1,,,,,
,,456827,001,2023-07-31_20h43.19.824,arm3_eps,2022.2.5,Win32,30.01020347,6310a2fb7a4dd7e9a7e72dea,64c7fed44a04f777bb1e18ce,64c800b4c90673b07a763bf8,right,-1,0.75,0.3071,11,-0.002385725,0.6028,,,,,,84,0,84,0,1,,,,,
,,456827,001,2023-07-31_20h43.19.824,arm3_eps,2022.2.5,Win32,30.01020347,6310a2fb7a4dd7e9a7e72dea,64c7fed44a04f777bb1e18ce,64c800b4c90673b07a763bf8,right,-1,0.75,0.3071,11,-0.036847518,0.1831,,,,,,85,0,85,0,1,,,,,
,,456827,001,2023-07-31_20h43.19.824,arm3_eps,2022.2.5,Win32,30.01020347,6310a2fb7a4dd7e9a7e72dea,64c7fed44a04f777bb1e18ce,64c800b4c90673b07a763bf8,right,-1,0.75,0.3071,11,-0.022969173,0.1381,,,,,,86,0,86,0,1,,,,,
,,456827,001,2023-07-31_20h43.19.824,arm3_eps,2022.2.5,Win32,30.01020347,6310a2fb7a4dd7e9a7e72dea,64c7fed44a04f777bb1e18ce,64c800b4c90673b07a763bf8,right,-1,0.75,0.3071,11,-0.05372977,0.1414,,,,,,87,0,87,0,1,,,,,
,,456827,001,2023-07-31_20h43.19.824,arm3_eps,2022.2.5,Win32,30.01020347,6310a2fb7a4dd7e9a7e72dea,64c7fed44a04f777bb1e18ce,64c800b4c90673b07a763bf8,right,-1,0.75,0.3071,11,-0.040973736,0.148,,,,,,88,0,88,0,1,,,,,
,,456827,001,2023-07-31_20h43.19.824,arm3_eps,2022.2.5,Win32,30.01020347,6310a2fb7a4dd7e9a7e72dea,64c7fed44a04f777bb1e18ce,64c800b4c90673b07a763bf8,down,-1,0.75,0.3071,11,0,1.0099,,,,,,89,0,89,0,1,,,,,
,,456827,001,2023-07-31_20h43.19.824,arm3_eps,2022.2.5,Win32,30.01020347,6310a2fb7a4dd7e9a7e72dea,64c7fed44a04f777bb1e18ce,64c800b4c90673b07a763bf8,right,-1,0.75,0.3071,11,-0.007349655,0.7594,,,,,,90,0,90,0,1,,,,,
,,456827,001,2023-07-31_20h43.19.824,arm3_eps,2022.2.5,Win32,30.01020347,6310a2fb7a4dd7e9a7e72dea,64c7fed44a04f777bb1e18ce,64c800b4c90673b07a763bf8,right,-1,0.75,0.3071,11,-0.034643461,0.1504,,,,,,91,0,91,0,1,,,,,
,,456827,001,2023-07-31_20h43.19.824,arm3_eps,2022.2.5,Win32,30.01020347,6310a2fb7a4dd7e9a7e72dea,64c7fed44a04f777bb1e18ce,64c800b4c90673b07a763bf8,right,-1,0.75,0.3071,11,-0.040286255,0.146,,,,,,92,0,92,0,1,,,,,
,,456827,001,2023-07-31_20h43.19.824,arm3_eps,2022.2.5,Win32,30.01020347,6310a2fb7a4dd7e9a7e72dea,64c7fed44a04f777bb1e18ce,64c800b4c90673b07a763bf8,right,-1,0.75,0.3071,11,-0.0775139,0.1205,,,,,,93,0,93,0,1,,,,,
,,456827,001,2023-07-31_20h43.19.824,arm3_eps,2022.2.5,Win32,30.01020347,6310a2fb7a4dd7e9a7e72dea,64c7fed44a04f777bb1e18ce,64c800b4c90673b07a763bf8,right,-1,0.75,0.3071,11,-0.073571944,0.1121,,,,,,94,0,94,0,1,,,,,
,,456827,001,2023-07-31_20h43.19.824,arm3_eps,2022.2.5,Win32,30.01020347,6310a2fb7a4dd7e9a7e72dea,64c7fed44a04f777bb1e18ce,64c800b4c90673b07a763bf8,down,-1,0.75,0.3071,11,0,0.3133,,,,,,95,0,95,0,1,,,,,
,,456827,001,2023-07-31_20h43.19.824,arm3_eps,2022.2.5,Win32,30.01020347,6310a2fb7a4dd7e9a7e72dea,64c7fed44a04f777bb1e18ce,64c800b4c90673b07a763bf8,right,-1,0.75,0.3071,11,0.004263099,0.769,,,,,,96,0,96,0,1,,,,,
,,456827,001,2023-07-31_20h43.19.824,arm3_eps,2022.2.5,Win32,30.01020347,6310a2fb7a4dd7e9a7e72dea,64c7fed44a04f777bb1e18ce,64c800b4c90673b07a763bf8,right,-1,0.75,0.3071,11,-0.00298755,0.1304,,,,,,97,0,97,0,1,,,,,
,,456827,001,2023-07-31_20h43.19.824,arm3_eps,2022.2.5,Win32,30.01020347,6310a2fb7a4dd7e9a7e72dea,64c7fed44a04f777bb1e18ce,64c800b4c90673b07a763bf8,right,-1,0.75,0.3071,11,-0.010001102,0.1268,,,,,,98,0,98,0,1,,,,,
,,456827,001,2023-07-31_20h43.19.824,arm3_eps,2022.2.5,Win32,30.01020347,6310a2fb7a4dd7e9a7e72dea,64c7fed44a04f777bb1e18ce,64c800b4c90673b07a763bf8,right,-1,0.75,0.3071,11,0.001065689,0.1297,,,,,,99,0,99,0,1,,,,,
,,456827,001,2023-07-31_20h43.19.824,arm3_eps,2022.2.5,Win32,30.01020347,6310a2fb7a4dd7e9a7e72dea,64c7fed44a04f777bb1e18ce,64c800b4c90673b07a763bf8,right,-1,0.75,0.3071,11,0.023986315,0.1193,,,,,,100,0,100,0,1,,,,,
,,456827,001,2023-07-31_20h43.19.824,arm3_eps,2022.2.5,Win32,30.01020347,6310a2fb7a4dd7e9a7e72dea,64c7fed44a04f777bb1e18ce,64c800b4c90673b07a763bf8,up,-1,0.75,0.3071,10,0,0.4953,,,,,,101,0,101,0,1,,,,,
,,456827,001,2023-07-31_20h43.19.824,arm3_eps,2022.2.5,Win32,30.01020347,6310a2fb7a4dd7e9a7e72dea,64c7fed44a04f777bb1e18ce,64c800b4c90673b07a763bf8,right,-1,0.75,0.3071,10,-0.012215607,0.7042,,,,,,102,0,102,0,1,,,,,
,,456827,001,2023-07-31_20h43.19.824,arm3_eps,2022.2.5,Win32,30.01020347,6310a2fb7a4dd7e9a7e72dea,64c7fed44a04f777bb1e18ce,64c800b4c90673b07a763bf8,right,-1,0.75,0.3071,10,-0.023614829,0.1515,,,,,,103,0,103,0,1,,,,,
,,456827,001,2023-07-31_20h43.19.824,arm3_eps,2022.2.5,Win32,30.01020347,6310a2fb7a4dd7e9a7e72dea,64c7fed44a04f777bb1e18ce,64c800b4c90673b07a763bf8,right,-1,0.75,0.3071,10,-0.024020145,0.1231,,,,,,104,0,104,0,1,,,,,
,,456827,001,2023-07-31_20h43.19.824,arm3_eps,2022.2.5,Win32,30.01020347,6310a2fb7a4dd7e9a7e72dea,64c7fed44a04f777bb1e18ce,64c800b4c90673b07a763bf8,right,-1,0.75,0.3071,10,-0.041804073,0.1201,,,,,,105,0,105,0,1,,,,,
,,456827,001,2023-07-31_20h43.19.824,arm3_eps,2022.2.5,Win32,30.01020347,6310a2fb7a4dd7e9a7e72dea,64c7fed44a04f777bb1e18ce,64c800b4c90673b07a763bf8,right,-1,0.75,0.3071,10,-0.040335167,0.127,,,,,,106,0,106,0,1,,,,,
,,456827,001,2023-07-31_20h43.19.824,arm3_eps,2022.2.5,Win32,30.01020347,6310a2fb7a4dd7e9a7e72dea,64c7fed44a04f777bb1e18ce,64c800b4c90673b07a763bf8,down,1,0.75,0.3071,11,0,0.3463,,,,,,107,0,107,0,1,,,,,
,,456827,001,2023-07-31_20h43.19.824,arm3_eps,2022.2.5,Win32,30.01020347,6310a2fb7a4dd7e9a7e72dea,64c7fed44a04f777bb1e18ce,64c800b4c90673b07a763bf8,right,1,0.75,0.3071,11,0.019960216,0.6253,,,,,,108,0,108,0,1,,,,,
,,456827,001,2023-07-31_20h43.19.824,arm3_eps,2022.2.5,Win32,30.01020347,6310a2fb7a4dd7e9a7e72dea,64c7fed44a04f777bb1e18ce,64c800b4c90673b07a763bf8,right,1,0.75,0.3071,11,0.023955954,0.1649,,,,,,109,0,109,0,1,,,,,
,,456827,001,2023-07-31_20h43.19.824,arm3_eps,2022.2.5,Win32,30.01020347,6310a2fb7a4dd7e9a7e72dea,64c7fed44a04f777bb1e18ce,64c800b4c90673b07a763bf8,right,1,0.75,0.3071,11,0.067645659,0.1346,,,,,,110,0,110,0,1,,,,,
,,456827,001,2023-07-31_20h43.19.824,arm3_eps,2022.2.5,Win32,30.01020347,6310a2fb7a4dd7e9a7e72dea,64c7fed44a04f777bb1e18ce,64c800b4c90673b07a763bf8,right,1,0.75,0.3071,11,0.104206852,0.1166,,,,,,111,0,111,0,1,,,,,
,,456827,001,2023-07-31_20h43.19.824,arm3_eps,2022.2.5,Win32,30.01020347,6310a2fb7a4dd7e9a7e72dea,64c7fed44a04f777bb1e18ce,64c800b4c90673b07a763bf8,right,1,0.75,0.3071,11,0.156065386,0.1314,,,,,,112,0,112,0,1,,,,,
,,456827,001,2023-07-31_20h43.19.824,arm3_eps,2022.2.5,Win32,30.01020347,6310a2fb7a4dd7e9a7e72dea,64c7fed44a04f777bb1e18ce,64c800b4c90673b07a763bf8,up,1,0.75,0.3071,12,0,0.2729,,,,,,113,0,113,0,1,,,,,
,,456827,001,2023-07-31_20h43.19.824,arm3_eps,2022.2.5,Win32,30.01020347,6310a2fb7a4dd7e9a7e72dea,64c7fed44a04f777bb1e18ce,64c800b4c90673b07a763bf8,right,1,0.75,0.3071,12,0.004978455,0.6437,,,,,,114,0,114,0,1,,,,,
,,456827,001,2023-07-31_20h43.19.824,arm3_eps,2022.2.5,Win32,30.01020347,6310a2fb7a4dd7e9a7e72dea,64c7fed44a04f777bb1e18ce,64c800b4c90673b07a763bf8,right,1,0.75,0.3071,12,0.001635046,0.1724,,,,,,115,0,115,0,1,,,,,
,,456827,001,2023-07-31_20h43.19.824,arm3_eps,2022.2.5,Win32,30.01020347,6310a2fb7a4dd7e9a7e72dea,64c7fed44a04f777bb1e18ce,64c800b4c90673b07a763bf8,right,1,0.75,0.3071,12,-0.016568098,0.1378,,,,,,116,0,116,0,1,,,,,
,,456827,001,2023-07-31_20h43.19.824,arm3_eps,2022.2.5,Win32,30.01020347,6310a2fb7a4dd7e9a7e72dea,64c7fed44a04f777bb1e18ce,64c800b4c90673b07a763bf8,right,1,0.75,0.3071,12,-0.010296925,0.1393,,,,,,117,0,117,0,1,,,,,
,,456827,001,2023-07-31_20h43.19.824,arm3_eps,2022.2.5,Win32,30.01020347,6310a2fb7a4dd7e9a7e72dea,64c7fed44a04f777bb1e18ce,64c800b4c90673b07a763bf8,right,1,0.75,0.3071,12,-0.011053067,0.1119,,,,,,118,0,118,0,1,,,,,
,,456827,001,2023-07-31_20h43.19.824,arm3_eps,2022.2.5,Win32,30.01020347,6310a2fb7a4dd7e9a7e72dea,64c7fed44a04f777bb1e18ce,64c800b4c90673b07a763bf8,down,-1,0.75,0.3071,12,0,0.5131,,,,,,119,0,119,0,1,,,,,
,,456827,001,2023-07-31_20h43.19.824,arm3_eps,2022.2.5,Win32,30.01020347,6310a2fb7a4dd7e9a7e72dea,64c7fed44a04f777bb1e18ce,64c800b4c90673b07a763bf8,right,-1,0.75,0.3071,12,-0.015499105,0.6105,,,,,,120,0,120,0,1,,,,,
,,456827,001,2023-07-31_20h43.19.824,arm3_eps,2022.2.5,Win32,30.01020347,6310a2fb7a4dd7e9a7e72dea,64c7fed44a04f777bb1e18ce,64c800b4c90673b07a763bf8,right,-1,0.75,0.3071,12,-0.05343582,0.1318,,,,,,121,0,121,0,1,,,,,
,,456827,001,2023-07-31_20h43.19.824,arm3_eps,2022.2.5,Win32,30.01020347,6310a2fb7a4dd7e9a7e72dea,64c7fed44a04f777bb1e18ce,64c800b4c90673b07a763bf8,right,-1,0.75,0.3071,12,-0.066995446,0.1289,,,,,,122,0,122,0,1,,,,,
,,456827,001,2023-07-31_20h43.19.824,arm3_eps,2022.2.5,Win32,30.01020347,6310a2fb7a4dd7e9a7e72dea,64c7fed44a04f777bb1e18ce,64c800b4c90673b07a763bf8,right,-1,0.75,0.3071,12,-0.096837616,0.1534,,,,,,123,0,123,0,1,,,,,
,,456827,001,2023-07-31_20h43.19.824,arm3_eps,2022.2.5,Win32,30.01020347,6310a2fb7a4dd7e9a7e72dea,64c7fed44a04f777bb1e18ce,64c800b4c90673b07a763bf8,right,-1,0.75,0.3071,12,-0.110941826,0.0965,,,,,,124,0,124,0,1,,,,,
,,456827,001,2023-07-31_20h43.19.824,arm3_eps,2022.2.5,Win32,30.01020347,6310a2fb7a4dd7e9a7e72dea,64c7fed44a04f777bb1e18ce,64c800b4c90673b07a763bf8,down,-1,0.75,0.3071,12,0,0.2764,,,,,,125,0,125,0,1,,,,,
,,456827,001,2023-07-31_20h43.19.824,arm3_eps,2022.2.5,Win32,30.01020347,6310a2fb7a4dd7e9a7e72dea,64c7fed44a04f777bb1e18ce,64c800b4c90673b07a763bf8,right,-1,0.75,0.3071,12,-0.034061936,0.6293,,,,,,126,0,126,0,1,,,,,
,,456827,001,2023-07-31_20h43.19.824,arm3_eps,2022.2.5,Win32,30.01020347,6310a2fb7a4dd7e9a7e72dea,64c7fed44a04f777bb1e18ce,64c800b4c90673b07a763bf8,right,-1,0.75,0.3071,12,-0.051594062,0.1461,,,,,,127,0,127,0,1,,,,,
,,456827,001,2023-07-31_20h43.19.824,arm3_eps,2022.2.5,Win32,30.01020347,6310a2fb7a4dd7e9a7e72dea,64c7fed44a04f777bb1e18ce,64c800b4c90673b07a763bf8,right,-1,0.75,0.3071,12,-0.021458809,0.128,,,,,,128,0,128,0,1,,,,,
,,456827,001,2023-07-31_20h43.19.824,arm3_eps,2022.2.5,Win32,30.01020347,6310a2fb7a4dd7e9a7e72dea,64c7fed44a04f777bb1e18ce,64c800b4c90673b07a763bf8,right,-1,0.75,0.3071,12,-0.005924674,0.1305,,,,,,129,0,129,0,1,,,,,
,,456827,001,2023-07-31_20h43.19.824,arm3_eps,2022.2.5,Win32,30.01020347,6310a2fb7a4dd7e9a7e72dea,64c7fed44a04f777bb1e18ce,64c800b4c90673b07a763bf8,right,-1,0.75,0.3071,12,-0.045065416,0.1191,,,,,,130,0,130,0,1,,,,,
,,456827,001,2023-07-31_20h43.19.824,arm3_eps,2022.2.5,Win32,30.01020347,6310a2fb7a4dd7e9a7e72dea,64c7fed44a04f777bb1e18ce,64c800b4c90673b07a763bf8,down,1,0.75,0.3071,13,0,0.4459,,,,,,131,0,131,0,1,,,,,
,,456827,001,2023-07-31_20h43.19.824,arm3_eps,2022.2.5,Win32,30.01020347,6310a2fb7a4dd7e9a7e72dea,64c7fed44a04f777bb1e18ce,64c800b4c90673b07a763bf8,right,1,0.75,0.3071,13,0.037005063,0.5392,,,,,,132,0,132,0,1,,,,,
,,456827,001,2023-07-31_20h43.19.824,arm3_eps,2022.2.5,Win32,30.01020347,6310a2fb7a4dd7e9a7e72dea,64c7fed44a04f777bb1e18ce,64c800b4c90673b07a763bf8,right,1,0.75,0.3071,13,0.055745438,0.1603,,,,,,133,0,133,0,1,,,,,
,,456827,001,2023-07-31_20h43.19.824,arm3_eps,2022.2.5,Win32,30.01020347,6310a2fb7a4dd7e9a7e72dea,64c7fed44a04f777bb1e18ce,64c800b4c90673b07a763bf8,right,1,0.75,0.3071,13,0.055236202,0.1245,,,,,,134,0,134,0,1,,,,,
,,456827,001,2023-07-31_20h43.19.824,arm3_eps,2022.2.5,Win32,30.01020347,6310a2fb7a4dd7e9a7e72dea,64c7fed44a04f777bb1e18ce,64c800b4c90673b07a763bf8,right,1,0.75,0.3071,13,0.068745402,0.1326,,,,,,135,0,135,0,1,,,,,
,,456827,001,2023-07-31_20h43.19.824,arm3_eps,2022.2.5,Win32,30.01020347,6310a2fb7a4dd7e9a7e72dea,64c7fed44a04f777bb1e18ce,64c800b4c90673b07a763bf8,right,1,0.75,0.3071,13,0.060208719,0.1527,,,,,,136,0,136,0,1,,,,,
,,456827,001,2023-07-31_20h43.19.824,arm3_eps,2022.2.5,Win32,30.01020347,6310a2fb7a4dd7e9a7e72dea,64c7fed44a04f777bb1e18ce,64c800b4c90673b07a763bf8,up,1,0.75,0.3071,14,0,0.3586,,,,,,137,0,137,0,1,,,,,
,,456827,001,2023-07-31_20h43.19.824,arm3_eps,2022.2.5,Win32,30.01020347,6310a2fb7a4dd7e9a7e72dea,64c7fed44a04f777bb1e18ce,64c800b4c90673b07a763bf8,right,1,0.75,0.3071,14,-0.013333538,0.6423,,,,,,138,0,138,0,1,,,,,
,,456827,001,2023-07-31_20h43.19.824,arm3_eps,2022.2.5,Win32,30.01020347,6310a2fb7a4dd7e9a7e72dea,64c7fed44a04f777bb1e18ce,64c800b4c90673b07a763bf8,right,1,0.75,0.3071,14,0.006425774,0.1781,,,,,,139,0,139,0,1,,,,,
,,456827,001,2023-07-31_20h43.19.824,arm3_eps,2022.2.5,Win32,30.01020347,6310a2fb7a4dd7e9a7e72dea,64c7fed44a04f777bb1e18ce,64c800b4c90673b07a763bf8,right,1,0.75,0.3071,14,-0.004463997,0.1327,,,,,,140,0,140,0,1,,,,,
,,456827,001,2023-07-31_20h43.19.824,arm3_eps,2022.2.5,Win32,30.01020347,6310a2fb7a4dd7e9a7e72dea,64c7fed44a04f777bb1e18ce,64c800b4c90673b07a763bf8,right,1,0.75,0.3071,14,0.020078039,0.1457,,,,,,141,0,141,0,1,,,,,
,,456827,001,2023-07-31_20h43.19.824,arm3_eps,2022.2.5,Win32,30.01020347,6310a2fb7a4dd7e9a7e72dea,64c7fed44a04f777bb1e18ce,64c800b4c90673b07a763bf8,right,1,0.75,0.3071,14,0.009929709,0.146,,,,,,142,0,142,0,1,,,,,
,,456827,001,2023-07-31_20h43.19.824,arm3_eps,2022.2.5,Win32,30.01020347,6310a2fb7a4dd7e9a7e72dea,64c7fed44a04f777bb1e18ce,64c800b4c90673b07a763bf8,up,-1,0.75,0.3071,15,0,0.5226,,,,,,143,0,143,0,1,,,,,
,,456827,001,2023-07-31_20h43.19.824,arm3_eps,2022.2.5,Win32,30.01020347,6310a2fb7a4dd7e9a7e72dea,64c7fed44a04f777bb1e18ce,64c800b4c90673b07a763bf8,right,-1,0.75,0.3071,15,-0.030149064,0.5612,,,,,,144,0,144,0,1,,,,,
,,456827,001,2023-07-31_20h43.19.824,arm3_eps,2022.2.5,Win32,30.01020347,6310a2fb7a4dd7e9a7e72dea,64c7fed44a04f777bb1e18ce,64c800b4c90673b07a763bf8,right,-1,0.75,0.3071,15,-0.061471012,0.1148,,,,,,145,0,145,0,1,,,,,
,,456827,001,2023-07-31_20h43.19.824,arm3_eps,2022.2.5,Win32,30.01020347,6310a2fb7a4dd7e9a7e72dea,64c7fed44a04f777bb1e18ce,64c800b4c90673b07a763bf8,right,-1,0.75,0.3071,15,-0.073750711,0.1403,,,,,,146,0,146,0,1,,,,,
,,456827,001,2023-07-31_20h43.19.824,arm3_eps,2022.2.5,Win32,30.01020347,6310a2fb7a4dd7e9a7e72dea,64c7fed44a04f777bb1e18ce,64c800b4c90673b07a763bf8,right,-1,0.75,0.3071,15,-0.10335579,0.1168,,,,,,147,0,147,0,1,,,,,
,,456827,001,2023-07-31_20h43.19.824,arm3_eps,2022.2.5,Win32,30.01020347,6310a2fb7a4dd7e9a7e72dea,64c7fed44a04f777bb1e18ce,64c800b4c90673b07a763bf8,right,-1,0.75,0.3071,15,-0.103344776,0.1422,,,,,,148,0,148,0,1,,,,,
,,456827,001,2023-07-31_20h43.19.824,arm3_eps,2022.2.5,Win32,30.01020347,6310a2fb7a4dd7e9a7e72dea,64c7fed44a04f777bb1e18ce,64c800b4c90673b07a763bf8,down,-1,0.75,0.3071,16,0,0.3218,,,,,,149,0,149,0,1,,,,,
,,456827,001,2023-07-31_20h43.19.824,arm3_eps,2022.2.5,Win32,30.01020347,6310a2fb7a4dd7e9a7e72dea,64c7fed44a04f777bb1e18ce,64c800b4c90673b07a763bf8,right,-1,0.75,0.3071,16,0.015340893,0.7586,,,,,,150,0,150,0,1,,,,,
,,456827,001,2023-07-31_20h43.19.824,arm3_eps,2022.2.5,Win32,30.01020347,6310a2fb7a4dd7e9a7e72dea,64c7fed44a04f777bb1e18ce,64c800b4c90673b07a763bf8,right,-1,0.75,0.3071,16,-0.007481763,0.1443,,,,,,151,0,151,0,1,,,,,
,,456827,001,2023-07-31_20h43.19.824,arm3_eps,2022.2.5,Win32,30.01020347,6310a2fb7a4dd7e9a7e72dea,64c7fed44a04f777bb1e18ce,64c800b4c90673b07a763bf8,right,-1,0.75,0.3071,16,-0.009479394,0.1492,,,,,,152,0,152,0,1,,,,,
,,456827,001,2023-07-31_20h43.19.824,arm3_eps,2022.2.5,Win32,30.01020347,6310a2fb7a4dd7e9a7e72dea,64c7fed44a04f777bb1e18ce,64c800b4c90673b07a763bf8,right,-1,0.75,0.3071,16,-0.025932456,0.1573,,,,,,153,0,153,0,1,,,,,
,,456827,001,2023-07-31_20h43.19.824,arm3_eps,2022.2.5,Win32,30.01020347,6310a2fb7a4dd7e9a7e72dea,64c7fed44a04f777bb1e18ce,64c800b4c90673b07a763bf8,right,-1,0.75,0.3071,16,-0.046856893,0.1491,,,,,,154,0,154,0,1,,,,,
,,456827,001,2023-07-31_20h43.19.824,arm3_eps,2022.2.5,Win32,30.01020347,6310a2fb7a4dd7e9a7e72dea,64c7fed44a04f777bb1e18ce,64c800b4c90673b07a763bf8,up,-1,0.75,0.3071,15,0,1.1222,,,,,,155,0,155,0,1,,,,,
,,456827,001,2023-07-31_20h43.19.824,arm3_eps,2022.2.5,Win32,30.01020347,6310a2fb7a4dd7e9a7e72dea,64c7fed44a04f777bb1e18ce,64c800b4c90673b07a763bf8,right,-1,0.75,0.3071,15,0.010493389,0.6439,,,,,,156,0,156,0,1,,,,,
,,456827,001,2023-07-31_20h43.19.824,arm3_eps,2022.2.5,Win32,30.01020347,6310a2fb7a4dd7e9a7e72dea,64c7fed44a04f777bb1e18ce,64c800b4c90673b07a763bf8,right,-1,0.75,0.3071,15,0.006502845,0.1637,,,,,,157,0,157,0,1,,,,,
,,456827,001,2023-07-31_20h43.19.824,arm3_eps,2022.2.5,Win32,30.01020347,6310a2fb7a4dd7e9a7e72dea,64c7fed44a04f777bb1e18ce,64c800b4c90673b07a763bf8,right,-1,0.75,0.3071,15,0.026405078,0.122,,,,,,158,0,158,0,1,,,,,
,,456827,001,2023-07-31_20h43.19.824,arm3_eps,2022.2.5,Win32,30.01020347,6310a2fb7a4dd7e9a7e72dea,64c7fed44a04f777bb1e18ce,64c800b4c90673b07a763bf8,right,-1,0.75,0.3071,15,0.000100009,0.1622,,,,,,159,0,159,0,1,,,,,
,,456827,001,2023-07-31_20h43.19.824,arm3_eps,2022.2.5,Win32,30.01020347,6310a2fb7a4dd7e9a7e72dea,64c7fed44a04f777bb1e18ce,64c800b4c90673b07a763bf8,right,-1,0.75,0.3071,15,-0.006407956,0.1453,,,,,,160,0,160,0,1,,,,,
,,456827,001,2023-07-31_20h43.19.824,arm3_eps,2022.2.5,Win32,30.01020347,6310a2fb7a4dd7e9a7e72dea,64c7fed44a04f777bb1e18ce,64c800b4c90673b07a763bf8,down,1,0.75,0.3071,16,0,0.4636,,,,,,161,0,161,0,1,,,,,
,,456827,001,2023-07-31_20h43.19.824,arm3_eps,2022.2.5,Win32,30.01020347,6310a2fb7a4dd7e9a7e72dea,64c7fed44a04f777bb1e18ce,64c800b4c90673b07a763bf8,right,1,0.75,0.3071,16,0.019737742,0.6252,,,,,,162,0,162,0,1,,,,,
,,456827,001,2023-07-31_20h43.19.824,arm3_eps,2022.2.5,Win32,30.01020347,6310a2fb7a4dd7e9a7e72dea,64c7fed44a04f777bb1e18ce,64c800b4c90673b07a763bf8,right,1,0.75,0.3071,16,0.020582948,0.186,,,,,,163,0,163,0,1,,,,,
,,456827,001,2023-07-31_20h43.19.824,arm3_eps,2022.2.5,Win32,30.01020347,6310a2fb7a4dd7e9a7e72dea,64c7fed44a04f777bb1e18ce,64c800b4c90673b07a763bf8,right,1,0.75,0.3071,16,-0.019094457,0.1641,,,,,,164,0,164,0,1,,,,,
,,456827,001,2023-07-31_20h43.19.824,arm3_eps,2022.2.5,Win32,30.01020347,6310a2fb7a4dd7e9a7e72dea,64c7fed44a04f777bb1e18ce,64c800b4c90673b07a763bf8,right,1,0.75,0.3071,16,-0.027339801,0.1367,,,,,,165,0,165,0,1,,,,,
,,456827,001,2023-07-31_20h43.19.824,arm3_eps,2022.2.5,Win32,30.01020347,6310a2fb7a4dd7e9a7e72dea,64c7fed44a04f777bb1e18ce,64c800b4c90673b07a763bf8,right,1,0.75,0.3071,16,-0.032615299,0.1362,,,,,,166,0,166,0,1,,,,,
,,456827,001,2023-07-31_20h43.19.824,arm3_eps,2022.2.5,Win32,30.01020347,6310a2fb7a4dd7e9a7e72dea,64c7fed44a04f777bb1e18ce,64c800b4c90673b07a763bf8,down,1,0.75,0.3071,15,0,0.4736,,,,,,167,0,167,0,1,,,,,
,,456827,001,2023-07-31_20h43.19.824,arm3_eps,2022.2.5,Win32,30.01020347,6310a2fb7a4dd7e9a7e72dea,64c7fed44a04f777bb1e18ce,64c800b4c90673b07a763bf8,right,1,0.75,0.3071,15,-0.005027072,0.8316,,,,,,168,0,168,0,1,,,,,
,,456827,001,2023-07-31_20h43.19.824,arm3_eps,2022.2.5,Win32,30.01020347,6310a2fb7a4dd7e9a7e72dea,64c7fed44a04f777bb1e18ce,64c800b4c90673b07a763bf8,right,1,0.75,0.3071,15,0.019716655,0.1471,,,,,,169,0,169,0,1,,,,,
,,456827,001,2023-07-31_20h43.19.824,arm3_eps,2022.2.5,Win32,30.01020347,6310a2fb7a4dd7e9a7e72dea,64c7fed44a04f777bb1e18ce,64c800b4c90673b07a763bf8,right,1,0.75,0.3071,15,0.003909194,0.1521,,,,,,170,0,170,0,1,,,,,
,,456827,001,2023-07-31_20h43.19.824,arm3_eps,2022.2.5,Win32,30.01020347,6310a2fb7a4dd7e9a7e72dea,64c7fed44a04f777bb1e18ce,64c800b4c90673b07a763bf8,right,1,0.75,0.3071,15,0.001526963,0.1574,,,,,,171,0,171,0,1,,,,,
,,456827,001,2023-07-31_20h43.19.824,arm3_eps,2022.2.5,Win32,30.01020347,6310a2fb7a4dd7e9a7e72dea,64c7fed44a04f777bb1e18ce,64c800b4c90673b07a763bf8,right,1,0.75,0.3071,15,-0.003608692,0.1284,,,,,,172,0,172,0,1,,,,,
,,456827,001,2023-07-31_20h43.19.824,arm3_eps,2022.2.5,Win32,30.01020347,6310a2fb7a4dd7e9a7e72dea,64c7fed44a04f777bb1e18ce,64c800b4c90673b07a763bf8,up,1,0.75,0.3071,16,0,0.5458,,,,,,173,0,173,0,1,,,,,
,,456827,001,2023-07-31_20h43.19.824,arm3_eps,2022.2.5,Win32,30.01020347,6310a2fb7a4dd7e9a7e72dea,64c7fed44a04f777bb1e18ce,64c800b4c90673b07a763bf8,right,1,0.75,0.3071,16,-0.001907683,0.6572,,,,,,174,0,174,0,1,,,,,
,,456827,001,2023-07-31_20h43.19.824,arm3_eps,2022.2.5,Win32,30.01020347,6310a2fb7a4dd7e9a7e72dea,64c7fed44a04f777bb1e18ce,64c800b4c90673b07a763bf8,right,1,0.75,0.3071,16,0.016568223,0.1652,,,,,,175,0,175,0,1,,,,,
,,456827,001,2023-07-31_20h43.19.824,arm3_eps,2022.2.5,Win32,30.01020347,6310a2fb7a4dd7e9a7e72dea,64c7fed44a04f777bb1e18ce,64c800b4c90673b07a763bf8,right,1,0.75,0.3071,16,0.03911346,0.1213,,,,,,176,0,176,0,1,,,,,
,,456827,001,2023-07-31_20h43.19.824,arm3_eps,2022.2.5,Win32,30.01020347,6310a2fb7a4dd7e9a7e72dea,64c7fed44a04f777bb1e18ce,64c800b4c90673b07a763bf8,right,1,0.75,0.3071,16,0.055907596,0.1508,,,,,,177,0,177,0,1,,,,,
,,456827,001,2023-07-31_20h43.19.824,arm3_eps,2022.2.5,Win32,30.01020347,6310a2fb7a4dd7e9a7e72dea,64c7fed44a04f777bb1e18ce,64c800b4c90673b07a763bf8,right,1,0.75,0.3071,16,0.102112862,0.151,,,,,,178,0,178,0,1,,,,,
,,456827,001,2023-07-31_20h43.19.824,arm3_eps,2022.2.5,Win32,30.01020347,6310a2fb7a4dd7e9a7e72dea,64c7fed44a04f777bb1e18ce,64c800b4c90673b07a763bf8,up,1,0.75,0.3071,17,0,0.3647,,,,,,179,0,179,0,1,,,,,
,,456827,001,2023-07-31_20h43.19.824,arm3_eps,2022.2.5,Win32,30.01020347,6310a2fb7a4dd7e9a7e72dea,64c7fed44a04f777bb1e18ce,64c800b4c90673b07a763bf8,right,1,0.75,0.3071,17,0.001151053,0.6392,,,,,,180,0,180,0,1,,,,,
,,456827,001,2023-07-31_20h43.19.824,arm3_eps,2022.2.5,Win32,30.01020347,6310a2fb7a4dd7e9a7e72dea,64c7fed44a04f777bb1e18ce,64c800b4c90673b07a763bf8,right,1,0.75,0.3071,17,0.025983375,0.148,,,,,,181,0,181,0,1,,,,,
,,456827,001,2023-07-31_20h43.19.824,arm3_eps,2022.2.5,Win32,30.01020347,6310a2fb7a4dd7e9a7e72dea,64c7fed44a04f777bb1e18ce,64c800b4c90673b07a763bf8,right,1,0.75,0.3071,17,0.059960293,0.1327,,,,,,182,0,182,0,1,,,,,
,,456827,001,2023-07-31_20h43.19.824,arm3_eps,2022.2.5,Win32,30.01020347,6310a2fb7a4dd7e9a7e72dea,64c7fed44a04f777bb1e18ce,64c800b4c90673b07a763bf8,right,1,0.75,0.3071,17,0.057090818,0.1144,,,,,,183,0,183,0,1,,,,,
,,456827,001,2023-07-31_20h43.19.824,arm3_eps,2022.2.5,Win32,30.01020347,6310a2fb7a4dd7e9a7e72dea,64c7fed44a04f777bb1e18ce,64c800b4c90673b07a763bf8,right,1,0.75,0.3071,17,0.056117661,0.122,,,,,,184,0,184,0,1,,,,,
,,456827,001,2023-07-31_20h43.19.824,arm3_eps,2022.2.5,Win32,30.01020347,6310a2fb7a4dd7e9a7e72dea,64c7fed44a04f777bb1e18ce,64c800b4c90673b07a763bf8,up,1,0.75,0.3071,17,0,0.4839,,,,,,185,0,185,0,1,,,,,
,,456827,001,2023-07-31_20h43.19.824,arm3_eps,2022.2.5,Win32,30.01020347,6310a2fb7a4dd7e9a7e72dea,64c7fed44a04f777bb1e18ce,64c800b4c90673b07a763bf8,right,1,0.75,0.3071,17,0.039536255,0.7026,,,,,,186,0,186,0,1,,,,,
,,456827,001,2023-07-31_20h43.19.824,arm3_eps,2022.2.5,Win32,30.01020347,6310a2fb7a4dd7e9a7e72dea,64c7fed44a04f777bb1e18ce,64c800b4c90673b07a763bf8,right,1,0.75,0.3071,17,0.052283232,0.1317,,,,,,187,0,187,0,1,,,,,
,,456827,001,2023-07-31_20h43.19.824,arm3_eps,2022.2.5,Win32,30.01020347,6310a2fb7a4dd7e9a7e72dea,64c7fed44a04f777bb1e18ce,64c800b4c90673b07a763bf8,right,1,0.75,0.3071,17,0.058137223,0.1329,,,,,,188,0,188,0,1,,,,,
,,456827,001,2023-07-31_20h43.19.824,arm3_eps,2022.2.5,Win32,30.01020347,6310a2fb7a4dd7e9a7e72dea,64c7fed44a04f777bb1e18ce,64c800b4c90673b07a763bf8,right,1,0.75,0.3071,17,0.067834829,0.1508,,,,,,189,0,189,0,1,,,,,
,,456827,001,2023-07-31_20h43.19.824,arm3_eps,2022.2.5,Win32,30.01020347,6310a2fb7a4dd7e9a7e72dea,64c7fed44a04f777bb1e18ce,64c800b4c90673b07a763bf8,right,1,0.75,0.3071,17,0.081082234,0.1708,,,,,,190,0,190,0,1,,,,,
,,456827,001,2023-07-31_20h43.19.824,arm3_eps,2022.2.5,Win32,30.01020347,6310a2fb7a4dd7e9a7e72dea,64c7fed44a04f777bb1e18ce,64c800b4c90673b07a763bf8,up,1,0.75,0.3071,18,0,0.3808,,,,,,191,0,191,0,1,,,,,
,,456827,001,2023-07-31_20h43.19.824,arm3_eps,2022.2.5,Win32,30.01020347,6310a2fb7a4dd7e9a7e72dea,64c7fed44a04f777bb1e18ce,64c800b4c90673b07a763bf8,right,1,0.75,0.3071,18,0.001611066,0.7974,,,,,,192,0,192,0,1,,,,,
,,456827,001,2023-07-31_20h43.19.824,arm3_eps,2022.2.5,Win32,30.01020347,6310a2fb7a4dd7e9a7e72dea,64c7fed44a04f777bb1e18ce,64c800b4c90673b07a763bf8,right,1,0.75,0.3071,18,0.004744765,0.1398,,,,,,193,0,193,0,1,,,,,
,,456827,001,2023-07-31_20h43.19.824,arm3_eps,2022.2.5,Win32,30.01020347,6310a2fb7a4dd7e9a7e72dea,64c7fed44a04f777bb1e18ce,64c800b4c90673b07a763bf8,right,1,0.75,0.3071,18,0.019747823,0.1637,,,,,,194,0,194,0,1,,,,,
,,456827,001,2023-07-31_20h43.19.824,arm3_eps,2022.2.5,Win32,30.01020347,6310a2fb7a4dd7e9a7e72dea,64c7fed44a04f777bb1e18ce,64c800b4c90673b07a763bf8,right,1,0.75,0.3071,18,0.031373452,0.1453,,,,,,195,0,195,0,1,,,,,
,,456827,001,2023-07-31_20h43.19.824,arm3_eps,2022.2.5,Win32,30.01020347,6310a2fb7a4dd7e9a7e72dea,64c7fed44a04f777bb1e18ce,64c800b4c90673b07a763bf8,right,1,0.75,0.3071,18,0.032190612,0.1421,,,,,,196,0,196,0,1,,,,,
,,456827,001,2023-07-31_20h43.19.824,arm3_eps,2022.2.5,Win32,30.01020347,6310a2fb7a4dd7e9a7e72dea,64c7fed44a04f777bb1e18ce,64c800b4c90673b07a763bf8,up,-1,0.75,0.3071,18,0,0.4285,,,,,,197,0,197,0,1,,,,,
,,456827,001,2023-07-31_20h43.19.824,arm3_eps,2022.2.5,Win32,30.01020347,6310a2fb7a4dd7e9a7e72dea,64c7fed44a04f777bb1e18ce,64c800b4c90673b07a763bf8,right,-1,0.75,0.3071,18,0.001462892,0.6464,,,,,,198,0,198,0,1,,,,,
,,456827,001,2023-07-31_20h43.19.824,arm3_eps,2022.2.5,Win32,30.01020347,6310a2fb7a4dd7e9a7e72dea,64c7fed44a04f777bb1e18ce,64c800b4c90673b07a763bf8,right,-1,0.75,0.3071,18,-0.01382067,0.1453,,,,,,199,0,199,0,1,,,,,
,,456827,001,2023-07-31_20h43.19.824,arm3_eps,2022.2.5,Win32,30.01020347,6310a2fb7a4dd7e9a7e72dea,64c7fed44a04f777bb1e18ce,64c800b4c90673b07a763bf8,right,-1,0.75,0.3071,18,-0.059441825,0.1671,,,,,,200,0,200,0,1,,,,,
,,456827,001,2023-07-31_20h43.19.824,arm3_eps,2022.2.5,Win32,30.01020347,6310a2fb7a4dd7e9a7e72dea,64c7fed44a04f777bb1e18ce,64c800b4c90673b07a763bf8,right,-1,0.75,0.3071,18,-0.063601144,0.1296,,,,,,201,0,201,0,1,,,,,
,,456827,001,2023-07-31_20h43.19.824,arm3_eps,2022.2.5,Win32,30.01020347,6310a2fb7a4dd7e9a7e72dea,64c7fed44a04f777bb1e18ce,64c800b4c90673b07a763bf8,right,-1,0.75,0.3071,18,-0.075778879,0.1029,,,,,,202,0,202,0,1,,,,,
,,456827,001,2023-07-31_20h43.19.824,arm3_eps,2022.2.5,Win32,30.01020347,6310a2fb7a4dd7e9a7e72dea,64c7fed44a04f777bb1e18ce,64c800b4c90673b07a763bf8,down,-1,0.75,0.3071,18,0,0.3042,,,,,,203,0,203,0,1,,,,,
,,456827,001,2023-07-31_20h43.19.824,arm3_eps,2022.2.5,Win32,30.01020347,6310a2fb7a4dd7e9a7e72dea,64c7fed44a04f777bb1e18ce,64c800b4c90673b07a763bf8,right,-1,0.75,0.3071,18,0.028295699,0.6379,,,,,,204,0,204,0,1,,,,,
,,456827,001,2023-07-31_20h43.19.824,arm3_eps,2022.2.5,Win32,30.01020347,6310a2fb7a4dd7e9a7e72dea,64c7fed44a04f777bb1e18ce,64c800b4c90673b07a763bf8,right,-1,0.75,0.3071,18,0.037360203,0.1721,,,,,,205,0,205,0,1,,,,,
,,456827,001,2023-07-31_20h43.19.824,arm3_eps,2022.2.5,Win32,30.01020347,6310a2fb7a4dd7e9a7e72dea,64c7fed44a04f777bb1e18ce,64c800b4c90673b07a763bf8,right,-1,0.75,0.3071,18,0.051009128,0.129,,,,,,206,0,206,0,1,,,,,
,,456827,001,2023-07-31_20h43.19.824,arm3_eps,2022.2.5,Win32,30.01020347,6310a2fb7a4dd7e9a7e72dea,64c7fed44a04f777bb1e18ce,64c800b4c90673b07a763bf8,right,-1,0.75,0.3071,18,0.06835894,0.1369,,,,,,207,0,207,0,1,,,,,
,,456827,001,2023-07-31_20h43.19.824,arm3_eps,2022.2.5,Win32,30.01020347,6310a2fb7a4dd7e9a7e72dea,64c7fed44a04f777bb1e18ce,64c800b4c90673b07a763bf8,right,-1,0.75,0.3071,18,0.069030786,0.1501,,,,,,208,0,208,0,1,,,,,
,,456827,001,2023-07-31_20h43.19.824,arm3_eps,2022.2.5,Win32,30.01020347,6310a2fb7a4dd7e9a7e72dea,64c7fed44a04f777bb1e18ce,64c800b4c90673b07a763bf8,up,-1,0.75,0.3071,17,0,0.3699,,,,,,209,0,209,0,1,,,,,
,,456827,001,2023-07-31_20h43.19.824,arm3_eps,2022.2.5,Win32,30.01020347,6310a2fb7a4dd7e9a7e72dea,64c7fed44a04f777bb1e18ce,64c800b4c90673b07a763bf8,right,-1,0.75,0.3071,17,0.018726211,0.6386,,,,,,210,0,210,0,1,,,,,
,,456827,001,2023-07-31_20h43.19.824,arm3_eps,2022.2.5,Win32,30.01020347,6310a2fb7a4dd7e9a7e72dea,64c7fed44a04f777bb1e18ce,64c800b4c90673b07a763bf8,right,-1,0.75,0.3071,17,0.016033125,0.1453,,,,,,211,0,211,0,1,,,,,
,,456827,001,2023-07-31_20h43.19.824,arm3_eps,2022.2.5,Win32,30.01020347,6310a2fb7a4dd7e9a7e72dea,64c7fed44a04f777bb1e18ce,64c800b4c90673b07a763bf8,right,-1,0.75,0.3071,17,-0.006139051,0.1764,,,,,,212,0,212,0,1,,,,,
,,456827,001,2023-07-31_20h43.19.824,arm3_eps,2022.2.5,Win32,30.01020347,6310a2fb7a4dd7e9a7e72dea,64c7fed44a04f777bb1e18ce,64c800b4c90673b07a763bf8,right,-1,0.75,0.3071,17,-0.036461236,0.1246,,,,,,213,0,213,0,1,,,,,
,,456827,001,2023-07-31_20h43.19.824,arm3_eps,2022.2.5,Win32,30.01020347,6310a2fb7a4dd7e9a7e72dea,64c7fed44a04f777bb1e18ce,64c800b4c90673b07a763bf8,right,-1,0.75,0.3071,17,-0.020295018,0.1077,,,,,,214,0,214,0,1,,,,,
,,456827,001,2023-07-31_20h43.19.824,arm3_eps,2022.2.5,Win32,30.01020347,6310a2fb7a4dd7e9a7e72dea,64c7fed44a04f777bb1e18ce,64c800b4c90673b07a763bf8,down,-1,0.75,0.3071,18,0,0.3804,,,,,,215,0,215,0,1,,,,,
,,456827,001,2023-07-31_20h43.19.824,arm3_eps,2022.2.5,Win32,30.01020347,6310a2fb7a4dd7e9a7e72dea,64c7fed44a04f777bb1e18ce,64c800b4c90673b07a763bf8,right,-1,0.75,0.3071,18,0.016276117,0.5467,,,,,,216,0,216,0,1,,,,,
,,456827,001,2023-07-31_20h43.19.824,arm3_eps,2022.2.5,Win32,30.01020347,6310a2fb7a4dd7e9a7e72dea,64c7fed44a04f777bb1e18ce,64c800b4c90673b07a763bf8,right,-1,0.75,0.3071,18,0.025449753,0.1733,,,,,,217,0,217,0,1,,,,,
,,456827,001,2023-07-31_20h43.19.824,arm3_eps,2022.2.5,Win32,30.01020347,6310a2fb7a4dd7e9a7e72dea,64c7fed44a04f777bb1e18ce,64c800b4c90673b07a763bf8,right,-1,0.75,0.3071,18,0.040183371,0.1407,,,,,,218,0,218,0,1,,,,,
,,456827,001,2023-07-31_20h43.19.824,arm3_eps,2022.2.5,Win32,30.01020347,6310a2fb7a4dd7e9a7e72dea,64c7fed44a04f777bb1e18ce,64c800b4c90673b07a763bf8,right,-1,0.75,0.3071,18,0.026323227,0.166,,,,,,219,0,219,0,1,,,,,
,,456827,001,2023-07-31_20h43.19.824,arm3_eps,2022.2.5,Win32,30.01020347,6310a2fb7a4dd7e9a7e72dea,64c7fed44a04f777bb1e18ce,64c800b4c90673b07a763bf8,right,-1,0.75,0.3071,18,0.012122351,0.1193,,,,,,220,0,220,0,1,,,,,
,,456827,001,2023-07-31_20h43.19.824,arm3_eps,2022.2.5,Win32,30.01020347,6310a2fb7a4dd7e9a7e72dea,64c7fed44a04f777bb1e18ce,64c800b4c90673b07a763bf8,up,-1,0.75,0.3071,18,0,1.2107,,,,,,221,0,221,0,1,,,,,
,,456827,001,2023-07-31_20h43.19.824,arm3_eps,2022.2.5,Win32,30.01020347,6310a2fb7a4dd7e9a7e72dea,64c7fed44a04f777bb1e18ce,64c800b4c90673b07a763bf8,right,-1,0.75,0.3071,18,-0.035282369,0.7664,,,,,,222,0,222,0,1,,,,,
,,456827,001,2023-07-31_20h43.19.824,arm3_eps,2022.2.5,Win32,30.01020347,6310a2fb7a4dd7e9a7e72dea,64c7fed44a04f777bb1e18ce,64c800b4c90673b07a763bf8,right,-1,0.75,0.3071,18,-0.044767832,0.1356,,,,,,223,0,223,0,1,,,,,
,,456827,001,2023-07-31_20h43.19.824,arm3_eps,2022.2.5,Win32,30.01020347,6310a2fb7a4dd7e9a7e72dea,64c7fed44a04f777bb1e18ce,64c800b4c90673b07a763bf8,right,-1,0.75,0.3071,18,-0.054644293,0.1445,,,,,,224,0,224,0,1,,,,,
,,456827,001,2023-07-31_20h43.19.824,arm3_eps,2022.2.5,Win32,30.01020347,6310a2fb7a4dd7e9a7e72dea,64c7fed44a04f777bb1e18ce,64c800b4c90673b07a763bf8,right,-1,0.75,0.3071,18,-0.083099007,0.127,,,,,,225,0,225,0,1,,,,,
,,456827,001,2023-07-31_20h43.19.824,arm3_eps,2022.2.5,Win32,30.01020347,6310a2fb7a4dd7e9a7e72dea,64c7fed44a04f777bb1e18ce,64c800b4c90673b07a763bf8,right,-1,0.75,0.3071,18,-0.122040466,0.118,,,,,,226,0,226,0,1,,,,,
,,456827,001,2023-07-31_20h43.19.824,arm3_eps,2022.2.5,Win32,30.01020347,6310a2fb7a4dd7e9a7e72dea,64c7fed44a04f777bb1e18ce,64c800b4c90673b07a763bf8,down,-1,0.75,0.3071,18,0,0.3163,,,,,,227,0,227,0,1,,,,,
,,456827,001,2023-07-31_20h43.19.824,arm3_eps,2022.2.5,Win32,30.01020347,6310a2fb7a4dd7e9a7e72dea,64c7fed44a04f777bb1e18ce,64c800b4c90673b07a763bf8,right,-1,0.75,0.3071,18,-0.020420828,0.6619,,,,,,228,0,228,0,1,,,,,
,,456827,001,2023-07-31_20h43.19.824,arm3_eps,2022.2.5,Win32,30.01020347,6310a2fb7a4dd7e9a7e72dea,64c7fed44a04f777bb1e18ce,64c800b4c90673b07a763bf8,right,-1,0.75,0.3071,18,-0.030352113,0.0827,,,,,,229,0,229,0,1,,,,,
,,456827,001,2023-07-31_20h43.19.824,arm3_eps,2022.2.5,Win32,30.01020347,6310a2fb7a4dd7e9a7e72dea,64c7fed44a04f777bb1e18ce,64c800b4c90673b07a763bf8,right,-1,0.75,0.3071,18,-0.051814069,0.1176,,,,,,230,0,230,0,1,,,,,
,,456827,001,2023-07-31_20h43.19.824,arm3_eps,2022.2.5,Win32,30.01020347,6310a2fb7a4dd7e9a7e72dea,64c7fed44a04f777bb1e18ce,64c800b4c90673b07a763bf8,right,-1,0.75,0.3071,18,-0.085110812,0.1435,,,,,,231,0,231,0,1,,,,,
,,456827,001,2023-07-31_20h43.19.824,arm3_eps,2022.2.5,Win32,30.01020347,6310a2fb7a4dd7e9a7e72dea,64c7fed44a04f777bb1e18ce,64c800b4c90673b07a763bf8,right,-1,0.75,0.3071,18,-0.07962133,0.1561,,,,,,232,0,232,0,1,,,,,
,,456827,001,2023-07-31_20h43.19.824,arm3_eps,2022.2.5,Win32,30.01020347,6310a2fb7a4dd7e9a7e72dea,64c7fed44a04f777bb1e18ce,64c800b4c90673b07a763bf8,down,-1,0.75,0.3071,18,0,0.3179,,,,,,233,0,233,0,1,,,,,
,,456827,001,2023-07-31_20h43.19.824,arm3_eps,2022.2.5,Win32,30.01020347,6310a2fb7a4dd7e9a7e72dea,64c7fed44a04f777bb1e18ce,64c800b4c90673b07a763bf8,right,-1,0.75,0.3071,18,-0.028886537,0.6819,,,,,,234,0,234,0,1,,,,,
,,456827,001,2023-07-31_20h43.19.824,arm3_eps,2022.2.5,Win32,30.01020347,6310a2fb7a4dd7e9a7e72dea,64c7fed44a04f777bb1e18ce,64c800b4c90673b07a763bf8,right,-1,0.75,0.3071,18,-0.032002501,0.1711,,,,,,235,0,235,0,1,,,,,
,,456827,001,2023-07-31_20h43.19.824,arm3_eps,2022.2.5,Win32,30.01020347,6310a2fb7a4dd7e9a7e72dea,64c7fed44a04f777bb1e18ce,64c800b4c90673b07a763bf8,right,-1,0.75,0.3071,18,-0.030947674,0.151,,,,,,236,0,236,0,1,,,,,
,,456827,001,2023-07-31_20h43.19.824,arm3_eps,2022.2.5,Win32,30.01020347,6310a2fb7a4dd7e9a7e72dea,64c7fed44a04f777bb1e18ce,64c800b4c90673b07a763bf8,right,-1,0.75,0.3071,18,-0.043149639,0.1639,,,,,,237,0,237,0,1,,,,,
,,456827,001,2023-07-31_20h43.19.824,arm3_eps,2022.2.5,Win32,30.01020347,6310a2fb7a4dd7e9a7e72dea,64c7fed44a04f777bb1e18ce,64c800b4c90673b07a763bf8,up,-1,0.75,0.3071,17,0,0.7672,,,,,,238,0,238,0,1,,,,,
,,456827,001,2023-07-31_20h43.19.824,arm3_eps,2022.2.5,Win32,30.01020347,6310a2fb7a4dd7e9a7e72dea,64c7fed44a04f777bb1e18ce,64c800b4c90673b07a763bf8,right,-1,0.75,0.3071,17,-0.019743122,0.6203,,,,,,239,0,239,0,1,,,,,
,,456827,001,2023-07-31_20h43.19.824,arm3_eps,2022.2.5,Win32,30.01020347,6310a2fb7a4dd7e9a7e72dea,64c7fed44a04f777bb1e18ce,64c800b4c90673b07a763bf8,right,-1,0.75,0.3071,17,-0.031712791,0.1505,,,,,,240,0,240,0,1,,,,,
,,456827,001,2023-07-31_20h43.19.824,arm3_eps,2022.2.5,Win32,30.01020347,6310a2fb7a4dd7e9a7e72dea,64c7fed44a04f777bb1e18ce,64c800b4c90673b07a763bf8,right,-1,0.75,0.3071,17,-0.031947683,0.1662,,,,,,241,0,241,0,1,,,,,
,,456827,001,2023-07-31_20h43.19.824,arm3_eps,2022.2.5,Win32,30.01020347,6310a2fb7a4dd7e9a7e72dea,64c7fed44a04f777bb1e18ce,64c800b4c90673b07a763bf8,right,-1,0.75,0.3071,17,-0.055956407,0.1357,,,,,,242,0,242,0,1,,,,,
,,456827,001,2023-07-31_20h43.19.824,arm3_eps,2022.2.5,Win32,30.01020347,6310a2fb7a4dd7e9a7e72dea,64c7fed44a04f777bb1e18ce,64c800b4c90673b07a763bf8,right,-1,0.75,0.3071,17,-0.060732696,0.1462,,,,,,243,0,243,0,1,,,,,
,,456827,001,2023-07-31_20h43.19.824,arm3_eps,2022.2.5,Win32,30.01020347,6310a2fb7a4dd7e9a7e72dea,64c7fed44a04f777bb1e18ce,64c800b4c90673b07a763bf8,down,-1,0.75,0.3071,18,0,0.2731,,,,,,244,0,244,0,1,,,,,
,,456827,001,2023-07-31_20h43.19.824,arm3_eps,2022.2.5,Win32,30.01020347,6310a2fb7a4dd7e9a7e72dea,64c7fed44a04f777bb1e18ce,64c800b4c90673b07a763bf8,right,-1,0.75,0.3071,18,-0.042695792,0.8117,,,,,,245,0,245,0,1,,,,,
,,456827,001,2023-07-31_20h43.19.824,arm3_eps,2022.2.5,Win32,30.01020347,6310a2fb7a4dd7e9a7e72dea,64c7fed44a04f777bb1e18ce,64c800b4c90673b07a763bf8,right,-1,0.75,0.3071,18,-0.049089166,0.1593,,,,,,246,0,246,0,1,,,,,
,,456827,001,2023-07-31_20h43.19.824,arm3_eps,2022.2.5,Win32,30.01020347,6310a2fb7a4dd7e9a7e72dea,64c7fed44a04f777bb1e18ce,64c800b4c90673b07a763bf8,right,-1,0.75,0.3071,18,-0.038052555,0.1336,,,,,,247,0,247,0,1,,,,,
,,456827,001,2023-07-31_20h43.19.824,arm3_eps,2022.2.5,Win32,30.01020347,6310a2fb7a4dd7e9a7e72dea,64c7fed44a04f777bb1e18ce,64c800b4c90673b07a763bf8,right,-1,0.75,0.3071,18,-0.062088346,0.1273,,,,,,248,0,248,0,1,,,,,
,,456827,001,2023-07-31_20h43.19.824,arm3_eps,2022.2.5,Win32,30.01020347,6310a2fb7a4dd7e9a7e72dea,64c7fed44a04f777bb1e18ce,64c800b4c90673b07a763bf8,right,-1,0.75,0.3071,18,-0.095001734,0.1221,,,,,,249,0,249,0,1,,,,,
,,456827,001,2023-07-31_20h43.19.824,arm3_eps,2022.2.5,Win32,30.01020347,6310a2fb7a4dd7e9a7e72dea,64c7fed44a04f777bb1e18ce,64c800b4c90673b07a763bf8,down,1,0.75,0.3071,19,0,0.2784,,,,,,250,0,250,0,1,,,,,
,,456827,001,2023-07-31_20h43.19.824,arm3_eps,2022.2.5,Win32,30.01020347,6310a2fb7a4dd7e9a7e72dea,64c7fed44a04f777bb1e18ce,64c800b4c90673b07a763bf8,right,1,0.75,0.3071,19,0.014363884,0.4754,,,,,,251,0,251,0,1,,,,,
,,456827,001,2023-07-31_20h43.19.824,arm3_eps,2022.2.5,Win32,30.01020347,6310a2fb7a4dd7e9a7e72dea,64c7fed44a04f777bb1e18ce,64c800b4c90673b07a763bf8,right,1,0.75,0.3071,19,0.052126128,0.169,,,,,,252,0,252,0,1,,,,,
,,456827,001,2023-07-31_20h43.19.824,arm3_eps,2022.2.5,Win32,30.01020347,6310a2fb7a4dd7e9a7e72dea,64c7fed44a04f777bb1e18ce,64c800b4c90673b07a763bf8,right,1,0.75,0.3071,19,0.052861903,0.1369,,,,,,253,0,253,0,1,,,,,
,,456827,001,2023-07-31_20h43.19.824,arm3_eps,2022.2.5,Win32,30.01020347,6310a2fb7a4dd7e9a7e72dea,64c7fed44a04f777bb1e18ce,64c800b4c90673b07a763bf8,right,1,0.75,0.3071,19,0.042305994,0.1502,,,,,,254,0,254,0,1,,,,,
,,456827,001,2023-07-31_20h43.19.824,arm3_eps,2022.2.5,Win32,30.01020347,6310a2fb7a4dd7e9a7e72dea,64c7fed44a04f777bb1e18ce,64c800b4c90673b07a763bf8,right,1,0.75,0.3071,19,0.033271651,0.1323,,,,,,255,0,255,0,1,,,,,
