space_bar.keys,space_bar.rt,participant,session,date,expName,psychopyVersion,OS,frameRate,PROLIFIC_PID,STUDY_ID,SESSION_ID,resp.keys,state,q_prob,eps_prob,score,price,resp.rt,train.thisRepN,train.thisTrialN,train.thisN,train.thisIndex,train.ran,steps.thisRepN,steps.thisTrialN,steps.thisN,steps.thisIndex,steps.ran,blocks.thisRepN,blocks.thisTrialN,blocks.thisN,blocks.thisIndex,blocks.ran
space,15.9307,466184,001,2023-07-29_15h41.24.237,arm3_eps,2022.2.5,Win32,30.0003,61648e4f0d2212047ab36b27,64c47140896c8c63e34c6d2f,64c516019e4c42759cf487df,,,,,,,,,,,,,,,,,,,,,,
space,3.2234,466184,001,2023-07-29_15h41.24.237,arm3_eps,2022.2.5,Win32,30.0003,61648e4f0d2212047ab36b27,64c47140896c8c63e34c6d2f,64c516019e4c42759cf487df,,,,,,,,,,,,,,,,,,,,,,
space,33.4938,466184,001,2023-07-29_15h41.24.237,arm3_eps,2022.2.5,Win32,30.0003,61648e4f0d2212047ab36b27,64c47140896c8c63e34c6d2f,64c516019e4c42759cf487df,,,,,,,,,,,,,,,,,,,,,,
space,13.4563,466184,001,2023-07-29_15h41.24.237,arm3_eps,2022.2.5,Win32,30.0003,61648e4f0d2212047ab36b27,64c47140896c8c63e34c6d2f,64c516019e4c42759cf487df,,,,,,,,,,,,,,,,,,,,,,
space,28.3631,466184,001,2023-07-29_15h41.24.237,arm3_eps,2022.2.5,Win32,30.0003,61648e4f0d2212047ab36b27,64c47140896c8c63e34c6d2f,64c516019e4c42759cf487df,,,,,,,,,,,,,,,,,,,,,,
space,15.0496,466184,001,2023-07-29_15h41.24.237,arm3_eps,2022.2.5,Win32,30.0003,61648e4f0d2212047ab36b27,64c47140896c8c63e34c6d2f,64c516019e4c42759cf487df,,,,,,,,,,,,,,,,,,,,,,
space,2.7157,466184,001,2023-07-29_15h41.24.237,arm3_eps,2022.2.5,Win32,30.0003,61648e4f0d2212047ab36b27,64c47140896c8c63e34c6d2f,64c516019e4c42759cf487df,,,,,,,,,,,,,,,,,,,,,,
,,466184,001,2023-07-29_15h41.24.237,arm3_eps,2022.2.5,Win32,30.0003,61648e4f0d2212047ab36b27,64c47140896c8c63e34c6d2f,64c516019e4c42759cf487df,right,-1,1,0.2429,0,-0.014977964,0.5976,0,0,0,0,1,,,,,,,,,,
,,466184,001,2023-07-29_15h41.24.237,arm3_eps,2022.2.5,Win32,30.0003,61648e4f0d2212047ab36b27,64c47140896c8c63e34c6d2f,64c516019e4c42759cf487df,right,-1,1,0.2429,0,-0.048917701,0.4306,1,0,1,0,1,,,,,,,,,,
,,466184,001,2023-07-29_15h41.24.237,arm3_eps,2022.2.5,Win32,30.0003,61648e4f0d2212047ab36b27,64c47140896c8c63e34c6d2f,64c516019e4c42759cf487df,right,-1,1,0.2429,0,-0.054308578,0.3825,2,0,2,0,1,,,,,,,,,,
,,466184,001,2023-07-29_15h41.24.237,arm3_eps,2022.2.5,Win32,30.0003,61648e4f0d2212047ab36b27,64c47140896c8c63e34c6d2f,64c516019e4c42759cf487df,right,-1,1,0.2429,0,-0.063651123,0.2657,3,0,3,0,1,,,,,,,,,,
,,466184,001,2023-07-29_15h41.24.237,arm3_eps,2022.2.5,Win32,30.0003,61648e4f0d2212047ab36b27,64c47140896c8c63e34c6d2f,64c516019e4c42759cf487df,right,-1,1,0.2429,0,-0.047083072,0.5453,4,0,4,0,1,,,,,,,,,,
,,466184,001,2023-07-29_15h41.24.237,arm3_eps,2022.2.5,Win32,30.0003,61648e4f0d2212047ab36b27,64c47140896c8c63e34c6d2f,64c516019e4c42759cf487df,right,-1,1,0.2429,0,-0.086209833,0.2828,5,0,5,0,1,,,,,,,,,,
,,466184,001,2023-07-29_15h41.24.237,arm3_eps,2022.2.5,Win32,30.0003,61648e4f0d2212047ab36b27,64c47140896c8c63e34c6d2f,64c516019e4c42759cf487df,up,-1,1,0.2429,-1,0,1.0264,6,0,6,0,1,,,,,,,,,,
,,466184,001,2023-07-29_15h41.24.237,arm3_eps,2022.2.5,Win32,30.0003,61648e4f0d2212047ab36b27,64c47140896c8c63e34c6d2f,64c516019e4c42759cf487df,right,-1,1,0.2429,-1,0.007922014,1.8561,7,0,7,0,1,,,,,,,,,,
,,466184,001,2023-07-29_15h41.24.237,arm3_eps,2022.2.5,Win32,30.0003,61648e4f0d2212047ab36b27,64c47140896c8c63e34c6d2f,64c516019e4c42759cf487df,right,-1,1,0.2429,-1,0.015548599,0.3306,8,0,8,0,1,,,,,,,,,,
,,466184,001,2023-07-29_15h41.24.237,arm3_eps,2022.2.5,Win32,30.0003,61648e4f0d2212047ab36b27,64c47140896c8c63e34c6d2f,64c516019e4c42759cf487df,right,-1,1,0.2429,-1,-0.01801411,0.4158,9,0,9,0,1,,,,,,,,,,
,,466184,001,2023-07-29_15h41.24.237,arm3_eps,2022.2.5,Win32,30.0003,61648e4f0d2212047ab36b27,64c47140896c8c63e34c6d2f,64c516019e4c42759cf487df,right,-1,1,0.2429,-1,-0.01122763,0.2689,10,0,10,0,1,,,,,,,,,,
,,466184,001,2023-07-29_15h41.24.237,arm3_eps,2022.2.5,Win32,30.0003,61648e4f0d2212047ab36b27,64c47140896c8c63e34c6d2f,64c516019e4c42759cf487df,right,-1,1,0.2429,-1,0.000150634,0.3646,11,0,11,0,1,,,,,,,,,,
,,466184,001,2023-07-29_15h41.24.237,arm3_eps,2022.2.5,Win32,30.0003,61648e4f0d2212047ab36b27,64c47140896c8c63e34c6d2f,64c516019e4c42759cf487df,right,-1,1,0.2429,-1,-0.021011746,0.2846,12,0,12,0,1,,,,,,,,,,
,,466184,001,2023-07-29_15h41.24.237,arm3_eps,2022.2.5,Win32,30.0003,61648e4f0d2212047ab36b27,64c47140896c8c63e34c6d2f,64c516019e4c42759cf487df,down,-1,1,0.2429,0,0,0.5925,13,0,13,0,1,,,,,,,,,,
,,466184,001,2023-07-29_15h41.24.237,arm3_eps,2022.2.5,Win32,30.0003,61648e4f0d2212047ab36b27,64c47140896c8c63e34c6d2f,64c516019e4c42759cf487df,right,-1,1,0.2429,0,-0.020051676,1.8399,14,0,14,0,1,,,,,,,,,,
,,466184,001,2023-07-29_15h41.24.237,arm3_eps,2022.2.5,Win32,30.0003,61648e4f0d2212047ab36b27,64c47140896c8c63e34c6d2f,64c516019e4c42759cf487df,right,-1,1,0.2429,0,-0.039520001,0.4989,15,0,15,0,1,,,,,,,,,,
,,466184,001,2023-07-29_15h41.24.237,arm3_eps,2022.2.5,Win32,30.0003,61648e4f0d2212047ab36b27,64c47140896c8c63e34c6d2f,64c516019e4c42759cf487df,right,-1,1,0.2429,0,-0.044802277,0.2748,16,0,16,0,1,,,,,,,,,,
,,466184,001,2023-07-29_15h41.24.237,arm3_eps,2022.2.5,Win32,30.0003,61648e4f0d2212047ab36b27,64c47140896c8c63e34c6d2f,64c516019e4c42759cf487df,right,-1,1,0.2429,0,-0.031802532,0.2266,17,0,17,0,1,,,,,,,,,,
,,466184,001,2023-07-29_15h41.24.237,arm3_eps,2022.2.5,Win32,30.0003,61648e4f0d2212047ab36b27,64c47140896c8c63e34c6d2f,64c516019e4c42759cf487df,right,-1,1,0.2429,0,-0.022329261,0.3202,18,0,18,0,1,,,,,,,,,,
,,466184,001,2023-07-29_15h41.24.237,arm3_eps,2022.2.5,Win32,30.0003,61648e4f0d2212047ab36b27,64c47140896c8c63e34c6d2f,64c516019e4c42759cf487df,up,-1,1,0.2429,-1,0,0.9657,19,0,19,0,1,,,,,,,,,,
,,466184,001,2023-07-29_15h41.24.237,arm3_eps,2022.2.5,Win32,30.0003,61648e4f0d2212047ab36b27,64c47140896c8c63e34c6d2f,64c516019e4c42759cf487df,right,-1,1,0.2429,-1,-0.056923139,0.8975,20,0,20,0,1,,,,,,,,,,
,,466184,001,2023-07-29_15h41.24.237,arm3_eps,2022.2.5,Win32,30.0003,61648e4f0d2212047ab36b27,64c47140896c8c63e34c6d2f,64c516019e4c42759cf487df,right,-1,1,0.2429,-1,-0.067105761,0.5013,21,0,21,0,1,,,,,,,,,,
,,466184,001,2023-07-29_15h41.24.237,arm3_eps,2022.2.5,Win32,30.0003,61648e4f0d2212047ab36b27,64c47140896c8c63e34c6d2f,64c516019e4c42759cf487df,right,-1,1,0.2429,-1,-0.04773839,0.2127,22,0,22,0,1,,,,,,,,,,
,,466184,001,2023-07-29_15h41.24.237,arm3_eps,2022.2.5,Win32,30.0003,61648e4f0d2212047ab36b27,64c47140896c8c63e34c6d2f,64c516019e4c42759cf487df,right,-1,1,0.2429,-1,-0.038141141,0.1338,23,0,23,0,1,,,,,,,,,,
,,466184,001,2023-07-29_15h41.24.237,arm3_eps,2022.2.5,Win32,30.0003,61648e4f0d2212047ab36b27,64c47140896c8c63e34c6d2f,64c516019e4c42759cf487df,right,-1,1,0.2429,-1,-0.072323102,0.244,24,0,24,0,1,,,,,,,,,,
,,466184,001,2023-07-29_15h41.24.237,arm3_eps,2022.2.5,Win32,30.0003,61648e4f0d2212047ab36b27,64c47140896c8c63e34c6d2f,64c516019e4c42759cf487df,right,-1,1,0.2429,-1,-0.055099691,0.2993,25,0,25,0,1,,,,,,,,,,
,,466184,001,2023-07-29_15h41.24.237,arm3_eps,2022.2.5,Win32,30.0003,61648e4f0d2212047ab36b27,64c47140896c8c63e34c6d2f,64c516019e4c42759cf487df,right,-1,1,0.2429,-1,-0.07581246,0.2822,26,0,26,0,1,,,,,,,,,,
,,466184,001,2023-07-29_15h41.24.237,arm3_eps,2022.2.5,Win32,30.0003,61648e4f0d2212047ab36b27,64c47140896c8c63e34c6d2f,64c516019e4c42759cf487df,down,1,1,0.2429,0,0,0.6584,27,0,27,0,1,,,,,,,,,,
,,466184,001,2023-07-29_15h41.24.237,arm3_eps,2022.2.5,Win32,30.0003,61648e4f0d2212047ab36b27,64c47140896c8c63e34c6d2f,64c516019e4c42759cf487df,right,1,1,0.2429,0,0.006937097,1.013,28,0,28,0,1,,,,,,,,,,
,,466184,001,2023-07-29_15h41.24.237,arm3_eps,2022.2.5,Win32,30.0003,61648e4f0d2212047ab36b27,64c47140896c8c63e34c6d2f,64c516019e4c42759cf487df,right,1,1,0.2429,0,0.017399715,0.3534,29,0,29,0,1,,,,,,,,,,
,,466184,001,2023-07-29_15h41.24.237,arm3_eps,2022.2.5,Win32,30.0003,61648e4f0d2212047ab36b27,64c47140896c8c63e34c6d2f,64c516019e4c42759cf487df,right,1,1,0.2429,0,0.039969194,0.2651,30,0,30,0,1,,,,,,,,,,
,,466184,001,2023-07-29_15h41.24.237,arm3_eps,2022.2.5,Win32,30.0003,61648e4f0d2212047ab36b27,64c47140896c8c63e34c6d2f,64c516019e4c42759cf487df,right,1,1,0.2429,0,0.070346687,0.1749,31,0,31,0,1,,,,,,,,,,
,,466184,001,2023-07-29_15h41.24.237,arm3_eps,2022.2.5,Win32,30.0003,61648e4f0d2212047ab36b27,64c47140896c8c63e34c6d2f,64c516019e4c42759cf487df,right,1,1,0.2429,0,0.090934699,0.1708,32,0,32,0,1,,,,,,,,,,
,,466184,001,2023-07-29_15h41.24.237,arm3_eps,2022.2.5,Win32,30.0003,61648e4f0d2212047ab36b27,64c47140896c8c63e34c6d2f,64c516019e4c42759cf487df,up,-1,1,0.2429,1,0,0.7834,33,0,33,0,1,,,,,,,,,,
,,466184,001,2023-07-29_15h41.24.237,arm3_eps,2022.2.5,Win32,30.0003,61648e4f0d2212047ab36b27,64c47140896c8c63e34c6d2f,64c516019e4c42759cf487df,right,-1,1,0.2429,1,-0.021095245,1.3343,34,0,34,0,1,,,,,,,,,,
,,466184,001,2023-07-29_15h41.24.237,arm3_eps,2022.2.5,Win32,30.0003,61648e4f0d2212047ab36b27,64c47140896c8c63e34c6d2f,64c516019e4c42759cf487df,right,-1,1,0.2429,1,-0.043859787,0.7327,35,0,35,0,1,,,,,,,,,,
,,466184,001,2023-07-29_15h41.24.237,arm3_eps,2022.2.5,Win32,30.0003,61648e4f0d2212047ab36b27,64c47140896c8c63e34c6d2f,64c516019e4c42759cf487df,right,-1,1,0.2429,1,-0.088133181,0.2722,36,0,36,0,1,,,,,,,,,,
,,466184,001,2023-07-29_15h41.24.237,arm3_eps,2022.2.5,Win32,30.0003,61648e4f0d2212047ab36b27,64c47140896c8c63e34c6d2f,64c516019e4c42759cf487df,down,1,1,0.2429,2,0,1.1287,37,0,37,0,1,,,,,,,,,,
,,466184,001,2023-07-29_15h41.24.237,arm3_eps,2022.2.5,Win32,30.0003,61648e4f0d2212047ab36b27,64c47140896c8c63e34c6d2f,64c516019e4c42759cf487df,right,1,1,0.2429,2,0.007936014,1.08,38,0,38,0,1,,,,,,,,,,
,,466184,001,2023-07-29_15h41.24.237,arm3_eps,2022.2.5,Win32,30.0003,61648e4f0d2212047ab36b27,64c47140896c8c63e34c6d2f,64c516019e4c42759cf487df,right,1,1,0.2429,2,0.047212288,0.4493,39,0,39,0,1,,,,,,,,,,
,,466184,001,2023-07-29_15h41.24.237,arm3_eps,2022.2.5,Win32,30.0003,61648e4f0d2212047ab36b27,64c47140896c8c63e34c6d2f,64c516019e4c42759cf487df,right,1,1,0.2429,2,0.071472848,0.162,40,0,40,0,1,,,,,,,,,,
,,466184,001,2023-07-29_15h41.24.237,arm3_eps,2022.2.5,Win32,30.0003,61648e4f0d2212047ab36b27,64c47140896c8c63e34c6d2f,64c516019e4c42759cf487df,right,1,1,0.2429,2,0.063965641,0.5645,41,0,41,0,1,,,,,,,,,,
,,466184,001,2023-07-29_15h41.24.237,arm3_eps,2022.2.5,Win32,30.0003,61648e4f0d2212047ab36b27,64c47140896c8c63e34c6d2f,64c516019e4c42759cf487df,right,1,1,0.2429,2,0.066112953,0.256,42,0,42,0,1,,,,,,,,,,
,,466184,001,2023-07-29_15h41.24.237,arm3_eps,2022.2.5,Win32,30.0003,61648e4f0d2212047ab36b27,64c47140896c8c63e34c6d2f,64c516019e4c42759cf487df,up,-1,1,0.2429,3,0,1.0015,43,0,43,0,1,,,,,,,,,,
,,466184,001,2023-07-29_15h41.24.237,arm3_eps,2022.2.5,Win32,30.0003,61648e4f0d2212047ab36b27,64c47140896c8c63e34c6d2f,64c516019e4c42759cf487df,right,-1,1,0.2429,3,-0.03575633,0.9438,44,0,44,0,1,,,,,,,,,,
,,466184,001,2023-07-29_15h41.24.237,arm3_eps,2022.2.5,Win32,30.0003,61648e4f0d2212047ab36b27,64c47140896c8c63e34c6d2f,64c516019e4c42759cf487df,right,-1,1,0.2429,3,-0.056184779,0.4318,45,0,45,0,1,,,,,,,,,,
,,466184,001,2023-07-29_15h41.24.237,arm3_eps,2022.2.5,Win32,30.0003,61648e4f0d2212047ab36b27,64c47140896c8c63e34c6d2f,64c516019e4c42759cf487df,right,-1,1,0.2429,3,-0.060820698,0.1497,46,0,46,0,1,,,,,,,,,,
,,466184,001,2023-07-29_15h41.24.237,arm3_eps,2022.2.5,Win32,30.0003,61648e4f0d2212047ab36b27,64c47140896c8c63e34c6d2f,64c516019e4c42759cf487df,right,-1,1,0.2429,3,-0.08083979,0.208,47,0,47,0,1,,,,,,,,,,
,,466184,001,2023-07-29_15h41.24.237,arm3_eps,2022.2.5,Win32,30.0003,61648e4f0d2212047ab36b27,64c47140896c8c63e34c6d2f,64c516019e4c42759cf487df,right,-1,1,0.2429,3,-0.073570001,0.1654,48,0,48,0,1,,,,,,,,,,
,,466184,001,2023-07-29_15h41.24.237,arm3_eps,2022.2.5,Win32,30.0003,61648e4f0d2212047ab36b27,64c47140896c8c63e34c6d2f,64c516019e4c42759cf487df,right,-1,1,0.2429,3,-0.061518737,0.3877,49,0,49,0,1,,,,,,,,,,
space,39.6431,466184,001,2023-07-29_15h41.24.237,arm3_eps,2022.2.5,Win32,30.0003,61648e4f0d2212047ab36b27,64c47140896c8c63e34c6d2f,64c516019e4c42759cf487df,,,,,,,,,,,,,,,,,,,,,,
space,26.4315,466184,001,2023-07-29_15h41.24.237,arm3_eps,2022.2.5,Win32,30.0003,61648e4f0d2212047ab36b27,64c47140896c8c63e34c6d2f,64c516019e4c42759cf487df,,,,,,,,,,,,,,,,,,,,,,
space,16.9481,466184,001,2023-07-29_15h41.24.237,arm3_eps,2022.2.5,Win32,30.0003,61648e4f0d2212047ab36b27,64c47140896c8c63e34c6d2f,64c516019e4c42759cf487df,,,,,,,,,,,,,,,,,,,,,,
space,6.9852,466184,001,2023-07-29_15h41.24.237,arm3_eps,2022.2.5,Win32,30.0003,61648e4f0d2212047ab36b27,64c47140896c8c63e34c6d2f,64c516019e4c42759cf487df,,,,,,,,,,,,,,,,,,,,,,
space,14.2132,466184,001,2023-07-29_15h41.24.237,arm3_eps,2022.2.5,Win32,30.0003,61648e4f0d2212047ab36b27,64c47140896c8c63e34c6d2f,64c516019e4c42759cf487df,,,,,,,,,,,,,,,,,,,,,,
space,3.1526,466184,001,2023-07-29_15h41.24.237,arm3_eps,2022.2.5,Win32,30.0003,61648e4f0d2212047ab36b27,64c47140896c8c63e34c6d2f,64c516019e4c42759cf487df,,,,,,,,,,,,,,,,,,,,,,
,,466184,001,2023-07-29_15h41.24.237,arm3_eps,2022.2.5,Win32,30.0003,61648e4f0d2212047ab36b27,64c47140896c8c63e34c6d2f,64c516019e4c42759cf487df,right,-1,0.75,0.2429,0,-0.01227869,0.7406,0,0,0,0,1,,,,,,,,,,
,,466184,001,2023-07-29_15h41.24.237,arm3_eps,2022.2.5,Win32,30.0003,61648e4f0d2212047ab36b27,64c47140896c8c63e34c6d2f,64c516019e4c42759cf487df,right,-1,0.75,0.2429,0,-0.028762971,0.3792,1,0,1,0,1,,,,,,,,,,
,,466184,001,2023-07-29_15h41.24.237,arm3_eps,2022.2.5,Win32,30.0003,61648e4f0d2212047ab36b27,64c47140896c8c63e34c6d2f,64c516019e4c42759cf487df,down,-1,0.75,0.2429,0,0,1.497,2,0,2,0,1,,,,,,,,,,
,,466184,001,2023-07-29_15h41.24.237,arm3_eps,2022.2.5,Win32,30.0003,61648e4f0d2212047ab36b27,64c47140896c8c63e34c6d2f,64c516019e4c42759cf487df,right,-1,0.75,0.2429,0,-0.027483359,1.6616,3,0,3,0,1,,,,,,,,,,
,,466184,001,2023-07-29_15h41.24.237,arm3_eps,2022.2.5,Win32,30.0003,61648e4f0d2212047ab36b27,64c47140896c8c63e34c6d2f,64c516019e4c42759cf487df,right,-1,0.75,0.2429,0,-0.051625263,0.2988,4,0,4,0,1,,,,,,,,,,
,,466184,001,2023-07-29_15h41.24.237,arm3_eps,2022.2.5,Win32,30.0003,61648e4f0d2212047ab36b27,64c47140896c8c63e34c6d2f,64c516019e4c42759cf487df,right,-1,0.75,0.2429,0,-0.012933154,0.6633,5,0,5,0,1,,,,,,,,,,
,,466184,001,2023-07-29_15h41.24.237,arm3_eps,2022.2.5,Win32,30.0003,61648e4f0d2212047ab36b27,64c47140896c8c63e34c6d2f,64c516019e4c42759cf487df,right,-1,0.75,0.2429,0,-0.021639831,0.4984,6,0,6,0,1,,,,,,,,,,
,,466184,001,2023-07-29_15h41.24.237,arm3_eps,2022.2.5,Win32,30.0003,61648e4f0d2212047ab36b27,64c47140896c8c63e34c6d2f,64c516019e4c42759cf487df,up,1,0.75,0.2429,-1,0,0.8627,7,0,7,0,1,,,,,,,,,,
,,466184,001,2023-07-29_15h41.24.237,arm3_eps,2022.2.5,Win32,30.0003,61648e4f0d2212047ab36b27,64c47140896c8c63e34c6d2f,64c516019e4c42759cf487df,right,1,0.75,0.2429,-1,0.008719365,1.0046,8,0,8,0,1,,,,,,,,,,
,,466184,001,2023-07-29_15h41.24.237,arm3_eps,2022.2.5,Win32,30.0003,61648e4f0d2212047ab36b27,64c47140896c8c63e34c6d2f,64c516019e4c42759cf487df,right,1,0.75,0.2429,-1,-0.001065853,0.5279,9,0,9,0,1,,,,,,,,,,
,,466184,001,2023-07-29_15h41.24.237,arm3_eps,2022.2.5,Win32,30.0003,61648e4f0d2212047ab36b27,64c47140896c8c63e34c6d2f,64c516019e4c42759cf487df,right,1,0.75,0.2429,-1,-0.00526216,0.7819,10,0,10,0,1,,,,,,,,,,
,,466184,001,2023-07-29_15h41.24.237,arm3_eps,2022.2.5,Win32,30.0003,61648e4f0d2212047ab36b27,64c47140896c8c63e34c6d2f,64c516019e4c42759cf487df,down,-1,0.75,0.2429,-2,0,1.1569,11,0,11,0,1,,,,,,,,,,
,,466184,001,2023-07-29_15h41.24.237,arm3_eps,2022.2.5,Win32,30.0003,61648e4f0d2212047ab36b27,64c47140896c8c63e34c6d2f,64c516019e4c42759cf487df,right,-1,0.75,0.2429,-2,-0.015175696,1.3557,12,0,12,0,1,,,,,,,,,,
,,466184,001,2023-07-29_15h41.24.237,arm3_eps,2022.2.5,Win32,30.0003,61648e4f0d2212047ab36b27,64c47140896c8c63e34c6d2f,64c516019e4c42759cf487df,right,-1,0.75,0.2429,-2,-0.007185324,0.1736,13,0,13,0,1,,,,,,,,,,
,,466184,001,2023-07-29_15h41.24.237,arm3_eps,2022.2.5,Win32,30.0003,61648e4f0d2212047ab36b27,64c47140896c8c63e34c6d2f,64c516019e4c42759cf487df,right,-1,0.75,0.2429,-2,-0.012839514,0.4587,14,0,14,0,1,,,,,,,,,,
,,466184,001,2023-07-29_15h41.24.237,arm3_eps,2022.2.5,Win32,30.0003,61648e4f0d2212047ab36b27,64c47140896c8c63e34c6d2f,64c516019e4c42759cf487df,down,-1,0.75,0.2429,-1,0,2.1512,15,0,15,0,1,,,,,,,,,,
,,466184,001,2023-07-29_15h41.24.237,arm3_eps,2022.2.5,Win32,30.0003,61648e4f0d2212047ab36b27,64c47140896c8c63e34c6d2f,64c516019e4c42759cf487df,right,-1,0.75,0.2429,-1,-0.009807927,2.4106,16,0,16,0,1,,,,,,,,,,
,,466184,001,2023-07-29_15h41.24.237,arm3_eps,2022.2.5,Win32,30.0003,61648e4f0d2212047ab36b27,64c47140896c8c63e34c6d2f,64c516019e4c42759cf487df,right,-1,0.75,0.2429,-1,-0.047108249,0.9477,17,0,17,0,1,,,,,,,,,,
,,466184,001,2023-07-29_15h41.24.237,arm3_eps,2022.2.5,Win32,30.0003,61648e4f0d2212047ab36b27,64c47140896c8c63e34c6d2f,64c516019e4c42759cf487df,down,-1,0.75,0.2429,0,0,1.6713,18,0,18,0,1,,,,,,,,,,
,,466184,001,2023-07-29_15h41.24.237,arm3_eps,2022.2.5,Win32,30.0003,61648e4f0d2212047ab36b27,64c47140896c8c63e34c6d2f,64c516019e4c42759cf487df,right,-1,0.75,0.2429,0,-0.030262298,1.2713,19,0,19,0,1,,,,,,,,,,
,,466184,001,2023-07-29_15h41.24.237,arm3_eps,2022.2.5,Win32,30.0003,61648e4f0d2212047ab36b27,64c47140896c8c63e34c6d2f,64c516019e4c42759cf487df,right,-1,0.75,0.2429,0,-0.056666789,0.557,20,0,20,0,1,,,,,,,,,,
,,466184,001,2023-07-29_15h41.24.237,arm3_eps,2022.2.5,Win32,30.0003,61648e4f0d2212047ab36b27,64c47140896c8c63e34c6d2f,64c516019e4c42759cf487df,down,-1,0.75,0.2429,1,0,1.1925,21,0,21,0,1,,,,,,,,,,
,,466184,001,2023-07-29_15h41.24.237,arm3_eps,2022.2.5,Win32,30.0003,61648e4f0d2212047ab36b27,64c47140896c8c63e34c6d2f,64c516019e4c42759cf487df,right,-1,0.75,0.2429,1,-0.024044335,1.5348,22,0,22,0,1,,,,,,,,,,
,,466184,001,2023-07-29_15h41.24.237,arm3_eps,2022.2.5,Win32,30.0003,61648e4f0d2212047ab36b27,64c47140896c8c63e34c6d2f,64c516019e4c42759cf487df,right,-1,0.75,0.2429,1,-0.03336421,0.3169,23,0,23,0,1,,,,,,,,,,
,,466184,001,2023-07-29_15h41.24.237,arm3_eps,2022.2.5,Win32,30.0003,61648e4f0d2212047ab36b27,64c47140896c8c63e34c6d2f,64c516019e4c42759cf487df,down,1,0.75,0.2429,1,0,1.2635,24,0,24,0,1,,,,,,,,,,
,,466184,001,2023-07-29_15h41.24.237,arm3_eps,2022.2.5,Win32,30.0003,61648e4f0d2212047ab36b27,64c47140896c8c63e34c6d2f,64c516019e4c42759cf487df,right,1,0.75,0.2429,1,0.003180508,1.3239,25,0,25,0,1,,,,,,,,,,
,,466184,001,2023-07-29_15h41.24.237,arm3_eps,2022.2.5,Win32,30.0003,61648e4f0d2212047ab36b27,64c47140896c8c63e34c6d2f,64c516019e4c42759cf487df,right,1,0.75,0.2429,1,0.013008408,0.277,26,0,26,0,1,,,,,,,,,,
,,466184,001,2023-07-29_15h41.24.237,arm3_eps,2022.2.5,Win32,30.0003,61648e4f0d2212047ab36b27,64c47140896c8c63e34c6d2f,64c516019e4c42759cf487df,right,1,0.75,0.2429,1,-0.007181068,0.4348,27,0,27,0,1,,,,,,,,,,
,,466184,001,2023-07-29_15h41.24.237,arm3_eps,2022.2.5,Win32,30.0003,61648e4f0d2212047ab36b27,64c47140896c8c63e34c6d2f,64c516019e4c42759cf487df,right,1,0.75,0.2429,1,-0.01336481,0.3497,28,0,28,0,1,,,,,,,,,,
,,466184,001,2023-07-29_15h41.24.237,arm3_eps,2022.2.5,Win32,30.0003,61648e4f0d2212047ab36b27,64c47140896c8c63e34c6d2f,64c516019e4c42759cf487df,down,1,0.75,0.2429,0,0,1.0007,29,0,29,0,1,,,,,,,,,,
,,466184,001,2023-07-29_15h41.24.237,arm3_eps,2022.2.5,Win32,30.0003,61648e4f0d2212047ab36b27,64c47140896c8c63e34c6d2f,64c516019e4c42759cf487df,right,1,0.75,0.2429,0,0.011998553,0.9721,30,0,30,0,1,,,,,,,,,,
,,466184,001,2023-07-29_15h41.24.237,arm3_eps,2022.2.5,Win32,30.0003,61648e4f0d2212047ab36b27,64c47140896c8c63e34c6d2f,64c516019e4c42759cf487df,right,1,0.75,0.2429,0,-0.00752528,0.2623,31,0,31,0,1,,,,,,,,,,
,,466184,001,2023-07-29_15h41.24.237,arm3_eps,2022.2.5,Win32,30.0003,61648e4f0d2212047ab36b27,64c47140896c8c63e34c6d2f,64c516019e4c42759cf487df,right,1,0.75,0.2429,0,-0.033328225,0.3014,32,0,32,0,1,,,,,,,,,,
,,466184,001,2023-07-29_15h41.24.237,arm3_eps,2022.2.5,Win32,30.0003,61648e4f0d2212047ab36b27,64c47140896c8c63e34c6d2f,64c516019e4c42759cf487df,down,1,0.75,0.2429,-1,0,0.8063,33,0,33,0,1,,,,,,,,,,
,,466184,001,2023-07-29_15h41.24.237,arm3_eps,2022.2.5,Win32,30.0003,61648e4f0d2212047ab36b27,64c47140896c8c63e34c6d2f,64c516019e4c42759cf487df,right,1,0.75,0.2429,-1,0.019368226,0.831,34,0,34,0,1,,,,,,,,,,
,,466184,001,2023-07-29_15h41.24.237,arm3_eps,2022.2.5,Win32,30.0003,61648e4f0d2212047ab36b27,64c47140896c8c63e34c6d2f,64c516019e4c42759cf487df,right,1,0.75,0.2429,-1,0.012217105,0.2262,35,0,35,0,1,,,,,,,,,,
,,466184,001,2023-07-29_15h41.24.237,arm3_eps,2022.2.5,Win32,30.0003,61648e4f0d2212047ab36b27,64c47140896c8c63e34c6d2f,64c516019e4c42759cf487df,right,1,0.75,0.2429,-1,0.057386424,0.2007,36,0,36,0,1,,,,,,,,,,
,,466184,001,2023-07-29_15h41.24.237,arm3_eps,2022.2.5,Win32,30.0003,61648e4f0d2212047ab36b27,64c47140896c8c63e34c6d2f,64c516019e4c42759cf487df,right,1,0.75,0.2429,-1,0.041239118,0.4442,37,0,37,0,1,,,,,,,,,,
,,466184,001,2023-07-29_15h41.24.237,arm3_eps,2022.2.5,Win32,30.0003,61648e4f0d2212047ab36b27,64c47140896c8c63e34c6d2f,64c516019e4c42759cf487df,up,1,0.75,0.2429,-1,0,0.8676,38,0,38,0,1,,,,,,,,,,
,,466184,001,2023-07-29_15h41.24.237,arm3_eps,2022.2.5,Win32,30.0003,61648e4f0d2212047ab36b27,64c47140896c8c63e34c6d2f,64c516019e4c42759cf487df,up,1,0.75,0.2429,0,0,0.0807,39,0,39,0,1,,,,,,,,,,
,,466184,001,2023-07-29_15h41.24.237,arm3_eps,2022.2.5,Win32,30.0003,61648e4f0d2212047ab36b27,64c47140896c8c63e34c6d2f,64c516019e4c42759cf487df,right,1,0.75,0.2429,0,0.026977438,2.059,40,0,40,0,1,,,,,,,,,,
,,466184,001,2023-07-29_15h41.24.237,arm3_eps,2022.2.5,Win32,30.0003,61648e4f0d2212047ab36b27,64c47140896c8c63e34c6d2f,64c516019e4c42759cf487df,up,1,0.75,0.2429,0,0,3.5984,41,0,41,0,1,,,,,,,,,,
,,466184,001,2023-07-29_15h41.24.237,arm3_eps,2022.2.5,Win32,30.0003,61648e4f0d2212047ab36b27,64c47140896c8c63e34c6d2f,64c516019e4c42759cf487df,right,1,0.75,0.2429,0,-0.00345647,1.817,42,0,42,0,1,,,,,,,,,,
,,466184,001,2023-07-29_15h41.24.237,arm3_eps,2022.2.5,Win32,30.0003,61648e4f0d2212047ab36b27,64c47140896c8c63e34c6d2f,64c516019e4c42759cf487df,right,1,0.75,0.2429,0,-0.002265219,0.6749,43,0,43,0,1,,,,,,,,,,
,,466184,001,2023-07-29_15h41.24.237,arm3_eps,2022.2.5,Win32,30.0003,61648e4f0d2212047ab36b27,64c47140896c8c63e34c6d2f,64c516019e4c42759cf487df,up,1,0.75,0.2429,1,0,1.5981,44,0,44,0,1,,,,,,,,,,
,,466184,001,2023-07-29_15h41.24.237,arm3_eps,2022.2.5,Win32,30.0003,61648e4f0d2212047ab36b27,64c47140896c8c63e34c6d2f,64c516019e4c42759cf487df,right,1,0.75,0.2429,1,-0.012394006,2.2603,45,0,45,0,1,,,,,,,,,,
,,466184,001,2023-07-29_15h41.24.237,arm3_eps,2022.2.5,Win32,30.0003,61648e4f0d2212047ab36b27,64c47140896c8c63e34c6d2f,64c516019e4c42759cf487df,down,1,0.75,0.2429,0,0,1.6502,46,0,46,0,1,,,,,,,,,,
,,466184,001,2023-07-29_15h41.24.237,arm3_eps,2022.2.5,Win32,30.0003,61648e4f0d2212047ab36b27,64c47140896c8c63e34c6d2f,64c516019e4c42759cf487df,right,1,0.75,0.2429,0,-0.009307348,2.2016,47,0,47,0,1,,,,,,,,,,
,,466184,001,2023-07-29_15h41.24.237,arm3_eps,2022.2.5,Win32,30.0003,61648e4f0d2212047ab36b27,64c47140896c8c63e34c6d2f,64c516019e4c42759cf487df,right,1,0.75,0.2429,0,-0.014896971,0.3726,48,0,48,0,1,,,,,,,,,,
,,466184,001,2023-07-29_15h41.24.237,arm3_eps,2022.2.5,Win32,30.0003,61648e4f0d2212047ab36b27,64c47140896c8c63e34c6d2f,64c516019e4c42759cf487df,up,1,0.75,0.2429,0,-0.014896971,0.9461,49,0,49,0,1,,,,,,,,,,
space,25.6749,466184,001,2023-07-29_15h41.24.237,arm3_eps,2022.2.5,Win32,30.0003,61648e4f0d2212047ab36b27,64c47140896c8c63e34c6d2f,64c516019e4c42759cf487df,,,,,,,,,,,,,,,,,,,,,,
space,18.3243,466184,001,2023-07-29_15h41.24.237,arm3_eps,2022.2.5,Win32,30.0003,61648e4f0d2212047ab36b27,64c47140896c8c63e34c6d2f,64c516019e4c42759cf487df,,,,,,,,,,,,,,,,,,,,,,
space,1.0403,466184,001,2023-07-29_15h41.24.237,arm3_eps,2022.2.5,Win32,30.0003,61648e4f0d2212047ab36b27,64c47140896c8c63e34c6d2f,64c516019e4c42759cf487df,,,,,,,,,,,,,,,,,,,,,,
,,466184,001,2023-07-29_15h41.24.237,arm3_eps,2022.2.5,Win32,30.0003,61648e4f0d2212047ab36b27,64c47140896c8c63e34c6d2f,64c516019e4c42759cf487df,up,1,0.75,0.05,1,0,1.8175,0,0,0,0,1,,,,,,,,,,
,,466184,001,2023-07-29_15h41.24.237,arm3_eps,2022.2.5,Win32,30.0003,61648e4f0d2212047ab36b27,64c47140896c8c63e34c6d2f,64c516019e4c42759cf487df,up,1,0.75,0.05,2,0,1.2017,1,0,1,0,1,,,,,,,,,,
,,466184,001,2023-07-29_15h41.24.237,arm3_eps,2022.2.5,Win32,30.0003,61648e4f0d2212047ab36b27,64c47140896c8c63e34c6d2f,64c516019e4c42759cf487df,up,1,0.75,0.05,2,0,1.0757,2,0,2,0,1,,,,,,,,,,
,,466184,001,2023-07-29_15h41.24.237,arm3_eps,2022.2.5,Win32,30.0003,61648e4f0d2212047ab36b27,64c47140896c8c63e34c6d2f,64c516019e4c42759cf487df,up,1,0.75,0.05,2,0,1.1169,3,0,3,0,1,,,,,,,,,,
,,466184,001,2023-07-29_15h41.24.237,arm3_eps,2022.2.5,Win32,30.0003,61648e4f0d2212047ab36b27,64c47140896c8c63e34c6d2f,64c516019e4c42759cf487df,up,1,0.75,0.05,3,0,1.2969,4,0,4,0,1,,,,,,,,,,
,,466184,001,2023-07-29_15h41.24.237,arm3_eps,2022.2.5,Win32,30.0003,61648e4f0d2212047ab36b27,64c47140896c8c63e34c6d2f,64c516019e4c42759cf487df,up,1,0.75,0.05,4,0,1.3043,5,0,5,0,1,,,,,,,,,,
,,466184,001,2023-07-29_15h41.24.237,arm3_eps,2022.2.5,Win32,30.0003,61648e4f0d2212047ab36b27,64c47140896c8c63e34c6d2f,64c516019e4c42759cf487df,up,1,0.75,0.05,4,0,1.0731,6,0,6,0,1,,,,,,,,,,
,,466184,001,2023-07-29_15h41.24.237,arm3_eps,2022.2.5,Win32,30.0003,61648e4f0d2212047ab36b27,64c47140896c8c63e34c6d2f,64c516019e4c42759cf487df,up,1,0.75,0.05,5,0,1.3591,7,0,7,0,1,,,,,,,,,,
,,466184,001,2023-07-29_15h41.24.237,arm3_eps,2022.2.5,Win32,30.0003,61648e4f0d2212047ab36b27,64c47140896c8c63e34c6d2f,64c516019e4c42759cf487df,up,1,0.75,0.05,6,0,1.0446,8,0,8,0,1,,,,,,,,,,
,,466184,001,2023-07-29_15h41.24.237,arm3_eps,2022.2.5,Win32,30.0003,61648e4f0d2212047ab36b27,64c47140896c8c63e34c6d2f,64c516019e4c42759cf487df,up,1,0.75,0.05,6,0,1.0906,9,0,9,0,1,,,,,,,,,,
,,466184,001,2023-07-29_15h41.24.237,arm3_eps,2022.2.5,Win32,30.0003,61648e4f0d2212047ab36b27,64c47140896c8c63e34c6d2f,64c516019e4c42759cf487df,up,1,0.75,0.05,6,0,1.5064,10,0,10,0,1,,,,,,,,,,
,,466184,001,2023-07-29_15h41.24.237,arm3_eps,2022.2.5,Win32,30.0003,61648e4f0d2212047ab36b27,64c47140896c8c63e34c6d2f,64c516019e4c42759cf487df,up,1,0.75,0.05,7,0,1.6556,11,0,11,0,1,,,,,,,,,,
,,466184,001,2023-07-29_15h41.24.237,arm3_eps,2022.2.5,Win32,30.0003,61648e4f0d2212047ab36b27,64c47140896c8c63e34c6d2f,64c516019e4c42759cf487df,up,1,0.75,0.05,8,0,0.9888,12,0,12,0,1,,,,,,,,,,
,,466184,001,2023-07-29_15h41.24.237,arm3_eps,2022.2.5,Win32,30.0003,61648e4f0d2212047ab36b27,64c47140896c8c63e34c6d2f,64c516019e4c42759cf487df,up,1,0.75,0.05,9,0,1.1097,13,0,13,0,1,,,,,,,,,,
,,466184,001,2023-07-29_15h41.24.237,arm3_eps,2022.2.5,Win32,30.0003,61648e4f0d2212047ab36b27,64c47140896c8c63e34c6d2f,64c516019e4c42759cf487df,up,1,0.75,0.05,9,0,2.4379,14,0,14,0,1,,,,,,,,,,
,,466184,001,2023-07-29_15h41.24.237,arm3_eps,2022.2.5,Win32,30.0003,61648e4f0d2212047ab36b27,64c47140896c8c63e34c6d2f,64c516019e4c42759cf487df,up,-1,0.75,0.05,10,0,0.8891,15,0,15,0,1,,,,,,,,,,
,,466184,001,2023-07-29_15h41.24.237,arm3_eps,2022.2.5,Win32,30.0003,61648e4f0d2212047ab36b27,64c47140896c8c63e34c6d2f,64c516019e4c42759cf487df,up,-1,0.75,0.05,10,0,0.8884,16,0,16,0,1,,,,,,,,,,
,,466184,001,2023-07-29_15h41.24.237,arm3_eps,2022.2.5,Win32,30.0003,61648e4f0d2212047ab36b27,64c47140896c8c63e34c6d2f,64c516019e4c42759cf487df,up,-1,0.75,0.05,9,0,0.847,17,0,17,0,1,,,,,,,,,,
,,466184,001,2023-07-29_15h41.24.237,arm3_eps,2022.2.5,Win32,30.0003,61648e4f0d2212047ab36b27,64c47140896c8c63e34c6d2f,64c516019e4c42759cf487df,up,-1,0.75,0.05,9,0,2.0706,18,0,18,0,1,,,,,,,,,,
,,466184,001,2023-07-29_15h41.24.237,arm3_eps,2022.2.5,Win32,30.0003,61648e4f0d2212047ab36b27,64c47140896c8c63e34c6d2f,64c516019e4c42759cf487df,up,-1,0.75,0.05,8,0,1.1467,19,0,19,0,1,,,,,,,,,,
,,466184,001,2023-07-29_15h41.24.237,arm3_eps,2022.2.5,Win32,30.0003,61648e4f0d2212047ab36b27,64c47140896c8c63e34c6d2f,64c516019e4c42759cf487df,up,-1,0.75,0.05,7,0,3.4783,20,0,20,0,1,,,,,,,,,,
,,466184,001,2023-07-29_15h41.24.237,arm3_eps,2022.2.5,Win32,30.0003,61648e4f0d2212047ab36b27,64c47140896c8c63e34c6d2f,64c516019e4c42759cf487df,down,-1,0.75,0.05,8,0,1.6133,21,0,21,0,1,,,,,,,,,,
,,466184,001,2023-07-29_15h41.24.237,arm3_eps,2022.2.5,Win32,30.0003,61648e4f0d2212047ab36b27,64c47140896c8c63e34c6d2f,64c516019e4c42759cf487df,down,-1,0.75,0.05,9,0,1.8465,22,0,22,0,1,,,,,,,,,,
,,466184,001,2023-07-29_15h41.24.237,arm3_eps,2022.2.5,Win32,30.0003,61648e4f0d2212047ab36b27,64c47140896c8c63e34c6d2f,64c516019e4c42759cf487df,up,-1,0.75,0.05,8,0,1.5925,23,0,23,0,1,,,,,,,,,,
,,466184,001,2023-07-29_15h41.24.237,arm3_eps,2022.2.5,Win32,30.0003,61648e4f0d2212047ab36b27,64c47140896c8c63e34c6d2f,64c516019e4c42759cf487df,up,-1,0.75,0.05,7,0,3.3744,24,0,24,0,1,,,,,,,,,,
,,466184,001,2023-07-29_15h41.24.237,arm3_eps,2022.2.5,Win32,30.0003,61648e4f0d2212047ab36b27,64c47140896c8c63e34c6d2f,64c516019e4c42759cf487df,down,-1,0.75,0.05,7,0,1.6413,25,0,25,0,1,,,,,,,,,,
,,466184,001,2023-07-29_15h41.24.237,arm3_eps,2022.2.5,Win32,30.0003,61648e4f0d2212047ab36b27,64c47140896c8c63e34c6d2f,64c516019e4c42759cf487df,down,-1,0.75,0.05,7,0,1.6751,26,0,26,0,1,,,,,,,,,,
,,466184,001,2023-07-29_15h41.24.237,arm3_eps,2022.2.5,Win32,30.0003,61648e4f0d2212047ab36b27,64c47140896c8c63e34c6d2f,64c516019e4c42759cf487df,down,-1,0.75,0.05,8,0,1.6747,27,0,27,0,1,,,,,,,,,,
,,466184,001,2023-07-29_15h41.24.237,arm3_eps,2022.2.5,Win32,30.0003,61648e4f0d2212047ab36b27,64c47140896c8c63e34c6d2f,64c516019e4c42759cf487df,up,-1,0.75,0.05,7,0,2.37,28,0,28,0,1,,,,,,,,,,
,,466184,001,2023-07-29_15h41.24.237,arm3_eps,2022.2.5,Win32,30.0003,61648e4f0d2212047ab36b27,64c47140896c8c63e34c6d2f,64c516019e4c42759cf487df,down,-1,0.75,0.05,8,0,1.3316,29,0,29,0,1,,,,,,,,,,
,,466184,001,2023-07-29_15h41.24.237,arm3_eps,2022.2.5,Win32,30.0003,61648e4f0d2212047ab36b27,64c47140896c8c63e34c6d2f,64c516019e4c42759cf487df,down,-1,0.75,0.05,8,0,1.8608,30,0,30,0,1,,,,,,,,,,
,,466184,001,2023-07-29_15h41.24.237,arm3_eps,2022.2.5,Win32,30.0003,61648e4f0d2212047ab36b27,64c47140896c8c63e34c6d2f,64c516019e4c42759cf487df,up,-1,0.75,0.05,7,0,2.7204,31,0,31,0,1,,,,,,,,,,
,,466184,001,2023-07-29_15h41.24.237,arm3_eps,2022.2.5,Win32,30.0003,61648e4f0d2212047ab36b27,64c47140896c8c63e34c6d2f,64c516019e4c42759cf487df,down,1,0.75,0.05,8,0,1.5132,32,0,32,0,1,,,,,,,,,,
,,466184,001,2023-07-29_15h41.24.237,arm3_eps,2022.2.5,Win32,30.0003,61648e4f0d2212047ab36b27,64c47140896c8c63e34c6d2f,64c516019e4c42759cf487df,down,1,0.75,0.05,7,0,1.4327,33,0,33,0,1,,,,,,,,,,
,,466184,001,2023-07-29_15h41.24.237,arm3_eps,2022.2.5,Win32,30.0003,61648e4f0d2212047ab36b27,64c47140896c8c63e34c6d2f,64c516019e4c42759cf487df,down,1,0.75,0.05,7,0,2.0025,34,0,34,0,1,,,,,,,,,,
,,466184,001,2023-07-29_15h41.24.237,arm3_eps,2022.2.5,Win32,30.0003,61648e4f0d2212047ab36b27,64c47140896c8c63e34c6d2f,64c516019e4c42759cf487df,right,1,0.75,0.05,7,0.002085153,4.4658,35,0,35,0,1,,,,,,,,,,
,,466184,001,2023-07-29_15h41.24.237,arm3_eps,2022.2.5,Win32,30.0003,61648e4f0d2212047ab36b27,64c47140896c8c63e34c6d2f,64c516019e4c42759cf487df,down,-1,0.75,0.05,6,0,1.3594,36,0,36,0,1,,,,,,,,,,
,,466184,001,2023-07-29_15h41.24.237,arm3_eps,2022.2.5,Win32,30.0003,61648e4f0d2212047ab36b27,64c47140896c8c63e34c6d2f,64c516019e4c42759cf487df,right,-1,0.75,0.05,6,-0.003618114,0.9974,37,0,37,0,1,,,,,,,,,,
,,466184,001,2023-07-29_15h41.24.237,arm3_eps,2022.2.5,Win32,30.0003,61648e4f0d2212047ab36b27,64c47140896c8c63e34c6d2f,64c516019e4c42759cf487df,down,-1,0.75,0.05,7,0,2.0264,38,0,38,0,1,,,,,,,,,,
,,466184,001,2023-07-29_15h41.24.237,arm3_eps,2022.2.5,Win32,30.0003,61648e4f0d2212047ab36b27,64c47140896c8c63e34c6d2f,64c516019e4c42759cf487df,right,-1,0.75,0.05,7,-0.017735571,2.8406,39,0,39,0,1,,,,,,,,,,
,,466184,001,2023-07-29_15h41.24.237,arm3_eps,2022.2.5,Win32,30.0003,61648e4f0d2212047ab36b27,64c47140896c8c63e34c6d2f,64c516019e4c42759cf487df,down,-1,0.75,0.05,7,0,1.5146,40,0,40,0,1,,,,,,,,,,
,,466184,001,2023-07-29_15h41.24.237,arm3_eps,2022.2.5,Win32,30.0003,61648e4f0d2212047ab36b27,64c47140896c8c63e34c6d2f,64c516019e4c42759cf487df,right,-1,0.75,0.05,7,-0.016770368,1.3396,41,0,41,0,1,,,,,,,,,,
,,466184,001,2023-07-29_15h41.24.237,arm3_eps,2022.2.5,Win32,30.0003,61648e4f0d2212047ab36b27,64c47140896c8c63e34c6d2f,64c516019e4c42759cf487df,up,-1,0.75,0.05,6,0,2.8234,42,0,42,0,1,,,,,,,,,,
,,466184,001,2023-07-29_15h41.24.237,arm3_eps,2022.2.5,Win32,30.0003,61648e4f0d2212047ab36b27,64c47140896c8c63e34c6d2f,64c516019e4c42759cf487df,right,-1,0.75,0.05,6,-0.003570449,2.0487,43,0,43,0,1,,,,,,,,,,
,,466184,001,2023-07-29_15h41.24.237,arm3_eps,2022.2.5,Win32,30.0003,61648e4f0d2212047ab36b27,64c47140896c8c63e34c6d2f,64c516019e4c42759cf487df,down,-1,0.75,0.05,7,0,0.5391,44,0,44,0,1,,,,,,,,,,
,,466184,001,2023-07-29_15h41.24.237,arm3_eps,2022.2.5,Win32,30.0003,61648e4f0d2212047ab36b27,64c47140896c8c63e34c6d2f,64c516019e4c42759cf487df,right,-1,0.75,0.05,7,-0.000886807,2.2278,45,0,45,0,1,,,,,,,,,,
,,466184,001,2023-07-29_15h41.24.237,arm3_eps,2022.2.5,Win32,30.0003,61648e4f0d2212047ab36b27,64c47140896c8c63e34c6d2f,64c516019e4c42759cf487df,down,-1,0.75,0.05,8,0,1.2081,46,0,46,0,1,,,,,,,,,,
,,466184,001,2023-07-29_15h41.24.237,arm3_eps,2022.2.5,Win32,30.0003,61648e4f0d2212047ab36b27,64c47140896c8c63e34c6d2f,64c516019e4c42759cf487df,right,-1,0.75,0.05,8,-0.01719366,0.9942,47,0,47,0,1,,,,,,,,,,
,,466184,001,2023-07-29_15h41.24.237,arm3_eps,2022.2.5,Win32,30.0003,61648e4f0d2212047ab36b27,64c47140896c8c63e34c6d2f,64c516019e4c42759cf487df,up,-1,0.75,0.05,7,0,3.6023,48,0,48,0,1,,,,,,,,,,
,,466184,001,2023-07-29_15h41.24.237,arm3_eps,2022.2.5,Win32,30.0003,61648e4f0d2212047ab36b27,64c47140896c8c63e34c6d2f,64c516019e4c42759cf487df,right,-1,0.75,0.05,7,0.015341384,1.001,49,0,49,0,1,,,,,,,,,,
space,42.0168,466184,001,2023-07-29_15h41.24.237,arm3_eps,2022.2.5,Win32,30.0003,61648e4f0d2212047ab36b27,64c47140896c8c63e34c6d2f,64c516019e4c42759cf487df,,,,,,,,,,,,,,,,,,,,,,
space,1.4463,466184,001,2023-07-29_15h41.24.237,arm3_eps,2022.2.5,Win32,30.0003,61648e4f0d2212047ab36b27,64c47140896c8c63e34c6d2f,64c516019e4c42759cf487df,,,,,,,,,,,,,,,,,,,,,,
,,466184,001,2023-07-29_15h41.24.237,arm3_eps,2022.2.5,Win32,30.0003,61648e4f0d2212047ab36b27,64c47140896c8c63e34c6d2f,64c516019e4c42759cf487df,down,1,0.75,0.5,1,0,1.9429,0,0,0,0,1,,,,,,,,,,
,,466184,001,2023-07-29_15h41.24.237,arm3_eps,2022.2.5,Win32,30.0003,61648e4f0d2212047ab36b27,64c47140896c8c63e34c6d2f,64c516019e4c42759cf487df,up,-1,0.75,0.5,2,0,0.9741,1,0,1,0,1,,,,,,,,,,
,,466184,001,2023-07-29_15h41.24.237,arm3_eps,2022.2.5,Win32,30.0003,61648e4f0d2212047ab36b27,64c47140896c8c63e34c6d2f,64c516019e4c42759cf487df,down,1,0.75,0.5,3,0,1.0593,2,0,2,0,1,,,,,,,,,,
,,466184,001,2023-07-29_15h41.24.237,arm3_eps,2022.2.5,Win32,30.0003,61648e4f0d2212047ab36b27,64c47140896c8c63e34c6d2f,64c516019e4c42759cf487df,up,1,0.75,0.5,4,0,0.7998,3,0,3,0,1,,,,,,,,,,
,,466184,001,2023-07-29_15h41.24.237,arm3_eps,2022.2.5,Win32,30.0003,61648e4f0d2212047ab36b27,64c47140896c8c63e34c6d2f,64c516019e4c42759cf487df,down,-1,0.75,0.5,3,0,0.7925,4,0,4,0,1,,,,,,,,,,
,,466184,001,2023-07-29_15h41.24.237,arm3_eps,2022.2.5,Win32,30.0003,61648e4f0d2212047ab36b27,64c47140896c8c63e34c6d2f,64c516019e4c42759cf487df,up,-1,0.75,0.5,2,0,0.8361,5,0,5,0,1,,,,,,,,,,
,,466184,001,2023-07-29_15h41.24.237,arm3_eps,2022.2.5,Win32,30.0003,61648e4f0d2212047ab36b27,64c47140896c8c63e34c6d2f,64c516019e4c42759cf487df,down,-1,0.75,0.5,3,0,0.7637,6,0,6,0,1,,,,,,,,,,
,,466184,001,2023-07-29_15h41.24.237,arm3_eps,2022.2.5,Win32,30.0003,61648e4f0d2212047ab36b27,64c47140896c8c63e34c6d2f,64c516019e4c42759cf487df,down,-1,0.75,0.5,4,0,0.7921,7,0,7,0,1,,,,,,,,,,
,,466184,001,2023-07-29_15h41.24.237,arm3_eps,2022.2.5,Win32,30.0003,61648e4f0d2212047ab36b27,64c47140896c8c63e34c6d2f,64c516019e4c42759cf487df,down,-1,0.75,0.5,5,0,1.0258,8,0,8,0,1,,,,,,,,,,
,,466184,001,2023-07-29_15h41.24.237,arm3_eps,2022.2.5,Win32,30.0003,61648e4f0d2212047ab36b27,64c47140896c8c63e34c6d2f,64c516019e4c42759cf487df,down,1,0.75,0.5,6,0,0.8151,9,0,9,0,1,,,,,,,,,,
,,466184,001,2023-07-29_15h41.24.237,arm3_eps,2022.2.5,Win32,30.0003,61648e4f0d2212047ab36b27,64c47140896c8c63e34c6d2f,64c516019e4c42759cf487df,down,-1,0.75,0.5,5,0,0.7685,10,0,10,0,1,,,,,,,,,,
,,466184,001,2023-07-29_15h41.24.237,arm3_eps,2022.2.5,Win32,30.0003,61648e4f0d2212047ab36b27,64c47140896c8c63e34c6d2f,64c516019e4c42759cf487df,up,1,0.75,0.5,4,0,0.7578,11,0,11,0,1,,,,,,,,,,
,,466184,001,2023-07-29_15h41.24.237,arm3_eps,2022.2.5,Win32,30.0003,61648e4f0d2212047ab36b27,64c47140896c8c63e34c6d2f,64c516019e4c42759cf487df,up,1,0.75,0.5,5,0,0.3016,12,0,12,0,1,,,,,,,,,,
,,466184,001,2023-07-29_15h41.24.237,arm3_eps,2022.2.5,Win32,30.0003,61648e4f0d2212047ab36b27,64c47140896c8c63e34c6d2f,64c516019e4c42759cf487df,up,-1,0.75,0.5,6,0,0.3281,13,0,13,0,1,,,,,,,,,,
,,466184,001,2023-07-29_15h41.24.237,arm3_eps,2022.2.5,Win32,30.0003,61648e4f0d2212047ab36b27,64c47140896c8c63e34c6d2f,64c516019e4c42759cf487df,up,-1,0.75,0.5,6,0,0.8601,14,0,14,0,1,,,,,,,,,,
,,466184,001,2023-07-29_15h41.24.237,arm3_eps,2022.2.5,Win32,30.0003,61648e4f0d2212047ab36b27,64c47140896c8c63e34c6d2f,64c516019e4c42759cf487df,up,1,0.75,0.5,5,0,1.1615,15,0,15,0,1,,,,,,,,,,
,,466184,001,2023-07-29_15h41.24.237,arm3_eps,2022.2.5,Win32,30.0003,61648e4f0d2212047ab36b27,64c47140896c8c63e34c6d2f,64c516019e4c42759cf487df,down,-1,0.75,0.5,4,0,1.0065,16,0,16,0,1,,,,,,,,,,
,,466184,001,2023-07-29_15h41.24.237,arm3_eps,2022.2.5,Win32,30.0003,61648e4f0d2212047ab36b27,64c47140896c8c63e34c6d2f,64c516019e4c42759cf487df,up,1,0.75,0.5,3,0,0.817,17,0,17,0,1,,,,,,,,,,
,,466184,001,2023-07-29_15h41.24.237,arm3_eps,2022.2.5,Win32,30.0003,61648e4f0d2212047ab36b27,64c47140896c8c63e34c6d2f,64c516019e4c42759cf487df,up,-1,0.75,0.5,4,0,0.2579,18,0,18,0,1,,,,,,,,,,
,,466184,001,2023-07-29_15h41.24.237,arm3_eps,2022.2.5,Win32,30.0003,61648e4f0d2212047ab36b27,64c47140896c8c63e34c6d2f,64c516019e4c42759cf487df,up,1,0.75,0.5,4,0,1.2787,19,0,19,0,1,,,,,,,,,,
,,466184,001,2023-07-29_15h41.24.237,arm3_eps,2022.2.5,Win32,30.0003,61648e4f0d2212047ab36b27,64c47140896c8c63e34c6d2f,64c516019e4c42759cf487df,up,-1,0.75,0.5,4,0,1.0024,20,0,20,0,1,,,,,,,,,,
,,466184,001,2023-07-29_15h41.24.237,arm3_eps,2022.2.5,Win32,30.0003,61648e4f0d2212047ab36b27,64c47140896c8c63e34c6d2f,64c516019e4c42759cf487df,up,1,0.75,0.5,4,0,0.787,21,0,21,0,1,,,,,,,,,,
,,466184,001,2023-07-29_15h41.24.237,arm3_eps,2022.2.5,Win32,30.0003,61648e4f0d2212047ab36b27,64c47140896c8c63e34c6d2f,64c516019e4c42759cf487df,down,1,0.75,0.5,3,0,0.6315,22,0,22,0,1,,,,,,,,,,
,,466184,001,2023-07-29_15h41.24.237,arm3_eps,2022.2.5,Win32,30.0003,61648e4f0d2212047ab36b27,64c47140896c8c63e34c6d2f,64c516019e4c42759cf487df,up,-1,0.75,0.5,3,0,0.6859,23,0,23,0,1,,,,,,,,,,
,,466184,001,2023-07-29_15h41.24.237,arm3_eps,2022.2.5,Win32,30.0003,61648e4f0d2212047ab36b27,64c47140896c8c63e34c6d2f,64c516019e4c42759cf487df,down,-1,0.75,0.5,4,0,0.6357,24,0,24,0,1,,,,,,,,,,
,,466184,001,2023-07-29_15h41.24.237,arm3_eps,2022.2.5,Win32,30.0003,61648e4f0d2212047ab36b27,64c47140896c8c63e34c6d2f,64c516019e4c42759cf487df,down,-1,0.75,0.5,5,0,0.7976,25,0,25,0,1,,,,,,,,,,
,,466184,001,2023-07-29_15h41.24.237,arm3_eps,2022.2.5,Win32,30.0003,61648e4f0d2212047ab36b27,64c47140896c8c63e34c6d2f,64c516019e4c42759cf487df,down,1,0.75,0.5,6,0,1.3106,26,0,26,0,1,,,,,,,,,,
,,466184,001,2023-07-29_15h41.24.237,arm3_eps,2022.2.5,Win32,30.0003,61648e4f0d2212047ab36b27,64c47140896c8c63e34c6d2f,64c516019e4c42759cf487df,down,1,0.75,0.5,6,0,1.0166,27,0,27,0,1,,,,,,,,,,
,,466184,001,2023-07-29_15h41.24.237,arm3_eps,2022.2.5,Win32,30.0003,61648e4f0d2212047ab36b27,64c47140896c8c63e34c6d2f,64c516019e4c42759cf487df,up,1,0.75,0.5,7,0,0.8092,28,0,28,0,1,,,,,,,,,,
,,466184,001,2023-07-29_15h41.24.237,arm3_eps,2022.2.5,Win32,30.0003,61648e4f0d2212047ab36b27,64c47140896c8c63e34c6d2f,64c516019e4c42759cf487df,up,1,0.75,0.5,8,0,0.9265,29,0,29,0,1,,,,,,,,,,
,,466184,001,2023-07-29_15h41.24.237,arm3_eps,2022.2.5,Win32,30.0003,61648e4f0d2212047ab36b27,64c47140896c8c63e34c6d2f,64c516019e4c42759cf487df,up,-1,0.75,0.5,9,0,0.8881,30,0,30,0,1,,,,,,,,,,
,,466184,001,2023-07-29_15h41.24.237,arm3_eps,2022.2.5,Win32,30.0003,61648e4f0d2212047ab36b27,64c47140896c8c63e34c6d2f,64c516019e4c42759cf487df,up,-1,0.75,0.5,8,0,1.1017,31,0,31,0,1,,,,,,,,,,
,,466184,001,2023-07-29_15h41.24.237,arm3_eps,2022.2.5,Win32,30.0003,61648e4f0d2212047ab36b27,64c47140896c8c63e34c6d2f,64c516019e4c42759cf487df,down,-1,0.75,0.5,9,0,0.7993,32,0,32,0,1,,,,,,,,,,
,,466184,001,2023-07-29_15h41.24.237,arm3_eps,2022.2.5,Win32,30.0003,61648e4f0d2212047ab36b27,64c47140896c8c63e34c6d2f,64c516019e4c42759cf487df,down,1,0.75,0.5,9,0,0.9572,33,0,33,0,1,,,,,,,,,,
,,466184,001,2023-07-29_15h41.24.237,arm3_eps,2022.2.5,Win32,30.0003,61648e4f0d2212047ab36b27,64c47140896c8c63e34c6d2f,64c516019e4c42759cf487df,up,-1,0.75,0.5,10,0,0.7663,34,0,34,0,1,,,,,,,,,,
,,466184,001,2023-07-29_15h41.24.237,arm3_eps,2022.2.5,Win32,30.0003,61648e4f0d2212047ab36b27,64c47140896c8c63e34c6d2f,64c516019e4c42759cf487df,down,-1,0.75,0.5,11,0,0.9054,35,0,35,0,1,,,,,,,,,,
,,466184,001,2023-07-29_15h41.24.237,arm3_eps,2022.2.5,Win32,30.0003,61648e4f0d2212047ab36b27,64c47140896c8c63e34c6d2f,64c516019e4c42759cf487df,up,-1,0.75,0.5,10,0,1.155,36,0,36,0,1,,,,,,,,,,
,,466184,001,2023-07-29_15h41.24.237,arm3_eps,2022.2.5,Win32,30.0003,61648e4f0d2212047ab36b27,64c47140896c8c63e34c6d2f,64c516019e4c42759cf487df,down,1,0.75,0.5,11,0,0.7789,37,0,37,0,1,,,,,,,,,,
,,466184,001,2023-07-29_15h41.24.237,arm3_eps,2022.2.5,Win32,30.0003,61648e4f0d2212047ab36b27,64c47140896c8c63e34c6d2f,64c516019e4c42759cf487df,down,1,0.75,0.5,10,0,0.8173,38,0,38,0,1,,,,,,,,,,
,,466184,001,2023-07-29_15h41.24.237,arm3_eps,2022.2.5,Win32,30.0003,61648e4f0d2212047ab36b27,64c47140896c8c63e34c6d2f,64c516019e4c42759cf487df,down,-1,0.75,0.5,9,0,0.9159,39,0,39,0,1,,,,,,,,,,
,,466184,001,2023-07-29_15h41.24.237,arm3_eps,2022.2.5,Win32,30.0003,61648e4f0d2212047ab36b27,64c47140896c8c63e34c6d2f,64c516019e4c42759cf487df,down,1,0.75,0.5,10,0,0.7011,40,0,40,0,1,,,,,,,,,,
,,466184,001,2023-07-29_15h41.24.237,arm3_eps,2022.2.5,Win32,30.0003,61648e4f0d2212047ab36b27,64c47140896c8c63e34c6d2f,64c516019e4c42759cf487df,down,1,0.75,0.5,9,0,0.7892,41,0,41,0,1,,,,,,,,,,
,,466184,001,2023-07-29_15h41.24.237,arm3_eps,2022.2.5,Win32,30.0003,61648e4f0d2212047ab36b27,64c47140896c8c63e34c6d2f,64c516019e4c42759cf487df,down,-1,0.75,0.5,8,0,0.77,42,0,42,0,1,,,,,,,,,,
,,466184,001,2023-07-29_15h41.24.237,arm3_eps,2022.2.5,Win32,30.0003,61648e4f0d2212047ab36b27,64c47140896c8c63e34c6d2f,64c516019e4c42759cf487df,down,1,0.75,0.5,8,0,0.8101,43,0,43,0,1,,,,,,,,,,
,,466184,001,2023-07-29_15h41.24.237,arm3_eps,2022.2.5,Win32,30.0003,61648e4f0d2212047ab36b27,64c47140896c8c63e34c6d2f,64c516019e4c42759cf487df,up,-1,0.75,0.5,9,0,1.3484,44,0,44,0,1,,,,,,,,,,
,,466184,001,2023-07-29_15h41.24.237,arm3_eps,2022.2.5,Win32,30.0003,61648e4f0d2212047ab36b27,64c47140896c8c63e34c6d2f,64c516019e4c42759cf487df,up,-1,0.75,0.5,8,0,1.3045,45,0,45,0,1,,,,,,,,,,
,,466184,001,2023-07-29_15h41.24.237,arm3_eps,2022.2.5,Win32,30.0003,61648e4f0d2212047ab36b27,64c47140896c8c63e34c6d2f,64c516019e4c42759cf487df,up,1,0.75,0.5,8,0,0.6192,46,0,46,0,1,,,,,,,,,,
,,466184,001,2023-07-29_15h41.24.237,arm3_eps,2022.2.5,Win32,30.0003,61648e4f0d2212047ab36b27,64c47140896c8c63e34c6d2f,64c516019e4c42759cf487df,down,1,0.75,0.5,7,0,0.7739,47,0,47,0,1,,,,,,,,,,
,,466184,001,2023-07-29_15h41.24.237,arm3_eps,2022.2.5,Win32,30.0003,61648e4f0d2212047ab36b27,64c47140896c8c63e34c6d2f,64c516019e4c42759cf487df,up,1,0.75,0.5,7,0,0.5194,48,0,48,0,1,,,,,,,,,,
,,466184,001,2023-07-29_15h41.24.237,arm3_eps,2022.2.5,Win32,30.0003,61648e4f0d2212047ab36b27,64c47140896c8c63e34c6d2f,64c516019e4c42759cf487df,up,1,0.75,0.5,7,0,0.8432,49,0,49,0,1,,,,,,,,,,
space,2.2848,466184,001,2023-07-29_15h41.24.237,arm3_eps,2022.2.5,Win32,30.0003,61648e4f0d2212047ab36b27,64c47140896c8c63e34c6d2f,64c516019e4c42759cf487df,,,,,,,,,,,,,,,,,,,,,,
space,8.4036,466184,001,2023-07-29_15h41.24.237,arm3_eps,2022.2.5,Win32,30.0003,61648e4f0d2212047ab36b27,64c47140896c8c63e34c6d2f,64c516019e4c42759cf487df,right,1,0.75,0.3071,0,-0.014480772,0.9667,,,,,,0,0,0,0,1,,,,,
,,466184,001,2023-07-29_15h41.24.237,arm3_eps,2022.2.5,Win32,30.0003,61648e4f0d2212047ab36b27,64c47140896c8c63e34c6d2f,64c516019e4c42759cf487df,up,-1,0.75,0.3071,0,0,1.7543,,,,,,1,0,1,0,1,,,,,
,,466184,001,2023-07-29_15h41.24.237,arm3_eps,2022.2.5,Win32,30.0003,61648e4f0d2212047ab36b27,64c47140896c8c63e34c6d2f,64c516019e4c42759cf487df,right,-1,0.75,0.3071,0,-0.01848931,5.2889,,,,,,2,0,2,0,1,,,,,
,,466184,001,2023-07-29_15h41.24.237,arm3_eps,2022.2.5,Win32,30.0003,61648e4f0d2212047ab36b27,64c47140896c8c63e34c6d2f,64c516019e4c42759cf487df,down,-1,0.75,0.3071,0,0,0.9288,,,,,,3,0,3,0,1,,,,,
,,466184,001,2023-07-29_15h41.24.237,arm3_eps,2022.2.5,Win32,30.0003,61648e4f0d2212047ab36b27,64c47140896c8c63e34c6d2f,64c516019e4c42759cf487df,right,-1,0.75,0.3071,0,-0.001065027,2.3053,,,,,,4,0,4,0,1,,,,,
,,466184,001,2023-07-29_15h41.24.237,arm3_eps,2022.2.5,Win32,30.0003,61648e4f0d2212047ab36b27,64c47140896c8c63e34c6d2f,64c516019e4c42759cf487df,up,1,0.75,0.3071,-1,0,0.9039,,,,,,5,0,5,0,1,,,,,
,,466184,001,2023-07-29_15h41.24.237,arm3_eps,2022.2.5,Win32,30.0003,61648e4f0d2212047ab36b27,64c47140896c8c63e34c6d2f,64c516019e4c42759cf487df,right,1,0.75,0.3071,-1,-0.018644296,1.2931,,,,,,6,0,6,0,1,,,,,
,,466184,001,2023-07-29_15h41.24.237,arm3_eps,2022.2.5,Win32,30.0003,61648e4f0d2212047ab36b27,64c47140896c8c63e34c6d2f,64c516019e4c42759cf487df,down,1,0.75,0.3071,-1,0,0.7061,,,,,,7,0,7,0,1,,,,,
,,466184,001,2023-07-29_15h41.24.237,arm3_eps,2022.2.5,Win32,30.0003,61648e4f0d2212047ab36b27,64c47140896c8c63e34c6d2f,64c516019e4c42759cf487df,up,1,0.75,0.3071,-1,0,2.044,,,,,,8,0,8,0,1,,,,,
,,466184,001,2023-07-29_15h41.24.237,arm3_eps,2022.2.5,Win32,30.0003,61648e4f0d2212047ab36b27,64c47140896c8c63e34c6d2f,64c516019e4c42759cf487df,right,1,0.75,0.3071,-1,-0.002854677,2.1383,,,,,,9,0,9,0,1,,,,,
,,466184,001,2023-07-29_15h41.24.237,arm3_eps,2022.2.5,Win32,30.0003,61648e4f0d2212047ab36b27,64c47140896c8c63e34c6d2f,64c516019e4c42759cf487df,up,1,0.75,0.3071,0,0,0.8048,,,,,,10,0,10,0,1,,,,,
,,466184,001,2023-07-29_15h41.24.237,arm3_eps,2022.2.5,Win32,30.0003,61648e4f0d2212047ab36b27,64c47140896c8c63e34c6d2f,64c516019e4c42759cf487df,right,1,0.75,0.3071,0,0.011728542,1.5699,,,,,,11,0,11,0,1,,,,,
,,466184,001,2023-07-29_15h41.24.237,arm3_eps,2022.2.5,Win32,30.0003,61648e4f0d2212047ab36b27,64c47140896c8c63e34c6d2f,64c516019e4c42759cf487df,up,1,0.75,0.3071,1,0,0.8279,,,,,,12,0,12,0,1,,,,,
,,466184,001,2023-07-29_15h41.24.237,arm3_eps,2022.2.5,Win32,30.0003,61648e4f0d2212047ab36b27,64c47140896c8c63e34c6d2f,64c516019e4c42759cf487df,right,1,0.75,0.3071,1,-0.021013067,1.7219,,,,,,13,0,13,0,1,,,,,
,,466184,001,2023-07-29_15h41.24.237,arm3_eps,2022.2.5,Win32,30.0003,61648e4f0d2212047ab36b27,64c47140896c8c63e34c6d2f,64c516019e4c42759cf487df,up,1,0.75,0.3071,2,0,2.5007,,,,,,14,0,14,0,1,,,,,
,,466184,001,2023-07-29_15h41.24.237,arm3_eps,2022.2.5,Win32,30.0003,61648e4f0d2212047ab36b27,64c47140896c8c63e34c6d2f,64c516019e4c42759cf487df,right,1,0.75,0.3071,2,0.027668831,1.8883,,,,,,15,0,15,0,1,,,,,
,,466184,001,2023-07-29_15h41.24.237,arm3_eps,2022.2.5,Win32,30.0003,61648e4f0d2212047ab36b27,64c47140896c8c63e34c6d2f,64c516019e4c42759cf487df,up,1,0.75,0.3071,3,0,0.7658,,,,,,16,0,16,0,1,,,,,
,,466184,001,2023-07-29_15h41.24.237,arm3_eps,2022.2.5,Win32,30.0003,61648e4f0d2212047ab36b27,64c47140896c8c63e34c6d2f,64c516019e4c42759cf487df,right,1,0.75,0.3071,3,-0.004866064,1.5877,,,,,,17,0,17,0,1,,,,,
,,466184,001,2023-07-29_15h41.24.237,arm3_eps,2022.2.5,Win32,30.0003,61648e4f0d2212047ab36b27,64c47140896c8c63e34c6d2f,64c516019e4c42759cf487df,down,1,0.75,0.3071,3,0,1.4411,,,,,,18,0,18,0,1,,,,,
,,466184,001,2023-07-29_15h41.24.237,arm3_eps,2022.2.5,Win32,30.0003,61648e4f0d2212047ab36b27,64c47140896c8c63e34c6d2f,64c516019e4c42759cf487df,up,-1,0.75,0.3071,4,0,3.6561,,,,,,19,0,19,0,1,,,,,
,,466184,001,2023-07-29_15h41.24.237,arm3_eps,2022.2.5,Win32,30.0003,61648e4f0d2212047ab36b27,64c47140896c8c63e34c6d2f,64c516019e4c42759cf487df,down,-1,0.75,0.3071,5,0,2.7418,,,,,,20,0,20,0,1,,,,,
,,466184,001,2023-07-29_15h41.24.237,arm3_eps,2022.2.5,Win32,30.0003,61648e4f0d2212047ab36b27,64c47140896c8c63e34c6d2f,64c516019e4c42759cf487df,right,-1,0.75,0.3071,5,-0.00991017,1.641,,,,,,21,0,21,0,1,,,,,
,,466184,001,2023-07-29_15h41.24.237,arm3_eps,2022.2.5,Win32,30.0003,61648e4f0d2212047ab36b27,64c47140896c8c63e34c6d2f,64c516019e4c42759cf487df,down,-1,0.75,0.3071,5,0,0.6667,,,,,,22,0,22,0,1,,,,,
,,466184,001,2023-07-29_15h41.24.237,arm3_eps,2022.2.5,Win32,30.0003,61648e4f0d2212047ab36b27,64c47140896c8c63e34c6d2f,64c516019e4c42759cf487df,right,-1,0.75,0.3071,5,-0.019870972,2.2716,,,,,,23,0,23,0,1,,,,,
,,466184,001,2023-07-29_15h41.24.237,arm3_eps,2022.2.5,Win32,30.0003,61648e4f0d2212047ab36b27,64c47140896c8c63e34c6d2f,64c516019e4c42759cf487df,down,1,0.75,0.3071,5,0,0.8515,,,,,,24,0,24,0,1,,,,,
,,466184,001,2023-07-29_15h41.24.237,arm3_eps,2022.2.5,Win32,30.0003,61648e4f0d2212047ab36b27,64c47140896c8c63e34c6d2f,64c516019e4c42759cf487df,up,-1,0.75,0.3071,5,0,2.0932,,,,,,25,0,25,0,1,,,,,
,,466184,001,2023-07-29_15h41.24.237,arm3_eps,2022.2.5,Win32,30.0003,61648e4f0d2212047ab36b27,64c47140896c8c63e34c6d2f,64c516019e4c42759cf487df,right,-1,0.75,0.3071,5,-0.010546213,1.0261,,,,,,26,0,26,0,1,,,,,
,,466184,001,2023-07-29_15h41.24.237,arm3_eps,2022.2.5,Win32,30.0003,61648e4f0d2212047ab36b27,64c47140896c8c63e34c6d2f,64c516019e4c42759cf487df,down,-1,0.75,0.3071,6,0,2.0917,,,,,,27,0,27,0,1,,,,,
,,466184,001,2023-07-29_15h41.24.237,arm3_eps,2022.2.5,Win32,30.0003,61648e4f0d2212047ab36b27,64c47140896c8c63e34c6d2f,64c516019e4c42759cf487df,right,-1,0.75,0.3071,6,-0.00560799,1.1489,,,,,,28,0,28,0,1,,,,,
,,466184,001,2023-07-29_15h41.24.237,arm3_eps,2022.2.5,Win32,30.0003,61648e4f0d2212047ab36b27,64c47140896c8c63e34c6d2f,64c516019e4c42759cf487df,down,-1,0.75,0.3071,7,0,0.8377,,,,,,29,0,29,0,1,,,,,
,,466184,001,2023-07-29_15h41.24.237,arm3_eps,2022.2.5,Win32,30.0003,61648e4f0d2212047ab36b27,64c47140896c8c63e34c6d2f,64c516019e4c42759cf487df,down,-1,0.75,0.3071,8,0,2.1553,,,,,,30,0,30,0,1,,,,,
,,466184,001,2023-07-29_15h41.24.237,arm3_eps,2022.2.5,Win32,30.0003,61648e4f0d2212047ab36b27,64c47140896c8c63e34c6d2f,64c516019e4c42759cf487df,down,-1,0.75,0.3071,9,0,1.6068,,,,,,31,0,31,0,1,,,,,
,,466184,001,2023-07-29_15h41.24.237,arm3_eps,2022.2.5,Win32,30.0003,61648e4f0d2212047ab36b27,64c47140896c8c63e34c6d2f,64c516019e4c42759cf487df,down,1,0.75,0.3071,9,0,2.2141,,,,,,32,0,32,0,1,,,,,
,,466184,001,2023-07-29_15h41.24.237,arm3_eps,2022.2.5,Win32,30.0003,61648e4f0d2212047ab36b27,64c47140896c8c63e34c6d2f,64c516019e4c42759cf487df,up,1,0.75,0.3071,9,0,1.3307,,,,,,33,0,33,0,1,,,,,
,,466184,001,2023-07-29_15h41.24.237,arm3_eps,2022.2.5,Win32,30.0003,61648e4f0d2212047ab36b27,64c47140896c8c63e34c6d2f,64c516019e4c42759cf487df,up,1,0.75,0.3071,10,0,1.0362,,,,,,34,0,34,0,1,,,,,
,,466184,001,2023-07-29_15h41.24.237,arm3_eps,2022.2.5,Win32,30.0003,61648e4f0d2212047ab36b27,64c47140896c8c63e34c6d2f,64c516019e4c42759cf487df,right,1,0.75,0.3071,10,0.001592529,2.2783,,,,,,35,0,35,0,1,,,,,
,,466184,001,2023-07-29_15h41.24.237,arm3_eps,2022.2.5,Win32,30.0003,61648e4f0d2212047ab36b27,64c47140896c8c63e34c6d2f,64c516019e4c42759cf487df,up,-1,0.75,0.3071,11,0,0.6647,,,,,,36,0,36,0,1,,,,,
,,466184,001,2023-07-29_15h41.24.237,arm3_eps,2022.2.5,Win32,30.0003,61648e4f0d2212047ab36b27,64c47140896c8c63e34c6d2f,64c516019e4c42759cf487df,down,1,0.75,0.3071,12,0,1.6725,,,,,,37,0,37,0,1,,,,,
,,466184,001,2023-07-29_15h41.24.237,arm3_eps,2022.2.5,Win32,30.0003,61648e4f0d2212047ab36b27,64c47140896c8c63e34c6d2f,64c516019e4c42759cf487df,up,-1,0.75,0.3071,13,0,2.1265,,,,,,38,0,38,0,1,,,,,
,,466184,001,2023-07-29_15h41.24.237,arm3_eps,2022.2.5,Win32,30.0003,61648e4f0d2212047ab36b27,64c47140896c8c63e34c6d2f,64c516019e4c42759cf487df,down,1,0.75,0.3071,13,0,1.3031,,,,,,39,0,39,0,1,,,,,
,,466184,001,2023-07-29_15h41.24.237,arm3_eps,2022.2.5,Win32,30.0003,61648e4f0d2212047ab36b27,64c47140896c8c63e34c6d2f,64c516019e4c42759cf487df,up,1,0.75,0.3071,14,0,3.3377,,,,,,40,0,40,0,1,,,,,
,,466184,001,2023-07-29_15h41.24.237,arm3_eps,2022.2.5,Win32,30.0003,61648e4f0d2212047ab36b27,64c47140896c8c63e34c6d2f,64c516019e4c42759cf487df,right,1,0.75,0.3071,14,-0.002690956,4.5065,,,,,,41,0,41,0,1,,,,,
,,466184,001,2023-07-29_15h41.24.237,arm3_eps,2022.2.5,Win32,30.0003,61648e4f0d2212047ab36b27,64c47140896c8c63e34c6d2f,64c516019e4c42759cf487df,up,-1,0.75,0.3071,15,0,0.5074,,,,,,42,0,42,0,1,,,,,
,,466184,001,2023-07-29_15h41.24.237,arm3_eps,2022.2.5,Win32,30.0003,61648e4f0d2212047ab36b27,64c47140896c8c63e34c6d2f,64c516019e4c42759cf487df,down,-1,0.75,0.3071,16,0,3.0707,,,,,,43,0,43,0,1,,,,,
,,466184,001,2023-07-29_15h41.24.237,arm3_eps,2022.2.5,Win32,30.0003,61648e4f0d2212047ab36b27,64c47140896c8c63e34c6d2f,64c516019e4c42759cf487df,down,-1,0.75,0.3071,17,0,1.4773,,,,,,44,0,44,0,1,,,,,
,,466184,001,2023-07-29_15h41.24.237,arm3_eps,2022.2.5,Win32,30.0003,61648e4f0d2212047ab36b27,64c47140896c8c63e34c6d2f,64c516019e4c42759cf487df,right,-1,0.75,0.3071,17,-0.003314411,1.4665,,,,,,45,0,45,0,1,,,,,
,,466184,001,2023-07-29_15h41.24.237,arm3_eps,2022.2.5,Win32,30.0003,61648e4f0d2212047ab36b27,64c47140896c8c63e34c6d2f,64c516019e4c42759cf487df,right,-1,0.75,0.3071,17,-0.004769399,0.7556,,,,,,46,0,46,0,1,,,,,
,,466184,001,2023-07-29_15h41.24.237,arm3_eps,2022.2.5,Win32,30.0003,61648e4f0d2212047ab36b27,64c47140896c8c63e34c6d2f,64c516019e4c42759cf487df,down,-1,0.75,0.3071,17,0,1.0421,,,,,,47,0,47,0,1,,,,,
,,466184,001,2023-07-29_15h41.24.237,arm3_eps,2022.2.5,Win32,30.0003,61648e4f0d2212047ab36b27,64c47140896c8c63e34c6d2f,64c516019e4c42759cf487df,down,-1,0.75,0.3071,17,0,1.7895,,,,,,48,0,48,0,1,,,,,
,,466184,001,2023-07-29_15h41.24.237,arm3_eps,2022.2.5,Win32,30.0003,61648e4f0d2212047ab36b27,64c47140896c8c63e34c6d2f,64c516019e4c42759cf487df,down,-1,0.75,0.3071,18,0,3.4467,,,,,,49,0,49,0,1,,,,,
,,466184,001,2023-07-29_15h41.24.237,arm3_eps,2022.2.5,Win32,30.0003,61648e4f0d2212047ab36b27,64c47140896c8c63e34c6d2f,64c516019e4c42759cf487df,right,-1,0.75,0.3071,18,-0.016739029,1.6189,,,,,,50,0,50,0,1,,,,,
,,466184,001,2023-07-29_15h41.24.237,arm3_eps,2022.2.5,Win32,30.0003,61648e4f0d2212047ab36b27,64c47140896c8c63e34c6d2f,64c516019e4c42759cf487df,up,-1,0.75,0.3071,17,0,1.9968,,,,,,51,0,51,0,1,,,,,
,,466184,001,2023-07-29_15h41.24.237,arm3_eps,2022.2.5,Win32,30.0003,61648e4f0d2212047ab36b27,64c47140896c8c63e34c6d2f,64c516019e4c42759cf487df,down,-1,0.75,0.3071,18,0,1.0888,,,,,,52,0,52,0,1,,,,,
,,466184,001,2023-07-29_15h41.24.237,arm3_eps,2022.2.5,Win32,30.0003,61648e4f0d2212047ab36b27,64c47140896c8c63e34c6d2f,64c516019e4c42759cf487df,down,-1,0.75,0.3071,18,0,1.0578,,,,,,53,0,53,0,1,,,,,
,,466184,001,2023-07-29_15h41.24.237,arm3_eps,2022.2.5,Win32,30.0003,61648e4f0d2212047ab36b27,64c47140896c8c63e34c6d2f,64c516019e4c42759cf487df,right,-1,0.75,0.3071,18,-0.006499958,1.4497,,,,,,54,0,54,0,1,,,,,
,,466184,001,2023-07-29_15h41.24.237,arm3_eps,2022.2.5,Win32,30.0003,61648e4f0d2212047ab36b27,64c47140896c8c63e34c6d2f,64c516019e4c42759cf487df,right,-1,0.75,0.3071,18,0.004473922,0.7819,,,,,,55,0,55,0,1,,,,,
,,466184,001,2023-07-29_15h41.24.237,arm3_eps,2022.2.5,Win32,30.0003,61648e4f0d2212047ab36b27,64c47140896c8c63e34c6d2f,64c516019e4c42759cf487df,down,-1,0.75,0.3071,19,0,1.0928,,,,,,56,0,56,0,1,,,,,
,,466184,001,2023-07-29_15h41.24.237,arm3_eps,2022.2.5,Win32,30.0003,61648e4f0d2212047ab36b27,64c47140896c8c63e34c6d2f,64c516019e4c42759cf487df,down,-1,0.75,0.3071,20,0,4.7286,,,,,,57,0,57,0,1,,,,,
,,466184,001,2023-07-29_15h41.24.237,arm3_eps,2022.2.5,Win32,30.0003,61648e4f0d2212047ab36b27,64c47140896c8c63e34c6d2f,64c516019e4c42759cf487df,right,-1,0.75,0.3071,20,-0.012002198,1.8302,,,,,,58,0,58,0,1,,,,,
,,466184,001,2023-07-29_15h41.24.237,arm3_eps,2022.2.5,Win32,30.0003,61648e4f0d2212047ab36b27,64c47140896c8c63e34c6d2f,64c516019e4c42759cf487df,down,1,0.75,0.3071,21,0,0.4074,,,,,,59,0,59,0,1,,,,,
,,466184,001,2023-07-29_15h41.24.237,arm3_eps,2022.2.5,Win32,30.0003,61648e4f0d2212047ab36b27,64c47140896c8c63e34c6d2f,64c516019e4c42759cf487df,down,1,0.75,0.3071,20,0,1.5435,,,,,,60,0,60,0,1,,,,,
,,466184,001,2023-07-29_15h41.24.237,arm3_eps,2022.2.5,Win32,30.0003,61648e4f0d2212047ab36b27,64c47140896c8c63e34c6d2f,64c516019e4c42759cf487df,up,1,0.75,0.3071,21,0,1.1934,,,,,,61,0,61,0,1,,,,,
,,466184,001,2023-07-29_15h41.24.237,arm3_eps,2022.2.5,Win32,30.0003,61648e4f0d2212047ab36b27,64c47140896c8c63e34c6d2f,64c516019e4c42759cf487df,right,1,0.75,0.3071,21,-0.001944621,2.0505,,,,,,62,0,62,0,1,,,,,
,,466184,001,2023-07-29_15h41.24.237,arm3_eps,2022.2.5,Win32,30.0003,61648e4f0d2212047ab36b27,64c47140896c8c63e34c6d2f,64c516019e4c42759cf487df,right,1,0.75,0.3071,21,0.005846263,0.6035,,,,,,63,0,63,0,1,,,,,
,,466184,001,2023-07-29_15h41.24.237,arm3_eps,2022.2.5,Win32,30.0003,61648e4f0d2212047ab36b27,64c47140896c8c63e34c6d2f,64c516019e4c42759cf487df,up,-1,0.75,0.3071,22,0,1.0058,,,,,,64,0,64,0,1,,,,,
,,466184,001,2023-07-29_15h41.24.237,arm3_eps,2022.2.5,Win32,30.0003,61648e4f0d2212047ab36b27,64c47140896c8c63e34c6d2f,64c516019e4c42759cf487df,up,1,0.75,0.3071,21,0,1.7902,,,,,,65,0,65,0,1,,,,,
,,466184,001,2023-07-29_15h41.24.237,arm3_eps,2022.2.5,Win32,30.0003,61648e4f0d2212047ab36b27,64c47140896c8c63e34c6d2f,64c516019e4c42759cf487df,up,-1,0.75,0.3071,22,0,1.2735,,,,,,66,0,66,0,1,,,,,
,,466184,001,2023-07-29_15h41.24.237,arm3_eps,2022.2.5,Win32,30.0003,61648e4f0d2212047ab36b27,64c47140896c8c63e34c6d2f,64c516019e4c42759cf487df,down,1,0.75,0.3071,22,0,1.5593,,,,,,67,0,67,0,1,,,,,
,,466184,001,2023-07-29_15h41.24.237,arm3_eps,2022.2.5,Win32,30.0003,61648e4f0d2212047ab36b27,64c47140896c8c63e34c6d2f,64c516019e4c42759cf487df,right,1,0.75,0.3071,22,-0.006781124,1.5898,,,,,,68,0,68,0,1,,,,,
,,466184,001,2023-07-29_15h41.24.237,arm3_eps,2022.2.5,Win32,30.0003,61648e4f0d2212047ab36b27,64c47140896c8c63e34c6d2f,64c516019e4c42759cf487df,right,1,0.75,0.3071,22,0.001619965,0.608,,,,,,69,0,69,0,1,,,,,
,,466184,001,2023-07-29_15h41.24.237,arm3_eps,2022.2.5,Win32,30.0003,61648e4f0d2212047ab36b27,64c47140896c8c63e34c6d2f,64c516019e4c42759cf487df,down,-1,0.75,0.3071,21,0,0.6981,,,,,,70,0,70,0,1,,,,,
,,466184,001,2023-07-29_15h41.24.237,arm3_eps,2022.2.5,Win32,30.0003,61648e4f0d2212047ab36b27,64c47140896c8c63e34c6d2f,64c516019e4c42759cf487df,up,-1,0.75,0.3071,20,0,0.9468,,,,,,71,0,71,0,1,,,,,
,,466184,001,2023-07-29_15h41.24.237,arm3_eps,2022.2.5,Win32,30.0003,61648e4f0d2212047ab36b27,64c47140896c8c63e34c6d2f,64c516019e4c42759cf487df,down,1,0.75,0.3071,21,0,0.8575,,,,,,72,0,72,0,1,,,,,
,,466184,001,2023-07-29_15h41.24.237,arm3_eps,2022.2.5,Win32,30.0003,61648e4f0d2212047ab36b27,64c47140896c8c63e34c6d2f,64c516019e4c42759cf487df,up,-1,0.75,0.3071,22,0,8.2491,,,,,,73,0,73,0,1,,,,,
,,466184,001,2023-07-29_15h41.24.237,arm3_eps,2022.2.5,Win32,30.0003,61648e4f0d2212047ab36b27,64c47140896c8c63e34c6d2f,64c516019e4c42759cf487df,up,1,0.75,0.3071,22,0,1.3369,,,,,,74,0,74,0,1,,,,,
,,466184,001,2023-07-29_15h41.24.237,arm3_eps,2022.2.5,Win32,30.0003,61648e4f0d2212047ab36b27,64c47140896c8c63e34c6d2f,64c516019e4c42759cf487df,up,1,0.75,0.3071,23,0,1.1036,,,,,,75,0,75,0,1,,,,,
,,466184,001,2023-07-29_15h41.24.237,arm3_eps,2022.2.5,Win32,30.0003,61648e4f0d2212047ab36b27,64c47140896c8c63e34c6d2f,64c516019e4c42759cf487df,right,1,0.75,0.3071,23,0.008214634,1.4733,,,,,,76,0,76,0,1,,,,,
,,466184,001,2023-07-29_15h41.24.237,arm3_eps,2022.2.5,Win32,30.0003,61648e4f0d2212047ab36b27,64c47140896c8c63e34c6d2f,64c516019e4c42759cf487df,up,1,0.75,0.3071,24,0,0.4941,,,,,,77,0,77,0,1,,,,,
,,466184,001,2023-07-29_15h41.24.237,arm3_eps,2022.2.5,Win32,30.0003,61648e4f0d2212047ab36b27,64c47140896c8c63e34c6d2f,64c516019e4c42759cf487df,down,-1,0.75,0.3071,24,0,1.4765,,,,,,78,0,78,0,1,,,,,
,,466184,001,2023-07-29_15h41.24.237,arm3_eps,2022.2.5,Win32,30.0003,61648e4f0d2212047ab36b27,64c47140896c8c63e34c6d2f,64c516019e4c42759cf487df,up,1,0.75,0.3071,23,0,1.526,,,,,,79,0,79,0,1,,,,,
,,466184,001,2023-07-29_15h41.24.237,arm3_eps,2022.2.5,Win32,30.0003,61648e4f0d2212047ab36b27,64c47140896c8c63e34c6d2f,64c516019e4c42759cf487df,up,1,0.75,0.3071,24,0,1.2437,,,,,,80,0,80,0,1,,,,,
,,466184,001,2023-07-29_15h41.24.237,arm3_eps,2022.2.5,Win32,30.0003,61648e4f0d2212047ab36b27,64c47140896c8c63e34c6d2f,64c516019e4c42759cf487df,up,1,0.75,0.3071,24,0,1.2286,,,,,,81,0,81,0,1,,,,,
,,466184,001,2023-07-29_15h41.24.237,arm3_eps,2022.2.5,Win32,30.0003,61648e4f0d2212047ab36b27,64c47140896c8c63e34c6d2f,64c516019e4c42759cf487df,up,-1,0.75,0.3071,24,0,0.9463,,,,,,82,0,82,0,1,,,,,
,,466184,001,2023-07-29_15h41.24.237,arm3_eps,2022.2.5,Win32,30.0003,61648e4f0d2212047ab36b27,64c47140896c8c63e34c6d2f,64c516019e4c42759cf487df,down,-1,0.75,0.3071,25,0,1.2961,,,,,,83,0,83,0,1,,,,,
,,466184,001,2023-07-29_15h41.24.237,arm3_eps,2022.2.5,Win32,30.0003,61648e4f0d2212047ab36b27,64c47140896c8c63e34c6d2f,64c516019e4c42759cf487df,right,-1,0.75,0.3071,25,0.007419732,4.6078,,,,,,84,0,84,0,1,,,,,
,,466184,001,2023-07-29_15h41.24.237,arm3_eps,2022.2.5,Win32,30.0003,61648e4f0d2212047ab36b27,64c47140896c8c63e34c6d2f,64c516019e4c42759cf487df,down,-1,0.75,0.3071,26,0,1.3366,,,,,,85,0,85,0,1,,,,,
,,466184,001,2023-07-29_15h41.24.237,arm3_eps,2022.2.5,Win32,30.0003,61648e4f0d2212047ab36b27,64c47140896c8c63e34c6d2f,64c516019e4c42759cf487df,down,1,0.75,0.3071,26,0,2.0226,,,,,,86,0,86,0,1,,,,,
,,466184,001,2023-07-29_15h41.24.237,arm3_eps,2022.2.5,Win32,30.0003,61648e4f0d2212047ab36b27,64c47140896c8c63e34c6d2f,64c516019e4c42759cf487df,right,1,0.75,0.3071,26,-0.001753132,1.4801,,,,,,87,0,87,0,1,,,,,
,,466184,001,2023-07-29_15h41.24.237,arm3_eps,2022.2.5,Win32,30.0003,61648e4f0d2212047ab36b27,64c47140896c8c63e34c6d2f,64c516019e4c42759cf487df,up,1,0.75,0.3071,27,0,0.9076,,,,,,88,0,88,0,1,,,,,
,,466184,001,2023-07-29_15h41.24.237,arm3_eps,2022.2.5,Win32,30.0003,61648e4f0d2212047ab36b27,64c47140896c8c63e34c6d2f,64c516019e4c42759cf487df,up,-1,0.75,0.3071,27,0,2.4781,,,,,,89,0,89,0,1,,,,,
,,466184,001,2023-07-29_15h41.24.237,arm3_eps,2022.2.5,Win32,30.0003,61648e4f0d2212047ab36b27,64c47140896c8c63e34c6d2f,64c516019e4c42759cf487df,down,1,0.75,0.3071,27,0,1.3115,,,,,,90,0,90,0,1,,,,,
,,466184,001,2023-07-29_15h41.24.237,arm3_eps,2022.2.5,Win32,30.0003,61648e4f0d2212047ab36b27,64c47140896c8c63e34c6d2f,64c516019e4c42759cf487df,up,1,0.75,0.3071,28,0,1.1091,,,,,,91,0,91,0,1,,,,,
,,466184,001,2023-07-29_15h41.24.237,arm3_eps,2022.2.5,Win32,30.0003,61648e4f0d2212047ab36b27,64c47140896c8c63e34c6d2f,64c516019e4c42759cf487df,down,1,0.75,0.3071,28,0,1.3774,,,,,,92,0,92,0,1,,,,,
,,466184,001,2023-07-29_15h41.24.237,arm3_eps,2022.2.5,Win32,30.0003,61648e4f0d2212047ab36b27,64c47140896c8c63e34c6d2f,64c516019e4c42759cf487df,right,1,0.75,0.3071,28,-0.00150163,1.4013,,,,,,93,0,93,0,1,,,,,
,,466184,001,2023-07-29_15h41.24.237,arm3_eps,2022.2.5,Win32,30.0003,61648e4f0d2212047ab36b27,64c47140896c8c63e34c6d2f,64c516019e4c42759cf487df,up,1,0.75,0.3071,29,0,0.5988,,,,,,94,0,94,0,1,,,,,
,,466184,001,2023-07-29_15h41.24.237,arm3_eps,2022.2.5,Win32,30.0003,61648e4f0d2212047ab36b27,64c47140896c8c63e34c6d2f,64c516019e4c42759cf487df,up,1,0.75,0.3071,30,0,1.2215,,,,,,95,0,95,0,1,,,,,
,,466184,001,2023-07-29_15h41.24.237,arm3_eps,2022.2.5,Win32,30.0003,61648e4f0d2212047ab36b27,64c47140896c8c63e34c6d2f,64c516019e4c42759cf487df,up,1,0.75,0.3071,30,0,1.2154,,,,,,96,0,96,0,1,,,,,
,,466184,001,2023-07-29_15h41.24.237,arm3_eps,2022.2.5,Win32,30.0003,61648e4f0d2212047ab36b27,64c47140896c8c63e34c6d2f,64c516019e4c42759cf487df,up,-1,0.75,0.3071,31,0,1.1558,,,,,,97,0,97,0,1,,,,,
,,466184,001,2023-07-29_15h41.24.237,arm3_eps,2022.2.5,Win32,30.0003,61648e4f0d2212047ab36b27,64c47140896c8c63e34c6d2f,64c516019e4c42759cf487df,right,-1,0.75,0.3071,31,-0.003906531,1.6786,,,,,,98,0,98,0,1,,,,,
,,466184,001,2023-07-29_15h41.24.237,arm3_eps,2022.2.5,Win32,30.0003,61648e4f0d2212047ab36b27,64c47140896c8c63e34c6d2f,64c516019e4c42759cf487df,down,-1,0.75,0.3071,32,0,1.0088,,,,,,99,0,99,0,1,,,,,
,,466184,001,2023-07-29_15h41.24.237,arm3_eps,2022.2.5,Win32,30.0003,61648e4f0d2212047ab36b27,64c47140896c8c63e34c6d2f,64c516019e4c42759cf487df,down,-1,0.75,0.3071,33,0,1.6402,,,,,,100,0,100,0,1,,,,,
,,466184,001,2023-07-29_15h41.24.237,arm3_eps,2022.2.5,Win32,30.0003,61648e4f0d2212047ab36b27,64c47140896c8c63e34c6d2f,64c516019e4c42759cf487df,right,-1,0.75,0.3071,33,0.001229536,1.4225,,,,,,101,0,101,0,1,,,,,
,,466184,001,2023-07-29_15h41.24.237,arm3_eps,2022.2.5,Win32,30.0003,61648e4f0d2212047ab36b27,64c47140896c8c63e34c6d2f,64c516019e4c42759cf487df,down,-1,0.75,0.3071,33,0,0.936,,,,,,102,0,102,0,1,,,,,
,,466184,001,2023-07-29_15h41.24.237,arm3_eps,2022.2.5,Win32,30.0003,61648e4f0d2212047ab36b27,64c47140896c8c63e34c6d2f,64c516019e4c42759cf487df,down,-1,0.75,0.3071,34,0,1.7775,,,,,,103,0,103,0,1,,,,,
,,466184,001,2023-07-29_15h41.24.237,arm3_eps,2022.2.5,Win32,30.0003,61648e4f0d2212047ab36b27,64c47140896c8c63e34c6d2f,64c516019e4c42759cf487df,right,-1,0.75,0.3071,34,0.010555087,1.8597,,,,,,104,0,104,0,1,,,,,
,,466184,001,2023-07-29_15h41.24.237,arm3_eps,2022.2.5,Win32,30.0003,61648e4f0d2212047ab36b27,64c47140896c8c63e34c6d2f,64c516019e4c42759cf487df,down,1,0.75,0.3071,35,0,1.1238,,,,,,105,0,105,0,1,,,,,
,,466184,001,2023-07-29_15h41.24.237,arm3_eps,2022.2.5,Win32,30.0003,61648e4f0d2212047ab36b27,64c47140896c8c63e34c6d2f,64c516019e4c42759cf487df,down,1,0.75,0.3071,35,0,2.422,,,,,,106,0,106,0,1,,,,,
,,466184,001,2023-07-29_15h41.24.237,arm3_eps,2022.2.5,Win32,30.0003,61648e4f0d2212047ab36b27,64c47140896c8c63e34c6d2f,64c516019e4c42759cf487df,right,1,0.75,0.3071,35,0.000515674,1.235,,,,,,107,0,107,0,1,,,,,
,,466184,001,2023-07-29_15h41.24.237,arm3_eps,2022.2.5,Win32,30.0003,61648e4f0d2212047ab36b27,64c47140896c8c63e34c6d2f,64c516019e4c42759cf487df,right,1,0.75,0.3071,35,-0.002191852,0.6231,,,,,,108,0,108,0,1,,,,,
,,466184,001,2023-07-29_15h41.24.237,arm3_eps,2022.2.5,Win32,30.0003,61648e4f0d2212047ab36b27,64c47140896c8c63e34c6d2f,64c516019e4c42759cf487df,up,-1,0.75,0.3071,36,0,0.9644,,,,,,109,0,109,0,1,,,,,
,,466184,001,2023-07-29_15h41.24.237,arm3_eps,2022.2.5,Win32,30.0003,61648e4f0d2212047ab36b27,64c47140896c8c63e34c6d2f,64c516019e4c42759cf487df,right,-1,0.75,0.3071,36,-0.005642281,4.3446,,,,,,110,0,110,0,1,,,,,
,,466184,001,2023-07-29_15h41.24.237,arm3_eps,2022.2.5,Win32,30.0003,61648e4f0d2212047ab36b27,64c47140896c8c63e34c6d2f,64c516019e4c42759cf487df,up,1,0.75,0.3071,35,0,2.2193,,,,,,111,0,111,0,1,,,,,
,,466184,001,2023-07-29_15h41.24.237,arm3_eps,2022.2.5,Win32,30.0003,61648e4f0d2212047ab36b27,64c47140896c8c63e34c6d2f,64c516019e4c42759cf487df,up,1,0.75,0.3071,35,0,1.3726,,,,,,112,0,112,0,1,,,,,
,,466184,001,2023-07-29_15h41.24.237,arm3_eps,2022.2.5,Win32,30.0003,61648e4f0d2212047ab36b27,64c47140896c8c63e34c6d2f,64c516019e4c42759cf487df,up,1,0.75,0.3071,36,0,1.4848,,,,,,113,0,113,0,1,,,,,
,,466184,001,2023-07-29_15h41.24.237,arm3_eps,2022.2.5,Win32,30.0003,61648e4f0d2212047ab36b27,64c47140896c8c63e34c6d2f,64c516019e4c42759cf487df,up,-1,0.75,0.3071,37,0,2.6069,,,,,,114,0,114,0,1,,,,,
,,466184,001,2023-07-29_15h41.24.237,arm3_eps,2022.2.5,Win32,30.0003,61648e4f0d2212047ab36b27,64c47140896c8c63e34c6d2f,64c516019e4c42759cf487df,down,1,0.75,0.3071,38,0,1.3937,,,,,,115,0,115,0,1,,,,,
,,466184,001,2023-07-29_15h41.24.237,arm3_eps,2022.2.5,Win32,30.0003,61648e4f0d2212047ab36b27,64c47140896c8c63e34c6d2f,64c516019e4c42759cf487df,down,1,0.75,0.3071,37,0,1.2998,,,,,,116,0,116,0,1,,,,,
,,466184,001,2023-07-29_15h41.24.237,arm3_eps,2022.2.5,Win32,30.0003,61648e4f0d2212047ab36b27,64c47140896c8c63e34c6d2f,64c516019e4c42759cf487df,down,1,0.75,0.3071,36,0,1.9922,,,,,,117,0,117,0,1,,,,,
,,466184,001,2023-07-29_15h41.24.237,arm3_eps,2022.2.5,Win32,30.0003,61648e4f0d2212047ab36b27,64c47140896c8c63e34c6d2f,64c516019e4c42759cf487df,up,1,0.75,0.3071,37,0,1.1375,,,,,,118,0,118,0,1,,,,,
,,466184,001,2023-07-29_15h41.24.237,arm3_eps,2022.2.5,Win32,30.0003,61648e4f0d2212047ab36b27,64c47140896c8c63e34c6d2f,64c516019e4c42759cf487df,right,1,0.75,0.3071,37,-0.00011149,1.4873,,,,,,119,0,119,0,1,,,,,
,,466184,001,2023-07-29_15h41.24.237,arm3_eps,2022.2.5,Win32,30.0003,61648e4f0d2212047ab36b27,64c47140896c8c63e34c6d2f,64c516019e4c42759cf487df,up,1,0.75,0.3071,37,0,0.5304,,,,,,120,0,120,0,1,,,,,
,,466184,001,2023-07-29_15h41.24.237,arm3_eps,2022.2.5,Win32,30.0003,61648e4f0d2212047ab36b27,64c47140896c8c63e34c6d2f,64c516019e4c42759cf487df,up,-1,0.75,0.3071,38,0,1.3565,,,,,,121,0,121,0,1,,,,,
,,466184,001,2023-07-29_15h41.24.237,arm3_eps,2022.2.5,Win32,30.0003,61648e4f0d2212047ab36b27,64c47140896c8c63e34c6d2f,64c516019e4c42759cf487df,down,1,0.75,0.3071,39,0,1.4576,,,,,,122,0,122,0,1,,,,,
,,466184,001,2023-07-29_15h41.24.237,arm3_eps,2022.2.5,Win32,30.0003,61648e4f0d2212047ab36b27,64c47140896c8c63e34c6d2f,64c516019e4c42759cf487df,up,1,0.75,0.3071,40,0,2.6593,,,,,,123,0,123,0,1,,,,,
,,466184,001,2023-07-29_15h41.24.237,arm3_eps,2022.2.5,Win32,30.0003,61648e4f0d2212047ab36b27,64c47140896c8c63e34c6d2f,64c516019e4c42759cf487df,right,1,0.75,0.3071,40,0.008269921,2.7289,,,,,,124,0,124,0,1,,,,,
,,466184,001,2023-07-29_15h41.24.237,arm3_eps,2022.2.5,Win32,30.0003,61648e4f0d2212047ab36b27,64c47140896c8c63e34c6d2f,64c516019e4c42759cf487df,down,-1,0.75,0.3071,39,0,1.1536,,,,,,125,0,125,0,1,,,,,
,,466184,001,2023-07-29_15h41.24.237,arm3_eps,2022.2.5,Win32,30.0003,61648e4f0d2212047ab36b27,64c47140896c8c63e34c6d2f,64c516019e4c42759cf487df,up,-1,0.75,0.3071,38,0,1.0071,,,,,,126,0,126,0,1,,,,,
,,466184,001,2023-07-29_15h41.24.237,arm3_eps,2022.2.5,Win32,30.0003,61648e4f0d2212047ab36b27,64c47140896c8c63e34c6d2f,64c516019e4c42759cf487df,up,1,0.75,0.3071,38,0,1.0967,,,,,,127,0,127,0,1,,,,,
,,466184,001,2023-07-29_15h41.24.237,arm3_eps,2022.2.5,Win32,30.0003,61648e4f0d2212047ab36b27,64c47140896c8c63e34c6d2f,64c516019e4c42759cf487df,up,1,0.75,0.3071,39,0,1.0723,,,,,,128,0,128,0,1,,,,,
,,466184,001,2023-07-29_15h41.24.237,arm3_eps,2022.2.5,Win32,30.0003,61648e4f0d2212047ab36b27,64c47140896c8c63e34c6d2f,64c516019e4c42759cf487df,up,1,0.75,0.3071,40,0,1.4575,,,,,,129,0,129,0,1,,,,,
,,466184,001,2023-07-29_15h41.24.237,arm3_eps,2022.2.5,Win32,30.0003,61648e4f0d2212047ab36b27,64c47140896c8c63e34c6d2f,64c516019e4c42759cf487df,up,1,0.75,0.3071,41,0,1.623,,,,,,130,0,130,0,1,,,,,
,,466184,001,2023-07-29_15h41.24.237,arm3_eps,2022.2.5,Win32,30.0003,61648e4f0d2212047ab36b27,64c47140896c8c63e34c6d2f,64c516019e4c42759cf487df,up,1,0.75,0.3071,41,0,1.4891,,,,,,131,0,131,0,1,,,,,
,,466184,001,2023-07-29_15h41.24.237,arm3_eps,2022.2.5,Win32,30.0003,61648e4f0d2212047ab36b27,64c47140896c8c63e34c6d2f,64c516019e4c42759cf487df,right,1,0.75,0.3071,41,-0.00345594,1.7344,,,,,,132,0,132,0,1,,,,,
,,466184,001,2023-07-29_15h41.24.237,arm3_eps,2022.2.5,Win32,30.0003,61648e4f0d2212047ab36b27,64c47140896c8c63e34c6d2f,64c516019e4c42759cf487df,down,-1,0.75,0.3071,40,0,0.8367,,,,,,133,0,133,0,1,,,,,
,,466184,001,2023-07-29_15h41.24.237,arm3_eps,2022.2.5,Win32,30.0003,61648e4f0d2212047ab36b27,64c47140896c8c63e34c6d2f,64c516019e4c42759cf487df,up,-1,0.75,0.3071,40,0,1.4898,,,,,,134,0,134,0,1,,,,,
,,466184,001,2023-07-29_15h41.24.237,arm3_eps,2022.2.5,Win32,30.0003,61648e4f0d2212047ab36b27,64c47140896c8c63e34c6d2f,64c516019e4c42759cf487df,down,1,0.75,0.3071,40,0,1.3099,,,,,,135,0,135,0,1,,,,,
,,466184,001,2023-07-29_15h41.24.237,arm3_eps,2022.2.5,Win32,30.0003,61648e4f0d2212047ab36b27,64c47140896c8c63e34c6d2f,64c516019e4c42759cf487df,right,1,0.75,0.3071,40,-0.005531921,1.5267,,,,,,136,0,136,0,1,,,,,
,,466184,001,2023-07-29_15h41.24.237,arm3_eps,2022.2.5,Win32,30.0003,61648e4f0d2212047ab36b27,64c47140896c8c63e34c6d2f,64c516019e4c42759cf487df,up,1,0.75,0.3071,41,0,0.6124,,,,,,137,0,137,0,1,,,,,
,,466184,001,2023-07-29_15h41.24.237,arm3_eps,2022.2.5,Win32,30.0003,61648e4f0d2212047ab36b27,64c47140896c8c63e34c6d2f,64c516019e4c42759cf487df,down,1,0.75,0.3071,41,0,1.6782,,,,,,138,0,138,0,1,,,,,
,,466184,001,2023-07-29_15h41.24.237,arm3_eps,2022.2.5,Win32,30.0003,61648e4f0d2212047ab36b27,64c47140896c8c63e34c6d2f,64c516019e4c42759cf487df,down,1,0.75,0.3071,41,0,1.2643,,,,,,139,0,139,0,1,,,,,
,,466184,001,2023-07-29_15h41.24.237,arm3_eps,2022.2.5,Win32,30.0003,61648e4f0d2212047ab36b27,64c47140896c8c63e34c6d2f,64c516019e4c42759cf487df,up,1,0.75,0.3071,41,0,0.9927,,,,,,140,0,140,0,1,,,,,
,,466184,001,2023-07-29_15h41.24.237,arm3_eps,2022.2.5,Win32,30.0003,61648e4f0d2212047ab36b27,64c47140896c8c63e34c6d2f,64c516019e4c42759cf487df,up,-1,0.75,0.3071,41,0,1.3271,,,,,,141,0,141,0,1,,,,,
,,466184,001,2023-07-29_15h41.24.237,arm3_eps,2022.2.5,Win32,30.0003,61648e4f0d2212047ab36b27,64c47140896c8c63e34c6d2f,64c516019e4c42759cf487df,down,-1,0.75,0.3071,42,0,1.3249,,,,,,142,0,142,0,1,,,,,
,,466184,001,2023-07-29_15h41.24.237,arm3_eps,2022.2.5,Win32,30.0003,61648e4f0d2212047ab36b27,64c47140896c8c63e34c6d2f,64c516019e4c42759cf487df,down,-1,0.75,0.3071,43,0,1.829,,,,,,143,0,143,0,1,,,,,
,,466184,001,2023-07-29_15h41.24.237,arm3_eps,2022.2.5,Win32,30.0003,61648e4f0d2212047ab36b27,64c47140896c8c63e34c6d2f,64c516019e4c42759cf487df,right,-1,0.75,0.3071,43,0.005825627,1.5203,,,,,,144,0,144,0,1,,,,,
,,466184,001,2023-07-29_15h41.24.237,arm3_eps,2022.2.5,Win32,30.0003,61648e4f0d2212047ab36b27,64c47140896c8c63e34c6d2f,64c516019e4c42759cf487df,down,-1,0.75,0.3071,44,0,0.7932,,,,,,145,0,145,0,1,,,,,
,,466184,001,2023-07-29_15h41.24.237,arm3_eps,2022.2.5,Win32,30.0003,61648e4f0d2212047ab36b27,64c47140896c8c63e34c6d2f,64c516019e4c42759cf487df,up,1,0.75,0.3071,43,0,10.2048,,,,,,146,0,146,0,1,,,,,
,,466184,001,2023-07-29_15h41.24.237,arm3_eps,2022.2.5,Win32,30.0003,61648e4f0d2212047ab36b27,64c47140896c8c63e34c6d2f,64c516019e4c42759cf487df,right,1,0.75,0.3071,43,-0.001597763,1.2549,,,,,,147,0,147,0,1,,,,,
,,466184,001,2023-07-29_15h41.24.237,arm3_eps,2022.2.5,Win32,30.0003,61648e4f0d2212047ab36b27,64c47140896c8c63e34c6d2f,64c516019e4c42759cf487df,up,-1,0.75,0.3071,44,0,0.5205,,,,,,148,0,148,0,1,,,,,
,,466184,001,2023-07-29_15h41.24.237,arm3_eps,2022.2.5,Win32,30.0003,61648e4f0d2212047ab36b27,64c47140896c8c63e34c6d2f,64c516019e4c42759cf487df,down,-1,0.75,0.3071,45,0,1.3962,,,,,,149,0,149,0,1,,,,,
,,466184,001,2023-07-29_15h41.24.237,arm3_eps,2022.2.5,Win32,30.0003,61648e4f0d2212047ab36b27,64c47140896c8c63e34c6d2f,64c516019e4c42759cf487df,right,-1,0.75,0.3071,45,0.003726431,1.2647,,,,,,150,0,150,0,1,,,,,
,,466184,001,2023-07-29_15h41.24.237,arm3_eps,2022.2.5,Win32,30.0003,61648e4f0d2212047ab36b27,64c47140896c8c63e34c6d2f,64c516019e4c42759cf487df,down,1,0.75,0.3071,46,0,0.6916,,,,,,151,0,151,0,1,,,,,
,,466184,001,2023-07-29_15h41.24.237,arm3_eps,2022.2.5,Win32,30.0003,61648e4f0d2212047ab36b27,64c47140896c8c63e34c6d2f,64c516019e4c42759cf487df,right,1,0.75,0.3071,46,-0.005905382,1.7212,,,,,,152,0,152,0,1,,,,,
,,466184,001,2023-07-29_15h41.24.237,arm3_eps,2022.2.5,Win32,30.0003,61648e4f0d2212047ab36b27,64c47140896c8c63e34c6d2f,64c516019e4c42759cf487df,up,1,0.75,0.3071,47,0,0.7744,,,,,,153,0,153,0,1,,,,,
,,466184,001,2023-07-29_15h41.24.237,arm3_eps,2022.2.5,Win32,30.0003,61648e4f0d2212047ab36b27,64c47140896c8c63e34c6d2f,64c516019e4c42759cf487df,up,1,0.75,0.3071,47,0,1.3246,,,,,,154,0,154,0,1,,,,,
,,466184,001,2023-07-29_15h41.24.237,arm3_eps,2022.2.5,Win32,30.0003,61648e4f0d2212047ab36b27,64c47140896c8c63e34c6d2f,64c516019e4c42759cf487df,up,-1,0.75,0.3071,47,0,1.1058,,,,,,155,0,155,0,1,,,,,
,,466184,001,2023-07-29_15h41.24.237,arm3_eps,2022.2.5,Win32,30.0003,61648e4f0d2212047ab36b27,64c47140896c8c63e34c6d2f,64c516019e4c42759cf487df,right,-1,0.75,0.3071,47,-0.000785625,1.271,,,,,,156,0,156,0,1,,,,,
,,466184,001,2023-07-29_15h41.24.237,arm3_eps,2022.2.5,Win32,30.0003,61648e4f0d2212047ab36b27,64c47140896c8c63e34c6d2f,64c516019e4c42759cf487df,down,-1,0.75,0.3071,47,0,0.6571,,,,,,157,0,157,0,1,,,,,
,,466184,001,2023-07-29_15h41.24.237,arm3_eps,2022.2.5,Win32,30.0003,61648e4f0d2212047ab36b27,64c47140896c8c63e34c6d2f,64c516019e4c42759cf487df,right,-1,0.75,0.3071,47,-0.009749232,1.079,,,,,,158,0,158,0,1,,,,,
,,466184,001,2023-07-29_15h41.24.237,arm3_eps,2022.2.5,Win32,30.0003,61648e4f0d2212047ab36b27,64c47140896c8c63e34c6d2f,64c516019e4c42759cf487df,up,-1,0.75,0.3071,46,0,0.4518,,,,,,159,0,159,0,1,,,,,
,,466184,001,2023-07-29_15h41.24.237,arm3_eps,2022.2.5,Win32,30.0003,61648e4f0d2212047ab36b27,64c47140896c8c63e34c6d2f,64c516019e4c42759cf487df,down,-1,0.75,0.3071,47,0,1.6765,,,,,,160,0,160,0,1,,,,,
,,466184,001,2023-07-29_15h41.24.237,arm3_eps,2022.2.5,Win32,30.0003,61648e4f0d2212047ab36b27,64c47140896c8c63e34c6d2f,64c516019e4c42759cf487df,right,-1,0.75,0.3071,47,0.004998089,1.1329,,,,,,161,0,161,0,1,,,,,
,,466184,001,2023-07-29_15h41.24.237,arm3_eps,2022.2.5,Win32,30.0003,61648e4f0d2212047ab36b27,64c47140896c8c63e34c6d2f,64c516019e4c42759cf487df,up,-1,0.75,0.3071,47,0,0.5311,,,,,,162,0,162,0,1,,,,,
,,466184,001,2023-07-29_15h41.24.237,arm3_eps,2022.2.5,Win32,30.0003,61648e4f0d2212047ab36b27,64c47140896c8c63e34c6d2f,64c516019e4c42759cf487df,down,-1,0.75,0.3071,48,0,2.3783,,,,,,163,0,163,0,1,,,,,
,,466184,001,2023-07-29_15h41.24.237,arm3_eps,2022.2.5,Win32,30.0003,61648e4f0d2212047ab36b27,64c47140896c8c63e34c6d2f,64c516019e4c42759cf487df,down,-1,0.75,0.3071,48,0,1.4229,,,,,,164,0,164,0,1,,,,,
,,466184,001,2023-07-29_15h41.24.237,arm3_eps,2022.2.5,Win32,30.0003,61648e4f0d2212047ab36b27,64c47140896c8c63e34c6d2f,64c516019e4c42759cf487df,right,-1,0.75,0.3071,48,0.003397258,1.1636,,,,,,165,0,165,0,1,,,,,
,,466184,001,2023-07-29_15h41.24.237,arm3_eps,2022.2.5,Win32,30.0003,61648e4f0d2212047ab36b27,64c47140896c8c63e34c6d2f,64c516019e4c42759cf487df,right,-1,0.75,0.3071,48,-0.003231161,0.8045,,,,,,166,0,166,0,1,,,,,
,,466184,001,2023-07-29_15h41.24.237,arm3_eps,2022.2.5,Win32,30.0003,61648e4f0d2212047ab36b27,64c47140896c8c63e34c6d2f,64c516019e4c42759cf487df,down,-1,0.75,0.3071,49,0,0.8758,,,,,,167,0,167,0,1,,,,,
,,466184,001,2023-07-29_15h41.24.237,arm3_eps,2022.2.5,Win32,30.0003,61648e4f0d2212047ab36b27,64c47140896c8c63e34c6d2f,64c516019e4c42759cf487df,down,-1,0.75,0.3071,49,0,1.8234,,,,,,168,0,168,0,1,,,,,
,,466184,001,2023-07-29_15h41.24.237,arm3_eps,2022.2.5,Win32,30.0003,61648e4f0d2212047ab36b27,64c47140896c8c63e34c6d2f,64c516019e4c42759cf487df,down,-1,0.75,0.3071,50,0,1.3089,,,,,,169,0,169,0,1,,,,,
,,466184,001,2023-07-29_15h41.24.237,arm3_eps,2022.2.5,Win32,30.0003,61648e4f0d2212047ab36b27,64c47140896c8c63e34c6d2f,64c516019e4c42759cf487df,right,-1,0.75,0.3071,50,-0.000207223,1.1981,,,,,,170,0,170,0,1,,,,,
,,466184,001,2023-07-29_15h41.24.237,arm3_eps,2022.2.5,Win32,30.0003,61648e4f0d2212047ab36b27,64c47140896c8c63e34c6d2f,64c516019e4c42759cf487df,down,-1,0.75,0.3071,51,0,0.6588,,,,,,171,0,171,0,1,,,,,
,,466184,001,2023-07-29_15h41.24.237,arm3_eps,2022.2.5,Win32,30.0003,61648e4f0d2212047ab36b27,64c47140896c8c63e34c6d2f,64c516019e4c42759cf487df,down,-1,0.75,0.3071,52,0,2.324,,,,,,172,0,172,0,1,,,,,
,,466184,001,2023-07-29_15h41.24.237,arm3_eps,2022.2.5,Win32,30.0003,61648e4f0d2212047ab36b27,64c47140896c8c63e34c6d2f,64c516019e4c42759cf487df,down,-1,0.75,0.3071,53,0,1.2209,,,,,,173,0,173,0,1,,,,,
,,466184,001,2023-07-29_15h41.24.237,arm3_eps,2022.2.5,Win32,30.0003,61648e4f0d2212047ab36b27,64c47140896c8c63e34c6d2f,64c516019e4c42759cf487df,down,-1,0.75,0.3071,54,0,1.175,,,,,,174,0,174,0,1,,,,,
,,466184,001,2023-07-29_15h41.24.237,arm3_eps,2022.2.5,Win32,30.0003,61648e4f0d2212047ab36b27,64c47140896c8c63e34c6d2f,64c516019e4c42759cf487df,down,1,0.75,0.3071,55,0,1.165,,,,,,175,0,175,0,1,,,,,
,,466184,001,2023-07-29_15h41.24.237,arm3_eps,2022.2.5,Win32,30.0003,61648e4f0d2212047ab36b27,64c47140896c8c63e34c6d2f,64c516019e4c42759cf487df,up,1,0.75,0.3071,55,0,1.6284,,,,,,176,0,176,0,1,,,,,
,,466184,001,2023-07-29_15h41.24.237,arm3_eps,2022.2.5,Win32,30.0003,61648e4f0d2212047ab36b27,64c47140896c8c63e34c6d2f,64c516019e4c42759cf487df,up,1,0.75,0.3071,56,0,1.7265,,,,,,177,0,177,0,1,,,,,
,,466184,001,2023-07-29_15h41.24.237,arm3_eps,2022.2.5,Win32,30.0003,61648e4f0d2212047ab36b27,64c47140896c8c63e34c6d2f,64c516019e4c42759cf487df,up,1,0.75,0.3071,57,0,1.1908,,,,,,178,0,178,0,1,,,,,
,,466184,001,2023-07-29_15h41.24.237,arm3_eps,2022.2.5,Win32,30.0003,61648e4f0d2212047ab36b27,64c47140896c8c63e34c6d2f,64c516019e4c42759cf487df,down,-1,0.75,0.3071,56,0,1.1758,,,,,,179,0,179,0,1,,,,,
,,466184,001,2023-07-29_15h41.24.237,arm3_eps,2022.2.5,Win32,30.0003,61648e4f0d2212047ab36b27,64c47140896c8c63e34c6d2f,64c516019e4c42759cf487df,down,-1,0.75,0.3071,57,0,1.7988,,,,,,180,0,180,0,1,,,,,
,,466184,001,2023-07-29_15h41.24.237,arm3_eps,2022.2.5,Win32,30.0003,61648e4f0d2212047ab36b27,64c47140896c8c63e34c6d2f,64c516019e4c42759cf487df,down,-1,0.75,0.3071,57,0,1.3214,,,,,,181,0,181,0,1,,,,,
,,466184,001,2023-07-29_15h41.24.237,arm3_eps,2022.2.5,Win32,30.0003,61648e4f0d2212047ab36b27,64c47140896c8c63e34c6d2f,64c516019e4c42759cf487df,down,1,0.75,0.3071,57,0,1.3332,,,,,,182,0,182,0,1,,,,,
,,466184,001,2023-07-29_15h41.24.237,arm3_eps,2022.2.5,Win32,30.0003,61648e4f0d2212047ab36b27,64c47140896c8c63e34c6d2f,64c516019e4c42759cf487df,up,1,0.75,0.3071,57,0,1.4238,,,,,,183,0,183,0,1,,,,,
,,466184,001,2023-07-29_15h41.24.237,arm3_eps,2022.2.5,Win32,30.0003,61648e4f0d2212047ab36b27,64c47140896c8c63e34c6d2f,64c516019e4c42759cf487df,down,1,0.75,0.3071,57,0,1.2172,,,,,,184,0,184,0,1,,,,,
,,466184,001,2023-07-29_15h41.24.237,arm3_eps,2022.2.5,Win32,30.0003,61648e4f0d2212047ab36b27,64c47140896c8c63e34c6d2f,64c516019e4c42759cf487df,up,-1,0.75,0.3071,58,0,1.0406,,,,,,185,0,185,0,1,,,,,
,,466184,001,2023-07-29_15h41.24.237,arm3_eps,2022.2.5,Win32,30.0003,61648e4f0d2212047ab36b27,64c47140896c8c63e34c6d2f,64c516019e4c42759cf487df,up,-1,0.75,0.3071,57,0,1.3068,,,,,,186,0,186,0,1,,,,,
,,466184,001,2023-07-29_15h41.24.237,arm3_eps,2022.2.5,Win32,30.0003,61648e4f0d2212047ab36b27,64c47140896c8c63e34c6d2f,64c516019e4c42759cf487df,right,-1,0.75,0.3071,57,0.001054909,1.4565,,,,,,187,0,187,0,1,,,,,
,,466184,001,2023-07-29_15h41.24.237,arm3_eps,2022.2.5,Win32,30.0003,61648e4f0d2212047ab36b27,64c47140896c8c63e34c6d2f,64c516019e4c42759cf487df,right,-1,0.75,0.3071,57,-0.002174114,0.4723,,,,,,188,0,188,0,1,,,,,
,,466184,001,2023-07-29_15h41.24.237,arm3_eps,2022.2.5,Win32,30.0003,61648e4f0d2212047ab36b27,64c47140896c8c63e34c6d2f,64c516019e4c42759cf487df,up,-1,0.75,0.3071,57,0,1.3962,,,,,,189,0,189,0,1,,,,,
,,466184,001,2023-07-29_15h41.24.237,arm3_eps,2022.2.5,Win32,30.0003,61648e4f0d2212047ab36b27,64c47140896c8c63e34c6d2f,64c516019e4c42759cf487df,down,1,0.75,0.3071,57,0,0.9939,,,,,,190,0,190,0,1,,,,,
,,466184,001,2023-07-29_15h41.24.237,arm3_eps,2022.2.5,Win32,30.0003,61648e4f0d2212047ab36b27,64c47140896c8c63e34c6d2f,64c516019e4c42759cf487df,up,-1,0.75,0.3071,58,0,1.1644,,,,,,191,0,191,0,1,,,,,
,,466184,001,2023-07-29_15h41.24.237,arm3_eps,2022.2.5,Win32,30.0003,61648e4f0d2212047ab36b27,64c47140896c8c63e34c6d2f,64c516019e4c42759cf487df,down,1,0.75,0.3071,58,0,1.2792,,,,,,192,0,192,0,1,,,,,
,,466184,001,2023-07-29_15h41.24.237,arm3_eps,2022.2.5,Win32,30.0003,61648e4f0d2212047ab36b27,64c47140896c8c63e34c6d2f,64c516019e4c42759cf487df,up,1,0.75,0.3071,59,0,1.9103,,,,,,193,0,193,0,1,,,,,
,,466184,001,2023-07-29_15h41.24.237,arm3_eps,2022.2.5,Win32,30.0003,61648e4f0d2212047ab36b27,64c47140896c8c63e34c6d2f,64c516019e4c42759cf487df,up,-1,0.75,0.3071,60,0,1.6236,,,,,,194,0,194,0,1,,,,,
,,466184,001,2023-07-29_15h41.24.237,arm3_eps,2022.2.5,Win32,30.0003,61648e4f0d2212047ab36b27,64c47140896c8c63e34c6d2f,64c516019e4c42759cf487df,down,-1,0.75,0.3071,60,0,1.4883,,,,,,195,0,195,0,1,,,,,
,,466184,001,2023-07-29_15h41.24.237,arm3_eps,2022.2.5,Win32,30.0003,61648e4f0d2212047ab36b27,64c47140896c8c63e34c6d2f,64c516019e4c42759cf487df,down,-1,0.75,0.3071,61,0,1.207,,,,,,196,0,196,0,1,,,,,
,,466184,001,2023-07-29_15h41.24.237,arm3_eps,2022.2.5,Win32,30.0003,61648e4f0d2212047ab36b27,64c47140896c8c63e34c6d2f,64c516019e4c42759cf487df,down,-1,0.75,0.3071,62,0,1.4423,,,,,,197,0,197,0,1,,,,,
,,466184,001,2023-07-29_15h41.24.237,arm3_eps,2022.2.5,Win32,30.0003,61648e4f0d2212047ab36b27,64c47140896c8c63e34c6d2f,64c516019e4c42759cf487df,down,-1,0.75,0.3071,63,0,1.6726,,,,,,198,0,198,0,1,,,,,
,,466184,001,2023-07-29_15h41.24.237,arm3_eps,2022.2.5,Win32,30.0003,61648e4f0d2212047ab36b27,64c47140896c8c63e34c6d2f,64c516019e4c42759cf487df,down,-1,0.75,0.3071,64,0,1.9093,,,,,,199,0,199,0,1,,,,,
,,466184,001,2023-07-29_15h41.24.237,arm3_eps,2022.2.5,Win32,30.0003,61648e4f0d2212047ab36b27,64c47140896c8c63e34c6d2f,64c516019e4c42759cf487df,down,1,0.75,0.3071,65,0,3.2279,,,,,,200,0,200,0,1,,,,,
,,466184,001,2023-07-29_15h41.24.237,arm3_eps,2022.2.5,Win32,30.0003,61648e4f0d2212047ab36b27,64c47140896c8c63e34c6d2f,64c516019e4c42759cf487df,up,1,0.75,0.3071,66,0,2.67,,,,,,201,0,201,0,1,,,,,
,,466184,001,2023-07-29_15h41.24.237,arm3_eps,2022.2.5,Win32,30.0003,61648e4f0d2212047ab36b27,64c47140896c8c63e34c6d2f,64c516019e4c42759cf487df,up,1,0.75,0.3071,67,0,1.4107,,,,,,202,0,202,0,1,,,,,
,,466184,001,2023-07-29_15h41.24.237,arm3_eps,2022.2.5,Win32,30.0003,61648e4f0d2212047ab36b27,64c47140896c8c63e34c6d2f,64c516019e4c42759cf487df,up,1,0.75,0.3071,68,0,1.5716,,,,,,203,0,203,0,1,,,,,
,,466184,001,2023-07-29_15h41.24.237,arm3_eps,2022.2.5,Win32,30.0003,61648e4f0d2212047ab36b27,64c47140896c8c63e34c6d2f,64c516019e4c42759cf487df,up,1,0.75,0.3071,68,0,1.7999,,,,,,204,0,204,0,1,,,,,
,,466184,001,2023-07-29_15h41.24.237,arm3_eps,2022.2.5,Win32,30.0003,61648e4f0d2212047ab36b27,64c47140896c8c63e34c6d2f,64c516019e4c42759cf487df,up,-1,0.75,0.3071,69,0,1.2619,,,,,,205,0,205,0,1,,,,,
,,466184,001,2023-07-29_15h41.24.237,arm3_eps,2022.2.5,Win32,30.0003,61648e4f0d2212047ab36b27,64c47140896c8c63e34c6d2f,64c516019e4c42759cf487df,up,-1,0.75,0.3071,68,0,2.0971,,,,,,206,0,206,0,1,,,,,
,,466184,001,2023-07-29_15h41.24.237,arm3_eps,2022.2.5,Win32,30.0003,61648e4f0d2212047ab36b27,64c47140896c8c63e34c6d2f,64c516019e4c42759cf487df,down,1,0.75,0.3071,69,0,1.4559,,,,,,207,0,207,0,1,,,,,
,,466184,001,2023-07-29_15h41.24.237,arm3_eps,2022.2.5,Win32,30.0003,61648e4f0d2212047ab36b27,64c47140896c8c63e34c6d2f,64c516019e4c42759cf487df,down,1,0.75,0.3071,69,0,1.2599,,,,,,208,0,208,0,1,,,,,
,,466184,001,2023-07-29_15h41.24.237,arm3_eps,2022.2.5,Win32,30.0003,61648e4f0d2212047ab36b27,64c47140896c8c63e34c6d2f,64c516019e4c42759cf487df,up,-1,0.75,0.3071,70,0,1.1213,,,,,,209,0,209,0,1,,,,,
,,466184,001,2023-07-29_15h41.24.237,arm3_eps,2022.2.5,Win32,30.0003,61648e4f0d2212047ab36b27,64c47140896c8c63e34c6d2f,64c516019e4c42759cf487df,up,1,0.75,0.3071,69,0,2.7402,,,,,,210,0,210,0,1,,,,,
,,466184,001,2023-07-29_15h41.24.237,arm3_eps,2022.2.5,Win32,30.0003,61648e4f0d2212047ab36b27,64c47140896c8c63e34c6d2f,64c516019e4c42759cf487df,down,1,0.75,0.3071,68,0,0.8646,,,,,,211,0,211,0,1,,,,,
,,466184,001,2023-07-29_15h41.24.237,arm3_eps,2022.2.5,Win32,30.0003,61648e4f0d2212047ab36b27,64c47140896c8c63e34c6d2f,64c516019e4c42759cf487df,up,1,0.75,0.3071,69,0,1.2699,,,,,,212,0,212,0,1,,,,,
,,466184,001,2023-07-29_15h41.24.237,arm3_eps,2022.2.5,Win32,30.0003,61648e4f0d2212047ab36b27,64c47140896c8c63e34c6d2f,64c516019e4c42759cf487df,up,1,0.75,0.3071,70,0,2.0866,,,,,,213,0,213,0,1,,,,,
,,466184,001,2023-07-29_15h41.24.237,arm3_eps,2022.2.5,Win32,30.0003,61648e4f0d2212047ab36b27,64c47140896c8c63e34c6d2f,64c516019e4c42759cf487df,up,1,0.75,0.3071,71,0,1.7954,,,,,,214,0,214,0,1,,,,,
,,466184,001,2023-07-29_15h41.24.237,arm3_eps,2022.2.5,Win32,30.0003,61648e4f0d2212047ab36b27,64c47140896c8c63e34c6d2f,64c516019e4c42759cf487df,up,1,0.75,0.3071,72,0,1.4293,,,,,,215,0,215,0,1,,,,,
,,466184,001,2023-07-29_15h41.24.237,arm3_eps,2022.2.5,Win32,30.0003,61648e4f0d2212047ab36b27,64c47140896c8c63e34c6d2f,64c516019e4c42759cf487df,up,-1,0.75,0.3071,73,0,2.1956,,,,,,216,0,216,0,1,,,,,
,,466184,001,2023-07-29_15h41.24.237,arm3_eps,2022.2.5,Win32,30.0003,61648e4f0d2212047ab36b27,64c47140896c8c63e34c6d2f,64c516019e4c42759cf487df,down,1,0.75,0.3071,74,0,1.4188,,,,,,217,0,217,0,1,,,,,
,,466184,001,2023-07-29_15h41.24.237,arm3_eps,2022.2.5,Win32,30.0003,61648e4f0d2212047ab36b27,64c47140896c8c63e34c6d2f,64c516019e4c42759cf487df,down,-1,0.75,0.3071,74,0,2.2801,,,,,,218,0,218,0,1,,,,,
,,466184,001,2023-07-29_15h41.24.237,arm3_eps,2022.2.5,Win32,30.0003,61648e4f0d2212047ab36b27,64c47140896c8c63e34c6d2f,64c516019e4c42759cf487df,down,1,0.75,0.3071,74,0,1.1451,,,,,,219,0,219,0,1,,,,,
,,466184,001,2023-07-29_15h41.24.237,arm3_eps,2022.2.5,Win32,30.0003,61648e4f0d2212047ab36b27,64c47140896c8c63e34c6d2f,64c516019e4c42759cf487df,down,1,0.75,0.3071,73,0,1.1791,,,,,,220,0,220,0,1,,,,,
,,466184,001,2023-07-29_15h41.24.237,arm3_eps,2022.2.5,Win32,30.0003,61648e4f0d2212047ab36b27,64c47140896c8c63e34c6d2f,64c516019e4c42759cf487df,down,1,0.75,0.3071,73,0,1.2814,,,,,,221,0,221,0,1,,,,,
,,466184,001,2023-07-29_15h41.24.237,arm3_eps,2022.2.5,Win32,30.0003,61648e4f0d2212047ab36b27,64c47140896c8c63e34c6d2f,64c516019e4c42759cf487df,up,1,0.75,0.3071,74,0,1.6099,,,,,,222,0,222,0,1,,,,,
,,466184,001,2023-07-29_15h41.24.237,arm3_eps,2022.2.5,Win32,30.0003,61648e4f0d2212047ab36b27,64c47140896c8c63e34c6d2f,64c516019e4c42759cf487df,down,1,0.75,0.3071,74,0,2.1621,,,,,,223,0,223,0,1,,,,,
,,466184,001,2023-07-29_15h41.24.237,arm3_eps,2022.2.5,Win32,30.0003,61648e4f0d2212047ab36b27,64c47140896c8c63e34c6d2f,64c516019e4c42759cf487df,down,1,0.75,0.3071,73,0,1.3971,,,,,,224,0,224,0,1,,,,,
,,466184,001,2023-07-29_15h41.24.237,arm3_eps,2022.2.5,Win32,30.0003,61648e4f0d2212047ab36b27,64c47140896c8c63e34c6d2f,64c516019e4c42759cf487df,down,1,0.75,0.3071,72,0,1.6827,,,,,,225,0,225,0,1,,,,,
,,466184,001,2023-07-29_15h41.24.237,arm3_eps,2022.2.5,Win32,30.0003,61648e4f0d2212047ab36b27,64c47140896c8c63e34c6d2f,64c516019e4c42759cf487df,up,1,0.75,0.3071,73,0,1.2098,,,,,,226,0,226,0,1,,,,,
,,466184,001,2023-07-29_15h41.24.237,arm3_eps,2022.2.5,Win32,30.0003,61648e4f0d2212047ab36b27,64c47140896c8c63e34c6d2f,64c516019e4c42759cf487df,up,-1,0.75,0.3071,74,0,1.917,,,,,,227,0,227,0,1,,,,,
,,466184,001,2023-07-29_15h41.24.237,arm3_eps,2022.2.5,Win32,30.0003,61648e4f0d2212047ab36b27,64c47140896c8c63e34c6d2f,64c516019e4c42759cf487df,up,1,0.75,0.3071,73,0,1.3204,,,,,,228,0,228,0,1,,,,,
,,466184,001,2023-07-29_15h41.24.237,arm3_eps,2022.2.5,Win32,30.0003,61648e4f0d2212047ab36b27,64c47140896c8c63e34c6d2f,64c516019e4c42759cf487df,up,1,0.75,0.3071,73,0,1.5482,,,,,,229,0,229,0,1,,,,,
,,466184,001,2023-07-29_15h41.24.237,arm3_eps,2022.2.5,Win32,30.0003,61648e4f0d2212047ab36b27,64c47140896c8c63e34c6d2f,64c516019e4c42759cf487df,up,1,0.75,0.3071,73,0,1.1224,,,,,,230,0,230,0,1,,,,,
,,466184,001,2023-07-29_15h41.24.237,arm3_eps,2022.2.5,Win32,30.0003,61648e4f0d2212047ab36b27,64c47140896c8c63e34c6d2f,64c516019e4c42759cf487df,up,1,0.75,0.3071,74,0,1.1755,,,,,,231,0,231,0,1,,,,,
,,466184,001,2023-07-29_15h41.24.237,arm3_eps,2022.2.5,Win32,30.0003,61648e4f0d2212047ab36b27,64c47140896c8c63e34c6d2f,64c516019e4c42759cf487df,up,1,0.75,0.3071,75,0,1.4329,,,,,,232,0,232,0,1,,,,,
,,466184,001,2023-07-29_15h41.24.237,arm3_eps,2022.2.5,Win32,30.0003,61648e4f0d2212047ab36b27,64c47140896c8c63e34c6d2f,64c516019e4c42759cf487df,down,1,0.75,0.3071,75,0,1.2539,,,,,,233,0,233,0,1,,,,,
,,466184,001,2023-07-29_15h41.24.237,arm3_eps,2022.2.5,Win32,30.0003,61648e4f0d2212047ab36b27,64c47140896c8c63e34c6d2f,64c516019e4c42759cf487df,down,1,0.75,0.3071,74,0,1.1411,,,,,,234,0,234,0,1,,,,,
,,466184,001,2023-07-29_15h41.24.237,arm3_eps,2022.2.5,Win32,30.0003,61648e4f0d2212047ab36b27,64c47140896c8c63e34c6d2f,64c516019e4c42759cf487df,up,-1,0.75,0.3071,75,0,1.7565,,,,,,235,0,235,0,1,,,,,
,,466184,001,2023-07-29_15h41.24.237,arm3_eps,2022.2.5,Win32,30.0003,61648e4f0d2212047ab36b27,64c47140896c8c63e34c6d2f,64c516019e4c42759cf487df,up,1,0.75,0.3071,75,0,1.9838,,,,,,236,0,236,0,1,,,,,
,,466184,001,2023-07-29_15h41.24.237,arm3_eps,2022.2.5,Win32,30.0003,61648e4f0d2212047ab36b27,64c47140896c8c63e34c6d2f,64c516019e4c42759cf487df,up,-1,0.75,0.3071,76,0,1.2067,,,,,,237,0,237,0,1,,,,,
,,466184,001,2023-07-29_15h41.24.237,arm3_eps,2022.2.5,Win32,30.0003,61648e4f0d2212047ab36b27,64c47140896c8c63e34c6d2f,64c516019e4c42759cf487df,down,1,0.75,0.3071,77,0,1.5694,,,,,,238,0,238,0,1,,,,,
,,466184,001,2023-07-29_15h41.24.237,arm3_eps,2022.2.5,Win32,30.0003,61648e4f0d2212047ab36b27,64c47140896c8c63e34c6d2f,64c516019e4c42759cf487df,down,-1,0.75,0.3071,76,0,1.7434,,,,,,239,0,239,0,1,,,,,
,,466184,001,2023-07-29_15h41.24.237,arm3_eps,2022.2.5,Win32,30.0003,61648e4f0d2212047ab36b27,64c47140896c8c63e34c6d2f,64c516019e4c42759cf487df,up,-1,0.75,0.3071,75,0,1.3017,,,,,,240,0,240,0,1,,,,,
,,466184,001,2023-07-29_15h41.24.237,arm3_eps,2022.2.5,Win32,30.0003,61648e4f0d2212047ab36b27,64c47140896c8c63e34c6d2f,64c516019e4c42759cf487df,down,-1,0.75,0.3071,75,0,1.2243,,,,,,241,0,241,0,1,,,,,
,,466184,001,2023-07-29_15h41.24.237,arm3_eps,2022.2.5,Win32,30.0003,61648e4f0d2212047ab36b27,64c47140896c8c63e34c6d2f,64c516019e4c42759cf487df,down,-1,0.75,0.3071,75,0,8.2243,,,,,,242,0,242,0,1,,,,,
,,466184,001,2023-07-29_15h41.24.237,arm3_eps,2022.2.5,Win32,30.0003,61648e4f0d2212047ab36b27,64c47140896c8c63e34c6d2f,64c516019e4c42759cf487df,down,-1,0.75,0.3071,76,0,0.9925,,,,,,243,0,243,0,1,,,,,
,,466184,001,2023-07-29_15h41.24.237,arm3_eps,2022.2.5,Win32,30.0003,61648e4f0d2212047ab36b27,64c47140896c8c63e34c6d2f,64c516019e4c42759cf487df,down,-1,0.75,0.3071,76,0,1.2257,,,,,,244,0,244,0,1,,,,,
,,466184,001,2023-07-29_15h41.24.237,arm3_eps,2022.2.5,Win32,30.0003,61648e4f0d2212047ab36b27,64c47140896c8c63e34c6d2f,64c516019e4c42759cf487df,down,1,0.75,0.3071,77,0,1.4583,,,,,,245,0,245,0,1,,,,,
,,466184,001,2023-07-29_15h41.24.237,arm3_eps,2022.2.5,Win32,30.0003,61648e4f0d2212047ab36b27,64c47140896c8c63e34c6d2f,64c516019e4c42759cf487df,up,1,0.75,0.3071,78,0,1.5726,,,,,,246,0,246,0,1,,,,,
,,466184,001,2023-07-29_15h41.24.237,arm3_eps,2022.2.5,Win32,30.0003,61648e4f0d2212047ab36b27,64c47140896c8c63e34c6d2f,64c516019e4c42759cf487df,up,1,0.75,0.3071,79,0,1.4632,,,,,,247,0,247,0,1,,,,,
,,466184,001,2023-07-29_15h41.24.237,arm3_eps,2022.2.5,Win32,30.0003,61648e4f0d2212047ab36b27,64c47140896c8c63e34c6d2f,64c516019e4c42759cf487df,down,1,0.75,0.3071,78,0,2.3724,,,,,,248,0,248,0,1,,,,,
,,466184,001,2023-07-29_15h41.24.237,arm3_eps,2022.2.5,Win32,30.0003,61648e4f0d2212047ab36b27,64c47140896c8c63e34c6d2f,64c516019e4c42759cf487df,up,1,0.75,0.3071,79,0,1.9259,,,,,,249,0,249,0,1,,,,,
,,466184,001,2023-07-29_15h41.24.237,arm3_eps,2022.2.5,Win32,30.0003,61648e4f0d2212047ab36b27,64c47140896c8c63e34c6d2f,64c516019e4c42759cf487df,down,-1,0.75,0.3071,78,0,2.0421,,,,,,250,0,250,0,1,,,,,
,,466184,001,2023-07-29_15h41.24.237,arm3_eps,2022.2.5,Win32,30.0003,61648e4f0d2212047ab36b27,64c47140896c8c63e34c6d2f,64c516019e4c42759cf487df,up,1,0.75,0.3071,77,0,1.0797,,,,,,251,0,251,0,1,,,,,
,,466184,001,2023-07-29_15h41.24.237,arm3_eps,2022.2.5,Win32,30.0003,61648e4f0d2212047ab36b27,64c47140896c8c63e34c6d2f,64c516019e4c42759cf487df,down,-1,0.75,0.3071,76,0,1.1536,,,,,,252,0,252,0,1,,,,,
,,466184,001,2023-07-29_15h41.24.237,arm3_eps,2022.2.5,Win32,30.0003,61648e4f0d2212047ab36b27,64c47140896c8c63e34c6d2f,64c516019e4c42759cf487df,up,-1,0.75,0.3071,75,0,1.1448,,,,,,253,0,253,0,1,,,,,
,,466184,001,2023-07-29_15h41.24.237,arm3_eps,2022.2.5,Win32,30.0003,61648e4f0d2212047ab36b27,64c47140896c8c63e34c6d2f,64c516019e4c42759cf487df,up,-1,0.75,0.3071,74,0,1.3223,,,,,,254,0,254,0,1,,,,,
,,466184,001,2023-07-29_15h41.24.237,arm3_eps,2022.2.5,Win32,30.0003,61648e4f0d2212047ab36b27,64c47140896c8c63e34c6d2f,64c516019e4c42759cf487df,up,-1,0.75,0.3071,73,0,2.0407,,,,,,255,0,255,0,1,,,,,
,,466184,001,2023-07-29_15h41.24.237,arm3_eps,2022.2.5,Win32,30.0003,61648e4f0d2212047ab36b27,64c47140896c8c63e34c6d2f,64c516019e4c42759cf487df,up,-1,0.75,0.3071,72,0,1.9984,,,,,,256,0,256,0,1,,,,,
,,466184,001,2023-07-29_15h41.24.237,arm3_eps,2022.2.5,Win32,30.0003,61648e4f0d2212047ab36b27,64c47140896c8c63e34c6d2f,64c516019e4c42759cf487df,down,1,0.75,0.3071,73,0,0.879,,,,,,257,0,257,0,1,,,,,
,,466184,001,2023-07-29_15h41.24.237,arm3_eps,2022.2.5,Win32,30.0003,61648e4f0d2212047ab36b27,64c47140896c8c63e34c6d2f,64c516019e4c42759cf487df,up,-1,0.75,0.3071,74,0,1.7106,,,,,,258,0,258,0,1,,,,,
,,466184,001,2023-07-29_15h41.24.237,arm3_eps,2022.2.5,Win32,30.0003,61648e4f0d2212047ab36b27,64c47140896c8c63e34c6d2f,64c516019e4c42759cf487df,down,-1,0.75,0.3071,75,0,1.3403,,,,,,259,0,259,0,1,,,,,
,,466184,001,2023-07-29_15h41.24.237,arm3_eps,2022.2.5,Win32,30.0003,61648e4f0d2212047ab36b27,64c47140896c8c63e34c6d2f,64c516019e4c42759cf487df,down,-1,0.75,0.3071,76,0,1.2949,,,,,,260,0,260,0,1,,,,,
,,466184,001,2023-07-29_15h41.24.237,arm3_eps,2022.2.5,Win32,30.0003,61648e4f0d2212047ab36b27,64c47140896c8c63e34c6d2f,64c516019e4c42759cf487df,down,-1,0.75,0.3071,77,0,1.7728,,,,,,261,0,261,0,1,,,,,
,,466184,001,2023-07-29_15h41.24.237,arm3_eps,2022.2.5,Win32,30.0003,61648e4f0d2212047ab36b27,64c47140896c8c63e34c6d2f,64c516019e4c42759cf487df,down,1,0.75,0.3071,78,0,1.1569,,,,,,262,0,262,0,1,,,,,
,,466184,001,2023-07-29_15h41.24.237,arm3_eps,2022.2.5,Win32,30.0003,61648e4f0d2212047ab36b27,64c47140896c8c63e34c6d2f,64c516019e4c42759cf487df,up,1,0.75,0.3071,78,0,1.7667,,,,,,263,0,263,0,1,,,,,
,,466184,001,2023-07-29_15h41.24.237,arm3_eps,2022.2.5,Win32,30.0003,61648e4f0d2212047ab36b27,64c47140896c8c63e34c6d2f,64c516019e4c42759cf487df,up,1,0.75,0.3071,78,0,1.366,,,,,,264,0,264,0,1,,,,,
,,466184,001,2023-07-29_15h41.24.237,arm3_eps,2022.2.5,Win32,30.0003,61648e4f0d2212047ab36b27,64c47140896c8c63e34c6d2f,64c516019e4c42759cf487df,up,1,0.75,0.3071,78,0,1.1817,,,,,,265,0,265,0,1,,,,,
,,466184,001,2023-07-29_15h41.24.237,arm3_eps,2022.2.5,Win32,30.0003,61648e4f0d2212047ab36b27,64c47140896c8c63e34c6d2f,64c516019e4c42759cf487df,up,1,0.75,0.3071,79,0,4.4321,,,,,,266,0,266,0,1,,,,,
,,466184,001,2023-07-29_15h41.24.237,arm3_eps,2022.2.5,Win32,30.0003,61648e4f0d2212047ab36b27,64c47140896c8c63e34c6d2f,64c516019e4c42759cf487df,up,1,0.75,0.3071,79,0,1.3683,,,,,,267,0,267,0,1,,,,,
,,466184,001,2023-07-29_15h41.24.237,arm3_eps,2022.2.5,Win32,30.0003,61648e4f0d2212047ab36b27,64c47140896c8c63e34c6d2f,64c516019e4c42759cf487df,up,1,0.75,0.3071,80,0,1.1335,,,,,,268,0,268,0,1,,,,,
,,466184,001,2023-07-29_15h41.24.237,arm3_eps,2022.2.5,Win32,30.0003,61648e4f0d2212047ab36b27,64c47140896c8c63e34c6d2f,64c516019e4c42759cf487df,up,1,0.75,0.3071,80,0,2.9005,,,,,,269,0,269,0,1,,,,,
,,466184,001,2023-07-29_15h41.24.237,arm3_eps,2022.2.5,Win32,30.0003,61648e4f0d2212047ab36b27,64c47140896c8c63e34c6d2f,64c516019e4c42759cf487df,down,1,0.75,0.3071,79,0,2.1531,,,,,,270,0,270,0,1,,,,,
,,466184,001,2023-07-29_15h41.24.237,arm3_eps,2022.2.5,Win32,30.0003,61648e4f0d2212047ab36b27,64c47140896c8c63e34c6d2f,64c516019e4c42759cf487df,up,-1,0.75,0.3071,80,0,1.2547,,,,,,271,0,271,0,1,,,,,
,,466184,001,2023-07-29_15h41.24.237,arm3_eps,2022.2.5,Win32,30.0003,61648e4f0d2212047ab36b27,64c47140896c8c63e34c6d2f,64c516019e4c42759cf487df,down,1,0.75,0.3071,81,0,1.6721,,,,,,272,0,272,0,1,,,,,
,,466184,001,2023-07-29_15h41.24.237,arm3_eps,2022.2.5,Win32,30.0003,61648e4f0d2212047ab36b27,64c47140896c8c63e34c6d2f,64c516019e4c42759cf487df,up,-1,0.75,0.3071,82,0,1.2951,,,,,,273,0,273,0,1,,,,,
,,466184,001,2023-07-29_15h41.24.237,arm3_eps,2022.2.5,Win32,30.0003,61648e4f0d2212047ab36b27,64c47140896c8c63e34c6d2f,64c516019e4c42759cf487df,down,-1,0.75,0.3071,82,0,1.2936,,,,,,274,0,274,0,1,,,,,
,,466184,001,2023-07-29_15h41.24.237,arm3_eps,2022.2.5,Win32,30.0003,61648e4f0d2212047ab36b27,64c47140896c8c63e34c6d2f,64c516019e4c42759cf487df,up,-1,0.75,0.3071,82,0,1.3144,,,,,,275,0,275,0,1,,,,,
,,466184,001,2023-07-29_15h41.24.237,arm3_eps,2022.2.5,Win32,30.0003,61648e4f0d2212047ab36b27,64c47140896c8c63e34c6d2f,64c516019e4c42759cf487df,up,1,0.75,0.3071,81,0,1.9624,,,,,,276,0,276,0,1,,,,,
,,466184,001,2023-07-29_15h41.24.237,arm3_eps,2022.2.5,Win32,30.0003,61648e4f0d2212047ab36b27,64c47140896c8c63e34c6d2f,64c516019e4c42759cf487df,up,1,0.75,0.3071,82,0,5.255,,,,,,277,0,277,0,1,,,,,
,,466184,001,2023-07-29_15h41.24.237,arm3_eps,2022.2.5,Win32,30.0003,61648e4f0d2212047ab36b27,64c47140896c8c63e34c6d2f,64c516019e4c42759cf487df,down,1,0.75,0.3071,82,0,1.5685,,,,,,278,0,278,0,1,,,,,
,,466184,001,2023-07-29_15h41.24.237,arm3_eps,2022.2.5,Win32,30.0003,61648e4f0d2212047ab36b27,64c47140896c8c63e34c6d2f,64c516019e4c42759cf487df,up,1,0.75,0.3071,83,0,1.8276,,,,,,279,0,279,0,1,,,,,
