space_bar.keys,space_bar.rt,participant,session,date,expName,psychopyVersion,OS,frameRate,PROLIFIC_PID,STUDY_ID,SESSION_ID,resp.keys,state,q_prob,eps_prob,score,price,resp.rt,train.thisRepN,train.thisTrialN,train.thisN,train.thisIndex,train.ran,steps.thisRepN,steps.thisTrialN,steps.thisN,steps.thisIndex,steps.ran,blocks.thisRepN,blocks.thisTrialN,blocks.thisN,blocks.thisIndex,blocks.ran
space,12.4891,468679,001,2023-07-31_19h43.33.337,arm3_eps,2022.2.5,MacIntel,59.99880002,5f466020c3a053038da47399,64c7fed44a04f777bb1e18ce,64c8008322ff95f1f4a277bb,,,,,,,,,,,,,,,,,,,,,,
space,1.2426,468679,001,2023-07-31_19h43.33.337,arm3_eps,2022.2.5,MacIntel,59.99880002,5f466020c3a053038da47399,64c7fed44a04f777bb1e18ce,64c8008322ff95f1f4a277bb,,,,,,,,,,,,,,,,,,,,,,
space,10.9163,468679,001,2023-07-31_19h43.33.337,arm3_eps,2022.2.5,MacIntel,59.99880002,5f466020c3a053038da47399,64c7fed44a04f777bb1e18ce,64c8008322ff95f1f4a277bb,,,,,,,,,,,,,,,,,,,,,,
space,15.4172,468679,001,2023-07-31_19h43.33.337,arm3_eps,2022.2.5,MacIntel,59.99880002,5f466020c3a053038da47399,64c7fed44a04f777bb1e18ce,64c8008322ff95f1f4a277bb,,,,,,,,,,,,,,,,,,,,,,
space,10.4676,468679,001,2023-07-31_19h43.33.337,arm3_eps,2022.2.5,MacIntel,59.99880002,5f466020c3a053038da47399,64c7fed44a04f777bb1e18ce,64c8008322ff95f1f4a277bb,,,,,,,,,,,,,,,,,,,,,,
space,9.108,468679,001,2023-07-31_19h43.33.337,arm3_eps,2022.2.5,MacIntel,59.99880002,5f466020c3a053038da47399,64c7fed44a04f777bb1e18ce,64c8008322ff95f1f4a277bb,,,,,,,,,,,,,,,,,,,,,,
space,1.7151,468679,001,2023-07-31_19h43.33.337,arm3_eps,2022.2.5,MacIntel,59.99880002,5f466020c3a053038da47399,64c7fed44a04f777bb1e18ce,64c8008322ff95f1f4a277bb,,,,,,,,,,,,,,,,,,,,,,
,,468679,001,2023-07-31_19h43.33.337,arm3_eps,2022.2.5,MacIntel,59.99880002,5f466020c3a053038da47399,64c7fed44a04f777bb1e18ce,64c8008322ff95f1f4a277bb,right,-1,1,0.2429,0,0.001391037,1.8078,0,0,0,0,1,,,,,,,,,,
,,468679,001,2023-07-31_19h43.33.337,arm3_eps,2022.2.5,MacIntel,59.99880002,5f466020c3a053038da47399,64c7fed44a04f777bb1e18ce,64c8008322ff95f1f4a277bb,right,-1,1,0.2429,0,0.006906852,0.4542,1,0,1,0,1,,,,,,,,,,
,,468679,001,2023-07-31_19h43.33.337,arm3_eps,2022.2.5,MacIntel,59.99880002,5f466020c3a053038da47399,64c7fed44a04f777bb1e18ce,64c8008322ff95f1f4a277bb,right,-1,1,0.2429,0,-0.01771391,1.0304,2,0,2,0,1,,,,,,,,,,
,,468679,001,2023-07-31_19h43.33.337,arm3_eps,2022.2.5,MacIntel,59.99880002,5f466020c3a053038da47399,64c7fed44a04f777bb1e18ce,64c8008322ff95f1f4a277bb,right,-1,1,0.2429,0,-0.060491298,1.6359,3,0,3,0,1,,,,,,,,,,
,,468679,001,2023-07-31_19h43.33.337,arm3_eps,2022.2.5,MacIntel,59.99880002,5f466020c3a053038da47399,64c7fed44a04f777bb1e18ce,64c8008322ff95f1f4a277bb,right,-1,1,0.2429,0,-0.082914322,0.2698,4,0,4,0,1,,,,,,,,,,
,,468679,001,2023-07-31_19h43.33.337,arm3_eps,2022.2.5,MacIntel,59.99880002,5f466020c3a053038da47399,64c7fed44a04f777bb1e18ce,64c8008322ff95f1f4a277bb,right,-1,1,0.2429,0,-0.087543351,0.1712,5,0,5,0,1,,,,,,,,,,
,,468679,001,2023-07-31_19h43.33.337,arm3_eps,2022.2.5,MacIntel,59.99880002,5f466020c3a053038da47399,64c7fed44a04f777bb1e18ce,64c8008322ff95f1f4a277bb,down,-1,1,0.2429,1,0,1.4455,6,0,6,0,1,,,,,,,,,,
,,468679,001,2023-07-31_19h43.33.337,arm3_eps,2022.2.5,MacIntel,59.99880002,5f466020c3a053038da47399,64c7fed44a04f777bb1e18ce,64c8008322ff95f1f4a277bb,right,-1,1,0.2429,1,-0.004308193,1.2441,7,0,7,0,1,,,,,,,,,,
,,468679,001,2023-07-31_19h43.33.337,arm3_eps,2022.2.5,MacIntel,59.99880002,5f466020c3a053038da47399,64c7fed44a04f777bb1e18ce,64c8008322ff95f1f4a277bb,right,-1,1,0.2429,1,-0.014540823,0.3697,8,0,8,0,1,,,,,,,,,,
,,468679,001,2023-07-31_19h43.33.337,arm3_eps,2022.2.5,MacIntel,59.99880002,5f466020c3a053038da47399,64c7fed44a04f777bb1e18ce,64c8008322ff95f1f4a277bb,right,-1,1,0.2429,1,-0.044247498,0.2187,9,0,9,0,1,,,,,,,,,,
,,468679,001,2023-07-31_19h43.33.337,arm3_eps,2022.2.5,MacIntel,59.99880002,5f466020c3a053038da47399,64c7fed44a04f777bb1e18ce,64c8008322ff95f1f4a277bb,right,-1,1,0.2429,1,-0.054181095,0.2178,10,0,10,0,1,,,,,,,,,,
,,468679,001,2023-07-31_19h43.33.337,arm3_eps,2022.2.5,MacIntel,59.99880002,5f466020c3a053038da47399,64c7fed44a04f777bb1e18ce,64c8008322ff95f1f4a277bb,right,-1,1,0.2429,1,-0.082394017,0.3659,11,0,11,0,1,,,,,,,,,,
,,468679,001,2023-07-31_19h43.33.337,arm3_eps,2022.2.5,MacIntel,59.99880002,5f466020c3a053038da47399,64c7fed44a04f777bb1e18ce,64c8008322ff95f1f4a277bb,up,-1,1,0.2429,0,0,0.9732,12,0,12,0,1,,,,,,,,,,
,,468679,001,2023-07-31_19h43.33.337,arm3_eps,2022.2.5,MacIntel,59.99880002,5f466020c3a053038da47399,64c7fed44a04f777bb1e18ce,64c8008322ff95f1f4a277bb,right,-1,1,0.2429,0,0.006434808,1.4975,13,0,13,0,1,,,,,,,,,,
,,468679,001,2023-07-31_19h43.33.337,arm3_eps,2022.2.5,MacIntel,59.99880002,5f466020c3a053038da47399,64c7fed44a04f777bb1e18ce,64c8008322ff95f1f4a277bb,right,-1,1,0.2429,0,0.042984288,0.3215,14,0,14,0,1,,,,,,,,,,
,,468679,001,2023-07-31_19h43.33.337,arm3_eps,2022.2.5,MacIntel,59.99880002,5f466020c3a053038da47399,64c7fed44a04f777bb1e18ce,64c8008322ff95f1f4a277bb,right,-1,1,0.2429,0,-0.004615666,0.3859,15,0,15,0,1,,,,,,,,,,
,,468679,001,2023-07-31_19h43.33.337,arm3_eps,2022.2.5,MacIntel,59.99880002,5f466020c3a053038da47399,64c7fed44a04f777bb1e18ce,64c8008322ff95f1f4a277bb,right,-1,1,0.2429,0,-0.002032438,0.2365,16,0,16,0,1,,,,,,,,,,
,,468679,001,2023-07-31_19h43.33.337,arm3_eps,2022.2.5,MacIntel,59.99880002,5f466020c3a053038da47399,64c7fed44a04f777bb1e18ce,64c8008322ff95f1f4a277bb,right,-1,1,0.2429,0,-0.004045275,0.2173,17,0,17,0,1,,,,,,,,,,
,,468679,001,2023-07-31_19h43.33.337,arm3_eps,2022.2.5,MacIntel,59.99880002,5f466020c3a053038da47399,64c7fed44a04f777bb1e18ce,64c8008322ff95f1f4a277bb,right,-1,1,0.2429,0,-0.001868601,0.2042,18,0,18,0,1,,,,,,,,,,
,,468679,001,2023-07-31_19h43.33.337,arm3_eps,2022.2.5,MacIntel,59.99880002,5f466020c3a053038da47399,64c7fed44a04f777bb1e18ce,64c8008322ff95f1f4a277bb,right,-1,1,0.2429,0,0.013729329,0.568,19,0,19,0,1,,,,,,,,,,
,,468679,001,2023-07-31_19h43.33.337,arm3_eps,2022.2.5,MacIntel,59.99880002,5f466020c3a053038da47399,64c7fed44a04f777bb1e18ce,64c8008322ff95f1f4a277bb,up,-1,1,0.2429,-1,0,0.4403,20,0,20,0,1,,,,,,,,,,
,,468679,001,2023-07-31_19h43.33.337,arm3_eps,2022.2.5,MacIntel,59.99880002,5f466020c3a053038da47399,64c7fed44a04f777bb1e18ce,64c8008322ff95f1f4a277bb,right,-1,1,0.2429,-1,0.00571419,1.2649,21,0,21,0,1,,,,,,,,,,
,,468679,001,2023-07-31_19h43.33.337,arm3_eps,2022.2.5,MacIntel,59.99880002,5f466020c3a053038da47399,64c7fed44a04f777bb1e18ce,64c8008322ff95f1f4a277bb,right,-1,1,0.2429,-1,0.022452217,0.4165,22,0,22,0,1,,,,,,,,,,
,,468679,001,2023-07-31_19h43.33.337,arm3_eps,2022.2.5,MacIntel,59.99880002,5f466020c3a053038da47399,64c7fed44a04f777bb1e18ce,64c8008322ff95f1f4a277bb,right,-1,1,0.2429,-1,-0.006349149,0.3362,23,0,23,0,1,,,,,,,,,,
,,468679,001,2023-07-31_19h43.33.337,arm3_eps,2022.2.5,MacIntel,59.99880002,5f466020c3a053038da47399,64c7fed44a04f777bb1e18ce,64c8008322ff95f1f4a277bb,right,-1,1,0.2429,-1,0.007132017,0.3708,24,0,24,0,1,,,,,,,,,,
,,468679,001,2023-07-31_19h43.33.337,arm3_eps,2022.2.5,MacIntel,59.99880002,5f466020c3a053038da47399,64c7fed44a04f777bb1e18ce,64c8008322ff95f1f4a277bb,right,-1,1,0.2429,-1,-0.008366016,0.3572,25,0,25,0,1,,,,,,,,,,
,,468679,001,2023-07-31_19h43.33.337,arm3_eps,2022.2.5,MacIntel,59.99880002,5f466020c3a053038da47399,64c7fed44a04f777bb1e18ce,64c8008322ff95f1f4a277bb,right,-1,1,0.2429,-1,-0.026831938,0.373,26,0,26,0,1,,,,,,,,,,
,,468679,001,2023-07-31_19h43.33.337,arm3_eps,2022.2.5,MacIntel,59.99880002,5f466020c3a053038da47399,64c7fed44a04f777bb1e18ce,64c8008322ff95f1f4a277bb,right,-1,1,0.2429,-1,-0.060673047,0.3551,27,0,27,0,1,,,,,,,,,,
,,468679,001,2023-07-31_19h43.33.337,arm3_eps,2022.2.5,MacIntel,59.99880002,5f466020c3a053038da47399,64c7fed44a04f777bb1e18ce,64c8008322ff95f1f4a277bb,down,1,1,0.2429,0,0,0.4745,28,0,28,0,1,,,,,,,,,,
,,468679,001,2023-07-31_19h43.33.337,arm3_eps,2022.2.5,MacIntel,59.99880002,5f466020c3a053038da47399,64c7fed44a04f777bb1e18ce,64c8008322ff95f1f4a277bb,right,1,1,0.2429,0,-7.7609E-05,1.0809,29,0,29,0,1,,,,,,,,,,
,,468679,001,2023-07-31_19h43.33.337,arm3_eps,2022.2.5,MacIntel,59.99880002,5f466020c3a053038da47399,64c7fed44a04f777bb1e18ce,64c8008322ff95f1f4a277bb,right,1,1,0.2429,0,0.059991844,0.3851,30,0,30,0,1,,,,,,,,,,
,,468679,001,2023-07-31_19h43.33.337,arm3_eps,2022.2.5,MacIntel,59.99880002,5f466020c3a053038da47399,64c7fed44a04f777bb1e18ce,64c8008322ff95f1f4a277bb,right,1,1,0.2429,0,0.065861933,0.5213,31,0,31,0,1,,,,,,,,,,
,,468679,001,2023-07-31_19h43.33.337,arm3_eps,2022.2.5,MacIntel,59.99880002,5f466020c3a053038da47399,64c7fed44a04f777bb1e18ce,64c8008322ff95f1f4a277bb,right,1,1,0.2429,0,0.076241509,0.3335,32,0,32,0,1,,,,,,,,,,
,,468679,001,2023-07-31_19h43.33.337,arm3_eps,2022.2.5,MacIntel,59.99880002,5f466020c3a053038da47399,64c7fed44a04f777bb1e18ce,64c8008322ff95f1f4a277bb,up,1,1,0.2429,1,0,0.3849,33,0,33,0,1,,,,,,,,,,
,,468679,001,2023-07-31_19h43.33.337,arm3_eps,2022.2.5,MacIntel,59.99880002,5f466020c3a053038da47399,64c7fed44a04f777bb1e18ce,64c8008322ff95f1f4a277bb,right,1,1,0.2429,1,-0.005154942,0.9998,34,0,34,0,1,,,,,,,,,,
,,468679,001,2023-07-31_19h43.33.337,arm3_eps,2022.2.5,MacIntel,59.99880002,5f466020c3a053038da47399,64c7fed44a04f777bb1e18ce,64c8008322ff95f1f4a277bb,right,1,1,0.2429,1,0.002399641,0.4027,35,0,35,0,1,,,,,,,,,,
,,468679,001,2023-07-31_19h43.33.337,arm3_eps,2022.2.5,MacIntel,59.99880002,5f466020c3a053038da47399,64c7fed44a04f777bb1e18ce,64c8008322ff95f1f4a277bb,right,1,1,0.2429,1,0.014805188,0.3219,36,0,36,0,1,,,,,,,,,,
,,468679,001,2023-07-31_19h43.33.337,arm3_eps,2022.2.5,MacIntel,59.99880002,5f466020c3a053038da47399,64c7fed44a04f777bb1e18ce,64c8008322ff95f1f4a277bb,right,1,1,0.2429,1,0.032399813,0.3673,37,0,37,0,1,,,,,,,,,,
,,468679,001,2023-07-31_19h43.33.337,arm3_eps,2022.2.5,MacIntel,59.99880002,5f466020c3a053038da47399,64c7fed44a04f777bb1e18ce,64c8008322ff95f1f4a277bb,up,1,1,0.2429,2,0,0.4147,38,0,38,0,1,,,,,,,,,,
,,468679,001,2023-07-31_19h43.33.337,arm3_eps,2022.2.5,MacIntel,59.99880002,5f466020c3a053038da47399,64c7fed44a04f777bb1e18ce,64c8008322ff95f1f4a277bb,right,1,1,0.2429,2,0.015906199,0.9254,39,0,39,0,1,,,,,,,,,,
,,468679,001,2023-07-31_19h43.33.337,arm3_eps,2022.2.5,MacIntel,59.99880002,5f466020c3a053038da47399,64c7fed44a04f777bb1e18ce,64c8008322ff95f1f4a277bb,right,1,1,0.2429,2,0.014567446,0.3358,40,0,40,0,1,,,,,,,,,,
,,468679,001,2023-07-31_19h43.33.337,arm3_eps,2022.2.5,MacIntel,59.99880002,5f466020c3a053038da47399,64c7fed44a04f777bb1e18ce,64c8008322ff95f1f4a277bb,right,1,1,0.2429,2,0.037368763,0.3544,41,0,41,0,1,,,,,,,,,,
,,468679,001,2023-07-31_19h43.33.337,arm3_eps,2022.2.5,MacIntel,59.99880002,5f466020c3a053038da47399,64c7fed44a04f777bb1e18ce,64c8008322ff95f1f4a277bb,right,1,1,0.2429,2,0.075244203,0.889,42,0,42,0,1,,,,,,,,,,
,,468679,001,2023-07-31_19h43.33.337,arm3_eps,2022.2.5,MacIntel,59.99880002,5f466020c3a053038da47399,64c7fed44a04f777bb1e18ce,64c8008322ff95f1f4a277bb,up,1,1,0.2429,3,0,0.3016,43,0,43,0,1,,,,,,,,,,
,,468679,001,2023-07-31_19h43.33.337,arm3_eps,2022.2.5,MacIntel,59.99880002,5f466020c3a053038da47399,64c7fed44a04f777bb1e18ce,64c8008322ff95f1f4a277bb,right,1,1,0.2429,3,-0.001483829,0.9796,44,0,44,0,1,,,,,,,,,,
,,468679,001,2023-07-31_19h43.33.337,arm3_eps,2022.2.5,MacIntel,59.99880002,5f466020c3a053038da47399,64c7fed44a04f777bb1e18ce,64c8008322ff95f1f4a277bb,right,1,1,0.2429,3,-0.011872947,0.3022,45,0,45,0,1,,,,,,,,,,
,,468679,001,2023-07-31_19h43.33.337,arm3_eps,2022.2.5,MacIntel,59.99880002,5f466020c3a053038da47399,64c7fed44a04f777bb1e18ce,64c8008322ff95f1f4a277bb,right,1,1,0.2429,3,0.005440985,0.3193,46,0,46,0,1,,,,,,,,,,
,,468679,001,2023-07-31_19h43.33.337,arm3_eps,2022.2.5,MacIntel,59.99880002,5f466020c3a053038da47399,64c7fed44a04f777bb1e18ce,64c8008322ff95f1f4a277bb,right,1,1,0.2429,3,0.032791097,0.3363,47,0,47,0,1,,,,,,,,,,
,,468679,001,2023-07-31_19h43.33.337,arm3_eps,2022.2.5,MacIntel,59.99880002,5f466020c3a053038da47399,64c7fed44a04f777bb1e18ce,64c8008322ff95f1f4a277bb,right,1,1,0.2429,3,0.04320683,0.34,48,0,48,0,1,,,,,,,,,,
,,468679,001,2023-07-31_19h43.33.337,arm3_eps,2022.2.5,MacIntel,59.99880002,5f466020c3a053038da47399,64c7fed44a04f777bb1e18ce,64c8008322ff95f1f4a277bb,right,1,1,0.2429,3,0.046584777,0.3368,49,0,49,0,1,,,,,,,,,,
space,12.6624,468679,001,2023-07-31_19h43.33.337,arm3_eps,2022.2.5,MacIntel,59.99880002,5f466020c3a053038da47399,64c7fed44a04f777bb1e18ce,64c8008322ff95f1f4a277bb,,,,,,,,,,,,,,,,,,,,,,
space,17.9183,468679,001,2023-07-31_19h43.33.337,arm3_eps,2022.2.5,MacIntel,59.99880002,5f466020c3a053038da47399,64c7fed44a04f777bb1e18ce,64c8008322ff95f1f4a277bb,,,,,,,,,,,,,,,,,,,,,,
space,13.3722,468679,001,2023-07-31_19h43.33.337,arm3_eps,2022.2.5,MacIntel,59.99880002,5f466020c3a053038da47399,64c7fed44a04f777bb1e18ce,64c8008322ff95f1f4a277bb,,,,,,,,,,,,,,,,,,,,,,
space,2.7991,468679,001,2023-07-31_19h43.33.337,arm3_eps,2022.2.5,MacIntel,59.99880002,5f466020c3a053038da47399,64c7fed44a04f777bb1e18ce,64c8008322ff95f1f4a277bb,,,,,,,,,,,,,,,,,,,,,,
space,6.9177,468679,001,2023-07-31_19h43.33.337,arm3_eps,2022.2.5,MacIntel,59.99880002,5f466020c3a053038da47399,64c7fed44a04f777bb1e18ce,64c8008322ff95f1f4a277bb,,,,,,,,,,,,,,,,,,,,,,
space,0.9149,468679,001,2023-07-31_19h43.33.337,arm3_eps,2022.2.5,MacIntel,59.99880002,5f466020c3a053038da47399,64c7fed44a04f777bb1e18ce,64c8008322ff95f1f4a277bb,,,,,,,,,,,,,,,,,,,,,,
,,468679,001,2023-07-31_19h43.33.337,arm3_eps,2022.2.5,MacIntel,59.99880002,5f466020c3a053038da47399,64c7fed44a04f777bb1e18ce,64c8008322ff95f1f4a277bb,right,1,0.75,0.2429,0,-0.004447365,1.957,0,0,0,0,1,,,,,,,,,,
,,468679,001,2023-07-31_19h43.33.337,arm3_eps,2022.2.5,MacIntel,59.99880002,5f466020c3a053038da47399,64c7fed44a04f777bb1e18ce,64c8008322ff95f1f4a277bb,right,1,0.75,0.2429,0,0.021522209,0.6364,1,0,1,0,1,,,,,,,,,,
,,468679,001,2023-07-31_19h43.33.337,arm3_eps,2022.2.5,MacIntel,59.99880002,5f466020c3a053038da47399,64c7fed44a04f777bb1e18ce,64c8008322ff95f1f4a277bb,right,1,0.75,0.2429,0,0.025882169,0.4017,2,0,2,0,1,,,,,,,,,,
,,468679,001,2023-07-31_19h43.33.337,arm3_eps,2022.2.5,MacIntel,59.99880002,5f466020c3a053038da47399,64c7fed44a04f777bb1e18ce,64c8008322ff95f1f4a277bb,right,1,0.75,0.2429,0,0.03531334,0.3991,3,0,3,0,1,,,,,,,,,,
,,468679,001,2023-07-31_19h43.33.337,arm3_eps,2022.2.5,MacIntel,59.99880002,5f466020c3a053038da47399,64c7fed44a04f777bb1e18ce,64c8008322ff95f1f4a277bb,right,1,0.75,0.2429,0,0.061034127,0.3817,4,0,4,0,1,,,,,,,,,,
,,468679,001,2023-07-31_19h43.33.337,arm3_eps,2022.2.5,MacIntel,59.99880002,5f466020c3a053038da47399,64c7fed44a04f777bb1e18ce,64c8008322ff95f1f4a277bb,right,1,0.75,0.2429,0,0.088088032,0.6449,5,0,5,0,1,,,,,,,,,,
,,468679,001,2023-07-31_19h43.33.337,arm3_eps,2022.2.5,MacIntel,59.99880002,5f466020c3a053038da47399,64c7fed44a04f777bb1e18ce,64c8008322ff95f1f4a277bb,right,1,0.75,0.2429,0,0.111489896,0.4024,6,0,6,0,1,,,,,,,,,,
,,468679,001,2023-07-31_19h43.33.337,arm3_eps,2022.2.5,MacIntel,59.99880002,5f466020c3a053038da47399,64c7fed44a04f777bb1e18ce,64c8008322ff95f1f4a277bb,right,1,0.75,0.2429,0,0.119965525,0.4083,7,0,7,0,1,,,,,,,,,,
,,468679,001,2023-07-31_19h43.33.337,arm3_eps,2022.2.5,MacIntel,59.99880002,5f466020c3a053038da47399,64c7fed44a04f777bb1e18ce,64c8008322ff95f1f4a277bb,right,1,0.75,0.2429,0,0.130426275,1.1456,8,0,8,0,1,,,,,,,,,,
,,468679,001,2023-07-31_19h43.33.337,arm3_eps,2022.2.5,MacIntel,59.99880002,5f466020c3a053038da47399,64c7fed44a04f777bb1e18ce,64c8008322ff95f1f4a277bb,up,1,0.75,0.2429,0,0,0.415,9,0,9,0,1,,,,,,,,,,
,,468679,001,2023-07-31_19h43.33.337,arm3_eps,2022.2.5,MacIntel,59.99880002,5f466020c3a053038da47399,64c7fed44a04f777bb1e18ce,64c8008322ff95f1f4a277bb,right,1,0.75,0.2429,0,0.009911556,1.2914,10,0,10,0,1,,,,,,,,,,
,,468679,001,2023-07-31_19h43.33.337,arm3_eps,2022.2.5,MacIntel,59.99880002,5f466020c3a053038da47399,64c7fed44a04f777bb1e18ce,64c8008322ff95f1f4a277bb,right,1,0.75,0.2429,0,0.018216808,0.2668,11,0,11,0,1,,,,,,,,,,
,,468679,001,2023-07-31_19h43.33.337,arm3_eps,2022.2.5,MacIntel,59.99880002,5f466020c3a053038da47399,64c7fed44a04f777bb1e18ce,64c8008322ff95f1f4a277bb,right,1,0.75,0.2429,0,0.000596319,0.1998,12,0,12,0,1,,,,,,,,,,
,,468679,001,2023-07-31_19h43.33.337,arm3_eps,2022.2.5,MacIntel,59.99880002,5f466020c3a053038da47399,64c7fed44a04f777bb1e18ce,64c8008322ff95f1f4a277bb,right,1,0.75,0.2429,0,-0.007080329,0.2038,13,0,13,0,1,,,,,,,,,,
,,468679,001,2023-07-31_19h43.33.337,arm3_eps,2022.2.5,MacIntel,59.99880002,5f466020c3a053038da47399,64c7fed44a04f777bb1e18ce,64c8008322ff95f1f4a277bb,right,1,0.75,0.2429,0,0.022134471,0.1971,14,0,14,0,1,,,,,,,,,,
,,468679,001,2023-07-31_19h43.33.337,arm3_eps,2022.2.5,MacIntel,59.99880002,5f466020c3a053038da47399,64c7fed44a04f777bb1e18ce,64c8008322ff95f1f4a277bb,right,1,0.75,0.2429,0,0.049412801,0.3168,15,0,15,0,1,,,,,,,,,,
,,468679,001,2023-07-31_19h43.33.337,arm3_eps,2022.2.5,MacIntel,59.99880002,5f466020c3a053038da47399,64c7fed44a04f777bb1e18ce,64c8008322ff95f1f4a277bb,right,1,0.75,0.2429,0,0.054577521,0.3851,16,0,16,0,1,,,,,,,,,,
,,468679,001,2023-07-31_19h43.33.337,arm3_eps,2022.2.5,MacIntel,59.99880002,5f466020c3a053038da47399,64c7fed44a04f777bb1e18ce,64c8008322ff95f1f4a277bb,right,1,0.75,0.2429,0,0.01569236,0.3001,17,0,17,0,1,,,,,,,,,,
,,468679,001,2023-07-31_19h43.33.337,arm3_eps,2022.2.5,MacIntel,59.99880002,5f466020c3a053038da47399,64c7fed44a04f777bb1e18ce,64c8008322ff95f1f4a277bb,right,1,0.75,0.2429,0,0.031959584,0.4003,18,0,18,0,1,,,,,,,,,,
,,468679,001,2023-07-31_19h43.33.337,arm3_eps,2022.2.5,MacIntel,59.99880002,5f466020c3a053038da47399,64c7fed44a04f777bb1e18ce,64c8008322ff95f1f4a277bb,down,1,0.75,0.2429,0,0,1.1503,19,0,19,0,1,,,,,,,,,,
,,468679,001,2023-07-31_19h43.33.337,arm3_eps,2022.2.5,MacIntel,59.99880002,5f466020c3a053038da47399,64c7fed44a04f777bb1e18ce,64c8008322ff95f1f4a277bb,right,1,0.75,0.2429,0,-0.001773201,1.327,20,0,20,0,1,,,,,,,,,,
,,468679,001,2023-07-31_19h43.33.337,arm3_eps,2022.2.5,MacIntel,59.99880002,5f466020c3a053038da47399,64c7fed44a04f777bb1e18ce,64c8008322ff95f1f4a277bb,right,1,0.75,0.2429,0,-0.016669029,0.252,21,0,21,0,1,,,,,,,,,,
,,468679,001,2023-07-31_19h43.33.337,arm3_eps,2022.2.5,MacIntel,59.99880002,5f466020c3a053038da47399,64c7fed44a04f777bb1e18ce,64c8008322ff95f1f4a277bb,right,1,0.75,0.2429,0,-0.015309135,0.2428,22,0,22,0,1,,,,,,,,,,
,,468679,001,2023-07-31_19h43.33.337,arm3_eps,2022.2.5,MacIntel,59.99880002,5f466020c3a053038da47399,64c7fed44a04f777bb1e18ce,64c8008322ff95f1f4a277bb,right,1,0.75,0.2429,0,0.010842309,0.2471,23,0,23,0,1,,,,,,,,,,
,,468679,001,2023-07-31_19h43.33.337,arm3_eps,2022.2.5,MacIntel,59.99880002,5f466020c3a053038da47399,64c7fed44a04f777bb1e18ce,64c8008322ff95f1f4a277bb,right,1,0.75,0.2429,0,0.03075738,0.2336,24,0,24,0,1,,,,,,,,,,
,,468679,001,2023-07-31_19h43.33.337,arm3_eps,2022.2.5,MacIntel,59.99880002,5f466020c3a053038da47399,64c7fed44a04f777bb1e18ce,64c8008322ff95f1f4a277bb,right,1,0.75,0.2429,0,0.052994033,0.2359,25,0,25,0,1,,,,,,,,,,
,,468679,001,2023-07-31_19h43.33.337,arm3_eps,2022.2.5,MacIntel,59.99880002,5f466020c3a053038da47399,64c7fed44a04f777bb1e18ce,64c8008322ff95f1f4a277bb,up,1,0.75,0.2429,1,0,0.3188,26,0,26,0,1,,,,,,,,,,
,,468679,001,2023-07-31_19h43.33.337,arm3_eps,2022.2.5,MacIntel,59.99880002,5f466020c3a053038da47399,64c7fed44a04f777bb1e18ce,64c8008322ff95f1f4a277bb,right,1,0.75,0.2429,1,0.023509202,1.0084,27,0,27,0,1,,,,,,,,,,
,,468679,001,2023-07-31_19h43.33.337,arm3_eps,2022.2.5,MacIntel,59.99880002,5f466020c3a053038da47399,64c7fed44a04f777bb1e18ce,64c8008322ff95f1f4a277bb,right,1,0.75,0.2429,1,0.054116739,0.2161,28,0,28,0,1,,,,,,,,,,
,,468679,001,2023-07-31_19h43.33.337,arm3_eps,2022.2.5,MacIntel,59.99880002,5f466020c3a053038da47399,64c7fed44a04f777bb1e18ce,64c8008322ff95f1f4a277bb,right,1,0.75,0.2429,1,0.070545952,0.1701,29,0,29,0,1,,,,,,,,,,
,,468679,001,2023-07-31_19h43.33.337,arm3_eps,2022.2.5,MacIntel,59.99880002,5f466020c3a053038da47399,64c7fed44a04f777bb1e18ce,64c8008322ff95f1f4a277bb,right,1,0.75,0.2429,1,0.064106293,0.214,30,0,30,0,1,,,,,,,,,,
,,468679,001,2023-07-31_19h43.33.337,arm3_eps,2022.2.5,MacIntel,59.99880002,5f466020c3a053038da47399,64c7fed44a04f777bb1e18ce,64c8008322ff95f1f4a277bb,right,1,0.75,0.2429,1,0.039964235,0.2014,31,0,31,0,1,,,,,,,,,,
,,468679,001,2023-07-31_19h43.33.337,arm3_eps,2022.2.5,MacIntel,59.99880002,5f466020c3a053038da47399,64c7fed44a04f777bb1e18ce,64c8008322ff95f1f4a277bb,right,1,0.75,0.2429,1,0.05696876,0.1862,32,0,32,0,1,,,,,,,,,,
,,468679,001,2023-07-31_19h43.33.337,arm3_eps,2022.2.5,MacIntel,59.99880002,5f466020c3a053038da47399,64c7fed44a04f777bb1e18ce,64c8008322ff95f1f4a277bb,right,1,0.75,0.2429,1,0.084909813,0.2375,33,0,33,0,1,,,,,,,,,,
,,468679,001,2023-07-31_19h43.33.337,arm3_eps,2022.2.5,MacIntel,59.99880002,5f466020c3a053038da47399,64c7fed44a04f777bb1e18ce,64c8008322ff95f1f4a277bb,up,1,0.75,0.2429,2,0,0.2831,34,0,34,0,1,,,,,,,,,,
,,468679,001,2023-07-31_19h43.33.337,arm3_eps,2022.2.5,MacIntel,59.99880002,5f466020c3a053038da47399,64c7fed44a04f777bb1e18ce,64c8008322ff95f1f4a277bb,right,1,0.75,0.2429,2,0.020614004,0.5739,35,0,35,0,1,,,,,,,,,,
,,468679,001,2023-07-31_19h43.33.337,arm3_eps,2022.2.5,MacIntel,59.99880002,5f466020c3a053038da47399,64c7fed44a04f777bb1e18ce,64c8008322ff95f1f4a277bb,right,1,0.75,0.2429,2,0.013036145,0.2885,36,0,36,0,1,,,,,,,,,,
,,468679,001,2023-07-31_19h43.33.337,arm3_eps,2022.2.5,MacIntel,59.99880002,5f466020c3a053038da47399,64c7fed44a04f777bb1e18ce,64c8008322ff95f1f4a277bb,right,1,0.75,0.2429,2,0.03394449,0.1995,37,0,37,0,1,,,,,,,,,,
,,468679,001,2023-07-31_19h43.33.337,arm3_eps,2022.2.5,MacIntel,59.99880002,5f466020c3a053038da47399,64c7fed44a04f777bb1e18ce,64c8008322ff95f1f4a277bb,right,1,0.75,0.2429,2,0.021063382,0.1859,38,0,38,0,1,,,,,,,,,,
,,468679,001,2023-07-31_19h43.33.337,arm3_eps,2022.2.5,MacIntel,59.99880002,5f466020c3a053038da47399,64c7fed44a04f777bb1e18ce,64c8008322ff95f1f4a277bb,right,1,0.75,0.2429,2,0.034284169,0.3675,39,0,39,0,1,,,,,,,,,,
,,468679,001,2023-07-31_19h43.33.337,arm3_eps,2022.2.5,MacIntel,59.99880002,5f466020c3a053038da47399,64c7fed44a04f777bb1e18ce,64c8008322ff95f1f4a277bb,right,1,0.75,0.2429,2,0.036765032,0.4323,40,0,40,0,1,,,,,,,,,,
,,468679,001,2023-07-31_19h43.33.337,arm3_eps,2022.2.5,MacIntel,59.99880002,5f466020c3a053038da47399,64c7fed44a04f777bb1e18ce,64c8008322ff95f1f4a277bb,down,1,0.75,0.2429,2,0,0.7615,41,0,41,0,1,,,,,,,,,,
,,468679,001,2023-07-31_19h43.33.337,arm3_eps,2022.2.5,MacIntel,59.99880002,5f466020c3a053038da47399,64c7fed44a04f777bb1e18ce,64c8008322ff95f1f4a277bb,up,1,0.75,0.2429,3,0,0.9498,42,0,42,0,1,,,,,,,,,,
,,468679,001,2023-07-31_19h43.33.337,arm3_eps,2022.2.5,MacIntel,59.99880002,5f466020c3a053038da47399,64c7fed44a04f777bb1e18ce,64c8008322ff95f1f4a277bb,right,1,0.75,0.2429,3,-0.017599282,0.976,43,0,43,0,1,,,,,,,,,,
,,468679,001,2023-07-31_19h43.33.337,arm3_eps,2022.2.5,MacIntel,59.99880002,5f466020c3a053038da47399,64c7fed44a04f777bb1e18ce,64c8008322ff95f1f4a277bb,right,1,0.75,0.2429,3,-0.002869158,0.3693,44,0,44,0,1,,,,,,,,,,
,,468679,001,2023-07-31_19h43.33.337,arm3_eps,2022.2.5,MacIntel,59.99880002,5f466020c3a053038da47399,64c7fed44a04f777bb1e18ce,64c8008322ff95f1f4a277bb,right,1,0.75,0.2429,3,-0.005164724,0.3205,45,0,45,0,1,,,,,,,,,,
,,468679,001,2023-07-31_19h43.33.337,arm3_eps,2022.2.5,MacIntel,59.99880002,5f466020c3a053038da47399,64c7fed44a04f777bb1e18ce,64c8008322ff95f1f4a277bb,right,1,0.75,0.2429,3,-0.005800598,0.2364,46,0,46,0,1,,,,,,,,,,
,,468679,001,2023-07-31_19h43.33.337,arm3_eps,2022.2.5,MacIntel,59.99880002,5f466020c3a053038da47399,64c7fed44a04f777bb1e18ce,64c8008322ff95f1f4a277bb,up,1,0.75,0.2429,4,0,0.5814,47,0,47,0,1,,,,,,,,,,
,,468679,001,2023-07-31_19h43.33.337,arm3_eps,2022.2.5,MacIntel,59.99880002,5f466020c3a053038da47399,64c7fed44a04f777bb1e18ce,64c8008322ff95f1f4a277bb,right,1,0.75,0.2429,4,-0.003206934,0.7922,48,0,48,0,1,,,,,,,,,,
,,468679,001,2023-07-31_19h43.33.337,arm3_eps,2022.2.5,MacIntel,59.99880002,5f466020c3a053038da47399,64c7fed44a04f777bb1e18ce,64c8008322ff95f1f4a277bb,right,1,0.75,0.2429,4,0.024774733,0.2312,49,0,49,0,1,,,,,,,,,,
space,11.4772,468679,001,2023-07-31_19h43.33.337,arm3_eps,2022.2.5,MacIntel,59.99880002,5f466020c3a053038da47399,64c7fed44a04f777bb1e18ce,64c8008322ff95f1f4a277bb,,,,,,,,,,,,,,,,,,,,,,
space,15.5332,468679,001,2023-07-31_19h43.33.337,arm3_eps,2022.2.5,MacIntel,59.99880002,5f466020c3a053038da47399,64c7fed44a04f777bb1e18ce,64c8008322ff95f1f4a277bb,,,,,,,,,,,,,,,,,,,,,,
space,0.6903,468679,001,2023-07-31_19h43.33.337,arm3_eps,2022.2.5,MacIntel,59.99880002,5f466020c3a053038da47399,64c7fed44a04f777bb1e18ce,64c8008322ff95f1f4a277bb,,,,,,,,,,,,,,,,,,,,,,
,,468679,001,2023-07-31_19h43.33.337,arm3_eps,2022.2.5,MacIntel,59.99880002,5f466020c3a053038da47399,64c7fed44a04f777bb1e18ce,64c8008322ff95f1f4a277bb,right,1,0.75,0.05,0,0.009184012,1.8029,0,0,0,0,1,,,,,,,,,,
,,468679,001,2023-07-31_19h43.33.337,arm3_eps,2022.2.5,MacIntel,59.99880002,5f466020c3a053038da47399,64c7fed44a04f777bb1e18ce,64c8008322ff95f1f4a277bb,right,1,0.75,0.05,0,-0.016916569,0.2655,1,0,1,0,1,,,,,,,,,,
,,468679,001,2023-07-31_19h43.33.337,arm3_eps,2022.2.5,MacIntel,59.99880002,5f466020c3a053038da47399,64c7fed44a04f777bb1e18ce,64c8008322ff95f1f4a277bb,right,1,0.75,0.05,0,0.011002403,0.0538,2,0,2,0,1,,,,,,,,,,
,,468679,001,2023-07-31_19h43.33.337,arm3_eps,2022.2.5,MacIntel,59.99880002,5f466020c3a053038da47399,64c7fed44a04f777bb1e18ce,64c8008322ff95f1f4a277bb,right,1,0.75,0.05,0,0.048495194,0.6142,3,0,3,0,1,,,,,,,,,,
,,468679,001,2023-07-31_19h43.33.337,arm3_eps,2022.2.5,MacIntel,59.99880002,5f466020c3a053038da47399,64c7fed44a04f777bb1e18ce,64c8008322ff95f1f4a277bb,right,1,0.75,0.05,0,0.057793366,0.4308,4,0,4,0,1,,,,,,,,,,
,,468679,001,2023-07-31_19h43.33.337,arm3_eps,2022.2.5,MacIntel,59.99880002,5f466020c3a053038da47399,64c7fed44a04f777bb1e18ce,64c8008322ff95f1f4a277bb,down,1,0.75,0.05,-1,0,0.28,5,0,5,0,1,,,,,,,,,,
,,468679,001,2023-07-31_19h43.33.337,arm3_eps,2022.2.5,MacIntel,59.99880002,5f466020c3a053038da47399,64c7fed44a04f777bb1e18ce,64c8008322ff95f1f4a277bb,right,1,0.75,0.05,-1,0.009633929,0.8731,6,0,6,0,1,,,,,,,,,,
,,468679,001,2023-07-31_19h43.33.337,arm3_eps,2022.2.5,MacIntel,59.99880002,5f466020c3a053038da47399,64c7fed44a04f777bb1e18ce,64c8008322ff95f1f4a277bb,right,1,0.75,0.05,-1,0.000472959,0.264,7,0,7,0,1,,,,,,,,,,
,,468679,001,2023-07-31_19h43.33.337,arm3_eps,2022.2.5,MacIntel,59.99880002,5f466020c3a053038da47399,64c7fed44a04f777bb1e18ce,64c8008322ff95f1f4a277bb,right,1,0.75,0.05,-1,0.041549774,0.264,8,0,8,0,1,,,,,,,,,,
,,468679,001,2023-07-31_19h43.33.337,arm3_eps,2022.2.5,MacIntel,59.99880002,5f466020c3a053038da47399,64c7fed44a04f777bb1e18ce,64c8008322ff95f1f4a277bb,up,1,0.75,0.05,0,0,0.282,9,0,9,0,1,,,,,,,,,,
,,468679,001,2023-07-31_19h43.33.337,arm3_eps,2022.2.5,MacIntel,59.99880002,5f466020c3a053038da47399,64c7fed44a04f777bb1e18ce,64c8008322ff95f1f4a277bb,right,1,0.75,0.05,0,0.010680485,0.7344,10,0,10,0,1,,,,,,,,,,
,,468679,001,2023-07-31_19h43.33.337,arm3_eps,2022.2.5,MacIntel,59.99880002,5f466020c3a053038da47399,64c7fed44a04f777bb1e18ce,64c8008322ff95f1f4a277bb,right,1,0.75,0.05,0,-1.56268E-05,0.2317,11,0,11,0,1,,,,,,,,,,
,,468679,001,2023-07-31_19h43.33.337,arm3_eps,2022.2.5,MacIntel,59.99880002,5f466020c3a053038da47399,64c7fed44a04f777bb1e18ce,64c8008322ff95f1f4a277bb,right,1,0.75,0.05,0,-0.012485872,0.1983,12,0,12,0,1,,,,,,,,,,
,,468679,001,2023-07-31_19h43.33.337,arm3_eps,2022.2.5,MacIntel,59.99880002,5f466020c3a053038da47399,64c7fed44a04f777bb1e18ce,64c8008322ff95f1f4a277bb,right,1,0.75,0.05,0,0.009049214,0.1945,13,0,13,0,1,,,,,,,,,,
,,468679,001,2023-07-31_19h43.33.337,arm3_eps,2022.2.5,MacIntel,59.99880002,5f466020c3a053038da47399,64c7fed44a04f777bb1e18ce,64c8008322ff95f1f4a277bb,right,1,0.75,0.05,0,-0.013772531,0.7825,14,0,14,0,1,,,,,,,,,,
,,468679,001,2023-07-31_19h43.33.337,arm3_eps,2022.2.5,MacIntel,59.99880002,5f466020c3a053038da47399,64c7fed44a04f777bb1e18ce,64c8008322ff95f1f4a277bb,right,1,0.75,0.05,0,0.002998988,0.3233,15,0,15,0,1,,,,,,,,,,
,,468679,001,2023-07-31_19h43.33.337,arm3_eps,2022.2.5,MacIntel,59.99880002,5f466020c3a053038da47399,64c7fed44a04f777bb1e18ce,64c8008322ff95f1f4a277bb,right,1,0.75,0.05,0,0.007236203,0.2966,16,0,16,0,1,,,,,,,,,,
,,468679,001,2023-07-31_19h43.33.337,arm3_eps,2022.2.5,MacIntel,59.99880002,5f466020c3a053038da47399,64c7fed44a04f777bb1e18ce,64c8008322ff95f1f4a277bb,up,1,0.75,0.05,1,0,0.7186,17,0,17,0,1,,,,,,,,,,
,,468679,001,2023-07-31_19h43.33.337,arm3_eps,2022.2.5,MacIntel,59.99880002,5f466020c3a053038da47399,64c7fed44a04f777bb1e18ce,64c8008322ff95f1f4a277bb,right,1,0.75,0.05,1,0.003449565,0.7935,18,0,18,0,1,,,,,,,,,,
,,468679,001,2023-07-31_19h43.33.337,arm3_eps,2022.2.5,MacIntel,59.99880002,5f466020c3a053038da47399,64c7fed44a04f777bb1e18ce,64c8008322ff95f1f4a277bb,right,1,0.75,0.05,1,0.005727192,0.2038,19,0,19,0,1,,,,,,,,,,
,,468679,001,2023-07-31_19h43.33.337,arm3_eps,2022.2.5,MacIntel,59.99880002,5f466020c3a053038da47399,64c7fed44a04f777bb1e18ce,64c8008322ff95f1f4a277bb,right,1,0.75,0.05,1,-0.004875927,0.1966,20,0,20,0,1,,,,,,,,,,
,,468679,001,2023-07-31_19h43.33.337,arm3_eps,2022.2.5,MacIntel,59.99880002,5f466020c3a053038da47399,64c7fed44a04f777bb1e18ce,64c8008322ff95f1f4a277bb,right,1,0.75,0.05,1,-0.009493597,0.153,21,0,21,0,1,,,,,,,,,,
,,468679,001,2023-07-31_19h43.33.337,arm3_eps,2022.2.5,MacIntel,59.99880002,5f466020c3a053038da47399,64c7fed44a04f777bb1e18ce,64c8008322ff95f1f4a277bb,right,1,0.75,0.05,1,-0.006672857,0.4216,22,0,22,0,1,,,,,,,,,,
,,468679,001,2023-07-31_19h43.33.337,arm3_eps,2022.2.5,MacIntel,59.99880002,5f466020c3a053038da47399,64c7fed44a04f777bb1e18ce,64c8008322ff95f1f4a277bb,right,1,0.75,0.05,1,-0.00032648,0.3196,23,0,23,0,1,,,,,,,,,,
,,468679,001,2023-07-31_19h43.33.337,arm3_eps,2022.2.5,MacIntel,59.99880002,5f466020c3a053038da47399,64c7fed44a04f777bb1e18ce,64c8008322ff95f1f4a277bb,right,1,0.75,0.05,1,0.017881611,0.3483,24,0,24,0,1,,,,,,,,,,
,,468679,001,2023-07-31_19h43.33.337,arm3_eps,2022.2.5,MacIntel,59.99880002,5f466020c3a053038da47399,64c7fed44a04f777bb1e18ce,64c8008322ff95f1f4a277bb,up,1,0.75,0.05,1,0,0.2175,25,0,25,0,1,,,,,,,,,,
,,468679,001,2023-07-31_19h43.33.337,arm3_eps,2022.2.5,MacIntel,59.99880002,5f466020c3a053038da47399,64c7fed44a04f777bb1e18ce,64c8008322ff95f1f4a277bb,right,1,0.75,0.05,1,0.001019544,0.8424,26,0,26,0,1,,,,,,,,,,
,,468679,001,2023-07-31_19h43.33.337,arm3_eps,2022.2.5,MacIntel,59.99880002,5f466020c3a053038da47399,64c7fed44a04f777bb1e18ce,64c8008322ff95f1f4a277bb,right,1,0.75,0.05,1,0.013744578,0.2027,27,0,27,0,1,,,,,,,,,,
,,468679,001,2023-07-31_19h43.33.337,arm3_eps,2022.2.5,MacIntel,59.99880002,5f466020c3a053038da47399,64c7fed44a04f777bb1e18ce,64c8008322ff95f1f4a277bb,right,1,0.75,0.05,1,-0.005430924,0.1694,28,0,28,0,1,,,,,,,,,,
,,468679,001,2023-07-31_19h43.33.337,arm3_eps,2022.2.5,MacIntel,59.99880002,5f466020c3a053038da47399,64c7fed44a04f777bb1e18ce,64c8008322ff95f1f4a277bb,right,1,0.75,0.05,1,0.014414673,0.1391,29,0,29,0,1,,,,,,,,,,
,,468679,001,2023-07-31_19h43.33.337,arm3_eps,2022.2.5,MacIntel,59.99880002,5f466020c3a053038da47399,64c7fed44a04f777bb1e18ce,64c8008322ff95f1f4a277bb,right,1,0.75,0.05,1,0.026677037,0.163,30,0,30,0,1,,,,,,,,,,
,,468679,001,2023-07-31_19h43.33.337,arm3_eps,2022.2.5,MacIntel,59.99880002,5f466020c3a053038da47399,64c7fed44a04f777bb1e18ce,64c8008322ff95f1f4a277bb,up,1,0.75,0.05,1,0,0.3136,31,0,31,0,1,,,,,,,,,,
,,468679,001,2023-07-31_19h43.33.337,arm3_eps,2022.2.5,MacIntel,59.99880002,5f466020c3a053038da47399,64c7fed44a04f777bb1e18ce,64c8008322ff95f1f4a277bb,right,1,0.75,0.05,1,-0.025731155,0.582,32,0,32,0,1,,,,,,,,,,
,,468679,001,2023-07-31_19h43.33.337,arm3_eps,2022.2.5,MacIntel,59.99880002,5f466020c3a053038da47399,64c7fed44a04f777bb1e18ce,64c8008322ff95f1f4a277bb,right,1,0.75,0.05,1,-0.009091429,0.2227,33,0,33,0,1,,,,,,,,,,
,,468679,001,2023-07-31_19h43.33.337,arm3_eps,2022.2.5,MacIntel,59.99880002,5f466020c3a053038da47399,64c7fed44a04f777bb1e18ce,64c8008322ff95f1f4a277bb,right,1,0.75,0.05,1,-0.022329769,0.1688,34,0,34,0,1,,,,,,,,,,
,,468679,001,2023-07-31_19h43.33.337,arm3_eps,2022.2.5,MacIntel,59.99880002,5f466020c3a053038da47399,64c7fed44a04f777bb1e18ce,64c8008322ff95f1f4a277bb,right,1,0.75,0.05,1,-0.012666147,0.1658,35,0,35,0,1,,,,,,,,,,
,,468679,001,2023-07-31_19h43.33.337,arm3_eps,2022.2.5,MacIntel,59.99880002,5f466020c3a053038da47399,64c7fed44a04f777bb1e18ce,64c8008322ff95f1f4a277bb,right,1,0.75,0.05,1,-0.005622741,0.1487,36,0,36,0,1,,,,,,,,,,
,,468679,001,2023-07-31_19h43.33.337,arm3_eps,2022.2.5,MacIntel,59.99880002,5f466020c3a053038da47399,64c7fed44a04f777bb1e18ce,64c8008322ff95f1f4a277bb,right,1,0.75,0.05,1,0.024815779,0.1516,37,0,37,0,1,,,,,,,,,,
,,468679,001,2023-07-31_19h43.33.337,arm3_eps,2022.2.5,MacIntel,59.99880002,5f466020c3a053038da47399,64c7fed44a04f777bb1e18ce,64c8008322ff95f1f4a277bb,right,1,0.75,0.05,1,0.024304066,0.4973,38,0,38,0,1,,,,,,,,,,
,,468679,001,2023-07-31_19h43.33.337,arm3_eps,2022.2.5,MacIntel,59.99880002,5f466020c3a053038da47399,64c7fed44a04f777bb1e18ce,64c8008322ff95f1f4a277bb,up,1,0.75,0.05,2,0,0.4488,39,0,39,0,1,,,,,,,,,,
,,468679,001,2023-07-31_19h43.33.337,arm3_eps,2022.2.5,MacIntel,59.99880002,5f466020c3a053038da47399,64c7fed44a04f777bb1e18ce,64c8008322ff95f1f4a277bb,right,1,0.75,0.05,2,0.011184617,0.5044,40,0,40,0,1,,,,,,,,,,
,,468679,001,2023-07-31_19h43.33.337,arm3_eps,2022.2.5,MacIntel,59.99880002,5f466020c3a053038da47399,64c7fed44a04f777bb1e18ce,64c8008322ff95f1f4a277bb,right,1,0.75,0.05,2,0.014069487,0.2779,41,0,41,0,1,,,,,,,,,,
,,468679,001,2023-07-31_19h43.33.337,arm3_eps,2022.2.5,MacIntel,59.99880002,5f466020c3a053038da47399,64c7fed44a04f777bb1e18ce,64c8008322ff95f1f4a277bb,right,1,0.75,0.05,2,0.049897692,0.2111,42,0,42,0,1,,,,,,,,,,
,,468679,001,2023-07-31_19h43.33.337,arm3_eps,2022.2.5,MacIntel,59.99880002,5f466020c3a053038da47399,64c7fed44a04f777bb1e18ce,64c8008322ff95f1f4a277bb,right,1,0.75,0.05,2,0.046007749,0.2115,43,0,43,0,1,,,,,,,,,,
,,468679,001,2023-07-31_19h43.33.337,arm3_eps,2022.2.5,MacIntel,59.99880002,5f466020c3a053038da47399,64c7fed44a04f777bb1e18ce,64c8008322ff95f1f4a277bb,right,1,0.75,0.05,2,0.051529071,0.2882,44,0,44,0,1,,,,,,,,,,
,,468679,001,2023-07-31_19h43.33.337,arm3_eps,2022.2.5,MacIntel,59.99880002,5f466020c3a053038da47399,64c7fed44a04f777bb1e18ce,64c8008322ff95f1f4a277bb,up,1,0.75,0.05,3,0,0.5477,45,0,45,0,1,,,,,,,,,,
,,468679,001,2023-07-31_19h43.33.337,arm3_eps,2022.2.5,MacIntel,59.99880002,5f466020c3a053038da47399,64c7fed44a04f777bb1e18ce,64c8008322ff95f1f4a277bb,right,1,0.75,0.05,3,0.004298283,0.6785,46,0,46,0,1,,,,,,,,,,
,,468679,001,2023-07-31_19h43.33.337,arm3_eps,2022.2.5,MacIntel,59.99880002,5f466020c3a053038da47399,64c7fed44a04f777bb1e18ce,64c8008322ff95f1f4a277bb,right,1,0.75,0.05,3,-0.003231973,0.228,47,0,47,0,1,,,,,,,,,,
,,468679,001,2023-07-31_19h43.33.337,arm3_eps,2022.2.5,MacIntel,59.99880002,5f466020c3a053038da47399,64c7fed44a04f777bb1e18ce,64c8008322ff95f1f4a277bb,right,1,0.75,0.05,3,0.007197812,0.2049,48,0,48,0,1,,,,,,,,,,
,,468679,001,2023-07-31_19h43.33.337,arm3_eps,2022.2.5,MacIntel,59.99880002,5f466020c3a053038da47399,64c7fed44a04f777bb1e18ce,64c8008322ff95f1f4a277bb,right,1,0.75,0.05,3,0.019503876,0.2008,49,0,49,0,1,,,,,,,,,,
space,5.6088,468679,001,2023-07-31_19h43.33.337,arm3_eps,2022.2.5,MacIntel,59.99880002,5f466020c3a053038da47399,64c7fed44a04f777bb1e18ce,64c8008322ff95f1f4a277bb,,,,,,,,,,,,,,,,,,,,,,
space,0.6046,468679,001,2023-07-31_19h43.33.337,arm3_eps,2022.2.5,MacIntel,59.99880002,5f466020c3a053038da47399,64c7fed44a04f777bb1e18ce,64c8008322ff95f1f4a277bb,,,,,,,,,,,,,,,,,,,,,,
,,468679,001,2023-07-31_19h43.33.337,arm3_eps,2022.2.5,MacIntel,59.99880002,5f466020c3a053038da47399,64c7fed44a04f777bb1e18ce,64c8008322ff95f1f4a277bb,right,1,0.75,0.5,0,0.013830617,0.5805,0,0,0,0,1,,,,,,,,,,
,,468679,001,2023-07-31_19h43.33.337,arm3_eps,2022.2.5,MacIntel,59.99880002,5f466020c3a053038da47399,64c7fed44a04f777bb1e18ce,64c8008322ff95f1f4a277bb,right,1,0.75,0.5,0,0.041029181,0.2611,1,0,1,0,1,,,,,,,,,,
,,468679,001,2023-07-31_19h43.33.337,arm3_eps,2022.2.5,MacIntel,59.99880002,5f466020c3a053038da47399,64c7fed44a04f777bb1e18ce,64c8008322ff95f1f4a277bb,right,1,0.75,0.5,0,0.059273201,0.2016,2,0,2,0,1,,,,,,,,,,
,,468679,001,2023-07-31_19h43.33.337,arm3_eps,2022.2.5,MacIntel,59.99880002,5f466020c3a053038da47399,64c7fed44a04f777bb1e18ce,64c8008322ff95f1f4a277bb,up,-1,0.75,0.5,0,0,0.6025,3,0,3,0,1,,,,,,,,,,
,,468679,001,2023-07-31_19h43.33.337,arm3_eps,2022.2.5,MacIntel,59.99880002,5f466020c3a053038da47399,64c7fed44a04f777bb1e18ce,64c8008322ff95f1f4a277bb,right,-1,0.75,0.5,0,-0.012811589,0.516,4,0,4,0,1,,,,,,,,,,
,,468679,001,2023-07-31_19h43.33.337,arm3_eps,2022.2.5,MacIntel,59.99880002,5f466020c3a053038da47399,64c7fed44a04f777bb1e18ce,64c8008322ff95f1f4a277bb,right,-1,0.75,0.5,0,0.0028611,0.2213,5,0,5,0,1,,,,,,,,,,
,,468679,001,2023-07-31_19h43.33.337,arm3_eps,2022.2.5,MacIntel,59.99880002,5f466020c3a053038da47399,64c7fed44a04f777bb1e18ce,64c8008322ff95f1f4a277bb,right,-1,0.75,0.5,0,7.92077E-05,0.2283,6,0,6,0,1,,,,,,,,,,
,,468679,001,2023-07-31_19h43.33.337,arm3_eps,2022.2.5,MacIntel,59.99880002,5f466020c3a053038da47399,64c7fed44a04f777bb1e18ce,64c8008322ff95f1f4a277bb,right,-1,0.75,0.5,0,-0.040979617,0.1684,7,0,7,0,1,,,,,,,,,,
,,468679,001,2023-07-31_19h43.33.337,arm3_eps,2022.2.5,MacIntel,59.99880002,5f466020c3a053038da47399,64c7fed44a04f777bb1e18ce,64c8008322ff95f1f4a277bb,down,-1,0.75,0.5,1,0,0.2154,8,0,8,0,1,,,,,,,,,,
,,468679,001,2023-07-31_19h43.33.337,arm3_eps,2022.2.5,MacIntel,59.99880002,5f466020c3a053038da47399,64c7fed44a04f777bb1e18ce,64c8008322ff95f1f4a277bb,right,-1,0.75,0.5,1,-0.035726663,0.4055,9,0,9,0,1,,,,,,,,,,
,,468679,001,2023-07-31_19h43.33.337,arm3_eps,2022.2.5,MacIntel,59.99880002,5f466020c3a053038da47399,64c7fed44a04f777bb1e18ce,64c8008322ff95f1f4a277bb,right,-1,0.75,0.5,1,-0.070387752,0.2665,10,0,10,0,1,,,,,,,,,,
,,468679,001,2023-07-31_19h43.33.337,arm3_eps,2022.2.5,MacIntel,59.99880002,5f466020c3a053038da47399,64c7fed44a04f777bb1e18ce,64c8008322ff95f1f4a277bb,right,-1,0.75,0.5,1,-0.068263388,0.4167,11,0,11,0,1,,,,,,,,,,
,,468679,001,2023-07-31_19h43.33.337,arm3_eps,2022.2.5,MacIntel,59.99880002,5f466020c3a053038da47399,64c7fed44a04f777bb1e18ce,64c8008322ff95f1f4a277bb,down,1,0.75,0.5,2,0,0.4721,12,0,12,0,1,,,,,,,,,,
,,468679,001,2023-07-31_19h43.33.337,arm3_eps,2022.2.5,MacIntel,59.99880002,5f466020c3a053038da47399,64c7fed44a04f777bb1e18ce,64c8008322ff95f1f4a277bb,right,1,0.75,0.5,2,0.004384119,0.4468,13,0,13,0,1,,,,,,,,,,
,,468679,001,2023-07-31_19h43.33.337,arm3_eps,2022.2.5,MacIntel,59.99880002,5f466020c3a053038da47399,64c7fed44a04f777bb1e18ce,64c8008322ff95f1f4a277bb,right,1,0.75,0.5,2,0.011139885,0.2495,14,0,14,0,1,,,,,,,,,,
,,468679,001,2023-07-31_19h43.33.337,arm3_eps,2022.2.5,MacIntel,59.99880002,5f466020c3a053038da47399,64c7fed44a04f777bb1e18ce,64c8008322ff95f1f4a277bb,right,1,0.75,0.5,2,0.008990057,0.1967,15,0,15,0,1,,,,,,,,,,
,,468679,001,2023-07-31_19h43.33.337,arm3_eps,2022.2.5,MacIntel,59.99880002,5f466020c3a053038da47399,64c7fed44a04f777bb1e18ce,64c8008322ff95f1f4a277bb,right,1,0.75,0.5,2,0.012206658,0.2195,16,0,16,0,1,,,,,,,,,,
,,468679,001,2023-07-31_19h43.33.337,arm3_eps,2022.2.5,MacIntel,59.99880002,5f466020c3a053038da47399,64c7fed44a04f777bb1e18ce,64c8008322ff95f1f4a277bb,down,-1,0.75,0.5,1,0,0.6662,17,0,17,0,1,,,,,,,,,,
,,468679,001,2023-07-31_19h43.33.337,arm3_eps,2022.2.5,MacIntel,59.99880002,5f466020c3a053038da47399,64c7fed44a04f777bb1e18ce,64c8008322ff95f1f4a277bb,right,-1,0.75,0.5,1,-0.02449383,0.5651,18,0,18,0,1,,,,,,,,,,
,,468679,001,2023-07-31_19h43.33.337,arm3_eps,2022.2.5,MacIntel,59.99880002,5f466020c3a053038da47399,64c7fed44a04f777bb1e18ce,64c8008322ff95f1f4a277bb,right,-1,0.75,0.5,1,-0.028044532,0.2696,19,0,19,0,1,,,,,,,,,,
,,468679,001,2023-07-31_19h43.33.337,arm3_eps,2022.2.5,MacIntel,59.99880002,5f466020c3a053038da47399,64c7fed44a04f777bb1e18ce,64c8008322ff95f1f4a277bb,right,-1,0.75,0.5,1,-0.052619389,0.1986,20,0,20,0,1,,,,,,,,,,
,,468679,001,2023-07-31_19h43.33.337,arm3_eps,2022.2.5,MacIntel,59.99880002,5f466020c3a053038da47399,64c7fed44a04f777bb1e18ce,64c8008322ff95f1f4a277bb,down,1,0.75,0.5,2,0,0.5007,21,0,21,0,1,,,,,,,,,,
,,468679,001,2023-07-31_19h43.33.337,arm3_eps,2022.2.5,MacIntel,59.99880002,5f466020c3a053038da47399,64c7fed44a04f777bb1e18ce,64c8008322ff95f1f4a277bb,right,1,0.75,0.5,2,0.025896284,0.364,22,0,22,0,1,,,,,,,,,,
,,468679,001,2023-07-31_19h43.33.337,arm3_eps,2022.2.5,MacIntel,59.99880002,5f466020c3a053038da47399,64c7fed44a04f777bb1e18ce,64c8008322ff95f1f4a277bb,right,1,0.75,0.5,2,0.043948057,0.3488,23,0,23,0,1,,,,,,,,,,
,,468679,001,2023-07-31_19h43.33.337,arm3_eps,2022.2.5,MacIntel,59.99880002,5f466020c3a053038da47399,64c7fed44a04f777bb1e18ce,64c8008322ff95f1f4a277bb,right,1,0.75,0.5,2,0.049573634,0.4191,24,0,24,0,1,,,,,,,,,,
,,468679,001,2023-07-31_19h43.33.337,arm3_eps,2022.2.5,MacIntel,59.99880002,5f466020c3a053038da47399,64c7fed44a04f777bb1e18ce,64c8008322ff95f1f4a277bb,up,1,0.75,0.5,3,0,0.2285,25,0,25,0,1,,,,,,,,,,
,,468679,001,2023-07-31_19h43.33.337,arm3_eps,2022.2.5,MacIntel,59.99880002,5f466020c3a053038da47399,64c7fed44a04f777bb1e18ce,64c8008322ff95f1f4a277bb,right,1,0.75,0.5,3,-0.015058071,0.4662,26,0,26,0,1,,,,,,,,,,
,,468679,001,2023-07-31_19h43.33.337,arm3_eps,2022.2.5,MacIntel,59.99880002,5f466020c3a053038da47399,64c7fed44a04f777bb1e18ce,64c8008322ff95f1f4a277bb,right,1,0.75,0.5,3,-0.013216125,0.2419,27,0,27,0,1,,,,,,,,,,
,,468679,001,2023-07-31_19h43.33.337,arm3_eps,2022.2.5,MacIntel,59.99880002,5f466020c3a053038da47399,64c7fed44a04f777bb1e18ce,64c8008322ff95f1f4a277bb,right,1,0.75,0.5,3,-0.032610254,0.2181,28,0,28,0,1,,,,,,,,,,
,,468679,001,2023-07-31_19h43.33.337,arm3_eps,2022.2.5,MacIntel,59.99880002,5f466020c3a053038da47399,64c7fed44a04f777bb1e18ce,64c8008322ff95f1f4a277bb,right,1,0.75,0.5,3,-0.019827516,0.4692,29,0,29,0,1,,,,,,,,,,
,,468679,001,2023-07-31_19h43.33.337,arm3_eps,2022.2.5,MacIntel,59.99880002,5f466020c3a053038da47399,64c7fed44a04f777bb1e18ce,64c8008322ff95f1f4a277bb,down,1,0.75,0.5,3,0,0.4716,30,0,30,0,1,,,,,,,,,,
,,468679,001,2023-07-31_19h43.33.337,arm3_eps,2022.2.5,MacIntel,59.99880002,5f466020c3a053038da47399,64c7fed44a04f777bb1e18ce,64c8008322ff95f1f4a277bb,right,1,0.75,0.5,3,-0.008233935,0.5444,31,0,31,0,1,,,,,,,,,,
,,468679,001,2023-07-31_19h43.33.337,arm3_eps,2022.2.5,MacIntel,59.99880002,5f466020c3a053038da47399,64c7fed44a04f777bb1e18ce,64c8008322ff95f1f4a277bb,right,1,0.75,0.5,3,0.001747963,0.2633,32,0,32,0,1,,,,,,,,,,
,,468679,001,2023-07-31_19h43.33.337,arm3_eps,2022.2.5,MacIntel,59.99880002,5f466020c3a053038da47399,64c7fed44a04f777bb1e18ce,64c8008322ff95f1f4a277bb,right,1,0.75,0.5,3,0.023207665,0.198,33,0,33,0,1,,,,,,,,,,
,,468679,001,2023-07-31_19h43.33.337,arm3_eps,2022.2.5,MacIntel,59.99880002,5f466020c3a053038da47399,64c7fed44a04f777bb1e18ce,64c8008322ff95f1f4a277bb,right,1,0.75,0.5,3,0.040949092,0.2837,34,0,34,0,1,,,,,,,,,,
,,468679,001,2023-07-31_19h43.33.337,arm3_eps,2022.2.5,MacIntel,59.99880002,5f466020c3a053038da47399,64c7fed44a04f777bb1e18ce,64c8008322ff95f1f4a277bb,up,-1,0.75,0.5,4,0,0.2669,35,0,35,0,1,,,,,,,,,,
,,468679,001,2023-07-31_19h43.33.337,arm3_eps,2022.2.5,MacIntel,59.99880002,5f466020c3a053038da47399,64c7fed44a04f777bb1e18ce,64c8008322ff95f1f4a277bb,right,-1,0.75,0.5,4,-0.023155056,0.4,36,0,36,0,1,,,,,,,,,,
,,468679,001,2023-07-31_19h43.33.337,arm3_eps,2022.2.5,MacIntel,59.99880002,5f466020c3a053038da47399,64c7fed44a04f777bb1e18ce,64c8008322ff95f1f4a277bb,right,-1,0.75,0.5,4,-0.024323926,0.2695,37,0,37,0,1,,,,,,,,,,
,,468679,001,2023-07-31_19h43.33.337,arm3_eps,2022.2.5,MacIntel,59.99880002,5f466020c3a053038da47399,64c7fed44a04f777bb1e18ce,64c8008322ff95f1f4a277bb,right,-1,0.75,0.5,4,-0.052339383,0.2351,38,0,38,0,1,,,,,,,,,,
,,468679,001,2023-07-31_19h43.33.337,arm3_eps,2022.2.5,MacIntel,59.99880002,5f466020c3a053038da47399,64c7fed44a04f777bb1e18ce,64c8008322ff95f1f4a277bb,down,1,0.75,0.5,4,0,0.3551,39,0,39,0,1,,,,,,,,,,
,,468679,001,2023-07-31_19h43.33.337,arm3_eps,2022.2.5,MacIntel,59.99880002,5f466020c3a053038da47399,64c7fed44a04f777bb1e18ce,64c8008322ff95f1f4a277bb,right,1,0.75,0.5,4,-0.012722012,0.3953,40,0,40,0,1,,,,,,,,,,
,,468679,001,2023-07-31_19h43.33.337,arm3_eps,2022.2.5,MacIntel,59.99880002,5f466020c3a053038da47399,64c7fed44a04f777bb1e18ce,64c8008322ff95f1f4a277bb,right,1,0.75,0.5,4,-0.003764822,0.2805,41,0,41,0,1,,,,,,,,,,
,,468679,001,2023-07-31_19h43.33.337,arm3_eps,2022.2.5,MacIntel,59.99880002,5f466020c3a053038da47399,64c7fed44a04f777bb1e18ce,64c8008322ff95f1f4a277bb,right,1,0.75,0.5,4,-0.004464979,0.1872,42,0,42,0,1,,,,,,,,,,
,,468679,001,2023-07-31_19h43.33.337,arm3_eps,2022.2.5,MacIntel,59.99880002,5f466020c3a053038da47399,64c7fed44a04f777bb1e18ce,64c8008322ff95f1f4a277bb,right,1,0.75,0.5,4,0.004673664,0.2016,43,0,43,0,1,,,,,,,,,,
,,468679,001,2023-07-31_19h43.33.337,arm3_eps,2022.2.5,MacIntel,59.99880002,5f466020c3a053038da47399,64c7fed44a04f777bb1e18ce,64c8008322ff95f1f4a277bb,up,-1,0.75,0.5,5,0,0.3779,44,0,44,0,1,,,,,,,,,,
,,468679,001,2023-07-31_19h43.33.337,arm3_eps,2022.2.5,MacIntel,59.99880002,5f466020c3a053038da47399,64c7fed44a04f777bb1e18ce,64c8008322ff95f1f4a277bb,right,-1,0.75,0.5,5,-0.016004002,0.4643,45,0,45,0,1,,,,,,,,,,
,,468679,001,2023-07-31_19h43.33.337,arm3_eps,2022.2.5,MacIntel,59.99880002,5f466020c3a053038da47399,64c7fed44a04f777bb1e18ce,64c8008322ff95f1f4a277bb,right,-1,0.75,0.5,5,-0.015896665,0.2594,46,0,46,0,1,,,,,,,,,,
,,468679,001,2023-07-31_19h43.33.337,arm3_eps,2022.2.5,MacIntel,59.99880002,5f466020c3a053038da47399,64c7fed44a04f777bb1e18ce,64c8008322ff95f1f4a277bb,right,-1,0.75,0.5,5,-0.04355288,0.1991,47,0,47,0,1,,,,,,,,,,
,,468679,001,2023-07-31_19h43.33.337,arm3_eps,2022.2.5,MacIntel,59.99880002,5f466020c3a053038da47399,64c7fed44a04f777bb1e18ce,64c8008322ff95f1f4a277bb,right,-1,0.75,0.5,5,-0.068621293,0.1877,48,0,48,0,1,,,,,,,,,,
,,468679,001,2023-07-31_19h43.33.337,arm3_eps,2022.2.5,MacIntel,59.99880002,5f466020c3a053038da47399,64c7fed44a04f777bb1e18ce,64c8008322ff95f1f4a277bb,down,-1,0.75,0.5,5,-0.068621293,0.5673,49,0,49,0,1,,,,,,,,,,
space,1.669,468679,001,2023-07-31_19h43.33.337,arm3_eps,2022.2.5,MacIntel,59.99880002,5f466020c3a053038da47399,64c7fed44a04f777bb1e18ce,64c8008322ff95f1f4a277bb,,,,,,,,,,,,,,,,,,,,,,
space,2.8937,468679,001,2023-07-31_19h43.33.337,arm3_eps,2022.2.5,MacIntel,59.99880002,5f466020c3a053038da47399,64c7fed44a04f777bb1e18ce,64c8008322ff95f1f4a277bb,right,-1,0.75,0.1143,0,-0.02295492,1.1292,,,,,,0,0,0,0,1,,,,,
,,468679,001,2023-07-31_19h43.33.337,arm3_eps,2022.2.5,MacIntel,59.99880002,5f466020c3a053038da47399,64c7fed44a04f777bb1e18ce,64c8008322ff95f1f4a277bb,right,-1,0.75,0.1143,0,-0.063884134,0.3445,,,,,,1,0,1,0,1,,,,,
,,468679,001,2023-07-31_19h43.33.337,arm3_eps,2022.2.5,MacIntel,59.99880002,5f466020c3a053038da47399,64c7fed44a04f777bb1e18ce,64c8008322ff95f1f4a277bb,right,-1,0.75,0.1143,0,-0.05608978,0.3618,,,,,,2,0,2,0,1,,,,,
,,468679,001,2023-07-31_19h43.33.337,arm3_eps,2022.2.5,MacIntel,59.99880002,5f466020c3a053038da47399,64c7fed44a04f777bb1e18ce,64c8008322ff95f1f4a277bb,down,-1,0.75,0.1143,0,0,0.2379,,,,,,3,0,3,0,1,,,,,
,,468679,001,2023-07-31_19h43.33.337,arm3_eps,2022.2.5,MacIntel,59.99880002,5f466020c3a053038da47399,64c7fed44a04f777bb1e18ce,64c8008322ff95f1f4a277bb,right,-1,0.75,0.1143,0,-0.021862319,0.5781,,,,,,4,0,4,0,1,,,,,
,,468679,001,2023-07-31_19h43.33.337,arm3_eps,2022.2.5,MacIntel,59.99880002,5f466020c3a053038da47399,64c7fed44a04f777bb1e18ce,64c8008322ff95f1f4a277bb,right,-1,0.75,0.1143,0,-0.028857187,0.2719,,,,,,5,0,5,0,1,,,,,
,,468679,001,2023-07-31_19h43.33.337,arm3_eps,2022.2.5,MacIntel,59.99880002,5f466020c3a053038da47399,64c7fed44a04f777bb1e18ce,64c8008322ff95f1f4a277bb,right,-1,0.75,0.1143,0,-0.029035824,0.3149,,,,,,6,0,6,0,1,,,,,
,,468679,001,2023-07-31_19h43.33.337,arm3_eps,2022.2.5,MacIntel,59.99880002,5f466020c3a053038da47399,64c7fed44a04f777bb1e18ce,64c8008322ff95f1f4a277bb,down,-1,0.75,0.1143,1,0,0.4677,,,,,,7,0,7,0,1,,,,,
,,468679,001,2023-07-31_19h43.33.337,arm3_eps,2022.2.5,MacIntel,59.99880002,5f466020c3a053038da47399,64c7fed44a04f777bb1e18ce,64c8008322ff95f1f4a277bb,right,-1,0.75,0.1143,1,0.014725296,0.4635,,,,,,8,0,8,0,1,,,,,
,,468679,001,2023-07-31_19h43.33.337,arm3_eps,2022.2.5,MacIntel,59.99880002,5f466020c3a053038da47399,64c7fed44a04f777bb1e18ce,64c8008322ff95f1f4a277bb,right,-1,0.75,0.1143,1,0.036833331,0.2846,,,,,,9,0,9,0,1,,,,,
,,468679,001,2023-07-31_19h43.33.337,arm3_eps,2022.2.5,MacIntel,59.99880002,5f466020c3a053038da47399,64c7fed44a04f777bb1e18ce,64c8008322ff95f1f4a277bb,right,-1,0.75,0.1143,1,0.004804358,0.5833,,,,,,10,0,10,0,1,,,,,
,,468679,001,2023-07-31_19h43.33.337,arm3_eps,2022.2.5,MacIntel,59.99880002,5f466020c3a053038da47399,64c7fed44a04f777bb1e18ce,64c8008322ff95f1f4a277bb,right,-1,0.75,0.1143,1,0.001110689,0.4627,,,,,,11,0,11,0,1,,,,,
,,468679,001,2023-07-31_19h43.33.337,arm3_eps,2022.2.5,MacIntel,59.99880002,5f466020c3a053038da47399,64c7fed44a04f777bb1e18ce,64c8008322ff95f1f4a277bb,down,-1,0.75,0.1143,1,0,0.3821,,,,,,12,0,12,0,1,,,,,
,,468679,001,2023-07-31_19h43.33.337,arm3_eps,2022.2.5,MacIntel,59.99880002,5f466020c3a053038da47399,64c7fed44a04f777bb1e18ce,64c8008322ff95f1f4a277bb,right,-1,0.75,0.1143,1,-0.001606556,0.5051,,,,,,13,0,13,0,1,,,,,
,,468679,001,2023-07-31_19h43.33.337,arm3_eps,2022.2.5,MacIntel,59.99880002,5f466020c3a053038da47399,64c7fed44a04f777bb1e18ce,64c8008322ff95f1f4a277bb,right,-1,0.75,0.1143,1,0.000677813,0.2856,,,,,,14,0,14,0,1,,,,,
,,468679,001,2023-07-31_19h43.33.337,arm3_eps,2022.2.5,MacIntel,59.99880002,5f466020c3a053038da47399,64c7fed44a04f777bb1e18ce,64c8008322ff95f1f4a277bb,right,-1,0.75,0.1143,1,-0.017165655,0.2975,,,,,,15,0,15,0,1,,,,,
,,468679,001,2023-07-31_19h43.33.337,arm3_eps,2022.2.5,MacIntel,59.99880002,5f466020c3a053038da47399,64c7fed44a04f777bb1e18ce,64c8008322ff95f1f4a277bb,down,-1,0.75,0.1143,2,0,0.4153,,,,,,16,0,16,0,1,,,,,
,,468679,001,2023-07-31_19h43.33.337,arm3_eps,2022.2.5,MacIntel,59.99880002,5f466020c3a053038da47399,64c7fed44a04f777bb1e18ce,64c8008322ff95f1f4a277bb,right,-1,0.75,0.1143,2,-0.017507302,0.4329,,,,,,17,0,17,0,1,,,,,
,,468679,001,2023-07-31_19h43.33.337,arm3_eps,2022.2.5,MacIntel,59.99880002,5f466020c3a053038da47399,64c7fed44a04f777bb1e18ce,64c8008322ff95f1f4a277bb,right,-1,0.75,0.1143,2,-0.02396578,0.2965,,,,,,18,0,18,0,1,,,,,
,,468679,001,2023-07-31_19h43.33.337,arm3_eps,2022.2.5,MacIntel,59.99880002,5f466020c3a053038da47399,64c7fed44a04f777bb1e18ce,64c8008322ff95f1f4a277bb,right,-1,0.75,0.1143,2,-0.050469853,0.3326,,,,,,19,0,19,0,1,,,,,
,,468679,001,2023-07-31_19h43.33.337,arm3_eps,2022.2.5,MacIntel,59.99880002,5f466020c3a053038da47399,64c7fed44a04f777bb1e18ce,64c8008322ff95f1f4a277bb,down,-1,0.75,0.1143,3,0,0.1795,,,,,,20,0,20,0,1,,,,,
,,468679,001,2023-07-31_19h43.33.337,arm3_eps,2022.2.5,MacIntel,59.99880002,5f466020c3a053038da47399,64c7fed44a04f777bb1e18ce,64c8008322ff95f1f4a277bb,right,-1,0.75,0.1143,3,-0.052242015,0.6144,,,,,,21,0,21,0,1,,,,,
,,468679,001,2023-07-31_19h43.33.337,arm3_eps,2022.2.5,MacIntel,59.99880002,5f466020c3a053038da47399,64c7fed44a04f777bb1e18ce,64c8008322ff95f1f4a277bb,right,-1,0.75,0.1143,3,-0.053418324,0.3001,,,,,,22,0,22,0,1,,,,,
,,468679,001,2023-07-31_19h43.33.337,arm3_eps,2022.2.5,MacIntel,59.99880002,5f466020c3a053038da47399,64c7fed44a04f777bb1e18ce,64c8008322ff95f1f4a277bb,right,-1,0.75,0.1143,3,-0.056482805,0.226,,,,,,23,0,23,0,1,,,,,
,,468679,001,2023-07-31_19h43.33.337,arm3_eps,2022.2.5,MacIntel,59.99880002,5f466020c3a053038da47399,64c7fed44a04f777bb1e18ce,64c8008322ff95f1f4a277bb,right,-1,0.75,0.1143,3,-0.074818361,0.2949,,,,,,24,0,24,0,1,,,,,
,,468679,001,2023-07-31_19h43.33.337,arm3_eps,2022.2.5,MacIntel,59.99880002,5f466020c3a053038da47399,64c7fed44a04f777bb1e18ce,64c8008322ff95f1f4a277bb,down,-1,0.75,0.1143,4,0,0.2342,,,,,,25,0,25,0,1,,,,,
,,468679,001,2023-07-31_19h43.33.337,arm3_eps,2022.2.5,MacIntel,59.99880002,5f466020c3a053038da47399,64c7fed44a04f777bb1e18ce,64c8008322ff95f1f4a277bb,right,-1,0.75,0.1143,4,-0.02142565,0.4755,,,,,,26,0,26,0,1,,,,,
,,468679,001,2023-07-31_19h43.33.337,arm3_eps,2022.2.5,MacIntel,59.99880002,5f466020c3a053038da47399,64c7fed44a04f777bb1e18ce,64c8008322ff95f1f4a277bb,right,-1,0.75,0.1143,4,-0.05710146,0.314,,,,,,27,0,27,0,1,,,,,
,,468679,001,2023-07-31_19h43.33.337,arm3_eps,2022.2.5,MacIntel,59.99880002,5f466020c3a053038da47399,64c7fed44a04f777bb1e18ce,64c8008322ff95f1f4a277bb,right,-1,0.75,0.1143,4,-0.074762433,0.3496,,,,,,28,0,28,0,1,,,,,
,,468679,001,2023-07-31_19h43.33.337,arm3_eps,2022.2.5,MacIntel,59.99880002,5f466020c3a053038da47399,64c7fed44a04f777bb1e18ce,64c8008322ff95f1f4a277bb,down,-1,0.75,0.1143,5,0,0.1675,,,,,,29,0,29,0,1,,,,,
,,468679,001,2023-07-31_19h43.33.337,arm3_eps,2022.2.5,MacIntel,59.99880002,5f466020c3a053038da47399,64c7fed44a04f777bb1e18ce,64c8008322ff95f1f4a277bb,right,-1,0.75,0.1143,5,-0.029589365,0.4086,,,,,,30,0,30,0,1,,,,,
,,468679,001,2023-07-31_19h43.33.337,arm3_eps,2022.2.5,MacIntel,59.99880002,5f466020c3a053038da47399,64c7fed44a04f777bb1e18ce,64c8008322ff95f1f4a277bb,right,-1,0.75,0.1143,5,-0.043326079,0.313,,,,,,31,0,31,0,1,,,,,
,,468679,001,2023-07-31_19h43.33.337,arm3_eps,2022.2.5,MacIntel,59.99880002,5f466020c3a053038da47399,64c7fed44a04f777bb1e18ce,64c8008322ff95f1f4a277bb,right,-1,0.75,0.1143,5,-0.052680286,0.3497,,,,,,32,0,32,0,1,,,,,
,,468679,001,2023-07-31_19h43.33.337,arm3_eps,2022.2.5,MacIntel,59.99880002,5f466020c3a053038da47399,64c7fed44a04f777bb1e18ce,64c8008322ff95f1f4a277bb,down,-1,0.75,0.1143,5,0,0.2128,,,,,,33,0,33,0,1,,,,,
,,468679,001,2023-07-31_19h43.33.337,arm3_eps,2022.2.5,MacIntel,59.99880002,5f466020c3a053038da47399,64c7fed44a04f777bb1e18ce,64c8008322ff95f1f4a277bb,right,-1,0.75,0.1143,5,0.007541809,0.663,,,,,,34,0,34,0,1,,,,,
,,468679,001,2023-07-31_19h43.33.337,arm3_eps,2022.2.5,MacIntel,59.99880002,5f466020c3a053038da47399,64c7fed44a04f777bb1e18ce,64c8008322ff95f1f4a277bb,right,-1,0.75,0.1143,5,0.030980978,0.5006,,,,,,35,0,35,0,1,,,,,
,,468679,001,2023-07-31_19h43.33.337,arm3_eps,2022.2.5,MacIntel,59.99880002,5f466020c3a053038da47399,64c7fed44a04f777bb1e18ce,64c8008322ff95f1f4a277bb,down,-1,0.75,0.1143,5,0,0.2021,,,,,,36,0,36,0,1,,,,,
,,468679,001,2023-07-31_19h43.33.337,arm3_eps,2022.2.5,MacIntel,59.99880002,5f466020c3a053038da47399,64c7fed44a04f777bb1e18ce,64c8008322ff95f1f4a277bb,right,-1,0.75,0.1143,5,0.001006219,0.976,,,,,,37,0,37,0,1,,,,,
,,468679,001,2023-07-31_19h43.33.337,arm3_eps,2022.2.5,MacIntel,59.99880002,5f466020c3a053038da47399,64c7fed44a04f777bb1e18ce,64c8008322ff95f1f4a277bb,right,-1,0.75,0.1143,5,-0.009626995,0.2958,,,,,,38,0,38,0,1,,,,,
,,468679,001,2023-07-31_19h43.33.337,arm3_eps,2022.2.5,MacIntel,59.99880002,5f466020c3a053038da47399,64c7fed44a04f777bb1e18ce,64c8008322ff95f1f4a277bb,down,1,0.75,0.1143,5,0,0.4975,,,,,,39,0,39,0,1,,,,,
,,468679,001,2023-07-31_19h43.33.337,arm3_eps,2022.2.5,MacIntel,59.99880002,5f466020c3a053038da47399,64c7fed44a04f777bb1e18ce,64c8008322ff95f1f4a277bb,right,1,0.75,0.1143,5,0.01730677,0.4472,,,,,,40,0,40,0,1,,,,,
,,468679,001,2023-07-31_19h43.33.337,arm3_eps,2022.2.5,MacIntel,59.99880002,5f466020c3a053038da47399,64c7fed44a04f777bb1e18ce,64c8008322ff95f1f4a277bb,right,1,0.75,0.1143,5,0.024278849,0.2623,,,,,,41,0,41,0,1,,,,,
,,468679,001,2023-07-31_19h43.33.337,arm3_eps,2022.2.5,MacIntel,59.99880002,5f466020c3a053038da47399,64c7fed44a04f777bb1e18ce,64c8008322ff95f1f4a277bb,right,1,0.75,0.1143,5,0.078251754,0.2409,,,,,,42,0,42,0,1,,,,,
,,468679,001,2023-07-31_19h43.33.337,arm3_eps,2022.2.5,MacIntel,59.99880002,5f466020c3a053038da47399,64c7fed44a04f777bb1e18ce,64c8008322ff95f1f4a277bb,up,1,0.75,0.1143,6,0,0.5094,,,,,,43,0,43,0,1,,,,,
,,468679,001,2023-07-31_19h43.33.337,arm3_eps,2022.2.5,MacIntel,59.99880002,5f466020c3a053038da47399,64c7fed44a04f777bb1e18ce,64c8008322ff95f1f4a277bb,right,1,0.75,0.1143,6,0.027288598,0.7291,,,,,,44,0,44,0,1,,,,,
,,468679,001,2023-07-31_19h43.33.337,arm3_eps,2022.2.5,MacIntel,59.99880002,5f466020c3a053038da47399,64c7fed44a04f777bb1e18ce,64c8008322ff95f1f4a277bb,right,1,0.75,0.1143,6,0.029074629,0.2459,,,,,,45,0,45,0,1,,,,,
,,468679,001,2023-07-31_19h43.33.337,arm3_eps,2022.2.5,MacIntel,59.99880002,5f466020c3a053038da47399,64c7fed44a04f777bb1e18ce,64c8008322ff95f1f4a277bb,right,1,0.75,0.1143,6,0.021026426,0.2237,,,,,,46,0,46,0,1,,,,,
,,468679,001,2023-07-31_19h43.33.337,arm3_eps,2022.2.5,MacIntel,59.99880002,5f466020c3a053038da47399,64c7fed44a04f777bb1e18ce,64c8008322ff95f1f4a277bb,right,1,0.75,0.1143,6,0.018965113,0.2555,,,,,,47,0,47,0,1,,,,,
,,468679,001,2023-07-31_19h43.33.337,arm3_eps,2022.2.5,MacIntel,59.99880002,5f466020c3a053038da47399,64c7fed44a04f777bb1e18ce,64c8008322ff95f1f4a277bb,up,1,0.75,0.1143,6,0,0.4563,,,,,,48,0,48,0,1,,,,,
,,468679,001,2023-07-31_19h43.33.337,arm3_eps,2022.2.5,MacIntel,59.99880002,5f466020c3a053038da47399,64c7fed44a04f777bb1e18ce,64c8008322ff95f1f4a277bb,right,1,0.75,0.1143,6,0.004503794,0.8288,,,,,,49,0,49,0,1,,,,,
,,468679,001,2023-07-31_19h43.33.337,arm3_eps,2022.2.5,MacIntel,59.99880002,5f466020c3a053038da47399,64c7fed44a04f777bb1e18ce,64c8008322ff95f1f4a277bb,right,1,0.75,0.1143,6,0.044241622,0.274,,,,,,50,0,50,0,1,,,,,
,,468679,001,2023-07-31_19h43.33.337,arm3_eps,2022.2.5,MacIntel,59.99880002,5f466020c3a053038da47399,64c7fed44a04f777bb1e18ce,64c8008322ff95f1f4a277bb,right,1,0.75,0.1143,6,0.039018596,0.2521,,,,,,51,0,51,0,1,,,,,
,,468679,001,2023-07-31_19h43.33.337,arm3_eps,2022.2.5,MacIntel,59.99880002,5f466020c3a053038da47399,64c7fed44a04f777bb1e18ce,64c8008322ff95f1f4a277bb,right,1,0.75,0.1143,6,0.046327203,0.1969,,,,,,52,0,52,0,1,,,,,
,,468679,001,2023-07-31_19h43.33.337,arm3_eps,2022.2.5,MacIntel,59.99880002,5f466020c3a053038da47399,64c7fed44a04f777bb1e18ce,64c8008322ff95f1f4a277bb,right,1,0.75,0.1143,6,0.075448747,0.1795,,,,,,53,0,53,0,1,,,,,
,,468679,001,2023-07-31_19h43.33.337,arm3_eps,2022.2.5,MacIntel,59.99880002,5f466020c3a053038da47399,64c7fed44a04f777bb1e18ce,64c8008322ff95f1f4a277bb,up,-1,0.75,0.1143,6,0,0.3504,,,,,,54,0,54,0,1,,,,,
,,468679,001,2023-07-31_19h43.33.337,arm3_eps,2022.2.5,MacIntel,59.99880002,5f466020c3a053038da47399,64c7fed44a04f777bb1e18ce,64c8008322ff95f1f4a277bb,right,-1,0.75,0.1143,6,-0.027879418,0.5847,,,,,,55,0,55,0,1,,,,,
,,468679,001,2023-07-31_19h43.33.337,arm3_eps,2022.2.5,MacIntel,59.99880002,5f466020c3a053038da47399,64c7fed44a04f777bb1e18ce,64c8008322ff95f1f4a277bb,right,-1,0.75,0.1143,6,-0.035413398,0.2476,,,,,,56,0,56,0,1,,,,,
,,468679,001,2023-07-31_19h43.33.337,arm3_eps,2022.2.5,MacIntel,59.99880002,5f466020c3a053038da47399,64c7fed44a04f777bb1e18ce,64c8008322ff95f1f4a277bb,right,-1,0.75,0.1143,6,-0.013664879,0.1802,,,,,,57,0,57,0,1,,,,,
,,468679,001,2023-07-31_19h43.33.337,arm3_eps,2022.2.5,MacIntel,59.99880002,5f466020c3a053038da47399,64c7fed44a04f777bb1e18ce,64c8008322ff95f1f4a277bb,right,-1,0.75,0.1143,6,-0.019134723,0.2217,,,,,,58,0,58,0,1,,,,,
,,468679,001,2023-07-31_19h43.33.337,arm3_eps,2022.2.5,MacIntel,59.99880002,5f466020c3a053038da47399,64c7fed44a04f777bb1e18ce,64c8008322ff95f1f4a277bb,down,-1,0.75,0.1143,7,0,0.8978,,,,,,59,0,59,0,1,,,,,
,,468679,001,2023-07-31_19h43.33.337,arm3_eps,2022.2.5,MacIntel,59.99880002,5f466020c3a053038da47399,64c7fed44a04f777bb1e18ce,64c8008322ff95f1f4a277bb,right,-1,0.75,0.1143,7,-0.018187661,1.1864,,,,,,60,0,60,0,1,,,,,
,,468679,001,2023-07-31_19h43.33.337,arm3_eps,2022.2.5,MacIntel,59.99880002,5f466020c3a053038da47399,64c7fed44a04f777bb1e18ce,64c8008322ff95f1f4a277bb,right,-1,0.75,0.1143,7,-0.012107895,0.2532,,,,,,61,0,61,0,1,,,,,
,,468679,001,2023-07-31_19h43.33.337,arm3_eps,2022.2.5,MacIntel,59.99880002,5f466020c3a053038da47399,64c7fed44a04f777bb1e18ce,64c8008322ff95f1f4a277bb,right,-1,0.75,0.1143,7,0.015520988,0.199,,,,,,62,0,62,0,1,,,,,
,,468679,001,2023-07-31_19h43.33.337,arm3_eps,2022.2.5,MacIntel,59.99880002,5f466020c3a053038da47399,64c7fed44a04f777bb1e18ce,64c8008322ff95f1f4a277bb,right,-1,0.75,0.1143,7,-0.007064121,0.4165,,,,,,63,0,63,0,1,,,,,
,,468679,001,2023-07-31_19h43.33.337,arm3_eps,2022.2.5,MacIntel,59.99880002,5f466020c3a053038da47399,64c7fed44a04f777bb1e18ce,64c8008322ff95f1f4a277bb,right,-1,0.75,0.1143,7,-0.007354975,0.4317,,,,,,64,0,64,0,1,,,,,
,,468679,001,2023-07-31_19h43.33.337,arm3_eps,2022.2.5,MacIntel,59.99880002,5f466020c3a053038da47399,64c7fed44a04f777bb1e18ce,64c8008322ff95f1f4a277bb,right,-1,0.75,0.1143,7,0.003476168,0.4639,,,,,,65,0,65,0,1,,,,,
,,468679,001,2023-07-31_19h43.33.337,arm3_eps,2022.2.5,MacIntel,59.99880002,5f466020c3a053038da47399,64c7fed44a04f777bb1e18ce,64c8008322ff95f1f4a277bb,right,-1,0.75,0.1143,7,-0.017105521,0.2836,,,,,,66,0,66,0,1,,,,,
,,468679,001,2023-07-31_19h43.33.337,arm3_eps,2022.2.5,MacIntel,59.99880002,5f466020c3a053038da47399,64c7fed44a04f777bb1e18ce,64c8008322ff95f1f4a277bb,right,-1,0.75,0.1143,7,-0.030943765,0.3474,,,,,,67,0,67,0,1,,,,,
,,468679,001,2023-07-31_19h43.33.337,arm3_eps,2022.2.5,MacIntel,59.99880002,5f466020c3a053038da47399,64c7fed44a04f777bb1e18ce,64c8008322ff95f1f4a277bb,right,-1,0.75,0.1143,7,-0.038285743,0.7,,,,,,68,0,68,0,1,,,,,
,,468679,001,2023-07-31_19h43.33.337,arm3_eps,2022.2.5,MacIntel,59.99880002,5f466020c3a053038da47399,64c7fed44a04f777bb1e18ce,64c8008322ff95f1f4a277bb,down,-1,0.75,0.1143,8,0,0.2999,,,,,,69,0,69,0,1,,,,,
,,468679,001,2023-07-31_19h43.33.337,arm3_eps,2022.2.5,MacIntel,59.99880002,5f466020c3a053038da47399,64c7fed44a04f777bb1e18ce,64c8008322ff95f1f4a277bb,right,-1,0.75,0.1143,8,0.016063633,0.8264,,,,,,70,0,70,0,1,,,,,
,,468679,001,2023-07-31_19h43.33.337,arm3_eps,2022.2.5,MacIntel,59.99880002,5f466020c3a053038da47399,64c7fed44a04f777bb1e18ce,64c8008322ff95f1f4a277bb,right,-1,0.75,0.1143,8,0.005017563,0.2337,,,,,,71,0,71,0,1,,,,,
,,468679,001,2023-07-31_19h43.33.337,arm3_eps,2022.2.5,MacIntel,59.99880002,5f466020c3a053038da47399,64c7fed44a04f777bb1e18ce,64c8008322ff95f1f4a277bb,right,-1,0.75,0.1143,8,-0.006456102,0.1827,,,,,,72,0,72,0,1,,,,,
,,468679,001,2023-07-31_19h43.33.337,arm3_eps,2022.2.5,MacIntel,59.99880002,5f466020c3a053038da47399,64c7fed44a04f777bb1e18ce,64c8008322ff95f1f4a277bb,right,-1,0.75,0.1143,8,-0.035036231,0.1526,,,,,,73,0,73,0,1,,,,,
,,468679,001,2023-07-31_19h43.33.337,arm3_eps,2022.2.5,MacIntel,59.99880002,5f466020c3a053038da47399,64c7fed44a04f777bb1e18ce,64c8008322ff95f1f4a277bb,down,-1,0.75,0.1143,9,0,0.3823,,,,,,74,0,74,0,1,,,,,
,,468679,001,2023-07-31_19h43.33.337,arm3_eps,2022.2.5,MacIntel,59.99880002,5f466020c3a053038da47399,64c7fed44a04f777bb1e18ce,64c8008322ff95f1f4a277bb,right,-1,0.75,0.1143,9,0.03619573,0.3839,,,,,,75,0,75,0,1,,,,,
,,468679,001,2023-07-31_19h43.33.337,arm3_eps,2022.2.5,MacIntel,59.99880002,5f466020c3a053038da47399,64c7fed44a04f777bb1e18ce,64c8008322ff95f1f4a277bb,right,-1,0.75,0.1143,9,0.013686118,0.2863,,,,,,76,0,76,0,1,,,,,
,,468679,001,2023-07-31_19h43.33.337,arm3_eps,2022.2.5,MacIntel,59.99880002,5f466020c3a053038da47399,64c7fed44a04f777bb1e18ce,64c8008322ff95f1f4a277bb,right,-1,0.75,0.1143,9,0.008161011,0.2073,,,,,,77,0,77,0,1,,,,,
,,468679,001,2023-07-31_19h43.33.337,arm3_eps,2022.2.5,MacIntel,59.99880002,5f466020c3a053038da47399,64c7fed44a04f777bb1e18ce,64c8008322ff95f1f4a277bb,right,-1,0.75,0.1143,9,0.004054489,0.4474,,,,,,78,0,78,0,1,,,,,
,,468679,001,2023-07-31_19h43.33.337,arm3_eps,2022.2.5,MacIntel,59.99880002,5f466020c3a053038da47399,64c7fed44a04f777bb1e18ce,64c8008322ff95f1f4a277bb,right,-1,0.75,0.1143,9,-0.004105398,0.3821,,,,,,79,0,79,0,1,,,,,
,,468679,001,2023-07-31_19h43.33.337,arm3_eps,2022.2.5,MacIntel,59.99880002,5f466020c3a053038da47399,64c7fed44a04f777bb1e18ce,64c8008322ff95f1f4a277bb,right,-1,0.75,0.1143,9,0.00394362,0.4836,,,,,,80,0,80,0,1,,,,,
,,468679,001,2023-07-31_19h43.33.337,arm3_eps,2022.2.5,MacIntel,59.99880002,5f466020c3a053038da47399,64c7fed44a04f777bb1e18ce,64c8008322ff95f1f4a277bb,right,-1,0.75,0.1143,9,0.011417048,0.3001,,,,,,81,0,81,0,1,,,,,
,,468679,001,2023-07-31_19h43.33.337,arm3_eps,2022.2.5,MacIntel,59.99880002,5f466020c3a053038da47399,64c7fed44a04f777bb1e18ce,64c8008322ff95f1f4a277bb,right,-1,0.75,0.1143,9,0.030525542,0.8691,,,,,,82,0,82,0,1,,,,,
,,468679,001,2023-07-31_19h43.33.337,arm3_eps,2022.2.5,MacIntel,59.99880002,5f466020c3a053038da47399,64c7fed44a04f777bb1e18ce,64c8008322ff95f1f4a277bb,up,-1,0.75,0.1143,8,0,0.2814,,,,,,83,0,83,0,1,,,,,
,,468679,001,2023-07-31_19h43.33.337,arm3_eps,2022.2.5,MacIntel,59.99880002,5f466020c3a053038da47399,64c7fed44a04f777bb1e18ce,64c8008322ff95f1f4a277bb,right,-1,0.75,0.1143,8,-0.026862117,0.7638,,,,,,84,0,84,0,1,,,,,
,,468679,001,2023-07-31_19h43.33.337,arm3_eps,2022.2.5,MacIntel,59.99880002,5f466020c3a053038da47399,64c7fed44a04f777bb1e18ce,64c8008322ff95f1f4a277bb,right,-1,0.75,0.1143,8,-0.039051567,0.2494,,,,,,85,0,85,0,1,,,,,
,,468679,001,2023-07-31_19h43.33.337,arm3_eps,2022.2.5,MacIntel,59.99880002,5f466020c3a053038da47399,64c7fed44a04f777bb1e18ce,64c8008322ff95f1f4a277bb,right,-1,0.75,0.1143,8,-0.048720886,0.1981,,,,,,86,0,86,0,1,,,,,
,,468679,001,2023-07-31_19h43.33.337,arm3_eps,2022.2.5,MacIntel,59.99880002,5f466020c3a053038da47399,64c7fed44a04f777bb1e18ce,64c8008322ff95f1f4a277bb,right,-1,0.75,0.1143,8,-0.038483709,0.1943,,,,,,87,0,87,0,1,,,,,
,,468679,001,2023-07-31_19h43.33.337,arm3_eps,2022.2.5,MacIntel,59.99880002,5f466020c3a053038da47399,64c7fed44a04f777bb1e18ce,64c8008322ff95f1f4a277bb,down,-1,0.75,0.1143,9,0,0.5164,,,,,,88,0,88,0,1,,,,,
,,468679,001,2023-07-31_19h43.33.337,arm3_eps,2022.2.5,MacIntel,59.99880002,5f466020c3a053038da47399,64c7fed44a04f777bb1e18ce,64c8008322ff95f1f4a277bb,right,-1,0.75,0.1143,9,0.010137882,0.3952,,,,,,89,0,89,0,1,,,,,
,,468679,001,2023-07-31_19h43.33.337,arm3_eps,2022.2.5,MacIntel,59.99880002,5f466020c3a053038da47399,64c7fed44a04f777bb1e18ce,64c8008322ff95f1f4a277bb,right,-1,0.75,0.1143,9,0.00854092,0.2473,,,,,,90,0,90,0,1,,,,,
,,468679,001,2023-07-31_19h43.33.337,arm3_eps,2022.2.5,MacIntel,59.99880002,5f466020c3a053038da47399,64c7fed44a04f777bb1e18ce,64c8008322ff95f1f4a277bb,right,-1,0.75,0.1143,9,-0.002409822,0.2511,,,,,,91,0,91,0,1,,,,,
,,468679,001,2023-07-31_19h43.33.337,arm3_eps,2022.2.5,MacIntel,59.99880002,5f466020c3a053038da47399,64c7fed44a04f777bb1e18ce,64c8008322ff95f1f4a277bb,down,-1,0.75,0.1143,10,0,0.4674,,,,,,92,0,92,0,1,,,,,
,,468679,001,2023-07-31_19h43.33.337,arm3_eps,2022.2.5,MacIntel,59.99880002,5f466020c3a053038da47399,64c7fed44a04f777bb1e18ce,64c8008322ff95f1f4a277bb,right,-1,0.75,0.1143,10,-0.028344495,0.4103,,,,,,93,0,93,0,1,,,,,
,,468679,001,2023-07-31_19h43.33.337,arm3_eps,2022.2.5,MacIntel,59.99880002,5f466020c3a053038da47399,64c7fed44a04f777bb1e18ce,64c8008322ff95f1f4a277bb,right,-1,0.75,0.1143,10,-0.025391782,0.2824,,,,,,94,0,94,0,1,,,,,
,,468679,001,2023-07-31_19h43.33.337,arm3_eps,2022.2.5,MacIntel,59.99880002,5f466020c3a053038da47399,64c7fed44a04f777bb1e18ce,64c8008322ff95f1f4a277bb,right,-1,0.75,0.1143,10,-0.058137684,0.3543,,,,,,95,0,95,0,1,,,,,
,,468679,001,2023-07-31_19h43.33.337,arm3_eps,2022.2.5,MacIntel,59.99880002,5f466020c3a053038da47399,64c7fed44a04f777bb1e18ce,64c8008322ff95f1f4a277bb,down,-1,0.75,0.1143,10,0,0.3477,,,,,,96,0,96,0,1,,,,,
,,468679,001,2023-07-31_19h43.33.337,arm3_eps,2022.2.5,MacIntel,59.99880002,5f466020c3a053038da47399,64c7fed44a04f777bb1e18ce,64c8008322ff95f1f4a277bb,right,-1,0.75,0.1143,10,0.020185725,0.7977,,,,,,97,0,97,0,1,,,,,
,,468679,001,2023-07-31_19h43.33.337,arm3_eps,2022.2.5,MacIntel,59.99880002,5f466020c3a053038da47399,64c7fed44a04f777bb1e18ce,64c8008322ff95f1f4a277bb,right,-1,0.75,0.1143,10,0.004459371,0.2489,,,,,,98,0,98,0,1,,,,,
,,468679,001,2023-07-31_19h43.33.337,arm3_eps,2022.2.5,MacIntel,59.99880002,5f466020c3a053038da47399,64c7fed44a04f777bb1e18ce,64c8008322ff95f1f4a277bb,right,-1,0.75,0.1143,10,-0.022158686,0.2054,,,,,,99,0,99,0,1,,,,,
,,468679,001,2023-07-31_19h43.33.337,arm3_eps,2022.2.5,MacIntel,59.99880002,5f466020c3a053038da47399,64c7fed44a04f777bb1e18ce,64c8008322ff95f1f4a277bb,right,-1,0.75,0.1143,10,-0.015707403,0.3694,,,,,,100,0,100,0,1,,,,,
,,468679,001,2023-07-31_19h43.33.337,arm3_eps,2022.2.5,MacIntel,59.99880002,5f466020c3a053038da47399,64c7fed44a04f777bb1e18ce,64c8008322ff95f1f4a277bb,right,-1,0.75,0.1143,10,-0.037118105,0.2494,,,,,,101,0,101,0,1,,,,,
,,468679,001,2023-07-31_19h43.33.337,arm3_eps,2022.2.5,MacIntel,59.99880002,5f466020c3a053038da47399,64c7fed44a04f777bb1e18ce,64c8008322ff95f1f4a277bb,right,-1,0.75,0.1143,10,-0.025059834,0.4161,,,,,,102,0,102,0,1,,,,,
,,468679,001,2023-07-31_19h43.33.337,arm3_eps,2022.2.5,MacIntel,59.99880002,5f466020c3a053038da47399,64c7fed44a04f777bb1e18ce,64c8008322ff95f1f4a277bb,right,-1,0.75,0.1143,10,-0.013215252,0.266,,,,,,103,0,103,0,1,,,,,
,,468679,001,2023-07-31_19h43.33.337,arm3_eps,2022.2.5,MacIntel,59.99880002,5f466020c3a053038da47399,64c7fed44a04f777bb1e18ce,64c8008322ff95f1f4a277bb,right,-1,0.75,0.1143,10,-0.003517371,0.2049,,,,,,104,0,104,0,1,,,,,
,,468679,001,2023-07-31_19h43.33.337,arm3_eps,2022.2.5,MacIntel,59.99880002,5f466020c3a053038da47399,64c7fed44a04f777bb1e18ce,64c8008322ff95f1f4a277bb,right,-1,0.75,0.1143,10,-0.006744031,0.2511,,,,,,105,0,105,0,1,,,,,
,,468679,001,2023-07-31_19h43.33.337,arm3_eps,2022.2.5,MacIntel,59.99880002,5f466020c3a053038da47399,64c7fed44a04f777bb1e18ce,64c8008322ff95f1f4a277bb,down,-1,0.75,0.1143,11,0,0.4983,,,,,,106,0,106,0,1,,,,,
,,468679,001,2023-07-31_19h43.33.337,arm3_eps,2022.2.5,MacIntel,59.99880002,5f466020c3a053038da47399,64c7fed44a04f777bb1e18ce,64c8008322ff95f1f4a277bb,right,-1,0.75,0.1143,11,-0.007188682,0.5172,,,,,,107,0,107,0,1,,,,,
,,468679,001,2023-07-31_19h43.33.337,arm3_eps,2022.2.5,MacIntel,59.99880002,5f466020c3a053038da47399,64c7fed44a04f777bb1e18ce,64c8008322ff95f1f4a277bb,right,-1,0.75,0.1143,11,-0.027384982,0.2871,,,,,,108,0,108,0,1,,,,,
,,468679,001,2023-07-31_19h43.33.337,arm3_eps,2022.2.5,MacIntel,59.99880002,5f466020c3a053038da47399,64c7fed44a04f777bb1e18ce,64c8008322ff95f1f4a277bb,right,-1,0.75,0.1143,11,-0.015474545,0.205,,,,,,109,0,109,0,1,,,,,
,,468679,001,2023-07-31_19h43.33.337,arm3_eps,2022.2.5,MacIntel,59.99880002,5f466020c3a053038da47399,64c7fed44a04f777bb1e18ce,64c8008322ff95f1f4a277bb,right,-1,0.75,0.1143,11,-0.032833221,0.284,,,,,,110,0,110,0,1,,,,,
,,468679,001,2023-07-31_19h43.33.337,arm3_eps,2022.2.5,MacIntel,59.99880002,5f466020c3a053038da47399,64c7fed44a04f777bb1e18ce,64c8008322ff95f1f4a277bb,down,-1,0.75,0.1143,11,0,0.3466,,,,,,111,0,111,0,1,,,,,
,,468679,001,2023-07-31_19h43.33.337,arm3_eps,2022.2.5,MacIntel,59.99880002,5f466020c3a053038da47399,64c7fed44a04f777bb1e18ce,64c8008322ff95f1f4a277bb,right,-1,0.75,0.1143,11,-0.021615763,0.5716,,,,,,112,0,112,0,1,,,,,
,,468679,001,2023-07-31_19h43.33.337,arm3_eps,2022.2.5,MacIntel,59.99880002,5f466020c3a053038da47399,64c7fed44a04f777bb1e18ce,64c8008322ff95f1f4a277bb,right,-1,0.75,0.1143,11,-0.0071398,0.2954,,,,,,113,0,113,0,1,,,,,
,,468679,001,2023-07-31_19h43.33.337,arm3_eps,2022.2.5,MacIntel,59.99880002,5f466020c3a053038da47399,64c7fed44a04f777bb1e18ce,64c8008322ff95f1f4a277bb,right,-1,0.75,0.1143,11,-0.031564068,0.2113,,,,,,114,0,114,0,1,,,,,
,,468679,001,2023-07-31_19h43.33.337,arm3_eps,2022.2.5,MacIntel,59.99880002,5f466020c3a053038da47399,64c7fed44a04f777bb1e18ce,64c8008322ff95f1f4a277bb,down,-1,0.75,0.1143,12,0,0.3752,,,,,,115,0,115,0,1,,,,,
,,468679,001,2023-07-31_19h43.33.337,arm3_eps,2022.2.5,MacIntel,59.99880002,5f466020c3a053038da47399,64c7fed44a04f777bb1e18ce,64c8008322ff95f1f4a277bb,right,-1,0.75,0.1143,12,-0.043428227,0.5792,,,,,,116,0,116,0,1,,,,,
,,468679,001,2023-07-31_19h43.33.337,arm3_eps,2022.2.5,MacIntel,59.99880002,5f466020c3a053038da47399,64c7fed44a04f777bb1e18ce,64c8008322ff95f1f4a277bb,right,-1,0.75,0.1143,12,-0.056718468,0.2304,,,,,,117,0,117,0,1,,,,,
,,468679,001,2023-07-31_19h43.33.337,arm3_eps,2022.2.5,MacIntel,59.99880002,5f466020c3a053038da47399,64c7fed44a04f777bb1e18ce,64c8008322ff95f1f4a277bb,right,-1,0.75,0.1143,12,-0.059190206,0.2363,,,,,,118,0,118,0,1,,,,,
,,468679,001,2023-07-31_19h43.33.337,arm3_eps,2022.2.5,MacIntel,59.99880002,5f466020c3a053038da47399,64c7fed44a04f777bb1e18ce,64c8008322ff95f1f4a277bb,down,-1,0.75,0.1143,13,0,0.384,,,,,,119,0,119,0,1,,,,,
,,468679,001,2023-07-31_19h43.33.337,arm3_eps,2022.2.5,MacIntel,59.99880002,5f466020c3a053038da47399,64c7fed44a04f777bb1e18ce,64c8008322ff95f1f4a277bb,right,-1,0.75,0.1143,13,-0.002697309,0.3483,,,,,,120,0,120,0,1,,,,,
,,468679,001,2023-07-31_19h43.33.337,arm3_eps,2022.2.5,MacIntel,59.99880002,5f466020c3a053038da47399,64c7fed44a04f777bb1e18ce,64c8008322ff95f1f4a277bb,right,-1,0.75,0.1143,13,-0.031451138,0.2092,,,,,,121,0,121,0,1,,,,,
,,468679,001,2023-07-31_19h43.33.337,arm3_eps,2022.2.5,MacIntel,59.99880002,5f466020c3a053038da47399,64c7fed44a04f777bb1e18ce,64c8008322ff95f1f4a277bb,right,-1,0.75,0.1143,13,-0.000474008,0.1468,,,,,,122,0,122,0,1,,,,,
,,468679,001,2023-07-31_19h43.33.337,arm3_eps,2022.2.5,MacIntel,59.99880002,5f466020c3a053038da47399,64c7fed44a04f777bb1e18ce,64c8008322ff95f1f4a277bb,right,-1,0.75,0.1143,13,-0.018334995,0.1796,,,,,,123,0,123,0,1,,,,,
,,468679,001,2023-07-31_19h43.33.337,arm3_eps,2022.2.5,MacIntel,59.99880002,5f466020c3a053038da47399,64c7fed44a04f777bb1e18ce,64c8008322ff95f1f4a277bb,right,-1,0.75,0.1143,13,-0.034135792,0.1979,,,,,,124,0,124,0,1,,,,,
,,468679,001,2023-07-31_19h43.33.337,arm3_eps,2022.2.5,MacIntel,59.99880002,5f466020c3a053038da47399,64c7fed44a04f777bb1e18ce,64c8008322ff95f1f4a277bb,down,-1,0.75,0.1143,13,0,0.1874,,,,,,125,0,125,0,1,,,,,
,,468679,001,2023-07-31_19h43.33.337,arm3_eps,2022.2.5,MacIntel,59.99880002,5f466020c3a053038da47399,64c7fed44a04f777bb1e18ce,64c8008322ff95f1f4a277bb,right,-1,0.75,0.1143,13,-0.015870716,0.5216,,,,,,126,0,126,0,1,,,,,
,,468679,001,2023-07-31_19h43.33.337,arm3_eps,2022.2.5,MacIntel,59.99880002,5f466020c3a053038da47399,64c7fed44a04f777bb1e18ce,64c8008322ff95f1f4a277bb,right,-1,0.75,0.1143,13,-0.054112732,0.2255,,,,,,127,0,127,0,1,,,,,
,,468679,001,2023-07-31_19h43.33.337,arm3_eps,2022.2.5,MacIntel,59.99880002,5f466020c3a053038da47399,64c7fed44a04f777bb1e18ce,64c8008322ff95f1f4a277bb,right,-1,0.75,0.1143,13,-0.074445614,0.1812,,,,,,128,0,128,0,1,,,,,
,,468679,001,2023-07-31_19h43.33.337,arm3_eps,2022.2.5,MacIntel,59.99880002,5f466020c3a053038da47399,64c7fed44a04f777bb1e18ce,64c8008322ff95f1f4a277bb,right,-1,0.75,0.1143,13,-0.056718172,0.1837,,,,,,129,0,129,0,1,,,,,
,,468679,001,2023-07-31_19h43.33.337,arm3_eps,2022.2.5,MacIntel,59.99880002,5f466020c3a053038da47399,64c7fed44a04f777bb1e18ce,64c8008322ff95f1f4a277bb,down,-1,0.75,0.1143,14,0,0.1157,,,,,,130,0,130,0,1,,,,,
,,468679,001,2023-07-31_19h43.33.337,arm3_eps,2022.2.5,MacIntel,59.99880002,5f466020c3a053038da47399,64c7fed44a04f777bb1e18ce,64c8008322ff95f1f4a277bb,right,-1,0.75,0.1143,14,0.000158286,0.6758,,,,,,131,0,131,0,1,,,,,
,,468679,001,2023-07-31_19h43.33.337,arm3_eps,2022.2.5,MacIntel,59.99880002,5f466020c3a053038da47399,64c7fed44a04f777bb1e18ce,64c8008322ff95f1f4a277bb,right,-1,0.75,0.1143,14,-0.009214052,0.2032,,,,,,132,0,132,0,1,,,,,
,,468679,001,2023-07-31_19h43.33.337,arm3_eps,2022.2.5,MacIntel,59.99880002,5f466020c3a053038da47399,64c7fed44a04f777bb1e18ce,64c8008322ff95f1f4a277bb,right,-1,0.75,0.1143,14,0.000408813,0.1802,,,,,,133,0,133,0,1,,,,,
,,468679,001,2023-07-31_19h43.33.337,arm3_eps,2022.2.5,MacIntel,59.99880002,5f466020c3a053038da47399,64c7fed44a04f777bb1e18ce,64c8008322ff95f1f4a277bb,right,-1,0.75,0.1143,14,-0.016643975,0.1699,,,,,,134,0,134,0,1,,,,,
,,468679,001,2023-07-31_19h43.33.337,arm3_eps,2022.2.5,MacIntel,59.99880002,5f466020c3a053038da47399,64c7fed44a04f777bb1e18ce,64c8008322ff95f1f4a277bb,right,-1,0.75,0.1143,14,-0.016153436,0.1858,,,,,,135,0,135,0,1,,,,,
,,468679,001,2023-07-31_19h43.33.337,arm3_eps,2022.2.5,MacIntel,59.99880002,5f466020c3a053038da47399,64c7fed44a04f777bb1e18ce,64c8008322ff95f1f4a277bb,down,-1,0.75,0.1143,15,0,0.4371,,,,,,136,0,136,0,1,,,,,
,,468679,001,2023-07-31_19h43.33.337,arm3_eps,2022.2.5,MacIntel,59.99880002,5f466020c3a053038da47399,64c7fed44a04f777bb1e18ce,64c8008322ff95f1f4a277bb,right,-1,0.75,0.1143,15,-0.028985756,0.4804,,,,,,137,0,137,0,1,,,,,
,,468679,001,2023-07-31_19h43.33.337,arm3_eps,2022.2.5,MacIntel,59.99880002,5f466020c3a053038da47399,64c7fed44a04f777bb1e18ce,64c8008322ff95f1f4a277bb,right,-1,0.75,0.1143,15,-0.047188754,0.196,,,,,,138,0,138,0,1,,,,,
,,468679,001,2023-07-31_19h43.33.337,arm3_eps,2022.2.5,MacIntel,59.99880002,5f466020c3a053038da47399,64c7fed44a04f777bb1e18ce,64c8008322ff95f1f4a277bb,right,-1,0.75,0.1143,15,-0.072461564,0.1989,,,,,,139,0,139,0,1,,,,,
,,468679,001,2023-07-31_19h43.33.337,arm3_eps,2022.2.5,MacIntel,59.99880002,5f466020c3a053038da47399,64c7fed44a04f777bb1e18ce,64c8008322ff95f1f4a277bb,down,-1,0.75,0.1143,16,0,0.3518,,,,,,140,0,140,0,1,,,,,
,,468679,001,2023-07-31_19h43.33.337,arm3_eps,2022.2.5,MacIntel,59.99880002,5f466020c3a053038da47399,64c7fed44a04f777bb1e18ce,64c8008322ff95f1f4a277bb,right,-1,0.75,0.1143,16,0.006303517,0.5989,,,,,,141,0,141,0,1,,,,,
,,468679,001,2023-07-31_19h43.33.337,arm3_eps,2022.2.5,MacIntel,59.99880002,5f466020c3a053038da47399,64c7fed44a04f777bb1e18ce,64c8008322ff95f1f4a277bb,right,-1,0.75,0.1143,16,-0.002615317,0.2196,,,,,,142,0,142,0,1,,,,,
,,468679,001,2023-07-31_19h43.33.337,arm3_eps,2022.2.5,MacIntel,59.99880002,5f466020c3a053038da47399,64c7fed44a04f777bb1e18ce,64c8008322ff95f1f4a277bb,right,-1,0.75,0.1143,16,-0.002216333,0.2148,,,,,,143,0,143,0,1,,,,,
,,468679,001,2023-07-31_19h43.33.337,arm3_eps,2022.2.5,MacIntel,59.99880002,5f466020c3a053038da47399,64c7fed44a04f777bb1e18ce,64c8008322ff95f1f4a277bb,right,-1,0.75,0.1143,16,-0.022192194,0.2153,,,,,,144,0,144,0,1,,,,,
,,468679,001,2023-07-31_19h43.33.337,arm3_eps,2022.2.5,MacIntel,59.99880002,5f466020c3a053038da47399,64c7fed44a04f777bb1e18ce,64c8008322ff95f1f4a277bb,right,-1,0.75,0.1143,16,-0.045117265,0.2617,,,,,,145,0,145,0,1,,,,,
,,468679,001,2023-07-31_19h43.33.337,arm3_eps,2022.2.5,MacIntel,59.99880002,5f466020c3a053038da47399,64c7fed44a04f777bb1e18ce,64c8008322ff95f1f4a277bb,down,-1,0.75,0.1143,17,0,0.2269,,,,,,146,0,146,0,1,,,,,
,,468679,001,2023-07-31_19h43.33.337,arm3_eps,2022.2.5,MacIntel,59.99880002,5f466020c3a053038da47399,64c7fed44a04f777bb1e18ce,64c8008322ff95f1f4a277bb,right,-1,0.75,0.1143,17,0.010113309,0.425,,,,,,147,0,147,0,1,,,,,
,,468679,001,2023-07-31_19h43.33.337,arm3_eps,2022.2.5,MacIntel,59.99880002,5f466020c3a053038da47399,64c7fed44a04f777bb1e18ce,64c8008322ff95f1f4a277bb,right,-1,0.75,0.1143,17,0.00494611,0.253,,,,,,148,0,148,0,1,,,,,
,,468679,001,2023-07-31_19h43.33.337,arm3_eps,2022.2.5,MacIntel,59.99880002,5f466020c3a053038da47399,64c7fed44a04f777bb1e18ce,64c8008322ff95f1f4a277bb,right,-1,0.75,0.1143,17,-0.002239403,0.1809,,,,,,149,0,149,0,1,,,,,
,,468679,001,2023-07-31_19h43.33.337,arm3_eps,2022.2.5,MacIntel,59.99880002,5f466020c3a053038da47399,64c7fed44a04f777bb1e18ce,64c8008322ff95f1f4a277bb,right,-1,0.75,0.1143,17,0.003465897,0.1783,,,,,,150,0,150,0,1,,,,,
,,468679,001,2023-07-31_19h43.33.337,arm3_eps,2022.2.5,MacIntel,59.99880002,5f466020c3a053038da47399,64c7fed44a04f777bb1e18ce,64c8008322ff95f1f4a277bb,right,-1,0.75,0.1143,17,-0.031794301,0.1601,,,,,,151,0,151,0,1,,,,,
,,468679,001,2023-07-31_19h43.33.337,arm3_eps,2022.2.5,MacIntel,59.99880002,5f466020c3a053038da47399,64c7fed44a04f777bb1e18ce,64c8008322ff95f1f4a277bb,right,-1,0.75,0.1143,17,-0.021287012,0.2609,,,,,,152,0,152,0,1,,,,,
,,468679,001,2023-07-31_19h43.33.337,arm3_eps,2022.2.5,MacIntel,59.99880002,5f466020c3a053038da47399,64c7fed44a04f777bb1e18ce,64c8008322ff95f1f4a277bb,down,-1,0.75,0.1143,17,0,0.4995,,,,,,153,0,153,0,1,,,,,
,,468679,001,2023-07-31_19h43.33.337,arm3_eps,2022.2.5,MacIntel,59.99880002,5f466020c3a053038da47399,64c7fed44a04f777bb1e18ce,64c8008322ff95f1f4a277bb,right,-1,0.75,0.1143,17,-0.025222098,0.4344,,,,,,154,0,154,0,1,,,,,
,,468679,001,2023-07-31_19h43.33.337,arm3_eps,2022.2.5,MacIntel,59.99880002,5f466020c3a053038da47399,64c7fed44a04f777bb1e18ce,64c8008322ff95f1f4a277bb,right,-1,0.75,0.1143,17,0.01040284,0.2438,,,,,,155,0,155,0,1,,,,,
,,468679,001,2023-07-31_19h43.33.337,arm3_eps,2022.2.5,MacIntel,59.99880002,5f466020c3a053038da47399,64c7fed44a04f777bb1e18ce,64c8008322ff95f1f4a277bb,right,-1,0.75,0.1143,17,0.011274205,0.1781,,,,,,156,0,156,0,1,,,,,
,,468679,001,2023-07-31_19h43.33.337,arm3_eps,2022.2.5,MacIntel,59.99880002,5f466020c3a053038da47399,64c7fed44a04f777bb1e18ce,64c8008322ff95f1f4a277bb,right,-1,0.75,0.1143,17,-0.017293373,0.1829,,,,,,157,0,157,0,1,,,,,
,,468679,001,2023-07-31_19h43.33.337,arm3_eps,2022.2.5,MacIntel,59.99880002,5f466020c3a053038da47399,64c7fed44a04f777bb1e18ce,64c8008322ff95f1f4a277bb,right,-1,0.75,0.1143,17,-0.010586446,0.2137,,,,,,158,0,158,0,1,,,,,
,,468679,001,2023-07-31_19h43.33.337,arm3_eps,2022.2.5,MacIntel,59.99880002,5f466020c3a053038da47399,64c7fed44a04f777bb1e18ce,64c8008322ff95f1f4a277bb,right,-1,0.75,0.1143,17,-0.018818542,0.1649,,,,,,159,0,159,0,1,,,,,
,,468679,001,2023-07-31_19h43.33.337,arm3_eps,2022.2.5,MacIntel,59.99880002,5f466020c3a053038da47399,64c7fed44a04f777bb1e18ce,64c8008322ff95f1f4a277bb,right,-1,0.75,0.1143,17,-0.024901598,0.1836,,,,,,160,0,160,0,1,,,,,
,,468679,001,2023-07-31_19h43.33.337,arm3_eps,2022.2.5,MacIntel,59.99880002,5f466020c3a053038da47399,64c7fed44a04f777bb1e18ce,64c8008322ff95f1f4a277bb,right,-1,0.75,0.1143,17,-0.032264518,0.3988,,,,,,161,0,161,0,1,,,,,
,,468679,001,2023-07-31_19h43.33.337,arm3_eps,2022.2.5,MacIntel,59.99880002,5f466020c3a053038da47399,64c7fed44a04f777bb1e18ce,64c8008322ff95f1f4a277bb,down,-1,0.75,0.1143,18,0,0.1683,,,,,,162,0,162,0,1,,,,,
,,468679,001,2023-07-31_19h43.33.337,arm3_eps,2022.2.5,MacIntel,59.99880002,5f466020c3a053038da47399,64c7fed44a04f777bb1e18ce,64c8008322ff95f1f4a277bb,right,-1,0.75,0.1143,18,0.007457609,0.6777,,,,,,163,0,163,0,1,,,,,
,,468679,001,2023-07-31_19h43.33.337,arm3_eps,2022.2.5,MacIntel,59.99880002,5f466020c3a053038da47399,64c7fed44a04f777bb1e18ce,64c8008322ff95f1f4a277bb,right,-1,0.75,0.1143,18,-0.040983023,0.2479,,,,,,164,0,164,0,1,,,,,
,,468679,001,2023-07-31_19h43.33.337,arm3_eps,2022.2.5,MacIntel,59.99880002,5f466020c3a053038da47399,64c7fed44a04f777bb1e18ce,64c8008322ff95f1f4a277bb,right,-1,0.75,0.1143,18,-0.041209259,0.1685,,,,,,165,0,165,0,1,,,,,
,,468679,001,2023-07-31_19h43.33.337,arm3_eps,2022.2.5,MacIntel,59.99880002,5f466020c3a053038da47399,64c7fed44a04f777bb1e18ce,64c8008322ff95f1f4a277bb,right,-1,0.75,0.1143,18,-0.06331372,0.1974,,,,,,166,0,166,0,1,,,,,
,,468679,001,2023-07-31_19h43.33.337,arm3_eps,2022.2.5,MacIntel,59.99880002,5f466020c3a053038da47399,64c7fed44a04f777bb1e18ce,64c8008322ff95f1f4a277bb,down,-1,0.75,0.1143,19,0,0.3321,,,,,,167,0,167,0,1,,,,,
,,468679,001,2023-07-31_19h43.33.337,arm3_eps,2022.2.5,MacIntel,59.99880002,5f466020c3a053038da47399,64c7fed44a04f777bb1e18ce,64c8008322ff95f1f4a277bb,right,-1,0.75,0.1143,19,-0.00079158,0.465,,,,,,168,0,168,0,1,,,,,
,,468679,001,2023-07-31_19h43.33.337,arm3_eps,2022.2.5,MacIntel,59.99880002,5f466020c3a053038da47399,64c7fed44a04f777bb1e18ce,64c8008322ff95f1f4a277bb,right,-1,0.75,0.1143,19,-0.031168644,0.248,,,,,,169,0,169,0,1,,,,,
,,468679,001,2023-07-31_19h43.33.337,arm3_eps,2022.2.5,MacIntel,59.99880002,5f466020c3a053038da47399,64c7fed44a04f777bb1e18ce,64c8008322ff95f1f4a277bb,right,-1,0.75,0.1143,19,-0.041193683,0.1814,,,,,,170,0,170,0,1,,,,,
,,468679,001,2023-07-31_19h43.33.337,arm3_eps,2022.2.5,MacIntel,59.99880002,5f466020c3a053038da47399,64c7fed44a04f777bb1e18ce,64c8008322ff95f1f4a277bb,right,-1,0.75,0.1143,19,-0.024319566,0.2157,,,,,,171,0,171,0,1,,,,,
,,468679,001,2023-07-31_19h43.33.337,arm3_eps,2022.2.5,MacIntel,59.99880002,5f466020c3a053038da47399,64c7fed44a04f777bb1e18ce,64c8008322ff95f1f4a277bb,down,-1,0.75,0.1143,20,0,0.5835,,,,,,172,0,172,0,1,,,,,
,,468679,001,2023-07-31_19h43.33.337,arm3_eps,2022.2.5,MacIntel,59.99880002,5f466020c3a053038da47399,64c7fed44a04f777bb1e18ce,64c8008322ff95f1f4a277bb,right,-1,0.75,0.1143,20,0.009458935,0.6158,,,,,,173,0,173,0,1,,,,,
,,468679,001,2023-07-31_19h43.33.337,arm3_eps,2022.2.5,MacIntel,59.99880002,5f466020c3a053038da47399,64c7fed44a04f777bb1e18ce,64c8008322ff95f1f4a277bb,right,-1,0.75,0.1143,20,0.020815403,0.2317,,,,,,174,0,174,0,1,,,,,
,,468679,001,2023-07-31_19h43.33.337,arm3_eps,2022.2.5,MacIntel,59.99880002,5f466020c3a053038da47399,64c7fed44a04f777bb1e18ce,64c8008322ff95f1f4a277bb,right,-1,0.75,0.1143,20,0.036479908,0.1705,,,,,,175,0,175,0,1,,,,,
,,468679,001,2023-07-31_19h43.33.337,arm3_eps,2022.2.5,MacIntel,59.99880002,5f466020c3a053038da47399,64c7fed44a04f777bb1e18ce,64c8008322ff95f1f4a277bb,right,-1,0.75,0.1143,20,0.006522535,0.2204,,,,,,176,0,176,0,1,,,,,
,,468679,001,2023-07-31_19h43.33.337,arm3_eps,2022.2.5,MacIntel,59.99880002,5f466020c3a053038da47399,64c7fed44a04f777bb1e18ce,64c8008322ff95f1f4a277bb,right,-1,0.75,0.1143,20,-0.006402439,0.1866,,,,,,177,0,177,0,1,,,,,
,,468679,001,2023-07-31_19h43.33.337,arm3_eps,2022.2.5,MacIntel,59.99880002,5f466020c3a053038da47399,64c7fed44a04f777bb1e18ce,64c8008322ff95f1f4a277bb,right,-1,0.75,0.1143,20,-0.030042205,0.1689,,,,,,178,0,178,0,1,,,,,
,,468679,001,2023-07-31_19h43.33.337,arm3_eps,2022.2.5,MacIntel,59.99880002,5f466020c3a053038da47399,64c7fed44a04f777bb1e18ce,64c8008322ff95f1f4a277bb,down,1,0.75,0.1143,21,0,0.3635,,,,,,179,0,179,0,1,,,,,
,,468679,001,2023-07-31_19h43.33.337,arm3_eps,2022.2.5,MacIntel,59.99880002,5f466020c3a053038da47399,64c7fed44a04f777bb1e18ce,64c8008322ff95f1f4a277bb,right,1,0.75,0.1143,21,0.017335665,0.4168,,,,,,180,0,180,0,1,,,,,
,,468679,001,2023-07-31_19h43.33.337,arm3_eps,2022.2.5,MacIntel,59.99880002,5f466020c3a053038da47399,64c7fed44a04f777bb1e18ce,64c8008322ff95f1f4a277bb,right,1,0.75,0.1143,21,0.012392682,0.2167,,,,,,181,0,181,0,1,,,,,
,,468679,001,2023-07-31_19h43.33.337,arm3_eps,2022.2.5,MacIntel,59.99880002,5f466020c3a053038da47399,64c7fed44a04f777bb1e18ce,64c8008322ff95f1f4a277bb,right,1,0.75,0.1143,21,0.007629726,0.2679,,,,,,182,0,182,0,1,,,,,
,,468679,001,2023-07-31_19h43.33.337,arm3_eps,2022.2.5,MacIntel,59.99880002,5f466020c3a053038da47399,64c7fed44a04f777bb1e18ce,64c8008322ff95f1f4a277bb,right,1,0.75,0.1143,21,0.010513337,0.1957,,,,,,183,0,183,0,1,,,,,
,,468679,001,2023-07-31_19h43.33.337,arm3_eps,2022.2.5,MacIntel,59.99880002,5f466020c3a053038da47399,64c7fed44a04f777bb1e18ce,64c8008322ff95f1f4a277bb,right,1,0.75,0.1143,21,0.019623784,0.3749,,,,,,184,0,184,0,1,,,,,
,,468679,001,2023-07-31_19h43.33.337,arm3_eps,2022.2.5,MacIntel,59.99880002,5f466020c3a053038da47399,64c7fed44a04f777bb1e18ce,64c8008322ff95f1f4a277bb,right,1,0.75,0.1143,21,-0.001404909,0.3601,,,,,,185,0,185,0,1,,,,,
,,468679,001,2023-07-31_19h43.33.337,arm3_eps,2022.2.5,MacIntel,59.99880002,5f466020c3a053038da47399,64c7fed44a04f777bb1e18ce,64c8008322ff95f1f4a277bb,right,1,0.75,0.1143,21,0.00645529,0.483,,,,,,186,0,186,0,1,,,,,
,,468679,001,2023-07-31_19h43.33.337,arm3_eps,2022.2.5,MacIntel,59.99880002,5f466020c3a053038da47399,64c7fed44a04f777bb1e18ce,64c8008322ff95f1f4a277bb,right,1,0.75,0.1143,21,0.024304452,0.3972,,,,,,187,0,187,0,1,,,,,
,,468679,001,2023-07-31_19h43.33.337,arm3_eps,2022.2.5,MacIntel,59.99880002,5f466020c3a053038da47399,64c7fed44a04f777bb1e18ce,64c8008322ff95f1f4a277bb,up,1,0.75,0.1143,22,0,0.3658,,,,,,188,0,188,0,1,,,,,
,,468679,001,2023-07-31_19h43.33.337,arm3_eps,2022.2.5,MacIntel,59.99880002,5f466020c3a053038da47399,64c7fed44a04f777bb1e18ce,64c8008322ff95f1f4a277bb,up,1,0.75,0.1143,23,0,0.4789,,,,,,189,0,189,0,1,,,,,
,,468679,001,2023-07-31_19h43.33.337,arm3_eps,2022.2.5,MacIntel,59.99880002,5f466020c3a053038da47399,64c7fed44a04f777bb1e18ce,64c8008322ff95f1f4a277bb,right,1,0.75,0.1143,23,0.002278727,0.4831,,,,,,190,0,190,0,1,,,,,
,,468679,001,2023-07-31_19h43.33.337,arm3_eps,2022.2.5,MacIntel,59.99880002,5f466020c3a053038da47399,64c7fed44a04f777bb1e18ce,64c8008322ff95f1f4a277bb,right,1,0.75,0.1143,23,0.019763335,0.4142,,,,,,191,0,191,0,1,,,,,
,,468679,001,2023-07-31_19h43.33.337,arm3_eps,2022.2.5,MacIntel,59.99880002,5f466020c3a053038da47399,64c7fed44a04f777bb1e18ce,64c8008322ff95f1f4a277bb,right,1,0.75,0.1143,23,0.020637191,0.2096,,,,,,192,0,192,0,1,,,,,
,,468679,001,2023-07-31_19h43.33.337,arm3_eps,2022.2.5,MacIntel,59.99880002,5f466020c3a053038da47399,64c7fed44a04f777bb1e18ce,64c8008322ff95f1f4a277bb,right,1,0.75,0.1143,23,0.017554009,0.2164,,,,,,193,0,193,0,1,,,,,
,,468679,001,2023-07-31_19h43.33.337,arm3_eps,2022.2.5,MacIntel,59.99880002,5f466020c3a053038da47399,64c7fed44a04f777bb1e18ce,64c8008322ff95f1f4a277bb,right,1,0.75,0.1143,23,0.004130922,0.2521,,,,,,194,0,194,0,1,,,,,
,,468679,001,2023-07-31_19h43.33.337,arm3_eps,2022.2.5,MacIntel,59.99880002,5f466020c3a053038da47399,64c7fed44a04f777bb1e18ce,64c8008322ff95f1f4a277bb,right,1,0.75,0.1143,23,0.009834823,0.2837,,,,,,195,0,195,0,1,,,,,
,,468679,001,2023-07-31_19h43.33.337,arm3_eps,2022.2.5,MacIntel,59.99880002,5f466020c3a053038da47399,64c7fed44a04f777bb1e18ce,64c8008322ff95f1f4a277bb,right,1,0.75,0.1143,23,0.005289209,0.4163,,,,,,196,0,196,0,1,,,,,
,,468679,001,2023-07-31_19h43.33.337,arm3_eps,2022.2.5,MacIntel,59.99880002,5f466020c3a053038da47399,64c7fed44a04f777bb1e18ce,64c8008322ff95f1f4a277bb,up,1,0.75,0.1143,23,0,0.4806,,,,,,197,0,197,0,1,,,,,
,,468679,001,2023-07-31_19h43.33.337,arm3_eps,2022.2.5,MacIntel,59.99880002,5f466020c3a053038da47399,64c7fed44a04f777bb1e18ce,64c8008322ff95f1f4a277bb,right,1,0.75,0.1143,23,0.010806875,0.6471,,,,,,198,0,198,0,1,,,,,
,,468679,001,2023-07-31_19h43.33.337,arm3_eps,2022.2.5,MacIntel,59.99880002,5f466020c3a053038da47399,64c7fed44a04f777bb1e18ce,64c8008322ff95f1f4a277bb,right,1,0.75,0.1143,23,0.044762417,0.2151,,,,,,199,0,199,0,1,,,,,
,,468679,001,2023-07-31_19h43.33.337,arm3_eps,2022.2.5,MacIntel,59.99880002,5f466020c3a053038da47399,64c7fed44a04f777bb1e18ce,64c8008322ff95f1f4a277bb,right,1,0.75,0.1143,23,0.056969545,0.668,,,,,,200,0,200,0,1,,,,,
,,468679,001,2023-07-31_19h43.33.337,arm3_eps,2022.2.5,MacIntel,59.99880002,5f466020c3a053038da47399,64c7fed44a04f777bb1e18ce,64c8008322ff95f1f4a277bb,right,1,0.75,0.1143,23,0.045373792,0.1968,,,,,,201,0,201,0,1,,,,,
,,468679,001,2023-07-31_19h43.33.337,arm3_eps,2022.2.5,MacIntel,59.99880002,5f466020c3a053038da47399,64c7fed44a04f777bb1e18ce,64c8008322ff95f1f4a277bb,up,1,0.75,0.1143,23,0,0.2632,,,,,,202,0,202,0,1,,,,,
,,468679,001,2023-07-31_19h43.33.337,arm3_eps,2022.2.5,MacIntel,59.99880002,5f466020c3a053038da47399,64c7fed44a04f777bb1e18ce,64c8008322ff95f1f4a277bb,right,1,0.75,0.1143,23,0.012303501,0.5612,,,,,,203,0,203,0,1,,,,,
,,468679,001,2023-07-31_19h43.33.337,arm3_eps,2022.2.5,MacIntel,59.99880002,5f466020c3a053038da47399,64c7fed44a04f777bb1e18ce,64c8008322ff95f1f4a277bb,right,1,0.75,0.1143,23,0.006996962,0.223,,,,,,204,0,204,0,1,,,,,
,,468679,001,2023-07-31_19h43.33.337,arm3_eps,2022.2.5,MacIntel,59.99880002,5f466020c3a053038da47399,64c7fed44a04f777bb1e18ce,64c8008322ff95f1f4a277bb,right,1,0.75,0.1143,23,0.034689021,0.2028,,,,,,205,0,205,0,1,,,,,
,,468679,001,2023-07-31_19h43.33.337,arm3_eps,2022.2.5,MacIntel,59.99880002,5f466020c3a053038da47399,64c7fed44a04f777bb1e18ce,64c8008322ff95f1f4a277bb,right,1,0.75,0.1143,23,0.021674459,0.1674,,,,,,206,0,206,0,1,,,,,
,,468679,001,2023-07-31_19h43.33.337,arm3_eps,2022.2.5,MacIntel,59.99880002,5f466020c3a053038da47399,64c7fed44a04f777bb1e18ce,64c8008322ff95f1f4a277bb,right,1,0.75,0.1143,23,0.044759014,0.2505,,,,,,207,0,207,0,1,,,,,
,,468679,001,2023-07-31_19h43.33.337,arm3_eps,2022.2.5,MacIntel,59.99880002,5f466020c3a053038da47399,64c7fed44a04f777bb1e18ce,64c8008322ff95f1f4a277bb,up,-1,0.75,0.1143,24,0,0.3322,,,,,,208,0,208,0,1,,,,,
,,468679,001,2023-07-31_19h43.33.337,arm3_eps,2022.2.5,MacIntel,59.99880002,5f466020c3a053038da47399,64c7fed44a04f777bb1e18ce,64c8008322ff95f1f4a277bb,right,-1,0.75,0.1143,24,0.00549426,0.3989,,,,,,209,0,209,0,1,,,,,
,,468679,001,2023-07-31_19h43.33.337,arm3_eps,2022.2.5,MacIntel,59.99880002,5f466020c3a053038da47399,64c7fed44a04f777bb1e18ce,64c8008322ff95f1f4a277bb,right,-1,0.75,0.1143,24,-0.017222206,0.2646,,,,,,210,0,210,0,1,,,,,
,,468679,001,2023-07-31_19h43.33.337,arm3_eps,2022.2.5,MacIntel,59.99880002,5f466020c3a053038da47399,64c7fed44a04f777bb1e18ce,64c8008322ff95f1f4a277bb,right,-1,0.75,0.1143,24,-0.008102193,0.1858,,,,,,211,0,211,0,1,,,,,
,,468679,001,2023-07-31_19h43.33.337,arm3_eps,2022.2.5,MacIntel,59.99880002,5f466020c3a053038da47399,64c7fed44a04f777bb1e18ce,64c8008322ff95f1f4a277bb,right,-1,0.75,0.1143,24,-0.013141502,0.197,,,,,,212,0,212,0,1,,,,,
,,468679,001,2023-07-31_19h43.33.337,arm3_eps,2022.2.5,MacIntel,59.99880002,5f466020c3a053038da47399,64c7fed44a04f777bb1e18ce,64c8008322ff95f1f4a277bb,right,-1,0.75,0.1143,24,-0.016217357,0.1536,,,,,,213,0,213,0,1,,,,,
,,468679,001,2023-07-31_19h43.33.337,arm3_eps,2022.2.5,MacIntel,59.99880002,5f466020c3a053038da47399,64c7fed44a04f777bb1e18ce,64c8008322ff95f1f4a277bb,right,-1,0.75,0.1143,24,-0.029892287,0.1965,,,,,,214,0,214,0,1,,,,,
,,468679,001,2023-07-31_19h43.33.337,arm3_eps,2022.2.5,MacIntel,59.99880002,5f466020c3a053038da47399,64c7fed44a04f777bb1e18ce,64c8008322ff95f1f4a277bb,down,-1,0.75,0.1143,25,0,0.516,,,,,,215,0,215,0,1,,,,,
,,468679,001,2023-07-31_19h43.33.337,arm3_eps,2022.2.5,MacIntel,59.99880002,5f466020c3a053038da47399,64c7fed44a04f777bb1e18ce,64c8008322ff95f1f4a277bb,right,-1,0.75,0.1143,25,0.008554585,0.3854,,,,,,216,0,216,0,1,,,,,
,,468679,001,2023-07-31_19h43.33.337,arm3_eps,2022.2.5,MacIntel,59.99880002,5f466020c3a053038da47399,64c7fed44a04f777bb1e18ce,64c8008322ff95f1f4a277bb,right,-1,0.75,0.1143,25,-0.014611708,0.2373,,,,,,217,0,217,0,1,,,,,
,,468679,001,2023-07-31_19h43.33.337,arm3_eps,2022.2.5,MacIntel,59.99880002,5f466020c3a053038da47399,64c7fed44a04f777bb1e18ce,64c8008322ff95f1f4a277bb,right,-1,0.75,0.1143,25,-0.057716182,0.1941,,,,,,218,0,218,0,1,,,,,
,,468679,001,2023-07-31_19h43.33.337,arm3_eps,2022.2.5,MacIntel,59.99880002,5f466020c3a053038da47399,64c7fed44a04f777bb1e18ce,64c8008322ff95f1f4a277bb,right,-1,0.75,0.1143,25,-0.093776757,0.1803,,,,,,219,0,219,0,1,,,,,
,,468679,001,2023-07-31_19h43.33.337,arm3_eps,2022.2.5,MacIntel,59.99880002,5f466020c3a053038da47399,64c7fed44a04f777bb1e18ce,64c8008322ff95f1f4a277bb,right,-1,0.75,0.1143,25,-0.083578732,1.0127,,,,,,220,0,220,0,1,,,,,
,,468679,001,2023-07-31_19h43.33.337,arm3_eps,2022.2.5,MacIntel,59.99880002,5f466020c3a053038da47399,64c7fed44a04f777bb1e18ce,64c8008322ff95f1f4a277bb,down,-1,0.75,0.1143,26,0,0.5185,,,,,,221,0,221,0,1,,,,,
,,468679,001,2023-07-31_19h43.33.337,arm3_eps,2022.2.5,MacIntel,59.99880002,5f466020c3a053038da47399,64c7fed44a04f777bb1e18ce,64c8008322ff95f1f4a277bb,right,-1,0.75,0.1143,26,-0.011977899,0.4185,,,,,,222,0,222,0,1,,,,,
,,468679,001,2023-07-31_19h43.33.337,arm3_eps,2022.2.5,MacIntel,59.99880002,5f466020c3a053038da47399,64c7fed44a04f777bb1e18ce,64c8008322ff95f1f4a277bb,right,-1,0.75,0.1143,26,-0.031629911,0.2852,,,,,,223,0,223,0,1,,,,,
,,468679,001,2023-07-31_19h43.33.337,arm3_eps,2022.2.5,MacIntel,59.99880002,5f466020c3a053038da47399,64c7fed44a04f777bb1e18ce,64c8008322ff95f1f4a277bb,right,-1,0.75,0.1143,26,-0.048548558,0.2105,,,,,,224,0,224,0,1,,,,,
,,468679,001,2023-07-31_19h43.33.337,arm3_eps,2022.2.5,MacIntel,59.99880002,5f466020c3a053038da47399,64c7fed44a04f777bb1e18ce,64c8008322ff95f1f4a277bb,down,-1,0.75,0.1143,27,0,0.4485,,,,,,225,0,225,0,1,,,,,
,,468679,001,2023-07-31_19h43.33.337,arm3_eps,2022.2.5,MacIntel,59.99880002,5f466020c3a053038da47399,64c7fed44a04f777bb1e18ce,64c8008322ff95f1f4a277bb,right,-1,0.75,0.1143,27,-0.017077772,0.4169,,,,,,226,0,226,0,1,,,,,
,,468679,001,2023-07-31_19h43.33.337,arm3_eps,2022.2.5,MacIntel,59.99880002,5f466020c3a053038da47399,64c7fed44a04f777bb1e18ce,64c8008322ff95f1f4a277bb,right,-1,0.75,0.1143,27,-0.004840601,0.246,,,,,,227,0,227,0,1,,,,,
,,468679,001,2023-07-31_19h43.33.337,arm3_eps,2022.2.5,MacIntel,59.99880002,5f466020c3a053038da47399,64c7fed44a04f777bb1e18ce,64c8008322ff95f1f4a277bb,right,-1,0.75,0.1143,27,-0.016080455,0.286,,,,,,228,0,228,0,1,,,,,
,,468679,001,2023-07-31_19h43.33.337,arm3_eps,2022.2.5,MacIntel,59.99880002,5f466020c3a053038da47399,64c7fed44a04f777bb1e18ce,64c8008322ff95f1f4a277bb,right,-1,0.75,0.1143,27,-0.004964809,0.2498,,,,,,229,0,229,0,1,,,,,
,,468679,001,2023-07-31_19h43.33.337,arm3_eps,2022.2.5,MacIntel,59.99880002,5f466020c3a053038da47399,64c7fed44a04f777bb1e18ce,64c8008322ff95f1f4a277bb,down,-1,0.75,0.1143,27,0,0.5161,,,,,,230,0,230,0,1,,,,,
,,468679,001,2023-07-31_19h43.33.337,arm3_eps,2022.2.5,MacIntel,59.99880002,5f466020c3a053038da47399,64c7fed44a04f777bb1e18ce,64c8008322ff95f1f4a277bb,right,-1,0.75,0.1143,27,-0.01208966,0.8001,,,,,,231,0,231,0,1,,,,,
,,468679,001,2023-07-31_19h43.33.337,arm3_eps,2022.2.5,MacIntel,59.99880002,5f466020c3a053038da47399,64c7fed44a04f777bb1e18ce,64c8008322ff95f1f4a277bb,right,-1,0.75,0.1143,27,-0.013019815,0.231,,,,,,232,0,232,0,1,,,,,
,,468679,001,2023-07-31_19h43.33.337,arm3_eps,2022.2.5,MacIntel,59.99880002,5f466020c3a053038da47399,64c7fed44a04f777bb1e18ce,64c8008322ff95f1f4a277bb,right,-1,0.75,0.1143,27,-0.013010974,0.1977,,,,,,233,0,233,0,1,,,,,
,,468679,001,2023-07-31_19h43.33.337,arm3_eps,2022.2.5,MacIntel,59.99880002,5f466020c3a053038da47399,64c7fed44a04f777bb1e18ce,64c8008322ff95f1f4a277bb,right,-1,0.75,0.1143,27,-0.028687098,0.1646,,,,,,234,0,234,0,1,,,,,
,,468679,001,2023-07-31_19h43.33.337,arm3_eps,2022.2.5,MacIntel,59.99880002,5f466020c3a053038da47399,64c7fed44a04f777bb1e18ce,64c8008322ff95f1f4a277bb,right,-1,0.75,0.1143,27,-0.010005996,0.2146,,,,,,235,0,235,0,1,,,,,
,,468679,001,2023-07-31_19h43.33.337,arm3_eps,2022.2.5,MacIntel,59.99880002,5f466020c3a053038da47399,64c7fed44a04f777bb1e18ce,64c8008322ff95f1f4a277bb,right,-1,0.75,0.1143,27,-0.018433216,0.2678,,,,,,236,0,236,0,1,,,,,
,,468679,001,2023-07-31_19h43.33.337,arm3_eps,2022.2.5,MacIntel,59.99880002,5f466020c3a053038da47399,64c7fed44a04f777bb1e18ce,64c8008322ff95f1f4a277bb,right,-1,0.75,0.1143,27,0.025827045,0.3813,,,,,,237,0,237,0,1,,,,,
,,468679,001,2023-07-31_19h43.33.337,arm3_eps,2022.2.5,MacIntel,59.99880002,5f466020c3a053038da47399,64c7fed44a04f777bb1e18ce,64c8008322ff95f1f4a277bb,up,-1,0.75,0.1143,26,0,0.4013,,,,,,238,0,238,0,1,,,,,
,,468679,001,2023-07-31_19h43.33.337,arm3_eps,2022.2.5,MacIntel,59.99880002,5f466020c3a053038da47399,64c7fed44a04f777bb1e18ce,64c8008322ff95f1f4a277bb,right,-1,0.75,0.1143,26,0.011954227,0.4771,,,,,,239,0,239,0,1,,,,,
,,468679,001,2023-07-31_19h43.33.337,arm3_eps,2022.2.5,MacIntel,59.99880002,5f466020c3a053038da47399,64c7fed44a04f777bb1e18ce,64c8008322ff95f1f4a277bb,right,-1,0.75,0.1143,26,-0.00204822,0.2835,,,,,,240,0,240,0,1,,,,,
,,468679,001,2023-07-31_19h43.33.337,arm3_eps,2022.2.5,MacIntel,59.99880002,5f466020c3a053038da47399,64c7fed44a04f777bb1e18ce,64c8008322ff95f1f4a277bb,right,-1,0.75,0.1143,26,-0.040777065,0.1866,,,,,,241,0,241,0,1,,,,,
,,468679,001,2023-07-31_19h43.33.337,arm3_eps,2022.2.5,MacIntel,59.99880002,5f466020c3a053038da47399,64c7fed44a04f777bb1e18ce,64c8008322ff95f1f4a277bb,right,-1,0.75,0.1143,26,-0.065438038,0.4669,,,,,,242,0,242,0,1,,,,,
,,468679,001,2023-07-31_19h43.33.337,arm3_eps,2022.2.5,MacIntel,59.99880002,5f466020c3a053038da47399,64c7fed44a04f777bb1e18ce,64c8008322ff95f1f4a277bb,down,-1,0.75,0.1143,27,0,0.2134,,,,,,243,0,243,0,1,,,,,
,,468679,001,2023-07-31_19h43.33.337,arm3_eps,2022.2.5,MacIntel,59.99880002,5f466020c3a053038da47399,64c7fed44a04f777bb1e18ce,64c8008322ff95f1f4a277bb,right,-1,0.75,0.1143,27,0.001070072,1.0774,,,,,,244,0,244,0,1,,,,,
,,468679,001,2023-07-31_19h43.33.337,arm3_eps,2022.2.5,MacIntel,59.99880002,5f466020c3a053038da47399,64c7fed44a04f777bb1e18ce,64c8008322ff95f1f4a277bb,right,-1,0.75,0.1143,27,-0.029297478,0.5107,,,,,,245,0,245,0,1,,,,,
,,468679,001,2023-07-31_19h43.33.337,arm3_eps,2022.2.5,MacIntel,59.99880002,5f466020c3a053038da47399,64c7fed44a04f777bb1e18ce,64c8008322ff95f1f4a277bb,right,-1,0.75,0.1143,27,-0.024653443,0.2016,,,,,,246,0,246,0,1,,,,,
,,468679,001,2023-07-31_19h43.33.337,arm3_eps,2022.2.5,MacIntel,59.99880002,5f466020c3a053038da47399,64c7fed44a04f777bb1e18ce,64c8008322ff95f1f4a277bb,right,-1,0.75,0.1143,27,-0.014755372,0.185,,,,,,247,0,247,0,1,,,,,
,,468679,001,2023-07-31_19h43.33.337,arm3_eps,2022.2.5,MacIntel,59.99880002,5f466020c3a053038da47399,64c7fed44a04f777bb1e18ce,64c8008322ff95f1f4a277bb,right,-1,0.75,0.1143,27,-0.011786109,0.3864,,,,,,248,0,248,0,1,,,,,
