space_bar.keys,space_bar.rt,participant,session,date,expName,psychopyVersion,OS,frameRate,PROLIFIC_PID,STUDY_ID,SESSION_ID,resp.keys,state,q_prob,eps_prob,score,price,resp.rt,train.thisRepN,train.thisTrialN,train.thisN,train.thisIndex,train.ran,steps.thisRepN,steps.thisTrialN,steps.thisN,steps.thisIndex,steps.ran,blocks.thisRepN,blocks.thisTrialN,blocks.thisN,blocks.thisIndex,blocks.ran
space,0.6319,504219,001,2023-07-29_14h53.48.458,arm3_eps,2022.2.5,Win32,60.44122091,5bf890e426e31d0001040667,64c47140896c8c63e34c6d2f,64c515fa9d106ae481a1cca0,,,,,,,,,,,,,,,,,,,,,,
space,0.3971,504219,001,2023-07-29_14h53.48.458,arm3_eps,2022.2.5,Win32,60.44122091,5bf890e426e31d0001040667,64c47140896c8c63e34c6d2f,64c515fa9d106ae481a1cca0,,,,,,,,,,,,,,,,,,,,,,
space,0.5195,504219,001,2023-07-29_14h53.48.458,arm3_eps,2022.2.5,Win32,60.44122091,5bf890e426e31d0001040667,64c47140896c8c63e34c6d2f,64c515fa9d106ae481a1cca0,,,,,,,,,,,,,,,,,,,,,,
space,0.325,504219,001,2023-07-29_14h53.48.458,arm3_eps,2022.2.5,Win32,60.44122091,5bf890e426e31d0001040667,64c47140896c8c63e34c6d2f,64c515fa9d106ae481a1cca0,,,,,,,,,,,,,,,,,,,,,,
space,0.1552,504219,001,2023-07-29_14h53.48.458,arm3_eps,2022.2.5,Win32,60.44122091,5bf890e426e31d0001040667,64c47140896c8c63e34c6d2f,64c515fa9d106ae481a1cca0,,,,,,,,,,,,,,,,,,,,,,
space,0.1437,504219,001,2023-07-29_14h53.48.458,arm3_eps,2022.2.5,Win32,60.44122091,5bf890e426e31d0001040667,64c47140896c8c63e34c6d2f,64c515fa9d106ae481a1cca0,,,,,,,,,,,,,,,,,,,,,,
space,0.1489,504219,001,2023-07-29_14h53.48.458,arm3_eps,2022.2.5,Win32,60.44122091,5bf890e426e31d0001040667,64c47140896c8c63e34c6d2f,64c515fa9d106ae481a1cca0,,,,,,,,,,,,,,,,,,,,,,
,,504219,001,2023-07-29_14h53.48.458,arm3_eps,2022.2.5,Win32,60.44122091,5bf890e426e31d0001040667,64c47140896c8c63e34c6d2f,64c515fa9d106ae481a1cca0,down,-1,1,0.2429,1,0,0.9616,0,0,0,0,1,,,,,,,,,,
,,504219,001,2023-07-29_14h53.48.458,arm3_eps,2022.2.5,Win32,60.44122091,5bf890e426e31d0001040667,64c47140896c8c63e34c6d2f,64c515fa9d106ae481a1cca0,right,-1,1,0.2429,1,0.000712072,0.0019,1,0,1,0,1,,,,,,,,,,
,,504219,001,2023-07-29_14h53.48.458,arm3_eps,2022.2.5,Win32,60.44122091,5bf890e426e31d0001040667,64c47140896c8c63e34c6d2f,64c515fa9d106ae481a1cca0,down,-1,1,0.2429,2,0,0.1609,2,0,2,0,1,,,,,,,,,,
,,504219,001,2023-07-29_14h53.48.458,arm3_eps,2022.2.5,Win32,60.44122091,5bf890e426e31d0001040667,64c47140896c8c63e34c6d2f,64c515fa9d106ae481a1cca0,right,-1,1,0.2429,2,0.014395403,0.0018,3,0,3,0,1,,,,,,,,,,
,,504219,001,2023-07-29_14h53.48.458,arm3_eps,2022.2.5,Win32,60.44122091,5bf890e426e31d0001040667,64c47140896c8c63e34c6d2f,64c515fa9d106ae481a1cca0,right,-1,1,0.2429,2,-0.0006383,0.1254,4,0,4,0,1,,,,,,,,,,
,,504219,001,2023-07-29_14h53.48.458,arm3_eps,2022.2.5,Win32,60.44122091,5bf890e426e31d0001040667,64c47140896c8c63e34c6d2f,64c515fa9d106ae481a1cca0,up,1,1,0.2429,1,0,0.1196,5,0,5,0,1,,,,,,,,,,
,,504219,001,2023-07-29_14h53.48.458,arm3_eps,2022.2.5,Win32,60.44122091,5bf890e426e31d0001040667,64c47140896c8c63e34c6d2f,64c515fa9d106ae481a1cca0,up,1,1,0.2429,2,0,0.1165,6,0,6,0,1,,,,,,,,,,
,,504219,001,2023-07-29_14h53.48.458,arm3_eps,2022.2.5,Win32,60.44122091,5bf890e426e31d0001040667,64c47140896c8c63e34c6d2f,64c515fa9d106ae481a1cca0,right,1,1,0.2429,2,-0.005782507,0.0005,7,0,7,0,1,,,,,,,,,,
,,504219,001,2023-07-29_14h53.48.458,arm3_eps,2022.2.5,Win32,60.44122091,5bf890e426e31d0001040667,64c47140896c8c63e34c6d2f,64c515fa9d106ae481a1cca0,up,1,1,0.2429,3,0,0.1054,8,0,8,0,1,,,,,,,,,,
,,504219,001,2023-07-29_14h53.48.458,arm3_eps,2022.2.5,Win32,60.44122091,5bf890e426e31d0001040667,64c47140896c8c63e34c6d2f,64c515fa9d106ae481a1cca0,right,1,1,0.2429,3,0.000799072,0.0007,9,0,9,0,1,,,,,,,,,,
,,504219,001,2023-07-29_14h53.48.458,arm3_eps,2022.2.5,Win32,60.44122091,5bf890e426e31d0001040667,64c47140896c8c63e34c6d2f,64c515fa9d106ae481a1cca0,up,-1,1,0.2429,4,0,0.1371,10,0,10,0,1,,,,,,,,,,
,,504219,001,2023-07-29_14h53.48.458,arm3_eps,2022.2.5,Win32,60.44122091,5bf890e426e31d0001040667,64c47140896c8c63e34c6d2f,64c515fa9d106ae481a1cca0,up,-1,1,0.2429,3,0,0.1043,11,0,11,0,1,,,,,,,,,,
,,504219,001,2023-07-29_14h53.48.458,arm3_eps,2022.2.5,Win32,60.44122091,5bf890e426e31d0001040667,64c47140896c8c63e34c6d2f,64c515fa9d106ae481a1cca0,right,-1,1,0.2429,3,-0.012450492,0.0006,12,0,12,0,1,,,,,,,,,,
,,504219,001,2023-07-29_14h53.48.458,arm3_eps,2022.2.5,Win32,60.44122091,5bf890e426e31d0001040667,64c47140896c8c63e34c6d2f,64c515fa9d106ae481a1cca0,up,1,1,0.2429,2,0,0.1069,13,0,13,0,1,,,,,,,,,,
,,504219,001,2023-07-29_14h53.48.458,arm3_eps,2022.2.5,Win32,60.44122091,5bf890e426e31d0001040667,64c47140896c8c63e34c6d2f,64c515fa9d106ae481a1cca0,right,1,1,0.2429,2,-0.001917288,0.0006,14,0,14,0,1,,,,,,,,,,
,,504219,001,2023-07-29_14h53.48.458,arm3_eps,2022.2.5,Win32,60.44122091,5bf890e426e31d0001040667,64c47140896c8c63e34c6d2f,64c515fa9d106ae481a1cca0,up,1,1,0.2429,3,0,0.1352,15,0,15,0,1,,,,,,,,,,
,,504219,001,2023-07-29_14h53.48.458,arm3_eps,2022.2.5,Win32,60.44122091,5bf890e426e31d0001040667,64c47140896c8c63e34c6d2f,64c515fa9d106ae481a1cca0,down,1,1,0.2429,2,0,0.121,16,0,16,0,1,,,,,,,,,,
,,504219,001,2023-07-29_14h53.48.458,arm3_eps,2022.2.5,Win32,60.44122091,5bf890e426e31d0001040667,64c47140896c8c63e34c6d2f,64c515fa9d106ae481a1cca0,up,-1,1,0.2429,3,0,0.1236,17,0,17,0,1,,,,,,,,,,
,,504219,001,2023-07-29_14h53.48.458,arm3_eps,2022.2.5,Win32,60.44122091,5bf890e426e31d0001040667,64c47140896c8c63e34c6d2f,64c515fa9d106ae481a1cca0,up,1,1,0.2429,2,0,0.147,18,0,18,0,1,,,,,,,,,,
,,504219,001,2023-07-29_14h53.48.458,arm3_eps,2022.2.5,Win32,60.44122091,5bf890e426e31d0001040667,64c47140896c8c63e34c6d2f,64c515fa9d106ae481a1cca0,up,1,1,0.2429,3,0,0.117,19,0,19,0,1,,,,,,,,,,
,,504219,001,2023-07-29_14h53.48.458,arm3_eps,2022.2.5,Win32,60.44122091,5bf890e426e31d0001040667,64c47140896c8c63e34c6d2f,64c515fa9d106ae481a1cca0,down,1,1,0.2429,2,0,0.0006,20,0,20,0,1,,,,,,,,,,
,,504219,001,2023-07-29_14h53.48.458,arm3_eps,2022.2.5,Win32,60.44122091,5bf890e426e31d0001040667,64c47140896c8c63e34c6d2f,64c515fa9d106ae481a1cca0,up,1,1,0.2429,3,0,0.1218,21,0,21,0,1,,,,,,,,,,
,,504219,001,2023-07-29_14h53.48.458,arm3_eps,2022.2.5,Win32,60.44122091,5bf890e426e31d0001040667,64c47140896c8c63e34c6d2f,64c515fa9d106ae481a1cca0,up,1,1,0.2429,4,0,0.1562,22,0,22,0,1,,,,,,,,,,
,,504219,001,2023-07-29_14h53.48.458,arm3_eps,2022.2.5,Win32,60.44122091,5bf890e426e31d0001040667,64c47140896c8c63e34c6d2f,64c515fa9d106ae481a1cca0,up,-1,1,0.2429,5,0,0.1504,23,0,23,0,1,,,,,,,,,,
,,504219,001,2023-07-29_14h53.48.458,arm3_eps,2022.2.5,Win32,60.44122091,5bf890e426e31d0001040667,64c47140896c8c63e34c6d2f,64c515fa9d106ae481a1cca0,down,-1,1,0.2429,6,0,0.0087,24,0,24,0,1,,,,,,,,,,
,,504219,001,2023-07-29_14h53.48.458,arm3_eps,2022.2.5,Win32,60.44122091,5bf890e426e31d0001040667,64c47140896c8c63e34c6d2f,64c515fa9d106ae481a1cca0,up,1,1,0.2429,5,0,0.1385,25,0,25,0,1,,,,,,,,,,
,,504219,001,2023-07-29_14h53.48.458,arm3_eps,2022.2.5,Win32,60.44122091,5bf890e426e31d0001040667,64c47140896c8c63e34c6d2f,64c515fa9d106ae481a1cca0,down,1,1,0.2429,4,0,0.3305,26,0,26,0,1,,,,,,,,,,
,,504219,001,2023-07-29_14h53.48.458,arm3_eps,2022.2.5,Win32,60.44122091,5bf890e426e31d0001040667,64c47140896c8c63e34c6d2f,64c515fa9d106ae481a1cca0,up,1,1,0.2429,5,0,0.0006,27,0,27,0,1,,,,,,,,,,
,,504219,001,2023-07-29_14h53.48.458,arm3_eps,2022.2.5,Win32,60.44122091,5bf890e426e31d0001040667,64c47140896c8c63e34c6d2f,64c515fa9d106ae481a1cca0,up,-1,1,0.2429,6,0,0.1084,28,0,28,0,1,,,,,,,,,,
,,504219,001,2023-07-29_14h53.48.458,arm3_eps,2022.2.5,Win32,60.44122091,5bf890e426e31d0001040667,64c47140896c8c63e34c6d2f,64c515fa9d106ae481a1cca0,down,-1,1,0.2429,7,0,0.0028,29,0,29,0,1,,,,,,,,,,
,,504219,001,2023-07-29_14h53.48.458,arm3_eps,2022.2.5,Win32,60.44122091,5bf890e426e31d0001040667,64c47140896c8c63e34c6d2f,64c515fa9d106ae481a1cca0,up,-1,1,0.2429,6,0,0.1159,30,0,30,0,1,,,,,,,,,,
,,504219,001,2023-07-29_14h53.48.458,arm3_eps,2022.2.5,Win32,60.44122091,5bf890e426e31d0001040667,64c47140896c8c63e34c6d2f,64c515fa9d106ae481a1cca0,up,1,1,0.2429,5,0,0.1533,31,0,31,0,1,,,,,,,,,,
,,504219,001,2023-07-29_14h53.48.458,arm3_eps,2022.2.5,Win32,60.44122091,5bf890e426e31d0001040667,64c47140896c8c63e34c6d2f,64c515fa9d106ae481a1cca0,down,1,1,0.2429,4,0,0.0007,32,0,32,0,1,,,,,,,,,,
,,504219,001,2023-07-29_14h53.48.458,arm3_eps,2022.2.5,Win32,60.44122091,5bf890e426e31d0001040667,64c47140896c8c63e34c6d2f,64c515fa9d106ae481a1cca0,up,1,1,0.2429,5,0,0.1228,33,0,33,0,1,,,,,,,,,,
,,504219,001,2023-07-29_14h53.48.458,arm3_eps,2022.2.5,Win32,60.44122091,5bf890e426e31d0001040667,64c47140896c8c63e34c6d2f,64c515fa9d106ae481a1cca0,down,1,1,0.2429,4,0,0.0159,34,0,34,0,1,,,,,,,,,,
,,504219,001,2023-07-29_14h53.48.458,arm3_eps,2022.2.5,Win32,60.44122091,5bf890e426e31d0001040667,64c47140896c8c63e34c6d2f,64c515fa9d106ae481a1cca0,down,-1,1,0.2429,3,0,0.1209,35,0,35,0,1,,,,,,,,,,
,,504219,001,2023-07-29_14h53.48.458,arm3_eps,2022.2.5,Win32,60.44122091,5bf890e426e31d0001040667,64c47140896c8c63e34c6d2f,64c515fa9d106ae481a1cca0,down,-1,1,0.2429,4,0,0.1569,36,0,36,0,1,,,,,,,,,,
,,504219,001,2023-07-29_14h53.48.458,arm3_eps,2022.2.5,Win32,60.44122091,5bf890e426e31d0001040667,64c47140896c8c63e34c6d2f,64c515fa9d106ae481a1cca0,down,-1,1,0.2429,5,0,0.1585,37,0,37,0,1,,,,,,,,,,
,,504219,001,2023-07-29_14h53.48.458,arm3_eps,2022.2.5,Win32,60.44122091,5bf890e426e31d0001040667,64c47140896c8c63e34c6d2f,64c515fa9d106ae481a1cca0,up,-1,1,0.2429,4,0,0.1486,38,0,38,0,1,,,,,,,,,,
,,504219,001,2023-07-29_14h53.48.458,arm3_eps,2022.2.5,Win32,60.44122091,5bf890e426e31d0001040667,64c47140896c8c63e34c6d2f,64c515fa9d106ae481a1cca0,down,-1,1,0.2429,5,0,0.0007,39,0,39,0,1,,,,,,,,,,
,,504219,001,2023-07-29_14h53.48.458,arm3_eps,2022.2.5,Win32,60.44122091,5bf890e426e31d0001040667,64c47140896c8c63e34c6d2f,64c515fa9d106ae481a1cca0,up,-1,1,0.2429,4,0,0.132,40,0,40,0,1,,,,,,,,,,
,,504219,001,2023-07-29_14h53.48.458,arm3_eps,2022.2.5,Win32,60.44122091,5bf890e426e31d0001040667,64c47140896c8c63e34c6d2f,64c515fa9d106ae481a1cca0,down,-1,1,0.2429,5,0,0.0007,41,0,41,0,1,,,,,,,,,,
,,504219,001,2023-07-29_14h53.48.458,arm3_eps,2022.2.5,Win32,60.44122091,5bf890e426e31d0001040667,64c47140896c8c63e34c6d2f,64c515fa9d106ae481a1cca0,down,1,1,0.2429,6,0,0.1245,42,0,42,0,1,,,,,,,,,,
,,504219,001,2023-07-29_14h53.48.458,arm3_eps,2022.2.5,Win32,60.44122091,5bf890e426e31d0001040667,64c47140896c8c63e34c6d2f,64c515fa9d106ae481a1cca0,up,-1,1,0.2429,7,0,0.1583,43,0,43,0,1,,,,,,,,,,
,,504219,001,2023-07-29_14h53.48.458,arm3_eps,2022.2.5,Win32,60.44122091,5bf890e426e31d0001040667,64c47140896c8c63e34c6d2f,64c515fa9d106ae481a1cca0,down,-1,1,0.2429,8,0,0.0011,44,0,44,0,1,,,,,,,,,,
,,504219,001,2023-07-29_14h53.48.458,arm3_eps,2022.2.5,Win32,60.44122091,5bf890e426e31d0001040667,64c47140896c8c63e34c6d2f,64c515fa9d106ae481a1cca0,up,-1,1,0.2429,7,0,0.1423,45,0,45,0,1,,,,,,,,,,
,,504219,001,2023-07-29_14h53.48.458,arm3_eps,2022.2.5,Win32,60.44122091,5bf890e426e31d0001040667,64c47140896c8c63e34c6d2f,64c515fa9d106ae481a1cca0,down,-1,1,0.2429,8,0,0.0025,46,0,46,0,1,,,,,,,,,,
,,504219,001,2023-07-29_14h53.48.458,arm3_eps,2022.2.5,Win32,60.44122091,5bf890e426e31d0001040667,64c47140896c8c63e34c6d2f,64c515fa9d106ae481a1cca0,down,-1,1,0.2429,9,0,0.155,47,0,47,0,1,,,,,,,,,,
,,504219,001,2023-07-29_14h53.48.458,arm3_eps,2022.2.5,Win32,60.44122091,5bf890e426e31d0001040667,64c47140896c8c63e34c6d2f,64c515fa9d106ae481a1cca0,up,1,1,0.2429,8,0,0.1186,48,0,48,0,1,,,,,,,,,,
,,504219,001,2023-07-29_14h53.48.458,arm3_eps,2022.2.5,Win32,60.44122091,5bf890e426e31d0001040667,64c47140896c8c63e34c6d2f,64c515fa9d106ae481a1cca0,down,1,1,0.2429,8,0,0.0006,49,0,49,0,1,,,,,,,,,,
space,0.4946,504219,001,2023-07-29_14h53.48.458,arm3_eps,2022.2.5,Win32,60.44122091,5bf890e426e31d0001040667,64c47140896c8c63e34c6d2f,64c515fa9d106ae481a1cca0,,,,,,,,,,,,,,,,,,,,,,
space,0.6888,504219,001,2023-07-29_14h53.48.458,arm3_eps,2022.2.5,Win32,60.44122091,5bf890e426e31d0001040667,64c47140896c8c63e34c6d2f,64c515fa9d106ae481a1cca0,,,,,,,,,,,,,,,,,,,,,,
space,0.1893,504219,001,2023-07-29_14h53.48.458,arm3_eps,2022.2.5,Win32,60.44122091,5bf890e426e31d0001040667,64c47140896c8c63e34c6d2f,64c515fa9d106ae481a1cca0,,,,,,,,,,,,,,,,,,,,,,
space,0.1406,504219,001,2023-07-29_14h53.48.458,arm3_eps,2022.2.5,Win32,60.44122091,5bf890e426e31d0001040667,64c47140896c8c63e34c6d2f,64c515fa9d106ae481a1cca0,,,,,,,,,,,,,,,,,,,,,,
space,0.1192,504219,001,2023-07-29_14h53.48.458,arm3_eps,2022.2.5,Win32,60.44122091,5bf890e426e31d0001040667,64c47140896c8c63e34c6d2f,64c515fa9d106ae481a1cca0,,,,,,,,,,,,,,,,,,,,,,
space,0.1413,504219,001,2023-07-29_14h53.48.458,arm3_eps,2022.2.5,Win32,60.44122091,5bf890e426e31d0001040667,64c47140896c8c63e34c6d2f,64c515fa9d106ae481a1cca0,,,,,,,,,,,,,,,,,,,,,,
,,504219,001,2023-07-29_14h53.48.458,arm3_eps,2022.2.5,Win32,60.44122091,5bf890e426e31d0001040667,64c47140896c8c63e34c6d2f,64c515fa9d106ae481a1cca0,down,1,0.75,0.2429,-1,0,0.0212,0,0,0,0,1,,,,,,,,,,
,,504219,001,2023-07-29_14h53.48.458,arm3_eps,2022.2.5,Win32,60.44122091,5bf890e426e31d0001040667,64c47140896c8c63e34c6d2f,64c515fa9d106ae481a1cca0,down,-1,0.75,0.2429,-2,0,0.1456,1,0,1,0,1,,,,,,,,,,
,,504219,001,2023-07-29_14h53.48.458,arm3_eps,2022.2.5,Win32,60.44122091,5bf890e426e31d0001040667,64c47140896c8c63e34c6d2f,64c515fa9d106ae481a1cca0,down,-1,0.75,0.2429,-1,0,0.1454,2,0,2,0,1,,,,,,,,,,
,,504219,001,2023-07-29_14h53.48.458,arm3_eps,2022.2.5,Win32,60.44122091,5bf890e426e31d0001040667,64c47140896c8c63e34c6d2f,64c515fa9d106ae481a1cca0,down,-1,0.75,0.2429,0,0,0.1409,3,0,3,0,1,,,,,,,,,,
,,504219,001,2023-07-29_14h53.48.458,arm3_eps,2022.2.5,Win32,60.44122091,5bf890e426e31d0001040667,64c47140896c8c63e34c6d2f,64c515fa9d106ae481a1cca0,down,-1,0.75,0.2429,1,0,0.3064,4,0,4,0,1,,,,,,,,,,
,,504219,001,2023-07-29_14h53.48.458,arm3_eps,2022.2.5,Win32,60.44122091,5bf890e426e31d0001040667,64c47140896c8c63e34c6d2f,64c515fa9d106ae481a1cca0,up,-1,0.75,0.2429,0,0,0.1432,5,0,5,0,1,,,,,,,,,,
,,504219,001,2023-07-29_14h53.48.458,arm3_eps,2022.2.5,Win32,60.44122091,5bf890e426e31d0001040667,64c47140896c8c63e34c6d2f,64c515fa9d106ae481a1cca0,down,-1,0.75,0.2429,1,0,0.1534,6,0,6,0,1,,,,,,,,,,
,,504219,001,2023-07-29_14h53.48.458,arm3_eps,2022.2.5,Win32,60.44122091,5bf890e426e31d0001040667,64c47140896c8c63e34c6d2f,64c515fa9d106ae481a1cca0,up,1,0.75,0.2429,0,0,0.1384,7,0,7,0,1,,,,,,,,,,
,,504219,001,2023-07-29_14h53.48.458,arm3_eps,2022.2.5,Win32,60.44122091,5bf890e426e31d0001040667,64c47140896c8c63e34c6d2f,64c515fa9d106ae481a1cca0,down,-1,0.75,0.2429,0,0,0.0006,8,0,8,0,1,,,,,,,,,,
,,504219,001,2023-07-29_14h53.48.458,arm3_eps,2022.2.5,Win32,60.44122091,5bf890e426e31d0001040667,64c47140896c8c63e34c6d2f,64c515fa9d106ae481a1cca0,up,-1,0.75,0.2429,-1,0,0.1225,9,0,9,0,1,,,,,,,,,,
,,504219,001,2023-07-29_14h53.48.458,arm3_eps,2022.2.5,Win32,60.44122091,5bf890e426e31d0001040667,64c47140896c8c63e34c6d2f,64c515fa9d106ae481a1cca0,down,-1,0.75,0.2429,0,0,0.0007,10,0,10,0,1,,,,,,,,,,
,,504219,001,2023-07-29_14h53.48.458,arm3_eps,2022.2.5,Win32,60.44122091,5bf890e426e31d0001040667,64c47140896c8c63e34c6d2f,64c515fa9d106ae481a1cca0,up,1,0.75,0.2429,0,0,0.1338,11,0,11,0,1,,,,,,,,,,
,,504219,001,2023-07-29_14h53.48.458,arm3_eps,2022.2.5,Win32,60.44122091,5bf890e426e31d0001040667,64c47140896c8c63e34c6d2f,64c515fa9d106ae481a1cca0,down,1,0.75,0.2429,-1,0,0.0006,12,0,12,0,1,,,,,,,,,,
,,504219,001,2023-07-29_14h53.48.458,arm3_eps,2022.2.5,Win32,60.44122091,5bf890e426e31d0001040667,64c47140896c8c63e34c6d2f,64c515fa9d106ae481a1cca0,down,-1,0.75,0.2429,-2,0,0.1332,13,0,13,0,1,,,,,,,,,,
,,504219,001,2023-07-29_14h53.48.458,arm3_eps,2022.2.5,Win32,60.44122091,5bf890e426e31d0001040667,64c47140896c8c63e34c6d2f,64c515fa9d106ae481a1cca0,up,-1,0.75,0.2429,-3,0,0.0007,14,0,14,0,1,,,,,,,,,,
,,504219,001,2023-07-29_14h53.48.458,arm3_eps,2022.2.5,Win32,60.44122091,5bf890e426e31d0001040667,64c47140896c8c63e34c6d2f,64c515fa9d106ae481a1cca0,up,1,0.75,0.2429,-4,0,0.1231,15,0,15,0,1,,,,,,,,,,
,,504219,001,2023-07-29_14h53.48.458,arm3_eps,2022.2.5,Win32,60.44122091,5bf890e426e31d0001040667,64c47140896c8c63e34c6d2f,64c515fa9d106ae481a1cca0,down,1,0.75,0.2429,-4,0,0.0006,16,0,16,0,1,,,,,,,,,,
,,504219,001,2023-07-29_14h53.48.458,arm3_eps,2022.2.5,Win32,60.44122091,5bf890e426e31d0001040667,64c47140896c8c63e34c6d2f,64c515fa9d106ae481a1cca0,up,-1,0.75,0.2429,-3,0,0.1396,17,0,17,0,1,,,,,,,,,,
,,504219,001,2023-07-29_14h53.48.458,arm3_eps,2022.2.5,Win32,60.44122091,5bf890e426e31d0001040667,64c47140896c8c63e34c6d2f,64c515fa9d106ae481a1cca0,up,1,0.75,0.2429,-3,0,0.1474,18,0,18,0,1,,,,,,,,,,
,,504219,001,2023-07-29_14h53.48.458,arm3_eps,2022.2.5,Win32,60.44122091,5bf890e426e31d0001040667,64c47140896c8c63e34c6d2f,64c515fa9d106ae481a1cca0,down,-1,0.75,0.2429,-3,0,0.0007,19,0,19,0,1,,,,,,,,,,
,,504219,001,2023-07-29_14h53.48.458,arm3_eps,2022.2.5,Win32,60.44122091,5bf890e426e31d0001040667,64c47140896c8c63e34c6d2f,64c515fa9d106ae481a1cca0,down,-1,0.75,0.2429,-2,0,0.137,20,0,20,0,1,,,,,,,,,,
,,504219,001,2023-07-29_14h53.48.458,arm3_eps,2022.2.5,Win32,60.44122091,5bf890e426e31d0001040667,64c47140896c8c63e34c6d2f,64c515fa9d106ae481a1cca0,up,-1,0.75,0.2429,-3,0,0.1397,21,0,21,0,1,,,,,,,,,,
,,504219,001,2023-07-29_14h53.48.458,arm3_eps,2022.2.5,Win32,60.44122091,5bf890e426e31d0001040667,64c47140896c8c63e34c6d2f,64c515fa9d106ae481a1cca0,down,-1,0.75,0.2429,-2,0,0.0006,22,0,22,0,1,,,,,,,,,,
,,504219,001,2023-07-29_14h53.48.458,arm3_eps,2022.2.5,Win32,60.44122091,5bf890e426e31d0001040667,64c47140896c8c63e34c6d2f,64c515fa9d106ae481a1cca0,up,-1,0.75,0.2429,-3,0,0.142,23,0,23,0,1,,,,,,,,,,
,,504219,001,2023-07-29_14h53.48.458,arm3_eps,2022.2.5,Win32,60.44122091,5bf890e426e31d0001040667,64c47140896c8c63e34c6d2f,64c515fa9d106ae481a1cca0,down,1,0.75,0.2429,-3,0,0.0016,24,0,24,0,1,,,,,,,,,,
,,504219,001,2023-07-29_14h53.48.458,arm3_eps,2022.2.5,Win32,60.44122091,5bf890e426e31d0001040667,64c47140896c8c63e34c6d2f,64c515fa9d106ae481a1cca0,down,1,0.75,0.2429,-3,0,0.1378,25,0,25,0,1,,,,,,,,,,
,,504219,001,2023-07-29_14h53.48.458,arm3_eps,2022.2.5,Win32,60.44122091,5bf890e426e31d0001040667,64c47140896c8c63e34c6d2f,64c515fa9d106ae481a1cca0,up,1,0.75,0.2429,-2,0,0.153,26,0,26,0,1,,,,,,,,,,
,,504219,001,2023-07-29_14h53.48.458,arm3_eps,2022.2.5,Win32,60.44122091,5bf890e426e31d0001040667,64c47140896c8c63e34c6d2f,64c515fa9d106ae481a1cca0,down,-1,0.75,0.2429,-3,0,0.0005,27,0,27,0,1,,,,,,,,,,
,,504219,001,2023-07-29_14h53.48.458,arm3_eps,2022.2.5,Win32,60.44122091,5bf890e426e31d0001040667,64c47140896c8c63e34c6d2f,64c515fa9d106ae481a1cca0,down,1,0.75,0.2429,-3,0,0.1421,28,0,28,0,1,,,,,,,,,,
,,504219,001,2023-07-29_14h53.48.458,arm3_eps,2022.2.5,Win32,60.44122091,5bf890e426e31d0001040667,64c47140896c8c63e34c6d2f,64c515fa9d106ae481a1cca0,up,1,0.75,0.2429,-2,0,0.1487,29,0,29,0,1,,,,,,,,,,
,,504219,001,2023-07-29_14h53.48.458,arm3_eps,2022.2.5,Win32,60.44122091,5bf890e426e31d0001040667,64c47140896c8c63e34c6d2f,64c515fa9d106ae481a1cca0,down,1,0.75,0.2429,-2,0,0.0007,30,0,30,0,1,,,,,,,,,,
,,504219,001,2023-07-29_14h53.48.458,arm3_eps,2022.2.5,Win32,60.44122091,5bf890e426e31d0001040667,64c47140896c8c63e34c6d2f,64c515fa9d106ae481a1cca0,down,1,0.75,0.2429,-3,0,0.1527,31,0,31,0,1,,,,,,,,,,
,,504219,001,2023-07-29_14h53.48.458,arm3_eps,2022.2.5,Win32,60.44122091,5bf890e426e31d0001040667,64c47140896c8c63e34c6d2f,64c515fa9d106ae481a1cca0,up,1,0.75,0.2429,-2,0,0.1352,32,0,32,0,1,,,,,,,,,,
,,504219,001,2023-07-29_14h53.48.458,arm3_eps,2022.2.5,Win32,60.44122091,5bf890e426e31d0001040667,64c47140896c8c63e34c6d2f,64c515fa9d106ae481a1cca0,down,-1,0.75,0.2429,-3,0,0.0006,33,0,33,0,1,,,,,,,,,,
,,504219,001,2023-07-29_14h53.48.458,arm3_eps,2022.2.5,Win32,60.44122091,5bf890e426e31d0001040667,64c47140896c8c63e34c6d2f,64c515fa9d106ae481a1cca0,up,-1,0.75,0.2429,-4,0,0.1322,34,0,34,0,1,,,,,,,,,,
,,504219,001,2023-07-29_14h53.48.458,arm3_eps,2022.2.5,Win32,60.44122091,5bf890e426e31d0001040667,64c47140896c8c63e34c6d2f,64c515fa9d106ae481a1cca0,up,1,0.75,0.2429,-5,0,0.1492,35,0,35,0,1,,,,,,,,,,
,,504219,001,2023-07-29_14h53.48.458,arm3_eps,2022.2.5,Win32,60.44122091,5bf890e426e31d0001040667,64c47140896c8c63e34c6d2f,64c515fa9d106ae481a1cca0,down,1,0.75,0.2429,-5,0,0.0006,36,0,36,0,1,,,,,,,,,,
,,504219,001,2023-07-29_14h53.48.458,arm3_eps,2022.2.5,Win32,60.44122091,5bf890e426e31d0001040667,64c47140896c8c63e34c6d2f,64c515fa9d106ae481a1cca0,down,1,0.75,0.2429,-6,0,0.137,37,0,37,0,1,,,,,,,,,,
,,504219,001,2023-07-29_14h53.48.458,arm3_eps,2022.2.5,Win32,60.44122091,5bf890e426e31d0001040667,64c47140896c8c63e34c6d2f,64c515fa9d106ae481a1cca0,down,-1,0.75,0.2429,-7,0,0.1524,38,0,38,0,1,,,,,,,,,,
,,504219,001,2023-07-29_14h53.48.458,arm3_eps,2022.2.5,Win32,60.44122091,5bf890e426e31d0001040667,64c47140896c8c63e34c6d2f,64c515fa9d106ae481a1cca0,up,-1,0.75,0.2429,-8,0,0.0067,39,0,39,0,1,,,,,,,,,,
,,504219,001,2023-07-29_14h53.48.458,arm3_eps,2022.2.5,Win32,60.44122091,5bf890e426e31d0001040667,64c47140896c8c63e34c6d2f,64c515fa9d106ae481a1cca0,down,-1,0.75,0.2429,-7,0,0.1332,40,0,40,0,1,,,,,,,,,,
,,504219,001,2023-07-29_14h53.48.458,arm3_eps,2022.2.5,Win32,60.44122091,5bf890e426e31d0001040667,64c47140896c8c63e34c6d2f,64c515fa9d106ae481a1cca0,up,-1,0.75,0.2429,-8,0,0.0007,41,0,41,0,1,,,,,,,,,,
,,504219,001,2023-07-29_14h53.48.458,arm3_eps,2022.2.5,Win32,60.44122091,5bf890e426e31d0001040667,64c47140896c8c63e34c6d2f,64c515fa9d106ae481a1cca0,down,-1,0.75,0.2429,-7,0,0.1301,42,0,42,0,1,,,,,,,,,,
,,504219,001,2023-07-29_14h53.48.458,arm3_eps,2022.2.5,Win32,60.44122091,5bf890e426e31d0001040667,64c47140896c8c63e34c6d2f,64c515fa9d106ae481a1cca0,down,-1,0.75,0.2429,-6,0,0.1632,43,0,43,0,1,,,,,,,,,,
,,504219,001,2023-07-29_14h53.48.458,arm3_eps,2022.2.5,Win32,60.44122091,5bf890e426e31d0001040667,64c47140896c8c63e34c6d2f,64c515fa9d106ae481a1cca0,up,-1,0.75,0.2429,-7,0,0.0006,44,0,44,0,1,,,,,,,,,,
,,504219,001,2023-07-29_14h53.48.458,arm3_eps,2022.2.5,Win32,60.44122091,5bf890e426e31d0001040667,64c47140896c8c63e34c6d2f,64c515fa9d106ae481a1cca0,down,1,0.75,0.2429,-6,0,0.1238,45,0,45,0,1,,,,,,,,,,
,,504219,001,2023-07-29_14h53.48.458,arm3_eps,2022.2.5,Win32,60.44122091,5bf890e426e31d0001040667,64c47140896c8c63e34c6d2f,64c515fa9d106ae481a1cca0,down,1,0.75,0.2429,-7,0,0.1663,46,0,46,0,1,,,,,,,,,,
,,504219,001,2023-07-29_14h53.48.458,arm3_eps,2022.2.5,Win32,60.44122091,5bf890e426e31d0001040667,64c47140896c8c63e34c6d2f,64c515fa9d106ae481a1cca0,down,1,0.75,0.2429,-8,0,0.1516,47,0,47,0,1,,,,,,,,,,
,,504219,001,2023-07-29_14h53.48.458,arm3_eps,2022.2.5,Win32,60.44122091,5bf890e426e31d0001040667,64c47140896c8c63e34c6d2f,64c515fa9d106ae481a1cca0,down,1,0.75,0.2429,-9,0,0.1452,48,0,48,0,1,,,,,,,,,,
,,504219,001,2023-07-29_14h53.48.458,arm3_eps,2022.2.5,Win32,60.44122091,5bf890e426e31d0001040667,64c47140896c8c63e34c6d2f,64c515fa9d106ae481a1cca0,down,1,0.75,0.2429,-9,0,0.156,49,0,49,0,1,,,,,,,,,,
space,0.8525,504219,001,2023-07-29_14h53.48.458,arm3_eps,2022.2.5,Win32,60.44122091,5bf890e426e31d0001040667,64c47140896c8c63e34c6d2f,64c515fa9d106ae481a1cca0,,,,,,,,,,,,,,,,,,,,,,
space,0.6252,504219,001,2023-07-29_14h53.48.458,arm3_eps,2022.2.5,Win32,60.44122091,5bf890e426e31d0001040667,64c47140896c8c63e34c6d2f,64c515fa9d106ae481a1cca0,,,,,,,,,,,,,,,,,,,,,,
space,0.1587,504219,001,2023-07-29_14h53.48.458,arm3_eps,2022.2.5,Win32,60.44122091,5bf890e426e31d0001040667,64c47140896c8c63e34c6d2f,64c515fa9d106ae481a1cca0,,,,,,,,,,,,,,,,,,,,,,
,,504219,001,2023-07-29_14h53.48.458,arm3_eps,2022.2.5,Win32,60.44122091,5bf890e426e31d0001040667,64c47140896c8c63e34c6d2f,64c515fa9d106ae481a1cca0,up,1,0.75,0.05,0,0,0.1805,0,0,0,0,1,,,,,,,,,,
,,504219,001,2023-07-29_14h53.48.458,arm3_eps,2022.2.5,Win32,60.44122091,5bf890e426e31d0001040667,64c47140896c8c63e34c6d2f,64c515fa9d106ae481a1cca0,up,1,0.75,0.05,1,0,0.1317,1,0,1,0,1,,,,,,,,,,
,,504219,001,2023-07-29_14h53.48.458,arm3_eps,2022.2.5,Win32,60.44122091,5bf890e426e31d0001040667,64c47140896c8c63e34c6d2f,64c515fa9d106ae481a1cca0,down,1,0.75,0.05,1,0,0.0006,2,0,2,0,1,,,,,,,,,,
,,504219,001,2023-07-29_14h53.48.458,arm3_eps,2022.2.5,Win32,60.44122091,5bf890e426e31d0001040667,64c47140896c8c63e34c6d2f,64c515fa9d106ae481a1cca0,down,1,0.75,0.05,0,0,0.1407,3,0,3,0,1,,,,,,,,,,
,,504219,001,2023-07-29_14h53.48.458,arm3_eps,2022.2.5,Win32,60.44122091,5bf890e426e31d0001040667,64c47140896c8c63e34c6d2f,64c515fa9d106ae481a1cca0,up,1,0.75,0.05,0,0,0.1386,4,0,4,0,1,,,,,,,,,,
,,504219,001,2023-07-29_14h53.48.458,arm3_eps,2022.2.5,Win32,60.44122091,5bf890e426e31d0001040667,64c47140896c8c63e34c6d2f,64c515fa9d106ae481a1cca0,down,1,0.75,0.05,-1,0,0.0007,5,0,5,0,1,,,,,,,,,,
,,504219,001,2023-07-29_14h53.48.458,arm3_eps,2022.2.5,Win32,60.44122091,5bf890e426e31d0001040667,64c47140896c8c63e34c6d2f,64c515fa9d106ae481a1cca0,up,1,0.75,0.05,0,0,0.1365,6,0,6,0,1,,,,,,,,,,
,,504219,001,2023-07-29_14h53.48.458,arm3_eps,2022.2.5,Win32,60.44122091,5bf890e426e31d0001040667,64c47140896c8c63e34c6d2f,64c515fa9d106ae481a1cca0,down,1,0.75,0.05,-1,0,0.0006,7,0,7,0,1,,,,,,,,,,
,,504219,001,2023-07-29_14h53.48.458,arm3_eps,2022.2.5,Win32,60.44122091,5bf890e426e31d0001040667,64c47140896c8c63e34c6d2f,64c515fa9d106ae481a1cca0,up,1,0.75,0.05,0,0,0.1139,8,0,8,0,1,,,,,,,,,,
,,504219,001,2023-07-29_14h53.48.458,arm3_eps,2022.2.5,Win32,60.44122091,5bf890e426e31d0001040667,64c47140896c8c63e34c6d2f,64c515fa9d106ae481a1cca0,down,1,0.75,0.05,-1,0,0.0006,9,0,9,0,1,,,,,,,,,,
,,504219,001,2023-07-29_14h53.48.458,arm3_eps,2022.2.5,Win32,60.44122091,5bf890e426e31d0001040667,64c47140896c8c63e34c6d2f,64c515fa9d106ae481a1cca0,up,1,0.75,0.05,0,0,0.1234,10,0,10,0,1,,,,,,,,,,
,,504219,001,2023-07-29_14h53.48.458,arm3_eps,2022.2.5,Win32,60.44122091,5bf890e426e31d0001040667,64c47140896c8c63e34c6d2f,64c515fa9d106ae481a1cca0,down,1,0.75,0.05,-1,0,0.0007,11,0,11,0,1,,,,,,,,,,
,,504219,001,2023-07-29_14h53.48.458,arm3_eps,2022.2.5,Win32,60.44122091,5bf890e426e31d0001040667,64c47140896c8c63e34c6d2f,64c515fa9d106ae481a1cca0,up,1,0.75,0.05,0,0,0.1362,12,0,12,0,1,,,,,,,,,,
,,504219,001,2023-07-29_14h53.48.458,arm3_eps,2022.2.5,Win32,60.44122091,5bf890e426e31d0001040667,64c47140896c8c63e34c6d2f,64c515fa9d106ae481a1cca0,up,1,0.75,0.05,0,0,0.1524,13,0,13,0,1,,,,,,,,,,
,,504219,001,2023-07-29_14h53.48.458,arm3_eps,2022.2.5,Win32,60.44122091,5bf890e426e31d0001040667,64c47140896c8c63e34c6d2f,64c515fa9d106ae481a1cca0,down,1,0.75,0.05,-1,0,0.0006,14,0,14,0,1,,,,,,,,,,
,,504219,001,2023-07-29_14h53.48.458,arm3_eps,2022.2.5,Win32,60.44122091,5bf890e426e31d0001040667,64c47140896c8c63e34c6d2f,64c515fa9d106ae481a1cca0,up,1,0.75,0.05,0,0,0.1307,15,0,15,0,1,,,,,,,,,,
,,504219,001,2023-07-29_14h53.48.458,arm3_eps,2022.2.5,Win32,60.44122091,5bf890e426e31d0001040667,64c47140896c8c63e34c6d2f,64c515fa9d106ae481a1cca0,up,1,0.75,0.05,1,0,0.159,16,0,16,0,1,,,,,,,,,,
,,504219,001,2023-07-29_14h53.48.458,arm3_eps,2022.2.5,Win32,60.44122091,5bf890e426e31d0001040667,64c47140896c8c63e34c6d2f,64c515fa9d106ae481a1cca0,down,1,0.75,0.05,0,0,0.0027,17,0,17,0,1,,,,,,,,,,
,,504219,001,2023-07-29_14h53.48.458,arm3_eps,2022.2.5,Win32,60.44122091,5bf890e426e31d0001040667,64c47140896c8c63e34c6d2f,64c515fa9d106ae481a1cca0,up,1,0.75,0.05,1,0,0.1407,18,0,18,0,1,,,,,,,,,,
,,504219,001,2023-07-29_14h53.48.458,arm3_eps,2022.2.5,Win32,60.44122091,5bf890e426e31d0001040667,64c47140896c8c63e34c6d2f,64c515fa9d106ae481a1cca0,down,1,0.75,0.05,0,0,0.0007,19,0,19,0,1,,,,,,,,,,
,,504219,001,2023-07-29_14h53.48.458,arm3_eps,2022.2.5,Win32,60.44122091,5bf890e426e31d0001040667,64c47140896c8c63e34c6d2f,64c515fa9d106ae481a1cca0,down,1,0.75,0.05,-1,0,0.1555,20,0,20,0,1,,,,,,,,,,
,,504219,001,2023-07-29_14h53.48.458,arm3_eps,2022.2.5,Win32,60.44122091,5bf890e426e31d0001040667,64c47140896c8c63e34c6d2f,64c515fa9d106ae481a1cca0,up,1,0.75,0.05,-1,0,0.1415,21,0,21,0,1,,,,,,,,,,
,,504219,001,2023-07-29_14h53.48.458,arm3_eps,2022.2.5,Win32,60.44122091,5bf890e426e31d0001040667,64c47140896c8c63e34c6d2f,64c515fa9d106ae481a1cca0,down,1,0.75,0.05,-2,0,0.0006,22,0,22,0,1,,,,,,,,,,
,,504219,001,2023-07-29_14h53.48.458,arm3_eps,2022.2.5,Win32,60.44122091,5bf890e426e31d0001040667,64c47140896c8c63e34c6d2f,64c515fa9d106ae481a1cca0,down,1,0.75,0.05,-3,0,0.1459,23,0,23,0,1,,,,,,,,,,
,,504219,001,2023-07-29_14h53.48.458,arm3_eps,2022.2.5,Win32,60.44122091,5bf890e426e31d0001040667,64c47140896c8c63e34c6d2f,64c515fa9d106ae481a1cca0,down,1,0.75,0.05,-4,0,0.1584,24,0,24,0,1,,,,,,,,,,
,,504219,001,2023-07-29_14h53.48.458,arm3_eps,2022.2.5,Win32,60.44122091,5bf890e426e31d0001040667,64c47140896c8c63e34c6d2f,64c515fa9d106ae481a1cca0,down,1,0.75,0.05,-5,0,0.1734,25,0,25,0,1,,,,,,,,,,
,,504219,001,2023-07-29_14h53.48.458,arm3_eps,2022.2.5,Win32,60.44122091,5bf890e426e31d0001040667,64c47140896c8c63e34c6d2f,64c515fa9d106ae481a1cca0,up,1,0.75,0.05,-5,0,0.1135,26,0,26,0,1,,,,,,,,,,
,,504219,001,2023-07-29_14h53.48.458,arm3_eps,2022.2.5,Win32,60.44122091,5bf890e426e31d0001040667,64c47140896c8c63e34c6d2f,64c515fa9d106ae481a1cca0,down,1,0.75,0.05,-6,0,0.1642,27,0,27,0,1,,,,,,,,,,
,,504219,001,2023-07-29_14h53.48.458,arm3_eps,2022.2.5,Win32,60.44122091,5bf890e426e31d0001040667,64c47140896c8c63e34c6d2f,64c515fa9d106ae481a1cca0,up,1,0.75,0.05,-6,0,0.1835,28,0,28,0,1,,,,,,,,,,
,,504219,001,2023-07-29_14h53.48.458,arm3_eps,2022.2.5,Win32,60.44122091,5bf890e426e31d0001040667,64c47140896c8c63e34c6d2f,64c515fa9d106ae481a1cca0,down,1,0.75,0.05,-7,0,0.0007,29,0,29,0,1,,,,,,,,,,
,,504219,001,2023-07-29_14h53.48.458,arm3_eps,2022.2.5,Win32,60.44122091,5bf890e426e31d0001040667,64c47140896c8c63e34c6d2f,64c515fa9d106ae481a1cca0,up,1,0.75,0.05,-6,0,0.1129,30,0,30,0,1,,,,,,,,,,
,,504219,001,2023-07-29_14h53.48.458,arm3_eps,2022.2.5,Win32,60.44122091,5bf890e426e31d0001040667,64c47140896c8c63e34c6d2f,64c515fa9d106ae481a1cca0,down,1,0.75,0.05,-6,0,0.1452,31,0,31,0,1,,,,,,,,,,
,,504219,001,2023-07-29_14h53.48.458,arm3_eps,2022.2.5,Win32,60.44122091,5bf890e426e31d0001040667,64c47140896c8c63e34c6d2f,64c515fa9d106ae481a1cca0,up,1,0.75,0.05,-5,0,0.0007,32,0,32,0,1,,,,,,,,,,
,,504219,001,2023-07-29_14h53.48.458,arm3_eps,2022.2.5,Win32,60.44122091,5bf890e426e31d0001040667,64c47140896c8c63e34c6d2f,64c515fa9d106ae481a1cca0,down,-1,0.75,0.05,-5,0,0.1486,33,0,33,0,1,,,,,,,,,,
,,504219,001,2023-07-29_14h53.48.458,arm3_eps,2022.2.5,Win32,60.44122091,5bf890e426e31d0001040667,64c47140896c8c63e34c6d2f,64c515fa9d106ae481a1cca0,up,-1,0.75,0.05,-6,0,0.1353,34,0,34,0,1,,,,,,,,,,
,,504219,001,2023-07-29_14h53.48.458,arm3_eps,2022.2.5,Win32,60.44122091,5bf890e426e31d0001040667,64c47140896c8c63e34c6d2f,64c515fa9d106ae481a1cca0,up,-1,0.75,0.05,-6,0,0.1644,35,0,35,0,1,,,,,,,,,,
,,504219,001,2023-07-29_14h53.48.458,arm3_eps,2022.2.5,Win32,60.44122091,5bf890e426e31d0001040667,64c47140896c8c63e34c6d2f,64c515fa9d106ae481a1cca0,up,-1,0.75,0.05,-6,0,0.1661,36,0,36,0,1,,,,,,,,,,
,,504219,001,2023-07-29_14h53.48.458,arm3_eps,2022.2.5,Win32,60.44122091,5bf890e426e31d0001040667,64c47140896c8c63e34c6d2f,64c515fa9d106ae481a1cca0,up,-1,0.75,0.05,-6,0,0.1443,37,0,37,0,1,,,,,,,,,,
,,504219,001,2023-07-29_14h53.48.458,arm3_eps,2022.2.5,Win32,60.44122091,5bf890e426e31d0001040667,64c47140896c8c63e34c6d2f,64c515fa9d106ae481a1cca0,up,-1,0.75,0.05,-7,0,0.1621,38,0,38,0,1,,,,,,,,,,
,,504219,001,2023-07-29_14h53.48.458,arm3_eps,2022.2.5,Win32,60.44122091,5bf890e426e31d0001040667,64c47140896c8c63e34c6d2f,64c515fa9d106ae481a1cca0,up,-1,0.75,0.05,-8,0,0.166,39,0,39,0,1,,,,,,,,,,
,,504219,001,2023-07-29_14h53.48.458,arm3_eps,2022.2.5,Win32,60.44122091,5bf890e426e31d0001040667,64c47140896c8c63e34c6d2f,64c515fa9d106ae481a1cca0,up,-1,0.75,0.05,-8,0,0.1965,40,0,40,0,1,,,,,,,,,,
,,504219,001,2023-07-29_14h53.48.458,arm3_eps,2022.2.5,Win32,60.44122091,5bf890e426e31d0001040667,64c47140896c8c63e34c6d2f,64c515fa9d106ae481a1cca0,down,-1,0.75,0.05,-7,0,0.1448,41,0,41,0,1,,,,,,,,,,
,,504219,001,2023-07-29_14h53.48.458,arm3_eps,2022.2.5,Win32,60.44122091,5bf890e426e31d0001040667,64c47140896c8c63e34c6d2f,64c515fa9d106ae481a1cca0,up,-1,0.75,0.05,-7,0,0.1572,42,0,42,0,1,,,,,,,,,,
,,504219,001,2023-07-29_14h53.48.458,arm3_eps,2022.2.5,Win32,60.44122091,5bf890e426e31d0001040667,64c47140896c8c63e34c6d2f,64c515fa9d106ae481a1cca0,up,-1,0.75,0.05,-8,0,0.1693,43,0,43,0,1,,,,,,,,,,
,,504219,001,2023-07-29_14h53.48.458,arm3_eps,2022.2.5,Win32,60.44122091,5bf890e426e31d0001040667,64c47140896c8c63e34c6d2f,64c515fa9d106ae481a1cca0,down,-1,0.75,0.05,-8,0,0.0007,44,0,44,0,1,,,,,,,,,,
,,504219,001,2023-07-29_14h53.48.458,arm3_eps,2022.2.5,Win32,60.44122091,5bf890e426e31d0001040667,64c47140896c8c63e34c6d2f,64c515fa9d106ae481a1cca0,up,-1,0.75,0.05,-8,0,0.1519,45,0,45,0,1,,,,,,,,,,
,,504219,001,2023-07-29_14h53.48.458,arm3_eps,2022.2.5,Win32,60.44122091,5bf890e426e31d0001040667,64c47140896c8c63e34c6d2f,64c515fa9d106ae481a1cca0,down,-1,0.75,0.05,-7,0,0.0008,46,0,46,0,1,,,,,,,,,,
,,504219,001,2023-07-29_14h53.48.458,arm3_eps,2022.2.5,Win32,60.44122091,5bf890e426e31d0001040667,64c47140896c8c63e34c6d2f,64c515fa9d106ae481a1cca0,down,-1,0.75,0.05,-6,0,0.1627,47,0,47,0,1,,,,,,,,,,
,,504219,001,2023-07-29_14h53.48.458,arm3_eps,2022.2.5,Win32,60.44122091,5bf890e426e31d0001040667,64c47140896c8c63e34c6d2f,64c515fa9d106ae481a1cca0,up,-1,0.75,0.05,-7,0,0.2344,48,0,48,0,1,,,,,,,,,,
,,504219,001,2023-07-29_14h53.48.458,arm3_eps,2022.2.5,Win32,60.44122091,5bf890e426e31d0001040667,64c47140896c8c63e34c6d2f,64c515fa9d106ae481a1cca0,down,-1,0.75,0.05,-7,0,0.0007,49,0,49,0,1,,,,,,,,,,
space,1.1008,504219,001,2023-07-29_14h53.48.458,arm3_eps,2022.2.5,Win32,60.44122091,5bf890e426e31d0001040667,64c47140896c8c63e34c6d2f,64c515fa9d106ae481a1cca0,,,,,,,,,,,,,,,,,,,,,,
space,0.1437,504219,001,2023-07-29_14h53.48.458,arm3_eps,2022.2.5,Win32,60.44122091,5bf890e426e31d0001040667,64c47140896c8c63e34c6d2f,64c515fa9d106ae481a1cca0,,,,,,,,,,,,,,,,,,,,,,
,,504219,001,2023-07-29_14h53.48.458,arm3_eps,2022.2.5,Win32,60.44122091,5bf890e426e31d0001040667,64c47140896c8c63e34c6d2f,64c515fa9d106ae481a1cca0,up,1,0.75,0.5,-1,0,0.3596,0,0,0,0,1,,,,,,,,,,
,,504219,001,2023-07-29_14h53.48.458,arm3_eps,2022.2.5,Win32,60.44122091,5bf890e426e31d0001040667,64c47140896c8c63e34c6d2f,64c515fa9d106ae481a1cca0,down,1,0.75,0.5,-1,0,0.0017,1,0,1,0,1,,,,,,,,,,
,,504219,001,2023-07-29_14h53.48.458,arm3_eps,2022.2.5,Win32,60.44122091,5bf890e426e31d0001040667,64c47140896c8c63e34c6d2f,64c515fa9d106ae481a1cca0,up,1,0.75,0.5,0,0,0.3399,2,0,2,0,1,,,,,,,,,,
,,504219,001,2023-07-29_14h53.48.458,arm3_eps,2022.2.5,Win32,60.44122091,5bf890e426e31d0001040667,64c47140896c8c63e34c6d2f,64c515fa9d106ae481a1cca0,down,-1,0.75,0.5,-1,0,0.0006,3,0,3,0,1,,,,,,,,,,
,,504219,001,2023-07-29_14h53.48.458,arm3_eps,2022.2.5,Win32,60.44122091,5bf890e426e31d0001040667,64c47140896c8c63e34c6d2f,64c515fa9d106ae481a1cca0,up,-1,0.75,0.5,-2,0,0.1873,4,0,4,0,1,,,,,,,,,,
,,504219,001,2023-07-29_14h53.48.458,arm3_eps,2022.2.5,Win32,60.44122091,5bf890e426e31d0001040667,64c47140896c8c63e34c6d2f,64c515fa9d106ae481a1cca0,down,1,0.75,0.5,-1,0,0.0006,5,0,5,0,1,,,,,,,,,,
,,504219,001,2023-07-29_14h53.48.458,arm3_eps,2022.2.5,Win32,60.44122091,5bf890e426e31d0001040667,64c47140896c8c63e34c6d2f,64c515fa9d106ae481a1cca0,up,1,0.75,0.5,0,0,0.0876,6,0,6,0,1,,,,,,,,,,
,,504219,001,2023-07-29_14h53.48.458,arm3_eps,2022.2.5,Win32,60.44122091,5bf890e426e31d0001040667,64c47140896c8c63e34c6d2f,64c515fa9d106ae481a1cca0,down,-1,0.75,0.5,-1,0,0.0009,7,0,7,0,1,,,,,,,,,,
,,504219,001,2023-07-29_14h53.48.458,arm3_eps,2022.2.5,Win32,60.44122091,5bf890e426e31d0001040667,64c47140896c8c63e34c6d2f,64c515fa9d106ae481a1cca0,down,1,0.75,0.5,0,0,0.1116,8,0,8,0,1,,,,,,,,,,
,,504219,001,2023-07-29_14h53.48.458,arm3_eps,2022.2.5,Win32,60.44122091,5bf890e426e31d0001040667,64c47140896c8c63e34c6d2f,64c515fa9d106ae481a1cca0,up,1,0.75,0.5,1,0,0.134,9,0,9,0,1,,,,,,,,,,
,,504219,001,2023-07-29_14h53.48.458,arm3_eps,2022.2.5,Win32,60.44122091,5bf890e426e31d0001040667,64c47140896c8c63e34c6d2f,64c515fa9d106ae481a1cca0,down,-1,0.75,0.5,0,0,0.0882,10,0,10,0,1,,,,,,,,,,
,,504219,001,2023-07-29_14h53.48.458,arm3_eps,2022.2.5,Win32,60.44122091,5bf890e426e31d0001040667,64c47140896c8c63e34c6d2f,64c515fa9d106ae481a1cca0,up,1,0.75,0.5,-1,0,0.0991,11,0,11,0,1,,,,,,,,,,
,,504219,001,2023-07-29_14h53.48.458,arm3_eps,2022.2.5,Win32,60.44122091,5bf890e426e31d0001040667,64c47140896c8c63e34c6d2f,64c515fa9d106ae481a1cca0,down,-1,0.75,0.5,-2,0,0.1156,12,0,12,0,1,,,,,,,,,,
,,504219,001,2023-07-29_14h53.48.458,arm3_eps,2022.2.5,Win32,60.44122091,5bf890e426e31d0001040667,64c47140896c8c63e34c6d2f,64c515fa9d106ae481a1cca0,up,-1,0.75,0.5,-3,0,0.0986,13,0,13,0,1,,,,,,,,,,
,,504219,001,2023-07-29_14h53.48.458,arm3_eps,2022.2.5,Win32,60.44122091,5bf890e426e31d0001040667,64c47140896c8c63e34c6d2f,64c515fa9d106ae481a1cca0,down,-1,0.75,0.5,-2,0,0.0705,14,0,14,0,1,,,,,,,,,,
,,504219,001,2023-07-29_14h53.48.458,arm3_eps,2022.2.5,Win32,60.44122091,5bf890e426e31d0001040667,64c47140896c8c63e34c6d2f,64c515fa9d106ae481a1cca0,down,-1,0.75,0.5,-2,0,0.1574,15,0,15,0,1,,,,,,,,,,
,,504219,001,2023-07-29_14h53.48.458,arm3_eps,2022.2.5,Win32,60.44122091,5bf890e426e31d0001040667,64c47140896c8c63e34c6d2f,64c515fa9d106ae481a1cca0,down,1,0.75,0.5,-2,0,0.1115,16,0,16,0,1,,,,,,,,,,
,,504219,001,2023-07-29_14h53.48.458,arm3_eps,2022.2.5,Win32,60.44122091,5bf890e426e31d0001040667,64c47140896c8c63e34c6d2f,64c515fa9d106ae481a1cca0,up,-1,0.75,0.5,-2,0,0.0154,17,0,17,0,1,,,,,,,,,,
,,504219,001,2023-07-29_14h53.48.458,arm3_eps,2022.2.5,Win32,60.44122091,5bf890e426e31d0001040667,64c47140896c8c63e34c6d2f,64c515fa9d106ae481a1cca0,down,-1,0.75,0.5,-2,0,0.1124,18,0,18,0,1,,,,,,,,,,
,,504219,001,2023-07-29_14h53.48.458,arm3_eps,2022.2.5,Win32,60.44122091,5bf890e426e31d0001040667,64c47140896c8c63e34c6d2f,64c515fa9d106ae481a1cca0,down,-1,0.75,0.5,-2,0,0.172,19,0,19,0,1,,,,,,,,,,
,,504219,001,2023-07-29_14h53.48.458,arm3_eps,2022.2.5,Win32,60.44122091,5bf890e426e31d0001040667,64c47140896c8c63e34c6d2f,64c515fa9d106ae481a1cca0,up,-1,0.75,0.5,-2,0,0.1404,20,0,20,0,1,,,,,,,,,,
,,504219,001,2023-07-29_14h53.48.458,arm3_eps,2022.2.5,Win32,60.44122091,5bf890e426e31d0001040667,64c47140896c8c63e34c6d2f,64c515fa9d106ae481a1cca0,down,1,0.75,0.5,-1,0,0.0007,21,0,21,0,1,,,,,,,,,,
,,504219,001,2023-07-29_14h53.48.458,arm3_eps,2022.2.5,Win32,60.44122091,5bf890e426e31d0001040667,64c47140896c8c63e34c6d2f,64c515fa9d106ae481a1cca0,down,-1,0.75,0.5,-2,0,0.1365,22,0,22,0,1,,,,,,,,,,
,,504219,001,2023-07-29_14h53.48.458,arm3_eps,2022.2.5,Win32,60.44122091,5bf890e426e31d0001040667,64c47140896c8c63e34c6d2f,64c515fa9d106ae481a1cca0,up,1,0.75,0.5,-2,0,0.0019,23,0,23,0,1,,,,,,,,,,
,,504219,001,2023-07-29_14h53.48.458,arm3_eps,2022.2.5,Win32,60.44122091,5bf890e426e31d0001040667,64c47140896c8c63e34c6d2f,64c515fa9d106ae481a1cca0,down,1,0.75,0.5,-3,0,0.1572,24,0,24,0,1,,,,,,,,,,
,,504219,001,2023-07-29_14h53.48.458,arm3_eps,2022.2.5,Win32,60.44122091,5bf890e426e31d0001040667,64c47140896c8c63e34c6d2f,64c515fa9d106ae481a1cca0,down,1,0.75,0.5,-3,0,0.1593,25,0,25,0,1,,,,,,,,,,
,,504219,001,2023-07-29_14h53.48.458,arm3_eps,2022.2.5,Win32,60.44122091,5bf890e426e31d0001040667,64c47140896c8c63e34c6d2f,64c515fa9d106ae481a1cca0,down,1,0.75,0.5,-4,0,0.1538,26,0,26,0,1,,,,,,,,,,
,,504219,001,2023-07-29_14h53.48.458,arm3_eps,2022.2.5,Win32,60.44122091,5bf890e426e31d0001040667,64c47140896c8c63e34c6d2f,64c515fa9d106ae481a1cca0,up,-1,0.75,0.5,-3,0,0.1429,27,0,27,0,1,,,,,,,,,,
,,504219,001,2023-07-29_14h53.48.458,arm3_eps,2022.2.5,Win32,60.44122091,5bf890e426e31d0001040667,64c47140896c8c63e34c6d2f,64c515fa9d106ae481a1cca0,down,1,0.75,0.5,-3,0,0.0006,28,0,28,0,1,,,,,,,,,,
,,504219,001,2023-07-29_14h53.48.458,arm3_eps,2022.2.5,Win32,60.44122091,5bf890e426e31d0001040667,64c47140896c8c63e34c6d2f,64c515fa9d106ae481a1cca0,down,1,0.75,0.5,-4,0,0.1398,29,0,29,0,1,,,,,,,,,,
,,504219,001,2023-07-29_14h53.48.458,arm3_eps,2022.2.5,Win32,60.44122091,5bf890e426e31d0001040667,64c47140896c8c63e34c6d2f,64c515fa9d106ae481a1cca0,up,1,0.75,0.5,-3,0,0.1595,30,0,30,0,1,,,,,,,,,,
,,504219,001,2023-07-29_14h53.48.458,arm3_eps,2022.2.5,Win32,60.44122091,5bf890e426e31d0001040667,64c47140896c8c63e34c6d2f,64c515fa9d106ae481a1cca0,down,-1,0.75,0.5,-4,0,0.0025,31,0,31,0,1,,,,,,,,,,
,,504219,001,2023-07-29_14h53.48.458,arm3_eps,2022.2.5,Win32,60.44122091,5bf890e426e31d0001040667,64c47140896c8c63e34c6d2f,64c515fa9d106ae481a1cca0,down,-1,0.75,0.5,-3,0,0.1583,32,0,32,0,1,,,,,,,,,,
,,504219,001,2023-07-29_14h53.48.458,arm3_eps,2022.2.5,Win32,60.44122091,5bf890e426e31d0001040667,64c47140896c8c63e34c6d2f,64c515fa9d106ae481a1cca0,up,-1,0.75,0.5,-3,0,0.1572,33,0,33,0,1,,,,,,,,,,
,,504219,001,2023-07-29_14h53.48.458,arm3_eps,2022.2.5,Win32,60.44122091,5bf890e426e31d0001040667,64c47140896c8c63e34c6d2f,64c515fa9d106ae481a1cca0,down,-1,0.75,0.5,-2,0,0.0008,34,0,34,0,1,,,,,,,,,,
,,504219,001,2023-07-29_14h53.48.458,arm3_eps,2022.2.5,Win32,60.44122091,5bf890e426e31d0001040667,64c47140896c8c63e34c6d2f,64c515fa9d106ae481a1cca0,down,-1,0.75,0.5,-1,0,0.1689,35,0,35,0,1,,,,,,,,,,
,,504219,001,2023-07-29_14h53.48.458,arm3_eps,2022.2.5,Win32,60.44122091,5bf890e426e31d0001040667,64c47140896c8c63e34c6d2f,64c515fa9d106ae481a1cca0,up,1,0.75,0.5,-2,0,0.1717,36,0,36,0,1,,,,,,,,,,
,,504219,001,2023-07-29_14h53.48.458,arm3_eps,2022.2.5,Win32,60.44122091,5bf890e426e31d0001040667,64c47140896c8c63e34c6d2f,64c515fa9d106ae481a1cca0,down,-1,0.75,0.5,-2,0,0.0007,37,0,37,0,1,,,,,,,,,,
,,504219,001,2023-07-29_14h53.48.458,arm3_eps,2022.2.5,Win32,60.44122091,5bf890e426e31d0001040667,64c47140896c8c63e34c6d2f,64c515fa9d106ae481a1cca0,down,-1,0.75,0.5,-1,0,0.1688,38,0,38,0,1,,,,,,,,,,
,,504219,001,2023-07-29_14h53.48.458,arm3_eps,2022.2.5,Win32,60.44122091,5bf890e426e31d0001040667,64c47140896c8c63e34c6d2f,64c515fa9d106ae481a1cca0,up,1,0.75,0.5,-2,0,0.2149,39,0,39,0,1,,,,,,,,,,
,,504219,001,2023-07-29_14h53.48.458,arm3_eps,2022.2.5,Win32,60.44122091,5bf890e426e31d0001040667,64c47140896c8c63e34c6d2f,64c515fa9d106ae481a1cca0,down,-1,0.75,0.5,-3,0,0.0007,40,0,40,0,1,,,,,,,,,,
,,504219,001,2023-07-29_14h53.48.458,arm3_eps,2022.2.5,Win32,60.44122091,5bf890e426e31d0001040667,64c47140896c8c63e34c6d2f,64c515fa9d106ae481a1cca0,up,1,0.75,0.5,-4,0,0.1345,41,0,41,0,1,,,,,,,,,,
,,504219,001,2023-07-29_14h53.48.458,arm3_eps,2022.2.5,Win32,60.44122091,5bf890e426e31d0001040667,64c47140896c8c63e34c6d2f,64c515fa9d106ae481a1cca0,down,-1,0.75,0.5,-5,0,0.0007,42,0,42,0,1,,,,,,,,,,
,,504219,001,2023-07-29_14h53.48.458,arm3_eps,2022.2.5,Win32,60.44122091,5bf890e426e31d0001040667,64c47140896c8c63e34c6d2f,64c515fa9d106ae481a1cca0,down,1,0.75,0.5,-4,0,0.1539,43,0,43,0,1,,,,,,,,,,
,,504219,001,2023-07-29_14h53.48.458,arm3_eps,2022.2.5,Win32,60.44122091,5bf890e426e31d0001040667,64c47140896c8c63e34c6d2f,64c515fa9d106ae481a1cca0,down,-1,0.75,0.5,-4,0,0.1732,44,0,44,0,1,,,,,,,,,,
,,504219,001,2023-07-29_14h53.48.458,arm3_eps,2022.2.5,Win32,60.44122091,5bf890e426e31d0001040667,64c47140896c8c63e34c6d2f,64c515fa9d106ae481a1cca0,up,1,0.75,0.5,-4,0,0.1575,45,0,45,0,1,,,,,,,,,,
,,504219,001,2023-07-29_14h53.48.458,arm3_eps,2022.2.5,Win32,60.44122091,5bf890e426e31d0001040667,64c47140896c8c63e34c6d2f,64c515fa9d106ae481a1cca0,down,-1,0.75,0.5,-4,0,0.0008,46,0,46,0,1,,,,,,,,,,
,,504219,001,2023-07-29_14h53.48.458,arm3_eps,2022.2.5,Win32,60.44122091,5bf890e426e31d0001040667,64c47140896c8c63e34c6d2f,64c515fa9d106ae481a1cca0,down,1,0.75,0.5,-4,0,0.1861,47,0,47,0,1,,,,,,,,,,
,,504219,001,2023-07-29_14h53.48.458,arm3_eps,2022.2.5,Win32,60.44122091,5bf890e426e31d0001040667,64c47140896c8c63e34c6d2f,64c515fa9d106ae481a1cca0,down,-1,0.75,0.5,-5,0,0.2064,48,0,48,0,1,,,,,,,,,,
,,504219,001,2023-07-29_14h53.48.458,arm3_eps,2022.2.5,Win32,60.44122091,5bf890e426e31d0001040667,64c47140896c8c63e34c6d2f,64c515fa9d106ae481a1cca0,down,-1,0.75,0.5,-5,0,6.0962,49,0,49,0,1,,,,,,,,,,
space,0.7566,504219,001,2023-07-29_14h53.48.458,arm3_eps,2022.2.5,Win32,60.44122091,5bf890e426e31d0001040667,64c47140896c8c63e34c6d2f,64c515fa9d106ae481a1cca0,,,,,,,,,,,,,,,,,,,,,,
space,0.9518,504219,001,2023-07-29_14h53.48.458,arm3_eps,2022.2.5,Win32,60.44122091,5bf890e426e31d0001040667,64c47140896c8c63e34c6d2f,64c515fa9d106ae481a1cca0,down,-1,0.75,0.4357,1,0,2.6385,,,,,,0,0,0,0,1,,,,,
,,504219,001,2023-07-29_14h53.48.458,arm3_eps,2022.2.5,Win32,60.44122091,5bf890e426e31d0001040667,64c47140896c8c63e34c6d2f,64c515fa9d106ae481a1cca0,down,-1,0.75,0.4357,2,0,1.1997,,,,,,1,0,1,0,1,,,,,
,,504219,001,2023-07-29_14h53.48.458,arm3_eps,2022.2.5,Win32,60.44122091,5bf890e426e31d0001040667,64c47140896c8c63e34c6d2f,64c515fa9d106ae481a1cca0,down,-1,0.75,0.4357,2,0,1.2335,,,,,,2,0,2,0,1,,,,,
,,504219,001,2023-07-29_14h53.48.458,arm3_eps,2022.2.5,Win32,60.44122091,5bf890e426e31d0001040667,64c47140896c8c63e34c6d2f,64c515fa9d106ae481a1cca0,down,1,0.75,0.4357,2,0,1.1836,,,,,,3,0,3,0,1,,,,,
,,504219,001,2023-07-29_14h53.48.458,arm3_eps,2022.2.5,Win32,60.44122091,5bf890e426e31d0001040667,64c47140896c8c63e34c6d2f,64c515fa9d106ae481a1cca0,up,-1,0.75,0.4357,3,0,1.756,,,,,,4,0,4,0,1,,,,,
,,504219,001,2023-07-29_14h53.48.458,arm3_eps,2022.2.5,Win32,60.44122091,5bf890e426e31d0001040667,64c47140896c8c63e34c6d2f,64c515fa9d106ae481a1cca0,down,1,0.75,0.4357,3,0,1.2493,,,,,,5,0,5,0,1,,,,,
,,504219,001,2023-07-29_14h53.48.458,arm3_eps,2022.2.5,Win32,60.44122091,5bf890e426e31d0001040667,64c47140896c8c63e34c6d2f,64c515fa9d106ae481a1cca0,up,-1,0.75,0.4357,3,0,0.9506,,,,,,6,0,6,0,1,,,,,
,,504219,001,2023-07-29_14h53.48.458,arm3_eps,2022.2.5,Win32,60.44122091,5bf890e426e31d0001040667,64c47140896c8c63e34c6d2f,64c515fa9d106ae481a1cca0,down,-1,0.75,0.4357,4,0,1.1547,,,,,,7,0,7,0,1,,,,,
,,504219,001,2023-07-29_14h53.48.458,arm3_eps,2022.2.5,Win32,60.44122091,5bf890e426e31d0001040667,64c47140896c8c63e34c6d2f,64c515fa9d106ae481a1cca0,down,1,0.75,0.4357,4,0,1.1096,,,,,,8,0,8,0,1,,,,,
,,504219,001,2023-07-29_14h53.48.458,arm3_eps,2022.2.5,Win32,60.44122091,5bf890e426e31d0001040667,64c47140896c8c63e34c6d2f,64c515fa9d106ae481a1cca0,right,1,0.75,0.4357,4,-0.001441721,1.2245,,,,,,9,0,9,0,1,,,,,
,,504219,001,2023-07-29_14h53.48.458,arm3_eps,2022.2.5,Win32,60.44122091,5bf890e426e31d0001040667,64c47140896c8c63e34c6d2f,64c515fa9d106ae481a1cca0,up,1,0.75,0.4357,4,0,0.5191,,,,,,10,0,10,0,1,,,,,
,,504219,001,2023-07-29_14h53.48.458,arm3_eps,2022.2.5,Win32,60.44122091,5bf890e426e31d0001040667,64c47140896c8c63e34c6d2f,64c515fa9d106ae481a1cca0,right,1,0.75,0.4357,4,0.014836028,0.7105,,,,,,11,0,11,0,1,,,,,
,,504219,001,2023-07-29_14h53.48.458,arm3_eps,2022.2.5,Win32,60.44122091,5bf890e426e31d0001040667,64c47140896c8c63e34c6d2f,64c515fa9d106ae481a1cca0,down,1,0.75,0.4357,3,0,0.467,,,,,,12,0,12,0,1,,,,,
,,504219,001,2023-07-29_14h53.48.458,arm3_eps,2022.2.5,Win32,60.44122091,5bf890e426e31d0001040667,64c47140896c8c63e34c6d2f,64c515fa9d106ae481a1cca0,right,1,0.75,0.4357,3,0.011250035,0.7169,,,,,,13,0,13,0,1,,,,,
,,504219,001,2023-07-29_14h53.48.458,arm3_eps,2022.2.5,Win32,60.44122091,5bf890e426e31d0001040667,64c47140896c8c63e34c6d2f,64c515fa9d106ae481a1cca0,up,1,0.75,0.4357,4,0,0.5732,,,,,,14,0,14,0,1,,,,,
,,504219,001,2023-07-29_14h53.48.458,arm3_eps,2022.2.5,Win32,60.44122091,5bf890e426e31d0001040667,64c47140896c8c63e34c6d2f,64c515fa9d106ae481a1cca0,right,1,0.75,0.4357,4,-0.017695723,0.9361,,,,,,15,0,15,0,1,,,,,
,,504219,001,2023-07-29_14h53.48.458,arm3_eps,2022.2.5,Win32,60.44122091,5bf890e426e31d0001040667,64c47140896c8c63e34c6d2f,64c515fa9d106ae481a1cca0,right,1,0.75,0.4357,4,-0.000971038,1.1214,,,,,,16,0,16,0,1,,,,,
,,504219,001,2023-07-29_14h53.48.458,arm3_eps,2022.2.5,Win32,60.44122091,5bf890e426e31d0001040667,64c47140896c8c63e34c6d2f,64c515fa9d106ae481a1cca0,right,1,0.75,0.4357,4,0.000652296,0.5167,,,,,,17,0,17,0,1,,,,,
,,504219,001,2023-07-29_14h53.48.458,arm3_eps,2022.2.5,Win32,60.44122091,5bf890e426e31d0001040667,64c47140896c8c63e34c6d2f,64c515fa9d106ae481a1cca0,up,1,0.75,0.4357,5,0,0.5672,,,,,,18,0,18,0,1,,,,,
,,504219,001,2023-07-29_14h53.48.458,arm3_eps,2022.2.5,Win32,60.44122091,5bf890e426e31d0001040667,64c47140896c8c63e34c6d2f,64c515fa9d106ae481a1cca0,right,1,0.75,0.4357,5,0.037026561,0.7521,,,,,,19,0,19,0,1,,,,,
,,504219,001,2023-07-29_14h53.48.458,arm3_eps,2022.2.5,Win32,60.44122091,5bf890e426e31d0001040667,64c47140896c8c63e34c6d2f,64c515fa9d106ae481a1cca0,up,1,0.75,0.4357,6,0,0.4351,,,,,,20,0,20,0,1,,,,,
,,504219,001,2023-07-29_14h53.48.458,arm3_eps,2022.2.5,Win32,60.44122091,5bf890e426e31d0001040667,64c47140896c8c63e34c6d2f,64c515fa9d106ae481a1cca0,right,1,0.75,0.4357,6,0.005977786,1.4488,,,,,,21,0,21,0,1,,,,,
,,504219,001,2023-07-29_14h53.48.458,arm3_eps,2022.2.5,Win32,60.44122091,5bf890e426e31d0001040667,64c47140896c8c63e34c6d2f,64c515fa9d106ae481a1cca0,right,1,0.75,0.4357,6,0.022962744,0.281,,,,,,22,0,22,0,1,,,,,
,,504219,001,2023-07-29_14h53.48.458,arm3_eps,2022.2.5,Win32,60.44122091,5bf890e426e31d0001040667,64c47140896c8c63e34c6d2f,64c515fa9d106ae481a1cca0,up,-1,0.75,0.4357,7,0,0.4705,,,,,,23,0,23,0,1,,,,,
,,504219,001,2023-07-29_14h53.48.458,arm3_eps,2022.2.5,Win32,60.44122091,5bf890e426e31d0001040667,64c47140896c8c63e34c6d2f,64c515fa9d106ae481a1cca0,right,-1,0.75,0.4357,7,-0.011335494,0.6993,,,,,,24,0,24,0,1,,,,,
,,504219,001,2023-07-29_14h53.48.458,arm3_eps,2022.2.5,Win32,60.44122091,5bf890e426e31d0001040667,64c47140896c8c63e34c6d2f,64c515fa9d106ae481a1cca0,right,-1,0.75,0.4357,7,0.023527598,0.231,,,,,,25,0,25,0,1,,,,,
,,504219,001,2023-07-29_14h53.48.458,arm3_eps,2022.2.5,Win32,60.44122091,5bf890e426e31d0001040667,64c47140896c8c63e34c6d2f,64c515fa9d106ae481a1cca0,up,-1,0.75,0.4357,6,0,0.6866,,,,,,26,0,26,0,1,,,,,
,,504219,001,2023-07-29_14h53.48.458,arm3_eps,2022.2.5,Win32,60.44122091,5bf890e426e31d0001040667,64c47140896c8c63e34c6d2f,64c515fa9d106ae481a1cca0,right,-1,0.75,0.4357,6,0.011262951,0.7315,,,,,,27,0,27,0,1,,,,,
,,504219,001,2023-07-29_14h53.48.458,arm3_eps,2022.2.5,Win32,60.44122091,5bf890e426e31d0001040667,64c47140896c8c63e34c6d2f,64c515fa9d106ae481a1cca0,right,-1,0.75,0.4357,6,-0.005665082,0.1556,,,,,,28,0,28,0,1,,,,,
,,504219,001,2023-07-29_14h53.48.458,arm3_eps,2022.2.5,Win32,60.44122091,5bf890e426e31d0001040667,64c47140896c8c63e34c6d2f,64c515fa9d106ae481a1cca0,down,-1,0.75,0.4357,7,0,0.3573,,,,,,29,0,29,0,1,,,,,
,,504219,001,2023-07-29_14h53.48.458,arm3_eps,2022.2.5,Win32,60.44122091,5bf890e426e31d0001040667,64c47140896c8c63e34c6d2f,64c515fa9d106ae481a1cca0,right,-1,0.75,0.4357,7,-0.042196373,0.7464,,,,,,30,0,30,0,1,,,,,
,,504219,001,2023-07-29_14h53.48.458,arm3_eps,2022.2.5,Win32,60.44122091,5bf890e426e31d0001040667,64c47140896c8c63e34c6d2f,64c515fa9d106ae481a1cca0,right,-1,0.75,0.4357,7,-0.020011365,0.1925,,,,,,31,0,31,0,1,,,,,
,,504219,001,2023-07-29_14h53.48.458,arm3_eps,2022.2.5,Win32,60.44122091,5bf890e426e31d0001040667,64c47140896c8c63e34c6d2f,64c515fa9d106ae481a1cca0,down,-1,0.75,0.4357,7,0,0.5383,,,,,,32,0,32,0,1,,,,,
,,504219,001,2023-07-29_14h53.48.458,arm3_eps,2022.2.5,Win32,60.44122091,5bf890e426e31d0001040667,64c47140896c8c63e34c6d2f,64c515fa9d106ae481a1cca0,right,-1,0.75,0.4357,7,-0.009868292,0.6856,,,,,,33,0,33,0,1,,,,,
,,504219,001,2023-07-29_14h53.48.458,arm3_eps,2022.2.5,Win32,60.44122091,5bf890e426e31d0001040667,64c47140896c8c63e34c6d2f,64c515fa9d106ae481a1cca0,right,-1,0.75,0.4357,7,-0.011791157,0.1577,,,,,,34,0,34,0,1,,,,,
,,504219,001,2023-07-29_14h53.48.458,arm3_eps,2022.2.5,Win32,60.44122091,5bf890e426e31d0001040667,64c47140896c8c63e34c6d2f,64c515fa9d106ae481a1cca0,right,-1,0.75,0.4357,7,-0.032379807,0.1641,,,,,,35,0,35,0,1,,,,,
,,504219,001,2023-07-29_14h53.48.458,arm3_eps,2022.2.5,Win32,60.44122091,5bf890e426e31d0001040667,64c47140896c8c63e34c6d2f,64c515fa9d106ae481a1cca0,down,-1,0.75,0.4357,7,0,0.3205,,,,,,36,0,36,0,1,,,,,
,,504219,001,2023-07-29_14h53.48.458,arm3_eps,2022.2.5,Win32,60.44122091,5bf890e426e31d0001040667,64c47140896c8c63e34c6d2f,64c515fa9d106ae481a1cca0,right,-1,0.75,0.4357,7,0.028246818,0.6192,,,,,,37,0,37,0,1,,,,,
,,504219,001,2023-07-29_14h53.48.458,arm3_eps,2022.2.5,Win32,60.44122091,5bf890e426e31d0001040667,64c47140896c8c63e34c6d2f,64c515fa9d106ae481a1cca0,right,-1,0.75,0.4357,7,0.06030959,0.1703,,,,,,38,0,38,0,1,,,,,
,,504219,001,2023-07-29_14h53.48.458,arm3_eps,2022.2.5,Win32,60.44122091,5bf890e426e31d0001040667,64c47140896c8c63e34c6d2f,64c515fa9d106ae481a1cca0,up,1,0.75,0.4357,7,0,0.2759,,,,,,39,0,39,0,1,,,,,
,,504219,001,2023-07-29_14h53.48.458,arm3_eps,2022.2.5,Win32,60.44122091,5bf890e426e31d0001040667,64c47140896c8c63e34c6d2f,64c515fa9d106ae481a1cca0,right,1,0.75,0.4357,7,0.001592655,0.9122,,,,,,40,0,40,0,1,,,,,
,,504219,001,2023-07-29_14h53.48.458,arm3_eps,2022.2.5,Win32,60.44122091,5bf890e426e31d0001040667,64c47140896c8c63e34c6d2f,64c515fa9d106ae481a1cca0,right,1,0.75,0.4357,7,0.020972272,0.1512,,,,,,41,0,41,0,1,,,,,
,,504219,001,2023-07-29_14h53.48.458,arm3_eps,2022.2.5,Win32,60.44122091,5bf890e426e31d0001040667,64c47140896c8c63e34c6d2f,64c515fa9d106ae481a1cca0,up,1,0.75,0.4357,8,0,0.2541,,,,,,42,0,42,0,1,,,,,
,,504219,001,2023-07-29_14h53.48.458,arm3_eps,2022.2.5,Win32,60.44122091,5bf890e426e31d0001040667,64c47140896c8c63e34c6d2f,64c515fa9d106ae481a1cca0,right,1,0.75,0.4357,8,-0.019239626,0.6338,,,,,,43,0,43,0,1,,,,,
,,504219,001,2023-07-29_14h53.48.458,arm3_eps,2022.2.5,Win32,60.44122091,5bf890e426e31d0001040667,64c47140896c8c63e34c6d2f,64c515fa9d106ae481a1cca0,right,1,0.75,0.4357,8,-0.030886958,0.1647,,,,,,44,0,44,0,1,,,,,
,,504219,001,2023-07-29_14h53.48.458,arm3_eps,2022.2.5,Win32,60.44122091,5bf890e426e31d0001040667,64c47140896c8c63e34c6d2f,64c515fa9d106ae481a1cca0,down,-1,0.75,0.4357,7,0,0.2727,,,,,,45,0,45,0,1,,,,,
,,504219,001,2023-07-29_14h53.48.458,arm3_eps,2022.2.5,Win32,60.44122091,5bf890e426e31d0001040667,64c47140896c8c63e34c6d2f,64c515fa9d106ae481a1cca0,right,-1,0.75,0.4357,7,0.001899142,0.6605,,,,,,46,0,46,0,1,,,,,
,,504219,001,2023-07-29_14h53.48.458,arm3_eps,2022.2.5,Win32,60.44122091,5bf890e426e31d0001040667,64c47140896c8c63e34c6d2f,64c515fa9d106ae481a1cca0,right,-1,0.75,0.4357,7,-0.007892805,0.1486,,,,,,47,0,47,0,1,,,,,
,,504219,001,2023-07-29_14h53.48.458,arm3_eps,2022.2.5,Win32,60.44122091,5bf890e426e31d0001040667,64c47140896c8c63e34c6d2f,64c515fa9d106ae481a1cca0,right,-1,0.75,0.4357,7,-0.014347827,0.1707,,,,,,48,0,48,0,1,,,,,
,,504219,001,2023-07-29_14h53.48.458,arm3_eps,2022.2.5,Win32,60.44122091,5bf890e426e31d0001040667,64c47140896c8c63e34c6d2f,64c515fa9d106ae481a1cca0,up,1,0.75,0.4357,6,0,0.2088,,,,,,49,0,49,0,1,,,,,
,,504219,001,2023-07-29_14h53.48.458,arm3_eps,2022.2.5,Win32,60.44122091,5bf890e426e31d0001040667,64c47140896c8c63e34c6d2f,64c515fa9d106ae481a1cca0,right,1,0.75,0.4357,6,-0.01234958,0.6363,,,,,,50,0,50,0,1,,,,,
,,504219,001,2023-07-29_14h53.48.458,arm3_eps,2022.2.5,Win32,60.44122091,5bf890e426e31d0001040667,64c47140896c8c63e34c6d2f,64c515fa9d106ae481a1cca0,right,1,0.75,0.4357,6,-0.012768322,0.1641,,,,,,51,0,51,0,1,,,,,
,,504219,001,2023-07-29_14h53.48.458,arm3_eps,2022.2.5,Win32,60.44122091,5bf890e426e31d0001040667,64c47140896c8c63e34c6d2f,64c515fa9d106ae481a1cca0,right,1,0.75,0.4357,6,0.007523931,0.2001,,,,,,52,0,52,0,1,,,,,
,,504219,001,2023-07-29_14h53.48.458,arm3_eps,2022.2.5,Win32,60.44122091,5bf890e426e31d0001040667,64c47140896c8c63e34c6d2f,64c515fa9d106ae481a1cca0,right,1,0.75,0.4357,6,-0.006834299,0.4992,,,,,,53,0,53,0,1,,,,,
,,504219,001,2023-07-29_14h53.48.458,arm3_eps,2022.2.5,Win32,60.44122091,5bf890e426e31d0001040667,64c47140896c8c63e34c6d2f,64c515fa9d106ae481a1cca0,right,1,0.75,0.4357,6,0.002681451,0.4487,,,,,,54,0,54,0,1,,,,,
,,504219,001,2023-07-29_14h53.48.458,arm3_eps,2022.2.5,Win32,60.44122091,5bf890e426e31d0001040667,64c47140896c8c63e34c6d2f,64c515fa9d106ae481a1cca0,right,1,0.75,0.4357,6,-0.01024225,0.3697,,,,,,55,0,55,0,1,,,,,
,,504219,001,2023-07-29_14h53.48.458,arm3_eps,2022.2.5,Win32,60.44122091,5bf890e426e31d0001040667,64c47140896c8c63e34c6d2f,64c515fa9d106ae481a1cca0,down,1,0.75,0.4357,5,0,0.4272,,,,,,56,0,56,0,1,,,,,
,,504219,001,2023-07-29_14h53.48.458,arm3_eps,2022.2.5,Win32,60.44122091,5bf890e426e31d0001040667,64c47140896c8c63e34c6d2f,64c515fa9d106ae481a1cca0,right,1,0.75,0.4357,5,0.024980859,0.641,,,,,,57,0,57,0,1,,,,,
,,504219,001,2023-07-29_14h53.48.458,arm3_eps,2022.2.5,Win32,60.44122091,5bf890e426e31d0001040667,64c47140896c8c63e34c6d2f,64c515fa9d106ae481a1cca0,right,1,0.75,0.4357,5,0.020475588,0.1808,,,,,,58,0,58,0,1,,,,,
,,504219,001,2023-07-29_14h53.48.458,arm3_eps,2022.2.5,Win32,60.44122091,5bf890e426e31d0001040667,64c47140896c8c63e34c6d2f,64c515fa9d106ae481a1cca0,right,1,0.75,0.4357,5,0.024952623,0.1429,,,,,,59,0,59,0,1,,,,,
,,504219,001,2023-07-29_14h53.48.458,arm3_eps,2022.2.5,Win32,60.44122091,5bf890e426e31d0001040667,64c47140896c8c63e34c6d2f,64c515fa9d106ae481a1cca0,right,1,0.75,0.4357,5,0.026294731,0.1773,,,,,,60,0,60,0,1,,,,,
,,504219,001,2023-07-29_14h53.48.458,arm3_eps,2022.2.5,Win32,60.44122091,5bf890e426e31d0001040667,64c47140896c8c63e34c6d2f,64c515fa9d106ae481a1cca0,right,1,0.75,0.4357,5,0.064666283,0.3817,,,,,,61,0,61,0,1,,,,,
,,504219,001,2023-07-29_14h53.48.458,arm3_eps,2022.2.5,Win32,60.44122091,5bf890e426e31d0001040667,64c47140896c8c63e34c6d2f,64c515fa9d106ae481a1cca0,right,1,0.75,0.4357,5,0.048057316,0.4633,,,,,,62,0,62,0,1,,,,,
,,504219,001,2023-07-29_14h53.48.458,arm3_eps,2022.2.5,Win32,60.44122091,5bf890e426e31d0001040667,64c47140896c8c63e34c6d2f,64c515fa9d106ae481a1cca0,up,-1,0.75,0.4357,5,0,0.3878,,,,,,63,0,63,0,1,,,,,
,,504219,001,2023-07-29_14h53.48.458,arm3_eps,2022.2.5,Win32,60.44122091,5bf890e426e31d0001040667,64c47140896c8c63e34c6d2f,64c515fa9d106ae481a1cca0,right,-1,0.75,0.4357,5,-0.008876619,0.7909,,,,,,64,0,64,0,1,,,,,
,,504219,001,2023-07-29_14h53.48.458,arm3_eps,2022.2.5,Win32,60.44122091,5bf890e426e31d0001040667,64c47140896c8c63e34c6d2f,64c515fa9d106ae481a1cca0,right,-1,0.75,0.4357,5,0.013111798,0.1765,,,,,,65,0,65,0,1,,,,,
,,504219,001,2023-07-29_14h53.48.458,arm3_eps,2022.2.5,Win32,60.44122091,5bf890e426e31d0001040667,64c47140896c8c63e34c6d2f,64c515fa9d106ae481a1cca0,right,-1,0.75,0.4357,5,-0.014408953,0.1499,,,,,,66,0,66,0,1,,,,,
,,504219,001,2023-07-29_14h53.48.458,arm3_eps,2022.2.5,Win32,60.44122091,5bf890e426e31d0001040667,64c47140896c8c63e34c6d2f,64c515fa9d106ae481a1cca0,right,-1,0.75,0.4357,5,-0.043408086,0.1613,,,,,,67,0,67,0,1,,,,,
,,504219,001,2023-07-29_14h53.48.458,arm3_eps,2022.2.5,Win32,60.44122091,5bf890e426e31d0001040667,64c47140896c8c63e34c6d2f,64c515fa9d106ae481a1cca0,down,1,0.75,0.4357,5,0,0.368,,,,,,68,0,68,0,1,,,,,
,,504219,001,2023-07-29_14h53.48.458,arm3_eps,2022.2.5,Win32,60.44122091,5bf890e426e31d0001040667,64c47140896c8c63e34c6d2f,64c515fa9d106ae481a1cca0,right,1,0.75,0.4357,5,-0.001667856,0.7747,,,,,,69,0,69,0,1,,,,,
,,504219,001,2023-07-29_14h53.48.458,arm3_eps,2022.2.5,Win32,60.44122091,5bf890e426e31d0001040667,64c47140896c8c63e34c6d2f,64c515fa9d106ae481a1cca0,right,1,0.75,0.4357,5,-0.015534797,0.1601,,,,,,70,0,70,0,1,,,,,
,,504219,001,2023-07-29_14h53.48.458,arm3_eps,2022.2.5,Win32,60.44122091,5bf890e426e31d0001040667,64c47140896c8c63e34c6d2f,64c515fa9d106ae481a1cca0,right,1,0.75,0.4357,5,-0.009254211,0.3516,,,,,,71,0,71,0,1,,,,,
,,504219,001,2023-07-29_14h53.48.458,arm3_eps,2022.2.5,Win32,60.44122091,5bf890e426e31d0001040667,64c47140896c8c63e34c6d2f,64c515fa9d106ae481a1cca0,right,1,0.75,0.4357,5,-0.002175879,0.3314,,,,,,72,0,72,0,1,,,,,
,,504219,001,2023-07-29_14h53.48.458,arm3_eps,2022.2.5,Win32,60.44122091,5bf890e426e31d0001040667,64c47140896c8c63e34c6d2f,64c515fa9d106ae481a1cca0,right,1,0.75,0.4357,5,0.014516309,0.3099,,,,,,73,0,73,0,1,,,,,
,,504219,001,2023-07-29_14h53.48.458,arm3_eps,2022.2.5,Win32,60.44122091,5bf890e426e31d0001040667,64c47140896c8c63e34c6d2f,64c515fa9d106ae481a1cca0,up,1,0.75,0.4357,6,0,0.3689,,,,,,74,0,74,0,1,,,,,
,,504219,001,2023-07-29_14h53.48.458,arm3_eps,2022.2.5,Win32,60.44122091,5bf890e426e31d0001040667,64c47140896c8c63e34c6d2f,64c515fa9d106ae481a1cca0,right,1,0.75,0.4357,6,-0.00675714,0.6374,,,,,,75,0,75,0,1,,,,,
,,504219,001,2023-07-29_14h53.48.458,arm3_eps,2022.2.5,Win32,60.44122091,5bf890e426e31d0001040667,64c47140896c8c63e34c6d2f,64c515fa9d106ae481a1cca0,right,1,0.75,0.4357,6,0.014897249,0.1645,,,,,,76,0,76,0,1,,,,,
,,504219,001,2023-07-29_14h53.48.458,arm3_eps,2022.2.5,Win32,60.44122091,5bf890e426e31d0001040667,64c47140896c8c63e34c6d2f,64c515fa9d106ae481a1cca0,right,1,0.75,0.4357,6,0.042347655,0.1552,,,,,,77,0,77,0,1,,,,,
,,504219,001,2023-07-29_14h53.48.458,arm3_eps,2022.2.5,Win32,60.44122091,5bf890e426e31d0001040667,64c47140896c8c63e34c6d2f,64c515fa9d106ae481a1cca0,right,1,0.75,0.4357,6,0.040443502,0.7167,,,,,,78,0,78,0,1,,,,,
,,504219,001,2023-07-29_14h53.48.458,arm3_eps,2022.2.5,Win32,60.44122091,5bf890e426e31d0001040667,64c47140896c8c63e34c6d2f,64c515fa9d106ae481a1cca0,right,1,0.75,0.4357,6,0.026503079,0.4891,,,,,,79,0,79,0,1,,,,,
,,504219,001,2023-07-29_14h53.48.458,arm3_eps,2022.2.5,Win32,60.44122091,5bf890e426e31d0001040667,64c47140896c8c63e34c6d2f,64c515fa9d106ae481a1cca0,up,1,0.75,0.4357,6,0,0.5979,,,,,,80,0,80,0,1,,,,,
,,504219,001,2023-07-29_14h53.48.458,arm3_eps,2022.2.5,Win32,60.44122091,5bf890e426e31d0001040667,64c47140896c8c63e34c6d2f,64c515fa9d106ae481a1cca0,right,1,0.75,0.4357,6,0.003570536,0.5976,,,,,,81,0,81,0,1,,,,,
,,504219,001,2023-07-29_14h53.48.458,arm3_eps,2022.2.5,Win32,60.44122091,5bf890e426e31d0001040667,64c47140896c8c63e34c6d2f,64c515fa9d106ae481a1cca0,right,1,0.75,0.4357,6,0.032418889,0.1479,,,,,,82,0,82,0,1,,,,,
,,504219,001,2023-07-29_14h53.48.458,arm3_eps,2022.2.5,Win32,60.44122091,5bf890e426e31d0001040667,64c47140896c8c63e34c6d2f,64c515fa9d106ae481a1cca0,right,1,0.75,0.4357,6,0.031555682,0.1512,,,,,,83,0,83,0,1,,,,,
,,504219,001,2023-07-29_14h53.48.458,arm3_eps,2022.2.5,Win32,60.44122091,5bf890e426e31d0001040667,64c47140896c8c63e34c6d2f,64c515fa9d106ae481a1cca0,right,1,0.75,0.4357,6,0.043750372,0.1383,,,,,,84,0,84,0,1,,,,,
,,504219,001,2023-07-29_14h53.48.458,arm3_eps,2022.2.5,Win32,60.44122091,5bf890e426e31d0001040667,64c47140896c8c63e34c6d2f,64c515fa9d106ae481a1cca0,right,1,0.75,0.4357,6,0.065216239,0.1886,,,,,,85,0,85,0,1,,,,,
,,504219,001,2023-07-29_14h53.48.458,arm3_eps,2022.2.5,Win32,60.44122091,5bf890e426e31d0001040667,64c47140896c8c63e34c6d2f,64c515fa9d106ae481a1cca0,up,1,0.75,0.4357,7,0,0.2535,,,,,,86,0,86,0,1,,,,,
,,504219,001,2023-07-29_14h53.48.458,arm3_eps,2022.2.5,Win32,60.44122091,5bf890e426e31d0001040667,64c47140896c8c63e34c6d2f,64c515fa9d106ae481a1cca0,right,1,0.75,0.4357,7,0.018853195,0.6581,,,,,,87,0,87,0,1,,,,,
,,504219,001,2023-07-29_14h53.48.458,arm3_eps,2022.2.5,Win32,60.44122091,5bf890e426e31d0001040667,64c47140896c8c63e34c6d2f,64c515fa9d106ae481a1cca0,right,1,0.75,0.4357,7,0.021851635,0.2859,,,,,,88,0,88,0,1,,,,,
,,504219,001,2023-07-29_14h53.48.458,arm3_eps,2022.2.5,Win32,60.44122091,5bf890e426e31d0001040667,64c47140896c8c63e34c6d2f,64c515fa9d106ae481a1cca0,right,1,0.75,0.4357,7,0.024381217,0.3178,,,,,,89,0,89,0,1,,,,,
,,504219,001,2023-07-29_14h53.48.458,arm3_eps,2022.2.5,Win32,60.44122091,5bf890e426e31d0001040667,64c47140896c8c63e34c6d2f,64c515fa9d106ae481a1cca0,up,-1,0.75,0.4357,8,0,0.2302,,,,,,90,0,90,0,1,,,,,
,,504219,001,2023-07-29_14h53.48.458,arm3_eps,2022.2.5,Win32,60.44122091,5bf890e426e31d0001040667,64c47140896c8c63e34c6d2f,64c515fa9d106ae481a1cca0,right,-1,0.75,0.4357,8,0.001965882,0.5887,,,,,,91,0,91,0,1,,,,,
,,504219,001,2023-07-29_14h53.48.458,arm3_eps,2022.2.5,Win32,60.44122091,5bf890e426e31d0001040667,64c47140896c8c63e34c6d2f,64c515fa9d106ae481a1cca0,right,-1,0.75,0.4357,8,0.013176825,0.2257,,,,,,92,0,92,0,1,,,,,
,,504219,001,2023-07-29_14h53.48.458,arm3_eps,2022.2.5,Win32,60.44122091,5bf890e426e31d0001040667,64c47140896c8c63e34c6d2f,64c515fa9d106ae481a1cca0,right,-1,0.75,0.4357,8,-0.026633532,0.1969,,,,,,93,0,93,0,1,,,,,
,,504219,001,2023-07-29_14h53.48.458,arm3_eps,2022.2.5,Win32,60.44122091,5bf890e426e31d0001040667,64c47140896c8c63e34c6d2f,64c515fa9d106ae481a1cca0,right,-1,0.75,0.4357,8,-0.035046711,0.3634,,,,,,94,0,94,0,1,,,,,
,,504219,001,2023-07-29_14h53.48.458,arm3_eps,2022.2.5,Win32,60.44122091,5bf890e426e31d0001040667,64c47140896c8c63e34c6d2f,64c515fa9d106ae481a1cca0,down,-1,0.75,0.4357,9,0,0.2721,,,,,,95,0,95,0,1,,,,,
,,504219,001,2023-07-29_14h53.48.458,arm3_eps,2022.2.5,Win32,60.44122091,5bf890e426e31d0001040667,64c47140896c8c63e34c6d2f,64c515fa9d106ae481a1cca0,right,-1,0.75,0.4357,9,0.010672781,1.0339,,,,,,96,0,96,0,1,,,,,
,,504219,001,2023-07-29_14h53.48.458,arm3_eps,2022.2.5,Win32,60.44122091,5bf890e426e31d0001040667,64c47140896c8c63e34c6d2f,64c515fa9d106ae481a1cca0,right,-1,0.75,0.4357,9,0.013889997,0.349,,,,,,97,0,97,0,1,,,,,
,,504219,001,2023-07-29_14h53.48.458,arm3_eps,2022.2.5,Win32,60.44122091,5bf890e426e31d0001040667,64c47140896c8c63e34c6d2f,64c515fa9d106ae481a1cca0,right,-1,0.75,0.4357,9,0.022674254,0.3343,,,,,,98,0,98,0,1,,,,,
,,504219,001,2023-07-29_14h53.48.458,arm3_eps,2022.2.5,Win32,60.44122091,5bf890e426e31d0001040667,64c47140896c8c63e34c6d2f,64c515fa9d106ae481a1cca0,up,1,0.75,0.4357,8,0,0.7104,,,,,,99,0,99,0,1,,,,,
,,504219,001,2023-07-29_14h53.48.458,arm3_eps,2022.2.5,Win32,60.44122091,5bf890e426e31d0001040667,64c47140896c8c63e34c6d2f,64c515fa9d106ae481a1cca0,right,1,0.75,0.4357,8,0.004891589,0.5745,,,,,,100,0,100,0,1,,,,,
,,504219,001,2023-07-29_14h53.48.458,arm3_eps,2022.2.5,Win32,60.44122091,5bf890e426e31d0001040667,64c47140896c8c63e34c6d2f,64c515fa9d106ae481a1cca0,right,1,0.75,0.4357,8,0.002698124,0.2156,,,,,,101,0,101,0,1,,,,,
,,504219,001,2023-07-29_14h53.48.458,arm3_eps,2022.2.5,Win32,60.44122091,5bf890e426e31d0001040667,64c47140896c8c63e34c6d2f,64c515fa9d106ae481a1cca0,right,1,0.75,0.4357,8,0.030114106,0.1808,,,,,,102,0,102,0,1,,,,,
,,504219,001,2023-07-29_14h53.48.458,arm3_eps,2022.2.5,Win32,60.44122091,5bf890e426e31d0001040667,64c47140896c8c63e34c6d2f,64c515fa9d106ae481a1cca0,right,1,0.75,0.4357,8,0.066636979,0.2894,,,,,,103,0,103,0,1,,,,,
,,504219,001,2023-07-29_14h53.48.458,arm3_eps,2022.2.5,Win32,60.44122091,5bf890e426e31d0001040667,64c47140896c8c63e34c6d2f,64c515fa9d106ae481a1cca0,up,-1,0.75,0.4357,8,0,0.2148,,,,,,104,0,104,0,1,,,,,
,,504219,001,2023-07-29_14h53.48.458,arm3_eps,2022.2.5,Win32,60.44122091,5bf890e426e31d0001040667,64c47140896c8c63e34c6d2f,64c515fa9d106ae481a1cca0,right,-1,0.75,0.4357,8,-0.0092672,0.745,,,,,,105,0,105,0,1,,,,,
,,504219,001,2023-07-29_14h53.48.458,arm3_eps,2022.2.5,Win32,60.44122091,5bf890e426e31d0001040667,64c47140896c8c63e34c6d2f,64c515fa9d106ae481a1cca0,right,-1,0.75,0.4357,8,0.001540376,0.1646,,,,,,106,0,106,0,1,,,,,
,,504219,001,2023-07-29_14h53.48.458,arm3_eps,2022.2.5,Win32,60.44122091,5bf890e426e31d0001040667,64c47140896c8c63e34c6d2f,64c515fa9d106ae481a1cca0,right,-1,0.75,0.4357,8,0.007352741,0.1731,,,,,,107,0,107,0,1,,,,,
,,504219,001,2023-07-29_14h53.48.458,arm3_eps,2022.2.5,Win32,60.44122091,5bf890e426e31d0001040667,64c47140896c8c63e34c6d2f,64c515fa9d106ae481a1cca0,right,-1,0.75,0.4357,8,0.015250774,0.2012,,,,,,108,0,108,0,1,,,,,
,,504219,001,2023-07-29_14h53.48.458,arm3_eps,2022.2.5,Win32,60.44122091,5bf890e426e31d0001040667,64c47140896c8c63e34c6d2f,64c515fa9d106ae481a1cca0,up,1,0.75,0.4357,7,0,0.256,,,,,,109,0,109,0,1,,,,,
,,504219,001,2023-07-29_14h53.48.458,arm3_eps,2022.2.5,Win32,60.44122091,5bf890e426e31d0001040667,64c47140896c8c63e34c6d2f,64c515fa9d106ae481a1cca0,right,1,0.75,0.4357,7,-0.009994333,0.5641,,,,,,110,0,110,0,1,,,,,
,,504219,001,2023-07-29_14h53.48.458,arm3_eps,2022.2.5,Win32,60.44122091,5bf890e426e31d0001040667,64c47140896c8c63e34c6d2f,64c515fa9d106ae481a1cca0,right,1,0.75,0.4357,7,-0.000632505,0.1549,,,,,,111,0,111,0,1,,,,,
,,504219,001,2023-07-29_14h53.48.458,arm3_eps,2022.2.5,Win32,60.44122091,5bf890e426e31d0001040667,64c47140896c8c63e34c6d2f,64c515fa9d106ae481a1cca0,right,1,0.75,0.4357,7,-0.016963738,0.1721,,,,,,112,0,112,0,1,,,,,
,,504219,001,2023-07-29_14h53.48.458,arm3_eps,2022.2.5,Win32,60.44122091,5bf890e426e31d0001040667,64c47140896c8c63e34c6d2f,64c515fa9d106ae481a1cca0,down,1,0.75,0.4357,6,0,0.4061,,,,,,113,0,113,0,1,,,,,
,,504219,001,2023-07-29_14h53.48.458,arm3_eps,2022.2.5,Win32,60.44122091,5bf890e426e31d0001040667,64c47140896c8c63e34c6d2f,64c515fa9d106ae481a1cca0,right,1,0.75,0.4357,6,0.018708756,0.5153,,,,,,114,0,114,0,1,,,,,
,,504219,001,2023-07-29_14h53.48.458,arm3_eps,2022.2.5,Win32,60.44122091,5bf890e426e31d0001040667,64c47140896c8c63e34c6d2f,64c515fa9d106ae481a1cca0,right,1,0.75,0.4357,6,-0.012244161,0.1552,,,,,,115,0,115,0,1,,,,,
,,504219,001,2023-07-29_14h53.48.458,arm3_eps,2022.2.5,Win32,60.44122091,5bf890e426e31d0001040667,64c47140896c8c63e34c6d2f,64c515fa9d106ae481a1cca0,right,1,0.75,0.4357,6,0.030110473,0.1245,,,,,,116,0,116,0,1,,,,,
,,504219,001,2023-07-29_14h53.48.458,arm3_eps,2022.2.5,Win32,60.44122091,5bf890e426e31d0001040667,64c47140896c8c63e34c6d2f,64c515fa9d106ae481a1cca0,up,1,0.75,0.4357,7,0,0.4734,,,,,,117,0,117,0,1,,,,,
,,504219,001,2023-07-29_14h53.48.458,arm3_eps,2022.2.5,Win32,60.44122091,5bf890e426e31d0001040667,64c47140896c8c63e34c6d2f,64c515fa9d106ae481a1cca0,right,1,0.75,0.4357,7,-0.018397649,1.0258,,,,,,118,0,118,0,1,,,,,
,,504219,001,2023-07-29_14h53.48.458,arm3_eps,2022.2.5,Win32,60.44122091,5bf890e426e31d0001040667,64c47140896c8c63e34c6d2f,64c515fa9d106ae481a1cca0,right,1,0.75,0.4357,7,0.012544033,0.428,,,,,,119,0,119,0,1,,,,,
,,504219,001,2023-07-29_14h53.48.458,arm3_eps,2022.2.5,Win32,60.44122091,5bf890e426e31d0001040667,64c47140896c8c63e34c6d2f,64c515fa9d106ae481a1cca0,up,1,0.75,0.4357,8,0,0.3766,,,,,,120,0,120,0,1,,,,,
,,504219,001,2023-07-29_14h53.48.458,arm3_eps,2022.2.5,Win32,60.44122091,5bf890e426e31d0001040667,64c47140896c8c63e34c6d2f,64c515fa9d106ae481a1cca0,right,1,0.75,0.4357,8,0.02045532,0.6319,,,,,,121,0,121,0,1,,,,,
,,504219,001,2023-07-29_14h53.48.458,arm3_eps,2022.2.5,Win32,60.44122091,5bf890e426e31d0001040667,64c47140896c8c63e34c6d2f,64c515fa9d106ae481a1cca0,up,-1,0.75,0.4357,9,0,0.575,,,,,,122,0,122,0,1,,,,,
,,504219,001,2023-07-29_14h53.48.458,arm3_eps,2022.2.5,Win32,60.44122091,5bf890e426e31d0001040667,64c47140896c8c63e34c6d2f,64c515fa9d106ae481a1cca0,right,-1,0.75,0.4357,9,-0.0349811,0.6523,,,,,,123,0,123,0,1,,,,,
,,504219,001,2023-07-29_14h53.48.458,arm3_eps,2022.2.5,Win32,60.44122091,5bf890e426e31d0001040667,64c47140896c8c63e34c6d2f,64c515fa9d106ae481a1cca0,down,-1,0.75,0.4357,10,0,0.5379,,,,,,124,0,124,0,1,,,,,
,,504219,001,2023-07-29_14h53.48.458,arm3_eps,2022.2.5,Win32,60.44122091,5bf890e426e31d0001040667,64c47140896c8c63e34c6d2f,64c515fa9d106ae481a1cca0,right,-1,0.75,0.4357,10,-0.037049227,0.7611,,,,,,125,0,125,0,1,,,,,
,,504219,001,2023-07-29_14h53.48.458,arm3_eps,2022.2.5,Win32,60.44122091,5bf890e426e31d0001040667,64c47140896c8c63e34c6d2f,64c515fa9d106ae481a1cca0,down,-1,0.75,0.4357,11,0,0.3645,,,,,,126,0,126,0,1,,,,,
,,504219,001,2023-07-29_14h53.48.458,arm3_eps,2022.2.5,Win32,60.44122091,5bf890e426e31d0001040667,64c47140896c8c63e34c6d2f,64c515fa9d106ae481a1cca0,right,-1,0.75,0.4357,11,0.001668381,0.779,,,,,,127,0,127,0,1,,,,,
,,504219,001,2023-07-29_14h53.48.458,arm3_eps,2022.2.5,Win32,60.44122091,5bf890e426e31d0001040667,64c47140896c8c63e34c6d2f,64c515fa9d106ae481a1cca0,right,-1,0.75,0.4357,11,-0.002885887,0.3764,,,,,,128,0,128,0,1,,,,,
,,504219,001,2023-07-29_14h53.48.458,arm3_eps,2022.2.5,Win32,60.44122091,5bf890e426e31d0001040667,64c47140896c8c63e34c6d2f,64c515fa9d106ae481a1cca0,right,-1,0.75,0.4357,11,-0.017267517,0.4311,,,,,,129,0,129,0,1,,,,,
,,504219,001,2023-07-29_14h53.48.458,arm3_eps,2022.2.5,Win32,60.44122091,5bf890e426e31d0001040667,64c47140896c8c63e34c6d2f,64c515fa9d106ae481a1cca0,right,-1,0.75,0.4357,11,-0.029131239,0.456,,,,,,130,0,130,0,1,,,,,
,,504219,001,2023-07-29_14h53.48.458,arm3_eps,2022.2.5,Win32,60.44122091,5bf890e426e31d0001040667,64c47140896c8c63e34c6d2f,64c515fa9d106ae481a1cca0,right,-1,0.75,0.4357,11,-0.040963845,0.3514,,,,,,131,0,131,0,1,,,,,
,,504219,001,2023-07-29_14h53.48.458,arm3_eps,2022.2.5,Win32,60.44122091,5bf890e426e31d0001040667,64c47140896c8c63e34c6d2f,64c515fa9d106ae481a1cca0,down,-1,0.75,0.4357,12,0,0.2982,,,,,,132,0,132,0,1,,,,,
,,504219,001,2023-07-29_14h53.48.458,arm3_eps,2022.2.5,Win32,60.44122091,5bf890e426e31d0001040667,64c47140896c8c63e34c6d2f,64c515fa9d106ae481a1cca0,right,-1,0.75,0.4357,12,-8.38025E-05,0.8295,,,,,,133,0,133,0,1,,,,,
,,504219,001,2023-07-29_14h53.48.458,arm3_eps,2022.2.5,Win32,60.44122091,5bf890e426e31d0001040667,64c47140896c8c63e34c6d2f,64c515fa9d106ae481a1cca0,right,-1,0.75,0.4357,12,-0.000232178,0.3217,,,,,,134,0,134,0,1,,,,,
,,504219,001,2023-07-29_14h53.48.458,arm3_eps,2022.2.5,Win32,60.44122091,5bf890e426e31d0001040667,64c47140896c8c63e34c6d2f,64c515fa9d106ae481a1cca0,right,-1,0.75,0.4357,12,-0.016727141,0.3816,,,,,,135,0,135,0,1,,,,,
,,504219,001,2023-07-29_14h53.48.458,arm3_eps,2022.2.5,Win32,60.44122091,5bf890e426e31d0001040667,64c47140896c8c63e34c6d2f,64c515fa9d106ae481a1cca0,down,1,0.75,0.4357,12,0,0.2815,,,,,,136,0,136,0,1,,,,,
,,504219,001,2023-07-29_14h53.48.458,arm3_eps,2022.2.5,Win32,60.44122091,5bf890e426e31d0001040667,64c47140896c8c63e34c6d2f,64c515fa9d106ae481a1cca0,right,1,0.75,0.4357,12,0.008515615,0.662,,,,,,137,0,137,0,1,,,,,
,,504219,001,2023-07-29_14h53.48.458,arm3_eps,2022.2.5,Win32,60.44122091,5bf890e426e31d0001040667,64c47140896c8c63e34c6d2f,64c515fa9d106ae481a1cca0,right,1,0.75,0.4357,12,0.02215901,0.1663,,,,,,138,0,138,0,1,,,,,
,,504219,001,2023-07-29_14h53.48.458,arm3_eps,2022.2.5,Win32,60.44122091,5bf890e426e31d0001040667,64c47140896c8c63e34c6d2f,64c515fa9d106ae481a1cca0,up,-1,0.75,0.4357,12,0,0.3278,,,,,,139,0,139,0,1,,,,,
,,504219,001,2023-07-29_14h53.48.458,arm3_eps,2022.2.5,Win32,60.44122091,5bf890e426e31d0001040667,64c47140896c8c63e34c6d2f,64c515fa9d106ae481a1cca0,right,-1,0.75,0.4357,12,-0.028218014,0.6476,,,,,,140,0,140,0,1,,,,,
,,504219,001,2023-07-29_14h53.48.458,arm3_eps,2022.2.5,Win32,60.44122091,5bf890e426e31d0001040667,64c47140896c8c63e34c6d2f,64c515fa9d106ae481a1cca0,right,-1,0.75,0.4357,12,-0.030100391,0.4753,,,,,,141,0,141,0,1,,,,,
,,504219,001,2023-07-29_14h53.48.458,arm3_eps,2022.2.5,Win32,60.44122091,5bf890e426e31d0001040667,64c47140896c8c63e34c6d2f,64c515fa9d106ae481a1cca0,down,1,0.75,0.4357,12,0,0.3701,,,,,,142,0,142,0,1,,,,,
,,504219,001,2023-07-29_14h53.48.458,arm3_eps,2022.2.5,Win32,60.44122091,5bf890e426e31d0001040667,64c47140896c8c63e34c6d2f,64c515fa9d106ae481a1cca0,right,1,0.75,0.4357,12,0.030413022,0.5658,,,,,,143,0,143,0,1,,,,,
,,504219,001,2023-07-29_14h53.48.458,arm3_eps,2022.2.5,Win32,60.44122091,5bf890e426e31d0001040667,64c47140896c8c63e34c6d2f,64c515fa9d106ae481a1cca0,right,1,0.75,0.4357,12,0.058945424,0.1925,,,,,,144,0,144,0,1,,,,,
,,504219,001,2023-07-29_14h53.48.458,arm3_eps,2022.2.5,Win32,60.44122091,5bf890e426e31d0001040667,64c47140896c8c63e34c6d2f,64c515fa9d106ae481a1cca0,up,1,0.75,0.4357,13,0,0.2659,,,,,,145,0,145,0,1,,,,,
,,504219,001,2023-07-29_14h53.48.458,arm3_eps,2022.2.5,Win32,60.44122091,5bf890e426e31d0001040667,64c47140896c8c63e34c6d2f,64c515fa9d106ae481a1cca0,down,1,0.75,0.4357,13,0,0.642,,,,,,146,0,146,0,1,,,,,
,,504219,001,2023-07-29_14h53.48.458,arm3_eps,2022.2.5,Win32,60.44122091,5bf890e426e31d0001040667,64c47140896c8c63e34c6d2f,64c515fa9d106ae481a1cca0,right,1,0.75,0.4357,13,-0.002948265,0.5816,,,,,,147,0,147,0,1,,,,,
,,504219,001,2023-07-29_14h53.48.458,arm3_eps,2022.2.5,Win32,60.44122091,5bf890e426e31d0001040667,64c47140896c8c63e34c6d2f,64c515fa9d106ae481a1cca0,right,1,0.75,0.4357,13,0.022238844,0.4007,,,,,,148,0,148,0,1,,,,,
,,504219,001,2023-07-29_14h53.48.458,arm3_eps,2022.2.5,Win32,60.44122091,5bf890e426e31d0001040667,64c47140896c8c63e34c6d2f,64c515fa9d106ae481a1cca0,up,1,0.75,0.4357,13,0,0.3169,,,,,,149,0,149,0,1,,,,,
,,504219,001,2023-07-29_14h53.48.458,arm3_eps,2022.2.5,Win32,60.44122091,5bf890e426e31d0001040667,64c47140896c8c63e34c6d2f,64c515fa9d106ae481a1cca0,right,1,0.75,0.4357,13,0.040437619,0.6247,,,,,,150,0,150,0,1,,,,,
,,504219,001,2023-07-29_14h53.48.458,arm3_eps,2022.2.5,Win32,60.44122091,5bf890e426e31d0001040667,64c47140896c8c63e34c6d2f,64c515fa9d106ae481a1cca0,right,1,0.75,0.4357,13,0.067332681,0.2005,,,,,,151,0,151,0,1,,,,,
,,504219,001,2023-07-29_14h53.48.458,arm3_eps,2022.2.5,Win32,60.44122091,5bf890e426e31d0001040667,64c47140896c8c63e34c6d2f,64c515fa9d106ae481a1cca0,up,-1,0.75,0.4357,13,0,0.2252,,,,,,152,0,152,0,1,,,,,
,,504219,001,2023-07-29_14h53.48.458,arm3_eps,2022.2.5,Win32,60.44122091,5bf890e426e31d0001040667,64c47140896c8c63e34c6d2f,64c515fa9d106ae481a1cca0,right,-1,0.75,0.4357,13,0.009409698,1.0468,,,,,,153,0,153,0,1,,,,,
,,504219,001,2023-07-29_14h53.48.458,arm3_eps,2022.2.5,Win32,60.44122091,5bf890e426e31d0001040667,64c47140896c8c63e34c6d2f,64c515fa9d106ae481a1cca0,right,-1,0.75,0.4357,13,-0.008432259,0.5341,,,,,,154,0,154,0,1,,,,,
,,504219,001,2023-07-29_14h53.48.458,arm3_eps,2022.2.5,Win32,60.44122091,5bf890e426e31d0001040667,64c47140896c8c63e34c6d2f,64c515fa9d106ae481a1cca0,right,-1,0.75,0.4357,13,-0.005113462,0.4648,,,,,,155,0,155,0,1,,,,,
,,504219,001,2023-07-29_14h53.48.458,arm3_eps,2022.2.5,Win32,60.44122091,5bf890e426e31d0001040667,64c47140896c8c63e34c6d2f,64c515fa9d106ae481a1cca0,right,-1,0.75,0.4357,13,-0.007882963,0.4096,,,,,,156,0,156,0,1,,,,,
,,504219,001,2023-07-29_14h53.48.458,arm3_eps,2022.2.5,Win32,60.44122091,5bf890e426e31d0001040667,64c47140896c8c63e34c6d2f,64c515fa9d106ae481a1cca0,down,1,0.75,0.4357,13,0,0.2933,,,,,,157,0,157,0,1,,,,,
,,504219,001,2023-07-29_14h53.48.458,arm3_eps,2022.2.5,Win32,60.44122091,5bf890e426e31d0001040667,64c47140896c8c63e34c6d2f,64c515fa9d106ae481a1cca0,right,1,0.75,0.4357,13,4.52643E-05,0.6236,,,,,,158,0,158,0,1,,,,,
,,504219,001,2023-07-29_14h53.48.458,arm3_eps,2022.2.5,Win32,60.44122091,5bf890e426e31d0001040667,64c47140896c8c63e34c6d2f,64c515fa9d106ae481a1cca0,right,1,0.75,0.4357,13,0.028308046,0.4477,,,,,,159,0,159,0,1,,,,,
,,504219,001,2023-07-29_14h53.48.458,arm3_eps,2022.2.5,Win32,60.44122091,5bf890e426e31d0001040667,64c47140896c8c63e34c6d2f,64c515fa9d106ae481a1cca0,up,-1,0.75,0.4357,14,0,0.3336,,,,,,160,0,160,0,1,,,,,
,,504219,001,2023-07-29_14h53.48.458,arm3_eps,2022.2.5,Win32,60.44122091,5bf890e426e31d0001040667,64c47140896c8c63e34c6d2f,64c515fa9d106ae481a1cca0,right,-1,0.75,0.4357,14,0.007141729,0.89,,,,,,161,0,161,0,1,,,,,
,,504219,001,2023-07-29_14h53.48.458,arm3_eps,2022.2.5,Win32,60.44122091,5bf890e426e31d0001040667,64c47140896c8c63e34c6d2f,64c515fa9d106ae481a1cca0,down,-1,0.75,0.4357,15,0,0.7306,,,,,,162,0,162,0,1,,,,,
,,504219,001,2023-07-29_14h53.48.458,arm3_eps,2022.2.5,Win32,60.44122091,5bf890e426e31d0001040667,64c47140896c8c63e34c6d2f,64c515fa9d106ae481a1cca0,right,-1,0.75,0.4357,15,-0.005764337,0.6371,,,,,,163,0,163,0,1,,,,,
,,504219,001,2023-07-29_14h53.48.458,arm3_eps,2022.2.5,Win32,60.44122091,5bf890e426e31d0001040667,64c47140896c8c63e34c6d2f,64c515fa9d106ae481a1cca0,down,-1,0.75,0.4357,16,0,0.5804,,,,,,164,0,164,0,1,,,,,
,,504219,001,2023-07-29_14h53.48.458,arm3_eps,2022.2.5,Win32,60.44122091,5bf890e426e31d0001040667,64c47140896c8c63e34c6d2f,64c515fa9d106ae481a1cca0,right,-1,0.75,0.4357,16,-0.006737905,0.5839,,,,,,165,0,165,0,1,,,,,
,,504219,001,2023-07-29_14h53.48.458,arm3_eps,2022.2.5,Win32,60.44122091,5bf890e426e31d0001040667,64c47140896c8c63e34c6d2f,64c515fa9d106ae481a1cca0,right,-1,0.75,0.4357,16,-0.005341255,0.4223,,,,,,166,0,166,0,1,,,,,
,,504219,001,2023-07-29_14h53.48.458,arm3_eps,2022.2.5,Win32,60.44122091,5bf890e426e31d0001040667,64c47140896c8c63e34c6d2f,64c515fa9d106ae481a1cca0,right,-1,0.75,0.4357,16,0.022978815,0.395,,,,,,167,0,167,0,1,,,,,
,,504219,001,2023-07-29_14h53.48.458,arm3_eps,2022.2.5,Win32,60.44122091,5bf890e426e31d0001040667,64c47140896c8c63e34c6d2f,64c515fa9d106ae481a1cca0,up,1,0.75,0.4357,15,0,0.2438,,,,,,168,0,168,0,1,,,,,
,,504219,001,2023-07-29_14h53.48.458,arm3_eps,2022.2.5,Win32,60.44122091,5bf890e426e31d0001040667,64c47140896c8c63e34c6d2f,64c515fa9d106ae481a1cca0,right,1,0.75,0.4357,15,0.026256994,0.5789,,,,,,169,0,169,0,1,,,,,
,,504219,001,2023-07-29_14h53.48.458,arm3_eps,2022.2.5,Win32,60.44122091,5bf890e426e31d0001040667,64c47140896c8c63e34c6d2f,64c515fa9d106ae481a1cca0,right,1,0.75,0.4357,15,0.051186007,0.3422,,,,,,170,0,170,0,1,,,,,
,,504219,001,2023-07-29_14h53.48.458,arm3_eps,2022.2.5,Win32,60.44122091,5bf890e426e31d0001040667,64c47140896c8c63e34c6d2f,64c515fa9d106ae481a1cca0,up,1,0.75,0.4357,16,0,0.7157,,,,,,171,0,171,0,1,,,,,
,,504219,001,2023-07-29_14h53.48.458,arm3_eps,2022.2.5,Win32,60.44122091,5bf890e426e31d0001040667,64c47140896c8c63e34c6d2f,64c515fa9d106ae481a1cca0,right,1,0.75,0.4357,16,0.033972418,0.6128,,,,,,172,0,172,0,1,,,,,
,,504219,001,2023-07-29_14h53.48.458,arm3_eps,2022.2.5,Win32,60.44122091,5bf890e426e31d0001040667,64c47140896c8c63e34c6d2f,64c515fa9d106ae481a1cca0,right,1,0.75,0.4357,16,0.038726648,0.3763,,,,,,173,0,173,0,1,,,,,
,,504219,001,2023-07-29_14h53.48.458,arm3_eps,2022.2.5,Win32,60.44122091,5bf890e426e31d0001040667,64c47140896c8c63e34c6d2f,64c515fa9d106ae481a1cca0,up,-1,0.75,0.4357,17,0,0.348,,,,,,174,0,174,0,1,,,,,
,,504219,001,2023-07-29_14h53.48.458,arm3_eps,2022.2.5,Win32,60.44122091,5bf890e426e31d0001040667,64c47140896c8c63e34c6d2f,64c515fa9d106ae481a1cca0,right,-1,0.75,0.4357,17,-0.029058574,0.6274,,,,,,175,0,175,0,1,,,,,
,,504219,001,2023-07-29_14h53.48.458,arm3_eps,2022.2.5,Win32,60.44122091,5bf890e426e31d0001040667,64c47140896c8c63e34c6d2f,64c515fa9d106ae481a1cca0,right,-1,0.75,0.4357,17,-0.022455195,0.374,,,,,,176,0,176,0,1,,,,,
,,504219,001,2023-07-29_14h53.48.458,arm3_eps,2022.2.5,Win32,60.44122091,5bf890e426e31d0001040667,64c47140896c8c63e34c6d2f,64c515fa9d106ae481a1cca0,right,-1,0.75,0.4357,17,-0.002094282,0.3921,,,,,,177,0,177,0,1,,,,,
,,504219,001,2023-07-29_14h53.48.458,arm3_eps,2022.2.5,Win32,60.44122091,5bf890e426e31d0001040667,64c47140896c8c63e34c6d2f,64c515fa9d106ae481a1cca0,down,1,0.75,0.4357,18,0,0.4817,,,,,,178,0,178,0,1,,,,,
,,504219,001,2023-07-29_14h53.48.458,arm3_eps,2022.2.5,Win32,60.44122091,5bf890e426e31d0001040667,64c47140896c8c63e34c6d2f,64c515fa9d106ae481a1cca0,right,1,0.75,0.4357,18,-0.016076525,0.6422,,,,,,179,0,179,0,1,,,,,
,,504219,001,2023-07-29_14h53.48.458,arm3_eps,2022.2.5,Win32,60.44122091,5bf890e426e31d0001040667,64c47140896c8c63e34c6d2f,64c515fa9d106ae481a1cca0,right,1,0.75,0.4357,18,-0.033187391,0.3162,,,,,,180,0,180,0,1,,,,,
,,504219,001,2023-07-29_14h53.48.458,arm3_eps,2022.2.5,Win32,60.44122091,5bf890e426e31d0001040667,64c47140896c8c63e34c6d2f,64c515fa9d106ae481a1cca0,right,1,0.75,0.4357,18,-0.015679126,0.7804,,,,,,181,0,181,0,1,,,,,
,,504219,001,2023-07-29_14h53.48.458,arm3_eps,2022.2.5,Win32,60.44122091,5bf890e426e31d0001040667,64c47140896c8c63e34c6d2f,64c515fa9d106ae481a1cca0,down,1,0.75,0.4357,18,0,0.4026,,,,,,182,0,182,0,1,,,,,
,,504219,001,2023-07-29_14h53.48.458,arm3_eps,2022.2.5,Win32,60.44122091,5bf890e426e31d0001040667,64c47140896c8c63e34c6d2f,64c515fa9d106ae481a1cca0,right,1,0.75,0.4357,18,0.011750886,0.6695,,,,,,183,0,183,0,1,,,,,
,,504219,001,2023-07-29_14h53.48.458,arm3_eps,2022.2.5,Win32,60.44122091,5bf890e426e31d0001040667,64c47140896c8c63e34c6d2f,64c515fa9d106ae481a1cca0,right,1,0.75,0.4357,18,0.015961383,0.3202,,,,,,184,0,184,0,1,,,,,
,,504219,001,2023-07-29_14h53.48.458,arm3_eps,2022.2.5,Win32,60.44122091,5bf890e426e31d0001040667,64c47140896c8c63e34c6d2f,64c515fa9d106ae481a1cca0,right,1,0.75,0.4357,18,0.007624128,0.3168,,,,,,185,0,185,0,1,,,,,
,,504219,001,2023-07-29_14h53.48.458,arm3_eps,2022.2.5,Win32,60.44122091,5bf890e426e31d0001040667,64c47140896c8c63e34c6d2f,64c515fa9d106ae481a1cca0,right,1,0.75,0.4357,18,-0.01522252,0.3865,,,,,,186,0,186,0,1,,,,,
,,504219,001,2023-07-29_14h53.48.458,arm3_eps,2022.2.5,Win32,60.44122091,5bf890e426e31d0001040667,64c47140896c8c63e34c6d2f,64c515fa9d106ae481a1cca0,down,1,0.75,0.4357,17,0,0.2563,,,,,,187,0,187,0,1,,,,,
,,504219,001,2023-07-29_14h53.48.458,arm3_eps,2022.2.5,Win32,60.44122091,5bf890e426e31d0001040667,64c47140896c8c63e34c6d2f,64c515fa9d106ae481a1cca0,right,1,0.75,0.4357,17,0.020972425,0.4371,,,,,,188,0,188,0,1,,,,,
,,504219,001,2023-07-29_14h53.48.458,arm3_eps,2022.2.5,Win32,60.44122091,5bf890e426e31d0001040667,64c47140896c8c63e34c6d2f,64c515fa9d106ae481a1cca0,right,1,0.75,0.4357,17,0.047717681,0.3291,,,,,,189,0,189,0,1,,,,,
,,504219,001,2023-07-29_14h53.48.458,arm3_eps,2022.2.5,Win32,60.44122091,5bf890e426e31d0001040667,64c47140896c8c63e34c6d2f,64c515fa9d106ae481a1cca0,right,1,0.75,0.4357,17,0.056804039,0.1992,,,,,,190,0,190,0,1,,,,,
,,504219,001,2023-07-29_14h53.48.458,arm3_eps,2022.2.5,Win32,60.44122091,5bf890e426e31d0001040667,64c47140896c8c63e34c6d2f,64c515fa9d106ae481a1cca0,up,1,0.75,0.4357,17,0,0.3694,,,,,,191,0,191,0,1,,,,,
,,504219,001,2023-07-29_14h53.48.458,arm3_eps,2022.2.5,Win32,60.44122091,5bf890e426e31d0001040667,64c47140896c8c63e34c6d2f,64c515fa9d106ae481a1cca0,right,1,0.75,0.4357,17,-0.009078425,0.4871,,,,,,192,0,192,0,1,,,,,
,,504219,001,2023-07-29_14h53.48.458,arm3_eps,2022.2.5,Win32,60.44122091,5bf890e426e31d0001040667,64c47140896c8c63e34c6d2f,64c515fa9d106ae481a1cca0,right,1,0.75,0.4357,17,-0.004721678,0.2592,,,,,,193,0,193,0,1,,,,,
,,504219,001,2023-07-29_14h53.48.458,arm3_eps,2022.2.5,Win32,60.44122091,5bf890e426e31d0001040667,64c47140896c8c63e34c6d2f,64c515fa9d106ae481a1cca0,right,1,0.75,0.4357,17,0.023014248,0.2902,,,,,,194,0,194,0,1,,,,,
,,504219,001,2023-07-29_14h53.48.458,arm3_eps,2022.2.5,Win32,60.44122091,5bf890e426e31d0001040667,64c47140896c8c63e34c6d2f,64c515fa9d106ae481a1cca0,up,1,0.75,0.4357,18,0,0.5414,,,,,,195,0,195,0,1,,,,,
,,504219,001,2023-07-29_14h53.48.458,arm3_eps,2022.2.5,Win32,60.44122091,5bf890e426e31d0001040667,64c47140896c8c63e34c6d2f,64c515fa9d106ae481a1cca0,right,1,0.75,0.4357,18,0.003966081,0.7184,,,,,,196,0,196,0,1,,,,,
,,504219,001,2023-07-29_14h53.48.458,arm3_eps,2022.2.5,Win32,60.44122091,5bf890e426e31d0001040667,64c47140896c8c63e34c6d2f,64c515fa9d106ae481a1cca0,right,1,0.75,0.4357,18,0.004909705,0.2008,,,,,,197,0,197,0,1,,,,,
,,504219,001,2023-07-29_14h53.48.458,arm3_eps,2022.2.5,Win32,60.44122091,5bf890e426e31d0001040667,64c47140896c8c63e34c6d2f,64c515fa9d106ae481a1cca0,right,1,0.75,0.4357,18,0.015763856,0.2279,,,,,,198,0,198,0,1,,,,,
,,504219,001,2023-07-29_14h53.48.458,arm3_eps,2022.2.5,Win32,60.44122091,5bf890e426e31d0001040667,64c47140896c8c63e34c6d2f,64c515fa9d106ae481a1cca0,up,1,0.75,0.4357,19,0,0.3684,,,,,,199,0,199,0,1,,,,,
,,504219,001,2023-07-29_14h53.48.458,arm3_eps,2022.2.5,Win32,60.44122091,5bf890e426e31d0001040667,64c47140896c8c63e34c6d2f,64c515fa9d106ae481a1cca0,right,1,0.75,0.4357,19,0.00522353,0.7166,,,,,,200,0,200,0,1,,,,,
,,504219,001,2023-07-29_14h53.48.458,arm3_eps,2022.2.5,Win32,60.44122091,5bf890e426e31d0001040667,64c47140896c8c63e34c6d2f,64c515fa9d106ae481a1cca0,right,1,0.75,0.4357,19,0.030599072,0.1745,,,,,,201,0,201,0,1,,,,,
,,504219,001,2023-07-29_14h53.48.458,arm3_eps,2022.2.5,Win32,60.44122091,5bf890e426e31d0001040667,64c47140896c8c63e34c6d2f,64c515fa9d106ae481a1cca0,up,-1,0.75,0.4357,20,0,0.3173,,,,,,202,0,202,0,1,,,,,
,,504219,001,2023-07-29_14h53.48.458,arm3_eps,2022.2.5,Win32,60.44122091,5bf890e426e31d0001040667,64c47140896c8c63e34c6d2f,64c515fa9d106ae481a1cca0,right,-1,0.75,0.4357,20,-0.033502812,0.6671,,,,,,203,0,203,0,1,,,,,
,,504219,001,2023-07-29_14h53.48.458,arm3_eps,2022.2.5,Win32,60.44122091,5bf890e426e31d0001040667,64c47140896c8c63e34c6d2f,64c515fa9d106ae481a1cca0,right,-1,0.75,0.4357,20,-0.060060732,0.1813,,,,,,204,0,204,0,1,,,,,
,,504219,001,2023-07-29_14h53.48.458,arm3_eps,2022.2.5,Win32,60.44122091,5bf890e426e31d0001040667,64c47140896c8c63e34c6d2f,64c515fa9d106ae481a1cca0,down,-1,0.75,0.4357,21,0,0.3462,,,,,,205,0,205,0,1,,,,,
,,504219,001,2023-07-29_14h53.48.458,arm3_eps,2022.2.5,Win32,60.44122091,5bf890e426e31d0001040667,64c47140896c8c63e34c6d2f,64c515fa9d106ae481a1cca0,right,-1,0.75,0.4357,21,-0.017658115,0.7117,,,,,,206,0,206,0,1,,,,,
,,504219,001,2023-07-29_14h53.48.458,arm3_eps,2022.2.5,Win32,60.44122091,5bf890e426e31d0001040667,64c47140896c8c63e34c6d2f,64c515fa9d106ae481a1cca0,right,-1,0.75,0.4357,21,-0.025880557,0.1824,,,,,,207,0,207,0,1,,,,,
,,504219,001,2023-07-29_14h53.48.458,arm3_eps,2022.2.5,Win32,60.44122091,5bf890e426e31d0001040667,64c47140896c8c63e34c6d2f,64c515fa9d106ae481a1cca0,right,-1,0.75,0.4357,21,-0.063580344,0.4103,,,,,,208,0,208,0,1,,,,,
,,504219,001,2023-07-29_14h53.48.458,arm3_eps,2022.2.5,Win32,60.44122091,5bf890e426e31d0001040667,64c47140896c8c63e34c6d2f,64c515fa9d106ae481a1cca0,down,1,0.75,0.4357,22,0,0.228,,,,,,209,0,209,0,1,,,,,
,,504219,001,2023-07-29_14h53.48.458,arm3_eps,2022.2.5,Win32,60.44122091,5bf890e426e31d0001040667,64c47140896c8c63e34c6d2f,64c515fa9d106ae481a1cca0,right,1,0.75,0.4357,22,-0.008657848,0.8059,,,,,,210,0,210,0,1,,,,,
,,504219,001,2023-07-29_14h53.48.458,arm3_eps,2022.2.5,Win32,60.44122091,5bf890e426e31d0001040667,64c47140896c8c63e34c6d2f,64c515fa9d106ae481a1cca0,right,1,0.75,0.4357,22,-0.012086265,0.1828,,,,,,211,0,211,0,1,,,,,
,,504219,001,2023-07-29_14h53.48.458,arm3_eps,2022.2.5,Win32,60.44122091,5bf890e426e31d0001040667,64c47140896c8c63e34c6d2f,64c515fa9d106ae481a1cca0,right,1,0.75,0.4357,22,-0.004434302,0.378,,,,,,212,0,212,0,1,,,,,
,,504219,001,2023-07-29_14h53.48.458,arm3_eps,2022.2.5,Win32,60.44122091,5bf890e426e31d0001040667,64c47140896c8c63e34c6d2f,64c515fa9d106ae481a1cca0,right,1,0.75,0.4357,22,0.003011987,0.4434,,,,,,213,0,213,0,1,,,,,
,,504219,001,2023-07-29_14h53.48.458,arm3_eps,2022.2.5,Win32,60.44122091,5bf890e426e31d0001040667,64c47140896c8c63e34c6d2f,64c515fa9d106ae481a1cca0,up,1,0.75,0.4357,23,0,0.2592,,,,,,214,0,214,0,1,,,,,
,,504219,001,2023-07-29_14h53.48.458,arm3_eps,2022.2.5,Win32,60.44122091,5bf890e426e31d0001040667,64c47140896c8c63e34c6d2f,64c515fa9d106ae481a1cca0,right,1,0.75,0.4357,23,0.01306793,0.7803,,,,,,215,0,215,0,1,,,,,
,,504219,001,2023-07-29_14h53.48.458,arm3_eps,2022.2.5,Win32,60.44122091,5bf890e426e31d0001040667,64c47140896c8c63e34c6d2f,64c515fa9d106ae481a1cca0,right,1,0.75,0.4357,23,0.02066251,0.3524,,,,,,216,0,216,0,1,,,,,
,,504219,001,2023-07-29_14h53.48.458,arm3_eps,2022.2.5,Win32,60.44122091,5bf890e426e31d0001040667,64c47140896c8c63e34c6d2f,64c515fa9d106ae481a1cca0,right,1,0.75,0.4357,23,0.008781666,0.3798,,,,,,217,0,217,0,1,,,,,
,,504219,001,2023-07-29_14h53.48.458,arm3_eps,2022.2.5,Win32,60.44122091,5bf890e426e31d0001040667,64c47140896c8c63e34c6d2f,64c515fa9d106ae481a1cca0,up,1,0.75,0.4357,24,0,0.4303,,,,,,218,0,218,0,1,,,,,
,,504219,001,2023-07-29_14h53.48.458,arm3_eps,2022.2.5,Win32,60.44122091,5bf890e426e31d0001040667,64c47140896c8c63e34c6d2f,64c515fa9d106ae481a1cca0,right,1,0.75,0.4357,24,0.031732338,0.6223,,,,,,219,0,219,0,1,,,,,
,,504219,001,2023-07-29_14h53.48.458,arm3_eps,2022.2.5,Win32,60.44122091,5bf890e426e31d0001040667,64c47140896c8c63e34c6d2f,64c515fa9d106ae481a1cca0,right,1,0.75,0.4357,24,0.039869461,0.2576,,,,,,220,0,220,0,1,,,,,
,,504219,001,2023-07-29_14h53.48.458,arm3_eps,2022.2.5,Win32,60.44122091,5bf890e426e31d0001040667,64c47140896c8c63e34c6d2f,64c515fa9d106ae481a1cca0,up,-1,0.75,0.4357,25,0,0.3493,,,,,,221,0,221,0,1,,,,,
,,504219,001,2023-07-29_14h53.48.458,arm3_eps,2022.2.5,Win32,60.44122091,5bf890e426e31d0001040667,64c47140896c8c63e34c6d2f,64c515fa9d106ae481a1cca0,right,-1,0.75,0.4357,25,-0.002066507,0.8841,,,,,,222,0,222,0,1,,,,,
,,504219,001,2023-07-29_14h53.48.458,arm3_eps,2022.2.5,Win32,60.44122091,5bf890e426e31d0001040667,64c47140896c8c63e34c6d2f,64c515fa9d106ae481a1cca0,right,-1,0.75,0.4357,25,-0.048748328,0.3556,,,,,,223,0,223,0,1,,,,,
,,504219,001,2023-07-29_14h53.48.458,arm3_eps,2022.2.5,Win32,60.44122091,5bf890e426e31d0001040667,64c47140896c8c63e34c6d2f,64c515fa9d106ae481a1cca0,right,-1,0.75,0.4357,25,-0.056177291,0.7978,,,,,,224,0,224,0,1,,,,,
,,504219,001,2023-07-29_14h53.48.458,arm3_eps,2022.2.5,Win32,60.44122091,5bf890e426e31d0001040667,64c47140896c8c63e34c6d2f,64c515fa9d106ae481a1cca0,down,-1,0.75,0.4357,26,0,0.3307,,,,,,225,0,225,0,1,,,,,
,,504219,001,2023-07-29_14h53.48.458,arm3_eps,2022.2.5,Win32,60.44122091,5bf890e426e31d0001040667,64c47140896c8c63e34c6d2f,64c515fa9d106ae481a1cca0,right,-1,0.75,0.4357,26,0.018827011,1.2406,,,,,,226,0,226,0,1,,,,,
,,504219,001,2023-07-29_14h53.48.458,arm3_eps,2022.2.5,Win32,60.44122091,5bf890e426e31d0001040667,64c47140896c8c63e34c6d2f,64c515fa9d106ae481a1cca0,right,-1,0.75,0.4357,26,0.004722741,0.3385,,,,,,227,0,227,0,1,,,,,
,,504219,001,2023-07-29_14h53.48.458,arm3_eps,2022.2.5,Win32,60.44122091,5bf890e426e31d0001040667,64c47140896c8c63e34c6d2f,64c515fa9d106ae481a1cca0,right,-1,0.75,0.4357,26,0.004948461,0.2982,,,,,,228,0,228,0,1,,,,,
,,504219,001,2023-07-29_14h53.48.458,arm3_eps,2022.2.5,Win32,60.44122091,5bf890e426e31d0001040667,64c47140896c8c63e34c6d2f,64c515fa9d106ae481a1cca0,right,-1,0.75,0.4357,26,0.00556712,0.2816,,,,,,229,0,229,0,1,,,,,
,,504219,001,2023-07-29_14h53.48.458,arm3_eps,2022.2.5,Win32,60.44122091,5bf890e426e31d0001040667,64c47140896c8c63e34c6d2f,64c515fa9d106ae481a1cca0,right,-1,0.75,0.4357,26,0.017289584,0.3353,,,,,,230,0,230,0,1,,,,,
,,504219,001,2023-07-29_14h53.48.458,arm3_eps,2022.2.5,Win32,60.44122091,5bf890e426e31d0001040667,64c47140896c8c63e34c6d2f,64c515fa9d106ae481a1cca0,right,-1,0.75,0.4357,26,0.012758529,0.3982,,,,,,231,0,231,0,1,,,,,
,,504219,001,2023-07-29_14h53.48.458,arm3_eps,2022.2.5,Win32,60.44122091,5bf890e426e31d0001040667,64c47140896c8c63e34c6d2f,64c515fa9d106ae481a1cca0,right,-1,0.75,0.4357,26,-0.000777331,0.3204,,,,,,232,0,232,0,1,,,,,
,,504219,001,2023-07-29_14h53.48.458,arm3_eps,2022.2.5,Win32,60.44122091,5bf890e426e31d0001040667,64c47140896c8c63e34c6d2f,64c515fa9d106ae481a1cca0,down,-1,0.75,0.4357,27,0,0.3674,,,,,,233,0,233,0,1,,,,,
,,504219,001,2023-07-29_14h53.48.458,arm3_eps,2022.2.5,Win32,60.44122091,5bf890e426e31d0001040667,64c47140896c8c63e34c6d2f,64c515fa9d106ae481a1cca0,right,-1,0.75,0.4357,27,0.004302948,0.7551,,,,,,234,0,234,0,1,,,,,
,,504219,001,2023-07-29_14h53.48.458,arm3_eps,2022.2.5,Win32,60.44122091,5bf890e426e31d0001040667,64c47140896c8c63e34c6d2f,64c515fa9d106ae481a1cca0,right,-1,0.75,0.4357,27,-0.003637887,0.3497,,,,,,235,0,235,0,1,,,,,
,,504219,001,2023-07-29_14h53.48.458,arm3_eps,2022.2.5,Win32,60.44122091,5bf890e426e31d0001040667,64c47140896c8c63e34c6d2f,64c515fa9d106ae481a1cca0,right,-1,0.75,0.4357,27,0.01283277,0.3141,,,,,,236,0,236,0,1,,,,,
,,504219,001,2023-07-29_14h53.48.458,arm3_eps,2022.2.5,Win32,60.44122091,5bf890e426e31d0001040667,64c47140896c8c63e34c6d2f,64c515fa9d106ae481a1cca0,right,-1,0.75,0.4357,27,0.022901429,0.3219,,,,,,237,0,237,0,1,,,,,
,,504219,001,2023-07-29_14h53.48.458,arm3_eps,2022.2.5,Win32,60.44122091,5bf890e426e31d0001040667,64c47140896c8c63e34c6d2f,64c515fa9d106ae481a1cca0,right,-1,0.75,0.4357,27,0.02151483,0.3697,,,,,,238,0,238,0,1,,,,,
,,504219,001,2023-07-29_14h53.48.458,arm3_eps,2022.2.5,Win32,60.44122091,5bf890e426e31d0001040667,64c47140896c8c63e34c6d2f,64c515fa9d106ae481a1cca0,right,-1,0.75,0.4357,27,0.024937751,0.342,,,,,,239,0,239,0,1,,,,,
,,504219,001,2023-07-29_14h53.48.458,arm3_eps,2022.2.5,Win32,60.44122091,5bf890e426e31d0001040667,64c47140896c8c63e34c6d2f,64c515fa9d106ae481a1cca0,up,1,0.75,0.4357,26,0,0.2341,,,,,,240,0,240,0,1,,,,,
,,504219,001,2023-07-29_14h53.48.458,arm3_eps,2022.2.5,Win32,60.44122091,5bf890e426e31d0001040667,64c47140896c8c63e34c6d2f,64c515fa9d106ae481a1cca0,right,1,0.75,0.4357,26,0.009597135,0.829,,,,,,241,0,241,0,1,,,,,
,,504219,001,2023-07-29_14h53.48.458,arm3_eps,2022.2.5,Win32,60.44122091,5bf890e426e31d0001040667,64c47140896c8c63e34c6d2f,64c515fa9d106ae481a1cca0,right,1,0.75,0.4357,26,0.023500083,0.2499,,,,,,242,0,242,0,1,,,,,
,,504219,001,2023-07-29_14h53.48.458,arm3_eps,2022.2.5,Win32,60.44122091,5bf890e426e31d0001040667,64c47140896c8c63e34c6d2f,64c515fa9d106ae481a1cca0,right,1,0.75,0.4357,26,0.051033364,0.3583,,,,,,243,0,243,0,1,,,,,
,,504219,001,2023-07-29_14h53.48.458,arm3_eps,2022.2.5,Win32,60.44122091,5bf890e426e31d0001040667,64c47140896c8c63e34c6d2f,64c515fa9d106ae481a1cca0,up,1,0.75,0.4357,27,0,0.2934,,,,,,244,0,244,0,1,,,,,
,,504219,001,2023-07-29_14h53.48.458,arm3_eps,2022.2.5,Win32,60.44122091,5bf890e426e31d0001040667,64c47140896c8c63e34c6d2f,64c515fa9d106ae481a1cca0,right,1,0.75,0.4357,27,-0.009599626,0.6964,,,,,,245,0,245,0,1,,,,,
,,504219,001,2023-07-29_14h53.48.458,arm3_eps,2022.2.5,Win32,60.44122091,5bf890e426e31d0001040667,64c47140896c8c63e34c6d2f,64c515fa9d106ae481a1cca0,right,1,0.75,0.4357,27,-0.002019768,0.2064,,,,,,246,0,246,0,1,,,,,
,,504219,001,2023-07-29_14h53.48.458,arm3_eps,2022.2.5,Win32,60.44122091,5bf890e426e31d0001040667,64c47140896c8c63e34c6d2f,64c515fa9d106ae481a1cca0,right,1,0.75,0.4357,27,0.034793807,0.2057,,,,,,247,0,247,0,1,,,,,
,,504219,001,2023-07-29_14h53.48.458,arm3_eps,2022.2.5,Win32,60.44122091,5bf890e426e31d0001040667,64c47140896c8c63e34c6d2f,64c515fa9d106ae481a1cca0,up,1,0.75,0.4357,27,0,0.2736,,,,,,248,0,248,0,1,,,,,
,,504219,001,2023-07-29_14h53.48.458,arm3_eps,2022.2.5,Win32,60.44122091,5bf890e426e31d0001040667,64c47140896c8c63e34c6d2f,64c515fa9d106ae481a1cca0,right,1,0.75,0.4357,27,0.020936257,0.552,,,,,,249,0,249,0,1,,,,,
,,504219,001,2023-07-29_14h53.48.458,arm3_eps,2022.2.5,Win32,60.44122091,5bf890e426e31d0001040667,64c47140896c8c63e34c6d2f,64c515fa9d106ae481a1cca0,right,1,0.75,0.4357,27,0.007689023,0.2065,,,,,,250,0,250,0,1,,,,,
,,504219,001,2023-07-29_14h53.48.458,arm3_eps,2022.2.5,Win32,60.44122091,5bf890e426e31d0001040667,64c47140896c8c63e34c6d2f,64c515fa9d106ae481a1cca0,right,1,0.75,0.4357,27,0.011682833,0.1898,,,,,,251,0,251,0,1,,,,,
,,504219,001,2023-07-29_14h53.48.458,arm3_eps,2022.2.5,Win32,60.44122091,5bf890e426e31d0001040667,64c47140896c8c63e34c6d2f,64c515fa9d106ae481a1cca0,right,1,0.75,0.4357,27,-0.028736533,0.2343,,,,,,252,0,252,0,1,,,,,
,,504219,001,2023-07-29_14h53.48.458,arm3_eps,2022.2.5,Win32,60.44122091,5bf890e426e31d0001040667,64c47140896c8c63e34c6d2f,64c515fa9d106ae481a1cca0,down,1,0.75,0.4357,26,0,0.3823,,,,,,253,0,253,0,1,,,,,
,,504219,001,2023-07-29_14h53.48.458,arm3_eps,2022.2.5,Win32,60.44122091,5bf890e426e31d0001040667,64c47140896c8c63e34c6d2f,64c515fa9d106ae481a1cca0,right,1,0.75,0.4357,26,0.010548302,0.5713,,,,,,254,0,254,0,1,,,,,
,,504219,001,2023-07-29_14h53.48.458,arm3_eps,2022.2.5,Win32,60.44122091,5bf890e426e31d0001040667,64c47140896c8c63e34c6d2f,64c515fa9d106ae481a1cca0,right,1,0.75,0.4357,26,0.008638731,0.1772,,,,,,255,0,255,0,1,,,,,
,,504219,001,2023-07-29_14h53.48.458,arm3_eps,2022.2.5,Win32,60.44122091,5bf890e426e31d0001040667,64c47140896c8c63e34c6d2f,64c515fa9d106ae481a1cca0,right,1,0.75,0.4357,26,0.022974211,0.1757,,,,,,256,0,256,0,1,,,,,
,,504219,001,2023-07-29_14h53.48.458,arm3_eps,2022.2.5,Win32,60.44122091,5bf890e426e31d0001040667,64c47140896c8c63e34c6d2f,64c515fa9d106ae481a1cca0,right,1,0.75,0.4357,26,0.018054894,0.1849,,,,,,257,0,257,0,1,,,,,
,,504219,001,2023-07-29_14h53.48.458,arm3_eps,2022.2.5,Win32,60.44122091,5bf890e426e31d0001040667,64c47140896c8c63e34c6d2f,64c515fa9d106ae481a1cca0,right,1,0.75,0.4357,26,0.035253413,0.3511,,,,,,258,0,258,0,1,,,,,
,,504219,001,2023-07-29_14h53.48.458,arm3_eps,2022.2.5,Win32,60.44122091,5bf890e426e31d0001040667,64c47140896c8c63e34c6d2f,64c515fa9d106ae481a1cca0,up,1,0.75,0.4357,26,0,0.3111,,,,,,259,0,259,0,1,,,,,
,,504219,001,2023-07-29_14h53.48.458,arm3_eps,2022.2.5,Win32,60.44122091,5bf890e426e31d0001040667,64c47140896c8c63e34c6d2f,64c515fa9d106ae481a1cca0,right,1,0.75,0.4357,26,-0.007913798,0.6988,,,,,,260,0,260,0,1,,,,,
,,504219,001,2023-07-29_14h53.48.458,arm3_eps,2022.2.5,Win32,60.44122091,5bf890e426e31d0001040667,64c47140896c8c63e34c6d2f,64c515fa9d106ae481a1cca0,right,1,0.75,0.4357,26,0.007372048,0.2219,,,,,,261,0,261,0,1,,,,,
,,504219,001,2023-07-29_14h53.48.458,arm3_eps,2022.2.5,Win32,60.44122091,5bf890e426e31d0001040667,64c47140896c8c63e34c6d2f,64c515fa9d106ae481a1cca0,right,1,0.75,0.4357,26,0.020432895,0.264,,,,,,262,0,262,0,1,,,,,
,,504219,001,2023-07-29_14h53.48.458,arm3_eps,2022.2.5,Win32,60.44122091,5bf890e426e31d0001040667,64c47140896c8c63e34c6d2f,64c515fa9d106ae481a1cca0,right,1,0.75,0.4357,26,0.015304229,0.3745,,,,,,263,0,263,0,1,,,,,
,,504219,001,2023-07-29_14h53.48.458,arm3_eps,2022.2.5,Win32,60.44122091,5bf890e426e31d0001040667,64c47140896c8c63e34c6d2f,64c515fa9d106ae481a1cca0,up,-1,0.75,0.4357,27,0,0.3804,,,,,,264,0,264,0,1,,,,,
,,504219,001,2023-07-29_14h53.48.458,arm3_eps,2022.2.5,Win32,60.44122091,5bf890e426e31d0001040667,64c47140896c8c63e34c6d2f,64c515fa9d106ae481a1cca0,right,-1,0.75,0.4357,27,-0.004294302,0.6376,,,,,,265,0,265,0,1,,,,,
,,504219,001,2023-07-29_14h53.48.458,arm3_eps,2022.2.5,Win32,60.44122091,5bf890e426e31d0001040667,64c47140896c8c63e34c6d2f,64c515fa9d106ae481a1cca0,right,-1,0.75,0.4357,27,-0.014337111,0.1981,,,,,,266,0,266,0,1,,,,,
