space_bar.keys,space_bar.rt,participant,session,date,expName,psychopyVersion,OS,frameRate,PROLIFIC_PID,STUDY_ID,SESSION_ID,resp.keys,state,q_prob,eps_prob,score,price,resp.rt,train.thisRepN,train.thisTrialN,train.thisN,train.thisIndex,train.ran,steps.thisRepN,steps.thisTrialN,steps.thisN,steps.thisIndex,steps.ran,blocks.thisRepN,blocks.thisTrialN,blocks.thisN,blocks.thisIndex,blocks.ran
space,22.1742,514562,001,2023-07-31_20h49.15.216,arm3_eps,2022.2.5,Win32,59.78715772,61290e83a2d9e168e4392ead,64c7fed44a04f777bb1e18ce,64c8011de90c2231c8a6fb3a,,,,,,,,,,,,,,,,,,,,,,
space,10.347,514562,001,2023-07-31_20h49.15.216,arm3_eps,2022.2.5,Win32,59.78715772,61290e83a2d9e168e4392ead,64c7fed44a04f777bb1e18ce,64c8011de90c2231c8a6fb3a,,,,,,,,,,,,,,,,,,,,,,
space,26.1974,514562,001,2023-07-31_20h49.15.216,arm3_eps,2022.2.5,Win32,59.78715772,61290e83a2d9e168e4392ead,64c7fed44a04f777bb1e18ce,64c8011de90c2231c8a6fb3a,,,,,,,,,,,,,,,,,,,,,,
space,13.4665,514562,001,2023-07-31_20h49.15.216,arm3_eps,2022.2.5,Win32,59.78715772,61290e83a2d9e168e4392ead,64c7fed44a04f777bb1e18ce,64c8011de90c2231c8a6fb3a,,,,,,,,,,,,,,,,,,,,,,
space,67.157,514562,001,2023-07-31_20h49.15.216,arm3_eps,2022.2.5,Win32,59.78715772,61290e83a2d9e168e4392ead,64c7fed44a04f777bb1e18ce,64c8011de90c2231c8a6fb3a,,,,,,,,,,,,,,,,,,,,,,
space,15.1144,514562,001,2023-07-31_20h49.15.216,arm3_eps,2022.2.5,Win32,59.78715772,61290e83a2d9e168e4392ead,64c7fed44a04f777bb1e18ce,64c8011de90c2231c8a6fb3a,,,,,,,,,,,,,,,,,,,,,,
space,2.4597,514562,001,2023-07-31_20h49.15.216,arm3_eps,2022.2.5,Win32,59.78715772,61290e83a2d9e168e4392ead,64c7fed44a04f777bb1e18ce,64c8011de90c2231c8a6fb3a,,,,,,,,,,,,,,,,,,,,,,
,,514562,001,2023-07-31_20h49.15.216,arm3_eps,2022.2.5,Win32,59.78715772,61290e83a2d9e168e4392ead,64c7fed44a04f777bb1e18ce,64c8011de90c2231c8a6fb3a,down,-1,1,0.2429,1,0,3.0279,0,0,0,0,1,,,,,,,,,,
,,514562,001,2023-07-31_20h49.15.216,arm3_eps,2022.2.5,Win32,59.78715772,61290e83a2d9e168e4392ead,64c7fed44a04f777bb1e18ce,64c8011de90c2231c8a6fb3a,down,-1,1,0.2429,2,0,1.67,1,0,1,0,1,,,,,,,,,,
,,514562,001,2023-07-31_20h49.15.216,arm3_eps,2022.2.5,Win32,59.78715772,61290e83a2d9e168e4392ead,64c7fed44a04f777bb1e18ce,64c8011de90c2231c8a6fb3a,up,-1,1,0.2429,1,0,1.9039,2,0,2,0,1,,,,,,,,,,
,,514562,001,2023-07-31_20h49.15.216,arm3_eps,2022.2.5,Win32,59.78715772,61290e83a2d9e168e4392ead,64c7fed44a04f777bb1e18ce,64c8011de90c2231c8a6fb3a,right,-1,1,0.2429,1,0.008088564,2.2549,3,0,3,0,1,,,,,,,,,,
,,514562,001,2023-07-31_20h49.15.216,arm3_eps,2022.2.5,Win32,59.78715772,61290e83a2d9e168e4392ead,64c7fed44a04f777bb1e18ce,64c8011de90c2231c8a6fb3a,right,-1,1,0.2429,1,-0.001103198,1.3808,4,0,4,0,1,,,,,,,,,,
,,514562,001,2023-07-31_20h49.15.216,arm3_eps,2022.2.5,Win32,59.78715772,61290e83a2d9e168e4392ead,64c7fed44a04f777bb1e18ce,64c8011de90c2231c8a6fb3a,down,-1,1,0.2429,2,0,2.9052,5,0,5,0,1,,,,,,,,,,
,,514562,001,2023-07-31_20h49.15.216,arm3_eps,2022.2.5,Win32,59.78715772,61290e83a2d9e168e4392ead,64c7fed44a04f777bb1e18ce,64c8011de90c2231c8a6fb3a,right,-1,1,0.2429,2,0.007260239,2.9672,6,0,6,0,1,,,,,,,,,,
,,514562,001,2023-07-31_20h49.15.216,arm3_eps,2022.2.5,Win32,59.78715772,61290e83a2d9e168e4392ead,64c7fed44a04f777bb1e18ce,64c8011de90c2231c8a6fb3a,right,-1,1,0.2429,2,0.020115758,0.4669,7,0,7,0,1,,,,,,,,,,
,,514562,001,2023-07-31_20h49.15.216,arm3_eps,2022.2.5,Win32,59.78715772,61290e83a2d9e168e4392ead,64c7fed44a04f777bb1e18ce,64c8011de90c2231c8a6fb3a,right,-1,1,0.2429,2,0.007697287,0.5048,8,0,8,0,1,,,,,,,,,,
,,514562,001,2023-07-31_20h49.15.216,arm3_eps,2022.2.5,Win32,59.78715772,61290e83a2d9e168e4392ead,64c7fed44a04f777bb1e18ce,64c8011de90c2231c8a6fb3a,right,-1,1,0.2429,2,-0.010826249,0.4664,9,0,9,0,1,,,,,,,,,,
,,514562,001,2023-07-31_20h49.15.216,arm3_eps,2022.2.5,Win32,59.78715772,61290e83a2d9e168e4392ead,64c7fed44a04f777bb1e18ce,64c8011de90c2231c8a6fb3a,right,-1,1,0.2429,2,-0.016630437,0.3147,10,0,10,0,1,,,,,,,,,,
,,514562,001,2023-07-31_20h49.15.216,arm3_eps,2022.2.5,Win32,59.78715772,61290e83a2d9e168e4392ead,64c7fed44a04f777bb1e18ce,64c8011de90c2231c8a6fb3a,right,-1,1,0.2429,2,-0.004559643,0.3711,11,0,11,0,1,,,,,,,,,,
,,514562,001,2023-07-31_20h49.15.216,arm3_eps,2022.2.5,Win32,59.78715772,61290e83a2d9e168e4392ead,64c7fed44a04f777bb1e18ce,64c8011de90c2231c8a6fb3a,right,-1,1,0.2429,2,0.004475067,0.3987,12,0,12,0,1,,,,,,,,,,
,,514562,001,2023-07-31_20h49.15.216,arm3_eps,2022.2.5,Win32,59.78715772,61290e83a2d9e168e4392ead,64c7fed44a04f777bb1e18ce,64c8011de90c2231c8a6fb3a,right,-1,1,0.2429,2,-0.023886569,0.599,13,0,13,0,1,,,,,,,,,,
,,514562,001,2023-07-31_20h49.15.216,arm3_eps,2022.2.5,Win32,59.78715772,61290e83a2d9e168e4392ead,64c7fed44a04f777bb1e18ce,64c8011de90c2231c8a6fb3a,right,-1,1,0.2429,2,-0.041746597,0.4477,14,0,14,0,1,,,,,,,,,,
,,514562,001,2023-07-31_20h49.15.216,arm3_eps,2022.2.5,Win32,59.78715772,61290e83a2d9e168e4392ead,64c7fed44a04f777bb1e18ce,64c8011de90c2231c8a6fb3a,right,-1,1,0.2429,2,-0.069763972,0.3714,15,0,15,0,1,,,,,,,,,,
,,514562,001,2023-07-31_20h49.15.216,arm3_eps,2022.2.5,Win32,59.78715772,61290e83a2d9e168e4392ead,64c7fed44a04f777bb1e18ce,64c8011de90c2231c8a6fb3a,right,-1,1,0.2429,2,-0.083725491,0.4323,16,0,16,0,1,,,,,,,,,,
,,514562,001,2023-07-31_20h49.15.216,arm3_eps,2022.2.5,Win32,59.78715772,61290e83a2d9e168e4392ead,64c7fed44a04f777bb1e18ce,64c8011de90c2231c8a6fb3a,down,-1,1,0.2429,3,0,0.6726,17,0,17,0,1,,,,,,,,,,
,,514562,001,2023-07-31_20h49.15.216,arm3_eps,2022.2.5,Win32,59.78715772,61290e83a2d9e168e4392ead,64c7fed44a04f777bb1e18ce,64c8011de90c2231c8a6fb3a,right,-1,1,0.2429,3,0.002565963,6.5463,18,0,18,0,1,,,,,,,,,,
,,514562,001,2023-07-31_20h49.15.216,arm3_eps,2022.2.5,Win32,59.78715772,61290e83a2d9e168e4392ead,64c7fed44a04f777bb1e18ce,64c8011de90c2231c8a6fb3a,right,-1,1,0.2429,3,0.006843527,0.3488,19,0,19,0,1,,,,,,,,,,
,,514562,001,2023-07-31_20h49.15.216,arm3_eps,2022.2.5,Win32,59.78715772,61290e83a2d9e168e4392ead,64c7fed44a04f777bb1e18ce,64c8011de90c2231c8a6fb3a,right,-1,1,0.2429,3,-0.017691959,0.3713,20,0,20,0,1,,,,,,,,,,
,,514562,001,2023-07-31_20h49.15.216,arm3_eps,2022.2.5,Win32,59.78715772,61290e83a2d9e168e4392ead,64c7fed44a04f777bb1e18ce,64c8011de90c2231c8a6fb3a,right,-1,1,0.2429,3,-0.002364513,0.4372,21,0,21,0,1,,,,,,,,,,
,,514562,001,2023-07-31_20h49.15.216,arm3_eps,2022.2.5,Win32,59.78715772,61290e83a2d9e168e4392ead,64c7fed44a04f777bb1e18ce,64c8011de90c2231c8a6fb3a,right,-1,1,0.2429,3,-0.013006942,0.3655,22,0,22,0,1,,,,,,,,,,
,,514562,001,2023-07-31_20h49.15.216,arm3_eps,2022.2.5,Win32,59.78715772,61290e83a2d9e168e4392ead,64c7fed44a04f777bb1e18ce,64c8011de90c2231c8a6fb3a,right,-1,1,0.2429,3,0.009125736,0.3504,23,0,23,0,1,,,,,,,,,,
,,514562,001,2023-07-31_20h49.15.216,arm3_eps,2022.2.5,Win32,59.78715772,61290e83a2d9e168e4392ead,64c7fed44a04f777bb1e18ce,64c8011de90c2231c8a6fb3a,right,-1,1,0.2429,3,-0.023923662,0.4185,24,0,24,0,1,,,,,,,,,,
,,514562,001,2023-07-31_20h49.15.216,arm3_eps,2022.2.5,Win32,59.78715772,61290e83a2d9e168e4392ead,64c7fed44a04f777bb1e18ce,64c8011de90c2231c8a6fb3a,right,-1,1,0.2429,3,-0.044865664,0.3694,25,0,25,0,1,,,,,,,,,,
,,514562,001,2023-07-31_20h49.15.216,arm3_eps,2022.2.5,Win32,59.78715772,61290e83a2d9e168e4392ead,64c7fed44a04f777bb1e18ce,64c8011de90c2231c8a6fb3a,right,-1,1,0.2429,3,-0.055506807,0.3178,26,0,26,0,1,,,,,,,,,,
,,514562,001,2023-07-31_20h49.15.216,arm3_eps,2022.2.5,Win32,59.78715772,61290e83a2d9e168e4392ead,64c7fed44a04f777bb1e18ce,64c8011de90c2231c8a6fb3a,right,-1,1,0.2429,3,-0.071418417,0.317,27,0,27,0,1,,,,,,,,,,
,,514562,001,2023-07-31_20h49.15.216,arm3_eps,2022.2.5,Win32,59.78715772,61290e83a2d9e168e4392ead,64c7fed44a04f777bb1e18ce,64c8011de90c2231c8a6fb3a,right,-1,1,0.2429,3,-0.063258445,0.341,28,0,28,0,1,,,,,,,,,,
,,514562,001,2023-07-31_20h49.15.216,arm3_eps,2022.2.5,Win32,59.78715772,61290e83a2d9e168e4392ead,64c7fed44a04f777bb1e18ce,64c8011de90c2231c8a6fb3a,right,-1,1,0.2429,3,-0.052686944,0.3796,29,0,29,0,1,,,,,,,,,,
,,514562,001,2023-07-31_20h49.15.216,arm3_eps,2022.2.5,Win32,59.78715772,61290e83a2d9e168e4392ead,64c7fed44a04f777bb1e18ce,64c8011de90c2231c8a6fb3a,down,-1,1,0.2429,4,0,1.2968,30,0,30,0,1,,,,,,,,,,
,,514562,001,2023-07-31_20h49.15.216,arm3_eps,2022.2.5,Win32,59.78715772,61290e83a2d9e168e4392ead,64c7fed44a04f777bb1e18ce,64c8011de90c2231c8a6fb3a,right,-1,1,0.2429,4,-0.008638177,1.2043,31,0,31,0,1,,,,,,,,,,
,,514562,001,2023-07-31_20h49.15.216,arm3_eps,2022.2.5,Win32,59.78715772,61290e83a2d9e168e4392ead,64c7fed44a04f777bb1e18ce,64c8011de90c2231c8a6fb3a,right,-1,1,0.2429,4,-0.012363927,0.399,32,0,32,0,1,,,,,,,,,,
,,514562,001,2023-07-31_20h49.15.216,arm3_eps,2022.2.5,Win32,59.78715772,61290e83a2d9e168e4392ead,64c7fed44a04f777bb1e18ce,64c8011de90c2231c8a6fb3a,right,-1,1,0.2429,4,-0.005161774,0.4648,33,0,33,0,1,,,,,,,,,,
,,514562,001,2023-07-31_20h49.15.216,arm3_eps,2022.2.5,Win32,59.78715772,61290e83a2d9e168e4392ead,64c7fed44a04f777bb1e18ce,64c8011de90c2231c8a6fb3a,right,-1,1,0.2429,4,-0.005146774,2.5683,34,0,34,0,1,,,,,,,,,,
,,514562,001,2023-07-31_20h49.15.216,arm3_eps,2022.2.5,Win32,59.78715772,61290e83a2d9e168e4392ead,64c7fed44a04f777bb1e18ce,64c8011de90c2231c8a6fb3a,right,-1,1,0.2429,4,-0.000667674,0.338,35,0,35,0,1,,,,,,,,,,
,,514562,001,2023-07-31_20h49.15.216,arm3_eps,2022.2.5,Win32,59.78715772,61290e83a2d9e168e4392ead,64c7fed44a04f777bb1e18ce,64c8011de90c2231c8a6fb3a,right,-1,1,0.2429,4,0.003086369,1.4985,36,0,36,0,1,,,,,,,,,,
,,514562,001,2023-07-31_20h49.15.216,arm3_eps,2022.2.5,Win32,59.78715772,61290e83a2d9e168e4392ead,64c7fed44a04f777bb1e18ce,64c8011de90c2231c8a6fb3a,right,-1,1,0.2429,4,-0.01176158,0.3511,37,0,37,0,1,,,,,,,,,,
,,514562,001,2023-07-31_20h49.15.216,arm3_eps,2022.2.5,Win32,59.78715772,61290e83a2d9e168e4392ead,64c7fed44a04f777bb1e18ce,64c8011de90c2231c8a6fb3a,right,-1,1,0.2429,4,-0.008488465,0.3002,38,0,38,0,1,,,,,,,,,,
,,514562,001,2023-07-31_20h49.15.216,arm3_eps,2022.2.5,Win32,59.78715772,61290e83a2d9e168e4392ead,64c7fed44a04f777bb1e18ce,64c8011de90c2231c8a6fb3a,right,-1,1,0.2429,4,-0.03416091,0.3,39,0,39,0,1,,,,,,,,,,
,,514562,001,2023-07-31_20h49.15.216,arm3_eps,2022.2.5,Win32,59.78715772,61290e83a2d9e168e4392ead,64c7fed44a04f777bb1e18ce,64c8011de90c2231c8a6fb3a,right,-1,1,0.2429,4,-0.056290208,0.299,40,0,40,0,1,,,,,,,,,,
,,514562,001,2023-07-31_20h49.15.216,arm3_eps,2022.2.5,Win32,59.78715772,61290e83a2d9e168e4392ead,64c7fed44a04f777bb1e18ce,64c8011de90c2231c8a6fb3a,right,-1,1,0.2429,4,-0.055251903,0.282,41,0,41,0,1,,,,,,,,,,
,,514562,001,2023-07-31_20h49.15.216,arm3_eps,2022.2.5,Win32,59.78715772,61290e83a2d9e168e4392ead,64c7fed44a04f777bb1e18ce,64c8011de90c2231c8a6fb3a,right,-1,1,0.2429,4,-0.0643404,0.2494,42,0,42,0,1,,,,,,,,,,
,,514562,001,2023-07-31_20h49.15.216,arm3_eps,2022.2.5,Win32,59.78715772,61290e83a2d9e168e4392ead,64c7fed44a04f777bb1e18ce,64c8011de90c2231c8a6fb3a,down,-1,1,0.2429,5,0,5.317,43,0,43,0,1,,,,,,,,,,
,,514562,001,2023-07-31_20h49.15.216,arm3_eps,2022.2.5,Win32,59.78715772,61290e83a2d9e168e4392ead,64c7fed44a04f777bb1e18ce,64c8011de90c2231c8a6fb3a,right,-1,1,0.2429,5,-0.0203522,1.2378,44,0,44,0,1,,,,,,,,,,
,,514562,001,2023-07-31_20h49.15.216,arm3_eps,2022.2.5,Win32,59.78715772,61290e83a2d9e168e4392ead,64c7fed44a04f777bb1e18ce,64c8011de90c2231c8a6fb3a,right,-1,1,0.2429,5,-0.044901783,1.7855,45,0,45,0,1,,,,,,,,,,
,,514562,001,2023-07-31_20h49.15.216,arm3_eps,2022.2.5,Win32,59.78715772,61290e83a2d9e168e4392ead,64c7fed44a04f777bb1e18ce,64c8011de90c2231c8a6fb3a,right,-1,1,0.2429,5,-0.085792699,0.3322,46,0,46,0,1,,,,,,,,,,
,,514562,001,2023-07-31_20h49.15.216,arm3_eps,2022.2.5,Win32,59.78715772,61290e83a2d9e168e4392ead,64c7fed44a04f777bb1e18ce,64c8011de90c2231c8a6fb3a,right,-1,1,0.2429,5,-0.078771242,0.3665,47,0,47,0,1,,,,,,,,,,
,,514562,001,2023-07-31_20h49.15.216,arm3_eps,2022.2.5,Win32,59.78715772,61290e83a2d9e168e4392ead,64c7fed44a04f777bb1e18ce,64c8011de90c2231c8a6fb3a,right,-1,1,0.2429,5,-0.073581239,0.4495,48,0,48,0,1,,,,,,,,,,
,,514562,001,2023-07-31_20h49.15.216,arm3_eps,2022.2.5,Win32,59.78715772,61290e83a2d9e168e4392ead,64c7fed44a04f777bb1e18ce,64c8011de90c2231c8a6fb3a,right,-1,1,0.2429,5,-0.097639849,0.2481,49,0,49,0,1,,,,,,,,,,
space,36.8855,514562,001,2023-07-31_20h49.15.216,arm3_eps,2022.2.5,Win32,59.78715772,61290e83a2d9e168e4392ead,64c7fed44a04f777bb1e18ce,64c8011de90c2231c8a6fb3a,,,,,,,,,,,,,,,,,,,,,,
space,3.3323,514562,001,2023-07-31_20h49.15.216,arm3_eps,2022.2.5,Win32,59.78715772,61290e83a2d9e168e4392ead,64c7fed44a04f777bb1e18ce,64c8011de90c2231c8a6fb3a,,,,,,,,,,,,,,,,,,,,,,
space,2.2935,514562,001,2023-07-31_20h49.15.216,arm3_eps,2022.2.5,Win32,59.78715772,61290e83a2d9e168e4392ead,64c7fed44a04f777bb1e18ce,64c8011de90c2231c8a6fb3a,,,,,,,,,,,,,,,,,,,,,,
space,2.0738,514562,001,2023-07-31_20h49.15.216,arm3_eps,2022.2.5,Win32,59.78715772,61290e83a2d9e168e4392ead,64c7fed44a04f777bb1e18ce,64c8011de90c2231c8a6fb3a,,,,,,,,,,,,,,,,,,,,,,
space,2.1572,514562,001,2023-07-31_20h49.15.216,arm3_eps,2022.2.5,Win32,59.78715772,61290e83a2d9e168e4392ead,64c7fed44a04f777bb1e18ce,64c8011de90c2231c8a6fb3a,,,,,,,,,,,,,,,,,,,,,,
space,2.581,514562,001,2023-07-31_20h49.15.216,arm3_eps,2022.2.5,Win32,59.78715772,61290e83a2d9e168e4392ead,64c7fed44a04f777bb1e18ce,64c8011de90c2231c8a6fb3a,,,,,,,,,,,,,,,,,,,,,,
,,514562,001,2023-07-31_20h49.15.216,arm3_eps,2022.2.5,Win32,59.78715772,61290e83a2d9e168e4392ead,64c7fed44a04f777bb1e18ce,64c8011de90c2231c8a6fb3a,right,-1,0.75,0.2429,0,-0.034327604,1.7877,0,0,0,0,1,,,,,,,,,,
,,514562,001,2023-07-31_20h49.15.216,arm3_eps,2022.2.5,Win32,59.78715772,61290e83a2d9e168e4392ead,64c7fed44a04f777bb1e18ce,64c8011de90c2231c8a6fb3a,right,-1,0.75,0.2429,0,-0.025868019,0.4779,1,0,1,0,1,,,,,,,,,,
,,514562,001,2023-07-31_20h49.15.216,arm3_eps,2022.2.5,Win32,59.78715772,61290e83a2d9e168e4392ead,64c7fed44a04f777bb1e18ce,64c8011de90c2231c8a6fb3a,down,-1,0.75,0.2429,0,0,0.7509,2,0,2,0,1,,,,,,,,,,
,,514562,001,2023-07-31_20h49.15.216,arm3_eps,2022.2.5,Win32,59.78715772,61290e83a2d9e168e4392ead,64c7fed44a04f777bb1e18ce,64c8011de90c2231c8a6fb3a,right,-1,0.75,0.2429,0,-0.012551914,1.9106,3,0,3,0,1,,,,,,,,,,
,,514562,001,2023-07-31_20h49.15.216,arm3_eps,2022.2.5,Win32,59.78715772,61290e83a2d9e168e4392ead,64c7fed44a04f777bb1e18ce,64c8011de90c2231c8a6fb3a,right,-1,0.75,0.2429,0,-0.043217245,0.2951,4,0,4,0,1,,,,,,,,,,
,,514562,001,2023-07-31_20h49.15.216,arm3_eps,2022.2.5,Win32,59.78715772,61290e83a2d9e168e4392ead,64c7fed44a04f777bb1e18ce,64c8011de90c2231c8a6fb3a,right,-1,0.75,0.2429,0,-0.064101642,0.2116,5,0,5,0,1,,,,,,,,,,
,,514562,001,2023-07-31_20h49.15.216,arm3_eps,2022.2.5,Win32,59.78715772,61290e83a2d9e168e4392ead,64c7fed44a04f777bb1e18ce,64c8011de90c2231c8a6fb3a,right,-1,0.75,0.2429,0,-0.099627003,0.1949,6,0,6,0,1,,,,,,,,,,
,,514562,001,2023-07-31_20h49.15.216,arm3_eps,2022.2.5,Win32,59.78715772,61290e83a2d9e168e4392ead,64c7fed44a04f777bb1e18ce,64c8011de90c2231c8a6fb3a,right,-1,0.75,0.2429,0,-0.083776345,0.2133,7,0,7,0,1,,,,,,,,,,
,,514562,001,2023-07-31_20h49.15.216,arm3_eps,2022.2.5,Win32,59.78715772,61290e83a2d9e168e4392ead,64c7fed44a04f777bb1e18ce,64c8011de90c2231c8a6fb3a,right,-1,0.75,0.2429,0,-0.120305628,0.214,8,0,8,0,1,,,,,,,,,,
,,514562,001,2023-07-31_20h49.15.216,arm3_eps,2022.2.5,Win32,59.78715772,61290e83a2d9e168e4392ead,64c7fed44a04f777bb1e18ce,64c8011de90c2231c8a6fb3a,right,-1,0.75,0.2429,0,-0.125493029,0.2319,9,0,9,0,1,,,,,,,,,,
,,514562,001,2023-07-31_20h49.15.216,arm3_eps,2022.2.5,Win32,59.78715772,61290e83a2d9e168e4392ead,64c7fed44a04f777bb1e18ce,64c8011de90c2231c8a6fb3a,right,-1,0.75,0.2429,0,-0.169131123,0.2345,10,0,10,0,1,,,,,,,,,,
,,514562,001,2023-07-31_20h49.15.216,arm3_eps,2022.2.5,Win32,59.78715772,61290e83a2d9e168e4392ead,64c7fed44a04f777bb1e18ce,64c8011de90c2231c8a6fb3a,right,-1,0.75,0.2429,0,-0.193180602,0.2783,11,0,11,0,1,,,,,,,,,,
,,514562,001,2023-07-31_20h49.15.216,arm3_eps,2022.2.5,Win32,59.78715772,61290e83a2d9e168e4392ead,64c7fed44a04f777bb1e18ce,64c8011de90c2231c8a6fb3a,right,-1,0.75,0.2429,0,-0.217110424,0.2445,12,0,12,0,1,,,,,,,,,,
,,514562,001,2023-07-31_20h49.15.216,arm3_eps,2022.2.5,Win32,59.78715772,61290e83a2d9e168e4392ead,64c7fed44a04f777bb1e18ce,64c8011de90c2231c8a6fb3a,right,-1,0.75,0.2429,0,-0.207608205,0.1464,13,0,13,0,1,,,,,,,,,,
,,514562,001,2023-07-31_20h49.15.216,arm3_eps,2022.2.5,Win32,59.78715772,61290e83a2d9e168e4392ead,64c7fed44a04f777bb1e18ce,64c8011de90c2231c8a6fb3a,right,-1,0.75,0.2429,0,-0.18485781,0.2825,14,0,14,0,1,,,,,,,,,,
,,514562,001,2023-07-31_20h49.15.216,arm3_eps,2022.2.5,Win32,59.78715772,61290e83a2d9e168e4392ead,64c7fed44a04f777bb1e18ce,64c8011de90c2231c8a6fb3a,down,1,0.75,0.2429,0,0,1.3022,15,0,15,0,1,,,,,,,,,,
,,514562,001,2023-07-31_20h49.15.216,arm3_eps,2022.2.5,Win32,59.78715772,61290e83a2d9e168e4392ead,64c7fed44a04f777bb1e18ce,64c8011de90c2231c8a6fb3a,up,-1,0.75,0.2429,0,0,3.1979,16,0,16,0,1,,,,,,,,,,
,,514562,001,2023-07-31_20h49.15.216,arm3_eps,2022.2.5,Win32,59.78715772,61290e83a2d9e168e4392ead,64c7fed44a04f777bb1e18ce,64c8011de90c2231c8a6fb3a,right,-1,0.75,0.2429,0,-0.016411957,1.0582,17,0,17,0,1,,,,,,,,,,
,,514562,001,2023-07-31_20h49.15.216,arm3_eps,2022.2.5,Win32,59.78715772,61290e83a2d9e168e4392ead,64c7fed44a04f777bb1e18ce,64c8011de90c2231c8a6fb3a,right,-1,0.75,0.2429,0,-0.041148577,0.2645,18,0,18,0,1,,,,,,,,,,
,,514562,001,2023-07-31_20h49.15.216,arm3_eps,2022.2.5,Win32,59.78715772,61290e83a2d9e168e4392ead,64c7fed44a04f777bb1e18ce,64c8011de90c2231c8a6fb3a,right,-1,0.75,0.2429,0,-0.091934281,0.962,19,0,19,0,1,,,,,,,,,,
,,514562,001,2023-07-31_20h49.15.216,arm3_eps,2022.2.5,Win32,59.78715772,61290e83a2d9e168e4392ead,64c7fed44a04f777bb1e18ce,64c8011de90c2231c8a6fb3a,right,-1,0.75,0.2429,0,-0.098934841,0.1655,20,0,20,0,1,,,,,,,,,,
,,514562,001,2023-07-31_20h49.15.216,arm3_eps,2022.2.5,Win32,59.78715772,61290e83a2d9e168e4392ead,64c7fed44a04f777bb1e18ce,64c8011de90c2231c8a6fb3a,right,-1,0.75,0.2429,0,-0.111684672,0.2138,21,0,21,0,1,,,,,,,,,,
,,514562,001,2023-07-31_20h49.15.216,arm3_eps,2022.2.5,Win32,59.78715772,61290e83a2d9e168e4392ead,64c7fed44a04f777bb1e18ce,64c8011de90c2231c8a6fb3a,right,-1,0.75,0.2429,0,-0.094247355,0.148,22,0,22,0,1,,,,,,,,,,
,,514562,001,2023-07-31_20h49.15.216,arm3_eps,2022.2.5,Win32,59.78715772,61290e83a2d9e168e4392ead,64c7fed44a04f777bb1e18ce,64c8011de90c2231c8a6fb3a,right,-1,0.75,0.2429,0,-0.127121722,0.1953,23,0,23,0,1,,,,,,,,,,
,,514562,001,2023-07-31_20h49.15.216,arm3_eps,2022.2.5,Win32,59.78715772,61290e83a2d9e168e4392ead,64c7fed44a04f777bb1e18ce,64c8011de90c2231c8a6fb3a,right,-1,0.75,0.2429,0,-0.101553256,0.2128,24,0,24,0,1,,,,,,,,,,
,,514562,001,2023-07-31_20h49.15.216,arm3_eps,2022.2.5,Win32,59.78715772,61290e83a2d9e168e4392ead,64c7fed44a04f777bb1e18ce,64c8011de90c2231c8a6fb3a,right,-1,0.75,0.2429,0,-0.080423801,0.1755,25,0,25,0,1,,,,,,,,,,
,,514562,001,2023-07-31_20h49.15.216,arm3_eps,2022.2.5,Win32,59.78715772,61290e83a2d9e168e4392ead,64c7fed44a04f777bb1e18ce,64c8011de90c2231c8a6fb3a,right,-1,0.75,0.2429,0,-0.088151762,0.2113,26,0,26,0,1,,,,,,,,,,
,,514562,001,2023-07-31_20h49.15.216,arm3_eps,2022.2.5,Win32,59.78715772,61290e83a2d9e168e4392ead,64c7fed44a04f777bb1e18ce,64c8011de90c2231c8a6fb3a,right,-1,0.75,0.2429,0,-0.056516701,0.3264,27,0,27,0,1,,,,,,,,,,
,,514562,001,2023-07-31_20h49.15.216,arm3_eps,2022.2.5,Win32,59.78715772,61290e83a2d9e168e4392ead,64c7fed44a04f777bb1e18ce,64c8011de90c2231c8a6fb3a,right,-1,0.75,0.2429,0,-0.079548491,0.345,28,0,28,0,1,,,,,,,,,,
,,514562,001,2023-07-31_20h49.15.216,arm3_eps,2022.2.5,Win32,59.78715772,61290e83a2d9e168e4392ead,64c7fed44a04f777bb1e18ce,64c8011de90c2231c8a6fb3a,down,-1,0.75,0.2429,1,0,2.8769,29,0,29,0,1,,,,,,,,,,
,,514562,001,2023-07-31_20h49.15.216,arm3_eps,2022.2.5,Win32,59.78715772,61290e83a2d9e168e4392ead,64c7fed44a04f777bb1e18ce,64c8011de90c2231c8a6fb3a,right,-1,0.75,0.2429,1,-0.00186621,1.6119,30,0,30,0,1,,,,,,,,,,
,,514562,001,2023-07-31_20h49.15.216,arm3_eps,2022.2.5,Win32,59.78715772,61290e83a2d9e168e4392ead,64c7fed44a04f777bb1e18ce,64c8011de90c2231c8a6fb3a,right,-1,0.75,0.2429,1,-0.009556707,0.2503,31,0,31,0,1,,,,,,,,,,
,,514562,001,2023-07-31_20h49.15.216,arm3_eps,2022.2.5,Win32,59.78715772,61290e83a2d9e168e4392ead,64c7fed44a04f777bb1e18ce,64c8011de90c2231c8a6fb3a,right,-1,0.75,0.2429,1,0.003171732,0.216,32,0,32,0,1,,,,,,,,,,
,,514562,001,2023-07-31_20h49.15.216,arm3_eps,2022.2.5,Win32,59.78715772,61290e83a2d9e168e4392ead,64c7fed44a04f777bb1e18ce,64c8011de90c2231c8a6fb3a,right,-1,0.75,0.2429,1,0.004763024,0.2474,33,0,33,0,1,,,,,,,,,,
,,514562,001,2023-07-31_20h49.15.216,arm3_eps,2022.2.5,Win32,59.78715772,61290e83a2d9e168e4392ead,64c7fed44a04f777bb1e18ce,64c8011de90c2231c8a6fb3a,right,-1,0.75,0.2429,1,0.008876809,0.195,34,0,34,0,1,,,,,,,,,,
,,514562,001,2023-07-31_20h49.15.216,arm3_eps,2022.2.5,Win32,59.78715772,61290e83a2d9e168e4392ead,64c7fed44a04f777bb1e18ce,64c8011de90c2231c8a6fb3a,right,-1,0.75,0.2429,1,0.027784569,0.2146,35,0,35,0,1,,,,,,,,,,
,,514562,001,2023-07-31_20h49.15.216,arm3_eps,2022.2.5,Win32,59.78715772,61290e83a2d9e168e4392ead,64c7fed44a04f777bb1e18ce,64c8011de90c2231c8a6fb3a,right,-1,0.75,0.2429,1,0.043989938,0.1811,36,0,36,0,1,,,,,,,,,,
,,514562,001,2023-07-31_20h49.15.216,arm3_eps,2022.2.5,Win32,59.78715772,61290e83a2d9e168e4392ead,64c7fed44a04f777bb1e18ce,64c8011de90c2231c8a6fb3a,right,-1,0.75,0.2429,1,-0.004857227,0.3132,37,0,37,0,1,,,,,,,,,,
,,514562,001,2023-07-31_20h49.15.216,arm3_eps,2022.2.5,Win32,59.78715772,61290e83a2d9e168e4392ead,64c7fed44a04f777bb1e18ce,64c8011de90c2231c8a6fb3a,right,-1,0.75,0.2429,1,-0.014191363,0.1966,38,0,38,0,1,,,,,,,,,,
,,514562,001,2023-07-31_20h49.15.216,arm3_eps,2022.2.5,Win32,59.78715772,61290e83a2d9e168e4392ead,64c7fed44a04f777bb1e18ce,64c8011de90c2231c8a6fb3a,right,-1,0.75,0.2429,1,-0.017064444,0.1845,39,0,39,0,1,,,,,,,,,,
,,514562,001,2023-07-31_20h49.15.216,arm3_eps,2022.2.5,Win32,59.78715772,61290e83a2d9e168e4392ead,64c7fed44a04f777bb1e18ce,64c8011de90c2231c8a6fb3a,right,-1,0.75,0.2429,1,-0.009239159,0.2462,40,0,40,0,1,,,,,,,,,,
,,514562,001,2023-07-31_20h49.15.216,arm3_eps,2022.2.5,Win32,59.78715772,61290e83a2d9e168e4392ead,64c7fed44a04f777bb1e18ce,64c8011de90c2231c8a6fb3a,right,-1,0.75,0.2429,1,-0.022157842,0.2312,41,0,41,0,1,,,,,,,,,,
,,514562,001,2023-07-31_20h49.15.216,arm3_eps,2022.2.5,Win32,59.78715772,61290e83a2d9e168e4392ead,64c7fed44a04f777bb1e18ce,64c8011de90c2231c8a6fb3a,down,-1,0.75,0.2429,2,0,2.0923,42,0,42,0,1,,,,,,,,,,
,,514562,001,2023-07-31_20h49.15.216,arm3_eps,2022.2.5,Win32,59.78715772,61290e83a2d9e168e4392ead,64c7fed44a04f777bb1e18ce,64c8011de90c2231c8a6fb3a,right,-1,0.75,0.2429,2,-0.036259648,1.1156,43,0,43,0,1,,,,,,,,,,
,,514562,001,2023-07-31_20h49.15.216,arm3_eps,2022.2.5,Win32,59.78715772,61290e83a2d9e168e4392ead,64c7fed44a04f777bb1e18ce,64c8011de90c2231c8a6fb3a,right,-1,0.75,0.2429,2,-0.039703775,0.2309,44,0,44,0,1,,,,,,,,,,
,,514562,001,2023-07-31_20h49.15.216,arm3_eps,2022.2.5,Win32,59.78715772,61290e83a2d9e168e4392ead,64c7fed44a04f777bb1e18ce,64c8011de90c2231c8a6fb3a,right,-1,0.75,0.2429,2,-0.053673148,0.2015,45,0,45,0,1,,,,,,,,,,
,,514562,001,2023-07-31_20h49.15.216,arm3_eps,2022.2.5,Win32,59.78715772,61290e83a2d9e168e4392ead,64c7fed44a04f777bb1e18ce,64c8011de90c2231c8a6fb3a,right,-1,0.75,0.2429,2,-0.090886279,0.2837,46,0,46,0,1,,,,,,,,,,
,,514562,001,2023-07-31_20h49.15.216,arm3_eps,2022.2.5,Win32,59.78715772,61290e83a2d9e168e4392ead,64c7fed44a04f777bb1e18ce,64c8011de90c2231c8a6fb3a,right,-1,0.75,0.2429,2,-0.09759644,0.2553,47,0,47,0,1,,,,,,,,,,
,,514562,001,2023-07-31_20h49.15.216,arm3_eps,2022.2.5,Win32,59.78715772,61290e83a2d9e168e4392ead,64c7fed44a04f777bb1e18ce,64c8011de90c2231c8a6fb3a,right,-1,0.75,0.2429,2,-0.1406624,0.2132,48,0,48,0,1,,,,,,,,,,
,,514562,001,2023-07-31_20h49.15.216,arm3_eps,2022.2.5,Win32,59.78715772,61290e83a2d9e168e4392ead,64c7fed44a04f777bb1e18ce,64c8011de90c2231c8a6fb3a,right,-1,0.75,0.2429,2,-0.159367879,0.2159,49,0,49,0,1,,,,,,,,,,
space,5.769,514562,001,2023-07-31_20h49.15.216,arm3_eps,2022.2.5,Win32,59.78715772,61290e83a2d9e168e4392ead,64c7fed44a04f777bb1e18ce,64c8011de90c2231c8a6fb3a,,,,,,,,,,,,,,,,,,,,,,
space,4.9582,514562,001,2023-07-31_20h49.15.216,arm3_eps,2022.2.5,Win32,59.78715772,61290e83a2d9e168e4392ead,64c7fed44a04f777bb1e18ce,64c8011de90c2231c8a6fb3a,,,,,,,,,,,,,,,,,,,,,,
space,0.8501,514562,001,2023-07-31_20h49.15.216,arm3_eps,2022.2.5,Win32,59.78715772,61290e83a2d9e168e4392ead,64c7fed44a04f777bb1e18ce,64c8011de90c2231c8a6fb3a,,,,,,,,,,,,,,,,,,,,,,
,,514562,001,2023-07-31_20h49.15.216,arm3_eps,2022.2.5,Win32,59.78715772,61290e83a2d9e168e4392ead,64c7fed44a04f777bb1e18ce,64c8011de90c2231c8a6fb3a,right,-1,0.75,0.05,0,0.005812919,0.5142,0,0,0,0,1,,,,,,,,,,
,,514562,001,2023-07-31_20h49.15.216,arm3_eps,2022.2.5,Win32,59.78715772,61290e83a2d9e168e4392ead,64c7fed44a04f777bb1e18ce,64c8011de90c2231c8a6fb3a,right,-1,0.75,0.05,0,-0.014018176,0.5331,1,0,1,0,1,,,,,,,,,,
,,514562,001,2023-07-31_20h49.15.216,arm3_eps,2022.2.5,Win32,59.78715772,61290e83a2d9e168e4392ead,64c7fed44a04f777bb1e18ce,64c8011de90c2231c8a6fb3a,right,-1,0.75,0.05,0,-0.004661148,0.2837,2,0,2,0,1,,,,,,,,,,
,,514562,001,2023-07-31_20h49.15.216,arm3_eps,2022.2.5,Win32,59.78715772,61290e83a2d9e168e4392ead,64c7fed44a04f777bb1e18ce,64c8011de90c2231c8a6fb3a,right,-1,0.75,0.05,0,-0.018680565,0.2495,3,0,3,0,1,,,,,,,,,,
,,514562,001,2023-07-31_20h49.15.216,arm3_eps,2022.2.5,Win32,59.78715772,61290e83a2d9e168e4392ead,64c7fed44a04f777bb1e18ce,64c8011de90c2231c8a6fb3a,right,-1,0.75,0.05,0,-0.008358296,0.2188,4,0,4,0,1,,,,,,,,,,
,,514562,001,2023-07-31_20h49.15.216,arm3_eps,2022.2.5,Win32,59.78715772,61290e83a2d9e168e4392ead,64c7fed44a04f777bb1e18ce,64c8011de90c2231c8a6fb3a,right,-1,0.75,0.05,0,-0.000142515,0.25,5,0,5,0,1,,,,,,,,,,
,,514562,001,2023-07-31_20h49.15.216,arm3_eps,2022.2.5,Win32,59.78715772,61290e83a2d9e168e4392ead,64c7fed44a04f777bb1e18ce,64c8011de90c2231c8a6fb3a,right,-1,0.75,0.05,0,-0.00310657,0.2348,6,0,6,0,1,,,,,,,,,,
,,514562,001,2023-07-31_20h49.15.216,arm3_eps,2022.2.5,Win32,59.78715772,61290e83a2d9e168e4392ead,64c7fed44a04f777bb1e18ce,64c8011de90c2231c8a6fb3a,right,-1,0.75,0.05,0,0.013718727,0.3653,7,0,7,0,1,,,,,,,,,,
,,514562,001,2023-07-31_20h49.15.216,arm3_eps,2022.2.5,Win32,59.78715772,61290e83a2d9e168e4392ead,64c7fed44a04f777bb1e18ce,64c8011de90c2231c8a6fb3a,right,-1,0.75,0.05,0,0.018037167,0.2524,8,0,8,0,1,,,,,,,,,,
,,514562,001,2023-07-31_20h49.15.216,arm3_eps,2022.2.5,Win32,59.78715772,61290e83a2d9e168e4392ead,64c7fed44a04f777bb1e18ce,64c8011de90c2231c8a6fb3a,right,-1,0.75,0.05,0,0.003603298,0.2547,9,0,9,0,1,,,,,,,,,,
,,514562,001,2023-07-31_20h49.15.216,arm3_eps,2022.2.5,Win32,59.78715772,61290e83a2d9e168e4392ead,64c7fed44a04f777bb1e18ce,64c8011de90c2231c8a6fb3a,right,-1,0.75,0.05,0,-0.014692634,0.2637,10,0,10,0,1,,,,,,,,,,
,,514562,001,2023-07-31_20h49.15.216,arm3_eps,2022.2.5,Win32,59.78715772,61290e83a2d9e168e4392ead,64c7fed44a04f777bb1e18ce,64c8011de90c2231c8a6fb3a,right,-1,0.75,0.05,0,-0.031404061,0.3269,11,0,11,0,1,,,,,,,,,,
,,514562,001,2023-07-31_20h49.15.216,arm3_eps,2022.2.5,Win32,59.78715772,61290e83a2d9e168e4392ead,64c7fed44a04f777bb1e18ce,64c8011de90c2231c8a6fb3a,down,-1,0.75,0.05,0,0,1.2605,12,0,12,0,1,,,,,,,,,,
,,514562,001,2023-07-31_20h49.15.216,arm3_eps,2022.2.5,Win32,59.78715772,61290e83a2d9e168e4392ead,64c7fed44a04f777bb1e18ce,64c8011de90c2231c8a6fb3a,right,-1,0.75,0.05,0,-0.008597439,1.4523,13,0,13,0,1,,,,,,,,,,
,,514562,001,2023-07-31_20h49.15.216,arm3_eps,2022.2.5,Win32,59.78715772,61290e83a2d9e168e4392ead,64c7fed44a04f777bb1e18ce,64c8011de90c2231c8a6fb3a,right,-1,0.75,0.05,0,-0.025264654,0.3637,14,0,14,0,1,,,,,,,,,,
,,514562,001,2023-07-31_20h49.15.216,arm3_eps,2022.2.5,Win32,59.78715772,61290e83a2d9e168e4392ead,64c7fed44a04f777bb1e18ce,64c8011de90c2231c8a6fb3a,right,-1,0.75,0.05,0,-0.054129792,0.2276,15,0,15,0,1,,,,,,,,,,
,,514562,001,2023-07-31_20h49.15.216,arm3_eps,2022.2.5,Win32,59.78715772,61290e83a2d9e168e4392ead,64c7fed44a04f777bb1e18ce,64c8011de90c2231c8a6fb3a,right,-1,0.75,0.05,0,-0.069727895,0.2127,16,0,16,0,1,,,,,,,,,,
,,514562,001,2023-07-31_20h49.15.216,arm3_eps,2022.2.5,Win32,59.78715772,61290e83a2d9e168e4392ead,64c7fed44a04f777bb1e18ce,64c8011de90c2231c8a6fb3a,right,-1,0.75,0.05,0,-0.083950405,0.1711,17,0,17,0,1,,,,,,,,,,
,,514562,001,2023-07-31_20h49.15.216,arm3_eps,2022.2.5,Win32,59.78715772,61290e83a2d9e168e4392ead,64c7fed44a04f777bb1e18ce,64c8011de90c2231c8a6fb3a,right,-1,0.75,0.05,0,-0.088272285,0.2445,18,0,18,0,1,,,,,,,,,,
,,514562,001,2023-07-31_20h49.15.216,arm3_eps,2022.2.5,Win32,59.78715772,61290e83a2d9e168e4392ead,64c7fed44a04f777bb1e18ce,64c8011de90c2231c8a6fb3a,right,-1,0.75,0.05,0,-0.070760957,0.227,19,0,19,0,1,,,,,,,,,,
,,514562,001,2023-07-31_20h49.15.216,arm3_eps,2022.2.5,Win32,59.78715772,61290e83a2d9e168e4392ead,64c7fed44a04f777bb1e18ce,64c8011de90c2231c8a6fb3a,right,-1,0.75,0.05,0,-0.093041797,0.2133,20,0,20,0,1,,,,,,,,,,
,,514562,001,2023-07-31_20h49.15.216,arm3_eps,2022.2.5,Win32,59.78715772,61290e83a2d9e168e4392ead,64c7fed44a04f777bb1e18ce,64c8011de90c2231c8a6fb3a,right,-1,0.75,0.05,0,-0.118592239,0.3786,21,0,21,0,1,,,,,,,,,,
,,514562,001,2023-07-31_20h49.15.216,arm3_eps,2022.2.5,Win32,59.78715772,61290e83a2d9e168e4392ead,64c7fed44a04f777bb1e18ce,64c8011de90c2231c8a6fb3a,right,-1,0.75,0.05,0,-0.128560816,0.2495,22,0,22,0,1,,,,,,,,,,
,,514562,001,2023-07-31_20h49.15.216,arm3_eps,2022.2.5,Win32,59.78715772,61290e83a2d9e168e4392ead,64c7fed44a04f777bb1e18ce,64c8011de90c2231c8a6fb3a,right,-1,0.75,0.05,0,-0.120612337,0.2945,23,0,23,0,1,,,,,,,,,,
,,514562,001,2023-07-31_20h49.15.216,arm3_eps,2022.2.5,Win32,59.78715772,61290e83a2d9e168e4392ead,64c7fed44a04f777bb1e18ce,64c8011de90c2231c8a6fb3a,right,-1,0.75,0.05,0,-0.167190748,0.4119,24,0,24,0,1,,,,,,,,,,
,,514562,001,2023-07-31_20h49.15.216,arm3_eps,2022.2.5,Win32,59.78715772,61290e83a2d9e168e4392ead,64c7fed44a04f777bb1e18ce,64c8011de90c2231c8a6fb3a,down,-1,0.75,0.05,1,0,20.9143,25,0,25,0,1,,,,,,,,,,
,,514562,001,2023-07-31_20h49.15.216,arm3_eps,2022.2.5,Win32,59.78715772,61290e83a2d9e168e4392ead,64c7fed44a04f777bb1e18ce,64c8011de90c2231c8a6fb3a,right,-1,0.75,0.05,1,0.003047391,1.3315,26,0,26,0,1,,,,,,,,,,
,,514562,001,2023-07-31_20h49.15.216,arm3_eps,2022.2.5,Win32,59.78715772,61290e83a2d9e168e4392ead,64c7fed44a04f777bb1e18ce,64c8011de90c2231c8a6fb3a,right,-1,0.75,0.05,1,0.004248019,1.0515,27,0,27,0,1,,,,,,,,,,
,,514562,001,2023-07-31_20h49.15.216,arm3_eps,2022.2.5,Win32,59.78715772,61290e83a2d9e168e4392ead,64c7fed44a04f777bb1e18ce,64c8011de90c2231c8a6fb3a,right,-1,0.75,0.05,1,-0.0248429,0.1824,28,0,28,0,1,,,,,,,,,,
,,514562,001,2023-07-31_20h49.15.216,arm3_eps,2022.2.5,Win32,59.78715772,61290e83a2d9e168e4392ead,64c7fed44a04f777bb1e18ce,64c8011de90c2231c8a6fb3a,right,-1,0.75,0.05,1,-0.056881172,0.2025,29,0,29,0,1,,,,,,,,,,
,,514562,001,2023-07-31_20h49.15.216,arm3_eps,2022.2.5,Win32,59.78715772,61290e83a2d9e168e4392ead,64c7fed44a04f777bb1e18ce,64c8011de90c2231c8a6fb3a,right,-1,0.75,0.05,1,-0.050912801,0.1853,30,0,30,0,1,,,,,,,,,,
,,514562,001,2023-07-31_20h49.15.216,arm3_eps,2022.2.5,Win32,59.78715772,61290e83a2d9e168e4392ead,64c7fed44a04f777bb1e18ce,64c8011de90c2231c8a6fb3a,right,-1,0.75,0.05,1,-0.065512434,0.1673,31,0,31,0,1,,,,,,,,,,
,,514562,001,2023-07-31_20h49.15.216,arm3_eps,2022.2.5,Win32,59.78715772,61290e83a2d9e168e4392ead,64c7fed44a04f777bb1e18ce,64c8011de90c2231c8a6fb3a,right,-1,0.75,0.05,1,-0.052477745,0.1666,32,0,32,0,1,,,,,,,,,,
,,514562,001,2023-07-31_20h49.15.216,arm3_eps,2022.2.5,Win32,59.78715772,61290e83a2d9e168e4392ead,64c7fed44a04f777bb1e18ce,64c8011de90c2231c8a6fb3a,right,-1,0.75,0.05,1,-0.056048259,0.1836,33,0,33,0,1,,,,,,,,,,
,,514562,001,2023-07-31_20h49.15.216,arm3_eps,2022.2.5,Win32,59.78715772,61290e83a2d9e168e4392ead,64c7fed44a04f777bb1e18ce,64c8011de90c2231c8a6fb3a,right,-1,0.75,0.05,1,-0.065815245,0.1497,34,0,34,0,1,,,,,,,,,,
,,514562,001,2023-07-31_20h49.15.216,arm3_eps,2022.2.5,Win32,59.78715772,61290e83a2d9e168e4392ead,64c7fed44a04f777bb1e18ce,64c8011de90c2231c8a6fb3a,right,-1,0.75,0.05,1,-0.080059587,0.217,35,0,35,0,1,,,,,,,,,,
,,514562,001,2023-07-31_20h49.15.216,arm3_eps,2022.2.5,Win32,59.78715772,61290e83a2d9e168e4392ead,64c7fed44a04f777bb1e18ce,64c8011de90c2231c8a6fb3a,right,-1,0.75,0.05,1,-0.120885778,0.2166,36,0,36,0,1,,,,,,,,,,
,,514562,001,2023-07-31_20h49.15.216,arm3_eps,2022.2.5,Win32,59.78715772,61290e83a2d9e168e4392ead,64c7fed44a04f777bb1e18ce,64c8011de90c2231c8a6fb3a,right,-1,0.75,0.05,1,-0.125053766,0.1678,37,0,37,0,1,,,,,,,,,,
,,514562,001,2023-07-31_20h49.15.216,arm3_eps,2022.2.5,Win32,59.78715772,61290e83a2d9e168e4392ead,64c7fed44a04f777bb1e18ce,64c8011de90c2231c8a6fb3a,up,-1,0.75,0.05,1,0,1.2839,38,0,38,0,1,,,,,,,,,,
,,514562,001,2023-07-31_20h49.15.216,arm3_eps,2022.2.5,Win32,59.78715772,61290e83a2d9e168e4392ead,64c7fed44a04f777bb1e18ce,64c8011de90c2231c8a6fb3a,right,-1,0.75,0.05,1,0.015293221,3.0116,39,0,39,0,1,,,,,,,,,,
,,514562,001,2023-07-31_20h49.15.216,arm3_eps,2022.2.5,Win32,59.78715772,61290e83a2d9e168e4392ead,64c7fed44a04f777bb1e18ce,64c8011de90c2231c8a6fb3a,right,-1,0.75,0.05,1,-0.010451695,0.1946,40,0,40,0,1,,,,,,,,,,
,,514562,001,2023-07-31_20h49.15.216,arm3_eps,2022.2.5,Win32,59.78715772,61290e83a2d9e168e4392ead,64c7fed44a04f777bb1e18ce,64c8011de90c2231c8a6fb3a,right,-1,0.75,0.05,1,-0.004502397,0.4605,41,0,41,0,1,,,,,,,,,,
,,514562,001,2023-07-31_20h49.15.216,arm3_eps,2022.2.5,Win32,59.78715772,61290e83a2d9e168e4392ead,64c7fed44a04f777bb1e18ce,64c8011de90c2231c8a6fb3a,right,-1,0.75,0.05,1,-0.021260129,0.1783,42,0,42,0,1,,,,,,,,,,
,,514562,001,2023-07-31_20h49.15.216,arm3_eps,2022.2.5,Win32,59.78715772,61290e83a2d9e168e4392ead,64c7fed44a04f777bb1e18ce,64c8011de90c2231c8a6fb3a,right,-1,0.75,0.05,1,-0.034391982,0.1908,43,0,43,0,1,,,,,,,,,,
,,514562,001,2023-07-31_20h49.15.216,arm3_eps,2022.2.5,Win32,59.78715772,61290e83a2d9e168e4392ead,64c7fed44a04f777bb1e18ce,64c8011de90c2231c8a6fb3a,right,-1,0.75,0.05,1,-0.031843012,0.2274,44,0,44,0,1,,,,,,,,,,
,,514562,001,2023-07-31_20h49.15.216,arm3_eps,2022.2.5,Win32,59.78715772,61290e83a2d9e168e4392ead,64c7fed44a04f777bb1e18ce,64c8011de90c2231c8a6fb3a,right,-1,0.75,0.05,1,-0.026706962,0.2183,45,0,45,0,1,,,,,,,,,,
,,514562,001,2023-07-31_20h49.15.216,arm3_eps,2022.2.5,Win32,59.78715772,61290e83a2d9e168e4392ead,64c7fed44a04f777bb1e18ce,64c8011de90c2231c8a6fb3a,right,-1,0.75,0.05,1,-0.014262884,0.214,46,0,46,0,1,,,,,,,,,,
,,514562,001,2023-07-31_20h49.15.216,arm3_eps,2022.2.5,Win32,59.78715772,61290e83a2d9e168e4392ead,64c7fed44a04f777bb1e18ce,64c8011de90c2231c8a6fb3a,right,-1,0.75,0.05,1,-0.022138245,0.1815,47,0,47,0,1,,,,,,,,,,
,,514562,001,2023-07-31_20h49.15.216,arm3_eps,2022.2.5,Win32,59.78715772,61290e83a2d9e168e4392ead,64c7fed44a04f777bb1e18ce,64c8011de90c2231c8a6fb3a,right,-1,0.75,0.05,1,-0.037921458,0.2163,48,0,48,0,1,,,,,,,,,,
,,514562,001,2023-07-31_20h49.15.216,arm3_eps,2022.2.5,Win32,59.78715772,61290e83a2d9e168e4392ead,64c7fed44a04f777bb1e18ce,64c8011de90c2231c8a6fb3a,right,-1,0.75,0.05,1,-0.044781986,0.2134,49,0,49,0,1,,,,,,,,,,
space,1.6369,514562,001,2023-07-31_20h49.15.216,arm3_eps,2022.2.5,Win32,59.78715772,61290e83a2d9e168e4392ead,64c7fed44a04f777bb1e18ce,64c8011de90c2231c8a6fb3a,,,,,,,,,,,,,,,,,,,,,,
space,10.1633,514562,001,2023-07-31_20h49.15.216,arm3_eps,2022.2.5,Win32,59.78715772,61290e83a2d9e168e4392ead,64c7fed44a04f777bb1e18ce,64c8011de90c2231c8a6fb3a,,,,,,,,,,,,,,,,,,,,,,
,,514562,001,2023-07-31_20h49.15.216,arm3_eps,2022.2.5,Win32,59.78715772,61290e83a2d9e168e4392ead,64c7fed44a04f777bb1e18ce,64c8011de90c2231c8a6fb3a,right,-1,0.75,0.5,0,0.011499618,1.1307,0,0,0,0,1,,,,,,,,,,
,,514562,001,2023-07-31_20h49.15.216,arm3_eps,2022.2.5,Win32,59.78715772,61290e83a2d9e168e4392ead,64c7fed44a04f777bb1e18ce,64c8011de90c2231c8a6fb3a,right,-1,0.75,0.5,0,0.02020525,0.213,1,0,1,0,1,,,,,,,,,,
,,514562,001,2023-07-31_20h49.15.216,arm3_eps,2022.2.5,Win32,59.78715772,61290e83a2d9e168e4392ead,64c7fed44a04f777bb1e18ce,64c8011de90c2231c8a6fb3a,right,-1,0.75,0.5,0,-0.024296832,0.1649,2,0,2,0,1,,,,,,,,,,
,,514562,001,2023-07-31_20h49.15.216,arm3_eps,2022.2.5,Win32,59.78715772,61290e83a2d9e168e4392ead,64c7fed44a04f777bb1e18ce,64c8011de90c2231c8a6fb3a,right,-1,0.75,0.5,0,-0.019574079,0.1841,3,0,3,0,1,,,,,,,,,,
,,514562,001,2023-07-31_20h49.15.216,arm3_eps,2022.2.5,Win32,59.78715772,61290e83a2d9e168e4392ead,64c7fed44a04f777bb1e18ce,64c8011de90c2231c8a6fb3a,right,-1,0.75,0.5,0,-0.009199752,0.1842,4,0,4,0,1,,,,,,,,,,
,,514562,001,2023-07-31_20h49.15.216,arm3_eps,2022.2.5,Win32,59.78715772,61290e83a2d9e168e4392ead,64c7fed44a04f777bb1e18ce,64c8011de90c2231c8a6fb3a,right,-1,0.75,0.5,0,-0.010103947,0.2278,5,0,5,0,1,,,,,,,,,,
,,514562,001,2023-07-31_20h49.15.216,arm3_eps,2022.2.5,Win32,59.78715772,61290e83a2d9e168e4392ead,64c7fed44a04f777bb1e18ce,64c8011de90c2231c8a6fb3a,right,-1,0.75,0.5,0,-0.042282169,0.2331,6,0,6,0,1,,,,,,,,,,
,,514562,001,2023-07-31_20h49.15.216,arm3_eps,2022.2.5,Win32,59.78715772,61290e83a2d9e168e4392ead,64c7fed44a04f777bb1e18ce,64c8011de90c2231c8a6fb3a,right,-1,0.75,0.5,0,-0.048255515,0.1795,7,0,7,0,1,,,,,,,,,,
,,514562,001,2023-07-31_20h49.15.216,arm3_eps,2022.2.5,Win32,59.78715772,61290e83a2d9e168e4392ead,64c7fed44a04f777bb1e18ce,64c8011de90c2231c8a6fb3a,right,-1,0.75,0.5,0,-0.048751902,0.2357,8,0,8,0,1,,,,,,,,,,
,,514562,001,2023-07-31_20h49.15.216,arm3_eps,2022.2.5,Win32,59.78715772,61290e83a2d9e168e4392ead,64c7fed44a04f777bb1e18ce,64c8011de90c2231c8a6fb3a,right,-1,0.75,0.5,0,-0.031496808,0.2118,9,0,9,0,1,,,,,,,,,,
,,514562,001,2023-07-31_20h49.15.216,arm3_eps,2022.2.5,Win32,59.78715772,61290e83a2d9e168e4392ead,64c7fed44a04f777bb1e18ce,64c8011de90c2231c8a6fb3a,right,-1,0.75,0.5,0,-0.040806455,0.1782,10,0,10,0,1,,,,,,,,,,
,,514562,001,2023-07-31_20h49.15.216,arm3_eps,2022.2.5,Win32,59.78715772,61290e83a2d9e168e4392ead,64c7fed44a04f777bb1e18ce,64c8011de90c2231c8a6fb3a,right,-1,0.75,0.5,0,-0.069077232,0.1958,11,0,11,0,1,,,,,,,,,,
,,514562,001,2023-07-31_20h49.15.216,arm3_eps,2022.2.5,Win32,59.78715772,61290e83a2d9e168e4392ead,64c7fed44a04f777bb1e18ce,64c8011de90c2231c8a6fb3a,down,-1,0.75,0.5,1,0,1.0174,12,0,12,0,1,,,,,,,,,,
,,514562,001,2023-07-31_20h49.15.216,arm3_eps,2022.2.5,Win32,59.78715772,61290e83a2d9e168e4392ead,64c7fed44a04f777bb1e18ce,64c8011de90c2231c8a6fb3a,right,-1,0.75,0.5,1,-0.03530071,1.0556,13,0,13,0,1,,,,,,,,,,
,,514562,001,2023-07-31_20h49.15.216,arm3_eps,2022.2.5,Win32,59.78715772,61290e83a2d9e168e4392ead,64c7fed44a04f777bb1e18ce,64c8011de90c2231c8a6fb3a,right,-1,0.75,0.5,1,-0.077977929,0.1839,14,0,14,0,1,,,,,,,,,,
,,514562,001,2023-07-31_20h49.15.216,arm3_eps,2022.2.5,Win32,59.78715772,61290e83a2d9e168e4392ead,64c7fed44a04f777bb1e18ce,64c8011de90c2231c8a6fb3a,right,-1,0.75,0.5,1,-0.101749092,0.1491,15,0,15,0,1,,,,,,,,,,
,,514562,001,2023-07-31_20h49.15.216,arm3_eps,2022.2.5,Win32,59.78715772,61290e83a2d9e168e4392ead,64c7fed44a04f777bb1e18ce,64c8011de90c2231c8a6fb3a,right,-1,0.75,0.5,1,-0.128180634,0.1621,16,0,16,0,1,,,,,,,,,,
,,514562,001,2023-07-31_20h49.15.216,arm3_eps,2022.2.5,Win32,59.78715772,61290e83a2d9e168e4392ead,64c7fed44a04f777bb1e18ce,64c8011de90c2231c8a6fb3a,right,-1,0.75,0.5,1,-0.128411235,0.1681,17,0,17,0,1,,,,,,,,,,
,,514562,001,2023-07-31_20h49.15.216,arm3_eps,2022.2.5,Win32,59.78715772,61290e83a2d9e168e4392ead,64c7fed44a04f777bb1e18ce,64c8011de90c2231c8a6fb3a,right,-1,0.75,0.5,1,-0.134433497,0.1622,18,0,18,0,1,,,,,,,,,,
,,514562,001,2023-07-31_20h49.15.216,arm3_eps,2022.2.5,Win32,59.78715772,61290e83a2d9e168e4392ead,64c7fed44a04f777bb1e18ce,64c8011de90c2231c8a6fb3a,right,-1,0.75,0.5,1,-0.165751385,0.1831,19,0,19,0,1,,,,,,,,,,
,,514562,001,2023-07-31_20h49.15.216,arm3_eps,2022.2.5,Win32,59.78715772,61290e83a2d9e168e4392ead,64c7fed44a04f777bb1e18ce,64c8011de90c2231c8a6fb3a,right,-1,0.75,0.5,1,-0.167528031,0.1667,20,0,20,0,1,,,,,,,,,,
,,514562,001,2023-07-31_20h49.15.216,arm3_eps,2022.2.5,Win32,59.78715772,61290e83a2d9e168e4392ead,64c7fed44a04f777bb1e18ce,64c8011de90c2231c8a6fb3a,right,-1,0.75,0.5,1,-0.211492138,0.1951,21,0,21,0,1,,,,,,,,,,
,,514562,001,2023-07-31_20h49.15.216,arm3_eps,2022.2.5,Win32,59.78715772,61290e83a2d9e168e4392ead,64c7fed44a04f777bb1e18ce,64c8011de90c2231c8a6fb3a,right,-1,0.75,0.5,1,-0.217528832,0.1663,22,0,22,0,1,,,,,,,,,,
,,514562,001,2023-07-31_20h49.15.216,arm3_eps,2022.2.5,Win32,59.78715772,61290e83a2d9e168e4392ead,64c7fed44a04f777bb1e18ce,64c8011de90c2231c8a6fb3a,right,-1,0.75,0.5,1,-0.213194279,0.1855,23,0,23,0,1,,,,,,,,,,
,,514562,001,2023-07-31_20h49.15.216,arm3_eps,2022.2.5,Win32,59.78715772,61290e83a2d9e168e4392ead,64c7fed44a04f777bb1e18ce,64c8011de90c2231c8a6fb3a,right,-1,0.75,0.5,1,-0.22654578,0.179,24,0,24,0,1,,,,,,,,,,
,,514562,001,2023-07-31_20h49.15.216,arm3_eps,2022.2.5,Win32,59.78715772,61290e83a2d9e168e4392ead,64c7fed44a04f777bb1e18ce,64c8011de90c2231c8a6fb3a,down,-1,0.75,0.5,1,0,1.2608,25,0,25,0,1,,,,,,,,,,
,,514562,001,2023-07-31_20h49.15.216,arm3_eps,2022.2.5,Win32,59.78715772,61290e83a2d9e168e4392ead,64c7fed44a04f777bb1e18ce,64c8011de90c2231c8a6fb3a,right,-1,0.75,0.5,1,-0.007819501,0.9722,26,0,26,0,1,,,,,,,,,,
,,514562,001,2023-07-31_20h49.15.216,arm3_eps,2022.2.5,Win32,59.78715772,61290e83a2d9e168e4392ead,64c7fed44a04f777bb1e18ce,64c8011de90c2231c8a6fb3a,right,-1,0.75,0.5,1,-0.001826688,0.1673,27,0,27,0,1,,,,,,,,,,
,,514562,001,2023-07-31_20h49.15.216,arm3_eps,2022.2.5,Win32,59.78715772,61290e83a2d9e168e4392ead,64c7fed44a04f777bb1e18ce,64c8011de90c2231c8a6fb3a,right,-1,0.75,0.5,1,-0.017553221,0.1513,28,0,28,0,1,,,,,,,,,,
,,514562,001,2023-07-31_20h49.15.216,arm3_eps,2022.2.5,Win32,59.78715772,61290e83a2d9e168e4392ead,64c7fed44a04f777bb1e18ce,64c8011de90c2231c8a6fb3a,right,-1,0.75,0.5,1,-0.020892803,0.1498,29,0,29,0,1,,,,,,,,,,
,,514562,001,2023-07-31_20h49.15.216,arm3_eps,2022.2.5,Win32,59.78715772,61290e83a2d9e168e4392ead,64c7fed44a04f777bb1e18ce,64c8011de90c2231c8a6fb3a,right,-1,0.75,0.5,1,-0.007384886,0.1488,30,0,30,0,1,,,,,,,,,,
,,514562,001,2023-07-31_20h49.15.216,arm3_eps,2022.2.5,Win32,59.78715772,61290e83a2d9e168e4392ead,64c7fed44a04f777bb1e18ce,64c8011de90c2231c8a6fb3a,right,-1,0.75,0.5,1,-0.026182751,0.1796,31,0,31,0,1,,,,,,,,,,
,,514562,001,2023-07-31_20h49.15.216,arm3_eps,2022.2.5,Win32,59.78715772,61290e83a2d9e168e4392ead,64c7fed44a04f777bb1e18ce,64c8011de90c2231c8a6fb3a,right,-1,0.75,0.5,1,-0.026469508,0.178,32,0,32,0,1,,,,,,,,,,
,,514562,001,2023-07-31_20h49.15.216,arm3_eps,2022.2.5,Win32,59.78715772,61290e83a2d9e168e4392ead,64c7fed44a04f777bb1e18ce,64c8011de90c2231c8a6fb3a,right,-1,0.75,0.5,1,-0.040140041,0.1617,33,0,33,0,1,,,,,,,,,,
,,514562,001,2023-07-31_20h49.15.216,arm3_eps,2022.2.5,Win32,59.78715772,61290e83a2d9e168e4392ead,64c7fed44a04f777bb1e18ce,64c8011de90c2231c8a6fb3a,right,-1,0.75,0.5,1,-0.053880181,0.1616,34,0,34,0,1,,,,,,,,,,
,,514562,001,2023-07-31_20h49.15.216,arm3_eps,2022.2.5,Win32,59.78715772,61290e83a2d9e168e4392ead,64c7fed44a04f777bb1e18ce,64c8011de90c2231c8a6fb3a,right,-1,0.75,0.5,1,-0.082918017,0.1614,35,0,35,0,1,,,,,,,,,,
,,514562,001,2023-07-31_20h49.15.216,arm3_eps,2022.2.5,Win32,59.78715772,61290e83a2d9e168e4392ead,64c7fed44a04f777bb1e18ce,64c8011de90c2231c8a6fb3a,right,-1,0.75,0.5,1,-0.129684734,0.1788,36,0,36,0,1,,,,,,,,,,
,,514562,001,2023-07-31_20h49.15.216,arm3_eps,2022.2.5,Win32,59.78715772,61290e83a2d9e168e4392ead,64c7fed44a04f777bb1e18ce,64c8011de90c2231c8a6fb3a,right,-1,0.75,0.5,1,-0.133179983,0.1811,37,0,37,0,1,,,,,,,,,,
,,514562,001,2023-07-31_20h49.15.216,arm3_eps,2022.2.5,Win32,59.78715772,61290e83a2d9e168e4392ead,64c7fed44a04f777bb1e18ce,64c8011de90c2231c8a6fb3a,up,-1,0.75,0.5,0,0,1.215,38,0,38,0,1,,,,,,,,,,
,,514562,001,2023-07-31_20h49.15.216,arm3_eps,2022.2.5,Win32,59.78715772,61290e83a2d9e168e4392ead,64c7fed44a04f777bb1e18ce,64c8011de90c2231c8a6fb3a,right,-1,0.75,0.5,0,-0.012763953,1.1742,39,0,39,0,1,,,,,,,,,,
,,514562,001,2023-07-31_20h49.15.216,arm3_eps,2022.2.5,Win32,59.78715772,61290e83a2d9e168e4392ead,64c7fed44a04f777bb1e18ce,64c8011de90c2231c8a6fb3a,right,-1,0.75,0.5,0,-0.015480835,0.1624,40,0,40,0,1,,,,,,,,,,
,,514562,001,2023-07-31_20h49.15.216,arm3_eps,2022.2.5,Win32,59.78715772,61290e83a2d9e168e4392ead,64c7fed44a04f777bb1e18ce,64c8011de90c2231c8a6fb3a,right,-1,0.75,0.5,0,-0.059088764,0.1813,41,0,41,0,1,,,,,,,,,,
,,514562,001,2023-07-31_20h49.15.216,arm3_eps,2022.2.5,Win32,59.78715772,61290e83a2d9e168e4392ead,64c7fed44a04f777bb1e18ce,64c8011de90c2231c8a6fb3a,right,-1,0.75,0.5,0,-0.078639404,0.1476,42,0,42,0,1,,,,,,,,,,
,,514562,001,2023-07-31_20h49.15.216,arm3_eps,2022.2.5,Win32,59.78715772,61290e83a2d9e168e4392ead,64c7fed44a04f777bb1e18ce,64c8011de90c2231c8a6fb3a,right,-1,0.75,0.5,0,-0.135030606,0.1802,43,0,43,0,1,,,,,,,,,,
,,514562,001,2023-07-31_20h49.15.216,arm3_eps,2022.2.5,Win32,59.78715772,61290e83a2d9e168e4392ead,64c7fed44a04f777bb1e18ce,64c8011de90c2231c8a6fb3a,right,-1,0.75,0.5,0,-0.155221022,0.1856,44,0,44,0,1,,,,,,,,,,
,,514562,001,2023-07-31_20h49.15.216,arm3_eps,2022.2.5,Win32,59.78715772,61290e83a2d9e168e4392ead,64c7fed44a04f777bb1e18ce,64c8011de90c2231c8a6fb3a,right,-1,0.75,0.5,0,-0.160264832,0.196,45,0,45,0,1,,,,,,,,,,
,,514562,001,2023-07-31_20h49.15.216,arm3_eps,2022.2.5,Win32,59.78715772,61290e83a2d9e168e4392ead,64c7fed44a04f777bb1e18ce,64c8011de90c2231c8a6fb3a,right,-1,0.75,0.5,0,-0.133477373,0.1961,46,0,46,0,1,,,,,,,,,,
,,514562,001,2023-07-31_20h49.15.216,arm3_eps,2022.2.5,Win32,59.78715772,61290e83a2d9e168e4392ead,64c7fed44a04f777bb1e18ce,64c8011de90c2231c8a6fb3a,right,-1,0.75,0.5,0,-0.148267857,0.1939,47,0,47,0,1,,,,,,,,,,
,,514562,001,2023-07-31_20h49.15.216,arm3_eps,2022.2.5,Win32,59.78715772,61290e83a2d9e168e4392ead,64c7fed44a04f777bb1e18ce,64c8011de90c2231c8a6fb3a,right,-1,0.75,0.5,0,-0.153346846,0.1613,48,0,48,0,1,,,,,,,,,,
,,514562,001,2023-07-31_20h49.15.216,arm3_eps,2022.2.5,Win32,59.78715772,61290e83a2d9e168e4392ead,64c7fed44a04f777bb1e18ce,64c8011de90c2231c8a6fb3a,right,-1,0.75,0.5,0,-0.164093594,0.3327,49,0,49,0,1,,,,,,,,,,
space,3.174,514562,001,2023-07-31_20h49.15.216,arm3_eps,2022.2.5,Win32,59.78715772,61290e83a2d9e168e4392ead,64c7fed44a04f777bb1e18ce,64c8011de90c2231c8a6fb3a,,,,,,,,,,,,,,,,,,,,,,
space,1.756,514562,001,2023-07-31_20h49.15.216,arm3_eps,2022.2.5,Win32,59.78715772,61290e83a2d9e168e4392ead,64c7fed44a04f777bb1e18ce,64c8011de90c2231c8a6fb3a,right,-1,0.75,0.05,0,-0.033998266,0.6771,,,,,,0,0,0,0,1,,,,,
,,514562,001,2023-07-31_20h49.15.216,arm3_eps,2022.2.5,Win32,59.78715772,61290e83a2d9e168e4392ead,64c7fed44a04f777bb1e18ce,64c8011de90c2231c8a6fb3a,right,-1,0.75,0.05,0,-0.039853133,0.328,,,,,,1,0,1,0,1,,,,,
,,514562,001,2023-07-31_20h49.15.216,arm3_eps,2022.2.5,Win32,59.78715772,61290e83a2d9e168e4392ead,64c7fed44a04f777bb1e18ce,64c8011de90c2231c8a6fb3a,right,-1,0.75,0.05,0,-0.039809427,0.2002,,,,,,2,0,2,0,1,,,,,
,,514562,001,2023-07-31_20h49.15.216,arm3_eps,2022.2.5,Win32,59.78715772,61290e83a2d9e168e4392ead,64c7fed44a04f777bb1e18ce,64c8011de90c2231c8a6fb3a,right,-1,0.75,0.05,0,-0.037568994,0.2106,,,,,,3,0,3,0,1,,,,,
,,514562,001,2023-07-31_20h49.15.216,arm3_eps,2022.2.5,Win32,59.78715772,61290e83a2d9e168e4392ead,64c7fed44a04f777bb1e18ce,64c8011de90c2231c8a6fb3a,right,-1,0.75,0.05,0,-0.03132984,0.265,,,,,,4,0,4,0,1,,,,,
,,514562,001,2023-07-31_20h49.15.216,arm3_eps,2022.2.5,Win32,59.78715772,61290e83a2d9e168e4392ead,64c7fed44a04f777bb1e18ce,64c8011de90c2231c8a6fb3a,right,-1,0.75,0.05,0,-0.046432626,0.2626,,,,,,5,0,5,0,1,,,,,
,,514562,001,2023-07-31_20h49.15.216,arm3_eps,2022.2.5,Win32,59.78715772,61290e83a2d9e168e4392ead,64c7fed44a04f777bb1e18ce,64c8011de90c2231c8a6fb3a,right,-1,0.75,0.05,0,-0.076716005,0.2365,,,,,,6,0,6,0,1,,,,,
,,514562,001,2023-07-31_20h49.15.216,arm3_eps,2022.2.5,Win32,59.78715772,61290e83a2d9e168e4392ead,64c7fed44a04f777bb1e18ce,64c8011de90c2231c8a6fb3a,right,-1,0.75,0.05,0,-0.151053721,0.295,,,,,,7,0,7,0,1,,,,,
,,514562,001,2023-07-31_20h49.15.216,arm3_eps,2022.2.5,Win32,59.78715772,61290e83a2d9e168e4392ead,64c7fed44a04f777bb1e18ce,64c8011de90c2231c8a6fb3a,right,-1,0.75,0.05,0,-0.142163826,0.2448,,,,,,8,0,8,0,1,,,,,
,,514562,001,2023-07-31_20h49.15.216,arm3_eps,2022.2.5,Win32,59.78715772,61290e83a2d9e168e4392ead,64c7fed44a04f777bb1e18ce,64c8011de90c2231c8a6fb3a,right,-1,0.75,0.05,0,-0.163674783,0.2427,,,,,,9,0,9,0,1,,,,,
,,514562,001,2023-07-31_20h49.15.216,arm3_eps,2022.2.5,Win32,59.78715772,61290e83a2d9e168e4392ead,64c7fed44a04f777bb1e18ce,64c8011de90c2231c8a6fb3a,right,-1,0.75,0.05,0,-0.194019778,0.2957,,,,,,10,0,10,0,1,,,,,
,,514562,001,2023-07-31_20h49.15.216,arm3_eps,2022.2.5,Win32,59.78715772,61290e83a2d9e168e4392ead,64c7fed44a04f777bb1e18ce,64c8011de90c2231c8a6fb3a,right,-1,0.75,0.05,0,-0.190076017,0.3668,,,,,,11,0,11,0,1,,,,,
,,514562,001,2023-07-31_20h49.15.216,arm3_eps,2022.2.5,Win32,59.78715772,61290e83a2d9e168e4392ead,64c7fed44a04f777bb1e18ce,64c8011de90c2231c8a6fb3a,down,-1,0.75,0.05,0,0,1.26,,,,,,12,0,12,0,1,,,,,
,,514562,001,2023-07-31_20h49.15.216,arm3_eps,2022.2.5,Win32,59.78715772,61290e83a2d9e168e4392ead,64c7fed44a04f777bb1e18ce,64c8011de90c2231c8a6fb3a,right,-1,0.75,0.05,0,-0.020737116,1.0667,,,,,,13,0,13,0,1,,,,,
,,514562,001,2023-07-31_20h49.15.216,arm3_eps,2022.2.5,Win32,59.78715772,61290e83a2d9e168e4392ead,64c7fed44a04f777bb1e18ce,64c8011de90c2231c8a6fb3a,right,-1,0.75,0.05,0,-0.073475604,0.187,,,,,,14,0,14,0,1,,,,,
,,514562,001,2023-07-31_20h49.15.216,arm3_eps,2022.2.5,Win32,59.78715772,61290e83a2d9e168e4392ead,64c7fed44a04f777bb1e18ce,64c8011de90c2231c8a6fb3a,right,-1,0.75,0.05,0,-0.0616686,0.2272,,,,,,15,0,15,0,1,,,,,
,,514562,001,2023-07-31_20h49.15.216,arm3_eps,2022.2.5,Win32,59.78715772,61290e83a2d9e168e4392ead,64c7fed44a04f777bb1e18ce,64c8011de90c2231c8a6fb3a,right,-1,0.75,0.05,0,-0.062049366,0.1795,,,,,,16,0,16,0,1,,,,,
,,514562,001,2023-07-31_20h49.15.216,arm3_eps,2022.2.5,Win32,59.78715772,61290e83a2d9e168e4392ead,64c7fed44a04f777bb1e18ce,64c8011de90c2231c8a6fb3a,right,-1,0.75,0.05,0,-0.063502134,0.1847,,,,,,17,0,17,0,1,,,,,
,,514562,001,2023-07-31_20h49.15.216,arm3_eps,2022.2.5,Win32,59.78715772,61290e83a2d9e168e4392ead,64c7fed44a04f777bb1e18ce,64c8011de90c2231c8a6fb3a,right,-1,0.75,0.05,0,-0.122888993,0.21,,,,,,18,0,18,0,1,,,,,
,,514562,001,2023-07-31_20h49.15.216,arm3_eps,2022.2.5,Win32,59.78715772,61290e83a2d9e168e4392ead,64c7fed44a04f777bb1e18ce,64c8011de90c2231c8a6fb3a,right,-1,0.75,0.05,0,-0.158646671,0.2133,,,,,,19,0,19,0,1,,,,,
,,514562,001,2023-07-31_20h49.15.216,arm3_eps,2022.2.5,Win32,59.78715772,61290e83a2d9e168e4392ead,64c7fed44a04f777bb1e18ce,64c8011de90c2231c8a6fb3a,right,-1,0.75,0.05,0,-0.141160226,0.2096,,,,,,20,0,20,0,1,,,,,
,,514562,001,2023-07-31_20h49.15.216,arm3_eps,2022.2.5,Win32,59.78715772,61290e83a2d9e168e4392ead,64c7fed44a04f777bb1e18ce,64c8011de90c2231c8a6fb3a,right,-1,0.75,0.05,0,-0.130619536,0.2095,,,,,,21,0,21,0,1,,,,,
,,514562,001,2023-07-31_20h49.15.216,arm3_eps,2022.2.5,Win32,59.78715772,61290e83a2d9e168e4392ead,64c7fed44a04f777bb1e18ce,64c8011de90c2231c8a6fb3a,right,-1,0.75,0.05,0,-0.130678404,0.2122,,,,,,22,0,22,0,1,,,,,
,,514562,001,2023-07-31_20h49.15.216,arm3_eps,2022.2.5,Win32,59.78715772,61290e83a2d9e168e4392ead,64c7fed44a04f777bb1e18ce,64c8011de90c2231c8a6fb3a,right,-1,0.75,0.05,0,-0.135685124,0.2278,,,,,,23,0,23,0,1,,,,,
,,514562,001,2023-07-31_20h49.15.216,arm3_eps,2022.2.5,Win32,59.78715772,61290e83a2d9e168e4392ead,64c7fed44a04f777bb1e18ce,64c8011de90c2231c8a6fb3a,right,-1,0.75,0.05,0,-0.177686917,0.2268,,,,,,24,0,24,0,1,,,,,
,,514562,001,2023-07-31_20h49.15.216,arm3_eps,2022.2.5,Win32,59.78715772,61290e83a2d9e168e4392ead,64c7fed44a04f777bb1e18ce,64c8011de90c2231c8a6fb3a,down,1,0.75,0.05,1,0,0.9932,,,,,,25,0,25,0,1,,,,,
,,514562,001,2023-07-31_20h49.15.216,arm3_eps,2022.2.5,Win32,59.78715772,61290e83a2d9e168e4392ead,64c7fed44a04f777bb1e18ce,64c8011de90c2231c8a6fb3a,right,1,0.75,0.05,1,-0.011422223,0.8166,,,,,,26,0,26,0,1,,,,,
,,514562,001,2023-07-31_20h49.15.216,arm3_eps,2022.2.5,Win32,59.78715772,61290e83a2d9e168e4392ead,64c7fed44a04f777bb1e18ce,64c8011de90c2231c8a6fb3a,right,1,0.75,0.05,1,-0.011458866,0.2244,,,,,,27,0,27,0,1,,,,,
,,514562,001,2023-07-31_20h49.15.216,arm3_eps,2022.2.5,Win32,59.78715772,61290e83a2d9e168e4392ead,64c7fed44a04f777bb1e18ce,64c8011de90c2231c8a6fb3a,right,1,0.75,0.05,1,0.025859351,0.1955,,,,,,28,0,28,0,1,,,,,
,,514562,001,2023-07-31_20h49.15.216,arm3_eps,2022.2.5,Win32,59.78715772,61290e83a2d9e168e4392ead,64c7fed44a04f777bb1e18ce,64c8011de90c2231c8a6fb3a,right,1,0.75,0.05,1,0.035590269,0.1666,,,,,,29,0,29,0,1,,,,,
,,514562,001,2023-07-31_20h49.15.216,arm3_eps,2022.2.5,Win32,59.78715772,61290e83a2d9e168e4392ead,64c7fed44a04f777bb1e18ce,64c8011de90c2231c8a6fb3a,right,1,0.75,0.05,1,0.041768573,0.213,,,,,,30,0,30,0,1,,,,,
,,514562,001,2023-07-31_20h49.15.216,arm3_eps,2022.2.5,Win32,59.78715772,61290e83a2d9e168e4392ead,64c7fed44a04f777bb1e18ce,64c8011de90c2231c8a6fb3a,right,1,0.75,0.05,1,0.034223091,0.1972,,,,,,31,0,31,0,1,,,,,
,,514562,001,2023-07-31_20h49.15.216,arm3_eps,2022.2.5,Win32,59.78715772,61290e83a2d9e168e4392ead,64c7fed44a04f777bb1e18ce,64c8011de90c2231c8a6fb3a,right,1,0.75,0.05,1,0.03672196,0.1811,,,,,,32,0,32,0,1,,,,,
,,514562,001,2023-07-31_20h49.15.216,arm3_eps,2022.2.5,Win32,59.78715772,61290e83a2d9e168e4392ead,64c7fed44a04f777bb1e18ce,64c8011de90c2231c8a6fb3a,right,1,0.75,0.05,1,-0.010222147,0.2289,,,,,,33,0,33,0,1,,,,,
,,514562,001,2023-07-31_20h49.15.216,arm3_eps,2022.2.5,Win32,59.78715772,61290e83a2d9e168e4392ead,64c7fed44a04f777bb1e18ce,64c8011de90c2231c8a6fb3a,right,1,0.75,0.05,1,-0.022839826,0.1986,,,,,,34,0,34,0,1,,,,,
,,514562,001,2023-07-31_20h49.15.216,arm3_eps,2022.2.5,Win32,59.78715772,61290e83a2d9e168e4392ead,64c7fed44a04f777bb1e18ce,64c8011de90c2231c8a6fb3a,right,1,0.75,0.05,1,-0.020655958,0.1823,,,,,,35,0,35,0,1,,,,,
,,514562,001,2023-07-31_20h49.15.216,arm3_eps,2022.2.5,Win32,59.78715772,61290e83a2d9e168e4392ead,64c7fed44a04f777bb1e18ce,64c8011de90c2231c8a6fb3a,right,1,0.75,0.05,1,-0.022334098,0.1658,,,,,,36,0,36,0,1,,,,,
,,514562,001,2023-07-31_20h49.15.216,arm3_eps,2022.2.5,Win32,59.78715772,61290e83a2d9e168e4392ead,64c7fed44a04f777bb1e18ce,64c8011de90c2231c8a6fb3a,right,1,0.75,0.05,1,-0.012852829,0.2173,,,,,,37,0,37,0,1,,,,,
,,514562,001,2023-07-31_20h49.15.216,arm3_eps,2022.2.5,Win32,59.78715772,61290e83a2d9e168e4392ead,64c7fed44a04f777bb1e18ce,64c8011de90c2231c8a6fb3a,up,1,0.75,0.05,1,0,1.6423,,,,,,38,0,38,0,1,,,,,
,,514562,001,2023-07-31_20h49.15.216,arm3_eps,2022.2.5,Win32,59.78715772,61290e83a2d9e168e4392ead,64c7fed44a04f777bb1e18ce,64c8011de90c2231c8a6fb3a,right,1,0.75,0.05,1,0.006656658,0.8075,,,,,,39,0,39,0,1,,,,,
,,514562,001,2023-07-31_20h49.15.216,arm3_eps,2022.2.5,Win32,59.78715772,61290e83a2d9e168e4392ead,64c7fed44a04f777bb1e18ce,64c8011de90c2231c8a6fb3a,right,1,0.75,0.05,1,0.026130919,0.1976,,,,,,40,0,40,0,1,,,,,
,,514562,001,2023-07-31_20h49.15.216,arm3_eps,2022.2.5,Win32,59.78715772,61290e83a2d9e168e4392ead,64c7fed44a04f777bb1e18ce,64c8011de90c2231c8a6fb3a,right,1,0.75,0.05,1,0.059994431,0.194,,,,,,41,0,41,0,1,,,,,
,,514562,001,2023-07-31_20h49.15.216,arm3_eps,2022.2.5,Win32,59.78715772,61290e83a2d9e168e4392ead,64c7fed44a04f777bb1e18ce,64c8011de90c2231c8a6fb3a,right,1,0.75,0.05,1,0.074353548,0.1919,,,,,,42,0,42,0,1,,,,,
,,514562,001,2023-07-31_20h49.15.216,arm3_eps,2022.2.5,Win32,59.78715772,61290e83a2d9e168e4392ead,64c7fed44a04f777bb1e18ce,64c8011de90c2231c8a6fb3a,right,1,0.75,0.05,1,0.054792633,0.1997,,,,,,43,0,43,0,1,,,,,
,,514562,001,2023-07-31_20h49.15.216,arm3_eps,2022.2.5,Win32,59.78715772,61290e83a2d9e168e4392ead,64c7fed44a04f777bb1e18ce,64c8011de90c2231c8a6fb3a,right,1,0.75,0.05,1,0.046010576,0.201,,,,,,44,0,44,0,1,,,,,
,,514562,001,2023-07-31_20h49.15.216,arm3_eps,2022.2.5,Win32,59.78715772,61290e83a2d9e168e4392ead,64c7fed44a04f777bb1e18ce,64c8011de90c2231c8a6fb3a,right,1,0.75,0.05,1,0.057885665,0.2144,,,,,,45,0,45,0,1,,,,,
,,514562,001,2023-07-31_20h49.15.216,arm3_eps,2022.2.5,Win32,59.78715772,61290e83a2d9e168e4392ead,64c7fed44a04f777bb1e18ce,64c8011de90c2231c8a6fb3a,right,1,0.75,0.05,1,0.057707229,0.194,,,,,,46,0,46,0,1,,,,,
,,514562,001,2023-07-31_20h49.15.216,arm3_eps,2022.2.5,Win32,59.78715772,61290e83a2d9e168e4392ead,64c7fed44a04f777bb1e18ce,64c8011de90c2231c8a6fb3a,right,1,0.75,0.05,1,0.085873803,0.2117,,,,,,47,0,47,0,1,,,,,
,,514562,001,2023-07-31_20h49.15.216,arm3_eps,2022.2.5,Win32,59.78715772,61290e83a2d9e168e4392ead,64c7fed44a04f777bb1e18ce,64c8011de90c2231c8a6fb3a,right,1,0.75,0.05,1,0.076970553,0.1949,,,,,,48,0,48,0,1,,,,,
,,514562,001,2023-07-31_20h49.15.216,arm3_eps,2022.2.5,Win32,59.78715772,61290e83a2d9e168e4392ead,64c7fed44a04f777bb1e18ce,64c8011de90c2231c8a6fb3a,right,1,0.75,0.05,1,0.060095697,0.2163,,,,,,49,0,49,0,1,,,,,
,,514562,001,2023-07-31_20h49.15.216,arm3_eps,2022.2.5,Win32,59.78715772,61290e83a2d9e168e4392ead,64c7fed44a04f777bb1e18ce,64c8011de90c2231c8a6fb3a,right,1,0.75,0.05,1,0.080120749,0.2112,,,,,,50,0,50,0,1,,,,,
,,514562,001,2023-07-31_20h49.15.216,arm3_eps,2022.2.5,Win32,59.78715772,61290e83a2d9e168e4392ead,64c7fed44a04f777bb1e18ce,64c8011de90c2231c8a6fb3a,up,1,0.75,0.05,2,0,1.0793,,,,,,51,0,51,0,1,,,,,
,,514562,001,2023-07-31_20h49.15.216,arm3_eps,2022.2.5,Win32,59.78715772,61290e83a2d9e168e4392ead,64c7fed44a04f777bb1e18ce,64c8011de90c2231c8a6fb3a,right,1,0.75,0.05,2,0.012464258,0.8669,,,,,,52,0,52,0,1,,,,,
,,514562,001,2023-07-31_20h49.15.216,arm3_eps,2022.2.5,Win32,59.78715772,61290e83a2d9e168e4392ead,64c7fed44a04f777bb1e18ce,64c8011de90c2231c8a6fb3a,right,1,0.75,0.05,2,0.011310055,0.1946,,,,,,53,0,53,0,1,,,,,
,,514562,001,2023-07-31_20h49.15.216,arm3_eps,2022.2.5,Win32,59.78715772,61290e83a2d9e168e4392ead,64c7fed44a04f777bb1e18ce,64c8011de90c2231c8a6fb3a,right,1,0.75,0.05,2,-0.009293274,0.1648,,,,,,54,0,54,0,1,,,,,
,,514562,001,2023-07-31_20h49.15.216,arm3_eps,2022.2.5,Win32,59.78715772,61290e83a2d9e168e4392ead,64c7fed44a04f777bb1e18ce,64c8011de90c2231c8a6fb3a,right,1,0.75,0.05,2,-0.003985811,0.1666,,,,,,55,0,55,0,1,,,,,
,,514562,001,2023-07-31_20h49.15.216,arm3_eps,2022.2.5,Win32,59.78715772,61290e83a2d9e168e4392ead,64c7fed44a04f777bb1e18ce,64c8011de90c2231c8a6fb3a,right,1,0.75,0.05,2,0.025781956,0.3608,,,,,,56,0,56,0,1,,,,,
,,514562,001,2023-07-31_20h49.15.216,arm3_eps,2022.2.5,Win32,59.78715772,61290e83a2d9e168e4392ead,64c7fed44a04f777bb1e18ce,64c8011de90c2231c8a6fb3a,right,1,0.75,0.05,2,0.053803239,0.3779,,,,,,57,0,57,0,1,,,,,
,,514562,001,2023-07-31_20h49.15.216,arm3_eps,2022.2.5,Win32,59.78715772,61290e83a2d9e168e4392ead,64c7fed44a04f777bb1e18ce,64c8011de90c2231c8a6fb3a,right,1,0.75,0.05,2,0.057974696,0.2505,,,,,,58,0,58,0,1,,,,,
,,514562,001,2023-07-31_20h49.15.216,arm3_eps,2022.2.5,Win32,59.78715772,61290e83a2d9e168e4392ead,64c7fed44a04f777bb1e18ce,64c8011de90c2231c8a6fb3a,right,1,0.75,0.05,2,0.041741578,0.1951,,,,,,59,0,59,0,1,,,,,
,,514562,001,2023-07-31_20h49.15.216,arm3_eps,2022.2.5,Win32,59.78715772,61290e83a2d9e168e4392ead,64c7fed44a04f777bb1e18ce,64c8011de90c2231c8a6fb3a,right,1,0.75,0.05,2,0.069731286,0.2433,,,,,,60,0,60,0,1,,,,,
,,514562,001,2023-07-31_20h49.15.216,arm3_eps,2022.2.5,Win32,59.78715772,61290e83a2d9e168e4392ead,64c7fed44a04f777bb1e18ce,64c8011de90c2231c8a6fb3a,right,1,0.75,0.05,2,0.043820926,0.2194,,,,,,61,0,61,0,1,,,,,
,,514562,001,2023-07-31_20h49.15.216,arm3_eps,2022.2.5,Win32,59.78715772,61290e83a2d9e168e4392ead,64c7fed44a04f777bb1e18ce,64c8011de90c2231c8a6fb3a,right,1,0.75,0.05,2,0.061848429,0.2287,,,,,,62,0,62,0,1,,,,,
,,514562,001,2023-07-31_20h49.15.216,arm3_eps,2022.2.5,Win32,59.78715772,61290e83a2d9e168e4392ead,64c7fed44a04f777bb1e18ce,64c8011de90c2231c8a6fb3a,right,1,0.75,0.05,2,0.078540299,0.2106,,,,,,63,0,63,0,1,,,,,
,,514562,001,2023-07-31_20h49.15.216,arm3_eps,2022.2.5,Win32,59.78715772,61290e83a2d9e168e4392ead,64c7fed44a04f777bb1e18ce,64c8011de90c2231c8a6fb3a,up,1,0.75,0.05,3,0,1.1221,,,,,,64,0,64,0,1,,,,,
,,514562,001,2023-07-31_20h49.15.216,arm3_eps,2022.2.5,Win32,59.78715772,61290e83a2d9e168e4392ead,64c7fed44a04f777bb1e18ce,64c8011de90c2231c8a6fb3a,right,1,0.75,0.05,3,-0.004554543,0.7952,,,,,,65,0,65,0,1,,,,,
,,514562,001,2023-07-31_20h49.15.216,arm3_eps,2022.2.5,Win32,59.78715772,61290e83a2d9e168e4392ead,64c7fed44a04f777bb1e18ce,64c8011de90c2231c8a6fb3a,right,1,0.75,0.05,3,0.00049229,0.1845,,,,,,66,0,66,0,1,,,,,
,,514562,001,2023-07-31_20h49.15.216,arm3_eps,2022.2.5,Win32,59.78715772,61290e83a2d9e168e4392ead,64c7fed44a04f777bb1e18ce,64c8011de90c2231c8a6fb3a,right,1,0.75,0.05,3,0.014856132,0.183,,,,,,67,0,67,0,1,,,,,
,,514562,001,2023-07-31_20h49.15.216,arm3_eps,2022.2.5,Win32,59.78715772,61290e83a2d9e168e4392ead,64c7fed44a04f777bb1e18ce,64c8011de90c2231c8a6fb3a,right,1,0.75,0.05,3,0.0330788,0.1647,,,,,,68,0,68,0,1,,,,,
,,514562,001,2023-07-31_20h49.15.216,arm3_eps,2022.2.5,Win32,59.78715772,61290e83a2d9e168e4392ead,64c7fed44a04f777bb1e18ce,64c8011de90c2231c8a6fb3a,right,1,0.75,0.05,3,0.080477413,0.198,,,,,,69,0,69,0,1,,,,,
,,514562,001,2023-07-31_20h49.15.216,arm3_eps,2022.2.5,Win32,59.78715772,61290e83a2d9e168e4392ead,64c7fed44a04f777bb1e18ce,64c8011de90c2231c8a6fb3a,right,1,0.75,0.05,3,0.094446501,0.1944,,,,,,70,0,70,0,1,,,,,
,,514562,001,2023-07-31_20h49.15.216,arm3_eps,2022.2.5,Win32,59.78715772,61290e83a2d9e168e4392ead,64c7fed44a04f777bb1e18ce,64c8011de90c2231c8a6fb3a,right,1,0.75,0.05,3,0.082527246,0.1465,,,,,,71,0,71,0,1,,,,,
,,514562,001,2023-07-31_20h49.15.216,arm3_eps,2022.2.5,Win32,59.78715772,61290e83a2d9e168e4392ead,64c7fed44a04f777bb1e18ce,64c8011de90c2231c8a6fb3a,right,1,0.75,0.05,3,0.064472048,0.2514,,,,,,72,0,72,0,1,,,,,
,,514562,001,2023-07-31_20h49.15.216,arm3_eps,2022.2.5,Win32,59.78715772,61290e83a2d9e168e4392ead,64c7fed44a04f777bb1e18ce,64c8011de90c2231c8a6fb3a,right,1,0.75,0.05,3,0.072557207,0.2126,,,,,,73,0,73,0,1,,,,,
,,514562,001,2023-07-31_20h49.15.216,arm3_eps,2022.2.5,Win32,59.78715772,61290e83a2d9e168e4392ead,64c7fed44a04f777bb1e18ce,64c8011de90c2231c8a6fb3a,right,1,0.75,0.05,3,0.057530416,0.2121,,,,,,74,0,74,0,1,,,,,
,,514562,001,2023-07-31_20h49.15.216,arm3_eps,2022.2.5,Win32,59.78715772,61290e83a2d9e168e4392ead,64c7fed44a04f777bb1e18ce,64c8011de90c2231c8a6fb3a,right,1,0.75,0.05,3,0.059839713,0.2162,,,,,,75,0,75,0,1,,,,,
,,514562,001,2023-07-31_20h49.15.216,arm3_eps,2022.2.5,Win32,59.78715772,61290e83a2d9e168e4392ead,64c7fed44a04f777bb1e18ce,64c8011de90c2231c8a6fb3a,right,1,0.75,0.05,3,0.067382029,0.2476,,,,,,76,0,76,0,1,,,,,
,,514562,001,2023-07-31_20h49.15.216,arm3_eps,2022.2.5,Win32,59.78715772,61290e83a2d9e168e4392ead,64c7fed44a04f777bb1e18ce,64c8011de90c2231c8a6fb3a,up,1,0.75,0.05,4,0,1.1442,,,,,,77,0,77,0,1,,,,,
,,514562,001,2023-07-31_20h49.15.216,arm3_eps,2022.2.5,Win32,59.78715772,61290e83a2d9e168e4392ead,64c7fed44a04f777bb1e18ce,64c8011de90c2231c8a6fb3a,right,1,0.75,0.05,4,0.020605952,0.7618,,,,,,78,0,78,0,1,,,,,
,,514562,001,2023-07-31_20h49.15.216,arm3_eps,2022.2.5,Win32,59.78715772,61290e83a2d9e168e4392ead,64c7fed44a04f777bb1e18ce,64c8011de90c2231c8a6fb3a,right,1,0.75,0.05,4,0.018253792,0.2525,,,,,,79,0,79,0,1,,,,,
,,514562,001,2023-07-31_20h49.15.216,arm3_eps,2022.2.5,Win32,59.78715772,61290e83a2d9e168e4392ead,64c7fed44a04f777bb1e18ce,64c8011de90c2231c8a6fb3a,right,1,0.75,0.05,4,0.013985801,0.2262,,,,,,80,0,80,0,1,,,,,
,,514562,001,2023-07-31_20h49.15.216,arm3_eps,2022.2.5,Win32,59.78715772,61290e83a2d9e168e4392ead,64c7fed44a04f777bb1e18ce,64c8011de90c2231c8a6fb3a,right,1,0.75,0.05,4,-0.003307427,0.1769,,,,,,81,0,81,0,1,,,,,
,,514562,001,2023-07-31_20h49.15.216,arm3_eps,2022.2.5,Win32,59.78715772,61290e83a2d9e168e4392ead,64c7fed44a04f777bb1e18ce,64c8011de90c2231c8a6fb3a,right,1,0.75,0.05,4,0.004267419,0.2006,,,,,,82,0,82,0,1,,,,,
,,514562,001,2023-07-31_20h49.15.216,arm3_eps,2022.2.5,Win32,59.78715772,61290e83a2d9e168e4392ead,64c7fed44a04f777bb1e18ce,64c8011de90c2231c8a6fb3a,right,1,0.75,0.05,4,0.008503394,0.2059,,,,,,83,0,83,0,1,,,,,
,,514562,001,2023-07-31_20h49.15.216,arm3_eps,2022.2.5,Win32,59.78715772,61290e83a2d9e168e4392ead,64c7fed44a04f777bb1e18ce,64c8011de90c2231c8a6fb3a,right,1,0.75,0.05,4,0.005152306,0.2112,,,,,,84,0,84,0,1,,,,,
,,514562,001,2023-07-31_20h49.15.216,arm3_eps,2022.2.5,Win32,59.78715772,61290e83a2d9e168e4392ead,64c7fed44a04f777bb1e18ce,64c8011de90c2231c8a6fb3a,right,1,0.75,0.05,4,-0.000413072,0.1805,,,,,,85,0,85,0,1,,,,,
,,514562,001,2023-07-31_20h49.15.216,arm3_eps,2022.2.5,Win32,59.78715772,61290e83a2d9e168e4392ead,64c7fed44a04f777bb1e18ce,64c8011de90c2231c8a6fb3a,right,1,0.75,0.05,4,0.017892671,0.2152,,,,,,86,0,86,0,1,,,,,
,,514562,001,2023-07-31_20h49.15.216,arm3_eps,2022.2.5,Win32,59.78715772,61290e83a2d9e168e4392ead,64c7fed44a04f777bb1e18ce,64c8011de90c2231c8a6fb3a,right,1,0.75,0.05,4,0.021321606,0.2151,,,,,,87,0,87,0,1,,,,,
,,514562,001,2023-07-31_20h49.15.216,arm3_eps,2022.2.5,Win32,59.78715772,61290e83a2d9e168e4392ead,64c7fed44a04f777bb1e18ce,64c8011de90c2231c8a6fb3a,right,1,0.75,0.05,4,0.047489166,0.2139,,,,,,88,0,88,0,1,,,,,
,,514562,001,2023-07-31_20h49.15.216,arm3_eps,2022.2.5,Win32,59.78715772,61290e83a2d9e168e4392ead,64c7fed44a04f777bb1e18ce,64c8011de90c2231c8a6fb3a,right,1,0.75,0.05,4,0.063460117,0.331,,,,,,89,0,89,0,1,,,,,
,,514562,001,2023-07-31_20h49.15.216,arm3_eps,2022.2.5,Win32,59.78715772,61290e83a2d9e168e4392ead,64c7fed44a04f777bb1e18ce,64c8011de90c2231c8a6fb3a,up,1,0.75,0.05,5,0,2.0797,,,,,,90,0,90,0,1,,,,,
,,514562,001,2023-07-31_20h49.15.216,arm3_eps,2022.2.5,Win32,59.78715772,61290e83a2d9e168e4392ead,64c7fed44a04f777bb1e18ce,64c8011de90c2231c8a6fb3a,right,1,0.75,0.05,5,-0.006841246,0.9566,,,,,,91,0,91,0,1,,,,,
,,514562,001,2023-07-31_20h49.15.216,arm3_eps,2022.2.5,Win32,59.78715772,61290e83a2d9e168e4392ead,64c7fed44a04f777bb1e18ce,64c8011de90c2231c8a6fb3a,right,1,0.75,0.05,5,-0.003486705,0.2369,,,,,,92,0,92,0,1,,,,,
,,514562,001,2023-07-31_20h49.15.216,arm3_eps,2022.2.5,Win32,59.78715772,61290e83a2d9e168e4392ead,64c7fed44a04f777bb1e18ce,64c8011de90c2231c8a6fb3a,right,1,0.75,0.05,5,0.009571636,0.2103,,,,,,93,0,93,0,1,,,,,
,,514562,001,2023-07-31_20h49.15.216,arm3_eps,2022.2.5,Win32,59.78715772,61290e83a2d9e168e4392ead,64c7fed44a04f777bb1e18ce,64c8011de90c2231c8a6fb3a,right,1,0.75,0.05,5,0.020230639,0.21,,,,,,94,0,94,0,1,,,,,
,,514562,001,2023-07-31_20h49.15.216,arm3_eps,2022.2.5,Win32,59.78715772,61290e83a2d9e168e4392ead,64c7fed44a04f777bb1e18ce,64c8011de90c2231c8a6fb3a,right,1,0.75,0.05,5,0.022481579,0.1967,,,,,,95,0,95,0,1,,,,,
,,514562,001,2023-07-31_20h49.15.216,arm3_eps,2022.2.5,Win32,59.78715772,61290e83a2d9e168e4392ead,64c7fed44a04f777bb1e18ce,64c8011de90c2231c8a6fb3a,right,1,0.75,0.05,5,0.054973137,0.1956,,,,,,96,0,96,0,1,,,,,
,,514562,001,2023-07-31_20h49.15.216,arm3_eps,2022.2.5,Win32,59.78715772,61290e83a2d9e168e4392ead,64c7fed44a04f777bb1e18ce,64c8011de90c2231c8a6fb3a,right,1,0.75,0.05,5,0.071569366,0.182,,,,,,97,0,97,0,1,,,,,
,,514562,001,2023-07-31_20h49.15.216,arm3_eps,2022.2.5,Win32,59.78715772,61290e83a2d9e168e4392ead,64c7fed44a04f777bb1e18ce,64c8011de90c2231c8a6fb3a,right,1,0.75,0.05,5,0.046120837,0.2145,,,,,,98,0,98,0,1,,,,,
,,514562,001,2023-07-31_20h49.15.216,arm3_eps,2022.2.5,Win32,59.78715772,61290e83a2d9e168e4392ead,64c7fed44a04f777bb1e18ce,64c8011de90c2231c8a6fb3a,right,1,0.75,0.05,5,0.038914317,0.2295,,,,,,99,0,99,0,1,,,,,
,,514562,001,2023-07-31_20h49.15.216,arm3_eps,2022.2.5,Win32,59.78715772,61290e83a2d9e168e4392ead,64c7fed44a04f777bb1e18ce,64c8011de90c2231c8a6fb3a,right,1,0.75,0.05,5,0.059957119,0.1948,,,,,,100,0,100,0,1,,,,,
,,514562,001,2023-07-31_20h49.15.216,arm3_eps,2022.2.5,Win32,59.78715772,61290e83a2d9e168e4392ead,64c7fed44a04f777bb1e18ce,64c8011de90c2231c8a6fb3a,right,1,0.75,0.05,5,0.040745423,0.195,,,,,,101,0,101,0,1,,,,,
,,514562,001,2023-07-31_20h49.15.216,arm3_eps,2022.2.5,Win32,59.78715772,61290e83a2d9e168e4392ead,64c7fed44a04f777bb1e18ce,64c8011de90c2231c8a6fb3a,right,1,0.75,0.05,5,0.069898604,0.198,,,,,,102,0,102,0,1,,,,,
,,514562,001,2023-07-31_20h49.15.216,arm3_eps,2022.2.5,Win32,59.78715772,61290e83a2d9e168e4392ead,64c7fed44a04f777bb1e18ce,64c8011de90c2231c8a6fb3a,up,1,0.75,0.05,6,0,1.0475,,,,,,103,0,103,0,1,,,,,
,,514562,001,2023-07-31_20h49.15.216,arm3_eps,2022.2.5,Win32,59.78715772,61290e83a2d9e168e4392ead,64c7fed44a04f777bb1e18ce,64c8011de90c2231c8a6fb3a,right,1,0.75,0.05,6,0.016530133,0.756,,,,,,104,0,104,0,1,,,,,
,,514562,001,2023-07-31_20h49.15.216,arm3_eps,2022.2.5,Win32,59.78715772,61290e83a2d9e168e4392ead,64c7fed44a04f777bb1e18ce,64c8011de90c2231c8a6fb3a,right,1,0.75,0.05,6,0.022397415,0.2313,,,,,,105,0,105,0,1,,,,,
,,514562,001,2023-07-31_20h49.15.216,arm3_eps,2022.2.5,Win32,59.78715772,61290e83a2d9e168e4392ead,64c7fed44a04f777bb1e18ce,64c8011de90c2231c8a6fb3a,right,1,0.75,0.05,6,0.015844097,0.195,,,,,,106,0,106,0,1,,,,,
,,514562,001,2023-07-31_20h49.15.216,arm3_eps,2022.2.5,Win32,59.78715772,61290e83a2d9e168e4392ead,64c7fed44a04f777bb1e18ce,64c8011de90c2231c8a6fb3a,right,1,0.75,0.05,6,0.063110996,0.196,,,,,,107,0,107,0,1,,,,,
,,514562,001,2023-07-31_20h49.15.216,arm3_eps,2022.2.5,Win32,59.78715772,61290e83a2d9e168e4392ead,64c7fed44a04f777bb1e18ce,64c8011de90c2231c8a6fb3a,right,1,0.75,0.05,6,0.057524939,0.1779,,,,,,108,0,108,0,1,,,,,
,,514562,001,2023-07-31_20h49.15.216,arm3_eps,2022.2.5,Win32,59.78715772,61290e83a2d9e168e4392ead,64c7fed44a04f777bb1e18ce,64c8011de90c2231c8a6fb3a,right,1,0.75,0.05,6,0.045758739,0.1627,,,,,,109,0,109,0,1,,,,,
,,514562,001,2023-07-31_20h49.15.216,arm3_eps,2022.2.5,Win32,59.78715772,61290e83a2d9e168e4392ead,64c7fed44a04f777bb1e18ce,64c8011de90c2231c8a6fb3a,right,1,0.75,0.05,6,0.061268212,0.1965,,,,,,110,0,110,0,1,,,,,
,,514562,001,2023-07-31_20h49.15.216,arm3_eps,2022.2.5,Win32,59.78715772,61290e83a2d9e168e4392ead,64c7fed44a04f777bb1e18ce,64c8011de90c2231c8a6fb3a,right,1,0.75,0.05,6,0.075801962,0.2446,,,,,,111,0,111,0,1,,,,,
,,514562,001,2023-07-31_20h49.15.216,arm3_eps,2022.2.5,Win32,59.78715772,61290e83a2d9e168e4392ead,64c7fed44a04f777bb1e18ce,64c8011de90c2231c8a6fb3a,right,1,0.75,0.05,6,0.073894357,0.1794,,,,,,112,0,112,0,1,,,,,
,,514562,001,2023-07-31_20h49.15.216,arm3_eps,2022.2.5,Win32,59.78715772,61290e83a2d9e168e4392ead,64c7fed44a04f777bb1e18ce,64c8011de90c2231c8a6fb3a,right,1,0.75,0.05,6,0.069612173,0.1795,,,,,,113,0,113,0,1,,,,,
,,514562,001,2023-07-31_20h49.15.216,arm3_eps,2022.2.5,Win32,59.78715772,61290e83a2d9e168e4392ead,64c7fed44a04f777bb1e18ce,64c8011de90c2231c8a6fb3a,right,1,0.75,0.05,6,0.065121197,0.2462,,,,,,114,0,114,0,1,,,,,
,,514562,001,2023-07-31_20h49.15.216,arm3_eps,2022.2.5,Win32,59.78715772,61290e83a2d9e168e4392ead,64c7fed44a04f777bb1e18ce,64c8011de90c2231c8a6fb3a,right,1,0.75,0.05,6,0.080196045,0.1783,,,,,,115,0,115,0,1,,,,,
,,514562,001,2023-07-31_20h49.15.216,arm3_eps,2022.2.5,Win32,59.78715772,61290e83a2d9e168e4392ead,64c7fed44a04f777bb1e18ce,64c8011de90c2231c8a6fb3a,up,1,0.75,0.05,6,0,1.4121,,,,,,116,0,116,0,1,,,,,
,,514562,001,2023-07-31_20h49.15.216,arm3_eps,2022.2.5,Win32,59.78715772,61290e83a2d9e168e4392ead,64c7fed44a04f777bb1e18ce,64c8011de90c2231c8a6fb3a,right,1,0.75,0.05,6,-0.01236412,0.9966,,,,,,117,0,117,0,1,,,,,
,,514562,001,2023-07-31_20h49.15.216,arm3_eps,2022.2.5,Win32,59.78715772,61290e83a2d9e168e4392ead,64c7fed44a04f777bb1e18ce,64c8011de90c2231c8a6fb3a,right,1,0.75,0.05,6,-9.3721E-05,0.2012,,,,,,118,0,118,0,1,,,,,
,,514562,001,2023-07-31_20h49.15.216,arm3_eps,2022.2.5,Win32,59.78715772,61290e83a2d9e168e4392ead,64c7fed44a04f777bb1e18ce,64c8011de90c2231c8a6fb3a,right,1,0.75,0.05,6,-0.007164651,0.1845,,,,,,119,0,119,0,1,,,,,
,,514562,001,2023-07-31_20h49.15.216,arm3_eps,2022.2.5,Win32,59.78715772,61290e83a2d9e168e4392ead,64c7fed44a04f777bb1e18ce,64c8011de90c2231c8a6fb3a,right,1,0.75,0.05,6,-0.006365776,0.1638,,,,,,120,0,120,0,1,,,,,
,,514562,001,2023-07-31_20h49.15.216,arm3_eps,2022.2.5,Win32,59.78715772,61290e83a2d9e168e4392ead,64c7fed44a04f777bb1e18ce,64c8011de90c2231c8a6fb3a,right,1,0.75,0.05,6,-0.019576383,0.1461,,,,,,121,0,121,0,1,,,,,
,,514562,001,2023-07-31_20h49.15.216,arm3_eps,2022.2.5,Win32,59.78715772,61290e83a2d9e168e4392ead,64c7fed44a04f777bb1e18ce,64c8011de90c2231c8a6fb3a,right,1,0.75,0.05,6,-0.012081085,0.1973,,,,,,122,0,122,0,1,,,,,
,,514562,001,2023-07-31_20h49.15.216,arm3_eps,2022.2.5,Win32,59.78715772,61290e83a2d9e168e4392ead,64c7fed44a04f777bb1e18ce,64c8011de90c2231c8a6fb3a,right,1,0.75,0.05,6,0.014559597,0.1806,,,,,,123,0,123,0,1,,,,,
,,514562,001,2023-07-31_20h49.15.216,arm3_eps,2022.2.5,Win32,59.78715772,61290e83a2d9e168e4392ead,64c7fed44a04f777bb1e18ce,64c8011de90c2231c8a6fb3a,right,1,0.75,0.05,6,0.007412779,0.4127,,,,,,124,0,124,0,1,,,,,
,,514562,001,2023-07-31_20h49.15.216,arm3_eps,2022.2.5,Win32,59.78715772,61290e83a2d9e168e4392ead,64c7fed44a04f777bb1e18ce,64c8011de90c2231c8a6fb3a,right,1,0.75,0.05,6,0.011127507,0.1809,,,,,,125,0,125,0,1,,,,,
,,514562,001,2023-07-31_20h49.15.216,arm3_eps,2022.2.5,Win32,59.78715772,61290e83a2d9e168e4392ead,64c7fed44a04f777bb1e18ce,64c8011de90c2231c8a6fb3a,right,1,0.75,0.05,6,0.008298677,0.1806,,,,,,126,0,126,0,1,,,,,
,,514562,001,2023-07-31_20h49.15.216,arm3_eps,2022.2.5,Win32,59.78715772,61290e83a2d9e168e4392ead,64c7fed44a04f777bb1e18ce,64c8011de90c2231c8a6fb3a,right,1,0.75,0.05,6,0.008455715,0.181,,,,,,127,0,127,0,1,,,,,
,,514562,001,2023-07-31_20h49.15.216,arm3_eps,2022.2.5,Win32,59.78715772,61290e83a2d9e168e4392ead,64c7fed44a04f777bb1e18ce,64c8011de90c2231c8a6fb3a,right,1,0.75,0.05,6,0.014428259,0.2023,,,,,,128,0,128,0,1,,,,,
,,514562,001,2023-07-31_20h49.15.216,arm3_eps,2022.2.5,Win32,59.78715772,61290e83a2d9e168e4392ead,64c7fed44a04f777bb1e18ce,64c8011de90c2231c8a6fb3a,up,1,0.75,0.05,7,0,1.4653,,,,,,129,0,129,0,1,,,,,
,,514562,001,2023-07-31_20h49.15.216,arm3_eps,2022.2.5,Win32,59.78715772,61290e83a2d9e168e4392ead,64c7fed44a04f777bb1e18ce,64c8011de90c2231c8a6fb3a,right,1,0.75,0.05,7,0.0017453,0.7102,,,,,,130,0,130,0,1,,,,,
,,514562,001,2023-07-31_20h49.15.216,arm3_eps,2022.2.5,Win32,59.78715772,61290e83a2d9e168e4392ead,64c7fed44a04f777bb1e18ce,64c8011de90c2231c8a6fb3a,right,1,0.75,0.05,7,0.006206925,0.2191,,,,,,131,0,131,0,1,,,,,
,,514562,001,2023-07-31_20h49.15.216,arm3_eps,2022.2.5,Win32,59.78715772,61290e83a2d9e168e4392ead,64c7fed44a04f777bb1e18ce,64c8011de90c2231c8a6fb3a,right,1,0.75,0.05,7,-0.009306582,0.1793,,,,,,132,0,132,0,1,,,,,
,,514562,001,2023-07-31_20h49.15.216,arm3_eps,2022.2.5,Win32,59.78715772,61290e83a2d9e168e4392ead,64c7fed44a04f777bb1e18ce,64c8011de90c2231c8a6fb3a,right,1,0.75,0.05,7,0.012319253,0.1792,,,,,,133,0,133,0,1,,,,,
,,514562,001,2023-07-31_20h49.15.216,arm3_eps,2022.2.5,Win32,59.78715772,61290e83a2d9e168e4392ead,64c7fed44a04f777bb1e18ce,64c8011de90c2231c8a6fb3a,right,1,0.75,0.05,7,0.011160935,0.1797,,,,,,134,0,134,0,1,,,,,
,,514562,001,2023-07-31_20h49.15.216,arm3_eps,2022.2.5,Win32,59.78715772,61290e83a2d9e168e4392ead,64c7fed44a04f777bb1e18ce,64c8011de90c2231c8a6fb3a,right,1,0.75,0.05,7,0.038608877,0.1989,,,,,,135,0,135,0,1,,,,,
,,514562,001,2023-07-31_20h49.15.216,arm3_eps,2022.2.5,Win32,59.78715772,61290e83a2d9e168e4392ead,64c7fed44a04f777bb1e18ce,64c8011de90c2231c8a6fb3a,right,1,0.75,0.05,7,0.033265129,0.2103,,,,,,136,0,136,0,1,,,,,
,,514562,001,2023-07-31_20h49.15.216,arm3_eps,2022.2.5,Win32,59.78715772,61290e83a2d9e168e4392ead,64c7fed44a04f777bb1e18ce,64c8011de90c2231c8a6fb3a,right,1,0.75,0.05,7,0.069103039,0.1757,,,,,,137,0,137,0,1,,,,,
,,514562,001,2023-07-31_20h49.15.216,arm3_eps,2022.2.5,Win32,59.78715772,61290e83a2d9e168e4392ead,64c7fed44a04f777bb1e18ce,64c8011de90c2231c8a6fb3a,right,1,0.75,0.05,7,0.082598849,0.1669,,,,,,138,0,138,0,1,,,,,
,,514562,001,2023-07-31_20h49.15.216,arm3_eps,2022.2.5,Win32,59.78715772,61290e83a2d9e168e4392ead,64c7fed44a04f777bb1e18ce,64c8011de90c2231c8a6fb3a,right,1,0.75,0.05,7,0.083929154,0.1524,,,,,,139,0,139,0,1,,,,,
,,514562,001,2023-07-31_20h49.15.216,arm3_eps,2022.2.5,Win32,59.78715772,61290e83a2d9e168e4392ead,64c7fed44a04f777bb1e18ce,64c8011de90c2231c8a6fb3a,right,1,0.75,0.05,7,0.081198311,0.2649,,,,,,140,0,140,0,1,,,,,
,,514562,001,2023-07-31_20h49.15.216,arm3_eps,2022.2.5,Win32,59.78715772,61290e83a2d9e168e4392ead,64c7fed44a04f777bb1e18ce,64c8011de90c2231c8a6fb3a,right,1,0.75,0.05,7,0.101114955,0.1856,,,,,,141,0,141,0,1,,,,,
,,514562,001,2023-07-31_20h49.15.216,arm3_eps,2022.2.5,Win32,59.78715772,61290e83a2d9e168e4392ead,64c7fed44a04f777bb1e18ce,64c8011de90c2231c8a6fb3a,up,1,0.75,0.05,7,0,1.0983,,,,,,142,0,142,0,1,,,,,
,,514562,001,2023-07-31_20h49.15.216,arm3_eps,2022.2.5,Win32,59.78715772,61290e83a2d9e168e4392ead,64c7fed44a04f777bb1e18ce,64c8011de90c2231c8a6fb3a,right,1,0.75,0.05,7,-0.012644736,0.9532,,,,,,143,0,143,0,1,,,,,
,,514562,001,2023-07-31_20h49.15.216,arm3_eps,2022.2.5,Win32,59.78715772,61290e83a2d9e168e4392ead,64c7fed44a04f777bb1e18ce,64c8011de90c2231c8a6fb3a,right,1,0.75,0.05,7,-0.019170907,0.1962,,,,,,144,0,144,0,1,,,,,
,,514562,001,2023-07-31_20h49.15.216,arm3_eps,2022.2.5,Win32,59.78715772,61290e83a2d9e168e4392ead,64c7fed44a04f777bb1e18ce,64c8011de90c2231c8a6fb3a,right,1,0.75,0.05,7,0.020347463,0.1802,,,,,,145,0,145,0,1,,,,,
,,514562,001,2023-07-31_20h49.15.216,arm3_eps,2022.2.5,Win32,59.78715772,61290e83a2d9e168e4392ead,64c7fed44a04f777bb1e18ce,64c8011de90c2231c8a6fb3a,right,1,0.75,0.05,7,0.055141769,0.129,,,,,,146,0,146,0,1,,,,,
,,514562,001,2023-07-31_20h49.15.216,arm3_eps,2022.2.5,Win32,59.78715772,61290e83a2d9e168e4392ead,64c7fed44a04f777bb1e18ce,64c8011de90c2231c8a6fb3a,right,1,0.75,0.05,7,0.073813645,0.6963,,,,,,147,0,147,0,1,,,,,
,,514562,001,2023-07-31_20h49.15.216,arm3_eps,2022.2.5,Win32,59.78715772,61290e83a2d9e168e4392ead,64c7fed44a04f777bb1e18ce,64c8011de90c2231c8a6fb3a,right,1,0.75,0.05,7,0.0838874,0.2032,,,,,,148,0,148,0,1,,,,,
,,514562,001,2023-07-31_20h49.15.216,arm3_eps,2022.2.5,Win32,59.78715772,61290e83a2d9e168e4392ead,64c7fed44a04f777bb1e18ce,64c8011de90c2231c8a6fb3a,right,1,0.75,0.05,7,0.11029945,0.1959,,,,,,149,0,149,0,1,,,,,
,,514562,001,2023-07-31_20h49.15.216,arm3_eps,2022.2.5,Win32,59.78715772,61290e83a2d9e168e4392ead,64c7fed44a04f777bb1e18ce,64c8011de90c2231c8a6fb3a,right,1,0.75,0.05,7,0.114187451,0.1642,,,,,,150,0,150,0,1,,,,,
,,514562,001,2023-07-31_20h49.15.216,arm3_eps,2022.2.5,Win32,59.78715772,61290e83a2d9e168e4392ead,64c7fed44a04f777bb1e18ce,64c8011de90c2231c8a6fb3a,right,1,0.75,0.05,7,0.132511405,0.1784,,,,,,151,0,151,0,1,,,,,
,,514562,001,2023-07-31_20h49.15.216,arm3_eps,2022.2.5,Win32,59.78715772,61290e83a2d9e168e4392ead,64c7fed44a04f777bb1e18ce,64c8011de90c2231c8a6fb3a,right,1,0.75,0.05,7,0.167198922,0.2408,,,,,,152,0,152,0,1,,,,,
,,514562,001,2023-07-31_20h49.15.216,arm3_eps,2022.2.5,Win32,59.78715772,61290e83a2d9e168e4392ead,64c7fed44a04f777bb1e18ce,64c8011de90c2231c8a6fb3a,right,1,0.75,0.05,7,0.165285077,0.2118,,,,,,153,0,153,0,1,,,,,
,,514562,001,2023-07-31_20h49.15.216,arm3_eps,2022.2.5,Win32,59.78715772,61290e83a2d9e168e4392ead,64c7fed44a04f777bb1e18ce,64c8011de90c2231c8a6fb3a,right,1,0.75,0.05,7,0.169458357,0.2469,,,,,,154,0,154,0,1,,,,,
,,514562,001,2023-07-31_20h49.15.216,arm3_eps,2022.2.5,Win32,59.78715772,61290e83a2d9e168e4392ead,64c7fed44a04f777bb1e18ce,64c8011de90c2231c8a6fb3a,up,1,0.75,0.05,7,0,1.0464,,,,,,155,0,155,0,1,,,,,
,,514562,001,2023-07-31_20h49.15.216,arm3_eps,2022.2.5,Win32,59.78715772,61290e83a2d9e168e4392ead,64c7fed44a04f777bb1e18ce,64c8011de90c2231c8a6fb3a,right,1,0.75,0.05,7,0.007045238,0.6242,,,,,,156,0,156,0,1,,,,,
,,514562,001,2023-07-31_20h49.15.216,arm3_eps,2022.2.5,Win32,59.78715772,61290e83a2d9e168e4392ead,64c7fed44a04f777bb1e18ce,64c8011de90c2231c8a6fb3a,right,1,0.75,0.05,7,0.045519208,0.2437,,,,,,157,0,157,0,1,,,,,
,,514562,001,2023-07-31_20h49.15.216,arm3_eps,2022.2.5,Win32,59.78715772,61290e83a2d9e168e4392ead,64c7fed44a04f777bb1e18ce,64c8011de90c2231c8a6fb3a,right,1,0.75,0.05,7,0.080938321,0.1664,,,,,,158,0,158,0,1,,,,,
,,514562,001,2023-07-31_20h49.15.216,arm3_eps,2022.2.5,Win32,59.78715772,61290e83a2d9e168e4392ead,64c7fed44a04f777bb1e18ce,64c8011de90c2231c8a6fb3a,right,1,0.75,0.05,7,0.126364004,0.1622,,,,,,159,0,159,0,1,,,,,
,,514562,001,2023-07-31_20h49.15.216,arm3_eps,2022.2.5,Win32,59.78715772,61290e83a2d9e168e4392ead,64c7fed44a04f777bb1e18ce,64c8011de90c2231c8a6fb3a,right,1,0.75,0.05,7,0.12294583,0.1679,,,,,,160,0,160,0,1,,,,,
,,514562,001,2023-07-31_20h49.15.216,arm3_eps,2022.2.5,Win32,59.78715772,61290e83a2d9e168e4392ead,64c7fed44a04f777bb1e18ce,64c8011de90c2231c8a6fb3a,right,1,0.75,0.05,7,0.146671887,0.1953,,,,,,161,0,161,0,1,,,,,
,,514562,001,2023-07-31_20h49.15.216,arm3_eps,2022.2.5,Win32,59.78715772,61290e83a2d9e168e4392ead,64c7fed44a04f777bb1e18ce,64c8011de90c2231c8a6fb3a,right,1,0.75,0.05,7,0.151729554,0.1869,,,,,,162,0,162,0,1,,,,,
,,514562,001,2023-07-31_20h49.15.216,arm3_eps,2022.2.5,Win32,59.78715772,61290e83a2d9e168e4392ead,64c7fed44a04f777bb1e18ce,64c8011de90c2231c8a6fb3a,right,1,0.75,0.05,7,0.162981497,0.2081,,,,,,163,0,163,0,1,,,,,
,,514562,001,2023-07-31_20h49.15.216,arm3_eps,2022.2.5,Win32,59.78715772,61290e83a2d9e168e4392ead,64c7fed44a04f777bb1e18ce,64c8011de90c2231c8a6fb3a,right,1,0.75,0.05,7,0.16055553,0.1831,,,,,,164,0,164,0,1,,,,,
,,514562,001,2023-07-31_20h49.15.216,arm3_eps,2022.2.5,Win32,59.78715772,61290e83a2d9e168e4392ead,64c7fed44a04f777bb1e18ce,64c8011de90c2231c8a6fb3a,right,1,0.75,0.05,7,0.139492404,0.2278,,,,,,165,0,165,0,1,,,,,
,,514562,001,2023-07-31_20h49.15.216,arm3_eps,2022.2.5,Win32,59.78715772,61290e83a2d9e168e4392ead,64c7fed44a04f777bb1e18ce,64c8011de90c2231c8a6fb3a,right,1,0.75,0.05,7,0.155840997,0.1875,,,,,,166,0,166,0,1,,,,,
,,514562,001,2023-07-31_20h49.15.216,arm3_eps,2022.2.5,Win32,59.78715772,61290e83a2d9e168e4392ead,64c7fed44a04f777bb1e18ce,64c8011de90c2231c8a6fb3a,right,1,0.75,0.05,7,0.108833643,0.2785,,,,,,167,0,167,0,1,,,,,
,,514562,001,2023-07-31_20h49.15.216,arm3_eps,2022.2.5,Win32,59.78715772,61290e83a2d9e168e4392ead,64c7fed44a04f777bb1e18ce,64c8011de90c2231c8a6fb3a,up,1,0.75,0.05,8,0,1.0856,,,,,,168,0,168,0,1,,,,,
,,514562,001,2023-07-31_20h49.15.216,arm3_eps,2022.2.5,Win32,59.78715772,61290e83a2d9e168e4392ead,64c7fed44a04f777bb1e18ce,64c8011de90c2231c8a6fb3a,right,1,0.75,0.05,8,0.01297388,0.9743,,,,,,169,0,169,0,1,,,,,
,,514562,001,2023-07-31_20h49.15.216,arm3_eps,2022.2.5,Win32,59.78715772,61290e83a2d9e168e4392ead,64c7fed44a04f777bb1e18ce,64c8011de90c2231c8a6fb3a,right,1,0.75,0.05,8,0.017935712,0.1925,,,,,,170,0,170,0,1,,,,,
,,514562,001,2023-07-31_20h49.15.216,arm3_eps,2022.2.5,Win32,59.78715772,61290e83a2d9e168e4392ead,64c7fed44a04f777bb1e18ce,64c8011de90c2231c8a6fb3a,right,1,0.75,0.05,8,0.037849164,0.3699,,,,,,171,0,171,0,1,,,,,
,,514562,001,2023-07-31_20h49.15.216,arm3_eps,2022.2.5,Win32,59.78715772,61290e83a2d9e168e4392ead,64c7fed44a04f777bb1e18ce,64c8011de90c2231c8a6fb3a,right,1,0.75,0.05,8,0.045366398,0.2475,,,,,,172,0,172,0,1,,,,,
,,514562,001,2023-07-31_20h49.15.216,arm3_eps,2022.2.5,Win32,59.78715772,61290e83a2d9e168e4392ead,64c7fed44a04f777bb1e18ce,64c8011de90c2231c8a6fb3a,right,1,0.75,0.05,8,0.060551437,0.2129,,,,,,173,0,173,0,1,,,,,
,,514562,001,2023-07-31_20h49.15.216,arm3_eps,2022.2.5,Win32,59.78715772,61290e83a2d9e168e4392ead,64c7fed44a04f777bb1e18ce,64c8011de90c2231c8a6fb3a,right,1,0.75,0.05,8,0.044257505,0.1961,,,,,,174,0,174,0,1,,,,,
,,514562,001,2023-07-31_20h49.15.216,arm3_eps,2022.2.5,Win32,59.78715772,61290e83a2d9e168e4392ead,64c7fed44a04f777bb1e18ce,64c8011de90c2231c8a6fb3a,right,1,0.75,0.05,8,0.076703008,0.1968,,,,,,175,0,175,0,1,,,,,
,,514562,001,2023-07-31_20h49.15.216,arm3_eps,2022.2.5,Win32,59.78715772,61290e83a2d9e168e4392ead,64c7fed44a04f777bb1e18ce,64c8011de90c2231c8a6fb3a,right,1,0.75,0.05,8,0.105856562,0.1612,,,,,,176,0,176,0,1,,,,,
,,514562,001,2023-07-31_20h49.15.216,arm3_eps,2022.2.5,Win32,59.78715772,61290e83a2d9e168e4392ead,64c7fed44a04f777bb1e18ce,64c8011de90c2231c8a6fb3a,right,1,0.75,0.05,8,0.119881593,0.1852,,,,,,177,0,177,0,1,,,,,
,,514562,001,2023-07-31_20h49.15.216,arm3_eps,2022.2.5,Win32,59.78715772,61290e83a2d9e168e4392ead,64c7fed44a04f777bb1e18ce,64c8011de90c2231c8a6fb3a,right,1,0.75,0.05,8,0.125350256,0.1866,,,,,,178,0,178,0,1,,,,,
,,514562,001,2023-07-31_20h49.15.216,arm3_eps,2022.2.5,Win32,59.78715772,61290e83a2d9e168e4392ead,64c7fed44a04f777bb1e18ce,64c8011de90c2231c8a6fb3a,right,1,0.75,0.05,8,0.1248763,0.1841,,,,,,179,0,179,0,1,,,,,
,,514562,001,2023-07-31_20h49.15.216,arm3_eps,2022.2.5,Win32,59.78715772,61290e83a2d9e168e4392ead,64c7fed44a04f777bb1e18ce,64c8011de90c2231c8a6fb3a,right,1,0.75,0.05,8,0.143487345,0.1766,,,,,,180,0,180,0,1,,,,,
,,514562,001,2023-07-31_20h49.15.216,arm3_eps,2022.2.5,Win32,59.78715772,61290e83a2d9e168e4392ead,64c7fed44a04f777bb1e18ce,64c8011de90c2231c8a6fb3a,up,1,0.75,0.05,9,0,1.4107,,,,,,181,0,181,0,1,,,,,
,,514562,001,2023-07-31_20h49.15.216,arm3_eps,2022.2.5,Win32,59.78715772,61290e83a2d9e168e4392ead,64c7fed44a04f777bb1e18ce,64c8011de90c2231c8a6fb3a,right,1,0.75,0.05,9,0.033662828,1.1541,,,,,,182,0,182,0,1,,,,,
,,514562,001,2023-07-31_20h49.15.216,arm3_eps,2022.2.5,Win32,59.78715772,61290e83a2d9e168e4392ead,64c7fed44a04f777bb1e18ce,64c8011de90c2231c8a6fb3a,right,1,0.75,0.05,9,0.055483819,0.1784,,,,,,183,0,183,0,1,,,,,
,,514562,001,2023-07-31_20h49.15.216,arm3_eps,2022.2.5,Win32,59.78715772,61290e83a2d9e168e4392ead,64c7fed44a04f777bb1e18ce,64c8011de90c2231c8a6fb3a,right,1,0.75,0.05,9,0.07783704,0.2139,,,,,,184,0,184,0,1,,,,,
,,514562,001,2023-07-31_20h49.15.216,arm3_eps,2022.2.5,Win32,59.78715772,61290e83a2d9e168e4392ead,64c7fed44a04f777bb1e18ce,64c8011de90c2231c8a6fb3a,right,1,0.75,0.05,9,0.095396175,0.2125,,,,,,185,0,185,0,1,,,,,
,,514562,001,2023-07-31_20h49.15.216,arm3_eps,2022.2.5,Win32,59.78715772,61290e83a2d9e168e4392ead,64c7fed44a04f777bb1e18ce,64c8011de90c2231c8a6fb3a,right,1,0.75,0.05,9,0.088488934,0.1926,,,,,,186,0,186,0,1,,,,,
,,514562,001,2023-07-31_20h49.15.216,arm3_eps,2022.2.5,Win32,59.78715772,61290e83a2d9e168e4392ead,64c7fed44a04f777bb1e18ce,64c8011de90c2231c8a6fb3a,right,1,0.75,0.05,9,0.10760844,0.1983,,,,,,187,0,187,0,1,,,,,
,,514562,001,2023-07-31_20h49.15.216,arm3_eps,2022.2.5,Win32,59.78715772,61290e83a2d9e168e4392ead,64c7fed44a04f777bb1e18ce,64c8011de90c2231c8a6fb3a,right,1,0.75,0.05,9,0.127421566,0.1991,,,,,,188,0,188,0,1,,,,,
,,514562,001,2023-07-31_20h49.15.216,arm3_eps,2022.2.5,Win32,59.78715772,61290e83a2d9e168e4392ead,64c7fed44a04f777bb1e18ce,64c8011de90c2231c8a6fb3a,right,1,0.75,0.05,9,0.11707137,0.2143,,,,,,189,0,189,0,1,,,,,
,,514562,001,2023-07-31_20h49.15.216,arm3_eps,2022.2.5,Win32,59.78715772,61290e83a2d9e168e4392ead,64c7fed44a04f777bb1e18ce,64c8011de90c2231c8a6fb3a,right,1,0.75,0.05,9,0.125719269,0.2459,,,,,,190,0,190,0,1,,,,,
,,514562,001,2023-07-31_20h49.15.216,arm3_eps,2022.2.5,Win32,59.78715772,61290e83a2d9e168e4392ead,64c7fed44a04f777bb1e18ce,64c8011de90c2231c8a6fb3a,right,1,0.75,0.05,9,0.151760247,0.1829,,,,,,191,0,191,0,1,,,,,
,,514562,001,2023-07-31_20h49.15.216,arm3_eps,2022.2.5,Win32,59.78715772,61290e83a2d9e168e4392ead,64c7fed44a04f777bb1e18ce,64c8011de90c2231c8a6fb3a,right,1,0.75,0.05,9,0.167637966,0.1641,,,,,,192,0,192,0,1,,,,,
,,514562,001,2023-07-31_20h49.15.216,arm3_eps,2022.2.5,Win32,59.78715772,61290e83a2d9e168e4392ead,64c7fed44a04f777bb1e18ce,64c8011de90c2231c8a6fb3a,right,1,0.75,0.05,9,0.164651591,0.1861,,,,,,193,0,193,0,1,,,,,
,,514562,001,2023-07-31_20h49.15.216,arm3_eps,2022.2.5,Win32,59.78715772,61290e83a2d9e168e4392ead,64c7fed44a04f777bb1e18ce,64c8011de90c2231c8a6fb3a,up,1,0.75,0.05,10,0,1.2457,,,,,,194,0,194,0,1,,,,,
,,514562,001,2023-07-31_20h49.15.216,arm3_eps,2022.2.5,Win32,59.78715772,61290e83a2d9e168e4392ead,64c7fed44a04f777bb1e18ce,64c8011de90c2231c8a6fb3a,right,1,0.75,0.05,10,0.007026014,0.7563,,,,,,195,0,195,0,1,,,,,
,,514562,001,2023-07-31_20h49.15.216,arm3_eps,2022.2.5,Win32,59.78715772,61290e83a2d9e168e4392ead,64c7fed44a04f777bb1e18ce,64c8011de90c2231c8a6fb3a,right,1,0.75,0.05,10,0.017467936,0.1794,,,,,,196,0,196,0,1,,,,,
,,514562,001,2023-07-31_20h49.15.216,arm3_eps,2022.2.5,Win32,59.78715772,61290e83a2d9e168e4392ead,64c7fed44a04f777bb1e18ce,64c8011de90c2231c8a6fb3a,right,1,0.75,0.05,10,0.01096233,0.2039,,,,,,197,0,197,0,1,,,,,
,,514562,001,2023-07-31_20h49.15.216,arm3_eps,2022.2.5,Win32,59.78715772,61290e83a2d9e168e4392ead,64c7fed44a04f777bb1e18ce,64c8011de90c2231c8a6fb3a,right,1,0.75,0.05,10,0.013054453,0.3943,,,,,,198,0,198,0,1,,,,,
,,514562,001,2023-07-31_20h49.15.216,arm3_eps,2022.2.5,Win32,59.78715772,61290e83a2d9e168e4392ead,64c7fed44a04f777bb1e18ce,64c8011de90c2231c8a6fb3a,right,1,0.75,0.05,10,0.009094402,0.1999,,,,,,199,0,199,0,1,,,,,
,,514562,001,2023-07-31_20h49.15.216,arm3_eps,2022.2.5,Win32,59.78715772,61290e83a2d9e168e4392ead,64c7fed44a04f777bb1e18ce,64c8011de90c2231c8a6fb3a,right,1,0.75,0.05,10,0.0042787,0.2127,,,,,,200,0,200,0,1,,,,,
,,514562,001,2023-07-31_20h49.15.216,arm3_eps,2022.2.5,Win32,59.78715772,61290e83a2d9e168e4392ead,64c7fed44a04f777bb1e18ce,64c8011de90c2231c8a6fb3a,right,1,0.75,0.05,10,0.011226985,0.1799,,,,,,201,0,201,0,1,,,,,
,,514562,001,2023-07-31_20h49.15.216,arm3_eps,2022.2.5,Win32,59.78715772,61290e83a2d9e168e4392ead,64c7fed44a04f777bb1e18ce,64c8011de90c2231c8a6fb3a,right,1,0.75,0.05,10,-0.002331973,0.2118,,,,,,202,0,202,0,1,,,,,
,,514562,001,2023-07-31_20h49.15.216,arm3_eps,2022.2.5,Win32,59.78715772,61290e83a2d9e168e4392ead,64c7fed44a04f777bb1e18ce,64c8011de90c2231c8a6fb3a,right,1,0.75,0.05,10,0.020873267,0.2127,,,,,,203,0,203,0,1,,,,,
,,514562,001,2023-07-31_20h49.15.216,arm3_eps,2022.2.5,Win32,59.78715772,61290e83a2d9e168e4392ead,64c7fed44a04f777bb1e18ce,64c8011de90c2231c8a6fb3a,right,1,0.75,0.05,10,0.056475781,0.1987,,,,,,204,0,204,0,1,,,,,
,,514562,001,2023-07-31_20h49.15.216,arm3_eps,2022.2.5,Win32,59.78715772,61290e83a2d9e168e4392ead,64c7fed44a04f777bb1e18ce,64c8011de90c2231c8a6fb3a,right,1,0.75,0.05,10,0.082724577,0.2304,,,,,,205,0,205,0,1,,,,,
,,514562,001,2023-07-31_20h49.15.216,arm3_eps,2022.2.5,Win32,59.78715772,61290e83a2d9e168e4392ead,64c7fed44a04f777bb1e18ce,64c8011de90c2231c8a6fb3a,right,1,0.75,0.05,10,0.077579315,0.2197,,,,,,206,0,206,0,1,,,,,
,,514562,001,2023-07-31_20h49.15.216,arm3_eps,2022.2.5,Win32,59.78715772,61290e83a2d9e168e4392ead,64c7fed44a04f777bb1e18ce,64c8011de90c2231c8a6fb3a,up,-1,0.75,0.05,10,0,1.8628,,,,,,207,0,207,0,1,,,,,
,,514562,001,2023-07-31_20h49.15.216,arm3_eps,2022.2.5,Win32,59.78715772,61290e83a2d9e168e4392ead,64c7fed44a04f777bb1e18ce,64c8011de90c2231c8a6fb3a,right,-1,0.75,0.05,10,0.010124586,0.8472,,,,,,208,0,208,0,1,,,,,
,,514562,001,2023-07-31_20h49.15.216,arm3_eps,2022.2.5,Win32,59.78715772,61290e83a2d9e168e4392ead,64c7fed44a04f777bb1e18ce,64c8011de90c2231c8a6fb3a,right,-1,0.75,0.05,10,0.009252517,0.2137,,,,,,209,0,209,0,1,,,,,
,,514562,001,2023-07-31_20h49.15.216,arm3_eps,2022.2.5,Win32,59.78715772,61290e83a2d9e168e4392ead,64c7fed44a04f777bb1e18ce,64c8011de90c2231c8a6fb3a,right,-1,0.75,0.05,10,0.014067662,0.3866,,,,,,210,0,210,0,1,,,,,
,,514562,001,2023-07-31_20h49.15.216,arm3_eps,2022.2.5,Win32,59.78715772,61290e83a2d9e168e4392ead,64c7fed44a04f777bb1e18ce,64c8011de90c2231c8a6fb3a,right,-1,0.75,0.05,10,0.014628333,0.3322,,,,,,211,0,211,0,1,,,,,
,,514562,001,2023-07-31_20h49.15.216,arm3_eps,2022.2.5,Win32,59.78715772,61290e83a2d9e168e4392ead,64c7fed44a04f777bb1e18ce,64c8011de90c2231c8a6fb3a,right,-1,0.75,0.05,10,-0.027246063,0.1624,,,,,,212,0,212,0,1,,,,,
,,514562,001,2023-07-31_20h49.15.216,arm3_eps,2022.2.5,Win32,59.78715772,61290e83a2d9e168e4392ead,64c7fed44a04f777bb1e18ce,64c8011de90c2231c8a6fb3a,right,-1,0.75,0.05,10,-0.043305978,0.1775,,,,,,213,0,213,0,1,,,,,
,,514562,001,2023-07-31_20h49.15.216,arm3_eps,2022.2.5,Win32,59.78715772,61290e83a2d9e168e4392ead,64c7fed44a04f777bb1e18ce,64c8011de90c2231c8a6fb3a,right,-1,0.75,0.05,10,-0.042815478,0.1777,,,,,,214,0,214,0,1,,,,,
,,514562,001,2023-07-31_20h49.15.216,arm3_eps,2022.2.5,Win32,59.78715772,61290e83a2d9e168e4392ead,64c7fed44a04f777bb1e18ce,64c8011de90c2231c8a6fb3a,right,-1,0.75,0.05,10,-0.060210494,0.162,,,,,,215,0,215,0,1,,,,,
,,514562,001,2023-07-31_20h49.15.216,arm3_eps,2022.2.5,Win32,59.78715772,61290e83a2d9e168e4392ead,64c7fed44a04f777bb1e18ce,64c8011de90c2231c8a6fb3a,right,-1,0.75,0.05,10,-0.057555786,0.1972,,,,,,216,0,216,0,1,,,,,
,,514562,001,2023-07-31_20h49.15.216,arm3_eps,2022.2.5,Win32,59.78715772,61290e83a2d9e168e4392ead,64c7fed44a04f777bb1e18ce,64c8011de90c2231c8a6fb3a,right,-1,0.75,0.05,10,-0.064188347,0.1794,,,,,,217,0,217,0,1,,,,,
,,514562,001,2023-07-31_20h49.15.216,arm3_eps,2022.2.5,Win32,59.78715772,61290e83a2d9e168e4392ead,64c7fed44a04f777bb1e18ce,64c8011de90c2231c8a6fb3a,right,-1,0.75,0.05,10,-0.116962153,0.1867,,,,,,218,0,218,0,1,,,,,
,,514562,001,2023-07-31_20h49.15.216,arm3_eps,2022.2.5,Win32,59.78715772,61290e83a2d9e168e4392ead,64c7fed44a04f777bb1e18ce,64c8011de90c2231c8a6fb3a,right,-1,0.75,0.05,10,-0.139897161,0.3625,,,,,,219,0,219,0,1,,,,,
,,514562,001,2023-07-31_20h49.15.216,arm3_eps,2022.2.5,Win32,59.78715772,61290e83a2d9e168e4392ead,64c7fed44a04f777bb1e18ce,64c8011de90c2231c8a6fb3a,down,-1,0.75,0.05,11,0,1.1117,,,,,,220,0,220,0,1,,,,,
,,514562,001,2023-07-31_20h49.15.216,arm3_eps,2022.2.5,Win32,59.78715772,61290e83a2d9e168e4392ead,64c7fed44a04f777bb1e18ce,64c8011de90c2231c8a6fb3a,right,-1,0.75,0.05,11,-0.018643876,0.6569,,,,,,221,0,221,0,1,,,,,
,,514562,001,2023-07-31_20h49.15.216,arm3_eps,2022.2.5,Win32,59.78715772,61290e83a2d9e168e4392ead,64c7fed44a04f777bb1e18ce,64c8011de90c2231c8a6fb3a,right,-1,0.75,0.05,11,-0.023927825,0.2261,,,,,,222,0,222,0,1,,,,,
,,514562,001,2023-07-31_20h49.15.216,arm3_eps,2022.2.5,Win32,59.78715772,61290e83a2d9e168e4392ead,64c7fed44a04f777bb1e18ce,64c8011de90c2231c8a6fb3a,right,-1,0.75,0.05,11,-0.062119875,0.1608,,,,,,223,0,223,0,1,,,,,
,,514562,001,2023-07-31_20h49.15.216,arm3_eps,2022.2.5,Win32,59.78715772,61290e83a2d9e168e4392ead,64c7fed44a04f777bb1e18ce,64c8011de90c2231c8a6fb3a,right,-1,0.75,0.05,11,-0.096775241,0.1664,,,,,,224,0,224,0,1,,,,,
,,514562,001,2023-07-31_20h49.15.216,arm3_eps,2022.2.5,Win32,59.78715772,61290e83a2d9e168e4392ead,64c7fed44a04f777bb1e18ce,64c8011de90c2231c8a6fb3a,right,-1,0.75,0.05,11,-0.093004488,0.1674,,,,,,225,0,225,0,1,,,,,
,,514562,001,2023-07-31_20h49.15.216,arm3_eps,2022.2.5,Win32,59.78715772,61290e83a2d9e168e4392ead,64c7fed44a04f777bb1e18ce,64c8011de90c2231c8a6fb3a,right,-1,0.75,0.05,11,-0.073925493,0.1966,,,,,,226,0,226,0,1,,,,,
,,514562,001,2023-07-31_20h49.15.216,arm3_eps,2022.2.5,Win32,59.78715772,61290e83a2d9e168e4392ead,64c7fed44a04f777bb1e18ce,64c8011de90c2231c8a6fb3a,right,-1,0.75,0.05,11,-0.071531948,0.1936,,,,,,227,0,227,0,1,,,,,
,,514562,001,2023-07-31_20h49.15.216,arm3_eps,2022.2.5,Win32,59.78715772,61290e83a2d9e168e4392ead,64c7fed44a04f777bb1e18ce,64c8011de90c2231c8a6fb3a,right,-1,0.75,0.05,11,-0.094639022,0.1897,,,,,,228,0,228,0,1,,,,,
,,514562,001,2023-07-31_20h49.15.216,arm3_eps,2022.2.5,Win32,59.78715772,61290e83a2d9e168e4392ead,64c7fed44a04f777bb1e18ce,64c8011de90c2231c8a6fb3a,right,-1,0.75,0.05,11,-0.100696008,0.1984,,,,,,229,0,229,0,1,,,,,
,,514562,001,2023-07-31_20h49.15.216,arm3_eps,2022.2.5,Win32,59.78715772,61290e83a2d9e168e4392ead,64c7fed44a04f777bb1e18ce,64c8011de90c2231c8a6fb3a,right,-1,0.75,0.05,11,-0.105859766,0.1947,,,,,,230,0,230,0,1,,,,,
,,514562,001,2023-07-31_20h49.15.216,arm3_eps,2022.2.5,Win32,59.78715772,61290e83a2d9e168e4392ead,64c7fed44a04f777bb1e18ce,64c8011de90c2231c8a6fb3a,right,-1,0.75,0.05,11,-0.101741508,0.1961,,,,,,231,0,231,0,1,,,,,
,,514562,001,2023-07-31_20h49.15.216,arm3_eps,2022.2.5,Win32,59.78715772,61290e83a2d9e168e4392ead,64c7fed44a04f777bb1e18ce,64c8011de90c2231c8a6fb3a,right,-1,0.75,0.05,11,-0.12474183,0.1933,,,,,,232,0,232,0,1,,,,,
,,514562,001,2023-07-31_20h49.15.216,arm3_eps,2022.2.5,Win32,59.78715772,61290e83a2d9e168e4392ead,64c7fed44a04f777bb1e18ce,64c8011de90c2231c8a6fb3a,down,-1,0.75,0.05,12,0,1.045,,,,,,233,0,233,0,1,,,,,
,,514562,001,2023-07-31_20h49.15.216,arm3_eps,2022.2.5,Win32,59.78715772,61290e83a2d9e168e4392ead,64c7fed44a04f777bb1e18ce,64c8011de90c2231c8a6fb3a,right,-1,0.75,0.05,12,-0.015312143,0.6558,,,,,,234,0,234,0,1,,,,,
,,514562,001,2023-07-31_20h49.15.216,arm3_eps,2022.2.5,Win32,59.78715772,61290e83a2d9e168e4392ead,64c7fed44a04f777bb1e18ce,64c8011de90c2231c8a6fb3a,right,-1,0.75,0.05,12,-0.032439348,0.1988,,,,,,235,0,235,0,1,,,,,
,,514562,001,2023-07-31_20h49.15.216,arm3_eps,2022.2.5,Win32,59.78715772,61290e83a2d9e168e4392ead,64c7fed44a04f777bb1e18ce,64c8011de90c2231c8a6fb3a,right,-1,0.75,0.05,12,-0.065523865,0.1815,,,,,,236,0,236,0,1,,,,,
,,514562,001,2023-07-31_20h49.15.216,arm3_eps,2022.2.5,Win32,59.78715772,61290e83a2d9e168e4392ead,64c7fed44a04f777bb1e18ce,64c8011de90c2231c8a6fb3a,right,-1,0.75,0.05,12,-0.086449273,0.1706,,,,,,237,0,237,0,1,,,,,
,,514562,001,2023-07-31_20h49.15.216,arm3_eps,2022.2.5,Win32,59.78715772,61290e83a2d9e168e4392ead,64c7fed44a04f777bb1e18ce,64c8011de90c2231c8a6fb3a,right,-1,0.75,0.05,12,-0.083120567,0.1956,,,,,,238,0,238,0,1,,,,,
,,514562,001,2023-07-31_20h49.15.216,arm3_eps,2022.2.5,Win32,59.78715772,61290e83a2d9e168e4392ead,64c7fed44a04f777bb1e18ce,64c8011de90c2231c8a6fb3a,right,-1,0.75,0.05,12,-0.081455598,0.1858,,,,,,239,0,239,0,1,,,,,
,,514562,001,2023-07-31_20h49.15.216,arm3_eps,2022.2.5,Win32,59.78715772,61290e83a2d9e168e4392ead,64c7fed44a04f777bb1e18ce,64c8011de90c2231c8a6fb3a,right,-1,0.75,0.05,12,-0.128075207,0.1779,,,,,,240,0,240,0,1,,,,,
,,514562,001,2023-07-31_20h49.15.216,arm3_eps,2022.2.5,Win32,59.78715772,61290e83a2d9e168e4392ead,64c7fed44a04f777bb1e18ce,64c8011de90c2231c8a6fb3a,right,-1,0.75,0.05,12,-0.132327994,0.1794,,,,,,241,0,241,0,1,,,,,
,,514562,001,2023-07-31_20h49.15.216,arm3_eps,2022.2.5,Win32,59.78715772,61290e83a2d9e168e4392ead,64c7fed44a04f777bb1e18ce,64c8011de90c2231c8a6fb3a,right,-1,0.75,0.05,12,-0.109174919,0.1957,,,,,,242,0,242,0,1,,,,,
,,514562,001,2023-07-31_20h49.15.216,arm3_eps,2022.2.5,Win32,59.78715772,61290e83a2d9e168e4392ead,64c7fed44a04f777bb1e18ce,64c8011de90c2231c8a6fb3a,right,-1,0.75,0.05,12,-0.139837867,0.2117,,,,,,243,0,243,0,1,,,,,
,,514562,001,2023-07-31_20h49.15.216,arm3_eps,2022.2.5,Win32,59.78715772,61290e83a2d9e168e4392ead,64c7fed44a04f777bb1e18ce,64c8011de90c2231c8a6fb3a,right,-1,0.75,0.05,12,-0.132804241,0.1947,,,,,,244,0,244,0,1,,,,,
,,514562,001,2023-07-31_20h49.15.216,arm3_eps,2022.2.5,Win32,59.78715772,61290e83a2d9e168e4392ead,64c7fed44a04f777bb1e18ce,64c8011de90c2231c8a6fb3a,right,-1,0.75,0.05,12,-0.119776667,0.1928,,,,,,245,0,245,0,1,,,,,
,,514562,001,2023-07-31_20h49.15.216,arm3_eps,2022.2.5,Win32,59.78715772,61290e83a2d9e168e4392ead,64c7fed44a04f777bb1e18ce,64c8011de90c2231c8a6fb3a,up,-1,0.75,0.05,11,0,2.3453,,,,,,246,0,246,0,1,,,,,
,,514562,001,2023-07-31_20h49.15.216,arm3_eps,2022.2.5,Win32,59.78715772,61290e83a2d9e168e4392ead,64c7fed44a04f777bb1e18ce,64c8011de90c2231c8a6fb3a,right,-1,0.75,0.05,11,-0.032562919,0.9231,,,,,,247,0,247,0,1,,,,,
,,514562,001,2023-07-31_20h49.15.216,arm3_eps,2022.2.5,Win32,59.78715772,61290e83a2d9e168e4392ead,64c7fed44a04f777bb1e18ce,64c8011de90c2231c8a6fb3a,right,-1,0.75,0.05,11,-0.057712301,0.1806,,,,,,248,0,248,0,1,,,,,
,,514562,001,2023-07-31_20h49.15.216,arm3_eps,2022.2.5,Win32,59.78715772,61290e83a2d9e168e4392ead,64c7fed44a04f777bb1e18ce,64c8011de90c2231c8a6fb3a,right,-1,0.75,0.05,11,-0.052293655,0.1611,,,,,,249,0,249,0,1,,,,,
,,514562,001,2023-07-31_20h49.15.216,arm3_eps,2022.2.5,Win32,59.78715772,61290e83a2d9e168e4392ead,64c7fed44a04f777bb1e18ce,64c8011de90c2231c8a6fb3a,right,-1,0.75,0.05,11,-0.06565399,0.1631,,,,,,250,0,250,0,1,,,,,
,,514562,001,2023-07-31_20h49.15.216,arm3_eps,2022.2.5,Win32,59.78715772,61290e83a2d9e168e4392ead,64c7fed44a04f777bb1e18ce,64c8011de90c2231c8a6fb3a,right,-1,0.75,0.05,11,-0.05055365,0.1795,,,,,,251,0,251,0,1,,,,,
,,514562,001,2023-07-31_20h49.15.216,arm3_eps,2022.2.5,Win32,59.78715772,61290e83a2d9e168e4392ead,64c7fed44a04f777bb1e18ce,64c8011de90c2231c8a6fb3a,right,-1,0.75,0.05,11,-0.053917391,0.184,,,,,,252,0,252,0,1,,,,,
,,514562,001,2023-07-31_20h49.15.216,arm3_eps,2022.2.5,Win32,59.78715772,61290e83a2d9e168e4392ead,64c7fed44a04f777bb1e18ce,64c8011de90c2231c8a6fb3a,right,-1,0.75,0.05,11,-0.063768201,0.1996,,,,,,253,0,253,0,1,,,,,
,,514562,001,2023-07-31_20h49.15.216,arm3_eps,2022.2.5,Win32,59.78715772,61290e83a2d9e168e4392ead,64c7fed44a04f777bb1e18ce,64c8011de90c2231c8a6fb3a,right,-1,0.75,0.05,11,-0.080340042,0.1841,,,,,,254,0,254,0,1,,,,,
,,514562,001,2023-07-31_20h49.15.216,arm3_eps,2022.2.5,Win32,59.78715772,61290e83a2d9e168e4392ead,64c7fed44a04f777bb1e18ce,64c8011de90c2231c8a6fb3a,right,-1,0.75,0.05,11,-0.069645431,0.2119,,,,,,255,0,255,0,1,,,,,
