space_bar.keys,space_bar.rt,participant,session,date,expName,psychopyVersion,OS,frameRate,PROLIFIC_PID,STUDY_ID,SESSION_ID,resp.keys,state,q_prob,eps_prob,score,price,resp.rt,train.thisRepN,train.thisTrialN,train.thisN,train.thisIndex,train.ran,steps.thisRepN,steps.thisTrialN,steps.thisN,steps.thisIndex,steps.ran,blocks.thisRepN,blocks.thisTrialN,blocks.thisN,blocks.thisIndex,blocks.ran
space,6.3045,532493,001,2023-07-31_20h47.04.571,arm3_eps,2022.2.5,Win32,60.77549532,5ec3f25d9cedf7287004cd26,64c7fed44a04f777bb1e18ce,64c8010f3dab0076741d8318,,,,,,,,,,,,,,,,,,,,,,
space,1.8401,532493,001,2023-07-31_20h47.04.571,arm3_eps,2022.2.5,Win32,60.77549532,5ec3f25d9cedf7287004cd26,64c7fed44a04f777bb1e18ce,64c8010f3dab0076741d8318,,,,,,,,,,,,,,,,,,,,,,
space,21.1582,532493,001,2023-07-31_20h47.04.571,arm3_eps,2022.2.5,Win32,60.77549532,5ec3f25d9cedf7287004cd26,64c7fed44a04f777bb1e18ce,64c8010f3dab0076741d8318,,,,,,,,,,,,,,,,,,,,,,
space,12.9078,532493,001,2023-07-31_20h47.04.571,arm3_eps,2022.2.5,Win32,60.77549532,5ec3f25d9cedf7287004cd26,64c7fed44a04f777bb1e18ce,64c8010f3dab0076741d8318,,,,,,,,,,,,,,,,,,,,,,
space,18.5191,532493,001,2023-07-31_20h47.04.571,arm3_eps,2022.2.5,Win32,60.77549532,5ec3f25d9cedf7287004cd26,64c7fed44a04f777bb1e18ce,64c8010f3dab0076741d8318,,,,,,,,,,,,,,,,,,,,,,
space,15.8328,532493,001,2023-07-31_20h47.04.571,arm3_eps,2022.2.5,Win32,60.77549532,5ec3f25d9cedf7287004cd26,64c7fed44a04f777bb1e18ce,64c8010f3dab0076741d8318,,,,,,,,,,,,,,,,,,,,,,
space,5.7994,532493,001,2023-07-31_20h47.04.571,arm3_eps,2022.2.5,Win32,60.77549532,5ec3f25d9cedf7287004cd26,64c7fed44a04f777bb1e18ce,64c8010f3dab0076741d8318,,,,,,,,,,,,,,,,,,,,,,
,,532493,001,2023-07-31_20h47.04.571,arm3_eps,2022.2.5,Win32,60.77549532,5ec3f25d9cedf7287004cd26,64c7fed44a04f777bb1e18ce,64c8010f3dab0076741d8318,down,-1,1,0.2429,1,0,3.6082,0,0,0,0,1,,,,,,,,,,
,,532493,001,2023-07-31_20h47.04.571,arm3_eps,2022.2.5,Win32,60.77549532,5ec3f25d9cedf7287004cd26,64c7fed44a04f777bb1e18ce,64c8010f3dab0076741d8318,down,-1,1,0.2429,2,0,2.3219,1,0,1,0,1,,,,,,,,,,
,,532493,001,2023-07-31_20h47.04.571,arm3_eps,2022.2.5,Win32,60.77549532,5ec3f25d9cedf7287004cd26,64c7fed44a04f777bb1e18ce,64c8010f3dab0076741d8318,up,-1,1,0.2429,1,0,1.2871,2,0,2,0,1,,,,,,,,,,
,,532493,001,2023-07-31_20h47.04.571,arm3_eps,2022.2.5,Win32,60.77549532,5ec3f25d9cedf7287004cd26,64c7fed44a04f777bb1e18ce,64c8010f3dab0076741d8318,down,-1,1,0.2429,2,0,1.3793,3,0,3,0,1,,,,,,,,,,
,,532493,001,2023-07-31_20h47.04.571,arm3_eps,2022.2.5,Win32,60.77549532,5ec3f25d9cedf7287004cd26,64c7fed44a04f777bb1e18ce,64c8010f3dab0076741d8318,down,1,1,0.2429,3,0,1.8715,4,0,4,0,1,,,,,,,,,,
,,532493,001,2023-07-31_20h47.04.571,arm3_eps,2022.2.5,Win32,60.77549532,5ec3f25d9cedf7287004cd26,64c7fed44a04f777bb1e18ce,64c8010f3dab0076741d8318,right,1,1,0.2429,3,-0.001765296,2.6786,5,0,5,0,1,,,,,,,,,,
,,532493,001,2023-07-31_20h47.04.571,arm3_eps,2022.2.5,Win32,60.77549532,5ec3f25d9cedf7287004cd26,64c7fed44a04f777bb1e18ce,64c8010f3dab0076741d8318,up,-1,1,0.2429,4,0,1.5337,6,0,6,0,1,,,,,,,,,,
,,532493,001,2023-07-31_20h47.04.571,arm3_eps,2022.2.5,Win32,60.77549532,5ec3f25d9cedf7287004cd26,64c7fed44a04f777bb1e18ce,64c8010f3dab0076741d8318,right,-1,1,0.2429,4,0.009134376,1.3173,7,0,7,0,1,,,,,,,,,,
,,532493,001,2023-07-31_20h47.04.571,arm3_eps,2022.2.5,Win32,60.77549532,5ec3f25d9cedf7287004cd26,64c7fed44a04f777bb1e18ce,64c8010f3dab0076741d8318,down,1,1,0.2429,5,0,0.9563,8,0,8,0,1,,,,,,,,,,
,,532493,001,2023-07-31_20h47.04.571,arm3_eps,2022.2.5,Win32,60.77549532,5ec3f25d9cedf7287004cd26,64c7fed44a04f777bb1e18ce,64c8010f3dab0076741d8318,right,1,1,0.2429,5,0.014662875,1.3525,9,0,9,0,1,,,,,,,,,,
,,532493,001,2023-07-31_20h47.04.571,arm3_eps,2022.2.5,Win32,60.77549532,5ec3f25d9cedf7287004cd26,64c7fed44a04f777bb1e18ce,64c8010f3dab0076741d8318,right,1,1,0.2429,5,0.038962796,0.6341,10,0,10,0,1,,,,,,,,,,
,,532493,001,2023-07-31_20h47.04.571,arm3_eps,2022.2.5,Win32,60.77549532,5ec3f25d9cedf7287004cd26,64c7fed44a04f777bb1e18ce,64c8010f3dab0076741d8318,right,1,1,0.2429,5,0.030168799,0.6156,11,0,11,0,1,,,,,,,,,,
,,532493,001,2023-07-31_20h47.04.571,arm3_eps,2022.2.5,Win32,60.77549532,5ec3f25d9cedf7287004cd26,64c7fed44a04f777bb1e18ce,64c8010f3dab0076741d8318,right,1,1,0.2429,5,0.052115968,0.2829,12,0,12,0,1,,,,,,,,,,
,,532493,001,2023-07-31_20h47.04.571,arm3_eps,2022.2.5,Win32,60.77549532,5ec3f25d9cedf7287004cd26,64c7fed44a04f777bb1e18ce,64c8010f3dab0076741d8318,right,1,1,0.2429,5,0.064603224,0.2179,13,0,13,0,1,,,,,,,,,,
,,532493,001,2023-07-31_20h47.04.571,arm3_eps,2022.2.5,Win32,60.77549532,5ec3f25d9cedf7287004cd26,64c7fed44a04f777bb1e18ce,64c8010f3dab0076741d8318,right,1,1,0.2429,5,0.091931495,0.2563,14,0,14,0,1,,,,,,,,,,
,,532493,001,2023-07-31_20h47.04.571,arm3_eps,2022.2.5,Win32,60.77549532,5ec3f25d9cedf7287004cd26,64c7fed44a04f777bb1e18ce,64c8010f3dab0076741d8318,right,1,1,0.2429,5,0.081934334,0.2655,15,0,15,0,1,,,,,,,,,,
,,532493,001,2023-07-31_20h47.04.571,arm3_eps,2022.2.5,Win32,60.77549532,5ec3f25d9cedf7287004cd26,64c7fed44a04f777bb1e18ce,64c8010f3dab0076741d8318,right,1,1,0.2429,5,0.05959215,0.2751,16,0,16,0,1,,,,,,,,,,
,,532493,001,2023-07-31_20h47.04.571,arm3_eps,2022.2.5,Win32,60.77549532,5ec3f25d9cedf7287004cd26,64c7fed44a04f777bb1e18ce,64c8010f3dab0076741d8318,right,1,1,0.2429,5,0.076719812,0.283,17,0,17,0,1,,,,,,,,,,
,,532493,001,2023-07-31_20h47.04.571,arm3_eps,2022.2.5,Win32,60.77549532,5ec3f25d9cedf7287004cd26,64c7fed44a04f777bb1e18ce,64c8010f3dab0076741d8318,right,1,1,0.2429,5,0.107323109,0.5316,18,0,18,0,1,,,,,,,,,,
,,532493,001,2023-07-31_20h47.04.571,arm3_eps,2022.2.5,Win32,60.77549532,5ec3f25d9cedf7287004cd26,64c7fed44a04f777bb1e18ce,64c8010f3dab0076741d8318,right,1,1,0.2429,5,0.114643228,0.2844,19,0,19,0,1,,,,,,,,,,
,,532493,001,2023-07-31_20h47.04.571,arm3_eps,2022.2.5,Win32,60.77549532,5ec3f25d9cedf7287004cd26,64c7fed44a04f777bb1e18ce,64c8010f3dab0076741d8318,right,1,1,0.2429,5,0.131830985,0.2817,20,0,20,0,1,,,,,,,,,,
,,532493,001,2023-07-31_20h47.04.571,arm3_eps,2022.2.5,Win32,60.77549532,5ec3f25d9cedf7287004cd26,64c7fed44a04f777bb1e18ce,64c8010f3dab0076741d8318,up,-1,1,0.2429,6,0,1.3653,21,0,21,0,1,,,,,,,,,,
,,532493,001,2023-07-31_20h47.04.571,arm3_eps,2022.2.5,Win32,60.77549532,5ec3f25d9cedf7287004cd26,64c7fed44a04f777bb1e18ce,64c8010f3dab0076741d8318,right,-1,1,0.2429,6,-0.069425279,1.6002,22,0,22,0,1,,,,,,,,,,
,,532493,001,2023-07-31_20h47.04.571,arm3_eps,2022.2.5,Win32,60.77549532,5ec3f25d9cedf7287004cd26,64c7fed44a04f777bb1e18ce,64c8010f3dab0076741d8318,right,-1,1,0.2429,6,-0.099764396,0.2333,23,0,23,0,1,,,,,,,,,,
,,532493,001,2023-07-31_20h47.04.571,arm3_eps,2022.2.5,Win32,60.77549532,5ec3f25d9cedf7287004cd26,64c7fed44a04f777bb1e18ce,64c8010f3dab0076741d8318,right,-1,1,0.2429,6,-0.110986961,0.1355,24,0,24,0,1,,,,,,,,,,
,,532493,001,2023-07-31_20h47.04.571,arm3_eps,2022.2.5,Win32,60.77549532,5ec3f25d9cedf7287004cd26,64c7fed44a04f777bb1e18ce,64c8010f3dab0076741d8318,right,-1,1,0.2429,6,-0.112044304,0.1332,25,0,25,0,1,,,,,,,,,,
,,532493,001,2023-07-31_20h47.04.571,arm3_eps,2022.2.5,Win32,60.77549532,5ec3f25d9cedf7287004cd26,64c7fed44a04f777bb1e18ce,64c8010f3dab0076741d8318,right,-1,1,0.2429,6,-0.119414779,0.1373,26,0,26,0,1,,,,,,,,,,
,,532493,001,2023-07-31_20h47.04.571,arm3_eps,2022.2.5,Win32,60.77549532,5ec3f25d9cedf7287004cd26,64c7fed44a04f777bb1e18ce,64c8010f3dab0076741d8318,right,-1,1,0.2429,6,-0.133047239,0.1487,27,0,27,0,1,,,,,,,,,,
,,532493,001,2023-07-31_20h47.04.571,arm3_eps,2022.2.5,Win32,60.77549532,5ec3f25d9cedf7287004cd26,64c7fed44a04f777bb1e18ce,64c8010f3dab0076741d8318,right,-1,1,0.2429,6,-0.132190178,0.1511,28,0,28,0,1,,,,,,,,,,
,,532493,001,2023-07-31_20h47.04.571,arm3_eps,2022.2.5,Win32,60.77549532,5ec3f25d9cedf7287004cd26,64c7fed44a04f777bb1e18ce,64c8010f3dab0076741d8318,right,-1,1,0.2429,6,-0.155393664,0.1249,29,0,29,0,1,,,,,,,,,,
,,532493,001,2023-07-31_20h47.04.571,arm3_eps,2022.2.5,Win32,60.77549532,5ec3f25d9cedf7287004cd26,64c7fed44a04f777bb1e18ce,64c8010f3dab0076741d8318,right,-1,1,0.2429,6,-0.186407443,0.1387,30,0,30,0,1,,,,,,,,,,
,,532493,001,2023-07-31_20h47.04.571,arm3_eps,2022.2.5,Win32,60.77549532,5ec3f25d9cedf7287004cd26,64c7fed44a04f777bb1e18ce,64c8010f3dab0076741d8318,right,-1,1,0.2429,6,-0.188507172,0.1397,31,0,31,0,1,,,,,,,,,,
,,532493,001,2023-07-31_20h47.04.571,arm3_eps,2022.2.5,Win32,60.77549532,5ec3f25d9cedf7287004cd26,64c7fed44a04f777bb1e18ce,64c8010f3dab0076741d8318,right,-1,1,0.2429,6,-0.186129473,0.1668,32,0,32,0,1,,,,,,,,,,
,,532493,001,2023-07-31_20h47.04.571,arm3_eps,2022.2.5,Win32,60.77549532,5ec3f25d9cedf7287004cd26,64c7fed44a04f777bb1e18ce,64c8010f3dab0076741d8318,right,-1,1,0.2429,6,-0.19044283,0.1499,33,0,33,0,1,,,,,,,,,,
,,532493,001,2023-07-31_20h47.04.571,arm3_eps,2022.2.5,Win32,60.77549532,5ec3f25d9cedf7287004cd26,64c7fed44a04f777bb1e18ce,64c8010f3dab0076741d8318,down,-1,1,0.2429,7,0,0.8583,34,0,34,0,1,,,,,,,,,,
,,532493,001,2023-07-31_20h47.04.571,arm3_eps,2022.2.5,Win32,60.77549532,5ec3f25d9cedf7287004cd26,64c7fed44a04f777bb1e18ce,64c8010f3dab0076741d8318,right,-1,1,0.2429,7,-0.036908635,0.7323,35,0,35,0,1,,,,,,,,,,
,,532493,001,2023-07-31_20h47.04.571,arm3_eps,2022.2.5,Win32,60.77549532,5ec3f25d9cedf7287004cd26,64c7fed44a04f777bb1e18ce,64c8010f3dab0076741d8318,right,-1,1,0.2429,7,-0.040296504,0.1328,36,0,36,0,1,,,,,,,,,,
,,532493,001,2023-07-31_20h47.04.571,arm3_eps,2022.2.5,Win32,60.77549532,5ec3f25d9cedf7287004cd26,64c7fed44a04f777bb1e18ce,64c8010f3dab0076741d8318,right,-1,1,0.2429,7,-0.059469021,0.1381,37,0,37,0,1,,,,,,,,,,
,,532493,001,2023-07-31_20h47.04.571,arm3_eps,2022.2.5,Win32,60.77549532,5ec3f25d9cedf7287004cd26,64c7fed44a04f777bb1e18ce,64c8010f3dab0076741d8318,right,-1,1,0.2429,7,-0.066527649,0.155,38,0,38,0,1,,,,,,,,,,
,,532493,001,2023-07-31_20h47.04.571,arm3_eps,2022.2.5,Win32,60.77549532,5ec3f25d9cedf7287004cd26,64c7fed44a04f777bb1e18ce,64c8010f3dab0076741d8318,right,-1,1,0.2429,7,-0.093339978,0.1412,39,0,39,0,1,,,,,,,,,,
,,532493,001,2023-07-31_20h47.04.571,arm3_eps,2022.2.5,Win32,60.77549532,5ec3f25d9cedf7287004cd26,64c7fed44a04f777bb1e18ce,64c8010f3dab0076741d8318,right,-1,1,0.2429,7,-0.108474356,0.1816,40,0,40,0,1,,,,,,,,,,
,,532493,001,2023-07-31_20h47.04.571,arm3_eps,2022.2.5,Win32,60.77549532,5ec3f25d9cedf7287004cd26,64c7fed44a04f777bb1e18ce,64c8010f3dab0076741d8318,right,-1,1,0.2429,7,-0.099836495,0.1642,41,0,41,0,1,,,,,,,,,,
,,532493,001,2023-07-31_20h47.04.571,arm3_eps,2022.2.5,Win32,60.77549532,5ec3f25d9cedf7287004cd26,64c7fed44a04f777bb1e18ce,64c8010f3dab0076741d8318,right,-1,1,0.2429,7,-0.083589263,0.1667,42,0,42,0,1,,,,,,,,,,
,,532493,001,2023-07-31_20h47.04.571,arm3_eps,2022.2.5,Win32,60.77549532,5ec3f25d9cedf7287004cd26,64c7fed44a04f777bb1e18ce,64c8010f3dab0076741d8318,right,-1,1,0.2429,7,-0.050913324,0.1593,43,0,43,0,1,,,,,,,,,,
,,532493,001,2023-07-31_20h47.04.571,arm3_eps,2022.2.5,Win32,60.77549532,5ec3f25d9cedf7287004cd26,64c7fed44a04f777bb1e18ce,64c8010f3dab0076741d8318,right,-1,1,0.2429,7,-0.046158258,0.2041,44,0,44,0,1,,,,,,,,,,
,,532493,001,2023-07-31_20h47.04.571,arm3_eps,2022.2.5,Win32,60.77549532,5ec3f25d9cedf7287004cd26,64c7fed44a04f777bb1e18ce,64c8010f3dab0076741d8318,right,-1,1,0.2429,7,-0.019542476,0.1684,45,0,45,0,1,,,,,,,,,,
,,532493,001,2023-07-31_20h47.04.571,arm3_eps,2022.2.5,Win32,60.77549532,5ec3f25d9cedf7287004cd26,64c7fed44a04f777bb1e18ce,64c8010f3dab0076741d8318,right,-1,1,0.2429,7,-0.025815628,0.1643,46,0,46,0,1,,,,,,,,,,
,,532493,001,2023-07-31_20h47.04.571,arm3_eps,2022.2.5,Win32,60.77549532,5ec3f25d9cedf7287004cd26,64c7fed44a04f777bb1e18ce,64c8010f3dab0076741d8318,down,-1,1,0.2429,8,0,1.7694,47,0,47,0,1,,,,,,,,,,
,,532493,001,2023-07-31_20h47.04.571,arm3_eps,2022.2.5,Win32,60.77549532,5ec3f25d9cedf7287004cd26,64c7fed44a04f777bb1e18ce,64c8010f3dab0076741d8318,right,-1,1,0.2429,8,-0.052550157,0.6459,48,0,48,0,1,,,,,,,,,,
,,532493,001,2023-07-31_20h47.04.571,arm3_eps,2022.2.5,Win32,60.77549532,5ec3f25d9cedf7287004cd26,64c7fed44a04f777bb1e18ce,64c8010f3dab0076741d8318,right,-1,1,0.2429,8,-0.065971875,0.1481,49,0,49,0,1,,,,,,,,,,
space,18.337,532493,001,2023-07-31_20h47.04.571,arm3_eps,2022.2.5,Win32,60.77549532,5ec3f25d9cedf7287004cd26,64c7fed44a04f777bb1e18ce,64c8010f3dab0076741d8318,,,,,,,,,,,,,,,,,,,,,,
space,21.3286,532493,001,2023-07-31_20h47.04.571,arm3_eps,2022.2.5,Win32,60.77549532,5ec3f25d9cedf7287004cd26,64c7fed44a04f777bb1e18ce,64c8010f3dab0076741d8318,,,,,,,,,,,,,,,,,,,,,,
space,9.626,532493,001,2023-07-31_20h47.04.571,arm3_eps,2022.2.5,Win32,60.77549532,5ec3f25d9cedf7287004cd26,64c7fed44a04f777bb1e18ce,64c8010f3dab0076741d8318,,,,,,,,,,,,,,,,,,,,,,
space,6.0783,532493,001,2023-07-31_20h47.04.571,arm3_eps,2022.2.5,Win32,60.77549532,5ec3f25d9cedf7287004cd26,64c7fed44a04f777bb1e18ce,64c8010f3dab0076741d8318,,,,,,,,,,,,,,,,,,,,,,
space,8.1939,532493,001,2023-07-31_20h47.04.571,arm3_eps,2022.2.5,Win32,60.77549532,5ec3f25d9cedf7287004cd26,64c7fed44a04f777bb1e18ce,64c8010f3dab0076741d8318,,,,,,,,,,,,,,,,,,,,,,
space,0.875,532493,001,2023-07-31_20h47.04.571,arm3_eps,2022.2.5,Win32,60.77549532,5ec3f25d9cedf7287004cd26,64c7fed44a04f777bb1e18ce,64c8010f3dab0076741d8318,,,,,,,,,,,,,,,,,,,,,,
,,532493,001,2023-07-31_20h47.04.571,arm3_eps,2022.2.5,Win32,60.77549532,5ec3f25d9cedf7287004cd26,64c7fed44a04f777bb1e18ce,64c8010f3dab0076741d8318,right,-1,0.75,0.2429,0,-0.008379168,0.4574,0,0,0,0,1,,,,,,,,,,
,,532493,001,2023-07-31_20h47.04.571,arm3_eps,2022.2.5,Win32,60.77549532,5ec3f25d9cedf7287004cd26,64c7fed44a04f777bb1e18ce,64c8010f3dab0076741d8318,right,-1,0.75,0.2429,0,-0.046925626,0.0973,1,0,1,0,1,,,,,,,,,,
,,532493,001,2023-07-31_20h47.04.571,arm3_eps,2022.2.5,Win32,60.77549532,5ec3f25d9cedf7287004cd26,64c7fed44a04f777bb1e18ce,64c8010f3dab0076741d8318,right,-1,0.75,0.2429,0,-0.030348377,0.1169,2,0,2,0,1,,,,,,,,,,
,,532493,001,2023-07-31_20h47.04.571,arm3_eps,2022.2.5,Win32,60.77549532,5ec3f25d9cedf7287004cd26,64c7fed44a04f777bb1e18ce,64c8010f3dab0076741d8318,right,-1,0.75,0.2429,0,-0.040932326,0.0966,3,0,3,0,1,,,,,,,,,,
,,532493,001,2023-07-31_20h47.04.571,arm3_eps,2022.2.5,Win32,60.77549532,5ec3f25d9cedf7287004cd26,64c7fed44a04f777bb1e18ce,64c8010f3dab0076741d8318,right,-1,0.75,0.2429,0,-0.029333839,0.1003,4,0,4,0,1,,,,,,,,,,
,,532493,001,2023-07-31_20h47.04.571,arm3_eps,2022.2.5,Win32,60.77549532,5ec3f25d9cedf7287004cd26,64c7fed44a04f777bb1e18ce,64c8010f3dab0076741d8318,right,-1,0.75,0.2429,0,-0.048088117,0.1,5,0,5,0,1,,,,,,,,,,
,,532493,001,2023-07-31_20h47.04.571,arm3_eps,2022.2.5,Win32,60.77549532,5ec3f25d9cedf7287004cd26,64c7fed44a04f777bb1e18ce,64c8010f3dab0076741d8318,right,-1,0.75,0.2429,0,-0.043837274,0.0878,6,0,6,0,1,,,,,,,,,,
,,532493,001,2023-07-31_20h47.04.571,arm3_eps,2022.2.5,Win32,60.77549532,5ec3f25d9cedf7287004cd26,64c7fed44a04f777bb1e18ce,64c8010f3dab0076741d8318,right,-1,0.75,0.2429,0,-0.068687512,0.1055,7,0,7,0,1,,,,,,,,,,
,,532493,001,2023-07-31_20h47.04.571,arm3_eps,2022.2.5,Win32,60.77549532,5ec3f25d9cedf7287004cd26,64c7fed44a04f777bb1e18ce,64c8010f3dab0076741d8318,right,-1,0.75,0.2429,0,-0.072570822,0.0998,8,0,8,0,1,,,,,,,,,,
,,532493,001,2023-07-31_20h47.04.571,arm3_eps,2022.2.5,Win32,60.77549532,5ec3f25d9cedf7287004cd26,64c7fed44a04f777bb1e18ce,64c8010f3dab0076741d8318,right,-1,0.75,0.2429,0,-0.102344537,0.1093,9,0,9,0,1,,,,,,,,,,
,,532493,001,2023-07-31_20h47.04.571,arm3_eps,2022.2.5,Win32,60.77549532,5ec3f25d9cedf7287004cd26,64c7fed44a04f777bb1e18ce,64c8010f3dab0076741d8318,right,-1,0.75,0.2429,0,-0.101280824,0.1155,10,0,10,0,1,,,,,,,,,,
,,532493,001,2023-07-31_20h47.04.571,arm3_eps,2022.2.5,Win32,60.77549532,5ec3f25d9cedf7287004cd26,64c7fed44a04f777bb1e18ce,64c8010f3dab0076741d8318,right,-1,0.75,0.2429,0,-0.114337241,0.1337,11,0,11,0,1,,,,,,,,,,
,,532493,001,2023-07-31_20h47.04.571,arm3_eps,2022.2.5,Win32,60.77549532,5ec3f25d9cedf7287004cd26,64c7fed44a04f777bb1e18ce,64c8010f3dab0076741d8318,down,1,0.75,0.2429,1,0,0.7497,12,0,12,0,1,,,,,,,,,,
,,532493,001,2023-07-31_20h47.04.571,arm3_eps,2022.2.5,Win32,60.77549532,5ec3f25d9cedf7287004cd26,64c7fed44a04f777bb1e18ce,64c8010f3dab0076741d8318,right,1,0.75,0.2429,1,0.006337414,0.4948,13,0,13,0,1,,,,,,,,,,
,,532493,001,2023-07-31_20h47.04.571,arm3_eps,2022.2.5,Win32,60.77549532,5ec3f25d9cedf7287004cd26,64c7fed44a04f777bb1e18ce,64c8010f3dab0076741d8318,right,1,0.75,0.2429,1,0.024180588,0.1385,14,0,14,0,1,,,,,,,,,,
,,532493,001,2023-07-31_20h47.04.571,arm3_eps,2022.2.5,Win32,60.77549532,5ec3f25d9cedf7287004cd26,64c7fed44a04f777bb1e18ce,64c8010f3dab0076741d8318,right,1,0.75,0.2429,1,0.034164988,0.1165,15,0,15,0,1,,,,,,,,,,
,,532493,001,2023-07-31_20h47.04.571,arm3_eps,2022.2.5,Win32,60.77549532,5ec3f25d9cedf7287004cd26,64c7fed44a04f777bb1e18ce,64c8010f3dab0076741d8318,right,1,0.75,0.2429,1,0.072999535,0.1079,16,0,16,0,1,,,,,,,,,,
,,532493,001,2023-07-31_20h47.04.571,arm3_eps,2022.2.5,Win32,60.77549532,5ec3f25d9cedf7287004cd26,64c7fed44a04f777bb1e18ce,64c8010f3dab0076741d8318,right,1,0.75,0.2429,1,0.068626413,0.109,17,0,17,0,1,,,,,,,,,,
,,532493,001,2023-07-31_20h47.04.571,arm3_eps,2022.2.5,Win32,60.77549532,5ec3f25d9cedf7287004cd26,64c7fed44a04f777bb1e18ce,64c8010f3dab0076741d8318,right,1,0.75,0.2429,1,0.042870363,0.1171,18,0,18,0,1,,,,,,,,,,
,,532493,001,2023-07-31_20h47.04.571,arm3_eps,2022.2.5,Win32,60.77549532,5ec3f25d9cedf7287004cd26,64c7fed44a04f777bb1e18ce,64c8010f3dab0076741d8318,right,1,0.75,0.2429,1,0.034149879,0.1309,19,0,19,0,1,,,,,,,,,,
,,532493,001,2023-07-31_20h47.04.571,arm3_eps,2022.2.5,Win32,60.77549532,5ec3f25d9cedf7287004cd26,64c7fed44a04f777bb1e18ce,64c8010f3dab0076741d8318,right,1,0.75,0.2429,1,0.054393674,0.1216,20,0,20,0,1,,,,,,,,,,
,,532493,001,2023-07-31_20h47.04.571,arm3_eps,2022.2.5,Win32,60.77549532,5ec3f25d9cedf7287004cd26,64c7fed44a04f777bb1e18ce,64c8010f3dab0076741d8318,right,1,0.75,0.2429,1,0.083501875,0.1331,21,0,21,0,1,,,,,,,,,,
,,532493,001,2023-07-31_20h47.04.571,arm3_eps,2022.2.5,Win32,60.77549532,5ec3f25d9cedf7287004cd26,64c7fed44a04f777bb1e18ce,64c8010f3dab0076741d8318,up,-1,0.75,0.2429,1,0,0.1838,22,0,22,0,1,,,,,,,,,,
,,532493,001,2023-07-31_20h47.04.571,arm3_eps,2022.2.5,Win32,60.77549532,5ec3f25d9cedf7287004cd26,64c7fed44a04f777bb1e18ce,64c8010f3dab0076741d8318,right,-1,0.75,0.2429,1,-0.010494885,0.7621,23,0,23,0,1,,,,,,,,,,
,,532493,001,2023-07-31_20h47.04.571,arm3_eps,2022.2.5,Win32,60.77549532,5ec3f25d9cedf7287004cd26,64c7fed44a04f777bb1e18ce,64c8010f3dab0076741d8318,right,-1,0.75,0.2429,1,-0.034933875,0.1147,24,0,24,0,1,,,,,,,,,,
,,532493,001,2023-07-31_20h47.04.571,arm3_eps,2022.2.5,Win32,60.77549532,5ec3f25d9cedf7287004cd26,64c7fed44a04f777bb1e18ce,64c8010f3dab0076741d8318,right,-1,0.75,0.2429,1,-0.056101736,0.1012,25,0,25,0,1,,,,,,,,,,
,,532493,001,2023-07-31_20h47.04.571,arm3_eps,2022.2.5,Win32,60.77549532,5ec3f25d9cedf7287004cd26,64c7fed44a04f777bb1e18ce,64c8010f3dab0076741d8318,right,-1,0.75,0.2429,1,-0.056280182,0.1002,26,0,26,0,1,,,,,,,,,,
,,532493,001,2023-07-31_20h47.04.571,arm3_eps,2022.2.5,Win32,60.77549532,5ec3f25d9cedf7287004cd26,64c7fed44a04f777bb1e18ce,64c8010f3dab0076741d8318,right,-1,0.75,0.2429,1,-0.083443953,0.1174,27,0,27,0,1,,,,,,,,,,
,,532493,001,2023-07-31_20h47.04.571,arm3_eps,2022.2.5,Win32,60.77549532,5ec3f25d9cedf7287004cd26,64c7fed44a04f777bb1e18ce,64c8010f3dab0076741d8318,right,-1,0.75,0.2429,1,-0.092500081,0.0852,28,0,28,0,1,,,,,,,,,,
,,532493,001,2023-07-31_20h47.04.571,arm3_eps,2022.2.5,Win32,60.77549532,5ec3f25d9cedf7287004cd26,64c7fed44a04f777bb1e18ce,64c8010f3dab0076741d8318,right,-1,0.75,0.2429,1,-0.080866765,0.1168,29,0,29,0,1,,,,,,,,,,
,,532493,001,2023-07-31_20h47.04.571,arm3_eps,2022.2.5,Win32,60.77549532,5ec3f25d9cedf7287004cd26,64c7fed44a04f777bb1e18ce,64c8010f3dab0076741d8318,right,-1,0.75,0.2429,1,-0.071408611,0.0979,30,0,30,0,1,,,,,,,,,,
,,532493,001,2023-07-31_20h47.04.571,arm3_eps,2022.2.5,Win32,60.77549532,5ec3f25d9cedf7287004cd26,64c7fed44a04f777bb1e18ce,64c8010f3dab0076741d8318,right,-1,0.75,0.2429,1,-0.09527085,0.1234,31,0,31,0,1,,,,,,,,,,
,,532493,001,2023-07-31_20h47.04.571,arm3_eps,2022.2.5,Win32,60.77549532,5ec3f25d9cedf7287004cd26,64c7fed44a04f777bb1e18ce,64c8010f3dab0076741d8318,right,-1,0.75,0.2429,1,-0.111060395,0.0981,32,0,32,0,1,,,,,,,,,,
,,532493,001,2023-07-31_20h47.04.571,arm3_eps,2022.2.5,Win32,60.77549532,5ec3f25d9cedf7287004cd26,64c7fed44a04f777bb1e18ce,64c8010f3dab0076741d8318,down,1,0.75,0.2429,2,0,0.2356,33,0,33,0,1,,,,,,,,,,
,,532493,001,2023-07-31_20h47.04.571,arm3_eps,2022.2.5,Win32,60.77549532,5ec3f25d9cedf7287004cd26,64c7fed44a04f777bb1e18ce,64c8010f3dab0076741d8318,right,1,0.75,0.2429,2,-0.005232678,0.3801,34,0,34,0,1,,,,,,,,,,
,,532493,001,2023-07-31_20h47.04.571,arm3_eps,2022.2.5,Win32,60.77549532,5ec3f25d9cedf7287004cd26,64c7fed44a04f777bb1e18ce,64c8010f3dab0076741d8318,right,1,0.75,0.2429,2,0.025004358,0.104,35,0,35,0,1,,,,,,,,,,
,,532493,001,2023-07-31_20h47.04.571,arm3_eps,2022.2.5,Win32,60.77549532,5ec3f25d9cedf7287004cd26,64c7fed44a04f777bb1e18ce,64c8010f3dab0076741d8318,right,1,0.75,0.2429,2,0.03769957,0.1173,36,0,36,0,1,,,,,,,,,,
,,532493,001,2023-07-31_20h47.04.571,arm3_eps,2022.2.5,Win32,60.77549532,5ec3f25d9cedf7287004cd26,64c7fed44a04f777bb1e18ce,64c8010f3dab0076741d8318,right,1,0.75,0.2429,2,0.053340851,0.1016,37,0,37,0,1,,,,,,,,,,
,,532493,001,2023-07-31_20h47.04.571,arm3_eps,2022.2.5,Win32,60.77549532,5ec3f25d9cedf7287004cd26,64c7fed44a04f777bb1e18ce,64c8010f3dab0076741d8318,right,1,0.75,0.2429,2,0.058103326,0.1147,38,0,38,0,1,,,,,,,,,,
,,532493,001,2023-07-31_20h47.04.571,arm3_eps,2022.2.5,Win32,60.77549532,5ec3f25d9cedf7287004cd26,64c7fed44a04f777bb1e18ce,64c8010f3dab0076741d8318,right,1,0.75,0.2429,2,0.0877009,0.0752,39,0,39,0,1,,,,,,,,,,
,,532493,001,2023-07-31_20h47.04.571,arm3_eps,2022.2.5,Win32,60.77549532,5ec3f25d9cedf7287004cd26,64c7fed44a04f777bb1e18ce,64c8010f3dab0076741d8318,right,1,0.75,0.2429,2,0.093520872,0.2835,40,0,40,0,1,,,,,,,,,,
,,532493,001,2023-07-31_20h47.04.571,arm3_eps,2022.2.5,Win32,60.77549532,5ec3f25d9cedf7287004cd26,64c7fed44a04f777bb1e18ce,64c8010f3dab0076741d8318,up,1,0.75,0.2429,3,0,0.1919,41,0,41,0,1,,,,,,,,,,
,,532493,001,2023-07-31_20h47.04.571,arm3_eps,2022.2.5,Win32,60.77549532,5ec3f25d9cedf7287004cd26,64c7fed44a04f777bb1e18ce,64c8010f3dab0076741d8318,right,1,0.75,0.2429,3,0.03649594,0.4702,42,0,42,0,1,,,,,,,,,,
,,532493,001,2023-07-31_20h47.04.571,arm3_eps,2022.2.5,Win32,60.77549532,5ec3f25d9cedf7287004cd26,64c7fed44a04f777bb1e18ce,64c8010f3dab0076741d8318,right,1,0.75,0.2429,3,0.018916587,0.1034,43,0,43,0,1,,,,,,,,,,
,,532493,001,2023-07-31_20h47.04.571,arm3_eps,2022.2.5,Win32,60.77549532,5ec3f25d9cedf7287004cd26,64c7fed44a04f777bb1e18ce,64c8010f3dab0076741d8318,right,1,0.75,0.2429,3,0.005608416,0.1039,44,0,44,0,1,,,,,,,,,,
,,532493,001,2023-07-31_20h47.04.571,arm3_eps,2022.2.5,Win32,60.77549532,5ec3f25d9cedf7287004cd26,64c7fed44a04f777bb1e18ce,64c8010f3dab0076741d8318,right,1,0.75,0.2429,3,0.000515699,0.1168,45,0,45,0,1,,,,,,,,,,
,,532493,001,2023-07-31_20h47.04.571,arm3_eps,2022.2.5,Win32,60.77549532,5ec3f25d9cedf7287004cd26,64c7fed44a04f777bb1e18ce,64c8010f3dab0076741d8318,right,1,0.75,0.2429,3,0.040567326,0.1168,46,0,46,0,1,,,,,,,,,,
,,532493,001,2023-07-31_20h47.04.571,arm3_eps,2022.2.5,Win32,60.77549532,5ec3f25d9cedf7287004cd26,64c7fed44a04f777bb1e18ce,64c8010f3dab0076741d8318,right,1,0.75,0.2429,3,0.031214119,0.1022,47,0,47,0,1,,,,,,,,,,
,,532493,001,2023-07-31_20h47.04.571,arm3_eps,2022.2.5,Win32,60.77549532,5ec3f25d9cedf7287004cd26,64c7fed44a04f777bb1e18ce,64c8010f3dab0076741d8318,right,1,0.75,0.2429,3,0.060716973,0.1229,48,0,48,0,1,,,,,,,,,,
,,532493,001,2023-07-31_20h47.04.571,arm3_eps,2022.2.5,Win32,60.77549532,5ec3f25d9cedf7287004cd26,64c7fed44a04f777bb1e18ce,64c8010f3dab0076741d8318,right,1,0.75,0.2429,3,0.086793749,0.1475,49,0,49,0,1,,,,,,,,,,
space,13.5965,532493,001,2023-07-31_20h47.04.571,arm3_eps,2022.2.5,Win32,60.77549532,5ec3f25d9cedf7287004cd26,64c7fed44a04f777bb1e18ce,64c8010f3dab0076741d8318,,,,,,,,,,,,,,,,,,,,,,
space,15.173,532493,001,2023-07-31_20h47.04.571,arm3_eps,2022.2.5,Win32,60.77549532,5ec3f25d9cedf7287004cd26,64c7fed44a04f777bb1e18ce,64c8010f3dab0076741d8318,,,,,,,,,,,,,,,,,,,,,,
space,0.8482,532493,001,2023-07-31_20h47.04.571,arm3_eps,2022.2.5,Win32,60.77549532,5ec3f25d9cedf7287004cd26,64c7fed44a04f777bb1e18ce,64c8010f3dab0076741d8318,,,,,,,,,,,,,,,,,,,,,,
,,532493,001,2023-07-31_20h47.04.571,arm3_eps,2022.2.5,Win32,60.77549532,5ec3f25d9cedf7287004cd26,64c7fed44a04f777bb1e18ce,64c8010f3dab0076741d8318,right,1,0.75,0.05,0,-0.011420455,0.4903,0,0,0,0,1,,,,,,,,,,
,,532493,001,2023-07-31_20h47.04.571,arm3_eps,2022.2.5,Win32,60.77549532,5ec3f25d9cedf7287004cd26,64c7fed44a04f777bb1e18ce,64c8010f3dab0076741d8318,right,1,0.75,0.05,0,0.003072192,0.1149,1,0,1,0,1,,,,,,,,,,
,,532493,001,2023-07-31_20h47.04.571,arm3_eps,2022.2.5,Win32,60.77549532,5ec3f25d9cedf7287004cd26,64c7fed44a04f777bb1e18ce,64c8010f3dab0076741d8318,right,1,0.75,0.05,0,-0.008613756,0.2026,2,0,2,0,1,,,,,,,,,,
,,532493,001,2023-07-31_20h47.04.571,arm3_eps,2022.2.5,Win32,60.77549532,5ec3f25d9cedf7287004cd26,64c7fed44a04f777bb1e18ce,64c8010f3dab0076741d8318,right,1,0.75,0.05,0,0.024518126,0.09,3,0,3,0,1,,,,,,,,,,
,,532493,001,2023-07-31_20h47.04.571,arm3_eps,2022.2.5,Win32,60.77549532,5ec3f25d9cedf7287004cd26,64c7fed44a04f777bb1e18ce,64c8010f3dab0076741d8318,right,1,0.75,0.05,0,0.045726926,0.1485,4,0,4,0,1,,,,,,,,,,
,,532493,001,2023-07-31_20h47.04.571,arm3_eps,2022.2.5,Win32,60.77549532,5ec3f25d9cedf7287004cd26,64c7fed44a04f777bb1e18ce,64c8010f3dab0076741d8318,right,1,0.75,0.05,0,0.065893849,0.1312,5,0,5,0,1,,,,,,,,,,
,,532493,001,2023-07-31_20h47.04.571,arm3_eps,2022.2.5,Win32,60.77549532,5ec3f25d9cedf7287004cd26,64c7fed44a04f777bb1e18ce,64c8010f3dab0076741d8318,right,1,0.75,0.05,0,0.042329696,0.0907,6,0,6,0,1,,,,,,,,,,
,,532493,001,2023-07-31_20h47.04.571,arm3_eps,2022.2.5,Win32,60.77549532,5ec3f25d9cedf7287004cd26,64c7fed44a04f777bb1e18ce,64c8010f3dab0076741d8318,right,1,0.75,0.05,0,0.058719175,0.1335,7,0,7,0,1,,,,,,,,,,
,,532493,001,2023-07-31_20h47.04.571,arm3_eps,2022.2.5,Win32,60.77549532,5ec3f25d9cedf7287004cd26,64c7fed44a04f777bb1e18ce,64c8010f3dab0076741d8318,up,1,0.75,0.05,1,0,0.186,8,0,8,0,1,,,,,,,,,,
,,532493,001,2023-07-31_20h47.04.571,arm3_eps,2022.2.5,Win32,60.77549532,5ec3f25d9cedf7287004cd26,64c7fed44a04f777bb1e18ce,64c8010f3dab0076741d8318,up,1,0.75,0.05,2,0,0.9636,9,0,9,0,1,,,,,,,,,,
,,532493,001,2023-07-31_20h47.04.571,arm3_eps,2022.2.5,Win32,60.77549532,5ec3f25d9cedf7287004cd26,64c7fed44a04f777bb1e18ce,64c8010f3dab0076741d8318,right,1,0.75,0.05,2,-0.011006079,0.5325,10,0,10,0,1,,,,,,,,,,
,,532493,001,2023-07-31_20h47.04.571,arm3_eps,2022.2.5,Win32,60.77549532,5ec3f25d9cedf7287004cd26,64c7fed44a04f777bb1e18ce,64c8010f3dab0076741d8318,right,1,0.75,0.05,2,-0.035618134,0.1369,11,0,11,0,1,,,,,,,,,,
,,532493,001,2023-07-31_20h47.04.571,arm3_eps,2022.2.5,Win32,60.77549532,5ec3f25d9cedf7287004cd26,64c7fed44a04f777bb1e18ce,64c8010f3dab0076741d8318,right,1,0.75,0.05,2,-0.043516478,0.0986,12,0,12,0,1,,,,,,,,,,
,,532493,001,2023-07-31_20h47.04.571,arm3_eps,2022.2.5,Win32,60.77549532,5ec3f25d9cedf7287004cd26,64c7fed44a04f777bb1e18ce,64c8010f3dab0076741d8318,right,1,0.75,0.05,2,-0.050523942,0.0921,13,0,13,0,1,,,,,,,,,,
,,532493,001,2023-07-31_20h47.04.571,arm3_eps,2022.2.5,Win32,60.77549532,5ec3f25d9cedf7287004cd26,64c7fed44a04f777bb1e18ce,64c8010f3dab0076741d8318,right,1,0.75,0.05,2,-0.042662016,0.1386,14,0,14,0,1,,,,,,,,,,
,,532493,001,2023-07-31_20h47.04.571,arm3_eps,2022.2.5,Win32,60.77549532,5ec3f25d9cedf7287004cd26,64c7fed44a04f777bb1e18ce,64c8010f3dab0076741d8318,right,1,0.75,0.05,2,-0.020640551,0.366,15,0,15,0,1,,,,,,,,,,
,,532493,001,2023-07-31_20h47.04.571,arm3_eps,2022.2.5,Win32,60.77549532,5ec3f25d9cedf7287004cd26,64c7fed44a04f777bb1e18ce,64c8010f3dab0076741d8318,right,1,0.75,0.05,2,-0.002248003,0.1086,16,0,16,0,1,,,,,,,,,,
,,532493,001,2023-07-31_20h47.04.571,arm3_eps,2022.2.5,Win32,60.77549532,5ec3f25d9cedf7287004cd26,64c7fed44a04f777bb1e18ce,64c8010f3dab0076741d8318,right,1,0.75,0.05,2,0.003590739,0.1151,17,0,17,0,1,,,,,,,,,,
,,532493,001,2023-07-31_20h47.04.571,arm3_eps,2022.2.5,Win32,60.77549532,5ec3f25d9cedf7287004cd26,64c7fed44a04f777bb1e18ce,64c8010f3dab0076741d8318,right,1,0.75,0.05,2,0.022203227,0.1161,18,0,18,0,1,,,,,,,,,,
,,532493,001,2023-07-31_20h47.04.571,arm3_eps,2022.2.5,Win32,60.77549532,5ec3f25d9cedf7287004cd26,64c7fed44a04f777bb1e18ce,64c8010f3dab0076741d8318,up,1,0.75,0.05,3,0,0.1664,19,0,19,0,1,,,,,,,,,,
,,532493,001,2023-07-31_20h47.04.571,arm3_eps,2022.2.5,Win32,60.77549532,5ec3f25d9cedf7287004cd26,64c7fed44a04f777bb1e18ce,64c8010f3dab0076741d8318,right,1,0.75,0.05,3,0.034497833,0.307,20,0,20,0,1,,,,,,,,,,
,,532493,001,2023-07-31_20h47.04.571,arm3_eps,2022.2.5,Win32,60.77549532,5ec3f25d9cedf7287004cd26,64c7fed44a04f777bb1e18ce,64c8010f3dab0076741d8318,right,1,0.75,0.05,3,0.028782311,0.2501,21,0,21,0,1,,,,,,,,,,
,,532493,001,2023-07-31_20h47.04.571,arm3_eps,2022.2.5,Win32,60.77549532,5ec3f25d9cedf7287004cd26,64c7fed44a04f777bb1e18ce,64c8010f3dab0076741d8318,right,1,0.75,0.05,3,0.008256341,0.1177,22,0,22,0,1,,,,,,,,,,
,,532493,001,2023-07-31_20h47.04.571,arm3_eps,2022.2.5,Win32,60.77549532,5ec3f25d9cedf7287004cd26,64c7fed44a04f777bb1e18ce,64c8010f3dab0076741d8318,right,1,0.75,0.05,3,0.012952003,0.1335,23,0,23,0,1,,,,,,,,,,
,,532493,001,2023-07-31_20h47.04.571,arm3_eps,2022.2.5,Win32,60.77549532,5ec3f25d9cedf7287004cd26,64c7fed44a04f777bb1e18ce,64c8010f3dab0076741d8318,right,1,0.75,0.05,3,0.035623278,0.1318,24,0,24,0,1,,,,,,,,,,
,,532493,001,2023-07-31_20h47.04.571,arm3_eps,2022.2.5,Win32,60.77549532,5ec3f25d9cedf7287004cd26,64c7fed44a04f777bb1e18ce,64c8010f3dab0076741d8318,right,1,0.75,0.05,3,0.036154419,0.1168,25,0,25,0,1,,,,,,,,,,
,,532493,001,2023-07-31_20h47.04.571,arm3_eps,2022.2.5,Win32,60.77549532,5ec3f25d9cedf7287004cd26,64c7fed44a04f777bb1e18ce,64c8010f3dab0076741d8318,right,1,0.75,0.05,3,0.068386861,0.1392,26,0,26,0,1,,,,,,,,,,
,,532493,001,2023-07-31_20h47.04.571,arm3_eps,2022.2.5,Win32,60.77549532,5ec3f25d9cedf7287004cd26,64c7fed44a04f777bb1e18ce,64c8010f3dab0076741d8318,up,1,0.75,0.05,4,0,0.1148,27,0,27,0,1,,,,,,,,,,
,,532493,001,2023-07-31_20h47.04.571,arm3_eps,2022.2.5,Win32,60.77549532,5ec3f25d9cedf7287004cd26,64c7fed44a04f777bb1e18ce,64c8010f3dab0076741d8318,up,1,0.75,0.05,4,0,0.2669,28,0,28,0,1,,,,,,,,,,
,,532493,001,2023-07-31_20h47.04.571,arm3_eps,2022.2.5,Win32,60.77549532,5ec3f25d9cedf7287004cd26,64c7fed44a04f777bb1e18ce,64c8010f3dab0076741d8318,up,1,0.75,0.05,5,0,0.1296,29,0,29,0,1,,,,,,,,,,
,,532493,001,2023-07-31_20h47.04.571,arm3_eps,2022.2.5,Win32,60.77549532,5ec3f25d9cedf7287004cd26,64c7fed44a04f777bb1e18ce,64c8010f3dab0076741d8318,right,1,0.75,0.05,5,0.016450106,0.7817,30,0,30,0,1,,,,,,,,,,
,,532493,001,2023-07-31_20h47.04.571,arm3_eps,2022.2.5,Win32,60.77549532,5ec3f25d9cedf7287004cd26,64c7fed44a04f777bb1e18ce,64c8010f3dab0076741d8318,right,1,0.75,0.05,5,0.007610832,0.1142,31,0,31,0,1,,,,,,,,,,
,,532493,001,2023-07-31_20h47.04.571,arm3_eps,2022.2.5,Win32,60.77549532,5ec3f25d9cedf7287004cd26,64c7fed44a04f777bb1e18ce,64c8010f3dab0076741d8318,right,1,0.75,0.05,5,0.025993338,0.1011,32,0,32,0,1,,,,,,,,,,
,,532493,001,2023-07-31_20h47.04.571,arm3_eps,2022.2.5,Win32,60.77549532,5ec3f25d9cedf7287004cd26,64c7fed44a04f777bb1e18ce,64c8010f3dab0076741d8318,right,1,0.75,0.05,5,0.040271347,0.1074,33,0,33,0,1,,,,,,,,,,
,,532493,001,2023-07-31_20h47.04.571,arm3_eps,2022.2.5,Win32,60.77549532,5ec3f25d9cedf7287004cd26,64c7fed44a04f777bb1e18ce,64c8010f3dab0076741d8318,right,1,0.75,0.05,5,0.052745702,0.116,34,0,34,0,1,,,,,,,,,,
,,532493,001,2023-07-31_20h47.04.571,arm3_eps,2022.2.5,Win32,60.77549532,5ec3f25d9cedf7287004cd26,64c7fed44a04f777bb1e18ce,64c8010f3dab0076741d8318,right,1,0.75,0.05,5,0.062555003,0.1182,35,0,35,0,1,,,,,,,,,,
,,532493,001,2023-07-31_20h47.04.571,arm3_eps,2022.2.5,Win32,60.77549532,5ec3f25d9cedf7287004cd26,64c7fed44a04f777bb1e18ce,64c8010f3dab0076741d8318,up,1,0.75,0.05,6,0,0.0004,36,0,36,0,1,,,,,,,,,,
,,532493,001,2023-07-31_20h47.04.571,arm3_eps,2022.2.5,Win32,60.77549532,5ec3f25d9cedf7287004cd26,64c7fed44a04f777bb1e18ce,64c8010f3dab0076741d8318,right,1,0.75,0.05,6,0.020211765,0.3492,37,0,37,0,1,,,,,,,,,,
,,532493,001,2023-07-31_20h47.04.571,arm3_eps,2022.2.5,Win32,60.77549532,5ec3f25d9cedf7287004cd26,64c7fed44a04f777bb1e18ce,64c8010f3dab0076741d8318,right,1,0.75,0.05,6,0.037773027,0.1183,38,0,38,0,1,,,,,,,,,,
,,532493,001,2023-07-31_20h47.04.571,arm3_eps,2022.2.5,Win32,60.77549532,5ec3f25d9cedf7287004cd26,64c7fed44a04f777bb1e18ce,64c8010f3dab0076741d8318,right,1,0.75,0.05,6,0.034330157,0.1327,39,0,39,0,1,,,,,,,,,,
,,532493,001,2023-07-31_20h47.04.571,arm3_eps,2022.2.5,Win32,60.77549532,5ec3f25d9cedf7287004cd26,64c7fed44a04f777bb1e18ce,64c8010f3dab0076741d8318,right,1,0.75,0.05,6,0.040297207,0.1189,40,0,40,0,1,,,,,,,,,,
,,532493,001,2023-07-31_20h47.04.571,arm3_eps,2022.2.5,Win32,60.77549532,5ec3f25d9cedf7287004cd26,64c7fed44a04f777bb1e18ce,64c8010f3dab0076741d8318,right,1,0.75,0.05,6,0.071272862,0.1204,41,0,41,0,1,,,,,,,,,,
,,532493,001,2023-07-31_20h47.04.571,arm3_eps,2022.2.5,Win32,60.77549532,5ec3f25d9cedf7287004cd26,64c7fed44a04f777bb1e18ce,64c8010f3dab0076741d8318,up,1,0.75,0.05,7,0,0.184,42,0,42,0,1,,,,,,,,,,
,,532493,001,2023-07-31_20h47.04.571,arm3_eps,2022.2.5,Win32,60.77549532,5ec3f25d9cedf7287004cd26,64c7fed44a04f777bb1e18ce,64c8010f3dab0076741d8318,right,1,0.75,0.05,7,0.018650321,0.3904,43,0,43,0,1,,,,,,,,,,
,,532493,001,2023-07-31_20h47.04.571,arm3_eps,2022.2.5,Win32,60.77549532,5ec3f25d9cedf7287004cd26,64c7fed44a04f777bb1e18ce,64c8010f3dab0076741d8318,right,1,0.75,0.05,7,-0.001595574,0.124,44,0,44,0,1,,,,,,,,,,
,,532493,001,2023-07-31_20h47.04.571,arm3_eps,2022.2.5,Win32,60.77549532,5ec3f25d9cedf7287004cd26,64c7fed44a04f777bb1e18ce,64c8010f3dab0076741d8318,right,1,0.75,0.05,7,0.019039593,0.1143,45,0,45,0,1,,,,,,,,,,
,,532493,001,2023-07-31_20h47.04.571,arm3_eps,2022.2.5,Win32,60.77549532,5ec3f25d9cedf7287004cd26,64c7fed44a04f777bb1e18ce,64c8010f3dab0076741d8318,right,1,0.75,0.05,7,0.039192718,0.1317,46,0,46,0,1,,,,,,,,,,
,,532493,001,2023-07-31_20h47.04.571,arm3_eps,2022.2.5,Win32,60.77549532,5ec3f25d9cedf7287004cd26,64c7fed44a04f777bb1e18ce,64c8010f3dab0076741d8318,right,1,0.75,0.05,7,0.082668878,0.134,47,0,47,0,1,,,,,,,,,,
,,532493,001,2023-07-31_20h47.04.571,arm3_eps,2022.2.5,Win32,60.77549532,5ec3f25d9cedf7287004cd26,64c7fed44a04f777bb1e18ce,64c8010f3dab0076741d8318,right,1,0.75,0.05,7,0.090975665,0.1154,48,0,48,0,1,,,,,,,,,,
,,532493,001,2023-07-31_20h47.04.571,arm3_eps,2022.2.5,Win32,60.77549532,5ec3f25d9cedf7287004cd26,64c7fed44a04f777bb1e18ce,64c8010f3dab0076741d8318,up,1,0.75,0.05,7,0.090975665,0.0662,49,0,49,0,1,,,,,,,,,,
space,2.5308,532493,001,2023-07-31_20h47.04.571,arm3_eps,2022.2.5,Win32,60.77549532,5ec3f25d9cedf7287004cd26,64c7fed44a04f777bb1e18ce,64c8010f3dab0076741d8318,,,,,,,,,,,,,,,,,,,,,,
space,0.7902,532493,001,2023-07-31_20h47.04.571,arm3_eps,2022.2.5,Win32,60.77549532,5ec3f25d9cedf7287004cd26,64c7fed44a04f777bb1e18ce,64c8010f3dab0076741d8318,,,,,,,,,,,,,,,,,,,,,,
,,532493,001,2023-07-31_20h47.04.571,arm3_eps,2022.2.5,Win32,60.77549532,5ec3f25d9cedf7287004cd26,64c7fed44a04f777bb1e18ce,64c8010f3dab0076741d8318,right,1,0.75,0.5,0,0.037479025,0.313,0,0,0,0,1,,,,,,,,,,
,,532493,001,2023-07-31_20h47.04.571,arm3_eps,2022.2.5,Win32,60.77549532,5ec3f25d9cedf7287004cd26,64c7fed44a04f777bb1e18ce,64c8010f3dab0076741d8318,right,1,0.75,0.5,0,0.035718711,0.109,1,0,1,0,1,,,,,,,,,,
,,532493,001,2023-07-31_20h47.04.571,arm3_eps,2022.2.5,Win32,60.77549532,5ec3f25d9cedf7287004cd26,64c7fed44a04f777bb1e18ce,64c8010f3dab0076741d8318,right,1,0.75,0.5,0,0.044156175,0.1157,2,0,2,0,1,,,,,,,,,,
,,532493,001,2023-07-31_20h47.04.571,arm3_eps,2022.2.5,Win32,60.77549532,5ec3f25d9cedf7287004cd26,64c7fed44a04f777bb1e18ce,64c8010f3dab0076741d8318,right,1,0.75,0.5,0,0.074004962,0.1177,3,0,3,0,1,,,,,,,,,,
,,532493,001,2023-07-31_20h47.04.571,arm3_eps,2022.2.5,Win32,60.77549532,5ec3f25d9cedf7287004cd26,64c7fed44a04f777bb1e18ce,64c8010f3dab0076741d8318,right,1,0.75,0.5,0,0.11244208,0.1162,4,0,4,0,1,,,,,,,,,,
,,532493,001,2023-07-31_20h47.04.571,arm3_eps,2022.2.5,Win32,60.77549532,5ec3f25d9cedf7287004cd26,64c7fed44a04f777bb1e18ce,64c8010f3dab0076741d8318,up,1,0.75,0.5,1,0,0.1331,5,0,5,0,1,,,,,,,,,,
,,532493,001,2023-07-31_20h47.04.571,arm3_eps,2022.2.5,Win32,60.77549532,5ec3f25d9cedf7287004cd26,64c7fed44a04f777bb1e18ce,64c8010f3dab0076741d8318,up,-1,0.75,0.5,2,0,0.1295,6,0,6,0,1,,,,,,,,,,
,,532493,001,2023-07-31_20h47.04.571,arm3_eps,2022.2.5,Win32,60.77549532,5ec3f25d9cedf7287004cd26,64c7fed44a04f777bb1e18ce,64c8010f3dab0076741d8318,right,-1,0.75,0.5,2,0.021070232,0.1173,7,0,7,0,1,,,,,,,,,,
,,532493,001,2023-07-31_20h47.04.571,arm3_eps,2022.2.5,Win32,60.77549532,5ec3f25d9cedf7287004cd26,64c7fed44a04f777bb1e18ce,64c8010f3dab0076741d8318,right,-1,0.75,0.5,2,0.033057965,0.1367,8,0,8,0,1,,,,,,,,,,
,,532493,001,2023-07-31_20h47.04.571,arm3_eps,2022.2.5,Win32,60.77549532,5ec3f25d9cedf7287004cd26,64c7fed44a04f777bb1e18ce,64c8010f3dab0076741d8318,right,-1,0.75,0.5,2,0.016721069,0.1241,9,0,9,0,1,,,,,,,,,,
,,532493,001,2023-07-31_20h47.04.571,arm3_eps,2022.2.5,Win32,60.77549532,5ec3f25d9cedf7287004cd26,64c7fed44a04f777bb1e18ce,64c8010f3dab0076741d8318,right,-1,0.75,0.5,2,0.015559102,0.1315,10,0,10,0,1,,,,,,,,,,
,,532493,001,2023-07-31_20h47.04.571,arm3_eps,2022.2.5,Win32,60.77549532,5ec3f25d9cedf7287004cd26,64c7fed44a04f777bb1e18ce,64c8010f3dab0076741d8318,right,-1,0.75,0.5,2,-0.013210091,0.1028,11,0,11,0,1,,,,,,,,,,
,,532493,001,2023-07-31_20h47.04.571,arm3_eps,2022.2.5,Win32,60.77549532,5ec3f25d9cedf7287004cd26,64c7fed44a04f777bb1e18ce,64c8010f3dab0076741d8318,right,-1,0.75,0.5,2,0.018782021,0.1215,12,0,12,0,1,,,,,,,,,,
,,532493,001,2023-07-31_20h47.04.571,arm3_eps,2022.2.5,Win32,60.77549532,5ec3f25d9cedf7287004cd26,64c7fed44a04f777bb1e18ce,64c8010f3dab0076741d8318,down,-1,0.75,0.5,3,0,0.2874,13,0,13,0,1,,,,,,,,,,
,,532493,001,2023-07-31_20h47.04.571,arm3_eps,2022.2.5,Win32,60.77549532,5ec3f25d9cedf7287004cd26,64c7fed44a04f777bb1e18ce,64c8010f3dab0076741d8318,down,-1,0.75,0.5,4,0,0.063,14,0,14,0,1,,,,,,,,,,
,,532493,001,2023-07-31_20h47.04.571,arm3_eps,2022.2.5,Win32,60.77549532,5ec3f25d9cedf7287004cd26,64c7fed44a04f777bb1e18ce,64c8010f3dab0076741d8318,right,-1,0.75,0.5,4,-0.010839266,0.2061,15,0,15,0,1,,,,,,,,,,
,,532493,001,2023-07-31_20h47.04.571,arm3_eps,2022.2.5,Win32,60.77549532,5ec3f25d9cedf7287004cd26,64c7fed44a04f777bb1e18ce,64c8010f3dab0076741d8318,right,-1,0.75,0.5,4,-0.001497515,0.1316,16,0,16,0,1,,,,,,,,,,
,,532493,001,2023-07-31_20h47.04.571,arm3_eps,2022.2.5,Win32,60.77549532,5ec3f25d9cedf7287004cd26,64c7fed44a04f777bb1e18ce,64c8010f3dab0076741d8318,right,-1,0.75,0.5,4,0.016295508,0.1254,17,0,17,0,1,,,,,,,,,,
,,532493,001,2023-07-31_20h47.04.571,arm3_eps,2022.2.5,Win32,60.77549532,5ec3f25d9cedf7287004cd26,64c7fed44a04f777bb1e18ce,64c8010f3dab0076741d8318,right,-1,0.75,0.5,4,0.000844519,0.1172,18,0,18,0,1,,,,,,,,,,
,,532493,001,2023-07-31_20h47.04.571,arm3_eps,2022.2.5,Win32,60.77549532,5ec3f25d9cedf7287004cd26,64c7fed44a04f777bb1e18ce,64c8010f3dab0076741d8318,right,-1,0.75,0.5,4,0.000502887,0.1003,19,0,19,0,1,,,,,,,,,,
,,532493,001,2023-07-31_20h47.04.571,arm3_eps,2022.2.5,Win32,60.77549532,5ec3f25d9cedf7287004cd26,64c7fed44a04f777bb1e18ce,64c8010f3dab0076741d8318,right,-1,0.75,0.5,4,0.007142368,0.092,20,0,20,0,1,,,,,,,,,,
,,532493,001,2023-07-31_20h47.04.571,arm3_eps,2022.2.5,Win32,60.77549532,5ec3f25d9cedf7287004cd26,64c7fed44a04f777bb1e18ce,64c8010f3dab0076741d8318,right,-1,0.75,0.5,4,0.013826849,0.1238,21,0,21,0,1,,,,,,,,,,
,,532493,001,2023-07-31_20h47.04.571,arm3_eps,2022.2.5,Win32,60.77549532,5ec3f25d9cedf7287004cd26,64c7fed44a04f777bb1e18ce,64c8010f3dab0076741d8318,right,-1,0.75,0.5,4,0.008763251,0.1582,22,0,22,0,1,,,,,,,,,,
,,532493,001,2023-07-31_20h47.04.571,arm3_eps,2022.2.5,Win32,60.77549532,5ec3f25d9cedf7287004cd26,64c7fed44a04f777bb1e18ce,64c8010f3dab0076741d8318,right,-1,0.75,0.5,4,-0.023116001,0.2914,23,0,23,0,1,,,,,,,,,,
,,532493,001,2023-07-31_20h47.04.571,arm3_eps,2022.2.5,Win32,60.77549532,5ec3f25d9cedf7287004cd26,64c7fed44a04f777bb1e18ce,64c8010f3dab0076741d8318,down,1,0.75,0.5,5,0,0.0651,24,0,24,0,1,,,,,,,,,,
,,532493,001,2023-07-31_20h47.04.571,arm3_eps,2022.2.5,Win32,60.77549532,5ec3f25d9cedf7287004cd26,64c7fed44a04f777bb1e18ce,64c8010f3dab0076741d8318,right,1,0.75,0.5,5,-0.004066,0.341,25,0,25,0,1,,,,,,,,,,
,,532493,001,2023-07-31_20h47.04.571,arm3_eps,2022.2.5,Win32,60.77549532,5ec3f25d9cedf7287004cd26,64c7fed44a04f777bb1e18ce,64c8010f3dab0076741d8318,right,1,0.75,0.5,5,0.022421787,0.1226,26,0,26,0,1,,,,,,,,,,
,,532493,001,2023-07-31_20h47.04.571,arm3_eps,2022.2.5,Win32,60.77549532,5ec3f25d9cedf7287004cd26,64c7fed44a04f777bb1e18ce,64c8010f3dab0076741d8318,right,1,0.75,0.5,5,0.035696893,0.1251,27,0,27,0,1,,,,,,,,,,
,,532493,001,2023-07-31_20h47.04.571,arm3_eps,2022.2.5,Win32,60.77549532,5ec3f25d9cedf7287004cd26,64c7fed44a04f777bb1e18ce,64c8010f3dab0076741d8318,right,1,0.75,0.5,5,0.042244988,0.1244,28,0,28,0,1,,,,,,,,,,
,,532493,001,2023-07-31_20h47.04.571,arm3_eps,2022.2.5,Win32,60.77549532,5ec3f25d9cedf7287004cd26,64c7fed44a04f777bb1e18ce,64c8010f3dab0076741d8318,right,1,0.75,0.5,5,0.07841543,0.1341,29,0,29,0,1,,,,,,,,,,
,,532493,001,2023-07-31_20h47.04.571,arm3_eps,2022.2.5,Win32,60.77549532,5ec3f25d9cedf7287004cd26,64c7fed44a04f777bb1e18ce,64c8010f3dab0076741d8318,right,1,0.75,0.5,5,0.10263516,0.1172,30,0,30,0,1,,,,,,,,,,
,,532493,001,2023-07-31_20h47.04.571,arm3_eps,2022.2.5,Win32,60.77549532,5ec3f25d9cedf7287004cd26,64c7fed44a04f777bb1e18ce,64c8010f3dab0076741d8318,right,1,0.75,0.5,5,0.102197635,0.1335,31,0,31,0,1,,,,,,,,,,
,,532493,001,2023-07-31_20h47.04.571,arm3_eps,2022.2.5,Win32,60.77549532,5ec3f25d9cedf7287004cd26,64c7fed44a04f777bb1e18ce,64c8010f3dab0076741d8318,right,1,0.75,0.5,5,0.102756702,0.1148,32,0,32,0,1,,,,,,,,,,
,,532493,001,2023-07-31_20h47.04.571,arm3_eps,2022.2.5,Win32,60.77549532,5ec3f25d9cedf7287004cd26,64c7fed44a04f777bb1e18ce,64c8010f3dab0076741d8318,up,-1,0.75,0.5,6,0,0.0981,33,0,33,0,1,,,,,,,,,,
,,532493,001,2023-07-31_20h47.04.571,arm3_eps,2022.2.5,Win32,60.77549532,5ec3f25d9cedf7287004cd26,64c7fed44a04f777bb1e18ce,64c8010f3dab0076741d8318,right,-1,0.75,0.5,6,-0.012773579,0.3474,34,0,34,0,1,,,,,,,,,,
,,532493,001,2023-07-31_20h47.04.571,arm3_eps,2022.2.5,Win32,60.77549532,5ec3f25d9cedf7287004cd26,64c7fed44a04f777bb1e18ce,64c8010f3dab0076741d8318,right,-1,0.75,0.5,6,-0.045733429,0.1003,35,0,35,0,1,,,,,,,,,,
,,532493,001,2023-07-31_20h47.04.571,arm3_eps,2022.2.5,Win32,60.77549532,5ec3f25d9cedf7287004cd26,64c7fed44a04f777bb1e18ce,64c8010f3dab0076741d8318,right,-1,0.75,0.5,6,-0.064679135,0.1069,36,0,36,0,1,,,,,,,,,,
,,532493,001,2023-07-31_20h47.04.571,arm3_eps,2022.2.5,Win32,60.77549532,5ec3f25d9cedf7287004cd26,64c7fed44a04f777bb1e18ce,64c8010f3dab0076741d8318,right,-1,0.75,0.5,6,-0.102703719,0.1334,37,0,37,0,1,,,,,,,,,,
,,532493,001,2023-07-31_20h47.04.571,arm3_eps,2022.2.5,Win32,60.77549532,5ec3f25d9cedf7287004cd26,64c7fed44a04f777bb1e18ce,64c8010f3dab0076741d8318,right,-1,0.75,0.5,6,-0.094843305,0.1069,38,0,38,0,1,,,,,,,,,,
,,532493,001,2023-07-31_20h47.04.571,arm3_eps,2022.2.5,Win32,60.77549532,5ec3f25d9cedf7287004cd26,64c7fed44a04f777bb1e18ce,64c8010f3dab0076741d8318,right,-1,0.75,0.5,6,-0.115478847,0.1226,39,0,39,0,1,,,,,,,,,,
,,532493,001,2023-07-31_20h47.04.571,arm3_eps,2022.2.5,Win32,60.77549532,5ec3f25d9cedf7287004cd26,64c7fed44a04f777bb1e18ce,64c8010f3dab0076741d8318,right,-1,0.75,0.5,6,-0.166695526,0.1149,40,0,40,0,1,,,,,,,,,,
,,532493,001,2023-07-31_20h47.04.571,arm3_eps,2022.2.5,Win32,60.77549532,5ec3f25d9cedf7287004cd26,64c7fed44a04f777bb1e18ce,64c8010f3dab0076741d8318,down,1,0.75,0.5,7,0,0.1021,41,0,41,0,1,,,,,,,,,,
,,532493,001,2023-07-31_20h47.04.571,arm3_eps,2022.2.5,Win32,60.77549532,5ec3f25d9cedf7287004cd26,64c7fed44a04f777bb1e18ce,64c8010f3dab0076741d8318,right,1,0.75,0.5,7,-0.001713907,0.3053,42,0,42,0,1,,,,,,,,,,
,,532493,001,2023-07-31_20h47.04.571,arm3_eps,2022.2.5,Win32,60.77549532,5ec3f25d9cedf7287004cd26,64c7fed44a04f777bb1e18ce,64c8010f3dab0076741d8318,right,1,0.75,0.5,7,0.028235174,0.099,43,0,43,0,1,,,,,,,,,,
,,532493,001,2023-07-31_20h47.04.571,arm3_eps,2022.2.5,Win32,60.77549532,5ec3f25d9cedf7287004cd26,64c7fed44a04f777bb1e18ce,64c8010f3dab0076741d8318,right,1,0.75,0.5,7,0.02947627,0.1253,44,0,44,0,1,,,,,,,,,,
,,532493,001,2023-07-31_20h47.04.571,arm3_eps,2022.2.5,Win32,60.77549532,5ec3f25d9cedf7287004cd26,64c7fed44a04f777bb1e18ce,64c8010f3dab0076741d8318,right,1,0.75,0.5,7,0.038379007,0.0929,45,0,45,0,1,,,,,,,,,,
,,532493,001,2023-07-31_20h47.04.571,arm3_eps,2022.2.5,Win32,60.77549532,5ec3f25d9cedf7287004cd26,64c7fed44a04f777bb1e18ce,64c8010f3dab0076741d8318,right,1,0.75,0.5,7,0.019381198,0.1005,46,0,46,0,1,,,,,,,,,,
,,532493,001,2023-07-31_20h47.04.571,arm3_eps,2022.2.5,Win32,60.77549532,5ec3f25d9cedf7287004cd26,64c7fed44a04f777bb1e18ce,64c8010f3dab0076741d8318,right,1,0.75,0.5,7,0.026881917,0.1393,47,0,47,0,1,,,,,,,,,,
,,532493,001,2023-07-31_20h47.04.571,arm3_eps,2022.2.5,Win32,60.77549532,5ec3f25d9cedf7287004cd26,64c7fed44a04f777bb1e18ce,64c8010f3dab0076741d8318,right,1,0.75,0.5,7,0.024320505,0.1489,48,0,48,0,1,,,,,,,,,,
,,532493,001,2023-07-31_20h47.04.571,arm3_eps,2022.2.5,Win32,60.77549532,5ec3f25d9cedf7287004cd26,64c7fed44a04f777bb1e18ce,64c8010f3dab0076741d8318,up,1,0.75,0.5,7,0.024320505,0.3637,49,0,49,0,1,,,,,,,,,,
space,1.1787,532493,001,2023-07-31_20h47.04.571,arm3_eps,2022.2.5,Win32,60.77549532,5ec3f25d9cedf7287004cd26,64c7fed44a04f777bb1e18ce,64c8010f3dab0076741d8318,,,,,,,,,,,,,,,,,,,,,,
space,4.3227,532493,001,2023-07-31_20h47.04.571,arm3_eps,2022.2.5,Win32,60.77549532,5ec3f25d9cedf7287004cd26,64c7fed44a04f777bb1e18ce,64c8010f3dab0076741d8318,right,1,0.75,0.2429,0,0.02093699,1.2466,,,,,,0,0,0,0,1,,,,,
,,532493,001,2023-07-31_20h47.04.571,arm3_eps,2022.2.5,Win32,60.77549532,5ec3f25d9cedf7287004cd26,64c7fed44a04f777bb1e18ce,64c8010f3dab0076741d8318,right,1,0.75,0.2429,0,0.022315589,0.1161,,,,,,1,0,1,0,1,,,,,
,,532493,001,2023-07-31_20h47.04.571,arm3_eps,2022.2.5,Win32,60.77549532,5ec3f25d9cedf7287004cd26,64c7fed44a04f777bb1e18ce,64c8010f3dab0076741d8318,right,1,0.75,0.2429,0,0.015672342,0.1218,,,,,,2,0,2,0,1,,,,,
,,532493,001,2023-07-31_20h47.04.571,arm3_eps,2022.2.5,Win32,60.77549532,5ec3f25d9cedf7287004cd26,64c7fed44a04f777bb1e18ce,64c8010f3dab0076741d8318,right,1,0.75,0.2429,0,0.048117599,0.1334,,,,,,3,0,3,0,1,,,,,
,,532493,001,2023-07-31_20h47.04.571,arm3_eps,2022.2.5,Win32,60.77549532,5ec3f25d9cedf7287004cd26,64c7fed44a04f777bb1e18ce,64c8010f3dab0076741d8318,right,1,0.75,0.2429,0,0.071852251,0.1169,,,,,,4,0,4,0,1,,,,,
,,532493,001,2023-07-31_20h47.04.571,arm3_eps,2022.2.5,Win32,60.77549532,5ec3f25d9cedf7287004cd26,64c7fed44a04f777bb1e18ce,64c8010f3dab0076741d8318,right,1,0.75,0.2429,0,0.081648563,0.205,,,,,,5,0,5,0,1,,,,,
,,532493,001,2023-07-31_20h47.04.571,arm3_eps,2022.2.5,Win32,60.77549532,5ec3f25d9cedf7287004cd26,64c7fed44a04f777bb1e18ce,64c8010f3dab0076741d8318,right,1,0.75,0.2429,0,0.091269885,0.3241,,,,,,6,0,6,0,1,,,,,
,,532493,001,2023-07-31_20h47.04.571,arm3_eps,2022.2.5,Win32,60.77549532,5ec3f25d9cedf7287004cd26,64c7fed44a04f777bb1e18ce,64c8010f3dab0076741d8318,up,1,0.75,0.2429,1,0,0.5167,,,,,,7,0,7,0,1,,,,,
,,532493,001,2023-07-31_20h47.04.571,arm3_eps,2022.2.5,Win32,60.77549532,5ec3f25d9cedf7287004cd26,64c7fed44a04f777bb1e18ce,64c8010f3dab0076741d8318,right,1,0.75,0.2429,1,-0.023864664,0.6812,,,,,,8,0,8,0,1,,,,,
,,532493,001,2023-07-31_20h47.04.571,arm3_eps,2022.2.5,Win32,60.77549532,5ec3f25d9cedf7287004cd26,64c7fed44a04f777bb1e18ce,64c8010f3dab0076741d8318,right,1,0.75,0.2429,1,-0.000964966,0.1007,,,,,,9,0,9,0,1,,,,,
,,532493,001,2023-07-31_20h47.04.571,arm3_eps,2022.2.5,Win32,60.77549532,5ec3f25d9cedf7287004cd26,64c7fed44a04f777bb1e18ce,64c8010f3dab0076741d8318,right,1,0.75,0.2429,1,0.024786641,0.1,,,,,,10,0,10,0,1,,,,,
,,532493,001,2023-07-31_20h47.04.571,arm3_eps,2022.2.5,Win32,60.77549532,5ec3f25d9cedf7287004cd26,64c7fed44a04f777bb1e18ce,64c8010f3dab0076741d8318,right,1,0.75,0.2429,1,0.037901792,0.1011,,,,,,11,0,11,0,1,,,,,
,,532493,001,2023-07-31_20h47.04.571,arm3_eps,2022.2.5,Win32,60.77549532,5ec3f25d9cedf7287004cd26,64c7fed44a04f777bb1e18ce,64c8010f3dab0076741d8318,right,1,0.75,0.2429,1,0.07157931,0.1325,,,,,,12,0,12,0,1,,,,,
,,532493,001,2023-07-31_20h47.04.571,arm3_eps,2022.2.5,Win32,60.77549532,5ec3f25d9cedf7287004cd26,64c7fed44a04f777bb1e18ce,64c8010f3dab0076741d8318,up,-1,0.75,0.2429,2,0,0.268,,,,,,13,0,13,0,1,,,,,
,,532493,001,2023-07-31_20h47.04.571,arm3_eps,2022.2.5,Win32,60.77549532,5ec3f25d9cedf7287004cd26,64c7fed44a04f777bb1e18ce,64c8010f3dab0076741d8318,right,-1,0.75,0.2429,2,-0.047425253,0.5523,,,,,,14,0,14,0,1,,,,,
,,532493,001,2023-07-31_20h47.04.571,arm3_eps,2022.2.5,Win32,60.77549532,5ec3f25d9cedf7287004cd26,64c7fed44a04f777bb1e18ce,64c8010f3dab0076741d8318,right,-1,0.75,0.2429,2,-0.042597052,0.1208,,,,,,15,0,15,0,1,,,,,
,,532493,001,2023-07-31_20h47.04.571,arm3_eps,2022.2.5,Win32,60.77549532,5ec3f25d9cedf7287004cd26,64c7fed44a04f777bb1e18ce,64c8010f3dab0076741d8318,right,-1,0.75,0.2429,2,-0.057371228,0.1001,,,,,,16,0,16,0,1,,,,,
,,532493,001,2023-07-31_20h47.04.571,arm3_eps,2022.2.5,Win32,60.77549532,5ec3f25d9cedf7287004cd26,64c7fed44a04f777bb1e18ce,64c8010f3dab0076741d8318,right,-1,0.75,0.2429,2,-0.045400689,0.1168,,,,,,17,0,17,0,1,,,,,
,,532493,001,2023-07-31_20h47.04.571,arm3_eps,2022.2.5,Win32,60.77549532,5ec3f25d9cedf7287004cd26,64c7fed44a04f777bb1e18ce,64c8010f3dab0076741d8318,down,1,0.75,0.2429,3,0,0.1923,,,,,,18,0,18,0,1,,,,,
,,532493,001,2023-07-31_20h47.04.571,arm3_eps,2022.2.5,Win32,60.77549532,5ec3f25d9cedf7287004cd26,64c7fed44a04f777bb1e18ce,64c8010f3dab0076741d8318,right,1,0.75,0.2429,3,0.020728741,0.4144,,,,,,19,0,19,0,1,,,,,
,,532493,001,2023-07-31_20h47.04.571,arm3_eps,2022.2.5,Win32,60.77549532,5ec3f25d9cedf7287004cd26,64c7fed44a04f777bb1e18ce,64c8010f3dab0076741d8318,right,1,0.75,0.2429,3,0.046918354,0.0988,,,,,,20,0,20,0,1,,,,,
,,532493,001,2023-07-31_20h47.04.571,arm3_eps,2022.2.5,Win32,60.77549532,5ec3f25d9cedf7287004cd26,64c7fed44a04f777bb1e18ce,64c8010f3dab0076741d8318,right,1,0.75,0.2429,3,0.091023739,0.1174,,,,,,21,0,21,0,1,,,,,
,,532493,001,2023-07-31_20h47.04.571,arm3_eps,2022.2.5,Win32,60.77549532,5ec3f25d9cedf7287004cd26,64c7fed44a04f777bb1e18ce,64c8010f3dab0076741d8318,right,1,0.75,0.2429,3,0.091877214,0.1173,,,,,,22,0,22,0,1,,,,,
,,532493,001,2023-07-31_20h47.04.571,arm3_eps,2022.2.5,Win32,60.77549532,5ec3f25d9cedf7287004cd26,64c7fed44a04f777bb1e18ce,64c8010f3dab0076741d8318,up,1,0.75,0.2429,4,0,0.2034,,,,,,23,0,23,0,1,,,,,
,,532493,001,2023-07-31_20h47.04.571,arm3_eps,2022.2.5,Win32,60.77549532,5ec3f25d9cedf7287004cd26,64c7fed44a04f777bb1e18ce,64c8010f3dab0076741d8318,right,1,0.75,0.2429,4,0.020121414,0.5308,,,,,,24,0,24,0,1,,,,,
,,532493,001,2023-07-31_20h47.04.571,arm3_eps,2022.2.5,Win32,60.77549532,5ec3f25d9cedf7287004cd26,64c7fed44a04f777bb1e18ce,64c8010f3dab0076741d8318,right,1,0.75,0.2429,4,0.049670804,0.1003,,,,,,25,0,25,0,1,,,,,
,,532493,001,2023-07-31_20h47.04.571,arm3_eps,2022.2.5,Win32,60.77549532,5ec3f25d9cedf7287004cd26,64c7fed44a04f777bb1e18ce,64c8010f3dab0076741d8318,right,1,0.75,0.2429,4,0.053455188,0.1154,,,,,,26,0,26,0,1,,,,,
,,532493,001,2023-07-31_20h47.04.571,arm3_eps,2022.2.5,Win32,60.77549532,5ec3f25d9cedf7287004cd26,64c7fed44a04f777bb1e18ce,64c8010f3dab0076741d8318,right,1,0.75,0.2429,4,0.069896583,0.1086,,,,,,27,0,27,0,1,,,,,
,,532493,001,2023-07-31_20h47.04.571,arm3_eps,2022.2.5,Win32,60.77549532,5ec3f25d9cedf7287004cd26,64c7fed44a04f777bb1e18ce,64c8010f3dab0076741d8318,right,1,0.75,0.2429,4,0.058497559,0.1331,,,,,,28,0,28,0,1,,,,,
,,532493,001,2023-07-31_20h47.04.571,arm3_eps,2022.2.5,Win32,60.77549532,5ec3f25d9cedf7287004cd26,64c7fed44a04f777bb1e18ce,64c8010f3dab0076741d8318,up,1,0.75,0.2429,5,0,0.1497,,,,,,29,0,29,0,1,,,,,
,,532493,001,2023-07-31_20h47.04.571,arm3_eps,2022.2.5,Win32,60.77549532,5ec3f25d9cedf7287004cd26,64c7fed44a04f777bb1e18ce,64c8010f3dab0076741d8318,right,1,0.75,0.2429,5,0.019544122,0.5715,,,,,,30,0,30,0,1,,,,,
,,532493,001,2023-07-31_20h47.04.571,arm3_eps,2022.2.5,Win32,60.77549532,5ec3f25d9cedf7287004cd26,64c7fed44a04f777bb1e18ce,64c8010f3dab0076741d8318,right,1,0.75,0.2429,5,0.021331842,0.1023,,,,,,31,0,31,0,1,,,,,
,,532493,001,2023-07-31_20h47.04.571,arm3_eps,2022.2.5,Win32,60.77549532,5ec3f25d9cedf7287004cd26,64c7fed44a04f777bb1e18ce,64c8010f3dab0076741d8318,right,1,0.75,0.2429,5,0.01206979,0.1239,,,,,,32,0,32,0,1,,,,,
,,532493,001,2023-07-31_20h47.04.571,arm3_eps,2022.2.5,Win32,60.77549532,5ec3f25d9cedf7287004cd26,64c7fed44a04f777bb1e18ce,64c8010f3dab0076741d8318,right,1,0.75,0.2429,5,0.034260804,0.1194,,,,,,33,0,33,0,1,,,,,
,,532493,001,2023-07-31_20h47.04.571,arm3_eps,2022.2.5,Win32,60.77549532,5ec3f25d9cedf7287004cd26,64c7fed44a04f777bb1e18ce,64c8010f3dab0076741d8318,right,1,0.75,0.2429,5,0.058760673,0.1681,,,,,,34,0,34,0,1,,,,,
,,532493,001,2023-07-31_20h47.04.571,arm3_eps,2022.2.5,Win32,60.77549532,5ec3f25d9cedf7287004cd26,64c7fed44a04f777bb1e18ce,64c8010f3dab0076741d8318,up,-1,0.75,0.2429,6,0,0.3058,,,,,,35,0,35,0,1,,,,,
,,532493,001,2023-07-31_20h47.04.571,arm3_eps,2022.2.5,Win32,60.77549532,5ec3f25d9cedf7287004cd26,64c7fed44a04f777bb1e18ce,64c8010f3dab0076741d8318,right,-1,0.75,0.2429,6,0.005101523,0.4333,,,,,,36,0,36,0,1,,,,,
,,532493,001,2023-07-31_20h47.04.571,arm3_eps,2022.2.5,Win32,60.77549532,5ec3f25d9cedf7287004cd26,64c7fed44a04f777bb1e18ce,64c8010f3dab0076741d8318,right,-1,0.75,0.2429,6,-0.012804392,0.1019,,,,,,37,0,37,0,1,,,,,
,,532493,001,2023-07-31_20h47.04.571,arm3_eps,2022.2.5,Win32,60.77549532,5ec3f25d9cedf7287004cd26,64c7fed44a04f777bb1e18ce,64c8010f3dab0076741d8318,right,-1,0.75,0.2429,6,-0.049186012,0.1168,,,,,,38,0,38,0,1,,,,,
,,532493,001,2023-07-31_20h47.04.571,arm3_eps,2022.2.5,Win32,60.77549532,5ec3f25d9cedf7287004cd26,64c7fed44a04f777bb1e18ce,64c8010f3dab0076741d8318,right,-1,0.75,0.2429,6,-0.068618045,0.1167,,,,,,39,0,39,0,1,,,,,
,,532493,001,2023-07-31_20h47.04.571,arm3_eps,2022.2.5,Win32,60.77549532,5ec3f25d9cedf7287004cd26,64c7fed44a04f777bb1e18ce,64c8010f3dab0076741d8318,down,-1,0.75,0.2429,7,0,0.7721,,,,,,40,0,40,0,1,,,,,
,,532493,001,2023-07-31_20h47.04.571,arm3_eps,2022.2.5,Win32,60.77549532,5ec3f25d9cedf7287004cd26,64c7fed44a04f777bb1e18ce,64c8010f3dab0076741d8318,right,-1,0.75,0.2429,7,-0.018575879,0.3962,,,,,,41,0,41,0,1,,,,,
,,532493,001,2023-07-31_20h47.04.571,arm3_eps,2022.2.5,Win32,60.77549532,5ec3f25d9cedf7287004cd26,64c7fed44a04f777bb1e18ce,64c8010f3dab0076741d8318,right,-1,0.75,0.2429,7,-0.065389634,0.0749,,,,,,42,0,42,0,1,,,,,
,,532493,001,2023-07-31_20h47.04.571,arm3_eps,2022.2.5,Win32,60.77549532,5ec3f25d9cedf7287004cd26,64c7fed44a04f777bb1e18ce,64c8010f3dab0076741d8318,right,-1,0.75,0.2429,7,-0.07181245,0.1154,,,,,,43,0,43,0,1,,,,,
,,532493,001,2023-07-31_20h47.04.571,arm3_eps,2022.2.5,Win32,60.77549532,5ec3f25d9cedf7287004cd26,64c7fed44a04f777bb1e18ce,64c8010f3dab0076741d8318,right,-1,0.75,0.2429,7,-0.094128252,0.1019,,,,,,44,0,44,0,1,,,,,
,,532493,001,2023-07-31_20h47.04.571,arm3_eps,2022.2.5,Win32,60.77549532,5ec3f25d9cedf7287004cd26,64c7fed44a04f777bb1e18ce,64c8010f3dab0076741d8318,right,-1,0.75,0.2429,7,-0.10655971,0.1403,,,,,,45,0,45,0,1,,,,,
,,532493,001,2023-07-31_20h47.04.571,arm3_eps,2022.2.5,Win32,60.77549532,5ec3f25d9cedf7287004cd26,64c7fed44a04f777bb1e18ce,64c8010f3dab0076741d8318,down,-1,0.75,0.2429,7,0,0.2812,,,,,,46,0,46,0,1,,,,,
,,532493,001,2023-07-31_20h47.04.571,arm3_eps,2022.2.5,Win32,60.77549532,5ec3f25d9cedf7287004cd26,64c7fed44a04f777bb1e18ce,64c8010f3dab0076741d8318,right,-1,0.75,0.2429,7,-0.01680679,0.6954,,,,,,47,0,47,0,1,,,,,
,,532493,001,2023-07-31_20h47.04.571,arm3_eps,2022.2.5,Win32,60.77549532,5ec3f25d9cedf7287004cd26,64c7fed44a04f777bb1e18ce,64c8010f3dab0076741d8318,right,-1,0.75,0.2429,7,-0.004044202,0.1019,,,,,,48,0,48,0,1,,,,,
,,532493,001,2023-07-31_20h47.04.571,arm3_eps,2022.2.5,Win32,60.77549532,5ec3f25d9cedf7287004cd26,64c7fed44a04f777bb1e18ce,64c8010f3dab0076741d8318,right,-1,0.75,0.2429,7,0.01399994,0.1151,,,,,,49,0,49,0,1,,,,,
,,532493,001,2023-07-31_20h47.04.571,arm3_eps,2022.2.5,Win32,60.77549532,5ec3f25d9cedf7287004cd26,64c7fed44a04f777bb1e18ce,64c8010f3dab0076741d8318,right,-1,0.75,0.2429,7,0.013718492,0.1344,,,,,,50,0,50,0,1,,,,,
,,532493,001,2023-07-31_20h47.04.571,arm3_eps,2022.2.5,Win32,60.77549532,5ec3f25d9cedf7287004cd26,64c7fed44a04f777bb1e18ce,64c8010f3dab0076741d8318,right,-1,0.75,0.2429,7,-0.000863692,0.1406,,,,,,51,0,51,0,1,,,,,
,,532493,001,2023-07-31_20h47.04.571,arm3_eps,2022.2.5,Win32,60.77549532,5ec3f25d9cedf7287004cd26,64c7fed44a04f777bb1e18ce,64c8010f3dab0076741d8318,down,1,0.75,0.2429,8,0,0.3811,,,,,,52,0,52,0,1,,,,,
,,532493,001,2023-07-31_20h47.04.571,arm3_eps,2022.2.5,Win32,60.77549532,5ec3f25d9cedf7287004cd26,64c7fed44a04f777bb1e18ce,64c8010f3dab0076741d8318,right,1,0.75,0.2429,8,-0.009216608,0.3383,,,,,,53,0,53,0,1,,,,,
,,532493,001,2023-07-31_20h47.04.571,arm3_eps,2022.2.5,Win32,60.77549532,5ec3f25d9cedf7287004cd26,64c7fed44a04f777bb1e18ce,64c8010f3dab0076741d8318,right,1,0.75,0.2429,8,-0.007641959,0.1032,,,,,,54,0,54,0,1,,,,,
,,532493,001,2023-07-31_20h47.04.571,arm3_eps,2022.2.5,Win32,60.77549532,5ec3f25d9cedf7287004cd26,64c7fed44a04f777bb1e18ce,64c8010f3dab0076741d8318,right,1,0.75,0.2429,8,-0.010695447,0.1207,,,,,,55,0,55,0,1,,,,,
,,532493,001,2023-07-31_20h47.04.571,arm3_eps,2022.2.5,Win32,60.77549532,5ec3f25d9cedf7287004cd26,64c7fed44a04f777bb1e18ce,64c8010f3dab0076741d8318,right,1,0.75,0.2429,8,-0.024780956,0.1312,,,,,,56,0,56,0,1,,,,,
,,532493,001,2023-07-31_20h47.04.571,arm3_eps,2022.2.5,Win32,60.77549532,5ec3f25d9cedf7287004cd26,64c7fed44a04f777bb1e18ce,64c8010f3dab0076741d8318,right,1,0.75,0.2429,8,-0.002053695,0.109,,,,,,57,0,57,0,1,,,,,
,,532493,001,2023-07-31_20h47.04.571,arm3_eps,2022.2.5,Win32,60.77549532,5ec3f25d9cedf7287004cd26,64c7fed44a04f777bb1e18ce,64c8010f3dab0076741d8318,right,1,0.75,0.2429,8,-0.00719449,0.5486,,,,,,58,0,58,0,1,,,,,
,,532493,001,2023-07-31_20h47.04.571,arm3_eps,2022.2.5,Win32,60.77549532,5ec3f25d9cedf7287004cd26,64c7fed44a04f777bb1e18ce,64c8010f3dab0076741d8318,up,-1,0.75,0.2429,9,0,0.3492,,,,,,59,0,59,0,1,,,,,
,,532493,001,2023-07-31_20h47.04.571,arm3_eps,2022.2.5,Win32,60.77549532,5ec3f25d9cedf7287004cd26,64c7fed44a04f777bb1e18ce,64c8010f3dab0076741d8318,right,-1,0.75,0.2429,9,-0.042513703,0.4396,,,,,,60,0,60,0,1,,,,,
,,532493,001,2023-07-31_20h47.04.571,arm3_eps,2022.2.5,Win32,60.77549532,5ec3f25d9cedf7287004cd26,64c7fed44a04f777bb1e18ce,64c8010f3dab0076741d8318,right,-1,0.75,0.2429,9,-0.042719285,0.1078,,,,,,61,0,61,0,1,,,,,
,,532493,001,2023-07-31_20h47.04.571,arm3_eps,2022.2.5,Win32,60.77549532,5ec3f25d9cedf7287004cd26,64c7fed44a04f777bb1e18ce,64c8010f3dab0076741d8318,right,-1,0.75,0.2429,9,-0.086915752,0.1383,,,,,,62,0,62,0,1,,,,,
,,532493,001,2023-07-31_20h47.04.571,arm3_eps,2022.2.5,Win32,60.77549532,5ec3f25d9cedf7287004cd26,64c7fed44a04f777bb1e18ce,64c8010f3dab0076741d8318,right,-1,0.75,0.2429,9,-0.109476878,0.1069,,,,,,63,0,63,0,1,,,,,
,,532493,001,2023-07-31_20h47.04.571,arm3_eps,2022.2.5,Win32,60.77549532,5ec3f25d9cedf7287004cd26,64c7fed44a04f777bb1e18ce,64c8010f3dab0076741d8318,right,-1,0.75,0.2429,9,-0.116315447,0.1337,,,,,,64,0,64,0,1,,,,,
,,532493,001,2023-07-31_20h47.04.571,arm3_eps,2022.2.5,Win32,60.77549532,5ec3f25d9cedf7287004cd26,64c7fed44a04f777bb1e18ce,64c8010f3dab0076741d8318,down,-1,0.75,0.2429,10,0,0.6144,,,,,,65,0,65,0,1,,,,,
,,532493,001,2023-07-31_20h47.04.571,arm3_eps,2022.2.5,Win32,60.77549532,5ec3f25d9cedf7287004cd26,64c7fed44a04f777bb1e18ce,64c8010f3dab0076741d8318,right,-1,0.75,0.2429,10,-0.042158473,0.4199,,,,,,66,0,66,0,1,,,,,
,,532493,001,2023-07-31_20h47.04.571,arm3_eps,2022.2.5,Win32,60.77549532,5ec3f25d9cedf7287004cd26,64c7fed44a04f777bb1e18ce,64c8010f3dab0076741d8318,right,-1,0.75,0.2429,10,-0.060649214,0.1315,,,,,,67,0,67,0,1,,,,,
,,532493,001,2023-07-31_20h47.04.571,arm3_eps,2022.2.5,Win32,60.77549532,5ec3f25d9cedf7287004cd26,64c7fed44a04f777bb1e18ce,64c8010f3dab0076741d8318,right,-1,0.75,0.2429,10,-0.099721144,0.102,,,,,,68,0,68,0,1,,,,,
,,532493,001,2023-07-31_20h47.04.571,arm3_eps,2022.2.5,Win32,60.77549532,5ec3f25d9cedf7287004cd26,64c7fed44a04f777bb1e18ce,64c8010f3dab0076741d8318,right,-1,0.75,0.2429,10,-0.096254092,0.115,,,,,,69,0,69,0,1,,,,,
,,532493,001,2023-07-31_20h47.04.571,arm3_eps,2022.2.5,Win32,60.77549532,5ec3f25d9cedf7287004cd26,64c7fed44a04f777bb1e18ce,64c8010f3dab0076741d8318,right,-1,0.75,0.2429,10,-0.078219254,0.1157,,,,,,70,0,70,0,1,,,,,
,,532493,001,2023-07-31_20h47.04.571,arm3_eps,2022.2.5,Win32,60.77549532,5ec3f25d9cedf7287004cd26,64c7fed44a04f777bb1e18ce,64c8010f3dab0076741d8318,down,-1,0.75,0.2429,11,0,0.4163,,,,,,71,0,71,0,1,,,,,
,,532493,001,2023-07-31_20h47.04.571,arm3_eps,2022.2.5,Win32,60.77549532,5ec3f25d9cedf7287004cd26,64c7fed44a04f777bb1e18ce,64c8010f3dab0076741d8318,right,-1,0.75,0.2429,11,-0.030108526,0.4854,,,,,,72,0,72,0,1,,,,,
,,532493,001,2023-07-31_20h47.04.571,arm3_eps,2022.2.5,Win32,60.77549532,5ec3f25d9cedf7287004cd26,64c7fed44a04f777bb1e18ce,64c8010f3dab0076741d8318,right,-1,0.75,0.2429,11,-0.04747497,0.12,,,,,,73,0,73,0,1,,,,,
,,532493,001,2023-07-31_20h47.04.571,arm3_eps,2022.2.5,Win32,60.77549532,5ec3f25d9cedf7287004cd26,64c7fed44a04f777bb1e18ce,64c8010f3dab0076741d8318,right,-1,0.75,0.2429,11,-0.095986932,0.1195,,,,,,74,0,74,0,1,,,,,
,,532493,001,2023-07-31_20h47.04.571,arm3_eps,2022.2.5,Win32,60.77549532,5ec3f25d9cedf7287004cd26,64c7fed44a04f777bb1e18ce,64c8010f3dab0076741d8318,right,-1,0.75,0.2429,11,-0.094053621,0.1183,,,,,,75,0,75,0,1,,,,,
,,532493,001,2023-07-31_20h47.04.571,arm3_eps,2022.2.5,Win32,60.77549532,5ec3f25d9cedf7287004cd26,64c7fed44a04f777bb1e18ce,64c8010f3dab0076741d8318,right,-1,0.75,0.2429,11,-0.114819189,0.1172,,,,,,76,0,76,0,1,,,,,
,,532493,001,2023-07-31_20h47.04.571,arm3_eps,2022.2.5,Win32,60.77549532,5ec3f25d9cedf7287004cd26,64c7fed44a04f777bb1e18ce,64c8010f3dab0076741d8318,down,-1,0.75,0.2429,11,0,0.2356,,,,,,77,0,77,0,1,,,,,
,,532493,001,2023-07-31_20h47.04.571,arm3_eps,2022.2.5,Win32,60.77549532,5ec3f25d9cedf7287004cd26,64c7fed44a04f777bb1e18ce,64c8010f3dab0076741d8318,right,-1,0.75,0.2429,11,0.001129031,0.7291,,,,,,78,0,78,0,1,,,,,
,,532493,001,2023-07-31_20h47.04.571,arm3_eps,2022.2.5,Win32,60.77549532,5ec3f25d9cedf7287004cd26,64c7fed44a04f777bb1e18ce,64c8010f3dab0076741d8318,right,-1,0.75,0.2429,11,-0.001988728,0.0999,,,,,,79,0,79,0,1,,,,,
,,532493,001,2023-07-31_20h47.04.571,arm3_eps,2022.2.5,Win32,60.77549532,5ec3f25d9cedf7287004cd26,64c7fed44a04f777bb1e18ce,64c8010f3dab0076741d8318,right,-1,0.75,0.2429,11,-0.008708413,0.117,,,,,,80,0,80,0,1,,,,,
,,532493,001,2023-07-31_20h47.04.571,arm3_eps,2022.2.5,Win32,60.77549532,5ec3f25d9cedf7287004cd26,64c7fed44a04f777bb1e18ce,64c8010f3dab0076741d8318,right,-1,0.75,0.2429,11,-0.005484497,0.1319,,,,,,81,0,81,0,1,,,,,
,,532493,001,2023-07-31_20h47.04.571,arm3_eps,2022.2.5,Win32,60.77549532,5ec3f25d9cedf7287004cd26,64c7fed44a04f777bb1e18ce,64c8010f3dab0076741d8318,right,-1,0.75,0.2429,11,-0.014559612,0.1311,,,,,,82,0,82,0,1,,,,,
,,532493,001,2023-07-31_20h47.04.571,arm3_eps,2022.2.5,Win32,60.77549532,5ec3f25d9cedf7287004cd26,64c7fed44a04f777bb1e18ce,64c8010f3dab0076741d8318,right,-1,0.75,0.2429,11,-0.024832684,0.1372,,,,,,83,0,83,0,1,,,,,
,,532493,001,2023-07-31_20h47.04.571,arm3_eps,2022.2.5,Win32,60.77549532,5ec3f25d9cedf7287004cd26,64c7fed44a04f777bb1e18ce,64c8010f3dab0076741d8318,down,-1,0.75,0.2429,12,0,0.2504,,,,,,84,0,84,0,1,,,,,
,,532493,001,2023-07-31_20h47.04.571,arm3_eps,2022.2.5,Win32,60.77549532,5ec3f25d9cedf7287004cd26,64c7fed44a04f777bb1e18ce,64c8010f3dab0076741d8318,right,-1,0.75,0.2429,12,-0.036577837,0.4961,,,,,,85,0,85,0,1,,,,,
,,532493,001,2023-07-31_20h47.04.571,arm3_eps,2022.2.5,Win32,60.77549532,5ec3f25d9cedf7287004cd26,64c7fed44a04f777bb1e18ce,64c8010f3dab0076741d8318,right,-1,0.75,0.2429,12,-0.040997184,0.114,,,,,,86,0,86,0,1,,,,,
,,532493,001,2023-07-31_20h47.04.571,arm3_eps,2022.2.5,Win32,60.77549532,5ec3f25d9cedf7287004cd26,64c7fed44a04f777bb1e18ce,64c8010f3dab0076741d8318,right,-1,0.75,0.2429,12,-0.062191387,0.1311,,,,,,87,0,87,0,1,,,,,
,,532493,001,2023-07-31_20h47.04.571,arm3_eps,2022.2.5,Win32,60.77549532,5ec3f25d9cedf7287004cd26,64c7fed44a04f777bb1e18ce,64c8010f3dab0076741d8318,right,-1,0.75,0.2429,12,-0.046207134,0.131,,,,,,88,0,88,0,1,,,,,
,,532493,001,2023-07-31_20h47.04.571,arm3_eps,2022.2.5,Win32,60.77549532,5ec3f25d9cedf7287004cd26,64c7fed44a04f777bb1e18ce,64c8010f3dab0076741d8318,right,-1,0.75,0.2429,12,-0.044918201,0.1195,,,,,,89,0,89,0,1,,,,,
,,532493,001,2023-07-31_20h47.04.571,arm3_eps,2022.2.5,Win32,60.77549532,5ec3f25d9cedf7287004cd26,64c7fed44a04f777bb1e18ce,64c8010f3dab0076741d8318,right,-1,0.75,0.2429,12,-0.037524491,0.1339,,,,,,90,0,90,0,1,,,,,
,,532493,001,2023-07-31_20h47.04.571,arm3_eps,2022.2.5,Win32,60.77549532,5ec3f25d9cedf7287004cd26,64c7fed44a04f777bb1e18ce,64c8010f3dab0076741d8318,down,-1,0.75,0.2429,13,0,0.288,,,,,,91,0,91,0,1,,,,,
,,532493,001,2023-07-31_20h47.04.571,arm3_eps,2022.2.5,Win32,60.77549532,5ec3f25d9cedf7287004cd26,64c7fed44a04f777bb1e18ce,64c8010f3dab0076741d8318,right,-1,0.75,0.2429,13,-0.019118621,0.496,,,,,,92,0,92,0,1,,,,,
,,532493,001,2023-07-31_20h47.04.571,arm3_eps,2022.2.5,Win32,60.77549532,5ec3f25d9cedf7287004cd26,64c7fed44a04f777bb1e18ce,64c8010f3dab0076741d8318,right,-1,0.75,0.2429,13,-0.030820275,0.1015,,,,,,93,0,93,0,1,,,,,
,,532493,001,2023-07-31_20h47.04.571,arm3_eps,2022.2.5,Win32,60.77549532,5ec3f25d9cedf7287004cd26,64c7fed44a04f777bb1e18ce,64c8010f3dab0076741d8318,right,-1,0.75,0.2429,13,-0.040084837,0.1212,,,,,,94,0,94,0,1,,,,,
,,532493,001,2023-07-31_20h47.04.571,arm3_eps,2022.2.5,Win32,60.77549532,5ec3f25d9cedf7287004cd26,64c7fed44a04f777bb1e18ce,64c8010f3dab0076741d8318,right,-1,0.75,0.2429,13,-0.044762024,0.1306,,,,,,95,0,95,0,1,,,,,
,,532493,001,2023-07-31_20h47.04.571,arm3_eps,2022.2.5,Win32,60.77549532,5ec3f25d9cedf7287004cd26,64c7fed44a04f777bb1e18ce,64c8010f3dab0076741d8318,right,-1,0.75,0.2429,13,-0.057334207,0.1064,,,,,,96,0,96,0,1,,,,,
,,532493,001,2023-07-31_20h47.04.571,arm3_eps,2022.2.5,Win32,60.77549532,5ec3f25d9cedf7287004cd26,64c7fed44a04f777bb1e18ce,64c8010f3dab0076741d8318,right,-1,0.75,0.2429,13,-0.06685315,0.134,,,,,,97,0,97,0,1,,,,,
,,532493,001,2023-07-31_20h47.04.571,arm3_eps,2022.2.5,Win32,60.77549532,5ec3f25d9cedf7287004cd26,64c7fed44a04f777bb1e18ce,64c8010f3dab0076741d8318,down,-1,0.75,0.2429,14,0,0.2026,,,,,,98,0,98,0,1,,,,,
,,532493,001,2023-07-31_20h47.04.571,arm3_eps,2022.2.5,Win32,60.77549532,5ec3f25d9cedf7287004cd26,64c7fed44a04f777bb1e18ce,64c8010f3dab0076741d8318,right,-1,0.75,0.2429,14,-0.022460054,0.5404,,,,,,99,0,99,0,1,,,,,
,,532493,001,2023-07-31_20h47.04.571,arm3_eps,2022.2.5,Win32,60.77549532,5ec3f25d9cedf7287004cd26,64c7fed44a04f777bb1e18ce,64c8010f3dab0076741d8318,right,-1,0.75,0.2429,14,-0.012737038,0.1215,,,,,,100,0,100,0,1,,,,,
,,532493,001,2023-07-31_20h47.04.571,arm3_eps,2022.2.5,Win32,60.77549532,5ec3f25d9cedf7287004cd26,64c7fed44a04f777bb1e18ce,64c8010f3dab0076741d8318,right,-1,0.75,0.2429,14,-0.056219981,0.1333,,,,,,101,0,101,0,1,,,,,
,,532493,001,2023-07-31_20h47.04.571,arm3_eps,2022.2.5,Win32,60.77549532,5ec3f25d9cedf7287004cd26,64c7fed44a04f777bb1e18ce,64c8010f3dab0076741d8318,right,-1,0.75,0.2429,14,-0.088523441,0.1075,,,,,,102,0,102,0,1,,,,,
,,532493,001,2023-07-31_20h47.04.571,arm3_eps,2022.2.5,Win32,60.77549532,5ec3f25d9cedf7287004cd26,64c7fed44a04f777bb1e18ce,64c8010f3dab0076741d8318,right,-1,0.75,0.2429,14,-0.090919711,0.1186,,,,,,103,0,103,0,1,,,,,
,,532493,001,2023-07-31_20h47.04.571,arm3_eps,2022.2.5,Win32,60.77549532,5ec3f25d9cedf7287004cd26,64c7fed44a04f777bb1e18ce,64c8010f3dab0076741d8318,down,1,0.75,0.2429,15,0,0.2172,,,,,,104,0,104,0,1,,,,,
,,532493,001,2023-07-31_20h47.04.571,arm3_eps,2022.2.5,Win32,60.77549532,5ec3f25d9cedf7287004cd26,64c7fed44a04f777bb1e18ce,64c8010f3dab0076741d8318,right,1,0.75,0.2429,15,0.009694197,0.5387,,,,,,105,0,105,0,1,,,,,
,,532493,001,2023-07-31_20h47.04.571,arm3_eps,2022.2.5,Win32,60.77549532,5ec3f25d9cedf7287004cd26,64c7fed44a04f777bb1e18ce,64c8010f3dab0076741d8318,right,1,0.75,0.2429,15,0.006041019,0.124,,,,,,106,0,106,0,1,,,,,
,,532493,001,2023-07-31_20h47.04.571,arm3_eps,2022.2.5,Win32,60.77549532,5ec3f25d9cedf7287004cd26,64c7fed44a04f777bb1e18ce,64c8010f3dab0076741d8318,right,1,0.75,0.2429,15,0.025584359,0.1149,,,,,,107,0,107,0,1,,,,,
,,532493,001,2023-07-31_20h47.04.571,arm3_eps,2022.2.5,Win32,60.77549532,5ec3f25d9cedf7287004cd26,64c7fed44a04f777bb1e18ce,64c8010f3dab0076741d8318,right,1,0.75,0.2429,15,0.022952028,0.1173,,,,,,108,0,108,0,1,,,,,
,,532493,001,2023-07-31_20h47.04.571,arm3_eps,2022.2.5,Win32,60.77549532,5ec3f25d9cedf7287004cd26,64c7fed44a04f777bb1e18ce,64c8010f3dab0076741d8318,right,1,0.75,0.2429,15,0.041443384,0.1311,,,,,,109,0,109,0,1,,,,,
,,532493,001,2023-07-31_20h47.04.571,arm3_eps,2022.2.5,Win32,60.77549532,5ec3f25d9cedf7287004cd26,64c7fed44a04f777bb1e18ce,64c8010f3dab0076741d8318,right,1,0.75,0.2429,15,0.087580107,0.1172,,,,,,110,0,110,0,1,,,,,
,,532493,001,2023-07-31_20h47.04.571,arm3_eps,2022.2.5,Win32,60.77549532,5ec3f25d9cedf7287004cd26,64c7fed44a04f777bb1e18ce,64c8010f3dab0076741d8318,up,-1,0.75,0.2429,15,0,0.2999,,,,,,111,0,111,0,1,,,,,
,,532493,001,2023-07-31_20h47.04.571,arm3_eps,2022.2.5,Win32,60.77549532,5ec3f25d9cedf7287004cd26,64c7fed44a04f777bb1e18ce,64c8010f3dab0076741d8318,right,-1,0.75,0.2429,15,-0.043879643,0.7357,,,,,,112,0,112,0,1,,,,,
,,532493,001,2023-07-31_20h47.04.571,arm3_eps,2022.2.5,Win32,60.77549532,5ec3f25d9cedf7287004cd26,64c7fed44a04f777bb1e18ce,64c8010f3dab0076741d8318,right,-1,0.75,0.2429,15,-0.024406783,0.1231,,,,,,113,0,113,0,1,,,,,
,,532493,001,2023-07-31_20h47.04.571,arm3_eps,2022.2.5,Win32,60.77549532,5ec3f25d9cedf7287004cd26,64c7fed44a04f777bb1e18ce,64c8010f3dab0076741d8318,right,-1,0.75,0.2429,15,-0.030385642,0.1225,,,,,,114,0,114,0,1,,,,,
,,532493,001,2023-07-31_20h47.04.571,arm3_eps,2022.2.5,Win32,60.77549532,5ec3f25d9cedf7287004cd26,64c7fed44a04f777bb1e18ce,64c8010f3dab0076741d8318,right,-1,0.75,0.2429,15,-0.044956657,0.125,,,,,,115,0,115,0,1,,,,,
,,532493,001,2023-07-31_20h47.04.571,arm3_eps,2022.2.5,Win32,60.77549532,5ec3f25d9cedf7287004cd26,64c7fed44a04f777bb1e18ce,64c8010f3dab0076741d8318,right,-1,0.75,0.2429,15,-0.031535832,0.1356,,,,,,116,0,116,0,1,,,,,
,,532493,001,2023-07-31_20h47.04.571,arm3_eps,2022.2.5,Win32,60.77549532,5ec3f25d9cedf7287004cd26,64c7fed44a04f777bb1e18ce,64c8010f3dab0076741d8318,down,-1,0.75,0.2429,16,0,0.2666,,,,,,117,0,117,0,1,,,,,
,,532493,001,2023-07-31_20h47.04.571,arm3_eps,2022.2.5,Win32,60.77549532,5ec3f25d9cedf7287004cd26,64c7fed44a04f777bb1e18ce,64c8010f3dab0076741d8318,right,-1,0.75,0.2429,16,-0.00733051,0.2654,,,,,,118,0,118,0,1,,,,,
,,532493,001,2023-07-31_20h47.04.571,arm3_eps,2022.2.5,Win32,60.77549532,5ec3f25d9cedf7287004cd26,64c7fed44a04f777bb1e18ce,64c8010f3dab0076741d8318,right,-1,0.75,0.2429,16,-0.01838448,0.1162,,,,,,119,0,119,0,1,,,,,
,,532493,001,2023-07-31_20h47.04.571,arm3_eps,2022.2.5,Win32,60.77549532,5ec3f25d9cedf7287004cd26,64c7fed44a04f777bb1e18ce,64c8010f3dab0076741d8318,right,-1,0.75,0.2429,16,-0.026421727,0.1186,,,,,,120,0,120,0,1,,,,,
,,532493,001,2023-07-31_20h47.04.571,arm3_eps,2022.2.5,Win32,60.77549532,5ec3f25d9cedf7287004cd26,64c7fed44a04f777bb1e18ce,64c8010f3dab0076741d8318,right,-1,0.75,0.2429,16,-0.03965528,0.1324,,,,,,121,0,121,0,1,,,,,
,,532493,001,2023-07-31_20h47.04.571,arm3_eps,2022.2.5,Win32,60.77549532,5ec3f25d9cedf7287004cd26,64c7fed44a04f777bb1e18ce,64c8010f3dab0076741d8318,right,-1,0.75,0.2429,16,-0.049680962,0.1164,,,,,,122,0,122,0,1,,,,,
,,532493,001,2023-07-31_20h47.04.571,arm3_eps,2022.2.5,Win32,60.77549532,5ec3f25d9cedf7287004cd26,64c7fed44a04f777bb1e18ce,64c8010f3dab0076741d8318,down,1,0.75,0.2429,17,0,0.2172,,,,,,123,0,123,0,1,,,,,
,,532493,001,2023-07-31_20h47.04.571,arm3_eps,2022.2.5,Win32,60.77549532,5ec3f25d9cedf7287004cd26,64c7fed44a04f777bb1e18ce,64c8010f3dab0076741d8318,right,1,0.75,0.2429,17,0.031996265,0.2878,,,,,,124,0,124,0,1,,,,,
,,532493,001,2023-07-31_20h47.04.571,arm3_eps,2022.2.5,Win32,60.77549532,5ec3f25d9cedf7287004cd26,64c7fed44a04f777bb1e18ce,64c8010f3dab0076741d8318,right,1,0.75,0.2429,17,0.006818244,0.1233,,,,,,125,0,125,0,1,,,,,
,,532493,001,2023-07-31_20h47.04.571,arm3_eps,2022.2.5,Win32,60.77549532,5ec3f25d9cedf7287004cd26,64c7fed44a04f777bb1e18ce,64c8010f3dab0076741d8318,right,1,0.75,0.2429,17,0.010997731,0.1234,,,,,,126,0,126,0,1,,,,,
,,532493,001,2023-07-31_20h47.04.571,arm3_eps,2022.2.5,Win32,60.77549532,5ec3f25d9cedf7287004cd26,64c7fed44a04f777bb1e18ce,64c8010f3dab0076741d8318,right,1,0.75,0.2429,17,0.022797737,0.1179,,,,,,127,0,127,0,1,,,,,
,,532493,001,2023-07-31_20h47.04.571,arm3_eps,2022.2.5,Win32,60.77549532,5ec3f25d9cedf7287004cd26,64c7fed44a04f777bb1e18ce,64c8010f3dab0076741d8318,right,1,0.75,0.2429,17,0.044753741,0.1318,,,,,,128,0,128,0,1,,,,,
,,532493,001,2023-07-31_20h47.04.571,arm3_eps,2022.2.5,Win32,60.77549532,5ec3f25d9cedf7287004cd26,64c7fed44a04f777bb1e18ce,64c8010f3dab0076741d8318,right,1,0.75,0.2429,17,0.080197313,0.1173,,,,,,129,0,129,0,1,,,,,
,,532493,001,2023-07-31_20h47.04.571,arm3_eps,2022.2.5,Win32,60.77549532,5ec3f25d9cedf7287004cd26,64c7fed44a04f777bb1e18ce,64c8010f3dab0076741d8318,right,1,0.75,0.2429,17,0.090013056,0.1166,,,,,,130,0,130,0,1,,,,,
,,532493,001,2023-07-31_20h47.04.571,arm3_eps,2022.2.5,Win32,60.77549532,5ec3f25d9cedf7287004cd26,64c7fed44a04f777bb1e18ce,64c8010f3dab0076741d8318,up,-1,0.75,0.2429,17,0,0.2404,,,,,,131,0,131,0,1,,,,,
,,532493,001,2023-07-31_20h47.04.571,arm3_eps,2022.2.5,Win32,60.77549532,5ec3f25d9cedf7287004cd26,64c7fed44a04f777bb1e18ce,64c8010f3dab0076741d8318,right,-1,0.75,0.2429,17,-0.019788158,0.6551,,,,,,132,0,132,0,1,,,,,
,,532493,001,2023-07-31_20h47.04.571,arm3_eps,2022.2.5,Win32,60.77549532,5ec3f25d9cedf7287004cd26,64c7fed44a04f777bb1e18ce,64c8010f3dab0076741d8318,right,-1,0.75,0.2429,17,-0.039068829,0.1169,,,,,,133,0,133,0,1,,,,,
,,532493,001,2023-07-31_20h47.04.571,arm3_eps,2022.2.5,Win32,60.77549532,5ec3f25d9cedf7287004cd26,64c7fed44a04f777bb1e18ce,64c8010f3dab0076741d8318,right,-1,0.75,0.2429,17,-0.048896824,0.1304,,,,,,134,0,134,0,1,,,,,
,,532493,001,2023-07-31_20h47.04.571,arm3_eps,2022.2.5,Win32,60.77549532,5ec3f25d9cedf7287004cd26,64c7fed44a04f777bb1e18ce,64c8010f3dab0076741d8318,right,-1,0.75,0.2429,17,-0.054437931,0.1168,,,,,,135,0,135,0,1,,,,,
,,532493,001,2023-07-31_20h47.04.571,arm3_eps,2022.2.5,Win32,60.77549532,5ec3f25d9cedf7287004cd26,64c7fed44a04f777bb1e18ce,64c8010f3dab0076741d8318,right,-1,0.75,0.2429,17,-0.068300535,0.1083,,,,,,136,0,136,0,1,,,,,
,,532493,001,2023-07-31_20h47.04.571,arm3_eps,2022.2.5,Win32,60.77549532,5ec3f25d9cedf7287004cd26,64c7fed44a04f777bb1e18ce,64c8010f3dab0076741d8318,down,-1,0.75,0.2429,18,0,0.2508,,,,,,137,0,137,0,1,,,,,
,,532493,001,2023-07-31_20h47.04.571,arm3_eps,2022.2.5,Win32,60.77549532,5ec3f25d9cedf7287004cd26,64c7fed44a04f777bb1e18ce,64c8010f3dab0076741d8318,right,-1,0.75,0.2429,18,-0.016263357,0.2809,,,,,,138,0,138,0,1,,,,,
,,532493,001,2023-07-31_20h47.04.571,arm3_eps,2022.2.5,Win32,60.77549532,5ec3f25d9cedf7287004cd26,64c7fed44a04f777bb1e18ce,64c8010f3dab0076741d8318,right,-1,0.75,0.2429,18,-0.022488732,0.1147,,,,,,139,0,139,0,1,,,,,
,,532493,001,2023-07-31_20h47.04.571,arm3_eps,2022.2.5,Win32,60.77549532,5ec3f25d9cedf7287004cd26,64c7fed44a04f777bb1e18ce,64c8010f3dab0076741d8318,right,-1,0.75,0.2429,18,-0.010395949,0.1066,,,,,,140,0,140,0,1,,,,,
,,532493,001,2023-07-31_20h47.04.571,arm3_eps,2022.2.5,Win32,60.77549532,5ec3f25d9cedf7287004cd26,64c7fed44a04f777bb1e18ce,64c8010f3dab0076741d8318,right,-1,0.75,0.2429,18,-0.004002156,0.1319,,,,,,141,0,141,0,1,,,,,
,,532493,001,2023-07-31_20h47.04.571,arm3_eps,2022.2.5,Win32,60.77549532,5ec3f25d9cedf7287004cd26,64c7fed44a04f777bb1e18ce,64c8010f3dab0076741d8318,right,-1,0.75,0.2429,18,-0.026425682,0.1148,,,,,,142,0,142,0,1,,,,,
,,532493,001,2023-07-31_20h47.04.571,arm3_eps,2022.2.5,Win32,60.77549532,5ec3f25d9cedf7287004cd26,64c7fed44a04f777bb1e18ce,64c8010f3dab0076741d8318,right,-1,0.75,0.2429,18,-0.031466123,0.233,,,,,,143,0,143,0,1,,,,,
,,532493,001,2023-07-31_20h47.04.571,arm3_eps,2022.2.5,Win32,60.77549532,5ec3f25d9cedf7287004cd26,64c7fed44a04f777bb1e18ce,64c8010f3dab0076741d8318,down,-1,0.75,0.2429,19,0,0.2502,,,,,,144,0,144,0,1,,,,,
,,532493,001,2023-07-31_20h47.04.571,arm3_eps,2022.2.5,Win32,60.77549532,5ec3f25d9cedf7287004cd26,64c7fed44a04f777bb1e18ce,64c8010f3dab0076741d8318,right,-1,0.75,0.2429,19,-0.004168029,0.614,,,,,,145,0,145,0,1,,,,,
,,532493,001,2023-07-31_20h47.04.571,arm3_eps,2022.2.5,Win32,60.77549532,5ec3f25d9cedf7287004cd26,64c7fed44a04f777bb1e18ce,64c8010f3dab0076741d8318,right,-1,0.75,0.2429,19,0.007603436,0.1214,,,,,,146,0,146,0,1,,,,,
,,532493,001,2023-07-31_20h47.04.571,arm3_eps,2022.2.5,Win32,60.77549532,5ec3f25d9cedf7287004cd26,64c7fed44a04f777bb1e18ce,64c8010f3dab0076741d8318,right,-1,0.75,0.2429,19,0.013711053,0.119,,,,,,147,0,147,0,1,,,,,
,,532493,001,2023-07-31_20h47.04.571,arm3_eps,2022.2.5,Win32,60.77549532,5ec3f25d9cedf7287004cd26,64c7fed44a04f777bb1e18ce,64c8010f3dab0076741d8318,right,-1,0.75,0.2429,19,0.011227683,0.1332,,,,,,148,0,148,0,1,,,,,
,,532493,001,2023-07-31_20h47.04.571,arm3_eps,2022.2.5,Win32,60.77549532,5ec3f25d9cedf7287004cd26,64c7fed44a04f777bb1e18ce,64c8010f3dab0076741d8318,right,-1,0.75,0.2429,19,-0.010913105,0.1314,,,,,,149,0,149,0,1,,,,,
,,532493,001,2023-07-31_20h47.04.571,arm3_eps,2022.2.5,Win32,60.77549532,5ec3f25d9cedf7287004cd26,64c7fed44a04f777bb1e18ce,64c8010f3dab0076741d8318,down,-1,0.75,0.2429,19,0,0.2669,,,,,,150,0,150,0,1,,,,,
,,532493,001,2023-07-31_20h47.04.571,arm3_eps,2022.2.5,Win32,60.77549532,5ec3f25d9cedf7287004cd26,64c7fed44a04f777bb1e18ce,64c8010f3dab0076741d8318,right,-1,0.75,0.2429,19,-0.01519675,0.4638,,,,,,151,0,151,0,1,,,,,
,,532493,001,2023-07-31_20h47.04.571,arm3_eps,2022.2.5,Win32,60.77549532,5ec3f25d9cedf7287004cd26,64c7fed44a04f777bb1e18ce,64c8010f3dab0076741d8318,right,-1,0.75,0.2429,19,-0.046410584,0.1314,,,,,,152,0,152,0,1,,,,,
,,532493,001,2023-07-31_20h47.04.571,arm3_eps,2022.2.5,Win32,60.77549532,5ec3f25d9cedf7287004cd26,64c7fed44a04f777bb1e18ce,64c8010f3dab0076741d8318,right,-1,0.75,0.2429,19,-0.067146303,0.1531,,,,,,153,0,153,0,1,,,,,
,,532493,001,2023-07-31_20h47.04.571,arm3_eps,2022.2.5,Win32,60.77549532,5ec3f25d9cedf7287004cd26,64c7fed44a04f777bb1e18ce,64c8010f3dab0076741d8318,right,-1,0.75,0.2429,19,-0.087801073,0.1394,,,,,,154,0,154,0,1,,,,,
,,532493,001,2023-07-31_20h47.04.571,arm3_eps,2022.2.5,Win32,60.77549532,5ec3f25d9cedf7287004cd26,64c7fed44a04f777bb1e18ce,64c8010f3dab0076741d8318,right,-1,0.75,0.2429,19,-0.083729791,0.1393,,,,,,155,0,155,0,1,,,,,
,,532493,001,2023-07-31_20h47.04.571,arm3_eps,2022.2.5,Win32,60.77549532,5ec3f25d9cedf7287004cd26,64c7fed44a04f777bb1e18ce,64c8010f3dab0076741d8318,right,-1,0.75,0.2429,19,-0.055285091,0.1422,,,,,,156,0,156,0,1,,,,,
,,532493,001,2023-07-31_20h47.04.571,arm3_eps,2022.2.5,Win32,60.77549532,5ec3f25d9cedf7287004cd26,64c7fed44a04f777bb1e18ce,64c8010f3dab0076741d8318,down,-1,0.75,0.2429,19,0,0.2364,,,,,,157,0,157,0,1,,,,,
,,532493,001,2023-07-31_20h47.04.571,arm3_eps,2022.2.5,Win32,60.77549532,5ec3f25d9cedf7287004cd26,64c7fed44a04f777bb1e18ce,64c8010f3dab0076741d8318,right,-1,0.75,0.2429,19,0.013782287,0.5155,,,,,,158,0,158,0,1,,,,,
,,532493,001,2023-07-31_20h47.04.571,arm3_eps,2022.2.5,Win32,60.77549532,5ec3f25d9cedf7287004cd26,64c7fed44a04f777bb1e18ce,64c8010f3dab0076741d8318,right,-1,0.75,0.2429,19,-0.029826181,0.1191,,,,,,159,0,159,0,1,,,,,
,,532493,001,2023-07-31_20h47.04.571,arm3_eps,2022.2.5,Win32,60.77549532,5ec3f25d9cedf7287004cd26,64c7fed44a04f777bb1e18ce,64c8010f3dab0076741d8318,right,-1,0.75,0.2429,19,-0.010040257,0.1339,,,,,,160,0,160,0,1,,,,,
,,532493,001,2023-07-31_20h47.04.571,arm3_eps,2022.2.5,Win32,60.77549532,5ec3f25d9cedf7287004cd26,64c7fed44a04f777bb1e18ce,64c8010f3dab0076741d8318,right,-1,0.75,0.2429,19,-0.033585645,0.1362,,,,,,161,0,161,0,1,,,,,
,,532493,001,2023-07-31_20h47.04.571,arm3_eps,2022.2.5,Win32,60.77549532,5ec3f25d9cedf7287004cd26,64c7fed44a04f777bb1e18ce,64c8010f3dab0076741d8318,right,-1,0.75,0.2429,19,-0.048416519,0.133,,,,,,162,0,162,0,1,,,,,
,,532493,001,2023-07-31_20h47.04.571,arm3_eps,2022.2.5,Win32,60.77549532,5ec3f25d9cedf7287004cd26,64c7fed44a04f777bb1e18ce,64c8010f3dab0076741d8318,down,1,0.75,0.2429,19,0,0.3505,,,,,,163,0,163,0,1,,,,,
,,532493,001,2023-07-31_20h47.04.571,arm3_eps,2022.2.5,Win32,60.77549532,5ec3f25d9cedf7287004cd26,64c7fed44a04f777bb1e18ce,64c8010f3dab0076741d8318,right,1,0.75,0.2429,19,0.037297649,0.4202,,,,,,164,0,164,0,1,,,,,
,,532493,001,2023-07-31_20h47.04.571,arm3_eps,2022.2.5,Win32,60.77549532,5ec3f25d9cedf7287004cd26,64c7fed44a04f777bb1e18ce,64c8010f3dab0076741d8318,right,1,0.75,0.2429,19,0.077313307,0.1392,,,,,,165,0,165,0,1,,,,,
,,532493,001,2023-07-31_20h47.04.571,arm3_eps,2022.2.5,Win32,60.77549532,5ec3f25d9cedf7287004cd26,64c7fed44a04f777bb1e18ce,64c8010f3dab0076741d8318,right,1,0.75,0.2429,19,0.112313887,0.1418,,,,,,166,0,166,0,1,,,,,
,,532493,001,2023-07-31_20h47.04.571,arm3_eps,2022.2.5,Win32,60.77549532,5ec3f25d9cedf7287004cd26,64c7fed44a04f777bb1e18ce,64c8010f3dab0076741d8318,right,1,0.75,0.2429,19,0.150482213,0.1403,,,,,,167,0,167,0,1,,,,,
,,532493,001,2023-07-31_20h47.04.571,arm3_eps,2022.2.5,Win32,60.77549532,5ec3f25d9cedf7287004cd26,64c7fed44a04f777bb1e18ce,64c8010f3dab0076741d8318,up,-1,0.75,0.2429,20,0,0.3199,,,,,,168,0,168,0,1,,,,,
,,532493,001,2023-07-31_20h47.04.571,arm3_eps,2022.2.5,Win32,60.77549532,5ec3f25d9cedf7287004cd26,64c7fed44a04f777bb1e18ce,64c8010f3dab0076741d8318,right,-1,0.75,0.2429,20,-0.028996388,0.4635,,,,,,169,0,169,0,1,,,,,
,,532493,001,2023-07-31_20h47.04.571,arm3_eps,2022.2.5,Win32,60.77549532,5ec3f25d9cedf7287004cd26,64c7fed44a04f777bb1e18ce,64c8010f3dab0076741d8318,right,-1,0.75,0.2429,20,-0.043820027,0.1245,,,,,,170,0,170,0,1,,,,,
,,532493,001,2023-07-31_20h47.04.571,arm3_eps,2022.2.5,Win32,60.77549532,5ec3f25d9cedf7287004cd26,64c7fed44a04f777bb1e18ce,64c8010f3dab0076741d8318,right,-1,0.75,0.2429,20,-0.055243902,0.139,,,,,,171,0,171,0,1,,,,,
,,532493,001,2023-07-31_20h47.04.571,arm3_eps,2022.2.5,Win32,60.77549532,5ec3f25d9cedf7287004cd26,64c7fed44a04f777bb1e18ce,64c8010f3dab0076741d8318,right,-1,0.75,0.2429,20,-0.05049965,0.1392,,,,,,172,0,172,0,1,,,,,
,,532493,001,2023-07-31_20h47.04.571,arm3_eps,2022.2.5,Win32,60.77549532,5ec3f25d9cedf7287004cd26,64c7fed44a04f777bb1e18ce,64c8010f3dab0076741d8318,down,-1,0.75,0.2429,21,0,0.2561,,,,,,173,0,173,0,1,,,,,
,,532493,001,2023-07-31_20h47.04.571,arm3_eps,2022.2.5,Win32,60.77549532,5ec3f25d9cedf7287004cd26,64c7fed44a04f777bb1e18ce,64c8010f3dab0076741d8318,right,-1,0.75,0.2429,21,-0.024751735,0.5319,,,,,,174,0,174,0,1,,,,,
,,532493,001,2023-07-31_20h47.04.571,arm3_eps,2022.2.5,Win32,60.77549532,5ec3f25d9cedf7287004cd26,64c7fed44a04f777bb1e18ce,64c8010f3dab0076741d8318,right,-1,0.75,0.2429,21,-0.042727038,0.1196,,,,,,175,0,175,0,1,,,,,
,,532493,001,2023-07-31_20h47.04.571,arm3_eps,2022.2.5,Win32,60.77549532,5ec3f25d9cedf7287004cd26,64c7fed44a04f777bb1e18ce,64c8010f3dab0076741d8318,right,-1,0.75,0.2429,21,-0.042348967,0.1261,,,,,,176,0,176,0,1,,,,,
,,532493,001,2023-07-31_20h47.04.571,arm3_eps,2022.2.5,Win32,60.77549532,5ec3f25d9cedf7287004cd26,64c7fed44a04f777bb1e18ce,64c8010f3dab0076741d8318,right,-1,0.75,0.2429,21,-0.068750495,0.1413,,,,,,177,0,177,0,1,,,,,
,,532493,001,2023-07-31_20h47.04.571,arm3_eps,2022.2.5,Win32,60.77549532,5ec3f25d9cedf7287004cd26,64c7fed44a04f777bb1e18ce,64c8010f3dab0076741d8318,down,-1,0.75,0.2429,22,0,0.1852,,,,,,178,0,178,0,1,,,,,
,,532493,001,2023-07-31_20h47.04.571,arm3_eps,2022.2.5,Win32,60.77549532,5ec3f25d9cedf7287004cd26,64c7fed44a04f777bb1e18ce,64c8010f3dab0076741d8318,right,-1,0.75,0.2429,22,0.017854557,0.5638,,,,,,179,0,179,0,1,,,,,
,,532493,001,2023-07-31_20h47.04.571,arm3_eps,2022.2.5,Win32,60.77549532,5ec3f25d9cedf7287004cd26,64c7fed44a04f777bb1e18ce,64c8010f3dab0076741d8318,right,-1,0.75,0.2429,22,0.004520951,0.0987,,,,,,180,0,180,0,1,,,,,
,,532493,001,2023-07-31_20h47.04.571,arm3_eps,2022.2.5,Win32,60.77549532,5ec3f25d9cedf7287004cd26,64c7fed44a04f777bb1e18ce,64c8010f3dab0076741d8318,right,-1,0.75,0.2429,22,0.009212648,0.1323,,,,,,181,0,181,0,1,,,,,
,,532493,001,2023-07-31_20h47.04.571,arm3_eps,2022.2.5,Win32,60.77549532,5ec3f25d9cedf7287004cd26,64c7fed44a04f777bb1e18ce,64c8010f3dab0076741d8318,right,-1,0.75,0.2429,22,-0.002325812,0.132,,,,,,182,0,182,0,1,,,,,
,,532493,001,2023-07-31_20h47.04.571,arm3_eps,2022.2.5,Win32,60.77549532,5ec3f25d9cedf7287004cd26,64c7fed44a04f777bb1e18ce,64c8010f3dab0076741d8318,right,-1,0.75,0.2429,22,-0.001600623,0.1242,,,,,,183,0,183,0,1,,,,,
,,532493,001,2023-07-31_20h47.04.571,arm3_eps,2022.2.5,Win32,60.77549532,5ec3f25d9cedf7287004cd26,64c7fed44a04f777bb1e18ce,64c8010f3dab0076741d8318,down,1,0.75,0.2429,23,0,1.6861,,,,,,184,0,184,0,1,,,,,
,,532493,001,2023-07-31_20h47.04.571,arm3_eps,2022.2.5,Win32,60.77549532,5ec3f25d9cedf7287004cd26,64c7fed44a04f777bb1e18ce,64c8010f3dab0076741d8318,right,1,0.75,0.2429,23,0.022249731,0.6661,,,,,,185,0,185,0,1,,,,,
,,532493,001,2023-07-31_20h47.04.571,arm3_eps,2022.2.5,Win32,60.77549532,5ec3f25d9cedf7287004cd26,64c7fed44a04f777bb1e18ce,64c8010f3dab0076741d8318,right,1,0.75,0.2429,23,0.039821876,0.1246,,,,,,186,0,186,0,1,,,,,
,,532493,001,2023-07-31_20h47.04.571,arm3_eps,2022.2.5,Win32,60.77549532,5ec3f25d9cedf7287004cd26,64c7fed44a04f777bb1e18ce,64c8010f3dab0076741d8318,right,1,0.75,0.2429,23,0.076496405,0.1376,,,,,,187,0,187,0,1,,,,,
,,532493,001,2023-07-31_20h47.04.571,arm3_eps,2022.2.5,Win32,60.77549532,5ec3f25d9cedf7287004cd26,64c7fed44a04f777bb1e18ce,64c8010f3dab0076741d8318,right,1,0.75,0.2429,23,0.092571741,0.134,,,,,,188,0,188,0,1,,,,,
,,532493,001,2023-07-31_20h47.04.571,arm3_eps,2022.2.5,Win32,60.77549532,5ec3f25d9cedf7287004cd26,64c7fed44a04f777bb1e18ce,64c8010f3dab0076741d8318,up,-1,0.75,0.2429,24,0,0.2346,,,,,,189,0,189,0,1,,,,,
,,532493,001,2023-07-31_20h47.04.571,arm3_eps,2022.2.5,Win32,60.77549532,5ec3f25d9cedf7287004cd26,64c7fed44a04f777bb1e18ce,64c8010f3dab0076741d8318,right,-1,0.75,0.2429,24,-0.015396793,0.5148,,,,,,190,0,190,0,1,,,,,
,,532493,001,2023-07-31_20h47.04.571,arm3_eps,2022.2.5,Win32,60.77549532,5ec3f25d9cedf7287004cd26,64c7fed44a04f777bb1e18ce,64c8010f3dab0076741d8318,right,-1,0.75,0.2429,24,-0.006649957,0.0868,,,,,,191,0,191,0,1,,,,,
,,532493,001,2023-07-31_20h47.04.571,arm3_eps,2022.2.5,Win32,60.77549532,5ec3f25d9cedf7287004cd26,64c7fed44a04f777bb1e18ce,64c8010f3dab0076741d8318,right,-1,0.75,0.2429,24,-0.006975067,0.1323,,,,,,192,0,192,0,1,,,,,
,,532493,001,2023-07-31_20h47.04.571,arm3_eps,2022.2.5,Win32,60.77549532,5ec3f25d9cedf7287004cd26,64c7fed44a04f777bb1e18ce,64c8010f3dab0076741d8318,right,-1,0.75,0.2429,24,0.003323368,0.1367,,,,,,193,0,193,0,1,,,,,
,,532493,001,2023-07-31_20h47.04.571,arm3_eps,2022.2.5,Win32,60.77549532,5ec3f25d9cedf7287004cd26,64c7fed44a04f777bb1e18ce,64c8010f3dab0076741d8318,right,-1,0.75,0.2429,24,-0.002975978,0.1392,,,,,,194,0,194,0,1,,,,,
,,532493,001,2023-07-31_20h47.04.571,arm3_eps,2022.2.5,Win32,60.77549532,5ec3f25d9cedf7287004cd26,64c7fed44a04f777bb1e18ce,64c8010f3dab0076741d8318,right,-1,0.75,0.2429,24,-0.021475497,0.1495,,,,,,195,0,195,0,1,,,,,
,,532493,001,2023-07-31_20h47.04.571,arm3_eps,2022.2.5,Win32,60.77549532,5ec3f25d9cedf7287004cd26,64c7fed44a04f777bb1e18ce,64c8010f3dab0076741d8318,down,1,0.75,0.2429,25,0,0.2972,,,,,,196,0,196,0,1,,,,,
,,532493,001,2023-07-31_20h47.04.571,arm3_eps,2022.2.5,Win32,60.77549532,5ec3f25d9cedf7287004cd26,64c7fed44a04f777bb1e18ce,64c8010f3dab0076741d8318,right,1,0.75,0.2429,25,-3.52523E-05,0.3179,,,,,,197,0,197,0,1,,,,,
,,532493,001,2023-07-31_20h47.04.571,arm3_eps,2022.2.5,Win32,60.77549532,5ec3f25d9cedf7287004cd26,64c7fed44a04f777bb1e18ce,64c8010f3dab0076741d8318,right,1,0.75,0.2429,25,-0.000378261,0.1377,,,,,,198,0,198,0,1,,,,,
,,532493,001,2023-07-31_20h47.04.571,arm3_eps,2022.2.5,Win32,60.77549532,5ec3f25d9cedf7287004cd26,64c7fed44a04f777bb1e18ce,64c8010f3dab0076741d8318,right,1,0.75,0.2429,25,-0.007148127,0.1239,,,,,,199,0,199,0,1,,,,,
,,532493,001,2023-07-31_20h47.04.571,arm3_eps,2022.2.5,Win32,60.77549532,5ec3f25d9cedf7287004cd26,64c7fed44a04f777bb1e18ce,64c8010f3dab0076741d8318,right,1,0.75,0.2429,25,0.003922547,0.1333,,,,,,200,0,200,0,1,,,,,
,,532493,001,2023-07-31_20h47.04.571,arm3_eps,2022.2.5,Win32,60.77549532,5ec3f25d9cedf7287004cd26,64c7fed44a04f777bb1e18ce,64c8010f3dab0076741d8318,right,1,0.75,0.2429,25,0.012781376,0.116,,,,,,201,0,201,0,1,,,,,
,,532493,001,2023-07-31_20h47.04.571,arm3_eps,2022.2.5,Win32,60.77549532,5ec3f25d9cedf7287004cd26,64c7fed44a04f777bb1e18ce,64c8010f3dab0076741d8318,up,1,0.75,0.2429,26,0,0.2833,,,,,,202,0,202,0,1,,,,,
,,532493,001,2023-07-31_20h47.04.571,arm3_eps,2022.2.5,Win32,60.77549532,5ec3f25d9cedf7287004cd26,64c7fed44a04f777bb1e18ce,64c8010f3dab0076741d8318,right,1,0.75,0.2429,26,0.036128471,0.2647,,,,,,203,0,203,0,1,,,,,
,,532493,001,2023-07-31_20h47.04.571,arm3_eps,2022.2.5,Win32,60.77549532,5ec3f25d9cedf7287004cd26,64c7fed44a04f777bb1e18ce,64c8010f3dab0076741d8318,right,1,0.75,0.2429,26,0.07061412,0.1242,,,,,,204,0,204,0,1,,,,,
,,532493,001,2023-07-31_20h47.04.571,arm3_eps,2022.2.5,Win32,60.77549532,5ec3f25d9cedf7287004cd26,64c7fed44a04f777bb1e18ce,64c8010f3dab0076741d8318,right,1,0.75,0.2429,26,0.084899694,0.1314,,,,,,205,0,205,0,1,,,,,
,,532493,001,2023-07-31_20h47.04.571,arm3_eps,2022.2.5,Win32,60.77549532,5ec3f25d9cedf7287004cd26,64c7fed44a04f777bb1e18ce,64c8010f3dab0076741d8318,right,1,0.75,0.2429,26,0.089511238,0.1234,,,,,,206,0,206,0,1,,,,,
,,532493,001,2023-07-31_20h47.04.571,arm3_eps,2022.2.5,Win32,60.77549532,5ec3f25d9cedf7287004cd26,64c7fed44a04f777bb1e18ce,64c8010f3dab0076741d8318,right,1,0.75,0.2429,26,0.088082211,0.1481,,,,,,207,0,207,0,1,,,,,
,,532493,001,2023-07-31_20h47.04.571,arm3_eps,2022.2.5,Win32,60.77549532,5ec3f25d9cedf7287004cd26,64c7fed44a04f777bb1e18ce,64c8010f3dab0076741d8318,up,-1,0.75,0.2429,26,0,0.248,,,,,,208,0,208,0,1,,,,,
,,532493,001,2023-07-31_20h47.04.571,arm3_eps,2022.2.5,Win32,60.77549532,5ec3f25d9cedf7287004cd26,64c7fed44a04f777bb1e18ce,64c8010f3dab0076741d8318,right,-1,0.75,0.2429,26,-0.004935314,0.2726,,,,,,209,0,209,0,1,,,,,
,,532493,001,2023-07-31_20h47.04.571,arm3_eps,2022.2.5,Win32,60.77549532,5ec3f25d9cedf7287004cd26,64c7fed44a04f777bb1e18ce,64c8010f3dab0076741d8318,right,-1,0.75,0.2429,26,-0.03047125,0.1351,,,,,,210,0,210,0,1,,,,,
,,532493,001,2023-07-31_20h47.04.571,arm3_eps,2022.2.5,Win32,60.77549532,5ec3f25d9cedf7287004cd26,64c7fed44a04f777bb1e18ce,64c8010f3dab0076741d8318,right,-1,0.75,0.2429,26,-0.048688472,0.1334,,,,,,211,0,211,0,1,,,,,
,,532493,001,2023-07-31_20h47.04.571,arm3_eps,2022.2.5,Win32,60.77549532,5ec3f25d9cedf7287004cd26,64c7fed44a04f777bb1e18ce,64c8010f3dab0076741d8318,right,-1,0.75,0.2429,26,-0.05771265,0.1341,,,,,,212,0,212,0,1,,,,,
,,532493,001,2023-07-31_20h47.04.571,arm3_eps,2022.2.5,Win32,60.77549532,5ec3f25d9cedf7287004cd26,64c7fed44a04f777bb1e18ce,64c8010f3dab0076741d8318,right,-1,0.75,0.2429,26,-0.071960764,0.1332,,,,,,213,0,213,0,1,,,,,
,,532493,001,2023-07-31_20h47.04.571,arm3_eps,2022.2.5,Win32,60.77549532,5ec3f25d9cedf7287004cd26,64c7fed44a04f777bb1e18ce,64c8010f3dab0076741d8318,down,-1,0.75,0.2429,27,0,0.2501,,,,,,214,0,214,0,1,,,,,
,,532493,001,2023-07-31_20h47.04.571,arm3_eps,2022.2.5,Win32,60.77549532,5ec3f25d9cedf7287004cd26,64c7fed44a04f777bb1e18ce,64c8010f3dab0076741d8318,right,-1,0.75,0.2429,27,0.016776169,0.3333,,,,,,215,0,215,0,1,,,,,
,,532493,001,2023-07-31_20h47.04.571,arm3_eps,2022.2.5,Win32,60.77549532,5ec3f25d9cedf7287004cd26,64c7fed44a04f777bb1e18ce,64c8010f3dab0076741d8318,right,-1,0.75,0.2429,27,0.032791957,0.1373,,,,,,216,0,216,0,1,,,,,
,,532493,001,2023-07-31_20h47.04.571,arm3_eps,2022.2.5,Win32,60.77549532,5ec3f25d9cedf7287004cd26,64c7fed44a04f777bb1e18ce,64c8010f3dab0076741d8318,right,-1,0.75,0.2429,27,0.021275061,0.1506,,,,,,217,0,217,0,1,,,,,
,,532493,001,2023-07-31_20h47.04.571,arm3_eps,2022.2.5,Win32,60.77549532,5ec3f25d9cedf7287004cd26,64c7fed44a04f777bb1e18ce,64c8010f3dab0076741d8318,right,-1,0.75,0.2429,27,0.028725252,0.1211,,,,,,218,0,218,0,1,,,,,
,,532493,001,2023-07-31_20h47.04.571,arm3_eps,2022.2.5,Win32,60.77549532,5ec3f25d9cedf7287004cd26,64c7fed44a04f777bb1e18ce,64c8010f3dab0076741d8318,right,-1,0.75,0.2429,27,0.02592071,0.1509,,,,,,219,0,219,0,1,,,,,
,,532493,001,2023-07-31_20h47.04.571,arm3_eps,2022.2.5,Win32,60.77549532,5ec3f25d9cedf7287004cd26,64c7fed44a04f777bb1e18ce,64c8010f3dab0076741d8318,up,-1,0.75,0.2429,26,0,0.2858,,,,,,220,0,220,0,1,,,,,
,,532493,001,2023-07-31_20h47.04.571,arm3_eps,2022.2.5,Win32,60.77549532,5ec3f25d9cedf7287004cd26,64c7fed44a04f777bb1e18ce,64c8010f3dab0076741d8318,right,-1,0.75,0.2429,26,-0.025914096,0.7188,,,,,,221,0,221,0,1,,,,,
,,532493,001,2023-07-31_20h47.04.571,arm3_eps,2022.2.5,Win32,60.77549532,5ec3f25d9cedf7287004cd26,64c7fed44a04f777bb1e18ce,64c8010f3dab0076741d8318,right,-1,0.75,0.2429,26,-0.041077595,0.1528,,,,,,222,0,222,0,1,,,,,
,,532493,001,2023-07-31_20h47.04.571,arm3_eps,2022.2.5,Win32,60.77549532,5ec3f25d9cedf7287004cd26,64c7fed44a04f777bb1e18ce,64c8010f3dab0076741d8318,right,-1,0.75,0.2429,26,-0.060928977,0.1541,,,,,,223,0,223,0,1,,,,,
,,532493,001,2023-07-31_20h47.04.571,arm3_eps,2022.2.5,Win32,60.77549532,5ec3f25d9cedf7287004cd26,64c7fed44a04f777bb1e18ce,64c8010f3dab0076741d8318,right,-1,0.75,0.2429,26,-0.062010022,0.1418,,,,,,224,0,224,0,1,,,,,
,,532493,001,2023-07-31_20h47.04.571,arm3_eps,2022.2.5,Win32,60.77549532,5ec3f25d9cedf7287004cd26,64c7fed44a04f777bb1e18ce,64c8010f3dab0076741d8318,right,-1,0.75,0.2429,26,-0.103582553,0.1528,,,,,,225,0,225,0,1,,,,,
,,532493,001,2023-07-31_20h47.04.571,arm3_eps,2022.2.5,Win32,60.77549532,5ec3f25d9cedf7287004cd26,64c7fed44a04f777bb1e18ce,64c8010f3dab0076741d8318,down,-1,0.75,0.2429,26,0,0.2723,,,,,,226,0,226,0,1,,,,,
,,532493,001,2023-07-31_20h47.04.571,arm3_eps,2022.2.5,Win32,60.77549532,5ec3f25d9cedf7287004cd26,64c7fed44a04f777bb1e18ce,64c8010f3dab0076741d8318,right,-1,0.75,0.2429,26,0.005778516,0.3052,,,,,,227,0,227,0,1,,,,,
,,532493,001,2023-07-31_20h47.04.571,arm3_eps,2022.2.5,Win32,60.77549532,5ec3f25d9cedf7287004cd26,64c7fed44a04f777bb1e18ce,64c8010f3dab0076741d8318,right,-1,0.75,0.2429,26,0.013229581,0.1498,,,,,,228,0,228,0,1,,,,,
,,532493,001,2023-07-31_20h47.04.571,arm3_eps,2022.2.5,Win32,60.77549532,5ec3f25d9cedf7287004cd26,64c7fed44a04f777bb1e18ce,64c8010f3dab0076741d8318,right,-1,0.75,0.2429,26,0.026007783,0.1409,,,,,,229,0,229,0,1,,,,,
,,532493,001,2023-07-31_20h47.04.571,arm3_eps,2022.2.5,Win32,60.77549532,5ec3f25d9cedf7287004cd26,64c7fed44a04f777bb1e18ce,64c8010f3dab0076741d8318,right,-1,0.75,0.2429,26,0.01558867,0.1336,,,,,,230,0,230,0,1,,,,,
,,532493,001,2023-07-31_20h47.04.571,arm3_eps,2022.2.5,Win32,60.77549532,5ec3f25d9cedf7287004cd26,64c7fed44a04f777bb1e18ce,64c8010f3dab0076741d8318,right,-1,0.75,0.2429,26,0.00640929,0.1504,,,,,,231,0,231,0,1,,,,,
,,532493,001,2023-07-31_20h47.04.571,arm3_eps,2022.2.5,Win32,60.77549532,5ec3f25d9cedf7287004cd26,64c7fed44a04f777bb1e18ce,64c8010f3dab0076741d8318,down,-1,0.75,0.2429,27,0,0.8017,,,,,,232,0,232,0,1,,,,,
,,532493,001,2023-07-31_20h47.04.571,arm3_eps,2022.2.5,Win32,60.77549532,5ec3f25d9cedf7287004cd26,64c7fed44a04f777bb1e18ce,64c8010f3dab0076741d8318,right,-1,0.75,0.2429,27,-0.009233134,0.3802,,,,,,233,0,233,0,1,,,,,
,,532493,001,2023-07-31_20h47.04.571,arm3_eps,2022.2.5,Win32,60.77549532,5ec3f25d9cedf7287004cd26,64c7fed44a04f777bb1e18ce,64c8010f3dab0076741d8318,right,-1,0.75,0.2429,27,-0.020331693,0.1154,,,,,,234,0,234,0,1,,,,,
,,532493,001,2023-07-31_20h47.04.571,arm3_eps,2022.2.5,Win32,60.77549532,5ec3f25d9cedf7287004cd26,64c7fed44a04f777bb1e18ce,64c8010f3dab0076741d8318,right,-1,0.75,0.2429,27,-0.038552166,0.1365,,,,,,235,0,235,0,1,,,,,
,,532493,001,2023-07-31_20h47.04.571,arm3_eps,2022.2.5,Win32,60.77549532,5ec3f25d9cedf7287004cd26,64c7fed44a04f777bb1e18ce,64c8010f3dab0076741d8318,right,-1,0.75,0.2429,27,-0.013419918,0.1383,,,,,,236,0,236,0,1,,,,,
,,532493,001,2023-07-31_20h47.04.571,arm3_eps,2022.2.5,Win32,60.77549532,5ec3f25d9cedf7287004cd26,64c7fed44a04f777bb1e18ce,64c8010f3dab0076741d8318,right,-1,0.75,0.2429,27,-0.009120545,0.1593,,,,,,237,0,237,0,1,,,,,
,,532493,001,2023-07-31_20h47.04.571,arm3_eps,2022.2.5,Win32,60.77549532,5ec3f25d9cedf7287004cd26,64c7fed44a04f777bb1e18ce,64c8010f3dab0076741d8318,right,-1,0.75,0.2429,27,-0.031575719,0.1598,,,,,,238,0,238,0,1,,,,,
,,532493,001,2023-07-31_20h47.04.571,arm3_eps,2022.2.5,Win32,60.77549532,5ec3f25d9cedf7287004cd26,64c7fed44a04f777bb1e18ce,64c8010f3dab0076741d8318,right,-1,0.75,0.2429,27,-0.030200768,0.158,,,,,,239,0,239,0,1,,,,,
,,532493,001,2023-07-31_20h47.04.571,arm3_eps,2022.2.5,Win32,60.77549532,5ec3f25d9cedf7287004cd26,64c7fed44a04f777bb1e18ce,64c8010f3dab0076741d8318,down,-1,0.75,0.2429,28,0,0.2389,,,,,,240,0,240,0,1,,,,,
,,532493,001,2023-07-31_20h47.04.571,arm3_eps,2022.2.5,Win32,60.77549532,5ec3f25d9cedf7287004cd26,64c7fed44a04f777bb1e18ce,64c8010f3dab0076741d8318,right,-1,0.75,0.2429,28,-0.026203977,0.4797,,,,,,241,0,241,0,1,,,,,
,,532493,001,2023-07-31_20h47.04.571,arm3_eps,2022.2.5,Win32,60.77549532,5ec3f25d9cedf7287004cd26,64c7fed44a04f777bb1e18ce,64c8010f3dab0076741d8318,right,-1,0.75,0.2429,28,0.008821686,0.1322,,,,,,242,0,242,0,1,,,,,
,,532493,001,2023-07-31_20h47.04.571,arm3_eps,2022.2.5,Win32,60.77549532,5ec3f25d9cedf7287004cd26,64c7fed44a04f777bb1e18ce,64c8010f3dab0076741d8318,right,-1,0.75,0.2429,28,-0.014670201,0.1326,,,,,,243,0,243,0,1,,,,,
,,532493,001,2023-07-31_20h47.04.571,arm3_eps,2022.2.5,Win32,60.77549532,5ec3f25d9cedf7287004cd26,64c7fed44a04f777bb1e18ce,64c8010f3dab0076741d8318,right,-1,0.75,0.2429,28,-0.016928735,0.1316,,,,,,244,0,244,0,1,,,,,
,,532493,001,2023-07-31_20h47.04.571,arm3_eps,2022.2.5,Win32,60.77549532,5ec3f25d9cedf7287004cd26,64c7fed44a04f777bb1e18ce,64c8010f3dab0076741d8318,right,-1,0.75,0.2429,28,-0.017290728,0.1341,,,,,,245,0,245,0,1,,,,,
,,532493,001,2023-07-31_20h47.04.571,arm3_eps,2022.2.5,Win32,60.77549532,5ec3f25d9cedf7287004cd26,64c7fed44a04f777bb1e18ce,64c8010f3dab0076741d8318,right,-1,0.75,0.2429,28,0.004703963,0.1514,,,,,,246,0,246,0,1,,,,,
,,532493,001,2023-07-31_20h47.04.571,arm3_eps,2022.2.5,Win32,60.77549532,5ec3f25d9cedf7287004cd26,64c7fed44a04f777bb1e18ce,64c8010f3dab0076741d8318,right,-1,0.75,0.2429,28,0.009388206,0.3682,,,,,,247,0,247,0,1,,,,,
,,532493,001,2023-07-31_20h47.04.571,arm3_eps,2022.2.5,Win32,60.77549532,5ec3f25d9cedf7287004cd26,64c7fed44a04f777bb1e18ce,64c8010f3dab0076741d8318,down,-1,0.75,0.2429,29,0,0.6585,,,,,,248,0,248,0,1,,,,,
,,532493,001,2023-07-31_20h47.04.571,arm3_eps,2022.2.5,Win32,60.77549532,5ec3f25d9cedf7287004cd26,64c7fed44a04f777bb1e18ce,64c8010f3dab0076741d8318,right,-1,0.75,0.2429,29,0.01561612,0.5231,,,,,,249,0,249,0,1,,,,,
,,532493,001,2023-07-31_20h47.04.571,arm3_eps,2022.2.5,Win32,60.77549532,5ec3f25d9cedf7287004cd26,64c7fed44a04f777bb1e18ce,64c8010f3dab0076741d8318,right,-1,0.75,0.2429,29,0.012875837,0.138,,,,,,250,0,250,0,1,,,,,
,,532493,001,2023-07-31_20h47.04.571,arm3_eps,2022.2.5,Win32,60.77549532,5ec3f25d9cedf7287004cd26,64c7fed44a04f777bb1e18ce,64c8010f3dab0076741d8318,right,-1,0.75,0.2429,29,0.035151891,0.1571,,,,,,251,0,251,0,1,,,,,
,,532493,001,2023-07-31_20h47.04.571,arm3_eps,2022.2.5,Win32,60.77549532,5ec3f25d9cedf7287004cd26,64c7fed44a04f777bb1e18ce,64c8010f3dab0076741d8318,right,-1,0.75,0.2429,29,0.037961457,0.1397,,,,,,252,0,252,0,1,,,,,
,,532493,001,2023-07-31_20h47.04.571,arm3_eps,2022.2.5,Win32,60.77549532,5ec3f25d9cedf7287004cd26,64c7fed44a04f777bb1e18ce,64c8010f3dab0076741d8318,right,-1,0.75,0.2429,29,0.062166682,0.1554,,,,,,253,0,253,0,1,,,,,
,,532493,001,2023-07-31_20h47.04.571,arm3_eps,2022.2.5,Win32,60.77549532,5ec3f25d9cedf7287004cd26,64c7fed44a04f777bb1e18ce,64c8010f3dab0076741d8318,up,1,0.75,0.2429,28,0,0.3368,,,,,,254,0,254,0,1,,,,,
