space_bar.keys,space_bar.rt,participant,session,date,expName,psychopyVersion,OS,frameRate,PROLIFIC_PID,STUDY_ID,SESSION_ID,resp.keys,state,q_prob,eps_prob,score,price,resp.rt,train.thisRepN,train.thisTrialN,train.thisN,train.thisIndex,train.ran,steps.thisRepN,steps.thisTrialN,steps.thisN,steps.thisIndex,steps.ran,blocks.thisRepN,blocks.thisTrialN,blocks.thisN,blocks.thisIndex,blocks.ran
space,32.362,586954,001,2023-07-29_14h37.20.339,arm3_eps,2022.2.5,Win32,59.95203837,5cd1bdedf2156c00013b0152,64c47140896c8c63e34c6d2f,64c51601b812d460b0031672,,,,,,,,,,,,,,,,,,,,,,
space,1.434,586954,001,2023-07-29_14h37.20.339,arm3_eps,2022.2.5,Win32,59.95203837,5cd1bdedf2156c00013b0152,64c47140896c8c63e34c6d2f,64c51601b812d460b0031672,,,,,,,,,,,,,,,,,,,,,,
space,12.453,586954,001,2023-07-29_14h37.20.339,arm3_eps,2022.2.5,Win32,59.95203837,5cd1bdedf2156c00013b0152,64c47140896c8c63e34c6d2f,64c51601b812d460b0031672,,,,,,,,,,,,,,,,,,,,,,
space,15.426,586954,001,2023-07-29_14h37.20.339,arm3_eps,2022.2.5,Win32,59.95203837,5cd1bdedf2156c00013b0152,64c47140896c8c63e34c6d2f,64c51601b812d460b0031672,,,,,,,,,,,,,,,,,,,,,,
space,20.359,586954,001,2023-07-29_14h37.20.339,arm3_eps,2022.2.5,Win32,59.95203837,5cd1bdedf2156c00013b0152,64c47140896c8c63e34c6d2f,64c51601b812d460b0031672,,,,,,,,,,,,,,,,,,,,,,
space,5.387,586954,001,2023-07-29_14h37.20.339,arm3_eps,2022.2.5,Win32,59.95203837,5cd1bdedf2156c00013b0152,64c47140896c8c63e34c6d2f,64c51601b812d460b0031672,,,,,,,,,,,,,,,,,,,,,,
space,1.227,586954,001,2023-07-29_14h37.20.339,arm3_eps,2022.2.5,Win32,59.95203837,5cd1bdedf2156c00013b0152,64c47140896c8c63e34c6d2f,64c51601b812d460b0031672,,,,,,,,,,,,,,,,,,,,,,
,,586954,001,2023-07-29_14h37.20.339,arm3_eps,2022.2.5,Win32,59.95203837,5cd1bdedf2156c00013b0152,64c47140896c8c63e34c6d2f,64c51601b812d460b0031672,right,1,1,0.2429,0,0.01122831,3.018,0,0,0,0,1,,,,,,,,,,
,,586954,001,2023-07-29_14h37.20.339,arm3_eps,2022.2.5,Win32,59.95203837,5cd1bdedf2156c00013b0152,64c47140896c8c63e34c6d2f,64c51601b812d460b0031672,right,1,1,0.2429,0,0.006401437,1.209,1,0,1,0,1,,,,,,,,,,
,,586954,001,2023-07-29_14h37.20.339,arm3_eps,2022.2.5,Win32,59.95203837,5cd1bdedf2156c00013b0152,64c47140896c8c63e34c6d2f,64c51601b812d460b0031672,right,1,1,0.2429,0,0.019685046,1.207,2,0,2,0,1,,,,,,,,,,
,,586954,001,2023-07-29_14h37.20.339,arm3_eps,2022.2.5,Win32,59.95203837,5cd1bdedf2156c00013b0152,64c47140896c8c63e34c6d2f,64c51601b812d460b0031672,right,1,1,0.2429,0,0.059203271,0.373,3,0,3,0,1,,,,,,,,,,
,,586954,001,2023-07-29_14h37.20.339,arm3_eps,2022.2.5,Win32,59.95203837,5cd1bdedf2156c00013b0152,64c47140896c8c63e34c6d2f,64c51601b812d460b0031672,right,1,1,0.2429,0,0.073525671,0.455,4,0,4,0,1,,,,,,,,,,
,,586954,001,2023-07-29_14h37.20.339,arm3_eps,2022.2.5,Win32,59.95203837,5cd1bdedf2156c00013b0152,64c47140896c8c63e34c6d2f,64c51601b812d460b0031672,right,1,1,0.2429,0,0.094472956,0.603,5,0,5,0,1,,,,,,,,,,
,,586954,001,2023-07-29_14h37.20.339,arm3_eps,2022.2.5,Win32,59.95203837,5cd1bdedf2156c00013b0152,64c47140896c8c63e34c6d2f,64c51601b812d460b0031672,up,1,1,0.2429,1,0,0.76,6,0,6,0,1,,,,,,,,,,
,,586954,001,2023-07-29_14h37.20.339,arm3_eps,2022.2.5,Win32,59.95203837,5cd1bdedf2156c00013b0152,64c47140896c8c63e34c6d2f,64c51601b812d460b0031672,right,1,1,0.2429,1,0.041779223,1.9,7,0,7,0,1,,,,,,,,,,
,,586954,001,2023-07-29_14h37.20.339,arm3_eps,2022.2.5,Win32,59.95203837,5cd1bdedf2156c00013b0152,64c47140896c8c63e34c6d2f,64c51601b812d460b0031672,right,1,1,0.2429,1,0.061949576,0.178,8,0,8,0,1,,,,,,,,,,
,,586954,001,2023-07-29_14h37.20.339,arm3_eps,2022.2.5,Win32,59.95203837,5cd1bdedf2156c00013b0152,64c47140896c8c63e34c6d2f,64c51601b812d460b0031672,right,1,1,0.2429,1,0.091142896,0.204,9,0,9,0,1,,,,,,,,,,
,,586954,001,2023-07-29_14h37.20.339,arm3_eps,2022.2.5,Win32,59.95203837,5cd1bdedf2156c00013b0152,64c47140896c8c63e34c6d2f,64c51601b812d460b0031672,right,1,1,0.2429,1,0.112615918,0.188,10,0,10,0,1,,,,,,,,,,
,,586954,001,2023-07-29_14h37.20.339,arm3_eps,2022.2.5,Win32,59.95203837,5cd1bdedf2156c00013b0152,64c47140896c8c63e34c6d2f,64c51601b812d460b0031672,up,1,1,0.2429,2,0,0.255,11,0,11,0,1,,,,,,,,,,
,,586954,001,2023-07-29_14h37.20.339,arm3_eps,2022.2.5,Win32,59.95203837,5cd1bdedf2156c00013b0152,64c47140896c8c63e34c6d2f,64c51601b812d460b0031672,right,1,1,0.2429,2,0.003090387,0.806,12,0,12,0,1,,,,,,,,,,
,,586954,001,2023-07-29_14h37.20.339,arm3_eps,2022.2.5,Win32,59.95203837,5cd1bdedf2156c00013b0152,64c47140896c8c63e34c6d2f,64c51601b812d460b0031672,right,1,1,0.2429,2,0.001295599,0.185,13,0,13,0,1,,,,,,,,,,
,,586954,001,2023-07-29_14h37.20.339,arm3_eps,2022.2.5,Win32,59.95203837,5cd1bdedf2156c00013b0152,64c47140896c8c63e34c6d2f,64c51601b812d460b0031672,right,1,1,0.2429,2,0.018457181,0.16,14,0,14,0,1,,,,,,,,,,
,,586954,001,2023-07-29_14h37.20.339,arm3_eps,2022.2.5,Win32,59.95203837,5cd1bdedf2156c00013b0152,64c47140896c8c63e34c6d2f,64c51601b812d460b0031672,right,1,1,0.2429,2,0.016580924,0.19,15,0,15,0,1,,,,,,,,,,
,,586954,001,2023-07-29_14h37.20.339,arm3_eps,2022.2.5,Win32,59.95203837,5cd1bdedf2156c00013b0152,64c47140896c8c63e34c6d2f,64c51601b812d460b0031672,right,1,1,0.2429,2,0.021564954,0.261,16,0,16,0,1,,,,,,,,,,
,,586954,001,2023-07-29_14h37.20.339,arm3_eps,2022.2.5,Win32,59.95203837,5cd1bdedf2156c00013b0152,64c47140896c8c63e34c6d2f,64c51601b812d460b0031672,up,1,1,0.2429,3,0,0.48,17,0,17,0,1,,,,,,,,,,
,,586954,001,2023-07-29_14h37.20.339,arm3_eps,2022.2.5,Win32,59.95203837,5cd1bdedf2156c00013b0152,64c47140896c8c63e34c6d2f,64c51601b812d460b0031672,right,1,1,0.2429,3,0.046691308,0.803,18,0,18,0,1,,,,,,,,,,
,,586954,001,2023-07-29_14h37.20.339,arm3_eps,2022.2.5,Win32,59.95203837,5cd1bdedf2156c00013b0152,64c47140896c8c63e34c6d2f,64c51601b812d460b0031672,right,1,1,0.2429,3,0.042248765,0.167,19,0,19,0,1,,,,,,,,,,
,,586954,001,2023-07-29_14h37.20.339,arm3_eps,2022.2.5,Win32,59.95203837,5cd1bdedf2156c00013b0152,64c47140896c8c63e34c6d2f,64c51601b812d460b0031672,right,1,1,0.2429,3,0.056425634,0.184,20,0,20,0,1,,,,,,,,,,
,,586954,001,2023-07-29_14h37.20.339,arm3_eps,2022.2.5,Win32,59.95203837,5cd1bdedf2156c00013b0152,64c47140896c8c63e34c6d2f,64c51601b812d460b0031672,right,1,1,0.2429,3,0.071242951,0.141,21,0,21,0,1,,,,,,,,,,
,,586954,001,2023-07-29_14h37.20.339,arm3_eps,2022.2.5,Win32,59.95203837,5cd1bdedf2156c00013b0152,64c47140896c8c63e34c6d2f,64c51601b812d460b0031672,right,1,1,0.2429,3,0.06328319,0.167,22,0,22,0,1,,,,,,,,,,
,,586954,001,2023-07-29_14h37.20.339,arm3_eps,2022.2.5,Win32,59.95203837,5cd1bdedf2156c00013b0152,64c47140896c8c63e34c6d2f,64c51601b812d460b0031672,right,1,1,0.2429,3,0.0817828,0.12,23,0,23,0,1,,,,,,,,,,
,,586954,001,2023-07-29_14h37.20.339,arm3_eps,2022.2.5,Win32,59.95203837,5cd1bdedf2156c00013b0152,64c47140896c8c63e34c6d2f,64c51601b812d460b0031672,up,1,1,0.2429,4,0,0.188,24,0,24,0,1,,,,,,,,,,
,,586954,001,2023-07-29_14h37.20.339,arm3_eps,2022.2.5,Win32,59.95203837,5cd1bdedf2156c00013b0152,64c47140896c8c63e34c6d2f,64c51601b812d460b0031672,right,1,1,0.2429,4,0.034200747,0.463,25,0,25,0,1,,,,,,,,,,
,,586954,001,2023-07-29_14h37.20.339,arm3_eps,2022.2.5,Win32,59.95203837,5cd1bdedf2156c00013b0152,64c47140896c8c63e34c6d2f,64c51601b812d460b0031672,right,1,1,0.2429,4,0.044499714,0.121,26,0,26,0,1,,,,,,,,,,
,,586954,001,2023-07-29_14h37.20.339,arm3_eps,2022.2.5,Win32,59.95203837,5cd1bdedf2156c00013b0152,64c47140896c8c63e34c6d2f,64c51601b812d460b0031672,right,1,1,0.2429,4,0.028048356,0.15,27,0,27,0,1,,,,,,,,,,
,,586954,001,2023-07-29_14h37.20.339,arm3_eps,2022.2.5,Win32,59.95203837,5cd1bdedf2156c00013b0152,64c47140896c8c63e34c6d2f,64c51601b812d460b0031672,right,1,1,0.2429,4,0.051046404,0.136,28,0,28,0,1,,,,,,,,,,
,,586954,001,2023-07-29_14h37.20.339,arm3_eps,2022.2.5,Win32,59.95203837,5cd1bdedf2156c00013b0152,64c47140896c8c63e34c6d2f,64c51601b812d460b0031672,right,1,1,0.2429,4,0.069268148,0.135,29,0,29,0,1,,,,,,,,,,
,,586954,001,2023-07-29_14h37.20.339,arm3_eps,2022.2.5,Win32,59.95203837,5cd1bdedf2156c00013b0152,64c47140896c8c63e34c6d2f,64c51601b812d460b0031672,right,1,1,0.2429,4,0.049848798,0.127,30,0,30,0,1,,,,,,,,,,
,,586954,001,2023-07-29_14h37.20.339,arm3_eps,2022.2.5,Win32,59.95203837,5cd1bdedf2156c00013b0152,64c47140896c8c63e34c6d2f,64c51601b812d460b0031672,right,1,1,0.2429,4,0.038966572,0.134,31,0,31,0,1,,,,,,,,,,
,,586954,001,2023-07-29_14h37.20.339,arm3_eps,2022.2.5,Win32,59.95203837,5cd1bdedf2156c00013b0152,64c47140896c8c63e34c6d2f,64c51601b812d460b0031672,right,1,1,0.2429,4,0.054542304,0.118,32,0,32,0,1,,,,,,,,,,
,,586954,001,2023-07-29_14h37.20.339,arm3_eps,2022.2.5,Win32,59.95203837,5cd1bdedf2156c00013b0152,64c47140896c8c63e34c6d2f,64c51601b812d460b0031672,right,1,1,0.2429,4,0.050548959,0.349,33,0,33,0,1,,,,,,,,,,
,,586954,001,2023-07-29_14h37.20.339,arm3_eps,2022.2.5,Win32,59.95203837,5cd1bdedf2156c00013b0152,64c47140896c8c63e34c6d2f,64c51601b812d460b0031672,right,1,1,0.2429,4,0.035590819,0.676,34,0,34,0,1,,,,,,,,,,
,,586954,001,2023-07-29_14h37.20.339,arm3_eps,2022.2.5,Win32,59.95203837,5cd1bdedf2156c00013b0152,64c47140896c8c63e34c6d2f,64c51601b812d460b0031672,up,-1,1,0.2429,5,0,0.557,35,0,35,0,1,,,,,,,,,,
,,586954,001,2023-07-29_14h37.20.339,arm3_eps,2022.2.5,Win32,59.95203837,5cd1bdedf2156c00013b0152,64c47140896c8c63e34c6d2f,64c51601b812d460b0031672,right,-1,1,0.2429,5,0.005159718,1.685,36,0,36,0,1,,,,,,,,,,
,,586954,001,2023-07-29_14h37.20.339,arm3_eps,2022.2.5,Win32,59.95203837,5cd1bdedf2156c00013b0152,64c47140896c8c63e34c6d2f,64c51601b812d460b0031672,right,-1,1,0.2429,5,-0.019319236,0.116,37,0,37,0,1,,,,,,,,,,
,,586954,001,2023-07-29_14h37.20.339,arm3_eps,2022.2.5,Win32,59.95203837,5cd1bdedf2156c00013b0152,64c47140896c8c63e34c6d2f,64c51601b812d460b0031672,right,-1,1,0.2429,5,-0.018799428,0.132,38,0,38,0,1,,,,,,,,,,
,,586954,001,2023-07-29_14h37.20.339,arm3_eps,2022.2.5,Win32,59.95203837,5cd1bdedf2156c00013b0152,64c47140896c8c63e34c6d2f,64c51601b812d460b0031672,right,-1,1,0.2429,5,-0.029138859,0.124,39,0,39,0,1,,,,,,,,,,
,,586954,001,2023-07-29_14h37.20.339,arm3_eps,2022.2.5,Win32,59.95203837,5cd1bdedf2156c00013b0152,64c47140896c8c63e34c6d2f,64c51601b812d460b0031672,down,-1,1,0.2429,6,0,0.352,40,0,40,0,1,,,,,,,,,,
,,586954,001,2023-07-29_14h37.20.339,arm3_eps,2022.2.5,Win32,59.95203837,5cd1bdedf2156c00013b0152,64c47140896c8c63e34c6d2f,64c51601b812d460b0031672,right,-1,1,0.2429,6,-0.02260805,0.774,41,0,41,0,1,,,,,,,,,,
,,586954,001,2023-07-29_14h37.20.339,arm3_eps,2022.2.5,Win32,59.95203837,5cd1bdedf2156c00013b0152,64c47140896c8c63e34c6d2f,64c51601b812d460b0031672,right,-1,1,0.2429,6,-0.057296874,0.175,42,0,42,0,1,,,,,,,,,,
,,586954,001,2023-07-29_14h37.20.339,arm3_eps,2022.2.5,Win32,59.95203837,5cd1bdedf2156c00013b0152,64c47140896c8c63e34c6d2f,64c51601b812d460b0031672,right,-1,1,0.2429,6,-0.03838166,0.163,43,0,43,0,1,,,,,,,,,,
,,586954,001,2023-07-29_14h37.20.339,arm3_eps,2022.2.5,Win32,59.95203837,5cd1bdedf2156c00013b0152,64c47140896c8c63e34c6d2f,64c51601b812d460b0031672,right,-1,1,0.2429,6,-0.068293779,0.168,44,0,44,0,1,,,,,,,,,,
,,586954,001,2023-07-29_14h37.20.339,arm3_eps,2022.2.5,Win32,59.95203837,5cd1bdedf2156c00013b0152,64c47140896c8c63e34c6d2f,64c51601b812d460b0031672,right,-1,1,0.2429,6,-0.066106715,0.118,45,0,45,0,1,,,,,,,,,,
,,586954,001,2023-07-29_14h37.20.339,arm3_eps,2022.2.5,Win32,59.95203837,5cd1bdedf2156c00013b0152,64c47140896c8c63e34c6d2f,64c51601b812d460b0031672,right,-1,1,0.2429,6,-0.078605983,0.153,46,0,46,0,1,,,,,,,,,,
,,586954,001,2023-07-29_14h37.20.339,arm3_eps,2022.2.5,Win32,59.95203837,5cd1bdedf2156c00013b0152,64c47140896c8c63e34c6d2f,64c51601b812d460b0031672,right,-1,1,0.2429,6,-0.100234588,0.144,47,0,47,0,1,,,,,,,,,,
,,586954,001,2023-07-29_14h37.20.339,arm3_eps,2022.2.5,Win32,59.95203837,5cd1bdedf2156c00013b0152,64c47140896c8c63e34c6d2f,64c51601b812d460b0031672,down,-1,1,0.2429,7,0,0.184,48,0,48,0,1,,,,,,,,,,
,,586954,001,2023-07-29_14h37.20.339,arm3_eps,2022.2.5,Win32,59.95203837,5cd1bdedf2156c00013b0152,64c47140896c8c63e34c6d2f,64c51601b812d460b0031672,right,-1,1,0.2429,7,0.004504322,0.659,49,0,49,0,1,,,,,,,,,,
space,17.996,586954,001,2023-07-29_14h37.20.339,arm3_eps,2022.2.5,Win32,59.95203837,5cd1bdedf2156c00013b0152,64c47140896c8c63e34c6d2f,64c51601b812d460b0031672,,,,,,,,,,,,,,,,,,,,,,
space,20.871,586954,001,2023-07-29_14h37.20.339,arm3_eps,2022.2.5,Win32,59.95203837,5cd1bdedf2156c00013b0152,64c47140896c8c63e34c6d2f,64c51601b812d460b0031672,,,,,,,,,,,,,,,,,,,,,,
space,29.969,586954,001,2023-07-29_14h37.20.339,arm3_eps,2022.2.5,Win32,59.95203837,5cd1bdedf2156c00013b0152,64c47140896c8c63e34c6d2f,64c51601b812d460b0031672,,,,,,,,,,,,,,,,,,,,,,
space,7.124,586954,001,2023-07-29_14h37.20.339,arm3_eps,2022.2.5,Win32,59.95203837,5cd1bdedf2156c00013b0152,64c47140896c8c63e34c6d2f,64c51601b812d460b0031672,,,,,,,,,,,,,,,,,,,,,,
space,19.598,586954,001,2023-07-29_14h37.20.339,arm3_eps,2022.2.5,Win32,59.95203837,5cd1bdedf2156c00013b0152,64c47140896c8c63e34c6d2f,64c51601b812d460b0031672,,,,,,,,,,,,,,,,,,,,,,
space,1.067,586954,001,2023-07-29_14h37.20.339,arm3_eps,2022.2.5,Win32,59.95203837,5cd1bdedf2156c00013b0152,64c47140896c8c63e34c6d2f,64c51601b812d460b0031672,,,,,,,,,,,,,,,,,,,,,,
,,586954,001,2023-07-29_14h37.20.339,arm3_eps,2022.2.5,Win32,59.95203837,5cd1bdedf2156c00013b0152,64c47140896c8c63e34c6d2f,64c51601b812d460b0031672,right,-1,0.75,0.2429,0,0.003035852,1.372,0,0,0,0,1,,,,,,,,,,
,,586954,001,2023-07-29_14h37.20.339,arm3_eps,2022.2.5,Win32,59.95203837,5cd1bdedf2156c00013b0152,64c47140896c8c63e34c6d2f,64c51601b812d460b0031672,right,-1,0.75,0.2429,0,-0.006030836,0.447,1,0,1,0,1,,,,,,,,,,
,,586954,001,2023-07-29_14h37.20.339,arm3_eps,2022.2.5,Win32,59.95203837,5cd1bdedf2156c00013b0152,64c47140896c8c63e34c6d2f,64c51601b812d460b0031672,down,-1,0.75,0.2429,1,0,0.954,2,0,2,0,1,,,,,,,,,,
,,586954,001,2023-07-29_14h37.20.339,arm3_eps,2022.2.5,Win32,59.95203837,5cd1bdedf2156c00013b0152,64c47140896c8c63e34c6d2f,64c51601b812d460b0031672,right,-1,0.75,0.2429,1,-0.024934914,1.169,3,0,3,0,1,,,,,,,,,,
,,586954,001,2023-07-29_14h37.20.339,arm3_eps,2022.2.5,Win32,59.95203837,5cd1bdedf2156c00013b0152,64c47140896c8c63e34c6d2f,64c51601b812d460b0031672,right,-1,0.75,0.2429,1,-0.035500279,0.302,4,0,4,0,1,,,,,,,,,,
,,586954,001,2023-07-29_14h37.20.339,arm3_eps,2022.2.5,Win32,59.95203837,5cd1bdedf2156c00013b0152,64c47140896c8c63e34c6d2f,64c51601b812d460b0031672,down,1,0.75,0.2429,2,0,0.355,5,0,5,0,1,,,,,,,,,,
,,586954,001,2023-07-29_14h37.20.339,arm3_eps,2022.2.5,Win32,59.95203837,5cd1bdedf2156c00013b0152,64c47140896c8c63e34c6d2f,64c51601b812d460b0031672,right,1,0.75,0.2429,2,0.036133466,1.532,6,0,6,0,1,,,,,,,,,,
,,586954,001,2023-07-29_14h37.20.339,arm3_eps,2022.2.5,Win32,59.95203837,5cd1bdedf2156c00013b0152,64c47140896c8c63e34c6d2f,64c51601b812d460b0031672,right,1,0.75,0.2429,2,0.060222499,0.37,7,0,7,0,1,,,,,,,,,,
,,586954,001,2023-07-29_14h37.20.339,arm3_eps,2022.2.5,Win32,59.95203837,5cd1bdedf2156c00013b0152,64c47140896c8c63e34c6d2f,64c51601b812d460b0031672,up,1,0.75,0.2429,3,0,0.251,8,0,8,0,1,,,,,,,,,,
,,586954,001,2023-07-29_14h37.20.339,arm3_eps,2022.2.5,Win32,59.95203837,5cd1bdedf2156c00013b0152,64c47140896c8c63e34c6d2f,64c51601b812d460b0031672,right,1,0.75,0.2429,3,-0.006681429,0.859,9,0,9,0,1,,,,,,,,,,
,,586954,001,2023-07-29_14h37.20.339,arm3_eps,2022.2.5,Win32,59.95203837,5cd1bdedf2156c00013b0152,64c47140896c8c63e34c6d2f,64c51601b812d460b0031672,right,1,0.75,0.2429,3,0.021512636,0.618,10,0,10,0,1,,,,,,,,,,
,,586954,001,2023-07-29_14h37.20.339,arm3_eps,2022.2.5,Win32,59.95203837,5cd1bdedf2156c00013b0152,64c47140896c8c63e34c6d2f,64c51601b812d460b0031672,right,1,0.75,0.2429,3,0.015780554,0.539,11,0,11,0,1,,,,,,,,,,
,,586954,001,2023-07-29_14h37.20.339,arm3_eps,2022.2.5,Win32,59.95203837,5cd1bdedf2156c00013b0152,64c47140896c8c63e34c6d2f,64c51601b812d460b0031672,right,1,0.75,0.2429,3,-0.007195495,1.015,12,0,12,0,1,,,,,,,,,,
,,586954,001,2023-07-29_14h37.20.339,arm3_eps,2022.2.5,Win32,59.95203837,5cd1bdedf2156c00013b0152,64c47140896c8c63e34c6d2f,64c51601b812d460b0031672,right,1,0.75,0.2429,3,-0.007061388,0.496,13,0,13,0,1,,,,,,,,,,
,,586954,001,2023-07-29_14h37.20.339,arm3_eps,2022.2.5,Win32,59.95203837,5cd1bdedf2156c00013b0152,64c47140896c8c63e34c6d2f,64c51601b812d460b0031672,up,-1,0.75,0.2429,4,0,0.551,14,0,14,0,1,,,,,,,,,,
,,586954,001,2023-07-29_14h37.20.339,arm3_eps,2022.2.5,Win32,59.95203837,5cd1bdedf2156c00013b0152,64c47140896c8c63e34c6d2f,64c51601b812d460b0031672,right,-1,0.75,0.2429,4,-0.003380657,0.974,15,0,15,0,1,,,,,,,,,,
,,586954,001,2023-07-29_14h37.20.339,arm3_eps,2022.2.5,Win32,59.95203837,5cd1bdedf2156c00013b0152,64c47140896c8c63e34c6d2f,64c51601b812d460b0031672,right,-1,0.75,0.2429,4,0.015920729,0.351,16,0,16,0,1,,,,,,,,,,
,,586954,001,2023-07-29_14h37.20.339,arm3_eps,2022.2.5,Win32,59.95203837,5cd1bdedf2156c00013b0152,64c47140896c8c63e34c6d2f,64c51601b812d460b0031672,right,-1,0.75,0.2429,4,-0.004087416,0.291,17,0,17,0,1,,,,,,,,,,
,,586954,001,2023-07-29_14h37.20.339,arm3_eps,2022.2.5,Win32,59.95203837,5cd1bdedf2156c00013b0152,64c47140896c8c63e34c6d2f,64c51601b812d460b0031672,right,-1,0.75,0.2429,4,-0.03578006,0.304,18,0,18,0,1,,,,,,,,,,
,,586954,001,2023-07-29_14h37.20.339,arm3_eps,2022.2.5,Win32,59.95203837,5cd1bdedf2156c00013b0152,64c47140896c8c63e34c6d2f,64c51601b812d460b0031672,down,-1,0.75,0.2429,5,0,0.417,19,0,19,0,1,,,,,,,,,,
,,586954,001,2023-07-29_14h37.20.339,arm3_eps,2022.2.5,Win32,59.95203837,5cd1bdedf2156c00013b0152,64c47140896c8c63e34c6d2f,64c51601b812d460b0031672,right,-1,0.75,0.2429,5,-0.006410461,2.067,20,0,20,0,1,,,,,,,,,,
,,586954,001,2023-07-29_14h37.20.339,arm3_eps,2022.2.5,Win32,59.95203837,5cd1bdedf2156c00013b0152,64c47140896c8c63e34c6d2f,64c51601b812d460b0031672,right,-1,0.75,0.2429,5,0.002069558,0.282,21,0,21,0,1,,,,,,,,,,
,,586954,001,2023-07-29_14h37.20.339,arm3_eps,2022.2.5,Win32,59.95203837,5cd1bdedf2156c00013b0152,64c47140896c8c63e34c6d2f,64c51601b812d460b0031672,right,-1,0.75,0.2429,5,0.011307843,0.208,22,0,22,0,1,,,,,,,,,,
,,586954,001,2023-07-29_14h37.20.339,arm3_eps,2022.2.5,Win32,59.95203837,5cd1bdedf2156c00013b0152,64c47140896c8c63e34c6d2f,64c51601b812d460b0031672,right,-1,0.75,0.2429,5,-0.005399766,0.201,23,0,23,0,1,,,,,,,,,,
,,586954,001,2023-07-29_14h37.20.339,arm3_eps,2022.2.5,Win32,59.95203837,5cd1bdedf2156c00013b0152,64c47140896c8c63e34c6d2f,64c51601b812d460b0031672,right,-1,0.75,0.2429,5,-0.039814575,0.221,24,0,24,0,1,,,,,,,,,,
,,586954,001,2023-07-29_14h37.20.339,arm3_eps,2022.2.5,Win32,59.95203837,5cd1bdedf2156c00013b0152,64c47140896c8c63e34c6d2f,64c51601b812d460b0031672,down,-1,0.75,0.2429,5,0,0.429,25,0,25,0,1,,,,,,,,,,
,,586954,001,2023-07-29_14h37.20.339,arm3_eps,2022.2.5,Win32,59.95203837,5cd1bdedf2156c00013b0152,64c47140896c8c63e34c6d2f,64c51601b812d460b0031672,right,-1,0.75,0.2429,5,-0.030173838,0.966,26,0,26,0,1,,,,,,,,,,
,,586954,001,2023-07-29_14h37.20.339,arm3_eps,2022.2.5,Win32,59.95203837,5cd1bdedf2156c00013b0152,64c47140896c8c63e34c6d2f,64c51601b812d460b0031672,right,-1,0.75,0.2429,5,-0.024581265,0.181,27,0,27,0,1,,,,,,,,,,
,,586954,001,2023-07-29_14h37.20.339,arm3_eps,2022.2.5,Win32,59.95203837,5cd1bdedf2156c00013b0152,64c47140896c8c63e34c6d2f,64c51601b812d460b0031672,right,-1,0.75,0.2429,5,-0.043232006,0.167,28,0,28,0,1,,,,,,,,,,
,,586954,001,2023-07-29_14h37.20.339,arm3_eps,2022.2.5,Win32,59.95203837,5cd1bdedf2156c00013b0152,64c47140896c8c63e34c6d2f,64c51601b812d460b0031672,right,-1,0.75,0.2429,5,-0.064801834,0.186,29,0,29,0,1,,,,,,,,,,
,,586954,001,2023-07-29_14h37.20.339,arm3_eps,2022.2.5,Win32,59.95203837,5cd1bdedf2156c00013b0152,64c47140896c8c63e34c6d2f,64c51601b812d460b0031672,down,-1,0.75,0.2429,6,0,0.241,30,0,30,0,1,,,,,,,,,,
,,586954,001,2023-07-29_14h37.20.339,arm3_eps,2022.2.5,Win32,59.95203837,5cd1bdedf2156c00013b0152,64c47140896c8c63e34c6d2f,64c51601b812d460b0031672,right,-1,0.75,0.2429,6,0.031289842,1.11,31,0,31,0,1,,,,,,,,,,
,,586954,001,2023-07-29_14h37.20.339,arm3_eps,2022.2.5,Win32,59.95203837,5cd1bdedf2156c00013b0152,64c47140896c8c63e34c6d2f,64c51601b812d460b0031672,right,-1,0.75,0.2429,6,0.027574909,0.313,32,0,32,0,1,,,,,,,,,,
,,586954,001,2023-07-29_14h37.20.339,arm3_eps,2022.2.5,Win32,59.95203837,5cd1bdedf2156c00013b0152,64c47140896c8c63e34c6d2f,64c51601b812d460b0031672,right,-1,0.75,0.2429,6,-0.013360189,0.342,33,0,33,0,1,,,,,,,,,,
,,586954,001,2023-07-29_14h37.20.339,arm3_eps,2022.2.5,Win32,59.95203837,5cd1bdedf2156c00013b0152,64c47140896c8c63e34c6d2f,64c51601b812d460b0031672,right,-1,0.75,0.2429,6,-0.056419185,0.354,34,0,34,0,1,,,,,,,,,,
,,586954,001,2023-07-29_14h37.20.339,arm3_eps,2022.2.5,Win32,59.95203837,5cd1bdedf2156c00013b0152,64c47140896c8c63e34c6d2f,64c51601b812d460b0031672,down,-1,0.75,0.2429,7,0,0.273,35,0,35,0,1,,,,,,,,,,
,,586954,001,2023-07-29_14h37.20.339,arm3_eps,2022.2.5,Win32,59.95203837,5cd1bdedf2156c00013b0152,64c47140896c8c63e34c6d2f,64c51601b812d460b0031672,right,-1,0.75,0.2429,7,-0.01278205,1.379,36,0,36,0,1,,,,,,,,,,
,,586954,001,2023-07-29_14h37.20.339,arm3_eps,2022.2.5,Win32,59.95203837,5cd1bdedf2156c00013b0152,64c47140896c8c63e34c6d2f,64c51601b812d460b0031672,right,-1,0.75,0.2429,7,-0.033581739,0.265,37,0,37,0,1,,,,,,,,,,
,,586954,001,2023-07-29_14h37.20.339,arm3_eps,2022.2.5,Win32,59.95203837,5cd1bdedf2156c00013b0152,64c47140896c8c63e34c6d2f,64c51601b812d460b0031672,right,-1,0.75,0.2429,7,-0.038791649,0.217,38,0,38,0,1,,,,,,,,,,
,,586954,001,2023-07-29_14h37.20.339,arm3_eps,2022.2.5,Win32,59.95203837,5cd1bdedf2156c00013b0152,64c47140896c8c63e34c6d2f,64c51601b812d460b0031672,right,-1,0.75,0.2429,7,-0.022110653,0.456,39,0,39,0,1,,,,,,,,,,
,,586954,001,2023-07-29_14h37.20.339,arm3_eps,2022.2.5,Win32,59.95203837,5cd1bdedf2156c00013b0152,64c47140896c8c63e34c6d2f,64c51601b812d460b0031672,right,-1,0.75,0.2429,7,-0.050564749,0.226,40,0,40,0,1,,,,,,,,,,
,,586954,001,2023-07-29_14h37.20.339,arm3_eps,2022.2.5,Win32,59.95203837,5cd1bdedf2156c00013b0152,64c47140896c8c63e34c6d2f,64c51601b812d460b0031672,down,1,0.75,0.2429,7,0,0.445,41,0,41,0,1,,,,,,,,,,
,,586954,001,2023-07-29_14h37.20.339,arm3_eps,2022.2.5,Win32,59.95203837,5cd1bdedf2156c00013b0152,64c47140896c8c63e34c6d2f,64c51601b812d460b0031672,right,1,0.75,0.2429,7,-0.025979051,0.902,42,0,42,0,1,,,,,,,,,,
,,586954,001,2023-07-29_14h37.20.339,arm3_eps,2022.2.5,Win32,59.95203837,5cd1bdedf2156c00013b0152,64c47140896c8c63e34c6d2f,64c51601b812d460b0031672,right,1,0.75,0.2429,7,-0.019925793,0.22,43,0,43,0,1,,,,,,,,,,
,,586954,001,2023-07-29_14h37.20.339,arm3_eps,2022.2.5,Win32,59.95203837,5cd1bdedf2156c00013b0152,64c47140896c8c63e34c6d2f,64c51601b812d460b0031672,right,1,0.75,0.2429,7,-0.001322723,0.39,44,0,44,0,1,,,,,,,,,,
,,586954,001,2023-07-29_14h37.20.339,arm3_eps,2022.2.5,Win32,59.95203837,5cd1bdedf2156c00013b0152,64c47140896c8c63e34c6d2f,64c51601b812d460b0031672,up,1,0.75,0.2429,8,0,0.901,45,0,45,0,1,,,,,,,,,,
,,586954,001,2023-07-29_14h37.20.339,arm3_eps,2022.2.5,Win32,59.95203837,5cd1bdedf2156c00013b0152,64c47140896c8c63e34c6d2f,64c51601b812d460b0031672,right,1,0.75,0.2429,8,0.000198003,0.905,46,0,46,0,1,,,,,,,,,,
,,586954,001,2023-07-29_14h37.20.339,arm3_eps,2022.2.5,Win32,59.95203837,5cd1bdedf2156c00013b0152,64c47140896c8c63e34c6d2f,64c51601b812d460b0031672,right,1,0.75,0.2429,8,0.012802834,0.221,47,0,47,0,1,,,,,,,,,,
,,586954,001,2023-07-29_14h37.20.339,arm3_eps,2022.2.5,Win32,59.95203837,5cd1bdedf2156c00013b0152,64c47140896c8c63e34c6d2f,64c51601b812d460b0031672,right,1,0.75,0.2429,8,0.034968855,0.344,48,0,48,0,1,,,,,,,,,,
,,586954,001,2023-07-29_14h37.20.339,arm3_eps,2022.2.5,Win32,59.95203837,5cd1bdedf2156c00013b0152,64c47140896c8c63e34c6d2f,64c51601b812d460b0031672,up,1,0.75,0.2429,8,0.034968855,0.219,49,0,49,0,1,,,,,,,,,,
space,48.354,586954,001,2023-07-29_14h37.20.339,arm3_eps,2022.2.5,Win32,59.95203837,5cd1bdedf2156c00013b0152,64c47140896c8c63e34c6d2f,64c51601b812d460b0031672,,,,,,,,,,,,,,,,,,,,,,
space,13.918,586954,001,2023-07-29_14h37.20.339,arm3_eps,2022.2.5,Win32,59.95203837,5cd1bdedf2156c00013b0152,64c47140896c8c63e34c6d2f,64c51601b812d460b0031672,,,,,,,,,,,,,,,,,,,,,,
space,0.919,586954,001,2023-07-29_14h37.20.339,arm3_eps,2022.2.5,Win32,59.95203837,5cd1bdedf2156c00013b0152,64c47140896c8c63e34c6d2f,64c51601b812d460b0031672,,,,,,,,,,,,,,,,,,,,,,
,,586954,001,2023-07-29_14h37.20.339,arm3_eps,2022.2.5,Win32,59.95203837,5cd1bdedf2156c00013b0152,64c47140896c8c63e34c6d2f,64c51601b812d460b0031672,right,1,0.75,0.05,0,-0.01876903,1.003,0,0,0,0,1,,,,,,,,,,
,,586954,001,2023-07-29_14h37.20.339,arm3_eps,2022.2.5,Win32,59.95203837,5cd1bdedf2156c00013b0152,64c47140896c8c63e34c6d2f,64c51601b812d460b0031672,right,1,0.75,0.05,0,-0.021049994,0.387,1,0,1,0,1,,,,,,,,,,
,,586954,001,2023-07-29_14h37.20.339,arm3_eps,2022.2.5,Win32,59.95203837,5cd1bdedf2156c00013b0152,64c47140896c8c63e34c6d2f,64c51601b812d460b0031672,right,1,0.75,0.05,0,-0.01903895,0.404,2,0,2,0,1,,,,,,,,,,
,,586954,001,2023-07-29_14h37.20.339,arm3_eps,2022.2.5,Win32,59.95203837,5cd1bdedf2156c00013b0152,64c47140896c8c63e34c6d2f,64c51601b812d460b0031672,right,1,0.75,0.05,0,-0.003095451,0.4,3,0,3,0,1,,,,,,,,,,
,,586954,001,2023-07-29_14h37.20.339,arm3_eps,2022.2.5,Win32,59.95203837,5cd1bdedf2156c00013b0152,64c47140896c8c63e34c6d2f,64c51601b812d460b0031672,up,1,0.75,0.05,1,0,0.541,4,0,4,0,1,,,,,,,,,,
,,586954,001,2023-07-29_14h37.20.339,arm3_eps,2022.2.5,Win32,59.95203837,5cd1bdedf2156c00013b0152,64c47140896c8c63e34c6d2f,64c51601b812d460b0031672,right,1,0.75,0.05,1,0.010143458,0.91,5,0,5,0,1,,,,,,,,,,
,,586954,001,2023-07-29_14h37.20.339,arm3_eps,2022.2.5,Win32,59.95203837,5cd1bdedf2156c00013b0152,64c47140896c8c63e34c6d2f,64c51601b812d460b0031672,right,1,0.75,0.05,1,0.03758753,0.249,6,0,6,0,1,,,,,,,,,,
,,586954,001,2023-07-29_14h37.20.339,arm3_eps,2022.2.5,Win32,59.95203837,5cd1bdedf2156c00013b0152,64c47140896c8c63e34c6d2f,64c51601b812d460b0031672,right,1,0.75,0.05,1,0.038069577,0.324,7,0,7,0,1,,,,,,,,,,
,,586954,001,2023-07-29_14h37.20.339,arm3_eps,2022.2.5,Win32,59.95203837,5cd1bdedf2156c00013b0152,64c47140896c8c63e34c6d2f,64c51601b812d460b0031672,up,1,0.75,0.05,2,0,0.606,8,0,8,0,1,,,,,,,,,,
,,586954,001,2023-07-29_14h37.20.339,arm3_eps,2022.2.5,Win32,59.95203837,5cd1bdedf2156c00013b0152,64c47140896c8c63e34c6d2f,64c51601b812d460b0031672,right,1,0.75,0.05,2,0.043264448,0.549,9,0,9,0,1,,,,,,,,,,
,,586954,001,2023-07-29_14h37.20.339,arm3_eps,2022.2.5,Win32,59.95203837,5cd1bdedf2156c00013b0152,64c47140896c8c63e34c6d2f,64c51601b812d460b0031672,right,1,0.75,0.05,2,0.080419071,0.172,10,0,10,0,1,,,,,,,,,,
,,586954,001,2023-07-29_14h37.20.339,arm3_eps,2022.2.5,Win32,59.95203837,5cd1bdedf2156c00013b0152,64c47140896c8c63e34c6d2f,64c51601b812d460b0031672,up,1,0.75,0.05,3,0,0.36,11,0,11,0,1,,,,,,,,,,
,,586954,001,2023-07-29_14h37.20.339,arm3_eps,2022.2.5,Win32,59.95203837,5cd1bdedf2156c00013b0152,64c47140896c8c63e34c6d2f,64c51601b812d460b0031672,right,1,0.75,0.05,3,0.004862291,0.801,12,0,12,0,1,,,,,,,,,,
,,586954,001,2023-07-29_14h37.20.339,arm3_eps,2022.2.5,Win32,59.95203837,5cd1bdedf2156c00013b0152,64c47140896c8c63e34c6d2f,64c51601b812d460b0031672,right,1,0.75,0.05,3,0.021158691,0.384,13,0,13,0,1,,,,,,,,,,
,,586954,001,2023-07-29_14h37.20.339,arm3_eps,2022.2.5,Win32,59.95203837,5cd1bdedf2156c00013b0152,64c47140896c8c63e34c6d2f,64c51601b812d460b0031672,up,1,0.75,0.05,3,0,0.267,14,0,14,0,1,,,,,,,,,,
,,586954,001,2023-07-29_14h37.20.339,arm3_eps,2022.2.5,Win32,59.95203837,5cd1bdedf2156c00013b0152,64c47140896c8c63e34c6d2f,64c51601b812d460b0031672,right,1,0.75,0.05,3,0.01196025,0.85,15,0,15,0,1,,,,,,,,,,
,,586954,001,2023-07-29_14h37.20.339,arm3_eps,2022.2.5,Win32,59.95203837,5cd1bdedf2156c00013b0152,64c47140896c8c63e34c6d2f,64c51601b812d460b0031672,right,1,0.75,0.05,3,0.020630113,0.36,16,0,16,0,1,,,,,,,,,,
,,586954,001,2023-07-29_14h37.20.339,arm3_eps,2022.2.5,Win32,59.95203837,5cd1bdedf2156c00013b0152,64c47140896c8c63e34c6d2f,64c51601b812d460b0031672,up,1,0.75,0.05,4,0,0.393,17,0,17,0,1,,,,,,,,,,
,,586954,001,2023-07-29_14h37.20.339,arm3_eps,2022.2.5,Win32,59.95203837,5cd1bdedf2156c00013b0152,64c47140896c8c63e34c6d2f,64c51601b812d460b0031672,right,1,0.75,0.05,4,0.068291547,0.705,18,0,18,0,1,,,,,,,,,,
,,586954,001,2023-07-29_14h37.20.339,arm3_eps,2022.2.5,Win32,59.95203837,5cd1bdedf2156c00013b0152,64c47140896c8c63e34c6d2f,64c51601b812d460b0031672,right,1,0.75,0.05,4,0.078737101,0.167,19,0,19,0,1,,,,,,,,,,
,,586954,001,2023-07-29_14h37.20.339,arm3_eps,2022.2.5,Win32,59.95203837,5cd1bdedf2156c00013b0152,64c47140896c8c63e34c6d2f,64c51601b812d460b0031672,up,1,0.75,0.05,5,0,0.36,20,0,20,0,1,,,,,,,,,,
,,586954,001,2023-07-29_14h37.20.339,arm3_eps,2022.2.5,Win32,59.95203837,5cd1bdedf2156c00013b0152,64c47140896c8c63e34c6d2f,64c51601b812d460b0031672,right,1,0.75,0.05,5,-0.007870981,0.983,21,0,21,0,1,,,,,,,,,,
,,586954,001,2023-07-29_14h37.20.339,arm3_eps,2022.2.5,Win32,59.95203837,5cd1bdedf2156c00013b0152,64c47140896c8c63e34c6d2f,64c51601b812d460b0031672,right,1,0.75,0.05,5,0.011906761,0.24,22,0,22,0,1,,,,,,,,,,
,,586954,001,2023-07-29_14h37.20.339,arm3_eps,2022.2.5,Win32,59.95203837,5cd1bdedf2156c00013b0152,64c47140896c8c63e34c6d2f,64c51601b812d460b0031672,right,1,0.75,0.05,5,0.031630086,0.176,23,0,23,0,1,,,,,,,,,,
,,586954,001,2023-07-29_14h37.20.339,arm3_eps,2022.2.5,Win32,59.95203837,5cd1bdedf2156c00013b0152,64c47140896c8c63e34c6d2f,64c51601b812d460b0031672,up,-1,0.75,0.05,6,0,0.905,24,0,24,0,1,,,,,,,,,,
,,586954,001,2023-07-29_14h37.20.339,arm3_eps,2022.2.5,Win32,59.95203837,5cd1bdedf2156c00013b0152,64c47140896c8c63e34c6d2f,64c51601b812d460b0031672,right,-1,0.75,0.05,6,0.001432299,1.12,25,0,25,0,1,,,,,,,,,,
,,586954,001,2023-07-29_14h37.20.339,arm3_eps,2022.2.5,Win32,59.95203837,5cd1bdedf2156c00013b0152,64c47140896c8c63e34c6d2f,64c51601b812d460b0031672,right,-1,0.75,0.05,6,-0.014938268,0.242,26,0,26,0,1,,,,,,,,,,
,,586954,001,2023-07-29_14h37.20.339,arm3_eps,2022.2.5,Win32,59.95203837,5cd1bdedf2156c00013b0152,64c47140896c8c63e34c6d2f,64c51601b812d460b0031672,right,-1,0.75,0.05,6,-0.024102084,0.219,27,0,27,0,1,,,,,,,,,,
,,586954,001,2023-07-29_14h37.20.339,arm3_eps,2022.2.5,Win32,59.95203837,5cd1bdedf2156c00013b0152,64c47140896c8c63e34c6d2f,64c51601b812d460b0031672,right,-1,0.75,0.05,6,-0.018691122,0.25,28,0,28,0,1,,,,,,,,,,
,,586954,001,2023-07-29_14h37.20.339,arm3_eps,2022.2.5,Win32,59.95203837,5cd1bdedf2156c00013b0152,64c47140896c8c63e34c6d2f,64c51601b812d460b0031672,right,-1,0.75,0.05,6,-0.012181116,0.577,29,0,29,0,1,,,,,,,,,,
,,586954,001,2023-07-29_14h37.20.339,arm3_eps,2022.2.5,Win32,59.95203837,5cd1bdedf2156c00013b0152,64c47140896c8c63e34c6d2f,64c51601b812d460b0031672,right,-1,0.75,0.05,6,-0.002343125,0.655,30,0,30,0,1,,,,,,,,,,
,,586954,001,2023-07-29_14h37.20.339,arm3_eps,2022.2.5,Win32,59.95203837,5cd1bdedf2156c00013b0152,64c47140896c8c63e34c6d2f,64c51601b812d460b0031672,right,-1,0.75,0.05,6,-0.004116138,0.433,31,0,31,0,1,,,,,,,,,,
,,586954,001,2023-07-29_14h37.20.339,arm3_eps,2022.2.5,Win32,59.95203837,5cd1bdedf2156c00013b0152,64c47140896c8c63e34c6d2f,64c51601b812d460b0031672,down,-1,0.75,0.05,7,0,0.439,32,0,32,0,1,,,,,,,,,,
,,586954,001,2023-07-29_14h37.20.339,arm3_eps,2022.2.5,Win32,59.95203837,5cd1bdedf2156c00013b0152,64c47140896c8c63e34c6d2f,64c51601b812d460b0031672,right,-1,0.75,0.05,7,0.014151845,0.858,33,0,33,0,1,,,,,,,,,,
,,586954,001,2023-07-29_14h37.20.339,arm3_eps,2022.2.5,Win32,59.95203837,5cd1bdedf2156c00013b0152,64c47140896c8c63e34c6d2f,64c51601b812d460b0031672,right,-1,0.75,0.05,7,0.025918602,0.206,34,0,34,0,1,,,,,,,,,,
,,586954,001,2023-07-29_14h37.20.339,arm3_eps,2022.2.5,Win32,59.95203837,5cd1bdedf2156c00013b0152,64c47140896c8c63e34c6d2f,64c51601b812d460b0031672,right,-1,0.75,0.05,7,0.041619315,0.182,35,0,35,0,1,,,,,,,,,,
,,586954,001,2023-07-29_14h37.20.339,arm3_eps,2022.2.5,Win32,59.95203837,5cd1bdedf2156c00013b0152,64c47140896c8c63e34c6d2f,64c51601b812d460b0031672,up,-1,0.75,0.05,6,0,0.351,36,0,36,0,1,,,,,,,,,,
,,586954,001,2023-07-29_14h37.20.339,arm3_eps,2022.2.5,Win32,59.95203837,5cd1bdedf2156c00013b0152,64c47140896c8c63e34c6d2f,64c51601b812d460b0031672,right,-1,0.75,0.05,6,-0.00015209,0.886,37,0,37,0,1,,,,,,,,,,
,,586954,001,2023-07-29_14h37.20.339,arm3_eps,2022.2.5,Win32,59.95203837,5cd1bdedf2156c00013b0152,64c47140896c8c63e34c6d2f,64c51601b812d460b0031672,right,-1,0.75,0.05,6,-0.006113466,0.148,38,0,38,0,1,,,,,,,,,,
,,586954,001,2023-07-29_14h37.20.339,arm3_eps,2022.2.5,Win32,59.95203837,5cd1bdedf2156c00013b0152,64c47140896c8c63e34c6d2f,64c51601b812d460b0031672,right,-1,0.75,0.05,6,-0.033038331,0.134,39,0,39,0,1,,,,,,,,,,
,,586954,001,2023-07-29_14h37.20.339,arm3_eps,2022.2.5,Win32,59.95203837,5cd1bdedf2156c00013b0152,64c47140896c8c63e34c6d2f,64c51601b812d460b0031672,right,-1,0.75,0.05,6,-0.029518853,0.16,40,0,40,0,1,,,,,,,,,,
,,586954,001,2023-07-29_14h37.20.339,arm3_eps,2022.2.5,Win32,59.95203837,5cd1bdedf2156c00013b0152,64c47140896c8c63e34c6d2f,64c51601b812d460b0031672,down,1,0.75,0.05,7,0,0.365,41,0,41,0,1,,,,,,,,,,
,,586954,001,2023-07-29_14h37.20.339,arm3_eps,2022.2.5,Win32,59.95203837,5cd1bdedf2156c00013b0152,64c47140896c8c63e34c6d2f,64c51601b812d460b0031672,right,1,0.75,0.05,7,0.028877341,1.133,42,0,42,0,1,,,,,,,,,,
,,586954,001,2023-07-29_14h37.20.339,arm3_eps,2022.2.5,Win32,59.95203837,5cd1bdedf2156c00013b0152,64c47140896c8c63e34c6d2f,64c51601b812d460b0031672,right,1,0.75,0.05,7,0.023769428,0.132,43,0,43,0,1,,,,,,,,,,
,,586954,001,2023-07-29_14h37.20.339,arm3_eps,2022.2.5,Win32,59.95203837,5cd1bdedf2156c00013b0152,64c47140896c8c63e34c6d2f,64c51601b812d460b0031672,right,1,0.75,0.05,7,0.049428732,0.134,44,0,44,0,1,,,,,,,,,,
,,586954,001,2023-07-29_14h37.20.339,arm3_eps,2022.2.5,Win32,59.95203837,5cd1bdedf2156c00013b0152,64c47140896c8c63e34c6d2f,64c51601b812d460b0031672,up,1,0.75,0.05,8,0,0.389,45,0,45,0,1,,,,,,,,,,
,,586954,001,2023-07-29_14h37.20.339,arm3_eps,2022.2.5,Win32,59.95203837,5cd1bdedf2156c00013b0152,64c47140896c8c63e34c6d2f,64c51601b812d460b0031672,right,1,0.75,0.05,8,0.019924449,0.536,46,0,46,0,1,,,,,,,,,,
,,586954,001,2023-07-29_14h37.20.339,arm3_eps,2022.2.5,Win32,59.95203837,5cd1bdedf2156c00013b0152,64c47140896c8c63e34c6d2f,64c51601b812d460b0031672,right,1,0.75,0.05,8,0.029731765,0.152,47,0,47,0,1,,,,,,,,,,
,,586954,001,2023-07-29_14h37.20.339,arm3_eps,2022.2.5,Win32,59.95203837,5cd1bdedf2156c00013b0152,64c47140896c8c63e34c6d2f,64c51601b812d460b0031672,right,1,0.75,0.05,8,0.03640027,0.166,48,0,48,0,1,,,,,,,,,,
,,586954,001,2023-07-29_14h37.20.339,arm3_eps,2022.2.5,Win32,59.95203837,5cd1bdedf2156c00013b0152,64c47140896c8c63e34c6d2f,64c51601b812d460b0031672,right,1,0.75,0.05,8,0.044935265,0.139,49,0,49,0,1,,,,,,,,,,
space,27.732,586954,001,2023-07-29_14h37.20.339,arm3_eps,2022.2.5,Win32,59.95203837,5cd1bdedf2156c00013b0152,64c47140896c8c63e34c6d2f,64c51601b812d460b0031672,,,,,,,,,,,,,,,,,,,,,,
space,1.083,586954,001,2023-07-29_14h37.20.339,arm3_eps,2022.2.5,Win32,59.95203837,5cd1bdedf2156c00013b0152,64c47140896c8c63e34c6d2f,64c51601b812d460b0031672,,,,,,,,,,,,,,,,,,,,,,
,,586954,001,2023-07-29_14h37.20.339,arm3_eps,2022.2.5,Win32,59.95203837,5cd1bdedf2156c00013b0152,64c47140896c8c63e34c6d2f,64c51601b812d460b0031672,right,1,0.75,0.5,0,-0.029020197,0.718,0,0,0,0,1,,,,,,,,,,
,,586954,001,2023-07-29_14h37.20.339,arm3_eps,2022.2.5,Win32,59.95203837,5cd1bdedf2156c00013b0152,64c47140896c8c63e34c6d2f,64c51601b812d460b0031672,right,1,0.75,0.5,0,-0.020883708,0.304,1,0,1,0,1,,,,,,,,,,
,,586954,001,2023-07-29_14h37.20.339,arm3_eps,2022.2.5,Win32,59.95203837,5cd1bdedf2156c00013b0152,64c47140896c8c63e34c6d2f,64c51601b812d460b0031672,up,1,0.75,0.5,0,0,0.486,2,0,2,0,1,,,,,,,,,,
,,586954,001,2023-07-29_14h37.20.339,arm3_eps,2022.2.5,Win32,59.95203837,5cd1bdedf2156c00013b0152,64c47140896c8c63e34c6d2f,64c51601b812d460b0031672,right,1,0.75,0.5,0,-0.005196075,0.833,3,0,3,0,1,,,,,,,,,,
,,586954,001,2023-07-29_14h37.20.339,arm3_eps,2022.2.5,Win32,59.95203837,5cd1bdedf2156c00013b0152,64c47140896c8c63e34c6d2f,64c51601b812d460b0031672,right,1,0.75,0.5,0,0.007052598,0.304,4,0,4,0,1,,,,,,,,,,
,,586954,001,2023-07-29_14h37.20.339,arm3_eps,2022.2.5,Win32,59.95203837,5cd1bdedf2156c00013b0152,64c47140896c8c63e34c6d2f,64c51601b812d460b0031672,right,1,0.75,0.5,0,0.009427905,0.324,5,0,5,0,1,,,,,,,,,,
,,586954,001,2023-07-29_14h37.20.339,arm3_eps,2022.2.5,Win32,59.95203837,5cd1bdedf2156c00013b0152,64c47140896c8c63e34c6d2f,64c51601b812d460b0031672,up,-1,0.75,0.5,1,0,0.537,6,0,6,0,1,,,,,,,,,,
,,586954,001,2023-07-29_14h37.20.339,arm3_eps,2022.2.5,Win32,59.95203837,5cd1bdedf2156c00013b0152,64c47140896c8c63e34c6d2f,64c51601b812d460b0031672,right,-1,0.75,0.5,1,-0.03361009,0.583,7,0,7,0,1,,,,,,,,,,
,,586954,001,2023-07-29_14h37.20.339,arm3_eps,2022.2.5,Win32,59.95203837,5cd1bdedf2156c00013b0152,64c47140896c8c63e34c6d2f,64c51601b812d460b0031672,right,-1,0.75,0.5,1,-0.025440374,0.184,8,0,8,0,1,,,,,,,,,,
,,586954,001,2023-07-29_14h37.20.339,arm3_eps,2022.2.5,Win32,59.95203837,5cd1bdedf2156c00013b0152,64c47140896c8c63e34c6d2f,64c51601b812d460b0031672,right,-1,0.75,0.5,1,-0.039348281,0.288,9,0,9,0,1,,,,,,,,,,
,,586954,001,2023-07-29_14h37.20.339,arm3_eps,2022.2.5,Win32,59.95203837,5cd1bdedf2156c00013b0152,64c47140896c8c63e34c6d2f,64c51601b812d460b0031672,down,-1,0.75,0.5,2,0,0.267,10,0,10,0,1,,,,,,,,,,
,,586954,001,2023-07-29_14h37.20.339,arm3_eps,2022.2.5,Win32,59.95203837,5cd1bdedf2156c00013b0152,64c47140896c8c63e34c6d2f,64c51601b812d460b0031672,right,-1,0.75,0.5,2,0.0149197,0.682,11,0,11,0,1,,,,,,,,,,
,,586954,001,2023-07-29_14h37.20.339,arm3_eps,2022.2.5,Win32,59.95203837,5cd1bdedf2156c00013b0152,64c47140896c8c63e34c6d2f,64c51601b812d460b0031672,right,-1,0.75,0.5,2,-0.025786794,0.186,12,0,12,0,1,,,,,,,,,,
,,586954,001,2023-07-29_14h37.20.339,arm3_eps,2022.2.5,Win32,59.95203837,5cd1bdedf2156c00013b0152,64c47140896c8c63e34c6d2f,64c51601b812d460b0031672,right,-1,0.75,0.5,2,-0.056849313,0.187,13,0,13,0,1,,,,,,,,,,
,,586954,001,2023-07-29_14h37.20.339,arm3_eps,2022.2.5,Win32,59.95203837,5cd1bdedf2156c00013b0152,64c47140896c8c63e34c6d2f,64c51601b812d460b0031672,right,-1,0.75,0.5,2,-0.087057359,0.172,14,0,14,0,1,,,,,,,,,,
,,586954,001,2023-07-29_14h37.20.339,arm3_eps,2022.2.5,Win32,59.95203837,5cd1bdedf2156c00013b0152,64c47140896c8c63e34c6d2f,64c51601b812d460b0031672,down,1,0.75,0.5,2,0,0.217,15,0,15,0,1,,,,,,,,,,
,,586954,001,2023-07-29_14h37.20.339,arm3_eps,2022.2.5,Win32,59.95203837,5cd1bdedf2156c00013b0152,64c47140896c8c63e34c6d2f,64c51601b812d460b0031672,right,1,0.75,0.5,2,0.020857626,0.65,16,0,16,0,1,,,,,,,,,,
,,586954,001,2023-07-29_14h37.20.339,arm3_eps,2022.2.5,Win32,59.95203837,5cd1bdedf2156c00013b0152,64c47140896c8c63e34c6d2f,64c51601b812d460b0031672,right,1,0.75,0.5,2,0.016416074,0.162,17,0,17,0,1,,,,,,,,,,
,,586954,001,2023-07-29_14h37.20.339,arm3_eps,2022.2.5,Win32,59.95203837,5cd1bdedf2156c00013b0152,64c47140896c8c63e34c6d2f,64c51601b812d460b0031672,right,1,0.75,0.5,2,0.009286943,0.154,18,0,18,0,1,,,,,,,,,,
,,586954,001,2023-07-29_14h37.20.339,arm3_eps,2022.2.5,Win32,59.95203837,5cd1bdedf2156c00013b0152,64c47140896c8c63e34c6d2f,64c51601b812d460b0031672,up,1,0.75,0.5,3,0,0.561,19,0,19,0,1,,,,,,,,,,
,,586954,001,2023-07-29_14h37.20.339,arm3_eps,2022.2.5,Win32,59.95203837,5cd1bdedf2156c00013b0152,64c47140896c8c63e34c6d2f,64c51601b812d460b0031672,right,1,0.75,0.5,3,-2.23712E-05,0.54,20,0,20,0,1,,,,,,,,,,
,,586954,001,2023-07-29_14h37.20.339,arm3_eps,2022.2.5,Win32,59.95203837,5cd1bdedf2156c00013b0152,64c47140896c8c63e34c6d2f,64c51601b812d460b0031672,right,1,0.75,0.5,3,0.0484754,0.164,21,0,21,0,1,,,,,,,,,,
,,586954,001,2023-07-29_14h37.20.339,arm3_eps,2022.2.5,Win32,59.95203837,5cd1bdedf2156c00013b0152,64c47140896c8c63e34c6d2f,64c51601b812d460b0031672,right,1,0.75,0.5,3,0.055475012,0.17,22,0,22,0,1,,,,,,,,,,
,,586954,001,2023-07-29_14h37.20.339,arm3_eps,2022.2.5,Win32,59.95203837,5cd1bdedf2156c00013b0152,64c47140896c8c63e34c6d2f,64c51601b812d460b0031672,up,-1,0.75,0.5,3,0,0.241,23,0,23,0,1,,,,,,,,,,
,,586954,001,2023-07-29_14h37.20.339,arm3_eps,2022.2.5,Win32,59.95203837,5cd1bdedf2156c00013b0152,64c47140896c8c63e34c6d2f,64c51601b812d460b0031672,right,-1,0.75,0.5,3,-0.035866147,0.636,24,0,24,0,1,,,,,,,,,,
,,586954,001,2023-07-29_14h37.20.339,arm3_eps,2022.2.5,Win32,59.95203837,5cd1bdedf2156c00013b0152,64c47140896c8c63e34c6d2f,64c51601b812d460b0031672,right,-1,0.75,0.5,3,-0.053753145,0.181,25,0,25,0,1,,,,,,,,,,
,,586954,001,2023-07-29_14h37.20.339,arm3_eps,2022.2.5,Win32,59.95203837,5cd1bdedf2156c00013b0152,64c47140896c8c63e34c6d2f,64c51601b812d460b0031672,right,-1,0.75,0.5,3,-0.049902524,0.139,26,0,26,0,1,,,,,,,,,,
,,586954,001,2023-07-29_14h37.20.339,arm3_eps,2022.2.5,Win32,59.95203837,5cd1bdedf2156c00013b0152,64c47140896c8c63e34c6d2f,64c51601b812d460b0031672,down,-1,0.75,0.5,4,0,0.301,27,0,27,0,1,,,,,,,,,,
,,586954,001,2023-07-29_14h37.20.339,arm3_eps,2022.2.5,Win32,59.95203837,5cd1bdedf2156c00013b0152,64c47140896c8c63e34c6d2f,64c51601b812d460b0031672,right,-1,0.75,0.5,4,0.007756733,0.497,28,0,28,0,1,,,,,,,,,,
,,586954,001,2023-07-29_14h37.20.339,arm3_eps,2022.2.5,Win32,59.95203837,5cd1bdedf2156c00013b0152,64c47140896c8c63e34c6d2f,64c51601b812d460b0031672,right,-1,0.75,0.5,4,0.005752381,0.154,29,0,29,0,1,,,,,,,,,,
,,586954,001,2023-07-29_14h37.20.339,arm3_eps,2022.2.5,Win32,59.95203837,5cd1bdedf2156c00013b0152,64c47140896c8c63e34c6d2f,64c51601b812d460b0031672,right,-1,0.75,0.5,4,0.034704841,0.225,30,0,30,0,1,,,,,,,,,,
,,586954,001,2023-07-29_14h37.20.339,arm3_eps,2022.2.5,Win32,59.95203837,5cd1bdedf2156c00013b0152,64c47140896c8c63e34c6d2f,64c51601b812d460b0031672,up,-1,0.75,0.5,3,0,0.367,31,0,31,0,1,,,,,,,,,,
,,586954,001,2023-07-29_14h37.20.339,arm3_eps,2022.2.5,Win32,59.95203837,5cd1bdedf2156c00013b0152,64c47140896c8c63e34c6d2f,64c51601b812d460b0031672,right,-1,0.75,0.5,3,-0.030715994,0.685,32,0,32,0,1,,,,,,,,,,
,,586954,001,2023-07-29_14h37.20.339,arm3_eps,2022.2.5,Win32,59.95203837,5cd1bdedf2156c00013b0152,64c47140896c8c63e34c6d2f,64c51601b812d460b0031672,right,-1,0.75,0.5,3,-0.026421985,0.157,33,0,33,0,1,,,,,,,,,,
,,586954,001,2023-07-29_14h37.20.339,arm3_eps,2022.2.5,Win32,59.95203837,5cd1bdedf2156c00013b0152,64c47140896c8c63e34c6d2f,64c51601b812d460b0031672,right,-1,0.75,0.5,3,-0.01755612,0.192,34,0,34,0,1,,,,,,,,,,
,,586954,001,2023-07-29_14h37.20.339,arm3_eps,2022.2.5,Win32,59.95203837,5cd1bdedf2156c00013b0152,64c47140896c8c63e34c6d2f,64c51601b812d460b0031672,up,-1,0.75,0.5,3,0,0.969,35,0,35,0,1,,,,,,,,,,
,,586954,001,2023-07-29_14h37.20.339,arm3_eps,2022.2.5,Win32,59.95203837,5cd1bdedf2156c00013b0152,64c47140896c8c63e34c6d2f,64c51601b812d460b0031672,right,-1,0.75,0.5,3,-0.025232876,0.734,36,0,36,0,1,,,,,,,,,,
,,586954,001,2023-07-29_14h37.20.339,arm3_eps,2022.2.5,Win32,59.95203837,5cd1bdedf2156c00013b0152,64c47140896c8c63e34c6d2f,64c51601b812d460b0031672,right,-1,0.75,0.5,3,-0.033871063,0.225,37,0,37,0,1,,,,,,,,,,
,,586954,001,2023-07-29_14h37.20.339,arm3_eps,2022.2.5,Win32,59.95203837,5cd1bdedf2156c00013b0152,64c47140896c8c63e34c6d2f,64c51601b812d460b0031672,down,-1,0.75,0.5,4,0,0.333,38,0,38,0,1,,,,,,,,,,
,,586954,001,2023-07-29_14h37.20.339,arm3_eps,2022.2.5,Win32,59.95203837,5cd1bdedf2156c00013b0152,64c47140896c8c63e34c6d2f,64c51601b812d460b0031672,right,-1,0.75,0.5,4,-0.032426321,0.635,39,0,39,0,1,,,,,,,,,,
,,586954,001,2023-07-29_14h37.20.339,arm3_eps,2022.2.5,Win32,59.95203837,5cd1bdedf2156c00013b0152,64c47140896c8c63e34c6d2f,64c51601b812d460b0031672,right,-1,0.75,0.5,4,-0.084396351,0.181,40,0,40,0,1,,,,,,,,,,
,,586954,001,2023-07-29_14h37.20.339,arm3_eps,2022.2.5,Win32,59.95203837,5cd1bdedf2156c00013b0152,64c47140896c8c63e34c6d2f,64c51601b812d460b0031672,down,1,0.75,0.5,5,0,0.412,41,0,41,0,1,,,,,,,,,,
,,586954,001,2023-07-29_14h37.20.339,arm3_eps,2022.2.5,Win32,59.95203837,5cd1bdedf2156c00013b0152,64c47140896c8c63e34c6d2f,64c51601b812d460b0031672,right,1,0.75,0.5,5,-0.00756286,0.658,42,0,42,0,1,,,,,,,,,,
,,586954,001,2023-07-29_14h37.20.339,arm3_eps,2022.2.5,Win32,59.95203837,5cd1bdedf2156c00013b0152,64c47140896c8c63e34c6d2f,64c51601b812d460b0031672,right,1,0.75,0.5,5,0.001573944,0.147,43,0,43,0,1,,,,,,,,,,
,,586954,001,2023-07-29_14h37.20.339,arm3_eps,2022.2.5,Win32,59.95203837,5cd1bdedf2156c00013b0152,64c47140896c8c63e34c6d2f,64c51601b812d460b0031672,right,1,0.75,0.5,5,0.009584802,0.146,44,0,44,0,1,,,,,,,,,,
,,586954,001,2023-07-29_14h37.20.339,arm3_eps,2022.2.5,Win32,59.95203837,5cd1bdedf2156c00013b0152,64c47140896c8c63e34c6d2f,64c51601b812d460b0031672,right,1,0.75,0.5,5,0.041178294,0.366,45,0,45,0,1,,,,,,,,,,
,,586954,001,2023-07-29_14h37.20.339,arm3_eps,2022.2.5,Win32,59.95203837,5cd1bdedf2156c00013b0152,64c47140896c8c63e34c6d2f,64c51601b812d460b0031672,up,-1,0.75,0.5,6,0,0.308,46,0,46,0,1,,,,,,,,,,
,,586954,001,2023-07-29_14h37.20.339,arm3_eps,2022.2.5,Win32,59.95203837,5cd1bdedf2156c00013b0152,64c47140896c8c63e34c6d2f,64c51601b812d460b0031672,right,-1,0.75,0.5,6,-0.017636498,0.75,47,0,47,0,1,,,,,,,,,,
,,586954,001,2023-07-29_14h37.20.339,arm3_eps,2022.2.5,Win32,59.95203837,5cd1bdedf2156c00013b0152,64c47140896c8c63e34c6d2f,64c51601b812d460b0031672,right,-1,0.75,0.5,6,-0.055127544,0.168,48,0,48,0,1,,,,,,,,,,
,,586954,001,2023-07-29_14h37.20.339,arm3_eps,2022.2.5,Win32,59.95203837,5cd1bdedf2156c00013b0152,64c47140896c8c63e34c6d2f,64c51601b812d460b0031672,right,-1,0.75,0.5,6,-0.069609036,0.193,49,0,49,0,1,,,,,,,,,,
space,2.217,586954,001,2023-07-29_14h37.20.339,arm3_eps,2022.2.5,Win32,59.95203837,5cd1bdedf2156c00013b0152,64c47140896c8c63e34c6d2f,64c51601b812d460b0031672,,,,,,,,,,,,,,,,,,,,,,
space,6.626,586954,001,2023-07-29_14h37.20.339,arm3_eps,2022.2.5,Win32,59.95203837,5cd1bdedf2156c00013b0152,64c47140896c8c63e34c6d2f,64c51601b812d460b0031672,right,-1,0.75,0.3714,0,-0.038554491,1.384,,,,,,0,0,0,0,1,,,,,
,,586954,001,2023-07-29_14h37.20.339,arm3_eps,2022.2.5,Win32,59.95203837,5cd1bdedf2156c00013b0152,64c47140896c8c63e34c6d2f,64c51601b812d460b0031672,right,-1,0.75,0.3714,0,-0.077085758,0.324,,,,,,1,0,1,0,1,,,,,
,,586954,001,2023-07-29_14h37.20.339,arm3_eps,2022.2.5,Win32,59.95203837,5cd1bdedf2156c00013b0152,64c47140896c8c63e34c6d2f,64c51601b812d460b0031672,down,1,0.75,0.3714,1,0,0.294,,,,,,2,0,2,0,1,,,,,
,,586954,001,2023-07-29_14h37.20.339,arm3_eps,2022.2.5,Win32,59.95203837,5cd1bdedf2156c00013b0152,64c47140896c8c63e34c6d2f,64c51601b812d460b0031672,right,1,0.75,0.3714,1,0.017759226,0.772,,,,,,3,0,3,0,1,,,,,
,,586954,001,2023-07-29_14h37.20.339,arm3_eps,2022.2.5,Win32,59.95203837,5cd1bdedf2156c00013b0152,64c47140896c8c63e34c6d2f,64c51601b812d460b0031672,right,1,0.75,0.3714,1,0.01669423,0.389,,,,,,4,0,4,0,1,,,,,
,,586954,001,2023-07-29_14h37.20.339,arm3_eps,2022.2.5,Win32,59.95203837,5cd1bdedf2156c00013b0152,64c47140896c8c63e34c6d2f,64c51601b812d460b0031672,up,1,0.75,0.3714,2,0,0.405,,,,,,5,0,5,0,1,,,,,
,,586954,001,2023-07-29_14h37.20.339,arm3_eps,2022.2.5,Win32,59.95203837,5cd1bdedf2156c00013b0152,64c47140896c8c63e34c6d2f,64c51601b812d460b0031672,right,1,0.75,0.3714,2,-0.002604176,0.737,,,,,,6,0,6,0,1,,,,,
,,586954,001,2023-07-29_14h37.20.339,arm3_eps,2022.2.5,Win32,59.95203837,5cd1bdedf2156c00013b0152,64c47140896c8c63e34c6d2f,64c51601b812d460b0031672,right,1,0.75,0.3714,2,0.004191191,0.417,,,,,,7,0,7,0,1,,,,,
,,586954,001,2023-07-29_14h37.20.339,arm3_eps,2022.2.5,Win32,59.95203837,5cd1bdedf2156c00013b0152,64c47140896c8c63e34c6d2f,64c51601b812d460b0031672,up,1,0.75,0.3714,3,0,0.465,,,,,,8,0,8,0,1,,,,,
,,586954,001,2023-07-29_14h37.20.339,arm3_eps,2022.2.5,Win32,59.95203837,5cd1bdedf2156c00013b0152,64c47140896c8c63e34c6d2f,64c51601b812d460b0031672,right,1,0.75,0.3714,3,-0.001987731,0.739,,,,,,9,0,9,0,1,,,,,
,,586954,001,2023-07-29_14h37.20.339,arm3_eps,2022.2.5,Win32,59.95203837,5cd1bdedf2156c00013b0152,64c47140896c8c63e34c6d2f,64c51601b812d460b0031672,right,1,0.75,0.3714,3,0.009526995,0.318,,,,,,10,0,10,0,1,,,,,
,,586954,001,2023-07-29_14h37.20.339,arm3_eps,2022.2.5,Win32,59.95203837,5cd1bdedf2156c00013b0152,64c47140896c8c63e34c6d2f,64c51601b812d460b0031672,up,-1,0.75,0.3714,4,0,0.521,,,,,,11,0,11,0,1,,,,,
,,586954,001,2023-07-29_14h37.20.339,arm3_eps,2022.2.5,Win32,59.95203837,5cd1bdedf2156c00013b0152,64c47140896c8c63e34c6d2f,64c51601b812d460b0031672,right,-1,0.75,0.3714,4,-0.029960311,0.737,,,,,,12,0,12,0,1,,,,,
,,586954,001,2023-07-29_14h37.20.339,arm3_eps,2022.2.5,Win32,59.95203837,5cd1bdedf2156c00013b0152,64c47140896c8c63e34c6d2f,64c51601b812d460b0031672,right,-1,0.75,0.3714,4,-0.02536565,0.467,,,,,,13,0,13,0,1,,,,,
,,586954,001,2023-07-29_14h37.20.339,arm3_eps,2022.2.5,Win32,59.95203837,5cd1bdedf2156c00013b0152,64c47140896c8c63e34c6d2f,64c51601b812d460b0031672,down,1,0.75,0.3714,5,0,0.436,,,,,,14,0,14,0,1,,,,,
,,586954,001,2023-07-29_14h37.20.339,arm3_eps,2022.2.5,Win32,59.95203837,5cd1bdedf2156c00013b0152,64c47140896c8c63e34c6d2f,64c51601b812d460b0031672,right,1,0.75,0.3714,5,0.026446047,0.818,,,,,,15,0,15,0,1,,,,,
,,586954,001,2023-07-29_14h37.20.339,arm3_eps,2022.2.5,Win32,59.95203837,5cd1bdedf2156c00013b0152,64c47140896c8c63e34c6d2f,64c51601b812d460b0031672,right,1,0.75,0.3714,5,0.016780848,0.637,,,,,,16,0,16,0,1,,,,,
,,586954,001,2023-07-29_14h37.20.339,arm3_eps,2022.2.5,Win32,59.95203837,5cd1bdedf2156c00013b0152,64c47140896c8c63e34c6d2f,64c51601b812d460b0031672,down,-1,0.75,0.3714,4,0,0.958,,,,,,17,0,17,0,1,,,,,
,,586954,001,2023-07-29_14h37.20.339,arm3_eps,2022.2.5,Win32,59.95203837,5cd1bdedf2156c00013b0152,64c47140896c8c63e34c6d2f,64c51601b812d460b0031672,right,-1,0.75,0.3714,4,-0.035452574,1.117,,,,,,18,0,18,0,1,,,,,
,,586954,001,2023-07-29_14h37.20.339,arm3_eps,2022.2.5,Win32,59.95203837,5cd1bdedf2156c00013b0152,64c47140896c8c63e34c6d2f,64c51601b812d460b0031672,down,1,0.75,0.3714,5,0,0.566,,,,,,19,0,19,0,1,,,,,
,,586954,001,2023-07-29_14h37.20.339,arm3_eps,2022.2.5,Win32,59.95203837,5cd1bdedf2156c00013b0152,64c47140896c8c63e34c6d2f,64c51601b812d460b0031672,right,1,0.75,0.3714,5,-0.015904292,1.083,,,,,,20,0,20,0,1,,,,,
,,586954,001,2023-07-29_14h37.20.339,arm3_eps,2022.2.5,Win32,59.95203837,5cd1bdedf2156c00013b0152,64c47140896c8c63e34c6d2f,64c51601b812d460b0031672,right,1,0.75,0.3714,5,0.003113134,0.337,,,,,,21,0,21,0,1,,,,,
,,586954,001,2023-07-29_14h37.20.339,arm3_eps,2022.2.5,Win32,59.95203837,5cd1bdedf2156c00013b0152,64c47140896c8c63e34c6d2f,64c51601b812d460b0031672,right,1,0.75,0.3714,5,0.000734594,0.569,,,,,,22,0,22,0,1,,,,,
,,586954,001,2023-07-29_14h37.20.339,arm3_eps,2022.2.5,Win32,59.95203837,5cd1bdedf2156c00013b0152,64c47140896c8c63e34c6d2f,64c51601b812d460b0031672,right,1,0.75,0.3714,5,0.004998093,0.786,,,,,,23,0,23,0,1,,,,,
,,586954,001,2023-07-29_14h37.20.339,arm3_eps,2022.2.5,Win32,59.95203837,5cd1bdedf2156c00013b0152,64c47140896c8c63e34c6d2f,64c51601b812d460b0031672,up,1,0.75,0.3714,6,0,0.526,,,,,,24,0,24,0,1,,,,,
,,586954,001,2023-07-29_14h37.20.339,arm3_eps,2022.2.5,Win32,59.95203837,5cd1bdedf2156c00013b0152,64c47140896c8c63e34c6d2f,64c51601b812d460b0031672,right,1,0.75,0.3714,6,0.0244894,0.844,,,,,,25,0,25,0,1,,,,,
,,586954,001,2023-07-29_14h37.20.339,arm3_eps,2022.2.5,Win32,59.95203837,5cd1bdedf2156c00013b0152,64c47140896c8c63e34c6d2f,64c51601b812d460b0031672,right,1,0.75,0.3714,6,0.029245553,0.363,,,,,,26,0,26,0,1,,,,,
,,586954,001,2023-07-29_14h37.20.339,arm3_eps,2022.2.5,Win32,59.95203837,5cd1bdedf2156c00013b0152,64c47140896c8c63e34c6d2f,64c51601b812d460b0031672,right,1,0.75,0.3714,6,0.024346332,2.888,,,,,,27,0,27,0,1,,,,,
,,586954,001,2023-07-29_14h37.20.339,arm3_eps,2022.2.5,Win32,59.95203837,5cd1bdedf2156c00013b0152,64c47140896c8c63e34c6d2f,64c51601b812d460b0031672,up,1,0.75,0.3714,7,0,0.482,,,,,,28,0,28,0,1,,,,,
,,586954,001,2023-07-29_14h37.20.339,arm3_eps,2022.2.5,Win32,59.95203837,5cd1bdedf2156c00013b0152,64c47140896c8c63e34c6d2f,64c51601b812d460b0031672,right,1,0.75,0.3714,7,0.020958769,0.784,,,,,,29,0,29,0,1,,,,,
,,586954,001,2023-07-29_14h37.20.339,arm3_eps,2022.2.5,Win32,59.95203837,5cd1bdedf2156c00013b0152,64c47140896c8c63e34c6d2f,64c51601b812d460b0031672,up,-1,0.75,0.3714,8,0,0.794,,,,,,30,0,30,0,1,,,,,
,,586954,001,2023-07-29_14h37.20.339,arm3_eps,2022.2.5,Win32,59.95203837,5cd1bdedf2156c00013b0152,64c47140896c8c63e34c6d2f,64c51601b812d460b0031672,right,-1,0.75,0.3714,8,-0.000689168,0.953,,,,,,31,0,31,0,1,,,,,
,,586954,001,2023-07-29_14h37.20.339,arm3_eps,2022.2.5,Win32,59.95203837,5cd1bdedf2156c00013b0152,64c47140896c8c63e34c6d2f,64c51601b812d460b0031672,right,-1,0.75,0.3714,8,-0.009372959,1.134,,,,,,32,0,32,0,1,,,,,
,,586954,001,2023-07-29_14h37.20.339,arm3_eps,2022.2.5,Win32,59.95203837,5cd1bdedf2156c00013b0152,64c47140896c8c63e34c6d2f,64c51601b812d460b0031672,down,1,0.75,0.3714,8,0,0.551,,,,,,33,0,33,0,1,,,,,
,,586954,001,2023-07-29_14h37.20.339,arm3_eps,2022.2.5,Win32,59.95203837,5cd1bdedf2156c00013b0152,64c47140896c8c63e34c6d2f,64c51601b812d460b0031672,right,1,0.75,0.3714,8,0.004491972,0.747,,,,,,34,0,34,0,1,,,,,
,,586954,001,2023-07-29_14h37.20.339,arm3_eps,2022.2.5,Win32,59.95203837,5cd1bdedf2156c00013b0152,64c47140896c8c63e34c6d2f,64c51601b812d460b0031672,right,1,0.75,0.3714,8,-0.008349392,0.44,,,,,,35,0,35,0,1,,,,,
,,586954,001,2023-07-29_14h37.20.339,arm3_eps,2022.2.5,Win32,59.95203837,5cd1bdedf2156c00013b0152,64c47140896c8c63e34c6d2f,64c51601b812d460b0031672,down,1,0.75,0.3714,7,0,0.466,,,,,,36,0,36,0,1,,,,,
,,586954,001,2023-07-29_14h37.20.339,arm3_eps,2022.2.5,Win32,59.95203837,5cd1bdedf2156c00013b0152,64c47140896c8c63e34c6d2f,64c51601b812d460b0031672,right,1,0.75,0.3714,7,0.016750222,0.767,,,,,,37,0,37,0,1,,,,,
,,586954,001,2023-07-29_14h37.20.339,arm3_eps,2022.2.5,Win32,59.95203837,5cd1bdedf2156c00013b0152,64c47140896c8c63e34c6d2f,64c51601b812d460b0031672,right,1,0.75,0.3714,7,0.033674383,0.52,,,,,,38,0,38,0,1,,,,,
,,586954,001,2023-07-29_14h37.20.339,arm3_eps,2022.2.5,Win32,59.95203837,5cd1bdedf2156c00013b0152,64c47140896c8c63e34c6d2f,64c51601b812d460b0031672,right,1,0.75,0.3714,7,0.02529738,0.901,,,,,,39,0,39,0,1,,,,,
,,586954,001,2023-07-29_14h37.20.339,arm3_eps,2022.2.5,Win32,59.95203837,5cd1bdedf2156c00013b0152,64c47140896c8c63e34c6d2f,64c51601b812d460b0031672,down,1,0.75,0.3714,7,0,0.63,,,,,,40,0,40,0,1,,,,,
,,586954,001,2023-07-29_14h37.20.339,arm3_eps,2022.2.5,Win32,59.95203837,5cd1bdedf2156c00013b0152,64c47140896c8c63e34c6d2f,64c51601b812d460b0031672,right,1,0.75,0.3714,7,0.036239828,0.82,,,,,,41,0,41,0,1,,,,,
,,586954,001,2023-07-29_14h37.20.339,arm3_eps,2022.2.5,Win32,59.95203837,5cd1bdedf2156c00013b0152,64c47140896c8c63e34c6d2f,64c51601b812d460b0031672,up,1,0.75,0.3714,8,0,0.468,,,,,,42,0,42,0,1,,,,,
,,586954,001,2023-07-29_14h37.20.339,arm3_eps,2022.2.5,Win32,59.95203837,5cd1bdedf2156c00013b0152,64c47140896c8c63e34c6d2f,64c51601b812d460b0031672,right,1,0.75,0.3714,8,0.011765661,1.373,,,,,,43,0,43,0,1,,,,,
,,586954,001,2023-07-29_14h37.20.339,arm3_eps,2022.2.5,Win32,59.95203837,5cd1bdedf2156c00013b0152,64c47140896c8c63e34c6d2f,64c51601b812d460b0031672,right,1,0.75,0.3714,8,-0.011655287,0.47,,,,,,44,0,44,0,1,,,,,
,,586954,001,2023-07-29_14h37.20.339,arm3_eps,2022.2.5,Win32,59.95203837,5cd1bdedf2156c00013b0152,64c47140896c8c63e34c6d2f,64c51601b812d460b0031672,up,1,0.75,0.3714,9,0,0.805,,,,,,45,0,45,0,1,,,,,
,,586954,001,2023-07-29_14h37.20.339,arm3_eps,2022.2.5,Win32,59.95203837,5cd1bdedf2156c00013b0152,64c47140896c8c63e34c6d2f,64c51601b812d460b0031672,right,1,0.75,0.3714,9,0.022741707,0.858,,,,,,46,0,46,0,1,,,,,
,,586954,001,2023-07-29_14h37.20.339,arm3_eps,2022.2.5,Win32,59.95203837,5cd1bdedf2156c00013b0152,64c47140896c8c63e34c6d2f,64c51601b812d460b0031672,right,1,0.75,0.3714,9,0.023803467,0.403,,,,,,47,0,47,0,1,,,,,
,,586954,001,2023-07-29_14h37.20.339,arm3_eps,2022.2.5,Win32,59.95203837,5cd1bdedf2156c00013b0152,64c47140896c8c63e34c6d2f,64c51601b812d460b0031672,up,1,0.75,0.3714,10,0,0.468,,,,,,48,0,48,0,1,,,,,
,,586954,001,2023-07-29_14h37.20.339,arm3_eps,2022.2.5,Win32,59.95203837,5cd1bdedf2156c00013b0152,64c47140896c8c63e34c6d2f,64c51601b812d460b0031672,right,1,0.75,0.3714,10,-0.019943012,2.187,,,,,,49,0,49,0,1,,,,,
,,586954,001,2023-07-29_14h37.20.339,arm3_eps,2022.2.5,Win32,59.95203837,5cd1bdedf2156c00013b0152,64c47140896c8c63e34c6d2f,64c51601b812d460b0031672,right,1,0.75,0.3714,10,0.00485619,0.724,,,,,,50,0,50,0,1,,,,,
,,586954,001,2023-07-29_14h37.20.339,arm3_eps,2022.2.5,Win32,59.95203837,5cd1bdedf2156c00013b0152,64c47140896c8c63e34c6d2f,64c51601b812d460b0031672,right,1,0.75,0.3714,10,0.000929123,0.6,,,,,,51,0,51,0,1,,,,,
,,586954,001,2023-07-29_14h37.20.339,arm3_eps,2022.2.5,Win32,59.95203837,5cd1bdedf2156c00013b0152,64c47140896c8c63e34c6d2f,64c51601b812d460b0031672,up,1,0.75,0.3714,11,0,0.456,,,,,,52,0,52,0,1,,,,,
,,586954,001,2023-07-29_14h37.20.339,arm3_eps,2022.2.5,Win32,59.95203837,5cd1bdedf2156c00013b0152,64c47140896c8c63e34c6d2f,64c51601b812d460b0031672,right,1,0.75,0.3714,11,0.002524304,1.219,,,,,,53,0,53,0,1,,,,,
,,586954,001,2023-07-29_14h37.20.339,arm3_eps,2022.2.5,Win32,59.95203837,5cd1bdedf2156c00013b0152,64c47140896c8c63e34c6d2f,64c51601b812d460b0031672,right,1,0.75,0.3714,11,-0.001536927,0.341,,,,,,54,0,54,0,1,,,,,
,,586954,001,2023-07-29_14h37.20.339,arm3_eps,2022.2.5,Win32,59.95203837,5cd1bdedf2156c00013b0152,64c47140896c8c63e34c6d2f,64c51601b812d460b0031672,right,1,0.75,0.3714,11,0.000253633,0.416,,,,,,55,0,55,0,1,,,,,
,,586954,001,2023-07-29_14h37.20.339,arm3_eps,2022.2.5,Win32,59.95203837,5cd1bdedf2156c00013b0152,64c47140896c8c63e34c6d2f,64c51601b812d460b0031672,up,1,0.75,0.3714,12,0,0.518,,,,,,56,0,56,0,1,,,,,
,,586954,001,2023-07-29_14h37.20.339,arm3_eps,2022.2.5,Win32,59.95203837,5cd1bdedf2156c00013b0152,64c47140896c8c63e34c6d2f,64c51601b812d460b0031672,right,1,0.75,0.3714,12,-0.013590022,0.755,,,,,,57,0,57,0,1,,,,,
,,586954,001,2023-07-29_14h37.20.339,arm3_eps,2022.2.5,Win32,59.95203837,5cd1bdedf2156c00013b0152,64c47140896c8c63e34c6d2f,64c51601b812d460b0031672,right,1,0.75,0.3714,12,-0.000847473,1.017,,,,,,58,0,58,0,1,,,,,
,,586954,001,2023-07-29_14h37.20.339,arm3_eps,2022.2.5,Win32,59.95203837,5cd1bdedf2156c00013b0152,64c47140896c8c63e34c6d2f,64c51601b812d460b0031672,down,1,0.75,0.3714,12,0,0.991,,,,,,59,0,59,0,1,,,,,
,,586954,001,2023-07-29_14h37.20.339,arm3_eps,2022.2.5,Win32,59.95203837,5cd1bdedf2156c00013b0152,64c47140896c8c63e34c6d2f,64c51601b812d460b0031672,right,1,0.75,0.3714,12,-0.023343507,3.957,,,,,,60,0,60,0,1,,,,,
,,586954,001,2023-07-29_14h37.20.339,arm3_eps,2022.2.5,Win32,59.95203837,5cd1bdedf2156c00013b0152,64c47140896c8c63e34c6d2f,64c51601b812d460b0031672,right,1,0.75,0.3714,12,-0.022461097,0.543,,,,,,61,0,61,0,1,,,,,
,,586954,001,2023-07-29_14h37.20.339,arm3_eps,2022.2.5,Win32,59.95203837,5cd1bdedf2156c00013b0152,64c47140896c8c63e34c6d2f,64c51601b812d460b0031672,right,1,0.75,0.3714,12,-0.003589203,0.502,,,,,,62,0,62,0,1,,,,,
,,586954,001,2023-07-29_14h37.20.339,arm3_eps,2022.2.5,Win32,59.95203837,5cd1bdedf2156c00013b0152,64c47140896c8c63e34c6d2f,64c51601b812d460b0031672,right,1,0.75,0.3714,12,0.003885196,0.453,,,,,,63,0,63,0,1,,,,,
,,586954,001,2023-07-29_14h37.20.339,arm3_eps,2022.2.5,Win32,59.95203837,5cd1bdedf2156c00013b0152,64c47140896c8c63e34c6d2f,64c51601b812d460b0031672,down,1,0.75,0.3714,11,0,0.544,,,,,,64,0,64,0,1,,,,,
,,586954,001,2023-07-29_14h37.20.339,arm3_eps,2022.2.5,Win32,59.95203837,5cd1bdedf2156c00013b0152,64c47140896c8c63e34c6d2f,64c51601b812d460b0031672,right,1,0.75,0.3714,11,0.021795925,1.436,,,,,,65,0,65,0,1,,,,,
,,586954,001,2023-07-29_14h37.20.339,arm3_eps,2022.2.5,Win32,59.95203837,5cd1bdedf2156c00013b0152,64c47140896c8c63e34c6d2f,64c51601b812d460b0031672,up,1,0.75,0.3714,11,0,0.577,,,,,,66,0,66,0,1,,,,,
,,586954,001,2023-07-29_14h37.20.339,arm3_eps,2022.2.5,Win32,59.95203837,5cd1bdedf2156c00013b0152,64c47140896c8c63e34c6d2f,64c51601b812d460b0031672,right,1,0.75,0.3714,11,0.022075144,1.036,,,,,,67,0,67,0,1,,,,,
,,586954,001,2023-07-29_14h37.20.339,arm3_eps,2022.2.5,Win32,59.95203837,5cd1bdedf2156c00013b0152,64c47140896c8c63e34c6d2f,64c51601b812d460b0031672,right,1,0.75,0.3714,11,0.016762304,0.386,,,,,,68,0,68,0,1,,,,,
,,586954,001,2023-07-29_14h37.20.339,arm3_eps,2022.2.5,Win32,59.95203837,5cd1bdedf2156c00013b0152,64c47140896c8c63e34c6d2f,64c51601b812d460b0031672,right,1,0.75,0.3714,11,0.002229491,0.403,,,,,,69,0,69,0,1,,,,,
,,586954,001,2023-07-29_14h37.20.339,arm3_eps,2022.2.5,Win32,59.95203837,5cd1bdedf2156c00013b0152,64c47140896c8c63e34c6d2f,64c51601b812d460b0031672,right,1,0.75,0.3714,11,-0.001815633,0.517,,,,,,70,0,70,0,1,,,,,
,,586954,001,2023-07-29_14h37.20.339,arm3_eps,2022.2.5,Win32,59.95203837,5cd1bdedf2156c00013b0152,64c47140896c8c63e34c6d2f,64c51601b812d460b0031672,right,1,0.75,0.3714,11,-0.004702555,1.401,,,,,,71,0,71,0,1,,,,,
,,586954,001,2023-07-29_14h37.20.339,arm3_eps,2022.2.5,Win32,59.95203837,5cd1bdedf2156c00013b0152,64c47140896c8c63e34c6d2f,64c51601b812d460b0031672,up,1,0.75,0.3714,12,0,0.53,,,,,,72,0,72,0,1,,,,,
,,586954,001,2023-07-29_14h37.20.339,arm3_eps,2022.2.5,Win32,59.95203837,5cd1bdedf2156c00013b0152,64c47140896c8c63e34c6d2f,64c51601b812d460b0031672,up,-1,0.75,0.3714,13,0,1.416,,,,,,73,0,73,0,1,,,,,
,,586954,001,2023-07-29_14h37.20.339,arm3_eps,2022.2.5,Win32,59.95203837,5cd1bdedf2156c00013b0152,64c47140896c8c63e34c6d2f,64c51601b812d460b0031672,down,1,0.75,0.3714,14,0,1.339,,,,,,74,0,74,0,1,,,,,
,,586954,001,2023-07-29_14h37.20.339,arm3_eps,2022.2.5,Win32,59.95203837,5cd1bdedf2156c00013b0152,64c47140896c8c63e34c6d2f,64c51601b812d460b0031672,down,1,0.75,0.3714,13,0,1.339,,,,,,75,0,75,0,1,,,,,
,,586954,001,2023-07-29_14h37.20.339,arm3_eps,2022.2.5,Win32,59.95203837,5cd1bdedf2156c00013b0152,64c47140896c8c63e34c6d2f,64c51601b812d460b0031672,down,1,0.75,0.3714,12,0,1.074,,,,,,76,0,76,0,1,,,,,
,,586954,001,2023-07-29_14h37.20.339,arm3_eps,2022.2.5,Win32,59.95203837,5cd1bdedf2156c00013b0152,64c47140896c8c63e34c6d2f,64c51601b812d460b0031672,up,-1,0.75,0.3714,13,0,1.386,,,,,,77,0,77,0,1,,,,,
,,586954,001,2023-07-29_14h37.20.339,arm3_eps,2022.2.5,Win32,59.95203837,5cd1bdedf2156c00013b0152,64c47140896c8c63e34c6d2f,64c51601b812d460b0031672,right,-1,0.75,0.3714,13,-0.001611441,1.205,,,,,,78,0,78,0,1,,,,,
,,586954,001,2023-07-29_14h37.20.339,arm3_eps,2022.2.5,Win32,59.95203837,5cd1bdedf2156c00013b0152,64c47140896c8c63e34c6d2f,64c51601b812d460b0031672,right,-1,0.75,0.3714,13,0.004166348,0.379,,,,,,79,0,79,0,1,,,,,
,,586954,001,2023-07-29_14h37.20.339,arm3_eps,2022.2.5,Win32,59.95203837,5cd1bdedf2156c00013b0152,64c47140896c8c63e34c6d2f,64c51601b812d460b0031672,right,-1,0.75,0.3714,13,-0.001123435,0.389,,,,,,80,0,80,0,1,,,,,
,,586954,001,2023-07-29_14h37.20.339,arm3_eps,2022.2.5,Win32,59.95203837,5cd1bdedf2156c00013b0152,64c47140896c8c63e34c6d2f,64c51601b812d460b0031672,right,-1,0.75,0.3714,13,-0.009074418,0.4,,,,,,81,0,81,0,1,,,,,
,,586954,001,2023-07-29_14h37.20.339,arm3_eps,2022.2.5,Win32,59.95203837,5cd1bdedf2156c00013b0152,64c47140896c8c63e34c6d2f,64c51601b812d460b0031672,down,1,0.75,0.3714,14,0,0.707,,,,,,82,0,82,0,1,,,,,
,,586954,001,2023-07-29_14h37.20.339,arm3_eps,2022.2.5,Win32,59.95203837,5cd1bdedf2156c00013b0152,64c47140896c8c63e34c6d2f,64c51601b812d460b0031672,right,1,0.75,0.3714,14,0.00480804,0.833,,,,,,83,0,83,0,1,,,,,
,,586954,001,2023-07-29_14h37.20.339,arm3_eps,2022.2.5,Win32,59.95203837,5cd1bdedf2156c00013b0152,64c47140896c8c63e34c6d2f,64c51601b812d460b0031672,down,1,0.75,0.3714,14,0,0.552,,,,,,84,0,84,0,1,,,,,
,,586954,001,2023-07-29_14h37.20.339,arm3_eps,2022.2.5,Win32,59.95203837,5cd1bdedf2156c00013b0152,64c47140896c8c63e34c6d2f,64c51601b812d460b0031672,right,1,0.75,0.3714,14,0.015228201,0.732,,,,,,85,0,85,0,1,,,,,
,,586954,001,2023-07-29_14h37.20.339,arm3_eps,2022.2.5,Win32,59.95203837,5cd1bdedf2156c00013b0152,64c47140896c8c63e34c6d2f,64c51601b812d460b0031672,right,1,0.75,0.3714,14,0.000326335,0.355,,,,,,86,0,86,0,1,,,,,
,,586954,001,2023-07-29_14h37.20.339,arm3_eps,2022.2.5,Win32,59.95203837,5cd1bdedf2156c00013b0152,64c47140896c8c63e34c6d2f,64c51601b812d460b0031672,right,1,0.75,0.3714,14,0.006895676,0.748,,,,,,87,0,87,0,1,,,,,
,,586954,001,2023-07-29_14h37.20.339,arm3_eps,2022.2.5,Win32,59.95203837,5cd1bdedf2156c00013b0152,64c47140896c8c63e34c6d2f,64c51601b812d460b0031672,up,-1,0.75,0.3714,15,0,0.585,,,,,,88,0,88,0,1,,,,,
,,586954,001,2023-07-29_14h37.20.339,arm3_eps,2022.2.5,Win32,59.95203837,5cd1bdedf2156c00013b0152,64c47140896c8c63e34c6d2f,64c51601b812d460b0031672,down,1,0.75,0.3714,16,0,1.672,,,,,,89,0,89,0,1,,,,,
,,586954,001,2023-07-29_14h37.20.339,arm3_eps,2022.2.5,Win32,59.95203837,5cd1bdedf2156c00013b0152,64c47140896c8c63e34c6d2f,64c51601b812d460b0031672,right,1,0.75,0.3714,16,-0.000199832,1.132,,,,,,90,0,90,0,1,,,,,
,,586954,001,2023-07-29_14h37.20.339,arm3_eps,2022.2.5,Win32,59.95203837,5cd1bdedf2156c00013b0152,64c47140896c8c63e34c6d2f,64c51601b812d460b0031672,up,1,0.75,0.3714,17,0,0.602,,,,,,91,0,91,0,1,,,,,
,,586954,001,2023-07-29_14h37.20.339,arm3_eps,2022.2.5,Win32,59.95203837,5cd1bdedf2156c00013b0152,64c47140896c8c63e34c6d2f,64c51601b812d460b0031672,right,1,0.75,0.3714,17,0.030704589,0.767,,,,,,92,0,92,0,1,,,,,
,,586954,001,2023-07-29_14h37.20.339,arm3_eps,2022.2.5,Win32,59.95203837,5cd1bdedf2156c00013b0152,64c47140896c8c63e34c6d2f,64c51601b812d460b0031672,right,1,0.75,0.3714,17,0.031228287,0.65,,,,,,93,0,93,0,1,,,,,
,,586954,001,2023-07-29_14h37.20.339,arm3_eps,2022.2.5,Win32,59.95203837,5cd1bdedf2156c00013b0152,64c47140896c8c63e34c6d2f,64c51601b812d460b0031672,right,1,0.75,0.3714,17,0.031818319,0.665,,,,,,94,0,94,0,1,,,,,
,,586954,001,2023-07-29_14h37.20.339,arm3_eps,2022.2.5,Win32,59.95203837,5cd1bdedf2156c00013b0152,64c47140896c8c63e34c6d2f,64c51601b812d460b0031672,down,1,0.75,0.3714,17,0,0.591,,,,,,95,0,95,0,1,,,,,
,,586954,001,2023-07-29_14h37.20.339,arm3_eps,2022.2.5,Win32,59.95203837,5cd1bdedf2156c00013b0152,64c47140896c8c63e34c6d2f,64c51601b812d460b0031672,right,1,0.75,0.3714,17,0.012478961,0.838,,,,,,96,0,96,0,1,,,,,
,,586954,001,2023-07-29_14h37.20.339,arm3_eps,2022.2.5,Win32,59.95203837,5cd1bdedf2156c00013b0152,64c47140896c8c63e34c6d2f,64c51601b812d460b0031672,right,1,0.75,0.3714,17,0.034990444,0.433,,,,,,97,0,97,0,1,,,,,
,,586954,001,2023-07-29_14h37.20.339,arm3_eps,2022.2.5,Win32,59.95203837,5cd1bdedf2156c00013b0152,64c47140896c8c63e34c6d2f,64c51601b812d460b0031672,up,-1,0.75,0.3714,18,0,0.465,,,,,,98,0,98,0,1,,,,,
,,586954,001,2023-07-29_14h37.20.339,arm3_eps,2022.2.5,Win32,59.95203837,5cd1bdedf2156c00013b0152,64c47140896c8c63e34c6d2f,64c51601b812d460b0031672,right,-1,0.75,0.3714,18,0.016126616,2.206,,,,,,99,0,99,0,1,,,,,
,,586954,001,2023-07-29_14h37.20.339,arm3_eps,2022.2.5,Win32,59.95203837,5cd1bdedf2156c00013b0152,64c47140896c8c63e34c6d2f,64c51601b812d460b0031672,right,-1,0.75,0.3714,18,0.001574529,0.373,,,,,,100,0,100,0,1,,,,,
,,586954,001,2023-07-29_14h37.20.339,arm3_eps,2022.2.5,Win32,59.95203837,5cd1bdedf2156c00013b0152,64c47140896c8c63e34c6d2f,64c51601b812d460b0031672,right,-1,0.75,0.3714,18,-0.018549548,0.7,,,,,,101,0,101,0,1,,,,,
,,586954,001,2023-07-29_14h37.20.339,arm3_eps,2022.2.5,Win32,59.95203837,5cd1bdedf2156c00013b0152,64c47140896c8c63e34c6d2f,64c51601b812d460b0031672,down,-1,0.75,0.3714,19,0,0.458,,,,,,102,0,102,0,1,,,,,
,,586954,001,2023-07-29_14h37.20.339,arm3_eps,2022.2.5,Win32,59.95203837,5cd1bdedf2156c00013b0152,64c47140896c8c63e34c6d2f,64c51601b812d460b0031672,right,-1,0.75,0.3714,19,0.005583252,0.801,,,,,,103,0,103,0,1,,,,,
,,586954,001,2023-07-29_14h37.20.339,arm3_eps,2022.2.5,Win32,59.95203837,5cd1bdedf2156c00013b0152,64c47140896c8c63e34c6d2f,64c51601b812d460b0031672,right,-1,0.75,0.3714,19,-0.010264771,0.433,,,,,,104,0,104,0,1,,,,,
,,586954,001,2023-07-29_14h37.20.339,arm3_eps,2022.2.5,Win32,59.95203837,5cd1bdedf2156c00013b0152,64c47140896c8c63e34c6d2f,64c51601b812d460b0031672,right,-1,0.75,0.3714,19,-0.031678564,0.471,,,,,,105,0,105,0,1,,,,,
,,586954,001,2023-07-29_14h37.20.339,arm3_eps,2022.2.5,Win32,59.95203837,5cd1bdedf2156c00013b0152,64c47140896c8c63e34c6d2f,64c51601b812d460b0031672,right,-1,0.75,0.3714,19,-0.015112633,0.6,,,,,,106,0,106,0,1,,,,,
,,586954,001,2023-07-29_14h37.20.339,arm3_eps,2022.2.5,Win32,59.95203837,5cd1bdedf2156c00013b0152,64c47140896c8c63e34c6d2f,64c51601b812d460b0031672,right,-1,0.75,0.3714,19,-0.016498772,0.54,,,,,,107,0,107,0,1,,,,,
,,586954,001,2023-07-29_14h37.20.339,arm3_eps,2022.2.5,Win32,59.95203837,5cd1bdedf2156c00013b0152,64c47140896c8c63e34c6d2f,64c51601b812d460b0031672,right,-1,0.75,0.3714,19,-0.014763006,0.519,,,,,,108,0,108,0,1,,,,,
,,586954,001,2023-07-29_14h37.20.339,arm3_eps,2022.2.5,Win32,59.95203837,5cd1bdedf2156c00013b0152,64c47140896c8c63e34c6d2f,64c51601b812d460b0031672,down,-1,0.75,0.3714,20,0,0.468,,,,,,109,0,109,0,1,,,,,
,,586954,001,2023-07-29_14h37.20.339,arm3_eps,2022.2.5,Win32,59.95203837,5cd1bdedf2156c00013b0152,64c47140896c8c63e34c6d2f,64c51601b812d460b0031672,right,-1,0.75,0.3714,20,-0.01096385,0.836,,,,,,110,0,110,0,1,,,,,
,,586954,001,2023-07-29_14h37.20.339,arm3_eps,2022.2.5,Win32,59.95203837,5cd1bdedf2156c00013b0152,64c47140896c8c63e34c6d2f,64c51601b812d460b0031672,right,-1,0.75,0.3714,20,-0.029226256,0.355,,,,,,111,0,111,0,1,,,,,
,,586954,001,2023-07-29_14h37.20.339,arm3_eps,2022.2.5,Win32,59.95203837,5cd1bdedf2156c00013b0152,64c47140896c8c63e34c6d2f,64c51601b812d460b0031672,right,-1,0.75,0.3714,20,-0.022790795,0.667,,,,,,112,0,112,0,1,,,,,
,,586954,001,2023-07-29_14h37.20.339,arm3_eps,2022.2.5,Win32,59.95203837,5cd1bdedf2156c00013b0152,64c47140896c8c63e34c6d2f,64c51601b812d460b0031672,right,-1,0.75,0.3714,20,-0.017763148,0.723,,,,,,113,0,113,0,1,,,,,
,,586954,001,2023-07-29_14h37.20.339,arm3_eps,2022.2.5,Win32,59.95203837,5cd1bdedf2156c00013b0152,64c47140896c8c63e34c6d2f,64c51601b812d460b0031672,down,1,0.75,0.3714,21,0,0.433,,,,,,114,0,114,0,1,,,,,
,,586954,001,2023-07-29_14h37.20.339,arm3_eps,2022.2.5,Win32,59.95203837,5cd1bdedf2156c00013b0152,64c47140896c8c63e34c6d2f,64c51601b812d460b0031672,right,1,0.75,0.3714,21,0.014260832,0.656,,,,,,115,0,115,0,1,,,,,
,,586954,001,2023-07-29_14h37.20.339,arm3_eps,2022.2.5,Win32,59.95203837,5cd1bdedf2156c00013b0152,64c47140896c8c63e34c6d2f,64c51601b812d460b0031672,up,1,0.75,0.3714,22,0,0.85,,,,,,116,0,116,0,1,,,,,
,,586954,001,2023-07-29_14h37.20.339,arm3_eps,2022.2.5,Win32,59.95203837,5cd1bdedf2156c00013b0152,64c47140896c8c63e34c6d2f,64c51601b812d460b0031672,right,1,0.75,0.3714,22,0.009548621,0.817,,,,,,117,0,117,0,1,,,,,
,,586954,001,2023-07-29_14h37.20.339,arm3_eps,2022.2.5,Win32,59.95203837,5cd1bdedf2156c00013b0152,64c47140896c8c63e34c6d2f,64c51601b812d460b0031672,right,1,0.75,0.3714,22,-0.017146602,0.838,,,,,,118,0,118,0,1,,,,,
,,586954,001,2023-07-29_14h37.20.339,arm3_eps,2022.2.5,Win32,59.95203837,5cd1bdedf2156c00013b0152,64c47140896c8c63e34c6d2f,64c51601b812d460b0031672,right,1,0.75,0.3714,22,-0.000341097,0.519,,,,,,119,0,119,0,1,,,,,
,,586954,001,2023-07-29_14h37.20.339,arm3_eps,2022.2.5,Win32,59.95203837,5cd1bdedf2156c00013b0152,64c47140896c8c63e34c6d2f,64c51601b812d460b0031672,right,1,0.75,0.3714,22,0.013163765,0.838,,,,,,120,0,120,0,1,,,,,
,,586954,001,2023-07-29_14h37.20.339,arm3_eps,2022.2.5,Win32,59.95203837,5cd1bdedf2156c00013b0152,64c47140896c8c63e34c6d2f,64c51601b812d460b0031672,up,1,0.75,0.3714,23,0,0.501,,,,,,121,0,121,0,1,,,,,
,,586954,001,2023-07-29_14h37.20.339,arm3_eps,2022.2.5,Win32,59.95203837,5cd1bdedf2156c00013b0152,64c47140896c8c63e34c6d2f,64c51601b812d460b0031672,right,1,0.75,0.3714,23,-0.02330584,0.803,,,,,,122,0,122,0,1,,,,,
,,586954,001,2023-07-29_14h37.20.339,arm3_eps,2022.2.5,Win32,59.95203837,5cd1bdedf2156c00013b0152,64c47140896c8c63e34c6d2f,64c51601b812d460b0031672,right,1,0.75,0.3714,23,-0.029061287,0.616,,,,,,123,0,123,0,1,,,,,
,,586954,001,2023-07-29_14h37.20.339,arm3_eps,2022.2.5,Win32,59.95203837,5cd1bdedf2156c00013b0152,64c47140896c8c63e34c6d2f,64c51601b812d460b0031672,right,1,0.75,0.3714,23,0.002816952,0.942,,,,,,124,0,124,0,1,,,,,
,,586954,001,2023-07-29_14h37.20.339,arm3_eps,2022.2.5,Win32,59.95203837,5cd1bdedf2156c00013b0152,64c47140896c8c63e34c6d2f,64c51601b812d460b0031672,right,1,0.75,0.3714,23,-0.00380466,0.667,,,,,,125,0,125,0,1,,,,,
,,586954,001,2023-07-29_14h37.20.339,arm3_eps,2022.2.5,Win32,59.95203837,5cd1bdedf2156c00013b0152,64c47140896c8c63e34c6d2f,64c51601b812d460b0031672,right,1,0.75,0.3714,23,-0.000745689,0.614,,,,,,126,0,126,0,1,,,,,
,,586954,001,2023-07-29_14h37.20.339,arm3_eps,2022.2.5,Win32,59.95203837,5cd1bdedf2156c00013b0152,64c47140896c8c63e34c6d2f,64c51601b812d460b0031672,right,1,0.75,0.3714,23,0.010514069,1.492,,,,,,127,0,127,0,1,,,,,
,,586954,001,2023-07-29_14h37.20.339,arm3_eps,2022.2.5,Win32,59.95203837,5cd1bdedf2156c00013b0152,64c47140896c8c63e34c6d2f,64c51601b812d460b0031672,up,1,0.75,0.3714,24,0,0.42,,,,,,128,0,128,0,1,,,,,
,,586954,001,2023-07-29_14h37.20.339,arm3_eps,2022.2.5,Win32,59.95203837,5cd1bdedf2156c00013b0152,64c47140896c8c63e34c6d2f,64c51601b812d460b0031672,right,1,0.75,0.3714,24,-0.034334616,0.902,,,,,,129,0,129,0,1,,,,,
,,586954,001,2023-07-29_14h37.20.339,arm3_eps,2022.2.5,Win32,59.95203837,5cd1bdedf2156c00013b0152,64c47140896c8c63e34c6d2f,64c51601b812d460b0031672,right,1,0.75,0.3714,24,-0.034039297,0.565,,,,,,130,0,130,0,1,,,,,
,,586954,001,2023-07-29_14h37.20.339,arm3_eps,2022.2.5,Win32,59.95203837,5cd1bdedf2156c00013b0152,64c47140896c8c63e34c6d2f,64c51601b812d460b0031672,right,1,0.75,0.3714,24,-0.015031121,0.63,,,,,,131,0,131,0,1,,,,,
,,586954,001,2023-07-29_14h37.20.339,arm3_eps,2022.2.5,Win32,59.95203837,5cd1bdedf2156c00013b0152,64c47140896c8c63e34c6d2f,64c51601b812d460b0031672,right,1,0.75,0.3714,24,-0.003952634,0.448,,,,,,132,0,132,0,1,,,,,
,,586954,001,2023-07-29_14h37.20.339,arm3_eps,2022.2.5,Win32,59.95203837,5cd1bdedf2156c00013b0152,64c47140896c8c63e34c6d2f,64c51601b812d460b0031672,right,1,0.75,0.3714,24,0.008311132,0.721,,,,,,133,0,133,0,1,,,,,
,,586954,001,2023-07-29_14h37.20.339,arm3_eps,2022.2.5,Win32,59.95203837,5cd1bdedf2156c00013b0152,64c47140896c8c63e34c6d2f,64c51601b812d460b0031672,down,-1,0.75,0.3714,23,0,0.684,,,,,,134,0,134,0,1,,,,,
,,586954,001,2023-07-29_14h37.20.339,arm3_eps,2022.2.5,Win32,59.95203837,5cd1bdedf2156c00013b0152,64c47140896c8c63e34c6d2f,64c51601b812d460b0031672,right,-1,0.75,0.3714,23,-0.006981695,0.919,,,,,,135,0,135,0,1,,,,,
,,586954,001,2023-07-29_14h37.20.339,arm3_eps,2022.2.5,Win32,59.95203837,5cd1bdedf2156c00013b0152,64c47140896c8c63e34c6d2f,64c51601b812d460b0031672,down,-1,0.75,0.3714,24,0,0.566,,,,,,136,0,136,0,1,,,,,
,,586954,001,2023-07-29_14h37.20.339,arm3_eps,2022.2.5,Win32,59.95203837,5cd1bdedf2156c00013b0152,64c47140896c8c63e34c6d2f,64c51601b812d460b0031672,right,-1,0.75,0.3714,24,0.008642045,0.921,,,,,,137,0,137,0,1,,,,,
,,586954,001,2023-07-29_14h37.20.339,arm3_eps,2022.2.5,Win32,59.95203837,5cd1bdedf2156c00013b0152,64c47140896c8c63e34c6d2f,64c51601b812d460b0031672,right,-1,0.75,0.3714,24,0.014451384,0.632,,,,,,138,0,138,0,1,,,,,
,,586954,001,2023-07-29_14h37.20.339,arm3_eps,2022.2.5,Win32,59.95203837,5cd1bdedf2156c00013b0152,64c47140896c8c63e34c6d2f,64c51601b812d460b0031672,down,-1,0.75,0.3714,25,0,0.635,,,,,,139,0,139,0,1,,,,,
,,586954,001,2023-07-29_14h37.20.339,arm3_eps,2022.2.5,Win32,59.95203837,5cd1bdedf2156c00013b0152,64c47140896c8c63e34c6d2f,64c51601b812d460b0031672,right,-1,0.75,0.3714,25,0.011934596,0.924,,,,,,140,0,140,0,1,,,,,
,,586954,001,2023-07-29_14h37.20.339,arm3_eps,2022.2.5,Win32,59.95203837,5cd1bdedf2156c00013b0152,64c47140896c8c63e34c6d2f,64c51601b812d460b0031672,right,-1,0.75,0.3714,25,0.00657744,0.401,,,,,,141,0,141,0,1,,,,,
,,586954,001,2023-07-29_14h37.20.339,arm3_eps,2022.2.5,Win32,59.95203837,5cd1bdedf2156c00013b0152,64c47140896c8c63e34c6d2f,64c51601b812d460b0031672,right,-1,0.75,0.3714,25,-0.00056858,2.369,,,,,,142,0,142,0,1,,,,,
,,586954,001,2023-07-29_14h37.20.339,arm3_eps,2022.2.5,Win32,59.95203837,5cd1bdedf2156c00013b0152,64c47140896c8c63e34c6d2f,64c51601b812d460b0031672,down,1,0.75,0.3714,26,0,0.721,,,,,,143,0,143,0,1,,,,,
,,586954,001,2023-07-29_14h37.20.339,arm3_eps,2022.2.5,Win32,59.95203837,5cd1bdedf2156c00013b0152,64c47140896c8c63e34c6d2f,64c51601b812d460b0031672,right,1,0.75,0.3714,26,0.029544433,0.801,,,,,,144,0,144,0,1,,,,,
,,586954,001,2023-07-29_14h37.20.339,arm3_eps,2022.2.5,Win32,59.95203837,5cd1bdedf2156c00013b0152,64c47140896c8c63e34c6d2f,64c51601b812d460b0031672,up,-1,0.75,0.3714,27,0,0.437,,,,,,145,0,145,0,1,,,,,
,,586954,001,2023-07-29_14h37.20.339,arm3_eps,2022.2.5,Win32,59.95203837,5cd1bdedf2156c00013b0152,64c47140896c8c63e34c6d2f,64c51601b812d460b0031672,right,-1,0.75,0.3714,27,-0.020674563,0.937,,,,,,146,0,146,0,1,,,,,
,,586954,001,2023-07-29_14h37.20.339,arm3_eps,2022.2.5,Win32,59.95203837,5cd1bdedf2156c00013b0152,64c47140896c8c63e34c6d2f,64c51601b812d460b0031672,down,-1,0.75,0.3714,27,0,0.353,,,,,,147,0,147,0,1,,,,,
,,586954,001,2023-07-29_14h37.20.339,arm3_eps,2022.2.5,Win32,59.95203837,5cd1bdedf2156c00013b0152,64c47140896c8c63e34c6d2f,64c51601b812d460b0031672,right,-1,0.75,0.3714,27,0.007095954,0.825,,,,,,148,0,148,0,1,,,,,
,,586954,001,2023-07-29_14h37.20.339,arm3_eps,2022.2.5,Win32,59.95203837,5cd1bdedf2156c00013b0152,64c47140896c8c63e34c6d2f,64c51601b812d460b0031672,down,-1,0.75,0.3714,28,0,0.503,,,,,,149,0,149,0,1,,,,,
,,586954,001,2023-07-29_14h37.20.339,arm3_eps,2022.2.5,Win32,59.95203837,5cd1bdedf2156c00013b0152,64c47140896c8c63e34c6d2f,64c51601b812d460b0031672,right,-1,0.75,0.3714,28,-0.023141892,0.904,,,,,,150,0,150,0,1,,,,,
,,586954,001,2023-07-29_14h37.20.339,arm3_eps,2022.2.5,Win32,59.95203837,5cd1bdedf2156c00013b0152,64c47140896c8c63e34c6d2f,64c51601b812d460b0031672,down,-1,0.75,0.3714,29,0,0.405,,,,,,151,0,151,0,1,,,,,
,,586954,001,2023-07-29_14h37.20.339,arm3_eps,2022.2.5,Win32,59.95203837,5cd1bdedf2156c00013b0152,64c47140896c8c63e34c6d2f,64c51601b812d460b0031672,right,-1,0.75,0.3714,29,-0.034392957,0.85,,,,,,152,0,152,0,1,,,,,
,,586954,001,2023-07-29_14h37.20.339,arm3_eps,2022.2.5,Win32,59.95203837,5cd1bdedf2156c00013b0152,64c47140896c8c63e34c6d2f,64c51601b812d460b0031672,down,1,0.75,0.3714,29,0,0.659,,,,,,153,0,153,0,1,,,,,
,,586954,001,2023-07-29_14h37.20.339,arm3_eps,2022.2.5,Win32,59.95203837,5cd1bdedf2156c00013b0152,64c47140896c8c63e34c6d2f,64c51601b812d460b0031672,right,1,0.75,0.3714,29,0.015468672,0.792,,,,,,154,0,154,0,1,,,,,
,,586954,001,2023-07-29_14h37.20.339,arm3_eps,2022.2.5,Win32,59.95203837,5cd1bdedf2156c00013b0152,64c47140896c8c63e34c6d2f,64c51601b812d460b0031672,up,-1,0.75,0.3714,30,0,0.454,,,,,,155,0,155,0,1,,,,,
,,586954,001,2023-07-29_14h37.20.339,arm3_eps,2022.2.5,Win32,59.95203837,5cd1bdedf2156c00013b0152,64c47140896c8c63e34c6d2f,64c51601b812d460b0031672,right,-1,0.75,0.3714,30,-0.030012345,0.801,,,,,,156,0,156,0,1,,,,,
,,586954,001,2023-07-29_14h37.20.339,arm3_eps,2022.2.5,Win32,59.95203837,5cd1bdedf2156c00013b0152,64c47140896c8c63e34c6d2f,64c51601b812d460b0031672,right,-1,0.75,0.3714,30,-0.020459454,0.557,,,,,,157,0,157,0,1,,,,,
,,586954,001,2023-07-29_14h37.20.339,arm3_eps,2022.2.5,Win32,59.95203837,5cd1bdedf2156c00013b0152,64c47140896c8c63e34c6d2f,64c51601b812d460b0031672,down,1,0.75,0.3714,31,0,0.401,,,,,,158,0,158,0,1,,,,,
,,586954,001,2023-07-29_14h37.20.339,arm3_eps,2022.2.5,Win32,59.95203837,5cd1bdedf2156c00013b0152,64c47140896c8c63e34c6d2f,64c51601b812d460b0031672,right,1,0.75,0.3714,31,-0.002884803,0.798,,,,,,159,0,159,0,1,,,,,
,,586954,001,2023-07-29_14h37.20.339,arm3_eps,2022.2.5,Win32,59.95203837,5cd1bdedf2156c00013b0152,64c47140896c8c63e34c6d2f,64c51601b812d460b0031672,up,1,0.75,0.3714,32,0,0.791,,,,,,160,0,160,0,1,,,,,
,,586954,001,2023-07-29_14h37.20.339,arm3_eps,2022.2.5,Win32,59.95203837,5cd1bdedf2156c00013b0152,64c47140896c8c63e34c6d2f,64c51601b812d460b0031672,right,1,0.75,0.3714,32,-0.011722094,0.737,,,,,,161,0,161,0,1,,,,,
,,586954,001,2023-07-29_14h37.20.339,arm3_eps,2022.2.5,Win32,59.95203837,5cd1bdedf2156c00013b0152,64c47140896c8c63e34c6d2f,64c51601b812d460b0031672,up,1,0.75,0.3714,32,0,1.214,,,,,,162,0,162,0,1,,,,,
,,586954,001,2023-07-29_14h37.20.339,arm3_eps,2022.2.5,Win32,59.95203837,5cd1bdedf2156c00013b0152,64c47140896c8c63e34c6d2f,64c51601b812d460b0031672,right,1,0.75,0.3714,32,0.003663793,0.684,,,,,,163,0,163,0,1,,,,,
,,586954,001,2023-07-29_14h37.20.339,arm3_eps,2022.2.5,Win32,59.95203837,5cd1bdedf2156c00013b0152,64c47140896c8c63e34c6d2f,64c51601b812d460b0031672,down,1,0.75,0.3714,31,0,0.489,,,,,,164,0,164,0,1,,,,,
,,586954,001,2023-07-29_14h37.20.339,arm3_eps,2022.2.5,Win32,59.95203837,5cd1bdedf2156c00013b0152,64c47140896c8c63e34c6d2f,64c51601b812d460b0031672,right,1,0.75,0.3714,31,-0.012427608,0.721,,,,,,165,0,165,0,1,,,,,
,,586954,001,2023-07-29_14h37.20.339,arm3_eps,2022.2.5,Win32,59.95203837,5cd1bdedf2156c00013b0152,64c47140896c8c63e34c6d2f,64c51601b812d460b0031672,right,1,0.75,0.3714,31,-0.004654792,0.625,,,,,,166,0,166,0,1,,,,,
,,586954,001,2023-07-29_14h37.20.339,arm3_eps,2022.2.5,Win32,59.95203837,5cd1bdedf2156c00013b0152,64c47140896c8c63e34c6d2f,64c51601b812d460b0031672,up,1,0.75,0.3714,32,0,0.533,,,,,,167,0,167,0,1,,,,,
,,586954,001,2023-07-29_14h37.20.339,arm3_eps,2022.2.5,Win32,59.95203837,5cd1bdedf2156c00013b0152,64c47140896c8c63e34c6d2f,64c51601b812d460b0031672,right,1,0.75,0.3714,32,-0.00102008,0.851,,,,,,168,0,168,0,1,,,,,
,,586954,001,2023-07-29_14h37.20.339,arm3_eps,2022.2.5,Win32,59.95203837,5cd1bdedf2156c00013b0152,64c47140896c8c63e34c6d2f,64c51601b812d460b0031672,down,1,0.75,0.3714,31,0,0.534,,,,,,169,0,169,0,1,,,,,
,,586954,001,2023-07-29_14h37.20.339,arm3_eps,2022.2.5,Win32,59.95203837,5cd1bdedf2156c00013b0152,64c47140896c8c63e34c6d2f,64c51601b812d460b0031672,right,1,0.75,0.3714,31,0.002340032,1.438,,,,,,170,0,170,0,1,,,,,
,,586954,001,2023-07-29_14h37.20.339,arm3_eps,2022.2.5,Win32,59.95203837,5cd1bdedf2156c00013b0152,64c47140896c8c63e34c6d2f,64c51601b812d460b0031672,right,1,0.75,0.3714,31,-0.000597832,0.334,,,,,,171,0,171,0,1,,,,,
,,586954,001,2023-07-29_14h37.20.339,arm3_eps,2022.2.5,Win32,59.95203837,5cd1bdedf2156c00013b0152,64c47140896c8c63e34c6d2f,64c51601b812d460b0031672,up,-1,0.75,0.3714,32,0,0.491,,,,,,172,0,172,0,1,,,,,
,,586954,001,2023-07-29_14h37.20.339,arm3_eps,2022.2.5,Win32,59.95203837,5cd1bdedf2156c00013b0152,64c47140896c8c63e34c6d2f,64c51601b812d460b0031672,right,-1,0.75,0.3714,32,-0.019496229,0.701,,,,,,173,0,173,0,1,,,,,
,,586954,001,2023-07-29_14h37.20.339,arm3_eps,2022.2.5,Win32,59.95203837,5cd1bdedf2156c00013b0152,64c47140896c8c63e34c6d2f,64c51601b812d460b0031672,down,-1,0.75,0.3714,33,0,0.467,,,,,,174,0,174,0,1,,,,,
,,586954,001,2023-07-29_14h37.20.339,arm3_eps,2022.2.5,Win32,59.95203837,5cd1bdedf2156c00013b0152,64c47140896c8c63e34c6d2f,64c51601b812d460b0031672,right,-1,0.75,0.3714,33,-0.010406901,0.614,,,,,,175,0,175,0,1,,,,,
,,586954,001,2023-07-29_14h37.20.339,arm3_eps,2022.2.5,Win32,59.95203837,5cd1bdedf2156c00013b0152,64c47140896c8c63e34c6d2f,64c51601b812d460b0031672,right,-1,0.75,0.3714,33,-0.007233955,0.386,,,,,,176,0,176,0,1,,,,,
,,586954,001,2023-07-29_14h37.20.339,arm3_eps,2022.2.5,Win32,59.95203837,5cd1bdedf2156c00013b0152,64c47140896c8c63e34c6d2f,64c51601b812d460b0031672,down,1,0.75,0.3714,34,0,0.468,,,,,,177,0,177,0,1,,,,,
,,586954,001,2023-07-29_14h37.20.339,arm3_eps,2022.2.5,Win32,59.95203837,5cd1bdedf2156c00013b0152,64c47140896c8c63e34c6d2f,64c51601b812d460b0031672,right,1,0.75,0.3714,34,0.024247479,0.621,,,,,,178,0,178,0,1,,,,,
,,586954,001,2023-07-29_14h37.20.339,arm3_eps,2022.2.5,Win32,59.95203837,5cd1bdedf2156c00013b0152,64c47140896c8c63e34c6d2f,64c51601b812d460b0031672,right,1,0.75,0.3714,34,0.00901176,0.287,,,,,,179,0,179,0,1,,,,,
,,586954,001,2023-07-29_14h37.20.339,arm3_eps,2022.2.5,Win32,59.95203837,5cd1bdedf2156c00013b0152,64c47140896c8c63e34c6d2f,64c51601b812d460b0031672,up,-1,0.75,0.3714,35,0,0.482,,,,,,180,0,180,0,1,,,,,
,,586954,001,2023-07-29_14h37.20.339,arm3_eps,2022.2.5,Win32,59.95203837,5cd1bdedf2156c00013b0152,64c47140896c8c63e34c6d2f,64c51601b812d460b0031672,right,-1,0.75,0.3714,35,-0.004289475,0.789,,,,,,181,0,181,0,1,,,,,
,,586954,001,2023-07-29_14h37.20.339,arm3_eps,2022.2.5,Win32,59.95203837,5cd1bdedf2156c00013b0152,64c47140896c8c63e34c6d2f,64c51601b812d460b0031672,right,-1,0.75,0.3714,35,-0.002634495,0.36,,,,,,182,0,182,0,1,,,,,
,,586954,001,2023-07-29_14h37.20.339,arm3_eps,2022.2.5,Win32,59.95203837,5cd1bdedf2156c00013b0152,64c47140896c8c63e34c6d2f,64c51601b812d460b0031672,right,-1,0.75,0.3714,35,-0.003242665,0.373,,,,,,183,0,183,0,1,,,,,
,,586954,001,2023-07-29_14h37.20.339,arm3_eps,2022.2.5,Win32,59.95203837,5cd1bdedf2156c00013b0152,64c47140896c8c63e34c6d2f,64c51601b812d460b0031672,down,1,0.75,0.3714,36,0,0.553,,,,,,184,0,184,0,1,,,,,
,,586954,001,2023-07-29_14h37.20.339,arm3_eps,2022.2.5,Win32,59.95203837,5cd1bdedf2156c00013b0152,64c47140896c8c63e34c6d2f,64c51601b812d460b0031672,right,1,0.75,0.3714,36,-5.9732E-05,7.823,,,,,,185,0,185,0,1,,,,,
,,586954,001,2023-07-29_14h37.20.339,arm3_eps,2022.2.5,Win32,59.95203837,5cd1bdedf2156c00013b0152,64c47140896c8c63e34c6d2f,64c51601b812d460b0031672,right,1,0.75,0.3714,36,-0.005675492,0.388,,,,,,186,0,186,0,1,,,,,
,,586954,001,2023-07-29_14h37.20.339,arm3_eps,2022.2.5,Win32,59.95203837,5cd1bdedf2156c00013b0152,64c47140896c8c63e34c6d2f,64c51601b812d460b0031672,up,1,0.75,0.3714,36,0,0.493,,,,,,187,0,187,0,1,,,,,
,,586954,001,2023-07-29_14h37.20.339,arm3_eps,2022.2.5,Win32,59.95203837,5cd1bdedf2156c00013b0152,64c47140896c8c63e34c6d2f,64c51601b812d460b0031672,right,1,0.75,0.3714,36,0.010762764,0.753,,,,,,188,0,188,0,1,,,,,
,,586954,001,2023-07-29_14h37.20.339,arm3_eps,2022.2.5,Win32,59.95203837,5cd1bdedf2156c00013b0152,64c47140896c8c63e34c6d2f,64c51601b812d460b0031672,right,1,0.75,0.3714,36,0.010444492,0.615,,,,,,189,0,189,0,1,,,,,
,,586954,001,2023-07-29_14h37.20.339,arm3_eps,2022.2.5,Win32,59.95203837,5cd1bdedf2156c00013b0152,64c47140896c8c63e34c6d2f,64c51601b812d460b0031672,up,-1,0.75,0.3714,37,0,0.432,,,,,,190,0,190,0,1,,,,,
,,586954,001,2023-07-29_14h37.20.339,arm3_eps,2022.2.5,Win32,59.95203837,5cd1bdedf2156c00013b0152,64c47140896c8c63e34c6d2f,64c51601b812d460b0031672,right,-1,0.75,0.3714,37,-0.038730975,0.716,,,,,,191,0,191,0,1,,,,,
,,586954,001,2023-07-29_14h37.20.339,arm3_eps,2022.2.5,Win32,59.95203837,5cd1bdedf2156c00013b0152,64c47140896c8c63e34c6d2f,64c51601b812d460b0031672,down,-1,0.75,0.3714,38,0,0.432,,,,,,192,0,192,0,1,,,,,
,,586954,001,2023-07-29_14h37.20.339,arm3_eps,2022.2.5,Win32,59.95203837,5cd1bdedf2156c00013b0152,64c47140896c8c63e34c6d2f,64c51601b812d460b0031672,right,-1,0.75,0.3714,38,0.007897727,0.89,,,,,,193,0,193,0,1,,,,,
,,586954,001,2023-07-29_14h37.20.339,arm3_eps,2022.2.5,Win32,59.95203837,5cd1bdedf2156c00013b0152,64c47140896c8c63e34c6d2f,64c51601b812d460b0031672,down,1,0.75,0.3714,38,0,0.533,,,,,,194,0,194,0,1,,,,,
,,586954,001,2023-07-29_14h37.20.339,arm3_eps,2022.2.5,Win32,59.95203837,5cd1bdedf2156c00013b0152,64c47140896c8c63e34c6d2f,64c51601b812d460b0031672,right,1,0.75,0.3714,38,0.001249091,0.634,,,,,,195,0,195,0,1,,,,,
,,586954,001,2023-07-29_14h37.20.339,arm3_eps,2022.2.5,Win32,59.95203837,5cd1bdedf2156c00013b0152,64c47140896c8c63e34c6d2f,64c51601b812d460b0031672,up,-1,0.75,0.3714,39,0,0.466,,,,,,196,0,196,0,1,,,,,
,,586954,001,2023-07-29_14h37.20.339,arm3_eps,2022.2.5,Win32,59.95203837,5cd1bdedf2156c00013b0152,64c47140896c8c63e34c6d2f,64c51601b812d460b0031672,right,-1,0.75,0.3714,39,0.000162463,0.652,,,,,,197,0,197,0,1,,,,,
,,586954,001,2023-07-29_14h37.20.339,arm3_eps,2022.2.5,Win32,59.95203837,5cd1bdedf2156c00013b0152,64c47140896c8c63e34c6d2f,64c51601b812d460b0031672,down,-1,0.75,0.3714,40,0,0.452,,,,,,198,0,198,0,1,,,,,
,,586954,001,2023-07-29_14h37.20.339,arm3_eps,2022.2.5,Win32,59.95203837,5cd1bdedf2156c00013b0152,64c47140896c8c63e34c6d2f,64c51601b812d460b0031672,right,-1,0.75,0.3714,40,-0.002206434,0.7,,,,,,199,0,199,0,1,,,,,
,,586954,001,2023-07-29_14h37.20.339,arm3_eps,2022.2.5,Win32,59.95203837,5cd1bdedf2156c00013b0152,64c47140896c8c63e34c6d2f,64c51601b812d460b0031672,up,1,0.75,0.3714,39,0,0.456,,,,,,200,0,200,0,1,,,,,
,,586954,001,2023-07-29_14h37.20.339,arm3_eps,2022.2.5,Win32,59.95203837,5cd1bdedf2156c00013b0152,64c47140896c8c63e34c6d2f,64c51601b812d460b0031672,right,1,0.75,0.3714,39,0.022321071,0.666,,,,,,201,0,201,0,1,,,,,
,,586954,001,2023-07-29_14h37.20.339,arm3_eps,2022.2.5,Win32,59.95203837,5cd1bdedf2156c00013b0152,64c47140896c8c63e34c6d2f,64c51601b812d460b0031672,up,1,0.75,0.3714,40,0,0.455,,,,,,202,0,202,0,1,,,,,
,,586954,001,2023-07-29_14h37.20.339,arm3_eps,2022.2.5,Win32,59.95203837,5cd1bdedf2156c00013b0152,64c47140896c8c63e34c6d2f,64c51601b812d460b0031672,right,1,0.75,0.3714,40,0.001237665,0.935,,,,,,203,0,203,0,1,,,,,
,,586954,001,2023-07-29_14h37.20.339,arm3_eps,2022.2.5,Win32,59.95203837,5cd1bdedf2156c00013b0152,64c47140896c8c63e34c6d2f,64c51601b812d460b0031672,up,1,0.75,0.3714,41,0,0.476,,,,,,204,0,204,0,1,,,,,
,,586954,001,2023-07-29_14h37.20.339,arm3_eps,2022.2.5,Win32,59.95203837,5cd1bdedf2156c00013b0152,64c47140896c8c63e34c6d2f,64c51601b812d460b0031672,right,1,0.75,0.3714,41,0.040420037,0.689,,,,,,205,0,205,0,1,,,,,
,,586954,001,2023-07-29_14h37.20.339,arm3_eps,2022.2.5,Win32,59.95203837,5cd1bdedf2156c00013b0152,64c47140896c8c63e34c6d2f,64c51601b812d460b0031672,right,1,0.75,0.3714,41,0.040073935,0.919,,,,,,206,0,206,0,1,,,,,
,,586954,001,2023-07-29_14h37.20.339,arm3_eps,2022.2.5,Win32,59.95203837,5cd1bdedf2156c00013b0152,64c47140896c8c63e34c6d2f,64c51601b812d460b0031672,right,1,0.75,0.3714,41,0.036463337,0.519,,,,,,207,0,207,0,1,,,,,
,,586954,001,2023-07-29_14h37.20.339,arm3_eps,2022.2.5,Win32,59.95203837,5cd1bdedf2156c00013b0152,64c47140896c8c63e34c6d2f,64c51601b812d460b0031672,up,1,0.75,0.3714,42,0,0.493,,,,,,208,0,208,0,1,,,,,
,,586954,001,2023-07-29_14h37.20.339,arm3_eps,2022.2.5,Win32,59.95203837,5cd1bdedf2156c00013b0152,64c47140896c8c63e34c6d2f,64c51601b812d460b0031672,right,1,0.75,0.3714,42,-0.011004287,0.771,,,,,,209,0,209,0,1,,,,,
,,586954,001,2023-07-29_14h37.20.339,arm3_eps,2022.2.5,Win32,59.95203837,5cd1bdedf2156c00013b0152,64c47140896c8c63e34c6d2f,64c51601b812d460b0031672,down,1,0.75,0.3714,41,0,0.76,,,,,,210,0,210,0,1,,,,,
,,586954,001,2023-07-29_14h37.20.339,arm3_eps,2022.2.5,Win32,59.95203837,5cd1bdedf2156c00013b0152,64c47140896c8c63e34c6d2f,64c51601b812d460b0031672,right,1,0.75,0.3714,41,0.032003233,1.182,,,,,,211,0,211,0,1,,,,,
,,586954,001,2023-07-29_14h37.20.339,arm3_eps,2022.2.5,Win32,59.95203837,5cd1bdedf2156c00013b0152,64c47140896c8c63e34c6d2f,64c51601b812d460b0031672,up,1,0.75,0.3714,41,0,0.602,,,,,,212,0,212,0,1,,,,,
,,586954,001,2023-07-29_14h37.20.339,arm3_eps,2022.2.5,Win32,59.95203837,5cd1bdedf2156c00013b0152,64c47140896c8c63e34c6d2f,64c51601b812d460b0031672,right,1,0.75,0.3714,41,-0.024521787,0.928,,,,,,213,0,213,0,1,,,,,
,,586954,001,2023-07-29_14h37.20.339,arm3_eps,2022.2.5,Win32,59.95203837,5cd1bdedf2156c00013b0152,64c47140896c8c63e34c6d2f,64c51601b812d460b0031672,up,1,0.75,0.3714,42,0,0.687,,,,,,214,0,214,0,1,,,,,
,,586954,001,2023-07-29_14h37.20.339,arm3_eps,2022.2.5,Win32,59.95203837,5cd1bdedf2156c00013b0152,64c47140896c8c63e34c6d2f,64c51601b812d460b0031672,right,1,0.75,0.3714,42,-0.006763609,0.952,,,,,,215,0,215,0,1,,,,,
,,586954,001,2023-07-29_14h37.20.339,arm3_eps,2022.2.5,Win32,59.95203837,5cd1bdedf2156c00013b0152,64c47140896c8c63e34c6d2f,64c51601b812d460b0031672,up,1,0.75,0.3714,43,0,0.466,,,,,,216,0,216,0,1,,,,,
,,586954,001,2023-07-29_14h37.20.339,arm3_eps,2022.2.5,Win32,59.95203837,5cd1bdedf2156c00013b0152,64c47140896c8c63e34c6d2f,64c51601b812d460b0031672,right,1,0.75,0.3714,43,-0.014473307,0.865,,,,,,217,0,217,0,1,,,,,
,,586954,001,2023-07-29_14h37.20.339,arm3_eps,2022.2.5,Win32,59.95203837,5cd1bdedf2156c00013b0152,64c47140896c8c63e34c6d2f,64c51601b812d460b0031672,down,1,0.75,0.3714,42,0,0.656,,,,,,218,0,218,0,1,,,,,
,,586954,001,2023-07-29_14h37.20.339,arm3_eps,2022.2.5,Win32,59.95203837,5cd1bdedf2156c00013b0152,64c47140896c8c63e34c6d2f,64c51601b812d460b0031672,right,1,0.75,0.3714,42,0.001756969,0.835,,,,,,219,0,219,0,1,,,,,
,,586954,001,2023-07-29_14h37.20.339,arm3_eps,2022.2.5,Win32,59.95203837,5cd1bdedf2156c00013b0152,64c47140896c8c63e34c6d2f,64c51601b812d460b0031672,right,1,0.75,0.3714,42,-0.005144321,0.502,,,,,,220,0,220,0,1,,,,,
,,586954,001,2023-07-29_14h37.20.339,arm3_eps,2022.2.5,Win32,59.95203837,5cd1bdedf2156c00013b0152,64c47140896c8c63e34c6d2f,64c51601b812d460b0031672,down,-1,0.75,0.3714,41,0,0.59,,,,,,221,0,221,0,1,,,,,
,,586954,001,2023-07-29_14h37.20.339,arm3_eps,2022.2.5,Win32,59.95203837,5cd1bdedf2156c00013b0152,64c47140896c8c63e34c6d2f,64c51601b812d460b0031672,right,-1,0.75,0.3714,41,-0.018227061,0.702,,,,,,222,0,222,0,1,,,,,
,,586954,001,2023-07-29_14h37.20.339,arm3_eps,2022.2.5,Win32,59.95203837,5cd1bdedf2156c00013b0152,64c47140896c8c63e34c6d2f,64c51601b812d460b0031672,up,-1,0.75,0.3714,40,0,0.428,,,,,,223,0,223,0,1,,,,,
,,586954,001,2023-07-29_14h37.20.339,arm3_eps,2022.2.5,Win32,59.95203837,5cd1bdedf2156c00013b0152,64c47140896c8c63e34c6d2f,64c51601b812d460b0031672,right,-1,0.75,0.3714,40,-1.13288E-05,0.852,,,,,,224,0,224,0,1,,,,,
,,586954,001,2023-07-29_14h37.20.339,arm3_eps,2022.2.5,Win32,59.95203837,5cd1bdedf2156c00013b0152,64c47140896c8c63e34c6d2f,64c51601b812d460b0031672,up,1,0.75,0.3714,40,0,0.634,,,,,,225,0,225,0,1,,,,,
,,586954,001,2023-07-29_14h37.20.339,arm3_eps,2022.2.5,Win32,59.95203837,5cd1bdedf2156c00013b0152,64c47140896c8c63e34c6d2f,64c51601b812d460b0031672,right,1,0.75,0.3714,40,-0.003719458,0.733,,,,,,226,0,226,0,1,,,,,
,,586954,001,2023-07-29_14h37.20.339,arm3_eps,2022.2.5,Win32,59.95203837,5cd1bdedf2156c00013b0152,64c47140896c8c63e34c6d2f,64c51601b812d460b0031672,up,1,0.75,0.3714,41,0,0.451,,,,,,227,0,227,0,1,,,,,
,,586954,001,2023-07-29_14h37.20.339,arm3_eps,2022.2.5,Win32,59.95203837,5cd1bdedf2156c00013b0152,64c47140896c8c63e34c6d2f,64c51601b812d460b0031672,right,1,0.75,0.3714,41,0.015669799,0.672,,,,,,228,0,228,0,1,,,,,
,,586954,001,2023-07-29_14h37.20.339,arm3_eps,2022.2.5,Win32,59.95203837,5cd1bdedf2156c00013b0152,64c47140896c8c63e34c6d2f,64c51601b812d460b0031672,up,1,0.75,0.3714,42,0,0.447,,,,,,229,0,229,0,1,,,,,
,,586954,001,2023-07-29_14h37.20.339,arm3_eps,2022.2.5,Win32,59.95203837,5cd1bdedf2156c00013b0152,64c47140896c8c63e34c6d2f,64c51601b812d460b0031672,right,1,0.75,0.3714,42,0.024071243,0.643,,,,,,230,0,230,0,1,,,,,
,,586954,001,2023-07-29_14h37.20.339,arm3_eps,2022.2.5,Win32,59.95203837,5cd1bdedf2156c00013b0152,64c47140896c8c63e34c6d2f,64c51601b812d460b0031672,up,-1,0.75,0.3714,43,0,0.425,,,,,,231,0,231,0,1,,,,,
,,586954,001,2023-07-29_14h37.20.339,arm3_eps,2022.2.5,Win32,59.95203837,5cd1bdedf2156c00013b0152,64c47140896c8c63e34c6d2f,64c51601b812d460b0031672,right,-1,0.75,0.3714,43,0.003150181,0.934,,,,,,232,0,232,0,1,,,,,
,,586954,001,2023-07-29_14h37.20.339,arm3_eps,2022.2.5,Win32,59.95203837,5cd1bdedf2156c00013b0152,64c47140896c8c63e34c6d2f,64c51601b812d460b0031672,up,1,0.75,0.3714,42,0,0.459,,,,,,233,0,233,0,1,,,,,
,,586954,001,2023-07-29_14h37.20.339,arm3_eps,2022.2.5,Win32,59.95203837,5cd1bdedf2156c00013b0152,64c47140896c8c63e34c6d2f,64c51601b812d460b0031672,right,1,0.75,0.3714,42,0.017697087,0.719,,,,,,234,0,234,0,1,,,,,
,,586954,001,2023-07-29_14h37.20.339,arm3_eps,2022.2.5,Win32,59.95203837,5cd1bdedf2156c00013b0152,64c47140896c8c63e34c6d2f,64c51601b812d460b0031672,up,1,0.75,0.3714,43,0,0.41,,,,,,235,0,235,0,1,,,,,
,,586954,001,2023-07-29_14h37.20.339,arm3_eps,2022.2.5,Win32,59.95203837,5cd1bdedf2156c00013b0152,64c47140896c8c63e34c6d2f,64c51601b812d460b0031672,right,1,0.75,0.3714,43,0.006897653,0.944,,,,,,236,0,236,0,1,,,,,
,,586954,001,2023-07-29_14h37.20.339,arm3_eps,2022.2.5,Win32,59.95203837,5cd1bdedf2156c00013b0152,64c47140896c8c63e34c6d2f,64c51601b812d460b0031672,up,-1,0.75,0.3714,44,0,0.937,,,,,,237,0,237,0,1,,,,,
,,586954,001,2023-07-29_14h37.20.339,arm3_eps,2022.2.5,Win32,59.95203837,5cd1bdedf2156c00013b0152,64c47140896c8c63e34c6d2f,64c51601b812d460b0031672,right,-1,0.75,0.3714,44,-0.014024225,0.816,,,,,,238,0,238,0,1,,,,,
,,586954,001,2023-07-29_14h37.20.339,arm3_eps,2022.2.5,Win32,59.95203837,5cd1bdedf2156c00013b0152,64c47140896c8c63e34c6d2f,64c51601b812d460b0031672,down,-1,0.75,0.3714,45,0,0.386,,,,,,239,0,239,0,1,,,,,
,,586954,001,2023-07-29_14h37.20.339,arm3_eps,2022.2.5,Win32,59.95203837,5cd1bdedf2156c00013b0152,64c47140896c8c63e34c6d2f,64c51601b812d460b0031672,right,-1,0.75,0.3714,45,-0.020564774,0.934,,,,,,240,0,240,0,1,,,,,
,,586954,001,2023-07-29_14h37.20.339,arm3_eps,2022.2.5,Win32,59.95203837,5cd1bdedf2156c00013b0152,64c47140896c8c63e34c6d2f,64c51601b812d460b0031672,down,-1,0.75,0.3714,46,0,0.223,,,,,,241,0,241,0,1,,,,,
,,586954,001,2023-07-29_14h37.20.339,arm3_eps,2022.2.5,Win32,59.95203837,5cd1bdedf2156c00013b0152,64c47140896c8c63e34c6d2f,64c51601b812d460b0031672,right,-1,0.75,0.3714,46,-0.027114024,0.89,,,,,,242,0,242,0,1,,,,,
,,586954,001,2023-07-29_14h37.20.339,arm3_eps,2022.2.5,Win32,59.95203837,5cd1bdedf2156c00013b0152,64c47140896c8c63e34c6d2f,64c51601b812d460b0031672,up,-1,0.75,0.3714,46,0,0.637,,,,,,243,0,243,0,1,,,,,
,,586954,001,2023-07-29_14h37.20.339,arm3_eps,2022.2.5,Win32,59.95203837,5cd1bdedf2156c00013b0152,64c47140896c8c63e34c6d2f,64c51601b812d460b0031672,down,1,0.75,0.3714,47,0,1.08,,,,,,244,0,244,0,1,,,,,
,,586954,001,2023-07-29_14h37.20.339,arm3_eps,2022.2.5,Win32,59.95203837,5cd1bdedf2156c00013b0152,64c47140896c8c63e34c6d2f,64c51601b812d460b0031672,right,1,0.75,0.3714,47,0.002055394,1.392,,,,,,245,0,245,0,1,,,,,
,,586954,001,2023-07-29_14h37.20.339,arm3_eps,2022.2.5,Win32,59.95203837,5cd1bdedf2156c00013b0152,64c47140896c8c63e34c6d2f,64c51601b812d460b0031672,right,1,0.75,0.3714,47,0.001443541,0.518,,,,,,246,0,246,0,1,,,,,
,,586954,001,2023-07-29_14h37.20.339,arm3_eps,2022.2.5,Win32,59.95203837,5cd1bdedf2156c00013b0152,64c47140896c8c63e34c6d2f,64c51601b812d460b0031672,up,-1,0.75,0.3714,48,0,0.479,,,,,,247,0,247,0,1,,,,,
,,586954,001,2023-07-29_14h37.20.339,arm3_eps,2022.2.5,Win32,59.95203837,5cd1bdedf2156c00013b0152,64c47140896c8c63e34c6d2f,64c51601b812d460b0031672,down,-1,0.75,0.3714,49,0,1.043,,,,,,248,0,248,0,1,,,,,
,,586954,001,2023-07-29_14h37.20.339,arm3_eps,2022.2.5,Win32,59.95203837,5cd1bdedf2156c00013b0152,64c47140896c8c63e34c6d2f,64c51601b812d460b0031672,down,1,0.75,0.3714,49,0,1.02,,,,,,249,0,249,0,1,,,,,
,,586954,001,2023-07-29_14h37.20.339,arm3_eps,2022.2.5,Win32,59.95203837,5cd1bdedf2156c00013b0152,64c47140896c8c63e34c6d2f,64c51601b812d460b0031672,down,1,0.75,0.3714,48,0,1.361,,,,,,250,0,250,0,1,,,,,
,,586954,001,2023-07-29_14h37.20.339,arm3_eps,2022.2.5,Win32,59.95203837,5cd1bdedf2156c00013b0152,64c47140896c8c63e34c6d2f,64c51601b812d460b0031672,up,1,0.75,0.3714,49,0,1.236,,,,,,251,0,251,0,1,,,,,
,,586954,001,2023-07-29_14h37.20.339,arm3_eps,2022.2.5,Win32,59.95203837,5cd1bdedf2156c00013b0152,64c47140896c8c63e34c6d2f,64c51601b812d460b0031672,up,-1,0.75,0.3714,50,0,1.02,,,,,,252,0,252,0,1,,,,,
,,586954,001,2023-07-29_14h37.20.339,arm3_eps,2022.2.5,Win32,59.95203837,5cd1bdedf2156c00013b0152,64c47140896c8c63e34c6d2f,64c51601b812d460b0031672,right,-1,0.75,0.3714,50,-0.003014376,1.294,,,,,,253,0,253,0,1,,,,,
,,586954,001,2023-07-29_14h37.20.339,arm3_eps,2022.2.5,Win32,59.95203837,5cd1bdedf2156c00013b0152,64c47140896c8c63e34c6d2f,64c51601b812d460b0031672,down,-1,0.75,0.3714,50,0,0.505,,,,,,254,0,254,0,1,,,,,
,,586954,001,2023-07-29_14h37.20.339,arm3_eps,2022.2.5,Win32,59.95203837,5cd1bdedf2156c00013b0152,64c47140896c8c63e34c6d2f,64c51601b812d460b0031672,right,-1,0.75,0.3714,50,0.0030121,1.367,,,,,,255,0,255,0,1,,,,,
,,586954,001,2023-07-29_14h37.20.339,arm3_eps,2022.2.5,Win32,59.95203837,5cd1bdedf2156c00013b0152,64c47140896c8c63e34c6d2f,64c51601b812d460b0031672,down,-1,0.75,0.3714,51,0,0.457,,,,,,256,0,256,0,1,,,,,
,,586954,001,2023-07-29_14h37.20.339,arm3_eps,2022.2.5,Win32,59.95203837,5cd1bdedf2156c00013b0152,64c47140896c8c63e34c6d2f,64c51601b812d460b0031672,down,-1,0.75,0.3714,52,0,0.987,,,,,,257,0,257,0,1,,,,,
,,586954,001,2023-07-29_14h37.20.339,arm3_eps,2022.2.5,Win32,59.95203837,5cd1bdedf2156c00013b0152,64c47140896c8c63e34c6d2f,64c51601b812d460b0031672,right,-1,0.75,0.3714,52,-0.002538602,1.336,,,,,,258,0,258,0,1,,,,,
,,586954,001,2023-07-29_14h37.20.339,arm3_eps,2022.2.5,Win32,59.95203837,5cd1bdedf2156c00013b0152,64c47140896c8c63e34c6d2f,64c51601b812d460b0031672,down,1,0.75,0.3714,53,0,0.401,,,,,,259,0,259,0,1,,,,,
,,586954,001,2023-07-29_14h37.20.339,arm3_eps,2022.2.5,Win32,59.95203837,5cd1bdedf2156c00013b0152,64c47140896c8c63e34c6d2f,64c51601b812d460b0031672,up,1,0.75,0.3714,54,0,1.068,,,,,,260,0,260,0,1,,,,,
,,586954,001,2023-07-29_14h37.20.339,arm3_eps,2022.2.5,Win32,59.95203837,5cd1bdedf2156c00013b0152,64c47140896c8c63e34c6d2f,64c51601b812d460b0031672,down,1,0.75,0.3714,54,0,1.001,,,,,,261,0,261,0,1,,,,,
