space_bar.keys,space_bar.rt,participant,session,date,expName,psychopyVersion,OS,frameRate,PROLIFIC_PID,STUDY_ID,SESSION_ID,resp.keys,state,q_prob,eps_prob,score,price,resp.rt,train.thisRepN,train.thisTrialN,train.thisN,train.thisIndex,train.ran,steps.thisRepN,steps.thisTrialN,steps.thisN,steps.thisIndex,steps.ran,blocks.thisRepN,blocks.thisTrialN,blocks.thisN,blocks.thisIndex,blocks.ran
space,25.1458,5caf451e7692490017d22482,001,2023-07-31_20h45.16.491,arm3_eps,2022.2.5,Win32,143.6781609,5caf451e7692490017d22482,64c7fed44a04f777bb1e18ce,64c800cd7c180ee2d8649134,,,,,,,,,,,,,,,,,,,,,,
space,4.5201,5caf451e7692490017d22482,001,2023-07-31_20h45.16.491,arm3_eps,2022.2.5,Win32,143.6781609,5caf451e7692490017d22482,64c7fed44a04f777bb1e18ce,64c800cd7c180ee2d8649134,,,,,,,,,,,,,,,,,,,,,,
space,21.6108,5caf451e7692490017d22482,001,2023-07-31_20h45.16.491,arm3_eps,2022.2.5,Win32,143.6781609,5caf451e7692490017d22482,64c7fed44a04f777bb1e18ce,64c800cd7c180ee2d8649134,,,,,,,,,,,,,,,,,,,,,,
space,26.5953,5caf451e7692490017d22482,001,2023-07-31_20h45.16.491,arm3_eps,2022.2.5,Win32,143.6781609,5caf451e7692490017d22482,64c7fed44a04f777bb1e18ce,64c800cd7c180ee2d8649134,,,,,,,,,,,,,,,,,,,,,,
space,16.9814,5caf451e7692490017d22482,001,2023-07-31_20h45.16.491,arm3_eps,2022.2.5,Win32,143.6781609,5caf451e7692490017d22482,64c7fed44a04f777bb1e18ce,64c800cd7c180ee2d8649134,,,,,,,,,,,,,,,,,,,,,,
space,3.2339,5caf451e7692490017d22482,001,2023-07-31_20h45.16.491,arm3_eps,2022.2.5,Win32,143.6781609,5caf451e7692490017d22482,64c7fed44a04f777bb1e18ce,64c800cd7c180ee2d8649134,,,,,,,,,,,,,,,,,,,,,,
space,2.1867,5caf451e7692490017d22482,001,2023-07-31_20h45.16.491,arm3_eps,2022.2.5,Win32,143.6781609,5caf451e7692490017d22482,64c7fed44a04f777bb1e18ce,64c800cd7c180ee2d8649134,,,,,,,,,,,,,,,,,,,,,,
,,5caf451e7692490017d22482,001,2023-07-31_20h45.16.491,arm3_eps,2022.2.5,Win32,143.6781609,5caf451e7692490017d22482,64c7fed44a04f777bb1e18ce,64c800cd7c180ee2d8649134,right,-1,1,0.2429,0,-0.018116096,2.3541,0,0,0,0,1,,,,,,,,,,
,,5caf451e7692490017d22482,001,2023-07-31_20h45.16.491,arm3_eps,2022.2.5,Win32,143.6781609,5caf451e7692490017d22482,64c7fed44a04f777bb1e18ce,64c800cd7c180ee2d8649134,right,-1,1,0.2429,0,-0.026317832,1.4444,1,0,1,0,1,,,,,,,,,,
,,5caf451e7692490017d22482,001,2023-07-31_20h45.16.491,arm3_eps,2022.2.5,Win32,143.6781609,5caf451e7692490017d22482,64c7fed44a04f777bb1e18ce,64c800cd7c180ee2d8649134,right,-1,1,0.2429,0,-0.069005639,1.2994,2,0,2,0,1,,,,,,,,,,
,,5caf451e7692490017d22482,001,2023-07-31_20h45.16.491,arm3_eps,2022.2.5,Win32,143.6781609,5caf451e7692490017d22482,64c7fed44a04f777bb1e18ce,64c800cd7c180ee2d8649134,right,-1,1,0.2429,0,-0.097415427,1.2057,3,0,3,0,1,,,,,,,,,,
,,5caf451e7692490017d22482,001,2023-07-31_20h45.16.491,arm3_eps,2022.2.5,Win32,143.6781609,5caf451e7692490017d22482,64c7fed44a04f777bb1e18ce,64c800cd7c180ee2d8649134,right,-1,1,0.2429,0,-0.077212102,1.4595,4,0,4,0,1,,,,,,,,,,
,,5caf451e7692490017d22482,001,2023-07-31_20h45.16.491,arm3_eps,2022.2.5,Win32,143.6781609,5caf451e7692490017d22482,64c7fed44a04f777bb1e18ce,64c800cd7c180ee2d8649134,right,-1,1,0.2429,0,-0.091707205,1.1397,5,0,5,0,1,,,,,,,,,,
,,5caf451e7692490017d22482,001,2023-07-31_20h45.16.491,arm3_eps,2022.2.5,Win32,143.6781609,5caf451e7692490017d22482,64c7fed44a04f777bb1e18ce,64c800cd7c180ee2d8649134,right,-1,1,0.2429,0,-0.127857492,0.6233,6,0,6,0,1,,,,,,,,,,
,,5caf451e7692490017d22482,001,2023-07-31_20h45.16.491,arm3_eps,2022.2.5,Win32,143.6781609,5caf451e7692490017d22482,64c7fed44a04f777bb1e18ce,64c800cd7c180ee2d8649134,down,1,1,0.2429,1,0,2.3456,7,0,7,0,1,,,,,,,,,,
,,5caf451e7692490017d22482,001,2023-07-31_20h45.16.491,arm3_eps,2022.2.5,Win32,143.6781609,5caf451e7692490017d22482,64c7fed44a04f777bb1e18ce,64c800cd7c180ee2d8649134,right,1,1,0.2429,1,0.022429289,2.5977,8,0,8,0,1,,,,,,,,,,
,,5caf451e7692490017d22482,001,2023-07-31_20h45.16.491,arm3_eps,2022.2.5,Win32,143.6781609,5caf451e7692490017d22482,64c7fed44a04f777bb1e18ce,64c800cd7c180ee2d8649134,right,1,1,0.2429,1,0.039168261,0.529,9,0,9,0,1,,,,,,,,,,
,,5caf451e7692490017d22482,001,2023-07-31_20h45.16.491,arm3_eps,2022.2.5,Win32,143.6781609,5caf451e7692490017d22482,64c7fed44a04f777bb1e18ce,64c800cd7c180ee2d8649134,up,-1,1,0.2429,2,0,1.2364,10,0,10,0,1,,,,,,,,,,
,,5caf451e7692490017d22482,001,2023-07-31_20h45.16.491,arm3_eps,2022.2.5,Win32,143.6781609,5caf451e7692490017d22482,64c7fed44a04f777bb1e18ce,64c800cd7c180ee2d8649134,right,-1,1,0.2429,2,0.001185605,1.3917,11,0,11,0,1,,,,,,,,,,
,,5caf451e7692490017d22482,001,2023-07-31_20h45.16.491,arm3_eps,2022.2.5,Win32,143.6781609,5caf451e7692490017d22482,64c7fed44a04f777bb1e18ce,64c800cd7c180ee2d8649134,right,-1,1,0.2429,2,0.007007022,0.792,12,0,12,0,1,,,,,,,,,,
,,5caf451e7692490017d22482,001,2023-07-31_20h45.16.491,arm3_eps,2022.2.5,Win32,143.6781609,5caf451e7692490017d22482,64c7fed44a04f777bb1e18ce,64c800cd7c180ee2d8649134,right,-1,1,0.2429,2,-0.007281469,0.5612,13,0,13,0,1,,,,,,,,,,
,,5caf451e7692490017d22482,001,2023-07-31_20h45.16.491,arm3_eps,2022.2.5,Win32,143.6781609,5caf451e7692490017d22482,64c7fed44a04f777bb1e18ce,64c800cd7c180ee2d8649134,right,-1,1,0.2429,2,-0.010112996,0.535,14,0,14,0,1,,,,,,,,,,
,,5caf451e7692490017d22482,001,2023-07-31_20h45.16.491,arm3_eps,2022.2.5,Win32,143.6781609,5caf451e7692490017d22482,64c7fed44a04f777bb1e18ce,64c800cd7c180ee2d8649134,right,-1,1,0.2429,2,-0.009554836,0.5278,15,0,15,0,1,,,,,,,,,,
,,5caf451e7692490017d22482,001,2023-07-31_20h45.16.491,arm3_eps,2022.2.5,Win32,143.6781609,5caf451e7692490017d22482,64c7fed44a04f777bb1e18ce,64c800cd7c180ee2d8649134,right,-1,1,0.2429,2,-0.022293774,0.4815,16,0,16,0,1,,,,,,,,,,
,,5caf451e7692490017d22482,001,2023-07-31_20h45.16.491,arm3_eps,2022.2.5,Win32,143.6781609,5caf451e7692490017d22482,64c7fed44a04f777bb1e18ce,64c800cd7c180ee2d8649134,right,-1,1,0.2429,2,-0.025081928,0.436,17,0,17,0,1,,,,,,,,,,
,,5caf451e7692490017d22482,001,2023-07-31_20h45.16.491,arm3_eps,2022.2.5,Win32,143.6781609,5caf451e7692490017d22482,64c7fed44a04f777bb1e18ce,64c800cd7c180ee2d8649134,right,-1,1,0.2429,2,-0.016318957,0.5054,18,0,18,0,1,,,,,,,,,,
,,5caf451e7692490017d22482,001,2023-07-31_20h45.16.491,arm3_eps,2022.2.5,Win32,143.6781609,5caf451e7692490017d22482,64c7fed44a04f777bb1e18ce,64c800cd7c180ee2d8649134,right,-1,1,0.2429,2,-0.050685859,0.4076,19,0,19,0,1,,,,,,,,,,
,,5caf451e7692490017d22482,001,2023-07-31_20h45.16.491,arm3_eps,2022.2.5,Win32,143.6781609,5caf451e7692490017d22482,64c7fed44a04f777bb1e18ce,64c800cd7c180ee2d8649134,down,1,1,0.2429,3,0,0.623,20,0,20,0,1,,,,,,,,,,
,,5caf451e7692490017d22482,001,2023-07-31_20h45.16.491,arm3_eps,2022.2.5,Win32,143.6781609,5caf451e7692490017d22482,64c7fed44a04f777bb1e18ce,64c800cd7c180ee2d8649134,right,1,1,0.2429,3,0.031733394,1.9074,21,0,21,0,1,,,,,,,,,,
,,5caf451e7692490017d22482,001,2023-07-31_20h45.16.491,arm3_eps,2022.2.5,Win32,143.6781609,5caf451e7692490017d22482,64c7fed44a04f777bb1e18ce,64c800cd7c180ee2d8649134,up,1,1,0.2429,4,0,1.0331,22,0,22,0,1,,,,,,,,,,
,,5caf451e7692490017d22482,001,2023-07-31_20h45.16.491,arm3_eps,2022.2.5,Win32,143.6781609,5caf451e7692490017d22482,64c7fed44a04f777bb1e18ce,64c800cd7c180ee2d8649134,right,1,1,0.2429,4,0.018507504,1.174,23,0,23,0,1,,,,,,,,,,
,,5caf451e7692490017d22482,001,2023-07-31_20h45.16.491,arm3_eps,2022.2.5,Win32,143.6781609,5caf451e7692490017d22482,64c7fed44a04f777bb1e18ce,64c800cd7c180ee2d8649134,up,1,1,0.2429,5,0,0.4724,24,0,24,0,1,,,,,,,,,,
,,5caf451e7692490017d22482,001,2023-07-31_20h45.16.491,arm3_eps,2022.2.5,Win32,143.6781609,5caf451e7692490017d22482,64c7fed44a04f777bb1e18ce,64c800cd7c180ee2d8649134,right,1,1,0.2429,5,-0.008105185,1.4339,25,0,25,0,1,,,,,,,,,,
,,5caf451e7692490017d22482,001,2023-07-31_20h45.16.491,arm3_eps,2022.2.5,Win32,143.6781609,5caf451e7692490017d22482,64c7fed44a04f777bb1e18ce,64c800cd7c180ee2d8649134,down,1,1,0.2429,4,0,1.6538,26,0,26,0,1,,,,,,,,,,
,,5caf451e7692490017d22482,001,2023-07-31_20h45.16.491,arm3_eps,2022.2.5,Win32,143.6781609,5caf451e7692490017d22482,64c7fed44a04f777bb1e18ce,64c800cd7c180ee2d8649134,right,1,1,0.2429,4,-0.002317898,1.7017,27,0,27,0,1,,,,,,,,,,
,,5caf451e7692490017d22482,001,2023-07-31_20h45.16.491,arm3_eps,2022.2.5,Win32,143.6781609,5caf451e7692490017d22482,64c7fed44a04f777bb1e18ce,64c800cd7c180ee2d8649134,right,1,1,0.2429,4,-0.006071531,0.6946,28,0,28,0,1,,,,,,,,,,
,,5caf451e7692490017d22482,001,2023-07-31_20h45.16.491,arm3_eps,2022.2.5,Win32,143.6781609,5caf451e7692490017d22482,64c7fed44a04f777bb1e18ce,64c800cd7c180ee2d8649134,right,1,1,0.2429,4,-0.025283008,0.6058,29,0,29,0,1,,,,,,,,,,
,,5caf451e7692490017d22482,001,2023-07-31_20h45.16.491,arm3_eps,2022.2.5,Win32,143.6781609,5caf451e7692490017d22482,64c7fed44a04f777bb1e18ce,64c800cd7c180ee2d8649134,right,1,1,0.2429,4,-0.022547445,0.534,30,0,30,0,1,,,,,,,,,,
,,5caf451e7692490017d22482,001,2023-07-31_20h45.16.491,arm3_eps,2022.2.5,Win32,143.6781609,5caf451e7692490017d22482,64c7fed44a04f777bb1e18ce,64c800cd7c180ee2d8649134,right,1,1,0.2429,4,-0.023574485,0.3407,31,0,31,0,1,,,,,,,,,,
,,5caf451e7692490017d22482,001,2023-07-31_20h45.16.491,arm3_eps,2022.2.5,Win32,143.6781609,5caf451e7692490017d22482,64c7fed44a04f777bb1e18ce,64c800cd7c180ee2d8649134,right,1,1,0.2429,4,-0.025791055,0.3337,32,0,32,0,1,,,,,,,,,,
,,5caf451e7692490017d22482,001,2023-07-31_20h45.16.491,arm3_eps,2022.2.5,Win32,143.6781609,5caf451e7692490017d22482,64c7fed44a04f777bb1e18ce,64c800cd7c180ee2d8649134,right,1,1,0.2429,4,-0.016600568,0.7676,33,0,33,0,1,,,,,,,,,,
,,5caf451e7692490017d22482,001,2023-07-31_20h45.16.491,arm3_eps,2022.2.5,Win32,143.6781609,5caf451e7692490017d22482,64c7fed44a04f777bb1e18ce,64c800cd7c180ee2d8649134,right,1,1,0.2429,4,-0.036314001,0.4175,34,0,34,0,1,,,,,,,,,,
,,5caf451e7692490017d22482,001,2023-07-31_20h45.16.491,arm3_eps,2022.2.5,Win32,143.6781609,5caf451e7692490017d22482,64c7fed44a04f777bb1e18ce,64c800cd7c180ee2d8649134,down,1,1,0.2429,3,0,0.629,35,0,35,0,1,,,,,,,,,,
,,5caf451e7692490017d22482,001,2023-07-31_20h45.16.491,arm3_eps,2022.2.5,Win32,143.6781609,5caf451e7692490017d22482,64c7fed44a04f777bb1e18ce,64c800cd7c180ee2d8649134,right,1,1,0.2429,3,0.009095646,0.9201,36,0,36,0,1,,,,,,,,,,
,,5caf451e7692490017d22482,001,2023-07-31_20h45.16.491,arm3_eps,2022.2.5,Win32,143.6781609,5caf451e7692490017d22482,64c7fed44a04f777bb1e18ce,64c800cd7c180ee2d8649134,right,1,1,0.2429,3,0.017492288,0.3683,37,0,37,0,1,,,,,,,,,,
,,5caf451e7692490017d22482,001,2023-07-31_20h45.16.491,arm3_eps,2022.2.5,Win32,143.6781609,5caf451e7692490017d22482,64c7fed44a04f777bb1e18ce,64c800cd7c180ee2d8649134,right,1,1,0.2429,3,0.014154018,0.5542,38,0,38,0,1,,,,,,,,,,
,,5caf451e7692490017d22482,001,2023-07-31_20h45.16.491,arm3_eps,2022.2.5,Win32,143.6781609,5caf451e7692490017d22482,64c7fed44a04f777bb1e18ce,64c800cd7c180ee2d8649134,right,1,1,0.2429,3,0.038831271,0.2976,39,0,39,0,1,,,,,,,,,,
,,5caf451e7692490017d22482,001,2023-07-31_20h45.16.491,arm3_eps,2022.2.5,Win32,143.6781609,5caf451e7692490017d22482,64c7fed44a04f777bb1e18ce,64c800cd7c180ee2d8649134,right,1,1,0.2429,3,0.037389104,0.367,40,0,40,0,1,,,,,,,,,,
,,5caf451e7692490017d22482,001,2023-07-31_20h45.16.491,arm3_eps,2022.2.5,Win32,143.6781609,5caf451e7692490017d22482,64c7fed44a04f777bb1e18ce,64c800cd7c180ee2d8649134,right,1,1,0.2429,3,0.031476096,0.3407,41,0,41,0,1,,,,,,,,,,
,,5caf451e7692490017d22482,001,2023-07-31_20h45.16.491,arm3_eps,2022.2.5,Win32,143.6781609,5caf451e7692490017d22482,64c7fed44a04f777bb1e18ce,64c800cd7c180ee2d8649134,up,1,1,0.2429,4,0,0.9005,42,0,42,0,1,,,,,,,,,,
,,5caf451e7692490017d22482,001,2023-07-31_20h45.16.491,arm3_eps,2022.2.5,Win32,143.6781609,5caf451e7692490017d22482,64c7fed44a04f777bb1e18ce,64c800cd7c180ee2d8649134,right,1,1,0.2429,4,0.024291372,1.17,43,0,43,0,1,,,,,,,,,,
,,5caf451e7692490017d22482,001,2023-07-31_20h45.16.491,arm3_eps,2022.2.5,Win32,143.6781609,5caf451e7692490017d22482,64c7fed44a04f777bb1e18ce,64c800cd7c180ee2d8649134,right,1,1,0.2429,4,0.030468299,0.4946,44,0,44,0,1,,,,,,,,,,
,,5caf451e7692490017d22482,001,2023-07-31_20h45.16.491,arm3_eps,2022.2.5,Win32,143.6781609,5caf451e7692490017d22482,64c7fed44a04f777bb1e18ce,64c800cd7c180ee2d8649134,right,1,1,0.2429,4,0.043446896,0.5139,45,0,45,0,1,,,,,,,,,,
,,5caf451e7692490017d22482,001,2023-07-31_20h45.16.491,arm3_eps,2022.2.5,Win32,143.6781609,5caf451e7692490017d22482,64c7fed44a04f777bb1e18ce,64c800cd7c180ee2d8649134,up,1,1,0.2429,5,0,0.409,46,0,46,0,1,,,,,,,,,,
,,5caf451e7692490017d22482,001,2023-07-31_20h45.16.491,arm3_eps,2022.2.5,Win32,143.6781609,5caf451e7692490017d22482,64c7fed44a04f777bb1e18ce,64c800cd7c180ee2d8649134,right,1,1,0.2429,5,0.012213566,1.0204,47,0,47,0,1,,,,,,,,,,
,,5caf451e7692490017d22482,001,2023-07-31_20h45.16.491,arm3_eps,2022.2.5,Win32,143.6781609,5caf451e7692490017d22482,64c7fed44a04f777bb1e18ce,64c800cd7c180ee2d8649134,up,1,1,0.2429,6,0,0.5558,48,0,48,0,1,,,,,,,,,,
,,5caf451e7692490017d22482,001,2023-07-31_20h45.16.491,arm3_eps,2022.2.5,Win32,143.6781609,5caf451e7692490017d22482,64c7fed44a04f777bb1e18ce,64c800cd7c180ee2d8649134,right,1,1,0.2429,6,0.018552307,1.1467,49,0,49,0,1,,,,,,,,,,
space,16.7499,5caf451e7692490017d22482,001,2023-07-31_20h45.16.491,arm3_eps,2022.2.5,Win32,143.6781609,5caf451e7692490017d22482,64c7fed44a04f777bb1e18ce,64c800cd7c180ee2d8649134,,,,,,,,,,,,,,,,,,,,,,
space,11.3785,5caf451e7692490017d22482,001,2023-07-31_20h45.16.491,arm3_eps,2022.2.5,Win32,143.6781609,5caf451e7692490017d22482,64c7fed44a04f777bb1e18ce,64c800cd7c180ee2d8649134,,,,,,,,,,,,,,,,,,,,,,
space,14.2864,5caf451e7692490017d22482,001,2023-07-31_20h45.16.491,arm3_eps,2022.2.5,Win32,143.6781609,5caf451e7692490017d22482,64c7fed44a04f777bb1e18ce,64c800cd7c180ee2d8649134,,,,,,,,,,,,,,,,,,,,,,
space,10.1759,5caf451e7692490017d22482,001,2023-07-31_20h45.16.491,arm3_eps,2022.2.5,Win32,143.6781609,5caf451e7692490017d22482,64c7fed44a04f777bb1e18ce,64c800cd7c180ee2d8649134,,,,,,,,,,,,,,,,,,,,,,
space,10.4513,5caf451e7692490017d22482,001,2023-07-31_20h45.16.491,arm3_eps,2022.2.5,Win32,143.6781609,5caf451e7692490017d22482,64c7fed44a04f777bb1e18ce,64c800cd7c180ee2d8649134,,,,,,,,,,,,,,,,,,,,,,
space,2.0656,5caf451e7692490017d22482,001,2023-07-31_20h45.16.491,arm3_eps,2022.2.5,Win32,143.6781609,5caf451e7692490017d22482,64c7fed44a04f777bb1e18ce,64c800cd7c180ee2d8649134,,,,,,,,,,,,,,,,,,,,,,
,,5caf451e7692490017d22482,001,2023-07-31_20h45.16.491,arm3_eps,2022.2.5,Win32,143.6781609,5caf451e7692490017d22482,64c7fed44a04f777bb1e18ce,64c800cd7c180ee2d8649134,right,1,0.75,0.2429,0,-0.019773563,0.8543,0,0,0,0,1,,,,,,,,,,
,,5caf451e7692490017d22482,001,2023-07-31_20h45.16.491,arm3_eps,2022.2.5,Win32,143.6781609,5caf451e7692490017d22482,64c7fed44a04f777bb1e18ce,64c800cd7c180ee2d8649134,up,1,0.75,0.2429,1,0,0.6061,1,0,1,0,1,,,,,,,,,,
,,5caf451e7692490017d22482,001,2023-07-31_20h45.16.491,arm3_eps,2022.2.5,Win32,143.6781609,5caf451e7692490017d22482,64c7fed44a04f777bb1e18ce,64c800cd7c180ee2d8649134,right,1,0.75,0.2429,1,-0.024301358,1.1857,2,0,2,0,1,,,,,,,,,,
,,5caf451e7692490017d22482,001,2023-07-31_20h45.16.491,arm3_eps,2022.2.5,Win32,143.6781609,5caf451e7692490017d22482,64c7fed44a04f777bb1e18ce,64c800cd7c180ee2d8649134,right,1,0.75,0.2429,1,0.003355699,0.3604,3,0,3,0,1,,,,,,,,,,
,,5caf451e7692490017d22482,001,2023-07-31_20h45.16.491,arm3_eps,2022.2.5,Win32,143.6781609,5caf451e7692490017d22482,64c7fed44a04f777bb1e18ce,64c800cd7c180ee2d8649134,right,1,0.75,0.2429,1,0.015765081,0.4486,4,0,4,0,1,,,,,,,,,,
,,5caf451e7692490017d22482,001,2023-07-31_20h45.16.491,arm3_eps,2022.2.5,Win32,143.6781609,5caf451e7692490017d22482,64c7fed44a04f777bb1e18ce,64c800cd7c180ee2d8649134,up,-1,0.75,0.2429,2,0,0.3633,5,0,5,0,1,,,,,,,,,,
,,5caf451e7692490017d22482,001,2023-07-31_20h45.16.491,arm3_eps,2022.2.5,Win32,143.6781609,5caf451e7692490017d22482,64c7fed44a04f777bb1e18ce,64c800cd7c180ee2d8649134,right,-1,0.75,0.2429,2,0.007574528,1.2544,6,0,6,0,1,,,,,,,,,,
,,5caf451e7692490017d22482,001,2023-07-31_20h45.16.491,arm3_eps,2022.2.5,Win32,143.6781609,5caf451e7692490017d22482,64c7fed44a04f777bb1e18ce,64c800cd7c180ee2d8649134,right,-1,0.75,0.2429,2,-0.01564985,0.4257,7,0,7,0,1,,,,,,,,,,
,,5caf451e7692490017d22482,001,2023-07-31_20h45.16.491,arm3_eps,2022.2.5,Win32,143.6781609,5caf451e7692490017d22482,64c7fed44a04f777bb1e18ce,64c800cd7c180ee2d8649134,right,-1,0.75,0.2429,2,-0.008593311,0.9805,8,0,8,0,1,,,,,,,,,,
,,5caf451e7692490017d22482,001,2023-07-31_20h45.16.491,arm3_eps,2022.2.5,Win32,143.6781609,5caf451e7692490017d22482,64c7fed44a04f777bb1e18ce,64c800cd7c180ee2d8649134,right,-1,0.75,0.2429,2,-0.00895032,0.3267,9,0,9,0,1,,,,,,,,,,
,,5caf451e7692490017d22482,001,2023-07-31_20h45.16.491,arm3_eps,2022.2.5,Win32,143.6781609,5caf451e7692490017d22482,64c7fed44a04f777bb1e18ce,64c800cd7c180ee2d8649134,down,-1,0.75,0.2429,3,0,0.6241,10,0,10,0,1,,,,,,,,,,
,,5caf451e7692490017d22482,001,2023-07-31_20h45.16.491,arm3_eps,2022.2.5,Win32,143.6781609,5caf451e7692490017d22482,64c7fed44a04f777bb1e18ce,64c800cd7c180ee2d8649134,right,-1,0.75,0.2429,3,-0.001188374,1.0181,11,0,11,0,1,,,,,,,,,,
,,5caf451e7692490017d22482,001,2023-07-31_20h45.16.491,arm3_eps,2022.2.5,Win32,143.6781609,5caf451e7692490017d22482,64c7fed44a04f777bb1e18ce,64c800cd7c180ee2d8649134,right,-1,0.75,0.2429,3,-4.72791E-05,0.4251,12,0,12,0,1,,,,,,,,,,
,,5caf451e7692490017d22482,001,2023-07-31_20h45.16.491,arm3_eps,2022.2.5,Win32,143.6781609,5caf451e7692490017d22482,64c7fed44a04f777bb1e18ce,64c800cd7c180ee2d8649134,right,-1,0.75,0.2429,3,-0.013541497,0.5124,13,0,13,0,1,,,,,,,,,,
,,5caf451e7692490017d22482,001,2023-07-31_20h45.16.491,arm3_eps,2022.2.5,Win32,143.6781609,5caf451e7692490017d22482,64c7fed44a04f777bb1e18ce,64c800cd7c180ee2d8649134,down,-1,0.75,0.2429,4,0,0.3761,14,0,14,0,1,,,,,,,,,,
,,5caf451e7692490017d22482,001,2023-07-31_20h45.16.491,arm3_eps,2022.2.5,Win32,143.6781609,5caf451e7692490017d22482,64c7fed44a04f777bb1e18ce,64c800cd7c180ee2d8649134,right,-1,0.75,0.2429,4,0.007956775,0.9833,15,0,15,0,1,,,,,,,,,,
,,5caf451e7692490017d22482,001,2023-07-31_20h45.16.491,arm3_eps,2022.2.5,Win32,143.6781609,5caf451e7692490017d22482,64c7fed44a04f777bb1e18ce,64c800cd7c180ee2d8649134,right,-1,0.75,0.2429,4,-0.005943904,0.325,16,0,16,0,1,,,,,,,,,,
,,5caf451e7692490017d22482,001,2023-07-31_20h45.16.491,arm3_eps,2022.2.5,Win32,143.6781609,5caf451e7692490017d22482,64c7fed44a04f777bb1e18ce,64c800cd7c180ee2d8649134,down,-1,0.75,0.2429,5,0,0.3735,17,0,17,0,1,,,,,,,,,,
,,5caf451e7692490017d22482,001,2023-07-31_20h45.16.491,arm3_eps,2022.2.5,Win32,143.6781609,5caf451e7692490017d22482,64c7fed44a04f777bb1e18ce,64c800cd7c180ee2d8649134,right,-1,0.75,0.2429,5,-0.003527786,0.8158,18,0,18,0,1,,,,,,,,,,
,,5caf451e7692490017d22482,001,2023-07-31_20h45.16.491,arm3_eps,2022.2.5,Win32,143.6781609,5caf451e7692490017d22482,64c7fed44a04f777bb1e18ce,64c800cd7c180ee2d8649134,right,-1,0.75,0.2429,5,-0.043974621,0.3238,19,0,19,0,1,,,,,,,,,,
,,5caf451e7692490017d22482,001,2023-07-31_20h45.16.491,arm3_eps,2022.2.5,Win32,143.6781609,5caf451e7692490017d22482,64c7fed44a04f777bb1e18ce,64c800cd7c180ee2d8649134,down,-1,0.75,0.2429,6,0,0.4583,20,0,20,0,1,,,,,,,,,,
,,5caf451e7692490017d22482,001,2023-07-31_20h45.16.491,arm3_eps,2022.2.5,Win32,143.6781609,5caf451e7692490017d22482,64c7fed44a04f777bb1e18ce,64c800cd7c180ee2d8649134,right,-1,0.75,0.2429,6,0.002259119,0.8218,21,0,21,0,1,,,,,,,,,,
,,5caf451e7692490017d22482,001,2023-07-31_20h45.16.491,arm3_eps,2022.2.5,Win32,143.6781609,5caf451e7692490017d22482,64c7fed44a04f777bb1e18ce,64c800cd7c180ee2d8649134,right,-1,0.75,0.2429,6,0.000177802,0.5797,22,0,22,0,1,,,,,,,,,,
,,5caf451e7692490017d22482,001,2023-07-31_20h45.16.491,arm3_eps,2022.2.5,Win32,143.6781609,5caf451e7692490017d22482,64c7fed44a04f777bb1e18ce,64c800cd7c180ee2d8649134,down,1,0.75,0.2429,6,0,0.6944,23,0,23,0,1,,,,,,,,,,
,,5caf451e7692490017d22482,001,2023-07-31_20h45.16.491,arm3_eps,2022.2.5,Win32,143.6781609,5caf451e7692490017d22482,64c7fed44a04f777bb1e18ce,64c800cd7c180ee2d8649134,right,1,0.75,0.2429,6,0.02394611,1.0418,24,0,24,0,1,,,,,,,,,,
,,5caf451e7692490017d22482,001,2023-07-31_20h45.16.491,arm3_eps,2022.2.5,Win32,143.6781609,5caf451e7692490017d22482,64c7fed44a04f777bb1e18ce,64c800cd7c180ee2d8649134,right,1,0.75,0.2429,6,0.05460102,0.4772,25,0,25,0,1,,,,,,,,,,
,,5caf451e7692490017d22482,001,2023-07-31_20h45.16.491,arm3_eps,2022.2.5,Win32,143.6781609,5caf451e7692490017d22482,64c7fed44a04f777bb1e18ce,64c800cd7c180ee2d8649134,up,1,0.75,0.2429,7,0,0.2659,26,0,26,0,1,,,,,,,,,,
,,5caf451e7692490017d22482,001,2023-07-31_20h45.16.491,arm3_eps,2022.2.5,Win32,143.6781609,5caf451e7692490017d22482,64c7fed44a04f777bb1e18ce,64c800cd7c180ee2d8649134,right,1,0.75,0.2429,7,0.008266308,0.873,27,0,27,0,1,,,,,,,,,,
,,5caf451e7692490017d22482,001,2023-07-31_20h45.16.491,arm3_eps,2022.2.5,Win32,143.6781609,5caf451e7692490017d22482,64c7fed44a04f777bb1e18ce,64c800cd7c180ee2d8649134,right,1,0.75,0.2429,7,0.00913109,0.4656,28,0,28,0,1,,,,,,,,,,
,,5caf451e7692490017d22482,001,2023-07-31_20h45.16.491,arm3_eps,2022.2.5,Win32,143.6781609,5caf451e7692490017d22482,64c7fed44a04f777bb1e18ce,64c800cd7c180ee2d8649134,up,1,0.75,0.2429,8,0,0.4524,29,0,29,0,1,,,,,,,,,,
,,5caf451e7692490017d22482,001,2023-07-31_20h45.16.491,arm3_eps,2022.2.5,Win32,143.6781609,5caf451e7692490017d22482,64c7fed44a04f777bb1e18ce,64c800cd7c180ee2d8649134,right,1,0.75,0.2429,8,-0.003597686,0.8337,30,0,30,0,1,,,,,,,,,,
,,5caf451e7692490017d22482,001,2023-07-31_20h45.16.491,arm3_eps,2022.2.5,Win32,143.6781609,5caf451e7692490017d22482,64c7fed44a04f777bb1e18ce,64c800cd7c180ee2d8649134,up,1,0.75,0.2429,8,0,0.5122,31,0,31,0,1,,,,,,,,,,
,,5caf451e7692490017d22482,001,2023-07-31_20h45.16.491,arm3_eps,2022.2.5,Win32,143.6781609,5caf451e7692490017d22482,64c7fed44a04f777bb1e18ce,64c800cd7c180ee2d8649134,right,1,0.75,0.2429,8,0.021462,1.0329,32,0,32,0,1,,,,,,,,,,
,,5caf451e7692490017d22482,001,2023-07-31_20h45.16.491,arm3_eps,2022.2.5,Win32,143.6781609,5caf451e7692490017d22482,64c7fed44a04f777bb1e18ce,64c800cd7c180ee2d8649134,up,1,0.75,0.2429,9,0,0.318,33,0,33,0,1,,,,,,,,,,
,,5caf451e7692490017d22482,001,2023-07-31_20h45.16.491,arm3_eps,2022.2.5,Win32,143.6781609,5caf451e7692490017d22482,64c7fed44a04f777bb1e18ce,64c800cd7c180ee2d8649134,right,1,0.75,0.2429,9,0.010910618,1.6325,34,0,34,0,1,,,,,,,,,,
,,5caf451e7692490017d22482,001,2023-07-31_20h45.16.491,arm3_eps,2022.2.5,Win32,143.6781609,5caf451e7692490017d22482,64c7fed44a04f777bb1e18ce,64c800cd7c180ee2d8649134,up,1,0.75,0.2429,10,0,0.3068,35,0,35,0,1,,,,,,,,,,
,,5caf451e7692490017d22482,001,2023-07-31_20h45.16.491,arm3_eps,2022.2.5,Win32,143.6781609,5caf451e7692490017d22482,64c7fed44a04f777bb1e18ce,64c800cd7c180ee2d8649134,right,1,0.75,0.2429,10,0.000259804,0.9516,36,0,36,0,1,,,,,,,,,,
,,5caf451e7692490017d22482,001,2023-07-31_20h45.16.491,arm3_eps,2022.2.5,Win32,143.6781609,5caf451e7692490017d22482,64c7fed44a04f777bb1e18ce,64c800cd7c180ee2d8649134,up,1,0.75,0.2429,11,0,0.6645,37,0,37,0,1,,,,,,,,,,
,,5caf451e7692490017d22482,001,2023-07-31_20h45.16.491,arm3_eps,2022.2.5,Win32,143.6781609,5caf451e7692490017d22482,64c7fed44a04f777bb1e18ce,64c800cd7c180ee2d8649134,right,1,0.75,0.2429,11,0.027791883,0.792,38,0,38,0,1,,,,,,,,,,
,,5caf451e7692490017d22482,001,2023-07-31_20h45.16.491,arm3_eps,2022.2.5,Win32,143.6781609,5caf451e7692490017d22482,64c7fed44a04f777bb1e18ce,64c800cd7c180ee2d8649134,up,1,0.75,0.2429,11,0,0.4772,39,0,39,0,1,,,,,,,,,,
,,5caf451e7692490017d22482,001,2023-07-31_20h45.16.491,arm3_eps,2022.2.5,Win32,143.6781609,5caf451e7692490017d22482,64c7fed44a04f777bb1e18ce,64c800cd7c180ee2d8649134,up,-1,0.75,0.2429,12,0,1.2412,40,0,40,0,1,,,,,,,,,,
,,5caf451e7692490017d22482,001,2023-07-31_20h45.16.491,arm3_eps,2022.2.5,Win32,143.6781609,5caf451e7692490017d22482,64c7fed44a04f777bb1e18ce,64c800cd7c180ee2d8649134,down,-1,0.75,0.2429,13,0,1.1851,41,0,41,0,1,,,,,,,,,,
,,5caf451e7692490017d22482,001,2023-07-31_20h45.16.491,arm3_eps,2022.2.5,Win32,143.6781609,5caf451e7692490017d22482,64c7fed44a04f777bb1e18ce,64c800cd7c180ee2d8649134,down,1,0.75,0.2429,13,0,1.0209,42,0,42,0,1,,,,,,,,,,
,,5caf451e7692490017d22482,001,2023-07-31_20h45.16.491,arm3_eps,2022.2.5,Win32,143.6781609,5caf451e7692490017d22482,64c7fed44a04f777bb1e18ce,64c800cd7c180ee2d8649134,right,1,0.75,0.2429,13,0.014015903,1.17,43,0,43,0,1,,,,,,,,,,
,,5caf451e7692490017d22482,001,2023-07-31_20h45.16.491,arm3_eps,2022.2.5,Win32,143.6781609,5caf451e7692490017d22482,64c7fed44a04f777bb1e18ce,64c800cd7c180ee2d8649134,down,1,0.75,0.2429,12,0,0.7805,44,0,44,0,1,,,,,,,,,,
,,5caf451e7692490017d22482,001,2023-07-31_20h45.16.491,arm3_eps,2022.2.5,Win32,143.6781609,5caf451e7692490017d22482,64c7fed44a04f777bb1e18ce,64c800cd7c180ee2d8649134,right,1,0.75,0.2429,12,0.048304071,0.8386,45,0,45,0,1,,,,,,,,,,
,,5caf451e7692490017d22482,001,2023-07-31_20h45.16.491,arm3_eps,2022.2.5,Win32,143.6781609,5caf451e7692490017d22482,64c7fed44a04f777bb1e18ce,64c800cd7c180ee2d8649134,up,1,0.75,0.2429,13,0,0.6234,46,0,46,0,1,,,,,,,,,,
,,5caf451e7692490017d22482,001,2023-07-31_20h45.16.491,arm3_eps,2022.2.5,Win32,143.6781609,5caf451e7692490017d22482,64c7fed44a04f777bb1e18ce,64c800cd7c180ee2d8649134,right,1,0.75,0.2429,13,0.017957601,1.0557,47,0,47,0,1,,,,,,,,,,
,,5caf451e7692490017d22482,001,2023-07-31_20h45.16.491,arm3_eps,2022.2.5,Win32,143.6781609,5caf451e7692490017d22482,64c7fed44a04f777bb1e18ce,64c800cd7c180ee2d8649134,up,1,0.75,0.2429,14,0,0.5306,48,0,48,0,1,,,,,,,,,,
,,5caf451e7692490017d22482,001,2023-07-31_20h45.16.491,arm3_eps,2022.2.5,Win32,143.6781609,5caf451e7692490017d22482,64c7fed44a04f777bb1e18ce,64c800cd7c180ee2d8649134,right,1,0.75,0.2429,14,-0.01200442,0.7727,49,0,49,0,1,,,,,,,,,,
space,23.4258,5caf451e7692490017d22482,001,2023-07-31_20h45.16.491,arm3_eps,2022.2.5,Win32,143.6781609,5caf451e7692490017d22482,64c7fed44a04f777bb1e18ce,64c800cd7c180ee2d8649134,,,,,,,,,,,,,,,,,,,,,,
space,11.9951,5caf451e7692490017d22482,001,2023-07-31_20h45.16.491,arm3_eps,2022.2.5,Win32,143.6781609,5caf451e7692490017d22482,64c7fed44a04f777bb1e18ce,64c800cd7c180ee2d8649134,,,,,,,,,,,,,,,,,,,,,,
space,0.9594,5caf451e7692490017d22482,001,2023-07-31_20h45.16.491,arm3_eps,2022.2.5,Win32,143.6781609,5caf451e7692490017d22482,64c7fed44a04f777bb1e18ce,64c800cd7c180ee2d8649134,,,,,,,,,,,,,,,,,,,,,,
,,5caf451e7692490017d22482,001,2023-07-31_20h45.16.491,arm3_eps,2022.2.5,Win32,143.6781609,5caf451e7692490017d22482,64c7fed44a04f777bb1e18ce,64c800cd7c180ee2d8649134,right,1,0.75,0.05,0,0.009182242,1.6322,0,0,0,0,1,,,,,,,,,,
,,5caf451e7692490017d22482,001,2023-07-31_20h45.16.491,arm3_eps,2022.2.5,Win32,143.6781609,5caf451e7692490017d22482,64c7fed44a04f777bb1e18ce,64c800cd7c180ee2d8649134,down,1,0.75,0.05,-1,0,1.0446,1,0,1,0,1,,,,,,,,,,
,,5caf451e7692490017d22482,001,2023-07-31_20h45.16.491,arm3_eps,2022.2.5,Win32,143.6781609,5caf451e7692490017d22482,64c7fed44a04f777bb1e18ce,64c800cd7c180ee2d8649134,right,1,0.75,0.05,-1,-0.012124293,1.2542,2,0,2,0,1,,,,,,,,,,
,,5caf451e7692490017d22482,001,2023-07-31_20h45.16.491,arm3_eps,2022.2.5,Win32,143.6781609,5caf451e7692490017d22482,64c7fed44a04f777bb1e18ce,64c800cd7c180ee2d8649134,right,1,0.75,0.05,-1,-0.029751262,0.7302,3,0,3,0,1,,,,,,,,,,
,,5caf451e7692490017d22482,001,2023-07-31_20h45.16.491,arm3_eps,2022.2.5,Win32,143.6781609,5caf451e7692490017d22482,64c7fed44a04f777bb1e18ce,64c800cd7c180ee2d8649134,right,1,0.75,0.05,-1,0.000647257,1.402,4,0,4,0,1,,,,,,,,,,
,,5caf451e7692490017d22482,001,2023-07-31_20h45.16.491,arm3_eps,2022.2.5,Win32,143.6781609,5caf451e7692490017d22482,64c7fed44a04f777bb1e18ce,64c800cd7c180ee2d8649134,up,1,0.75,0.05,0,0,0.4286,5,0,5,0,1,,,,,,,,,,
,,5caf451e7692490017d22482,001,2023-07-31_20h45.16.491,arm3_eps,2022.2.5,Win32,143.6781609,5caf451e7692490017d22482,64c7fed44a04f777bb1e18ce,64c800cd7c180ee2d8649134,right,1,0.75,0.05,0,0.01753129,1.366,6,0,6,0,1,,,,,,,,,,
,,5caf451e7692490017d22482,001,2023-07-31_20h45.16.491,arm3_eps,2022.2.5,Win32,143.6781609,5caf451e7692490017d22482,64c7fed44a04f777bb1e18ce,64c800cd7c180ee2d8649134,right,1,0.75,0.05,0,0.023025074,0.3684,7,0,7,0,1,,,,,,,,,,
,,5caf451e7692490017d22482,001,2023-07-31_20h45.16.491,arm3_eps,2022.2.5,Win32,143.6781609,5caf451e7692490017d22482,64c7fed44a04f777bb1e18ce,64c800cd7c180ee2d8649134,up,1,0.75,0.05,0,0,0.3348,8,0,8,0,1,,,,,,,,,,
,,5caf451e7692490017d22482,001,2023-07-31_20h45.16.491,arm3_eps,2022.2.5,Win32,143.6781609,5caf451e7692490017d22482,64c7fed44a04f777bb1e18ce,64c800cd7c180ee2d8649134,right,1,0.75,0.05,0,0.015540038,1.0328,9,0,9,0,1,,,,,,,,,,
,,5caf451e7692490017d22482,001,2023-07-31_20h45.16.491,arm3_eps,2022.2.5,Win32,143.6781609,5caf451e7692490017d22482,64c7fed44a04f777bb1e18ce,64c800cd7c180ee2d8649134,right,1,0.75,0.05,0,0.011175511,0.9362,10,0,10,0,1,,,,,,,,,,
,,5caf451e7692490017d22482,001,2023-07-31_20h45.16.491,arm3_eps,2022.2.5,Win32,143.6781609,5caf451e7692490017d22482,64c7fed44a04f777bb1e18ce,64c800cd7c180ee2d8649134,up,1,0.75,0.05,1,0,0.353,11,0,11,0,1,,,,,,,,,,
,,5caf451e7692490017d22482,001,2023-07-31_20h45.16.491,arm3_eps,2022.2.5,Win32,143.6781609,5caf451e7692490017d22482,64c7fed44a04f777bb1e18ce,64c800cd7c180ee2d8649134,right,1,0.75,0.05,1,0.009884219,1.0265,12,0,12,0,1,,,,,,,,,,
,,5caf451e7692490017d22482,001,2023-07-31_20h45.16.491,arm3_eps,2022.2.5,Win32,143.6781609,5caf451e7692490017d22482,64c7fed44a04f777bb1e18ce,64c800cd7c180ee2d8649134,up,1,0.75,0.05,2,0,0.437,13,0,13,0,1,,,,,,,,,,
,,5caf451e7692490017d22482,001,2023-07-31_20h45.16.491,arm3_eps,2022.2.5,Win32,143.6781609,5caf451e7692490017d22482,64c7fed44a04f777bb1e18ce,64c800cd7c180ee2d8649134,up,1,0.75,0.05,2,0,1.463,14,0,14,0,1,,,,,,,,,,
,,5caf451e7692490017d22482,001,2023-07-31_20h45.16.491,arm3_eps,2022.2.5,Win32,143.6781609,5caf451e7692490017d22482,64c7fed44a04f777bb1e18ce,64c800cd7c180ee2d8649134,up,1,0.75,0.05,3,0,1.1767,15,0,15,0,1,,,,,,,,,,
,,5caf451e7692490017d22482,001,2023-07-31_20h45.16.491,arm3_eps,2022.2.5,Win32,143.6781609,5caf451e7692490017d22482,64c7fed44a04f777bb1e18ce,64c800cd7c180ee2d8649134,up,1,0.75,0.05,4,0,1.718,16,0,16,0,1,,,,,,,,,,
,,5caf451e7692490017d22482,001,2023-07-31_20h45.16.491,arm3_eps,2022.2.5,Win32,143.6781609,5caf451e7692490017d22482,64c7fed44a04f777bb1e18ce,64c800cd7c180ee2d8649134,right,1,0.75,0.05,4,0.028251753,1.1628,17,0,17,0,1,,,,,,,,,,
,,5caf451e7692490017d22482,001,2023-07-31_20h45.16.491,arm3_eps,2022.2.5,Win32,143.6781609,5caf451e7692490017d22482,64c7fed44a04f777bb1e18ce,64c800cd7c180ee2d8649134,up,-1,0.75,0.05,5,0,0.3469,18,0,18,0,1,,,,,,,,,,
,,5caf451e7692490017d22482,001,2023-07-31_20h45.16.491,arm3_eps,2022.2.5,Win32,143.6781609,5caf451e7692490017d22482,64c7fed44a04f777bb1e18ce,64c800cd7c180ee2d8649134,right,-1,0.75,0.05,5,-0.020717833,2.0282,19,0,19,0,1,,,,,,,,,,
,,5caf451e7692490017d22482,001,2023-07-31_20h45.16.491,arm3_eps,2022.2.5,Win32,143.6781609,5caf451e7692490017d22482,64c7fed44a04f777bb1e18ce,64c800cd7c180ee2d8649134,right,-1,0.75,0.05,5,-0.025727269,0.4393,20,0,20,0,1,,,,,,,,,,
,,5caf451e7692490017d22482,001,2023-07-31_20h45.16.491,arm3_eps,2022.2.5,Win32,143.6781609,5caf451e7692490017d22482,64c7fed44a04f777bb1e18ce,64c800cd7c180ee2d8649134,right,-1,0.75,0.05,5,-0.060859648,0.3607,21,0,21,0,1,,,,,,,,,,
,,5caf451e7692490017d22482,001,2023-07-31_20h45.16.491,arm3_eps,2022.2.5,Win32,143.6781609,5caf451e7692490017d22482,64c7fed44a04f777bb1e18ce,64c800cd7c180ee2d8649134,down,-1,0.75,0.05,6,0,0.3519,22,0,22,0,1,,,,,,,,,,
,,5caf451e7692490017d22482,001,2023-07-31_20h45.16.491,arm3_eps,2022.2.5,Win32,143.6781609,5caf451e7692490017d22482,64c7fed44a04f777bb1e18ce,64c800cd7c180ee2d8649134,right,-1,0.75,0.05,6,0.015611959,0.9904,23,0,23,0,1,,,,,,,,,,
,,5caf451e7692490017d22482,001,2023-07-31_20h45.16.491,arm3_eps,2022.2.5,Win32,143.6781609,5caf451e7692490017d22482,64c7fed44a04f777bb1e18ce,64c800cd7c180ee2d8649134,up,-1,0.75,0.05,6,0,0.7503,24,0,24,0,1,,,,,,,,,,
,,5caf451e7692490017d22482,001,2023-07-31_20h45.16.491,arm3_eps,2022.2.5,Win32,143.6781609,5caf451e7692490017d22482,64c7fed44a04f777bb1e18ce,64c800cd7c180ee2d8649134,right,-1,0.75,0.05,6,-0.01952865,0.8667,25,0,25,0,1,,,,,,,,,,
,,5caf451e7692490017d22482,001,2023-07-31_20h45.16.491,arm3_eps,2022.2.5,Win32,143.6781609,5caf451e7692490017d22482,64c7fed44a04f777bb1e18ce,64c800cd7c180ee2d8649134,right,-1,0.75,0.05,6,-0.024528914,0.3916,26,0,26,0,1,,,,,,,,,,
,,5caf451e7692490017d22482,001,2023-07-31_20h45.16.491,arm3_eps,2022.2.5,Win32,143.6781609,5caf451e7692490017d22482,64c7fed44a04f777bb1e18ce,64c800cd7c180ee2d8649134,down,-1,0.75,0.05,7,0,0.423,27,0,27,0,1,,,,,,,,,,
,,5caf451e7692490017d22482,001,2023-07-31_20h45.16.491,arm3_eps,2022.2.5,Win32,143.6781609,5caf451e7692490017d22482,64c7fed44a04f777bb1e18ce,64c800cd7c180ee2d8649134,right,-1,0.75,0.05,7,-0.005650241,0.7851,28,0,28,0,1,,,,,,,,,,
,,5caf451e7692490017d22482,001,2023-07-31_20h45.16.491,arm3_eps,2022.2.5,Win32,143.6781609,5caf451e7692490017d22482,64c7fed44a04f777bb1e18ce,64c800cd7c180ee2d8649134,right,-1,0.75,0.05,7,0.004654075,0.6184,29,0,29,0,1,,,,,,,,,,
,,5caf451e7692490017d22482,001,2023-07-31_20h45.16.491,arm3_eps,2022.2.5,Win32,143.6781609,5caf451e7692490017d22482,64c7fed44a04f777bb1e18ce,64c800cd7c180ee2d8649134,down,-1,0.75,0.05,8,0,0.5471,30,0,30,0,1,,,,,,,,,,
,,5caf451e7692490017d22482,001,2023-07-31_20h45.16.491,arm3_eps,2022.2.5,Win32,143.6781609,5caf451e7692490017d22482,64c7fed44a04f777bb1e18ce,64c800cd7c180ee2d8649134,right,-1,0.75,0.05,8,-0.014742666,0.7973,31,0,31,0,1,,,,,,,,,,
,,5caf451e7692490017d22482,001,2023-07-31_20h45.16.491,arm3_eps,2022.2.5,Win32,143.6781609,5caf451e7692490017d22482,64c7fed44a04f777bb1e18ce,64c800cd7c180ee2d8649134,right,-1,0.75,0.05,8,-0.054630033,0.3944,32,0,32,0,1,,,,,,,,,,
,,5caf451e7692490017d22482,001,2023-07-31_20h45.16.491,arm3_eps,2022.2.5,Win32,143.6781609,5caf451e7692490017d22482,64c7fed44a04f777bb1e18ce,64c800cd7c180ee2d8649134,down,-1,0.75,0.05,8,0,0.5258,33,0,33,0,1,,,,,,,,,,
,,5caf451e7692490017d22482,001,2023-07-31_20h45.16.491,arm3_eps,2022.2.5,Win32,143.6781609,5caf451e7692490017d22482,64c7fed44a04f777bb1e18ce,64c800cd7c180ee2d8649134,right,-1,0.75,0.05,8,-0.012485205,0.9638,34,0,34,0,1,,,,,,,,,,
,,5caf451e7692490017d22482,001,2023-07-31_20h45.16.491,arm3_eps,2022.2.5,Win32,143.6781609,5caf451e7692490017d22482,64c7fed44a04f777bb1e18ce,64c800cd7c180ee2d8649134,down,-1,0.75,0.05,9,0,0.4538,35,0,35,0,1,,,,,,,,,,
,,5caf451e7692490017d22482,001,2023-07-31_20h45.16.491,arm3_eps,2022.2.5,Win32,143.6781609,5caf451e7692490017d22482,64c7fed44a04f777bb1e18ce,64c800cd7c180ee2d8649134,down,-1,0.75,0.05,10,0,1.0454,36,0,36,0,1,,,,,,,,,,
,,5caf451e7692490017d22482,001,2023-07-31_20h45.16.491,arm3_eps,2022.2.5,Win32,143.6781609,5caf451e7692490017d22482,64c7fed44a04f777bb1e18ce,64c800cd7c180ee2d8649134,right,-1,0.75,0.05,10,0.003640488,1.1592,37,0,37,0,1,,,,,,,,,,
,,5caf451e7692490017d22482,001,2023-07-31_20h45.16.491,arm3_eps,2022.2.5,Win32,143.6781609,5caf451e7692490017d22482,64c7fed44a04f777bb1e18ce,64c800cd7c180ee2d8649134,right,-1,0.75,0.05,10,-0.041677867,0.8493,38,0,38,0,1,,,,,,,,,,
,,5caf451e7692490017d22482,001,2023-07-31_20h45.16.491,arm3_eps,2022.2.5,Win32,143.6781609,5caf451e7692490017d22482,64c7fed44a04f777bb1e18ce,64c800cd7c180ee2d8649134,down,-1,0.75,0.05,11,0,0.8684,39,0,39,0,1,,,,,,,,,,
,,5caf451e7692490017d22482,001,2023-07-31_20h45.16.491,arm3_eps,2022.2.5,Win32,143.6781609,5caf451e7692490017d22482,64c7fed44a04f777bb1e18ce,64c800cd7c180ee2d8649134,right,-1,0.75,0.05,11,-0.009266899,0.776,40,0,40,0,1,,,,,,,,,,
,,5caf451e7692490017d22482,001,2023-07-31_20h45.16.491,arm3_eps,2022.2.5,Win32,143.6781609,5caf451e7692490017d22482,64c7fed44a04f777bb1e18ce,64c800cd7c180ee2d8649134,down,-1,0.75,0.05,12,0,0.7491,41,0,41,0,1,,,,,,,,,,
,,5caf451e7692490017d22482,001,2023-07-31_20h45.16.491,arm3_eps,2022.2.5,Win32,143.6781609,5caf451e7692490017d22482,64c7fed44a04f777bb1e18ce,64c800cd7c180ee2d8649134,right,-1,0.75,0.05,12,0.010633107,0.7766,42,0,42,0,1,,,,,,,,,,
,,5caf451e7692490017d22482,001,2023-07-31_20h45.16.491,arm3_eps,2022.2.5,Win32,143.6781609,5caf451e7692490017d22482,64c7fed44a04f777bb1e18ce,64c800cd7c180ee2d8649134,right,-1,0.75,0.05,12,-0.040077861,0.4483,43,0,43,0,1,,,,,,,,,,
,,5caf451e7692490017d22482,001,2023-07-31_20h45.16.491,arm3_eps,2022.2.5,Win32,143.6781609,5caf451e7692490017d22482,64c7fed44a04f777bb1e18ce,64c800cd7c180ee2d8649134,down,-1,0.75,0.05,12,0,0.262,44,0,44,0,1,,,,,,,,,,
,,5caf451e7692490017d22482,001,2023-07-31_20h45.16.491,arm3_eps,2022.2.5,Win32,143.6781609,5caf451e7692490017d22482,64c7fed44a04f777bb1e18ce,64c800cd7c180ee2d8649134,right,-1,0.75,0.05,12,-0.019156316,0.7725,45,0,45,0,1,,,,,,,,,,
,,5caf451e7692490017d22482,001,2023-07-31_20h45.16.491,arm3_eps,2022.2.5,Win32,143.6781609,5caf451e7692490017d22482,64c7fed44a04f777bb1e18ce,64c800cd7c180ee2d8649134,right,-1,0.75,0.05,12,-0.033712113,0.306,46,0,46,0,1,,,,,,,,,,
,,5caf451e7692490017d22482,001,2023-07-31_20h45.16.491,arm3_eps,2022.2.5,Win32,143.6781609,5caf451e7692490017d22482,64c7fed44a04f777bb1e18ce,64c800cd7c180ee2d8649134,down,1,0.75,0.05,13,0,0.2974,47,0,47,0,1,,,,,,,,,,
,,5caf451e7692490017d22482,001,2023-07-31_20h45.16.491,arm3_eps,2022.2.5,Win32,143.6781609,5caf451e7692490017d22482,64c7fed44a04f777bb1e18ce,64c800cd7c180ee2d8649134,right,1,0.75,0.05,13,0.016984478,0.8084,48,0,48,0,1,,,,,,,,,,
,,5caf451e7692490017d22482,001,2023-07-31_20h45.16.491,arm3_eps,2022.2.5,Win32,143.6781609,5caf451e7692490017d22482,64c7fed44a04f777bb1e18ce,64c800cd7c180ee2d8649134,up,1,0.75,0.05,13,0.016984478,0.4325,49,0,49,0,1,,,,,,,,,,
space,10.3588,5caf451e7692490017d22482,001,2023-07-31_20h45.16.491,arm3_eps,2022.2.5,Win32,143.6781609,5caf451e7692490017d22482,64c7fed44a04f777bb1e18ce,64c800cd7c180ee2d8649134,,,,,,,,,,,,,,,,,,,,,,
space,1.0358,5caf451e7692490017d22482,001,2023-07-31_20h45.16.491,arm3_eps,2022.2.5,Win32,143.6781609,5caf451e7692490017d22482,64c7fed44a04f777bb1e18ce,64c800cd7c180ee2d8649134,,,,,,,,,,,,,,,,,,,,,,
,,5caf451e7692490017d22482,001,2023-07-31_20h45.16.491,arm3_eps,2022.2.5,Win32,143.6781609,5caf451e7692490017d22482,64c7fed44a04f777bb1e18ce,64c800cd7c180ee2d8649134,right,1,0.75,0.5,0,0.016489977,0.6485,0,0,0,0,1,,,,,,,,,,
,,5caf451e7692490017d22482,001,2023-07-31_20h45.16.491,arm3_eps,2022.2.5,Win32,143.6781609,5caf451e7692490017d22482,64c7fed44a04f777bb1e18ce,64c800cd7c180ee2d8649134,right,1,0.75,0.5,0,0.000491327,0.4372,1,0,1,0,1,,,,,,,,,,
,,5caf451e7692490017d22482,001,2023-07-31_20h45.16.491,arm3_eps,2022.2.5,Win32,143.6781609,5caf451e7692490017d22482,64c7fed44a04f777bb1e18ce,64c800cd7c180ee2d8649134,right,1,0.75,0.5,0,0.034169018,0.668,2,0,2,0,1,,,,,,,,,,
,,5caf451e7692490017d22482,001,2023-07-31_20h45.16.491,arm3_eps,2022.2.5,Win32,143.6781609,5caf451e7692490017d22482,64c7fed44a04f777bb1e18ce,64c800cd7c180ee2d8649134,down,1,0.75,0.5,0,0,0.4403,3,0,3,0,1,,,,,,,,,,
,,5caf451e7692490017d22482,001,2023-07-31_20h45.16.491,arm3_eps,2022.2.5,Win32,143.6781609,5caf451e7692490017d22482,64c7fed44a04f777bb1e18ce,64c800cd7c180ee2d8649134,right,1,0.75,0.5,0,-0.007329764,1.0076,4,0,4,0,1,,,,,,,,,,
,,5caf451e7692490017d22482,001,2023-07-31_20h45.16.491,arm3_eps,2022.2.5,Win32,143.6781609,5caf451e7692490017d22482,64c7fed44a04f777bb1e18ce,64c800cd7c180ee2d8649134,right,1,0.75,0.5,0,0.02540514,0.5321,5,0,5,0,1,,,,,,,,,,
,,5caf451e7692490017d22482,001,2023-07-31_20h45.16.491,arm3_eps,2022.2.5,Win32,143.6781609,5caf451e7692490017d22482,64c7fed44a04f777bb1e18ce,64c800cd7c180ee2d8649134,up,-1,0.75,0.5,1,0,0.6563,6,0,6,0,1,,,,,,,,,,
,,5caf451e7692490017d22482,001,2023-07-31_20h45.16.491,arm3_eps,2022.2.5,Win32,143.6781609,5caf451e7692490017d22482,64c7fed44a04f777bb1e18ce,64c800cd7c180ee2d8649134,right,-1,0.75,0.5,1,-0.01936985,0.8476,7,0,7,0,1,,,,,,,,,,
,,5caf451e7692490017d22482,001,2023-07-31_20h45.16.491,arm3_eps,2022.2.5,Win32,143.6781609,5caf451e7692490017d22482,64c7fed44a04f777bb1e18ce,64c800cd7c180ee2d8649134,right,-1,0.75,0.5,1,0.009415073,0.4553,8,0,8,0,1,,,,,,,,,,
,,5caf451e7692490017d22482,001,2023-07-31_20h45.16.491,arm3_eps,2022.2.5,Win32,143.6781609,5caf451e7692490017d22482,64c7fed44a04f777bb1e18ce,64c800cd7c180ee2d8649134,down,-1,0.75,0.5,2,0,0.6669,9,0,9,0,1,,,,,,,,,,
,,5caf451e7692490017d22482,001,2023-07-31_20h45.16.491,arm3_eps,2022.2.5,Win32,143.6781609,5caf451e7692490017d22482,64c7fed44a04f777bb1e18ce,64c800cd7c180ee2d8649134,right,-1,0.75,0.5,2,-0.01287819,0.7523,10,0,10,0,1,,,,,,,,,,
,,5caf451e7692490017d22482,001,2023-07-31_20h45.16.491,arm3_eps,2022.2.5,Win32,143.6781609,5caf451e7692490017d22482,64c7fed44a04f777bb1e18ce,64c800cd7c180ee2d8649134,right,-1,0.75,0.5,2,-0.012025768,0.4523,11,0,11,0,1,,,,,,,,,,
,,5caf451e7692490017d22482,001,2023-07-31_20h45.16.491,arm3_eps,2022.2.5,Win32,143.6781609,5caf451e7692490017d22482,64c7fed44a04f777bb1e18ce,64c800cd7c180ee2d8649134,down,1,0.75,0.5,2,0,0.3307,12,0,12,0,1,,,,,,,,,,
,,5caf451e7692490017d22482,001,2023-07-31_20h45.16.491,arm3_eps,2022.2.5,Win32,143.6781609,5caf451e7692490017d22482,64c7fed44a04f777bb1e18ce,64c800cd7c180ee2d8649134,right,1,0.75,0.5,2,0.03164493,0.7715,13,0,13,0,1,,,,,,,,,,
,,5caf451e7692490017d22482,001,2023-07-31_20h45.16.491,arm3_eps,2022.2.5,Win32,143.6781609,5caf451e7692490017d22482,64c7fed44a04f777bb1e18ce,64c800cd7c180ee2d8649134,right,1,0.75,0.5,2,0.026155287,0.3583,14,0,14,0,1,,,,,,,,,,
,,5caf451e7692490017d22482,001,2023-07-31_20h45.16.491,arm3_eps,2022.2.5,Win32,143.6781609,5caf451e7692490017d22482,64c7fed44a04f777bb1e18ce,64c800cd7c180ee2d8649134,right,1,0.75,0.5,2,0.043487856,0.3203,15,0,15,0,1,,,,,,,,,,
,,5caf451e7692490017d22482,001,2023-07-31_20h45.16.491,arm3_eps,2022.2.5,Win32,143.6781609,5caf451e7692490017d22482,64c7fed44a04f777bb1e18ce,64c800cd7c180ee2d8649134,up,1,0.75,0.5,3,0,0.4335,16,0,16,0,1,,,,,,,,,,
,,5caf451e7692490017d22482,001,2023-07-31_20h45.16.491,arm3_eps,2022.2.5,Win32,143.6781609,5caf451e7692490017d22482,64c7fed44a04f777bb1e18ce,64c800cd7c180ee2d8649134,up,-1,0.75,0.5,4,0,0.0702,17,0,17,0,1,,,,,,,,,,
,,5caf451e7692490017d22482,001,2023-07-31_20h45.16.491,arm3_eps,2022.2.5,Win32,143.6781609,5caf451e7692490017d22482,64c7fed44a04f777bb1e18ce,64c800cd7c180ee2d8649134,right,-1,0.75,0.5,4,-0.013351981,0.7523,18,0,18,0,1,,,,,,,,,,
,,5caf451e7692490017d22482,001,2023-07-31_20h45.16.491,arm3_eps,2022.2.5,Win32,143.6781609,5caf451e7692490017d22482,64c7fed44a04f777bb1e18ce,64c800cd7c180ee2d8649134,right,-1,0.75,0.5,4,-0.049359216,0.611,19,0,19,0,1,,,,,,,,,,
,,5caf451e7692490017d22482,001,2023-07-31_20h45.16.491,arm3_eps,2022.2.5,Win32,143.6781609,5caf451e7692490017d22482,64c7fed44a04f777bb1e18ce,64c800cd7c180ee2d8649134,down,1,0.75,0.5,4,0,0.2503,20,0,20,0,1,,,,,,,,,,
,,5caf451e7692490017d22482,001,2023-07-31_20h45.16.491,arm3_eps,2022.2.5,Win32,143.6781609,5caf451e7692490017d22482,64c7fed44a04f777bb1e18ce,64c800cd7c180ee2d8649134,right,1,0.75,0.5,4,0.020435645,0.747,21,0,21,0,1,,,,,,,,,,
,,5caf451e7692490017d22482,001,2023-07-31_20h45.16.491,arm3_eps,2022.2.5,Win32,143.6781609,5caf451e7692490017d22482,64c7fed44a04f777bb1e18ce,64c800cd7c180ee2d8649134,right,1,0.75,0.5,4,0.049415947,0.316,22,0,22,0,1,,,,,,,,,,
,,5caf451e7692490017d22482,001,2023-07-31_20h45.16.491,arm3_eps,2022.2.5,Win32,143.6781609,5caf451e7692490017d22482,64c7fed44a04f777bb1e18ce,64c800cd7c180ee2d8649134,up,-1,0.75,0.5,4,0,0.6685,23,0,23,0,1,,,,,,,,,,
,,5caf451e7692490017d22482,001,2023-07-31_20h45.16.491,arm3_eps,2022.2.5,Win32,143.6781609,5caf451e7692490017d22482,64c7fed44a04f777bb1e18ce,64c800cd7c180ee2d8649134,right,-1,0.75,0.5,4,-0.000467937,1.1176,24,0,24,0,1,,,,,,,,,,
,,5caf451e7692490017d22482,001,2023-07-31_20h45.16.491,arm3_eps,2022.2.5,Win32,143.6781609,5caf451e7692490017d22482,64c7fed44a04f777bb1e18ce,64c800cd7c180ee2d8649134,down,1,0.75,0.5,5,0,0.5289,25,0,25,0,1,,,,,,,,,,
,,5caf451e7692490017d22482,001,2023-07-31_20h45.16.491,arm3_eps,2022.2.5,Win32,143.6781609,5caf451e7692490017d22482,64c7fed44a04f777bb1e18ce,64c800cd7c180ee2d8649134,right,1,0.75,0.5,5,0.02453452,0.7641,26,0,26,0,1,,,,,,,,,,
,,5caf451e7692490017d22482,001,2023-07-31_20h45.16.491,arm3_eps,2022.2.5,Win32,143.6781609,5caf451e7692490017d22482,64c7fed44a04f777bb1e18ce,64c800cd7c180ee2d8649134,right,1,0.75,0.5,5,0.023750703,0.7009,27,0,27,0,1,,,,,,,,,,
,,5caf451e7692490017d22482,001,2023-07-31_20h45.16.491,arm3_eps,2022.2.5,Win32,143.6781609,5caf451e7692490017d22482,64c7fed44a04f777bb1e18ce,64c800cd7c180ee2d8649134,up,1,0.75,0.5,6,0,0.4314,28,0,28,0,1,,,,,,,,,,
,,5caf451e7692490017d22482,001,2023-07-31_20h45.16.491,arm3_eps,2022.2.5,Win32,143.6781609,5caf451e7692490017d22482,64c7fed44a04f777bb1e18ce,64c800cd7c180ee2d8649134,right,1,0.75,0.5,6,-0.001428862,0.7433,29,0,29,0,1,,,,,,,,,,
,,5caf451e7692490017d22482,001,2023-07-31_20h45.16.491,arm3_eps,2022.2.5,Win32,143.6781609,5caf451e7692490017d22482,64c7fed44a04f777bb1e18ce,64c800cd7c180ee2d8649134,up,1,0.75,0.5,7,0,0.6188,30,0,30,0,1,,,,,,,,,,
,,5caf451e7692490017d22482,001,2023-07-31_20h45.16.491,arm3_eps,2022.2.5,Win32,143.6781609,5caf451e7692490017d22482,64c7fed44a04f777bb1e18ce,64c800cd7c180ee2d8649134,right,1,0.75,0.5,7,-0.002935218,0.7996,31,0,31,0,1,,,,,,,,,,
,,5caf451e7692490017d22482,001,2023-07-31_20h45.16.491,arm3_eps,2022.2.5,Win32,143.6781609,5caf451e7692490017d22482,64c7fed44a04f777bb1e18ce,64c800cd7c180ee2d8649134,right,1,0.75,0.5,7,0.049125623,0.7001,32,0,32,0,1,,,,,,,,,,
,,5caf451e7692490017d22482,001,2023-07-31_20h45.16.491,arm3_eps,2022.2.5,Win32,143.6781609,5caf451e7692490017d22482,64c7fed44a04f777bb1e18ce,64c800cd7c180ee2d8649134,up,1,0.75,0.5,7,0,0.4332,33,0,33,0,1,,,,,,,,,,
,,5caf451e7692490017d22482,001,2023-07-31_20h45.16.491,arm3_eps,2022.2.5,Win32,143.6781609,5caf451e7692490017d22482,64c7fed44a04f777bb1e18ce,64c800cd7c180ee2d8649134,right,1,0.75,0.5,7,0.00896251,0.7659,34,0,34,0,1,,,,,,,,,,
,,5caf451e7692490017d22482,001,2023-07-31_20h45.16.491,arm3_eps,2022.2.5,Win32,143.6781609,5caf451e7692490017d22482,64c7fed44a04f777bb1e18ce,64c800cd7c180ee2d8649134,right,1,0.75,0.5,7,0.022381313,0.3136,35,0,35,0,1,,,,,,,,,,
,,5caf451e7692490017d22482,001,2023-07-31_20h45.16.491,arm3_eps,2022.2.5,Win32,143.6781609,5caf451e7692490017d22482,64c7fed44a04f777bb1e18ce,64c800cd7c180ee2d8649134,up,-1,0.75,0.5,8,0,0.2552,36,0,36,0,1,,,,,,,,,,
,,5caf451e7692490017d22482,001,2023-07-31_20h45.16.491,arm3_eps,2022.2.5,Win32,143.6781609,5caf451e7692490017d22482,64c7fed44a04f777bb1e18ce,64c800cd7c180ee2d8649134,right,-1,0.75,0.5,8,0.000442488,0.7443,37,0,37,0,1,,,,,,,,,,
,,5caf451e7692490017d22482,001,2023-07-31_20h45.16.491,arm3_eps,2022.2.5,Win32,143.6781609,5caf451e7692490017d22482,64c7fed44a04f777bb1e18ce,64c800cd7c180ee2d8649134,right,-1,0.75,0.5,8,-0.008759576,0.5627,38,0,38,0,1,,,,,,,,,,
,,5caf451e7692490017d22482,001,2023-07-31_20h45.16.491,arm3_eps,2022.2.5,Win32,143.6781609,5caf451e7692490017d22482,64c7fed44a04f777bb1e18ce,64c800cd7c180ee2d8649134,down,1,0.75,0.5,9,0,0.4509,39,0,39,0,1,,,,,,,,,,
,,5caf451e7692490017d22482,001,2023-07-31_20h45.16.491,arm3_eps,2022.2.5,Win32,143.6781609,5caf451e7692490017d22482,64c7fed44a04f777bb1e18ce,64c800cd7c180ee2d8649134,right,1,0.75,0.5,9,0.019277911,0.5602,40,0,40,0,1,,,,,,,,,,
,,5caf451e7692490017d22482,001,2023-07-31_20h45.16.491,arm3_eps,2022.2.5,Win32,143.6781609,5caf451e7692490017d22482,64c7fed44a04f777bb1e18ce,64c800cd7c180ee2d8649134,right,1,0.75,0.5,9,0.00530672,0.564,41,0,41,0,1,,,,,,,,,,
,,5caf451e7692490017d22482,001,2023-07-31_20h45.16.491,arm3_eps,2022.2.5,Win32,143.6781609,5caf451e7692490017d22482,64c7fed44a04f777bb1e18ce,64c800cd7c180ee2d8649134,up,-1,0.75,0.5,10,0,0.6254,42,0,42,0,1,,,,,,,,,,
,,5caf451e7692490017d22482,001,2023-07-31_20h45.16.491,arm3_eps,2022.2.5,Win32,143.6781609,5caf451e7692490017d22482,64c7fed44a04f777bb1e18ce,64c800cd7c180ee2d8649134,right,-1,0.75,0.5,10,0.003834104,0.7393,43,0,43,0,1,,,,,,,,,,
,,5caf451e7692490017d22482,001,2023-07-31_20h45.16.491,arm3_eps,2022.2.5,Win32,143.6781609,5caf451e7692490017d22482,64c7fed44a04f777bb1e18ce,64c800cd7c180ee2d8649134,right,-1,0.75,0.5,10,-0.040237663,0.4404,44,0,44,0,1,,,,,,,,,,
,,5caf451e7692490017d22482,001,2023-07-31_20h45.16.491,arm3_eps,2022.2.5,Win32,143.6781609,5caf451e7692490017d22482,64c7fed44a04f777bb1e18ce,64c800cd7c180ee2d8649134,down,-1,0.75,0.5,11,0,0.2894,45,0,45,0,1,,,,,,,,,,
,,5caf451e7692490017d22482,001,2023-07-31_20h45.16.491,arm3_eps,2022.2.5,Win32,143.6781609,5caf451e7692490017d22482,64c7fed44a04f777bb1e18ce,64c800cd7c180ee2d8649134,right,-1,0.75,0.5,11,-0.000223936,0.7392,46,0,46,0,1,,,,,,,,,,
,,5caf451e7692490017d22482,001,2023-07-31_20h45.16.491,arm3_eps,2022.2.5,Win32,143.6781609,5caf451e7692490017d22482,64c7fed44a04f777bb1e18ce,64c800cd7c180ee2d8649134,up,1,0.75,0.5,10,0,0.7606,47,0,47,0,1,,,,,,,,,,
,,5caf451e7692490017d22482,001,2023-07-31_20h45.16.491,arm3_eps,2022.2.5,Win32,143.6781609,5caf451e7692490017d22482,64c7fed44a04f777bb1e18ce,64c800cd7c180ee2d8649134,right,1,0.75,0.5,10,-0.006363569,0.8255,48,0,48,0,1,,,,,,,,,,
,,5caf451e7692490017d22482,001,2023-07-31_20h45.16.491,arm3_eps,2022.2.5,Win32,143.6781609,5caf451e7692490017d22482,64c7fed44a04f777bb1e18ce,64c800cd7c180ee2d8649134,up,1,0.75,0.5,10,-0.006363569,0.649,49,0,49,0,1,,,,,,,,,,
space,1.5462,5caf451e7692490017d22482,001,2023-07-31_20h45.16.491,arm3_eps,2022.2.5,Win32,143.6781609,5caf451e7692490017d22482,64c7fed44a04f777bb1e18ce,64c800cd7c180ee2d8649134,,,,,,,,,,,,,,,,,,,,,,
space,5.5496,5caf451e7692490017d22482,001,2023-07-31_20h45.16.491,arm3_eps,2022.2.5,Win32,143.6781609,5caf451e7692490017d22482,64c7fed44a04f777bb1e18ce,64c800cd7c180ee2d8649134,right,1,0.75,0.1786,0,0.006866798,0.8677,,,,,,0,0,0,0,1,,,,,
,,5caf451e7692490017d22482,001,2023-07-31_20h45.16.491,arm3_eps,2022.2.5,Win32,143.6781609,5caf451e7692490017d22482,64c7fed44a04f777bb1e18ce,64c800cd7c180ee2d8649134,right,1,0.75,0.1786,0,0.024678872,0.3405,,,,,,1,0,1,0,1,,,,,
,,5caf451e7692490017d22482,001,2023-07-31_20h45.16.491,arm3_eps,2022.2.5,Win32,143.6781609,5caf451e7692490017d22482,64c7fed44a04f777bb1e18ce,64c800cd7c180ee2d8649134,up,1,0.75,0.1786,1,0,0.3597,,,,,,2,0,2,0,1,,,,,
,,5caf451e7692490017d22482,001,2023-07-31_20h45.16.491,arm3_eps,2022.2.5,Win32,143.6781609,5caf451e7692490017d22482,64c7fed44a04f777bb1e18ce,64c800cd7c180ee2d8649134,right,1,0.75,0.1786,1,0.038216788,0.9475,,,,,,3,0,3,0,1,,,,,
,,5caf451e7692490017d22482,001,2023-07-31_20h45.16.491,arm3_eps,2022.2.5,Win32,143.6781609,5caf451e7692490017d22482,64c7fed44a04f777bb1e18ce,64c800cd7c180ee2d8649134,up,1,0.75,0.1786,2,0,0.3182,,,,,,4,0,4,0,1,,,,,
,,5caf451e7692490017d22482,001,2023-07-31_20h45.16.491,arm3_eps,2022.2.5,Win32,143.6781609,5caf451e7692490017d22482,64c7fed44a04f777bb1e18ce,64c800cd7c180ee2d8649134,right,1,0.75,0.1786,2,0.007367311,0.9324,,,,,,5,0,5,0,1,,,,,
,,5caf451e7692490017d22482,001,2023-07-31_20h45.16.491,arm3_eps,2022.2.5,Win32,143.6781609,5caf451e7692490017d22482,64c7fed44a04f777bb1e18ce,64c800cd7c180ee2d8649134,right,1,0.75,0.1786,2,0.009957355,0.2722,,,,,,6,0,6,0,1,,,,,
,,5caf451e7692490017d22482,001,2023-07-31_20h45.16.491,arm3_eps,2022.2.5,Win32,143.6781609,5caf451e7692490017d22482,64c7fed44a04f777bb1e18ce,64c800cd7c180ee2d8649134,up,1,0.75,0.1786,3,0,0.4564,,,,,,7,0,7,0,1,,,,,
,,5caf451e7692490017d22482,001,2023-07-31_20h45.16.491,arm3_eps,2022.2.5,Win32,143.6781609,5caf451e7692490017d22482,64c7fed44a04f777bb1e18ce,64c800cd7c180ee2d8649134,right,1,0.75,0.1786,3,0.014028101,0.7366,,,,,,8,0,8,0,1,,,,,
,,5caf451e7692490017d22482,001,2023-07-31_20h45.16.491,arm3_eps,2022.2.5,Win32,143.6781609,5caf451e7692490017d22482,64c7fed44a04f777bb1e18ce,64c800cd7c180ee2d8649134,up,1,0.75,0.1786,3,0,0.4549,,,,,,9,0,9,0,1,,,,,
,,5caf451e7692490017d22482,001,2023-07-31_20h45.16.491,arm3_eps,2022.2.5,Win32,143.6781609,5caf451e7692490017d22482,64c7fed44a04f777bb1e18ce,64c800cd7c180ee2d8649134,right,1,0.75,0.1786,3,-0.016070872,0.9117,,,,,,10,0,10,0,1,,,,,
,,5caf451e7692490017d22482,001,2023-07-31_20h45.16.491,arm3_eps,2022.2.5,Win32,143.6781609,5caf451e7692490017d22482,64c7fed44a04f777bb1e18ce,64c800cd7c180ee2d8649134,down,1,0.75,0.1786,2,0,0.4937,,,,,,11,0,11,0,1,,,,,
,,5caf451e7692490017d22482,001,2023-07-31_20h45.16.491,arm3_eps,2022.2.5,Win32,143.6781609,5caf451e7692490017d22482,64c7fed44a04f777bb1e18ce,64c800cd7c180ee2d8649134,right,1,0.75,0.1786,2,0.004856554,0.7576,,,,,,12,0,12,0,1,,,,,
,,5caf451e7692490017d22482,001,2023-07-31_20h45.16.491,arm3_eps,2022.2.5,Win32,143.6781609,5caf451e7692490017d22482,64c7fed44a04f777bb1e18ce,64c800cd7c180ee2d8649134,right,1,0.75,0.1786,2,-0.003276677,0.297,,,,,,13,0,13,0,1,,,,,
,,5caf451e7692490017d22482,001,2023-07-31_20h45.16.491,arm3_eps,2022.2.5,Win32,143.6781609,5caf451e7692490017d22482,64c7fed44a04f777bb1e18ce,64c800cd7c180ee2d8649134,right,1,0.75,0.1786,2,0.011058098,0.7688,,,,,,14,0,14,0,1,,,,,
,,5caf451e7692490017d22482,001,2023-07-31_20h45.16.491,arm3_eps,2022.2.5,Win32,143.6781609,5caf451e7692490017d22482,64c7fed44a04f777bb1e18ce,64c800cd7c180ee2d8649134,right,1,0.75,0.1786,2,-0.006068596,0.3951,,,,,,15,0,15,0,1,,,,,
,,5caf451e7692490017d22482,001,2023-07-31_20h45.16.491,arm3_eps,2022.2.5,Win32,143.6781609,5caf451e7692490017d22482,64c7fed44a04f777bb1e18ce,64c800cd7c180ee2d8649134,right,1,0.75,0.1786,2,0.008098221,0.3917,,,,,,16,0,16,0,1,,,,,
,,5caf451e7692490017d22482,001,2023-07-31_20h45.16.491,arm3_eps,2022.2.5,Win32,143.6781609,5caf451e7692490017d22482,64c7fed44a04f777bb1e18ce,64c800cd7c180ee2d8649134,up,-1,0.75,0.1786,3,0,0.7777,,,,,,17,0,17,0,1,,,,,
,,5caf451e7692490017d22482,001,2023-07-31_20h45.16.491,arm3_eps,2022.2.5,Win32,143.6781609,5caf451e7692490017d22482,64c7fed44a04f777bb1e18ce,64c800cd7c180ee2d8649134,right,-1,0.75,0.1786,3,0.016583423,0.7887,,,,,,18,0,18,0,1,,,,,
,,5caf451e7692490017d22482,001,2023-07-31_20h45.16.491,arm3_eps,2022.2.5,Win32,143.6781609,5caf451e7692490017d22482,64c7fed44a04f777bb1e18ce,64c800cd7c180ee2d8649134,right,-1,0.75,0.1786,3,0.002262958,0.5767,,,,,,19,0,19,0,1,,,,,
,,5caf451e7692490017d22482,001,2023-07-31_20h45.16.491,arm3_eps,2022.2.5,Win32,143.6781609,5caf451e7692490017d22482,64c7fed44a04f777bb1e18ce,64c800cd7c180ee2d8649134,right,-1,0.75,0.1786,3,-0.002128369,0.3524,,,,,,20,0,20,0,1,,,,,
,,5caf451e7692490017d22482,001,2023-07-31_20h45.16.491,arm3_eps,2022.2.5,Win32,143.6781609,5caf451e7692490017d22482,64c7fed44a04f777bb1e18ce,64c800cd7c180ee2d8649134,down,-1,0.75,0.1786,4,0,0.4101,,,,,,21,0,21,0,1,,,,,
,,5caf451e7692490017d22482,001,2023-07-31_20h45.16.491,arm3_eps,2022.2.5,Win32,143.6781609,5caf451e7692490017d22482,64c7fed44a04f777bb1e18ce,64c800cd7c180ee2d8649134,right,-1,0.75,0.1786,4,-0.030601538,0.6254,,,,,,22,0,22,0,1,,,,,
,,5caf451e7692490017d22482,001,2023-07-31_20h45.16.491,arm3_eps,2022.2.5,Win32,143.6781609,5caf451e7692490017d22482,64c7fed44a04f777bb1e18ce,64c800cd7c180ee2d8649134,right,-1,0.75,0.1786,4,-0.019619772,1.1948,,,,,,23,0,23,0,1,,,,,
,,5caf451e7692490017d22482,001,2023-07-31_20h45.16.491,arm3_eps,2022.2.5,Win32,143.6781609,5caf451e7692490017d22482,64c7fed44a04f777bb1e18ce,64c800cd7c180ee2d8649134,right,-1,0.75,0.1786,4,-0.026095672,0.3892,,,,,,24,0,24,0,1,,,,,
,,5caf451e7692490017d22482,001,2023-07-31_20h45.16.491,arm3_eps,2022.2.5,Win32,143.6781609,5caf451e7692490017d22482,64c7fed44a04f777bb1e18ce,64c800cd7c180ee2d8649134,down,1,0.75,0.1786,5,0,0.2349,,,,,,25,0,25,0,1,,,,,
,,5caf451e7692490017d22482,001,2023-07-31_20h45.16.491,arm3_eps,2022.2.5,Win32,143.6781609,5caf451e7692490017d22482,64c7fed44a04f777bb1e18ce,64c800cd7c180ee2d8649134,right,1,0.75,0.1786,5,0.018248698,0.7768,,,,,,26,0,26,0,1,,,,,
,,5caf451e7692490017d22482,001,2023-07-31_20h45.16.491,arm3_eps,2022.2.5,Win32,143.6781609,5caf451e7692490017d22482,64c7fed44a04f777bb1e18ce,64c800cd7c180ee2d8649134,right,1,0.75,0.1786,5,-0.009375682,0.3406,,,,,,27,0,27,0,1,,,,,
,,5caf451e7692490017d22482,001,2023-07-31_20h45.16.491,arm3_eps,2022.2.5,Win32,143.6781609,5caf451e7692490017d22482,64c7fed44a04f777bb1e18ce,64c800cd7c180ee2d8649134,down,1,0.75,0.1786,5,0,0.6028,,,,,,28,0,28,0,1,,,,,
,,5caf451e7692490017d22482,001,2023-07-31_20h45.16.491,arm3_eps,2022.2.5,Win32,143.6781609,5caf451e7692490017d22482,64c7fed44a04f777bb1e18ce,64c800cd7c180ee2d8649134,right,1,0.75,0.1786,5,0.002806174,0.7755,,,,,,29,0,29,0,1,,,,,
,,5caf451e7692490017d22482,001,2023-07-31_20h45.16.491,arm3_eps,2022.2.5,Win32,143.6781609,5caf451e7692490017d22482,64c7fed44a04f777bb1e18ce,64c800cd7c180ee2d8649134,right,1,0.75,0.1786,5,-0.005043273,0.2232,,,,,,30,0,30,0,1,,,,,
,,5caf451e7692490017d22482,001,2023-07-31_20h45.16.491,arm3_eps,2022.2.5,Win32,143.6781609,5caf451e7692490017d22482,64c7fed44a04f777bb1e18ce,64c800cd7c180ee2d8649134,right,1,0.75,0.1786,5,0.000848589,0.6317,,,,,,31,0,31,0,1,,,,,
,,5caf451e7692490017d22482,001,2023-07-31_20h45.16.491,arm3_eps,2022.2.5,Win32,143.6781609,5caf451e7692490017d22482,64c7fed44a04f777bb1e18ce,64c800cd7c180ee2d8649134,up,1,0.75,0.1786,6,0,0.6145,,,,,,32,0,32,0,1,,,,,
,,5caf451e7692490017d22482,001,2023-07-31_20h45.16.491,arm3_eps,2022.2.5,Win32,143.6781609,5caf451e7692490017d22482,64c7fed44a04f777bb1e18ce,64c800cd7c180ee2d8649134,right,1,0.75,0.1786,6,0.00725151,0.8407,,,,,,33,0,33,0,1,,,,,
,,5caf451e7692490017d22482,001,2023-07-31_20h45.16.491,arm3_eps,2022.2.5,Win32,143.6781609,5caf451e7692490017d22482,64c7fed44a04f777bb1e18ce,64c800cd7c180ee2d8649134,up,1,0.75,0.1786,6,0,0.5104,,,,,,34,0,34,0,1,,,,,
,,5caf451e7692490017d22482,001,2023-07-31_20h45.16.491,arm3_eps,2022.2.5,Win32,143.6781609,5caf451e7692490017d22482,64c7fed44a04f777bb1e18ce,64c800cd7c180ee2d8649134,right,1,0.75,0.1786,6,-0.004123234,0.9256,,,,,,35,0,35,0,1,,,,,
,,5caf451e7692490017d22482,001,2023-07-31_20h45.16.491,arm3_eps,2022.2.5,Win32,143.6781609,5caf451e7692490017d22482,64c7fed44a04f777bb1e18ce,64c800cd7c180ee2d8649134,up,1,0.75,0.1786,7,0,0.5638,,,,,,36,0,36,0,1,,,,,
,,5caf451e7692490017d22482,001,2023-07-31_20h45.16.491,arm3_eps,2022.2.5,Win32,143.6781609,5caf451e7692490017d22482,64c7fed44a04f777bb1e18ce,64c800cd7c180ee2d8649134,right,1,0.75,0.1786,7,-0.003660362,0.7548,,,,,,37,0,37,0,1,,,,,
,,5caf451e7692490017d22482,001,2023-07-31_20h45.16.491,arm3_eps,2022.2.5,Win32,143.6781609,5caf451e7692490017d22482,64c7fed44a04f777bb1e18ce,64c800cd7c180ee2d8649134,right,1,0.75,0.1786,7,0.011965624,0.4514,,,,,,38,0,38,0,1,,,,,
,,5caf451e7692490017d22482,001,2023-07-31_20h45.16.491,arm3_eps,2022.2.5,Win32,143.6781609,5caf451e7692490017d22482,64c7fed44a04f777bb1e18ce,64c800cd7c180ee2d8649134,up,1,0.75,0.1786,8,0,0.4788,,,,,,39,0,39,0,1,,,,,
,,5caf451e7692490017d22482,001,2023-07-31_20h45.16.491,arm3_eps,2022.2.5,Win32,143.6781609,5caf451e7692490017d22482,64c7fed44a04f777bb1e18ce,64c800cd7c180ee2d8649134,right,1,0.75,0.1786,8,0.005065838,0.7295,,,,,,40,0,40,0,1,,,,,
,,5caf451e7692490017d22482,001,2023-07-31_20h45.16.491,arm3_eps,2022.2.5,Win32,143.6781609,5caf451e7692490017d22482,64c7fed44a04f777bb1e18ce,64c800cd7c180ee2d8649134,right,1,0.75,0.1786,8,0.004713331,0.366,,,,,,41,0,41,0,1,,,,,
,,5caf451e7692490017d22482,001,2023-07-31_20h45.16.491,arm3_eps,2022.2.5,Win32,143.6781609,5caf451e7692490017d22482,64c7fed44a04f777bb1e18ce,64c800cd7c180ee2d8649134,up,-1,0.75,0.1786,9,0,0.5297,,,,,,42,0,42,0,1,,,,,
,,5caf451e7692490017d22482,001,2023-07-31_20h45.16.491,arm3_eps,2022.2.5,Win32,143.6781609,5caf451e7692490017d22482,64c7fed44a04f777bb1e18ce,64c800cd7c180ee2d8649134,right,-1,0.75,0.1786,9,0.025572549,0.6532,,,,,,43,0,43,0,1,,,,,
,,5caf451e7692490017d22482,001,2023-07-31_20h45.16.491,arm3_eps,2022.2.5,Win32,143.6781609,5caf451e7692490017d22482,64c7fed44a04f777bb1e18ce,64c800cd7c180ee2d8649134,up,-1,0.75,0.1786,9,0,0.7082,,,,,,44,0,44,0,1,,,,,
,,5caf451e7692490017d22482,001,2023-07-31_20h45.16.491,arm3_eps,2022.2.5,Win32,143.6781609,5caf451e7692490017d22482,64c7fed44a04f777bb1e18ce,64c800cd7c180ee2d8649134,right,-1,0.75,0.1786,9,-0.006637526,0.8762,,,,,,45,0,45,0,1,,,,,
,,5caf451e7692490017d22482,001,2023-07-31_20h45.16.491,arm3_eps,2022.2.5,Win32,143.6781609,5caf451e7692490017d22482,64c7fed44a04f777bb1e18ce,64c800cd7c180ee2d8649134,down,-1,0.75,0.1786,10,0,0.4989,,,,,,46,0,46,0,1,,,,,
,,5caf451e7692490017d22482,001,2023-07-31_20h45.16.491,arm3_eps,2022.2.5,Win32,143.6781609,5caf451e7692490017d22482,64c7fed44a04f777bb1e18ce,64c800cd7c180ee2d8649134,right,-1,0.75,0.1786,10,-0.024644754,1.0388,,,,,,47,0,47,0,1,,,,,
,,5caf451e7692490017d22482,001,2023-07-31_20h45.16.491,arm3_eps,2022.2.5,Win32,143.6781609,5caf451e7692490017d22482,64c7fed44a04f777bb1e18ce,64c800cd7c180ee2d8649134,down,1,0.75,0.1786,10,0,0.3128,,,,,,48,0,48,0,1,,,,,
,,5caf451e7692490017d22482,001,2023-07-31_20h45.16.491,arm3_eps,2022.2.5,Win32,143.6781609,5caf451e7692490017d22482,64c7fed44a04f777bb1e18ce,64c800cd7c180ee2d8649134,right,1,0.75,0.1786,10,-0.018856959,0.8131,,,,,,49,0,49,0,1,,,,,
,,5caf451e7692490017d22482,001,2023-07-31_20h45.16.491,arm3_eps,2022.2.5,Win32,143.6781609,5caf451e7692490017d22482,64c7fed44a04f777bb1e18ce,64c800cd7c180ee2d8649134,right,1,0.75,0.1786,10,0.002945218,0.7151,,,,,,50,0,50,0,1,,,,,
,,5caf451e7692490017d22482,001,2023-07-31_20h45.16.491,arm3_eps,2022.2.5,Win32,143.6781609,5caf451e7692490017d22482,64c7fed44a04f777bb1e18ce,64c800cd7c180ee2d8649134,right,1,0.75,0.1786,10,-0.000123561,0.5315,,,,,,51,0,51,0,1,,,,,
,,5caf451e7692490017d22482,001,2023-07-31_20h45.16.491,arm3_eps,2022.2.5,Win32,143.6781609,5caf451e7692490017d22482,64c7fed44a04f777bb1e18ce,64c800cd7c180ee2d8649134,right,1,0.75,0.1786,10,-0.009607045,0.7363,,,,,,52,0,52,0,1,,,,,
,,5caf451e7692490017d22482,001,2023-07-31_20h45.16.491,arm3_eps,2022.2.5,Win32,143.6781609,5caf451e7692490017d22482,64c7fed44a04f777bb1e18ce,64c800cd7c180ee2d8649134,down,1,0.75,0.1786,9,0,0.2501,,,,,,53,0,53,0,1,,,,,
,,5caf451e7692490017d22482,001,2023-07-31_20h45.16.491,arm3_eps,2022.2.5,Win32,143.6781609,5caf451e7692490017d22482,64c7fed44a04f777bb1e18ce,64c800cd7c180ee2d8649134,right,1,0.75,0.1786,9,0.023973247,0.7849,,,,,,54,0,54,0,1,,,,,
,,5caf451e7692490017d22482,001,2023-07-31_20h45.16.491,arm3_eps,2022.2.5,Win32,143.6781609,5caf451e7692490017d22482,64c7fed44a04f777bb1e18ce,64c800cd7c180ee2d8649134,right,1,0.75,0.1786,9,0.026491288,0.4311,,,,,,55,0,55,0,1,,,,,
,,5caf451e7692490017d22482,001,2023-07-31_20h45.16.491,arm3_eps,2022.2.5,Win32,143.6781609,5caf451e7692490017d22482,64c7fed44a04f777bb1e18ce,64c800cd7c180ee2d8649134,up,1,0.75,0.1786,9,0,0.3124,,,,,,56,0,56,0,1,,,,,
,,5caf451e7692490017d22482,001,2023-07-31_20h45.16.491,arm3_eps,2022.2.5,Win32,143.6781609,5caf451e7692490017d22482,64c7fed44a04f777bb1e18ce,64c800cd7c180ee2d8649134,right,1,0.75,0.1786,9,0.010630832,0.7707,,,,,,57,0,57,0,1,,,,,
,,5caf451e7692490017d22482,001,2023-07-31_20h45.16.491,arm3_eps,2022.2.5,Win32,143.6781609,5caf451e7692490017d22482,64c7fed44a04f777bb1e18ce,64c800cd7c180ee2d8649134,up,1,0.75,0.1786,10,0,0.5155,,,,,,58,0,58,0,1,,,,,
,,5caf451e7692490017d22482,001,2023-07-31_20h45.16.491,arm3_eps,2022.2.5,Win32,143.6781609,5caf451e7692490017d22482,64c7fed44a04f777bb1e18ce,64c800cd7c180ee2d8649134,right,1,0.75,0.1786,10,0.027449936,0.7845,,,,,,59,0,59,0,1,,,,,
,,5caf451e7692490017d22482,001,2023-07-31_20h45.16.491,arm3_eps,2022.2.5,Win32,143.6781609,5caf451e7692490017d22482,64c7fed44a04f777bb1e18ce,64c800cd7c180ee2d8649134,up,1,0.75,0.1786,10,0,0.7064,,,,,,60,0,60,0,1,,,,,
,,5caf451e7692490017d22482,001,2023-07-31_20h45.16.491,arm3_eps,2022.2.5,Win32,143.6781609,5caf451e7692490017d22482,64c7fed44a04f777bb1e18ce,64c800cd7c180ee2d8649134,right,1,0.75,0.1786,10,-0.012817694,0.7431,,,,,,61,0,61,0,1,,,,,
,,5caf451e7692490017d22482,001,2023-07-31_20h45.16.491,arm3_eps,2022.2.5,Win32,143.6781609,5caf451e7692490017d22482,64c7fed44a04f777bb1e18ce,64c800cd7c180ee2d8649134,right,1,0.75,0.1786,10,0.016465088,0.297,,,,,,62,0,62,0,1,,,,,
,,5caf451e7692490017d22482,001,2023-07-31_20h45.16.491,arm3_eps,2022.2.5,Win32,143.6781609,5caf451e7692490017d22482,64c7fed44a04f777bb1e18ce,64c800cd7c180ee2d8649134,up,1,0.75,0.1786,11,0,0.8275,,,,,,63,0,63,0,1,,,,,
,,5caf451e7692490017d22482,001,2023-07-31_20h45.16.491,arm3_eps,2022.2.5,Win32,143.6781609,5caf451e7692490017d22482,64c7fed44a04f777bb1e18ce,64c800cd7c180ee2d8649134,right,1,0.75,0.1786,11,-0.031056138,0.759,,,,,,64,0,64,0,1,,,,,
,,5caf451e7692490017d22482,001,2023-07-31_20h45.16.491,arm3_eps,2022.2.5,Win32,143.6781609,5caf451e7692490017d22482,64c7fed44a04f777bb1e18ce,64c800cd7c180ee2d8649134,right,1,0.75,0.1786,11,-0.032703943,0.3616,,,,,,65,0,65,0,1,,,,,
,,5caf451e7692490017d22482,001,2023-07-31_20h45.16.491,arm3_eps,2022.2.5,Win32,143.6781609,5caf451e7692490017d22482,64c7fed44a04f777bb1e18ce,64c800cd7c180ee2d8649134,right,1,0.75,0.1786,11,-0.020319913,1.0567,,,,,,66,0,66,0,1,,,,,
,,5caf451e7692490017d22482,001,2023-07-31_20h45.16.491,arm3_eps,2022.2.5,Win32,143.6781609,5caf451e7692490017d22482,64c7fed44a04f777bb1e18ce,64c800cd7c180ee2d8649134,right,1,0.75,0.1786,11,0.005008775,0.4525,,,,,,67,0,67,0,1,,,,,
,,5caf451e7692490017d22482,001,2023-07-31_20h45.16.491,arm3_eps,2022.2.5,Win32,143.6781609,5caf451e7692490017d22482,64c7fed44a04f777bb1e18ce,64c800cd7c180ee2d8649134,up,1,0.75,0.1786,12,0,0.3278,,,,,,68,0,68,0,1,,,,,
,,5caf451e7692490017d22482,001,2023-07-31_20h45.16.491,arm3_eps,2022.2.5,Win32,143.6781609,5caf451e7692490017d22482,64c7fed44a04f777bb1e18ce,64c800cd7c180ee2d8649134,right,1,0.75,0.1786,12,0.017271148,0.7433,,,,,,69,0,69,0,1,,,,,
,,5caf451e7692490017d22482,001,2023-07-31_20h45.16.491,arm3_eps,2022.2.5,Win32,143.6781609,5caf451e7692490017d22482,64c7fed44a04f777bb1e18ce,64c800cd7c180ee2d8649134,right,1,0.75,0.1786,12,0.014518569,0.3896,,,,,,70,0,70,0,1,,,,,
,,5caf451e7692490017d22482,001,2023-07-31_20h45.16.491,arm3_eps,2022.2.5,Win32,143.6781609,5caf451e7692490017d22482,64c7fed44a04f777bb1e18ce,64c800cd7c180ee2d8649134,right,1,0.75,0.1786,12,0.020951718,0.4908,,,,,,71,0,71,0,1,,,,,
,,5caf451e7692490017d22482,001,2023-07-31_20h45.16.491,arm3_eps,2022.2.5,Win32,143.6781609,5caf451e7692490017d22482,64c7fed44a04f777bb1e18ce,64c800cd7c180ee2d8649134,up,1,0.75,0.1786,13,0,0.5809,,,,,,72,0,72,0,1,,,,,
,,5caf451e7692490017d22482,001,2023-07-31_20h45.16.491,arm3_eps,2022.2.5,Win32,143.6781609,5caf451e7692490017d22482,64c7fed44a04f777bb1e18ce,64c800cd7c180ee2d8649134,right,1,0.75,0.1786,13,-0.004758099,0.629,,,,,,73,0,73,0,1,,,,,
,,5caf451e7692490017d22482,001,2023-07-31_20h45.16.491,arm3_eps,2022.2.5,Win32,143.6781609,5caf451e7692490017d22482,64c7fed44a04f777bb1e18ce,64c800cd7c180ee2d8649134,right,1,0.75,0.1786,13,-0.007779892,0.3368,,,,,,74,0,74,0,1,,,,,
,,5caf451e7692490017d22482,001,2023-07-31_20h45.16.491,arm3_eps,2022.2.5,Win32,143.6781609,5caf451e7692490017d22482,64c7fed44a04f777bb1e18ce,64c800cd7c180ee2d8649134,down,1,0.75,0.1786,12,0,0.9449,,,,,,75,0,75,0,1,,,,,
,,5caf451e7692490017d22482,001,2023-07-31_20h45.16.491,arm3_eps,2022.2.5,Win32,143.6781609,5caf451e7692490017d22482,64c7fed44a04f777bb1e18ce,64c800cd7c180ee2d8649134,right,1,0.75,0.1786,12,0.011712247,0.7392,,,,,,76,0,76,0,1,,,,,
,,5caf451e7692490017d22482,001,2023-07-31_20h45.16.491,arm3_eps,2022.2.5,Win32,143.6781609,5caf451e7692490017d22482,64c7fed44a04f777bb1e18ce,64c800cd7c180ee2d8649134,right,1,0.75,0.1786,12,0.028812094,0.4525,,,,,,77,0,77,0,1,,,,,
,,5caf451e7692490017d22482,001,2023-07-31_20h45.16.491,arm3_eps,2022.2.5,Win32,143.6781609,5caf451e7692490017d22482,64c7fed44a04f777bb1e18ce,64c800cd7c180ee2d8649134,up,1,0.75,0.1786,13,0,0.3205,,,,,,78,0,78,0,1,,,,,
,,5caf451e7692490017d22482,001,2023-07-31_20h45.16.491,arm3_eps,2022.2.5,Win32,143.6781609,5caf451e7692490017d22482,64c7fed44a04f777bb1e18ce,64c800cd7c180ee2d8649134,right,1,0.75,0.1786,13,0.027063412,0.5858,,,,,,79,0,79,0,1,,,,,
,,5caf451e7692490017d22482,001,2023-07-31_20h45.16.491,arm3_eps,2022.2.5,Win32,143.6781609,5caf451e7692490017d22482,64c7fed44a04f777bb1e18ce,64c800cd7c180ee2d8649134,up,1,0.75,0.1786,14,0,0.8059,,,,,,80,0,80,0,1,,,,,
,,5caf451e7692490017d22482,001,2023-07-31_20h45.16.491,arm3_eps,2022.2.5,Win32,143.6781609,5caf451e7692490017d22482,64c7fed44a04f777bb1e18ce,64c800cd7c180ee2d8649134,right,1,0.75,0.1786,14,0.025135647,0.587,,,,,,81,0,81,0,1,,,,,
,,5caf451e7692490017d22482,001,2023-07-31_20h45.16.491,arm3_eps,2022.2.5,Win32,143.6781609,5caf451e7692490017d22482,64c7fed44a04f777bb1e18ce,64c800cd7c180ee2d8649134,up,1,0.75,0.1786,15,0,0.39,,,,,,82,0,82,0,1,,,,,
,,5caf451e7692490017d22482,001,2023-07-31_20h45.16.491,arm3_eps,2022.2.5,Win32,143.6781609,5caf451e7692490017d22482,64c7fed44a04f777bb1e18ce,64c800cd7c180ee2d8649134,right,1,0.75,0.1786,15,-0.004083546,0.9025,,,,,,83,0,83,0,1,,,,,
,,5caf451e7692490017d22482,001,2023-07-31_20h45.16.491,arm3_eps,2022.2.5,Win32,143.6781609,5caf451e7692490017d22482,64c7fed44a04f777bb1e18ce,64c800cd7c180ee2d8649134,right,1,0.75,0.1786,15,-0.027278745,0.345,,,,,,84,0,84,0,1,,,,,
,,5caf451e7692490017d22482,001,2023-07-31_20h45.16.491,arm3_eps,2022.2.5,Win32,143.6781609,5caf451e7692490017d22482,64c7fed44a04f777bb1e18ce,64c800cd7c180ee2d8649134,right,1,0.75,0.1786,15,-0.019659362,0.3486,,,,,,85,0,85,0,1,,,,,
,,5caf451e7692490017d22482,001,2023-07-31_20h45.16.491,arm3_eps,2022.2.5,Win32,143.6781609,5caf451e7692490017d22482,64c7fed44a04f777bb1e18ce,64c800cd7c180ee2d8649134,right,1,0.75,0.1786,15,-0.009386449,0.3249,,,,,,86,0,86,0,1,,,,,
,,5caf451e7692490017d22482,001,2023-07-31_20h45.16.491,arm3_eps,2022.2.5,Win32,143.6781609,5caf451e7692490017d22482,64c7fed44a04f777bb1e18ce,64c800cd7c180ee2d8649134,right,1,0.75,0.1786,15,-0.007987802,0.5774,,,,,,87,0,87,0,1,,,,,
,,5caf451e7692490017d22482,001,2023-07-31_20h45.16.491,arm3_eps,2022.2.5,Win32,143.6781609,5caf451e7692490017d22482,64c7fed44a04f777bb1e18ce,64c800cd7c180ee2d8649134,right,1,0.75,0.1786,15,0.016279025,0.7157,,,,,,88,0,88,0,1,,,,,
,,5caf451e7692490017d22482,001,2023-07-31_20h45.16.491,arm3_eps,2022.2.5,Win32,143.6781609,5caf451e7692490017d22482,64c7fed44a04f777bb1e18ce,64c800cd7c180ee2d8649134,up,1,0.75,0.1786,15,0,0.3885,,,,,,89,0,89,0,1,,,,,
,,5caf451e7692490017d22482,001,2023-07-31_20h45.16.491,arm3_eps,2022.2.5,Win32,143.6781609,5caf451e7692490017d22482,64c7fed44a04f777bb1e18ce,64c800cd7c180ee2d8649134,right,1,0.75,0.1786,15,0.021060753,0.8694,,,,,,90,0,90,0,1,,,,,
,,5caf451e7692490017d22482,001,2023-07-31_20h45.16.491,arm3_eps,2022.2.5,Win32,143.6781609,5caf451e7692490017d22482,64c7fed44a04f777bb1e18ce,64c800cd7c180ee2d8649134,up,1,0.75,0.1786,16,0,0.4681,,,,,,91,0,91,0,1,,,,,
,,5caf451e7692490017d22482,001,2023-07-31_20h45.16.491,arm3_eps,2022.2.5,Win32,143.6781609,5caf451e7692490017d22482,64c7fed44a04f777bb1e18ce,64c800cd7c180ee2d8649134,right,1,0.75,0.1786,16,0.012474219,0.7579,,,,,,92,0,92,0,1,,,,,
,,5caf451e7692490017d22482,001,2023-07-31_20h45.16.491,arm3_eps,2022.2.5,Win32,143.6781609,5caf451e7692490017d22482,64c7fed44a04f777bb1e18ce,64c800cd7c180ee2d8649134,right,1,0.75,0.1786,16,0.018230359,0.2133,,,,,,93,0,93,0,1,,,,,
,,5caf451e7692490017d22482,001,2023-07-31_20h45.16.491,arm3_eps,2022.2.5,Win32,143.6781609,5caf451e7692490017d22482,64c7fed44a04f777bb1e18ce,64c800cd7c180ee2d8649134,up,1,0.75,0.1786,16,0,0.373,,,,,,94,0,94,0,1,,,,,
,,5caf451e7692490017d22482,001,2023-07-31_20h45.16.491,arm3_eps,2022.2.5,Win32,143.6781609,5caf451e7692490017d22482,64c7fed44a04f777bb1e18ce,64c800cd7c180ee2d8649134,right,1,0.75,0.1786,16,-0.00609075,0.7644,,,,,,95,0,95,0,1,,,,,
,,5caf451e7692490017d22482,001,2023-07-31_20h45.16.491,arm3_eps,2022.2.5,Win32,143.6781609,5caf451e7692490017d22482,64c7fed44a04f777bb1e18ce,64c800cd7c180ee2d8649134,right,1,0.75,0.1786,16,0.011409767,0.3037,,,,,,96,0,96,0,1,,,,,
,,5caf451e7692490017d22482,001,2023-07-31_20h45.16.491,arm3_eps,2022.2.5,Win32,143.6781609,5caf451e7692490017d22482,64c7fed44a04f777bb1e18ce,64c800cd7c180ee2d8649134,right,1,0.75,0.1786,16,0.017506447,0.3408,,,,,,97,0,97,0,1,,,,,
,,5caf451e7692490017d22482,001,2023-07-31_20h45.16.491,arm3_eps,2022.2.5,Win32,143.6781609,5caf451e7692490017d22482,64c7fed44a04f777bb1e18ce,64c800cd7c180ee2d8649134,up,1,0.75,0.1786,17,0,0.2834,,,,,,98,0,98,0,1,,,,,
,,5caf451e7692490017d22482,001,2023-07-31_20h45.16.491,arm3_eps,2022.2.5,Win32,143.6781609,5caf451e7692490017d22482,64c7fed44a04f777bb1e18ce,64c800cd7c180ee2d8649134,right,1,0.75,0.1786,17,0.027782443,0.8814,,,,,,99,0,99,0,1,,,,,
,,5caf451e7692490017d22482,001,2023-07-31_20h45.16.491,arm3_eps,2022.2.5,Win32,143.6781609,5caf451e7692490017d22482,64c7fed44a04f777bb1e18ce,64c800cd7c180ee2d8649134,up,1,0.75,0.1786,17,0,0.5204,,,,,,100,0,100,0,1,,,,,
,,5caf451e7692490017d22482,001,2023-07-31_20h45.16.491,arm3_eps,2022.2.5,Win32,143.6781609,5caf451e7692490017d22482,64c7fed44a04f777bb1e18ce,64c800cd7c180ee2d8649134,right,1,0.75,0.1786,17,0.019572299,0.8002,,,,,,101,0,101,0,1,,,,,
,,5caf451e7692490017d22482,001,2023-07-31_20h45.16.491,arm3_eps,2022.2.5,Win32,143.6781609,5caf451e7692490017d22482,64c7fed44a04f777bb1e18ce,64c800cd7c180ee2d8649134,up,1,0.75,0.1786,18,0,0.3406,,,,,,102,0,102,0,1,,,,,
,,5caf451e7692490017d22482,001,2023-07-31_20h45.16.491,arm3_eps,2022.2.5,Win32,143.6781609,5caf451e7692490017d22482,64c7fed44a04f777bb1e18ce,64c800cd7c180ee2d8649134,right,1,0.75,0.1786,18,-0.048465533,0.9043,,,,,,103,0,103,0,1,,,,,
,,5caf451e7692490017d22482,001,2023-07-31_20h45.16.491,arm3_eps,2022.2.5,Win32,143.6781609,5caf451e7692490017d22482,64c7fed44a04f777bb1e18ce,64c800cd7c180ee2d8649134,down,-1,0.75,0.1786,17,0,0.403,,,,,,104,0,104,0,1,,,,,
,,5caf451e7692490017d22482,001,2023-07-31_20h45.16.491,arm3_eps,2022.2.5,Win32,143.6781609,5caf451e7692490017d22482,64c7fed44a04f777bb1e18ce,64c800cd7c180ee2d8649134,right,-1,0.75,0.1786,17,0.022983764,0.7779,,,,,,105,0,105,0,1,,,,,
,,5caf451e7692490017d22482,001,2023-07-31_20h45.16.491,arm3_eps,2022.2.5,Win32,143.6781609,5caf451e7692490017d22482,64c7fed44a04f777bb1e18ce,64c800cd7c180ee2d8649134,right,-1,0.75,0.1786,17,0.005739872,0.3319,,,,,,106,0,106,0,1,,,,,
,,5caf451e7692490017d22482,001,2023-07-31_20h45.16.491,arm3_eps,2022.2.5,Win32,143.6781609,5caf451e7692490017d22482,64c7fed44a04f777bb1e18ce,64c800cd7c180ee2d8649134,right,-1,0.75,0.1786,17,0.002180452,0.6116,,,,,,107,0,107,0,1,,,,,
,,5caf451e7692490017d22482,001,2023-07-31_20h45.16.491,arm3_eps,2022.2.5,Win32,143.6781609,5caf451e7692490017d22482,64c7fed44a04f777bb1e18ce,64c800cd7c180ee2d8649134,right,-1,0.75,0.1786,17,0.016484311,0.5456,,,,,,108,0,108,0,1,,,,,
,,5caf451e7692490017d22482,001,2023-07-31_20h45.16.491,arm3_eps,2022.2.5,Win32,143.6781609,5caf451e7692490017d22482,64c7fed44a04f777bb1e18ce,64c800cd7c180ee2d8649134,right,-1,0.75,0.1786,17,-1.74662E-05,0.3278,,,,,,109,0,109,0,1,,,,,
,,5caf451e7692490017d22482,001,2023-07-31_20h45.16.491,arm3_eps,2022.2.5,Win32,143.6781609,5caf451e7692490017d22482,64c7fed44a04f777bb1e18ce,64c800cd7c180ee2d8649134,right,-1,0.75,0.1786,17,-0.006108745,0.3068,,,,,,110,0,110,0,1,,,,,
,,5caf451e7692490017d22482,001,2023-07-31_20h45.16.491,arm3_eps,2022.2.5,Win32,143.6781609,5caf451e7692490017d22482,64c7fed44a04f777bb1e18ce,64c800cd7c180ee2d8649134,down,1,0.75,0.1786,17,0,0.4858,,,,,,111,0,111,0,1,,,,,
,,5caf451e7692490017d22482,001,2023-07-31_20h45.16.491,arm3_eps,2022.2.5,Win32,143.6781609,5caf451e7692490017d22482,64c7fed44a04f777bb1e18ce,64c800cd7c180ee2d8649134,right,1,0.75,0.1786,17,-0.039887001,0.9391,,,,,,112,0,112,0,1,,,,,
,,5caf451e7692490017d22482,001,2023-07-31_20h45.16.491,arm3_eps,2022.2.5,Win32,143.6781609,5caf451e7692490017d22482,64c7fed44a04f777bb1e18ce,64c800cd7c180ee2d8649134,down,1,0.75,0.1786,16,0,0.7248,,,,,,113,0,113,0,1,,,,,
,,5caf451e7692490017d22482,001,2023-07-31_20h45.16.491,arm3_eps,2022.2.5,Win32,143.6781609,5caf451e7692490017d22482,64c7fed44a04f777bb1e18ce,64c800cd7c180ee2d8649134,right,1,0.75,0.1786,16,-0.018690963,0.7976,,,,,,114,0,114,0,1,,,,,
,,5caf451e7692490017d22482,001,2023-07-31_20h45.16.491,arm3_eps,2022.2.5,Win32,143.6781609,5caf451e7692490017d22482,64c7fed44a04f777bb1e18ce,64c800cd7c180ee2d8649134,right,1,0.75,0.1786,16,-0.03473348,0.2017,,,,,,115,0,115,0,1,,,,,
,,5caf451e7692490017d22482,001,2023-07-31_20h45.16.491,arm3_eps,2022.2.5,Win32,143.6781609,5caf451e7692490017d22482,64c7fed44a04f777bb1e18ce,64c800cd7c180ee2d8649134,right,1,0.75,0.1786,16,-0.035093635,0.7997,,,,,,116,0,116,0,1,,,,,
,,5caf451e7692490017d22482,001,2023-07-31_20h45.16.491,arm3_eps,2022.2.5,Win32,143.6781609,5caf451e7692490017d22482,64c7fed44a04f777bb1e18ce,64c800cd7c180ee2d8649134,right,1,0.75,0.1786,16,-0.035042843,0.328,,,,,,117,0,117,0,1,,,,,
,,5caf451e7692490017d22482,001,2023-07-31_20h45.16.491,arm3_eps,2022.2.5,Win32,143.6781609,5caf451e7692490017d22482,64c7fed44a04f777bb1e18ce,64c800cd7c180ee2d8649134,right,1,0.75,0.1786,16,-0.005580805,0.4858,,,,,,118,0,118,0,1,,,,,
,,5caf451e7692490017d22482,001,2023-07-31_20h45.16.491,arm3_eps,2022.2.5,Win32,143.6781609,5caf451e7692490017d22482,64c7fed44a04f777bb1e18ce,64c800cd7c180ee2d8649134,right,1,0.75,0.1786,16,0.007205442,0.2131,,,,,,119,0,119,0,1,,,,,
,,5caf451e7692490017d22482,001,2023-07-31_20h45.16.491,arm3_eps,2022.2.5,Win32,143.6781609,5caf451e7692490017d22482,64c7fed44a04f777bb1e18ce,64c800cd7c180ee2d8649134,right,1,0.75,0.1786,16,0.003241175,0.3275,,,,,,120,0,120,0,1,,,,,
,,5caf451e7692490017d22482,001,2023-07-31_20h45.16.491,arm3_eps,2022.2.5,Win32,143.6781609,5caf451e7692490017d22482,64c7fed44a04f777bb1e18ce,64c800cd7c180ee2d8649134,down,1,0.75,0.1786,15,0,0.7013,,,,,,121,0,121,0,1,,,,,
,,5caf451e7692490017d22482,001,2023-07-31_20h45.16.491,arm3_eps,2022.2.5,Win32,143.6781609,5caf451e7692490017d22482,64c7fed44a04f777bb1e18ce,64c800cd7c180ee2d8649134,right,1,0.75,0.1786,15,0.01057448,0.7776,,,,,,122,0,122,0,1,,,,,
,,5caf451e7692490017d22482,001,2023-07-31_20h45.16.491,arm3_eps,2022.2.5,Win32,143.6781609,5caf451e7692490017d22482,64c7fed44a04f777bb1e18ce,64c800cd7c180ee2d8649134,right,1,0.75,0.1786,15,0.009343719,0.2677,,,,,,123,0,123,0,1,,,,,
,,5caf451e7692490017d22482,001,2023-07-31_20h45.16.491,arm3_eps,2022.2.5,Win32,143.6781609,5caf451e7692490017d22482,64c7fed44a04f777bb1e18ce,64c800cd7c180ee2d8649134,right,1,0.75,0.1786,15,0.00853797,0.4419,,,,,,124,0,124,0,1,,,,,
,,5caf451e7692490017d22482,001,2023-07-31_20h45.16.491,arm3_eps,2022.2.5,Win32,143.6781609,5caf451e7692490017d22482,64c7fed44a04f777bb1e18ce,64c800cd7c180ee2d8649134,right,1,0.75,0.1786,15,0.006003393,0.373,,,,,,125,0,125,0,1,,,,,
,,5caf451e7692490017d22482,001,2023-07-31_20h45.16.491,arm3_eps,2022.2.5,Win32,143.6781609,5caf451e7692490017d22482,64c7fed44a04f777bb1e18ce,64c800cd7c180ee2d8649134,right,1,0.75,0.1786,15,0.002396178,0.3311,,,,,,126,0,126,0,1,,,,,
,,5caf451e7692490017d22482,001,2023-07-31_20h45.16.491,arm3_eps,2022.2.5,Win32,143.6781609,5caf451e7692490017d22482,64c7fed44a04f777bb1e18ce,64c800cd7c180ee2d8649134,right,1,0.75,0.1786,15,0.01504548,0.2756,,,,,,127,0,127,0,1,,,,,
,,5caf451e7692490017d22482,001,2023-07-31_20h45.16.491,arm3_eps,2022.2.5,Win32,143.6781609,5caf451e7692490017d22482,64c7fed44a04f777bb1e18ce,64c800cd7c180ee2d8649134,right,1,0.75,0.1786,15,0.006281901,0.301,,,,,,128,0,128,0,1,,,,,
,,5caf451e7692490017d22482,001,2023-07-31_20h45.16.491,arm3_eps,2022.2.5,Win32,143.6781609,5caf451e7692490017d22482,64c7fed44a04f777bb1e18ce,64c800cd7c180ee2d8649134,right,1,0.75,0.1786,15,-0.003477863,0.2925,,,,,,129,0,129,0,1,,,,,
,,5caf451e7692490017d22482,001,2023-07-31_20h45.16.491,arm3_eps,2022.2.5,Win32,143.6781609,5caf451e7692490017d22482,64c7fed44a04f777bb1e18ce,64c800cd7c180ee2d8649134,up,1,0.75,0.1786,16,0,1.0771,,,,,,130,0,130,0,1,,,,,
,,5caf451e7692490017d22482,001,2023-07-31_20h45.16.491,arm3_eps,2022.2.5,Win32,143.6781609,5caf451e7692490017d22482,64c7fed44a04f777bb1e18ce,64c800cd7c180ee2d8649134,right,1,0.75,0.1786,16,-0.006925814,0.7522,,,,,,131,0,131,0,1,,,,,
,,5caf451e7692490017d22482,001,2023-07-31_20h45.16.491,arm3_eps,2022.2.5,Win32,143.6781609,5caf451e7692490017d22482,64c7fed44a04f777bb1e18ce,64c800cd7c180ee2d8649134,right,1,0.75,0.1786,16,0.002315793,0.2167,,,,,,132,0,132,0,1,,,,,
,,5caf451e7692490017d22482,001,2023-07-31_20h45.16.491,arm3_eps,2022.2.5,Win32,143.6781609,5caf451e7692490017d22482,64c7fed44a04f777bb1e18ce,64c800cd7c180ee2d8649134,right,1,0.75,0.1786,16,0.015440917,0.1909,,,,,,133,0,133,0,1,,,,,
,,5caf451e7692490017d22482,001,2023-07-31_20h45.16.491,arm3_eps,2022.2.5,Win32,143.6781609,5caf451e7692490017d22482,64c7fed44a04f777bb1e18ce,64c800cd7c180ee2d8649134,right,1,0.75,0.1786,16,0.018744753,0.3334,,,,,,134,0,134,0,1,,,,,
,,5caf451e7692490017d22482,001,2023-07-31_20h45.16.491,arm3_eps,2022.2.5,Win32,143.6781609,5caf451e7692490017d22482,64c7fed44a04f777bb1e18ce,64c800cd7c180ee2d8649134,up,-1,0.75,0.1786,17,0,0.4148,,,,,,135,0,135,0,1,,,,,
,,5caf451e7692490017d22482,001,2023-07-31_20h45.16.491,arm3_eps,2022.2.5,Win32,143.6781609,5caf451e7692490017d22482,64c7fed44a04f777bb1e18ce,64c800cd7c180ee2d8649134,right,-1,0.75,0.1786,17,0.001699538,0.7502,,,,,,136,0,136,0,1,,,,,
,,5caf451e7692490017d22482,001,2023-07-31_20h45.16.491,arm3_eps,2022.2.5,Win32,143.6781609,5caf451e7692490017d22482,64c7fed44a04f777bb1e18ce,64c800cd7c180ee2d8649134,right,-1,0.75,0.1786,17,-0.011373629,0.4304,,,,,,137,0,137,0,1,,,,,
,,5caf451e7692490017d22482,001,2023-07-31_20h45.16.491,arm3_eps,2022.2.5,Win32,143.6781609,5caf451e7692490017d22482,64c7fed44a04f777bb1e18ce,64c800cd7c180ee2d8649134,right,-1,0.75,0.1786,17,-0.001196387,0.4248,,,,,,138,0,138,0,1,,,,,
,,5caf451e7692490017d22482,001,2023-07-31_20h45.16.491,arm3_eps,2022.2.5,Win32,143.6781609,5caf451e7692490017d22482,64c7fed44a04f777bb1e18ce,64c800cd7c180ee2d8649134,right,-1,0.75,0.1786,17,-0.015682396,0.2293,,,,,,139,0,139,0,1,,,,,
,,5caf451e7692490017d22482,001,2023-07-31_20h45.16.491,arm3_eps,2022.2.5,Win32,143.6781609,5caf451e7692490017d22482,64c7fed44a04f777bb1e18ce,64c800cd7c180ee2d8649134,right,-1,0.75,0.1786,17,-0.018619394,0.3821,,,,,,140,0,140,0,1,,,,,
,,5caf451e7692490017d22482,001,2023-07-31_20h45.16.491,arm3_eps,2022.2.5,Win32,143.6781609,5caf451e7692490017d22482,64c7fed44a04f777bb1e18ce,64c800cd7c180ee2d8649134,right,-1,0.75,0.1786,17,-0.018414118,0.4399,,,,,,141,0,141,0,1,,,,,
,,5caf451e7692490017d22482,001,2023-07-31_20h45.16.491,arm3_eps,2022.2.5,Win32,143.6781609,5caf451e7692490017d22482,64c7fed44a04f777bb1e18ce,64c800cd7c180ee2d8649134,down,-1,0.75,0.1786,17,0,0.4282,,,,,,142,0,142,0,1,,,,,
,,5caf451e7692490017d22482,001,2023-07-31_20h45.16.491,arm3_eps,2022.2.5,Win32,143.6781609,5caf451e7692490017d22482,64c7fed44a04f777bb1e18ce,64c800cd7c180ee2d8649134,right,-1,0.75,0.1786,17,-0.006910716,0.7468,,,,,,143,0,143,0,1,,,,,
,,5caf451e7692490017d22482,001,2023-07-31_20h45.16.491,arm3_eps,2022.2.5,Win32,143.6781609,5caf451e7692490017d22482,64c7fed44a04f777bb1e18ce,64c800cd7c180ee2d8649134,right,-1,0.75,0.1786,17,-0.011632932,0.1847,,,,,,144,0,144,0,1,,,,,
,,5caf451e7692490017d22482,001,2023-07-31_20h45.16.491,arm3_eps,2022.2.5,Win32,143.6781609,5caf451e7692490017d22482,64c7fed44a04f777bb1e18ce,64c800cd7c180ee2d8649134,right,-1,0.75,0.1786,17,0.003486853,0.5565,,,,,,145,0,145,0,1,,,,,
,,5caf451e7692490017d22482,001,2023-07-31_20h45.16.491,arm3_eps,2022.2.5,Win32,143.6781609,5caf451e7692490017d22482,64c7fed44a04f777bb1e18ce,64c800cd7c180ee2d8649134,right,-1,0.75,0.1786,17,-0.000768461,0.2879,,,,,,146,0,146,0,1,,,,,
,,5caf451e7692490017d22482,001,2023-07-31_20h45.16.491,arm3_eps,2022.2.5,Win32,143.6781609,5caf451e7692490017d22482,64c7fed44a04f777bb1e18ce,64c800cd7c180ee2d8649134,up,-1,0.75,0.1786,16,0,0.4635,,,,,,147,0,147,0,1,,,,,
,,5caf451e7692490017d22482,001,2023-07-31_20h45.16.491,arm3_eps,2022.2.5,Win32,143.6781609,5caf451e7692490017d22482,64c7fed44a04f777bb1e18ce,64c800cd7c180ee2d8649134,right,-1,0.75,0.1786,16,-0.019476037,0.6462,,,,,,148,0,148,0,1,,,,,
,,5caf451e7692490017d22482,001,2023-07-31_20h45.16.491,arm3_eps,2022.2.5,Win32,143.6781609,5caf451e7692490017d22482,64c7fed44a04f777bb1e18ce,64c800cd7c180ee2d8649134,right,-1,0.75,0.1786,16,-0.049043109,0.1764,,,,,,149,0,149,0,1,,,,,
,,5caf451e7692490017d22482,001,2023-07-31_20h45.16.491,arm3_eps,2022.2.5,Win32,143.6781609,5caf451e7692490017d22482,64c7fed44a04f777bb1e18ce,64c800cd7c180ee2d8649134,right,-1,0.75,0.1786,16,-0.056550168,0.2274,,,,,,150,0,150,0,1,,,,,
,,5caf451e7692490017d22482,001,2023-07-31_20h45.16.491,arm3_eps,2022.2.5,Win32,143.6781609,5caf451e7692490017d22482,64c7fed44a04f777bb1e18ce,64c800cd7c180ee2d8649134,right,-1,0.75,0.1786,16,-0.059577426,0.325,,,,,,151,0,151,0,1,,,,,
,,5caf451e7692490017d22482,001,2023-07-31_20h45.16.491,arm3_eps,2022.2.5,Win32,143.6781609,5caf451e7692490017d22482,64c7fed44a04f777bb1e18ce,64c800cd7c180ee2d8649134,right,-1,0.75,0.1786,16,-0.064986819,0.3161,,,,,,152,0,152,0,1,,,,,
,,5caf451e7692490017d22482,001,2023-07-31_20h45.16.491,arm3_eps,2022.2.5,Win32,143.6781609,5caf451e7692490017d22482,64c7fed44a04f777bb1e18ce,64c800cd7c180ee2d8649134,down,-1,0.75,0.1786,17,0,0.2062,,,,,,153,0,153,0,1,,,,,
,,5caf451e7692490017d22482,001,2023-07-31_20h45.16.491,arm3_eps,2022.2.5,Win32,143.6781609,5caf451e7692490017d22482,64c7fed44a04f777bb1e18ce,64c800cd7c180ee2d8649134,right,-1,0.75,0.1786,17,-0.008131471,0.7664,,,,,,154,0,154,0,1,,,,,
,,5caf451e7692490017d22482,001,2023-07-31_20h45.16.491,arm3_eps,2022.2.5,Win32,143.6781609,5caf451e7692490017d22482,64c7fed44a04f777bb1e18ce,64c800cd7c180ee2d8649134,right,-1,0.75,0.1786,17,-0.026227954,0.2666,,,,,,155,0,155,0,1,,,,,
,,5caf451e7692490017d22482,001,2023-07-31_20h45.16.491,arm3_eps,2022.2.5,Win32,143.6781609,5caf451e7692490017d22482,64c7fed44a04f777bb1e18ce,64c800cd7c180ee2d8649134,down,-1,0.75,0.1786,17,0,0.8178,,,,,,156,0,156,0,1,,,,,
,,5caf451e7692490017d22482,001,2023-07-31_20h45.16.491,arm3_eps,2022.2.5,Win32,143.6781609,5caf451e7692490017d22482,64c7fed44a04f777bb1e18ce,64c800cd7c180ee2d8649134,right,-1,0.75,0.1786,17,0.009404055,0.7948,,,,,,157,0,157,0,1,,,,,
,,5caf451e7692490017d22482,001,2023-07-31_20h45.16.491,arm3_eps,2022.2.5,Win32,143.6781609,5caf451e7692490017d22482,64c7fed44a04f777bb1e18ce,64c800cd7c180ee2d8649134,right,-1,0.75,0.1786,17,-0.012992095,0.2194,,,,,,158,0,158,0,1,,,,,
,,5caf451e7692490017d22482,001,2023-07-31_20h45.16.491,arm3_eps,2022.2.5,Win32,143.6781609,5caf451e7692490017d22482,64c7fed44a04f777bb1e18ce,64c800cd7c180ee2d8649134,right,-1,0.75,0.1786,17,-0.005434203,0.3746,,,,,,159,0,159,0,1,,,,,
,,5caf451e7692490017d22482,001,2023-07-31_20h45.16.491,arm3_eps,2022.2.5,Win32,143.6781609,5caf451e7692490017d22482,64c7fed44a04f777bb1e18ce,64c800cd7c180ee2d8649134,right,-1,0.75,0.1786,17,0.013223008,0.8738,,,,,,160,0,160,0,1,,,,,
,,5caf451e7692490017d22482,001,2023-07-31_20h45.16.491,arm3_eps,2022.2.5,Win32,143.6781609,5caf451e7692490017d22482,64c7fed44a04f777bb1e18ce,64c800cd7c180ee2d8649134,up,-1,0.75,0.1786,16,0,0.311,,,,,,161,0,161,0,1,,,,,
,,5caf451e7692490017d22482,001,2023-07-31_20h45.16.491,arm3_eps,2022.2.5,Win32,143.6781609,5caf451e7692490017d22482,64c7fed44a04f777bb1e18ce,64c800cd7c180ee2d8649134,right,-1,0.75,0.1786,16,-0.010407942,0.7579,,,,,,162,0,162,0,1,,,,,
,,5caf451e7692490017d22482,001,2023-07-31_20h45.16.491,arm3_eps,2022.2.5,Win32,143.6781609,5caf451e7692490017d22482,64c7fed44a04f777bb1e18ce,64c800cd7c180ee2d8649134,right,-1,0.75,0.1786,16,-0.018587825,0.4266,,,,,,163,0,163,0,1,,,,,
,,5caf451e7692490017d22482,001,2023-07-31_20h45.16.491,arm3_eps,2022.2.5,Win32,143.6781609,5caf451e7692490017d22482,64c7fed44a04f777bb1e18ce,64c800cd7c180ee2d8649134,right,-1,0.75,0.1786,16,-0.013463513,0.4294,,,,,,164,0,164,0,1,,,,,
,,5caf451e7692490017d22482,001,2023-07-31_20h45.16.491,arm3_eps,2022.2.5,Win32,143.6781609,5caf451e7692490017d22482,64c7fed44a04f777bb1e18ce,64c800cd7c180ee2d8649134,right,-1,0.75,0.1786,16,-0.036033504,0.2481,,,,,,165,0,165,0,1,,,,,
,,5caf451e7692490017d22482,001,2023-07-31_20h45.16.491,arm3_eps,2022.2.5,Win32,143.6781609,5caf451e7692490017d22482,64c7fed44a04f777bb1e18ce,64c800cd7c180ee2d8649134,down,-1,0.75,0.1786,17,0,0.3736,,,,,,166,0,166,0,1,,,,,
,,5caf451e7692490017d22482,001,2023-07-31_20h45.16.491,arm3_eps,2022.2.5,Win32,143.6781609,5caf451e7692490017d22482,64c7fed44a04f777bb1e18ce,64c800cd7c180ee2d8649134,right,-1,0.75,0.1786,17,0.012342527,0.6034,,,,,,167,0,167,0,1,,,,,
,,5caf451e7692490017d22482,001,2023-07-31_20h45.16.491,arm3_eps,2022.2.5,Win32,143.6781609,5caf451e7692490017d22482,64c7fed44a04f777bb1e18ce,64c800cd7c180ee2d8649134,right,-1,0.75,0.1786,17,-0.001807085,0.2898,,,,,,168,0,168,0,1,,,,,
,,5caf451e7692490017d22482,001,2023-07-31_20h45.16.491,arm3_eps,2022.2.5,Win32,143.6781609,5caf451e7692490017d22482,64c7fed44a04f777bb1e18ce,64c800cd7c180ee2d8649134,right,-1,0.75,0.1786,17,-0.008122079,0.3704,,,,,,169,0,169,0,1,,,,,
,,5caf451e7692490017d22482,001,2023-07-31_20h45.16.491,arm3_eps,2022.2.5,Win32,143.6781609,5caf451e7692490017d22482,64c7fed44a04f777bb1e18ce,64c800cd7c180ee2d8649134,right,-1,0.75,0.1786,17,0.020901274,0.6303,,,,,,170,0,170,0,1,,,,,
,,5caf451e7692490017d22482,001,2023-07-31_20h45.16.491,arm3_eps,2022.2.5,Win32,143.6781609,5caf451e7692490017d22482,64c7fed44a04f777bb1e18ce,64c800cd7c180ee2d8649134,up,1,0.75,0.1786,16,0,0.4657,,,,,,171,0,171,0,1,,,,,
,,5caf451e7692490017d22482,001,2023-07-31_20h45.16.491,arm3_eps,2022.2.5,Win32,143.6781609,5caf451e7692490017d22482,64c7fed44a04f777bb1e18ce,64c800cd7c180ee2d8649134,right,1,0.75,0.1786,16,0.018294652,0.6313,,,,,,172,0,172,0,1,,,,,
,,5caf451e7692490017d22482,001,2023-07-31_20h45.16.491,arm3_eps,2022.2.5,Win32,143.6781609,5caf451e7692490017d22482,64c7fed44a04f777bb1e18ce,64c800cd7c180ee2d8649134,right,1,0.75,0.1786,16,0.012723182,0.2015,,,,,,173,0,173,0,1,,,,,
,,5caf451e7692490017d22482,001,2023-07-31_20h45.16.491,arm3_eps,2022.2.5,Win32,143.6781609,5caf451e7692490017d22482,64c7fed44a04f777bb1e18ce,64c800cd7c180ee2d8649134,right,1,0.75,0.1786,16,0.033600319,0.1835,,,,,,174,0,174,0,1,,,,,
,,5caf451e7692490017d22482,001,2023-07-31_20h45.16.491,arm3_eps,2022.2.5,Win32,143.6781609,5caf451e7692490017d22482,64c7fed44a04f777bb1e18ce,64c800cd7c180ee2d8649134,up,-1,0.75,0.1786,16,0,0.7847,,,,,,175,0,175,0,1,,,,,
,,5caf451e7692490017d22482,001,2023-07-31_20h45.16.491,arm3_eps,2022.2.5,Win32,143.6781609,5caf451e7692490017d22482,64c7fed44a04f777bb1e18ce,64c800cd7c180ee2d8649134,right,-1,0.75,0.1786,16,0.004704499,0.7771,,,,,,176,0,176,0,1,,,,,
,,5caf451e7692490017d22482,001,2023-07-31_20h45.16.491,arm3_eps,2022.2.5,Win32,143.6781609,5caf451e7692490017d22482,64c7fed44a04f777bb1e18ce,64c800cd7c180ee2d8649134,right,-1,0.75,0.1786,16,-0.022601373,0.1946,,,,,,177,0,177,0,1,,,,,
,,5caf451e7692490017d22482,001,2023-07-31_20h45.16.491,arm3_eps,2022.2.5,Win32,143.6781609,5caf451e7692490017d22482,64c7fed44a04f777bb1e18ce,64c800cd7c180ee2d8649134,down,-1,0.75,0.1786,17,0,0.5051,,,,,,178,0,178,0,1,,,,,
,,5caf451e7692490017d22482,001,2023-07-31_20h45.16.491,arm3_eps,2022.2.5,Win32,143.6781609,5caf451e7692490017d22482,64c7fed44a04f777bb1e18ce,64c800cd7c180ee2d8649134,right,-1,0.75,0.1786,17,-0.026120304,0.6949,,,,,,179,0,179,0,1,,,,,
,,5caf451e7692490017d22482,001,2023-07-31_20h45.16.491,arm3_eps,2022.2.5,Win32,143.6781609,5caf451e7692490017d22482,64c7fed44a04f777bb1e18ce,64c800cd7c180ee2d8649134,right,-1,0.75,0.1786,17,-0.028332432,0.153,,,,,,180,0,180,0,1,,,,,
,,5caf451e7692490017d22482,001,2023-07-31_20h45.16.491,arm3_eps,2022.2.5,Win32,143.6781609,5caf451e7692490017d22482,64c7fed44a04f777bb1e18ce,64c800cd7c180ee2d8649134,right,-1,0.75,0.1786,17,-0.04451514,0.2981,,,,,,181,0,181,0,1,,,,,
,,5caf451e7692490017d22482,001,2023-07-31_20h45.16.491,arm3_eps,2022.2.5,Win32,143.6781609,5caf451e7692490017d22482,64c7fed44a04f777bb1e18ce,64c800cd7c180ee2d8649134,down,-1,0.75,0.1786,18,0,0.2947,,,,,,182,0,182,0,1,,,,,
,,5caf451e7692490017d22482,001,2023-07-31_20h45.16.491,arm3_eps,2022.2.5,Win32,143.6781609,5caf451e7692490017d22482,64c7fed44a04f777bb1e18ce,64c800cd7c180ee2d8649134,right,-1,0.75,0.1786,18,0.030096139,0.5697,,,,,,183,0,183,0,1,,,,,
,,5caf451e7692490017d22482,001,2023-07-31_20h45.16.491,arm3_eps,2022.2.5,Win32,143.6781609,5caf451e7692490017d22482,64c7fed44a04f777bb1e18ce,64c800cd7c180ee2d8649134,right,-1,0.75,0.1786,18,0.014752315,0.4261,,,,,,184,0,184,0,1,,,,,
,,5caf451e7692490017d22482,001,2023-07-31_20h45.16.491,arm3_eps,2022.2.5,Win32,143.6781609,5caf451e7692490017d22482,64c7fed44a04f777bb1e18ce,64c800cd7c180ee2d8649134,right,-1,0.75,0.1786,18,0.011091262,0.3249,,,,,,185,0,185,0,1,,,,,
,,5caf451e7692490017d22482,001,2023-07-31_20h45.16.491,arm3_eps,2022.2.5,Win32,143.6781609,5caf451e7692490017d22482,64c7fed44a04f777bb1e18ce,64c800cd7c180ee2d8649134,right,-1,0.75,0.1786,18,-0.013424278,0.3358,,,,,,186,0,186,0,1,,,,,
,,5caf451e7692490017d22482,001,2023-07-31_20h45.16.491,arm3_eps,2022.2.5,Win32,143.6781609,5caf451e7692490017d22482,64c7fed44a04f777bb1e18ce,64c800cd7c180ee2d8649134,down,-1,0.75,0.1786,19,0,0.3086,,,,,,187,0,187,0,1,,,,,
,,5caf451e7692490017d22482,001,2023-07-31_20h45.16.491,arm3_eps,2022.2.5,Win32,143.6781609,5caf451e7692490017d22482,64c7fed44a04f777bb1e18ce,64c800cd7c180ee2d8649134,right,-1,0.75,0.1786,19,-0.009448267,0.6065,,,,,,188,0,188,0,1,,,,,
,,5caf451e7692490017d22482,001,2023-07-31_20h45.16.491,arm3_eps,2022.2.5,Win32,143.6781609,5caf451e7692490017d22482,64c7fed44a04f777bb1e18ce,64c800cd7c180ee2d8649134,right,-1,0.75,0.1786,19,-0.029184292,0.3213,,,,,,189,0,189,0,1,,,,,
,,5caf451e7692490017d22482,001,2023-07-31_20h45.16.491,arm3_eps,2022.2.5,Win32,143.6781609,5caf451e7692490017d22482,64c7fed44a04f777bb1e18ce,64c800cd7c180ee2d8649134,down,1,0.75,0.1786,20,0,0.4764,,,,,,190,0,190,0,1,,,,,
,,5caf451e7692490017d22482,001,2023-07-31_20h45.16.491,arm3_eps,2022.2.5,Win32,143.6781609,5caf451e7692490017d22482,64c7fed44a04f777bb1e18ce,64c800cd7c180ee2d8649134,right,1,0.75,0.1786,20,0.007724307,0.7605,,,,,,191,0,191,0,1,,,,,
,,5caf451e7692490017d22482,001,2023-07-31_20h45.16.491,arm3_eps,2022.2.5,Win32,143.6781609,5caf451e7692490017d22482,64c7fed44a04f777bb1e18ce,64c800cd7c180ee2d8649134,right,1,0.75,0.1786,20,0.019742468,0.3339,,,,,,192,0,192,0,1,,,,,
,,5caf451e7692490017d22482,001,2023-07-31_20h45.16.491,arm3_eps,2022.2.5,Win32,143.6781609,5caf451e7692490017d22482,64c7fed44a04f777bb1e18ce,64c800cd7c180ee2d8649134,up,-1,0.75,0.1786,20,0,0.3923,,,,,,193,0,193,0,1,,,,,
,,5caf451e7692490017d22482,001,2023-07-31_20h45.16.491,arm3_eps,2022.2.5,Win32,143.6781609,5caf451e7692490017d22482,64c7fed44a04f777bb1e18ce,64c800cd7c180ee2d8649134,right,-1,0.75,0.1786,20,-0.035390227,0.8406,,,,,,194,0,194,0,1,,,,,
,,5caf451e7692490017d22482,001,2023-07-31_20h45.16.491,arm3_eps,2022.2.5,Win32,143.6781609,5caf451e7692490017d22482,64c7fed44a04f777bb1e18ce,64c800cd7c180ee2d8649134,down,-1,0.75,0.1786,21,0,0.4031,,,,,,195,0,195,0,1,,,,,
,,5caf451e7692490017d22482,001,2023-07-31_20h45.16.491,arm3_eps,2022.2.5,Win32,143.6781609,5caf451e7692490017d22482,64c7fed44a04f777bb1e18ce,64c800cd7c180ee2d8649134,right,-1,0.75,0.1786,21,-0.039272731,0.7556,,,,,,196,0,196,0,1,,,,,
,,5caf451e7692490017d22482,001,2023-07-31_20h45.16.491,arm3_eps,2022.2.5,Win32,143.6781609,5caf451e7692490017d22482,64c7fed44a04f777bb1e18ce,64c800cd7c180ee2d8649134,down,-1,0.75,0.1786,22,0,0.4115,,,,,,197,0,197,0,1,,,,,
,,5caf451e7692490017d22482,001,2023-07-31_20h45.16.491,arm3_eps,2022.2.5,Win32,143.6781609,5caf451e7692490017d22482,64c7fed44a04f777bb1e18ce,64c800cd7c180ee2d8649134,right,-1,0.75,0.1786,22,-0.03793166,0.7526,,,,,,198,0,198,0,1,,,,,
,,5caf451e7692490017d22482,001,2023-07-31_20h45.16.491,arm3_eps,2022.2.5,Win32,143.6781609,5caf451e7692490017d22482,64c7fed44a04f777bb1e18ce,64c800cd7c180ee2d8649134,down,-1,0.75,0.1786,23,0,0.4656,,,,,,199,0,199,0,1,,,,,
,,5caf451e7692490017d22482,001,2023-07-31_20h45.16.491,arm3_eps,2022.2.5,Win32,143.6781609,5caf451e7692490017d22482,64c7fed44a04f777bb1e18ce,64c800cd7c180ee2d8649134,down,-1,0.75,0.1786,23,0,1.431,,,,,,200,0,200,0,1,,,,,
,,5caf451e7692490017d22482,001,2023-07-31_20h45.16.491,arm3_eps,2022.2.5,Win32,143.6781609,5caf451e7692490017d22482,64c7fed44a04f777bb1e18ce,64c800cd7c180ee2d8649134,down,-1,0.75,0.1786,24,0,1.0345,,,,,,201,0,201,0,1,,,,,
,,5caf451e7692490017d22482,001,2023-07-31_20h45.16.491,arm3_eps,2022.2.5,Win32,143.6781609,5caf451e7692490017d22482,64c7fed44a04f777bb1e18ce,64c800cd7c180ee2d8649134,down,-1,0.75,0.1786,24,0,1.362,,,,,,202,0,202,0,1,,,,,
,,5caf451e7692490017d22482,001,2023-07-31_20h45.16.491,arm3_eps,2022.2.5,Win32,143.6781609,5caf451e7692490017d22482,64c7fed44a04f777bb1e18ce,64c800cd7c180ee2d8649134,right,-1,0.75,0.1786,24,0.000969814,1.1676,,,,,,203,0,203,0,1,,,,,
,,5caf451e7692490017d22482,001,2023-07-31_20h45.16.491,arm3_eps,2022.2.5,Win32,143.6781609,5caf451e7692490017d22482,64c7fed44a04f777bb1e18ce,64c800cd7c180ee2d8649134,right,-1,0.75,0.1786,24,0.000676758,0.1614,,,,,,204,0,204,0,1,,,,,
,,5caf451e7692490017d22482,001,2023-07-31_20h45.16.491,arm3_eps,2022.2.5,Win32,143.6781609,5caf451e7692490017d22482,64c7fed44a04f777bb1e18ce,64c800cd7c180ee2d8649134,right,-1,0.75,0.1786,24,0.003601508,0.2381,,,,,,205,0,205,0,1,,,,,
,,5caf451e7692490017d22482,001,2023-07-31_20h45.16.491,arm3_eps,2022.2.5,Win32,143.6781609,5caf451e7692490017d22482,64c7fed44a04f777bb1e18ce,64c800cd7c180ee2d8649134,right,-1,0.75,0.1786,24,-0.018545332,0.3964,,,,,,206,0,206,0,1,,,,,
,,5caf451e7692490017d22482,001,2023-07-31_20h45.16.491,arm3_eps,2022.2.5,Win32,143.6781609,5caf451e7692490017d22482,64c7fed44a04f777bb1e18ce,64c800cd7c180ee2d8649134,right,-1,0.75,0.1786,24,-0.034884584,0.3459,,,,,,207,0,207,0,1,,,,,
,,5caf451e7692490017d22482,001,2023-07-31_20h45.16.491,arm3_eps,2022.2.5,Win32,143.6781609,5caf451e7692490017d22482,64c7fed44a04f777bb1e18ce,64c800cd7c180ee2d8649134,down,1,0.75,0.1786,25,0,0.2342,,,,,,208,0,208,0,1,,,,,
,,5caf451e7692490017d22482,001,2023-07-31_20h45.16.491,arm3_eps,2022.2.5,Win32,143.6781609,5caf451e7692490017d22482,64c7fed44a04f777bb1e18ce,64c800cd7c180ee2d8649134,right,1,0.75,0.1786,25,-0.00945763,0.7437,,,,,,209,0,209,0,1,,,,,
,,5caf451e7692490017d22482,001,2023-07-31_20h45.16.491,arm3_eps,2022.2.5,Win32,143.6781609,5caf451e7692490017d22482,64c7fed44a04f777bb1e18ce,64c800cd7c180ee2d8649134,right,1,0.75,0.1786,25,-0.019805541,0.3118,,,,,,210,0,210,0,1,,,,,
,,5caf451e7692490017d22482,001,2023-07-31_20h45.16.491,arm3_eps,2022.2.5,Win32,143.6781609,5caf451e7692490017d22482,64c7fed44a04f777bb1e18ce,64c800cd7c180ee2d8649134,right,1,0.75,0.1786,25,-0.006337117,0.4809,,,,,,211,0,211,0,1,,,,,
,,5caf451e7692490017d22482,001,2023-07-31_20h45.16.491,arm3_eps,2022.2.5,Win32,143.6781609,5caf451e7692490017d22482,64c7fed44a04f777bb1e18ce,64c800cd7c180ee2d8649134,right,1,0.75,0.1786,25,-0.033106345,0.2642,,,,,,212,0,212,0,1,,,,,
,,5caf451e7692490017d22482,001,2023-07-31_20h45.16.491,arm3_eps,2022.2.5,Win32,143.6781609,5caf451e7692490017d22482,64c7fed44a04f777bb1e18ce,64c800cd7c180ee2d8649134,down,1,0.75,0.1786,24,0,0.3754,,,,,,213,0,213,0,1,,,,,
,,5caf451e7692490017d22482,001,2023-07-31_20h45.16.491,arm3_eps,2022.2.5,Win32,143.6781609,5caf451e7692490017d22482,64c7fed44a04f777bb1e18ce,64c800cd7c180ee2d8649134,right,1,0.75,0.1786,24,0.015613992,0.694,,,,,,214,0,214,0,1,,,,,
,,5caf451e7692490017d22482,001,2023-07-31_20h45.16.491,arm3_eps,2022.2.5,Win32,143.6781609,5caf451e7692490017d22482,64c7fed44a04f777bb1e18ce,64c800cd7c180ee2d8649134,right,1,0.75,0.1786,24,0.009029209,0.2015,,,,,,215,0,215,0,1,,,,,
,,5caf451e7692490017d22482,001,2023-07-31_20h45.16.491,arm3_eps,2022.2.5,Win32,143.6781609,5caf451e7692490017d22482,64c7fed44a04f777bb1e18ce,64c800cd7c180ee2d8649134,up,1,0.75,0.1786,25,0,0.476,,,,,,216,0,216,0,1,,,,,
,,5caf451e7692490017d22482,001,2023-07-31_20h45.16.491,arm3_eps,2022.2.5,Win32,143.6781609,5caf451e7692490017d22482,64c7fed44a04f777bb1e18ce,64c800cd7c180ee2d8649134,right,1,0.75,0.1786,25,0.004387044,0.6159,,,,,,217,0,217,0,1,,,,,
,,5caf451e7692490017d22482,001,2023-07-31_20h45.16.491,arm3_eps,2022.2.5,Win32,143.6781609,5caf451e7692490017d22482,64c7fed44a04f777bb1e18ce,64c800cd7c180ee2d8649134,right,1,0.75,0.1786,25,0.030517699,0.4806,,,,,,218,0,218,0,1,,,,,
,,5caf451e7692490017d22482,001,2023-07-31_20h45.16.491,arm3_eps,2022.2.5,Win32,143.6781609,5caf451e7692490017d22482,64c7fed44a04f777bb1e18ce,64c800cd7c180ee2d8649134,up,-1,0.75,0.1786,26,0,0.3791,,,,,,219,0,219,0,1,,,,,
,,5caf451e7692490017d22482,001,2023-07-31_20h45.16.491,arm3_eps,2022.2.5,Win32,143.6781609,5caf451e7692490017d22482,64c7fed44a04f777bb1e18ce,64c800cd7c180ee2d8649134,down,1,0.75,0.1786,26,0,1.1254,,,,,,220,0,220,0,1,,,,,
,,5caf451e7692490017d22482,001,2023-07-31_20h45.16.491,arm3_eps,2022.2.5,Win32,143.6781609,5caf451e7692490017d22482,64c7fed44a04f777bb1e18ce,64c800cd7c180ee2d8649134,right,1,0.75,0.1786,26,-0.002397079,1.1156,,,,,,221,0,221,0,1,,,,,
