space_bar.keys,space_bar.rt,participant,session,date,expName,psychopyVersion,OS,frameRate,PROLIFIC_PID,STUDY_ID,SESSION_ID,resp.keys,state,q_prob,eps_prob,score,price,resp.rt,train.thisRepN,train.thisTrialN,train.thisN,train.thisIndex,train.ran,steps.thisRepN,steps.thisTrialN,steps.thisN,steps.thisIndex,steps.ran,blocks.thisRepN,blocks.thisTrialN,blocks.thisN,blocks.thisIndex,blocks.ran
space,28.5549,5f60ec27ae3437000bc97536,001,2023-07-31_20h44.38.319,arm3_eps,2022.2.5,Win32,59.75143403,5f60ec27ae3437000bc97536,64c7fed44a04f777bb1e18ce,64c800ed82212624706af08f,,,,,,,,,,,,,,,,,,,,,,
space,4.6554,5f60ec27ae3437000bc97536,001,2023-07-31_20h44.38.319,arm3_eps,2022.2.5,Win32,59.75143403,5f60ec27ae3437000bc97536,64c7fed44a04f777bb1e18ce,64c800ed82212624706af08f,,,,,,,,,,,,,,,,,,,,,,
space,24.098,5f60ec27ae3437000bc97536,001,2023-07-31_20h44.38.319,arm3_eps,2022.2.5,Win32,59.75143403,5f60ec27ae3437000bc97536,64c7fed44a04f777bb1e18ce,64c800ed82212624706af08f,,,,,,,,,,,,,,,,,,,,,,
space,15.1077,5f60ec27ae3437000bc97536,001,2023-07-31_20h44.38.319,arm3_eps,2022.2.5,Win32,59.75143403,5f60ec27ae3437000bc97536,64c7fed44a04f777bb1e18ce,64c800ed82212624706af08f,,,,,,,,,,,,,,,,,,,,,,
space,50.6665,5f60ec27ae3437000bc97536,001,2023-07-31_20h44.38.319,arm3_eps,2022.2.5,Win32,59.75143403,5f60ec27ae3437000bc97536,64c7fed44a04f777bb1e18ce,64c800ed82212624706af08f,,,,,,,,,,,,,,,,,,,,,,
space,10.1495,5f60ec27ae3437000bc97536,001,2023-07-31_20h44.38.319,arm3_eps,2022.2.5,Win32,59.75143403,5f60ec27ae3437000bc97536,64c7fed44a04f777bb1e18ce,64c800ed82212624706af08f,,,,,,,,,,,,,,,,,,,,,,
space,1.3988,5f60ec27ae3437000bc97536,001,2023-07-31_20h44.38.319,arm3_eps,2022.2.5,Win32,59.75143403,5f60ec27ae3437000bc97536,64c7fed44a04f777bb1e18ce,64c800ed82212624706af08f,,,,,,,,,,,,,,,,,,,,,,
,,5f60ec27ae3437000bc97536,001,2023-07-31_20h44.38.319,arm3_eps,2022.2.5,Win32,59.75143403,5f60ec27ae3437000bc97536,64c7fed44a04f777bb1e18ce,64c800ed82212624706af08f,right,-1,1,0.2429,0,0.011603768,4.6865,0,0,0,0,1,,,,,,,,,,
,,5f60ec27ae3437000bc97536,001,2023-07-31_20h44.38.319,arm3_eps,2022.2.5,Win32,59.75143403,5f60ec27ae3437000bc97536,64c7fed44a04f777bb1e18ce,64c800ed82212624706af08f,right,-1,1,0.2429,0,0.009342405,1.9058,1,0,1,0,1,,,,,,,,,,
,,5f60ec27ae3437000bc97536,001,2023-07-31_20h44.38.319,arm3_eps,2022.2.5,Win32,59.75143403,5f60ec27ae3437000bc97536,64c7fed44a04f777bb1e18ce,64c800ed82212624706af08f,right,-1,1,0.2429,0,-0.010516986,0.5341,2,0,2,0,1,,,,,,,,,,
,,5f60ec27ae3437000bc97536,001,2023-07-31_20h44.38.319,arm3_eps,2022.2.5,Win32,59.75143403,5f60ec27ae3437000bc97536,64c7fed44a04f777bb1e18ce,64c800ed82212624706af08f,right,-1,1,0.2429,0,-0.024930748,1.2008,3,0,3,0,1,,,,,,,,,,
,,5f60ec27ae3437000bc97536,001,2023-07-31_20h44.38.319,arm3_eps,2022.2.5,Win32,59.75143403,5f60ec27ae3437000bc97536,64c7fed44a04f777bb1e18ce,64c800ed82212624706af08f,right,-1,1,0.2429,0,-0.054639988,0.3054,4,0,4,0,1,,,,,,,,,,
,,5f60ec27ae3437000bc97536,001,2023-07-31_20h44.38.319,arm3_eps,2022.2.5,Win32,59.75143403,5f60ec27ae3437000bc97536,64c7fed44a04f777bb1e18ce,64c800ed82212624706af08f,down,-1,1,0.2429,1,0,0.6941,5,0,5,0,1,,,,,,,,,,
,,5f60ec27ae3437000bc97536,001,2023-07-31_20h44.38.319,arm3_eps,2022.2.5,Win32,59.75143403,5f60ec27ae3437000bc97536,64c7fed44a04f777bb1e18ce,64c800ed82212624706af08f,right,-1,1,0.2429,1,-0.022826407,1.7151,6,0,6,0,1,,,,,,,,,,
,,5f60ec27ae3437000bc97536,001,2023-07-31_20h44.38.319,arm3_eps,2022.2.5,Win32,59.75143403,5f60ec27ae3437000bc97536,64c7fed44a04f777bb1e18ce,64c800ed82212624706af08f,right,-1,1,0.2429,1,-0.037913371,0.3505,7,0,7,0,1,,,,,,,,,,
,,5f60ec27ae3437000bc97536,001,2023-07-31_20h44.38.319,arm3_eps,2022.2.5,Win32,59.75143403,5f60ec27ae3437000bc97536,64c7fed44a04f777bb1e18ce,64c800ed82212624706af08f,right,-1,1,0.2429,1,-0.023784892,0.4677,8,0,8,0,1,,,,,,,,,,
,,5f60ec27ae3437000bc97536,001,2023-07-31_20h44.38.319,arm3_eps,2022.2.5,Win32,59.75143403,5f60ec27ae3437000bc97536,64c7fed44a04f777bb1e18ce,64c800ed82212624706af08f,right,-1,1,0.2429,1,-0.024049885,0.3157,9,0,9,0,1,,,,,,,,,,
,,5f60ec27ae3437000bc97536,001,2023-07-31_20h44.38.319,arm3_eps,2022.2.5,Win32,59.75143403,5f60ec27ae3437000bc97536,64c7fed44a04f777bb1e18ce,64c800ed82212624706af08f,right,-1,1,0.2429,1,-0.090607335,0.7198,10,0,10,0,1,,,,,,,,,,
,,5f60ec27ae3437000bc97536,001,2023-07-31_20h44.38.319,arm3_eps,2022.2.5,Win32,59.75143403,5f60ec27ae3437000bc97536,64c7fed44a04f777bb1e18ce,64c800ed82212624706af08f,right,-1,1,0.2429,1,-0.055077944,0.1655,11,0,11,0,1,,,,,,,,,,
,,5f60ec27ae3437000bc97536,001,2023-07-31_20h44.38.319,arm3_eps,2022.2.5,Win32,59.75143403,5f60ec27ae3437000bc97536,64c7fed44a04f777bb1e18ce,64c800ed82212624706af08f,right,-1,1,0.2429,1,-0.070101685,0.2379,12,0,12,0,1,,,,,,,,,,
,,5f60ec27ae3437000bc97536,001,2023-07-31_20h44.38.319,arm3_eps,2022.2.5,Win32,59.75143403,5f60ec27ae3437000bc97536,64c7fed44a04f777bb1e18ce,64c800ed82212624706af08f,down,-1,1,0.2429,2,0,0.5084,13,0,13,0,1,,,,,,,,,,
,,5f60ec27ae3437000bc97536,001,2023-07-31_20h44.38.319,arm3_eps,2022.2.5,Win32,59.75143403,5f60ec27ae3437000bc97536,64c7fed44a04f777bb1e18ce,64c800ed82212624706af08f,right,-1,1,0.2429,2,-0.049276841,2.1749,14,0,14,0,1,,,,,,,,,,
,,5f60ec27ae3437000bc97536,001,2023-07-31_20h44.38.319,arm3_eps,2022.2.5,Win32,59.75143403,5f60ec27ae3437000bc97536,64c7fed44a04f777bb1e18ce,64c800ed82212624706af08f,right,-1,1,0.2429,2,-0.071612264,0.1758,15,0,15,0,1,,,,,,,,,,
,,5f60ec27ae3437000bc97536,001,2023-07-31_20h44.38.319,arm3_eps,2022.2.5,Win32,59.75143403,5f60ec27ae3437000bc97536,64c7fed44a04f777bb1e18ce,64c800ed82212624706af08f,right,-1,1,0.2429,2,-0.070104593,0.2246,16,0,16,0,1,,,,,,,,,,
,,5f60ec27ae3437000bc97536,001,2023-07-31_20h44.38.319,arm3_eps,2022.2.5,Win32,59.75143403,5f60ec27ae3437000bc97536,64c7fed44a04f777bb1e18ce,64c800ed82212624706af08f,right,-1,1,0.2429,2,-0.037367905,0.2001,17,0,17,0,1,,,,,,,,,,
,,5f60ec27ae3437000bc97536,001,2023-07-31_20h44.38.319,arm3_eps,2022.2.5,Win32,59.75143403,5f60ec27ae3437000bc97536,64c7fed44a04f777bb1e18ce,64c800ed82212624706af08f,right,-1,1,0.2429,2,-0.055305293,0.3423,18,0,18,0,1,,,,,,,,,,
,,5f60ec27ae3437000bc97536,001,2023-07-31_20h44.38.319,arm3_eps,2022.2.5,Win32,59.75143403,5f60ec27ae3437000bc97536,64c7fed44a04f777bb1e18ce,64c800ed82212624706af08f,right,-1,1,0.2429,2,-0.053430598,0.1929,19,0,19,0,1,,,,,,,,,,
,,5f60ec27ae3437000bc97536,001,2023-07-31_20h44.38.319,arm3_eps,2022.2.5,Win32,59.75143403,5f60ec27ae3437000bc97536,64c7fed44a04f777bb1e18ce,64c800ed82212624706af08f,right,-1,1,0.2429,2,-0.069893474,0.3316,20,0,20,0,1,,,,,,,,,,
,,5f60ec27ae3437000bc97536,001,2023-07-31_20h44.38.319,arm3_eps,2022.2.5,Win32,59.75143403,5f60ec27ae3437000bc97536,64c7fed44a04f777bb1e18ce,64c800ed82212624706af08f,right,-1,1,0.2429,2,-0.075337043,0.1652,21,0,21,0,1,,,,,,,,,,
,,5f60ec27ae3437000bc97536,001,2023-07-31_20h44.38.319,arm3_eps,2022.2.5,Win32,59.75143403,5f60ec27ae3437000bc97536,64c7fed44a04f777bb1e18ce,64c800ed82212624706af08f,down,-1,1,0.2429,3,0,0.6836,22,0,22,0,1,,,,,,,,,,
,,5f60ec27ae3437000bc97536,001,2023-07-31_20h44.38.319,arm3_eps,2022.2.5,Win32,59.75143403,5f60ec27ae3437000bc97536,64c7fed44a04f777bb1e18ce,64c800ed82212624706af08f,right,-1,1,0.2429,3,-0.027845463,0.9729,23,0,23,0,1,,,,,,,,,,
,,5f60ec27ae3437000bc97536,001,2023-07-31_20h44.38.319,arm3_eps,2022.2.5,Win32,59.75143403,5f60ec27ae3437000bc97536,64c7fed44a04f777bb1e18ce,64c800ed82212624706af08f,right,-1,1,0.2429,3,-0.055355376,0.1413,24,0,24,0,1,,,,,,,,,,
,,5f60ec27ae3437000bc97536,001,2023-07-31_20h44.38.319,arm3_eps,2022.2.5,Win32,59.75143403,5f60ec27ae3437000bc97536,64c7fed44a04f777bb1e18ce,64c800ed82212624706af08f,right,-1,1,0.2429,3,-0.051477797,0.1666,25,0,25,0,1,,,,,,,,,,
,,5f60ec27ae3437000bc97536,001,2023-07-31_20h44.38.319,arm3_eps,2022.2.5,Win32,59.75143403,5f60ec27ae3437000bc97536,64c7fed44a04f777bb1e18ce,64c800ed82212624706af08f,right,-1,1,0.2429,3,-0.079663638,0.3951,26,0,26,0,1,,,,,,,,,,
,,5f60ec27ae3437000bc97536,001,2023-07-31_20h44.38.319,arm3_eps,2022.2.5,Win32,59.75143403,5f60ec27ae3437000bc97536,64c7fed44a04f777bb1e18ce,64c800ed82212624706af08f,down,1,1,0.2429,4,0,0.4022,27,0,27,0,1,,,,,,,,,,
,,5f60ec27ae3437000bc97536,001,2023-07-31_20h44.38.319,arm3_eps,2022.2.5,Win32,59.75143403,5f60ec27ae3437000bc97536,64c7fed44a04f777bb1e18ce,64c800ed82212624706af08f,right,1,1,0.2429,4,0.029404825,0.8389,28,0,28,0,1,,,,,,,,,,
,,5f60ec27ae3437000bc97536,001,2023-07-31_20h44.38.319,arm3_eps,2022.2.5,Win32,59.75143403,5f60ec27ae3437000bc97536,64c7fed44a04f777bb1e18ce,64c800ed82212624706af08f,right,1,1,0.2429,4,0.028958244,0.4394,29,0,29,0,1,,,,,,,,,,
,,5f60ec27ae3437000bc97536,001,2023-07-31_20h44.38.319,arm3_eps,2022.2.5,Win32,59.75143403,5f60ec27ae3437000bc97536,64c7fed44a04f777bb1e18ce,64c800ed82212624706af08f,right,1,1,0.2429,4,0.031910305,0.1404,30,0,30,0,1,,,,,,,,,,
,,5f60ec27ae3437000bc97536,001,2023-07-31_20h44.38.319,arm3_eps,2022.2.5,Win32,59.75143403,5f60ec27ae3437000bc97536,64c7fed44a04f777bb1e18ce,64c800ed82212624706af08f,right,1,1,0.2429,4,0.030863573,0.448,31,0,31,0,1,,,,,,,,,,
,,5f60ec27ae3437000bc97536,001,2023-07-31_20h44.38.319,arm3_eps,2022.2.5,Win32,59.75143403,5f60ec27ae3437000bc97536,64c7fed44a04f777bb1e18ce,64c800ed82212624706af08f,right,1,1,0.2429,4,0.020640097,0.8918,32,0,32,0,1,,,,,,,,,,
,,5f60ec27ae3437000bc97536,001,2023-07-31_20h44.38.319,arm3_eps,2022.2.5,Win32,59.75143403,5f60ec27ae3437000bc97536,64c7fed44a04f777bb1e18ce,64c800ed82212624706af08f,up,-1,1,0.2429,5,0,0.6656,33,0,33,0,1,,,,,,,,,,
,,5f60ec27ae3437000bc97536,001,2023-07-31_20h44.38.319,arm3_eps,2022.2.5,Win32,59.75143403,5f60ec27ae3437000bc97536,64c7fed44a04f777bb1e18ce,64c800ed82212624706af08f,right,-1,1,0.2429,5,-0.029206283,0.9307,34,0,34,0,1,,,,,,,,,,
,,5f60ec27ae3437000bc97536,001,2023-07-31_20h44.38.319,arm3_eps,2022.2.5,Win32,59.75143403,5f60ec27ae3437000bc97536,64c7fed44a04f777bb1e18ce,64c800ed82212624706af08f,right,-1,1,0.2429,5,-0.072128335,0.1591,35,0,35,0,1,,,,,,,,,,
,,5f60ec27ae3437000bc97536,001,2023-07-31_20h44.38.319,arm3_eps,2022.2.5,Win32,59.75143403,5f60ec27ae3437000bc97536,64c7fed44a04f777bb1e18ce,64c800ed82212624706af08f,right,-1,1,0.2429,5,-0.108371015,0.401,36,0,36,0,1,,,,,,,,,,
,,5f60ec27ae3437000bc97536,001,2023-07-31_20h44.38.319,arm3_eps,2022.2.5,Win32,59.75143403,5f60ec27ae3437000bc97536,64c7fed44a04f777bb1e18ce,64c800ed82212624706af08f,down,-1,1,0.2429,6,0,0.4086,37,0,37,0,1,,,,,,,,,,
,,5f60ec27ae3437000bc97536,001,2023-07-31_20h44.38.319,arm3_eps,2022.2.5,Win32,59.75143403,5f60ec27ae3437000bc97536,64c7fed44a04f777bb1e18ce,64c800ed82212624706af08f,right,-1,1,0.2429,6,-0.033548338,1.2081,38,0,38,0,1,,,,,,,,,,
,,5f60ec27ae3437000bc97536,001,2023-07-31_20h44.38.319,arm3_eps,2022.2.5,Win32,59.75143403,5f60ec27ae3437000bc97536,64c7fed44a04f777bb1e18ce,64c800ed82212624706af08f,right,-1,1,0.2429,6,-0.073500243,0.1822,39,0,39,0,1,,,,,,,,,,
,,5f60ec27ae3437000bc97536,001,2023-07-31_20h44.38.319,arm3_eps,2022.2.5,Win32,59.75143403,5f60ec27ae3437000bc97536,64c7fed44a04f777bb1e18ce,64c800ed82212624706af08f,right,-1,1,0.2429,6,-0.073120115,0.1183,40,0,40,0,1,,,,,,,,,,
,,5f60ec27ae3437000bc97536,001,2023-07-31_20h44.38.319,arm3_eps,2022.2.5,Win32,59.75143403,5f60ec27ae3437000bc97536,64c7fed44a04f777bb1e18ce,64c800ed82212624706af08f,right,-1,1,0.2429,6,-0.091223249,0.4013,41,0,41,0,1,,,,,,,,,,
,,5f60ec27ae3437000bc97536,001,2023-07-31_20h44.38.319,arm3_eps,2022.2.5,Win32,59.75143403,5f60ec27ae3437000bc97536,64c7fed44a04f777bb1e18ce,64c800ed82212624706af08f,down,-1,1,0.2429,7,0,0.4244,42,0,42,0,1,,,,,,,,,,
,,5f60ec27ae3437000bc97536,001,2023-07-31_20h44.38.319,arm3_eps,2022.2.5,Win32,59.75143403,5f60ec27ae3437000bc97536,64c7fed44a04f777bb1e18ce,64c800ed82212624706af08f,right,-1,1,0.2429,7,-0.04338053,1.1519,43,0,43,0,1,,,,,,,,,,
,,5f60ec27ae3437000bc97536,001,2023-07-31_20h44.38.319,arm3_eps,2022.2.5,Win32,59.75143403,5f60ec27ae3437000bc97536,64c7fed44a04f777bb1e18ce,64c800ed82212624706af08f,right,-1,1,0.2429,7,-0.087856883,0.1516,44,0,44,0,1,,,,,,,,,,
,,5f60ec27ae3437000bc97536,001,2023-07-31_20h44.38.319,arm3_eps,2022.2.5,Win32,59.75143403,5f60ec27ae3437000bc97536,64c7fed44a04f777bb1e18ce,64c800ed82212624706af08f,right,-1,1,0.2429,7,-0.091641826,0.1624,45,0,45,0,1,,,,,,,,,,
,,5f60ec27ae3437000bc97536,001,2023-07-31_20h44.38.319,arm3_eps,2022.2.5,Win32,59.75143403,5f60ec27ae3437000bc97536,64c7fed44a04f777bb1e18ce,64c800ed82212624706af08f,right,-1,1,0.2429,7,-0.094430228,0.2515,46,0,46,0,1,,,,,,,,,,
,,5f60ec27ae3437000bc97536,001,2023-07-31_20h44.38.319,arm3_eps,2022.2.5,Win32,59.75143403,5f60ec27ae3437000bc97536,64c7fed44a04f777bb1e18ce,64c800ed82212624706af08f,down,-1,1,0.2429,8,0,0.4882,47,0,47,0,1,,,,,,,,,,
,,5f60ec27ae3437000bc97536,001,2023-07-31_20h44.38.319,arm3_eps,2022.2.5,Win32,59.75143403,5f60ec27ae3437000bc97536,64c7fed44a04f777bb1e18ce,64c800ed82212624706af08f,right,-1,1,0.2429,8,-0.011870788,0.8025,48,0,48,0,1,,,,,,,,,,
,,5f60ec27ae3437000bc97536,001,2023-07-31_20h44.38.319,arm3_eps,2022.2.5,Win32,59.75143403,5f60ec27ae3437000bc97536,64c7fed44a04f777bb1e18ce,64c800ed82212624706af08f,right,-1,1,0.2429,8,0.006686026,0.1458,49,0,49,0,1,,,,,,,,,,
space,28.5719,5f60ec27ae3437000bc97536,001,2023-07-31_20h44.38.319,arm3_eps,2022.2.5,Win32,59.75143403,5f60ec27ae3437000bc97536,64c7fed44a04f777bb1e18ce,64c800ed82212624706af08f,,,,,,,,,,,,,,,,,,,,,,
space,15.4637,5f60ec27ae3437000bc97536,001,2023-07-31_20h44.38.319,arm3_eps,2022.2.5,Win32,59.75143403,5f60ec27ae3437000bc97536,64c7fed44a04f777bb1e18ce,64c800ed82212624706af08f,,,,,,,,,,,,,,,,,,,,,,
space,37.3262,5f60ec27ae3437000bc97536,001,2023-07-31_20h44.38.319,arm3_eps,2022.2.5,Win32,59.75143403,5f60ec27ae3437000bc97536,64c7fed44a04f777bb1e18ce,64c800ed82212624706af08f,,,,,,,,,,,,,,,,,,,,,,
space,6.3274,5f60ec27ae3437000bc97536,001,2023-07-31_20h44.38.319,arm3_eps,2022.2.5,Win32,59.75143403,5f60ec27ae3437000bc97536,64c7fed44a04f777bb1e18ce,64c800ed82212624706af08f,,,,,,,,,,,,,,,,,,,,,,
space,11.3094,5f60ec27ae3437000bc97536,001,2023-07-31_20h44.38.319,arm3_eps,2022.2.5,Win32,59.75143403,5f60ec27ae3437000bc97536,64c7fed44a04f777bb1e18ce,64c800ed82212624706af08f,,,,,,,,,,,,,,,,,,,,,,
space,0.967,5f60ec27ae3437000bc97536,001,2023-07-31_20h44.38.319,arm3_eps,2022.2.5,Win32,59.75143403,5f60ec27ae3437000bc97536,64c7fed44a04f777bb1e18ce,64c800ed82212624706af08f,,,,,,,,,,,,,,,,,,,,,,
,,5f60ec27ae3437000bc97536,001,2023-07-31_20h44.38.319,arm3_eps,2022.2.5,Win32,59.75143403,5f60ec27ae3437000bc97536,64c7fed44a04f777bb1e18ce,64c800ed82212624706af08f,right,-1,0.75,0.2429,0,0.003324839,0.8587,0,0,0,0,1,,,,,,,,,,
,,5f60ec27ae3437000bc97536,001,2023-07-31_20h44.38.319,arm3_eps,2022.2.5,Win32,59.75143403,5f60ec27ae3437000bc97536,64c7fed44a04f777bb1e18ce,64c800ed82212624706af08f,right,-1,0.75,0.2429,0,-0.004562812,0.6207,1,0,1,0,1,,,,,,,,,,
,,5f60ec27ae3437000bc97536,001,2023-07-31_20h44.38.319,arm3_eps,2022.2.5,Win32,59.75143403,5f60ec27ae3437000bc97536,64c7fed44a04f777bb1e18ce,64c800ed82212624706af08f,up,-1,0.75,0.2429,-1,0,1.4767,2,0,2,0,1,,,,,,,,,,
,,5f60ec27ae3437000bc97536,001,2023-07-31_20h44.38.319,arm3_eps,2022.2.5,Win32,59.75143403,5f60ec27ae3437000bc97536,64c7fed44a04f777bb1e18ce,64c800ed82212624706af08f,right,-1,0.75,0.2429,-1,-0.00204613,1.8231,3,0,3,0,1,,,,,,,,,,
,,5f60ec27ae3437000bc97536,001,2023-07-31_20h44.38.319,arm3_eps,2022.2.5,Win32,59.75143403,5f60ec27ae3437000bc97536,64c7fed44a04f777bb1e18ce,64c800ed82212624706af08f,right,-1,0.75,0.2429,-1,-0.009859989,0.6164,4,0,4,0,1,,,,,,,,,,
,,5f60ec27ae3437000bc97536,001,2023-07-31_20h44.38.319,arm3_eps,2022.2.5,Win32,59.75143403,5f60ec27ae3437000bc97536,64c7fed44a04f777bb1e18ce,64c800ed82212624706af08f,down,-1,0.75,0.2429,-1,0,0.6204,5,0,5,0,1,,,,,,,,,,
,,5f60ec27ae3437000bc97536,001,2023-07-31_20h44.38.319,arm3_eps,2022.2.5,Win32,59.75143403,5f60ec27ae3437000bc97536,64c7fed44a04f777bb1e18ce,64c800ed82212624706af08f,right,-1,0.75,0.2429,-1,-0.023020882,1.3222,6,0,6,0,1,,,,,,,,,,
,,5f60ec27ae3437000bc97536,001,2023-07-31_20h44.38.319,arm3_eps,2022.2.5,Win32,59.75143403,5f60ec27ae3437000bc97536,64c7fed44a04f777bb1e18ce,64c800ed82212624706af08f,right,-1,0.75,0.2429,-1,-0.03361775,0.3886,7,0,7,0,1,,,,,,,,,,
,,5f60ec27ae3437000bc97536,001,2023-07-31_20h44.38.319,arm3_eps,2022.2.5,Win32,59.75143403,5f60ec27ae3437000bc97536,64c7fed44a04f777bb1e18ce,64c800ed82212624706af08f,right,-1,0.75,0.2429,-1,-0.020035454,0.7077,8,0,8,0,1,,,,,,,,,,
,,5f60ec27ae3437000bc97536,001,2023-07-31_20h44.38.319,arm3_eps,2022.2.5,Win32,59.75143403,5f60ec27ae3437000bc97536,64c7fed44a04f777bb1e18ce,64c800ed82212624706af08f,down,-1,0.75,0.2429,0,0,1.2339,9,0,9,0,1,,,,,,,,,,
,,5f60ec27ae3437000bc97536,001,2023-07-31_20h44.38.319,arm3_eps,2022.2.5,Win32,59.75143403,5f60ec27ae3437000bc97536,64c7fed44a04f777bb1e18ce,64c800ed82212624706af08f,right,-1,0.75,0.2429,0,-0.007011591,1.1083,10,0,10,0,1,,,,,,,,,,
,,5f60ec27ae3437000bc97536,001,2023-07-31_20h44.38.319,arm3_eps,2022.2.5,Win32,59.75143403,5f60ec27ae3437000bc97536,64c7fed44a04f777bb1e18ce,64c800ed82212624706af08f,right,-1,0.75,0.2429,0,0.001076784,0.1671,11,0,11,0,1,,,,,,,,,,
,,5f60ec27ae3437000bc97536,001,2023-07-31_20h44.38.319,arm3_eps,2022.2.5,Win32,59.75143403,5f60ec27ae3437000bc97536,64c7fed44a04f777bb1e18ce,64c800ed82212624706af08f,right,-1,0.75,0.2429,0,0.003692178,0.4166,12,0,12,0,1,,,,,,,,,,
,,5f60ec27ae3437000bc97536,001,2023-07-31_20h44.38.319,arm3_eps,2022.2.5,Win32,59.75143403,5f60ec27ae3437000bc97536,64c7fed44a04f777bb1e18ce,64c800ed82212624706af08f,up,-1,0.75,0.2429,-1,0,1.0175,13,0,13,0,1,,,,,,,,,,
,,5f60ec27ae3437000bc97536,001,2023-07-31_20h44.38.319,arm3_eps,2022.2.5,Win32,59.75143403,5f60ec27ae3437000bc97536,64c7fed44a04f777bb1e18ce,64c800ed82212624706af08f,right,-1,0.75,0.2429,-1,-0.00848225,1.1002,14,0,14,0,1,,,,,,,,,,
,,5f60ec27ae3437000bc97536,001,2023-07-31_20h44.38.319,arm3_eps,2022.2.5,Win32,59.75143403,5f60ec27ae3437000bc97536,64c7fed44a04f777bb1e18ce,64c800ed82212624706af08f,right,-1,0.75,0.2429,-1,-0.000805097,0.1339,15,0,15,0,1,,,,,,,,,,
,,5f60ec27ae3437000bc97536,001,2023-07-31_20h44.38.319,arm3_eps,2022.2.5,Win32,59.75143403,5f60ec27ae3437000bc97536,64c7fed44a04f777bb1e18ce,64c800ed82212624706af08f,right,-1,0.75,0.2429,-1,-0.009413524,0.4677,16,0,16,0,1,,,,,,,,,,
,,5f60ec27ae3437000bc97536,001,2023-07-31_20h44.38.319,arm3_eps,2022.2.5,Win32,59.75143403,5f60ec27ae3437000bc97536,64c7fed44a04f777bb1e18ce,64c800ed82212624706af08f,right,-1,0.75,0.2429,-1,-0.023588675,0.4067,17,0,17,0,1,,,,,,,,,,
,,5f60ec27ae3437000bc97536,001,2023-07-31_20h44.38.319,arm3_eps,2022.2.5,Win32,59.75143403,5f60ec27ae3437000bc97536,64c7fed44a04f777bb1e18ce,64c800ed82212624706af08f,down,-1,0.75,0.2429,0,0,0.5506,18,0,18,0,1,,,,,,,,,,
,,5f60ec27ae3437000bc97536,001,2023-07-31_20h44.38.319,arm3_eps,2022.2.5,Win32,59.75143403,5f60ec27ae3437000bc97536,64c7fed44a04f777bb1e18ce,64c800ed82212624706af08f,right,-1,0.75,0.2429,0,-0.040134422,1.0773,19,0,19,0,1,,,,,,,,,,
,,5f60ec27ae3437000bc97536,001,2023-07-31_20h44.38.319,arm3_eps,2022.2.5,Win32,59.75143403,5f60ec27ae3437000bc97536,64c7fed44a04f777bb1e18ce,64c800ed82212624706af08f,right,-1,0.75,0.2429,0,-0.041005583,0.1338,20,0,20,0,1,,,,,,,,,,
,,5f60ec27ae3437000bc97536,001,2023-07-31_20h44.38.319,arm3_eps,2022.2.5,Win32,59.75143403,5f60ec27ae3437000bc97536,64c7fed44a04f777bb1e18ce,64c800ed82212624706af08f,right,-1,0.75,0.2429,0,-0.024535733,0.4122,21,0,21,0,1,,,,,,,,,,
,,5f60ec27ae3437000bc97536,001,2023-07-31_20h44.38.319,arm3_eps,2022.2.5,Win32,59.75143403,5f60ec27ae3437000bc97536,64c7fed44a04f777bb1e18ce,64c800ed82212624706af08f,right,-1,0.75,0.2429,0,-0.05389558,0.5058,22,0,22,0,1,,,,,,,,,,
,,5f60ec27ae3437000bc97536,001,2023-07-31_20h44.38.319,arm3_eps,2022.2.5,Win32,59.75143403,5f60ec27ae3437000bc97536,64c7fed44a04f777bb1e18ce,64c800ed82212624706af08f,down,-1,0.75,0.2429,0,0,0.6338,23,0,23,0,1,,,,,,,,,,
,,5f60ec27ae3437000bc97536,001,2023-07-31_20h44.38.319,arm3_eps,2022.2.5,Win32,59.75143403,5f60ec27ae3437000bc97536,64c7fed44a04f777bb1e18ce,64c800ed82212624706af08f,right,-1,0.75,0.2429,0,0.012092759,1.0501,24,0,24,0,1,,,,,,,,,,
,,5f60ec27ae3437000bc97536,001,2023-07-31_20h44.38.319,arm3_eps,2022.2.5,Win32,59.75143403,5f60ec27ae3437000bc97536,64c7fed44a04f777bb1e18ce,64c800ed82212624706af08f,right,-1,0.75,0.2429,0,-0.003300766,0.1195,25,0,25,0,1,,,,,,,,,,
,,5f60ec27ae3437000bc97536,001,2023-07-31_20h44.38.319,arm3_eps,2022.2.5,Win32,59.75143403,5f60ec27ae3437000bc97536,64c7fed44a04f777bb1e18ce,64c800ed82212624706af08f,right,-1,0.75,0.2429,0,-0.027174438,0.3781,26,0,26,0,1,,,,,,,,,,
,,5f60ec27ae3437000bc97536,001,2023-07-31_20h44.38.319,arm3_eps,2022.2.5,Win32,59.75143403,5f60ec27ae3437000bc97536,64c7fed44a04f777bb1e18ce,64c800ed82212624706af08f,right,-1,0.75,0.2429,0,-0.031479839,0.3841,27,0,27,0,1,,,,,,,,,,
,,5f60ec27ae3437000bc97536,001,2023-07-31_20h44.38.319,arm3_eps,2022.2.5,Win32,59.75143403,5f60ec27ae3437000bc97536,64c7fed44a04f777bb1e18ce,64c800ed82212624706af08f,right,-1,0.75,0.2429,0,-0.015989193,0.4503,28,0,28,0,1,,,,,,,,,,
,,5f60ec27ae3437000bc97536,001,2023-07-31_20h44.38.319,arm3_eps,2022.2.5,Win32,59.75143403,5f60ec27ae3437000bc97536,64c7fed44a04f777bb1e18ce,64c800ed82212624706af08f,right,-1,0.75,0.2429,0,-0.018515977,0.5273,29,0,29,0,1,,,,,,,,,,
,,5f60ec27ae3437000bc97536,001,2023-07-31_20h44.38.319,arm3_eps,2022.2.5,Win32,59.75143403,5f60ec27ae3437000bc97536,64c7fed44a04f777bb1e18ce,64c800ed82212624706af08f,down,1,0.75,0.2429,1,0,0.5054,30,0,30,0,1,,,,,,,,,,
,,5f60ec27ae3437000bc97536,001,2023-07-31_20h44.38.319,arm3_eps,2022.2.5,Win32,59.75143403,5f60ec27ae3437000bc97536,64c7fed44a04f777bb1e18ce,64c800ed82212624706af08f,right,1,0.75,0.2429,1,0.004356142,1.2275,31,0,31,0,1,,,,,,,,,,
,,5f60ec27ae3437000bc97536,001,2023-07-31_20h44.38.319,arm3_eps,2022.2.5,Win32,59.75143403,5f60ec27ae3437000bc97536,64c7fed44a04f777bb1e18ce,64c800ed82212624706af08f,right,1,0.75,0.2429,1,0.028131374,0.1372,32,0,32,0,1,,,,,,,,,,
,,5f60ec27ae3437000bc97536,001,2023-07-31_20h44.38.319,arm3_eps,2022.2.5,Win32,59.75143403,5f60ec27ae3437000bc97536,64c7fed44a04f777bb1e18ce,64c800ed82212624706af08f,up,1,0.75,0.2429,1,0,0.7708,33,0,33,0,1,,,,,,,,,,
,,5f60ec27ae3437000bc97536,001,2023-07-31_20h44.38.319,arm3_eps,2022.2.5,Win32,59.75143403,5f60ec27ae3437000bc97536,64c7fed44a04f777bb1e18ce,64c800ed82212624706af08f,right,1,0.75,0.2429,1,-0.004543294,0.9173,34,0,34,0,1,,,,,,,,,,
,,5f60ec27ae3437000bc97536,001,2023-07-31_20h44.38.319,arm3_eps,2022.2.5,Win32,59.75143403,5f60ec27ae3437000bc97536,64c7fed44a04f777bb1e18ce,64c800ed82212624706af08f,right,1,0.75,0.2429,1,-2.38021E-05,0.1255,35,0,35,0,1,,,,,,,,,,
,,5f60ec27ae3437000bc97536,001,2023-07-31_20h44.38.319,arm3_eps,2022.2.5,Win32,59.75143403,5f60ec27ae3437000bc97536,64c7fed44a04f777bb1e18ce,64c800ed82212624706af08f,right,1,0.75,0.2429,1,0.006391683,0.3755,36,0,36,0,1,,,,,,,,,,
,,5f60ec27ae3437000bc97536,001,2023-07-31_20h44.38.319,arm3_eps,2022.2.5,Win32,59.75143403,5f60ec27ae3437000bc97536,64c7fed44a04f777bb1e18ce,64c800ed82212624706af08f,right,1,0.75,0.2429,1,-0.00244369,0.4874,37,0,37,0,1,,,,,,,,,,
,,5f60ec27ae3437000bc97536,001,2023-07-31_20h44.38.319,arm3_eps,2022.2.5,Win32,59.75143403,5f60ec27ae3437000bc97536,64c7fed44a04f777bb1e18ce,64c800ed82212624706af08f,up,1,0.75,0.2429,1,0,0.6667,38,0,38,0,1,,,,,,,,,,
,,5f60ec27ae3437000bc97536,001,2023-07-31_20h44.38.319,arm3_eps,2022.2.5,Win32,59.75143403,5f60ec27ae3437000bc97536,64c7fed44a04f777bb1e18ce,64c800ed82212624706af08f,right,1,0.75,0.2429,1,0.028822151,0.8389,39,0,39,0,1,,,,,,,,,,
,,5f60ec27ae3437000bc97536,001,2023-07-31_20h44.38.319,arm3_eps,2022.2.5,Win32,59.75143403,5f60ec27ae3437000bc97536,64c7fed44a04f777bb1e18ce,64c800ed82212624706af08f,right,1,0.75,0.2429,1,0.056366149,0.1242,40,0,40,0,1,,,,,,,,,,
,,5f60ec27ae3437000bc97536,001,2023-07-31_20h44.38.319,arm3_eps,2022.2.5,Win32,59.75143403,5f60ec27ae3437000bc97536,64c7fed44a04f777bb1e18ce,64c800ed82212624706af08f,right,1,0.75,0.2429,1,0.089208576,0.4226,41,0,41,0,1,,,,,,,,,,
,,5f60ec27ae3437000bc97536,001,2023-07-31_20h44.38.319,arm3_eps,2022.2.5,Win32,59.75143403,5f60ec27ae3437000bc97536,64c7fed44a04f777bb1e18ce,64c800ed82212624706af08f,up,1,0.75,0.2429,2,0,0.6495,42,0,42,0,1,,,,,,,,,,
,,5f60ec27ae3437000bc97536,001,2023-07-31_20h44.38.319,arm3_eps,2022.2.5,Win32,59.75143403,5f60ec27ae3437000bc97536,64c7fed44a04f777bb1e18ce,64c800ed82212624706af08f,right,1,0.75,0.2429,2,0.035746179,1.2101,43,0,43,0,1,,,,,,,,,,
,,5f60ec27ae3437000bc97536,001,2023-07-31_20h44.38.319,arm3_eps,2022.2.5,Win32,59.75143403,5f60ec27ae3437000bc97536,64c7fed44a04f777bb1e18ce,64c800ed82212624706af08f,right,1,0.75,0.2429,2,0.048727263,0.1446,44,0,44,0,1,,,,,,,,,,
,,5f60ec27ae3437000bc97536,001,2023-07-31_20h44.38.319,arm3_eps,2022.2.5,Win32,59.75143403,5f60ec27ae3437000bc97536,64c7fed44a04f777bb1e18ce,64c800ed82212624706af08f,right,1,0.75,0.2429,2,0.050797119,0.3501,45,0,45,0,1,,,,,,,,,,
,,5f60ec27ae3437000bc97536,001,2023-07-31_20h44.38.319,arm3_eps,2022.2.5,Win32,59.75143403,5f60ec27ae3437000bc97536,64c7fed44a04f777bb1e18ce,64c800ed82212624706af08f,up,1,0.75,0.2429,2,0,0.7499,46,0,46,0,1,,,,,,,,,,
,,5f60ec27ae3437000bc97536,001,2023-07-31_20h44.38.319,arm3_eps,2022.2.5,Win32,59.75143403,5f60ec27ae3437000bc97536,64c7fed44a04f777bb1e18ce,64c800ed82212624706af08f,right,1,0.75,0.2429,2,0.023268378,0.9727,47,0,47,0,1,,,,,,,,,,
,,5f60ec27ae3437000bc97536,001,2023-07-31_20h44.38.319,arm3_eps,2022.2.5,Win32,59.75143403,5f60ec27ae3437000bc97536,64c7fed44a04f777bb1e18ce,64c800ed82212624706af08f,right,1,0.75,0.2429,2,0.03267983,0.1002,48,0,48,0,1,,,,,,,,,,
,,5f60ec27ae3437000bc97536,001,2023-07-31_20h44.38.319,arm3_eps,2022.2.5,Win32,59.75143403,5f60ec27ae3437000bc97536,64c7fed44a04f777bb1e18ce,64c800ed82212624706af08f,up,1,0.75,0.2429,2,0.03267983,1.2171,49,0,49,0,1,,,,,,,,,,
space,15.4069,5f60ec27ae3437000bc97536,001,2023-07-31_20h44.38.319,arm3_eps,2022.2.5,Win32,59.75143403,5f60ec27ae3437000bc97536,64c7fed44a04f777bb1e18ce,64c800ed82212624706af08f,,,,,,,,,,,,,,,,,,,,,,
space,17.8323,5f60ec27ae3437000bc97536,001,2023-07-31_20h44.38.319,arm3_eps,2022.2.5,Win32,59.75143403,5f60ec27ae3437000bc97536,64c7fed44a04f777bb1e18ce,64c800ed82212624706af08f,,,,,,,,,,,,,,,,,,,,,,
space,0.7003,5f60ec27ae3437000bc97536,001,2023-07-31_20h44.38.319,arm3_eps,2022.2.5,Win32,59.75143403,5f60ec27ae3437000bc97536,64c7fed44a04f777bb1e18ce,64c800ed82212624706af08f,,,,,,,,,,,,,,,,,,,,,,
,,5f60ec27ae3437000bc97536,001,2023-07-31_20h44.38.319,arm3_eps,2022.2.5,Win32,59.75143403,5f60ec27ae3437000bc97536,64c7fed44a04f777bb1e18ce,64c800ed82212624706af08f,up,1,0.75,0.05,1,0,3.8784,0,0,0,0,1,,,,,,,,,,
,,5f60ec27ae3437000bc97536,001,2023-07-31_20h44.38.319,arm3_eps,2022.2.5,Win32,59.75143403,5f60ec27ae3437000bc97536,64c7fed44a04f777bb1e18ce,64c800ed82212624706af08f,down,1,0.75,0.05,0,0,1.2161,1,0,1,0,1,,,,,,,,,,
,,5f60ec27ae3437000bc97536,001,2023-07-31_20h44.38.319,arm3_eps,2022.2.5,Win32,59.75143403,5f60ec27ae3437000bc97536,64c7fed44a04f777bb1e18ce,64c800ed82212624706af08f,right,1,0.75,0.05,0,0.001243295,2.1442,2,0,2,0,1,,,,,,,,,,
,,5f60ec27ae3437000bc97536,001,2023-07-31_20h44.38.319,arm3_eps,2022.2.5,Win32,59.75143403,5f60ec27ae3437000bc97536,64c7fed44a04f777bb1e18ce,64c800ed82212624706af08f,down,1,0.75,0.05,-1,0,0.9331,3,0,3,0,1,,,,,,,,,,
,,5f60ec27ae3437000bc97536,001,2023-07-31_20h44.38.319,arm3_eps,2022.2.5,Win32,59.75143403,5f60ec27ae3437000bc97536,64c7fed44a04f777bb1e18ce,64c800ed82212624706af08f,right,1,0.75,0.05,-1,0.011243856,0.8431,4,0,4,0,1,,,,,,,,,,
,,5f60ec27ae3437000bc97536,001,2023-07-31_20h44.38.319,arm3_eps,2022.2.5,Win32,59.75143403,5f60ec27ae3437000bc97536,64c7fed44a04f777bb1e18ce,64c800ed82212624706af08f,right,1,0.75,0.05,-1,0.030291597,0.4726,5,0,5,0,1,,,,,,,,,,
,,5f60ec27ae3437000bc97536,001,2023-07-31_20h44.38.319,arm3_eps,2022.2.5,Win32,59.75143403,5f60ec27ae3437000bc97536,64c7fed44a04f777bb1e18ce,64c800ed82212624706af08f,up,1,0.75,0.05,0,0,0.7881,6,0,6,0,1,,,,,,,,,,
,,5f60ec27ae3437000bc97536,001,2023-07-31_20h44.38.319,arm3_eps,2022.2.5,Win32,59.75143403,5f60ec27ae3437000bc97536,64c7fed44a04f777bb1e18ce,64c800ed82212624706af08f,right,1,0.75,0.05,0,0.023580752,0.7927,7,0,7,0,1,,,,,,,,,,
,,5f60ec27ae3437000bc97536,001,2023-07-31_20h44.38.319,arm3_eps,2022.2.5,Win32,59.75143403,5f60ec27ae3437000bc97536,64c7fed44a04f777bb1e18ce,64c800ed82212624706af08f,right,1,0.75,0.05,0,0.020395798,0.1658,8,0,8,0,1,,,,,,,,,,
,,5f60ec27ae3437000bc97536,001,2023-07-31_20h44.38.319,arm3_eps,2022.2.5,Win32,59.75143403,5f60ec27ae3437000bc97536,64c7fed44a04f777bb1e18ce,64c800ed82212624706af08f,up,1,0.75,0.05,0,0,0.4861,9,0,9,0,1,,,,,,,,,,
,,5f60ec27ae3437000bc97536,001,2023-07-31_20h44.38.319,arm3_eps,2022.2.5,Win32,59.75143403,5f60ec27ae3437000bc97536,64c7fed44a04f777bb1e18ce,64c800ed82212624706af08f,right,1,0.75,0.05,0,0.015980326,0.898,10,0,10,0,1,,,,,,,,,,
,,5f60ec27ae3437000bc97536,001,2023-07-31_20h44.38.319,arm3_eps,2022.2.5,Win32,59.75143403,5f60ec27ae3437000bc97536,64c7fed44a04f777bb1e18ce,64c800ed82212624706af08f,right,1,0.75,0.05,0,0.020299704,0.1482,11,0,11,0,1,,,,,,,,,,
,,5f60ec27ae3437000bc97536,001,2023-07-31_20h44.38.319,arm3_eps,2022.2.5,Win32,59.75143403,5f60ec27ae3437000bc97536,64c7fed44a04f777bb1e18ce,64c800ed82212624706af08f,up,1,0.75,0.05,1,0,0.4633,12,0,12,0,1,,,,,,,,,,
,,5f60ec27ae3437000bc97536,001,2023-07-31_20h44.38.319,arm3_eps,2022.2.5,Win32,59.75143403,5f60ec27ae3437000bc97536,64c7fed44a04f777bb1e18ce,64c800ed82212624706af08f,right,1,0.75,0.05,1,0.025351518,0.8312,13,0,13,0,1,,,,,,,,,,
,,5f60ec27ae3437000bc97536,001,2023-07-31_20h44.38.319,arm3_eps,2022.2.5,Win32,59.75143403,5f60ec27ae3437000bc97536,64c7fed44a04f777bb1e18ce,64c800ed82212624706af08f,right,1,0.75,0.05,1,0.034131131,0.1287,14,0,14,0,1,,,,,,,,,,
,,5f60ec27ae3437000bc97536,001,2023-07-31_20h44.38.319,arm3_eps,2022.2.5,Win32,59.75143403,5f60ec27ae3437000bc97536,64c7fed44a04f777bb1e18ce,64c800ed82212624706af08f,up,-1,0.75,0.05,1,0,0.4684,15,0,15,0,1,,,,,,,,,,
,,5f60ec27ae3437000bc97536,001,2023-07-31_20h44.38.319,arm3_eps,2022.2.5,Win32,59.75143403,5f60ec27ae3437000bc97536,64c7fed44a04f777bb1e18ce,64c800ed82212624706af08f,right,-1,0.75,0.05,1,-0.009380045,0.8185,16,0,16,0,1,,,,,,,,,,
,,5f60ec27ae3437000bc97536,001,2023-07-31_20h44.38.319,arm3_eps,2022.2.5,Win32,59.75143403,5f60ec27ae3437000bc97536,64c7fed44a04f777bb1e18ce,64c800ed82212624706af08f,right,-1,0.75,0.05,1,-0.015891355,0.3839,17,0,17,0,1,,,,,,,,,,
,,5f60ec27ae3437000bc97536,001,2023-07-31_20h44.38.319,arm3_eps,2022.2.5,Win32,59.75143403,5f60ec27ae3437000bc97536,64c7fed44a04f777bb1e18ce,64c800ed82212624706af08f,down,-1,0.75,0.05,2,0,0.4369,18,0,18,0,1,,,,,,,,,,
,,5f60ec27ae3437000bc97536,001,2023-07-31_20h44.38.319,arm3_eps,2022.2.5,Win32,59.75143403,5f60ec27ae3437000bc97536,64c7fed44a04f777bb1e18ce,64c800ed82212624706af08f,right,-1,0.75,0.05,2,-0.032407143,0.8176,19,0,19,0,1,,,,,,,,,,
,,5f60ec27ae3437000bc97536,001,2023-07-31_20h44.38.319,arm3_eps,2022.2.5,Win32,59.75143403,5f60ec27ae3437000bc97536,64c7fed44a04f777bb1e18ce,64c800ed82212624706af08f,right,-1,0.75,0.05,2,-0.063668194,0.3153,20,0,20,0,1,,,,,,,,,,
,,5f60ec27ae3437000bc97536,001,2023-07-31_20h44.38.319,arm3_eps,2022.2.5,Win32,59.75143403,5f60ec27ae3437000bc97536,64c7fed44a04f777bb1e18ce,64c800ed82212624706af08f,down,-1,0.75,0.05,3,0,0.3297,21,0,21,0,1,,,,,,,,,,
,,5f60ec27ae3437000bc97536,001,2023-07-31_20h44.38.319,arm3_eps,2022.2.5,Win32,59.75143403,5f60ec27ae3437000bc97536,64c7fed44a04f777bb1e18ce,64c800ed82212624706af08f,right,-1,0.75,0.05,3,-0.040578231,0.8285,22,0,22,0,1,,,,,,,,,,
,,5f60ec27ae3437000bc97536,001,2023-07-31_20h44.38.319,arm3_eps,2022.2.5,Win32,59.75143403,5f60ec27ae3437000bc97536,64c7fed44a04f777bb1e18ce,64c800ed82212624706af08f,right,-1,0.75,0.05,3,-0.029258103,0.3684,23,0,23,0,1,,,,,,,,,,
,,5f60ec27ae3437000bc97536,001,2023-07-31_20h44.38.319,arm3_eps,2022.2.5,Win32,59.75143403,5f60ec27ae3437000bc97536,64c7fed44a04f777bb1e18ce,64c800ed82212624706af08f,right,-1,0.75,0.05,3,-0.009804781,0.4192,24,0,24,0,1,,,,,,,,,,
,,5f60ec27ae3437000bc97536,001,2023-07-31_20h44.38.319,arm3_eps,2022.2.5,Win32,59.75143403,5f60ec27ae3437000bc97536,64c7fed44a04f777bb1e18ce,64c800ed82212624706af08f,down,-1,0.75,0.05,4,0,0.7858,25,0,25,0,1,,,,,,,,,,
,,5f60ec27ae3437000bc97536,001,2023-07-31_20h44.38.319,arm3_eps,2022.2.5,Win32,59.75143403,5f60ec27ae3437000bc97536,64c7fed44a04f777bb1e18ce,64c800ed82212624706af08f,right,-1,0.75,0.05,4,-0.007167896,1.0645,26,0,26,0,1,,,,,,,,,,
,,5f60ec27ae3437000bc97536,001,2023-07-31_20h44.38.319,arm3_eps,2022.2.5,Win32,59.75143403,5f60ec27ae3437000bc97536,64c7fed44a04f777bb1e18ce,64c800ed82212624706af08f,right,-1,0.75,0.05,4,-0.015660568,0.1383,27,0,27,0,1,,,,,,,,,,
,,5f60ec27ae3437000bc97536,001,2023-07-31_20h44.38.319,arm3_eps,2022.2.5,Win32,59.75143403,5f60ec27ae3437000bc97536,64c7fed44a04f777bb1e18ce,64c800ed82212624706af08f,right,-1,0.75,0.05,4,-0.015241522,0.5476,28,0,28,0,1,,,,,,,,,,
,,5f60ec27ae3437000bc97536,001,2023-07-31_20h44.38.319,arm3_eps,2022.2.5,Win32,59.75143403,5f60ec27ae3437000bc97536,64c7fed44a04f777bb1e18ce,64c800ed82212624706af08f,right,-1,0.75,0.05,4,-0.002643166,0.3834,29,0,29,0,1,,,,,,,,,,
,,5f60ec27ae3437000bc97536,001,2023-07-31_20h44.38.319,arm3_eps,2022.2.5,Win32,59.75143403,5f60ec27ae3437000bc97536,64c7fed44a04f777bb1e18ce,64c800ed82212624706af08f,right,-1,0.75,0.05,4,0.012351838,1.0142,30,0,30,0,1,,,,,,,,,,
,,5f60ec27ae3437000bc97536,001,2023-07-31_20h44.38.319,arm3_eps,2022.2.5,Win32,59.75143403,5f60ec27ae3437000bc97536,64c7fed44a04f777bb1e18ce,64c800ed82212624706af08f,right,-1,0.75,0.05,4,-0.011648069,1.0466,31,0,31,0,1,,,,,,,,,,
,,5f60ec27ae3437000bc97536,001,2023-07-31_20h44.38.319,arm3_eps,2022.2.5,Win32,59.75143403,5f60ec27ae3437000bc97536,64c7fed44a04f777bb1e18ce,64c800ed82212624706af08f,right,-1,0.75,0.05,4,0.016406498,0.8181,32,0,32,0,1,,,,,,,,,,
,,5f60ec27ae3437000bc97536,001,2023-07-31_20h44.38.319,arm3_eps,2022.2.5,Win32,59.75143403,5f60ec27ae3437000bc97536,64c7fed44a04f777bb1e18ce,64c800ed82212624706af08f,up,-1,0.75,0.05,3,0,0.7064,33,0,33,0,1,,,,,,,,,,
,,5f60ec27ae3437000bc97536,001,2023-07-31_20h44.38.319,arm3_eps,2022.2.5,Win32,59.75143403,5f60ec27ae3437000bc97536,64c7fed44a04f777bb1e18ce,64c800ed82212624706af08f,right,-1,0.75,0.05,3,0.009539534,0.7325,34,0,34,0,1,,,,,,,,,,
,,5f60ec27ae3437000bc97536,001,2023-07-31_20h44.38.319,arm3_eps,2022.2.5,Win32,59.75143403,5f60ec27ae3437000bc97536,64c7fed44a04f777bb1e18ce,64c800ed82212624706af08f,right,-1,0.75,0.05,3,0.01556405,0.1286,35,0,35,0,1,,,,,,,,,,
,,5f60ec27ae3437000bc97536,001,2023-07-31_20h44.38.319,arm3_eps,2022.2.5,Win32,59.75143403,5f60ec27ae3437000bc97536,64c7fed44a04f777bb1e18ce,64c800ed82212624706af08f,right,-1,0.75,0.05,3,0.008560309,0.1457,36,0,36,0,1,,,,,,,,,,
,,5f60ec27ae3437000bc97536,001,2023-07-31_20h44.38.319,arm3_eps,2022.2.5,Win32,59.75143403,5f60ec27ae3437000bc97536,64c7fed44a04f777bb1e18ce,64c800ed82212624706af08f,right,-1,0.75,0.05,3,-0.004272811,0.4342,37,0,37,0,1,,,,,,,,,,
,,5f60ec27ae3437000bc97536,001,2023-07-31_20h44.38.319,arm3_eps,2022.2.5,Win32,59.75143403,5f60ec27ae3437000bc97536,64c7fed44a04f777bb1e18ce,64c800ed82212624706af08f,right,-1,0.75,0.05,3,-0.034061102,0.4155,38,0,38,0,1,,,,,,,,,,
,,5f60ec27ae3437000bc97536,001,2023-07-31_20h44.38.319,arm3_eps,2022.2.5,Win32,59.75143403,5f60ec27ae3437000bc97536,64c7fed44a04f777bb1e18ce,64c800ed82212624706af08f,down,-1,0.75,0.05,4,0,0.5666,39,0,39,0,1,,,,,,,,,,
,,5f60ec27ae3437000bc97536,001,2023-07-31_20h44.38.319,arm3_eps,2022.2.5,Win32,59.75143403,5f60ec27ae3437000bc97536,64c7fed44a04f777bb1e18ce,64c800ed82212624706af08f,right,-1,0.75,0.05,4,-0.044452765,0.7954,40,0,40,0,1,,,,,,,,,,
,,5f60ec27ae3437000bc97536,001,2023-07-31_20h44.38.319,arm3_eps,2022.2.5,Win32,59.75143403,5f60ec27ae3437000bc97536,64c7fed44a04f777bb1e18ce,64c800ed82212624706af08f,right,-1,0.75,0.05,4,-0.065124101,0.1517,41,0,41,0,1,,,,,,,,,,
,,5f60ec27ae3437000bc97536,001,2023-07-31_20h44.38.319,arm3_eps,2022.2.5,Win32,59.75143403,5f60ec27ae3437000bc97536,64c7fed44a04f777bb1e18ce,64c800ed82212624706af08f,right,-1,0.75,0.05,4,-0.061520794,0.5229,42,0,42,0,1,,,,,,,,,,
,,5f60ec27ae3437000bc97536,001,2023-07-31_20h44.38.319,arm3_eps,2022.2.5,Win32,59.75143403,5f60ec27ae3437000bc97536,64c7fed44a04f777bb1e18ce,64c800ed82212624706af08f,down,-1,0.75,0.05,5,0,0.482,43,0,43,0,1,,,,,,,,,,
,,5f60ec27ae3437000bc97536,001,2023-07-31_20h44.38.319,arm3_eps,2022.2.5,Win32,59.75143403,5f60ec27ae3437000bc97536,64c7fed44a04f777bb1e18ce,64c800ed82212624706af08f,right,-1,0.75,0.05,5,-0.012737519,0.8738,44,0,44,0,1,,,,,,,,,,
,,5f60ec27ae3437000bc97536,001,2023-07-31_20h44.38.319,arm3_eps,2022.2.5,Win32,59.75143403,5f60ec27ae3437000bc97536,64c7fed44a04f777bb1e18ce,64c800ed82212624706af08f,right,-1,0.75,0.05,5,-0.007613824,0.123,45,0,45,0,1,,,,,,,,,,
,,5f60ec27ae3437000bc97536,001,2023-07-31_20h44.38.319,arm3_eps,2022.2.5,Win32,59.75143403,5f60ec27ae3437000bc97536,64c7fed44a04f777bb1e18ce,64c800ed82212624706af08f,right,-1,0.75,0.05,5,-0.00888608,0.3316,46,0,46,0,1,,,,,,,,,,
,,5f60ec27ae3437000bc97536,001,2023-07-31_20h44.38.319,arm3_eps,2022.2.5,Win32,59.75143403,5f60ec27ae3437000bc97536,64c7fed44a04f777bb1e18ce,64c800ed82212624706af08f,right,-1,0.75,0.05,5,-0.014952161,0.3468,47,0,47,0,1,,,,,,,,,,
,,5f60ec27ae3437000bc97536,001,2023-07-31_20h44.38.319,arm3_eps,2022.2.5,Win32,59.75143403,5f60ec27ae3437000bc97536,64c7fed44a04f777bb1e18ce,64c800ed82212624706af08f,down,-1,0.75,0.05,5,0,0.4188,48,0,48,0,1,,,,,,,,,,
,,5f60ec27ae3437000bc97536,001,2023-07-31_20h44.38.319,arm3_eps,2022.2.5,Win32,59.75143403,5f60ec27ae3437000bc97536,64c7fed44a04f777bb1e18ce,64c800ed82212624706af08f,right,-1,0.75,0.05,5,-0.00988674,1.7849,49,0,49,0,1,,,,,,,,,,
space,12.2069,5f60ec27ae3437000bc97536,001,2023-07-31_20h44.38.319,arm3_eps,2022.2.5,Win32,59.75143403,5f60ec27ae3437000bc97536,64c7fed44a04f777bb1e18ce,64c800ed82212624706af08f,,,,,,,,,,,,,,,,,,,,,,
space,0.7155,5f60ec27ae3437000bc97536,001,2023-07-31_20h44.38.319,arm3_eps,2022.2.5,Win32,59.75143403,5f60ec27ae3437000bc97536,64c7fed44a04f777bb1e18ce,64c800ed82212624706af08f,,,,,,,,,,,,,,,,,,,,,,
,,5f60ec27ae3437000bc97536,001,2023-07-31_20h44.38.319,arm3_eps,2022.2.5,Win32,59.75143403,5f60ec27ae3437000bc97536,64c7fed44a04f777bb1e18ce,64c800ed82212624706af08f,right,-1,0.75,0.5,0,-0.013945703,1.4002,0,0,0,0,1,,,,,,,,,,
,,5f60ec27ae3437000bc97536,001,2023-07-31_20h44.38.319,arm3_eps,2022.2.5,Win32,59.75143403,5f60ec27ae3437000bc97536,64c7fed44a04f777bb1e18ce,64c800ed82212624706af08f,right,-1,0.75,0.5,0,-0.025212761,0.1371,1,0,1,0,1,,,,,,,,,,
,,5f60ec27ae3437000bc97536,001,2023-07-31_20h44.38.319,arm3_eps,2022.2.5,Win32,59.75143403,5f60ec27ae3437000bc97536,64c7fed44a04f777bb1e18ce,64c800ed82212624706af08f,right,-1,0.75,0.5,0,-0.033472917,0.4204,2,0,2,0,1,,,,,,,,,,
,,5f60ec27ae3437000bc97536,001,2023-07-31_20h44.38.319,arm3_eps,2022.2.5,Win32,59.75143403,5f60ec27ae3437000bc97536,64c7fed44a04f777bb1e18ce,64c800ed82212624706af08f,right,-1,0.75,0.5,0,-0.054481445,0.3902,3,0,3,0,1,,,,,,,,,,
,,5f60ec27ae3437000bc97536,001,2023-07-31_20h44.38.319,arm3_eps,2022.2.5,Win32,59.75143403,5f60ec27ae3437000bc97536,64c7fed44a04f777bb1e18ce,64c800ed82212624706af08f,right,-1,0.75,0.5,0,-0.0841253,0.3777,4,0,4,0,1,,,,,,,,,,
,,5f60ec27ae3437000bc97536,001,2023-07-31_20h44.38.319,arm3_eps,2022.2.5,Win32,59.75143403,5f60ec27ae3437000bc97536,64c7fed44a04f777bb1e18ce,64c800ed82212624706af08f,down,1,0.75,0.5,1,0,0.6294,5,0,5,0,1,,,,,,,,,,
,,5f60ec27ae3437000bc97536,001,2023-07-31_20h44.38.319,arm3_eps,2022.2.5,Win32,59.75143403,5f60ec27ae3437000bc97536,64c7fed44a04f777bb1e18ce,64c800ed82212624706af08f,right,1,0.75,0.5,1,0.006281117,0.7468,6,0,6,0,1,,,,,,,,,,
,,5f60ec27ae3437000bc97536,001,2023-07-31_20h44.38.319,arm3_eps,2022.2.5,Win32,59.75143403,5f60ec27ae3437000bc97536,64c7fed44a04f777bb1e18ce,64c800ed82212624706af08f,right,1,0.75,0.5,1,0.035663052,0.1475,7,0,7,0,1,,,,,,,,,,
,,5f60ec27ae3437000bc97536,001,2023-07-31_20h44.38.319,arm3_eps,2022.2.5,Win32,59.75143403,5f60ec27ae3437000bc97536,64c7fed44a04f777bb1e18ce,64c800ed82212624706af08f,right,1,0.75,0.5,1,0.076693646,0.3612,8,0,8,0,1,,,,,,,,,,
,,5f60ec27ae3437000bc97536,001,2023-07-31_20h44.38.319,arm3_eps,2022.2.5,Win32,59.75143403,5f60ec27ae3437000bc97536,64c7fed44a04f777bb1e18ce,64c800ed82212624706af08f,right,1,0.75,0.5,1,0.099676436,0.3993,9,0,9,0,1,,,,,,,,,,
,,5f60ec27ae3437000bc97536,001,2023-07-31_20h44.38.319,arm3_eps,2022.2.5,Win32,59.75143403,5f60ec27ae3437000bc97536,64c7fed44a04f777bb1e18ce,64c800ed82212624706af08f,up,-1,0.75,0.5,1,0,0.5644,10,0,10,0,1,,,,,,,,,,
,,5f60ec27ae3437000bc97536,001,2023-07-31_20h44.38.319,arm3_eps,2022.2.5,Win32,59.75143403,5f60ec27ae3437000bc97536,64c7fed44a04f777bb1e18ce,64c800ed82212624706af08f,right,-1,0.75,0.5,1,-0.013486659,3.0938,11,0,11,0,1,,,,,,,,,,
,,5f60ec27ae3437000bc97536,001,2023-07-31_20h44.38.319,arm3_eps,2022.2.5,Win32,59.75143403,5f60ec27ae3437000bc97536,64c7fed44a04f777bb1e18ce,64c800ed82212624706af08f,right,-1,0.75,0.5,1,-0.046098094,0.1314,12,0,12,0,1,,,,,,,,,,
,,5f60ec27ae3437000bc97536,001,2023-07-31_20h44.38.319,arm3_eps,2022.2.5,Win32,59.75143403,5f60ec27ae3437000bc97536,64c7fed44a04f777bb1e18ce,64c800ed82212624706af08f,right,-1,0.75,0.5,1,-0.057633298,0.1152,13,0,13,0,1,,,,,,,,,,
,,5f60ec27ae3437000bc97536,001,2023-07-31_20h44.38.319,arm3_eps,2022.2.5,Win32,59.75143403,5f60ec27ae3437000bc97536,64c7fed44a04f777bb1e18ce,64c800ed82212624706af08f,right,-1,0.75,0.5,1,-0.042614675,0.563,14,0,14,0,1,,,,,,,,,,
,,5f60ec27ae3437000bc97536,001,2023-07-31_20h44.38.319,arm3_eps,2022.2.5,Win32,59.75143403,5f60ec27ae3437000bc97536,64c7fed44a04f777bb1e18ce,64c800ed82212624706af08f,down,1,0.75,0.5,2,0,0.7728,15,0,15,0,1,,,,,,,,,,
,,5f60ec27ae3437000bc97536,001,2023-07-31_20h44.38.319,arm3_eps,2022.2.5,Win32,59.75143403,5f60ec27ae3437000bc97536,64c7fed44a04f777bb1e18ce,64c800ed82212624706af08f,right,1,0.75,0.5,2,0.018584322,0.8136,16,0,16,0,1,,,,,,,,,,
,,5f60ec27ae3437000bc97536,001,2023-07-31_20h44.38.319,arm3_eps,2022.2.5,Win32,59.75143403,5f60ec27ae3437000bc97536,64c7fed44a04f777bb1e18ce,64c800ed82212624706af08f,right,1,0.75,0.5,2,0.006867831,0.1136,17,0,17,0,1,,,,,,,,,,
,,5f60ec27ae3437000bc97536,001,2023-07-31_20h44.38.319,arm3_eps,2022.2.5,Win32,59.75143403,5f60ec27ae3437000bc97536,64c7fed44a04f777bb1e18ce,64c800ed82212624706af08f,right,1,0.75,0.5,2,-0.005614736,0.1347,18,0,18,0,1,,,,,,,,,,
,,5f60ec27ae3437000bc97536,001,2023-07-31_20h44.38.319,arm3_eps,2022.2.5,Win32,59.75143403,5f60ec27ae3437000bc97536,64c7fed44a04f777bb1e18ce,64c800ed82212624706af08f,right,1,0.75,0.5,2,0.007248655,0.2,19,0,19,0,1,,,,,,,,,,
,,5f60ec27ae3437000bc97536,001,2023-07-31_20h44.38.319,arm3_eps,2022.2.5,Win32,59.75143403,5f60ec27ae3437000bc97536,64c7fed44a04f777bb1e18ce,64c800ed82212624706af08f,right,1,0.75,0.5,2,0.008422997,0.3882,20,0,20,0,1,,,,,,,,,,
,,5f60ec27ae3437000bc97536,001,2023-07-31_20h44.38.319,arm3_eps,2022.2.5,Win32,59.75143403,5f60ec27ae3437000bc97536,64c7fed44a04f777bb1e18ce,64c800ed82212624706af08f,right,1,0.75,0.5,2,0.021992233,0.3969,21,0,21,0,1,,,,,,,,,,
,,5f60ec27ae3437000bc97536,001,2023-07-31_20h44.38.319,arm3_eps,2022.2.5,Win32,59.75143403,5f60ec27ae3437000bc97536,64c7fed44a04f777bb1e18ce,64c800ed82212624706af08f,up,-1,0.75,0.5,3,0,1.6319,22,0,22,0,1,,,,,,,,,,
,,5f60ec27ae3437000bc97536,001,2023-07-31_20h44.38.319,arm3_eps,2022.2.5,Win32,59.75143403,5f60ec27ae3437000bc97536,64c7fed44a04f777bb1e18ce,64c800ed82212624706af08f,right,-1,0.75,0.5,3,-0.030989706,14.8085,23,0,23,0,1,,,,,,,,,,
,,5f60ec27ae3437000bc97536,001,2023-07-31_20h44.38.319,arm3_eps,2022.2.5,Win32,59.75143403,5f60ec27ae3437000bc97536,64c7fed44a04f777bb1e18ce,64c800ed82212624706af08f,right,-1,0.75,0.5,3,-0.023427002,0.1248,24,0,24,0,1,,,,,,,,,,
,,5f60ec27ae3437000bc97536,001,2023-07-31_20h44.38.319,arm3_eps,2022.2.5,Win32,59.75143403,5f60ec27ae3437000bc97536,64c7fed44a04f777bb1e18ce,64c800ed82212624706af08f,right,-1,0.75,0.5,3,-0.046885376,0.2946,25,0,25,0,1,,,,,,,,,,
,,5f60ec27ae3437000bc97536,001,2023-07-31_20h44.38.319,arm3_eps,2022.2.5,Win32,59.75143403,5f60ec27ae3437000bc97536,64c7fed44a04f777bb1e18ce,64c800ed82212624706af08f,down,1,0.75,0.5,4,0,0.3879,26,0,26,0,1,,,,,,,,,,
,,5f60ec27ae3437000bc97536,001,2023-07-31_20h44.38.319,arm3_eps,2022.2.5,Win32,59.75143403,5f60ec27ae3437000bc97536,64c7fed44a04f777bb1e18ce,64c800ed82212624706af08f,right,1,0.75,0.5,4,0.027199848,1.0692,27,0,27,0,1,,,,,,,,,,
,,5f60ec27ae3437000bc97536,001,2023-07-31_20h44.38.319,arm3_eps,2022.2.5,Win32,59.75143403,5f60ec27ae3437000bc97536,64c7fed44a04f777bb1e18ce,64c800ed82212624706af08f,right,1,0.75,0.5,4,0.023288356,0.1639,28,0,28,0,1,,,,,,,,,,
,,5f60ec27ae3437000bc97536,001,2023-07-31_20h44.38.319,arm3_eps,2022.2.5,Win32,59.75143403,5f60ec27ae3437000bc97536,64c7fed44a04f777bb1e18ce,64c800ed82212624706af08f,right,1,0.75,0.5,4,0.014744706,0.3672,29,0,29,0,1,,,,,,,,,,
,,5f60ec27ae3437000bc97536,001,2023-07-31_20h44.38.319,arm3_eps,2022.2.5,Win32,59.75143403,5f60ec27ae3437000bc97536,64c7fed44a04f777bb1e18ce,64c800ed82212624706af08f,right,1,0.75,0.5,4,0.028209386,0.7678,30,0,30,0,1,,,,,,,,,,
,,5f60ec27ae3437000bc97536,001,2023-07-31_20h44.38.319,arm3_eps,2022.2.5,Win32,59.75143403,5f60ec27ae3437000bc97536,64c7fed44a04f777bb1e18ce,64c800ed82212624706af08f,up,1,0.75,0.5,5,0,0.5546,31,0,31,0,1,,,,,,,,,,
,,5f60ec27ae3437000bc97536,001,2023-07-31_20h44.38.319,arm3_eps,2022.2.5,Win32,59.75143403,5f60ec27ae3437000bc97536,64c7fed44a04f777bb1e18ce,64c800ed82212624706af08f,right,1,0.75,0.5,5,-0.00443555,1.0241,32,0,32,0,1,,,,,,,,,,
,,5f60ec27ae3437000bc97536,001,2023-07-31_20h44.38.319,arm3_eps,2022.2.5,Win32,59.75143403,5f60ec27ae3437000bc97536,64c7fed44a04f777bb1e18ce,64c800ed82212624706af08f,right,1,0.75,0.5,5,0.011469814,0.1376,33,0,33,0,1,,,,,,,,,,
,,5f60ec27ae3437000bc97536,001,2023-07-31_20h44.38.319,arm3_eps,2022.2.5,Win32,59.75143403,5f60ec27ae3437000bc97536,64c7fed44a04f777bb1e18ce,64c800ed82212624706af08f,right,1,0.75,0.5,5,0.034960344,0.3554,34,0,34,0,1,,,,,,,,,,
,,5f60ec27ae3437000bc97536,001,2023-07-31_20h44.38.319,arm3_eps,2022.2.5,Win32,59.75143403,5f60ec27ae3437000bc97536,64c7fed44a04f777bb1e18ce,64c800ed82212624706af08f,right,1,0.75,0.5,5,0.052809632,0.3016,35,0,35,0,1,,,,,,,,,,
,,5f60ec27ae3437000bc97536,001,2023-07-31_20h44.38.319,arm3_eps,2022.2.5,Win32,59.75143403,5f60ec27ae3437000bc97536,64c7fed44a04f777bb1e18ce,64c800ed82212624706af08f,up,1,0.75,0.5,6,0,0.4964,36,0,36,0,1,,,,,,,,,,
,,5f60ec27ae3437000bc97536,001,2023-07-31_20h44.38.319,arm3_eps,2022.2.5,Win32,59.75143403,5f60ec27ae3437000bc97536,64c7fed44a04f777bb1e18ce,64c800ed82212624706af08f,right,1,0.75,0.5,6,0.047378628,1.361,37,0,37,0,1,,,,,,,,,,
,,5f60ec27ae3437000bc97536,001,2023-07-31_20h44.38.319,arm3_eps,2022.2.5,Win32,59.75143403,5f60ec27ae3437000bc97536,64c7fed44a04f777bb1e18ce,64c800ed82212624706af08f,right,1,0.75,0.5,6,0.075361793,0.1332,38,0,38,0,1,,,,,,,,,,
,,5f60ec27ae3437000bc97536,001,2023-07-31_20h44.38.319,arm3_eps,2022.2.5,Win32,59.75143403,5f60ec27ae3437000bc97536,64c7fed44a04f777bb1e18ce,64c800ed82212624706af08f,right,1,0.75,0.5,6,0.092381673,0.4073,39,0,39,0,1,,,,,,,,,,
,,5f60ec27ae3437000bc97536,001,2023-07-31_20h44.38.319,arm3_eps,2022.2.5,Win32,59.75143403,5f60ec27ae3437000bc97536,64c7fed44a04f777bb1e18ce,64c800ed82212624706af08f,up,-1,0.75,0.5,7,0,0.5961,40,0,40,0,1,,,,,,,,,,
,,5f60ec27ae3437000bc97536,001,2023-07-31_20h44.38.319,arm3_eps,2022.2.5,Win32,59.75143403,5f60ec27ae3437000bc97536,64c7fed44a04f777bb1e18ce,64c800ed82212624706af08f,right,-1,0.75,0.5,7,0.010743528,0.7998,41,0,41,0,1,,,,,,,,,,
,,5f60ec27ae3437000bc97536,001,2023-07-31_20h44.38.319,arm3_eps,2022.2.5,Win32,59.75143403,5f60ec27ae3437000bc97536,64c7fed44a04f777bb1e18ce,64c800ed82212624706af08f,right,-1,0.75,0.5,7,-0.00312041,0.1403,42,0,42,0,1,,,,,,,,,,
,,5f60ec27ae3437000bc97536,001,2023-07-31_20h44.38.319,arm3_eps,2022.2.5,Win32,59.75143403,5f60ec27ae3437000bc97536,64c7fed44a04f777bb1e18ce,64c800ed82212624706af08f,right,-1,0.75,0.5,7,-0.012222245,0.3795,43,0,43,0,1,,,,,,,,,,
,,5f60ec27ae3437000bc97536,001,2023-07-31_20h44.38.319,arm3_eps,2022.2.5,Win32,59.75143403,5f60ec27ae3437000bc97536,64c7fed44a04f777bb1e18ce,64c800ed82212624706af08f,right,-1,0.75,0.5,7,0.003231855,0.3347,44,0,44,0,1,,,,,,,,,,
,,5f60ec27ae3437000bc97536,001,2023-07-31_20h44.38.319,arm3_eps,2022.2.5,Win32,59.75143403,5f60ec27ae3437000bc97536,64c7fed44a04f777bb1e18ce,64c800ed82212624706af08f,down,1,0.75,0.5,7,0,0.5376,45,0,45,0,1,,,,,,,,,,
,,5f60ec27ae3437000bc97536,001,2023-07-31_20h44.38.319,arm3_eps,2022.2.5,Win32,59.75143403,5f60ec27ae3437000bc97536,64c7fed44a04f777bb1e18ce,64c800ed82212624706af08f,right,1,0.75,0.5,7,0.03624994,0.734,46,0,46,0,1,,,,,,,,,,
,,5f60ec27ae3437000bc97536,001,2023-07-31_20h44.38.319,arm3_eps,2022.2.5,Win32,59.75143403,5f60ec27ae3437000bc97536,64c7fed44a04f777bb1e18ce,64c800ed82212624706af08f,right,1,0.75,0.5,7,0.02489329,0.1333,47,0,47,0,1,,,,,,,,,,
,,5f60ec27ae3437000bc97536,001,2023-07-31_20h44.38.319,arm3_eps,2022.2.5,Win32,59.75143403,5f60ec27ae3437000bc97536,64c7fed44a04f777bb1e18ce,64c800ed82212624706af08f,right,1,0.75,0.5,7,0.036277283,0.3631,48,0,48,0,1,,,,,,,,,,
,,5f60ec27ae3437000bc97536,001,2023-07-31_20h44.38.319,arm3_eps,2022.2.5,Win32,59.75143403,5f60ec27ae3437000bc97536,64c7fed44a04f777bb1e18ce,64c800ed82212624706af08f,right,1,0.75,0.5,7,0.033628339,0.4795,49,0,49,0,1,,,,,,,,,,
space,2.1581,5f60ec27ae3437000bc97536,001,2023-07-31_20h44.38.319,arm3_eps,2022.2.5,Win32,59.75143403,5f60ec27ae3437000bc97536,64c7fed44a04f777bb1e18ce,64c800ed82212624706af08f,,,,,,,,,,,,,,,,,,,,,,
space,2.1583,5f60ec27ae3437000bc97536,001,2023-07-31_20h44.38.319,arm3_eps,2022.2.5,Win32,59.75143403,5f60ec27ae3437000bc97536,64c7fed44a04f777bb1e18ce,64c800ed82212624706af08f,right,1,0.75,0.4357,0,0.017618676,1.1443,,,,,,0,0,0,0,1,,,,,
,,5f60ec27ae3437000bc97536,001,2023-07-31_20h44.38.319,arm3_eps,2022.2.5,Win32,59.75143403,5f60ec27ae3437000bc97536,64c7fed44a04f777bb1e18ce,64c800ed82212624706af08f,right,1,0.75,0.4357,0,0.042246307,0.1335,,,,,,1,0,1,0,1,,,,,
,,5f60ec27ae3437000bc97536,001,2023-07-31_20h44.38.319,arm3_eps,2022.2.5,Win32,59.75143403,5f60ec27ae3437000bc97536,64c7fed44a04f777bb1e18ce,64c800ed82212624706af08f,right,1,0.75,0.4357,0,0.063424436,0.7086,,,,,,2,0,2,0,1,,,,,
,,5f60ec27ae3437000bc97536,001,2023-07-31_20h44.38.319,arm3_eps,2022.2.5,Win32,59.75143403,5f60ec27ae3437000bc97536,64c7fed44a04f777bb1e18ce,64c800ed82212624706af08f,up,-1,0.75,0.4357,1,0,0.6501,,,,,,3,0,3,0,1,,,,,
,,5f60ec27ae3437000bc97536,001,2023-07-31_20h44.38.319,arm3_eps,2022.2.5,Win32,59.75143403,5f60ec27ae3437000bc97536,64c7fed44a04f777bb1e18ce,64c800ed82212624706af08f,right,-1,0.75,0.4357,1,0.019641364,0.8845,,,,,,4,0,4,0,1,,,,,
,,5f60ec27ae3437000bc97536,001,2023-07-31_20h44.38.319,arm3_eps,2022.2.5,Win32,59.75143403,5f60ec27ae3437000bc97536,64c7fed44a04f777bb1e18ce,64c800ed82212624706af08f,right,-1,0.75,0.4357,1,0.010149804,0.1169,,,,,,5,0,5,0,1,,,,,
,,5f60ec27ae3437000bc97536,001,2023-07-31_20h44.38.319,arm3_eps,2022.2.5,Win32,59.75143403,5f60ec27ae3437000bc97536,64c7fed44a04f777bb1e18ce,64c800ed82212624706af08f,right,-1,0.75,0.4357,1,0.00531684,0.3168,,,,,,6,0,6,0,1,,,,,
,,5f60ec27ae3437000bc97536,001,2023-07-31_20h44.38.319,arm3_eps,2022.2.5,Win32,59.75143403,5f60ec27ae3437000bc97536,64c7fed44a04f777bb1e18ce,64c800ed82212624706af08f,right,-1,0.75,0.4357,1,-0.010624186,0.3998,,,,,,7,0,7,0,1,,,,,
,,5f60ec27ae3437000bc97536,001,2023-07-31_20h44.38.319,arm3_eps,2022.2.5,Win32,59.75143403,5f60ec27ae3437000bc97536,64c7fed44a04f777bb1e18ce,64c800ed82212624706af08f,down,-1,0.75,0.4357,2,0,0.4289,,,,,,8,0,8,0,1,,,,,
,,5f60ec27ae3437000bc97536,001,2023-07-31_20h44.38.319,arm3_eps,2022.2.5,Win32,59.75143403,5f60ec27ae3437000bc97536,64c7fed44a04f777bb1e18ce,64c800ed82212624706af08f,right,-1,0.75,0.4357,2,-0.011401899,0.7953,,,,,,9,0,9,0,1,,,,,
,,5f60ec27ae3437000bc97536,001,2023-07-31_20h44.38.319,arm3_eps,2022.2.5,Win32,59.75143403,5f60ec27ae3437000bc97536,64c7fed44a04f777bb1e18ce,64c800ed82212624706af08f,right,-1,0.75,0.4357,2,-0.038194738,0.1502,,,,,,10,0,10,0,1,,,,,
,,5f60ec27ae3437000bc97536,001,2023-07-31_20h44.38.319,arm3_eps,2022.2.5,Win32,59.75143403,5f60ec27ae3437000bc97536,64c7fed44a04f777bb1e18ce,64c800ed82212624706af08f,right,-1,0.75,0.4357,2,-0.052370722,0.3317,,,,,,11,0,11,0,1,,,,,
,,5f60ec27ae3437000bc97536,001,2023-07-31_20h44.38.319,arm3_eps,2022.2.5,Win32,59.75143403,5f60ec27ae3437000bc97536,64c7fed44a04f777bb1e18ce,64c800ed82212624706af08f,right,-1,0.75,0.4357,2,-0.062557424,0.8209,,,,,,12,0,12,0,1,,,,,
,,5f60ec27ae3437000bc97536,001,2023-07-31_20h44.38.319,arm3_eps,2022.2.5,Win32,59.75143403,5f60ec27ae3437000bc97536,64c7fed44a04f777bb1e18ce,64c800ed82212624706af08f,right,-1,0.75,0.4357,2,-0.055791321,1.1713,,,,,,13,0,13,0,1,,,,,
,,5f60ec27ae3437000bc97536,001,2023-07-31_20h44.38.319,arm3_eps,2022.2.5,Win32,59.75143403,5f60ec27ae3437000bc97536,64c7fed44a04f777bb1e18ce,64c800ed82212624706af08f,down,-1,0.75,0.4357,3,0,0.3999,,,,,,14,0,14,0,1,,,,,
,,5f60ec27ae3437000bc97536,001,2023-07-31_20h44.38.319,arm3_eps,2022.2.5,Win32,59.75143403,5f60ec27ae3437000bc97536,64c7fed44a04f777bb1e18ce,64c800ed82212624706af08f,right,-1,0.75,0.4357,3,-0.007362829,0.8669,,,,,,15,0,15,0,1,,,,,
,,5f60ec27ae3437000bc97536,001,2023-07-31_20h44.38.319,arm3_eps,2022.2.5,Win32,59.75143403,5f60ec27ae3437000bc97536,64c7fed44a04f777bb1e18ce,64c800ed82212624706af08f,right,-1,0.75,0.4357,3,-0.009261922,0.1338,,,,,,16,0,16,0,1,,,,,
,,5f60ec27ae3437000bc97536,001,2023-07-31_20h44.38.319,arm3_eps,2022.2.5,Win32,59.75143403,5f60ec27ae3437000bc97536,64c7fed44a04f777bb1e18ce,64c800ed82212624706af08f,right,-1,0.75,0.4357,3,-0.020573525,0.9698,,,,,,17,0,17,0,1,,,,,
,,5f60ec27ae3437000bc97536,001,2023-07-31_20h44.38.319,arm3_eps,2022.2.5,Win32,59.75143403,5f60ec27ae3437000bc97536,64c7fed44a04f777bb1e18ce,64c800ed82212624706af08f,down,-1,0.75,0.4357,4,0,0.4833,,,,,,18,0,18,0,1,,,,,
,,5f60ec27ae3437000bc97536,001,2023-07-31_20h44.38.319,arm3_eps,2022.2.5,Win32,59.75143403,5f60ec27ae3437000bc97536,64c7fed44a04f777bb1e18ce,64c800ed82212624706af08f,right,-1,0.75,0.4357,4,-0.028130523,0.7999,,,,,,19,0,19,0,1,,,,,
,,5f60ec27ae3437000bc97536,001,2023-07-31_20h44.38.319,arm3_eps,2022.2.5,Win32,59.75143403,5f60ec27ae3437000bc97536,64c7fed44a04f777bb1e18ce,64c800ed82212624706af08f,right,-1,0.75,0.4357,4,-0.038015842,0.1505,,,,,,20,0,20,0,1,,,,,
,,5f60ec27ae3437000bc97536,001,2023-07-31_20h44.38.319,arm3_eps,2022.2.5,Win32,59.75143403,5f60ec27ae3437000bc97536,64c7fed44a04f777bb1e18ce,64c800ed82212624706af08f,right,-1,0.75,0.4357,4,-0.022902549,0.4172,,,,,,21,0,21,0,1,,,,,
,,5f60ec27ae3437000bc97536,001,2023-07-31_20h44.38.319,arm3_eps,2022.2.5,Win32,59.75143403,5f60ec27ae3437000bc97536,64c7fed44a04f777bb1e18ce,64c800ed82212624706af08f,right,-1,0.75,0.4357,4,-0.028861358,0.3499,,,,,,22,0,22,0,1,,,,,
,,5f60ec27ae3437000bc97536,001,2023-07-31_20h44.38.319,arm3_eps,2022.2.5,Win32,59.75143403,5f60ec27ae3437000bc97536,64c7fed44a04f777bb1e18ce,64c800ed82212624706af08f,down,-1,0.75,0.4357,5,0,0.7897,,,,,,23,0,23,0,1,,,,,
,,5f60ec27ae3437000bc97536,001,2023-07-31_20h44.38.319,arm3_eps,2022.2.5,Win32,59.75143403,5f60ec27ae3437000bc97536,64c7fed44a04f777bb1e18ce,64c800ed82212624706af08f,right,-1,0.75,0.4357,5,-0.019658793,0.9835,,,,,,24,0,24,0,1,,,,,
,,5f60ec27ae3437000bc97536,001,2023-07-31_20h44.38.319,arm3_eps,2022.2.5,Win32,59.75143403,5f60ec27ae3437000bc97536,64c7fed44a04f777bb1e18ce,64c800ed82212624706af08f,right,-1,0.75,0.4357,5,-0.051284307,0.1346,,,,,,25,0,25,0,1,,,,,
,,5f60ec27ae3437000bc97536,001,2023-07-31_20h44.38.319,arm3_eps,2022.2.5,Win32,59.75143403,5f60ec27ae3437000bc97536,64c7fed44a04f777bb1e18ce,64c800ed82212624706af08f,down,-1,0.75,0.4357,5,0,0.6334,,,,,,26,0,26,0,1,,,,,
,,5f60ec27ae3437000bc97536,001,2023-07-31_20h44.38.319,arm3_eps,2022.2.5,Win32,59.75143403,5f60ec27ae3437000bc97536,64c7fed44a04f777bb1e18ce,64c800ed82212624706af08f,right,-1,0.75,0.4357,5,-0.020582762,0.8323,,,,,,27,0,27,0,1,,,,,
,,5f60ec27ae3437000bc97536,001,2023-07-31_20h44.38.319,arm3_eps,2022.2.5,Win32,59.75143403,5f60ec27ae3437000bc97536,64c7fed44a04f777bb1e18ce,64c800ed82212624706af08f,right,-1,0.75,0.4357,5,-0.019492354,0.1233,,,,,,28,0,28,0,1,,,,,
,,5f60ec27ae3437000bc97536,001,2023-07-31_20h44.38.319,arm3_eps,2022.2.5,Win32,59.75143403,5f60ec27ae3437000bc97536,64c7fed44a04f777bb1e18ce,64c800ed82212624706af08f,right,-1,0.75,0.4357,5,-0.015152451,0.3168,,,,,,29,0,29,0,1,,,,,
,,5f60ec27ae3437000bc97536,001,2023-07-31_20h44.38.319,arm3_eps,2022.2.5,Win32,59.75143403,5f60ec27ae3437000bc97536,64c7fed44a04f777bb1e18ce,64c800ed82212624706af08f,right,-1,0.75,0.4357,5,-0.038108508,0.3502,,,,,,30,0,30,0,1,,,,,
,,5f60ec27ae3437000bc97536,001,2023-07-31_20h44.38.319,arm3_eps,2022.2.5,Win32,59.75143403,5f60ec27ae3437000bc97536,64c7fed44a04f777bb1e18ce,64c800ed82212624706af08f,down,1,0.75,0.4357,5,0,0.4018,,,,,,31,0,31,0,1,,,,,
,,5f60ec27ae3437000bc97536,001,2023-07-31_20h44.38.319,arm3_eps,2022.2.5,Win32,59.75143403,5f60ec27ae3437000bc97536,64c7fed44a04f777bb1e18ce,64c800ed82212624706af08f,right,1,0.75,0.4357,5,-0.0188569,0.7316,,,,,,32,0,32,0,1,,,,,
,,5f60ec27ae3437000bc97536,001,2023-07-31_20h44.38.319,arm3_eps,2022.2.5,Win32,59.75143403,5f60ec27ae3437000bc97536,64c7fed44a04f777bb1e18ce,64c800ed82212624706af08f,right,1,0.75,0.4357,5,0.004612411,0.1342,,,,,,33,0,33,0,1,,,,,
,,5f60ec27ae3437000bc97536,001,2023-07-31_20h44.38.319,arm3_eps,2022.2.5,Win32,59.75143403,5f60ec27ae3437000bc97536,64c7fed44a04f777bb1e18ce,64c800ed82212624706af08f,down,-1,0.75,0.4357,4,0,0.9556,,,,,,34,0,34,0,1,,,,,
,,5f60ec27ae3437000bc97536,001,2023-07-31_20h44.38.319,arm3_eps,2022.2.5,Win32,59.75143403,5f60ec27ae3437000bc97536,64c7fed44a04f777bb1e18ce,64c800ed82212624706af08f,right,-1,0.75,0.4357,4,0.001309093,0.8832,,,,,,35,0,35,0,1,,,,,
,,5f60ec27ae3437000bc97536,001,2023-07-31_20h44.38.319,arm3_eps,2022.2.5,Win32,59.75143403,5f60ec27ae3437000bc97536,64c7fed44a04f777bb1e18ce,64c800ed82212624706af08f,right,-1,0.75,0.4357,4,0.003455259,0.3836,,,,,,36,0,36,0,1,,,,,
,,5f60ec27ae3437000bc97536,001,2023-07-31_20h44.38.319,arm3_eps,2022.2.5,Win32,59.75143403,5f60ec27ae3437000bc97536,64c7fed44a04f777bb1e18ce,64c800ed82212624706af08f,right,-1,0.75,0.4357,4,0.012360954,0.5448,,,,,,37,0,37,0,1,,,,,
,,5f60ec27ae3437000bc97536,001,2023-07-31_20h44.38.319,arm3_eps,2022.2.5,Win32,59.75143403,5f60ec27ae3437000bc97536,64c7fed44a04f777bb1e18ce,64c800ed82212624706af08f,right,-1,0.75,0.4357,4,-0.055112478,0.3625,,,,,,38,0,38,0,1,,,,,
,,5f60ec27ae3437000bc97536,001,2023-07-31_20h44.38.319,arm3_eps,2022.2.5,Win32,59.75143403,5f60ec27ae3437000bc97536,64c7fed44a04f777bb1e18ce,64c800ed82212624706af08f,down,1,0.75,0.4357,5,0,0.5561,,,,,,39,0,39,0,1,,,,,
,,5f60ec27ae3437000bc97536,001,2023-07-31_20h44.38.319,arm3_eps,2022.2.5,Win32,59.75143403,5f60ec27ae3437000bc97536,64c7fed44a04f777bb1e18ce,64c800ed82212624706af08f,right,1,0.75,0.4357,5,0.018076032,0.7981,,,,,,40,0,40,0,1,,,,,
,,5f60ec27ae3437000bc97536,001,2023-07-31_20h44.38.319,arm3_eps,2022.2.5,Win32,59.75143403,5f60ec27ae3437000bc97536,64c7fed44a04f777bb1e18ce,64c800ed82212624706af08f,right,1,0.75,0.4357,5,0.009615846,0.1167,,,,,,41,0,41,0,1,,,,,
,,5f60ec27ae3437000bc97536,001,2023-07-31_20h44.38.319,arm3_eps,2022.2.5,Win32,59.75143403,5f60ec27ae3437000bc97536,64c7fed44a04f777bb1e18ce,64c800ed82212624706af08f,right,1,0.75,0.4357,5,0.052054269,0.8648,,,,,,42,0,42,0,1,,,,,
,,5f60ec27ae3437000bc97536,001,2023-07-31_20h44.38.319,arm3_eps,2022.2.5,Win32,59.75143403,5f60ec27ae3437000bc97536,64c7fed44a04f777bb1e18ce,64c800ed82212624706af08f,up,1,0.75,0.4357,5,0,0.434,,,,,,43,0,43,0,1,,,,,
,,5f60ec27ae3437000bc97536,001,2023-07-31_20h44.38.319,arm3_eps,2022.2.5,Win32,59.75143403,5f60ec27ae3437000bc97536,64c7fed44a04f777bb1e18ce,64c800ed82212624706af08f,right,1,0.75,0.4357,5,-0.002103218,0.8006,,,,,,44,0,44,0,1,,,,,
,,5f60ec27ae3437000bc97536,001,2023-07-31_20h44.38.319,arm3_eps,2022.2.5,Win32,59.75143403,5f60ec27ae3437000bc97536,64c7fed44a04f777bb1e18ce,64c800ed82212624706af08f,right,1,0.75,0.4357,5,-0.006893508,0.1166,,,,,,45,0,45,0,1,,,,,
,,5f60ec27ae3437000bc97536,001,2023-07-31_20h44.38.319,arm3_eps,2022.2.5,Win32,59.75143403,5f60ec27ae3437000bc97536,64c7fed44a04f777bb1e18ce,64c800ed82212624706af08f,right,1,0.75,0.4357,5,-0.004323882,0.4009,,,,,,46,0,46,0,1,,,,,
,,5f60ec27ae3437000bc97536,001,2023-07-31_20h44.38.319,arm3_eps,2022.2.5,Win32,59.75143403,5f60ec27ae3437000bc97536,64c7fed44a04f777bb1e18ce,64c800ed82212624706af08f,right,1,0.75,0.4357,5,0.003091158,0.3741,,,,,,47,0,47,0,1,,,,,
,,5f60ec27ae3437000bc97536,001,2023-07-31_20h44.38.319,arm3_eps,2022.2.5,Win32,59.75143403,5f60ec27ae3437000bc97536,64c7fed44a04f777bb1e18ce,64c800ed82212624706af08f,up,-1,0.75,0.4357,5,0,0.7677,,,,,,48,0,48,0,1,,,,,
,,5f60ec27ae3437000bc97536,001,2023-07-31_20h44.38.319,arm3_eps,2022.2.5,Win32,59.75143403,5f60ec27ae3437000bc97536,64c7fed44a04f777bb1e18ce,64c800ed82212624706af08f,right,-1,0.75,0.4357,5,-0.006793872,0.7829,,,,,,49,0,49,0,1,,,,,
,,5f60ec27ae3437000bc97536,001,2023-07-31_20h44.38.319,arm3_eps,2022.2.5,Win32,59.75143403,5f60ec27ae3437000bc97536,64c7fed44a04f777bb1e18ce,64c800ed82212624706af08f,right,-1,0.75,0.4357,5,-0.019389997,0.1008,,,,,,50,0,50,0,1,,,,,
,,5f60ec27ae3437000bc97536,001,2023-07-31_20h44.38.319,arm3_eps,2022.2.5,Win32,59.75143403,5f60ec27ae3437000bc97536,64c7fed44a04f777bb1e18ce,64c800ed82212624706af08f,down,1,0.75,0.4357,6,0,0.817,,,,,,51,0,51,0,1,,,,,
,,5f60ec27ae3437000bc97536,001,2023-07-31_20h44.38.319,arm3_eps,2022.2.5,Win32,59.75143403,5f60ec27ae3437000bc97536,64c7fed44a04f777bb1e18ce,64c800ed82212624706af08f,right,1,0.75,0.4357,6,0.023730719,0.8338,,,,,,52,0,52,0,1,,,,,
,,5f60ec27ae3437000bc97536,001,2023-07-31_20h44.38.319,arm3_eps,2022.2.5,Win32,59.75143403,5f60ec27ae3437000bc97536,64c7fed44a04f777bb1e18ce,64c800ed82212624706af08f,right,1,0.75,0.4357,6,0.060788349,0.1168,,,,,,53,0,53,0,1,,,,,
,,5f60ec27ae3437000bc97536,001,2023-07-31_20h44.38.319,arm3_eps,2022.2.5,Win32,59.75143403,5f60ec27ae3437000bc97536,64c7fed44a04f777bb1e18ce,64c800ed82212624706af08f,up,-1,0.75,0.4357,7,0,0.8336,,,,,,54,0,54,0,1,,,,,
,,5f60ec27ae3437000bc97536,001,2023-07-31_20h44.38.319,arm3_eps,2022.2.5,Win32,59.75143403,5f60ec27ae3437000bc97536,64c7fed44a04f777bb1e18ce,64c800ed82212624706af08f,right,-1,0.75,0.4357,7,-0.024590851,1.1236,,,,,,55,0,55,0,1,,,,,
,,5f60ec27ae3437000bc97536,001,2023-07-31_20h44.38.319,arm3_eps,2022.2.5,Win32,59.75143403,5f60ec27ae3437000bc97536,64c7fed44a04f777bb1e18ce,64c800ed82212624706af08f,right,-1,0.75,0.4357,7,-0.021247565,0.1332,,,,,,56,0,56,0,1,,,,,
,,5f60ec27ae3437000bc97536,001,2023-07-31_20h44.38.319,arm3_eps,2022.2.5,Win32,59.75143403,5f60ec27ae3437000bc97536,64c7fed44a04f777bb1e18ce,64c800ed82212624706af08f,down,1,0.75,0.4357,8,0,1.0331,,,,,,57,0,57,0,1,,,,,
,,5f60ec27ae3437000bc97536,001,2023-07-31_20h44.38.319,arm3_eps,2022.2.5,Win32,59.75143403,5f60ec27ae3437000bc97536,64c7fed44a04f777bb1e18ce,64c800ed82212624706af08f,right,1,0.75,0.4357,8,0.023949552,1.3029,,,,,,58,0,58,0,1,,,,,
,,5f60ec27ae3437000bc97536,001,2023-07-31_20h44.38.319,arm3_eps,2022.2.5,Win32,59.75143403,5f60ec27ae3437000bc97536,64c7fed44a04f777bb1e18ce,64c800ed82212624706af08f,right,1,0.75,0.4357,8,0.042596328,0.1335,,,,,,59,0,59,0,1,,,,,
,,5f60ec27ae3437000bc97536,001,2023-07-31_20h44.38.319,arm3_eps,2022.2.5,Win32,59.75143403,5f60ec27ae3437000bc97536,64c7fed44a04f777bb1e18ce,64c800ed82212624706af08f,right,1,0.75,0.4357,8,0.012636203,0.4042,,,,,,60,0,60,0,1,,,,,
,,5f60ec27ae3437000bc97536,001,2023-07-31_20h44.38.319,arm3_eps,2022.2.5,Win32,59.75143403,5f60ec27ae3437000bc97536,64c7fed44a04f777bb1e18ce,64c800ed82212624706af08f,right,1,0.75,0.4357,8,-0.028200147,0.4431,,,,,,61,0,61,0,1,,,,,
,,5f60ec27ae3437000bc97536,001,2023-07-31_20h44.38.319,arm3_eps,2022.2.5,Win32,59.75143403,5f60ec27ae3437000bc97536,64c7fed44a04f777bb1e18ce,64c800ed82212624706af08f,right,1,0.75,0.4357,8,-0.023949597,0.6335,,,,,,62,0,62,0,1,,,,,
,,5f60ec27ae3437000bc97536,001,2023-07-31_20h44.38.319,arm3_eps,2022.2.5,Win32,59.75143403,5f60ec27ae3437000bc97536,64c7fed44a04f777bb1e18ce,64c800ed82212624706af08f,right,1,0.75,0.4357,8,-0.012676015,0.6503,,,,,,63,0,63,0,1,,,,,
,,5f60ec27ae3437000bc97536,001,2023-07-31_20h44.38.319,arm3_eps,2022.2.5,Win32,59.75143403,5f60ec27ae3437000bc97536,64c7fed44a04f777bb1e18ce,64c800ed82212624706af08f,up,1,0.75,0.4357,8,0,0.9551,,,,,,64,0,64,0,1,,,,,
,,5f60ec27ae3437000bc97536,001,2023-07-31_20h44.38.319,arm3_eps,2022.2.5,Win32,59.75143403,5f60ec27ae3437000bc97536,64c7fed44a04f777bb1e18ce,64c800ed82212624706af08f,right,1,0.75,0.4357,8,-0.005428906,0.7343,,,,,,65,0,65,0,1,,,,,
,,5f60ec27ae3437000bc97536,001,2023-07-31_20h44.38.319,arm3_eps,2022.2.5,Win32,59.75143403,5f60ec27ae3437000bc97536,64c7fed44a04f777bb1e18ce,64c800ed82212624706af08f,right,1,0.75,0.4357,8,0.015321029,0.1078,,,,,,66,0,66,0,1,,,,,
,,5f60ec27ae3437000bc97536,001,2023-07-31_20h44.38.319,arm3_eps,2022.2.5,Win32,59.75143403,5f60ec27ae3437000bc97536,64c7fed44a04f777bb1e18ce,64c800ed82212624706af08f,right,1,0.75,0.4357,8,0.026441838,0.3336,,,,,,67,0,67,0,1,,,,,
,,5f60ec27ae3437000bc97536,001,2023-07-31_20h44.38.319,arm3_eps,2022.2.5,Win32,59.75143403,5f60ec27ae3437000bc97536,64c7fed44a04f777bb1e18ce,64c800ed82212624706af08f,right,1,0.75,0.4357,8,0.02949384,0.3676,,,,,,68,0,68,0,1,,,,,
,,5f60ec27ae3437000bc97536,001,2023-07-31_20h44.38.319,arm3_eps,2022.2.5,Win32,59.75143403,5f60ec27ae3437000bc97536,64c7fed44a04f777bb1e18ce,64c800ed82212624706af08f,up,1,0.75,0.4357,8,0,0.6098,,,,,,69,0,69,0,1,,,,,
,,5f60ec27ae3437000bc97536,001,2023-07-31_20h44.38.319,arm3_eps,2022.2.5,Win32,59.75143403,5f60ec27ae3437000bc97536,64c7fed44a04f777bb1e18ce,64c800ed82212624706af08f,right,1,0.75,0.4357,8,0.007077658,0.7002,,,,,,70,0,70,0,1,,,,,
,,5f60ec27ae3437000bc97536,001,2023-07-31_20h44.38.319,arm3_eps,2022.2.5,Win32,59.75143403,5f60ec27ae3437000bc97536,64c7fed44a04f777bb1e18ce,64c800ed82212624706af08f,right,1,0.75,0.4357,8,0.011001862,0.1332,,,,,,71,0,71,0,1,,,,,
,,5f60ec27ae3437000bc97536,001,2023-07-31_20h44.38.319,arm3_eps,2022.2.5,Win32,59.75143403,5f60ec27ae3437000bc97536,64c7fed44a04f777bb1e18ce,64c800ed82212624706af08f,right,1,0.75,0.4357,8,0.017002987,0.3271,,,,,,72,0,72,0,1,,,,,
,,5f60ec27ae3437000bc97536,001,2023-07-31_20h44.38.319,arm3_eps,2022.2.5,Win32,59.75143403,5f60ec27ae3437000bc97536,64c7fed44a04f777bb1e18ce,64c800ed82212624706af08f,right,1,0.75,0.4357,8,0.042607257,1.2147,,,,,,73,0,73,0,1,,,,,
,,5f60ec27ae3437000bc97536,001,2023-07-31_20h44.38.319,arm3_eps,2022.2.5,Win32,59.75143403,5f60ec27ae3437000bc97536,64c7fed44a04f777bb1e18ce,64c800ed82212624706af08f,right,1,0.75,0.4357,8,0.023121951,0.9499,,,,,,74,0,74,0,1,,,,,
,,5f60ec27ae3437000bc97536,001,2023-07-31_20h44.38.319,arm3_eps,2022.2.5,Win32,59.75143403,5f60ec27ae3437000bc97536,64c7fed44a04f777bb1e18ce,64c800ed82212624706af08f,up,1,0.75,0.4357,9,0,0.4997,,,,,,75,0,75,0,1,,,,,
,,5f60ec27ae3437000bc97536,001,2023-07-31_20h44.38.319,arm3_eps,2022.2.5,Win32,59.75143403,5f60ec27ae3437000bc97536,64c7fed44a04f777bb1e18ce,64c800ed82212624706af08f,right,1,0.75,0.4357,9,0.009069543,0.7654,,,,,,76,0,76,0,1,,,,,
,,5f60ec27ae3437000bc97536,001,2023-07-31_20h44.38.319,arm3_eps,2022.2.5,Win32,59.75143403,5f60ec27ae3437000bc97536,64c7fed44a04f777bb1e18ce,64c800ed82212624706af08f,right,1,0.75,0.4357,9,0.011974122,0.1176,,,,,,77,0,77,0,1,,,,,
,,5f60ec27ae3437000bc97536,001,2023-07-31_20h44.38.319,arm3_eps,2022.2.5,Win32,59.75143403,5f60ec27ae3437000bc97536,64c7fed44a04f777bb1e18ce,64c800ed82212624706af08f,right,1,0.75,0.4357,9,0.036307782,0.257,,,,,,78,0,78,0,1,,,,,
,,5f60ec27ae3437000bc97536,001,2023-07-31_20h44.38.319,arm3_eps,2022.2.5,Win32,59.75143403,5f60ec27ae3437000bc97536,64c7fed44a04f777bb1e18ce,64c800ed82212624706af08f,right,1,0.75,0.4357,9,0.03668408,0.3504,,,,,,79,0,79,0,1,,,,,
,,5f60ec27ae3437000bc97536,001,2023-07-31_20h44.38.319,arm3_eps,2022.2.5,Win32,59.75143403,5f60ec27ae3437000bc97536,64c7fed44a04f777bb1e18ce,64c800ed82212624706af08f,up,1,0.75,0.4357,10,0,0.5668,,,,,,80,0,80,0,1,,,,,
,,5f60ec27ae3437000bc97536,001,2023-07-31_20h44.38.319,arm3_eps,2022.2.5,Win32,59.75143403,5f60ec27ae3437000bc97536,64c7fed44a04f777bb1e18ce,64c800ed82212624706af08f,right,1,0.75,0.4357,10,-0.014514178,0.7743,,,,,,81,0,81,0,1,,,,,
,,5f60ec27ae3437000bc97536,001,2023-07-31_20h44.38.319,arm3_eps,2022.2.5,Win32,59.75143403,5f60ec27ae3437000bc97536,64c7fed44a04f777bb1e18ce,64c800ed82212624706af08f,right,1,0.75,0.4357,10,-0.018934612,0.1509,,,,,,82,0,82,0,1,,,,,
,,5f60ec27ae3437000bc97536,001,2023-07-31_20h44.38.319,arm3_eps,2022.2.5,Win32,59.75143403,5f60ec27ae3437000bc97536,64c7fed44a04f777bb1e18ce,64c800ed82212624706af08f,right,1,0.75,0.4357,10,-0.002887381,0.1837,,,,,,83,0,83,0,1,,,,,
,,5f60ec27ae3437000bc97536,001,2023-07-31_20h44.38.319,arm3_eps,2022.2.5,Win32,59.75143403,5f60ec27ae3437000bc97536,64c7fed44a04f777bb1e18ce,64c800ed82212624706af08f,right,1,0.75,0.4357,10,-0.039911044,0.3574,,,,,,84,0,84,0,1,,,,,
,,5f60ec27ae3437000bc97536,001,2023-07-31_20h44.38.319,arm3_eps,2022.2.5,Win32,59.75143403,5f60ec27ae3437000bc97536,64c7fed44a04f777bb1e18ce,64c800ed82212624706af08f,right,1,0.75,0.4357,10,-0.0209377,0.5464,,,,,,85,0,85,0,1,,,,,
,,5f60ec27ae3437000bc97536,001,2023-07-31_20h44.38.319,arm3_eps,2022.2.5,Win32,59.75143403,5f60ec27ae3437000bc97536,64c7fed44a04f777bb1e18ce,64c800ed82212624706af08f,right,1,0.75,0.4357,10,-0.004139321,0.5378,,,,,,86,0,86,0,1,,,,,
,,5f60ec27ae3437000bc97536,001,2023-07-31_20h44.38.319,arm3_eps,2022.2.5,Win32,59.75143403,5f60ec27ae3437000bc97536,64c7fed44a04f777bb1e18ce,64c800ed82212624706af08f,down,-1,0.75,0.4357,9,0,0.7548,,,,,,87,0,87,0,1,,,,,
,,5f60ec27ae3437000bc97536,001,2023-07-31_20h44.38.319,arm3_eps,2022.2.5,Win32,59.75143403,5f60ec27ae3437000bc97536,64c7fed44a04f777bb1e18ce,64c800ed82212624706af08f,right,-1,0.75,0.4357,9,0.030995937,0.7841,,,,,,88,0,88,0,1,,,,,
,,5f60ec27ae3437000bc97536,001,2023-07-31_20h44.38.319,arm3_eps,2022.2.5,Win32,59.75143403,5f60ec27ae3437000bc97536,64c7fed44a04f777bb1e18ce,64c800ed82212624706af08f,right,-1,0.75,0.4357,9,0.015051506,0.1665,,,,,,89,0,89,0,1,,,,,
,,5f60ec27ae3437000bc97536,001,2023-07-31_20h44.38.319,arm3_eps,2022.2.5,Win32,59.75143403,5f60ec27ae3437000bc97536,64c7fed44a04f777bb1e18ce,64c800ed82212624706af08f,right,-1,0.75,0.4357,9,0.014997693,0.4037,,,,,,90,0,90,0,1,,,,,
,,5f60ec27ae3437000bc97536,001,2023-07-31_20h44.38.319,arm3_eps,2022.2.5,Win32,59.75143403,5f60ec27ae3437000bc97536,64c7fed44a04f777bb1e18ce,64c800ed82212624706af08f,right,-1,0.75,0.4357,9,-0.006430331,0.3555,,,,,,91,0,91,0,1,,,,,
,,5f60ec27ae3437000bc97536,001,2023-07-31_20h44.38.319,arm3_eps,2022.2.5,Win32,59.75143403,5f60ec27ae3437000bc97536,64c7fed44a04f777bb1e18ce,64c800ed82212624706af08f,right,-1,0.75,0.4357,9,-0.001072142,0.367,,,,,,92,0,92,0,1,,,,,
,,5f60ec27ae3437000bc97536,001,2023-07-31_20h44.38.319,arm3_eps,2022.2.5,Win32,59.75143403,5f60ec27ae3437000bc97536,64c7fed44a04f777bb1e18ce,64c800ed82212624706af08f,right,-1,0.75,0.4357,9,-0.020687964,0.3671,,,,,,93,0,93,0,1,,,,,
,,5f60ec27ae3437000bc97536,001,2023-07-31_20h44.38.319,arm3_eps,2022.2.5,Win32,59.75143403,5f60ec27ae3437000bc97536,64c7fed44a04f777bb1e18ce,64c800ed82212624706af08f,down,1,0.75,0.4357,10,0,0.6458,,,,,,94,0,94,0,1,,,,,
,,5f60ec27ae3437000bc97536,001,2023-07-31_20h44.38.319,arm3_eps,2022.2.5,Win32,59.75143403,5f60ec27ae3437000bc97536,64c7fed44a04f777bb1e18ce,64c800ed82212624706af08f,right,1,0.75,0.4357,10,0.007146607,27.7666,,,,,,95,0,95,0,1,,,,,
,,5f60ec27ae3437000bc97536,001,2023-07-31_20h44.38.319,arm3_eps,2022.2.5,Win32,59.75143403,5f60ec27ae3437000bc97536,64c7fed44a04f777bb1e18ce,64c800ed82212624706af08f,right,1,0.75,0.4357,10,0.015493319,0.1144,,,,,,96,0,96,0,1,,,,,
,,5f60ec27ae3437000bc97536,001,2023-07-31_20h44.38.319,arm3_eps,2022.2.5,Win32,59.75143403,5f60ec27ae3437000bc97536,64c7fed44a04f777bb1e18ce,64c800ed82212624706af08f,right,1,0.75,0.4357,10,0.060187685,0.1331,,,,,,97,0,97,0,1,,,,,
,,5f60ec27ae3437000bc97536,001,2023-07-31_20h44.38.319,arm3_eps,2022.2.5,Win32,59.75143403,5f60ec27ae3437000bc97536,64c7fed44a04f777bb1e18ce,64c800ed82212624706af08f,right,1,0.75,0.4357,10,0.042423564,0.7871,,,,,,98,0,98,0,1,,,,,
,,5f60ec27ae3437000bc97536,001,2023-07-31_20h44.38.319,arm3_eps,2022.2.5,Win32,59.75143403,5f60ec27ae3437000bc97536,64c7fed44a04f777bb1e18ce,64c800ed82212624706af08f,up,1,0.75,0.4357,11,0,0.5831,,,,,,99,0,99,0,1,,,,,
,,5f60ec27ae3437000bc97536,001,2023-07-31_20h44.38.319,arm3_eps,2022.2.5,Win32,59.75143403,5f60ec27ae3437000bc97536,64c7fed44a04f777bb1e18ce,64c800ed82212624706af08f,right,1,0.75,0.4357,11,0.011441732,1.3381,,,,,,100,0,100,0,1,,,,,
,,5f60ec27ae3437000bc97536,001,2023-07-31_20h44.38.319,arm3_eps,2022.2.5,Win32,59.75143403,5f60ec27ae3437000bc97536,64c7fed44a04f777bb1e18ce,64c800ed82212624706af08f,right,1,0.75,0.4357,11,-0.001655115,0.1334,,,,,,101,0,101,0,1,,,,,
,,5f60ec27ae3437000bc97536,001,2023-07-31_20h44.38.319,arm3_eps,2022.2.5,Win32,59.75143403,5f60ec27ae3437000bc97536,64c7fed44a04f777bb1e18ce,64c800ed82212624706af08f,right,1,0.75,0.4357,11,0.034833492,0.1334,,,,,,102,0,102,0,1,,,,,
,,5f60ec27ae3437000bc97536,001,2023-07-31_20h44.38.319,arm3_eps,2022.2.5,Win32,59.75143403,5f60ec27ae3437000bc97536,64c7fed44a04f777bb1e18ce,64c800ed82212624706af08f,right,1,0.75,0.4357,11,0.026949505,0.3721,,,,,,103,0,103,0,1,,,,,
,,5f60ec27ae3437000bc97536,001,2023-07-31_20h44.38.319,arm3_eps,2022.2.5,Win32,59.75143403,5f60ec27ae3437000bc97536,64c7fed44a04f777bb1e18ce,64c800ed82212624706af08f,up,1,0.75,0.4357,12,0,0.8029,,,,,,104,0,104,0,1,,,,,
,,5f60ec27ae3437000bc97536,001,2023-07-31_20h44.38.319,arm3_eps,2022.2.5,Win32,59.75143403,5f60ec27ae3437000bc97536,64c7fed44a04f777bb1e18ce,64c800ed82212624706af08f,right,1,0.75,0.4357,12,0.015792235,0.9578,,,,,,105,0,105,0,1,,,,,
,,5f60ec27ae3437000bc97536,001,2023-07-31_20h44.38.319,arm3_eps,2022.2.5,Win32,59.75143403,5f60ec27ae3437000bc97536,64c7fed44a04f777bb1e18ce,64c800ed82212624706af08f,right,1,0.75,0.4357,12,0.026988981,0.1267,,,,,,106,0,106,0,1,,,,,
,,5f60ec27ae3437000bc97536,001,2023-07-31_20h44.38.319,arm3_eps,2022.2.5,Win32,59.75143403,5f60ec27ae3437000bc97536,64c7fed44a04f777bb1e18ce,64c800ed82212624706af08f,right,1,0.75,0.4357,12,0.028127634,0.1505,,,,,,107,0,107,0,1,,,,,
,,5f60ec27ae3437000bc97536,001,2023-07-31_20h44.38.319,arm3_eps,2022.2.5,Win32,59.75143403,5f60ec27ae3437000bc97536,64c7fed44a04f777bb1e18ce,64c800ed82212624706af08f,right,1,0.75,0.4357,12,0.013967585,0.3668,,,,,,108,0,108,0,1,,,,,
,,5f60ec27ae3437000bc97536,001,2023-07-31_20h44.38.319,arm3_eps,2022.2.5,Win32,59.75143403,5f60ec27ae3437000bc97536,64c7fed44a04f777bb1e18ce,64c800ed82212624706af08f,right,1,0.75,0.4357,12,0.023538701,0.3653,,,,,,109,0,109,0,1,,,,,
,,5f60ec27ae3437000bc97536,001,2023-07-31_20h44.38.319,arm3_eps,2022.2.5,Win32,59.75143403,5f60ec27ae3437000bc97536,64c7fed44a04f777bb1e18ce,64c800ed82212624706af08f,right,1,0.75,0.4357,12,0.027444035,0.4841,,,,,,110,0,110,0,1,,,,,
,,5f60ec27ae3437000bc97536,001,2023-07-31_20h44.38.319,arm3_eps,2022.2.5,Win32,59.75143403,5f60ec27ae3437000bc97536,64c7fed44a04f777bb1e18ce,64c800ed82212624706af08f,up,-1,0.75,0.4357,12,0,0.5846,,,,,,111,0,111,0,1,,,,,
,,5f60ec27ae3437000bc97536,001,2023-07-31_20h44.38.319,arm3_eps,2022.2.5,Win32,59.75143403,5f60ec27ae3437000bc97536,64c7fed44a04f777bb1e18ce,64c800ed82212624706af08f,right,-1,0.75,0.4357,12,0.001573059,0.674,,,,,,112,0,112,0,1,,,,,
,,5f60ec27ae3437000bc97536,001,2023-07-31_20h44.38.319,arm3_eps,2022.2.5,Win32,59.75143403,5f60ec27ae3437000bc97536,64c7fed44a04f777bb1e18ce,64c800ed82212624706af08f,right,-1,0.75,0.4357,12,0.019200217,0.1239,,,,,,113,0,113,0,1,,,,,
,,5f60ec27ae3437000bc97536,001,2023-07-31_20h44.38.319,arm3_eps,2022.2.5,Win32,59.75143403,5f60ec27ae3437000bc97536,64c7fed44a04f777bb1e18ce,64c800ed82212624706af08f,right,-1,0.75,0.4357,12,0.037857356,0.1307,,,,,,114,0,114,0,1,,,,,
,,5f60ec27ae3437000bc97536,001,2023-07-31_20h44.38.319,arm3_eps,2022.2.5,Win32,59.75143403,5f60ec27ae3437000bc97536,64c7fed44a04f777bb1e18ce,64c800ed82212624706af08f,right,-1,0.75,0.4357,12,0.003600571,0.3162,,,,,,115,0,115,0,1,,,,,
,,5f60ec27ae3437000bc97536,001,2023-07-31_20h44.38.319,arm3_eps,2022.2.5,Win32,59.75143403,5f60ec27ae3437000bc97536,64c7fed44a04f777bb1e18ce,64c800ed82212624706af08f,right,-1,0.75,0.4357,12,0.019186168,0.4373,,,,,,116,0,116,0,1,,,,,
,,5f60ec27ae3437000bc97536,001,2023-07-31_20h44.38.319,arm3_eps,2022.2.5,Win32,59.75143403,5f60ec27ae3437000bc97536,64c7fed44a04f777bb1e18ce,64c800ed82212624706af08f,right,-1,0.75,0.4357,12,0.010395872,0.6123,,,,,,117,0,117,0,1,,,,,
,,5f60ec27ae3437000bc97536,001,2023-07-31_20h44.38.319,arm3_eps,2022.2.5,Win32,59.75143403,5f60ec27ae3437000bc97536,64c7fed44a04f777bb1e18ce,64c800ed82212624706af08f,right,-1,0.75,0.4357,12,0.003928138,0.3655,,,,,,118,0,118,0,1,,,,,
,,5f60ec27ae3437000bc97536,001,2023-07-31_20h44.38.319,arm3_eps,2022.2.5,Win32,59.75143403,5f60ec27ae3437000bc97536,64c7fed44a04f777bb1e18ce,64c800ed82212624706af08f,right,-1,0.75,0.4357,12,-0.011219084,0.4754,,,,,,119,0,119,0,1,,,,,
,,5f60ec27ae3437000bc97536,001,2023-07-31_20h44.38.319,arm3_eps,2022.2.5,Win32,59.75143403,5f60ec27ae3437000bc97536,64c7fed44a04f777bb1e18ce,64c800ed82212624706af08f,down,-1,0.75,0.4357,13,0,0.4475,,,,,,120,0,120,0,1,,,,,
,,5f60ec27ae3437000bc97536,001,2023-07-31_20h44.38.319,arm3_eps,2022.2.5,Win32,59.75143403,5f60ec27ae3437000bc97536,64c7fed44a04f777bb1e18ce,64c800ed82212624706af08f,right,-1,0.75,0.4357,13,-0.0097177,0.7772,,,,,,121,0,121,0,1,,,,,
,,5f60ec27ae3437000bc97536,001,2023-07-31_20h44.38.319,arm3_eps,2022.2.5,Win32,59.75143403,5f60ec27ae3437000bc97536,64c7fed44a04f777bb1e18ce,64c800ed82212624706af08f,right,-1,0.75,0.4357,13,0.00328281,0.1422,,,,,,122,0,122,0,1,,,,,
,,5f60ec27ae3437000bc97536,001,2023-07-31_20h44.38.319,arm3_eps,2022.2.5,Win32,59.75143403,5f60ec27ae3437000bc97536,64c7fed44a04f777bb1e18ce,64c800ed82212624706af08f,right,-1,0.75,0.4357,13,0.022223476,0.3674,,,,,,123,0,123,0,1,,,,,
,,5f60ec27ae3437000bc97536,001,2023-07-31_20h44.38.319,arm3_eps,2022.2.5,Win32,59.75143403,5f60ec27ae3437000bc97536,64c7fed44a04f777bb1e18ce,64c800ed82212624706af08f,right,-1,0.75,0.4357,13,0.022208215,0.3627,,,,,,124,0,124,0,1,,,,,
,,5f60ec27ae3437000bc97536,001,2023-07-31_20h44.38.319,arm3_eps,2022.2.5,Win32,59.75143403,5f60ec27ae3437000bc97536,64c7fed44a04f777bb1e18ce,64c800ed82212624706af08f,right,-1,0.75,0.4357,13,0.008680689,1.1129,,,,,,125,0,125,0,1,,,,,
,,5f60ec27ae3437000bc97536,001,2023-07-31_20h44.38.319,arm3_eps,2022.2.5,Win32,59.75143403,5f60ec27ae3437000bc97536,64c7fed44a04f777bb1e18ce,64c800ed82212624706af08f,right,-1,0.75,0.4357,13,-0.007857076,0.1401,,,,,,126,0,126,0,1,,,,,
,,5f60ec27ae3437000bc97536,001,2023-07-31_20h44.38.319,arm3_eps,2022.2.5,Win32,59.75143403,5f60ec27ae3437000bc97536,64c7fed44a04f777bb1e18ce,64c800ed82212624706af08f,down,1,0.75,0.4357,14,0,0.4717,,,,,,127,0,127,0,1,,,,,
,,5f60ec27ae3437000bc97536,001,2023-07-31_20h44.38.319,arm3_eps,2022.2.5,Win32,59.75143403,5f60ec27ae3437000bc97536,64c7fed44a04f777bb1e18ce,64c800ed82212624706af08f,right,1,0.75,0.4357,14,0.003027095,0.6938,,,,,,128,0,128,0,1,,,,,
,,5f60ec27ae3437000bc97536,001,2023-07-31_20h44.38.319,arm3_eps,2022.2.5,Win32,59.75143403,5f60ec27ae3437000bc97536,64c7fed44a04f777bb1e18ce,64c800ed82212624706af08f,right,1,0.75,0.4357,14,0.010327481,0.1474,,,,,,129,0,129,0,1,,,,,
,,5f60ec27ae3437000bc97536,001,2023-07-31_20h44.38.319,arm3_eps,2022.2.5,Win32,59.75143403,5f60ec27ae3437000bc97536,64c7fed44a04f777bb1e18ce,64c800ed82212624706af08f,right,1,0.75,0.4357,14,-0.014290081,0.135,,,,,,130,0,130,0,1,,,,,
,,5f60ec27ae3437000bc97536,001,2023-07-31_20h44.38.319,arm3_eps,2022.2.5,Win32,59.75143403,5f60ec27ae3437000bc97536,64c7fed44a04f777bb1e18ce,64c800ed82212624706af08f,right,1,0.75,0.4357,14,-0.011865537,0.439,,,,,,131,0,131,0,1,,,,,
,,5f60ec27ae3437000bc97536,001,2023-07-31_20h44.38.319,arm3_eps,2022.2.5,Win32,59.75143403,5f60ec27ae3437000bc97536,64c7fed44a04f777bb1e18ce,64c800ed82212624706af08f,right,1,0.75,0.4357,14,-0.005243088,0.2982,,,,,,132,0,132,0,1,,,,,
,,5f60ec27ae3437000bc97536,001,2023-07-31_20h44.38.319,arm3_eps,2022.2.5,Win32,59.75143403,5f60ec27ae3437000bc97536,64c7fed44a04f777bb1e18ce,64c800ed82212624706af08f,right,1,0.75,0.4357,14,-0.010698405,0.2139,,,,,,133,0,133,0,1,,,,,
,,5f60ec27ae3437000bc97536,001,2023-07-31_20h44.38.319,arm3_eps,2022.2.5,Win32,59.75143403,5f60ec27ae3437000bc97536,64c7fed44a04f777bb1e18ce,64c800ed82212624706af08f,right,1,0.75,0.4357,14,0.02373227,0.1783,,,,,,134,0,134,0,1,,,,,
,,5f60ec27ae3437000bc97536,001,2023-07-31_20h44.38.319,arm3_eps,2022.2.5,Win32,59.75143403,5f60ec27ae3437000bc97536,64c7fed44a04f777bb1e18ce,64c800ed82212624706af08f,right,1,0.75,0.4357,14,0.025806189,0.5848,,,,,,135,0,135,0,1,,,,,
,,5f60ec27ae3437000bc97536,001,2023-07-31_20h44.38.319,arm3_eps,2022.2.5,Win32,59.75143403,5f60ec27ae3437000bc97536,64c7fed44a04f777bb1e18ce,64c800ed82212624706af08f,up,1,0.75,0.4357,15,0,0.4938,,,,,,136,0,136,0,1,,,,,
,,5f60ec27ae3437000bc97536,001,2023-07-31_20h44.38.319,arm3_eps,2022.2.5,Win32,59.75143403,5f60ec27ae3437000bc97536,64c7fed44a04f777bb1e18ce,64c800ed82212624706af08f,right,1,0.75,0.4357,15,-0.007218478,1.4964,,,,,,137,0,137,0,1,,,,,
,,5f60ec27ae3437000bc97536,001,2023-07-31_20h44.38.319,arm3_eps,2022.2.5,Win32,59.75143403,5f60ec27ae3437000bc97536,64c7fed44a04f777bb1e18ce,64c800ed82212624706af08f,right,1,0.75,0.4357,15,-0.021741275,0.1355,,,,,,138,0,138,0,1,,,,,
,,5f60ec27ae3437000bc97536,001,2023-07-31_20h44.38.319,arm3_eps,2022.2.5,Win32,59.75143403,5f60ec27ae3437000bc97536,64c7fed44a04f777bb1e18ce,64c800ed82212624706af08f,right,1,0.75,0.4357,15,-0.003506645,0.6279,,,,,,139,0,139,0,1,,,,,
,,5f60ec27ae3437000bc97536,001,2023-07-31_20h44.38.319,arm3_eps,2022.2.5,Win32,59.75143403,5f60ec27ae3437000bc97536,64c7fed44a04f777bb1e18ce,64c800ed82212624706af08f,right,1,0.75,0.4357,15,0.010228375,0.3123,,,,,,140,0,140,0,1,,,,,
,,5f60ec27ae3437000bc97536,001,2023-07-31_20h44.38.319,arm3_eps,2022.2.5,Win32,59.75143403,5f60ec27ae3437000bc97536,64c7fed44a04f777bb1e18ce,64c800ed82212624706af08f,right,1,0.75,0.4357,15,0.007709667,0.2474,,,,,,141,0,141,0,1,,,,,
,,5f60ec27ae3437000bc97536,001,2023-07-31_20h44.38.319,arm3_eps,2022.2.5,Win32,59.75143403,5f60ec27ae3437000bc97536,64c7fed44a04f777bb1e18ce,64c800ed82212624706af08f,right,1,0.75,0.4357,15,0.035510681,0.1526,,,,,,142,0,142,0,1,,,,,
,,5f60ec27ae3437000bc97536,001,2023-07-31_20h44.38.319,arm3_eps,2022.2.5,Win32,59.75143403,5f60ec27ae3437000bc97536,64c7fed44a04f777bb1e18ce,64c800ed82212624706af08f,up,1,0.75,0.4357,16,0,0.5131,,,,,,143,0,143,0,1,,,,,
,,5f60ec27ae3437000bc97536,001,2023-07-31_20h44.38.319,arm3_eps,2022.2.5,Win32,59.75143403,5f60ec27ae3437000bc97536,64c7fed44a04f777bb1e18ce,64c800ed82212624706af08f,right,1,0.75,0.4357,16,0.021290004,0.705,,,,,,144,0,144,0,1,,,,,
,,5f60ec27ae3437000bc97536,001,2023-07-31_20h44.38.319,arm3_eps,2022.2.5,Win32,59.75143403,5f60ec27ae3437000bc97536,64c7fed44a04f777bb1e18ce,64c800ed82212624706af08f,right,1,0.75,0.4357,16,0.049044905,0.1494,,,,,,145,0,145,0,1,,,,,
,,5f60ec27ae3437000bc97536,001,2023-07-31_20h44.38.319,arm3_eps,2022.2.5,Win32,59.75143403,5f60ec27ae3437000bc97536,64c7fed44a04f777bb1e18ce,64c800ed82212624706af08f,right,1,0.75,0.4357,16,0.07649635,0.1489,,,,,,146,0,146,0,1,,,,,
,,5f60ec27ae3437000bc97536,001,2023-07-31_20h44.38.319,arm3_eps,2022.2.5,Win32,59.75143403,5f60ec27ae3437000bc97536,64c7fed44a04f777bb1e18ce,64c800ed82212624706af08f,right,1,0.75,0.4357,16,0.08929345,0.3359,,,,,,147,0,147,0,1,,,,,
,,5f60ec27ae3437000bc97536,001,2023-07-31_20h44.38.319,arm3_eps,2022.2.5,Win32,59.75143403,5f60ec27ae3437000bc97536,64c7fed44a04f777bb1e18ce,64c800ed82212624706af08f,up,1,0.75,0.4357,17,0,0.5737,,,,,,148,0,148,0,1,,,,,
,,5f60ec27ae3437000bc97536,001,2023-07-31_20h44.38.319,arm3_eps,2022.2.5,Win32,59.75143403,5f60ec27ae3437000bc97536,64c7fed44a04f777bb1e18ce,64c800ed82212624706af08f,right,1,0.75,0.4357,17,0.044975157,0.811,,,,,,149,0,149,0,1,,,,,
,,5f60ec27ae3437000bc97536,001,2023-07-31_20h44.38.319,arm3_eps,2022.2.5,Win32,59.75143403,5f60ec27ae3437000bc97536,64c7fed44a04f777bb1e18ce,64c800ed82212624706af08f,right,1,0.75,0.4357,17,0.047990086,0.127,,,,,,150,0,150,0,1,,,,,
,,5f60ec27ae3437000bc97536,001,2023-07-31_20h44.38.319,arm3_eps,2022.2.5,Win32,59.75143403,5f60ec27ae3437000bc97536,64c7fed44a04f777bb1e18ce,64c800ed82212624706af08f,right,1,0.75,0.4357,17,0.065766661,0.1525,,,,,,151,0,151,0,1,,,,,
,,5f60ec27ae3437000bc97536,001,2023-07-31_20h44.38.319,arm3_eps,2022.2.5,Win32,59.75143403,5f60ec27ae3437000bc97536,64c7fed44a04f777bb1e18ce,64c800ed82212624706af08f,right,1,0.75,0.4357,17,0.077315317,0.1787,,,,,,152,0,152,0,1,,,,,
,,5f60ec27ae3437000bc97536,001,2023-07-31_20h44.38.319,arm3_eps,2022.2.5,Win32,59.75143403,5f60ec27ae3437000bc97536,64c7fed44a04f777bb1e18ce,64c800ed82212624706af08f,up,1,0.75,0.4357,18,0,0.6138,,,,,,153,0,153,0,1,,,,,
,,5f60ec27ae3437000bc97536,001,2023-07-31_20h44.38.319,arm3_eps,2022.2.5,Win32,59.75143403,5f60ec27ae3437000bc97536,64c7fed44a04f777bb1e18ce,64c800ed82212624706af08f,right,1,0.75,0.4357,18,-0.009686498,0.819,,,,,,154,0,154,0,1,,,,,
,,5f60ec27ae3437000bc97536,001,2023-07-31_20h44.38.319,arm3_eps,2022.2.5,Win32,59.75143403,5f60ec27ae3437000bc97536,64c7fed44a04f777bb1e18ce,64c800ed82212624706af08f,right,1,0.75,0.4357,18,-0.007706785,0.1294,,,,,,155,0,155,0,1,,,,,
,,5f60ec27ae3437000bc97536,001,2023-07-31_20h44.38.319,arm3_eps,2022.2.5,Win32,59.75143403,5f60ec27ae3437000bc97536,64c7fed44a04f777bb1e18ce,64c800ed82212624706af08f,right,1,0.75,0.4357,18,-0.012359377,0.1572,,,,,,156,0,156,0,1,,,,,
,,5f60ec27ae3437000bc97536,001,2023-07-31_20h44.38.319,arm3_eps,2022.2.5,Win32,59.75143403,5f60ec27ae3437000bc97536,64c7fed44a04f777bb1e18ce,64c800ed82212624706af08f,right,1,0.75,0.4357,18,-0.012292414,0.1655,,,,,,157,0,157,0,1,,,,,
,,5f60ec27ae3437000bc97536,001,2023-07-31_20h44.38.319,arm3_eps,2022.2.5,Win32,59.75143403,5f60ec27ae3437000bc97536,64c7fed44a04f777bb1e18ce,64c800ed82212624706af08f,right,1,0.75,0.4357,18,-0.030598915,0.4229,,,,,,158,0,158,0,1,,,,,
,,5f60ec27ae3437000bc97536,001,2023-07-31_20h44.38.319,arm3_eps,2022.2.5,Win32,59.75143403,5f60ec27ae3437000bc97536,64c7fed44a04f777bb1e18ce,64c800ed82212624706af08f,down,-1,0.75,0.4357,17,0,0.5129,,,,,,159,0,159,0,1,,,,,
,,5f60ec27ae3437000bc97536,001,2023-07-31_20h44.38.319,arm3_eps,2022.2.5,Win32,59.75143403,5f60ec27ae3437000bc97536,64c7fed44a04f777bb1e18ce,64c800ed82212624706af08f,right,-1,0.75,0.4357,17,0.001938823,12.4665,,,,,,160,0,160,0,1,,,,,
,,5f60ec27ae3437000bc97536,001,2023-07-31_20h44.38.319,arm3_eps,2022.2.5,Win32,59.75143403,5f60ec27ae3437000bc97536,64c7fed44a04f777bb1e18ce,64c800ed82212624706af08f,right,-1,0.75,0.4357,17,-0.010407417,0.1178,,,,,,161,0,161,0,1,,,,,
,,5f60ec27ae3437000bc97536,001,2023-07-31_20h44.38.319,arm3_eps,2022.2.5,Win32,59.75143403,5f60ec27ae3437000bc97536,64c7fed44a04f777bb1e18ce,64c800ed82212624706af08f,right,-1,0.75,0.4357,17,-0.011068638,0.367,,,,,,162,0,162,0,1,,,,,
,,5f60ec27ae3437000bc97536,001,2023-07-31_20h44.38.319,arm3_eps,2022.2.5,Win32,59.75143403,5f60ec27ae3437000bc97536,64c7fed44a04f777bb1e18ce,64c800ed82212624706af08f,down,-1,0.75,0.4357,18,0,0.8326,,,,,,163,0,163,0,1,,,,,
,,5f60ec27ae3437000bc97536,001,2023-07-31_20h44.38.319,arm3_eps,2022.2.5,Win32,59.75143403,5f60ec27ae3437000bc97536,64c7fed44a04f777bb1e18ce,64c800ed82212624706af08f,right,-1,0.75,0.4357,18,-0.02907831,0.7587,,,,,,164,0,164,0,1,,,,,
,,5f60ec27ae3437000bc97536,001,2023-07-31_20h44.38.319,arm3_eps,2022.2.5,Win32,59.75143403,5f60ec27ae3437000bc97536,64c7fed44a04f777bb1e18ce,64c800ed82212624706af08f,right,-1,0.75,0.4357,18,-0.030742777,0.1349,,,,,,165,0,165,0,1,,,,,
,,5f60ec27ae3437000bc97536,001,2023-07-31_20h44.38.319,arm3_eps,2022.2.5,Win32,59.75143403,5f60ec27ae3437000bc97536,64c7fed44a04f777bb1e18ce,64c800ed82212624706af08f,down,1,0.75,0.4357,19,0,1.0896,,,,,,166,0,166,0,1,,,,,
,,5f60ec27ae3437000bc97536,001,2023-07-31_20h44.38.319,arm3_eps,2022.2.5,Win32,59.75143403,5f60ec27ae3437000bc97536,64c7fed44a04f777bb1e18ce,64c800ed82212624706af08f,right,1,0.75,0.4357,19,0.023021139,0.7227,,,,,,167,0,167,0,1,,,,,
,,5f60ec27ae3437000bc97536,001,2023-07-31_20h44.38.319,arm3_eps,2022.2.5,Win32,59.75143403,5f60ec27ae3437000bc97536,64c7fed44a04f777bb1e18ce,64c800ed82212624706af08f,right,1,0.75,0.4357,19,0.025755414,0.1266,,,,,,168,0,168,0,1,,,,,
,,5f60ec27ae3437000bc97536,001,2023-07-31_20h44.38.319,arm3_eps,2022.2.5,Win32,59.75143403,5f60ec27ae3437000bc97536,64c7fed44a04f777bb1e18ce,64c800ed82212624706af08f,right,1,0.75,0.4357,19,0.051258822,0.3548,,,,,,169,0,169,0,1,,,,,
,,5f60ec27ae3437000bc97536,001,2023-07-31_20h44.38.319,arm3_eps,2022.2.5,Win32,59.75143403,5f60ec27ae3437000bc97536,64c7fed44a04f777bb1e18ce,64c800ed82212624706af08f,up,1,0.75,0.4357,20,0,1.6024,,,,,,170,0,170,0,1,,,,,
,,5f60ec27ae3437000bc97536,001,2023-07-31_20h44.38.319,arm3_eps,2022.2.5,Win32,59.75143403,5f60ec27ae3437000bc97536,64c7fed44a04f777bb1e18ce,64c800ed82212624706af08f,right,1,0.75,0.4357,20,0.002535813,0.8086,,,,,,171,0,171,0,1,,,,,
,,5f60ec27ae3437000bc97536,001,2023-07-31_20h44.38.319,arm3_eps,2022.2.5,Win32,59.75143403,5f60ec27ae3437000bc97536,64c7fed44a04f777bb1e18ce,64c800ed82212624706af08f,right,1,0.75,0.4357,20,0.020045763,0.1457,,,,,,172,0,172,0,1,,,,,
,,5f60ec27ae3437000bc97536,001,2023-07-31_20h44.38.319,arm3_eps,2022.2.5,Win32,59.75143403,5f60ec27ae3437000bc97536,64c7fed44a04f777bb1e18ce,64c800ed82212624706af08f,right,1,0.75,0.4357,20,0.016724814,0.15,,,,,,173,0,173,0,1,,,,,
,,5f60ec27ae3437000bc97536,001,2023-07-31_20h44.38.319,arm3_eps,2022.2.5,Win32,59.75143403,5f60ec27ae3437000bc97536,64c7fed44a04f777bb1e18ce,64c800ed82212624706af08f,right,1,0.75,0.4357,20,0.010568745,0.3964,,,,,,174,0,174,0,1,,,,,
,,5f60ec27ae3437000bc97536,001,2023-07-31_20h44.38.319,arm3_eps,2022.2.5,Win32,59.75143403,5f60ec27ae3437000bc97536,64c7fed44a04f777bb1e18ce,64c800ed82212624706af08f,right,1,0.75,0.4357,20,0.000222971,0.342,,,,,,175,0,175,0,1,,,,,
,,5f60ec27ae3437000bc97536,001,2023-07-31_20h44.38.319,arm3_eps,2022.2.5,Win32,59.75143403,5f60ec27ae3437000bc97536,64c7fed44a04f777bb1e18ce,64c800ed82212624706af08f,right,1,0.75,0.4357,20,0.015301135,0.3489,,,,,,176,0,176,0,1,,,,,
,,5f60ec27ae3437000bc97536,001,2023-07-31_20h44.38.319,arm3_eps,2022.2.5,Win32,59.75143403,5f60ec27ae3437000bc97536,64c7fed44a04f777bb1e18ce,64c800ed82212624706af08f,right,1,0.75,0.4357,20,0.020888212,0.3986,,,,,,177,0,177,0,1,,,,,
,,5f60ec27ae3437000bc97536,001,2023-07-31_20h44.38.319,arm3_eps,2022.2.5,Win32,59.75143403,5f60ec27ae3437000bc97536,64c7fed44a04f777bb1e18ce,64c800ed82212624706af08f,up,1,0.75,0.4357,20,0,0.6536,,,,,,178,0,178,0,1,,,,,
,,5f60ec27ae3437000bc97536,001,2023-07-31_20h44.38.319,arm3_eps,2022.2.5,Win32,59.75143403,5f60ec27ae3437000bc97536,64c7fed44a04f777bb1e18ce,64c800ed82212624706af08f,right,1,0.75,0.4357,20,0.010051346,0.8422,,,,,,179,0,179,0,1,,,,,
,,5f60ec27ae3437000bc97536,001,2023-07-31_20h44.38.319,arm3_eps,2022.2.5,Win32,59.75143403,5f60ec27ae3437000bc97536,64c7fed44a04f777bb1e18ce,64c800ed82212624706af08f,right,1,0.75,0.4357,20,0.028228712,0.1371,,,,,,180,0,180,0,1,,,,,
,,5f60ec27ae3437000bc97536,001,2023-07-31_20h44.38.319,arm3_eps,2022.2.5,Win32,59.75143403,5f60ec27ae3437000bc97536,64c7fed44a04f777bb1e18ce,64c800ed82212624706af08f,right,1,0.75,0.4357,20,0.036292786,0.1633,,,,,,181,0,181,0,1,,,,,
,,5f60ec27ae3437000bc97536,001,2023-07-31_20h44.38.319,arm3_eps,2022.2.5,Win32,59.75143403,5f60ec27ae3437000bc97536,64c7fed44a04f777bb1e18ce,64c800ed82212624706af08f,right,1,0.75,0.4357,20,0.028815487,0.3153,,,,,,182,0,182,0,1,,,,,
,,5f60ec27ae3437000bc97536,001,2023-07-31_20h44.38.319,arm3_eps,2022.2.5,Win32,59.75143403,5f60ec27ae3437000bc97536,64c7fed44a04f777bb1e18ce,64c800ed82212624706af08f,up,1,0.75,0.4357,21,0,0.5144,,,,,,183,0,183,0,1,,,,,
,,5f60ec27ae3437000bc97536,001,2023-07-31_20h44.38.319,arm3_eps,2022.2.5,Win32,59.75143403,5f60ec27ae3437000bc97536,64c7fed44a04f777bb1e18ce,64c800ed82212624706af08f,right,1,0.75,0.4357,21,0.034254017,0.7047,,,,,,184,0,184,0,1,,,,,
,,5f60ec27ae3437000bc97536,001,2023-07-31_20h44.38.319,arm3_eps,2022.2.5,Win32,59.75143403,5f60ec27ae3437000bc97536,64c7fed44a04f777bb1e18ce,64c800ed82212624706af08f,right,1,0.75,0.4357,21,0.051105282,0.1409,,,,,,185,0,185,0,1,,,,,
,,5f60ec27ae3437000bc97536,001,2023-07-31_20h44.38.319,arm3_eps,2022.2.5,Win32,59.75143403,5f60ec27ae3437000bc97536,64c7fed44a04f777bb1e18ce,64c800ed82212624706af08f,right,1,0.75,0.4357,21,0.065236151,0.3981,,,,,,186,0,186,0,1,,,,,
,,5f60ec27ae3437000bc97536,001,2023-07-31_20h44.38.319,arm3_eps,2022.2.5,Win32,59.75143403,5f60ec27ae3437000bc97536,64c7fed44a04f777bb1e18ce,64c800ed82212624706af08f,up,1,0.75,0.4357,21,0,0.6212,,,,,,187,0,187,0,1,,,,,
,,5f60ec27ae3437000bc97536,001,2023-07-31_20h44.38.319,arm3_eps,2022.2.5,Win32,59.75143403,5f60ec27ae3437000bc97536,64c7fed44a04f777bb1e18ce,64c800ed82212624706af08f,right,1,0.75,0.4357,21,0.022268546,0.6472,,,,,,188,0,188,0,1,,,,,
,,5f60ec27ae3437000bc97536,001,2023-07-31_20h44.38.319,arm3_eps,2022.2.5,Win32,59.75143403,5f60ec27ae3437000bc97536,64c7fed44a04f777bb1e18ce,64c800ed82212624706af08f,right,1,0.75,0.4357,21,0.039205907,0.1304,,,,,,189,0,189,0,1,,,,,
,,5f60ec27ae3437000bc97536,001,2023-07-31_20h44.38.319,arm3_eps,2022.2.5,Win32,59.75143403,5f60ec27ae3437000bc97536,64c7fed44a04f777bb1e18ce,64c800ed82212624706af08f,right,1,0.75,0.4357,21,0.058298677,0.147,,,,,,190,0,190,0,1,,,,,
,,5f60ec27ae3437000bc97536,001,2023-07-31_20h44.38.319,arm3_eps,2022.2.5,Win32,59.75143403,5f60ec27ae3437000bc97536,64c7fed44a04f777bb1e18ce,64c800ed82212624706af08f,up,-1,0.75,0.4357,21,0,0.4621,,,,,,191,0,191,0,1,,,,,
,,5f60ec27ae3437000bc97536,001,2023-07-31_20h44.38.319,arm3_eps,2022.2.5,Win32,59.75143403,5f60ec27ae3437000bc97536,64c7fed44a04f777bb1e18ce,64c800ed82212624706af08f,right,-1,0.75,0.4357,21,0.007219103,0.6531,,,,,,192,0,192,0,1,,,,,
,,5f60ec27ae3437000bc97536,001,2023-07-31_20h44.38.319,arm3_eps,2022.2.5,Win32,59.75143403,5f60ec27ae3437000bc97536,64c7fed44a04f777bb1e18ce,64c800ed82212624706af08f,right,-1,0.75,0.4357,21,-0.008003136,0.1459,,,,,,193,0,193,0,1,,,,,
,,5f60ec27ae3437000bc97536,001,2023-07-31_20h44.38.319,arm3_eps,2022.2.5,Win32,59.75143403,5f60ec27ae3437000bc97536,64c7fed44a04f777bb1e18ce,64c800ed82212624706af08f,right,-1,0.75,0.4357,21,-0.019626171,0.1456,,,,,,194,0,194,0,1,,,,,
,,5f60ec27ae3437000bc97536,001,2023-07-31_20h44.38.319,arm3_eps,2022.2.5,Win32,59.75143403,5f60ec27ae3437000bc97536,64c7fed44a04f777bb1e18ce,64c800ed82212624706af08f,right,-1,0.75,0.4357,21,0.000867645,0.4673,,,,,,195,0,195,0,1,,,,,
,,5f60ec27ae3437000bc97536,001,2023-07-31_20h44.38.319,arm3_eps,2022.2.5,Win32,59.75143403,5f60ec27ae3437000bc97536,64c7fed44a04f777bb1e18ce,64c800ed82212624706af08f,right,-1,0.75,0.4357,21,-0.014991754,0.3506,,,,,,196,0,196,0,1,,,,,
,,5f60ec27ae3437000bc97536,001,2023-07-31_20h44.38.319,arm3_eps,2022.2.5,Win32,59.75143403,5f60ec27ae3437000bc97536,64c7fed44a04f777bb1e18ce,64c800ed82212624706af08f,right,-1,0.75,0.4357,21,-0.017094147,0.4309,,,,,,197,0,197,0,1,,,,,
,,5f60ec27ae3437000bc97536,001,2023-07-31_20h44.38.319,arm3_eps,2022.2.5,Win32,59.75143403,5f60ec27ae3437000bc97536,64c7fed44a04f777bb1e18ce,64c800ed82212624706af08f,down,-1,0.75,0.4357,21,0,0.5504,,,,,,198,0,198,0,1,,,,,
,,5f60ec27ae3437000bc97536,001,2023-07-31_20h44.38.319,arm3_eps,2022.2.5,Win32,59.75143403,5f60ec27ae3437000bc97536,64c7fed44a04f777bb1e18ce,64c800ed82212624706af08f,right,-1,0.75,0.4357,21,-0.025285567,5.1726,,,,,,199,0,199,0,1,,,,,
,,5f60ec27ae3437000bc97536,001,2023-07-31_20h44.38.319,arm3_eps,2022.2.5,Win32,59.75143403,5f60ec27ae3437000bc97536,64c7fed44a04f777bb1e18ce,64c800ed82212624706af08f,right,-1,0.75,0.4357,21,-0.006696611,0.1218,,,,,,200,0,200,0,1,,,,,
,,5f60ec27ae3437000bc97536,001,2023-07-31_20h44.38.319,arm3_eps,2022.2.5,Win32,59.75143403,5f60ec27ae3437000bc97536,64c7fed44a04f777bb1e18ce,64c800ed82212624706af08f,right,-1,0.75,0.4357,21,-0.006440557,0.3638,,,,,,201,0,201,0,1,,,,,
,,5f60ec27ae3437000bc97536,001,2023-07-31_20h44.38.319,arm3_eps,2022.2.5,Win32,59.75143403,5f60ec27ae3437000bc97536,64c7fed44a04f777bb1e18ce,64c800ed82212624706af08f,down,-1,0.75,0.4357,22,0,0.9216,,,,,,202,0,202,0,1,,,,,
,,5f60ec27ae3437000bc97536,001,2023-07-31_20h44.38.319,arm3_eps,2022.2.5,Win32,59.75143403,5f60ec27ae3437000bc97536,64c7fed44a04f777bb1e18ce,64c800ed82212624706af08f,right,-1,0.75,0.4357,22,-0.038989917,0.9129,,,,,,203,0,203,0,1,,,,,
,,5f60ec27ae3437000bc97536,001,2023-07-31_20h44.38.319,arm3_eps,2022.2.5,Win32,59.75143403,5f60ec27ae3437000bc97536,64c7fed44a04f777bb1e18ce,64c800ed82212624706af08f,right,-1,0.75,0.4357,22,-0.064003044,0.1472,,,,,,204,0,204,0,1,,,,,
,,5f60ec27ae3437000bc97536,001,2023-07-31_20h44.38.319,arm3_eps,2022.2.5,Win32,59.75143403,5f60ec27ae3437000bc97536,64c7fed44a04f777bb1e18ce,64c800ed82212624706af08f,right,-1,0.75,0.4357,22,-0.0529132,1.1133,,,,,,205,0,205,0,1,,,,,
,,5f60ec27ae3437000bc97536,001,2023-07-31_20h44.38.319,arm3_eps,2022.2.5,Win32,59.75143403,5f60ec27ae3437000bc97536,64c7fed44a04f777bb1e18ce,64c800ed82212624706af08f,down,-1,0.75,0.4357,23,0,0.5406,,,,,,206,0,206,0,1,,,,,
,,5f60ec27ae3437000bc97536,001,2023-07-31_20h44.38.319,arm3_eps,2022.2.5,Win32,59.75143403,5f60ec27ae3437000bc97536,64c7fed44a04f777bb1e18ce,64c800ed82212624706af08f,right,-1,0.75,0.4357,23,-0.023273171,0.7452,,,,,,207,0,207,0,1,,,,,
,,5f60ec27ae3437000bc97536,001,2023-07-31_20h44.38.319,arm3_eps,2022.2.5,Win32,59.75143403,5f60ec27ae3437000bc97536,64c7fed44a04f777bb1e18ce,64c800ed82212624706af08f,right,-1,0.75,0.4357,23,-0.024526701,0.1358,,,,,,208,0,208,0,1,,,,,
,,5f60ec27ae3437000bc97536,001,2023-07-31_20h44.38.319,arm3_eps,2022.2.5,Win32,59.75143403,5f60ec27ae3437000bc97536,64c7fed44a04f777bb1e18ce,64c800ed82212624706af08f,right,-1,0.75,0.4357,23,-0.019368036,0.1461,,,,,,209,0,209,0,1,,,,,
,,5f60ec27ae3437000bc97536,001,2023-07-31_20h44.38.319,arm3_eps,2022.2.5,Win32,59.75143403,5f60ec27ae3437000bc97536,64c7fed44a04f777bb1e18ce,64c800ed82212624706af08f,right,-1,0.75,0.4357,23,-0.035109637,0.3396,,,,,,210,0,210,0,1,,,,,
,,5f60ec27ae3437000bc97536,001,2023-07-31_20h44.38.319,arm3_eps,2022.2.5,Win32,59.75143403,5f60ec27ae3437000bc97536,64c7fed44a04f777bb1e18ce,64c800ed82212624706af08f,right,-1,0.75,0.4357,23,-0.088070616,0.3568,,,,,,211,0,211,0,1,,,,,
,,5f60ec27ae3437000bc97536,001,2023-07-31_20h44.38.319,arm3_eps,2022.2.5,Win32,59.75143403,5f60ec27ae3437000bc97536,64c7fed44a04f777bb1e18ce,64c800ed82212624706af08f,right,-1,0.75,0.4357,23,-0.062737721,0.5474,,,,,,212,0,212,0,1,,,,,
,,5f60ec27ae3437000bc97536,001,2023-07-31_20h44.38.319,arm3_eps,2022.2.5,Win32,59.75143403,5f60ec27ae3437000bc97536,64c7fed44a04f777bb1e18ce,64c800ed82212624706af08f,down,-1,0.75,0.4357,24,0,0.5526,,,,,,213,0,213,0,1,,,,,
,,5f60ec27ae3437000bc97536,001,2023-07-31_20h44.38.319,arm3_eps,2022.2.5,Win32,59.75143403,5f60ec27ae3437000bc97536,64c7fed44a04f777bb1e18ce,64c800ed82212624706af08f,right,-1,0.75,0.4357,24,0.010151783,0.8434,,,,,,214,0,214,0,1,,,,,
,,5f60ec27ae3437000bc97536,001,2023-07-31_20h44.38.319,arm3_eps,2022.2.5,Win32,59.75143403,5f60ec27ae3437000bc97536,64c7fed44a04f777bb1e18ce,64c800ed82212624706af08f,right,-1,0.75,0.4357,24,-0.003955763,0.1345,,,,,,215,0,215,0,1,,,,,
,,5f60ec27ae3437000bc97536,001,2023-07-31_20h44.38.319,arm3_eps,2022.2.5,Win32,59.75143403,5f60ec27ae3437000bc97536,64c7fed44a04f777bb1e18ce,64c800ed82212624706af08f,right,-1,0.75,0.4357,24,0.007986871,0.1694,,,,,,216,0,216,0,1,,,,,
,,5f60ec27ae3437000bc97536,001,2023-07-31_20h44.38.319,arm3_eps,2022.2.5,Win32,59.75143403,5f60ec27ae3437000bc97536,64c7fed44a04f777bb1e18ce,64c800ed82212624706af08f,right,-1,0.75,0.4357,24,-0.007903626,0.3457,,,,,,217,0,217,0,1,,,,,
,,5f60ec27ae3437000bc97536,001,2023-07-31_20h44.38.319,arm3_eps,2022.2.5,Win32,59.75143403,5f60ec27ae3437000bc97536,64c7fed44a04f777bb1e18ce,64c800ed82212624706af08f,right,-1,0.75,0.4357,24,-0.009805362,0.3479,,,,,,218,0,218,0,1,,,,,
