space_bar.keys,space_bar.rt,participant,session,date,expName,psychopyVersion,OS,frameRate,PROLIFIC_PID,STUDY_ID,SESSION_ID,resp.keys,state,q_prob,eps_prob,score,price,resp.rt,train.thisRepN,train.thisTrialN,train.thisN,train.thisIndex,train.ran,steps.thisRepN,steps.thisTrialN,steps.thisN,steps.thisIndex,steps.ran,blocks.thisRepN,blocks.thisTrialN,blocks.thisN,blocks.thisIndex,blocks.ran
space,59.5878,607251,001,2023-07-31_20h43.58.547,arm3_eps,2022.2.5,MacIntel,60.0024001,611d3cadcee021ae2fa85df3,64c7fed44a04f777bb1e18ce,64c800d3a7ea0453df128353,,,,,,,,,,,,,,,,,,,,,,
space,5.0175,607251,001,2023-07-31_20h43.58.547,arm3_eps,2022.2.5,MacIntel,60.0024001,611d3cadcee021ae2fa85df3,64c7fed44a04f777bb1e18ce,64c800d3a7ea0453df128353,,,,,,,,,,,,,,,,,,,,,,
space,30.2173,607251,001,2023-07-31_20h43.58.547,arm3_eps,2022.2.5,MacIntel,60.0024001,611d3cadcee021ae2fa85df3,64c7fed44a04f777bb1e18ce,64c800d3a7ea0453df128353,,,,,,,,,,,,,,,,,,,,,,
space,10.6113,607251,001,2023-07-31_20h43.58.547,arm3_eps,2022.2.5,MacIntel,60.0024001,611d3cadcee021ae2fa85df3,64c7fed44a04f777bb1e18ce,64c800d3a7ea0453df128353,,,,,,,,,,,,,,,,,,,,,,
space,37.0958,607251,001,2023-07-31_20h43.58.547,arm3_eps,2022.2.5,MacIntel,60.0024001,611d3cadcee021ae2fa85df3,64c7fed44a04f777bb1e18ce,64c800d3a7ea0453df128353,,,,,,,,,,,,,,,,,,,,,,
space,11.0996,607251,001,2023-07-31_20h43.58.547,arm3_eps,2022.2.5,MacIntel,60.0024001,611d3cadcee021ae2fa85df3,64c7fed44a04f777bb1e18ce,64c800d3a7ea0453df128353,,,,,,,,,,,,,,,,,,,,,,
space,2.6643,607251,001,2023-07-31_20h43.58.547,arm3_eps,2022.2.5,MacIntel,60.0024001,611d3cadcee021ae2fa85df3,64c7fed44a04f777bb1e18ce,64c800d3a7ea0453df128353,,,,,,,,,,,,,,,,,,,,,,
,,607251,001,2023-07-31_20h43.58.547,arm3_eps,2022.2.5,MacIntel,60.0024001,611d3cadcee021ae2fa85df3,64c7fed44a04f777bb1e18ce,64c800d3a7ea0453df128353,up,1,1,0.2429,1,0,8.3034,0,0,0,0,1,,,,,,,,,,
,,607251,001,2023-07-31_20h43.58.547,arm3_eps,2022.2.5,MacIntel,60.0024001,611d3cadcee021ae2fa85df3,64c7fed44a04f777bb1e18ce,64c800d3a7ea0453df128353,up,1,1,0.2429,2,0,11.3484,1,0,1,0,1,,,,,,,,,,
,,607251,001,2023-07-31_20h43.58.547,arm3_eps,2022.2.5,MacIntel,60.0024001,611d3cadcee021ae2fa85df3,64c7fed44a04f777bb1e18ce,64c800d3a7ea0453df128353,up,1,1,0.2429,3,0,19.3154,2,0,2,0,1,,,,,,,,,,
,,607251,001,2023-07-31_20h43.58.547,arm3_eps,2022.2.5,MacIntel,60.0024001,611d3cadcee021ae2fa85df3,64c7fed44a04f777bb1e18ce,64c800d3a7ea0453df128353,down,1,1,0.2429,2,0,13.466,3,0,3,0,1,,,,,,,,,,
,,607251,001,2023-07-31_20h43.58.547,arm3_eps,2022.2.5,MacIntel,60.0024001,611d3cadcee021ae2fa85df3,64c7fed44a04f777bb1e18ce,64c800d3a7ea0453df128353,up,1,1,0.2429,3,0,8.174,4,0,4,0,1,,,,,,,,,,
,,607251,001,2023-07-31_20h43.58.547,arm3_eps,2022.2.5,MacIntel,60.0024001,611d3cadcee021ae2fa85df3,64c7fed44a04f777bb1e18ce,64c800d3a7ea0453df128353,up,-1,1,0.2429,4,0,2.6709,5,0,5,0,1,,,,,,,,,,
,,607251,001,2023-07-31_20h43.58.547,arm3_eps,2022.2.5,MacIntel,60.0024001,611d3cadcee021ae2fa85df3,64c7fed44a04f777bb1e18ce,64c800d3a7ea0453df128353,up,-1,1,0.2429,3,0,5.3631,6,0,6,0,1,,,,,,,,,,
,,607251,001,2023-07-31_20h43.58.547,arm3_eps,2022.2.5,MacIntel,60.0024001,611d3cadcee021ae2fa85df3,64c7fed44a04f777bb1e18ce,64c800d3a7ea0453df128353,up,1,1,0.2429,2,0,8.5967,7,0,7,0,1,,,,,,,,,,
,,607251,001,2023-07-31_20h43.58.547,arm3_eps,2022.2.5,MacIntel,60.0024001,611d3cadcee021ae2fa85df3,64c7fed44a04f777bb1e18ce,64c800d3a7ea0453df128353,right,1,1,0.2429,2,0.00707804,5.7165,8,0,8,0,1,,,,,,,,,,
,,607251,001,2023-07-31_20h43.58.547,arm3_eps,2022.2.5,MacIntel,60.0024001,611d3cadcee021ae2fa85df3,64c7fed44a04f777bb1e18ce,64c800d3a7ea0453df128353,right,1,1,0.2429,2,0.015485413,1.4232,9,0,9,0,1,,,,,,,,,,
,,607251,001,2023-07-31_20h43.58.547,arm3_eps,2022.2.5,MacIntel,60.0024001,611d3cadcee021ae2fa85df3,64c7fed44a04f777bb1e18ce,64c800d3a7ea0453df128353,up,-1,1,0.2429,3,0,1.6006,10,0,10,0,1,,,,,,,,,,
,,607251,001,2023-07-31_20h43.58.547,arm3_eps,2022.2.5,MacIntel,60.0024001,611d3cadcee021ae2fa85df3,64c7fed44a04f777bb1e18ce,64c800d3a7ea0453df128353,right,-1,1,0.2429,3,-0.008918111,4.3758,11,0,11,0,1,,,,,,,,,,
,,607251,001,2023-07-31_20h43.58.547,arm3_eps,2022.2.5,MacIntel,60.0024001,611d3cadcee021ae2fa85df3,64c7fed44a04f777bb1e18ce,64c800d3a7ea0453df128353,right,-1,1,0.2429,3,-0.02407317,0.5061,12,0,12,0,1,,,,,,,,,,
,,607251,001,2023-07-31_20h43.58.547,arm3_eps,2022.2.5,MacIntel,60.0024001,611d3cadcee021ae2fa85df3,64c7fed44a04f777bb1e18ce,64c800d3a7ea0453df128353,down,1,1,0.2429,4,0,2.3843,13,0,13,0,1,,,,,,,,,,
,,607251,001,2023-07-31_20h43.58.547,arm3_eps,2022.2.5,MacIntel,60.0024001,611d3cadcee021ae2fa85df3,64c7fed44a04f777bb1e18ce,64c800d3a7ea0453df128353,right,1,1,0.2429,4,0.004708529,1.4983,14,0,14,0,1,,,,,,,,,,
,,607251,001,2023-07-31_20h43.58.547,arm3_eps,2022.2.5,MacIntel,60.0024001,611d3cadcee021ae2fa85df3,64c7fed44a04f777bb1e18ce,64c800d3a7ea0453df128353,right,1,1,0.2429,4,0.042401918,0.2671,15,0,15,0,1,,,,,,,,,,
,,607251,001,2023-07-31_20h43.58.547,arm3_eps,2022.2.5,MacIntel,60.0024001,611d3cadcee021ae2fa85df3,64c7fed44a04f777bb1e18ce,64c800d3a7ea0453df128353,right,1,1,0.2429,4,0.060587103,1.0501,16,0,16,0,1,,,,,,,,,,
,,607251,001,2023-07-31_20h43.58.547,arm3_eps,2022.2.5,MacIntel,60.0024001,611d3cadcee021ae2fa85df3,64c7fed44a04f777bb1e18ce,64c800d3a7ea0453df128353,right,1,1,0.2429,4,0.053152832,0.6139,17,0,17,0,1,,,,,,,,,,
,,607251,001,2023-07-31_20h43.58.547,arm3_eps,2022.2.5,MacIntel,60.0024001,611d3cadcee021ae2fa85df3,64c7fed44a04f777bb1e18ce,64c800d3a7ea0453df128353,right,1,1,0.2429,4,0.074407164,0.554,18,0,18,0,1,,,,,,,,,,
,,607251,001,2023-07-31_20h43.58.547,arm3_eps,2022.2.5,MacIntel,60.0024001,611d3cadcee021ae2fa85df3,64c7fed44a04f777bb1e18ce,64c800d3a7ea0453df128353,right,1,1,0.2429,4,0.073099049,0.4313,19,0,19,0,1,,,,,,,,,,
,,607251,001,2023-07-31_20h43.58.547,arm3_eps,2022.2.5,MacIntel,60.0024001,611d3cadcee021ae2fa85df3,64c7fed44a04f777bb1e18ce,64c800d3a7ea0453df128353,right,1,1,0.2429,4,0.077645936,0.3168,20,0,20,0,1,,,,,,,,,,
,,607251,001,2023-07-31_20h43.58.547,arm3_eps,2022.2.5,MacIntel,60.0024001,611d3cadcee021ae2fa85df3,64c7fed44a04f777bb1e18ce,64c800d3a7ea0453df128353,right,1,1,0.2429,4,0.12520061,0.4845,21,0,21,0,1,,,,,,,,,,
,,607251,001,2023-07-31_20h43.58.547,arm3_eps,2022.2.5,MacIntel,60.0024001,611d3cadcee021ae2fa85df3,64c7fed44a04f777bb1e18ce,64c800d3a7ea0453df128353,up,1,1,0.2429,5,0,1.0177,22,0,22,0,1,,,,,,,,,,
,,607251,001,2023-07-31_20h43.58.547,arm3_eps,2022.2.5,MacIntel,60.0024001,611d3cadcee021ae2fa85df3,64c7fed44a04f777bb1e18ce,64c800d3a7ea0453df128353,right,1,1,0.2429,5,0.014493697,1.9433,23,0,23,0,1,,,,,,,,,,
,,607251,001,2023-07-31_20h43.58.547,arm3_eps,2022.2.5,MacIntel,60.0024001,611d3cadcee021ae2fa85df3,64c7fed44a04f777bb1e18ce,64c800d3a7ea0453df128353,right,1,1,0.2429,5,0.036881425,0.2983,24,0,24,0,1,,,,,,,,,,
,,607251,001,2023-07-31_20h43.58.547,arm3_eps,2022.2.5,MacIntel,60.0024001,611d3cadcee021ae2fa85df3,64c7fed44a04f777bb1e18ce,64c800d3a7ea0453df128353,right,1,1,0.2429,5,0.068424712,0.2503,25,0,25,0,1,,,,,,,,,,
,,607251,001,2023-07-31_20h43.58.547,arm3_eps,2022.2.5,MacIntel,60.0024001,611d3cadcee021ae2fa85df3,64c7fed44a04f777bb1e18ce,64c800d3a7ea0453df128353,right,1,1,0.2429,5,0.073301599,0.7665,26,0,26,0,1,,,,,,,,,,
,,607251,001,2023-07-31_20h43.58.547,arm3_eps,2022.2.5,MacIntel,60.0024001,611d3cadcee021ae2fa85df3,64c7fed44a04f777bb1e18ce,64c800d3a7ea0453df128353,right,1,1,0.2429,5,0.081380383,0.2175,27,0,27,0,1,,,,,,,,,,
,,607251,001,2023-07-31_20h43.58.547,arm3_eps,2022.2.5,MacIntel,60.0024001,611d3cadcee021ae2fa85df3,64c7fed44a04f777bb1e18ce,64c800d3a7ea0453df128353,right,1,1,0.2429,5,0.070977792,0.3674,28,0,28,0,1,,,,,,,,,,
,,607251,001,2023-07-31_20h43.58.547,arm3_eps,2022.2.5,MacIntel,60.0024001,611d3cadcee021ae2fa85df3,64c7fed44a04f777bb1e18ce,64c800d3a7ea0453df128353,right,1,1,0.2429,5,0.102097422,0.2171,29,0,29,0,1,,,,,,,,,,
,,607251,001,2023-07-31_20h43.58.547,arm3_eps,2022.2.5,MacIntel,60.0024001,611d3cadcee021ae2fa85df3,64c7fed44a04f777bb1e18ce,64c800d3a7ea0453df128353,right,1,1,0.2429,5,0.094794348,0.15,30,0,30,0,1,,,,,,,,,,
,,607251,001,2023-07-31_20h43.58.547,arm3_eps,2022.2.5,MacIntel,60.0024001,611d3cadcee021ae2fa85df3,64c7fed44a04f777bb1e18ce,64c800d3a7ea0453df128353,right,1,1,0.2429,5,0.090345306,0.4838,31,0,31,0,1,,,,,,,,,,
,,607251,001,2023-07-31_20h43.58.547,arm3_eps,2022.2.5,MacIntel,60.0024001,611d3cadcee021ae2fa85df3,64c7fed44a04f777bb1e18ce,64c800d3a7ea0453df128353,right,1,1,0.2429,5,0.101480379,0.2024,32,0,32,0,1,,,,,,,,,,
,,607251,001,2023-07-31_20h43.58.547,arm3_eps,2022.2.5,MacIntel,60.0024001,611d3cadcee021ae2fa85df3,64c7fed44a04f777bb1e18ce,64c800d3a7ea0453df128353,right,1,1,0.2429,5,0.106920758,0.2007,33,0,33,0,1,,,,,,,,,,
,,607251,001,2023-07-31_20h43.58.547,arm3_eps,2022.2.5,MacIntel,60.0024001,611d3cadcee021ae2fa85df3,64c7fed44a04f777bb1e18ce,64c800d3a7ea0453df128353,up,1,1,0.2429,6,0,0.5048,34,0,34,0,1,,,,,,,,,,
,,607251,001,2023-07-31_20h43.58.547,arm3_eps,2022.2.5,MacIntel,60.0024001,611d3cadcee021ae2fa85df3,64c7fed44a04f777bb1e18ce,64c800d3a7ea0453df128353,right,1,1,0.2429,6,-0.00466651,1.4,35,0,35,0,1,,,,,,,,,,
,,607251,001,2023-07-31_20h43.58.547,arm3_eps,2022.2.5,MacIntel,60.0024001,611d3cadcee021ae2fa85df3,64c7fed44a04f777bb1e18ce,64c800d3a7ea0453df128353,right,1,1,0.2429,6,0.008752082,0.2003,36,0,36,0,1,,,,,,,,,,
,,607251,001,2023-07-31_20h43.58.547,arm3_eps,2022.2.5,MacIntel,60.0024001,611d3cadcee021ae2fa85df3,64c7fed44a04f777bb1e18ce,64c800d3a7ea0453df128353,right,1,1,0.2429,6,0.012188972,0.2165,37,0,37,0,1,,,,,,,,,,
,,607251,001,2023-07-31_20h43.58.547,arm3_eps,2022.2.5,MacIntel,60.0024001,611d3cadcee021ae2fa85df3,64c7fed44a04f777bb1e18ce,64c800d3a7ea0453df128353,right,1,1,0.2429,6,0.030482555,0.1829,38,0,38,0,1,,,,,,,,,,
,,607251,001,2023-07-31_20h43.58.547,arm3_eps,2022.2.5,MacIntel,60.0024001,611d3cadcee021ae2fa85df3,64c7fed44a04f777bb1e18ce,64c800d3a7ea0453df128353,right,1,1,0.2429,6,0.063282163,0.2003,39,0,39,0,1,,,,,,,,,,
,,607251,001,2023-07-31_20h43.58.547,arm3_eps,2022.2.5,MacIntel,60.0024001,611d3cadcee021ae2fa85df3,64c7fed44a04f777bb1e18ce,64c800d3a7ea0453df128353,right,1,1,0.2429,6,0.061254834,0.201,40,0,40,0,1,,,,,,,,,,
,,607251,001,2023-07-31_20h43.58.547,arm3_eps,2022.2.5,MacIntel,60.0024001,611d3cadcee021ae2fa85df3,64c7fed44a04f777bb1e18ce,64c800d3a7ea0453df128353,right,1,1,0.2429,6,0.077424073,0.2342,41,0,41,0,1,,,,,,,,,,
,,607251,001,2023-07-31_20h43.58.547,arm3_eps,2022.2.5,MacIntel,60.0024001,611d3cadcee021ae2fa85df3,64c7fed44a04f777bb1e18ce,64c800d3a7ea0453df128353,right,1,1,0.2429,6,0.083768849,0.1817,42,0,42,0,1,,,,,,,,,,
,,607251,001,2023-07-31_20h43.58.547,arm3_eps,2022.2.5,MacIntel,60.0024001,611d3cadcee021ae2fa85df3,64c7fed44a04f777bb1e18ce,64c800d3a7ea0453df128353,right,1,1,0.2429,6,0.072897424,0.2047,43,0,43,0,1,,,,,,,,,,
,,607251,001,2023-07-31_20h43.58.547,arm3_eps,2022.2.5,MacIntel,60.0024001,611d3cadcee021ae2fa85df3,64c7fed44a04f777bb1e18ce,64c800d3a7ea0453df128353,up,1,1,0.2429,7,0,0.6359,44,0,44,0,1,,,,,,,,,,
,,607251,001,2023-07-31_20h43.58.547,arm3_eps,2022.2.5,MacIntel,60.0024001,611d3cadcee021ae2fa85df3,64c7fed44a04f777bb1e18ce,64c800d3a7ea0453df128353,right,1,1,0.2429,7,-0.011772307,1.1466,45,0,45,0,1,,,,,,,,,,
,,607251,001,2023-07-31_20h43.58.547,arm3_eps,2022.2.5,MacIntel,60.0024001,611d3cadcee021ae2fa85df3,64c7fed44a04f777bb1e18ce,64c800d3a7ea0453df128353,right,1,1,0.2429,7,0.004889259,0.1844,46,0,46,0,1,,,,,,,,,,
,,607251,001,2023-07-31_20h43.58.547,arm3_eps,2022.2.5,MacIntel,60.0024001,611d3cadcee021ae2fa85df3,64c7fed44a04f777bb1e18ce,64c800d3a7ea0453df128353,right,1,1,0.2429,7,0.014053661,0.1837,47,0,47,0,1,,,,,,,,,,
,,607251,001,2023-07-31_20h43.58.547,arm3_eps,2022.2.5,MacIntel,60.0024001,611d3cadcee021ae2fa85df3,64c7fed44a04f777bb1e18ce,64c800d3a7ea0453df128353,right,1,1,0.2429,7,0.019577023,0.1671,48,0,48,0,1,,,,,,,,,,
,,607251,001,2023-07-31_20h43.58.547,arm3_eps,2022.2.5,MacIntel,60.0024001,611d3cadcee021ae2fa85df3,64c7fed44a04f777bb1e18ce,64c800d3a7ea0453df128353,right,1,1,0.2429,7,0.050495509,0.1668,49,0,49,0,1,,,,,,,,,,
space,18.8576,607251,001,2023-07-31_20h43.58.547,arm3_eps,2022.2.5,MacIntel,60.0024001,611d3cadcee021ae2fa85df3,64c7fed44a04f777bb1e18ce,64c800d3a7ea0453df128353,,,,,,,,,,,,,,,,,,,,,,
space,10.9671,607251,001,2023-07-31_20h43.58.547,arm3_eps,2022.2.5,MacIntel,60.0024001,611d3cadcee021ae2fa85df3,64c7fed44a04f777bb1e18ce,64c800d3a7ea0453df128353,,,,,,,,,,,,,,,,,,,,,,
space,16.9483,607251,001,2023-07-31_20h43.58.547,arm3_eps,2022.2.5,MacIntel,60.0024001,611d3cadcee021ae2fa85df3,64c7fed44a04f777bb1e18ce,64c800d3a7ea0453df128353,,,,,,,,,,,,,,,,,,,,,,
space,9.2982,607251,001,2023-07-31_20h43.58.547,arm3_eps,2022.2.5,MacIntel,60.0024001,611d3cadcee021ae2fa85df3,64c7fed44a04f777bb1e18ce,64c800d3a7ea0453df128353,,,,,,,,,,,,,,,,,,,,,,
space,8.2827,607251,001,2023-07-31_20h43.58.547,arm3_eps,2022.2.5,MacIntel,60.0024001,611d3cadcee021ae2fa85df3,64c7fed44a04f777bb1e18ce,64c800d3a7ea0453df128353,,,,,,,,,,,,,,,,,,,,,,
space,1.818,607251,001,2023-07-31_20h43.58.547,arm3_eps,2022.2.5,MacIntel,60.0024001,611d3cadcee021ae2fa85df3,64c7fed44a04f777bb1e18ce,64c800d3a7ea0453df128353,,,,,,,,,,,,,,,,,,,,,,
,,607251,001,2023-07-31_20h43.58.547,arm3_eps,2022.2.5,MacIntel,60.0024001,611d3cadcee021ae2fa85df3,64c7fed44a04f777bb1e18ce,64c800d3a7ea0453df128353,right,1,0.75,0.2429,0,0.009355367,2.39,0,0,0,0,1,,,,,,,,,,
,,607251,001,2023-07-31_20h43.58.547,arm3_eps,2022.2.5,MacIntel,60.0024001,611d3cadcee021ae2fa85df3,64c7fed44a04f777bb1e18ce,64c800d3a7ea0453df128353,right,1,0.75,0.2429,0,0.020467673,0.5662,1,0,1,0,1,,,,,,,,,,
,,607251,001,2023-07-31_20h43.58.547,arm3_eps,2022.2.5,MacIntel,60.0024001,611d3cadcee021ae2fa85df3,64c7fed44a04f777bb1e18ce,64c800d3a7ea0453df128353,right,1,0.75,0.2429,0,0.038532713,0.6148,2,0,2,0,1,,,,,,,,,,
,,607251,001,2023-07-31_20h43.58.547,arm3_eps,2022.2.5,MacIntel,60.0024001,611d3cadcee021ae2fa85df3,64c7fed44a04f777bb1e18ce,64c800d3a7ea0453df128353,right,1,0.75,0.2429,0,0.046254855,0.3831,3,0,3,0,1,,,,,,,,,,
,,607251,001,2023-07-31_20h43.58.547,arm3_eps,2022.2.5,MacIntel,60.0024001,611d3cadcee021ae2fa85df3,64c7fed44a04f777bb1e18ce,64c800d3a7ea0453df128353,up,1,0.75,0.2429,0,0,4.3153,4,0,4,0,1,,,,,,,,,,
,,607251,001,2023-07-31_20h43.58.547,arm3_eps,2022.2.5,MacIntel,60.0024001,611d3cadcee021ae2fa85df3,64c7fed44a04f777bb1e18ce,64c800d3a7ea0453df128353,right,1,0.75,0.2429,0,-0.006531375,2.4999,5,0,5,0,1,,,,,,,,,,
,,607251,001,2023-07-31_20h43.58.547,arm3_eps,2022.2.5,MacIntel,60.0024001,611d3cadcee021ae2fa85df3,64c7fed44a04f777bb1e18ce,64c800d3a7ea0453df128353,right,1,0.75,0.2429,0,-0.000168742,0.3407,6,0,6,0,1,,,,,,,,,,
,,607251,001,2023-07-31_20h43.58.547,arm3_eps,2022.2.5,MacIntel,60.0024001,611d3cadcee021ae2fa85df3,64c7fed44a04f777bb1e18ce,64c800d3a7ea0453df128353,down,1,0.75,0.2429,0,0,1.3656,7,0,7,0,1,,,,,,,,,,
,,607251,001,2023-07-31_20h43.58.547,arm3_eps,2022.2.5,MacIntel,60.0024001,611d3cadcee021ae2fa85df3,64c7fed44a04f777bb1e18ce,64c800d3a7ea0453df128353,right,1,0.75,0.2429,0,-0.034793221,3.1622,8,0,8,0,1,,,,,,,,,,
,,607251,001,2023-07-31_20h43.58.547,arm3_eps,2022.2.5,MacIntel,60.0024001,611d3cadcee021ae2fa85df3,64c7fed44a04f777bb1e18ce,64c800d3a7ea0453df128353,right,1,0.75,0.2429,0,-0.044312764,0.333,9,0,9,0,1,,,,,,,,,,
,,607251,001,2023-07-31_20h43.58.547,arm3_eps,2022.2.5,MacIntel,60.0024001,611d3cadcee021ae2fa85df3,64c7fed44a04f777bb1e18ce,64c800d3a7ea0453df128353,right,1,0.75,0.2429,0,-0.008203985,0.2322,10,0,10,0,1,,,,,,,,,,
,,607251,001,2023-07-31_20h43.58.547,arm3_eps,2022.2.5,MacIntel,60.0024001,611d3cadcee021ae2fa85df3,64c7fed44a04f777bb1e18ce,64c800d3a7ea0453df128353,right,1,0.75,0.2429,0,-0.00207788,0.2168,11,0,11,0,1,,,,,,,,,,
,,607251,001,2023-07-31_20h43.58.547,arm3_eps,2022.2.5,MacIntel,60.0024001,611d3cadcee021ae2fa85df3,64c7fed44a04f777bb1e18ce,64c800d3a7ea0453df128353,right,1,0.75,0.2429,0,-0.022234129,0.1822,12,0,12,0,1,,,,,,,,,,
,,607251,001,2023-07-31_20h43.58.547,arm3_eps,2022.2.5,MacIntel,60.0024001,611d3cadcee021ae2fa85df3,64c7fed44a04f777bb1e18ce,64c800d3a7ea0453df128353,right,1,0.75,0.2429,0,0.006670928,0.1674,13,0,13,0,1,,,,,,,,,,
,,607251,001,2023-07-31_20h43.58.547,arm3_eps,2022.2.5,MacIntel,60.0024001,611d3cadcee021ae2fa85df3,64c7fed44a04f777bb1e18ce,64c800d3a7ea0453df128353,right,1,0.75,0.2429,0,0.018094199,0.2327,14,0,14,0,1,,,,,,,,,,
,,607251,001,2023-07-31_20h43.58.547,arm3_eps,2022.2.5,MacIntel,60.0024001,611d3cadcee021ae2fa85df3,64c7fed44a04f777bb1e18ce,64c800d3a7ea0453df128353,right,1,0.75,0.2429,0,0.055328549,0.1518,15,0,15,0,1,,,,,,,,,,
,,607251,001,2023-07-31_20h43.58.547,arm3_eps,2022.2.5,MacIntel,60.0024001,611d3cadcee021ae2fa85df3,64c7fed44a04f777bb1e18ce,64c800d3a7ea0453df128353,right,1,0.75,0.2429,0,0.085203948,0.182,16,0,16,0,1,,,,,,,,,,
,,607251,001,2023-07-31_20h43.58.547,arm3_eps,2022.2.5,MacIntel,60.0024001,611d3cadcee021ae2fa85df3,64c7fed44a04f777bb1e18ce,64c800d3a7ea0453df128353,up,-1,0.75,0.2429,0,0,0.7032,17,0,17,0,1,,,,,,,,,,
,,607251,001,2023-07-31_20h43.58.547,arm3_eps,2022.2.5,MacIntel,60.0024001,611d3cadcee021ae2fa85df3,64c7fed44a04f777bb1e18ce,64c800d3a7ea0453df128353,right,-1,0.75,0.2429,0,-0.006089546,5.8176,18,0,18,0,1,,,,,,,,,,
,,607251,001,2023-07-31_20h43.58.547,arm3_eps,2022.2.5,MacIntel,60.0024001,611d3cadcee021ae2fa85df3,64c7fed44a04f777bb1e18ce,64c800d3a7ea0453df128353,right,-1,0.75,0.2429,0,0.005931001,0.2892,19,0,19,0,1,,,,,,,,,,
,,607251,001,2023-07-31_20h43.58.547,arm3_eps,2022.2.5,MacIntel,60.0024001,611d3cadcee021ae2fa85df3,64c7fed44a04f777bb1e18ce,64c800d3a7ea0453df128353,right,-1,0.75,0.2429,0,-0.026980243,0.2172,20,0,20,0,1,,,,,,,,,,
,,607251,001,2023-07-31_20h43.58.547,arm3_eps,2022.2.5,MacIntel,60.0024001,611d3cadcee021ae2fa85df3,64c7fed44a04f777bb1e18ce,64c800d3a7ea0453df128353,right,-1,0.75,0.2429,0,-0.04984333,0.1848,21,0,21,0,1,,,,,,,,,,
,,607251,001,2023-07-31_20h43.58.547,arm3_eps,2022.2.5,MacIntel,60.0024001,611d3cadcee021ae2fa85df3,64c7fed44a04f777bb1e18ce,64c800d3a7ea0453df128353,right,-1,0.75,0.2429,0,-0.041275195,0.5482,22,0,22,0,1,,,,,,,,,,
,,607251,001,2023-07-31_20h43.58.547,arm3_eps,2022.2.5,MacIntel,60.0024001,611d3cadcee021ae2fa85df3,64c7fed44a04f777bb1e18ce,64c800d3a7ea0453df128353,down,-1,0.75,0.2429,1,0,1.167,23,0,23,0,1,,,,,,,,,,
,,607251,001,2023-07-31_20h43.58.547,arm3_eps,2022.2.5,MacIntel,60.0024001,611d3cadcee021ae2fa85df3,64c7fed44a04f777bb1e18ce,64c800d3a7ea0453df128353,right,-1,0.75,0.2429,1,-0.001307353,2.6128,24,0,24,0,1,,,,,,,,,,
,,607251,001,2023-07-31_20h43.58.547,arm3_eps,2022.2.5,MacIntel,60.0024001,611d3cadcee021ae2fa85df3,64c7fed44a04f777bb1e18ce,64c800d3a7ea0453df128353,right,-1,0.75,0.2429,1,-0.012515082,0.2476,25,0,25,0,1,,,,,,,,,,
,,607251,001,2023-07-31_20h43.58.547,arm3_eps,2022.2.5,MacIntel,60.0024001,611d3cadcee021ae2fa85df3,64c7fed44a04f777bb1e18ce,64c800d3a7ea0453df128353,right,-1,0.75,0.2429,1,-0.019492964,0.2159,26,0,26,0,1,,,,,,,,,,
,,607251,001,2023-07-31_20h43.58.547,arm3_eps,2022.2.5,MacIntel,60.0024001,611d3cadcee021ae2fa85df3,64c7fed44a04f777bb1e18ce,64c800d3a7ea0453df128353,right,-1,0.75,0.2429,1,-0.019823701,0.1836,27,0,27,0,1,,,,,,,,,,
,,607251,001,2023-07-31_20h43.58.547,arm3_eps,2022.2.5,MacIntel,60.0024001,611d3cadcee021ae2fa85df3,64c7fed44a04f777bb1e18ce,64c800d3a7ea0453df128353,right,-1,0.75,0.2429,1,-0.024257819,0.1817,28,0,28,0,1,,,,,,,,,,
,,607251,001,2023-07-31_20h43.58.547,arm3_eps,2022.2.5,MacIntel,60.0024001,611d3cadcee021ae2fa85df3,64c7fed44a04f777bb1e18ce,64c800d3a7ea0453df128353,right,-1,0.75,0.2429,1,-0.0377601,0.1652,29,0,29,0,1,,,,,,,,,,
,,607251,001,2023-07-31_20h43.58.547,arm3_eps,2022.2.5,MacIntel,60.0024001,611d3cadcee021ae2fa85df3,64c7fed44a04f777bb1e18ce,64c800d3a7ea0453df128353,right,-1,0.75,0.2429,1,-0.043161187,0.1838,30,0,30,0,1,,,,,,,,,,
,,607251,001,2023-07-31_20h43.58.547,arm3_eps,2022.2.5,MacIntel,60.0024001,611d3cadcee021ae2fa85df3,64c7fed44a04f777bb1e18ce,64c800d3a7ea0453df128353,right,-1,0.75,0.2429,1,-0.028268786,0.201,31,0,31,0,1,,,,,,,,,,
,,607251,001,2023-07-31_20h43.58.547,arm3_eps,2022.2.5,MacIntel,60.0024001,611d3cadcee021ae2fa85df3,64c7fed44a04f777bb1e18ce,64c800d3a7ea0453df128353,right,-1,0.75,0.2429,1,-0.020040527,0.5011,32,0,32,0,1,,,,,,,,,,
,,607251,001,2023-07-31_20h43.58.547,arm3_eps,2022.2.5,MacIntel,60.0024001,611d3cadcee021ae2fa85df3,64c7fed44a04f777bb1e18ce,64c800d3a7ea0453df128353,right,-1,0.75,0.2429,1,-0.030549253,0.2003,33,0,33,0,1,,,,,,,,,,
,,607251,001,2023-07-31_20h43.58.547,arm3_eps,2022.2.5,MacIntel,60.0024001,611d3cadcee021ae2fa85df3,64c7fed44a04f777bb1e18ce,64c800d3a7ea0453df128353,right,-1,0.75,0.2429,1,-0.012598692,0.1676,34,0,34,0,1,,,,,,,,,,
,,607251,001,2023-07-31_20h43.58.547,arm3_eps,2022.2.5,MacIntel,60.0024001,611d3cadcee021ae2fa85df3,64c7fed44a04f777bb1e18ce,64c800d3a7ea0453df128353,right,-1,0.75,0.2429,1,-0.030066784,0.3513,35,0,35,0,1,,,,,,,,,,
,,607251,001,2023-07-31_20h43.58.547,arm3_eps,2022.2.5,MacIntel,60.0024001,611d3cadcee021ae2fa85df3,64c7fed44a04f777bb1e18ce,64c800d3a7ea0453df128353,down,-1,0.75,0.2429,2,0,0.7983,36,0,36,0,1,,,,,,,,,,
,,607251,001,2023-07-31_20h43.58.547,arm3_eps,2022.2.5,MacIntel,60.0024001,611d3cadcee021ae2fa85df3,64c7fed44a04f777bb1e18ce,64c800d3a7ea0453df128353,right,-1,0.75,0.2429,2,-0.007876807,0.9962,37,0,37,0,1,,,,,,,,,,
,,607251,001,2023-07-31_20h43.58.547,arm3_eps,2022.2.5,MacIntel,60.0024001,611d3cadcee021ae2fa85df3,64c7fed44a04f777bb1e18ce,64c800d3a7ea0453df128353,right,-1,0.75,0.2429,2,-0.006566138,0.1976,38,0,38,0,1,,,,,,,,,,
,,607251,001,2023-07-31_20h43.58.547,arm3_eps,2022.2.5,MacIntel,60.0024001,611d3cadcee021ae2fa85df3,64c7fed44a04f777bb1e18ce,64c800d3a7ea0453df128353,right,-1,0.75,0.2429,2,0.001204941,0.146,39,0,39,0,1,,,,,,,,,,
,,607251,001,2023-07-31_20h43.58.547,arm3_eps,2022.2.5,MacIntel,60.0024001,611d3cadcee021ae2fa85df3,64c7fed44a04f777bb1e18ce,64c800d3a7ea0453df128353,right,-1,0.75,0.2429,2,0.002780011,0.1821,40,0,40,0,1,,,,,,,,,,
,,607251,001,2023-07-31_20h43.58.547,arm3_eps,2022.2.5,MacIntel,60.0024001,611d3cadcee021ae2fa85df3,64c7fed44a04f777bb1e18ce,64c800d3a7ea0453df128353,right,-1,0.75,0.2429,2,-0.007183099,0.1342,41,0,41,0,1,,,,,,,,,,
,,607251,001,2023-07-31_20h43.58.547,arm3_eps,2022.2.5,MacIntel,60.0024001,611d3cadcee021ae2fa85df3,64c7fed44a04f777bb1e18ce,64c800d3a7ea0453df128353,right,-1,0.75,0.2429,2,-0.027140309,0.1661,42,0,42,0,1,,,,,,,,,,
,,607251,001,2023-07-31_20h43.58.547,arm3_eps,2022.2.5,MacIntel,60.0024001,611d3cadcee021ae2fa85df3,64c7fed44a04f777bb1e18ce,64c800d3a7ea0453df128353,right,-1,0.75,0.2429,2,-0.022636163,0.1654,43,0,43,0,1,,,,,,,,,,
,,607251,001,2023-07-31_20h43.58.547,arm3_eps,2022.2.5,MacIntel,60.0024001,611d3cadcee021ae2fa85df3,64c7fed44a04f777bb1e18ce,64c800d3a7ea0453df128353,right,-1,0.75,0.2429,2,-0.057792696,0.1345,44,0,44,0,1,,,,,,,,,,
,,607251,001,2023-07-31_20h43.58.547,arm3_eps,2022.2.5,MacIntel,60.0024001,611d3cadcee021ae2fa85df3,64c7fed44a04f777bb1e18ce,64c800d3a7ea0453df128353,right,-1,0.75,0.2429,2,-0.054690182,0.1844,45,0,45,0,1,,,,,,,,,,
,,607251,001,2023-07-31_20h43.58.547,arm3_eps,2022.2.5,MacIntel,60.0024001,611d3cadcee021ae2fa85df3,64c7fed44a04f777bb1e18ce,64c800d3a7ea0453df128353,right,-1,0.75,0.2429,2,-0.040281631,0.1689,46,0,46,0,1,,,,,,,,,,
,,607251,001,2023-07-31_20h43.58.547,arm3_eps,2022.2.5,MacIntel,60.0024001,611d3cadcee021ae2fa85df3,64c7fed44a04f777bb1e18ce,64c800d3a7ea0453df128353,down,-1,0.75,0.2429,3,0,0.8318,47,0,47,0,1,,,,,,,,,,
,,607251,001,2023-07-31_20h43.58.547,arm3_eps,2022.2.5,MacIntel,60.0024001,611d3cadcee021ae2fa85df3,64c7fed44a04f777bb1e18ce,64c800d3a7ea0453df128353,right,-1,0.75,0.2429,3,-0.051061245,0.9623,48,0,48,0,1,,,,,,,,,,
,,607251,001,2023-07-31_20h43.58.547,arm3_eps,2022.2.5,MacIntel,60.0024001,611d3cadcee021ae2fa85df3,64c7fed44a04f777bb1e18ce,64c800d3a7ea0453df128353,right,-1,0.75,0.2429,3,-0.069705701,0.2173,49,0,49,0,1,,,,,,,,,,
space,6.2412,607251,001,2023-07-31_20h43.58.547,arm3_eps,2022.2.5,MacIntel,60.0024001,611d3cadcee021ae2fa85df3,64c7fed44a04f777bb1e18ce,64c800d3a7ea0453df128353,,,,,,,,,,,,,,,,,,,,,,
space,36.5638,607251,001,2023-07-31_20h43.58.547,arm3_eps,2022.2.5,MacIntel,60.0024001,611d3cadcee021ae2fa85df3,64c7fed44a04f777bb1e18ce,64c800d3a7ea0453df128353,,,,,,,,,,,,,,,,,,,,,,
space,1.6173,607251,001,2023-07-31_20h43.58.547,arm3_eps,2022.2.5,MacIntel,60.0024001,611d3cadcee021ae2fa85df3,64c7fed44a04f777bb1e18ce,64c800d3a7ea0453df128353,,,,,,,,,,,,,,,,,,,,,,
,,607251,001,2023-07-31_20h43.58.547,arm3_eps,2022.2.5,MacIntel,60.0024001,611d3cadcee021ae2fa85df3,64c7fed44a04f777bb1e18ce,64c800d3a7ea0453df128353,up,-1,0.75,0.05,-1,0,2.2322,0,0,0,0,1,,,,,,,,,,
,,607251,001,2023-07-31_20h43.58.547,arm3_eps,2022.2.5,MacIntel,60.0024001,611d3cadcee021ae2fa85df3,64c7fed44a04f777bb1e18ce,64c800d3a7ea0453df128353,right,-1,0.75,0.05,-1,0.003417475,1.713,1,0,1,0,1,,,,,,,,,,
,,607251,001,2023-07-31_20h43.58.547,arm3_eps,2022.2.5,MacIntel,60.0024001,611d3cadcee021ae2fa85df3,64c7fed44a04f777bb1e18ce,64c800d3a7ea0453df128353,right,-1,0.75,0.05,-1,0.006735885,0.2313,2,0,2,0,1,,,,,,,,,,
,,607251,001,2023-07-31_20h43.58.547,arm3_eps,2022.2.5,MacIntel,60.0024001,611d3cadcee021ae2fa85df3,64c7fed44a04f777bb1e18ce,64c800d3a7ea0453df128353,right,-1,0.75,0.05,-1,-0.004440122,0.2019,3,0,3,0,1,,,,,,,,,,
,,607251,001,2023-07-31_20h43.58.547,arm3_eps,2022.2.5,MacIntel,60.0024001,611d3cadcee021ae2fa85df3,64c7fed44a04f777bb1e18ce,64c800d3a7ea0453df128353,right,-1,0.75,0.05,-1,-0.006717671,0.1818,4,0,4,0,1,,,,,,,,,,
,,607251,001,2023-07-31_20h43.58.547,arm3_eps,2022.2.5,MacIntel,60.0024001,611d3cadcee021ae2fa85df3,64c7fed44a04f777bb1e18ce,64c800d3a7ea0453df128353,right,-1,0.75,0.05,-1,-0.031226543,0.1865,5,0,5,0,1,,,,,,,,,,
,,607251,001,2023-07-31_20h43.58.547,arm3_eps,2022.2.5,MacIntel,60.0024001,611d3cadcee021ae2fa85df3,64c7fed44a04f777bb1e18ce,64c800d3a7ea0453df128353,right,-1,0.75,0.05,-1,-0.056039009,0.1667,6,0,6,0,1,,,,,,,,,,
,,607251,001,2023-07-31_20h43.58.547,arm3_eps,2022.2.5,MacIntel,60.0024001,611d3cadcee021ae2fa85df3,64c7fed44a04f777bb1e18ce,64c800d3a7ea0453df128353,down,-1,0.75,0.05,-1,0,0.9831,7,0,7,0,1,,,,,,,,,,
,,607251,001,2023-07-31_20h43.58.547,arm3_eps,2022.2.5,MacIntel,60.0024001,611d3cadcee021ae2fa85df3,64c7fed44a04f777bb1e18ce,64c800d3a7ea0453df128353,right,-1,0.75,0.05,-1,-0.013686482,1.3141,8,0,8,0,1,,,,,,,,,,
,,607251,001,2023-07-31_20h43.58.547,arm3_eps,2022.2.5,MacIntel,60.0024001,611d3cadcee021ae2fa85df3,64c7fed44a04f777bb1e18ce,64c800d3a7ea0453df128353,right,-1,0.75,0.05,-1,-0.039378242,0.1987,9,0,9,0,1,,,,,,,,,,
,,607251,001,2023-07-31_20h43.58.547,arm3_eps,2022.2.5,MacIntel,60.0024001,611d3cadcee021ae2fa85df3,64c7fed44a04f777bb1e18ce,64c800d3a7ea0453df128353,right,-1,0.75,0.05,-1,-0.062136371,0.1507,10,0,10,0,1,,,,,,,,,,
,,607251,001,2023-07-31_20h43.58.547,arm3_eps,2022.2.5,MacIntel,60.0024001,611d3cadcee021ae2fa85df3,64c7fed44a04f777bb1e18ce,64c800d3a7ea0453df128353,right,-1,0.75,0.05,-1,-0.047182161,0.1498,11,0,11,0,1,,,,,,,,,,
,,607251,001,2023-07-31_20h43.58.547,arm3_eps,2022.2.5,MacIntel,60.0024001,611d3cadcee021ae2fa85df3,64c7fed44a04f777bb1e18ce,64c800d3a7ea0453df128353,right,-1,0.75,0.05,-1,-0.055959208,0.1491,12,0,12,0,1,,,,,,,,,,
,,607251,001,2023-07-31_20h43.58.547,arm3_eps,2022.2.5,MacIntel,60.0024001,611d3cadcee021ae2fa85df3,64c7fed44a04f777bb1e18ce,64c800d3a7ea0453df128353,right,-1,0.75,0.05,-1,-0.08581257,0.1468,13,0,13,0,1,,,,,,,,,,
,,607251,001,2023-07-31_20h43.58.547,arm3_eps,2022.2.5,MacIntel,60.0024001,611d3cadcee021ae2fa85df3,64c7fed44a04f777bb1e18ce,64c800d3a7ea0453df128353,right,-1,0.75,0.05,-1,-0.06985089,0.1654,14,0,14,0,1,,,,,,,,,,
,,607251,001,2023-07-31_20h43.58.547,arm3_eps,2022.2.5,MacIntel,60.0024001,611d3cadcee021ae2fa85df3,64c7fed44a04f777bb1e18ce,64c800d3a7ea0453df128353,down,-1,0.75,0.05,0,0,0.665,15,0,15,0,1,,,,,,,,,,
,,607251,001,2023-07-31_20h43.58.547,arm3_eps,2022.2.5,MacIntel,60.0024001,611d3cadcee021ae2fa85df3,64c7fed44a04f777bb1e18ce,64c800d3a7ea0453df128353,right,-1,0.75,0.05,0,-0.012409287,0.9658,16,0,16,0,1,,,,,,,,,,
,,607251,001,2023-07-31_20h43.58.547,arm3_eps,2022.2.5,MacIntel,60.0024001,611d3cadcee021ae2fa85df3,64c7fed44a04f777bb1e18ce,64c800d3a7ea0453df128353,right,-1,0.75,0.05,0,-0.000837398,0.2172,17,0,17,0,1,,,,,,,,,,
,,607251,001,2023-07-31_20h43.58.547,arm3_eps,2022.2.5,MacIntel,60.0024001,611d3cadcee021ae2fa85df3,64c7fed44a04f777bb1e18ce,64c800d3a7ea0453df128353,right,-1,0.75,0.05,0,-0.003875035,0.1502,18,0,18,0,1,,,,,,,,,,
,,607251,001,2023-07-31_20h43.58.547,arm3_eps,2022.2.5,MacIntel,60.0024001,611d3cadcee021ae2fa85df3,64c7fed44a04f777bb1e18ce,64c800d3a7ea0453df128353,right,-1,0.75,0.05,0,0.0139545,0.1489,19,0,19,0,1,,,,,,,,,,
,,607251,001,2023-07-31_20h43.58.547,arm3_eps,2022.2.5,MacIntel,60.0024001,611d3cadcee021ae2fa85df3,64c7fed44a04f777bb1e18ce,64c800d3a7ea0453df128353,right,-1,0.75,0.05,0,0.009297365,0.1656,20,0,20,0,1,,,,,,,,,,
,,607251,001,2023-07-31_20h43.58.547,arm3_eps,2022.2.5,MacIntel,60.0024001,611d3cadcee021ae2fa85df3,64c7fed44a04f777bb1e18ce,64c800d3a7ea0453df128353,up,-1,0.75,0.05,0,0,0.6665,21,0,21,0,1,,,,,,,,,,
,,607251,001,2023-07-31_20h43.58.547,arm3_eps,2022.2.5,MacIntel,60.0024001,611d3cadcee021ae2fa85df3,64c7fed44a04f777bb1e18ce,64c800d3a7ea0453df128353,right,-1,0.75,0.05,0,-0.004718581,1.0135,22,0,22,0,1,,,,,,,,,,
,,607251,001,2023-07-31_20h43.58.547,arm3_eps,2022.2.5,MacIntel,60.0024001,611d3cadcee021ae2fa85df3,64c7fed44a04f777bb1e18ce,64c800d3a7ea0453df128353,right,-1,0.75,0.05,0,-0.026092504,0.1812,23,0,23,0,1,,,,,,,,,,
,,607251,001,2023-07-31_20h43.58.547,arm3_eps,2022.2.5,MacIntel,60.0024001,611d3cadcee021ae2fa85df3,64c7fed44a04f777bb1e18ce,64c800d3a7ea0453df128353,right,-1,0.75,0.05,0,-0.040931277,0.1491,24,0,24,0,1,,,,,,,,,,
,,607251,001,2023-07-31_20h43.58.547,arm3_eps,2022.2.5,MacIntel,60.0024001,611d3cadcee021ae2fa85df3,64c7fed44a04f777bb1e18ce,64c800d3a7ea0453df128353,right,-1,0.75,0.05,0,-0.027570958,0.1487,25,0,25,0,1,,,,,,,,,,
,,607251,001,2023-07-31_20h43.58.547,arm3_eps,2022.2.5,MacIntel,60.0024001,611d3cadcee021ae2fa85df3,64c7fed44a04f777bb1e18ce,64c800d3a7ea0453df128353,right,-1,0.75,0.05,0,-0.047706952,0.1658,26,0,26,0,1,,,,,,,,,,
,,607251,001,2023-07-31_20h43.58.547,arm3_eps,2022.2.5,MacIntel,60.0024001,611d3cadcee021ae2fa85df3,64c7fed44a04f777bb1e18ce,64c800d3a7ea0453df128353,right,-1,0.75,0.05,0,-0.055297854,0.1846,27,0,27,0,1,,,,,,,,,,
,,607251,001,2023-07-31_20h43.58.547,arm3_eps,2022.2.5,MacIntel,60.0024001,611d3cadcee021ae2fa85df3,64c7fed44a04f777bb1e18ce,64c800d3a7ea0453df128353,down,-1,0.75,0.05,0,0,1.4622,28,0,28,0,1,,,,,,,,,,
,,607251,001,2023-07-31_20h43.58.547,arm3_eps,2022.2.5,MacIntel,60.0024001,611d3cadcee021ae2fa85df3,64c7fed44a04f777bb1e18ce,64c800d3a7ea0453df128353,right,-1,0.75,0.05,0,-0.02390007,0.7846,29,0,29,0,1,,,,,,,,,,
,,607251,001,2023-07-31_20h43.58.547,arm3_eps,2022.2.5,MacIntel,60.0024001,611d3cadcee021ae2fa85df3,64c7fed44a04f777bb1e18ce,64c800d3a7ea0453df128353,right,-1,0.75,0.05,0,-0.046978474,0.2001,30,0,30,0,1,,,,,,,,,,
,,607251,001,2023-07-31_20h43.58.547,arm3_eps,2022.2.5,MacIntel,60.0024001,611d3cadcee021ae2fa85df3,64c7fed44a04f777bb1e18ce,64c800d3a7ea0453df128353,right,-1,0.75,0.05,0,-0.056325859,0.1646,31,0,31,0,1,,,,,,,,,,
,,607251,001,2023-07-31_20h43.58.547,arm3_eps,2022.2.5,MacIntel,60.0024001,611d3cadcee021ae2fa85df3,64c7fed44a04f777bb1e18ce,64c800d3a7ea0453df128353,down,-1,0.75,0.05,1,0,0.5157,32,0,32,0,1,,,,,,,,,,
,,607251,001,2023-07-31_20h43.58.547,arm3_eps,2022.2.5,MacIntel,60.0024001,611d3cadcee021ae2fa85df3,64c7fed44a04f777bb1e18ce,64c800d3a7ea0453df128353,right,-1,0.75,0.05,1,0.002470466,1.0134,33,0,33,0,1,,,,,,,,,,
,,607251,001,2023-07-31_20h43.58.547,arm3_eps,2022.2.5,MacIntel,60.0024001,611d3cadcee021ae2fa85df3,64c7fed44a04f777bb1e18ce,64c800d3a7ea0453df128353,right,-1,0.75,0.05,1,-0.003170548,0.2661,34,0,34,0,1,,,,,,,,,,
,,607251,001,2023-07-31_20h43.58.547,arm3_eps,2022.2.5,MacIntel,60.0024001,611d3cadcee021ae2fa85df3,64c7fed44a04f777bb1e18ce,64c800d3a7ea0453df128353,right,-1,0.75,0.05,1,-0.013533033,0.1842,35,0,35,0,1,,,,,,,,,,
,,607251,001,2023-07-31_20h43.58.547,arm3_eps,2022.2.5,MacIntel,60.0024001,611d3cadcee021ae2fa85df3,64c7fed44a04f777bb1e18ce,64c800d3a7ea0453df128353,down,-1,0.75,0.05,2,0,1.3519,36,0,36,0,1,,,,,,,,,,
,,607251,001,2023-07-31_20h43.58.547,arm3_eps,2022.2.5,MacIntel,60.0024001,611d3cadcee021ae2fa85df3,64c7fed44a04f777bb1e18ce,64c800d3a7ea0453df128353,right,-1,0.75,0.05,2,-0.000559849,0.8484,37,0,37,0,1,,,,,,,,,,
,,607251,001,2023-07-31_20h43.58.547,arm3_eps,2022.2.5,MacIntel,60.0024001,611d3cadcee021ae2fa85df3,64c7fed44a04f777bb1e18ce,64c800d3a7ea0453df128353,right,-1,0.75,0.05,2,0.009014144,0.1993,38,0,38,0,1,,,,,,,,,,
,,607251,001,2023-07-31_20h43.58.547,arm3_eps,2022.2.5,MacIntel,60.0024001,611d3cadcee021ae2fa85df3,64c7fed44a04f777bb1e18ce,64c800d3a7ea0453df128353,right,-1,0.75,0.05,2,-0.020725176,0.6834,39,0,39,0,1,,,,,,,,,,
,,607251,001,2023-07-31_20h43.58.547,arm3_eps,2022.2.5,MacIntel,60.0024001,611d3cadcee021ae2fa85df3,64c7fed44a04f777bb1e18ce,64c800d3a7ea0453df128353,down,-1,0.75,0.05,3,0,0.4681,40,0,40,0,1,,,,,,,,,,
,,607251,001,2023-07-31_20h43.58.547,arm3_eps,2022.2.5,MacIntel,60.0024001,611d3cadcee021ae2fa85df3,64c7fed44a04f777bb1e18ce,64c800d3a7ea0453df128353,right,-1,0.75,0.05,3,0.021791842,0.8807,41,0,41,0,1,,,,,,,,,,
,,607251,001,2023-07-31_20h43.58.547,arm3_eps,2022.2.5,MacIntel,60.0024001,611d3cadcee021ae2fa85df3,64c7fed44a04f777bb1e18ce,64c800d3a7ea0453df128353,right,-1,0.75,0.05,3,0.013808619,0.2984,42,0,42,0,1,,,,,,,,,,
,,607251,001,2023-07-31_20h43.58.547,arm3_eps,2022.2.5,MacIntel,60.0024001,611d3cadcee021ae2fa85df3,64c7fed44a04f777bb1e18ce,64c800d3a7ea0453df128353,down,-1,0.75,0.05,4,0,0.7815,43,0,43,0,1,,,,,,,,,,
,,607251,001,2023-07-31_20h43.58.547,arm3_eps,2022.2.5,MacIntel,60.0024001,611d3cadcee021ae2fa85df3,64c7fed44a04f777bb1e18ce,64c800d3a7ea0453df128353,right,-1,0.75,0.05,4,0.002291751,1.0133,44,0,44,0,1,,,,,,,,,,
,,607251,001,2023-07-31_20h43.58.547,arm3_eps,2022.2.5,MacIntel,60.0024001,611d3cadcee021ae2fa85df3,64c7fed44a04f777bb1e18ce,64c800d3a7ea0453df128353,down,-1,0.75,0.05,5,0,0.5502,45,0,45,0,1,,,,,,,,,,
,,607251,001,2023-07-31_20h43.58.547,arm3_eps,2022.2.5,MacIntel,60.0024001,611d3cadcee021ae2fa85df3,64c7fed44a04f777bb1e18ce,64c800d3a7ea0453df128353,right,-1,0.75,0.05,5,-0.01326076,0.947,46,0,46,0,1,,,,,,,,,,
,,607251,001,2023-07-31_20h43.58.547,arm3_eps,2022.2.5,MacIntel,60.0024001,611d3cadcee021ae2fa85df3,64c7fed44a04f777bb1e18ce,64c800d3a7ea0453df128353,right,-1,0.75,0.05,5,-0.015068476,0.8701,47,0,47,0,1,,,,,,,,,,
,,607251,001,2023-07-31_20h43.58.547,arm3_eps,2022.2.5,MacIntel,60.0024001,611d3cadcee021ae2fa85df3,64c7fed44a04f777bb1e18ce,64c800d3a7ea0453df128353,down,-1,0.75,0.05,6,0,0.5838,48,0,48,0,1,,,,,,,,,,
,,607251,001,2023-07-31_20h43.58.547,arm3_eps,2022.2.5,MacIntel,60.0024001,611d3cadcee021ae2fa85df3,64c7fed44a04f777bb1e18ce,64c800d3a7ea0453df128353,right,-1,0.75,0.05,6,0.01830815,0.9009,49,0,49,0,1,,,,,,,,,,
space,22.7783,607251,001,2023-07-31_20h43.58.547,arm3_eps,2022.2.5,MacIntel,60.0024001,611d3cadcee021ae2fa85df3,64c7fed44a04f777bb1e18ce,64c800d3a7ea0453df128353,,,,,,,,,,,,,,,,,,,,,,
space,1.3669,607251,001,2023-07-31_20h43.58.547,arm3_eps,2022.2.5,MacIntel,60.0024001,611d3cadcee021ae2fa85df3,64c7fed44a04f777bb1e18ce,64c800d3a7ea0453df128353,,,,,,,,,,,,,,,,,,,,,,
,,607251,001,2023-07-31_20h43.58.547,arm3_eps,2022.2.5,MacIntel,60.0024001,611d3cadcee021ae2fa85df3,64c7fed44a04f777bb1e18ce,64c800d3a7ea0453df128353,up,1,0.75,0.5,0,0,1.8497,0,0,0,0,1,,,,,,,,,,
,,607251,001,2023-07-31_20h43.58.547,arm3_eps,2022.2.5,MacIntel,60.0024001,611d3cadcee021ae2fa85df3,64c7fed44a04f777bb1e18ce,64c800d3a7ea0453df128353,up,1,0.75,0.5,1,0,1.6958,1,0,1,0,1,,,,,,,,,,
,,607251,001,2023-07-31_20h43.58.547,arm3_eps,2022.2.5,MacIntel,60.0024001,611d3cadcee021ae2fa85df3,64c7fed44a04f777bb1e18ce,64c800d3a7ea0453df128353,up,1,0.75,0.5,2,0,1.1463,2,0,2,0,1,,,,,,,,,,
,,607251,001,2023-07-31_20h43.58.547,arm3_eps,2022.2.5,MacIntel,60.0024001,611d3cadcee021ae2fa85df3,64c7fed44a04f777bb1e18ce,64c800d3a7ea0453df128353,up,-1,0.75,0.5,2,0,1.2479,3,0,3,0,1,,,,,,,,,,
,,607251,001,2023-07-31_20h43.58.547,arm3_eps,2022.2.5,MacIntel,60.0024001,611d3cadcee021ae2fa85df3,64c7fed44a04f777bb1e18ce,64c800d3a7ea0453df128353,up,-1,0.75,0.5,2,0,1.5149,4,0,4,0,1,,,,,,,,,,
,,607251,001,2023-07-31_20h43.58.547,arm3_eps,2022.2.5,MacIntel,60.0024001,611d3cadcee021ae2fa85df3,64c7fed44a04f777bb1e18ce,64c800d3a7ea0453df128353,down,-1,0.75,0.5,3,0,1.3124,5,0,5,0,1,,,,,,,,,,
,,607251,001,2023-07-31_20h43.58.547,arm3_eps,2022.2.5,MacIntel,60.0024001,611d3cadcee021ae2fa85df3,64c7fed44a04f777bb1e18ce,64c800d3a7ea0453df128353,down,-1,0.75,0.5,3,0,3.9796,6,0,6,0,1,,,,,,,,,,
,,607251,001,2023-07-31_20h43.58.547,arm3_eps,2022.2.5,MacIntel,60.0024001,611d3cadcee021ae2fa85df3,64c7fed44a04f777bb1e18ce,64c800d3a7ea0453df128353,up,1,0.75,0.5,2,0,1.3693,7,0,7,0,1,,,,,,,,,,
,,607251,001,2023-07-31_20h43.58.547,arm3_eps,2022.2.5,MacIntel,60.0024001,611d3cadcee021ae2fa85df3,64c7fed44a04f777bb1e18ce,64c800d3a7ea0453df128353,down,-1,0.75,0.5,1,0,1.2647,8,0,8,0,1,,,,,,,,,,
,,607251,001,2023-07-31_20h43.58.547,arm3_eps,2022.2.5,MacIntel,60.0024001,611d3cadcee021ae2fa85df3,64c7fed44a04f777bb1e18ce,64c800d3a7ea0453df128353,up,1,0.75,0.5,0,0,1.498,9,0,9,0,1,,,,,,,,,,
,,607251,001,2023-07-31_20h43.58.547,arm3_eps,2022.2.5,MacIntel,60.0024001,611d3cadcee021ae2fa85df3,64c7fed44a04f777bb1e18ce,64c800d3a7ea0453df128353,right,1,0.75,0.5,0,-0.015762517,1.1308,10,0,10,0,1,,,,,,,,,,
,,607251,001,2023-07-31_20h43.58.547,arm3_eps,2022.2.5,MacIntel,60.0024001,611d3cadcee021ae2fa85df3,64c7fed44a04f777bb1e18ce,64c800d3a7ea0453df128353,up,1,0.75,0.5,1,0,0.6989,11,0,11,0,1,,,,,,,,,,
,,607251,001,2023-07-31_20h43.58.547,arm3_eps,2022.2.5,MacIntel,60.0024001,611d3cadcee021ae2fa85df3,64c7fed44a04f777bb1e18ce,64c800d3a7ea0453df128353,down,-1,0.75,0.5,0,0,2.4447,12,0,12,0,1,,,,,,,,,,
,,607251,001,2023-07-31_20h43.58.547,arm3_eps,2022.2.5,MacIntel,60.0024001,611d3cadcee021ae2fa85df3,64c7fed44a04f777bb1e18ce,64c800d3a7ea0453df128353,right,-1,0.75,0.5,0,-0.013567481,1.3815,13,0,13,0,1,,,,,,,,,,
,,607251,001,2023-07-31_20h43.58.547,arm3_eps,2022.2.5,MacIntel,60.0024001,611d3cadcee021ae2fa85df3,64c7fed44a04f777bb1e18ce,64c800d3a7ea0453df128353,down,-1,0.75,0.5,1,0,0.8348,14,0,14,0,1,,,,,,,,,,
,,607251,001,2023-07-31_20h43.58.547,arm3_eps,2022.2.5,MacIntel,60.0024001,611d3cadcee021ae2fa85df3,64c7fed44a04f777bb1e18ce,64c800d3a7ea0453df128353,right,-1,0.75,0.5,1,-0.027484653,1.3128,15,0,15,0,1,,,,,,,,,,
,,607251,001,2023-07-31_20h43.58.547,arm3_eps,2022.2.5,MacIntel,60.0024001,611d3cadcee021ae2fa85df3,64c7fed44a04f777bb1e18ce,64c800d3a7ea0453df128353,down,1,0.75,0.5,2,0,0.8976,16,0,16,0,1,,,,,,,,,,
,,607251,001,2023-07-31_20h43.58.547,arm3_eps,2022.2.5,MacIntel,60.0024001,611d3cadcee021ae2fa85df3,64c7fed44a04f777bb1e18ce,64c800d3a7ea0453df128353,down,-1,0.75,0.5,1,0,1.0824,17,0,17,0,1,,,,,,,,,,
,,607251,001,2023-07-31_20h43.58.547,arm3_eps,2022.2.5,MacIntel,60.0024001,611d3cadcee021ae2fa85df3,64c7fed44a04f777bb1e18ce,64c800d3a7ea0453df128353,right,-1,0.75,0.5,1,0.001620998,1.0963,18,0,18,0,1,,,,,,,,,,
,,607251,001,2023-07-31_20h43.58.547,arm3_eps,2022.2.5,MacIntel,60.0024001,611d3cadcee021ae2fa85df3,64c7fed44a04f777bb1e18ce,64c800d3a7ea0453df128353,right,-1,0.75,0.5,1,0.005158548,0.534,19,0,19,0,1,,,,,,,,,,
,,607251,001,2023-07-31_20h43.58.547,arm3_eps,2022.2.5,MacIntel,60.0024001,611d3cadcee021ae2fa85df3,64c7fed44a04f777bb1e18ce,64c800d3a7ea0453df128353,right,-1,0.75,0.5,1,0.000345521,0.4697,20,0,20,0,1,,,,,,,,,,
,,607251,001,2023-07-31_20h43.58.547,arm3_eps,2022.2.5,MacIntel,60.0024001,611d3cadcee021ae2fa85df3,64c7fed44a04f777bb1e18ce,64c800d3a7ea0453df128353,right,-1,0.75,0.5,1,-0.012328207,0.2827,21,0,21,0,1,,,,,,,,,,
,,607251,001,2023-07-31_20h43.58.547,arm3_eps,2022.2.5,MacIntel,60.0024001,611d3cadcee021ae2fa85df3,64c7fed44a04f777bb1e18ce,64c800d3a7ea0453df128353,right,-1,0.75,0.5,1,-0.023016111,0.4167,22,0,22,0,1,,,,,,,,,,
,,607251,001,2023-07-31_20h43.58.547,arm3_eps,2022.2.5,MacIntel,60.0024001,611d3cadcee021ae2fa85df3,64c7fed44a04f777bb1e18ce,64c800d3a7ea0453df128353,down,-1,0.75,0.5,2,0,1.587,23,0,23,0,1,,,,,,,,,,
,,607251,001,2023-07-31_20h43.58.547,arm3_eps,2022.2.5,MacIntel,60.0024001,611d3cadcee021ae2fa85df3,64c7fed44a04f777bb1e18ce,64c800d3a7ea0453df128353,right,-1,0.75,0.5,2,0.020417447,0.8311,24,0,24,0,1,,,,,,,,,,
,,607251,001,2023-07-31_20h43.58.547,arm3_eps,2022.2.5,MacIntel,60.0024001,611d3cadcee021ae2fa85df3,64c7fed44a04f777bb1e18ce,64c800d3a7ea0453df128353,down,1,0.75,0.5,3,0,0.6992,25,0,25,0,1,,,,,,,,,,
,,607251,001,2023-07-31_20h43.58.547,arm3_eps,2022.2.5,MacIntel,60.0024001,611d3cadcee021ae2fa85df3,64c7fed44a04f777bb1e18ce,64c800d3a7ea0453df128353,right,1,0.75,0.5,3,-0.017511235,1.2291,26,0,26,0,1,,,,,,,,,,
,,607251,001,2023-07-31_20h43.58.547,arm3_eps,2022.2.5,MacIntel,60.0024001,611d3cadcee021ae2fa85df3,64c7fed44a04f777bb1e18ce,64c800d3a7ea0453df128353,down,1,0.75,0.5,2,0,0.5652,27,0,27,0,1,,,,,,,,,,
,,607251,001,2023-07-31_20h43.58.547,arm3_eps,2022.2.5,MacIntel,60.0024001,611d3cadcee021ae2fa85df3,64c7fed44a04f777bb1e18ce,64c800d3a7ea0453df128353,right,1,0.75,0.5,2,0.00663752,0.7807,28,0,28,0,1,,,,,,,,,,
,,607251,001,2023-07-31_20h43.58.547,arm3_eps,2022.2.5,MacIntel,60.0024001,611d3cadcee021ae2fa85df3,64c7fed44a04f777bb1e18ce,64c800d3a7ea0453df128353,right,1,0.75,0.5,2,-0.00243407,0.3177,29,0,29,0,1,,,,,,,,,,
,,607251,001,2023-07-31_20h43.58.547,arm3_eps,2022.2.5,MacIntel,60.0024001,611d3cadcee021ae2fa85df3,64c7fed44a04f777bb1e18ce,64c800d3a7ea0453df128353,right,1,0.75,0.5,2,0.000901841,0.4492,30,0,30,0,1,,,,,,,,,,
,,607251,001,2023-07-31_20h43.58.547,arm3_eps,2022.2.5,MacIntel,60.0024001,611d3cadcee021ae2fa85df3,64c7fed44a04f777bb1e18ce,64c800d3a7ea0453df128353,right,1,0.75,0.5,2,-9.00322E-05,0.4665,31,0,31,0,1,,,,,,,,,,
,,607251,001,2023-07-31_20h43.58.547,arm3_eps,2022.2.5,MacIntel,60.0024001,611d3cadcee021ae2fa85df3,64c7fed44a04f777bb1e18ce,64c800d3a7ea0453df128353,right,1,0.75,0.5,2,-0.001900097,0.3159,32,0,32,0,1,,,,,,,,,,
,,607251,001,2023-07-31_20h43.58.547,arm3_eps,2022.2.5,MacIntel,60.0024001,611d3cadcee021ae2fa85df3,64c7fed44a04f777bb1e18ce,64c800d3a7ea0453df128353,right,1,0.75,0.5,2,0.004649288,0.2644,33,0,33,0,1,,,,,,,,,,
,,607251,001,2023-07-31_20h43.58.547,arm3_eps,2022.2.5,MacIntel,60.0024001,611d3cadcee021ae2fa85df3,64c7fed44a04f777bb1e18ce,64c800d3a7ea0453df128353,right,1,0.75,0.5,2,0.012297136,0.4002,34,0,34,0,1,,,,,,,,,,
,,607251,001,2023-07-31_20h43.58.547,arm3_eps,2022.2.5,MacIntel,60.0024001,611d3cadcee021ae2fa85df3,64c7fed44a04f777bb1e18ce,64c800d3a7ea0453df128353,up,-1,0.75,0.5,3,0,0.6824,35,0,35,0,1,,,,,,,,,,
,,607251,001,2023-07-31_20h43.58.547,arm3_eps,2022.2.5,MacIntel,60.0024001,611d3cadcee021ae2fa85df3,64c7fed44a04f777bb1e18ce,64c800d3a7ea0453df128353,right,-1,0.75,0.5,3,0.016561142,0.7962,36,0,36,0,1,,,,,,,,,,
,,607251,001,2023-07-31_20h43.58.547,arm3_eps,2022.2.5,MacIntel,60.0024001,611d3cadcee021ae2fa85df3,64c7fed44a04f777bb1e18ce,64c800d3a7ea0453df128353,right,-1,0.75,0.5,3,0.00950731,0.3989,37,0,37,0,1,,,,,,,,,,
,,607251,001,2023-07-31_20h43.58.547,arm3_eps,2022.2.5,MacIntel,60.0024001,611d3cadcee021ae2fa85df3,64c7fed44a04f777bb1e18ce,64c800d3a7ea0453df128353,right,-1,0.75,0.5,3,0.014256608,0.2148,38,0,38,0,1,,,,,,,,,,
,,607251,001,2023-07-31_20h43.58.547,arm3_eps,2022.2.5,MacIntel,60.0024001,611d3cadcee021ae2fa85df3,64c7fed44a04f777bb1e18ce,64c800d3a7ea0453df128353,up,-1,0.75,0.5,2,0,0.7835,39,0,39,0,1,,,,,,,,,,
,,607251,001,2023-07-31_20h43.58.547,arm3_eps,2022.2.5,MacIntel,60.0024001,611d3cadcee021ae2fa85df3,64c7fed44a04f777bb1e18ce,64c800d3a7ea0453df128353,right,-1,0.75,0.5,2,0.000215916,1.1807,40,0,40,0,1,,,,,,,,,,
,,607251,001,2023-07-31_20h43.58.547,arm3_eps,2022.2.5,MacIntel,60.0024001,611d3cadcee021ae2fa85df3,64c7fed44a04f777bb1e18ce,64c800d3a7ea0453df128353,right,-1,0.75,0.5,2,-0.006462242,0.1824,41,0,41,0,1,,,,,,,,,,
,,607251,001,2023-07-31_20h43.58.547,arm3_eps,2022.2.5,MacIntel,60.0024001,611d3cadcee021ae2fa85df3,64c7fed44a04f777bb1e18ce,64c800d3a7ea0453df128353,right,-1,0.75,0.5,2,-0.038470611,0.1475,42,0,42,0,1,,,,,,,,,,
,,607251,001,2023-07-31_20h43.58.547,arm3_eps,2022.2.5,MacIntel,60.0024001,611d3cadcee021ae2fa85df3,64c7fed44a04f777bb1e18ce,64c800d3a7ea0453df128353,down,1,0.75,0.5,3,0,0.4196,43,0,43,0,1,,,,,,,,,,
,,607251,001,2023-07-31_20h43.58.547,arm3_eps,2022.2.5,MacIntel,60.0024001,611d3cadcee021ae2fa85df3,64c7fed44a04f777bb1e18ce,64c800d3a7ea0453df128353,right,1,0.75,0.5,3,0.001558768,0.7964,44,0,44,0,1,,,,,,,,,,
,,607251,001,2023-07-31_20h43.58.547,arm3_eps,2022.2.5,MacIntel,60.0024001,611d3cadcee021ae2fa85df3,64c7fed44a04f777bb1e18ce,64c800d3a7ea0453df128353,right,1,0.75,0.5,3,0.016016032,0.1995,45,0,45,0,1,,,,,,,,,,
,,607251,001,2023-07-31_20h43.58.547,arm3_eps,2022.2.5,MacIntel,60.0024001,611d3cadcee021ae2fa85df3,64c7fed44a04f777bb1e18ce,64c800d3a7ea0453df128353,up,-1,0.75,0.5,4,0,0.4991,46,0,46,0,1,,,,,,,,,,
,,607251,001,2023-07-31_20h43.58.547,arm3_eps,2022.2.5,MacIntel,60.0024001,611d3cadcee021ae2fa85df3,64c7fed44a04f777bb1e18ce,64c800d3a7ea0453df128353,right,-1,0.75,0.5,4,0.006905912,0.8311,47,0,47,0,1,,,,,,,,,,
,,607251,001,2023-07-31_20h43.58.547,arm3_eps,2022.2.5,MacIntel,60.0024001,611d3cadcee021ae2fa85df3,64c7fed44a04f777bb1e18ce,64c800d3a7ea0453df128353,right,-1,0.75,0.5,4,0.041766428,0.2167,48,0,48,0,1,,,,,,,,,,
,,607251,001,2023-07-31_20h43.58.547,arm3_eps,2022.2.5,MacIntel,60.0024001,611d3cadcee021ae2fa85df3,64c7fed44a04f777bb1e18ce,64c800d3a7ea0453df128353,up,-1,0.75,0.5,4,0.041766428,0.4323,49,0,49,0,1,,,,,,,,,,
space,2.3479,607251,001,2023-07-31_20h43.58.547,arm3_eps,2022.2.5,MacIntel,60.0024001,611d3cadcee021ae2fa85df3,64c7fed44a04f777bb1e18ce,64c800d3a7ea0453df128353,,,,,,,,,,,,,,,,,,,,,,
space,5.7008,607251,001,2023-07-31_20h43.58.547,arm3_eps,2022.2.5,MacIntel,60.0024001,611d3cadcee021ae2fa85df3,64c7fed44a04f777bb1e18ce,64c800d3a7ea0453df128353,right,-1,0.75,0.3714,0,-0.046986726,1.7001,,,,,,0,0,0,0,1,,,,,
,,607251,001,2023-07-31_20h43.58.547,arm3_eps,2022.2.5,MacIntel,60.0024001,611d3cadcee021ae2fa85df3,64c7fed44a04f777bb1e18ce,64c800d3a7ea0453df128353,up,-1,0.75,0.3714,-1,0,0.9179,,,,,,1,0,1,0,1,,,,,
,,607251,001,2023-07-31_20h43.58.547,arm3_eps,2022.2.5,MacIntel,60.0024001,611d3cadcee021ae2fa85df3,64c7fed44a04f777bb1e18ce,64c800d3a7ea0453df128353,down,-1,0.75,0.3714,0,0,2.1966,,,,,,2,0,2,0,1,,,,,
,,607251,001,2023-07-31_20h43.58.547,arm3_eps,2022.2.5,MacIntel,60.0024001,611d3cadcee021ae2fa85df3,64c7fed44a04f777bb1e18ce,64c800d3a7ea0453df128353,up,-1,0.75,0.3714,-1,0,1.4806,,,,,,3,0,3,0,1,,,,,
,,607251,001,2023-07-31_20h43.58.547,arm3_eps,2022.2.5,MacIntel,60.0024001,611d3cadcee021ae2fa85df3,64c7fed44a04f777bb1e18ce,64c800d3a7ea0453df128353,right,-1,0.75,0.3714,-1,-0.011113083,1.4294,,,,,,4,0,4,0,1,,,,,
,,607251,001,2023-07-31_20h43.58.547,arm3_eps,2022.2.5,MacIntel,60.0024001,611d3cadcee021ae2fa85df3,64c7fed44a04f777bb1e18ce,64c800d3a7ea0453df128353,right,-1,0.75,0.3714,-1,0.010604643,0.6815,,,,,,5,0,5,0,1,,,,,
,,607251,001,2023-07-31_20h43.58.547,arm3_eps,2022.2.5,MacIntel,60.0024001,611d3cadcee021ae2fa85df3,64c7fed44a04f777bb1e18ce,64c800d3a7ea0453df128353,right,-1,0.75,0.3714,-1,-0.00045767,0.5316,,,,,,6,0,6,0,1,,,,,
,,607251,001,2023-07-31_20h43.58.547,arm3_eps,2022.2.5,MacIntel,60.0024001,611d3cadcee021ae2fa85df3,64c7fed44a04f777bb1e18ce,64c800d3a7ea0453df128353,right,-1,0.75,0.3714,-1,-0.000241858,0.3175,,,,,,7,0,7,0,1,,,,,
,,607251,001,2023-07-31_20h43.58.547,arm3_eps,2022.2.5,MacIntel,60.0024001,611d3cadcee021ae2fa85df3,64c7fed44a04f777bb1e18ce,64c800d3a7ea0453df128353,right,-1,0.75,0.3714,-1,-0.027637136,0.299,,,,,,8,0,8,0,1,,,,,
,,607251,001,2023-07-31_20h43.58.547,arm3_eps,2022.2.5,MacIntel,60.0024001,611d3cadcee021ae2fa85df3,64c7fed44a04f777bb1e18ce,64c800d3a7ea0453df128353,down,1,0.75,0.3714,0,0,0.6509,,,,,,9,0,9,0,1,,,,,
,,607251,001,2023-07-31_20h43.58.547,arm3_eps,2022.2.5,MacIntel,60.0024001,611d3cadcee021ae2fa85df3,64c7fed44a04f777bb1e18ce,64c800d3a7ea0453df128353,right,1,0.75,0.3714,0,0.013239303,0.7675,,,,,,10,0,10,0,1,,,,,
,,607251,001,2023-07-31_20h43.58.547,arm3_eps,2022.2.5,MacIntel,60.0024001,611d3cadcee021ae2fa85df3,64c7fed44a04f777bb1e18ce,64c800d3a7ea0453df128353,right,1,0.75,0.3714,0,0.040209175,0.1817,,,,,,11,0,11,0,1,,,,,
,,607251,001,2023-07-31_20h43.58.547,arm3_eps,2022.2.5,MacIntel,60.0024001,611d3cadcee021ae2fa85df3,64c7fed44a04f777bb1e18ce,64c800d3a7ea0453df128353,right,1,0.75,0.3714,0,0.015124941,0.4673,,,,,,12,0,12,0,1,,,,,
,,607251,001,2023-07-31_20h43.58.547,arm3_eps,2022.2.5,MacIntel,60.0024001,611d3cadcee021ae2fa85df3,64c7fed44a04f777bb1e18ce,64c800d3a7ea0453df128353,right,1,0.75,0.3714,0,0.022933429,0.1835,,,,,,13,0,13,0,1,,,,,
,,607251,001,2023-07-31_20h43.58.547,arm3_eps,2022.2.5,MacIntel,60.0024001,611d3cadcee021ae2fa85df3,64c7fed44a04f777bb1e18ce,64c800d3a7ea0453df128353,right,1,0.75,0.3714,0,0.032631467,0.1686,,,,,,14,0,14,0,1,,,,,
,,607251,001,2023-07-31_20h43.58.547,arm3_eps,2022.2.5,MacIntel,60.0024001,611d3cadcee021ae2fa85df3,64c7fed44a04f777bb1e18ce,64c800d3a7ea0453df128353,up,-1,0.75,0.3714,1,0,0.4841,,,,,,15,0,15,0,1,,,,,
,,607251,001,2023-07-31_20h43.58.547,arm3_eps,2022.2.5,MacIntel,60.0024001,611d3cadcee021ae2fa85df3,64c7fed44a04f777bb1e18ce,64c800d3a7ea0453df128353,right,-1,0.75,0.3714,1,-0.02483355,0.7651,,,,,,16,0,16,0,1,,,,,
,,607251,001,2023-07-31_20h43.58.547,arm3_eps,2022.2.5,MacIntel,60.0024001,611d3cadcee021ae2fa85df3,64c7fed44a04f777bb1e18ce,64c800d3a7ea0453df128353,right,-1,0.75,0.3714,1,-0.033361188,0.1824,,,,,,17,0,17,0,1,,,,,
,,607251,001,2023-07-31_20h43.58.547,arm3_eps,2022.2.5,MacIntel,60.0024001,611d3cadcee021ae2fa85df3,64c7fed44a04f777bb1e18ce,64c800d3a7ea0453df128353,right,-1,0.75,0.3714,1,-0.080315045,0.1658,,,,,,18,0,18,0,1,,,,,
,,607251,001,2023-07-31_20h43.58.547,arm3_eps,2022.2.5,MacIntel,60.0024001,611d3cadcee021ae2fa85df3,64c7fed44a04f777bb1e18ce,64c800d3a7ea0453df128353,down,-1,0.75,0.3714,1,0,0.4986,,,,,,19,0,19,0,1,,,,,
,,607251,001,2023-07-31_20h43.58.547,arm3_eps,2022.2.5,MacIntel,60.0024001,611d3cadcee021ae2fa85df3,64c7fed44a04f777bb1e18ce,64c800d3a7ea0453df128353,right,-1,0.75,0.3714,1,-0.007880352,0.9816,,,,,,20,0,20,0,1,,,,,
,,607251,001,2023-07-31_20h43.58.547,arm3_eps,2022.2.5,MacIntel,60.0024001,611d3cadcee021ae2fa85df3,64c7fed44a04f777bb1e18ce,64c800d3a7ea0453df128353,right,-1,0.75,0.3714,1,0.002296583,0.1817,,,,,,21,0,21,0,1,,,,,
,,607251,001,2023-07-31_20h43.58.547,arm3_eps,2022.2.5,MacIntel,60.0024001,611d3cadcee021ae2fa85df3,64c7fed44a04f777bb1e18ce,64c800d3a7ea0453df128353,right,-1,0.75,0.3714,1,-0.011139706,0.1665,,,,,,22,0,22,0,1,,,,,
,,607251,001,2023-07-31_20h43.58.547,arm3_eps,2022.2.5,MacIntel,60.0024001,611d3cadcee021ae2fa85df3,64c7fed44a04f777bb1e18ce,64c800d3a7ea0453df128353,right,-1,0.75,0.3714,1,-0.012726812,0.1494,,,,,,23,0,23,0,1,,,,,
,,607251,001,2023-07-31_20h43.58.547,arm3_eps,2022.2.5,MacIntel,60.0024001,611d3cadcee021ae2fa85df3,64c7fed44a04f777bb1e18ce,64c800d3a7ea0453df128353,right,-1,0.75,0.3714,1,-0.02625158,0.1679,,,,,,24,0,24,0,1,,,,,
,,607251,001,2023-07-31_20h43.58.547,arm3_eps,2022.2.5,MacIntel,60.0024001,611d3cadcee021ae2fa85df3,64c7fed44a04f777bb1e18ce,64c800d3a7ea0453df128353,down,-1,0.75,0.3714,2,0,0.5342,,,,,,25,0,25,0,1,,,,,
,,607251,001,2023-07-31_20h43.58.547,arm3_eps,2022.2.5,MacIntel,60.0024001,611d3cadcee021ae2fa85df3,64c7fed44a04f777bb1e18ce,64c800d3a7ea0453df128353,right,-1,0.75,0.3714,2,0.008937173,0.7968,,,,,,26,0,26,0,1,,,,,
,,607251,001,2023-07-31_20h43.58.547,arm3_eps,2022.2.5,MacIntel,60.0024001,611d3cadcee021ae2fa85df3,64c7fed44a04f777bb1e18ce,64c800d3a7ea0453df128353,right,-1,0.75,0.3714,2,0.021267936,0.1834,,,,,,27,0,27,0,1,,,,,
,,607251,001,2023-07-31_20h43.58.547,arm3_eps,2022.2.5,MacIntel,60.0024001,611d3cadcee021ae2fa85df3,64c7fed44a04f777bb1e18ce,64c800d3a7ea0453df128353,right,-1,0.75,0.3714,2,0.01240149,0.1498,,,,,,28,0,28,0,1,,,,,
,,607251,001,2023-07-31_20h43.58.547,arm3_eps,2022.2.5,MacIntel,60.0024001,611d3cadcee021ae2fa85df3,64c7fed44a04f777bb1e18ce,64c800d3a7ea0453df128353,right,-1,0.75,0.3714,2,-0.037694905,0.1659,,,,,,29,0,29,0,1,,,,,
,,607251,001,2023-07-31_20h43.58.547,arm3_eps,2022.2.5,MacIntel,60.0024001,611d3cadcee021ae2fa85df3,64c7fed44a04f777bb1e18ce,64c800d3a7ea0453df128353,right,-1,0.75,0.3714,2,-0.035948276,0.1519,,,,,,30,0,30,0,1,,,,,
,,607251,001,2023-07-31_20h43.58.547,arm3_eps,2022.2.5,MacIntel,60.0024001,611d3cadcee021ae2fa85df3,64c7fed44a04f777bb1e18ce,64c800d3a7ea0453df128353,down,-1,0.75,0.3714,3,0,0.4519,,,,,,31,0,31,0,1,,,,,
,,607251,001,2023-07-31_20h43.58.547,arm3_eps,2022.2.5,MacIntel,60.0024001,611d3cadcee021ae2fa85df3,64c7fed44a04f777bb1e18ce,64c800d3a7ea0453df128353,right,-1,0.75,0.3714,3,-0.01537425,0.7459,,,,,,32,0,32,0,1,,,,,
,,607251,001,2023-07-31_20h43.58.547,arm3_eps,2022.2.5,MacIntel,60.0024001,611d3cadcee021ae2fa85df3,64c7fed44a04f777bb1e18ce,64c800d3a7ea0453df128353,right,-1,0.75,0.3714,3,-0.034290654,0.3163,,,,,,33,0,33,0,1,,,,,
,,607251,001,2023-07-31_20h43.58.547,arm3_eps,2022.2.5,MacIntel,60.0024001,611d3cadcee021ae2fa85df3,64c7fed44a04f777bb1e18ce,64c800d3a7ea0453df128353,right,-1,0.75,0.3714,3,-0.030121558,0.2311,,,,,,34,0,34,0,1,,,,,
,,607251,001,2023-07-31_20h43.58.547,arm3_eps,2022.2.5,MacIntel,60.0024001,611d3cadcee021ae2fa85df3,64c7fed44a04f777bb1e18ce,64c800d3a7ea0453df128353,right,-1,0.75,0.3714,3,-0.006041727,0.1999,,,,,,35,0,35,0,1,,,,,
,,607251,001,2023-07-31_20h43.58.547,arm3_eps,2022.2.5,MacIntel,60.0024001,611d3cadcee021ae2fa85df3,64c7fed44a04f777bb1e18ce,64c800d3a7ea0453df128353,right,-1,0.75,0.3714,3,-0.023297548,0.4528,,,,,,36,0,36,0,1,,,,,
,,607251,001,2023-07-31_20h43.58.547,arm3_eps,2022.2.5,MacIntel,60.0024001,611d3cadcee021ae2fa85df3,64c7fed44a04f777bb1e18ce,64c800d3a7ea0453df128353,right,-1,0.75,0.3714,3,-0.030501856,0.1846,,,,,,37,0,37,0,1,,,,,
,,607251,001,2023-07-31_20h43.58.547,arm3_eps,2022.2.5,MacIntel,60.0024001,611d3cadcee021ae2fa85df3,64c7fed44a04f777bb1e18ce,64c800d3a7ea0453df128353,right,-1,0.75,0.3714,3,-0.05907694,0.1656,,,,,,38,0,38,0,1,,,,,
,,607251,001,2023-07-31_20h43.58.547,arm3_eps,2022.2.5,MacIntel,60.0024001,611d3cadcee021ae2fa85df3,64c7fed44a04f777bb1e18ce,64c800d3a7ea0453df128353,down,1,0.75,0.3714,4,0,0.6664,,,,,,39,0,39,0,1,,,,,
,,607251,001,2023-07-31_20h43.58.547,arm3_eps,2022.2.5,MacIntel,60.0024001,611d3cadcee021ae2fa85df3,64c7fed44a04f777bb1e18ce,64c800d3a7ea0453df128353,right,1,0.75,0.3714,4,0.000299975,0.7144,,,,,,40,0,40,0,1,,,,,
,,607251,001,2023-07-31_20h43.58.547,arm3_eps,2022.2.5,MacIntel,60.0024001,611d3cadcee021ae2fa85df3,64c7fed44a04f777bb1e18ce,64c800d3a7ea0453df128353,right,1,0.75,0.3714,4,0.039218168,0.1827,,,,,,41,0,41,0,1,,,,,
,,607251,001,2023-07-31_20h43.58.547,arm3_eps,2022.2.5,MacIntel,60.0024001,611d3cadcee021ae2fa85df3,64c7fed44a04f777bb1e18ce,64c800d3a7ea0453df128353,right,1,0.75,0.3714,4,0.083353019,0.1818,,,,,,42,0,42,0,1,,,,,
,,607251,001,2023-07-31_20h43.58.547,arm3_eps,2022.2.5,MacIntel,60.0024001,611d3cadcee021ae2fa85df3,64c7fed44a04f777bb1e18ce,64c800d3a7ea0453df128353,up,-1,0.75,0.3714,5,0,0.6509,,,,,,43,0,43,0,1,,,,,
,,607251,001,2023-07-31_20h43.58.547,arm3_eps,2022.2.5,MacIntel,60.0024001,611d3cadcee021ae2fa85df3,64c7fed44a04f777bb1e18ce,64c800d3a7ea0453df128353,right,-1,0.75,0.3714,5,-0.031219572,0.7986,,,,,,44,0,44,0,1,,,,,
,,607251,001,2023-07-31_20h43.58.547,arm3_eps,2022.2.5,MacIntel,60.0024001,611d3cadcee021ae2fa85df3,64c7fed44a04f777bb1e18ce,64c800d3a7ea0453df128353,right,-1,0.75,0.3714,5,-0.024961594,0.2984,,,,,,45,0,45,0,1,,,,,
,,607251,001,2023-07-31_20h43.58.547,arm3_eps,2022.2.5,MacIntel,60.0024001,611d3cadcee021ae2fa85df3,64c7fed44a04f777bb1e18ce,64c800d3a7ea0453df128353,right,-1,0.75,0.3714,5,-0.056132106,0.1678,,,,,,46,0,46,0,1,,,,,
,,607251,001,2023-07-31_20h43.58.547,arm3_eps,2022.2.5,MacIntel,60.0024001,611d3cadcee021ae2fa85df3,64c7fed44a04f777bb1e18ce,64c800d3a7ea0453df128353,down,1,0.75,0.3714,6,0,0.4839,,,,,,47,0,47,0,1,,,,,
,,607251,001,2023-07-31_20h43.58.547,arm3_eps,2022.2.5,MacIntel,60.0024001,611d3cadcee021ae2fa85df3,64c7fed44a04f777bb1e18ce,64c800d3a7ea0453df128353,right,1,0.75,0.3714,6,-0.012748115,0.7318,,,,,,48,0,48,0,1,,,,,
,,607251,001,2023-07-31_20h43.58.547,arm3_eps,2022.2.5,MacIntel,60.0024001,611d3cadcee021ae2fa85df3,64c7fed44a04f777bb1e18ce,64c800d3a7ea0453df128353,right,1,0.75,0.3714,6,0.004254377,0.2,,,,,,49,0,49,0,1,,,,,
,,607251,001,2023-07-31_20h43.58.547,arm3_eps,2022.2.5,MacIntel,60.0024001,611d3cadcee021ae2fa85df3,64c7fed44a04f777bb1e18ce,64c800d3a7ea0453df128353,right,1,0.75,0.3714,6,0.013792184,0.1834,,,,,,50,0,50,0,1,,,,,
,,607251,001,2023-07-31_20h43.58.547,arm3_eps,2022.2.5,MacIntel,60.0024001,611d3cadcee021ae2fa85df3,64c7fed44a04f777bb1e18ce,64c800d3a7ea0453df128353,right,1,0.75,0.3714,6,-0.029341408,0.2499,,,,,,51,0,51,0,1,,,,,
,,607251,001,2023-07-31_20h43.58.547,arm3_eps,2022.2.5,MacIntel,60.0024001,611d3cadcee021ae2fa85df3,64c7fed44a04f777bb1e18ce,64c800d3a7ea0453df128353,right,1,0.75,0.3714,6,0.00951762,0.9195,,,,,,52,0,52,0,1,,,,,
,,607251,001,2023-07-31_20h43.58.547,arm3_eps,2022.2.5,MacIntel,60.0024001,611d3cadcee021ae2fa85df3,64c7fed44a04f777bb1e18ce,64c800d3a7ea0453df128353,right,1,0.75,0.3714,6,0.002224898,0.2161,,,,,,53,0,53,0,1,,,,,
,,607251,001,2023-07-31_20h43.58.547,arm3_eps,2022.2.5,MacIntel,60.0024001,611d3cadcee021ae2fa85df3,64c7fed44a04f777bb1e18ce,64c800d3a7ea0453df128353,right,1,0.75,0.3714,6,-0.006449689,0.4328,,,,,,54,0,54,0,1,,,,,
,,607251,001,2023-07-31_20h43.58.547,arm3_eps,2022.2.5,MacIntel,60.0024001,611d3cadcee021ae2fa85df3,64c7fed44a04f777bb1e18ce,64c800d3a7ea0453df128353,right,1,0.75,0.3714,6,-0.022595516,0.3175,,,,,,55,0,55,0,1,,,,,
,,607251,001,2023-07-31_20h43.58.547,arm3_eps,2022.2.5,MacIntel,60.0024001,611d3cadcee021ae2fa85df3,64c7fed44a04f777bb1e18ce,64c800d3a7ea0453df128353,right,1,0.75,0.3714,6,-0.026737496,0.3154,,,,,,56,0,56,0,1,,,,,
,,607251,001,2023-07-31_20h43.58.547,arm3_eps,2022.2.5,MacIntel,60.0024001,611d3cadcee021ae2fa85df3,64c7fed44a04f777bb1e18ce,64c800d3a7ea0453df128353,right,1,0.75,0.3714,6,-0.019458083,0.466,,,,,,57,0,57,0,1,,,,,
,,607251,001,2023-07-31_20h43.58.547,arm3_eps,2022.2.5,MacIntel,60.0024001,611d3cadcee021ae2fa85df3,64c7fed44a04f777bb1e18ce,64c800d3a7ea0453df128353,right,1,0.75,0.3714,6,0.006553702,0.8335,,,,,,58,0,58,0,1,,,,,
,,607251,001,2023-07-31_20h43.58.547,arm3_eps,2022.2.5,MacIntel,60.0024001,611d3cadcee021ae2fa85df3,64c7fed44a04f777bb1e18ce,64c800d3a7ea0453df128353,up,1,0.75,0.3714,7,0,0.4179,,,,,,59,0,59,0,1,,,,,
,,607251,001,2023-07-31_20h43.58.547,arm3_eps,2022.2.5,MacIntel,60.0024001,611d3cadcee021ae2fa85df3,64c7fed44a04f777bb1e18ce,64c800d3a7ea0453df128353,right,1,0.75,0.3714,7,0.019929611,0.7975,,,,,,60,0,60,0,1,,,,,
,,607251,001,2023-07-31_20h43.58.547,arm3_eps,2022.2.5,MacIntel,60.0024001,611d3cadcee021ae2fa85df3,64c7fed44a04f777bb1e18ce,64c800d3a7ea0453df128353,right,1,0.75,0.3714,7,0.050709114,0.1856,,,,,,61,0,61,0,1,,,,,
,,607251,001,2023-07-31_20h43.58.547,arm3_eps,2022.2.5,MacIntel,60.0024001,611d3cadcee021ae2fa85df3,64c7fed44a04f777bb1e18ce,64c800d3a7ea0453df128353,up,-1,0.75,0.3714,8,0,0.5825,,,,,,62,0,62,0,1,,,,,
,,607251,001,2023-07-31_20h43.58.547,arm3_eps,2022.2.5,MacIntel,60.0024001,611d3cadcee021ae2fa85df3,64c7fed44a04f777bb1e18ce,64c800d3a7ea0453df128353,right,-1,0.75,0.3714,8,-0.015873157,0.7961,,,,,,63,0,63,0,1,,,,,
,,607251,001,2023-07-31_20h43.58.547,arm3_eps,2022.2.5,MacIntel,60.0024001,611d3cadcee021ae2fa85df3,64c7fed44a04f777bb1e18ce,64c800d3a7ea0453df128353,right,-1,0.75,0.3714,8,-0.051129537,0.1845,,,,,,64,0,64,0,1,,,,,
,,607251,001,2023-07-31_20h43.58.547,arm3_eps,2022.2.5,MacIntel,60.0024001,611d3cadcee021ae2fa85df3,64c7fed44a04f777bb1e18ce,64c800d3a7ea0453df128353,down,-1,0.75,0.3714,8,0,0.5162,,,,,,65,0,65,0,1,,,,,
,,607251,001,2023-07-31_20h43.58.547,arm3_eps,2022.2.5,MacIntel,60.0024001,611d3cadcee021ae2fa85df3,64c7fed44a04f777bb1e18ce,64c800d3a7ea0453df128353,right,-1,0.75,0.3714,8,-0.042309193,0.9632,,,,,,66,0,66,0,1,,,,,
,,607251,001,2023-07-31_20h43.58.547,arm3_eps,2022.2.5,MacIntel,60.0024001,611d3cadcee021ae2fa85df3,64c7fed44a04f777bb1e18ce,64c800d3a7ea0453df128353,right,-1,0.75,0.3714,8,-0.055315881,0.2318,,,,,,67,0,67,0,1,,,,,
,,607251,001,2023-07-31_20h43.58.547,arm3_eps,2022.2.5,MacIntel,60.0024001,611d3cadcee021ae2fa85df3,64c7fed44a04f777bb1e18ce,64c800d3a7ea0453df128353,right,-1,0.75,0.3714,8,-0.043711271,0.3523,,,,,,68,0,68,0,1,,,,,
,,607251,001,2023-07-31_20h43.58.547,arm3_eps,2022.2.5,MacIntel,60.0024001,611d3cadcee021ae2fa85df3,64c7fed44a04f777bb1e18ce,64c800d3a7ea0453df128353,right,-1,0.75,0.3714,8,-0.037208902,0.2174,,,,,,69,0,69,0,1,,,,,
,,607251,001,2023-07-31_20h43.58.547,arm3_eps,2022.2.5,MacIntel,60.0024001,611d3cadcee021ae2fa85df3,64c7fed44a04f777bb1e18ce,64c800d3a7ea0453df128353,right,-1,0.75,0.3714,8,-0.053220987,0.1671,,,,,,70,0,70,0,1,,,,,
,,607251,001,2023-07-31_20h43.58.547,arm3_eps,2022.2.5,MacIntel,60.0024001,611d3cadcee021ae2fa85df3,64c7fed44a04f777bb1e18ce,64c800d3a7ea0453df128353,right,-1,0.75,0.3714,8,-0.108794075,0.1459,,,,,,71,0,71,0,1,,,,,
,,607251,001,2023-07-31_20h43.58.547,arm3_eps,2022.2.5,MacIntel,60.0024001,611d3cadcee021ae2fa85df3,64c7fed44a04f777bb1e18ce,64c800d3a7ea0453df128353,down,-1,0.75,0.3714,9,0,0.5158,,,,,,72,0,72,0,1,,,,,
,,607251,001,2023-07-31_20h43.58.547,arm3_eps,2022.2.5,MacIntel,60.0024001,611d3cadcee021ae2fa85df3,64c7fed44a04f777bb1e18ce,64c800d3a7ea0453df128353,right,-1,0.75,0.3714,9,0.034814164,0.7785,,,,,,73,0,73,0,1,,,,,
,,607251,001,2023-07-31_20h43.58.547,arm3_eps,2022.2.5,MacIntel,60.0024001,611d3cadcee021ae2fa85df3,64c7fed44a04f777bb1e18ce,64c800d3a7ea0453df128353,right,-1,0.75,0.3714,9,0.036487298,0.1814,,,,,,74,0,74,0,1,,,,,
,,607251,001,2023-07-31_20h43.58.547,arm3_eps,2022.2.5,MacIntel,60.0024001,611d3cadcee021ae2fa85df3,64c7fed44a04f777bb1e18ce,64c800d3a7ea0453df128353,right,-1,0.75,0.3714,9,0.025580998,0.1865,,,,,,75,0,75,0,1,,,,,
,,607251,001,2023-07-31_20h43.58.547,arm3_eps,2022.2.5,MacIntel,60.0024001,611d3cadcee021ae2fa85df3,64c7fed44a04f777bb1e18ce,64c800d3a7ea0453df128353,right,-1,0.75,0.3714,9,0.012154648,0.307,,,,,,76,0,76,0,1,,,,,
,,607251,001,2023-07-31_20h43.58.547,arm3_eps,2022.2.5,MacIntel,60.0024001,611d3cadcee021ae2fa85df3,64c7fed44a04f777bb1e18ce,64c800d3a7ea0453df128353,right,-1,0.75,0.3714,9,-0.022067254,0.1805,,,,,,77,0,77,0,1,,,,,
,,607251,001,2023-07-31_20h43.58.547,arm3_eps,2022.2.5,MacIntel,60.0024001,611d3cadcee021ae2fa85df3,64c7fed44a04f777bb1e18ce,64c800d3a7ea0453df128353,right,-1,0.75,0.3714,9,-0.012593181,0.1522,,,,,,78,0,78,0,1,,,,,
,,607251,001,2023-07-31_20h43.58.547,arm3_eps,2022.2.5,MacIntel,60.0024001,611d3cadcee021ae2fa85df3,64c7fed44a04f777bb1e18ce,64c800d3a7ea0453df128353,right,-1,0.75,0.3714,9,-0.030833409,0.2173,,,,,,79,0,79,0,1,,,,,
,,607251,001,2023-07-31_20h43.58.547,arm3_eps,2022.2.5,MacIntel,60.0024001,611d3cadcee021ae2fa85df3,64c7fed44a04f777bb1e18ce,64c800d3a7ea0453df128353,right,-1,0.75,0.3714,9,-0.067576439,0.1976,,,,,,80,0,80,0,1,,,,,
,,607251,001,2023-07-31_20h43.58.547,arm3_eps,2022.2.5,MacIntel,60.0024001,611d3cadcee021ae2fa85df3,64c7fed44a04f777bb1e18ce,64c800d3a7ea0453df128353,down,-1,0.75,0.3714,10,0,0.3374,,,,,,81,0,81,0,1,,,,,
,,607251,001,2023-07-31_20h43.58.547,arm3_eps,2022.2.5,MacIntel,60.0024001,611d3cadcee021ae2fa85df3,64c7fed44a04f777bb1e18ce,64c800d3a7ea0453df128353,right,-1,0.75,0.3714,10,0.020200438,0.7645,,,,,,82,0,82,0,1,,,,,
,,607251,001,2023-07-31_20h43.58.547,arm3_eps,2022.2.5,MacIntel,60.0024001,611d3cadcee021ae2fa85df3,64c7fed44a04f777bb1e18ce,64c800d3a7ea0453df128353,right,-1,0.75,0.3714,10,0.058137771,0.1817,,,,,,83,0,83,0,1,,,,,
,,607251,001,2023-07-31_20h43.58.547,arm3_eps,2022.2.5,MacIntel,60.0024001,611d3cadcee021ae2fa85df3,64c7fed44a04f777bb1e18ce,64c800d3a7ea0453df128353,right,-1,0.75,0.3714,10,0.074554257,0.1817,,,,,,84,0,84,0,1,,,,,
,,607251,001,2023-07-31_20h43.58.547,arm3_eps,2022.2.5,MacIntel,60.0024001,611d3cadcee021ae2fa85df3,64c7fed44a04f777bb1e18ce,64c800d3a7ea0453df128353,right,-1,0.75,0.3714,10,0.053793241,0.1492,,,,,,85,0,85,0,1,,,,,
,,607251,001,2023-07-31_20h43.58.547,arm3_eps,2022.2.5,MacIntel,60.0024001,611d3cadcee021ae2fa85df3,64c7fed44a04f777bb1e18ce,64c800d3a7ea0453df128353,right,-1,0.75,0.3714,10,0.046348118,0.1829,,,,,,86,0,86,0,1,,,,,
,,607251,001,2023-07-31_20h43.58.547,arm3_eps,2022.2.5,MacIntel,60.0024001,611d3cadcee021ae2fa85df3,64c7fed44a04f777bb1e18ce,64c800d3a7ea0453df128353,right,-1,0.75,0.3714,10,0.026922952,0.1997,,,,,,87,0,87,0,1,,,,,
,,607251,001,2023-07-31_20h43.58.547,arm3_eps,2022.2.5,MacIntel,60.0024001,611d3cadcee021ae2fa85df3,64c7fed44a04f777bb1e18ce,64c800d3a7ea0453df128353,right,-1,0.75,0.3714,10,0.043691668,0.2003,,,,,,88,0,88,0,1,,,,,
,,607251,001,2023-07-31_20h43.58.547,arm3_eps,2022.2.5,MacIntel,60.0024001,611d3cadcee021ae2fa85df3,64c7fed44a04f777bb1e18ce,64c800d3a7ea0453df128353,right,-1,0.75,0.3714,10,0.027161722,0.1656,,,,,,89,0,89,0,1,,,,,
,,607251,001,2023-07-31_20h43.58.547,arm3_eps,2022.2.5,MacIntel,60.0024001,611d3cadcee021ae2fa85df3,64c7fed44a04f777bb1e18ce,64c800d3a7ea0453df128353,right,-1,0.75,0.3714,10,0.032574461,0.2652,,,,,,90,0,90,0,1,,,,,
,,607251,001,2023-07-31_20h43.58.547,arm3_eps,2022.2.5,MacIntel,60.0024001,611d3cadcee021ae2fa85df3,64c7fed44a04f777bb1e18ce,64c800d3a7ea0453df128353,right,-1,0.75,0.3714,10,0.034764747,0.2662,,,,,,91,0,91,0,1,,,,,
,,607251,001,2023-07-31_20h43.58.547,arm3_eps,2022.2.5,MacIntel,60.0024001,611d3cadcee021ae2fa85df3,64c7fed44a04f777bb1e18ce,64c800d3a7ea0453df128353,right,-1,0.75,0.3714,10,0.033849619,0.2153,,,,,,92,0,92,0,1,,,,,
,,607251,001,2023-07-31_20h43.58.547,arm3_eps,2022.2.5,MacIntel,60.0024001,611d3cadcee021ae2fa85df3,64c7fed44a04f777bb1e18ce,64c800d3a7ea0453df128353,down,-1,0.75,0.3714,11,0,0.383,,,,,,93,0,93,0,1,,,,,
,,607251,001,2023-07-31_20h43.58.547,arm3_eps,2022.2.5,MacIntel,60.0024001,611d3cadcee021ae2fa85df3,64c7fed44a04f777bb1e18ce,64c800d3a7ea0453df128353,right,-1,0.75,0.3714,11,0.031379498,0.9145,,,,,,94,0,94,0,1,,,,,
,,607251,001,2023-07-31_20h43.58.547,arm3_eps,2022.2.5,MacIntel,60.0024001,611d3cadcee021ae2fa85df3,64c7fed44a04f777bb1e18ce,64c800d3a7ea0453df128353,right,-1,0.75,0.3714,11,-0.001934941,0.2154,,,,,,95,0,95,0,1,,,,,
,,607251,001,2023-07-31_20h43.58.547,arm3_eps,2022.2.5,MacIntel,60.0024001,611d3cadcee021ae2fa85df3,64c7fed44a04f777bb1e18ce,64c800d3a7ea0453df128353,right,-1,0.75,0.3714,11,0.015547911,0.1507,,,,,,96,0,96,0,1,,,,,
,,607251,001,2023-07-31_20h43.58.547,arm3_eps,2022.2.5,MacIntel,60.0024001,611d3cadcee021ae2fa85df3,64c7fed44a04f777bb1e18ce,64c800d3a7ea0453df128353,right,-1,0.75,0.3714,11,0.009812696,0.1502,,,,,,97,0,97,0,1,,,,,
,,607251,001,2023-07-31_20h43.58.547,arm3_eps,2022.2.5,MacIntel,60.0024001,611d3cadcee021ae2fa85df3,64c7fed44a04f777bb1e18ce,64c800d3a7ea0453df128353,right,-1,0.75,0.3714,11,0.008681659,0.1665,,,,,,98,0,98,0,1,,,,,
,,607251,001,2023-07-31_20h43.58.547,arm3_eps,2022.2.5,MacIntel,60.0024001,611d3cadcee021ae2fa85df3,64c7fed44a04f777bb1e18ce,64c800d3a7ea0453df128353,right,-1,0.75,0.3714,11,0.008136787,0.1984,,,,,,99,0,99,0,1,,,,,
,,607251,001,2023-07-31_20h43.58.547,arm3_eps,2022.2.5,MacIntel,60.0024001,611d3cadcee021ae2fa85df3,64c7fed44a04f777bb1e18ce,64c800d3a7ea0453df128353,right,-1,0.75,0.3714,11,-0.026350189,0.2323,,,,,,100,0,100,0,1,,,,,
,,607251,001,2023-07-31_20h43.58.547,arm3_eps,2022.2.5,MacIntel,60.0024001,611d3cadcee021ae2fa85df3,64c7fed44a04f777bb1e18ce,64c800d3a7ea0453df128353,down,1,0.75,0.3714,12,0,0.4503,,,,,,101,0,101,0,1,,,,,
,,607251,001,2023-07-31_20h43.58.547,arm3_eps,2022.2.5,MacIntel,60.0024001,611d3cadcee021ae2fa85df3,64c7fed44a04f777bb1e18ce,64c800d3a7ea0453df128353,right,1,0.75,0.3714,12,0.009680384,0.7147,,,,,,102,0,102,0,1,,,,,
,,607251,001,2023-07-31_20h43.58.547,arm3_eps,2022.2.5,MacIntel,60.0024001,611d3cadcee021ae2fa85df3,64c7fed44a04f777bb1e18ce,64c800d3a7ea0453df128353,right,1,0.75,0.3714,12,0.02196521,0.1872,,,,,,103,0,103,0,1,,,,,
,,607251,001,2023-07-31_20h43.58.547,arm3_eps,2022.2.5,MacIntel,60.0024001,611d3cadcee021ae2fa85df3,64c7fed44a04f777bb1e18ce,64c800d3a7ea0453df128353,right,1,0.75,0.3714,12,0.024594217,0.1669,,,,,,104,0,104,0,1,,,,,
,,607251,001,2023-07-31_20h43.58.547,arm3_eps,2022.2.5,MacIntel,60.0024001,611d3cadcee021ae2fa85df3,64c7fed44a04f777bb1e18ce,64c800d3a7ea0453df128353,right,1,0.75,0.3714,12,0.063308791,0.1657,,,,,,105,0,105,0,1,,,,,
,,607251,001,2023-07-31_20h43.58.547,arm3_eps,2022.2.5,MacIntel,60.0024001,611d3cadcee021ae2fa85df3,64c7fed44a04f777bb1e18ce,64c800d3a7ea0453df128353,right,1,0.75,0.3714,12,0.063299718,0.1656,,,,,,106,0,106,0,1,,,,,
,,607251,001,2023-07-31_20h43.58.547,arm3_eps,2022.2.5,MacIntel,60.0024001,611d3cadcee021ae2fa85df3,64c7fed44a04f777bb1e18ce,64c800d3a7ea0453df128353,up,1,0.75,0.3714,13,0,0.6825,,,,,,107,0,107,0,1,,,,,
,,607251,001,2023-07-31_20h43.58.547,arm3_eps,2022.2.5,MacIntel,60.0024001,611d3cadcee021ae2fa85df3,64c7fed44a04f777bb1e18ce,64c800d3a7ea0453df128353,right,1,0.75,0.3714,13,0.005995236,0.4473,,,,,,108,0,108,0,1,,,,,
,,607251,001,2023-07-31_20h43.58.547,arm3_eps,2022.2.5,MacIntel,60.0024001,611d3cadcee021ae2fa85df3,64c7fed44a04f777bb1e18ce,64c800d3a7ea0453df128353,right,1,0.75,0.3714,13,-0.004321644,0.2478,,,,,,109,0,109,0,1,,,,,
,,607251,001,2023-07-31_20h43.58.547,arm3_eps,2022.2.5,MacIntel,60.0024001,611d3cadcee021ae2fa85df3,64c7fed44a04f777bb1e18ce,64c800d3a7ea0453df128353,right,1,0.75,0.3714,13,0.027359388,0.3175,,,,,,110,0,110,0,1,,,,,
,,607251,001,2023-07-31_20h43.58.547,arm3_eps,2022.2.5,MacIntel,60.0024001,611d3cadcee021ae2fa85df3,64c7fed44a04f777bb1e18ce,64c800d3a7ea0453df128353,right,1,0.75,0.3714,13,0.05768778,0.1997,,,,,,111,0,111,0,1,,,,,
,,607251,001,2023-07-31_20h43.58.547,arm3_eps,2022.2.5,MacIntel,60.0024001,611d3cadcee021ae2fa85df3,64c7fed44a04f777bb1e18ce,64c800d3a7ea0453df128353,right,1,0.75,0.3714,13,0.092505797,0.1504,,,,,,112,0,112,0,1,,,,,
,,607251,001,2023-07-31_20h43.58.547,arm3_eps,2022.2.5,MacIntel,60.0024001,611d3cadcee021ae2fa85df3,64c7fed44a04f777bb1e18ce,64c800d3a7ea0453df128353,up,1,0.75,0.3714,13,0,0.4493,,,,,,113,0,113,0,1,,,,,
,,607251,001,2023-07-31_20h43.58.547,arm3_eps,2022.2.5,MacIntel,60.0024001,611d3cadcee021ae2fa85df3,64c7fed44a04f777bb1e18ce,64c800d3a7ea0453df128353,right,1,0.75,0.3714,13,0.024314792,0.8114,,,,,,114,0,114,0,1,,,,,
,,607251,001,2023-07-31_20h43.58.547,arm3_eps,2022.2.5,MacIntel,60.0024001,611d3cadcee021ae2fa85df3,64c7fed44a04f777bb1e18ce,64c800d3a7ea0453df128353,right,1,0.75,0.3714,13,0.009119132,0.183,,,,,,115,0,115,0,1,,,,,
,,607251,001,2023-07-31_20h43.58.547,arm3_eps,2022.2.5,MacIntel,60.0024001,611d3cadcee021ae2fa85df3,64c7fed44a04f777bb1e18ce,64c800d3a7ea0453df128353,right,1,0.75,0.3714,13,0.02657397,0.1659,,,,,,116,0,116,0,1,,,,,
,,607251,001,2023-07-31_20h43.58.547,arm3_eps,2022.2.5,MacIntel,60.0024001,611d3cadcee021ae2fa85df3,64c7fed44a04f777bb1e18ce,64c800d3a7ea0453df128353,right,1,0.75,0.3714,13,0.027657779,0.1504,,,,,,117,0,117,0,1,,,,,
,,607251,001,2023-07-31_20h43.58.547,arm3_eps,2022.2.5,MacIntel,60.0024001,611d3cadcee021ae2fa85df3,64c7fed44a04f777bb1e18ce,64c800d3a7ea0453df128353,right,1,0.75,0.3714,13,0.024652968,0.1492,,,,,,118,0,118,0,1,,,,,
,,607251,001,2023-07-31_20h43.58.547,arm3_eps,2022.2.5,MacIntel,60.0024001,611d3cadcee021ae2fa85df3,64c7fed44a04f777bb1e18ce,64c800d3a7ea0453df128353,right,1,0.75,0.3714,13,0.00797733,0.15,,,,,,119,0,119,0,1,,,,,
,,607251,001,2023-07-31_20h43.58.547,arm3_eps,2022.2.5,MacIntel,60.0024001,611d3cadcee021ae2fa85df3,64c7fed44a04f777bb1e18ce,64c800d3a7ea0453df128353,right,1,0.75,0.3714,13,0.012868885,0.3656,,,,,,120,0,120,0,1,,,,,
,,607251,001,2023-07-31_20h43.58.547,arm3_eps,2022.2.5,MacIntel,60.0024001,611d3cadcee021ae2fa85df3,64c7fed44a04f777bb1e18ce,64c800d3a7ea0453df128353,right,1,0.75,0.3714,13,0.022801268,0.2003,,,,,,121,0,121,0,1,,,,,
,,607251,001,2023-07-31_20h43.58.547,arm3_eps,2022.2.5,MacIntel,60.0024001,611d3cadcee021ae2fa85df3,64c7fed44a04f777bb1e18ce,64c800d3a7ea0453df128353,right,1,0.75,0.3714,13,0.049620334,0.2198,,,,,,122,0,122,0,1,,,,,
,,607251,001,2023-07-31_20h43.58.547,arm3_eps,2022.2.5,MacIntel,60.0024001,611d3cadcee021ae2fa85df3,64c7fed44a04f777bb1e18ce,64c800d3a7ea0453df128353,right,1,0.75,0.3714,13,0.09492447,0.2868,,,,,,123,0,123,0,1,,,,,
,,607251,001,2023-07-31_20h43.58.547,arm3_eps,2022.2.5,MacIntel,60.0024001,611d3cadcee021ae2fa85df3,64c7fed44a04f777bb1e18ce,64c800d3a7ea0453df128353,up,1,0.75,0.3714,14,0,0.3017,,,,,,124,0,124,0,1,,,,,
,,607251,001,2023-07-31_20h43.58.547,arm3_eps,2022.2.5,MacIntel,60.0024001,611d3cadcee021ae2fa85df3,64c7fed44a04f777bb1e18ce,64c800d3a7ea0453df128353,right,1,0.75,0.3714,14,0.007215577,0.53,,,,,,125,0,125,0,1,,,,,
,,607251,001,2023-07-31_20h43.58.547,arm3_eps,2022.2.5,MacIntel,60.0024001,611d3cadcee021ae2fa85df3,64c7fed44a04f777bb1e18ce,64c800d3a7ea0453df128353,right,1,0.75,0.3714,14,0.017445861,0.1679,,,,,,126,0,126,0,1,,,,,
,,607251,001,2023-07-31_20h43.58.547,arm3_eps,2022.2.5,MacIntel,60.0024001,611d3cadcee021ae2fa85df3,64c7fed44a04f777bb1e18ce,64c800d3a7ea0453df128353,right,1,0.75,0.3714,14,0.038151972,0.1826,,,,,,127,0,127,0,1,,,,,
,,607251,001,2023-07-31_20h43.58.547,arm3_eps,2022.2.5,MacIntel,60.0024001,611d3cadcee021ae2fa85df3,64c7fed44a04f777bb1e18ce,64c800d3a7ea0453df128353,right,1,0.75,0.3714,14,0.044340464,0.1686,,,,,,128,0,128,0,1,,,,,
,,607251,001,2023-07-31_20h43.58.547,arm3_eps,2022.2.5,MacIntel,60.0024001,611d3cadcee021ae2fa85df3,64c7fed44a04f777bb1e18ce,64c800d3a7ea0453df128353,right,1,0.75,0.3714,14,0.0645926,0.1677,,,,,,129,0,129,0,1,,,,,
,,607251,001,2023-07-31_20h43.58.547,arm3_eps,2022.2.5,MacIntel,60.0024001,611d3cadcee021ae2fa85df3,64c7fed44a04f777bb1e18ce,64c800d3a7ea0453df128353,right,1,0.75,0.3714,14,0.105148222,0.1538,,,,,,130,0,130,0,1,,,,,
,,607251,001,2023-07-31_20h43.58.547,arm3_eps,2022.2.5,MacIntel,60.0024001,611d3cadcee021ae2fa85df3,64c7fed44a04f777bb1e18ce,64c800d3a7ea0453df128353,right,1,0.75,0.3714,14,0.151654505,0.1671,,,,,,131,0,131,0,1,,,,,
,,607251,001,2023-07-31_20h43.58.547,arm3_eps,2022.2.5,MacIntel,60.0024001,611d3cadcee021ae2fa85df3,64c7fed44a04f777bb1e18ce,64c800d3a7ea0453df128353,up,-1,0.75,0.3714,14,0,0.3501,,,,,,132,0,132,0,1,,,,,
,,607251,001,2023-07-31_20h43.58.547,arm3_eps,2022.2.5,MacIntel,60.0024001,611d3cadcee021ae2fa85df3,64c7fed44a04f777bb1e18ce,64c800d3a7ea0453df128353,right,-1,0.75,0.3714,14,-0.028967502,0.9454,,,,,,133,0,133,0,1,,,,,
,,607251,001,2023-07-31_20h43.58.547,arm3_eps,2022.2.5,MacIntel,60.0024001,611d3cadcee021ae2fa85df3,64c7fed44a04f777bb1e18ce,64c800d3a7ea0453df128353,right,-1,0.75,0.3714,14,-0.015694507,0.1675,,,,,,134,0,134,0,1,,,,,
,,607251,001,2023-07-31_20h43.58.547,arm3_eps,2022.2.5,MacIntel,60.0024001,611d3cadcee021ae2fa85df3,64c7fed44a04f777bb1e18ce,64c800d3a7ea0453df128353,right,-1,0.75,0.3714,14,0.000700487,0.1654,,,,,,135,0,135,0,1,,,,,
,,607251,001,2023-07-31_20h43.58.547,arm3_eps,2022.2.5,MacIntel,60.0024001,611d3cadcee021ae2fa85df3,64c7fed44a04f777bb1e18ce,64c800d3a7ea0453df128353,right,-1,0.75,0.3714,14,-0.017494961,0.15,,,,,,136,0,136,0,1,,,,,
,,607251,001,2023-07-31_20h43.58.547,arm3_eps,2022.2.5,MacIntel,60.0024001,611d3cadcee021ae2fa85df3,64c7fed44a04f777bb1e18ce,64c800d3a7ea0453df128353,right,-1,0.75,0.3714,14,-0.038805522,0.1334,,,,,,137,0,137,0,1,,,,,
,,607251,001,2023-07-31_20h43.58.547,arm3_eps,2022.2.5,MacIntel,60.0024001,611d3cadcee021ae2fa85df3,64c7fed44a04f777bb1e18ce,64c800d3a7ea0453df128353,right,-1,0.75,0.3714,14,-0.044735586,0.1685,,,,,,138,0,138,0,1,,,,,
,,607251,001,2023-07-31_20h43.58.547,arm3_eps,2022.2.5,MacIntel,60.0024001,611d3cadcee021ae2fa85df3,64c7fed44a04f777bb1e18ce,64c800d3a7ea0453df128353,right,-1,0.75,0.3714,14,-0.09140793,0.167,,,,,,139,0,139,0,1,,,,,
,,607251,001,2023-07-31_20h43.58.547,arm3_eps,2022.2.5,MacIntel,60.0024001,611d3cadcee021ae2fa85df3,64c7fed44a04f777bb1e18ce,64c800d3a7ea0453df128353,down,-1,0.75,0.3714,15,0,0.8502,,,,,,140,0,140,0,1,,,,,
,,607251,001,2023-07-31_20h43.58.547,arm3_eps,2022.2.5,MacIntel,60.0024001,611d3cadcee021ae2fa85df3,64c7fed44a04f777bb1e18ce,64c800d3a7ea0453df128353,right,-1,0.75,0.3714,15,-0.014932766,0.6127,,,,,,141,0,141,0,1,,,,,
,,607251,001,2023-07-31_20h43.58.547,arm3_eps,2022.2.5,MacIntel,60.0024001,611d3cadcee021ae2fa85df3,64c7fed44a04f777bb1e18ce,64c800d3a7ea0453df128353,right,-1,0.75,0.3714,15,-0.039544061,0.1673,,,,,,142,0,142,0,1,,,,,
,,607251,001,2023-07-31_20h43.58.547,arm3_eps,2022.2.5,MacIntel,60.0024001,611d3cadcee021ae2fa85df3,64c7fed44a04f777bb1e18ce,64c800d3a7ea0453df128353,right,-1,0.75,0.3714,15,-0.061516186,0.1635,,,,,,143,0,143,0,1,,,,,
,,607251,001,2023-07-31_20h43.58.547,arm3_eps,2022.2.5,MacIntel,60.0024001,611d3cadcee021ae2fa85df3,64c7fed44a04f777bb1e18ce,64c800d3a7ea0453df128353,right,-1,0.75,0.3714,15,-0.02510353,0.3841,,,,,,144,0,144,0,1,,,,,
,,607251,001,2023-07-31_20h43.58.547,arm3_eps,2022.2.5,MacIntel,60.0024001,611d3cadcee021ae2fa85df3,64c7fed44a04f777bb1e18ce,64c800d3a7ea0453df128353,right,-1,0.75,0.3714,15,-0.040889921,0.2002,,,,,,145,0,145,0,1,,,,,
,,607251,001,2023-07-31_20h43.58.547,arm3_eps,2022.2.5,MacIntel,60.0024001,611d3cadcee021ae2fa85df3,64c7fed44a04f777bb1e18ce,64c800d3a7ea0453df128353,right,-1,0.75,0.3714,15,-0.059718538,0.1672,,,,,,146,0,146,0,1,,,,,
,,607251,001,2023-07-31_20h43.58.547,arm3_eps,2022.2.5,MacIntel,60.0024001,611d3cadcee021ae2fa85df3,64c7fed44a04f777bb1e18ce,64c800d3a7ea0453df128353,down,-1,0.75,0.3714,15,0,0.3825,,,,,,147,0,147,0,1,,,,,
,,607251,001,2023-07-31_20h43.58.547,arm3_eps,2022.2.5,MacIntel,60.0024001,611d3cadcee021ae2fa85df3,64c7fed44a04f777bb1e18ce,64c800d3a7ea0453df128353,right,-1,0.75,0.3714,15,0.030793775,0.6679,,,,,,148,0,148,0,1,,,,,
,,607251,001,2023-07-31_20h43.58.547,arm3_eps,2022.2.5,MacIntel,60.0024001,611d3cadcee021ae2fa85df3,64c7fed44a04f777bb1e18ce,64c800d3a7ea0453df128353,right,-1,0.75,0.3714,15,0.021589576,0.1836,,,,,,149,0,149,0,1,,,,,
,,607251,001,2023-07-31_20h43.58.547,arm3_eps,2022.2.5,MacIntel,60.0024001,611d3cadcee021ae2fa85df3,64c7fed44a04f777bb1e18ce,64c800d3a7ea0453df128353,right,-1,0.75,0.3714,15,-0.004242206,0.1829,,,,,,150,0,150,0,1,,,,,
,,607251,001,2023-07-31_20h43.58.547,arm3_eps,2022.2.5,MacIntel,60.0024001,611d3cadcee021ae2fa85df3,64c7fed44a04f777bb1e18ce,64c800d3a7ea0453df128353,right,-1,0.75,0.3714,15,0.001322308,0.1346,,,,,,151,0,151,0,1,,,,,
,,607251,001,2023-07-31_20h43.58.547,arm3_eps,2022.2.5,MacIntel,60.0024001,611d3cadcee021ae2fa85df3,64c7fed44a04f777bb1e18ce,64c800d3a7ea0453df128353,right,-1,0.75,0.3714,15,-0.053291127,0.1831,,,,,,152,0,152,0,1,,,,,
,,607251,001,2023-07-31_20h43.58.547,arm3_eps,2022.2.5,MacIntel,60.0024001,611d3cadcee021ae2fa85df3,64c7fed44a04f777bb1e18ce,64c800d3a7ea0453df128353,right,-1,0.75,0.3714,15,-0.069954753,0.1666,,,,,,153,0,153,0,1,,,,,
,,607251,001,2023-07-31_20h43.58.547,arm3_eps,2022.2.5,MacIntel,60.0024001,611d3cadcee021ae2fa85df3,64c7fed44a04f777bb1e18ce,64c800d3a7ea0453df128353,down,1,0.75,0.3714,16,0,0.319,,,,,,154,0,154,0,1,,,,,
,,607251,001,2023-07-31_20h43.58.547,arm3_eps,2022.2.5,MacIntel,60.0024001,611d3cadcee021ae2fa85df3,64c7fed44a04f777bb1e18ce,64c800d3a7ea0453df128353,right,1,0.75,0.3714,16,0.005569958,0.5823,,,,,,155,0,155,0,1,,,,,
,,607251,001,2023-07-31_20h43.58.547,arm3_eps,2022.2.5,MacIntel,60.0024001,611d3cadcee021ae2fa85df3,64c7fed44a04f777bb1e18ce,64c800d3a7ea0453df128353,right,1,0.75,0.3714,16,-0.002065184,0.2166,,,,,,156,0,156,0,1,,,,,
,,607251,001,2023-07-31_20h43.58.547,arm3_eps,2022.2.5,MacIntel,60.0024001,611d3cadcee021ae2fa85df3,64c7fed44a04f777bb1e18ce,64c800d3a7ea0453df128353,right,1,0.75,0.3714,16,0.004131042,0.1486,,,,,,157,0,157,0,1,,,,,
,,607251,001,2023-07-31_20h43.58.547,arm3_eps,2022.2.5,MacIntel,60.0024001,611d3cadcee021ae2fa85df3,64c7fed44a04f777bb1e18ce,64c800d3a7ea0453df128353,right,1,0.75,0.3714,16,0.015988305,0.1512,,,,,,158,0,158,0,1,,,,,
,,607251,001,2023-07-31_20h43.58.547,arm3_eps,2022.2.5,MacIntel,60.0024001,611d3cadcee021ae2fa85df3,64c7fed44a04f777bb1e18ce,64c800d3a7ea0453df128353,right,1,0.75,0.3714,16,0.035609606,0.1688,,,,,,159,0,159,0,1,,,,,
,,607251,001,2023-07-31_20h43.58.547,arm3_eps,2022.2.5,MacIntel,60.0024001,611d3cadcee021ae2fa85df3,64c7fed44a04f777bb1e18ce,64c800d3a7ea0453df128353,right,1,0.75,0.3714,16,0.03420984,0.1657,,,,,,160,0,160,0,1,,,,,
,,607251,001,2023-07-31_20h43.58.547,arm3_eps,2022.2.5,MacIntel,60.0024001,611d3cadcee021ae2fa85df3,64c7fed44a04f777bb1e18ce,64c800d3a7ea0453df128353,right,1,0.75,0.3714,16,0.019701442,0.1491,,,,,,161,0,161,0,1,,,,,
,,607251,001,2023-07-31_20h43.58.547,arm3_eps,2022.2.5,MacIntel,60.0024001,611d3cadcee021ae2fa85df3,64c7fed44a04f777bb1e18ce,64c800d3a7ea0453df128353,right,1,0.75,0.3714,16,0.003158001,0.1981,,,,,,162,0,162,0,1,,,,,
,,607251,001,2023-07-31_20h43.58.547,arm3_eps,2022.2.5,MacIntel,60.0024001,611d3cadcee021ae2fa85df3,64c7fed44a04f777bb1e18ce,64c800d3a7ea0453df128353,right,1,0.75,0.3714,16,0.041397022,0.6007,,,,,,163,0,163,0,1,,,,,
,,607251,001,2023-07-31_20h43.58.547,arm3_eps,2022.2.5,MacIntel,60.0024001,611d3cadcee021ae2fa85df3,64c7fed44a04f777bb1e18ce,64c800d3a7ea0453df128353,up,1,0.75,0.3714,17,0,0.4982,,,,,,164,0,164,0,1,,,,,
,,607251,001,2023-07-31_20h43.58.547,arm3_eps,2022.2.5,MacIntel,60.0024001,611d3cadcee021ae2fa85df3,64c7fed44a04f777bb1e18ce,64c800d3a7ea0453df128353,right,1,0.75,0.3714,17,-0.015525435,0.4968,,,,,,165,0,165,0,1,,,,,
,,607251,001,2023-07-31_20h43.58.547,arm3_eps,2022.2.5,MacIntel,60.0024001,611d3cadcee021ae2fa85df3,64c7fed44a04f777bb1e18ce,64c800d3a7ea0453df128353,right,1,0.75,0.3714,17,-0.009227431,0.1972,,,,,,166,0,166,0,1,,,,,
,,607251,001,2023-07-31_20h43.58.547,arm3_eps,2022.2.5,MacIntel,60.0024001,611d3cadcee021ae2fa85df3,64c7fed44a04f777bb1e18ce,64c800d3a7ea0453df128353,right,1,0.75,0.3714,17,-0.006882721,0.1827,,,,,,167,0,167,0,1,,,,,
,,607251,001,2023-07-31_20h43.58.547,arm3_eps,2022.2.5,MacIntel,60.0024001,611d3cadcee021ae2fa85df3,64c7fed44a04f777bb1e18ce,64c800d3a7ea0453df128353,right,1,0.75,0.3714,17,0.001104357,0.1671,,,,,,168,0,168,0,1,,,,,
,,607251,001,2023-07-31_20h43.58.547,arm3_eps,2022.2.5,MacIntel,60.0024001,611d3cadcee021ae2fa85df3,64c7fed44a04f777bb1e18ce,64c800d3a7ea0453df128353,right,1,0.75,0.3714,17,-0.012032332,0.1484,,,,,,169,0,169,0,1,,,,,
,,607251,001,2023-07-31_20h43.58.547,arm3_eps,2022.2.5,MacIntel,60.0024001,611d3cadcee021ae2fa85df3,64c7fed44a04f777bb1e18ce,64c800d3a7ea0453df128353,right,1,0.75,0.3714,17,-0.005391903,0.1653,,,,,,170,0,170,0,1,,,,,
,,607251,001,2023-07-31_20h43.58.547,arm3_eps,2022.2.5,MacIntel,60.0024001,611d3cadcee021ae2fa85df3,64c7fed44a04f777bb1e18ce,64c800d3a7ea0453df128353,right,1,0.75,0.3714,17,-0.003778285,0.1494,,,,,,171,0,171,0,1,,,,,
,,607251,001,2023-07-31_20h43.58.547,arm3_eps,2022.2.5,MacIntel,60.0024001,611d3cadcee021ae2fa85df3,64c7fed44a04f777bb1e18ce,64c800d3a7ea0453df128353,right,1,0.75,0.3714,17,0.005460637,0.2167,,,,,,172,0,172,0,1,,,,,
,,607251,001,2023-07-31_20h43.58.547,arm3_eps,2022.2.5,MacIntel,60.0024001,611d3cadcee021ae2fa85df3,64c7fed44a04f777bb1e18ce,64c800d3a7ea0453df128353,right,1,0.75,0.3714,17,-0.013399126,0.1812,,,,,,173,0,173,0,1,,,,,
,,607251,001,2023-07-31_20h43.58.547,arm3_eps,2022.2.5,MacIntel,60.0024001,611d3cadcee021ae2fa85df3,64c7fed44a04f777bb1e18ce,64c800d3a7ea0453df128353,right,1,0.75,0.3714,17,0.00568062,0.2004,,,,,,174,0,174,0,1,,,,,
,,607251,001,2023-07-31_20h43.58.547,arm3_eps,2022.2.5,MacIntel,60.0024001,611d3cadcee021ae2fa85df3,64c7fed44a04f777bb1e18ce,64c800d3a7ea0453df128353,right,1,0.75,0.3714,17,0.002641164,0.1989,,,,,,175,0,175,0,1,,,,,
,,607251,001,2023-07-31_20h43.58.547,arm3_eps,2022.2.5,MacIntel,60.0024001,611d3cadcee021ae2fa85df3,64c7fed44a04f777bb1e18ce,64c800d3a7ea0453df128353,right,1,0.75,0.3714,17,-0.009150631,0.2157,,,,,,176,0,176,0,1,,,,,
,,607251,001,2023-07-31_20h43.58.547,arm3_eps,2022.2.5,MacIntel,60.0024001,611d3cadcee021ae2fa85df3,64c7fed44a04f777bb1e18ce,64c800d3a7ea0453df128353,up,1,0.75,0.3714,18,0,0.4562,,,,,,177,0,177,0,1,,,,,
,,607251,001,2023-07-31_20h43.58.547,arm3_eps,2022.2.5,MacIntel,60.0024001,611d3cadcee021ae2fa85df3,64c7fed44a04f777bb1e18ce,64c800d3a7ea0453df128353,right,1,0.75,0.3714,18,-0.006634255,0.4456,,,,,,178,0,178,0,1,,,,,
,,607251,001,2023-07-31_20h43.58.547,arm3_eps,2022.2.5,MacIntel,60.0024001,611d3cadcee021ae2fa85df3,64c7fed44a04f777bb1e18ce,64c800d3a7ea0453df128353,right,1,0.75,0.3714,18,0.026559293,0.1825,,,,,,179,0,179,0,1,,,,,
,,607251,001,2023-07-31_20h43.58.547,arm3_eps,2022.2.5,MacIntel,60.0024001,611d3cadcee021ae2fa85df3,64c7fed44a04f777bb1e18ce,64c800d3a7ea0453df128353,right,1,0.75,0.3714,18,0.030275087,0.1685,,,,,,180,0,180,0,1,,,,,
,,607251,001,2023-07-31_20h43.58.547,arm3_eps,2022.2.5,MacIntel,60.0024001,611d3cadcee021ae2fa85df3,64c7fed44a04f777bb1e18ce,64c800d3a7ea0453df128353,right,1,0.75,0.3714,18,0.04148382,0.1699,,,,,,181,0,181,0,1,,,,,
,,607251,001,2023-07-31_20h43.58.547,arm3_eps,2022.2.5,MacIntel,60.0024001,611d3cadcee021ae2fa85df3,64c7fed44a04f777bb1e18ce,64c800d3a7ea0453df128353,right,1,0.75,0.3714,18,0.004868269,0.1685,,,,,,182,0,182,0,1,,,,,
,,607251,001,2023-07-31_20h43.58.547,arm3_eps,2022.2.5,MacIntel,60.0024001,611d3cadcee021ae2fa85df3,64c7fed44a04f777bb1e18ce,64c800d3a7ea0453df128353,right,1,0.75,0.3714,18,0.005561445,0.1661,,,,,,183,0,183,0,1,,,,,
,,607251,001,2023-07-31_20h43.58.547,arm3_eps,2022.2.5,MacIntel,60.0024001,611d3cadcee021ae2fa85df3,64c7fed44a04f777bb1e18ce,64c800d3a7ea0453df128353,right,1,0.75,0.3714,18,0.027022842,0.1671,,,,,,184,0,184,0,1,,,,,
,,607251,001,2023-07-31_20h43.58.547,arm3_eps,2022.2.5,MacIntel,60.0024001,611d3cadcee021ae2fa85df3,64c7fed44a04f777bb1e18ce,64c800d3a7ea0453df128353,right,1,0.75,0.3714,18,0.023265138,0.1663,,,,,,185,0,185,0,1,,,,,
,,607251,001,2023-07-31_20h43.58.547,arm3_eps,2022.2.5,MacIntel,60.0024001,611d3cadcee021ae2fa85df3,64c7fed44a04f777bb1e18ce,64c800d3a7ea0453df128353,right,1,0.75,0.3714,18,0.022913845,0.1678,,,,,,186,0,186,0,1,,,,,
,,607251,001,2023-07-31_20h43.58.547,arm3_eps,2022.2.5,MacIntel,60.0024001,611d3cadcee021ae2fa85df3,64c7fed44a04f777bb1e18ce,64c800d3a7ea0453df128353,right,1,0.75,0.3714,18,-0.000771201,0.1327,,,,,,187,0,187,0,1,,,,,
,,607251,001,2023-07-31_20h43.58.547,arm3_eps,2022.2.5,MacIntel,60.0024001,611d3cadcee021ae2fa85df3,64c7fed44a04f777bb1e18ce,64c800d3a7ea0453df128353,right,1,0.75,0.3714,18,0.018267937,0.4659,,,,,,188,0,188,0,1,,,,,
,,607251,001,2023-07-31_20h43.58.547,arm3_eps,2022.2.5,MacIntel,60.0024001,611d3cadcee021ae2fa85df3,64c7fed44a04f777bb1e18ce,64c800d3a7ea0453df128353,right,1,0.75,0.3714,18,0.006879104,0.4998,,,,,,189,0,189,0,1,,,,,
,,607251,001,2023-07-31_20h43.58.547,arm3_eps,2022.2.5,MacIntel,60.0024001,611d3cadcee021ae2fa85df3,64c7fed44a04f777bb1e18ce,64c800d3a7ea0453df128353,up,1,0.75,0.3714,18,0,0.2823,,,,,,190,0,190,0,1,,,,,
,,607251,001,2023-07-31_20h43.58.547,arm3_eps,2022.2.5,MacIntel,60.0024001,611d3cadcee021ae2fa85df3,64c7fed44a04f777bb1e18ce,64c800d3a7ea0453df128353,right,1,0.75,0.3714,18,0.003140893,0.8461,,,,,,191,0,191,0,1,,,,,
,,607251,001,2023-07-31_20h43.58.547,arm3_eps,2022.2.5,MacIntel,60.0024001,611d3cadcee021ae2fa85df3,64c7fed44a04f777bb1e18ce,64c800d3a7ea0453df128353,right,1,0.75,0.3714,18,0.028558108,0.1836,,,,,,192,0,192,0,1,,,,,
,,607251,001,2023-07-31_20h43.58.547,arm3_eps,2022.2.5,MacIntel,60.0024001,611d3cadcee021ae2fa85df3,64c7fed44a04f777bb1e18ce,64c800d3a7ea0453df128353,right,1,0.75,0.3714,18,0.065325369,0.1657,,,,,,193,0,193,0,1,,,,,
,,607251,001,2023-07-31_20h43.58.547,arm3_eps,2022.2.5,MacIntel,60.0024001,611d3cadcee021ae2fa85df3,64c7fed44a04f777bb1e18ce,64c800d3a7ea0453df128353,right,1,0.75,0.3714,18,0.079128879,0.1499,,,,,,194,0,194,0,1,,,,,
,,607251,001,2023-07-31_20h43.58.547,arm3_eps,2022.2.5,MacIntel,60.0024001,611d3cadcee021ae2fa85df3,64c7fed44a04f777bb1e18ce,64c800d3a7ea0453df128353,right,1,0.75,0.3714,18,0.10568155,0.1652,,,,,,195,0,195,0,1,,,,,
,,607251,001,2023-07-31_20h43.58.547,arm3_eps,2022.2.5,MacIntel,60.0024001,611d3cadcee021ae2fa85df3,64c7fed44a04f777bb1e18ce,64c800d3a7ea0453df128353,up,1,0.75,0.3714,19,0,0.4671,,,,,,196,0,196,0,1,,,,,
,,607251,001,2023-07-31_20h43.58.547,arm3_eps,2022.2.5,MacIntel,60.0024001,611d3cadcee021ae2fa85df3,64c7fed44a04f777bb1e18ce,64c800d3a7ea0453df128353,right,1,0.75,0.3714,19,0.005456802,0.3472,,,,,,197,0,197,0,1,,,,,
,,607251,001,2023-07-31_20h43.58.547,arm3_eps,2022.2.5,MacIntel,60.0024001,611d3cadcee021ae2fa85df3,64c7fed44a04f777bb1e18ce,64c800d3a7ea0453df128353,right,1,0.75,0.3714,19,0.030672885,0.2144,,,,,,198,0,198,0,1,,,,,
,,607251,001,2023-07-31_20h43.58.547,arm3_eps,2022.2.5,MacIntel,60.0024001,611d3cadcee021ae2fa85df3,64c7fed44a04f777bb1e18ce,64c800d3a7ea0453df128353,right,1,0.75,0.3714,19,0.047331994,0.1828,,,,,,199,0,199,0,1,,,,,
,,607251,001,2023-07-31_20h43.58.547,arm3_eps,2022.2.5,MacIntel,60.0024001,611d3cadcee021ae2fa85df3,64c7fed44a04f777bb1e18ce,64c800d3a7ea0453df128353,right,1,0.75,0.3714,19,0.070899556,0.1497,,,,,,200,0,200,0,1,,,,,
,,607251,001,2023-07-31_20h43.58.547,arm3_eps,2022.2.5,MacIntel,60.0024001,611d3cadcee021ae2fa85df3,64c7fed44a04f777bb1e18ce,64c800d3a7ea0453df128353,right,1,0.75,0.3714,19,0.082787586,0.1498,,,,,,201,0,201,0,1,,,,,
,,607251,001,2023-07-31_20h43.58.547,arm3_eps,2022.2.5,MacIntel,60.0024001,611d3cadcee021ae2fa85df3,64c7fed44a04f777bb1e18ce,64c800d3a7ea0453df128353,right,1,0.75,0.3714,19,0.098740221,0.1663,,,,,,202,0,202,0,1,,,,,
,,607251,001,2023-07-31_20h43.58.547,arm3_eps,2022.2.5,MacIntel,60.0024001,611d3cadcee021ae2fa85df3,64c7fed44a04f777bb1e18ce,64c800d3a7ea0453df128353,up,1,0.75,0.3714,20,0,0.3009,,,,,,203,0,203,0,1,,,,,
,,607251,001,2023-07-31_20h43.58.547,arm3_eps,2022.2.5,MacIntel,60.0024001,611d3cadcee021ae2fa85df3,64c7fed44a04f777bb1e18ce,64c800d3a7ea0453df128353,right,1,0.75,0.3714,20,0.031281399,0.2826,,,,,,204,0,204,0,1,,,,,
,,607251,001,2023-07-31_20h43.58.547,arm3_eps,2022.2.5,MacIntel,60.0024001,611d3cadcee021ae2fa85df3,64c7fed44a04f777bb1e18ce,64c800d3a7ea0453df128353,right,1,0.75,0.3714,20,0.050896034,0.2321,,,,,,205,0,205,0,1,,,,,
,,607251,001,2023-07-31_20h43.58.547,arm3_eps,2022.2.5,MacIntel,60.0024001,611d3cadcee021ae2fa85df3,64c7fed44a04f777bb1e18ce,64c800d3a7ea0453df128353,right,1,0.75,0.3714,20,0.066710208,0.1321,,,,,,206,0,206,0,1,,,,,
,,607251,001,2023-07-31_20h43.58.547,arm3_eps,2022.2.5,MacIntel,60.0024001,611d3cadcee021ae2fa85df3,64c7fed44a04f777bb1e18ce,64c800d3a7ea0453df128353,right,1,0.75,0.3714,20,0.088702208,0.1709,,,,,,207,0,207,0,1,,,,,
,,607251,001,2023-07-31_20h43.58.547,arm3_eps,2022.2.5,MacIntel,60.0024001,611d3cadcee021ae2fa85df3,64c7fed44a04f777bb1e18ce,64c800d3a7ea0453df128353,up,1,0.75,0.3714,21,0,0.3164,,,,,,208,0,208,0,1,,,,,
,,607251,001,2023-07-31_20h43.58.547,arm3_eps,2022.2.5,MacIntel,60.0024001,611d3cadcee021ae2fa85df3,64c7fed44a04f777bb1e18ce,64c800d3a7ea0453df128353,right,1,0.75,0.3714,21,0.020435571,0.2666,,,,,,209,0,209,0,1,,,,,
,,607251,001,2023-07-31_20h43.58.547,arm3_eps,2022.2.5,MacIntel,60.0024001,611d3cadcee021ae2fa85df3,64c7fed44a04f777bb1e18ce,64c800d3a7ea0453df128353,right,1,0.75,0.3714,21,0.059121326,0.2133,,,,,,210,0,210,0,1,,,,,
,,607251,001,2023-07-31_20h43.58.547,arm3_eps,2022.2.5,MacIntel,60.0024001,611d3cadcee021ae2fa85df3,64c7fed44a04f777bb1e18ce,64c800d3a7ea0453df128353,right,1,0.75,0.3714,21,0.072931021,0.1481,,,,,,211,0,211,0,1,,,,,
,,607251,001,2023-07-31_20h43.58.547,arm3_eps,2022.2.5,MacIntel,60.0024001,611d3cadcee021ae2fa85df3,64c7fed44a04f777bb1e18ce,64c800d3a7ea0453df128353,right,1,0.75,0.3714,21,0.046644935,0.1518,,,,,,212,0,212,0,1,,,,,
,,607251,001,2023-07-31_20h43.58.547,arm3_eps,2022.2.5,MacIntel,60.0024001,611d3cadcee021ae2fa85df3,64c7fed44a04f777bb1e18ce,64c800d3a7ea0453df128353,right,1,0.75,0.3714,21,0.051685453,0.2489,,,,,,213,0,213,0,1,,,,,
,,607251,001,2023-07-31_20h43.58.547,arm3_eps,2022.2.5,MacIntel,60.0024001,611d3cadcee021ae2fa85df3,64c7fed44a04f777bb1e18ce,64c800d3a7ea0453df128353,right,1,0.75,0.3714,21,0.045559986,0.1977,,,,,,214,0,214,0,1,,,,,
,,607251,001,2023-07-31_20h43.58.547,arm3_eps,2022.2.5,MacIntel,60.0024001,611d3cadcee021ae2fa85df3,64c7fed44a04f777bb1e18ce,64c800d3a7ea0453df128353,right,1,0.75,0.3714,21,0.077497069,0.1648,,,,,,215,0,215,0,1,,,,,
,,607251,001,2023-07-31_20h43.58.547,arm3_eps,2022.2.5,MacIntel,60.0024001,611d3cadcee021ae2fa85df3,64c7fed44a04f777bb1e18ce,64c800d3a7ea0453df128353,right,1,0.75,0.3714,21,0.071679761,0.1654,,,,,,216,0,216,0,1,,,,,
,,607251,001,2023-07-31_20h43.58.547,arm3_eps,2022.2.5,MacIntel,60.0024001,611d3cadcee021ae2fa85df3,64c7fed44a04f777bb1e18ce,64c800d3a7ea0453df128353,right,1,0.75,0.3714,21,0.096680016,0.1657,,,,,,217,0,217,0,1,,,,,
,,607251,001,2023-07-31_20h43.58.547,arm3_eps,2022.2.5,MacIntel,60.0024001,611d3cadcee021ae2fa85df3,64c7fed44a04f777bb1e18ce,64c800d3a7ea0453df128353,up,1,0.75,0.3714,22,0,0.401,,,,,,218,0,218,0,1,,,,,
,,607251,001,2023-07-31_20h43.58.547,arm3_eps,2022.2.5,MacIntel,60.0024001,611d3cadcee021ae2fa85df3,64c7fed44a04f777bb1e18ce,64c800d3a7ea0453df128353,right,1,0.75,0.3714,22,-0.02044112,0.2804,,,,,,219,0,219,0,1,,,,,
,,607251,001,2023-07-31_20h43.58.547,arm3_eps,2022.2.5,MacIntel,60.0024001,611d3cadcee021ae2fa85df3,64c7fed44a04f777bb1e18ce,64c800d3a7ea0453df128353,right,1,0.75,0.3714,22,-0.030439115,0.2335,,,,,,220,0,220,0,1,,,,,
,,607251,001,2023-07-31_20h43.58.547,arm3_eps,2022.2.5,MacIntel,60.0024001,611d3cadcee021ae2fa85df3,64c7fed44a04f777bb1e18ce,64c800d3a7ea0453df128353,right,1,0.75,0.3714,22,-0.018071522,0.1676,,,,,,221,0,221,0,1,,,,,
,,607251,001,2023-07-31_20h43.58.547,arm3_eps,2022.2.5,MacIntel,60.0024001,611d3cadcee021ae2fa85df3,64c7fed44a04f777bb1e18ce,64c800d3a7ea0453df128353,right,1,0.75,0.3714,22,-0.003921258,0.1534,,,,,,222,0,222,0,1,,,,,
,,607251,001,2023-07-31_20h43.58.547,arm3_eps,2022.2.5,MacIntel,60.0024001,611d3cadcee021ae2fa85df3,64c7fed44a04f777bb1e18ce,64c800d3a7ea0453df128353,right,1,0.75,0.3714,22,-0.004320573,0.1674,,,,,,223,0,223,0,1,,,,,
,,607251,001,2023-07-31_20h43.58.547,arm3_eps,2022.2.5,MacIntel,60.0024001,611d3cadcee021ae2fa85df3,64c7fed44a04f777bb1e18ce,64c800d3a7ea0453df128353,right,1,0.75,0.3714,22,-0.036275219,0.184,,,,,,224,0,224,0,1,,,,,
,,607251,001,2023-07-31_20h43.58.547,arm3_eps,2022.2.5,MacIntel,60.0024001,611d3cadcee021ae2fa85df3,64c7fed44a04f777bb1e18ce,64c800d3a7ea0453df128353,right,1,0.75,0.3714,22,0.001582181,0.217,,,,,,225,0,225,0,1,,,,,
,,607251,001,2023-07-31_20h43.58.547,arm3_eps,2022.2.5,MacIntel,60.0024001,611d3cadcee021ae2fa85df3,64c7fed44a04f777bb1e18ce,64c800d3a7ea0453df128353,right,1,0.75,0.3714,22,0.018110377,0.2653,,,,,,226,0,226,0,1,,,,,
,,607251,001,2023-07-31_20h43.58.547,arm3_eps,2022.2.5,MacIntel,60.0024001,611d3cadcee021ae2fa85df3,64c7fed44a04f777bb1e18ce,64c800d3a7ea0453df128353,right,1,0.75,0.3714,22,0.00261887,0.1852,,,,,,227,0,227,0,1,,,,,
,,607251,001,2023-07-31_20h43.58.547,arm3_eps,2022.2.5,MacIntel,60.0024001,611d3cadcee021ae2fa85df3,64c7fed44a04f777bb1e18ce,64c800d3a7ea0453df128353,right,1,0.75,0.3714,22,0.01549861,0.1808,,,,,,228,0,228,0,1,,,,,
,,607251,001,2023-07-31_20h43.58.547,arm3_eps,2022.2.5,MacIntel,60.0024001,611d3cadcee021ae2fa85df3,64c7fed44a04f777bb1e18ce,64c800d3a7ea0453df128353,up,-1,0.75,0.3714,22,0,0.5162,,,,,,229,0,229,0,1,,,,,
,,607251,001,2023-07-31_20h43.58.547,arm3_eps,2022.2.5,MacIntel,60.0024001,611d3cadcee021ae2fa85df3,64c7fed44a04f777bb1e18ce,64c800d3a7ea0453df128353,right,-1,0.75,0.3714,22,-0.003784617,0.5512,,,,,,230,0,230,0,1,,,,,
,,607251,001,2023-07-31_20h43.58.547,arm3_eps,2022.2.5,MacIntel,60.0024001,611d3cadcee021ae2fa85df3,64c7fed44a04f777bb1e18ce,64c800d3a7ea0453df128353,right,-1,0.75,0.3714,22,0.002703787,0.1844,,,,,,231,0,231,0,1,,,,,
,,607251,001,2023-07-31_20h43.58.547,arm3_eps,2022.2.5,MacIntel,60.0024001,611d3cadcee021ae2fa85df3,64c7fed44a04f777bb1e18ce,64c800d3a7ea0453df128353,right,-1,0.75,0.3714,22,-0.034851442,0.1995,,,,,,232,0,232,0,1,,,,,
,,607251,001,2023-07-31_20h43.58.547,arm3_eps,2022.2.5,MacIntel,60.0024001,611d3cadcee021ae2fa85df3,64c7fed44a04f777bb1e18ce,64c800d3a7ea0453df128353,right,-1,0.75,0.3714,22,-0.023775055,0.1499,,,,,,233,0,233,0,1,,,,,
,,607251,001,2023-07-31_20h43.58.547,arm3_eps,2022.2.5,MacIntel,60.0024001,611d3cadcee021ae2fa85df3,64c7fed44a04f777bb1e18ce,64c800d3a7ea0453df128353,right,-1,0.75,0.3714,22,-0.047845608,0.1992,,,,,,234,0,234,0,1,,,,,
,,607251,001,2023-07-31_20h43.58.547,arm3_eps,2022.2.5,MacIntel,60.0024001,611d3cadcee021ae2fa85df3,64c7fed44a04f777bb1e18ce,64c800d3a7ea0453df128353,down,-1,0.75,0.3714,23,0,0.3508,,,,,,235,0,235,0,1,,,,,
,,607251,001,2023-07-31_20h43.58.547,arm3_eps,2022.2.5,MacIntel,60.0024001,611d3cadcee021ae2fa85df3,64c7fed44a04f777bb1e18ce,64c800d3a7ea0453df128353,right,-1,0.75,0.3714,23,0.007752693,0.3647,,,,,,236,0,236,0,1,,,,,
,,607251,001,2023-07-31_20h43.58.547,arm3_eps,2022.2.5,MacIntel,60.0024001,611d3cadcee021ae2fa85df3,64c7fed44a04f777bb1e18ce,64c800d3a7ea0453df128353,right,-1,0.75,0.3714,23,-0.04193807,0.1993,,,,,,237,0,237,0,1,,,,,
,,607251,001,2023-07-31_20h43.58.547,arm3_eps,2022.2.5,MacIntel,60.0024001,611d3cadcee021ae2fa85df3,64c7fed44a04f777bb1e18ce,64c800d3a7ea0453df128353,right,-1,0.75,0.3714,23,-0.051491719,0.166,,,,,,238,0,238,0,1,,,,,
,,607251,001,2023-07-31_20h43.58.547,arm3_eps,2022.2.5,MacIntel,60.0024001,611d3cadcee021ae2fa85df3,64c7fed44a04f777bb1e18ce,64c800d3a7ea0453df128353,right,-1,0.75,0.3714,23,-0.083755354,0.1672,,,,,,239,0,239,0,1,,,,,
,,607251,001,2023-07-31_20h43.58.547,arm3_eps,2022.2.5,MacIntel,60.0024001,611d3cadcee021ae2fa85df3,64c7fed44a04f777bb1e18ce,64c800d3a7ea0453df128353,right,-1,0.75,0.3714,23,-0.090451886,0.1653,,,,,,240,0,240,0,1,,,,,
,,607251,001,2023-07-31_20h43.58.547,arm3_eps,2022.2.5,MacIntel,60.0024001,611d3cadcee021ae2fa85df3,64c7fed44a04f777bb1e18ce,64c800d3a7ea0453df128353,down,-1,0.75,0.3714,24,0,0.4497,,,,,,241,0,241,0,1,,,,,
,,607251,001,2023-07-31_20h43.58.547,arm3_eps,2022.2.5,MacIntel,60.0024001,611d3cadcee021ae2fa85df3,64c7fed44a04f777bb1e18ce,64c800d3a7ea0453df128353,right,-1,0.75,0.3714,24,-0.006383411,0.4631,,,,,,242,0,242,0,1,,,,,
,,607251,001,2023-07-31_20h43.58.547,arm3_eps,2022.2.5,MacIntel,60.0024001,611d3cadcee021ae2fa85df3,64c7fed44a04f777bb1e18ce,64c800d3a7ea0453df128353,right,-1,0.75,0.3714,24,0.00299754,0.1849,,,,,,243,0,243,0,1,,,,,
,,607251,001,2023-07-31_20h43.58.547,arm3_eps,2022.2.5,MacIntel,60.0024001,611d3cadcee021ae2fa85df3,64c7fed44a04f777bb1e18ce,64c800d3a7ea0453df128353,right,-1,0.75,0.3714,24,-0.01520378,0.1677,,,,,,244,0,244,0,1,,,,,
,,607251,001,2023-07-31_20h43.58.547,arm3_eps,2022.2.5,MacIntel,60.0024001,611d3cadcee021ae2fa85df3,64c7fed44a04f777bb1e18ce,64c800d3a7ea0453df128353,right,-1,0.75,0.3714,24,-0.015264115,0.1667,,,,,,245,0,245,0,1,,,,,
,,607251,001,2023-07-31_20h43.58.547,arm3_eps,2022.2.5,MacIntel,60.0024001,611d3cadcee021ae2fa85df3,64c7fed44a04f777bb1e18ce,64c800d3a7ea0453df128353,right,-1,0.75,0.3714,24,-0.020790017,0.1697,,,,,,246,0,246,0,1,,,,,
,,607251,001,2023-07-31_20h43.58.547,arm3_eps,2022.2.5,MacIntel,60.0024001,611d3cadcee021ae2fa85df3,64c7fed44a04f777bb1e18ce,64c800d3a7ea0453df128353,right,-1,0.75,0.3714,24,-0.038803781,0.2012,,,,,,247,0,247,0,1,,,,,
,,607251,001,2023-07-31_20h43.58.547,arm3_eps,2022.2.5,MacIntel,60.0024001,611d3cadcee021ae2fa85df3,64c7fed44a04f777bb1e18ce,64c800d3a7ea0453df128353,down,-1,0.75,0.3714,25,0,0.416,,,,,,248,0,248,0,1,,,,,
,,607251,001,2023-07-31_20h43.58.547,arm3_eps,2022.2.5,MacIntel,60.0024001,611d3cadcee021ae2fa85df3,64c7fed44a04f777bb1e18ce,64c800d3a7ea0453df128353,right,-1,0.75,0.3714,25,-0.016659684,0.48,,,,,,249,0,249,0,1,,,,,
,,607251,001,2023-07-31_20h43.58.547,arm3_eps,2022.2.5,MacIntel,60.0024001,611d3cadcee021ae2fa85df3,64c7fed44a04f777bb1e18ce,64c800d3a7ea0453df128353,right,-1,0.75,0.3714,25,-0.00752019,0.1652,,,,,,250,0,250,0,1,,,,,
,,607251,001,2023-07-31_20h43.58.547,arm3_eps,2022.2.5,MacIntel,60.0024001,611d3cadcee021ae2fa85df3,64c7fed44a04f777bb1e18ce,64c800d3a7ea0453df128353,right,-1,0.75,0.3714,25,-0.001038822,0.1677,,,,,,251,0,251,0,1,,,,,
