space_bar.keys,space_bar.rt,participant,session,date,expName,psychopyVersion,OS,frameRate,PROLIFIC_PID,STUDY_ID,SESSION_ID,resp.keys,state,q_prob,eps_prob,score,price,resp.rt,train.thisRepN,train.thisTrialN,train.thisN,train.thisIndex,train.ran,steps.thisRepN,steps.thisTrialN,steps.thisN,steps.thisIndex,steps.ran,blocks.thisRepN,blocks.thisTrialN,blocks.thisN,blocks.thisIndex,blocks.ran
space,22.1349,6130c63cbc2019e204794c5b,001,2023-07-31_20h44.32.012,arm3_eps,2022.2.5,Win32,59.9268892,6130c63cbc2019e204794c5b,64c7fed44a04f777bb1e18ce,64c800e2fc3b04b02d202fb3,,,,,,,,,,,,,,,,,,,,,,
space,8.1596,6130c63cbc2019e204794c5b,001,2023-07-31_20h44.32.012,arm3_eps,2022.2.5,Win32,59.9268892,6130c63cbc2019e204794c5b,64c7fed44a04f777bb1e18ce,64c800e2fc3b04b02d202fb3,,,,,,,,,,,,,,,,,,,,,,
space,19.3195,6130c63cbc2019e204794c5b,001,2023-07-31_20h44.32.012,arm3_eps,2022.2.5,Win32,59.9268892,6130c63cbc2019e204794c5b,64c7fed44a04f777bb1e18ce,64c800e2fc3b04b02d202fb3,,,,,,,,,,,,,,,,,,,,,,
space,26.9213,6130c63cbc2019e204794c5b,001,2023-07-31_20h44.32.012,arm3_eps,2022.2.5,Win32,59.9268892,6130c63cbc2019e204794c5b,64c7fed44a04f777bb1e18ce,64c800e2fc3b04b02d202fb3,,,,,,,,,,,,,,,,,,,,,,
space,50.5337,6130c63cbc2019e204794c5b,001,2023-07-31_20h44.32.012,arm3_eps,2022.2.5,Win32,59.9268892,6130c63cbc2019e204794c5b,64c7fed44a04f777bb1e18ce,64c800e2fc3b04b02d202fb3,,,,,,,,,,,,,,,,,,,,,,
space,10.7503,6130c63cbc2019e204794c5b,001,2023-07-31_20h44.32.012,arm3_eps,2022.2.5,Win32,59.9268892,6130c63cbc2019e204794c5b,64c7fed44a04f777bb1e18ce,64c800e2fc3b04b02d202fb3,,,,,,,,,,,,,,,,,,,,,,
space,2.3094,6130c63cbc2019e204794c5b,001,2023-07-31_20h44.32.012,arm3_eps,2022.2.5,Win32,59.9268892,6130c63cbc2019e204794c5b,64c7fed44a04f777bb1e18ce,64c800e2fc3b04b02d202fb3,,,,,,,,,,,,,,,,,,,,,,
,,6130c63cbc2019e204794c5b,001,2023-07-31_20h44.32.012,arm3_eps,2022.2.5,Win32,59.9268892,6130c63cbc2019e204794c5b,64c7fed44a04f777bb1e18ce,64c800e2fc3b04b02d202fb3,right,1,1,0.2429,0,0.023516112,5.3046,0,0,0,0,1,,,,,,,,,,
,,6130c63cbc2019e204794c5b,001,2023-07-31_20h44.32.012,arm3_eps,2022.2.5,Win32,59.9268892,6130c63cbc2019e204794c5b,64c7fed44a04f777bb1e18ce,64c800e2fc3b04b02d202fb3,right,1,1,0.2429,0,0.006158643,0.6661,1,0,1,0,1,,,,,,,,,,
,,6130c63cbc2019e204794c5b,001,2023-07-31_20h44.32.012,arm3_eps,2022.2.5,Win32,59.9268892,6130c63cbc2019e204794c5b,64c7fed44a04f777bb1e18ce,64c800e2fc3b04b02d202fb3,right,1,1,0.2429,0,-0.00923963,0.3651,2,0,2,0,1,,,,,,,,,,
,,6130c63cbc2019e204794c5b,001,2023-07-31_20h44.32.012,arm3_eps,2022.2.5,Win32,59.9268892,6130c63cbc2019e204794c5b,64c7fed44a04f777bb1e18ce,64c800e2fc3b04b02d202fb3,right,1,1,0.2429,0,0.013029445,3.02,3,0,3,0,1,,,,,,,,,,
,,6130c63cbc2019e204794c5b,001,2023-07-31_20h44.32.012,arm3_eps,2022.2.5,Win32,59.9268892,6130c63cbc2019e204794c5b,64c7fed44a04f777bb1e18ce,64c800e2fc3b04b02d202fb3,right,1,1,0.2429,0,0.037398044,0.696,4,0,4,0,1,,,,,,,,,,
,,6130c63cbc2019e204794c5b,001,2023-07-31_20h44.32.012,arm3_eps,2022.2.5,Win32,59.9268892,6130c63cbc2019e204794c5b,64c7fed44a04f777bb1e18ce,64c800e2fc3b04b02d202fb3,up,1,1,0.2429,1,0,6.2851,5,0,5,0,1,,,,,,,,,,
,,6130c63cbc2019e204794c5b,001,2023-07-31_20h44.32.012,arm3_eps,2022.2.5,Win32,59.9268892,6130c63cbc2019e204794c5b,64c7fed44a04f777bb1e18ce,64c800e2fc3b04b02d202fb3,right,1,1,0.2429,1,0.00031832,7.5194,6,0,6,0,1,,,,,,,,,,
,,6130c63cbc2019e204794c5b,001,2023-07-31_20h44.32.012,arm3_eps,2022.2.5,Win32,59.9268892,6130c63cbc2019e204794c5b,64c7fed44a04f777bb1e18ce,64c800e2fc3b04b02d202fb3,right,1,1,0.2429,1,0.019561082,0.4168,7,0,7,0,1,,,,,,,,,,
,,6130c63cbc2019e204794c5b,001,2023-07-31_20h44.32.012,arm3_eps,2022.2.5,Win32,59.9268892,6130c63cbc2019e204794c5b,64c7fed44a04f777bb1e18ce,64c800e2fc3b04b02d202fb3,right,1,1,0.2429,1,0.037213137,0.2561,8,0,8,0,1,,,,,,,,,,
,,6130c63cbc2019e204794c5b,001,2023-07-31_20h44.32.012,arm3_eps,2022.2.5,Win32,59.9268892,6130c63cbc2019e204794c5b,64c7fed44a04f777bb1e18ce,64c800e2fc3b04b02d202fb3,right,1,1,0.2429,1,0.02477943,0.2007,9,0,9,0,1,,,,,,,,,,
,,6130c63cbc2019e204794c5b,001,2023-07-31_20h44.32.012,arm3_eps,2022.2.5,Win32,59.9268892,6130c63cbc2019e204794c5b,64c7fed44a04f777bb1e18ce,64c800e2fc3b04b02d202fb3,right,1,1,0.2429,1,0.031367429,0.6285,10,0,10,0,1,,,,,,,,,,
,,6130c63cbc2019e204794c5b,001,2023-07-31_20h44.32.012,arm3_eps,2022.2.5,Win32,59.9268892,6130c63cbc2019e204794c5b,64c7fed44a04f777bb1e18ce,64c800e2fc3b04b02d202fb3,right,1,1,0.2429,1,0.037227442,0.4572,11,0,11,0,1,,,,,,,,,,
,,6130c63cbc2019e204794c5b,001,2023-07-31_20h44.32.012,arm3_eps,2022.2.5,Win32,59.9268892,6130c63cbc2019e204794c5b,64c7fed44a04f777bb1e18ce,64c800e2fc3b04b02d202fb3,right,1,1,0.2429,1,0.051807534,0.5147,12,0,12,0,1,,,,,,,,,,
,,6130c63cbc2019e204794c5b,001,2023-07-31_20h44.32.012,arm3_eps,2022.2.5,Win32,59.9268892,6130c63cbc2019e204794c5b,64c7fed44a04f777bb1e18ce,64c800e2fc3b04b02d202fb3,up,1,1,0.2429,2,0,0.9205,13,0,13,0,1,,,,,,,,,,
,,6130c63cbc2019e204794c5b,001,2023-07-31_20h44.32.012,arm3_eps,2022.2.5,Win32,59.9268892,6130c63cbc2019e204794c5b,64c7fed44a04f777bb1e18ce,64c800e2fc3b04b02d202fb3,right,1,1,0.2429,2,0.041267484,3.6709,14,0,14,0,1,,,,,,,,,,
,,6130c63cbc2019e204794c5b,001,2023-07-31_20h44.32.012,arm3_eps,2022.2.5,Win32,59.9268892,6130c63cbc2019e204794c5b,64c7fed44a04f777bb1e18ce,64c800e2fc3b04b02d202fb3,right,1,1,0.2429,2,0.054358482,0.394,15,0,15,0,1,,,,,,,,,,
,,6130c63cbc2019e204794c5b,001,2023-07-31_20h44.32.012,arm3_eps,2022.2.5,Win32,59.9268892,6130c63cbc2019e204794c5b,64c7fed44a04f777bb1e18ce,64c800e2fc3b04b02d202fb3,right,1,1,0.2429,2,0.055801272,0.2538,16,0,16,0,1,,,,,,,,,,
,,6130c63cbc2019e204794c5b,001,2023-07-31_20h44.32.012,arm3_eps,2022.2.5,Win32,59.9268892,6130c63cbc2019e204794c5b,64c7fed44a04f777bb1e18ce,64c800e2fc3b04b02d202fb3,right,1,1,0.2429,2,0.071468174,0.2013,17,0,17,0,1,,,,,,,,,,
,,6130c63cbc2019e204794c5b,001,2023-07-31_20h44.32.012,arm3_eps,2022.2.5,Win32,59.9268892,6130c63cbc2019e204794c5b,64c7fed44a04f777bb1e18ce,64c800e2fc3b04b02d202fb3,right,1,1,0.2429,2,0.079268414,0.2031,18,0,18,0,1,,,,,,,,,,
,,6130c63cbc2019e204794c5b,001,2023-07-31_20h44.32.012,arm3_eps,2022.2.5,Win32,59.9268892,6130c63cbc2019e204794c5b,64c7fed44a04f777bb1e18ce,64c800e2fc3b04b02d202fb3,right,1,1,0.2429,2,0.123859743,0.3427,19,0,19,0,1,,,,,,,,,,
,,6130c63cbc2019e204794c5b,001,2023-07-31_20h44.32.012,arm3_eps,2022.2.5,Win32,59.9268892,6130c63cbc2019e204794c5b,64c7fed44a04f777bb1e18ce,64c800e2fc3b04b02d202fb3,down,1,1,0.2429,1,0,4.8156,20,0,20,0,1,,,,,,,,,,
,,6130c63cbc2019e204794c5b,001,2023-07-31_20h44.32.012,arm3_eps,2022.2.5,Win32,59.9268892,6130c63cbc2019e204794c5b,64c7fed44a04f777bb1e18ce,64c800e2fc3b04b02d202fb3,right,1,1,0.2429,1,-0.005737102,1.6381,21,0,21,0,1,,,,,,,,,,
,,6130c63cbc2019e204794c5b,001,2023-07-31_20h44.32.012,arm3_eps,2022.2.5,Win32,59.9268892,6130c63cbc2019e204794c5b,64c7fed44a04f777bb1e18ce,64c800e2fc3b04b02d202fb3,right,1,1,0.2429,1,-0.017247415,3.1243,22,0,22,0,1,,,,,,,,,,
,,6130c63cbc2019e204794c5b,001,2023-07-31_20h44.32.012,arm3_eps,2022.2.5,Win32,59.9268892,6130c63cbc2019e204794c5b,64c7fed44a04f777bb1e18ce,64c800e2fc3b04b02d202fb3,right,1,1,0.2429,1,-0.00874783,0.3923,23,0,23,0,1,,,,,,,,,,
,,6130c63cbc2019e204794c5b,001,2023-07-31_20h44.32.012,arm3_eps,2022.2.5,Win32,59.9268892,6130c63cbc2019e204794c5b,64c7fed44a04f777bb1e18ce,64c800e2fc3b04b02d202fb3,right,1,1,0.2429,1,-0.009373917,0.7206,24,0,24,0,1,,,,,,,,,,
,,6130c63cbc2019e204794c5b,001,2023-07-31_20h44.32.012,arm3_eps,2022.2.5,Win32,59.9268892,6130c63cbc2019e204794c5b,64c7fed44a04f777bb1e18ce,64c800e2fc3b04b02d202fb3,right,1,1,0.2429,1,0.000170817,0.9245,25,0,25,0,1,,,,,,,,,,
,,6130c63cbc2019e204794c5b,001,2023-07-31_20h44.32.012,arm3_eps,2022.2.5,Win32,59.9268892,6130c63cbc2019e204794c5b,64c7fed44a04f777bb1e18ce,64c800e2fc3b04b02d202fb3,down,1,1,0.2429,0,0,0.9705,26,0,26,0,1,,,,,,,,,,
,,6130c63cbc2019e204794c5b,001,2023-07-31_20h44.32.012,arm3_eps,2022.2.5,Win32,59.9268892,6130c63cbc2019e204794c5b,64c7fed44a04f777bb1e18ce,64c800e2fc3b04b02d202fb3,right,1,1,0.2429,0,-0.009379746,3.4336,27,0,27,0,1,,,,,,,,,,
,,6130c63cbc2019e204794c5b,001,2023-07-31_20h44.32.012,arm3_eps,2022.2.5,Win32,59.9268892,6130c63cbc2019e204794c5b,64c7fed44a04f777bb1e18ce,64c800e2fc3b04b02d202fb3,right,1,1,0.2429,0,-0.001449871,3.5764,28,0,28,0,1,,,,,,,,,,
,,6130c63cbc2019e204794c5b,001,2023-07-31_20h44.32.012,arm3_eps,2022.2.5,Win32,59.9268892,6130c63cbc2019e204794c5b,64c7fed44a04f777bb1e18ce,64c800e2fc3b04b02d202fb3,right,1,1,0.2429,0,0.008035605,0.6433,29,0,29,0,1,,,,,,,,,,
,,6130c63cbc2019e204794c5b,001,2023-07-31_20h44.32.012,arm3_eps,2022.2.5,Win32,59.9268892,6130c63cbc2019e204794c5b,64c7fed44a04f777bb1e18ce,64c800e2fc3b04b02d202fb3,right,1,1,0.2429,0,0.021739164,0.2098,30,0,30,0,1,,,,,,,,,,
,,6130c63cbc2019e204794c5b,001,2023-07-31_20h44.32.012,arm3_eps,2022.2.5,Win32,59.9268892,6130c63cbc2019e204794c5b,64c7fed44a04f777bb1e18ce,64c800e2fc3b04b02d202fb3,right,1,1,0.2429,0,0.02111188,0.7009,31,0,31,0,1,,,,,,,,,,
,,6130c63cbc2019e204794c5b,001,2023-07-31_20h44.32.012,arm3_eps,2022.2.5,Win32,59.9268892,6130c63cbc2019e204794c5b,64c7fed44a04f777bb1e18ce,64c800e2fc3b04b02d202fb3,down,-1,1,0.2429,-1,0,0.4918,32,0,32,0,1,,,,,,,,,,
,,6130c63cbc2019e204794c5b,001,2023-07-31_20h44.32.012,arm3_eps,2022.2.5,Win32,59.9268892,6130c63cbc2019e204794c5b,64c7fed44a04f777bb1e18ce,64c800e2fc3b04b02d202fb3,up,-1,1,0.2429,-2,0,2.2338,33,0,33,0,1,,,,,,,,,,
,,6130c63cbc2019e204794c5b,001,2023-07-31_20h44.32.012,arm3_eps,2022.2.5,Win32,59.9268892,6130c63cbc2019e204794c5b,64c7fed44a04f777bb1e18ce,64c800e2fc3b04b02d202fb3,down,1,1,0.2429,-1,0,1.3522,34,0,34,0,1,,,,,,,,,,
,,6130c63cbc2019e204794c5b,001,2023-07-31_20h44.32.012,arm3_eps,2022.2.5,Win32,59.9268892,6130c63cbc2019e204794c5b,64c7fed44a04f777bb1e18ce,64c800e2fc3b04b02d202fb3,down,1,1,0.2429,-2,0,2.2006,35,0,35,0,1,,,,,,,,,,
,,6130c63cbc2019e204794c5b,001,2023-07-31_20h44.32.012,arm3_eps,2022.2.5,Win32,59.9268892,6130c63cbc2019e204794c5b,64c7fed44a04f777bb1e18ce,64c800e2fc3b04b02d202fb3,up,1,1,0.2429,-1,0,1.8002,36,0,36,0,1,,,,,,,,,,
,,6130c63cbc2019e204794c5b,001,2023-07-31_20h44.32.012,arm3_eps,2022.2.5,Win32,59.9268892,6130c63cbc2019e204794c5b,64c7fed44a04f777bb1e18ce,64c800e2fc3b04b02d202fb3,down,1,1,0.2429,-2,0,1.8461,37,0,37,0,1,,,,,,,,,,
,,6130c63cbc2019e204794c5b,001,2023-07-31_20h44.32.012,arm3_eps,2022.2.5,Win32,59.9268892,6130c63cbc2019e204794c5b,64c7fed44a04f777bb1e18ce,64c800e2fc3b04b02d202fb3,up,1,1,0.2429,-1,0,1.3417,38,0,38,0,1,,,,,,,,,,
,,6130c63cbc2019e204794c5b,001,2023-07-31_20h44.32.012,arm3_eps,2022.2.5,Win32,59.9268892,6130c63cbc2019e204794c5b,64c7fed44a04f777bb1e18ce,64c800e2fc3b04b02d202fb3,up,1,1,0.2429,0,0,1.5043,39,0,39,0,1,,,,,,,,,,
,,6130c63cbc2019e204794c5b,001,2023-07-31_20h44.32.012,arm3_eps,2022.2.5,Win32,59.9268892,6130c63cbc2019e204794c5b,64c7fed44a04f777bb1e18ce,64c800e2fc3b04b02d202fb3,up,-1,1,0.2429,1,0,1.6978,40,0,40,0,1,,,,,,,,,,
,,6130c63cbc2019e204794c5b,001,2023-07-31_20h44.32.012,arm3_eps,2022.2.5,Win32,59.9268892,6130c63cbc2019e204794c5b,64c7fed44a04f777bb1e18ce,64c800e2fc3b04b02d202fb3,down,1,1,0.2429,2,0,4.9526,41,0,41,0,1,,,,,,,,,,
,,6130c63cbc2019e204794c5b,001,2023-07-31_20h44.32.012,arm3_eps,2022.2.5,Win32,59.9268892,6130c63cbc2019e204794c5b,64c7fed44a04f777bb1e18ce,64c800e2fc3b04b02d202fb3,down,1,1,0.2429,1,0,2.1572,42,0,42,0,1,,,,,,,,,,
,,6130c63cbc2019e204794c5b,001,2023-07-31_20h44.32.012,arm3_eps,2022.2.5,Win32,59.9268892,6130c63cbc2019e204794c5b,64c7fed44a04f777bb1e18ce,64c800e2fc3b04b02d202fb3,up,1,1,0.2429,2,0,0.8781,43,0,43,0,1,,,,,,,,,,
,,6130c63cbc2019e204794c5b,001,2023-07-31_20h44.32.012,arm3_eps,2022.2.5,Win32,59.9268892,6130c63cbc2019e204794c5b,64c7fed44a04f777bb1e18ce,64c800e2fc3b04b02d202fb3,down,1,1,0.2429,1,0,1.2344,44,0,44,0,1,,,,,,,,,,
,,6130c63cbc2019e204794c5b,001,2023-07-31_20h44.32.012,arm3_eps,2022.2.5,Win32,59.9268892,6130c63cbc2019e204794c5b,64c7fed44a04f777bb1e18ce,64c800e2fc3b04b02d202fb3,up,-1,1,0.2429,2,0,0.8846,45,0,45,0,1,,,,,,,,,,
,,6130c63cbc2019e204794c5b,001,2023-07-31_20h44.32.012,arm3_eps,2022.2.5,Win32,59.9268892,6130c63cbc2019e204794c5b,64c7fed44a04f777bb1e18ce,64c800e2fc3b04b02d202fb3,up,-1,1,0.2429,1,0,1.6008,46,0,46,0,1,,,,,,,,,,
,,6130c63cbc2019e204794c5b,001,2023-07-31_20h44.32.012,arm3_eps,2022.2.5,Win32,59.9268892,6130c63cbc2019e204794c5b,64c7fed44a04f777bb1e18ce,64c800e2fc3b04b02d202fb3,down,-1,1,0.2429,2,0,0.9556,47,0,47,0,1,,,,,,,,,,
,,6130c63cbc2019e204794c5b,001,2023-07-31_20h44.32.012,arm3_eps,2022.2.5,Win32,59.9268892,6130c63cbc2019e204794c5b,64c7fed44a04f777bb1e18ce,64c800e2fc3b04b02d202fb3,down,-1,1,0.2429,3,0,1.5001,48,0,48,0,1,,,,,,,,,,
,,6130c63cbc2019e204794c5b,001,2023-07-31_20h44.32.012,arm3_eps,2022.2.5,Win32,59.9268892,6130c63cbc2019e204794c5b,64c7fed44a04f777bb1e18ce,64c800e2fc3b04b02d202fb3,up,-1,1,0.2429,3,0,2.0239,49,0,49,0,1,,,,,,,,,,
space,16.6907,6130c63cbc2019e204794c5b,001,2023-07-31_20h44.32.012,arm3_eps,2022.2.5,Win32,59.9268892,6130c63cbc2019e204794c5b,64c7fed44a04f777bb1e18ce,64c800e2fc3b04b02d202fb3,,,,,,,,,,,,,,,,,,,,,,
space,29.5326,6130c63cbc2019e204794c5b,001,2023-07-31_20h44.32.012,arm3_eps,2022.2.5,Win32,59.9268892,6130c63cbc2019e204794c5b,64c7fed44a04f777bb1e18ce,64c800e2fc3b04b02d202fb3,,,,,,,,,,,,,,,,,,,,,,
space,2.0143,6130c63cbc2019e204794c5b,001,2023-07-31_20h44.32.012,arm3_eps,2022.2.5,Win32,59.9268892,6130c63cbc2019e204794c5b,64c7fed44a04f777bb1e18ce,64c800e2fc3b04b02d202fb3,,,,,,,,,,,,,,,,,,,,,,
space,3.0239,6130c63cbc2019e204794c5b,001,2023-07-31_20h44.32.012,arm3_eps,2022.2.5,Win32,59.9268892,6130c63cbc2019e204794c5b,64c7fed44a04f777bb1e18ce,64c800e2fc3b04b02d202fb3,,,,,,,,,,,,,,,,,,,,,,
space,5.6359,6130c63cbc2019e204794c5b,001,2023-07-31_20h44.32.012,arm3_eps,2022.2.5,Win32,59.9268892,6130c63cbc2019e204794c5b,64c7fed44a04f777bb1e18ce,64c800e2fc3b04b02d202fb3,,,,,,,,,,,,,,,,,,,,,,
space,2.5009,6130c63cbc2019e204794c5b,001,2023-07-31_20h44.32.012,arm3_eps,2022.2.5,Win32,59.9268892,6130c63cbc2019e204794c5b,64c7fed44a04f777bb1e18ce,64c800e2fc3b04b02d202fb3,,,,,,,,,,,,,,,,,,,,,,
,,6130c63cbc2019e204794c5b,001,2023-07-31_20h44.32.012,arm3_eps,2022.2.5,Win32,59.9268892,6130c63cbc2019e204794c5b,64c7fed44a04f777bb1e18ce,64c800e2fc3b04b02d202fb3,right,-1,0.75,0.2429,0,0.017047248,3.0037,0,0,0,0,1,,,,,,,,,,
,,6130c63cbc2019e204794c5b,001,2023-07-31_20h44.32.012,arm3_eps,2022.2.5,Win32,59.9268892,6130c63cbc2019e204794c5b,64c7fed44a04f777bb1e18ce,64c800e2fc3b04b02d202fb3,right,-1,0.75,0.2429,0,0.004498638,1.016,1,0,1,0,1,,,,,,,,,,
,,6130c63cbc2019e204794c5b,001,2023-07-31_20h44.32.012,arm3_eps,2022.2.5,Win32,59.9268892,6130c63cbc2019e204794c5b,64c7fed44a04f777bb1e18ce,64c800e2fc3b04b02d202fb3,right,-1,0.75,0.2429,0,0.017423966,0.7116,2,0,2,0,1,,,,,,,,,,
,,6130c63cbc2019e204794c5b,001,2023-07-31_20h44.32.012,arm3_eps,2022.2.5,Win32,59.9268892,6130c63cbc2019e204794c5b,64c7fed44a04f777bb1e18ce,64c800e2fc3b04b02d202fb3,right,-1,0.75,0.2429,0,0.032981409,0.7115,3,0,3,0,1,,,,,,,,,,
,,6130c63cbc2019e204794c5b,001,2023-07-31_20h44.32.012,arm3_eps,2022.2.5,Win32,59.9268892,6130c63cbc2019e204794c5b,64c7fed44a04f777bb1e18ce,64c800e2fc3b04b02d202fb3,right,-1,0.75,0.2429,0,0.030525656,1.5282,4,0,4,0,1,,,,,,,,,,
,,6130c63cbc2019e204794c5b,001,2023-07-31_20h44.32.012,arm3_eps,2022.2.5,Win32,59.9268892,6130c63cbc2019e204794c5b,64c7fed44a04f777bb1e18ce,64c800e2fc3b04b02d202fb3,right,-1,0.75,0.2429,0,0.03094878,0.5619,5,0,5,0,1,,,,,,,,,,
,,6130c63cbc2019e204794c5b,001,2023-07-31_20h44.32.012,arm3_eps,2022.2.5,Win32,59.9268892,6130c63cbc2019e204794c5b,64c7fed44a04f777bb1e18ce,64c800e2fc3b04b02d202fb3,right,-1,0.75,0.2429,0,0.002670333,2.0624,6,0,6,0,1,,,,,,,,,,
,,6130c63cbc2019e204794c5b,001,2023-07-31_20h44.32.012,arm3_eps,2022.2.5,Win32,59.9268892,6130c63cbc2019e204794c5b,64c7fed44a04f777bb1e18ce,64c800e2fc3b04b02d202fb3,right,-1,0.75,0.2429,0,0.000648589,0.5503,7,0,7,0,1,,,,,,,,,,
,,6130c63cbc2019e204794c5b,001,2023-07-31_20h44.32.012,arm3_eps,2022.2.5,Win32,59.9268892,6130c63cbc2019e204794c5b,64c7fed44a04f777bb1e18ce,64c800e2fc3b04b02d202fb3,up,-1,0.75,0.2429,-1,0,1.546,8,0,8,0,1,,,,,,,,,,
,,6130c63cbc2019e204794c5b,001,2023-07-31_20h44.32.012,arm3_eps,2022.2.5,Win32,59.9268892,6130c63cbc2019e204794c5b,64c7fed44a04f777bb1e18ce,64c800e2fc3b04b02d202fb3,right,-1,0.75,0.2429,-1,0.001522241,3.4838,9,0,9,0,1,,,,,,,,,,
,,6130c63cbc2019e204794c5b,001,2023-07-31_20h44.32.012,arm3_eps,2022.2.5,Win32,59.9268892,6130c63cbc2019e204794c5b,64c7fed44a04f777bb1e18ce,64c800e2fc3b04b02d202fb3,right,-1,0.75,0.2429,-1,0.027851136,0.3764,10,0,10,0,1,,,,,,,,,,
,,6130c63cbc2019e204794c5b,001,2023-07-31_20h44.32.012,arm3_eps,2022.2.5,Win32,59.9268892,6130c63cbc2019e204794c5b,64c7fed44a04f777bb1e18ce,64c800e2fc3b04b02d202fb3,right,-1,0.75,0.2429,-1,0.039379373,0.2514,11,0,11,0,1,,,,,,,,,,
,,6130c63cbc2019e204794c5b,001,2023-07-31_20h44.32.012,arm3_eps,2022.2.5,Win32,59.9268892,6130c63cbc2019e204794c5b,64c7fed44a04f777bb1e18ce,64c800e2fc3b04b02d202fb3,down,-1,0.75,0.2429,-1,0,0.9502,12,0,12,0,1,,,,,,,,,,
,,6130c63cbc2019e204794c5b,001,2023-07-31_20h44.32.012,arm3_eps,2022.2.5,Win32,59.9268892,6130c63cbc2019e204794c5b,64c7fed44a04f777bb1e18ce,64c800e2fc3b04b02d202fb3,up,-1,0.75,0.2429,-2,0,1.9391,13,0,13,0,1,,,,,,,,,,
,,6130c63cbc2019e204794c5b,001,2023-07-31_20h44.32.012,arm3_eps,2022.2.5,Win32,59.9268892,6130c63cbc2019e204794c5b,64c7fed44a04f777bb1e18ce,64c800e2fc3b04b02d202fb3,right,-1,0.75,0.2429,-2,-0.005922533,1.1579,14,0,14,0,1,,,,,,,,,,
,,6130c63cbc2019e204794c5b,001,2023-07-31_20h44.32.012,arm3_eps,2022.2.5,Win32,59.9268892,6130c63cbc2019e204794c5b,64c7fed44a04f777bb1e18ce,64c800e2fc3b04b02d202fb3,right,-1,0.75,0.2429,-2,0.03166421,0.2675,15,0,15,0,1,,,,,,,,,,
,,6130c63cbc2019e204794c5b,001,2023-07-31_20h44.32.012,arm3_eps,2022.2.5,Win32,59.9268892,6130c63cbc2019e204794c5b,64c7fed44a04f777bb1e18ce,64c800e2fc3b04b02d202fb3,right,-1,0.75,0.2429,-2,0.040496518,0.1928,16,0,16,0,1,,,,,,,,,,
,,6130c63cbc2019e204794c5b,001,2023-07-31_20h44.32.012,arm3_eps,2022.2.5,Win32,59.9268892,6130c63cbc2019e204794c5b,64c7fed44a04f777bb1e18ce,64c800e2fc3b04b02d202fb3,right,-1,0.75,0.2429,-2,0.036706982,0.1588,17,0,17,0,1,,,,,,,,,,
,,6130c63cbc2019e204794c5b,001,2023-07-31_20h44.32.012,arm3_eps,2022.2.5,Win32,59.9268892,6130c63cbc2019e204794c5b,64c7fed44a04f777bb1e18ce,64c800e2fc3b04b02d202fb3,right,-1,0.75,0.2429,-2,0.006263616,0.1925,18,0,18,0,1,,,,,,,,,,
,,6130c63cbc2019e204794c5b,001,2023-07-31_20h44.32.012,arm3_eps,2022.2.5,Win32,59.9268892,6130c63cbc2019e204794c5b,64c7fed44a04f777bb1e18ce,64c800e2fc3b04b02d202fb3,down,-1,0.75,0.2429,-2,0,0.2606,19,0,19,0,1,,,,,,,,,,
,,6130c63cbc2019e204794c5b,001,2023-07-31_20h44.32.012,arm3_eps,2022.2.5,Win32,59.9268892,6130c63cbc2019e204794c5b,64c7fed44a04f777bb1e18ce,64c800e2fc3b04b02d202fb3,right,-1,0.75,0.2429,-2,-0.010356966,1.4335,20,0,20,0,1,,,,,,,,,,
,,6130c63cbc2019e204794c5b,001,2023-07-31_20h44.32.012,arm3_eps,2022.2.5,Win32,59.9268892,6130c63cbc2019e204794c5b,64c7fed44a04f777bb1e18ce,64c800e2fc3b04b02d202fb3,right,-1,0.75,0.2429,-2,0.002798125,0.2018,21,0,21,0,1,,,,,,,,,,
,,6130c63cbc2019e204794c5b,001,2023-07-31_20h44.32.012,arm3_eps,2022.2.5,Win32,59.9268892,6130c63cbc2019e204794c5b,64c7fed44a04f777bb1e18ce,64c800e2fc3b04b02d202fb3,right,-1,0.75,0.2429,-2,-0.020753245,0.1943,22,0,22,0,1,,,,,,,,,,
,,6130c63cbc2019e204794c5b,001,2023-07-31_20h44.32.012,arm3_eps,2022.2.5,Win32,59.9268892,6130c63cbc2019e204794c5b,64c7fed44a04f777bb1e18ce,64c800e2fc3b04b02d202fb3,right,-1,0.75,0.2429,-2,-0.05550069,0.1841,23,0,23,0,1,,,,,,,,,,
,,6130c63cbc2019e204794c5b,001,2023-07-31_20h44.32.012,arm3_eps,2022.2.5,Win32,59.9268892,6130c63cbc2019e204794c5b,64c7fed44a04f777bb1e18ce,64c800e2fc3b04b02d202fb3,up,-1,0.75,0.2429,-3,0,0.6167,24,0,24,0,1,,,,,,,,,,
,,6130c63cbc2019e204794c5b,001,2023-07-31_20h44.32.012,arm3_eps,2022.2.5,Win32,59.9268892,6130c63cbc2019e204794c5b,64c7fed44a04f777bb1e18ce,64c800e2fc3b04b02d202fb3,right,-1,0.75,0.2429,-3,-0.003056662,1.0784,25,0,25,0,1,,,,,,,,,,
,,6130c63cbc2019e204794c5b,001,2023-07-31_20h44.32.012,arm3_eps,2022.2.5,Win32,59.9268892,6130c63cbc2019e204794c5b,64c7fed44a04f777bb1e18ce,64c800e2fc3b04b02d202fb3,right,-1,0.75,0.2429,-3,-0.004998705,0.2519,26,0,26,0,1,,,,,,,,,,
,,6130c63cbc2019e204794c5b,001,2023-07-31_20h44.32.012,arm3_eps,2022.2.5,Win32,59.9268892,6130c63cbc2019e204794c5b,64c7fed44a04f777bb1e18ce,64c800e2fc3b04b02d202fb3,right,-1,0.75,0.2429,-3,0.003933529,0.193,27,0,27,0,1,,,,,,,,,,
,,6130c63cbc2019e204794c5b,001,2023-07-31_20h44.32.012,arm3_eps,2022.2.5,Win32,59.9268892,6130c63cbc2019e204794c5b,64c7fed44a04f777bb1e18ce,64c800e2fc3b04b02d202fb3,right,-1,0.75,0.2429,-3,-0.027824071,0.1333,28,0,28,0,1,,,,,,,,,,
,,6130c63cbc2019e204794c5b,001,2023-07-31_20h44.32.012,arm3_eps,2022.2.5,Win32,59.9268892,6130c63cbc2019e204794c5b,64c7fed44a04f777bb1e18ce,64c800e2fc3b04b02d202fb3,right,-1,0.75,0.2429,-3,-0.043972947,0.1694,29,0,29,0,1,,,,,,,,,,
,,6130c63cbc2019e204794c5b,001,2023-07-31_20h44.32.012,arm3_eps,2022.2.5,Win32,59.9268892,6130c63cbc2019e204794c5b,64c7fed44a04f777bb1e18ce,64c800e2fc3b04b02d202fb3,right,-1,0.75,0.2429,-3,-0.034346822,0.2342,30,0,30,0,1,,,,,,,,,,
,,6130c63cbc2019e204794c5b,001,2023-07-31_20h44.32.012,arm3_eps,2022.2.5,Win32,59.9268892,6130c63cbc2019e204794c5b,64c7fed44a04f777bb1e18ce,64c800e2fc3b04b02d202fb3,right,-1,0.75,0.2429,-3,-0.015287835,0.5174,31,0,31,0,1,,,,,,,,,,
,,6130c63cbc2019e204794c5b,001,2023-07-31_20h44.32.012,arm3_eps,2022.2.5,Win32,59.9268892,6130c63cbc2019e204794c5b,64c7fed44a04f777bb1e18ce,64c800e2fc3b04b02d202fb3,right,-1,0.75,0.2429,-3,-0.0585305,0.2676,32,0,32,0,1,,,,,,,,,,
,,6130c63cbc2019e204794c5b,001,2023-07-31_20h44.32.012,arm3_eps,2022.2.5,Win32,59.9268892,6130c63cbc2019e204794c5b,64c7fed44a04f777bb1e18ce,64c800e2fc3b04b02d202fb3,up,-1,0.75,0.2429,-4,0,2.184,33,0,33,0,1,,,,,,,,,,
,,6130c63cbc2019e204794c5b,001,2023-07-31_20h44.32.012,arm3_eps,2022.2.5,Win32,59.9268892,6130c63cbc2019e204794c5b,64c7fed44a04f777bb1e18ce,64c800e2fc3b04b02d202fb3,right,-1,0.75,0.2429,-4,-0.016598967,1.2638,34,0,34,0,1,,,,,,,,,,
,,6130c63cbc2019e204794c5b,001,2023-07-31_20h44.32.012,arm3_eps,2022.2.5,Win32,59.9268892,6130c63cbc2019e204794c5b,64c7fed44a04f777bb1e18ce,64c800e2fc3b04b02d202fb3,right,-1,0.75,0.2429,-4,-0.009351044,0.2177,35,0,35,0,1,,,,,,,,,,
,,6130c63cbc2019e204794c5b,001,2023-07-31_20h44.32.012,arm3_eps,2022.2.5,Win32,59.9268892,6130c63cbc2019e204794c5b,64c7fed44a04f777bb1e18ce,64c800e2fc3b04b02d202fb3,down,-1,0.75,0.2429,-3,0,0.5663,36,0,36,0,1,,,,,,,,,,
,,6130c63cbc2019e204794c5b,001,2023-07-31_20h44.32.012,arm3_eps,2022.2.5,Win32,59.9268892,6130c63cbc2019e204794c5b,64c7fed44a04f777bb1e18ce,64c800e2fc3b04b02d202fb3,right,-1,0.75,0.2429,-3,-0.024468732,1.4154,37,0,37,0,1,,,,,,,,,,
,,6130c63cbc2019e204794c5b,001,2023-07-31_20h44.32.012,arm3_eps,2022.2.5,Win32,59.9268892,6130c63cbc2019e204794c5b,64c7fed44a04f777bb1e18ce,64c800e2fc3b04b02d202fb3,down,-1,0.75,0.2429,-2,0,0.55,38,0,38,0,1,,,,,,,,,,
,,6130c63cbc2019e204794c5b,001,2023-07-31_20h44.32.012,arm3_eps,2022.2.5,Win32,59.9268892,6130c63cbc2019e204794c5b,64c7fed44a04f777bb1e18ce,64c800e2fc3b04b02d202fb3,right,-1,0.75,0.2429,-2,-0.028542524,1.214,39,0,39,0,1,,,,,,,,,,
,,6130c63cbc2019e204794c5b,001,2023-07-31_20h44.32.012,arm3_eps,2022.2.5,Win32,59.9268892,6130c63cbc2019e204794c5b,64c7fed44a04f777bb1e18ce,64c800e2fc3b04b02d202fb3,down,-1,0.75,0.2429,-1,0,0.5513,40,0,40,0,1,,,,,,,,,,
,,6130c63cbc2019e204794c5b,001,2023-07-31_20h44.32.012,arm3_eps,2022.2.5,Win32,59.9268892,6130c63cbc2019e204794c5b,64c7fed44a04f777bb1e18ce,64c800e2fc3b04b02d202fb3,right,-1,0.75,0.2429,-1,-0.006762654,1.3472,41,0,41,0,1,,,,,,,,,,
,,6130c63cbc2019e204794c5b,001,2023-07-31_20h44.32.012,arm3_eps,2022.2.5,Win32,59.9268892,6130c63cbc2019e204794c5b,64c7fed44a04f777bb1e18ce,64c800e2fc3b04b02d202fb3,down,-1,0.75,0.2429,0,0,0.5319,42,0,42,0,1,,,,,,,,,,
,,6130c63cbc2019e204794c5b,001,2023-07-31_20h44.32.012,arm3_eps,2022.2.5,Win32,59.9268892,6130c63cbc2019e204794c5b,64c7fed44a04f777bb1e18ce,64c800e2fc3b04b02d202fb3,right,-1,0.75,0.2429,0,0.009334438,1.2654,43,0,43,0,1,,,,,,,,,,
,,6130c63cbc2019e204794c5b,001,2023-07-31_20h44.32.012,arm3_eps,2022.2.5,Win32,59.9268892,6130c63cbc2019e204794c5b,64c7fed44a04f777bb1e18ce,64c800e2fc3b04b02d202fb3,down,-1,0.75,0.2429,1,0,0.6689,44,0,44,0,1,,,,,,,,,,
,,6130c63cbc2019e204794c5b,001,2023-07-31_20h44.32.012,arm3_eps,2022.2.5,Win32,59.9268892,6130c63cbc2019e204794c5b,64c7fed44a04f777bb1e18ce,64c800e2fc3b04b02d202fb3,right,-1,0.75,0.2429,1,-0.010739242,1.1747,45,0,45,0,1,,,,,,,,,,
,,6130c63cbc2019e204794c5b,001,2023-07-31_20h44.32.012,arm3_eps,2022.2.5,Win32,59.9268892,6130c63cbc2019e204794c5b,64c7fed44a04f777bb1e18ce,64c800e2fc3b04b02d202fb3,down,-1,0.75,0.2429,2,0,0.8522,46,0,46,0,1,,,,,,,,,,
,,6130c63cbc2019e204794c5b,001,2023-07-31_20h44.32.012,arm3_eps,2022.2.5,Win32,59.9268892,6130c63cbc2019e204794c5b,64c7fed44a04f777bb1e18ce,64c800e2fc3b04b02d202fb3,right,-1,0.75,0.2429,2,0.018271721,0.9836,47,0,47,0,1,,,,,,,,,,
,,6130c63cbc2019e204794c5b,001,2023-07-31_20h44.32.012,arm3_eps,2022.2.5,Win32,59.9268892,6130c63cbc2019e204794c5b,64c7fed44a04f777bb1e18ce,64c800e2fc3b04b02d202fb3,down,-1,0.75,0.2429,3,0,0.5835,48,0,48,0,1,,,,,,,,,,
,,6130c63cbc2019e204794c5b,001,2023-07-31_20h44.32.012,arm3_eps,2022.2.5,Win32,59.9268892,6130c63cbc2019e204794c5b,64c7fed44a04f777bb1e18ce,64c800e2fc3b04b02d202fb3,right,-1,0.75,0.2429,3,0.009488905,1.3284,49,0,49,0,1,,,,,,,,,,
space,13.7387,6130c63cbc2019e204794c5b,001,2023-07-31_20h44.32.012,arm3_eps,2022.2.5,Win32,59.9268892,6130c63cbc2019e204794c5b,64c7fed44a04f777bb1e18ce,64c800e2fc3b04b02d202fb3,,,,,,,,,,,,,,,,,,,,,,
space,1.4812,6130c63cbc2019e204794c5b,001,2023-07-31_20h44.32.012,arm3_eps,2022.2.5,Win32,59.9268892,6130c63cbc2019e204794c5b,64c7fed44a04f777bb1e18ce,64c800e2fc3b04b02d202fb3,,,,,,,,,,,,,,,,,,,,,,
space,2.1675,6130c63cbc2019e204794c5b,001,2023-07-31_20h44.32.012,arm3_eps,2022.2.5,Win32,59.9268892,6130c63cbc2019e204794c5b,64c7fed44a04f777bb1e18ce,64c800e2fc3b04b02d202fb3,,,,,,,,,,,,,,,,,,,,,,
,,6130c63cbc2019e204794c5b,001,2023-07-31_20h44.32.012,arm3_eps,2022.2.5,Win32,59.9268892,6130c63cbc2019e204794c5b,64c7fed44a04f777bb1e18ce,64c800e2fc3b04b02d202fb3,right,-1,0.75,0.05,0,-0.008259185,2.7561,0,0,0,0,1,,,,,,,,,,
,,6130c63cbc2019e204794c5b,001,2023-07-31_20h44.32.012,arm3_eps,2022.2.5,Win32,59.9268892,6130c63cbc2019e204794c5b,64c7fed44a04f777bb1e18ce,64c800e2fc3b04b02d202fb3,down,-1,0.75,0.05,1,0,1.3403,1,0,1,0,1,,,,,,,,,,
,,6130c63cbc2019e204794c5b,001,2023-07-31_20h44.32.012,arm3_eps,2022.2.5,Win32,59.9268892,6130c63cbc2019e204794c5b,64c7fed44a04f777bb1e18ce,64c800e2fc3b04b02d202fb3,down,-1,0.75,0.05,2,0,5.6519,2,0,2,0,1,,,,,,,,,,
,,6130c63cbc2019e204794c5b,001,2023-07-31_20h44.32.012,arm3_eps,2022.2.5,Win32,59.9268892,6130c63cbc2019e204794c5b,64c7fed44a04f777bb1e18ce,64c800e2fc3b04b02d202fb3,right,-1,0.75,0.05,2,-0.019609835,1.6283,3,0,3,0,1,,,,,,,,,,
,,6130c63cbc2019e204794c5b,001,2023-07-31_20h44.32.012,arm3_eps,2022.2.5,Win32,59.9268892,6130c63cbc2019e204794c5b,64c7fed44a04f777bb1e18ce,64c800e2fc3b04b02d202fb3,down,-1,0.75,0.05,3,0,0.5888,4,0,4,0,1,,,,,,,,,,
,,6130c63cbc2019e204794c5b,001,2023-07-31_20h44.32.012,arm3_eps,2022.2.5,Win32,59.9268892,6130c63cbc2019e204794c5b,64c7fed44a04f777bb1e18ce,64c800e2fc3b04b02d202fb3,right,-1,0.75,0.05,3,-0.007729989,1.1004,5,0,5,0,1,,,,,,,,,,
,,6130c63cbc2019e204794c5b,001,2023-07-31_20h44.32.012,arm3_eps,2022.2.5,Win32,59.9268892,6130c63cbc2019e204794c5b,64c7fed44a04f777bb1e18ce,64c800e2fc3b04b02d202fb3,down,-1,0.75,0.05,4,0,0.4855,6,0,6,0,1,,,,,,,,,,
,,6130c63cbc2019e204794c5b,001,2023-07-31_20h44.32.012,arm3_eps,2022.2.5,Win32,59.9268892,6130c63cbc2019e204794c5b,64c7fed44a04f777bb1e18ce,64c800e2fc3b04b02d202fb3,right,-1,0.75,0.05,4,-0.008955785,1.2792,7,0,7,0,1,,,,,,,,,,
,,6130c63cbc2019e204794c5b,001,2023-07-31_20h44.32.012,arm3_eps,2022.2.5,Win32,59.9268892,6130c63cbc2019e204794c5b,64c7fed44a04f777bb1e18ce,64c800e2fc3b04b02d202fb3,down,1,0.75,0.05,4,0,0.4686,8,0,8,0,1,,,,,,,,,,
,,6130c63cbc2019e204794c5b,001,2023-07-31_20h44.32.012,arm3_eps,2022.2.5,Win32,59.9268892,6130c63cbc2019e204794c5b,64c7fed44a04f777bb1e18ce,64c800e2fc3b04b02d202fb3,up,1,0.75,0.05,5,0,1.9656,9,0,9,0,1,,,,,,,,,,
,,6130c63cbc2019e204794c5b,001,2023-07-31_20h44.32.012,arm3_eps,2022.2.5,Win32,59.9268892,6130c63cbc2019e204794c5b,64c7fed44a04f777bb1e18ce,64c800e2fc3b04b02d202fb3,up,1,0.75,0.05,6,0,1.9645,10,0,10,0,1,,,,,,,,,,
,,6130c63cbc2019e204794c5b,001,2023-07-31_20h44.32.012,arm3_eps,2022.2.5,Win32,59.9268892,6130c63cbc2019e204794c5b,64c7fed44a04f777bb1e18ce,64c800e2fc3b04b02d202fb3,up,1,0.75,0.05,7,0,2.4452,11,0,11,0,1,,,,,,,,,,
,,6130c63cbc2019e204794c5b,001,2023-07-31_20h44.32.012,arm3_eps,2022.2.5,Win32,59.9268892,6130c63cbc2019e204794c5b,64c7fed44a04f777bb1e18ce,64c800e2fc3b04b02d202fb3,up,1,0.75,0.05,7,0,2.2961,12,0,12,0,1,,,,,,,,,,
,,6130c63cbc2019e204794c5b,001,2023-07-31_20h44.32.012,arm3_eps,2022.2.5,Win32,59.9268892,6130c63cbc2019e204794c5b,64c7fed44a04f777bb1e18ce,64c800e2fc3b04b02d202fb3,down,1,0.75,0.05,6,0,1.5802,13,0,13,0,1,,,,,,,,,,
,,6130c63cbc2019e204794c5b,001,2023-07-31_20h44.32.012,arm3_eps,2022.2.5,Win32,59.9268892,6130c63cbc2019e204794c5b,64c7fed44a04f777bb1e18ce,64c800e2fc3b04b02d202fb3,up,1,0.75,0.05,7,0,1.0377,14,0,14,0,1,,,,,,,,,,
,,6130c63cbc2019e204794c5b,001,2023-07-31_20h44.32.012,arm3_eps,2022.2.5,Win32,59.9268892,6130c63cbc2019e204794c5b,64c7fed44a04f777bb1e18ce,64c800e2fc3b04b02d202fb3,up,1,0.75,0.05,7,0,1.6332,15,0,15,0,1,,,,,,,,,,
,,6130c63cbc2019e204794c5b,001,2023-07-31_20h44.32.012,arm3_eps,2022.2.5,Win32,59.9268892,6130c63cbc2019e204794c5b,64c7fed44a04f777bb1e18ce,64c800e2fc3b04b02d202fb3,up,1,0.75,0.05,8,0,1.3326,16,0,16,0,1,,,,,,,,,,
,,6130c63cbc2019e204794c5b,001,2023-07-31_20h44.32.012,arm3_eps,2022.2.5,Win32,59.9268892,6130c63cbc2019e204794c5b,64c7fed44a04f777bb1e18ce,64c800e2fc3b04b02d202fb3,up,1,0.75,0.05,9,0,1.8294,17,0,17,0,1,,,,,,,,,,
,,6130c63cbc2019e204794c5b,001,2023-07-31_20h44.32.012,arm3_eps,2022.2.5,Win32,59.9268892,6130c63cbc2019e204794c5b,64c7fed44a04f777bb1e18ce,64c800e2fc3b04b02d202fb3,up,1,0.75,0.05,10,0,1.9292,18,0,18,0,1,,,,,,,,,,
,,6130c63cbc2019e204794c5b,001,2023-07-31_20h44.32.012,arm3_eps,2022.2.5,Win32,59.9268892,6130c63cbc2019e204794c5b,64c7fed44a04f777bb1e18ce,64c800e2fc3b04b02d202fb3,up,1,0.75,0.05,11,0,2.0962,19,0,19,0,1,,,,,,,,,,
,,6130c63cbc2019e204794c5b,001,2023-07-31_20h44.32.012,arm3_eps,2022.2.5,Win32,59.9268892,6130c63cbc2019e204794c5b,64c7fed44a04f777bb1e18ce,64c800e2fc3b04b02d202fb3,up,1,0.75,0.05,12,0,1.914,20,0,20,0,1,,,,,,,,,,
,,6130c63cbc2019e204794c5b,001,2023-07-31_20h44.32.012,arm3_eps,2022.2.5,Win32,59.9268892,6130c63cbc2019e204794c5b,64c7fed44a04f777bb1e18ce,64c800e2fc3b04b02d202fb3,up,1,0.75,0.05,13,0,2.0453,21,0,21,0,1,,,,,,,,,,
,,6130c63cbc2019e204794c5b,001,2023-07-31_20h44.32.012,arm3_eps,2022.2.5,Win32,59.9268892,6130c63cbc2019e204794c5b,64c7fed44a04f777bb1e18ce,64c800e2fc3b04b02d202fb3,up,1,0.75,0.05,13,0,1.5625,22,0,22,0,1,,,,,,,,,,
,,6130c63cbc2019e204794c5b,001,2023-07-31_20h44.32.012,arm3_eps,2022.2.5,Win32,59.9268892,6130c63cbc2019e204794c5b,64c7fed44a04f777bb1e18ce,64c800e2fc3b04b02d202fb3,up,1,0.75,0.05,13,0,1.4144,23,0,23,0,1,,,,,,,,,,
,,6130c63cbc2019e204794c5b,001,2023-07-31_20h44.32.012,arm3_eps,2022.2.5,Win32,59.9268892,6130c63cbc2019e204794c5b,64c7fed44a04f777bb1e18ce,64c800e2fc3b04b02d202fb3,up,1,0.75,0.05,14,0,1.5479,24,0,24,0,1,,,,,,,,,,
,,6130c63cbc2019e204794c5b,001,2023-07-31_20h44.32.012,arm3_eps,2022.2.5,Win32,59.9268892,6130c63cbc2019e204794c5b,64c7fed44a04f777bb1e18ce,64c800e2fc3b04b02d202fb3,up,1,0.75,0.05,14,0,1.3185,25,0,25,0,1,,,,,,,,,,
,,6130c63cbc2019e204794c5b,001,2023-07-31_20h44.32.012,arm3_eps,2022.2.5,Win32,59.9268892,6130c63cbc2019e204794c5b,64c7fed44a04f777bb1e18ce,64c800e2fc3b04b02d202fb3,up,-1,0.75,0.05,15,0,1.0834,26,0,26,0,1,,,,,,,,,,
,,6130c63cbc2019e204794c5b,001,2023-07-31_20h44.32.012,arm3_eps,2022.2.5,Win32,59.9268892,6130c63cbc2019e204794c5b,64c7fed44a04f777bb1e18ce,64c800e2fc3b04b02d202fb3,up,1,0.75,0.05,14,0,1.3793,27,0,27,0,1,,,,,,,,,,
,,6130c63cbc2019e204794c5b,001,2023-07-31_20h44.32.012,arm3_eps,2022.2.5,Win32,59.9268892,6130c63cbc2019e204794c5b,64c7fed44a04f777bb1e18ce,64c800e2fc3b04b02d202fb3,down,1,0.75,0.05,14,0,1.2039,28,0,28,0,1,,,,,,,,,,
,,6130c63cbc2019e204794c5b,001,2023-07-31_20h44.32.012,arm3_eps,2022.2.5,Win32,59.9268892,6130c63cbc2019e204794c5b,64c7fed44a04f777bb1e18ce,64c800e2fc3b04b02d202fb3,down,1,0.75,0.05,13,0,0.9833,29,0,29,0,1,,,,,,,,,,
,,6130c63cbc2019e204794c5b,001,2023-07-31_20h44.32.012,arm3_eps,2022.2.5,Win32,59.9268892,6130c63cbc2019e204794c5b,64c7fed44a04f777bb1e18ce,64c800e2fc3b04b02d202fb3,up,1,0.75,0.05,14,0,0.9162,30,0,30,0,1,,,,,,,,,,
,,6130c63cbc2019e204794c5b,001,2023-07-31_20h44.32.012,arm3_eps,2022.2.5,Win32,59.9268892,6130c63cbc2019e204794c5b,64c7fed44a04f777bb1e18ce,64c800e2fc3b04b02d202fb3,up,1,0.75,0.05,15,0,1.2641,31,0,31,0,1,,,,,,,,,,
,,6130c63cbc2019e204794c5b,001,2023-07-31_20h44.32.012,arm3_eps,2022.2.5,Win32,59.9268892,6130c63cbc2019e204794c5b,64c7fed44a04f777bb1e18ce,64c800e2fc3b04b02d202fb3,up,1,0.75,0.05,15,0,1.2306,32,0,32,0,1,,,,,,,,,,
,,6130c63cbc2019e204794c5b,001,2023-07-31_20h44.32.012,arm3_eps,2022.2.5,Win32,59.9268892,6130c63cbc2019e204794c5b,64c7fed44a04f777bb1e18ce,64c800e2fc3b04b02d202fb3,up,1,0.75,0.05,16,0,1.5617,33,0,33,0,1,,,,,,,,,,
,,6130c63cbc2019e204794c5b,001,2023-07-31_20h44.32.012,arm3_eps,2022.2.5,Win32,59.9268892,6130c63cbc2019e204794c5b,64c7fed44a04f777bb1e18ce,64c800e2fc3b04b02d202fb3,up,1,0.75,0.05,17,0,1.3319,34,0,34,0,1,,,,,,,,,,
,,6130c63cbc2019e204794c5b,001,2023-07-31_20h44.32.012,arm3_eps,2022.2.5,Win32,59.9268892,6130c63cbc2019e204794c5b,64c7fed44a04f777bb1e18ce,64c800e2fc3b04b02d202fb3,up,1,0.75,0.05,18,0,1.0984,35,0,35,0,1,,,,,,,,,,
,,6130c63cbc2019e204794c5b,001,2023-07-31_20h44.32.012,arm3_eps,2022.2.5,Win32,59.9268892,6130c63cbc2019e204794c5b,64c7fed44a04f777bb1e18ce,64c800e2fc3b04b02d202fb3,up,1,0.75,0.05,18,0,1.0301,36,0,36,0,1,,,,,,,,,,
,,6130c63cbc2019e204794c5b,001,2023-07-31_20h44.32.012,arm3_eps,2022.2.5,Win32,59.9268892,6130c63cbc2019e204794c5b,64c7fed44a04f777bb1e18ce,64c800e2fc3b04b02d202fb3,up,1,0.75,0.05,18,0,1.2465,37,0,37,0,1,,,,,,,,,,
,,6130c63cbc2019e204794c5b,001,2023-07-31_20h44.32.012,arm3_eps,2022.2.5,Win32,59.9268892,6130c63cbc2019e204794c5b,64c7fed44a04f777bb1e18ce,64c800e2fc3b04b02d202fb3,down,1,0.75,0.05,17,0,1.2113,38,0,38,0,1,,,,,,,,,,
,,6130c63cbc2019e204794c5b,001,2023-07-31_20h44.32.012,arm3_eps,2022.2.5,Win32,59.9268892,6130c63cbc2019e204794c5b,64c7fed44a04f777bb1e18ce,64c800e2fc3b04b02d202fb3,up,1,0.75,0.05,18,0,0.9539,39,0,39,0,1,,,,,,,,,,
,,6130c63cbc2019e204794c5b,001,2023-07-31_20h44.32.012,arm3_eps,2022.2.5,Win32,59.9268892,6130c63cbc2019e204794c5b,64c7fed44a04f777bb1e18ce,64c800e2fc3b04b02d202fb3,up,1,0.75,0.05,18,0,1.2335,40,0,40,0,1,,,,,,,,,,
,,6130c63cbc2019e204794c5b,001,2023-07-31_20h44.32.012,arm3_eps,2022.2.5,Win32,59.9268892,6130c63cbc2019e204794c5b,64c7fed44a04f777bb1e18ce,64c800e2fc3b04b02d202fb3,up,1,0.75,0.05,19,0,1.0985,41,0,41,0,1,,,,,,,,,,
,,6130c63cbc2019e204794c5b,001,2023-07-31_20h44.32.012,arm3_eps,2022.2.5,Win32,59.9268892,6130c63cbc2019e204794c5b,64c7fed44a04f777bb1e18ce,64c800e2fc3b04b02d202fb3,up,1,0.75,0.05,19,0,1.6151,42,0,42,0,1,,,,,,,,,,
,,6130c63cbc2019e204794c5b,001,2023-07-31_20h44.32.012,arm3_eps,2022.2.5,Win32,59.9268892,6130c63cbc2019e204794c5b,64c7fed44a04f777bb1e18ce,64c800e2fc3b04b02d202fb3,up,1,0.75,0.05,20,0,1.3633,43,0,43,0,1,,,,,,,,,,
,,6130c63cbc2019e204794c5b,001,2023-07-31_20h44.32.012,arm3_eps,2022.2.5,Win32,59.9268892,6130c63cbc2019e204794c5b,64c7fed44a04f777bb1e18ce,64c800e2fc3b04b02d202fb3,up,1,0.75,0.05,21,0,1.0793,44,0,44,0,1,,,,,,,,,,
,,6130c63cbc2019e204794c5b,001,2023-07-31_20h44.32.012,arm3_eps,2022.2.5,Win32,59.9268892,6130c63cbc2019e204794c5b,64c7fed44a04f777bb1e18ce,64c800e2fc3b04b02d202fb3,up,1,0.75,0.05,21,0,1.2962,45,0,45,0,1,,,,,,,,,,
,,6130c63cbc2019e204794c5b,001,2023-07-31_20h44.32.012,arm3_eps,2022.2.5,Win32,59.9268892,6130c63cbc2019e204794c5b,64c7fed44a04f777bb1e18ce,64c800e2fc3b04b02d202fb3,up,1,0.75,0.05,22,0,1.2473,46,0,46,0,1,,,,,,,,,,
,,6130c63cbc2019e204794c5b,001,2023-07-31_20h44.32.012,arm3_eps,2022.2.5,Win32,59.9268892,6130c63cbc2019e204794c5b,64c7fed44a04f777bb1e18ce,64c800e2fc3b04b02d202fb3,up,1,0.75,0.05,22,0,2.0318,47,0,47,0,1,,,,,,,,,,
,,6130c63cbc2019e204794c5b,001,2023-07-31_20h44.32.012,arm3_eps,2022.2.5,Win32,59.9268892,6130c63cbc2019e204794c5b,64c7fed44a04f777bb1e18ce,64c800e2fc3b04b02d202fb3,up,1,0.75,0.05,22,0,1.1139,48,0,48,0,1,,,,,,,,,,
,,6130c63cbc2019e204794c5b,001,2023-07-31_20h44.32.012,arm3_eps,2022.2.5,Win32,59.9268892,6130c63cbc2019e204794c5b,64c7fed44a04f777bb1e18ce,64c800e2fc3b04b02d202fb3,up,1,0.75,0.05,22,0,1.3717,49,0,49,0,1,,,,,,,,,,
space,4.6885,6130c63cbc2019e204794c5b,001,2023-07-31_20h44.32.012,arm3_eps,2022.2.5,Win32,59.9268892,6130c63cbc2019e204794c5b,64c7fed44a04f777bb1e18ce,64c800e2fc3b04b02d202fb3,,,,,,,,,,,,,,,,,,,,,,
space,1.1743,6130c63cbc2019e204794c5b,001,2023-07-31_20h44.32.012,arm3_eps,2022.2.5,Win32,59.9268892,6130c63cbc2019e204794c5b,64c7fed44a04f777bb1e18ce,64c800e2fc3b04b02d202fb3,,,,,,,,,,,,,,,,,,,,,,
,,6130c63cbc2019e204794c5b,001,2023-07-31_20h44.32.012,arm3_eps,2022.2.5,Win32,59.9268892,6130c63cbc2019e204794c5b,64c7fed44a04f777bb1e18ce,64c800e2fc3b04b02d202fb3,up,-1,0.75,0.5,1,0,1.6474,0,0,0,0,1,,,,,,,,,,
,,6130c63cbc2019e204794c5b,001,2023-07-31_20h44.32.012,arm3_eps,2022.2.5,Win32,59.9268892,6130c63cbc2019e204794c5b,64c7fed44a04f777bb1e18ce,64c800e2fc3b04b02d202fb3,up,-1,0.75,0.5,0,0,1.2611,1,0,1,0,1,,,,,,,,,,
,,6130c63cbc2019e204794c5b,001,2023-07-31_20h44.32.012,arm3_eps,2022.2.5,Win32,59.9268892,6130c63cbc2019e204794c5b,64c7fed44a04f777bb1e18ce,64c800e2fc3b04b02d202fb3,down,-1,0.75,0.5,1,0,0.972,2,0,2,0,1,,,,,,,,,,
,,6130c63cbc2019e204794c5b,001,2023-07-31_20h44.32.012,arm3_eps,2022.2.5,Win32,59.9268892,6130c63cbc2019e204794c5b,64c7fed44a04f777bb1e18ce,64c800e2fc3b04b02d202fb3,up,-1,0.75,0.5,0,0,1.2361,3,0,3,0,1,,,,,,,,,,
,,6130c63cbc2019e204794c5b,001,2023-07-31_20h44.32.012,arm3_eps,2022.2.5,Win32,59.9268892,6130c63cbc2019e204794c5b,64c7fed44a04f777bb1e18ce,64c800e2fc3b04b02d202fb3,down,1,0.75,0.5,0,0,1.5188,4,0,4,0,1,,,,,,,,,,
,,6130c63cbc2019e204794c5b,001,2023-07-31_20h44.32.012,arm3_eps,2022.2.5,Win32,59.9268892,6130c63cbc2019e204794c5b,64c7fed44a04f777bb1e18ce,64c800e2fc3b04b02d202fb3,down,1,0.75,0.5,-1,0,1.1456,5,0,5,0,1,,,,,,,,,,
,,6130c63cbc2019e204794c5b,001,2023-07-31_20h44.32.012,arm3_eps,2022.2.5,Win32,59.9268892,6130c63cbc2019e204794c5b,64c7fed44a04f777bb1e18ce,64c800e2fc3b04b02d202fb3,up,-1,0.75,0.5,-1,0,1.1289,6,0,6,0,1,,,,,,,,,,
,,6130c63cbc2019e204794c5b,001,2023-07-31_20h44.32.012,arm3_eps,2022.2.5,Win32,59.9268892,6130c63cbc2019e204794c5b,64c7fed44a04f777bb1e18ce,64c800e2fc3b04b02d202fb3,up,1,0.75,0.5,-2,0,1.1511,7,0,7,0,1,,,,,,,,,,
,,6130c63cbc2019e204794c5b,001,2023-07-31_20h44.32.012,arm3_eps,2022.2.5,Win32,59.9268892,6130c63cbc2019e204794c5b,64c7fed44a04f777bb1e18ce,64c800e2fc3b04b02d202fb3,down,-1,0.75,0.5,-3,0,1.5064,8,0,8,0,1,,,,,,,,,,
,,6130c63cbc2019e204794c5b,001,2023-07-31_20h44.32.012,arm3_eps,2022.2.5,Win32,59.9268892,6130c63cbc2019e204794c5b,64c7fed44a04f777bb1e18ce,64c800e2fc3b04b02d202fb3,up,-1,0.75,0.5,-4,0,1.1165,9,0,9,0,1,,,,,,,,,,
,,6130c63cbc2019e204794c5b,001,2023-07-31_20h44.32.012,arm3_eps,2022.2.5,Win32,59.9268892,6130c63cbc2019e204794c5b,64c7fed44a04f777bb1e18ce,64c800e2fc3b04b02d202fb3,up,1,0.75,0.5,-5,0,1.6848,10,0,10,0,1,,,,,,,,,,
,,6130c63cbc2019e204794c5b,001,2023-07-31_20h44.32.012,arm3_eps,2022.2.5,Win32,59.9268892,6130c63cbc2019e204794c5b,64c7fed44a04f777bb1e18ce,64c800e2fc3b04b02d202fb3,down,-1,0.75,0.5,-6,0,1.0902,11,0,11,0,1,,,,,,,,,,
,,6130c63cbc2019e204794c5b,001,2023-07-31_20h44.32.012,arm3_eps,2022.2.5,Win32,59.9268892,6130c63cbc2019e204794c5b,64c7fed44a04f777bb1e18ce,64c800e2fc3b04b02d202fb3,up,-1,0.75,0.5,-6,0,1.0233,12,0,12,0,1,,,,,,,,,,
,,6130c63cbc2019e204794c5b,001,2023-07-31_20h44.32.012,arm3_eps,2022.2.5,Win32,59.9268892,6130c63cbc2019e204794c5b,64c7fed44a04f777bb1e18ce,64c800e2fc3b04b02d202fb3,up,-1,0.75,0.5,-7,0,1.2044,13,0,13,0,1,,,,,,,,,,
,,6130c63cbc2019e204794c5b,001,2023-07-31_20h44.32.012,arm3_eps,2022.2.5,Win32,59.9268892,6130c63cbc2019e204794c5b,64c7fed44a04f777bb1e18ce,64c800e2fc3b04b02d202fb3,down,1,0.75,0.5,-6,0,1.169,14,0,14,0,1,,,,,,,,,,
,,6130c63cbc2019e204794c5b,001,2023-07-31_20h44.32.012,arm3_eps,2022.2.5,Win32,59.9268892,6130c63cbc2019e204794c5b,64c7fed44a04f777bb1e18ce,64c800e2fc3b04b02d202fb3,down,-1,0.75,0.5,-6,0,1.6224,15,0,15,0,1,,,,,,,,,,
,,6130c63cbc2019e204794c5b,001,2023-07-31_20h44.32.012,arm3_eps,2022.2.5,Win32,59.9268892,6130c63cbc2019e204794c5b,64c7fed44a04f777bb1e18ce,64c800e2fc3b04b02d202fb3,up,-1,0.75,0.5,-6,0,1.025,16,0,16,0,1,,,,,,,,,,
,,6130c63cbc2019e204794c5b,001,2023-07-31_20h44.32.012,arm3_eps,2022.2.5,Win32,59.9268892,6130c63cbc2019e204794c5b,64c7fed44a04f777bb1e18ce,64c800e2fc3b04b02d202fb3,down,1,0.75,0.5,-5,0,1.2595,17,0,17,0,1,,,,,,,,,,
,,6130c63cbc2019e204794c5b,001,2023-07-31_20h44.32.012,arm3_eps,2022.2.5,Win32,59.9268892,6130c63cbc2019e204794c5b,64c7fed44a04f777bb1e18ce,64c800e2fc3b04b02d202fb3,down,-1,0.75,0.5,-6,0,1.4713,18,0,18,0,1,,,,,,,,,,
,,6130c63cbc2019e204794c5b,001,2023-07-31_20h44.32.012,arm3_eps,2022.2.5,Win32,59.9268892,6130c63cbc2019e204794c5b,64c7fed44a04f777bb1e18ce,64c800e2fc3b04b02d202fb3,up,1,0.75,0.5,-7,0,1.0347,19,0,19,0,1,,,,,,,,,,
,,6130c63cbc2019e204794c5b,001,2023-07-31_20h44.32.012,arm3_eps,2022.2.5,Win32,59.9268892,6130c63cbc2019e204794c5b,64c7fed44a04f777bb1e18ce,64c800e2fc3b04b02d202fb3,down,1,0.75,0.5,-7,0,1.1768,20,0,20,0,1,,,,,,,,,,
,,6130c63cbc2019e204794c5b,001,2023-07-31_20h44.32.012,arm3_eps,2022.2.5,Win32,59.9268892,6130c63cbc2019e204794c5b,64c7fed44a04f777bb1e18ce,64c800e2fc3b04b02d202fb3,down,-1,0.75,0.5,-8,0,1.2578,21,0,21,0,1,,,,,,,,,,
,,6130c63cbc2019e204794c5b,001,2023-07-31_20h44.32.012,arm3_eps,2022.2.5,Win32,59.9268892,6130c63cbc2019e204794c5b,64c7fed44a04f777bb1e18ce,64c800e2fc3b04b02d202fb3,up,-1,0.75,0.5,-9,0,1.797,22,0,22,0,1,,,,,,,,,,
,,6130c63cbc2019e204794c5b,001,2023-07-31_20h44.32.012,arm3_eps,2022.2.5,Win32,59.9268892,6130c63cbc2019e204794c5b,64c7fed44a04f777bb1e18ce,64c800e2fc3b04b02d202fb3,down,-1,0.75,0.5,-9,0,1.0416,23,0,23,0,1,,,,,,,,,,
,,6130c63cbc2019e204794c5b,001,2023-07-31_20h44.32.012,arm3_eps,2022.2.5,Win32,59.9268892,6130c63cbc2019e204794c5b,64c7fed44a04f777bb1e18ce,64c800e2fc3b04b02d202fb3,down,-1,0.75,0.5,-9,0,1.1364,24,0,24,0,1,,,,,,,,,,
,,6130c63cbc2019e204794c5b,001,2023-07-31_20h44.32.012,arm3_eps,2022.2.5,Win32,59.9268892,6130c63cbc2019e204794c5b,64c7fed44a04f777bb1e18ce,64c800e2fc3b04b02d202fb3,down,-1,0.75,0.5,-9,0,1.1304,25,0,25,0,1,,,,,,,,,,
,,6130c63cbc2019e204794c5b,001,2023-07-31_20h44.32.012,arm3_eps,2022.2.5,Win32,59.9268892,6130c63cbc2019e204794c5b,64c7fed44a04f777bb1e18ce,64c800e2fc3b04b02d202fb3,down,1,0.75,0.5,-8,0,1.5083,26,0,26,0,1,,,,,,,,,,
,,6130c63cbc2019e204794c5b,001,2023-07-31_20h44.32.012,arm3_eps,2022.2.5,Win32,59.9268892,6130c63cbc2019e204794c5b,64c7fed44a04f777bb1e18ce,64c800e2fc3b04b02d202fb3,down,-1,0.75,0.5,-8,0,1.3967,27,0,27,0,1,,,,,,,,,,
,,6130c63cbc2019e204794c5b,001,2023-07-31_20h44.32.012,arm3_eps,2022.2.5,Win32,59.9268892,6130c63cbc2019e204794c5b,64c7fed44a04f777bb1e18ce,64c800e2fc3b04b02d202fb3,down,1,0.75,0.5,-8,0,1.7556,28,0,28,0,1,,,,,,,,,,
,,6130c63cbc2019e204794c5b,001,2023-07-31_20h44.32.012,arm3_eps,2022.2.5,Win32,59.9268892,6130c63cbc2019e204794c5b,64c7fed44a04f777bb1e18ce,64c800e2fc3b04b02d202fb3,up,1,0.75,0.5,-7,0,1.0201,29,0,29,0,1,,,,,,,,,,
,,6130c63cbc2019e204794c5b,001,2023-07-31_20h44.32.012,arm3_eps,2022.2.5,Win32,59.9268892,6130c63cbc2019e204794c5b,64c7fed44a04f777bb1e18ce,64c800e2fc3b04b02d202fb3,down,1,0.75,0.5,-7,0,0.3692,30,0,30,0,1,,,,,,,,,,
,,6130c63cbc2019e204794c5b,001,2023-07-31_20h44.32.012,arm3_eps,2022.2.5,Win32,59.9268892,6130c63cbc2019e204794c5b,64c7fed44a04f777bb1e18ce,64c800e2fc3b04b02d202fb3,up,1,0.75,0.5,-6,0,0.3557,31,0,31,0,1,,,,,,,,,,
,,6130c63cbc2019e204794c5b,001,2023-07-31_20h44.32.012,arm3_eps,2022.2.5,Win32,59.9268892,6130c63cbc2019e204794c5b,64c7fed44a04f777bb1e18ce,64c800e2fc3b04b02d202fb3,down,1,0.75,0.5,-6,0,0.3957,32,0,32,0,1,,,,,,,,,,
,,6130c63cbc2019e204794c5b,001,2023-07-31_20h44.32.012,arm3_eps,2022.2.5,Win32,59.9268892,6130c63cbc2019e204794c5b,64c7fed44a04f777bb1e18ce,64c800e2fc3b04b02d202fb3,up,-1,0.75,0.5,-5,0,0.378,33,0,33,0,1,,,,,,,,,,
,,6130c63cbc2019e204794c5b,001,2023-07-31_20h44.32.012,arm3_eps,2022.2.5,Win32,59.9268892,6130c63cbc2019e204794c5b,64c7fed44a04f777bb1e18ce,64c800e2fc3b04b02d202fb3,down,1,0.75,0.5,-4,0,0.4075,34,0,34,0,1,,,,,,,,,,
,,6130c63cbc2019e204794c5b,001,2023-07-31_20h44.32.012,arm3_eps,2022.2.5,Win32,59.9268892,6130c63cbc2019e204794c5b,64c7fed44a04f777bb1e18ce,64c800e2fc3b04b02d202fb3,up,1,0.75,0.5,-4,0,0.3362,35,0,35,0,1,,,,,,,,,,
,,6130c63cbc2019e204794c5b,001,2023-07-31_20h44.32.012,arm3_eps,2022.2.5,Win32,59.9268892,6130c63cbc2019e204794c5b,64c7fed44a04f777bb1e18ce,64c800e2fc3b04b02d202fb3,down,1,0.75,0.5,-5,0,0.4053,36,0,36,0,1,,,,,,,,,,
,,6130c63cbc2019e204794c5b,001,2023-07-31_20h44.32.012,arm3_eps,2022.2.5,Win32,59.9268892,6130c63cbc2019e204794c5b,64c7fed44a04f777bb1e18ce,64c800e2fc3b04b02d202fb3,up,-1,0.75,0.5,-4,0,0.3292,37,0,37,0,1,,,,,,,,,,
,,6130c63cbc2019e204794c5b,001,2023-07-31_20h44.32.012,arm3_eps,2022.2.5,Win32,59.9268892,6130c63cbc2019e204794c5b,64c7fed44a04f777bb1e18ce,64c800e2fc3b04b02d202fb3,down,1,0.75,0.5,-3,0,0.4227,38,0,38,0,1,,,,,,,,,,
,,6130c63cbc2019e204794c5b,001,2023-07-31_20h44.32.012,arm3_eps,2022.2.5,Win32,59.9268892,6130c63cbc2019e204794c5b,64c7fed44a04f777bb1e18ce,64c800e2fc3b04b02d202fb3,up,1,0.75,0.5,-2,0,0.3601,39,0,39,0,1,,,,,,,,,,
,,6130c63cbc2019e204794c5b,001,2023-07-31_20h44.32.012,arm3_eps,2022.2.5,Win32,59.9268892,6130c63cbc2019e204794c5b,64c7fed44a04f777bb1e18ce,64c800e2fc3b04b02d202fb3,down,1,0.75,0.5,-2,0,0.3738,40,0,40,0,1,,,,,,,,,,
,,6130c63cbc2019e204794c5b,001,2023-07-31_20h44.32.012,arm3_eps,2022.2.5,Win32,59.9268892,6130c63cbc2019e204794c5b,64c7fed44a04f777bb1e18ce,64c800e2fc3b04b02d202fb3,up,1,0.75,0.5,-1,0,0.4046,41,0,41,0,1,,,,,,,,,,
,,6130c63cbc2019e204794c5b,001,2023-07-31_20h44.32.012,arm3_eps,2022.2.5,Win32,59.9268892,6130c63cbc2019e204794c5b,64c7fed44a04f777bb1e18ce,64c800e2fc3b04b02d202fb3,up,1,0.75,0.5,0,0,0.3448,42,0,42,0,1,,,,,,,,,,
,,6130c63cbc2019e204794c5b,001,2023-07-31_20h44.32.012,arm3_eps,2022.2.5,Win32,59.9268892,6130c63cbc2019e204794c5b,64c7fed44a04f777bb1e18ce,64c800e2fc3b04b02d202fb3,up,-1,0.75,0.5,1,0,0.306,43,0,43,0,1,,,,,,,,,,
,,6130c63cbc2019e204794c5b,001,2023-07-31_20h44.32.012,arm3_eps,2022.2.5,Win32,59.9268892,6130c63cbc2019e204794c5b,64c7fed44a04f777bb1e18ce,64c800e2fc3b04b02d202fb3,up,-1,0.75,0.5,0,0,0.3413,44,0,44,0,1,,,,,,,,,,
,,6130c63cbc2019e204794c5b,001,2023-07-31_20h44.32.012,arm3_eps,2022.2.5,Win32,59.9268892,6130c63cbc2019e204794c5b,64c7fed44a04f777bb1e18ce,64c800e2fc3b04b02d202fb3,down,1,0.75,0.5,1,0,1.8557,45,0,45,0,1,,,,,,,,,,
,,6130c63cbc2019e204794c5b,001,2023-07-31_20h44.32.012,arm3_eps,2022.2.5,Win32,59.9268892,6130c63cbc2019e204794c5b,64c7fed44a04f777bb1e18ce,64c800e2fc3b04b02d202fb3,down,-1,0.75,0.5,0,0,1.2386,46,0,46,0,1,,,,,,,,,,
,,6130c63cbc2019e204794c5b,001,2023-07-31_20h44.32.012,arm3_eps,2022.2.5,Win32,59.9268892,6130c63cbc2019e204794c5b,64c7fed44a04f777bb1e18ce,64c800e2fc3b04b02d202fb3,up,-1,0.75,0.5,0,0,0.8806,47,0,47,0,1,,,,,,,,,,
,,6130c63cbc2019e204794c5b,001,2023-07-31_20h44.32.012,arm3_eps,2022.2.5,Win32,59.9268892,6130c63cbc2019e204794c5b,64c7fed44a04f777bb1e18ce,64c800e2fc3b04b02d202fb3,up,-1,0.75,0.5,-1,0,0.9565,48,0,48,0,1,,,,,,,,,,
,,6130c63cbc2019e204794c5b,001,2023-07-31_20h44.32.012,arm3_eps,2022.2.5,Win32,59.9268892,6130c63cbc2019e204794c5b,64c7fed44a04f777bb1e18ce,64c800e2fc3b04b02d202fb3,down,-1,0.75,0.5,-1,0,1.0245,49,0,49,0,1,,,,,,,,,,
space,2.793,6130c63cbc2019e204794c5b,001,2023-07-31_20h44.32.012,arm3_eps,2022.2.5,Win32,59.9268892,6130c63cbc2019e204794c5b,64c7fed44a04f777bb1e18ce,64c800e2fc3b04b02d202fb3,,,,,,,,,,,,,,,,,,,,,,
space,3.7157,6130c63cbc2019e204794c5b,001,2023-07-31_20h44.32.012,arm3_eps,2022.2.5,Win32,59.9268892,6130c63cbc2019e204794c5b,64c7fed44a04f777bb1e18ce,64c800e2fc3b04b02d202fb3,up,1,0.75,0.3071,0,0,4.212,,,,,,0,0,0,0,1,,,,,
,,6130c63cbc2019e204794c5b,001,2023-07-31_20h44.32.012,arm3_eps,2022.2.5,Win32,59.9268892,6130c63cbc2019e204794c5b,64c7fed44a04f777bb1e18ce,64c800e2fc3b04b02d202fb3,up,-1,0.75,0.3071,1,0,1.7805,,,,,,1,0,1,0,1,,,,,
,,6130c63cbc2019e204794c5b,001,2023-07-31_20h44.32.012,arm3_eps,2022.2.5,Win32,59.9268892,6130c63cbc2019e204794c5b,64c7fed44a04f777bb1e18ce,64c800e2fc3b04b02d202fb3,up,1,0.75,0.3071,0,0,1.6861,,,,,,2,0,2,0,1,,,,,
,,6130c63cbc2019e204794c5b,001,2023-07-31_20h44.32.012,arm3_eps,2022.2.5,Win32,59.9268892,6130c63cbc2019e204794c5b,64c7fed44a04f777bb1e18ce,64c800e2fc3b04b02d202fb3,down,1,0.75,0.3071,-1,0,0.9932,,,,,,3,0,3,0,1,,,,,
,,6130c63cbc2019e204794c5b,001,2023-07-31_20h44.32.012,arm3_eps,2022.2.5,Win32,59.9268892,6130c63cbc2019e204794c5b,64c7fed44a04f777bb1e18ce,64c800e2fc3b04b02d202fb3,up,-1,0.75,0.3071,0,0,0.9378,,,,,,4,0,4,0,1,,,,,
,,6130c63cbc2019e204794c5b,001,2023-07-31_20h44.32.012,arm3_eps,2022.2.5,Win32,59.9268892,6130c63cbc2019e204794c5b,64c7fed44a04f777bb1e18ce,64c800e2fc3b04b02d202fb3,up,1,0.75,0.3071,-1,0,1.1385,,,,,,5,0,5,0,1,,,,,
,,6130c63cbc2019e204794c5b,001,2023-07-31_20h44.32.012,arm3_eps,2022.2.5,Win32,59.9268892,6130c63cbc2019e204794c5b,64c7fed44a04f777bb1e18ce,64c800e2fc3b04b02d202fb3,up,1,0.75,0.3071,0,0,1.4533,,,,,,6,0,6,0,1,,,,,
,,6130c63cbc2019e204794c5b,001,2023-07-31_20h44.32.012,arm3_eps,2022.2.5,Win32,59.9268892,6130c63cbc2019e204794c5b,64c7fed44a04f777bb1e18ce,64c800e2fc3b04b02d202fb3,up,-1,0.75,0.3071,1,0,0.5383,,,,,,7,0,7,0,1,,,,,
,,6130c63cbc2019e204794c5b,001,2023-07-31_20h44.32.012,arm3_eps,2022.2.5,Win32,59.9268892,6130c63cbc2019e204794c5b,64c7fed44a04f777bb1e18ce,64c800e2fc3b04b02d202fb3,down,1,0.75,0.3071,2,0,0.2859,,,,,,8,0,8,0,1,,,,,
,,6130c63cbc2019e204794c5b,001,2023-07-31_20h44.32.012,arm3_eps,2022.2.5,Win32,59.9268892,6130c63cbc2019e204794c5b,64c7fed44a04f777bb1e18ce,64c800e2fc3b04b02d202fb3,up,-1,0.75,0.3071,3,0,0.2074,,,,,,9,0,9,0,1,,,,,
,,6130c63cbc2019e204794c5b,001,2023-07-31_20h44.32.012,arm3_eps,2022.2.5,Win32,59.9268892,6130c63cbc2019e204794c5b,64c7fed44a04f777bb1e18ce,64c800e2fc3b04b02d202fb3,down,-1,0.75,0.3071,4,0,0.2133,,,,,,10,0,10,0,1,,,,,
,,6130c63cbc2019e204794c5b,001,2023-07-31_20h44.32.012,arm3_eps,2022.2.5,Win32,59.9268892,6130c63cbc2019e204794c5b,64c7fed44a04f777bb1e18ce,64c800e2fc3b04b02d202fb3,up,-1,0.75,0.3071,3,0,0.2074,,,,,,11,0,11,0,1,,,,,
,,6130c63cbc2019e204794c5b,001,2023-07-31_20h44.32.012,arm3_eps,2022.2.5,Win32,59.9268892,6130c63cbc2019e204794c5b,64c7fed44a04f777bb1e18ce,64c800e2fc3b04b02d202fb3,down,1,0.75,0.3071,3,0,0.2139,,,,,,12,0,12,0,1,,,,,
,,6130c63cbc2019e204794c5b,001,2023-07-31_20h44.32.012,arm3_eps,2022.2.5,Win32,59.9268892,6130c63cbc2019e204794c5b,64c7fed44a04f777bb1e18ce,64c800e2fc3b04b02d202fb3,up,1,0.75,0.3071,4,0,0.2027,,,,,,13,0,13,0,1,,,,,
,,6130c63cbc2019e204794c5b,001,2023-07-31_20h44.32.012,arm3_eps,2022.2.5,Win32,59.9268892,6130c63cbc2019e204794c5b,64c7fed44a04f777bb1e18ce,64c800e2fc3b04b02d202fb3,down,1,0.75,0.3071,3,0,0.204,,,,,,14,0,14,0,1,,,,,
,,6130c63cbc2019e204794c5b,001,2023-07-31_20h44.32.012,arm3_eps,2022.2.5,Win32,59.9268892,6130c63cbc2019e204794c5b,64c7fed44a04f777bb1e18ce,64c800e2fc3b04b02d202fb3,up,1,0.75,0.3071,4,0,0.2129,,,,,,15,0,15,0,1,,,,,
,,6130c63cbc2019e204794c5b,001,2023-07-31_20h44.32.012,arm3_eps,2022.2.5,Win32,59.9268892,6130c63cbc2019e204794c5b,64c7fed44a04f777bb1e18ce,64c800e2fc3b04b02d202fb3,up,-1,0.75,0.3071,4,0,0.1893,,,,,,16,0,16,0,1,,,,,
,,6130c63cbc2019e204794c5b,001,2023-07-31_20h44.32.012,arm3_eps,2022.2.5,Win32,59.9268892,6130c63cbc2019e204794c5b,64c7fed44a04f777bb1e18ce,64c800e2fc3b04b02d202fb3,up,-1,0.75,0.3071,3,0,0.179,,,,,,17,0,17,0,1,,,,,
,,6130c63cbc2019e204794c5b,001,2023-07-31_20h44.32.012,arm3_eps,2022.2.5,Win32,59.9268892,6130c63cbc2019e204794c5b,64c7fed44a04f777bb1e18ce,64c800e2fc3b04b02d202fb3,up,-1,0.75,0.3071,2,0,0.1578,,,,,,18,0,18,0,1,,,,,
,,6130c63cbc2019e204794c5b,001,2023-07-31_20h44.32.012,arm3_eps,2022.2.5,Win32,59.9268892,6130c63cbc2019e204794c5b,64c7fed44a04f777bb1e18ce,64c800e2fc3b04b02d202fb3,up,-1,0.75,0.3071,1,0,0.1863,,,,,,19,0,19,0,1,,,,,
,,6130c63cbc2019e204794c5b,001,2023-07-31_20h44.32.012,arm3_eps,2022.2.5,Win32,59.9268892,6130c63cbc2019e204794c5b,64c7fed44a04f777bb1e18ce,64c800e2fc3b04b02d202fb3,up,1,0.75,0.3071,0,0,0.1655,,,,,,20,0,20,0,1,,,,,
,,6130c63cbc2019e204794c5b,001,2023-07-31_20h44.32.012,arm3_eps,2022.2.5,Win32,59.9268892,6130c63cbc2019e204794c5b,64c7fed44a04f777bb1e18ce,64c800e2fc3b04b02d202fb3,down,1,0.75,0.3071,0,0,0.224,,,,,,21,0,21,0,1,,,,,
,,6130c63cbc2019e204794c5b,001,2023-07-31_20h44.32.012,arm3_eps,2022.2.5,Win32,59.9268892,6130c63cbc2019e204794c5b,64c7fed44a04f777bb1e18ce,64c800e2fc3b04b02d202fb3,down,1,0.75,0.3071,0,0,0.2067,,,,,,22,0,22,0,1,,,,,
,,6130c63cbc2019e204794c5b,001,2023-07-31_20h44.32.012,arm3_eps,2022.2.5,Win32,59.9268892,6130c63cbc2019e204794c5b,64c7fed44a04f777bb1e18ce,64c800e2fc3b04b02d202fb3,down,1,0.75,0.3071,-1,0,0.1887,,,,,,23,0,23,0,1,,,,,
,,6130c63cbc2019e204794c5b,001,2023-07-31_20h44.32.012,arm3_eps,2022.2.5,Win32,59.9268892,6130c63cbc2019e204794c5b,64c7fed44a04f777bb1e18ce,64c800e2fc3b04b02d202fb3,down,1,0.75,0.3071,-2,0,0.2066,,,,,,24,0,24,0,1,,,,,
,,6130c63cbc2019e204794c5b,001,2023-07-31_20h44.32.012,arm3_eps,2022.2.5,Win32,59.9268892,6130c63cbc2019e204794c5b,64c7fed44a04f777bb1e18ce,64c800e2fc3b04b02d202fb3,down,1,0.75,0.3071,-2,0,0.166,,,,,,25,0,25,0,1,,,,,
,,6130c63cbc2019e204794c5b,001,2023-07-31_20h44.32.012,arm3_eps,2022.2.5,Win32,59.9268892,6130c63cbc2019e204794c5b,64c7fed44a04f777bb1e18ce,64c800e2fc3b04b02d202fb3,up,1,0.75,0.3071,-2,0,0.206,,,,,,26,0,26,0,1,,,,,
,,6130c63cbc2019e204794c5b,001,2023-07-31_20h44.32.012,arm3_eps,2022.2.5,Win32,59.9268892,6130c63cbc2019e204794c5b,64c7fed44a04f777bb1e18ce,64c800e2fc3b04b02d202fb3,down,1,0.75,0.3071,-3,0,0.2564,,,,,,27,0,27,0,1,,,,,
,,6130c63cbc2019e204794c5b,001,2023-07-31_20h44.32.012,arm3_eps,2022.2.5,Win32,59.9268892,6130c63cbc2019e204794c5b,64c7fed44a04f777bb1e18ce,64c800e2fc3b04b02d202fb3,down,1,0.75,0.3071,-3,0,0.205,,,,,,28,0,28,0,1,,,,,
,,6130c63cbc2019e204794c5b,001,2023-07-31_20h44.32.012,arm3_eps,2022.2.5,Win32,59.9268892,6130c63cbc2019e204794c5b,64c7fed44a04f777bb1e18ce,64c800e2fc3b04b02d202fb3,down,1,0.75,0.3071,-3,0,0.1926,,,,,,29,0,29,0,1,,,,,
,,6130c63cbc2019e204794c5b,001,2023-07-31_20h44.32.012,arm3_eps,2022.2.5,Win32,59.9268892,6130c63cbc2019e204794c5b,64c7fed44a04f777bb1e18ce,64c800e2fc3b04b02d202fb3,down,-1,0.75,0.3071,-4,0,0.1879,,,,,,30,0,30,0,1,,,,,
,,6130c63cbc2019e204794c5b,001,2023-07-31_20h44.32.012,arm3_eps,2022.2.5,Win32,59.9268892,6130c63cbc2019e204794c5b,64c7fed44a04f777bb1e18ce,64c800e2fc3b04b02d202fb3,down,-1,0.75,0.3071,-3,0,0.2059,,,,,,31,0,31,0,1,,,,,
,,6130c63cbc2019e204794c5b,001,2023-07-31_20h44.32.012,arm3_eps,2022.2.5,Win32,59.9268892,6130c63cbc2019e204794c5b,64c7fed44a04f777bb1e18ce,64c800e2fc3b04b02d202fb3,up,-1,0.75,0.3071,-4,0,0.2898,,,,,,32,0,32,0,1,,,,,
,,6130c63cbc2019e204794c5b,001,2023-07-31_20h44.32.012,arm3_eps,2022.2.5,Win32,59.9268892,6130c63cbc2019e204794c5b,64c7fed44a04f777bb1e18ce,64c800e2fc3b04b02d202fb3,up,-1,0.75,0.3071,-5,0,0.5236,,,,,,33,0,33,0,1,,,,,
,,6130c63cbc2019e204794c5b,001,2023-07-31_20h44.32.012,arm3_eps,2022.2.5,Win32,59.9268892,6130c63cbc2019e204794c5b,64c7fed44a04f777bb1e18ce,64c800e2fc3b04b02d202fb3,up,-1,0.75,0.3071,-5,0,1.3135,,,,,,34,0,34,0,1,,,,,
,,6130c63cbc2019e204794c5b,001,2023-07-31_20h44.32.012,arm3_eps,2022.2.5,Win32,59.9268892,6130c63cbc2019e204794c5b,64c7fed44a04f777bb1e18ce,64c800e2fc3b04b02d202fb3,up,-1,0.75,0.3071,-6,0,0.154,,,,,,35,0,35,0,1,,,,,
,,6130c63cbc2019e204794c5b,001,2023-07-31_20h44.32.012,arm3_eps,2022.2.5,Win32,59.9268892,6130c63cbc2019e204794c5b,64c7fed44a04f777bb1e18ce,64c800e2fc3b04b02d202fb3,down,-1,0.75,0.3071,-5,0,0.3857,,,,,,36,0,36,0,1,,,,,
,,6130c63cbc2019e204794c5b,001,2023-07-31_20h44.32.012,arm3_eps,2022.2.5,Win32,59.9268892,6130c63cbc2019e204794c5b,64c7fed44a04f777bb1e18ce,64c800e2fc3b04b02d202fb3,down,1,0.75,0.3071,-4,0,0.472,,,,,,37,0,37,0,1,,,,,
,,6130c63cbc2019e204794c5b,001,2023-07-31_20h44.32.012,arm3_eps,2022.2.5,Win32,59.9268892,6130c63cbc2019e204794c5b,64c7fed44a04f777bb1e18ce,64c800e2fc3b04b02d202fb3,down,1,0.75,0.3071,-5,0,0.1966,,,,,,38,0,38,0,1,,,,,
,,6130c63cbc2019e204794c5b,001,2023-07-31_20h44.32.012,arm3_eps,2022.2.5,Win32,59.9268892,6130c63cbc2019e204794c5b,64c7fed44a04f777bb1e18ce,64c800e2fc3b04b02d202fb3,down,1,0.75,0.3071,-6,0,0.3307,,,,,,39,0,39,0,1,,,,,
,,6130c63cbc2019e204794c5b,001,2023-07-31_20h44.32.012,arm3_eps,2022.2.5,Win32,59.9268892,6130c63cbc2019e204794c5b,64c7fed44a04f777bb1e18ce,64c800e2fc3b04b02d202fb3,up,1,0.75,0.3071,-5,0,0.3896,,,,,,40,0,40,0,1,,,,,
,,6130c63cbc2019e204794c5b,001,2023-07-31_20h44.32.012,arm3_eps,2022.2.5,Win32,59.9268892,6130c63cbc2019e204794c5b,64c7fed44a04f777bb1e18ce,64c800e2fc3b04b02d202fb3,down,1,0.75,0.3071,-6,0,0.4141,,,,,,41,0,41,0,1,,,,,
,,6130c63cbc2019e204794c5b,001,2023-07-31_20h44.32.012,arm3_eps,2022.2.5,Win32,59.9268892,6130c63cbc2019e204794c5b,64c7fed44a04f777bb1e18ce,64c800e2fc3b04b02d202fb3,up,-1,0.75,0.3071,-5,0,0.2397,,,,,,42,0,42,0,1,,,,,
,,6130c63cbc2019e204794c5b,001,2023-07-31_20h44.32.012,arm3_eps,2022.2.5,Win32,59.9268892,6130c63cbc2019e204794c5b,64c7fed44a04f777bb1e18ce,64c800e2fc3b04b02d202fb3,down,1,0.75,0.3071,-4,0,0.2238,,,,,,43,0,43,0,1,,,,,
,,6130c63cbc2019e204794c5b,001,2023-07-31_20h44.32.012,arm3_eps,2022.2.5,Win32,59.9268892,6130c63cbc2019e204794c5b,64c7fed44a04f777bb1e18ce,64c800e2fc3b04b02d202fb3,up,-1,0.75,0.3071,-3,0,0.2,,,,,,44,0,44,0,1,,,,,
,,6130c63cbc2019e204794c5b,001,2023-07-31_20h44.32.012,arm3_eps,2022.2.5,Win32,59.9268892,6130c63cbc2019e204794c5b,64c7fed44a04f777bb1e18ce,64c800e2fc3b04b02d202fb3,down,-1,0.75,0.3071,-2,0,0.2052,,,,,,45,0,45,0,1,,,,,
,,6130c63cbc2019e204794c5b,001,2023-07-31_20h44.32.012,arm3_eps,2022.2.5,Win32,59.9268892,6130c63cbc2019e204794c5b,64c7fed44a04f777bb1e18ce,64c800e2fc3b04b02d202fb3,up,-1,0.75,0.3071,-3,0,0.2026,,,,,,46,0,46,0,1,,,,,
,,6130c63cbc2019e204794c5b,001,2023-07-31_20h44.32.012,arm3_eps,2022.2.5,Win32,59.9268892,6130c63cbc2019e204794c5b,64c7fed44a04f777bb1e18ce,64c800e2fc3b04b02d202fb3,down,-1,0.75,0.3071,-3,0,0.2143,,,,,,47,0,47,0,1,,,,,
,,6130c63cbc2019e204794c5b,001,2023-07-31_20h44.32.012,arm3_eps,2022.2.5,Win32,59.9268892,6130c63cbc2019e204794c5b,64c7fed44a04f777bb1e18ce,64c800e2fc3b04b02d202fb3,up,-1,0.75,0.3071,-4,0,0.2068,,,,,,48,0,48,0,1,,,,,
,,6130c63cbc2019e204794c5b,001,2023-07-31_20h44.32.012,arm3_eps,2022.2.5,Win32,59.9268892,6130c63cbc2019e204794c5b,64c7fed44a04f777bb1e18ce,64c800e2fc3b04b02d202fb3,down,-1,0.75,0.3071,-4,0,0.2061,,,,,,49,0,49,0,1,,,,,
,,6130c63cbc2019e204794c5b,001,2023-07-31_20h44.32.012,arm3_eps,2022.2.5,Win32,59.9268892,6130c63cbc2019e204794c5b,64c7fed44a04f777bb1e18ce,64c800e2fc3b04b02d202fb3,up,1,0.75,0.3071,-4,0,0.2032,,,,,,50,0,50,0,1,,,,,
,,6130c63cbc2019e204794c5b,001,2023-07-31_20h44.32.012,arm3_eps,2022.2.5,Win32,59.9268892,6130c63cbc2019e204794c5b,64c7fed44a04f777bb1e18ce,64c800e2fc3b04b02d202fb3,down,1,0.75,0.3071,-5,0,0.2102,,,,,,51,0,51,0,1,,,,,
,,6130c63cbc2019e204794c5b,001,2023-07-31_20h44.32.012,arm3_eps,2022.2.5,Win32,59.9268892,6130c63cbc2019e204794c5b,64c7fed44a04f777bb1e18ce,64c800e2fc3b04b02d202fb3,up,1,0.75,0.3071,-5,0,0.1956,,,,,,52,0,52,0,1,,,,,
,,6130c63cbc2019e204794c5b,001,2023-07-31_20h44.32.012,arm3_eps,2022.2.5,Win32,59.9268892,6130c63cbc2019e204794c5b,64c7fed44a04f777bb1e18ce,64c800e2fc3b04b02d202fb3,down,1,0.75,0.3071,-6,0,0.2137,,,,,,53,0,53,0,1,,,,,
,,6130c63cbc2019e204794c5b,001,2023-07-31_20h44.32.012,arm3_eps,2022.2.5,Win32,59.9268892,6130c63cbc2019e204794c5b,64c7fed44a04f777bb1e18ce,64c800e2fc3b04b02d202fb3,down,1,0.75,0.3071,-7,0,0.2233,,,,,,54,0,54,0,1,,,,,
,,6130c63cbc2019e204794c5b,001,2023-07-31_20h44.32.012,arm3_eps,2022.2.5,Win32,59.9268892,6130c63cbc2019e204794c5b,64c7fed44a04f777bb1e18ce,64c800e2fc3b04b02d202fb3,down,-1,0.75,0.3071,-8,0,0.2137,,,,,,55,0,55,0,1,,,,,
,,6130c63cbc2019e204794c5b,001,2023-07-31_20h44.32.012,arm3_eps,2022.2.5,Win32,59.9268892,6130c63cbc2019e204794c5b,64c7fed44a04f777bb1e18ce,64c800e2fc3b04b02d202fb3,up,-1,0.75,0.3071,-9,0,0.2075,,,,,,56,0,56,0,1,,,,,
,,6130c63cbc2019e204794c5b,001,2023-07-31_20h44.32.012,arm3_eps,2022.2.5,Win32,59.9268892,6130c63cbc2019e204794c5b,64c7fed44a04f777bb1e18ce,64c800e2fc3b04b02d202fb3,up,-1,0.75,0.3071,-9,0,0.2292,,,,,,57,0,57,0,1,,,,,
,,6130c63cbc2019e204794c5b,001,2023-07-31_20h44.32.012,arm3_eps,2022.2.5,Win32,59.9268892,6130c63cbc2019e204794c5b,64c7fed44a04f777bb1e18ce,64c800e2fc3b04b02d202fb3,up,-1,0.75,0.3071,-9,0,0.2391,,,,,,58,0,58,0,1,,,,,
,,6130c63cbc2019e204794c5b,001,2023-07-31_20h44.32.012,arm3_eps,2022.2.5,Win32,59.9268892,6130c63cbc2019e204794c5b,64c7fed44a04f777bb1e18ce,64c800e2fc3b04b02d202fb3,down,1,0.75,0.3071,-8,0,0.446,,,,,,59,0,59,0,1,,,,,
,,6130c63cbc2019e204794c5b,001,2023-07-31_20h44.32.012,arm3_eps,2022.2.5,Win32,59.9268892,6130c63cbc2019e204794c5b,64c7fed44a04f777bb1e18ce,64c800e2fc3b04b02d202fb3,down,1,0.75,0.3071,-9,0,0.514,,,,,,60,0,60,0,1,,,,,
,,6130c63cbc2019e204794c5b,001,2023-07-31_20h44.32.012,arm3_eps,2022.2.5,Win32,59.9268892,6130c63cbc2019e204794c5b,64c7fed44a04f777bb1e18ce,64c800e2fc3b04b02d202fb3,down,1,0.75,0.3071,-9,0,0.5572,,,,,,61,0,61,0,1,,,,,
,,6130c63cbc2019e204794c5b,001,2023-07-31_20h44.32.012,arm3_eps,2022.2.5,Win32,59.9268892,6130c63cbc2019e204794c5b,64c7fed44a04f777bb1e18ce,64c800e2fc3b04b02d202fb3,down,1,0.75,0.3071,-10,0,1.2407,,,,,,62,0,62,0,1,,,,,
,,6130c63cbc2019e204794c5b,001,2023-07-31_20h44.32.012,arm3_eps,2022.2.5,Win32,59.9268892,6130c63cbc2019e204794c5b,64c7fed44a04f777bb1e18ce,64c800e2fc3b04b02d202fb3,down,1,0.75,0.3071,-11,0,0.1696,,,,,,63,0,63,0,1,,,,,
,,6130c63cbc2019e204794c5b,001,2023-07-31_20h44.32.012,arm3_eps,2022.2.5,Win32,59.9268892,6130c63cbc2019e204794c5b,64c7fed44a04f777bb1e18ce,64c800e2fc3b04b02d202fb3,right,1,0.75,0.3071,-11,0.045578984,1.056,,,,,,64,0,64,0,1,,,,,
,,6130c63cbc2019e204794c5b,001,2023-07-31_20h44.32.012,arm3_eps,2022.2.5,Win32,59.9268892,6130c63cbc2019e204794c5b,64c7fed44a04f777bb1e18ce,64c800e2fc3b04b02d202fb3,down,1,0.75,0.3071,-11,0,0.595,,,,,,65,0,65,0,1,,,,,
,,6130c63cbc2019e204794c5b,001,2023-07-31_20h44.32.012,arm3_eps,2022.2.5,Win32,59.9268892,6130c63cbc2019e204794c5b,64c7fed44a04f777bb1e18ce,64c800e2fc3b04b02d202fb3,right,1,0.75,0.3071,-11,-0.010588603,1.1299,,,,,,66,0,66,0,1,,,,,
,,6130c63cbc2019e204794c5b,001,2023-07-31_20h44.32.012,arm3_eps,2022.2.5,Win32,59.9268892,6130c63cbc2019e204794c5b,64c7fed44a04f777bb1e18ce,64c800e2fc3b04b02d202fb3,up,1,0.75,0.3071,-10,0,0.4125,,,,,,67,0,67,0,1,,,,,
,,6130c63cbc2019e204794c5b,001,2023-07-31_20h44.32.012,arm3_eps,2022.2.5,Win32,59.9268892,6130c63cbc2019e204794c5b,64c7fed44a04f777bb1e18ce,64c800e2fc3b04b02d202fb3,right,1,0.75,0.3071,-10,0.055252673,1.1144,,,,,,68,0,68,0,1,,,,,
,,6130c63cbc2019e204794c5b,001,2023-07-31_20h44.32.012,arm3_eps,2022.2.5,Win32,59.9268892,6130c63cbc2019e204794c5b,64c7fed44a04f777bb1e18ce,64c800e2fc3b04b02d202fb3,up,1,0.75,0.3071,-9,0,0.5455,,,,,,69,0,69,0,1,,,,,
,,6130c63cbc2019e204794c5b,001,2023-07-31_20h44.32.012,arm3_eps,2022.2.5,Win32,59.9268892,6130c63cbc2019e204794c5b,64c7fed44a04f777bb1e18ce,64c800e2fc3b04b02d202fb3,right,1,0.75,0.3071,-9,-0.032467725,1.4051,,,,,,70,0,70,0,1,,,,,
,,6130c63cbc2019e204794c5b,001,2023-07-31_20h44.32.012,arm3_eps,2022.2.5,Win32,59.9268892,6130c63cbc2019e204794c5b,64c7fed44a04f777bb1e18ce,64c800e2fc3b04b02d202fb3,up,1,0.75,0.3071,-8,0,0.466,,,,,,71,0,71,0,1,,,,,
,,6130c63cbc2019e204794c5b,001,2023-07-31_20h44.32.012,arm3_eps,2022.2.5,Win32,59.9268892,6130c63cbc2019e204794c5b,64c7fed44a04f777bb1e18ce,64c800e2fc3b04b02d202fb3,right,1,0.75,0.3071,-8,-0.00232186,1.0723,,,,,,72,0,72,0,1,,,,,
,,6130c63cbc2019e204794c5b,001,2023-07-31_20h44.32.012,arm3_eps,2022.2.5,Win32,59.9268892,6130c63cbc2019e204794c5b,64c7fed44a04f777bb1e18ce,64c800e2fc3b04b02d202fb3,up,1,0.75,0.3071,-7,0,0.3961,,,,,,73,0,73,0,1,,,,,
,,6130c63cbc2019e204794c5b,001,2023-07-31_20h44.32.012,arm3_eps,2022.2.5,Win32,59.9268892,6130c63cbc2019e204794c5b,64c7fed44a04f777bb1e18ce,64c800e2fc3b04b02d202fb3,right,1,0.75,0.3071,-7,0.002516619,1.0697,,,,,,74,0,74,0,1,,,,,
,,6130c63cbc2019e204794c5b,001,2023-07-31_20h44.32.012,arm3_eps,2022.2.5,Win32,59.9268892,6130c63cbc2019e204794c5b,64c7fed44a04f777bb1e18ce,64c800e2fc3b04b02d202fb3,up,1,0.75,0.3071,-6,0,0.4036,,,,,,75,0,75,0,1,,,,,
,,6130c63cbc2019e204794c5b,001,2023-07-31_20h44.32.012,arm3_eps,2022.2.5,Win32,59.9268892,6130c63cbc2019e204794c5b,64c7fed44a04f777bb1e18ce,64c800e2fc3b04b02d202fb3,right,1,0.75,0.3071,-6,0.013557631,1.1275,,,,,,76,0,76,0,1,,,,,
,,6130c63cbc2019e204794c5b,001,2023-07-31_20h44.32.012,arm3_eps,2022.2.5,Win32,59.9268892,6130c63cbc2019e204794c5b,64c7fed44a04f777bb1e18ce,64c800e2fc3b04b02d202fb3,up,-1,0.75,0.3071,-5,0,0.3443,,,,,,77,0,77,0,1,,,,,
,,6130c63cbc2019e204794c5b,001,2023-07-31_20h44.32.012,arm3_eps,2022.2.5,Win32,59.9268892,6130c63cbc2019e204794c5b,64c7fed44a04f777bb1e18ce,64c800e2fc3b04b02d202fb3,right,-1,0.75,0.3071,-5,0.011258147,1.0933,,,,,,78,0,78,0,1,,,,,
,,6130c63cbc2019e204794c5b,001,2023-07-31_20h44.32.012,arm3_eps,2022.2.5,Win32,59.9268892,6130c63cbc2019e204794c5b,64c7fed44a04f777bb1e18ce,64c800e2fc3b04b02d202fb3,up,1,0.75,0.3071,-6,0,0.3148,,,,,,79,0,79,0,1,,,,,
,,6130c63cbc2019e204794c5b,001,2023-07-31_20h44.32.012,arm3_eps,2022.2.5,Win32,59.9268892,6130c63cbc2019e204794c5b,64c7fed44a04f777bb1e18ce,64c800e2fc3b04b02d202fb3,down,1,0.75,0.3071,-7,0,1.1633,,,,,,80,0,80,0,1,,,,,
,,6130c63cbc2019e204794c5b,001,2023-07-31_20h44.32.012,arm3_eps,2022.2.5,Win32,59.9268892,6130c63cbc2019e204794c5b,64c7fed44a04f777bb1e18ce,64c800e2fc3b04b02d202fb3,right,1,0.75,0.3071,-7,0.007211175,1.3555,,,,,,81,0,81,0,1,,,,,
,,6130c63cbc2019e204794c5b,001,2023-07-31_20h44.32.012,arm3_eps,2022.2.5,Win32,59.9268892,6130c63cbc2019e204794c5b,64c7fed44a04f777bb1e18ce,64c800e2fc3b04b02d202fb3,right,1,0.75,0.3071,-7,0.047153207,0.2458,,,,,,82,0,82,0,1,,,,,
,,6130c63cbc2019e204794c5b,001,2023-07-31_20h44.32.012,arm3_eps,2022.2.5,Win32,59.9268892,6130c63cbc2019e204794c5b,64c7fed44a04f777bb1e18ce,64c800e2fc3b04b02d202fb3,up,1,0.75,0.3071,-7,0,0.3522,,,,,,83,0,83,0,1,,,,,
,,6130c63cbc2019e204794c5b,001,2023-07-31_20h44.32.012,arm3_eps,2022.2.5,Win32,59.9268892,6130c63cbc2019e204794c5b,64c7fed44a04f777bb1e18ce,64c800e2fc3b04b02d202fb3,right,1,0.75,0.3071,-7,0.007310823,1.2186,,,,,,84,0,84,0,1,,,,,
,,6130c63cbc2019e204794c5b,001,2023-07-31_20h44.32.012,arm3_eps,2022.2.5,Win32,59.9268892,6130c63cbc2019e204794c5b,64c7fed44a04f777bb1e18ce,64c800e2fc3b04b02d202fb3,up,-1,0.75,0.3071,-7,0,1.4966,,,,,,85,0,85,0,1,,,,,
,,6130c63cbc2019e204794c5b,001,2023-07-31_20h44.32.012,arm3_eps,2022.2.5,Win32,59.9268892,6130c63cbc2019e204794c5b,64c7fed44a04f777bb1e18ce,64c800e2fc3b04b02d202fb3,right,-1,0.75,0.3071,-7,-0.00695881,1.0043,,,,,,86,0,86,0,1,,,,,
,,6130c63cbc2019e204794c5b,001,2023-07-31_20h44.32.012,arm3_eps,2022.2.5,Win32,59.9268892,6130c63cbc2019e204794c5b,64c7fed44a04f777bb1e18ce,64c800e2fc3b04b02d202fb3,up,1,0.75,0.3071,-8,0,0.3002,,,,,,87,0,87,0,1,,,,,
,,6130c63cbc2019e204794c5b,001,2023-07-31_20h44.32.012,arm3_eps,2022.2.5,Win32,59.9268892,6130c63cbc2019e204794c5b,64c7fed44a04f777bb1e18ce,64c800e2fc3b04b02d202fb3,right,1,0.75,0.3071,-8,-0.017333237,1.0055,,,,,,88,0,88,0,1,,,,,
,,6130c63cbc2019e204794c5b,001,2023-07-31_20h44.32.012,arm3_eps,2022.2.5,Win32,59.9268892,6130c63cbc2019e204794c5b,64c7fed44a04f777bb1e18ce,64c800e2fc3b04b02d202fb3,up,1,0.75,0.3071,-7,0,0.2685,,,,,,89,0,89,0,1,,,,,
,,6130c63cbc2019e204794c5b,001,2023-07-31_20h44.32.012,arm3_eps,2022.2.5,Win32,59.9268892,6130c63cbc2019e204794c5b,64c7fed44a04f777bb1e18ce,64c800e2fc3b04b02d202fb3,right,1,0.75,0.3071,-7,0.015548961,0.988,,,,,,90,0,90,0,1,,,,,
,,6130c63cbc2019e204794c5b,001,2023-07-31_20h44.32.012,arm3_eps,2022.2.5,Win32,59.9268892,6130c63cbc2019e204794c5b,64c7fed44a04f777bb1e18ce,64c800e2fc3b04b02d202fb3,up,1,0.75,0.3071,-6,0,0.2283,,,,,,91,0,91,0,1,,,,,
,,6130c63cbc2019e204794c5b,001,2023-07-31_20h44.32.012,arm3_eps,2022.2.5,Win32,59.9268892,6130c63cbc2019e204794c5b,64c7fed44a04f777bb1e18ce,64c800e2fc3b04b02d202fb3,down,1,0.75,0.3071,-7,0,1.0562,,,,,,92,0,92,0,1,,,,,
,,6130c63cbc2019e204794c5b,001,2023-07-31_20h44.32.012,arm3_eps,2022.2.5,Win32,59.9268892,6130c63cbc2019e204794c5b,64c7fed44a04f777bb1e18ce,64c800e2fc3b04b02d202fb3,right,1,0.75,0.3071,-7,-0.00840436,0.2754,,,,,,93,0,93,0,1,,,,,
,,6130c63cbc2019e204794c5b,001,2023-07-31_20h44.32.012,arm3_eps,2022.2.5,Win32,59.9268892,6130c63cbc2019e204794c5b,64c7fed44a04f777bb1e18ce,64c800e2fc3b04b02d202fb3,down,-1,0.75,0.3071,-8,0,0.8006,,,,,,94,0,94,0,1,,,,,
,,6130c63cbc2019e204794c5b,001,2023-07-31_20h44.32.012,arm3_eps,2022.2.5,Win32,59.9268892,6130c63cbc2019e204794c5b,64c7fed44a04f777bb1e18ce,64c800e2fc3b04b02d202fb3,down,1,0.75,0.3071,-7,0,0.1901,,,,,,95,0,95,0,1,,,,,
,,6130c63cbc2019e204794c5b,001,2023-07-31_20h44.32.012,arm3_eps,2022.2.5,Win32,59.9268892,6130c63cbc2019e204794c5b,64c7fed44a04f777bb1e18ce,64c800e2fc3b04b02d202fb3,up,-1,0.75,0.3071,-6,0,0.2237,,,,,,96,0,96,0,1,,,,,
,,6130c63cbc2019e204794c5b,001,2023-07-31_20h44.32.012,arm3_eps,2022.2.5,Win32,59.9268892,6130c63cbc2019e204794c5b,64c7fed44a04f777bb1e18ce,64c800e2fc3b04b02d202fb3,right,-1,0.75,0.3071,-6,-0.006138522,0.9173,,,,,,97,0,97,0,1,,,,,
,,6130c63cbc2019e204794c5b,001,2023-07-31_20h44.32.012,arm3_eps,2022.2.5,Win32,59.9268892,6130c63cbc2019e204794c5b,64c7fed44a04f777bb1e18ce,64c800e2fc3b04b02d202fb3,up,-1,0.75,0.3071,-7,0,0.6049,,,,,,98,0,98,0,1,,,,,
,,6130c63cbc2019e204794c5b,001,2023-07-31_20h44.32.012,arm3_eps,2022.2.5,Win32,59.9268892,6130c63cbc2019e204794c5b,64c7fed44a04f777bb1e18ce,64c800e2fc3b04b02d202fb3,down,-1,0.75,0.3071,-6,0,0.2237,,,,,,99,0,99,0,1,,,,,
,,6130c63cbc2019e204794c5b,001,2023-07-31_20h44.32.012,arm3_eps,2022.2.5,Win32,59.9268892,6130c63cbc2019e204794c5b,64c7fed44a04f777bb1e18ce,64c800e2fc3b04b02d202fb3,right,-1,0.75,0.3071,-6,0.001114099,0.1977,,,,,,100,0,100,0,1,,,,,
,,6130c63cbc2019e204794c5b,001,2023-07-31_20h44.32.012,arm3_eps,2022.2.5,Win32,59.9268892,6130c63cbc2019e204794c5b,64c7fed44a04f777bb1e18ce,64c800e2fc3b04b02d202fb3,up,-1,0.75,0.3071,-7,0,0.2092,,,,,,101,0,101,0,1,,,,,
,,6130c63cbc2019e204794c5b,001,2023-07-31_20h44.32.012,arm3_eps,2022.2.5,Win32,59.9268892,6130c63cbc2019e204794c5b,64c7fed44a04f777bb1e18ce,64c800e2fc3b04b02d202fb3,down,1,0.75,0.3071,-6,0,0.4514,,,,,,102,0,102,0,1,,,,,
,,6130c63cbc2019e204794c5b,001,2023-07-31_20h44.32.012,arm3_eps,2022.2.5,Win32,59.9268892,6130c63cbc2019e204794c5b,64c7fed44a04f777bb1e18ce,64c800e2fc3b04b02d202fb3,down,1,0.75,0.3071,-7,0,0.1747,,,,,,103,0,103,0,1,,,,,
,,6130c63cbc2019e204794c5b,001,2023-07-31_20h44.32.012,arm3_eps,2022.2.5,Win32,59.9268892,6130c63cbc2019e204794c5b,64c7fed44a04f777bb1e18ce,64c800e2fc3b04b02d202fb3,right,1,0.75,0.3071,-7,-0.000286288,0.3385,,,,,,104,0,104,0,1,,,,,
,,6130c63cbc2019e204794c5b,001,2023-07-31_20h44.32.012,arm3_eps,2022.2.5,Win32,59.9268892,6130c63cbc2019e204794c5b,64c7fed44a04f777bb1e18ce,64c800e2fc3b04b02d202fb3,up,-1,0.75,0.3071,-6,0,0.2765,,,,,,105,0,105,0,1,,,,,
,,6130c63cbc2019e204794c5b,001,2023-07-31_20h44.32.012,arm3_eps,2022.2.5,Win32,59.9268892,6130c63cbc2019e204794c5b,64c7fed44a04f777bb1e18ce,64c800e2fc3b04b02d202fb3,up,-1,0.75,0.3071,-6,0,0.1909,,,,,,106,0,106,0,1,,,,,
,,6130c63cbc2019e204794c5b,001,2023-07-31_20h44.32.012,arm3_eps,2022.2.5,Win32,59.9268892,6130c63cbc2019e204794c5b,64c7fed44a04f777bb1e18ce,64c800e2fc3b04b02d202fb3,right,-1,0.75,0.3071,-6,-0.014006387,0.2604,,,,,,107,0,107,0,1,,,,,
,,6130c63cbc2019e204794c5b,001,2023-07-31_20h44.32.012,arm3_eps,2022.2.5,Win32,59.9268892,6130c63cbc2019e204794c5b,64c7fed44a04f777bb1e18ce,64c800e2fc3b04b02d202fb3,up,-1,0.75,0.3071,-7,0,0.2258,,,,,,108,0,108,0,1,,,,,
,,6130c63cbc2019e204794c5b,001,2023-07-31_20h44.32.012,arm3_eps,2022.2.5,Win32,59.9268892,6130c63cbc2019e204794c5b,64c7fed44a04f777bb1e18ce,64c800e2fc3b04b02d202fb3,down,-1,0.75,0.3071,-6,0,0.1946,,,,,,109,0,109,0,1,,,,,
,,6130c63cbc2019e204794c5b,001,2023-07-31_20h44.32.012,arm3_eps,2022.2.5,Win32,59.9268892,6130c63cbc2019e204794c5b,64c7fed44a04f777bb1e18ce,64c800e2fc3b04b02d202fb3,right,-1,0.75,0.3071,-6,0.035371188,0.2371,,,,,,110,0,110,0,1,,,,,
,,6130c63cbc2019e204794c5b,001,2023-07-31_20h44.32.012,arm3_eps,2022.2.5,Win32,59.9268892,6130c63cbc2019e204794c5b,64c7fed44a04f777bb1e18ce,64c800e2fc3b04b02d202fb3,up,1,0.75,0.3071,-6,0,0.2136,,,,,,111,0,111,0,1,,,,,
,,6130c63cbc2019e204794c5b,001,2023-07-31_20h44.32.012,arm3_eps,2022.2.5,Win32,59.9268892,6130c63cbc2019e204794c5b,64c7fed44a04f777bb1e18ce,64c800e2fc3b04b02d202fb3,right,1,0.75,0.3071,-6,-0.00031941,0.2728,,,,,,112,0,112,0,1,,,,,
,,6130c63cbc2019e204794c5b,001,2023-07-31_20h44.32.012,arm3_eps,2022.2.5,Win32,59.9268892,6130c63cbc2019e204794c5b,64c7fed44a04f777bb1e18ce,64c800e2fc3b04b02d202fb3,down,1,0.75,0.3071,-7,0,0.2341,,,,,,113,0,113,0,1,,,,,
,,6130c63cbc2019e204794c5b,001,2023-07-31_20h44.32.012,arm3_eps,2022.2.5,Win32,59.9268892,6130c63cbc2019e204794c5b,64c7fed44a04f777bb1e18ce,64c800e2fc3b04b02d202fb3,up,-1,0.75,0.3071,-7,0,0.1771,,,,,,114,0,114,0,1,,,,,
,,6130c63cbc2019e204794c5b,001,2023-07-31_20h44.32.012,arm3_eps,2022.2.5,Win32,59.9268892,6130c63cbc2019e204794c5b,64c7fed44a04f777bb1e18ce,64c800e2fc3b04b02d202fb3,right,-1,0.75,0.3071,-7,-0.005132331,0.2767,,,,,,115,0,115,0,1,,,,,
,,6130c63cbc2019e204794c5b,001,2023-07-31_20h44.32.012,arm3_eps,2022.2.5,Win32,59.9268892,6130c63cbc2019e204794c5b,64c7fed44a04f777bb1e18ce,64c800e2fc3b04b02d202fb3,down,-1,0.75,0.3071,-6,0,0.2258,,,,,,116,0,116,0,1,,,,,
,,6130c63cbc2019e204794c5b,001,2023-07-31_20h44.32.012,arm3_eps,2022.2.5,Win32,59.9268892,6130c63cbc2019e204794c5b,64c7fed44a04f777bb1e18ce,64c800e2fc3b04b02d202fb3,up,-1,0.75,0.3071,-7,0,0.1848,,,,,,117,0,117,0,1,,,,,
,,6130c63cbc2019e204794c5b,001,2023-07-31_20h44.32.012,arm3_eps,2022.2.5,Win32,59.9268892,6130c63cbc2019e204794c5b,64c7fed44a04f777bb1e18ce,64c800e2fc3b04b02d202fb3,right,-1,0.75,0.3071,-7,0.0009166,0.1902,,,,,,118,0,118,0,1,,,,,
,,6130c63cbc2019e204794c5b,001,2023-07-31_20h44.32.012,arm3_eps,2022.2.5,Win32,59.9268892,6130c63cbc2019e204794c5b,64c7fed44a04f777bb1e18ce,64c800e2fc3b04b02d202fb3,down,-1,0.75,0.3071,-6,0,0.1754,,,,,,119,0,119,0,1,,,,,
,,6130c63cbc2019e204794c5b,001,2023-07-31_20h44.32.012,arm3_eps,2022.2.5,Win32,59.9268892,6130c63cbc2019e204794c5b,64c7fed44a04f777bb1e18ce,64c800e2fc3b04b02d202fb3,up,-1,0.75,0.3071,-7,0,0.1445,,,,,,120,0,120,0,1,,,,,
,,6130c63cbc2019e204794c5b,001,2023-07-31_20h44.32.012,arm3_eps,2022.2.5,Win32,59.9268892,6130c63cbc2019e204794c5b,64c7fed44a04f777bb1e18ce,64c800e2fc3b04b02d202fb3,up,1,0.75,0.3071,-8,0,0.1738,,,,,,121,0,121,0,1,,,,,
,,6130c63cbc2019e204794c5b,001,2023-07-31_20h44.32.012,arm3_eps,2022.2.5,Win32,59.9268892,6130c63cbc2019e204794c5b,64c7fed44a04f777bb1e18ce,64c800e2fc3b04b02d202fb3,up,-1,0.75,0.3071,-7,0,0.124,,,,,,122,0,122,0,1,,,,,
,,6130c63cbc2019e204794c5b,001,2023-07-31_20h44.32.012,arm3_eps,2022.2.5,Win32,59.9268892,6130c63cbc2019e204794c5b,64c7fed44a04f777bb1e18ce,64c800e2fc3b04b02d202fb3,right,-1,0.75,0.3071,-7,0.004235831,0.1919,,,,,,123,0,123,0,1,,,,,
,,6130c63cbc2019e204794c5b,001,2023-07-31_20h44.32.012,arm3_eps,2022.2.5,Win32,59.9268892,6130c63cbc2019e204794c5b,64c7fed44a04f777bb1e18ce,64c800e2fc3b04b02d202fb3,down,1,0.75,0.3071,-6,0,0.2246,,,,,,124,0,124,0,1,,,,,
,,6130c63cbc2019e204794c5b,001,2023-07-31_20h44.32.012,arm3_eps,2022.2.5,Win32,59.9268892,6130c63cbc2019e204794c5b,64c7fed44a04f777bb1e18ce,64c800e2fc3b04b02d202fb3,down,1,0.75,0.3071,-7,0,0.2229,,,,,,125,0,125,0,1,,,,,
,,6130c63cbc2019e204794c5b,001,2023-07-31_20h44.32.012,arm3_eps,2022.2.5,Win32,59.9268892,6130c63cbc2019e204794c5b,64c7fed44a04f777bb1e18ce,64c800e2fc3b04b02d202fb3,down,1,0.75,0.3071,-8,0,0.1415,,,,,,126,0,126,0,1,,,,,
,,6130c63cbc2019e204794c5b,001,2023-07-31_20h44.32.012,arm3_eps,2022.2.5,Win32,59.9268892,6130c63cbc2019e204794c5b,64c7fed44a04f777bb1e18ce,64c800e2fc3b04b02d202fb3,down,1,0.75,0.3071,-8,0,0.3944,,,,,,127,0,127,0,1,,,,,
,,6130c63cbc2019e204794c5b,001,2023-07-31_20h44.32.012,arm3_eps,2022.2.5,Win32,59.9268892,6130c63cbc2019e204794c5b,64c7fed44a04f777bb1e18ce,64c800e2fc3b04b02d202fb3,down,-1,0.75,0.3071,-9,0,0.174,,,,,,128,0,128,0,1,,,,,
,,6130c63cbc2019e204794c5b,001,2023-07-31_20h44.32.012,arm3_eps,2022.2.5,Win32,59.9268892,6130c63cbc2019e204794c5b,64c7fed44a04f777bb1e18ce,64c800e2fc3b04b02d202fb3,up,1,0.75,0.3071,-10,0,0.1901,,,,,,129,0,129,0,1,,,,,
,,6130c63cbc2019e204794c5b,001,2023-07-31_20h44.32.012,arm3_eps,2022.2.5,Win32,59.9268892,6130c63cbc2019e204794c5b,64c7fed44a04f777bb1e18ce,64c800e2fc3b04b02d202fb3,up,-1,0.75,0.3071,-10,0,0.2914,,,,,,130,0,130,0,1,,,,,
,,6130c63cbc2019e204794c5b,001,2023-07-31_20h44.32.012,arm3_eps,2022.2.5,Win32,59.9268892,6130c63cbc2019e204794c5b,64c7fed44a04f777bb1e18ce,64c800e2fc3b04b02d202fb3,right,-1,0.75,0.3071,-10,-0.007480057,0.2772,,,,,,131,0,131,0,1,,,,,
,,6130c63cbc2019e204794c5b,001,2023-07-31_20h44.32.012,arm3_eps,2022.2.5,Win32,59.9268892,6130c63cbc2019e204794c5b,64c7fed44a04f777bb1e18ce,64c800e2fc3b04b02d202fb3,right,-1,0.75,0.3071,-10,0.00194785,0.1609,,,,,,132,0,132,0,1,,,,,
,,6130c63cbc2019e204794c5b,001,2023-07-31_20h44.32.012,arm3_eps,2022.2.5,Win32,59.9268892,6130c63cbc2019e204794c5b,64c7fed44a04f777bb1e18ce,64c800e2fc3b04b02d202fb3,right,-1,0.75,0.3071,-10,-0.016236868,0.1627,,,,,,133,0,133,0,1,,,,,
,,6130c63cbc2019e204794c5b,001,2023-07-31_20h44.32.012,arm3_eps,2022.2.5,Win32,59.9268892,6130c63cbc2019e204794c5b,64c7fed44a04f777bb1e18ce,64c800e2fc3b04b02d202fb3,right,-1,0.75,0.3071,-10,-0.024316915,0.1451,,,,,,134,0,134,0,1,,,,,
,,6130c63cbc2019e204794c5b,001,2023-07-31_20h44.32.012,arm3_eps,2022.2.5,Win32,59.9268892,6130c63cbc2019e204794c5b,64c7fed44a04f777bb1e18ce,64c800e2fc3b04b02d202fb3,right,-1,0.75,0.3071,-10,-0.031486361,0.2129,,,,,,135,0,135,0,1,,,,,
,,6130c63cbc2019e204794c5b,001,2023-07-31_20h44.32.012,arm3_eps,2022.2.5,Win32,59.9268892,6130c63cbc2019e204794c5b,64c7fed44a04f777bb1e18ce,64c800e2fc3b04b02d202fb3,up,-1,0.75,0.3071,-11,0,0.4713,,,,,,136,0,136,0,1,,,,,
,,6130c63cbc2019e204794c5b,001,2023-07-31_20h44.32.012,arm3_eps,2022.2.5,Win32,59.9268892,6130c63cbc2019e204794c5b,64c7fed44a04f777bb1e18ce,64c800e2fc3b04b02d202fb3,down,-1,0.75,0.3071,-10,0,0.0014,,,,,,137,0,137,0,1,,,,,
,,6130c63cbc2019e204794c5b,001,2023-07-31_20h44.32.012,arm3_eps,2022.2.5,Win32,59.9268892,6130c63cbc2019e204794c5b,64c7fed44a04f777bb1e18ce,64c800e2fc3b04b02d202fb3,up,-1,0.75,0.3071,-11,0,1.5386,,,,,,138,0,138,0,1,,,,,
,,6130c63cbc2019e204794c5b,001,2023-07-31_20h44.32.012,arm3_eps,2022.2.5,Win32,59.9268892,6130c63cbc2019e204794c5b,64c7fed44a04f777bb1e18ce,64c800e2fc3b04b02d202fb3,down,-1,0.75,0.3071,-10,0,0.3602,,,,,,139,0,139,0,1,,,,,
,,6130c63cbc2019e204794c5b,001,2023-07-31_20h44.32.012,arm3_eps,2022.2.5,Win32,59.9268892,6130c63cbc2019e204794c5b,64c7fed44a04f777bb1e18ce,64c800e2fc3b04b02d202fb3,down,-1,0.75,0.3071,-10,0,0.189,,,,,,140,0,140,0,1,,,,,
,,6130c63cbc2019e204794c5b,001,2023-07-31_20h44.32.012,arm3_eps,2022.2.5,Win32,59.9268892,6130c63cbc2019e204794c5b,64c7fed44a04f777bb1e18ce,64c800e2fc3b04b02d202fb3,down,1,0.75,0.3071,-9,0,0.1402,,,,,,141,0,141,0,1,,,,,
,,6130c63cbc2019e204794c5b,001,2023-07-31_20h44.32.012,arm3_eps,2022.2.5,Win32,59.9268892,6130c63cbc2019e204794c5b,64c7fed44a04f777bb1e18ce,64c800e2fc3b04b02d202fb3,right,1,0.75,0.3071,-9,0.027686969,0.1732,,,,,,142,0,142,0,1,,,,,
,,6130c63cbc2019e204794c5b,001,2023-07-31_20h44.32.012,arm3_eps,2022.2.5,Win32,59.9268892,6130c63cbc2019e204794c5b,64c7fed44a04f777bb1e18ce,64c800e2fc3b04b02d202fb3,up,1,0.75,0.3071,-8,0,0.3671,,,,,,143,0,143,0,1,,,,,
,,6130c63cbc2019e204794c5b,001,2023-07-31_20h44.32.012,arm3_eps,2022.2.5,Win32,59.9268892,6130c63cbc2019e204794c5b,64c7fed44a04f777bb1e18ce,64c800e2fc3b04b02d202fb3,up,1,0.75,0.3071,-8,0,0.4164,,,,,,144,0,144,0,1,,,,,
,,6130c63cbc2019e204794c5b,001,2023-07-31_20h44.32.012,arm3_eps,2022.2.5,Win32,59.9268892,6130c63cbc2019e204794c5b,64c7fed44a04f777bb1e18ce,64c800e2fc3b04b02d202fb3,up,1,0.75,0.3071,-7,0,0.8968,,,,,,145,0,145,0,1,,,,,
,,6130c63cbc2019e204794c5b,001,2023-07-31_20h44.32.012,arm3_eps,2022.2.5,Win32,59.9268892,6130c63cbc2019e204794c5b,64c7fed44a04f777bb1e18ce,64c800e2fc3b04b02d202fb3,up,1,0.75,0.3071,-6,0,0.2068,,,,,,146,0,146,0,1,,,,,
,,6130c63cbc2019e204794c5b,001,2023-07-31_20h44.32.012,arm3_eps,2022.2.5,Win32,59.9268892,6130c63cbc2019e204794c5b,64c7fed44a04f777bb1e18ce,64c800e2fc3b04b02d202fb3,down,1,0.75,0.3071,-7,0,0.2793,,,,,,147,0,147,0,1,,,,,
,,6130c63cbc2019e204794c5b,001,2023-07-31_20h44.32.012,arm3_eps,2022.2.5,Win32,59.9268892,6130c63cbc2019e204794c5b,64c7fed44a04f777bb1e18ce,64c800e2fc3b04b02d202fb3,down,1,0.75,0.3071,-8,0,0.3406,,,,,,148,0,148,0,1,,,,,
,,6130c63cbc2019e204794c5b,001,2023-07-31_20h44.32.012,arm3_eps,2022.2.5,Win32,59.9268892,6130c63cbc2019e204794c5b,64c7fed44a04f777bb1e18ce,64c800e2fc3b04b02d202fb3,up,-1,0.75,0.3071,-8,0,0.3411,,,,,,149,0,149,0,1,,,,,
,,6130c63cbc2019e204794c5b,001,2023-07-31_20h44.32.012,arm3_eps,2022.2.5,Win32,59.9268892,6130c63cbc2019e204794c5b,64c7fed44a04f777bb1e18ce,64c800e2fc3b04b02d202fb3,right,-1,0.75,0.3071,-8,-0.009902312,0.3737,,,,,,150,0,150,0,1,,,,,
,,6130c63cbc2019e204794c5b,001,2023-07-31_20h44.32.012,arm3_eps,2022.2.5,Win32,59.9268892,6130c63cbc2019e204794c5b,64c7fed44a04f777bb1e18ce,64c800e2fc3b04b02d202fb3,right,-1,0.75,0.3071,-8,0.014068507,0.1616,,,,,,151,0,151,0,1,,,,,
,,6130c63cbc2019e204794c5b,001,2023-07-31_20h44.32.012,arm3_eps,2022.2.5,Win32,59.9268892,6130c63cbc2019e204794c5b,64c7fed44a04f777bb1e18ce,64c800e2fc3b04b02d202fb3,right,-1,0.75,0.3071,-8,0.007599623,0.1473,,,,,,152,0,152,0,1,,,,,
,,6130c63cbc2019e204794c5b,001,2023-07-31_20h44.32.012,arm3_eps,2022.2.5,Win32,59.9268892,6130c63cbc2019e204794c5b,64c7fed44a04f777bb1e18ce,64c800e2fc3b04b02d202fb3,up,-1,0.75,0.3071,-8,0,0.2128,,,,,,153,0,153,0,1,,,,,
,,6130c63cbc2019e204794c5b,001,2023-07-31_20h44.32.012,arm3_eps,2022.2.5,Win32,59.9268892,6130c63cbc2019e204794c5b,64c7fed44a04f777bb1e18ce,64c800e2fc3b04b02d202fb3,down,-1,0.75,0.3071,-8,0,0.7074,,,,,,154,0,154,0,1,,,,,
,,6130c63cbc2019e204794c5b,001,2023-07-31_20h44.32.012,arm3_eps,2022.2.5,Win32,59.9268892,6130c63cbc2019e204794c5b,64c7fed44a04f777bb1e18ce,64c800e2fc3b04b02d202fb3,down,1,0.75,0.3071,-8,0,0.1579,,,,,,155,0,155,0,1,,,,,
,,6130c63cbc2019e204794c5b,001,2023-07-31_20h44.32.012,arm3_eps,2022.2.5,Win32,59.9268892,6130c63cbc2019e204794c5b,64c7fed44a04f777bb1e18ce,64c800e2fc3b04b02d202fb3,up,1,0.75,0.3071,-7,0,0.2956,,,,,,156,0,156,0,1,,,,,
,,6130c63cbc2019e204794c5b,001,2023-07-31_20h44.32.012,arm3_eps,2022.2.5,Win32,59.9268892,6130c63cbc2019e204794c5b,64c7fed44a04f777bb1e18ce,64c800e2fc3b04b02d202fb3,right,1,0.75,0.3071,-7,0.011378726,0.3393,,,,,,157,0,157,0,1,,,,,
,,6130c63cbc2019e204794c5b,001,2023-07-31_20h44.32.012,arm3_eps,2022.2.5,Win32,59.9268892,6130c63cbc2019e204794c5b,64c7fed44a04f777bb1e18ce,64c800e2fc3b04b02d202fb3,down,1,0.75,0.3071,-8,0,0.2968,,,,,,158,0,158,0,1,,,,,
,,6130c63cbc2019e204794c5b,001,2023-07-31_20h44.32.012,arm3_eps,2022.2.5,Win32,59.9268892,6130c63cbc2019e204794c5b,64c7fed44a04f777bb1e18ce,64c800e2fc3b04b02d202fb3,down,1,0.75,0.3071,-9,0,0.1485,,,,,,159,0,159,0,1,,,,,
,,6130c63cbc2019e204794c5b,001,2023-07-31_20h44.32.012,arm3_eps,2022.2.5,Win32,59.9268892,6130c63cbc2019e204794c5b,64c7fed44a04f777bb1e18ce,64c800e2fc3b04b02d202fb3,down,1,0.75,0.3071,-10,0,0.1403,,,,,,160,0,160,0,1,,,,,
,,6130c63cbc2019e204794c5b,001,2023-07-31_20h44.32.012,arm3_eps,2022.2.5,Win32,59.9268892,6130c63cbc2019e204794c5b,64c7fed44a04f777bb1e18ce,64c800e2fc3b04b02d202fb3,up,-1,0.75,0.3071,-9,0,0.1731,,,,,,161,0,161,0,1,,,,,
,,6130c63cbc2019e204794c5b,001,2023-07-31_20h44.32.012,arm3_eps,2022.2.5,Win32,59.9268892,6130c63cbc2019e204794c5b,64c7fed44a04f777bb1e18ce,64c800e2fc3b04b02d202fb3,right,-1,0.75,0.3071,-9,-0.02429266,0.2435,,,,,,162,0,162,0,1,,,,,
,,6130c63cbc2019e204794c5b,001,2023-07-31_20h44.32.012,arm3_eps,2022.2.5,Win32,59.9268892,6130c63cbc2019e204794c5b,64c7fed44a04f777bb1e18ce,64c800e2fc3b04b02d202fb3,down,-1,0.75,0.3071,-8,0,0.343,,,,,,163,0,163,0,1,,,,,
,,6130c63cbc2019e204794c5b,001,2023-07-31_20h44.32.012,arm3_eps,2022.2.5,Win32,59.9268892,6130c63cbc2019e204794c5b,64c7fed44a04f777bb1e18ce,64c800e2fc3b04b02d202fb3,up,-1,0.75,0.3071,-9,0,0.3907,,,,,,164,0,164,0,1,,,,,
,,6130c63cbc2019e204794c5b,001,2023-07-31_20h44.32.012,arm3_eps,2022.2.5,Win32,59.9268892,6130c63cbc2019e204794c5b,64c7fed44a04f777bb1e18ce,64c800e2fc3b04b02d202fb3,up,-1,0.75,0.3071,-10,0,0.1562,,,,,,165,0,165,0,1,,,,,
,,6130c63cbc2019e204794c5b,001,2023-07-31_20h44.32.012,arm3_eps,2022.2.5,Win32,59.9268892,6130c63cbc2019e204794c5b,64c7fed44a04f777bb1e18ce,64c800e2fc3b04b02d202fb3,up,1,0.75,0.3071,-11,0,0.1242,,,,,,166,0,166,0,1,,,,,
,,6130c63cbc2019e204794c5b,001,2023-07-31_20h44.32.012,arm3_eps,2022.2.5,Win32,59.9268892,6130c63cbc2019e204794c5b,64c7fed44a04f777bb1e18ce,64c800e2fc3b04b02d202fb3,right,1,0.75,0.3071,-11,0.040658366,0.3799,,,,,,167,0,167,0,1,,,,,
,,6130c63cbc2019e204794c5b,001,2023-07-31_20h44.32.012,arm3_eps,2022.2.5,Win32,59.9268892,6130c63cbc2019e204794c5b,64c7fed44a04f777bb1e18ce,64c800e2fc3b04b02d202fb3,down,1,0.75,0.3071,-12,0,0.4259,,,,,,168,0,168,0,1,,,,,
,,6130c63cbc2019e204794c5b,001,2023-07-31_20h44.32.012,arm3_eps,2022.2.5,Win32,59.9268892,6130c63cbc2019e204794c5b,64c7fed44a04f777bb1e18ce,64c800e2fc3b04b02d202fb3,up,1,0.75,0.3071,-11,0,0.4253,,,,,,169,0,169,0,1,,,,,
,,6130c63cbc2019e204794c5b,001,2023-07-31_20h44.32.012,arm3_eps,2022.2.5,Win32,59.9268892,6130c63cbc2019e204794c5b,64c7fed44a04f777bb1e18ce,64c800e2fc3b04b02d202fb3,right,1,0.75,0.3071,-11,0.001896384,0.3567,,,,,,170,0,170,0,1,,,,,
,,6130c63cbc2019e204794c5b,001,2023-07-31_20h44.32.012,arm3_eps,2022.2.5,Win32,59.9268892,6130c63cbc2019e204794c5b,64c7fed44a04f777bb1e18ce,64c800e2fc3b04b02d202fb3,up,1,0.75,0.3071,-11,0,0.4156,,,,,,171,0,171,0,1,,,,,
,,6130c63cbc2019e204794c5b,001,2023-07-31_20h44.32.012,arm3_eps,2022.2.5,Win32,59.9268892,6130c63cbc2019e204794c5b,64c7fed44a04f777bb1e18ce,64c800e2fc3b04b02d202fb3,right,1,0.75,0.3071,-11,0.028925127,0.3571,,,,,,172,0,172,0,1,,,,,
,,6130c63cbc2019e204794c5b,001,2023-07-31_20h44.32.012,arm3_eps,2022.2.5,Win32,59.9268892,6130c63cbc2019e204794c5b,64c7fed44a04f777bb1e18ce,64c800e2fc3b04b02d202fb3,up,1,0.75,0.3071,-11,0,0.3813,,,,,,173,0,173,0,1,,,,,
,,6130c63cbc2019e204794c5b,001,2023-07-31_20h44.32.012,arm3_eps,2022.2.5,Win32,59.9268892,6130c63cbc2019e204794c5b,64c7fed44a04f777bb1e18ce,64c800e2fc3b04b02d202fb3,right,1,0.75,0.3071,-11,0.013667918,0.4156,,,,,,174,0,174,0,1,,,,,
,,6130c63cbc2019e204794c5b,001,2023-07-31_20h44.32.012,arm3_eps,2022.2.5,Win32,59.9268892,6130c63cbc2019e204794c5b,64c7fed44a04f777bb1e18ce,64c800e2fc3b04b02d202fb3,up,1,0.75,0.3071,-11,0,0.3685,,,,,,175,0,175,0,1,,,,,
,,6130c63cbc2019e204794c5b,001,2023-07-31_20h44.32.012,arm3_eps,2022.2.5,Win32,59.9268892,6130c63cbc2019e204794c5b,64c7fed44a04f777bb1e18ce,64c800e2fc3b04b02d202fb3,right,1,0.75,0.3071,-11,0.02143797,0.3853,,,,,,176,0,176,0,1,,,,,
,,6130c63cbc2019e204794c5b,001,2023-07-31_20h44.32.012,arm3_eps,2022.2.5,Win32,59.9268892,6130c63cbc2019e204794c5b,64c7fed44a04f777bb1e18ce,64c800e2fc3b04b02d202fb3,up,1,0.75,0.3071,-10,0,0.4027,,,,,,177,0,177,0,1,,,,,
,,6130c63cbc2019e204794c5b,001,2023-07-31_20h44.32.012,arm3_eps,2022.2.5,Win32,59.9268892,6130c63cbc2019e204794c5b,64c7fed44a04f777bb1e18ce,64c800e2fc3b04b02d202fb3,right,1,0.75,0.3071,-10,-0.022873455,0.4567,,,,,,178,0,178,0,1,,,,,
,,6130c63cbc2019e204794c5b,001,2023-07-31_20h44.32.012,arm3_eps,2022.2.5,Win32,59.9268892,6130c63cbc2019e204794c5b,64c7fed44a04f777bb1e18ce,64c800e2fc3b04b02d202fb3,up,1,0.75,0.3071,-9,0,0.3967,,,,,,179,0,179,0,1,,,,,
,,6130c63cbc2019e204794c5b,001,2023-07-31_20h44.32.012,arm3_eps,2022.2.5,Win32,59.9268892,6130c63cbc2019e204794c5b,64c7fed44a04f777bb1e18ce,64c800e2fc3b04b02d202fb3,right,1,0.75,0.3071,-9,-0.025884165,0.3573,,,,,,180,0,180,0,1,,,,,
,,6130c63cbc2019e204794c5b,001,2023-07-31_20h44.32.012,arm3_eps,2022.2.5,Win32,59.9268892,6130c63cbc2019e204794c5b,64c7fed44a04f777bb1e18ce,64c800e2fc3b04b02d202fb3,up,-1,0.75,0.3071,-8,0,0.2922,,,,,,181,0,181,0,1,,,,,
,,6130c63cbc2019e204794c5b,001,2023-07-31_20h44.32.012,arm3_eps,2022.2.5,Win32,59.9268892,6130c63cbc2019e204794c5b,64c7fed44a04f777bb1e18ce,64c800e2fc3b04b02d202fb3,right,-1,0.75,0.3071,-8,-0.010898008,0.4058,,,,,,182,0,182,0,1,,,,,
,,6130c63cbc2019e204794c5b,001,2023-07-31_20h44.32.012,arm3_eps,2022.2.5,Win32,59.9268892,6130c63cbc2019e204794c5b,64c7fed44a04f777bb1e18ce,64c800e2fc3b04b02d202fb3,up,1,0.75,0.3071,-9,0,0.2938,,,,,,183,0,183,0,1,,,,,
,,6130c63cbc2019e204794c5b,001,2023-07-31_20h44.32.012,arm3_eps,2022.2.5,Win32,59.9268892,6130c63cbc2019e204794c5b,64c7fed44a04f777bb1e18ce,64c800e2fc3b04b02d202fb3,right,1,0.75,0.3071,-9,-0.024834622,0.3624,,,,,,184,0,184,0,1,,,,,
,,6130c63cbc2019e204794c5b,001,2023-07-31_20h44.32.012,arm3_eps,2022.2.5,Win32,59.9268892,6130c63cbc2019e204794c5b,64c7fed44a04f777bb1e18ce,64c800e2fc3b04b02d202fb3,down,1,0.75,0.3071,-10,0,0.4648,,,,,,185,0,185,0,1,,,,,
,,6130c63cbc2019e204794c5b,001,2023-07-31_20h44.32.012,arm3_eps,2022.2.5,Win32,59.9268892,6130c63cbc2019e204794c5b,64c7fed44a04f777bb1e18ce,64c800e2fc3b04b02d202fb3,down,1,0.75,0.3071,-11,0,0.1898,,,,,,186,0,186,0,1,,,,,
,,6130c63cbc2019e204794c5b,001,2023-07-31_20h44.32.012,arm3_eps,2022.2.5,Win32,59.9268892,6130c63cbc2019e204794c5b,64c7fed44a04f777bb1e18ce,64c800e2fc3b04b02d202fb3,down,1,0.75,0.3071,-12,0,0.141,,,,,,187,0,187,0,1,,,,,
,,6130c63cbc2019e204794c5b,001,2023-07-31_20h44.32.012,arm3_eps,2022.2.5,Win32,59.9268892,6130c63cbc2019e204794c5b,64c7fed44a04f777bb1e18ce,64c800e2fc3b04b02d202fb3,right,1,0.75,0.3071,-12,0.02938495,0.2905,,,,,,188,0,188,0,1,,,,,
,,6130c63cbc2019e204794c5b,001,2023-07-31_20h44.32.012,arm3_eps,2022.2.5,Win32,59.9268892,6130c63cbc2019e204794c5b,64c7fed44a04f777bb1e18ce,64c800e2fc3b04b02d202fb3,up,-1,0.75,0.3071,-11,0,0.3668,,,,,,189,0,189,0,1,,,,,
,,6130c63cbc2019e204794c5b,001,2023-07-31_20h44.32.012,arm3_eps,2022.2.5,Win32,59.9268892,6130c63cbc2019e204794c5b,64c7fed44a04f777bb1e18ce,64c800e2fc3b04b02d202fb3,up,-1,0.75,0.3071,-12,0,0.1816,,,,,,190,0,190,0,1,,,,,
,,6130c63cbc2019e204794c5b,001,2023-07-31_20h44.32.012,arm3_eps,2022.2.5,Win32,59.9268892,6130c63cbc2019e204794c5b,64c7fed44a04f777bb1e18ce,64c800e2fc3b04b02d202fb3,up,-1,0.75,0.3071,-13,0,0.1727,,,,,,191,0,191,0,1,,,,,
,,6130c63cbc2019e204794c5b,001,2023-07-31_20h44.32.012,arm3_eps,2022.2.5,Win32,59.9268892,6130c63cbc2019e204794c5b,64c7fed44a04f777bb1e18ce,64c800e2fc3b04b02d202fb3,right,-1,0.75,0.3071,-13,0.000966193,0.3602,,,,,,192,0,192,0,1,,,,,
,,6130c63cbc2019e204794c5b,001,2023-07-31_20h44.32.012,arm3_eps,2022.2.5,Win32,59.9268892,6130c63cbc2019e204794c5b,64c7fed44a04f777bb1e18ce,64c800e2fc3b04b02d202fb3,up,-1,0.75,0.3071,-14,0,0.8006,,,,,,193,0,193,0,1,,,,,
,,6130c63cbc2019e204794c5b,001,2023-07-31_20h44.32.012,arm3_eps,2022.2.5,Win32,59.9268892,6130c63cbc2019e204794c5b,64c7fed44a04f777bb1e18ce,64c800e2fc3b04b02d202fb3,up,-1,0.75,0.3071,-14,0,0.1409,,,,,,194,0,194,0,1,,,,,
,,6130c63cbc2019e204794c5b,001,2023-07-31_20h44.32.012,arm3_eps,2022.2.5,Win32,59.9268892,6130c63cbc2019e204794c5b,64c7fed44a04f777bb1e18ce,64c800e2fc3b04b02d202fb3,up,-1,0.75,0.3071,-15,0,0.129,,,,,,195,0,195,0,1,,,,,
,,6130c63cbc2019e204794c5b,001,2023-07-31_20h44.32.012,arm3_eps,2022.2.5,Win32,59.9268892,6130c63cbc2019e204794c5b,64c7fed44a04f777bb1e18ce,64c800e2fc3b04b02d202fb3,right,-1,0.75,0.3071,-15,-0.020762219,0.1639,,,,,,196,0,196,0,1,,,,,
,,6130c63cbc2019e204794c5b,001,2023-07-31_20h44.32.012,arm3_eps,2022.2.5,Win32,59.9268892,6130c63cbc2019e204794c5b,64c7fed44a04f777bb1e18ce,64c800e2fc3b04b02d202fb3,down,-1,0.75,0.3071,-14,0,0.1634,,,,,,197,0,197,0,1,,,,,
,,6130c63cbc2019e204794c5b,001,2023-07-31_20h44.32.012,arm3_eps,2022.2.5,Win32,59.9268892,6130c63cbc2019e204794c5b,64c7fed44a04f777bb1e18ce,64c800e2fc3b04b02d202fb3,up,-1,0.75,0.3071,-15,0,0.1634,,,,,,198,0,198,0,1,,,,,
,,6130c63cbc2019e204794c5b,001,2023-07-31_20h44.32.012,arm3_eps,2022.2.5,Win32,59.9268892,6130c63cbc2019e204794c5b,64c7fed44a04f777bb1e18ce,64c800e2fc3b04b02d202fb3,right,-1,0.75,0.3071,-15,0.001483069,0.216,,,,,,199,0,199,0,1,,,,,
,,6130c63cbc2019e204794c5b,001,2023-07-31_20h44.32.012,arm3_eps,2022.2.5,Win32,59.9268892,6130c63cbc2019e204794c5b,64c7fed44a04f777bb1e18ce,64c800e2fc3b04b02d202fb3,down,-1,0.75,0.3071,-14,0,0.3086,,,,,,200,0,200,0,1,,,,,
,,6130c63cbc2019e204794c5b,001,2023-07-31_20h44.32.012,arm3_eps,2022.2.5,Win32,59.9268892,6130c63cbc2019e204794c5b,64c7fed44a04f777bb1e18ce,64c800e2fc3b04b02d202fb3,up,-1,0.75,0.3071,-14,0,0.5234,,,,,,201,0,201,0,1,,,,,
,,6130c63cbc2019e204794c5b,001,2023-07-31_20h44.32.012,arm3_eps,2022.2.5,Win32,59.9268892,6130c63cbc2019e204794c5b,64c7fed44a04f777bb1e18ce,64c800e2fc3b04b02d202fb3,up,1,0.75,0.3071,-15,0,0.1553,,,,,,202,0,202,0,1,,,,,
,,6130c63cbc2019e204794c5b,001,2023-07-31_20h44.32.012,arm3_eps,2022.2.5,Win32,59.9268892,6130c63cbc2019e204794c5b,64c7fed44a04f777bb1e18ce,64c800e2fc3b04b02d202fb3,right,1,0.75,0.3071,-15,-0.012352842,0.2235,,,,,,203,0,203,0,1,,,,,
,,6130c63cbc2019e204794c5b,001,2023-07-31_20h44.32.012,arm3_eps,2022.2.5,Win32,59.9268892,6130c63cbc2019e204794c5b,64c7fed44a04f777bb1e18ce,64c800e2fc3b04b02d202fb3,up,-1,0.75,0.3071,-14,0,0.2349,,,,,,204,0,204,0,1,,,,,
,,6130c63cbc2019e204794c5b,001,2023-07-31_20h44.32.012,arm3_eps,2022.2.5,Win32,59.9268892,6130c63cbc2019e204794c5b,64c7fed44a04f777bb1e18ce,64c800e2fc3b04b02d202fb3,up,-1,0.75,0.3071,-14,0,0.3933,,,,,,205,0,205,0,1,,,,,
,,6130c63cbc2019e204794c5b,001,2023-07-31_20h44.32.012,arm3_eps,2022.2.5,Win32,59.9268892,6130c63cbc2019e204794c5b,64c7fed44a04f777bb1e18ce,64c800e2fc3b04b02d202fb3,down,-1,0.75,0.3071,-14,0,0.2734,,,,,,206,0,206,0,1,,,,,
,,6130c63cbc2019e204794c5b,001,2023-07-31_20h44.32.012,arm3_eps,2022.2.5,Win32,59.9268892,6130c63cbc2019e204794c5b,64c7fed44a04f777bb1e18ce,64c800e2fc3b04b02d202fb3,up,1,0.75,0.3071,-15,0,0.6225,,,,,,207,0,207,0,1,,,,,
,,6130c63cbc2019e204794c5b,001,2023-07-31_20h44.32.012,arm3_eps,2022.2.5,Win32,59.9268892,6130c63cbc2019e204794c5b,64c7fed44a04f777bb1e18ce,64c800e2fc3b04b02d202fb3,down,-1,0.75,0.3071,-16,0,0.493,,,,,,208,0,208,0,1,,,,,
,,6130c63cbc2019e204794c5b,001,2023-07-31_20h44.32.012,arm3_eps,2022.2.5,Win32,59.9268892,6130c63cbc2019e204794c5b,64c7fed44a04f777bb1e18ce,64c800e2fc3b04b02d202fb3,up,-1,0.75,0.3071,-17,0,1.1709,,,,,,209,0,209,0,1,,,,,
,,6130c63cbc2019e204794c5b,001,2023-07-31_20h44.32.012,arm3_eps,2022.2.5,Win32,59.9268892,6130c63cbc2019e204794c5b,64c7fed44a04f777bb1e18ce,64c800e2fc3b04b02d202fb3,up,-1,0.75,0.3071,-18,0,2.3735,,,,,,210,0,210,0,1,,,,,
,,6130c63cbc2019e204794c5b,001,2023-07-31_20h44.32.012,arm3_eps,2022.2.5,Win32,59.9268892,6130c63cbc2019e204794c5b,64c7fed44a04f777bb1e18ce,64c800e2fc3b04b02d202fb3,up,-1,0.75,0.3071,-18,0,0.4545,,,,,,211,0,211,0,1,,,,,
,,6130c63cbc2019e204794c5b,001,2023-07-31_20h44.32.012,arm3_eps,2022.2.5,Win32,59.9268892,6130c63cbc2019e204794c5b,64c7fed44a04f777bb1e18ce,64c800e2fc3b04b02d202fb3,right,-1,0.75,0.3071,-18,-0.005420998,0.3573,,,,,,212,0,212,0,1,,,,,
,,6130c63cbc2019e204794c5b,001,2023-07-31_20h44.32.012,arm3_eps,2022.2.5,Win32,59.9268892,6130c63cbc2019e204794c5b,64c7fed44a04f777bb1e18ce,64c800e2fc3b04b02d202fb3,down,-1,0.75,0.3071,-17,0,0.7427,,,,,,213,0,213,0,1,,,,,
,,6130c63cbc2019e204794c5b,001,2023-07-31_20h44.32.012,arm3_eps,2022.2.5,Win32,59.9268892,6130c63cbc2019e204794c5b,64c7fed44a04f777bb1e18ce,64c800e2fc3b04b02d202fb3,down,1,0.75,0.3071,-16,0,0.2742,,,,,,214,0,214,0,1,,,,,
,,6130c63cbc2019e204794c5b,001,2023-07-31_20h44.32.012,arm3_eps,2022.2.5,Win32,59.9268892,6130c63cbc2019e204794c5b,64c7fed44a04f777bb1e18ce,64c800e2fc3b04b02d202fb3,down,1,0.75,0.3071,-17,0,0.8061,,,,,,215,0,215,0,1,,,,,
,,6130c63cbc2019e204794c5b,001,2023-07-31_20h44.32.012,arm3_eps,2022.2.5,Win32,59.9268892,6130c63cbc2019e204794c5b,64c7fed44a04f777bb1e18ce,64c800e2fc3b04b02d202fb3,up,1,0.75,0.3071,-16,0,0.2309,,,,,,216,0,216,0,1,,,,,
,,6130c63cbc2019e204794c5b,001,2023-07-31_20h44.32.012,arm3_eps,2022.2.5,Win32,59.9268892,6130c63cbc2019e204794c5b,64c7fed44a04f777bb1e18ce,64c800e2fc3b04b02d202fb3,right,1,0.75,0.3071,-16,0.017679091,0.3219,,,,,,217,0,217,0,1,,,,,
,,6130c63cbc2019e204794c5b,001,2023-07-31_20h44.32.012,arm3_eps,2022.2.5,Win32,59.9268892,6130c63cbc2019e204794c5b,64c7fed44a04f777bb1e18ce,64c800e2fc3b04b02d202fb3,down,1,0.75,0.3071,-16,0,0.2444,,,,,,218,0,218,0,1,,,,,
,,6130c63cbc2019e204794c5b,001,2023-07-31_20h44.32.012,arm3_eps,2022.2.5,Win32,59.9268892,6130c63cbc2019e204794c5b,64c7fed44a04f777bb1e18ce,64c800e2fc3b04b02d202fb3,up,1,0.75,0.3071,-15,0,0.2426,,,,,,219,0,219,0,1,,,,,
,,6130c63cbc2019e204794c5b,001,2023-07-31_20h44.32.012,arm3_eps,2022.2.5,Win32,59.9268892,6130c63cbc2019e204794c5b,64c7fed44a04f777bb1e18ce,64c800e2fc3b04b02d202fb3,down,-1,0.75,0.3071,-15,0,0.2569,,,,,,220,0,220,0,1,,,,,
,,6130c63cbc2019e204794c5b,001,2023-07-31_20h44.32.012,arm3_eps,2022.2.5,Win32,59.9268892,6130c63cbc2019e204794c5b,64c7fed44a04f777bb1e18ce,64c800e2fc3b04b02d202fb3,up,-1,0.75,0.3071,-16,0,0.2435,,,,,,221,0,221,0,1,,,,,
,,6130c63cbc2019e204794c5b,001,2023-07-31_20h44.32.012,arm3_eps,2022.2.5,Win32,59.9268892,6130c63cbc2019e204794c5b,64c7fed44a04f777bb1e18ce,64c800e2fc3b04b02d202fb3,down,1,0.75,0.3071,-15,0,0.2234,,,,,,222,0,222,0,1,,,,,
,,6130c63cbc2019e204794c5b,001,2023-07-31_20h44.32.012,arm3_eps,2022.2.5,Win32,59.9268892,6130c63cbc2019e204794c5b,64c7fed44a04f777bb1e18ce,64c800e2fc3b04b02d202fb3,right,1,0.75,0.3071,-15,-0.005932462,0.2269,,,,,,223,0,223,0,1,,,,,
,,6130c63cbc2019e204794c5b,001,2023-07-31_20h44.32.012,arm3_eps,2022.2.5,Win32,59.9268892,6130c63cbc2019e204794c5b,64c7fed44a04f777bb1e18ce,64c800e2fc3b04b02d202fb3,down,-1,0.75,0.3071,-15,0,0.4751,,,,,,224,0,224,0,1,,,,,
,,6130c63cbc2019e204794c5b,001,2023-07-31_20h44.32.012,arm3_eps,2022.2.5,Win32,59.9268892,6130c63cbc2019e204794c5b,64c7fed44a04f777bb1e18ce,64c800e2fc3b04b02d202fb3,down,-1,0.75,0.3071,-15,0,0.1719,,,,,,225,0,225,0,1,,,,,
,,6130c63cbc2019e204794c5b,001,2023-07-31_20h44.32.012,arm3_eps,2022.2.5,Win32,59.9268892,6130c63cbc2019e204794c5b,64c7fed44a04f777bb1e18ce,64c800e2fc3b04b02d202fb3,up,-1,0.75,0.3071,-16,0,0.2156,,,,,,226,0,226,0,1,,,,,
,,6130c63cbc2019e204794c5b,001,2023-07-31_20h44.32.012,arm3_eps,2022.2.5,Win32,59.9268892,6130c63cbc2019e204794c5b,64c7fed44a04f777bb1e18ce,64c800e2fc3b04b02d202fb3,right,-1,0.75,0.3071,-16,0.000919178,0.4029,,,,,,227,0,227,0,1,,,,,
,,6130c63cbc2019e204794c5b,001,2023-07-31_20h44.32.012,arm3_eps,2022.2.5,Win32,59.9268892,6130c63cbc2019e204794c5b,64c7fed44a04f777bb1e18ce,64c800e2fc3b04b02d202fb3,down,1,0.75,0.3071,-15,0,0.6991,,,,,,228,0,228,0,1,,,,,
,,6130c63cbc2019e204794c5b,001,2023-07-31_20h44.32.012,arm3_eps,2022.2.5,Win32,59.9268892,6130c63cbc2019e204794c5b,64c7fed44a04f777bb1e18ce,64c800e2fc3b04b02d202fb3,down,1,0.75,0.3071,-16,0,0.1395,,,,,,229,0,229,0,1,,,,,
,,6130c63cbc2019e204794c5b,001,2023-07-31_20h44.32.012,arm3_eps,2022.2.5,Win32,59.9268892,6130c63cbc2019e204794c5b,64c7fed44a04f777bb1e18ce,64c800e2fc3b04b02d202fb3,up,1,0.75,0.3071,-16,0,0.7778,,,,,,230,0,230,0,1,,,,,
,,6130c63cbc2019e204794c5b,001,2023-07-31_20h44.32.012,arm3_eps,2022.2.5,Win32,59.9268892,6130c63cbc2019e204794c5b,64c7fed44a04f777bb1e18ce,64c800e2fc3b04b02d202fb3,up,1,0.75,0.3071,-15,0,0.2575,,,,,,231,0,231,0,1,,,,,
,,6130c63cbc2019e204794c5b,001,2023-07-31_20h44.32.012,arm3_eps,2022.2.5,Win32,59.9268892,6130c63cbc2019e204794c5b,64c7fed44a04f777bb1e18ce,64c800e2fc3b04b02d202fb3,up,-1,0.75,0.3071,-15,0,0.2148,,,,,,232,0,232,0,1,,,,,
