space_bar.keys,space_bar.rt,participant,session,date,expName,psychopyVersion,OS,frameRate,PROLIFIC_PID,STUDY_ID,SESSION_ID,resp.keys,state,q_prob,eps_prob,score,price,resp.rt,train.thisRepN,train.thisTrialN,train.thisN,train.thisIndex,train.ran,steps.thisRepN,steps.thisTrialN,steps.thisN,steps.thisIndex,steps.ran,blocks.thisRepN,blocks.thisTrialN,blocks.thisN,blocks.thisIndex,blocks.ran
space,40.4609,6151fc337e8e6c69ea53efd8,001,2023-07-31_12h45.30.412,arm3_eps,2022.2.5,Win32,59.68367651,6151fc337e8e6c69ea53efd8,64c7fed44a04f777bb1e18ce,64c800ab7a854dcfc2e0d0fd,,,,,,,,,,,,,,,,,,,,,,
space,5.3293,6151fc337e8e6c69ea53efd8,001,2023-07-31_12h45.30.412,arm3_eps,2022.2.5,Win32,59.68367651,6151fc337e8e6c69ea53efd8,64c7fed44a04f777bb1e18ce,64c800ab7a854dcfc2e0d0fd,,,,,,,,,,,,,,,,,,,,,,
space,88.6316,6151fc337e8e6c69ea53efd8,001,2023-07-31_12h45.30.412,arm3_eps,2022.2.5,Win32,59.68367651,6151fc337e8e6c69ea53efd8,64c7fed44a04f777bb1e18ce,64c800ab7a854dcfc2e0d0fd,,,,,,,,,,,,,,,,,,,,,,
space,26.3093,6151fc337e8e6c69ea53efd8,001,2023-07-31_12h45.30.412,arm3_eps,2022.2.5,Win32,59.68367651,6151fc337e8e6c69ea53efd8,64c7fed44a04f777bb1e18ce,64c800ab7a854dcfc2e0d0fd,,,,,,,,,,,,,,,,,,,,,,
space,21.9057,6151fc337e8e6c69ea53efd8,001,2023-07-31_12h45.30.412,arm3_eps,2022.2.5,Win32,59.68367651,6151fc337e8e6c69ea53efd8,64c7fed44a04f777bb1e18ce,64c800ab7a854dcfc2e0d0fd,,,,,,,,,,,,,,,,,,,,,,
space,8.801,6151fc337e8e6c69ea53efd8,001,2023-07-31_12h45.30.412,arm3_eps,2022.2.5,Win32,59.68367651,6151fc337e8e6c69ea53efd8,64c7fed44a04f777bb1e18ce,64c800ab7a854dcfc2e0d0fd,,,,,,,,,,,,,,,,,,,,,,
space,2.2673,6151fc337e8e6c69ea53efd8,001,2023-07-31_12h45.30.412,arm3_eps,2022.2.5,Win32,59.68367651,6151fc337e8e6c69ea53efd8,64c7fed44a04f777bb1e18ce,64c800ab7a854dcfc2e0d0fd,,,,,,,,,,,,,,,,,,,,,,
,,6151fc337e8e6c69ea53efd8,001,2023-07-31_12h45.30.412,arm3_eps,2022.2.5,Win32,59.68367651,6151fc337e8e6c69ea53efd8,64c7fed44a04f777bb1e18ce,64c800ab7a854dcfc2e0d0fd,up,1,1,0.2429,1,0,12.4379,0,0,0,0,1,,,,,,,,,,
,,6151fc337e8e6c69ea53efd8,001,2023-07-31_12h45.30.412,arm3_eps,2022.2.5,Win32,59.68367651,6151fc337e8e6c69ea53efd8,64c7fed44a04f777bb1e18ce,64c800ab7a854dcfc2e0d0fd,right,1,1,0.2429,1,0.022007131,20.3189,1,0,1,0,1,,,,,,,,,,
,,6151fc337e8e6c69ea53efd8,001,2023-07-31_12h45.30.412,arm3_eps,2022.2.5,Win32,59.68367651,6151fc337e8e6c69ea53efd8,64c7fed44a04f777bb1e18ce,64c800ab7a854dcfc2e0d0fd,right,1,1,0.2429,1,0.028165453,4.7696,2,0,2,0,1,,,,,,,,,,
,,6151fc337e8e6c69ea53efd8,001,2023-07-31_12h45.30.412,arm3_eps,2022.2.5,Win32,59.68367651,6151fc337e8e6c69ea53efd8,64c7fed44a04f777bb1e18ce,64c800ab7a854dcfc2e0d0fd,right,1,1,0.2429,1,0.059376633,1.4727,3,0,3,0,1,,,,,,,,,,
,,6151fc337e8e6c69ea53efd8,001,2023-07-31_12h45.30.412,arm3_eps,2022.2.5,Win32,59.68367651,6151fc337e8e6c69ea53efd8,64c7fed44a04f777bb1e18ce,64c800ab7a854dcfc2e0d0fd,right,1,1,0.2429,1,0.051753294,0.684,4,0,4,0,1,,,,,,,,,,
,,6151fc337e8e6c69ea53efd8,001,2023-07-31_12h45.30.412,arm3_eps,2022.2.5,Win32,59.68367651,6151fc337e8e6c69ea53efd8,64c7fed44a04f777bb1e18ce,64c800ab7a854dcfc2e0d0fd,right,1,1,0.2429,1,0.067122776,0.3511,5,0,5,0,1,,,,,,,,,,
,,6151fc337e8e6c69ea53efd8,001,2023-07-31_12h45.30.412,arm3_eps,2022.2.5,Win32,59.68367651,6151fc337e8e6c69ea53efd8,64c7fed44a04f777bb1e18ce,64c800ab7a854dcfc2e0d0fd,right,1,1,0.2429,1,0.050275398,0.2226,6,0,6,0,1,,,,,,,,,,
,,6151fc337e8e6c69ea53efd8,001,2023-07-31_12h45.30.412,arm3_eps,2022.2.5,Win32,59.68367651,6151fc337e8e6c69ea53efd8,64c7fed44a04f777bb1e18ce,64c800ab7a854dcfc2e0d0fd,right,1,1,0.2429,1,0.062325765,0.2339,7,0,7,0,1,,,,,,,,,,
,,6151fc337e8e6c69ea53efd8,001,2023-07-31_12h45.30.412,arm3_eps,2022.2.5,Win32,59.68367651,6151fc337e8e6c69ea53efd8,64c7fed44a04f777bb1e18ce,64c800ab7a854dcfc2e0d0fd,right,1,1,0.2429,1,0.067439944,0.2336,8,0,8,0,1,,,,,,,,,,
,,6151fc337e8e6c69ea53efd8,001,2023-07-31_12h45.30.412,arm3_eps,2022.2.5,Win32,59.68367651,6151fc337e8e6c69ea53efd8,64c7fed44a04f777bb1e18ce,64c800ab7a854dcfc2e0d0fd,right,1,1,0.2429,1,0.083053055,0.2057,9,0,9,0,1,,,,,,,,,,
,,6151fc337e8e6c69ea53efd8,001,2023-07-31_12h45.30.412,arm3_eps,2022.2.5,Win32,59.68367651,6151fc337e8e6c69ea53efd8,64c7fed44a04f777bb1e18ce,64c800ab7a854dcfc2e0d0fd,right,1,1,0.2429,1,0.100860288,0.2743,10,0,10,0,1,,,,,,,,,,
,,6151fc337e8e6c69ea53efd8,001,2023-07-31_12h45.30.412,arm3_eps,2022.2.5,Win32,59.68367651,6151fc337e8e6c69ea53efd8,64c7fed44a04f777bb1e18ce,64c800ab7a854dcfc2e0d0fd,right,1,1,0.2429,1,0.106055682,0.3174,11,0,11,0,1,,,,,,,,,,
,,6151fc337e8e6c69ea53efd8,001,2023-07-31_12h45.30.412,arm3_eps,2022.2.5,Win32,59.68367651,6151fc337e8e6c69ea53efd8,64c7fed44a04f777bb1e18ce,64c800ab7a854dcfc2e0d0fd,right,1,1,0.2429,1,0.130946659,0.3341,12,0,12,0,1,,,,,,,,,,
,,6151fc337e8e6c69ea53efd8,001,2023-07-31_12h45.30.412,arm3_eps,2022.2.5,Win32,59.68367651,6151fc337e8e6c69ea53efd8,64c7fed44a04f777bb1e18ce,64c800ab7a854dcfc2e0d0fd,up,-1,1,0.2429,2,0,1.5221,13,0,13,0,1,,,,,,,,,,
,,6151fc337e8e6c69ea53efd8,001,2023-07-31_12h45.30.412,arm3_eps,2022.2.5,Win32,59.68367651,6151fc337e8e6c69ea53efd8,64c7fed44a04f777bb1e18ce,64c800ab7a854dcfc2e0d0fd,right,-1,1,0.2429,2,-0.010381246,3.017,14,0,14,0,1,,,,,,,,,,
,,6151fc337e8e6c69ea53efd8,001,2023-07-31_12h45.30.412,arm3_eps,2022.2.5,Win32,59.68367651,6151fc337e8e6c69ea53efd8,64c7fed44a04f777bb1e18ce,64c800ab7a854dcfc2e0d0fd,right,-1,1,0.2429,2,-0.026523039,0.267,15,0,15,0,1,,,,,,,,,,
,,6151fc337e8e6c69ea53efd8,001,2023-07-31_12h45.30.412,arm3_eps,2022.2.5,Win32,59.68367651,6151fc337e8e6c69ea53efd8,64c7fed44a04f777bb1e18ce,64c800ab7a854dcfc2e0d0fd,right,-1,1,0.2429,2,-0.043461171,0.1932,16,0,16,0,1,,,,,,,,,,
,,6151fc337e8e6c69ea53efd8,001,2023-07-31_12h45.30.412,arm3_eps,2022.2.5,Win32,59.68367651,6151fc337e8e6c69ea53efd8,64c7fed44a04f777bb1e18ce,64c800ab7a854dcfc2e0d0fd,right,-1,1,0.2429,2,-0.056711654,0.2057,17,0,17,0,1,,,,,,,,,,
,,6151fc337e8e6c69ea53efd8,001,2023-07-31_12h45.30.412,arm3_eps,2022.2.5,Win32,59.68367651,6151fc337e8e6c69ea53efd8,64c7fed44a04f777bb1e18ce,64c800ab7a854dcfc2e0d0fd,right,-1,1,0.2429,2,-0.04997916,0.1845,18,0,18,0,1,,,,,,,,,,
,,6151fc337e8e6c69ea53efd8,001,2023-07-31_12h45.30.412,arm3_eps,2022.2.5,Win32,59.68367651,6151fc337e8e6c69ea53efd8,64c7fed44a04f777bb1e18ce,64c800ab7a854dcfc2e0d0fd,right,-1,1,0.2429,2,-0.079418074,0.177,19,0,19,0,1,,,,,,,,,,
,,6151fc337e8e6c69ea53efd8,001,2023-07-31_12h45.30.412,arm3_eps,2022.2.5,Win32,59.68367651,6151fc337e8e6c69ea53efd8,64c7fed44a04f777bb1e18ce,64c800ab7a854dcfc2e0d0fd,right,-1,1,0.2429,2,-0.097954753,0.1721,20,0,20,0,1,,,,,,,,,,
,,6151fc337e8e6c69ea53efd8,001,2023-07-31_12h45.30.412,arm3_eps,2022.2.5,Win32,59.68367651,6151fc337e8e6c69ea53efd8,64c7fed44a04f777bb1e18ce,64c800ab7a854dcfc2e0d0fd,right,-1,1,0.2429,2,-0.123144701,0.1574,21,0,21,0,1,,,,,,,,,,
,,6151fc337e8e6c69ea53efd8,001,2023-07-31_12h45.30.412,arm3_eps,2022.2.5,Win32,59.68367651,6151fc337e8e6c69ea53efd8,64c7fed44a04f777bb1e18ce,64c800ab7a854dcfc2e0d0fd,right,-1,1,0.2429,2,-0.12895084,0.1634,22,0,22,0,1,,,,,,,,,,
,,6151fc337e8e6c69ea53efd8,001,2023-07-31_12h45.30.412,arm3_eps,2022.2.5,Win32,59.68367651,6151fc337e8e6c69ea53efd8,64c7fed44a04f777bb1e18ce,64c800ab7a854dcfc2e0d0fd,right,-1,1,0.2429,2,-0.155233719,0.1855,23,0,23,0,1,,,,,,,,,,
,,6151fc337e8e6c69ea53efd8,001,2023-07-31_12h45.30.412,arm3_eps,2022.2.5,Win32,59.68367651,6151fc337e8e6c69ea53efd8,64c7fed44a04f777bb1e18ce,64c800ab7a854dcfc2e0d0fd,right,-1,1,0.2429,2,-0.152372189,0.4953,24,0,24,0,1,,,,,,,,,,
,,6151fc337e8e6c69ea53efd8,001,2023-07-31_12h45.30.412,arm3_eps,2022.2.5,Win32,59.68367651,6151fc337e8e6c69ea53efd8,64c7fed44a04f777bb1e18ce,64c800ab7a854dcfc2e0d0fd,right,-1,1,0.2429,2,-0.141220461,0.3334,25,0,25,0,1,,,,,,,,,,
,,6151fc337e8e6c69ea53efd8,001,2023-07-31_12h45.30.412,arm3_eps,2022.2.5,Win32,59.68367651,6151fc337e8e6c69ea53efd8,64c7fed44a04f777bb1e18ce,64c800ab7a854dcfc2e0d0fd,down,-1,1,0.2429,3,0,1.267,26,0,26,0,1,,,,,,,,,,
,,6151fc337e8e6c69ea53efd8,001,2023-07-31_12h45.30.412,arm3_eps,2022.2.5,Win32,59.68367651,6151fc337e8e6c69ea53efd8,64c7fed44a04f777bb1e18ce,64c800ab7a854dcfc2e0d0fd,right,-1,1,0.2429,3,-0.037613081,1.6848,27,0,27,0,1,,,,,,,,,,
,,6151fc337e8e6c69ea53efd8,001,2023-07-31_12h45.30.412,arm3_eps,2022.2.5,Win32,59.68367651,6151fc337e8e6c69ea53efd8,64c7fed44a04f777bb1e18ce,64c800ab7a854dcfc2e0d0fd,right,-1,1,0.2429,3,-0.04000003,0.1696,28,0,28,0,1,,,,,,,,,,
,,6151fc337e8e6c69ea53efd8,001,2023-07-31_12h45.30.412,arm3_eps,2022.2.5,Win32,59.68367651,6151fc337e8e6c69ea53efd8,64c7fed44a04f777bb1e18ce,64c800ab7a854dcfc2e0d0fd,right,-1,1,0.2429,3,-0.080360347,0.149,29,0,29,0,1,,,,,,,,,,
,,6151fc337e8e6c69ea53efd8,001,2023-07-31_12h45.30.412,arm3_eps,2022.2.5,Win32,59.68367651,6151fc337e8e6c69ea53efd8,64c7fed44a04f777bb1e18ce,64c800ab7a854dcfc2e0d0fd,right,-1,1,0.2429,3,-0.106291301,0.1506,30,0,30,0,1,,,,,,,,,,
,,6151fc337e8e6c69ea53efd8,001,2023-07-31_12h45.30.412,arm3_eps,2022.2.5,Win32,59.68367651,6151fc337e8e6c69ea53efd8,64c7fed44a04f777bb1e18ce,64c800ab7a854dcfc2e0d0fd,right,-1,1,0.2429,3,-0.154138792,0.139,31,0,31,0,1,,,,,,,,,,
,,6151fc337e8e6c69ea53efd8,001,2023-07-31_12h45.30.412,arm3_eps,2022.2.5,Win32,59.68367651,6151fc337e8e6c69ea53efd8,64c7fed44a04f777bb1e18ce,64c800ab7a854dcfc2e0d0fd,right,-1,1,0.2429,3,-0.137458758,0.1388,32,0,32,0,1,,,,,,,,,,
,,6151fc337e8e6c69ea53efd8,001,2023-07-31_12h45.30.412,arm3_eps,2022.2.5,Win32,59.68367651,6151fc337e8e6c69ea53efd8,64c7fed44a04f777bb1e18ce,64c800ab7a854dcfc2e0d0fd,right,-1,1,0.2429,3,-0.150614381,0.1343,33,0,33,0,1,,,,,,,,,,
,,6151fc337e8e6c69ea53efd8,001,2023-07-31_12h45.30.412,arm3_eps,2022.2.5,Win32,59.68367651,6151fc337e8e6c69ea53efd8,64c7fed44a04f777bb1e18ce,64c800ab7a854dcfc2e0d0fd,right,-1,1,0.2429,3,-0.167645703,0.139,34,0,34,0,1,,,,,,,,,,
,,6151fc337e8e6c69ea53efd8,001,2023-07-31_12h45.30.412,arm3_eps,2022.2.5,Win32,59.68367651,6151fc337e8e6c69ea53efd8,64c7fed44a04f777bb1e18ce,64c800ab7a854dcfc2e0d0fd,right,-1,1,0.2429,3,-0.144837699,0.1506,35,0,35,0,1,,,,,,,,,,
,,6151fc337e8e6c69ea53efd8,001,2023-07-31_12h45.30.412,arm3_eps,2022.2.5,Win32,59.68367651,6151fc337e8e6c69ea53efd8,64c7fed44a04f777bb1e18ce,64c800ab7a854dcfc2e0d0fd,right,-1,1,0.2429,3,-0.152003495,0.1587,36,0,36,0,1,,,,,,,,,,
,,6151fc337e8e6c69ea53efd8,001,2023-07-31_12h45.30.412,arm3_eps,2022.2.5,Win32,59.68367651,6151fc337e8e6c69ea53efd8,64c7fed44a04f777bb1e18ce,64c800ab7a854dcfc2e0d0fd,right,-1,1,0.2429,3,-0.171665879,0.1625,37,0,37,0,1,,,,,,,,,,
,,6151fc337e8e6c69ea53efd8,001,2023-07-31_12h45.30.412,arm3_eps,2022.2.5,Win32,59.68367651,6151fc337e8e6c69ea53efd8,64c7fed44a04f777bb1e18ce,64c800ab7a854dcfc2e0d0fd,right,-1,1,0.2429,3,-0.179216869,0.168,38,0,38,0,1,,,,,,,,,,
,,6151fc337e8e6c69ea53efd8,001,2023-07-31_12h45.30.412,arm3_eps,2022.2.5,Win32,59.68367651,6151fc337e8e6c69ea53efd8,64c7fed44a04f777bb1e18ce,64c800ab7a854dcfc2e0d0fd,down,1,1,0.2429,4,0,1.1008,39,0,39,0,1,,,,,,,,,,
,,6151fc337e8e6c69ea53efd8,001,2023-07-31_12h45.30.412,arm3_eps,2022.2.5,Win32,59.68367651,6151fc337e8e6c69ea53efd8,64c7fed44a04f777bb1e18ce,64c800ab7a854dcfc2e0d0fd,down,1,1,0.2429,3,0,1.5688,40,0,40,0,1,,,,,,,,,,
,,6151fc337e8e6c69ea53efd8,001,2023-07-31_12h45.30.412,arm3_eps,2022.2.5,Win32,59.68367651,6151fc337e8e6c69ea53efd8,64c7fed44a04f777bb1e18ce,64c800ab7a854dcfc2e0d0fd,down,1,1,0.2429,2,0,0.1675,41,0,41,0,1,,,,,,,,,,
,,6151fc337e8e6c69ea53efd8,001,2023-07-31_12h45.30.412,arm3_eps,2022.2.5,Win32,59.68367651,6151fc337e8e6c69ea53efd8,64c7fed44a04f777bb1e18ce,64c800ab7a854dcfc2e0d0fd,right,1,1,0.2429,2,-0.000166963,1.5838,42,0,42,0,1,,,,,,,,,,
,,6151fc337e8e6c69ea53efd8,001,2023-07-31_12h45.30.412,arm3_eps,2022.2.5,Win32,59.68367651,6151fc337e8e6c69ea53efd8,64c7fed44a04f777bb1e18ce,64c800ab7a854dcfc2e0d0fd,right,1,1,0.2429,2,0.009647887,0.2413,43,0,43,0,1,,,,,,,,,,
,,6151fc337e8e6c69ea53efd8,001,2023-07-31_12h45.30.412,arm3_eps,2022.2.5,Win32,59.68367651,6151fc337e8e6c69ea53efd8,64c7fed44a04f777bb1e18ce,64c800ab7a854dcfc2e0d0fd,right,1,1,0.2429,2,0.026921314,0.1333,44,0,44,0,1,,,,,,,,,,
,,6151fc337e8e6c69ea53efd8,001,2023-07-31_12h45.30.412,arm3_eps,2022.2.5,Win32,59.68367651,6151fc337e8e6c69ea53efd8,64c7fed44a04f777bb1e18ce,64c800ab7a854dcfc2e0d0fd,right,1,1,0.2429,2,0.048410739,0.1558,45,0,45,0,1,,,,,,,,,,
,,6151fc337e8e6c69ea53efd8,001,2023-07-31_12h45.30.412,arm3_eps,2022.2.5,Win32,59.68367651,6151fc337e8e6c69ea53efd8,64c7fed44a04f777bb1e18ce,64c800ab7a854dcfc2e0d0fd,right,1,1,0.2429,2,0.050026567,0.1354,46,0,46,0,1,,,,,,,,,,
,,6151fc337e8e6c69ea53efd8,001,2023-07-31_12h45.30.412,arm3_eps,2022.2.5,Win32,59.68367651,6151fc337e8e6c69ea53efd8,64c7fed44a04f777bb1e18ce,64c800ab7a854dcfc2e0d0fd,right,1,1,0.2429,2,0.074988961,0.1503,47,0,47,0,1,,,,,,,,,,
,,6151fc337e8e6c69ea53efd8,001,2023-07-31_12h45.30.412,arm3_eps,2022.2.5,Win32,59.68367651,6151fc337e8e6c69ea53efd8,64c7fed44a04f777bb1e18ce,64c800ab7a854dcfc2e0d0fd,right,1,1,0.2429,2,0.103423612,0.1507,48,0,48,0,1,,,,,,,,,,
,,6151fc337e8e6c69ea53efd8,001,2023-07-31_12h45.30.412,arm3_eps,2022.2.5,Win32,59.68367651,6151fc337e8e6c69ea53efd8,64c7fed44a04f777bb1e18ce,64c800ab7a854dcfc2e0d0fd,right,1,1,0.2429,2,0.122504625,0.1226,49,0,49,0,1,,,,,,,,,,
space,13.512,6151fc337e8e6c69ea53efd8,001,2023-07-31_12h45.30.412,arm3_eps,2022.2.5,Win32,59.68367651,6151fc337e8e6c69ea53efd8,64c7fed44a04f777bb1e18ce,64c800ab7a854dcfc2e0d0fd,,,,,,,,,,,,,,,,,,,,,,
space,16.1736,6151fc337e8e6c69ea53efd8,001,2023-07-31_12h45.30.412,arm3_eps,2022.2.5,Win32,59.68367651,6151fc337e8e6c69ea53efd8,64c7fed44a04f777bb1e18ce,64c800ab7a854dcfc2e0d0fd,,,,,,,,,,,,,,,,,,,,,,
space,14.9022,6151fc337e8e6c69ea53efd8,001,2023-07-31_12h45.30.412,arm3_eps,2022.2.5,Win32,59.68367651,6151fc337e8e6c69ea53efd8,64c7fed44a04f777bb1e18ce,64c800ab7a854dcfc2e0d0fd,,,,,,,,,,,,,,,,,,,,,,
space,3.1802,6151fc337e8e6c69ea53efd8,001,2023-07-31_12h45.30.412,arm3_eps,2022.2.5,Win32,59.68367651,6151fc337e8e6c69ea53efd8,64c7fed44a04f777bb1e18ce,64c800ab7a854dcfc2e0d0fd,,,,,,,,,,,,,,,,,,,,,,
space,1.0447,6151fc337e8e6c69ea53efd8,001,2023-07-31_12h45.30.412,arm3_eps,2022.2.5,Win32,59.68367651,6151fc337e8e6c69ea53efd8,64c7fed44a04f777bb1e18ce,64c800ab7a854dcfc2e0d0fd,,,,,,,,,,,,,,,,,,,,,,
space,1.3007,6151fc337e8e6c69ea53efd8,001,2023-07-31_12h45.30.412,arm3_eps,2022.2.5,Win32,59.68367651,6151fc337e8e6c69ea53efd8,64c7fed44a04f777bb1e18ce,64c800ab7a854dcfc2e0d0fd,,,,,,,,,,,,,,,,,,,,,,
,,6151fc337e8e6c69ea53efd8,001,2023-07-31_12h45.30.412,arm3_eps,2022.2.5,Win32,59.68367651,6151fc337e8e6c69ea53efd8,64c7fed44a04f777bb1e18ce,64c800ab7a854dcfc2e0d0fd,right,1,0.75,0.2429,0,0.001466322,1.2748,0,0,0,0,1,,,,,,,,,,
,,6151fc337e8e6c69ea53efd8,001,2023-07-31_12h45.30.412,arm3_eps,2022.2.5,Win32,59.68367651,6151fc337e8e6c69ea53efd8,64c7fed44a04f777bb1e18ce,64c800ab7a854dcfc2e0d0fd,right,1,0.75,0.2429,0,-0.012193251,0.3575,1,0,1,0,1,,,,,,,,,,
,,6151fc337e8e6c69ea53efd8,001,2023-07-31_12h45.30.412,arm3_eps,2022.2.5,Win32,59.68367651,6151fc337e8e6c69ea53efd8,64c7fed44a04f777bb1e18ce,64c800ab7a854dcfc2e0d0fd,right,1,0.75,0.2429,0,-0.009042155,0.4513,2,0,2,0,1,,,,,,,,,,
,,6151fc337e8e6c69ea53efd8,001,2023-07-31_12h45.30.412,arm3_eps,2022.2.5,Win32,59.68367651,6151fc337e8e6c69ea53efd8,64c7fed44a04f777bb1e18ce,64c800ab7a854dcfc2e0d0fd,right,1,0.75,0.2429,0,0.008689999,0.267,3,0,3,0,1,,,,,,,,,,
,,6151fc337e8e6c69ea53efd8,001,2023-07-31_12h45.30.412,arm3_eps,2022.2.5,Win32,59.68367651,6151fc337e8e6c69ea53efd8,64c7fed44a04f777bb1e18ce,64c800ab7a854dcfc2e0d0fd,right,1,0.75,0.2429,0,0.029233623,0.4446,4,0,4,0,1,,,,,,,,,,
,,6151fc337e8e6c69ea53efd8,001,2023-07-31_12h45.30.412,arm3_eps,2022.2.5,Win32,59.68367651,6151fc337e8e6c69ea53efd8,64c7fed44a04f777bb1e18ce,64c800ab7a854dcfc2e0d0fd,right,1,0.75,0.2429,0,0.017661964,0.4852,5,0,5,0,1,,,,,,,,,,
,,6151fc337e8e6c69ea53efd8,001,2023-07-31_12h45.30.412,arm3_eps,2022.2.5,Win32,59.68367651,6151fc337e8e6c69ea53efd8,64c7fed44a04f777bb1e18ce,64c800ab7a854dcfc2e0d0fd,right,1,0.75,0.2429,0,0.054394912,0.2342,6,0,6,0,1,,,,,,,,,,
,,6151fc337e8e6c69ea53efd8,001,2023-07-31_12h45.30.412,arm3_eps,2022.2.5,Win32,59.68367651,6151fc337e8e6c69ea53efd8,64c7fed44a04f777bb1e18ce,64c800ab7a854dcfc2e0d0fd,right,1,0.75,0.2429,0,0.055629715,0.201,7,0,7,0,1,,,,,,,,,,
,,6151fc337e8e6c69ea53efd8,001,2023-07-31_12h45.30.412,arm3_eps,2022.2.5,Win32,59.68367651,6151fc337e8e6c69ea53efd8,64c7fed44a04f777bb1e18ce,64c800ab7a854dcfc2e0d0fd,up,-1,0.75,0.2429,1,0,0.8848,8,0,8,0,1,,,,,,,,,,
,,6151fc337e8e6c69ea53efd8,001,2023-07-31_12h45.30.412,arm3_eps,2022.2.5,Win32,59.68367651,6151fc337e8e6c69ea53efd8,64c7fed44a04f777bb1e18ce,64c800ab7a854dcfc2e0d0fd,right,-1,0.75,0.2429,1,-0.025124388,1.6841,9,0,9,0,1,,,,,,,,,,
,,6151fc337e8e6c69ea53efd8,001,2023-07-31_12h45.30.412,arm3_eps,2022.2.5,Win32,59.68367651,6151fc337e8e6c69ea53efd8,64c7fed44a04f777bb1e18ce,64c800ab7a854dcfc2e0d0fd,right,-1,0.75,0.2429,1,-0.001462212,0.3347,10,0,10,0,1,,,,,,,,,,
,,6151fc337e8e6c69ea53efd8,001,2023-07-31_12h45.30.412,arm3_eps,2022.2.5,Win32,59.68367651,6151fc337e8e6c69ea53efd8,64c7fed44a04f777bb1e18ce,64c800ab7a854dcfc2e0d0fd,right,-1,0.75,0.2429,1,-0.037708557,0.2762,11,0,11,0,1,,,,,,,,,,
,,6151fc337e8e6c69ea53efd8,001,2023-07-31_12h45.30.412,arm3_eps,2022.2.5,Win32,59.68367651,6151fc337e8e6c69ea53efd8,64c7fed44a04f777bb1e18ce,64c800ab7a854dcfc2e0d0fd,right,-1,0.75,0.2429,1,-0.064767327,0.3436,12,0,12,0,1,,,,,,,,,,
,,6151fc337e8e6c69ea53efd8,001,2023-07-31_12h45.30.412,arm3_eps,2022.2.5,Win32,59.68367651,6151fc337e8e6c69ea53efd8,64c7fed44a04f777bb1e18ce,64c800ab7a854dcfc2e0d0fd,right,-1,0.75,0.2429,1,-0.052893969,0.4509,13,0,13,0,1,,,,,,,,,,
,,6151fc337e8e6c69ea53efd8,001,2023-07-31_12h45.30.412,arm3_eps,2022.2.5,Win32,59.68367651,6151fc337e8e6c69ea53efd8,64c7fed44a04f777bb1e18ce,64c800ab7a854dcfc2e0d0fd,down,1,0.75,0.2429,1,0,0.923,14,0,14,0,1,,,,,,,,,,
,,6151fc337e8e6c69ea53efd8,001,2023-07-31_12h45.30.412,arm3_eps,2022.2.5,Win32,59.68367651,6151fc337e8e6c69ea53efd8,64c7fed44a04f777bb1e18ce,64c800ab7a854dcfc2e0d0fd,right,1,0.75,0.2429,1,0.028043893,1.618,15,0,15,0,1,,,,,,,,,,
,,6151fc337e8e6c69ea53efd8,001,2023-07-31_12h45.30.412,arm3_eps,2022.2.5,Win32,59.68367651,6151fc337e8e6c69ea53efd8,64c7fed44a04f777bb1e18ce,64c800ab7a854dcfc2e0d0fd,right,1,0.75,0.2429,1,0.057458394,0.3016,16,0,16,0,1,,,,,,,,,,
,,6151fc337e8e6c69ea53efd8,001,2023-07-31_12h45.30.412,arm3_eps,2022.2.5,Win32,59.68367651,6151fc337e8e6c69ea53efd8,64c7fed44a04f777bb1e18ce,64c800ab7a854dcfc2e0d0fd,right,1,0.75,0.2429,1,0.087103095,0.2841,17,0,17,0,1,,,,,,,,,,
,,6151fc337e8e6c69ea53efd8,001,2023-07-31_12h45.30.412,arm3_eps,2022.2.5,Win32,59.68367651,6151fc337e8e6c69ea53efd8,64c7fed44a04f777bb1e18ce,64c800ab7a854dcfc2e0d0fd,up,-1,0.75,0.2429,2,0,0.623,18,0,18,0,1,,,,,,,,,,
,,6151fc337e8e6c69ea53efd8,001,2023-07-31_12h45.30.412,arm3_eps,2022.2.5,Win32,59.68367651,6151fc337e8e6c69ea53efd8,64c7fed44a04f777bb1e18ce,64c800ab7a854dcfc2e0d0fd,right,-1,0.75,0.2429,2,0.037913877,1.7012,19,0,19,0,1,,,,,,,,,,
,,6151fc337e8e6c69ea53efd8,001,2023-07-31_12h45.30.412,arm3_eps,2022.2.5,Win32,59.68367651,6151fc337e8e6c69ea53efd8,64c7fed44a04f777bb1e18ce,64c800ab7a854dcfc2e0d0fd,right,-1,0.75,0.2429,2,0.044599365,0.3346,20,0,20,0,1,,,,,,,,,,
,,6151fc337e8e6c69ea53efd8,001,2023-07-31_12h45.30.412,arm3_eps,2022.2.5,Win32,59.68367651,6151fc337e8e6c69ea53efd8,64c7fed44a04f777bb1e18ce,64c800ab7a854dcfc2e0d0fd,right,-1,0.75,0.2429,2,0.020946638,0.3869,21,0,21,0,1,,,,,,,,,,
,,6151fc337e8e6c69ea53efd8,001,2023-07-31_12h45.30.412,arm3_eps,2022.2.5,Win32,59.68367651,6151fc337e8e6c69ea53efd8,64c7fed44a04f777bb1e18ce,64c800ab7a854dcfc2e0d0fd,right,-1,0.75,0.2429,2,0.001462901,0.4467,22,0,22,0,1,,,,,,,,,,
,,6151fc337e8e6c69ea53efd8,001,2023-07-31_12h45.30.412,arm3_eps,2022.2.5,Win32,59.68367651,6151fc337e8e6c69ea53efd8,64c7fed44a04f777bb1e18ce,64c800ab7a854dcfc2e0d0fd,right,-1,0.75,0.2429,2,0.006455838,0.6342,23,0,23,0,1,,,,,,,,,,
,,6151fc337e8e6c69ea53efd8,001,2023-07-31_12h45.30.412,arm3_eps,2022.2.5,Win32,59.68367651,6151fc337e8e6c69ea53efd8,64c7fed44a04f777bb1e18ce,64c800ab7a854dcfc2e0d0fd,right,-1,0.75,0.2429,2,-0.001370137,0.6179,24,0,24,0,1,,,,,,,,,,
,,6151fc337e8e6c69ea53efd8,001,2023-07-31_12h45.30.412,arm3_eps,2022.2.5,Win32,59.68367651,6151fc337e8e6c69ea53efd8,64c7fed44a04f777bb1e18ce,64c800ab7a854dcfc2e0d0fd,right,-1,0.75,0.2429,2,-0.001199692,0.5001,25,0,25,0,1,,,,,,,,,,
,,6151fc337e8e6c69ea53efd8,001,2023-07-31_12h45.30.412,arm3_eps,2022.2.5,Win32,59.68367651,6151fc337e8e6c69ea53efd8,64c7fed44a04f777bb1e18ce,64c800ab7a854dcfc2e0d0fd,right,-1,0.75,0.2429,2,0.012217113,0.4499,26,0,26,0,1,,,,,,,,,,
,,6151fc337e8e6c69ea53efd8,001,2023-07-31_12h45.30.412,arm3_eps,2022.2.5,Win32,59.68367651,6151fc337e8e6c69ea53efd8,64c7fed44a04f777bb1e18ce,64c800ab7a854dcfc2e0d0fd,right,-1,0.75,0.2429,2,-0.013046352,0.8591,27,0,27,0,1,,,,,,,,,,
,,6151fc337e8e6c69ea53efd8,001,2023-07-31_12h45.30.412,arm3_eps,2022.2.5,Win32,59.68367651,6151fc337e8e6c69ea53efd8,64c7fed44a04f777bb1e18ce,64c800ab7a854dcfc2e0d0fd,right,-1,0.75,0.2429,2,-0.010431835,0.4002,28,0,28,0,1,,,,,,,,,,
,,6151fc337e8e6c69ea53efd8,001,2023-07-31_12h45.30.412,arm3_eps,2022.2.5,Win32,59.68367651,6151fc337e8e6c69ea53efd8,64c7fed44a04f777bb1e18ce,64c800ab7a854dcfc2e0d0fd,down,1,0.75,0.2429,3,0,0.7006,29,0,29,0,1,,,,,,,,,,
,,6151fc337e8e6c69ea53efd8,001,2023-07-31_12h45.30.412,arm3_eps,2022.2.5,Win32,59.68367651,6151fc337e8e6c69ea53efd8,64c7fed44a04f777bb1e18ce,64c800ab7a854dcfc2e0d0fd,right,1,0.75,0.2429,3,0.043166338,1.7516,30,0,30,0,1,,,,,,,,,,
,,6151fc337e8e6c69ea53efd8,001,2023-07-31_12h45.30.412,arm3_eps,2022.2.5,Win32,59.68367651,6151fc337e8e6c69ea53efd8,64c7fed44a04f777bb1e18ce,64c800ab7a854dcfc2e0d0fd,right,1,0.75,0.2429,3,0.056735646,0.3023,31,0,31,0,1,,,,,,,,,,
,,6151fc337e8e6c69ea53efd8,001,2023-07-31_12h45.30.412,arm3_eps,2022.2.5,Win32,59.68367651,6151fc337e8e6c69ea53efd8,64c7fed44a04f777bb1e18ce,64c800ab7a854dcfc2e0d0fd,right,1,0.75,0.2429,3,0.058845134,0.2676,32,0,32,0,1,,,,,,,,,,
,,6151fc337e8e6c69ea53efd8,001,2023-07-31_12h45.30.412,arm3_eps,2022.2.5,Win32,59.68367651,6151fc337e8e6c69ea53efd8,64c7fed44a04f777bb1e18ce,64c800ab7a854dcfc2e0d0fd,right,1,0.75,0.2429,3,0.044090292,0.239,33,0,33,0,1,,,,,,,,,,
,,6151fc337e8e6c69ea53efd8,001,2023-07-31_12h45.30.412,arm3_eps,2022.2.5,Win32,59.68367651,6151fc337e8e6c69ea53efd8,64c7fed44a04f777bb1e18ce,64c800ab7a854dcfc2e0d0fd,right,1,0.75,0.2429,3,0.051348229,0.2668,34,0,34,0,1,,,,,,,,,,
,,6151fc337e8e6c69ea53efd8,001,2023-07-31_12h45.30.412,arm3_eps,2022.2.5,Win32,59.68367651,6151fc337e8e6c69ea53efd8,64c7fed44a04f777bb1e18ce,64c800ab7a854dcfc2e0d0fd,up,1,0.75,0.2429,4,0,0.8345,35,0,35,0,1,,,,,,,,,,
,,6151fc337e8e6c69ea53efd8,001,2023-07-31_12h45.30.412,arm3_eps,2022.2.5,Win32,59.68367651,6151fc337e8e6c69ea53efd8,64c7fed44a04f777bb1e18ce,64c800ab7a854dcfc2e0d0fd,right,1,0.75,0.2429,4,0.024802288,1.201,36,0,36,0,1,,,,,,,,,,
,,6151fc337e8e6c69ea53efd8,001,2023-07-31_12h45.30.412,arm3_eps,2022.2.5,Win32,59.68367651,6151fc337e8e6c69ea53efd8,64c7fed44a04f777bb1e18ce,64c800ab7a854dcfc2e0d0fd,right,1,0.75,0.2429,4,0.060972885,0.2257,37,0,37,0,1,,,,,,,,,,
,,6151fc337e8e6c69ea53efd8,001,2023-07-31_12h45.30.412,arm3_eps,2022.2.5,Win32,59.68367651,6151fc337e8e6c69ea53efd8,64c7fed44a04f777bb1e18ce,64c800ab7a854dcfc2e0d0fd,right,1,0.75,0.2429,4,0.057869127,0.4284,38,0,38,0,1,,,,,,,,,,
,,6151fc337e8e6c69ea53efd8,001,2023-07-31_12h45.30.412,arm3_eps,2022.2.5,Win32,59.68367651,6151fc337e8e6c69ea53efd8,64c7fed44a04f777bb1e18ce,64c800ab7a854dcfc2e0d0fd,right,1,0.75,0.2429,4,0.0281229,0.3887,39,0,39,0,1,,,,,,,,,,
,,6151fc337e8e6c69ea53efd8,001,2023-07-31_12h45.30.412,arm3_eps,2022.2.5,Win32,59.68367651,6151fc337e8e6c69ea53efd8,64c7fed44a04f777bb1e18ce,64c800ab7a854dcfc2e0d0fd,right,1,0.75,0.2429,4,0.013366814,0.467,40,0,40,0,1,,,,,,,,,,
,,6151fc337e8e6c69ea53efd8,001,2023-07-31_12h45.30.412,arm3_eps,2022.2.5,Win32,59.68367651,6151fc337e8e6c69ea53efd8,64c7fed44a04f777bb1e18ce,64c800ab7a854dcfc2e0d0fd,down,1,0.75,0.2429,3,0,1.8109,41,0,41,0,1,,,,,,,,,,
,,6151fc337e8e6c69ea53efd8,001,2023-07-31_12h45.30.412,arm3_eps,2022.2.5,Win32,59.68367651,6151fc337e8e6c69ea53efd8,64c7fed44a04f777bb1e18ce,64c800ab7a854dcfc2e0d0fd,right,1,0.75,0.2429,3,-0.004117203,1.0506,42,0,42,0,1,,,,,,,,,,
,,6151fc337e8e6c69ea53efd8,001,2023-07-31_12h45.30.412,arm3_eps,2022.2.5,Win32,59.68367651,6151fc337e8e6c69ea53efd8,64c7fed44a04f777bb1e18ce,64c800ab7a854dcfc2e0d0fd,right,1,0.75,0.2429,3,0.02836397,0.175,43,0,43,0,1,,,,,,,,,,
,,6151fc337e8e6c69ea53efd8,001,2023-07-31_12h45.30.412,arm3_eps,2022.2.5,Win32,59.68367651,6151fc337e8e6c69ea53efd8,64c7fed44a04f777bb1e18ce,64c800ab7a854dcfc2e0d0fd,right,1,0.75,0.2429,3,0.008886501,0.1401,44,0,44,0,1,,,,,,,,,,
,,6151fc337e8e6c69ea53efd8,001,2023-07-31_12h45.30.412,arm3_eps,2022.2.5,Win32,59.68367651,6151fc337e8e6c69ea53efd8,64c7fed44a04f777bb1e18ce,64c800ab7a854dcfc2e0d0fd,right,1,0.75,0.2429,3,0.001179854,0.1336,45,0,45,0,1,,,,,,,,,,
,,6151fc337e8e6c69ea53efd8,001,2023-07-31_12h45.30.412,arm3_eps,2022.2.5,Win32,59.68367651,6151fc337e8e6c69ea53efd8,64c7fed44a04f777bb1e18ce,64c800ab7a854dcfc2e0d0fd,right,1,0.75,0.2429,3,0.007603612,0.268,46,0,46,0,1,,,,,,,,,,
,,6151fc337e8e6c69ea53efd8,001,2023-07-31_12h45.30.412,arm3_eps,2022.2.5,Win32,59.68367651,6151fc337e8e6c69ea53efd8,64c7fed44a04f777bb1e18ce,64c800ab7a854dcfc2e0d0fd,right,1,0.75,0.2429,3,0.003491641,0.2506,47,0,47,0,1,,,,,,,,,,
,,6151fc337e8e6c69ea53efd8,001,2023-07-31_12h45.30.412,arm3_eps,2022.2.5,Win32,59.68367651,6151fc337e8e6c69ea53efd8,64c7fed44a04f777bb1e18ce,64c800ab7a854dcfc2e0d0fd,right,1,0.75,0.2429,3,0.046207989,1.0361,48,0,48,0,1,,,,,,,,,,
,,6151fc337e8e6c69ea53efd8,001,2023-07-31_12h45.30.412,arm3_eps,2022.2.5,Win32,59.68367651,6151fc337e8e6c69ea53efd8,64c7fed44a04f777bb1e18ce,64c800ab7a854dcfc2e0d0fd,right,1,0.75,0.2429,3,0.031248287,0.5223,49,0,49,0,1,,,,,,,,,,
space,5.0181,6151fc337e8e6c69ea53efd8,001,2023-07-31_12h45.30.412,arm3_eps,2022.2.5,Win32,59.68367651,6151fc337e8e6c69ea53efd8,64c7fed44a04f777bb1e18ce,64c800ab7a854dcfc2e0d0fd,,,,,,,,,,,,,,,,,,,,,,
space,1.0345,6151fc337e8e6c69ea53efd8,001,2023-07-31_12h45.30.412,arm3_eps,2022.2.5,Win32,59.68367651,6151fc337e8e6c69ea53efd8,64c7fed44a04f777bb1e18ce,64c800ab7a854dcfc2e0d0fd,,,,,,,,,,,,,,,,,,,,,,
space,0.9613,6151fc337e8e6c69ea53efd8,001,2023-07-31_12h45.30.412,arm3_eps,2022.2.5,Win32,59.68367651,6151fc337e8e6c69ea53efd8,64c7fed44a04f777bb1e18ce,64c800ab7a854dcfc2e0d0fd,,,,,,,,,,,,,,,,,,,,,,
,,6151fc337e8e6c69ea53efd8,001,2023-07-31_12h45.30.412,arm3_eps,2022.2.5,Win32,59.68367651,6151fc337e8e6c69ea53efd8,64c7fed44a04f777bb1e18ce,64c800ab7a854dcfc2e0d0fd,right,1,0.75,0.05,0,-0.019371325,1.3316,0,0,0,0,1,,,,,,,,,,
,,6151fc337e8e6c69ea53efd8,001,2023-07-31_12h45.30.412,arm3_eps,2022.2.5,Win32,59.68367651,6151fc337e8e6c69ea53efd8,64c7fed44a04f777bb1e18ce,64c800ab7a854dcfc2e0d0fd,right,1,0.75,0.05,0,-0.016370129,1.6339,1,0,1,0,1,,,,,,,,,,
,,6151fc337e8e6c69ea53efd8,001,2023-07-31_12h45.30.412,arm3_eps,2022.2.5,Win32,59.68367651,6151fc337e8e6c69ea53efd8,64c7fed44a04f777bb1e18ce,64c800ab7a854dcfc2e0d0fd,right,1,0.75,0.05,0,-0.0240821,0.6337,2,0,2,0,1,,,,,,,,,,
,,6151fc337e8e6c69ea53efd8,001,2023-07-31_12h45.30.412,arm3_eps,2022.2.5,Win32,59.68367651,6151fc337e8e6c69ea53efd8,64c7fed44a04f777bb1e18ce,64c800ab7a854dcfc2e0d0fd,right,1,0.75,0.05,0,0.002360496,0.5512,3,0,3,0,1,,,,,,,,,,
,,6151fc337e8e6c69ea53efd8,001,2023-07-31_12h45.30.412,arm3_eps,2022.2.5,Win32,59.68367651,6151fc337e8e6c69ea53efd8,64c7fed44a04f777bb1e18ce,64c800ab7a854dcfc2e0d0fd,right,1,0.75,0.05,0,-0.004264358,0.5669,4,0,4,0,1,,,,,,,,,,
,,6151fc337e8e6c69ea53efd8,001,2023-07-31_12h45.30.412,arm3_eps,2022.2.5,Win32,59.68367651,6151fc337e8e6c69ea53efd8,64c7fed44a04f777bb1e18ce,64c800ab7a854dcfc2e0d0fd,right,1,0.75,0.05,0,0.01994511,0.7007,5,0,5,0,1,,,,,,,,,,
,,6151fc337e8e6c69ea53efd8,001,2023-07-31_12h45.30.412,arm3_eps,2022.2.5,Win32,59.68367651,6151fc337e8e6c69ea53efd8,64c7fed44a04f777bb1e18ce,64c800ab7a854dcfc2e0d0fd,up,1,0.75,0.05,1,0,1.0602,6,0,6,0,1,,,,,,,,,,
,,6151fc337e8e6c69ea53efd8,001,2023-07-31_12h45.30.412,arm3_eps,2022.2.5,Win32,59.68367651,6151fc337e8e6c69ea53efd8,64c7fed44a04f777bb1e18ce,64c800ab7a854dcfc2e0d0fd,right,1,0.75,0.05,1,-0.003961474,2.2016,7,0,7,0,1,,,,,,,,,,
,,6151fc337e8e6c69ea53efd8,001,2023-07-31_12h45.30.412,arm3_eps,2022.2.5,Win32,59.68367651,6151fc337e8e6c69ea53efd8,64c7fed44a04f777bb1e18ce,64c800ab7a854dcfc2e0d0fd,right,1,0.75,0.05,1,-0.00073062,0.3516,8,0,8,0,1,,,,,,,,,,
,,6151fc337e8e6c69ea53efd8,001,2023-07-31_12h45.30.412,arm3_eps,2022.2.5,Win32,59.68367651,6151fc337e8e6c69ea53efd8,64c7fed44a04f777bb1e18ce,64c800ab7a854dcfc2e0d0fd,right,1,0.75,0.05,1,0.021038766,0.4346,9,0,9,0,1,,,,,,,,,,
,,6151fc337e8e6c69ea53efd8,001,2023-07-31_12h45.30.412,arm3_eps,2022.2.5,Win32,59.68367651,6151fc337e8e6c69ea53efd8,64c7fed44a04f777bb1e18ce,64c800ab7a854dcfc2e0d0fd,up,1,0.75,0.05,1,0,0.8393,10,0,10,0,1,,,,,,,,,,
,,6151fc337e8e6c69ea53efd8,001,2023-07-31_12h45.30.412,arm3_eps,2022.2.5,Win32,59.68367651,6151fc337e8e6c69ea53efd8,64c7fed44a04f777bb1e18ce,64c800ab7a854dcfc2e0d0fd,right,1,0.75,0.05,1,0.032727195,1.4843,11,0,11,0,1,,,,,,,,,,
,,6151fc337e8e6c69ea53efd8,001,2023-07-31_12h45.30.412,arm3_eps,2022.2.5,Win32,59.68367651,6151fc337e8e6c69ea53efd8,64c7fed44a04f777bb1e18ce,64c800ab7a854dcfc2e0d0fd,right,1,0.75,0.05,1,0.050408826,0.5503,12,0,12,0,1,,,,,,,,,,
,,6151fc337e8e6c69ea53efd8,001,2023-07-31_12h45.30.412,arm3_eps,2022.2.5,Win32,59.68367651,6151fc337e8e6c69ea53efd8,64c7fed44a04f777bb1e18ce,64c800ab7a854dcfc2e0d0fd,right,1,0.75,0.05,1,0.05755797,0.3172,13,0,13,0,1,,,,,,,,,,
,,6151fc337e8e6c69ea53efd8,001,2023-07-31_12h45.30.412,arm3_eps,2022.2.5,Win32,59.68367651,6151fc337e8e6c69ea53efd8,64c7fed44a04f777bb1e18ce,64c800ab7a854dcfc2e0d0fd,up,1,0.75,0.05,1,0,0.3402,14,0,14,0,1,,,,,,,,,,
,,6151fc337e8e6c69ea53efd8,001,2023-07-31_12h45.30.412,arm3_eps,2022.2.5,Win32,59.68367651,6151fc337e8e6c69ea53efd8,64c7fed44a04f777bb1e18ce,64c800ab7a854dcfc2e0d0fd,right,1,0.75,0.05,1,0.021829361,1.3009,15,0,15,0,1,,,,,,,,,,
,,6151fc337e8e6c69ea53efd8,001,2023-07-31_12h45.30.412,arm3_eps,2022.2.5,Win32,59.68367651,6151fc337e8e6c69ea53efd8,64c7fed44a04f777bb1e18ce,64c800ab7a854dcfc2e0d0fd,right,1,0.75,0.05,1,0.025408977,0.3941,16,0,16,0,1,,,,,,,,,,
,,6151fc337e8e6c69ea53efd8,001,2023-07-31_12h45.30.412,arm3_eps,2022.2.5,Win32,59.68367651,6151fc337e8e6c69ea53efd8,64c7fed44a04f777bb1e18ce,64c800ab7a854dcfc2e0d0fd,right,1,0.75,0.05,1,0.051710895,0.4008,17,0,17,0,1,,,,,,,,,,
,,6151fc337e8e6c69ea53efd8,001,2023-07-31_12h45.30.412,arm3_eps,2022.2.5,Win32,59.68367651,6151fc337e8e6c69ea53efd8,64c7fed44a04f777bb1e18ce,64c800ab7a854dcfc2e0d0fd,right,1,0.75,0.05,1,0.062566348,0.6506,18,0,18,0,1,,,,,,,,,,
,,6151fc337e8e6c69ea53efd8,001,2023-07-31_12h45.30.412,arm3_eps,2022.2.5,Win32,59.68367651,6151fc337e8e6c69ea53efd8,64c7fed44a04f777bb1e18ce,64c800ab7a854dcfc2e0d0fd,up,1,0.75,0.05,2,0,0.7676,19,0,19,0,1,,,,,,,,,,
,,6151fc337e8e6c69ea53efd8,001,2023-07-31_12h45.30.412,arm3_eps,2022.2.5,Win32,59.68367651,6151fc337e8e6c69ea53efd8,64c7fed44a04f777bb1e18ce,64c800ab7a854dcfc2e0d0fd,right,1,0.75,0.05,2,0.015744761,1.318,20,0,20,0,1,,,,,,,,,,
,,6151fc337e8e6c69ea53efd8,001,2023-07-31_12h45.30.412,arm3_eps,2022.2.5,Win32,59.68367651,6151fc337e8e6c69ea53efd8,64c7fed44a04f777bb1e18ce,64c800ab7a854dcfc2e0d0fd,right,1,0.75,0.05,2,0.030648488,0.2502,21,0,21,0,1,,,,,,,,,,
,,6151fc337e8e6c69ea53efd8,001,2023-07-31_12h45.30.412,arm3_eps,2022.2.5,Win32,59.68367651,6151fc337e8e6c69ea53efd8,64c7fed44a04f777bb1e18ce,64c800ab7a854dcfc2e0d0fd,right,1,0.75,0.05,2,0.075269238,0.5172,22,0,22,0,1,,,,,,,,,,
,,6151fc337e8e6c69ea53efd8,001,2023-07-31_12h45.30.412,arm3_eps,2022.2.5,Win32,59.68367651,6151fc337e8e6c69ea53efd8,64c7fed44a04f777bb1e18ce,64c800ab7a854dcfc2e0d0fd,up,1,0.75,0.05,3,0,0.5005,23,0,23,0,1,,,,,,,,,,
,,6151fc337e8e6c69ea53efd8,001,2023-07-31_12h45.30.412,arm3_eps,2022.2.5,Win32,59.68367651,6151fc337e8e6c69ea53efd8,64c7fed44a04f777bb1e18ce,64c800ab7a854dcfc2e0d0fd,right,1,0.75,0.05,3,0.013190959,1.1676,24,0,24,0,1,,,,,,,,,,
,,6151fc337e8e6c69ea53efd8,001,2023-07-31_12h45.30.412,arm3_eps,2022.2.5,Win32,59.68367651,6151fc337e8e6c69ea53efd8,64c7fed44a04f777bb1e18ce,64c800ab7a854dcfc2e0d0fd,right,1,0.75,0.05,3,0.054401381,0.3179,25,0,25,0,1,,,,,,,,,,
,,6151fc337e8e6c69ea53efd8,001,2023-07-31_12h45.30.412,arm3_eps,2022.2.5,Win32,59.68367651,6151fc337e8e6c69ea53efd8,64c7fed44a04f777bb1e18ce,64c800ab7a854dcfc2e0d0fd,up,1,0.75,0.05,4,0,0.7892,26,0,26,0,1,,,,,,,,,,
,,6151fc337e8e6c69ea53efd8,001,2023-07-31_12h45.30.412,arm3_eps,2022.2.5,Win32,59.68367651,6151fc337e8e6c69ea53efd8,64c7fed44a04f777bb1e18ce,64c800ab7a854dcfc2e0d0fd,right,1,0.75,0.05,4,0.005475579,0.9509,27,0,27,0,1,,,,,,,,,,
,,6151fc337e8e6c69ea53efd8,001,2023-07-31_12h45.30.412,arm3_eps,2022.2.5,Win32,59.68367651,6151fc337e8e6c69ea53efd8,64c7fed44a04f777bb1e18ce,64c800ab7a854dcfc2e0d0fd,right,1,0.75,0.05,4,0.018299008,0.3059,28,0,28,0,1,,,,,,,,,,
,,6151fc337e8e6c69ea53efd8,001,2023-07-31_12h45.30.412,arm3_eps,2022.2.5,Win32,59.68367651,6151fc337e8e6c69ea53efd8,64c7fed44a04f777bb1e18ce,64c800ab7a854dcfc2e0d0fd,right,1,0.75,0.05,4,0.023822319,0.3861,29,0,29,0,1,,,,,,,,,,
,,6151fc337e8e6c69ea53efd8,001,2023-07-31_12h45.30.412,arm3_eps,2022.2.5,Win32,59.68367651,6151fc337e8e6c69ea53efd8,64c7fed44a04f777bb1e18ce,64c800ab7a854dcfc2e0d0fd,up,1,0.75,0.05,5,0,0.8177,30,0,30,0,1,,,,,,,,,,
,,6151fc337e8e6c69ea53efd8,001,2023-07-31_12h45.30.412,arm3_eps,2022.2.5,Win32,59.68367651,6151fc337e8e6c69ea53efd8,64c7fed44a04f777bb1e18ce,64c800ab7a854dcfc2e0d0fd,right,1,0.75,0.05,5,0.01571474,1.3185,31,0,31,0,1,,,,,,,,,,
,,6151fc337e8e6c69ea53efd8,001,2023-07-31_12h45.30.412,arm3_eps,2022.2.5,Win32,59.68367651,6151fc337e8e6c69ea53efd8,64c7fed44a04f777bb1e18ce,64c800ab7a854dcfc2e0d0fd,right,1,0.75,0.05,5,0.007054192,1.173,32,0,32,0,1,,,,,,,,,,
,,6151fc337e8e6c69ea53efd8,001,2023-07-31_12h45.30.412,arm3_eps,2022.2.5,Win32,59.68367651,6151fc337e8e6c69ea53efd8,64c7fed44a04f777bb1e18ce,64c800ab7a854dcfc2e0d0fd,right,1,0.75,0.05,5,0.011596865,0.6507,33,0,33,0,1,,,,,,,,,,
,,6151fc337e8e6c69ea53efd8,001,2023-07-31_12h45.30.412,arm3_eps,2022.2.5,Win32,59.68367651,6151fc337e8e6c69ea53efd8,64c7fed44a04f777bb1e18ce,64c800ab7a854dcfc2e0d0fd,down,1,0.75,0.05,4,0,0.9347,34,0,34,0,1,,,,,,,,,,
,,6151fc337e8e6c69ea53efd8,001,2023-07-31_12h45.30.412,arm3_eps,2022.2.5,Win32,59.68367651,6151fc337e8e6c69ea53efd8,64c7fed44a04f777bb1e18ce,64c800ab7a854dcfc2e0d0fd,right,1,0.75,0.05,4,-0.002246661,1.1662,35,0,35,0,1,,,,,,,,,,
,,6151fc337e8e6c69ea53efd8,001,2023-07-31_12h45.30.412,arm3_eps,2022.2.5,Win32,59.68367651,6151fc337e8e6c69ea53efd8,64c7fed44a04f777bb1e18ce,64c800ab7a854dcfc2e0d0fd,right,1,0.75,0.05,4,0.010414215,0.4,36,0,36,0,1,,,,,,,,,,
,,6151fc337e8e6c69ea53efd8,001,2023-07-31_12h45.30.412,arm3_eps,2022.2.5,Win32,59.68367651,6151fc337e8e6c69ea53efd8,64c7fed44a04f777bb1e18ce,64c800ab7a854dcfc2e0d0fd,right,1,0.75,0.05,4,0.037593725,0.3843,37,0,37,0,1,,,,,,,,,,
,,6151fc337e8e6c69ea53efd8,001,2023-07-31_12h45.30.412,arm3_eps,2022.2.5,Win32,59.68367651,6151fc337e8e6c69ea53efd8,64c7fed44a04f777bb1e18ce,64c800ab7a854dcfc2e0d0fd,right,1,0.75,0.05,4,0.047557752,0.7905,38,0,38,0,1,,,,,,,,,,
,,6151fc337e8e6c69ea53efd8,001,2023-07-31_12h45.30.412,arm3_eps,2022.2.5,Win32,59.68367651,6151fc337e8e6c69ea53efd8,64c7fed44a04f777bb1e18ce,64c800ab7a854dcfc2e0d0fd,up,1,0.75,0.05,5,0,0.6503,39,0,39,0,1,,,,,,,,,,
,,6151fc337e8e6c69ea53efd8,001,2023-07-31_12h45.30.412,arm3_eps,2022.2.5,Win32,59.68367651,6151fc337e8e6c69ea53efd8,64c7fed44a04f777bb1e18ce,64c800ab7a854dcfc2e0d0fd,right,1,0.75,0.05,5,-0.005542604,1.0008,40,0,40,0,1,,,,,,,,,,
,,6151fc337e8e6c69ea53efd8,001,2023-07-31_12h45.30.412,arm3_eps,2022.2.5,Win32,59.68367651,6151fc337e8e6c69ea53efd8,64c7fed44a04f777bb1e18ce,64c800ab7a854dcfc2e0d0fd,right,1,0.75,0.05,5,0.004980392,0.2758,41,0,41,0,1,,,,,,,,,,
,,6151fc337e8e6c69ea53efd8,001,2023-07-31_12h45.30.412,arm3_eps,2022.2.5,Win32,59.68367651,6151fc337e8e6c69ea53efd8,64c7fed44a04f777bb1e18ce,64c800ab7a854dcfc2e0d0fd,right,1,0.75,0.05,5,0.032042356,0.4172,42,0,42,0,1,,,,,,,,,,
,,6151fc337e8e6c69ea53efd8,001,2023-07-31_12h45.30.412,arm3_eps,2022.2.5,Win32,59.68367651,6151fc337e8e6c69ea53efd8,64c7fed44a04f777bb1e18ce,64c800ab7a854dcfc2e0d0fd,up,1,0.75,0.05,5,0,0.6602,43,0,43,0,1,,,,,,,,,,
,,6151fc337e8e6c69ea53efd8,001,2023-07-31_12h45.30.412,arm3_eps,2022.2.5,Win32,59.68367651,6151fc337e8e6c69ea53efd8,64c7fed44a04f777bb1e18ce,64c800ab7a854dcfc2e0d0fd,right,1,0.75,0.05,5,0.009923871,1.6183,44,0,44,0,1,,,,,,,,,,
,,6151fc337e8e6c69ea53efd8,001,2023-07-31_12h45.30.412,arm3_eps,2022.2.5,Win32,59.68367651,6151fc337e8e6c69ea53efd8,64c7fed44a04f777bb1e18ce,64c800ab7a854dcfc2e0d0fd,right,1,0.75,0.05,5,0.026539107,0.3054,45,0,45,0,1,,,,,,,,,,
,,6151fc337e8e6c69ea53efd8,001,2023-07-31_12h45.30.412,arm3_eps,2022.2.5,Win32,59.68367651,6151fc337e8e6c69ea53efd8,64c7fed44a04f777bb1e18ce,64c800ab7a854dcfc2e0d0fd,right,1,0.75,0.05,5,0.038854167,0.2832,46,0,46,0,1,,,,,,,,,,
,,6151fc337e8e6c69ea53efd8,001,2023-07-31_12h45.30.412,arm3_eps,2022.2.5,Win32,59.68367651,6151fc337e8e6c69ea53efd8,64c7fed44a04f777bb1e18ce,64c800ab7a854dcfc2e0d0fd,up,1,0.75,0.05,6,0,0.7341,47,0,47,0,1,,,,,,,,,,
,,6151fc337e8e6c69ea53efd8,001,2023-07-31_12h45.30.412,arm3_eps,2022.2.5,Win32,59.68367651,6151fc337e8e6c69ea53efd8,64c7fed44a04f777bb1e18ce,64c800ab7a854dcfc2e0d0fd,right,1,0.75,0.05,6,0.008397537,1.2516,48,0,48,0,1,,,,,,,,,,
,,6151fc337e8e6c69ea53efd8,001,2023-07-31_12h45.30.412,arm3_eps,2022.2.5,Win32,59.68367651,6151fc337e8e6c69ea53efd8,64c7fed44a04f777bb1e18ce,64c800ab7a854dcfc2e0d0fd,right,1,0.75,0.05,6,0.017091849,0.2335,49,0,49,0,1,,,,,,,,,,
space,1.2509,6151fc337e8e6c69ea53efd8,001,2023-07-31_12h45.30.412,arm3_eps,2022.2.5,Win32,59.68367651,6151fc337e8e6c69ea53efd8,64c7fed44a04f777bb1e18ce,64c800ab7a854dcfc2e0d0fd,,,,,,,,,,,,,,,,,,,,,,
space,0.7344,6151fc337e8e6c69ea53efd8,001,2023-07-31_12h45.30.412,arm3_eps,2022.2.5,Win32,59.68367651,6151fc337e8e6c69ea53efd8,64c7fed44a04f777bb1e18ce,64c800ab7a854dcfc2e0d0fd,,,,,,,,,,,,,,,,,,,,,,
,,6151fc337e8e6c69ea53efd8,001,2023-07-31_12h45.30.412,arm3_eps,2022.2.5,Win32,59.68367651,6151fc337e8e6c69ea53efd8,64c7fed44a04f777bb1e18ce,64c800ab7a854dcfc2e0d0fd,right,1,0.75,0.5,0,0.052754733,1.9362,0,0,0,0,1,,,,,,,,,,
,,6151fc337e8e6c69ea53efd8,001,2023-07-31_12h45.30.412,arm3_eps,2022.2.5,Win32,59.68367651,6151fc337e8e6c69ea53efd8,64c7fed44a04f777bb1e18ce,64c800ab7a854dcfc2e0d0fd,right,1,0.75,0.5,0,0.067593974,0.5507,1,0,1,0,1,,,,,,,,,,
,,6151fc337e8e6c69ea53efd8,001,2023-07-31_12h45.30.412,arm3_eps,2022.2.5,Win32,59.68367651,6151fc337e8e6c69ea53efd8,64c7fed44a04f777bb1e18ce,64c800ab7a854dcfc2e0d0fd,right,1,0.75,0.5,0,0.061477653,0.567,2,0,2,0,1,,,,,,,,,,
,,6151fc337e8e6c69ea53efd8,001,2023-07-31_12h45.30.412,arm3_eps,2022.2.5,Win32,59.68367651,6151fc337e8e6c69ea53efd8,64c7fed44a04f777bb1e18ce,64c800ab7a854dcfc2e0d0fd,down,1,0.75,0.5,-1,0,0.9578,3,0,3,0,1,,,,,,,,,,
,,6151fc337e8e6c69ea53efd8,001,2023-07-31_12h45.30.412,arm3_eps,2022.2.5,Win32,59.68367651,6151fc337e8e6c69ea53efd8,64c7fed44a04f777bb1e18ce,64c800ab7a854dcfc2e0d0fd,right,1,0.75,0.5,-1,-0.026774655,1.5925,4,0,4,0,1,,,,,,,,,,
,,6151fc337e8e6c69ea53efd8,001,2023-07-31_12h45.30.412,arm3_eps,2022.2.5,Win32,59.68367651,6151fc337e8e6c69ea53efd8,64c7fed44a04f777bb1e18ce,64c800ab7a854dcfc2e0d0fd,down,-1,0.75,0.5,-2,0,0.767,5,0,5,0,1,,,,,,,,,,
,,6151fc337e8e6c69ea53efd8,001,2023-07-31_12h45.30.412,arm3_eps,2022.2.5,Win32,59.68367651,6151fc337e8e6c69ea53efd8,64c7fed44a04f777bb1e18ce,64c800ab7a854dcfc2e0d0fd,right,-1,0.75,0.5,-2,0.014440871,2.4177,6,0,6,0,1,,,,,,,,,,
,,6151fc337e8e6c69ea53efd8,001,2023-07-31_12h45.30.412,arm3_eps,2022.2.5,Win32,59.68367651,6151fc337e8e6c69ea53efd8,64c7fed44a04f777bb1e18ce,64c800ab7a854dcfc2e0d0fd,right,-1,0.75,0.5,-2,-0.004338529,0.2082,7,0,7,0,1,,,,,,,,,,
,,6151fc337e8e6c69ea53efd8,001,2023-07-31_12h45.30.412,arm3_eps,2022.2.5,Win32,59.68367651,6151fc337e8e6c69ea53efd8,64c7fed44a04f777bb1e18ce,64c800ab7a854dcfc2e0d0fd,right,-1,0.75,0.5,-2,-0.037913146,1.191,8,0,8,0,1,,,,,,,,,,
,,6151fc337e8e6c69ea53efd8,001,2023-07-31_12h45.30.412,arm3_eps,2022.2.5,Win32,59.68367651,6151fc337e8e6c69ea53efd8,64c7fed44a04f777bb1e18ce,64c800ab7a854dcfc2e0d0fd,right,-1,0.75,0.5,-2,-0.024491312,0.6334,9,0,9,0,1,,,,,,,,,,
,,6151fc337e8e6c69ea53efd8,001,2023-07-31_12h45.30.412,arm3_eps,2022.2.5,Win32,59.68367651,6151fc337e8e6c69ea53efd8,64c7fed44a04f777bb1e18ce,64c800ab7a854dcfc2e0d0fd,right,-1,0.75,0.5,-2,-0.058249852,0.2896,10,0,10,0,1,,,,,,,,,,
,,6151fc337e8e6c69ea53efd8,001,2023-07-31_12h45.30.412,arm3_eps,2022.2.5,Win32,59.68367651,6151fc337e8e6c69ea53efd8,64c7fed44a04f777bb1e18ce,64c800ab7a854dcfc2e0d0fd,right,-1,0.75,0.5,-2,-0.048411328,0.4841,11,0,11,0,1,,,,,,,,,,
,,6151fc337e8e6c69ea53efd8,001,2023-07-31_12h45.30.412,arm3_eps,2022.2.5,Win32,59.68367651,6151fc337e8e6c69ea53efd8,64c7fed44a04f777bb1e18ce,64c800ab7a854dcfc2e0d0fd,down,-1,0.75,0.5,-1,0,0.95,12,0,12,0,1,,,,,,,,,,
,,6151fc337e8e6c69ea53efd8,001,2023-07-31_12h45.30.412,arm3_eps,2022.2.5,Win32,59.68367651,6151fc337e8e6c69ea53efd8,64c7fed44a04f777bb1e18ce,64c800ab7a854dcfc2e0d0fd,right,-1,0.75,0.5,-1,-0.034203068,1.501,13,0,13,0,1,,,,,,,,,,
,,6151fc337e8e6c69ea53efd8,001,2023-07-31_12h45.30.412,arm3_eps,2022.2.5,Win32,59.68367651,6151fc337e8e6c69ea53efd8,64c7fed44a04f777bb1e18ce,64c800ab7a854dcfc2e0d0fd,right,-1,0.75,0.5,-1,-0.039223888,0.7242,14,0,14,0,1,,,,,,,,,,
,,6151fc337e8e6c69ea53efd8,001,2023-07-31_12h45.30.412,arm3_eps,2022.2.5,Win32,59.68367651,6151fc337e8e6c69ea53efd8,64c7fed44a04f777bb1e18ce,64c800ab7a854dcfc2e0d0fd,right,-1,0.75,0.5,-1,-0.032433766,0.801,15,0,15,0,1,,,,,,,,,,
,,6151fc337e8e6c69ea53efd8,001,2023-07-31_12h45.30.412,arm3_eps,2022.2.5,Win32,59.68367651,6151fc337e8e6c69ea53efd8,64c7fed44a04f777bb1e18ce,64c800ab7a854dcfc2e0d0fd,right,-1,0.75,0.5,-1,-0.025439172,0.5357,16,0,16,0,1,,,,,,,,,,
,,6151fc337e8e6c69ea53efd8,001,2023-07-31_12h45.30.412,arm3_eps,2022.2.5,Win32,59.68367651,6151fc337e8e6c69ea53efd8,64c7fed44a04f777bb1e18ce,64c800ab7a854dcfc2e0d0fd,right,-1,0.75,0.5,-1,-0.049461366,0.6506,17,0,17,0,1,,,,,,,,,,
,,6151fc337e8e6c69ea53efd8,001,2023-07-31_12h45.30.412,arm3_eps,2022.2.5,Win32,59.68367651,6151fc337e8e6c69ea53efd8,64c7fed44a04f777bb1e18ce,64c800ab7a854dcfc2e0d0fd,down,1,0.75,0.5,0,0,0.4612,18,0,18,0,1,,,,,,,,,,
,,6151fc337e8e6c69ea53efd8,001,2023-07-31_12h45.30.412,arm3_eps,2022.2.5,Win32,59.68367651,6151fc337e8e6c69ea53efd8,64c7fed44a04f777bb1e18ce,64c800ab7a854dcfc2e0d0fd,right,1,0.75,0.5,0,0.023919198,1.4177,19,0,19,0,1,,,,,,,,,,
,,6151fc337e8e6c69ea53efd8,001,2023-07-31_12h45.30.412,arm3_eps,2022.2.5,Win32,59.68367651,6151fc337e8e6c69ea53efd8,64c7fed44a04f777bb1e18ce,64c800ab7a854dcfc2e0d0fd,right,1,0.75,0.5,0,0.043354443,0.7343,20,0,20,0,1,,,,,,,,,,
,,6151fc337e8e6c69ea53efd8,001,2023-07-31_12h45.30.412,arm3_eps,2022.2.5,Win32,59.68367651,6151fc337e8e6c69ea53efd8,64c7fed44a04f777bb1e18ce,64c800ab7a854dcfc2e0d0fd,right,1,0.75,0.5,0,0.014430692,0.3957,21,0,21,0,1,,,,,,,,,,
,,6151fc337e8e6c69ea53efd8,001,2023-07-31_12h45.30.412,arm3_eps,2022.2.5,Win32,59.68367651,6151fc337e8e6c69ea53efd8,64c7fed44a04f777bb1e18ce,64c800ab7a854dcfc2e0d0fd,right,1,0.75,0.5,0,0.078212191,0.3505,22,0,22,0,1,,,,,,,,,,
,,6151fc337e8e6c69ea53efd8,001,2023-07-31_12h45.30.412,arm3_eps,2022.2.5,Win32,59.68367651,6151fc337e8e6c69ea53efd8,64c7fed44a04f777bb1e18ce,64c800ab7a854dcfc2e0d0fd,right,1,0.75,0.5,0,0.086455437,0.3287,23,0,23,0,1,,,,,,,,,,
,,6151fc337e8e6c69ea53efd8,001,2023-07-31_12h45.30.412,arm3_eps,2022.2.5,Win32,59.68367651,6151fc337e8e6c69ea53efd8,64c7fed44a04f777bb1e18ce,64c800ab7a854dcfc2e0d0fd,up,-1,0.75,0.5,0,0,0.6512,24,0,24,0,1,,,,,,,,,,
,,6151fc337e8e6c69ea53efd8,001,2023-07-31_12h45.30.412,arm3_eps,2022.2.5,Win32,59.68367651,6151fc337e8e6c69ea53efd8,64c7fed44a04f777bb1e18ce,64c800ab7a854dcfc2e0d0fd,right,-1,0.75,0.5,0,-0.025480824,1.2164,25,0,25,0,1,,,,,,,,,,
,,6151fc337e8e6c69ea53efd8,001,2023-07-31_12h45.30.412,arm3_eps,2022.2.5,Win32,59.68367651,6151fc337e8e6c69ea53efd8,64c7fed44a04f777bb1e18ce,64c800ab7a854dcfc2e0d0fd,right,-1,0.75,0.5,0,-0.035450218,0.3026,26,0,26,0,1,,,,,,,,,,
,,6151fc337e8e6c69ea53efd8,001,2023-07-31_12h45.30.412,arm3_eps,2022.2.5,Win32,59.68367651,6151fc337e8e6c69ea53efd8,64c7fed44a04f777bb1e18ce,64c800ab7a854dcfc2e0d0fd,right,-1,0.75,0.5,0,-0.056550434,0.4179,27,0,27,0,1,,,,,,,,,,
,,6151fc337e8e6c69ea53efd8,001,2023-07-31_12h45.30.412,arm3_eps,2022.2.5,Win32,59.68367651,6151fc337e8e6c69ea53efd8,64c7fed44a04f777bb1e18ce,64c800ab7a854dcfc2e0d0fd,right,-1,0.75,0.5,0,-0.074791139,0.4444,28,0,28,0,1,,,,,,,,,,
,,6151fc337e8e6c69ea53efd8,001,2023-07-31_12h45.30.412,arm3_eps,2022.2.5,Win32,59.68367651,6151fc337e8e6c69ea53efd8,64c7fed44a04f777bb1e18ce,64c800ab7a854dcfc2e0d0fd,down,-1,0.75,0.5,1,0,0.3441,29,0,29,0,1,,,,,,,,,,
,,6151fc337e8e6c69ea53efd8,001,2023-07-31_12h45.30.412,arm3_eps,2022.2.5,Win32,59.68367651,6151fc337e8e6c69ea53efd8,64c7fed44a04f777bb1e18ce,64c800ab7a854dcfc2e0d0fd,right,-1,0.75,0.5,1,-0.007301033,0.8185,30,0,30,0,1,,,,,,,,,,
,,6151fc337e8e6c69ea53efd8,001,2023-07-31_12h45.30.412,arm3_eps,2022.2.5,Win32,59.68367651,6151fc337e8e6c69ea53efd8,64c7fed44a04f777bb1e18ce,64c800ab7a854dcfc2e0d0fd,right,-1,0.75,0.5,1,-0.008498629,0.3008,31,0,31,0,1,,,,,,,,,,
,,6151fc337e8e6c69ea53efd8,001,2023-07-31_12h45.30.412,arm3_eps,2022.2.5,Win32,59.68367651,6151fc337e8e6c69ea53efd8,64c7fed44a04f777bb1e18ce,64c800ab7a854dcfc2e0d0fd,right,-1,0.75,0.5,1,-0.005557344,0.2844,32,0,32,0,1,,,,,,,,,,
,,6151fc337e8e6c69ea53efd8,001,2023-07-31_12h45.30.412,arm3_eps,2022.2.5,Win32,59.68367651,6151fc337e8e6c69ea53efd8,64c7fed44a04f777bb1e18ce,64c800ab7a854dcfc2e0d0fd,right,-1,0.75,0.5,1,-0.021909775,0.3995,33,0,33,0,1,,,,,,,,,,
,,6151fc337e8e6c69ea53efd8,001,2023-07-31_12h45.30.412,arm3_eps,2022.2.5,Win32,59.68367651,6151fc337e8e6c69ea53efd8,64c7fed44a04f777bb1e18ce,64c800ab7a854dcfc2e0d0fd,right,-1,0.75,0.5,1,-0.000736494,0.6502,34,0,34,0,1,,,,,,,,,,
,,6151fc337e8e6c69ea53efd8,001,2023-07-31_12h45.30.412,arm3_eps,2022.2.5,Win32,59.68367651,6151fc337e8e6c69ea53efd8,64c7fed44a04f777bb1e18ce,64c800ab7a854dcfc2e0d0fd,right,-1,0.75,0.5,1,-0.025207094,0.5578,35,0,35,0,1,,,,,,,,,,
,,6151fc337e8e6c69ea53efd8,001,2023-07-31_12h45.30.412,arm3_eps,2022.2.5,Win32,59.68367651,6151fc337e8e6c69ea53efd8,64c7fed44a04f777bb1e18ce,64c800ab7a854dcfc2e0d0fd,right,-1,0.75,0.5,1,-0.032120725,0.8248,36,0,36,0,1,,,,,,,,,,
,,6151fc337e8e6c69ea53efd8,001,2023-07-31_12h45.30.412,arm3_eps,2022.2.5,Win32,59.68367651,6151fc337e8e6c69ea53efd8,64c7fed44a04f777bb1e18ce,64c800ab7a854dcfc2e0d0fd,right,-1,0.75,0.5,1,-0.027849171,1.5175,37,0,37,0,1,,,,,,,,,,
,,6151fc337e8e6c69ea53efd8,001,2023-07-31_12h45.30.412,arm3_eps,2022.2.5,Win32,59.68367651,6151fc337e8e6c69ea53efd8,64c7fed44a04f777bb1e18ce,64c800ab7a854dcfc2e0d0fd,down,1,0.75,0.5,2,0,0.8684,38,0,38,0,1,,,,,,,,,,
,,6151fc337e8e6c69ea53efd8,001,2023-07-31_12h45.30.412,arm3_eps,2022.2.5,Win32,59.68367651,6151fc337e8e6c69ea53efd8,64c7fed44a04f777bb1e18ce,64c800ab7a854dcfc2e0d0fd,right,1,0.75,0.5,2,0.026306646,1.3181,39,0,39,0,1,,,,,,,,,,
,,6151fc337e8e6c69ea53efd8,001,2023-07-31_12h45.30.412,arm3_eps,2022.2.5,Win32,59.68367651,6151fc337e8e6c69ea53efd8,64c7fed44a04f777bb1e18ce,64c800ab7a854dcfc2e0d0fd,right,1,0.75,0.5,2,0.064400389,0.3263,40,0,40,0,1,,,,,,,,,,
,,6151fc337e8e6c69ea53efd8,001,2023-07-31_12h45.30.412,arm3_eps,2022.2.5,Win32,59.68367651,6151fc337e8e6c69ea53efd8,64c7fed44a04f777bb1e18ce,64c800ab7a854dcfc2e0d0fd,right,1,0.75,0.5,2,0.062946121,0.4005,41,0,41,0,1,,,,,,,,,,
,,6151fc337e8e6c69ea53efd8,001,2023-07-31_12h45.30.412,arm3_eps,2022.2.5,Win32,59.68367651,6151fc337e8e6c69ea53efd8,64c7fed44a04f777bb1e18ce,64c800ab7a854dcfc2e0d0fd,right,1,0.75,0.5,2,0.057725528,0.3505,42,0,42,0,1,,,,,,,,,,
,,6151fc337e8e6c69ea53efd8,001,2023-07-31_12h45.30.412,arm3_eps,2022.2.5,Win32,59.68367651,6151fc337e8e6c69ea53efd8,64c7fed44a04f777bb1e18ce,64c800ab7a854dcfc2e0d0fd,right,1,0.75,0.5,2,0.067815489,0.3335,43,0,43,0,1,,,,,,,,,,
,,6151fc337e8e6c69ea53efd8,001,2023-07-31_12h45.30.412,arm3_eps,2022.2.5,Win32,59.68367651,6151fc337e8e6c69ea53efd8,64c7fed44a04f777bb1e18ce,64c800ab7a854dcfc2e0d0fd,up,1,0.75,0.5,2,0,0.3496,44,0,44,0,1,,,,,,,,,,
,,6151fc337e8e6c69ea53efd8,001,2023-07-31_12h45.30.412,arm3_eps,2022.2.5,Win32,59.68367651,6151fc337e8e6c69ea53efd8,64c7fed44a04f777bb1e18ce,64c800ab7a854dcfc2e0d0fd,right,1,0.75,0.5,2,0.026120316,1.2722,45,0,45,0,1,,,,,,,,,,
,,6151fc337e8e6c69ea53efd8,001,2023-07-31_12h45.30.412,arm3_eps,2022.2.5,Win32,59.68367651,6151fc337e8e6c69ea53efd8,64c7fed44a04f777bb1e18ce,64c800ab7a854dcfc2e0d0fd,right,1,0.75,0.5,2,0.046650938,0.2553,46,0,46,0,1,,,,,,,,,,
,,6151fc337e8e6c69ea53efd8,001,2023-07-31_12h45.30.412,arm3_eps,2022.2.5,Win32,59.68367651,6151fc337e8e6c69ea53efd8,64c7fed44a04f777bb1e18ce,64c800ab7a854dcfc2e0d0fd,right,1,0.75,0.5,2,0.04594346,0.1756,47,0,47,0,1,,,,,,,,,,
,,6151fc337e8e6c69ea53efd8,001,2023-07-31_12h45.30.412,arm3_eps,2022.2.5,Win32,59.68367651,6151fc337e8e6c69ea53efd8,64c7fed44a04f777bb1e18ce,64c800ab7a854dcfc2e0d0fd,right,1,0.75,0.5,2,0.074390821,0.2345,48,0,48,0,1,,,,,,,,,,
,,6151fc337e8e6c69ea53efd8,001,2023-07-31_12h45.30.412,arm3_eps,2022.2.5,Win32,59.68367651,6151fc337e8e6c69ea53efd8,64c7fed44a04f777bb1e18ce,64c800ab7a854dcfc2e0d0fd,right,1,0.75,0.5,2,0.086197521,0.4348,49,0,49,0,1,,,,,,,,,,
space,45.1396,6151fc337e8e6c69ea53efd8,001,2023-07-31_12h45.30.412,arm3_eps,2022.2.5,Win32,59.68367651,6151fc337e8e6c69ea53efd8,64c7fed44a04f777bb1e18ce,64c800ab7a854dcfc2e0d0fd,,,,,,,,,,,,,,,,,,,,,,
space,3.333,6151fc337e8e6c69ea53efd8,001,2023-07-31_12h45.30.412,arm3_eps,2022.2.5,Win32,59.68367651,6151fc337e8e6c69ea53efd8,64c7fed44a04f777bb1e18ce,64c800ab7a854dcfc2e0d0fd,right,1,0.75,0.2429,0,0.024039481,1.6236,,,,,,0,0,0,0,1,,,,,
,,6151fc337e8e6c69ea53efd8,001,2023-07-31_12h45.30.412,arm3_eps,2022.2.5,Win32,59.68367651,6151fc337e8e6c69ea53efd8,64c7fed44a04f777bb1e18ce,64c800ab7a854dcfc2e0d0fd,right,1,0.75,0.2429,0,0.032700948,0.9502,,,,,,1,0,1,0,1,,,,,
,,6151fc337e8e6c69ea53efd8,001,2023-07-31_12h45.30.412,arm3_eps,2022.2.5,Win32,59.68367651,6151fc337e8e6c69ea53efd8,64c7fed44a04f777bb1e18ce,64c800ab7a854dcfc2e0d0fd,right,1,0.75,0.2429,0,0.054968245,0.8022,,,,,,2,0,2,0,1,,,,,
,,6151fc337e8e6c69ea53efd8,001,2023-07-31_12h45.30.412,arm3_eps,2022.2.5,Win32,59.68367651,6151fc337e8e6c69ea53efd8,64c7fed44a04f777bb1e18ce,64c800ab7a854dcfc2e0d0fd,up,-1,0.75,0.2429,1,0,1.0843,,,,,,3,0,3,0,1,,,,,
,,6151fc337e8e6c69ea53efd8,001,2023-07-31_12h45.30.412,arm3_eps,2022.2.5,Win32,59.68367651,6151fc337e8e6c69ea53efd8,64c7fed44a04f777bb1e18ce,64c800ab7a854dcfc2e0d0fd,right,-1,0.75,0.2429,1,-0.034791663,1.8333,,,,,,4,0,4,0,1,,,,,
,,6151fc337e8e6c69ea53efd8,001,2023-07-31_12h45.30.412,arm3_eps,2022.2.5,Win32,59.68367651,6151fc337e8e6c69ea53efd8,64c7fed44a04f777bb1e18ce,64c800ab7a854dcfc2e0d0fd,right,-1,0.75,0.2429,1,-0.068435214,0.6692,,,,,,5,0,5,0,1,,,,,
,,6151fc337e8e6c69ea53efd8,001,2023-07-31_12h45.30.412,arm3_eps,2022.2.5,Win32,59.68367651,6151fc337e8e6c69ea53efd8,64c7fed44a04f777bb1e18ce,64c800ab7a854dcfc2e0d0fd,down,-1,0.75,0.2429,2,0,0.7724,,,,,,6,0,6,0,1,,,,,
,,6151fc337e8e6c69ea53efd8,001,2023-07-31_12h45.30.412,arm3_eps,2022.2.5,Win32,59.68367651,6151fc337e8e6c69ea53efd8,64c7fed44a04f777bb1e18ce,64c800ab7a854dcfc2e0d0fd,right,-1,0.75,0.2429,2,-0.001000919,1.1519,,,,,,7,0,7,0,1,,,,,
,,6151fc337e8e6c69ea53efd8,001,2023-07-31_12h45.30.412,arm3_eps,2022.2.5,Win32,59.68367651,6151fc337e8e6c69ea53efd8,64c7fed44a04f777bb1e18ce,64c800ab7a854dcfc2e0d0fd,right,-1,0.75,0.2429,2,-0.028901219,0.6386,,,,,,8,0,8,0,1,,,,,
,,6151fc337e8e6c69ea53efd8,001,2023-07-31_12h45.30.412,arm3_eps,2022.2.5,Win32,59.68367651,6151fc337e8e6c69ea53efd8,64c7fed44a04f777bb1e18ce,64c800ab7a854dcfc2e0d0fd,down,-1,0.75,0.2429,3,0,2.1184,,,,,,9,0,9,0,1,,,,,
,,6151fc337e8e6c69ea53efd8,001,2023-07-31_12h45.30.412,arm3_eps,2022.2.5,Win32,59.68367651,6151fc337e8e6c69ea53efd8,64c7fed44a04f777bb1e18ce,64c800ab7a854dcfc2e0d0fd,right,-1,0.75,0.2429,3,-0.007987737,1.285,,,,,,10,0,10,0,1,,,,,
,,6151fc337e8e6c69ea53efd8,001,2023-07-31_12h45.30.412,arm3_eps,2022.2.5,Win32,59.68367651,6151fc337e8e6c69ea53efd8,64c7fed44a04f777bb1e18ce,64c800ab7a854dcfc2e0d0fd,right,-1,0.75,0.2429,3,-0.039442308,0.7004,,,,,,11,0,11,0,1,,,,,
,,6151fc337e8e6c69ea53efd8,001,2023-07-31_12h45.30.412,arm3_eps,2022.2.5,Win32,59.68367651,6151fc337e8e6c69ea53efd8,64c7fed44a04f777bb1e18ce,64c800ab7a854dcfc2e0d0fd,right,-1,0.75,0.2429,3,-0.013886196,0.651,,,,,,12,0,12,0,1,,,,,
,,6151fc337e8e6c69ea53efd8,001,2023-07-31_12h45.30.412,arm3_eps,2022.2.5,Win32,59.68367651,6151fc337e8e6c69ea53efd8,64c7fed44a04f777bb1e18ce,64c800ab7a854dcfc2e0d0fd,right,-1,0.75,0.2429,3,-0.019337737,0.5173,,,,,,13,0,13,0,1,,,,,
,,6151fc337e8e6c69ea53efd8,001,2023-07-31_12h45.30.412,arm3_eps,2022.2.5,Win32,59.68367651,6151fc337e8e6c69ea53efd8,64c7fed44a04f777bb1e18ce,64c800ab7a854dcfc2e0d0fd,down,-1,0.75,0.2429,4,0,0.6505,,,,,,14,0,14,0,1,,,,,
,,6151fc337e8e6c69ea53efd8,001,2023-07-31_12h45.30.412,arm3_eps,2022.2.5,Win32,59.68367651,6151fc337e8e6c69ea53efd8,64c7fed44a04f777bb1e18ce,64c800ab7a854dcfc2e0d0fd,right,-1,0.75,0.2429,4,0.028527102,1.4997,,,,,,15,0,15,0,1,,,,,
,,6151fc337e8e6c69ea53efd8,001,2023-07-31_12h45.30.412,arm3_eps,2022.2.5,Win32,59.68367651,6151fc337e8e6c69ea53efd8,64c7fed44a04f777bb1e18ce,64c800ab7a854dcfc2e0d0fd,right,-1,0.75,0.2429,4,0.000134727,0.6678,,,,,,16,0,16,0,1,,,,,
,,6151fc337e8e6c69ea53efd8,001,2023-07-31_12h45.30.412,arm3_eps,2022.2.5,Win32,59.68367651,6151fc337e8e6c69ea53efd8,64c7fed44a04f777bb1e18ce,64c800ab7a854dcfc2e0d0fd,right,-1,0.75,0.2429,4,0.013610511,0.4338,,,,,,17,0,17,0,1,,,,,
,,6151fc337e8e6c69ea53efd8,001,2023-07-31_12h45.30.412,arm3_eps,2022.2.5,Win32,59.68367651,6151fc337e8e6c69ea53efd8,64c7fed44a04f777bb1e18ce,64c800ab7a854dcfc2e0d0fd,right,-1,0.75,0.2429,4,0.020973163,0.4342,,,,,,18,0,18,0,1,,,,,
,,6151fc337e8e6c69ea53efd8,001,2023-07-31_12h45.30.412,arm3_eps,2022.2.5,Win32,59.68367651,6151fc337e8e6c69ea53efd8,64c7fed44a04f777bb1e18ce,64c800ab7a854dcfc2e0d0fd,right,-1,0.75,0.2429,4,0.019206139,0.8344,,,,,,19,0,19,0,1,,,,,
,,6151fc337e8e6c69ea53efd8,001,2023-07-31_12h45.30.412,arm3_eps,2022.2.5,Win32,59.68367651,6151fc337e8e6c69ea53efd8,64c7fed44a04f777bb1e18ce,64c800ab7a854dcfc2e0d0fd,right,-1,0.75,0.2429,4,0.019558882,0.4283,,,,,,20,0,20,0,1,,,,,
,,6151fc337e8e6c69ea53efd8,001,2023-07-31_12h45.30.412,arm3_eps,2022.2.5,Win32,59.68367651,6151fc337e8e6c69ea53efd8,64c7fed44a04f777bb1e18ce,64c800ab7a854dcfc2e0d0fd,right,-1,0.75,0.2429,4,0.006993831,0.8673,,,,,,21,0,21,0,1,,,,,
,,6151fc337e8e6c69ea53efd8,001,2023-07-31_12h45.30.412,arm3_eps,2022.2.5,Win32,59.68367651,6151fc337e8e6c69ea53efd8,64c7fed44a04f777bb1e18ce,64c800ab7a854dcfc2e0d0fd,right,-1,0.75,0.2429,4,-0.006801257,0.6673,,,,,,22,0,22,0,1,,,,,
,,6151fc337e8e6c69ea53efd8,001,2023-07-31_12h45.30.412,arm3_eps,2022.2.5,Win32,59.68367651,6151fc337e8e6c69ea53efd8,64c7fed44a04f777bb1e18ce,64c800ab7a854dcfc2e0d0fd,down,-1,0.75,0.2429,5,0,0.6842,,,,,,23,0,23,0,1,,,,,
,,6151fc337e8e6c69ea53efd8,001,2023-07-31_12h45.30.412,arm3_eps,2022.2.5,Win32,59.68367651,6151fc337e8e6c69ea53efd8,64c7fed44a04f777bb1e18ce,64c800ab7a854dcfc2e0d0fd,right,-1,0.75,0.2429,5,-0.011628001,1.4414,,,,,,24,0,24,0,1,,,,,
,,6151fc337e8e6c69ea53efd8,001,2023-07-31_12h45.30.412,arm3_eps,2022.2.5,Win32,59.68367651,6151fc337e8e6c69ea53efd8,64c7fed44a04f777bb1e18ce,64c800ab7a854dcfc2e0d0fd,right,-1,0.75,0.2429,5,-0.009942144,0.5339,,,,,,25,0,25,0,1,,,,,
,,6151fc337e8e6c69ea53efd8,001,2023-07-31_12h45.30.412,arm3_eps,2022.2.5,Win32,59.68367651,6151fc337e8e6c69ea53efd8,64c7fed44a04f777bb1e18ce,64c800ab7a854dcfc2e0d0fd,right,-1,0.75,0.2429,5,-0.035795018,1.101,,,,,,26,0,26,0,1,,,,,
,,6151fc337e8e6c69ea53efd8,001,2023-07-31_12h45.30.412,arm3_eps,2022.2.5,Win32,59.68367651,6151fc337e8e6c69ea53efd8,64c7fed44a04f777bb1e18ce,64c800ab7a854dcfc2e0d0fd,down,1,0.75,0.2429,6,0,0.4844,,,,,,27,0,27,0,1,,,,,
,,6151fc337e8e6c69ea53efd8,001,2023-07-31_12h45.30.412,arm3_eps,2022.2.5,Win32,59.68367651,6151fc337e8e6c69ea53efd8,64c7fed44a04f777bb1e18ce,64c800ab7a854dcfc2e0d0fd,right,1,0.75,0.2429,6,0.029733562,2.0524,,,,,,28,0,28,0,1,,,,,
,,6151fc337e8e6c69ea53efd8,001,2023-07-31_12h45.30.412,arm3_eps,2022.2.5,Win32,59.68367651,6151fc337e8e6c69ea53efd8,64c7fed44a04f777bb1e18ce,64c800ab7a854dcfc2e0d0fd,right,1,0.75,0.2429,6,0.024841694,0.4994,,,,,,29,0,29,0,1,,,,,
,,6151fc337e8e6c69ea53efd8,001,2023-07-31_12h45.30.412,arm3_eps,2022.2.5,Win32,59.68367651,6151fc337e8e6c69ea53efd8,64c7fed44a04f777bb1e18ce,64c800ab7a854dcfc2e0d0fd,right,1,0.75,0.2429,6,0.045208409,0.4346,,,,,,30,0,30,0,1,,,,,
,,6151fc337e8e6c69ea53efd8,001,2023-07-31_12h45.30.412,arm3_eps,2022.2.5,Win32,59.68367651,6151fc337e8e6c69ea53efd8,64c7fed44a04f777bb1e18ce,64c800ab7a854dcfc2e0d0fd,up,1,0.75,0.2429,7,0,1.1503,,,,,,31,0,31,0,1,,,,,
,,6151fc337e8e6c69ea53efd8,001,2023-07-31_12h45.30.412,arm3_eps,2022.2.5,Win32,59.68367651,6151fc337e8e6c69ea53efd8,64c7fed44a04f777bb1e18ce,64c800ab7a854dcfc2e0d0fd,right,1,0.75,0.2429,7,-0.001186654,1.5174,,,,,,32,0,32,0,1,,,,,
,,6151fc337e8e6c69ea53efd8,001,2023-07-31_12h45.30.412,arm3_eps,2022.2.5,Win32,59.68367651,6151fc337e8e6c69ea53efd8,64c7fed44a04f777bb1e18ce,64c800ab7a854dcfc2e0d0fd,right,1,0.75,0.2429,7,-0.016595295,0.7012,,,,,,33,0,33,0,1,,,,,
,,6151fc337e8e6c69ea53efd8,001,2023-07-31_12h45.30.412,arm3_eps,2022.2.5,Win32,59.68367651,6151fc337e8e6c69ea53efd8,64c7fed44a04f777bb1e18ce,64c800ab7a854dcfc2e0d0fd,right,1,0.75,0.2429,7,0.022680856,1.5677,,,,,,34,0,34,0,1,,,,,
,,6151fc337e8e6c69ea53efd8,001,2023-07-31_12h45.30.412,arm3_eps,2022.2.5,Win32,59.68367651,6151fc337e8e6c69ea53efd8,64c7fed44a04f777bb1e18ce,64c800ab7a854dcfc2e0d0fd,up,-1,0.75,0.2429,8,0,0.4846,,,,,,35,0,35,0,1,,,,,
,,6151fc337e8e6c69ea53efd8,001,2023-07-31_12h45.30.412,arm3_eps,2022.2.5,Win32,59.68367651,6151fc337e8e6c69ea53efd8,64c7fed44a04f777bb1e18ce,64c800ab7a854dcfc2e0d0fd,right,-1,0.75,0.2429,8,0.009563288,1.4847,,,,,,36,0,36,0,1,,,,,
,,6151fc337e8e6c69ea53efd8,001,2023-07-31_12h45.30.412,arm3_eps,2022.2.5,Win32,59.68367651,6151fc337e8e6c69ea53efd8,64c7fed44a04f777bb1e18ce,64c800ab7a854dcfc2e0d0fd,right,-1,0.75,0.2429,8,0.022641209,0.5513,,,,,,37,0,37,0,1,,,,,
,,6151fc337e8e6c69ea53efd8,001,2023-07-31_12h45.30.412,arm3_eps,2022.2.5,Win32,59.68367651,6151fc337e8e6c69ea53efd8,64c7fed44a04f777bb1e18ce,64c800ab7a854dcfc2e0d0fd,right,-1,0.75,0.2429,8,0.043675691,0.5511,,,,,,38,0,38,0,1,,,,,
,,6151fc337e8e6c69ea53efd8,001,2023-07-31_12h45.30.412,arm3_eps,2022.2.5,Win32,59.68367651,6151fc337e8e6c69ea53efd8,64c7fed44a04f777bb1e18ce,64c800ab7a854dcfc2e0d0fd,right,-1,0.75,0.2429,8,0.029303404,0.6395,,,,,,39,0,39,0,1,,,,,
,,6151fc337e8e6c69ea53efd8,001,2023-07-31_12h45.30.412,arm3_eps,2022.2.5,Win32,59.68367651,6151fc337e8e6c69ea53efd8,64c7fed44a04f777bb1e18ce,64c800ab7a854dcfc2e0d0fd,right,-1,0.75,0.2429,8,0.014034737,1.0187,,,,,,40,0,40,0,1,,,,,
,,6151fc337e8e6c69ea53efd8,001,2023-07-31_12h45.30.412,arm3_eps,2022.2.5,Win32,59.68367651,6151fc337e8e6c69ea53efd8,64c7fed44a04f777bb1e18ce,64c800ab7a854dcfc2e0d0fd,right,-1,0.75,0.2429,8,-0.005278659,0.4507,,,,,,41,0,41,0,1,,,,,
,,6151fc337e8e6c69ea53efd8,001,2023-07-31_12h45.30.412,arm3_eps,2022.2.5,Win32,59.68367651,6151fc337e8e6c69ea53efd8,64c7fed44a04f777bb1e18ce,64c800ab7a854dcfc2e0d0fd,down,-1,0.75,0.2429,9,0,0.55,,,,,,42,0,42,0,1,,,,,
,,6151fc337e8e6c69ea53efd8,001,2023-07-31_12h45.30.412,arm3_eps,2022.2.5,Win32,59.68367651,6151fc337e8e6c69ea53efd8,64c7fed44a04f777bb1e18ce,64c800ab7a854dcfc2e0d0fd,right,-1,0.75,0.2429,9,0.012265605,1.5016,,,,,,43,0,43,0,1,,,,,
,,6151fc337e8e6c69ea53efd8,001,2023-07-31_12h45.30.412,arm3_eps,2022.2.5,Win32,59.68367651,6151fc337e8e6c69ea53efd8,64c7fed44a04f777bb1e18ce,64c800ab7a854dcfc2e0d0fd,right,-1,0.75,0.2429,9,-0.021948417,0.5769,,,,,,44,0,44,0,1,,,,,
,,6151fc337e8e6c69ea53efd8,001,2023-07-31_12h45.30.412,arm3_eps,2022.2.5,Win32,59.68367651,6151fc337e8e6c69ea53efd8,64c7fed44a04f777bb1e18ce,64c800ab7a854dcfc2e0d0fd,right,-1,0.75,0.2429,9,-0.033016147,1.8676,,,,,,45,0,45,0,1,,,,,
,,6151fc337e8e6c69ea53efd8,001,2023-07-31_12h45.30.412,arm3_eps,2022.2.5,Win32,59.68367651,6151fc337e8e6c69ea53efd8,64c7fed44a04f777bb1e18ce,64c800ab7a854dcfc2e0d0fd,right,-1,0.75,0.2429,9,-0.031886438,0.4668,,,,,,46,0,46,0,1,,,,,
,,6151fc337e8e6c69ea53efd8,001,2023-07-31_12h45.30.412,arm3_eps,2022.2.5,Win32,59.68367651,6151fc337e8e6c69ea53efd8,64c7fed44a04f777bb1e18ce,64c800ab7a854dcfc2e0d0fd,right,-1,0.75,0.2429,9,-0.03338023,0.9737,,,,,,47,0,47,0,1,,,,,
,,6151fc337e8e6c69ea53efd8,001,2023-07-31_12h45.30.412,arm3_eps,2022.2.5,Win32,59.68367651,6151fc337e8e6c69ea53efd8,64c7fed44a04f777bb1e18ce,64c800ab7a854dcfc2e0d0fd,down,-1,0.75,0.2429,10,0,0.834,,,,,,48,0,48,0,1,,,,,
,,6151fc337e8e6c69ea53efd8,001,2023-07-31_12h45.30.412,arm3_eps,2022.2.5,Win32,59.68367651,6151fc337e8e6c69ea53efd8,64c7fed44a04f777bb1e18ce,64c800ab7a854dcfc2e0d0fd,right,-1,0.75,0.2429,10,-0.052017859,1.2353,,,,,,49,0,49,0,1,,,,,
,,6151fc337e8e6c69ea53efd8,001,2023-07-31_12h45.30.412,arm3_eps,2022.2.5,Win32,59.68367651,6151fc337e8e6c69ea53efd8,64c7fed44a04f777bb1e18ce,64c800ab7a854dcfc2e0d0fd,right,-1,0.75,0.2429,10,-0.044173498,0.4852,,,,,,50,0,50,0,1,,,,,
,,6151fc337e8e6c69ea53efd8,001,2023-07-31_12h45.30.412,arm3_eps,2022.2.5,Win32,59.68367651,6151fc337e8e6c69ea53efd8,64c7fed44a04f777bb1e18ce,64c800ab7a854dcfc2e0d0fd,right,-1,0.75,0.2429,10,-0.058279614,0.6506,,,,,,51,0,51,0,1,,,,,
,,6151fc337e8e6c69ea53efd8,001,2023-07-31_12h45.30.412,arm3_eps,2022.2.5,Win32,59.68367651,6151fc337e8e6c69ea53efd8,64c7fed44a04f777bb1e18ce,64c800ab7a854dcfc2e0d0fd,down,1,0.75,0.2429,11,0,0.4674,,,,,,52,0,52,0,1,,,,,
,,6151fc337e8e6c69ea53efd8,001,2023-07-31_12h45.30.412,arm3_eps,2022.2.5,Win32,59.68367651,6151fc337e8e6c69ea53efd8,64c7fed44a04f777bb1e18ce,64c800ab7a854dcfc2e0d0fd,right,1,0.75,0.2429,11,0.01906505,1.1737,,,,,,53,0,53,0,1,,,,,
,,6151fc337e8e6c69ea53efd8,001,2023-07-31_12h45.30.412,arm3_eps,2022.2.5,Win32,59.68367651,6151fc337e8e6c69ea53efd8,64c7fed44a04f777bb1e18ce,64c800ab7a854dcfc2e0d0fd,right,1,0.75,0.2429,11,0.051470908,0.7337,,,,,,54,0,54,0,1,,,,,
,,6151fc337e8e6c69ea53efd8,001,2023-07-31_12h45.30.412,arm3_eps,2022.2.5,Win32,59.68367651,6151fc337e8e6c69ea53efd8,64c7fed44a04f777bb1e18ce,64c800ab7a854dcfc2e0d0fd,up,1,0.75,0.2429,12,0,0.8081,,,,,,55,0,55,0,1,,,,,
,,6151fc337e8e6c69ea53efd8,001,2023-07-31_12h45.30.412,arm3_eps,2022.2.5,Win32,59.68367651,6151fc337e8e6c69ea53efd8,64c7fed44a04f777bb1e18ce,64c800ab7a854dcfc2e0d0fd,right,1,0.75,0.2429,12,-0.002508918,1.1569,,,,,,56,0,56,0,1,,,,,
,,6151fc337e8e6c69ea53efd8,001,2023-07-31_12h45.30.412,arm3_eps,2022.2.5,Win32,59.68367651,6151fc337e8e6c69ea53efd8,64c7fed44a04f777bb1e18ce,64c800ab7a854dcfc2e0d0fd,right,1,0.75,0.2429,12,0.039096253,0.5098,,,,,,57,0,57,0,1,,,,,
,,6151fc337e8e6c69ea53efd8,001,2023-07-31_12h45.30.412,arm3_eps,2022.2.5,Win32,59.68367651,6151fc337e8e6c69ea53efd8,64c7fed44a04f777bb1e18ce,64c800ab7a854dcfc2e0d0fd,up,1,0.75,0.2429,13,0,0.8339,,,,,,58,0,58,0,1,,,,,
,,6151fc337e8e6c69ea53efd8,001,2023-07-31_12h45.30.412,arm3_eps,2022.2.5,Win32,59.68367651,6151fc337e8e6c69ea53efd8,64c7fed44a04f777bb1e18ce,64c800ab7a854dcfc2e0d0fd,right,1,0.75,0.2429,13,-0.01571467,1.2679,,,,,,59,0,59,0,1,,,,,
,,6151fc337e8e6c69ea53efd8,001,2023-07-31_12h45.30.412,arm3_eps,2022.2.5,Win32,59.68367651,6151fc337e8e6c69ea53efd8,64c7fed44a04f777bb1e18ce,64c800ab7a854dcfc2e0d0fd,right,1,0.75,0.2429,13,0.003048368,0.6501,,,,,,60,0,60,0,1,,,,,
,,6151fc337e8e6c69ea53efd8,001,2023-07-31_12h45.30.412,arm3_eps,2022.2.5,Win32,59.68367651,6151fc337e8e6c69ea53efd8,64c7fed44a04f777bb1e18ce,64c800ab7a854dcfc2e0d0fd,right,1,0.75,0.2429,13,-0.00263318,0.6671,,,,,,61,0,61,0,1,,,,,
,,6151fc337e8e6c69ea53efd8,001,2023-07-31_12h45.30.412,arm3_eps,2022.2.5,Win32,59.68367651,6151fc337e8e6c69ea53efd8,64c7fed44a04f777bb1e18ce,64c800ab7a854dcfc2e0d0fd,up,1,0.75,0.2429,14,0,1.4429,,,,,,62,0,62,0,1,,,,,
,,6151fc337e8e6c69ea53efd8,001,2023-07-31_12h45.30.412,arm3_eps,2022.2.5,Win32,59.68367651,6151fc337e8e6c69ea53efd8,64c7fed44a04f777bb1e18ce,64c800ab7a854dcfc2e0d0fd,right,1,0.75,0.2429,14,0.012175578,0.9169,,,,,,63,0,63,0,1,,,,,
,,6151fc337e8e6c69ea53efd8,001,2023-07-31_12h45.30.412,arm3_eps,2022.2.5,Win32,59.68367651,6151fc337e8e6c69ea53efd8,64c7fed44a04f777bb1e18ce,64c800ab7a854dcfc2e0d0fd,right,1,0.75,0.2429,14,0.010670334,0.367,,,,,,64,0,64,0,1,,,,,
,,6151fc337e8e6c69ea53efd8,001,2023-07-31_12h45.30.412,arm3_eps,2022.2.5,Win32,59.68367651,6151fc337e8e6c69ea53efd8,64c7fed44a04f777bb1e18ce,64c800ab7a854dcfc2e0d0fd,right,1,0.75,0.2429,14,0.033377805,0.6845,,,,,,65,0,65,0,1,,,,,
,,6151fc337e8e6c69ea53efd8,001,2023-07-31_12h45.30.412,arm3_eps,2022.2.5,Win32,59.68367651,6151fc337e8e6c69ea53efd8,64c7fed44a04f777bb1e18ce,64c800ab7a854dcfc2e0d0fd,up,-1,0.75,0.2429,15,0,0.5685,,,,,,66,0,66,0,1,,,,,
,,6151fc337e8e6c69ea53efd8,001,2023-07-31_12h45.30.412,arm3_eps,2022.2.5,Win32,59.68367651,6151fc337e8e6c69ea53efd8,64c7fed44a04f777bb1e18ce,64c800ab7a854dcfc2e0d0fd,right,-1,0.75,0.2429,15,-0.028657406,1.0182,,,,,,67,0,67,0,1,,,,,
,,6151fc337e8e6c69ea53efd8,001,2023-07-31_12h45.30.412,arm3_eps,2022.2.5,Win32,59.68367651,6151fc337e8e6c69ea53efd8,64c7fed44a04f777bb1e18ce,64c800ab7a854dcfc2e0d0fd,right,-1,0.75,0.2429,15,-0.027614823,0.3683,,,,,,68,0,68,0,1,,,,,
,,6151fc337e8e6c69ea53efd8,001,2023-07-31_12h45.30.412,arm3_eps,2022.2.5,Win32,59.68367651,6151fc337e8e6c69ea53efd8,64c7fed44a04f777bb1e18ce,64c800ab7a854dcfc2e0d0fd,right,-1,0.75,0.2429,15,-0.025923106,0.7991,,,,,,69,0,69,0,1,,,,,
,,6151fc337e8e6c69ea53efd8,001,2023-07-31_12h45.30.412,arm3_eps,2022.2.5,Win32,59.68367651,6151fc337e8e6c69ea53efd8,64c7fed44a04f777bb1e18ce,64c800ab7a854dcfc2e0d0fd,right,-1,0.75,0.2429,15,-0.001586114,0.783,,,,,,70,0,70,0,1,,,,,
,,6151fc337e8e6c69ea53efd8,001,2023-07-31_12h45.30.412,arm3_eps,2022.2.5,Win32,59.68367651,6151fc337e8e6c69ea53efd8,64c7fed44a04f777bb1e18ce,64c800ab7a854dcfc2e0d0fd,right,-1,0.75,0.2429,15,-0.019983582,0.8172,,,,,,71,0,71,0,1,,,,,
,,6151fc337e8e6c69ea53efd8,001,2023-07-31_12h45.30.412,arm3_eps,2022.2.5,Win32,59.68367651,6151fc337e8e6c69ea53efd8,64c7fed44a04f777bb1e18ce,64c800ab7a854dcfc2e0d0fd,down,-1,0.75,0.2429,16,0,0.6609,,,,,,72,0,72,0,1,,,,,
,,6151fc337e8e6c69ea53efd8,001,2023-07-31_12h45.30.412,arm3_eps,2022.2.5,Win32,59.68367651,6151fc337e8e6c69ea53efd8,64c7fed44a04f777bb1e18ce,64c800ab7a854dcfc2e0d0fd,right,-1,0.75,0.2429,16,-0.012011795,1.1675,,,,,,73,0,73,0,1,,,,,
,,6151fc337e8e6c69ea53efd8,001,2023-07-31_12h45.30.412,arm3_eps,2022.2.5,Win32,59.68367651,6151fc337e8e6c69ea53efd8,64c7fed44a04f777bb1e18ce,64c800ab7a854dcfc2e0d0fd,right,-1,0.75,0.2429,16,-0.026852902,0.701,,,,,,74,0,74,0,1,,,,,
,,6151fc337e8e6c69ea53efd8,001,2023-07-31_12h45.30.412,arm3_eps,2022.2.5,Win32,59.68367651,6151fc337e8e6c69ea53efd8,64c7fed44a04f777bb1e18ce,64c800ab7a854dcfc2e0d0fd,right,-1,0.75,0.2429,16,-0.039082883,0.5062,,,,,,75,0,75,0,1,,,,,
,,6151fc337e8e6c69ea53efd8,001,2023-07-31_12h45.30.412,arm3_eps,2022.2.5,Win32,59.68367651,6151fc337e8e6c69ea53efd8,64c7fed44a04f777bb1e18ce,64c800ab7a854dcfc2e0d0fd,right,-1,0.75,0.2429,16,-0.040499159,0.6681,,,,,,76,0,76,0,1,,,,,
,,6151fc337e8e6c69ea53efd8,001,2023-07-31_12h45.30.412,arm3_eps,2022.2.5,Win32,59.68367651,6151fc337e8e6c69ea53efd8,64c7fed44a04f777bb1e18ce,64c800ab7a854dcfc2e0d0fd,right,-1,0.75,0.2429,16,-0.037257938,0.5502,,,,,,77,0,77,0,1,,,,,
,,6151fc337e8e6c69ea53efd8,001,2023-07-31_12h45.30.412,arm3_eps,2022.2.5,Win32,59.68367651,6151fc337e8e6c69ea53efd8,64c7fed44a04f777bb1e18ce,64c800ab7a854dcfc2e0d0fd,down,-1,0.75,0.2429,17,0,1.6344,,,,,,78,0,78,0,1,,,,,
,,6151fc337e8e6c69ea53efd8,001,2023-07-31_12h45.30.412,arm3_eps,2022.2.5,Win32,59.68367651,6151fc337e8e6c69ea53efd8,64c7fed44a04f777bb1e18ce,64c800ab7a854dcfc2e0d0fd,right,-1,0.75,0.2429,17,-0.009445934,1.8683,,,,,,79,0,79,0,1,,,,,
,,6151fc337e8e6c69ea53efd8,001,2023-07-31_12h45.30.412,arm3_eps,2022.2.5,Win32,59.68367651,6151fc337e8e6c69ea53efd8,64c7fed44a04f777bb1e18ce,64c800ab7a854dcfc2e0d0fd,right,-1,0.75,0.2429,17,-0.014152963,0.9174,,,,,,80,0,80,0,1,,,,,
,,6151fc337e8e6c69ea53efd8,001,2023-07-31_12h45.30.412,arm3_eps,2022.2.5,Win32,59.68367651,6151fc337e8e6c69ea53efd8,64c7fed44a04f777bb1e18ce,64c800ab7a854dcfc2e0d0fd,right,-1,0.75,0.2429,17,-0.038774221,0.4009,,,,,,81,0,81,0,1,,,,,
,,6151fc337e8e6c69ea53efd8,001,2023-07-31_12h45.30.412,arm3_eps,2022.2.5,Win32,59.68367651,6151fc337e8e6c69ea53efd8,64c7fed44a04f777bb1e18ce,64c800ab7a854dcfc2e0d0fd,right,-1,0.75,0.2429,17,-0.026626208,2.1839,,,,,,82,0,82,0,1,,,,,
,,6151fc337e8e6c69ea53efd8,001,2023-07-31_12h45.30.412,arm3_eps,2022.2.5,Win32,59.68367651,6151fc337e8e6c69ea53efd8,64c7fed44a04f777bb1e18ce,64c800ab7a854dcfc2e0d0fd,right,-1,0.75,0.2429,17,-0.008051596,0.9081,,,,,,83,0,83,0,1,,,,,
,,6151fc337e8e6c69ea53efd8,001,2023-07-31_12h45.30.412,arm3_eps,2022.2.5,Win32,59.68367651,6151fc337e8e6c69ea53efd8,64c7fed44a04f777bb1e18ce,64c800ab7a854dcfc2e0d0fd,up,-1,0.75,0.2429,16,0,0.8333,,,,,,84,0,84,0,1,,,,,
,,6151fc337e8e6c69ea53efd8,001,2023-07-31_12h45.30.412,arm3_eps,2022.2.5,Win32,59.68367651,6151fc337e8e6c69ea53efd8,64c7fed44a04f777bb1e18ce,64c800ab7a854dcfc2e0d0fd,right,-1,0.75,0.2429,16,-0.031125435,7.3007,,,,,,85,0,85,0,1,,,,,
,,6151fc337e8e6c69ea53efd8,001,2023-07-31_12h45.30.412,arm3_eps,2022.2.5,Win32,59.68367651,6151fc337e8e6c69ea53efd8,64c7fed44a04f777bb1e18ce,64c800ab7a854dcfc2e0d0fd,right,-1,0.75,0.2429,16,-0.047289051,1.2177,,,,,,86,0,86,0,1,,,,,
,,6151fc337e8e6c69ea53efd8,001,2023-07-31_12h45.30.412,arm3_eps,2022.2.5,Win32,59.68367651,6151fc337e8e6c69ea53efd8,64c7fed44a04f777bb1e18ce,64c800ab7a854dcfc2e0d0fd,down,-1,0.75,0.2429,17,0,1.1508,,,,,,87,0,87,0,1,,,,,
,,6151fc337e8e6c69ea53efd8,001,2023-07-31_12h45.30.412,arm3_eps,2022.2.5,Win32,59.68367651,6151fc337e8e6c69ea53efd8,64c7fed44a04f777bb1e18ce,64c800ab7a854dcfc2e0d0fd,right,-1,0.75,0.2429,17,-0.00718252,2.6507,,,,,,88,0,88,0,1,,,,,
,,6151fc337e8e6c69ea53efd8,001,2023-07-31_12h45.30.412,arm3_eps,2022.2.5,Win32,59.68367651,6151fc337e8e6c69ea53efd8,64c7fed44a04f777bb1e18ce,64c800ab7a854dcfc2e0d0fd,right,-1,0.75,0.2429,17,-0.042490747,0.3677,,,,,,89,0,89,0,1,,,,,
,,6151fc337e8e6c69ea53efd8,001,2023-07-31_12h45.30.412,arm3_eps,2022.2.5,Win32,59.68367651,6151fc337e8e6c69ea53efd8,64c7fed44a04f777bb1e18ce,64c800ab7a854dcfc2e0d0fd,right,-1,0.75,0.2429,17,-0.033939099,1.0999,,,,,,90,0,90,0,1,,,,,
,,6151fc337e8e6c69ea53efd8,001,2023-07-31_12h45.30.412,arm3_eps,2022.2.5,Win32,59.68367651,6151fc337e8e6c69ea53efd8,64c7fed44a04f777bb1e18ce,64c800ab7a854dcfc2e0d0fd,down,-1,0.75,0.2429,17,0,1.2177,,,,,,91,0,91,0,1,,,,,
,,6151fc337e8e6c69ea53efd8,001,2023-07-31_12h45.30.412,arm3_eps,2022.2.5,Win32,59.68367651,6151fc337e8e6c69ea53efd8,64c7fed44a04f777bb1e18ce,64c800ab7a854dcfc2e0d0fd,right,-1,0.75,0.2429,17,-0.003283414,1.3017,,,,,,92,0,92,0,1,,,,,
,,6151fc337e8e6c69ea53efd8,001,2023-07-31_12h45.30.412,arm3_eps,2022.2.5,Win32,59.68367651,6151fc337e8e6c69ea53efd8,64c7fed44a04f777bb1e18ce,64c800ab7a854dcfc2e0d0fd,right,-1,0.75,0.2429,17,0.002277622,0.3056,,,,,,93,0,93,0,1,,,,,
,,6151fc337e8e6c69ea53efd8,001,2023-07-31_12h45.30.412,arm3_eps,2022.2.5,Win32,59.68367651,6151fc337e8e6c69ea53efd8,64c7fed44a04f777bb1e18ce,64c800ab7a854dcfc2e0d0fd,right,-1,0.75,0.2429,17,0.005657573,0.4281,,,,,,94,0,94,0,1,,,,,
,,6151fc337e8e6c69ea53efd8,001,2023-07-31_12h45.30.412,arm3_eps,2022.2.5,Win32,59.68367651,6151fc337e8e6c69ea53efd8,64c7fed44a04f777bb1e18ce,64c800ab7a854dcfc2e0d0fd,right,-1,0.75,0.2429,17,-0.005469565,0.5345,,,,,,95,0,95,0,1,,,,,
,,6151fc337e8e6c69ea53efd8,001,2023-07-31_12h45.30.412,arm3_eps,2022.2.5,Win32,59.68367651,6151fc337e8e6c69ea53efd8,64c7fed44a04f777bb1e18ce,64c800ab7a854dcfc2e0d0fd,right,-1,0.75,0.2429,17,-0.020056858,0.3679,,,,,,96,0,96,0,1,,,,,
,,6151fc337e8e6c69ea53efd8,001,2023-07-31_12h45.30.412,arm3_eps,2022.2.5,Win32,59.68367651,6151fc337e8e6c69ea53efd8,64c7fed44a04f777bb1e18ce,64c800ab7a854dcfc2e0d0fd,down,-1,0.75,0.2429,18,0,0.2343,,,,,,97,0,97,0,1,,,,,
,,6151fc337e8e6c69ea53efd8,001,2023-07-31_12h45.30.412,arm3_eps,2022.2.5,Win32,59.68367651,6151fc337e8e6c69ea53efd8,64c7fed44a04f777bb1e18ce,64c800ab7a854dcfc2e0d0fd,right,-1,0.75,0.2429,18,-0.022999655,1.0544,,,,,,98,0,98,0,1,,,,,
,,6151fc337e8e6c69ea53efd8,001,2023-07-31_12h45.30.412,arm3_eps,2022.2.5,Win32,59.68367651,6151fc337e8e6c69ea53efd8,64c7fed44a04f777bb1e18ce,64c800ab7a854dcfc2e0d0fd,right,-1,0.75,0.2429,18,-0.031445249,0.2841,,,,,,99,0,99,0,1,,,,,
,,6151fc337e8e6c69ea53efd8,001,2023-07-31_12h45.30.412,arm3_eps,2022.2.5,Win32,59.68367651,6151fc337e8e6c69ea53efd8,64c7fed44a04f777bb1e18ce,64c800ab7a854dcfc2e0d0fd,right,-1,0.75,0.2429,18,-0.05833681,0.417,,,,,,100,0,100,0,1,,,,,
,,6151fc337e8e6c69ea53efd8,001,2023-07-31_12h45.30.412,arm3_eps,2022.2.5,Win32,59.68367651,6151fc337e8e6c69ea53efd8,64c7fed44a04f777bb1e18ce,64c800ab7a854dcfc2e0d0fd,down,-1,0.75,0.2429,19,0,0.2837,,,,,,101,0,101,0,1,,,,,
,,6151fc337e8e6c69ea53efd8,001,2023-07-31_12h45.30.412,arm3_eps,2022.2.5,Win32,59.68367651,6151fc337e8e6c69ea53efd8,64c7fed44a04f777bb1e18ce,64c800ab7a854dcfc2e0d0fd,right,-1,0.75,0.2429,19,-0.012543644,4.5826,,,,,,102,0,102,0,1,,,,,
,,6151fc337e8e6c69ea53efd8,001,2023-07-31_12h45.30.412,arm3_eps,2022.2.5,Win32,59.68367651,6151fc337e8e6c69ea53efd8,64c7fed44a04f777bb1e18ce,64c800ab7a854dcfc2e0d0fd,up,-1,0.75,0.2429,18,0,1.3174,,,,,,103,0,103,0,1,,,,,
,,6151fc337e8e6c69ea53efd8,001,2023-07-31_12h45.30.412,arm3_eps,2022.2.5,Win32,59.68367651,6151fc337e8e6c69ea53efd8,64c7fed44a04f777bb1e18ce,64c800ab7a854dcfc2e0d0fd,right,-1,0.75,0.2429,18,0.020661002,1.2336,,,,,,104,0,104,0,1,,,,,
,,6151fc337e8e6c69ea53efd8,001,2023-07-31_12h45.30.412,arm3_eps,2022.2.5,Win32,59.68367651,6151fc337e8e6c69ea53efd8,64c7fed44a04f777bb1e18ce,64c800ab7a854dcfc2e0d0fd,right,-1,0.75,0.2429,18,0.000573106,0.3345,,,,,,105,0,105,0,1,,,,,
,,6151fc337e8e6c69ea53efd8,001,2023-07-31_12h45.30.412,arm3_eps,2022.2.5,Win32,59.68367651,6151fc337e8e6c69ea53efd8,64c7fed44a04f777bb1e18ce,64c800ab7a854dcfc2e0d0fd,right,-1,0.75,0.2429,18,0.040108375,0.661,,,,,,106,0,106,0,1,,,,,
,,6151fc337e8e6c69ea53efd8,001,2023-07-31_12h45.30.412,arm3_eps,2022.2.5,Win32,59.68367651,6151fc337e8e6c69ea53efd8,64c7fed44a04f777bb1e18ce,64c800ab7a854dcfc2e0d0fd,right,-1,0.75,0.2429,18,0.021632262,0.5833,,,,,,107,0,107,0,1,,,,,
,,6151fc337e8e6c69ea53efd8,001,2023-07-31_12h45.30.412,arm3_eps,2022.2.5,Win32,59.68367651,6151fc337e8e6c69ea53efd8,64c7fed44a04f777bb1e18ce,64c800ab7a854dcfc2e0d0fd,down,-1,0.75,0.2429,18,0,1.0562,,,,,,108,0,108,0,1,,,,,
,,6151fc337e8e6c69ea53efd8,001,2023-07-31_12h45.30.412,arm3_eps,2022.2.5,Win32,59.68367651,6151fc337e8e6c69ea53efd8,64c7fed44a04f777bb1e18ce,64c800ab7a854dcfc2e0d0fd,right,-1,0.75,0.2429,18,0.005860571,1.0847,,,,,,109,0,109,0,1,,,,,
,,6151fc337e8e6c69ea53efd8,001,2023-07-31_12h45.30.412,arm3_eps,2022.2.5,Win32,59.68367651,6151fc337e8e6c69ea53efd8,64c7fed44a04f777bb1e18ce,64c800ab7a854dcfc2e0d0fd,right,-1,0.75,0.2429,18,0.027294171,0.3018,,,,,,110,0,110,0,1,,,,,
,,6151fc337e8e6c69ea53efd8,001,2023-07-31_12h45.30.412,arm3_eps,2022.2.5,Win32,59.68367651,6151fc337e8e6c69ea53efd8,64c7fed44a04f777bb1e18ce,64c800ab7a854dcfc2e0d0fd,right,-1,0.75,0.2429,18,-0.004126842,0.5172,,,,,,111,0,111,0,1,,,,,
,,6151fc337e8e6c69ea53efd8,001,2023-07-31_12h45.30.412,arm3_eps,2022.2.5,Win32,59.68367651,6151fc337e8e6c69ea53efd8,64c7fed44a04f777bb1e18ce,64c800ab7a854dcfc2e0d0fd,right,-1,0.75,0.2429,18,-0.017340452,0.2842,,,,,,112,0,112,0,1,,,,,
,,6151fc337e8e6c69ea53efd8,001,2023-07-31_12h45.30.412,arm3_eps,2022.2.5,Win32,59.68367651,6151fc337e8e6c69ea53efd8,64c7fed44a04f777bb1e18ce,64c800ab7a854dcfc2e0d0fd,right,-1,0.75,0.2429,18,-0.004608854,0.5337,,,,,,113,0,113,0,1,,,,,
,,6151fc337e8e6c69ea53efd8,001,2023-07-31_12h45.30.412,arm3_eps,2022.2.5,Win32,59.68367651,6151fc337e8e6c69ea53efd8,64c7fed44a04f777bb1e18ce,64c800ab7a854dcfc2e0d0fd,right,-1,0.75,0.2429,18,-0.00595523,2.4624,,,,,,114,0,114,0,1,,,,,
,,6151fc337e8e6c69ea53efd8,001,2023-07-31_12h45.30.412,arm3_eps,2022.2.5,Win32,59.68367651,6151fc337e8e6c69ea53efd8,64c7fed44a04f777bb1e18ce,64c800ab7a854dcfc2e0d0fd,right,-1,0.75,0.2429,18,-0.008490866,0.5668,,,,,,115,0,115,0,1,,,,,
,,6151fc337e8e6c69ea53efd8,001,2023-07-31_12h45.30.412,arm3_eps,2022.2.5,Win32,59.68367651,6151fc337e8e6c69ea53efd8,64c7fed44a04f777bb1e18ce,64c800ab7a854dcfc2e0d0fd,right,-1,0.75,0.2429,18,-0.016748637,0.5917,,,,,,116,0,116,0,1,,,,,
,,6151fc337e8e6c69ea53efd8,001,2023-07-31_12h45.30.412,arm3_eps,2022.2.5,Win32,59.68367651,6151fc337e8e6c69ea53efd8,64c7fed44a04f777bb1e18ce,64c800ab7a854dcfc2e0d0fd,down,-1,0.75,0.2429,19,0,0.601,,,,,,117,0,117,0,1,,,,,
,,6151fc337e8e6c69ea53efd8,001,2023-07-31_12h45.30.412,arm3_eps,2022.2.5,Win32,59.68367651,6151fc337e8e6c69ea53efd8,64c7fed44a04f777bb1e18ce,64c800ab7a854dcfc2e0d0fd,right,-1,0.75,0.2429,19,-0.015254565,1.734,,,,,,118,0,118,0,1,,,,,
,,6151fc337e8e6c69ea53efd8,001,2023-07-31_12h45.30.412,arm3_eps,2022.2.5,Win32,59.68367651,6151fc337e8e6c69ea53efd8,64c7fed44a04f777bb1e18ce,64c800ab7a854dcfc2e0d0fd,right,-1,0.75,0.2429,19,-0.005227075,0.3174,,,,,,119,0,119,0,1,,,,,
,,6151fc337e8e6c69ea53efd8,001,2023-07-31_12h45.30.412,arm3_eps,2022.2.5,Win32,59.68367651,6151fc337e8e6c69ea53efd8,64c7fed44a04f777bb1e18ce,64c800ab7a854dcfc2e0d0fd,right,-1,0.75,0.2429,19,-0.005740934,0.2833,,,,,,120,0,120,0,1,,,,,
,,6151fc337e8e6c69ea53efd8,001,2023-07-31_12h45.30.412,arm3_eps,2022.2.5,Win32,59.68367651,6151fc337e8e6c69ea53efd8,64c7fed44a04f777bb1e18ce,64c800ab7a854dcfc2e0d0fd,right,-1,0.75,0.2429,19,-0.007382708,0.2021,,,,,,121,0,121,0,1,,,,,
,,6151fc337e8e6c69ea53efd8,001,2023-07-31_12h45.30.412,arm3_eps,2022.2.5,Win32,59.68367651,6151fc337e8e6c69ea53efd8,64c7fed44a04f777bb1e18ce,64c800ab7a854dcfc2e0d0fd,right,-1,0.75,0.2429,19,-0.00399924,0.2269,,,,,,122,0,122,0,1,,,,,
,,6151fc337e8e6c69ea53efd8,001,2023-07-31_12h45.30.412,arm3_eps,2022.2.5,Win32,59.68367651,6151fc337e8e6c69ea53efd8,64c7fed44a04f777bb1e18ce,64c800ab7a854dcfc2e0d0fd,right,-1,0.75,0.2429,19,0.004953999,0.6003,,,,,,123,0,123,0,1,,,,,
,,6151fc337e8e6c69ea53efd8,001,2023-07-31_12h45.30.412,arm3_eps,2022.2.5,Win32,59.68367651,6151fc337e8e6c69ea53efd8,64c7fed44a04f777bb1e18ce,64c800ab7a854dcfc2e0d0fd,right,-1,0.75,0.2429,19,0.010683389,0.4506,,,,,,124,0,124,0,1,,,,,
,,6151fc337e8e6c69ea53efd8,001,2023-07-31_12h45.30.412,arm3_eps,2022.2.5,Win32,59.68367651,6151fc337e8e6c69ea53efd8,64c7fed44a04f777bb1e18ce,64c800ab7a854dcfc2e0d0fd,down,-1,0.75,0.2429,19,0,0.8583,,,,,,125,0,125,0,1,,,,,
,,6151fc337e8e6c69ea53efd8,001,2023-07-31_12h45.30.412,arm3_eps,2022.2.5,Win32,59.68367651,6151fc337e8e6c69ea53efd8,64c7fed44a04f777bb1e18ce,64c800ab7a854dcfc2e0d0fd,right,-1,0.75,0.2429,19,-0.001892961,1.0512,,,,,,126,0,126,0,1,,,,,
,,6151fc337e8e6c69ea53efd8,001,2023-07-31_12h45.30.412,arm3_eps,2022.2.5,Win32,59.68367651,6151fc337e8e6c69ea53efd8,64c7fed44a04f777bb1e18ce,64c800ab7a854dcfc2e0d0fd,right,-1,0.75,0.2429,19,0.015360392,0.2011,,,,,,127,0,127,0,1,,,,,
,,6151fc337e8e6c69ea53efd8,001,2023-07-31_12h45.30.412,arm3_eps,2022.2.5,Win32,59.68367651,6151fc337e8e6c69ea53efd8,64c7fed44a04f777bb1e18ce,64c800ab7a854dcfc2e0d0fd,right,-1,0.75,0.2429,19,-0.00434085,0.1839,,,,,,128,0,128,0,1,,,,,
,,6151fc337e8e6c69ea53efd8,001,2023-07-31_12h45.30.412,arm3_eps,2022.2.5,Win32,59.68367651,6151fc337e8e6c69ea53efd8,64c7fed44a04f777bb1e18ce,64c800ab7a854dcfc2e0d0fd,right,-1,0.75,0.2429,19,-0.034249288,0.1851,,,,,,129,0,129,0,1,,,,,
,,6151fc337e8e6c69ea53efd8,001,2023-07-31_12h45.30.412,arm3_eps,2022.2.5,Win32,59.68367651,6151fc337e8e6c69ea53efd8,64c7fed44a04f777bb1e18ce,64c800ab7a854dcfc2e0d0fd,down,-1,0.75,0.2429,20,0,0.651,,,,,,130,0,130,0,1,,,,,
,,6151fc337e8e6c69ea53efd8,001,2023-07-31_12h45.30.412,arm3_eps,2022.2.5,Win32,59.68367651,6151fc337e8e6c69ea53efd8,64c7fed44a04f777bb1e18ce,64c800ab7a854dcfc2e0d0fd,right,-1,0.75,0.2429,20,0.005519864,1.0905,,,,,,131,0,131,0,1,,,,,
,,6151fc337e8e6c69ea53efd8,001,2023-07-31_12h45.30.412,arm3_eps,2022.2.5,Win32,59.68367651,6151fc337e8e6c69ea53efd8,64c7fed44a04f777bb1e18ce,64c800ab7a854dcfc2e0d0fd,right,-1,0.75,0.2429,20,-0.041843653,0.2514,,,,,,132,0,132,0,1,,,,,
,,6151fc337e8e6c69ea53efd8,001,2023-07-31_12h45.30.412,arm3_eps,2022.2.5,Win32,59.68367651,6151fc337e8e6c69ea53efd8,64c7fed44a04f777bb1e18ce,64c800ab7a854dcfc2e0d0fd,down,-1,0.75,0.2429,21,0,0.5236,,,,,,133,0,133,0,1,,,,,
,,6151fc337e8e6c69ea53efd8,001,2023-07-31_12h45.30.412,arm3_eps,2022.2.5,Win32,59.68367651,6151fc337e8e6c69ea53efd8,64c7fed44a04f777bb1e18ce,64c800ab7a854dcfc2e0d0fd,right,-1,0.75,0.2429,21,0.01379512,1.1518,,,,,,134,0,134,0,1,,,,,
,,6151fc337e8e6c69ea53efd8,001,2023-07-31_12h45.30.412,arm3_eps,2022.2.5,Win32,59.68367651,6151fc337e8e6c69ea53efd8,64c7fed44a04f777bb1e18ce,64c800ab7a854dcfc2e0d0fd,right,-1,0.75,0.2429,21,0.009821814,0.3674,,,,,,135,0,135,0,1,,,,,
,,6151fc337e8e6c69ea53efd8,001,2023-07-31_12h45.30.412,arm3_eps,2022.2.5,Win32,59.68367651,6151fc337e8e6c69ea53efd8,64c7fed44a04f777bb1e18ce,64c800ab7a854dcfc2e0d0fd,right,-1,0.75,0.2429,21,0.004785544,0.3686,,,,,,136,0,136,0,1,,,,,
,,6151fc337e8e6c69ea53efd8,001,2023-07-31_12h45.30.412,arm3_eps,2022.2.5,Win32,59.68367651,6151fc337e8e6c69ea53efd8,64c7fed44a04f777bb1e18ce,64c800ab7a854dcfc2e0d0fd,right,-1,0.75,0.2429,21,-0.021592937,0.4994,,,,,,137,0,137,0,1,,,,,
,,6151fc337e8e6c69ea53efd8,001,2023-07-31_12h45.30.412,arm3_eps,2022.2.5,Win32,59.68367651,6151fc337e8e6c69ea53efd8,64c7fed44a04f777bb1e18ce,64c800ab7a854dcfc2e0d0fd,down,1,0.75,0.2429,22,0,0.4766,,,,,,138,0,138,0,1,,,,,
,,6151fc337e8e6c69ea53efd8,001,2023-07-31_12h45.30.412,arm3_eps,2022.2.5,Win32,59.68367651,6151fc337e8e6c69ea53efd8,64c7fed44a04f777bb1e18ce,64c800ab7a854dcfc2e0d0fd,right,1,0.75,0.2429,22,-0.002016035,0.8841,,,,,,139,0,139,0,1,,,,,
,,6151fc337e8e6c69ea53efd8,001,2023-07-31_12h45.30.412,arm3_eps,2022.2.5,Win32,59.68367651,6151fc337e8e6c69ea53efd8,64c7fed44a04f777bb1e18ce,64c800ab7a854dcfc2e0d0fd,right,1,0.75,0.2429,22,0.016120073,0.2386,,,,,,140,0,140,0,1,,,,,
,,6151fc337e8e6c69ea53efd8,001,2023-07-31_12h45.30.412,arm3_eps,2022.2.5,Win32,59.68367651,6151fc337e8e6c69ea53efd8,64c7fed44a04f777bb1e18ce,64c800ab7a854dcfc2e0d0fd,right,1,0.75,0.2429,22,0.010080809,0.2336,,,,,,141,0,141,0,1,,,,,
,,6151fc337e8e6c69ea53efd8,001,2023-07-31_12h45.30.412,arm3_eps,2022.2.5,Win32,59.68367651,6151fc337e8e6c69ea53efd8,64c7fed44a04f777bb1e18ce,64c800ab7a854dcfc2e0d0fd,right,1,0.75,0.2429,22,-0.006565724,0.4213,,,,,,142,0,142,0,1,,,,,
,,6151fc337e8e6c69ea53efd8,001,2023-07-31_12h45.30.412,arm3_eps,2022.2.5,Win32,59.68367651,6151fc337e8e6c69ea53efd8,64c7fed44a04f777bb1e18ce,64c800ab7a854dcfc2e0d0fd,right,1,0.75,0.2429,22,0.004902454,0.4172,,,,,,143,0,143,0,1,,,,,
,,6151fc337e8e6c69ea53efd8,001,2023-07-31_12h45.30.412,arm3_eps,2022.2.5,Win32,59.68367651,6151fc337e8e6c69ea53efd8,64c7fed44a04f777bb1e18ce,64c800ab7a854dcfc2e0d0fd,right,1,0.75,0.2429,22,0.052366829,0.7058,,,,,,144,0,144,0,1,,,,,
,,6151fc337e8e6c69ea53efd8,001,2023-07-31_12h45.30.412,arm3_eps,2022.2.5,Win32,59.68367651,6151fc337e8e6c69ea53efd8,64c7fed44a04f777bb1e18ce,64c800ab7a854dcfc2e0d0fd,right,1,0.75,0.2429,22,0.041567537,0.5734,,,,,,145,0,145,0,1,,,,,
,,6151fc337e8e6c69ea53efd8,001,2023-07-31_12h45.30.412,arm3_eps,2022.2.5,Win32,59.68367651,6151fc337e8e6c69ea53efd8,64c7fed44a04f777bb1e18ce,64c800ab7a854dcfc2e0d0fd,up,1,0.75,0.2429,23,0,0.6343,,,,,,146,0,146,0,1,,,,,
,,6151fc337e8e6c69ea53efd8,001,2023-07-31_12h45.30.412,arm3_eps,2022.2.5,Win32,59.68367651,6151fc337e8e6c69ea53efd8,64c7fed44a04f777bb1e18ce,64c800ab7a854dcfc2e0d0fd,right,1,0.75,0.2429,23,0.000700342,0.9347,,,,,,147,0,147,0,1,,,,,
,,6151fc337e8e6c69ea53efd8,001,2023-07-31_12h45.30.412,arm3_eps,2022.2.5,Win32,59.68367651,6151fc337e8e6c69ea53efd8,64c7fed44a04f777bb1e18ce,64c800ab7a854dcfc2e0d0fd,right,1,0.75,0.2429,23,0.003518335,0.2355,,,,,,148,0,148,0,1,,,,,
,,6151fc337e8e6c69ea53efd8,001,2023-07-31_12h45.30.412,arm3_eps,2022.2.5,Win32,59.68367651,6151fc337e8e6c69ea53efd8,64c7fed44a04f777bb1e18ce,64c800ab7a854dcfc2e0d0fd,right,1,0.75,0.2429,23,-0.00088806,0.1731,,,,,,149,0,149,0,1,,,,,
,,6151fc337e8e6c69ea53efd8,001,2023-07-31_12h45.30.412,arm3_eps,2022.2.5,Win32,59.68367651,6151fc337e8e6c69ea53efd8,64c7fed44a04f777bb1e18ce,64c800ab7a854dcfc2e0d0fd,right,1,0.75,0.2429,23,0.009864345,0.4085,,,,,,150,0,150,0,1,,,,,
,,6151fc337e8e6c69ea53efd8,001,2023-07-31_12h45.30.412,arm3_eps,2022.2.5,Win32,59.68367651,6151fc337e8e6c69ea53efd8,64c7fed44a04f777bb1e18ce,64c800ab7a854dcfc2e0d0fd,right,1,0.75,0.2429,23,0.006228857,0.2166,,,,,,151,0,151,0,1,,,,,
,,6151fc337e8e6c69ea53efd8,001,2023-07-31_12h45.30.412,arm3_eps,2022.2.5,Win32,59.68367651,6151fc337e8e6c69ea53efd8,64c7fed44a04f777bb1e18ce,64c800ab7a854dcfc2e0d0fd,right,1,0.75,0.2429,23,0.004733994,0.3096,,,,,,152,0,152,0,1,,,,,
,,6151fc337e8e6c69ea53efd8,001,2023-07-31_12h45.30.412,arm3_eps,2022.2.5,Win32,59.68367651,6151fc337e8e6c69ea53efd8,64c7fed44a04f777bb1e18ce,64c800ab7a854dcfc2e0d0fd,down,1,0.75,0.2429,22,0,0.8344,,,,,,153,0,153,0,1,,,,,
,,6151fc337e8e6c69ea53efd8,001,2023-07-31_12h45.30.412,arm3_eps,2022.2.5,Win32,59.68367651,6151fc337e8e6c69ea53efd8,64c7fed44a04f777bb1e18ce,64c800ab7a854dcfc2e0d0fd,right,1,0.75,0.2429,22,0.01673592,1.0515,,,,,,154,0,154,0,1,,,,,
,,6151fc337e8e6c69ea53efd8,001,2023-07-31_12h45.30.412,arm3_eps,2022.2.5,Win32,59.68367651,6151fc337e8e6c69ea53efd8,64c7fed44a04f777bb1e18ce,64c800ab7a854dcfc2e0d0fd,right,1,0.75,0.2429,22,0.00823869,0.2513,,,,,,155,0,155,0,1,,,,,
,,6151fc337e8e6c69ea53efd8,001,2023-07-31_12h45.30.412,arm3_eps,2022.2.5,Win32,59.68367651,6151fc337e8e6c69ea53efd8,64c7fed44a04f777bb1e18ce,64c800ab7a854dcfc2e0d0fd,right,1,0.75,0.2429,22,0.024177963,0.1841,,,,,,156,0,156,0,1,,,,,
,,6151fc337e8e6c69ea53efd8,001,2023-07-31_12h45.30.412,arm3_eps,2022.2.5,Win32,59.68367651,6151fc337e8e6c69ea53efd8,64c7fed44a04f777bb1e18ce,64c800ab7a854dcfc2e0d0fd,right,1,0.75,0.2429,22,0.044382675,0.3174,,,,,,157,0,157,0,1,,,,,
,,6151fc337e8e6c69ea53efd8,001,2023-07-31_12h45.30.412,arm3_eps,2022.2.5,Win32,59.68367651,6151fc337e8e6c69ea53efd8,64c7fed44a04f777bb1e18ce,64c800ab7a854dcfc2e0d0fd,right,1,0.75,0.2429,22,0.02488099,1.0006,,,,,,158,0,158,0,1,,,,,
,,6151fc337e8e6c69ea53efd8,001,2023-07-31_12h45.30.412,arm3_eps,2022.2.5,Win32,59.68367651,6151fc337e8e6c69ea53efd8,64c7fed44a04f777bb1e18ce,64c800ab7a854dcfc2e0d0fd,right,1,0.75,0.2429,22,0.019552822,0.7009,,,,,,159,0,159,0,1,,,,,
,,6151fc337e8e6c69ea53efd8,001,2023-07-31_12h45.30.412,arm3_eps,2022.2.5,Win32,59.68367651,6151fc337e8e6c69ea53efd8,64c7fed44a04f777bb1e18ce,64c800ab7a854dcfc2e0d0fd,right,1,0.75,0.2429,22,0.008826105,0.2498,,,,,,160,0,160,0,1,,,,,
,,6151fc337e8e6c69ea53efd8,001,2023-07-31_12h45.30.412,arm3_eps,2022.2.5,Win32,59.68367651,6151fc337e8e6c69ea53efd8,64c7fed44a04f777bb1e18ce,64c800ab7a854dcfc2e0d0fd,down,1,0.75,0.2429,21,0,0.6009,,,,,,161,0,161,0,1,,,,,
,,6151fc337e8e6c69ea53efd8,001,2023-07-31_12h45.30.412,arm3_eps,2022.2.5,Win32,59.68367651,6151fc337e8e6c69ea53efd8,64c7fed44a04f777bb1e18ce,64c800ab7a854dcfc2e0d0fd,right,1,0.75,0.2429,21,0.020133881,1.0843,,,,,,162,0,162,0,1,,,,,
,,6151fc337e8e6c69ea53efd8,001,2023-07-31_12h45.30.412,arm3_eps,2022.2.5,Win32,59.68367651,6151fc337e8e6c69ea53efd8,64c7fed44a04f777bb1e18ce,64c800ab7a854dcfc2e0d0fd,right,1,0.75,0.2429,21,0.053805931,0.1832,,,,,,163,0,163,0,1,,,,,
,,6151fc337e8e6c69ea53efd8,001,2023-07-31_12h45.30.412,arm3_eps,2022.2.5,Win32,59.68367651,6151fc337e8e6c69ea53efd8,64c7fed44a04f777bb1e18ce,64c800ab7a854dcfc2e0d0fd,right,1,0.75,0.2429,21,0.023677382,0.1756,,,,,,164,0,164,0,1,,,,,
,,6151fc337e8e6c69ea53efd8,001,2023-07-31_12h45.30.412,arm3_eps,2022.2.5,Win32,59.68367651,6151fc337e8e6c69ea53efd8,64c7fed44a04f777bb1e18ce,64c800ab7a854dcfc2e0d0fd,right,1,0.75,0.2429,21,0.04389544,0.1666,,,,,,165,0,165,0,1,,,,,
,,6151fc337e8e6c69ea53efd8,001,2023-07-31_12h45.30.412,arm3_eps,2022.2.5,Win32,59.68367651,6151fc337e8e6c69ea53efd8,64c7fed44a04f777bb1e18ce,64c800ab7a854dcfc2e0d0fd,right,1,0.75,0.2429,21,0.095043948,0.2589,,,,,,166,0,166,0,1,,,,,
,,6151fc337e8e6c69ea53efd8,001,2023-07-31_12h45.30.412,arm3_eps,2022.2.5,Win32,59.68367651,6151fc337e8e6c69ea53efd8,64c7fed44a04f777bb1e18ce,64c800ab7a854dcfc2e0d0fd,up,1,0.75,0.2429,21,0,1.2173,,,,,,167,0,167,0,1,,,,,
,,6151fc337e8e6c69ea53efd8,001,2023-07-31_12h45.30.412,arm3_eps,2022.2.5,Win32,59.68367651,6151fc337e8e6c69ea53efd8,64c7fed44a04f777bb1e18ce,64c800ab7a854dcfc2e0d0fd,right,1,0.75,0.2429,21,-0.007150596,1.2679,,,,,,168,0,168,0,1,,,,,
,,6151fc337e8e6c69ea53efd8,001,2023-07-31_12h45.30.412,arm3_eps,2022.2.5,Win32,59.68367651,6151fc337e8e6c69ea53efd8,64c7fed44a04f777bb1e18ce,64c800ab7a854dcfc2e0d0fd,right,1,0.75,0.2429,21,0.002249766,0.1677,,,,,,169,0,169,0,1,,,,,
,,6151fc337e8e6c69ea53efd8,001,2023-07-31_12h45.30.412,arm3_eps,2022.2.5,Win32,59.68367651,6151fc337e8e6c69ea53efd8,64c7fed44a04f777bb1e18ce,64c800ab7a854dcfc2e0d0fd,right,1,0.75,0.2429,21,0.01905799,0.201,,,,,,170,0,170,0,1,,,,,
,,6151fc337e8e6c69ea53efd8,001,2023-07-31_12h45.30.412,arm3_eps,2022.2.5,Win32,59.68367651,6151fc337e8e6c69ea53efd8,64c7fed44a04f777bb1e18ce,64c800ab7a854dcfc2e0d0fd,right,1,0.75,0.2429,21,0.022686941,0.201,,,,,,171,0,171,0,1,,,,,
,,6151fc337e8e6c69ea53efd8,001,2023-07-31_12h45.30.412,arm3_eps,2022.2.5,Win32,59.68367651,6151fc337e8e6c69ea53efd8,64c7fed44a04f777bb1e18ce,64c800ab7a854dcfc2e0d0fd,right,1,0.75,0.2429,21,0.059942176,0.2344,,,,,,172,0,172,0,1,,,,,
,,6151fc337e8e6c69ea53efd8,001,2023-07-31_12h45.30.412,arm3_eps,2022.2.5,Win32,59.68367651,6151fc337e8e6c69ea53efd8,64c7fed44a04f777bb1e18ce,64c800ab7a854dcfc2e0d0fd,right,1,0.75,0.2429,21,0.06440032,0.3506,,,,,,173,0,173,0,1,,,,,
,,6151fc337e8e6c69ea53efd8,001,2023-07-31_12h45.30.412,arm3_eps,2022.2.5,Win32,59.68367651,6151fc337e8e6c69ea53efd8,64c7fed44a04f777bb1e18ce,64c800ab7a854dcfc2e0d0fd,up,1,0.75,0.2429,22,0,1.0003,,,,,,174,0,174,0,1,,,,,
,,6151fc337e8e6c69ea53efd8,001,2023-07-31_12h45.30.412,arm3_eps,2022.2.5,Win32,59.68367651,6151fc337e8e6c69ea53efd8,64c7fed44a04f777bb1e18ce,64c800ab7a854dcfc2e0d0fd,right,1,0.75,0.2429,22,0.001838976,0.9172,,,,,,175,0,175,0,1,,,,,
,,6151fc337e8e6c69ea53efd8,001,2023-07-31_12h45.30.412,arm3_eps,2022.2.5,Win32,59.68367651,6151fc337e8e6c69ea53efd8,64c7fed44a04f777bb1e18ce,64c800ab7a854dcfc2e0d0fd,right,1,0.75,0.2429,22,0.03544674,0.1737,,,,,,176,0,176,0,1,,,,,
,,6151fc337e8e6c69ea53efd8,001,2023-07-31_12h45.30.412,arm3_eps,2022.2.5,Win32,59.68367651,6151fc337e8e6c69ea53efd8,64c7fed44a04f777bb1e18ce,64c800ab7a854dcfc2e0d0fd,right,1,0.75,0.2429,22,0.02889179,0.1679,,,,,,177,0,177,0,1,,,,,
,,6151fc337e8e6c69ea53efd8,001,2023-07-31_12h45.30.412,arm3_eps,2022.2.5,Win32,59.68367651,6151fc337e8e6c69ea53efd8,64c7fed44a04f777bb1e18ce,64c800ab7a854dcfc2e0d0fd,right,1,0.75,0.2429,22,0.039342993,0.2675,,,,,,178,0,178,0,1,,,,,
,,6151fc337e8e6c69ea53efd8,001,2023-07-31_12h45.30.412,arm3_eps,2022.2.5,Win32,59.68367651,6151fc337e8e6c69ea53efd8,64c7fed44a04f777bb1e18ce,64c800ab7a854dcfc2e0d0fd,right,1,0.75,0.2429,22,0.044016038,0.2057,,,,,,179,0,179,0,1,,,,,
,,6151fc337e8e6c69ea53efd8,001,2023-07-31_12h45.30.412,arm3_eps,2022.2.5,Win32,59.68367651,6151fc337e8e6c69ea53efd8,64c7fed44a04f777bb1e18ce,64c800ab7a854dcfc2e0d0fd,right,1,0.75,0.2429,22,0.03765874,1.1186,,,,,,180,0,180,0,1,,,,,
,,6151fc337e8e6c69ea53efd8,001,2023-07-31_12h45.30.412,arm3_eps,2022.2.5,Win32,59.68367651,6151fc337e8e6c69ea53efd8,64c7fed44a04f777bb1e18ce,64c800ab7a854dcfc2e0d0fd,right,1,0.75,0.2429,22,0.050033919,0.4009,,,,,,181,0,181,0,1,,,,,
,,6151fc337e8e6c69ea53efd8,001,2023-07-31_12h45.30.412,arm3_eps,2022.2.5,Win32,59.68367651,6151fc337e8e6c69ea53efd8,64c7fed44a04f777bb1e18ce,64c800ab7a854dcfc2e0d0fd,up,1,0.75,0.2429,22,0,1.8503,,,,,,182,0,182,0,1,,,,,
,,6151fc337e8e6c69ea53efd8,001,2023-07-31_12h45.30.412,arm3_eps,2022.2.5,Win32,59.68367651,6151fc337e8e6c69ea53efd8,64c7fed44a04f777bb1e18ce,64c800ab7a854dcfc2e0d0fd,right,1,0.75,0.2429,22,0.028518779,1.2503,,,,,,183,0,183,0,1,,,,,
,,6151fc337e8e6c69ea53efd8,001,2023-07-31_12h45.30.412,arm3_eps,2022.2.5,Win32,59.68367651,6151fc337e8e6c69ea53efd8,64c7fed44a04f777bb1e18ce,64c800ab7a854dcfc2e0d0fd,right,1,0.75,0.2429,22,0.026848628,0.1833,,,,,,184,0,184,0,1,,,,,
,,6151fc337e8e6c69ea53efd8,001,2023-07-31_12h45.30.412,arm3_eps,2022.2.5,Win32,59.68367651,6151fc337e8e6c69ea53efd8,64c7fed44a04f777bb1e18ce,64c800ab7a854dcfc2e0d0fd,right,1,0.75,0.2429,22,0.025259301,0.1284,,,,,,185,0,185,0,1,,,,,
,,6151fc337e8e6c69ea53efd8,001,2023-07-31_12h45.30.412,arm3_eps,2022.2.5,Win32,59.68367651,6151fc337e8e6c69ea53efd8,64c7fed44a04f777bb1e18ce,64c800ab7a854dcfc2e0d0fd,right,1,0.75,0.2429,22,0.037139862,0.1509,,,,,,186,0,186,0,1,,,,,
,,6151fc337e8e6c69ea53efd8,001,2023-07-31_12h45.30.412,arm3_eps,2022.2.5,Win32,59.68367651,6151fc337e8e6c69ea53efd8,64c7fed44a04f777bb1e18ce,64c800ab7a854dcfc2e0d0fd,right,1,0.75,0.2429,22,0.025249366,0.1575,,,,,,187,0,187,0,1,,,,,
,,6151fc337e8e6c69ea53efd8,001,2023-07-31_12h45.30.412,arm3_eps,2022.2.5,Win32,59.68367651,6151fc337e8e6c69ea53efd8,64c7fed44a04f777bb1e18ce,64c800ab7a854dcfc2e0d0fd,right,1,0.75,0.2429,22,0.056598743,0.2349,,,,,,188,0,188,0,1,,,,,
,,6151fc337e8e6c69ea53efd8,001,2023-07-31_12h45.30.412,arm3_eps,2022.2.5,Win32,59.68367651,6151fc337e8e6c69ea53efd8,64c7fed44a04f777bb1e18ce,64c800ab7a854dcfc2e0d0fd,right,1,0.75,0.2429,22,0.053592006,0.4517,,,,,,189,0,189,0,1,,,,,
,,6151fc337e8e6c69ea53efd8,001,2023-07-31_12h45.30.412,arm3_eps,2022.2.5,Win32,59.68367651,6151fc337e8e6c69ea53efd8,64c7fed44a04f777bb1e18ce,64c800ab7a854dcfc2e0d0fd,right,1,0.75,0.2429,22,0.041237228,0.4176,,,,,,190,0,190,0,1,,,,,
,,6151fc337e8e6c69ea53efd8,001,2023-07-31_12h45.30.412,arm3_eps,2022.2.5,Win32,59.68367651,6151fc337e8e6c69ea53efd8,64c7fed44a04f777bb1e18ce,64c800ab7a854dcfc2e0d0fd,right,1,0.75,0.2429,22,0.061711463,0.3059,,,,,,191,0,191,0,1,,,,,
,,6151fc337e8e6c69ea53efd8,001,2023-07-31_12h45.30.412,arm3_eps,2022.2.5,Win32,59.68367651,6151fc337e8e6c69ea53efd8,64c7fed44a04f777bb1e18ce,64c800ab7a854dcfc2e0d0fd,up,1,0.75,0.2429,23,0,0.7221,,,,,,192,0,192,0,1,,,,,
,,6151fc337e8e6c69ea53efd8,001,2023-07-31_12h45.30.412,arm3_eps,2022.2.5,Win32,59.68367651,6151fc337e8e6c69ea53efd8,64c7fed44a04f777bb1e18ce,64c800ab7a854dcfc2e0d0fd,down,1,0.75,0.2429,22,0,1.0828,,,,,,193,0,193,0,1,,,,,
,,6151fc337e8e6c69ea53efd8,001,2023-07-31_12h45.30.412,arm3_eps,2022.2.5,Win32,59.68367651,6151fc337e8e6c69ea53efd8,64c7fed44a04f777bb1e18ce,64c800ab7a854dcfc2e0d0fd,right,1,0.75,0.2429,22,-0.016000683,0.9223,,,,,,194,0,194,0,1,,,,,
,,6151fc337e8e6c69ea53efd8,001,2023-07-31_12h45.30.412,arm3_eps,2022.2.5,Win32,59.68367651,6151fc337e8e6c69ea53efd8,64c7fed44a04f777bb1e18ce,64c800ab7a854dcfc2e0d0fd,right,1,0.75,0.2429,22,0.010809792,0.3007,,,,,,195,0,195,0,1,,,,,
,,6151fc337e8e6c69ea53efd8,001,2023-07-31_12h45.30.412,arm3_eps,2022.2.5,Win32,59.68367651,6151fc337e8e6c69ea53efd8,64c7fed44a04f777bb1e18ce,64c800ab7a854dcfc2e0d0fd,right,1,0.75,0.2429,22,0.024405019,0.2227,,,,,,196,0,196,0,1,,,,,
,,6151fc337e8e6c69ea53efd8,001,2023-07-31_12h45.30.412,arm3_eps,2022.2.5,Win32,59.68367651,6151fc337e8e6c69ea53efd8,64c7fed44a04f777bb1e18ce,64c800ab7a854dcfc2e0d0fd,right,1,0.75,0.2429,22,0.013792614,0.4331,,,,,,197,0,197,0,1,,,,,
,,6151fc337e8e6c69ea53efd8,001,2023-07-31_12h45.30.412,arm3_eps,2022.2.5,Win32,59.68367651,6151fc337e8e6c69ea53efd8,64c7fed44a04f777bb1e18ce,64c800ab7a854dcfc2e0d0fd,right,1,0.75,0.2429,22,0.018945552,0.2509,,,,,,198,0,198,0,1,,,,,
,,6151fc337e8e6c69ea53efd8,001,2023-07-31_12h45.30.412,arm3_eps,2022.2.5,Win32,59.68367651,6151fc337e8e6c69ea53efd8,64c7fed44a04f777bb1e18ce,64c800ab7a854dcfc2e0d0fd,right,1,0.75,0.2429,22,0.026091,0.4886,,,,,,199,0,199,0,1,,,,,
,,6151fc337e8e6c69ea53efd8,001,2023-07-31_12h45.30.412,arm3_eps,2022.2.5,Win32,59.68367651,6151fc337e8e6c69ea53efd8,64c7fed44a04f777bb1e18ce,64c800ab7a854dcfc2e0d0fd,up,1,0.75,0.2429,22,0,0.7058,,,,,,200,0,200,0,1,,,,,
,,6151fc337e8e6c69ea53efd8,001,2023-07-31_12h45.30.412,arm3_eps,2022.2.5,Win32,59.68367651,6151fc337e8e6c69ea53efd8,64c7fed44a04f777bb1e18ce,64c800ab7a854dcfc2e0d0fd,right,1,0.75,0.2429,22,-0.008283677,0.879,,,,,,201,0,201,0,1,,,,,
,,6151fc337e8e6c69ea53efd8,001,2023-07-31_12h45.30.412,arm3_eps,2022.2.5,Win32,59.68367651,6151fc337e8e6c69ea53efd8,64c7fed44a04f777bb1e18ce,64c800ab7a854dcfc2e0d0fd,right,1,0.75,0.2429,22,0.019081137,0.184,,,,,,202,0,202,0,1,,,,,
,,6151fc337e8e6c69ea53efd8,001,2023-07-31_12h45.30.412,arm3_eps,2022.2.5,Win32,59.68367651,6151fc337e8e6c69ea53efd8,64c7fed44a04f777bb1e18ce,64c800ab7a854dcfc2e0d0fd,right,1,0.75,0.2429,22,0.037715856,0.1347,,,,,,203,0,203,0,1,,,,,
,,6151fc337e8e6c69ea53efd8,001,2023-07-31_12h45.30.412,arm3_eps,2022.2.5,Win32,59.68367651,6151fc337e8e6c69ea53efd8,64c7fed44a04f777bb1e18ce,64c800ab7a854dcfc2e0d0fd,right,1,0.75,0.2429,22,0.037530941,0.156,,,,,,204,0,204,0,1,,,,,
,,6151fc337e8e6c69ea53efd8,001,2023-07-31_12h45.30.412,arm3_eps,2022.2.5,Win32,59.68367651,6151fc337e8e6c69ea53efd8,64c7fed44a04f777bb1e18ce,64c800ab7a854dcfc2e0d0fd,up,-1,0.75,0.2429,23,0,0.4894,,,,,,205,0,205,0,1,,,,,
,,6151fc337e8e6c69ea53efd8,001,2023-07-31_12h45.30.412,arm3_eps,2022.2.5,Win32,59.68367651,6151fc337e8e6c69ea53efd8,64c7fed44a04f777bb1e18ce,64c800ab7a854dcfc2e0d0fd,right,-1,0.75,0.2429,23,-0.006757538,0.8012,,,,,,206,0,206,0,1,,,,,
,,6151fc337e8e6c69ea53efd8,001,2023-07-31_12h45.30.412,arm3_eps,2022.2.5,Win32,59.68367651,6151fc337e8e6c69ea53efd8,64c7fed44a04f777bb1e18ce,64c800ab7a854dcfc2e0d0fd,right,-1,0.75,0.2429,23,0.001182141,0.1713,,,,,,207,0,207,0,1,,,,,
,,6151fc337e8e6c69ea53efd8,001,2023-07-31_12h45.30.412,arm3_eps,2022.2.5,Win32,59.68367651,6151fc337e8e6c69ea53efd8,64c7fed44a04f777bb1e18ce,64c800ab7a854dcfc2e0d0fd,right,-1,0.75,0.2429,23,-0.021451611,0.1508,,,,,,208,0,208,0,1,,,,,
,,6151fc337e8e6c69ea53efd8,001,2023-07-31_12h45.30.412,arm3_eps,2022.2.5,Win32,59.68367651,6151fc337e8e6c69ea53efd8,64c7fed44a04f777bb1e18ce,64c800ab7a854dcfc2e0d0fd,right,-1,0.75,0.2429,23,-0.015209082,0.5005,,,,,,209,0,209,0,1,,,,,
,,6151fc337e8e6c69ea53efd8,001,2023-07-31_12h45.30.412,arm3_eps,2022.2.5,Win32,59.68367651,6151fc337e8e6c69ea53efd8,64c7fed44a04f777bb1e18ce,64c800ab7a854dcfc2e0d0fd,right,-1,0.75,0.2429,23,-0.051536622,0.3662,,,,,,210,0,210,0,1,,,,,
,,6151fc337e8e6c69ea53efd8,001,2023-07-31_12h45.30.412,arm3_eps,2022.2.5,Win32,59.68367651,6151fc337e8e6c69ea53efd8,64c7fed44a04f777bb1e18ce,64c800ab7a854dcfc2e0d0fd,down,1,0.75,0.2429,24,0,0.2675,,,,,,211,0,211,0,1,,,,,
,,6151fc337e8e6c69ea53efd8,001,2023-07-31_12h45.30.412,arm3_eps,2022.2.5,Win32,59.68367651,6151fc337e8e6c69ea53efd8,64c7fed44a04f777bb1e18ce,64c800ab7a854dcfc2e0d0fd,right,1,0.75,0.2429,24,0.009477398,0.8502,,,,,,212,0,212,0,1,,,,,
,,6151fc337e8e6c69ea53efd8,001,2023-07-31_12h45.30.412,arm3_eps,2022.2.5,Win32,59.68367651,6151fc337e8e6c69ea53efd8,64c7fed44a04f777bb1e18ce,64c800ab7a854dcfc2e0d0fd,right,1,0.75,0.2429,24,0.034056245,0.168,,,,,,213,0,213,0,1,,,,,
,,6151fc337e8e6c69ea53efd8,001,2023-07-31_12h45.30.412,arm3_eps,2022.2.5,Win32,59.68367651,6151fc337e8e6c69ea53efd8,64c7fed44a04f777bb1e18ce,64c800ab7a854dcfc2e0d0fd,right,1,0.75,0.2429,24,0.020390795,0.1764,,,,,,214,0,214,0,1,,,,,
,,6151fc337e8e6c69ea53efd8,001,2023-07-31_12h45.30.412,arm3_eps,2022.2.5,Win32,59.68367651,6151fc337e8e6c69ea53efd8,64c7fed44a04f777bb1e18ce,64c800ab7a854dcfc2e0d0fd,right,1,0.75,0.2429,24,0.017701122,0.8991,,,,,,215,0,215,0,1,,,,,
,,6151fc337e8e6c69ea53efd8,001,2023-07-31_12h45.30.412,arm3_eps,2022.2.5,Win32,59.68367651,6151fc337e8e6c69ea53efd8,64c7fed44a04f777bb1e18ce,64c800ab7a854dcfc2e0d0fd,right,1,0.75,0.2429,24,0.01923288,0.3222,,,,,,216,0,216,0,1,,,,,
,,6151fc337e8e6c69ea53efd8,001,2023-07-31_12h45.30.412,arm3_eps,2022.2.5,Win32,59.68367651,6151fc337e8e6c69ea53efd8,64c7fed44a04f777bb1e18ce,64c800ab7a854dcfc2e0d0fd,right,1,0.75,0.2429,24,0.02540654,0.1681,,,,,,217,0,217,0,1,,,,,
,,6151fc337e8e6c69ea53efd8,001,2023-07-31_12h45.30.412,arm3_eps,2022.2.5,Win32,59.68367651,6151fc337e8e6c69ea53efd8,64c7fed44a04f777bb1e18ce,64c800ab7a854dcfc2e0d0fd,right,1,0.75,0.2429,24,0.018259422,0.3553,,,,,,218,0,218,0,1,,,,,
