space_bar.keys,space_bar.rt,participant,session,date,expName,psychopyVersion,OS,frameRate,PROLIFIC_PID,STUDY_ID,SESSION_ID,resp.keys,state,q_prob,eps_prob,score,price,resp.rt,train.thisRepN,train.thisTrialN,train.thisN,train.thisIndex,train.ran,steps.thisRepN,steps.thisTrialN,steps.thisN,steps.thisIndex,steps.ran,blocks.thisRepN,blocks.thisTrialN,blocks.thisN,blocks.thisIndex,blocks.ran
space,3.1485,642448,001,2023-07-31_20h44.02.968,arm3_eps,2022.2.5,Win32,102.891244,5a2420437413810001521dd6,64c7fed44a04f777bb1e18ce,64c80146c2ffb5485957d9b7,,,,,,,,,,,,,,,,,,,,,,
space,1.1511,642448,001,2023-07-31_20h44.02.968,arm3_eps,2022.2.5,Win32,102.891244,5a2420437413810001521dd6,64c7fed44a04f777bb1e18ce,64c80146c2ffb5485957d9b7,,,,,,,,,,,,,,,,,,,,,,
space,11.9319,642448,001,2023-07-31_20h44.02.968,arm3_eps,2022.2.5,Win32,102.891244,5a2420437413810001521dd6,64c7fed44a04f777bb1e18ce,64c80146c2ffb5485957d9b7,,,,,,,,,,,,,,,,,,,,,,
space,12.2186,642448,001,2023-07-31_20h44.02.968,arm3_eps,2022.2.5,Win32,102.891244,5a2420437413810001521dd6,64c7fed44a04f777bb1e18ce,64c80146c2ffb5485957d9b7,,,,,,,,,,,,,,,,,,,,,,
space,11.5606,642448,001,2023-07-31_20h44.02.968,arm3_eps,2022.2.5,Win32,102.891244,5a2420437413810001521dd6,64c7fed44a04f777bb1e18ce,64c80146c2ffb5485957d9b7,,,,,,,,,,,,,,,,,,,,,,
space,6.4939,642448,001,2023-07-31_20h44.02.968,arm3_eps,2022.2.5,Win32,102.891244,5a2420437413810001521dd6,64c7fed44a04f777bb1e18ce,64c80146c2ffb5485957d9b7,,,,,,,,,,,,,,,,,,,,,,
space,0.7577,642448,001,2023-07-31_20h44.02.968,arm3_eps,2022.2.5,Win32,102.891244,5a2420437413810001521dd6,64c7fed44a04f777bb1e18ce,64c80146c2ffb5485957d9b7,,,,,,,,,,,,,,,,,,,,,,
,,642448,001,2023-07-31_20h44.02.968,arm3_eps,2022.2.5,Win32,102.891244,5a2420437413810001521dd6,64c7fed44a04f777bb1e18ce,64c80146c2ffb5485957d9b7,right,1,1,0.2429,0,0.029645264,2.327,0,0,0,0,1,,,,,,,,,,
,,642448,001,2023-07-31_20h44.02.968,arm3_eps,2022.2.5,Win32,102.891244,5a2420437413810001521dd6,64c7fed44a04f777bb1e18ce,64c80146c2ffb5485957d9b7,right,1,1,0.2429,0,0.042990552,0.8042,1,0,1,0,1,,,,,,,,,,
,,642448,001,2023-07-31_20h44.02.968,arm3_eps,2022.2.5,Win32,102.891244,5a2420437413810001521dd6,64c7fed44a04f777bb1e18ce,64c80146c2ffb5485957d9b7,right,1,1,0.2429,0,0.005033536,0.7652,2,0,2,0,1,,,,,,,,,,
,,642448,001,2023-07-31_20h44.02.968,arm3_eps,2022.2.5,Win32,102.891244,5a2420437413810001521dd6,64c7fed44a04f777bb1e18ce,64c80146c2ffb5485957d9b7,right,1,1,0.2429,0,0.019810596,1.0579,3,0,3,0,1,,,,,,,,,,
,,642448,001,2023-07-31_20h44.02.968,arm3_eps,2022.2.5,Win32,102.891244,5a2420437413810001521dd6,64c7fed44a04f777bb1e18ce,64c80146c2ffb5485957d9b7,right,1,1,0.2429,0,0.036973016,0.506,4,0,4,0,1,,,,,,,,,,
,,642448,001,2023-07-31_20h44.02.968,arm3_eps,2022.2.5,Win32,102.891244,5a2420437413810001521dd6,64c7fed44a04f777bb1e18ce,64c80146c2ffb5485957d9b7,right,1,1,0.2429,0,0.07216495,0.5879,5,0,5,0,1,,,,,,,,,,
,,642448,001,2023-07-31_20h44.02.968,arm3_eps,2022.2.5,Win32,102.891244,5a2420437413810001521dd6,64c7fed44a04f777bb1e18ce,64c80146c2ffb5485957d9b7,right,1,1,0.2429,0,0.089310558,0.9973,6,0,6,0,1,,,,,,,,,,
,,642448,001,2023-07-31_20h44.02.968,arm3_eps,2022.2.5,Win32,102.891244,5a2420437413810001521dd6,64c7fed44a04f777bb1e18ce,64c80146c2ffb5485957d9b7,right,1,1,0.2429,0,0.128967816,0.5821,7,0,7,0,1,,,,,,,,,,
,,642448,001,2023-07-31_20h44.02.968,arm3_eps,2022.2.5,Win32,102.891244,5a2420437413810001521dd6,64c7fed44a04f777bb1e18ce,64c80146c2ffb5485957d9b7,right,1,1,0.2429,0,0.128081198,0.6645,8,0,8,0,1,,,,,,,,,,
,,642448,001,2023-07-31_20h44.02.968,arm3_eps,2022.2.5,Win32,102.891244,5a2420437413810001521dd6,64c7fed44a04f777bb1e18ce,64c80146c2ffb5485957d9b7,right,1,1,0.2429,0,0.157347855,0.5004,9,0,9,0,1,,,,,,,,,,
,,642448,001,2023-07-31_20h44.02.968,arm3_eps,2022.2.5,Win32,102.891244,5a2420437413810001521dd6,64c7fed44a04f777bb1e18ce,64c80146c2ffb5485957d9b7,right,1,1,0.2429,0,0.134152909,1.5373,10,0,10,0,1,,,,,,,,,,
,,642448,001,2023-07-31_20h44.02.968,arm3_eps,2022.2.5,Win32,102.891244,5a2420437413810001521dd6,64c7fed44a04f777bb1e18ce,64c80146c2ffb5485957d9b7,right,1,1,0.2429,0,0.162498761,0.5561,11,0,11,0,1,,,,,,,,,,
,,642448,001,2023-07-31_20h44.02.968,arm3_eps,2022.2.5,Win32,102.891244,5a2420437413810001521dd6,64c7fed44a04f777bb1e18ce,64c80146c2ffb5485957d9b7,up,1,1,0.2429,1,0,2.5857,12,0,12,0,1,,,,,,,,,,
,,642448,001,2023-07-31_20h44.02.968,arm3_eps,2022.2.5,Win32,102.891244,5a2420437413810001521dd6,64c7fed44a04f777bb1e18ce,64c80146c2ffb5485957d9b7,right,1,1,0.2429,1,0.021403118,2.1225,13,0,13,0,1,,,,,,,,,,
,,642448,001,2023-07-31_20h44.02.968,arm3_eps,2022.2.5,Win32,102.891244,5a2420437413810001521dd6,64c7fed44a04f777bb1e18ce,64c80146c2ffb5485957d9b7,right,1,1,0.2429,1,0.036305243,0.282,14,0,14,0,1,,,,,,,,,,
,,642448,001,2023-07-31_20h44.02.968,arm3_eps,2022.2.5,Win32,102.891244,5a2420437413810001521dd6,64c7fed44a04f777bb1e18ce,64c80146c2ffb5485957d9b7,right,1,1,0.2429,1,0.03418397,0.3733,15,0,15,0,1,,,,,,,,,,
,,642448,001,2023-07-31_20h44.02.968,arm3_eps,2022.2.5,Win32,102.891244,5a2420437413810001521dd6,64c7fed44a04f777bb1e18ce,64c80146c2ffb5485957d9b7,right,1,1,0.2429,1,0.043781351,0.3661,16,0,16,0,1,,,,,,,,,,
,,642448,001,2023-07-31_20h44.02.968,arm3_eps,2022.2.5,Win32,102.891244,5a2420437413810001521dd6,64c7fed44a04f777bb1e18ce,64c80146c2ffb5485957d9b7,right,1,1,0.2429,1,0.067708602,0.4369,17,0,17,0,1,,,,,,,,,,
,,642448,001,2023-07-31_20h44.02.968,arm3_eps,2022.2.5,Win32,102.891244,5a2420437413810001521dd6,64c7fed44a04f777bb1e18ce,64c80146c2ffb5485957d9b7,right,1,1,0.2429,1,0.059296597,0.3393,18,0,18,0,1,,,,,,,,,,
,,642448,001,2023-07-31_20h44.02.968,arm3_eps,2022.2.5,Win32,102.891244,5a2420437413810001521dd6,64c7fed44a04f777bb1e18ce,64c80146c2ffb5485957d9b7,right,1,1,0.2429,1,0.057933384,0.2357,19,0,19,0,1,,,,,,,,,,
,,642448,001,2023-07-31_20h44.02.968,arm3_eps,2022.2.5,Win32,102.891244,5a2420437413810001521dd6,64c7fed44a04f777bb1e18ce,64c80146c2ffb5485957d9b7,right,1,1,0.2429,1,0.043315338,0.2629,20,0,20,0,1,,,,,,,,,,
,,642448,001,2023-07-31_20h44.02.968,arm3_eps,2022.2.5,Win32,102.891244,5a2420437413810001521dd6,64c7fed44a04f777bb1e18ce,64c80146c2ffb5485957d9b7,right,1,1,0.2429,1,0.059140572,0.3976,21,0,21,0,1,,,,,,,,,,
,,642448,001,2023-07-31_20h44.02.968,arm3_eps,2022.2.5,Win32,102.891244,5a2420437413810001521dd6,64c7fed44a04f777bb1e18ce,64c80146c2ffb5485957d9b7,up,1,1,0.2429,2,0,0.7188,22,0,22,0,1,,,,,,,,,,
,,642448,001,2023-07-31_20h44.02.968,arm3_eps,2022.2.5,Win32,102.891244,5a2420437413810001521dd6,64c7fed44a04f777bb1e18ce,64c80146c2ffb5485957d9b7,right,1,1,0.2429,2,0.015703577,1.131,23,0,23,0,1,,,,,,,,,,
,,642448,001,2023-07-31_20h44.02.968,arm3_eps,2022.2.5,Win32,102.891244,5a2420437413810001521dd6,64c7fed44a04f777bb1e18ce,64c80146c2ffb5485957d9b7,right,1,1,0.2429,2,0.031470077,0.2631,24,0,24,0,1,,,,,,,,,,
,,642448,001,2023-07-31_20h44.02.968,arm3_eps,2022.2.5,Win32,102.891244,5a2420437413810001521dd6,64c7fed44a04f777bb1e18ce,64c80146c2ffb5485957d9b7,right,1,1,0.2429,2,0.036794785,0.1719,25,0,25,0,1,,,,,,,,,,
,,642448,001,2023-07-31_20h44.02.968,arm3_eps,2022.2.5,Win32,102.891244,5a2420437413810001521dd6,64c7fed44a04f777bb1e18ce,64c80146c2ffb5485957d9b7,right,1,1,0.2429,2,0.012233339,0.2443,26,0,26,0,1,,,,,,,,,,
,,642448,001,2023-07-31_20h44.02.968,arm3_eps,2022.2.5,Win32,102.891244,5a2420437413810001521dd6,64c7fed44a04f777bb1e18ce,64c80146c2ffb5485957d9b7,right,1,1,0.2429,2,0.017337592,0.3208,27,0,27,0,1,,,,,,,,,,
,,642448,001,2023-07-31_20h44.02.968,arm3_eps,2022.2.5,Win32,102.891244,5a2420437413810001521dd6,64c7fed44a04f777bb1e18ce,64c80146c2ffb5485957d9b7,right,1,1,0.2429,2,0.027545673,0.3251,28,0,28,0,1,,,,,,,,,,
,,642448,001,2023-07-31_20h44.02.968,arm3_eps,2022.2.5,Win32,102.891244,5a2420437413810001521dd6,64c7fed44a04f777bb1e18ce,64c80146c2ffb5485957d9b7,right,1,1,0.2429,2,0.014834598,0.3007,29,0,29,0,1,,,,,,,,,,
,,642448,001,2023-07-31_20h44.02.968,arm3_eps,2022.2.5,Win32,102.891244,5a2420437413810001521dd6,64c7fed44a04f777bb1e18ce,64c80146c2ffb5485957d9b7,right,1,1,0.2429,2,-0.000922686,0.3707,30,0,30,0,1,,,,,,,,,,
,,642448,001,2023-07-31_20h44.02.968,arm3_eps,2022.2.5,Win32,102.891244,5a2420437413810001521dd6,64c7fed44a04f777bb1e18ce,64c80146c2ffb5485957d9b7,right,1,1,0.2429,2,-0.023130717,0.3409,31,0,31,0,1,,,,,,,,,,
,,642448,001,2023-07-31_20h44.02.968,arm3_eps,2022.2.5,Win32,102.891244,5a2420437413810001521dd6,64c7fed44a04f777bb1e18ce,64c80146c2ffb5485957d9b7,right,1,1,0.2429,2,-0.002366639,0.5199,32,0,32,0,1,,,,,,,,,,
,,642448,001,2023-07-31_20h44.02.968,arm3_eps,2022.2.5,Win32,102.891244,5a2420437413810001521dd6,64c7fed44a04f777bb1e18ce,64c80146c2ffb5485957d9b7,right,1,1,0.2429,2,-0.010502569,0.3783,33,0,33,0,1,,,,,,,,,,
,,642448,001,2023-07-31_20h44.02.968,arm3_eps,2022.2.5,Win32,102.891244,5a2420437413810001521dd6,64c7fed44a04f777bb1e18ce,64c80146c2ffb5485957d9b7,right,1,1,0.2429,2,0.003464257,0.4753,34,0,34,0,1,,,,,,,,,,
,,642448,001,2023-07-31_20h44.02.968,arm3_eps,2022.2.5,Win32,102.891244,5a2420437413810001521dd6,64c7fed44a04f777bb1e18ce,64c80146c2ffb5485957d9b7,down,1,1,0.2429,1,0,3.2449,35,0,35,0,1,,,,,,,,,,
,,642448,001,2023-07-31_20h44.02.968,arm3_eps,2022.2.5,Win32,102.891244,5a2420437413810001521dd6,64c7fed44a04f777bb1e18ce,64c80146c2ffb5485957d9b7,right,1,1,0.2429,1,0.005302195,1.4123,36,0,36,0,1,,,,,,,,,,
,,642448,001,2023-07-31_20h44.02.968,arm3_eps,2022.2.5,Win32,102.891244,5a2420437413810001521dd6,64c7fed44a04f777bb1e18ce,64c80146c2ffb5485957d9b7,right,1,1,0.2429,1,0.035840863,0.1944,37,0,37,0,1,,,,,,,,,,
,,642448,001,2023-07-31_20h44.02.968,arm3_eps,2022.2.5,Win32,102.891244,5a2420437413810001521dd6,64c7fed44a04f777bb1e18ce,64c80146c2ffb5485957d9b7,right,1,1,0.2429,1,0.058391598,0.1686,38,0,38,0,1,,,,,,,,,,
,,642448,001,2023-07-31_20h44.02.968,arm3_eps,2022.2.5,Win32,102.891244,5a2420437413810001521dd6,64c7fed44a04f777bb1e18ce,64c80146c2ffb5485957d9b7,right,1,1,0.2429,1,0.057330114,0.1743,39,0,39,0,1,,,,,,,,,,
,,642448,001,2023-07-31_20h44.02.968,arm3_eps,2022.2.5,Win32,102.891244,5a2420437413810001521dd6,64c7fed44a04f777bb1e18ce,64c80146c2ffb5485957d9b7,right,1,1,0.2429,1,0.08276367,0.2368,40,0,40,0,1,,,,,,,,,,
,,642448,001,2023-07-31_20h44.02.968,arm3_eps,2022.2.5,Win32,102.891244,5a2420437413810001521dd6,64c7fed44a04f777bb1e18ce,64c80146c2ffb5485957d9b7,up,-1,1,0.2429,2,0,0.4999,41,0,41,0,1,,,,,,,,,,
,,642448,001,2023-07-31_20h44.02.968,arm3_eps,2022.2.5,Win32,102.891244,5a2420437413810001521dd6,64c7fed44a04f777bb1e18ce,64c80146c2ffb5485957d9b7,right,-1,1,0.2429,2,-0.034376724,0.8994,42,0,42,0,1,,,,,,,,,,
,,642448,001,2023-07-31_20h44.02.968,arm3_eps,2022.2.5,Win32,102.891244,5a2420437413810001521dd6,64c7fed44a04f777bb1e18ce,64c80146c2ffb5485957d9b7,right,-1,1,0.2429,2,-0.057604997,0.1967,43,0,43,0,1,,,,,,,,,,
,,642448,001,2023-07-31_20h44.02.968,arm3_eps,2022.2.5,Win32,102.891244,5a2420437413810001521dd6,64c7fed44a04f777bb1e18ce,64c80146c2ffb5485957d9b7,right,-1,1,0.2429,2,-0.052819633,0.2062,44,0,44,0,1,,,,,,,,,,
,,642448,001,2023-07-31_20h44.02.968,arm3_eps,2022.2.5,Win32,102.891244,5a2420437413810001521dd6,64c7fed44a04f777bb1e18ce,64c80146c2ffb5485957d9b7,right,-1,1,0.2429,2,-0.09974524,0.2425,45,0,45,0,1,,,,,,,,,,
,,642448,001,2023-07-31_20h44.02.968,arm3_eps,2022.2.5,Win32,102.891244,5a2420437413810001521dd6,64c7fed44a04f777bb1e18ce,64c80146c2ffb5485957d9b7,down,-1,1,0.2429,3,0,0.3591,46,0,46,0,1,,,,,,,,,,
,,642448,001,2023-07-31_20h44.02.968,arm3_eps,2022.2.5,Win32,102.891244,5a2420437413810001521dd6,64c7fed44a04f777bb1e18ce,64c80146c2ffb5485957d9b7,right,-1,1,0.2429,3,0.005844167,0.8713,47,0,47,0,1,,,,,,,,,,
,,642448,001,2023-07-31_20h44.02.968,arm3_eps,2022.2.5,Win32,102.891244,5a2420437413810001521dd6,64c7fed44a04f777bb1e18ce,64c80146c2ffb5485957d9b7,right,-1,1,0.2429,3,-0.025522764,0.1649,48,0,48,0,1,,,,,,,,,,
,,642448,001,2023-07-31_20h44.02.968,arm3_eps,2022.2.5,Win32,102.891244,5a2420437413810001521dd6,64c7fed44a04f777bb1e18ce,64c80146c2ffb5485957d9b7,right,-1,1,0.2429,3,-0.058959182,0.1937,49,0,49,0,1,,,,,,,,,,
space,16.6284,642448,001,2023-07-31_20h44.02.968,arm3_eps,2022.2.5,Win32,102.891244,5a2420437413810001521dd6,64c7fed44a04f777bb1e18ce,64c80146c2ffb5485957d9b7,,,,,,,,,,,,,,,,,,,,,,
space,18.1373,642448,001,2023-07-31_20h44.02.968,arm3_eps,2022.2.5,Win32,102.891244,5a2420437413810001521dd6,64c7fed44a04f777bb1e18ce,64c80146c2ffb5485957d9b7,,,,,,,,,,,,,,,,,,,,,,
space,13.1804,642448,001,2023-07-31_20h44.02.968,arm3_eps,2022.2.5,Win32,102.891244,5a2420437413810001521dd6,64c7fed44a04f777bb1e18ce,64c80146c2ffb5485957d9b7,,,,,,,,,,,,,,,,,,,,,,
space,6.9677,642448,001,2023-07-31_20h44.02.968,arm3_eps,2022.2.5,Win32,102.891244,5a2420437413810001521dd6,64c7fed44a04f777bb1e18ce,64c80146c2ffb5485957d9b7,,,,,,,,,,,,,,,,,,,,,,
space,10.8992,642448,001,2023-07-31_20h44.02.968,arm3_eps,2022.2.5,Win32,102.891244,5a2420437413810001521dd6,64c7fed44a04f777bb1e18ce,64c80146c2ffb5485957d9b7,,,,,,,,,,,,,,,,,,,,,,
space,0.7746,642448,001,2023-07-31_20h44.02.968,arm3_eps,2022.2.5,Win32,102.891244,5a2420437413810001521dd6,64c7fed44a04f777bb1e18ce,64c80146c2ffb5485957d9b7,,,,,,,,,,,,,,,,,,,,,,
,,642448,001,2023-07-31_20h44.02.968,arm3_eps,2022.2.5,Win32,102.891244,5a2420437413810001521dd6,64c7fed44a04f777bb1e18ce,64c80146c2ffb5485957d9b7,right,-1,0.75,0.2429,0,-0.007576362,1.4624,0,0,0,0,1,,,,,,,,,,
,,642448,001,2023-07-31_20h44.02.968,arm3_eps,2022.2.5,Win32,102.891244,5a2420437413810001521dd6,64c7fed44a04f777bb1e18ce,64c80146c2ffb5485957d9b7,right,-1,0.75,0.2429,0,-0.040905555,0.3221,1,0,1,0,1,,,,,,,,,,
,,642448,001,2023-07-31_20h44.02.968,arm3_eps,2022.2.5,Win32,102.891244,5a2420437413810001521dd6,64c7fed44a04f777bb1e18ce,64c80146c2ffb5485957d9b7,right,-1,0.75,0.2429,0,-0.070043122,0.3665,2,0,2,0,1,,,,,,,,,,
,,642448,001,2023-07-31_20h44.02.968,arm3_eps,2022.2.5,Win32,102.891244,5a2420437413810001521dd6,64c7fed44a04f777bb1e18ce,64c80146c2ffb5485957d9b7,right,-1,0.75,0.2429,0,-0.087897675,0.4019,3,0,3,0,1,,,,,,,,,,
,,642448,001,2023-07-31_20h44.02.968,arm3_eps,2022.2.5,Win32,102.891244,5a2420437413810001521dd6,64c7fed44a04f777bb1e18ce,64c80146c2ffb5485957d9b7,down,-1,0.75,0.2429,1,0,0.4348,4,0,4,0,1,,,,,,,,,,
,,642448,001,2023-07-31_20h44.02.968,arm3_eps,2022.2.5,Win32,102.891244,5a2420437413810001521dd6,64c7fed44a04f777bb1e18ce,64c80146c2ffb5485957d9b7,right,-1,0.75,0.2429,1,-0.024423149,2.4752,5,0,5,0,1,,,,,,,,,,
,,642448,001,2023-07-31_20h44.02.968,arm3_eps,2022.2.5,Win32,102.891244,5a2420437413810001521dd6,64c7fed44a04f777bb1e18ce,64c80146c2ffb5485957d9b7,right,-1,0.75,0.2429,1,-0.009435071,0.3741,6,0,6,0,1,,,,,,,,,,
,,642448,001,2023-07-31_20h44.02.968,arm3_eps,2022.2.5,Win32,102.891244,5a2420437413810001521dd6,64c7fed44a04f777bb1e18ce,64c80146c2ffb5485957d9b7,right,-1,0.75,0.2429,1,-0.010892765,0.6904,7,0,7,0,1,,,,,,,,,,
,,642448,001,2023-07-31_20h44.02.968,arm3_eps,2022.2.5,Win32,102.891244,5a2420437413810001521dd6,64c7fed44a04f777bb1e18ce,64c80146c2ffb5485957d9b7,right,-1,0.75,0.2429,1,-0.026191838,0.4558,8,0,8,0,1,,,,,,,,,,
,,642448,001,2023-07-31_20h44.02.968,arm3_eps,2022.2.5,Win32,102.891244,5a2420437413810001521dd6,64c7fed44a04f777bb1e18ce,64c80146c2ffb5485957d9b7,right,-1,0.75,0.2429,1,-0.049698937,0.4014,9,0,9,0,1,,,,,,,,,,
,,642448,001,2023-07-31_20h44.02.968,arm3_eps,2022.2.5,Win32,102.891244,5a2420437413810001521dd6,64c7fed44a04f777bb1e18ce,64c80146c2ffb5485957d9b7,down,-1,0.75,0.2429,1,0,0.5459,10,0,10,0,1,,,,,,,,,,
,,642448,001,2023-07-31_20h44.02.968,arm3_eps,2022.2.5,Win32,102.891244,5a2420437413810001521dd6,64c7fed44a04f777bb1e18ce,64c80146c2ffb5485957d9b7,right,-1,0.75,0.2429,1,0.011696143,1.0231,11,0,11,0,1,,,,,,,,,,
,,642448,001,2023-07-31_20h44.02.968,arm3_eps,2022.2.5,Win32,102.891244,5a2420437413810001521dd6,64c7fed44a04f777bb1e18ce,64c80146c2ffb5485957d9b7,right,-1,0.75,0.2429,1,-0.006270517,0.2605,12,0,12,0,1,,,,,,,,,,
,,642448,001,2023-07-31_20h44.02.968,arm3_eps,2022.2.5,Win32,102.891244,5a2420437413810001521dd6,64c7fed44a04f777bb1e18ce,64c80146c2ffb5485957d9b7,right,-1,0.75,0.2429,1,-0.010990287,0.2798,13,0,13,0,1,,,,,,,,,,
,,642448,001,2023-07-31_20h44.02.968,arm3_eps,2022.2.5,Win32,102.891244,5a2420437413810001521dd6,64c7fed44a04f777bb1e18ce,64c80146c2ffb5485957d9b7,right,-1,0.75,0.2429,1,-0.029278322,0.3027,14,0,14,0,1,,,,,,,,,,
,,642448,001,2023-07-31_20h44.02.968,arm3_eps,2022.2.5,Win32,102.891244,5a2420437413810001521dd6,64c7fed44a04f777bb1e18ce,64c80146c2ffb5485957d9b7,down,-1,0.75,0.2429,1,0,0.4438,15,0,15,0,1,,,,,,,,,,
,,642448,001,2023-07-31_20h44.02.968,arm3_eps,2022.2.5,Win32,102.891244,5a2420437413810001521dd6,64c7fed44a04f777bb1e18ce,64c80146c2ffb5485957d9b7,right,-1,0.75,0.2429,1,-0.000359194,0.8612,16,0,16,0,1,,,,,,,,,,
,,642448,001,2023-07-31_20h44.02.968,arm3_eps,2022.2.5,Win32,102.891244,5a2420437413810001521dd6,64c7fed44a04f777bb1e18ce,64c80146c2ffb5485957d9b7,right,-1,0.75,0.2429,1,0.000103762,0.193,17,0,17,0,1,,,,,,,,,,
,,642448,001,2023-07-31_20h44.02.968,arm3_eps,2022.2.5,Win32,102.891244,5a2420437413810001521dd6,64c7fed44a04f777bb1e18ce,64c80146c2ffb5485957d9b7,right,-1,0.75,0.2429,1,0.015694229,0.3487,18,0,18,0,1,,,,,,,,,,
,,642448,001,2023-07-31_20h44.02.968,arm3_eps,2022.2.5,Win32,102.891244,5a2420437413810001521dd6,64c7fed44a04f777bb1e18ce,64c80146c2ffb5485957d9b7,right,-1,0.75,0.2429,1,0.020845093,0.3381,19,0,19,0,1,,,,,,,,,,
,,642448,001,2023-07-31_20h44.02.968,arm3_eps,2022.2.5,Win32,102.891244,5a2420437413810001521dd6,64c7fed44a04f777bb1e18ce,64c80146c2ffb5485957d9b7,right,-1,0.75,0.2429,1,0.014492669,0.36,20,0,20,0,1,,,,,,,,,,
,,642448,001,2023-07-31_20h44.02.968,arm3_eps,2022.2.5,Win32,102.891244,5a2420437413810001521dd6,64c7fed44a04f777bb1e18ce,64c80146c2ffb5485957d9b7,right,-1,0.75,0.2429,1,0.014447745,0.4073,21,0,21,0,1,,,,,,,,,,
,,642448,001,2023-07-31_20h44.02.968,arm3_eps,2022.2.5,Win32,102.891244,5a2420437413810001521dd6,64c7fed44a04f777bb1e18ce,64c80146c2ffb5485957d9b7,right,-1,0.75,0.2429,1,0.054337914,0.4957,22,0,22,0,1,,,,,,,,,,
,,642448,001,2023-07-31_20h44.02.968,arm3_eps,2022.2.5,Win32,102.891244,5a2420437413810001521dd6,64c7fed44a04f777bb1e18ce,64c80146c2ffb5485957d9b7,right,-1,0.75,0.2429,1,0.035206313,0.3862,23,0,23,0,1,,,,,,,,,,
,,642448,001,2023-07-31_20h44.02.968,arm3_eps,2022.2.5,Win32,102.891244,5a2420437413810001521dd6,64c7fed44a04f777bb1e18ce,64c80146c2ffb5485957d9b7,right,-1,0.75,0.2429,1,0.019814872,0.9543,24,0,24,0,1,,,,,,,,,,
,,642448,001,2023-07-31_20h44.02.968,arm3_eps,2022.2.5,Win32,102.891244,5a2420437413810001521dd6,64c7fed44a04f777bb1e18ce,64c80146c2ffb5485957d9b7,right,-1,0.75,0.2429,1,0.027923468,0.4998,25,0,25,0,1,,,,,,,,,,
,,642448,001,2023-07-31_20h44.02.968,arm3_eps,2022.2.5,Win32,102.891244,5a2420437413810001521dd6,64c7fed44a04f777bb1e18ce,64c80146c2ffb5485957d9b7,right,-1,0.75,0.2429,1,0.002084354,0.3992,26,0,26,0,1,,,,,,,,,,
,,642448,001,2023-07-31_20h44.02.968,arm3_eps,2022.2.5,Win32,102.891244,5a2420437413810001521dd6,64c7fed44a04f777bb1e18ce,64c80146c2ffb5485957d9b7,right,-1,0.75,0.2429,1,-0.019866139,0.4306,27,0,27,0,1,,,,,,,,,,
,,642448,001,2023-07-31_20h44.02.968,arm3_eps,2022.2.5,Win32,102.891244,5a2420437413810001521dd6,64c7fed44a04f777bb1e18ce,64c80146c2ffb5485957d9b7,down,-1,0.75,0.2429,2,0,1.5801,28,0,28,0,1,,,,,,,,,,
,,642448,001,2023-07-31_20h44.02.968,arm3_eps,2022.2.5,Win32,102.891244,5a2420437413810001521dd6,64c7fed44a04f777bb1e18ce,64c80146c2ffb5485957d9b7,right,-1,0.75,0.2429,2,0.020718792,1.0616,29,0,29,0,1,,,,,,,,,,
,,642448,001,2023-07-31_20h44.02.968,arm3_eps,2022.2.5,Win32,102.891244,5a2420437413810001521dd6,64c7fed44a04f777bb1e18ce,64c80146c2ffb5485957d9b7,right,-1,0.75,0.2429,2,0.024340599,0.3831,30,0,30,0,1,,,,,,,,,,
,,642448,001,2023-07-31_20h44.02.968,arm3_eps,2022.2.5,Win32,102.891244,5a2420437413810001521dd6,64c7fed44a04f777bb1e18ce,64c80146c2ffb5485957d9b7,right,-1,0.75,0.2429,2,0.002516146,0.412,31,0,31,0,1,,,,,,,,,,
,,642448,001,2023-07-31_20h44.02.968,arm3_eps,2022.2.5,Win32,102.891244,5a2420437413810001521dd6,64c7fed44a04f777bb1e18ce,64c80146c2ffb5485957d9b7,right,-1,0.75,0.2429,2,-0.008438627,0.3994,32,0,32,0,1,,,,,,,,,,
,,642448,001,2023-07-31_20h44.02.968,arm3_eps,2022.2.5,Win32,102.891244,5a2420437413810001521dd6,64c7fed44a04f777bb1e18ce,64c80146c2ffb5485957d9b7,right,-1,0.75,0.2429,2,-0.047974413,0.3868,33,0,33,0,1,,,,,,,,,,
,,642448,001,2023-07-31_20h44.02.968,arm3_eps,2022.2.5,Win32,102.891244,5a2420437413810001521dd6,64c7fed44a04f777bb1e18ce,64c80146c2ffb5485957d9b7,right,-1,0.75,0.2429,2,-0.06713118,0.4156,34,0,34,0,1,,,,,,,,,,
,,642448,001,2023-07-31_20h44.02.968,arm3_eps,2022.2.5,Win32,102.891244,5a2420437413810001521dd6,64c7fed44a04f777bb1e18ce,64c80146c2ffb5485957d9b7,down,-1,0.75,0.2429,3,0,0.4162,35,0,35,0,1,,,,,,,,,,
,,642448,001,2023-07-31_20h44.02.968,arm3_eps,2022.2.5,Win32,102.891244,5a2420437413810001521dd6,64c7fed44a04f777bb1e18ce,64c80146c2ffb5485957d9b7,right,-1,0.75,0.2429,3,-0.016845659,1.007,36,0,36,0,1,,,,,,,,,,
,,642448,001,2023-07-31_20h44.02.968,arm3_eps,2022.2.5,Win32,102.891244,5a2420437413810001521dd6,64c7fed44a04f777bb1e18ce,64c80146c2ffb5485957d9b7,right,-1,0.75,0.2429,3,-0.049651598,0.3963,37,0,37,0,1,,,,,,,,,,
,,642448,001,2023-07-31_20h44.02.968,arm3_eps,2022.2.5,Win32,102.891244,5a2420437413810001521dd6,64c7fed44a04f777bb1e18ce,64c80146c2ffb5485957d9b7,right,-1,0.75,0.2429,3,-0.08387012,0.2927,38,0,38,0,1,,,,,,,,,,
,,642448,001,2023-07-31_20h44.02.968,arm3_eps,2022.2.5,Win32,102.891244,5a2420437413810001521dd6,64c7fed44a04f777bb1e18ce,64c80146c2ffb5485957d9b7,down,-1,0.75,0.2429,3,0,0.342,39,0,39,0,1,,,,,,,,,,
,,642448,001,2023-07-31_20h44.02.968,arm3_eps,2022.2.5,Win32,102.891244,5a2420437413810001521dd6,64c7fed44a04f777bb1e18ce,64c80146c2ffb5485957d9b7,right,-1,0.75,0.2429,3,-0.001441159,1.0564,40,0,40,0,1,,,,,,,,,,
,,642448,001,2023-07-31_20h44.02.968,arm3_eps,2022.2.5,Win32,102.891244,5a2420437413810001521dd6,64c7fed44a04f777bb1e18ce,64c80146c2ffb5485957d9b7,right,-1,0.75,0.2429,3,-0.00228416,0.387,41,0,41,0,1,,,,,,,,,,
,,642448,001,2023-07-31_20h44.02.968,arm3_eps,2022.2.5,Win32,102.891244,5a2420437413810001521dd6,64c7fed44a04f777bb1e18ce,64c80146c2ffb5485957d9b7,right,-1,0.75,0.2429,3,-0.03140349,0.4037,42,0,42,0,1,,,,,,,,,,
,,642448,001,2023-07-31_20h44.02.968,arm3_eps,2022.2.5,Win32,102.891244,5a2420437413810001521dd6,64c7fed44a04f777bb1e18ce,64c80146c2ffb5485957d9b7,down,-1,0.75,0.2429,3,0,0.783,43,0,43,0,1,,,,,,,,,,
,,642448,001,2023-07-31_20h44.02.968,arm3_eps,2022.2.5,Win32,102.891244,5a2420437413810001521dd6,64c7fed44a04f777bb1e18ce,64c80146c2ffb5485957d9b7,right,-1,0.75,0.2429,3,-0.022656306,0.8285,44,0,44,0,1,,,,,,,,,,
,,642448,001,2023-07-31_20h44.02.968,arm3_eps,2022.2.5,Win32,102.891244,5a2420437413810001521dd6,64c7fed44a04f777bb1e18ce,64c80146c2ffb5485957d9b7,right,-1,0.75,0.2429,3,-0.025137402,0.3686,45,0,45,0,1,,,,,,,,,,
,,642448,001,2023-07-31_20h44.02.968,arm3_eps,2022.2.5,Win32,102.891244,5a2420437413810001521dd6,64c7fed44a04f777bb1e18ce,64c80146c2ffb5485957d9b7,right,-1,0.75,0.2429,3,-0.012627077,0.4068,46,0,46,0,1,,,,,,,,,,
,,642448,001,2023-07-31_20h44.02.968,arm3_eps,2022.2.5,Win32,102.891244,5a2420437413810001521dd6,64c7fed44a04f777bb1e18ce,64c80146c2ffb5485957d9b7,right,-1,0.75,0.2429,3,0.001198102,0.4158,47,0,47,0,1,,,,,,,,,,
,,642448,001,2023-07-31_20h44.02.968,arm3_eps,2022.2.5,Win32,102.891244,5a2420437413810001521dd6,64c7fed44a04f777bb1e18ce,64c80146c2ffb5485957d9b7,right,-1,0.75,0.2429,3,0.001675753,1.0243,48,0,48,0,1,,,,,,,,,,
,,642448,001,2023-07-31_20h44.02.968,arm3_eps,2022.2.5,Win32,102.891244,5a2420437413810001521dd6,64c7fed44a04f777bb1e18ce,64c80146c2ffb5485957d9b7,right,-1,0.75,0.2429,3,0.002407125,0.389,49,0,49,0,1,,,,,,,,,,
space,21.8808,642448,001,2023-07-31_20h44.02.968,arm3_eps,2022.2.5,Win32,102.891244,5a2420437413810001521dd6,64c7fed44a04f777bb1e18ce,64c80146c2ffb5485957d9b7,,,,,,,,,,,,,,,,,,,,,,
space,13.3057,642448,001,2023-07-31_20h44.02.968,arm3_eps,2022.2.5,Win32,102.891244,5a2420437413810001521dd6,64c7fed44a04f777bb1e18ce,64c80146c2ffb5485957d9b7,,,,,,,,,,,,,,,,,,,,,,
space,0.5321,642448,001,2023-07-31_20h44.02.968,arm3_eps,2022.2.5,Win32,102.891244,5a2420437413810001521dd6,64c7fed44a04f777bb1e18ce,64c80146c2ffb5485957d9b7,,,,,,,,,,,,,,,,,,,,,,
,,642448,001,2023-07-31_20h44.02.968,arm3_eps,2022.2.5,Win32,102.891244,5a2420437413810001521dd6,64c7fed44a04f777bb1e18ce,64c80146c2ffb5485957d9b7,right,-1,0.75,0.05,0,-0.015842001,2.143,0,0,0,0,1,,,,,,,,,,
,,642448,001,2023-07-31_20h44.02.968,arm3_eps,2022.2.5,Win32,102.891244,5a2420437413810001521dd6,64c7fed44a04f777bb1e18ce,64c80146c2ffb5485957d9b7,right,-1,0.75,0.05,0,-0.009854083,0.3415,1,0,1,0,1,,,,,,,,,,
,,642448,001,2023-07-31_20h44.02.968,arm3_eps,2022.2.5,Win32,102.891244,5a2420437413810001521dd6,64c7fed44a04f777bb1e18ce,64c80146c2ffb5485957d9b7,right,-1,0.75,0.05,0,-0.042574535,0.4989,2,0,2,0,1,,,,,,,,,,
,,642448,001,2023-07-31_20h44.02.968,arm3_eps,2022.2.5,Win32,102.891244,5a2420437413810001521dd6,64c7fed44a04f777bb1e18ce,64c80146c2ffb5485957d9b7,right,-1,0.75,0.05,0,-0.064633569,0.5456,3,0,3,0,1,,,,,,,,,,
,,642448,001,2023-07-31_20h44.02.968,arm3_eps,2022.2.5,Win32,102.891244,5a2420437413810001521dd6,64c7fed44a04f777bb1e18ce,64c80146c2ffb5485957d9b7,right,-1,0.75,0.05,0,-0.031217679,0.5229,4,0,4,0,1,,,,,,,,,,
,,642448,001,2023-07-31_20h44.02.968,arm3_eps,2022.2.5,Win32,102.891244,5a2420437413810001521dd6,64c7fed44a04f777bb1e18ce,64c80146c2ffb5485957d9b7,right,-1,0.75,0.05,0,-0.011268202,0.4599,5,0,5,0,1,,,,,,,,,,
,,642448,001,2023-07-31_20h44.02.968,arm3_eps,2022.2.5,Win32,102.891244,5a2420437413810001521dd6,64c7fed44a04f777bb1e18ce,64c80146c2ffb5485957d9b7,right,-1,0.75,0.05,0,-0.013892469,0.4327,6,0,6,0,1,,,,,,,,,,
,,642448,001,2023-07-31_20h44.02.968,arm3_eps,2022.2.5,Win32,102.891244,5a2420437413810001521dd6,64c7fed44a04f777bb1e18ce,64c80146c2ffb5485957d9b7,right,-1,0.75,0.05,0,-0.031034524,0.3769,7,0,7,0,1,,,,,,,,,,
,,642448,001,2023-07-31_20h44.02.968,arm3_eps,2022.2.5,Win32,102.891244,5a2420437413810001521dd6,64c7fed44a04f777bb1e18ce,64c80146c2ffb5485957d9b7,right,-1,0.75,0.05,0,-0.043684959,0.4069,8,0,8,0,1,,,,,,,,,,
,,642448,001,2023-07-31_20h44.02.968,arm3_eps,2022.2.5,Win32,102.891244,5a2420437413810001521dd6,64c7fed44a04f777bb1e18ce,64c80146c2ffb5485957d9b7,right,-1,0.75,0.05,0,-0.029888639,0.8541,9,0,9,0,1,,,,,,,,,,
,,642448,001,2023-07-31_20h44.02.968,arm3_eps,2022.2.5,Win32,102.891244,5a2420437413810001521dd6,64c7fed44a04f777bb1e18ce,64c80146c2ffb5485957d9b7,right,-1,0.75,0.05,0,-0.029138482,0.3619,10,0,10,0,1,,,,,,,,,,
,,642448,001,2023-07-31_20h44.02.968,arm3_eps,2022.2.5,Win32,102.891244,5a2420437413810001521dd6,64c7fed44a04f777bb1e18ce,64c80146c2ffb5485957d9b7,right,-1,0.75,0.05,0,-0.036371556,0.3974,11,0,11,0,1,,,,,,,,,,
,,642448,001,2023-07-31_20h44.02.968,arm3_eps,2022.2.5,Win32,102.891244,5a2420437413810001521dd6,64c7fed44a04f777bb1e18ce,64c80146c2ffb5485957d9b7,down,-1,0.75,0.05,1,0,1.2837,12,0,12,0,1,,,,,,,,,,
,,642448,001,2023-07-31_20h44.02.968,arm3_eps,2022.2.5,Win32,102.891244,5a2420437413810001521dd6,64c7fed44a04f777bb1e18ce,64c80146c2ffb5485957d9b7,right,-1,0.75,0.05,1,-0.028254242,1.9786,13,0,13,0,1,,,,,,,,,,
,,642448,001,2023-07-31_20h44.02.968,arm3_eps,2022.2.5,Win32,102.891244,5a2420437413810001521dd6,64c7fed44a04f777bb1e18ce,64c80146c2ffb5485957d9b7,right,-1,0.75,0.05,1,-0.028874783,0.3077,14,0,14,0,1,,,,,,,,,,
,,642448,001,2023-07-31_20h44.02.968,arm3_eps,2022.2.5,Win32,102.891244,5a2420437413810001521dd6,64c7fed44a04f777bb1e18ce,64c80146c2ffb5485957d9b7,right,-1,0.75,0.05,1,-0.006033406,0.2356,15,0,15,0,1,,,,,,,,,,
,,642448,001,2023-07-31_20h44.02.968,arm3_eps,2022.2.5,Win32,102.891244,5a2420437413810001521dd6,64c7fed44a04f777bb1e18ce,64c80146c2ffb5485957d9b7,right,-1,0.75,0.05,1,-0.027387226,0.3416,16,0,16,0,1,,,,,,,,,,
,,642448,001,2023-07-31_20h44.02.968,arm3_eps,2022.2.5,Win32,102.891244,5a2420437413810001521dd6,64c7fed44a04f777bb1e18ce,64c80146c2ffb5485957d9b7,right,-1,0.75,0.05,1,-0.051570727,0.2619,17,0,17,0,1,,,,,,,,,,
,,642448,001,2023-07-31_20h44.02.968,arm3_eps,2022.2.5,Win32,102.891244,5a2420437413810001521dd6,64c7fed44a04f777bb1e18ce,64c80146c2ffb5485957d9b7,down,-1,0.75,0.05,2,0,0.2376,18,0,18,0,1,,,,,,,,,,
,,642448,001,2023-07-31_20h44.02.968,arm3_eps,2022.2.5,Win32,102.891244,5a2420437413810001521dd6,64c7fed44a04f777bb1e18ce,64c80146c2ffb5485957d9b7,right,-1,0.75,0.05,2,0.00040606,0.8583,19,0,19,0,1,,,,,,,,,,
,,642448,001,2023-07-31_20h44.02.968,arm3_eps,2022.2.5,Win32,102.891244,5a2420437413810001521dd6,64c7fed44a04f777bb1e18ce,64c80146c2ffb5485957d9b7,right,-1,0.75,0.05,2,0.003128937,0.313,20,0,20,0,1,,,,,,,,,,
,,642448,001,2023-07-31_20h44.02.968,arm3_eps,2022.2.5,Win32,102.891244,5a2420437413810001521dd6,64c7fed44a04f777bb1e18ce,64c80146c2ffb5485957d9b7,right,-1,0.75,0.05,2,0.001299619,0.2987,21,0,21,0,1,,,,,,,,,,
,,642448,001,2023-07-31_20h44.02.968,arm3_eps,2022.2.5,Win32,102.891244,5a2420437413810001521dd6,64c7fed44a04f777bb1e18ce,64c80146c2ffb5485957d9b7,right,-1,0.75,0.05,2,-0.001014692,0.4024,22,0,22,0,1,,,,,,,,,,
,,642448,001,2023-07-31_20h44.02.968,arm3_eps,2022.2.5,Win32,102.891244,5a2420437413810001521dd6,64c7fed44a04f777bb1e18ce,64c80146c2ffb5485957d9b7,down,-1,0.75,0.05,3,0,0.6019,23,0,23,0,1,,,,,,,,,,
,,642448,001,2023-07-31_20h44.02.968,arm3_eps,2022.2.5,Win32,102.891244,5a2420437413810001521dd6,64c7fed44a04f777bb1e18ce,64c80146c2ffb5485957d9b7,right,-1,0.75,0.05,3,-0.025122847,1.6972,24,0,24,0,1,,,,,,,,,,
,,642448,001,2023-07-31_20h44.02.968,arm3_eps,2022.2.5,Win32,102.891244,5a2420437413810001521dd6,64c7fed44a04f777bb1e18ce,64c80146c2ffb5485957d9b7,right,-1,0.75,0.05,3,-0.040939134,0.3188,25,0,25,0,1,,,,,,,,,,
,,642448,001,2023-07-31_20h44.02.968,arm3_eps,2022.2.5,Win32,102.891244,5a2420437413810001521dd6,64c7fed44a04f777bb1e18ce,64c80146c2ffb5485957d9b7,right,-1,0.75,0.05,3,-0.048624327,0.2579,26,0,26,0,1,,,,,,,,,,
,,642448,001,2023-07-31_20h44.02.968,arm3_eps,2022.2.5,Win32,102.891244,5a2420437413810001521dd6,64c7fed44a04f777bb1e18ce,64c80146c2ffb5485957d9b7,down,-1,0.75,0.05,4,0,0.2428,27,0,27,0,1,,,,,,,,,,
,,642448,001,2023-07-31_20h44.02.968,arm3_eps,2022.2.5,Win32,102.891244,5a2420437413810001521dd6,64c7fed44a04f777bb1e18ce,64c80146c2ffb5485957d9b7,right,-1,0.75,0.05,4,0.004467115,0.8983,28,0,28,0,1,,,,,,,,,,
,,642448,001,2023-07-31_20h44.02.968,arm3_eps,2022.2.5,Win32,102.891244,5a2420437413810001521dd6,64c7fed44a04f777bb1e18ce,64c80146c2ffb5485957d9b7,right,-1,0.75,0.05,4,-0.018092366,0.2815,29,0,29,0,1,,,,,,,,,,
,,642448,001,2023-07-31_20h44.02.968,arm3_eps,2022.2.5,Win32,102.891244,5a2420437413810001521dd6,64c7fed44a04f777bb1e18ce,64c80146c2ffb5485957d9b7,down,-1,0.75,0.05,5,0,0.519,30,0,30,0,1,,,,,,,,,,
,,642448,001,2023-07-31_20h44.02.968,arm3_eps,2022.2.5,Win32,102.891244,5a2420437413810001521dd6,64c7fed44a04f777bb1e18ce,64c80146c2ffb5485957d9b7,right,-1,0.75,0.05,5,-0.018972801,1.7918,31,0,31,0,1,,,,,,,,,,
,,642448,001,2023-07-31_20h44.02.968,arm3_eps,2022.2.5,Win32,102.891244,5a2420437413810001521dd6,64c7fed44a04f777bb1e18ce,64c80146c2ffb5485957d9b7,right,-1,0.75,0.05,5,-0.005830996,0.3714,32,0,32,0,1,,,,,,,,,,
,,642448,001,2023-07-31_20h44.02.968,arm3_eps,2022.2.5,Win32,102.891244,5a2420437413810001521dd6,64c7fed44a04f777bb1e18ce,64c80146c2ffb5485957d9b7,right,-1,0.75,0.05,5,-0.036074917,0.5128,33,0,33,0,1,,,,,,,,,,
,,642448,001,2023-07-31_20h44.02.968,arm3_eps,2022.2.5,Win32,102.891244,5a2420437413810001521dd6,64c7fed44a04f777bb1e18ce,64c80146c2ffb5485957d9b7,right,-1,0.75,0.05,5,-0.040196835,0.4022,34,0,34,0,1,,,,,,,,,,
,,642448,001,2023-07-31_20h44.02.968,arm3_eps,2022.2.5,Win32,102.891244,5a2420437413810001521dd6,64c7fed44a04f777bb1e18ce,64c80146c2ffb5485957d9b7,down,-1,0.75,0.05,6,0,0.436,35,0,35,0,1,,,,,,,,,,
,,642448,001,2023-07-31_20h44.02.968,arm3_eps,2022.2.5,Win32,102.891244,5a2420437413810001521dd6,64c7fed44a04f777bb1e18ce,64c80146c2ffb5485957d9b7,right,-1,0.75,0.05,6,0.021129785,1.3881,36,0,36,0,1,,,,,,,,,,
,,642448,001,2023-07-31_20h44.02.968,arm3_eps,2022.2.5,Win32,102.891244,5a2420437413810001521dd6,64c7fed44a04f777bb1e18ce,64c80146c2ffb5485957d9b7,right,-1,0.75,0.05,6,-0.016112951,0.3669,37,0,37,0,1,,,,,,,,,,
,,642448,001,2023-07-31_20h44.02.968,arm3_eps,2022.2.5,Win32,102.891244,5a2420437413810001521dd6,64c7fed44a04f777bb1e18ce,64c80146c2ffb5485957d9b7,right,-1,0.75,0.05,6,-0.021417587,0.3021,38,0,38,0,1,,,,,,,,,,
,,642448,001,2023-07-31_20h44.02.968,arm3_eps,2022.2.5,Win32,102.891244,5a2420437413810001521dd6,64c7fed44a04f777bb1e18ce,64c80146c2ffb5485957d9b7,down,-1,0.75,0.05,6,0,0.3631,39,0,39,0,1,,,,,,,,,,
,,642448,001,2023-07-31_20h44.02.968,arm3_eps,2022.2.5,Win32,102.891244,5a2420437413810001521dd6,64c7fed44a04f777bb1e18ce,64c80146c2ffb5485957d9b7,right,-1,0.75,0.05,6,-0.007656259,0.9244,40,0,40,0,1,,,,,,,,,,
,,642448,001,2023-07-31_20h44.02.968,arm3_eps,2022.2.5,Win32,102.891244,5a2420437413810001521dd6,64c7fed44a04f777bb1e18ce,64c80146c2ffb5485957d9b7,right,-1,0.75,0.05,6,-0.007281133,0.244,41,0,41,0,1,,,,,,,,,,
,,642448,001,2023-07-31_20h44.02.968,arm3_eps,2022.2.5,Win32,102.891244,5a2420437413810001521dd6,64c7fed44a04f777bb1e18ce,64c80146c2ffb5485957d9b7,down,-1,0.75,0.05,7,0,0.4537,42,0,42,0,1,,,,,,,,,,
,,642448,001,2023-07-31_20h44.02.968,arm3_eps,2022.2.5,Win32,102.891244,5a2420437413810001521dd6,64c7fed44a04f777bb1e18ce,64c80146c2ffb5485957d9b7,right,-1,0.75,0.05,7,-0.037873484,1.9959,43,0,43,0,1,,,,,,,,,,
,,642448,001,2023-07-31_20h44.02.968,arm3_eps,2022.2.5,Win32,102.891244,5a2420437413810001521dd6,64c7fed44a04f777bb1e18ce,64c80146c2ffb5485957d9b7,down,-1,0.75,0.05,8,0,0.3385,44,0,44,0,1,,,,,,,,,,
,,642448,001,2023-07-31_20h44.02.968,arm3_eps,2022.2.5,Win32,102.891244,5a2420437413810001521dd6,64c7fed44a04f777bb1e18ce,64c80146c2ffb5485957d9b7,right,-1,0.75,0.05,8,-0.005127393,1.3338,45,0,45,0,1,,,,,,,,,,
,,642448,001,2023-07-31_20h44.02.968,arm3_eps,2022.2.5,Win32,102.891244,5a2420437413810001521dd6,64c7fed44a04f777bb1e18ce,64c80146c2ffb5485957d9b7,down,-1,0.75,0.05,9,0,0.6313,46,0,46,0,1,,,,,,,,,,
,,642448,001,2023-07-31_20h44.02.968,arm3_eps,2022.2.5,Win32,102.891244,5a2420437413810001521dd6,64c7fed44a04f777bb1e18ce,64c80146c2ffb5485957d9b7,right,-1,0.75,0.05,9,0.024339897,0.8415,47,0,47,0,1,,,,,,,,,,
,,642448,001,2023-07-31_20h44.02.968,arm3_eps,2022.2.5,Win32,102.891244,5a2420437413810001521dd6,64c7fed44a04f777bb1e18ce,64c80146c2ffb5485957d9b7,down,-1,0.75,0.05,10,0,2.471,48,0,48,0,1,,,,,,,,,,
,,642448,001,2023-07-31_20h44.02.968,arm3_eps,2022.2.5,Win32,102.891244,5a2420437413810001521dd6,64c7fed44a04f777bb1e18ce,64c80146c2ffb5485957d9b7,down,-1,0.75,0.05,10,0,1.5948,49,0,49,0,1,,,,,,,,,,
space,14.1609,642448,001,2023-07-31_20h44.02.968,arm3_eps,2022.2.5,Win32,102.891244,5a2420437413810001521dd6,64c7fed44a04f777bb1e18ce,64c80146c2ffb5485957d9b7,,,,,,,,,,,,,,,,,,,,,,
space,0.7172,642448,001,2023-07-31_20h44.02.968,arm3_eps,2022.2.5,Win32,102.891244,5a2420437413810001521dd6,64c7fed44a04f777bb1e18ce,64c80146c2ffb5485957d9b7,,,,,,,,,,,,,,,,,,,,,,
,,642448,001,2023-07-31_20h44.02.968,arm3_eps,2022.2.5,Win32,102.891244,5a2420437413810001521dd6,64c7fed44a04f777bb1e18ce,64c80146c2ffb5485957d9b7,right,-1,0.75,0.5,0,-0.001511292,1.3512,0,0,0,0,1,,,,,,,,,,
,,642448,001,2023-07-31_20h44.02.968,arm3_eps,2022.2.5,Win32,102.891244,5a2420437413810001521dd6,64c7fed44a04f777bb1e18ce,64c80146c2ffb5485957d9b7,right,-1,0.75,0.5,0,-0.047641292,0.3858,1,0,1,0,1,,,,,,,,,,
,,642448,001,2023-07-31_20h44.02.968,arm3_eps,2022.2.5,Win32,102.891244,5a2420437413810001521dd6,64c7fed44a04f777bb1e18ce,64c80146c2ffb5485957d9b7,right,-1,0.75,0.5,0,-0.096922787,0.6877,2,0,2,0,1,,,,,,,,,,
,,642448,001,2023-07-31_20h44.02.968,arm3_eps,2022.2.5,Win32,102.891244,5a2420437413810001521dd6,64c7fed44a04f777bb1e18ce,64c80146c2ffb5485957d9b7,down,1,0.75,0.5,1,0,0.6395,3,0,3,0,1,,,,,,,,,,
,,642448,001,2023-07-31_20h44.02.968,arm3_eps,2022.2.5,Win32,102.891244,5a2420437413810001521dd6,64c7fed44a04f777bb1e18ce,64c80146c2ffb5485957d9b7,right,1,0.75,0.5,1,0.010296865,1.2107,4,0,4,0,1,,,,,,,,,,
,,642448,001,2023-07-31_20h44.02.968,arm3_eps,2022.2.5,Win32,102.891244,5a2420437413810001521dd6,64c7fed44a04f777bb1e18ce,64c80146c2ffb5485957d9b7,right,1,0.75,0.5,1,0.051415322,0.6,5,0,5,0,1,,,,,,,,,,
,,642448,001,2023-07-31_20h44.02.968,arm3_eps,2022.2.5,Win32,102.891244,5a2420437413810001521dd6,64c7fed44a04f777bb1e18ce,64c80146c2ffb5485957d9b7,up,-1,0.75,0.5,2,0,0.4745,6,0,6,0,1,,,,,,,,,,
,,642448,001,2023-07-31_20h44.02.968,arm3_eps,2022.2.5,Win32,102.891244,5a2420437413810001521dd6,64c7fed44a04f777bb1e18ce,64c80146c2ffb5485957d9b7,right,-1,0.75,0.5,2,-0.008736771,0.9837,7,0,7,0,1,,,,,,,,,,
,,642448,001,2023-07-31_20h44.02.968,arm3_eps,2022.2.5,Win32,102.891244,5a2420437413810001521dd6,64c7fed44a04f777bb1e18ce,64c80146c2ffb5485957d9b7,right,-1,0.75,0.5,2,-0.013209767,0.3138,8,0,8,0,1,,,,,,,,,,
,,642448,001,2023-07-31_20h44.02.968,arm3_eps,2022.2.5,Win32,102.891244,5a2420437413810001521dd6,64c7fed44a04f777bb1e18ce,64c80146c2ffb5485957d9b7,down,-1,0.75,0.5,2,0,1.0734,9,0,9,0,1,,,,,,,,,,
,,642448,001,2023-07-31_20h44.02.968,arm3_eps,2022.2.5,Win32,102.891244,5a2420437413810001521dd6,64c7fed44a04f777bb1e18ce,64c80146c2ffb5485957d9b7,right,-1,0.75,0.5,2,-2.39906E-05,0.9253,10,0,10,0,1,,,,,,,,,,
,,642448,001,2023-07-31_20h44.02.968,arm3_eps,2022.2.5,Win32,102.891244,5a2420437413810001521dd6,64c7fed44a04f777bb1e18ce,64c80146c2ffb5485957d9b7,right,-1,0.75,0.5,2,-0.030465199,0.3027,11,0,11,0,1,,,,,,,,,,
,,642448,001,2023-07-31_20h44.02.968,arm3_eps,2022.2.5,Win32,102.891244,5a2420437413810001521dd6,64c7fed44a04f777bb1e18ce,64c80146c2ffb5485957d9b7,right,-1,0.75,0.5,2,-0.018245457,0.3976,12,0,12,0,1,,,,,,,,,,
,,642448,001,2023-07-31_20h44.02.968,arm3_eps,2022.2.5,Win32,102.891244,5a2420437413810001521dd6,64c7fed44a04f777bb1e18ce,64c80146c2ffb5485957d9b7,right,-1,0.75,0.5,2,-0.009735449,0.4843,13,0,13,0,1,,,,,,,,,,
,,642448,001,2023-07-31_20h44.02.968,arm3_eps,2022.2.5,Win32,102.891244,5a2420437413810001521dd6,64c7fed44a04f777bb1e18ce,64c80146c2ffb5485957d9b7,right,-1,0.75,0.5,2,-0.030093658,0.4738,14,0,14,0,1,,,,,,,,,,
,,642448,001,2023-07-31_20h44.02.968,arm3_eps,2022.2.5,Win32,102.891244,5a2420437413810001521dd6,64c7fed44a04f777bb1e18ce,64c80146c2ffb5485957d9b7,right,-1,0.75,0.5,2,-0.031275039,0.8087,15,0,15,0,1,,,,,,,,,,
,,642448,001,2023-07-31_20h44.02.968,arm3_eps,2022.2.5,Win32,102.891244,5a2420437413810001521dd6,64c7fed44a04f777bb1e18ce,64c80146c2ffb5485957d9b7,down,-1,0.75,0.5,3,0,0.8367,16,0,16,0,1,,,,,,,,,,
,,642448,001,2023-07-31_20h44.02.968,arm3_eps,2022.2.5,Win32,102.891244,5a2420437413810001521dd6,64c7fed44a04f777bb1e18ce,64c80146c2ffb5485957d9b7,right,-1,0.75,0.5,3,0.013343544,0.8759,17,0,17,0,1,,,,,,,,,,
,,642448,001,2023-07-31_20h44.02.968,arm3_eps,2022.2.5,Win32,102.891244,5a2420437413810001521dd6,64c7fed44a04f777bb1e18ce,64c80146c2ffb5485957d9b7,right,-1,0.75,0.5,3,-0.005995645,0.325,18,0,18,0,1,,,,,,,,,,
,,642448,001,2023-07-31_20h44.02.968,arm3_eps,2022.2.5,Win32,102.891244,5a2420437413810001521dd6,64c7fed44a04f777bb1e18ce,64c80146c2ffb5485957d9b7,right,-1,0.75,0.5,3,0.00544754,0.7178,19,0,19,0,1,,,,,,,,,,
,,642448,001,2023-07-31_20h44.02.968,arm3_eps,2022.2.5,Win32,102.891244,5a2420437413810001521dd6,64c7fed44a04f777bb1e18ce,64c80146c2ffb5485957d9b7,right,-1,0.75,0.5,3,-0.010241462,0.8073,20,0,20,0,1,,,,,,,,,,
,,642448,001,2023-07-31_20h44.02.968,arm3_eps,2022.2.5,Win32,102.891244,5a2420437413810001521dd6,64c7fed44a04f777bb1e18ce,64c80146c2ffb5485957d9b7,right,-1,0.75,0.5,3,-0.019267087,0.4315,21,0,21,0,1,,,,,,,,,,
,,642448,001,2023-07-31_20h44.02.968,arm3_eps,2022.2.5,Win32,102.891244,5a2420437413810001521dd6,64c7fed44a04f777bb1e18ce,64c80146c2ffb5485957d9b7,right,-1,0.75,0.5,3,-0.043121074,1.2318,22,0,22,0,1,,,,,,,,,,
,,642448,001,2023-07-31_20h44.02.968,arm3_eps,2022.2.5,Win32,102.891244,5a2420437413810001521dd6,64c7fed44a04f777bb1e18ce,64c80146c2ffb5485957d9b7,down,-1,0.75,0.5,3,0,1.0914,23,0,23,0,1,,,,,,,,,,
,,642448,001,2023-07-31_20h44.02.968,arm3_eps,2022.2.5,Win32,102.891244,5a2420437413810001521dd6,64c7fed44a04f777bb1e18ce,64c80146c2ffb5485957d9b7,right,-1,0.75,0.5,3,0.011222987,0.8014,24,0,24,0,1,,,,,,,,,,
,,642448,001,2023-07-31_20h44.02.968,arm3_eps,2022.2.5,Win32,102.891244,5a2420437413810001521dd6,64c7fed44a04f777bb1e18ce,64c80146c2ffb5485957d9b7,right,-1,0.75,0.5,3,0.00349344,0.2819,25,0,25,0,1,,,,,,,,,,
,,642448,001,2023-07-31_20h44.02.968,arm3_eps,2022.2.5,Win32,102.891244,5a2420437413810001521dd6,64c7fed44a04f777bb1e18ce,64c80146c2ffb5485957d9b7,right,-1,0.75,0.5,3,0.014996217,0.2934,26,0,26,0,1,,,,,,,,,,
,,642448,001,2023-07-31_20h44.02.968,arm3_eps,2022.2.5,Win32,102.891244,5a2420437413810001521dd6,64c7fed44a04f777bb1e18ce,64c80146c2ffb5485957d9b7,right,-1,0.75,0.5,3,0.00087223,0.364,27,0,27,0,1,,,,,,,,,,
,,642448,001,2023-07-31_20h44.02.968,arm3_eps,2022.2.5,Win32,102.891244,5a2420437413810001521dd6,64c7fed44a04f777bb1e18ce,64c80146c2ffb5485957d9b7,right,-1,0.75,0.5,3,-0.01770179,0.4002,28,0,28,0,1,,,,,,,,,,
,,642448,001,2023-07-31_20h44.02.968,arm3_eps,2022.2.5,Win32,102.891244,5a2420437413810001521dd6,64c7fed44a04f777bb1e18ce,64c80146c2ffb5485957d9b7,right,-1,0.75,0.5,3,-0.033686312,0.2163,29,0,29,0,1,,,,,,,,,,
,,642448,001,2023-07-31_20h44.02.968,arm3_eps,2022.2.5,Win32,102.891244,5a2420437413810001521dd6,64c7fed44a04f777bb1e18ce,64c80146c2ffb5485957d9b7,right,-1,0.75,0.5,3,-0.036894957,0.5241,30,0,30,0,1,,,,,,,,,,
,,642448,001,2023-07-31_20h44.02.968,arm3_eps,2022.2.5,Win32,102.891244,5a2420437413810001521dd6,64c7fed44a04f777bb1e18ce,64c80146c2ffb5485957d9b7,down,-1,0.75,0.5,4,0,0.4065,31,0,31,0,1,,,,,,,,,,
,,642448,001,2023-07-31_20h44.02.968,arm3_eps,2022.2.5,Win32,102.891244,5a2420437413810001521dd6,64c7fed44a04f777bb1e18ce,64c80146c2ffb5485957d9b7,right,-1,0.75,0.5,4,0.014360788,0.7935,32,0,32,0,1,,,,,,,,,,
,,642448,001,2023-07-31_20h44.02.968,arm3_eps,2022.2.5,Win32,102.891244,5a2420437413810001521dd6,64c7fed44a04f777bb1e18ce,64c80146c2ffb5485957d9b7,right,-1,0.75,0.5,4,0.019835637,0.2281,33,0,33,0,1,,,,,,,,,,
,,642448,001,2023-07-31_20h44.02.968,arm3_eps,2022.2.5,Win32,102.891244,5a2420437413810001521dd6,64c7fed44a04f777bb1e18ce,64c80146c2ffb5485957d9b7,right,-1,0.75,0.5,4,0.003699078,0.2899,34,0,34,0,1,,,,,,,,,,
,,642448,001,2023-07-31_20h44.02.968,arm3_eps,2022.2.5,Win32,102.891244,5a2420437413810001521dd6,64c7fed44a04f777bb1e18ce,64c80146c2ffb5485957d9b7,right,-1,0.75,0.5,4,-0.046433437,0.2336,35,0,35,0,1,,,,,,,,,,
,,642448,001,2023-07-31_20h44.02.968,arm3_eps,2022.2.5,Win32,102.891244,5a2420437413810001521dd6,64c7fed44a04f777bb1e18ce,64c80146c2ffb5485957d9b7,right,-1,0.75,0.5,4,-0.021938371,0.4299,36,0,36,0,1,,,,,,,,,,
,,642448,001,2023-07-31_20h44.02.968,arm3_eps,2022.2.5,Win32,102.891244,5a2420437413810001521dd6,64c7fed44a04f777bb1e18ce,64c80146c2ffb5485957d9b7,right,-1,0.75,0.5,4,-0.040328809,0.5234,37,0,37,0,1,,,,,,,,,,
,,642448,001,2023-07-31_20h44.02.968,arm3_eps,2022.2.5,Win32,102.891244,5a2420437413810001521dd6,64c7fed44a04f777bb1e18ce,64c80146c2ffb5485957d9b7,right,-1,0.75,0.5,4,-0.061985388,0.3818,38,0,38,0,1,,,,,,,,,,
,,642448,001,2023-07-31_20h44.02.968,arm3_eps,2022.2.5,Win32,102.891244,5a2420437413810001521dd6,64c7fed44a04f777bb1e18ce,64c80146c2ffb5485957d9b7,down,-1,0.75,0.5,5,0,0.3646,39,0,39,0,1,,,,,,,,,,
,,642448,001,2023-07-31_20h44.02.968,arm3_eps,2022.2.5,Win32,102.891244,5a2420437413810001521dd6,64c7fed44a04f777bb1e18ce,64c80146c2ffb5485957d9b7,right,-1,0.75,0.5,5,0.019431557,0.7338,40,0,40,0,1,,,,,,,,,,
,,642448,001,2023-07-31_20h44.02.968,arm3_eps,2022.2.5,Win32,102.891244,5a2420437413810001521dd6,64c7fed44a04f777bb1e18ce,64c80146c2ffb5485957d9b7,right,-1,0.75,0.5,5,0.008127097,0.2826,41,0,41,0,1,,,,,,,,,,
,,642448,001,2023-07-31_20h44.02.968,arm3_eps,2022.2.5,Win32,102.891244,5a2420437413810001521dd6,64c7fed44a04f777bb1e18ce,64c80146c2ffb5485957d9b7,right,-1,0.75,0.5,5,0.014694279,0.3512,42,0,42,0,1,,,,,,,,,,
,,642448,001,2023-07-31_20h44.02.968,arm3_eps,2022.2.5,Win32,102.891244,5a2420437413810001521dd6,64c7fed44a04f777bb1e18ce,64c80146c2ffb5485957d9b7,right,-1,0.75,0.5,5,0.022206974,0.3642,43,0,43,0,1,,,,,,,,,,
,,642448,001,2023-07-31_20h44.02.968,arm3_eps,2022.2.5,Win32,102.891244,5a2420437413810001521dd6,64c7fed44a04f777bb1e18ce,64c80146c2ffb5485957d9b7,right,-1,0.75,0.5,5,0.023011259,0.3672,44,0,44,0,1,,,,,,,,,,
,,642448,001,2023-07-31_20h44.02.968,arm3_eps,2022.2.5,Win32,102.891244,5a2420437413810001521dd6,64c7fed44a04f777bb1e18ce,64c80146c2ffb5485957d9b7,right,-1,0.75,0.5,5,-0.000583557,0.257,45,0,45,0,1,,,,,,,,,,
,,642448,001,2023-07-31_20h44.02.968,arm3_eps,2022.2.5,Win32,102.891244,5a2420437413810001521dd6,64c7fed44a04f777bb1e18ce,64c80146c2ffb5485957d9b7,right,-1,0.75,0.5,5,-0.009810213,0.198,46,0,46,0,1,,,,,,,,,,
,,642448,001,2023-07-31_20h44.02.968,arm3_eps,2022.2.5,Win32,102.891244,5a2420437413810001521dd6,64c7fed44a04f777bb1e18ce,64c80146c2ffb5485957d9b7,right,-1,0.75,0.5,5,-0.021163156,0.3879,47,0,47,0,1,,,,,,,,,,
,,642448,001,2023-07-31_20h44.02.968,arm3_eps,2022.2.5,Win32,102.891244,5a2420437413810001521dd6,64c7fed44a04f777bb1e18ce,64c80146c2ffb5485957d9b7,right,-1,0.75,0.5,5,-0.029420032,0.3723,48,0,48,0,1,,,,,,,,,,
,,642448,001,2023-07-31_20h44.02.968,arm3_eps,2022.2.5,Win32,102.891244,5a2420437413810001521dd6,64c7fed44a04f777bb1e18ce,64c80146c2ffb5485957d9b7,down,-1,0.75,0.5,5,-0.029420032,1.1534,49,0,49,0,1,,,,,,,,,,
space,2.1423,642448,001,2023-07-31_20h44.02.968,arm3_eps,2022.2.5,Win32,102.891244,5a2420437413810001521dd6,64c7fed44a04f777bb1e18ce,64c80146c2ffb5485957d9b7,,,,,,,,,,,,,,,,,,,,,,
space,3.4274,642448,001,2023-07-31_20h44.02.968,arm3_eps,2022.2.5,Win32,102.891244,5a2420437413810001521dd6,64c7fed44a04f777bb1e18ce,64c80146c2ffb5485957d9b7,right,-1,0.75,0.1786,0,0.002942732,0.9967,,,,,,0,0,0,0,1,,,,,
,,642448,001,2023-07-31_20h44.02.968,arm3_eps,2022.2.5,Win32,102.891244,5a2420437413810001521dd6,64c7fed44a04f777bb1e18ce,64c80146c2ffb5485957d9b7,right,-1,0.75,0.1786,0,-0.049684349,0.3393,,,,,,1,0,1,0,1,,,,,
,,642448,001,2023-07-31_20h44.02.968,arm3_eps,2022.2.5,Win32,102.891244,5a2420437413810001521dd6,64c7fed44a04f777bb1e18ce,64c80146c2ffb5485957d9b7,right,-1,0.75,0.1786,0,-0.058082538,0.601,,,,,,2,0,2,0,1,,,,,
,,642448,001,2023-07-31_20h44.02.968,arm3_eps,2022.2.5,Win32,102.891244,5a2420437413810001521dd6,64c7fed44a04f777bb1e18ce,64c80146c2ffb5485957d9b7,right,-1,0.75,0.1786,0,-0.065074407,0.4593,,,,,,3,0,3,0,1,,,,,
,,642448,001,2023-07-31_20h44.02.968,arm3_eps,2022.2.5,Win32,102.891244,5a2420437413810001521dd6,64c7fed44a04f777bb1e18ce,64c80146c2ffb5485957d9b7,right,-1,0.75,0.1786,0,-0.089517869,0.4094,,,,,,4,0,4,0,1,,,,,
,,642448,001,2023-07-31_20h44.02.968,arm3_eps,2022.2.5,Win32,102.891244,5a2420437413810001521dd6,64c7fed44a04f777bb1e18ce,64c80146c2ffb5485957d9b7,right,-1,0.75,0.1786,0,-0.084481817,0.3399,,,,,,5,0,5,0,1,,,,,
,,642448,001,2023-07-31_20h44.02.968,arm3_eps,2022.2.5,Win32,102.891244,5a2420437413810001521dd6,64c7fed44a04f777bb1e18ce,64c80146c2ffb5485957d9b7,right,-1,0.75,0.1786,0,-0.078563802,0.4301,,,,,,6,0,6,0,1,,,,,
,,642448,001,2023-07-31_20h44.02.968,arm3_eps,2022.2.5,Win32,102.891244,5a2420437413810001521dd6,64c7fed44a04f777bb1e18ce,64c80146c2ffb5485957d9b7,right,-1,0.75,0.1786,0,-0.074498026,0.5332,,,,,,7,0,7,0,1,,,,,
,,642448,001,2023-07-31_20h44.02.968,arm3_eps,2022.2.5,Win32,102.891244,5a2420437413810001521dd6,64c7fed44a04f777bb1e18ce,64c80146c2ffb5485957d9b7,right,-1,0.75,0.1786,0,-0.087895224,0.3494,,,,,,8,0,8,0,1,,,,,
,,642448,001,2023-07-31_20h44.02.968,arm3_eps,2022.2.5,Win32,102.891244,5a2420437413810001521dd6,64c7fed44a04f777bb1e18ce,64c80146c2ffb5485957d9b7,down,1,0.75,0.1786,0,0,0.5635,,,,,,9,0,9,0,1,,,,,
,,642448,001,2023-07-31_20h44.02.968,arm3_eps,2022.2.5,Win32,102.891244,5a2420437413810001521dd6,64c7fed44a04f777bb1e18ce,64c80146c2ffb5485957d9b7,right,1,0.75,0.1786,0,-0.00939187,0.7529,,,,,,10,0,10,0,1,,,,,
,,642448,001,2023-07-31_20h44.02.968,arm3_eps,2022.2.5,Win32,102.891244,5a2420437413810001521dd6,64c7fed44a04f777bb1e18ce,64c80146c2ffb5485957d9b7,right,1,0.75,0.1786,0,0.036228296,0.4952,,,,,,11,0,11,0,1,,,,,
,,642448,001,2023-07-31_20h44.02.968,arm3_eps,2022.2.5,Win32,102.891244,5a2420437413810001521dd6,64c7fed44a04f777bb1e18ce,64c80146c2ffb5485957d9b7,right,1,0.75,0.1786,0,0.042855201,0.3872,,,,,,12,0,12,0,1,,,,,
,,642448,001,2023-07-31_20h44.02.968,arm3_eps,2022.2.5,Win32,102.891244,5a2420437413810001521dd6,64c7fed44a04f777bb1e18ce,64c80146c2ffb5485957d9b7,right,1,0.75,0.1786,0,0.032392511,0.1881,,,,,,13,0,13,0,1,,,,,
,,642448,001,2023-07-31_20h44.02.968,arm3_eps,2022.2.5,Win32,102.891244,5a2420437413810001521dd6,64c7fed44a04f777bb1e18ce,64c80146c2ffb5485957d9b7,right,1,0.75,0.1786,0,0.02988948,0.4453,,,,,,14,0,14,0,1,,,,,
,,642448,001,2023-07-31_20h44.02.968,arm3_eps,2022.2.5,Win32,102.891244,5a2420437413810001521dd6,64c7fed44a04f777bb1e18ce,64c80146c2ffb5485957d9b7,right,1,0.75,0.1786,0,0.006099914,0.27,,,,,,15,0,15,0,1,,,,,
,,642448,001,2023-07-31_20h44.02.968,arm3_eps,2022.2.5,Win32,102.891244,5a2420437413810001521dd6,64c7fed44a04f777bb1e18ce,64c80146c2ffb5485957d9b7,right,1,0.75,0.1786,0,0.010787071,0.3698,,,,,,16,0,16,0,1,,,,,
,,642448,001,2023-07-31_20h44.02.968,arm3_eps,2022.2.5,Win32,102.891244,5a2420437413810001521dd6,64c7fed44a04f777bb1e18ce,64c80146c2ffb5485957d9b7,right,1,0.75,0.1786,0,0.021476374,0.8354,,,,,,17,0,17,0,1,,,,,
,,642448,001,2023-07-31_20h44.02.968,arm3_eps,2022.2.5,Win32,102.891244,5a2420437413810001521dd6,64c7fed44a04f777bb1e18ce,64c80146c2ffb5485957d9b7,up,1,0.75,0.1786,1,0,1.2059,,,,,,18,0,18,0,1,,,,,
,,642448,001,2023-07-31_20h44.02.968,arm3_eps,2022.2.5,Win32,102.891244,5a2420437413810001521dd6,64c7fed44a04f777bb1e18ce,64c80146c2ffb5485957d9b7,right,1,0.75,0.1786,1,0.021773502,0.8652,,,,,,19,0,19,0,1,,,,,
,,642448,001,2023-07-31_20h44.02.968,arm3_eps,2022.2.5,Win32,102.891244,5a2420437413810001521dd6,64c7fed44a04f777bb1e18ce,64c80146c2ffb5485957d9b7,right,1,0.75,0.1786,1,0.049444852,0.4256,,,,,,20,0,20,0,1,,,,,
,,642448,001,2023-07-31_20h44.02.968,arm3_eps,2022.2.5,Win32,102.891244,5a2420437413810001521dd6,64c7fed44a04f777bb1e18ce,64c80146c2ffb5485957d9b7,right,1,0.75,0.1786,1,0.031882218,0.605,,,,,,21,0,21,0,1,,,,,
,,642448,001,2023-07-31_20h44.02.968,arm3_eps,2022.2.5,Win32,102.891244,5a2420437413810001521dd6,64c7fed44a04f777bb1e18ce,64c80146c2ffb5485957d9b7,up,1,0.75,0.1786,2,0,0.5806,,,,,,22,0,22,0,1,,,,,
,,642448,001,2023-07-31_20h44.02.968,arm3_eps,2022.2.5,Win32,102.891244,5a2420437413810001521dd6,64c7fed44a04f777bb1e18ce,64c80146c2ffb5485957d9b7,right,1,0.75,0.1786,2,-0.013660327,0.8398,,,,,,23,0,23,0,1,,,,,
,,642448,001,2023-07-31_20h44.02.968,arm3_eps,2022.2.5,Win32,102.891244,5a2420437413810001521dd6,64c7fed44a04f777bb1e18ce,64c80146c2ffb5485957d9b7,right,1,0.75,0.1786,2,0.017726393,0.4259,,,,,,24,0,24,0,1,,,,,
,,642448,001,2023-07-31_20h44.02.968,arm3_eps,2022.2.5,Win32,102.891244,5a2420437413810001521dd6,64c7fed44a04f777bb1e18ce,64c80146c2ffb5485957d9b7,right,1,0.75,0.1786,2,-0.032398667,0.5062,,,,,,25,0,25,0,1,,,,,
,,642448,001,2023-07-31_20h44.02.968,arm3_eps,2022.2.5,Win32,102.891244,5a2420437413810001521dd6,64c7fed44a04f777bb1e18ce,64c80146c2ffb5485957d9b7,right,1,0.75,0.1786,2,-0.029664831,0.4299,,,,,,26,0,26,0,1,,,,,
,,642448,001,2023-07-31_20h44.02.968,arm3_eps,2022.2.5,Win32,102.891244,5a2420437413810001521dd6,64c7fed44a04f777bb1e18ce,64c80146c2ffb5485957d9b7,right,1,0.75,0.1786,2,-0.011151015,0.377,,,,,,27,0,27,0,1,,,,,
,,642448,001,2023-07-31_20h44.02.968,arm3_eps,2022.2.5,Win32,102.891244,5a2420437413810001521dd6,64c7fed44a04f777bb1e18ce,64c80146c2ffb5485957d9b7,right,1,0.75,0.1786,2,0.032245381,0.3251,,,,,,28,0,28,0,1,,,,,
,,642448,001,2023-07-31_20h44.02.968,arm3_eps,2022.2.5,Win32,102.891244,5a2420437413810001521dd6,64c7fed44a04f777bb1e18ce,64c80146c2ffb5485957d9b7,up,1,0.75,0.1786,3,0,0.6926,,,,,,29,0,29,0,1,,,,,
,,642448,001,2023-07-31_20h44.02.968,arm3_eps,2022.2.5,Win32,102.891244,5a2420437413810001521dd6,64c7fed44a04f777bb1e18ce,64c80146c2ffb5485957d9b7,right,1,0.75,0.1786,3,-0.019074209,0.7555,,,,,,30,0,30,0,1,,,,,
,,642448,001,2023-07-31_20h44.02.968,arm3_eps,2022.2.5,Win32,102.891244,5a2420437413810001521dd6,64c7fed44a04f777bb1e18ce,64c80146c2ffb5485957d9b7,right,1,0.75,0.1786,3,-0.016903304,0.34,,,,,,31,0,31,0,1,,,,,
,,642448,001,2023-07-31_20h44.02.968,arm3_eps,2022.2.5,Win32,102.891244,5a2420437413810001521dd6,64c7fed44a04f777bb1e18ce,64c80146c2ffb5485957d9b7,right,1,0.75,0.1786,3,-0.009760284,0.3503,,,,,,32,0,32,0,1,,,,,
,,642448,001,2023-07-31_20h44.02.968,arm3_eps,2022.2.5,Win32,102.891244,5a2420437413810001521dd6,64c7fed44a04f777bb1e18ce,64c80146c2ffb5485957d9b7,right,1,0.75,0.1786,3,-0.028663109,0.3862,,,,,,33,0,33,0,1,,,,,
,,642448,001,2023-07-31_20h44.02.968,arm3_eps,2022.2.5,Win32,102.891244,5a2420437413810001521dd6,64c7fed44a04f777bb1e18ce,64c80146c2ffb5485957d9b7,right,1,0.75,0.1786,3,-0.017449359,0.3807,,,,,,34,0,34,0,1,,,,,
,,642448,001,2023-07-31_20h44.02.968,arm3_eps,2022.2.5,Win32,102.891244,5a2420437413810001521dd6,64c7fed44a04f777bb1e18ce,64c80146c2ffb5485957d9b7,right,1,0.75,0.1786,3,-0.006825822,0.3877,,,,,,35,0,35,0,1,,,,,
,,642448,001,2023-07-31_20h44.02.968,arm3_eps,2022.2.5,Win32,102.891244,5a2420437413810001521dd6,64c7fed44a04f777bb1e18ce,64c80146c2ffb5485957d9b7,right,1,0.75,0.1786,3,0.001685002,0.3708,,,,,,36,0,36,0,1,,,,,
,,642448,001,2023-07-31_20h44.02.968,arm3_eps,2022.2.5,Win32,102.891244,5a2420437413810001521dd6,64c7fed44a04f777bb1e18ce,64c80146c2ffb5485957d9b7,right,1,0.75,0.1786,3,0.004526216,0.4083,,,,,,37,0,37,0,1,,,,,
,,642448,001,2023-07-31_20h44.02.968,arm3_eps,2022.2.5,Win32,102.891244,5a2420437413810001521dd6,64c7fed44a04f777bb1e18ce,64c80146c2ffb5485957d9b7,up,1,0.75,0.1786,3,0,0.4749,,,,,,38,0,38,0,1,,,,,
,,642448,001,2023-07-31_20h44.02.968,arm3_eps,2022.2.5,Win32,102.891244,5a2420437413810001521dd6,64c7fed44a04f777bb1e18ce,64c80146c2ffb5485957d9b7,right,1,0.75,0.1786,3,0.000179641,0.7718,,,,,,39,0,39,0,1,,,,,
,,642448,001,2023-07-31_20h44.02.968,arm3_eps,2022.2.5,Win32,102.891244,5a2420437413810001521dd6,64c7fed44a04f777bb1e18ce,64c80146c2ffb5485957d9b7,right,1,0.75,0.1786,3,0.001036611,0.3498,,,,,,40,0,40,0,1,,,,,
,,642448,001,2023-07-31_20h44.02.968,arm3_eps,2022.2.5,Win32,102.891244,5a2420437413810001521dd6,64c7fed44a04f777bb1e18ce,64c80146c2ffb5485957d9b7,right,1,0.75,0.1786,3,0.010780085,0.397,,,,,,41,0,41,0,1,,,,,
,,642448,001,2023-07-31_20h44.02.968,arm3_eps,2022.2.5,Win32,102.891244,5a2420437413810001521dd6,64c7fed44a04f777bb1e18ce,64c80146c2ffb5485957d9b7,right,1,0.75,0.1786,3,0.00848936,0.3931,,,,,,42,0,42,0,1,,,,,
,,642448,001,2023-07-31_20h44.02.968,arm3_eps,2022.2.5,Win32,102.891244,5a2420437413810001521dd6,64c7fed44a04f777bb1e18ce,64c80146c2ffb5485957d9b7,right,1,0.75,0.1786,3,0.041908651,0.4565,,,,,,43,0,43,0,1,,,,,
,,642448,001,2023-07-31_20h44.02.968,arm3_eps,2022.2.5,Win32,102.891244,5a2420437413810001521dd6,64c7fed44a04f777bb1e18ce,64c80146c2ffb5485957d9b7,right,1,0.75,0.1786,3,0.0135027,0.474,,,,,,44,0,44,0,1,,,,,
,,642448,001,2023-07-31_20h44.02.968,arm3_eps,2022.2.5,Win32,102.891244,5a2420437413810001521dd6,64c7fed44a04f777bb1e18ce,64c80146c2ffb5485957d9b7,right,1,0.75,0.1786,3,0.011700232,0.348,,,,,,45,0,45,0,1,,,,,
,,642448,001,2023-07-31_20h44.02.968,arm3_eps,2022.2.5,Win32,102.891244,5a2420437413810001521dd6,64c7fed44a04f777bb1e18ce,64c80146c2ffb5485957d9b7,up,1,0.75,0.1786,3,0,0.4392,,,,,,46,0,46,0,1,,,,,
,,642448,001,2023-07-31_20h44.02.968,arm3_eps,2022.2.5,Win32,102.891244,5a2420437413810001521dd6,64c7fed44a04f777bb1e18ce,64c80146c2ffb5485957d9b7,right,1,0.75,0.1786,3,0.022010785,0.6951,,,,,,47,0,47,0,1,,,,,
,,642448,001,2023-07-31_20h44.02.968,arm3_eps,2022.2.5,Win32,102.891244,5a2420437413810001521dd6,64c7fed44a04f777bb1e18ce,64c80146c2ffb5485957d9b7,right,1,0.75,0.1786,3,-0.012244597,0.2957,,,,,,48,0,48,0,1,,,,,
,,642448,001,2023-07-31_20h44.02.968,arm3_eps,2022.2.5,Win32,102.891244,5a2420437413810001521dd6,64c7fed44a04f777bb1e18ce,64c80146c2ffb5485957d9b7,right,1,0.75,0.1786,3,0.000836852,0.3324,,,,,,49,0,49,0,1,,,,,
,,642448,001,2023-07-31_20h44.02.968,arm3_eps,2022.2.5,Win32,102.891244,5a2420437413810001521dd6,64c7fed44a04f777bb1e18ce,64c80146c2ffb5485957d9b7,right,1,0.75,0.1786,3,0.021197203,0.3417,,,,,,50,0,50,0,1,,,,,
,,642448,001,2023-07-31_20h44.02.968,arm3_eps,2022.2.5,Win32,102.891244,5a2420437413810001521dd6,64c7fed44a04f777bb1e18ce,64c80146c2ffb5485957d9b7,right,1,0.75,0.1786,3,0.018267061,0.2625,,,,,,51,0,51,0,1,,,,,
,,642448,001,2023-07-31_20h44.02.968,arm3_eps,2022.2.5,Win32,102.891244,5a2420437413810001521dd6,64c7fed44a04f777bb1e18ce,64c80146c2ffb5485957d9b7,right,1,0.75,0.1786,3,0.026846044,0.3499,,,,,,52,0,52,0,1,,,,,
,,642448,001,2023-07-31_20h44.02.968,arm3_eps,2022.2.5,Win32,102.891244,5a2420437413810001521dd6,64c7fed44a04f777bb1e18ce,64c80146c2ffb5485957d9b7,right,1,0.75,0.1786,3,0.017907739,0.387,,,,,,53,0,53,0,1,,,,,
,,642448,001,2023-07-31_20h44.02.968,arm3_eps,2022.2.5,Win32,102.891244,5a2420437413810001521dd6,64c7fed44a04f777bb1e18ce,64c80146c2ffb5485957d9b7,up,1,0.75,0.1786,4,0,0.494,,,,,,54,0,54,0,1,,,,,
,,642448,001,2023-07-31_20h44.02.968,arm3_eps,2022.2.5,Win32,102.891244,5a2420437413810001521dd6,64c7fed44a04f777bb1e18ce,64c80146c2ffb5485957d9b7,right,1,0.75,0.1786,4,-0.008482807,0.7054,,,,,,55,0,55,0,1,,,,,
,,642448,001,2023-07-31_20h44.02.968,arm3_eps,2022.2.5,Win32,102.891244,5a2420437413810001521dd6,64c7fed44a04f777bb1e18ce,64c80146c2ffb5485957d9b7,right,1,0.75,0.1786,4,0.017610983,0.339,,,,,,56,0,56,0,1,,,,,
,,642448,001,2023-07-31_20h44.02.968,arm3_eps,2022.2.5,Win32,102.891244,5a2420437413810001521dd6,64c7fed44a04f777bb1e18ce,64c80146c2ffb5485957d9b7,right,1,0.75,0.1786,4,0.031786054,0.304,,,,,,57,0,57,0,1,,,,,
,,642448,001,2023-07-31_20h44.02.968,arm3_eps,2022.2.5,Win32,102.891244,5a2420437413810001521dd6,64c7fed44a04f777bb1e18ce,64c80146c2ffb5485957d9b7,up,1,0.75,0.1786,4,0,0.9264,,,,,,58,0,58,0,1,,,,,
,,642448,001,2023-07-31_20h44.02.968,arm3_eps,2022.2.5,Win32,102.891244,5a2420437413810001521dd6,64c7fed44a04f777bb1e18ce,64c80146c2ffb5485957d9b7,right,1,0.75,0.1786,4,0.027567053,0.7138,,,,,,59,0,59,0,1,,,,,
,,642448,001,2023-07-31_20h44.02.968,arm3_eps,2022.2.5,Win32,102.891244,5a2420437413810001521dd6,64c7fed44a04f777bb1e18ce,64c80146c2ffb5485957d9b7,up,1,0.75,0.1786,5,0,0.8764,,,,,,60,0,60,0,1,,,,,
,,642448,001,2023-07-31_20h44.02.968,arm3_eps,2022.2.5,Win32,102.891244,5a2420437413810001521dd6,64c7fed44a04f777bb1e18ce,64c80146c2ffb5485957d9b7,right,1,0.75,0.1786,5,0.000456791,0.8208,,,,,,61,0,61,0,1,,,,,
,,642448,001,2023-07-31_20h44.02.968,arm3_eps,2022.2.5,Win32,102.891244,5a2420437413810001521dd6,64c7fed44a04f777bb1e18ce,64c80146c2ffb5485957d9b7,right,1,0.75,0.1786,5,-0.003313447,0.6783,,,,,,62,0,62,0,1,,,,,
,,642448,001,2023-07-31_20h44.02.968,arm3_eps,2022.2.5,Win32,102.891244,5a2420437413810001521dd6,64c7fed44a04f777bb1e18ce,64c80146c2ffb5485957d9b7,right,1,0.75,0.1786,5,0.0234551,0.3686,,,,,,63,0,63,0,1,,,,,
,,642448,001,2023-07-31_20h44.02.968,arm3_eps,2022.2.5,Win32,102.891244,5a2420437413810001521dd6,64c7fed44a04f777bb1e18ce,64c80146c2ffb5485957d9b7,up,-1,0.75,0.1786,6,0,0.4851,,,,,,64,0,64,0,1,,,,,
,,642448,001,2023-07-31_20h44.02.968,arm3_eps,2022.2.5,Win32,102.891244,5a2420437413810001521dd6,64c7fed44a04f777bb1e18ce,64c80146c2ffb5485957d9b7,right,-1,0.75,0.1786,6,0.00132597,0.8293,,,,,,65,0,65,0,1,,,,,
,,642448,001,2023-07-31_20h44.02.968,arm3_eps,2022.2.5,Win32,102.891244,5a2420437413810001521dd6,64c7fed44a04f777bb1e18ce,64c80146c2ffb5485957d9b7,right,-1,0.75,0.1786,6,-0.018890208,0.4164,,,,,,66,0,66,0,1,,,,,
,,642448,001,2023-07-31_20h44.02.968,arm3_eps,2022.2.5,Win32,102.891244,5a2420437413810001521dd6,64c7fed44a04f777bb1e18ce,64c80146c2ffb5485957d9b7,right,-1,0.75,0.1786,6,-0.015462388,0.372,,,,,,67,0,67,0,1,,,,,
,,642448,001,2023-07-31_20h44.02.968,arm3_eps,2022.2.5,Win32,102.891244,5a2420437413810001521dd6,64c7fed44a04f777bb1e18ce,64c80146c2ffb5485957d9b7,right,-1,0.75,0.1786,6,-0.019256931,0.2745,,,,,,68,0,68,0,1,,,,,
,,642448,001,2023-07-31_20h44.02.968,arm3_eps,2022.2.5,Win32,102.891244,5a2420437413810001521dd6,64c7fed44a04f777bb1e18ce,64c80146c2ffb5485957d9b7,right,-1,0.75,0.1786,6,-0.017903448,0.4312,,,,,,69,0,69,0,1,,,,,
,,642448,001,2023-07-31_20h44.02.968,arm3_eps,2022.2.5,Win32,102.891244,5a2420437413810001521dd6,64c7fed44a04f777bb1e18ce,64c80146c2ffb5485957d9b7,right,-1,0.75,0.1786,6,-0.049322832,0.3101,,,,,,70,0,70,0,1,,,,,
,,642448,001,2023-07-31_20h44.02.968,arm3_eps,2022.2.5,Win32,102.891244,5a2420437413810001521dd6,64c7fed44a04f777bb1e18ce,64c80146c2ffb5485957d9b7,right,-1,0.75,0.1786,6,-0.069674382,0.349,,,,,,71,0,71,0,1,,,,,
,,642448,001,2023-07-31_20h44.02.968,arm3_eps,2022.2.5,Win32,102.891244,5a2420437413810001521dd6,64c7fed44a04f777bb1e18ce,64c80146c2ffb5485957d9b7,right,-1,0.75,0.1786,6,-0.085547194,0.3503,,,,,,72,0,72,0,1,,,,,
,,642448,001,2023-07-31_20h44.02.968,arm3_eps,2022.2.5,Win32,102.891244,5a2420437413810001521dd6,64c7fed44a04f777bb1e18ce,64c80146c2ffb5485957d9b7,right,-1,0.75,0.1786,6,-0.085850876,0.3961,,,,,,73,0,73,0,1,,,,,
,,642448,001,2023-07-31_20h44.02.968,arm3_eps,2022.2.5,Win32,102.891244,5a2420437413810001521dd6,64c7fed44a04f777bb1e18ce,64c80146c2ffb5485957d9b7,right,-1,0.75,0.1786,6,-0.108934532,0.3492,,,,,,74,0,74,0,1,,,,,
,,642448,001,2023-07-31_20h44.02.968,arm3_eps,2022.2.5,Win32,102.891244,5a2420437413810001521dd6,64c7fed44a04f777bb1e18ce,64c80146c2ffb5485957d9b7,down,-1,0.75,0.1786,6,0,0.5625,,,,,,75,0,75,0,1,,,,,
,,642448,001,2023-07-31_20h44.02.968,arm3_eps,2022.2.5,Win32,102.891244,5a2420437413810001521dd6,64c7fed44a04f777bb1e18ce,64c80146c2ffb5485957d9b7,right,-1,0.75,0.1786,6,0.010222028,0.743,,,,,,76,0,76,0,1,,,,,
,,642448,001,2023-07-31_20h44.02.968,arm3_eps,2022.2.5,Win32,102.891244,5a2420437413810001521dd6,64c7fed44a04f777bb1e18ce,64c80146c2ffb5485957d9b7,right,-1,0.75,0.1786,6,0.024159972,0.3479,,,,,,77,0,77,0,1,,,,,
,,642448,001,2023-07-31_20h44.02.968,arm3_eps,2022.2.5,Win32,102.891244,5a2420437413810001521dd6,64c7fed44a04f777bb1e18ce,64c80146c2ffb5485957d9b7,right,-1,0.75,0.1786,6,0.008143708,0.257,,,,,,78,0,78,0,1,,,,,
,,642448,001,2023-07-31_20h44.02.968,arm3_eps,2022.2.5,Win32,102.891244,5a2420437413810001521dd6,64c7fed44a04f777bb1e18ce,64c80146c2ffb5485957d9b7,right,-1,0.75,0.1786,6,0.014983045,0.3878,,,,,,79,0,79,0,1,,,,,
,,642448,001,2023-07-31_20h44.02.968,arm3_eps,2022.2.5,Win32,102.891244,5a2420437413810001521dd6,64c7fed44a04f777bb1e18ce,64c80146c2ffb5485957d9b7,right,-1,0.75,0.1786,6,-0.001299933,0.3616,,,,,,80,0,80,0,1,,,,,
,,642448,001,2023-07-31_20h44.02.968,arm3_eps,2022.2.5,Win32,102.891244,5a2420437413810001521dd6,64c7fed44a04f777bb1e18ce,64c80146c2ffb5485957d9b7,right,-1,0.75,0.1786,6,-0.017381189,0.3642,,,,,,81,0,81,0,1,,,,,
,,642448,001,2023-07-31_20h44.02.968,arm3_eps,2022.2.5,Win32,102.891244,5a2420437413810001521dd6,64c7fed44a04f777bb1e18ce,64c80146c2ffb5485957d9b7,right,-1,0.75,0.1786,6,-0.047085222,0.3103,,,,,,82,0,82,0,1,,,,,
,,642448,001,2023-07-31_20h44.02.968,arm3_eps,2022.2.5,Win32,102.891244,5a2420437413810001521dd6,64c7fed44a04f777bb1e18ce,64c80146c2ffb5485957d9b7,right,-1,0.75,0.1786,6,-0.039640184,0.3499,,,,,,83,0,83,0,1,,,,,
,,642448,001,2023-07-31_20h44.02.968,arm3_eps,2022.2.5,Win32,102.891244,5a2420437413810001521dd6,64c7fed44a04f777bb1e18ce,64c80146c2ffb5485957d9b7,right,-1,0.75,0.1786,6,-0.049183784,0.4067,,,,,,84,0,84,0,1,,,,,
,,642448,001,2023-07-31_20h44.02.968,arm3_eps,2022.2.5,Win32,102.891244,5a2420437413810001521dd6,64c7fed44a04f777bb1e18ce,64c80146c2ffb5485957d9b7,right,-1,0.75,0.1786,6,-0.056698166,0.3044,,,,,,85,0,85,0,1,,,,,
,,642448,001,2023-07-31_20h44.02.968,arm3_eps,2022.2.5,Win32,102.891244,5a2420437413810001521dd6,64c7fed44a04f777bb1e18ce,64c80146c2ffb5485957d9b7,down,-1,0.75,0.1786,7,0,0.5557,,,,,,86,0,86,0,1,,,,,
,,642448,001,2023-07-31_20h44.02.968,arm3_eps,2022.2.5,Win32,102.891244,5a2420437413810001521dd6,64c7fed44a04f777bb1e18ce,64c80146c2ffb5485957d9b7,right,-1,0.75,0.1786,7,-0.0284876,0.7318,,,,,,87,0,87,0,1,,,,,
,,642448,001,2023-07-31_20h44.02.968,arm3_eps,2022.2.5,Win32,102.891244,5a2420437413810001521dd6,64c7fed44a04f777bb1e18ce,64c80146c2ffb5485957d9b7,right,-1,0.75,0.1786,7,-0.010437455,0.393,,,,,,88,0,88,0,1,,,,,
,,642448,001,2023-07-31_20h44.02.968,arm3_eps,2022.2.5,Win32,102.891244,5a2420437413810001521dd6,64c7fed44a04f777bb1e18ce,64c80146c2ffb5485957d9b7,right,-1,0.75,0.1786,7,0.007166537,0.3212,,,,,,89,0,89,0,1,,,,,
,,642448,001,2023-07-31_20h44.02.968,arm3_eps,2022.2.5,Win32,102.891244,5a2420437413810001521dd6,64c7fed44a04f777bb1e18ce,64c80146c2ffb5485957d9b7,right,-1,0.75,0.1786,7,-0.012751615,0.33,,,,,,90,0,90,0,1,,,,,
,,642448,001,2023-07-31_20h44.02.968,arm3_eps,2022.2.5,Win32,102.891244,5a2420437413810001521dd6,64c7fed44a04f777bb1e18ce,64c80146c2ffb5485957d9b7,right,-1,0.75,0.1786,7,-0.018925688,0.3294,,,,,,91,0,91,0,1,,,,,
,,642448,001,2023-07-31_20h44.02.968,arm3_eps,2022.2.5,Win32,102.891244,5a2420437413810001521dd6,64c7fed44a04f777bb1e18ce,64c80146c2ffb5485957d9b7,right,-1,0.75,0.1786,7,-0.031440111,0.4169,,,,,,92,0,92,0,1,,,,,
,,642448,001,2023-07-31_20h44.02.968,arm3_eps,2022.2.5,Win32,102.891244,5a2420437413810001521dd6,64c7fed44a04f777bb1e18ce,64c80146c2ffb5485957d9b7,down,1,0.75,0.1786,8,0,0.2342,,,,,,93,0,93,0,1,,,,,
,,642448,001,2023-07-31_20h44.02.968,arm3_eps,2022.2.5,Win32,102.891244,5a2420437413810001521dd6,64c7fed44a04f777bb1e18ce,64c80146c2ffb5485957d9b7,right,1,0.75,0.1786,8,-0.014377791,0.8084,,,,,,94,0,94,0,1,,,,,
,,642448,001,2023-07-31_20h44.02.968,arm3_eps,2022.2.5,Win32,102.891244,5a2420437413810001521dd6,64c7fed44a04f777bb1e18ce,64c80146c2ffb5485957d9b7,right,1,0.75,0.1786,8,-0.003227705,0.2809,,,,,,95,0,95,0,1,,,,,
,,642448,001,2023-07-31_20h44.02.968,arm3_eps,2022.2.5,Win32,102.891244,5a2420437413810001521dd6,64c7fed44a04f777bb1e18ce,64c80146c2ffb5485957d9b7,right,1,0.75,0.1786,8,0.008283399,0.261,,,,,,96,0,96,0,1,,,,,
,,642448,001,2023-07-31_20h44.02.968,arm3_eps,2022.2.5,Win32,102.891244,5a2420437413810001521dd6,64c7fed44a04f777bb1e18ce,64c80146c2ffb5485957d9b7,right,1,0.75,0.1786,8,0.022658041,0.3483,,,,,,97,0,97,0,1,,,,,
,,642448,001,2023-07-31_20h44.02.968,arm3_eps,2022.2.5,Win32,102.891244,5a2420437413810001521dd6,64c7fed44a04f777bb1e18ce,64c80146c2ffb5485957d9b7,right,1,0.75,0.1786,8,0.02132291,0.2913,,,,,,98,0,98,0,1,,,,,
,,642448,001,2023-07-31_20h44.02.968,arm3_eps,2022.2.5,Win32,102.891244,5a2420437413810001521dd6,64c7fed44a04f777bb1e18ce,64c80146c2ffb5485957d9b7,right,1,0.75,0.1786,8,0.012280289,0.3056,,,,,,99,0,99,0,1,,,,,
,,642448,001,2023-07-31_20h44.02.968,arm3_eps,2022.2.5,Win32,102.891244,5a2420437413810001521dd6,64c7fed44a04f777bb1e18ce,64c80146c2ffb5485957d9b7,right,1,0.75,0.1786,8,0.001174482,0.2643,,,,,,100,0,100,0,1,,,,,
,,642448,001,2023-07-31_20h44.02.968,arm3_eps,2022.2.5,Win32,102.891244,5a2420437413810001521dd6,64c7fed44a04f777bb1e18ce,64c80146c2ffb5485957d9b7,right,1,0.75,0.1786,8,0.024902247,0.2179,,,,,,101,0,101,0,1,,,,,
,,642448,001,2023-07-31_20h44.02.968,arm3_eps,2022.2.5,Win32,102.891244,5a2420437413810001521dd6,64c7fed44a04f777bb1e18ce,64c80146c2ffb5485957d9b7,right,1,0.75,0.1786,8,-0.007270175,0.4365,,,,,,102,0,102,0,1,,,,,
,,642448,001,2023-07-31_20h44.02.968,arm3_eps,2022.2.5,Win32,102.891244,5a2420437413810001521dd6,64c7fed44a04f777bb1e18ce,64c80146c2ffb5485957d9b7,right,1,0.75,0.1786,8,0.001362138,0.359,,,,,,103,0,103,0,1,,,,,
,,642448,001,2023-07-31_20h44.02.968,arm3_eps,2022.2.5,Win32,102.891244,5a2420437413810001521dd6,64c7fed44a04f777bb1e18ce,64c80146c2ffb5485957d9b7,right,1,0.75,0.1786,8,0.019928775,0.4172,,,,,,104,0,104,0,1,,,,,
,,642448,001,2023-07-31_20h44.02.968,arm3_eps,2022.2.5,Win32,102.891244,5a2420437413810001521dd6,64c7fed44a04f777bb1e18ce,64c80146c2ffb5485957d9b7,right,1,0.75,0.1786,8,0.013927776,0.428,,,,,,105,0,105,0,1,,,,,
,,642448,001,2023-07-31_20h44.02.968,arm3_eps,2022.2.5,Win32,102.891244,5a2420437413810001521dd6,64c7fed44a04f777bb1e18ce,64c80146c2ffb5485957d9b7,up,1,0.75,0.1786,9,0,1.5546,,,,,,106,0,106,0,1,,,,,
,,642448,001,2023-07-31_20h44.02.968,arm3_eps,2022.2.5,Win32,102.891244,5a2420437413810001521dd6,64c7fed44a04f777bb1e18ce,64c80146c2ffb5485957d9b7,right,1,0.75,0.1786,9,0.003558662,0.7965,,,,,,107,0,107,0,1,,,,,
,,642448,001,2023-07-31_20h44.02.968,arm3_eps,2022.2.5,Win32,102.891244,5a2420437413810001521dd6,64c7fed44a04f777bb1e18ce,64c80146c2ffb5485957d9b7,right,1,0.75,0.1786,9,-0.011073698,0.3442,,,,,,108,0,108,0,1,,,,,
,,642448,001,2023-07-31_20h44.02.968,arm3_eps,2022.2.5,Win32,102.891244,5a2420437413810001521dd6,64c7fed44a04f777bb1e18ce,64c80146c2ffb5485957d9b7,right,1,0.75,0.1786,9,0.01085956,0.3328,,,,,,109,0,109,0,1,,,,,
,,642448,001,2023-07-31_20h44.02.968,arm3_eps,2022.2.5,Win32,102.891244,5a2420437413810001521dd6,64c7fed44a04f777bb1e18ce,64c80146c2ffb5485957d9b7,right,1,0.75,0.1786,9,0.024122936,0.3635,,,,,,110,0,110,0,1,,,,,
,,642448,001,2023-07-31_20h44.02.968,arm3_eps,2022.2.5,Win32,102.891244,5a2420437413810001521dd6,64c7fed44a04f777bb1e18ce,64c80146c2ffb5485957d9b7,right,1,0.75,0.1786,9,0.032088589,0.2998,,,,,,111,0,111,0,1,,,,,
,,642448,001,2023-07-31_20h44.02.968,arm3_eps,2022.2.5,Win32,102.891244,5a2420437413810001521dd6,64c7fed44a04f777bb1e18ce,64c80146c2ffb5485957d9b7,right,1,0.75,0.1786,9,0.040165127,0.3485,,,,,,112,0,112,0,1,,,,,
,,642448,001,2023-07-31_20h44.02.968,arm3_eps,2022.2.5,Win32,102.891244,5a2420437413810001521dd6,64c7fed44a04f777bb1e18ce,64c80146c2ffb5485957d9b7,up,1,0.75,0.1786,10,0,0.4758,,,,,,113,0,113,0,1,,,,,
,,642448,001,2023-07-31_20h44.02.968,arm3_eps,2022.2.5,Win32,102.891244,5a2420437413810001521dd6,64c7fed44a04f777bb1e18ce,64c80146c2ffb5485957d9b7,right,1,0.75,0.1786,10,-0.00762834,0.93,,,,,,114,0,114,0,1,,,,,
,,642448,001,2023-07-31_20h44.02.968,arm3_eps,2022.2.5,Win32,102.891244,5a2420437413810001521dd6,64c7fed44a04f777bb1e18ce,64c80146c2ffb5485957d9b7,right,1,0.75,0.1786,10,0.012189994,0.2541,,,,,,115,0,115,0,1,,,,,
,,642448,001,2023-07-31_20h44.02.968,arm3_eps,2022.2.5,Win32,102.891244,5a2420437413810001521dd6,64c7fed44a04f777bb1e18ce,64c80146c2ffb5485957d9b7,right,1,0.75,0.1786,10,0.016225796,0.235,,,,,,116,0,116,0,1,,,,,
,,642448,001,2023-07-31_20h44.02.968,arm3_eps,2022.2.5,Win32,102.891244,5a2420437413810001521dd6,64c7fed44a04f777bb1e18ce,64c80146c2ffb5485957d9b7,right,1,0.75,0.1786,10,0.057041394,0.3523,,,,,,117,0,117,0,1,,,,,
,,642448,001,2023-07-31_20h44.02.968,arm3_eps,2022.2.5,Win32,102.891244,5a2420437413810001521dd6,64c7fed44a04f777bb1e18ce,64c80146c2ffb5485957d9b7,up,1,0.75,0.1786,11,0,0.3871,,,,,,118,0,118,0,1,,,,,
,,642448,001,2023-07-31_20h44.02.968,arm3_eps,2022.2.5,Win32,102.891244,5a2420437413810001521dd6,64c7fed44a04f777bb1e18ce,64c80146c2ffb5485957d9b7,right,1,0.75,0.1786,11,0.01910402,0.7277,,,,,,119,0,119,0,1,,,,,
,,642448,001,2023-07-31_20h44.02.968,arm3_eps,2022.2.5,Win32,102.891244,5a2420437413810001521dd6,64c7fed44a04f777bb1e18ce,64c80146c2ffb5485957d9b7,right,1,0.75,0.1786,11,0.029854713,0.3425,,,,,,120,0,120,0,1,,,,,
,,642448,001,2023-07-31_20h44.02.968,arm3_eps,2022.2.5,Win32,102.891244,5a2420437413810001521dd6,64c7fed44a04f777bb1e18ce,64c80146c2ffb5485957d9b7,right,1,0.75,0.1786,11,0.0467151,0.4092,,,,,,121,0,121,0,1,,,,,
,,642448,001,2023-07-31_20h44.02.968,arm3_eps,2022.2.5,Win32,102.891244,5a2420437413810001521dd6,64c7fed44a04f777bb1e18ce,64c80146c2ffb5485957d9b7,up,1,0.75,0.1786,12,0,0.3512,,,,,,122,0,122,0,1,,,,,
,,642448,001,2023-07-31_20h44.02.968,arm3_eps,2022.2.5,Win32,102.891244,5a2420437413810001521dd6,64c7fed44a04f777bb1e18ce,64c80146c2ffb5485957d9b7,right,1,0.75,0.1786,12,-0.000355615,0.8778,,,,,,123,0,123,0,1,,,,,
,,642448,001,2023-07-31_20h44.02.968,arm3_eps,2022.2.5,Win32,102.891244,5a2420437413810001521dd6,64c7fed44a04f777bb1e18ce,64c80146c2ffb5485957d9b7,right,1,0.75,0.1786,12,-0.003743375,0.2128,,,,,,124,0,124,0,1,,,,,
,,642448,001,2023-07-31_20h44.02.968,arm3_eps,2022.2.5,Win32,102.891244,5a2420437413810001521dd6,64c7fed44a04f777bb1e18ce,64c80146c2ffb5485957d9b7,right,1,0.75,0.1786,12,-0.005946326,0.3286,,,,,,125,0,125,0,1,,,,,
,,642448,001,2023-07-31_20h44.02.968,arm3_eps,2022.2.5,Win32,102.891244,5a2420437413810001521dd6,64c7fed44a04f777bb1e18ce,64c80146c2ffb5485957d9b7,right,1,0.75,0.1786,12,0.021869208,0.3476,,,,,,126,0,126,0,1,,,,,
,,642448,001,2023-07-31_20h44.02.968,arm3_eps,2022.2.5,Win32,102.891244,5a2420437413810001521dd6,64c7fed44a04f777bb1e18ce,64c80146c2ffb5485957d9b7,right,1,0.75,0.1786,12,0.020679005,0.3146,,,,,,127,0,127,0,1,,,,,
,,642448,001,2023-07-31_20h44.02.968,arm3_eps,2022.2.5,Win32,102.891244,5a2420437413810001521dd6,64c7fed44a04f777bb1e18ce,64c80146c2ffb5485957d9b7,right,1,0.75,0.1786,12,-0.012236211,0.3873,,,,,,128,0,128,0,1,,,,,
,,642448,001,2023-07-31_20h44.02.968,arm3_eps,2022.2.5,Win32,102.891244,5a2420437413810001521dd6,64c7fed44a04f777bb1e18ce,64c80146c2ffb5485957d9b7,right,1,0.75,0.1786,12,0.007465684,0.3719,,,,,,129,0,129,0,1,,,,,
,,642448,001,2023-07-31_20h44.02.968,arm3_eps,2022.2.5,Win32,102.891244,5a2420437413810001521dd6,64c7fed44a04f777bb1e18ce,64c80146c2ffb5485957d9b7,right,1,0.75,0.1786,12,0.018345529,0.3427,,,,,,130,0,130,0,1,,,,,
,,642448,001,2023-07-31_20h44.02.968,arm3_eps,2022.2.5,Win32,102.891244,5a2420437413810001521dd6,64c7fed44a04f777bb1e18ce,64c80146c2ffb5485957d9b7,right,1,0.75,0.1786,12,0.021803518,0.3638,,,,,,131,0,131,0,1,,,,,
,,642448,001,2023-07-31_20h44.02.968,arm3_eps,2022.2.5,Win32,102.891244,5a2420437413810001521dd6,64c7fed44a04f777bb1e18ce,64c80146c2ffb5485957d9b7,right,1,0.75,0.1786,12,0.030463796,0.4003,,,,,,132,0,132,0,1,,,,,
,,642448,001,2023-07-31_20h44.02.968,arm3_eps,2022.2.5,Win32,102.891244,5a2420437413810001521dd6,64c7fed44a04f777bb1e18ce,64c80146c2ffb5485957d9b7,up,1,0.75,0.1786,12,0,0.3972,,,,,,133,0,133,0,1,,,,,
,,642448,001,2023-07-31_20h44.02.968,arm3_eps,2022.2.5,Win32,102.891244,5a2420437413810001521dd6,64c7fed44a04f777bb1e18ce,64c80146c2ffb5485957d9b7,right,1,0.75,0.1786,12,0.017190673,0.7843,,,,,,134,0,134,0,1,,,,,
,,642448,001,2023-07-31_20h44.02.968,arm3_eps,2022.2.5,Win32,102.891244,5a2420437413810001521dd6,64c7fed44a04f777bb1e18ce,64c80146c2ffb5485957d9b7,right,1,0.75,0.1786,12,0.005084028,0.2167,,,,,,135,0,135,0,1,,,,,
,,642448,001,2023-07-31_20h44.02.968,arm3_eps,2022.2.5,Win32,102.891244,5a2420437413810001521dd6,64c7fed44a04f777bb1e18ce,64c80146c2ffb5485957d9b7,right,1,0.75,0.1786,12,0.032093553,0.3143,,,,,,136,0,136,0,1,,,,,
,,642448,001,2023-07-31_20h44.02.968,arm3_eps,2022.2.5,Win32,102.891244,5a2420437413810001521dd6,64c7fed44a04f777bb1e18ce,64c80146c2ffb5485957d9b7,right,1,0.75,0.1786,12,0.05734236,0.3086,,,,,,137,0,137,0,1,,,,,
,,642448,001,2023-07-31_20h44.02.968,arm3_eps,2022.2.5,Win32,102.891244,5a2420437413810001521dd6,64c7fed44a04f777bb1e18ce,64c80146c2ffb5485957d9b7,up,1,0.75,0.1786,13,0,0.5812,,,,,,138,0,138,0,1,,,,,
,,642448,001,2023-07-31_20h44.02.968,arm3_eps,2022.2.5,Win32,102.891244,5a2420437413810001521dd6,64c7fed44a04f777bb1e18ce,64c80146c2ffb5485957d9b7,right,1,0.75,0.1786,13,0.023824974,0.7359,,,,,,139,0,139,0,1,,,,,
,,642448,001,2023-07-31_20h44.02.968,arm3_eps,2022.2.5,Win32,102.891244,5a2420437413810001521dd6,64c7fed44a04f777bb1e18ce,64c80146c2ffb5485957d9b7,right,1,0.75,0.1786,13,0.000258371,0.2734,,,,,,140,0,140,0,1,,,,,
,,642448,001,2023-07-31_20h44.02.968,arm3_eps,2022.2.5,Win32,102.891244,5a2420437413810001521dd6,64c7fed44a04f777bb1e18ce,64c80146c2ffb5485957d9b7,right,1,0.75,0.1786,13,0.017705569,0.3086,,,,,,141,0,141,0,1,,,,,
,,642448,001,2023-07-31_20h44.02.968,arm3_eps,2022.2.5,Win32,102.891244,5a2420437413810001521dd6,64c7fed44a04f777bb1e18ce,64c80146c2ffb5485957d9b7,right,1,0.75,0.1786,13,0.024265958,0.349,,,,,,142,0,142,0,1,,,,,
,,642448,001,2023-07-31_20h44.02.968,arm3_eps,2022.2.5,Win32,102.891244,5a2420437413810001521dd6,64c7fed44a04f777bb1e18ce,64c80146c2ffb5485957d9b7,right,1,0.75,0.1786,13,0.036995996,0.3821,,,,,,143,0,143,0,1,,,,,
,,642448,001,2023-07-31_20h44.02.968,arm3_eps,2022.2.5,Win32,102.891244,5a2420437413810001521dd6,64c7fed44a04f777bb1e18ce,64c80146c2ffb5485957d9b7,up,1,0.75,0.1786,14,0,0.5819,,,,,,144,0,144,0,1,,,,,
,,642448,001,2023-07-31_20h44.02.968,arm3_eps,2022.2.5,Win32,102.891244,5a2420437413810001521dd6,64c7fed44a04f777bb1e18ce,64c80146c2ffb5485957d9b7,right,1,0.75,0.1786,14,0.024331347,0.7028,,,,,,145,0,145,0,1,,,,,
,,642448,001,2023-07-31_20h44.02.968,arm3_eps,2022.2.5,Win32,102.891244,5a2420437413810001521dd6,64c7fed44a04f777bb1e18ce,64c80146c2ffb5485957d9b7,right,1,0.75,0.1786,14,0.049716547,0.4071,,,,,,146,0,146,0,1,,,,,
,,642448,001,2023-07-31_20h44.02.968,arm3_eps,2022.2.5,Win32,102.891244,5a2420437413810001521dd6,64c7fed44a04f777bb1e18ce,64c80146c2ffb5485957d9b7,up,1,0.75,0.1786,15,0,0.6166,,,,,,147,0,147,0,1,,,,,
,,642448,001,2023-07-31_20h44.02.968,arm3_eps,2022.2.5,Win32,102.891244,5a2420437413810001521dd6,64c7fed44a04f777bb1e18ce,64c80146c2ffb5485957d9b7,right,1,0.75,0.1786,15,0.008566852,0.7226,,,,,,148,0,148,0,1,,,,,
,,642448,001,2023-07-31_20h44.02.968,arm3_eps,2022.2.5,Win32,102.891244,5a2420437413810001521dd6,64c7fed44a04f777bb1e18ce,64c80146c2ffb5485957d9b7,right,1,0.75,0.1786,15,-0.005685083,0.3386,,,,,,149,0,149,0,1,,,,,
,,642448,001,2023-07-31_20h44.02.968,arm3_eps,2022.2.5,Win32,102.891244,5a2420437413810001521dd6,64c7fed44a04f777bb1e18ce,64c80146c2ffb5485957d9b7,right,1,0.75,0.1786,15,0.026153413,0.3587,,,,,,150,0,150,0,1,,,,,
,,642448,001,2023-07-31_20h44.02.968,arm3_eps,2022.2.5,Win32,102.891244,5a2420437413810001521dd6,64c7fed44a04f777bb1e18ce,64c80146c2ffb5485957d9b7,right,1,0.75,0.1786,15,0.026679443,0.3727,,,,,,151,0,151,0,1,,,,,
,,642448,001,2023-07-31_20h44.02.968,arm3_eps,2022.2.5,Win32,102.891244,5a2420437413810001521dd6,64c7fed44a04f777bb1e18ce,64c80146c2ffb5485957d9b7,right,1,0.75,0.1786,15,0.041625809,0.466,,,,,,152,0,152,0,1,,,,,
,,642448,001,2023-07-31_20h44.02.968,arm3_eps,2022.2.5,Win32,102.891244,5a2420437413810001521dd6,64c7fed44a04f777bb1e18ce,64c80146c2ffb5485957d9b7,up,1,0.75,0.1786,16,0,0.2503,,,,,,153,0,153,0,1,,,,,
,,642448,001,2023-07-31_20h44.02.968,arm3_eps,2022.2.5,Win32,102.891244,5a2420437413810001521dd6,64c7fed44a04f777bb1e18ce,64c80146c2ffb5485957d9b7,right,1,0.75,0.1786,16,0.033088189,0.7637,,,,,,154,0,154,0,1,,,,,
,,642448,001,2023-07-31_20h44.02.968,arm3_eps,2022.2.5,Win32,102.891244,5a2420437413810001521dd6,64c7fed44a04f777bb1e18ce,64c80146c2ffb5485957d9b7,right,1,0.75,0.1786,16,0.037945255,0.3488,,,,,,155,0,155,0,1,,,,,
,,642448,001,2023-07-31_20h44.02.968,arm3_eps,2022.2.5,Win32,102.891244,5a2420437413810001521dd6,64c7fed44a04f777bb1e18ce,64c80146c2ffb5485957d9b7,right,1,0.75,0.1786,16,0.056562019,0.3395,,,,,,156,0,156,0,1,,,,,
,,642448,001,2023-07-31_20h44.02.968,arm3_eps,2022.2.5,Win32,102.891244,5a2420437413810001521dd6,64c7fed44a04f777bb1e18ce,64c80146c2ffb5485957d9b7,up,-1,0.75,0.1786,17,0,0.3802,,,,,,157,0,157,0,1,,,,,
,,642448,001,2023-07-31_20h44.02.968,arm3_eps,2022.2.5,Win32,102.891244,5a2420437413810001521dd6,64c7fed44a04f777bb1e18ce,64c80146c2ffb5485957d9b7,right,-1,0.75,0.1786,17,0.001493409,0.8881,,,,,,158,0,158,0,1,,,,,
,,642448,001,2023-07-31_20h44.02.968,arm3_eps,2022.2.5,Win32,102.891244,5a2420437413810001521dd6,64c7fed44a04f777bb1e18ce,64c80146c2ffb5485957d9b7,right,-1,0.75,0.1786,17,-0.021902483,0.1693,,,,,,159,0,159,0,1,,,,,
,,642448,001,2023-07-31_20h44.02.968,arm3_eps,2022.2.5,Win32,102.891244,5a2420437413810001521dd6,64c7fed44a04f777bb1e18ce,64c80146c2ffb5485957d9b7,right,-1,0.75,0.1786,17,-0.037495151,0.2896,,,,,,160,0,160,0,1,,,,,
,,642448,001,2023-07-31_20h44.02.968,arm3_eps,2022.2.5,Win32,102.891244,5a2420437413810001521dd6,64c7fed44a04f777bb1e18ce,64c80146c2ffb5485957d9b7,right,-1,0.75,0.1786,17,-0.031336458,0.4269,,,,,,161,0,161,0,1,,,,,
,,642448,001,2023-07-31_20h44.02.968,arm3_eps,2022.2.5,Win32,102.891244,5a2420437413810001521dd6,64c7fed44a04f777bb1e18ce,64c80146c2ffb5485957d9b7,right,-1,0.75,0.1786,17,-0.045398976,0.5941,,,,,,162,0,162,0,1,,,,,
,,642448,001,2023-07-31_20h44.02.968,arm3_eps,2022.2.5,Win32,102.891244,5a2420437413810001521dd6,64c7fed44a04f777bb1e18ce,64c80146c2ffb5485957d9b7,down,-1,0.75,0.1786,17,0,0.6457,,,,,,163,0,163,0,1,,,,,
,,642448,001,2023-07-31_20h44.02.968,arm3_eps,2022.2.5,Win32,102.891244,5a2420437413810001521dd6,64c7fed44a04f777bb1e18ce,64c80146c2ffb5485957d9b7,right,-1,0.75,0.1786,17,0.013956577,0.735,,,,,,164,0,164,0,1,,,,,
,,642448,001,2023-07-31_20h44.02.968,arm3_eps,2022.2.5,Win32,102.891244,5a2420437413810001521dd6,64c7fed44a04f777bb1e18ce,64c80146c2ffb5485957d9b7,right,-1,0.75,0.1786,17,-0.007834257,0.3298,,,,,,165,0,165,0,1,,,,,
,,642448,001,2023-07-31_20h44.02.968,arm3_eps,2022.2.5,Win32,102.891244,5a2420437413810001521dd6,64c7fed44a04f777bb1e18ce,64c80146c2ffb5485957d9b7,right,-1,0.75,0.1786,17,-0.023037185,0.213,,,,,,166,0,166,0,1,,,,,
,,642448,001,2023-07-31_20h44.02.968,arm3_eps,2022.2.5,Win32,102.891244,5a2420437413810001521dd6,64c7fed44a04f777bb1e18ce,64c80146c2ffb5485957d9b7,right,-1,0.75,0.1786,17,-0.01996427,0.3499,,,,,,167,0,167,0,1,,,,,
,,642448,001,2023-07-31_20h44.02.968,arm3_eps,2022.2.5,Win32,102.891244,5a2420437413810001521dd6,64c7fed44a04f777bb1e18ce,64c80146c2ffb5485957d9b7,down,1,0.75,0.1786,17,0,0.6652,,,,,,168,0,168,0,1,,,,,
,,642448,001,2023-07-31_20h44.02.968,arm3_eps,2022.2.5,Win32,102.891244,5a2420437413810001521dd6,64c7fed44a04f777bb1e18ce,64c80146c2ffb5485957d9b7,right,1,0.75,0.1786,17,0.023465706,0.6456,,,,,,169,0,169,0,1,,,,,
,,642448,001,2023-07-31_20h44.02.968,arm3_eps,2022.2.5,Win32,102.891244,5a2420437413810001521dd6,64c7fed44a04f777bb1e18ce,64c80146c2ffb5485957d9b7,right,1,0.75,0.1786,17,0.01484954,0.2126,,,,,,170,0,170,0,1,,,,,
,,642448,001,2023-07-31_20h44.02.968,arm3_eps,2022.2.5,Win32,102.891244,5a2420437413810001521dd6,64c7fed44a04f777bb1e18ce,64c80146c2ffb5485957d9b7,right,1,0.75,0.1786,17,0.020801632,0.2819,,,,,,171,0,171,0,1,,,,,
,,642448,001,2023-07-31_20h44.02.968,arm3_eps,2022.2.5,Win32,102.891244,5a2420437413810001521dd6,64c7fed44a04f777bb1e18ce,64c80146c2ffb5485957d9b7,right,1,0.75,0.1786,17,0.005494851,0.2945,,,,,,172,0,172,0,1,,,,,
,,642448,001,2023-07-31_20h44.02.968,arm3_eps,2022.2.5,Win32,102.891244,5a2420437413810001521dd6,64c7fed44a04f777bb1e18ce,64c80146c2ffb5485957d9b7,right,1,0.75,0.1786,17,0.007743784,0.2642,,,,,,173,0,173,0,1,,,,,
,,642448,001,2023-07-31_20h44.02.968,arm3_eps,2022.2.5,Win32,102.891244,5a2420437413810001521dd6,64c7fed44a04f777bb1e18ce,64c80146c2ffb5485957d9b7,right,1,0.75,0.1786,17,0.036747741,0.3405,,,,,,174,0,174,0,1,,,,,
,,642448,001,2023-07-31_20h44.02.968,arm3_eps,2022.2.5,Win32,102.891244,5a2420437413810001521dd6,64c7fed44a04f777bb1e18ce,64c80146c2ffb5485957d9b7,right,1,0.75,0.1786,17,0.020010641,0.3393,,,,,,175,0,175,0,1,,,,,
,,642448,001,2023-07-31_20h44.02.968,arm3_eps,2022.2.5,Win32,102.891244,5a2420437413810001521dd6,64c7fed44a04f777bb1e18ce,64c80146c2ffb5485957d9b7,right,1,0.75,0.1786,17,0.020997923,0.44,,,,,,176,0,176,0,1,,,,,
,,642448,001,2023-07-31_20h44.02.968,arm3_eps,2022.2.5,Win32,102.891244,5a2420437413810001521dd6,64c7fed44a04f777bb1e18ce,64c80146c2ffb5485957d9b7,right,1,0.75,0.1786,17,0.049018409,0.3426,,,,,,177,0,177,0,1,,,,,
,,642448,001,2023-07-31_20h44.02.968,arm3_eps,2022.2.5,Win32,102.891244,5a2420437413810001521dd6,64c7fed44a04f777bb1e18ce,64c80146c2ffb5485957d9b7,right,1,0.75,0.1786,17,0.059152323,0.4452,,,,,,178,0,178,0,1,,,,,
,,642448,001,2023-07-31_20h44.02.968,arm3_eps,2022.2.5,Win32,102.891244,5a2420437413810001521dd6,64c7fed44a04f777bb1e18ce,64c80146c2ffb5485957d9b7,up,1,0.75,0.1786,18,0,0.4586,,,,,,179,0,179,0,1,,,,,
,,642448,001,2023-07-31_20h44.02.968,arm3_eps,2022.2.5,Win32,102.891244,5a2420437413810001521dd6,64c7fed44a04f777bb1e18ce,64c80146c2ffb5485957d9b7,right,1,0.75,0.1786,18,0.031555727,0.7534,,,,,,180,0,180,0,1,,,,,
,,642448,001,2023-07-31_20h44.02.968,arm3_eps,2022.2.5,Win32,102.891244,5a2420437413810001521dd6,64c7fed44a04f777bb1e18ce,64c80146c2ffb5485957d9b7,right,1,0.75,0.1786,18,0.041258463,0.3865,,,,,,181,0,181,0,1,,,,,
,,642448,001,2023-07-31_20h44.02.968,arm3_eps,2022.2.5,Win32,102.891244,5a2420437413810001521dd6,64c7fed44a04f777bb1e18ce,64c80146c2ffb5485957d9b7,right,1,0.75,0.1786,18,0.035854512,0.2113,,,,,,182,0,182,0,1,,,,,
,,642448,001,2023-07-31_20h44.02.968,arm3_eps,2022.2.5,Win32,102.891244,5a2420437413810001521dd6,64c7fed44a04f777bb1e18ce,64c80146c2ffb5485957d9b7,right,1,0.75,0.1786,18,0.063250746,0.8657,,,,,,183,0,183,0,1,,,,,
,,642448,001,2023-07-31_20h44.02.968,arm3_eps,2022.2.5,Win32,102.891244,5a2420437413810001521dd6,64c7fed44a04f777bb1e18ce,64c80146c2ffb5485957d9b7,up,1,0.75,0.1786,19,0,0.7361,,,,,,184,0,184,0,1,,,,,
,,642448,001,2023-07-31_20h44.02.968,arm3_eps,2022.2.5,Win32,102.891244,5a2420437413810001521dd6,64c7fed44a04f777bb1e18ce,64c80146c2ffb5485957d9b7,right,1,0.75,0.1786,19,-0.015264009,0.7485,,,,,,185,0,185,0,1,,,,,
,,642448,001,2023-07-31_20h44.02.968,arm3_eps,2022.2.5,Win32,102.891244,5a2420437413810001521dd6,64c7fed44a04f777bb1e18ce,64c80146c2ffb5485957d9b7,right,1,0.75,0.1786,19,-0.001355021,0.2417,,,,,,186,0,186,0,1,,,,,
,,642448,001,2023-07-31_20h44.02.968,arm3_eps,2022.2.5,Win32,102.891244,5a2420437413810001521dd6,64c7fed44a04f777bb1e18ce,64c80146c2ffb5485957d9b7,right,1,0.75,0.1786,19,0.025428564,0.3297,,,,,,187,0,187,0,1,,,,,
,,642448,001,2023-07-31_20h44.02.968,arm3_eps,2022.2.5,Win32,102.891244,5a2420437413810001521dd6,64c7fed44a04f777bb1e18ce,64c80146c2ffb5485957d9b7,right,1,0.75,0.1786,19,0.040174562,0.3127,,,,,,188,0,188,0,1,,,,,
,,642448,001,2023-07-31_20h44.02.968,arm3_eps,2022.2.5,Win32,102.891244,5a2420437413810001521dd6,64c7fed44a04f777bb1e18ce,64c80146c2ffb5485957d9b7,right,1,0.75,0.1786,19,0.032429611,0.3783,,,,,,189,0,189,0,1,,,,,
,,642448,001,2023-07-31_20h44.02.968,arm3_eps,2022.2.5,Win32,102.891244,5a2420437413810001521dd6,64c7fed44a04f777bb1e18ce,64c80146c2ffb5485957d9b7,right,1,0.75,0.1786,19,0.045479506,0.3132,,,,,,190,0,190,0,1,,,,,
,,642448,001,2023-07-31_20h44.02.968,arm3_eps,2022.2.5,Win32,102.891244,5a2420437413810001521dd6,64c7fed44a04f777bb1e18ce,64c80146c2ffb5485957d9b7,right,1,0.75,0.1786,19,0.040294988,0.5662,,,,,,191,0,191,0,1,,,,,
,,642448,001,2023-07-31_20h44.02.968,arm3_eps,2022.2.5,Win32,102.891244,5a2420437413810001521dd6,64c7fed44a04f777bb1e18ce,64c80146c2ffb5485957d9b7,up,1,0.75,0.1786,20,0,0.4548,,,,,,192,0,192,0,1,,,,,
,,642448,001,2023-07-31_20h44.02.968,arm3_eps,2022.2.5,Win32,102.891244,5a2420437413810001521dd6,64c7fed44a04f777bb1e18ce,64c80146c2ffb5485957d9b7,right,1,0.75,0.1786,20,-0.015430963,0.6845,,,,,,193,0,193,0,1,,,,,
,,642448,001,2023-07-31_20h44.02.968,arm3_eps,2022.2.5,Win32,102.891244,5a2420437413810001521dd6,64c7fed44a04f777bb1e18ce,64c80146c2ffb5485957d9b7,right,1,0.75,0.1786,20,0.025748508,0.3025,,,,,,194,0,194,0,1,,,,,
,,642448,001,2023-07-31_20h44.02.968,arm3_eps,2022.2.5,Win32,102.891244,5a2420437413810001521dd6,64c7fed44a04f777bb1e18ce,64c80146c2ffb5485957d9b7,right,1,0.75,0.1786,20,0.050479552,0.2957,,,,,,195,0,195,0,1,,,,,
,,642448,001,2023-07-31_20h44.02.968,arm3_eps,2022.2.5,Win32,102.891244,5a2420437413810001521dd6,64c7fed44a04f777bb1e18ce,64c80146c2ffb5485957d9b7,right,1,0.75,0.1786,20,0.067092653,0.3767,,,,,,196,0,196,0,1,,,,,
,,642448,001,2023-07-31_20h44.02.968,arm3_eps,2022.2.5,Win32,102.891244,5a2420437413810001521dd6,64c7fed44a04f777bb1e18ce,64c80146c2ffb5485957d9b7,right,1,0.75,0.1786,20,0.060061435,0.4853,,,,,,197,0,197,0,1,,,,,
,,642448,001,2023-07-31_20h44.02.968,arm3_eps,2022.2.5,Win32,102.891244,5a2420437413810001521dd6,64c7fed44a04f777bb1e18ce,64c80146c2ffb5485957d9b7,up,1,0.75,0.1786,21,0,0.5621,,,,,,198,0,198,0,1,,,,,
,,642448,001,2023-07-31_20h44.02.968,arm3_eps,2022.2.5,Win32,102.891244,5a2420437413810001521dd6,64c7fed44a04f777bb1e18ce,64c80146c2ffb5485957d9b7,right,1,0.75,0.1786,21,-0.004209762,0.7525,,,,,,199,0,199,0,1,,,,,
,,642448,001,2023-07-31_20h44.02.968,arm3_eps,2022.2.5,Win32,102.891244,5a2420437413810001521dd6,64c7fed44a04f777bb1e18ce,64c80146c2ffb5485957d9b7,right,1,0.75,0.1786,21,-0.001668737,0.2129,,,,,,200,0,200,0,1,,,,,
,,642448,001,2023-07-31_20h44.02.968,arm3_eps,2022.2.5,Win32,102.891244,5a2420437413810001521dd6,64c7fed44a04f777bb1e18ce,64c80146c2ffb5485957d9b7,right,1,0.75,0.1786,21,-0.011190121,0.2602,,,,,,201,0,201,0,1,,,,,
,,642448,001,2023-07-31_20h44.02.968,arm3_eps,2022.2.5,Win32,102.891244,5a2420437413810001521dd6,64c7fed44a04f777bb1e18ce,64c80146c2ffb5485957d9b7,right,1,0.75,0.1786,21,-0.001559803,0.3245,,,,,,202,0,202,0,1,,,,,
,,642448,001,2023-07-31_20h44.02.968,arm3_eps,2022.2.5,Win32,102.891244,5a2420437413810001521dd6,64c7fed44a04f777bb1e18ce,64c80146c2ffb5485957d9b7,right,1,0.75,0.1786,21,0.032967177,0.2532,,,,,,203,0,203,0,1,,,,,
,,642448,001,2023-07-31_20h44.02.968,arm3_eps,2022.2.5,Win32,102.891244,5a2420437413810001521dd6,64c7fed44a04f777bb1e18ce,64c80146c2ffb5485957d9b7,right,1,0.75,0.1786,21,0.058314286,0.242,,,,,,204,0,204,0,1,,,,,
,,642448,001,2023-07-31_20h44.02.968,arm3_eps,2022.2.5,Win32,102.891244,5a2420437413810001521dd6,64c7fed44a04f777bb1e18ce,64c80146c2ffb5485957d9b7,up,1,0.75,0.1786,22,0,0.4023,,,,,,205,0,205,0,1,,,,,
,,642448,001,2023-07-31_20h44.02.968,arm3_eps,2022.2.5,Win32,102.891244,5a2420437413810001521dd6,64c7fed44a04f777bb1e18ce,64c80146c2ffb5485957d9b7,right,1,0.75,0.1786,22,-0.000629274,0.7812,,,,,,206,0,206,0,1,,,,,
,,642448,001,2023-07-31_20h44.02.968,arm3_eps,2022.2.5,Win32,102.891244,5a2420437413810001521dd6,64c7fed44a04f777bb1e18ce,64c80146c2ffb5485957d9b7,right,1,0.75,0.1786,22,0.025354494,0.1659,,,,,,207,0,207,0,1,,,,,
,,642448,001,2023-07-31_20h44.02.968,arm3_eps,2022.2.5,Win32,102.891244,5a2420437413810001521dd6,64c7fed44a04f777bb1e18ce,64c80146c2ffb5485957d9b7,right,1,0.75,0.1786,22,0.041659965,0.2407,,,,,,208,0,208,0,1,,,,,
,,642448,001,2023-07-31_20h44.02.968,arm3_eps,2022.2.5,Win32,102.891244,5a2420437413810001521dd6,64c7fed44a04f777bb1e18ce,64c80146c2ffb5485957d9b7,right,1,0.75,0.1786,22,0.014003819,0.324,,,,,,209,0,209,0,1,,,,,
,,642448,001,2023-07-31_20h44.02.968,arm3_eps,2022.2.5,Win32,102.891244,5a2420437413810001521dd6,64c7fed44a04f777bb1e18ce,64c80146c2ffb5485957d9b7,right,1,0.75,0.1786,22,0.0294956,0.3197,,,,,,210,0,210,0,1,,,,,
,,642448,001,2023-07-31_20h44.02.968,arm3_eps,2022.2.5,Win32,102.891244,5a2420437413810001521dd6,64c7fed44a04f777bb1e18ce,64c80146c2ffb5485957d9b7,right,1,0.75,0.1786,22,0.055631166,0.3497,,,,,,211,0,211,0,1,,,,,
,,642448,001,2023-07-31_20h44.02.968,arm3_eps,2022.2.5,Win32,102.891244,5a2420437413810001521dd6,64c7fed44a04f777bb1e18ce,64c80146c2ffb5485957d9b7,up,1,0.75,0.1786,22,0,0.5426,,,,,,212,0,212,0,1,,,,,
,,642448,001,2023-07-31_20h44.02.968,arm3_eps,2022.2.5,Win32,102.891244,5a2420437413810001521dd6,64c7fed44a04f777bb1e18ce,64c80146c2ffb5485957d9b7,right,1,0.75,0.1786,22,-0.015446883,0.7728,,,,,,213,0,213,0,1,,,,,
,,642448,001,2023-07-31_20h44.02.968,arm3_eps,2022.2.5,Win32,102.891244,5a2420437413810001521dd6,64c7fed44a04f777bb1e18ce,64c80146c2ffb5485957d9b7,right,1,0.75,0.1786,22,0.005228879,0.1839,,,,,,214,0,214,0,1,,,,,
,,642448,001,2023-07-31_20h44.02.968,arm3_eps,2022.2.5,Win32,102.891244,5a2420437413810001521dd6,64c7fed44a04f777bb1e18ce,64c80146c2ffb5485957d9b7,right,1,0.75,0.1786,22,0.018907819,0.2119,,,,,,215,0,215,0,1,,,,,
,,642448,001,2023-07-31_20h44.02.968,arm3_eps,2022.2.5,Win32,102.891244,5a2420437413810001521dd6,64c7fed44a04f777bb1e18ce,64c80146c2ffb5485957d9b7,right,1,0.75,0.1786,22,0.044931084,0.3284,,,,,,216,0,216,0,1,,,,,
,,642448,001,2023-07-31_20h44.02.968,arm3_eps,2022.2.5,Win32,102.891244,5a2420437413810001521dd6,64c7fed44a04f777bb1e18ce,64c80146c2ffb5485957d9b7,right,1,0.75,0.1786,22,0.027405421,0.2902,,,,,,217,0,217,0,1,,,,,
,,642448,001,2023-07-31_20h44.02.968,arm3_eps,2022.2.5,Win32,102.891244,5a2420437413810001521dd6,64c7fed44a04f777bb1e18ce,64c80146c2ffb5485957d9b7,right,1,0.75,0.1786,22,0.050584129,0.3292,,,,,,218,0,218,0,1,,,,,
,,642448,001,2023-07-31_20h44.02.968,arm3_eps,2022.2.5,Win32,102.891244,5a2420437413810001521dd6,64c7fed44a04f777bb1e18ce,64c80146c2ffb5485957d9b7,right,1,0.75,0.1786,22,0.037398235,0.3355,,,,,,219,0,219,0,1,,,,,
,,642448,001,2023-07-31_20h44.02.968,arm3_eps,2022.2.5,Win32,102.891244,5a2420437413810001521dd6,64c7fed44a04f777bb1e18ce,64c80146c2ffb5485957d9b7,right,1,0.75,0.1786,22,0.041262,0.4794,,,,,,220,0,220,0,1,,,,,
,,642448,001,2023-07-31_20h44.02.968,arm3_eps,2022.2.5,Win32,102.891244,5a2420437413810001521dd6,64c7fed44a04f777bb1e18ce,64c80146c2ffb5485957d9b7,up,1,0.75,0.1786,23,0,0.5003,,,,,,221,0,221,0,1,,,,,
,,642448,001,2023-07-31_20h44.02.968,arm3_eps,2022.2.5,Win32,102.891244,5a2420437413810001521dd6,64c7fed44a04f777bb1e18ce,64c80146c2ffb5485957d9b7,right,1,0.75,0.1786,23,0.034846757,0.7331,,,,,,222,0,222,0,1,,,,,
,,642448,001,2023-07-31_20h44.02.968,arm3_eps,2022.2.5,Win32,102.891244,5a2420437413810001521dd6,64c7fed44a04f777bb1e18ce,64c80146c2ffb5485957d9b7,right,1,0.75,0.1786,23,0.063736986,0.2609,,,,,,223,0,223,0,1,,,,,
,,642448,001,2023-07-31_20h44.02.968,arm3_eps,2022.2.5,Win32,102.891244,5a2420437413810001521dd6,64c7fed44a04f777bb1e18ce,64c80146c2ffb5485957d9b7,right,1,0.75,0.1786,23,0.090561916,0.4067,,,,,,224,0,224,0,1,,,,,
,,642448,001,2023-07-31_20h44.02.968,arm3_eps,2022.2.5,Win32,102.891244,5a2420437413810001521dd6,64c7fed44a04f777bb1e18ce,64c80146c2ffb5485957d9b7,up,-1,0.75,0.1786,23,0,0.4036,,,,,,225,0,225,0,1,,,,,
,,642448,001,2023-07-31_20h44.02.968,arm3_eps,2022.2.5,Win32,102.891244,5a2420437413810001521dd6,64c7fed44a04f777bb1e18ce,64c80146c2ffb5485957d9b7,right,-1,0.75,0.1786,23,0.023246078,0.7469,,,,,,226,0,226,0,1,,,,,
,,642448,001,2023-07-31_20h44.02.968,arm3_eps,2022.2.5,Win32,102.891244,5a2420437413810001521dd6,64c7fed44a04f777bb1e18ce,64c80146c2ffb5485957d9b7,right,-1,0.75,0.1786,23,0.036690725,0.1829,,,,,,227,0,227,0,1,,,,,
,,642448,001,2023-07-31_20h44.02.968,arm3_eps,2022.2.5,Win32,102.891244,5a2420437413810001521dd6,64c7fed44a04f777bb1e18ce,64c80146c2ffb5485957d9b7,right,-1,0.75,0.1786,23,0.028308405,0.3042,,,,,,228,0,228,0,1,,,,,
,,642448,001,2023-07-31_20h44.02.968,arm3_eps,2022.2.5,Win32,102.891244,5a2420437413810001521dd6,64c7fed44a04f777bb1e18ce,64c80146c2ffb5485957d9b7,right,-1,0.75,0.1786,23,0.027134874,0.3108,,,,,,229,0,229,0,1,,,,,
,,642448,001,2023-07-31_20h44.02.968,arm3_eps,2022.2.5,Win32,102.891244,5a2420437413810001521dd6,64c7fed44a04f777bb1e18ce,64c80146c2ffb5485957d9b7,right,-1,0.75,0.1786,23,0.018819643,0.3038,,,,,,230,0,230,0,1,,,,,
,,642448,001,2023-07-31_20h44.02.968,arm3_eps,2022.2.5,Win32,102.891244,5a2420437413810001521dd6,64c7fed44a04f777bb1e18ce,64c80146c2ffb5485957d9b7,right,-1,0.75,0.1786,23,0.012186487,0.3521,,,,,,231,0,231,0,1,,,,,
,,642448,001,2023-07-31_20h44.02.968,arm3_eps,2022.2.5,Win32,102.891244,5a2420437413810001521dd6,64c7fed44a04f777bb1e18ce,64c80146c2ffb5485957d9b7,right,-1,0.75,0.1786,23,-0.002032144,0.3865,,,,,,232,0,232,0,1,,,,,
,,642448,001,2023-07-31_20h44.02.968,arm3_eps,2022.2.5,Win32,102.891244,5a2420437413810001521dd6,64c7fed44a04f777bb1e18ce,64c80146c2ffb5485957d9b7,right,-1,0.75,0.1786,23,0.01500459,0.3972,,,,,,233,0,233,0,1,,,,,
,,642448,001,2023-07-31_20h44.02.968,arm3_eps,2022.2.5,Win32,102.891244,5a2420437413810001521dd6,64c7fed44a04f777bb1e18ce,64c80146c2ffb5485957d9b7,right,-1,0.75,0.1786,23,-0.001533845,0.3482,,,,,,234,0,234,0,1,,,,,
,,642448,001,2023-07-31_20h44.02.968,arm3_eps,2022.2.5,Win32,102.891244,5a2420437413810001521dd6,64c7fed44a04f777bb1e18ce,64c80146c2ffb5485957d9b7,right,-1,0.75,0.1786,23,-0.02772889,0.3479,,,,,,235,0,235,0,1,,,,,
,,642448,001,2023-07-31_20h44.02.968,arm3_eps,2022.2.5,Win32,102.891244,5a2420437413810001521dd6,64c7fed44a04f777bb1e18ce,64c80146c2ffb5485957d9b7,right,-1,0.75,0.1786,23,-0.049405058,0.4258,,,,,,236,0,236,0,1,,,,,
,,642448,001,2023-07-31_20h44.02.968,arm3_eps,2022.2.5,Win32,102.891244,5a2420437413810001521dd6,64c7fed44a04f777bb1e18ce,64c80146c2ffb5485957d9b7,down,-1,0.75,0.1786,24,0,0.6418,,,,,,237,0,237,0,1,,,,,
,,642448,001,2023-07-31_20h44.02.968,arm3_eps,2022.2.5,Win32,102.891244,5a2420437413810001521dd6,64c7fed44a04f777bb1e18ce,64c80146c2ffb5485957d9b7,right,-1,0.75,0.1786,24,0.003011438,0.8642,,,,,,238,0,238,0,1,,,,,
,,642448,001,2023-07-31_20h44.02.968,arm3_eps,2022.2.5,Win32,102.891244,5a2420437413810001521dd6,64c7fed44a04f777bb1e18ce,64c80146c2ffb5485957d9b7,right,-1,0.75,0.1786,24,-0.012677818,0.3099,,,,,,239,0,239,0,1,,,,,
,,642448,001,2023-07-31_20h44.02.968,arm3_eps,2022.2.5,Win32,102.891244,5a2420437413810001521dd6,64c7fed44a04f777bb1e18ce,64c80146c2ffb5485957d9b7,right,-1,0.75,0.1786,24,-0.028479683,0.2927,,,,,,240,0,240,0,1,,,,,
,,642448,001,2023-07-31_20h44.02.968,arm3_eps,2022.2.5,Win32,102.891244,5a2420437413810001521dd6,64c7fed44a04f777bb1e18ce,64c80146c2ffb5485957d9b7,down,-1,0.75,0.1786,25,0,1.3097,,,,,,241,0,241,0,1,,,,,
,,642448,001,2023-07-31_20h44.02.968,arm3_eps,2022.2.5,Win32,102.891244,5a2420437413810001521dd6,64c7fed44a04f777bb1e18ce,64c80146c2ffb5485957d9b7,right,-1,0.75,0.1786,25,-0.026995329,1.5265,,,,,,242,0,242,0,1,,,,,
,,642448,001,2023-07-31_20h44.02.968,arm3_eps,2022.2.5,Win32,102.891244,5a2420437413810001521dd6,64c7fed44a04f777bb1e18ce,64c80146c2ffb5485957d9b7,right,-1,0.75,0.1786,25,-0.052860742,0.2649,,,,,,243,0,243,0,1,,,,,
,,642448,001,2023-07-31_20h44.02.968,arm3_eps,2022.2.5,Win32,102.891244,5a2420437413810001521dd6,64c7fed44a04f777bb1e18ce,64c80146c2ffb5485957d9b7,right,-1,0.75,0.1786,25,-0.048140484,0.3536,,,,,,244,0,244,0,1,,,,,
,,642448,001,2023-07-31_20h44.02.968,arm3_eps,2022.2.5,Win32,102.891244,5a2420437413810001521dd6,64c7fed44a04f777bb1e18ce,64c80146c2ffb5485957d9b7,right,-1,0.75,0.1786,25,-0.058584986,0.2748,,,,,,245,0,245,0,1,,,,,
,,642448,001,2023-07-31_20h44.02.968,arm3_eps,2022.2.5,Win32,102.891244,5a2420437413810001521dd6,64c7fed44a04f777bb1e18ce,64c80146c2ffb5485957d9b7,right,-1,0.75,0.1786,25,-0.028537682,1.4486,,,,,,246,0,246,0,1,,,,,
,,642448,001,2023-07-31_20h44.02.968,arm3_eps,2022.2.5,Win32,102.891244,5a2420437413810001521dd6,64c7fed44a04f777bb1e18ce,64c80146c2ffb5485957d9b7,down,-1,0.75,0.1786,26,0,0.6847,,,,,,247,0,247,0,1,,,,,
,,642448,001,2023-07-31_20h44.02.968,arm3_eps,2022.2.5,Win32,102.891244,5a2420437413810001521dd6,64c7fed44a04f777bb1e18ce,64c80146c2ffb5485957d9b7,right,-1,0.75,0.1786,26,-0.011458031,0.7493,,,,,,248,0,248,0,1,,,,,
,,642448,001,2023-07-31_20h44.02.968,arm3_eps,2022.2.5,Win32,102.891244,5a2420437413810001521dd6,64c7fed44a04f777bb1e18ce,64c80146c2ffb5485957d9b7,right,-1,0.75,0.1786,26,-0.016043164,0.2653,,,,,,249,0,249,0,1,,,,,
,,642448,001,2023-07-31_20h44.02.968,arm3_eps,2022.2.5,Win32,102.891244,5a2420437413810001521dd6,64c7fed44a04f777bb1e18ce,64c80146c2ffb5485957d9b7,right,-1,0.75,0.1786,26,-0.037474344,0.2863,,,,,,250,0,250,0,1,,,,,
,,642448,001,2023-07-31_20h44.02.968,arm3_eps,2022.2.5,Win32,102.891244,5a2420437413810001521dd6,64c7fed44a04f777bb1e18ce,64c80146c2ffb5485957d9b7,right,-1,0.75,0.1786,26,-0.041887113,0.2043,,,,,,251,0,251,0,1,,,,,
,,642448,001,2023-07-31_20h44.02.968,arm3_eps,2022.2.5,Win32,102.891244,5a2420437413810001521dd6,64c7fed44a04f777bb1e18ce,64c80146c2ffb5485957d9b7,right,-1,0.75,0.1786,26,-0.020507316,0.4105,,,,,,252,0,252,0,1,,,,,
,,642448,001,2023-07-31_20h44.02.968,arm3_eps,2022.2.5,Win32,102.891244,5a2420437413810001521dd6,64c7fed44a04f777bb1e18ce,64c80146c2ffb5485957d9b7,right,-1,0.75,0.1786,26,-0.007656177,0.3786,,,,,,253,0,253,0,1,,,,,
,,642448,001,2023-07-31_20h44.02.968,arm3_eps,2022.2.5,Win32,102.891244,5a2420437413810001521dd6,64c7fed44a04f777bb1e18ce,64c80146c2ffb5485957d9b7,down,1,0.75,0.1786,27,0,0.5722,,,,,,254,0,254,0,1,,,,,
,,642448,001,2023-07-31_20h44.02.968,arm3_eps,2022.2.5,Win32,102.891244,5a2420437413810001521dd6,64c7fed44a04f777bb1e18ce,64c80146c2ffb5485957d9b7,right,1,0.75,0.1786,27,0.024719457,0.6858,,,,,,255,0,255,0,1,,,,,
,,642448,001,2023-07-31_20h44.02.968,arm3_eps,2022.2.5,Win32,102.891244,5a2420437413810001521dd6,64c7fed44a04f777bb1e18ce,64c80146c2ffb5485957d9b7,right,1,0.75,0.1786,27,0.048425229,0.3486,,,,,,256,0,256,0,1,,,,,
,,642448,001,2023-07-31_20h44.02.968,arm3_eps,2022.2.5,Win32,102.891244,5a2420437413810001521dd6,64c7fed44a04f777bb1e18ce,64c80146c2ffb5485957d9b7,right,1,0.75,0.1786,27,0.061939941,0.4071,,,,,,257,0,257,0,1,,,,,
