space_bar.keys,space_bar.rt,participant,session,date,expName,psychopyVersion,OS,frameRate,PROLIFIC_PID,STUDY_ID,SESSION_ID,resp.keys,state,q_prob,eps_prob,score,price,resp.rt,train.thisRepN,train.thisTrialN,train.thisN,train.thisIndex,train.ran,steps.thisRepN,steps.thisTrialN,steps.thisN,steps.thisIndex,steps.ran,blocks.thisRepN,blocks.thisTrialN,blocks.thisN,blocks.thisIndex,blocks.ran
space,5.133,657439,001,2023-07-31_20h46.19.139,arm3_eps,2022.2.5,Win32,59.95203837,6126be630953fe354ba4f78f,64c7fed44a04f777bb1e18ce,64c8013a1a75fd3d4ce05b19,,,,,,,,,,,,,,,,,,,,,,
space,4.697,657439,001,2023-07-31_20h46.19.139,arm3_eps,2022.2.5,Win32,59.95203837,6126be630953fe354ba4f78f,64c7fed44a04f777bb1e18ce,64c8013a1a75fd3d4ce05b19,,,,,,,,,,,,,,,,,,,,,,
space,36.819,657439,001,2023-07-31_20h46.19.139,arm3_eps,2022.2.5,Win32,59.95203837,6126be630953fe354ba4f78f,64c7fed44a04f777bb1e18ce,64c8013a1a75fd3d4ce05b19,,,,,,,,,,,,,,,,,,,,,,
space,20.948,657439,001,2023-07-31_20h46.19.139,arm3_eps,2022.2.5,Win32,59.95203837,6126be630953fe354ba4f78f,64c7fed44a04f777bb1e18ce,64c8013a1a75fd3d4ce05b19,,,,,,,,,,,,,,,,,,,,,,
space,5.065,657439,001,2023-07-31_20h46.19.139,arm3_eps,2022.2.5,Win32,59.95203837,6126be630953fe354ba4f78f,64c7fed44a04f777bb1e18ce,64c8013a1a75fd3d4ce05b19,,,,,,,,,,,,,,,,,,,,,,
space,16.532,657439,001,2023-07-31_20h46.19.139,arm3_eps,2022.2.5,Win32,59.95203837,6126be630953fe354ba4f78f,64c7fed44a04f777bb1e18ce,64c8013a1a75fd3d4ce05b19,,,,,,,,,,,,,,,,,,,,,,
space,1.401,657439,001,2023-07-31_20h46.19.139,arm3_eps,2022.2.5,Win32,59.95203837,6126be630953fe354ba4f78f,64c7fed44a04f777bb1e18ce,64c8013a1a75fd3d4ce05b19,,,,,,,,,,,,,,,,,,,,,,
,,657439,001,2023-07-31_20h46.19.139,arm3_eps,2022.2.5,Win32,59.95203837,6126be630953fe354ba4f78f,64c7fed44a04f777bb1e18ce,64c8013a1a75fd3d4ce05b19,right,1,1,0.2429,0,0.01936558,10.976,0,0,0,0,1,,,,,,,,,,
,,657439,001,2023-07-31_20h46.19.139,arm3_eps,2022.2.5,Win32,59.95203837,6126be630953fe354ba4f78f,64c7fed44a04f777bb1e18ce,64c8013a1a75fd3d4ce05b19,up,1,1,0.2429,1,0,3.652,1,0,1,0,1,,,,,,,,,,
,,657439,001,2023-07-31_20h46.19.139,arm3_eps,2022.2.5,Win32,59.95203837,6126be630953fe354ba4f78f,64c7fed44a04f777bb1e18ce,64c8013a1a75fd3d4ce05b19,down,1,1,0.2429,0,0,4.765,2,0,2,0,1,,,,,,,,,,
,,657439,001,2023-07-31_20h46.19.139,arm3_eps,2022.2.5,Win32,59.95203837,6126be630953fe354ba4f78f,64c7fed44a04f777bb1e18ce,64c8013a1a75fd3d4ce05b19,right,1,1,0.2429,0,0.007865908,2.004,3,0,3,0,1,,,,,,,,,,
,,657439,001,2023-07-31_20h46.19.139,arm3_eps,2022.2.5,Win32,59.95203837,6126be630953fe354ba4f78f,64c7fed44a04f777bb1e18ce,64c8013a1a75fd3d4ce05b19,up,1,1,0.2429,1,0,1.136,4,0,4,0,1,,,,,,,,,,
,,657439,001,2023-07-31_20h46.19.139,arm3_eps,2022.2.5,Win32,59.95203837,6126be630953fe354ba4f78f,64c7fed44a04f777bb1e18ce,64c8013a1a75fd3d4ce05b19,right,1,1,0.2429,1,0.026900795,9.309,5,0,5,0,1,,,,,,,,,,
,,657439,001,2023-07-31_20h46.19.139,arm3_eps,2022.2.5,Win32,59.95203837,6126be630953fe354ba4f78f,64c7fed44a04f777bb1e18ce,64c8013a1a75fd3d4ce05b19,right,1,1,0.2429,1,0.046192967,0.584,6,0,6,0,1,,,,,,,,,,
,,657439,001,2023-07-31_20h46.19.139,arm3_eps,2022.2.5,Win32,59.95203837,6126be630953fe354ba4f78f,64c7fed44a04f777bb1e18ce,64c8013a1a75fd3d4ce05b19,right,1,1,0.2429,1,0.061179053,0.433,7,0,7,0,1,,,,,,,,,,
,,657439,001,2023-07-31_20h46.19.139,arm3_eps,2022.2.5,Win32,59.95203837,6126be630953fe354ba4f78f,64c7fed44a04f777bb1e18ce,64c8013a1a75fd3d4ce05b19,right,1,1,0.2429,1,0.086199118,0.655,8,0,8,0,1,,,,,,,,,,
,,657439,001,2023-07-31_20h46.19.139,arm3_eps,2022.2.5,Win32,59.95203837,6126be630953fe354ba4f78f,64c7fed44a04f777bb1e18ce,64c8013a1a75fd3d4ce05b19,right,1,1,0.2429,1,0.086209052,0.354,9,0,9,0,1,,,,,,,,,,
,,657439,001,2023-07-31_20h46.19.139,arm3_eps,2022.2.5,Win32,59.95203837,6126be630953fe354ba4f78f,64c7fed44a04f777bb1e18ce,64c8013a1a75fd3d4ce05b19,right,1,1,0.2429,1,0.100596775,0.336,10,0,10,0,1,,,,,,,,,,
,,657439,001,2023-07-31_20h46.19.139,arm3_eps,2022.2.5,Win32,59.95203837,6126be630953fe354ba4f78f,64c7fed44a04f777bb1e18ce,64c8013a1a75fd3d4ce05b19,right,1,1,0.2429,1,0.096060808,0.24,11,0,11,0,1,,,,,,,,,,
,,657439,001,2023-07-31_20h46.19.139,arm3_eps,2022.2.5,Win32,59.95203837,6126be630953fe354ba4f78f,64c7fed44a04f777bb1e18ce,64c8013a1a75fd3d4ce05b19,right,1,1,0.2429,1,0.109241987,0.287,12,0,12,0,1,,,,,,,,,,
,,657439,001,2023-07-31_20h46.19.139,arm3_eps,2022.2.5,Win32,59.95203837,6126be630953fe354ba4f78f,64c7fed44a04f777bb1e18ce,64c8013a1a75fd3d4ce05b19,right,1,1,0.2429,1,0.108012436,0.252,13,0,13,0,1,,,,,,,,,,
,,657439,001,2023-07-31_20h46.19.139,arm3_eps,2022.2.5,Win32,59.95203837,6126be630953fe354ba4f78f,64c7fed44a04f777bb1e18ce,64c8013a1a75fd3d4ce05b19,right,1,1,0.2429,1,0.110893343,0.223,14,0,14,0,1,,,,,,,,,,
,,657439,001,2023-07-31_20h46.19.139,arm3_eps,2022.2.5,Win32,59.95203837,6126be630953fe354ba4f78f,64c7fed44a04f777bb1e18ce,64c8013a1a75fd3d4ce05b19,right,1,1,0.2429,1,0.089182315,0.221,15,0,15,0,1,,,,,,,,,,
,,657439,001,2023-07-31_20h46.19.139,arm3_eps,2022.2.5,Win32,59.95203837,6126be630953fe354ba4f78f,64c7fed44a04f777bb1e18ce,64c8013a1a75fd3d4ce05b19,right,1,1,0.2429,1,0.096970195,0.355,16,0,16,0,1,,,,,,,,,,
,,657439,001,2023-07-31_20h46.19.139,arm3_eps,2022.2.5,Win32,59.95203837,6126be630953fe354ba4f78f,64c7fed44a04f777bb1e18ce,64c8013a1a75fd3d4ce05b19,up,1,1,0.2429,2,0,2.421,17,0,17,0,1,,,,,,,,,,
,,657439,001,2023-07-31_20h46.19.139,arm3_eps,2022.2.5,Win32,59.95203837,6126be630953fe354ba4f78f,64c7fed44a04f777bb1e18ce,64c8013a1a75fd3d4ce05b19,right,1,1,0.2429,2,0.010961368,1.565,18,0,18,0,1,,,,,,,,,,
,,657439,001,2023-07-31_20h46.19.139,arm3_eps,2022.2.5,Win32,59.95203837,6126be630953fe354ba4f78f,64c7fed44a04f777bb1e18ce,64c8013a1a75fd3d4ce05b19,right,1,1,0.2429,2,0.028829518,0.302,19,0,19,0,1,,,,,,,,,,
,,657439,001,2023-07-31_20h46.19.139,arm3_eps,2022.2.5,Win32,59.95203837,6126be630953fe354ba4f78f,64c7fed44a04f777bb1e18ce,64c8013a1a75fd3d4ce05b19,right,1,1,0.2429,2,0.006182093,0.172,20,0,20,0,1,,,,,,,,,,
,,657439,001,2023-07-31_20h46.19.139,arm3_eps,2022.2.5,Win32,59.95203837,6126be630953fe354ba4f78f,64c7fed44a04f777bb1e18ce,64c8013a1a75fd3d4ce05b19,right,1,1,0.2429,2,0.013474083,0.219,21,0,21,0,1,,,,,,,,,,
,,657439,001,2023-07-31_20h46.19.139,arm3_eps,2022.2.5,Win32,59.95203837,6126be630953fe354ba4f78f,64c7fed44a04f777bb1e18ce,64c8013a1a75fd3d4ce05b19,right,1,1,0.2429,2,0.023810635,0.185,22,0,22,0,1,,,,,,,,,,
,,657439,001,2023-07-31_20h46.19.139,arm3_eps,2022.2.5,Win32,59.95203837,6126be630953fe354ba4f78f,64c7fed44a04f777bb1e18ce,64c8013a1a75fd3d4ce05b19,right,1,1,0.2429,2,0.025958381,0.165,23,0,23,0,1,,,,,,,,,,
,,657439,001,2023-07-31_20h46.19.139,arm3_eps,2022.2.5,Win32,59.95203837,6126be630953fe354ba4f78f,64c7fed44a04f777bb1e18ce,64c8013a1a75fd3d4ce05b19,right,1,1,0.2429,2,0.017387765,0.201,24,0,24,0,1,,,,,,,,,,
,,657439,001,2023-07-31_20h46.19.139,arm3_eps,2022.2.5,Win32,59.95203837,6126be630953fe354ba4f78f,64c7fed44a04f777bb1e18ce,64c8013a1a75fd3d4ce05b19,right,1,1,0.2429,2,0.036924424,0.185,25,0,25,0,1,,,,,,,,,,
,,657439,001,2023-07-31_20h46.19.139,arm3_eps,2022.2.5,Win32,59.95203837,6126be630953fe354ba4f78f,64c7fed44a04f777bb1e18ce,64c8013a1a75fd3d4ce05b19,right,1,1,0.2429,2,0.053011744,0.154,26,0,26,0,1,,,,,,,,,,
,,657439,001,2023-07-31_20h46.19.139,arm3_eps,2022.2.5,Win32,59.95203837,6126be630953fe354ba4f78f,64c7fed44a04f777bb1e18ce,64c8013a1a75fd3d4ce05b19,right,1,1,0.2429,2,0.035804522,0.291,27,0,27,0,1,,,,,,,,,,
,,657439,001,2023-07-31_20h46.19.139,arm3_eps,2022.2.5,Win32,59.95203837,6126be630953fe354ba4f78f,64c7fed44a04f777bb1e18ce,64c8013a1a75fd3d4ce05b19,right,1,1,0.2429,2,0.052978791,0.352,28,0,28,0,1,,,,,,,,,,
,,657439,001,2023-07-31_20h46.19.139,arm3_eps,2022.2.5,Win32,59.95203837,6126be630953fe354ba4f78f,64c7fed44a04f777bb1e18ce,64c8013a1a75fd3d4ce05b19,right,1,1,0.2429,2,0.066753676,0.423,29,0,29,0,1,,,,,,,,,,
,,657439,001,2023-07-31_20h46.19.139,arm3_eps,2022.2.5,Win32,59.95203837,6126be630953fe354ba4f78f,64c7fed44a04f777bb1e18ce,64c8013a1a75fd3d4ce05b19,down,-1,1,0.2429,1,0,1.437,30,0,30,0,1,,,,,,,,,,
,,657439,001,2023-07-31_20h46.19.139,arm3_eps,2022.2.5,Win32,59.95203837,6126be630953fe354ba4f78f,64c7fed44a04f777bb1e18ce,64c8013a1a75fd3d4ce05b19,right,-1,1,0.2429,1,-0.002941466,1.467,31,0,31,0,1,,,,,,,,,,
,,657439,001,2023-07-31_20h46.19.139,arm3_eps,2022.2.5,Win32,59.95203837,6126be630953fe354ba4f78f,64c7fed44a04f777bb1e18ce,64c8013a1a75fd3d4ce05b19,right,-1,1,0.2429,1,-0.004565708,1.153,32,0,32,0,1,,,,,,,,,,
,,657439,001,2023-07-31_20h46.19.139,arm3_eps,2022.2.5,Win32,59.95203837,6126be630953fe354ba4f78f,64c7fed44a04f777bb1e18ce,64c8013a1a75fd3d4ce05b19,right,-1,1,0.2429,1,0.034862574,0.286,33,0,33,0,1,,,,,,,,,,
,,657439,001,2023-07-31_20h46.19.139,arm3_eps,2022.2.5,Win32,59.95203837,6126be630953fe354ba4f78f,64c7fed44a04f777bb1e18ce,64c8013a1a75fd3d4ce05b19,right,-1,1,0.2429,1,0.00693763,0.252,34,0,34,0,1,,,,,,,,,,
,,657439,001,2023-07-31_20h46.19.139,arm3_eps,2022.2.5,Win32,59.95203837,6126be630953fe354ba4f78f,64c7fed44a04f777bb1e18ce,64c8013a1a75fd3d4ce05b19,right,-1,1,0.2429,1,0.028610069,0.185,35,0,35,0,1,,,,,,,,,,
,,657439,001,2023-07-31_20h46.19.139,arm3_eps,2022.2.5,Win32,59.95203837,6126be630953fe354ba4f78f,64c7fed44a04f777bb1e18ce,64c8013a1a75fd3d4ce05b19,right,-1,1,0.2429,1,0.005492023,0.185,36,0,36,0,1,,,,,,,,,,
,,657439,001,2023-07-31_20h46.19.139,arm3_eps,2022.2.5,Win32,59.95203837,6126be630953fe354ba4f78f,64c7fed44a04f777bb1e18ce,64c8013a1a75fd3d4ce05b19,right,-1,1,0.2429,1,-0.025151587,0.169,37,0,37,0,1,,,,,,,,,,
,,657439,001,2023-07-31_20h46.19.139,arm3_eps,2022.2.5,Win32,59.95203837,6126be630953fe354ba4f78f,64c7fed44a04f777bb1e18ce,64c8013a1a75fd3d4ce05b19,right,-1,1,0.2429,1,-0.022209367,0.185,38,0,38,0,1,,,,,,,,,,
,,657439,001,2023-07-31_20h46.19.139,arm3_eps,2022.2.5,Win32,59.95203837,6126be630953fe354ba4f78f,64c7fed44a04f777bb1e18ce,64c8013a1a75fd3d4ce05b19,right,-1,1,0.2429,1,-0.054205327,0.208,39,0,39,0,1,,,,,,,,,,
,,657439,001,2023-07-31_20h46.19.139,arm3_eps,2022.2.5,Win32,59.95203837,6126be630953fe354ba4f78f,64c7fed44a04f777bb1e18ce,64c8013a1a75fd3d4ce05b19,right,-1,1,0.2429,1,-0.079920955,0.185,40,0,40,0,1,,,,,,,,,,
,,657439,001,2023-07-31_20h46.19.139,arm3_eps,2022.2.5,Win32,59.95203837,6126be630953fe354ba4f78f,64c7fed44a04f777bb1e18ce,64c8013a1a75fd3d4ce05b19,right,-1,1,0.2429,1,-0.085376289,0.191,41,0,41,0,1,,,,,,,,,,
,,657439,001,2023-07-31_20h46.19.139,arm3_eps,2022.2.5,Win32,59.95203837,6126be630953fe354ba4f78f,64c7fed44a04f777bb1e18ce,64c8013a1a75fd3d4ce05b19,right,-1,1,0.2429,1,-0.113800003,0.222,42,0,42,0,1,,,,,,,,,,
,,657439,001,2023-07-31_20h46.19.139,arm3_eps,2022.2.5,Win32,59.95203837,6126be630953fe354ba4f78f,64c7fed44a04f777bb1e18ce,64c8013a1a75fd3d4ce05b19,down,1,1,0.2429,2,0,1.39,43,0,43,0,1,,,,,,,,,,
,,657439,001,2023-07-31_20h46.19.139,arm3_eps,2022.2.5,Win32,59.95203837,6126be630953fe354ba4f78f,64c7fed44a04f777bb1e18ce,64c8013a1a75fd3d4ce05b19,right,1,1,0.2429,2,0.02181057,0.931,44,0,44,0,1,,,,,,,,,,
,,657439,001,2023-07-31_20h46.19.139,arm3_eps,2022.2.5,Win32,59.95203837,6126be630953fe354ba4f78f,64c7fed44a04f777bb1e18ce,64c8013a1a75fd3d4ce05b19,right,1,1,0.2429,2,0.031315542,0.189,45,0,45,0,1,,,,,,,,,,
,,657439,001,2023-07-31_20h46.19.139,arm3_eps,2022.2.5,Win32,59.95203837,6126be630953fe354ba4f78f,64c7fed44a04f777bb1e18ce,64c8013a1a75fd3d4ce05b19,right,1,1,0.2429,2,0.046573819,0.169,46,0,46,0,1,,,,,,,,,,
,,657439,001,2023-07-31_20h46.19.139,arm3_eps,2022.2.5,Win32,59.95203837,6126be630953fe354ba4f78f,64c7fed44a04f777bb1e18ce,64c8013a1a75fd3d4ce05b19,right,1,1,0.2429,2,0.025906805,0.173,47,0,47,0,1,,,,,,,,,,
,,657439,001,2023-07-31_20h46.19.139,arm3_eps,2022.2.5,Win32,59.95203837,6126be630953fe354ba4f78f,64c7fed44a04f777bb1e18ce,64c8013a1a75fd3d4ce05b19,right,1,1,0.2429,2,0.036858907,0.168,48,0,48,0,1,,,,,,,,,,
,,657439,001,2023-07-31_20h46.19.139,arm3_eps,2022.2.5,Win32,59.95203837,6126be630953fe354ba4f78f,64c7fed44a04f777bb1e18ce,64c8013a1a75fd3d4ce05b19,right,1,1,0.2429,2,0.053661608,0.135,49,0,49,0,1,,,,,,,,,,
space,26.818,657439,001,2023-07-31_20h46.19.139,arm3_eps,2022.2.5,Win32,59.95203837,6126be630953fe354ba4f78f,64c7fed44a04f777bb1e18ce,64c8013a1a75fd3d4ce05b19,,,,,,,,,,,,,,,,,,,,,,
space,34.837,657439,001,2023-07-31_20h46.19.139,arm3_eps,2022.2.5,Win32,59.95203837,6126be630953fe354ba4f78f,64c7fed44a04f777bb1e18ce,64c8013a1a75fd3d4ce05b19,,,,,,,,,,,,,,,,,,,,,,
space,16.279,657439,001,2023-07-31_20h46.19.139,arm3_eps,2022.2.5,Win32,59.95203837,6126be630953fe354ba4f78f,64c7fed44a04f777bb1e18ce,64c8013a1a75fd3d4ce05b19,,,,,,,,,,,,,,,,,,,,,,
space,19.555,657439,001,2023-07-31_20h46.19.139,arm3_eps,2022.2.5,Win32,59.95203837,6126be630953fe354ba4f78f,64c7fed44a04f777bb1e18ce,64c8013a1a75fd3d4ce05b19,,,,,,,,,,,,,,,,,,,,,,
space,3.234,657439,001,2023-07-31_20h46.19.139,arm3_eps,2022.2.5,Win32,59.95203837,6126be630953fe354ba4f78f,64c7fed44a04f777bb1e18ce,64c8013a1a75fd3d4ce05b19,,,,,,,,,,,,,,,,,,,,,,
space,2.484,657439,001,2023-07-31_20h46.19.139,arm3_eps,2022.2.5,Win32,59.95203837,6126be630953fe354ba4f78f,64c7fed44a04f777bb1e18ce,64c8013a1a75fd3d4ce05b19,,,,,,,,,,,,,,,,,,,,,,
,,657439,001,2023-07-31_20h46.19.139,arm3_eps,2022.2.5,Win32,59.95203837,6126be630953fe354ba4f78f,64c7fed44a04f777bb1e18ce,64c8013a1a75fd3d4ce05b19,right,1,0.75,0.2429,0,0.016247257,1.567,0,0,0,0,1,,,,,,,,,,
,,657439,001,2023-07-31_20h46.19.139,arm3_eps,2022.2.5,Win32,59.95203837,6126be630953fe354ba4f78f,64c7fed44a04f777bb1e18ce,64c8013a1a75fd3d4ce05b19,right,1,0.75,0.2429,0,0.04332189,0.349,1,0,1,0,1,,,,,,,,,,
,,657439,001,2023-07-31_20h46.19.139,arm3_eps,2022.2.5,Win32,59.95203837,6126be630953fe354ba4f78f,64c7fed44a04f777bb1e18ce,64c8013a1a75fd3d4ce05b19,right,1,0.75,0.2429,0,0.052697177,0.319,2,0,2,0,1,,,,,,,,,,
,,657439,001,2023-07-31_20h46.19.139,arm3_eps,2022.2.5,Win32,59.95203837,6126be630953fe354ba4f78f,64c7fed44a04f777bb1e18ce,64c8013a1a75fd3d4ce05b19,right,1,0.75,0.2429,0,0.0716492,2.804,3,0,3,0,1,,,,,,,,,,
,,657439,001,2023-07-31_20h46.19.139,arm3_eps,2022.2.5,Win32,59.95203837,6126be630953fe354ba4f78f,64c7fed44a04f777bb1e18ce,64c8013a1a75fd3d4ce05b19,right,1,0.75,0.2429,0,0.078693321,0.346,4,0,4,0,1,,,,,,,,,,
,,657439,001,2023-07-31_20h46.19.139,arm3_eps,2022.2.5,Win32,59.95203837,6126be630953fe354ba4f78f,64c7fed44a04f777bb1e18ce,64c8013a1a75fd3d4ce05b19,right,1,0.75,0.2429,0,0.090988527,0.432,5,0,5,0,1,,,,,,,,,,
,,657439,001,2023-07-31_20h46.19.139,arm3_eps,2022.2.5,Win32,59.95203837,6126be630953fe354ba4f78f,64c7fed44a04f777bb1e18ce,64c8013a1a75fd3d4ce05b19,right,1,0.75,0.2429,0,0.111919151,1.368,6,0,6,0,1,,,,,,,,,,
,,657439,001,2023-07-31_20h46.19.139,arm3_eps,2022.2.5,Win32,59.95203837,6126be630953fe354ba4f78f,64c7fed44a04f777bb1e18ce,64c8013a1a75fd3d4ce05b19,right,1,0.75,0.2429,0,0.113224309,0.4,7,0,7,0,1,,,,,,,,,,
,,657439,001,2023-07-31_20h46.19.139,arm3_eps,2022.2.5,Win32,59.95203837,6126be630953fe354ba4f78f,64c7fed44a04f777bb1e18ce,64c8013a1a75fd3d4ce05b19,right,1,0.75,0.2429,0,0.100734389,0.383,8,0,8,0,1,,,,,,,,,,
,,657439,001,2023-07-31_20h46.19.139,arm3_eps,2022.2.5,Win32,59.95203837,6126be630953fe354ba4f78f,64c7fed44a04f777bb1e18ce,64c8013a1a75fd3d4ce05b19,right,1,0.75,0.2429,0,0.138965794,0.539,9,0,9,0,1,,,,,,,,,,
,,657439,001,2023-07-31_20h46.19.139,arm3_eps,2022.2.5,Win32,59.95203837,6126be630953fe354ba4f78f,64c7fed44a04f777bb1e18ce,64c8013a1a75fd3d4ce05b19,up,1,0.75,0.2429,1,0,2.252,10,0,10,0,1,,,,,,,,,,
,,657439,001,2023-07-31_20h46.19.139,arm3_eps,2022.2.5,Win32,59.95203837,6126be630953fe354ba4f78f,64c7fed44a04f777bb1e18ce,64c8013a1a75fd3d4ce05b19,right,1,0.75,0.2429,1,0.012590351,1.928,11,0,11,0,1,,,,,,,,,,
,,657439,001,2023-07-31_20h46.19.139,arm3_eps,2022.2.5,Win32,59.95203837,6126be630953fe354ba4f78f,64c7fed44a04f777bb1e18ce,64c8013a1a75fd3d4ce05b19,right,1,0.75,0.2429,1,0.016564847,0.701,12,0,12,0,1,,,,,,,,,,
,,657439,001,2023-07-31_20h46.19.139,arm3_eps,2022.2.5,Win32,59.95203837,6126be630953fe354ba4f78f,64c7fed44a04f777bb1e18ce,64c8013a1a75fd3d4ce05b19,right,1,0.75,0.2429,1,0.031928452,0.653,13,0,13,0,1,,,,,,,,,,
,,657439,001,2023-07-31_20h46.19.139,arm3_eps,2022.2.5,Win32,59.95203837,6126be630953fe354ba4f78f,64c7fed44a04f777bb1e18ce,64c8013a1a75fd3d4ce05b19,right,1,0.75,0.2429,1,0.018830906,1.183,14,0,14,0,1,,,,,,,,,,
,,657439,001,2023-07-31_20h46.19.139,arm3_eps,2022.2.5,Win32,59.95203837,6126be630953fe354ba4f78f,64c7fed44a04f777bb1e18ce,64c8013a1a75fd3d4ce05b19,right,1,0.75,0.2429,1,0.018311028,1.119,15,0,15,0,1,,,,,,,,,,
,,657439,001,2023-07-31_20h46.19.139,arm3_eps,2022.2.5,Win32,59.95203837,6126be630953fe354ba4f78f,64c7fed44a04f777bb1e18ce,64c8013a1a75fd3d4ce05b19,right,1,0.75,0.2429,1,0.017075268,0.616,16,0,16,0,1,,,,,,,,,,
,,657439,001,2023-07-31_20h46.19.139,arm3_eps,2022.2.5,Win32,59.95203837,6126be630953fe354ba4f78f,64c7fed44a04f777bb1e18ce,64c8013a1a75fd3d4ce05b19,up,1,0.75,0.2429,2,0,1.152,17,0,17,0,1,,,,,,,,,,
,,657439,001,2023-07-31_20h46.19.139,arm3_eps,2022.2.5,Win32,59.95203837,6126be630953fe354ba4f78f,64c7fed44a04f777bb1e18ce,64c8013a1a75fd3d4ce05b19,right,1,0.75,0.2429,2,-0.000697835,1,18,0,18,0,1,,,,,,,,,,
,,657439,001,2023-07-31_20h46.19.139,arm3_eps,2022.2.5,Win32,59.95203837,6126be630953fe354ba4f78f,64c7fed44a04f777bb1e18ce,64c8013a1a75fd3d4ce05b19,right,1,0.75,0.2429,2,0.014586451,0.382,19,0,19,0,1,,,,,,,,,,
,,657439,001,2023-07-31_20h46.19.139,arm3_eps,2022.2.5,Win32,59.95203837,6126be630953fe354ba4f78f,64c7fed44a04f777bb1e18ce,64c8013a1a75fd3d4ce05b19,right,1,0.75,0.2429,2,0.022245404,0.334,20,0,20,0,1,,,,,,,,,,
,,657439,001,2023-07-31_20h46.19.139,arm3_eps,2022.2.5,Win32,59.95203837,6126be630953fe354ba4f78f,64c7fed44a04f777bb1e18ce,64c8013a1a75fd3d4ce05b19,right,1,0.75,0.2429,2,0.015592654,0.486,21,0,21,0,1,,,,,,,,,,
,,657439,001,2023-07-31_20h46.19.139,arm3_eps,2022.2.5,Win32,59.95203837,6126be630953fe354ba4f78f,64c7fed44a04f777bb1e18ce,64c8013a1a75fd3d4ce05b19,right,1,0.75,0.2429,2,0.03566542,0.436,22,0,22,0,1,,,,,,,,,,
,,657439,001,2023-07-31_20h46.19.139,arm3_eps,2022.2.5,Win32,59.95203837,6126be630953fe354ba4f78f,64c7fed44a04f777bb1e18ce,64c8013a1a75fd3d4ce05b19,right,1,0.75,0.2429,2,0.023098527,1.089,23,0,23,0,1,,,,,,,,,,
,,657439,001,2023-07-31_20h46.19.139,arm3_eps,2022.2.5,Win32,59.95203837,6126be630953fe354ba4f78f,64c7fed44a04f777bb1e18ce,64c8013a1a75fd3d4ce05b19,right,1,0.75,0.2429,2,0.037386524,0.434,24,0,24,0,1,,,,,,,,,,
,,657439,001,2023-07-31_20h46.19.139,arm3_eps,2022.2.5,Win32,59.95203837,6126be630953fe354ba4f78f,64c7fed44a04f777bb1e18ce,64c8013a1a75fd3d4ce05b19,right,1,0.75,0.2429,2,0.050704476,0.503,25,0,25,0,1,,,,,,,,,,
,,657439,001,2023-07-31_20h46.19.139,arm3_eps,2022.2.5,Win32,59.95203837,6126be630953fe354ba4f78f,64c7fed44a04f777bb1e18ce,64c8013a1a75fd3d4ce05b19,up,1,0.75,0.2429,2,0,0.718,26,0,26,0,1,,,,,,,,,,
,,657439,001,2023-07-31_20h46.19.139,arm3_eps,2022.2.5,Win32,59.95203837,6126be630953fe354ba4f78f,64c7fed44a04f777bb1e18ce,64c8013a1a75fd3d4ce05b19,right,1,0.75,0.2429,2,0.028106434,1.05,27,0,27,0,1,,,,,,,,,,
,,657439,001,2023-07-31_20h46.19.139,arm3_eps,2022.2.5,Win32,59.95203837,6126be630953fe354ba4f78f,64c7fed44a04f777bb1e18ce,64c8013a1a75fd3d4ce05b19,right,1,0.75,0.2429,2,0.068692815,0.366,28,0,28,0,1,,,,,,,,,,
,,657439,001,2023-07-31_20h46.19.139,arm3_eps,2022.2.5,Win32,59.95203837,6126be630953fe354ba4f78f,64c7fed44a04f777bb1e18ce,64c8013a1a75fd3d4ce05b19,right,1,0.75,0.2429,2,0.074987472,0.3,29,0,29,0,1,,,,,,,,,,
,,657439,001,2023-07-31_20h46.19.139,arm3_eps,2022.2.5,Win32,59.95203837,6126be630953fe354ba4f78f,64c7fed44a04f777bb1e18ce,64c8013a1a75fd3d4ce05b19,right,1,0.75,0.2429,2,0.069277095,0.434,30,0,30,0,1,,,,,,,,,,
,,657439,001,2023-07-31_20h46.19.139,arm3_eps,2022.2.5,Win32,59.95203837,6126be630953fe354ba4f78f,64c7fed44a04f777bb1e18ce,64c8013a1a75fd3d4ce05b19,right,1,0.75,0.2429,2,0.073611378,0.403,31,0,31,0,1,,,,,,,,,,
,,657439,001,2023-07-31_20h46.19.139,arm3_eps,2022.2.5,Win32,59.95203837,6126be630953fe354ba4f78f,64c7fed44a04f777bb1e18ce,64c8013a1a75fd3d4ce05b19,right,1,0.75,0.2429,2,0.060203267,0.469,32,0,32,0,1,,,,,,,,,,
,,657439,001,2023-07-31_20h46.19.139,arm3_eps,2022.2.5,Win32,59.95203837,6126be630953fe354ba4f78f,64c7fed44a04f777bb1e18ce,64c8013a1a75fd3d4ce05b19,right,1,0.75,0.2429,2,0.066107755,0.232,33,0,33,0,1,,,,,,,,,,
,,657439,001,2023-07-31_20h46.19.139,arm3_eps,2022.2.5,Win32,59.95203837,6126be630953fe354ba4f78f,64c7fed44a04f777bb1e18ce,64c8013a1a75fd3d4ce05b19,right,1,0.75,0.2429,2,0.053951283,0.267,34,0,34,0,1,,,,,,,,,,
,,657439,001,2023-07-31_20h46.19.139,arm3_eps,2022.2.5,Win32,59.95203837,6126be630953fe354ba4f78f,64c7fed44a04f777bb1e18ce,64c8013a1a75fd3d4ce05b19,right,1,0.75,0.2429,2,0.084124815,0.217,35,0,35,0,1,,,,,,,,,,
,,657439,001,2023-07-31_20h46.19.139,arm3_eps,2022.2.5,Win32,59.95203837,6126be630953fe354ba4f78f,64c7fed44a04f777bb1e18ce,64c8013a1a75fd3d4ce05b19,right,1,0.75,0.2429,2,0.073397509,0.267,36,0,36,0,1,,,,,,,,,,
,,657439,001,2023-07-31_20h46.19.139,arm3_eps,2022.2.5,Win32,59.95203837,6126be630953fe354ba4f78f,64c7fed44a04f777bb1e18ce,64c8013a1a75fd3d4ce05b19,right,1,0.75,0.2429,2,0.105140076,0.299,37,0,37,0,1,,,,,,,,,,
,,657439,001,2023-07-31_20h46.19.139,arm3_eps,2022.2.5,Win32,59.95203837,6126be630953fe354ba4f78f,64c7fed44a04f777bb1e18ce,64c8013a1a75fd3d4ce05b19,up,1,0.75,0.2429,3,0,0.833,38,0,38,0,1,,,,,,,,,,
,,657439,001,2023-07-31_20h46.19.139,arm3_eps,2022.2.5,Win32,59.95203837,6126be630953fe354ba4f78f,64c7fed44a04f777bb1e18ce,64c8013a1a75fd3d4ce05b19,right,1,0.75,0.2429,3,0.019305762,0.83,39,0,39,0,1,,,,,,,,,,
,,657439,001,2023-07-31_20h46.19.139,arm3_eps,2022.2.5,Win32,59.95203837,6126be630953fe354ba4f78f,64c7fed44a04f777bb1e18ce,64c8013a1a75fd3d4ce05b19,right,1,0.75,0.2429,3,0.031104656,0.186,40,0,40,0,1,,,,,,,,,,
,,657439,001,2023-07-31_20h46.19.139,arm3_eps,2022.2.5,Win32,59.95203837,6126be630953fe354ba4f78f,64c7fed44a04f777bb1e18ce,64c8013a1a75fd3d4ce05b19,right,1,0.75,0.2429,3,0.073194311,0.334,41,0,41,0,1,,,,,,,,,,
,,657439,001,2023-07-31_20h46.19.139,arm3_eps,2022.2.5,Win32,59.95203837,6126be630953fe354ba4f78f,64c7fed44a04f777bb1e18ce,64c8013a1a75fd3d4ce05b19,right,1,0.75,0.2429,3,0.070703958,0.452,42,0,42,0,1,,,,,,,,,,
,,657439,001,2023-07-31_20h46.19.139,arm3_eps,2022.2.5,Win32,59.95203837,6126be630953fe354ba4f78f,64c7fed44a04f777bb1e18ce,64c8013a1a75fd3d4ce05b19,right,1,0.75,0.2429,3,0.093535878,0.25,43,0,43,0,1,,,,,,,,,,
,,657439,001,2023-07-31_20h46.19.139,arm3_eps,2022.2.5,Win32,59.95203837,6126be630953fe354ba4f78f,64c7fed44a04f777bb1e18ce,64c8013a1a75fd3d4ce05b19,right,1,0.75,0.2429,3,0.116730645,0.269,44,0,44,0,1,,,,,,,,,,
,,657439,001,2023-07-31_20h46.19.139,arm3_eps,2022.2.5,Win32,59.95203837,6126be630953fe354ba4f78f,64c7fed44a04f777bb1e18ce,64c8013a1a75fd3d4ce05b19,right,1,0.75,0.2429,3,0.126175688,0.285,45,0,45,0,1,,,,,,,,,,
,,657439,001,2023-07-31_20h46.19.139,arm3_eps,2022.2.5,Win32,59.95203837,6126be630953fe354ba4f78f,64c7fed44a04f777bb1e18ce,64c8013a1a75fd3d4ce05b19,right,1,0.75,0.2429,3,0.135719593,0.253,46,0,46,0,1,,,,,,,,,,
,,657439,001,2023-07-31_20h46.19.139,arm3_eps,2022.2.5,Win32,59.95203837,6126be630953fe354ba4f78f,64c7fed44a04f777bb1e18ce,64c8013a1a75fd3d4ce05b19,right,1,0.75,0.2429,3,0.145503429,0.501,47,0,47,0,1,,,,,,,,,,
,,657439,001,2023-07-31_20h46.19.139,arm3_eps,2022.2.5,Win32,59.95203837,6126be630953fe354ba4f78f,64c7fed44a04f777bb1e18ce,64c8013a1a75fd3d4ce05b19,up,1,0.75,0.2429,3,0,0.785,48,0,48,0,1,,,,,,,,,,
,,657439,001,2023-07-31_20h46.19.139,arm3_eps,2022.2.5,Win32,59.95203837,6126be630953fe354ba4f78f,64c7fed44a04f777bb1e18ce,64c8013a1a75fd3d4ce05b19,right,1,0.75,0.2429,3,0.011514467,0.851,49,0,49,0,1,,,,,,,,,,
space,22.744,657439,001,2023-07-31_20h46.19.139,arm3_eps,2022.2.5,Win32,59.95203837,6126be630953fe354ba4f78f,64c7fed44a04f777bb1e18ce,64c8013a1a75fd3d4ce05b19,,,,,,,,,,,,,,,,,,,,,,
space,21.391,657439,001,2023-07-31_20h46.19.139,arm3_eps,2022.2.5,Win32,59.95203837,6126be630953fe354ba4f78f,64c7fed44a04f777bb1e18ce,64c8013a1a75fd3d4ce05b19,,,,,,,,,,,,,,,,,,,,,,
space,2.367,657439,001,2023-07-31_20h46.19.139,arm3_eps,2022.2.5,Win32,59.95203837,6126be630953fe354ba4f78f,64c7fed44a04f777bb1e18ce,64c8013a1a75fd3d4ce05b19,,,,,,,,,,,,,,,,,,,,,,
,,657439,001,2023-07-31_20h46.19.139,arm3_eps,2022.2.5,Win32,59.95203837,6126be630953fe354ba4f78f,64c7fed44a04f777bb1e18ce,64c8013a1a75fd3d4ce05b19,right,1,0.75,0.05,0,0.00658914,1.258,0,0,0,0,1,,,,,,,,,,
,,657439,001,2023-07-31_20h46.19.139,arm3_eps,2022.2.5,Win32,59.95203837,6126be630953fe354ba4f78f,64c7fed44a04f777bb1e18ce,64c8013a1a75fd3d4ce05b19,right,1,0.75,0.05,0,0.007844305,0.365,1,0,1,0,1,,,,,,,,,,
,,657439,001,2023-07-31_20h46.19.139,arm3_eps,2022.2.5,Win32,59.95203837,6126be630953fe354ba4f78f,64c7fed44a04f777bb1e18ce,64c8013a1a75fd3d4ce05b19,right,1,0.75,0.05,0,-0.000563678,0.384,2,0,2,0,1,,,,,,,,,,
,,657439,001,2023-07-31_20h46.19.139,arm3_eps,2022.2.5,Win32,59.95203837,6126be630953fe354ba4f78f,64c7fed44a04f777bb1e18ce,64c8013a1a75fd3d4ce05b19,right,1,0.75,0.05,0,0.055194675,0.287,3,0,3,0,1,,,,,,,,,,
,,657439,001,2023-07-31_20h46.19.139,arm3_eps,2022.2.5,Win32,59.95203837,6126be630953fe354ba4f78f,64c7fed44a04f777bb1e18ce,64c8013a1a75fd3d4ce05b19,right,1,0.75,0.05,0,0.047915144,0.334,4,0,4,0,1,,,,,,,,,,
,,657439,001,2023-07-31_20h46.19.139,arm3_eps,2022.2.5,Win32,59.95203837,6126be630953fe354ba4f78f,64c7fed44a04f777bb1e18ce,64c8013a1a75fd3d4ce05b19,right,1,0.75,0.05,0,0.058986452,0.466,5,0,5,0,1,,,,,,,,,,
,,657439,001,2023-07-31_20h46.19.139,arm3_eps,2022.2.5,Win32,59.95203837,6126be630953fe354ba4f78f,64c7fed44a04f777bb1e18ce,64c8013a1a75fd3d4ce05b19,up,-1,0.75,0.05,0,0,0.884,6,0,6,0,1,,,,,,,,,,
,,657439,001,2023-07-31_20h46.19.139,arm3_eps,2022.2.5,Win32,59.95203837,6126be630953fe354ba4f78f,64c7fed44a04f777bb1e18ce,64c8013a1a75fd3d4ce05b19,right,-1,0.75,0.05,0,-0.018725098,2.032,7,0,7,0,1,,,,,,,,,,
,,657439,001,2023-07-31_20h46.19.139,arm3_eps,2022.2.5,Win32,59.95203837,6126be630953fe354ba4f78f,64c7fed44a04f777bb1e18ce,64c8013a1a75fd3d4ce05b19,right,-1,0.75,0.05,0,-0.036585042,0.349,8,0,8,0,1,,,,,,,,,,
,,657439,001,2023-07-31_20h46.19.139,arm3_eps,2022.2.5,Win32,59.95203837,6126be630953fe354ba4f78f,64c7fed44a04f777bb1e18ce,64c8013a1a75fd3d4ce05b19,right,-1,0.75,0.05,0,-0.056899131,0.268,9,0,9,0,1,,,,,,,,,,
,,657439,001,2023-07-31_20h46.19.139,arm3_eps,2022.2.5,Win32,59.95203837,6126be630953fe354ba4f78f,64c7fed44a04f777bb1e18ce,64c8013a1a75fd3d4ce05b19,right,-1,0.75,0.05,0,-0.050796739,0.269,10,0,10,0,1,,,,,,,,,,
,,657439,001,2023-07-31_20h46.19.139,arm3_eps,2022.2.5,Win32,59.95203837,6126be630953fe354ba4f78f,64c7fed44a04f777bb1e18ce,64c8013a1a75fd3d4ce05b19,right,-1,0.75,0.05,0,-0.038773645,0.332,11,0,11,0,1,,,,,,,,,,
,,657439,001,2023-07-31_20h46.19.139,arm3_eps,2022.2.5,Win32,59.95203837,6126be630953fe354ba4f78f,64c7fed44a04f777bb1e18ce,64c8013a1a75fd3d4ce05b19,right,-1,0.75,0.05,0,-0.0604822,0.3,12,0,12,0,1,,,,,,,,,,
,,657439,001,2023-07-31_20h46.19.139,arm3_eps,2022.2.5,Win32,59.95203837,6126be630953fe354ba4f78f,64c7fed44a04f777bb1e18ce,64c8013a1a75fd3d4ce05b19,down,-1,0.75,0.05,1,0,0.85,13,0,13,0,1,,,,,,,,,,
,,657439,001,2023-07-31_20h46.19.139,arm3_eps,2022.2.5,Win32,59.95203837,6126be630953fe354ba4f78f,64c7fed44a04f777bb1e18ce,64c8013a1a75fd3d4ce05b19,right,-1,0.75,0.05,1,-0.016741745,1.003,14,0,14,0,1,,,,,,,,,,
,,657439,001,2023-07-31_20h46.19.139,arm3_eps,2022.2.5,Win32,59.95203837,6126be630953fe354ba4f78f,64c7fed44a04f777bb1e18ce,64c8013a1a75fd3d4ce05b19,right,-1,0.75,0.05,1,-0.020767377,0.35,15,0,15,0,1,,,,,,,,,,
,,657439,001,2023-07-31_20h46.19.139,arm3_eps,2022.2.5,Win32,59.95203837,6126be630953fe354ba4f78f,64c7fed44a04f777bb1e18ce,64c8013a1a75fd3d4ce05b19,right,-1,0.75,0.05,1,-0.055766418,0.25,16,0,16,0,1,,,,,,,,,,
,,657439,001,2023-07-31_20h46.19.139,arm3_eps,2022.2.5,Win32,59.95203837,6126be630953fe354ba4f78f,64c7fed44a04f777bb1e18ce,64c8013a1a75fd3d4ce05b19,right,-1,0.75,0.05,1,-0.087371593,0.267,17,0,17,0,1,,,,,,,,,,
,,657439,001,2023-07-31_20h46.19.139,arm3_eps,2022.2.5,Win32,59.95203837,6126be630953fe354ba4f78f,64c7fed44a04f777bb1e18ce,64c8013a1a75fd3d4ce05b19,right,-1,0.75,0.05,1,-0.07261514,0.25,18,0,18,0,1,,,,,,,,,,
,,657439,001,2023-07-31_20h46.19.139,arm3_eps,2022.2.5,Win32,59.95203837,6126be630953fe354ba4f78f,64c7fed44a04f777bb1e18ce,64c8013a1a75fd3d4ce05b19,right,-1,0.75,0.05,1,-0.053235888,0.348,19,0,19,0,1,,,,,,,,,,
,,657439,001,2023-07-31_20h46.19.139,arm3_eps,2022.2.5,Win32,59.95203837,6126be630953fe354ba4f78f,64c7fed44a04f777bb1e18ce,64c8013a1a75fd3d4ce05b19,right,-1,0.75,0.05,1,-0.056767264,0.285,20,0,20,0,1,,,,,,,,,,
,,657439,001,2023-07-31_20h46.19.139,arm3_eps,2022.2.5,Win32,59.95203837,6126be630953fe354ba4f78f,64c7fed44a04f777bb1e18ce,64c8013a1a75fd3d4ce05b19,right,-1,0.75,0.05,1,-0.057210178,0.267,21,0,21,0,1,,,,,,,,,,
,,657439,001,2023-07-31_20h46.19.139,arm3_eps,2022.2.5,Win32,59.95203837,6126be630953fe354ba4f78f,64c7fed44a04f777bb1e18ce,64c8013a1a75fd3d4ce05b19,right,-1,0.75,0.05,1,-0.068725292,0.405,22,0,22,0,1,,,,,,,,,,
,,657439,001,2023-07-31_20h46.19.139,arm3_eps,2022.2.5,Win32,59.95203837,6126be630953fe354ba4f78f,64c7fed44a04f777bb1e18ce,64c8013a1a75fd3d4ce05b19,up,-1,0.75,0.05,0,0,0.717,23,0,23,0,1,,,,,,,,,,
,,657439,001,2023-07-31_20h46.19.139,arm3_eps,2022.2.5,Win32,59.95203837,6126be630953fe354ba4f78f,64c7fed44a04f777bb1e18ce,64c8013a1a75fd3d4ce05b19,right,-1,0.75,0.05,0,-0.030207623,0.95,24,0,24,0,1,,,,,,,,,,
,,657439,001,2023-07-31_20h46.19.139,arm3_eps,2022.2.5,Win32,59.95203837,6126be630953fe354ba4f78f,64c7fed44a04f777bb1e18ce,64c8013a1a75fd3d4ce05b19,right,-1,0.75,0.05,0,-0.06371043,0.335,25,0,25,0,1,,,,,,,,,,
,,657439,001,2023-07-31_20h46.19.139,arm3_eps,2022.2.5,Win32,59.95203837,6126be630953fe354ba4f78f,64c7fed44a04f777bb1e18ce,64c8013a1a75fd3d4ce05b19,right,-1,0.75,0.05,0,-0.079425049,0.336,26,0,26,0,1,,,,,,,,,,
,,657439,001,2023-07-31_20h46.19.139,arm3_eps,2022.2.5,Win32,59.95203837,6126be630953fe354ba4f78f,64c7fed44a04f777bb1e18ce,64c8013a1a75fd3d4ce05b19,right,-1,0.75,0.05,0,-0.097508279,0.501,27,0,27,0,1,,,,,,,,,,
,,657439,001,2023-07-31_20h46.19.139,arm3_eps,2022.2.5,Win32,59.95203837,6126be630953fe354ba4f78f,64c7fed44a04f777bb1e18ce,64c8013a1a75fd3d4ce05b19,right,-1,0.75,0.05,0,-0.106513496,0.333,28,0,28,0,1,,,,,,,,,,
,,657439,001,2023-07-31_20h46.19.139,arm3_eps,2022.2.5,Win32,59.95203837,6126be630953fe354ba4f78f,64c7fed44a04f777bb1e18ce,64c8013a1a75fd3d4ce05b19,right,-1,0.75,0.05,0,-0.101285281,0.27,29,0,29,0,1,,,,,,,,,,
,,657439,001,2023-07-31_20h46.19.139,arm3_eps,2022.2.5,Win32,59.95203837,6126be630953fe354ba4f78f,64c7fed44a04f777bb1e18ce,64c8013a1a75fd3d4ce05b19,right,-1,0.75,0.05,0,-0.119473596,0.318,30,0,30,0,1,,,,,,,,,,
,,657439,001,2023-07-31_20h46.19.139,arm3_eps,2022.2.5,Win32,59.95203837,6126be630953fe354ba4f78f,64c7fed44a04f777bb1e18ce,64c8013a1a75fd3d4ce05b19,down,-1,0.75,0.05,1,0,0.869,31,0,31,0,1,,,,,,,,,,
,,657439,001,2023-07-31_20h46.19.139,arm3_eps,2022.2.5,Win32,59.95203837,6126be630953fe354ba4f78f,64c7fed44a04f777bb1e18ce,64c8013a1a75fd3d4ce05b19,right,-1,0.75,0.05,1,0.020116763,1.216,32,0,32,0,1,,,,,,,,,,
,,657439,001,2023-07-31_20h46.19.139,arm3_eps,2022.2.5,Win32,59.95203837,6126be630953fe354ba4f78f,64c7fed44a04f777bb1e18ce,64c8013a1a75fd3d4ce05b19,right,-1,0.75,0.05,1,0.005342625,0.2,33,0,33,0,1,,,,,,,,,,
,,657439,001,2023-07-31_20h46.19.139,arm3_eps,2022.2.5,Win32,59.95203837,6126be630953fe354ba4f78f,64c7fed44a04f777bb1e18ce,64c8013a1a75fd3d4ce05b19,right,-1,0.75,0.05,1,-0.034279559,0.502,34,0,34,0,1,,,,,,,,,,
,,657439,001,2023-07-31_20h46.19.139,arm3_eps,2022.2.5,Win32,59.95203837,6126be630953fe354ba4f78f,64c7fed44a04f777bb1e18ce,64c8013a1a75fd3d4ce05b19,right,-1,0.75,0.05,1,-0.073470304,0.551,35,0,35,0,1,,,,,,,,,,
,,657439,001,2023-07-31_20h46.19.139,arm3_eps,2022.2.5,Win32,59.95203837,6126be630953fe354ba4f78f,64c7fed44a04f777bb1e18ce,64c8013a1a75fd3d4ce05b19,right,-1,0.75,0.05,1,-0.072112702,1.019,36,0,36,0,1,,,,,,,,,,
,,657439,001,2023-07-31_20h46.19.139,arm3_eps,2022.2.5,Win32,59.95203837,6126be630953fe354ba4f78f,64c7fed44a04f777bb1e18ce,64c8013a1a75fd3d4ce05b19,right,-1,0.75,0.05,1,-0.046296995,0.216,37,0,37,0,1,,,,,,,,,,
,,657439,001,2023-07-31_20h46.19.139,arm3_eps,2022.2.5,Win32,59.95203837,6126be630953fe354ba4f78f,64c7fed44a04f777bb1e18ce,64c8013a1a75fd3d4ce05b19,right,-1,0.75,0.05,1,-0.035639371,0.498,38,0,38,0,1,,,,,,,,,,
,,657439,001,2023-07-31_20h46.19.139,arm3_eps,2022.2.5,Win32,59.95203837,6126be630953fe354ba4f78f,64c7fed44a04f777bb1e18ce,64c8013a1a75fd3d4ce05b19,up,-1,0.75,0.05,1,0,0.781,39,0,39,0,1,,,,,,,,,,
,,657439,001,2023-07-31_20h46.19.139,arm3_eps,2022.2.5,Win32,59.95203837,6126be630953fe354ba4f78f,64c7fed44a04f777bb1e18ce,64c8013a1a75fd3d4ce05b19,right,-1,0.75,0.05,1,0.014700826,0.885,40,0,40,0,1,,,,,,,,,,
,,657439,001,2023-07-31_20h46.19.139,arm3_eps,2022.2.5,Win32,59.95203837,6126be630953fe354ba4f78f,64c7fed44a04f777bb1e18ce,64c8013a1a75fd3d4ce05b19,right,-1,0.75,0.05,1,-0.007002746,0.232,41,0,41,0,1,,,,,,,,,,
,,657439,001,2023-07-31_20h46.19.139,arm3_eps,2022.2.5,Win32,59.95203837,6126be630953fe354ba4f78f,64c7fed44a04f777bb1e18ce,64c8013a1a75fd3d4ce05b19,right,-1,0.75,0.05,1,-0.011563538,0.434,42,0,42,0,1,,,,,,,,,,
,,657439,001,2023-07-31_20h46.19.139,arm3_eps,2022.2.5,Win32,59.95203837,6126be630953fe354ba4f78f,64c7fed44a04f777bb1e18ce,64c8013a1a75fd3d4ce05b19,right,-1,0.75,0.05,1,-0.000924267,0.85,43,0,43,0,1,,,,,,,,,,
,,657439,001,2023-07-31_20h46.19.139,arm3_eps,2022.2.5,Win32,59.95203837,6126be630953fe354ba4f78f,64c7fed44a04f777bb1e18ce,64c8013a1a75fd3d4ce05b19,right,-1,0.75,0.05,1,-0.058193892,0.187,44,0,44,0,1,,,,,,,,,,
,,657439,001,2023-07-31_20h46.19.139,arm3_eps,2022.2.5,Win32,59.95203837,6126be630953fe354ba4f78f,64c7fed44a04f777bb1e18ce,64c8013a1a75fd3d4ce05b19,right,-1,0.75,0.05,1,-0.027987352,0.65,45,0,45,0,1,,,,,,,,,,
,,657439,001,2023-07-31_20h46.19.139,arm3_eps,2022.2.5,Win32,59.95203837,6126be630953fe354ba4f78f,64c7fed44a04f777bb1e18ce,64c8013a1a75fd3d4ce05b19,right,-1,0.75,0.05,1,-0.019106253,0.534,46,0,46,0,1,,,,,,,,,,
,,657439,001,2023-07-31_20h46.19.139,arm3_eps,2022.2.5,Win32,59.95203837,6126be630953fe354ba4f78f,64c7fed44a04f777bb1e18ce,64c8013a1a75fd3d4ce05b19,right,-1,0.75,0.05,1,-0.039510886,0.521,47,0,47,0,1,,,,,,,,,,
,,657439,001,2023-07-31_20h46.19.139,arm3_eps,2022.2.5,Win32,59.95203837,6126be630953fe354ba4f78f,64c7fed44a04f777bb1e18ce,64c8013a1a75fd3d4ce05b19,down,-1,0.75,0.05,1,0,0.738,48,0,48,0,1,,,,,,,,,,
,,657439,001,2023-07-31_20h46.19.139,arm3_eps,2022.2.5,Win32,59.95203837,6126be630953fe354ba4f78f,64c7fed44a04f777bb1e18ce,64c8013a1a75fd3d4ce05b19,right,-1,0.75,0.05,1,0.002345663,0.965,49,0,49,0,1,,,,,,,,,,
space,18.867,657439,001,2023-07-31_20h46.19.139,arm3_eps,2022.2.5,Win32,59.95203837,6126be630953fe354ba4f78f,64c7fed44a04f777bb1e18ce,64c8013a1a75fd3d4ce05b19,,,,,,,,,,,,,,,,,,,,,,
space,4.823,657439,001,2023-07-31_20h46.19.139,arm3_eps,2022.2.5,Win32,59.95203837,6126be630953fe354ba4f78f,64c7fed44a04f777bb1e18ce,64c8013a1a75fd3d4ce05b19,,,,,,,,,,,,,,,,,,,,,,
,,657439,001,2023-07-31_20h46.19.139,arm3_eps,2022.2.5,Win32,59.95203837,6126be630953fe354ba4f78f,64c7fed44a04f777bb1e18ce,64c8013a1a75fd3d4ce05b19,right,-1,0.75,0.5,0,-0.001593577,1.204,0,0,0,0,1,,,,,,,,,,
,,657439,001,2023-07-31_20h46.19.139,arm3_eps,2022.2.5,Win32,59.95203837,6126be630953fe354ba4f78f,64c7fed44a04f777bb1e18ce,64c8013a1a75fd3d4ce05b19,right,-1,0.75,0.5,0,0.002832878,0.196,1,0,1,0,1,,,,,,,,,,
,,657439,001,2023-07-31_20h46.19.139,arm3_eps,2022.2.5,Win32,59.95203837,6126be630953fe354ba4f78f,64c7fed44a04f777bb1e18ce,64c8013a1a75fd3d4ce05b19,right,-1,0.75,0.5,0,0.036137601,0.367,2,0,2,0,1,,,,,,,,,,
,,657439,001,2023-07-31_20h46.19.139,arm3_eps,2022.2.5,Win32,59.95203837,6126be630953fe354ba4f78f,64c7fed44a04f777bb1e18ce,64c8013a1a75fd3d4ce05b19,right,-1,0.75,0.5,0,-0.002253834,0.217,3,0,3,0,1,,,,,,,,,,
,,657439,001,2023-07-31_20h46.19.139,arm3_eps,2022.2.5,Win32,59.95203837,6126be630953fe354ba4f78f,64c7fed44a04f777bb1e18ce,64c8013a1a75fd3d4ce05b19,right,-1,0.75,0.5,0,-0.035439872,0.217,4,0,4,0,1,,,,,,,,,,
,,657439,001,2023-07-31_20h46.19.139,arm3_eps,2022.2.5,Win32,59.95203837,6126be630953fe354ba4f78f,64c7fed44a04f777bb1e18ce,64c8013a1a75fd3d4ce05b19,right,-1,0.75,0.5,0,-0.048706759,0.25,5,0,5,0,1,,,,,,,,,,
,,657439,001,2023-07-31_20h46.19.139,arm3_eps,2022.2.5,Win32,59.95203837,6126be630953fe354ba4f78f,64c7fed44a04f777bb1e18ce,64c8013a1a75fd3d4ce05b19,right,-1,0.75,0.5,0,-0.048866037,0.266,6,0,6,0,1,,,,,,,,,,
,,657439,001,2023-07-31_20h46.19.139,arm3_eps,2022.2.5,Win32,59.95203837,6126be630953fe354ba4f78f,64c7fed44a04f777bb1e18ce,64c8013a1a75fd3d4ce05b19,right,-1,0.75,0.5,0,-0.068438817,0.251,7,0,7,0,1,,,,,,,,,,
,,657439,001,2023-07-31_20h46.19.139,arm3_eps,2022.2.5,Win32,59.95203837,6126be630953fe354ba4f78f,64c7fed44a04f777bb1e18ce,64c8013a1a75fd3d4ce05b19,right,-1,0.75,0.5,0,-0.08215062,0.27,8,0,8,0,1,,,,,,,,,,
,,657439,001,2023-07-31_20h46.19.139,arm3_eps,2022.2.5,Win32,59.95203837,6126be630953fe354ba4f78f,64c7fed44a04f777bb1e18ce,64c8013a1a75fd3d4ce05b19,right,-1,0.75,0.5,0,-0.08614699,0.483,9,0,9,0,1,,,,,,,,,,
,,657439,001,2023-07-31_20h46.19.139,arm3_eps,2022.2.5,Win32,59.95203837,6126be630953fe354ba4f78f,64c7fed44a04f777bb1e18ce,64c8013a1a75fd3d4ce05b19,right,-1,0.75,0.5,0,-0.095642587,0.32,10,0,10,0,1,,,,,,,,,,
,,657439,001,2023-07-31_20h46.19.139,arm3_eps,2022.2.5,Win32,59.95203837,6126be630953fe354ba4f78f,64c7fed44a04f777bb1e18ce,64c8013a1a75fd3d4ce05b19,down,1,0.75,0.5,0,0,1.049,11,0,11,0,1,,,,,,,,,,
,,657439,001,2023-07-31_20h46.19.139,arm3_eps,2022.2.5,Win32,59.95203837,6126be630953fe354ba4f78f,64c7fed44a04f777bb1e18ce,64c8013a1a75fd3d4ce05b19,right,1,0.75,0.5,0,0.028101215,0.897,12,0,12,0,1,,,,,,,,,,
,,657439,001,2023-07-31_20h46.19.139,arm3_eps,2022.2.5,Win32,59.95203837,6126be630953fe354ba4f78f,64c7fed44a04f777bb1e18ce,64c8013a1a75fd3d4ce05b19,right,1,0.75,0.5,0,0.055503892,0.382,13,0,13,0,1,,,,,,,,,,
,,657439,001,2023-07-31_20h46.19.139,arm3_eps,2022.2.5,Win32,59.95203837,6126be630953fe354ba4f78f,64c7fed44a04f777bb1e18ce,64c8013a1a75fd3d4ce05b19,right,1,0.75,0.5,0,0.042769294,0.334,14,0,14,0,1,,,,,,,,,,
,,657439,001,2023-07-31_20h46.19.139,arm3_eps,2022.2.5,Win32,59.95203837,6126be630953fe354ba4f78f,64c7fed44a04f777bb1e18ce,64c8013a1a75fd3d4ce05b19,right,1,0.75,0.5,0,0.035495714,0.267,15,0,15,0,1,,,,,,,,,,
,,657439,001,2023-07-31_20h46.19.139,arm3_eps,2022.2.5,Win32,59.95203837,6126be630953fe354ba4f78f,64c7fed44a04f777bb1e18ce,64c8013a1a75fd3d4ce05b19,right,1,0.75,0.5,0,0.028660405,0.25,16,0,16,0,1,,,,,,,,,,
,,657439,001,2023-07-31_20h46.19.139,arm3_eps,2022.2.5,Win32,59.95203837,6126be630953fe354ba4f78f,64c7fed44a04f777bb1e18ce,64c8013a1a75fd3d4ce05b19,right,1,0.75,0.5,0,0.0240144,0.236,17,0,17,0,1,,,,,,,,,,
,,657439,001,2023-07-31_20h46.19.139,arm3_eps,2022.2.5,Win32,59.95203837,6126be630953fe354ba4f78f,64c7fed44a04f777bb1e18ce,64c8013a1a75fd3d4ce05b19,right,1,0.75,0.5,0,0.021502414,0.273,18,0,18,0,1,,,,,,,,,,
,,657439,001,2023-07-31_20h46.19.139,arm3_eps,2022.2.5,Win32,59.95203837,6126be630953fe354ba4f78f,64c7fed44a04f777bb1e18ce,64c8013a1a75fd3d4ce05b19,right,1,0.75,0.5,0,0.050669283,0.4,19,0,19,0,1,,,,,,,,,,
,,657439,001,2023-07-31_20h46.19.139,arm3_eps,2022.2.5,Win32,59.95203837,6126be630953fe354ba4f78f,64c7fed44a04f777bb1e18ce,64c8013a1a75fd3d4ce05b19,right,1,0.75,0.5,0,0.093780429,0.401,20,0,20,0,1,,,,,,,,,,
,,657439,001,2023-07-31_20h46.19.139,arm3_eps,2022.2.5,Win32,59.95203837,6126be630953fe354ba4f78f,64c7fed44a04f777bb1e18ce,64c8013a1a75fd3d4ce05b19,up,1,0.75,0.5,1,0,1.351,21,0,21,0,1,,,,,,,,,,
,,657439,001,2023-07-31_20h46.19.139,arm3_eps,2022.2.5,Win32,59.95203837,6126be630953fe354ba4f78f,64c7fed44a04f777bb1e18ce,64c8013a1a75fd3d4ce05b19,right,1,0.75,0.5,1,-0.002021688,0.921,22,0,22,0,1,,,,,,,,,,
,,657439,001,2023-07-31_20h46.19.139,arm3_eps,2022.2.5,Win32,59.95203837,6126be630953fe354ba4f78f,64c7fed44a04f777bb1e18ce,64c8013a1a75fd3d4ce05b19,right,1,0.75,0.5,1,0.025888839,0.234,23,0,23,0,1,,,,,,,,,,
,,657439,001,2023-07-31_20h46.19.139,arm3_eps,2022.2.5,Win32,59.95203837,6126be630953fe354ba4f78f,64c7fed44a04f777bb1e18ce,64c8013a1a75fd3d4ce05b19,right,1,0.75,0.5,1,0.037466162,0.451,24,0,24,0,1,,,,,,,,,,
,,657439,001,2023-07-31_20h46.19.139,arm3_eps,2022.2.5,Win32,59.95203837,6126be630953fe354ba4f78f,64c7fed44a04f777bb1e18ce,64c8013a1a75fd3d4ce05b19,right,1,0.75,0.5,1,0.051463655,0.201,25,0,25,0,1,,,,,,,,,,
,,657439,001,2023-07-31_20h46.19.139,arm3_eps,2022.2.5,Win32,59.95203837,6126be630953fe354ba4f78f,64c7fed44a04f777bb1e18ce,64c8013a1a75fd3d4ce05b19,right,1,0.75,0.5,1,0.050469981,0.268,26,0,26,0,1,,,,,,,,,,
,,657439,001,2023-07-31_20h46.19.139,arm3_eps,2022.2.5,Win32,59.95203837,6126be630953fe354ba4f78f,64c7fed44a04f777bb1e18ce,64c8013a1a75fd3d4ce05b19,right,1,0.75,0.5,1,0.054209981,0.25,27,0,27,0,1,,,,,,,,,,
,,657439,001,2023-07-31_20h46.19.139,arm3_eps,2022.2.5,Win32,59.95203837,6126be630953fe354ba4f78f,64c7fed44a04f777bb1e18ce,64c8013a1a75fd3d4ce05b19,right,1,0.75,0.5,1,0.030317757,0.418,28,0,28,0,1,,,,,,,,,,
,,657439,001,2023-07-31_20h46.19.139,arm3_eps,2022.2.5,Win32,59.95203837,6126be630953fe354ba4f78f,64c7fed44a04f777bb1e18ce,64c8013a1a75fd3d4ce05b19,right,1,0.75,0.5,1,0.023224258,0.516,29,0,29,0,1,,,,,,,,,,
,,657439,001,2023-07-31_20h46.19.139,arm3_eps,2022.2.5,Win32,59.95203837,6126be630953fe354ba4f78f,64c7fed44a04f777bb1e18ce,64c8013a1a75fd3d4ce05b19,right,1,0.75,0.5,1,0.03933117,0.418,30,0,30,0,1,,,,,,,,,,
,,657439,001,2023-07-31_20h46.19.139,arm3_eps,2022.2.5,Win32,59.95203837,6126be630953fe354ba4f78f,64c7fed44a04f777bb1e18ce,64c8013a1a75fd3d4ce05b19,right,1,0.75,0.5,1,0.032317156,0.352,31,0,31,0,1,,,,,,,,,,
,,657439,001,2023-07-31_20h46.19.139,arm3_eps,2022.2.5,Win32,59.95203837,6126be630953fe354ba4f78f,64c7fed44a04f777bb1e18ce,64c8013a1a75fd3d4ce05b19,right,1,0.75,0.5,1,0.036438797,0.45,32,0,32,0,1,,,,,,,,,,
,,657439,001,2023-07-31_20h46.19.139,arm3_eps,2022.2.5,Win32,59.95203837,6126be630953fe354ba4f78f,64c7fed44a04f777bb1e18ce,64c8013a1a75fd3d4ce05b19,up,-1,0.75,0.5,2,0,0.584,33,0,33,0,1,,,,,,,,,,
,,657439,001,2023-07-31_20h46.19.139,arm3_eps,2022.2.5,Win32,59.95203837,6126be630953fe354ba4f78f,64c7fed44a04f777bb1e18ce,64c8013a1a75fd3d4ce05b19,right,-1,0.75,0.5,2,-0.018313476,0.899,34,0,34,0,1,,,,,,,,,,
,,657439,001,2023-07-31_20h46.19.139,arm3_eps,2022.2.5,Win32,59.95203837,6126be630953fe354ba4f78f,64c7fed44a04f777bb1e18ce,64c8013a1a75fd3d4ce05b19,right,-1,0.75,0.5,2,-0.049511161,0.401,35,0,35,0,1,,,,,,,,,,
,,657439,001,2023-07-31_20h46.19.139,arm3_eps,2022.2.5,Win32,59.95203837,6126be630953fe354ba4f78f,64c7fed44a04f777bb1e18ce,64c8013a1a75fd3d4ce05b19,right,-1,0.75,0.5,2,-0.059825516,0.249,36,0,36,0,1,,,,,,,,,,
,,657439,001,2023-07-31_20h46.19.139,arm3_eps,2022.2.5,Win32,59.95203837,6126be630953fe354ba4f78f,64c7fed44a04f777bb1e18ce,64c8013a1a75fd3d4ce05b19,right,-1,0.75,0.5,2,-0.058719373,0.219,37,0,37,0,1,,,,,,,,,,
,,657439,001,2023-07-31_20h46.19.139,arm3_eps,2022.2.5,Win32,59.95203837,6126be630953fe354ba4f78f,64c7fed44a04f777bb1e18ce,64c8013a1a75fd3d4ce05b19,right,-1,0.75,0.5,2,-0.017376058,0.218,38,0,38,0,1,,,,,,,,,,
,,657439,001,2023-07-31_20h46.19.139,arm3_eps,2022.2.5,Win32,59.95203837,6126be630953fe354ba4f78f,64c7fed44a04f777bb1e18ce,64c8013a1a75fd3d4ce05b19,right,-1,0.75,0.5,2,-0.058651643,0.416,39,0,39,0,1,,,,,,,,,,
,,657439,001,2023-07-31_20h46.19.139,arm3_eps,2022.2.5,Win32,59.95203837,6126be630953fe354ba4f78f,64c7fed44a04f777bb1e18ce,64c8013a1a75fd3d4ce05b19,right,-1,0.75,0.5,2,-0.0851027,0.366,40,0,40,0,1,,,,,,,,,,
,,657439,001,2023-07-31_20h46.19.139,arm3_eps,2022.2.5,Win32,59.95203837,6126be630953fe354ba4f78f,64c7fed44a04f777bb1e18ce,64c8013a1a75fd3d4ce05b19,down,1,0.75,0.5,2,0,0.423,41,0,41,0,1,,,,,,,,,,
,,657439,001,2023-07-31_20h46.19.139,arm3_eps,2022.2.5,Win32,59.95203837,6126be630953fe354ba4f78f,64c7fed44a04f777bb1e18ce,64c8013a1a75fd3d4ce05b19,right,1,0.75,0.5,2,0.019027424,1.149,42,0,42,0,1,,,,,,,,,,
,,657439,001,2023-07-31_20h46.19.139,arm3_eps,2022.2.5,Win32,59.95203837,6126be630953fe354ba4f78f,64c7fed44a04f777bb1e18ce,64c8013a1a75fd3d4ce05b19,right,1,0.75,0.5,2,0.040077065,0.2,43,0,43,0,1,,,,,,,,,,
,,657439,001,2023-07-31_20h46.19.139,arm3_eps,2022.2.5,Win32,59.95203837,6126be630953fe354ba4f78f,64c7fed44a04f777bb1e18ce,64c8013a1a75fd3d4ce05b19,right,1,0.75,0.5,2,0.062522053,0.181,44,0,44,0,1,,,,,,,,,,
,,657439,001,2023-07-31_20h46.19.139,arm3_eps,2022.2.5,Win32,59.95203837,6126be630953fe354ba4f78f,64c7fed44a04f777bb1e18ce,64c8013a1a75fd3d4ce05b19,right,1,0.75,0.5,2,0.046733957,0.167,45,0,45,0,1,,,,,,,,,,
,,657439,001,2023-07-31_20h46.19.139,arm3_eps,2022.2.5,Win32,59.95203837,6126be630953fe354ba4f78f,64c7fed44a04f777bb1e18ce,64c8013a1a75fd3d4ce05b19,right,1,0.75,0.5,2,0.071713183,0.436,46,0,46,0,1,,,,,,,,,,
,,657439,001,2023-07-31_20h46.19.139,arm3_eps,2022.2.5,Win32,59.95203837,6126be630953fe354ba4f78f,64c7fed44a04f777bb1e18ce,64c8013a1a75fd3d4ce05b19,right,1,0.75,0.5,2,0.060524171,0.383,47,0,47,0,1,,,,,,,,,,
,,657439,001,2023-07-31_20h46.19.139,arm3_eps,2022.2.5,Win32,59.95203837,6126be630953fe354ba4f78f,64c7fed44a04f777bb1e18ce,64c8013a1a75fd3d4ce05b19,right,1,0.75,0.5,2,0.100870485,0.3,48,0,48,0,1,,,,,,,,,,
,,657439,001,2023-07-31_20h46.19.139,arm3_eps,2022.2.5,Win32,59.95203837,6126be630953fe354ba4f78f,64c7fed44a04f777bb1e18ce,64c8013a1a75fd3d4ce05b19,up,1,0.75,0.5,2,0.100870485,0.582,49,0,49,0,1,,,,,,,,,,
space,1.881,657439,001,2023-07-31_20h46.19.139,arm3_eps,2022.2.5,Win32,59.95203837,6126be630953fe354ba4f78f,64c7fed44a04f777bb1e18ce,64c8013a1a75fd3d4ce05b19,,,,,,,,,,,,,,,,,,,,,,
space,3.911,657439,001,2023-07-31_20h46.19.139,arm3_eps,2022.2.5,Win32,59.95203837,6126be630953fe354ba4f78f,64c7fed44a04f777bb1e18ce,64c8013a1a75fd3d4ce05b19,right,1,0.75,0.4357,0,-0.050866774,2.267,,,,,,0,0,0,0,1,,,,,
,,657439,001,2023-07-31_20h46.19.139,arm3_eps,2022.2.5,Win32,59.95203837,6126be630953fe354ba4f78f,64c7fed44a04f777bb1e18ce,64c8013a1a75fd3d4ce05b19,right,1,0.75,0.4357,0,-0.058171094,0.182,,,,,,1,0,1,0,1,,,,,
,,657439,001,2023-07-31_20h46.19.139,arm3_eps,2022.2.5,Win32,59.95203837,6126be630953fe354ba4f78f,64c7fed44a04f777bb1e18ce,64c8013a1a75fd3d4ce05b19,right,1,0.75,0.4357,0,-0.057811143,0.201,,,,,,2,0,2,0,1,,,,,
,,657439,001,2023-07-31_20h46.19.139,arm3_eps,2022.2.5,Win32,59.95203837,6126be630953fe354ba4f78f,64c7fed44a04f777bb1e18ce,64c8013a1a75fd3d4ce05b19,right,1,0.75,0.4357,0,-0.04366274,0.201,,,,,,3,0,3,0,1,,,,,
,,657439,001,2023-07-31_20h46.19.139,arm3_eps,2022.2.5,Win32,59.95203837,6126be630953fe354ba4f78f,64c7fed44a04f777bb1e18ce,64c8013a1a75fd3d4ce05b19,right,1,0.75,0.4357,0,-0.012779892,0.351,,,,,,4,0,4,0,1,,,,,
,,657439,001,2023-07-31_20h46.19.139,arm3_eps,2022.2.5,Win32,59.95203837,6126be630953fe354ba4f78f,64c7fed44a04f777bb1e18ce,64c8013a1a75fd3d4ce05b19,right,1,0.75,0.4357,0,0.012955689,0.17,,,,,,5,0,5,0,1,,,,,
,,657439,001,2023-07-31_20h46.19.139,arm3_eps,2022.2.5,Win32,59.95203837,6126be630953fe354ba4f78f,64c7fed44a04f777bb1e18ce,64c8013a1a75fd3d4ce05b19,up,-1,0.75,0.4357,1,0,0.769,,,,,,6,0,6,0,1,,,,,
,,657439,001,2023-07-31_20h46.19.139,arm3_eps,2022.2.5,Win32,59.95203837,6126be630953fe354ba4f78f,64c7fed44a04f777bb1e18ce,64c8013a1a75fd3d4ce05b19,right,-1,0.75,0.4357,1,-0.008718026,0.968,,,,,,7,0,7,0,1,,,,,
,,657439,001,2023-07-31_20h46.19.139,arm3_eps,2022.2.5,Win32,59.95203837,6126be630953fe354ba4f78f,64c7fed44a04f777bb1e18ce,64c8013a1a75fd3d4ce05b19,right,-1,0.75,0.4357,1,-0.029088326,0.249,,,,,,8,0,8,0,1,,,,,
,,657439,001,2023-07-31_20h46.19.139,arm3_eps,2022.2.5,Win32,59.95203837,6126be630953fe354ba4f78f,64c7fed44a04f777bb1e18ce,64c8013a1a75fd3d4ce05b19,right,-1,0.75,0.4357,1,-0.054077453,0.183,,,,,,9,0,9,0,1,,,,,
,,657439,001,2023-07-31_20h46.19.139,arm3_eps,2022.2.5,Win32,59.95203837,6126be630953fe354ba4f78f,64c7fed44a04f777bb1e18ce,64c8013a1a75fd3d4ce05b19,right,-1,0.75,0.4357,1,-0.060677876,0.365,,,,,,10,0,10,0,1,,,,,
,,657439,001,2023-07-31_20h46.19.139,arm3_eps,2022.2.5,Win32,59.95203837,6126be630953fe354ba4f78f,64c7fed44a04f777bb1e18ce,64c8013a1a75fd3d4ce05b19,right,-1,0.75,0.4357,1,-0.063972247,0.35,,,,,,11,0,11,0,1,,,,,
,,657439,001,2023-07-31_20h46.19.139,arm3_eps,2022.2.5,Win32,59.95203837,6126be630953fe354ba4f78f,64c7fed44a04f777bb1e18ce,64c8013a1a75fd3d4ce05b19,down,1,0.75,0.4357,1,0,0.583,,,,,,12,0,12,0,1,,,,,
,,657439,001,2023-07-31_20h46.19.139,arm3_eps,2022.2.5,Win32,59.95203837,6126be630953fe354ba4f78f,64c7fed44a04f777bb1e18ce,64c8013a1a75fd3d4ce05b19,right,1,0.75,0.4357,1,0.009207419,1.066,,,,,,13,0,13,0,1,,,,,
,,657439,001,2023-07-31_20h46.19.139,arm3_eps,2022.2.5,Win32,59.95203837,6126be630953fe354ba4f78f,64c7fed44a04f777bb1e18ce,64c8013a1a75fd3d4ce05b19,right,1,0.75,0.4357,1,0.022007539,0.181,,,,,,14,0,14,0,1,,,,,
,,657439,001,2023-07-31_20h46.19.139,arm3_eps,2022.2.5,Win32,59.95203837,6126be630953fe354ba4f78f,64c7fed44a04f777bb1e18ce,64c8013a1a75fd3d4ce05b19,right,1,0.75,0.4357,1,0.006332338,0.152,,,,,,15,0,15,0,1,,,,,
,,657439,001,2023-07-31_20h46.19.139,arm3_eps,2022.2.5,Win32,59.95203837,6126be630953fe354ba4f78f,64c7fed44a04f777bb1e18ce,64c8013a1a75fd3d4ce05b19,right,1,0.75,0.4357,1,0.019769898,0.139,,,,,,16,0,16,0,1,,,,,
,,657439,001,2023-07-31_20h46.19.139,arm3_eps,2022.2.5,Win32,59.95203837,6126be630953fe354ba4f78f,64c7fed44a04f777bb1e18ce,64c8013a1a75fd3d4ce05b19,right,1,0.75,0.4357,1,0.021317064,0.317,,,,,,17,0,17,0,1,,,,,
,,657439,001,2023-07-31_20h46.19.139,arm3_eps,2022.2.5,Win32,59.95203837,6126be630953fe354ba4f78f,64c7fed44a04f777bb1e18ce,64c8013a1a75fd3d4ce05b19,right,1,0.75,0.4357,1,0.03898214,0.168,,,,,,18,0,18,0,1,,,,,
,,657439,001,2023-07-31_20h46.19.139,arm3_eps,2022.2.5,Win32,59.95203837,6126be630953fe354ba4f78f,64c7fed44a04f777bb1e18ce,64c8013a1a75fd3d4ce05b19,right,1,0.75,0.4357,1,0.043903413,0.333,,,,,,19,0,19,0,1,,,,,
,,657439,001,2023-07-31_20h46.19.139,arm3_eps,2022.2.5,Win32,59.95203837,6126be630953fe354ba4f78f,64c7fed44a04f777bb1e18ce,64c8013a1a75fd3d4ce05b19,right,1,0.75,0.4357,1,0.036048638,0.433,,,,,,20,0,20,0,1,,,,,
,,657439,001,2023-07-31_20h46.19.139,arm3_eps,2022.2.5,Win32,59.95203837,6126be630953fe354ba4f78f,64c7fed44a04f777bb1e18ce,64c8013a1a75fd3d4ce05b19,right,1,0.75,0.4357,1,0.036755505,0.183,,,,,,21,0,21,0,1,,,,,
,,657439,001,2023-07-31_20h46.19.139,arm3_eps,2022.2.5,Win32,59.95203837,6126be630953fe354ba4f78f,64c7fed44a04f777bb1e18ce,64c8013a1a75fd3d4ce05b19,up,1,0.75,0.4357,1,0,0.684,,,,,,22,0,22,0,1,,,,,
,,657439,001,2023-07-31_20h46.19.139,arm3_eps,2022.2.5,Win32,59.95203837,6126be630953fe354ba4f78f,64c7fed44a04f777bb1e18ce,64c8013a1a75fd3d4ce05b19,right,1,0.75,0.4357,1,-0.023992441,0.834,,,,,,23,0,23,0,1,,,,,
,,657439,001,2023-07-31_20h46.19.139,arm3_eps,2022.2.5,Win32,59.95203837,6126be630953fe354ba4f78f,64c7fed44a04f777bb1e18ce,64c8013a1a75fd3d4ce05b19,right,1,0.75,0.4357,1,-0.015769814,0.152,,,,,,24,0,24,0,1,,,,,
,,657439,001,2023-07-31_20h46.19.139,arm3_eps,2022.2.5,Win32,59.95203837,6126be630953fe354ba4f78f,64c7fed44a04f777bb1e18ce,64c8013a1a75fd3d4ce05b19,right,1,0.75,0.4357,1,-0.029101661,0.202,,,,,,25,0,25,0,1,,,,,
,,657439,001,2023-07-31_20h46.19.139,arm3_eps,2022.2.5,Win32,59.95203837,6126be630953fe354ba4f78f,64c7fed44a04f777bb1e18ce,64c8013a1a75fd3d4ce05b19,right,1,0.75,0.4357,1,-0.026235381,0.384,,,,,,26,0,26,0,1,,,,,
,,657439,001,2023-07-31_20h46.19.139,arm3_eps,2022.2.5,Win32,59.95203837,6126be630953fe354ba4f78f,64c7fed44a04f777bb1e18ce,64c8013a1a75fd3d4ce05b19,right,1,0.75,0.4357,1,-0.018774606,0.769,,,,,,27,0,27,0,1,,,,,
,,657439,001,2023-07-31_20h46.19.139,arm3_eps,2022.2.5,Win32,59.95203837,6126be630953fe354ba4f78f,64c7fed44a04f777bb1e18ce,64c8013a1a75fd3d4ce05b19,right,1,0.75,0.4357,1,-0.010827297,0.466,,,,,,28,0,28,0,1,,,,,
,,657439,001,2023-07-31_20h46.19.139,arm3_eps,2022.2.5,Win32,59.95203837,6126be630953fe354ba4f78f,64c7fed44a04f777bb1e18ce,64c8013a1a75fd3d4ce05b19,right,1,0.75,0.4357,1,0.007808797,0.534,,,,,,29,0,29,0,1,,,,,
,,657439,001,2023-07-31_20h46.19.139,arm3_eps,2022.2.5,Win32,59.95203837,6126be630953fe354ba4f78f,64c7fed44a04f777bb1e18ce,64c8013a1a75fd3d4ce05b19,right,1,0.75,0.4357,1,-0.004189854,0.551,,,,,,30,0,30,0,1,,,,,
,,657439,001,2023-07-31_20h46.19.139,arm3_eps,2022.2.5,Win32,59.95203837,6126be630953fe354ba4f78f,64c7fed44a04f777bb1e18ce,64c8013a1a75fd3d4ce05b19,down,-1,0.75,0.4357,0,0,0.868,,,,,,31,0,31,0,1,,,,,
,,657439,001,2023-07-31_20h46.19.139,arm3_eps,2022.2.5,Win32,59.95203837,6126be630953fe354ba4f78f,64c7fed44a04f777bb1e18ce,64c8013a1a75fd3d4ce05b19,right,-1,0.75,0.4357,0,-0.027205701,0.866,,,,,,32,0,32,0,1,,,,,
,,657439,001,2023-07-31_20h46.19.139,arm3_eps,2022.2.5,Win32,59.95203837,6126be630953fe354ba4f78f,64c7fed44a04f777bb1e18ce,64c8013a1a75fd3d4ce05b19,right,-1,0.75,0.4357,0,-0.056091572,0.182,,,,,,33,0,33,0,1,,,,,
,,657439,001,2023-07-31_20h46.19.139,arm3_eps,2022.2.5,Win32,59.95203837,6126be630953fe354ba4f78f,64c7fed44a04f777bb1e18ce,64c8013a1a75fd3d4ce05b19,right,-1,0.75,0.4357,0,-0.051160845,0.218,,,,,,34,0,34,0,1,,,,,
,,657439,001,2023-07-31_20h46.19.139,arm3_eps,2022.2.5,Win32,59.95203837,6126be630953fe354ba4f78f,64c7fed44a04f777bb1e18ce,64c8013a1a75fd3d4ce05b19,right,-1,0.75,0.4357,0,-0.044671989,0.468,,,,,,35,0,35,0,1,,,,,
,,657439,001,2023-07-31_20h46.19.139,arm3_eps,2022.2.5,Win32,59.95203837,6126be630953fe354ba4f78f,64c7fed44a04f777bb1e18ce,64c8013a1a75fd3d4ce05b19,right,-1,0.75,0.4357,0,-0.049415999,0.554,,,,,,36,0,36,0,1,,,,,
,,657439,001,2023-07-31_20h46.19.139,arm3_eps,2022.2.5,Win32,59.95203837,6126be630953fe354ba4f78f,64c7fed44a04f777bb1e18ce,64c8013a1a75fd3d4ce05b19,right,-1,0.75,0.4357,0,-0.034868426,0.419,,,,,,37,0,37,0,1,,,,,
,,657439,001,2023-07-31_20h46.19.139,arm3_eps,2022.2.5,Win32,59.95203837,6126be630953fe354ba4f78f,64c7fed44a04f777bb1e18ce,64c8013a1a75fd3d4ce05b19,right,-1,0.75,0.4357,0,-0.072991313,0.336,,,,,,38,0,38,0,1,,,,,
,,657439,001,2023-07-31_20h46.19.139,arm3_eps,2022.2.5,Win32,59.95203837,6126be630953fe354ba4f78f,64c7fed44a04f777bb1e18ce,64c8013a1a75fd3d4ce05b19,right,-1,0.75,0.4357,0,-0.067791611,0.371,,,,,,39,0,39,0,1,,,,,
,,657439,001,2023-07-31_20h46.19.139,arm3_eps,2022.2.5,Win32,59.95203837,6126be630953fe354ba4f78f,64c7fed44a04f777bb1e18ce,64c8013a1a75fd3d4ce05b19,right,-1,0.75,0.4357,0,-0.045694224,0.316,,,,,,40,0,40,0,1,,,,,
,,657439,001,2023-07-31_20h46.19.139,arm3_eps,2022.2.5,Win32,59.95203837,6126be630953fe354ba4f78f,64c7fed44a04f777bb1e18ce,64c8013a1a75fd3d4ce05b19,right,-1,0.75,0.4357,0,-0.052391695,0.699,,,,,,41,0,41,0,1,,,,,
,,657439,001,2023-07-31_20h46.19.139,arm3_eps,2022.2.5,Win32,59.95203837,6126be630953fe354ba4f78f,64c7fed44a04f777bb1e18ce,64c8013a1a75fd3d4ce05b19,down,1,0.75,0.4357,1,0,0.6,,,,,,42,0,42,0,1,,,,,
,,657439,001,2023-07-31_20h46.19.139,arm3_eps,2022.2.5,Win32,59.95203837,6126be630953fe354ba4f78f,64c7fed44a04f777bb1e18ce,64c8013a1a75fd3d4ce05b19,right,1,0.75,0.4357,1,0.008401361,0.849,,,,,,43,0,43,0,1,,,,,
,,657439,001,2023-07-31_20h46.19.139,arm3_eps,2022.2.5,Win32,59.95203837,6126be630953fe354ba4f78f,64c7fed44a04f777bb1e18ce,64c8013a1a75fd3d4ce05b19,right,1,0.75,0.4357,1,-0.032880285,0.205,,,,,,44,0,44,0,1,,,,,
,,657439,001,2023-07-31_20h46.19.139,arm3_eps,2022.2.5,Win32,59.95203837,6126be630953fe354ba4f78f,64c7fed44a04f777bb1e18ce,64c8013a1a75fd3d4ce05b19,right,1,0.75,0.4357,1,-0.015242044,0.2,,,,,,45,0,45,0,1,,,,,
,,657439,001,2023-07-31_20h46.19.139,arm3_eps,2022.2.5,Win32,59.95203837,6126be630953fe354ba4f78f,64c7fed44a04f777bb1e18ce,64c8013a1a75fd3d4ce05b19,right,1,0.75,0.4357,1,-0.0148506,0.417,,,,,,46,0,46,0,1,,,,,
,,657439,001,2023-07-31_20h46.19.139,arm3_eps,2022.2.5,Win32,59.95203837,6126be630953fe354ba4f78f,64c7fed44a04f777bb1e18ce,64c8013a1a75fd3d4ce05b19,right,1,0.75,0.4357,1,0.027625047,0.467,,,,,,47,0,47,0,1,,,,,
,,657439,001,2023-07-31_20h46.19.139,arm3_eps,2022.2.5,Win32,59.95203837,6126be630953fe354ba4f78f,64c7fed44a04f777bb1e18ce,64c8013a1a75fd3d4ce05b19,right,1,0.75,0.4357,1,0.040152066,0.217,,,,,,48,0,48,0,1,,,,,
,,657439,001,2023-07-31_20h46.19.139,arm3_eps,2022.2.5,Win32,59.95203837,6126be630953fe354ba4f78f,64c7fed44a04f777bb1e18ce,64c8013a1a75fd3d4ce05b19,right,1,0.75,0.4357,1,0.038049635,0.299,,,,,,49,0,49,0,1,,,,,
,,657439,001,2023-07-31_20h46.19.139,arm3_eps,2022.2.5,Win32,59.95203837,6126be630953fe354ba4f78f,64c7fed44a04f777bb1e18ce,64c8013a1a75fd3d4ce05b19,right,1,0.75,0.4357,1,0.040623513,0.45,,,,,,50,0,50,0,1,,,,,
,,657439,001,2023-07-31_20h46.19.139,arm3_eps,2022.2.5,Win32,59.95203837,6126be630953fe354ba4f78f,64c7fed44a04f777bb1e18ce,64c8013a1a75fd3d4ce05b19,right,1,0.75,0.4357,1,0.047466726,0.435,,,,,,51,0,51,0,1,,,,,
,,657439,001,2023-07-31_20h46.19.139,arm3_eps,2022.2.5,Win32,59.95203837,6126be630953fe354ba4f78f,64c7fed44a04f777bb1e18ce,64c8013a1a75fd3d4ce05b19,right,1,0.75,0.4357,1,0.061929964,0.183,,,,,,52,0,52,0,1,,,,,
,,657439,001,2023-07-31_20h46.19.139,arm3_eps,2022.2.5,Win32,59.95203837,6126be630953fe354ba4f78f,64c7fed44a04f777bb1e18ce,64c8013a1a75fd3d4ce05b19,right,1,0.75,0.4357,1,0.084183523,0.368,,,,,,53,0,53,0,1,,,,,
,,657439,001,2023-07-31_20h46.19.139,arm3_eps,2022.2.5,Win32,59.95203837,6126be630953fe354ba4f78f,64c7fed44a04f777bb1e18ce,64c8013a1a75fd3d4ce05b19,up,-1,0.75,0.4357,2,0,0.735,,,,,,54,0,54,0,1,,,,,
,,657439,001,2023-07-31_20h46.19.139,arm3_eps,2022.2.5,Win32,59.95203837,6126be630953fe354ba4f78f,64c7fed44a04f777bb1e18ce,64c8013a1a75fd3d4ce05b19,right,-1,0.75,0.4357,2,0.000730746,0.831,,,,,,55,0,55,0,1,,,,,
,,657439,001,2023-07-31_20h46.19.139,arm3_eps,2022.2.5,Win32,59.95203837,6126be630953fe354ba4f78f,64c7fed44a04f777bb1e18ce,64c8013a1a75fd3d4ce05b19,right,-1,0.75,0.4357,2,-0.030713968,0.167,,,,,,56,0,56,0,1,,,,,
,,657439,001,2023-07-31_20h46.19.139,arm3_eps,2022.2.5,Win32,59.95203837,6126be630953fe354ba4f78f,64c7fed44a04f777bb1e18ce,64c8013a1a75fd3d4ce05b19,right,-1,0.75,0.4357,2,-0.05119145,0.519,,,,,,57,0,57,0,1,,,,,
,,657439,001,2023-07-31_20h46.19.139,arm3_eps,2022.2.5,Win32,59.95203837,6126be630953fe354ba4f78f,64c7fed44a04f777bb1e18ce,64c8013a1a75fd3d4ce05b19,right,-1,0.75,0.4357,2,-0.073818685,0.17,,,,,,58,0,58,0,1,,,,,
,,657439,001,2023-07-31_20h46.19.139,arm3_eps,2022.2.5,Win32,59.95203837,6126be630953fe354ba4f78f,64c7fed44a04f777bb1e18ce,64c8013a1a75fd3d4ce05b19,right,-1,0.75,0.4357,2,-0.105053908,0.185,,,,,,59,0,59,0,1,,,,,
,,657439,001,2023-07-31_20h46.19.139,arm3_eps,2022.2.5,Win32,59.95203837,6126be630953fe354ba4f78f,64c7fed44a04f777bb1e18ce,64c8013a1a75fd3d4ce05b19,right,-1,0.75,0.4357,2,-0.096252235,0.152,,,,,,60,0,60,0,1,,,,,
,,657439,001,2023-07-31_20h46.19.139,arm3_eps,2022.2.5,Win32,59.95203837,6126be630953fe354ba4f78f,64c7fed44a04f777bb1e18ce,64c8013a1a75fd3d4ce05b19,right,-1,0.75,0.4357,2,-0.131338829,0.157,,,,,,61,0,61,0,1,,,,,
,,657439,001,2023-07-31_20h46.19.139,arm3_eps,2022.2.5,Win32,59.95203837,6126be630953fe354ba4f78f,64c7fed44a04f777bb1e18ce,64c8013a1a75fd3d4ce05b19,right,-1,0.75,0.4357,2,-0.1067152,0.151,,,,,,62,0,62,0,1,,,,,
,,657439,001,2023-07-31_20h46.19.139,arm3_eps,2022.2.5,Win32,59.95203837,6126be630953fe354ba4f78f,64c7fed44a04f777bb1e18ce,64c8013a1a75fd3d4ce05b19,right,-1,0.75,0.4357,2,-0.108904192,0.183,,,,,,63,0,63,0,1,,,,,
,,657439,001,2023-07-31_20h46.19.139,arm3_eps,2022.2.5,Win32,59.95203837,6126be630953fe354ba4f78f,64c7fed44a04f777bb1e18ce,64c8013a1a75fd3d4ce05b19,right,-1,0.75,0.4357,2,-0.11750629,0.15,,,,,,64,0,64,0,1,,,,,
,,657439,001,2023-07-31_20h46.19.139,arm3_eps,2022.2.5,Win32,59.95203837,6126be630953fe354ba4f78f,64c7fed44a04f777bb1e18ce,64c8013a1a75fd3d4ce05b19,right,-1,0.75,0.4357,2,-0.104781639,0.35,,,,,,65,0,65,0,1,,,,,
,,657439,001,2023-07-31_20h46.19.139,arm3_eps,2022.2.5,Win32,59.95203837,6126be630953fe354ba4f78f,64c7fed44a04f777bb1e18ce,64c8013a1a75fd3d4ce05b19,up,1,0.75,0.4357,1,0,1.369,,,,,,66,0,66,0,1,,,,,
,,657439,001,2023-07-31_20h46.19.139,arm3_eps,2022.2.5,Win32,59.95203837,6126be630953fe354ba4f78f,64c7fed44a04f777bb1e18ce,64c8013a1a75fd3d4ce05b19,right,1,0.75,0.4357,1,0.015970341,0.916,,,,,,67,0,67,0,1,,,,,
,,657439,001,2023-07-31_20h46.19.139,arm3_eps,2022.2.5,Win32,59.95203837,6126be630953fe354ba4f78f,64c7fed44a04f777bb1e18ce,64c8013a1a75fd3d4ce05b19,right,1,0.75,0.4357,1,0.027038061,0.152,,,,,,68,0,68,0,1,,,,,
,,657439,001,2023-07-31_20h46.19.139,arm3_eps,2022.2.5,Win32,59.95203837,6126be630953fe354ba4f78f,64c7fed44a04f777bb1e18ce,64c8013a1a75fd3d4ce05b19,right,1,0.75,0.4357,1,-0.004568102,0.138,,,,,,69,0,69,0,1,,,,,
,,657439,001,2023-07-31_20h46.19.139,arm3_eps,2022.2.5,Win32,59.95203837,6126be630953fe354ba4f78f,64c7fed44a04f777bb1e18ce,64c8013a1a75fd3d4ce05b19,right,1,0.75,0.4357,1,-0.008230494,0.356,,,,,,70,0,70,0,1,,,,,
,,657439,001,2023-07-31_20h46.19.139,arm3_eps,2022.2.5,Win32,59.95203837,6126be630953fe354ba4f78f,64c7fed44a04f777bb1e18ce,64c8013a1a75fd3d4ce05b19,right,1,0.75,0.4357,1,0.018825098,0.133,,,,,,71,0,71,0,1,,,,,
,,657439,001,2023-07-31_20h46.19.139,arm3_eps,2022.2.5,Win32,59.95203837,6126be630953fe354ba4f78f,64c7fed44a04f777bb1e18ce,64c8013a1a75fd3d4ce05b19,right,1,0.75,0.4357,1,0.042779863,0.368,,,,,,72,0,72,0,1,,,,,
,,657439,001,2023-07-31_20h46.19.139,arm3_eps,2022.2.5,Win32,59.95203837,6126be630953fe354ba4f78f,64c7fed44a04f777bb1e18ce,64c8013a1a75fd3d4ce05b19,right,1,0.75,0.4357,1,0.039206801,0.334,,,,,,73,0,73,0,1,,,,,
,,657439,001,2023-07-31_20h46.19.139,arm3_eps,2022.2.5,Win32,59.95203837,6126be630953fe354ba4f78f,64c7fed44a04f777bb1e18ce,64c8013a1a75fd3d4ce05b19,right,1,0.75,0.4357,1,0.069634366,0.351,,,,,,74,0,74,0,1,,,,,
,,657439,001,2023-07-31_20h46.19.139,arm3_eps,2022.2.5,Win32,59.95203837,6126be630953fe354ba4f78f,64c7fed44a04f777bb1e18ce,64c8013a1a75fd3d4ce05b19,right,1,0.75,0.4357,1,0.054698199,0.354,,,,,,75,0,75,0,1,,,,,
,,657439,001,2023-07-31_20h46.19.139,arm3_eps,2022.2.5,Win32,59.95203837,6126be630953fe354ba4f78f,64c7fed44a04f777bb1e18ce,64c8013a1a75fd3d4ce05b19,right,1,0.75,0.4357,1,0.045326417,1.235,,,,,,76,0,76,0,1,,,,,
,,657439,001,2023-07-31_20h46.19.139,arm3_eps,2022.2.5,Win32,59.95203837,6126be630953fe354ba4f78f,64c7fed44a04f777bb1e18ce,64c8013a1a75fd3d4ce05b19,right,1,0.75,0.4357,1,0.058546433,0.233,,,,,,77,0,77,0,1,,,,,
,,657439,001,2023-07-31_20h46.19.139,arm3_eps,2022.2.5,Win32,59.95203837,6126be630953fe354ba4f78f,64c7fed44a04f777bb1e18ce,64c8013a1a75fd3d4ce05b19,right,1,0.75,0.4357,1,0.068798859,0.421,,,,,,78,0,78,0,1,,,,,
,,657439,001,2023-07-31_20h46.19.139,arm3_eps,2022.2.5,Win32,59.95203837,6126be630953fe354ba4f78f,64c7fed44a04f777bb1e18ce,64c8013a1a75fd3d4ce05b19,up,-1,0.75,0.4357,2,0,0.572,,,,,,79,0,79,0,1,,,,,
,,657439,001,2023-07-31_20h46.19.139,arm3_eps,2022.2.5,Win32,59.95203837,6126be630953fe354ba4f78f,64c7fed44a04f777bb1e18ce,64c8013a1a75fd3d4ce05b19,right,-1,0.75,0.4357,2,-0.007947973,0.801,,,,,,80,0,80,0,1,,,,,
,,657439,001,2023-07-31_20h46.19.139,arm3_eps,2022.2.5,Win32,59.95203837,6126be630953fe354ba4f78f,64c7fed44a04f777bb1e18ce,64c8013a1a75fd3d4ce05b19,right,-1,0.75,0.4357,2,-0.016166702,0.165,,,,,,81,0,81,0,1,,,,,
,,657439,001,2023-07-31_20h46.19.139,arm3_eps,2022.2.5,Win32,59.95203837,6126be630953fe354ba4f78f,64c7fed44a04f777bb1e18ce,64c8013a1a75fd3d4ce05b19,right,-1,0.75,0.4357,2,-0.004078011,0.149,,,,,,82,0,82,0,1,,,,,
,,657439,001,2023-07-31_20h46.19.139,arm3_eps,2022.2.5,Win32,59.95203837,6126be630953fe354ba4f78f,64c7fed44a04f777bb1e18ce,64c8013a1a75fd3d4ce05b19,right,-1,0.75,0.4357,2,0.010457016,0.183,,,,,,83,0,83,0,1,,,,,
,,657439,001,2023-07-31_20h46.19.139,arm3_eps,2022.2.5,Win32,59.95203837,6126be630953fe354ba4f78f,64c7fed44a04f777bb1e18ce,64c8013a1a75fd3d4ce05b19,right,-1,0.75,0.4357,2,-0.000572877,0.167,,,,,,84,0,84,0,1,,,,,
,,657439,001,2023-07-31_20h46.19.139,arm3_eps,2022.2.5,Win32,59.95203837,6126be630953fe354ba4f78f,64c7fed44a04f777bb1e18ce,64c8013a1a75fd3d4ce05b19,right,-1,0.75,0.4357,2,-0.006606653,0.135,,,,,,85,0,85,0,1,,,,,
,,657439,001,2023-07-31_20h46.19.139,arm3_eps,2022.2.5,Win32,59.95203837,6126be630953fe354ba4f78f,64c7fed44a04f777bb1e18ce,64c8013a1a75fd3d4ce05b19,right,-1,0.75,0.4357,2,-0.053809478,0.15,,,,,,86,0,86,0,1,,,,,
,,657439,001,2023-07-31_20h46.19.139,arm3_eps,2022.2.5,Win32,59.95203837,6126be630953fe354ba4f78f,64c7fed44a04f777bb1e18ce,64c8013a1a75fd3d4ce05b19,right,-1,0.75,0.4357,2,-0.065124276,0.317,,,,,,87,0,87,0,1,,,,,
,,657439,001,2023-07-31_20h46.19.139,arm3_eps,2022.2.5,Win32,59.95203837,6126be630953fe354ba4f78f,64c7fed44a04f777bb1e18ce,64c8013a1a75fd3d4ce05b19,right,-1,0.75,0.4357,2,-0.071614982,0.2,,,,,,88,0,88,0,1,,,,,
,,657439,001,2023-07-31_20h46.19.139,arm3_eps,2022.2.5,Win32,59.95203837,6126be630953fe354ba4f78f,64c7fed44a04f777bb1e18ce,64c8013a1a75fd3d4ce05b19,down,-1,0.75,0.4357,3,0,0.583,,,,,,89,0,89,0,1,,,,,
,,657439,001,2023-07-31_20h46.19.139,arm3_eps,2022.2.5,Win32,59.95203837,6126be630953fe354ba4f78f,64c7fed44a04f777bb1e18ce,64c8013a1a75fd3d4ce05b19,right,-1,0.75,0.4357,3,-0.036242627,0.791,,,,,,90,0,90,0,1,,,,,
,,657439,001,2023-07-31_20h46.19.139,arm3_eps,2022.2.5,Win32,59.95203837,6126be630953fe354ba4f78f,64c7fed44a04f777bb1e18ce,64c8013a1a75fd3d4ce05b19,right,-1,0.75,0.4357,3,-0.041881257,0.167,,,,,,91,0,91,0,1,,,,,
,,657439,001,2023-07-31_20h46.19.139,arm3_eps,2022.2.5,Win32,59.95203837,6126be630953fe354ba4f78f,64c7fed44a04f777bb1e18ce,64c8013a1a75fd3d4ce05b19,right,-1,0.75,0.4357,3,-0.050793539,0.15,,,,,,92,0,92,0,1,,,,,
,,657439,001,2023-07-31_20h46.19.139,arm3_eps,2022.2.5,Win32,59.95203837,6126be630953fe354ba4f78f,64c7fed44a04f777bb1e18ce,64c8013a1a75fd3d4ce05b19,right,-1,0.75,0.4357,3,-0.04656369,0.152,,,,,,93,0,93,0,1,,,,,
,,657439,001,2023-07-31_20h46.19.139,arm3_eps,2022.2.5,Win32,59.95203837,6126be630953fe354ba4f78f,64c7fed44a04f777bb1e18ce,64c8013a1a75fd3d4ce05b19,right,-1,0.75,0.4357,3,-0.006862796,0.14,,,,,,94,0,94,0,1,,,,,
,,657439,001,2023-07-31_20h46.19.139,arm3_eps,2022.2.5,Win32,59.95203837,6126be630953fe354ba4f78f,64c7fed44a04f777bb1e18ce,64c8013a1a75fd3d4ce05b19,right,-1,0.75,0.4357,3,-0.020049975,0.151,,,,,,95,0,95,0,1,,,,,
,,657439,001,2023-07-31_20h46.19.139,arm3_eps,2022.2.5,Win32,59.95203837,6126be630953fe354ba4f78f,64c7fed44a04f777bb1e18ce,64c8013a1a75fd3d4ce05b19,right,-1,0.75,0.4357,3,-0.021270248,0.334,,,,,,96,0,96,0,1,,,,,
,,657439,001,2023-07-31_20h46.19.139,arm3_eps,2022.2.5,Win32,59.95203837,6126be630953fe354ba4f78f,64c7fed44a04f777bb1e18ce,64c8013a1a75fd3d4ce05b19,right,-1,0.75,0.4357,3,-0.037255662,0.183,,,,,,97,0,97,0,1,,,,,
,,657439,001,2023-07-31_20h46.19.139,arm3_eps,2022.2.5,Win32,59.95203837,6126be630953fe354ba4f78f,64c7fed44a04f777bb1e18ce,64c8013a1a75fd3d4ce05b19,right,-1,0.75,0.4357,3,-0.022923667,0.383,,,,,,98,0,98,0,1,,,,,
,,657439,001,2023-07-31_20h46.19.139,arm3_eps,2022.2.5,Win32,59.95203837,6126be630953fe354ba4f78f,64c7fed44a04f777bb1e18ce,64c8013a1a75fd3d4ce05b19,up,1,0.75,0.4357,2,0,1.085,,,,,,99,0,99,0,1,,,,,
,,657439,001,2023-07-31_20h46.19.139,arm3_eps,2022.2.5,Win32,59.95203837,6126be630953fe354ba4f78f,64c7fed44a04f777bb1e18ce,64c8013a1a75fd3d4ce05b19,right,1,0.75,0.4357,2,-0.002238707,0.78,,,,,,100,0,100,0,1,,,,,
,,657439,001,2023-07-31_20h46.19.139,arm3_eps,2022.2.5,Win32,59.95203837,6126be630953fe354ba4f78f,64c7fed44a04f777bb1e18ce,64c8013a1a75fd3d4ce05b19,right,1,0.75,0.4357,2,-0.017493102,0.138,,,,,,101,0,101,0,1,,,,,
,,657439,001,2023-07-31_20h46.19.139,arm3_eps,2022.2.5,Win32,59.95203837,6126be630953fe354ba4f78f,64c7fed44a04f777bb1e18ce,64c8013a1a75fd3d4ce05b19,right,1,0.75,0.4357,2,-0.030536973,0.167,,,,,,102,0,102,0,1,,,,,
,,657439,001,2023-07-31_20h46.19.139,arm3_eps,2022.2.5,Win32,59.95203837,6126be630953fe354ba4f78f,64c7fed44a04f777bb1e18ce,64c8013a1a75fd3d4ce05b19,right,1,0.75,0.4357,2,-0.03548785,0.133,,,,,,103,0,103,0,1,,,,,
,,657439,001,2023-07-31_20h46.19.139,arm3_eps,2022.2.5,Win32,59.95203837,6126be630953fe354ba4f78f,64c7fed44a04f777bb1e18ce,64c8013a1a75fd3d4ce05b19,right,1,0.75,0.4357,2,-0.043504964,0.149,,,,,,104,0,104,0,1,,,,,
,,657439,001,2023-07-31_20h46.19.139,arm3_eps,2022.2.5,Win32,59.95203837,6126be630953fe354ba4f78f,64c7fed44a04f777bb1e18ce,64c8013a1a75fd3d4ce05b19,right,1,0.75,0.4357,2,-0.062962969,0.167,,,,,,105,0,105,0,1,,,,,
,,657439,001,2023-07-31_20h46.19.139,arm3_eps,2022.2.5,Win32,59.95203837,6126be630953fe354ba4f78f,64c7fed44a04f777bb1e18ce,64c8013a1a75fd3d4ce05b19,right,1,0.75,0.4357,2,-0.061738825,0.366,,,,,,106,0,106,0,1,,,,,
,,657439,001,2023-07-31_20h46.19.139,arm3_eps,2022.2.5,Win32,59.95203837,6126be630953fe354ba4f78f,64c7fed44a04f777bb1e18ce,64c8013a1a75fd3d4ce05b19,right,1,0.75,0.4357,2,-0.054885293,0.149,,,,,,107,0,107,0,1,,,,,
,,657439,001,2023-07-31_20h46.19.139,arm3_eps,2022.2.5,Win32,59.95203837,6126be630953fe354ba4f78f,64c7fed44a04f777bb1e18ce,64c8013a1a75fd3d4ce05b19,right,1,0.75,0.4357,2,-0.056434416,0.35,,,,,,108,0,108,0,1,,,,,
,,657439,001,2023-07-31_20h46.19.139,arm3_eps,2022.2.5,Win32,59.95203837,6126be630953fe354ba4f78f,64c7fed44a04f777bb1e18ce,64c8013a1a75fd3d4ce05b19,right,1,0.75,0.4357,2,-0.037139816,0.467,,,,,,109,0,109,0,1,,,,,
,,657439,001,2023-07-31_20h46.19.139,arm3_eps,2022.2.5,Win32,59.95203837,6126be630953fe354ba4f78f,64c7fed44a04f777bb1e18ce,64c8013a1a75fd3d4ce05b19,up,1,0.75,0.4357,2,0,0.767,,,,,,110,0,110,0,1,,,,,
,,657439,001,2023-07-31_20h46.19.139,arm3_eps,2022.2.5,Win32,59.95203837,6126be630953fe354ba4f78f,64c7fed44a04f777bb1e18ce,64c8013a1a75fd3d4ce05b19,right,1,0.75,0.4357,2,0.011436693,0.95,,,,,,111,0,111,0,1,,,,,
,,657439,001,2023-07-31_20h46.19.139,arm3_eps,2022.2.5,Win32,59.95203837,6126be630953fe354ba4f78f,64c7fed44a04f777bb1e18ce,64c8013a1a75fd3d4ce05b19,right,1,0.75,0.4357,2,0.027874643,0.148,,,,,,112,0,112,0,1,,,,,
,,657439,001,2023-07-31_20h46.19.139,arm3_eps,2022.2.5,Win32,59.95203837,6126be630953fe354ba4f78f,64c7fed44a04f777bb1e18ce,64c8013a1a75fd3d4ce05b19,right,1,0.75,0.4357,2,0.02594399,0.167,,,,,,113,0,113,0,1,,,,,
,,657439,001,2023-07-31_20h46.19.139,arm3_eps,2022.2.5,Win32,59.95203837,6126be630953fe354ba4f78f,64c7fed44a04f777bb1e18ce,64c8013a1a75fd3d4ce05b19,right,1,0.75,0.4357,2,0.040647314,0.148,,,,,,114,0,114,0,1,,,,,
,,657439,001,2023-07-31_20h46.19.139,arm3_eps,2022.2.5,Win32,59.95203837,6126be630953fe354ba4f78f,64c7fed44a04f777bb1e18ce,64c8013a1a75fd3d4ce05b19,right,1,0.75,0.4357,2,0.064689575,0.17,,,,,,115,0,115,0,1,,,,,
,,657439,001,2023-07-31_20h46.19.139,arm3_eps,2022.2.5,Win32,59.95203837,6126be630953fe354ba4f78f,64c7fed44a04f777bb1e18ce,64c8013a1a75fd3d4ce05b19,right,1,0.75,0.4357,2,0.096496504,0.401,,,,,,116,0,116,0,1,,,,,
,,657439,001,2023-07-31_20h46.19.139,arm3_eps,2022.2.5,Win32,59.95203837,6126be630953fe354ba4f78f,64c7fed44a04f777bb1e18ce,64c8013a1a75fd3d4ce05b19,up,-1,0.75,0.4357,2,0,0.553,,,,,,117,0,117,0,1,,,,,
,,657439,001,2023-07-31_20h46.19.139,arm3_eps,2022.2.5,Win32,59.95203837,6126be630953fe354ba4f78f,64c7fed44a04f777bb1e18ce,64c8013a1a75fd3d4ce05b19,right,-1,0.75,0.4357,2,-0.006718273,0.867,,,,,,118,0,118,0,1,,,,,
,,657439,001,2023-07-31_20h46.19.139,arm3_eps,2022.2.5,Win32,59.95203837,6126be630953fe354ba4f78f,64c7fed44a04f777bb1e18ce,64c8013a1a75fd3d4ce05b19,right,-1,0.75,0.4357,2,-0.060936027,0.198,,,,,,119,0,119,0,1,,,,,
,,657439,001,2023-07-31_20h46.19.139,arm3_eps,2022.2.5,Win32,59.95203837,6126be630953fe354ba4f78f,64c7fed44a04f777bb1e18ce,64c8013a1a75fd3d4ce05b19,right,-1,0.75,0.4357,2,-0.0919175,0.15,,,,,,120,0,120,0,1,,,,,
,,657439,001,2023-07-31_20h46.19.139,arm3_eps,2022.2.5,Win32,59.95203837,6126be630953fe354ba4f78f,64c7fed44a04f777bb1e18ce,64c8013a1a75fd3d4ce05b19,right,-1,0.75,0.4357,2,-0.093656098,0.151,,,,,,121,0,121,0,1,,,,,
,,657439,001,2023-07-31_20h46.19.139,arm3_eps,2022.2.5,Win32,59.95203837,6126be630953fe354ba4f78f,64c7fed44a04f777bb1e18ce,64c8013a1a75fd3d4ce05b19,right,-1,0.75,0.4357,2,-0.105406767,0.167,,,,,,122,0,122,0,1,,,,,
,,657439,001,2023-07-31_20h46.19.139,arm3_eps,2022.2.5,Win32,59.95203837,6126be630953fe354ba4f78f,64c7fed44a04f777bb1e18ce,64c8013a1a75fd3d4ce05b19,right,-1,0.75,0.4357,2,-0.099739553,0.167,,,,,,123,0,123,0,1,,,,,
,,657439,001,2023-07-31_20h46.19.139,arm3_eps,2022.2.5,Win32,59.95203837,6126be630953fe354ba4f78f,64c7fed44a04f777bb1e18ce,64c8013a1a75fd3d4ce05b19,down,-1,0.75,0.4357,3,0,0.688,,,,,,124,0,124,0,1,,,,,
,,657439,001,2023-07-31_20h46.19.139,arm3_eps,2022.2.5,Win32,59.95203837,6126be630953fe354ba4f78f,64c7fed44a04f777bb1e18ce,64c8013a1a75fd3d4ce05b19,right,-1,0.75,0.4357,3,-0.014213544,0.801,,,,,,125,0,125,0,1,,,,,
,,657439,001,2023-07-31_20h46.19.139,arm3_eps,2022.2.5,Win32,59.95203837,6126be630953fe354ba4f78f,64c7fed44a04f777bb1e18ce,64c8013a1a75fd3d4ce05b19,right,-1,0.75,0.4357,3,-0.017251409,0.185,,,,,,126,0,126,0,1,,,,,
,,657439,001,2023-07-31_20h46.19.139,arm3_eps,2022.2.5,Win32,59.95203837,6126be630953fe354ba4f78f,64c7fed44a04f777bb1e18ce,64c8013a1a75fd3d4ce05b19,right,-1,0.75,0.4357,3,-0.035202141,0.186,,,,,,127,0,127,0,1,,,,,
,,657439,001,2023-07-31_20h46.19.139,arm3_eps,2022.2.5,Win32,59.95203837,6126be630953fe354ba4f78f,64c7fed44a04f777bb1e18ce,64c8013a1a75fd3d4ce05b19,right,-1,0.75,0.4357,3,-0.014823805,0.348,,,,,,128,0,128,0,1,,,,,
,,657439,001,2023-07-31_20h46.19.139,arm3_eps,2022.2.5,Win32,59.95203837,6126be630953fe354ba4f78f,64c7fed44a04f777bb1e18ce,64c8013a1a75fd3d4ce05b19,right,-1,0.75,0.4357,3,-0.056045053,0.172,,,,,,129,0,129,0,1,,,,,
,,657439,001,2023-07-31_20h46.19.139,arm3_eps,2022.2.5,Win32,59.95203837,6126be630953fe354ba4f78f,64c7fed44a04f777bb1e18ce,64c8013a1a75fd3d4ce05b19,right,-1,0.75,0.4357,3,-0.054150119,0.199,,,,,,130,0,130,0,1,,,,,
,,657439,001,2023-07-31_20h46.19.139,arm3_eps,2022.2.5,Win32,59.95203837,6126be630953fe354ba4f78f,64c7fed44a04f777bb1e18ce,64c8013a1a75fd3d4ce05b19,right,-1,0.75,0.4357,3,-0.050963297,0.42,,,,,,131,0,131,0,1,,,,,
,,657439,001,2023-07-31_20h46.19.139,arm3_eps,2022.2.5,Win32,59.95203837,6126be630953fe354ba4f78f,64c7fed44a04f777bb1e18ce,64c8013a1a75fd3d4ce05b19,right,-1,0.75,0.4357,3,-0.038186232,0.385,,,,,,132,0,132,0,1,,,,,
,,657439,001,2023-07-31_20h46.19.139,arm3_eps,2022.2.5,Win32,59.95203837,6126be630953fe354ba4f78f,64c7fed44a04f777bb1e18ce,64c8013a1a75fd3d4ce05b19,right,-1,0.75,0.4357,3,-0.08371368,0.521,,,,,,133,0,133,0,1,,,,,
,,657439,001,2023-07-31_20h46.19.139,arm3_eps,2022.2.5,Win32,59.95203837,6126be630953fe354ba4f78f,64c7fed44a04f777bb1e18ce,64c8013a1a75fd3d4ce05b19,down,1,0.75,0.4357,4,0,0.601,,,,,,134,0,134,0,1,,,,,
,,657439,001,2023-07-31_20h46.19.139,arm3_eps,2022.2.5,Win32,59.95203837,6126be630953fe354ba4f78f,64c7fed44a04f777bb1e18ce,64c8013a1a75fd3d4ce05b19,right,1,0.75,0.4357,4,0.009609711,0.749,,,,,,135,0,135,0,1,,,,,
,,657439,001,2023-07-31_20h46.19.139,arm3_eps,2022.2.5,Win32,59.95203837,6126be630953fe354ba4f78f,64c7fed44a04f777bb1e18ce,64c8013a1a75fd3d4ce05b19,right,1,0.75,0.4357,4,0.027084419,0.167,,,,,,136,0,136,0,1,,,,,
,,657439,001,2023-07-31_20h46.19.139,arm3_eps,2022.2.5,Win32,59.95203837,6126be630953fe354ba4f78f,64c7fed44a04f777bb1e18ce,64c8013a1a75fd3d4ce05b19,right,1,0.75,0.4357,4,0.030496609,0.152,,,,,,137,0,137,0,1,,,,,
,,657439,001,2023-07-31_20h46.19.139,arm3_eps,2022.2.5,Win32,59.95203837,6126be630953fe354ba4f78f,64c7fed44a04f777bb1e18ce,64c8013a1a75fd3d4ce05b19,right,1,0.75,0.4357,4,0.031051416,0.348,,,,,,138,0,138,0,1,,,,,
,,657439,001,2023-07-31_20h46.19.139,arm3_eps,2022.2.5,Win32,59.95203837,6126be630953fe354ba4f78f,64c7fed44a04f777bb1e18ce,64c8013a1a75fd3d4ce05b19,right,1,0.75,0.4357,4,0.060989301,0.167,,,,,,139,0,139,0,1,,,,,
,,657439,001,2023-07-31_20h46.19.139,arm3_eps,2022.2.5,Win32,59.95203837,6126be630953fe354ba4f78f,64c7fed44a04f777bb1e18ce,64c8013a1a75fd3d4ce05b19,right,1,0.75,0.4357,4,0.070715683,0.185,,,,,,140,0,140,0,1,,,,,
,,657439,001,2023-07-31_20h46.19.139,arm3_eps,2022.2.5,Win32,59.95203837,6126be630953fe354ba4f78f,64c7fed44a04f777bb1e18ce,64c8013a1a75fd3d4ce05b19,right,1,0.75,0.4357,4,0.08235989,0.165,,,,,,141,0,141,0,1,,,,,
,,657439,001,2023-07-31_20h46.19.139,arm3_eps,2022.2.5,Win32,59.95203837,6126be630953fe354ba4f78f,64c7fed44a04f777bb1e18ce,64c8013a1a75fd3d4ce05b19,up,-1,0.75,0.4357,5,0,0.752,,,,,,142,0,142,0,1,,,,,
,,657439,001,2023-07-31_20h46.19.139,arm3_eps,2022.2.5,Win32,59.95203837,6126be630953fe354ba4f78f,64c7fed44a04f777bb1e18ce,64c8013a1a75fd3d4ce05b19,right,-1,0.75,0.4357,5,-0.002621428,0.764,,,,,,143,0,143,0,1,,,,,
,,657439,001,2023-07-31_20h46.19.139,arm3_eps,2022.2.5,Win32,59.95203837,6126be630953fe354ba4f78f,64c7fed44a04f777bb1e18ce,64c8013a1a75fd3d4ce05b19,right,-1,0.75,0.4357,5,-0.024258693,0.151,,,,,,144,0,144,0,1,,,,,
,,657439,001,2023-07-31_20h46.19.139,arm3_eps,2022.2.5,Win32,59.95203837,6126be630953fe354ba4f78f,64c7fed44a04f777bb1e18ce,64c8013a1a75fd3d4ce05b19,right,-1,0.75,0.4357,5,-0.01199608,0.179,,,,,,145,0,145,0,1,,,,,
,,657439,001,2023-07-31_20h46.19.139,arm3_eps,2022.2.5,Win32,59.95203837,6126be630953fe354ba4f78f,64c7fed44a04f777bb1e18ce,64c8013a1a75fd3d4ce05b19,right,-1,0.75,0.4357,5,-0.033125039,0.131,,,,,,146,0,146,0,1,,,,,
,,657439,001,2023-07-31_20h46.19.139,arm3_eps,2022.2.5,Win32,59.95203837,6126be630953fe354ba4f78f,64c7fed44a04f777bb1e18ce,64c8013a1a75fd3d4ce05b19,right,-1,0.75,0.4357,5,-0.007205072,0.168,,,,,,147,0,147,0,1,,,,,
,,657439,001,2023-07-31_20h46.19.139,arm3_eps,2022.2.5,Win32,59.95203837,6126be630953fe354ba4f78f,64c7fed44a04f777bb1e18ce,64c8013a1a75fd3d4ce05b19,right,-1,0.75,0.4357,5,-0.023350667,0.217,,,,,,148,0,148,0,1,,,,,
,,657439,001,2023-07-31_20h46.19.139,arm3_eps,2022.2.5,Win32,59.95203837,6126be630953fe354ba4f78f,64c7fed44a04f777bb1e18ce,64c8013a1a75fd3d4ce05b19,right,-1,0.75,0.4357,5,-0.003377373,0.651,,,,,,149,0,149,0,1,,,,,
,,657439,001,2023-07-31_20h46.19.139,arm3_eps,2022.2.5,Win32,59.95203837,6126be630953fe354ba4f78f,64c7fed44a04f777bb1e18ce,64c8013a1a75fd3d4ce05b19,up,-1,0.75,0.4357,5,0,1.302,,,,,,150,0,150,0,1,,,,,
,,657439,001,2023-07-31_20h46.19.139,arm3_eps,2022.2.5,Win32,59.95203837,6126be630953fe354ba4f78f,64c7fed44a04f777bb1e18ce,64c8013a1a75fd3d4ce05b19,right,-1,0.75,0.4357,5,-0.040642675,0.83,,,,,,151,0,151,0,1,,,,,
,,657439,001,2023-07-31_20h46.19.139,arm3_eps,2022.2.5,Win32,59.95203837,6126be630953fe354ba4f78f,64c7fed44a04f777bb1e18ce,64c8013a1a75fd3d4ce05b19,right,-1,0.75,0.4357,5,-0.025861711,0.189,,,,,,152,0,152,0,1,,,,,
,,657439,001,2023-07-31_20h46.19.139,arm3_eps,2022.2.5,Win32,59.95203837,6126be630953fe354ba4f78f,64c7fed44a04f777bb1e18ce,64c8013a1a75fd3d4ce05b19,right,-1,0.75,0.4357,5,-0.032578453,0.182,,,,,,153,0,153,0,1,,,,,
,,657439,001,2023-07-31_20h46.19.139,arm3_eps,2022.2.5,Win32,59.95203837,6126be630953fe354ba4f78f,64c7fed44a04f777bb1e18ce,64c8013a1a75fd3d4ce05b19,right,-1,0.75,0.4357,5,-0.040667884,0.135,,,,,,154,0,154,0,1,,,,,
,,657439,001,2023-07-31_20h46.19.139,arm3_eps,2022.2.5,Win32,59.95203837,6126be630953fe354ba4f78f,64c7fed44a04f777bb1e18ce,64c8013a1a75fd3d4ce05b19,right,-1,0.75,0.4357,5,-0.066327325,0.167,,,,,,155,0,155,0,1,,,,,
,,657439,001,2023-07-31_20h46.19.139,arm3_eps,2022.2.5,Win32,59.95203837,6126be630953fe354ba4f78f,64c7fed44a04f777bb1e18ce,64c8013a1a75fd3d4ce05b19,right,-1,0.75,0.4357,5,-0.0756291,0.148,,,,,,156,0,156,0,1,,,,,
,,657439,001,2023-07-31_20h46.19.139,arm3_eps,2022.2.5,Win32,59.95203837,6126be630953fe354ba4f78f,64c7fed44a04f777bb1e18ce,64c8013a1a75fd3d4ce05b19,right,-1,0.75,0.4357,5,-0.048749234,0.197,,,,,,157,0,157,0,1,,,,,
,,657439,001,2023-07-31_20h46.19.139,arm3_eps,2022.2.5,Win32,59.95203837,6126be630953fe354ba4f78f,64c7fed44a04f777bb1e18ce,64c8013a1a75fd3d4ce05b19,right,-1,0.75,0.4357,5,-0.092298111,0.303,,,,,,158,0,158,0,1,,,,,
,,657439,001,2023-07-31_20h46.19.139,arm3_eps,2022.2.5,Win32,59.95203837,6126be630953fe354ba4f78f,64c7fed44a04f777bb1e18ce,64c8013a1a75fd3d4ce05b19,right,-1,0.75,0.4357,5,-0.072131671,0.867,,,,,,159,0,159,0,1,,,,,
,,657439,001,2023-07-31_20h46.19.139,arm3_eps,2022.2.5,Win32,59.95203837,6126be630953fe354ba4f78f,64c7fed44a04f777bb1e18ce,64c8013a1a75fd3d4ce05b19,down,-1,0.75,0.4357,5,0,0.852,,,,,,160,0,160,0,1,,,,,
,,657439,001,2023-07-31_20h46.19.139,arm3_eps,2022.2.5,Win32,59.95203837,6126be630953fe354ba4f78f,64c7fed44a04f777bb1e18ce,64c8013a1a75fd3d4ce05b19,right,-1,0.75,0.4357,5,-0.008510691,0.802,,,,,,161,0,161,0,1,,,,,
,,657439,001,2023-07-31_20h46.19.139,arm3_eps,2022.2.5,Win32,59.95203837,6126be630953fe354ba4f78f,64c7fed44a04f777bb1e18ce,64c8013a1a75fd3d4ce05b19,right,-1,0.75,0.4357,5,-0.056746226,0.168,,,,,,162,0,162,0,1,,,,,
,,657439,001,2023-07-31_20h46.19.139,arm3_eps,2022.2.5,Win32,59.95203837,6126be630953fe354ba4f78f,64c7fed44a04f777bb1e18ce,64c8013a1a75fd3d4ce05b19,right,-1,0.75,0.4357,5,-0.080554716,0.317,,,,,,163,0,163,0,1,,,,,
,,657439,001,2023-07-31_20h46.19.139,arm3_eps,2022.2.5,Win32,59.95203837,6126be630953fe354ba4f78f,64c7fed44a04f777bb1e18ce,64c8013a1a75fd3d4ce05b19,right,-1,0.75,0.4357,5,-0.102229844,0.148,,,,,,164,0,164,0,1,,,,,
,,657439,001,2023-07-31_20h46.19.139,arm3_eps,2022.2.5,Win32,59.95203837,6126be630953fe354ba4f78f,64c7fed44a04f777bb1e18ce,64c8013a1a75fd3d4ce05b19,right,-1,0.75,0.4357,5,-0.142422808,0.135,,,,,,165,0,165,0,1,,,,,
,,657439,001,2023-07-31_20h46.19.139,arm3_eps,2022.2.5,Win32,59.95203837,6126be630953fe354ba4f78f,64c7fed44a04f777bb1e18ce,64c8013a1a75fd3d4ce05b19,right,-1,0.75,0.4357,5,-0.170550806,0.133,,,,,,166,0,166,0,1,,,,,
,,657439,001,2023-07-31_20h46.19.139,arm3_eps,2022.2.5,Win32,59.95203837,6126be630953fe354ba4f78f,64c7fed44a04f777bb1e18ce,64c8013a1a75fd3d4ce05b19,right,-1,0.75,0.4357,5,-0.168973131,0.152,,,,,,167,0,167,0,1,,,,,
,,657439,001,2023-07-31_20h46.19.139,arm3_eps,2022.2.5,Win32,59.95203837,6126be630953fe354ba4f78f,64c7fed44a04f777bb1e18ce,64c8013a1a75fd3d4ce05b19,right,-1,0.75,0.4357,5,-0.158566766,0.189,,,,,,168,0,168,0,1,,,,,
,,657439,001,2023-07-31_20h46.19.139,arm3_eps,2022.2.5,Win32,59.95203837,6126be630953fe354ba4f78f,64c7fed44a04f777bb1e18ce,64c8013a1a75fd3d4ce05b19,right,-1,0.75,0.4357,5,-0.187497725,0.139,,,,,,169,0,169,0,1,,,,,
,,657439,001,2023-07-31_20h46.19.139,arm3_eps,2022.2.5,Win32,59.95203837,6126be630953fe354ba4f78f,64c7fed44a04f777bb1e18ce,64c8013a1a75fd3d4ce05b19,down,-1,0.75,0.4357,5,0,0.5,,,,,,170,0,170,0,1,,,,,
,,657439,001,2023-07-31_20h46.19.139,arm3_eps,2022.2.5,Win32,59.95203837,6126be630953fe354ba4f78f,64c7fed44a04f777bb1e18ce,64c8013a1a75fd3d4ce05b19,right,-1,0.75,0.4357,5,-0.011058689,0.806,,,,,,171,0,171,0,1,,,,,
,,657439,001,2023-07-31_20h46.19.139,arm3_eps,2022.2.5,Win32,59.95203837,6126be630953fe354ba4f78f,64c7fed44a04f777bb1e18ce,64c8013a1a75fd3d4ce05b19,right,-1,0.75,0.4357,5,-0.036141595,0.165,,,,,,172,0,172,0,1,,,,,
,,657439,001,2023-07-31_20h46.19.139,arm3_eps,2022.2.5,Win32,59.95203837,6126be630953fe354ba4f78f,64c7fed44a04f777bb1e18ce,64c8013a1a75fd3d4ce05b19,right,-1,0.75,0.4357,5,-0.035744454,0.184,,,,,,173,0,173,0,1,,,,,
,,657439,001,2023-07-31_20h46.19.139,arm3_eps,2022.2.5,Win32,59.95203837,6126be630953fe354ba4f78f,64c7fed44a04f777bb1e18ce,64c8013a1a75fd3d4ce05b19,right,-1,0.75,0.4357,5,-0.04780478,0.119,,,,,,174,0,174,0,1,,,,,
,,657439,001,2023-07-31_20h46.19.139,arm3_eps,2022.2.5,Win32,59.95203837,6126be630953fe354ba4f78f,64c7fed44a04f777bb1e18ce,64c8013a1a75fd3d4ce05b19,right,-1,0.75,0.4357,5,-0.083721979,0.153,,,,,,175,0,175,0,1,,,,,
,,657439,001,2023-07-31_20h46.19.139,arm3_eps,2022.2.5,Win32,59.95203837,6126be630953fe354ba4f78f,64c7fed44a04f777bb1e18ce,64c8013a1a75fd3d4ce05b19,right,-1,0.75,0.4357,5,-0.082101938,0.15,,,,,,176,0,176,0,1,,,,,
,,657439,001,2023-07-31_20h46.19.139,arm3_eps,2022.2.5,Win32,59.95203837,6126be630953fe354ba4f78f,64c7fed44a04f777bb1e18ce,64c8013a1a75fd3d4ce05b19,right,-1,0.75,0.4357,5,-0.1076492,0.147,,,,,,177,0,177,0,1,,,,,
,,657439,001,2023-07-31_20h46.19.139,arm3_eps,2022.2.5,Win32,59.95203837,6126be630953fe354ba4f78f,64c7fed44a04f777bb1e18ce,64c8013a1a75fd3d4ce05b19,right,-1,0.75,0.4357,5,-0.100627366,0.174,,,,,,178,0,178,0,1,,,,,
,,657439,001,2023-07-31_20h46.19.139,arm3_eps,2022.2.5,Win32,59.95203837,6126be630953fe354ba4f78f,64c7fed44a04f777bb1e18ce,64c8013a1a75fd3d4ce05b19,right,-1,0.75,0.4357,5,-0.117204703,0.183,,,,,,179,0,179,0,1,,,,,
,,657439,001,2023-07-31_20h46.19.139,arm3_eps,2022.2.5,Win32,59.95203837,6126be630953fe354ba4f78f,64c7fed44a04f777bb1e18ce,64c8013a1a75fd3d4ce05b19,down,-1,0.75,0.4357,5,0,0.434,,,,,,180,0,180,0,1,,,,,
,,657439,001,2023-07-31_20h46.19.139,arm3_eps,2022.2.5,Win32,59.95203837,6126be630953fe354ba4f78f,64c7fed44a04f777bb1e18ce,64c8013a1a75fd3d4ce05b19,right,-1,0.75,0.4357,5,-0.001240508,0.766,,,,,,181,0,181,0,1,,,,,
,,657439,001,2023-07-31_20h46.19.139,arm3_eps,2022.2.5,Win32,59.95203837,6126be630953fe354ba4f78f,64c7fed44a04f777bb1e18ce,64c8013a1a75fd3d4ce05b19,right,-1,0.75,0.4357,5,-0.007823657,0.167,,,,,,182,0,182,0,1,,,,,
,,657439,001,2023-07-31_20h46.19.139,arm3_eps,2022.2.5,Win32,59.95203837,6126be630953fe354ba4f78f,64c7fed44a04f777bb1e18ce,64c8013a1a75fd3d4ce05b19,right,-1,0.75,0.4357,5,-0.029882993,0.186,,,,,,183,0,183,0,1,,,,,
,,657439,001,2023-07-31_20h46.19.139,arm3_eps,2022.2.5,Win32,59.95203837,6126be630953fe354ba4f78f,64c7fed44a04f777bb1e18ce,64c8013a1a75fd3d4ce05b19,right,-1,0.75,0.4357,5,-0.055256118,0.119,,,,,,184,0,184,0,1,,,,,
,,657439,001,2023-07-31_20h46.19.139,arm3_eps,2022.2.5,Win32,59.95203837,6126be630953fe354ba4f78f,64c7fed44a04f777bb1e18ce,64c8013a1a75fd3d4ce05b19,right,-1,0.75,0.4357,5,-0.088945053,0.184,,,,,,185,0,185,0,1,,,,,
,,657439,001,2023-07-31_20h46.19.139,arm3_eps,2022.2.5,Win32,59.95203837,6126be630953fe354ba4f78f,64c7fed44a04f777bb1e18ce,64c8013a1a75fd3d4ce05b19,right,-1,0.75,0.4357,5,-0.136726657,0.147,,,,,,186,0,186,0,1,,,,,
,,657439,001,2023-07-31_20h46.19.139,arm3_eps,2022.2.5,Win32,59.95203837,6126be630953fe354ba4f78f,64c7fed44a04f777bb1e18ce,64c8013a1a75fd3d4ce05b19,right,-1,0.75,0.4357,5,-0.142435292,0.152,,,,,,187,0,187,0,1,,,,,
,,657439,001,2023-07-31_20h46.19.139,arm3_eps,2022.2.5,Win32,59.95203837,6126be630953fe354ba4f78f,64c7fed44a04f777bb1e18ce,64c8013a1a75fd3d4ce05b19,down,1,0.75,0.4357,6,0,0.301,,,,,,188,0,188,0,1,,,,,
,,657439,001,2023-07-31_20h46.19.139,arm3_eps,2022.2.5,Win32,59.95203837,6126be630953fe354ba4f78f,64c7fed44a04f777bb1e18ce,64c8013a1a75fd3d4ce05b19,right,1,0.75,0.4357,6,0.011845528,0.832,,,,,,189,0,189,0,1,,,,,
,,657439,001,2023-07-31_20h46.19.139,arm3_eps,2022.2.5,Win32,59.95203837,6126be630953fe354ba4f78f,64c7fed44a04f777bb1e18ce,64c8013a1a75fd3d4ce05b19,right,1,0.75,0.4357,6,0.024417926,0.167,,,,,,190,0,190,0,1,,,,,
,,657439,001,2023-07-31_20h46.19.139,arm3_eps,2022.2.5,Win32,59.95203837,6126be630953fe354ba4f78f,64c7fed44a04f777bb1e18ce,64c8013a1a75fd3d4ce05b19,right,1,0.75,0.4357,6,0.032144148,0.134,,,,,,191,0,191,0,1,,,,,
,,657439,001,2023-07-31_20h46.19.139,arm3_eps,2022.2.5,Win32,59.95203837,6126be630953fe354ba4f78f,64c7fed44a04f777bb1e18ce,64c8013a1a75fd3d4ce05b19,right,1,0.75,0.4357,6,0.058011287,0.154,,,,,,192,0,192,0,1,,,,,
,,657439,001,2023-07-31_20h46.19.139,arm3_eps,2022.2.5,Win32,59.95203837,6126be630953fe354ba4f78f,64c7fed44a04f777bb1e18ce,64c8013a1a75fd3d4ce05b19,right,1,0.75,0.4357,6,0.068326042,0.156,,,,,,193,0,193,0,1,,,,,
,,657439,001,2023-07-31_20h46.19.139,arm3_eps,2022.2.5,Win32,59.95203837,6126be630953fe354ba4f78f,64c7fed44a04f777bb1e18ce,64c8013a1a75fd3d4ce05b19,right,1,0.75,0.4357,6,0.084315046,0.172,,,,,,194,0,194,0,1,,,,,
,,657439,001,2023-07-31_20h46.19.139,arm3_eps,2022.2.5,Win32,59.95203837,6126be630953fe354ba4f78f,64c7fed44a04f777bb1e18ce,64c8013a1a75fd3d4ce05b19,right,1,0.75,0.4357,6,0.103316516,0.201,,,,,,195,0,195,0,1,,,,,
,,657439,001,2023-07-31_20h46.19.139,arm3_eps,2022.2.5,Win32,59.95203837,6126be630953fe354ba4f78f,64c7fed44a04f777bb1e18ce,64c8013a1a75fd3d4ce05b19,right,1,0.75,0.4357,6,0.096799492,0.432,,,,,,196,0,196,0,1,,,,,
,,657439,001,2023-07-31_20h46.19.139,arm3_eps,2022.2.5,Win32,59.95203837,6126be630953fe354ba4f78f,64c7fed44a04f777bb1e18ce,64c8013a1a75fd3d4ce05b19,right,1,0.75,0.4357,6,0.104131938,0.182,,,,,,197,0,197,0,1,,,,,
,,657439,001,2023-07-31_20h46.19.139,arm3_eps,2022.2.5,Win32,59.95203837,6126be630953fe354ba4f78f,64c7fed44a04f777bb1e18ce,64c8013a1a75fd3d4ce05b19,up,1,0.75,0.4357,7,0,0.533,,,,,,198,0,198,0,1,,,,,
,,657439,001,2023-07-31_20h46.19.139,arm3_eps,2022.2.5,Win32,59.95203837,6126be630953fe354ba4f78f,64c7fed44a04f777bb1e18ce,64c8013a1a75fd3d4ce05b19,right,1,0.75,0.4357,7,0.00875692,0.768,,,,,,199,0,199,0,1,,,,,
,,657439,001,2023-07-31_20h46.19.139,arm3_eps,2022.2.5,Win32,59.95203837,6126be630953fe354ba4f78f,64c7fed44a04f777bb1e18ce,64c8013a1a75fd3d4ce05b19,right,1,0.75,0.4357,7,0.002784194,0.338,,,,,,200,0,200,0,1,,,,,
,,657439,001,2023-07-31_20h46.19.139,arm3_eps,2022.2.5,Win32,59.95203837,6126be630953fe354ba4f78f,64c7fed44a04f777bb1e18ce,64c8013a1a75fd3d4ce05b19,right,1,0.75,0.4357,7,0.024858089,0.174,,,,,,201,0,201,0,1,,,,,
,,657439,001,2023-07-31_20h46.19.139,arm3_eps,2022.2.5,Win32,59.95203837,6126be630953fe354ba4f78f,64c7fed44a04f777bb1e18ce,64c8013a1a75fd3d4ce05b19,right,1,0.75,0.4357,7,0.074969576,0.166,,,,,,202,0,202,0,1,,,,,
,,657439,001,2023-07-31_20h46.19.139,arm3_eps,2022.2.5,Win32,59.95203837,6126be630953fe354ba4f78f,64c7fed44a04f777bb1e18ce,64c8013a1a75fd3d4ce05b19,right,1,0.75,0.4357,7,0.064474349,0.166,,,,,,203,0,203,0,1,,,,,
,,657439,001,2023-07-31_20h46.19.139,arm3_eps,2022.2.5,Win32,59.95203837,6126be630953fe354ba4f78f,64c7fed44a04f777bb1e18ce,64c8013a1a75fd3d4ce05b19,right,1,0.75,0.4357,7,0.093530417,0.236,,,,,,204,0,204,0,1,,,,,
,,657439,001,2023-07-31_20h46.19.139,arm3_eps,2022.2.5,Win32,59.95203837,6126be630953fe354ba4f78f,64c7fed44a04f777bb1e18ce,64c8013a1a75fd3d4ce05b19,right,1,0.75,0.4357,7,0.117092535,0.167,,,,,,205,0,205,0,1,,,,,
,,657439,001,2023-07-31_20h46.19.139,arm3_eps,2022.2.5,Win32,59.95203837,6126be630953fe354ba4f78f,64c7fed44a04f777bb1e18ce,64c8013a1a75fd3d4ce05b19,right,1,0.75,0.4357,7,0.097407046,0.484,,,,,,206,0,206,0,1,,,,,
,,657439,001,2023-07-31_20h46.19.139,arm3_eps,2022.2.5,Win32,59.95203837,6126be630953fe354ba4f78f,64c7fed44a04f777bb1e18ce,64c8013a1a75fd3d4ce05b19,up,-1,0.75,0.4357,7,0,0.618,,,,,,207,0,207,0,1,,,,,
,,657439,001,2023-07-31_20h46.19.139,arm3_eps,2022.2.5,Win32,59.95203837,6126be630953fe354ba4f78f,64c7fed44a04f777bb1e18ce,64c8013a1a75fd3d4ce05b19,right,-1,0.75,0.4357,7,0.001479551,0.767,,,,,,208,0,208,0,1,,,,,
,,657439,001,2023-07-31_20h46.19.139,arm3_eps,2022.2.5,Win32,59.95203837,6126be630953fe354ba4f78f,64c7fed44a04f777bb1e18ce,64c8013a1a75fd3d4ce05b19,right,-1,0.75,0.4357,7,-0.02204079,0.166,,,,,,209,0,209,0,1,,,,,
,,657439,001,2023-07-31_20h46.19.139,arm3_eps,2022.2.5,Win32,59.95203837,6126be630953fe354ba4f78f,64c7fed44a04f777bb1e18ce,64c8013a1a75fd3d4ce05b19,right,-1,0.75,0.4357,7,-0.024247896,0.151,,,,,,210,0,210,0,1,,,,,
,,657439,001,2023-07-31_20h46.19.139,arm3_eps,2022.2.5,Win32,59.95203837,6126be630953fe354ba4f78f,64c7fed44a04f777bb1e18ce,64c8013a1a75fd3d4ce05b19,right,-1,0.75,0.4357,7,-0.0607942,0.136,,,,,,211,0,211,0,1,,,,,
,,657439,001,2023-07-31_20h46.19.139,arm3_eps,2022.2.5,Win32,59.95203837,6126be630953fe354ba4f78f,64c7fed44a04f777bb1e18ce,64c8013a1a75fd3d4ce05b19,right,-1,0.75,0.4357,7,-0.063578773,0.154,,,,,,212,0,212,0,1,,,,,
,,657439,001,2023-07-31_20h46.19.139,arm3_eps,2022.2.5,Win32,59.95203837,6126be630953fe354ba4f78f,64c7fed44a04f777bb1e18ce,64c8013a1a75fd3d4ce05b19,right,-1,0.75,0.4357,7,-0.089924686,0.166,,,,,,213,0,213,0,1,,,,,
,,657439,001,2023-07-31_20h46.19.139,arm3_eps,2022.2.5,Win32,59.95203837,6126be630953fe354ba4f78f,64c7fed44a04f777bb1e18ce,64c8013a1a75fd3d4ce05b19,down,-1,0.75,0.4357,8,0,0.45,,,,,,214,0,214,0,1,,,,,
,,657439,001,2023-07-31_20h46.19.139,arm3_eps,2022.2.5,Win32,59.95203837,6126be630953fe354ba4f78f,64c7fed44a04f777bb1e18ce,64c8013a1a75fd3d4ce05b19,right,-1,0.75,0.4357,8,-0.015701286,0.432,,,,,,215,0,215,0,1,,,,,
,,657439,001,2023-07-31_20h46.19.139,arm3_eps,2022.2.5,Win32,59.95203837,6126be630953fe354ba4f78f,64c7fed44a04f777bb1e18ce,64c8013a1a75fd3d4ce05b19,right,-1,0.75,0.4357,8,-0.044432215,0.421,,,,,,216,0,216,0,1,,,,,
,,657439,001,2023-07-31_20h46.19.139,arm3_eps,2022.2.5,Win32,59.95203837,6126be630953fe354ba4f78f,64c7fed44a04f777bb1e18ce,64c8013a1a75fd3d4ce05b19,right,-1,0.75,0.4357,8,-0.039832884,0.15,,,,,,217,0,217,0,1,,,,,
,,657439,001,2023-07-31_20h46.19.139,arm3_eps,2022.2.5,Win32,59.95203837,6126be630953fe354ba4f78f,64c7fed44a04f777bb1e18ce,64c8013a1a75fd3d4ce05b19,right,-1,0.75,0.4357,8,-0.043104426,0.166,,,,,,218,0,218,0,1,,,,,
,,657439,001,2023-07-31_20h46.19.139,arm3_eps,2022.2.5,Win32,59.95203837,6126be630953fe354ba4f78f,64c7fed44a04f777bb1e18ce,64c8013a1a75fd3d4ce05b19,right,-1,0.75,0.4357,8,-0.068827548,0.151,,,,,,219,0,219,0,1,,,,,
,,657439,001,2023-07-31_20h46.19.139,arm3_eps,2022.2.5,Win32,59.95203837,6126be630953fe354ba4f78f,64c7fed44a04f777bb1e18ce,64c8013a1a75fd3d4ce05b19,right,-1,0.75,0.4357,8,-0.049144003,0.151,,,,,,220,0,220,0,1,,,,,
,,657439,001,2023-07-31_20h46.19.139,arm3_eps,2022.2.5,Win32,59.95203837,6126be630953fe354ba4f78f,64c7fed44a04f777bb1e18ce,64c8013a1a75fd3d4ce05b19,right,-1,0.75,0.4357,8,-0.062265702,0.121,,,,,,221,0,221,0,1,,,,,
,,657439,001,2023-07-31_20h46.19.139,arm3_eps,2022.2.5,Win32,59.95203837,6126be630953fe354ba4f78f,64c7fed44a04f777bb1e18ce,64c8013a1a75fd3d4ce05b19,right,-1,0.75,0.4357,8,-0.065333106,0.141,,,,,,222,0,222,0,1,,,,,
,,657439,001,2023-07-31_20h46.19.139,arm3_eps,2022.2.5,Win32,59.95203837,6126be630953fe354ba4f78f,64c7fed44a04f777bb1e18ce,64c8013a1a75fd3d4ce05b19,right,-1,0.75,0.4357,8,-0.075340236,0.973,,,,,,223,0,223,0,1,,,,,
,,657439,001,2023-07-31_20h46.19.139,arm3_eps,2022.2.5,Win32,59.95203837,6126be630953fe354ba4f78f,64c7fed44a04f777bb1e18ce,64c8013a1a75fd3d4ce05b19,down,-1,0.75,0.4357,9,0,2.221,,,,,,224,0,224,0,1,,,,,
,,657439,001,2023-07-31_20h46.19.139,arm3_eps,2022.2.5,Win32,59.95203837,6126be630953fe354ba4f78f,64c7fed44a04f777bb1e18ce,64c8013a1a75fd3d4ce05b19,right,-1,0.75,0.4357,9,-0.007216141,6.32,,,,,,225,0,225,0,1,,,,,
,,657439,001,2023-07-31_20h46.19.139,arm3_eps,2022.2.5,Win32,59.95203837,6126be630953fe354ba4f78f,64c7fed44a04f777bb1e18ce,64c8013a1a75fd3d4ce05b19,right,-1,0.75,0.4357,9,-0.051770438,0.167,,,,,,226,0,226,0,1,,,,,
,,657439,001,2023-07-31_20h46.19.139,arm3_eps,2022.2.5,Win32,59.95203837,6126be630953fe354ba4f78f,64c7fed44a04f777bb1e18ce,64c8013a1a75fd3d4ce05b19,right,-1,0.75,0.4357,9,-0.093602032,0.135,,,,,,227,0,227,0,1,,,,,
,,657439,001,2023-07-31_20h46.19.139,arm3_eps,2022.2.5,Win32,59.95203837,6126be630953fe354ba4f78f,64c7fed44a04f777bb1e18ce,64c8013a1a75fd3d4ce05b19,right,-1,0.75,0.4357,9,-0.082986203,0.153,,,,,,228,0,228,0,1,,,,,
,,657439,001,2023-07-31_20h46.19.139,arm3_eps,2022.2.5,Win32,59.95203837,6126be630953fe354ba4f78f,64c7fed44a04f777bb1e18ce,64c8013a1a75fd3d4ce05b19,right,-1,0.75,0.4357,9,-0.102774684,0.302,,,,,,229,0,229,0,1,,,,,
,,657439,001,2023-07-31_20h46.19.139,arm3_eps,2022.2.5,Win32,59.95203837,6126be630953fe354ba4f78f,64c7fed44a04f777bb1e18ce,64c8013a1a75fd3d4ce05b19,down,-1,0.75,0.4357,10,0,0.901,,,,,,230,0,230,0,1,,,,,
,,657439,001,2023-07-31_20h46.19.139,arm3_eps,2022.2.5,Win32,59.95203837,6126be630953fe354ba4f78f,64c7fed44a04f777bb1e18ce,64c8013a1a75fd3d4ce05b19,right,-1,0.75,0.4357,10,-0.023395865,2.567,,,,,,231,0,231,0,1,,,,,
,,657439,001,2023-07-31_20h46.19.139,arm3_eps,2022.2.5,Win32,59.95203837,6126be630953fe354ba4f78f,64c7fed44a04f777bb1e18ce,64c8013a1a75fd3d4ce05b19,right,-1,0.75,0.4357,10,0.023473174,0.15,,,,,,232,0,232,0,1,,,,,
,,657439,001,2023-07-31_20h46.19.139,arm3_eps,2022.2.5,Win32,59.95203837,6126be630953fe354ba4f78f,64c7fed44a04f777bb1e18ce,64c8013a1a75fd3d4ce05b19,right,-1,0.75,0.4357,10,0.030567578,0.135,,,,,,233,0,233,0,1,,,,,
,,657439,001,2023-07-31_20h46.19.139,arm3_eps,2022.2.5,Win32,59.95203837,6126be630953fe354ba4f78f,64c7fed44a04f777bb1e18ce,64c8013a1a75fd3d4ce05b19,right,-1,0.75,0.4357,10,0.043872995,0.138,,,,,,234,0,234,0,1,,,,,
,,657439,001,2023-07-31_20h46.19.139,arm3_eps,2022.2.5,Win32,59.95203837,6126be630953fe354ba4f78f,64c7fed44a04f777bb1e18ce,64c8013a1a75fd3d4ce05b19,right,-1,0.75,0.4357,10,0.005834583,0.335,,,,,,235,0,235,0,1,,,,,
,,657439,001,2023-07-31_20h46.19.139,arm3_eps,2022.2.5,Win32,59.95203837,6126be630953fe354ba4f78f,64c7fed44a04f777bb1e18ce,64c8013a1a75fd3d4ce05b19,right,-1,0.75,0.4357,10,-0.010492412,0.167,,,,,,236,0,236,0,1,,,,,
,,657439,001,2023-07-31_20h46.19.139,arm3_eps,2022.2.5,Win32,59.95203837,6126be630953fe354ba4f78f,64c7fed44a04f777bb1e18ce,64c8013a1a75fd3d4ce05b19,right,-1,0.75,0.4357,10,-0.065361406,0.349,,,,,,237,0,237,0,1,,,,,
,,657439,001,2023-07-31_20h46.19.139,arm3_eps,2022.2.5,Win32,59.95203837,6126be630953fe354ba4f78f,64c7fed44a04f777bb1e18ce,64c8013a1a75fd3d4ce05b19,right,-1,0.75,0.4357,10,-0.073788845,0.655,,,,,,238,0,238,0,1,,,,,
,,657439,001,2023-07-31_20h46.19.139,arm3_eps,2022.2.5,Win32,59.95203837,6126be630953fe354ba4f78f,64c7fed44a04f777bb1e18ce,64c8013a1a75fd3d4ce05b19,right,-1,0.75,0.4357,10,-0.067894894,0.435,,,,,,239,0,239,0,1,,,,,
,,657439,001,2023-07-31_20h46.19.139,arm3_eps,2022.2.5,Win32,59.95203837,6126be630953fe354ba4f78f,64c7fed44a04f777bb1e18ce,64c8013a1a75fd3d4ce05b19,right,-1,0.75,0.4357,10,-0.05251737,0.403,,,,,,240,0,240,0,1,,,,,
,,657439,001,2023-07-31_20h46.19.139,arm3_eps,2022.2.5,Win32,59.95203837,6126be630953fe354ba4f78f,64c7fed44a04f777bb1e18ce,64c8013a1a75fd3d4ce05b19,right,-1,0.75,0.4357,10,-0.041665494,0.167,,,,,,241,0,241,0,1,,,,,
,,657439,001,2023-07-31_20h46.19.139,arm3_eps,2022.2.5,Win32,59.95203837,6126be630953fe354ba4f78f,64c7fed44a04f777bb1e18ce,64c8013a1a75fd3d4ce05b19,down,-1,0.75,0.4357,11,0,0.689,,,,,,242,0,242,0,1,,,,,
,,657439,001,2023-07-31_20h46.19.139,arm3_eps,2022.2.5,Win32,59.95203837,6126be630953fe354ba4f78f,64c7fed44a04f777bb1e18ce,64c8013a1a75fd3d4ce05b19,right,-1,0.75,0.4357,11,0.002682601,0.856,,,,,,243,0,243,0,1,,,,,
,,657439,001,2023-07-31_20h46.19.139,arm3_eps,2022.2.5,Win32,59.95203837,6126be630953fe354ba4f78f,64c7fed44a04f777bb1e18ce,64c8013a1a75fd3d4ce05b19,right,-1,0.75,0.4357,11,-0.027978062,0.168,,,,,,244,0,244,0,1,,,,,
,,657439,001,2023-07-31_20h46.19.139,arm3_eps,2022.2.5,Win32,59.95203837,6126be630953fe354ba4f78f,64c7fed44a04f777bb1e18ce,64c8013a1a75fd3d4ce05b19,right,-1,0.75,0.4357,11,-0.039262664,0.136,,,,,,245,0,245,0,1,,,,,
,,657439,001,2023-07-31_20h46.19.139,arm3_eps,2022.2.5,Win32,59.95203837,6126be630953fe354ba4f78f,64c7fed44a04f777bb1e18ce,64c8013a1a75fd3d4ce05b19,right,-1,0.75,0.4357,11,-0.052023434,0.153,,,,,,246,0,246,0,1,,,,,
,,657439,001,2023-07-31_20h46.19.139,arm3_eps,2022.2.5,Win32,59.95203837,6126be630953fe354ba4f78f,64c7fed44a04f777bb1e18ce,64c8013a1a75fd3d4ce05b19,right,-1,0.75,0.4357,11,-0.095498506,0.151,,,,,,247,0,247,0,1,,,,,
,,657439,001,2023-07-31_20h46.19.139,arm3_eps,2022.2.5,Win32,59.95203837,6126be630953fe354ba4f78f,64c7fed44a04f777bb1e18ce,64c8013a1a75fd3d4ce05b19,right,-1,0.75,0.4357,11,-0.094513275,0.15,,,,,,248,0,248,0,1,,,,,
,,657439,001,2023-07-31_20h46.19.139,arm3_eps,2022.2.5,Win32,59.95203837,6126be630953fe354ba4f78f,64c7fed44a04f777bb1e18ce,64c8013a1a75fd3d4ce05b19,down,-1,0.75,0.4357,12,0,0.415,,,,,,249,0,249,0,1,,,,,
,,657439,001,2023-07-31_20h46.19.139,arm3_eps,2022.2.5,Win32,59.95203837,6126be630953fe354ba4f78f,64c7fed44a04f777bb1e18ce,64c8013a1a75fd3d4ce05b19,right,-1,0.75,0.4357,12,0.001763792,0.802,,,,,,250,0,250,0,1,,,,,
,,657439,001,2023-07-31_20h46.19.139,arm3_eps,2022.2.5,Win32,59.95203837,6126be630953fe354ba4f78f,64c7fed44a04f777bb1e18ce,64c8013a1a75fd3d4ce05b19,right,-1,0.75,0.4357,12,-0.02293633,0.167,,,,,,251,0,251,0,1,,,,,
,,657439,001,2023-07-31_20h46.19.139,arm3_eps,2022.2.5,Win32,59.95203837,6126be630953fe354ba4f78f,64c7fed44a04f777bb1e18ce,64c8013a1a75fd3d4ce05b19,right,-1,0.75,0.4357,12,-0.06588794,0.167,,,,,,252,0,252,0,1,,,,,
,,657439,001,2023-07-31_20h46.19.139,arm3_eps,2022.2.5,Win32,59.95203837,6126be630953fe354ba4f78f,64c7fed44a04f777bb1e18ce,64c8013a1a75fd3d4ce05b19,right,-1,0.75,0.4357,12,-0.041813607,0.167,,,,,,253,0,253,0,1,,,,,
,,657439,001,2023-07-31_20h46.19.139,arm3_eps,2022.2.5,Win32,59.95203837,6126be630953fe354ba4f78f,64c7fed44a04f777bb1e18ce,64c8013a1a75fd3d4ce05b19,right,-1,0.75,0.4357,12,-0.03076695,0.117,,,,,,254,0,254,0,1,,,,,
,,657439,001,2023-07-31_20h46.19.139,arm3_eps,2022.2.5,Win32,59.95203837,6126be630953fe354ba4f78f,64c7fed44a04f777bb1e18ce,64c8013a1a75fd3d4ce05b19,right,-1,0.75,0.4357,12,-0.048865129,0.131,,,,,,255,0,255,0,1,,,,,
,,657439,001,2023-07-31_20h46.19.139,arm3_eps,2022.2.5,Win32,59.95203837,6126be630953fe354ba4f78f,64c7fed44a04f777bb1e18ce,64c8013a1a75fd3d4ce05b19,right,-1,0.75,0.4357,12,-0.087957568,0.149,,,,,,256,0,256,0,1,,,,,
