space_bar.keys,space_bar.rt,participant,session,date,expName,psychopyVersion,OS,frameRate,PROLIFIC_PID,STUDY_ID,SESSION_ID,resp.keys,state,q_prob,eps_prob,score,price,resp.rt,train.thisRepN,train.thisTrialN,train.thisN,train.thisIndex,train.ran,steps.thisRepN,steps.thisTrialN,steps.thisN,steps.thisIndex,steps.ran,blocks.thisRepN,blocks.thisTrialN,blocks.thisN,blocks.thisIndex,blocks.ran
space,1.5379,662156,001,2023-07-31_19h45.33.170,arm3_eps,2022.2.5,MacIntel,60.0024001,5d5c74c921a8d40001360a37,64c7fed44a04f777bb1e18ce,64c800bf7a854dcfc2e0d0ff,,,,,,,,,,,,,,,,,,,,,,
space,2.8927,662156,001,2023-07-31_19h45.33.170,arm3_eps,2022.2.5,MacIntel,60.0024001,5d5c74c921a8d40001360a37,64c7fed44a04f777bb1e18ce,64c800bf7a854dcfc2e0d0ff,,,,,,,,,,,,,,,,,,,,,,
space,8.8361,662156,001,2023-07-31_19h45.33.170,arm3_eps,2022.2.5,MacIntel,60.0024001,5d5c74c921a8d40001360a37,64c7fed44a04f777bb1e18ce,64c800bf7a854dcfc2e0d0ff,,,,,,,,,,,,,,,,,,,,,,
space,18.7661,662156,001,2023-07-31_19h45.33.170,arm3_eps,2022.2.5,MacIntel,60.0024001,5d5c74c921a8d40001360a37,64c7fed44a04f777bb1e18ce,64c800bf7a854dcfc2e0d0ff,,,,,,,,,,,,,,,,,,,,,,
space,7.932,662156,001,2023-07-31_19h45.33.170,arm3_eps,2022.2.5,MacIntel,60.0024001,5d5c74c921a8d40001360a37,64c7fed44a04f777bb1e18ce,64c800bf7a854dcfc2e0d0ff,,,,,,,,,,,,,,,,,,,,,,
space,6.8928,662156,001,2023-07-31_19h45.33.170,arm3_eps,2022.2.5,MacIntel,60.0024001,5d5c74c921a8d40001360a37,64c7fed44a04f777bb1e18ce,64c800bf7a854dcfc2e0d0ff,,,,,,,,,,,,,,,,,,,,,,
space,4.4,662156,001,2023-07-31_19h45.33.170,arm3_eps,2022.2.5,MacIntel,60.0024001,5d5c74c921a8d40001360a37,64c7fed44a04f777bb1e18ce,64c800bf7a854dcfc2e0d0ff,,,,,,,,,,,,,,,,,,,,,,
,,662156,001,2023-07-31_19h45.33.170,arm3_eps,2022.2.5,MacIntel,60.0024001,5d5c74c921a8d40001360a37,64c7fed44a04f777bb1e18ce,64c800bf7a854dcfc2e0d0ff,right,-1,1,0.2429,0,-0.014455556,3.2526,0,0,0,0,1,,,,,,,,,,
,,662156,001,2023-07-31_19h45.33.170,arm3_eps,2022.2.5,MacIntel,60.0024001,5d5c74c921a8d40001360a37,64c7fed44a04f777bb1e18ce,64c800bf7a854dcfc2e0d0ff,right,-1,1,0.2429,0,0.016032854,0.601,1,0,1,0,1,,,,,,,,,,
,,662156,001,2023-07-31_19h45.33.170,arm3_eps,2022.2.5,MacIntel,60.0024001,5d5c74c921a8d40001360a37,64c7fed44a04f777bb1e18ce,64c800bf7a854dcfc2e0d0ff,right,-1,1,0.2429,0,0.018145741,0.4341,2,0,2,0,1,,,,,,,,,,
,,662156,001,2023-07-31_19h45.33.170,arm3_eps,2022.2.5,MacIntel,60.0024001,5d5c74c921a8d40001360a37,64c7fed44a04f777bb1e18ce,64c800bf7a854dcfc2e0d0ff,right,-1,1,0.2429,0,0.042439003,0.5506,3,0,3,0,1,,,,,,,,,,
,,662156,001,2023-07-31_19h45.33.170,arm3_eps,2022.2.5,MacIntel,60.0024001,5d5c74c921a8d40001360a37,64c7fed44a04f777bb1e18ce,64c800bf7a854dcfc2e0d0ff,down,-1,1,0.2429,1,0,3.1175,4,0,4,0,1,,,,,,,,,,
,,662156,001,2023-07-31_19h45.33.170,arm3_eps,2022.2.5,MacIntel,60.0024001,5d5c74c921a8d40001360a37,64c7fed44a04f777bb1e18ce,64c800bf7a854dcfc2e0d0ff,right,-1,1,0.2429,1,0.005616138,1.6559,5,0,5,0,1,,,,,,,,,,
,,662156,001,2023-07-31_19h45.33.170,arm3_eps,2022.2.5,MacIntel,60.0024001,5d5c74c921a8d40001360a37,64c7fed44a04f777bb1e18ce,64c800bf7a854dcfc2e0d0ff,right,-1,1,0.2429,1,-0.004914639,0.35,6,0,6,0,1,,,,,,,,,,
,,662156,001,2023-07-31_19h45.33.170,arm3_eps,2022.2.5,MacIntel,60.0024001,5d5c74c921a8d40001360a37,64c7fed44a04f777bb1e18ce,64c800bf7a854dcfc2e0d0ff,right,-1,1,0.2429,1,-0.006734166,0.3504,7,0,7,0,1,,,,,,,,,,
,,662156,001,2023-07-31_19h45.33.170,arm3_eps,2022.2.5,MacIntel,60.0024001,5d5c74c921a8d40001360a37,64c7fed44a04f777bb1e18ce,64c800bf7a854dcfc2e0d0ff,right,-1,1,0.2429,1,-0.008572022,0.967,8,0,8,0,1,,,,,,,,,,
,,662156,001,2023-07-31_19h45.33.170,arm3_eps,2022.2.5,MacIntel,60.0024001,5d5c74c921a8d40001360a37,64c7fed44a04f777bb1e18ce,64c800bf7a854dcfc2e0d0ff,right,-1,1,0.2429,1,-0.005217115,0.5326,9,0,9,0,1,,,,,,,,,,
,,662156,001,2023-07-31_19h45.33.170,arm3_eps,2022.2.5,MacIntel,60.0024001,5d5c74c921a8d40001360a37,64c7fed44a04f777bb1e18ce,64c800bf7a854dcfc2e0d0ff,down,-1,1,0.2429,2,0,0.9003,10,0,10,0,1,,,,,,,,,,
,,662156,001,2023-07-31_19h45.33.170,arm3_eps,2022.2.5,MacIntel,60.0024001,5d5c74c921a8d40001360a37,64c7fed44a04f777bb1e18ce,64c800bf7a854dcfc2e0d0ff,right,-1,1,0.2429,2,-0.048837426,1.9802,11,0,11,0,1,,,,,,,,,,
,,662156,001,2023-07-31_19h45.33.170,arm3_eps,2022.2.5,MacIntel,60.0024001,5d5c74c921a8d40001360a37,64c7fed44a04f777bb1e18ce,64c800bf7a854dcfc2e0d0ff,right,-1,1,0.2429,2,-0.041203752,0.4228,12,0,12,0,1,,,,,,,,,,
,,662156,001,2023-07-31_19h45.33.170,arm3_eps,2022.2.5,MacIntel,60.0024001,5d5c74c921a8d40001360a37,64c7fed44a04f777bb1e18ce,64c800bf7a854dcfc2e0d0ff,right,-1,1,0.2429,2,-0.059505655,0.4683,13,0,13,0,1,,,,,,,,,,
,,662156,001,2023-07-31_19h45.33.170,arm3_eps,2022.2.5,MacIntel,60.0024001,5d5c74c921a8d40001360a37,64c7fed44a04f777bb1e18ce,64c800bf7a854dcfc2e0d0ff,down,1,1,0.2429,3,0,0.4668,14,0,14,0,1,,,,,,,,,,
,,662156,001,2023-07-31_19h45.33.170,arm3_eps,2022.2.5,MacIntel,60.0024001,5d5c74c921a8d40001360a37,64c7fed44a04f777bb1e18ce,64c800bf7a854dcfc2e0d0ff,right,1,1,0.2429,3,-0.011112795,1.1651,15,0,15,0,1,,,,,,,,,,
,,662156,001,2023-07-31_19h45.33.170,arm3_eps,2022.2.5,MacIntel,60.0024001,5d5c74c921a8d40001360a37,64c7fed44a04f777bb1e18ce,64c800bf7a854dcfc2e0d0ff,right,1,1,0.2429,3,-0.015368696,0.3689,16,0,16,0,1,,,,,,,,,,
,,662156,001,2023-07-31_19h45.33.170,arm3_eps,2022.2.5,MacIntel,60.0024001,5d5c74c921a8d40001360a37,64c7fed44a04f777bb1e18ce,64c800bf7a854dcfc2e0d0ff,up,1,1,0.2429,4,0,1.1363,17,0,17,0,1,,,,,,,,,,
,,662156,001,2023-07-31_19h45.33.170,arm3_eps,2022.2.5,MacIntel,60.0024001,5d5c74c921a8d40001360a37,64c7fed44a04f777bb1e18ce,64c800bf7a854dcfc2e0d0ff,right,1,1,0.2429,4,-0.003134963,0.7178,18,0,18,0,1,,,,,,,,,,
,,662156,001,2023-07-31_19h45.33.170,arm3_eps,2022.2.5,MacIntel,60.0024001,5d5c74c921a8d40001360a37,64c7fed44a04f777bb1e18ce,64c800bf7a854dcfc2e0d0ff,right,1,1,0.2429,4,0.006684341,0.4004,19,0,19,0,1,,,,,,,,,,
,,662156,001,2023-07-31_19h45.33.170,arm3_eps,2022.2.5,MacIntel,60.0024001,5d5c74c921a8d40001360a37,64c7fed44a04f777bb1e18ce,64c800bf7a854dcfc2e0d0ff,right,1,1,0.2429,4,-0.00456019,0.4775,20,0,20,0,1,,,,,,,,,,
,,662156,001,2023-07-31_19h45.33.170,arm3_eps,2022.2.5,MacIntel,60.0024001,5d5c74c921a8d40001360a37,64c7fed44a04f777bb1e18ce,64c800bf7a854dcfc2e0d0ff,up,1,1,0.2429,5,0,0.7052,21,0,21,0,1,,,,,,,,,,
,,662156,001,2023-07-31_19h45.33.170,arm3_eps,2022.2.5,MacIntel,60.0024001,5d5c74c921a8d40001360a37,64c7fed44a04f777bb1e18ce,64c800bf7a854dcfc2e0d0ff,right,1,1,0.2429,5,0.005189593,1.1155,22,0,22,0,1,,,,,,,,,,
,,662156,001,2023-07-31_19h45.33.170,arm3_eps,2022.2.5,MacIntel,60.0024001,5d5c74c921a8d40001360a37,64c7fed44a04f777bb1e18ce,64c800bf7a854dcfc2e0d0ff,right,1,1,0.2429,5,0.0054571,0.2683,23,0,23,0,1,,,,,,,,,,
,,662156,001,2023-07-31_19h45.33.170,arm3_eps,2022.2.5,MacIntel,60.0024001,5d5c74c921a8d40001360a37,64c7fed44a04f777bb1e18ce,64c800bf7a854dcfc2e0d0ff,right,1,1,0.2429,5,0.000925744,0.4178,24,0,24,0,1,,,,,,,,,,
,,662156,001,2023-07-31_19h45.33.170,arm3_eps,2022.2.5,MacIntel,60.0024001,5d5c74c921a8d40001360a37,64c7fed44a04f777bb1e18ce,64c800bf7a854dcfc2e0d0ff,right,1,1,0.2429,5,-0.003020852,0.4153,25,0,25,0,1,,,,,,,,,,
,,662156,001,2023-07-31_19h45.33.170,arm3_eps,2022.2.5,MacIntel,60.0024001,5d5c74c921a8d40001360a37,64c7fed44a04f777bb1e18ce,64c800bf7a854dcfc2e0d0ff,right,1,1,0.2429,5,-0.003601284,0.622,26,0,26,0,1,,,,,,,,,,
,,662156,001,2023-07-31_19h45.33.170,arm3_eps,2022.2.5,MacIntel,60.0024001,5d5c74c921a8d40001360a37,64c7fed44a04f777bb1e18ce,64c800bf7a854dcfc2e0d0ff,up,1,1,0.2429,6,0,0.8845,27,0,27,0,1,,,,,,,,,,
,,662156,001,2023-07-31_19h45.33.170,arm3_eps,2022.2.5,MacIntel,60.0024001,5d5c74c921a8d40001360a37,64c7fed44a04f777bb1e18ce,64c800bf7a854dcfc2e0d0ff,right,1,1,0.2429,6,0.037651116,1.8996,28,0,28,0,1,,,,,,,,,,
,,662156,001,2023-07-31_19h45.33.170,arm3_eps,2022.2.5,MacIntel,60.0024001,5d5c74c921a8d40001360a37,64c7fed44a04f777bb1e18ce,64c800bf7a854dcfc2e0d0ff,right,1,1,0.2429,6,0.045632657,0.5389,29,0,29,0,1,,,,,,,,,,
,,662156,001,2023-07-31_19h45.33.170,arm3_eps,2022.2.5,MacIntel,60.0024001,5d5c74c921a8d40001360a37,64c7fed44a04f777bb1e18ce,64c800bf7a854dcfc2e0d0ff,up,1,1,0.2429,7,0,0.4512,30,0,30,0,1,,,,,,,,,,
,,662156,001,2023-07-31_19h45.33.170,arm3_eps,2022.2.5,MacIntel,60.0024001,5d5c74c921a8d40001360a37,64c7fed44a04f777bb1e18ce,64c800bf7a854dcfc2e0d0ff,right,1,1,0.2429,7,0.007564664,1.1492,31,0,31,0,1,,,,,,,,,,
,,662156,001,2023-07-31_19h45.33.170,arm3_eps,2022.2.5,MacIntel,60.0024001,5d5c74c921a8d40001360a37,64c7fed44a04f777bb1e18ce,64c800bf7a854dcfc2e0d0ff,up,1,1,0.2429,8,0,0.834,32,0,32,0,1,,,,,,,,,,
,,662156,001,2023-07-31_19h45.33.170,arm3_eps,2022.2.5,MacIntel,60.0024001,5d5c74c921a8d40001360a37,64c7fed44a04f777bb1e18ce,64c800bf7a854dcfc2e0d0ff,right,1,1,0.2429,8,-0.003956433,1.231,33,0,33,0,1,,,,,,,,,,
,,662156,001,2023-07-31_19h45.33.170,arm3_eps,2022.2.5,MacIntel,60.0024001,5d5c74c921a8d40001360a37,64c7fed44a04f777bb1e18ce,64c800bf7a854dcfc2e0d0ff,down,1,1,0.2429,7,0,0.6553,34,0,34,0,1,,,,,,,,,,
,,662156,001,2023-07-31_19h45.33.170,arm3_eps,2022.2.5,MacIntel,60.0024001,5d5c74c921a8d40001360a37,64c7fed44a04f777bb1e18ce,64c800bf7a854dcfc2e0d0ff,right,1,1,0.2429,7,0.022636909,1.7476,35,0,35,0,1,,,,,,,,,,
,,662156,001,2023-07-31_19h45.33.170,arm3_eps,2022.2.5,MacIntel,60.0024001,5d5c74c921a8d40001360a37,64c7fed44a04f777bb1e18ce,64c800bf7a854dcfc2e0d0ff,right,1,1,0.2429,7,0.024074215,0.4679,36,0,36,0,1,,,,,,,,,,
,,662156,001,2023-07-31_19h45.33.170,arm3_eps,2022.2.5,MacIntel,60.0024001,5d5c74c921a8d40001360a37,64c7fed44a04f777bb1e18ce,64c800bf7a854dcfc2e0d0ff,up,1,1,0.2429,8,0,0.6321,37,0,37,0,1,,,,,,,,,,
,,662156,001,2023-07-31_19h45.33.170,arm3_eps,2022.2.5,MacIntel,60.0024001,5d5c74c921a8d40001360a37,64c7fed44a04f777bb1e18ce,64c800bf7a854dcfc2e0d0ff,right,1,1,0.2429,8,-0.014599205,0.4299,38,0,38,0,1,,,,,,,,,,
,,662156,001,2023-07-31_19h45.33.170,arm3_eps,2022.2.5,MacIntel,60.0024001,5d5c74c921a8d40001360a37,64c7fed44a04f777bb1e18ce,64c800bf7a854dcfc2e0d0ff,right,1,1,0.2429,8,0.006715593,0.8778,39,0,39,0,1,,,,,,,,,,
,,662156,001,2023-07-31_19h45.33.170,arm3_eps,2022.2.5,MacIntel,60.0024001,5d5c74c921a8d40001360a37,64c7fed44a04f777bb1e18ce,64c800bf7a854dcfc2e0d0ff,right,1,1,0.2429,8,0.02823175,0.3875,40,0,40,0,1,,,,,,,,,,
,,662156,001,2023-07-31_19h45.33.170,arm3_eps,2022.2.5,MacIntel,60.0024001,5d5c74c921a8d40001360a37,64c7fed44a04f777bb1e18ce,64c800bf7a854dcfc2e0d0ff,up,-1,1,0.2429,9,0,0.6551,41,0,41,0,1,,,,,,,,,,
,,662156,001,2023-07-31_19h45.33.170,arm3_eps,2022.2.5,MacIntel,60.0024001,5d5c74c921a8d40001360a37,64c7fed44a04f777bb1e18ce,64c800bf7a854dcfc2e0d0ff,right,-1,1,0.2429,9,-0.01932032,0.8999,42,0,42,0,1,,,,,,,,,,
,,662156,001,2023-07-31_19h45.33.170,arm3_eps,2022.2.5,MacIntel,60.0024001,5d5c74c921a8d40001360a37,64c7fed44a04f777bb1e18ce,64c800bf7a854dcfc2e0d0ff,down,-1,1,0.2429,10,0,0.7475,43,0,43,0,1,,,,,,,,,,
,,662156,001,2023-07-31_19h45.33.170,arm3_eps,2022.2.5,MacIntel,60.0024001,5d5c74c921a8d40001360a37,64c7fed44a04f777bb1e18ce,64c800bf7a854dcfc2e0d0ff,right,-1,1,0.2429,10,-0.018213791,0.946,44,0,44,0,1,,,,,,,,,,
,,662156,001,2023-07-31_19h45.33.170,arm3_eps,2022.2.5,MacIntel,60.0024001,5d5c74c921a8d40001360a37,64c7fed44a04f777bb1e18ce,64c800bf7a854dcfc2e0d0ff,down,1,1,0.2429,11,0,0.5828,45,0,45,0,1,,,,,,,,,,
,,662156,001,2023-07-31_19h45.33.170,arm3_eps,2022.2.5,MacIntel,60.0024001,5d5c74c921a8d40001360a37,64c7fed44a04f777bb1e18ce,64c800bf7a854dcfc2e0d0ff,right,1,1,0.2429,11,-0.019841057,0.6001,46,0,46,0,1,,,,,,,,,,
,,662156,001,2023-07-31_19h45.33.170,arm3_eps,2022.2.5,MacIntel,60.0024001,5d5c74c921a8d40001360a37,64c7fed44a04f777bb1e18ce,64c800bf7a854dcfc2e0d0ff,down,1,1,0.2429,10,0,1.2833,47,0,47,0,1,,,,,,,,,,
,,662156,001,2023-07-31_19h45.33.170,arm3_eps,2022.2.5,MacIntel,60.0024001,5d5c74c921a8d40001360a37,64c7fed44a04f777bb1e18ce,64c800bf7a854dcfc2e0d0ff,right,1,1,0.2429,10,0.005487215,0.9156,48,0,48,0,1,,,,,,,,,,
,,662156,001,2023-07-31_19h45.33.170,arm3_eps,2022.2.5,MacIntel,60.0024001,5d5c74c921a8d40001360a37,64c7fed44a04f777bb1e18ce,64c800bf7a854dcfc2e0d0ff,down,1,1,0.2429,10,0.005487215,0.8495,49,0,49,0,1,,,,,,,,,,
space,12.7108,662156,001,2023-07-31_19h45.33.170,arm3_eps,2022.2.5,MacIntel,60.0024001,5d5c74c921a8d40001360a37,64c7fed44a04f777bb1e18ce,64c800bf7a854dcfc2e0d0ff,,,,,,,,,,,,,,,,,,,,,,
space,17.5042,662156,001,2023-07-31_19h45.33.170,arm3_eps,2022.2.5,MacIntel,60.0024001,5d5c74c921a8d40001360a37,64c7fed44a04f777bb1e18ce,64c800bf7a854dcfc2e0d0ff,,,,,,,,,,,,,,,,,,,,,,
space,6.527,662156,001,2023-07-31_19h45.33.170,arm3_eps,2022.2.5,MacIntel,60.0024001,5d5c74c921a8d40001360a37,64c7fed44a04f777bb1e18ce,64c800bf7a854dcfc2e0d0ff,,,,,,,,,,,,,,,,,,,,,,
space,6.6479,662156,001,2023-07-31_19h45.33.170,arm3_eps,2022.2.5,MacIntel,60.0024001,5d5c74c921a8d40001360a37,64c7fed44a04f777bb1e18ce,64c800bf7a854dcfc2e0d0ff,,,,,,,,,,,,,,,,,,,,,,
space,3.6163,662156,001,2023-07-31_19h45.33.170,arm3_eps,2022.2.5,MacIntel,60.0024001,5d5c74c921a8d40001360a37,64c7fed44a04f777bb1e18ce,64c800bf7a854dcfc2e0d0ff,,,,,,,,,,,,,,,,,,,,,,
space,0.8281,662156,001,2023-07-31_19h45.33.170,arm3_eps,2022.2.5,MacIntel,60.0024001,5d5c74c921a8d40001360a37,64c7fed44a04f777bb1e18ce,64c800bf7a854dcfc2e0d0ff,,,,,,,,,,,,,,,,,,,,,,
,,662156,001,2023-07-31_19h45.33.170,arm3_eps,2022.2.5,MacIntel,60.0024001,5d5c74c921a8d40001360a37,64c7fed44a04f777bb1e18ce,64c800bf7a854dcfc2e0d0ff,right,1,0.75,0.2429,0,0.025769224,3.4018,0,0,0,0,1,,,,,,,,,,
,,662156,001,2023-07-31_19h45.33.170,arm3_eps,2022.2.5,MacIntel,60.0024001,5d5c74c921a8d40001360a37,64c7fed44a04f777bb1e18ce,64c800bf7a854dcfc2e0d0ff,right,1,0.75,0.2429,0,0.018964228,1.1275,1,0,1,0,1,,,,,,,,,,
,,662156,001,2023-07-31_19h45.33.170,arm3_eps,2022.2.5,MacIntel,60.0024001,5d5c74c921a8d40001360a37,64c7fed44a04f777bb1e18ce,64c800bf7a854dcfc2e0d0ff,right,1,0.75,0.2429,0,0.004884792,0.7655,2,0,2,0,1,,,,,,,,,,
,,662156,001,2023-07-31_19h45.33.170,arm3_eps,2022.2.5,MacIntel,60.0024001,5d5c74c921a8d40001360a37,64c7fed44a04f777bb1e18ce,64c800bf7a854dcfc2e0d0ff,right,1,0.75,0.2429,0,0.012421294,0.8483,3,0,3,0,1,,,,,,,,,,
,,662156,001,2023-07-31_19h45.33.170,arm3_eps,2022.2.5,MacIntel,60.0024001,5d5c74c921a8d40001360a37,64c7fed44a04f777bb1e18ce,64c800bf7a854dcfc2e0d0ff,up,1,0.75,0.2429,1,0,1.2018,4,0,4,0,1,,,,,,,,,,
,,662156,001,2023-07-31_19h45.33.170,arm3_eps,2022.2.5,MacIntel,60.0024001,5d5c74c921a8d40001360a37,64c7fed44a04f777bb1e18ce,64c800bf7a854dcfc2e0d0ff,right,1,0.75,0.2429,1,-0.00576844,1.6328,5,0,5,0,1,,,,,,,,,,
,,662156,001,2023-07-31_19h45.33.170,arm3_eps,2022.2.5,MacIntel,60.0024001,5d5c74c921a8d40001360a37,64c7fed44a04f777bb1e18ce,64c800bf7a854dcfc2e0d0ff,right,1,0.75,0.2429,1,-0.00389553,0.4509,6,0,6,0,1,,,,,,,,,,
,,662156,001,2023-07-31_19h45.33.170,arm3_eps,2022.2.5,MacIntel,60.0024001,5d5c74c921a8d40001360a37,64c7fed44a04f777bb1e18ce,64c800bf7a854dcfc2e0d0ff,up,1,0.75,0.2429,2,0,0.5488,7,0,7,0,1,,,,,,,,,,
,,662156,001,2023-07-31_19h45.33.170,arm3_eps,2022.2.5,MacIntel,60.0024001,5d5c74c921a8d40001360a37,64c7fed44a04f777bb1e18ce,64c800bf7a854dcfc2e0d0ff,right,1,0.75,0.2429,2,0.008981237,0.9832,8,0,8,0,1,,,,,,,,,,
,,662156,001,2023-07-31_19h45.33.170,arm3_eps,2022.2.5,MacIntel,60.0024001,5d5c74c921a8d40001360a37,64c7fed44a04f777bb1e18ce,64c800bf7a854dcfc2e0d0ff,up,1,0.75,0.2429,2,0,0.5053,9,0,9,0,1,,,,,,,,,,
,,662156,001,2023-07-31_19h45.33.170,arm3_eps,2022.2.5,MacIntel,60.0024001,5d5c74c921a8d40001360a37,64c7fed44a04f777bb1e18ce,64c800bf7a854dcfc2e0d0ff,right,1,0.75,0.2429,2,0.013804653,1.5168,10,0,10,0,1,,,,,,,,,,
,,662156,001,2023-07-31_19h45.33.170,arm3_eps,2022.2.5,MacIntel,60.0024001,5d5c74c921a8d40001360a37,64c7fed44a04f777bb1e18ce,64c800bf7a854dcfc2e0d0ff,up,1,0.75,0.2429,3,0,0.7342,11,0,11,0,1,,,,,,,,,,
,,662156,001,2023-07-31_19h45.33.170,arm3_eps,2022.2.5,MacIntel,60.0024001,5d5c74c921a8d40001360a37,64c7fed44a04f777bb1e18ce,64c800bf7a854dcfc2e0d0ff,right,1,0.75,0.2429,3,0.025478632,0.9816,12,0,12,0,1,,,,,,,,,,
,,662156,001,2023-07-31_19h45.33.170,arm3_eps,2022.2.5,MacIntel,60.0024001,5d5c74c921a8d40001360a37,64c7fed44a04f777bb1e18ce,64c800bf7a854dcfc2e0d0ff,up,1,0.75,0.2429,4,0,0.5823,13,0,13,0,1,,,,,,,,,,
,,662156,001,2023-07-31_19h45.33.170,arm3_eps,2022.2.5,MacIntel,60.0024001,5d5c74c921a8d40001360a37,64c7fed44a04f777bb1e18ce,64c800bf7a854dcfc2e0d0ff,right,1,0.75,0.2429,4,0.004892199,0.8507,14,0,14,0,1,,,,,,,,,,
,,662156,001,2023-07-31_19h45.33.170,arm3_eps,2022.2.5,MacIntel,60.0024001,5d5c74c921a8d40001360a37,64c7fed44a04f777bb1e18ce,64c800bf7a854dcfc2e0d0ff,down,1,0.75,0.2429,3,0,0.7006,15,0,15,0,1,,,,,,,,,,
,,662156,001,2023-07-31_19h45.33.170,arm3_eps,2022.2.5,MacIntel,60.0024001,5d5c74c921a8d40001360a37,64c7fed44a04f777bb1e18ce,64c800bf7a854dcfc2e0d0ff,right,1,0.75,0.2429,3,-0.00607832,0.9837,16,0,16,0,1,,,,,,,,,,
,,662156,001,2023-07-31_19h45.33.170,arm3_eps,2022.2.5,MacIntel,60.0024001,5d5c74c921a8d40001360a37,64c7fed44a04f777bb1e18ce,64c800bf7a854dcfc2e0d0ff,up,1,0.75,0.2429,3,0,1.0172,17,0,17,0,1,,,,,,,,,,
,,662156,001,2023-07-31_19h45.33.170,arm3_eps,2022.2.5,MacIntel,60.0024001,5d5c74c921a8d40001360a37,64c7fed44a04f777bb1e18ce,64c800bf7a854dcfc2e0d0ff,right,1,0.75,0.2429,3,0.008645378,0.997,18,0,18,0,1,,,,,,,,,,
,,662156,001,2023-07-31_19h45.33.170,arm3_eps,2022.2.5,MacIntel,60.0024001,5d5c74c921a8d40001360a37,64c7fed44a04f777bb1e18ce,64c800bf7a854dcfc2e0d0ff,up,1,0.75,0.2429,3,0,0.6348,19,0,19,0,1,,,,,,,,,,
,,662156,001,2023-07-31_19h45.33.170,arm3_eps,2022.2.5,MacIntel,60.0024001,5d5c74c921a8d40001360a37,64c7fed44a04f777bb1e18ce,64c800bf7a854dcfc2e0d0ff,up,-1,0.75,0.2429,4,0,1.5932,20,0,20,0,1,,,,,,,,,,
,,662156,001,2023-07-31_19h45.33.170,arm3_eps,2022.2.5,MacIntel,60.0024001,5d5c74c921a8d40001360a37,64c7fed44a04f777bb1e18ce,64c800bf7a854dcfc2e0d0ff,down,1,0.75,0.2429,5,0,1.7494,21,0,21,0,1,,,,,,,,,,
,,662156,001,2023-07-31_19h45.33.170,arm3_eps,2022.2.5,MacIntel,60.0024001,5d5c74c921a8d40001360a37,64c7fed44a04f777bb1e18ce,64c800bf7a854dcfc2e0d0ff,down,1,0.75,0.2429,4,0,1.493,22,0,22,0,1,,,,,,,,,,
,,662156,001,2023-07-31_19h45.33.170,arm3_eps,2022.2.5,MacIntel,60.0024001,5d5c74c921a8d40001360a37,64c7fed44a04f777bb1e18ce,64c800bf7a854dcfc2e0d0ff,right,1,0.75,0.2429,4,-0.005056944,1.731,23,0,23,0,1,,,,,,,,,,
,,662156,001,2023-07-31_19h45.33.170,arm3_eps,2022.2.5,MacIntel,60.0024001,5d5c74c921a8d40001360a37,64c7fed44a04f777bb1e18ce,64c800bf7a854dcfc2e0d0ff,right,1,0.75,0.2429,4,0.010219918,0.7776,24,0,24,0,1,,,,,,,,,,
,,662156,001,2023-07-31_19h45.33.170,arm3_eps,2022.2.5,MacIntel,60.0024001,5d5c74c921a8d40001360a37,64c7fed44a04f777bb1e18ce,64c800bf7a854dcfc2e0d0ff,right,1,0.75,0.2429,4,0.001497998,0.6658,25,0,25,0,1,,,,,,,,,,
,,662156,001,2023-07-31_19h45.33.170,arm3_eps,2022.2.5,MacIntel,60.0024001,5d5c74c921a8d40001360a37,64c7fed44a04f777bb1e18ce,64c800bf7a854dcfc2e0d0ff,right,1,0.75,0.2429,4,0.023636706,0.7343,26,0,26,0,1,,,,,,,,,,
,,662156,001,2023-07-31_19h45.33.170,arm3_eps,2022.2.5,MacIntel,60.0024001,5d5c74c921a8d40001360a37,64c7fed44a04f777bb1e18ce,64c800bf7a854dcfc2e0d0ff,right,1,0.75,0.2429,4,0.032416334,0.8666,27,0,27,0,1,,,,,,,,,,
,,662156,001,2023-07-31_19h45.33.170,arm3_eps,2022.2.5,MacIntel,60.0024001,5d5c74c921a8d40001360a37,64c7fed44a04f777bb1e18ce,64c800bf7a854dcfc2e0d0ff,up,1,0.75,0.2429,5,0,0.5836,28,0,28,0,1,,,,,,,,,,
,,662156,001,2023-07-31_19h45.33.170,arm3_eps,2022.2.5,MacIntel,60.0024001,5d5c74c921a8d40001360a37,64c7fed44a04f777bb1e18ce,64c800bf7a854dcfc2e0d0ff,right,1,0.75,0.2429,5,0.026113109,1.1452,29,0,29,0,1,,,,,,,,,,
,,662156,001,2023-07-31_19h45.33.170,arm3_eps,2022.2.5,MacIntel,60.0024001,5d5c74c921a8d40001360a37,64c7fed44a04f777bb1e18ce,64c800bf7a854dcfc2e0d0ff,up,1,0.75,0.2429,6,0,0.6039,30,0,30,0,1,,,,,,,,,,
,,662156,001,2023-07-31_19h45.33.170,arm3_eps,2022.2.5,MacIntel,60.0024001,5d5c74c921a8d40001360a37,64c7fed44a04f777bb1e18ce,64c800bf7a854dcfc2e0d0ff,right,1,0.75,0.2429,6,0.006561334,0.8646,31,0,31,0,1,,,,,,,,,,
,,662156,001,2023-07-31_19h45.33.170,arm3_eps,2022.2.5,MacIntel,60.0024001,5d5c74c921a8d40001360a37,64c7fed44a04f777bb1e18ce,64c800bf7a854dcfc2e0d0ff,right,1,0.75,0.2429,6,0.002732693,0.6342,32,0,32,0,1,,,,,,,,,,
,,662156,001,2023-07-31_19h45.33.170,arm3_eps,2022.2.5,MacIntel,60.0024001,5d5c74c921a8d40001360a37,64c7fed44a04f777bb1e18ce,64c800bf7a854dcfc2e0d0ff,up,-1,0.75,0.2429,7,0,0.5501,33,0,33,0,1,,,,,,,,,,
,,662156,001,2023-07-31_19h45.33.170,arm3_eps,2022.2.5,MacIntel,60.0024001,5d5c74c921a8d40001360a37,64c7fed44a04f777bb1e18ce,64c800bf7a854dcfc2e0d0ff,right,-1,0.75,0.2429,7,0.002049486,0.7655,34,0,34,0,1,,,,,,,,,,
,,662156,001,2023-07-31_19h45.33.170,arm3_eps,2022.2.5,MacIntel,60.0024001,5d5c74c921a8d40001360a37,64c7fed44a04f777bb1e18ce,64c800bf7a854dcfc2e0d0ff,right,-1,0.75,0.2429,7,0.004246546,0.4045,35,0,35,0,1,,,,,,,,,,
,,662156,001,2023-07-31_19h45.33.170,arm3_eps,2022.2.5,MacIntel,60.0024001,5d5c74c921a8d40001360a37,64c7fed44a04f777bb1e18ce,64c800bf7a854dcfc2e0d0ff,right,-1,0.75,0.2429,7,-0.006598349,0.9507,36,0,36,0,1,,,,,,,,,,
,,662156,001,2023-07-31_19h45.33.170,arm3_eps,2022.2.5,MacIntel,60.0024001,5d5c74c921a8d40001360a37,64c7fed44a04f777bb1e18ce,64c800bf7a854dcfc2e0d0ff,right,-1,0.75,0.2429,7,-0.008908625,0.7152,37,0,37,0,1,,,,,,,,,,
,,662156,001,2023-07-31_19h45.33.170,arm3_eps,2022.2.5,MacIntel,60.0024001,5d5c74c921a8d40001360a37,64c7fed44a04f777bb1e18ce,64c800bf7a854dcfc2e0d0ff,down,-1,0.75,0.2429,8,0,0.8819,38,0,38,0,1,,,,,,,,,,
,,662156,001,2023-07-31_19h45.33.170,arm3_eps,2022.2.5,MacIntel,60.0024001,5d5c74c921a8d40001360a37,64c7fed44a04f777bb1e18ce,64c800bf7a854dcfc2e0d0ff,down,-1,0.75,0.2429,9,0,1.6972,39,0,39,0,1,,,,,,,,,,
,,662156,001,2023-07-31_19h45.33.170,arm3_eps,2022.2.5,MacIntel,60.0024001,5d5c74c921a8d40001360a37,64c7fed44a04f777bb1e18ce,64c800bf7a854dcfc2e0d0ff,right,-1,0.75,0.2429,9,-0.004736082,1.5817,40,0,40,0,1,,,,,,,,,,
,,662156,001,2023-07-31_19h45.33.170,arm3_eps,2022.2.5,MacIntel,60.0024001,5d5c74c921a8d40001360a37,64c7fed44a04f777bb1e18ce,64c800bf7a854dcfc2e0d0ff,right,-1,0.75,0.2429,9,-0.031082161,0.4852,41,0,41,0,1,,,,,,,,,,
,,662156,001,2023-07-31_19h45.33.170,arm3_eps,2022.2.5,MacIntel,60.0024001,5d5c74c921a8d40001360a37,64c7fed44a04f777bb1e18ce,64c800bf7a854dcfc2e0d0ff,right,-1,0.75,0.2429,9,-0.043926354,0.405,42,0,42,0,1,,,,,,,,,,
,,662156,001,2023-07-31_19h45.33.170,arm3_eps,2022.2.5,MacIntel,60.0024001,5d5c74c921a8d40001360a37,64c7fed44a04f777bb1e18ce,64c800bf7a854dcfc2e0d0ff,right,-1,0.75,0.2429,9,-0.081181601,0.4297,43,0,43,0,1,,,,,,,,,,
,,662156,001,2023-07-31_19h45.33.170,arm3_eps,2022.2.5,MacIntel,60.0024001,5d5c74c921a8d40001360a37,64c7fed44a04f777bb1e18ce,64c800bf7a854dcfc2e0d0ff,down,-1,0.75,0.2429,9,0,0.4994,44,0,44,0,1,,,,,,,,,,
,,662156,001,2023-07-31_19h45.33.170,arm3_eps,2022.2.5,MacIntel,60.0024001,5d5c74c921a8d40001360a37,64c7fed44a04f777bb1e18ce,64c800bf7a854dcfc2e0d0ff,right,-1,0.75,0.2429,9,-0.015603163,1.166,45,0,45,0,1,,,,,,,,,,
,,662156,001,2023-07-31_19h45.33.170,arm3_eps,2022.2.5,MacIntel,60.0024001,5d5c74c921a8d40001360a37,64c7fed44a04f777bb1e18ce,64c800bf7a854dcfc2e0d0ff,down,1,0.75,0.2429,10,0,0.5324,46,0,46,0,1,,,,,,,,,,
,,662156,001,2023-07-31_19h45.33.170,arm3_eps,2022.2.5,MacIntel,60.0024001,5d5c74c921a8d40001360a37,64c7fed44a04f777bb1e18ce,64c800bf7a854dcfc2e0d0ff,right,1,0.75,0.2429,10,-0.001083238,0.9147,47,0,47,0,1,,,,,,,,,,
,,662156,001,2023-07-31_19h45.33.170,arm3_eps,2022.2.5,MacIntel,60.0024001,5d5c74c921a8d40001360a37,64c7fed44a04f777bb1e18ce,64c800bf7a854dcfc2e0d0ff,right,1,0.75,0.2429,10,0.014125288,0.832,48,0,48,0,1,,,,,,,,,,
,,662156,001,2023-07-31_19h45.33.170,arm3_eps,2022.2.5,MacIntel,60.0024001,5d5c74c921a8d40001360a37,64c7fed44a04f777bb1e18ce,64c800bf7a854dcfc2e0d0ff,right,1,0.75,0.2429,10,0.032237247,0.4452,49,0,49,0,1,,,,,,,,,,
space,9.6786,662156,001,2023-07-31_19h45.33.170,arm3_eps,2022.2.5,MacIntel,60.0024001,5d5c74c921a8d40001360a37,64c7fed44a04f777bb1e18ce,64c800bf7a854dcfc2e0d0ff,,,,,,,,,,,,,,,,,,,,,,
space,1.6991,662156,001,2023-07-31_19h45.33.170,arm3_eps,2022.2.5,MacIntel,60.0024001,5d5c74c921a8d40001360a37,64c7fed44a04f777bb1e18ce,64c800bf7a854dcfc2e0d0ff,,,,,,,,,,,,,,,,,,,,,,
space,0.6843,662156,001,2023-07-31_19h45.33.170,arm3_eps,2022.2.5,MacIntel,60.0024001,5d5c74c921a8d40001360a37,64c7fed44a04f777bb1e18ce,64c800bf7a854dcfc2e0d0ff,,,,,,,,,,,,,,,,,,,,,,
,,662156,001,2023-07-31_19h45.33.170,arm3_eps,2022.2.5,MacIntel,60.0024001,5d5c74c921a8d40001360a37,64c7fed44a04f777bb1e18ce,64c800bf7a854dcfc2e0d0ff,right,1,0.75,0.05,0,0.021326282,1.6914,0,0,0,0,1,,,,,,,,,,
,,662156,001,2023-07-31_19h45.33.170,arm3_eps,2022.2.5,MacIntel,60.0024001,5d5c74c921a8d40001360a37,64c7fed44a04f777bb1e18ce,64c800bf7a854dcfc2e0d0ff,up,1,0.75,0.05,1,0,1.167,1,0,1,0,1,,,,,,,,,,
,,662156,001,2023-07-31_19h45.33.170,arm3_eps,2022.2.5,MacIntel,60.0024001,5d5c74c921a8d40001360a37,64c7fed44a04f777bb1e18ce,64c800bf7a854dcfc2e0d0ff,up,1,0.75,0.05,2,0,1.6334,2,0,2,0,1,,,,,,,,,,
,,662156,001,2023-07-31_19h45.33.170,arm3_eps,2022.2.5,MacIntel,60.0024001,5d5c74c921a8d40001360a37,64c7fed44a04f777bb1e18ce,64c800bf7a854dcfc2e0d0ff,right,1,0.75,0.05,2,-0.002699627,1.7685,3,0,3,0,1,,,,,,,,,,
,,662156,001,2023-07-31_19h45.33.170,arm3_eps,2022.2.5,MacIntel,60.0024001,5d5c74c921a8d40001360a37,64c7fed44a04f777bb1e18ce,64c800bf7a854dcfc2e0d0ff,up,1,0.75,0.05,3,0,0.631,4,0,4,0,1,,,,,,,,,,
,,662156,001,2023-07-31_19h45.33.170,arm3_eps,2022.2.5,MacIntel,60.0024001,5d5c74c921a8d40001360a37,64c7fed44a04f777bb1e18ce,64c800bf7a854dcfc2e0d0ff,down,1,0.75,0.05,2,0,2.0636,5,0,5,0,1,,,,,,,,,,
,,662156,001,2023-07-31_19h45.33.170,arm3_eps,2022.2.5,MacIntel,60.0024001,5d5c74c921a8d40001360a37,64c7fed44a04f777bb1e18ce,64c800bf7a854dcfc2e0d0ff,up,1,0.75,0.05,3,0,3.8295,6,0,6,0,1,,,,,,,,,,
,,662156,001,2023-07-31_19h45.33.170,arm3_eps,2022.2.5,MacIntel,60.0024001,5d5c74c921a8d40001360a37,64c7fed44a04f777bb1e18ce,64c800bf7a854dcfc2e0d0ff,right,1,0.75,0.05,3,0.00650219,1.5132,7,0,7,0,1,,,,,,,,,,
,,662156,001,2023-07-31_19h45.33.170,arm3_eps,2022.2.5,MacIntel,60.0024001,5d5c74c921a8d40001360a37,64c7fed44a04f777bb1e18ce,64c800bf7a854dcfc2e0d0ff,up,1,0.75,0.05,3,0,0.5817,8,0,8,0,1,,,,,,,,,,
,,662156,001,2023-07-31_19h45.33.170,arm3_eps,2022.2.5,MacIntel,60.0024001,5d5c74c921a8d40001360a37,64c7fed44a04f777bb1e18ce,64c800bf7a854dcfc2e0d0ff,right,1,0.75,0.05,3,-0.005324947,1.4755,9,0,9,0,1,,,,,,,,,,
,,662156,001,2023-07-31_19h45.33.170,arm3_eps,2022.2.5,MacIntel,60.0024001,5d5c74c921a8d40001360a37,64c7fed44a04f777bb1e18ce,64c800bf7a854dcfc2e0d0ff,right,1,0.75,0.05,3,0.017443826,0.397,10,0,10,0,1,,,,,,,,,,
,,662156,001,2023-07-31_19h45.33.170,arm3_eps,2022.2.5,MacIntel,60.0024001,5d5c74c921a8d40001360a37,64c7fed44a04f777bb1e18ce,64c800bf7a854dcfc2e0d0ff,right,1,0.75,0.05,3,0.015475989,0.4008,11,0,11,0,1,,,,,,,,,,
,,662156,001,2023-07-31_19h45.33.170,arm3_eps,2022.2.5,MacIntel,60.0024001,5d5c74c921a8d40001360a37,64c7fed44a04f777bb1e18ce,64c800bf7a854dcfc2e0d0ff,up,1,0.75,0.05,4,0,0.5333,12,0,12,0,1,,,,,,,,,,
,,662156,001,2023-07-31_19h45.33.170,arm3_eps,2022.2.5,MacIntel,60.0024001,5d5c74c921a8d40001360a37,64c7fed44a04f777bb1e18ce,64c800bf7a854dcfc2e0d0ff,up,1,0.75,0.05,5,0,1.5143,13,0,13,0,1,,,,,,,,,,
,,662156,001,2023-07-31_19h45.33.170,arm3_eps,2022.2.5,MacIntel,60.0024001,5d5c74c921a8d40001360a37,64c7fed44a04f777bb1e18ce,64c800bf7a854dcfc2e0d0ff,up,1,0.75,0.05,6,0,1.049,14,0,14,0,1,,,,,,,,,,
,,662156,001,2023-07-31_19h45.33.170,arm3_eps,2022.2.5,MacIntel,60.0024001,5d5c74c921a8d40001360a37,64c7fed44a04f777bb1e18ce,64c800bf7a854dcfc2e0d0ff,right,1,0.75,0.05,6,0.00741821,1.6501,15,0,15,0,1,,,,,,,,,,
,,662156,001,2023-07-31_19h45.33.170,arm3_eps,2022.2.5,MacIntel,60.0024001,5d5c74c921a8d40001360a37,64c7fed44a04f777bb1e18ce,64c800bf7a854dcfc2e0d0ff,up,1,0.75,0.05,7,0,0.4494,16,0,16,0,1,,,,,,,,,,
,,662156,001,2023-07-31_19h45.33.170,arm3_eps,2022.2.5,MacIntel,60.0024001,5d5c74c921a8d40001360a37,64c7fed44a04f777bb1e18ce,64c800bf7a854dcfc2e0d0ff,up,1,0.75,0.05,7,0,1.5313,17,0,17,0,1,,,,,,,,,,
,,662156,001,2023-07-31_19h45.33.170,arm3_eps,2022.2.5,MacIntel,60.0024001,5d5c74c921a8d40001360a37,64c7fed44a04f777bb1e18ce,64c800bf7a854dcfc2e0d0ff,down,1,0.75,0.05,7,0,1.2143,18,0,18,0,1,,,,,,,,,,
,,662156,001,2023-07-31_19h45.33.170,arm3_eps,2022.2.5,MacIntel,60.0024001,5d5c74c921a8d40001360a37,64c7fed44a04f777bb1e18ce,64c800bf7a854dcfc2e0d0ff,up,1,0.75,0.05,8,0,1.0491,19,0,19,0,1,,,,,,,,,,
,,662156,001,2023-07-31_19h45.33.170,arm3_eps,2022.2.5,MacIntel,60.0024001,5d5c74c921a8d40001360a37,64c7fed44a04f777bb1e18ce,64c800bf7a854dcfc2e0d0ff,down,1,0.75,0.05,7,0,1.0812,20,0,20,0,1,,,,,,,,,,
,,662156,001,2023-07-31_19h45.33.170,arm3_eps,2022.2.5,MacIntel,60.0024001,5d5c74c921a8d40001360a37,64c7fed44a04f777bb1e18ce,64c800bf7a854dcfc2e0d0ff,up,1,0.75,0.05,8,0,2.0823,21,0,21,0,1,,,,,,,,,,
,,662156,001,2023-07-31_19h45.33.170,arm3_eps,2022.2.5,MacIntel,60.0024001,5d5c74c921a8d40001360a37,64c7fed44a04f777bb1e18ce,64c800bf7a854dcfc2e0d0ff,up,1,0.75,0.05,8,0,1.0585,22,0,22,0,1,,,,,,,,,,
,,662156,001,2023-07-31_19h45.33.170,arm3_eps,2022.2.5,MacIntel,60.0024001,5d5c74c921a8d40001360a37,64c7fed44a04f777bb1e18ce,64c800bf7a854dcfc2e0d0ff,down,1,0.75,0.05,7,0,1.2324,23,0,23,0,1,,,,,,,,,,
,,662156,001,2023-07-31_19h45.33.170,arm3_eps,2022.2.5,MacIntel,60.0024001,5d5c74c921a8d40001360a37,64c7fed44a04f777bb1e18ce,64c800bf7a854dcfc2e0d0ff,up,1,0.75,0.05,8,0,1.0781,24,0,24,0,1,,,,,,,,,,
,,662156,001,2023-07-31_19h45.33.170,arm3_eps,2022.2.5,MacIntel,60.0024001,5d5c74c921a8d40001360a37,64c7fed44a04f777bb1e18ce,64c800bf7a854dcfc2e0d0ff,right,1,0.75,0.05,8,-0.002218266,1.1316,25,0,25,0,1,,,,,,,,,,
,,662156,001,2023-07-31_19h45.33.170,arm3_eps,2022.2.5,MacIntel,60.0024001,5d5c74c921a8d40001360a37,64c7fed44a04f777bb1e18ce,64c800bf7a854dcfc2e0d0ff,down,1,0.75,0.05,7,0,0.5821,26,0,26,0,1,,,,,,,,,,
,,662156,001,2023-07-31_19h45.33.170,arm3_eps,2022.2.5,MacIntel,60.0024001,5d5c74c921a8d40001360a37,64c7fed44a04f777bb1e18ce,64c800bf7a854dcfc2e0d0ff,right,1,0.75,0.05,7,0.013451091,1.0011,27,0,27,0,1,,,,,,,,,,
,,662156,001,2023-07-31_19h45.33.170,arm3_eps,2022.2.5,MacIntel,60.0024001,5d5c74c921a8d40001360a37,64c7fed44a04f777bb1e18ce,64c800bf7a854dcfc2e0d0ff,right,1,0.75,0.05,7,0.045450561,0.4325,28,0,28,0,1,,,,,,,,,,
,,662156,001,2023-07-31_19h45.33.170,arm3_eps,2022.2.5,MacIntel,60.0024001,5d5c74c921a8d40001360a37,64c7fed44a04f777bb1e18ce,64c800bf7a854dcfc2e0d0ff,up,1,0.75,0.05,8,0,4.2538,29,0,29,0,1,,,,,,,,,,
,,662156,001,2023-07-31_19h45.33.170,arm3_eps,2022.2.5,MacIntel,60.0024001,5d5c74c921a8d40001360a37,64c7fed44a04f777bb1e18ce,64c800bf7a854dcfc2e0d0ff,right,1,0.75,0.05,8,0.012313576,1.0845,30,0,30,0,1,,,,,,,,,,
,,662156,001,2023-07-31_19h45.33.170,arm3_eps,2022.2.5,MacIntel,60.0024001,5d5c74c921a8d40001360a37,64c7fed44a04f777bb1e18ce,64c800bf7a854dcfc2e0d0ff,right,1,0.75,0.05,8,0.03531891,0.2828,31,0,31,0,1,,,,,,,,,,
,,662156,001,2023-07-31_19h45.33.170,arm3_eps,2022.2.5,MacIntel,60.0024001,5d5c74c921a8d40001360a37,64c7fed44a04f777bb1e18ce,64c800bf7a854dcfc2e0d0ff,down,1,0.75,0.05,7,0,0.6931,32,0,32,0,1,,,,,,,,,,
,,662156,001,2023-07-31_19h45.33.170,arm3_eps,2022.2.5,MacIntel,60.0024001,5d5c74c921a8d40001360a37,64c7fed44a04f777bb1e18ce,64c800bf7a854dcfc2e0d0ff,right,1,0.75,0.05,7,0.034666979,0.8789,33,0,33,0,1,,,,,,,,,,
,,662156,001,2023-07-31_19h45.33.170,arm3_eps,2022.2.5,MacIntel,60.0024001,5d5c74c921a8d40001360a37,64c7fed44a04f777bb1e18ce,64c800bf7a854dcfc2e0d0ff,right,1,0.75,0.05,7,0.035457611,0.3659,34,0,34,0,1,,,,,,,,,,
,,662156,001,2023-07-31_19h45.33.170,arm3_eps,2022.2.5,MacIntel,60.0024001,5d5c74c921a8d40001360a37,64c7fed44a04f777bb1e18ce,64c800bf7a854dcfc2e0d0ff,right,1,0.75,0.05,7,0.045614047,0.4155,35,0,35,0,1,,,,,,,,,,
,,662156,001,2023-07-31_19h45.33.170,arm3_eps,2022.2.5,MacIntel,60.0024001,5d5c74c921a8d40001360a37,64c7fed44a04f777bb1e18ce,64c800bf7a854dcfc2e0d0ff,up,1,0.75,0.05,8,0,0.3663,36,0,36,0,1,,,,,,,,,,
,,662156,001,2023-07-31_19h45.33.170,arm3_eps,2022.2.5,MacIntel,60.0024001,5d5c74c921a8d40001360a37,64c7fed44a04f777bb1e18ce,64c800bf7a854dcfc2e0d0ff,right,1,0.75,0.05,8,0.022181611,0.3832,37,0,37,0,1,,,,,,,,,,
,,662156,001,2023-07-31_19h45.33.170,arm3_eps,2022.2.5,MacIntel,60.0024001,5d5c74c921a8d40001360a37,64c7fed44a04f777bb1e18ce,64c800bf7a854dcfc2e0d0ff,right,1,0.75,0.05,8,0.007358513,0.332,38,0,38,0,1,,,,,,,,,,
,,662156,001,2023-07-31_19h45.33.170,arm3_eps,2022.2.5,MacIntel,60.0024001,5d5c74c921a8d40001360a37,64c7fed44a04f777bb1e18ce,64c800bf7a854dcfc2e0d0ff,right,1,0.75,0.05,8,0.026466118,0.5505,39,0,39,0,1,,,,,,,,,,
,,662156,001,2023-07-31_19h45.33.170,arm3_eps,2022.2.5,MacIntel,60.0024001,5d5c74c921a8d40001360a37,64c7fed44a04f777bb1e18ce,64c800bf7a854dcfc2e0d0ff,right,1,0.75,0.05,8,0.027244454,0.4666,40,0,40,0,1,,,,,,,,,,
,,662156,001,2023-07-31_19h45.33.170,arm3_eps,2022.2.5,MacIntel,60.0024001,5d5c74c921a8d40001360a37,64c7fed44a04f777bb1e18ce,64c800bf7a854dcfc2e0d0ff,up,1,0.75,0.05,8,0,0.55,41,0,41,0,1,,,,,,,,,,
,,662156,001,2023-07-31_19h45.33.170,arm3_eps,2022.2.5,MacIntel,60.0024001,5d5c74c921a8d40001360a37,64c7fed44a04f777bb1e18ce,64c800bf7a854dcfc2e0d0ff,right,1,0.75,0.05,8,0.015168113,0.9607,42,0,42,0,1,,,,,,,,,,
,,662156,001,2023-07-31_19h45.33.170,arm3_eps,2022.2.5,MacIntel,60.0024001,5d5c74c921a8d40001360a37,64c7fed44a04f777bb1e18ce,64c800bf7a854dcfc2e0d0ff,right,1,0.75,0.05,8,0.025562656,0.2312,43,0,43,0,1,,,,,,,,,,
,,662156,001,2023-07-31_19h45.33.170,arm3_eps,2022.2.5,MacIntel,60.0024001,5d5c74c921a8d40001360a37,64c7fed44a04f777bb1e18ce,64c800bf7a854dcfc2e0d0ff,right,1,0.75,0.05,8,0.035754372,0.252,44,0,44,0,1,,,,,,,,,,
,,662156,001,2023-07-31_19h45.33.170,arm3_eps,2022.2.5,MacIntel,60.0024001,5d5c74c921a8d40001360a37,64c7fed44a04f777bb1e18ce,64c800bf7a854dcfc2e0d0ff,up,1,0.75,0.05,8,0,0.2759,45,0,45,0,1,,,,,,,,,,
,,662156,001,2023-07-31_19h45.33.170,arm3_eps,2022.2.5,MacIntel,60.0024001,5d5c74c921a8d40001360a37,64c7fed44a04f777bb1e18ce,64c800bf7a854dcfc2e0d0ff,right,1,0.75,0.05,8,-0.000590889,0.9784,46,0,46,0,1,,,,,,,,,,
,,662156,001,2023-07-31_19h45.33.170,arm3_eps,2022.2.5,MacIntel,60.0024001,5d5c74c921a8d40001360a37,64c7fed44a04f777bb1e18ce,64c800bf7a854dcfc2e0d0ff,up,1,0.75,0.05,9,0,0.4995,47,0,47,0,1,,,,,,,,,,
,,662156,001,2023-07-31_19h45.33.170,arm3_eps,2022.2.5,MacIntel,60.0024001,5d5c74c921a8d40001360a37,64c7fed44a04f777bb1e18ce,64c800bf7a854dcfc2e0d0ff,right,1,0.75,0.05,9,0.019260491,0.7624,48,0,48,0,1,,,,,,,,,,
,,662156,001,2023-07-31_19h45.33.170,arm3_eps,2022.2.5,MacIntel,60.0024001,5d5c74c921a8d40001360a37,64c7fed44a04f777bb1e18ce,64c800bf7a854dcfc2e0d0ff,up,1,0.75,0.05,9,0.019260491,0.3989,49,0,49,0,1,,,,,,,,,,
space,4.6497,662156,001,2023-07-31_19h45.33.170,arm3_eps,2022.2.5,MacIntel,60.0024001,5d5c74c921a8d40001360a37,64c7fed44a04f777bb1e18ce,64c800bf7a854dcfc2e0d0ff,,,,,,,,,,,,,,,,,,,,,,
space,0.8257,662156,001,2023-07-31_19h45.33.170,arm3_eps,2022.2.5,MacIntel,60.0024001,5d5c74c921a8d40001360a37,64c7fed44a04f777bb1e18ce,64c800bf7a854dcfc2e0d0ff,,,,,,,,,,,,,,,,,,,,,,
,,662156,001,2023-07-31_19h45.33.170,arm3_eps,2022.2.5,MacIntel,60.0024001,5d5c74c921a8d40001360a37,64c7fed44a04f777bb1e18ce,64c800bf7a854dcfc2e0d0ff,right,1,0.75,0.5,0,0.029464155,0.6575,0,0,0,0,1,,,,,,,,,,
,,662156,001,2023-07-31_19h45.33.170,arm3_eps,2022.2.5,MacIntel,60.0024001,5d5c74c921a8d40001360a37,64c7fed44a04f777bb1e18ce,64c800bf7a854dcfc2e0d0ff,up,1,0.75,0.5,0,0,0.5105,1,0,1,0,1,,,,,,,,,,
,,662156,001,2023-07-31_19h45.33.170,arm3_eps,2022.2.5,MacIntel,60.0024001,5d5c74c921a8d40001360a37,64c7fed44a04f777bb1e18ce,64c800bf7a854dcfc2e0d0ff,right,1,0.75,0.5,0,0.014064063,0.961,2,0,2,0,1,,,,,,,,,,
,,662156,001,2023-07-31_19h45.33.170,arm3_eps,2022.2.5,MacIntel,60.0024001,5d5c74c921a8d40001360a37,64c7fed44a04f777bb1e18ce,64c800bf7a854dcfc2e0d0ff,right,1,0.75,0.5,0,0.027888296,0.4098,3,0,3,0,1,,,,,,,,,,
,,662156,001,2023-07-31_19h45.33.170,arm3_eps,2022.2.5,MacIntel,60.0024001,5d5c74c921a8d40001360a37,64c7fed44a04f777bb1e18ce,64c800bf7a854dcfc2e0d0ff,right,1,0.75,0.5,0,0.024370629,0.7999,4,0,4,0,1,,,,,,,,,,
,,662156,001,2023-07-31_19h45.33.170,arm3_eps,2022.2.5,MacIntel,60.0024001,5d5c74c921a8d40001360a37,64c7fed44a04f777bb1e18ce,64c800bf7a854dcfc2e0d0ff,right,1,0.75,0.5,0,0.012715255,0.6347,5,0,5,0,1,,,,,,,,,,
,,662156,001,2023-07-31_19h45.33.170,arm3_eps,2022.2.5,MacIntel,60.0024001,5d5c74c921a8d40001360a37,64c7fed44a04f777bb1e18ce,64c800bf7a854dcfc2e0d0ff,up,1,0.75,0.5,1,0,1.6337,6,0,6,0,1,,,,,,,,,,
,,662156,001,2023-07-31_19h45.33.170,arm3_eps,2022.2.5,MacIntel,60.0024001,5d5c74c921a8d40001360a37,64c7fed44a04f777bb1e18ce,64c800bf7a854dcfc2e0d0ff,right,1,0.75,0.5,1,-0.004560655,0.982,7,0,7,0,1,,,,,,,,,,
,,662156,001,2023-07-31_19h45.33.170,arm3_eps,2022.2.5,MacIntel,60.0024001,5d5c74c921a8d40001360a37,64c7fed44a04f777bb1e18ce,64c800bf7a854dcfc2e0d0ff,down,1,0.75,0.5,0,0,0.5835,8,0,8,0,1,,,,,,,,,,
,,662156,001,2023-07-31_19h45.33.170,arm3_eps,2022.2.5,MacIntel,60.0024001,5d5c74c921a8d40001360a37,64c7fed44a04f777bb1e18ce,64c800bf7a854dcfc2e0d0ff,right,1,0.75,0.5,0,0.03412421,0.8586,9,0,9,0,1,,,,,,,,,,
,,662156,001,2023-07-31_19h45.33.170,arm3_eps,2022.2.5,MacIntel,60.0024001,5d5c74c921a8d40001360a37,64c7fed44a04f777bb1e18ce,64c800bf7a854dcfc2e0d0ff,right,1,0.75,0.5,0,0.056022073,0.3158,10,0,10,0,1,,,,,,,,,,
,,662156,001,2023-07-31_19h45.33.170,arm3_eps,2022.2.5,MacIntel,60.0024001,5d5c74c921a8d40001360a37,64c7fed44a04f777bb1e18ce,64c800bf7a854dcfc2e0d0ff,right,1,0.75,0.5,0,0.051631256,1.7292,11,0,11,0,1,,,,,,,,,,
,,662156,001,2023-07-31_19h45.33.170,arm3_eps,2022.2.5,MacIntel,60.0024001,5d5c74c921a8d40001360a37,64c7fed44a04f777bb1e18ce,64c800bf7a854dcfc2e0d0ff,up,1,0.75,0.5,1,0,3.6493,12,0,12,0,1,,,,,,,,,,
,,662156,001,2023-07-31_19h45.33.170,arm3_eps,2022.2.5,MacIntel,60.0024001,5d5c74c921a8d40001360a37,64c7fed44a04f777bb1e18ce,64c800bf7a854dcfc2e0d0ff,right,1,0.75,0.5,1,0.026764746,1.0822,13,0,13,0,1,,,,,,,,,,
,,662156,001,2023-07-31_19h45.33.170,arm3_eps,2022.2.5,MacIntel,60.0024001,5d5c74c921a8d40001360a37,64c7fed44a04f777bb1e18ce,64c800bf7a854dcfc2e0d0ff,up,1,0.75,0.5,1,0,0.6505,14,0,14,0,1,,,,,,,,,,
,,662156,001,2023-07-31_19h45.33.170,arm3_eps,2022.2.5,MacIntel,60.0024001,5d5c74c921a8d40001360a37,64c7fed44a04f777bb1e18ce,64c800bf7a854dcfc2e0d0ff,right,1,0.75,0.5,1,0.007502114,0.9488,15,0,15,0,1,,,,,,,,,,
,,662156,001,2023-07-31_19h45.33.170,arm3_eps,2022.2.5,MacIntel,60.0024001,5d5c74c921a8d40001360a37,64c7fed44a04f777bb1e18ce,64c800bf7a854dcfc2e0d0ff,right,1,0.75,0.5,1,-0.008880976,0.7663,16,0,16,0,1,,,,,,,,,,
,,662156,001,2023-07-31_19h45.33.170,arm3_eps,2022.2.5,MacIntel,60.0024001,5d5c74c921a8d40001360a37,64c7fed44a04f777bb1e18ce,64c800bf7a854dcfc2e0d0ff,right,1,0.75,0.5,1,-0.005012642,0.3921,17,0,17,0,1,,,,,,,,,,
,,662156,001,2023-07-31_19h45.33.170,arm3_eps,2022.2.5,MacIntel,60.0024001,5d5c74c921a8d40001360a37,64c7fed44a04f777bb1e18ce,64c800bf7a854dcfc2e0d0ff,up,-1,0.75,0.5,1,0,0.7184,18,0,18,0,1,,,,,,,,,,
,,662156,001,2023-07-31_19h45.33.170,arm3_eps,2022.2.5,MacIntel,60.0024001,5d5c74c921a8d40001360a37,64c7fed44a04f777bb1e18ce,64c800bf7a854dcfc2e0d0ff,right,-1,0.75,0.5,1,-0.020352275,0.9431,19,0,19,0,1,,,,,,,,,,
,,662156,001,2023-07-31_19h45.33.170,arm3_eps,2022.2.5,MacIntel,60.0024001,5d5c74c921a8d40001360a37,64c7fed44a04f777bb1e18ce,64c800bf7a854dcfc2e0d0ff,down,-1,0.75,0.5,2,0,0.5648,20,0,20,0,1,,,,,,,,,,
,,662156,001,2023-07-31_19h45.33.170,arm3_eps,2022.2.5,MacIntel,60.0024001,5d5c74c921a8d40001360a37,64c7fed44a04f777bb1e18ce,64c800bf7a854dcfc2e0d0ff,right,-1,0.75,0.5,2,-0.007069553,0.8852,21,0,21,0,1,,,,,,,,,,
,,662156,001,2023-07-31_19h45.33.170,arm3_eps,2022.2.5,MacIntel,60.0024001,5d5c74c921a8d40001360a37,64c7fed44a04f777bb1e18ce,64c800bf7a854dcfc2e0d0ff,down,-1,0.75,0.5,2,0,0.8511,22,0,22,0,1,,,,,,,,,,
,,662156,001,2023-07-31_19h45.33.170,arm3_eps,2022.2.5,MacIntel,60.0024001,5d5c74c921a8d40001360a37,64c7fed44a04f777bb1e18ce,64c800bf7a854dcfc2e0d0ff,right,-1,0.75,0.5,2,0.007187763,0.9307,23,0,23,0,1,,,,,,,,,,
,,662156,001,2023-07-31_19h45.33.170,arm3_eps,2022.2.5,MacIntel,60.0024001,5d5c74c921a8d40001360a37,64c7fed44a04f777bb1e18ce,64c800bf7a854dcfc2e0d0ff,right,-1,0.75,0.5,2,0.021178435,0.6191,24,0,24,0,1,,,,,,,,,,
,,662156,001,2023-07-31_19h45.33.170,arm3_eps,2022.2.5,MacIntel,60.0024001,5d5c74c921a8d40001360a37,64c7fed44a04f777bb1e18ce,64c800bf7a854dcfc2e0d0ff,right,-1,0.75,0.5,2,-0.004117729,0.5201,25,0,25,0,1,,,,,,,,,,
,,662156,001,2023-07-31_19h45.33.170,arm3_eps,2022.2.5,MacIntel,60.0024001,5d5c74c921a8d40001360a37,64c7fed44a04f777bb1e18ce,64c800bf7a854dcfc2e0d0ff,right,-1,0.75,0.5,2,0.012756729,0.4797,26,0,26,0,1,,,,,,,,,,
,,662156,001,2023-07-31_19h45.33.170,arm3_eps,2022.2.5,MacIntel,60.0024001,5d5c74c921a8d40001360a37,64c7fed44a04f777bb1e18ce,64c800bf7a854dcfc2e0d0ff,down,1,0.75,0.5,3,0,0.6599,27,0,27,0,1,,,,,,,,,,
,,662156,001,2023-07-31_19h45.33.170,arm3_eps,2022.2.5,MacIntel,60.0024001,5d5c74c921a8d40001360a37,64c7fed44a04f777bb1e18ce,64c800bf7a854dcfc2e0d0ff,right,1,0.75,0.5,3,-0.005673416,1.0451,28,0,28,0,1,,,,,,,,,,
,,662156,001,2023-07-31_19h45.33.170,arm3_eps,2022.2.5,MacIntel,60.0024001,5d5c74c921a8d40001360a37,64c7fed44a04f777bb1e18ce,64c800bf7a854dcfc2e0d0ff,right,1,0.75,0.5,3,0.011454407,0.2679,29,0,29,0,1,,,,,,,,,,
,,662156,001,2023-07-31_19h45.33.170,arm3_eps,2022.2.5,MacIntel,60.0024001,5d5c74c921a8d40001360a37,64c7fed44a04f777bb1e18ce,64c800bf7a854dcfc2e0d0ff,right,1,0.75,0.5,3,0.014854067,0.3491,30,0,30,0,1,,,,,,,,,,
,,662156,001,2023-07-31_19h45.33.170,arm3_eps,2022.2.5,MacIntel,60.0024001,5d5c74c921a8d40001360a37,64c7fed44a04f777bb1e18ce,64c800bf7a854dcfc2e0d0ff,right,1,0.75,0.5,3,0.021493969,0.4153,31,0,31,0,1,,,,,,,,,,
,,662156,001,2023-07-31_19h45.33.170,arm3_eps,2022.2.5,MacIntel,60.0024001,5d5c74c921a8d40001360a37,64c7fed44a04f777bb1e18ce,64c800bf7a854dcfc2e0d0ff,right,1,0.75,0.5,3,0.013125934,0.9516,32,0,32,0,1,,,,,,,,,,
,,662156,001,2023-07-31_19h45.33.170,arm3_eps,2022.2.5,MacIntel,60.0024001,5d5c74c921a8d40001360a37,64c7fed44a04f777bb1e18ce,64c800bf7a854dcfc2e0d0ff,up,-1,0.75,0.5,4,0,0.9554,33,0,33,0,1,,,,,,,,,,
,,662156,001,2023-07-31_19h45.33.170,arm3_eps,2022.2.5,MacIntel,60.0024001,5d5c74c921a8d40001360a37,64c7fed44a04f777bb1e18ce,64c800bf7a854dcfc2e0d0ff,right,-1,0.75,0.5,4,0.017765635,0.7992,34,0,34,0,1,,,,,,,,,,
,,662156,001,2023-07-31_19h45.33.170,arm3_eps,2022.2.5,MacIntel,60.0024001,5d5c74c921a8d40001360a37,64c7fed44a04f777bb1e18ce,64c800bf7a854dcfc2e0d0ff,right,-1,0.75,0.5,4,-0.030966407,0.1711,35,0,35,0,1,,,,,,,,,,
,,662156,001,2023-07-31_19h45.33.170,arm3_eps,2022.2.5,MacIntel,60.0024001,5d5c74c921a8d40001360a37,64c7fed44a04f777bb1e18ce,64c800bf7a854dcfc2e0d0ff,right,-1,0.75,0.5,4,-0.04871132,0.3639,36,0,36,0,1,,,,,,,,,,
,,662156,001,2023-07-31_19h45.33.170,arm3_eps,2022.2.5,MacIntel,60.0024001,5d5c74c921a8d40001360a37,64c7fed44a04f777bb1e18ce,64c800bf7a854dcfc2e0d0ff,down,1,0.75,0.5,5,0,0.3183,37,0,37,0,1,,,,,,,,,,
,,662156,001,2023-07-31_19h45.33.170,arm3_eps,2022.2.5,MacIntel,60.0024001,5d5c74c921a8d40001360a37,64c7fed44a04f777bb1e18ce,64c800bf7a854dcfc2e0d0ff,right,1,0.75,0.5,5,0.008067361,0.7503,38,0,38,0,1,,,,,,,,,,
,,662156,001,2023-07-31_19h45.33.170,arm3_eps,2022.2.5,MacIntel,60.0024001,5d5c74c921a8d40001360a37,64c7fed44a04f777bb1e18ce,64c800bf7a854dcfc2e0d0ff,right,1,0.75,0.5,5,0.003145977,0.2002,39,0,39,0,1,,,,,,,,,,
,,662156,001,2023-07-31_19h45.33.170,arm3_eps,2022.2.5,MacIntel,60.0024001,5d5c74c921a8d40001360a37,64c7fed44a04f777bb1e18ce,64c800bf7a854dcfc2e0d0ff,right,1,0.75,0.5,5,-0.010152443,0.1993,40,0,40,0,1,,,,,,,,,,
,,662156,001,2023-07-31_19h45.33.170,arm3_eps,2022.2.5,MacIntel,60.0024001,5d5c74c921a8d40001360a37,64c7fed44a04f777bb1e18ce,64c800bf7a854dcfc2e0d0ff,right,1,0.75,0.5,5,-0.015458567,0.3172,41,0,41,0,1,,,,,,,,,,
,,662156,001,2023-07-31_19h45.33.170,arm3_eps,2022.2.5,MacIntel,60.0024001,5d5c74c921a8d40001360a37,64c7fed44a04f777bb1e18ce,64c800bf7a854dcfc2e0d0ff,up,1,0.75,0.5,6,0,0.659,42,0,42,0,1,,,,,,,,,,
,,662156,001,2023-07-31_19h45.33.170,arm3_eps,2022.2.5,MacIntel,60.0024001,5d5c74c921a8d40001360a37,64c7fed44a04f777bb1e18ce,64c800bf7a854dcfc2e0d0ff,right,1,0.75,0.5,6,0.017558018,0.7966,43,0,43,0,1,,,,,,,,,,
,,662156,001,2023-07-31_19h45.33.170,arm3_eps,2022.2.5,MacIntel,60.0024001,5d5c74c921a8d40001360a37,64c7fed44a04f777bb1e18ce,64c800bf7a854dcfc2e0d0ff,right,1,0.75,0.5,6,0.036900124,0.2374,44,0,44,0,1,,,,,,,,,,
,,662156,001,2023-07-31_19h45.33.170,arm3_eps,2022.2.5,MacIntel,60.0024001,5d5c74c921a8d40001360a37,64c7fed44a04f777bb1e18ce,64c800bf7a854dcfc2e0d0ff,right,1,0.75,0.5,6,0.044653256,0.2814,45,0,45,0,1,,,,,,,,,,
,,662156,001,2023-07-31_19h45.33.170,arm3_eps,2022.2.5,MacIntel,60.0024001,5d5c74c921a8d40001360a37,64c7fed44a04f777bb1e18ce,64c800bf7a854dcfc2e0d0ff,right,1,0.75,0.5,6,0.054081508,0.2711,46,0,46,0,1,,,,,,,,,,
,,662156,001,2023-07-31_19h45.33.170,arm3_eps,2022.2.5,MacIntel,60.0024001,5d5c74c921a8d40001360a37,64c7fed44a04f777bb1e18ce,64c800bf7a854dcfc2e0d0ff,up,-1,0.75,0.5,6,0,0.5335,47,0,47,0,1,,,,,,,,,,
,,662156,001,2023-07-31_19h45.33.170,arm3_eps,2022.2.5,MacIntel,60.0024001,5d5c74c921a8d40001360a37,64c7fed44a04f777bb1e18ce,64c800bf7a854dcfc2e0d0ff,right,-1,0.75,0.5,6,-0.019622584,0.8324,48,0,48,0,1,,,,,,,,,,
,,662156,001,2023-07-31_19h45.33.170,arm3_eps,2022.2.5,MacIntel,60.0024001,5d5c74c921a8d40001360a37,64c7fed44a04f777bb1e18ce,64c800bf7a854dcfc2e0d0ff,right,-1,0.75,0.5,6,-0.034020613,0.4992,49,0,49,0,1,,,,,,,,,,
space,1.6656,662156,001,2023-07-31_19h45.33.170,arm3_eps,2022.2.5,MacIntel,60.0024001,5d5c74c921a8d40001360a37,64c7fed44a04f777bb1e18ce,64c800bf7a854dcfc2e0d0ff,,,,,,,,,,,,,,,,,,,,,,
space,2.7494,662156,001,2023-07-31_19h45.33.170,arm3_eps,2022.2.5,MacIntel,60.0024001,5d5c74c921a8d40001360a37,64c7fed44a04f777bb1e18ce,64c800bf7a854dcfc2e0d0ff,down,-1,0.75,0.3071,0,0,1.1162,,,,,,0,0,0,0,1,,,,,
,,662156,001,2023-07-31_19h45.33.170,arm3_eps,2022.2.5,MacIntel,60.0024001,5d5c74c921a8d40001360a37,64c7fed44a04f777bb1e18ce,64c800bf7a854dcfc2e0d0ff,down,-1,0.75,0.3071,1,0,1.3637,,,,,,1,0,1,0,1,,,,,
,,662156,001,2023-07-31_19h45.33.170,arm3_eps,2022.2.5,MacIntel,60.0024001,5d5c74c921a8d40001360a37,64c7fed44a04f777bb1e18ce,64c800bf7a854dcfc2e0d0ff,right,-1,0.75,0.3071,1,-0.016381212,1.4135,,,,,,2,0,2,0,1,,,,,
,,662156,001,2023-07-31_19h45.33.170,arm3_eps,2022.2.5,MacIntel,60.0024001,5d5c74c921a8d40001360a37,64c7fed44a04f777bb1e18ce,64c800bf7a854dcfc2e0d0ff,right,-1,0.75,0.3071,1,-0.009127979,0.5661,,,,,,3,0,3,0,1,,,,,
,,662156,001,2023-07-31_19h45.33.170,arm3_eps,2022.2.5,MacIntel,60.0024001,5d5c74c921a8d40001360a37,64c7fed44a04f777bb1e18ce,64c800bf7a854dcfc2e0d0ff,right,-1,0.75,0.3071,1,-0.014362354,0.4158,,,,,,4,0,4,0,1,,,,,
,,662156,001,2023-07-31_19h45.33.170,arm3_eps,2022.2.5,MacIntel,60.0024001,5d5c74c921a8d40001360a37,64c7fed44a04f777bb1e18ce,64c800bf7a854dcfc2e0d0ff,right,-1,0.75,0.3071,1,-0.013818463,0.416,,,,,,5,0,5,0,1,,,,,
,,662156,001,2023-07-31_19h45.33.170,arm3_eps,2022.2.5,MacIntel,60.0024001,5d5c74c921a8d40001360a37,64c7fed44a04f777bb1e18ce,64c800bf7a854dcfc2e0d0ff,up,1,0.75,0.3071,0,0,0.5643,,,,,,6,0,6,0,1,,,,,
,,662156,001,2023-07-31_19h45.33.170,arm3_eps,2022.2.5,MacIntel,60.0024001,5d5c74c921a8d40001360a37,64c7fed44a04f777bb1e18ce,64c800bf7a854dcfc2e0d0ff,right,1,0.75,0.3071,0,-0.005652076,1.0334,,,,,,7,0,7,0,1,,,,,
,,662156,001,2023-07-31_19h45.33.170,arm3_eps,2022.2.5,MacIntel,60.0024001,5d5c74c921a8d40001360a37,64c7fed44a04f777bb1e18ce,64c800bf7a854dcfc2e0d0ff,up,-1,0.75,0.3071,1,0,0.6495,,,,,,8,0,8,0,1,,,,,
,,662156,001,2023-07-31_19h45.33.170,arm3_eps,2022.2.5,MacIntel,60.0024001,5d5c74c921a8d40001360a37,64c7fed44a04f777bb1e18ce,64c800bf7a854dcfc2e0d0ff,right,-1,0.75,0.3071,1,-0.016793765,0.9105,,,,,,9,0,9,0,1,,,,,
,,662156,001,2023-07-31_19h45.33.170,arm3_eps,2022.2.5,MacIntel,60.0024001,5d5c74c921a8d40001360a37,64c7fed44a04f777bb1e18ce,64c800bf7a854dcfc2e0d0ff,down,-1,0.75,0.3071,2,0,0.4973,,,,,,10,0,10,0,1,,,,,
,,662156,001,2023-07-31_19h45.33.170,arm3_eps,2022.2.5,MacIntel,60.0024001,5d5c74c921a8d40001360a37,64c7fed44a04f777bb1e18ce,64c800bf7a854dcfc2e0d0ff,right,-1,0.75,0.3071,2,-0.009222955,1.2326,,,,,,11,0,11,0,1,,,,,
,,662156,001,2023-07-31_19h45.33.170,arm3_eps,2022.2.5,MacIntel,60.0024001,5d5c74c921a8d40001360a37,64c7fed44a04f777bb1e18ce,64c800bf7a854dcfc2e0d0ff,right,-1,0.75,0.3071,2,-0.032590705,0.4165,,,,,,12,0,12,0,1,,,,,
,,662156,001,2023-07-31_19h45.33.170,arm3_eps,2022.2.5,MacIntel,60.0024001,5d5c74c921a8d40001360a37,64c7fed44a04f777bb1e18ce,64c800bf7a854dcfc2e0d0ff,down,-1,0.75,0.3071,3,0,0.4021,,,,,,13,0,13,0,1,,,,,
,,662156,001,2023-07-31_19h45.33.170,arm3_eps,2022.2.5,MacIntel,60.0024001,5d5c74c921a8d40001360a37,64c7fed44a04f777bb1e18ce,64c800bf7a854dcfc2e0d0ff,down,-1,0.75,0.3071,3,0,1.1678,,,,,,14,0,14,0,1,,,,,
,,662156,001,2023-07-31_19h45.33.170,arm3_eps,2022.2.5,MacIntel,60.0024001,5d5c74c921a8d40001360a37,64c7fed44a04f777bb1e18ce,64c800bf7a854dcfc2e0d0ff,down,1,0.75,0.3071,4,0,1.0479,,,,,,15,0,15,0,1,,,,,
,,662156,001,2023-07-31_19h45.33.170,arm3_eps,2022.2.5,MacIntel,60.0024001,5d5c74c921a8d40001360a37,64c7fed44a04f777bb1e18ce,64c800bf7a854dcfc2e0d0ff,right,1,0.75,0.3071,4,-0.011162819,1.2469,,,,,,16,0,16,0,1,,,,,
,,662156,001,2023-07-31_19h45.33.170,arm3_eps,2022.2.5,MacIntel,60.0024001,5d5c74c921a8d40001360a37,64c7fed44a04f777bb1e18ce,64c800bf7a854dcfc2e0d0ff,right,1,0.75,0.3071,4,-0.015609901,0.4983,,,,,,17,0,17,0,1,,,,,
,,662156,001,2023-07-31_19h45.33.170,arm3_eps,2022.2.5,MacIntel,60.0024001,5d5c74c921a8d40001360a37,64c7fed44a04f777bb1e18ce,64c800bf7a854dcfc2e0d0ff,right,1,0.75,0.3071,4,-0.010644901,1.1661,,,,,,18,0,18,0,1,,,,,
,,662156,001,2023-07-31_19h45.33.170,arm3_eps,2022.2.5,MacIntel,60.0024001,5d5c74c921a8d40001360a37,64c7fed44a04f777bb1e18ce,64c800bf7a854dcfc2e0d0ff,right,1,0.75,0.3071,4,-0.007219262,0.3642,,,,,,19,0,19,0,1,,,,,
,,662156,001,2023-07-31_19h45.33.170,arm3_eps,2022.2.5,MacIntel,60.0024001,5d5c74c921a8d40001360a37,64c7fed44a04f777bb1e18ce,64c800bf7a854dcfc2e0d0ff,right,1,0.75,0.3071,4,-0.011808285,0.6621,,,,,,20,0,20,0,1,,,,,
,,662156,001,2023-07-31_19h45.33.170,arm3_eps,2022.2.5,MacIntel,60.0024001,5d5c74c921a8d40001360a37,64c7fed44a04f777bb1e18ce,64c800bf7a854dcfc2e0d0ff,up,1,0.75,0.3071,4,0,0.8988,,,,,,21,0,21,0,1,,,,,
,,662156,001,2023-07-31_19h45.33.170,arm3_eps,2022.2.5,MacIntel,60.0024001,5d5c74c921a8d40001360a37,64c7fed44a04f777bb1e18ce,64c800bf7a854dcfc2e0d0ff,right,1,0.75,0.3071,4,0.028079178,1.1671,,,,,,22,0,22,0,1,,,,,
,,662156,001,2023-07-31_19h45.33.170,arm3_eps,2022.2.5,MacIntel,60.0024001,5d5c74c921a8d40001360a37,64c7fed44a04f777bb1e18ce,64c800bf7a854dcfc2e0d0ff,right,1,0.75,0.3071,4,0.013762752,0.4481,,,,,,23,0,23,0,1,,,,,
,,662156,001,2023-07-31_19h45.33.170,arm3_eps,2022.2.5,MacIntel,60.0024001,5d5c74c921a8d40001360a37,64c7fed44a04f777bb1e18ce,64c800bf7a854dcfc2e0d0ff,right,1,0.75,0.3071,4,0.015717085,0.3683,,,,,,24,0,24,0,1,,,,,
,,662156,001,2023-07-31_19h45.33.170,arm3_eps,2022.2.5,MacIntel,60.0024001,5d5c74c921a8d40001360a37,64c7fed44a04f777bb1e18ce,64c800bf7a854dcfc2e0d0ff,right,1,0.75,0.3071,4,0.028591937,0.3806,,,,,,25,0,25,0,1,,,,,
,,662156,001,2023-07-31_19h45.33.170,arm3_eps,2022.2.5,MacIntel,60.0024001,5d5c74c921a8d40001360a37,64c7fed44a04f777bb1e18ce,64c800bf7a854dcfc2e0d0ff,up,1,0.75,0.3071,4,0,0.3944,,,,,,26,0,26,0,1,,,,,
,,662156,001,2023-07-31_19h45.33.170,arm3_eps,2022.2.5,MacIntel,60.0024001,5d5c74c921a8d40001360a37,64c7fed44a04f777bb1e18ce,64c800bf7a854dcfc2e0d0ff,right,1,0.75,0.3071,4,-0.016751342,1.6463,,,,,,27,0,27,0,1,,,,,
,,662156,001,2023-07-31_19h45.33.170,arm3_eps,2022.2.5,MacIntel,60.0024001,5d5c74c921a8d40001360a37,64c7fed44a04f777bb1e18ce,64c800bf7a854dcfc2e0d0ff,right,1,0.75,0.3071,4,-0.022875027,0.3762,,,,,,28,0,28,0,1,,,,,
,,662156,001,2023-07-31_19h45.33.170,arm3_eps,2022.2.5,MacIntel,60.0024001,5d5c74c921a8d40001360a37,64c7fed44a04f777bb1e18ce,64c800bf7a854dcfc2e0d0ff,right,1,0.75,0.3071,4,-0.029902856,0.309,,,,,,29,0,29,0,1,,,,,
,,662156,001,2023-07-31_19h45.33.170,arm3_eps,2022.2.5,MacIntel,60.0024001,5d5c74c921a8d40001360a37,64c7fed44a04f777bb1e18ce,64c800bf7a854dcfc2e0d0ff,right,1,0.75,0.3071,4,-0.004497838,0.6995,,,,,,30,0,30,0,1,,,,,
,,662156,001,2023-07-31_19h45.33.170,arm3_eps,2022.2.5,MacIntel,60.0024001,5d5c74c921a8d40001360a37,64c7fed44a04f777bb1e18ce,64c800bf7a854dcfc2e0d0ff,right,1,0.75,0.3071,4,-0.013012785,0.4166,,,,,,31,0,31,0,1,,,,,
,,662156,001,2023-07-31_19h45.33.170,arm3_eps,2022.2.5,MacIntel,60.0024001,5d5c74c921a8d40001360a37,64c7fed44a04f777bb1e18ce,64c800bf7a854dcfc2e0d0ff,right,1,0.75,0.3071,4,-0.007235006,0.6667,,,,,,32,0,32,0,1,,,,,
,,662156,001,2023-07-31_19h45.33.170,arm3_eps,2022.2.5,MacIntel,60.0024001,5d5c74c921a8d40001360a37,64c7fed44a04f777bb1e18ce,64c800bf7a854dcfc2e0d0ff,right,1,0.75,0.3071,4,0.000929345,0.4674,,,,,,33,0,33,0,1,,,,,
,,662156,001,2023-07-31_19h45.33.170,arm3_eps,2022.2.5,MacIntel,60.0024001,5d5c74c921a8d40001360a37,64c7fed44a04f777bb1e18ce,64c800bf7a854dcfc2e0d0ff,up,1,0.75,0.3071,5,0,0.6483,,,,,,34,0,34,0,1,,,,,
,,662156,001,2023-07-31_19h45.33.170,arm3_eps,2022.2.5,MacIntel,60.0024001,5d5c74c921a8d40001360a37,64c7fed44a04f777bb1e18ce,64c800bf7a854dcfc2e0d0ff,right,1,0.75,0.3071,5,0.014645191,0.9003,,,,,,35,0,35,0,1,,,,,
,,662156,001,2023-07-31_19h45.33.170,arm3_eps,2022.2.5,MacIntel,60.0024001,5d5c74c921a8d40001360a37,64c7fed44a04f777bb1e18ce,64c800bf7a854dcfc2e0d0ff,right,1,0.75,0.3071,5,0.027750787,0.3269,,,,,,36,0,36,0,1,,,,,
,,662156,001,2023-07-31_19h45.33.170,arm3_eps,2022.2.5,MacIntel,60.0024001,5d5c74c921a8d40001360a37,64c7fed44a04f777bb1e18ce,64c800bf7a854dcfc2e0d0ff,right,1,0.75,0.3071,5,0.020532122,0.359,,,,,,37,0,37,0,1,,,,,
,,662156,001,2023-07-31_19h45.33.170,arm3_eps,2022.2.5,MacIntel,60.0024001,5d5c74c921a8d40001360a37,64c7fed44a04f777bb1e18ce,64c800bf7a854dcfc2e0d0ff,right,1,0.75,0.3071,5,0.018865997,0.3588,,,,,,38,0,38,0,1,,,,,
,,662156,001,2023-07-31_19h45.33.170,arm3_eps,2022.2.5,MacIntel,60.0024001,5d5c74c921a8d40001360a37,64c7fed44a04f777bb1e18ce,64c800bf7a854dcfc2e0d0ff,right,1,0.75,0.3071,5,0.025780021,0.3645,,,,,,39,0,39,0,1,,,,,
,,662156,001,2023-07-31_19h45.33.170,arm3_eps,2022.2.5,MacIntel,60.0024001,5d5c74c921a8d40001360a37,64c7fed44a04f777bb1e18ce,64c800bf7a854dcfc2e0d0ff,up,1,0.75,0.3071,5,0,0.4667,,,,,,40,0,40,0,1,,,,,
,,662156,001,2023-07-31_19h45.33.170,arm3_eps,2022.2.5,MacIntel,60.0024001,5d5c74c921a8d40001360a37,64c7fed44a04f777bb1e18ce,64c800bf7a854dcfc2e0d0ff,right,1,0.75,0.3071,5,-0.013948416,0.8965,,,,,,41,0,41,0,1,,,,,
,,662156,001,2023-07-31_19h45.33.170,arm3_eps,2022.2.5,MacIntel,60.0024001,5d5c74c921a8d40001360a37,64c7fed44a04f777bb1e18ce,64c800bf7a854dcfc2e0d0ff,right,1,0.75,0.3071,5,-0.010799776,0.3429,,,,,,42,0,42,0,1,,,,,
,,662156,001,2023-07-31_19h45.33.170,arm3_eps,2022.2.5,MacIntel,60.0024001,5d5c74c921a8d40001360a37,64c7fed44a04f777bb1e18ce,64c800bf7a854dcfc2e0d0ff,right,1,0.75,0.3071,5,0.015683647,0.2609,,,,,,43,0,43,0,1,,,,,
,,662156,001,2023-07-31_19h45.33.170,arm3_eps,2022.2.5,MacIntel,60.0024001,5d5c74c921a8d40001360a37,64c7fed44a04f777bb1e18ce,64c800bf7a854dcfc2e0d0ff,right,1,0.75,0.3071,5,0.056864309,0.2507,,,,,,44,0,44,0,1,,,,,
,,662156,001,2023-07-31_19h45.33.170,arm3_eps,2022.2.5,MacIntel,60.0024001,5d5c74c921a8d40001360a37,64c7fed44a04f777bb1e18ce,64c800bf7a854dcfc2e0d0ff,right,1,0.75,0.3071,5,0.062096147,0.2311,,,,,,45,0,45,0,1,,,,,
,,662156,001,2023-07-31_19h45.33.170,arm3_eps,2022.2.5,MacIntel,60.0024001,5d5c74c921a8d40001360a37,64c7fed44a04f777bb1e18ce,64c800bf7a854dcfc2e0d0ff,up,1,0.75,0.3071,6,0,0.38,,,,,,46,0,46,0,1,,,,,
,,662156,001,2023-07-31_19h45.33.170,arm3_eps,2022.2.5,MacIntel,60.0024001,5d5c74c921a8d40001360a37,64c7fed44a04f777bb1e18ce,64c800bf7a854dcfc2e0d0ff,right,1,0.75,0.3071,6,0.010100826,0.8463,,,,,,47,0,47,0,1,,,,,
,,662156,001,2023-07-31_19h45.33.170,arm3_eps,2022.2.5,MacIntel,60.0024001,5d5c74c921a8d40001360a37,64c7fed44a04f777bb1e18ce,64c800bf7a854dcfc2e0d0ff,right,1,0.75,0.3071,6,0.022766281,0.2135,,,,,,48,0,48,0,1,,,,,
,,662156,001,2023-07-31_19h45.33.170,arm3_eps,2022.2.5,MacIntel,60.0024001,5d5c74c921a8d40001360a37,64c7fed44a04f777bb1e18ce,64c800bf7a854dcfc2e0d0ff,right,1,0.75,0.3071,6,0.0446524,0.1991,,,,,,49,0,49,0,1,,,,,
,,662156,001,2023-07-31_19h45.33.170,arm3_eps,2022.2.5,MacIntel,60.0024001,5d5c74c921a8d40001360a37,64c7fed44a04f777bb1e18ce,64c800bf7a854dcfc2e0d0ff,up,1,0.75,0.3071,7,0,0.5511,,,,,,50,0,50,0,1,,,,,
,,662156,001,2023-07-31_19h45.33.170,arm3_eps,2022.2.5,MacIntel,60.0024001,5d5c74c921a8d40001360a37,64c7fed44a04f777bb1e18ce,64c800bf7a854dcfc2e0d0ff,right,1,0.75,0.3071,7,0.03133801,0.8332,,,,,,51,0,51,0,1,,,,,
,,662156,001,2023-07-31_19h45.33.170,arm3_eps,2022.2.5,MacIntel,60.0024001,5d5c74c921a8d40001360a37,64c7fed44a04f777bb1e18ce,64c800bf7a854dcfc2e0d0ff,up,1,0.75,0.3071,8,0,0.4004,,,,,,52,0,52,0,1,,,,,
,,662156,001,2023-07-31_19h45.33.170,arm3_eps,2022.2.5,MacIntel,60.0024001,5d5c74c921a8d40001360a37,64c7fed44a04f777bb1e18ce,64c800bf7a854dcfc2e0d0ff,right,1,0.75,0.3071,8,0.019451621,1.5022,,,,,,53,0,53,0,1,,,,,
,,662156,001,2023-07-31_19h45.33.170,arm3_eps,2022.2.5,MacIntel,60.0024001,5d5c74c921a8d40001360a37,64c7fed44a04f777bb1e18ce,64c800bf7a854dcfc2e0d0ff,up,1,0.75,0.3071,9,0,0.5678,,,,,,54,0,54,0,1,,,,,
,,662156,001,2023-07-31_19h45.33.170,arm3_eps,2022.2.5,MacIntel,60.0024001,5d5c74c921a8d40001360a37,64c7fed44a04f777bb1e18ce,64c800bf7a854dcfc2e0d0ff,right,1,0.75,0.3071,9,-0.003678131,1.2334,,,,,,55,0,55,0,1,,,,,
,,662156,001,2023-07-31_19h45.33.170,arm3_eps,2022.2.5,MacIntel,60.0024001,5d5c74c921a8d40001360a37,64c7fed44a04f777bb1e18ce,64c800bf7a854dcfc2e0d0ff,right,1,0.75,0.3071,9,-0.015906747,0.5106,,,,,,56,0,56,0,1,,,,,
,,662156,001,2023-07-31_19h45.33.170,arm3_eps,2022.2.5,MacIntel,60.0024001,5d5c74c921a8d40001360a37,64c7fed44a04f777bb1e18ce,64c800bf7a854dcfc2e0d0ff,right,1,0.75,0.3071,9,-0.01140553,0.3656,,,,,,57,0,57,0,1,,,,,
,,662156,001,2023-07-31_19h45.33.170,arm3_eps,2022.2.5,MacIntel,60.0024001,5d5c74c921a8d40001360a37,64c7fed44a04f777bb1e18ce,64c800bf7a854dcfc2e0d0ff,right,1,0.75,0.3071,9,-0.002358559,0.385,,,,,,58,0,58,0,1,,,,,
,,662156,001,2023-07-31_19h45.33.170,arm3_eps,2022.2.5,MacIntel,60.0024001,5d5c74c921a8d40001360a37,64c7fed44a04f777bb1e18ce,64c800bf7a854dcfc2e0d0ff,right,1,0.75,0.3071,9,0.013526947,0.4017,,,,,,59,0,59,0,1,,,,,
,,662156,001,2023-07-31_19h45.33.170,arm3_eps,2022.2.5,MacIntel,60.0024001,5d5c74c921a8d40001360a37,64c7fed44a04f777bb1e18ce,64c800bf7a854dcfc2e0d0ff,right,1,0.75,0.3071,9,0.033560532,0.3673,,,,,,60,0,60,0,1,,,,,
,,662156,001,2023-07-31_19h45.33.170,arm3_eps,2022.2.5,MacIntel,60.0024001,5d5c74c921a8d40001360a37,64c7fed44a04f777bb1e18ce,64c800bf7a854dcfc2e0d0ff,right,1,0.75,0.3071,9,0.035085912,0.4115,,,,,,61,0,61,0,1,,,,,
,,662156,001,2023-07-31_19h45.33.170,arm3_eps,2022.2.5,MacIntel,60.0024001,5d5c74c921a8d40001360a37,64c7fed44a04f777bb1e18ce,64c800bf7a854dcfc2e0d0ff,right,1,0.75,0.3071,9,0.077688415,0.3841,,,,,,62,0,62,0,1,,,,,
,,662156,001,2023-07-31_19h45.33.170,arm3_eps,2022.2.5,MacIntel,60.0024001,5d5c74c921a8d40001360a37,64c7fed44a04f777bb1e18ce,64c800bf7a854dcfc2e0d0ff,right,1,0.75,0.3071,9,0.084006869,0.6217,,,,,,63,0,63,0,1,,,,,
,,662156,001,2023-07-31_19h45.33.170,arm3_eps,2022.2.5,MacIntel,60.0024001,5d5c74c921a8d40001360a37,64c7fed44a04f777bb1e18ce,64c800bf7a854dcfc2e0d0ff,right,1,0.75,0.3071,9,0.086944905,0.3161,,,,,,64,0,64,0,1,,,,,
,,662156,001,2023-07-31_19h45.33.170,arm3_eps,2022.2.5,MacIntel,60.0024001,5d5c74c921a8d40001360a37,64c7fed44a04f777bb1e18ce,64c800bf7a854dcfc2e0d0ff,right,1,0.75,0.3071,9,0.090333873,0.3332,,,,,,65,0,65,0,1,,,,,
,,662156,001,2023-07-31_19h45.33.170,arm3_eps,2022.2.5,MacIntel,60.0024001,5d5c74c921a8d40001360a37,64c7fed44a04f777bb1e18ce,64c800bf7a854dcfc2e0d0ff,up,1,0.75,0.3071,10,0,0.5176,,,,,,66,0,66,0,1,,,,,
,,662156,001,2023-07-31_19h45.33.170,arm3_eps,2022.2.5,MacIntel,60.0024001,5d5c74c921a8d40001360a37,64c7fed44a04f777bb1e18ce,64c800bf7a854dcfc2e0d0ff,up,1,0.75,0.3071,11,0,1.7498,,,,,,67,0,67,0,1,,,,,
,,662156,001,2023-07-31_19h45.33.170,arm3_eps,2022.2.5,MacIntel,60.0024001,5d5c74c921a8d40001360a37,64c7fed44a04f777bb1e18ce,64c800bf7a854dcfc2e0d0ff,up,1,0.75,0.3071,11,0,1.6181,,,,,,68,0,68,0,1,,,,,
,,662156,001,2023-07-31_19h45.33.170,arm3_eps,2022.2.5,MacIntel,60.0024001,5d5c74c921a8d40001360a37,64c7fed44a04f777bb1e18ce,64c800bf7a854dcfc2e0d0ff,right,1,0.75,0.3071,11,-0.002701761,0.8997,,,,,,69,0,69,0,1,,,,,
,,662156,001,2023-07-31_19h45.33.170,arm3_eps,2022.2.5,MacIntel,60.0024001,5d5c74c921a8d40001360a37,64c7fed44a04f777bb1e18ce,64c800bf7a854dcfc2e0d0ff,right,1,0.75,0.3071,11,0.031816323,0.166,,,,,,70,0,70,0,1,,,,,
,,662156,001,2023-07-31_19h45.33.170,arm3_eps,2022.2.5,MacIntel,60.0024001,5d5c74c921a8d40001360a37,64c7fed44a04f777bb1e18ce,64c800bf7a854dcfc2e0d0ff,up,-1,0.75,0.3071,12,0,0.4198,,,,,,71,0,71,0,1,,,,,
,,662156,001,2023-07-31_19h45.33.170,arm3_eps,2022.2.5,MacIntel,60.0024001,5d5c74c921a8d40001360a37,64c7fed44a04f777bb1e18ce,64c800bf7a854dcfc2e0d0ff,right,-1,0.75,0.3071,12,0.005046199,0.835,,,,,,72,0,72,0,1,,,,,
,,662156,001,2023-07-31_19h45.33.170,arm3_eps,2022.2.5,MacIntel,60.0024001,5d5c74c921a8d40001360a37,64c7fed44a04f777bb1e18ce,64c800bf7a854dcfc2e0d0ff,down,-1,0.75,0.3071,13,0,0.4692,,,,,,73,0,73,0,1,,,,,
,,662156,001,2023-07-31_19h45.33.170,arm3_eps,2022.2.5,MacIntel,60.0024001,5d5c74c921a8d40001360a37,64c7fed44a04f777bb1e18ce,64c800bf7a854dcfc2e0d0ff,right,-1,0.75,0.3071,13,-0.044702051,0.7315,,,,,,74,0,74,0,1,,,,,
,,662156,001,2023-07-31_19h45.33.170,arm3_eps,2022.2.5,MacIntel,60.0024001,5d5c74c921a8d40001360a37,64c7fed44a04f777bb1e18ce,64c800bf7a854dcfc2e0d0ff,down,-1,0.75,0.3071,13,0,0.4352,,,,,,75,0,75,0,1,,,,,
,,662156,001,2023-07-31_19h45.33.170,arm3_eps,2022.2.5,MacIntel,60.0024001,5d5c74c921a8d40001360a37,64c7fed44a04f777bb1e18ce,64c800bf7a854dcfc2e0d0ff,right,-1,0.75,0.3071,13,0.013049015,1.2348,,,,,,76,0,76,0,1,,,,,
,,662156,001,2023-07-31_19h45.33.170,arm3_eps,2022.2.5,MacIntel,60.0024001,5d5c74c921a8d40001360a37,64c7fed44a04f777bb1e18ce,64c800bf7a854dcfc2e0d0ff,right,-1,0.75,0.3071,13,-0.016135199,0.437,,,,,,77,0,77,0,1,,,,,
,,662156,001,2023-07-31_19h45.33.170,arm3_eps,2022.2.5,MacIntel,60.0024001,5d5c74c921a8d40001360a37,64c7fed44a04f777bb1e18ce,64c800bf7a854dcfc2e0d0ff,right,-1,0.75,0.3071,13,-0.04942879,0.2476,,,,,,78,0,78,0,1,,,,,
,,662156,001,2023-07-31_19h45.33.170,arm3_eps,2022.2.5,MacIntel,60.0024001,5d5c74c921a8d40001360a37,64c7fed44a04f777bb1e18ce,64c800bf7a854dcfc2e0d0ff,down,-1,0.75,0.3071,13,0,0.3329,,,,,,79,0,79,0,1,,,,,
,,662156,001,2023-07-31_19h45.33.170,arm3_eps,2022.2.5,MacIntel,60.0024001,5d5c74c921a8d40001360a37,64c7fed44a04f777bb1e18ce,64c800bf7a854dcfc2e0d0ff,right,-1,0.75,0.3071,13,-0.035461135,0.6504,,,,,,80,0,80,0,1,,,,,
,,662156,001,2023-07-31_19h45.33.170,arm3_eps,2022.2.5,MacIntel,60.0024001,5d5c74c921a8d40001360a37,64c7fed44a04f777bb1e18ce,64c800bf7a854dcfc2e0d0ff,right,-1,0.75,0.3071,13,-0.048177096,0.3812,,,,,,81,0,81,0,1,,,,,
,,662156,001,2023-07-31_19h45.33.170,arm3_eps,2022.2.5,MacIntel,60.0024001,5d5c74c921a8d40001360a37,64c7fed44a04f777bb1e18ce,64c800bf7a854dcfc2e0d0ff,down,-1,0.75,0.3071,14,0,0.1824,,,,,,82,0,82,0,1,,,,,
,,662156,001,2023-07-31_19h45.33.170,arm3_eps,2022.2.5,MacIntel,60.0024001,5d5c74c921a8d40001360a37,64c7fed44a04f777bb1e18ce,64c800bf7a854dcfc2e0d0ff,right,-1,0.75,0.3071,14,-0.017756732,0.4179,,,,,,83,0,83,0,1,,,,,
,,662156,001,2023-07-31_19h45.33.170,arm3_eps,2022.2.5,MacIntel,60.0024001,5d5c74c921a8d40001360a37,64c7fed44a04f777bb1e18ce,64c800bf7a854dcfc2e0d0ff,right,-1,0.75,0.3071,14,-0.020858265,0.4779,,,,,,84,0,84,0,1,,,,,
,,662156,001,2023-07-31_19h45.33.170,arm3_eps,2022.2.5,MacIntel,60.0024001,5d5c74c921a8d40001360a37,64c7fed44a04f777bb1e18ce,64c800bf7a854dcfc2e0d0ff,right,-1,0.75,0.3071,14,-0.068668446,0.2828,,,,,,85,0,85,0,1,,,,,
,,662156,001,2023-07-31_19h45.33.170,arm3_eps,2022.2.5,MacIntel,60.0024001,5d5c74c921a8d40001360a37,64c7fed44a04f777bb1e18ce,64c800bf7a854dcfc2e0d0ff,down,-1,0.75,0.3071,15,0,0.2006,,,,,,86,0,86,0,1,,,,,
,,662156,001,2023-07-31_19h45.33.170,arm3_eps,2022.2.5,MacIntel,60.0024001,5d5c74c921a8d40001360a37,64c7fed44a04f777bb1e18ce,64c800bf7a854dcfc2e0d0ff,right,-1,0.75,0.3071,15,-0.020651183,0.3457,,,,,,87,0,87,0,1,,,,,
,,662156,001,2023-07-31_19h45.33.170,arm3_eps,2022.2.5,MacIntel,60.0024001,5d5c74c921a8d40001360a37,64c7fed44a04f777bb1e18ce,64c800bf7a854dcfc2e0d0ff,right,-1,0.75,0.3071,15,-0.026411228,0.3641,,,,,,88,0,88,0,1,,,,,
,,662156,001,2023-07-31_19h45.33.170,arm3_eps,2022.2.5,MacIntel,60.0024001,5d5c74c921a8d40001360a37,64c7fed44a04f777bb1e18ce,64c800bf7a854dcfc2e0d0ff,down,1,0.75,0.3071,16,0,0.2828,,,,,,89,0,89,0,1,,,,,
,,662156,001,2023-07-31_19h45.33.170,arm3_eps,2022.2.5,MacIntel,60.0024001,5d5c74c921a8d40001360a37,64c7fed44a04f777bb1e18ce,64c800bf7a854dcfc2e0d0ff,up,1,0.75,0.3071,17,0,1.8699,,,,,,90,0,90,0,1,,,,,
,,662156,001,2023-07-31_19h45.33.170,arm3_eps,2022.2.5,MacIntel,60.0024001,5d5c74c921a8d40001360a37,64c7fed44a04f777bb1e18ce,64c800bf7a854dcfc2e0d0ff,right,1,0.75,0.3071,17,0.015882084,2.4333,,,,,,91,0,91,0,1,,,,,
,,662156,001,2023-07-31_19h45.33.170,arm3_eps,2022.2.5,MacIntel,60.0024001,5d5c74c921a8d40001360a37,64c7fed44a04f777bb1e18ce,64c800bf7a854dcfc2e0d0ff,right,1,0.75,0.3071,17,0.035003866,0.2498,,,,,,92,0,92,0,1,,,,,
,,662156,001,2023-07-31_19h45.33.170,arm3_eps,2022.2.5,MacIntel,60.0024001,5d5c74c921a8d40001360a37,64c7fed44a04f777bb1e18ce,64c800bf7a854dcfc2e0d0ff,right,1,0.75,0.3071,17,0.020204003,0.8484,,,,,,93,0,93,0,1,,,,,
,,662156,001,2023-07-31_19h45.33.170,arm3_eps,2022.2.5,MacIntel,60.0024001,5d5c74c921a8d40001360a37,64c7fed44a04f777bb1e18ce,64c800bf7a854dcfc2e0d0ff,right,1,0.75,0.3071,17,0.023132557,0.4496,,,,,,94,0,94,0,1,,,,,
,,662156,001,2023-07-31_19h45.33.170,arm3_eps,2022.2.5,MacIntel,60.0024001,5d5c74c921a8d40001360a37,64c7fed44a04f777bb1e18ce,64c800bf7a854dcfc2e0d0ff,up,-1,0.75,0.3071,17,0,0.6171,,,,,,95,0,95,0,1,,,,,
,,662156,001,2023-07-31_19h45.33.170,arm3_eps,2022.2.5,MacIntel,60.0024001,5d5c74c921a8d40001360a37,64c7fed44a04f777bb1e18ce,64c800bf7a854dcfc2e0d0ff,up,-1,0.75,0.3071,16,0,1.2601,,,,,,96,0,96,0,1,,,,,
,,662156,001,2023-07-31_19h45.33.170,arm3_eps,2022.2.5,MacIntel,60.0024001,5d5c74c921a8d40001360a37,64c7fed44a04f777bb1e18ce,64c800bf7a854dcfc2e0d0ff,down,1,0.75,0.3071,16,0,1.762,,,,,,97,0,97,0,1,,,,,
,,662156,001,2023-07-31_19h45.33.170,arm3_eps,2022.2.5,MacIntel,60.0024001,5d5c74c921a8d40001360a37,64c7fed44a04f777bb1e18ce,64c800bf7a854dcfc2e0d0ff,up,1,0.75,0.3071,17,0,1.0165,,,,,,98,0,98,0,1,,,,,
,,662156,001,2023-07-31_19h45.33.170,arm3_eps,2022.2.5,MacIntel,60.0024001,5d5c74c921a8d40001360a37,64c7fed44a04f777bb1e18ce,64c800bf7a854dcfc2e0d0ff,right,1,0.75,0.3071,17,0.014646143,1.2012,,,,,,99,0,99,0,1,,,,,
,,662156,001,2023-07-31_19h45.33.170,arm3_eps,2022.2.5,MacIntel,60.0024001,5d5c74c921a8d40001360a37,64c7fed44a04f777bb1e18ce,64c800bf7a854dcfc2e0d0ff,right,1,0.75,0.3071,17,0.015411385,0.2815,,,,,,100,0,100,0,1,,,,,
,,662156,001,2023-07-31_19h45.33.170,arm3_eps,2022.2.5,MacIntel,60.0024001,5d5c74c921a8d40001360a37,64c7fed44a04f777bb1e18ce,64c800bf7a854dcfc2e0d0ff,up,-1,0.75,0.3071,18,0,0.5826,,,,,,101,0,101,0,1,,,,,
,,662156,001,2023-07-31_19h45.33.170,arm3_eps,2022.2.5,MacIntel,60.0024001,5d5c74c921a8d40001360a37,64c7fed44a04f777bb1e18ce,64c800bf7a854dcfc2e0d0ff,down,-1,0.75,0.3071,19,0,1.0809,,,,,,102,0,102,0,1,,,,,
,,662156,001,2023-07-31_19h45.33.170,arm3_eps,2022.2.5,MacIntel,60.0024001,5d5c74c921a8d40001360a37,64c7fed44a04f777bb1e18ce,64c800bf7a854dcfc2e0d0ff,right,-1,0.75,0.3071,19,0.004952011,1.5634,,,,,,103,0,103,0,1,,,,,
,,662156,001,2023-07-31_19h45.33.170,arm3_eps,2022.2.5,MacIntel,60.0024001,5d5c74c921a8d40001360a37,64c7fed44a04f777bb1e18ce,64c800bf7a854dcfc2e0d0ff,up,-1,0.75,0.3071,18,0,0.4095,,,,,,104,0,104,0,1,,,,,
,,662156,001,2023-07-31_19h45.33.170,arm3_eps,2022.2.5,MacIntel,60.0024001,5d5c74c921a8d40001360a37,64c7fed44a04f777bb1e18ce,64c800bf7a854dcfc2e0d0ff,down,-1,0.75,0.3071,19,0,1.3128,,,,,,105,0,105,0,1,,,,,
,,662156,001,2023-07-31_19h45.33.170,arm3_eps,2022.2.5,MacIntel,60.0024001,5d5c74c921a8d40001360a37,64c7fed44a04f777bb1e18ce,64c800bf7a854dcfc2e0d0ff,right,-1,0.75,0.3071,19,0.010252099,1.9326,,,,,,106,0,106,0,1,,,,,
,,662156,001,2023-07-31_19h45.33.170,arm3_eps,2022.2.5,MacIntel,60.0024001,5d5c74c921a8d40001360a37,64c7fed44a04f777bb1e18ce,64c800bf7a854dcfc2e0d0ff,right,-1,0.75,0.3071,19,0.031107231,0.2991,,,,,,107,0,107,0,1,,,,,
,,662156,001,2023-07-31_19h45.33.170,arm3_eps,2022.2.5,MacIntel,60.0024001,5d5c74c921a8d40001360a37,64c7fed44a04f777bb1e18ce,64c800bf7a854dcfc2e0d0ff,up,-1,0.75,0.3071,19,0,0.8334,,,,,,108,0,108,0,1,,,,,
,,662156,001,2023-07-31_19h45.33.170,arm3_eps,2022.2.5,MacIntel,60.0024001,5d5c74c921a8d40001360a37,64c7fed44a04f777bb1e18ce,64c800bf7a854dcfc2e0d0ff,down,-1,0.75,0.3071,19,0,1.7677,,,,,,109,0,109,0,1,,,,,
,,662156,001,2023-07-31_19h45.33.170,arm3_eps,2022.2.5,MacIntel,60.0024001,5d5c74c921a8d40001360a37,64c7fed44a04f777bb1e18ce,64c800bf7a854dcfc2e0d0ff,right,-1,0.75,0.3071,19,0.002604605,1.8682,,,,,,110,0,110,0,1,,,,,
,,662156,001,2023-07-31_19h45.33.170,arm3_eps,2022.2.5,MacIntel,60.0024001,5d5c74c921a8d40001360a37,64c7fed44a04f777bb1e18ce,64c800bf7a854dcfc2e0d0ff,right,-1,0.75,0.3071,19,-0.016690114,0.2163,,,,,,111,0,111,0,1,,,,,
,,662156,001,2023-07-31_19h45.33.170,arm3_eps,2022.2.5,MacIntel,60.0024001,5d5c74c921a8d40001360a37,64c7fed44a04f777bb1e18ce,64c800bf7a854dcfc2e0d0ff,right,-1,0.75,0.3071,19,-0.041613956,0.2668,,,,,,112,0,112,0,1,,,,,
,,662156,001,2023-07-31_19h45.33.170,arm3_eps,2022.2.5,MacIntel,60.0024001,5d5c74c921a8d40001360a37,64c7fed44a04f777bb1e18ce,64c800bf7a854dcfc2e0d0ff,right,-1,0.75,0.3071,19,-0.040162274,0.3502,,,,,,113,0,113,0,1,,,,,
,,662156,001,2023-07-31_19h45.33.170,arm3_eps,2022.2.5,MacIntel,60.0024001,5d5c74c921a8d40001360a37,64c7fed44a04f777bb1e18ce,64c800bf7a854dcfc2e0d0ff,down,-1,0.75,0.3071,19,0,1.0684,,,,,,114,0,114,0,1,,,,,
,,662156,001,2023-07-31_19h45.33.170,arm3_eps,2022.2.5,MacIntel,60.0024001,5d5c74c921a8d40001360a37,64c7fed44a04f777bb1e18ce,64c800bf7a854dcfc2e0d0ff,right,-1,0.75,0.3071,19,-0.021977412,0.9829,,,,,,115,0,115,0,1,,,,,
,,662156,001,2023-07-31_19h45.33.170,arm3_eps,2022.2.5,MacIntel,60.0024001,5d5c74c921a8d40001360a37,64c7fed44a04f777bb1e18ce,64c800bf7a854dcfc2e0d0ff,right,-1,0.75,0.3071,19,0.006290494,0.215,,,,,,116,0,116,0,1,,,,,
,,662156,001,2023-07-31_19h45.33.170,arm3_eps,2022.2.5,MacIntel,60.0024001,5d5c74c921a8d40001360a37,64c7fed44a04f777bb1e18ce,64c800bf7a854dcfc2e0d0ff,right,-1,0.75,0.3071,19,-0.019890628,0.2186,,,,,,117,0,117,0,1,,,,,
,,662156,001,2023-07-31_19h45.33.170,arm3_eps,2022.2.5,MacIntel,60.0024001,5d5c74c921a8d40001360a37,64c7fed44a04f777bb1e18ce,64c800bf7a854dcfc2e0d0ff,right,-1,0.75,0.3071,19,-0.004480998,0.2009,,,,,,118,0,118,0,1,,,,,
,,662156,001,2023-07-31_19h45.33.170,arm3_eps,2022.2.5,MacIntel,60.0024001,5d5c74c921a8d40001360a37,64c7fed44a04f777bb1e18ce,64c800bf7a854dcfc2e0d0ff,right,-1,0.75,0.3071,19,0.006674351,0.2333,,,,,,119,0,119,0,1,,,,,
,,662156,001,2023-07-31_19h45.33.170,arm3_eps,2022.2.5,MacIntel,60.0024001,5d5c74c921a8d40001360a37,64c7fed44a04f777bb1e18ce,64c800bf7a854dcfc2e0d0ff,right,-1,0.75,0.3071,19,-0.000571241,0.3103,,,,,,120,0,120,0,1,,,,,
,,662156,001,2023-07-31_19h45.33.170,arm3_eps,2022.2.5,MacIntel,60.0024001,5d5c74c921a8d40001360a37,64c7fed44a04f777bb1e18ce,64c800bf7a854dcfc2e0d0ff,right,-1,0.75,0.3071,19,-0.026815108,0.4975,,,,,,121,0,121,0,1,,,,,
,,662156,001,2023-07-31_19h45.33.170,arm3_eps,2022.2.5,MacIntel,60.0024001,5d5c74c921a8d40001360a37,64c7fed44a04f777bb1e18ce,64c800bf7a854dcfc2e0d0ff,down,-1,0.75,0.3071,20,0,0.5001,,,,,,122,0,122,0,1,,,,,
,,662156,001,2023-07-31_19h45.33.170,arm3_eps,2022.2.5,MacIntel,60.0024001,5d5c74c921a8d40001360a37,64c7fed44a04f777bb1e18ce,64c800bf7a854dcfc2e0d0ff,right,-1,0.75,0.3071,20,-0.024476174,0.7797,,,,,,123,0,123,0,1,,,,,
,,662156,001,2023-07-31_19h45.33.170,arm3_eps,2022.2.5,MacIntel,60.0024001,5d5c74c921a8d40001360a37,64c7fed44a04f777bb1e18ce,64c800bf7a854dcfc2e0d0ff,right,-1,0.75,0.3071,20,-0.024499999,0.1992,,,,,,124,0,124,0,1,,,,,
,,662156,001,2023-07-31_19h45.33.170,arm3_eps,2022.2.5,MacIntel,60.0024001,5d5c74c921a8d40001360a37,64c7fed44a04f777bb1e18ce,64c800bf7a854dcfc2e0d0ff,right,-1,0.75,0.3071,20,-0.032622351,0.1824,,,,,,125,0,125,0,1,,,,,
,,662156,001,2023-07-31_19h45.33.170,arm3_eps,2022.2.5,MacIntel,60.0024001,5d5c74c921a8d40001360a37,64c7fed44a04f777bb1e18ce,64c800bf7a854dcfc2e0d0ff,right,-1,0.75,0.3071,20,-0.043770216,0.2768,,,,,,126,0,126,0,1,,,,,
,,662156,001,2023-07-31_19h45.33.170,arm3_eps,2022.2.5,MacIntel,60.0024001,5d5c74c921a8d40001360a37,64c7fed44a04f777bb1e18ce,64c800bf7a854dcfc2e0d0ff,down,-1,0.75,0.3071,21,0,0.6482,,,,,,127,0,127,0,1,,,,,
,,662156,001,2023-07-31_19h45.33.170,arm3_eps,2022.2.5,MacIntel,60.0024001,5d5c74c921a8d40001360a37,64c7fed44a04f777bb1e18ce,64c800bf7a854dcfc2e0d0ff,right,-1,0.75,0.3071,21,-0.032247893,0.7839,,,,,,128,0,128,0,1,,,,,
,,662156,001,2023-07-31_19h45.33.170,arm3_eps,2022.2.5,MacIntel,60.0024001,5d5c74c921a8d40001360a37,64c7fed44a04f777bb1e18ce,64c800bf7a854dcfc2e0d0ff,right,-1,0.75,0.3071,21,-0.042452996,0.2165,,,,,,129,0,129,0,1,,,,,
,,662156,001,2023-07-31_19h45.33.170,arm3_eps,2022.2.5,MacIntel,60.0024001,5d5c74c921a8d40001360a37,64c7fed44a04f777bb1e18ce,64c800bf7a854dcfc2e0d0ff,down,-1,0.75,0.3071,22,0,0.2753,,,,,,130,0,130,0,1,,,,,
,,662156,001,2023-07-31_19h45.33.170,arm3_eps,2022.2.5,MacIntel,60.0024001,5d5c74c921a8d40001360a37,64c7fed44a04f777bb1e18ce,64c800bf7a854dcfc2e0d0ff,right,-1,0.75,0.3071,22,-0.032613227,0.7809,,,,,,131,0,131,0,1,,,,,
,,662156,001,2023-07-31_19h45.33.170,arm3_eps,2022.2.5,MacIntel,60.0024001,5d5c74c921a8d40001360a37,64c7fed44a04f777bb1e18ce,64c800bf7a854dcfc2e0d0ff,right,-1,0.75,0.3071,22,-0.048172908,0.2144,,,,,,132,0,132,0,1,,,,,
,,662156,001,2023-07-31_19h45.33.170,arm3_eps,2022.2.5,MacIntel,60.0024001,5d5c74c921a8d40001360a37,64c7fed44a04f777bb1e18ce,64c800bf7a854dcfc2e0d0ff,down,1,0.75,0.3071,23,0,0.2493,,,,,,133,0,133,0,1,,,,,
,,662156,001,2023-07-31_19h45.33.170,arm3_eps,2022.2.5,MacIntel,60.0024001,5d5c74c921a8d40001360a37,64c7fed44a04f777bb1e18ce,64c800bf7a854dcfc2e0d0ff,right,1,0.75,0.3071,23,0.019114155,0.8475,,,,,,134,0,134,0,1,,,,,
,,662156,001,2023-07-31_19h45.33.170,arm3_eps,2022.2.5,MacIntel,60.0024001,5d5c74c921a8d40001360a37,64c7fed44a04f777bb1e18ce,64c800bf7a854dcfc2e0d0ff,right,1,0.75,0.3071,23,0.026193367,0.3466,,,,,,135,0,135,0,1,,,,,
,,662156,001,2023-07-31_19h45.33.170,arm3_eps,2022.2.5,MacIntel,60.0024001,5d5c74c921a8d40001360a37,64c7fed44a04f777bb1e18ce,64c800bf7a854dcfc2e0d0ff,right,1,0.75,0.3071,23,-0.003698299,0.2661,,,,,,136,0,136,0,1,,,,,
,,662156,001,2023-07-31_19h45.33.170,arm3_eps,2022.2.5,MacIntel,60.0024001,5d5c74c921a8d40001360a37,64c7fed44a04f777bb1e18ce,64c800bf7a854dcfc2e0d0ff,right,1,0.75,0.3071,23,-0.013974832,0.4139,,,,,,137,0,137,0,1,,,,,
,,662156,001,2023-07-31_19h45.33.170,arm3_eps,2022.2.5,MacIntel,60.0024001,5d5c74c921a8d40001360a37,64c7fed44a04f777bb1e18ce,64c800bf7a854dcfc2e0d0ff,right,1,0.75,0.3071,23,-0.004067788,0.4844,,,,,,138,0,138,0,1,,,,,
,,662156,001,2023-07-31_19h45.33.170,arm3_eps,2022.2.5,MacIntel,60.0024001,5d5c74c921a8d40001360a37,64c7fed44a04f777bb1e18ce,64c800bf7a854dcfc2e0d0ff,right,1,0.75,0.3071,23,0.01138471,0.4352,,,,,,139,0,139,0,1,,,,,
,,662156,001,2023-07-31_19h45.33.170,arm3_eps,2022.2.5,MacIntel,60.0024001,5d5c74c921a8d40001360a37,64c7fed44a04f777bb1e18ce,64c800bf7a854dcfc2e0d0ff,right,1,0.75,0.3071,23,0.041468662,0.4179,,,,,,140,0,140,0,1,,,,,
,,662156,001,2023-07-31_19h45.33.170,arm3_eps,2022.2.5,MacIntel,60.0024001,5d5c74c921a8d40001360a37,64c7fed44a04f777bb1e18ce,64c800bf7a854dcfc2e0d0ff,up,-1,0.75,0.3071,24,0,0.4522,,,,,,141,0,141,0,1,,,,,
,,662156,001,2023-07-31_19h45.33.170,arm3_eps,2022.2.5,MacIntel,60.0024001,5d5c74c921a8d40001360a37,64c7fed44a04f777bb1e18ce,64c800bf7a854dcfc2e0d0ff,right,-1,0.75,0.3071,24,0.006490874,0.767,,,,,,142,0,142,0,1,,,,,
,,662156,001,2023-07-31_19h45.33.170,arm3_eps,2022.2.5,MacIntel,60.0024001,5d5c74c921a8d40001360a37,64c7fed44a04f777bb1e18ce,64c800bf7a854dcfc2e0d0ff,right,-1,0.75,0.3071,24,0.028143645,0.1646,,,,,,143,0,143,0,1,,,,,
,,662156,001,2023-07-31_19h45.33.170,arm3_eps,2022.2.5,MacIntel,60.0024001,5d5c74c921a8d40001360a37,64c7fed44a04f777bb1e18ce,64c800bf7a854dcfc2e0d0ff,right,-1,0.75,0.3071,24,0.010205086,0.2826,,,,,,144,0,144,0,1,,,,,
,,662156,001,2023-07-31_19h45.33.170,arm3_eps,2022.2.5,MacIntel,60.0024001,5d5c74c921a8d40001360a37,64c7fed44a04f777bb1e18ce,64c800bf7a854dcfc2e0d0ff,right,-1,0.75,0.3071,24,-0.016515771,0.2659,,,,,,145,0,145,0,1,,,,,
,,662156,001,2023-07-31_19h45.33.170,arm3_eps,2022.2.5,MacIntel,60.0024001,5d5c74c921a8d40001360a37,64c7fed44a04f777bb1e18ce,64c800bf7a854dcfc2e0d0ff,right,-1,0.75,0.3071,24,-0.002544105,0.2647,,,,,,146,0,146,0,1,,,,,
,,662156,001,2023-07-31_19h45.33.170,arm3_eps,2022.2.5,MacIntel,60.0024001,5d5c74c921a8d40001360a37,64c7fed44a04f777bb1e18ce,64c800bf7a854dcfc2e0d0ff,right,-1,0.75,0.3071,24,0.04529378,0.2957,,,,,,147,0,147,0,1,,,,,
,,662156,001,2023-07-31_19h45.33.170,arm3_eps,2022.2.5,MacIntel,60.0024001,5d5c74c921a8d40001360a37,64c7fed44a04f777bb1e18ce,64c800bf7a854dcfc2e0d0ff,right,-1,0.75,0.3071,24,0.052486259,0.4317,,,,,,148,0,148,0,1,,,,,
,,662156,001,2023-07-31_19h45.33.170,arm3_eps,2022.2.5,MacIntel,60.0024001,5d5c74c921a8d40001360a37,64c7fed44a04f777bb1e18ce,64c800bf7a854dcfc2e0d0ff,right,-1,0.75,0.3071,24,0.042201727,1.417,,,,,,149,0,149,0,1,,,,,
,,662156,001,2023-07-31_19h45.33.170,arm3_eps,2022.2.5,MacIntel,60.0024001,5d5c74c921a8d40001360a37,64c7fed44a04f777bb1e18ce,64c800bf7a854dcfc2e0d0ff,right,-1,0.75,0.3071,24,-0.002093933,0.6328,,,,,,150,0,150,0,1,,,,,
,,662156,001,2023-07-31_19h45.33.170,arm3_eps,2022.2.5,MacIntel,60.0024001,5d5c74c921a8d40001360a37,64c7fed44a04f777bb1e18ce,64c800bf7a854dcfc2e0d0ff,down,-1,0.75,0.3071,25,0,1.2005,,,,,,151,0,151,0,1,,,,,
,,662156,001,2023-07-31_19h45.33.170,arm3_eps,2022.2.5,MacIntel,60.0024001,5d5c74c921a8d40001360a37,64c7fed44a04f777bb1e18ce,64c800bf7a854dcfc2e0d0ff,right,-1,0.75,0.3071,25,-0.007396509,0.8149,,,,,,152,0,152,0,1,,,,,
,,662156,001,2023-07-31_19h45.33.170,arm3_eps,2022.2.5,MacIntel,60.0024001,5d5c74c921a8d40001360a37,64c7fed44a04f777bb1e18ce,64c800bf7a854dcfc2e0d0ff,right,-1,0.75,0.3071,25,-0.02413308,0.1657,,,,,,153,0,153,0,1,,,,,
,,662156,001,2023-07-31_19h45.33.170,arm3_eps,2022.2.5,MacIntel,60.0024001,5d5c74c921a8d40001360a37,64c7fed44a04f777bb1e18ce,64c800bf7a854dcfc2e0d0ff,down,-1,0.75,0.3071,26,0,0.3881,,,,,,154,0,154,0,1,,,,,
,,662156,001,2023-07-31_19h45.33.170,arm3_eps,2022.2.5,MacIntel,60.0024001,5d5c74c921a8d40001360a37,64c7fed44a04f777bb1e18ce,64c800bf7a854dcfc2e0d0ff,right,-1,0.75,0.3071,26,-0.023040744,0.5838,,,,,,155,0,155,0,1,,,,,
,,662156,001,2023-07-31_19h45.33.170,arm3_eps,2022.2.5,MacIntel,60.0024001,5d5c74c921a8d40001360a37,64c7fed44a04f777bb1e18ce,64c800bf7a854dcfc2e0d0ff,right,-1,0.75,0.3071,26,-0.042450098,0.1874,,,,,,156,0,156,0,1,,,,,
,,662156,001,2023-07-31_19h45.33.170,arm3_eps,2022.2.5,MacIntel,60.0024001,5d5c74c921a8d40001360a37,64c7fed44a04f777bb1e18ce,64c800bf7a854dcfc2e0d0ff,right,-1,0.75,0.3071,26,-0.053630392,0.1832,,,,,,157,0,157,0,1,,,,,
,,662156,001,2023-07-31_19h45.33.170,arm3_eps,2022.2.5,MacIntel,60.0024001,5d5c74c921a8d40001360a37,64c7fed44a04f777bb1e18ce,64c800bf7a854dcfc2e0d0ff,down,-1,0.75,0.3071,27,0,0.2152,,,,,,158,0,158,0,1,,,,,
,,662156,001,2023-07-31_19h45.33.170,arm3_eps,2022.2.5,MacIntel,60.0024001,5d5c74c921a8d40001360a37,64c7fed44a04f777bb1e18ce,64c800bf7a854dcfc2e0d0ff,right,-1,0.75,0.3071,27,-0.047792365,0.7336,,,,,,159,0,159,0,1,,,,,
,,662156,001,2023-07-31_19h45.33.170,arm3_eps,2022.2.5,MacIntel,60.0024001,5d5c74c921a8d40001360a37,64c7fed44a04f777bb1e18ce,64c800bf7a854dcfc2e0d0ff,right,-1,0.75,0.3071,27,-0.069947492,0.1866,,,,,,160,0,160,0,1,,,,,
,,662156,001,2023-07-31_19h45.33.170,arm3_eps,2022.2.5,MacIntel,60.0024001,5d5c74c921a8d40001360a37,64c7fed44a04f777bb1e18ce,64c800bf7a854dcfc2e0d0ff,down,-1,0.75,0.3071,28,0,0.2329,,,,,,161,0,161,0,1,,,,,
,,662156,001,2023-07-31_19h45.33.170,arm3_eps,2022.2.5,MacIntel,60.0024001,5d5c74c921a8d40001360a37,64c7fed44a04f777bb1e18ce,64c800bf7a854dcfc2e0d0ff,right,-1,0.75,0.3071,28,-0.032118709,1.0005,,,,,,162,0,162,0,1,,,,,
,,662156,001,2023-07-31_19h45.33.170,arm3_eps,2022.2.5,MacIntel,60.0024001,5d5c74c921a8d40001360a37,64c7fed44a04f777bb1e18ce,64c800bf7a854dcfc2e0d0ff,right,-1,0.75,0.3071,28,-0.036120794,0.1869,,,,,,163,0,163,0,1,,,,,
,,662156,001,2023-07-31_19h45.33.170,arm3_eps,2022.2.5,MacIntel,60.0024001,5d5c74c921a8d40001360a37,64c7fed44a04f777bb1e18ce,64c800bf7a854dcfc2e0d0ff,right,-1,0.75,0.3071,28,-0.052618165,0.2826,,,,,,164,0,164,0,1,,,,,
,,662156,001,2023-07-31_19h45.33.170,arm3_eps,2022.2.5,MacIntel,60.0024001,5d5c74c921a8d40001360a37,64c7fed44a04f777bb1e18ce,64c800bf7a854dcfc2e0d0ff,down,1,0.75,0.3071,29,0,0.4326,,,,,,165,0,165,0,1,,,,,
,,662156,001,2023-07-31_19h45.33.170,arm3_eps,2022.2.5,MacIntel,60.0024001,5d5c74c921a8d40001360a37,64c7fed44a04f777bb1e18ce,64c800bf7a854dcfc2e0d0ff,right,1,0.75,0.3071,29,0.002947886,0.8495,,,,,,166,0,166,0,1,,,,,
,,662156,001,2023-07-31_19h45.33.170,arm3_eps,2022.2.5,MacIntel,60.0024001,5d5c74c921a8d40001360a37,64c7fed44a04f777bb1e18ce,64c800bf7a854dcfc2e0d0ff,right,1,0.75,0.3071,29,0.010588255,0.402,,,,,,167,0,167,0,1,,,,,
,,662156,001,2023-07-31_19h45.33.170,arm3_eps,2022.2.5,MacIntel,60.0024001,5d5c74c921a8d40001360a37,64c7fed44a04f777bb1e18ce,64c800bf7a854dcfc2e0d0ff,right,1,0.75,0.3071,29,0.00573709,0.2194,,,,,,168,0,168,0,1,,,,,
,,662156,001,2023-07-31_19h45.33.170,arm3_eps,2022.2.5,MacIntel,60.0024001,5d5c74c921a8d40001360a37,64c7fed44a04f777bb1e18ce,64c800bf7a854dcfc2e0d0ff,right,1,0.75,0.3071,29,0.017270743,0.2986,,,,,,169,0,169,0,1,,,,,
,,662156,001,2023-07-31_19h45.33.170,arm3_eps,2022.2.5,MacIntel,60.0024001,5d5c74c921a8d40001360a37,64c7fed44a04f777bb1e18ce,64c800bf7a854dcfc2e0d0ff,right,1,0.75,0.3071,29,0.023839947,0.2547,,,,,,170,0,170,0,1,,,,,
,,662156,001,2023-07-31_19h45.33.170,arm3_eps,2022.2.5,MacIntel,60.0024001,5d5c74c921a8d40001360a37,64c7fed44a04f777bb1e18ce,64c800bf7a854dcfc2e0d0ff,right,1,0.75,0.3071,29,0.017338916,0.2471,,,,,,171,0,171,0,1,,,,,
,,662156,001,2023-07-31_19h45.33.170,arm3_eps,2022.2.5,MacIntel,60.0024001,5d5c74c921a8d40001360a37,64c7fed44a04f777bb1e18ce,64c800bf7a854dcfc2e0d0ff,right,1,0.75,0.3071,29,0.044020686,0.2828,,,,,,172,0,172,0,1,,,,,
,,662156,001,2023-07-31_19h45.33.170,arm3_eps,2022.2.5,MacIntel,60.0024001,5d5c74c921a8d40001360a37,64c7fed44a04f777bb1e18ce,64c800bf7a854dcfc2e0d0ff,right,1,0.75,0.3071,29,0.047718562,0.3583,,,,,,173,0,173,0,1,,,,,
,,662156,001,2023-07-31_19h45.33.170,arm3_eps,2022.2.5,MacIntel,60.0024001,5d5c74c921a8d40001360a37,64c7fed44a04f777bb1e18ce,64c800bf7a854dcfc2e0d0ff,right,1,0.75,0.3071,29,0.056492192,0.3308,,,,,,174,0,174,0,1,,,,,
,,662156,001,2023-07-31_19h45.33.170,arm3_eps,2022.2.5,MacIntel,60.0024001,5d5c74c921a8d40001360a37,64c7fed44a04f777bb1e18ce,64c800bf7a854dcfc2e0d0ff,up,1,0.75,0.3071,30,0,0.3274,,,,,,175,0,175,0,1,,,,,
,,662156,001,2023-07-31_19h45.33.170,arm3_eps,2022.2.5,MacIntel,60.0024001,5d5c74c921a8d40001360a37,64c7fed44a04f777bb1e18ce,64c800bf7a854dcfc2e0d0ff,right,1,0.75,0.3071,30,-0.001992173,0.8496,,,,,,176,0,176,0,1,,,,,
,,662156,001,2023-07-31_19h45.33.170,arm3_eps,2022.2.5,MacIntel,60.0024001,5d5c74c921a8d40001360a37,64c7fed44a04f777bb1e18ce,64c800bf7a854dcfc2e0d0ff,right,1,0.75,0.3071,30,0.005941582,0.3647,,,,,,177,0,177,0,1,,,,,
,,662156,001,2023-07-31_19h45.33.170,arm3_eps,2022.2.5,MacIntel,60.0024001,5d5c74c921a8d40001360a37,64c7fed44a04f777bb1e18ce,64c800bf7a854dcfc2e0d0ff,right,1,0.75,0.3071,30,0.017029556,0.2671,,,,,,178,0,178,0,1,,,,,
,,662156,001,2023-07-31_19h45.33.170,arm3_eps,2022.2.5,MacIntel,60.0024001,5d5c74c921a8d40001360a37,64c7fed44a04f777bb1e18ce,64c800bf7a854dcfc2e0d0ff,right,1,0.75,0.3071,30,0.015360044,0.532,,,,,,179,0,179,0,1,,,,,
,,662156,001,2023-07-31_19h45.33.170,arm3_eps,2022.2.5,MacIntel,60.0024001,5d5c74c921a8d40001360a37,64c7fed44a04f777bb1e18ce,64c800bf7a854dcfc2e0d0ff,right,1,0.75,0.3071,30,0.023252582,0.3518,,,,,,180,0,180,0,1,,,,,
,,662156,001,2023-07-31_19h45.33.170,arm3_eps,2022.2.5,MacIntel,60.0024001,5d5c74c921a8d40001360a37,64c7fed44a04f777bb1e18ce,64c800bf7a854dcfc2e0d0ff,right,1,0.75,0.3071,30,0.040002667,0.2837,,,,,,181,0,181,0,1,,,,,
,,662156,001,2023-07-31_19h45.33.170,arm3_eps,2022.2.5,MacIntel,60.0024001,5d5c74c921a8d40001360a37,64c7fed44a04f777bb1e18ce,64c800bf7a854dcfc2e0d0ff,right,1,0.75,0.3071,30,0.042322324,0.4269,,,,,,182,0,182,0,1,,,,,
,,662156,001,2023-07-31_19h45.33.170,arm3_eps,2022.2.5,MacIntel,60.0024001,5d5c74c921a8d40001360a37,64c7fed44a04f777bb1e18ce,64c800bf7a854dcfc2e0d0ff,right,1,0.75,0.3071,30,0.02519823,0.5327,,,,,,183,0,183,0,1,,,,,
,,662156,001,2023-07-31_19h45.33.170,arm3_eps,2022.2.5,MacIntel,60.0024001,5d5c74c921a8d40001360a37,64c7fed44a04f777bb1e18ce,64c800bf7a854dcfc2e0d0ff,right,1,0.75,0.3071,30,0.049153715,0.3534,,,,,,184,0,184,0,1,,,,,
,,662156,001,2023-07-31_19h45.33.170,arm3_eps,2022.2.5,MacIntel,60.0024001,5d5c74c921a8d40001360a37,64c7fed44a04f777bb1e18ce,64c800bf7a854dcfc2e0d0ff,right,1,0.75,0.3071,30,0.045186648,0.3669,,,,,,185,0,185,0,1,,,,,
,,662156,001,2023-07-31_19h45.33.170,arm3_eps,2022.2.5,MacIntel,60.0024001,5d5c74c921a8d40001360a37,64c7fed44a04f777bb1e18ce,64c800bf7a854dcfc2e0d0ff,right,1,0.75,0.3071,30,0.048166254,0.5157,,,,,,186,0,186,0,1,,,,,
,,662156,001,2023-07-31_19h45.33.170,arm3_eps,2022.2.5,MacIntel,60.0024001,5d5c74c921a8d40001360a37,64c7fed44a04f777bb1e18ce,64c800bf7a854dcfc2e0d0ff,right,1,0.75,0.3071,30,0.069310179,0.3831,,,,,,187,0,187,0,1,,,,,
,,662156,001,2023-07-31_19h45.33.170,arm3_eps,2022.2.5,MacIntel,60.0024001,5d5c74c921a8d40001360a37,64c7fed44a04f777bb1e18ce,64c800bf7a854dcfc2e0d0ff,up,1,0.75,0.3071,30,0,0.9507,,,,,,188,0,188,0,1,,,,,
,,662156,001,2023-07-31_19h45.33.170,arm3_eps,2022.2.5,MacIntel,60.0024001,5d5c74c921a8d40001360a37,64c7fed44a04f777bb1e18ce,64c800bf7a854dcfc2e0d0ff,up,-1,0.75,0.3071,30,0,1.2522,,,,,,189,0,189,0,1,,,,,
,,662156,001,2023-07-31_19h45.33.170,arm3_eps,2022.2.5,MacIntel,60.0024001,5d5c74c921a8d40001360a37,64c7fed44a04f777bb1e18ce,64c800bf7a854dcfc2e0d0ff,right,-1,0.75,0.3071,30,0.020701086,0.8351,,,,,,190,0,190,0,1,,,,,
,,662156,001,2023-07-31_19h45.33.170,arm3_eps,2022.2.5,MacIntel,60.0024001,5d5c74c921a8d40001360a37,64c7fed44a04f777bb1e18ce,64c800bf7a854dcfc2e0d0ff,right,-1,0.75,0.3071,30,0.023342805,0.1801,,,,,,191,0,191,0,1,,,,,
,,662156,001,2023-07-31_19h45.33.170,arm3_eps,2022.2.5,MacIntel,60.0024001,5d5c74c921a8d40001360a37,64c7fed44a04f777bb1e18ce,64c800bf7a854dcfc2e0d0ff,right,-1,0.75,0.3071,30,0.020237202,0.2314,,,,,,192,0,192,0,1,,,,,
,,662156,001,2023-07-31_19h45.33.170,arm3_eps,2022.2.5,MacIntel,60.0024001,5d5c74c921a8d40001360a37,64c7fed44a04f777bb1e18ce,64c800bf7a854dcfc2e0d0ff,right,-1,0.75,0.3071,30,0.034421494,0.183,,,,,,193,0,193,0,1,,,,,
,,662156,001,2023-07-31_19h45.33.170,arm3_eps,2022.2.5,MacIntel,60.0024001,5d5c74c921a8d40001360a37,64c7fed44a04f777bb1e18ce,64c800bf7a854dcfc2e0d0ff,right,-1,0.75,0.3071,30,0.002571556,0.1841,,,,,,194,0,194,0,1,,,,,
,,662156,001,2023-07-31_19h45.33.170,arm3_eps,2022.2.5,MacIntel,60.0024001,5d5c74c921a8d40001360a37,64c7fed44a04f777bb1e18ce,64c800bf7a854dcfc2e0d0ff,right,-1,0.75,0.3071,30,-0.021896938,0.284,,,,,,195,0,195,0,1,,,,,
,,662156,001,2023-07-31_19h45.33.170,arm3_eps,2022.2.5,MacIntel,60.0024001,5d5c74c921a8d40001360a37,64c7fed44a04f777bb1e18ce,64c800bf7a854dcfc2e0d0ff,right,-1,0.75,0.3071,30,-0.02266691,0.2308,,,,,,196,0,196,0,1,,,,,
,,662156,001,2023-07-31_19h45.33.170,arm3_eps,2022.2.5,MacIntel,60.0024001,5d5c74c921a8d40001360a37,64c7fed44a04f777bb1e18ce,64c800bf7a854dcfc2e0d0ff,right,-1,0.75,0.3071,30,-0.046921137,0.1844,,,,,,197,0,197,0,1,,,,,
,,662156,001,2023-07-31_19h45.33.170,arm3_eps,2022.2.5,MacIntel,60.0024001,5d5c74c921a8d40001360a37,64c7fed44a04f777bb1e18ce,64c800bf7a854dcfc2e0d0ff,right,-1,0.75,0.3071,30,-0.072573668,0.2001,,,,,,198,0,198,0,1,,,,,
,,662156,001,2023-07-31_19h45.33.170,arm3_eps,2022.2.5,MacIntel,60.0024001,5d5c74c921a8d40001360a37,64c7fed44a04f777bb1e18ce,64c800bf7a854dcfc2e0d0ff,down,1,0.75,0.3071,30,0,0.2321,,,,,,199,0,199,0,1,,,,,
,,662156,001,2023-07-31_19h45.33.170,arm3_eps,2022.2.5,MacIntel,60.0024001,5d5c74c921a8d40001360a37,64c7fed44a04f777bb1e18ce,64c800bf7a854dcfc2e0d0ff,right,1,0.75,0.3071,30,0.030526298,0.935,,,,,,200,0,200,0,1,,,,,
,,662156,001,2023-07-31_19h45.33.170,arm3_eps,2022.2.5,MacIntel,60.0024001,5d5c74c921a8d40001360a37,64c7fed44a04f777bb1e18ce,64c800bf7a854dcfc2e0d0ff,right,1,0.75,0.3071,30,0.043346699,0.147,,,,,,201,0,201,0,1,,,,,
,,662156,001,2023-07-31_19h45.33.170,arm3_eps,2022.2.5,MacIntel,60.0024001,5d5c74c921a8d40001360a37,64c7fed44a04f777bb1e18ce,64c800bf7a854dcfc2e0d0ff,right,1,0.75,0.3071,30,0.040275883,0.1988,,,,,,202,0,202,0,1,,,,,
,,662156,001,2023-07-31_19h45.33.170,arm3_eps,2022.2.5,MacIntel,60.0024001,5d5c74c921a8d40001360a37,64c7fed44a04f777bb1e18ce,64c800bf7a854dcfc2e0d0ff,right,1,0.75,0.3071,30,0.050662767,0.1837,,,,,,203,0,203,0,1,,,,,
,,662156,001,2023-07-31_19h45.33.170,arm3_eps,2022.2.5,MacIntel,60.0024001,5d5c74c921a8d40001360a37,64c7fed44a04f777bb1e18ce,64c800bf7a854dcfc2e0d0ff,right,1,0.75,0.3071,30,0.046417893,0.1969,,,,,,204,0,204,0,1,,,,,
,,662156,001,2023-07-31_19h45.33.170,arm3_eps,2022.2.5,MacIntel,60.0024001,5d5c74c921a8d40001360a37,64c7fed44a04f777bb1e18ce,64c800bf7a854dcfc2e0d0ff,up,1,0.75,0.3071,31,0,0.1839,,,,,,205,0,205,0,1,,,,,
,,662156,001,2023-07-31_19h45.33.170,arm3_eps,2022.2.5,MacIntel,60.0024001,5d5c74c921a8d40001360a37,64c7fed44a04f777bb1e18ce,64c800bf7a854dcfc2e0d0ff,right,1,0.75,0.3071,31,-0.025528743,0.7486,,,,,,206,0,206,0,1,,,,,
,,662156,001,2023-07-31_19h45.33.170,arm3_eps,2022.2.5,MacIntel,60.0024001,5d5c74c921a8d40001360a37,64c7fed44a04f777bb1e18ce,64c800bf7a854dcfc2e0d0ff,right,1,0.75,0.3071,31,-0.041813825,0.2167,,,,,,207,0,207,0,1,,,,,
,,662156,001,2023-07-31_19h45.33.170,arm3_eps,2022.2.5,MacIntel,60.0024001,5d5c74c921a8d40001360a37,64c7fed44a04f777bb1e18ce,64c800bf7a854dcfc2e0d0ff,right,1,0.75,0.3071,31,-0.060766983,0.1846,,,,,,208,0,208,0,1,,,,,
,,662156,001,2023-07-31_19h45.33.170,arm3_eps,2022.2.5,MacIntel,60.0024001,5d5c74c921a8d40001360a37,64c7fed44a04f777bb1e18ce,64c800bf7a854dcfc2e0d0ff,right,1,0.75,0.3071,31,-0.063140885,0.2156,,,,,,209,0,209,0,1,,,,,
,,662156,001,2023-07-31_19h45.33.170,arm3_eps,2022.2.5,MacIntel,60.0024001,5d5c74c921a8d40001360a37,64c7fed44a04f777bb1e18ce,64c800bf7a854dcfc2e0d0ff,down,1,0.75,0.3071,30,0,0.1817,,,,,,210,0,210,0,1,,,,,
,,662156,001,2023-07-31_19h45.33.170,arm3_eps,2022.2.5,MacIntel,60.0024001,5d5c74c921a8d40001360a37,64c7fed44a04f777bb1e18ce,64c800bf7a854dcfc2e0d0ff,right,1,0.75,0.3071,30,-0.004757028,0.7311,,,,,,211,0,211,0,1,,,,,
,,662156,001,2023-07-31_19h45.33.170,arm3_eps,2022.2.5,MacIntel,60.0024001,5d5c74c921a8d40001360a37,64c7fed44a04f777bb1e18ce,64c800bf7a854dcfc2e0d0ff,right,1,0.75,0.3071,30,0.015308288,0.1673,,,,,,212,0,212,0,1,,,,,
,,662156,001,2023-07-31_19h45.33.170,arm3_eps,2022.2.5,MacIntel,60.0024001,5d5c74c921a8d40001360a37,64c7fed44a04f777bb1e18ce,64c800bf7a854dcfc2e0d0ff,right,1,0.75,0.3071,30,0.018302318,0.1956,,,,,,213,0,213,0,1,,,,,
,,662156,001,2023-07-31_19h45.33.170,arm3_eps,2022.2.5,MacIntel,60.0024001,5d5c74c921a8d40001360a37,64c7fed44a04f777bb1e18ce,64c800bf7a854dcfc2e0d0ff,right,1,0.75,0.3071,30,0.064752767,0.2104,,,,,,214,0,214,0,1,,,,,
,,662156,001,2023-07-31_19h45.33.170,arm3_eps,2022.2.5,MacIntel,60.0024001,5d5c74c921a8d40001360a37,64c7fed44a04f777bb1e18ce,64c800bf7a854dcfc2e0d0ff,right,1,0.75,0.3071,30,0.078876841,0.1802,,,,,,215,0,215,0,1,,,,,
,,662156,001,2023-07-31_19h45.33.170,arm3_eps,2022.2.5,MacIntel,60.0024001,5d5c74c921a8d40001360a37,64c7fed44a04f777bb1e18ce,64c800bf7a854dcfc2e0d0ff,up,1,0.75,0.3071,31,0,0.3274,,,,,,216,0,216,0,1,,,,,
,,662156,001,2023-07-31_19h45.33.170,arm3_eps,2022.2.5,MacIntel,60.0024001,5d5c74c921a8d40001360a37,64c7fed44a04f777bb1e18ce,64c800bf7a854dcfc2e0d0ff,right,1,0.75,0.3071,31,-0.024946978,0.8305,,,,,,217,0,217,0,1,,,,,
,,662156,001,2023-07-31_19h45.33.170,arm3_eps,2022.2.5,MacIntel,60.0024001,5d5c74c921a8d40001360a37,64c7fed44a04f777bb1e18ce,64c800bf7a854dcfc2e0d0ff,right,1,0.75,0.3071,31,-0.001088813,0.2503,,,,,,218,0,218,0,1,,,,,
,,662156,001,2023-07-31_19h45.33.170,arm3_eps,2022.2.5,MacIntel,60.0024001,5d5c74c921a8d40001360a37,64c7fed44a04f777bb1e18ce,64c800bf7a854dcfc2e0d0ff,right,1,0.75,0.3071,31,0.019607559,0.332,,,,,,219,0,219,0,1,,,,,
,,662156,001,2023-07-31_19h45.33.170,arm3_eps,2022.2.5,MacIntel,60.0024001,5d5c74c921a8d40001360a37,64c7fed44a04f777bb1e18ce,64c800bf7a854dcfc2e0d0ff,right,1,0.75,0.3071,31,0.012240869,0.1819,,,,,,220,0,220,0,1,,,,,
,,662156,001,2023-07-31_19h45.33.170,arm3_eps,2022.2.5,MacIntel,60.0024001,5d5c74c921a8d40001360a37,64c7fed44a04f777bb1e18ce,64c800bf7a854dcfc2e0d0ff,right,1,0.75,0.3071,31,-0.014943316,0.1605,,,,,,221,0,221,0,1,,,,,
,,662156,001,2023-07-31_19h45.33.170,arm3_eps,2022.2.5,MacIntel,60.0024001,5d5c74c921a8d40001360a37,64c7fed44a04f777bb1e18ce,64c800bf7a854dcfc2e0d0ff,right,1,0.75,0.3071,31,-0.009365926,0.1776,,,,,,222,0,222,0,1,,,,,
,,662156,001,2023-07-31_19h45.33.170,arm3_eps,2022.2.5,MacIntel,60.0024001,5d5c74c921a8d40001360a37,64c7fed44a04f777bb1e18ce,64c800bf7a854dcfc2e0d0ff,right,1,0.75,0.3071,31,-0.007614126,0.283,,,,,,223,0,223,0,1,,,,,
,,662156,001,2023-07-31_19h45.33.170,arm3_eps,2022.2.5,MacIntel,60.0024001,5d5c74c921a8d40001360a37,64c7fed44a04f777bb1e18ce,64c800bf7a854dcfc2e0d0ff,right,1,0.75,0.3071,31,-0.004489523,0.3719,,,,,,224,0,224,0,1,,,,,
,,662156,001,2023-07-31_19h45.33.170,arm3_eps,2022.2.5,MacIntel,60.0024001,5d5c74c921a8d40001360a37,64c7fed44a04f777bb1e18ce,64c800bf7a854dcfc2e0d0ff,right,1,0.75,0.3071,31,0.003714919,0.3696,,,,,,225,0,225,0,1,,,,,
,,662156,001,2023-07-31_19h45.33.170,arm3_eps,2022.2.5,MacIntel,60.0024001,5d5c74c921a8d40001360a37,64c7fed44a04f777bb1e18ce,64c800bf7a854dcfc2e0d0ff,right,1,0.75,0.3071,31,0.00139375,0.4479,,,,,,226,0,226,0,1,,,,,
,,662156,001,2023-07-31_19h45.33.170,arm3_eps,2022.2.5,MacIntel,60.0024001,5d5c74c921a8d40001360a37,64c7fed44a04f777bb1e18ce,64c800bf7a854dcfc2e0d0ff,up,1,0.75,0.3071,32,0,0.5339,,,,,,227,0,227,0,1,,,,,
,,662156,001,2023-07-31_19h45.33.170,arm3_eps,2022.2.5,MacIntel,60.0024001,5d5c74c921a8d40001360a37,64c7fed44a04f777bb1e18ce,64c800bf7a854dcfc2e0d0ff,right,1,0.75,0.3071,32,0.00883431,0.9983,,,,,,228,0,228,0,1,,,,,
,,662156,001,2023-07-31_19h45.33.170,arm3_eps,2022.2.5,MacIntel,60.0024001,5d5c74c921a8d40001360a37,64c7fed44a04f777bb1e18ce,64c800bf7a854dcfc2e0d0ff,right,1,0.75,0.3071,32,0.036727551,0.1998,,,,,,229,0,229,0,1,,,,,
,,662156,001,2023-07-31_19h45.33.170,arm3_eps,2022.2.5,MacIntel,60.0024001,5d5c74c921a8d40001360a37,64c7fed44a04f777bb1e18ce,64c800bf7a854dcfc2e0d0ff,up,-1,0.75,0.3071,33,0,0.4865,,,,,,230,0,230,0,1,,,,,
,,662156,001,2023-07-31_19h45.33.170,arm3_eps,2022.2.5,MacIntel,60.0024001,5d5c74c921a8d40001360a37,64c7fed44a04f777bb1e18ce,64c800bf7a854dcfc2e0d0ff,right,-1,0.75,0.3071,33,-0.012721098,1.334,,,,,,231,0,231,0,1,,,,,
,,662156,001,2023-07-31_19h45.33.170,arm3_eps,2022.2.5,MacIntel,60.0024001,5d5c74c921a8d40001360a37,64c7fed44a04f777bb1e18ce,64c800bf7a854dcfc2e0d0ff,right,-1,0.75,0.3071,33,-0.036130551,0.1476,,,,,,232,0,232,0,1,,,,,
,,662156,001,2023-07-31_19h45.33.170,arm3_eps,2022.2.5,MacIntel,60.0024001,5d5c74c921a8d40001360a37,64c7fed44a04f777bb1e18ce,64c800bf7a854dcfc2e0d0ff,right,-1,0.75,0.3071,33,-0.038984141,0.1325,,,,,,233,0,233,0,1,,,,,
,,662156,001,2023-07-31_19h45.33.170,arm3_eps,2022.2.5,MacIntel,60.0024001,5d5c74c921a8d40001360a37,64c7fed44a04f777bb1e18ce,64c800bf7a854dcfc2e0d0ff,right,-1,0.75,0.3071,33,-0.07112036,0.2648,,,,,,234,0,234,0,1,,,,,
,,662156,001,2023-07-31_19h45.33.170,arm3_eps,2022.2.5,MacIntel,60.0024001,5d5c74c921a8d40001360a37,64c7fed44a04f777bb1e18ce,64c800bf7a854dcfc2e0d0ff,down,-1,0.75,0.3071,34,0,0.2843,,,,,,235,0,235,0,1,,,,,
,,662156,001,2023-07-31_19h45.33.170,arm3_eps,2022.2.5,MacIntel,60.0024001,5d5c74c921a8d40001360a37,64c7fed44a04f777bb1e18ce,64c800bf7a854dcfc2e0d0ff,right,-1,0.75,0.3071,34,-0.006170292,0.8007,,,,,,236,0,236,0,1,,,,,
,,662156,001,2023-07-31_19h45.33.170,arm3_eps,2022.2.5,MacIntel,60.0024001,5d5c74c921a8d40001360a37,64c7fed44a04f777bb1e18ce,64c800bf7a854dcfc2e0d0ff,right,-1,0.75,0.3071,34,-1.66998E-05,0.1488,,,,,,237,0,237,0,1,,,,,
,,662156,001,2023-07-31_19h45.33.170,arm3_eps,2022.2.5,MacIntel,60.0024001,5d5c74c921a8d40001360a37,64c7fed44a04f777bb1e18ce,64c800bf7a854dcfc2e0d0ff,right,-1,0.75,0.3071,34,0.000241367,0.1324,,,,,,238,0,238,0,1,,,,,
,,662156,001,2023-07-31_19h45.33.170,arm3_eps,2022.2.5,MacIntel,60.0024001,5d5c74c921a8d40001360a37,64c7fed44a04f777bb1e18ce,64c800bf7a854dcfc2e0d0ff,right,-1,0.75,0.3071,34,-0.030919272,0.166,,,,,,239,0,239,0,1,,,,,
,,662156,001,2023-07-31_19h45.33.170,arm3_eps,2022.2.5,MacIntel,60.0024001,5d5c74c921a8d40001360a37,64c7fed44a04f777bb1e18ce,64c800bf7a854dcfc2e0d0ff,down,-1,0.75,0.3071,35,0,0.435,,,,,,240,0,240,0,1,,,,,
,,662156,001,2023-07-31_19h45.33.170,arm3_eps,2022.2.5,MacIntel,60.0024001,5d5c74c921a8d40001360a37,64c7fed44a04f777bb1e18ce,64c800bf7a854dcfc2e0d0ff,right,-1,0.75,0.3071,35,0.009937806,0.5979,,,,,,241,0,241,0,1,,,,,
,,662156,001,2023-07-31_19h45.33.170,arm3_eps,2022.2.5,MacIntel,60.0024001,5d5c74c921a8d40001360a37,64c7fed44a04f777bb1e18ce,64c800bf7a854dcfc2e0d0ff,right,-1,0.75,0.3071,35,-0.00013332,0.1148,,,,,,242,0,242,0,1,,,,,
,,662156,001,2023-07-31_19h45.33.170,arm3_eps,2022.2.5,MacIntel,60.0024001,5d5c74c921a8d40001360a37,64c7fed44a04f777bb1e18ce,64c800bf7a854dcfc2e0d0ff,right,-1,0.75,0.3071,35,0.021308485,0.1151,,,,,,243,0,243,0,1,,,,,
,,662156,001,2023-07-31_19h45.33.170,arm3_eps,2022.2.5,MacIntel,60.0024001,5d5c74c921a8d40001360a37,64c7fed44a04f777bb1e18ce,64c800bf7a854dcfc2e0d0ff,right,-1,0.75,0.3071,35,0.018758031,0.135,,,,,,244,0,244,0,1,,,,,
,,662156,001,2023-07-31_19h45.33.170,arm3_eps,2022.2.5,MacIntel,60.0024001,5d5c74c921a8d40001360a37,64c7fed44a04f777bb1e18ce,64c800bf7a854dcfc2e0d0ff,right,-1,0.75,0.3071,35,-0.009209389,0.1494,,,,,,245,0,245,0,1,,,,,
,,662156,001,2023-07-31_19h45.33.170,arm3_eps,2022.2.5,MacIntel,60.0024001,5d5c74c921a8d40001360a37,64c7fed44a04f777bb1e18ce,64c800bf7a854dcfc2e0d0ff,right,-1,0.75,0.3071,35,-0.029286342,0.1526,,,,,,246,0,246,0,1,,,,,
,,662156,001,2023-07-31_19h45.33.170,arm3_eps,2022.2.5,MacIntel,60.0024001,5d5c74c921a8d40001360a37,64c7fed44a04f777bb1e18ce,64c800bf7a854dcfc2e0d0ff,right,-1,0.75,0.3071,35,-0.03663532,0.1675,,,,,,247,0,247,0,1,,,,,
,,662156,001,2023-07-31_19h45.33.170,arm3_eps,2022.2.5,MacIntel,60.0024001,5d5c74c921a8d40001360a37,64c7fed44a04f777bb1e18ce,64c800bf7a854dcfc2e0d0ff,right,-1,0.75,0.3071,35,-0.052016455,0.1486,,,,,,248,0,248,0,1,,,,,
,,662156,001,2023-07-31_19h45.33.170,arm3_eps,2022.2.5,MacIntel,60.0024001,5d5c74c921a8d40001360a37,64c7fed44a04f777bb1e18ce,64c800bf7a854dcfc2e0d0ff,right,-1,0.75,0.3071,35,-0.056958152,0.2987,,,,,,249,0,249,0,1,,,,,
,,662156,001,2023-07-31_19h45.33.170,arm3_eps,2022.2.5,MacIntel,60.0024001,5d5c74c921a8d40001360a37,64c7fed44a04f777bb1e18ce,64c800bf7a854dcfc2e0d0ff,right,-1,0.75,0.3071,35,-0.096766332,0.2,,,,,,250,0,250,0,1,,,,,
,,662156,001,2023-07-31_19h45.33.170,arm3_eps,2022.2.5,MacIntel,60.0024001,5d5c74c921a8d40001360a37,64c7fed44a04f777bb1e18ce,64c800bf7a854dcfc2e0d0ff,down,1,0.75,0.3071,36,0,0.3155,,,,,,251,0,251,0,1,,,,,
,,662156,001,2023-07-31_19h45.33.170,arm3_eps,2022.2.5,MacIntel,60.0024001,5d5c74c921a8d40001360a37,64c7fed44a04f777bb1e18ce,64c800bf7a854dcfc2e0d0ff,right,1,0.75,0.3071,36,0.014563227,0.7983,,,,,,252,0,252,0,1,,,,,
,,662156,001,2023-07-31_19h45.33.170,arm3_eps,2022.2.5,MacIntel,60.0024001,5d5c74c921a8d40001360a37,64c7fed44a04f777bb1e18ce,64c800bf7a854dcfc2e0d0ff,right,1,0.75,0.3071,36,0.027155287,0.1323,,,,,,253,0,253,0,1,,,,,
,,662156,001,2023-07-31_19h45.33.170,arm3_eps,2022.2.5,MacIntel,60.0024001,5d5c74c921a8d40001360a37,64c7fed44a04f777bb1e18ce,64c800bf7a854dcfc2e0d0ff,right,1,0.75,0.3071,36,0.016358442,0.1656,,,,,,254,0,254,0,1,,,,,
