space_bar.keys,space_bar.rt,participant,session,date,expName,psychopyVersion,OS,frameRate,PROLIFIC_PID,STUDY_ID,SESSION_ID,resp.keys,state,q_prob,eps_prob,score,price,resp.rt,train.thisRepN,train.thisTrialN,train.thisN,train.thisIndex,train.ran,steps.thisRepN,steps.thisTrialN,steps.thisN,steps.thisIndex,steps.ran,blocks.thisRepN,blocks.thisTrialN,blocks.thisN,blocks.thisIndex,blocks.ran
space,23.3983,670365,001,2023-07-31_14h42.36.493,arm3_eps,2022.2.5,Win32,59.89817311,60b7e28349c6c6d290dc8075,64c7fed44a04f777bb1e18ce,64c80086bd578f9b30c846f6,,,,,,,,,,,,,,,,,,,,,,
space,2.9492,670365,001,2023-07-31_14h42.36.493,arm3_eps,2022.2.5,Win32,59.89817311,60b7e28349c6c6d290dc8075,64c7fed44a04f777bb1e18ce,64c80086bd578f9b30c846f6,,,,,,,,,,,,,,,,,,,,,,
space,13.6672,670365,001,2023-07-31_14h42.36.493,arm3_eps,2022.2.5,Win32,59.89817311,60b7e28349c6c6d290dc8075,64c7fed44a04f777bb1e18ce,64c80086bd578f9b30c846f6,,,,,,,,,,,,,,,,,,,,,,
space,10.4183,670365,001,2023-07-31_14h42.36.493,arm3_eps,2022.2.5,Win32,59.89817311,60b7e28349c6c6d290dc8075,64c7fed44a04f777bb1e18ce,64c80086bd578f9b30c846f6,,,,,,,,,,,,,,,,,,,,,,
space,13.8429,670365,001,2023-07-31_14h42.36.493,arm3_eps,2022.2.5,Win32,59.89817311,60b7e28349c6c6d290dc8075,64c7fed44a04f777bb1e18ce,64c80086bd578f9b30c846f6,,,,,,,,,,,,,,,,,,,,,,
space,5.2724,670365,001,2023-07-31_14h42.36.493,arm3_eps,2022.2.5,Win32,59.89817311,60b7e28349c6c6d290dc8075,64c7fed44a04f777bb1e18ce,64c80086bd578f9b30c846f6,,,,,,,,,,,,,,,,,,,,,,
space,1.3229,670365,001,2023-07-31_14h42.36.493,arm3_eps,2022.2.5,Win32,59.89817311,60b7e28349c6c6d290dc8075,64c7fed44a04f777bb1e18ce,64c80086bd578f9b30c846f6,,,,,,,,,,,,,,,,,,,,,,
,,670365,001,2023-07-31_14h42.36.493,arm3_eps,2022.2.5,Win32,59.89817311,60b7e28349c6c6d290dc8075,64c7fed44a04f777bb1e18ce,64c80086bd578f9b30c846f6,right,-1,1,0.2429,0,0.008413252,1.9476,0,0,0,0,1,,,,,,,,,,
,,670365,001,2023-07-31_14h42.36.493,arm3_eps,2022.2.5,Win32,59.89817311,60b7e28349c6c6d290dc8075,64c7fed44a04f777bb1e18ce,64c80086bd578f9b30c846f6,right,-1,1,0.2429,0,-0.002829566,0.7876,1,0,1,0,1,,,,,,,,,,
,,670365,001,2023-07-31_14h42.36.493,arm3_eps,2022.2.5,Win32,59.89817311,60b7e28349c6c6d290dc8075,64c7fed44a04f777bb1e18ce,64c80086bd578f9b30c846f6,right,-1,1,0.2429,0,-0.029648932,0.5159,2,0,2,0,1,,,,,,,,,,
,,670365,001,2023-07-31_14h42.36.493,arm3_eps,2022.2.5,Win32,59.89817311,60b7e28349c6c6d290dc8075,64c7fed44a04f777bb1e18ce,64c80086bd578f9b30c846f6,right,-1,1,0.2429,0,-0.013324273,0.5485,3,0,3,0,1,,,,,,,,,,
,,670365,001,2023-07-31_14h42.36.493,arm3_eps,2022.2.5,Win32,59.89817311,60b7e28349c6c6d290dc8075,64c7fed44a04f777bb1e18ce,64c80086bd578f9b30c846f6,right,-1,1,0.2429,0,-0.021470221,0.4807,4,0,4,0,1,,,,,,,,,,
,,670365,001,2023-07-31_14h42.36.493,arm3_eps,2022.2.5,Win32,59.89817311,60b7e28349c6c6d290dc8075,64c7fed44a04f777bb1e18ce,64c80086bd578f9b30c846f6,right,-1,1,0.2429,0,-0.054471,1.0209,5,0,5,0,1,,,,,,,,,,
,,670365,001,2023-07-31_14h42.36.493,arm3_eps,2022.2.5,Win32,59.89817311,60b7e28349c6c6d290dc8075,64c7fed44a04f777bb1e18ce,64c80086bd578f9b30c846f6,down,-1,1,0.2429,1,0,2.6645,6,0,6,0,1,,,,,,,,,,
,,670365,001,2023-07-31_14h42.36.493,arm3_eps,2022.2.5,Win32,59.89817311,60b7e28349c6c6d290dc8075,64c7fed44a04f777bb1e18ce,64c80086bd578f9b30c846f6,right,-1,1,0.2429,1,-0.037478061,2.3308,7,0,7,0,1,,,,,,,,,,
,,670365,001,2023-07-31_14h42.36.493,arm3_eps,2022.2.5,Win32,59.89817311,60b7e28349c6c6d290dc8075,64c7fed44a04f777bb1e18ce,64c80086bd578f9b30c846f6,right,-1,1,0.2429,1,-0.038693689,0.4342,8,0,8,0,1,,,,,,,,,,
,,670365,001,2023-07-31_14h42.36.493,arm3_eps,2022.2.5,Win32,59.89817311,60b7e28349c6c6d290dc8075,64c7fed44a04f777bb1e18ce,64c80086bd578f9b30c846f6,right,-1,1,0.2429,1,-0.058507961,0.5478,9,0,9,0,1,,,,,,,,,,
,,670365,001,2023-07-31_14h42.36.493,arm3_eps,2022.2.5,Win32,59.89817311,60b7e28349c6c6d290dc8075,64c7fed44a04f777bb1e18ce,64c80086bd578f9b30c846f6,right,-1,1,0.2429,1,-0.053315257,0.4722,10,0,10,0,1,,,,,,,,,,
,,670365,001,2023-07-31_14h42.36.493,arm3_eps,2022.2.5,Win32,59.89817311,60b7e28349c6c6d290dc8075,64c7fed44a04f777bb1e18ce,64c80086bd578f9b30c846f6,up,-1,1,0.2429,0,0,2.0666,11,0,11,0,1,,,,,,,,,,
,,670365,001,2023-07-31_14h42.36.493,arm3_eps,2022.2.5,Win32,59.89817311,60b7e28349c6c6d290dc8075,64c7fed44a04f777bb1e18ce,64c80086bd578f9b30c846f6,right,-1,1,0.2429,0,0.00721681,2.4007,12,0,12,0,1,,,,,,,,,,
,,670365,001,2023-07-31_14h42.36.493,arm3_eps,2022.2.5,Win32,59.89817311,60b7e28349c6c6d290dc8075,64c7fed44a04f777bb1e18ce,64c80086bd578f9b30c846f6,right,-1,1,0.2429,0,0.005318071,0.3679,13,0,13,0,1,,,,,,,,,,
,,670365,001,2023-07-31_14h42.36.493,arm3_eps,2022.2.5,Win32,59.89817311,60b7e28349c6c6d290dc8075,64c7fed44a04f777bb1e18ce,64c80086bd578f9b30c846f6,right,-1,1,0.2429,0,0.032382971,0.4514,14,0,14,0,1,,,,,,,,,,
,,670365,001,2023-07-31_14h42.36.493,arm3_eps,2022.2.5,Win32,59.89817311,60b7e28349c6c6d290dc8075,64c7fed44a04f777bb1e18ce,64c80086bd578f9b30c846f6,right,-1,1,0.2429,0,0.033991906,0.4176,15,0,15,0,1,,,,,,,,,,
,,670365,001,2023-07-31_14h42.36.493,arm3_eps,2022.2.5,Win32,59.89817311,60b7e28349c6c6d290dc8075,64c7fed44a04f777bb1e18ce,64c80086bd578f9b30c846f6,right,-1,1,0.2429,0,0.036405594,0.4586,16,0,16,0,1,,,,,,,,,,
,,670365,001,2023-07-31_14h42.36.493,arm3_eps,2022.2.5,Win32,59.89817311,60b7e28349c6c6d290dc8075,64c7fed44a04f777bb1e18ce,64c80086bd578f9b30c846f6,right,-1,1,0.2429,0,0.030806828,0.5343,17,0,17,0,1,,,,,,,,,,
,,670365,001,2023-07-31_14h42.36.493,arm3_eps,2022.2.5,Win32,59.89817311,60b7e28349c6c6d290dc8075,64c7fed44a04f777bb1e18ce,64c80086bd578f9b30c846f6,down,-1,1,0.2429,1,0,1.8518,18,0,18,0,1,,,,,,,,,,
,,670365,001,2023-07-31_14h42.36.493,arm3_eps,2022.2.5,Win32,59.89817311,60b7e28349c6c6d290dc8075,64c7fed44a04f777bb1e18ce,64c80086bd578f9b30c846f6,right,-1,1,0.2429,1,-0.021057611,2.4229,19,0,19,0,1,,,,,,,,,,
,,670365,001,2023-07-31_14h42.36.493,arm3_eps,2022.2.5,Win32,59.89817311,60b7e28349c6c6d290dc8075,64c7fed44a04f777bb1e18ce,64c80086bd578f9b30c846f6,right,-1,1,0.2429,1,-0.019732068,0.3526,20,0,20,0,1,,,,,,,,,,
,,670365,001,2023-07-31_14h42.36.493,arm3_eps,2022.2.5,Win32,59.89817311,60b7e28349c6c6d290dc8075,64c7fed44a04f777bb1e18ce,64c80086bd578f9b30c846f6,right,-1,1,0.2429,1,-0.067212869,0.3225,21,0,21,0,1,,,,,,,,,,
,,670365,001,2023-07-31_14h42.36.493,arm3_eps,2022.2.5,Win32,59.89817311,60b7e28349c6c6d290dc8075,64c7fed44a04f777bb1e18ce,64c80086bd578f9b30c846f6,right,-1,1,0.2429,1,-0.08562997,0.3387,22,0,22,0,1,,,,,,,,,,
,,670365,001,2023-07-31_14h42.36.493,arm3_eps,2022.2.5,Win32,59.89817311,60b7e28349c6c6d290dc8075,64c7fed44a04f777bb1e18ce,64c80086bd578f9b30c846f6,down,1,1,0.2429,2,0,0.5322,23,0,23,0,1,,,,,,,,,,
,,670365,001,2023-07-31_14h42.36.493,arm3_eps,2022.2.5,Win32,59.89817311,60b7e28349c6c6d290dc8075,64c7fed44a04f777bb1e18ce,64c80086bd578f9b30c846f6,right,1,1,0.2429,2,0.034937018,0.9953,24,0,24,0,1,,,,,,,,,,
,,670365,001,2023-07-31_14h42.36.493,arm3_eps,2022.2.5,Win32,59.89817311,60b7e28349c6c6d290dc8075,64c7fed44a04f777bb1e18ce,64c80086bd578f9b30c846f6,right,1,1,0.2429,2,0.035317168,0.351,25,0,25,0,1,,,,,,,,,,
,,670365,001,2023-07-31_14h42.36.493,arm3_eps,2022.2.5,Win32,59.89817311,60b7e28349c6c6d290dc8075,64c7fed44a04f777bb1e18ce,64c80086bd578f9b30c846f6,right,1,1,0.2429,2,0.036854003,0.1864,26,0,26,0,1,,,,,,,,,,
,,670365,001,2023-07-31_14h42.36.493,arm3_eps,2022.2.5,Win32,59.89817311,60b7e28349c6c6d290dc8075,64c7fed44a04f777bb1e18ce,64c80086bd578f9b30c846f6,up,-1,1,0.2429,3,0,0.7514,27,0,27,0,1,,,,,,,,,,
,,670365,001,2023-07-31_14h42.36.493,arm3_eps,2022.2.5,Win32,59.89817311,60b7e28349c6c6d290dc8075,64c7fed44a04f777bb1e18ce,64c80086bd578f9b30c846f6,right,-1,1,0.2429,3,-0.033908225,1.3626,28,0,28,0,1,,,,,,,,,,
,,670365,001,2023-07-31_14h42.36.493,arm3_eps,2022.2.5,Win32,59.89817311,60b7e28349c6c6d290dc8075,64c7fed44a04f777bb1e18ce,64c80086bd578f9b30c846f6,right,-1,1,0.2429,3,-0.030124652,0.2847,29,0,29,0,1,,,,,,,,,,
,,670365,001,2023-07-31_14h42.36.493,arm3_eps,2022.2.5,Win32,59.89817311,60b7e28349c6c6d290dc8075,64c7fed44a04f777bb1e18ce,64c80086bd578f9b30c846f6,right,-1,1,0.2429,3,-0.021373104,0.2522,30,0,30,0,1,,,,,,,,,,
,,670365,001,2023-07-31_14h42.36.493,arm3_eps,2022.2.5,Win32,59.89817311,60b7e28349c6c6d290dc8075,64c7fed44a04f777bb1e18ce,64c80086bd578f9b30c846f6,right,-1,1,0.2429,3,-0.022218651,0.3012,31,0,31,0,1,,,,,,,,,,
,,670365,001,2023-07-31_14h42.36.493,arm3_eps,2022.2.5,Win32,59.89817311,60b7e28349c6c6d290dc8075,64c7fed44a04f777bb1e18ce,64c80086bd578f9b30c846f6,right,-1,1,0.2429,3,-0.010943358,0.351,32,0,32,0,1,,,,,,,,,,
,,670365,001,2023-07-31_14h42.36.493,arm3_eps,2022.2.5,Win32,59.89817311,60b7e28349c6c6d290dc8075,64c7fed44a04f777bb1e18ce,64c80086bd578f9b30c846f6,up,1,1,0.2429,2,0,0.6856,33,0,33,0,1,,,,,,,,,,
,,670365,001,2023-07-31_14h42.36.493,arm3_eps,2022.2.5,Win32,59.89817311,60b7e28349c6c6d290dc8075,64c7fed44a04f777bb1e18ce,64c80086bd578f9b30c846f6,right,1,1,0.2429,2,0.006358143,1.2668,34,0,34,0,1,,,,,,,,,,
,,670365,001,2023-07-31_14h42.36.493,arm3_eps,2022.2.5,Win32,59.89817311,60b7e28349c6c6d290dc8075,64c7fed44a04f777bb1e18ce,64c80086bd578f9b30c846f6,right,1,1,0.2429,2,0.002757618,0.3502,35,0,35,0,1,,,,,,,,,,
,,670365,001,2023-07-31_14h42.36.493,arm3_eps,2022.2.5,Win32,59.89817311,60b7e28349c6c6d290dc8075,64c7fed44a04f777bb1e18ce,64c80086bd578f9b30c846f6,right,1,1,0.2429,2,-0.003146967,0.3066,36,0,36,0,1,,,,,,,,,,
,,670365,001,2023-07-31_14h42.36.493,arm3_eps,2022.2.5,Win32,59.89817311,60b7e28349c6c6d290dc8075,64c7fed44a04f777bb1e18ce,64c80086bd578f9b30c846f6,right,1,1,0.2429,2,-0.013857755,0.3227,37,0,37,0,1,,,,,,,,,,
,,670365,001,2023-07-31_14h42.36.493,arm3_eps,2022.2.5,Win32,59.89817311,60b7e28349c6c6d290dc8075,64c7fed44a04f777bb1e18ce,64c80086bd578f9b30c846f6,down,1,1,0.2429,1,0,0.5672,38,0,38,0,1,,,,,,,,,,
,,670365,001,2023-07-31_14h42.36.493,arm3_eps,2022.2.5,Win32,59.89817311,60b7e28349c6c6d290dc8075,64c7fed44a04f777bb1e18ce,64c80086bd578f9b30c846f6,right,1,1,0.2429,1,0.000967657,0.9203,39,0,39,0,1,,,,,,,,,,
,,670365,001,2023-07-31_14h42.36.493,arm3_eps,2022.2.5,Win32,59.89817311,60b7e28349c6c6d290dc8075,64c7fed44a04f777bb1e18ce,64c80086bd578f9b30c846f6,right,1,1,0.2429,1,0.017790399,0.3503,40,0,40,0,1,,,,,,,,,,
,,670365,001,2023-07-31_14h42.36.493,arm3_eps,2022.2.5,Win32,59.89817311,60b7e28349c6c6d290dc8075,64c7fed44a04f777bb1e18ce,64c80086bd578f9b30c846f6,right,1,1,0.2429,1,-0.004288596,0.1885,41,0,41,0,1,,,,,,,,,,
,,670365,001,2023-07-31_14h42.36.493,arm3_eps,2022.2.5,Win32,59.89817311,60b7e28349c6c6d290dc8075,64c7fed44a04f777bb1e18ce,64c80086bd578f9b30c846f6,right,1,1,0.2429,1,0.004665003,0.2505,42,0,42,0,1,,,,,,,,,,
,,670365,001,2023-07-31_14h42.36.493,arm3_eps,2022.2.5,Win32,59.89817311,60b7e28349c6c6d290dc8075,64c7fed44a04f777bb1e18ce,64c80086bd578f9b30c846f6,right,1,1,0.2429,1,0.025167932,0.1722,43,0,43,0,1,,,,,,,,,,
,,670365,001,2023-07-31_14h42.36.493,arm3_eps,2022.2.5,Win32,59.89817311,60b7e28349c6c6d290dc8075,64c7fed44a04f777bb1e18ce,64c80086bd578f9b30c846f6,right,1,1,0.2429,1,0.013956236,0.17,44,0,44,0,1,,,,,,,,,,
,,670365,001,2023-07-31_14h42.36.493,arm3_eps,2022.2.5,Win32,59.89817311,60b7e28349c6c6d290dc8075,64c7fed44a04f777bb1e18ce,64c80086bd578f9b30c846f6,right,1,1,0.2429,1,0.018807601,0.2571,45,0,45,0,1,,,,,,,,,,
,,670365,001,2023-07-31_14h42.36.493,arm3_eps,2022.2.5,Win32,59.89817311,60b7e28349c6c6d290dc8075,64c7fed44a04f777bb1e18ce,64c80086bd578f9b30c846f6,down,-1,1,0.2429,0,0,0.916,46,0,46,0,1,,,,,,,,,,
,,670365,001,2023-07-31_14h42.36.493,arm3_eps,2022.2.5,Win32,59.89817311,60b7e28349c6c6d290dc8075,64c7fed44a04f777bb1e18ce,64c80086bd578f9b30c846f6,right,-1,1,0.2429,0,-0.01732121,0.8048,47,0,47,0,1,,,,,,,,,,
,,670365,001,2023-07-31_14h42.36.493,arm3_eps,2022.2.5,Win32,59.89817311,60b7e28349c6c6d290dc8075,64c7fed44a04f777bb1e18ce,64c80086bd578f9b30c846f6,right,-1,1,0.2429,0,-0.021665601,0.2208,48,0,48,0,1,,,,,,,,,,
,,670365,001,2023-07-31_14h42.36.493,arm3_eps,2022.2.5,Win32,59.89817311,60b7e28349c6c6d290dc8075,64c7fed44a04f777bb1e18ce,64c80086bd578f9b30c846f6,right,-1,1,0.2429,0,-0.036125917,0.1827,49,0,49,0,1,,,,,,,,,,
space,11.2639,670365,001,2023-07-31_14h42.36.493,arm3_eps,2022.2.5,Win32,59.89817311,60b7e28349c6c6d290dc8075,64c7fed44a04f777bb1e18ce,64c80086bd578f9b30c846f6,,,,,,,,,,,,,,,,,,,,,,
space,7.4032,670365,001,2023-07-31_14h42.36.493,arm3_eps,2022.2.5,Win32,59.89817311,60b7e28349c6c6d290dc8075,64c7fed44a04f777bb1e18ce,64c80086bd578f9b30c846f6,,,,,,,,,,,,,,,,,,,,,,
space,8.5267,670365,001,2023-07-31_14h42.36.493,arm3_eps,2022.2.5,Win32,59.89817311,60b7e28349c6c6d290dc8075,64c7fed44a04f777bb1e18ce,64c80086bd578f9b30c846f6,,,,,,,,,,,,,,,,,,,,,,
space,4.5877,670365,001,2023-07-31_14h42.36.493,arm3_eps,2022.2.5,Win32,59.89817311,60b7e28349c6c6d290dc8075,64c7fed44a04f777bb1e18ce,64c80086bd578f9b30c846f6,,,,,,,,,,,,,,,,,,,,,,
space,4.4044,670365,001,2023-07-31_14h42.36.493,arm3_eps,2022.2.5,Win32,59.89817311,60b7e28349c6c6d290dc8075,64c7fed44a04f777bb1e18ce,64c80086bd578f9b30c846f6,,,,,,,,,,,,,,,,,,,,,,
space,0.944,670365,001,2023-07-31_14h42.36.493,arm3_eps,2022.2.5,Win32,59.89817311,60b7e28349c6c6d290dc8075,64c7fed44a04f777bb1e18ce,64c80086bd578f9b30c846f6,,,,,,,,,,,,,,,,,,,,,,
,,670365,001,2023-07-31_14h42.36.493,arm3_eps,2022.2.5,Win32,59.89817311,60b7e28349c6c6d290dc8075,64c7fed44a04f777bb1e18ce,64c80086bd578f9b30c846f6,right,-1,0.75,0.2429,0,0.021419352,1.4716,0,0,0,0,1,,,,,,,,,,
,,670365,001,2023-07-31_14h42.36.493,arm3_eps,2022.2.5,Win32,59.89817311,60b7e28349c6c6d290dc8075,64c7fed44a04f777bb1e18ce,64c80086bd578f9b30c846f6,right,-1,0.75,0.2429,0,0.026783517,0.3943,1,0,1,0,1,,,,,,,,,,
,,670365,001,2023-07-31_14h42.36.493,arm3_eps,2022.2.5,Win32,59.89817311,60b7e28349c6c6d290dc8075,64c7fed44a04f777bb1e18ce,64c80086bd578f9b30c846f6,down,-1,0.75,0.2429,0,0,0.6253,2,0,2,0,1,,,,,,,,,,
,,670365,001,2023-07-31_14h42.36.493,arm3_eps,2022.2.5,Win32,59.89817311,60b7e28349c6c6d290dc8075,64c7fed44a04f777bb1e18ce,64c80086bd578f9b30c846f6,right,-1,0.75,0.2429,0,-0.019621039,1.4282,3,0,3,0,1,,,,,,,,,,
,,670365,001,2023-07-31_14h42.36.493,arm3_eps,2022.2.5,Win32,59.89817311,60b7e28349c6c6d290dc8075,64c7fed44a04f777bb1e18ce,64c80086bd578f9b30c846f6,right,-1,0.75,0.2429,0,-0.045946522,0.3312,4,0,4,0,1,,,,,,,,,,
,,670365,001,2023-07-31_14h42.36.493,arm3_eps,2022.2.5,Win32,59.89817311,60b7e28349c6c6d290dc8075,64c7fed44a04f777bb1e18ce,64c80086bd578f9b30c846f6,right,-1,0.75,0.2429,0,-0.062098182,0.3266,5,0,5,0,1,,,,,,,,,,
,,670365,001,2023-07-31_14h42.36.493,arm3_eps,2022.2.5,Win32,59.89817311,60b7e28349c6c6d290dc8075,64c7fed44a04f777bb1e18ce,64c80086bd578f9b30c846f6,down,-1,0.75,0.2429,0,0,0.3454,6,0,6,0,1,,,,,,,,,,
,,670365,001,2023-07-31_14h42.36.493,arm3_eps,2022.2.5,Win32,59.89817311,60b7e28349c6c6d290dc8075,64c7fed44a04f777bb1e18ce,64c80086bd578f9b30c846f6,right,-1,0.75,0.2429,0,0.005376273,1.134,7,0,7,0,1,,,,,,,,,,
,,670365,001,2023-07-31_14h42.36.493,arm3_eps,2022.2.5,Win32,59.89817311,60b7e28349c6c6d290dc8075,64c7fed44a04f777bb1e18ce,64c80086bd578f9b30c846f6,right,-1,0.75,0.2429,0,-0.00634153,0.4258,8,0,8,0,1,,,,,,,,,,
,,670365,001,2023-07-31_14h42.36.493,arm3_eps,2022.2.5,Win32,59.89817311,60b7e28349c6c6d290dc8075,64c7fed44a04f777bb1e18ce,64c80086bd578f9b30c846f6,right,-1,0.75,0.2429,0,-0.036397519,0.3983,9,0,9,0,1,,,,,,,,,,
,,670365,001,2023-07-31_14h42.36.493,arm3_eps,2022.2.5,Win32,59.89817311,60b7e28349c6c6d290dc8075,64c7fed44a04f777bb1e18ce,64c80086bd578f9b30c846f6,down,1,0.75,0.2429,1,0,0.5804,10,0,10,0,1,,,,,,,,,,
,,670365,001,2023-07-31_14h42.36.493,arm3_eps,2022.2.5,Win32,59.89817311,60b7e28349c6c6d290dc8075,64c7fed44a04f777bb1e18ce,64c80086bd578f9b30c846f6,right,1,0.75,0.2429,1,0.011525888,1.6108,11,0,11,0,1,,,,,,,,,,
,,670365,001,2023-07-31_14h42.36.493,arm3_eps,2022.2.5,Win32,59.89817311,60b7e28349c6c6d290dc8075,64c7fed44a04f777bb1e18ce,64c80086bd578f9b30c846f6,right,1,0.75,0.2429,1,0.029837975,0.3448,12,0,12,0,1,,,,,,,,,,
,,670365,001,2023-07-31_14h42.36.493,arm3_eps,2022.2.5,Win32,59.89817311,60b7e28349c6c6d290dc8075,64c7fed44a04f777bb1e18ce,64c80086bd578f9b30c846f6,right,1,0.75,0.2429,1,0.016750427,0.4271,13,0,13,0,1,,,,,,,,,,
,,670365,001,2023-07-31_14h42.36.493,arm3_eps,2022.2.5,Win32,59.89817311,60b7e28349c6c6d290dc8075,64c7fed44a04f777bb1e18ce,64c80086bd578f9b30c846f6,right,1,0.75,0.2429,1,0.015547094,0.4262,14,0,14,0,1,,,,,,,,,,
,,670365,001,2023-07-31_14h42.36.493,arm3_eps,2022.2.5,Win32,59.89817311,60b7e28349c6c6d290dc8075,64c7fed44a04f777bb1e18ce,64c80086bd578f9b30c846f6,right,1,0.75,0.2429,1,0.006252716,0.5162,15,0,15,0,1,,,,,,,,,,
,,670365,001,2023-07-31_14h42.36.493,arm3_eps,2022.2.5,Win32,59.89817311,60b7e28349c6c6d290dc8075,64c7fed44a04f777bb1e18ce,64c80086bd578f9b30c846f6,up,1,0.75,0.2429,2,0,0.6649,16,0,16,0,1,,,,,,,,,,
,,670365,001,2023-07-31_14h42.36.493,arm3_eps,2022.2.5,Win32,59.89817311,60b7e28349c6c6d290dc8075,64c7fed44a04f777bb1e18ce,64c80086bd578f9b30c846f6,right,1,0.75,0.2429,2,0.022722191,1.5645,17,0,17,0,1,,,,,,,,,,
,,670365,001,2023-07-31_14h42.36.493,arm3_eps,2022.2.5,Win32,59.89817311,60b7e28349c6c6d290dc8075,64c7fed44a04f777bb1e18ce,64c80086bd578f9b30c846f6,right,1,0.75,0.2429,2,0.032289022,0.584,18,0,18,0,1,,,,,,,,,,
,,670365,001,2023-07-31_14h42.36.493,arm3_eps,2022.2.5,Win32,59.89817311,60b7e28349c6c6d290dc8075,64c7fed44a04f777bb1e18ce,64c80086bd578f9b30c846f6,up,1,0.75,0.2429,2,0,0.7012,19,0,19,0,1,,,,,,,,,,
,,670365,001,2023-07-31_14h42.36.493,arm3_eps,2022.2.5,Win32,59.89817311,60b7e28349c6c6d290dc8075,64c7fed44a04f777bb1e18ce,64c80086bd578f9b30c846f6,right,1,0.75,0.2429,2,0.006845816,0.9781,20,0,20,0,1,,,,,,,,,,
,,670365,001,2023-07-31_14h42.36.493,arm3_eps,2022.2.5,Win32,59.89817311,60b7e28349c6c6d290dc8075,64c7fed44a04f777bb1e18ce,64c80086bd578f9b30c846f6,right,1,0.75,0.2429,2,0.019606938,0.4093,21,0,21,0,1,,,,,,,,,,
,,670365,001,2023-07-31_14h42.36.493,arm3_eps,2022.2.5,Win32,59.89817311,60b7e28349c6c6d290dc8075,64c7fed44a04f777bb1e18ce,64c80086bd578f9b30c846f6,up,1,0.75,0.2429,3,0,0.5303,22,0,22,0,1,,,,,,,,,,
,,670365,001,2023-07-31_14h42.36.493,arm3_eps,2022.2.5,Win32,59.89817311,60b7e28349c6c6d290dc8075,64c7fed44a04f777bb1e18ce,64c80086bd578f9b30c846f6,right,1,0.75,0.2429,3,-0.009708329,1.4017,23,0,23,0,1,,,,,,,,,,
,,670365,001,2023-07-31_14h42.36.493,arm3_eps,2022.2.5,Win32,59.89817311,60b7e28349c6c6d290dc8075,64c7fed44a04f777bb1e18ce,64c80086bd578f9b30c846f6,right,1,0.75,0.2429,3,0.01084871,0.3135,24,0,24,0,1,,,,,,,,,,
,,670365,001,2023-07-31_14h42.36.493,arm3_eps,2022.2.5,Win32,59.89817311,60b7e28349c6c6d290dc8075,64c7fed44a04f777bb1e18ce,64c80086bd578f9b30c846f6,right,1,0.75,0.2429,3,0.030161603,0.3158,25,0,25,0,1,,,,,,,,,,
,,670365,001,2023-07-31_14h42.36.493,arm3_eps,2022.2.5,Win32,59.89817311,60b7e28349c6c6d290dc8075,64c7fed44a04f777bb1e18ce,64c80086bd578f9b30c846f6,down,1,0.75,0.2429,3,0,1.3103,26,0,26,0,1,,,,,,,,,,
,,670365,001,2023-07-31_14h42.36.493,arm3_eps,2022.2.5,Win32,59.89817311,60b7e28349c6c6d290dc8075,64c7fed44a04f777bb1e18ce,64c80086bd578f9b30c846f6,right,1,0.75,0.2429,3,0.014857075,0.9801,27,0,27,0,1,,,,,,,,,,
,,670365,001,2023-07-31_14h42.36.493,arm3_eps,2022.2.5,Win32,59.89817311,60b7e28349c6c6d290dc8075,64c7fed44a04f777bb1e18ce,64c80086bd578f9b30c846f6,right,1,0.75,0.2429,3,0.031413399,0.3502,28,0,28,0,1,,,,,,,,,,
,,670365,001,2023-07-31_14h42.36.493,arm3_eps,2022.2.5,Win32,59.89817311,60b7e28349c6c6d290dc8075,64c7fed44a04f777bb1e18ce,64c80086bd578f9b30c846f6,up,1,0.75,0.2429,4,0,0.5284,29,0,29,0,1,,,,,,,,,,
,,670365,001,2023-07-31_14h42.36.493,arm3_eps,2022.2.5,Win32,59.89817311,60b7e28349c6c6d290dc8075,64c7fed44a04f777bb1e18ce,64c80086bd578f9b30c846f6,right,1,0.75,0.2429,4,-0.031538067,0.966,30,0,30,0,1,,,,,,,,,,
,,670365,001,2023-07-31_14h42.36.493,arm3_eps,2022.2.5,Win32,59.89817311,60b7e28349c6c6d290dc8075,64c7fed44a04f777bb1e18ce,64c80086bd578f9b30c846f6,right,1,0.75,0.2429,4,-0.032380744,0.3446,31,0,31,0,1,,,,,,,,,,
,,670365,001,2023-07-31_14h42.36.493,arm3_eps,2022.2.5,Win32,59.89817311,60b7e28349c6c6d290dc8075,64c7fed44a04f777bb1e18ce,64c80086bd578f9b30c846f6,right,1,0.75,0.2429,4,-0.024568064,0.3487,32,0,32,0,1,,,,,,,,,,
,,670365,001,2023-07-31_14h42.36.493,arm3_eps,2022.2.5,Win32,59.89817311,60b7e28349c6c6d290dc8075,64c7fed44a04f777bb1e18ce,64c80086bd578f9b30c846f6,down,1,0.75,0.2429,3,0,0.8097,33,0,33,0,1,,,,,,,,,,
,,670365,001,2023-07-31_14h42.36.493,arm3_eps,2022.2.5,Win32,59.89817311,60b7e28349c6c6d290dc8075,64c7fed44a04f777bb1e18ce,64c80086bd578f9b30c846f6,right,1,0.75,0.2429,3,-0.021451397,1.2635,34,0,34,0,1,,,,,,,,,,
,,670365,001,2023-07-31_14h42.36.493,arm3_eps,2022.2.5,Win32,59.89817311,60b7e28349c6c6d290dc8075,64c7fed44a04f777bb1e18ce,64c80086bd578f9b30c846f6,right,1,0.75,0.2429,3,0.006043116,0.3446,35,0,35,0,1,,,,,,,,,,
,,670365,001,2023-07-31_14h42.36.493,arm3_eps,2022.2.5,Win32,59.89817311,60b7e28349c6c6d290dc8075,64c7fed44a04f777bb1e18ce,64c80086bd578f9b30c846f6,right,1,0.75,0.2429,3,0.012861073,0.2769,36,0,36,0,1,,,,,,,,,,
,,670365,001,2023-07-31_14h42.36.493,arm3_eps,2022.2.5,Win32,59.89817311,60b7e28349c6c6d290dc8075,64c7fed44a04f777bb1e18ce,64c80086bd578f9b30c846f6,right,1,0.75,0.2429,3,-0.012924145,0.2609,37,0,37,0,1,,,,,,,,,,
,,670365,001,2023-07-31_14h42.36.493,arm3_eps,2022.2.5,Win32,59.89817311,60b7e28349c6c6d290dc8075,64c7fed44a04f777bb1e18ce,64c80086bd578f9b30c846f6,right,1,0.75,0.2429,3,-0.037897718,0.3102,38,0,38,0,1,,,,,,,,,,
,,670365,001,2023-07-31_14h42.36.493,arm3_eps,2022.2.5,Win32,59.89817311,60b7e28349c6c6d290dc8075,64c7fed44a04f777bb1e18ce,64c80086bd578f9b30c846f6,down,1,0.75,0.2429,2,0,0.4439,39,0,39,0,1,,,,,,,,,,
,,670365,001,2023-07-31_14h42.36.493,arm3_eps,2022.2.5,Win32,59.89817311,60b7e28349c6c6d290dc8075,64c7fed44a04f777bb1e18ce,64c80086bd578f9b30c846f6,right,1,0.75,0.2429,2,0.017213845,0.8031,40,0,40,0,1,,,,,,,,,,
,,670365,001,2023-07-31_14h42.36.493,arm3_eps,2022.2.5,Win32,59.89817311,60b7e28349c6c6d290dc8075,64c7fed44a04f777bb1e18ce,64c80086bd578f9b30c846f6,right,1,0.75,0.2429,2,0.013229861,0.2098,41,0,41,0,1,,,,,,,,,,
,,670365,001,2023-07-31_14h42.36.493,arm3_eps,2022.2.5,Win32,59.89817311,60b7e28349c6c6d290dc8075,64c7fed44a04f777bb1e18ce,64c80086bd578f9b30c846f6,right,1,0.75,0.2429,2,0.024612298,0.1945,42,0,42,0,1,,,,,,,,,,
,,670365,001,2023-07-31_14h42.36.493,arm3_eps,2022.2.5,Win32,59.89817311,60b7e28349c6c6d290dc8075,64c7fed44a04f777bb1e18ce,64c80086bd578f9b30c846f6,right,1,0.75,0.2429,2,0.010078958,0.2272,43,0,43,0,1,,,,,,,,,,
,,670365,001,2023-07-31_14h42.36.493,arm3_eps,2022.2.5,Win32,59.89817311,60b7e28349c6c6d290dc8075,64c7fed44a04f777bb1e18ce,64c80086bd578f9b30c846f6,right,1,0.75,0.2429,2,-0.0118268,0.2266,44,0,44,0,1,,,,,,,,,,
,,670365,001,2023-07-31_14h42.36.493,arm3_eps,2022.2.5,Win32,59.89817311,60b7e28349c6c6d290dc8075,64c7fed44a04f777bb1e18ce,64c80086bd578f9b30c846f6,right,1,0.75,0.2429,2,-0.03143763,0.3813,45,0,45,0,1,,,,,,,,,,
,,670365,001,2023-07-31_14h42.36.493,arm3_eps,2022.2.5,Win32,59.89817311,60b7e28349c6c6d290dc8075,64c7fed44a04f777bb1e18ce,64c80086bd578f9b30c846f6,right,1,0.75,0.2429,2,-0.01858179,0.3776,46,0,46,0,1,,,,,,,,,,
,,670365,001,2023-07-31_14h42.36.493,arm3_eps,2022.2.5,Win32,59.89817311,60b7e28349c6c6d290dc8075,64c7fed44a04f777bb1e18ce,64c80086bd578f9b30c846f6,right,1,0.75,0.2429,2,-0.005600715,0.2099,47,0,47,0,1,,,,,,,,,,
,,670365,001,2023-07-31_14h42.36.493,arm3_eps,2022.2.5,Win32,59.89817311,60b7e28349c6c6d290dc8075,64c7fed44a04f777bb1e18ce,64c80086bd578f9b30c846f6,up,1,0.75,0.2429,3,0,0.6103,48,0,48,0,1,,,,,,,,,,
,,670365,001,2023-07-31_14h42.36.493,arm3_eps,2022.2.5,Win32,59.89817311,60b7e28349c6c6d290dc8075,64c7fed44a04f777bb1e18ce,64c80086bd578f9b30c846f6,right,1,0.75,0.2429,3,0.025156329,0.9155,49,0,49,0,1,,,,,,,,,,
space,15.3516,670365,001,2023-07-31_14h42.36.493,arm3_eps,2022.2.5,Win32,59.89817311,60b7e28349c6c6d290dc8075,64c7fed44a04f777bb1e18ce,64c80086bd578f9b30c846f6,,,,,,,,,,,,,,,,,,,,,,
space,7.7549,670365,001,2023-07-31_14h42.36.493,arm3_eps,2022.2.5,Win32,59.89817311,60b7e28349c6c6d290dc8075,64c7fed44a04f777bb1e18ce,64c80086bd578f9b30c846f6,,,,,,,,,,,,,,,,,,,,,,
space,0.7647,670365,001,2023-07-31_14h42.36.493,arm3_eps,2022.2.5,Win32,59.89817311,60b7e28349c6c6d290dc8075,64c7fed44a04f777bb1e18ce,64c80086bd578f9b30c846f6,,,,,,,,,,,,,,,,,,,,,,
,,670365,001,2023-07-31_14h42.36.493,arm3_eps,2022.2.5,Win32,59.89817311,60b7e28349c6c6d290dc8075,64c7fed44a04f777bb1e18ce,64c80086bd578f9b30c846f6,up,1,0.75,0.05,1,0,1.3335,0,0,0,0,1,,,,,,,,,,
,,670365,001,2023-07-31_14h42.36.493,arm3_eps,2022.2.5,Win32,59.89817311,60b7e28349c6c6d290dc8075,64c7fed44a04f777bb1e18ce,64c80086bd578f9b30c846f6,right,1,0.75,0.05,1,0.022534323,1.1801,1,0,1,0,1,,,,,,,,,,
,,670365,001,2023-07-31_14h42.36.493,arm3_eps,2022.2.5,Win32,59.89817311,60b7e28349c6c6d290dc8075,64c7fed44a04f777bb1e18ce,64c80086bd578f9b30c846f6,right,1,0.75,0.05,1,0.044655228,0.4515,2,0,2,0,1,,,,,,,,,,
,,670365,001,2023-07-31_14h42.36.493,arm3_eps,2022.2.5,Win32,59.89817311,60b7e28349c6c6d290dc8075,64c7fed44a04f777bb1e18ce,64c80086bd578f9b30c846f6,up,1,0.75,0.05,1,0,0.6683,3,0,3,0,1,,,,,,,,,,
,,670365,001,2023-07-31_14h42.36.493,arm3_eps,2022.2.5,Win32,59.89817311,60b7e28349c6c6d290dc8075,64c7fed44a04f777bb1e18ce,64c80086bd578f9b30c846f6,right,1,0.75,0.05,1,-0.021612328,0.7828,4,0,4,0,1,,,,,,,,,,
,,670365,001,2023-07-31_14h42.36.493,arm3_eps,2022.2.5,Win32,59.89817311,60b7e28349c6c6d290dc8075,64c7fed44a04f777bb1e18ce,64c80086bd578f9b30c846f6,right,1,0.75,0.05,1,0.003275176,0.3747,5,0,5,0,1,,,,,,,,,,
,,670365,001,2023-07-31_14h42.36.493,arm3_eps,2022.2.5,Win32,59.89817311,60b7e28349c6c6d290dc8075,64c7fed44a04f777bb1e18ce,64c80086bd578f9b30c846f6,right,1,0.75,0.05,1,0.00747521,0.2929,6,0,6,0,1,,,,,,,,,,
,,670365,001,2023-07-31_14h42.36.493,arm3_eps,2022.2.5,Win32,59.89817311,60b7e28349c6c6d290dc8075,64c7fed44a04f777bb1e18ce,64c80086bd578f9b30c846f6,right,1,0.75,0.05,1,0.008686299,0.3101,7,0,7,0,1,,,,,,,,,,
,,670365,001,2023-07-31_14h42.36.493,arm3_eps,2022.2.5,Win32,59.89817311,60b7e28349c6c6d290dc8075,64c7fed44a04f777bb1e18ce,64c80086bd578f9b30c846f6,right,1,0.75,0.05,1,0.010844634,0.312,8,0,8,0,1,,,,,,,,,,
,,670365,001,2023-07-31_14h42.36.493,arm3_eps,2022.2.5,Win32,59.89817311,60b7e28349c6c6d290dc8075,64c7fed44a04f777bb1e18ce,64c80086bd578f9b30c846f6,right,1,0.75,0.05,1,-0.007362774,0.3753,9,0,9,0,1,,,,,,,,,,
,,670365,001,2023-07-31_14h42.36.493,arm3_eps,2022.2.5,Win32,59.89817311,60b7e28349c6c6d290dc8075,64c7fed44a04f777bb1e18ce,64c80086bd578f9b30c846f6,right,1,0.75,0.05,1,0.012834951,0.5943,10,0,10,0,1,,,,,,,,,,
,,670365,001,2023-07-31_14h42.36.493,arm3_eps,2022.2.5,Win32,59.89817311,60b7e28349c6c6d290dc8075,64c7fed44a04f777bb1e18ce,64c80086bd578f9b30c846f6,down,1,0.75,0.05,1,0,0.5121,11,0,11,0,1,,,,,,,,,,
,,670365,001,2023-07-31_14h42.36.493,arm3_eps,2022.2.5,Win32,59.89817311,60b7e28349c6c6d290dc8075,64c7fed44a04f777bb1e18ce,64c80086bd578f9b30c846f6,right,1,0.75,0.05,1,-0.024545096,0.784,12,0,12,0,1,,,,,,,,,,
,,670365,001,2023-07-31_14h42.36.493,arm3_eps,2022.2.5,Win32,59.89817311,60b7e28349c6c6d290dc8075,64c7fed44a04f777bb1e18ce,64c80086bd578f9b30c846f6,right,1,0.75,0.05,1,-0.028866466,0.2671,13,0,13,0,1,,,,,,,,,,
,,670365,001,2023-07-31_14h42.36.493,arm3_eps,2022.2.5,Win32,59.89817311,60b7e28349c6c6d290dc8075,64c7fed44a04f777bb1e18ce,64c80086bd578f9b30c846f6,right,1,0.75,0.05,1,-0.034630933,0.2076,14,0,14,0,1,,,,,,,,,,
,,670365,001,2023-07-31_14h42.36.493,arm3_eps,2022.2.5,Win32,59.89817311,60b7e28349c6c6d290dc8075,64c7fed44a04f777bb1e18ce,64c80086bd578f9b30c846f6,right,1,0.75,0.05,1,0.005895938,0.184,15,0,15,0,1,,,,,,,,,,
,,670365,001,2023-07-31_14h42.36.493,arm3_eps,2022.2.5,Win32,59.89817311,60b7e28349c6c6d290dc8075,64c7fed44a04f777bb1e18ce,64c80086bd578f9b30c846f6,right,1,0.75,0.05,1,0.00841792,0.3011,16,0,16,0,1,,,,,,,,,,
,,670365,001,2023-07-31_14h42.36.493,arm3_eps,2022.2.5,Win32,59.89817311,60b7e28349c6c6d290dc8075,64c7fed44a04f777bb1e18ce,64c80086bd578f9b30c846f6,right,1,0.75,0.05,1,0.003473313,0.4903,17,0,17,0,1,,,,,,,,,,
,,670365,001,2023-07-31_14h42.36.493,arm3_eps,2022.2.5,Win32,59.89817311,60b7e28349c6c6d290dc8075,64c7fed44a04f777bb1e18ce,64c80086bd578f9b30c846f6,right,1,0.75,0.05,1,0.039442824,0.4176,18,0,18,0,1,,,,,,,,,,
,,670365,001,2023-07-31_14h42.36.493,arm3_eps,2022.2.5,Win32,59.89817311,60b7e28349c6c6d290dc8075,64c7fed44a04f777bb1e18ce,64c80086bd578f9b30c846f6,up,1,0.75,0.05,2,0,1.7018,19,0,19,0,1,,,,,,,,,,
,,670365,001,2023-07-31_14h42.36.493,arm3_eps,2022.2.5,Win32,59.89817311,60b7e28349c6c6d290dc8075,64c7fed44a04f777bb1e18ce,64c80086bd578f9b30c846f6,right,1,0.75,0.05,2,0.004163877,1.4971,20,0,20,0,1,,,,,,,,,,
,,670365,001,2023-07-31_14h42.36.493,arm3_eps,2022.2.5,Win32,59.89817311,60b7e28349c6c6d290dc8075,64c7fed44a04f777bb1e18ce,64c80086bd578f9b30c846f6,right,1,0.75,0.05,2,0.012716135,0.3179,21,0,21,0,1,,,,,,,,,,
,,670365,001,2023-07-31_14h42.36.493,arm3_eps,2022.2.5,Win32,59.89817311,60b7e28349c6c6d290dc8075,64c7fed44a04f777bb1e18ce,64c80086bd578f9b30c846f6,up,1,0.75,0.05,2,0,0.3161,22,0,22,0,1,,,,,,,,,,
,,670365,001,2023-07-31_14h42.36.493,arm3_eps,2022.2.5,Win32,59.89817311,60b7e28349c6c6d290dc8075,64c7fed44a04f777bb1e18ce,64c80086bd578f9b30c846f6,right,1,0.75,0.05,2,0.018487198,1.0096,23,0,23,0,1,,,,,,,,,,
,,670365,001,2023-07-31_14h42.36.493,arm3_eps,2022.2.5,Win32,59.89817311,60b7e28349c6c6d290dc8075,64c7fed44a04f777bb1e18ce,64c80086bd578f9b30c846f6,up,1,0.75,0.05,3,0,0.601,24,0,24,0,1,,,,,,,,,,
,,670365,001,2023-07-31_14h42.36.493,arm3_eps,2022.2.5,Win32,59.89817311,60b7e28349c6c6d290dc8075,64c7fed44a04f777bb1e18ce,64c80086bd578f9b30c846f6,right,1,0.75,0.05,3,-0.002141539,0.8958,25,0,25,0,1,,,,,,,,,,
,,670365,001,2023-07-31_14h42.36.493,arm3_eps,2022.2.5,Win32,59.89817311,60b7e28349c6c6d290dc8075,64c7fed44a04f777bb1e18ce,64c80086bd578f9b30c846f6,right,1,0.75,0.05,3,0.011820692,0.2346,26,0,26,0,1,,,,,,,,,,
,,670365,001,2023-07-31_14h42.36.493,arm3_eps,2022.2.5,Win32,59.89817311,60b7e28349c6c6d290dc8075,64c7fed44a04f777bb1e18ce,64c80086bd578f9b30c846f6,up,1,0.75,0.05,3,0,0.3413,27,0,27,0,1,,,,,,,,,,
,,670365,001,2023-07-31_14h42.36.493,arm3_eps,2022.2.5,Win32,59.89817311,60b7e28349c6c6d290dc8075,64c7fed44a04f777bb1e18ce,64c80086bd578f9b30c846f6,right,1,0.75,0.05,3,0.017391101,0.7968,28,0,28,0,1,,,,,,,,,,
,,670365,001,2023-07-31_14h42.36.493,arm3_eps,2022.2.5,Win32,59.89817311,60b7e28349c6c6d290dc8075,64c7fed44a04f777bb1e18ce,64c80086bd578f9b30c846f6,right,1,0.75,0.05,3,0.017545751,0.2678,29,0,29,0,1,,,,,,,,,,
,,670365,001,2023-07-31_14h42.36.493,arm3_eps,2022.2.5,Win32,59.89817311,60b7e28349c6c6d290dc8075,64c7fed44a04f777bb1e18ce,64c80086bd578f9b30c846f6,right,1,0.75,0.05,3,0.012039732,0.1616,30,0,30,0,1,,,,,,,,,,
,,670365,001,2023-07-31_14h42.36.493,arm3_eps,2022.2.5,Win32,59.89817311,60b7e28349c6c6d290dc8075,64c7fed44a04f777bb1e18ce,64c80086bd578f9b30c846f6,right,1,0.75,0.05,3,0.025725084,0.1777,31,0,31,0,1,,,,,,,,,,
,,670365,001,2023-07-31_14h42.36.493,arm3_eps,2022.2.5,Win32,59.89817311,60b7e28349c6c6d290dc8075,64c7fed44a04f777bb1e18ce,64c80086bd578f9b30c846f6,up,1,0.75,0.05,4,0,0.5505,32,0,32,0,1,,,,,,,,,,
,,670365,001,2023-07-31_14h42.36.493,arm3_eps,2022.2.5,Win32,59.89817311,60b7e28349c6c6d290dc8075,64c7fed44a04f777bb1e18ce,64c80086bd578f9b30c846f6,right,1,0.75,0.05,4,-0.003049428,0.9751,33,0,33,0,1,,,,,,,,,,
,,670365,001,2023-07-31_14h42.36.493,arm3_eps,2022.2.5,Win32,59.89817311,60b7e28349c6c6d290dc8075,64c7fed44a04f777bb1e18ce,64c80086bd578f9b30c846f6,right,1,0.75,0.05,4,-0.004513798,0.1593,34,0,34,0,1,,,,,,,,,,
,,670365,001,2023-07-31_14h42.36.493,arm3_eps,2022.2.5,Win32,59.89817311,60b7e28349c6c6d290dc8075,64c7fed44a04f777bb1e18ce,64c80086bd578f9b30c846f6,right,1,0.75,0.05,4,-0.004168137,0.1925,35,0,35,0,1,,,,,,,,,,
,,670365,001,2023-07-31_14h42.36.493,arm3_eps,2022.2.5,Win32,59.89817311,60b7e28349c6c6d290dc8075,64c7fed44a04f777bb1e18ce,64c80086bd578f9b30c846f6,right,1,0.75,0.05,4,-0.011903597,0.4255,36,0,36,0,1,,,,,,,,,,
,,670365,001,2023-07-31_14h42.36.493,arm3_eps,2022.2.5,Win32,59.89817311,60b7e28349c6c6d290dc8075,64c7fed44a04f777bb1e18ce,64c80086bd578f9b30c846f6,right,1,0.75,0.05,4,-0.030183031,0.1922,37,0,37,0,1,,,,,,,,,,
,,670365,001,2023-07-31_14h42.36.493,arm3_eps,2022.2.5,Win32,59.89817311,60b7e28349c6c6d290dc8075,64c7fed44a04f777bb1e18ce,64c80086bd578f9b30c846f6,right,1,0.75,0.05,4,-0.017857444,0.3129,38,0,38,0,1,,,,,,,,,,
,,670365,001,2023-07-31_14h42.36.493,arm3_eps,2022.2.5,Win32,59.89817311,60b7e28349c6c6d290dc8075,64c7fed44a04f777bb1e18ce,64c80086bd578f9b30c846f6,right,1,0.75,0.05,4,-0.041250085,0.1754,39,0,39,0,1,,,,,,,,,,
,,670365,001,2023-07-31_14h42.36.493,arm3_eps,2022.2.5,Win32,59.89817311,60b7e28349c6c6d290dc8075,64c7fed44a04f777bb1e18ce,64c80086bd578f9b30c846f6,down,1,0.75,0.05,3,0,0.6092,40,0,40,0,1,,,,,,,,,,
,,670365,001,2023-07-31_14h42.36.493,arm3_eps,2022.2.5,Win32,59.89817311,60b7e28349c6c6d290dc8075,64c7fed44a04f777bb1e18ce,64c80086bd578f9b30c846f6,up,1,0.75,0.05,3,0,1.2972,41,0,41,0,1,,,,,,,,,,
,,670365,001,2023-07-31_14h42.36.493,arm3_eps,2022.2.5,Win32,59.89817311,60b7e28349c6c6d290dc8075,64c7fed44a04f777bb1e18ce,64c80086bd578f9b30c846f6,right,1,0.75,0.05,3,0.026556677,1.0977,42,0,42,0,1,,,,,,,,,,
,,670365,001,2023-07-31_14h42.36.493,arm3_eps,2022.2.5,Win32,59.89817311,60b7e28349c6c6d290dc8075,64c7fed44a04f777bb1e18ce,64c80086bd578f9b30c846f6,up,1,0.75,0.05,3,0,0.5681,43,0,43,0,1,,,,,,,,,,
,,670365,001,2023-07-31_14h42.36.493,arm3_eps,2022.2.5,Win32,59.89817311,60b7e28349c6c6d290dc8075,64c7fed44a04f777bb1e18ce,64c80086bd578f9b30c846f6,up,1,0.75,0.05,4,0,1.2613,44,0,44,0,1,,,,,,,,,,
,,670365,001,2023-07-31_14h42.36.493,arm3_eps,2022.2.5,Win32,59.89817311,60b7e28349c6c6d290dc8075,64c7fed44a04f777bb1e18ce,64c80086bd578f9b30c846f6,right,1,0.75,0.05,4,0.034219567,1.4144,45,0,45,0,1,,,,,,,,,,
,,670365,001,2023-07-31_14h42.36.493,arm3_eps,2022.2.5,Win32,59.89817311,60b7e28349c6c6d290dc8075,64c7fed44a04f777bb1e18ce,64c80086bd578f9b30c846f6,right,1,0.75,0.05,4,0.079190747,0.1767,46,0,46,0,1,,,,,,,,,,
,,670365,001,2023-07-31_14h42.36.493,arm3_eps,2022.2.5,Win32,59.89817311,60b7e28349c6c6d290dc8075,64c7fed44a04f777bb1e18ce,64c80086bd578f9b30c846f6,up,1,0.75,0.05,5,0,0.4269,47,0,47,0,1,,,,,,,,,,
,,670365,001,2023-07-31_14h42.36.493,arm3_eps,2022.2.5,Win32,59.89817311,60b7e28349c6c6d290dc8075,64c7fed44a04f777bb1e18ce,64c80086bd578f9b30c846f6,right,1,0.75,0.05,5,0.010714646,1.0855,48,0,48,0,1,,,,,,,,,,
,,670365,001,2023-07-31_14h42.36.493,arm3_eps,2022.2.5,Win32,59.89817311,60b7e28349c6c6d290dc8075,64c7fed44a04f777bb1e18ce,64c80086bd578f9b30c846f6,right,1,0.75,0.05,5,0.005481003,0.1778,49,0,49,0,1,,,,,,,,,,
space,7.1625,670365,001,2023-07-31_14h42.36.493,arm3_eps,2022.2.5,Win32,59.89817311,60b7e28349c6c6d290dc8075,64c7fed44a04f777bb1e18ce,64c80086bd578f9b30c846f6,,,,,,,,,,,,,,,,,,,,,,
space,1.0364,670365,001,2023-07-31_14h42.36.493,arm3_eps,2022.2.5,Win32,59.89817311,60b7e28349c6c6d290dc8075,64c7fed44a04f777bb1e18ce,64c80086bd578f9b30c846f6,,,,,,,,,,,,,,,,,,,,,,
,,670365,001,2023-07-31_14h42.36.493,arm3_eps,2022.2.5,Win32,59.89817311,60b7e28349c6c6d290dc8075,64c7fed44a04f777bb1e18ce,64c80086bd578f9b30c846f6,up,-1,0.75,0.5,1,0,1.2188,0,0,0,0,1,,,,,,,,,,
,,670365,001,2023-07-31_14h42.36.493,arm3_eps,2022.2.5,Win32,59.89817311,60b7e28349c6c6d290dc8075,64c7fed44a04f777bb1e18ce,64c80086bd578f9b30c846f6,up,-1,0.75,0.5,0,0,0.2012,1,0,1,0,1,,,,,,,,,,
,,670365,001,2023-07-31_14h42.36.493,arm3_eps,2022.2.5,Win32,59.89817311,60b7e28349c6c6d290dc8075,64c7fed44a04f777bb1e18ce,64c80086bd578f9b30c846f6,right,-1,0.75,0.5,0,-0.018634989,0.9692,2,0,2,0,1,,,,,,,,,,
,,670365,001,2023-07-31_14h42.36.493,arm3_eps,2022.2.5,Win32,59.89817311,60b7e28349c6c6d290dc8075,64c7fed44a04f777bb1e18ce,64c80086bd578f9b30c846f6,right,-1,0.75,0.5,0,-0.012347925,0.1902,3,0,3,0,1,,,,,,,,,,
,,670365,001,2023-07-31_14h42.36.493,arm3_eps,2022.2.5,Win32,59.89817311,60b7e28349c6c6d290dc8075,64c7fed44a04f777bb1e18ce,64c80086bd578f9b30c846f6,right,-1,0.75,0.5,0,-0.016701274,0.1676,4,0,4,0,1,,,,,,,,,,
,,670365,001,2023-07-31_14h42.36.493,arm3_eps,2022.2.5,Win32,59.89817311,60b7e28349c6c6d290dc8075,64c7fed44a04f777bb1e18ce,64c80086bd578f9b30c846f6,right,-1,0.75,0.5,0,-0.029531255,0.341,5,0,5,0,1,,,,,,,,,,
,,670365,001,2023-07-31_14h42.36.493,arm3_eps,2022.2.5,Win32,59.89817311,60b7e28349c6c6d290dc8075,64c7fed44a04f777bb1e18ce,64c80086bd578f9b30c846f6,down,1,0.75,0.5,0,0,0.4889,6,0,6,0,1,,,,,,,,,,
,,670365,001,2023-07-31_14h42.36.493,arm3_eps,2022.2.5,Win32,59.89817311,60b7e28349c6c6d290dc8075,64c7fed44a04f777bb1e18ce,64c80086bd578f9b30c846f6,right,1,0.75,0.5,0,0.031846421,0.8449,7,0,7,0,1,,,,,,,,,,
,,670365,001,2023-07-31_14h42.36.493,arm3_eps,2022.2.5,Win32,59.89817311,60b7e28349c6c6d290dc8075,64c7fed44a04f777bb1e18ce,64c80086bd578f9b30c846f6,right,1,0.75,0.5,0,0.026120758,0.1841,8,0,8,0,1,,,,,,,,,,
,,670365,001,2023-07-31_14h42.36.493,arm3_eps,2022.2.5,Win32,59.89817311,60b7e28349c6c6d290dc8075,64c7fed44a04f777bb1e18ce,64c80086bd578f9b30c846f6,right,1,0.75,0.5,0,0.026789571,0.1513,9,0,9,0,1,,,,,,,,,,
,,670365,001,2023-07-31_14h42.36.493,arm3_eps,2022.2.5,Win32,59.89817311,60b7e28349c6c6d290dc8075,64c7fed44a04f777bb1e18ce,64c80086bd578f9b30c846f6,right,1,0.75,0.5,0,0.032697096,0.1339,10,0,10,0,1,,,,,,,,,,
,,670365,001,2023-07-31_14h42.36.493,arm3_eps,2022.2.5,Win32,59.89817311,60b7e28349c6c6d290dc8075,64c7fed44a04f777bb1e18ce,64c80086bd578f9b30c846f6,up,-1,0.75,0.5,1,0,0.3446,11,0,11,0,1,,,,,,,,,,
,,670365,001,2023-07-31_14h42.36.493,arm3_eps,2022.2.5,Win32,59.89817311,60b7e28349c6c6d290dc8075,64c7fed44a04f777bb1e18ce,64c80086bd578f9b30c846f6,right,-1,0.75,0.5,1,-0.010659933,0.8334,12,0,12,0,1,,,,,,,,,,
,,670365,001,2023-07-31_14h42.36.493,arm3_eps,2022.2.5,Win32,59.89817311,60b7e28349c6c6d290dc8075,64c7fed44a04f777bb1e18ce,64c80086bd578f9b30c846f6,right,-1,0.75,0.5,1,-0.000272874,0.1779,13,0,13,0,1,,,,,,,,,,
,,670365,001,2023-07-31_14h42.36.493,arm3_eps,2022.2.5,Win32,59.89817311,60b7e28349c6c6d290dc8075,64c7fed44a04f777bb1e18ce,64c80086bd578f9b30c846f6,right,-1,0.75,0.5,1,0.011858162,0.1647,14,0,14,0,1,,,,,,,,,,
,,670365,001,2023-07-31_14h42.36.493,arm3_eps,2022.2.5,Win32,59.89817311,60b7e28349c6c6d290dc8075,64c7fed44a04f777bb1e18ce,64c80086bd578f9b30c846f6,right,-1,0.75,0.5,1,0.003270771,0.1582,15,0,15,0,1,,,,,,,,,,
,,670365,001,2023-07-31_14h42.36.493,arm3_eps,2022.2.5,Win32,59.89817311,60b7e28349c6c6d290dc8075,64c7fed44a04f777bb1e18ce,64c80086bd578f9b30c846f6,right,-1,0.75,0.5,1,-0.010492281,0.1674,16,0,16,0,1,,,,,,,,,,
,,670365,001,2023-07-31_14h42.36.493,arm3_eps,2022.2.5,Win32,59.89817311,60b7e28349c6c6d290dc8075,64c7fed44a04f777bb1e18ce,64c80086bd578f9b30c846f6,down,-1,0.75,0.5,2,0,0.4584,17,0,17,0,1,,,,,,,,,,
,,670365,001,2023-07-31_14h42.36.493,arm3_eps,2022.2.5,Win32,59.89817311,60b7e28349c6c6d290dc8075,64c7fed44a04f777bb1e18ce,64c80086bd578f9b30c846f6,right,-1,0.75,0.5,2,-0.043021444,0.7793,18,0,18,0,1,,,,,,,,,,
,,670365,001,2023-07-31_14h42.36.493,arm3_eps,2022.2.5,Win32,59.89817311,60b7e28349c6c6d290dc8075,64c7fed44a04f777bb1e18ce,64c80086bd578f9b30c846f6,right,-1,0.75,0.5,2,-0.064612642,0.1576,19,0,19,0,1,,,,,,,,,,
,,670365,001,2023-07-31_14h42.36.493,arm3_eps,2022.2.5,Win32,59.89817311,60b7e28349c6c6d290dc8075,64c7fed44a04f777bb1e18ce,64c80086bd578f9b30c846f6,right,-1,0.75,0.5,2,-0.081658021,0.1837,20,0,20,0,1,,,,,,,,,,
,,670365,001,2023-07-31_14h42.36.493,arm3_eps,2022.2.5,Win32,59.89817311,60b7e28349c6c6d290dc8075,64c7fed44a04f777bb1e18ce,64c80086bd578f9b30c846f6,down,-1,0.75,0.5,3,0,0.3779,21,0,21,0,1,,,,,,,,,,
,,670365,001,2023-07-31_14h42.36.493,arm3_eps,2022.2.5,Win32,59.89817311,60b7e28349c6c6d290dc8075,64c7fed44a04f777bb1e18ce,64c80086bd578f9b30c846f6,right,-1,0.75,0.5,3,-0.03773009,0.6306,22,0,22,0,1,,,,,,,,,,
,,670365,001,2023-07-31_14h42.36.493,arm3_eps,2022.2.5,Win32,59.89817311,60b7e28349c6c6d290dc8075,64c7fed44a04f777bb1e18ce,64c80086bd578f9b30c846f6,right,-1,0.75,0.5,3,-0.066906155,0.2011,23,0,23,0,1,,,,,,,,,,
,,670365,001,2023-07-31_14h42.36.493,arm3_eps,2022.2.5,Win32,59.89817311,60b7e28349c6c6d290dc8075,64c7fed44a04f777bb1e18ce,64c80086bd578f9b30c846f6,right,-1,0.75,0.5,3,-0.082898099,0.1517,24,0,24,0,1,,,,,,,,,,
,,670365,001,2023-07-31_14h42.36.493,arm3_eps,2022.2.5,Win32,59.89817311,60b7e28349c6c6d290dc8075,64c7fed44a04f777bb1e18ce,64c80086bd578f9b30c846f6,right,-1,0.75,0.5,3,-0.091850667,0.1172,25,0,25,0,1,,,,,,,,,,
,,670365,001,2023-07-31_14h42.36.493,arm3_eps,2022.2.5,Win32,59.89817311,60b7e28349c6c6d290dc8075,64c7fed44a04f777bb1e18ce,64c80086bd578f9b30c846f6,right,-1,0.75,0.5,3,-0.077483175,0.151,26,0,26,0,1,,,,,,,,,,
,,670365,001,2023-07-31_14h42.36.493,arm3_eps,2022.2.5,Win32,59.89817311,60b7e28349c6c6d290dc8075,64c7fed44a04f777bb1e18ce,64c80086bd578f9b30c846f6,right,-1,0.75,0.5,3,-0.081459272,0.3384,27,0,27,0,1,,,,,,,,,,
,,670365,001,2023-07-31_14h42.36.493,arm3_eps,2022.2.5,Win32,59.89817311,60b7e28349c6c6d290dc8075,64c7fed44a04f777bb1e18ce,64c80086bd578f9b30c846f6,down,1,0.75,0.5,3,0,0.4076,28,0,28,0,1,,,,,,,,,,
,,670365,001,2023-07-31_14h42.36.493,arm3_eps,2022.2.5,Win32,59.89817311,60b7e28349c6c6d290dc8075,64c7fed44a04f777bb1e18ce,64c80086bd578f9b30c846f6,right,1,0.75,0.5,3,-0.012801754,0.9234,29,0,29,0,1,,,,,,,,,,
,,670365,001,2023-07-31_14h42.36.493,arm3_eps,2022.2.5,Win32,59.89817311,60b7e28349c6c6d290dc8075,64c7fed44a04f777bb1e18ce,64c80086bd578f9b30c846f6,right,1,0.75,0.5,3,-0.006936709,0.1671,30,0,30,0,1,,,,,,,,,,
,,670365,001,2023-07-31_14h42.36.493,arm3_eps,2022.2.5,Win32,59.89817311,60b7e28349c6c6d290dc8075,64c7fed44a04f777bb1e18ce,64c80086bd578f9b30c846f6,right,1,0.75,0.5,3,0.02039572,0.1505,31,0,31,0,1,,,,,,,,,,
,,670365,001,2023-07-31_14h42.36.493,arm3_eps,2022.2.5,Win32,59.89817311,60b7e28349c6c6d290dc8075,64c7fed44a04f777bb1e18ce,64c80086bd578f9b30c846f6,right,1,0.75,0.5,3,0.00401577,0.1436,32,0,32,0,1,,,,,,,,,,
,,670365,001,2023-07-31_14h42.36.493,arm3_eps,2022.2.5,Win32,59.89817311,60b7e28349c6c6d290dc8075,64c7fed44a04f777bb1e18ce,64c80086bd578f9b30c846f6,right,1,0.75,0.5,3,-0.007088599,0.1421,33,0,33,0,1,,,,,,,,,,
,,670365,001,2023-07-31_14h42.36.493,arm3_eps,2022.2.5,Win32,59.89817311,60b7e28349c6c6d290dc8075,64c7fed44a04f777bb1e18ce,64c80086bd578f9b30c846f6,right,1,0.75,0.5,3,0.004792837,0.1507,34,0,34,0,1,,,,,,,,,,
,,670365,001,2023-07-31_14h42.36.493,arm3_eps,2022.2.5,Win32,59.89817311,60b7e28349c6c6d290dc8075,64c7fed44a04f777bb1e18ce,64c80086bd578f9b30c846f6,up,1,0.75,0.5,4,0,0.5347,35,0,35,0,1,,,,,,,,,,
,,670365,001,2023-07-31_14h42.36.493,arm3_eps,2022.2.5,Win32,59.89817311,60b7e28349c6c6d290dc8075,64c7fed44a04f777bb1e18ce,64c80086bd578f9b30c846f6,right,1,0.75,0.5,4,-0.000957941,0.7274,36,0,36,0,1,,,,,,,,,,
,,670365,001,2023-07-31_14h42.36.493,arm3_eps,2022.2.5,Win32,59.89817311,60b7e28349c6c6d290dc8075,64c7fed44a04f777bb1e18ce,64c80086bd578f9b30c846f6,right,1,0.75,0.5,4,-0.006721141,0.1651,37,0,37,0,1,,,,,,,,,,
,,670365,001,2023-07-31_14h42.36.493,arm3_eps,2022.2.5,Win32,59.89817311,60b7e28349c6c6d290dc8075,64c7fed44a04f777bb1e18ce,64c80086bd578f9b30c846f6,right,1,0.75,0.5,4,-0.024267227,0.1509,38,0,38,0,1,,,,,,,,,,
,,670365,001,2023-07-31_14h42.36.493,arm3_eps,2022.2.5,Win32,59.89817311,60b7e28349c6c6d290dc8075,64c7fed44a04f777bb1e18ce,64c80086bd578f9b30c846f6,right,1,0.75,0.5,4,-0.01354693,0.134,39,0,39,0,1,,,,,,,,,,
,,670365,001,2023-07-31_14h42.36.493,arm3_eps,2022.2.5,Win32,59.89817311,60b7e28349c6c6d290dc8075,64c7fed44a04f777bb1e18ce,64c80086bd578f9b30c846f6,right,1,0.75,0.5,4,0.016019156,0.1347,40,0,40,0,1,,,,,,,,,,
,,670365,001,2023-07-31_14h42.36.493,arm3_eps,2022.2.5,Win32,59.89817311,60b7e28349c6c6d290dc8075,64c7fed44a04f777bb1e18ce,64c80086bd578f9b30c846f6,up,-1,0.75,0.5,5,0,0.6654,41,0,41,0,1,,,,,,,,,,
,,670365,001,2023-07-31_14h42.36.493,arm3_eps,2022.2.5,Win32,59.89817311,60b7e28349c6c6d290dc8075,64c7fed44a04f777bb1e18ce,64c80086bd578f9b30c846f6,right,-1,0.75,0.5,5,-0.012862387,0.793,42,0,42,0,1,,,,,,,,,,
,,670365,001,2023-07-31_14h42.36.493,arm3_eps,2022.2.5,Win32,59.89817311,60b7e28349c6c6d290dc8075,64c7fed44a04f777bb1e18ce,64c80086bd578f9b30c846f6,right,-1,0.75,0.5,5,-0.028880264,0.2139,43,0,43,0,1,,,,,,,,,,
,,670365,001,2023-07-31_14h42.36.493,arm3_eps,2022.2.5,Win32,59.89817311,60b7e28349c6c6d290dc8075,64c7fed44a04f777bb1e18ce,64c80086bd578f9b30c846f6,down,1,0.75,0.5,6,0,0.797,44,0,44,0,1,,,,,,,,,,
,,670365,001,2023-07-31_14h42.36.493,arm3_eps,2022.2.5,Win32,59.89817311,60b7e28349c6c6d290dc8075,64c7fed44a04f777bb1e18ce,64c80086bd578f9b30c846f6,right,1,0.75,0.5,6,-0.033348212,0.7834,45,0,45,0,1,,,,,,,,,,
,,670365,001,2023-07-31_14h42.36.493,arm3_eps,2022.2.5,Win32,59.89817311,60b7e28349c6c6d290dc8075,64c7fed44a04f777bb1e18ce,64c80086bd578f9b30c846f6,right,1,0.75,0.5,6,-0.003987713,0.175,46,0,46,0,1,,,,,,,,,,
,,670365,001,2023-07-31_14h42.36.493,arm3_eps,2022.2.5,Win32,59.89817311,60b7e28349c6c6d290dc8075,64c7fed44a04f777bb1e18ce,64c80086bd578f9b30c846f6,right,1,0.75,0.5,6,0.003849858,0.1611,47,0,47,0,1,,,,,,,,,,
,,670365,001,2023-07-31_14h42.36.493,arm3_eps,2022.2.5,Win32,59.89817311,60b7e28349c6c6d290dc8075,64c7fed44a04f777bb1e18ce,64c80086bd578f9b30c846f6,up,1,0.75,0.5,7,0,0.5092,48,0,48,0,1,,,,,,,,,,
,,670365,001,2023-07-31_14h42.36.493,arm3_eps,2022.2.5,Win32,59.89817311,60b7e28349c6c6d290dc8075,64c7fed44a04f777bb1e18ce,64c80086bd578f9b30c846f6,right,1,0.75,0.5,7,0.012935537,0.8346,49,0,49,0,1,,,,,,,,,,
space,1.3165,670365,001,2023-07-31_14h42.36.493,arm3_eps,2022.2.5,Win32,59.89817311,60b7e28349c6c6d290dc8075,64c7fed44a04f777bb1e18ce,64c80086bd578f9b30c846f6,,,,,,,,,,,,,,,,,,,,,,
space,3.1276,670365,001,2023-07-31_14h42.36.493,arm3_eps,2022.2.5,Win32,59.89817311,60b7e28349c6c6d290dc8075,64c7fed44a04f777bb1e18ce,64c80086bd578f9b30c846f6,up,1,0.75,0.2429,1,0,0.7913,,,,,,0,0,0,0,1,,,,,
,,670365,001,2023-07-31_14h42.36.493,arm3_eps,2022.2.5,Win32,59.89817311,60b7e28349c6c6d290dc8075,64c7fed44a04f777bb1e18ce,64c80086bd578f9b30c846f6,right,1,0.75,0.2429,1,-0.018943017,0.9103,,,,,,1,0,1,0,1,,,,,
,,670365,001,2023-07-31_14h42.36.493,arm3_eps,2022.2.5,Win32,59.89817311,60b7e28349c6c6d290dc8075,64c7fed44a04f777bb1e18ce,64c80086bd578f9b30c846f6,right,1,0.75,0.2429,1,-0.003832762,0.3511,,,,,,2,0,2,0,1,,,,,
,,670365,001,2023-07-31_14h42.36.493,arm3_eps,2022.2.5,Win32,59.89817311,60b7e28349c6c6d290dc8075,64c7fed44a04f777bb1e18ce,64c80086bd578f9b30c846f6,right,1,0.75,0.2429,1,-0.019502431,0.3011,,,,,,3,0,3,0,1,,,,,
,,670365,001,2023-07-31_14h42.36.493,arm3_eps,2022.2.5,Win32,59.89817311,60b7e28349c6c6d290dc8075,64c7fed44a04f777bb1e18ce,64c80086bd578f9b30c846f6,right,1,0.75,0.2429,1,0.001721243,0.1844,,,,,,4,0,4,0,1,,,,,
,,670365,001,2023-07-31_14h42.36.493,arm3_eps,2022.2.5,Win32,59.89817311,60b7e28349c6c6d290dc8075,64c7fed44a04f777bb1e18ce,64c80086bd578f9b30c846f6,up,1,0.75,0.2429,2,0,0.768,,,,,,5,0,5,0,1,,,,,
,,670365,001,2023-07-31_14h42.36.493,arm3_eps,2022.2.5,Win32,59.89817311,60b7e28349c6c6d290dc8075,64c7fed44a04f777bb1e18ce,64c80086bd578f9b30c846f6,right,1,0.75,0.2429,2,-0.001926069,0.8098,,,,,,6,0,6,0,1,,,,,
,,670365,001,2023-07-31_14h42.36.493,arm3_eps,2022.2.5,Win32,59.89817311,60b7e28349c6c6d290dc8075,64c7fed44a04f777bb1e18ce,64c80086bd578f9b30c846f6,right,1,0.75,0.2429,2,-0.037946842,0.3086,,,,,,7,0,7,0,1,,,,,
,,670365,001,2023-07-31_14h42.36.493,arm3_eps,2022.2.5,Win32,59.89817311,60b7e28349c6c6d290dc8075,64c7fed44a04f777bb1e18ce,64c80086bd578f9b30c846f6,right,1,0.75,0.2429,2,-0.013068319,0.2599,,,,,,8,0,8,0,1,,,,,
,,670365,001,2023-07-31_14h42.36.493,arm3_eps,2022.2.5,Win32,59.89817311,60b7e28349c6c6d290dc8075,64c7fed44a04f777bb1e18ce,64c80086bd578f9b30c846f6,right,1,0.75,0.2429,2,0.011710035,0.1961,,,,,,9,0,9,0,1,,,,,
,,670365,001,2023-07-31_14h42.36.493,arm3_eps,2022.2.5,Win32,59.89817311,60b7e28349c6c6d290dc8075,64c7fed44a04f777bb1e18ce,64c80086bd578f9b30c846f6,up,1,0.75,0.2429,3,0,0.6109,,,,,,10,0,10,0,1,,,,,
,,670365,001,2023-07-31_14h42.36.493,arm3_eps,2022.2.5,Win32,59.89817311,60b7e28349c6c6d290dc8075,64c7fed44a04f777bb1e18ce,64c80086bd578f9b30c846f6,right,1,0.75,0.2429,3,0.028293395,0.734,,,,,,11,0,11,0,1,,,,,
,,670365,001,2023-07-31_14h42.36.493,arm3_eps,2022.2.5,Win32,59.89817311,60b7e28349c6c6d290dc8075,64c7fed44a04f777bb1e18ce,64c80086bd578f9b30c846f6,right,1,0.75,0.2429,3,0.059201677,0.3631,,,,,,12,0,12,0,1,,,,,
,,670365,001,2023-07-31_14h42.36.493,arm3_eps,2022.2.5,Win32,59.89817311,60b7e28349c6c6d290dc8075,64c7fed44a04f777bb1e18ce,64c80086bd578f9b30c846f6,right,1,0.75,0.2429,3,0.073584528,0.1759,,,,,,13,0,13,0,1,,,,,
,,670365,001,2023-07-31_14h42.36.493,arm3_eps,2022.2.5,Win32,59.89817311,60b7e28349c6c6d290dc8075,64c7fed44a04f777bb1e18ce,64c80086bd578f9b30c846f6,right,1,0.75,0.2429,3,0.072596844,0.1659,,,,,,14,0,14,0,1,,,,,
,,670365,001,2023-07-31_14h42.36.493,arm3_eps,2022.2.5,Win32,59.89817311,60b7e28349c6c6d290dc8075,64c7fed44a04f777bb1e18ce,64c80086bd578f9b30c846f6,right,1,0.75,0.2429,3,0.087945306,0.3073,,,,,,15,0,15,0,1,,,,,
,,670365,001,2023-07-31_14h42.36.493,arm3_eps,2022.2.5,Win32,59.89817311,60b7e28349c6c6d290dc8075,64c7fed44a04f777bb1e18ce,64c80086bd578f9b30c846f6,up,1,0.75,0.2429,4,0,0.4384,,,,,,16,0,16,0,1,,,,,
,,670365,001,2023-07-31_14h42.36.493,arm3_eps,2022.2.5,Win32,59.89817311,60b7e28349c6c6d290dc8075,64c7fed44a04f777bb1e18ce,64c80086bd578f9b30c846f6,right,1,0.75,0.2429,4,0.011711077,1.1542,,,,,,17,0,17,0,1,,,,,
,,670365,001,2023-07-31_14h42.36.493,arm3_eps,2022.2.5,Win32,59.89817311,60b7e28349c6c6d290dc8075,64c7fed44a04f777bb1e18ce,64c80086bd578f9b30c846f6,right,1,0.75,0.2429,4,0.029260146,0.2459,,,,,,18,0,18,0,1,,,,,
,,670365,001,2023-07-31_14h42.36.493,arm3_eps,2022.2.5,Win32,59.89817311,60b7e28349c6c6d290dc8075,64c7fed44a04f777bb1e18ce,64c80086bd578f9b30c846f6,right,1,0.75,0.2429,4,0.058799942,0.1758,,,,,,19,0,19,0,1,,,,,
,,670365,001,2023-07-31_14h42.36.493,arm3_eps,2022.2.5,Win32,59.89817311,60b7e28349c6c6d290dc8075,64c7fed44a04f777bb1e18ce,64c80086bd578f9b30c846f6,right,1,0.75,0.2429,4,0.101328352,0.1927,,,,,,20,0,20,0,1,,,,,
,,670365,001,2023-07-31_14h42.36.493,arm3_eps,2022.2.5,Win32,59.89817311,60b7e28349c6c6d290dc8075,64c7fed44a04f777bb1e18ce,64c80086bd578f9b30c846f6,right,1,0.75,0.2429,4,0.096532401,0.2257,,,,,,21,0,21,0,1,,,,,
,,670365,001,2023-07-31_14h42.36.493,arm3_eps,2022.2.5,Win32,59.89817311,60b7e28349c6c6d290dc8075,64c7fed44a04f777bb1e18ce,64c80086bd578f9b30c846f6,right,1,0.75,0.2429,4,0.132103752,0.346,,,,,,22,0,22,0,1,,,,,
,,670365,001,2023-07-31_14h42.36.493,arm3_eps,2022.2.5,Win32,59.89817311,60b7e28349c6c6d290dc8075,64c7fed44a04f777bb1e18ce,64c80086bd578f9b30c846f6,up,1,0.75,0.2429,5,0,0.3473,,,,,,23,0,23,0,1,,,,,
,,670365,001,2023-07-31_14h42.36.493,arm3_eps,2022.2.5,Win32,59.89817311,60b7e28349c6c6d290dc8075,64c7fed44a04f777bb1e18ce,64c80086bd578f9b30c846f6,right,1,0.75,0.2429,5,0.031215295,0.8305,,,,,,24,0,24,0,1,,,,,
,,670365,001,2023-07-31_14h42.36.493,arm3_eps,2022.2.5,Win32,59.89817311,60b7e28349c6c6d290dc8075,64c7fed44a04f777bb1e18ce,64c80086bd578f9b30c846f6,right,1,0.75,0.2429,5,0.055437909,0.2246,,,,,,25,0,25,0,1,,,,,
,,670365,001,2023-07-31_14h42.36.493,arm3_eps,2022.2.5,Win32,59.89817311,60b7e28349c6c6d290dc8075,64c7fed44a04f777bb1e18ce,64c80086bd578f9b30c846f6,right,1,0.75,0.2429,5,0.073358744,0.1673,,,,,,26,0,26,0,1,,,,,
,,670365,001,2023-07-31_14h42.36.493,arm3_eps,2022.2.5,Win32,59.89817311,60b7e28349c6c6d290dc8075,64c7fed44a04f777bb1e18ce,64c80086bd578f9b30c846f6,up,1,0.75,0.2429,6,0,0.6822,,,,,,27,0,27,0,1,,,,,
,,670365,001,2023-07-31_14h42.36.493,arm3_eps,2022.2.5,Win32,59.89817311,60b7e28349c6c6d290dc8075,64c7fed44a04f777bb1e18ce,64c80086bd578f9b30c846f6,right,1,0.75,0.2429,6,0.011405239,0.846,,,,,,28,0,28,0,1,,,,,
,,670365,001,2023-07-31_14h42.36.493,arm3_eps,2022.2.5,Win32,59.89817311,60b7e28349c6c6d290dc8075,64c7fed44a04f777bb1e18ce,64c80086bd578f9b30c846f6,right,1,0.75,0.2429,6,0.03853386,0.2012,,,,,,29,0,29,0,1,,,,,
,,670365,001,2023-07-31_14h42.36.493,arm3_eps,2022.2.5,Win32,59.89817311,60b7e28349c6c6d290dc8075,64c7fed44a04f777bb1e18ce,64c80086bd578f9b30c846f6,right,1,0.75,0.2429,6,0.047738658,0.1509,,,,,,30,0,30,0,1,,,,,
,,670365,001,2023-07-31_14h42.36.493,arm3_eps,2022.2.5,Win32,59.89817311,60b7e28349c6c6d290dc8075,64c7fed44a04f777bb1e18ce,64c80086bd578f9b30c846f6,right,1,0.75,0.2429,6,0.042973206,0.3441,,,,,,31,0,31,0,1,,,,,
,,670365,001,2023-07-31_14h42.36.493,arm3_eps,2022.2.5,Win32,59.89817311,60b7e28349c6c6d290dc8075,64c7fed44a04f777bb1e18ce,64c80086bd578f9b30c846f6,up,1,0.75,0.2429,7,0,0.4277,,,,,,32,0,32,0,1,,,,,
,,670365,001,2023-07-31_14h42.36.493,arm3_eps,2022.2.5,Win32,59.89817311,60b7e28349c6c6d290dc8075,64c7fed44a04f777bb1e18ce,64c80086bd578f9b30c846f6,right,1,0.75,0.2429,7,0.02229203,1.0979,,,,,,33,0,33,0,1,,,,,
,,670365,001,2023-07-31_14h42.36.493,arm3_eps,2022.2.5,Win32,59.89817311,60b7e28349c6c6d290dc8075,64c7fed44a04f777bb1e18ce,64c80086bd578f9b30c846f6,right,1,0.75,0.2429,7,0.020485514,0.2345,,,,,,34,0,34,0,1,,,,,
,,670365,001,2023-07-31_14h42.36.493,arm3_eps,2022.2.5,Win32,59.89817311,60b7e28349c6c6d290dc8075,64c7fed44a04f777bb1e18ce,64c80086bd578f9b30c846f6,right,1,0.75,0.2429,7,0.020292642,0.1917,,,,,,35,0,35,0,1,,,,,
,,670365,001,2023-07-31_14h42.36.493,arm3_eps,2022.2.5,Win32,59.89817311,60b7e28349c6c6d290dc8075,64c7fed44a04f777bb1e18ce,64c80086bd578f9b30c846f6,up,1,0.75,0.2429,7,0,0.6173,,,,,,36,0,36,0,1,,,,,
,,670365,001,2023-07-31_14h42.36.493,arm3_eps,2022.2.5,Win32,59.89817311,60b7e28349c6c6d290dc8075,64c7fed44a04f777bb1e18ce,64c80086bd578f9b30c846f6,right,1,0.75,0.2429,7,0.01847302,0.9406,,,,,,37,0,37,0,1,,,,,
,,670365,001,2023-07-31_14h42.36.493,arm3_eps,2022.2.5,Win32,59.89817311,60b7e28349c6c6d290dc8075,64c7fed44a04f777bb1e18ce,64c80086bd578f9b30c846f6,right,1,0.75,0.2429,7,0.042076143,0.1776,,,,,,38,0,38,0,1,,,,,
,,670365,001,2023-07-31_14h42.36.493,arm3_eps,2022.2.5,Win32,59.89817311,60b7e28349c6c6d290dc8075,64c7fed44a04f777bb1e18ce,64c80086bd578f9b30c846f6,right,1,0.75,0.2429,7,0.028636367,0.1774,,,,,,39,0,39,0,1,,,,,
,,670365,001,2023-07-31_14h42.36.493,arm3_eps,2022.2.5,Win32,59.89817311,60b7e28349c6c6d290dc8075,64c7fed44a04f777bb1e18ce,64c80086bd578f9b30c846f6,right,1,0.75,0.2429,7,0.033307258,0.2781,,,,,,40,0,40,0,1,,,,,
,,670365,001,2023-07-31_14h42.36.493,arm3_eps,2022.2.5,Win32,59.89817311,60b7e28349c6c6d290dc8075,64c7fed44a04f777bb1e18ce,64c80086bd578f9b30c846f6,up,1,0.75,0.2429,8,0,0.4283,,,,,,41,0,41,0,1,,,,,
,,670365,001,2023-07-31_14h42.36.493,arm3_eps,2022.2.5,Win32,59.89817311,60b7e28349c6c6d290dc8075,64c7fed44a04f777bb1e18ce,64c80086bd578f9b30c846f6,right,1,0.75,0.2429,8,0.005765183,0.9825,,,,,,42,0,42,0,1,,,,,
,,670365,001,2023-07-31_14h42.36.493,arm3_eps,2022.2.5,Win32,59.89817311,60b7e28349c6c6d290dc8075,64c7fed44a04f777bb1e18ce,64c80086bd578f9b30c846f6,right,1,0.75,0.2429,8,0.037018924,0.1832,,,,,,43,0,43,0,1,,,,,
,,670365,001,2023-07-31_14h42.36.493,arm3_eps,2022.2.5,Win32,59.89817311,60b7e28349c6c6d290dc8075,64c7fed44a04f777bb1e18ce,64c80086bd578f9b30c846f6,right,1,0.75,0.2429,8,0.04287807,0.1845,,,,,,44,0,44,0,1,,,,,
,,670365,001,2023-07-31_14h42.36.493,arm3_eps,2022.2.5,Win32,59.89817311,60b7e28349c6c6d290dc8075,64c7fed44a04f777bb1e18ce,64c80086bd578f9b30c846f6,right,1,0.75,0.2429,8,0.054927328,0.2009,,,,,,45,0,45,0,1,,,,,
,,670365,001,2023-07-31_14h42.36.493,arm3_eps,2022.2.5,Win32,59.89817311,60b7e28349c6c6d290dc8075,64c7fed44a04f777bb1e18ce,64c80086bd578f9b30c846f6,right,1,0.75,0.2429,8,0.071780748,0.1848,,,,,,46,0,46,0,1,,,,,
,,670365,001,2023-07-31_14h42.36.493,arm3_eps,2022.2.5,Win32,59.89817311,60b7e28349c6c6d290dc8075,64c7fed44a04f777bb1e18ce,64c80086bd578f9b30c846f6,up,1,0.75,0.2429,9,0,0.5845,,,,,,47,0,47,0,1,,,,,
,,670365,001,2023-07-31_14h42.36.493,arm3_eps,2022.2.5,Win32,59.89817311,60b7e28349c6c6d290dc8075,64c7fed44a04f777bb1e18ce,64c80086bd578f9b30c846f6,right,1,0.75,0.2429,9,-0.002184937,0.8239,,,,,,48,0,48,0,1,,,,,
,,670365,001,2023-07-31_14h42.36.493,arm3_eps,2022.2.5,Win32,59.89817311,60b7e28349c6c6d290dc8075,64c7fed44a04f777bb1e18ce,64c80086bd578f9b30c846f6,right,1,0.75,0.2429,9,-0.005460223,0.1944,,,,,,49,0,49,0,1,,,,,
,,670365,001,2023-07-31_14h42.36.493,arm3_eps,2022.2.5,Win32,59.89817311,60b7e28349c6c6d290dc8075,64c7fed44a04f777bb1e18ce,64c80086bd578f9b30c846f6,right,1,0.75,0.2429,9,-0.00598956,0.2924,,,,,,50,0,50,0,1,,,,,
,,670365,001,2023-07-31_14h42.36.493,arm3_eps,2022.2.5,Win32,59.89817311,60b7e28349c6c6d290dc8075,64c7fed44a04f777bb1e18ce,64c80086bd578f9b30c846f6,right,1,0.75,0.2429,9,0.034678083,0.4109,,,,,,51,0,51,0,1,,,,,
,,670365,001,2023-07-31_14h42.36.493,arm3_eps,2022.2.5,Win32,59.89817311,60b7e28349c6c6d290dc8075,64c7fed44a04f777bb1e18ce,64c80086bd578f9b30c846f6,right,1,0.75,0.2429,9,0.046479107,0.2977,,,,,,52,0,52,0,1,,,,,
,,670365,001,2023-07-31_14h42.36.493,arm3_eps,2022.2.5,Win32,59.89817311,60b7e28349c6c6d290dc8075,64c7fed44a04f777bb1e18ce,64c80086bd578f9b30c846f6,right,1,0.75,0.2429,9,0.08817132,0.2957,,,,,,53,0,53,0,1,,,,,
,,670365,001,2023-07-31_14h42.36.493,arm3_eps,2022.2.5,Win32,59.89817311,60b7e28349c6c6d290dc8075,64c7fed44a04f777bb1e18ce,64c80086bd578f9b30c846f6,up,1,0.75,0.2429,10,0,0.4605,,,,,,54,0,54,0,1,,,,,
,,670365,001,2023-07-31_14h42.36.493,arm3_eps,2022.2.5,Win32,59.89817311,60b7e28349c6c6d290dc8075,64c7fed44a04f777bb1e18ce,64c80086bd578f9b30c846f6,right,1,0.75,0.2429,10,0.02466322,0.7972,,,,,,55,0,55,0,1,,,,,
,,670365,001,2023-07-31_14h42.36.493,arm3_eps,2022.2.5,Win32,59.89817311,60b7e28349c6c6d290dc8075,64c7fed44a04f777bb1e18ce,64c80086bd578f9b30c846f6,right,1,0.75,0.2429,10,-0.009475738,0.1584,,,,,,56,0,56,0,1,,,,,
,,670365,001,2023-07-31_14h42.36.493,arm3_eps,2022.2.5,Win32,59.89817311,60b7e28349c6c6d290dc8075,64c7fed44a04f777bb1e18ce,64c80086bd578f9b30c846f6,right,1,0.75,0.2429,10,0.013577693,0.3007,,,,,,57,0,57,0,1,,,,,
,,670365,001,2023-07-31_14h42.36.493,arm3_eps,2022.2.5,Win32,59.89817311,60b7e28349c6c6d290dc8075,64c7fed44a04f777bb1e18ce,64c80086bd578f9b30c846f6,right,1,0.75,0.2429,10,0.003156891,0.351,,,,,,58,0,58,0,1,,,,,
,,670365,001,2023-07-31_14h42.36.493,arm3_eps,2022.2.5,Win32,59.89817311,60b7e28349c6c6d290dc8075,64c7fed44a04f777bb1e18ce,64c80086bd578f9b30c846f6,down,-1,0.75,0.2429,9,0,0.6509,,,,,,59,0,59,0,1,,,,,
,,670365,001,2023-07-31_14h42.36.493,arm3_eps,2022.2.5,Win32,59.89817311,60b7e28349c6c6d290dc8075,64c7fed44a04f777bb1e18ce,64c80086bd578f9b30c846f6,right,-1,0.75,0.2429,9,-0.010595823,0.9287,,,,,,60,0,60,0,1,,,,,
,,670365,001,2023-07-31_14h42.36.493,arm3_eps,2022.2.5,Win32,59.89817311,60b7e28349c6c6d290dc8075,64c7fed44a04f777bb1e18ce,64c80086bd578f9b30c846f6,right,-1,0.75,0.2429,9,-0.033627651,0.1931,,,,,,61,0,61,0,1,,,,,
,,670365,001,2023-07-31_14h42.36.493,arm3_eps,2022.2.5,Win32,59.89817311,60b7e28349c6c6d290dc8075,64c7fed44a04f777bb1e18ce,64c80086bd578f9b30c846f6,right,-1,0.75,0.2429,9,-0.03313927,0.1595,,,,,,62,0,62,0,1,,,,,
,,670365,001,2023-07-31_14h42.36.493,arm3_eps,2022.2.5,Win32,59.89817311,60b7e28349c6c6d290dc8075,64c7fed44a04f777bb1e18ce,64c80086bd578f9b30c846f6,right,-1,0.75,0.2429,9,-0.041895378,0.1934,,,,,,63,0,63,0,1,,,,,
,,670365,001,2023-07-31_14h42.36.493,arm3_eps,2022.2.5,Win32,59.89817311,60b7e28349c6c6d290dc8075,64c7fed44a04f777bb1e18ce,64c80086bd578f9b30c846f6,down,1,0.75,0.2429,10,0,1.0988,,,,,,64,0,64,0,1,,,,,
,,670365,001,2023-07-31_14h42.36.493,arm3_eps,2022.2.5,Win32,59.89817311,60b7e28349c6c6d290dc8075,64c7fed44a04f777bb1e18ce,64c80086bd578f9b30c846f6,right,1,0.75,0.2429,10,0.010484943,0.9,,,,,,65,0,65,0,1,,,,,
,,670365,001,2023-07-31_14h42.36.493,arm3_eps,2022.2.5,Win32,59.89817311,60b7e28349c6c6d290dc8075,64c7fed44a04f777bb1e18ce,64c80086bd578f9b30c846f6,right,1,0.75,0.2429,10,0.008314356,0.18,,,,,,66,0,66,0,1,,,,,
,,670365,001,2023-07-31_14h42.36.493,arm3_eps,2022.2.5,Win32,59.89817311,60b7e28349c6c6d290dc8075,64c7fed44a04f777bb1e18ce,64c80086bd578f9b30c846f6,right,1,0.75,0.2429,10,0.012293963,0.1613,,,,,,67,0,67,0,1,,,,,
,,670365,001,2023-07-31_14h42.36.493,arm3_eps,2022.2.5,Win32,59.89817311,60b7e28349c6c6d290dc8075,64c7fed44a04f777bb1e18ce,64c80086bd578f9b30c846f6,up,-1,0.75,0.2429,11,0,1.0438,,,,,,68,0,68,0,1,,,,,
,,670365,001,2023-07-31_14h42.36.493,arm3_eps,2022.2.5,Win32,59.89817311,60b7e28349c6c6d290dc8075,64c7fed44a04f777bb1e18ce,64c80086bd578f9b30c846f6,right,-1,0.75,0.2429,11,-0.011426771,0.7161,,,,,,69,0,69,0,1,,,,,
,,670365,001,2023-07-31_14h42.36.493,arm3_eps,2022.2.5,Win32,59.89817311,60b7e28349c6c6d290dc8075,64c7fed44a04f777bb1e18ce,64c80086bd578f9b30c846f6,right,-1,0.75,0.2429,11,-0.035116576,0.261,,,,,,70,0,70,0,1,,,,,
,,670365,001,2023-07-31_14h42.36.493,arm3_eps,2022.2.5,Win32,59.89817311,60b7e28349c6c6d290dc8075,64c7fed44a04f777bb1e18ce,64c80086bd578f9b30c846f6,right,-1,0.75,0.2429,11,-0.039528792,0.1602,,,,,,71,0,71,0,1,,,,,
,,670365,001,2023-07-31_14h42.36.493,arm3_eps,2022.2.5,Win32,59.89817311,60b7e28349c6c6d290dc8075,64c7fed44a04f777bb1e18ce,64c80086bd578f9b30c846f6,right,-1,0.75,0.2429,11,-0.013177206,0.1511,,,,,,72,0,72,0,1,,,,,
,,670365,001,2023-07-31_14h42.36.493,arm3_eps,2022.2.5,Win32,59.89817311,60b7e28349c6c6d290dc8075,64c7fed44a04f777bb1e18ce,64c80086bd578f9b30c846f6,right,-1,0.75,0.2429,11,-0.01577271,0.4284,,,,,,73,0,73,0,1,,,,,
,,670365,001,2023-07-31_14h42.36.493,arm3_eps,2022.2.5,Win32,59.89817311,60b7e28349c6c6d290dc8075,64c7fed44a04f777bb1e18ce,64c80086bd578f9b30c846f6,up,1,0.75,0.2429,11,0,0.7345,,,,,,74,0,74,0,1,,,,,
,,670365,001,2023-07-31_14h42.36.493,arm3_eps,2022.2.5,Win32,59.89817311,60b7e28349c6c6d290dc8075,64c7fed44a04f777bb1e18ce,64c80086bd578f9b30c846f6,right,1,0.75,0.2429,11,0.009317105,0.7657,,,,,,75,0,75,0,1,,,,,
,,670365,001,2023-07-31_14h42.36.493,arm3_eps,2022.2.5,Win32,59.89817311,60b7e28349c6c6d290dc8075,64c7fed44a04f777bb1e18ce,64c80086bd578f9b30c846f6,right,1,0.75,0.2429,11,0.026473942,0.1501,,,,,,76,0,76,0,1,,,,,
,,670365,001,2023-07-31_14h42.36.493,arm3_eps,2022.2.5,Win32,59.89817311,60b7e28349c6c6d290dc8075,64c7fed44a04f777bb1e18ce,64c80086bd578f9b30c846f6,right,1,0.75,0.2429,11,0.047849196,0.2257,,,,,,77,0,77,0,1,,,,,
,,670365,001,2023-07-31_14h42.36.493,arm3_eps,2022.2.5,Win32,59.89817311,60b7e28349c6c6d290dc8075,64c7fed44a04f777bb1e18ce,64c80086bd578f9b30c846f6,right,1,0.75,0.2429,11,0.035459177,0.1769,,,,,,78,0,78,0,1,,,,,
,,670365,001,2023-07-31_14h42.36.493,arm3_eps,2022.2.5,Win32,59.89817311,60b7e28349c6c6d290dc8075,64c7fed44a04f777bb1e18ce,64c80086bd578f9b30c846f6,right,1,0.75,0.2429,11,0.048899006,0.3259,,,,,,79,0,79,0,1,,,,,
,,670365,001,2023-07-31_14h42.36.493,arm3_eps,2022.2.5,Win32,59.89817311,60b7e28349c6c6d290dc8075,64c7fed44a04f777bb1e18ce,64c80086bd578f9b30c846f6,up,1,0.75,0.2429,12,0,0.2594,,,,,,80,0,80,0,1,,,,,
,,670365,001,2023-07-31_14h42.36.493,arm3_eps,2022.2.5,Win32,59.89817311,60b7e28349c6c6d290dc8075,64c7fed44a04f777bb1e18ce,64c80086bd578f9b30c846f6,right,1,0.75,0.2429,12,0.011224705,0.7625,,,,,,81,0,81,0,1,,,,,
,,670365,001,2023-07-31_14h42.36.493,arm3_eps,2022.2.5,Win32,59.89817311,60b7e28349c6c6d290dc8075,64c7fed44a04f777bb1e18ce,64c80086bd578f9b30c846f6,right,1,0.75,0.2429,12,0.044369468,0.1816,,,,,,82,0,82,0,1,,,,,
,,670365,001,2023-07-31_14h42.36.493,arm3_eps,2022.2.5,Win32,59.89817311,60b7e28349c6c6d290dc8075,64c7fed44a04f777bb1e18ce,64c80086bd578f9b30c846f6,right,1,0.75,0.2429,12,0.028564224,0.1763,,,,,,83,0,83,0,1,,,,,
,,670365,001,2023-07-31_14h42.36.493,arm3_eps,2022.2.5,Win32,59.89817311,60b7e28349c6c6d290dc8075,64c7fed44a04f777bb1e18ce,64c80086bd578f9b30c846f6,right,1,0.75,0.2429,12,0.029395612,0.1767,,,,,,84,0,84,0,1,,,,,
,,670365,001,2023-07-31_14h42.36.493,arm3_eps,2022.2.5,Win32,59.89817311,60b7e28349c6c6d290dc8075,64c7fed44a04f777bb1e18ce,64c80086bd578f9b30c846f6,up,1,0.75,0.2429,13,0,1.0138,,,,,,85,0,85,0,1,,,,,
,,670365,001,2023-07-31_14h42.36.493,arm3_eps,2022.2.5,Win32,59.89817311,60b7e28349c6c6d290dc8075,64c7fed44a04f777bb1e18ce,64c80086bd578f9b30c846f6,right,1,0.75,0.2429,13,0.043506714,0.7726,,,,,,86,0,86,0,1,,,,,
,,670365,001,2023-07-31_14h42.36.493,arm3_eps,2022.2.5,Win32,59.89817311,60b7e28349c6c6d290dc8075,64c7fed44a04f777bb1e18ce,64c80086bd578f9b30c846f6,right,1,0.75,0.2429,13,0.052995243,0.1772,,,,,,87,0,87,0,1,,,,,
,,670365,001,2023-07-31_14h42.36.493,arm3_eps,2022.2.5,Win32,59.89817311,60b7e28349c6c6d290dc8075,64c7fed44a04f777bb1e18ce,64c80086bd578f9b30c846f6,right,1,0.75,0.2429,13,0.082986069,0.1934,,,,,,88,0,88,0,1,,,,,
,,670365,001,2023-07-31_14h42.36.493,arm3_eps,2022.2.5,Win32,59.89817311,60b7e28349c6c6d290dc8075,64c7fed44a04f777bb1e18ce,64c80086bd578f9b30c846f6,right,1,0.75,0.2429,13,0.109840066,0.1768,,,,,,89,0,89,0,1,,,,,
,,670365,001,2023-07-31_14h42.36.493,arm3_eps,2022.2.5,Win32,59.89817311,60b7e28349c6c6d290dc8075,64c7fed44a04f777bb1e18ce,64c80086bd578f9b30c846f6,up,-1,0.75,0.2429,13,0,0.2269,,,,,,90,0,90,0,1,,,,,
,,670365,001,2023-07-31_14h42.36.493,arm3_eps,2022.2.5,Win32,59.89817311,60b7e28349c6c6d290dc8075,64c7fed44a04f777bb1e18ce,64c80086bd578f9b30c846f6,right,-1,0.75,0.2429,13,-0.035144282,0.8315,,,,,,91,0,91,0,1,,,,,
,,670365,001,2023-07-31_14h42.36.493,arm3_eps,2022.2.5,Win32,59.89817311,60b7e28349c6c6d290dc8075,64c7fed44a04f777bb1e18ce,64c80086bd578f9b30c846f6,right,-1,0.75,0.2429,13,-0.055916128,0.2285,,,,,,92,0,92,0,1,,,,,
,,670365,001,2023-07-31_14h42.36.493,arm3_eps,2022.2.5,Win32,59.89817311,60b7e28349c6c6d290dc8075,64c7fed44a04f777bb1e18ce,64c80086bd578f9b30c846f6,down,-1,0.75,0.2429,13,0,0.4108,,,,,,93,0,93,0,1,,,,,
,,670365,001,2023-07-31_14h42.36.493,arm3_eps,2022.2.5,Win32,59.89817311,60b7e28349c6c6d290dc8075,64c7fed44a04f777bb1e18ce,64c80086bd578f9b30c846f6,right,-1,0.75,0.2429,13,-0.027603079,0.9011,,,,,,94,0,94,0,1,,,,,
,,670365,001,2023-07-31_14h42.36.493,arm3_eps,2022.2.5,Win32,59.89817311,60b7e28349c6c6d290dc8075,64c7fed44a04f777bb1e18ce,64c80086bd578f9b30c846f6,right,-1,0.75,0.2429,13,-0.057859456,0.1485,,,,,,95,0,95,0,1,,,,,
,,670365,001,2023-07-31_14h42.36.493,arm3_eps,2022.2.5,Win32,59.89817311,60b7e28349c6c6d290dc8075,64c7fed44a04f777bb1e18ce,64c80086bd578f9b30c846f6,right,-1,0.75,0.2429,13,-0.066315467,0.2107,,,,,,96,0,96,0,1,,,,,
,,670365,001,2023-07-31_14h42.36.493,arm3_eps,2022.2.5,Win32,59.89817311,60b7e28349c6c6d290dc8075,64c7fed44a04f777bb1e18ce,64c80086bd578f9b30c846f6,right,-1,0.75,0.2429,13,-0.072929051,0.144,,,,,,97,0,97,0,1,,,,,
,,670365,001,2023-07-31_14h42.36.493,arm3_eps,2022.2.5,Win32,59.89817311,60b7e28349c6c6d290dc8075,64c7fed44a04f777bb1e18ce,64c80086bd578f9b30c846f6,right,-1,0.75,0.2429,13,-0.076036006,0.2174,,,,,,98,0,98,0,1,,,,,
,,670365,001,2023-07-31_14h42.36.493,arm3_eps,2022.2.5,Win32,59.89817311,60b7e28349c6c6d290dc8075,64c7fed44a04f777bb1e18ce,64c80086bd578f9b30c846f6,down,1,0.75,0.2429,13,0,0.4098,,,,,,99,0,99,0,1,,,,,
,,670365,001,2023-07-31_14h42.36.493,arm3_eps,2022.2.5,Win32,59.89817311,60b7e28349c6c6d290dc8075,64c7fed44a04f777bb1e18ce,64c80086bd578f9b30c846f6,right,1,0.75,0.2429,13,0.019374138,0.8166,,,,,,100,0,100,0,1,,,,,
,,670365,001,2023-07-31_14h42.36.493,arm3_eps,2022.2.5,Win32,59.89817311,60b7e28349c6c6d290dc8075,64c7fed44a04f777bb1e18ce,64c80086bd578f9b30c846f6,right,1,0.75,0.2429,13,0.010425929,0.1679,,,,,,101,0,101,0,1,,,,,
,,670365,001,2023-07-31_14h42.36.493,arm3_eps,2022.2.5,Win32,59.89817311,60b7e28349c6c6d290dc8075,64c7fed44a04f777bb1e18ce,64c80086bd578f9b30c846f6,right,1,0.75,0.2429,13,0.004310151,0.1862,,,,,,102,0,102,0,1,,,,,
,,670365,001,2023-07-31_14h42.36.493,arm3_eps,2022.2.5,Win32,59.89817311,60b7e28349c6c6d290dc8075,64c7fed44a04f777bb1e18ce,64c80086bd578f9b30c846f6,right,1,0.75,0.2429,13,0.022933866,0.1942,,,,,,103,0,103,0,1,,,,,
,,670365,001,2023-07-31_14h42.36.493,arm3_eps,2022.2.5,Win32,59.89817311,60b7e28349c6c6d290dc8075,64c7fed44a04f777bb1e18ce,64c80086bd578f9b30c846f6,right,1,0.75,0.2429,13,0.00551673,0.1826,,,,,,104,0,104,0,1,,,,,
,,670365,001,2023-07-31_14h42.36.493,arm3_eps,2022.2.5,Win32,59.89817311,60b7e28349c6c6d290dc8075,64c7fed44a04f777bb1e18ce,64c80086bd578f9b30c846f6,right,1,0.75,0.2429,13,-0.015981178,0.3341,,,,,,105,0,105,0,1,,,,,
,,670365,001,2023-07-31_14h42.36.493,arm3_eps,2022.2.5,Win32,59.89817311,60b7e28349c6c6d290dc8075,64c7fed44a04f777bb1e18ce,64c80086bd578f9b30c846f6,right,1,0.75,0.2429,13,0.009948819,0.4945,,,,,,106,0,106,0,1,,,,,
,,670365,001,2023-07-31_14h42.36.493,arm3_eps,2022.2.5,Win32,59.89817311,60b7e28349c6c6d290dc8075,64c7fed44a04f777bb1e18ce,64c80086bd578f9b30c846f6,up,1,0.75,0.2429,14,0,0.2668,,,,,,107,0,107,0,1,,,,,
,,670365,001,2023-07-31_14h42.36.493,arm3_eps,2022.2.5,Win32,59.89817311,60b7e28349c6c6d290dc8075,64c7fed44a04f777bb1e18ce,64c80086bd578f9b30c846f6,right,1,0.75,0.2429,14,0.018073468,0.8125,,,,,,108,0,108,0,1,,,,,
,,670365,001,2023-07-31_14h42.36.493,arm3_eps,2022.2.5,Win32,59.89817311,60b7e28349c6c6d290dc8075,64c7fed44a04f777bb1e18ce,64c80086bd578f9b30c846f6,right,1,0.75,0.2429,14,0.017456017,0.1494,,,,,,109,0,109,0,1,,,,,
,,670365,001,2023-07-31_14h42.36.493,arm3_eps,2022.2.5,Win32,59.89817311,60b7e28349c6c6d290dc8075,64c7fed44a04f777bb1e18ce,64c80086bd578f9b30c846f6,right,1,0.75,0.2429,14,0.003325342,0.194,,,,,,110,0,110,0,1,,,,,
,,670365,001,2023-07-31_14h42.36.493,arm3_eps,2022.2.5,Win32,59.89817311,60b7e28349c6c6d290dc8075,64c7fed44a04f777bb1e18ce,64c80086bd578f9b30c846f6,right,1,0.75,0.2429,14,-0.010635527,0.2113,,,,,,111,0,111,0,1,,,,,
,,670365,001,2023-07-31_14h42.36.493,arm3_eps,2022.2.5,Win32,59.89817311,60b7e28349c6c6d290dc8075,64c7fed44a04f777bb1e18ce,64c80086bd578f9b30c846f6,right,1,0.75,0.2429,14,-0.027925338,0.2271,,,,,,112,0,112,0,1,,,,,
,,670365,001,2023-07-31_14h42.36.493,arm3_eps,2022.2.5,Win32,59.89817311,60b7e28349c6c6d290dc8075,64c7fed44a04f777bb1e18ce,64c80086bd578f9b30c846f6,right,1,0.75,0.2429,14,-0.006351374,0.5773,,,,,,113,0,113,0,1,,,,,
,,670365,001,2023-07-31_14h42.36.493,arm3_eps,2022.2.5,Win32,59.89817311,60b7e28349c6c6d290dc8075,64c7fed44a04f777bb1e18ce,64c80086bd578f9b30c846f6,up,1,0.75,0.2429,14,0,1.7007,,,,,,114,0,114,0,1,,,,,
,,670365,001,2023-07-31_14h42.36.493,arm3_eps,2022.2.5,Win32,59.89817311,60b7e28349c6c6d290dc8075,64c7fed44a04f777bb1e18ce,64c80086bd578f9b30c846f6,right,1,0.75,0.2429,14,-0.012726864,0.8015,,,,,,115,0,115,0,1,,,,,
,,670365,001,2023-07-31_14h42.36.493,arm3_eps,2022.2.5,Win32,59.89817311,60b7e28349c6c6d290dc8075,64c7fed44a04f777bb1e18ce,64c80086bd578f9b30c846f6,right,1,0.75,0.2429,14,0.015922652,0.1765,,,,,,116,0,116,0,1,,,,,
,,670365,001,2023-07-31_14h42.36.493,arm3_eps,2022.2.5,Win32,59.89817311,60b7e28349c6c6d290dc8075,64c7fed44a04f777bb1e18ce,64c80086bd578f9b30c846f6,right,1,0.75,0.2429,14,0.001103599,0.1765,,,,,,117,0,117,0,1,,,,,
,,670365,001,2023-07-31_14h42.36.493,arm3_eps,2022.2.5,Win32,59.89817311,60b7e28349c6c6d290dc8075,64c7fed44a04f777bb1e18ce,64c80086bd578f9b30c846f6,right,1,0.75,0.2429,14,0.004843746,0.2103,,,,,,118,0,118,0,1,,,,,
,,670365,001,2023-07-31_14h42.36.493,arm3_eps,2022.2.5,Win32,59.89817311,60b7e28349c6c6d290dc8075,64c7fed44a04f777bb1e18ce,64c80086bd578f9b30c846f6,right,1,0.75,0.2429,14,0.041377041,0.21,,,,,,119,0,119,0,1,,,,,
,,670365,001,2023-07-31_14h42.36.493,arm3_eps,2022.2.5,Win32,59.89817311,60b7e28349c6c6d290dc8075,64c7fed44a04f777bb1e18ce,64c80086bd578f9b30c846f6,up,1,0.75,0.2429,14,0,0.678,,,,,,120,0,120,0,1,,,,,
,,670365,001,2023-07-31_14h42.36.493,arm3_eps,2022.2.5,Win32,59.89817311,60b7e28349c6c6d290dc8075,64c7fed44a04f777bb1e18ce,64c80086bd578f9b30c846f6,right,1,0.75,0.2429,14,0.001261391,0.6218,,,,,,121,0,121,0,1,,,,,
,,670365,001,2023-07-31_14h42.36.493,arm3_eps,2022.2.5,Win32,59.89817311,60b7e28349c6c6d290dc8075,64c7fed44a04f777bb1e18ce,64c80086bd578f9b30c846f6,right,1,0.75,0.2429,14,0.009002822,0.2154,,,,,,122,0,122,0,1,,,,,
,,670365,001,2023-07-31_14h42.36.493,arm3_eps,2022.2.5,Win32,59.89817311,60b7e28349c6c6d290dc8075,64c7fed44a04f777bb1e18ce,64c80086bd578f9b30c846f6,right,1,0.75,0.2429,14,0.010409954,0.1774,,,,,,123,0,123,0,1,,,,,
,,670365,001,2023-07-31_14h42.36.493,arm3_eps,2022.2.5,Win32,59.89817311,60b7e28349c6c6d290dc8075,64c7fed44a04f777bb1e18ce,64c80086bd578f9b30c846f6,right,1,0.75,0.2429,14,0.0412712,0.1949,,,,,,124,0,124,0,1,,,,,
,,670365,001,2023-07-31_14h42.36.493,arm3_eps,2022.2.5,Win32,59.89817311,60b7e28349c6c6d290dc8075,64c7fed44a04f777bb1e18ce,64c80086bd578f9b30c846f6,right,1,0.75,0.2429,14,0.064267251,0.1927,,,,,,125,0,125,0,1,,,,,
,,670365,001,2023-07-31_14h42.36.493,arm3_eps,2022.2.5,Win32,59.89817311,60b7e28349c6c6d290dc8075,64c7fed44a04f777bb1e18ce,64c80086bd578f9b30c846f6,up,1,0.75,0.2429,15,0,0.5429,,,,,,126,0,126,0,1,,,,,
,,670365,001,2023-07-31_14h42.36.493,arm3_eps,2022.2.5,Win32,59.89817311,60b7e28349c6c6d290dc8075,64c7fed44a04f777bb1e18ce,64c80086bd578f9b30c846f6,right,1,0.75,0.2429,15,0.02358233,0.8889,,,,,,127,0,127,0,1,,,,,
,,670365,001,2023-07-31_14h42.36.493,arm3_eps,2022.2.5,Win32,59.89817311,60b7e28349c6c6d290dc8075,64c7fed44a04f777bb1e18ce,64c80086bd578f9b30c846f6,right,1,0.75,0.2429,15,0.030972156,0.208,,,,,,128,0,128,0,1,,,,,
,,670365,001,2023-07-31_14h42.36.493,arm3_eps,2022.2.5,Win32,59.89817311,60b7e28349c6c6d290dc8075,64c7fed44a04f777bb1e18ce,64c80086bd578f9b30c846f6,right,1,0.75,0.2429,15,0.026377515,0.1935,,,,,,129,0,129,0,1,,,,,
,,670365,001,2023-07-31_14h42.36.493,arm3_eps,2022.2.5,Win32,59.89817311,60b7e28349c6c6d290dc8075,64c7fed44a04f777bb1e18ce,64c80086bd578f9b30c846f6,right,1,0.75,0.2429,15,0.005325348,0.1948,,,,,,130,0,130,0,1,,,,,
,,670365,001,2023-07-31_14h42.36.493,arm3_eps,2022.2.5,Win32,59.89817311,60b7e28349c6c6d290dc8075,64c7fed44a04f777bb1e18ce,64c80086bd578f9b30c846f6,right,1,0.75,0.2429,15,-0.005250168,0.2121,,,,,,131,0,131,0,1,,,,,
,,670365,001,2023-07-31_14h42.36.493,arm3_eps,2022.2.5,Win32,59.89817311,60b7e28349c6c6d290dc8075,64c7fed44a04f777bb1e18ce,64c80086bd578f9b30c846f6,right,1,0.75,0.2429,15,-0.006252899,0.6974,,,,,,132,0,132,0,1,,,,,
,,670365,001,2023-07-31_14h42.36.493,arm3_eps,2022.2.5,Win32,59.89817311,60b7e28349c6c6d290dc8075,64c7fed44a04f777bb1e18ce,64c80086bd578f9b30c846f6,down,1,0.75,0.2429,15,0,0.6837,,,,,,133,0,133,0,1,,,,,
,,670365,001,2023-07-31_14h42.36.493,arm3_eps,2022.2.5,Win32,59.89817311,60b7e28349c6c6d290dc8075,64c7fed44a04f777bb1e18ce,64c80086bd578f9b30c846f6,right,1,0.75,0.2429,15,0.004657823,0.7644,,,,,,134,0,134,0,1,,,,,
,,670365,001,2023-07-31_14h42.36.493,arm3_eps,2022.2.5,Win32,59.89817311,60b7e28349c6c6d290dc8075,64c7fed44a04f777bb1e18ce,64c80086bd578f9b30c846f6,right,1,0.75,0.2429,15,0.00850327,0.1611,,,,,,135,0,135,0,1,,,,,
,,670365,001,2023-07-31_14h42.36.493,arm3_eps,2022.2.5,Win32,59.89817311,60b7e28349c6c6d290dc8075,64c7fed44a04f777bb1e18ce,64c80086bd578f9b30c846f6,right,1,0.75,0.2429,15,0.01210166,0.2256,,,,,,136,0,136,0,1,,,,,
,,670365,001,2023-07-31_14h42.36.493,arm3_eps,2022.2.5,Win32,59.89817311,60b7e28349c6c6d290dc8075,64c7fed44a04f777bb1e18ce,64c80086bd578f9b30c846f6,right,1,0.75,0.2429,15,-0.012679091,0.2106,,,,,,137,0,137,0,1,,,,,
,,670365,001,2023-07-31_14h42.36.493,arm3_eps,2022.2.5,Win32,59.89817311,60b7e28349c6c6d290dc8075,64c7fed44a04f777bb1e18ce,64c80086bd578f9b30c846f6,right,1,0.75,0.2429,15,0.019582571,0.2274,,,,,,138,0,138,0,1,,,,,
,,670365,001,2023-07-31_14h42.36.493,arm3_eps,2022.2.5,Win32,59.89817311,60b7e28349c6c6d290dc8075,64c7fed44a04f777bb1e18ce,64c80086bd578f9b30c846f6,right,1,0.75,0.2429,15,0.03859349,0.2926,,,,,,139,0,139,0,1,,,,,
,,670365,001,2023-07-31_14h42.36.493,arm3_eps,2022.2.5,Win32,59.89817311,60b7e28349c6c6d290dc8075,64c7fed44a04f777bb1e18ce,64c80086bd578f9b30c846f6,up,-1,0.75,0.2429,16,0,0.278,,,,,,140,0,140,0,1,,,,,
,,670365,001,2023-07-31_14h42.36.493,arm3_eps,2022.2.5,Win32,59.89817311,60b7e28349c6c6d290dc8075,64c7fed44a04f777bb1e18ce,64c80086bd578f9b30c846f6,right,-1,0.75,0.2429,16,0.020769056,0.7683,,,,,,141,0,141,0,1,,,,,
,,670365,001,2023-07-31_14h42.36.493,arm3_eps,2022.2.5,Win32,59.89817311,60b7e28349c6c6d290dc8075,64c7fed44a04f777bb1e18ce,64c80086bd578f9b30c846f6,right,-1,0.75,0.2429,16,0.029175441,0.1766,,,,,,142,0,142,0,1,,,,,
,,670365,001,2023-07-31_14h42.36.493,arm3_eps,2022.2.5,Win32,59.89817311,60b7e28349c6c6d290dc8075,64c7fed44a04f777bb1e18ce,64c80086bd578f9b30c846f6,right,-1,0.75,0.2429,16,0.011765783,0.1612,,,,,,143,0,143,0,1,,,,,
,,670365,001,2023-07-31_14h42.36.493,arm3_eps,2022.2.5,Win32,59.89817311,60b7e28349c6c6d290dc8075,64c7fed44a04f777bb1e18ce,64c80086bd578f9b30c846f6,right,-1,0.75,0.2429,16,0.010766642,0.1982,,,,,,144,0,144,0,1,,,,,
,,670365,001,2023-07-31_14h42.36.493,arm3_eps,2022.2.5,Win32,59.89817311,60b7e28349c6c6d290dc8075,64c7fed44a04f777bb1e18ce,64c80086bd578f9b30c846f6,right,-1,0.75,0.2429,16,0.004140435,0.2098,,,,,,145,0,145,0,1,,,,,
,,670365,001,2023-07-31_14h42.36.493,arm3_eps,2022.2.5,Win32,59.89817311,60b7e28349c6c6d290dc8075,64c7fed44a04f777bb1e18ce,64c80086bd578f9b30c846f6,right,-1,0.75,0.2429,16,-0.015151209,0.2254,,,,,,146,0,146,0,1,,,,,
,,670365,001,2023-07-31_14h42.36.493,arm3_eps,2022.2.5,Win32,59.89817311,60b7e28349c6c6d290dc8075,64c7fed44a04f777bb1e18ce,64c80086bd578f9b30c846f6,down,-1,0.75,0.2429,16,0,0.3806,,,,,,147,0,147,0,1,,,,,
,,670365,001,2023-07-31_14h42.36.493,arm3_eps,2022.2.5,Win32,59.89817311,60b7e28349c6c6d290dc8075,64c7fed44a04f777bb1e18ce,64c80086bd578f9b30c846f6,right,-1,0.75,0.2429,16,0.012071297,0.7185,,,,,,148,0,148,0,1,,,,,
,,670365,001,2023-07-31_14h42.36.493,arm3_eps,2022.2.5,Win32,59.89817311,60b7e28349c6c6d290dc8075,64c7fed44a04f777bb1e18ce,64c80086bd578f9b30c846f6,right,-1,0.75,0.2429,16,0.011356345,0.2851,,,,,,149,0,149,0,1,,,,,
,,670365,001,2023-07-31_14h42.36.493,arm3_eps,2022.2.5,Win32,59.89817311,60b7e28349c6c6d290dc8075,64c7fed44a04f777bb1e18ce,64c80086bd578f9b30c846f6,right,-1,0.75,0.2429,16,0.006159277,0.1648,,,,,,150,0,150,0,1,,,,,
,,670365,001,2023-07-31_14h42.36.493,arm3_eps,2022.2.5,Win32,59.89817311,60b7e28349c6c6d290dc8075,64c7fed44a04f777bb1e18ce,64c80086bd578f9b30c846f6,right,-1,0.75,0.2429,16,-0.016872291,0.1771,,,,,,151,0,151,0,1,,,,,
,,670365,001,2023-07-31_14h42.36.493,arm3_eps,2022.2.5,Win32,59.89817311,60b7e28349c6c6d290dc8075,64c7fed44a04f777bb1e18ce,64c80086bd578f9b30c846f6,down,-1,0.75,0.2429,17,0,0.5431,,,,,,152,0,152,0,1,,,,,
,,670365,001,2023-07-31_14h42.36.493,arm3_eps,2022.2.5,Win32,59.89817311,60b7e28349c6c6d290dc8075,64c7fed44a04f777bb1e18ce,64c80086bd578f9b30c846f6,right,-1,0.75,0.2429,17,0.005286188,0.8138,,,,,,153,0,153,0,1,,,,,
,,670365,001,2023-07-31_14h42.36.493,arm3_eps,2022.2.5,Win32,59.89817311,60b7e28349c6c6d290dc8075,64c7fed44a04f777bb1e18ce,64c80086bd578f9b30c846f6,right,-1,0.75,0.2429,17,-0.004937307,0.1506,,,,,,154,0,154,0,1,,,,,
,,670365,001,2023-07-31_14h42.36.493,arm3_eps,2022.2.5,Win32,59.89817311,60b7e28349c6c6d290dc8075,64c7fed44a04f777bb1e18ce,64c80086bd578f9b30c846f6,right,-1,0.75,0.2429,17,-0.050950462,0.1928,,,,,,155,0,155,0,1,,,,,
,,670365,001,2023-07-31_14h42.36.493,arm3_eps,2022.2.5,Win32,59.89817311,60b7e28349c6c6d290dc8075,64c7fed44a04f777bb1e18ce,64c80086bd578f9b30c846f6,right,-1,0.75,0.2429,17,-0.075468487,0.1624,,,,,,156,0,156,0,1,,,,,
,,670365,001,2023-07-31_14h42.36.493,arm3_eps,2022.2.5,Win32,59.89817311,60b7e28349c6c6d290dc8075,64c7fed44a04f777bb1e18ce,64c80086bd578f9b30c846f6,down,-1,0.75,0.2429,18,0,0.2988,,,,,,157,0,157,0,1,,,,,
,,670365,001,2023-07-31_14h42.36.493,arm3_eps,2022.2.5,Win32,59.89817311,60b7e28349c6c6d290dc8075,64c7fed44a04f777bb1e18ce,64c80086bd578f9b30c846f6,right,-1,0.75,0.2429,18,0.016617566,0.7988,,,,,,158,0,158,0,1,,,,,
,,670365,001,2023-07-31_14h42.36.493,arm3_eps,2022.2.5,Win32,59.89817311,60b7e28349c6c6d290dc8075,64c7fed44a04f777bb1e18ce,64c80086bd578f9b30c846f6,right,-1,0.75,0.2429,18,0.033708467,0.1797,,,,,,159,0,159,0,1,,,,,
,,670365,001,2023-07-31_14h42.36.493,arm3_eps,2022.2.5,Win32,59.89817311,60b7e28349c6c6d290dc8075,64c7fed44a04f777bb1e18ce,64c80086bd578f9b30c846f6,right,-1,0.75,0.2429,18,0.02896244,0.1945,,,,,,160,0,160,0,1,,,,,
,,670365,001,2023-07-31_14h42.36.493,arm3_eps,2022.2.5,Win32,59.89817311,60b7e28349c6c6d290dc8075,64c7fed44a04f777bb1e18ce,64c80086bd578f9b30c846f6,right,-1,0.75,0.2429,18,-0.039999877,0.1447,,,,,,161,0,161,0,1,,,,,
,,670365,001,2023-07-31_14h42.36.493,arm3_eps,2022.2.5,Win32,59.89817311,60b7e28349c6c6d290dc8075,64c7fed44a04f777bb1e18ce,64c80086bd578f9b30c846f6,right,-1,0.75,0.2429,18,-0.054430613,0.1765,,,,,,162,0,162,0,1,,,,,
,,670365,001,2023-07-31_14h42.36.493,arm3_eps,2022.2.5,Win32,59.89817311,60b7e28349c6c6d290dc8075,64c7fed44a04f777bb1e18ce,64c80086bd578f9b30c846f6,right,-1,0.75,0.2429,18,-0.071457604,0.1831,,,,,,163,0,163,0,1,,,,,
,,670365,001,2023-07-31_14h42.36.493,arm3_eps,2022.2.5,Win32,59.89817311,60b7e28349c6c6d290dc8075,64c7fed44a04f777bb1e18ce,64c80086bd578f9b30c846f6,down,-1,0.75,0.2429,18,0,0.277,,,,,,164,0,164,0,1,,,,,
,,670365,001,2023-07-31_14h42.36.493,arm3_eps,2022.2.5,Win32,59.89817311,60b7e28349c6c6d290dc8075,64c7fed44a04f777bb1e18ce,64c80086bd578f9b30c846f6,right,-1,0.75,0.2429,18,0.005200368,0.8846,,,,,,165,0,165,0,1,,,,,
,,670365,001,2023-07-31_14h42.36.493,arm3_eps,2022.2.5,Win32,59.89817311,60b7e28349c6c6d290dc8075,64c7fed44a04f777bb1e18ce,64c80086bd578f9b30c846f6,right,-1,0.75,0.2429,18,0.020824422,0.1765,,,,,,166,0,166,0,1,,,,,
,,670365,001,2023-07-31_14h42.36.493,arm3_eps,2022.2.5,Win32,59.89817311,60b7e28349c6c6d290dc8075,64c7fed44a04f777bb1e18ce,64c80086bd578f9b30c846f6,right,-1,0.75,0.2429,18,-0.02363826,0.2096,,,,,,167,0,167,0,1,,,,,
,,670365,001,2023-07-31_14h42.36.493,arm3_eps,2022.2.5,Win32,59.89817311,60b7e28349c6c6d290dc8075,64c7fed44a04f777bb1e18ce,64c80086bd578f9b30c846f6,right,-1,0.75,0.2429,18,-0.012089069,0.1442,,,,,,168,0,168,0,1,,,,,
,,670365,001,2023-07-31_14h42.36.493,arm3_eps,2022.2.5,Win32,59.89817311,60b7e28349c6c6d290dc8075,64c7fed44a04f777bb1e18ce,64c80086bd578f9b30c846f6,right,-1,0.75,0.2429,18,-0.038137322,0.1442,,,,,,169,0,169,0,1,,,,,
,,670365,001,2023-07-31_14h42.36.493,arm3_eps,2022.2.5,Win32,59.89817311,60b7e28349c6c6d290dc8075,64c7fed44a04f777bb1e18ce,64c80086bd578f9b30c846f6,right,-1,0.75,0.2429,18,-0.033876663,0.2262,,,,,,170,0,170,0,1,,,,,
,,670365,001,2023-07-31_14h42.36.493,arm3_eps,2022.2.5,Win32,59.89817311,60b7e28349c6c6d290dc8075,64c7fed44a04f777bb1e18ce,64c80086bd578f9b30c846f6,up,-1,0.75,0.2429,18,0,0.5643,,,,,,171,0,171,0,1,,,,,
,,670365,001,2023-07-31_14h42.36.493,arm3_eps,2022.2.5,Win32,59.89817311,60b7e28349c6c6d290dc8075,64c7fed44a04f777bb1e18ce,64c80086bd578f9b30c846f6,right,-1,0.75,0.2429,18,-0.023263442,0.8041,,,,,,172,0,172,0,1,,,,,
,,670365,001,2023-07-31_14h42.36.493,arm3_eps,2022.2.5,Win32,59.89817311,60b7e28349c6c6d290dc8075,64c7fed44a04f777bb1e18ce,64c80086bd578f9b30c846f6,right,-1,0.75,0.2429,18,-0.031872936,0.1597,,,,,,173,0,173,0,1,,,,,
,,670365,001,2023-07-31_14h42.36.493,arm3_eps,2022.2.5,Win32,59.89817311,60b7e28349c6c6d290dc8075,64c7fed44a04f777bb1e18ce,64c80086bd578f9b30c846f6,right,-1,0.75,0.2429,18,-0.045264636,0.1786,,,,,,174,0,174,0,1,,,,,
,,670365,001,2023-07-31_14h42.36.493,arm3_eps,2022.2.5,Win32,59.89817311,60b7e28349c6c6d290dc8075,64c7fed44a04f777bb1e18ce,64c80086bd578f9b30c846f6,right,-1,0.75,0.2429,18,-0.049621685,0.1609,,,,,,175,0,175,0,1,,,,,
,,670365,001,2023-07-31_14h42.36.493,arm3_eps,2022.2.5,Win32,59.89817311,60b7e28349c6c6d290dc8075,64c7fed44a04f777bb1e18ce,64c80086bd578f9b30c846f6,down,-1,0.75,0.2429,19,0,0.3424,,,,,,176,0,176,0,1,,,,,
,,670365,001,2023-07-31_14h42.36.493,arm3_eps,2022.2.5,Win32,59.89817311,60b7e28349c6c6d290dc8075,64c7fed44a04f777bb1e18ce,64c80086bd578f9b30c846f6,right,-1,0.75,0.2429,19,-0.01843635,0.6242,,,,,,177,0,177,0,1,,,,,
,,670365,001,2023-07-31_14h42.36.493,arm3_eps,2022.2.5,Win32,59.89817311,60b7e28349c6c6d290dc8075,64c7fed44a04f777bb1e18ce,64c80086bd578f9b30c846f6,right,-1,0.75,0.2429,19,0.010047045,0.2283,,,,,,178,0,178,0,1,,,,,
,,670365,001,2023-07-31_14h42.36.493,arm3_eps,2022.2.5,Win32,59.89817311,60b7e28349c6c6d290dc8075,64c7fed44a04f777bb1e18ce,64c80086bd578f9b30c846f6,right,-1,0.75,0.2429,19,-0.022133952,0.1467,,,,,,179,0,179,0,1,,,,,
,,670365,001,2023-07-31_14h42.36.493,arm3_eps,2022.2.5,Win32,59.89817311,60b7e28349c6c6d290dc8075,64c7fed44a04f777bb1e18ce,64c80086bd578f9b30c846f6,right,-1,0.75,0.2429,19,-0.050604895,0.1648,,,,,,180,0,180,0,1,,,,,
,,670365,001,2023-07-31_14h42.36.493,arm3_eps,2022.2.5,Win32,59.89817311,60b7e28349c6c6d290dc8075,64c7fed44a04f777bb1e18ce,64c80086bd578f9b30c846f6,right,-1,0.75,0.2429,19,-0.084497505,0.15,,,,,,181,0,181,0,1,,,,,
,,670365,001,2023-07-31_14h42.36.493,arm3_eps,2022.2.5,Win32,59.89817311,60b7e28349c6c6d290dc8075,64c7fed44a04f777bb1e18ce,64c80086bd578f9b30c846f6,down,-1,0.75,0.2429,20,0,0.2605,,,,,,182,0,182,0,1,,,,,
,,670365,001,2023-07-31_14h42.36.493,arm3_eps,2022.2.5,Win32,59.89817311,60b7e28349c6c6d290dc8075,64c7fed44a04f777bb1e18ce,64c80086bd578f9b30c846f6,right,-1,0.75,0.2429,20,-0.050353061,0.8897,,,,,,183,0,183,0,1,,,,,
,,670365,001,2023-07-31_14h42.36.493,arm3_eps,2022.2.5,Win32,59.89817311,60b7e28349c6c6d290dc8075,64c7fed44a04f777bb1e18ce,64c80086bd578f9b30c846f6,right,-1,0.75,0.2429,20,-0.085351824,0.178,,,,,,184,0,184,0,1,,,,,
,,670365,001,2023-07-31_14h42.36.493,arm3_eps,2022.2.5,Win32,59.89817311,60b7e28349c6c6d290dc8075,64c7fed44a04f777bb1e18ce,64c80086bd578f9b30c846f6,right,-1,0.75,0.2429,20,-0.089856907,0.1781,,,,,,185,0,185,0,1,,,,,
,,670365,001,2023-07-31_14h42.36.493,arm3_eps,2022.2.5,Win32,59.89817311,60b7e28349c6c6d290dc8075,64c7fed44a04f777bb1e18ce,64c80086bd578f9b30c846f6,right,-1,0.75,0.2429,20,-0.101668045,0.1512,,,,,,186,0,186,0,1,,,,,
,,670365,001,2023-07-31_14h42.36.493,arm3_eps,2022.2.5,Win32,59.89817311,60b7e28349c6c6d290dc8075,64c7fed44a04f777bb1e18ce,64c80086bd578f9b30c846f6,down,-1,0.75,0.2429,21,0,0.5627,,,,,,187,0,187,0,1,,,,,
,,670365,001,2023-07-31_14h42.36.493,arm3_eps,2022.2.5,Win32,59.89817311,60b7e28349c6c6d290dc8075,64c7fed44a04f777bb1e18ce,64c80086bd578f9b30c846f6,right,-1,0.75,0.2429,21,-0.004158894,0.8189,,,,,,188,0,188,0,1,,,,,
,,670365,001,2023-07-31_14h42.36.493,arm3_eps,2022.2.5,Win32,59.89817311,60b7e28349c6c6d290dc8075,64c7fed44a04f777bb1e18ce,64c80086bd578f9b30c846f6,right,-1,0.75,0.2429,21,-0.001177182,0.1601,,,,,,189,0,189,0,1,,,,,
,,670365,001,2023-07-31_14h42.36.493,arm3_eps,2022.2.5,Win32,59.89817311,60b7e28349c6c6d290dc8075,64c7fed44a04f777bb1e18ce,64c80086bd578f9b30c846f6,right,-1,0.75,0.2429,21,-0.04036111,0.1777,,,,,,190,0,190,0,1,,,,,
,,670365,001,2023-07-31_14h42.36.493,arm3_eps,2022.2.5,Win32,59.89817311,60b7e28349c6c6d290dc8075,64c7fed44a04f777bb1e18ce,64c80086bd578f9b30c846f6,right,-1,0.75,0.2429,21,-0.053649522,0.1639,,,,,,191,0,191,0,1,,,,,
,,670365,001,2023-07-31_14h42.36.493,arm3_eps,2022.2.5,Win32,59.89817311,60b7e28349c6c6d290dc8075,64c7fed44a04f777bb1e18ce,64c80086bd578f9b30c846f6,down,-1,0.75,0.2429,22,0,0.3355,,,,,,192,0,192,0,1,,,,,
,,670365,001,2023-07-31_14h42.36.493,arm3_eps,2022.2.5,Win32,59.89817311,60b7e28349c6c6d290dc8075,64c7fed44a04f777bb1e18ce,64c80086bd578f9b30c846f6,right,-1,0.75,0.2429,22,-0.02261969,0.8069,,,,,,193,0,193,0,1,,,,,
,,670365,001,2023-07-31_14h42.36.493,arm3_eps,2022.2.5,Win32,59.89817311,60b7e28349c6c6d290dc8075,64c7fed44a04f777bb1e18ce,64c80086bd578f9b30c846f6,right,-1,0.75,0.2429,22,-0.012784631,0.1785,,,,,,194,0,194,0,1,,,,,
,,670365,001,2023-07-31_14h42.36.493,arm3_eps,2022.2.5,Win32,59.89817311,60b7e28349c6c6d290dc8075,64c7fed44a04f777bb1e18ce,64c80086bd578f9b30c846f6,right,-1,0.75,0.2429,22,-0.00182688,0.16,,,,,,195,0,195,0,1,,,,,
,,670365,001,2023-07-31_14h42.36.493,arm3_eps,2022.2.5,Win32,59.89817311,60b7e28349c6c6d290dc8075,64c7fed44a04f777bb1e18ce,64c80086bd578f9b30c846f6,right,-1,0.75,0.2429,22,0.019499511,0.1802,,,,,,196,0,196,0,1,,,,,
,,670365,001,2023-07-31_14h42.36.493,arm3_eps,2022.2.5,Win32,59.89817311,60b7e28349c6c6d290dc8075,64c7fed44a04f777bb1e18ce,64c80086bd578f9b30c846f6,down,-1,0.75,0.2429,23,0,0.9271,,,,,,197,0,197,0,1,,,,,
,,670365,001,2023-07-31_14h42.36.493,arm3_eps,2022.2.5,Win32,59.89817311,60b7e28349c6c6d290dc8075,64c7fed44a04f777bb1e18ce,64c80086bd578f9b30c846f6,right,-1,0.75,0.2429,23,0.002088349,0.815,,,,,,198,0,198,0,1,,,,,
,,670365,001,2023-07-31_14h42.36.493,arm3_eps,2022.2.5,Win32,59.89817311,60b7e28349c6c6d290dc8075,64c7fed44a04f777bb1e18ce,64c80086bd578f9b30c846f6,right,-1,0.75,0.2429,23,0.006184333,0.1823,,,,,,199,0,199,0,1,,,,,
,,670365,001,2023-07-31_14h42.36.493,arm3_eps,2022.2.5,Win32,59.89817311,60b7e28349c6c6d290dc8075,64c7fed44a04f777bb1e18ce,64c80086bd578f9b30c846f6,right,-1,0.75,0.2429,23,-0.025474475,0.1673,,,,,,200,0,200,0,1,,,,,
,,670365,001,2023-07-31_14h42.36.493,arm3_eps,2022.2.5,Win32,59.89817311,60b7e28349c6c6d290dc8075,64c7fed44a04f777bb1e18ce,64c80086bd578f9b30c846f6,right,-1,0.75,0.2429,23,-0.053452427,0.1627,,,,,,201,0,201,0,1,,,,,
,,670365,001,2023-07-31_14h42.36.493,arm3_eps,2022.2.5,Win32,59.89817311,60b7e28349c6c6d290dc8075,64c7fed44a04f777bb1e18ce,64c80086bd578f9b30c846f6,up,-1,0.75,0.2429,22,0,0.8765,,,,,,202,0,202,0,1,,,,,
,,670365,001,2023-07-31_14h42.36.493,arm3_eps,2022.2.5,Win32,59.89817311,60b7e28349c6c6d290dc8075,64c7fed44a04f777bb1e18ce,64c80086bd578f9b30c846f6,right,-1,0.75,0.2429,22,-0.016293754,0.7539,,,,,,203,0,203,0,1,,,,,
,,670365,001,2023-07-31_14h42.36.493,arm3_eps,2022.2.5,Win32,59.89817311,60b7e28349c6c6d290dc8075,64c7fed44a04f777bb1e18ce,64c80086bd578f9b30c846f6,right,-1,0.75,0.2429,22,-0.035418692,0.1488,,,,,,204,0,204,0,1,,,,,
,,670365,001,2023-07-31_14h42.36.493,arm3_eps,2022.2.5,Win32,59.89817311,60b7e28349c6c6d290dc8075,64c7fed44a04f777bb1e18ce,64c80086bd578f9b30c846f6,right,-1,0.75,0.2429,22,-0.03791654,0.1617,,,,,,205,0,205,0,1,,,,,
,,670365,001,2023-07-31_14h42.36.493,arm3_eps,2022.2.5,Win32,59.89817311,60b7e28349c6c6d290dc8075,64c7fed44a04f777bb1e18ce,64c80086bd578f9b30c846f6,right,-1,0.75,0.2429,22,-0.047723788,0.1441,,,,,,206,0,206,0,1,,,,,
,,670365,001,2023-07-31_14h42.36.493,arm3_eps,2022.2.5,Win32,59.89817311,60b7e28349c6c6d290dc8075,64c7fed44a04f777bb1e18ce,64c80086bd578f9b30c846f6,right,-1,0.75,0.2429,22,-0.059862066,0.1441,,,,,,207,0,207,0,1,,,,,
,,670365,001,2023-07-31_14h42.36.493,arm3_eps,2022.2.5,Win32,59.89817311,60b7e28349c6c6d290dc8075,64c7fed44a04f777bb1e18ce,64c80086bd578f9b30c846f6,down,1,0.75,0.2429,23,0,0.4436,,,,,,208,0,208,0,1,,,,,
,,670365,001,2023-07-31_14h42.36.493,arm3_eps,2022.2.5,Win32,59.89817311,60b7e28349c6c6d290dc8075,64c7fed44a04f777bb1e18ce,64c80086bd578f9b30c846f6,right,1,0.75,0.2429,23,0.009920055,0.8027,,,,,,209,0,209,0,1,,,,,
,,670365,001,2023-07-31_14h42.36.493,arm3_eps,2022.2.5,Win32,59.89817311,60b7e28349c6c6d290dc8075,64c7fed44a04f777bb1e18ce,64c80086bd578f9b30c846f6,right,1,0.75,0.2429,23,0.012321649,0.1936,,,,,,210,0,210,0,1,,,,,
,,670365,001,2023-07-31_14h42.36.493,arm3_eps,2022.2.5,Win32,59.89817311,60b7e28349c6c6d290dc8075,64c7fed44a04f777bb1e18ce,64c80086bd578f9b30c846f6,right,1,0.75,0.2429,23,0.009475351,0.1943,,,,,,211,0,211,0,1,,,,,
,,670365,001,2023-07-31_14h42.36.493,arm3_eps,2022.2.5,Win32,59.89817311,60b7e28349c6c6d290dc8075,64c7fed44a04f777bb1e18ce,64c80086bd578f9b30c846f6,right,1,0.75,0.2429,23,0.017560752,0.1767,,,,,,212,0,212,0,1,,,,,
,,670365,001,2023-07-31_14h42.36.493,arm3_eps,2022.2.5,Win32,59.89817311,60b7e28349c6c6d290dc8075,64c7fed44a04f777bb1e18ce,64c80086bd578f9b30c846f6,right,1,0.75,0.2429,23,0.013566961,0.1779,,,,,,213,0,213,0,1,,,,,
,,670365,001,2023-07-31_14h42.36.493,arm3_eps,2022.2.5,Win32,59.89817311,60b7e28349c6c6d290dc8075,64c7fed44a04f777bb1e18ce,64c80086bd578f9b30c846f6,right,1,0.75,0.2429,23,0.056202083,0.1337,,,,,,214,0,214,0,1,,,,,
,,670365,001,2023-07-31_14h42.36.493,arm3_eps,2022.2.5,Win32,59.89817311,60b7e28349c6c6d290dc8075,64c7fed44a04f777bb1e18ce,64c80086bd578f9b30c846f6,up,1,0.75,0.2429,24,0,0.4277,,,,,,215,0,215,0,1,,,,,
,,670365,001,2023-07-31_14h42.36.493,arm3_eps,2022.2.5,Win32,59.89817311,60b7e28349c6c6d290dc8075,64c7fed44a04f777bb1e18ce,64c80086bd578f9b30c846f6,right,1,0.75,0.2429,24,-0.040564687,0.5993,,,,,,216,0,216,0,1,,,,,
,,670365,001,2023-07-31_14h42.36.493,arm3_eps,2022.2.5,Win32,59.89817311,60b7e28349c6c6d290dc8075,64c7fed44a04f777bb1e18ce,64c80086bd578f9b30c846f6,right,1,0.75,0.2429,24,-0.008647034,0.1979,,,,,,217,0,217,0,1,,,,,
,,670365,001,2023-07-31_14h42.36.493,arm3_eps,2022.2.5,Win32,59.89817311,60b7e28349c6c6d290dc8075,64c7fed44a04f777bb1e18ce,64c80086bd578f9b30c846f6,right,1,0.75,0.2429,24,-0.013397902,0.1772,,,,,,218,0,218,0,1,,,,,
,,670365,001,2023-07-31_14h42.36.493,arm3_eps,2022.2.5,Win32,59.89817311,60b7e28349c6c6d290dc8075,64c7fed44a04f777bb1e18ce,64c80086bd578f9b30c846f6,right,1,0.75,0.2429,24,-0.032091618,0.1653,,,,,,219,0,219,0,1,,,,,
,,670365,001,2023-07-31_14h42.36.493,arm3_eps,2022.2.5,Win32,59.89817311,60b7e28349c6c6d290dc8075,64c7fed44a04f777bb1e18ce,64c80086bd578f9b30c846f6,right,1,0.75,0.2429,24,0.000693441,0.194,,,,,,220,0,220,0,1,,,,,
,,670365,001,2023-07-31_14h42.36.493,arm3_eps,2022.2.5,Win32,59.89817311,60b7e28349c6c6d290dc8075,64c7fed44a04f777bb1e18ce,64c80086bd578f9b30c846f6,right,1,0.75,0.2429,24,0.014461448,0.1627,,,,,,221,0,221,0,1,,,,,
,,670365,001,2023-07-31_14h42.36.493,arm3_eps,2022.2.5,Win32,59.89817311,60b7e28349c6c6d290dc8075,64c7fed44a04f777bb1e18ce,64c80086bd578f9b30c846f6,right,1,0.75,0.2429,24,0.007138651,0.2938,,,,,,222,0,222,0,1,,,,,
,,670365,001,2023-07-31_14h42.36.493,arm3_eps,2022.2.5,Win32,59.89817311,60b7e28349c6c6d290dc8075,64c7fed44a04f777bb1e18ce,64c80086bd578f9b30c846f6,down,1,0.75,0.2429,23,0,0.663,,,,,,223,0,223,0,1,,,,,
,,670365,001,2023-07-31_14h42.36.493,arm3_eps,2022.2.5,Win32,59.89817311,60b7e28349c6c6d290dc8075,64c7fed44a04f777bb1e18ce,64c80086bd578f9b30c846f6,right,1,0.75,0.2429,23,0.019551654,0.7682,,,,,,224,0,224,0,1,,,,,
,,670365,001,2023-07-31_14h42.36.493,arm3_eps,2022.2.5,Win32,59.89817311,60b7e28349c6c6d290dc8075,64c7fed44a04f777bb1e18ce,64c80086bd578f9b30c846f6,right,1,0.75,0.2429,23,0.01786594,0.1745,,,,,,225,0,225,0,1,,,,,
,,670365,001,2023-07-31_14h42.36.493,arm3_eps,2022.2.5,Win32,59.89817311,60b7e28349c6c6d290dc8075,64c7fed44a04f777bb1e18ce,64c80086bd578f9b30c846f6,right,1,0.75,0.2429,23,-0.010563221,0.1852,,,,,,226,0,226,0,1,,,,,
,,670365,001,2023-07-31_14h42.36.493,arm3_eps,2022.2.5,Win32,59.89817311,60b7e28349c6c6d290dc8075,64c7fed44a04f777bb1e18ce,64c80086bd578f9b30c846f6,right,1,0.75,0.2429,23,0.022538976,0.1954,,,,,,227,0,227,0,1,,,,,
,,670365,001,2023-07-31_14h42.36.493,arm3_eps,2022.2.5,Win32,59.89817311,60b7e28349c6c6d290dc8075,64c7fed44a04f777bb1e18ce,64c80086bd578f9b30c846f6,right,1,0.75,0.2429,23,0.034555374,0.2127,,,,,,228,0,228,0,1,,,,,
,,670365,001,2023-07-31_14h42.36.493,arm3_eps,2022.2.5,Win32,59.89817311,60b7e28349c6c6d290dc8075,64c7fed44a04f777bb1e18ce,64c80086bd578f9b30c846f6,right,1,0.75,0.2429,23,0.042252588,0.1776,,,,,,229,0,229,0,1,,,,,
,,670365,001,2023-07-31_14h42.36.493,arm3_eps,2022.2.5,Win32,59.89817311,60b7e28349c6c6d290dc8075,64c7fed44a04f777bb1e18ce,64c80086bd578f9b30c846f6,up,1,0.75,0.2429,24,0,0.4497,,,,,,230,0,230,0,1,,,,,
,,670365,001,2023-07-31_14h42.36.493,arm3_eps,2022.2.5,Win32,59.89817311,60b7e28349c6c6d290dc8075,64c7fed44a04f777bb1e18ce,64c80086bd578f9b30c846f6,right,1,0.75,0.2429,24,0.021744676,1.015,,,,,,231,0,231,0,1,,,,,
,,670365,001,2023-07-31_14h42.36.493,arm3_eps,2022.2.5,Win32,59.89817311,60b7e28349c6c6d290dc8075,64c7fed44a04f777bb1e18ce,64c80086bd578f9b30c846f6,right,1,0.75,0.2429,24,0.048633402,0.2102,,,,,,232,0,232,0,1,,,,,
,,670365,001,2023-07-31_14h42.36.493,arm3_eps,2022.2.5,Win32,59.89817311,60b7e28349c6c6d290dc8075,64c7fed44a04f777bb1e18ce,64c80086bd578f9b30c846f6,right,1,0.75,0.2429,24,0.051335054,0.1926,,,,,,233,0,233,0,1,,,,,
,,670365,001,2023-07-31_14h42.36.493,arm3_eps,2022.2.5,Win32,59.89817311,60b7e28349c6c6d290dc8075,64c7fed44a04f777bb1e18ce,64c80086bd578f9b30c846f6,up,1,0.75,0.2429,24,0,0.4452,,,,,,234,0,234,0,1,,,,,
,,670365,001,2023-07-31_14h42.36.493,arm3_eps,2022.2.5,Win32,59.89817311,60b7e28349c6c6d290dc8075,64c7fed44a04f777bb1e18ce,64c80086bd578f9b30c846f6,right,1,0.75,0.2429,24,0.016911931,0.6695,,,,,,235,0,235,0,1,,,,,
,,670365,001,2023-07-31_14h42.36.493,arm3_eps,2022.2.5,Win32,59.89817311,60b7e28349c6c6d290dc8075,64c7fed44a04f777bb1e18ce,64c80086bd578f9b30c846f6,right,1,0.75,0.2429,24,0.020961533,0.2102,,,,,,236,0,236,0,1,,,,,
,,670365,001,2023-07-31_14h42.36.493,arm3_eps,2022.2.5,Win32,59.89817311,60b7e28349c6c6d290dc8075,64c7fed44a04f777bb1e18ce,64c80086bd578f9b30c846f6,right,1,0.75,0.2429,24,0.049416132,0.1759,,,,,,237,0,237,0,1,,,,,
,,670365,001,2023-07-31_14h42.36.493,arm3_eps,2022.2.5,Win32,59.89817311,60b7e28349c6c6d290dc8075,64c7fed44a04f777bb1e18ce,64c80086bd578f9b30c846f6,right,1,0.75,0.2429,24,0.050905954,0.1817,,,,,,238,0,238,0,1,,,,,
,,670365,001,2023-07-31_14h42.36.493,arm3_eps,2022.2.5,Win32,59.89817311,60b7e28349c6c6d290dc8075,64c7fed44a04f777bb1e18ce,64c80086bd578f9b30c846f6,right,1,0.75,0.2429,24,0.052176192,0.1938,,,,,,239,0,239,0,1,,,,,
,,670365,001,2023-07-31_14h42.36.493,arm3_eps,2022.2.5,Win32,59.89817311,60b7e28349c6c6d290dc8075,64c7fed44a04f777bb1e18ce,64c80086bd578f9b30c846f6,up,1,0.75,0.2429,25,0,0.4113,,,,,,240,0,240,0,1,,,,,
,,670365,001,2023-07-31_14h42.36.493,arm3_eps,2022.2.5,Win32,59.89817311,60b7e28349c6c6d290dc8075,64c7fed44a04f777bb1e18ce,64c80086bd578f9b30c846f6,right,1,0.75,0.2429,25,0.012402165,0.6664,,,,,,241,0,241,0,1,,,,,
,,670365,001,2023-07-31_14h42.36.493,arm3_eps,2022.2.5,Win32,59.89817311,60b7e28349c6c6d290dc8075,64c7fed44a04f777bb1e18ce,64c80086bd578f9b30c846f6,right,1,0.75,0.2429,25,0.02433327,0.1937,,,,,,242,0,242,0,1,,,,,
,,670365,001,2023-07-31_14h42.36.493,arm3_eps,2022.2.5,Win32,59.89817311,60b7e28349c6c6d290dc8075,64c7fed44a04f777bb1e18ce,64c80086bd578f9b30c846f6,right,1,0.75,0.2429,25,-0.001794549,0.1666,,,,,,243,0,243,0,1,,,,,
,,670365,001,2023-07-31_14h42.36.493,arm3_eps,2022.2.5,Win32,59.89817311,60b7e28349c6c6d290dc8075,64c7fed44a04f777bb1e18ce,64c80086bd578f9b30c846f6,right,1,0.75,0.2429,25,0.016081255,0.2146,,,,,,244,0,244,0,1,,,,,
,,670365,001,2023-07-31_14h42.36.493,arm3_eps,2022.2.5,Win32,59.89817311,60b7e28349c6c6d290dc8075,64c7fed44a04f777bb1e18ce,64c80086bd578f9b30c846f6,right,1,0.75,0.2429,25,0.014844672,0.1807,,,,,,245,0,245,0,1,,,,,
,,670365,001,2023-07-31_14h42.36.493,arm3_eps,2022.2.5,Win32,59.89817311,60b7e28349c6c6d290dc8075,64c7fed44a04f777bb1e18ce,64c80086bd578f9b30c846f6,right,1,0.75,0.2429,25,0.031109521,0.2105,,,,,,246,0,246,0,1,,,,,
,,670365,001,2023-07-31_14h42.36.493,arm3_eps,2022.2.5,Win32,59.89817311,60b7e28349c6c6d290dc8075,64c7fed44a04f777bb1e18ce,64c80086bd578f9b30c846f6,up,1,0.75,0.2429,26,0,1.0339,,,,,,247,0,247,0,1,,,,,
,,670365,001,2023-07-31_14h42.36.493,arm3_eps,2022.2.5,Win32,59.89817311,60b7e28349c6c6d290dc8075,64c7fed44a04f777bb1e18ce,64c80086bd578f9b30c846f6,right,1,0.75,0.2429,26,0.028010687,0.756,,,,,,248,0,248,0,1,,,,,
,,670365,001,2023-07-31_14h42.36.493,arm3_eps,2022.2.5,Win32,59.89817311,60b7e28349c6c6d290dc8075,64c7fed44a04f777bb1e18ce,64c80086bd578f9b30c846f6,right,1,0.75,0.2429,26,0.066242075,0.2271,,,,,,249,0,249,0,1,,,,,
,,670365,001,2023-07-31_14h42.36.493,arm3_eps,2022.2.5,Win32,59.89817311,60b7e28349c6c6d290dc8075,64c7fed44a04f777bb1e18ce,64c80086bd578f9b30c846f6,right,1,0.75,0.2429,26,0.109529365,0.2505,,,,,,250,0,250,0,1,,,,,
,,670365,001,2023-07-31_14h42.36.493,arm3_eps,2022.2.5,Win32,59.89817311,60b7e28349c6c6d290dc8075,64c7fed44a04f777bb1e18ce,64c80086bd578f9b30c846f6,right,1,0.75,0.2429,26,0.118540808,0.1936,,,,,,251,0,251,0,1,,,,,
,,670365,001,2023-07-31_14h42.36.493,arm3_eps,2022.2.5,Win32,59.89817311,60b7e28349c6c6d290dc8075,64c7fed44a04f777bb1e18ce,64c80086bd578f9b30c846f6,up,1,0.75,0.2429,27,0,0.4266,,,,,,252,0,252,0,1,,,,,
,,670365,001,2023-07-31_14h42.36.493,arm3_eps,2022.2.5,Win32,59.89817311,60b7e28349c6c6d290dc8075,64c7fed44a04f777bb1e18ce,64c80086bd578f9b30c846f6,right,1,0.75,0.2429,27,0.00319598,0.8406,,,,,,253,0,253,0,1,,,,,
,,670365,001,2023-07-31_14h42.36.493,arm3_eps,2022.2.5,Win32,59.89817311,60b7e28349c6c6d290dc8075,64c7fed44a04f777bb1e18ce,64c80086bd578f9b30c846f6,right,1,0.75,0.2429,27,0.047718248,0.1694,,,,,,254,0,254,0,1,,,,,
,,670365,001,2023-07-31_14h42.36.493,arm3_eps,2022.2.5,Win32,59.89817311,60b7e28349c6c6d290dc8075,64c7fed44a04f777bb1e18ce,64c80086bd578f9b30c846f6,right,1,0.75,0.2429,27,0.06620697,0.2147,,,,,,255,0,255,0,1,,,,,
,,670365,001,2023-07-31_14h42.36.493,arm3_eps,2022.2.5,Win32,59.89817311,60b7e28349c6c6d290dc8075,64c7fed44a04f777bb1e18ce,64c80086bd578f9b30c846f6,right,1,0.75,0.2429,27,0.097196465,0.176,,,,,,256,0,256,0,1,,,,,
