space_bar.keys,space_bar.rt,participant,session,date,expName,psychopyVersion,OS,frameRate,PROLIFIC_PID,STUDY_ID,SESSION_ID,resp.keys,state,q_prob,eps_prob,score,price,resp.rt,train.thisRepN,train.thisTrialN,train.thisN,train.thisIndex,train.ran,steps.thisRepN,steps.thisTrialN,steps.thisN,steps.thisIndex,steps.ran,blocks.thisRepN,blocks.thisTrialN,blocks.thisN,blocks.thisIndex,blocks.ran
space,67.6619,708132,001,2023-07-31_12h46.30.794,arm3_eps,2022.2.5,Win32,59.79430758,5f3d7b3310ad88134a27f2c7,64c7fed44a04f777bb1e18ce,64c800c2cc715de01dc27de8,,,,,,,,,,,,,,,,,,,,,,
space,5.454,708132,001,2023-07-31_12h46.30.794,arm3_eps,2022.2.5,Win32,59.79430758,5f3d7b3310ad88134a27f2c7,64c7fed44a04f777bb1e18ce,64c800c2cc715de01dc27de8,,,,,,,,,,,,,,,,,,,,,,
space,86.7876,708132,001,2023-07-31_12h46.30.794,arm3_eps,2022.2.5,Win32,59.79430758,5f3d7b3310ad88134a27f2c7,64c7fed44a04f777bb1e18ce,64c800c2cc715de01dc27de8,,,,,,,,,,,,,,,,,,,,,,
space,103.0674,708132,001,2023-07-31_12h46.30.794,arm3_eps,2022.2.5,Win32,59.79430758,5f3d7b3310ad88134a27f2c7,64c7fed44a04f777bb1e18ce,64c800c2cc715de01dc27de8,,,,,,,,,,,,,,,,,,,,,,
space,42.6738,708132,001,2023-07-31_12h46.30.794,arm3_eps,2022.2.5,Win32,59.79430758,5f3d7b3310ad88134a27f2c7,64c7fed44a04f777bb1e18ce,64c800c2cc715de01dc27de8,,,,,,,,,,,,,,,,,,,,,,
space,16.4282,708132,001,2023-07-31_12h46.30.794,arm3_eps,2022.2.5,Win32,59.79430758,5f3d7b3310ad88134a27f2c7,64c7fed44a04f777bb1e18ce,64c800c2cc715de01dc27de8,,,,,,,,,,,,,,,,,,,,,,
space,3.0627,708132,001,2023-07-31_12h46.30.794,arm3_eps,2022.2.5,Win32,59.79430758,5f3d7b3310ad88134a27f2c7,64c7fed44a04f777bb1e18ce,64c800c2cc715de01dc27de8,,,,,,,,,,,,,,,,,,,,,,
,,708132,001,2023-07-31_12h46.30.794,arm3_eps,2022.2.5,Win32,59.79430758,5f3d7b3310ad88134a27f2c7,64c7fed44a04f777bb1e18ce,64c800c2cc715de01dc27de8,right,1,1,0.2429,0,0.002035341,4.3232,0,0,0,0,1,,,,,,,,,,
,,708132,001,2023-07-31_12h46.30.794,arm3_eps,2022.2.5,Win32,59.79430758,5f3d7b3310ad88134a27f2c7,64c7fed44a04f777bb1e18ce,64c800c2cc715de01dc27de8,right,1,1,0.2429,0,0.008098871,1.9515,1,0,1,0,1,,,,,,,,,,
,,708132,001,2023-07-31_12h46.30.794,arm3_eps,2022.2.5,Win32,59.79430758,5f3d7b3310ad88134a27f2c7,64c7fed44a04f777bb1e18ce,64c800c2cc715de01dc27de8,up,1,1,0.2429,1,0,3.6763,2,0,2,0,1,,,,,,,,,,
,,708132,001,2023-07-31_12h46.30.794,arm3_eps,2022.2.5,Win32,59.79430758,5f3d7b3310ad88134a27f2c7,64c7fed44a04f777bb1e18ce,64c800c2cc715de01dc27de8,right,1,1,0.2429,1,0.01172232,2.9213,3,0,3,0,1,,,,,,,,,,
,,708132,001,2023-07-31_12h46.30.794,arm3_eps,2022.2.5,Win32,59.79430758,5f3d7b3310ad88134a27f2c7,64c7fed44a04f777bb1e18ce,64c800c2cc715de01dc27de8,right,1,1,0.2429,1,-0.000656166,0.2683,4,0,4,0,1,,,,,,,,,,
,,708132,001,2023-07-31_12h46.30.794,arm3_eps,2022.2.5,Win32,59.79430758,5f3d7b3310ad88134a27f2c7,64c7fed44a04f777bb1e18ce,64c800c2cc715de01dc27de8,right,1,1,0.2429,1,0.009561445,0.2391,5,0,5,0,1,,,,,,,,,,
,,708132,001,2023-07-31_12h46.30.794,arm3_eps,2022.2.5,Win32,59.79430758,5f3d7b3310ad88134a27f2c7,64c7fed44a04f777bb1e18ce,64c800c2cc715de01dc27de8,right,1,1,0.2429,1,0.011801976,0.2363,6,0,6,0,1,,,,,,,,,,
,,708132,001,2023-07-31_12h46.30.794,arm3_eps,2022.2.5,Win32,59.79430758,5f3d7b3310ad88134a27f2c7,64c7fed44a04f777bb1e18ce,64c800c2cc715de01dc27de8,right,1,1,0.2429,1,-0.008625745,0.2321,7,0,7,0,1,,,,,,,,,,
,,708132,001,2023-07-31_12h46.30.794,arm3_eps,2022.2.5,Win32,59.79430758,5f3d7b3310ad88134a27f2c7,64c7fed44a04f777bb1e18ce,64c800c2cc715de01dc27de8,right,1,1,0.2429,1,-0.018341884,0.1998,8,0,8,0,1,,,,,,,,,,
,,708132,001,2023-07-31_12h46.30.794,arm3_eps,2022.2.5,Win32,59.79430758,5f3d7b3310ad88134a27f2c7,64c7fed44a04f777bb1e18ce,64c800c2cc715de01dc27de8,right,1,1,0.2429,1,0.000640953,0.1744,9,0,9,0,1,,,,,,,,,,
,,708132,001,2023-07-31_12h46.30.794,arm3_eps,2022.2.5,Win32,59.79430758,5f3d7b3310ad88134a27f2c7,64c7fed44a04f777bb1e18ce,64c800c2cc715de01dc27de8,right,1,1,0.2429,1,0.003354716,0.1984,10,0,10,0,1,,,,,,,,,,
,,708132,001,2023-07-31_12h46.30.794,arm3_eps,2022.2.5,Win32,59.79430758,5f3d7b3310ad88134a27f2c7,64c7fed44a04f777bb1e18ce,64c800c2cc715de01dc27de8,right,1,1,0.2429,1,-0.000797982,0.252,11,0,11,0,1,,,,,,,,,,
,,708132,001,2023-07-31_12h46.30.794,arm3_eps,2022.2.5,Win32,59.79430758,5f3d7b3310ad88134a27f2c7,64c7fed44a04f777bb1e18ce,64c800c2cc715de01dc27de8,right,1,1,0.2429,1,0.032465983,0.2162,12,0,12,0,1,,,,,,,,,,
,,708132,001,2023-07-31_12h46.30.794,arm3_eps,2022.2.5,Win32,59.79430758,5f3d7b3310ad88134a27f2c7,64c7fed44a04f777bb1e18ce,64c800c2cc715de01dc27de8,right,1,1,0.2429,1,0.057477304,0.3009,13,0,13,0,1,,,,,,,,,,
,,708132,001,2023-07-31_12h46.30.794,arm3_eps,2022.2.5,Win32,59.79430758,5f3d7b3310ad88134a27f2c7,64c7fed44a04f777bb1e18ce,64c800c2cc715de01dc27de8,right,1,1,0.2429,1,0.062027959,0.401,14,0,14,0,1,,,,,,,,,,
,,708132,001,2023-07-31_12h46.30.794,arm3_eps,2022.2.5,Win32,59.79430758,5f3d7b3310ad88134a27f2c7,64c7fed44a04f777bb1e18ce,64c800c2cc715de01dc27de8,down,-1,1,0.2429,0,0,24.8411,15,0,15,0,1,,,,,,,,,,
,,708132,001,2023-07-31_12h46.30.794,arm3_eps,2022.2.5,Win32,59.79430758,5f3d7b3310ad88134a27f2c7,64c7fed44a04f777bb1e18ce,64c800c2cc715de01dc27de8,right,-1,1,0.2429,0,-0.009938654,3.9177,16,0,16,0,1,,,,,,,,,,
,,708132,001,2023-07-31_12h46.30.794,arm3_eps,2022.2.5,Win32,59.79430758,5f3d7b3310ad88134a27f2c7,64c7fed44a04f777bb1e18ce,64c800c2cc715de01dc27de8,right,-1,1,0.2429,0,-0.051361526,1.9719,17,0,17,0,1,,,,,,,,,,
,,708132,001,2023-07-31_12h46.30.794,arm3_eps,2022.2.5,Win32,59.79430758,5f3d7b3310ad88134a27f2c7,64c7fed44a04f777bb1e18ce,64c800c2cc715de01dc27de8,right,-1,1,0.2429,0,-0.038759643,0.267,18,0,18,0,1,,,,,,,,,,
,,708132,001,2023-07-31_12h46.30.794,arm3_eps,2022.2.5,Win32,59.79430758,5f3d7b3310ad88134a27f2c7,64c7fed44a04f777bb1e18ce,64c800c2cc715de01dc27de8,right,-1,1,0.2429,0,-0.046341986,0.2861,19,0,19,0,1,,,,,,,,,,
,,708132,001,2023-07-31_12h46.30.794,arm3_eps,2022.2.5,Win32,59.79430758,5f3d7b3310ad88134a27f2c7,64c7fed44a04f777bb1e18ce,64c800c2cc715de01dc27de8,right,-1,1,0.2429,0,-0.062947535,0.9528,20,0,20,0,1,,,,,,,,,,
,,708132,001,2023-07-31_12h46.30.794,arm3_eps,2022.2.5,Win32,59.79430758,5f3d7b3310ad88134a27f2c7,64c7fed44a04f777bb1e18ce,64c800c2cc715de01dc27de8,right,-1,1,0.2429,0,-0.077326135,0.1831,21,0,21,0,1,,,,,,,,,,
,,708132,001,2023-07-31_12h46.30.794,arm3_eps,2022.2.5,Win32,59.79430758,5f3d7b3310ad88134a27f2c7,64c7fed44a04f777bb1e18ce,64c800c2cc715de01dc27de8,right,-1,1,0.2429,0,-0.133726934,0.193,22,0,22,0,1,,,,,,,,,,
,,708132,001,2023-07-31_12h46.30.794,arm3_eps,2022.2.5,Win32,59.79430758,5f3d7b3310ad88134a27f2c7,64c7fed44a04f777bb1e18ce,64c800c2cc715de01dc27de8,right,-1,1,0.2429,0,-0.13086214,0.2516,23,0,23,0,1,,,,,,,,,,
,,708132,001,2023-07-31_12h46.30.794,arm3_eps,2022.2.5,Win32,59.79430758,5f3d7b3310ad88134a27f2c7,64c7fed44a04f777bb1e18ce,64c800c2cc715de01dc27de8,right,-1,1,0.2429,0,-0.133403169,0.2506,24,0,24,0,1,,,,,,,,,,
,,708132,001,2023-07-31_12h46.30.794,arm3_eps,2022.2.5,Win32,59.79430758,5f3d7b3310ad88134a27f2c7,64c7fed44a04f777bb1e18ce,64c800c2cc715de01dc27de8,right,-1,1,0.2429,0,-0.123753542,0.2331,25,0,25,0,1,,,,,,,,,,
,,708132,001,2023-07-31_12h46.30.794,arm3_eps,2022.2.5,Win32,59.79430758,5f3d7b3310ad88134a27f2c7,64c7fed44a04f777bb1e18ce,64c800c2cc715de01dc27de8,right,-1,1,0.2429,0,-0.131751679,0.2031,26,0,26,0,1,,,,,,,,,,
,,708132,001,2023-07-31_12h46.30.794,arm3_eps,2022.2.5,Win32,59.79430758,5f3d7b3310ad88134a27f2c7,64c7fed44a04f777bb1e18ce,64c800c2cc715de01dc27de8,right,-1,1,0.2429,0,-0.137305054,0.5058,27,0,27,0,1,,,,,,,,,,
,,708132,001,2023-07-31_12h46.30.794,arm3_eps,2022.2.5,Win32,59.79430758,5f3d7b3310ad88134a27f2c7,64c7fed44a04f777bb1e18ce,64c800c2cc715de01dc27de8,down,-1,1,0.2429,1,0,5.5986,28,0,28,0,1,,,,,,,,,,
,,708132,001,2023-07-31_12h46.30.794,arm3_eps,2022.2.5,Win32,59.79430758,5f3d7b3310ad88134a27f2c7,64c7fed44a04f777bb1e18ce,64c800c2cc715de01dc27de8,right,-1,1,0.2429,1,0.004149864,2.6456,29,0,29,0,1,,,,,,,,,,
,,708132,001,2023-07-31_12h46.30.794,arm3_eps,2022.2.5,Win32,59.79430758,5f3d7b3310ad88134a27f2c7,64c7fed44a04f777bb1e18ce,64c800c2cc715de01dc27de8,right,-1,1,0.2429,1,-0.001564087,0.3434,30,0,30,0,1,,,,,,,,,,
,,708132,001,2023-07-31_12h46.30.794,arm3_eps,2022.2.5,Win32,59.79430758,5f3d7b3310ad88134a27f2c7,64c7fed44a04f777bb1e18ce,64c800c2cc715de01dc27de8,right,-1,1,0.2429,1,-0.027654632,0.2812,31,0,31,0,1,,,,,,,,,,
,,708132,001,2023-07-31_12h46.30.794,arm3_eps,2022.2.5,Win32,59.79430758,5f3d7b3310ad88134a27f2c7,64c7fed44a04f777bb1e18ce,64c800c2cc715de01dc27de8,right,-1,1,0.2429,1,-0.032994286,0.3003,32,0,32,0,1,,,,,,,,,,
,,708132,001,2023-07-31_12h46.30.794,arm3_eps,2022.2.5,Win32,59.79430758,5f3d7b3310ad88134a27f2c7,64c7fed44a04f777bb1e18ce,64c800c2cc715de01dc27de8,right,-1,1,0.2429,1,-0.062842911,0.2912,33,0,33,0,1,,,,,,,,,,
,,708132,001,2023-07-31_12h46.30.794,arm3_eps,2022.2.5,Win32,59.79430758,5f3d7b3310ad88134a27f2c7,64c7fed44a04f777bb1e18ce,64c800c2cc715de01dc27de8,right,-1,1,0.2429,1,-0.075567347,0.3334,34,0,34,0,1,,,,,,,,,,
,,708132,001,2023-07-31_12h46.30.794,arm3_eps,2022.2.5,Win32,59.79430758,5f3d7b3310ad88134a27f2c7,64c7fed44a04f777bb1e18ce,64c800c2cc715de01dc27de8,right,-1,1,0.2429,1,-0.057270409,0.2862,35,0,35,0,1,,,,,,,,,,
,,708132,001,2023-07-31_12h46.30.794,arm3_eps,2022.2.5,Win32,59.79430758,5f3d7b3310ad88134a27f2c7,64c7fed44a04f777bb1e18ce,64c800c2cc715de01dc27de8,right,-1,1,0.2429,1,-0.066781505,0.3164,36,0,36,0,1,,,,,,,,,,
,,708132,001,2023-07-31_12h46.30.794,arm3_eps,2022.2.5,Win32,59.79430758,5f3d7b3310ad88134a27f2c7,64c7fed44a04f777bb1e18ce,64c800c2cc715de01dc27de8,right,-1,1,0.2429,1,-0.068618359,0.3712,37,0,37,0,1,,,,,,,,,,
,,708132,001,2023-07-31_12h46.30.794,arm3_eps,2022.2.5,Win32,59.79430758,5f3d7b3310ad88134a27f2c7,64c7fed44a04f777bb1e18ce,64c800c2cc715de01dc27de8,right,-1,1,0.2429,1,-0.076148054,0.3703,38,0,38,0,1,,,,,,,,,,
,,708132,001,2023-07-31_12h46.30.794,arm3_eps,2022.2.5,Win32,59.79430758,5f3d7b3310ad88134a27f2c7,64c7fed44a04f777bb1e18ce,64c800c2cc715de01dc27de8,right,-1,1,0.2429,1,-0.072323424,0.349,39,0,39,0,1,,,,,,,,,,
,,708132,001,2023-07-31_12h46.30.794,arm3_eps,2022.2.5,Win32,59.79430758,5f3d7b3310ad88134a27f2c7,64c7fed44a04f777bb1e18ce,64c800c2cc715de01dc27de8,right,-1,1,0.2429,1,-0.0809939,0.3832,40,0,40,0,1,,,,,,,,,,
,,708132,001,2023-07-31_12h46.30.794,arm3_eps,2022.2.5,Win32,59.79430758,5f3d7b3310ad88134a27f2c7,64c7fed44a04f777bb1e18ce,64c800c2cc715de01dc27de8,down,-1,1,0.2429,2,0,3.8643,41,0,41,0,1,,,,,,,,,,
,,708132,001,2023-07-31_12h46.30.794,arm3_eps,2022.2.5,Win32,59.79430758,5f3d7b3310ad88134a27f2c7,64c7fed44a04f777bb1e18ce,64c800c2cc715de01dc27de8,right,-1,1,0.2429,2,-0.000476498,2.5378,42,0,42,0,1,,,,,,,,,,
,,708132,001,2023-07-31_12h46.30.794,arm3_eps,2022.2.5,Win32,59.79430758,5f3d7b3310ad88134a27f2c7,64c7fed44a04f777bb1e18ce,64c800c2cc715de01dc27de8,right,-1,1,0.2429,2,-0.005491599,1.7607,43,0,43,0,1,,,,,,,,,,
,,708132,001,2023-07-31_12h46.30.794,arm3_eps,2022.2.5,Win32,59.79430758,5f3d7b3310ad88134a27f2c7,64c7fed44a04f777bb1e18ce,64c800c2cc715de01dc27de8,right,-1,1,0.2429,2,-0.009671471,0.1853,44,0,44,0,1,,,,,,,,,,
,,708132,001,2023-07-31_12h46.30.794,arm3_eps,2022.2.5,Win32,59.79430758,5f3d7b3310ad88134a27f2c7,64c7fed44a04f777bb1e18ce,64c800c2cc715de01dc27de8,right,-1,1,0.2429,2,-0.029516756,0.1683,45,0,45,0,1,,,,,,,,,,
,,708132,001,2023-07-31_12h46.30.794,arm3_eps,2022.2.5,Win32,59.79430758,5f3d7b3310ad88134a27f2c7,64c7fed44a04f777bb1e18ce,64c800c2cc715de01dc27de8,right,-1,1,0.2429,2,-0.059793741,0.1687,46,0,46,0,1,,,,,,,,,,
,,708132,001,2023-07-31_12h46.30.794,arm3_eps,2022.2.5,Win32,59.79430758,5f3d7b3310ad88134a27f2c7,64c7fed44a04f777bb1e18ce,64c800c2cc715de01dc27de8,right,-1,1,0.2429,2,-0.089590499,0.1519,47,0,47,0,1,,,,,,,,,,
,,708132,001,2023-07-31_12h46.30.794,arm3_eps,2022.2.5,Win32,59.79430758,5f3d7b3310ad88134a27f2c7,64c7fed44a04f777bb1e18ce,64c800c2cc715de01dc27de8,right,-1,1,0.2429,2,-0.088174915,0.1522,48,0,48,0,1,,,,,,,,,,
,,708132,001,2023-07-31_12h46.30.794,arm3_eps,2022.2.5,Win32,59.79430758,5f3d7b3310ad88134a27f2c7,64c7fed44a04f777bb1e18ce,64c800c2cc715de01dc27de8,right,-1,1,0.2429,2,-0.067519367,0.1181,49,0,49,0,1,,,,,,,,,,
space,72.2635,708132,001,2023-07-31_12h46.30.794,arm3_eps,2022.2.5,Win32,59.79430758,5f3d7b3310ad88134a27f2c7,64c7fed44a04f777bb1e18ce,64c800c2cc715de01dc27de8,,,,,,,,,,,,,,,,,,,,,,
space,28.7104,708132,001,2023-07-31_12h46.30.794,arm3_eps,2022.2.5,Win32,59.79430758,5f3d7b3310ad88134a27f2c7,64c7fed44a04f777bb1e18ce,64c800c2cc715de01dc27de8,,,,,,,,,,,,,,,,,,,,,,
space,30.4222,708132,001,2023-07-31_12h46.30.794,arm3_eps,2022.2.5,Win32,59.79430758,5f3d7b3310ad88134a27f2c7,64c7fed44a04f777bb1e18ce,64c800c2cc715de01dc27de8,,,,,,,,,,,,,,,,,,,,,,
space,11.794,708132,001,2023-07-31_12h46.30.794,arm3_eps,2022.2.5,Win32,59.79430758,5f3d7b3310ad88134a27f2c7,64c7fed44a04f777bb1e18ce,64c800c2cc715de01dc27de8,,,,,,,,,,,,,,,,,,,,,,
space,55.449,708132,001,2023-07-31_12h46.30.794,arm3_eps,2022.2.5,Win32,59.79430758,5f3d7b3310ad88134a27f2c7,64c7fed44a04f777bb1e18ce,64c800c2cc715de01dc27de8,,,,,,,,,,,,,,,,,,,,,,
space,3.8134,708132,001,2023-07-31_12h46.30.794,arm3_eps,2022.2.5,Win32,59.79430758,5f3d7b3310ad88134a27f2c7,64c7fed44a04f777bb1e18ce,64c800c2cc715de01dc27de8,,,,,,,,,,,,,,,,,,,,,,
,,708132,001,2023-07-31_12h46.30.794,arm3_eps,2022.2.5,Win32,59.79430758,5f3d7b3310ad88134a27f2c7,64c7fed44a04f777bb1e18ce,64c800c2cc715de01dc27de8,right,-1,0.75,0.2429,0,-0.029113287,6.7087,0,0,0,0,1,,,,,,,,,,
,,708132,001,2023-07-31_12h46.30.794,arm3_eps,2022.2.5,Win32,59.79430758,5f3d7b3310ad88134a27f2c7,64c7fed44a04f777bb1e18ce,64c800c2cc715de01dc27de8,right,-1,0.75,0.2429,0,-0.049785307,0.4851,1,0,1,0,1,,,,,,,,,,
,,708132,001,2023-07-31_12h46.30.794,arm3_eps,2022.2.5,Win32,59.79430758,5f3d7b3310ad88134a27f2c7,64c7fed44a04f777bb1e18ce,64c800c2cc715de01dc27de8,right,-1,0.75,0.2429,0,-0.03639118,0.3773,2,0,2,0,1,,,,,,,,,,
,,708132,001,2023-07-31_12h46.30.794,arm3_eps,2022.2.5,Win32,59.79430758,5f3d7b3310ad88134a27f2c7,64c7fed44a04f777bb1e18ce,64c800c2cc715de01dc27de8,right,-1,0.75,0.2429,0,-0.033500662,0.8571,3,0,3,0,1,,,,,,,,,,
,,708132,001,2023-07-31_12h46.30.794,arm3_eps,2022.2.5,Win32,59.79430758,5f3d7b3310ad88134a27f2c7,64c7fed44a04f777bb1e18ce,64c800c2cc715de01dc27de8,down,-1,0.75,0.2429,1,0,2.5953,4,0,4,0,1,,,,,,,,,,
,,708132,001,2023-07-31_12h46.30.794,arm3_eps,2022.2.5,Win32,59.79430758,5f3d7b3310ad88134a27f2c7,64c7fed44a04f777bb1e18ce,64c800c2cc715de01dc27de8,right,-1,0.75,0.2429,1,0.027457846,2.8951,5,0,5,0,1,,,,,,,,,,
,,708132,001,2023-07-31_12h46.30.794,arm3_eps,2022.2.5,Win32,59.79430758,5f3d7b3310ad88134a27f2c7,64c7fed44a04f777bb1e18ce,64c800c2cc715de01dc27de8,right,-1,0.75,0.2429,1,0.036296987,0.4824,6,0,6,0,1,,,,,,,,,,
,,708132,001,2023-07-31_12h46.30.794,arm3_eps,2022.2.5,Win32,59.79430758,5f3d7b3310ad88134a27f2c7,64c7fed44a04f777bb1e18ce,64c800c2cc715de01dc27de8,right,-1,0.75,0.2429,1,0.023889721,0.7146,7,0,7,0,1,,,,,,,,,,
,,708132,001,2023-07-31_12h46.30.794,arm3_eps,2022.2.5,Win32,59.79430758,5f3d7b3310ad88134a27f2c7,64c7fed44a04f777bb1e18ce,64c800c2cc715de01dc27de8,right,-1,0.75,0.2429,1,0.014523451,2.8612,8,0,8,0,1,,,,,,,,,,
,,708132,001,2023-07-31_12h46.30.794,arm3_eps,2022.2.5,Win32,59.79430758,5f3d7b3310ad88134a27f2c7,64c7fed44a04f777bb1e18ce,64c800c2cc715de01dc27de8,down,-1,0.75,0.2429,1,0,0.9151,9,0,9,0,1,,,,,,,,,,
,,708132,001,2023-07-31_12h46.30.794,arm3_eps,2022.2.5,Win32,59.79430758,5f3d7b3310ad88134a27f2c7,64c7fed44a04f777bb1e18ce,64c800c2cc715de01dc27de8,right,-1,0.75,0.2429,1,-0.023830028,1.9759,10,0,10,0,1,,,,,,,,,,
,,708132,001,2023-07-31_12h46.30.794,arm3_eps,2022.2.5,Win32,59.79430758,5f3d7b3310ad88134a27f2c7,64c7fed44a04f777bb1e18ce,64c800c2cc715de01dc27de8,right,-1,0.75,0.2429,1,-0.03082383,0.3798,11,0,11,0,1,,,,,,,,,,
,,708132,001,2023-07-31_12h46.30.794,arm3_eps,2022.2.5,Win32,59.79430758,5f3d7b3310ad88134a27f2c7,64c7fed44a04f777bb1e18ce,64c800c2cc715de01dc27de8,right,-1,0.75,0.2429,1,-0.027483616,0.346,12,0,12,0,1,,,,,,,,,,
,,708132,001,2023-07-31_12h46.30.794,arm3_eps,2022.2.5,Win32,59.79430758,5f3d7b3310ad88134a27f2c7,64c7fed44a04f777bb1e18ce,64c800c2cc715de01dc27de8,right,-1,0.75,0.2429,1,-0.023064336,0.6648,13,0,13,0,1,,,,,,,,,,
,,708132,001,2023-07-31_12h46.30.794,arm3_eps,2022.2.5,Win32,59.79430758,5f3d7b3310ad88134a27f2c7,64c7fed44a04f777bb1e18ce,64c800c2cc715de01dc27de8,right,-1,0.75,0.2429,1,-0.042515939,2.0011,14,0,14,0,1,,,,,,,,,,
,,708132,001,2023-07-31_12h46.30.794,arm3_eps,2022.2.5,Win32,59.79430758,5f3d7b3310ad88134a27f2c7,64c7fed44a04f777bb1e18ce,64c800c2cc715de01dc27de8,down,-1,0.75,0.2429,1,0,0.7545,15,0,15,0,1,,,,,,,,,,
,,708132,001,2023-07-31_12h46.30.794,arm3_eps,2022.2.5,Win32,59.79430758,5f3d7b3310ad88134a27f2c7,64c7fed44a04f777bb1e18ce,64c800c2cc715de01dc27de8,right,-1,0.75,0.2429,1,0.025688396,1.829,16,0,16,0,1,,,,,,,,,,
,,708132,001,2023-07-31_12h46.30.794,arm3_eps,2022.2.5,Win32,59.79430758,5f3d7b3310ad88134a27f2c7,64c7fed44a04f777bb1e18ce,64c800c2cc715de01dc27de8,right,-1,0.75,0.2429,1,-0.006736953,0.4315,17,0,17,0,1,,,,,,,,,,
,,708132,001,2023-07-31_12h46.30.794,arm3_eps,2022.2.5,Win32,59.79430758,5f3d7b3310ad88134a27f2c7,64c7fed44a04f777bb1e18ce,64c800c2cc715de01dc27de8,right,-1,0.75,0.2429,1,-0.004455338,0.4305,18,0,18,0,1,,,,,,,,,,
,,708132,001,2023-07-31_12h46.30.794,arm3_eps,2022.2.5,Win32,59.79430758,5f3d7b3310ad88134a27f2c7,64c7fed44a04f777bb1e18ce,64c800c2cc715de01dc27de8,right,-1,0.75,0.2429,1,-0.025574756,1.3831,19,0,19,0,1,,,,,,,,,,
,,708132,001,2023-07-31_12h46.30.794,arm3_eps,2022.2.5,Win32,59.79430758,5f3d7b3310ad88134a27f2c7,64c7fed44a04f777bb1e18ce,64c800c2cc715de01dc27de8,up,-1,0.75,0.2429,0,0,3.158,20,0,20,0,1,,,,,,,,,,
,,708132,001,2023-07-31_12h46.30.794,arm3_eps,2022.2.5,Win32,59.79430758,5f3d7b3310ad88134a27f2c7,64c7fed44a04f777bb1e18ce,64c800c2cc715de01dc27de8,right,-1,0.75,0.2429,0,-0.004538205,1.0352,21,0,21,0,1,,,,,,,,,,
,,708132,001,2023-07-31_12h46.30.794,arm3_eps,2022.2.5,Win32,59.79430758,5f3d7b3310ad88134a27f2c7,64c7fed44a04f777bb1e18ce,64c800c2cc715de01dc27de8,right,-1,0.75,0.2429,0,-0.008130632,0.4011,22,0,22,0,1,,,,,,,,,,
,,708132,001,2023-07-31_12h46.30.794,arm3_eps,2022.2.5,Win32,59.79430758,5f3d7b3310ad88134a27f2c7,64c7fed44a04f777bb1e18ce,64c800c2cc715de01dc27de8,right,-1,0.75,0.2429,0,-0.024956658,0.3847,23,0,23,0,1,,,,,,,,,,
,,708132,001,2023-07-31_12h46.30.794,arm3_eps,2022.2.5,Win32,59.79430758,5f3d7b3310ad88134a27f2c7,64c7fed44a04f777bb1e18ce,64c800c2cc715de01dc27de8,down,-1,0.75,0.2429,1,0,0.6518,24,0,24,0,1,,,,,,,,,,
,,708132,001,2023-07-31_12h46.30.794,arm3_eps,2022.2.5,Win32,59.79430758,5f3d7b3310ad88134a27f2c7,64c7fed44a04f777bb1e18ce,64c800c2cc715de01dc27de8,right,-1,0.75,0.2429,1,-0.00374351,0.829,25,0,25,0,1,,,,,,,,,,
,,708132,001,2023-07-31_12h46.30.794,arm3_eps,2022.2.5,Win32,59.79430758,5f3d7b3310ad88134a27f2c7,64c7fed44a04f777bb1e18ce,64c800c2cc715de01dc27de8,right,-1,0.75,0.2429,1,0.005086615,0.9842,26,0,26,0,1,,,,,,,,,,
,,708132,001,2023-07-31_12h46.30.794,arm3_eps,2022.2.5,Win32,59.79430758,5f3d7b3310ad88134a27f2c7,64c7fed44a04f777bb1e18ce,64c800c2cc715de01dc27de8,up,-1,0.75,0.2429,0,0,0.9154,27,0,27,0,1,,,,,,,,,,
,,708132,001,2023-07-31_12h46.30.794,arm3_eps,2022.2.5,Win32,59.79430758,5f3d7b3310ad88134a27f2c7,64c7fed44a04f777bb1e18ce,64c800c2cc715de01dc27de8,right,-1,0.75,0.2429,0,-0.017279955,1.1914,28,0,28,0,1,,,,,,,,,,
,,708132,001,2023-07-31_12h46.30.794,arm3_eps,2022.2.5,Win32,59.79430758,5f3d7b3310ad88134a27f2c7,64c7fed44a04f777bb1e18ce,64c800c2cc715de01dc27de8,right,-1,0.75,0.2429,0,-0.023613137,0.7057,29,0,29,0,1,,,,,,,,,,
,,708132,001,2023-07-31_12h46.30.794,arm3_eps,2022.2.5,Win32,59.79430758,5f3d7b3310ad88134a27f2c7,64c7fed44a04f777bb1e18ce,64c800c2cc715de01dc27de8,right,-1,0.75,0.2429,0,-0.026485532,3.9556,30,0,30,0,1,,,,,,,,,,
,,708132,001,2023-07-31_12h46.30.794,arm3_eps,2022.2.5,Win32,59.79430758,5f3d7b3310ad88134a27f2c7,64c7fed44a04f777bb1e18ce,64c800c2cc715de01dc27de8,up,-1,0.75,0.2429,-1,0,2.3283,31,0,31,0,1,,,,,,,,,,
,,708132,001,2023-07-31_12h46.30.794,arm3_eps,2022.2.5,Win32,59.79430758,5f3d7b3310ad88134a27f2c7,64c7fed44a04f777bb1e18ce,64c800c2cc715de01dc27de8,right,-1,0.75,0.2429,-1,0.00370237,0.9811,32,0,32,0,1,,,,,,,,,,
,,708132,001,2023-07-31_12h46.30.794,arm3_eps,2022.2.5,Win32,59.79430758,5f3d7b3310ad88134a27f2c7,64c7fed44a04f777bb1e18ce,64c800c2cc715de01dc27de8,right,-1,0.75,0.2429,-1,0.013545074,0.4508,33,0,33,0,1,,,,,,,,,,
,,708132,001,2023-07-31_12h46.30.794,arm3_eps,2022.2.5,Win32,59.79430758,5f3d7b3310ad88134a27f2c7,64c7fed44a04f777bb1e18ce,64c800c2cc715de01dc27de8,right,-1,0.75,0.2429,-1,0.005256967,1.1036,34,0,34,0,1,,,,,,,,,,
,,708132,001,2023-07-31_12h46.30.794,arm3_eps,2022.2.5,Win32,59.79430758,5f3d7b3310ad88134a27f2c7,64c7fed44a04f777bb1e18ce,64c800c2cc715de01dc27de8,right,-1,0.75,0.2429,-1,-0.002561162,0.9193,35,0,35,0,1,,,,,,,,,,
,,708132,001,2023-07-31_12h46.30.794,arm3_eps,2022.2.5,Win32,59.79430758,5f3d7b3310ad88134a27f2c7,64c7fed44a04f777bb1e18ce,64c800c2cc715de01dc27de8,right,-1,0.75,0.2429,-1,0.01053898,0.769,36,0,36,0,1,,,,,,,,,,
,,708132,001,2023-07-31_12h46.30.794,arm3_eps,2022.2.5,Win32,59.79430758,5f3d7b3310ad88134a27f2c7,64c7fed44a04f777bb1e18ce,64c800c2cc715de01dc27de8,right,-1,0.75,0.2429,-1,0.01451336,0.6195,37,0,37,0,1,,,,,,,,,,
,,708132,001,2023-07-31_12h46.30.794,arm3_eps,2022.2.5,Win32,59.79430758,5f3d7b3310ad88134a27f2c7,64c7fed44a04f777bb1e18ce,64c800c2cc715de01dc27de8,down,-1,0.75,0.2429,0,0,1.906,38,0,38,0,1,,,,,,,,,,
,,708132,001,2023-07-31_12h46.30.794,arm3_eps,2022.2.5,Win32,59.79430758,5f3d7b3310ad88134a27f2c7,64c7fed44a04f777bb1e18ce,64c800c2cc715de01dc27de8,right,-1,0.75,0.2429,0,-0.000665342,2.9376,39,0,39,0,1,,,,,,,,,,
,,708132,001,2023-07-31_12h46.30.794,arm3_eps,2022.2.5,Win32,59.79430758,5f3d7b3310ad88134a27f2c7,64c7fed44a04f777bb1e18ce,64c800c2cc715de01dc27de8,right,-1,0.75,0.2429,0,-0.003956843,0.531,40,0,40,0,1,,,,,,,,,,
,,708132,001,2023-07-31_12h46.30.794,arm3_eps,2022.2.5,Win32,59.79430758,5f3d7b3310ad88134a27f2c7,64c7fed44a04f777bb1e18ce,64c800c2cc715de01dc27de8,down,-1,0.75,0.2429,0,0,1.9018,41,0,41,0,1,,,,,,,,,,
,,708132,001,2023-07-31_12h46.30.794,arm3_eps,2022.2.5,Win32,59.79430758,5f3d7b3310ad88134a27f2c7,64c7fed44a04f777bb1e18ce,64c800c2cc715de01dc27de8,right,-1,0.75,0.2429,0,0.013780361,1.0248,42,0,42,0,1,,,,,,,,,,
,,708132,001,2023-07-31_12h46.30.794,arm3_eps,2022.2.5,Win32,59.79430758,5f3d7b3310ad88134a27f2c7,64c7fed44a04f777bb1e18ce,64c800c2cc715de01dc27de8,up,-1,0.75,0.2429,0,0,1.0221,43,0,43,0,1,,,,,,,,,,
,,708132,001,2023-07-31_12h46.30.794,arm3_eps,2022.2.5,Win32,59.79430758,5f3d7b3310ad88134a27f2c7,64c7fed44a04f777bb1e18ce,64c800c2cc715de01dc27de8,right,-1,0.75,0.2429,0,-0.008514611,1.0368,44,0,44,0,1,,,,,,,,,,
,,708132,001,2023-07-31_12h46.30.794,arm3_eps,2022.2.5,Win32,59.79430758,5f3d7b3310ad88134a27f2c7,64c7fed44a04f777bb1e18ce,64c800c2cc715de01dc27de8,right,-1,0.75,0.2429,0,-0.0176132,3.3946,45,0,45,0,1,,,,,,,,,,
,,708132,001,2023-07-31_12h46.30.794,arm3_eps,2022.2.5,Win32,59.79430758,5f3d7b3310ad88134a27f2c7,64c7fed44a04f777bb1e18ce,64c800c2cc715de01dc27de8,down,-1,0.75,0.2429,1,0,0.6123,46,0,46,0,1,,,,,,,,,,
,,708132,001,2023-07-31_12h46.30.794,arm3_eps,2022.2.5,Win32,59.79430758,5f3d7b3310ad88134a27f2c7,64c7fed44a04f777bb1e18ce,64c800c2cc715de01dc27de8,right,-1,0.75,0.2429,1,0.012378716,4.7588,47,0,47,0,1,,,,,,,,,,
,,708132,001,2023-07-31_12h46.30.794,arm3_eps,2022.2.5,Win32,59.79430758,5f3d7b3310ad88134a27f2c7,64c7fed44a04f777bb1e18ce,64c800c2cc715de01dc27de8,down,-1,0.75,0.2429,2,0,0.6462,48,0,48,0,1,,,,,,,,,,
,,708132,001,2023-07-31_12h46.30.794,arm3_eps,2022.2.5,Win32,59.79430758,5f3d7b3310ad88134a27f2c7,64c7fed44a04f777bb1e18ce,64c800c2cc715de01dc27de8,right,-1,0.75,0.2429,2,0.000772467,3.1856,49,0,49,0,1,,,,,,,,,,
space,56.6576,708132,001,2023-07-31_12h46.30.794,arm3_eps,2022.2.5,Win32,59.79430758,5f3d7b3310ad88134a27f2c7,64c7fed44a04f777bb1e18ce,64c800c2cc715de01dc27de8,,,,,,,,,,,,,,,,,,,,,,
space,21.4411,708132,001,2023-07-31_12h46.30.794,arm3_eps,2022.2.5,Win32,59.79430758,5f3d7b3310ad88134a27f2c7,64c7fed44a04f777bb1e18ce,64c800c2cc715de01dc27de8,,,,,,,,,,,,,,,,,,,,,,
space,1.642,708132,001,2023-07-31_12h46.30.794,arm3_eps,2022.2.5,Win32,59.79430758,5f3d7b3310ad88134a27f2c7,64c7fed44a04f777bb1e18ce,64c800c2cc715de01dc27de8,,,,,,,,,,,,,,,,,,,,,,
,,708132,001,2023-07-31_12h46.30.794,arm3_eps,2022.2.5,Win32,59.79430758,5f3d7b3310ad88134a27f2c7,64c7fed44a04f777bb1e18ce,64c800c2cc715de01dc27de8,up,-1,0.75,0.05,-1,0,2.6299,0,0,0,0,1,,,,,,,,,,
,,708132,001,2023-07-31_12h46.30.794,arm3_eps,2022.2.5,Win32,59.79430758,5f3d7b3310ad88134a27f2c7,64c7fed44a04f777bb1e18ce,64c800c2cc715de01dc27de8,right,-1,0.75,0.05,-1,-0.005966166,1.8788,1,0,1,0,1,,,,,,,,,,
,,708132,001,2023-07-31_12h46.30.794,arm3_eps,2022.2.5,Win32,59.79430758,5f3d7b3310ad88134a27f2c7,64c7fed44a04f777bb1e18ce,64c800c2cc715de01dc27de8,right,-1,0.75,0.05,-1,-0.01385926,0.5128,2,0,2,0,1,,,,,,,,,,
,,708132,001,2023-07-31_12h46.30.794,arm3_eps,2022.2.5,Win32,59.79430758,5f3d7b3310ad88134a27f2c7,64c7fed44a04f777bb1e18ce,64c800c2cc715de01dc27de8,down,-1,0.75,0.05,-1,0,2.2911,3,0,3,0,1,,,,,,,,,,
,,708132,001,2023-07-31_12h46.30.794,arm3_eps,2022.2.5,Win32,59.79430758,5f3d7b3310ad88134a27f2c7,64c7fed44a04f777bb1e18ce,64c800c2cc715de01dc27de8,right,-1,0.75,0.05,-1,-0.020728886,2.6871,4,0,4,0,1,,,,,,,,,,
,,708132,001,2023-07-31_12h46.30.794,arm3_eps,2022.2.5,Win32,59.79430758,5f3d7b3310ad88134a27f2c7,64c7fed44a04f777bb1e18ce,64c800c2cc715de01dc27de8,right,-1,0.75,0.05,-1,-0.036996348,1.2373,5,0,5,0,1,,,,,,,,,,
,,708132,001,2023-07-31_12h46.30.794,arm3_eps,2022.2.5,Win32,59.79430758,5f3d7b3310ad88134a27f2c7,64c7fed44a04f777bb1e18ce,64c800c2cc715de01dc27de8,down,-1,0.75,0.05,0,0,1.7722,6,0,6,0,1,,,,,,,,,,
,,708132,001,2023-07-31_12h46.30.794,arm3_eps,2022.2.5,Win32,59.79430758,5f3d7b3310ad88134a27f2c7,64c7fed44a04f777bb1e18ce,64c800c2cc715de01dc27de8,right,-1,0.75,0.05,0,-0.028015112,4.5247,7,0,7,0,1,,,,,,,,,,
,,708132,001,2023-07-31_12h46.30.794,arm3_eps,2022.2.5,Win32,59.79430758,5f3d7b3310ad88134a27f2c7,64c7fed44a04f777bb1e18ce,64c800c2cc715de01dc27de8,right,-1,0.75,0.05,0,0.004884988,0.9521,8,0,8,0,1,,,,,,,,,,
,,708132,001,2023-07-31_12h46.30.794,arm3_eps,2022.2.5,Win32,59.79430758,5f3d7b3310ad88134a27f2c7,64c7fed44a04f777bb1e18ce,64c800c2cc715de01dc27de8,down,-1,0.75,0.05,1,0,0.6115,9,0,9,0,1,,,,,,,,,,
,,708132,001,2023-07-31_12h46.30.794,arm3_eps,2022.2.5,Win32,59.79430758,5f3d7b3310ad88134a27f2c7,64c7fed44a04f777bb1e18ce,64c800c2cc715de01dc27de8,right,-1,0.75,0.05,1,-0.021249701,3.725,10,0,10,0,1,,,,,,,,,,
,,708132,001,2023-07-31_12h46.30.794,arm3_eps,2022.2.5,Win32,59.79430758,5f3d7b3310ad88134a27f2c7,64c7fed44a04f777bb1e18ce,64c800c2cc715de01dc27de8,down,-1,0.75,0.05,1,0,1.0575,11,0,11,0,1,,,,,,,,,,
,,708132,001,2023-07-31_12h46.30.794,arm3_eps,2022.2.5,Win32,59.79430758,5f3d7b3310ad88134a27f2c7,64c7fed44a04f777bb1e18ce,64c800c2cc715de01dc27de8,right,-1,0.75,0.05,1,0.002572451,1.5088,12,0,12,0,1,,,,,,,,,,
,,708132,001,2023-07-31_12h46.30.794,arm3_eps,2022.2.5,Win32,59.79430758,5f3d7b3310ad88134a27f2c7,64c7fed44a04f777bb1e18ce,64c800c2cc715de01dc27de8,right,-1,0.75,0.05,1,-0.006752104,0.3516,13,0,13,0,1,,,,,,,,,,
,,708132,001,2023-07-31_12h46.30.794,arm3_eps,2022.2.5,Win32,59.79430758,5f3d7b3310ad88134a27f2c7,64c7fed44a04f777bb1e18ce,64c800c2cc715de01dc27de8,down,-1,0.75,0.05,1,0,0.432,14,0,14,0,1,,,,,,,,,,
,,708132,001,2023-07-31_12h46.30.794,arm3_eps,2022.2.5,Win32,59.79430758,5f3d7b3310ad88134a27f2c7,64c7fed44a04f777bb1e18ce,64c800c2cc715de01dc27de8,right,-1,0.75,0.05,1,0.029671255,1.073,15,0,15,0,1,,,,,,,,,,
,,708132,001,2023-07-31_12h46.30.794,arm3_eps,2022.2.5,Win32,59.79430758,5f3d7b3310ad88134a27f2c7,64c7fed44a04f777bb1e18ce,64c800c2cc715de01dc27de8,down,-1,0.75,0.05,2,0,0.9643,16,0,16,0,1,,,,,,,,,,
,,708132,001,2023-07-31_12h46.30.794,arm3_eps,2022.2.5,Win32,59.79430758,5f3d7b3310ad88134a27f2c7,64c7fed44a04f777bb1e18ce,64c800c2cc715de01dc27de8,right,-1,0.75,0.05,2,-0.000878406,0.9296,17,0,17,0,1,,,,,,,,,,
,,708132,001,2023-07-31_12h46.30.794,arm3_eps,2022.2.5,Win32,59.79430758,5f3d7b3310ad88134a27f2c7,64c7fed44a04f777bb1e18ce,64c800c2cc715de01dc27de8,right,-1,0.75,0.05,2,0.003698175,0.4969,18,0,18,0,1,,,,,,,,,,
,,708132,001,2023-07-31_12h46.30.794,arm3_eps,2022.2.5,Win32,59.79430758,5f3d7b3310ad88134a27f2c7,64c7fed44a04f777bb1e18ce,64c800c2cc715de01dc27de8,down,-1,0.75,0.05,2,0,0.4633,19,0,19,0,1,,,,,,,,,,
,,708132,001,2023-07-31_12h46.30.794,arm3_eps,2022.2.5,Win32,59.79430758,5f3d7b3310ad88134a27f2c7,64c7fed44a04f777bb1e18ce,64c800c2cc715de01dc27de8,right,-1,0.75,0.05,2,-0.009539598,0.825,20,0,20,0,1,,,,,,,,,,
,,708132,001,2023-07-31_12h46.30.794,arm3_eps,2022.2.5,Win32,59.79430758,5f3d7b3310ad88134a27f2c7,64c7fed44a04f777bb1e18ce,64c800c2cc715de01dc27de8,down,-1,0.75,0.05,3,0,0.9648,21,0,21,0,1,,,,,,,,,,
,,708132,001,2023-07-31_12h46.30.794,arm3_eps,2022.2.5,Win32,59.79430758,5f3d7b3310ad88134a27f2c7,64c7fed44a04f777bb1e18ce,64c800c2cc715de01dc27de8,right,-1,0.75,0.05,3,-0.054770043,1.5966,22,0,22,0,1,,,,,,,,,,
,,708132,001,2023-07-31_12h46.30.794,arm3_eps,2022.2.5,Win32,59.79430758,5f3d7b3310ad88134a27f2c7,64c7fed44a04f777bb1e18ce,64c800c2cc715de01dc27de8,down,-1,0.75,0.05,4,0,1.2409,23,0,23,0,1,,,,,,,,,,
,,708132,001,2023-07-31_12h46.30.794,arm3_eps,2022.2.5,Win32,59.79430758,5f3d7b3310ad88134a27f2c7,64c7fed44a04f777bb1e18ce,64c800c2cc715de01dc27de8,right,-1,0.75,0.05,4,-0.006618309,1.5853,24,0,24,0,1,,,,,,,,,,
,,708132,001,2023-07-31_12h46.30.794,arm3_eps,2022.2.5,Win32,59.79430758,5f3d7b3310ad88134a27f2c7,64c7fed44a04f777bb1e18ce,64c800c2cc715de01dc27de8,down,-1,0.75,0.05,5,0,1.0697,25,0,25,0,1,,,,,,,,,,
,,708132,001,2023-07-31_12h46.30.794,arm3_eps,2022.2.5,Win32,59.79430758,5f3d7b3310ad88134a27f2c7,64c7fed44a04f777bb1e18ce,64c800c2cc715de01dc27de8,right,-1,0.75,0.05,5,-0.00807847,3.0711,26,0,26,0,1,,,,,,,,,,
,,708132,001,2023-07-31_12h46.30.794,arm3_eps,2022.2.5,Win32,59.79430758,5f3d7b3310ad88134a27f2c7,64c7fed44a04f777bb1e18ce,64c800c2cc715de01dc27de8,down,-1,0.75,0.05,6,0,0.4791,27,0,27,0,1,,,,,,,,,,
,,708132,001,2023-07-31_12h46.30.794,arm3_eps,2022.2.5,Win32,59.79430758,5f3d7b3310ad88134a27f2c7,64c7fed44a04f777bb1e18ce,64c800c2cc715de01dc27de8,right,-1,0.75,0.05,6,-0.033754994,2.0344,28,0,28,0,1,,,,,,,,,,
,,708132,001,2023-07-31_12h46.30.794,arm3_eps,2022.2.5,Win32,59.79430758,5f3d7b3310ad88134a27f2c7,64c7fed44a04f777bb1e18ce,64c800c2cc715de01dc27de8,down,-1,0.75,0.05,7,0,0.7994,29,0,29,0,1,,,,,,,,,,
,,708132,001,2023-07-31_12h46.30.794,arm3_eps,2022.2.5,Win32,59.79430758,5f3d7b3310ad88134a27f2c7,64c7fed44a04f777bb1e18ce,64c800c2cc715de01dc27de8,right,-1,0.75,0.05,7,-0.004804732,1.5343,30,0,30,0,1,,,,,,,,,,
,,708132,001,2023-07-31_12h46.30.794,arm3_eps,2022.2.5,Win32,59.79430758,5f3d7b3310ad88134a27f2c7,64c7fed44a04f777bb1e18ce,64c800c2cc715de01dc27de8,down,-1,0.75,0.05,8,0,0.5001,31,0,31,0,1,,,,,,,,,,
,,708132,001,2023-07-31_12h46.30.794,arm3_eps,2022.2.5,Win32,59.79430758,5f3d7b3310ad88134a27f2c7,64c7fed44a04f777bb1e18ce,64c800c2cc715de01dc27de8,down,-1,0.75,0.05,8,0,1.552,32,0,32,0,1,,,,,,,,,,
,,708132,001,2023-07-31_12h46.30.794,arm3_eps,2022.2.5,Win32,59.79430758,5f3d7b3310ad88134a27f2c7,64c7fed44a04f777bb1e18ce,64c800c2cc715de01dc27de8,down,-1,0.75,0.05,9,0,1.5292,33,0,33,0,1,,,,,,,,,,
,,708132,001,2023-07-31_12h46.30.794,arm3_eps,2022.2.5,Win32,59.79430758,5f3d7b3310ad88134a27f2c7,64c7fed44a04f777bb1e18ce,64c800c2cc715de01dc27de8,right,-1,0.75,0.05,9,-0.004342243,4.5909,34,0,34,0,1,,,,,,,,,,
,,708132,001,2023-07-31_12h46.30.794,arm3_eps,2022.2.5,Win32,59.79430758,5f3d7b3310ad88134a27f2c7,64c7fed44a04f777bb1e18ce,64c800c2cc715de01dc27de8,down,-1,0.75,0.05,10,0,0.6226,35,0,35,0,1,,,,,,,,,,
,,708132,001,2023-07-31_12h46.30.794,arm3_eps,2022.2.5,Win32,59.79430758,5f3d7b3310ad88134a27f2c7,64c7fed44a04f777bb1e18ce,64c800c2cc715de01dc27de8,right,-1,0.75,0.05,10,-0.028031715,4.8842,36,0,36,0,1,,,,,,,,,,
,,708132,001,2023-07-31_12h46.30.794,arm3_eps,2022.2.5,Win32,59.79430758,5f3d7b3310ad88134a27f2c7,64c7fed44a04f777bb1e18ce,64c800c2cc715de01dc27de8,down,-1,0.75,0.05,10,0,0.5225,37,0,37,0,1,,,,,,,,,,
,,708132,001,2023-07-31_12h46.30.794,arm3_eps,2022.2.5,Win32,59.79430758,5f3d7b3310ad88134a27f2c7,64c7fed44a04f777bb1e18ce,64c800c2cc715de01dc27de8,right,-1,0.75,0.05,10,-0.004167943,2.0092,38,0,38,0,1,,,,,,,,,,
,,708132,001,2023-07-31_12h46.30.794,arm3_eps,2022.2.5,Win32,59.79430758,5f3d7b3310ad88134a27f2c7,64c7fed44a04f777bb1e18ce,64c800c2cc715de01dc27de8,down,-1,0.75,0.05,11,0,0.4326,39,0,39,0,1,,,,,,,,,,
,,708132,001,2023-07-31_12h46.30.794,arm3_eps,2022.2.5,Win32,59.79430758,5f3d7b3310ad88134a27f2c7,64c7fed44a04f777bb1e18ce,64c800c2cc715de01dc27de8,down,-1,0.75,0.05,12,0,2.4219,40,0,40,0,1,,,,,,,,,,
,,708132,001,2023-07-31_12h46.30.794,arm3_eps,2022.2.5,Win32,59.79430758,5f3d7b3310ad88134a27f2c7,64c7fed44a04f777bb1e18ce,64c800c2cc715de01dc27de8,down,-1,0.75,0.05,13,0,2.9225,41,0,41,0,1,,,,,,,,,,
,,708132,001,2023-07-31_12h46.30.794,arm3_eps,2022.2.5,Win32,59.79430758,5f3d7b3310ad88134a27f2c7,64c7fed44a04f777bb1e18ce,64c800c2cc715de01dc27de8,right,-1,0.75,0.05,13,0.00108435,2.977,42,0,42,0,1,,,,,,,,,,
,,708132,001,2023-07-31_12h46.30.794,arm3_eps,2022.2.5,Win32,59.79430758,5f3d7b3310ad88134a27f2c7,64c7fed44a04f777bb1e18ce,64c800c2cc715de01dc27de8,down,-1,0.75,0.05,14,0,0.4283,43,0,43,0,1,,,,,,,,,,
,,708132,001,2023-07-31_12h46.30.794,arm3_eps,2022.2.5,Win32,59.79430758,5f3d7b3310ad88134a27f2c7,64c7fed44a04f777bb1e18ce,64c800c2cc715de01dc27de8,down,-1,0.75,0.05,15,0,2.443,44,0,44,0,1,,,,,,,,,,
,,708132,001,2023-07-31_12h46.30.794,arm3_eps,2022.2.5,Win32,59.79430758,5f3d7b3310ad88134a27f2c7,64c7fed44a04f777bb1e18ce,64c800c2cc715de01dc27de8,down,-1,0.75,0.05,16,0,1.5595,45,0,45,0,1,,,,,,,,,,
,,708132,001,2023-07-31_12h46.30.794,arm3_eps,2022.2.5,Win32,59.79430758,5f3d7b3310ad88134a27f2c7,64c7fed44a04f777bb1e18ce,64c800c2cc715de01dc27de8,down,-1,0.75,0.05,17,0,1.0235,46,0,46,0,1,,,,,,,,,,
,,708132,001,2023-07-31_12h46.30.794,arm3_eps,2022.2.5,Win32,59.79430758,5f3d7b3310ad88134a27f2c7,64c7fed44a04f777bb1e18ce,64c800c2cc715de01dc27de8,down,-1,0.75,0.05,18,0,0.8115,47,0,47,0,1,,,,,,,,,,
,,708132,001,2023-07-31_12h46.30.794,arm3_eps,2022.2.5,Win32,59.79430758,5f3d7b3310ad88134a27f2c7,64c7fed44a04f777bb1e18ce,64c800c2cc715de01dc27de8,down,-1,0.75,0.05,18,0,1.6887,48,0,48,0,1,,,,,,,,,,
,,708132,001,2023-07-31_12h46.30.794,arm3_eps,2022.2.5,Win32,59.79430758,5f3d7b3310ad88134a27f2c7,64c7fed44a04f777bb1e18ce,64c800c2cc715de01dc27de8,down,-1,0.75,0.05,18,0,0.7642,49,0,49,0,1,,,,,,,,,,
space,180.2568,708132,001,2023-07-31_12h46.30.794,arm3_eps,2022.2.5,Win32,59.79430758,5f3d7b3310ad88134a27f2c7,64c7fed44a04f777bb1e18ce,64c800c2cc715de01dc27de8,,,,,,,,,,,,,,,,,,,,,,
space,1.5391,708132,001,2023-07-31_12h46.30.794,arm3_eps,2022.2.5,Win32,59.79430758,5f3d7b3310ad88134a27f2c7,64c7fed44a04f777bb1e18ce,64c800c2cc715de01dc27de8,,,,,,,,,,,,,,,,,,,,,,
,,708132,001,2023-07-31_12h46.30.794,arm3_eps,2022.2.5,Win32,59.79430758,5f3d7b3310ad88134a27f2c7,64c7fed44a04f777bb1e18ce,64c800c2cc715de01dc27de8,up,-1,0.75,0.5,-1,0,5.8623,0,0,0,0,1,,,,,,,,,,
,,708132,001,2023-07-31_12h46.30.794,arm3_eps,2022.2.5,Win32,59.79430758,5f3d7b3310ad88134a27f2c7,64c7fed44a04f777bb1e18ce,64c800c2cc715de01dc27de8,down,1,0.75,0.5,0,0,1.351,1,0,1,0,1,,,,,,,,,,
,,708132,001,2023-07-31_12h46.30.794,arm3_eps,2022.2.5,Win32,59.79430758,5f3d7b3310ad88134a27f2c7,64c7fed44a04f777bb1e18ce,64c800c2cc715de01dc27de8,down,-1,0.75,0.5,-1,0,1.0732,2,0,2,0,1,,,,,,,,,,
,,708132,001,2023-07-31_12h46.30.794,arm3_eps,2022.2.5,Win32,59.79430758,5f3d7b3310ad88134a27f2c7,64c7fed44a04f777bb1e18ce,64c800c2cc715de01dc27de8,up,1,0.75,0.5,-2,0,1.4532,3,0,3,0,1,,,,,,,,,,
,,708132,001,2023-07-31_12h46.30.794,arm3_eps,2022.2.5,Win32,59.79430758,5f3d7b3310ad88134a27f2c7,64c7fed44a04f777bb1e18ce,64c800c2cc715de01dc27de8,right,1,0.75,0.5,-2,0.018369069,1.9466,4,0,4,0,1,,,,,,,,,,
,,708132,001,2023-07-31_12h46.30.794,arm3_eps,2022.2.5,Win32,59.79430758,5f3d7b3310ad88134a27f2c7,64c7fed44a04f777bb1e18ce,64c800c2cc715de01dc27de8,down,1,0.75,0.5,-2,0,0.8696,5,0,5,0,1,,,,,,,,,,
,,708132,001,2023-07-31_12h46.30.794,arm3_eps,2022.2.5,Win32,59.79430758,5f3d7b3310ad88134a27f2c7,64c7fed44a04f777bb1e18ce,64c800c2cc715de01dc27de8,down,-1,0.75,0.5,-3,0,4.1339,6,0,6,0,1,,,,,,,,,,
,,708132,001,2023-07-31_12h46.30.794,arm3_eps,2022.2.5,Win32,59.79430758,5f3d7b3310ad88134a27f2c7,64c7fed44a04f777bb1e18ce,64c800c2cc715de01dc27de8,right,-1,0.75,0.5,-3,-0.019859483,3.2985,7,0,7,0,1,,,,,,,,,,
,,708132,001,2023-07-31_12h46.30.794,arm3_eps,2022.2.5,Win32,59.79430758,5f3d7b3310ad88134a27f2c7,64c7fed44a04f777bb1e18ce,64c800c2cc715de01dc27de8,right,-1,0.75,0.5,-3,-0.018756849,0.8192,8,0,8,0,1,,,,,,,,,,
,,708132,001,2023-07-31_12h46.30.794,arm3_eps,2022.2.5,Win32,59.79430758,5f3d7b3310ad88134a27f2c7,64c7fed44a04f777bb1e18ce,64c800c2cc715de01dc27de8,down,1,0.75,0.5,-3,0,0.7178,9,0,9,0,1,,,,,,,,,,
,,708132,001,2023-07-31_12h46.30.794,arm3_eps,2022.2.5,Win32,59.79430758,5f3d7b3310ad88134a27f2c7,64c7fed44a04f777bb1e18ce,64c800c2cc715de01dc27de8,right,1,0.75,0.5,-3,0.008115921,0.936,10,0,10,0,1,,,,,,,,,,
,,708132,001,2023-07-31_12h46.30.794,arm3_eps,2022.2.5,Win32,59.79430758,5f3d7b3310ad88134a27f2c7,64c7fed44a04f777bb1e18ce,64c800c2cc715de01dc27de8,up,-1,0.75,0.5,-2,0,1.0296,11,0,11,0,1,,,,,,,,,,
,,708132,001,2023-07-31_12h46.30.794,arm3_eps,2022.2.5,Win32,59.79430758,5f3d7b3310ad88134a27f2c7,64c7fed44a04f777bb1e18ce,64c800c2cc715de01dc27de8,right,-1,0.75,0.5,-2,-0.047995271,0.9911,12,0,12,0,1,,,,,,,,,,
,,708132,001,2023-07-31_12h46.30.794,arm3_eps,2022.2.5,Win32,59.79430758,5f3d7b3310ad88134a27f2c7,64c7fed44a04f777bb1e18ce,64c800c2cc715de01dc27de8,down,1,0.75,0.5,-2,0,0.8299,13,0,13,0,1,,,,,,,,,,
,,708132,001,2023-07-31_12h46.30.794,arm3_eps,2022.2.5,Win32,59.79430758,5f3d7b3310ad88134a27f2c7,64c7fed44a04f777bb1e18ce,64c800c2cc715de01dc27de8,right,1,0.75,0.5,-2,-0.019025285,0.8386,14,0,14,0,1,,,,,,,,,,
,,708132,001,2023-07-31_12h46.30.794,arm3_eps,2022.2.5,Win32,59.79430758,5f3d7b3310ad88134a27f2c7,64c7fed44a04f777bb1e18ce,64c800c2cc715de01dc27de8,up,1,0.75,0.5,-1,0,2.3533,15,0,15,0,1,,,,,,,,,,
,,708132,001,2023-07-31_12h46.30.794,arm3_eps,2022.2.5,Win32,59.79430758,5f3d7b3310ad88134a27f2c7,64c7fed44a04f777bb1e18ce,64c800c2cc715de01dc27de8,right,1,0.75,0.5,-1,0.013363447,0.9049,16,0,16,0,1,,,,,,,,,,
,,708132,001,2023-07-31_12h46.30.794,arm3_eps,2022.2.5,Win32,59.79430758,5f3d7b3310ad88134a27f2c7,64c7fed44a04f777bb1e18ce,64c800c2cc715de01dc27de8,up,1,0.75,0.5,0,0,0.2974,17,0,17,0,1,,,,,,,,,,
,,708132,001,2023-07-31_12h46.30.794,arm3_eps,2022.2.5,Win32,59.79430758,5f3d7b3310ad88134a27f2c7,64c7fed44a04f777bb1e18ce,64c800c2cc715de01dc27de8,up,-1,0.75,0.5,1,0,0.7884,18,0,18,0,1,,,,,,,,,,
,,708132,001,2023-07-31_12h46.30.794,arm3_eps,2022.2.5,Win32,59.79430758,5f3d7b3310ad88134a27f2c7,64c7fed44a04f777bb1e18ce,64c800c2cc715de01dc27de8,up,1,0.75,0.5,0,0,0.9575,19,0,19,0,1,,,,,,,,,,
,,708132,001,2023-07-31_12h46.30.794,arm3_eps,2022.2.5,Win32,59.79430758,5f3d7b3310ad88134a27f2c7,64c7fed44a04f777bb1e18ce,64c800c2cc715de01dc27de8,right,1,0.75,0.5,0,0.022098564,1.6026,20,0,20,0,1,,,,,,,,,,
,,708132,001,2023-07-31_12h46.30.794,arm3_eps,2022.2.5,Win32,59.79430758,5f3d7b3310ad88134a27f2c7,64c7fed44a04f777bb1e18ce,64c800c2cc715de01dc27de8,right,1,0.75,0.5,0,0.019934062,0.8701,21,0,21,0,1,,,,,,,,,,
,,708132,001,2023-07-31_12h46.30.794,arm3_eps,2022.2.5,Win32,59.79430758,5f3d7b3310ad88134a27f2c7,64c7fed44a04f777bb1e18ce,64c800c2cc715de01dc27de8,up,-1,0.75,0.5,1,0,0.5011,22,0,22,0,1,,,,,,,,,,
,,708132,001,2023-07-31_12h46.30.794,arm3_eps,2022.2.5,Win32,59.79430758,5f3d7b3310ad88134a27f2c7,64c7fed44a04f777bb1e18ce,64c800c2cc715de01dc27de8,up,-1,0.75,0.5,0,0,2.221,23,0,23,0,1,,,,,,,,,,
,,708132,001,2023-07-31_12h46.30.794,arm3_eps,2022.2.5,Win32,59.79430758,5f3d7b3310ad88134a27f2c7,64c7fed44a04f777bb1e18ce,64c800c2cc715de01dc27de8,right,-1,0.75,0.5,0,0.002188242,1.0613,24,0,24,0,1,,,,,,,,,,
,,708132,001,2023-07-31_12h46.30.794,arm3_eps,2022.2.5,Win32,59.79430758,5f3d7b3310ad88134a27f2c7,64c7fed44a04f777bb1e18ce,64c800c2cc715de01dc27de8,up,1,0.75,0.5,-1,0,1.987,25,0,25,0,1,,,,,,,,,,
,,708132,001,2023-07-31_12h46.30.794,arm3_eps,2022.2.5,Win32,59.79430758,5f3d7b3310ad88134a27f2c7,64c7fed44a04f777bb1e18ce,64c800c2cc715de01dc27de8,right,1,0.75,0.5,-1,0.010313357,0.9548,26,0,26,0,1,,,,,,,,,,
,,708132,001,2023-07-31_12h46.30.794,arm3_eps,2022.2.5,Win32,59.79430758,5f3d7b3310ad88134a27f2c7,64c7fed44a04f777bb1e18ce,64c800c2cc715de01dc27de8,right,1,0.75,0.5,-1,0.014069801,0.5847,27,0,27,0,1,,,,,,,,,,
,,708132,001,2023-07-31_12h46.30.794,arm3_eps,2022.2.5,Win32,59.79430758,5f3d7b3310ad88134a27f2c7,64c7fed44a04f777bb1e18ce,64c800c2cc715de01dc27de8,down,-1,0.75,0.5,-2,0,2.5291,28,0,28,0,1,,,,,,,,,,
,,708132,001,2023-07-31_12h46.30.794,arm3_eps,2022.2.5,Win32,59.79430758,5f3d7b3310ad88134a27f2c7,64c7fed44a04f777bb1e18ce,64c800c2cc715de01dc27de8,right,-1,0.75,0.5,-2,0.002627532,1.1096,29,0,29,0,1,,,,,,,,,,
,,708132,001,2023-07-31_12h46.30.794,arm3_eps,2022.2.5,Win32,59.79430758,5f3d7b3310ad88134a27f2c7,64c7fed44a04f777bb1e18ce,64c800c2cc715de01dc27de8,up,-1,0.75,0.5,-3,0,2.4515,30,0,30,0,1,,,,,,,,,,
,,708132,001,2023-07-31_12h46.30.794,arm3_eps,2022.2.5,Win32,59.79430758,5f3d7b3310ad88134a27f2c7,64c7fed44a04f777bb1e18ce,64c800c2cc715de01dc27de8,right,-1,0.75,0.5,-3,0.018309661,2.9466,31,0,31,0,1,,,,,,,,,,
,,708132,001,2023-07-31_12h46.30.794,arm3_eps,2022.2.5,Win32,59.79430758,5f3d7b3310ad88134a27f2c7,64c7fed44a04f777bb1e18ce,64c800c2cc715de01dc27de8,up,-1,0.75,0.5,-4,0,1.1472,32,0,32,0,1,,,,,,,,,,
,,708132,001,2023-07-31_12h46.30.794,arm3_eps,2022.2.5,Win32,59.79430758,5f3d7b3310ad88134a27f2c7,64c7fed44a04f777bb1e18ce,64c800c2cc715de01dc27de8,right,-1,0.75,0.5,-4,-0.028031704,1.6564,33,0,33,0,1,,,,,,,,,,
,,708132,001,2023-07-31_12h46.30.794,arm3_eps,2022.2.5,Win32,59.79430758,5f3d7b3310ad88134a27f2c7,64c7fed44a04f777bb1e18ce,64c800c2cc715de01dc27de8,down,-1,0.75,0.5,-3,0,0.3551,34,0,34,0,1,,,,,,,,,,
,,708132,001,2023-07-31_12h46.30.794,arm3_eps,2022.2.5,Win32,59.79430758,5f3d7b3310ad88134a27f2c7,64c7fed44a04f777bb1e18ce,64c800c2cc715de01dc27de8,right,-1,0.75,0.5,-3,-0.019585287,3.6789,35,0,35,0,1,,,,,,,,,,
,,708132,001,2023-07-31_12h46.30.794,arm3_eps,2022.2.5,Win32,59.79430758,5f3d7b3310ad88134a27f2c7,64c7fed44a04f777bb1e18ce,64c800c2cc715de01dc27de8,down,1,0.75,0.5,-2,0,0.4417,36,0,36,0,1,,,,,,,,,,
,,708132,001,2023-07-31_12h46.30.794,arm3_eps,2022.2.5,Win32,59.79430758,5f3d7b3310ad88134a27f2c7,64c7fed44a04f777bb1e18ce,64c800c2cc715de01dc27de8,down,1,0.75,0.5,-3,0,2.4394,37,0,37,0,1,,,,,,,,,,
,,708132,001,2023-07-31_12h46.30.794,arm3_eps,2022.2.5,Win32,59.79430758,5f3d7b3310ad88134a27f2c7,64c7fed44a04f777bb1e18ce,64c800c2cc715de01dc27de8,up,-1,0.75,0.5,-3,0,1.2631,38,0,38,0,1,,,,,,,,,,
,,708132,001,2023-07-31_12h46.30.794,arm3_eps,2022.2.5,Win32,59.79430758,5f3d7b3310ad88134a27f2c7,64c7fed44a04f777bb1e18ce,64c800c2cc715de01dc27de8,up,1,0.75,0.5,-4,0,1.0478,39,0,39,0,1,,,,,,,,,,
,,708132,001,2023-07-31_12h46.30.794,arm3_eps,2022.2.5,Win32,59.79430758,5f3d7b3310ad88134a27f2c7,64c7fed44a04f777bb1e18ce,64c800c2cc715de01dc27de8,down,1,0.75,0.5,-4,0,1.549,40,0,40,0,1,,,,,,,,,,
,,708132,001,2023-07-31_12h46.30.794,arm3_eps,2022.2.5,Win32,59.79430758,5f3d7b3310ad88134a27f2c7,64c7fed44a04f777bb1e18ce,64c800c2cc715de01dc27de8,right,1,0.75,0.5,-4,0.024290798,1.0772,41,0,41,0,1,,,,,,,,,,
,,708132,001,2023-07-31_12h46.30.794,arm3_eps,2022.2.5,Win32,59.79430758,5f3d7b3310ad88134a27f2c7,64c7fed44a04f777bb1e18ce,64c800c2cc715de01dc27de8,down,-1,0.75,0.5,-5,0,0.7817,42,0,42,0,1,,,,,,,,,,
,,708132,001,2023-07-31_12h46.30.794,arm3_eps,2022.2.5,Win32,59.79430758,5f3d7b3310ad88134a27f2c7,64c7fed44a04f777bb1e18ce,64c800c2cc715de01dc27de8,up,-1,0.75,0.5,-6,0,2.2611,43,0,43,0,1,,,,,,,,,,
,,708132,001,2023-07-31_12h46.30.794,arm3_eps,2022.2.5,Win32,59.79430758,5f3d7b3310ad88134a27f2c7,64c7fed44a04f777bb1e18ce,64c800c2cc715de01dc27de8,down,1,0.75,0.5,-5,0,1.4068,44,0,44,0,1,,,,,,,,,,
,,708132,001,2023-07-31_12h46.30.794,arm3_eps,2022.2.5,Win32,59.79430758,5f3d7b3310ad88134a27f2c7,64c7fed44a04f777bb1e18ce,64c800c2cc715de01dc27de8,down,-1,0.75,0.5,-6,0,1.0046,45,0,45,0,1,,,,,,,,,,
,,708132,001,2023-07-31_12h46.30.794,arm3_eps,2022.2.5,Win32,59.79430758,5f3d7b3310ad88134a27f2c7,64c7fed44a04f777bb1e18ce,64c800c2cc715de01dc27de8,right,-1,0.75,0.5,-6,-0.007633654,1.1228,46,0,46,0,1,,,,,,,,,,
,,708132,001,2023-07-31_12h46.30.794,arm3_eps,2022.2.5,Win32,59.79430758,5f3d7b3310ad88134a27f2c7,64c7fed44a04f777bb1e18ce,64c800c2cc715de01dc27de8,up,-1,0.75,0.5,-6,0,0.4811,47,0,47,0,1,,,,,,,,,,
,,708132,001,2023-07-31_12h46.30.794,arm3_eps,2022.2.5,Win32,59.79430758,5f3d7b3310ad88134a27f2c7,64c7fed44a04f777bb1e18ce,64c800c2cc715de01dc27de8,up,-1,0.75,0.5,-6,0,1.9088,48,0,48,0,1,,,,,,,,,,
,,708132,001,2023-07-31_12h46.30.794,arm3_eps,2022.2.5,Win32,59.79430758,5f3d7b3310ad88134a27f2c7,64c7fed44a04f777bb1e18ce,64c800c2cc715de01dc27de8,right,-1,0.75,0.5,-6,-0.021773201,1.1213,49,0,49,0,1,,,,,,,,,,
space,39.2624,708132,001,2023-07-31_12h46.30.794,arm3_eps,2022.2.5,Win32,59.79430758,5f3d7b3310ad88134a27f2c7,64c7fed44a04f777bb1e18ce,64c800c2cc715de01dc27de8,,,,,,,,,,,,,,,,,,,,,,
space,6.0877,708132,001,2023-07-31_12h46.30.794,arm3_eps,2022.2.5,Win32,59.79430758,5f3d7b3310ad88134a27f2c7,64c7fed44a04f777bb1e18ce,64c800c2cc715de01dc27de8,down,1,0.75,0.5,1,0,2.1017,,,,,,0,0,0,0,1,,,,,
,,708132,001,2023-07-31_12h46.30.794,arm3_eps,2022.2.5,Win32,59.79430758,5f3d7b3310ad88134a27f2c7,64c7fed44a04f777bb1e18ce,64c800c2cc715de01dc27de8,down,1,0.75,0.5,0,0,2.7471,,,,,,1,0,1,0,1,,,,,
,,708132,001,2023-07-31_12h46.30.794,arm3_eps,2022.2.5,Win32,59.79430758,5f3d7b3310ad88134a27f2c7,64c7fed44a04f777bb1e18ce,64c800c2cc715de01dc27de8,right,1,0.75,0.5,0,0.008411432,3.0599,,,,,,2,0,2,0,1,,,,,
,,708132,001,2023-07-31_12h46.30.794,arm3_eps,2022.2.5,Win32,59.79430758,5f3d7b3310ad88134a27f2c7,64c7fed44a04f777bb1e18ce,64c800c2cc715de01dc27de8,down,-1,0.75,0.5,-1,0,1.3144,,,,,,3,0,3,0,1,,,,,
,,708132,001,2023-07-31_12h46.30.794,arm3_eps,2022.2.5,Win32,59.79430758,5f3d7b3310ad88134a27f2c7,64c7fed44a04f777bb1e18ce,64c800c2cc715de01dc27de8,right,-1,0.75,0.5,-1,0.003978427,1.5571,,,,,,4,0,4,0,1,,,,,
,,708132,001,2023-07-31_12h46.30.794,arm3_eps,2022.2.5,Win32,59.79430758,5f3d7b3310ad88134a27f2c7,64c7fed44a04f777bb1e18ce,64c800c2cc715de01dc27de8,up,-1,0.75,0.5,-2,0,0.6165,,,,,,5,0,5,0,1,,,,,
,,708132,001,2023-07-31_12h46.30.794,arm3_eps,2022.2.5,Win32,59.79430758,5f3d7b3310ad88134a27f2c7,64c7fed44a04f777bb1e18ce,64c800c2cc715de01dc27de8,right,-1,0.75,0.5,-2,-0.031850759,1.6238,,,,,,6,0,6,0,1,,,,,
,,708132,001,2023-07-31_12h46.30.794,arm3_eps,2022.2.5,Win32,59.79430758,5f3d7b3310ad88134a27f2c7,64c7fed44a04f777bb1e18ce,64c800c2cc715de01dc27de8,down,1,0.75,0.5,-1,0,0.4952,,,,,,7,0,7,0,1,,,,,
,,708132,001,2023-07-31_12h46.30.794,arm3_eps,2022.2.5,Win32,59.79430758,5f3d7b3310ad88134a27f2c7,64c7fed44a04f777bb1e18ce,64c800c2cc715de01dc27de8,right,1,0.75,0.5,-1,-0.020779109,4.1884,,,,,,8,0,8,0,1,,,,,
,,708132,001,2023-07-31_12h46.30.794,arm3_eps,2022.2.5,Win32,59.79430758,5f3d7b3310ad88134a27f2c7,64c7fed44a04f777bb1e18ce,64c800c2cc715de01dc27de8,down,1,0.75,0.5,-2,0,0.5221,,,,,,9,0,9,0,1,,,,,
,,708132,001,2023-07-31_12h46.30.794,arm3_eps,2022.2.5,Win32,59.79430758,5f3d7b3310ad88134a27f2c7,64c7fed44a04f777bb1e18ce,64c800c2cc715de01dc27de8,right,1,0.75,0.5,-2,0.011936742,3.1918,,,,,,10,0,10,0,1,,,,,
,,708132,001,2023-07-31_12h46.30.794,arm3_eps,2022.2.5,Win32,59.79430758,5f3d7b3310ad88134a27f2c7,64c7fed44a04f777bb1e18ce,64c800c2cc715de01dc27de8,up,1,0.75,0.5,-2,0,0.4679,,,,,,11,0,11,0,1,,,,,
,,708132,001,2023-07-31_12h46.30.794,arm3_eps,2022.2.5,Win32,59.79430758,5f3d7b3310ad88134a27f2c7,64c7fed44a04f777bb1e18ce,64c800c2cc715de01dc27de8,right,1,0.75,0.5,-2,-0.002331052,6.3697,,,,,,12,0,12,0,1,,,,,
,,708132,001,2023-07-31_12h46.30.794,arm3_eps,2022.2.5,Win32,59.79430758,5f3d7b3310ad88134a27f2c7,64c7fed44a04f777bb1e18ce,64c800c2cc715de01dc27de8,right,1,0.75,0.5,-2,-0.004500956,0.4633,,,,,,13,0,13,0,1,,,,,
,,708132,001,2023-07-31_12h46.30.794,arm3_eps,2022.2.5,Win32,59.79430758,5f3d7b3310ad88134a27f2c7,64c7fed44a04f777bb1e18ce,64c800c2cc715de01dc27de8,right,1,0.75,0.5,-2,0.001640638,0.5348,,,,,,14,0,14,0,1,,,,,
,,708132,001,2023-07-31_12h46.30.794,arm3_eps,2022.2.5,Win32,59.79430758,5f3d7b3310ad88134a27f2c7,64c7fed44a04f777bb1e18ce,64c800c2cc715de01dc27de8,right,1,0.75,0.5,-2,0.01080814,1.521,,,,,,15,0,15,0,1,,,,,
,,708132,001,2023-07-31_12h46.30.794,arm3_eps,2022.2.5,Win32,59.79430758,5f3d7b3310ad88134a27f2c7,64c7fed44a04f777bb1e18ce,64c800c2cc715de01dc27de8,right,1,0.75,0.5,-2,0.017884085,0.2164,,,,,,16,0,16,0,1,,,,,
,,708132,001,2023-07-31_12h46.30.794,arm3_eps,2022.2.5,Win32,59.79430758,5f3d7b3310ad88134a27f2c7,64c7fed44a04f777bb1e18ce,64c800c2cc715de01dc27de8,right,1,0.75,0.5,-2,0.005401145,0.1834,,,,,,17,0,17,0,1,,,,,
,,708132,001,2023-07-31_12h46.30.794,arm3_eps,2022.2.5,Win32,59.79430758,5f3d7b3310ad88134a27f2c7,64c7fed44a04f777bb1e18ce,64c800c2cc715de01dc27de8,right,1,0.75,0.5,-2,-0.009839021,0.1849,,,,,,18,0,18,0,1,,,,,
,,708132,001,2023-07-31_12h46.30.794,arm3_eps,2022.2.5,Win32,59.79430758,5f3d7b3310ad88134a27f2c7,64c7fed44a04f777bb1e18ce,64c800c2cc715de01dc27de8,right,1,0.75,0.5,-2,0.006276143,0.1686,,,,,,19,0,19,0,1,,,,,
,,708132,001,2023-07-31_12h46.30.794,arm3_eps,2022.2.5,Win32,59.79430758,5f3d7b3310ad88134a27f2c7,64c7fed44a04f777bb1e18ce,64c800c2cc715de01dc27de8,right,1,0.75,0.5,-2,0.021869597,0.1796,,,,,,20,0,20,0,1,,,,,
,,708132,001,2023-07-31_12h46.30.794,arm3_eps,2022.2.5,Win32,59.79430758,5f3d7b3310ad88134a27f2c7,64c7fed44a04f777bb1e18ce,64c800c2cc715de01dc27de8,right,1,0.75,0.5,-2,-0.01402769,0.2292,,,,,,21,0,21,0,1,,,,,
,,708132,001,2023-07-31_12h46.30.794,arm3_eps,2022.2.5,Win32,59.79430758,5f3d7b3310ad88134a27f2c7,64c7fed44a04f777bb1e18ce,64c800c2cc715de01dc27de8,right,1,0.75,0.5,-2,-0.000110014,0.2784,,,,,,22,0,22,0,1,,,,,
,,708132,001,2023-07-31_12h46.30.794,arm3_eps,2022.2.5,Win32,59.79430758,5f3d7b3310ad88134a27f2c7,64c7fed44a04f777bb1e18ce,64c800c2cc715de01dc27de8,right,1,0.75,0.5,-2,-0.012504878,0.4818,,,,,,23,0,23,0,1,,,,,
,,708132,001,2023-07-31_12h46.30.794,arm3_eps,2022.2.5,Win32,59.79430758,5f3d7b3310ad88134a27f2c7,64c7fed44a04f777bb1e18ce,64c800c2cc715de01dc27de8,down,1,0.75,0.5,-2,0,2.0036,,,,,,24,0,24,0,1,,,,,
,,708132,001,2023-07-31_12h46.30.794,arm3_eps,2022.2.5,Win32,59.79430758,5f3d7b3310ad88134a27f2c7,64c7fed44a04f777bb1e18ce,64c800c2cc715de01dc27de8,right,1,0.75,0.5,-2,-0.008315619,2.997,,,,,,25,0,25,0,1,,,,,
,,708132,001,2023-07-31_12h46.30.794,arm3_eps,2022.2.5,Win32,59.79430758,5f3d7b3310ad88134a27f2c7,64c7fed44a04f777bb1e18ce,64c800c2cc715de01dc27de8,right,1,0.75,0.5,-2,0.015155079,0.2477,,,,,,26,0,26,0,1,,,,,
,,708132,001,2023-07-31_12h46.30.794,arm3_eps,2022.2.5,Win32,59.79430758,5f3d7b3310ad88134a27f2c7,64c7fed44a04f777bb1e18ce,64c800c2cc715de01dc27de8,right,1,0.75,0.5,-2,0.042719371,0.5981,,,,,,27,0,27,0,1,,,,,
,,708132,001,2023-07-31_12h46.30.794,arm3_eps,2022.2.5,Win32,59.79430758,5f3d7b3310ad88134a27f2c7,64c7fed44a04f777bb1e18ce,64c800c2cc715de01dc27de8,right,1,0.75,0.5,-2,0.055245587,0.4598,,,,,,28,0,28,0,1,,,,,
,,708132,001,2023-07-31_12h46.30.794,arm3_eps,2022.2.5,Win32,59.79430758,5f3d7b3310ad88134a27f2c7,64c7fed44a04f777bb1e18ce,64c800c2cc715de01dc27de8,right,1,0.75,0.5,-2,0.070179619,0.2837,,,,,,29,0,29,0,1,,,,,
,,708132,001,2023-07-31_12h46.30.794,arm3_eps,2022.2.5,Win32,59.79430758,5f3d7b3310ad88134a27f2c7,64c7fed44a04f777bb1e18ce,64c800c2cc715de01dc27de8,up,-1,0.75,0.5,-1,0,1.0198,,,,,,30,0,30,0,1,,,,,
,,708132,001,2023-07-31_12h46.30.794,arm3_eps,2022.2.5,Win32,59.79430758,5f3d7b3310ad88134a27f2c7,64c7fed44a04f777bb1e18ce,64c800c2cc715de01dc27de8,right,-1,0.75,0.5,-1,0.029948649,2.1941,,,,,,31,0,31,0,1,,,,,
,,708132,001,2023-07-31_12h46.30.794,arm3_eps,2022.2.5,Win32,59.79430758,5f3d7b3310ad88134a27f2c7,64c7fed44a04f777bb1e18ce,64c800c2cc715de01dc27de8,right,-1,0.75,0.5,-1,0.036593297,0.4211,,,,,,32,0,32,0,1,,,,,
,,708132,001,2023-07-31_12h46.30.794,arm3_eps,2022.2.5,Win32,59.79430758,5f3d7b3310ad88134a27f2c7,64c7fed44a04f777bb1e18ce,64c800c2cc715de01dc27de8,right,-1,0.75,0.5,-1,0.025627059,0.3462,,,,,,33,0,33,0,1,,,,,
,,708132,001,2023-07-31_12h46.30.794,arm3_eps,2022.2.5,Win32,59.79430758,5f3d7b3310ad88134a27f2c7,64c7fed44a04f777bb1e18ce,64c800c2cc715de01dc27de8,right,-1,0.75,0.5,-1,-0.022759392,0.2959,,,,,,34,0,34,0,1,,,,,
,,708132,001,2023-07-31_12h46.30.794,arm3_eps,2022.2.5,Win32,59.79430758,5f3d7b3310ad88134a27f2c7,64c7fed44a04f777bb1e18ce,64c800c2cc715de01dc27de8,right,-1,0.75,0.5,-1,-0.040368414,0.2647,,,,,,35,0,35,0,1,,,,,
,,708132,001,2023-07-31_12h46.30.794,arm3_eps,2022.2.5,Win32,59.79430758,5f3d7b3310ad88134a27f2c7,64c7fed44a04f777bb1e18ce,64c800c2cc715de01dc27de8,right,-1,0.75,0.5,-1,-0.086409887,0.3303,,,,,,36,0,36,0,1,,,,,
,,708132,001,2023-07-31_12h46.30.794,arm3_eps,2022.2.5,Win32,59.79430758,5f3d7b3310ad88134a27f2c7,64c7fed44a04f777bb1e18ce,64c800c2cc715de01dc27de8,down,-1,0.75,0.5,0,0,0.4976,,,,,,37,0,37,0,1,,,,,
,,708132,001,2023-07-31_12h46.30.794,arm3_eps,2022.2.5,Win32,59.79430758,5f3d7b3310ad88134a27f2c7,64c7fed44a04f777bb1e18ce,64c800c2cc715de01dc27de8,right,-1,0.75,0.5,0,-0.011752457,1.8417,,,,,,38,0,38,0,1,,,,,
,,708132,001,2023-07-31_12h46.30.794,arm3_eps,2022.2.5,Win32,59.79430758,5f3d7b3310ad88134a27f2c7,64c7fed44a04f777bb1e18ce,64c800c2cc715de01dc27de8,right,-1,0.75,0.5,0,-0.038106135,0.4478,,,,,,39,0,39,0,1,,,,,
,,708132,001,2023-07-31_12h46.30.794,arm3_eps,2022.2.5,Win32,59.79430758,5f3d7b3310ad88134a27f2c7,64c7fed44a04f777bb1e18ce,64c800c2cc715de01dc27de8,right,-1,0.75,0.5,0,0.005887891,0.5002,,,,,,40,0,40,0,1,,,,,
,,708132,001,2023-07-31_12h46.30.794,arm3_eps,2022.2.5,Win32,59.79430758,5f3d7b3310ad88134a27f2c7,64c7fed44a04f777bb1e18ce,64c800c2cc715de01dc27de8,right,-1,0.75,0.5,0,0.048379519,2.0015,,,,,,41,0,41,0,1,,,,,
,,708132,001,2023-07-31_12h46.30.794,arm3_eps,2022.2.5,Win32,59.79430758,5f3d7b3310ad88134a27f2c7,64c7fed44a04f777bb1e18ce,64c800c2cc715de01dc27de8,up,-1,0.75,0.5,-1,0,2.2703,,,,,,42,0,42,0,1,,,,,
,,708132,001,2023-07-31_12h46.30.794,arm3_eps,2022.2.5,Win32,59.79430758,5f3d7b3310ad88134a27f2c7,64c7fed44a04f777bb1e18ce,64c800c2cc715de01dc27de8,right,-1,0.75,0.5,-1,-0.004171629,2.5577,,,,,,43,0,43,0,1,,,,,
,,708132,001,2023-07-31_12h46.30.794,arm3_eps,2022.2.5,Win32,59.79430758,5f3d7b3310ad88134a27f2c7,64c7fed44a04f777bb1e18ce,64c800c2cc715de01dc27de8,right,-1,0.75,0.5,-1,-0.00250584,0.3154,,,,,,44,0,44,0,1,,,,,
,,708132,001,2023-07-31_12h46.30.794,arm3_eps,2022.2.5,Win32,59.79430758,5f3d7b3310ad88134a27f2c7,64c7fed44a04f777bb1e18ce,64c800c2cc715de01dc27de8,right,-1,0.75,0.5,-1,-0.009492169,0.3486,,,,,,45,0,45,0,1,,,,,
,,708132,001,2023-07-31_12h46.30.794,arm3_eps,2022.2.5,Win32,59.79430758,5f3d7b3310ad88134a27f2c7,64c7fed44a04f777bb1e18ce,64c800c2cc715de01dc27de8,down,-1,0.75,0.5,0,0,0.5977,,,,,,46,0,46,0,1,,,,,
,,708132,001,2023-07-31_12h46.30.794,arm3_eps,2022.2.5,Win32,59.79430758,5f3d7b3310ad88134a27f2c7,64c7fed44a04f777bb1e18ce,64c800c2cc715de01dc27de8,right,-1,0.75,0.5,0,0.001617701,0.8213,,,,,,47,0,47,0,1,,,,,
,,708132,001,2023-07-31_12h46.30.794,arm3_eps,2022.2.5,Win32,59.79430758,5f3d7b3310ad88134a27f2c7,64c7fed44a04f777bb1e18ce,64c800c2cc715de01dc27de8,right,-1,0.75,0.5,0,-0.047447254,0.317,,,,,,48,0,48,0,1,,,,,
,,708132,001,2023-07-31_12h46.30.794,arm3_eps,2022.2.5,Win32,59.79430758,5f3d7b3310ad88134a27f2c7,64c7fed44a04f777bb1e18ce,64c800c2cc715de01dc27de8,down,-1,0.75,0.5,1,0,0.3964,,,,,,49,0,49,0,1,,,,,
,,708132,001,2023-07-31_12h46.30.794,arm3_eps,2022.2.5,Win32,59.79430758,5f3d7b3310ad88134a27f2c7,64c7fed44a04f777bb1e18ce,64c800c2cc715de01dc27de8,down,-1,0.75,0.5,2,0,0.8892,,,,,,50,0,50,0,1,,,,,
,,708132,001,2023-07-31_12h46.30.794,arm3_eps,2022.2.5,Win32,59.79430758,5f3d7b3310ad88134a27f2c7,64c7fed44a04f777bb1e18ce,64c800c2cc715de01dc27de8,down,-1,0.75,0.5,2,0,0.8901,,,,,,51,0,51,0,1,,,,,
,,708132,001,2023-07-31_12h46.30.794,arm3_eps,2022.2.5,Win32,59.79430758,5f3d7b3310ad88134a27f2c7,64c7fed44a04f777bb1e18ce,64c800c2cc715de01dc27de8,down,-1,0.75,0.5,2,0,1.2749,,,,,,52,0,52,0,1,,,,,
,,708132,001,2023-07-31_12h46.30.794,arm3_eps,2022.2.5,Win32,59.79430758,5f3d7b3310ad88134a27f2c7,64c7fed44a04f777bb1e18ce,64c800c2cc715de01dc27de8,down,1,0.75,0.5,3,0,0.9068,,,,,,53,0,53,0,1,,,,,
,,708132,001,2023-07-31_12h46.30.794,arm3_eps,2022.2.5,Win32,59.79430758,5f3d7b3310ad88134a27f2c7,64c7fed44a04f777bb1e18ce,64c800c2cc715de01dc27de8,down,-1,0.75,0.5,2,0,1.4735,,,,,,54,0,54,0,1,,,,,
,,708132,001,2023-07-31_12h46.30.794,arm3_eps,2022.2.5,Win32,59.79430758,5f3d7b3310ad88134a27f2c7,64c7fed44a04f777bb1e18ce,64c800c2cc715de01dc27de8,right,-1,0.75,0.5,2,-0.036141444,1.1793,,,,,,55,0,55,0,1,,,,,
,,708132,001,2023-07-31_12h46.30.794,arm3_eps,2022.2.5,Win32,59.79430758,5f3d7b3310ad88134a27f2c7,64c7fed44a04f777bb1e18ce,64c800c2cc715de01dc27de8,right,-1,0.75,0.5,2,-0.024795782,0.7518,,,,,,56,0,56,0,1,,,,,
,,708132,001,2023-07-31_12h46.30.794,arm3_eps,2022.2.5,Win32,59.79430758,5f3d7b3310ad88134a27f2c7,64c7fed44a04f777bb1e18ce,64c800c2cc715de01dc27de8,down,-1,0.75,0.5,3,0,0.5494,,,,,,57,0,57,0,1,,,,,
,,708132,001,2023-07-31_12h46.30.794,arm3_eps,2022.2.5,Win32,59.79430758,5f3d7b3310ad88134a27f2c7,64c7fed44a04f777bb1e18ce,64c800c2cc715de01dc27de8,right,-1,0.75,0.5,3,-0.023055264,2.6265,,,,,,58,0,58,0,1,,,,,
,,708132,001,2023-07-31_12h46.30.794,arm3_eps,2022.2.5,Win32,59.79430758,5f3d7b3310ad88134a27f2c7,64c7fed44a04f777bb1e18ce,64c800c2cc715de01dc27de8,down,-1,0.75,0.5,4,0,0.4636,,,,,,59,0,59,0,1,,,,,
,,708132,001,2023-07-31_12h46.30.794,arm3_eps,2022.2.5,Win32,59.79430758,5f3d7b3310ad88134a27f2c7,64c7fed44a04f777bb1e18ce,64c800c2cc715de01dc27de8,down,-1,0.75,0.5,5,0,1.8919,,,,,,60,0,60,0,1,,,,,
,,708132,001,2023-07-31_12h46.30.794,arm3_eps,2022.2.5,Win32,59.79430758,5f3d7b3310ad88134a27f2c7,64c7fed44a04f777bb1e18ce,64c800c2cc715de01dc27de8,right,-1,0.75,0.5,5,-0.038027959,0.8898,,,,,,61,0,61,0,1,,,,,
,,708132,001,2023-07-31_12h46.30.794,arm3_eps,2022.2.5,Win32,59.79430758,5f3d7b3310ad88134a27f2c7,64c7fed44a04f777bb1e18ce,64c800c2cc715de01dc27de8,right,-1,0.75,0.5,5,-0.038282731,0.4301,,,,,,62,0,62,0,1,,,,,
,,708132,001,2023-07-31_12h46.30.794,arm3_eps,2022.2.5,Win32,59.79430758,5f3d7b3310ad88134a27f2c7,64c7fed44a04f777bb1e18ce,64c800c2cc715de01dc27de8,down,-1,0.75,0.5,6,0,0.4801,,,,,,63,0,63,0,1,,,,,
,,708132,001,2023-07-31_12h46.30.794,arm3_eps,2022.2.5,Win32,59.79430758,5f3d7b3310ad88134a27f2c7,64c7fed44a04f777bb1e18ce,64c800c2cc715de01dc27de8,right,-1,0.75,0.5,6,-0.038387507,1.2386,,,,,,64,0,64,0,1,,,,,
,,708132,001,2023-07-31_12h46.30.794,arm3_eps,2022.2.5,Win32,59.79430758,5f3d7b3310ad88134a27f2c7,64c7fed44a04f777bb1e18ce,64c800c2cc715de01dc27de8,down,-1,0.75,0.5,6,0,0.4801,,,,,,65,0,65,0,1,,,,,
,,708132,001,2023-07-31_12h46.30.794,arm3_eps,2022.2.5,Win32,59.79430758,5f3d7b3310ad88134a27f2c7,64c7fed44a04f777bb1e18ce,64c800c2cc715de01dc27de8,right,-1,0.75,0.5,6,-0.011631789,0.8517,,,,,,66,0,66,0,1,,,,,
,,708132,001,2023-07-31_12h46.30.794,arm3_eps,2022.2.5,Win32,59.79430758,5f3d7b3310ad88134a27f2c7,64c7fed44a04f777bb1e18ce,64c800c2cc715de01dc27de8,down,1,0.75,0.5,7,0,0.3992,,,,,,67,0,67,0,1,,,,,
,,708132,001,2023-07-31_12h46.30.794,arm3_eps,2022.2.5,Win32,59.79430758,5f3d7b3310ad88134a27f2c7,64c7fed44a04f777bb1e18ce,64c800c2cc715de01dc27de8,right,1,0.75,0.5,7,0.017599106,0.7702,,,,,,68,0,68,0,1,,,,,
,,708132,001,2023-07-31_12h46.30.794,arm3_eps,2022.2.5,Win32,59.79430758,5f3d7b3310ad88134a27f2c7,64c7fed44a04f777bb1e18ce,64c800c2cc715de01dc27de8,right,1,0.75,0.5,7,0.010129485,3.0556,,,,,,69,0,69,0,1,,,,,
,,708132,001,2023-07-31_12h46.30.794,arm3_eps,2022.2.5,Win32,59.79430758,5f3d7b3310ad88134a27f2c7,64c7fed44a04f777bb1e18ce,64c800c2cc715de01dc27de8,right,1,0.75,0.5,7,0.01316228,1.0647,,,,,,70,0,70,0,1,,,,,
,,708132,001,2023-07-31_12h46.30.794,arm3_eps,2022.2.5,Win32,59.79430758,5f3d7b3310ad88134a27f2c7,64c7fed44a04f777bb1e18ce,64c800c2cc715de01dc27de8,down,-1,0.75,0.5,7,0,0.7866,,,,,,71,0,71,0,1,,,,,
,,708132,001,2023-07-31_12h46.30.794,arm3_eps,2022.2.5,Win32,59.79430758,5f3d7b3310ad88134a27f2c7,64c7fed44a04f777bb1e18ce,64c800c2cc715de01dc27de8,right,-1,0.75,0.5,7,-0.022863358,1.3163,,,,,,72,0,72,0,1,,,,,
,,708132,001,2023-07-31_12h46.30.794,arm3_eps,2022.2.5,Win32,59.79430758,5f3d7b3310ad88134a27f2c7,64c7fed44a04f777bb1e18ce,64c800c2cc715de01dc27de8,up,-1,0.75,0.5,7,0,0.9679,,,,,,73,0,73,0,1,,,,,
,,708132,001,2023-07-31_12h46.30.794,arm3_eps,2022.2.5,Win32,59.79430758,5f3d7b3310ad88134a27f2c7,64c7fed44a04f777bb1e18ce,64c800c2cc715de01dc27de8,right,-1,0.75,0.5,7,-0.043865613,0.9388,,,,,,74,0,74,0,1,,,,,
,,708132,001,2023-07-31_12h46.30.794,arm3_eps,2022.2.5,Win32,59.79430758,5f3d7b3310ad88134a27f2c7,64c7fed44a04f777bb1e18ce,64c800c2cc715de01dc27de8,down,-1,0.75,0.5,7,0,0.4465,,,,,,75,0,75,0,1,,,,,
,,708132,001,2023-07-31_12h46.30.794,arm3_eps,2022.2.5,Win32,59.79430758,5f3d7b3310ad88134a27f2c7,64c7fed44a04f777bb1e18ce,64c800c2cc715de01dc27de8,right,-1,0.75,0.5,7,-0.018936472,1.4892,,,,,,76,0,76,0,1,,,,,
,,708132,001,2023-07-31_12h46.30.794,arm3_eps,2022.2.5,Win32,59.79430758,5f3d7b3310ad88134a27f2c7,64c7fed44a04f777bb1e18ce,64c800c2cc715de01dc27de8,right,-1,0.75,0.5,7,-0.006333764,0.9294,,,,,,77,0,77,0,1,,,,,
,,708132,001,2023-07-31_12h46.30.794,arm3_eps,2022.2.5,Win32,59.79430758,5f3d7b3310ad88134a27f2c7,64c7fed44a04f777bb1e18ce,64c800c2cc715de01dc27de8,down,-1,0.75,0.5,8,0,0.4142,,,,,,78,0,78,0,1,,,,,
,,708132,001,2023-07-31_12h46.30.794,arm3_eps,2022.2.5,Win32,59.79430758,5f3d7b3310ad88134a27f2c7,64c7fed44a04f777bb1e18ce,64c800c2cc715de01dc27de8,right,-1,0.75,0.5,8,-0.001413734,1.5751,,,,,,79,0,79,0,1,,,,,
,,708132,001,2023-07-31_12h46.30.794,arm3_eps,2022.2.5,Win32,59.79430758,5f3d7b3310ad88134a27f2c7,64c7fed44a04f777bb1e18ce,64c800c2cc715de01dc27de8,down,-1,0.75,0.5,9,0,0.361,,,,,,80,0,80,0,1,,,,,
,,708132,001,2023-07-31_12h46.30.794,arm3_eps,2022.2.5,Win32,59.79430758,5f3d7b3310ad88134a27f2c7,64c7fed44a04f777bb1e18ce,64c800c2cc715de01dc27de8,down,1,0.75,0.5,9,0,0.8187,,,,,,81,0,81,0,1,,,,,
,,708132,001,2023-07-31_12h46.30.794,arm3_eps,2022.2.5,Win32,59.79430758,5f3d7b3310ad88134a27f2c7,64c7fed44a04f777bb1e18ce,64c800c2cc715de01dc27de8,right,1,0.75,0.5,9,0.023805485,0.7863,,,,,,82,0,82,0,1,,,,,
,,708132,001,2023-07-31_12h46.30.794,arm3_eps,2022.2.5,Win32,59.79430758,5f3d7b3310ad88134a27f2c7,64c7fed44a04f777bb1e18ce,64c800c2cc715de01dc27de8,down,1,0.75,0.5,8,0,0.3801,,,,,,83,0,83,0,1,,,,,
,,708132,001,2023-07-31_12h46.30.794,arm3_eps,2022.2.5,Win32,59.79430758,5f3d7b3310ad88134a27f2c7,64c7fed44a04f777bb1e18ce,64c800c2cc715de01dc27de8,right,1,0.75,0.5,8,0.015251892,0.8714,,,,,,84,0,84,0,1,,,,,
,,708132,001,2023-07-31_12h46.30.794,arm3_eps,2022.2.5,Win32,59.79430758,5f3d7b3310ad88134a27f2c7,64c7fed44a04f777bb1e18ce,64c800c2cc715de01dc27de8,up,-1,0.75,0.5,8,0,0.4994,,,,,,85,0,85,0,1,,,,,
,,708132,001,2023-07-31_12h46.30.794,arm3_eps,2022.2.5,Win32,59.79430758,5f3d7b3310ad88134a27f2c7,64c7fed44a04f777bb1e18ce,64c800c2cc715de01dc27de8,right,-1,0.75,0.5,8,0.000297424,1.5562,,,,,,86,0,86,0,1,,,,,
,,708132,001,2023-07-31_12h46.30.794,arm3_eps,2022.2.5,Win32,59.79430758,5f3d7b3310ad88134a27f2c7,64c7fed44a04f777bb1e18ce,64c800c2cc715de01dc27de8,up,-1,0.75,0.5,7,0,0.5256,,,,,,87,0,87,0,1,,,,,
,,708132,001,2023-07-31_12h46.30.794,arm3_eps,2022.2.5,Win32,59.79430758,5f3d7b3310ad88134a27f2c7,64c7fed44a04f777bb1e18ce,64c800c2cc715de01dc27de8,right,-1,0.75,0.5,7,0.015029883,1.4026,,,,,,88,0,88,0,1,,,,,
,,708132,001,2023-07-31_12h46.30.794,arm3_eps,2022.2.5,Win32,59.79430758,5f3d7b3310ad88134a27f2c7,64c7fed44a04f777bb1e18ce,64c800c2cc715de01dc27de8,down,-1,0.75,0.5,8,0,0.7621,,,,,,89,0,89,0,1,,,,,
,,708132,001,2023-07-31_12h46.30.794,arm3_eps,2022.2.5,Win32,59.79430758,5f3d7b3310ad88134a27f2c7,64c7fed44a04f777bb1e18ce,64c800c2cc715de01dc27de8,right,-1,0.75,0.5,8,0.007524349,2.8289,,,,,,90,0,90,0,1,,,,,
,,708132,001,2023-07-31_12h46.30.794,arm3_eps,2022.2.5,Win32,59.79430758,5f3d7b3310ad88134a27f2c7,64c7fed44a04f777bb1e18ce,64c800c2cc715de01dc27de8,down,1,0.75,0.5,9,0,0.7174,,,,,,91,0,91,0,1,,,,,
,,708132,001,2023-07-31_12h46.30.794,arm3_eps,2022.2.5,Win32,59.79430758,5f3d7b3310ad88134a27f2c7,64c7fed44a04f777bb1e18ce,64c800c2cc715de01dc27de8,down,1,0.75,0.5,9,0,1.1811,,,,,,92,0,92,0,1,,,,,
,,708132,001,2023-07-31_12h46.30.794,arm3_eps,2022.2.5,Win32,59.79430758,5f3d7b3310ad88134a27f2c7,64c7fed44a04f777bb1e18ce,64c800c2cc715de01dc27de8,right,1,0.75,0.5,9,-0.006598798,2.8734,,,,,,93,0,93,0,1,,,,,
,,708132,001,2023-07-31_12h46.30.794,arm3_eps,2022.2.5,Win32,59.79430758,5f3d7b3310ad88134a27f2c7,64c7fed44a04f777bb1e18ce,64c800c2cc715de01dc27de8,down,-1,0.75,0.5,8,0,0.4389,,,,,,94,0,94,0,1,,,,,
,,708132,001,2023-07-31_12h46.30.794,arm3_eps,2022.2.5,Win32,59.79430758,5f3d7b3310ad88134a27f2c7,64c7fed44a04f777bb1e18ce,64c800c2cc715de01dc27de8,down,-1,0.75,0.5,9,0,4.6507,,,,,,95,0,95,0,1,,,,,
,,708132,001,2023-07-31_12h46.30.794,arm3_eps,2022.2.5,Win32,59.79430758,5f3d7b3310ad88134a27f2c7,64c7fed44a04f777bb1e18ce,64c800c2cc715de01dc27de8,right,-1,0.75,0.5,9,-0.001792558,2.4502,,,,,,96,0,96,0,1,,,,,
,,708132,001,2023-07-31_12h46.30.794,arm3_eps,2022.2.5,Win32,59.79430758,5f3d7b3310ad88134a27f2c7,64c7fed44a04f777bb1e18ce,64c800c2cc715de01dc27de8,down,-1,0.75,0.5,9,0,0.3688,,,,,,97,0,97,0,1,,,,,
,,708132,001,2023-07-31_12h46.30.794,arm3_eps,2022.2.5,Win32,59.79430758,5f3d7b3310ad88134a27f2c7,64c7fed44a04f777bb1e18ce,64c800c2cc715de01dc27de8,up,-1,0.75,0.5,8,0,1.2462,,,,,,98,0,98,0,1,,,,,
,,708132,001,2023-07-31_12h46.30.794,arm3_eps,2022.2.5,Win32,59.79430758,5f3d7b3310ad88134a27f2c7,64c7fed44a04f777bb1e18ce,64c800c2cc715de01dc27de8,right,-1,0.75,0.5,8,-0.007521033,0.9878,,,,,,99,0,99,0,1,,,,,
,,708132,001,2023-07-31_12h46.30.794,arm3_eps,2022.2.5,Win32,59.79430758,5f3d7b3310ad88134a27f2c7,64c7fed44a04f777bb1e18ce,64c800c2cc715de01dc27de8,down,1,0.75,0.5,9,0,0.6019,,,,,,100,0,100,0,1,,,,,
,,708132,001,2023-07-31_12h46.30.794,arm3_eps,2022.2.5,Win32,59.79430758,5f3d7b3310ad88134a27f2c7,64c7fed44a04f777bb1e18ce,64c800c2cc715de01dc27de8,down,1,0.75,0.5,8,0,1.397,,,,,,101,0,101,0,1,,,,,
,,708132,001,2023-07-31_12h46.30.794,arm3_eps,2022.2.5,Win32,59.79430758,5f3d7b3310ad88134a27f2c7,64c7fed44a04f777bb1e18ce,64c800c2cc715de01dc27de8,right,1,0.75,0.5,8,-0.000478859,1.1911,,,,,,102,0,102,0,1,,,,,
,,708132,001,2023-07-31_12h46.30.794,arm3_eps,2022.2.5,Win32,59.79430758,5f3d7b3310ad88134a27f2c7,64c7fed44a04f777bb1e18ce,64c800c2cc715de01dc27de8,down,-1,0.75,0.5,7,0,0.2622,,,,,,103,0,103,0,1,,,,,
,,708132,001,2023-07-31_12h46.30.794,arm3_eps,2022.2.5,Win32,59.79430758,5f3d7b3310ad88134a27f2c7,64c7fed44a04f777bb1e18ce,64c800c2cc715de01dc27de8,right,-1,0.75,0.5,7,0.000592813,0.7966,,,,,,104,0,104,0,1,,,,,
,,708132,001,2023-07-31_12h46.30.794,arm3_eps,2022.2.5,Win32,59.79430758,5f3d7b3310ad88134a27f2c7,64c7fed44a04f777bb1e18ce,64c800c2cc715de01dc27de8,up,-1,0.75,0.5,6,0,0.2639,,,,,,105,0,105,0,1,,,,,
,,708132,001,2023-07-31_12h46.30.794,arm3_eps,2022.2.5,Win32,59.79430758,5f3d7b3310ad88134a27f2c7,64c7fed44a04f777bb1e18ce,64c800c2cc715de01dc27de8,right,-1,0.75,0.5,6,-0.014462239,1.038,,,,,,106,0,106,0,1,,,,,
,,708132,001,2023-07-31_12h46.30.794,arm3_eps,2022.2.5,Win32,59.79430758,5f3d7b3310ad88134a27f2c7,64c7fed44a04f777bb1e18ce,64c800c2cc715de01dc27de8,down,1,0.75,0.5,7,0,0.6553,,,,,,107,0,107,0,1,,,,,
,,708132,001,2023-07-31_12h46.30.794,arm3_eps,2022.2.5,Win32,59.79430758,5f3d7b3310ad88134a27f2c7,64c7fed44a04f777bb1e18ce,64c800c2cc715de01dc27de8,down,1,0.75,0.5,7,0,1.8038,,,,,,108,0,108,0,1,,,,,
,,708132,001,2023-07-31_12h46.30.794,arm3_eps,2022.2.5,Win32,59.79430758,5f3d7b3310ad88134a27f2c7,64c7fed44a04f777bb1e18ce,64c800c2cc715de01dc27de8,right,1,0.75,0.5,7,0.029336827,0.8143,,,,,,109,0,109,0,1,,,,,
,,708132,001,2023-07-31_12h46.30.794,arm3_eps,2022.2.5,Win32,59.79430758,5f3d7b3310ad88134a27f2c7,64c7fed44a04f777bb1e18ce,64c800c2cc715de01dc27de8,up,1,0.75,0.5,8,0,1.1032,,,,,,110,0,110,0,1,,,,,
,,708132,001,2023-07-31_12h46.30.794,arm3_eps,2022.2.5,Win32,59.79430758,5f3d7b3310ad88134a27f2c7,64c7fed44a04f777bb1e18ce,64c800c2cc715de01dc27de8,right,1,0.75,0.5,8,0.027517461,1.2341,,,,,,111,0,111,0,1,,,,,
,,708132,001,2023-07-31_12h46.30.794,arm3_eps,2022.2.5,Win32,59.79430758,5f3d7b3310ad88134a27f2c7,64c7fed44a04f777bb1e18ce,64c800c2cc715de01dc27de8,right,1,0.75,0.5,8,0.012073321,7.4857,,,,,,112,0,112,0,1,,,,,
,,708132,001,2023-07-31_12h46.30.794,arm3_eps,2022.2.5,Win32,59.79430758,5f3d7b3310ad88134a27f2c7,64c7fed44a04f777bb1e18ce,64c800c2cc715de01dc27de8,up,1,0.75,0.5,9,0,1.457,,,,,,113,0,113,0,1,,,,,
,,708132,001,2023-07-31_12h46.30.794,arm3_eps,2022.2.5,Win32,59.79430758,5f3d7b3310ad88134a27f2c7,64c7fed44a04f777bb1e18ce,64c800c2cc715de01dc27de8,right,1,0.75,0.5,9,-0.003023165,0.9706,,,,,,114,0,114,0,1,,,,,
,,708132,001,2023-07-31_12h46.30.794,arm3_eps,2022.2.5,Win32,59.79430758,5f3d7b3310ad88134a27f2c7,64c7fed44a04f777bb1e18ce,64c800c2cc715de01dc27de8,down,-1,0.75,0.5,8,0,0.639,,,,,,115,0,115,0,1,,,,,
,,708132,001,2023-07-31_12h46.30.794,arm3_eps,2022.2.5,Win32,59.79430758,5f3d7b3310ad88134a27f2c7,64c7fed44a04f777bb1e18ce,64c800c2cc715de01dc27de8,up,1,0.75,0.5,7,0,3.5642,,,,,,116,0,116,0,1,,,,,
,,708132,001,2023-07-31_12h46.30.794,arm3_eps,2022.2.5,Win32,59.79430758,5f3d7b3310ad88134a27f2c7,64c7fed44a04f777bb1e18ce,64c800c2cc715de01dc27de8,right,1,0.75,0.5,7,0.027704662,0.9993,,,,,,117,0,117,0,1,,,,,
,,708132,001,2023-07-31_12h46.30.794,arm3_eps,2022.2.5,Win32,59.79430758,5f3d7b3310ad88134a27f2c7,64c7fed44a04f777bb1e18ce,64c800c2cc715de01dc27de8,down,-1,0.75,0.5,7,0,0.3257,,,,,,118,0,118,0,1,,,,,
,,708132,001,2023-07-31_12h46.30.794,arm3_eps,2022.2.5,Win32,59.79430758,5f3d7b3310ad88134a27f2c7,64c7fed44a04f777bb1e18ce,64c800c2cc715de01dc27de8,down,1,0.75,0.5,8,0,2.0365,,,,,,119,0,119,0,1,,,,,
,,708132,001,2023-07-31_12h46.30.794,arm3_eps,2022.2.5,Win32,59.79430758,5f3d7b3310ad88134a27f2c7,64c7fed44a04f777bb1e18ce,64c800c2cc715de01dc27de8,down,-1,0.75,0.5,8,0,2.9247,,,,,,120,0,120,0,1,,,,,
,,708132,001,2023-07-31_12h46.30.794,arm3_eps,2022.2.5,Win32,59.79430758,5f3d7b3310ad88134a27f2c7,64c7fed44a04f777bb1e18ce,64c800c2cc715de01dc27de8,down,-1,0.75,0.5,9,0,1.4032,,,,,,121,0,121,0,1,,,,,
,,708132,001,2023-07-31_12h46.30.794,arm3_eps,2022.2.5,Win32,59.79430758,5f3d7b3310ad88134a27f2c7,64c7fed44a04f777bb1e18ce,64c800c2cc715de01dc27de8,down,1,0.75,0.5,10,0,1.2221,,,,,,122,0,122,0,1,,,,,
,,708132,001,2023-07-31_12h46.30.794,arm3_eps,2022.2.5,Win32,59.79430758,5f3d7b3310ad88134a27f2c7,64c7fed44a04f777bb1e18ce,64c800c2cc715de01dc27de8,up,1,0.75,0.5,11,0,1.1992,,,,,,123,0,123,0,1,,,,,
,,708132,001,2023-07-31_12h46.30.794,arm3_eps,2022.2.5,Win32,59.79430758,5f3d7b3310ad88134a27f2c7,64c7fed44a04f777bb1e18ce,64c800c2cc715de01dc27de8,up,1,0.75,0.5,12,0,1.355,,,,,,124,0,124,0,1,,,,,
,,708132,001,2023-07-31_12h46.30.794,arm3_eps,2022.2.5,Win32,59.79430758,5f3d7b3310ad88134a27f2c7,64c7fed44a04f777bb1e18ce,64c800c2cc715de01dc27de8,down,1,0.75,0.5,11,0,2.3015,,,,,,125,0,125,0,1,,,,,
,,708132,001,2023-07-31_12h46.30.794,arm3_eps,2022.2.5,Win32,59.79430758,5f3d7b3310ad88134a27f2c7,64c7fed44a04f777bb1e18ce,64c800c2cc715de01dc27de8,down,1,0.75,0.5,11,0,1.2413,,,,,,126,0,126,0,1,,,,,
,,708132,001,2023-07-31_12h46.30.794,arm3_eps,2022.2.5,Win32,59.79430758,5f3d7b3310ad88134a27f2c7,64c7fed44a04f777bb1e18ce,64c800c2cc715de01dc27de8,up,-1,0.75,0.5,12,0,1.1811,,,,,,127,0,127,0,1,,,,,
,,708132,001,2023-07-31_12h46.30.794,arm3_eps,2022.2.5,Win32,59.79430758,5f3d7b3310ad88134a27f2c7,64c7fed44a04f777bb1e18ce,64c800c2cc715de01dc27de8,down,1,0.75,0.5,12,0,1.0334,,,,,,128,0,128,0,1,,,,,
,,708132,001,2023-07-31_12h46.30.794,arm3_eps,2022.2.5,Win32,59.79430758,5f3d7b3310ad88134a27f2c7,64c7fed44a04f777bb1e18ce,64c800c2cc715de01dc27de8,up,1,0.75,0.5,13,0,1.0972,,,,,,129,0,129,0,1,,,,,
,,708132,001,2023-07-31_12h46.30.794,arm3_eps,2022.2.5,Win32,59.79430758,5f3d7b3310ad88134a27f2c7,64c7fed44a04f777bb1e18ce,64c800c2cc715de01dc27de8,up,-1,0.75,0.5,14,0,2.5758,,,,,,130,0,130,0,1,,,,,
,,708132,001,2023-07-31_12h46.30.794,arm3_eps,2022.2.5,Win32,59.79430758,5f3d7b3310ad88134a27f2c7,64c7fed44a04f777bb1e18ce,64c800c2cc715de01dc27de8,up,-1,0.75,0.5,13,0,1.8162,,,,,,131,0,131,0,1,,,,,
,,708132,001,2023-07-31_12h46.30.794,arm3_eps,2022.2.5,Win32,59.79430758,5f3d7b3310ad88134a27f2c7,64c7fed44a04f777bb1e18ce,64c800c2cc715de01dc27de8,down,1,0.75,0.5,13,0,2.4195,,,,,,132,0,132,0,1,,,,,
,,708132,001,2023-07-31_12h46.30.794,arm3_eps,2022.2.5,Win32,59.79430758,5f3d7b3310ad88134a27f2c7,64c7fed44a04f777bb1e18ce,64c800c2cc715de01dc27de8,down,1,0.75,0.5,12,0,1.8257,,,,,,133,0,133,0,1,,,,,
,,708132,001,2023-07-31_12h46.30.794,arm3_eps,2022.2.5,Win32,59.79430758,5f3d7b3310ad88134a27f2c7,64c7fed44a04f777bb1e18ce,64c800c2cc715de01dc27de8,right,1,0.75,0.5,12,0.008672884,1.2411,,,,,,134,0,134,0,1,,,,,
,,708132,001,2023-07-31_12h46.30.794,arm3_eps,2022.2.5,Win32,59.79430758,5f3d7b3310ad88134a27f2c7,64c7fed44a04f777bb1e18ce,64c800c2cc715de01dc27de8,down,-1,0.75,0.5,11,0,0.4707,,,,,,135,0,135,0,1,,,,,
,,708132,001,2023-07-31_12h46.30.794,arm3_eps,2022.2.5,Win32,59.79430758,5f3d7b3310ad88134a27f2c7,64c7fed44a04f777bb1e18ce,64c800c2cc715de01dc27de8,right,-1,0.75,0.5,11,0.00577701,1.0681,,,,,,136,0,136,0,1,,,,,
,,708132,001,2023-07-31_12h46.30.794,arm3_eps,2022.2.5,Win32,59.79430758,5f3d7b3310ad88134a27f2c7,64c7fed44a04f777bb1e18ce,64c800c2cc715de01dc27de8,down,-1,0.75,0.5,12,0,0.5181,,,,,,137,0,137,0,1,,,,,
,,708132,001,2023-07-31_12h46.30.794,arm3_eps,2022.2.5,Win32,59.79430758,5f3d7b3310ad88134a27f2c7,64c7fed44a04f777bb1e18ce,64c800c2cc715de01dc27de8,down,-1,0.75,0.5,13,0,1.473,,,,,,138,0,138,0,1,,,,,
,,708132,001,2023-07-31_12h46.30.794,arm3_eps,2022.2.5,Win32,59.79430758,5f3d7b3310ad88134a27f2c7,64c7fed44a04f777bb1e18ce,64c800c2cc715de01dc27de8,down,-1,0.75,0.5,14,0,1.9045,,,,,,139,0,139,0,1,,,,,
,,708132,001,2023-07-31_12h46.30.794,arm3_eps,2022.2.5,Win32,59.79430758,5f3d7b3310ad88134a27f2c7,64c7fed44a04f777bb1e18ce,64c800c2cc715de01dc27de8,right,-1,0.75,0.5,14,-0.003018684,2.6694,,,,,,140,0,140,0,1,,,,,
,,708132,001,2023-07-31_12h46.30.794,arm3_eps,2022.2.5,Win32,59.79430758,5f3d7b3310ad88134a27f2c7,64c7fed44a04f777bb1e18ce,64c800c2cc715de01dc27de8,down,1,0.75,0.5,15,0,0.4865,,,,,,141,0,141,0,1,,,,,
,,708132,001,2023-07-31_12h46.30.794,arm3_eps,2022.2.5,Win32,59.79430758,5f3d7b3310ad88134a27f2c7,64c7fed44a04f777bb1e18ce,64c800c2cc715de01dc27de8,right,1,0.75,0.5,15,-0.001715152,1.6745,,,,,,142,0,142,0,1,,,,,
,,708132,001,2023-07-31_12h46.30.794,arm3_eps,2022.2.5,Win32,59.79430758,5f3d7b3310ad88134a27f2c7,64c7fed44a04f777bb1e18ce,64c800c2cc715de01dc27de8,up,-1,0.75,0.5,15,0,1.0865,,,,,,143,0,143,0,1,,,,,
,,708132,001,2023-07-31_12h46.30.794,arm3_eps,2022.2.5,Win32,59.79430758,5f3d7b3310ad88134a27f2c7,64c7fed44a04f777bb1e18ce,64c800c2cc715de01dc27de8,right,-1,0.75,0.5,15,-0.001477954,3.4657,,,,,,144,0,144,0,1,,,,,
,,708132,001,2023-07-31_12h46.30.794,arm3_eps,2022.2.5,Win32,59.79430758,5f3d7b3310ad88134a27f2c7,64c7fed44a04f777bb1e18ce,64c800c2cc715de01dc27de8,down,1,0.75,0.5,16,0,0.3762,,,,,,145,0,145,0,1,,,,,
,,708132,001,2023-07-31_12h46.30.794,arm3_eps,2022.2.5,Win32,59.79430758,5f3d7b3310ad88134a27f2c7,64c7fed44a04f777bb1e18ce,64c800c2cc715de01dc27de8,up,1,0.75,0.5,17,0,1.1223,,,,,,146,0,146,0,1,,,,,
,,708132,001,2023-07-31_12h46.30.794,arm3_eps,2022.2.5,Win32,59.79430758,5f3d7b3310ad88134a27f2c7,64c7fed44a04f777bb1e18ce,64c800c2cc715de01dc27de8,right,1,0.75,0.5,17,0.003695117,1.4223,,,,,,147,0,147,0,1,,,,,
,,708132,001,2023-07-31_12h46.30.794,arm3_eps,2022.2.5,Win32,59.79430758,5f3d7b3310ad88134a27f2c7,64c7fed44a04f777bb1e18ce,64c800c2cc715de01dc27de8,up,-1,0.75,0.5,18,0,0.4815,,,,,,148,0,148,0,1,,,,,
,,708132,001,2023-07-31_12h46.30.794,arm3_eps,2022.2.5,Win32,59.79430758,5f3d7b3310ad88134a27f2c7,64c7fed44a04f777bb1e18ce,64c800c2cc715de01dc27de8,down,1,0.75,0.5,19,0,1.1025,,,,,,149,0,149,0,1,,,,,
,,708132,001,2023-07-31_12h46.30.794,arm3_eps,2022.2.5,Win32,59.79430758,5f3d7b3310ad88134a27f2c7,64c7fed44a04f777bb1e18ce,64c800c2cc715de01dc27de8,down,1,0.75,0.5,18,0,0.9692,,,,,,150,0,150,0,1,,,,,
,,708132,001,2023-07-31_12h46.30.794,arm3_eps,2022.2.5,Win32,59.79430758,5f3d7b3310ad88134a27f2c7,64c7fed44a04f777bb1e18ce,64c800c2cc715de01dc27de8,down,-1,0.75,0.5,17,0,1.3699,,,,,,151,0,151,0,1,,,,,
,,708132,001,2023-07-31_12h46.30.794,arm3_eps,2022.2.5,Win32,59.79430758,5f3d7b3310ad88134a27f2c7,64c7fed44a04f777bb1e18ce,64c800c2cc715de01dc27de8,right,-1,0.75,0.5,17,-0.005031018,0.7772,,,,,,152,0,152,0,1,,,,,
,,708132,001,2023-07-31_12h46.30.794,arm3_eps,2022.2.5,Win32,59.79430758,5f3d7b3310ad88134a27f2c7,64c7fed44a04f777bb1e18ce,64c800c2cc715de01dc27de8,down,1,0.75,0.5,18,0,0.4136,,,,,,153,0,153,0,1,,,,,
,,708132,001,2023-07-31_12h46.30.794,arm3_eps,2022.2.5,Win32,59.79430758,5f3d7b3310ad88134a27f2c7,64c7fed44a04f777bb1e18ce,64c800c2cc715de01dc27de8,right,1,0.75,0.5,18,-0.006555891,2.7093,,,,,,154,0,154,0,1,,,,,
,,708132,001,2023-07-31_12h46.30.794,arm3_eps,2022.2.5,Win32,59.79430758,5f3d7b3310ad88134a27f2c7,64c7fed44a04f777bb1e18ce,64c800c2cc715de01dc27de8,down,1,0.75,0.5,17,0,0.4845,,,,,,155,0,155,0,1,,,,,
,,708132,001,2023-07-31_12h46.30.794,arm3_eps,2022.2.5,Win32,59.79430758,5f3d7b3310ad88134a27f2c7,64c7fed44a04f777bb1e18ce,64c800c2cc715de01dc27de8,right,1,0.75,0.5,17,-0.00249881,1.3155,,,,,,156,0,156,0,1,,,,,
,,708132,001,2023-07-31_12h46.30.794,arm3_eps,2022.2.5,Win32,59.79430758,5f3d7b3310ad88134a27f2c7,64c7fed44a04f777bb1e18ce,64c800c2cc715de01dc27de8,up,1,0.75,0.5,17,0,0.631,,,,,,157,0,157,0,1,,,,,
,,708132,001,2023-07-31_12h46.30.794,arm3_eps,2022.2.5,Win32,59.79430758,5f3d7b3310ad88134a27f2c7,64c7fed44a04f777bb1e18ce,64c800c2cc715de01dc27de8,right,1,0.75,0.5,17,0.015997701,1.5305,,,,,,158,0,158,0,1,,,,,
,,708132,001,2023-07-31_12h46.30.794,arm3_eps,2022.2.5,Win32,59.79430758,5f3d7b3310ad88134a27f2c7,64c7fed44a04f777bb1e18ce,64c800c2cc715de01dc27de8,up,-1,0.75,0.5,17,0,0.8466,,,,,,159,0,159,0,1,,,,,
,,708132,001,2023-07-31_12h46.30.794,arm3_eps,2022.2.5,Win32,59.79430758,5f3d7b3310ad88134a27f2c7,64c7fed44a04f777bb1e18ce,64c800c2cc715de01dc27de8,up,1,0.75,0.5,16,0,2.0093,,,,,,160,0,160,0,1,,,,,
,,708132,001,2023-07-31_12h46.30.794,arm3_eps,2022.2.5,Win32,59.79430758,5f3d7b3310ad88134a27f2c7,64c7fed44a04f777bb1e18ce,64c800c2cc715de01dc27de8,right,1,0.75,0.5,16,0.00407342,0.8809,,,,,,161,0,161,0,1,,,,,
,,708132,001,2023-07-31_12h46.30.794,arm3_eps,2022.2.5,Win32,59.79430758,5f3d7b3310ad88134a27f2c7,64c7fed44a04f777bb1e18ce,64c800c2cc715de01dc27de8,up,-1,0.75,0.5,16,0,0.6009,,,,,,162,0,162,0,1,,,,,
,,708132,001,2023-07-31_12h46.30.794,arm3_eps,2022.2.5,Win32,59.79430758,5f3d7b3310ad88134a27f2c7,64c7fed44a04f777bb1e18ce,64c800c2cc715de01dc27de8,right,-1,0.75,0.5,16,-0.003165995,1.1022,,,,,,163,0,163,0,1,,,,,
,,708132,001,2023-07-31_12h46.30.794,arm3_eps,2022.2.5,Win32,59.79430758,5f3d7b3310ad88134a27f2c7,64c7fed44a04f777bb1e18ce,64c800c2cc715de01dc27de8,down,-1,0.75,0.5,16,0,0.3962,,,,,,164,0,164,0,1,,,,,
,,708132,001,2023-07-31_12h46.30.794,arm3_eps,2022.2.5,Win32,59.79430758,5f3d7b3310ad88134a27f2c7,64c7fed44a04f777bb1e18ce,64c800c2cc715de01dc27de8,right,-1,0.75,0.5,16,-0.023908762,1.0963,,,,,,165,0,165,0,1,,,,,
,,708132,001,2023-07-31_12h46.30.794,arm3_eps,2022.2.5,Win32,59.79430758,5f3d7b3310ad88134a27f2c7,64c7fed44a04f777bb1e18ce,64c800c2cc715de01dc27de8,down,1,0.75,0.5,17,0,0.5591,,,,,,166,0,166,0,1,,,,,
,,708132,001,2023-07-31_12h46.30.794,arm3_eps,2022.2.5,Win32,59.79430758,5f3d7b3310ad88134a27f2c7,64c7fed44a04f777bb1e18ce,64c800c2cc715de01dc27de8,right,1,0.75,0.5,17,0.020569225,1.1594,,,,,,167,0,167,0,1,,,,,
,,708132,001,2023-07-31_12h46.30.794,arm3_eps,2022.2.5,Win32,59.79430758,5f3d7b3310ad88134a27f2c7,64c7fed44a04f777bb1e18ce,64c800c2cc715de01dc27de8,down,-1,0.75,0.5,16,0,3.7754,,,,,,168,0,168,0,1,,,,,
,,708132,001,2023-07-31_12h46.30.794,arm3_eps,2022.2.5,Win32,59.79430758,5f3d7b3310ad88134a27f2c7,64c7fed44a04f777bb1e18ce,64c800c2cc715de01dc27de8,right,-1,0.75,0.5,16,-0.013621036,0.8245,,,,,,169,0,169,0,1,,,,,
,,708132,001,2023-07-31_12h46.30.794,arm3_eps,2022.2.5,Win32,59.79430758,5f3d7b3310ad88134a27f2c7,64c7fed44a04f777bb1e18ce,64c800c2cc715de01dc27de8,down,-1,0.75,0.5,16,0,0.3821,,,,,,170,0,170,0,1,,,,,
,,708132,001,2023-07-31_12h46.30.794,arm3_eps,2022.2.5,Win32,59.79430758,5f3d7b3310ad88134a27f2c7,64c7fed44a04f777bb1e18ce,64c800c2cc715de01dc27de8,right,-1,0.75,0.5,16,0.004796596,3.3788,,,,,,171,0,171,0,1,,,,,
,,708132,001,2023-07-31_12h46.30.794,arm3_eps,2022.2.5,Win32,59.79430758,5f3d7b3310ad88134a27f2c7,64c7fed44a04f777bb1e18ce,64c800c2cc715de01dc27de8,up,1,0.75,0.5,15,0,0.5792,,,,,,172,0,172,0,1,,,,,
,,708132,001,2023-07-31_12h46.30.794,arm3_eps,2022.2.5,Win32,59.79430758,5f3d7b3310ad88134a27f2c7,64c7fed44a04f777bb1e18ce,64c800c2cc715de01dc27de8,right,1,0.75,0.5,15,-0.000647508,0.9629,,,,,,173,0,173,0,1,,,,,
,,708132,001,2023-07-31_12h46.30.794,arm3_eps,2022.2.5,Win32,59.79430758,5f3d7b3310ad88134a27f2c7,64c7fed44a04f777bb1e18ce,64c800c2cc715de01dc27de8,down,1,0.75,0.5,14,0,0.4472,,,,,,174,0,174,0,1,,,,,
,,708132,001,2023-07-31_12h46.30.794,arm3_eps,2022.2.5,Win32,59.79430758,5f3d7b3310ad88134a27f2c7,64c7fed44a04f777bb1e18ce,64c800c2cc715de01dc27de8,right,1,0.75,0.5,14,0.014924127,0.8207,,,,,,175,0,175,0,1,,,,,
,,708132,001,2023-07-31_12h46.30.794,arm3_eps,2022.2.5,Win32,59.79430758,5f3d7b3310ad88134a27f2c7,64c7fed44a04f777bb1e18ce,64c800c2cc715de01dc27de8,up,1,0.75,0.5,14,0,0.3624,,,,,,176,0,176,0,1,,,,,
,,708132,001,2023-07-31_12h46.30.794,arm3_eps,2022.2.5,Win32,59.79430758,5f3d7b3310ad88134a27f2c7,64c7fed44a04f777bb1e18ce,64c800c2cc715de01dc27de8,right,1,0.75,0.5,14,0.000532337,0.8424,,,,,,177,0,177,0,1,,,,,
,,708132,001,2023-07-31_12h46.30.794,arm3_eps,2022.2.5,Win32,59.79430758,5f3d7b3310ad88134a27f2c7,64c7fed44a04f777bb1e18ce,64c800c2cc715de01dc27de8,up,-1,0.75,0.5,14,0,0.4136,,,,,,178,0,178,0,1,,,,,
,,708132,001,2023-07-31_12h46.30.794,arm3_eps,2022.2.5,Win32,59.79430758,5f3d7b3310ad88134a27f2c7,64c7fed44a04f777bb1e18ce,64c800c2cc715de01dc27de8,right,-1,0.75,0.5,14,-0.013252892,1.0264,,,,,,179,0,179,0,1,,,,,
,,708132,001,2023-07-31_12h46.30.794,arm3_eps,2022.2.5,Win32,59.79430758,5f3d7b3310ad88134a27f2c7,64c7fed44a04f777bb1e18ce,64c800c2cc715de01dc27de8,down,-1,0.75,0.5,15,0,0.4074,,,,,,180,0,180,0,1,,,,,
,,708132,001,2023-07-31_12h46.30.794,arm3_eps,2022.2.5,Win32,59.79430758,5f3d7b3310ad88134a27f2c7,64c7fed44a04f777bb1e18ce,64c800c2cc715de01dc27de8,up,1,0.75,0.5,14,0,2.3378,,,,,,181,0,181,0,1,,,,,
,,708132,001,2023-07-31_12h46.30.794,arm3_eps,2022.2.5,Win32,59.79430758,5f3d7b3310ad88134a27f2c7,64c7fed44a04f777bb1e18ce,64c800c2cc715de01dc27de8,right,1,0.75,0.5,14,-0.006818194,1.141,,,,,,182,0,182,0,1,,,,,
,,708132,001,2023-07-31_12h46.30.794,arm3_eps,2022.2.5,Win32,59.79430758,5f3d7b3310ad88134a27f2c7,64c7fed44a04f777bb1e18ce,64c800c2cc715de01dc27de8,up,1,0.75,0.5,15,0,0.5107,,,,,,183,0,183,0,1,,,,,
,,708132,001,2023-07-31_12h46.30.794,arm3_eps,2022.2.5,Win32,59.79430758,5f3d7b3310ad88134a27f2c7,64c7fed44a04f777bb1e18ce,64c800c2cc715de01dc27de8,right,1,0.75,0.5,15,0.012515968,1.5647,,,,,,184,0,184,0,1,,,,,
,,708132,001,2023-07-31_12h46.30.794,arm3_eps,2022.2.5,Win32,59.79430758,5f3d7b3310ad88134a27f2c7,64c7fed44a04f777bb1e18ce,64c800c2cc715de01dc27de8,up,-1,0.75,0.5,16,0,0.4847,,,,,,185,0,185,0,1,,,,,
,,708132,001,2023-07-31_12h46.30.794,arm3_eps,2022.2.5,Win32,59.79430758,5f3d7b3310ad88134a27f2c7,64c7fed44a04f777bb1e18ce,64c800c2cc715de01dc27de8,right,-1,0.75,0.5,16,0.002964972,0.9932,,,,,,186,0,186,0,1,,,,,
,,708132,001,2023-07-31_12h46.30.794,arm3_eps,2022.2.5,Win32,59.79430758,5f3d7b3310ad88134a27f2c7,64c7fed44a04f777bb1e18ce,64c800c2cc715de01dc27de8,up,-1,0.75,0.5,15,0,0.7622,,,,,,187,0,187,0,1,,,,,
,,708132,001,2023-07-31_12h46.30.794,arm3_eps,2022.2.5,Win32,59.79430758,5f3d7b3310ad88134a27f2c7,64c7fed44a04f777bb1e18ce,64c800c2cc715de01dc27de8,right,-1,0.75,0.5,15,0.011981825,0.7637,,,,,,188,0,188,0,1,,,,,
,,708132,001,2023-07-31_12h46.30.794,arm3_eps,2022.2.5,Win32,59.79430758,5f3d7b3310ad88134a27f2c7,64c7fed44a04f777bb1e18ce,64c800c2cc715de01dc27de8,down,1,0.75,0.5,16,0,0.7439,,,,,,189,0,189,0,1,,,,,
,,708132,001,2023-07-31_12h46.30.794,arm3_eps,2022.2.5,Win32,59.79430758,5f3d7b3310ad88134a27f2c7,64c7fed44a04f777bb1e18ce,64c800c2cc715de01dc27de8,right,1,0.75,0.5,16,0.023759639,2.2923,,,,,,190,0,190,0,1,,,,,
,,708132,001,2023-07-31_12h46.30.794,arm3_eps,2022.2.5,Win32,59.79430758,5f3d7b3310ad88134a27f2c7,64c7fed44a04f777bb1e18ce,64c800c2cc715de01dc27de8,down,-1,0.75,0.5,15,0,0.7522,,,,,,191,0,191,0,1,,,,,
,,708132,001,2023-07-31_12h46.30.794,arm3_eps,2022.2.5,Win32,59.79430758,5f3d7b3310ad88134a27f2c7,64c7fed44a04f777bb1e18ce,64c800c2cc715de01dc27de8,right,-1,0.75,0.5,15,-0.013319227,0.7972,,,,,,192,0,192,0,1,,,,,
,,708132,001,2023-07-31_12h46.30.794,arm3_eps,2022.2.5,Win32,59.79430758,5f3d7b3310ad88134a27f2c7,64c7fed44a04f777bb1e18ce,64c800c2cc715de01dc27de8,up,-1,0.75,0.5,14,0,0.2124,,,,,,193,0,193,0,1,,,,,
,,708132,001,2023-07-31_12h46.30.794,arm3_eps,2022.2.5,Win32,59.79430758,5f3d7b3310ad88134a27f2c7,64c7fed44a04f777bb1e18ce,64c800c2cc715de01dc27de8,right,-1,0.75,0.5,14,0.000647544,0.8886,,,,,,194,0,194,0,1,,,,,
,,708132,001,2023-07-31_12h46.30.794,arm3_eps,2022.2.5,Win32,59.79430758,5f3d7b3310ad88134a27f2c7,64c7fed44a04f777bb1e18ce,64c800c2cc715de01dc27de8,up,1,0.75,0.5,13,0,0.919,,,,,,195,0,195,0,1,,,,,
,,708132,001,2023-07-31_12h46.30.794,arm3_eps,2022.2.5,Win32,59.79430758,5f3d7b3310ad88134a27f2c7,64c7fed44a04f777bb1e18ce,64c800c2cc715de01dc27de8,right,1,0.75,0.5,13,-0.006460639,0.7773,,,,,,196,0,196,0,1,,,,,
,,708132,001,2023-07-31_12h46.30.794,arm3_eps,2022.2.5,Win32,59.79430758,5f3d7b3310ad88134a27f2c7,64c7fed44a04f777bb1e18ce,64c800c2cc715de01dc27de8,down,1,0.75,0.5,12,0,0.3847,,,,,,197,0,197,0,1,,,,,
,,708132,001,2023-07-31_12h46.30.794,arm3_eps,2022.2.5,Win32,59.79430758,5f3d7b3310ad88134a27f2c7,64c7fed44a04f777bb1e18ce,64c800c2cc715de01dc27de8,right,1,0.75,0.5,12,0.012803936,0.9996,,,,,,198,0,198,0,1,,,,,
,,708132,001,2023-07-31_12h46.30.794,arm3_eps,2022.2.5,Win32,59.79430758,5f3d7b3310ad88134a27f2c7,64c7fed44a04f777bb1e18ce,64c800c2cc715de01dc27de8,up,1,0.75,0.5,13,0,1.3897,,,,,,199,0,199,0,1,,,,,
,,708132,001,2023-07-31_12h46.30.794,arm3_eps,2022.2.5,Win32,59.79430758,5f3d7b3310ad88134a27f2c7,64c7fed44a04f777bb1e18ce,64c800c2cc715de01dc27de8,up,1,0.75,0.5,13,0,1.3736,,,,,,200,0,200,0,1,,,,,
,,708132,001,2023-07-31_12h46.30.794,arm3_eps,2022.2.5,Win32,59.79430758,5f3d7b3310ad88134a27f2c7,64c7fed44a04f777bb1e18ce,64c800c2cc715de01dc27de8,down,1,0.75,0.5,13,0,2.9689,,,,,,201,0,201,0,1,,,,,
,,708132,001,2023-07-31_12h46.30.794,arm3_eps,2022.2.5,Win32,59.79430758,5f3d7b3310ad88134a27f2c7,64c7fed44a04f777bb1e18ce,64c800c2cc715de01dc27de8,up,1,0.75,0.5,14,0,1.0307,,,,,,202,0,202,0,1,,,,,
,,708132,001,2023-07-31_12h46.30.794,arm3_eps,2022.2.5,Win32,59.79430758,5f3d7b3310ad88134a27f2c7,64c7fed44a04f777bb1e18ce,64c800c2cc715de01dc27de8,up,-1,0.75,0.5,15,0,1.3421,,,,,,203,0,203,0,1,,,,,
,,708132,001,2023-07-31_12h46.30.794,arm3_eps,2022.2.5,Win32,59.79430758,5f3d7b3310ad88134a27f2c7,64c7fed44a04f777bb1e18ce,64c800c2cc715de01dc27de8,down,-1,0.75,0.5,16,0,3.031,,,,,,204,0,204,0,1,,,,,
,,708132,001,2023-07-31_12h46.30.794,arm3_eps,2022.2.5,Win32,59.79430758,5f3d7b3310ad88134a27f2c7,64c7fed44a04f777bb1e18ce,64c800c2cc715de01dc27de8,down,-1,0.75,0.5,17,0,4.5625,,,,,,205,0,205,0,1,,,,,
,,708132,001,2023-07-31_12h46.30.794,arm3_eps,2022.2.5,Win32,59.79430758,5f3d7b3310ad88134a27f2c7,64c7fed44a04f777bb1e18ce,64c800c2cc715de01dc27de8,up,1,0.75,0.5,16,0,1.7505,,,,,,206,0,206,0,1,,,,,
,,708132,001,2023-07-31_12h46.30.794,arm3_eps,2022.2.5,Win32,59.79430758,5f3d7b3310ad88134a27f2c7,64c7fed44a04f777bb1e18ce,64c800c2cc715de01dc27de8,up,1,0.75,0.5,16,0,1.3403,,,,,,207,0,207,0,1,,,,,
,,708132,001,2023-07-31_12h46.30.794,arm3_eps,2022.2.5,Win32,59.79430758,5f3d7b3310ad88134a27f2c7,64c7fed44a04f777bb1e18ce,64c800c2cc715de01dc27de8,down,-1,0.75,0.5,16,0,4.266,,,,,,208,0,208,0,1,,,,,
,,708132,001,2023-07-31_12h46.30.794,arm3_eps,2022.2.5,Win32,59.79430758,5f3d7b3310ad88134a27f2c7,64c7fed44a04f777bb1e18ce,64c800c2cc715de01dc27de8,down,1,0.75,0.5,16,0,1.1584,,,,,,209,0,209,0,1,,,,,
,,708132,001,2023-07-31_12h46.30.794,arm3_eps,2022.2.5,Win32,59.79430758,5f3d7b3310ad88134a27f2c7,64c7fed44a04f777bb1e18ce,64c800c2cc715de01dc27de8,up,1,0.75,0.5,17,0,1.0672,,,,,,210,0,210,0,1,,,,,
,,708132,001,2023-07-31_12h46.30.794,arm3_eps,2022.2.5,Win32,59.79430758,5f3d7b3310ad88134a27f2c7,64c7fed44a04f777bb1e18ce,64c800c2cc715de01dc27de8,up,-1,0.75,0.5,18,0,1.8232,,,,,,211,0,211,0,1,,,,,
,,708132,001,2023-07-31_12h46.30.794,arm3_eps,2022.2.5,Win32,59.79430758,5f3d7b3310ad88134a27f2c7,64c7fed44a04f777bb1e18ce,64c800c2cc715de01dc27de8,down,1,0.75,0.5,19,0,3.0892,,,,,,212,0,212,0,1,,,,,
,,708132,001,2023-07-31_12h46.30.794,arm3_eps,2022.2.5,Win32,59.79430758,5f3d7b3310ad88134a27f2c7,64c7fed44a04f777bb1e18ce,64c800c2cc715de01dc27de8,down,-1,0.75,0.5,19,0,1.9082,,,,,,213,0,213,0,1,,,,,
,,708132,001,2023-07-31_12h46.30.794,arm3_eps,2022.2.5,Win32,59.79430758,5f3d7b3310ad88134a27f2c7,64c7fed44a04f777bb1e18ce,64c800c2cc715de01dc27de8,down,1,0.75,0.5,20,0,1.3491,,,,,,214,0,214,0,1,,,,,
,,708132,001,2023-07-31_12h46.30.794,arm3_eps,2022.2.5,Win32,59.79430758,5f3d7b3310ad88134a27f2c7,64c7fed44a04f777bb1e18ce,64c800c2cc715de01dc27de8,up,-1,0.75,0.5,20,0,1.4355,,,,,,215,0,215,0,1,,,,,
,,708132,001,2023-07-31_12h46.30.794,arm3_eps,2022.2.5,Win32,59.79430758,5f3d7b3310ad88134a27f2c7,64c7fed44a04f777bb1e18ce,64c800c2cc715de01dc27de8,up,1,0.75,0.5,20,0,1.0802,,,,,,216,0,216,0,1,,,,,
,,708132,001,2023-07-31_12h46.30.794,arm3_eps,2022.2.5,Win32,59.79430758,5f3d7b3310ad88134a27f2c7,64c7fed44a04f777bb1e18ce,64c800c2cc715de01dc27de8,down,1,0.75,0.5,19,0,1.077,,,,,,217,0,217,0,1,,,,,
,,708132,001,2023-07-31_12h46.30.794,arm3_eps,2022.2.5,Win32,59.79430758,5f3d7b3310ad88134a27f2c7,64c7fed44a04f777bb1e18ce,64c800c2cc715de01dc27de8,down,1,0.75,0.5,18,0,1.2958,,,,,,218,0,218,0,1,,,,,
,,708132,001,2023-07-31_12h46.30.794,arm3_eps,2022.2.5,Win32,59.79430758,5f3d7b3310ad88134a27f2c7,64c7fed44a04f777bb1e18ce,64c800c2cc715de01dc27de8,up,1,0.75,0.5,19,0,1.1308,,,,,,219,0,219,0,1,,,,,
,,708132,001,2023-07-31_12h46.30.794,arm3_eps,2022.2.5,Win32,59.79430758,5f3d7b3310ad88134a27f2c7,64c7fed44a04f777bb1e18ce,64c800c2cc715de01dc27de8,up,1,0.75,0.5,20,0,0.9962,,,,,,220,0,220,0,1,,,,,
,,708132,001,2023-07-31_12h46.30.794,arm3_eps,2022.2.5,Win32,59.79430758,5f3d7b3310ad88134a27f2c7,64c7fed44a04f777bb1e18ce,64c800c2cc715de01dc27de8,up,1,0.75,0.5,21,0,1.1753,,,,,,221,0,221,0,1,,,,,
,,708132,001,2023-07-31_12h46.30.794,arm3_eps,2022.2.5,Win32,59.79430758,5f3d7b3310ad88134a27f2c7,64c7fed44a04f777bb1e18ce,64c800c2cc715de01dc27de8,up,-1,0.75,0.5,22,0,1.2743,,,,,,222,0,222,0,1,,,,,
,,708132,001,2023-07-31_12h46.30.794,arm3_eps,2022.2.5,Win32,59.79430758,5f3d7b3310ad88134a27f2c7,64c7fed44a04f777bb1e18ce,64c800c2cc715de01dc27de8,up,-1,0.75,0.5,21,0,2.2077,,,,,,223,0,223,0,1,,,,,
,,708132,001,2023-07-31_12h46.30.794,arm3_eps,2022.2.5,Win32,59.79430758,5f3d7b3310ad88134a27f2c7,64c7fed44a04f777bb1e18ce,64c800c2cc715de01dc27de8,down,1,0.75,0.5,21,0,1.0965,,,,,,224,0,224,0,1,,,,,
,,708132,001,2023-07-31_12h46.30.794,arm3_eps,2022.2.5,Win32,59.79430758,5f3d7b3310ad88134a27f2c7,64c7fed44a04f777bb1e18ce,64c800c2cc715de01dc27de8,down,-1,0.75,0.5,20,0,1.2154,,,,,,225,0,225,0,1,,,,,
,,708132,001,2023-07-31_12h46.30.794,arm3_eps,2022.2.5,Win32,59.79430758,5f3d7b3310ad88134a27f2c7,64c7fed44a04f777bb1e18ce,64c800c2cc715de01dc27de8,up,-1,0.75,0.5,19,0,0.8052,,,,,,226,0,226,0,1,,,,,
,,708132,001,2023-07-31_12h46.30.794,arm3_eps,2022.2.5,Win32,59.79430758,5f3d7b3310ad88134a27f2c7,64c7fed44a04f777bb1e18ce,64c800c2cc715de01dc27de8,down,-1,0.75,0.5,20,0,0.9734,,,,,,227,0,227,0,1,,,,,
,,708132,001,2023-07-31_12h46.30.794,arm3_eps,2022.2.5,Win32,59.79430758,5f3d7b3310ad88134a27f2c7,64c7fed44a04f777bb1e18ce,64c800c2cc715de01dc27de8,down,-1,0.75,0.5,21,0,1.9256,,,,,,228,0,228,0,1,,,,,
,,708132,001,2023-07-31_12h46.30.794,arm3_eps,2022.2.5,Win32,59.79430758,5f3d7b3310ad88134a27f2c7,64c7fed44a04f777bb1e18ce,64c800c2cc715de01dc27de8,down,-1,0.75,0.5,22,0,0.9561,,,,,,229,0,229,0,1,,,,,
,,708132,001,2023-07-31_12h46.30.794,arm3_eps,2022.2.5,Win32,59.79430758,5f3d7b3310ad88134a27f2c7,64c7fed44a04f777bb1e18ce,64c800c2cc715de01dc27de8,down,-1,0.75,0.5,23,0,1.4387,,,,,,230,0,230,0,1,,,,,
,,708132,001,2023-07-31_12h46.30.794,arm3_eps,2022.2.5,Win32,59.79430758,5f3d7b3310ad88134a27f2c7,64c7fed44a04f777bb1e18ce,64c800c2cc715de01dc27de8,down,-1,0.75,0.5,24,0,2.1548,,,,,,231,0,231,0,1,,,,,
,,708132,001,2023-07-31_12h46.30.794,arm3_eps,2022.2.5,Win32,59.79430758,5f3d7b3310ad88134a27f2c7,64c7fed44a04f777bb1e18ce,64c800c2cc715de01dc27de8,down,-1,0.75,0.5,25,0,3.4954,,,,,,232,0,232,0,1,,,,,
,,708132,001,2023-07-31_12h46.30.794,arm3_eps,2022.2.5,Win32,59.79430758,5f3d7b3310ad88134a27f2c7,64c7fed44a04f777bb1e18ce,64c800c2cc715de01dc27de8,down,1,0.75,0.5,26,0,2.1902,,,,,,233,0,233,0,1,,,,,
,,708132,001,2023-07-31_12h46.30.794,arm3_eps,2022.2.5,Win32,59.79430758,5f3d7b3310ad88134a27f2c7,64c7fed44a04f777bb1e18ce,64c800c2cc715de01dc27de8,down,-1,0.75,0.5,26,0,1.9498,,,,,,234,0,234,0,1,,,,,
,,708132,001,2023-07-31_12h46.30.794,arm3_eps,2022.2.5,Win32,59.79430758,5f3d7b3310ad88134a27f2c7,64c7fed44a04f777bb1e18ce,64c800c2cc715de01dc27de8,down,-1,0.75,0.5,27,0,1.1565,,,,,,235,0,235,0,1,,,,,
,,708132,001,2023-07-31_12h46.30.794,arm3_eps,2022.2.5,Win32,59.79430758,5f3d7b3310ad88134a27f2c7,64c7fed44a04f777bb1e18ce,64c800c2cc715de01dc27de8,up,1,0.75,0.5,26,0,1.3421,,,,,,236,0,236,0,1,,,,,
,,708132,001,2023-07-31_12h46.30.794,arm3_eps,2022.2.5,Win32,59.79430758,5f3d7b3310ad88134a27f2c7,64c7fed44a04f777bb1e18ce,64c800c2cc715de01dc27de8,down,-1,0.75,0.5,26,0,1.215,,,,,,237,0,237,0,1,,,,,
,,708132,001,2023-07-31_12h46.30.794,arm3_eps,2022.2.5,Win32,59.79430758,5f3d7b3310ad88134a27f2c7,64c7fed44a04f777bb1e18ce,64c800c2cc715de01dc27de8,down,-1,0.75,0.5,26,0,1.4504,,,,,,238,0,238,0,1,,,,,
,,708132,001,2023-07-31_12h46.30.794,arm3_eps,2022.2.5,Win32,59.79430758,5f3d7b3310ad88134a27f2c7,64c7fed44a04f777bb1e18ce,64c800c2cc715de01dc27de8,up,1,0.75,0.5,25,0,3.7569,,,,,,239,0,239,0,1,,,,,
,,708132,001,2023-07-31_12h46.30.794,arm3_eps,2022.2.5,Win32,59.79430758,5f3d7b3310ad88134a27f2c7,64c7fed44a04f777bb1e18ce,64c800c2cc715de01dc27de8,down,-1,0.75,0.5,24,0,1.0962,,,,,,240,0,240,0,1,,,,,
,,708132,001,2023-07-31_12h46.30.794,arm3_eps,2022.2.5,Win32,59.79430758,5f3d7b3310ad88134a27f2c7,64c7fed44a04f777bb1e18ce,64c800c2cc715de01dc27de8,down,1,0.75,0.5,24,0,1.0703,,,,,,241,0,241,0,1,,,,,
,,708132,001,2023-07-31_12h46.30.794,arm3_eps,2022.2.5,Win32,59.79430758,5f3d7b3310ad88134a27f2c7,64c7fed44a04f777bb1e18ce,64c800c2cc715de01dc27de8,up,1,0.75,0.5,25,0,1.2616,,,,,,242,0,242,0,1,,,,,
,,708132,001,2023-07-31_12h46.30.794,arm3_eps,2022.2.5,Win32,59.79430758,5f3d7b3310ad88134a27f2c7,64c7fed44a04f777bb1e18ce,64c800c2cc715de01dc27de8,up,1,0.75,0.5,26,0,1.0763,,,,,,243,0,243,0,1,,,,,
,,708132,001,2023-07-31_12h46.30.794,arm3_eps,2022.2.5,Win32,59.79430758,5f3d7b3310ad88134a27f2c7,64c7fed44a04f777bb1e18ce,64c800c2cc715de01dc27de8,up,1,0.75,0.5,26,0,0.9138,,,,,,244,0,244,0,1,,,,,
,,708132,001,2023-07-31_12h46.30.794,arm3_eps,2022.2.5,Win32,59.79430758,5f3d7b3310ad88134a27f2c7,64c7fed44a04f777bb1e18ce,64c800c2cc715de01dc27de8,up,-1,0.75,0.5,27,0,0.9556,,,,,,245,0,245,0,1,,,,,
,,708132,001,2023-07-31_12h46.30.794,arm3_eps,2022.2.5,Win32,59.79430758,5f3d7b3310ad88134a27f2c7,64c7fed44a04f777bb1e18ce,64c800c2cc715de01dc27de8,up,-1,0.75,0.5,27,0,1.9409,,,,,,246,0,246,0,1,,,,,
,,708132,001,2023-07-31_12h46.30.794,arm3_eps,2022.2.5,Win32,59.79430758,5f3d7b3310ad88134a27f2c7,64c7fed44a04f777bb1e18ce,64c800c2cc715de01dc27de8,down,-1,0.75,0.5,28,0,1.2386,,,,,,247,0,247,0,1,,,,,
,,708132,001,2023-07-31_12h46.30.794,arm3_eps,2022.2.5,Win32,59.79430758,5f3d7b3310ad88134a27f2c7,64c7fed44a04f777bb1e18ce,64c800c2cc715de01dc27de8,down,-1,0.75,0.5,29,0,0.9619,,,,,,248,0,248,0,1,,,,,
,,708132,001,2023-07-31_12h46.30.794,arm3_eps,2022.2.5,Win32,59.79430758,5f3d7b3310ad88134a27f2c7,64c7fed44a04f777bb1e18ce,64c800c2cc715de01dc27de8,down,-1,0.75,0.5,30,0,0.9605,,,,,,249,0,249,0,1,,,,,
,,708132,001,2023-07-31_12h46.30.794,arm3_eps,2022.2.5,Win32,59.79430758,5f3d7b3310ad88134a27f2c7,64c7fed44a04f777bb1e18ce,64c800c2cc715de01dc27de8,down,1,0.75,0.5,30,0,1.1486,,,,,,250,0,250,0,1,,,,,
,,708132,001,2023-07-31_12h46.30.794,arm3_eps,2022.2.5,Win32,59.79430758,5f3d7b3310ad88134a27f2c7,64c7fed44a04f777bb1e18ce,64c800c2cc715de01dc27de8,up,-1,0.75,0.5,31,0,2.3907,,,,,,251,0,251,0,1,,,,,
,,708132,001,2023-07-31_12h46.30.794,arm3_eps,2022.2.5,Win32,59.79430758,5f3d7b3310ad88134a27f2c7,64c7fed44a04f777bb1e18ce,64c800c2cc715de01dc27de8,up,-1,0.75,0.5,30,0,1.3845,,,,,,252,0,252,0,1,,,,,
,,708132,001,2023-07-31_12h46.30.794,arm3_eps,2022.2.5,Win32,59.79430758,5f3d7b3310ad88134a27f2c7,64c7fed44a04f777bb1e18ce,64c800c2cc715de01dc27de8,down,-1,0.75,0.5,31,0,1.1296,,,,,,253,0,253,0,1,,,,,
,,708132,001,2023-07-31_12h46.30.794,arm3_eps,2022.2.5,Win32,59.79430758,5f3d7b3310ad88134a27f2c7,64c7fed44a04f777bb1e18ce,64c800c2cc715de01dc27de8,down,1,0.75,0.5,32,0,1.3966,,,,,,254,0,254,0,1,,,,,
,,708132,001,2023-07-31_12h46.30.794,arm3_eps,2022.2.5,Win32,59.79430758,5f3d7b3310ad88134a27f2c7,64c7fed44a04f777bb1e18ce,64c800c2cc715de01dc27de8,down,-1,0.75,0.5,32,0,0.9963,,,,,,255,0,255,0,1,,,,,
,,708132,001,2023-07-31_12h46.30.794,arm3_eps,2022.2.5,Win32,59.79430758,5f3d7b3310ad88134a27f2c7,64c7fed44a04f777bb1e18ce,64c800c2cc715de01dc27de8,down,1,0.75,0.5,33,0,1.0221,,,,,,256,0,256,0,1,,,,,
,,708132,001,2023-07-31_12h46.30.794,arm3_eps,2022.2.5,Win32,59.79430758,5f3d7b3310ad88134a27f2c7,64c7fed44a04f777bb1e18ce,64c800c2cc715de01dc27de8,down,-1,0.75,0.5,32,0,3.6983,,,,,,257,0,257,0,1,,,,,
,,708132,001,2023-07-31_12h46.30.794,arm3_eps,2022.2.5,Win32,59.79430758,5f3d7b3310ad88134a27f2c7,64c7fed44a04f777bb1e18ce,64c800c2cc715de01dc27de8,down,-1,0.75,0.5,32,0,1.3565,,,,,,258,0,258,0,1,,,,,
,,708132,001,2023-07-31_12h46.30.794,arm3_eps,2022.2.5,Win32,59.79430758,5f3d7b3310ad88134a27f2c7,64c7fed44a04f777bb1e18ce,64c800c2cc715de01dc27de8,up,1,0.75,0.5,32,0,1.024,,,,,,259,0,259,0,1,,,,,
,,708132,001,2023-07-31_12h46.30.794,arm3_eps,2022.2.5,Win32,59.79430758,5f3d7b3310ad88134a27f2c7,64c7fed44a04f777bb1e18ce,64c800c2cc715de01dc27de8,up,1,0.75,0.5,33,0,1.6084,,,,,,260,0,260,0,1,,,,,
,,708132,001,2023-07-31_12h46.30.794,arm3_eps,2022.2.5,Win32,59.79430758,5f3d7b3310ad88134a27f2c7,64c7fed44a04f777bb1e18ce,64c800c2cc715de01dc27de8,up,-1,0.75,0.5,33,0,0.9279,,,,,,261,0,261,0,1,,,,,
,,708132,001,2023-07-31_12h46.30.794,arm3_eps,2022.2.5,Win32,59.79430758,5f3d7b3310ad88134a27f2c7,64c7fed44a04f777bb1e18ce,64c800c2cc715de01dc27de8,down,-1,0.75,0.5,33,0,0.9909,,,,,,262,0,262,0,1,,,,,
,,708132,001,2023-07-31_12h46.30.794,arm3_eps,2022.2.5,Win32,59.79430758,5f3d7b3310ad88134a27f2c7,64c7fed44a04f777bb1e18ce,64c800c2cc715de01dc27de8,up,1,0.75,0.5,32,0,0.9629,,,,,,263,0,263,0,1,,,,,
,,708132,001,2023-07-31_12h46.30.794,arm3_eps,2022.2.5,Win32,59.79430758,5f3d7b3310ad88134a27f2c7,64c7fed44a04f777bb1e18ce,64c800c2cc715de01dc27de8,down,-1,0.75,0.5,31,0,0.9762,,,,,,264,0,264,0,1,,,,,
,,708132,001,2023-07-31_12h46.30.794,arm3_eps,2022.2.5,Win32,59.79430758,5f3d7b3310ad88134a27f2c7,64c7fed44a04f777bb1e18ce,64c800c2cc715de01dc27de8,up,-1,0.75,0.5,30,0,1.2425,,,,,,265,0,265,0,1,,,,,
,,708132,001,2023-07-31_12h46.30.794,arm3_eps,2022.2.5,Win32,59.79430758,5f3d7b3310ad88134a27f2c7,64c7fed44a04f777bb1e18ce,64c800c2cc715de01dc27de8,down,-1,0.75,0.5,30,0,1.2076,,,,,,266,0,266,0,1,,,,,
,,708132,001,2023-07-31_12h46.30.794,arm3_eps,2022.2.5,Win32,59.79430758,5f3d7b3310ad88134a27f2c7,64c7fed44a04f777bb1e18ce,64c800c2cc715de01dc27de8,down,1,0.75,0.5,31,0,1.4086,,,,,,267,0,267,0,1,,,,,
